subj_idx,block,trial,vStims,aStim,resp,rt,fb,iti,feedJitter,vSymbols,aFile,stimOnset,respOnset,feedbackOnset,block_abs
10,1,1,8_3,3,1,1.102,0,2301,1510,hc,a_uml.wav,7352,8454,10889,2
10,1,2,1_2,2,1,1.157,0,3050,2175,ab,u.wav,15985,17142,20176,2
10,1,3,7_1,1,1,1.095,0,2863,1823,ga,i.wav,25078,26173,28927,2
10,1,4,4_5,5,1,1.579,0,3043,1850,de,o.wav,34005,35584,37896,2
10,1,5,3_2,2,2,0.812,1,2548,1588,cb,u.wav,42470,43282,46096,2
10,1,6,1_6,1,1,1.158,1,3374,1869,af,i.wav,51492,52650,55373,2
10,1,7,4_3,4,1,1.22,1,1752,1989,dc,a_low.wav,59168,60388,63173,2
10,1,8,7_2,2,2,0.915,1,3569,1124,gb,u.wav,68754,69669,71890,2
10,1,9,5_8,5,1,1.77,1,3057,1642,eh,o.wav,76971,78741,80640,2
10,1,10,6_3,3,2,0.611,1,2316,2304,fc,a_uml.wav,84976,85587,89302,2
10,1,11,6_2,2,2,0.737,1,3271,1211,fb,u.wav,94589,95326,97827,2
10,1,12,3_5,3,1,1.227,1,2516,2011,ce,a_uml.wav,102368,103595,106413,2
10,1,13,1_8,1,1,0.903,1,4089,1626,ah,i.wav,112527,113430,116179,2
10,1,14,3_4,3,1,0.783,1,2760,2016,cd,a_uml.wav,120958,121741,124996,2
10,1,15,4_6,4,1,0.838,1,2608,2140,df,a_low.wav,129624,130462,133778,2
10,1,16,4_2,2,2,0.944,1,3929,1857,db,u.wav,139728,140672,143611,2
10,1,17,5_4,4,1,1.141,0,3162,1933,ed,a_low.wav,148792,149933,152736,2
10,1,18,2_5,5,1,0.779,0,3332,2168,be,o.wav,158082,158861,162269,2
10,1,19,5_3,3,2,0.906,1,3164,1861,ec,a_uml.wav,167461,168367,171348,2
10,1,20,3_5,5,1,1.202,0,3788,1584,ce,o.wav,177152,178354,180760,2
10,1,21,6_1,1,2,0.982,1,1892,1982,fa,i.wav,184678,185660,188679,2
10,1,22,4_7,4,1,1.213,1,2192,998,dg,a_low.wav,192889,194102,195926,2
10,1,23,3_8,3,1,1.079,1,3052,2260,ch,a_uml.wav,201002,202081,205294,2
10,1,24,1_5,1,1,1.086,1,3082,2358,ae,i.wav,210401,211487,214779,2
10,1,25,2_3,2,1,0.798,1,2443,1421,bc,u.wav,219238,220036,222678,2
10,1,26,5_2,5,1,1.784,1,2872,1733,eb,o.wav,227561,229345,231328,2
10,1,27,8_2,2,2,0.786,1,2398,1333,hb,u.wav,235744,236530,239106,2
10,1,28,3_1,1,2,0.919,1,2286,2258,ca,i.wav,243419,244338,247693,2
10,1,29,6_5,5,2,1.21,1,2698,2704,fe,o.wav,252418,253628,257152,2
10,1,30,1_3,1,1,0.696,1,3440,1600,ac,i.wav,262618,263314,266235,2
10,1,31,4_2,4,1,0.795,1,2874,2350,db,a_low.wav,271136,271931,275501,2
10,1,32,5_7,5,1,1.092,1,2274,2509,eg,o.wav,279799,280891,284336,2
10,1,33,6_4,4,2,1.253,1,2873,2563,fd,a_low.wav,289233,290486,293830,2
10,1,34,2_8,2,1,0.735,1,3221,1968,bh,u.wav,299075,299810,303066,2
10,1,35,8_4,4,2,1.048,1,2990,2482,hd,a_low.wav,308071,309119,312575,2
10,1,36,5_6,5,1,0.926,1,3015,2549,ef,o.wav,317607,318533,322171,2
10,1,37,1_3,3,2,0.971,1,2685,2253,ac,a_uml.wav,326877,327848,331156,2
10,1,38,1_2,1,1,1.052,1,2720,1426,ab,i.wav,335890,336942,339342,2
10,1,39,3_6,3,1,0.973,1,3282,1346,cf,a_uml.wav,344647,345620,348009,2
10,1,40,2_4,4,2,1.078,1,2097,2675,bd,a_low.wav,352120,353198,356822,2
10,2,1,5_8,5,2,0.93,0,2274,2675,EH,k_asp_cut.wav,7330,8260,12022,3
10,2,2,7_4,4,1,1.35,0,3221,2549,GD,b_sh_cut.wav,17260,18610,21834,3
10,2,3,2_8,2,1,1.389,1,2720,1588,BH,g_sl_cut.wav,26592,27981,30206,3
10,2,4,8_1,1,2,1.228,1,2316,1968,HA,p_cut.wav,34540,35768,38533,3
10,2,5,2_6,2,1,1.46,1,3332,1346,BF,g_sl_cut.wav,43880,45340,47262,3
10,2,6,3_5,5,2,0.521,1,2286,1124,CE,k_asp_cut.wav,51563,52084,54702,3
10,2,7,6_4,4,1,0.924,0,3082,1510,FD,b_sh_cut.wav,59808,60732,63337,3
10,2,8,3_1,1,2,0.867,1,2301,1850,CA,p_cut.wav,67667,68534,71535,3
10,2,9,7_3,3,1,1.542,0,3282,1733,GC,k_click_cut.wav,76842,78384,80592,3
10,2,10,2_3,2,1,0.843,1,3052,1933,BC,g_sl_cut.wav,85662,86505,89609,3
10,2,11,3_4,4,2,1.011,1,2863,998,CD,b_sh_cut.wav,94487,95498,97510,3
10,2,12,3_8,3,2,0.892,0,2516,1642,CH,k_click_cut.wav,102051,102943,105710,3
10,2,13,7_1,1,2,0.954,1,3162,2175,GA,p_cut.wav,110893,111847,115078,3
10,2,14,5_1,5,2,0.74,0,3929,2482,EA,k_asp_cut.wav,121029,121769,125537,3
10,2,15,2_7,2,1,1.145,1,2685,1869,BG,g_sl_cut.wav,130238,131383,134133,3
10,2,16,1_7,1,2,1.063,0,3788,1823,AG,p_cut.wav,139946,141009,143793,3
10,2,17,3_1,3,1,1.568,1,3015,2168,CA,k_click_cut.wav,148826,150394,153027,3
10,2,18,5_6,5,1,1.165,1,3374,1211,EF,k_asp_cut.wav,158430,159595,161653,3
10,2,19,4_7,4,1,1.107,1,2398,1584,DG,b_sh_cut.wav,166076,167183,169670,3
10,2,20,3_2,2,1,1.133,0,1752,2358,CB,g_sl_cut.wav,173448,174581,177822,3
10,2,21,4_8,4,1,0.963,1,2760,1421,DH,b_sh_cut.wav,182598,183561,186041,3
10,2,23,4_5,5,2,1.524,1,3164,2011,DE,k_asp_cut.wav,200673,202197,204711,3
10,2,25,5_3,3,2,0.974,1,2548,2253,EC,k_click_cut.wav,217906,218880,222198,3
10,2,26,2_1,2,1,0.885,1,2097,2258,BA,g_sl_cut.wav,226309,227194,230594,3
10,2,27,1_4,1,1,1.77,1,3569,2350,AD,p_cut.wav,236190,237960,240553,3
10,2,28,8_3,3,2,0.748,1,2872,2304,HC,k_click_cut.wav,245449,246197,249769,3
10,2,29,6_5,5,2,1.446,1,3043,1857,FE,k_asp_cut.wav,254829,256275,258709,3
10,2,30,1_4,4,2,1.231,1,1892,1861,AD,b_sh_cut.wav,262620,263851,266500,3
10,2,31,8_5,5,2,0.975,1,3057,1989,HE,k_asp_cut.wav,271572,272547,275605,3
10,2,32,3_2,3,1,1.024,1,2192,1426,CB,k_click_cut.wav,279809,280833,283256,3
10,2,33,2_4,4,1,0.799,0,4089,2509,BD,b_sh_cut.wav,289368,290167,293903,3
10,2,34,7_2,2,1,1.182,0,2873,1626,GB,g_sl_cut.wav,298801,299983,302443,3
10,2,35,4_3,4,1,1.13,1,3271,2563,DC,b_sh_cut.wav,307733,308863,312340,3
10,2,36,1_2,2,1,1.793,0,2990,1600,AB,g_sl_cut.wav,317354,319147,320995,3
10,2,37,3_6,3,1,0.855,1,2874,2140,CF,k_click_cut.wav,325896,326751,330068,3
10,2,38,5_3,5,1,1.519,1,3440,2260,EC,k_asp_cut.wav,335529,337048,339806,3
10,2,39,3_5,3,1,0.852,1,3050,1333,CE,k_click_cut.wav,344881,345733,348248,3
10,2,40,1_3,1,1,1.521,1,2443,2016,AC,p_cut.wav,352719,354240,356753,3
10,3,1,4_3,4,1,1.109,1,2516,1588,LK,r_dent_cut.wav,7568,8677,11177,4
10,3,2,3_8,3,1,1.401,1,3569,1968,KP,n_alv_cut.wav,16766,18167,20766,4
10,3,3,1_5,1,2,1.108,0,3052,1333,IM,n_palat_cut.wav,25831,26939,29180,4
10,3,4,2_7,2,1,0.983,1,2873,1124,JO,r_dent_trill_cut.wav,34079,35062,37220,4
10,3,5,6_1,1,1,1.774,0,2720,2140,NI,n_palat_cut.wav,41963,43737,46129,4
10,3,6,4_7,4,1,1.132,1,3050,1510,LO,r_dent_cut.wav,51200,52332,54726,4
10,3,7,7_2,2,2,1.158,1,3282,1211,OJ,r_dent_trill_cut.wav,60037,61195,63263,4
10,3,8,8_1,1,2,0.903,1,3788,1982,PI,n_palat_cut.wav,69076,69979,73083,4
10,3,9,3_4,3,1,1.492,1,3164,1626,KL,n_alv_cut.wav,78265,79757,81918,4
10,3,11,8_2,2,2,0.656,1,2874,2358,PJ,r_dent_trill_cut.wav,95949,96605,100321,4
10,3,12,5_3,3,2,0.637,1,3374,1600,MK,n_alv_cut.wav,105711,106348,109324,4
10,3,13,1_2,2,2,0.687,1,3929,1642,IJ,r_dent_trill_cut.wav,115280,115967,118948,4
10,3,14,5_1,5,2,1.095,0,2990,1733,MI,n_velar_cut.wav,123959,125054,127715,4
10,3,15,4_3,3,1,1.304,0,1752,2350,LK,n_alv_cut.wav,131485,132789,135852,4
10,3,16,6_5,5,2,1.783,1,3043,1584,NM,n_velar_cut.wav,140919,142702,144526,4
10,3,17,8_4,4,2,0.732,1,3015,1346,PL,r_dent_cut.wav,149566,150298,152928,4
10,3,18,6_2,2,2,0.634,1,3332,2168,NJ,r_dent_trill_cut.wav,158274,158908,162461,4
10,3,19,3_1,3,1,1.458,1,2192,2304,KI,n_alv_cut.wav,166681,168139,171006,4
10,3,20,5_2,2,2,0.616,1,2685,2563,MJ,r_dent_trill_cut.wav,175708,176324,180296,4
10,3,21,6_3,3,2,0.672,1,2698,2704,NK,n_alv_cut.wav,185018,185690,189735,4
10,3,22,4_8,4,1,0.692,1,3057,1861,LP,r_dent_cut.wav,194818,195510,198706,4
10,3,23,7_5,5,1,1.565,0,3162,2258,OM,n_velar_cut.wav,203883,205448,208152,4
10,3,24,1_6,1,1,1.053,1,2398,1426,IN,n_palat_cut.wav,212577,213630,216013,4
10,3,25,2_4,4,1,1.74,0,2316,2675,JL,r_dent_cut.wav,220352,222092,225049,4
10,3,26,1_5,5,2,1.645,1,2274,2482,IM,n_velar_cut.wav,229342,230987,233851,4
10,3,27,5_4,4,2,0.749,1,2443,998,ML,r_dent_cut.wav,238311,239060,241328,4
10,3,28,1_2,1,1,0.977,1,2760,2175,IJ,n_palat_cut.wav,246112,247089,250309,4
10,3,29,5_8,5,1,1.672,1,2286,2253,MP,n_velar_cut.wav,254616,256288,258885,4
10,3,30,3_6,3,1,0.817,1,2872,1823,KN,n_alv_cut.wav,263771,264588,267611,4
10,3,31,2_5,5,1,0.748,0,2608,2011,JM,n_velar_cut.wav,272236,272984,276279,4
10,3,32,4_5,4,1,0.742,1,3440,1989,LM,r_dent_cut.wav,281744,282486,285750,4
10,3,33,3_1,1,2,1.502,1,4089,1421,KI,n_palat_cut.wav,291851,293353,295298,4
10,3,34,8_3,3,1,0.98,0,3271,1857,PK,n_alv_cut.wav,300579,301559,304481,4
10,3,35,6_4,4,1,0.971,0,2301,1933,NL,r_dent_cut.wav,308801,309772,312770,4
10,3,36,7_1,1,2,0.936,1,2548,1850,OI,n_palat_cut.wav,317332,318268,321203,4
10,3,37,2_4,2,2,1.967,0,3221,1869,JL,r_dent_trill_cut.wav,326450,328417,330342,4
10,3,38,4_1,1,2,1.075,1,2097,2260,LI,n_palat_cut.wav,334464,335539,338751,4
10,3,39,2_3,2,2,1.019,0,1892,2549,JK,r_dent_trill_cut.wav,342668,343687,347253,4
10,3,40,8_5,5,2,1.236,1,2863,2509,PM,n_velar_cut.wav,352136,353372,356671,4
