block	trial	Vstim	Astim	match	C/I	resp	.result	RT	fb	V-file	A-file
LR

0	1	3	2	0	C	2	0	1797	0	Ⴎ	DEU_m_1.wav
0	2	2	2	0	C	1	0	1710	0	Ⴔ	DEU_m_1.wav
0	3	1	1	1	C	1	0	1747	0	Ⴒ	DEU_ä.wav
0	4	1	3	0	C	1	1	1432	1	Ⴒ	DEU_ch_1.wav
0	5	2	1	0	C	1	1	2029	1	Ⴔ	DEU_ä.wav
0	6	3	2	0	C	1	0	1567	0	Ⴎ	DEU_m_1.wav
0	7	2	1	0	C	1	1	1422	1	Ⴔ	DEU_ä.wav
0	8	1	1	1	C	2	1	1264	1	Ⴒ	DEU_ä.wav
0	9	3	2	0	C	1	1	1854	1	Ⴎ	DEU_m_1.wav
0	10	3	2	0	C	2	1	1641	1	Ⴎ	DEU_m_1.wav
0	11	1	3	0	C	2	0	1406	0	Ⴒ	DEU_ch_1.wav
0	12	2	2	0	C	1	0	1298	0	Ⴔ	DEU_m_1.wav
0	13	1	3	0	C	1	1	1484	1	Ⴒ	DEU_ch_1.wav
0	14	2	2	0	C	2	1	1589	1	Ⴔ	DEU_m_1.wav
0	15	3	2	0	C	1	0	1526	0	Ⴎ	DEU_m_1.wav
avg_resp = 1589
1	1	3	2	0	1	1	1565	1	Ⴂ	DEU_f.wav
1	2	1	3	0	1	1	1390	1	Ⴁ	DEU_p.wav
1	3	2	1	0	1	1	1815	1	Ⴜ	DEU_n.wav
1	4	3	2	0	2	0	1206	0	Ⴂ	DEU_f.wav
1	5	1	3	0	1	1	980	1	Ⴁ	DEU_p.wav
1	6	2	1	0	2	0	1684	0	Ⴜ	DEU_n.wav
1	7	3	2	0	1	1	1139	1	Ⴂ	DEU_f.wav
1	8	1	3	0	2	0	1472	0	Ⴁ	DEU_p.wav
1	9	2	2	1	2	1	1477	1	Ⴜ	DEU_f.wav
1	10	1	1	1	2	1	2168	1	Ⴁ	DEU_n.wav
1	11	2	1	0	2	0	1908	0	Ⴜ	DEU_n.wav
1	12	3	3	1	2	1	1214	1	Ⴂ	DEU_p.wav
1	13	1	1	1	1	0	1797	0	Ⴁ	DEU_n.wav
1	14	2	1	0	2	0	1324	0	Ⴜ	DEU_n.wav
1	15	3	2	0	1	1	1172	1	Ⴂ	DEU_f.wav
1	16	2	1	0	2	0	1232	0	Ⴜ	DEU_n.wav
1	17	3	3	1	1	0	1203	0	Ⴂ	DEU_p.wav
1	18	2	2	1	2	1	1998	1	Ⴜ	DEU_f.wav
1	19	1	3	0	1	1	2013	1	Ⴁ	DEU_p.wav
1	20	2	2	1	2	1	1866	1	Ⴜ	DEU_f.wav
1	21	3	3	1	2	1	1414	1	Ⴂ	DEU_p.wav
1	22	1	1	1	2	1	1723	1	Ⴁ	DEU_n.wav
1	23	3	3	1	2	1	1459	1	Ⴂ	DEU_p.wav
1	24	2	2	1	1	0	2218	0	Ⴜ	DEU_f.wav
1	25	1	3	0	2	0	2169	0	Ⴁ	DEU_p.wav
1	26	2	2	1	2	1	1433	1	Ⴜ	DEU_f.wav
1	27	3	3	1	2	1	1034	1	Ⴂ	DEU_p.wav
1	28	1	1	1	2	1	1222	1	Ⴁ	DEU_n.wav
1	29	3	2	0	1	1	1121	1	Ⴂ	DEU_f.wav
1	30	1	1	1	2	1	1474	1	Ⴁ	DEU_n.wav
