block	trial	Vstim	Astim	match	C/I	resp	.result	RT	fb	V-file	A-file
LR

0	1	2	1	0	C	2	0	334	0	Ⴔ	DEU_m_1.wav
0	2	1	3	0	C	1	1	863	1	Ⴎ	DEU_t_1.wav
0	3	3	2	0	C	1	1	769	1	Ⴒ	DEU_ch_1.wav
0	4	3	2	0	C	1	0	1157	0	Ⴒ	DEU_ch_1.wav
0	5	1	1	1	C	1	0	737	0	Ⴎ	DEU_m_1.wav
0	6	2	2	0	C	1	0	945	0	Ⴔ	DEU_ch_1.wav
0	7	1	1	1	C	1	0	922	0	Ⴎ	DEU_m_1.wav
0	8	2	2	0	C	2	1	1081	1	Ⴔ	DEU_ch_1.wav
0	9	1	3	0	C	2	0	478	0	Ⴎ	DEU_t_1.wav
0	10	3	2	0	C	1	1	649	1	Ⴒ	DEU_ch_1.wav
0	11	3	2	0	C	1	0	696	0	Ⴒ	DEU_ch_1.wav
0	12	2	1	0	C	1	1	795	1	Ⴔ	DEU_m_1.wav
0	13	1	1	1	C	1	0	853	0	Ⴎ	DEU_m_1.wav
0	14	1	3	0	C	1	1	774	1	Ⴎ	DEU_t_1.wav
0	15	3	2	0	C	1	1	811	1	Ⴒ	DEU_ch_1.wav
avg_resp = 820
1	1	2	1	0	1	1	524	1	Ⴜ	DEU_u_short_1.wav
1	2	3	2	0	1	1	548	1	Ⴂ	DEU_n.wav
1	3	2	1	0	1	1	308	1	Ⴜ	DEU_u_short_1.wav
1	4	3	2	0	1	1	284	1	Ⴂ	DEU_n.wav
1	5	1	1	1	1	0	356	0	Ⴁ	DEU_u_short_1.wav
1	6	3	2	0	1	1	339	1	Ⴂ	DEU_n.wav
1	7	1	3	0	2	0	420	0	Ⴁ	DEU_f.wav
1	8	3	3	1	1	0	499	0	Ⴂ	DEU_f.wav
1	9	1	1	1	1	0	633	0	Ⴁ	DEU_u_short_1.wav
1	10	2	2	1	1	0	456	0	Ⴜ	DEU_n.wav
1	11	1	3	0	1	1	211	1	Ⴁ	DEU_f.wav
1	12	2	1	0	1	1	287	1	Ⴜ	DEU_u_short_1.wav
1	13	3	3	1	1	0	34	0	Ⴂ	DEU_f.wav
1	14	2	2	1	2	1	277	1	Ⴜ	DEU_n.wav
1	15	3	3	1	2	1	277	1	Ⴂ	DEU_f.wav
1	16	2	1	0	2	0	87	0	Ⴜ	DEU_u_short_1.wav
1	17	1	3	0	1	1	107	1	Ⴁ	DEU_f.wav
1	18	3	3	1	1	0	448	0	Ⴂ	DEU_f.wav
1	19	1	1	1	1	0	299	0	Ⴁ	DEU_u_short_1.wav
1	20	2	2	1	1	0	233	0	Ⴜ	DEU_n.wav
1	21	1	1	1	2	1	236	1	Ⴁ	DEU_u_short_1.wav
1	22	2	1	0	1	1	241	1	Ⴜ	DEU_u_short_1.wav
1	23	3	2	0	2	0	236	0	Ⴂ	DEU_n.wav
1	24	2	2	1	1	0	258	0	Ⴜ	DEU_n.wav
1	25	1	3	0	1	1	234	1	Ⴁ	DEU_f.wav
1	26	3	3	1	2	1	249	1	Ⴂ	DEU_f.wav
1	27	1	3	0	2	0	153	0	Ⴁ	DEU_f.wav
1	28	2	2	1	0	0	0	0	Ⴜ	DEU_n.wav
1	29	3	2	0	1	1	257	1	Ⴂ	DEU_n.wav
1	30	1	1	1	2	1	372	1	Ⴁ	DEU_u_short_1.wav
