block	trial	Vstim	Astim	match	resp	result	RT	fb	V-file	A-file
LR

1	1	1	1	1	1	0	1549	0	Ⴁ	DEU_f.wav
1	2	1	3	0	1	1	1068	1	Ⴁ	DEU_u_short_1.wav
1	3	2	2	1	1	0	1117	0	Ⴜ	DEU_p.wav
1	4	2	1	0	2	0	946	0	Ⴜ	DEU_f.wav
1	5	3	3	1	1	0	1039	0	Ⴂ	DEU_u_short_1.wav
1	6	3	2	0	1	1	1063	1	Ⴂ	DEU_p.wav
1	7	1	1	1	1	0	1176	0	Ⴁ	DEU_f.wav
1	8	1	3	0	1	1	1758	1	Ⴁ	DEU_u_short_1.wav
1	9	2	2	1	2	1	1344	1	Ⴜ	DEU_p.wav
1	10	2	1	0	1	1	1014	1	Ⴜ	DEU_f.wav
1	11	3	3	1	1	0	1127	0	Ⴂ	DEU_u_short_1.wav
1	12	3	2	0	1	1	779	1	Ⴂ	DEU_p.wav
1	13	1	1	1	2	1	1102	1	Ⴁ	DEU_f.wav
1	14	1	3	0	1	1	855	1	Ⴁ	DEU_u_short_1.wav
1	15	2	2	1	2	1	833	1	Ⴜ	DEU_p.wav
1	16	2	1	0	1	1	1278	1	Ⴜ	DEU_f.wav
1	17	3	3	1	1	0	1258	0	Ⴂ	DEU_u_short_1.wav
1	18	3	2	0	1	1	1130	1	Ⴂ	DEU_p.wav
1	19	1	1	1	0	0	0	0	Ⴁ	DEU_f.wav
1	20	1	3	0	2	0	1144	0	Ⴁ	DEU_u_short_1.wav
1	21	2	2	1	2	1	907	1	Ⴜ	DEU_p.wav
1	22	2	1	0	1	1	1096	1	Ⴜ	DEU_f.wav
1	23	3	3	1	1	0	939	0	Ⴂ	DEU_u_short_1.wav
1	24	3	2	0	1	1	923	1	Ⴂ	DEU_p.wav
1	25	1	1	1	1	0	1227	0	Ⴁ	DEU_f.wav
1	26	1	3	0	1	1	1174	1	Ⴁ	DEU_u_short_1.wav
1	27	2	2	1	2	1	780	1	Ⴜ	DEU_p.wav
1	28	2	1	0	1	1	1115	1	Ⴜ	DEU_f.wav
1	29	3	3	1	2	1	1375	1	Ⴂ	DEU_u_short_1.wav
1	30	3	2	0	2	0	1264	0	Ⴂ	DEU_p.wav
1	31	1	1	1	0	0	0	0	Ⴁ	DEU_f.wav
1	32	1	3	0	1	1	1249	1	Ⴁ	DEU_u_short_1.wav
1	33	2	2	1	2	1	730	1	Ⴜ	DEU_p.wav
1	34	2	1	0	1	1	1367	1	Ⴜ	DEU_f.wav
1	35	3	3	1	1	0	1489	0	Ⴂ	DEU_u_short_1.wav
1	36	3	2	0	1	1	1063	1	Ⴂ	DEU_p.wav
1	37	1	1	1	1	0	1595	0	Ⴁ	DEU_f.wav
1	38	1	3	0	1	1	1521	1	Ⴁ	DEU_u_short_1.wav
1	39	2	2	1	2	1	947	1	Ⴜ	DEU_p.wav
1	40	2	1	0	1	1	1402	1	Ⴜ	DEU_f.wav
1	41	3	3	1	2	1	1833	1	Ⴂ	DEU_u_short_1.wav
1	42	3	2	0	1	1	816	1	Ⴂ	DEU_p.wav
1	43	1	1	1	1	0	1784	0	Ⴁ	DEU_f.wav
1	44	1	3	0	1	1	1940	1	Ⴁ	DEU_u_short_1.wav
1	45	2	2	1	2	1	768	1	Ⴜ	DEU_p.wav
1	46	2	1	0	1	1	1552	1	Ⴜ	DEU_f.wav
1	47	3	3	1	1	0	1196	0	Ⴂ	DEU_u_short_1.wav
1	48	3	2	0	1	1	969	1	Ⴂ	DEU_p.wav
2	1	2	2	1	0	0	0	0	Ⴃ	DEU_i_1.wav
2	2	3	3	1	0	0	0	0	Ⴟ	DEU_r_1.wav
2	3	2	2	1	1	0	1153	0	Ⴃ	DEU_i_1.wav
2	4	3	2	0	1	1	1037	1	Ⴟ	DEU_i_1.wav
2	5	3	3	1	2	1	1185	1	Ⴟ	DEU_r_1.wav
2	6	3	3	1	1	0	1528	0	Ⴟ	DEU_r_1.wav
2	7	2	2	1	1	0	1625	0	Ⴃ	DEU_i_1.wav
2	8	1	3	0	1	1	1013	1	Ⴡ	DEU_r_1.wav
2	9	3	3	1	1	0	890	0	Ⴟ	DEU_r_1.wav
2	10	3	2	0	1	1	743	1	Ⴟ	DEU_i_1.wav
2	11	1	3	0	1	1	718	1	Ⴡ	DEU_r_1.wav
2	12	3	2	0	1	1	1068	1	Ⴟ	DEU_i_1.wav
2	13	2	2	1	2	1	1726	1	Ⴃ	DEU_i_1.wav
2	14	1	1	1	2	1	1442	1	Ⴡ	DEU_n.wav
2	15	1	1	1	2	1	1182	1	Ⴡ	DEU_n.wav
2	16	1	1	1	2	1	1087	1	Ⴡ	DEU_n.wav
2	17	2	2	1	2	1	1080	1	Ⴃ	DEU_i_1.wav
2	18	3	3	1	2	1	1516	1	Ⴟ	DEU_r_1.wav
2	19	2	1	0	2	0	1324	0	Ⴃ	DEU_n.wav
2	20	1	3	0	1	1	739	1	Ⴡ	DEU_r_1.wav
2	21	3	3	1	2	1	1523	1	Ⴟ	DEU_r_1.wav
2	22	2	1	0	1	1	1105	1	Ⴃ	DEU_n.wav
2	23	1	3	0	1	1	663	1	Ⴡ	DEU_r_1.wav
2	24	1	3	0	1	1	621	1	Ⴡ	DEU_r_1.wav
2	25	3	2	0	1	1	667	1	Ⴟ	DEU_i_1.wav
2	26	1	1	1	2	1	933	1	Ⴡ	DEU_n.wav
2	27	1	3	0	1	1	861	1	Ⴡ	DEU_r_1.wav
2	28	3	2	0	1	1	1012	1	Ⴟ	DEU_i_1.wav
2	29	2	1	0	1	1	1418	1	Ⴃ	DEU_n.wav
2	30	3	3	1	2	1	1113	1	Ⴟ	DEU_r_1.wav
2	31	2	2	1	2	1	1334	1	Ⴃ	DEU_i_1.wav
2	32	1	3	0	1	1	733	1	Ⴡ	DEU_r_1.wav
2	33	1	1	1	2	1	890	1	Ⴡ	DEU_n.wav
2	34	2	1	0	2	0	850	0	Ⴃ	DEU_n.wav
2	35	3	3	1	2	1	1004	1	Ⴟ	DEU_r_1.wav
2	36	1	1	1	2	1	859	1	Ⴡ	DEU_n.wav
2	37	2	1	0	1	1	1924	1	Ⴃ	DEU_n.wav
2	38	1	3	0	1	1	1263	1	Ⴡ	DEU_r_1.wav
2	39	2	2	1	2	1	1441	1	Ⴃ	DEU_i_1.wav
2	40	1	1	1	2	1	841	1	Ⴡ	DEU_n.wav
2	41	2	1	0	1	1	1601	1	Ⴃ	DEU_n.wav
2	42	2	1	0	1	1	1393	1	Ⴃ	DEU_n.wav
2	43	3	2	0	1	1	755	1	Ⴟ	DEU_i_1.wav
2	44	2	2	1	2	1	1308	1	Ⴃ	DEU_i_1.wav
2	45	1	1	1	2	1	925	1	Ⴡ	DEU_n.wav
2	46	3	2	0	1	1	794	1	Ⴟ	DEU_i_1.wav
2	47	3	2	0	1	1	737	1	Ⴟ	DEU_i_1.wav
2	48	2	1	0	1	1	1062	1	Ⴃ	DEU_n.wav
3	1	1	1	1	1	0	1381	0	Ⴊ	DEU_g.wav
3	2	3	2	0	1	1	1061	1	Ⴇ	DEU_e_1.wav
3	3	2	1	0	1	1	950	1	Ⴢ	DEU_g.wav
3	4	2	2	1	1	0	1064	0	Ⴢ	DEU_e_1.wav
3	5	2	1	0	1	1	1046	1	Ⴢ	DEU_g.wav
3	6	3	3	1	2	1	935	1	Ⴇ	DEU_s_1.wav
3	7	1	3	0	1	1	975	1	Ⴊ	DEU_s_1.wav
3	8	1	3	0	2	0	1111	0	Ⴊ	DEU_s_1.wav
3	9	2	2	1	2	1	1396	1	Ⴢ	DEU_e_1.wav
3	10	1	3	0	1	1	816	1	Ⴊ	DEU_s_1.wav
3	11	3	2	0	1	1	857	1	Ⴇ	DEU_e_1.wav
3	12	1	1	1	2	1	1297	1	Ⴊ	DEU_g.wav
3	13	2	2	1	2	1	1170	1	Ⴢ	DEU_e_1.wav
3	14	2	1	0	1	1	731	1	Ⴢ	DEU_g.wav
3	15	1	3	0	1	1	732	1	Ⴊ	DEU_s_1.wav
3	16	3	2	0	1	1	1372	1	Ⴇ	DEU_e_1.wav
3	17	1	3	0	1	1	765	1	Ⴊ	DEU_s_1.wav
3	18	2	1	0	1	1	647	1	Ⴢ	DEU_g.wav
3	19	3	2	0	1	1	1222	1	Ⴇ	DEU_e_1.wav
3	20	1	1	1	2	1	723	1	Ⴊ	DEU_g.wav
3	21	3	3	1	2	1	1075	1	Ⴇ	DEU_s_1.wav
3	22	2	1	0	1	1	759	1	Ⴢ	DEU_g.wav
3	23	1	3	0	1	1	699	1	Ⴊ	DEU_s_1.wav
3	24	1	1	1	2	1	890	1	Ⴊ	DEU_g.wav
3	25	2	2	1	2	1	1045	1	Ⴢ	DEU_e_1.wav
3	26	3	2	0	1	1	1386	1	Ⴇ	DEU_e_1.wav
3	27	2	1	0	1	1	808	1	Ⴢ	DEU_g.wav
3	28	1	3	0	1	1	1130	1	Ⴊ	DEU_s_1.wav
3	29	3	2	0	1	1	1155	1	Ⴇ	DEU_e_1.wav
3	30	3	3	1	2	1	959	1	Ⴇ	DEU_s_1.wav
3	31	1	3	0	1	1	779	1	Ⴊ	DEU_s_1.wav
3	32	3	3	1	2	1	1218	1	Ⴇ	DEU_s_1.wav
3	33	1	1	1	2	1	983	1	Ⴊ	DEU_g.wav
3	34	3	2	0	1	1	1361	1	Ⴇ	DEU_e_1.wav
3	35	1	1	1	2	1	862	1	Ⴊ	DEU_g.wav
3	36	2	2	1	2	1	1211	1	Ⴢ	DEU_e_1.wav
3	37	3	3	1	2	1	1061	1	Ⴇ	DEU_s_1.wav
3	38	2	2	1	2	1	1121	1	Ⴢ	DEU_e_1.wav
3	39	3	2	0	1	1	1146	1	Ⴇ	DEU_e_1.wav
3	40	3	3	1	2	1	970	1	Ⴇ	DEU_s_1.wav
3	41	2	1	0	1	1	1647	1	Ⴢ	DEU_g.wav
3	42	1	1	1	2	1	876	1	Ⴊ	DEU_g.wav
3	43	2	2	1	2	1	1034	1	Ⴢ	DEU_e_1.wav
3	44	1	1	1	2	1	1335	1	Ⴊ	DEU_g.wav
3	45	2	1	0	1	1	823	1	Ⴢ	DEU_g.wav
3	46	3	3	1	2	1	958	1	Ⴇ	DEU_s_1.wav
3	47	3	3	1	2	1	1183	1	Ⴇ	DEU_s_1.wav
3	48	2	2	1	2	1	1029	1	Ⴢ	DEU_e_1.wav
