block	trial	Vstim	Astim	match	resp	result	rt	fb	V-file	A-file
LR

1	1	1	1	1	1	0	1162	0	Ⴂ	DEU_u_short_1.wav
1	2	1	3	0	1	1	964	1	Ⴂ	DEU_f.wav
1	3	2	2	1	1	0	928	0	Ⴁ	DEU_p.wav
1	4	2	1	0	1	1	1960	1	Ⴁ	DEU_u_short_1.wav
1	5	3	3	1	1	0	1064	0	Ⴜ	DEU_f.wav
1	6	3	2	0	1	1	1132	1	Ⴜ	DEU_p.wav
1	7	1	1	1	2	1	1120	1	Ⴂ	DEU_u_short_1.wav
1	8	1	3	0	1	1	750	1	Ⴂ	DEU_f.wav
1	9	2	2	1	1	0	980	0	Ⴁ	DEU_p.wav
1	10	2	1	0	1	1	2003	1	Ⴁ	DEU_u_short_1.wav
1	11	3	3	1	2	1	1200	1	Ⴜ	DEU_f.wav
1	12	3	2	0	1	1	1126	1	Ⴜ	DEU_p.wav
1	13	1	1	1	2	1	1042	1	Ⴂ	DEU_u_short_1.wav
1	14	1	3	0	1	1	732	1	Ⴂ	DEU_f.wav
1	15	2	2	1	2	1	1932	1	Ⴁ	DEU_p.wav
1	16	2	1	0	1	1	737	1	Ⴁ	DEU_u_short_1.wav
1	17	3	3	1	2	1	896	1	Ⴜ	DEU_f.wav
1	18	3	2	0	1	1	1140	1	Ⴜ	DEU_p.wav
1	19	1	1	1	2	1	831	1	Ⴂ	DEU_u_short_1.wav
1	20	1	3	0	1	1	1467	1	Ⴂ	DEU_f.wav
1	21	2	2	1	2	1	1470	1	Ⴁ	DEU_p.wav
1	22	2	1	0	1	1	984	1	Ⴁ	DEU_u_short_1.wav
1	23	3	3	1	2	1	1350	1	Ⴜ	DEU_f.wav
1	24	3	2	0	1	1	871	1	Ⴜ	DEU_p.wav
1	25	1	1	1	2	1	781	1	Ⴂ	DEU_u_short_1.wav
1	26	1	3	0	1	1	1721	1	Ⴂ	DEU_f.wav
1	27	2	2	1	2	1	1450	1	Ⴁ	DEU_p.wav
1	28	2	1	0	1	1	826	1	Ⴁ	DEU_u_short_1.wav
1	29	3	3	1	2	1	965	1	Ⴜ	DEU_f.wav
1	30	3	2	0	1	1	726	1	Ⴜ	DEU_p.wav
1	31	1	1	1	2	1	1487	1	Ⴂ	DEU_u_short_1.wav
1	32	1	3	0	1	1	867	1	Ⴂ	DEU_f.wav
1	33	2	2	1	2	1	1030	1	Ⴁ	DEU_p.wav
1	34	2	1	0	1	1	969	1	Ⴁ	DEU_u_short_1.wav
1	35	3	3	1	2	1	1023	1	Ⴜ	DEU_f.wav
1	36	3	2	0	1	1	735	1	Ⴜ	DEU_p.wav
1	37	1	1	1	2	1	828	1	Ⴂ	DEU_u_short_1.wav
1	38	1	3	0	1	1	1092	1	Ⴂ	DEU_f.wav
1	39	2	2	1	2	1	798	1	Ⴁ	DEU_p.wav
1	40	2	1	0	1	1	787	1	Ⴁ	DEU_u_short_1.wav
1	41	3	3	1	2	1	1177	1	Ⴜ	DEU_f.wav
1	42	3	2	0	1	1	901	1	Ⴜ	DEU_p.wav
1	43	1	1	1	2	1	788	1	Ⴂ	DEU_u_short_1.wav
1	44	1	3	0	1	1	682	1	Ⴂ	DEU_f.wav
1	45	2	2	1	2	1	991	1	Ⴁ	DEU_p.wav
1	46	2	1	0	1	1	926	1	Ⴁ	DEU_u_short_1.wav
1	47	3	3	1	2	1	1185	1	Ⴜ	DEU_f.wav
1	48	3	2	0	1	1	735	1	Ⴜ	DEU_p.wav
2	1	1	3	0	1	1	1184	1	Ⴃ	DEU_e_1.wav
2	2	1	1	1	2	1	1047	1	Ⴃ	DEU_n.wav
2	3	2	2	1	1	0	1880	0	Ⴡ	DEU_r_1.wav
2	4	2	2	1	2	1	927	1	Ⴡ	DEU_r_1.wav
2	5	2	1	0	1	1	1401	1	Ⴡ	DEU_n.wav
2	6	1	1	1	2	1	1673	1	Ⴃ	DEU_n.wav
2	7	2	1	0	0	0	0	0	Ⴡ	DEU_n.wav
2	8	3	2	0	2	0	1936	0	Ⴟ	DEU_r_1.wav
2	9	1	3	0	1	1	1049	1	Ⴃ	DEU_e_1.wav
2	10	1	3	0	1	1	1239	1	Ⴃ	DEU_e_1.wav
2	11	2	2	1	0	0	0	0	Ⴡ	DEU_r_1.wav
2	12	2	2	1	2	1	794	1	Ⴡ	DEU_r_1.wav
2	13	3	3	1	2	1	1225	1	Ⴟ	DEU_e_1.wav
2	14	3	3	1	2	1	973	1	Ⴟ	DEU_e_1.wav
2	15	1	1	1	2	1	1476	1	Ⴃ	DEU_n.wav
2	16	3	2	0	2	0	1115	0	Ⴟ	DEU_r_1.wav
2	17	3	2	0	1	1	885	1	Ⴟ	DEU_r_1.wav
2	18	3	2	0	1	1	833	1	Ⴟ	DEU_r_1.wav
2	19	2	1	0	1	1	911	1	Ⴡ	DEU_n.wav
2	20	1	1	1	2	1	836	1	Ⴃ	DEU_n.wav
2	21	3	2	0	1	1	1216	1	Ⴟ	DEU_r_1.wav
2	22	3	3	1	2	1	1021	1	Ⴟ	DEU_e_1.wav
2	23	3	2	0	1	1	1407	1	Ⴟ	DEU_r_1.wav
2	24	3	2	0	1	1	747	1	Ⴟ	DEU_r_1.wav
2	25	1	3	0	1	1	867	1	Ⴃ	DEU_e_1.wav
2	26	3	2	0	1	1	926	1	Ⴟ	DEU_r_1.wav
2	27	2	2	1	2	1	865	1	Ⴡ	DEU_r_1.wav
2	28	1	3	0	1	1	906	1	Ⴃ	DEU_e_1.wav
2	29	1	1	1	2	1	790	1	Ⴃ	DEU_n.wav
2	30	1	3	0	1	1	841	1	Ⴃ	DEU_e_1.wav
2	31	2	2	1	2	1	1203	1	Ⴡ	DEU_r_1.wav
2	32	2	1	0	1	1	954	1	Ⴡ	DEU_n.wav
2	33	3	3	1	2	1	906	1	Ⴟ	DEU_e_1.wav
2	34	3	3	1	2	1	772	1	Ⴟ	DEU_e_1.wav
2	35	1	3	0	1	1	695	1	Ⴃ	DEU_e_1.wav
2	36	2	1	0	1	1	1087	1	Ⴡ	DEU_n.wav
2	37	1	1	1	2	1	872	1	Ⴃ	DEU_n.wav
2	38	3	3	1	2	1	903	1	Ⴟ	DEU_e_1.wav
2	39	2	2	1	2	1	929	1	Ⴡ	DEU_r_1.wav
2	40	2	1	0	1	1	1031	1	Ⴡ	DEU_n.wav
2	41	1	1	1	2	1	740	1	Ⴃ	DEU_n.wav
2	42	3	3	1	2	1	1113	1	Ⴟ	DEU_e_1.wav
2	43	1	3	0	1	1	759	1	Ⴃ	DEU_e_1.wav
2	44	1	1	1	2	1	750	1	Ⴃ	DEU_n.wav
2	45	2	1	0	1	1	991	1	Ⴡ	DEU_n.wav
2	46	3	3	1	2	1	927	1	Ⴟ	DEU_e_1.wav
2	47	2	1	0	1	1	893	1	Ⴡ	DEU_n.wav
2	48	2	2	1	1	0	972	0	Ⴡ	DEU_r_1.wav
3	1	2	1	0	1	1	955	1	Ⴊ	DEU_g.wav
3	2	3	3	1	0	0	0	0	Ⴇ	DEU_l_1.wav
3	3	2	1	0	1	1	604	1	Ⴊ	DEU_g.wav
3	4	2	1	0	1	1	758	1	Ⴊ	DEU_g.wav
3	5	2	2	1	2	1	833	1	Ⴊ	DEU_i_1.wav
3	6	3	2	0	2	0	957	0	Ⴇ	DEU_i_1.wav
3	7	3	2	0	1	1	723	1	Ⴇ	DEU_i_1.wav
3	8	3	2	0	1	1	674	1	Ⴇ	DEU_i_1.wav
3	9	3	3	1	2	1	1041	1	Ⴇ	DEU_l_1.wav
3	10	1	3	0	1	1	872	1	Ⴢ	DEU_l_1.wav
3	11	1	1	1	2	1	910	1	Ⴢ	DEU_g.wav
3	12	1	1	1	2	1	893	1	Ⴢ	DEU_g.wav
3	13	1	1	1	2	1	731	1	Ⴢ	DEU_g.wav
3	14	1	3	0	1	1	1008	1	Ⴢ	DEU_l_1.wav
3	15	1	1	1	2	1	807	1	Ⴢ	DEU_g.wav
3	16	3	3	1	2	1	1511	1	Ⴇ	DEU_l_1.wav
3	17	2	1	0	1	1	732	1	Ⴊ	DEU_g.wav
3	18	3	2	0	1	1	817	1	Ⴇ	DEU_i_1.wav
3	19	3	2	0	1	1	618	1	Ⴇ	DEU_i_1.wav
3	20	2	2	1	2	1	818	1	Ⴊ	DEU_i_1.wav
3	21	2	2	1	2	1	932	1	Ⴊ	DEU_i_1.wav
3	22	1	3	0	1	1	864	1	Ⴢ	DEU_l_1.wav
3	23	3	2	0	1	1	819	1	Ⴇ	DEU_i_1.wav
3	24	2	2	1	2	1	735	1	Ⴊ	DEU_i_1.wav
3	25	3	3	1	2	1	945	1	Ⴇ	DEU_l_1.wav
3	26	2	1	0	1	1	668	1	Ⴊ	DEU_g.wav
3	27	1	3	0	1	1	787	1	Ⴢ	DEU_l_1.wav
3	28	3	3	1	2	1	921	1	Ⴇ	DEU_l_1.wav
3	29	2	2	1	2	1	786	1	Ⴊ	DEU_i_1.wav
3	30	1	1	1	2	1	783	1	Ⴢ	DEU_g.wav
3	31	2	1	0	1	1	750	1	Ⴊ	DEU_g.wav
3	32	1	3	0	1	1	775	1	Ⴢ	DEU_l_1.wav
3	33	1	1	1	2	1	756	1	Ⴢ	DEU_g.wav
3	34	2	1	0	1	1	685	1	Ⴊ	DEU_g.wav
3	35	2	2	1	2	1	738	1	Ⴊ	DEU_i_1.wav
3	36	2	1	0	1	1	654	1	Ⴊ	DEU_g.wav
3	37	3	3	1	2	1	964	1	Ⴇ	DEU_l_1.wav
3	38	1	1	1	2	1	712	1	Ⴢ	DEU_g.wav
3	39	2	2	1	2	1	703	1	Ⴊ	DEU_i_1.wav
3	40	3	2	0	1	1	1086	1	Ⴇ	DEU_i_1.wav
3	41	1	3	0	1	1	803	1	Ⴢ	DEU_l_1.wav
3	42	2	2	1	2	1	829	1	Ⴊ	DEU_i_1.wav
3	43	1	3	0	1	1	769	1	Ⴢ	DEU_l_1.wav
3	44	1	1	1	2	1	870	1	Ⴢ	DEU_g.wav
3	45	3	3	1	2	1	780	1	Ⴇ	DEU_l_1.wav
3	46	3	3	1	2	1	1057	1	Ⴇ	DEU_l_1.wav
3	47	3	2	0	1	1	770	1	Ⴇ	DEU_i_1.wav
3	48	1	3	0	1	1	1958	1	Ⴢ	DEU_l_1.wav
