block	trial	Vstim	Astim	match	resp	result	RT	fb	V-file	A-file
LR

1	1	1	1	1	2	1	1738	1	Ⴂ	DEU_p.wav
1	2	1	3	0	1	1	935	1	Ⴂ	DEU_f.wav
1	3	2	2	1	2	1	1493	1	Ⴁ	DEU_u_short_1.wav
1	4	2	1	0	2	0	1320	0	Ⴁ	DEU_p.wav
1	5	3	3	1	1	0	1398	0	Ⴜ	DEU_f.wav
1	6	3	2	0	2	0	1251	0	Ⴜ	DEU_u_short_1.wav
1	7	1	1	1	1	0	1154	0	Ⴂ	DEU_p.wav
1	8	1	3	0	1	1	1672	1	Ⴂ	DEU_f.wav
1	9	2	2	1	1	0	1210	0	Ⴁ	DEU_u_short_1.wav
1	10	2	1	0	0	0	0	0	Ⴁ	DEU_p.wav
1	11	3	3	1	2	1	1276	1	Ⴜ	DEU_f.wav
1	12	3	2	0	2	0	1329	0	Ⴜ	DEU_u_short_1.wav
1	13	1	1	1	2	1	1782	1	Ⴂ	DEU_p.wav
1	14	1	3	0	1	1	1932	1	Ⴂ	DEU_f.wav
1	15	2	2	1	2	1	1452	1	Ⴁ	DEU_u_short_1.wav
1	16	2	1	0	1	1	1634	1	Ⴁ	DEU_p.wav
1	17	3	3	1	2	1	1103	1	Ⴜ	DEU_f.wav
1	18	3	2	0	1	1	1121	1	Ⴜ	DEU_u_short_1.wav
1	19	1	1	1	2	1	1377	1	Ⴂ	DEU_p.wav
1	20	1	3	0	1	1	917	1	Ⴂ	DEU_f.wav
1	21	2	2	1	1	0	1165	0	Ⴁ	DEU_u_short_1.wav
1	22	2	1	0	1	1	1560	1	Ⴁ	DEU_p.wav
1	23	3	3	1	2	1	1778	1	Ⴜ	DEU_f.wav
1	24	3	2	0	2	0	1418	0	Ⴜ	DEU_u_short_1.wav
1	25	1	1	1	2	1	1428	1	Ⴂ	DEU_p.wav
1	26	1	3	0	1	1	768	1	Ⴂ	DEU_f.wav
1	27	2	2	1	2	1	1351	1	Ⴁ	DEU_u_short_1.wav
1	28	2	1	0	1	1	841	1	Ⴁ	DEU_p.wav
1	29	3	3	1	2	1	1496	1	Ⴜ	DEU_f.wav
1	30	3	2	0	1	1	1044	1	Ⴜ	DEU_u_short_1.wav
1	31	1	1	1	2	1	1017	1	Ⴂ	DEU_p.wav
1	32	1	3	0	1	1	1227	1	Ⴂ	DEU_f.wav
1	33	2	2	1	2	1	1187	1	Ⴁ	DEU_u_short_1.wav
1	34	2	1	0	0	0	0	0	Ⴁ	DEU_p.wav
1	35	3	3	1	2	1	1048	1	Ⴜ	DEU_f.wav
1	36	3	2	0	1	1	1199	1	Ⴜ	DEU_u_short_1.wav
1	37	1	1	1	2	1	1154	1	Ⴂ	DEU_p.wav
1	38	1	3	0	1	1	750	1	Ⴂ	DEU_f.wav
1	39	2	2	1	2	1	1229	1	Ⴁ	DEU_u_short_1.wav
1	40	2	1	0	2	0	1263	0	Ⴁ	DEU_p.wav
1	41	3	3	1	2	1	1766	1	Ⴜ	DEU_f.wav
1	42	3	2	0	2	0	1340	0	Ⴜ	DEU_u_short_1.wav
1	43	1	1	1	2	1	1462	1	Ⴂ	DEU_p.wav
1	44	1	3	0	1	1	819	1	Ⴂ	DEU_f.wav
1	45	2	2	1	2	1	1438	1	Ⴁ	DEU_u_short_1.wav
1	46	2	1	0	0	0	0	0	Ⴁ	DEU_p.wav
1	47	3	3	1	2	1	1058	1	Ⴜ	DEU_f.wav
1	48	3	2	0	1	1	1158	1	Ⴜ	DEU_u_short_1.wav
2	1	3	3	1	1	0	1057	0	Ⴟ	DEU_g.wav
2	2	3	2	0	1	1	1739	1	Ⴟ	DEU_r_1.wav
2	3	2	2	1	2	1	1159	1	Ⴃ	DEU_r_1.wav
2	4	2	1	0	1	1	1096	1	Ⴃ	DEU_n.wav
2	5	3	3	1	2	1	1381	1	Ⴟ	DEU_g.wav
2	6	2	1	0	1	1	1499	1	Ⴃ	DEU_n.wav
2	7	3	2	0	1	1	1015	1	Ⴟ	DEU_r_1.wav
2	8	1	3	0	1	1	1217	1	Ⴡ	DEU_g.wav
2	9	3	2	0	1	1	1050	1	Ⴟ	DEU_r_1.wav
2	10	2	1	0	1	1	1369	1	Ⴃ	DEU_n.wav
2	11	1	1	1	1	0	1463	0	Ⴡ	DEU_n.wav
2	12	3	3	1	2	1	1444	1	Ⴟ	DEU_g.wav
2	13	3	2	0	1	1	1152	1	Ⴟ	DEU_r_1.wav
2	14	2	1	0	1	1	1509	1	Ⴃ	DEU_n.wav
2	15	3	2	0	1	1	1102	1	Ⴟ	DEU_r_1.wav
2	16	1	3	0	1	1	1079	1	Ⴡ	DEU_g.wav
2	17	1	1	1	2	1	1220	1	Ⴡ	DEU_n.wav
2	18	2	1	0	1	1	1248	1	Ⴃ	DEU_n.wav
2	19	1	3	0	0	0	0	0	Ⴡ	DEU_g.wav
2	20	3	3	1	2	1	1151	1	Ⴟ	DEU_g.wav
2	21	3	3	1	2	1	1174	1	Ⴟ	DEU_g.wav
2	22	2	2	1	2	1	1223	1	Ⴃ	DEU_r_1.wav
2	23	1	1	1	2	1	1612	1	Ⴡ	DEU_n.wav
2	24	2	2	1	2	1	1183	1	Ⴃ	DEU_r_1.wav
2	25	1	3	0	1	1	1753	1	Ⴡ	DEU_g.wav
2	26	2	2	1	2	1	1356	1	Ⴃ	DEU_r_1.wav
2	27	3	2	0	1	1	1594	1	Ⴟ	DEU_r_1.wav
2	28	1	1	1	0	0	0	0	Ⴡ	DEU_n.wav
2	29	2	2	1	2	1	1341	1	Ⴃ	DEU_r_1.wav
2	30	2	2	1	2	1	1388	1	Ⴃ	DEU_r_1.wav
2	31	1	1	1	0	0	0	0	Ⴡ	DEU_n.wav
2	32	2	1	0	2	0	1277	0	Ⴃ	DEU_n.wav
2	33	1	1	1	2	1	1194	1	Ⴡ	DEU_n.wav
2	34	1	1	1	2	1	1160	1	Ⴡ	DEU_n.wav
2	35	1	3	0	1	1	1500	1	Ⴡ	DEU_g.wav
2	36	2	1	0	0	0	0	0	Ⴃ	DEU_n.wav
2	37	3	3	1	2	1	1652	1	Ⴟ	DEU_g.wav
2	38	2	2	1	2	1	1266	1	Ⴃ	DEU_r_1.wav
2	39	2	2	1	0	0	0	0	Ⴃ	DEU_r_1.wav
2	40	3	3	1	2	1	1171	1	Ⴟ	DEU_g.wav
2	41	3	2	0	1	1	1493	1	Ⴟ	DEU_r_1.wav
2	42	1	3	0	2	0	978	0	Ⴡ	DEU_g.wav
2	43	3	3	1	2	1	1505	1	Ⴟ	DEU_g.wav
2	44	1	3	0	2	0	1533	0	Ⴡ	DEU_g.wav
2	45	2	1	0	1	1	1168	1	Ⴃ	DEU_n.wav
2	46	1	1	1	2	1	1715	1	Ⴡ	DEU_n.wav
2	47	3	2	0	1	1	990	1	Ⴟ	DEU_r_1.wav
2	48	1	3	0	1	1	1050	1	Ⴡ	DEU_g.wav
3	1	2	2	1	1	0	1191	0	Ⴊ	DEU_e_1.wav
3	2	3	3	1	1	0	1279	0	Ⴇ	DEU_l_1.wav
3	3	1	1	1	1	0	1446	0	Ⴢ	DEU_i_1.wav
3	4	1	1	1	1	0	850	0	Ⴢ	DEU_i_1.wav
3	5	2	2	1	1	0	1474	0	Ⴊ	DEU_e_1.wav
3	6	2	1	0	2	0	1723	0	Ⴊ	DEU_i_1.wav
3	7	1	3	0	1	1	1816	1	Ⴢ	DEU_l_1.wav
3	8	3	3	1	1	0	1439	0	Ⴇ	DEU_l_1.wav
3	9	2	1	0	1	1	1376	1	Ⴊ	DEU_i_1.wav
3	10	1	3	0	0	0	0	0	Ⴢ	DEU_l_1.wav
3	11	3	3	1	1	0	1351	0	Ⴇ	DEU_l_1.wav
3	12	3	2	0	1	1	1423	1	Ⴇ	DEU_e_1.wav
3	13	1	3	0	0	0	0	0	Ⴢ	DEU_l_1.wav
3	14	1	3	0	0	0	0	0	Ⴢ	DEU_l_1.wav
3	15	1	1	1	1	0	1030	0	Ⴢ	DEU_i_1.wav
3	16	3	2	0	1	1	1030	1	Ⴇ	DEU_e_1.wav
3	17	1	3	0	1	1	1163	1	Ⴢ	DEU_l_1.wav
3	18	1	3	0	1	1	949	1	Ⴢ	DEU_l_1.wav
3	19	3	2	0	2	0	1280	0	Ⴇ	DEU_e_1.wav
3	20	1	1	1	1	0	1137	0	Ⴢ	DEU_i_1.wav
3	21	2	1	0	1	1	865	1	Ⴊ	DEU_i_1.wav
3	22	1	3	0	1	1	1045	1	Ⴢ	DEU_l_1.wav
3	23	3	2	0	0	0	0	0	Ⴇ	DEU_e_1.wav
3	24	3	2	0	1	1	881	1	Ⴇ	DEU_e_1.wav
3	25	3	2	0	1	1	1067	1	Ⴇ	DEU_e_1.wav
3	26	3	3	1	2	1	1204	1	Ⴇ	DEU_l_1.wav
3	27	1	3	0	1	1	1018	1	Ⴢ	DEU_l_1.wav
3	28	2	2	1	2	1	1236	1	Ⴊ	DEU_e_1.wav
3	29	1	1	1	1	0	1070	0	Ⴢ	DEU_i_1.wav
3	30	2	2	1	2	1	1399	1	Ⴊ	DEU_e_1.wav
3	31	2	1	0	1	1	830	1	Ⴊ	DEU_i_1.wav
3	32	2	2	1	1	0	1849	0	Ⴊ	DEU_e_1.wav
3	33	1	1	1	2	1	1601	1	Ⴢ	DEU_i_1.wav
3	34	2	2	1	2	1	1207	1	Ⴊ	DEU_e_1.wav
3	35	2	1	0	1	1	1512	1	Ⴊ	DEU_i_1.wav
3	36	1	1	1	1	0	1209	0	Ⴢ	DEU_i_1.wav
3	37	3	2	0	1	1	1763	1	Ⴇ	DEU_e_1.wav
3	38	2	2	1	2	1	1136	1	Ⴊ	DEU_e_1.wav
3	39	2	1	0	1	1	892	1	Ⴊ	DEU_i_1.wav
3	40	3	3	1	2	1	1440	1	Ⴇ	DEU_l_1.wav
3	41	2	1	0	1	1	1317	1	Ⴊ	DEU_i_1.wav
3	42	3	3	1	2	1	1304	1	Ⴇ	DEU_l_1.wav
3	43	3	3	1	2	1	1076	1	Ⴇ	DEU_l_1.wav
3	44	3	2	0	2	0	1151	0	Ⴇ	DEU_e_1.wav
3	45	2	2	1	2	1	1021	1	Ⴊ	DEU_e_1.wav
3	46	3	3	1	2	1	1116	1	Ⴇ	DEU_l_1.wav
3	47	1	1	1	1	0	1203	0	Ⴢ	DEU_i_1.wav
3	48	2	1	0	1	1	667	1	Ⴊ	DEU_i_1.wav
