subjID	block	trial	vStim	aStim	match	resp	result	RT	fb	vFile	aFile	iti	feedJitter	stimOnset	respOnset	feedbackOnset	subjID
1	1	1	1	1	1	1	0	1.549	0	Ⴁ	DEU_f.wav	NA	NA	NA	NA	NA	NA
1	1	2	1	3	0	1	1	1.068	1	Ⴁ	DEU_u_short_1.wav	NA	NA	NA	NA	NA	NA
1	1	3	2	2	1	1	0	1.117	0	Ⴜ	DEU_p.wav	NA	NA	NA	NA	NA	NA
1	1	4	2	1	0	2	0	0.946	0	Ⴜ	DEU_f.wav	NA	NA	NA	NA	NA	NA
1	1	5	3	3	1	1	0	1.039	0	Ⴂ	DEU_u_short_1.wav	NA	NA	NA	NA	NA	NA
1	1	6	3	2	0	1	1	1.063	1	Ⴂ	DEU_p.wav	NA	NA	NA	NA	NA	NA
1	1	7	1	1	1	1	0	1.176	0	Ⴁ	DEU_f.wav	NA	NA	NA	NA	NA	NA
1	1	8	1	3	0	1	1	1.758	1	Ⴁ	DEU_u_short_1.wav	NA	NA	NA	NA	NA	NA
1	1	9	2	2	1	2	1	1.344	1	Ⴜ	DEU_p.wav	NA	NA	NA	NA	NA	NA
1	1	10	2	1	0	1	1	1.014	1	Ⴜ	DEU_f.wav	NA	NA	NA	NA	NA	NA
1	1	11	3	3	1	1	0	1.127	0	Ⴂ	DEU_u_short_1.wav	NA	NA	NA	NA	NA	NA
1	1	12	3	2	0	1	1	0.779	1	Ⴂ	DEU_p.wav	NA	NA	NA	NA	NA	NA
1	1	13	1	1	1	2	1	1.102	1	Ⴁ	DEU_f.wav	NA	NA	NA	NA	NA	NA
1	1	14	1	3	0	1	1	0.855	1	Ⴁ	DEU_u_short_1.wav	NA	NA	NA	NA	NA	NA
1	1	15	2	2	1	2	1	0.833	1	Ⴜ	DEU_p.wav	NA	NA	NA	NA	NA	NA
1	1	16	2	1	0	1	1	1.278	1	Ⴜ	DEU_f.wav	NA	NA	NA	NA	NA	NA
1	1	17	3	3	1	1	0	1.258	0	Ⴂ	DEU_u_short_1.wav	NA	NA	NA	NA	NA	NA
1	1	18	3	2	0	1	1	1.13	1	Ⴂ	DEU_p.wav	NA	NA	NA	NA	NA	NA
1	1	20	1	3	0	2	0	1.144	0	Ⴁ	DEU_u_short_1.wav	NA	NA	NA	NA	NA	NA
1	1	21	2	2	1	2	1	0.907	1	Ⴜ	DEU_p.wav	NA	NA	NA	NA	NA	NA
1	1	22	2	1	0	1	1	1.096	1	Ⴜ	DEU_f.wav	NA	NA	NA	NA	NA	NA
1	1	23	3	3	1	1	0	0.939	0	Ⴂ	DEU_u_short_1.wav	NA	NA	NA	NA	NA	NA
1	1	24	3	2	0	1	1	0.923	1	Ⴂ	DEU_p.wav	NA	NA	NA	NA	NA	NA
1	1	25	1	1	1	1	0	1.227	0	Ⴁ	DEU_f.wav	NA	NA	NA	NA	NA	NA
1	1	26	1	3	0	1	1	1.174	1	Ⴁ	DEU_u_short_1.wav	NA	NA	NA	NA	NA	NA
1	1	27	2	2	1	2	1	0.78	1	Ⴜ	DEU_p.wav	NA	NA	NA	NA	NA	NA
1	1	28	2	1	0	1	1	1.115	1	Ⴜ	DEU_f.wav	NA	NA	NA	NA	NA	NA
1	1	29	3	3	1	2	1	1.375	1	Ⴂ	DEU_u_short_1.wav	NA	NA	NA	NA	NA	NA
1	1	30	3	2	0	2	0	1.264	0	Ⴂ	DEU_p.wav	NA	NA	NA	NA	NA	NA
1	1	32	1	3	0	1	1	1.249	1	Ⴁ	DEU_u_short_1.wav	NA	NA	NA	NA	NA	NA
1	1	33	2	2	1	2	1	0.73	1	Ⴜ	DEU_p.wav	NA	NA	NA	NA	NA	NA
1	1	34	2	1	0	1	1	1.367	1	Ⴜ	DEU_f.wav	NA	NA	NA	NA	NA	NA
1	1	35	3	3	1	1	0	1.489	0	Ⴂ	DEU_u_short_1.wav	NA	NA	NA	NA	NA	NA
1	1	36	3	2	0	1	1	1.063	1	Ⴂ	DEU_p.wav	NA	NA	NA	NA	NA	NA
1	1	37	1	1	1	1	0	1.595	0	Ⴁ	DEU_f.wav	NA	NA	NA	NA	NA	NA
1	1	38	1	3	0	1	1	1.521	1	Ⴁ	DEU_u_short_1.wav	NA	NA	NA	NA	NA	NA
1	1	39	2	2	1	2	1	0.947	1	Ⴜ	DEU_p.wav	NA	NA	NA	NA	NA	NA
1	1	40	2	1	0	1	1	1.402	1	Ⴜ	DEU_f.wav	NA	NA	NA	NA	NA	NA
1	1	41	3	3	1	2	1	1.833	1	Ⴂ	DEU_u_short_1.wav	NA	NA	NA	NA	NA	NA
1	1	42	3	2	0	1	1	0.816	1	Ⴂ	DEU_p.wav	NA	NA	NA	NA	NA	NA
1	1	43	1	1	1	1	0	1.784	0	Ⴁ	DEU_f.wav	NA	NA	NA	NA	NA	NA
1	1	44	1	3	0	1	1	1.94	1	Ⴁ	DEU_u_short_1.wav	NA	NA	NA	NA	NA	NA
1	1	45	2	2	1	2	1	0.768	1	Ⴜ	DEU_p.wav	NA	NA	NA	NA	NA	NA
1	1	46	2	1	0	1	1	1.552	1	Ⴜ	DEU_f.wav	NA	NA	NA	NA	NA	NA
1	1	47	3	3	1	1	0	1.196	0	Ⴂ	DEU_u_short_1.wav	NA	NA	NA	NA	NA	NA
1	1	48	3	2	0	1	1	0.969	1	Ⴂ	DEU_p.wav	NA	NA	NA	NA	NA	NA
1	2	3	2	2	1	1	0	1.153	0	Ⴃ	DEU_i_1.wav	NA	NA	NA	NA	NA	NA
1	2	4	3	2	0	1	1	1.037	1	Ⴟ	DEU_i_1.wav	NA	NA	NA	NA	NA	NA
1	2	5	3	3	1	2	1	1.185	1	Ⴟ	DEU_r_1.wav	NA	NA	NA	NA	NA	NA
1	2	6	3	3	1	1	0	1.528	0	Ⴟ	DEU_r_1.wav	NA	NA	NA	NA	NA	NA
1	2	7	2	2	1	1	0	1.625	0	Ⴃ	DEU_i_1.wav	NA	NA	NA	NA	NA	NA
1	2	8	1	3	0	1	1	1.013	1	Ⴡ	DEU_r_1.wav	NA	NA	NA	NA	NA	NA
1	2	9	3	3	1	1	0	0.89	0	Ⴟ	DEU_r_1.wav	NA	NA	NA	NA	NA	NA
1	2	10	3	2	0	1	1	0.743	1	Ⴟ	DEU_i_1.wav	NA	NA	NA	NA	NA	NA
1	2	11	1	3	0	1	1	0.718	1	Ⴡ	DEU_r_1.wav	NA	NA	NA	NA	NA	NA
1	2	12	3	2	0	1	1	1.068	1	Ⴟ	DEU_i_1.wav	NA	NA	NA	NA	NA	NA
1	2	13	2	2	1	2	1	1.726	1	Ⴃ	DEU_i_1.wav	NA	NA	NA	NA	NA	NA
1	2	14	1	1	1	2	1	1.442	1	Ⴡ	DEU_n.wav	NA	NA	NA	NA	NA	NA
1	2	15	1	1	1	2	1	1.182	1	Ⴡ	DEU_n.wav	NA	NA	NA	NA	NA	NA
1	2	16	1	1	1	2	1	1.087	1	Ⴡ	DEU_n.wav	NA	NA	NA	NA	NA	NA
1	2	17	2	2	1	2	1	1.08	1	Ⴃ	DEU_i_1.wav	NA	NA	NA	NA	NA	NA
1	2	18	3	3	1	2	1	1.516	1	Ⴟ	DEU_r_1.wav	NA	NA	NA	NA	NA	NA
1	2	19	2	1	0	2	0	1.324	0	Ⴃ	DEU_n.wav	NA	NA	NA	NA	NA	NA
1	2	20	1	3	0	1	1	0.739	1	Ⴡ	DEU_r_1.wav	NA	NA	NA	NA	NA	NA
1	2	21	3	3	1	2	1	1.523	1	Ⴟ	DEU_r_1.wav	NA	NA	NA	NA	NA	NA
1	2	22	2	1	0	1	1	1.105	1	Ⴃ	DEU_n.wav	NA	NA	NA	NA	NA	NA
1	2	23	1	3	0	1	1	0.663	1	Ⴡ	DEU_r_1.wav	NA	NA	NA	NA	NA	NA
1	2	24	1	3	0	1	1	0.621	1	Ⴡ	DEU_r_1.wav	NA	NA	NA	NA	NA	NA
1	2	25	3	2	0	1	1	0.667	1	Ⴟ	DEU_i_1.wav	NA	NA	NA	NA	NA	NA
1	2	26	1	1	1	2	1	0.933	1	Ⴡ	DEU_n.wav	NA	NA	NA	NA	NA	NA
1	2	27	1	3	0	1	1	0.861	1	Ⴡ	DEU_r_1.wav	NA	NA	NA	NA	NA	NA
1	2	28	3	2	0	1	1	1.012	1	Ⴟ	DEU_i_1.wav	NA	NA	NA	NA	NA	NA
1	2	29	2	1	0	1	1	1.418	1	Ⴃ	DEU_n.wav	NA	NA	NA	NA	NA	NA
1	2	30	3	3	1	2	1	1.113	1	Ⴟ	DEU_r_1.wav	NA	NA	NA	NA	NA	NA
1	2	31	2	2	1	2	1	1.334	1	Ⴃ	DEU_i_1.wav	NA	NA	NA	NA	NA	NA
1	2	32	1	3	0	1	1	0.733	1	Ⴡ	DEU_r_1.wav	NA	NA	NA	NA	NA	NA
1	2	33	1	1	1	2	1	0.89	1	Ⴡ	DEU_n.wav	NA	NA	NA	NA	NA	NA
1	2	34	2	1	0	2	0	0.85	0	Ⴃ	DEU_n.wav	NA	NA	NA	NA	NA	NA
1	2	35	3	3	1	2	1	1.004	1	Ⴟ	DEU_r_1.wav	NA	NA	NA	NA	NA	NA
1	2	36	1	1	1	2	1	0.859	1	Ⴡ	DEU_n.wav	NA	NA	NA	NA	NA	NA
1	2	37	2	1	0	1	1	1.924	1	Ⴃ	DEU_n.wav	NA	NA	NA	NA	NA	NA
1	2	38	1	3	0	1	1	1.263	1	Ⴡ	DEU_r_1.wav	NA	NA	NA	NA	NA	NA
1	2	39	2	2	1	2	1	1.441	1	Ⴃ	DEU_i_1.wav	NA	NA	NA	NA	NA	NA
1	2	40	1	1	1	2	1	0.841	1	Ⴡ	DEU_n.wav	NA	NA	NA	NA	NA	NA
1	2	41	2	1	0	1	1	1.601	1	Ⴃ	DEU_n.wav	NA	NA	NA	NA	NA	NA
1	2	42	2	1	0	1	1	1.393	1	Ⴃ	DEU_n.wav	NA	NA	NA	NA	NA	NA
1	2	43	3	2	0	1	1	0.755	1	Ⴟ	DEU_i_1.wav	NA	NA	NA	NA	NA	NA
1	2	44	2	2	1	2	1	1.308	1	Ⴃ	DEU_i_1.wav	NA	NA	NA	NA	NA	NA
1	2	45	1	1	1	2	1	0.925	1	Ⴡ	DEU_n.wav	NA	NA	NA	NA	NA	NA
1	2	46	3	2	0	1	1	0.794	1	Ⴟ	DEU_i_1.wav	NA	NA	NA	NA	NA	NA
1	2	47	3	2	0	1	1	0.737	1	Ⴟ	DEU_i_1.wav	NA	NA	NA	NA	NA	NA
1	2	48	2	1	0	1	1	1.062	1	Ⴃ	DEU_n.wav	NA	NA	NA	NA	NA	NA
1	3	1	1	1	1	1	0	1.381	0	Ⴊ	DEU_g.wav	NA	NA	NA	NA	NA	NA
1	3	2	3	2	0	1	1	1.061	1	Ⴇ	DEU_e_1.wav	NA	NA	NA	NA	NA	NA
1	3	3	2	1	0	1	1	0.95	1	Ⴢ	DEU_g.wav	NA	NA	NA	NA	NA	NA
1	3	4	2	2	1	1	0	1.064	0	Ⴢ	DEU_e_1.wav	NA	NA	NA	NA	NA	NA
1	3	5	2	1	0	1	1	1.046	1	Ⴢ	DEU_g.wav	NA	NA	NA	NA	NA	NA
1	3	6	3	3	1	2	1	0.935	1	Ⴇ	DEU_s_1.wav	NA	NA	NA	NA	NA	NA
1	3	7	1	3	0	1	1	0.975	1	Ⴊ	DEU_s_1.wav	NA	NA	NA	NA	NA	NA
1	3	8	1	3	0	2	0	1.111	0	Ⴊ	DEU_s_1.wav	NA	NA	NA	NA	NA	NA
1	3	9	2	2	1	2	1	1.396	1	Ⴢ	DEU_e_1.wav	NA	NA	NA	NA	NA	NA
1	3	10	1	3	0	1	1	0.816	1	Ⴊ	DEU_s_1.wav	NA	NA	NA	NA	NA	NA
1	3	11	3	2	0	1	1	0.857	1	Ⴇ	DEU_e_1.wav	NA	NA	NA	NA	NA	NA
1	3	12	1	1	1	2	1	1.297	1	Ⴊ	DEU_g.wav	NA	NA	NA	NA	NA	NA
1	3	13	2	2	1	2	1	1.17	1	Ⴢ	DEU_e_1.wav	NA	NA	NA	NA	NA	NA
1	3	14	2	1	0	1	1	0.731	1	Ⴢ	DEU_g.wav	NA	NA	NA	NA	NA	NA
1	3	15	1	3	0	1	1	0.732	1	Ⴊ	DEU_s_1.wav	NA	NA	NA	NA	NA	NA
1	3	16	3	2	0	1	1	1.372	1	Ⴇ	DEU_e_1.wav	NA	NA	NA	NA	NA	NA
1	3	17	1	3	0	1	1	0.765	1	Ⴊ	DEU_s_1.wav	NA	NA	NA	NA	NA	NA
1	3	18	2	1	0	1	1	0.647	1	Ⴢ	DEU_g.wav	NA	NA	NA	NA	NA	NA
1	3	19	3	2	0	1	1	1.222	1	Ⴇ	DEU_e_1.wav	NA	NA	NA	NA	NA	NA
1	3	20	1	1	1	2	1	0.723	1	Ⴊ	DEU_g.wav	NA	NA	NA	NA	NA	NA
1	3	21	3	3	1	2	1	1.075	1	Ⴇ	DEU_s_1.wav	NA	NA	NA	NA	NA	NA
1	3	22	2	1	0	1	1	0.759	1	Ⴢ	DEU_g.wav	NA	NA	NA	NA	NA	NA
1	3	23	1	3	0	1	1	0.699	1	Ⴊ	DEU_s_1.wav	NA	NA	NA	NA	NA	NA
1	3	24	1	1	1	2	1	0.89	1	Ⴊ	DEU_g.wav	NA	NA	NA	NA	NA	NA
1	3	25	2	2	1	2	1	1.045	1	Ⴢ	DEU_e_1.wav	NA	NA	NA	NA	NA	NA
1	3	26	3	2	0	1	1	1.386	1	Ⴇ	DEU_e_1.wav	NA	NA	NA	NA	NA	NA
1	3	27	2	1	0	1	1	0.808	1	Ⴢ	DEU_g.wav	NA	NA	NA	NA	NA	NA
1	3	28	1	3	0	1	1	1.13	1	Ⴊ	DEU_s_1.wav	NA	NA	NA	NA	NA	NA
1	3	29	3	2	0	1	1	1.155	1	Ⴇ	DEU_e_1.wav	NA	NA	NA	NA	NA	NA
1	3	30	3	3	1	2	1	0.959	1	Ⴇ	DEU_s_1.wav	NA	NA	NA	NA	NA	NA
1	3	31	1	3	0	1	1	0.779	1	Ⴊ	DEU_s_1.wav	NA	NA	NA	NA	NA	NA
1	3	32	3	3	1	2	1	1.218	1	Ⴇ	DEU_s_1.wav	NA	NA	NA	NA	NA	NA
1	3	33	1	1	1	2	1	0.983	1	Ⴊ	DEU_g.wav	NA	NA	NA	NA	NA	NA
1	3	34	3	2	0	1	1	1.361	1	Ⴇ	DEU_e_1.wav	NA	NA	NA	NA	NA	NA
1	3	35	1	1	1	2	1	0.862	1	Ⴊ	DEU_g.wav	NA	NA	NA	NA	NA	NA
1	3	36	2	2	1	2	1	1.211	1	Ⴢ	DEU_e_1.wav	NA	NA	NA	NA	NA	NA
1	3	37	3	3	1	2	1	1.061	1	Ⴇ	DEU_s_1.wav	NA	NA	NA	NA	NA	NA
1	3	38	2	2	1	2	1	1.121	1	Ⴢ	DEU_e_1.wav	NA	NA	NA	NA	NA	NA
1	3	39	3	2	0	1	1	1.146	1	Ⴇ	DEU_e_1.wav	NA	NA	NA	NA	NA	NA
1	3	40	3	3	1	2	1	0.97	1	Ⴇ	DEU_s_1.wav	NA	NA	NA	NA	NA	NA
1	3	41	2	1	0	1	1	1.647	1	Ⴢ	DEU_g.wav	NA	NA	NA	NA	NA	NA
1	3	42	1	1	1	2	1	0.876	1	Ⴊ	DEU_g.wav	NA	NA	NA	NA	NA	NA
1	3	43	2	2	1	2	1	1.034	1	Ⴢ	DEU_e_1.wav	NA	NA	NA	NA	NA	NA
1	3	44	1	1	1	2	1	1.335	1	Ⴊ	DEU_g.wav	NA	NA	NA	NA	NA	NA
1	3	45	2	1	0	1	1	0.823	1	Ⴢ	DEU_g.wav	NA	NA	NA	NA	NA	NA
1	3	46	3	3	1	2	1	0.958	1	Ⴇ	DEU_s_1.wav	NA	NA	NA	NA	NA	NA
1	3	47	3	3	1	2	1	1.183	1	Ⴇ	DEU_s_1.wav	NA	NA	NA	NA	NA	NA
1	3	48	2	2	1	2	1	1.029	1	Ⴢ	DEU_e_1.wav	NA	NA	NA	NA	NA	NA
2	1	1	1	1	1	1	0	1.162	0	Ⴂ	DEU_u_short_1.wav	NA	NA	NA	NA	NA	NA
2	1	2	1	3	0	1	1	0.964	1	Ⴂ	DEU_f.wav	NA	NA	NA	NA	NA	NA
2	1	3	2	2	1	1	0	0.928	0	Ⴁ	DEU_p.wav	NA	NA	NA	NA	NA	NA
2	1	4	2	1	0	1	1	1.96	1	Ⴁ	DEU_u_short_1.wav	NA	NA	NA	NA	NA	NA
2	1	5	3	3	1	1	0	1.064	0	Ⴜ	DEU_f.wav	NA	NA	NA	NA	NA	NA
2	1	6	3	2	0	1	1	1.132	1	Ⴜ	DEU_p.wav	NA	NA	NA	NA	NA	NA
2	1	7	1	1	1	2	1	1.12	1	Ⴂ	DEU_u_short_1.wav	NA	NA	NA	NA	NA	NA
2	1	8	1	3	0	1	1	0.75	1	Ⴂ	DEU_f.wav	NA	NA	NA	NA	NA	NA
2	1	9	2	2	1	1	0	0.98	0	Ⴁ	DEU_p.wav	NA	NA	NA	NA	NA	NA
2	1	10	2	1	0	1	1	2.003	1	Ⴁ	DEU_u_short_1.wav	NA	NA	NA	NA	NA	NA
2	1	11	3	3	1	2	1	1.2	1	Ⴜ	DEU_f.wav	NA	NA	NA	NA	NA	NA
2	1	12	3	2	0	1	1	1.126	1	Ⴜ	DEU_p.wav	NA	NA	NA	NA	NA	NA
2	1	13	1	1	1	2	1	1.042	1	Ⴂ	DEU_u_short_1.wav	NA	NA	NA	NA	NA	NA
2	1	14	1	3	0	1	1	0.732	1	Ⴂ	DEU_f.wav	NA	NA	NA	NA	NA	NA
2	1	15	2	2	1	2	1	1.932	1	Ⴁ	DEU_p.wav	NA	NA	NA	NA	NA	NA
2	1	16	2	1	0	1	1	0.737	1	Ⴁ	DEU_u_short_1.wav	NA	NA	NA	NA	NA	NA
2	1	17	3	3	1	2	1	0.896	1	Ⴜ	DEU_f.wav	NA	NA	NA	NA	NA	NA
2	1	18	3	2	0	1	1	1.14	1	Ⴜ	DEU_p.wav	NA	NA	NA	NA	NA	NA
2	1	19	1	1	1	2	1	0.831	1	Ⴂ	DEU_u_short_1.wav	NA	NA	NA	NA	NA	NA
2	1	20	1	3	0	1	1	1.467	1	Ⴂ	DEU_f.wav	NA	NA	NA	NA	NA	NA
2	1	21	2	2	1	2	1	1.47	1	Ⴁ	DEU_p.wav	NA	NA	NA	NA	NA	NA
2	1	22	2	1	0	1	1	0.984	1	Ⴁ	DEU_u_short_1.wav	NA	NA	NA	NA	NA	NA
2	1	23	3	3	1	2	1	1.35	1	Ⴜ	DEU_f.wav	NA	NA	NA	NA	NA	NA
2	1	24	3	2	0	1	1	0.871	1	Ⴜ	DEU_p.wav	NA	NA	NA	NA	NA	NA
2	1	25	1	1	1	2	1	0.781	1	Ⴂ	DEU_u_short_1.wav	NA	NA	NA	NA	NA	NA
2	1	26	1	3	0	1	1	1.721	1	Ⴂ	DEU_f.wav	NA	NA	NA	NA	NA	NA
2	1	27	2	2	1	2	1	1.45	1	Ⴁ	DEU_p.wav	NA	NA	NA	NA	NA	NA
2	1	28	2	1	0	1	1	0.826	1	Ⴁ	DEU_u_short_1.wav	NA	NA	NA	NA	NA	NA
2	1	29	3	3	1	2	1	0.965	1	Ⴜ	DEU_f.wav	NA	NA	NA	NA	NA	NA
2	1	30	3	2	0	1	1	0.726	1	Ⴜ	DEU_p.wav	NA	NA	NA	NA	NA	NA
2	1	31	1	1	1	2	1	1.487	1	Ⴂ	DEU_u_short_1.wav	NA	NA	NA	NA	NA	NA
2	1	32	1	3	0	1	1	0.867	1	Ⴂ	DEU_f.wav	NA	NA	NA	NA	NA	NA
2	1	33	2	2	1	2	1	1.03	1	Ⴁ	DEU_p.wav	NA	NA	NA	NA	NA	NA
2	1	34	2	1	0	1	1	0.969	1	Ⴁ	DEU_u_short_1.wav	NA	NA	NA	NA	NA	NA
2	1	35	3	3	1	2	1	1.023	1	Ⴜ	DEU_f.wav	NA	NA	NA	NA	NA	NA
2	1	36	3	2	0	1	1	0.735	1	Ⴜ	DEU_p.wav	NA	NA	NA	NA	NA	NA
2	1	37	1	1	1	2	1	0.828	1	Ⴂ	DEU_u_short_1.wav	NA	NA	NA	NA	NA	NA
2	1	38	1	3	0	1	1	1.092	1	Ⴂ	DEU_f.wav	NA	NA	NA	NA	NA	NA
2	1	39	2	2	1	2	1	0.798	1	Ⴁ	DEU_p.wav	NA	NA	NA	NA	NA	NA
2	1	40	2	1	0	1	1	0.787	1	Ⴁ	DEU_u_short_1.wav	NA	NA	NA	NA	NA	NA
2	1	41	3	3	1	2	1	1.177	1	Ⴜ	DEU_f.wav	NA	NA	NA	NA	NA	NA
2	1	42	3	2	0	1	1	0.901	1	Ⴜ	DEU_p.wav	NA	NA	NA	NA	NA	NA
2	1	43	1	1	1	2	1	0.788	1	Ⴂ	DEU_u_short_1.wav	NA	NA	NA	NA	NA	NA
2	1	44	1	3	0	1	1	0.682	1	Ⴂ	DEU_f.wav	NA	NA	NA	NA	NA	NA
2	1	45	2	2	1	2	1	0.991	1	Ⴁ	DEU_p.wav	NA	NA	NA	NA	NA	NA
2	1	46	2	1	0	1	1	0.926	1	Ⴁ	DEU_u_short_1.wav	NA	NA	NA	NA	NA	NA
2	1	47	3	3	1	2	1	1.185	1	Ⴜ	DEU_f.wav	NA	NA	NA	NA	NA	NA
2	1	48	3	2	0	1	1	0.735	1	Ⴜ	DEU_p.wav	NA	NA	NA	NA	NA	NA
2	2	1	1	3	0	1	1	1.184	1	Ⴃ	DEU_e_1.wav	NA	NA	NA	NA	NA	NA
2	2	2	1	1	1	2	1	1.047	1	Ⴃ	DEU_n.wav	NA	NA	NA	NA	NA	NA
2	2	3	2	2	1	1	0	1.88	0	Ⴡ	DEU_r_1.wav	NA	NA	NA	NA	NA	NA
2	2	4	2	2	1	2	1	0.927	1	Ⴡ	DEU_r_1.wav	NA	NA	NA	NA	NA	NA
2	2	5	2	1	0	1	1	1.401	1	Ⴡ	DEU_n.wav	NA	NA	NA	NA	NA	NA
2	2	6	1	1	1	2	1	1.673	1	Ⴃ	DEU_n.wav	NA	NA	NA	NA	NA	NA
2	2	8	3	2	0	2	0	1.936	0	Ⴟ	DEU_r_1.wav	NA	NA	NA	NA	NA	NA
2	2	9	1	3	0	1	1	1.049	1	Ⴃ	DEU_e_1.wav	NA	NA	NA	NA	NA	NA
2	2	10	1	3	0	1	1	1.239	1	Ⴃ	DEU_e_1.wav	NA	NA	NA	NA	NA	NA
2	2	12	2	2	1	2	1	0.794	1	Ⴡ	DEU_r_1.wav	NA	NA	NA	NA	NA	NA
2	2	13	3	3	1	2	1	1.225	1	Ⴟ	DEU_e_1.wav	NA	NA	NA	NA	NA	NA
2	2	14	3	3	1	2	1	0.973	1	Ⴟ	DEU_e_1.wav	NA	NA	NA	NA	NA	NA
2	2	15	1	1	1	2	1	1.476	1	Ⴃ	DEU_n.wav	NA	NA	NA	NA	NA	NA
2	2	16	3	2	0	2	0	1.115	0	Ⴟ	DEU_r_1.wav	NA	NA	NA	NA	NA	NA
2	2	17	3	2	0	1	1	0.885	1	Ⴟ	DEU_r_1.wav	NA	NA	NA	NA	NA	NA
2	2	18	3	2	0	1	1	0.833	1	Ⴟ	DEU_r_1.wav	NA	NA	NA	NA	NA	NA
2	2	19	2	1	0	1	1	0.911	1	Ⴡ	DEU_n.wav	NA	NA	NA	NA	NA	NA
2	2	20	1	1	1	2	1	0.836	1	Ⴃ	DEU_n.wav	NA	NA	NA	NA	NA	NA
2	2	21	3	2	0	1	1	1.216	1	Ⴟ	DEU_r_1.wav	NA	NA	NA	NA	NA	NA
2	2	22	3	3	1	2	1	1.021	1	Ⴟ	DEU_e_1.wav	NA	NA	NA	NA	NA	NA
2	2	23	3	2	0	1	1	1.407	1	Ⴟ	DEU_r_1.wav	NA	NA	NA	NA	NA	NA
2	2	24	3	2	0	1	1	0.747	1	Ⴟ	DEU_r_1.wav	NA	NA	NA	NA	NA	NA
2	2	25	1	3	0	1	1	0.867	1	Ⴃ	DEU_e_1.wav	NA	NA	NA	NA	NA	NA
2	2	26	3	2	0	1	1	0.926	1	Ⴟ	DEU_r_1.wav	NA	NA	NA	NA	NA	NA
2	2	27	2	2	1	2	1	0.865	1	Ⴡ	DEU_r_1.wav	NA	NA	NA	NA	NA	NA
2	2	28	1	3	0	1	1	0.906	1	Ⴃ	DEU_e_1.wav	NA	NA	NA	NA	NA	NA
2	2	29	1	1	1	2	1	0.79	1	Ⴃ	DEU_n.wav	NA	NA	NA	NA	NA	NA
2	2	30	1	3	0	1	1	0.841	1	Ⴃ	DEU_e_1.wav	NA	NA	NA	NA	NA	NA
2	2	31	2	2	1	2	1	1.203	1	Ⴡ	DEU_r_1.wav	NA	NA	NA	NA	NA	NA
2	2	32	2	1	0	1	1	0.954	1	Ⴡ	DEU_n.wav	NA	NA	NA	NA	NA	NA
2	2	33	3	3	1	2	1	0.906	1	Ⴟ	DEU_e_1.wav	NA	NA	NA	NA	NA	NA
2	2	34	3	3	1	2	1	0.772	1	Ⴟ	DEU_e_1.wav	NA	NA	NA	NA	NA	NA
2	2	35	1	3	0	1	1	0.695	1	Ⴃ	DEU_e_1.wav	NA	NA	NA	NA	NA	NA
2	2	36	2	1	0	1	1	1.087	1	Ⴡ	DEU_n.wav	NA	NA	NA	NA	NA	NA
2	2	37	1	1	1	2	1	0.872	1	Ⴃ	DEU_n.wav	NA	NA	NA	NA	NA	NA
2	2	38	3	3	1	2	1	0.903	1	Ⴟ	DEU_e_1.wav	NA	NA	NA	NA	NA	NA
2	2	39	2	2	1	2	1	0.929	1	Ⴡ	DEU_r_1.wav	NA	NA	NA	NA	NA	NA
2	2	40	2	1	0	1	1	1.031	1	Ⴡ	DEU_n.wav	NA	NA	NA	NA	NA	NA
2	2	41	1	1	1	2	1	0.74	1	Ⴃ	DEU_n.wav	NA	NA	NA	NA	NA	NA
2	2	42	3	3	1	2	1	1.113	1	Ⴟ	DEU_e_1.wav	NA	NA	NA	NA	NA	NA
2	2	43	1	3	0	1	1	0.759	1	Ⴃ	DEU_e_1.wav	NA	NA	NA	NA	NA	NA
2	2	44	1	1	1	2	1	0.75	1	Ⴃ	DEU_n.wav	NA	NA	NA	NA	NA	NA
2	2	45	2	1	0	1	1	0.991	1	Ⴡ	DEU_n.wav	NA	NA	NA	NA	NA	NA
2	2	46	3	3	1	2	1	0.927	1	Ⴟ	DEU_e_1.wav	NA	NA	NA	NA	NA	NA
2	2	47	2	1	0	1	1	0.893	1	Ⴡ	DEU_n.wav	NA	NA	NA	NA	NA	NA
2	2	48	2	2	1	1	0	0.972	0	Ⴡ	DEU_r_1.wav	NA	NA	NA	NA	NA	NA
2	3	1	2	1	0	1	1	0.955	1	Ⴊ	DEU_g.wav	NA	NA	NA	NA	NA	NA
2	3	3	2	1	0	1	1	0.604	1	Ⴊ	DEU_g.wav	NA	NA	NA	NA	NA	NA
2	3	4	2	1	0	1	1	0.758	1	Ⴊ	DEU_g.wav	NA	NA	NA	NA	NA	NA
2	3	5	2	2	1	2	1	0.833	1	Ⴊ	DEU_i_1.wav	NA	NA	NA	NA	NA	NA
2	3	6	3	2	0	2	0	0.957	0	Ⴇ	DEU_i_1.wav	NA	NA	NA	NA	NA	NA
2	3	7	3	2	0	1	1	0.723	1	Ⴇ	DEU_i_1.wav	NA	NA	NA	NA	NA	NA
2	3	8	3	2	0	1	1	0.674	1	Ⴇ	DEU_i_1.wav	NA	NA	NA	NA	NA	NA
2	3	9	3	3	1	2	1	1.041	1	Ⴇ	DEU_l_1.wav	NA	NA	NA	NA	NA	NA
2	3	10	1	3	0	1	1	0.872	1	Ⴢ	DEU_l_1.wav	NA	NA	NA	NA	NA	NA
2	3	11	1	1	1	2	1	0.91	1	Ⴢ	DEU_g.wav	NA	NA	NA	NA	NA	NA
2	3	12	1	1	1	2	1	0.893	1	Ⴢ	DEU_g.wav	NA	NA	NA	NA	NA	NA
2	3	13	1	1	1	2	1	0.731	1	Ⴢ	DEU_g.wav	NA	NA	NA	NA	NA	NA
2	3	14	1	3	0	1	1	1.008	1	Ⴢ	DEU_l_1.wav	NA	NA	NA	NA	NA	NA
2	3	15	1	1	1	2	1	0.807	1	Ⴢ	DEU_g.wav	NA	NA	NA	NA	NA	NA
2	3	16	3	3	1	2	1	1.511	1	Ⴇ	DEU_l_1.wav	NA	NA	NA	NA	NA	NA
2	3	17	2	1	0	1	1	0.732	1	Ⴊ	DEU_g.wav	NA	NA	NA	NA	NA	NA
2	3	18	3	2	0	1	1	0.817	1	Ⴇ	DEU_i_1.wav	NA	NA	NA	NA	NA	NA
2	3	19	3	2	0	1	1	0.618	1	Ⴇ	DEU_i_1.wav	NA	NA	NA	NA	NA	NA
2	3	20	2	2	1	2	1	0.818	1	Ⴊ	DEU_i_1.wav	NA	NA	NA	NA	NA	NA
2	3	21	2	2	1	2	1	0.932	1	Ⴊ	DEU_i_1.wav	NA	NA	NA	NA	NA	NA
2	3	22	1	3	0	1	1	0.864	1	Ⴢ	DEU_l_1.wav	NA	NA	NA	NA	NA	NA
2	3	23	3	2	0	1	1	0.819	1	Ⴇ	DEU_i_1.wav	NA	NA	NA	NA	NA	NA
2	3	24	2	2	1	2	1	0.735	1	Ⴊ	DEU_i_1.wav	NA	NA	NA	NA	NA	NA
2	3	25	3	3	1	2	1	0.945	1	Ⴇ	DEU_l_1.wav	NA	NA	NA	NA	NA	NA
2	3	26	2	1	0	1	1	0.668	1	Ⴊ	DEU_g.wav	NA	NA	NA	NA	NA	NA
2	3	27	1	3	0	1	1	0.787	1	Ⴢ	DEU_l_1.wav	NA	NA	NA	NA	NA	NA
2	3	28	3	3	1	2	1	0.921	1	Ⴇ	DEU_l_1.wav	NA	NA	NA	NA	NA	NA
2	3	29	2	2	1	2	1	0.786	1	Ⴊ	DEU_i_1.wav	NA	NA	NA	NA	NA	NA
2	3	30	1	1	1	2	1	0.783	1	Ⴢ	DEU_g.wav	NA	NA	NA	NA	NA	NA
2	3	31	2	1	0	1	1	0.75	1	Ⴊ	DEU_g.wav	NA	NA	NA	NA	NA	NA
2	3	32	1	3	0	1	1	0.775	1	Ⴢ	DEU_l_1.wav	NA	NA	NA	NA	NA	NA
2	3	33	1	1	1	2	1	0.756	1	Ⴢ	DEU_g.wav	NA	NA	NA	NA	NA	NA
2	3	34	2	1	0	1	1	0.685	1	Ⴊ	DEU_g.wav	NA	NA	NA	NA	NA	NA
2	3	35	2	2	1	2	1	0.738	1	Ⴊ	DEU_i_1.wav	NA	NA	NA	NA	NA	NA
2	3	36	2	1	0	1	1	0.654	1	Ⴊ	DEU_g.wav	NA	NA	NA	NA	NA	NA
2	3	37	3	3	1	2	1	0.964	1	Ⴇ	DEU_l_1.wav	NA	NA	NA	NA	NA	NA
2	3	38	1	1	1	2	1	0.712	1	Ⴢ	DEU_g.wav	NA	NA	NA	NA	NA	NA
2	3	39	2	2	1	2	1	0.703	1	Ⴊ	DEU_i_1.wav	NA	NA	NA	NA	NA	NA
2	3	40	3	2	0	1	1	1.086	1	Ⴇ	DEU_i_1.wav	NA	NA	NA	NA	NA	NA
2	3	41	1	3	0	1	1	0.803	1	Ⴢ	DEU_l_1.wav	NA	NA	NA	NA	NA	NA
2	3	42	2	2	1	2	1	0.829	1	Ⴊ	DEU_i_1.wav	NA	NA	NA	NA	NA	NA
2	3	43	1	3	0	1	1	0.769	1	Ⴢ	DEU_l_1.wav	NA	NA	NA	NA	NA	NA
2	3	44	1	1	1	2	1	0.87	1	Ⴢ	DEU_g.wav	NA	NA	NA	NA	NA	NA
2	3	45	3	3	1	2	1	0.78	1	Ⴇ	DEU_l_1.wav	NA	NA	NA	NA	NA	NA
2	3	46	3	3	1	2	1	1.057	1	Ⴇ	DEU_l_1.wav	NA	NA	NA	NA	NA	NA
2	3	47	3	2	0	1	1	0.77	1	Ⴇ	DEU_i_1.wav	NA	NA	NA	NA	NA	NA
2	3	48	1	3	0	1	1	1.958	1	Ⴢ	DEU_l_1.wav	NA	NA	NA	NA	NA	NA
3	1	2	1	3	0	1	0	0.794	0	Ⴜ	DEU_f.wav	NA	NA	NA	NA	NA	NA
3	1	3	2	2	1	2	0	1.137	0	Ⴂ	DEU_n.wav	NA	NA	NA	NA	NA	NA
3	1	6	3	2	0	2	1	1.347	1	Ⴁ	DEU_n.wav	NA	NA	NA	NA	NA	NA
3	1	7	1	1	1	2	0	1.498	0	Ⴜ	DEU_p.wav	NA	NA	NA	NA	NA	NA
3	1	8	1	3	0	2	1	1.467	1	Ⴜ	DEU_f.wav	NA	NA	NA	NA	NA	NA
3	1	9	2	2	1	2	0	1.444	0	Ⴂ	DEU_n.wav	NA	NA	NA	NA	NA	NA
3	1	10	2	1	0	1	0	1.648	0	Ⴂ	DEU_p.wav	NA	NA	NA	NA	NA	NA
3	1	12	3	2	0	2	1	1.499	1	Ⴁ	DEU_n.wav	NA	NA	NA	NA	NA	NA
3	1	13	1	1	1	2	0	1.238	0	Ⴜ	DEU_p.wav	NA	NA	NA	NA	NA	NA
3	1	14	1	3	0	2	1	1.348	1	Ⴜ	DEU_f.wav	NA	NA	NA	NA	NA	NA
3	1	17	3	3	1	2	0	1.079	0	Ⴁ	DEU_f.wav	NA	NA	NA	NA	NA	NA
3	1	18	3	2	0	2	1	1.209	1	Ⴁ	DEU_n.wav	NA	NA	NA	NA	NA	NA
3	1	19	1	1	1	2	0	1.841	0	Ⴜ	DEU_p.wav	NA	NA	NA	NA	NA	NA
3	1	20	1	3	0	1	0	1.416	0	Ⴜ	DEU_f.wav	NA	NA	NA	NA	NA	NA
3	1	21	2	2	1	2	0	0.776	0	Ⴂ	DEU_n.wav	NA	NA	NA	NA	NA	NA
3	1	22	2	1	0	2	1	1.626	1	Ⴂ	DEU_p.wav	NA	NA	NA	NA	NA	NA
3	1	23	3	3	1	1	1	1.284	1	Ⴁ	DEU_f.wav	NA	NA	NA	NA	NA	NA
3	1	25	1	1	1	1	1	1.126	1	Ⴜ	DEU_p.wav	NA	NA	NA	NA	NA	NA
3	1	26	1	3	0	1	0	1.576	0	Ⴜ	DEU_f.wav	NA	NA	NA	NA	NA	NA
3	1	27	2	2	1	1	1	1.483	1	Ⴂ	DEU_n.wav	NA	NA	NA	NA	NA	NA
3	1	28	2	1	0	1	0	1.783	0	Ⴂ	DEU_p.wav	NA	NA	NA	NA	NA	NA
3	1	29	3	3	1	1	1	1.385	1	Ⴁ	DEU_f.wav	NA	NA	NA	NA	NA	NA
3	1	30	3	2	0	2	1	0.991	1	Ⴁ	DEU_n.wav	NA	NA	NA	NA	NA	NA
3	1	31	1	1	1	1	1	1.655	1	Ⴜ	DEU_p.wav	NA	NA	NA	NA	NA	NA
3	1	32	1	3	0	2	1	1.296	1	Ⴜ	DEU_f.wav	NA	NA	NA	NA	NA	NA
3	1	33	2	2	1	1	1	1.391	1	Ⴂ	DEU_n.wav	NA	NA	NA	NA	NA	NA
3	1	34	2	1	0	2	1	1.847	1	Ⴂ	DEU_p.wav	NA	NA	NA	NA	NA	NA
3	1	35	3	3	1	1	1	1.51	1	Ⴁ	DEU_f.wav	NA	NA	NA	NA	NA	NA
3	1	36	3	2	0	2	1	1.226	1	Ⴁ	DEU_n.wav	NA	NA	NA	NA	NA	NA
3	1	37	1	1	1	2	0	1.462	0	Ⴜ	DEU_p.wav	NA	NA	NA	NA	NA	NA
3	1	39	2	2	1	1	1	1.182	1	Ⴂ	DEU_n.wav	NA	NA	NA	NA	NA	NA
3	1	40	2	1	0	1	0	1.721	0	Ⴂ	DEU_p.wav	NA	NA	NA	NA	NA	NA
3	1	41	3	3	1	1	1	1.055	1	Ⴁ	DEU_f.wav	NA	NA	NA	NA	NA	NA
3	1	42	3	2	0	2	1	0.995	1	Ⴁ	DEU_n.wav	NA	NA	NA	NA	NA	NA
3	1	43	1	1	1	1	1	1.407	1	Ⴜ	DEU_p.wav	NA	NA	NA	NA	NA	NA
3	1	44	1	3	0	2	1	1.611	1	Ⴜ	DEU_f.wav	NA	NA	NA	NA	NA	NA
3	1	45	2	2	1	1	1	1.204	1	Ⴂ	DEU_n.wav	NA	NA	NA	NA	NA	NA
3	1	46	2	1	0	1	0	1.147	0	Ⴂ	DEU_p.wav	NA	NA	NA	NA	NA	NA
3	1	47	3	3	1	1	1	0.939	1	Ⴁ	DEU_f.wav	NA	NA	NA	NA	NA	NA
3	1	48	3	2	0	2	1	0.924	1	Ⴁ	DEU_n.wav	NA	NA	NA	NA	NA	NA
3	2	1	1	3	0	2	1	1.505	1	Ⴃ	DEU_g.wav	NA	NA	NA	NA	NA	NA
3	2	2	1	3	0	1	0	0.648	0	Ⴃ	DEU_g.wav	NA	NA	NA	NA	NA	NA
3	2	3	3	3	1	1	1	0.845	1	Ⴡ	DEU_g.wav	NA	NA	NA	NA	NA	NA
3	2	4	3	3	1	1	1	0.868	1	Ⴡ	DEU_g.wav	NA	NA	NA	NA	NA	NA
3	2	5	3	2	0	2	1	1.437	1	Ⴡ	DEU_r_1.wav	NA	NA	NA	NA	NA	NA
3	2	6	3	2	0	2	1	0.886	1	Ⴡ	DEU_r_1.wav	NA	NA	NA	NA	NA	NA
3	2	7	1	3	0	2	1	0.643	1	Ⴃ	DEU_g.wav	NA	NA	NA	NA	NA	NA
3	2	8	1	1	1	1	1	0.941	1	Ⴃ	DEU_u_short_1.wav	NA	NA	NA	NA	NA	NA
3	2	9	2	1	0	2	1	1.174	1	Ⴟ	DEU_u_short_1.wav	NA	NA	NA	NA	NA	NA
3	2	10	2	1	0	2	1	0.927	1	Ⴟ	DEU_u_short_1.wav	NA	NA	NA	NA	NA	NA
3	2	11	2	1	0	2	1	0.654	1	Ⴟ	DEU_u_short_1.wav	NA	NA	NA	NA	NA	NA
3	2	12	1	1	1	1	1	0.925	1	Ⴃ	DEU_u_short_1.wav	NA	NA	NA	NA	NA	NA
3	2	13	3	2	0	2	1	0.847	1	Ⴡ	DEU_r_1.wav	NA	NA	NA	NA	NA	NA
3	2	14	3	3	1	1	1	1.004	1	Ⴡ	DEU_g.wav	NA	NA	NA	NA	NA	NA
3	2	15	1	1	1	1	1	0.852	1	Ⴃ	DEU_u_short_1.wav	NA	NA	NA	NA	NA	NA
3	2	16	2	2	1	1	1	0.982	1	Ⴟ	DEU_r_1.wav	NA	NA	NA	NA	NA	NA
3	2	17	3	2	0	2	1	0.878	1	Ⴡ	DEU_r_1.wav	NA	NA	NA	NA	NA	NA
3	2	18	2	1	0	2	1	0.844	1	Ⴟ	DEU_u_short_1.wav	NA	NA	NA	NA	NA	NA
3	2	19	3	2	0	2	1	0.691	1	Ⴡ	DEU_r_1.wav	NA	NA	NA	NA	NA	NA
3	2	20	2	2	1	1	1	0.926	1	Ⴟ	DEU_r_1.wav	NA	NA	NA	NA	NA	NA
3	2	21	1	3	0	2	1	0.665	1	Ⴃ	DEU_g.wav	NA	NA	NA	NA	NA	NA
3	2	22	3	2	0	2	1	0.958	1	Ⴡ	DEU_r_1.wav	NA	NA	NA	NA	NA	NA
3	2	23	1	3	0	2	1	0.78	1	Ⴃ	DEU_g.wav	NA	NA	NA	NA	NA	NA
3	2	24	1	1	1	1	1	0.815	1	Ⴃ	DEU_u_short_1.wav	NA	NA	NA	NA	NA	NA
3	2	25	1	1	1	1	1	0.755	1	Ⴃ	DEU_u_short_1.wav	NA	NA	NA	NA	NA	NA
3	2	26	2	2	1	1	1	1.017	1	Ⴟ	DEU_r_1.wav	NA	NA	NA	NA	NA	NA
3	2	27	3	3	1	1	1	0.755	1	Ⴡ	DEU_g.wav	NA	NA	NA	NA	NA	NA
3	2	28	1	3	0	2	1	0.836	1	Ⴃ	DEU_g.wav	NA	NA	NA	NA	NA	NA
3	2	29	3	2	0	2	1	0.821	1	Ⴡ	DEU_r_1.wav	NA	NA	NA	NA	NA	NA
3	2	30	3	3	1	1	1	0.824	1	Ⴡ	DEU_g.wav	NA	NA	NA	NA	NA	NA
3	2	31	2	2	1	1	1	1.065	1	Ⴟ	DEU_r_1.wav	NA	NA	NA	NA	NA	NA
3	2	32	1	1	1	1	1	0.817	1	Ⴃ	DEU_u_short_1.wav	NA	NA	NA	NA	NA	NA
3	2	33	2	1	0	2	1	1.246	1	Ⴟ	DEU_u_short_1.wav	NA	NA	NA	NA	NA	NA
3	2	34	1	3	0	2	1	1.061	1	Ⴃ	DEU_g.wav	NA	NA	NA	NA	NA	NA
3	2	35	2	2	1	1	1	0.913	1	Ⴟ	DEU_r_1.wav	NA	NA	NA	NA	NA	NA
3	2	36	2	2	1	1	1	1.359	1	Ⴟ	DEU_r_1.wav	NA	NA	NA	NA	NA	NA
3	2	37	2	2	1	1	1	1.728	1	Ⴟ	DEU_r_1.wav	NA	NA	NA	NA	NA	NA
3	2	38	1	1	1	1	1	0.796	1	Ⴃ	DEU_u_short_1.wav	NA	NA	NA	NA	NA	NA
3	2	39	2	1	0	2	1	1.116	1	Ⴟ	DEU_u_short_1.wav	NA	NA	NA	NA	NA	NA
3	2	40	3	3	1	1	1	0.797	1	Ⴡ	DEU_g.wav	NA	NA	NA	NA	NA	NA
3	2	41	2	2	1	1	1	1.021	1	Ⴟ	DEU_r_1.wav	NA	NA	NA	NA	NA	NA
3	2	42	3	2	0	2	1	1.03	1	Ⴡ	DEU_r_1.wav	NA	NA	NA	NA	NA	NA
3	2	43	1	1	1	1	1	1.315	1	Ⴃ	DEU_u_short_1.wav	NA	NA	NA	NA	NA	NA
3	2	44	3	3	1	1	1	0.843	1	Ⴡ	DEU_g.wav	NA	NA	NA	NA	NA	NA
3	2	45	3	3	1	1	1	0.795	1	Ⴡ	DEU_g.wav	NA	NA	NA	NA	NA	NA
3	2	46	1	3	0	2	1	0.922	1	Ⴃ	DEU_g.wav	NA	NA	NA	NA	NA	NA
3	2	47	2	1	0	1	0	1.561	0	Ⴟ	DEU_u_short_1.wav	NA	NA	NA	NA	NA	NA
3	2	48	2	1	0	2	1	0.589	1	Ⴟ	DEU_u_short_1.wav	NA	NA	NA	NA	NA	NA
3	3	1	2	2	1	2	0	1.394	0	Ⴊ	DEU_i_1.wav	NA	NA	NA	NA	NA	NA
3	3	2	1	1	1	2	0	1.888	0	Ⴇ	DEU_e_1.wav	NA	NA	NA	NA	NA	NA
3	3	3	2	2	1	1	1	1.81	1	Ⴊ	DEU_i_1.wav	NA	NA	NA	NA	NA	NA
3	3	4	3	3	1	2	0	1.876	0	Ⴢ	DEU_a_short.wav	NA	NA	NA	NA	NA	NA
3	3	5	3	2	0	2	1	1.132	1	Ⴢ	DEU_i_1.wav	NA	NA	NA	NA	NA	NA
3	3	6	1	3	0	2	1	1.039	1	Ⴇ	DEU_a_short.wav	NA	NA	NA	NA	NA	NA
3	3	7	2	2	1	1	1	1.298	1	Ⴊ	DEU_i_1.wav	NA	NA	NA	NA	NA	NA
3	3	8	3	2	0	2	1	1.477	1	Ⴢ	DEU_i_1.wav	NA	NA	NA	NA	NA	NA
3	3	9	3	2	0	2	1	0.846	1	Ⴢ	DEU_i_1.wav	NA	NA	NA	NA	NA	NA
3	3	10	2	1	0	2	1	1.296	1	Ⴊ	DEU_e_1.wav	NA	NA	NA	NA	NA	NA
3	3	11	3	3	1	1	1	0.95	1	Ⴢ	DEU_a_short.wav	NA	NA	NA	NA	NA	NA
3	3	12	3	2	0	2	1	0.954	1	Ⴢ	DEU_i_1.wav	NA	NA	NA	NA	NA	NA
3	3	13	2	1	0	2	1	1.468	1	Ⴊ	DEU_e_1.wav	NA	NA	NA	NA	NA	NA
3	3	14	1	3	0	2	1	0.79	1	Ⴇ	DEU_a_short.wav	NA	NA	NA	NA	NA	NA
3	3	15	1	3	0	2	1	0.783	1	Ⴇ	DEU_a_short.wav	NA	NA	NA	NA	NA	NA
3	3	16	2	2	1	1	1	1.546	1	Ⴊ	DEU_i_1.wav	NA	NA	NA	NA	NA	NA
3	3	17	3	3	1	1	1	0.985	1	Ⴢ	DEU_a_short.wav	NA	NA	NA	NA	NA	NA
3	3	18	2	1	0	2	1	1.375	1	Ⴊ	DEU_e_1.wav	NA	NA	NA	NA	NA	NA
3	3	19	2	1	0	2	1	0.966	1	Ⴊ	DEU_e_1.wav	NA	NA	NA	NA	NA	NA
3	3	20	1	1	1	1	1	0.979	1	Ⴇ	DEU_e_1.wav	NA	NA	NA	NA	NA	NA
3	3	21	1	3	0	2	1	0.775	1	Ⴇ	DEU_a_short.wav	NA	NA	NA	NA	NA	NA
3	3	22	2	2	1	1	1	1.101	1	Ⴊ	DEU_i_1.wav	NA	NA	NA	NA	NA	NA
3	3	23	3	3	1	1	1	1.383	1	Ⴢ	DEU_a_short.wav	NA	NA	NA	NA	NA	NA
3	3	24	3	3	1	1	1	0.937	1	Ⴢ	DEU_a_short.wav	NA	NA	NA	NA	NA	NA
3	3	25	2	2	1	1	1	1.297	1	Ⴊ	DEU_i_1.wav	NA	NA	NA	NA	NA	NA
3	3	26	3	3	1	1	1	0.978	1	Ⴢ	DEU_a_short.wav	NA	NA	NA	NA	NA	NA
3	3	27	3	2	0	2	1	1.033	1	Ⴢ	DEU_i_1.wav	NA	NA	NA	NA	NA	NA
3	3	28	2	2	1	1	1	1.346	1	Ⴊ	DEU_i_1.wav	NA	NA	NA	NA	NA	NA
3	3	29	1	3	0	2	1	0.879	1	Ⴇ	DEU_a_short.wav	NA	NA	NA	NA	NA	NA
3	3	30	2	2	1	1	1	0.979	1	Ⴊ	DEU_i_1.wav	NA	NA	NA	NA	NA	NA
3	3	31	3	2	0	2	1	1.001	1	Ⴢ	DEU_i_1.wav	NA	NA	NA	NA	NA	NA
3	3	32	3	3	1	1	1	1.018	1	Ⴢ	DEU_a_short.wav	NA	NA	NA	NA	NA	NA
3	3	33	1	3	0	2	1	0.748	1	Ⴇ	DEU_a_short.wav	NA	NA	NA	NA	NA	NA
3	3	34	1	3	0	2	1	0.654	1	Ⴇ	DEU_a_short.wav	NA	NA	NA	NA	NA	NA
3	3	35	2	1	0	2	1	1.356	1	Ⴊ	DEU_e_1.wav	NA	NA	NA	NA	NA	NA
3	3	36	1	1	1	1	1	0.861	1	Ⴇ	DEU_e_1.wav	NA	NA	NA	NA	NA	NA
3	3	37	3	2	0	2	1	1.087	1	Ⴢ	DEU_i_1.wav	NA	NA	NA	NA	NA	NA
3	3	38	1	1	1	1	1	1.124	1	Ⴇ	DEU_e_1.wav	NA	NA	NA	NA	NA	NA
3	3	39	1	1	1	1	1	0.943	1	Ⴇ	DEU_e_1.wav	NA	NA	NA	NA	NA	NA
3	3	40	3	2	0	2	1	0.919	1	Ⴢ	DEU_i_1.wav	NA	NA	NA	NA	NA	NA
3	3	41	1	1	1	1	1	1.051	1	Ⴇ	DEU_e_1.wav	NA	NA	NA	NA	NA	NA
3	3	42	1	1	1	1	1	1.5	1	Ⴇ	DEU_e_1.wav	NA	NA	NA	NA	NA	NA
3	3	43	1	1	1	1	1	0.874	1	Ⴇ	DEU_e_1.wav	NA	NA	NA	NA	NA	NA
3	3	44	3	3	1	1	1	1.433	1	Ⴢ	DEU_a_short.wav	NA	NA	NA	NA	NA	NA
3	3	45	1	3	0	2	1	1.245	1	Ⴇ	DEU_a_short.wav	NA	NA	NA	NA	NA	NA
3	3	46	2	1	0	2	1	1.008	1	Ⴊ	DEU_e_1.wav	NA	NA	NA	NA	NA	NA
3	3	47	2	1	0	2	1	1.538	1	Ⴊ	DEU_e_1.wav	NA	NA	NA	NA	NA	NA
3	3	48	2	1	0	2	1	1.235	1	Ⴊ	DEU_e_1.wav	NA	NA	NA	NA	NA	NA
4	1	1	1	1	1	2	1	1.738	1	Ⴂ	DEU_p.wav	NA	NA	NA	NA	NA	NA
4	1	2	1	3	0	1	1	0.935	1	Ⴂ	DEU_f.wav	NA	NA	NA	NA	NA	NA
4	1	3	2	2	1	2	1	1.493	1	Ⴁ	DEU_u_short_1.wav	NA	NA	NA	NA	NA	NA
4	1	4	2	1	0	2	0	1.32	0	Ⴁ	DEU_p.wav	NA	NA	NA	NA	NA	NA
4	1	5	3	3	1	1	0	1.398	0	Ⴜ	DEU_f.wav	NA	NA	NA	NA	NA	NA
4	1	6	3	2	0	2	0	1.251	0	Ⴜ	DEU_u_short_1.wav	NA	NA	NA	NA	NA	NA
4	1	7	1	1	1	1	0	1.154	0	Ⴂ	DEU_p.wav	NA	NA	NA	NA	NA	NA
4	1	8	1	3	0	1	1	1.672	1	Ⴂ	DEU_f.wav	NA	NA	NA	NA	NA	NA
4	1	9	2	2	1	1	0	1.21	0	Ⴁ	DEU_u_short_1.wav	NA	NA	NA	NA	NA	NA
4	1	11	3	3	1	2	1	1.276	1	Ⴜ	DEU_f.wav	NA	NA	NA	NA	NA	NA
4	1	12	3	2	0	2	0	1.329	0	Ⴜ	DEU_u_short_1.wav	NA	NA	NA	NA	NA	NA
4	1	13	1	1	1	2	1	1.782	1	Ⴂ	DEU_p.wav	NA	NA	NA	NA	NA	NA
4	1	14	1	3	0	1	1	1.932	1	Ⴂ	DEU_f.wav	NA	NA	NA	NA	NA	NA
4	1	15	2	2	1	2	1	1.452	1	Ⴁ	DEU_u_short_1.wav	NA	NA	NA	NA	NA	NA
4	1	16	2	1	0	1	1	1.634	1	Ⴁ	DEU_p.wav	NA	NA	NA	NA	NA	NA
4	1	17	3	3	1	2	1	1.103	1	Ⴜ	DEU_f.wav	NA	NA	NA	NA	NA	NA
4	1	18	3	2	0	1	1	1.121	1	Ⴜ	DEU_u_short_1.wav	NA	NA	NA	NA	NA	NA
4	1	19	1	1	1	2	1	1.377	1	Ⴂ	DEU_p.wav	NA	NA	NA	NA	NA	NA
4	1	20	1	3	0	1	1	0.917	1	Ⴂ	DEU_f.wav	NA	NA	NA	NA	NA	NA
4	1	21	2	2	1	1	0	1.165	0	Ⴁ	DEU_u_short_1.wav	NA	NA	NA	NA	NA	NA
4	1	22	2	1	0	1	1	1.56	1	Ⴁ	DEU_p.wav	NA	NA	NA	NA	NA	NA
4	1	23	3	3	1	2	1	1.778	1	Ⴜ	DEU_f.wav	NA	NA	NA	NA	NA	NA
4	1	24	3	2	0	2	0	1.418	0	Ⴜ	DEU_u_short_1.wav	NA	NA	NA	NA	NA	NA
4	1	25	1	1	1	2	1	1.428	1	Ⴂ	DEU_p.wav	NA	NA	NA	NA	NA	NA
4	1	26	1	3	0	1	1	0.768	1	Ⴂ	DEU_f.wav	NA	NA	NA	NA	NA	NA
4	1	27	2	2	1	2	1	1.351	1	Ⴁ	DEU_u_short_1.wav	NA	NA	NA	NA	NA	NA
4	1	28	2	1	0	1	1	0.841	1	Ⴁ	DEU_p.wav	NA	NA	NA	NA	NA	NA
4	1	29	3	3	1	2	1	1.496	1	Ⴜ	DEU_f.wav	NA	NA	NA	NA	NA	NA
4	1	30	3	2	0	1	1	1.044	1	Ⴜ	DEU_u_short_1.wav	NA	NA	NA	NA	NA	NA
4	1	31	1	1	1	2	1	1.017	1	Ⴂ	DEU_p.wav	NA	NA	NA	NA	NA	NA
4	1	32	1	3	0	1	1	1.227	1	Ⴂ	DEU_f.wav	NA	NA	NA	NA	NA	NA
4	1	33	2	2	1	2	1	1.187	1	Ⴁ	DEU_u_short_1.wav	NA	NA	NA	NA	NA	NA
4	1	35	3	3	1	2	1	1.048	1	Ⴜ	DEU_f.wav	NA	NA	NA	NA	NA	NA
4	1	36	3	2	0	1	1	1.199	1	Ⴜ	DEU_u_short_1.wav	NA	NA	NA	NA	NA	NA
4	1	37	1	1	1	2	1	1.154	1	Ⴂ	DEU_p.wav	NA	NA	NA	NA	NA	NA
4	1	38	1	3	0	1	1	0.75	1	Ⴂ	DEU_f.wav	NA	NA	NA	NA	NA	NA
4	1	39	2	2	1	2	1	1.229	1	Ⴁ	DEU_u_short_1.wav	NA	NA	NA	NA	NA	NA
4	1	40	2	1	0	2	0	1.263	0	Ⴁ	DEU_p.wav	NA	NA	NA	NA	NA	NA
4	1	41	3	3	1	2	1	1.766	1	Ⴜ	DEU_f.wav	NA	NA	NA	NA	NA	NA
4	1	42	3	2	0	2	0	1.34	0	Ⴜ	DEU_u_short_1.wav	NA	NA	NA	NA	NA	NA
4	1	43	1	1	1	2	1	1.462	1	Ⴂ	DEU_p.wav	NA	NA	NA	NA	NA	NA
4	1	44	1	3	0	1	1	0.819	1	Ⴂ	DEU_f.wav	NA	NA	NA	NA	NA	NA
4	1	45	2	2	1	2	1	1.438	1	Ⴁ	DEU_u_short_1.wav	NA	NA	NA	NA	NA	NA
4	1	47	3	3	1	2	1	1.058	1	Ⴜ	DEU_f.wav	NA	NA	NA	NA	NA	NA
4	1	48	3	2	0	1	1	1.158	1	Ⴜ	DEU_u_short_1.wav	NA	NA	NA	NA	NA	NA
4	2	1	3	3	1	1	0	1.057	0	Ⴟ	DEU_g.wav	NA	NA	NA	NA	NA	NA
4	2	2	3	2	0	1	1	1.739	1	Ⴟ	DEU_r_1.wav	NA	NA	NA	NA	NA	NA
4	2	3	2	2	1	2	1	1.159	1	Ⴃ	DEU_r_1.wav	NA	NA	NA	NA	NA	NA
4	2	4	2	1	0	1	1	1.096	1	Ⴃ	DEU_n.wav	NA	NA	NA	NA	NA	NA
4	2	5	3	3	1	2	1	1.381	1	Ⴟ	DEU_g.wav	NA	NA	NA	NA	NA	NA
4	2	6	2	1	0	1	1	1.499	1	Ⴃ	DEU_n.wav	NA	NA	NA	NA	NA	NA
4	2	7	3	2	0	1	1	1.015	1	Ⴟ	DEU_r_1.wav	NA	NA	NA	NA	NA	NA
4	2	8	1	3	0	1	1	1.217	1	Ⴡ	DEU_g.wav	NA	NA	NA	NA	NA	NA
4	2	9	3	2	0	1	1	1.05	1	Ⴟ	DEU_r_1.wav	NA	NA	NA	NA	NA	NA
4	2	10	2	1	0	1	1	1.369	1	Ⴃ	DEU_n.wav	NA	NA	NA	NA	NA	NA
4	2	11	1	1	1	1	0	1.463	0	Ⴡ	DEU_n.wav	NA	NA	NA	NA	NA	NA
4	2	12	3	3	1	2	1	1.444	1	Ⴟ	DEU_g.wav	NA	NA	NA	NA	NA	NA
4	2	13	3	2	0	1	1	1.152	1	Ⴟ	DEU_r_1.wav	NA	NA	NA	NA	NA	NA
4	2	14	2	1	0	1	1	1.509	1	Ⴃ	DEU_n.wav	NA	NA	NA	NA	NA	NA
4	2	15	3	2	0	1	1	1.102	1	Ⴟ	DEU_r_1.wav	NA	NA	NA	NA	NA	NA
4	2	16	1	3	0	1	1	1.079	1	Ⴡ	DEU_g.wav	NA	NA	NA	NA	NA	NA
4	2	17	1	1	1	2	1	1.22	1	Ⴡ	DEU_n.wav	NA	NA	NA	NA	NA	NA
4	2	18	2	1	0	1	1	1.248	1	Ⴃ	DEU_n.wav	NA	NA	NA	NA	NA	NA
4	2	20	3	3	1	2	1	1.151	1	Ⴟ	DEU_g.wav	NA	NA	NA	NA	NA	NA
4	2	21	3	3	1	2	1	1.174	1	Ⴟ	DEU_g.wav	NA	NA	NA	NA	NA	NA
4	2	22	2	2	1	2	1	1.223	1	Ⴃ	DEU_r_1.wav	NA	NA	NA	NA	NA	NA
4	2	23	1	1	1	2	1	1.612	1	Ⴡ	DEU_n.wav	NA	NA	NA	NA	NA	NA
4	2	24	2	2	1	2	1	1.183	1	Ⴃ	DEU_r_1.wav	NA	NA	NA	NA	NA	NA
4	2	25	1	3	0	1	1	1.753	1	Ⴡ	DEU_g.wav	NA	NA	NA	NA	NA	NA
4	2	26	2	2	1	2	1	1.356	1	Ⴃ	DEU_r_1.wav	NA	NA	NA	NA	NA	NA
4	2	27	3	2	0	1	1	1.594	1	Ⴟ	DEU_r_1.wav	NA	NA	NA	NA	NA	NA
4	2	29	2	2	1	2	1	1.341	1	Ⴃ	DEU_r_1.wav	NA	NA	NA	NA	NA	NA
4	2	30	2	2	1	2	1	1.388	1	Ⴃ	DEU_r_1.wav	NA	NA	NA	NA	NA	NA
4	2	32	2	1	0	2	0	1.277	0	Ⴃ	DEU_n.wav	NA	NA	NA	NA	NA	NA
4	2	33	1	1	1	2	1	1.194	1	Ⴡ	DEU_n.wav	NA	NA	NA	NA	NA	NA
4	2	34	1	1	1	2	1	1.16	1	Ⴡ	DEU_n.wav	NA	NA	NA	NA	NA	NA
4	2	35	1	3	0	1	1	1.5	1	Ⴡ	DEU_g.wav	NA	NA	NA	NA	NA	NA
4	2	37	3	3	1	2	1	1.652	1	Ⴟ	DEU_g.wav	NA	NA	NA	NA	NA	NA
4	2	38	2	2	1	2	1	1.266	1	Ⴃ	DEU_r_1.wav	NA	NA	NA	NA	NA	NA
4	2	40	3	3	1	2	1	1.171	1	Ⴟ	DEU_g.wav	NA	NA	NA	NA	NA	NA
4	2	41	3	2	0	1	1	1.493	1	Ⴟ	DEU_r_1.wav	NA	NA	NA	NA	NA	NA
4	2	42	1	3	0	2	0	0.978	0	Ⴡ	DEU_g.wav	NA	NA	NA	NA	NA	NA
4	2	43	3	3	1	2	1	1.505	1	Ⴟ	DEU_g.wav	NA	NA	NA	NA	NA	NA
4	2	44	1	3	0	2	0	1.533	0	Ⴡ	DEU_g.wav	NA	NA	NA	NA	NA	NA
4	2	45	2	1	0	1	1	1.168	1	Ⴃ	DEU_n.wav	NA	NA	NA	NA	NA	NA
4	2	46	1	1	1	2	1	1.715	1	Ⴡ	DEU_n.wav	NA	NA	NA	NA	NA	NA
4	2	47	3	2	0	1	1	0.99	1	Ⴟ	DEU_r_1.wav	NA	NA	NA	NA	NA	NA
4	2	48	1	3	0	1	1	1.05	1	Ⴡ	DEU_g.wav	NA	NA	NA	NA	NA	NA
4	3	1	2	2	1	1	0	1.191	0	Ⴊ	DEU_e_1.wav	NA	NA	NA	NA	NA	NA
4	3	2	3	3	1	1	0	1.279	0	Ⴇ	DEU_l_1.wav	NA	NA	NA	NA	NA	NA
4	3	3	1	1	1	1	0	1.446	0	Ⴢ	DEU_i_1.wav	NA	NA	NA	NA	NA	NA
4	3	4	1	1	1	1	0	0.85	0	Ⴢ	DEU_i_1.wav	NA	NA	NA	NA	NA	NA
4	3	5	2	2	1	1	0	1.474	0	Ⴊ	DEU_e_1.wav	NA	NA	NA	NA	NA	NA
4	3	6	2	1	0	2	0	1.723	0	Ⴊ	DEU_i_1.wav	NA	NA	NA	NA	NA	NA
4	3	7	1	3	0	1	1	1.816	1	Ⴢ	DEU_l_1.wav	NA	NA	NA	NA	NA	NA
4	3	8	3	3	1	1	0	1.439	0	Ⴇ	DEU_l_1.wav	NA	NA	NA	NA	NA	NA
4	3	9	2	1	0	1	1	1.376	1	Ⴊ	DEU_i_1.wav	NA	NA	NA	NA	NA	NA
4	3	11	3	3	1	1	0	1.351	0	Ⴇ	DEU_l_1.wav	NA	NA	NA	NA	NA	NA
4	3	12	3	2	0	1	1	1.423	1	Ⴇ	DEU_e_1.wav	NA	NA	NA	NA	NA	NA
4	3	15	1	1	1	1	0	1.03	0	Ⴢ	DEU_i_1.wav	NA	NA	NA	NA	NA	NA
4	3	16	3	2	0	1	1	1.03	1	Ⴇ	DEU_e_1.wav	NA	NA	NA	NA	NA	NA
4	3	17	1	3	0	1	1	1.163	1	Ⴢ	DEU_l_1.wav	NA	NA	NA	NA	NA	NA
4	3	18	1	3	0	1	1	0.949	1	Ⴢ	DEU_l_1.wav	NA	NA	NA	NA	NA	NA
4	3	19	3	2	0	2	0	1.28	0	Ⴇ	DEU_e_1.wav	NA	NA	NA	NA	NA	NA
4	3	20	1	1	1	1	0	1.137	0	Ⴢ	DEU_i_1.wav	NA	NA	NA	NA	NA	NA
4	3	21	2	1	0	1	1	0.865	1	Ⴊ	DEU_i_1.wav	NA	NA	NA	NA	NA	NA
4	3	22	1	3	0	1	1	1.045	1	Ⴢ	DEU_l_1.wav	NA	NA	NA	NA	NA	NA
4	3	24	3	2	0	1	1	0.881	1	Ⴇ	DEU_e_1.wav	NA	NA	NA	NA	NA	NA
4	3	25	3	2	0	1	1	1.067	1	Ⴇ	DEU_e_1.wav	NA	NA	NA	NA	NA	NA
4	3	26	3	3	1	2	1	1.204	1	Ⴇ	DEU_l_1.wav	NA	NA	NA	NA	NA	NA
4	3	27	1	3	0	1	1	1.018	1	Ⴢ	DEU_l_1.wav	NA	NA	NA	NA	NA	NA
4	3	28	2	2	1	2	1	1.236	1	Ⴊ	DEU_e_1.wav	NA	NA	NA	NA	NA	NA
4	3	29	1	1	1	1	0	1.07	0	Ⴢ	DEU_i_1.wav	NA	NA	NA	NA	NA	NA
4	3	30	2	2	1	2	1	1.399	1	Ⴊ	DEU_e_1.wav	NA	NA	NA	NA	NA	NA
4	3	31	2	1	0	1	1	0.83	1	Ⴊ	DEU_i_1.wav	NA	NA	NA	NA	NA	NA
4	3	32	2	2	1	1	0	1.849	0	Ⴊ	DEU_e_1.wav	NA	NA	NA	NA	NA	NA
4	3	33	1	1	1	2	1	1.601	1	Ⴢ	DEU_i_1.wav	NA	NA	NA	NA	NA	NA
4	3	34	2	2	1	2	1	1.207	1	Ⴊ	DEU_e_1.wav	NA	NA	NA	NA	NA	NA
4	3	35	2	1	0	1	1	1.512	1	Ⴊ	DEU_i_1.wav	NA	NA	NA	NA	NA	NA
4	3	36	1	1	1	1	0	1.209	0	Ⴢ	DEU_i_1.wav	NA	NA	NA	NA	NA	NA
4	3	37	3	2	0	1	1	1.763	1	Ⴇ	DEU_e_1.wav	NA	NA	NA	NA	NA	NA
4	3	38	2	2	1	2	1	1.136	1	Ⴊ	DEU_e_1.wav	NA	NA	NA	NA	NA	NA
4	3	39	2	1	0	1	1	0.892	1	Ⴊ	DEU_i_1.wav	NA	NA	NA	NA	NA	NA
4	3	40	3	3	1	2	1	1.44	1	Ⴇ	DEU_l_1.wav	NA	NA	NA	NA	NA	NA
4	3	41	2	1	0	1	1	1.317	1	Ⴊ	DEU_i_1.wav	NA	NA	NA	NA	NA	NA
4	3	42	3	3	1	2	1	1.304	1	Ⴇ	DEU_l_1.wav	NA	NA	NA	NA	NA	NA
4	3	43	3	3	1	2	1	1.076	1	Ⴇ	DEU_l_1.wav	NA	NA	NA	NA	NA	NA
4	3	44	3	2	0	2	0	1.151	0	Ⴇ	DEU_e_1.wav	NA	NA	NA	NA	NA	NA
4	3	45	2	2	1	2	1	1.021	1	Ⴊ	DEU_e_1.wav	NA	NA	NA	NA	NA	NA
4	3	46	3	3	1	2	1	1.116	1	Ⴇ	DEU_l_1.wav	NA	NA	NA	NA	NA	NA
4	3	47	1	1	1	1	0	1.203	0	Ⴢ	DEU_i_1.wav	NA	NA	NA	NA	NA	NA
4	3	48	2	1	0	1	1	0.667	1	Ⴊ	DEU_i_1.wav	NA	NA	NA	NA	NA	NA
5	2	1	2	2	1	2	NA	0.899	1	ծ	norm_r.wav	3269	1726	8309	9208	12063	NA
5	2	2	3	4	0	1	NA	1.078	1	Ⴇ	norm_au.wav	2872	1101	16978	18056	20114	NA
5	2	3	2	1	0	1	NA	0.887	1	ծ	norm_g.wav	4089	1592	26231	27118	29867	NA
5	2	4	4	3	0	1	NA	1.112	1	Ⴐ	norm_i.wav	2097	1483	33999	35111	37527	NA
5	2	5	3	3	1	2	NA	1.033	1	Ⴇ	norm_i.wav	2698	940	42262	43295	45233	NA
5	2	6	4	4	1	2	NA	1.27	1	Ⴐ	norm_au.wav	3052	834	50314	51584	53181	NA
5	2	7	2	2	1	2	NA	0.853	1	ծ	norm_r.wav	2548	1760	57757	58610	61556	NA
5	2	8	3	3	1	1	NA	1.224	0	Ⴇ	norm_i.wav	2608	1205	66208	67432	69445	NA
5	2	9	1	1	1	2	NA	1.239	1	Ⴒ	norm_g.wav	2286	871	73762	75001	76667	NA
5	2	10	3	4	0	1	NA	1.292	1	Ⴇ	norm_au.wav	3282	1769	81993	83285	85796	NA
5	2	11	1	2	0	1	NA	1.397	1	Ⴒ	norm_r.wav	2720	1353	90551	91948	93949	NA
5	2	12	2	2	1	2	NA	0.81	1	ծ	norm_r.wav	3440	1388	99431	100241	102855	NA
5	2	13	3	4	0	1	NA	1.254	1	Ⴇ	norm_au.wav	1752	1412	106650	107904	110097	NA
5	2	14	1	1	1	2	NA	1.118	1	Ⴒ	norm_g.wav	2873	1490	115007	116125	118531	NA
5	2	15	4	4	1	2	NA	1.566	1	Ⴐ	norm_au.wav	2685	2009	123246	124812	127299	NA
5	2	16	2	1	0	1	NA	0.906	1	ծ	norm_g.wav	3043	535	132386	133292	134962	NA
5	2	17	4	3	0	1	NA	1.369	1	Ⴐ	norm_i.wav	3788	1067	140793	142162	143903	NA
5	2	18	1	1	1	2	NA	0.914	1	Ⴒ	norm_g.wav	2869	2163	148817	149731	153017	NA
5	2	19	2	1	0	1	NA	0.87	1	ծ	norm_g.wav	2760	1262	157810	158680	161112	NA
5	2	20	4	4	1	2	NA	1.268	1	Ⴐ	norm_au.wav	3057	1931	166214	167482	170190	NA
5	2	21	3	4	0	1	NA	1.152	1	Ⴇ	norm_au.wav	3929	1143	176152	177304	179340	NA
5	2	22	2	2	1	2	NA	0.926	1	ծ	norm_r.wav	2301	1654	183680	184606	187371	NA
5	2	23	4	3	0	1	NA	1.275	1	Ⴐ	norm_i.wav	2990	1435	192405	193680	195881	NA
5	2	24	1	2	0	1	NA	1.148	1	Ⴒ	norm_r.wav	3332	2176	201244	202392	205457	NA
5	2	25	3	3	1	2	NA	1.251	1	Ⴇ	norm_i.wav	2863	1667	210358	211609	214068	NA
5	2	26	1	2	0	1	NA	1.106	1	Ⴒ	norm_r.wav	3569	2328	219668	220774	224027	NA
5	2	27	4	3	0	1	NA	1.314	1	Ⴐ	norm_i.wav	3164	1433	229237	230551	232715	NA
5	2	28	2	1	0	1	NA	1.551	1	ծ	norm_g.wav	3162	1696	237910	239461	241635	NA
5	2	29	1	2	0	1	NA	1.082	1	Ⴒ	norm_r.wav	3221	775	246894	247976	249710	NA
5	2	30	4	4	1	2	NA	1.062	1	Ⴐ	norm_au.wav	3082	1896	254826	255888	258760	NA
5	2	31	3	3	1	2	NA	1.37	1	Ⴇ	norm_i.wav	2398	1076	263191	264561	266296	NA
5	2	32	1	1	1	2	NA	0.966	1	Ⴒ	norm_g.wav	3374	1369	271705	272671	275104	NA
5	3	1	1	1	1	2	NA	1.238	1	ሉ	norm_m.wav	3788	1412	8832	10070	12288	NA
5	3	2	3	4	0	2	NA	1.489	0	ሆ	norm_äu.wav	3332	1435	17657	19146	21129	NA
5	3	3	1	1	1	2	NA	0.908	1	ሉ	norm_m.wav	2760	2163	25920	26828	30123	NA
5	3	4	2	1	0	1	NA	0.916	1	փ	norm_m.wav	3569	871	35725	36641	38627	NA
5	3	5	1	1	1	2	NA	0.947	1	ሉ	norm_m.wav	2869	1205	43540	44487	46783	NA
5	3	6	4	3	0	1	NA	1.287	1	Ⴉ	norm_u.wav	2286	1696	51100	52387	54830	NA
5	3	7	2	1	0	1	NA	1.175	1	փ	norm_m.wav	3221	775	60088	61263	62904	NA
5	3	8	4	4	1	1	NA	1.633	0	Ⴉ	norm_äu.wav	2990	1726	67928	69561	71696	NA
5	3	9	2	2	1	2	NA	1.294	1	փ	norm_e.wav	3057	1076	76795	78089	79917	NA
5	3	10	3	4	0	2	NA	1.439	0	ሆ	norm_äu.wav	2685	834	84637	86076	87515	NA
5	3	11	4	4	1	2	NA	0.801	1	Ⴉ	norm_äu.wav	2873	1143	92416	93217	95593	NA
5	3	12	3	3	1	1	NA	1.376	0	ሆ	norm_u.wav	4089	1931	101721	103097	105696	NA
5	3	13	2	1	0	1	NA	1.387	1	փ	norm_m.wav	2872	1388	110602	111989	114025	NA
5	3	14	1	2	0	1	NA	0.873	1	ሉ	norm_e.wav	2398	1369	118466	119339	121863	NA
5	3	15	3	3	1	2	NA	0.915	1	ሆ	norm_u.wav	2097	2009	126005	126920	130059	NA
5	3	16	2	2	1	2	NA	0.995	1	փ	norm_e.wav	1752	1101	133855	134850	136991	NA
5	3	17	3	3	1	2	NA	0.77	1	ሆ	norm_u.wav	3162	940	142181	142951	145150	NA
5	3	18	4	3	0	1	NA	0.872	1	Ⴉ	norm_u.wav	3440	1769	150619	151491	154424	NA
5	3	19	3	4	0	1	NA	1.047	1	ሆ	norm_äu.wav	2608	2328	159067	160114	163427	NA
5	3	20	1	2	0	1	NA	0.987	1	ሉ	norm_e.wav	3282	2176	168755	169742	172964	NA
5	3	21	4	4	1	1	NA	1.349	0	Ⴉ	norm_äu.wav	2548	1654	177550	178899	181242	NA
5	3	22	2	1	0	1	NA	1.055	1	փ	norm_m.wav	3929	1483	187215	188270	190743	NA
5	3	23	4	4	1	2	NA	1.073	1	Ⴉ	norm_äu.wav	3082	1760	195862	196935	199660	NA
5	3	24	1	1	1	2	NA	0.993	1	ሉ	norm_m.wav	3269	1896	204973	205966	208898	NA
5	3	25	4	3	0	1	NA	1.322	1	Ⴉ	norm_u.wav	3164	1490	214095	215417	217630	NA
5	3	26	3	4	0	1	NA	0.838	1	ሆ	norm_äu.wav	2863	1353	222523	223361	225920	NA
5	3	27	4	3	0	1	NA	1.104	1	Ⴉ	norm_u.wav	2301	1592	230263	231367	233892	NA
5	3	28	1	2	0	1	NA	1.037	1	ሉ	norm_e.wav	2698	535	238625	239662	241191	NA
5	3	29	2	2	1	2	NA	0.872	1	փ	norm_e.wav	3374	1667	246607	247479	250305	NA
5	3	30	3	3	1	2	NA	0.935	1	ሆ	norm_u.wav	3043	1262	255379	256314	258682	NA
5	3	31	1	2	0	1	NA	0.887	1	ሉ	norm_e.wav	3052	1067	263779	264666	266878	NA
5	3	32	2	2	1	1	NA	1.434	0	փ	norm_e.wav	2720	1433	271642	273076	275120	NA
5	4	1	4	3	0	1	NA	1.264	1	ቐ	norm_l.wav	2286	2163	7336	8600	11533	NA
5	4	2	2	2	1	1	NA	1.271	0	Ⴏ	norm_ei.wav	3162	1433	16746	18017	20208	NA
5	4	3	4	4	1	2	NA	1.287	1	ቐ	norm_o.wav	3374	1654	25615	26902	29300	NA
5	4	4	2	1	0	2	NA	1.342	0	Ⴏ	norm_ü.wav	3164	940	34508	35850	37493	NA
5	4	5	4	3	0	1	NA	1.596	1	ቐ	norm_l.wav	3282	1931	42804	44400	46768	NA
5	4	6	2	1	0	1	NA	1.336	1	Ⴏ	norm_ü.wav	3057	1076	51859	53195	54980	NA
5	4	7	4	4	1	2	NA	0.794	1	ቐ	norm_o.wav	3788	1143	60803	61597	63989	NA
5	4	8	1	1	1	2	NA	1.382	1	ზ	norm_ü.wav	2608	1490	68637	70019	72159	NA
5	4	9	2	2	1	2	NA	0.967	1	Ⴏ	norm_ei.wav	4089	1726	78278	79245	82048	NA
5	4	10	3	4	0	1	NA	1.78	1	Ⴕ	norm_o.wav	3043	1769	87134	88914	90944	NA
5	4	11	1	2	0	1	NA	1.506	1	ზ	norm_ei.wav	1752	1262	94732	96238	98029	NA
5	4	13	1	2	0	1	NA	1.462	1	ზ	norm_ei.wav	3269	1205	111805	113267	115038	NA
5	4	14	2	2	1	2	NA	0.978	1	Ⴏ	norm_ei.wav	2872	535	119941	120919	122511	NA
5	4	15	3	3	1	2	NA	1.377	1	Ⴕ	norm_l.wav	3929	1592	128482	129859	132119	NA
5	4	16	1	1	1	2	NA	1.134	1	ზ	norm_ü.wav	2990	871	137144	138278	140056	NA
5	4	17	3	4	0	1	NA	1.004	1	Ⴕ	norm_o.wav	2863	2328	144963	145967	149335	NA
5	4	18	2	2	1	2	NA	1.036	1	Ⴏ	norm_ei.wav	3569	2176	154949	155985	159156	NA
5	4	19	1	2	0	1	NA	1.019	1	ზ	norm_ei.wav	3221	1667	164415	165434	168123	NA
5	4	20	4	4	1	2	NA	0.96	1	ቐ	norm_o.wav	2869	1896	173023	173983	176957	NA
5	4	21	3	3	1	2	NA	1.17	1	Ⴕ	norm_l.wav	2097	1353	181087	182257	184485	NA
5	4	22	1	1	1	2	NA	1.434	1	ზ	norm_ü.wav	2720	1760	189247	190681	193052	NA
5	4	23	2	1	0	1	NA	1.392	1	Ⴏ	norm_ü.wav	3082	775	198178	199570	200991	NA
5	4	24	4	4	1	2	NA	0.878	1	ቐ	norm_o.wav	2760	1483	205785	206663	209308	NA
5	4	25	3	4	0	1	NA	1.065	1	Ⴕ	norm_o.wav	3440	1101	214785	215850	217922	NA
5	4	26	1	2	0	1	NA	1.336	1	ზ	norm_ei.wav	2548	1369	222498	223834	225906	NA
5	4	28	4	3	0	1	NA	1.194	1	ቐ	norm_l.wav	3052	834	240424	241618	243291	NA
5	4	29	3	3	1	2	NA	1.218	1	Ⴕ	norm_l.wav	2873	1388	248192	249410	251614	NA
5	4	30	1	1	1	2	NA	1.15	1	ზ	norm_ü.wav	2698	1435	256355	257505	259821	NA
5	4	31	4	3	0	1	NA	1.06	1	ቐ	norm_l.wav	2301	1412	264154	265214	267602	NA
5	4	32	3	3	1	2	NA	1.361	1	Ⴕ	norm_l.wav	2398	1067	272037	273398	275133	NA
6	1	1	4	3	0	1	NA	1.014	0	Փ	norm_a.wav	2990	1388	8030	9044	11459	NA
6	1	2	3	3	1	1	NA	0.958	1	Թ	norm_a.wav	3043	1654	16545	17503	20240	NA
6	1	3	2	2	1	1	NA	1.789	1	𐩬	norm_n.wav	3929	871	26213	28002	29129	NA
6	1	4	1	2	0	2	NA	0.937	1	Խ	norm_n.wav	2685	1896	33858	34795	37798	NA
6	1	5	2	1	0	2	NA	1.056	1	𐩬	norm_h.wav	3440	775	43271	44327	46082	NA
6	1	6	1	1	1	1	NA	1.378	1	Խ	norm_h.wav	2720	1667	50835	52213	54547	NA
6	1	7	2	2	1	1	NA	0.916	1	𐩬	norm_n.wav	3569	1769	60147	61063	63947	NA
6	1	8	3	4	0	2	NA	1.085	1	Թ	norm_b.wav	3164	940	69146	70231	72131	NA
6	1	9	4	4	1	1	NA	0.978	1	Փ	norm_b.wav	2398	1490	76558	77536	80077	NA
6	1	10	2	1	0	2	NA	0.869	1	𐩬	norm_h.wav	2873	1931	84980	85849	88945	NA
6	1	11	4	3	0	2	NA	0.922	1	Փ	norm_a.wav	2869	1205	93847	94769	97090	NA
6	1	12	3	4	0	2	NA	0.913	1	Թ	norm_b.wav	3162	1696	102282	103195	106008	NA
6	1	13	1	2	0	1	NA	1.675	0	Խ	norm_n.wav	3788	2163	111833	113508	116039	NA
6	1	14	4	3	0	2	NA	1.833	1	Փ	norm_a.wav	4089	1101	122161	123994	125306	NA
6	1	15	3	3	1	1	NA	0.835	1	Թ	norm_a.wav	3374	1435	130726	131561	134191	NA
6	1	16	1	1	1	1	NA	1.832	1	Խ	norm_h.wav	2097	1726	138320	140152	142091	NA
6	1	17	2	2	1	1	NA	0.742	1	𐩬	norm_n.wav	2760	1353	146894	147636	150287	NA
6	1	18	1	2	0	2	NA	1.707	1	Խ	norm_n.wav	3332	2009	155662	157369	159708	NA
6	1	19	4	4	1	1	NA	0.743	1	Փ	norm_b.wav	3282	2176	165034	165777	169244	NA
6	1	20	2	2	1	1	NA	0.798	1	𐩬	norm_n.wav	2286	1592	173567	174365	177193	NA
6	1	21	3	3	1	1	NA	1.213	1	Թ	norm_a.wav	2863	1760	182091	183304	185895	NA
6	1	22	1	1	1	1	NA	1.629	1	Խ	norm_h.wav	2548	834	190487	192116	193360	NA
6	1	23	4	4	1	1	NA	1.831	1	Փ	norm_b.wav	2872	535	198260	200091	200830	NA
6	1	24	2	1	0	2	NA	0.834	1	𐩬	norm_h.wav	3057	1433	205930	206764	209408	NA
6	1	25	3	3	1	1	NA	0.844	1	Թ	norm_a.wav	3269	1067	214710	215554	217806	NA
6	1	26	4	4	1	1	NA	1.096	1	Փ	norm_b.wav	2698	1412	222548	223644	225991	NA
6	1	27	1	1	1	1	NA	1.102	1	Խ	norm_h.wav	1752	2328	229780	230882	234143	NA
6	1	28	2	1	0	2	NA	1.092	1	𐩬	norm_h.wav	3052	1369	239240	240332	242642	NA
6	1	29	3	4	0	2	NA	1.646	1	Թ	norm_b.wav	3082	1143	247768	249414	250949	NA
6	1	30	4	3	0	2	NA	1.039	1	Փ	norm_a.wav	3221	1262	256210	257249	259513	NA
6	1	31	3	4	0	2	NA	1.622	1	Թ	norm_b.wav	2301	1076	263858	265480	266971	NA
6	1	32	1	2	0	2	NA	1.002	1	Խ	norm_n.wav	2608	1483	271614	272616	275130	NA
6	1	1	3	2	0	1	NA	0.874	0	Դ	norm_a.wav	3788	2163	8829	9703	13035	NA
6	1	2	3	2	0	2	NA	1.286	1	Դ	norm_a.wav	2760	1388	17827	19113	21255	NA
6	1	3	3	3	1	1	NA	1.055	1	Դ	norm_i.wav	3282	1412	26581	27636	30026	NA
6	1	4	1	1	1	1	NA	0.84	1	Խ	norm_b.wav	3164	834	35227	36067	38106	NA
6	1	5	1	1	0	1	NA	0.938	1	Խ	norm_b.wav	2873	1490	43007	43945	46531	NA
6	1	6	3	2	0	2	NA	1.181	1	Դ	norm_a.wav	3057	2328	51618	52799	55991	NA
6	1	7	2	1	0	2	NA	1.558	1	Ⴔ	norm_b.wav	2301	1076	60338	61896	63450	NA
6	1	8	2	1	0	2	NA	1.07	1	Ⴔ	norm_b.wav	2720	1654	68206	69276	71904	NA
6	1	9	2	2	1	2	NA	1.475	0	Ⴔ	norm_a.wav	4089	2009	78037	79512	82090	NA
6	1	10	1	3	0	2	NA	1.138	1	Խ	norm_i.wav	2698	1143	86833	87971	90007	NA
6	1	11	2	2	1	1	NA	0.984	1	Ⴔ	norm_a.wav	3221	1262	95267	96251	98570	NA
6	1	12	2	2	0	1	NA	1.5	1	Ⴔ	norm_a.wav	2863	1101	103478	104978	106623	NA
6	1	13	1	1	1	1	NA	0.979	1	Խ	norm_b.wav	2769	1205	111419	112398	114655	NA
6	1	14	1	1	0	1	NA	0.602	1	Խ	norm_b.wav	2548	1067	119234	119836	122340	NA
6	1	15	3	2	0	2	NA	1.202	1	Դ	norm_a.wav	3043	1433	127427	128629	130901	NA
6	1	16	1	3	0	2	NA	1.213	1	Խ	norm_i.wav	2286	2176	135221	136434	139431	NA
6	1	17	1	3	0	2	NA	0.863	1	Խ	norm_i.wav	2685	940	144154	145017	147137	NA
6	1	18	2	1	0	2	NA	0.828	1	Ⴔ	norm_b.wav	3162	775	152328	153156	155133	NA
6	1	19	3	2	0	2	NA	0.862	1	Դ	norm_a.wav	3440	1931	160606	161468	164573	NA
6	1	20	2	2	1	1	NA	0.798	1	Ⴔ	norm_a.wav	3052	1592	169659	170457	173283	NA
6	1	21	1	3	0	2	NA	0.899	1	Խ	norm_i.wav	2608	1726	177926	178825	181684	NA
6	1	22	2	1	0	2	NA	0.832	1	Ⴔ	norm_b.wav	3374	871	187101	187933	190002	NA
6	1	23	1	1	1	1	NA	1.123	1	Խ	norm_b.wav	3929	1696	195976	197099	199716	NA
6	1	24	3	3	1	1	NA	1.287	1	Դ	norm_i.wav	1752	1896	203506	204793	207436	NA
6	1	25	2	2	1	1	NA	0.809	1	Ⴔ	norm_a.wav	3332	1353	212801	213610	216191	NA
6	1	26	1	3	0	2	NA	0.965	1	Խ	norm_i.wav	3082	1760	221316	222281	225114	NA
6	1	27	1	3	0	2	NA	0.971	1	Խ	norm_i.wav	2097	1667	229255	230226	232967	NA
6	1	28	2	1	0	2	NA	0.837	1	Ⴔ	norm_b.wav	2369	1435	237367	238204	240842	NA
6	1	29	3	3	1	1	NA	0.85	1	Դ	norm_i.wav	2872	1483	245746	246596	249264	NA
6	1	30	3	3	0	1	NA	0.708	1	Դ	norm_i.wav	2990	535	254291	254999	256867	NA
6	2	1	1	1	1	1	NA	0.849	1	Դ	norm_h.wav	3374	2328	8438	9287	12796	NA
6	2	2	2	1	0	2	NA	0.816	1	ჺ	norm_h.wav	2286	775	17128	17944	19937	NA
6	2	3	2	1	0	2	NA	1.162	1	ჺ	norm_h.wav	2685	1490	24656	25818	28189	NA
6	2	4	1	1	1	1	NA	0.981	1	Դ	norm_h.wav	2873	1433	33092	34073	36559	NA
6	2	5	2	2	1	1	NA	1.226	1	ჺ	norm_e.wav	2301	1592	40912	42138	44540	NA
6	2	6	3	3	1	1	NA	0.876	1	ტ	norm_u.wav	3332	1760	49925	50801	53722	NA
6	2	7	1	1	1	1	NA	1.036	1	Դ	norm_h.wav	3788	535	59554	60590	62133	NA
6	2	8	1	1	0	1	NA	0.951	1	Դ	norm_h.wav	1752	1353	65927	66878	69315	NA
6	2	9	2	1	0	2	NA	0.886	1	ჺ	norm_h.wav	3569	1143	74927	75813	78101	NA
6	2	10	3	2	0	2	NA	1.22	1	ტ	norm_e.wav	2990	1435	83130	84350	86606	NA
6	2	11	1	3	0	2	NA	1.287	1	Դ	norm_u.wav	2097	834	90735	92022	93614	NA
6	2	12	3	3	1	1	NA	0.755	1	ტ	norm_u.wav	3440	2176	99082	99837	103294	NA
6	2	13	1	3	0	2	NA	0.857	1	Դ	norm_u.wav	2698	1076	108029	108886	111136	NA
6	2	14	1	3	0	2	NA	0.873	1	Դ	norm_u.wav	2863	1667	116034	116907	119745	NA
6	2	15	2	2	1	1	NA	1.047	1	ჺ	norm_e.wav	3043	1931	124819	125866	128791	NA
6	2	16	3	3	1	1	NA	0.962	1	ტ	norm_u.wav	3162	1412	133987	134949	137428	NA
6	2	17	2	1	0	2	NA	0.907	1	ჺ	norm_h.wav	3057	1726	142522	143429	146293	NA
6	2	18	2	1	0	2	NA	0.852	1	ჺ	norm_h.wav	2760	1654	151096	151948	154790	NA
6	2	19	3	2	0	2	NA	0.839	1	ტ	norm_e.wav	3052	2009	159886	160725	163927	NA
6	2	20	2	2	1	1	NA	1.119	1	ჺ	norm_e.wav	3082	871	169054	170173	171963	NA
6	2	21	2	2	0	1	NA	0.791	1	ჺ	norm_e.wav	4089	2163	178096	178887	182304	NA
6	2	22	1	3	0	2	NA	1.006	1	Դ	norm_u.wav	3929	1205	188265	189271	191515	NA
6	2	23	3	2	0	2	NA	0.768	1	ტ	norm_e.wav	2548	1388	196093	196861	199520	NA
6	2	24	2	1	0	2	NA	0.92	1	ჺ	norm_h.wav	3164	1696	204727	205647	208468	NA
6	2	25	2	1	0	2	NA	0.867	1	ჺ	norm_h.wav	2608	1101	213114	213981	216247	NA
6	2	26	1	3	0	2	NA	1.144	1	Դ	norm_u.wav	2398	1067	220673	221817	223768	NA
6	2	27	2	2	1	1	NA	0.681	1	ჺ	norm_e.wav	2720	1483	228532	229213	232060	NA
6	2	28	1	1	1	1	NA	0.84	1	Դ	norm_h.wav	3282	1896	237379	238219	241309	NA
6	2	29	3	3	1	1	NA	1.035	1	ტ	norm_u.wav	2769	940	246110	247145	249082	NA
6	2	30	3	3	0	1	NA	0.667	1	ტ	norm_u.wav	3221	1262	254331	254998	257635	NA
6	3	1	2	1	0	1	NA	1.345	0	ტ	norm_r.wav	2769	1592	7833	9178	11456	NA
6	3	2	2	1	0	2	NA	1.033	1	ტ	norm_r.wav	3082	1076	16573	17606	19687	NA
6	3	3	2	1	0	2	NA	0.692	1	ტ	norm_r.wav	2873	834	24595	25287	27463	NA
6	3	4	3	3	1	1	NA	0.883	1	Ⴇ	norm_ü.wav	2286	1067	31777	32660	34878	NA
6	3	6	1	1	1	1	NA	0.953	1	ჺ	norm_r.wav	3788	775	48213	49166	51031	NA
6	3	7	2	2	1	2	NA	0.77	0	ტ	norm_g.wav	2608	1667	55673	56443	59372	NA
6	3	8	3	2	0	2	NA	1.543	1	Ⴇ	norm_g.wav	2369	1435	63772	65315	67246	NA
6	3	9	3	2	0	2	NA	1.065	1	Ⴇ	norm_g.wav	2863	1101	72141	73206	75286	NA
6	3	10	1	3	0	2	NA	1.633	1	ჺ	norm_ü.wav	3057	1726	80371	82004	84142	NA
6	3	11	3	2	0	2	NA	0.897	1	Ⴇ	norm_g.wav	3374	1760	89559	90456	93349	NA
6	3	12	3	2	0	2	NA	1.044	1	Ⴇ	norm_g.wav	3162	1262	98556	99600	101847	NA
6	3	13	1	3	0	2	NA	1.165	1	ჺ	norm_ü.wav	2301	1696	106193	107358	109926	NA
6	3	14	3	3	1	1	NA	0.729	1	Ⴇ	norm_ü.wav	1752	1205	113715	114444	116955	NA
6	3	15	2	2	1	1	NA	1.139	1	ტ	norm_g.wav	3929	1412	122914	124053	126371	NA
6	3	16	2	2	0	1	NA	0.647	1	ტ	norm_g.wav	2698	2163	131106	131753	135299	NA
6	3	17	3	3	1	1	NA	0.819	1	Ⴇ	norm_ü.wav	4089	535	141421	142240	144000	NA
6	3	18	2	2	1	1	NA	1.776	1	ტ	norm_g.wav	2760	1433	148803	150579	152276	NA
6	3	19	3	3	1	1	NA	0.98	1	Ⴇ	norm_ü.wav	2685	1388	156995	157975	160427	NA
6	3	20	1	1	1	1	NA	0.831	1	ჺ	norm_r.wav	3164	1896	165634	166465	169575	NA
6	3	21	1	1	0	1	NA	0.98	1	ჺ	norm_r.wav	3569	940	175177	176157	178148	NA
6	3	22	3	2	0	2	NA	0.866	1	Ⴇ	norm_g.wav	3221	1490	183398	184264	186929	NA
6	3	23	2	1	0	2	NA	1.215	1	ტ	norm_r.wav	3282	2009	192241	193456	196284	NA
6	3	24	2	1	0	2	NA	0.827	1	ტ	norm_r.wav	2872	1654	201200	202027	204889	NA
6	3	25	1	1	1	1	NA	1.216	1	ჺ	norm_r.wav	3043	2176	209976	211192	214193	NA
6	3	26	1	1	0	1	NA	0.905	1	ჺ	norm_r.wav	2398	1143	218629	219534	221800	NA
6	3	27	2	1	0	2	NA	0.901	1	ტ	norm_r.wav	2720	1931	226560	227461	230535	NA
6	3	28	1	3	0	2	NA	0.868	1	ჺ	norm_ü.wav	3440	1483	236009	236877	239527	NA
6	3	29	2	2	1	1	NA	1.143	1	ტ	norm_g.wav	2990	2328	244554	245697	248923	NA
6	3	30	3	2	0	2	NA	0.799	1	Ⴇ	norm_g.wav	3052	1353	254021	254820	257406	NA
6	4	1	2	2	1	1	NA	0.851	1	ჰ	norm_ü.wav	3162	1654	8204	9055	11887	NA
6	4	2	3	2	0	2	NA	0.99	1	ლ	norm_ü.wav	3788	940	17719	18709	20702	NA
6	4	3	2	2	1	1	NA	0.794	1	ჰ	norm_ü.wav	2097	2009	24828	25622	28882	NA
6	4	4	1	3	0	1	NA	1.329	0	ჟ	norm_m.wav	2872	1143	33817	35146	36994	NA
6	4	5	1	3	0	2	NA	0.909	1	ჟ	norm_m.wav	2863	1262	41897	42806	45202	NA
6	4	6	1	3	0	2	NA	1.712	1	ჟ	norm_m.wav	3440	2176	50687	52399	54899	NA
6	4	7	3	3	1	1	NA	0.732	1	ლ	norm_m.wav	2301	1433	59237	59969	62707	NA
6	4	8	1	1	1	2	NA	1.444	0	ჟ	norm_l.wav	2398	1726	67138	68582	70893	NA
6	4	9	2	1	0	2	NA	1.006	1	ჰ	norm_l.wav	2369	1412	75305	76311	78757	NA
6	4	10	1	1	1	1	NA	0.767	1	ჟ	norm_l.wav	3569	1353	84363	85130	87747	NA
6	4	11	1	1	0	1	NA	0.77	1	ჟ	norm_l.wav	3043	1388	92833	93603	96262	NA
6	4	12	3	3	1	1	NA	1.409	1	ლ	norm_m.wav	3164	1101	101469	102878	104615	NA
6	4	13	3	3	0	1	NA	0.705	1	ლ	norm_m.wav	2769	1483	109412	110117	112926	NA
6	4	14	3	2	0	2	NA	1.043	1	ლ	norm_ü.wav	2685	1490	117648	118691	121182	NA
6	4	15	1	3	0	2	NA	1.809	1	ჟ	norm_m.wav	2760	1076	125972	127781	129088	NA
6	4	16	2	1	0	2	NA	1.061	1	ჰ	norm_l.wav	2548	1931	133671	134732	137641	NA
6	4	17	3	3	1	1	NA	1.796	1	ლ	norm_m.wav	3374	775	143048	144844	145854	NA
6	4	18	3	3	0	1	NA	0.838	1	ლ	norm_m.wav	3929	871	151817	152655	154732	NA
6	4	19	2	2	1	2	NA	1.268	0	ჰ	norm_ü.wav	4089	1205	160866	162134	164115	NA
6	4	20	2	2	0	1	NA	0.538	1	ჰ	norm_ü.wav	3282	2163	169428	169966	173624	NA
6	4	21	2	1	0	2	NA	0.902	1	ჰ	norm_l.wav	3082	1696	178739	179641	182473	NA
6	4	22	2	1	0	2	NA	0.969	1	ჰ	norm_l.wav	2698	535	187208	188177	189774	NA
6	4	23	3	3	1	1	NA	1.044	1	ლ	norm_m.wav	2608	1435	194425	195469	197892	NA
6	4	25	1	1	0	1	NA	0.66	1	ჟ	norm_l.wav	3332	1896	211860	212520	215793	NA
6	4	26	1	3	0	2	NA	1.486	1	ჟ	norm_m.wav	3052	834	220878	222364	223745	NA
6	4	27	2	2	1	1	NA	1.001	1	ჰ	norm_ü.wav	2990	2328	228763	229764	233132	NA
6	4	28	1	1	1	1	NA	1.569	1	ჟ	norm_l.wav	2720	1592	237898	239467	241534	NA
6	4	29	2	1	0	2	NA	0.798	1	ჰ	norm_l.wav	3057	1067	246626	247424	249738	NA
6	4	30	2	1	0	2	NA	0.777	1	ჰ	norm_l.wav	2286	1760	254068	254845	257862	NA
6	2	1	3	3	1	1	NA	1.304	1	Ⴐ	norm_au.wav	3282	1592	8326	9630	11951	NA
6	2	2	4	4	1	1	NA	1.022	1	ծ	norm_g.wav	2760	1896	16746	17768	20682	NA
6	2	3	3	3	1	2	NA	1.294	0	Ⴐ	norm_au.wav	2720	1726	25435	26729	29205	NA
6	2	4	2	2	1	1	NA	0.977	1	Ⴇ	norm_r.wav	3332	1076	34598	35575	37711	NA
6	2	5	4	4	1	1	NA	0.825	1	ծ	norm_g.wav	3269	1760	43015	43840	46804	NA
6	2	6	3	4	0	2	NA	1.037	1	Ⴐ	norm_g.wav	3043	1412	51892	52929	55345	NA
6	2	7	4	3	0	2	NA	0.926	1	ծ	norm_au.wav	1752	1931	59134	60060	63100	NA
6	2	8	3	4	0	1	NA	0.845	0	Ⴐ	norm_g.wav	2301	1388	67434	68279	70859	NA
6	2	9	4	3	0	2	NA	0.881	1	ծ	norm_au.wav	3374	1483	76276	77157	79790	NA
6	2	10	2	2	1	1	NA	1.079	1	Ⴇ	norm_r.wav	2097	1205	83924	85003	87174	NA
6	2	11	3	4	0	2	NA	0.986	1	Ⴐ	norm_g.wav	2608	1262	91812	92798	95107	NA
6	2	12	2	2	1	1	NA	1.004	1	Ⴇ	norm_r.wav	2698	535	99849	100853	102415	NA
6	2	13	1	2	0	2	NA	1.11	1	Ⴒ	norm_r.wav	2398	2328	106856	107966	111213	NA
6	2	14	3	3	1	1	NA	1.275	1	Ⴐ	norm_au.wav	2869	1667	116127	117402	119832	NA
6	2	15	2	1	0	2	NA	1.063	1	Ⴇ	norm_i.wav	2863	834	124726	125789	127603	NA
6	2	16	1	1	1	1	NA	1.056	1	Ⴒ	norm_i.wav	2990	775	132622	133678	135438	NA
6	2	17	4	4	1	1	NA	0.882	1	ծ	norm_g.wav	2548	2163	140020	140902	144221	NA
6	2	18	2	1	0	2	NA	1.449	1	Ⴇ	norm_i.wav	2286	2009	148540	149989	152583	NA
6	2	19	1	2	0	2	NA	1.319	1	Ⴒ	norm_r.wav	3164	940	157791	159110	160776	NA
6	2	20	2	2	1	1	NA	1.485	1	Ⴇ	norm_r.wav	3052	1696	165857	167342	169586	NA
6	2	21	4	3	0	2	NA	0.889	1	ծ	norm_au.wav	2685	1143	174308	175197	177495	NA
6	2	22	1	2	0	2	NA	1.428	1	Ⴒ	norm_r.wav	4089	1769	183623	185051	187437	NA
6	2	23	4	4	1	1	NA	1.46	1	ծ	norm_g.wav	2873	1369	192345	193805	195748	NA
6	2	24	1	1	1	1	NA	1.431	1	Ⴒ	norm_i.wav	3929	1067	201721	203152	204833	NA
6	2	25	4	3	0	2	NA	1.125	1	ծ	norm_au.wav	3057	1433	209934	211059	213412	NA
6	2	26	1	1	1	1	NA	0.834	1	Ⴒ	norm_i.wav	3162	871	218608	219442	221508	NA
6	2	27	2	1	0	2	NA	0.871	1	Ⴇ	norm_i.wav	3082	1353	226634	227505	230025	NA
6	2	28	1	2	0	2	NA	1.033	1	Ⴒ	norm_r.wav	3440	1490	235508	236541	239034	NA
6	2	29	3	3	1	1	NA	1.748	1	Ⴐ	norm_au.wav	3221	1101	244285	246033	247427	NA
6	2	30	1	1	1	1	NA	1.021	1	Ⴒ	norm_i.wav	3788	2176	253243	254264	257462	NA
6	2	31	3	4	0	2	NA	1.656	1	Ⴐ	norm_g.wav	2872	1435	262371	264027	265841	NA
6	2	32	2	1	0	2	NA	0.91	1	Ⴇ	norm_i.wav	3569	1654	271442	272352	275127	NA
6	3	1	3	3	1	2	NA	1.043	0	փ	norm_e.wav	2097	1483	7137	8180	10652	NA
6	3	2	2	2	1	1	NA	1.383	1	ሆ	norm_m.wav	2869	1067	15576	16959	18680	NA
6	3	3	3	4	0	2	NA	0.973	1	փ	norm_äu.wav	3082	1101	23806	24779	26945	NA
6	3	4	1	1	1	2	NA	1.77	0	ሉ	norm_u.wav	3440	1654	32413	34183	36103	NA
6	3	6	1	2	0	1	NA	1.011	0	ሉ	norm_m.wav	2760	1143	49334	50345	52517	NA
6	3	7	4	4	1	1	NA	1.139	1	Ⴉ	norm_äu.wav	3164	2163	57720	58859	61928	NA
6	3	8	2	1	0	1	NA	1.635	0	ሆ	norm_u.wav	3929	1726	67889	69524	71660	NA
6	3	10	2	1	0	2	NA	1.365	1	ሆ	norm_u.wav	2398	1369	84190	85555	87587	NA
6	3	11	4	4	1	1	NA	0.911	1	Ⴉ	norm_äu.wav	3282	1262	92914	93825	96209	NA
6	3	12	3	3	1	1	NA	1.085	1	փ	norm_e.wav	3332	1667	101586	102671	105290	NA
6	3	13	4	3	0	2	NA	0.781	1	Ⴉ	norm_e.wav	2301	535	109622	110403	112194	NA
6	3	14	2	1	0	1	NA	0.953	0	ሆ	norm_u.wav	3052	1353	117288	118241	120674	NA
6	3	15	3	4	0	2	NA	1.165	1	փ	norm_äu.wav	3788	940	126504	127669	129488	NA
6	3	16	1	2	0	1	NA	1.29	0	ሉ	norm_m.wav	2685	1388	134202	135492	137633	NA
6	3	17	3	4	0	2	NA	0.963	1	փ	norm_äu.wav	3057	1896	142734	143697	146675	NA
6	3	18	2	1	0	2	NA	1.627	1	ሆ	norm_u.wav	3162	2009	151870	153497	155908	NA
6	3	19	1	1	1	1	NA	1.305	1	ሉ	norm_u.wav	2990	2328	160942	162247	165311	NA
6	3	21	3	3	1	2	NA	1.252	0	փ	norm_e.wav	2863	871	178060	179312	180975	NA
6	3	22	1	1	1	2	NA	1.261	0	ሉ	norm_u.wav	3569	775	186588	187849	189394	NA
6	3	23	2	2	1	2	NA	1.551	0	ሆ	norm_m.wav	4089	2176	195517	197068	199738	NA
6	3	24	1	1	1	1	NA	1.587	1	ሉ	norm_u.wav	3269	1433	205044	206631	208506	NA
6	3	25	4	3	0	2	NA	0.795	1	Ⴉ	norm_e.wav	2286	1931	212825	213620	216791	NA
6	3	26	2	2	1	1	NA	1.031	1	ሆ	norm_m.wav	2548	1696	221372	222403	225107	NA
6	3	27	4	4	1	1	NA	1.097	1	Ⴉ	norm_äu.wav	3374	1435	230518	231615	233984	NA
6	3	28	1	2	0	2	NA	1.226	1	ሉ	norm_m.wav	3043	834	239058	240284	241934	NA
6	3	29	4	3	0	2	NA	0.965	1	Ⴉ	norm_e.wav	2720	1769	246682	247647	250496	NA
6	3	30	1	2	0	1	NA	1.293	0	ሉ	norm_m.wav	1752	1205	254283	255576	257523	NA
6	3	31	4	3	0	2	NA	1.019	1	Ⴉ	norm_e.wav	2872	1592	262425	263444	266052	NA
6	3	32	3	3	1	1	NA	1.529	1	փ	norm_e.wav	3221	1760	271308	272837	275109	NA
6	4	1	3	4	0	1	NA	1.162	0	ቐ	norm_o.wav	3082	834	8093	9255	10957	NA
6	4	2	1	2	0	1	NA	1.083	0	Ⴕ	norm_l.wav	3282	1726	16285	17368	20044	NA
6	4	3	2	1	0	1	NA	1.332	0	Ⴏ	norm_ei.wav	2720	1412	24807	26139	28264	NA
6	4	4	4	4	1	1	NA	1.078	1	ზ	norm_o.wav	3440	1490	33741	34819	37266	NA
6	4	5	1	1	1	1	NA	1.224	1	Ⴕ	norm_ei.wav	3569	1076	42865	44089	45972	NA
6	4	6	3	4	0	1	NA	1.101	0	ቐ	norm_o.wav	2286	1654	50294	51395	53982	NA
6	4	7	4	3	0	2	NA	0.881	1	ზ	norm_ü.wav	3374	1143	59399	60280	62573	NA
6	4	8	1	1	1	1	NA	1.23	1	Ⴕ	norm_ei.wav	2097	1388	66709	67939	70142	NA
6	4	9	2	2	1	1	NA	1.213	1	Ⴏ	norm_l.wav	3043	1369	75229	76442	78639	NA
6	4	10	1	2	0	2	NA	0.903	1	Ⴕ	norm_l.wav	3332	2009	84015	84918	88061	NA
6	4	11	3	3	1	1	NA	1.213	1	ቐ	norm_ü.wav	3057	1435	93163	94376	96643	NA
6	4	12	2	2	1	2	NA	1.68	0	Ⴏ	norm_l.wav	2698	2176	101373	103053	105580	NA
6	4	13	3	4	0	2	NA	1.331	1	ቐ	norm_o.wav	2872	940	110489	111820	113464	NA
6	4	14	2	1	0	2	NA	1.612	1	Ⴏ	norm_ei.wav	2608	2328	118101	119713	122461	NA
6	4	15	3	4	0	2	NA	1.228	1	ቐ	norm_o.wav	2685	1696	127191	128419	130931	NA
6	4	16	4	4	1	1	NA	1.085	1	ზ	norm_o.wav	3221	535	136189	137274	138766	NA
6	4	17	1	1	1	1	NA	1.019	1	Ⴕ	norm_ei.wav	2990	1896	143798	144817	147736	NA
6	4	18	4	4	1	1	NA	1.016	1	ზ	norm_o.wav	3164	871	152933	153949	155849	NA
6	4	19	3	3	1	1	NA	0.774	1	ቐ	norm_ü.wav	3052	1262	160945	161719	164240	NA
6	4	20	2	1	0	2	NA	1.288	1	Ⴏ	norm_ei.wav	2863	1760	169147	170435	172951	NA
6	4	21	3	3	1	1	NA	1.145	1	ቐ	norm_ü.wav	2760	1769	177755	178900	181565	NA
6	4	22	4	3	0	2	NA	1.17	1	ზ	norm_ü.wav	2869	1931	186469	187639	190438	NA
6	4	23	1	1	1	1	NA	1.901	1	Ⴕ	norm_ei.wav	2398	1205	194869	196770	198103	NA
6	4	24	4	3	0	2	NA	1.07	1	ზ	norm_ü.wav	4089	1067	204222	205292	207334	NA
6	4	25	1	2	0	2	NA	1.045	1	Ⴕ	norm_l.wav	2301	1101	211679	212724	214817	NA
6	4	26	2	1	0	2	NA	1.166	1	Ⴏ	norm_ei.wav	1752	1667	218597	219763	222298	NA
6	4	27	4	4	1	1	NA	1.19	1	ზ	norm_o.wav	3269	2163	227598	228788	231790	NA
6	4	28	3	3	1	1	NA	1.442	1	ቐ	norm_ü.wav	3162	775	236985	238427	239789	NA
6	4	30	4	3	0	2	NA	0.909	1	ზ	norm_ü.wav	3929	1433	253965	254874	257443	NA
6	4	31	2	2	1	1	NA	0.949	1	Ⴏ	norm_l.wav	2873	1353	262349	263298	265736	NA
6	4	32	1	2	0	2	NA	0.99	1	Ⴕ	norm_l.wav	3788	1483	271567	272557	275093	NA
