"subjID","block","trial","vStim1","vStim2","aStim","resp","RT","fb","iti","feedJitter","vSymbols","aFile","stimOnset","respOnset","feedbackOnset","response","vStimNassoc","assoc_active","assoc_inactive","deltas","drift"
"biokurs19-15",1,1,1,3,1,1,0.878,1,3164,1968,"02","t_sl_cut.wav",8211,9089,12193,2,3,0.5,0.5,0.602424407219377,"0.725830332827233"
"biokurs19-15",1,2,7,3,3,1,1.211,0,2874,1733,"62","d_sh_retr_cut.wav",17074,18285,20829,1,7,0.535,0.5,0.623509261472055,"0.751234394476186"
"biokurs19-15",1,3,4,2,2,1,1.082,0,3271,1421,"31","s_dent_cut.wav",26119,27201,29566,1,4,0.5,0.5,0.602424407219377,"0.725830332827233"
"biokurs19-15",1,4,3,8,3,2,1.366,0,2443,2482,"27","d_sh_retr_cut.wav",34020,35386,38521,1,8,0.57245,0.5,0.646070055522421,"0.778416740440566"
"biokurs19-15",1,5,5,7,5,1,1.4,1,2398,2509,"46","s_palat_cut.wav",42935,44335,47454,2,7,0.5,0.535,0.623509261472055,"0.751234394476186"
"biokurs19-15",1,6,6,2,2,2,1.728,1,3082,2563,"51","s_dent_cut.wav",52561,54289,57162,2,6,0.535,0.5,0.623509261472055,"0.751234394476186"
"biokurs19-15",1,7,2,4,4,1,1.342,0,2274,1626,"13","s_alv_cut.wav",61460,62802,65114,1,2,0.535,0.56755,0.664203030179724,"0.800264233458666"
"biokurs19-15",1,8,2,6,2,1,1.35,1,3374,1861,"15","s_dent_cut.wav",70507,71857,74380,2,6,0.5978215,0.535,0.682439320622866,"0.822236206378846"
"biokurs19-15",1,9,6,1,1,2,0.848,1,2685,1850,"50","t_sl_cut.wav",79080,79928,82956,2,6,0.535,0.57245,0.667154909775099,"0.803820802089519"
"biokurs19-15",1,10,5,8,5,1,1.141,1,2316,1642,"47","s_palat_cut.wav",87298,88439,90961,2,8,0.535,0.535,0.644594115724734,"0.77663845612514"
"biokurs19-15",1,11,6,4,4,2,0.957,1,2863,1823,"53","s_alv_cut.wav",95845,96802,99711,2,6,0.57245,0.6125215,0.713855753459356,"0.860088258235786"
"biokurs19-15",1,12,2,7,2,2,1.302,0,3050,2549,"16","s_dent_cut.wav",104779,106081,109362,1,7,0.625973995,0.57245,0.721959864785353,"0.869852487158993"
"biokurs19-15",1,13,8,3,3,2,1.61,1,3332,2260,"72","d_sh_retr_cut.wav",114714,116324,119011,2,8,0.6125215,0.57245,0.713855753459356,"0.860088258235786"
"biokurs19-15",1,14,1,7,1,1,0.819,1,4089,2358,"06","t_sl_cut.wav",125125,125944,129509,2,7,0.56755,0.6023785,0.704793483101555,"0.849169592539066"
"biokurs19-15",1,15,4,8,4,1,1.106,1,3052,2016,"37","s_alv_cut.wav",134577,135683,138607,2,8,0.6023785,0.6125215,0.731885412330821,"0.881811271351805"
"biokurs19-15",1,16,3,7,3,1,1.307,1,2608,1584,"26","d_sh_retr_cut.wav",143235,144542,146833,2,7,0.639644995,0.644544995,0.773627393482808,"0.932104047855101"
"biokurs19-15",1,17,1,2,2,2,0.924,1,2548,2140,"01","s_dent_cut.wav",151406,152330,155584,2,1,0.66979217465,0.5978215,0.763641416534203,"0.920072455367562"
"biokurs19-15",1,18,8,1,1,2,0.686,1,2760,2253,"70","t_sl_cut.wav",160365,161051,164640,2,8,0.639669005,0.655398005,0.780179975808621,"0.93999891890187"
"biokurs19-15",1,19,5,3,5,1,0.974,1,2286,998,"42","s_palat_cut.wav",168940,169914,171954,2,3,0.56755,0.66486984535,0.74243979478037,"0.894527706533278"
"biokurs19-15",1,20,5,4,4,1,0.992,0,2301,1600,"43","s_alv_cut.wav",176279,177271,179898,1,5,0.630212005,0.5978215,0.739797356295159,"0.891343967657144"
"biokurs19-15",1,21,4,1,1,2,0.671,1,2516,1211,"30","t_sl_cut.wav",184441,185112,187687,2,4,0.66489217465,0.67432684535,0.806778224260415,"0.972045787015161"
"biokurs19-15",1,22,2,3,2,1,1.006,1,2873,1989,"12","s_dent_cut.wav",192585,193591,196589,2,3,0.6929067224245,0.7114107345245,0.845995111550325,"1.01929620717239"
"biokurs19-15",1,23,3,4,3,1,1.093,1,2192,1869,"23","d_sh_retr_cut.wav",200793,201886,204683,2,4,0.761209485941215,0.7215297245245,0.893238289925736,"1.07621709462832"
"biokurs19-15",1,24,6,5,5,2,0.841,1,3162,1346,"54","s_palat_cut.wav",209870,210711,213227,2,6,0.625973995,0.655398005,0.771929767527508,"0.930058665235498"
"biokurs19-15",1,25,8,4,4,2,1.22,1,3221,2350,"73","s_alv_cut.wav",218462,219682,222835,2,8,0.772036805241215,0.70127586535,0.88755951222971,"1.0693750260538"
"biokurs19-15",1,26,3,2,3,1,1,1,3015,2175,"21","d_sh_retr_cut.wav",227874,228874,232065,2,2,0.77792482192533,0.714403251854785,0.899014855223821,"1.08317698247924"
"biokurs19-15",1,27,4,5,5,2,0.902,1,1892,1933,"34","s_palat_cut.wav",235978,236880,239947,2,4,0.65215581535,0.78799422887433,0.867581536698802,"1.0453045859205"
"biokurs19-15",1,28,7,1,1,2,0.768,1,3057,1510,"60","t_sl_cut.wav",245018,245786,248573,2,7,0.6883497224245,0.68966314465,0.83014858458803,"1.00020353794889"
"biokurs19-15",1,29,2,8,2,1,0.998,1,2720,1982,"17","s_dent_cut.wav",253321,254319,257347,2,8,0.76441147948462,0.7503651759245,0.91253842870459,"1.09947084395452"
"biokurs19-15",1,30,4,6,4,1,1.061,1,2698,2304,"35","s_alv_cut.wav",262064,263125,266398,2,6,0.843153824895533,0.70127586535,0.930402140638172,"1.12099391609918"
"biokurs19-15",1,31,3,2,2,1,1.691,0,3440,1588,"21","s_dent_cut.wav",271855,273546,275460,1,3,0.780902675920697,0.793470084390557,0.948440576872841,"1.14272750461085"
"biokurs19-15",1,32,1,4,1,1,0.655,1,2990,2704,"03","t_sl_cut.wav",280472,281127,285199,2,4,0.710165241854785,0.854133057152846,0.942371475493952,"1.13541515500978"
"biokurs19-15",1,33,1,5,5,2,0.828,1,3788,1426,"04","s_palat_cut.wav",291012,291840,294463,2,1,0.6765049082755,0.73045367492495,0.847586190466746,"1.02121321671852"
"biokurs19-15",1,34,3,4,4,2,1.364,1,2872,2011,"23","s_alv_cut.wav",299358,300722,303404,2,3,0.913922371153545,0.807927178483218,1.03728419426088,"1.24977063169128"
"biokurs19-15",1,35,5,2,5,2,0.935,0,1752,1124,"41","s_palat_cut.wav",307181,308116,310321,1,2,0.699149564696215,0.835565863235145,0.924550031921982,"1.11394300985051"
"biokurs19-15",1,36,1,3,3,2,0.869,1,3569,2258,"02","d_sh_retr_cut.wav",315913,316782,320202,2,1,0.864482080977043,0.781585432169697,0.991631245850499,"1.19476573092339"
"biokurs19-15",1,37,8,5,5,2,0.832,1,3929,2675,"74","s_palat_cut.wav",326158,326990,330859,2,8,0.74809003422495,0.802890738239215,0.934348672460377,"1.12574889028631"
"biokurs19-15",1,38,1,4,4,2,1.152,1,3282,2168,"03","s_alv_cut.wav",336160,337312,340343,2,1,0.919947805172797,0.836296412421575,1.05800438171675,"1.27473532498243"
"biokurs19-15",1,39,3,1,1,2,0.93,1,3043,1857,"20","t_sl_cut.wav",345414,346344,349312,2,3,0.894837161291086,0.87396833530865,1.06557160277547,"1.28385268230362"
"biokurs19-15",1,40,3,1,3,1,0.986,1,2097,1333,"20","d_sh_retr_cut.wav",353428,354414,356806,2,1,0.935146118780256,0.90219856000071,1.1068612789723,"1.33360049971793"
"biokurs19-15",2,41,13,16,13,1,1.013,1,2097,2675,"EH","k_click_cut.wav",7151,8164,11856,2,16,0.5,0.5,0.602424407219377,"0.725830332827233"
"biokurs19-15",2,42,15,12,12,1,1.095,0,3015,2549,"GD","p_cut.wav",16890,17985,21455,1,15,0.5,0.5,0.602424407219377,"0.725830332827233"
"biokurs19-15",2,43,10,16,10,1,1.119,1,2274,2509,"BH","b_sh_cut.wav",25749,26868,30286,2,16,0.5,0.535,0.623509261472055,"0.751234394476186"
"biokurs19-15",2,44,16,9,9,1,1.224,0,3440,1421,"HA","k_asp_cut.wav",35751,36975,39207,1,16,0.5,0.57245,0.646070055522421,"0.778416740440566"
"biokurs19-15",2,45,10,14,10,1,1.361,1,2398,2253,"BF","b_sh_cut.wav",43615,44976,47879,2,14,0.535,0.5,0.623509261472055,"0.751234394476186"
"biokurs19-15",2,46,11,13,13,2,1.367,1,1892,1626,"CE","k_click_cut.wav",51785,53152,55430,2,11,0.535,0.5,0.623509261472055,"0.751234394476186"
"biokurs19-15",2,47,14,12,12,2,1.381,1,3052,1982,"FD","p_cut.wav",60501,61882,64497,2,14,0.535,0.535,0.644594115724734,"0.77663845612514"
"biokurs19-15",2,48,11,9,9,1,0.861,0,4089,1211,"CA","k_asp_cut.wav",70604,71465,73842,1,11,0.535,0.535,0.644594115724734,"0.77663845612514"
"biokurs19-15",2,49,15,11,11,1,1.331,0,2286,1733,"GC","g_sl_cut.wav",78153,79484,81901,1,15,0.56755,0.535,0.664203030179724,"0.800264233458666"
"biokurs19-15",2,50,10,11,10,1,1.053,1,2872,1510,"BC","b_sh_cut.wav",86792,87845,90336,2,11,0.56755,0.6072785,0.70774536269693,"0.852726161169919"
"biokurs19-15",2,51,11,12,12,2,0.852,1,3271,1124,"CD","p_cut.wav",95636,96488,98786,2,11,0.56755,0.649787995,0.7333541200235,"0.883580842074087"
"biokurs19-15",2,52,11,16,11,2,1.287,0,2873,1333,"CH","g_sl_cut.wav",103682,104969,107031,1,16,0.69527315465,0.6023785,0.78173702882977,"0.941874932388419"
"biokurs19-15",2,53,15,9,9,1,1.34,0,2990,2140,"GA","k_asp_cut.wav",112048,113388,116211,1,15,0.57245,0.56755,0.68676382423009,"0.827446579423046"
"biokurs19-15",2,54,13,9,13,1,1.145,1,2608,2704,"EA","k_click_cut.wav",120840,121985,125557,2,9,0.56755,0.6125215,0.710903873863981,"0.856531689604932"
"biokurs19-15",2,55,10,15,10,1,0.846,1,3788,1642,"BG","b_sh_cut.wav",131371,132217,135038,2,15,0.5978215,0.5978215,0.720284525520998,"0.867833956632552"
"biokurs19-15",2,56,9,15,9,1,0.809,1,2548,998,"AG","k_asp_cut.wav",139606,140415,142625,2,15,0.655398005,0.639669005,0.780179975808621,"0.93999891890187"
"biokurs19-15",2,57,11,9,11,2,1.38,0,3082,2260,"CA","g_sl_cut.wav",147732,149112,152011,1,9,0.7439422754755,0.67952014465,0.857528504643164,"1.03319220216675"
"biokurs19-15",2,58,13,14,13,1,1.363,1,3569,1869,"EF","k_click_cut.wav",157605,158968,161487,2,14,0.5978215,0.57245,0.705000114673231,"0.849418552343225"
"biokurs19-15",2,59,12,15,12,1,1.096,1,2685,1861,"DG","p_cut.wav",166197,167293,170084,2,15,0.5978215,0.68444583535,0.772469139394994,"0.93070852679058"
"biokurs19-15",2,60,11,10,10,1,1.484,0,3057,2016,"CB","b_sh_cut.wav",175156,176640,179199,1,11,0.625973995,0.796018234758785,0.856642826082996,"1.03212509340356"
"biokurs19-15",2,61,12,16,12,1,0.994,1,3221,2258,"DH","p_cut.wav",184440,185434,188721,2,16,0.625973995,0.630212005,0.75675710640728,"0.91177790247291"
"biokurs19-15",2,62,9,14,9,1,1.119,1,2192,2304,"AF","k_asp_cut.wav",192940,194059,197283,2,14,0.7019537345245,0.6125215,0.791871963962974,"0.954085996968074"
"biokurs19-15",2,63,12,13,13,2,1.006,1,2698,1968,"DE","k_click_cut.wav",201997,203003,205978,2,12,0.625973995,0.65215581535,0.769976593349514,"0.927705385642749"
"biokurs19-15",2,64,13,9,9,2,0.986,1,3929,2168,"EA","k_asp_cut.wav",211921,212907,216116,2,13,0.722816973107785,0.65215581535,0.828317167029455,"0.997996956674703"
"biokurs19-15",2,65,13,11,11,2,1.095,1,3332,1346,"EC","g_sl_cut.wav",221476,222571,224840,2,13,0.81029695832567,0.6978067224245,0.908518465901282,"1.09462739653687"
"biokurs19-15",2,66,10,9,10,2,1.481,0,3043,1600,"BA","b_sh_cut.wav",229898,231379,233539,1,9,0.66979217465,0.74221978499024,0.850630467772943,"1.02488111062171"
"biokurs19-15",2,67,9,12,9,1,1.165,1,2720,2358,"AD","k_asp_cut.wav",238286,239451,242670,2,12,0.760264400040923,0.6978067224245,0.878377631634925,"1.05831224810486"
"biokurs19-15",2,68,16,11,11,2,1.341,1,1752,2563,"HC","g_sl_cut.wav",246438,247779,251018,2,16,0.823576171242873,0.67432684535,0.902373336843079,"1.08722344507652"
"biokurs19-15",2,69,14,13,13,2,1.293,1,3282,1857,"FE","k_click_cut.wav",256324,257617,260214,2,14,0.746653192994215,0.655398005,0.844629861842883,"1.01765128768096"
"biokurs19-15",2,70,9,12,12,2,0.66,1,3162,1588,"AD","p_cut.wav",265395,266055,268994,2,9,0.746653192994215,0.777045892038059,0.917913518081275,"1.10594701401753"
"biokurs19-15",2,71,16,13,13,2,1.088,1,2443,2350,"HE","k_click_cut.wav",273458,274546,277827,2,16,0.76438746948462,0.7215297245245,0.895152784778024,"1.07852377148135"
"biokurs19-15",2,72,11,10,11,1,1.335,1,3050,1426,"CB","g_sl_cut.wav",282901,284236,286343,2,10,0.835925839255872,0.7166776268755,0.935326222730942,"1.12692669057085"
"biokurs19-15",2,73,10,12,12,2,0.85,1,2316,1989,"BD","p_cut.wav",290683,291533,294693,2,10,0.76438746948462,0.766845060756785,0.922451849345705,"1.11141501706101"
"biokurs19-15",2,74,15,10,10,2,1.003,1,2760,1850,"GB","b_sh_cut.wav",299464,300467,303336,2,15,0.82052421500976,0.7323570438245,0.935493571835309,"1.12712832094084"
"biokurs19-15",2,75,12,11,12,1,0.737,1,2863,1823,"DC","p_cut.wav",308225,308962,312074,2,11,0.780880346620697,0.847411030507961,0.980922467647155,"1.18186327220101"
"biokurs19-15",2,76,9,10,10,2,1.316,1,2301,2011,"AB","b_sh_cut.wav",316392,317708,320422,2,9,0.833087519959077,0.831439104480723,1.00275146502902,"1.20816391381693"
"biokurs19-15",2,77,11,14,11,1,1.237,1,2516,2482,"CF","g_sl_cut.wav",324963,326200,329462,2,14,0.906729802643518,0.70127586535,0.968701861346394,"1.16713928918781"
"biokurs19-15",2,78,13,11,13,1,0.892,1,2874,1933,"EC","k_click_cut.wav",334352,335244,338317,2,11,0.780880346620697,0.913258716458472,1.02059072082266,"1.22965752001037"
"biokurs19-15",2,79,11,13,11,1,1.002,1,3374,1584,"CE","g_sl_cut.wav",343706,344708,347302,2,13,0.977186826610565,0.796218722357248,1.06834278659649,"1.28719153984497"
"biokurs19-15",2,80,9,11,9,1,1.235,1,3164,2175,"AC","k_asp_cut.wav",352491,353726,356693,2,11,0.889639841794373,0.978783748747826,1.12558397396708,"1.35615851658549"
"biokurs19-15",3,81,20,19,20,1,0.983,1,2516,1989,"LK","r_dent_cut.wav",7576,8559,11589,2,19,0.5,0.5,0.602424407219377,"0.725830332827233"
"biokurs19-15",3,82,19,24,19,2,0.924,0,2548,1861,"KP","n_alv_cut.wav",16149,17073,20030,1,24,0.535,0.5,0.623509261472055,"0.751234394476186"
"biokurs19-15",3,83,17,21,17,1,1.456,1,2990,1584,"IM","n_palat_cut.wav",25035,26491,28660,2,21,0.5,0.5,0.602424407219377,"0.725830332827233"
"biokurs19-15",3,84,18,23,18,1,1.242,1,2874,2304,"JO","r_dent_trill_cut.wav",33559,34801,37896,2,23,0.5,0.5,0.602424407219377,"0.725830332827233"
"biokurs19-15",3,85,22,17,17,2,0.838,1,3162,2350,"NI","n_palat_cut.wav",43074,43912,47453,2,22,0.535,0.5,0.623509261472055,"0.751234394476186"
"biokurs19-15",3,86,20,23,20,2,1.145,0,2398,1982,"LO","r_dent_cut.wav",51875,53020,55867,1,23,0.535,0.535,0.644594115724734,"0.77663845612514"
"biokurs19-15",3,87,23,18,18,2,0.742,1,2685,2358,"OJ","r_dent_trill_cut.wav",60571,61313,64972,2,23,0.535,0.56755,0.664203030179724,"0.800264233458666"
"biokurs19-15",3,88,24,17,17,2,1.021,1,3282,2260,"PI","n_palat_cut.wav",70270,71291,74545,2,24,0.56755,0.535,0.664203030179724,"0.800264233458666"
"biokurs19-15",3,89,19,20,19,1,1.54,1,1892,1823,"KL","n_alv_cut.wav",78462,80002,82304,2,20,0.57245,0.57245,0.689715703825465,"0.831003148053899"
"biokurs19-15",3,90,19,21,21,1,0.953,0,3050,1850,"KM","n_velar_cut.wav",87372,88325,91238,1,19,0.535,0.6023785,0.685184568646564,"0.825543815205539"
"biokurs19-15",3,91,24,18,18,2,0.839,1,3332,1626,"PJ","r_dent_trill_cut.wav",96596,97435,100240,2,24,0.56755,0.57245,0.68676382423009,"0.827446579423046"
"biokurs19-15",3,92,21,19,19,2,0.988,1,3374,2675,"MK","n_alv_cut.wav",105633,106621,110338,2,21,0.630212005,0.57245,0.724512945447393,"0.872928563367818"
"biokurs19-15",3,93,17,18,18,2,0.777,1,2097,2704,"IJ","r_dent_trill_cut.wav",114454,115231,119185,2,17,0.5978215,0.5978215,0.720284525520998,"0.867833956632552"
"biokurs19-15",3,94,21,17,21,2,1.243,0,2286,2509,"MI","n_velar_cut.wav",123497,124740,128022,1,17,0.6125215,0.639669005,0.754350122700358,"0.908877851007252"
"biokurs19-15",3,95,20,19,19,2,1.558,1,2760,1733,"LK","n_alv_cut.wav",132806,134364,136561,2,20,0.65609716465,0.6125215,0.764246847039214,"0.92080190759375"
"biokurs19-15",3,96,22,21,21,1,0.904,0,3271,1211,"NM","n_velar_cut.wav",141851,142755,145106,1,22,0.655398005,0.535,0.717124812517254,"0.864026980166024"
"biokurs19-15",3,97,24,20,20,2,0.939,1,2698,1933,"PL","r_dent_cut.wav",149829,150768,153775,2,24,0.655398005,0.6125215,0.763825656201511,"0.920294436312291"
"biokurs19-15",3,98,22,18,18,2,0.919,1,1752,1421,"NJ","r_dent_trill_cut.wav",157541,158460,160978,2,22,0.625973995,0.56755,0.719007985189978,"0.866295918528139"
"biokurs19-15",3,99,19,17,19,2,1.827,0,3057,2253,"KI","n_alv_cut.wav",166046,167873,170344,1,17,0.6801703631245,0.66489217465,0.810298501991794,"0.976287189466308"
"biokurs19-15",3,100,21,18,18,2,1.102,1,2443,2140,"MJ","r_dent_trill_cut.wav",174801,175903,178960,2,21,0.65215581535,0.70127586535,0.815340277957623,"0.982361767261403"
"biokurs19-15",3,101,22,19,19,2,1.3,1,3569,1600,"NK","n_alv_cut.wav",184550,185850,188180,2,22,0.727782288543215,0.6072785,0.80427320413998,"0.96902761649291"
"biokurs19-15",3,102,20,24,20,1,1.072,1,4089,2563,"LP","r_dent_cut.wav",194296,195368,198885,2,24,0.67952014465,0.655398005,0.804187274989289,"0.968924084857574"
"biokurs19-15",3,103,23,21,21,2,1.532,1,2872,1510,"OM","n_velar_cut.wav",203781,205313,207308,2,23,0.7503651759245,0.6072785,0.817877686683953,"0.985418961157068"
"biokurs19-15",3,104,17,22,17,2,1.211,0,2608,2258,"IN","n_palat_cut.wav",211944,213155,216216,1,22,0.6883497224245,0.649787995,0.806126821197345,"0.971260944806899"
"biokurs19-15",3,105,18,20,20,1,1.635,0,3015,1857,"JL","r_dent_cut.wav",221258,222893,225131,1,18,0.7019537345245,0.6765049082755,0.830417130765217,"1.0005270954921"
"biokurs19-15",3,106,17,21,21,2,1.148,1,2274,1968,"IM","n_velar_cut.wav",229424,230572,233437,2,17,0.767839613609785,0.736534202994215,0.906271504704017,"1.09192014800226"
"biokurs19-15",3,107,21,20,20,2,1.037,1,2873,1124,"ML","r_dent_cut.wav",238325,239362,241464,2,21,0.751090495941215,0.7840908406571,0.924830706674491,"1.11428118049331"
"biokurs19-15",3,108,17,18,17,1,1.308,1,3052,1346,"IJ","n_palat_cut.wav",246540,247848,249900,2,18,0.78809159720381,0.699149564696215,0.895950375349881,"1.07948474753626"
"biokurs19-15",3,109,21,24,21,2,1.385,0,2720,2482,"MP","n_velar_cut.wav",254634,256019,259143,1,24,0.838977199503097,0.70127586535,0.927886039561956,"1.11796239470049"
"biokurs19-15",3,110,19,22,19,1,1.313,1,3221,1642,"KN","n_alv_cut.wav",264380,265693,268045,2,22,0.74683752834519,0.67430283535,0.856129641174605,"1.0315067831751"
"biokurs19-15",3,111,18,21,21,2,1.278,1,3788,998,"JM","n_velar_cut.wav",273854,275132,276877,2,18,0.897705603468314,0.74809003422495,0.991467461441602,"1.19456839547251"
"biokurs19-15",3,112,20,21,20,1,0.82,1,2316,1869,"LM","r_dent_cut.wav",281218,282038,285108,2,21,0.76851416122533,0.904866211225532,1.00808517892625,"1.21459023268257"
"biokurs19-15",3,113,19,17,17,2,1.676,1,2301,2016,"KI","n_palat_cut.wav",289434,291110,293486,2,19,0.802925185399543,0.764558901361027,0.944290671792543,"1.13772749639482"
"biokurs19-15",3,114,24,19,19,2,1.456,1,3440,1588,"PK","n_alv_cut.wav",298946,300402,302551,2,24,0.818078024456299,0.7221865547755,0.92789297610472,"1.11797075218582"
"biokurs19-15",3,115,22,20,20,2,0.706,1,3164,2175,"NL","r_dent_cut.wav",307737,308443,311938,2,22,0.784718169939557,0.7215040338245,0.907385018243226,"1.09326176346983"
"biokurs19-15",3,116,23,17,17,1,1.225,0,3082,2168,"OI","n_palat_cut.wav",317042,318267,321229,1,23,0.816720422421575,0.649787995,0.88346046404742,"1.06443629271104"
"biokurs19-15",3,117,18,20,18,2,0.998,0,2192,1333,"JL","r_dent_trill_cut.wav",325449,326447,328803,1,20,0.800456336620697,0.799787898043788,0.964026184473978,"1.16150580545138"
"biokurs19-15",3,118,20,17,17,2,1.605,1,3043,1426,"LI","n_palat_cut.wav",333874,335479,337341,2,20,0.873890851991086,0.813802745180723,1.01670781484417,"1.22497920534561"
"biokurs19-15",3,119,18,19,18,1,1.092,1,2863,2549,"JK","r_dent_trill_cut.wav",342227,343319,346819,2,19,0.856488280184146,0.830812562744358,1.01647121010196,"1.22469413240247"
"biokurs19-15",3,120,24,21,21,2,1.15,1,3929,2011,"PM","n_velar_cut.wav",352769,353919,356806,2,24,0.96820684601132,0.772739613609785,1.04878863893792,"1.26363174822118"
