"subjID","block","trial","vStim1","vStim2","aStim","resp","RT","fb","iti","feedJitter","vSymbols","aFile","stimOnset","respOnset","feedbackOnset","response","vStimNassoc","assoc_active","assoc_inactive","deltas","drift"
"biokurs19-08",1,1,1,3,1,1,0.843,1,3043,1733,"02","s_palat_cut.wav",8100,8943,11847,2,3,0.5,0.5,0.415673527564831,"0.34556896303638"
"biokurs19-08",1,2,7,3,3,2,0.915,1,3332,1333,"62","s_dent_cut.wav",17197,18112,20549,2,7,0.535,0.5,0.4302221010296,"0.357663876742653"
"biokurs19-08",1,3,4,2,2,1,1.29,0,1752,2258,"31","s_alv_cut.wav",24329,25619,28621,1,4,0.5,0.5,0.415673527564831,"0.34556896303638"
"biokurs19-08",1,4,3,8,3,2,1.283,0,3440,1642,"27","s_dent_cut.wav",34088,35371,37747,1,8,0.56755,0.5,0.443752274351835,"0.368912146489487"
"biokurs19-08",1,5,5,7,5,1,1.046,1,3271,1850,"46","t_sl_cut.wav",43039,44085,46915,2,7,0.5,0.535,0.4302221010296,"0.357663876742653"
"biokurs19-08",1,6,6,2,2,2,1.2,1,2698,1588,"51","s_alv_cut.wav",51639,52839,55240,2,6,0.535,0.5,0.4302221010296,"0.357663876742653"
"biokurs19-08",1,7,2,4,4,2,1.336,1,2608,1989,"13","d_sh_retr_cut.wav",59869,61205,63890,2,2,0.535,0.56755,0.458300847816604,"0.381007060195761"
"biokurs19-08",1,8,2,6,2,2,1.369,0,2874,2482,"15","s_alv_cut.wav",68775,70144,73272,1,6,0.6072785,0.535,0.474814933556463,"0.394735996743751"
"biokurs19-08",1,9,6,1,1,1,1.265,0,2872,1823,"50","s_palat_cut.wav",78160,79425,82017,1,6,0.535,0.56755,0.458300847816604,"0.381007060195761"
"biokurs19-08",1,10,5,8,5,2,1.762,0,3788,1968,"47","t_sl_cut.wav",87823,89585,91816,1,8,0.535,0.535,0.444770674494369,"0.369758790448927"
"biokurs19-08",1,11,6,4,4,2,1.16,1,3221,1346,"53","d_sh_retr_cut.wav",97052,98212,100421,2,6,0.56755,0.5978215,0.484414082328518,"0.402716220807151"
"biokurs19-08",1,12,2,7,2,1,1.184,1,2516,1426,"16","s_alv_cut.wav",104951,106135,108412,2,7,0.649787995,0.57245,0.508051978905416,"0.422367516515814"
"biokurs19-08",1,13,8,3,3,1,1.165,0,2192,2509,"72","s_dent_cut.wav",112627,113792,117157,1,8,0.6072785,0.56755,0.488345106878699,"0.405984266490586"
"biokurs19-08",1,14,1,7,1,2,1.495,0,2398,1857,"06","s_palat_cut.wav",121580,123075,125447,1,7,0.57245,0.6125215,0.492561283468789,"0.409489372482664"
"biokurs19-08",1,15,4,8,4,1,0.806,1,3057,2168,"37","d_sh_retr_cut.wav",130524,131330,134719,2,8,0.5978215,0.5978215,0.496997143518197,"0.413177111671707"
"biokurs19-08",1,16,3,7,3,2,1.495,0,3282,2016,"26","s_dent_cut.wav",140029,141524,144060,1,7,0.649787995,0.639644995,0.535983159511767,"0.445588021259199"
"biokurs19-08",1,17,1,2,2,1,1.251,0,3164,2011,"01","s_alv_cut.wav",149244,150495,153282,1,1,0.67430283535,0.6125215,0.534898810831203,"0.444686551176878"
"biokurs19-08",1,18,8,1,1,2,1.409,1,2990,1933,"70","s_palat_cut.wav",158297,159706,162271,2,8,0.639644995,0.639669005,0.531776963243074,"0.442091212377924"
"biokurs19-08",1,19,5,3,5,2,0.862,0,3082,2140,"42","t_sl_cut.wav",167367,168229,171544,1,3,0.57245,0.69527315465,0.526958955668981,"0.438085775969609"
"biokurs19-08",1,20,4,1,1,2,1.18,1,2097,2260,"30","s_palat_cut.wav",186382,187562,190669,2,4,0.66486984535,0.625973995,0.536569612653617,"0.446075567351647"
"biokurs19-08",1,21,2,3,2,1,1.076,1,2720,1510,"12","s_alv_cut.wav",195414,196490,198950,2,3,0.7215040338245,0.7166040338245,0.597783453499102,"0.496965513671717"
"biokurs19-08",1,22,3,4,3,1,1.335,1,3929,2350,"23","s_dent_cut.wav",204907,206242,209284,2,4,0.766766316192215,0.66979217465,0.597139335441593,"0.496430028021451"
"biokurs19-08",1,23,6,5,5,2,1.073,1,2301,1982,"54","t_sl_cut.wav",213608,214681,217609,2,6,0.6125215,0.639669005,0.520502444396537,"0.432718174336851"
"biokurs19-08",1,24,8,4,4,1,0.635,0,3015,1421,"73","d_sh_retr_cut.wav",222643,223278,226079,1,8,0.7166776268755,0.68444583535,0.582409932097122,"0.484184781927208"
"biokurs19-08",1,25,3,2,3,2,1.621,0,2873,1861,"21","s_dent_cut.wav",230963,232584,234857,1,2,0.78309267405876,0.740998751456785,0.633524459175358,"0.526678693488045"
"biokurs19-08",1,26,4,5,5,1,1.768,0,2274,1211,"34","t_sl_cut.wav",239146,240914,242385,1,4,0.639644995,0.766845060756785,0.584640682961278,"0.486039310088852"
"biokurs19-08",1,27,7,1,1,2,1.061,1,2685,2304,"60","s_palat_cut.wav",247095,248156,251442,2,7,0.6883289561755,0.66486984535,0.562488919326606,"0.467623506625239"
"biokurs19-08",1,28,2,8,2,2,1.215,0,2863,1626,"17","s_alv_cut.wav",256322,257537,259973,1,8,0.75912883885481,0.7065346268755,0.609237503023013,"0.50648780401273"
"biokurs19-08",1,29,4,6,4,1,0.764,1,2548,1124,"35","d_sh_retr_cut.wav",264540,265304,267685,2,6,0.78316590650381,0.68444583535,0.610047349831939,"0.507161067772437"
"biokurs19-08",1,30,3,2,2,1,1.209,0,2760,1869,"21","s_alv_cut.wav",272468,273677,276359,1,3,0.812267857574647,0.837909161242873,0.685934902518294,"0.570249961219235"
"biokurs19-08",1,31,1,4,1,1,0.907,1,2316,2175,"03","s_palat_cut.wav",280700,281607,284896,2,4,0.710145929243215,0.798344293048543,0.627039451997071,"0.521287401867881"
"biokurs19-08",1,32,1,5,5,1,1.635,0,3052,1584,"04","t_sl_cut.wav",289969,291604,293567,1,1,0.68442014465,0.73043571419619,0.588118125842364,"0.488930271987425"
"biokurs19-08",1,33,3,4,4,2,0.81,1,1892,2704,"23","d_sh_retr_cut.wav",297485,298295,302207,2,3,0.854228393561941,0.849255519955872,0.708093167481892,"0.588671169543505"
"biokurs19-08",1,34,5,2,5,2,1.098,0,3569,998,"41","t_sl_cut.wav",307802,308900,310813,1,2,0.7323295547755,0.869126607604872,0.665682932257085,"0.553413545382005"
"biokurs19-08",1,35,1,3,3,1,1.778,0,3374,2549,"02","s_dent_cut.wav",316211,317989,320773,1,1,0.908703406352783,0.749305214202457,0.689190292039095,"0.572956319710653"
"biokurs19-08",1,36,8,5,5,2,1.542,1,2286,2358,"74","t_sl_cut.wav",325079,326621,329453,2,8,0.783592623609785,0.727077202994215,0.627945455810236,"0.522040605469892"
"biokurs19-08",1,37,1,4,4,2,1.061,1,3050,2675,"03","d_sh_retr_cut.wav",334519,335580,339210,2,1,0.864432406012606,0.766853849208285,0.67808251217569,"0.563721899632182"
"biokurs19-08",1,38,3,1,1,2,1.781,1,2443,1600,"20","s_palat_cut.wav",343672,345453,347291,2,3,0.820533618652865,0.972312644797478,0.745238730709829,"0.619552024144183"
"biokurs19-08",1,39,3,1,3,1,1.016,1,3162,2253,"20","s_dent_cut.wav",352480,353496,356761,2,1,1.0403745299333,0.833096265347164,0.77875221426392,"0.647413360004013"
"biokurs19-08",2,40,16,11,11,1,0.579,0,2863,2253,"hc","a_uml.wav",7920,8499,12186,1,16,0.5,0.5,0.415673527564831,"0.34556896303638"
"biokurs19-08",2,41,9,10,10,2,1.611,1,3929,2175,"ab","a_low.wav",18129,19740,22330,2,9,0.5,0.5,0.415673527564831,"0.34556896303638"
"biokurs19-08",2,42,15,9,9,1,1.326,0,2443,2675,"ga","u.wav",26794,28120,31506,1,15,0.535,0.5,0.4302221010296,"0.357663876742653"
"biokurs19-08",2,43,12,13,13,1,1.555,0,3374,2011,"de","i.wav",36899,38454,40922,1,12,0.5,0.5,0.415673527564831,"0.34556896303638"
"biokurs19-08",2,44,11,10,10,2,1.117,1,3050,2140,"cb","a_low.wav",45997,47114,50171,2,11,0.535,0.535,0.444770674494369,"0.369758790448927"
"biokurs19-08",2,45,9,14,9,1,1.348,1,3282,1421,"af","u.wav",55473,56821,58910,2,14,0.57245,0.5,0.445789074636902,"0.370605434408365"
"biokurs19-08",2,46,12,11,12,2,1.567,0,3052,1124,"dc","o.wav",63972,65539,67111,1,11,0.535,0.57245,0.460337648101672,"0.382700348114639"
"biokurs19-08",2,47,15,10,10,2,1.636,1,2286,1933,"gb","a_low.wav",71420,73056,75369,2,15,0.56755,0.535,0.458300847816604,"0.381007060195761"
"biokurs19-08",2,48,13,16,13,2,1.435,0,1752,2016,"eh","i.wav",79135,80570,83185,1,16,0.535,0.535,0.444770674494369,"0.369758790448927"
"biokurs19-08",2,49,14,11,11,1,1.023,0,3164,2304,"fc","a_uml.wav",88369,89392,92700,1,14,0.6023785,0.535,0.472778133271396,"0.393042708824873"
"biokurs19-08",2,50,14,10,10,2,1.217,1,3332,2258,"fb","a_low.wav",98048,99265,102343,2,14,0.5978215,0.56755,0.484414082328518,"0.402716220807151"
"biokurs19-08",2,51,11,13,11,1,1.965,1,2274,1426,"ce","a_uml.wav",106644,108609,110115,2,13,0.644544995,0.57245,0.505872602600393,"0.420555698442614"
"biokurs19-08",2,52,9,16,9,1,1.843,1,3440,1733,"ah","u.wav",115579,117422,119329,2,16,0.6023785,0.56755,0.486308306593631,"0.404290978571707"
"biokurs19-08",2,53,12,14,12,2,0.978,0,3271,2482,"df","o.wav",133703,134681,138212,1,14,0.57245,0.6072785,0.490381907163766,"0.407677554409464"
"biokurs19-08",2,54,12,10,10,2,0.888,1,2192,1600,"db","a_low.wav",142420,143308,146041,2,12,0.625973995,0.6125215,0.514809791279801,"0.427985603932378"
"biokurs19-08",2,55,13,12,12,2,1.081,1,2398,1626,"ed","o.wav",150466,151547,154102,2,13,0.655398005,0.6125215,0.527040573311604,"0.43815362855645"
"biokurs19-08",2,56,10,13,13,2,1.122,1,4089,2549,"be","i.wav",160210,161332,164785,2,10,0.655398005,0.65215581535,0.543515508985755,"0.451850017812606"
"biokurs19-08",2,57,13,11,11,2,1.256,1,2760,2509,"ec","a_uml.wav",169566,170822,174097,2,13,0.66942684535,0.67952014465,0.56072155383126,"0.466154212525346"
"biokurs19-08",2,58,11,13,13,1,1.054,0,2548,1850,"ce","i.wav",178670,179724,182540,1,11,0.7270865547755,0.6925669661755,0.590112386973534,"0.490588195105982"
"biokurs19-08",2,59,12,15,12,2,1.076,0,2720,1857,"dg","o.wav",195979,197055,199863,1,15,0.67952014465,0.57245,0.520410846432517,"0.432642024639207"
"biokurs19-08",2,60,11,16,11,1,1.115,1,2316,2350,"ch","a_uml.wav",204198,205313,208569,2,16,0.714087278543215,0.6072785,0.549256774370507,"0.456623001882938"
"biokurs19-08",2,61,9,13,9,1,1.403,1,3569,2563,"ae","u.wav",214162,215565,218738,2,13,0.630212005,0.777982613609785,0.585349224615341,"0.486628354106394"
"biokurs19-08",2,62,10,11,10,1,0.816,1,2872,1333,"bc","a_low.wav",223634,224450,226983,2,11,0.6978067224245,0.73410116904519,0.595206204395125,"0.49482292521879"
"biokurs19-08",2,63,13,10,13,1,1.3,1,3043,1823,"eb","i.wav",232054,233354,235918,2,10,0.83244139656247,0.718960251854785,0.644876595867493,"0.536116258896481"
"biokurs19-08",2,64,16,10,10,2,1.786,1,3221,1211,"hb","a_low.wav",241157,242943,244391,2,16,0.76928746948462,0.649787995,0.589872104203022,"0.490388436732319"
"biokurs19-08",2,65,11,9,9,2,1.265,1,1892,2704,"ca","u.wav",248308,249573,253030,2,11,0.65609716465,0.785488250878353,0.599228894958683,"0.498167177172502"
"biokurs19-08",2,66,14,13,13,2,1.891,1,2516,1510,"fe","i.wav",257572,259463,261116,2,14,0.844170498803097,0.634769005,0.614756000600814,"0.511075590722775"
"biokurs19-08",2,67,9,11,9,1,0.934,1,3082,1584,"ac","u.wav",266227,267161,269848,2,11,0.6801703631245,0.840472428439838,0.63209095333558,"0.525486952629634"
"biokurs19-08",2,68,12,10,12,1,1.494,1,3162,1989,"db","o.wav",275036,276530,279053,2,10,0.7270865547755,0.785437346620697,0.628716145619477,"0.522681316173223"
"biokurs19-08",2,69,13,15,13,1,1.335,1,2097,1982,"eg","i.wav",283162,284497,287171,2,15,0.85507856388688,0.6023785,0.60582631902014,"0.503651926237436"
"biokurs19-08",2,70,14,12,12,2,1.087,1,2873,998,"fd","o.wav",292062,293149,295076,2,14,0.746190495941215,0.67920283535,0.592498274185205,"0.492571695413277"
"biokurs19-08",2,71,10,16,10,1,1.511,1,2698,1588,"bh","a_low.wav",299799,301310,303417,2,16,0.840417960884146,0.69527315465,0.638346143244048,"0.530687186339316"
"biokurs19-08",2,72,16,12,12,2,0.847,1,3057,2358,"hd","o.wav",308495,309342,312898,2,16,0.76395716122533,0.7439422754755,0.626793878066455,"0.521083244703847"
"biokurs19-08",2,73,13,14,13,1,0.953,1,2301,1861,"ef","i.wav",317215,318168,321095,2,14,0.865223064414799,0.7267470338245,0.661739826512859,"0.550135456033478"
"biokurs19-08",2,74,9,11,11,2,1.417,1,2990,1968,"ac","a_uml.wav",326100,327517,330091,2,9,0.899305498430627,0.702558437705785,0.665852433012707,"0.553554459336034"
"biokurs19-08",2,75,9,10,9,2,1.123,0,2608,2260,"ab","u.wav",334713,335836,338987,1,10,0.75173752834519,0.851588703622255,0.666460270679136,"0.554059783390016"
"biokurs19-08",2,76,11,14,11,1,1.426,1,3788,1869,"cf","a_uml.wav",344800,346226,348694,2,14,0.906354113540483,0.777619326192215,0.699983180019172,"0.581928955349234"
"biokurs19-08",2,77,10,12,12,2,1.264,1,2685,1346,"bd","o.wav",353404,354668,356776,2,10,0.780480159939557,0.861977494368698,0.682726167042169,"0.567582388430468"
"biokurs19-08",3,78,21,24,21,1,1.137,1,3374,1588,"EH","g_sl_cut.wav",8425,9562,12051,2,24,0.5,0.5,0.415673527564831,"0.34556896303638"
"biokurs19-08",3,79,23,20,20,2,0.725,1,2286,2358,"GD","b_sh_cut.wav",16351,17076,20750,2,23,0.5,0.5,0.415673527564831,"0.34556896303638"
"biokurs19-08",3,80,18,24,18,1,1.014,1,2301,1421,"BH","k_click_cut.wav",25067,26081,28507,2,24,0.5,0.535,0.4302221010296,"0.357663876742653"
"biokurs19-08",3,81,24,17,17,1,1.044,0,2398,1211,"HA","p_cut.wav",32915,33959,36155,1,24,0.5,0.57245,0.445789074636902,"0.370605434408365"
"biokurs19-08",3,82,18,22,18,1,1.063,1,2872,2563,"BF","k_click_cut.wav",41052,42115,45631,2,22,0.535,0.5,0.4302221010296,"0.357663876742653"
"biokurs19-08",3,83,19,21,21,2,1.003,1,2316,1933,"CE","g_sl_cut.wav",49971,50974,53926,2,19,0.535,0.5,0.4302221010296,"0.357663876742653"
"biokurs19-08",3,84,22,20,20,1,1.483,0,2097,1968,"FD","b_sh_cut.wav",58037,59520,62050,1,22,0.535,0.535,0.444770674494369,"0.369758790448927"
"biokurs19-08",3,85,19,17,17,2,1.214,1,3052,1124,"CA","p_cut.wav",67116,68330,70255,2,19,0.535,0.535,0.444770674494369,"0.369758790448927"
"biokurs19-08",3,86,23,19,19,2,1.142,1,2873,2253,"GC","k_asp_cut.wav",75151,76293,79419,2,23,0.57245,0.535,0.460337648101672,"0.382700348114639"
"biokurs19-08",3,87,18,19,18,1,0.744,1,3569,1642,"BC","k_click_cut.wav",85003,85747,88657,2,19,0.56755,0.6023785,0.486308306593631,"0.404290978571707"
"biokurs19-08",3,88,19,20,20,1,1.167,0,3282,1989,"CD","b_sh_cut.wav",93960,95127,97964,1,19,0.57245,0.644544995,0.505872602600393,"0.420555698442614"
"biokurs19-08",3,89,19,24,19,1,1.629,1,3043,2304,"CH","k_asp_cut.wav",103019,104648,107346,2,24,0.66942684535,0.6023785,0.528655814277442,"0.439496454376724"
"biokurs19-08",3,90,23,17,17,2,0.949,1,3164,2260,"GA","p_cut.wav",112527,113476,116831,2,23,0.56755,0.57245,0.473867821423907,"0.393948617861473"
"biokurs19-08",3,91,21,17,21,1,1.423,1,3162,2258,"EA","g_sl_cut.wav",122018,123441,126287,2,17,0.56755,0.5978215,0.484414082328518,"0.402716220807151"
"biokurs19-08",3,92,18,23,18,1,0.78,1,2192,998,"BG","k_click_cut.wav",130506,131286,133525,2,23,0.5978215,0.6125215,0.5031075443734,"0.418256975428341"
"biokurs19-08",3,93,17,23,17,1,0.917,1,3015,1333,"AG","p_cut.wav",138565,139482,141913,2,23,0.639669005,0.655398005,0.538325072479538,"0.447534963708325"
"biokurs19-08",3,94,19,17,19,1,1.13,1,2863,2704,"CA","k_asp_cut.wav",146804,147934,151533,2,17,0.6925669661755,0.66489217465,0.56425982959206,"0.469095747659323"
"biokurs19-08",3,95,21,22,21,1,1.727,1,3050,1861,"EF","g_sl_cut.wav",156609,158336,160486,2,22,0.5978215,0.56755,0.484414082328518,"0.402716220807151"
"biokurs19-08",3,96,20,23,20,1,1.188,1,2548,1600,"DG","b_sh_cut.wav",165049,166237,168669,2,23,0.6125215,0.70127586535,0.546110785360415,"0.454007593183927"
"biokurs19-08",3,97,19,18,18,2,1.184,1,1892,2016,"CB","k_click_cut.wav",172589,173773,176641,2,19,0.625973995,0.714087278543215,0.557027996726728,"0.46308358470354"
"biokurs19-08",3,98,20,24,20,1,0.83,1,2720,1426,"DH","b_sh_cut.wav",181381,182211,184833,2,24,0.639644995,0.644544995,0.533803783206745,"0.443776203185999"
"biokurs19-08",3,99,17,22,17,1,0.959,1,1752,2482,"AF","p_cut.wav",188609,189568,193107,2,22,0.7114346268755,0.6072785,0.548154137294387,"0.455706327796829"
"biokurs19-08",3,100,20,21,21,2,1.258,1,3788,1733,"DE","g_sl_cut.wav",198912,200170,202669,2,20,0.625973995,0.66486984535,0.536569612653617,"0.446075567351647"
"biokurs19-08",3,101,21,17,17,1,1.426,0,3929,2350,"EA","p_cut.wav",208617,210043,212993,1,21,0.731634202994215,0.65215581535,0.575204878334142,"0.478194881699304"
"biokurs19-08",3,102,21,19,19,2,1.503,1,2990,1626,"EC","k_asp_cut.wav",218007,219510,221656,2,21,0.76407338804124,0.6765049082755,0.598810262163313,"0.497819148030891"
"biokurs19-08",3,103,18,17,18,1,0.732,1,2443,1857,"BA","k_click_cut.wav",226118,226850,229994,2,17,0.65215581535,0.78284859720381,0.59649334623734,"0.49589298679885"
"biokurs19-08",3,104,17,20,17,1,0.972,1,3332,1850,"AD","p_cut.wav",235345,236317,239214,2,20,0.837647999008077,0.7114107345245,0.643902708172595,"0.5353066202293"
"biokurs19-08",3,105,24,19,19,2,1.121,1,3440,2140,"HC","k_asp_cut.wav",244680,245801,248837,2,24,0.780588250878353,0.68966314465,0.611144583986386,"0.508073250155524"
"biokurs19-08",3,106,22,21,21,1,1.152,0,2274,1584,"FE","g_sl_cut.wav",253131,254283,256743,1,22,0.723860251854785,0.649787995,0.570989212403374,"0.474690200242349"
"biokurs19-08",3,107,24,21,21,2,1.346,1,2874,2549,"HE","g_sl_cut.wav",270265,271611,274828,2,24,0.77453046948462,0.7379395647755,0.628693754477004,"0.522662701362867"
"biokurs19-08",3,108,19,18,19,1,0.776,1,4089,2675,"CB","k_asp_cut.wav",280938,281714,285639,2,18,0.795947073316869,0.6765049082755,0.612059309358325,"0.508833704399738"
"biokurs19-08",3,109,18,20,20,2,0.967,1,2516,2168,"BD","b_sh_cut.wav",290174,291141,294359,2,18,0.761209485941215,0.723860251854785,0.617304176589441,"0.513194009326872"
"biokurs19-08",3,110,23,18,18,1,0.758,0,3271,2175,"GB","k_click_cut.wav",299658,300416,303859,1,23,0.77453046948462,0.7503651759245,0.633858752095458,"0.526956606922721"
"biokurs19-08",3,111,20,19,20,2,1.408,0,3057,2011,"DC","b_sh_cut.wav",308937,310345,312975,1,19,0.77792482192533,0.810230778184688,0.660154240619571,"0.548817283870438"
"biokurs19-08",3,112,17,18,18,2,1.606,1,3221,2509,"AB","k_click_cut.wav",318221,319827,322753,2,17,0.828747602348544,0.849012639077511,0.69740051796159,"0.579781866853268"
"biokurs19-08",3,113,19,22,19,1,0.846,1,2608,1982,"CF","k_asp_cut.wav",327386,328232,331382,2,22,0.82351462371176,0.67430283535,0.622603066856393,"0.517599226145758"
"biokurs19-08",3,114,21,19,21,1,1.317,1,2760,1823,"EC","g_sl_cut.wav",336161,337478,340023,2,19,0.790313336620697,0.835868600051937,0.675960782078921,"0.561958005564454"
"biokurs19-08",3,115,19,21,19,1,0.958,1,2685,1869,"CE","k_asp_cut.wav",344726,345684,348620,2,21,0.894379402055572,0.804991403057248,0.706383457201932,"0.587249806937135"
"biokurs19-08",3,116,17,19,17,1,1.369,1,2698,1346,"AC","p_cut.wav",353343,354712,356702,2,19,0.908443523812937,0.901772843911682,0.749385765170512,"0.622999649030593"
