subjID,block,trial,vStim1,vStim2,aStim,resp,RT,fb,vStimNassoc,stimOnset,respOnset,feedbackOnset,pe,delta,drift,assoc_active,assoc_inactive
biokurs19-03,1,1,1,3,1,1,1.034,1,3,8340,9374,11785,0.5,0.620967270524053,0.771200702124187,0.5,0.5
biokurs19-03,1,2,7,3,3,2,0.884,1,7,15688,16572,19581,0.465,0.642701124992395,0.798192726698534,0.535,0.5
biokurs19-03,1,3,4,2,2,2,1.146,1,4,23874,25020,27113,0.5,0.620967270524053,0.771200702124187,0.5,0.5
biokurs19-03,1,4,3,8,3,1,1.292,1,8,32220,33512,35604,0.43245,0.662913609647952,0.823295309552675,0.56755,0.5
biokurs19-03,1,5,5,7,5,2,1.262,0,7,40492,41754,44107,-0.5,0.642701124992395,0.798192726698534,0.5,0.535
biokurs19-03,1,6,6,2,2,2,1.307,1,6,49405,50712,52764,0.465,0.642701124992395,0.798192726698534,0.535,0.5
biokurs19-03,1,7,2,4,4,2,1.245,1,2,58721,59966,63105,0.465,0.684647464116294,0.850287334127022,0.535,0.56755
biokurs19-03,1,8,2,6,2,1,0.838,1,6,67437,68275,72007,0.3927215,0.709317562323309,0.880925981221363,0.6072785,0.535
biokurs19-03,1,9,6,1,1,2,1.248,1,6,76787,78035,81513,0.465,0.687690203741862,0.854066217567431,0.535,0.57245
biokurs19-03,1,10,5,8,5,1,0.838,1,8,86412,87250,90306,0.465,0.664434979460736,0.82518475127288,0.535,0.535
biokurs19-03,1,11,6,4,4,2,1.655,1,6,96410,98065,101129,0.43245,0.732785778378224,0.910071969356742,0.56755,0.6125215
biokurs19-03,1,12,2,7,2,1,0.668,1,7,106011,106679,110340,0.365230995,0.746600750834045,0.927229260833254,0.634769005,0.56755
biokurs19-03,1,13,8,3,3,1,1.287,0,8,115519,116806,119155,-0.5978215,0.726700299127089,0.902514202475926,0.5978215,0.57245
biokurs19-03,1,14,1,7,1,1,1.208,1,7,123722,124930,127331,0.43245,0.729530046978867,0.906028564075505,0.56755,0.6072785
biokurs19-03,1,15,4,8,4,1,1.517,1,8,131960,133477,135418,0.4021785,0.745284918082968,0.925595082689449,0.5978215,0.6023785
biokurs19-03,1,16,3,7,3,1,1.731,1,7,140662,142393,145212,0.360330995,0.800710593748133,0.994430143758947,0.639669005,0.649787995
biokurs19-03,1,17,1,2,2,2,0.898,1,1,150294,151192,154171,0.33966482535,0.781274116149029,0.970291310872312,0.66033517465,0.5978215
biokurs19-03,1,18,8,1,1,2,0.723,1,8,158294,159017,162254,0.360330995,0.797454862348776,0.990386738477711,0.639669005,0.644544995
biokurs19-03,1,19,5,3,5,2,1.127,0,3,167837,168964,171990,-0.56755,0.765306253271138,0.950460270417539,0.56755,0.66489217465
biokurs19-03,1,20,4,1,1,2,0.982,1,4,186785,187767,190769,0.33510782535,0.801585641979399,0.995516896382439,0.66489217465,0.625973995
biokurs19-03,1,21,2,3,2,1,0.785,1,3,195227,196012,198244,0.3158882875755,0.852253631097708,1.05844322219392,0.6841117124245,0.6883497224245
biokurs19-03,1,22,3,4,3,1,0.907,1,4,204056,204963,207665,0.263465797005785,0.873282652191706,1.08455988985498,0.736534202994215,0.66979217465
biokurs19-03,1,23,6,5,5,2,0.711,1,6,212681,213392,217284,0.3927215,0.7840807828647,0.973777007211714,0.6072785,0.655398005
biokurs19-03,1,24,8,4,4,1,1.602,0,8,222029,223631,226084,-0.7166776268755,0.87329159032088,1.08457099042634,0.7166776268755,0.68966314465
biokurs19-03,1,25,3,2,3,1,1.223,1,2,231549,232772,235389,0.24502319121538,0.907357811198562,1.1268790068173,0.75497680878462,0.706223892554785
biokurs19-03,1,26,4,5,5,2,0.757,1,4,240105,240862,243986,0.365230995,0.870356460741111,1.08092575161877,0.634769005,0.766845060756785
biokurs19-03,1,27,7,1,1,2,0.756,1,7,248312,249068,252506,0.3116502775755,0.859184521411589,1.06705093427494,0.6883497224245,0.69527315465
biokurs19-03,1,28,2,8,2,1,0.788,1,8,256719,257507,260382,0.24434043496638,0.910987730159345,1.13138712855591,0.75565956503362,0.7113867245245
biokurs19-03,1,29,4,6,4,1,1.098,1,6,264154,265252,268187,0.17947578499024,0.944988042184284,1.17361329046609,0.82052421500976,0.70127586535
biokurs19-03,1,30,3,2,2,2,0.785,1,3,273079,273864,276846,0.227236604518733,0.959327261471334,1.19142166219034,0.772763395481267,0.772128432169697
biokurs19-03,1,31,1,4,1,1,0.937,1,4,281880,282817,285019,0.289834758145215,0.95830945523226,1.19015761346594,0.710165241854785,0.833087519959077
biokurs19-03,1,32,1,5,5,2,0.838,1,1,290095,290933,294369,0.33966482535,0.863634355795844,1.07257733729869,0.66033517465,0.73045367492495
biokurs19-03,1,33,3,4,4,1,1.698,0,3,299079,300777,303362,-0.891403646356212,1.06656162818273,1.32459972619664,0.891403646356212,0.826177422421575
biokurs19-03,1,34,5,2,5,1,1.518,1,2,307787,309305,311805,0.3158882875755,0.914549213835659,1.1358102581509,0.6841117124245,0.788669957797578
biokurs19-03,1,35,1,3,3,2,0.902,1,1,316102,317004,319628,0.161654997147935,1.0059237806743,1.24929148888112,0.838345002852065,0.781585432169697
biokurs19-03,1,36,8,5,5,2,0.72,1,8,324699,325419,328890,0.293776107445215,0.911212146636693,1.1316658391307,0.706223892554785,0.761183795241215
biokurs19-03,1,37,1,4,4,2,1.028,1,1,334082,335110,338091,0.0461980983988529,1.1115924640284,1.38052507664565,0.953801901601147,0.836296412421575
biokurs19-03,1,38,3,1,1,2,0.688,1,3,342626,343314,347125,0.105162838708914,1.08327617015313,1.34535809320748,0.894837161291086,0.849660852652421
biokurs19-03,1,39,3,1,3,1,0.734,1,1,352515,353249,356780,0.0908628876619099,1.12478016845507,1.39690334229026,0.90913711233809,0.90219856000071
biokurs19-03,2,40,16,11,11,2,1.029,1,16,7926,8955,12513,0.5,0.620967270524053,0.771200702124187,0.5,0.5
biokurs19-03,2,41,9,10,10,1,1.135,0,9,16927,18062,21427,-0.5,0.620967270524053,0.771200702124187,0.5,0.5
biokurs19-03,2,42,15,9,9,1,1.006,0,15,25745,26751,29938,-0.535,0.642701124992395,0.798192726698534,0.535,0.5
biokurs19-03,2,43,12,13,13,2,1.036,1,12,35333,36369,38789,0.5,0.620967270524053,0.771200702124187,0.5,0.5
biokurs19-03,2,44,11,10,10,2,1.457,1,11,43975,45432,48239,0.465,0.664434979460736,0.82518475127288,0.535,0.535
biokurs19-03,2,45,9,14,9,2,1.347,0,14,52569,53916,56234,-0.57245,0.66595634927352,0.827074192993084,0.57245,0.5
biokurs19-03,2,46,12,11,12,2,1.303,0,11,61335,62638,64865,-0.535,0.687690203741862,0.854066217567431,0.535,0.57245
biokurs19-03,2,47,15,10,10,2,1.054,1,15,69085,70139,72985,0.43245,0.684647464116294,0.850287334127022,0.56755,0.535
biokurs19-03,2,48,13,16,13,1,1.478,1,16,77286,78764,80647,0.465,0.664434979460736,0.82518475127288,0.535,0.535
biokurs19-03,2,49,14,11,11,2,0.965,1,14,85422,86387,89702,0.3976215,0.706274822697741,0.877147097780954,0.6023785,0.535
biokurs19-03,2,50,14,10,10,2,0.918,1,14,95658,96576,100388,0.4021785,0.726700299127089,0.902514202475926,0.5978215,0.57245
biokurs19-03,2,51,11,13,11,1,1.727,1,13,104856,106583,108086,0.369787995,0.743771002982267,0.923714899233674,0.630212005,0.56755
biokurs19-03,2,52,9,16,9,1,1.065,1,16,113332,114397,117196,0.3874785,0.735828518003792,0.91385085279715,0.6125215,0.57245
biokurs19-03,2,53,11,12,11,1,1.146,1,12,122263,123409,126248,0.34390283535,0.762887579542774,0.947456435970758,0.65609716465,0.57245
biokurs19-03,2,54,12,14,12,2,1.045,0,14,131594,132639,135482,-0.6125215,0.760711607984597,0.94475402173232,0.6125215,0.6125215
biokurs19-03,2,55,12,10,10,2,0.953,1,12,140559,141512,144931,0.374026005,0.795690073365946,0.988194986082273,0.625973995,0.655398005
biokurs19-03,2,56,13,12,12,1,1.523,0,13,149667,151190,153026,-0.70127586535,0.812569432583723,1.00915804532559,0.70127586535,0.6072785
biokurs19-03,2,57,10,13,13,2,1.593,1,10,156946,158539,160564,0.365230995,0.799138193062396,0.992477325034963,0.634769005,0.65215581535
biokurs19-03,2,58,13,11,11,1,1.506,0,13,164866,166372,168882,-0.6801703631245,0.832410064914209,1.03379881193306,0.6801703631245,0.66033517465
biokurs19-03,2,59,14,9,9,1,1.183,0,14,181970,183153,186300,-0.639644995,0.794397213299043,0.986589338508444,0.639644995,0.639644995
biokurs19-03,2,60,12,15,12,1,1.398,1,15,190864,192262,194635,0.2496348240755,0.821424929201631,1.0201559924535,0.7503651759245,0.57245
biokurs19-03,2,61,11,16,11,1,1.02,1,16,200094,201114,204461,0.272217711456785,0.832284785244727,1.03364322278423,0.727782288543215,0.6125215
biokurs19-03,2,62,9,13,9,1,0.916,1,13,209528,210444,213502,0.31557985535,0.849813491912765,1.05541272905517,0.68442014465,0.6841117124245
biokurs19-03,2,63,10,11,10,1,0.874,1,11,219085,219959,222955,0.3021932775755,0.897076797278719,1.11411066051325,0.6978067224245,0.74683752834519
biokurs19-03,2,64,13,10,13,1,1.186,1,10,227071,228257,231114,0.268000467705785,0.900998536803173,1.11898120428967,0.731999532294215,0.718960251854785
biokurs19-03,2,65,16,10,10,2,1.744,1,16,236191,237935,239806,0.23071253051538,0.884683050445979,1.09871843822867,0.76928746948462,0.655398005
biokurs19-03,2,66,11,9,9,2,0.987,1,11,244513,245500,247960,0.2934892654755,0.934945020220166,1.16114051459235,0.7065107345245,0.799116155329353
biokurs19-03,2,67,14,13,13,2,1.436,1,14,252842,254278,257119,0.24924043496638,0.87905953103949,1.0917343952355,0.75075956503362,0.66486984535
biokurs19-03,2,68,9,11,9,1,0.993,1,11,262159,263152,266156,0.272945016892215,0.982438074634354,1.22012377932921,0.727054983107785,0.855054286202408
biokurs19-03,2,69,12,10,12,1,1.255,1,10,270873,272128,274735,0.232160386390215,0.96453415436222,1.19788828232307,0.767839613609785,0.785437346620697
biokurs19-03,2,70,13,15,13,1,1.113,1,15,279370,280483,283394,0.231793604518733,0.857386832593422,1.0648183224376,0.768206395481267,0.6125215
biokurs19-03,2,71,14,12,12,2,0.817,1,14,288293,289110,292494,0.2159091593429,0.92865753120494,1.15333186480788,0.7840908406571,0.7114107345245
biokurs19-03,2,72,10,16,10,1,0.882,1,16,297804,298686,301959,0.159582039115854,0.9573414072604,1.1889553612523,0.840417960884146,0.70127586535
biokurs19-03,2,73,16,12,12,2,0.769,1,16,305731,306500,310297,0.200795518188897,0.962232040850968,1.19502920803603,0.799204481811103,0.7503651759245
biokurs19-03,2,74,13,14,13,1,0.859,1,14,315588,316447,319216,0.215568052202422,0.959792742317662,1.19199975893159,0.784431947797578,0.761209485941215
biokurs19-03,2,75,9,11,11,2,1.164,1,9,325331,326495,328481,0.0850919137634232,1.03146962002205,1.28101774914715,0.914908086236577,0.74616113429024
biokurs19-03,2,76,9,10,9,1,0.675,1,10,333020,333695,336679,0.201607586309443,1.02458427083396,1.27246659616329,0.798392413690557,0.851588703622255
biokurs19-03,2,77,11,14,11,1,0.789,1,14,342488,343277,347205,0.0791354797999836,1.07760093678771,1.33830982486246,0.920864520200016,0.8144941499571
biokurs19-03,2,78,10,12,12,2,0.671,1,10,352214,352885,356746,0.186739831915674,1.0708332696015,1.32990482522159,0.813260168084326,0.911199912875813
biokurs19-03,3,79,21,24,21,2,1.022,0,24,7159,8181,11206,-0.5,0.620967270524053,0.771200702124187,0.5,0.5
biokurs19-03,3,80,23,20,20,2,1.22,1,23,16090,17310,20790,0.5,0.620967270524053,0.771200702124187,0.5,0.5
biokurs19-03,3,81,18,24,18,2,1.811,0,24,25529,27340,29723,-0.5,0.642701124992395,0.798192726698534,0.5,0.535
biokurs19-03,3,82,24,17,17,1,1.443,0,24,34913,36356,39487,-0.5,0.662913609647952,0.823295309552675,0.5,0.56755
biokurs19-03,3,83,18,22,18,2,1.893,0,22,43954,45847,47306,-0.535,0.642701124992395,0.798192726698534,0.535,0.5
biokurs19-03,3,84,19,21,21,1,1.214,0,19,52385,53599,56411,-0.535,0.642701124992395,0.798192726698534,0.535,0.5
biokurs19-03,3,85,22,20,20,2,1.464,1,22,62005,63469,65874,0.465,0.664434979460736,0.82518475127288,0.535,0.535
biokurs19-03,3,86,19,17,17,2,1.786,1,19,70757,72543,75060,0.465,0.664434979460736,0.82518475127288,0.535,0.535
biokurs19-03,3,87,23,19,19,1,1.396,0,23,79371,80767,83120,-0.57245,0.687690203741862,0.854066217567431,0.57245,0.535
biokurs19-03,3,88,18,19,18,1,1.666,1,19,87746,89412,92082,0.42755,0.735828518003792,0.91385085279715,0.57245,0.6125215
biokurs19-03,3,89,19,20,20,2,1.322,1,19,96858,98180,100862,0.43245,0.759410684657685,0.943138360117373,0.56755,0.655398005
biokurs19-03,3,90,19,24,19,1,1.663,1,24,105073,106736,108943,0.29872413465,0.806696945106377,1.0018648002856,0.70127586535,0.5978215
biokurs19-03,3,91,21,17,21,1,1.184,1,17,123115,124299,126648,0.42755,0.70790268839742,0.879168800421573,0.57245,0.56755
biokurs19-03,3,92,18,23,18,1,1.44,1,23,131224,132664,134456,0.3976215,0.726487307353299,0.902249680635097,0.6023785,0.56755
biokurs19-03,3,93,19,17,19,2,1.216,0,17,147635,148851,151515,-0.7221865547755,0.825554286321052,1.02528438369244,0.7221865547755,0.6072785
biokurs19-03,3,94,21,22,21,1,1.139,1,22,156046,157185,160052,0.3976215,0.729530046978867,0.906028564075505,0.6023785,0.57245
biokurs19-03,3,95,20,23,20,1,0.931,1,23,165120,166051,169034,0.4021785,0.748327657708536,0.929373966129858,0.5978215,0.6072785
biokurs19-03,3,96,19,18,18,2,1.308,1,19,174280,175588,177921,0.369787995,0.87118703728542,1.08195727331813,0.630212005,0.772739613609785
biokurs19-03,3,97,20,24,20,1,0.948,1,24,182346,183294,186289,0.374026005,0.785922879167874,0.976064770238563,0.625973995,0.639669005
biokurs19-03,3,98,17,22,17,2,1.044,0,22,191678,192722,196040,-0.634769005,0.774526580440417,0.961911313208831,0.634769005,0.6125215
biokurs19-03,3,99,20,21,21,1,0.949,0,20,200937,201886,204076,-0.630212005,0.796308445210618,0.988962963435383,0.630212005,0.65215581535
biokurs19-03,3,100,21,17,17,1,1.501,0,21,209431,210932,213708,-0.67920283535,0.840497631397572,1.04384304010177,0.67920283535,0.67432684535
biokurs19-03,3,101,21,19,19,2,1.133,1,21,218036,219169,221895,0.17316861343753,0.946326395790217,1.17527543803744,0.82683138656247,0.6971239661755
biokurs19-03,3,102,18,17,18,1,1.192,1,17,227842,229034,232139,0.34390283535,0.858700987486732,1.06645041679189,0.65609716465,0.7267470338245
biokurs19-03,3,103,17,20,17,2,0.912,0,20,235905,236817,239907,-0.777619326192215,0.902963556880295,1.1214216305973,0.777619326192215,0.6765049082755
biokurs19-03,3,104,24,19,19,1,1.57,0,24,245086,246656,248700,-0.838953189503097,0.945980934382031,1.17484639758201,0.838953189503097,0.68444583535
biokurs19-03,3,105,22,21,21,2,1.199,1,22,254811,256010,259559,0.254077356192215,0.860392154796927,1.06855073588912,0.745922643807785,0.639644995
biokurs19-03,3,106,17,20,20,2,1.128,1,17,263858,264986,268044,0.300850435303785,0.950826477904284,1.18086424545245,0.699149564696215,0.83205267902567
biokurs19-03,3,107,24,21,21,2,1.209,1,24,273146,274355,277715,0.23629194125876,0.91297258749538,1.13385219144058,0.76370805874124,0.7065346268755
biokurs19-03,3,108,19,18,19,1,1.462,1,18,282420,283882,285792,0.102320087231686,0.979793379116784,1.21683924061538,0.897679912768314,0.6801703631245
biokurs19-03,3,109,18,20,20,2,0.77,1,18,291089,291859,295586,0.27979090483252,0.899155257285177,1.11669197178746,0.72020909516748,0.727782288543215
biokurs19-03,3,110,23,18,18,2,0.98,1,23,300873,301853,304321,0.22127295125876,0.887061087614546,1.10167180472821,0.77872704874124,0.649787995
biokurs19-03,3,111,20,19,20,1,0.785,1,19,308647,309432,312311,0.260205541494243,1.02126561065331,1.26834503745494,0.739794458505757,0.904842318874532
biokurs19-03,3,112,17,18,18,2,0.82,1,17,317771,318591,321373,0.205783844670647,1.04602714287965,1.2990972396161,0.794216155329353,0.890296366557467
biokurs19-03,3,113,19,22,19,1,1.379,1,22,326388,327767,330769,0.0318187188042506,1.02621139667159,1.27448737994367,0.968181281195749,0.68442014465
biokurs19-03,3,114,21,19,21,2,1.459,0,19,335800,337259,338814,-0.780248494629353,1.08710075240482,1.35010797401094,0.780248494629353,0.970408591512047
biokurs19-03,3,115,19,21,19,1,1.578,1,21,343888,345466,347530,0.0275200098937963,1.12230263759883,1.39382641114339,0.972479990106204,0.834865889253408
biokurs19-03,3,116,17,19,17,2,1.293,0,19,352247,353540,356769,-0.974406390798769,1.19542229312309,1.4846362369685,0.95261711221649,0.974406390798769
