block	trial	Vstim	Astim	match	C/I	resp	result	RT	fb	V-file	A-file
RL

0	1	1	2	0	C	2	1	972	1	poli_8sides 23_whiteLine3.jpg	Practice3_b26_cut1_mono_resampled.wav
0	2	1	1	1	C	1	1	712	1	poli_8sides 23_whiteLine3.jpg	Practice4_b26_mono_resampled.wav
0	3	2	4	0	C	1	0	562	0	poli_8sides 24_whiteLine3.jpg	Practice2_b27_cut2_mono_resampled.wav
0	4	2	3	1	C	2	0	488	0	poli_8sides 24_whiteLine3.jpg	Practice1_b27_cut1_mono_resampled.wav
0	5	1	1	1	C	2	0	626	0	poli_8sides 23_whiteLine3.jpg	Practice4_b26_mono_resampled.wav
0	6	2	3	1	C	2	0	454	0	poli_8sides 24_whiteLine3.jpg	Practice1_b27_cut1_mono_resampled.wav
0	7	2	4	0	C	2	1	601	1	poli_8sides 24_whiteLine3.jpg	Practice2_b27_cut2_mono_resampled.wav
0	8	1	2	0	C	2	1	556	1	poli_8sides 23_whiteLine3.jpg	Practice3_b26_cut1_mono_resampled.wav
0	9	1	1	1	C	1	1	760	1	poli_8sides 23_whiteLine3.jpg	Practice4_b26_mono_resampled.wav
0	10	1	2	0	C	2	1	725	1	poli_8sides 23_whiteLine3.jpg	Practice3_b26_cut1_mono_resampled.wav
0	11	2	3	1	C	2	0	514	0	poli_8sides 24_whiteLine3.jpg	Practice1_b27_cut1_mono_resampled.wav
0	12	2	4	0	C	2	1	650	1	poli_8sides 24_whiteLine3.jpg	Practice2_b27_cut2_mono_resampled.wav
0	13	1	2	0	C	2	1	386	1	poli_8sides 23_whiteLine3.jpg	Practice3_b26_cut1_mono_resampled.wav
0	14	2	3	1	C	1	1	870	1	poli_8sides 24_whiteLine3.jpg	Practice1_b27_cut1_mono_resampled.wav
0	15	1	1	1	C	2	0	627	0	poli_8sides 23_whiteLine3.jpg	Practice4_b26_mono_resampled.wav
0	16	2	4	0	C	2	1	471	1	poli_8sides 24_whiteLine3.jpg	Practice2_b27_cut2_mono_resampled.wav
0	17	2	4	0	C	2	1	601	1	poli_8sides 24_whiteLine3.jpg	Practice2_b27_cut2_mono_resampled.wav
0	18	1	1	1	C	2	0	377	0	poli_8sides 23_whiteLine3.jpg	Practice4_b26_mono_resampled.wav
0	19	2	3	1	C	2	0	619	0	poli_8sides 24_whiteLine3.jpg	Practice1_b27_cut1_mono_resampled.wav
0	20	1	2	0	C	2	1	520	1	poli_8sides 23_whiteLine3.jpg	Practice3_b26_cut1_mono_resampled.wav
0	21	1	1	1	C	1	1	784	1	poli_8sides 23_whiteLine3.jpg	Practice4_b26_mono_resampled.wav
0	22	2	4	0	C	2	1	573	1	poli_8sides 24_whiteLine3.jpg	Practice2_b27_cut2_mono_resampled.wav
0	23	2	3	1	C	1	1	792	1	poli_8sides 24_whiteLine3.jpg	Practice1_b27_cut1_mono_resampled.wav
0	24	1	2	0	C	2	1	453	1	poli_8sides 23_whiteLine3.jpg	Practice3_b26_cut1_mono_resampled.wav
0	25	1	2	0	C	1	0	720	0	poli_8sides 23_whiteLine3.jpg	Practice3_b26_cut1_mono_resampled.wav
0	26	2	3	1	C	1	1	728	1	poli_8sides 24_whiteLine3.jpg	Practice1_b27_cut1_mono_resampled.wav
0	27	1	1	1	C	2	0	331	0	poli_8sides 23_whiteLine3.jpg	Practice4_b26_mono_resampled.wav
0	28	2	4	0	C	2	1	631	1	poli_8sides 24_whiteLine3.jpg	Practice2_b27_cut2_mono_resampled.wav
0	29	1	1	1	C	1	1	615	1	poli_8sides 23_whiteLine3.jpg	Practice4_b26_mono_resampled.wav
0	30	2	4	0	C	2	1	719	1	poli_8sides 24_whiteLine3.jpg	Practice2_b27_cut2_mono_resampled.wav
avg_resp = 656
1	1	1	2	0	C	2	1	850	1	poli_8sides 2_whiteLine3.jpg	MediumShort_b10_cut1_MS_mono_resampled.wav
1	2	3	4	2	I	2	0	653	0	poli_8sides 16_whiteLine3.jpg	MediumShort_b16_cut3_MS_mono_resampled.wav
1	3	2	2	1	C	2	0	661	0	poli_8sides 20_whiteLine3.jpg	MediumShort_b10_cut1_MS_mono_resampled.wav
1	4	4	3	2	I	2	0	1013	0	poli_8sides 9_whiteLine3.jpg	MediumShort_e16_cut1_mono_resampled.wav
1	5	3	3	2	I	2	0	622	1	poli_8sides 16_whiteLine3.jpg	MediumShort_e16_cut1_mono_resampled.wav
1	6	2	1	0	C	2	1	662	1	poli_8sides 20_whiteLine3.jpg	MediumShort_e22_cut1_mono_resampled.wav
1	7	1	1	1	C	1	1	807	1	poli_8sides 2_whiteLine3.jpg	MediumShort_e22_cut1_mono_resampled.wav
1	8	4	4	2	I	1	0	1016	1	poli_8sides 9_whiteLine3.jpg	MediumShort_b16_cut3_MS_mono_resampled.wav
1	9	3	3	2	I	2	0	787	0	poli_8sides 16_whiteLine3.jpg	MediumShort_e16_cut1_mono_resampled.wav
1	10	2	2	1	C	2	0	637	0	poli_8sides 20_whiteLine3.jpg	MediumShort_b10_cut1_MS_mono_resampled.wav
1	11	1	2	0	C	2	1	301	1	poli_8sides 2_whiteLine3.jpg	MediumShort_b10_cut1_MS_mono_resampled.wav
1	12	4	3	2	I	2	0	557	1	poli_8sides 9_whiteLine3.jpg	MediumShort_e16_cut1_mono_resampled.wav
1	13	1	1	1	C	2	0	550	0	poli_8sides 2_whiteLine3.jpg	MediumShort_e22_cut1_mono_resampled.wav
1	14	3	4	2	I	1	0	875	1	poli_8sides 16_whiteLine3.jpg	MediumShort_b16_cut3_MS_mono_resampled.wav
1	15	2	1	0	C	2	1	538	1	poli_8sides 20_whiteLine3.jpg	MediumShort_e22_cut1_mono_resampled.wav
1	16	4	4	2	I	2	0	591	0	poli_8sides 9_whiteLine3.jpg	MediumShort_b16_cut3_MS_mono_resampled.wav
1	17	2	1	0	C	2	1	600	1	poli_8sides 20_whiteLine3.jpg	MediumShort_e22_cut1_mono_resampled.wav
1	18	3	4	2	I	2	0	816	1	poli_8sides 16_whiteLine3.jpg	MediumShort_b16_cut3_MS_mono_resampled.wav
1	19	4	3	2	I	2	0	494	0	poli_8sides 9_whiteLine3.jpg	MediumShort_e16_cut1_mono_resampled.wav
1	20	1	2	0	C	2	1	601	1	poli_8sides 2_whiteLine3.jpg	MediumShort_b10_cut1_MS_mono_resampled.wav
1	21	4	4	2	I	1	0	904	1	poli_8sides 9_whiteLine3.jpg	MediumShort_b16_cut3_MS_mono_resampled.wav
1	22	3	3	2	I	2	0	602	1	poli_8sides 16_whiteLine3.jpg	MediumShort_e16_cut1_mono_resampled.wav
1	23	2	2	1	C	2	0	492	0	poli_8sides 20_whiteLine3.jpg	MediumShort_b10_cut1_MS_mono_resampled.wav
1	24	1	1	1	C	1	1	733	1	poli_8sides 2_whiteLine3.jpg	MediumShort_e22_cut1_mono_resampled.wav
1	25	4	4	2	I	1	0	847	0	poli_8sides 9_whiteLine3.jpg	MediumShort_b16_cut3_MS_mono_resampled.wav
1	26	2	1	0	C	2	1	508	1	poli_8sides 20_whiteLine3.jpg	MediumShort_e22_cut1_mono_resampled.wav
1	27	3	4	2	I	2	0	707	1	poli_8sides 16_whiteLine3.jpg	MediumShort_b16_cut3_MS_mono_resampled.wav
1	28	1	1	1	C	2	0	646	0	poli_8sides 2_whiteLine3.jpg	MediumShort_e22_cut1_mono_resampled.wav
1	29	3	3	2	I	1	0	818	0	poli_8sides 16_whiteLine3.jpg	MediumShort_e16_cut1_mono_resampled.wav
1	30	2	2	1	C	1	1	742	1	poli_8sides 20_whiteLine3.jpg	MediumShort_b10_cut1_MS_mono_resampled.wav
1	31	1	2	0	C	2	1	1064	1	poli_8sides 2_whiteLine3.jpg	MediumShort_b10_cut1_MS_mono_resampled.wav
1	32	4	3	2	I	2	0	986	0	poli_8sides 9_whiteLine3.jpg	MediumShort_e16_cut1_mono_resampled.wav
1	33	2	2	1	C	1	1	756	1	poli_8sides 20_whiteLine3.jpg	MediumShort_b10_cut1_MS_mono_resampled.wav
1	34	3	4	2	I	1	0	926	0	poli_8sides 16_whiteLine3.jpg	MediumShort_b16_cut3_MS_mono_resampled.wav
1	35	4	4	2	I	2	0	720	1	poli_8sides 9_whiteLine3.jpg	MediumShort_b16_cut3_MS_mono_resampled.wav
1	36	1	1	1	C	2	0	710	0	poli_8sides 2_whiteLine3.jpg	MediumShort_e22_cut1_mono_resampled.wav
1	37	4	3	2	I	2	0	647	0	poli_8sides 9_whiteLine3.jpg	MediumShort_e16_cut1_mono_resampled.wav
1	38	1	2	0	C	1	0	1030	0	poli_8sides 2_whiteLine3.jpg	MediumShort_b10_cut1_MS_mono_resampled.wav
1	39	2	1	0	C	2	1	490	1	poli_8sides 20_whiteLine3.jpg	MediumShort_e22_cut1_mono_resampled.wav
1	40	3	3	2	I	2	0	717	0	poli_8sides 16_whiteLine3.jpg	MediumShort_e16_cut1_mono_resampled.wav
1	41	2	1	0	C	2	1	493	1	poli_8sides 20_whiteLine3.jpg	MediumShort_e22_cut1_mono_resampled.wav
1	42	1	2	0	C	2	1	466	1	poli_8sides 2_whiteLine3.jpg	MediumShort_b10_cut1_MS_mono_resampled.wav
1	43	4	4	2	I	2	0	693	0	poli_8sides 9_whiteLine3.jpg	MediumShort_b16_cut3_MS_mono_resampled.wav
1	44	3	3	2	I	2	0	541	1	poli_8sides 16_whiteLine3.jpg	MediumShort_e16_cut1_mono_resampled.wav
1	45	2	2	1	C	2	0	494	0	poli_8sides 20_whiteLine3.jpg	MediumShort_b10_cut1_MS_mono_resampled.wav
1	46	3	4	2	I	2	0	649	1	poli_8sides 16_whiteLine3.jpg	MediumShort_b16_cut3_MS_mono_resampled.wav
1	47	4	3	2	I	2	0	888	0	poli_8sides 9_whiteLine3.jpg	MediumShort_e16_cut1_mono_resampled.wav
1	48	1	1	1	C	1	1	767	1	poli_8sides 2_whiteLine3.jpg	MediumShort_e22_cut1_mono_resampled.wav
1	49	2	2	1	C	2	0	613	0	poli_8sides 20_whiteLine3.jpg	MediumShort_b10_cut1_MS_mono_resampled.wav
1	50	4	4	2	I	1	0	961	1	poli_8sides 9_whiteLine3.jpg	MediumShort_b16_cut3_MS_mono_resampled.wav
1	51	1	2	0	C	2	1	844	1	poli_8sides 2_whiteLine3.jpg	MediumShort_b10_cut1_MS_mono_resampled.wav
1	52	3	4	2	I	2	0	791	0	poli_8sides 16_whiteLine3.jpg	MediumShort_b16_cut3_MS_mono_resampled.wav
1	53	1	1	1	C	1	1	774	1	poli_8sides 2_whiteLine3.jpg	MediumShort_e22_cut1_mono_resampled.wav
1	54	3	3	2	I	1	0	647	0	poli_8sides 16_whiteLine3.jpg	MediumShort_e16_cut1_mono_resampled.wav
1	55	2	1	0	C	2	1	420	1	poli_8sides 20_whiteLine3.jpg	MediumShort_e22_cut1_mono_resampled.wav
1	56	4	3	2	I	1	0	912	0	poli_8sides 9_whiteLine3.jpg	MediumShort_e16_cut1_mono_resampled.wav
1	57	2	1	0	C	2	1	505	1	poli_8sides 20_whiteLine3.jpg	MediumShort_e22_cut1_mono_resampled.wav
1	58	4	3	2	I	2	0	666	1	poli_8sides 9_whiteLine3.jpg	MediumShort_e16_cut1_mono_resampled.wav
1	59	3	3	2	I	2	0	685	1	poli_8sides 16_whiteLine3.jpg	MediumShort_e16_cut1_mono_resampled.wav
1	60	1	2	0	C	2	1	900	1	poli_8sides 2_whiteLine3.jpg	MediumShort_b10_cut1_MS_mono_resampled.wav
1	61	4	4	2	I	1	0	1079	0	poli_8sides 9_whiteLine3.jpg	MediumShort_b16_cut3_MS_mono_resampled.wav
1	62	1	1	1	C	1	1	1312	1	poli_8sides 2_whiteLine3.jpg	MediumShort_e22_cut1_mono_resampled.wav
1	63	3	4	2	I	1	0	826	1	poli_8sides 16_whiteLine3.jpg	MediumShort_b16_cut3_MS_mono_resampled.wav
1	64	2	2	1	C	2	0	751	0	poli_8sides 20_whiteLine3.jpg	MediumShort_b10_cut1_MS_mono_resampled.wav
1	65	3	3	2	I	1	0	509	1	poli_8sides 16_whiteLine3.jpg	MediumShort_e16_cut1_mono_resampled.wav
1	66	2	1	0	C	2	1	508	1	poli_8sides 20_whiteLine3.jpg	MediumShort_e22_cut1_mono_resampled.wav
1	67	1	1	1	C	1	1	705	1	poli_8sides 2_whiteLine3.jpg	MediumShort_e22_cut1_mono_resampled.wav
1	68	4	3	2	I	2	0	704	0	poli_8sides 9_whiteLine3.jpg	MediumShort_e16_cut1_mono_resampled.wav
1	69	1	2	0	C	2	1	870	1	poli_8sides 2_whiteLine3.jpg	MediumShort_b10_cut1_MS_mono_resampled.wav
1	70	4	4	2	I	2	0	823	1	poli_8sides 9_whiteLine3.jpg	MediumShort_b16_cut3_MS_mono_resampled.wav
1	71	2	2	1	C	1	1	851	1	poli_8sides 20_whiteLine3.jpg	MediumShort_b10_cut1_MS_mono_resampled.wav
1	72	3	4	2	I	2	0	1569	1	poli_8sides 16_whiteLine3.jpg	MediumShort_b16_cut3_MS_mono_resampled.wav
1	73	2	2	1	C	1	1	804	1	poli_8sides 20_whiteLine3.jpg	MediumShort_b10_cut1_MS_mono_resampled.wav
1	74	3	3	2	I	2	0	766	1	poli_8sides 16_whiteLine3.jpg	MediumShort_e16_cut1_mono_resampled.wav
1	75	4	4	2	I	2	0	961	1	poli_8sides 9_whiteLine3.jpg	MediumShort_b16_cut3_MS_mono_resampled.wav
1	76	1	2	0	C	2	1	1330	1	poli_8sides 2_whiteLine3.jpg	MediumShort_b10_cut1_MS_mono_resampled.wav
1	77	3	4	2	I	2	0	966	0	poli_8sides 16_whiteLine3.jpg	MediumShort_b16_cut3_MS_mono_resampled.wav
1	78	1	1	1	C	1	1	968	1	poli_8sides 2_whiteLine3.jpg	MediumShort_e22_cut1_mono_resampled.wav
1	79	2	1	0	C	2	1	388	1	poli_8sides 20_whiteLine3.jpg	MediumShort_e22_cut1_mono_resampled.wav
1	80	4	3	2	I	1	0	860	0	poli_8sides 9_whiteLine3.jpg	MediumShort_e16_cut1_mono_resampled.wav
1	81	3	3	2	I	1	0	1362	1	poli_8sides 16_whiteLine3.jpg	MediumShort_e16_cut1_mono_resampled.wav
1	82	4	3	2	I	1	0	762	1	poli_8sides 9_whiteLine3.jpg	MediumShort_e16_cut1_mono_resampled.wav
1	83	2	1	0	C	2	1	528	1	poli_8sides 20_whiteLine3.jpg	MediumShort_e22_cut1_mono_resampled.wav
1	84	1	1	1	C	1	1	1002	1	poli_8sides 2_whiteLine3.jpg	MediumShort_e22_cut1_mono_resampled.wav
1	85	4	4	2	I	2	0	764	0	poli_8sides 9_whiteLine3.jpg	MediumShort_b16_cut3_MS_mono_resampled.wav
1	86	2	2	1	C	2	0	630	0	poli_8sides 20_whiteLine3.jpg	MediumShort_b10_cut1_MS_mono_resampled.wav
1	87	3	4	2	I	1	0	1488	0	poli_8sides 16_whiteLine3.jpg	MediumShort_b16_cut3_MS_mono_resampled.wav
1	88	1	2	0	C	2	1	1178	1	poli_8sides 2_whiteLine3.jpg	MediumShort_b10_cut1_MS_mono_resampled.wav
1	89	2	1	0	C	2	1	599	1	poli_8sides 20_whiteLine3.jpg	MediumShort_e22_cut1_mono_resampled.wav
1	90	4	4	2	I	2	0	801	0	poli_8sides 9_whiteLine3.jpg	MediumShort_b16_cut3_MS_mono_resampled.wav
1	91	1	2	0	C	2	1	844	1	poli_8sides 2_whiteLine3.jpg	MediumShort_b10_cut1_MS_mono_resampled.wav
1	92	3	4	2	I	1	0	1897	0	poli_8sides 16_whiteLine3.jpg	MediumShort_b16_cut3_MS_mono_resampled.wav
1	93	4	3	2	I	2	0	540	1	poli_8sides 9_whiteLine3.jpg	MediumShort_e16_cut1_mono_resampled.wav
1	94	2	2	1	C	1	1	873	1	poli_8sides 20_whiteLine3.jpg	MediumShort_b10_cut1_MS_mono_resampled.wav
1	95	3	3	2	I	1	0	1404	0	poli_8sides 16_whiteLine3.jpg	MediumShort_e16_cut1_mono_resampled.wav
1	96	1	1	1	C	2	0	525	0	poli_8sides 2_whiteLine3.jpg	MediumShort_e22_cut1_mono_resampled.wav
1	97	2	1	0	C	2	1	455	1	poli_8sides 20_whiteLine3.jpg	MediumShort_e22_cut1_mono_resampled.wav
1	98	3	4	2	I	1	0	842	1	poli_8sides 16_whiteLine3.jpg	MediumShort_b16_cut3_MS_mono_resampled.wav
1	99	1	2	0	C	2	1	648	1	poli_8sides 2_whiteLine3.jpg	MediumShort_b10_cut1_MS_mono_resampled.wav
1	100	4	3	2	I	2	0	801	1	poli_8sides 9_whiteLine3.jpg	MediumShort_e16_cut1_mono_resampled.wav
1	101	3	3	2	I	2	0	773	1	poli_8sides 16_whiteLine3.jpg	MediumShort_e16_cut1_mono_resampled.wav
1	102	1	1	1	C	1	1	1261	1	poli_8sides 2_whiteLine3.jpg	MediumShort_e22_cut1_mono_resampled.wav
1	103	2	2	1	C	1	1	791	1	poli_8sides 20_whiteLine3.jpg	MediumShort_b10_cut1_MS_mono_resampled.wav
1	104	4	4	2	I	2	0	711	0	poli_8sides 9_whiteLine3.jpg	MediumShort_b16_cut3_MS_mono_resampled.wav
1	105	3	4	2	I	2	0	731	0	poli_8sides 16_whiteLine3.jpg	MediumShort_b16_cut3_MS_mono_resampled.wav
1	106	2	2	1	C	1	1	724	1	poli_8sides 20_whiteLine3.jpg	MediumShort_b10_cut1_MS_mono_resampled.wav
1	107	1	2	0	C	2	1	864	1	poli_8sides 2_whiteLine3.jpg	MediumShort_b10_cut1_MS_mono_resampled.wav
1	108	4	4	2	I	2	0	674	0	poli_8sides 9_whiteLine3.jpg	MediumShort_b16_cut3_MS_mono_resampled.wav
1	109	2	1	0	C	2	1	963	1	poli_8sides 20_whiteLine3.jpg	MediumShort_e22_cut1_mono_resampled.wav
1	110	3	3	2	I	2	0	532	0	poli_8sides 16_whiteLine3.jpg	MediumShort_e16_cut1_mono_resampled.wav
1	111	4	3	2	I	2	0	488	1	poli_8sides 9_whiteLine3.jpg	MediumShort_e16_cut1_mono_resampled.wav
1	112	1	1	1	C	2	0	433	0	poli_8sides 2_whiteLine3.jpg	MediumShort_e22_cut1_mono_resampled.wav
1	113	4	3	2	I	2	0	568	0	poli_8sides 9_whiteLine3.jpg	MediumShort_e16_cut1_mono_resampled.wav
1	114	1	1	1	C	2	0	452	0	poli_8sides 2_whiteLine3.jpg	MediumShort_e22_cut1_mono_resampled.wav
1	115	3	3	2	I	2	0	634	1	poli_8sides 16_whiteLine3.jpg	MediumShort_e16_cut1_mono_resampled.wav
1	116	2	2	1	C	1	1	830	1	poli_8sides 20_whiteLine3.jpg	MediumShort_b10_cut1_MS_mono_resampled.wav
1	117	1	2	0	C	2	1	785	1	poli_8sides 2_whiteLine3.jpg	MediumShort_b10_cut1_MS_mono_resampled.wav
1	118	2	1	0	C	2	1	735	1	poli_8sides 20_whiteLine3.jpg	MediumShort_e22_cut1_mono_resampled.wav
1	119	4	4	2	I	2	0	1002	0	poli_8sides 9_whiteLine3.jpg	MediumShort_b16_cut3_MS_mono_resampled.wav
1	120	3	4	2	I	2	0	750	1	poli_8sides 16_whiteLine3.jpg	MediumShort_b16_cut3_MS_mono_resampled.wav
1	121	4	3	2	I	2	0	621	0	poli_8sides 9_whiteLine3.jpg	MediumShort_e16_cut1_mono_resampled.wav
1	122	3	3	2	I	2	0	597	0	poli_8sides 16_whiteLine3.jpg	MediumShort_e16_cut1_mono_resampled.wav
1	123	2	2	1	C	2	0	470	0	poli_8sides 20_whiteLine3.jpg	MediumShort_b10_cut1_MS_mono_resampled.wav
1	124	1	1	1	C	1	1	961	1	poli_8sides 2_whiteLine3.jpg	MediumShort_e22_cut1_mono_resampled.wav
1	125	2	1	0	C	2	1	672	1	poli_8sides 20_whiteLine3.jpg	MediumShort_e22_cut1_mono_resampled.wav
1	126	1	2	0	C	2	1	940	1	poli_8sides 2_whiteLine3.jpg	MediumShort_b10_cut1_MS_mono_resampled.wav
1	127	3	4	2	I	2	0	621	1	poli_8sides 16_whiteLine3.jpg	MediumShort_b16_cut3_MS_mono_resampled.wav
1	128	4	4	2	I	2	0	709	0	poli_8sides 9_whiteLine3.jpg	MediumShort_b16_cut3_MS_mono_resampled.wav
1	129	2	1	0	C	2	1	733	1	poli_8sides 20_whiteLine3.jpg	MediumShort_e22_cut1_mono_resampled.wav
1	130	1	1	1	C	1	1	734	1	poli_8sides 2_whiteLine3.jpg	MediumShort_e22_cut1_mono_resampled.wav
1	131	3	3	2	I	2	0	587	0	poli_8sides 16_whiteLine3.jpg	MediumShort_e16_cut1_mono_resampled.wav
1	132	4	3	2	I	2	0	647	0	poli_8sides 9_whiteLine3.jpg	MediumShort_e16_cut1_mono_resampled.wav
1	133	1	2	0	C	2	1	759	1	poli_8sides 2_whiteLine3.jpg	MediumShort_b10_cut1_MS_mono_resampled.wav
1	134	2	2	1	C	1	1	843	1	poli_8sides 20_whiteLine3.jpg	MediumShort_b10_cut1_MS_mono_resampled.wav
1	135	3	4	2	I	1	0	659	0	poli_8sides 16_whiteLine3.jpg	MediumShort_b16_cut3_MS_mono_resampled.wav
1	136	4	4	2	I	2	0	607	1	poli_8sides 9_whiteLine3.jpg	MediumShort_b16_cut3_MS_mono_resampled.wav
1	137	2	1	0	C	2	1	575	1	poli_8sides 20_whiteLine3.jpg	MediumShort_e22_cut1_mono_resampled.wav
1	138	1	1	1	C	2	0	785	0	poli_8sides 2_whiteLine3.jpg	MediumShort_e22_cut1_mono_resampled.wav
1	139	4	3	2	I	2	0	611	1	poli_8sides 9_whiteLine3.jpg	MediumShort_e16_cut1_mono_resampled.wav
1	140	3	4	2	I	2	0	515	1	poli_8sides 16_whiteLine3.jpg	MediumShort_b16_cut3_MS_mono_resampled.wav
1	141	4	4	2	I	2	0	485	1	poli_8sides 9_whiteLine3.jpg	MediumShort_b16_cut3_MS_mono_resampled.wav
1	142	1	2	0	C	2	1	608	1	poli_8sides 2_whiteLine3.jpg	MediumShort_b10_cut1_MS_mono_resampled.wav
1	143	3	3	2	I	2	0	624	0	poli_8sides 16_whiteLine3.jpg	MediumShort_e16_cut1_mono_resampled.wav
1	144	2	2	1	C	1	1	755	1	poli_8sides 20_whiteLine3.jpg	MediumShort_b10_cut1_MS_mono_resampled.wav
1	145	3	4	2	I	1	0	588	1	poli_8sides 16_whiteLine3.jpg	MediumShort_b16_cut3_MS_mono_resampled.wav
1	146	2	2	1	C	1	1	654	1	poli_8sides 20_whiteLine3.jpg	MediumShort_b10_cut1_MS_mono_resampled.wav
1	147	4	3	2	I	2	0	676	0	poli_8sides 9_whiteLine3.jpg	MediumShort_e16_cut1_mono_resampled.wav
1	148	1	1	1	C	2	0	723	0	poli_8sides 2_whiteLine3.jpg	MediumShort_e22_cut1_mono_resampled.wav
1	149	2	1	0	C	2	1	665	1	poli_8sides 20_whiteLine3.jpg	MediumShort_e22_cut1_mono_resampled.wav
1	150	4	4	2	I	2	0	882	0	poli_8sides 9_whiteLine3.jpg	MediumShort_b16_cut3_MS_mono_resampled.wav
1	151	1	2	0	C	2	1	462	1	poli_8sides 2_whiteLine3.jpg	MediumShort_b10_cut1_MS_mono_resampled.wav
1	152	3	3	2	I	2	0	530	1	poli_8sides 16_whiteLine3.jpg	MediumShort_e16_cut1_mono_resampled.wav
1	153	2	1	0	C	2	1	372	1	poli_8sides 20_whiteLine3.jpg	MediumShort_e22_cut1_mono_resampled.wav
1	154	1	1	1	C	1	1	647	1	poli_8sides 2_whiteLine3.jpg	MediumShort_e22_cut1_mono_resampled.wav
1	155	3	3	2	I	2	0	554	0	poli_8sides 16_whiteLine3.jpg	MediumShort_e16_cut1_mono_resampled.wav
1	156	4	3	2	I	2	0	532	0	poli_8sides 9_whiteLine3.jpg	MediumShort_e16_cut1_mono_resampled.wav
1	157	2	2	1	C	1	1	611	1	poli_8sides 20_whiteLine3.jpg	MediumShort_b10_cut1_MS_mono_resampled.wav
1	158	4	4	2	I	2	0	448	1	poli_8sides 9_whiteLine3.jpg	MediumShort_b16_cut3_MS_mono_resampled.wav
1	159	3	4	2	I	1	0	628	0	poli_8sides 16_whiteLine3.jpg	MediumShort_b16_cut3_MS_mono_resampled.wav
1	160	1	2	0	C	2	1	791	1	poli_8sides 2_whiteLine3.jpg	MediumShort_b10_cut1_MS_mono_resampled.wav
1	161	4	4	2	I	2	0	604	1	poli_8sides 9_whiteLine3.jpg	MediumShort_b16_cut3_MS_mono_resampled.wav
1	162	2	2	1	C	1	1	647	1	poli_8sides 20_whiteLine3.jpg	MediumShort_b10_cut1_MS_mono_resampled.wav
1	163	1	2	0	C	1	0	785	0	poli_8sides 2_whiteLine3.jpg	MediumShort_b10_cut1_MS_mono_resampled.wav
1	164	3	4	2	I	1	0	527	0	poli_8sides 16_whiteLine3.jpg	MediumShort_b16_cut3_MS_mono_resampled.wav
1	165	4	3	2	I	2	0	509	1	poli_8sides 9_whiteLine3.jpg	MediumShort_e16_cut1_mono_resampled.wav
1	166	1	1	1	C	2	0	540	0	poli_8sides 2_whiteLine3.jpg	MediumShort_e22_cut1_mono_resampled.wav
1	167	3	3	2	I	2	0	457	0	poli_8sides 16_whiteLine3.jpg	MediumShort_e16_cut1_mono_resampled.wav
1	168	2	1	0	C	2	1	450	1	poli_8sides 20_whiteLine3.jpg	MediumShort_e22_cut1_mono_resampled.wav
1	169	1	2	0	C	2	1	1220	1	poli_8sides 2_whiteLine3.jpg	MediumShort_b10_cut1_MS_mono_resampled.wav
1	170	4	3	2	I	2	0	793	1	poli_8sides 9_whiteLine3.jpg	MediumShort_e16_cut1_mono_resampled.wav
1	171	2	1	0	C	2	1	784	1	poli_8sides 20_whiteLine3.jpg	MediumShort_e22_cut1_mono_resampled.wav
1	172	3	4	2	I	2	0	508	0	poli_8sides 16_whiteLine3.jpg	MediumShort_b16_cut3_MS_mono_resampled.wav
1	173	2	2	1	C	2	0	409	0	poli_8sides 20_whiteLine3.jpg	MediumShort_b10_cut1_MS_mono_resampled.wav
1	174	3	3	2	I	2	0	422	1	poli_8sides 16_whiteLine3.jpg	MediumShort_e16_cut1_mono_resampled.wav
1	175	1	1	1	C	2	0	624	0	poli_8sides 2_whiteLine3.jpg	MediumShort_e22_cut1_mono_resampled.wav
1	176	4	4	2	I	2	0	468	1	poli_8sides 9_whiteLine3.jpg	MediumShort_b16_cut3_MS_mono_resampled.wav
1	177	1	2	0	C	2	1	688	1	poli_8sides 2_whiteLine3.jpg	MediumShort_b10_cut1_MS_mono_resampled.wav
1	178	3	4	2	I	2	0	705	1	poli_8sides 16_whiteLine3.jpg	MediumShort_b16_cut3_MS_mono_resampled.wav
1	179	2	2	1	C	1	1	695	1	poli_8sides 20_whiteLine3.jpg	MediumShort_b10_cut1_MS_mono_resampled.wav
1	180	4	3	2	I	2	0	669	1	poli_8sides 9_whiteLine3.jpg	MediumShort_e16_cut1_mono_resampled.wav
1	181	1	1	1	C	2	0	674	0	poli_8sides 2_whiteLine3.jpg	MediumShort_e22_cut1_mono_resampled.wav
1	182	4	4	2	I	2	0	512	1	poli_8sides 9_whiteLine3.jpg	MediumShort_b16_cut3_MS_mono_resampled.wav
1	183	2	1	0	C	2	1	697	1	poli_8sides 20_whiteLine3.jpg	MediumShort_e22_cut1_mono_resampled.wav
1	184	3	3	2	I	2	0	563	1	poli_8sides 16_whiteLine3.jpg	MediumShort_e16_cut1_mono_resampled.wav
1	185	4	4	2	I	2	0	559	1	poli_8sides 9_whiteLine3.jpg	MediumShort_b16_cut3_MS_mono_resampled.wav
1	186	2	2	1	C	1	1	711	1	poli_8sides 20_whiteLine3.jpg	MediumShort_b10_cut1_MS_mono_resampled.wav
1	187	1	1	1	C	1	1	1353	1	poli_8sides 2_whiteLine3.jpg	MediumShort_e22_cut1_mono_resampled.wav
1	188	3	3	2	I	2	0	609	0	poli_8sides 16_whiteLine3.jpg	MediumShort_e16_cut1_mono_resampled.wav
1	189	2	1	0	C	2	1	892	1	poli_8sides 20_whiteLine3.jpg	MediumShort_e22_cut1_mono_resampled.wav
1	190	1	2	0	C	2	1	679	1	poli_8sides 2_whiteLine3.jpg	MediumShort_b10_cut1_MS_mono_resampled.wav
1	191	4	3	2	I	2	0	748	1	poli_8sides 9_whiteLine3.jpg	MediumShort_e16_cut1_mono_resampled.wav
1	192	3	4	2	I	2	0	653	0	poli_8sides 16_whiteLine3.jpg	MediumShort_b16_cut3_MS_mono_resampled.wav
1	193	1	2	0	C	2	1	905	1	poli_8sides 2_whiteLine3.jpg	MediumShort_b10_cut1_MS_mono_resampled.wav
1	194	4	4	2	I	2	0	605	0	poli_8sides 9_whiteLine3.jpg	MediumShort_b16_cut3_MS_mono_resampled.wav
1	195	2	2	1	C	1	1	794	1	poli_8sides 20_whiteLine3.jpg	MediumShort_b10_cut1_MS_mono_resampled.wav
1	196	3	3	2	I	1	0	550	1	poli_8sides 16_whiteLine3.jpg	MediumShort_e16_cut1_mono_resampled.wav
1	197	2	1	0	C	2	1	561	1	poli_8sides 20_whiteLine3.jpg	MediumShort_e22_cut1_mono_resampled.wav
1	198	1	1	1	C	1	1	776	1	poli_8sides 2_whiteLine3.jpg	MediumShort_e22_cut1_mono_resampled.wav
1	199	3	4	2	I	1	0	613	0	poli_8sides 16_whiteLine3.jpg	MediumShort_b16_cut3_MS_mono_resampled.wav
1	200	4	3	2	I	2	0	682	1	poli_8sides 9_whiteLine3.jpg	MediumShort_e16_cut1_mono_resampled.wav
2	1	3	3	2	I	2	0	934	0	poli_8sides 10_whiteLine3.jpg	Long_b01_cut2_L_mono_resampled.wav
2	2	2	1	0	C	2	1	554	1	poli_8sides 13_whiteLine3.jpg	Long_s10_cut2_l_mono_resampled.wav
2	3	1	2	0	C	2	1	834	1	poli_8sides 11_whiteLine3.jpg	Long_e24_cut1_mono_resampled.wav
2	4	4	3	2	I	2	0	545	1	poli_8sides 7_whiteLine3.jpg	Long_b01_cut2_L_mono_resampled.wav
2	5	1	1	1	C	1	1	748	1	poli_8sides 11_whiteLine3.jpg	Long_s10_cut2_l_mono_resampled.wav
2	6	2	2	1	C	2	0	1154	0	poli_8sides 13_whiteLine3.jpg	Long_e24_cut1_mono_resampled.wav
2	7	4	4	2	I	2	0	696	1	poli_8sides 7_whiteLine3.jpg	Long_e17_cut2_mono_resampled.wav
2	8	3	4	2	I	1	0	870	0	poli_8sides 10_whiteLine3.jpg	Long_e17_cut2_mono_resampled.wav
2	9	4	3	2	I	2	0	729	1	poli_8sides 7_whiteLine3.jpg	Long_b01_cut2_L_mono_resampled.wav
2	10	3	4	2	I	1	0	973	0	poli_8sides 10_whiteLine3.jpg	Long_e17_cut2_mono_resampled.wav
2	11	2	2	1	C	1	1	1090	1	poli_8sides 13_whiteLine3.jpg	Long_e24_cut1_mono_resampled.wav
2	12	1	2	0	C	2	1	794	1	poli_8sides 11_whiteLine3.jpg	Long_e24_cut1_mono_resampled.wav
2	13	4	4	2	I	2	0	544	1	poli_8sides 7_whiteLine3.jpg	Long_e17_cut2_mono_resampled.wav
2	14	2	1	0	C	2	1	1018	1	poli_8sides 13_whiteLine3.jpg	Long_s10_cut2_l_mono_resampled.wav
2	15	3	3	2	I	1	0	1218	0	poli_8sides 10_whiteLine3.jpg	Long_b01_cut2_L_mono_resampled.wav
2	16	1	1	1	C	1	1	1225	1	poli_8sides 11_whiteLine3.jpg	Long_s10_cut2_l_mono_resampled.wav
2	17	2	1	0	C	1	0	1106	0	poli_8sides 13_whiteLine3.jpg	Long_s10_cut2_l_mono_resampled.wav
2	18	3	4	2	I	2	0	816	0	poli_8sides 10_whiteLine3.jpg	Long_e17_cut2_mono_resampled.wav
2	19	4	3	2	I	2	0	750	1	poli_8sides 7_whiteLine3.jpg	Long_b01_cut2_L_mono_resampled.wav
2	20	1	1	1	C	1	1	890	1	poli_8sides 11_whiteLine3.jpg	Long_s10_cut2_l_mono_resampled.wav
2	21	2	2	1	C	1	1	815	1	poli_8sides 13_whiteLine3.jpg	Long_e24_cut1_mono_resampled.wav
2	22	3	3	2	I	1	0	702	1	poli_8sides 10_whiteLine3.jpg	Long_b01_cut2_L_mono_resampled.wav
2	23	1	2	0	C	2	1	578	1	poli_8sides 11_whiteLine3.jpg	Long_e24_cut1_mono_resampled.wav
2	24	4	4	2	I	2	0	561	1	poli_8sides 7_whiteLine3.jpg	Long_e17_cut2_mono_resampled.wav
2	25	3	3	2	I	1	0	972	0	poli_8sides 10_whiteLine3.jpg	Long_b01_cut2_L_mono_resampled.wav
2	26	4	3	2	I	2	0	671	1	poli_8sides 7_whiteLine3.jpg	Long_b01_cut2_L_mono_resampled.wav
2	27	2	2	1	C	1	1	772	1	poli_8sides 13_whiteLine3.jpg	Long_e24_cut1_mono_resampled.wav
2	28	1	2	0	C	2	1	624	1	poli_8sides 11_whiteLine3.jpg	Long_e24_cut1_mono_resampled.wav
2	29	3	4	2	I	1	0	642	1	poli_8sides 10_whiteLine3.jpg	Long_e17_cut2_mono_resampled.wav
2	30	4	4	2	I	1	0	617	1	poli_8sides 7_whiteLine3.jpg	Long_e17_cut2_mono_resampled.wav
2	31	1	1	1	C	1	1	647	1	poli_8sides 11_whiteLine3.jpg	Long_s10_cut2_l_mono_resampled.wav
2	32	2	1	0	C	1	0	696	0	poli_8sides 13_whiteLine3.jpg	Long_s10_cut2_l_mono_resampled.wav
2	33	3	4	2	I	1	0	468	0	poli_8sides 10_whiteLine3.jpg	Long_e17_cut2_mono_resampled.wav
2	34	1	1	1	C	1	1	682	1	poli_8sides 11_whiteLine3.jpg	Long_s10_cut2_l_mono_resampled.wav
2	35	4	3	2	I	2	0	923	1	poli_8sides 7_whiteLine3.jpg	Long_b01_cut2_L_mono_resampled.wav
2	36	2	1	0	C	1	0	536	0	poli_8sides 13_whiteLine3.jpg	Long_s10_cut2_l_mono_resampled.wav
2	37	4	4	2	I	1	0	653	0	poli_8sides 7_whiteLine3.jpg	Long_e17_cut2_mono_resampled.wav
2	38	1	2	0	C	2	1	796	1	poli_8sides 11_whiteLine3.jpg	Long_e24_cut1_mono_resampled.wav
2	39	3	3	2	I	2	0	732	0	poli_8sides 10_whiteLine3.jpg	Long_b01_cut2_L_mono_resampled.wav
2	40	2	2	1	C	1	1	918	1	poli_8sides 13_whiteLine3.jpg	Long_e24_cut1_mono_resampled.wav
2	41	4	4	2	I	2	0	954	1	poli_8sides 7_whiteLine3.jpg	Long_e17_cut2_mono_resampled.wav
2	42	2	1	0	C	2	1	791	1	poli_8sides 13_whiteLine3.jpg	Long_s10_cut2_l_mono_resampled.wav
2	43	1	2	0	C	2	1	564	1	poli_8sides 11_whiteLine3.jpg	Long_e24_cut1_mono_resampled.wav
2	44	3	3	2	I	2	0	897	0	poli_8sides 10_whiteLine3.jpg	Long_b01_cut2_L_mono_resampled.wav
2	45	4	3	2	I	2	0	571	0	poli_8sides 7_whiteLine3.jpg	Long_b01_cut2_L_mono_resampled.wav
2	46	2	2	1	C	1	1	790	1	poli_8sides 13_whiteLine3.jpg	Long_e24_cut1_mono_resampled.wav
2	47	3	4	2	I	1	0	665	0	poli_8sides 10_whiteLine3.jpg	Long_e17_cut2_mono_resampled.wav
2	48	1	1	1	C	1	1	684	1	poli_8sides 11_whiteLine3.jpg	Long_s10_cut2_l_mono_resampled.wav
2	49	2	1	0	C	2	1	839	1	poli_8sides 13_whiteLine3.jpg	Long_s10_cut2_l_mono_resampled.wav
2	50	3	4	2	I	1	0	674	1	poli_8sides 10_whiteLine3.jpg	Long_e17_cut2_mono_resampled.wav
2	51	1	2	0	C	2	1	562	1	poli_8sides 11_whiteLine3.jpg	Long_e24_cut1_mono_resampled.wav
2	52	4	4	2	I	2	0	861	1	poli_8sides 7_whiteLine3.jpg	Long_e17_cut2_mono_resampled.wav
2	53	2	2	1	C	1	1	754	1	poli_8sides 13_whiteLine3.jpg	Long_e24_cut1_mono_resampled.wav
2	54	3	3	2	I	1	0	583	1	poli_8sides 10_whiteLine3.jpg	Long_b01_cut2_L_mono_resampled.wav
2	55	1	1	1	C	2	0	570	0	poli_8sides 11_whiteLine3.jpg	Long_s10_cut2_l_mono_resampled.wav
2	56	4	3	2	I	2	0	646	0	poli_8sides 7_whiteLine3.jpg	Long_b01_cut2_L_mono_resampled.wav
2	57	1	2	0	C	2	1	578	1	poli_8sides 11_whiteLine3.jpg	Long_e24_cut1_mono_resampled.wav
2	58	4	4	2	I	2	0	773	1	poli_8sides 7_whiteLine3.jpg	Long_e17_cut2_mono_resampled.wav
2	59	2	2	1	C	1	1	656	1	poli_8sides 13_whiteLine3.jpg	Long_e24_cut1_mono_resampled.wav
2	60	3	3	2	I	2	0	975	1	poli_8sides 10_whiteLine3.jpg	Long_b01_cut2_L_mono_resampled.wav
2	61	1	1	1	C	1	1	779	1	poli_8sides 11_whiteLine3.jpg	Long_s10_cut2_l_mono_resampled.wav
2	62	4	3	2	I	1	0	1170	0	poli_8sides 7_whiteLine3.jpg	Long_b01_cut2_L_mono_resampled.wav
2	63	3	4	2	I	2	0	1258	0	poli_8sides 10_whiteLine3.jpg	Long_e17_cut2_mono_resampled.wav
2	64	2	1	0	C	2	1	946	1	poli_8sides 13_whiteLine3.jpg	Long_s10_cut2_l_mono_resampled.wav
2	65	3	4	2	I	2	0	783	0	poli_8sides 10_whiteLine3.jpg	Long_e17_cut2_mono_resampled.wav
2	66	2	2	1	C	1	1	770	1	poli_8sides 13_whiteLine3.jpg	Long_e24_cut1_mono_resampled.wav
2	67	4	3	2	I	1	0	1317	0	poli_8sides 7_whiteLine3.jpg	Long_b01_cut2_L_mono_resampled.wav
2	68	1	2	0	C	2	1	673	1	poli_8sides 11_whiteLine3.jpg	Long_e24_cut1_mono_resampled.wav
2	69	4	4	2	I	2	0	1214	1	poli_8sides 7_whiteLine3.jpg	Long_e17_cut2_mono_resampled.wav
2	70	3	3	2	I	2	0	968	0	poli_8sides 10_whiteLine3.jpg	Long_b01_cut2_L_mono_resampled.wav
2	71	2	1	0	C	2	1	867	1	poli_8sides 13_whiteLine3.jpg	Long_s10_cut2_l_mono_resampled.wav
2	72	1	1	1	C	1	1	945	1	poli_8sides 11_whiteLine3.jpg	Long_s10_cut2_l_mono_resampled.wav
2	73	2	2	1	C	1	1	1249	1	poli_8sides 13_whiteLine3.jpg	Long_e24_cut1_mono_resampled.wav
2	74	4	4	2	I	1	0	845	0	poli_8sides 7_whiteLine3.jpg	Long_e17_cut2_mono_resampled.wav
2	75	1	2	0	C	2	1	538	1	poli_8sides 11_whiteLine3.jpg	Long_e24_cut1_mono_resampled.wav
2	76	3	4	2	I	2	0	907	1	poli_8sides 10_whiteLine3.jpg	Long_e17_cut2_mono_resampled.wav
2	77	2	1	0	C	2	1	826	1	poli_8sides 13_whiteLine3.jpg	Long_s10_cut2_l_mono_resampled.wav
2	78	3	3	2	I	2	0	967	1	poli_8sides 10_whiteLine3.jpg	Long_b01_cut2_L_mono_resampled.wav
2	79	4	3	2	I	2	0	897	0	poli_8sides 7_whiteLine3.jpg	Long_b01_cut2_L_mono_resampled.wav
2	80	1	1	1	C	1	1	831	1	poli_8sides 11_whiteLine3.jpg	Long_s10_cut2_l_mono_resampled.wav
2	81	3	4	2	I	1	0	1273	0	poli_8sides 10_whiteLine3.jpg	Long_e17_cut2_mono_resampled.wav
2	82	2	2	1	C	1	1	880	1	poli_8sides 13_whiteLine3.jpg	Long_e24_cut1_mono_resampled.wav
2	83	1	1	1	C	1	1	830	1	poli_8sides 11_whiteLine3.jpg	Long_s10_cut2_l_mono_resampled.wav
2	84	4	4	2	I	2	0	809	1	poli_8sides 7_whiteLine3.jpg	Long_e17_cut2_mono_resampled.wav
2	85	1	2	0	C	2	1	691	1	poli_8sides 11_whiteLine3.jpg	Long_e24_cut1_mono_resampled.wav
2	86	2	1	0	C	2	1	861	1	poli_8sides 13_whiteLine3.jpg	Long_s10_cut2_l_mono_resampled.wav
2	87	3	3	2	I	2	0	694	1	poli_8sides 10_whiteLine3.jpg	Long_b01_cut2_L_mono_resampled.wav
2	88	4	3	2	I	2	0	671	1	poli_8sides 7_whiteLine3.jpg	Long_b01_cut2_L_mono_resampled.wav
2	89	2	2	1	C	1	1	610	1	poli_8sides 13_whiteLine3.jpg	Long_e24_cut1_mono_resampled.wav
2	90	1	2	0	C	2	1	790	1	poli_8sides 11_whiteLine3.jpg	Long_e24_cut1_mono_resampled.wav
2	91	4	4	2	I	2	0	693	1	poli_8sides 7_whiteLine3.jpg	Long_e17_cut2_mono_resampled.wav
2	92	3	4	2	I	2	0	488	1	poli_8sides 10_whiteLine3.jpg	Long_e17_cut2_mono_resampled.wav
2	93	4	3	2	I	2	0	726	1	poli_8sides 7_whiteLine3.jpg	Long_b01_cut2_L_mono_resampled.wav
2	94	3	3	2	I	2	0	827	1	poli_8sides 10_whiteLine3.jpg	Long_b01_cut2_L_mono_resampled.wav
2	95	2	1	0	C	2	1	786	1	poli_8sides 13_whiteLine3.jpg	Long_s10_cut2_l_mono_resampled.wav
2	96	1	1	1	C	1	1	799	1	poli_8sides 11_whiteLine3.jpg	Long_s10_cut2_l_mono_resampled.wav
2	97	4	4	2	I	2	0	755	1	poli_8sides 7_whiteLine3.jpg	Long_e17_cut2_mono_resampled.wav
2	98	1	2	0	C	2	1	594	1	poli_8sides 11_whiteLine3.jpg	Long_e24_cut1_mono_resampled.wav
2	99	2	2	1	C	1	1	716	1	poli_8sides 13_whiteLine3.jpg	Long_e24_cut1_mono_resampled.wav
2	100	3	4	2	I	2	0	683	0	poli_8sides 10_whiteLine3.jpg	Long_e17_cut2_mono_resampled.wav
2	101	4	3	2	I	1	0	535	0	poli_8sides 7_whiteLine3.jpg	Long_b01_cut2_L_mono_resampled.wav
2	102	3	3	2	I	1	0	702	1	poli_8sides 10_whiteLine3.jpg	Long_b01_cut2_L_mono_resampled.wav
2	103	1	1	1	C	1	1	806	1	poli_8sides 11_whiteLine3.jpg	Long_s10_cut2_l_mono_resampled.wav
2	104	2	1	0	C	2	1	890	1	poli_8sides 13_whiteLine3.jpg	Long_s10_cut2_l_mono_resampled.wav
2	105	1	1	1	C	1	1	658	1	poli_8sides 11_whiteLine3.jpg	Long_s10_cut2_l_mono_resampled.wav
2	106	2	2	1	C	1	1	724	1	poli_8sides 13_whiteLine3.jpg	Long_e24_cut1_mono_resampled.wav
2	107	4	4	2	I	1	0	630	0	poli_8sides 7_whiteLine3.jpg	Long_e17_cut2_mono_resampled.wav
2	108	3	3	2	I	2	0	725	0	poli_8sides 10_whiteLine3.jpg	Long_b01_cut2_L_mono_resampled.wav
2	109	2	1	0	C	2	1	673	1	poli_8sides 13_whiteLine3.jpg	Long_s10_cut2_l_mono_resampled.wav
2	110	4	3	2	I	2	0	595	1	poli_8sides 7_whiteLine3.jpg	Long_b01_cut2_L_mono_resampled.wav
2	111	1	2	0	C	2	1	614	1	poli_8sides 11_whiteLine3.jpg	Long_e24_cut1_mono_resampled.wav
2	112	3	4	2	I	2	0	617	1	poli_8sides 10_whiteLine3.jpg	Long_e17_cut2_mono_resampled.wav
2	113	2	1	0	C	2	1	664	1	poli_8sides 13_whiteLine3.jpg	Long_s10_cut2_l_mono_resampled.wav
2	114	3	4	2	I	2	0	622	1	poli_8sides 10_whiteLine3.jpg	Long_e17_cut2_mono_resampled.wav
2	115	4	3	2	I	2	0	539	0	poli_8sides 7_whiteLine3.jpg	Long_b01_cut2_L_mono_resampled.wav
2	116	1	2	0	C	2	1	483	1	poli_8sides 11_whiteLine3.jpg	Long_e24_cut1_mono_resampled.wav
2	117	3	3	2	I	2	0	435	0	poli_8sides 10_whiteLine3.jpg	Long_b01_cut2_L_mono_resampled.wav
2	118	1	1	1	C	2	0	697	0	poli_8sides 11_whiteLine3.jpg	Long_s10_cut2_l_mono_resampled.wav
2	119	2	2	1	C	2	0	533	0	poli_8sides 13_whiteLine3.jpg	Long_e24_cut1_mono_resampled.wav
2	120	4	4	2	I	2	0	531	1	poli_8sides 7_whiteLine3.jpg	Long_e17_cut2_mono_resampled.wav
2	121	1	1	1	C	1	1	910	1	poli_8sides 11_whiteLine3.jpg	Long_s10_cut2_l_mono_resampled.wav
2	122	3	4	2	I	1	0	587	0	poli_8sides 10_whiteLine3.jpg	Long_e17_cut2_mono_resampled.wav
2	123	2	1	0	C	2	1	813	1	poli_8sides 13_whiteLine3.jpg	Long_s10_cut2_l_mono_resampled.wav
2	124	4	3	2	I	2	0	619	0	poli_8sides 7_whiteLine3.jpg	Long_b01_cut2_L_mono_resampled.wav
2	125	3	3	2	I	2	0	607	1	poli_8sides 10_whiteLine3.jpg	Long_b01_cut2_L_mono_resampled.wav
2	126	4	4	2	I	2	0	684	0	poli_8sides 7_whiteLine3.jpg	Long_e17_cut2_mono_resampled.wav
2	127	1	2	0	C	2	1	562	1	poli_8sides 11_whiteLine3.jpg	Long_e24_cut1_mono_resampled.wav
2	128	2	2	1	C	2	0	467	0	poli_8sides 13_whiteLine3.jpg	Long_e24_cut1_mono_resampled.wav
2	129	1	2	0	C	2	1	536	1	poli_8sides 11_whiteLine3.jpg	Long_e24_cut1_mono_resampled.wav
2	130	2	2	1	C	1	1	617	1	poli_8sides 13_whiteLine3.jpg	Long_e24_cut1_mono_resampled.wav
2	131	4	3	2	I	2	0	587	0	poli_8sides 7_whiteLine3.jpg	Long_b01_cut2_L_mono_resampled.wav
2	132	3	4	2	I	2	0	589	1	poli_8sides 10_whiteLine3.jpg	Long_e17_cut2_mono_resampled.wav
2	133	1	1	1	C	1	1	638	1	poli_8sides 11_whiteLine3.jpg	Long_s10_cut2_l_mono_resampled.wav
2	134	4	4	2	I	2	0	479	0	poli_8sides 7_whiteLine3.jpg	Long_e17_cut2_mono_resampled.wav
2	135	2	1	0	C	1	0	560	0	poli_8sides 13_whiteLine3.jpg	Long_s10_cut2_l_mono_resampled.wav
2	136	3	3	2	I	2	0	773	1	poli_8sides 10_whiteLine3.jpg	Long_b01_cut2_L_mono_resampled.wav
2	137	2	2	1	C	1	1	824	1	poli_8sides 13_whiteLine3.jpg	Long_e24_cut1_mono_resampled.wav
2	138	1	1	1	C	1	1	725	1	poli_8sides 11_whiteLine3.jpg	Long_s10_cut2_l_mono_resampled.wav
2	139	4	4	2	I	2	0	618	1	poli_8sides 7_whiteLine3.jpg	Long_e17_cut2_mono_resampled.wav
2	140	3	3	2	I	2	0	726	1	poli_8sides 10_whiteLine3.jpg	Long_b01_cut2_L_mono_resampled.wav
2	141	1	2	0	C	2	1	639	1	poli_8sides 11_whiteLine3.jpg	Long_e24_cut1_mono_resampled.wav
2	142	4	3	2	I	2	0	544	1	poli_8sides 7_whiteLine3.jpg	Long_b01_cut2_L_mono_resampled.wav
2	143	2	1	0	C	1	0	563	0	poli_8sides 13_whiteLine3.jpg	Long_s10_cut2_l_mono_resampled.wav
2	144	3	4	2	I	2	0	603	0	poli_8sides 10_whiteLine3.jpg	Long_e17_cut2_mono_resampled.wav
2	145	1	2	0	C	2	1	600	1	poli_8sides 11_whiteLine3.jpg	Long_e24_cut1_mono_resampled.wav
2	146	2	2	1	C	1	1	734	1	poli_8sides 13_whiteLine3.jpg	Long_e24_cut1_mono_resampled.wav
2	147	4	4	2	I	2	0	641	1	poli_8sides 7_whiteLine3.jpg	Long_e17_cut2_mono_resampled.wav
2	148	3	4	2	I	2	0	634	1	poli_8sides 10_whiteLine3.jpg	Long_e17_cut2_mono_resampled.wav
2	149	4	3	2	I	2	0	542	0	poli_8sides 7_whiteLine3.jpg	Long_b01_cut2_L_mono_resampled.wav
2	150	2	1	0	C	2	1	676	1	poli_8sides 13_whiteLine3.jpg	Long_s10_cut2_l_mono_resampled.wav
2	151	1	1	1	C	1	1	791	1	poli_8sides 11_whiteLine3.jpg	Long_s10_cut2_l_mono_resampled.wav
2	152	3	3	2	I	2	0	586	0	poli_8sides 10_whiteLine3.jpg	Long_b01_cut2_L_mono_resampled.wav
2	153	2	1	0	C	2	1	534	1	poli_8sides 13_whiteLine3.jpg	Long_s10_cut2_l_mono_resampled.wav
2	154	3	4	2	I	2	0	726	1	poli_8sides 10_whiteLine3.jpg	Long_e17_cut2_mono_resampled.wav
2	155	4	4	2	I	2	0	490	1	poli_8sides 7_whiteLine3.jpg	Long_e17_cut2_mono_resampled.wav
2	156	1	1	1	C	2	0	737	0	poli_8sides 11_whiteLine3.jpg	Long_s10_cut2_l_mono_resampled.wav
2	157	3	3	2	I	2	0	547	0	poli_8sides 10_whiteLine3.jpg	Long_b01_cut2_L_mono_resampled.wav
2	158	1	2	0	C	2	1	594	1	poli_8sides 11_whiteLine3.jpg	Long_e24_cut1_mono_resampled.wav
2	159	4	3	2	I	2	0	488	0	poli_8sides 7_whiteLine3.jpg	Long_b01_cut2_L_mono_resampled.wav
2	160	2	2	1	C	2	0	448	0	poli_8sides 13_whiteLine3.jpg	Long_e24_cut1_mono_resampled.wav
2	161	3	4	2	I	2	0	500	1	poli_8sides 10_whiteLine3.jpg	Long_e17_cut2_mono_resampled.wav
2	162	4	3	2	I	2	0	506	0	poli_8sides 7_whiteLine3.jpg	Long_b01_cut2_L_mono_resampled.wav
2	163	2	1	0	C	2	1	685	1	poli_8sides 13_whiteLine3.jpg	Long_s10_cut2_l_mono_resampled.wav
2	164	1	1	1	C	2	0	413	0	poli_8sides 11_whiteLine3.jpg	Long_s10_cut2_l_mono_resampled.wav
2	165	4	4	2	I	2	0	475	0	poli_8sides 7_whiteLine3.jpg	Long_e17_cut2_mono_resampled.wav
2	166	3	3	2	I	2	0	530	0	poli_8sides 10_whiteLine3.jpg	Long_b01_cut2_L_mono_resampled.wav
2	167	2	2	1	C	1	1	815	1	poli_8sides 13_whiteLine3.jpg	Long_e24_cut1_mono_resampled.wav
2	168	1	2	0	C	2	1	417	1	poli_8sides 11_whiteLine3.jpg	Long_e24_cut1_mono_resampled.wav
2	169	2	1	0	C	2	1	900	1	poli_8sides 13_whiteLine3.jpg	Long_s10_cut2_l_mono_resampled.wav
2	170	3	3	2	I	2	0	773	0	poli_8sides 10_whiteLine3.jpg	Long_b01_cut2_L_mono_resampled.wav
2	171	4	4	2	I	2	0	620	0	poli_8sides 7_whiteLine3.jpg	Long_e17_cut2_mono_resampled.wav
2	172	1	1	1	C	1	1	811	1	poli_8sides 11_whiteLine3.jpg	Long_s10_cut2_l_mono_resampled.wav
2	173	4	3	2	I	2	0	500	1	poli_8sides 7_whiteLine3.jpg	Long_b01_cut2_L_mono_resampled.wav
2	174	3	4	2	I	2	0	598	0	poli_8sides 10_whiteLine3.jpg	Long_e17_cut2_mono_resampled.wav
2	175	1	2	0	C	2	1	679	1	poli_8sides 11_whiteLine3.jpg	Long_e24_cut1_mono_resampled.wav
2	176	2	2	1	C	1	1	712	1	poli_8sides 13_whiteLine3.jpg	Long_e24_cut1_mono_resampled.wav
2	177	1	1	1	C	1	1	767	1	poli_8sides 11_whiteLine3.jpg	Long_s10_cut2_l_mono_resampled.wav
2	178	2	2	1	C	2	0	750	0	poli_8sides 13_whiteLine3.jpg	Long_e24_cut1_mono_resampled.wav
2	179	3	3	2	I	2	0	737	1	poli_8sides 10_whiteLine3.jpg	Long_b01_cut2_L_mono_resampled.wav
2	180	4	4	2	I	2	0	646	0	poli_8sides 7_whiteLine3.jpg	Long_e17_cut2_mono_resampled.wav
2	181	1	2	0	C	2	1	616	1	poli_8sides 11_whiteLine3.jpg	Long_e24_cut1_mono_resampled.wav
2	182	3	4	2	I	2	0	544	1	poli_8sides 10_whiteLine3.jpg	Long_e17_cut2_mono_resampled.wav
2	183	4	3	2	I	2	0	566	0	poli_8sides 7_whiteLine3.jpg	Long_b01_cut2_L_mono_resampled.wav
2	184	2	1	0	C	2	1	588	1	poli_8sides 13_whiteLine3.jpg	Long_s10_cut2_l_mono_resampled.wav
2	185	4	4	2	I	2	0	492	0	poli_8sides 7_whiteLine3.jpg	Long_e17_cut2_mono_resampled.wav
2	186	3	3	2	I	2	0	518	0	poli_8sides 10_whiteLine3.jpg	Long_b01_cut2_L_mono_resampled.wav
2	187	2	1	0	C	2	1	545	1	poli_8sides 13_whiteLine3.jpg	Long_s10_cut2_l_mono_resampled.wav
2	188	1	2	0	C	2	1	571	1	poli_8sides 11_whiteLine3.jpg	Long_e24_cut1_mono_resampled.wav
2	189	4	3	2	I	2	0	523	0	poli_8sides 7_whiteLine3.jpg	Long_b01_cut2_L_mono_resampled.wav
2	190	1	1	1	C	2	0	514	0	poli_8sides 11_whiteLine3.jpg	Long_s10_cut2_l_mono_resampled.wav
2	191	2	2	1	C	1	1	1302	1	poli_8sides 13_whiteLine3.jpg	Long_e24_cut1_mono_resampled.wav
2	192	3	4	2	I	2	0	687	1	poli_8sides 10_whiteLine3.jpg	Long_e17_cut2_mono_resampled.wav
2	193	4	4	2	I	2	0	536	0	poli_8sides 7_whiteLine3.jpg	Long_e17_cut2_mono_resampled.wav
2	194	1	1	1	C	1	1	678	1	poli_8sides 11_whiteLine3.jpg	Long_s10_cut2_l_mono_resampled.wav
2	195	2	1	0	C	2	1	648	1	poli_8sides 13_whiteLine3.jpg	Long_s10_cut2_l_mono_resampled.wav
2	196	3	3	2	I	2	0	570	1	poli_8sides 10_whiteLine3.jpg	Long_b01_cut2_L_mono_resampled.wav
2	197	2	2	1	C	1	1	713	1	poli_8sides 13_whiteLine3.jpg	Long_e24_cut1_mono_resampled.wav
2	198	4	3	2	I	2	0	487	0	poli_8sides 7_whiteLine3.jpg	Long_b01_cut2_L_mono_resampled.wav
2	199	1	2	0	C	2	1	618	1	poli_8sides 11_whiteLine3.jpg	Long_e24_cut1_mono_resampled.wav
2	200	3	4	2	I	2	0	446	1	poli_8sides 10_whiteLine3.jpg	Long_e17_cut2_mono_resampled.wav
3	1	2	2	1	C	2	0	849	0	poli_8sides 5_whiteLine3.jpg	MediumLong_e04_mono_resampled.wav
3	2	1	1	1	C	2	0	579	0	poli_8sides 3_whiteLine3.jpg	MediumLong_b23_cut4_ML_mono_resampled.wav
3	3	4	3	2	I	2	0	573	1	poli_8sides 19_whiteLine3.jpg	Medium_e13_mono_resampled.wav
3	4	3	3	2	I	1	0	741	0	poli_8sides 14_whiteLine3.jpg	Medium_e13_mono_resampled.wav
3	5	2	1	0	C	2	1	727	1	poli_8sides 5_whiteLine3.jpg	MediumLong_b23_cut4_ML_mono_resampled.wav
3	6	3	4	2	I	2	0	613	1	poli_8sides 14_whiteLine3.jpg	Medium_e21_mono_resampled.wav
3	7	4	4	2	I	1	0	710	0	poli_8sides 19_whiteLine3.jpg	Medium_e21_mono_resampled.wav
3	8	1	2	0	C	1	0	829	0	poli_8sides 3_whiteLine3.jpg	MediumLong_e04_mono_resampled.wav
3	9	3	4	2	I	1	0	509	0	poli_8sides 14_whiteLine3.jpg	Medium_e21_mono_resampled.wav
3	10	1	1	1	C	2	0	451	0	poli_8sides 3_whiteLine3.jpg	MediumLong_b23_cut4_ML_mono_resampled.wav
3	11	2	2	1	C	2	0	687	0	poli_8sides 5_whiteLine3.jpg	MediumLong_e04_mono_resampled.wav
3	12	4	3	2	I	2	0	594	0	poli_8sides 19_whiteLine3.jpg	Medium_e13_mono_resampled.wav
3	13	3	3	2	I	2	0	604	1	poli_8sides 14_whiteLine3.jpg	Medium_e13_mono_resampled.wav
3	14	2	1	0	C	2	1	612	1	poli_8sides 5_whiteLine3.jpg	MediumLong_b23_cut4_ML_mono_resampled.wav
3	15	4	4	2	I	2	0	736	0	poli_8sides 19_whiteLine3.jpg	Medium_e21_mono_resampled.wav
3	16	1	2	0	C	1	0	699	0	poli_8sides 3_whiteLine3.jpg	MediumLong_e04_mono_resampled.wav
3	17	3	3	2	I	2	0	716	0	poli_8sides 14_whiteLine3.jpg	Medium_e13_mono_resampled.wav
3	18	2	2	1	C	2	0	592	0	poli_8sides 5_whiteLine3.jpg	MediumLong_e04_mono_resampled.wav
3	19	4	4	2	I	2	0	673	0	poli_8sides 19_whiteLine3.jpg	Medium_e21_mono_resampled.wav
3	20	1	2	0	C	1	0	1023	0	poli_8sides 3_whiteLine3.jpg	MediumLong_e04_mono_resampled.wav
3	21	4	3	2	I	2	0	639	1	poli_8sides 19_whiteLine3.jpg	Medium_e13_mono_resampled.wav
3	22	1	1	1	C	1	1	747	1	poli_8sides 3_whiteLine3.jpg	MediumLong_b23_cut4_ML_mono_resampled.wav
3	23	3	4	2	I	1	0	827	0	poli_8sides 14_whiteLine3.jpg	Medium_e21_mono_resampled.wav
3	24	2	1	0	C	2	1	661	1	poli_8sides 5_whiteLine3.jpg	MediumLong_b23_cut4_ML_mono_resampled.wav
3	25	3	4	2	I	2	0	759	1	poli_8sides 14_whiteLine3.jpg	Medium_e21_mono_resampled.wav
3	26	2	2	1	C	2	0	645	0	poli_8sides 5_whiteLine3.jpg	MediumLong_e04_mono_resampled.wav
3	27	1	1	1	C	1	1	577	1	poli_8sides 3_whiteLine3.jpg	MediumLong_b23_cut4_ML_mono_resampled.wav
3	28	4	4	2	I	2	0	731	1	poli_8sides 19_whiteLine3.jpg	Medium_e21_mono_resampled.wav
3	29	3	3	2	I	2	0	908	0	poli_8sides 14_whiteLine3.jpg	Medium_e13_mono_resampled.wav
3	30	2	1	0	C	2	1	458	1	poli_8sides 5_whiteLine3.jpg	MediumLong_b23_cut4_ML_mono_resampled.wav
3	31	1	2	0	C	2	1	489	1	poli_8sides 3_whiteLine3.jpg	MediumLong_e04_mono_resampled.wav
3	32	4	3	2	I	2	0	657	0	poli_8sides 19_whiteLine3.jpg	Medium_e13_mono_resampled.wav
3	33	3	3	2	I	2	0	440	0	poli_8sides 14_whiteLine3.jpg	Medium_e13_mono_resampled.wav
3	34	1	2	0	C	2	1	680	1	poli_8sides 3_whiteLine3.jpg	MediumLong_e04_mono_resampled.wav
3	35	4	4	2	I	2	0	515	1	poli_8sides 19_whiteLine3.jpg	Medium_e21_mono_resampled.wav
3	36	2	1	0	C	2	1	579	1	poli_8sides 5_whiteLine3.jpg	MediumLong_b23_cut4_ML_mono_resampled.wav
3	37	1	1	1	C	2	0	442	0	poli_8sides 3_whiteLine3.jpg	MediumLong_b23_cut4_ML_mono_resampled.wav
3	38	2	2	1	C	2	0	530	0	poli_8sides 5_whiteLine3.jpg	MediumLong_e04_mono_resampled.wav
3	39	4	3	2	I	2	0	360	1	poli_8sides 19_whiteLine3.jpg	Medium_e13_mono_resampled.wav
3	40	3	4	2	I	2	0	566	0	poli_8sides 14_whiteLine3.jpg	Medium_e21_mono_resampled.wav
3	41	4	4	2	I	2	0	661	1	poli_8sides 19_whiteLine3.jpg	Medium_e21_mono_resampled.wav
3	42	3	4	2	I	2	0	719	1	poli_8sides 14_whiteLine3.jpg	Medium_e21_mono_resampled.wav
3	43	1	1	1	C	1	1	626	1	poli_8sides 3_whiteLine3.jpg	MediumLong_b23_cut4_ML_mono_resampled.wav
3	44	2	1	0	C	2	1	384	1	poli_8sides 5_whiteLine3.jpg	MediumLong_b23_cut4_ML_mono_resampled.wav
3	45	4	3	2	I	2	0	667	0	poli_8sides 19_whiteLine3.jpg	Medium_e13_mono_resampled.wav
3	46	2	2	1	C	2	0	577	0	poli_8sides 5_whiteLine3.jpg	MediumLong_e04_mono_resampled.wav
3	47	3	3	2	I	2	0	814	1	poli_8sides 14_whiteLine3.jpg	Medium_e13_mono_resampled.wav
3	48	1	2	0	C	2	1	713	1	poli_8sides 3_whiteLine3.jpg	MediumLong_e04_mono_resampled.wav
3	49	2	1	0	C	2	1	322	1	poli_8sides 5_whiteLine3.jpg	MediumLong_b23_cut4_ML_mono_resampled.wav
3	50	3	4	2	I	2	0	697	0	poli_8sides 14_whiteLine3.jpg	Medium_e21_mono_resampled.wav
3	51	1	1	1	C	1	1	663	1	poli_8sides 3_whiteLine3.jpg	MediumLong_b23_cut4_ML_mono_resampled.wav
3	52	4	4	2	I	1	0	486	1	poli_8sides 19_whiteLine3.jpg	Medium_e21_mono_resampled.wav
3	53	2	2	1	C	1	1	831	1	poli_8sides 5_whiteLine3.jpg	MediumLong_e04_mono_resampled.wav
3	54	3	3	2	I	2	0	662	0	poli_8sides 14_whiteLine3.jpg	Medium_e13_mono_resampled.wav
3	55	4	3	2	I	1	0	604	0	poli_8sides 19_whiteLine3.jpg	Medium_e13_mono_resampled.wav
3	56	1	2	0	C	1	0	846	0	poli_8sides 3_whiteLine3.jpg	MediumLong_e04_mono_resampled.wav
3	57	2	1	0	C	1	0	871	0	poli_8sides 5_whiteLine3.jpg	MediumLong_b23_cut4_ML_mono_resampled.wav
3	58	1	2	0	C	2	1	787	1	poli_8sides 3_whiteLine3.jpg	MediumLong_e04_mono_resampled.wav
3	59	3	4	2	I	2	0	609	1	poli_8sides 14_whiteLine3.jpg	Medium_e21_mono_resampled.wav
3	60	4	3	2	I	2	0	545	1	poli_8sides 19_whiteLine3.jpg	Medium_e13_mono_resampled.wav
3	61	2	2	1	C	1	1	1005	1	poli_8sides 5_whiteLine3.jpg	MediumLong_e04_mono_resampled.wav
3	62	3	3	2	I	2	0	640	1	poli_8sides 14_whiteLine3.jpg	Medium_e13_mono_resampled.wav
3	63	1	1	1	C	1	1	773	1	poli_8sides 3_whiteLine3.jpg	MediumLong_b23_cut4_ML_mono_resampled.wav
3	64	4	4	2	I	2	0	549	0	poli_8sides 19_whiteLine3.jpg	Medium_e21_mono_resampled.wav
3	65	3	4	2	I	2	0	536	1	poli_8sides 14_whiteLine3.jpg	Medium_e21_mono_resampled.wav
3	66	2	1	0	C	2	1	565	1	poli_8sides 5_whiteLine3.jpg	MediumLong_b23_cut4_ML_mono_resampled.wav
3	67	4	4	2	I	2	0	603	1	poli_8sides 19_whiteLine3.jpg	Medium_e21_mono_resampled.wav
3	68	1	2	0	C	2	1	642	1	poli_8sides 3_whiteLine3.jpg	MediumLong_e04_mono_resampled.wav
3	69	4	3	2	I	1	0	781	0	poli_8sides 19_whiteLine3.jpg	Medium_e13_mono_resampled.wav
3	70	2	2	1	C	2	0	595	0	poli_8sides 5_whiteLine3.jpg	MediumLong_e04_mono_resampled.wav
3	71	3	3	2	I	2	0	532	1	poli_8sides 14_whiteLine3.jpg	Medium_e13_mono_resampled.wav
3	72	1	1	1	C	1	1	906	1	poli_8sides 3_whiteLine3.jpg	MediumLong_b23_cut4_ML_mono_resampled.wav
3	73	2	2	1	C	2	0	525	0	poli_8sides 5_whiteLine3.jpg	MediumLong_e04_mono_resampled.wav
3	74	1	1	1	C	2	0	428	0	poli_8sides 3_whiteLine3.jpg	MediumLong_b23_cut4_ML_mono_resampled.wav
3	75	3	3	2	I	2	0	364	0	poli_8sides 14_whiteLine3.jpg	Medium_e13_mono_resampled.wav
3	76	4	3	2	I	2	0	527	0	poli_8sides 19_whiteLine3.jpg	Medium_e13_mono_resampled.wav
3	77	1	2	0	C	2	1	460	1	poli_8sides 3_whiteLine3.jpg	MediumLong_e04_mono_resampled.wav
3	78	2	1	0	C	2	1	539	1	poli_8sides 5_whiteLine3.jpg	MediumLong_b23_cut4_ML_mono_resampled.wav
3	79	4	4	2	I	2	0	483	1	poli_8sides 19_whiteLine3.jpg	Medium_e21_mono_resampled.wav
3	80	3	4	2	I	2	0	562	0	poli_8sides 14_whiteLine3.jpg	Medium_e21_mono_resampled.wav
3	81	2	2	1	C	1	1	677	1	poli_8sides 5_whiteLine3.jpg	MediumLong_e04_mono_resampled.wav
3	82	3	4	2	I	2	0	596	1	poli_8sides 14_whiteLine3.jpg	Medium_e21_mono_resampled.wav
3	83	1	2	0	C	2	1	629	1	poli_8sides 3_whiteLine3.jpg	MediumLong_e04_mono_resampled.wav
3	84	4	3	2	I	2	0	497	0	poli_8sides 19_whiteLine3.jpg	Medium_e13_mono_resampled.wav
3	85	3	3	2	I	2	0	463	0	poli_8sides 14_whiteLine3.jpg	Medium_e13_mono_resampled.wav
3	86	4	4	2	I	2	0	526	1	poli_8sides 19_whiteLine3.jpg	Medium_e21_mono_resampled.wav
3	87	1	1	1	C	2	0	610	0	poli_8sides 3_whiteLine3.jpg	MediumLong_b23_cut4_ML_mono_resampled.wav
3	88	2	1	0	C	2	1	648	1	poli_8sides 5_whiteLine3.jpg	MediumLong_b23_cut4_ML_mono_resampled.wav
3	89	1	2	0	C	2	1	743	1	poli_8sides 3_whiteLine3.jpg	MediumLong_e04_mono_resampled.wav
3	90	2	2	1	C	1	1	587	1	poli_8sides 5_whiteLine3.jpg	MediumLong_e04_mono_resampled.wav
3	91	4	3	2	I	2	0	593	0	poli_8sides 19_whiteLine3.jpg	Medium_e13_mono_resampled.wav
3	92	3	4	2	I	2	0	554	0	poli_8sides 14_whiteLine3.jpg	Medium_e21_mono_resampled.wav
3	93	4	4	2	I	2	0	473	0	poli_8sides 19_whiteLine3.jpg	Medium_e21_mono_resampled.wav
3	94	3	3	2	I	2	0	473	0	poli_8sides 14_whiteLine3.jpg	Medium_e13_mono_resampled.wav
3	95	2	1	0	C	2	1	491	1	poli_8sides 5_whiteLine3.jpg	MediumLong_b23_cut4_ML_mono_resampled.wav
3	96	1	1	1	C	1	1	689	1	poli_8sides 3_whiteLine3.jpg	MediumLong_b23_cut4_ML_mono_resampled.wav
3	97	2	2	1	C	1	1	843	1	poli_8sides 5_whiteLine3.jpg	MediumLong_e04_mono_resampled.wav
3	98	4	3	2	I	2	0	469	0	poli_8sides 19_whiteLine3.jpg	Medium_e13_mono_resampled.wav
3	99	3	4	2	I	2	0	554	1	poli_8sides 14_whiteLine3.jpg	Medium_e21_mono_resampled.wav
3	100	1	2	0	C	2	1	592	1	poli_8sides 3_whiteLine3.jpg	MediumLong_e04_mono_resampled.wav
3	101	2	1	0	C	2	1	542	1	poli_8sides 5_whiteLine3.jpg	MediumLong_b23_cut4_ML_mono_resampled.wav
3	102	4	4	2	I	2	0	455	0	poli_8sides 19_whiteLine3.jpg	Medium_e21_mono_resampled.wav
3	103	1	1	1	C	1	1	756	1	poli_8sides 3_whiteLine3.jpg	MediumLong_b23_cut4_ML_mono_resampled.wav
3	104	3	3	2	I	2	0	500	0	poli_8sides 14_whiteLine3.jpg	Medium_e13_mono_resampled.wav
3	105	4	4	2	I	2	0	434	0	poli_8sides 19_whiteLine3.jpg	Medium_e21_mono_resampled.wav
3	106	3	3	2	I	2	0	613	1	poli_8sides 14_whiteLine3.jpg	Medium_e13_mono_resampled.wav
3	107	1	1	1	C	1	1	587	1	poli_8sides 3_whiteLine3.jpg	MediumLong_b23_cut4_ML_mono_resampled.wav
3	108	2	2	1	C	1	1	675	1	poli_8sides 5_whiteLine3.jpg	MediumLong_e04_mono_resampled.wav
3	109	3	4	2	I	2	0	663	1	poli_8sides 14_whiteLine3.jpg	Medium_e21_mono_resampled.wav
3	110	4	3	2	I	2	0	537	1	poli_8sides 19_whiteLine3.jpg	Medium_e13_mono_resampled.wav
3	111	2	1	0	C	1	0	700	0	poli_8sides 5_whiteLine3.jpg	MediumLong_b23_cut4_ML_mono_resampled.wav
3	112	1	2	0	C	2	1	497	1	poli_8sides 3_whiteLine3.jpg	MediumLong_e04_mono_resampled.wav
3	113	4	4	2	I	2	0	502	0	poli_8sides 19_whiteLine3.jpg	Medium_e21_mono_resampled.wav
3	114	1	2	0	C	1	0	537	0	poli_8sides 3_whiteLine3.jpg	MediumLong_e04_mono_resampled.wav
3	115	3	4	2	I	2	0	521	1	poli_8sides 14_whiteLine3.jpg	Medium_e21_mono_resampled.wav
3	116	2	1	0	C	2	1	502	1	poli_8sides 5_whiteLine3.jpg	MediumLong_b23_cut4_ML_mono_resampled.wav
3	117	1	1	1	C	2	0	621	0	poli_8sides 3_whiteLine3.jpg	MediumLong_b23_cut4_ML_mono_resampled.wav
3	118	2	2	1	C	2	0	502	0	poli_8sides 5_whiteLine3.jpg	MediumLong_e04_mono_resampled.wav
3	119	3	3	2	I	2	0	540	1	poli_8sides 14_whiteLine3.jpg	Medium_e13_mono_resampled.wav
3	120	4	3	2	I	2	0	510	0	poli_8sides 19_whiteLine3.jpg	Medium_e13_mono_resampled.wav
3	121	3	4	2	I	2	0	467	1	poli_8sides 14_whiteLine3.jpg	Medium_e21_mono_resampled.wav
3	122	4	3	2	I	2	0	475	0	poli_8sides 19_whiteLine3.jpg	Medium_e13_mono_resampled.wav
3	123	2	1	0	C	2	1	529	1	poli_8sides 5_whiteLine3.jpg	MediumLong_b23_cut4_ML_mono_resampled.wav
3	124	1	2	0	C	2	1	618	1	poli_8sides 3_whiteLine3.jpg	MediumLong_e04_mono_resampled.wav
3	125	4	4	2	I	2	0	418	1	poli_8sides 19_whiteLine3.jpg	Medium_e21_mono_resampled.wav
3	126	2	2	1	C	1	1	725	1	poli_8sides 5_whiteLine3.jpg	MediumLong_e04_mono_resampled.wav
3	127	1	1	1	C	1	1	743	1	poli_8sides 3_whiteLine3.jpg	MediumLong_b23_cut4_ML_mono_resampled.wav
3	128	3	3	2	I	2	0	563	1	poli_8sides 14_whiteLine3.jpg	Medium_e13_mono_resampled.wav
3	129	1	1	1	C	1	1	729	1	poli_8sides 3_whiteLine3.jpg	MediumLong_b23_cut4_ML_mono_resampled.wav
3	130	4	3	2	I	2	0	443	1	poli_8sides 19_whiteLine3.jpg	Medium_e13_mono_resampled.wav
3	131	3	4	2	I	2	0	479	0	poli_8sides 14_whiteLine3.jpg	Medium_e21_mono_resampled.wav
3	132	2	2	1	C	1	1	650	1	poli_8sides 5_whiteLine3.jpg	MediumLong_e04_mono_resampled.wav
3	133	1	2	0	C	2	1	682	1	poli_8sides 3_whiteLine3.jpg	MediumLong_e04_mono_resampled.wav
3	134	4	4	2	I	2	0	738	0	poli_8sides 19_whiteLine3.jpg	Medium_e21_mono_resampled.wav
3	135	2	1	0	C	2	1	704	1	poli_8sides 5_whiteLine3.jpg	MediumLong_b23_cut4_ML_mono_resampled.wav
3	136	3	3	2	I	2	0	505	0	poli_8sides 14_whiteLine3.jpg	Medium_e13_mono_resampled.wav
3	137	2	2	1	C	1	1	705	1	poli_8sides 5_whiteLine3.jpg	MediumLong_e04_mono_resampled.wav
3	138	3	4	2	I	2	0	568	0	poli_8sides 14_whiteLine3.jpg	Medium_e21_mono_resampled.wav
3	139	4	3	2	I	2	0	473	0	poli_8sides 19_whiteLine3.jpg	Medium_e13_mono_resampled.wav
3	140	1	1	1	C	1	1	589	1	poli_8sides 3_whiteLine3.jpg	MediumLong_b23_cut4_ML_mono_resampled.wav
3	141	2	1	0	C	2	1	639	1	poli_8sides 5_whiteLine3.jpg	MediumLong_b23_cut4_ML_mono_resampled.wav
3	142	4	4	2	I	2	0	576	1	poli_8sides 19_whiteLine3.jpg	Medium_e21_mono_resampled.wav
3	143	1	2	0	C	1	0	538	0	poli_8sides 3_whiteLine3.jpg	MediumLong_e04_mono_resampled.wav
3	144	3	3	2	I	2	0	430	0	poli_8sides 14_whiteLine3.jpg	Medium_e13_mono_resampled.wav
3	145	4	4	2	I	2	0	409	1	poli_8sides 19_whiteLine3.jpg	Medium_e21_mono_resampled.wav
3	146	2	1	0	C	2	1	462	1	poli_8sides 5_whiteLine3.jpg	MediumLong_b23_cut4_ML_mono_resampled.wav
3	147	1	1	1	C	1	1	602	1	poli_8sides 3_whiteLine3.jpg	MediumLong_b23_cut4_ML_mono_resampled.wav
3	148	3	3	2	I	2	0	461	1	poli_8sides 14_whiteLine3.jpg	Medium_e13_mono_resampled.wav
3	149	2	2	1	C	1	1	749	1	poli_8sides 5_whiteLine3.jpg	MediumLong_e04_mono_resampled.wav
3	150	4	3	2	I	2	0	474	1	poli_8sides 19_whiteLine3.jpg	Medium_e13_mono_resampled.wav
3	151	3	4	2	I	2	0	451	1	poli_8sides 14_whiteLine3.jpg	Medium_e21_mono_resampled.wav
3	152	1	2	0	C	2	1	873	1	poli_8sides 3_whiteLine3.jpg	MediumLong_e04_mono_resampled.wav
3	153	3	4	2	I	2	0	509	0	poli_8sides 14_whiteLine3.jpg	Medium_e21_mono_resampled.wav
3	154	1	2	0	C	2	1	573	1	poli_8sides 3_whiteLine3.jpg	MediumLong_e04_mono_resampled.wav
3	155	4	4	2	I	2	0	508	1	poli_8sides 19_whiteLine3.jpg	Medium_e21_mono_resampled.wav
3	156	2	2	1	C	1	1	890	1	poli_8sides 5_whiteLine3.jpg	MediumLong_e04_mono_resampled.wav
3	157	3	3	2	I	2	0	509	0	poli_8sides 14_whiteLine3.jpg	Medium_e13_mono_resampled.wav
3	158	4	3	2	I	2	0	409	1	poli_8sides 19_whiteLine3.jpg	Medium_e13_mono_resampled.wav
3	159	1	1	1	C	1	1	566	1	poli_8sides 3_whiteLine3.jpg	MediumLong_b23_cut4_ML_mono_resampled.wav
3	160	2	1	0	C	2	1	480	1	poli_8sides 5_whiteLine3.jpg	MediumLong_b23_cut4_ML_mono_resampled.wav
3	161	3	3	2	I	1	0	512	1	poli_8sides 14_whiteLine3.jpg	Medium_e13_mono_resampled.wav
3	162	1	1	1	C	1	1	853	1	poli_8sides 3_whiteLine3.jpg	MediumLong_b23_cut4_ML_mono_resampled.wav
3	163	4	4	2	I	2	0	436	1	poli_8sides 19_whiteLine3.jpg	Medium_e21_mono_resampled.wav
3	164	2	1	0	C	2	1	530	1	poli_8sides 5_whiteLine3.jpg	MediumLong_b23_cut4_ML_mono_resampled.wav
3	165	1	2	0	C	1	0	549	0	poli_8sides 3_whiteLine3.jpg	MediumLong_e04_mono_resampled.wav
3	166	4	3	2	I	2	0	436	1	poli_8sides 19_whiteLine3.jpg	Medium_e13_mono_resampled.wav
3	167	2	2	1	C	2	0	465	0	poli_8sides 5_whiteLine3.jpg	MediumLong_e04_mono_resampled.wav
3	168	3	4	2	I	2	0	457	0	poli_8sides 14_whiteLine3.jpg	Medium_e21_mono_resampled.wav
3	169	2	1	0	C	2	1	480	1	poli_8sides 5_whiteLine3.jpg	MediumLong_b23_cut4_ML_mono_resampled.wav
3	170	3	3	2	I	2	0	436	1	poli_8sides 14_whiteLine3.jpg	Medium_e13_mono_resampled.wav
3	171	4	4	2	I	2	0	496	0	poli_8sides 19_whiteLine3.jpg	Medium_e21_mono_resampled.wav
3	172	1	2	0	C	2	1	681	1	poli_8sides 3_whiteLine3.jpg	MediumLong_e04_mono_resampled.wav
3	173	2	2	1	C	2	0	432	0	poli_8sides 5_whiteLine3.jpg	MediumLong_e04_mono_resampled.wav
3	174	3	4	2	I	2	0	511	1	poli_8sides 14_whiteLine3.jpg	Medium_e21_mono_resampled.wav
3	175	4	3	2	I	2	0	450	1	poli_8sides 19_whiteLine3.jpg	Medium_e13_mono_resampled.wav
3	176	1	1	1	C	1	1	807	1	poli_8sides 3_whiteLine3.jpg	MediumLong_b23_cut4_ML_mono_resampled.wav
3	177	2	2	1	C	1	1	730	1	poli_8sides 5_whiteLine3.jpg	MediumLong_e04_mono_resampled.wav
3	178	3	3	2	I	2	0	494	1	poli_8sides 14_whiteLine3.jpg	Medium_e13_mono_resampled.wav
3	179	4	3	2	I	2	0	506	0	poli_8sides 19_whiteLine3.jpg	Medium_e13_mono_resampled.wav
3	180	1	1	1	C	1	1	612	1	poli_8sides 3_whiteLine3.jpg	MediumLong_b23_cut4_ML_mono_resampled.wav
3	181	3	4	2	I	2	0	595	0	poli_8sides 14_whiteLine3.jpg	Medium_e21_mono_resampled.wav
3	182	4	4	2	I	2	0	464	0	poli_8sides 19_whiteLine3.jpg	Medium_e21_mono_resampled.wav
3	183	2	1	0	C	2	1	378	1	poli_8sides 5_whiteLine3.jpg	MediumLong_b23_cut4_ML_mono_resampled.wav
3	184	1	2	0	C	2	1	544	1	poli_8sides 3_whiteLine3.jpg	MediumLong_e04_mono_resampled.wav
3	185	3	3	2	I	2	0	207	0	poli_8sides 14_whiteLine3.jpg	Medium_e13_mono_resampled.wav
3	186	4	4	2	I	2	0	386	1	poli_8sides 19_whiteLine3.jpg	Medium_e21_mono_resampled.wav
3	187	2	2	1	C	2	0	164	0	poli_8sides 5_whiteLine3.jpg	MediumLong_e04_mono_resampled.wav
3	188	1	1	1	C	2	0	398	0	poli_8sides 3_whiteLine3.jpg	MediumLong_b23_cut4_ML_mono_resampled.wav
3	189	3	4	2	I	2	0	466	1	poli_8sides 14_whiteLine3.jpg	Medium_e21_mono_resampled.wav
3	190	4	3	2	I	2	0	483	0	poli_8sides 19_whiteLine3.jpg	Medium_e13_mono_resampled.wav
3	191	1	2	0	C	1	0	610	0	poli_8sides 3_whiteLine3.jpg	MediumLong_e04_mono_resampled.wav
3	192	2	1	0	C	2	1	498	1	poli_8sides 5_whiteLine3.jpg	MediumLong_b23_cut4_ML_mono_resampled.wav
3	193	3	4	2	I	2	0	564	1	poli_8sides 14_whiteLine3.jpg	Medium_e21_mono_resampled.wav
3	194	1	1	1	C	1	1	818	1	poli_8sides 3_whiteLine3.jpg	MediumLong_b23_cut4_ML_mono_resampled.wav
3	195	2	2	1	C	1	1	802	1	poli_8sides 5_whiteLine3.jpg	MediumLong_e04_mono_resampled.wav
3	196	4	4	2	I	2	0	647	1	poli_8sides 19_whiteLine3.jpg	Medium_e21_mono_resampled.wav
3	197	3	3	2	I	2	0	481	0	poli_8sides 14_whiteLine3.jpg	Medium_e13_mono_resampled.wav
3	198	4	3	2	I	2	0	466	1	poli_8sides 19_whiteLine3.jpg	Medium_e13_mono_resampled.wav
3	199	2	1	0	C	2	1	605	1	poli_8sides 5_whiteLine3.jpg	MediumLong_b23_cut4_ML_mono_resampled.wav
3	200	1	2	0	C	2	1	641	1	poli_8sides 3_whiteLine3.jpg	MediumLong_e04_mono_resampled.wav
4	1	4	3	2	I	2	0	982	1	poli_8sides 8_whiteLine3.jpg	MediumLong_b10_cut2_L_mono_resampled.wav
4	2	1	2	0	C	2	1	256	1	poli_8sides 12_whiteLine3.jpg	Medium_e26_mono_resampled.wav
4	3	2	2	1	C	1	1	743	1	poli_8sides 6_whiteLine3.jpg	Medium_e26_mono_resampled.wav
4	4	3	4	2	I	2	0	830	0	poli_8sides 18_whiteLine3.jpg	Medium_e01_cut1_mono_resampled.wav
4	5	4	4	2	I	2	0	613	1	poli_8sides 8_whiteLine3.jpg	Medium_e01_cut1_mono_resampled.wav
4	6	1	1	1	C	2	0	711	0	poli_8sides 12_whiteLine3.jpg	MediumLong_e19_mono_resampled.wav
4	7	3	3	2	I	2	0	753	1	poli_8sides 18_whiteLine3.jpg	MediumLong_b10_cut2_L_mono_resampled.wav
4	8	2	1	0	C	2	1	706	1	poli_8sides 6_whiteLine3.jpg	MediumLong_e19_mono_resampled.wav
4	9	1	1	1	C	1	1	1186	1	poli_8sides 12_whiteLine3.jpg	MediumLong_e19_mono_resampled.wav
4	10	3	3	2	I	2	0	713	1	poli_8sides 18_whiteLine3.jpg	MediumLong_b10_cut2_L_mono_resampled.wav
4	11	4	4	2	I	2	0	762	1	poli_8sides 8_whiteLine3.jpg	Medium_e01_cut1_mono_resampled.wav
4	12	2	2	1	C	1	1	793	1	poli_8sides 6_whiteLine3.jpg	Medium_e26_mono_resampled.wav
4	13	4	3	2	I	2	0	540	0	poli_8sides 8_whiteLine3.jpg	MediumLong_b10_cut2_L_mono_resampled.wav
4	14	3	4	2	I	2	0	1007	0	poli_8sides 18_whiteLine3.jpg	Medium_e01_cut1_mono_resampled.wav
4	15	1	2	0	C	1	0	740	0	poli_8sides 12_whiteLine3.jpg	Medium_e26_mono_resampled.wav
4	16	2	1	0	C	2	1	483	1	poli_8sides 6_whiteLine3.jpg	MediumLong_e19_mono_resampled.wav
4	17	1	2	0	C	2	1	475	1	poli_8sides 12_whiteLine3.jpg	Medium_e26_mono_resampled.wav
4	18	4	3	2	I	2	0	601	0	poli_8sides 8_whiteLine3.jpg	MediumLong_b10_cut2_L_mono_resampled.wav
4	19	2	2	1	C	2	0	647	0	poli_8sides 6_whiteLine3.jpg	Medium_e26_mono_resampled.wav
4	20	3	3	2	I	2	0	671	1	poli_8sides 18_whiteLine3.jpg	MediumLong_b10_cut2_L_mono_resampled.wav
4	21	1	1	1	C	1	1	894	1	poli_8sides 12_whiteLine3.jpg	MediumLong_e19_mono_resampled.wav
4	22	4	4	2	I	2	0	808	1	poli_8sides 8_whiteLine3.jpg	Medium_e01_cut1_mono_resampled.wav
4	23	3	4	2	I	2	0	831	0	poli_8sides 18_whiteLine3.jpg	Medium_e01_cut1_mono_resampled.wav
4	24	2	1	0	C	2	1	724	1	poli_8sides 6_whiteLine3.jpg	MediumLong_e19_mono_resampled.wav
4	25	1	1	1	C	1	1	733	1	poli_8sides 12_whiteLine3.jpg	MediumLong_e19_mono_resampled.wav
4	26	3	3	2	I	2	0	722	0	poli_8sides 18_whiteLine3.jpg	MediumLong_b10_cut2_L_mono_resampled.wav
4	27	4	4	2	I	2	0	1000	0	poli_8sides 8_whiteLine3.jpg	Medium_e01_cut1_mono_resampled.wav
4	28	2	1	0	C	2	1	720	1	poli_8sides 6_whiteLine3.jpg	MediumLong_e19_mono_resampled.wav
4	29	3	4	2	I	1	0	1057	1	poli_8sides 18_whiteLine3.jpg	Medium_e01_cut1_mono_resampled.wav
4	30	2	2	1	C	2	0	570	0	poli_8sides 6_whiteLine3.jpg	Medium_e26_mono_resampled.wav
4	31	1	2	0	C	2	1	400	1	poli_8sides 12_whiteLine3.jpg	Medium_e26_mono_resampled.wav
4	32	4	3	2	I	1	0	803	1	poli_8sides 8_whiteLine3.jpg	MediumLong_b10_cut2_L_mono_resampled.wav
4	33	3	4	2	I	2	0	437	1	poli_8sides 18_whiteLine3.jpg	Medium_e01_cut1_mono_resampled.wav
4	34	2	1	0	C	2	1	675	1	poli_8sides 6_whiteLine3.jpg	MediumLong_e19_mono_resampled.wav
4	35	1	1	1	C	2	0	306	0	poli_8sides 12_whiteLine3.jpg	MediumLong_e19_mono_resampled.wav
4	36	4	3	2	I	1	0	901	1	poli_8sides 8_whiteLine3.jpg	MediumLong_b10_cut2_L_mono_resampled.wav
4	37	3	3	2	I	2	0	481	0	poli_8sides 18_whiteLine3.jpg	MediumLong_b10_cut2_L_mono_resampled.wav
4	38	1	2	0	C	2	1	476	1	poli_8sides 12_whiteLine3.jpg	Medium_e26_mono_resampled.wav
4	39	4	4	2	I	2	0	714	0	poli_8sides 8_whiteLine3.jpg	Medium_e01_cut1_mono_resampled.wav
4	40	2	2	1	C	1	1	792	1	poli_8sides 6_whiteLine3.jpg	Medium_e26_mono_resampled.wav
4	41	4	4	2	I	2	0	632	0	poli_8sides 8_whiteLine3.jpg	Medium_e01_cut1_mono_resampled.wav
4	42	1	1	1	C	1	1	769	1	poli_8sides 12_whiteLine3.jpg	MediumLong_e19_mono_resampled.wav
4	43	3	4	2	I	2	0	628	0	poli_8sides 18_whiteLine3.jpg	Medium_e01_cut1_mono_resampled.wav
4	44	2	1	0	C	2	1	598	1	poli_8sides 6_whiteLine3.jpg	MediumLong_e19_mono_resampled.wav
4	45	4	3	2	I	2	0	579	1	poli_8sides 8_whiteLine3.jpg	MediumLong_b10_cut2_L_mono_resampled.wav
4	46	1	2	0	C	2	1	398	1	poli_8sides 12_whiteLine3.jpg	Medium_e26_mono_resampled.wav
4	47	2	2	1	C	1	1	756	1	poli_8sides 6_whiteLine3.jpg	Medium_e26_mono_resampled.wav
4	48	3	3	2	I	2	0	492	1	poli_8sides 18_whiteLine3.jpg	MediumLong_b10_cut2_L_mono_resampled.wav
4	49	1	1	1	C	1	1	891	1	poli_8sides 12_whiteLine3.jpg	MediumLong_e19_mono_resampled.wav
4	50	4	4	2	I	2	0	540	1	poli_8sides 8_whiteLine3.jpg	Medium_e01_cut1_mono_resampled.wav
4	51	3	4	2	I	2	0	372	1	poli_8sides 18_whiteLine3.jpg	Medium_e01_cut1_mono_resampled.wav
4	52	2	1	0	C	2	1	652	1	poli_8sides 6_whiteLine3.jpg	MediumLong_e19_mono_resampled.wav
4	53	1	2	0	C	2	1	470	1	poli_8sides 12_whiteLine3.jpg	Medium_e26_mono_resampled.wav
4	54	3	3	2	I	2	0	561	1	poli_8sides 18_whiteLine3.jpg	MediumLong_b10_cut2_L_mono_resampled.wav
4	55	2	2	1	C	2	0	702	0	poli_8sides 6_whiteLine3.jpg	Medium_e26_mono_resampled.wav
4	56	4	3	2	I	2	0	592	1	poli_8sides 8_whiteLine3.jpg	MediumLong_b10_cut2_L_mono_resampled.wav
4	57	3	4	2	I	2	0	531	0	poli_8sides 18_whiteLine3.jpg	Medium_e01_cut1_mono_resampled.wav
4	58	4	3	2	I	2	0	579	0	poli_8sides 8_whiteLine3.jpg	MediumLong_b10_cut2_L_mono_resampled.wav
4	59	2	1	0	C	2	1	535	1	poli_8sides 6_whiteLine3.jpg	MediumLong_e19_mono_resampled.wav
4	60	1	2	0	C	2	1	414	1	poli_8sides 12_whiteLine3.jpg	Medium_e26_mono_resampled.wav
4	61	3	3	2	I	2	0	469	0	poli_8sides 18_whiteLine3.jpg	MediumLong_b10_cut2_L_mono_resampled.wav
4	62	1	1	1	C	2	0	327	0	poli_8sides 12_whiteLine3.jpg	MediumLong_e19_mono_resampled.wav
4	63	2	2	1	C	2	0	515	0	poli_8sides 6_whiteLine3.jpg	Medium_e26_mono_resampled.wav
4	64	4	4	2	I	2	0	540	0	poli_8sides 8_whiteLine3.jpg	Medium_e01_cut1_mono_resampled.wav
4	65	1	2	0	C	2	1	349	1	poli_8sides 12_whiteLine3.jpg	Medium_e26_mono_resampled.wav
4	66	4	3	2	I	2	0	507	0	poli_8sides 8_whiteLine3.jpg	MediumLong_b10_cut2_L_mono_resampled.wav
4	67	3	3	2	I	2	0	388	0	poli_8sides 18_whiteLine3.jpg	MediumLong_b10_cut2_L_mono_resampled.wav
4	68	2	1	0	C	2	1	539	1	poli_8sides 6_whiteLine3.jpg	MediumLong_e19_mono_resampled.wav
4	69	3	4	2	I	2	0	556	0	poli_8sides 18_whiteLine3.jpg	Medium_e01_cut1_mono_resampled.wav
4	70	4	4	2	I	2	0	485	0	poli_8sides 8_whiteLine3.jpg	Medium_e01_cut1_mono_resampled.wav
4	71	2	2	1	C	1	1	975	1	poli_8sides 6_whiteLine3.jpg	Medium_e26_mono_resampled.wav
4	72	1	1	1	C	1	1	681	1	poli_8sides 12_whiteLine3.jpg	MediumLong_e19_mono_resampled.wav
4	73	3	4	2	I	1	0	437	0	poli_8sides 18_whiteLine3.jpg	Medium_e01_cut1_mono_resampled.wav
4	74	2	2	1	C	1	1	436	1	poli_8sides 6_whiteLine3.jpg	Medium_e26_mono_resampled.wav
4	75	4	4	2	I	2	0	645	1	poli_8sides 8_whiteLine3.jpg	Medium_e01_cut1_mono_resampled.wav
4	76	1	2	0	C	2	1	391	1	poli_8sides 12_whiteLine3.jpg	Medium_e26_mono_resampled.wav
4	77	3	3	2	I	1	0	574	1	poli_8sides 18_whiteLine3.jpg	MediumLong_b10_cut2_L_mono_resampled.wav
4	78	4	3	2	I	2	0	607	0	poli_8sides 8_whiteLine3.jpg	MediumLong_b10_cut2_L_mono_resampled.wav
4	79	2	1	0	C	2	1	655	1	poli_8sides 6_whiteLine3.jpg	MediumLong_e19_mono_resampled.wav
4	80	1	1	1	C	1	1	678	1	poli_8sides 12_whiteLine3.jpg	MediumLong_e19_mono_resampled.wav
4	81	4	3	2	I	2	0	546	0	poli_8sides 8_whiteLine3.jpg	MediumLong_b10_cut2_L_mono_resampled.wav
4	82	3	3	2	I	2	0	587	1	poli_8sides 18_whiteLine3.jpg	MediumLong_b10_cut2_L_mono_resampled.wav
4	83	2	2	1	C	1	1	703	1	poli_8sides 6_whiteLine3.jpg	Medium_e26_mono_resampled.wav
4	84	1	1	1	C	1	1	649	1	poli_8sides 12_whiteLine3.jpg	MediumLong_e19_mono_resampled.wav
4	85	2	1	0	C	1	0	579	0	poli_8sides 6_whiteLine3.jpg	MediumLong_e19_mono_resampled.wav
4	86	3	4	2	I	1	0	520	0	poli_8sides 18_whiteLine3.jpg	Medium_e01_cut1_mono_resampled.wav
4	87	1	2	0	C	2	1	509	1	poli_8sides 12_whiteLine3.jpg	Medium_e26_mono_resampled.wav
4	88	4	4	2	I	2	0	508	0	poli_8sides 8_whiteLine3.jpg	Medium_e01_cut1_mono_resampled.wav
4	89	2	1	0	C	1	0	650	0	poli_8sides 6_whiteLine3.jpg	MediumLong_e19_mono_resampled.wav
4	90	1	1	1	C	1	1	696	1	poli_8sides 12_whiteLine3.jpg	MediumLong_e19_mono_resampled.wav
4	91	4	4	2	I	2	0	569	1	poli_8sides 8_whiteLine3.jpg	Medium_e01_cut1_mono_resampled.wav
4	92	3	4	2	I	2	0	541	1	poli_8sides 18_whiteLine3.jpg	Medium_e01_cut1_mono_resampled.wav
4	93	1	2	0	C	2	1	601	1	poli_8sides 12_whiteLine3.jpg	Medium_e26_mono_resampled.wav
4	94	4	3	2	I	2	0	582	1	poli_8sides 8_whiteLine3.jpg	MediumLong_b10_cut2_L_mono_resampled.wav
4	95	2	2	1	C	2	0	576	0	poli_8sides 6_whiteLine3.jpg	Medium_e26_mono_resampled.wav
4	96	3	3	2	I	2	0	494	1	poli_8sides 18_whiteLine3.jpg	MediumLong_b10_cut2_L_mono_resampled.wav
4	97	1	1	1	C	1	1	720	1	poli_8sides 12_whiteLine3.jpg	MediumLong_e19_mono_resampled.wav
4	98	4	4	2	I	2	0	619	1	poli_8sides 8_whiteLine3.jpg	Medium_e01_cut1_mono_resampled.wav
4	99	2	2	1	C	1	1	729	1	poli_8sides 6_whiteLine3.jpg	Medium_e26_mono_resampled.wav
4	100	3	3	2	I	2	0	594	0	poli_8sides 18_whiteLine3.jpg	MediumLong_b10_cut2_L_mono_resampled.wav
4	101	4	3	2	I	2	0	600	1	poli_8sides 8_whiteLine3.jpg	MediumLong_b10_cut2_L_mono_resampled.wav
4	102	1	2	0	C	2	1	742	1	poli_8sides 12_whiteLine3.jpg	Medium_e26_mono_resampled.wav
4	103	3	4	2	I	2	0	495	1	poli_8sides 18_whiteLine3.jpg	Medium_e01_cut1_mono_resampled.wav
4	104	2	1	0	C	1	0	569	0	poli_8sides 6_whiteLine3.jpg	MediumLong_e19_mono_resampled.wav
4	105	3	4	2	I	2	0	607	1	poli_8sides 18_whiteLine3.jpg	Medium_e01_cut1_mono_resampled.wav
4	106	4	4	2	I	2	0	747	0	poli_8sides 8_whiteLine3.jpg	Medium_e01_cut1_mono_resampled.wav
4	107	2	2	1	C	1	1	627	1	poli_8sides 6_whiteLine3.jpg	Medium_e26_mono_resampled.wav
4	108	1	2	0	C	2	1	401	1	poli_8sides 12_whiteLine3.jpg	Medium_e26_mono_resampled.wav
4	109	3	3	2	I	2	0	594	1	poli_8sides 18_whiteLine3.jpg	MediumLong_b10_cut2_L_mono_resampled.wav
4	110	4	3	2	I	2	0	529	0	poli_8sides 8_whiteLine3.jpg	MediumLong_b10_cut2_L_mono_resampled.wav
4	111	2	1	0	C	2	1	680	1	poli_8sides 6_whiteLine3.jpg	MediumLong_e19_mono_resampled.wav
4	112	1	1	1	C	2	0	572	0	poli_8sides 12_whiteLine3.jpg	MediumLong_e19_mono_resampled.wav
4	113	3	4	2	I	2	0	493	1	poli_8sides 18_whiteLine3.jpg	Medium_e01_cut1_mono_resampled.wav
4	114	1	2	0	C	2	1	517	1	poli_8sides 12_whiteLine3.jpg	Medium_e26_mono_resampled.wav
4	115	2	1	0	C	2	1	816	1	poli_8sides 6_whiteLine3.jpg	MediumLong_e19_mono_resampled.wav
4	116	4	3	2	I	2	0	483	0	poli_8sides 8_whiteLine3.jpg	MediumLong_b10_cut2_L_mono_resampled.wav
4	117	3	3	2	I	2	0	423	1	poli_8sides 18_whiteLine3.jpg	MediumLong_b10_cut2_L_mono_resampled.wav
4	118	4	4	2	I	2	0	433	0	poli_8sides 8_whiteLine3.jpg	Medium_e01_cut1_mono_resampled.wav
4	119	1	1	1	C	2	0	429	0	poli_8sides 12_whiteLine3.jpg	MediumLong_e19_mono_resampled.wav
4	120	2	2	1	C	1	1	1101	1	poli_8sides 6_whiteLine3.jpg	Medium_e26_mono_resampled.wav
4	121	4	3	2	I	2	0	481	1	poli_8sides 8_whiteLine3.jpg	MediumLong_b10_cut2_L_mono_resampled.wav
4	122	3	4	2	I	2	0	452	0	poli_8sides 18_whiteLine3.jpg	Medium_e01_cut1_mono_resampled.wav
4	123	1	1	1	C	1	1	775	1	poli_8sides 12_whiteLine3.jpg	MediumLong_e19_mono_resampled.wav
4	124	2	2	1	C	1	1	912	1	poli_8sides 6_whiteLine3.jpg	Medium_e26_mono_resampled.wav
4	125	3	3	2	I	2	0	483	0	poli_8sides 18_whiteLine3.jpg	MediumLong_b10_cut2_L_mono_resampled.wav
4	126	4	4	2	I	2	0	517	0	poli_8sides 8_whiteLine3.jpg	Medium_e01_cut1_mono_resampled.wav
4	127	2	1	0	C	2	1	609	1	poli_8sides 6_whiteLine3.jpg	MediumLong_e19_mono_resampled.wav
4	128	1	2	0	C	2	1	475	1	poli_8sides 12_whiteLine3.jpg	Medium_e26_mono_resampled.wav
4	129	4	4	2	I	2	0	495	1	poli_8sides 8_whiteLine3.jpg	Medium_e01_cut1_mono_resampled.wav
4	130	1	1	1	C	2	0	514	0	poli_8sides 12_whiteLine3.jpg	MediumLong_e19_mono_resampled.wav
4	131	2	1	0	C	2	1	822	1	poli_8sides 6_whiteLine3.jpg	MediumLong_e19_mono_resampled.wav
4	132	3	4	2	I	2	0	786	0	poli_8sides 18_whiteLine3.jpg	Medium_e01_cut1_mono_resampled.wav
4	133	2	2	1	C	1	1	750	1	poli_8sides 6_whiteLine3.jpg	Medium_e26_mono_resampled.wav
4	134	4	3	2	I	2	0	559	0	poli_8sides 8_whiteLine3.jpg	MediumLong_b10_cut2_L_mono_resampled.wav
4	135	3	3	2	I	2	0	510	0	poli_8sides 18_whiteLine3.jpg	MediumLong_b10_cut2_L_mono_resampled.wav
4	136	1	2	0	C	2	1	514	1	poli_8sides 12_whiteLine3.jpg	Medium_e26_mono_resampled.wav
4	137	3	3	2	I	2	0	526	0	poli_8sides 18_whiteLine3.jpg	MediumLong_b10_cut2_L_mono_resampled.wav
4	138	4	3	2	I	2	0	504	1	poli_8sides 8_whiteLine3.jpg	MediumLong_b10_cut2_L_mono_resampled.wav
4	139	2	1	0	C	1	0	758	0	poli_8sides 6_whiteLine3.jpg	MediumLong_e19_mono_resampled.wav
4	140	1	2	0	C	2	1	641	1	poli_8sides 12_whiteLine3.jpg	Medium_e26_mono_resampled.wav
4	141	4	4	2	I	2	0	429	0	poli_8sides 8_whiteLine3.jpg	Medium_e01_cut1_mono_resampled.wav
4	142	1	1	1	C	1	1	1079	1	poli_8sides 12_whiteLine3.jpg	MediumLong_e19_mono_resampled.wav
4	143	2	2	1	C	1	1	994	1	poli_8sides 6_whiteLine3.jpg	Medium_e26_mono_resampled.wav
4	144	3	4	2	I	2	0	566	1	poli_8sides 18_whiteLine3.jpg	Medium_e01_cut1_mono_resampled.wav
4	145	2	1	0	C	2	1	1258	1	poli_8sides 6_whiteLine3.jpg	MediumLong_e19_mono_resampled.wav
4	146	4	3	2	I	2	0	558	0	poli_8sides 8_whiteLine3.jpg	MediumLong_b10_cut2_L_mono_resampled.wav
4	147	1	1	1	C	1	1	735	1	poli_8sides 12_whiteLine3.jpg	MediumLong_e19_mono_resampled.wav
4	148	3	4	2	I	2	0	469	1	poli_8sides 18_whiteLine3.jpg	Medium_e01_cut1_mono_resampled.wav
4	149	1	2	0	C	2	1	638	1	poli_8sides 12_whiteLine3.jpg	Medium_e26_mono_resampled.wav
4	150	3	3	2	I	1	0	419	0	poli_8sides 18_whiteLine3.jpg	MediumLong_b10_cut2_L_mono_resampled.wav
4	151	4	4	2	I	2	0	471	0	poli_8sides 8_whiteLine3.jpg	Medium_e01_cut1_mono_resampled.wav
4	152	2	2	1	C	2	0	413	0	poli_8sides 6_whiteLine3.jpg	Medium_e26_mono_resampled.wav
4	153	4	3	2	I	2	0	513	1	poli_8sides 8_whiteLine3.jpg	MediumLong_b10_cut2_L_mono_resampled.wav
4	154	1	1	1	C	1	1	647	1	poli_8sides 12_whiteLine3.jpg	MediumLong_e19_mono_resampled.wav
4	155	3	4	2	I	2	0	490	0	poli_8sides 18_whiteLine3.jpg	Medium_e01_cut1_mono_resampled.wav
4	156	2	2	1	C	1	1	702	1	poli_8sides 6_whiteLine3.jpg	Medium_e26_mono_resampled.wav
4	157	3	3	2	I	2	0	479	0	poli_8sides 18_whiteLine3.jpg	MediumLong_b10_cut2_L_mono_resampled.wav
4	158	4	4	2	I	1	0	530	0	poli_8sides 8_whiteLine3.jpg	Medium_e01_cut1_mono_resampled.wav
4	159	2	1	0	C	2	1	782	1	poli_8sides 6_whiteLine3.jpg	MediumLong_e19_mono_resampled.wav
4	160	1	2	0	C	2	1	563	1	poli_8sides 12_whiteLine3.jpg	Medium_e26_mono_resampled.wav
4	161	3	3	2	I	2	0	553	0	poli_8sides 18_whiteLine3.jpg	MediumLong_b10_cut2_L_mono_resampled.wav
4	162	1	2	0	C	2	1	503	1	poli_8sides 12_whiteLine3.jpg	Medium_e26_mono_resampled.wav
4	163	2	1	0	C	2	1	690	1	poli_8sides 6_whiteLine3.jpg	MediumLong_e19_mono_resampled.wav
4	164	4	3	2	I	2	0	449	1	poli_8sides 8_whiteLine3.jpg	MediumLong_b10_cut2_L_mono_resampled.wav
4	165	3	4	2	I	2	0	466	1	poli_8sides 18_whiteLine3.jpg	Medium_e01_cut1_mono_resampled.wav
4	166	2	2	1	C	2	0	782	0	poli_8sides 6_whiteLine3.jpg	Medium_e26_mono_resampled.wav
4	167	4	4	2	I	2	0	605	0	poli_8sides 8_whiteLine3.jpg	Medium_e01_cut1_mono_resampled.wav
4	168	1	1	1	C	1	1	704	1	poli_8sides 12_whiteLine3.jpg	MediumLong_e19_mono_resampled.wav
4	169	4	4	2	I	2	0	457	1	poli_8sides 8_whiteLine3.jpg	Medium_e01_cut1_mono_resampled.wav
4	170	1	1	1	C	1	1	718	1	poli_8sides 12_whiteLine3.jpg	MediumLong_e19_mono_resampled.wav
4	171	2	1	0	C	1	0	883	0	poli_8sides 6_whiteLine3.jpg	MediumLong_e19_mono_resampled.wav
4	172	3	4	2	I	2	0	461	1	poli_8sides 18_whiteLine3.jpg	Medium_e01_cut1_mono_resampled.wav
4	173	2	2	1	C	1	1	1134	1	poli_8sides 6_whiteLine3.jpg	Medium_e26_mono_resampled.wav
4	174	4	3	2	I	2	0	518	0	poli_8sides 8_whiteLine3.jpg	MediumLong_b10_cut2_L_mono_resampled.wav
4	175	3	3	2	I	2	0	463	0	poli_8sides 18_whiteLine3.jpg	MediumLong_b10_cut2_L_mono_resampled.wav
4	176	1	2	0	C	2	1	527	1	poli_8sides 12_whiteLine3.jpg	Medium_e26_mono_resampled.wav
4	177	3	3	2	I	2	0	421	1	poli_8sides 18_whiteLine3.jpg	MediumLong_b10_cut2_L_mono_resampled.wav
4	178	2	1	0	C	2	1	664	1	poli_8sides 6_whiteLine3.jpg	MediumLong_e19_mono_resampled.wav
4	179	4	3	2	I	2	0	450	0	poli_8sides 8_whiteLine3.jpg	MediumLong_b10_cut2_L_mono_resampled.wav
4	180	1	1	1	C	1	1	855	1	poli_8sides 12_whiteLine3.jpg	MediumLong_e19_mono_resampled.wav
4	181	3	4	2	I	2	0	444	0	poli_8sides 18_whiteLine3.jpg	Medium_e01_cut1_mono_resampled.wav
4	182	4	4	2	I	2	0	515	1	poli_8sides 8_whiteLine3.jpg	Medium_e01_cut1_mono_resampled.wav
4	183	2	2	1	C	1	1	711	1	poli_8sides 6_whiteLine3.jpg	Medium_e26_mono_resampled.wav
4	184	1	2	0	C	2	1	658	1	poli_8sides 12_whiteLine3.jpg	Medium_e26_mono_resampled.wav
4	185	2	1	0	C	2	1	665	1	poli_8sides 6_whiteLine3.jpg	MediumLong_e19_mono_resampled.wav
4	186	3	4	2	I	2	0	393	1	poli_8sides 18_whiteLine3.jpg	Medium_e01_cut1_mono_resampled.wav
4	187	4	3	2	I	2	0	516	1	poli_8sides 8_whiteLine3.jpg	MediumLong_b10_cut2_L_mono_resampled.wav
4	188	1	1	1	C	2	0	464	0	poli_8sides 12_whiteLine3.jpg	MediumLong_e19_mono_resampled.wav
4	189	3	3	2	I	2	0	479	1	poli_8sides 18_whiteLine3.jpg	MediumLong_b10_cut2_L_mono_resampled.wav
4	190	2	2	1	C	1	1	1172	1	poli_8sides 6_whiteLine3.jpg	Medium_e26_mono_resampled.wav
4	191	4	4	2	I	2	0	468	1	poli_8sides 8_whiteLine3.jpg	Medium_e01_cut1_mono_resampled.wav
4	192	1	2	0	C	2	1	530	1	poli_8sides 12_whiteLine3.jpg	Medium_e26_mono_resampled.wav
4	193	4	3	2	I	2	0	655	1	poli_8sides 8_whiteLine3.jpg	MediumLong_b10_cut2_L_mono_resampled.wav
4	194	3	3	2	I	2	0	576	1	poli_8sides 18_whiteLine3.jpg	MediumLong_b10_cut2_L_mono_resampled.wav
4	195	1	1	1	C	1	1	658	1	poli_8sides 12_whiteLine3.jpg	MediumLong_e19_mono_resampled.wav
4	196	2	1	0	C	1	0	816	0	poli_8sides 6_whiteLine3.jpg	MediumLong_e19_mono_resampled.wav
4	197	4	4	2	I	2	0	777	1	poli_8sides 8_whiteLine3.jpg	Medium_e01_cut1_mono_resampled.wav
4	198	3	4	2	I	1	0	759	0	poli_8sides 18_whiteLine3.jpg	Medium_e01_cut1_mono_resampled.wav
4	199	2	2	1	C	1	1	759	1	poli_8sides 6_whiteLine3.jpg	Medium_e26_mono_resampled.wav
4	200	1	2	0	C	2	1	837	1	poli_8sides 12_whiteLine3.jpg	Medium_e26_mono_resampled.wav
