block	trial	Vstim	Astim	match	C/I	resp	result	RT	fb	V-file	A-file
RL

0	1	2	4	0	C	0	0	0	0	Ⴞ	cut_oo.wav
0	2	1	2	0	C	2	1	505	1	Ⴢ	cut_g.wav
0	3	1	1	1	C	2	0	731	0	Ⴢ	cut_eeuw.wav
0	4	2	3	1	C	1	1	676	1	Ⴞ	cut_ee.wav
0	5	1	2	0	C	2	1	558	1	Ⴢ	cut_g.wav
0	6	1	1	1	C	1	1	401	1	Ⴢ	cut_eeuw.wav
0	7	2	4	0	C	2	1	498	1	Ⴞ	cut_oo.wav
0	8	2	3	1	C	1	1	472	1	Ⴞ	cut_ee.wav
0	9	2	3	1	C	2	0	252	0	Ⴞ	cut_ee.wav
0	10	1	2	0	C	2	1	1126	1	Ⴢ	cut_g.wav
0	11	2	4	0	C	1	0	506	0	Ⴞ	cut_oo.wav
0	12	1	1	1	C	2	0	498	0	Ⴢ	cut_eeuw.wav
0	13	1	1	1	C	1	1	354	1	Ⴢ	cut_eeuw.wav
0	14	2	3	1	C	2	0	541	0	Ⴞ	cut_ee.wav
0	15	1	2	0	C	1	0	661	0	Ⴢ	cut_g.wav
0	16	2	4	0	C	2	1	606	1	Ⴞ	cut_oo.wav
0	17	1	1	1	C	2	0	527	0	Ⴢ	cut_eeuw.wav
0	18	1	2	0	C	1	0	472	0	Ⴢ	cut_g.wav
0	19	2	3	1	C	2	0	275	0	Ⴞ	cut_ee.wav
0	20	2	4	0	C	1	0	379	0	Ⴞ	cut_oo.wav
0	21	1	1	1	C	2	0	33	0	Ⴢ	cut_eeuw.wav
0	22	1	2	0	C	1	0	621	0	Ⴢ	cut_g.wav
0	23	2	4	0	C	2	1	806	1	Ⴞ	cut_oo.wav
0	24	2	3	1	C	1	1	367	1	Ⴞ	cut_ee.wav
0	25	1	2	0	C	1	0	687	0	Ⴢ	cut_g.wav
0	26	1	1	1	C	2	0	392	0	Ⴢ	cut_eeuw.wav
0	27	2	3	1	C	1	1	738	1	Ⴞ	cut_ee.wav
0	28	2	4	0	C	2	1	457	1	Ⴞ	cut_oo.wav
0	29	2	4	0	C	1	0	642	0	Ⴞ	cut_oo.wav
0	30	2	3	1	C	1	1	727	1	Ⴞ	cut_ee.wav
avg_resp = 592
1	1	2	1	0	C	1	0	921	0	Ⴞ	cut_u.wav
1	2	3	4	2	I	2	0	663	0	Ⴜ	cut_k.wav
1	3	4	3	2	I	1	0	512	1	Ⴇ	cut_o.wav
1	4	1	2	0	C	2	1	558	1	Ⴟ	cut_a.wav
1	5	2	2	1	C	1	1	802	1	Ⴞ	cut_a.wav
1	6	4	4	2	I	2	0	797	0	Ⴇ	cut_k.wav
1	7	1	1	1	C	1	1	890	1	Ⴟ	cut_u.wav
1	8	3	3	2	I	2	0	908	1	Ⴜ	cut_o.wav
1	9	1	1	1	C	1	1	774	1	Ⴟ	cut_u.wav
1	10	4	3	2	I	1	0	1001	1	Ⴇ	cut_o.wav
1	11	2	1	0	C	1	0	678	0	Ⴞ	cut_u.wav
1	12	3	4	2	I	1	0	880	1	Ⴜ	cut_k.wav
1	13	4	4	2	I	1	0	573	0	Ⴇ	cut_k.wav
1	14	2	2	1	C	1	1	1146	1	Ⴞ	cut_a.wav
1	15	3	3	2	I	2	0	783	1	Ⴜ	cut_o.wav
1	16	1	2	0	C	2	1	651	1	Ⴟ	cut_a.wav
1	17	3	4	2	I	1	0	971	1	Ⴜ	cut_k.wav
1	18	4	4	2	I	2	0	772	0	Ⴇ	cut_k.wav
1	19	1	1	1	C	1	1	646	1	Ⴟ	cut_u.wav
1	20	2	1	0	C	2	1	966	1	Ⴞ	cut_u.wav
1	21	3	3	2	I	2	0	671	0	Ⴜ	cut_o.wav
1	22	1	2	0	C	2	1	601	1	Ⴟ	cut_a.wav
1	23	2	2	1	C	1	1	643	1	Ⴞ	cut_a.wav
1	24	4	3	2	I	2	0	989	0	Ⴇ	cut_o.wav
1	25	1	2	0	C	2	1	490	1	Ⴟ	cut_a.wav
1	26	3	3	2	I	2	0	569	0	Ⴜ	cut_o.wav
1	27	4	4	2	I	2	0	672	0	Ⴇ	cut_k.wav
1	28	2	1	0	C	1	0	667	0	Ⴞ	cut_u.wav
1	29	3	4	2	I	2	0	1028	1	Ⴜ	cut_k.wav
1	30	1	1	1	C	1	1	661	1	Ⴟ	cut_u.wav
1	31	2	2	1	C	1	1	859	1	Ⴞ	cut_a.wav
1	32	4	3	2	I	2	0	718	1	Ⴇ	cut_o.wav
1	33	1	2	0	C	2	1	526	1	Ⴟ	cut_a.wav
1	34	2	1	0	C	1	0	519	0	Ⴞ	cut_u.wav
1	35	3	4	2	I	2	0	686	1	Ⴜ	cut_k.wav
1	36	4	4	2	I	2	0	948	1	Ⴇ	cut_k.wav
1	37	3	3	2	I	2	0	630	0	Ⴜ	cut_o.wav
1	38	2	2	1	C	1	1	807	1	Ⴞ	cut_a.wav
1	39	4	3	2	I	2	0	698	0	Ⴇ	cut_o.wav
1	40	1	1	1	C	1	1	717	1	Ⴟ	cut_u.wav
1	41	3	4	2	I	2	0	759	0	Ⴜ	cut_k.wav
1	42	2	1	0	C	2	1	789	1	Ⴞ	cut_u.wav
1	43	4	3	2	I	2	0	917	0	Ⴇ	cut_o.wav
1	44	1	2	0	C	2	1	553	1	Ⴟ	cut_a.wav
1	45	4	4	2	I	2	0	846	0	Ⴇ	cut_k.wav
1	46	2	2	1	C	1	1	1206	1	Ⴞ	cut_a.wav
1	47	1	1	1	C	1	1	694	1	Ⴟ	cut_u.wav
1	48	3	3	2	I	1	0	948	0	Ⴜ	cut_o.wav
1	49	1	2	0	C	2	1	530	1	Ⴟ	cut_a.wav
1	50	4	3	2	I	1	0	1473	1	Ⴇ	cut_o.wav
1	51	2	2	1	C	1	1	753	1	Ⴞ	cut_a.wav
1	52	3	4	2	I	2	0	630	0	Ⴜ	cut_k.wav
1	53	1	1	1	C	1	1	919	1	Ⴟ	cut_u.wav
1	54	3	3	2	I	2	0	641	1	Ⴜ	cut_o.wav
1	55	4	4	2	I	2	0	953	1	Ⴇ	cut_k.wav
1	56	2	1	0	C	2	1	692	1	Ⴞ	cut_u.wav
1	57	3	3	2	I	2	0	536	1	Ⴜ	cut_o.wav
1	58	1	1	1	C	1	1	696	1	Ⴟ	cut_u.wav
1	59	2	2	1	C	1	1	943	1	Ⴞ	cut_a.wav
1	60	4	4	2	I	2	0	657	0	Ⴇ	cut_k.wav
1	61	1	2	0	C	2	1	588	1	Ⴟ	cut_a.wav
1	62	3	4	2	I	2	0	493	1	Ⴜ	cut_k.wav
1	63	2	1	0	C	2	1	608	1	Ⴞ	cut_u.wav
1	64	4	3	2	I	2	0	644	0	Ⴇ	cut_o.wav
1	65	1	1	1	C	2	0	534	0	Ⴟ	cut_u.wav
1	66	2	1	0	C	2	1	667	1	Ⴞ	cut_u.wav
1	67	3	3	2	I	2	0	533	0	Ⴜ	cut_o.wav
1	68	4	4	2	I	1	0	933	0	Ⴇ	cut_k.wav
1	69	2	2	1	C	1	1	879	1	Ⴞ	cut_a.wav
1	70	3	4	2	I	2	0	676	0	Ⴜ	cut_k.wav
1	71	1	2	0	C	2	1	487	1	Ⴟ	cut_a.wav
1	72	4	3	2	I	2	0	661	1	Ⴇ	cut_o.wav
1	73	1	2	0	C	2	1	478	1	Ⴟ	cut_a.wav
1	74	2	2	1	C	1	1	672	1	Ⴞ	cut_a.wav
1	75	4	3	2	I	2	0	648	1	Ⴇ	cut_o.wav
1	76	3	3	2	I	1	0	856	0	Ⴜ	cut_o.wav
1	77	1	1	1	C	1	1	758	1	Ⴟ	cut_u.wav
1	78	3	4	2	I	2	0	621	0	Ⴜ	cut_k.wav
1	79	4	4	2	I	1	0	980	0	Ⴇ	cut_k.wav
1	80	2	1	0	C	2	1	685	1	Ⴞ	cut_u.wav
1	81	1	1	1	C	2	0	964	0	Ⴟ	cut_u.wav
1	82	2	2	1	C	1	1	580	1	Ⴞ	cut_a.wav
1	83	4	4	2	I	2	0	805	1	Ⴇ	cut_k.wav
1	84	3	4	2	I	1	0	744	1	Ⴜ	cut_k.wav
1	85	4	3	2	I	2	0	860	1	Ⴇ	cut_o.wav
1	86	3	3	2	I	1	0	667	1	Ⴜ	cut_o.wav
1	87	2	1	0	C	2	1	1060	1	Ⴞ	cut_u.wav
1	88	1	2	0	C	2	1	609	1	Ⴟ	cut_a.wav
1	89	2	2	1	C	1	1	652	1	Ⴞ	cut_a.wav
1	90	3	3	2	I	1	0	897	1	Ⴜ	cut_o.wav
1	91	4	4	2	I	2	0	720	0	Ⴇ	cut_k.wav
1	92	1	1	1	C	1	1	747	1	Ⴟ	cut_u.wav
1	93	3	4	2	I	2	0	890	1	Ⴜ	cut_k.wav
1	94	4	3	2	I	2	0	528	1	Ⴇ	cut_o.wav
1	95	2	1	0	C	2	1	662	1	Ⴞ	cut_u.wav
1	96	1	2	0	C	2	1	550	1	Ⴟ	cut_a.wav
1	97	4	4	2	I	1	0	876	0	Ⴇ	cut_k.wav
1	98	2	1	0	C	2	1	598	1	Ⴞ	cut_u.wav
1	99	1	1	1	C	2	0	977	0	Ⴟ	cut_u.wav
1	100	3	3	2	I	2	0	743	1	Ⴜ	cut_o.wav
1	101	4	3	2	I	2	0	704	1	Ⴇ	cut_o.wav
1	102	1	2	0	C	2	1	692	1	Ⴟ	cut_a.wav
1	103	3	4	2	I	2	0	568	1	Ⴜ	cut_k.wav
1	104	2	2	1	C	1	1	897	1	Ⴞ	cut_a.wav
1	105	1	1	1	C	1	1	696	1	Ⴟ	cut_u.wav
1	106	4	3	2	I	2	0	1039	0	Ⴇ	cut_o.wav
1	107	3	3	2	I	2	0	794	1	Ⴜ	cut_o.wav
1	108	2	1	0	C	2	1	723	1	Ⴞ	cut_u.wav
1	109	3	4	2	I	2	0	724	0	Ⴜ	cut_k.wav
1	110	1	2	0	C	2	1	582	1	Ⴟ	cut_a.wav
1	111	4	4	2	I	2	0	402	0	Ⴇ	cut_k.wav
1	112	2	2	1	C	1	1	852	1	Ⴞ	cut_a.wav
1	113	3	4	2	I	2	0	642	0	Ⴜ	cut_k.wav
1	114	2	2	1	C	1	1	952	1	Ⴞ	cut_a.wav
1	115	4	3	2	I	2	0	652	1	Ⴇ	cut_o.wav
1	116	1	2	0	C	2	1	587	1	Ⴟ	cut_a.wav
1	117	3	3	2	I	2	0	565	0	Ⴜ	cut_o.wav
1	118	2	1	0	C	2	1	630	1	Ⴞ	cut_u.wav
1	119	1	1	1	C	1	1	754	1	Ⴟ	cut_u.wav
1	120	4	4	2	I	1	0	871	0	Ⴇ	cut_k.wav
1	121	3	4	2	I	2	0	714	1	Ⴜ	cut_k.wav
1	122	2	2	1	C	1	1	770	1	Ⴞ	cut_a.wav
1	123	4	3	2	I	2	0	658	1	Ⴇ	cut_o.wav
1	124	1	1	1	C	2	0	826	0	Ⴟ	cut_u.wav
1	125	4	4	2	I	1	0	952	0	Ⴇ	cut_k.wav
1	126	1	2	0	C	2	1	844	1	Ⴟ	cut_a.wav
1	127	3	3	2	I	2	0	597	1	Ⴜ	cut_o.wav
1	128	2	1	0	C	2	1	639	1	Ⴞ	cut_u.wav
1	129	1	1	1	C	1	1	795	1	Ⴟ	cut_u.wav
1	130	4	4	2	I	2	0	1508	0	Ⴇ	cut_k.wav
1	131	2	2	1	C	1	1	877	1	Ⴞ	cut_a.wav
1	132	3	3	2	I	1	0	1338	0	Ⴜ	cut_o.wav
1	133	1	2	0	C	2	1	649	1	Ⴟ	cut_a.wav
1	134	4	3	2	I	2	0	658	0	Ⴇ	cut_o.wav
1	135	2	1	0	C	2	1	709	1	Ⴞ	cut_u.wav
1	136	3	4	2	I	2	0	657	1	Ⴜ	cut_k.wav
1	137	1	2	0	C	2	1	716	1	Ⴟ	cut_a.wav
1	138	3	3	2	I	1	0	899	0	Ⴜ	cut_o.wav
1	139	4	4	2	I	2	0	731	1	Ⴇ	cut_k.wav
1	140	2	1	0	C	2	1	745	1	Ⴞ	cut_u.wav
1	141	1	1	1	C	1	1	832	1	Ⴟ	cut_u.wav
1	142	2	2	1	C	1	1	1163	1	Ⴞ	cut_a.wav
1	143	3	4	2	I	2	0	666	0	Ⴜ	cut_k.wav
1	144	4	3	2	I	2	0	558	0	Ⴇ	cut_o.wav
1	145	2	1	0	C	2	1	652	1	Ⴞ	cut_u.wav
1	146	4	3	2	I	2	0	506	1	Ⴇ	cut_o.wav
1	147	1	2	0	C	2	1	562	1	Ⴟ	cut_a.wav
1	148	3	4	2	I	1	0	456	1	Ⴜ	cut_k.wav
1	149	1	1	1	C	2	0	615	0	Ⴟ	cut_u.wav
1	150	3	3	2	I	2	0	661	0	Ⴜ	cut_o.wav
1	151	2	2	1	C	1	1	851	1	Ⴞ	cut_a.wav
1	152	4	4	2	I	2	0	646	1	Ⴇ	cut_k.wav
1	153	1	1	1	C	1	1	869	1	Ⴟ	cut_u.wav
1	154	4	3	2	I	2	0	218	1	Ⴇ	cut_o.wav
1	155	3	3	2	I	2	0	390	0	Ⴜ	cut_o.wav
1	156	2	1	0	C	2	1	596	1	Ⴞ	cut_u.wav
1	157	3	4	2	I	1	0	477	0	Ⴜ	cut_k.wav
1	158	2	2	1	C	1	1	751	1	Ⴞ	cut_a.wav
1	159	4	4	2	I	2	0	591	1	Ⴇ	cut_k.wav
1	160	1	2	0	C	2	1	517	1	Ⴟ	cut_a.wav
1	161	3	3	2	I	2	0	449	1	Ⴜ	cut_o.wav
1	162	1	1	1	C	1	1	666	1	Ⴟ	cut_u.wav
1	163	2	2	1	C	2	0	651	0	Ⴞ	cut_a.wav
1	164	4	4	2	I	2	0	428	1	Ⴇ	cut_k.wav
1	165	2	1	0	C	2	1	642	1	Ⴞ	cut_u.wav
1	166	1	2	0	C	2	1	561	1	Ⴟ	cut_a.wav
1	167	4	3	2	I	2	0	470	1	Ⴇ	cut_o.wav
1	168	3	4	2	I	2	0	544	0	Ⴜ	cut_k.wav
1	169	1	2	0	C	2	1	512	1	Ⴟ	cut_a.wav
1	170	3	4	2	I	2	0	488	1	Ⴜ	cut_k.wav
1	171	2	2	1	C	1	1	923	1	Ⴞ	cut_a.wav
1	172	4	4	2	I	2	0	573	1	Ⴇ	cut_k.wav
1	173	2	1	0	C	1	0	726	0	Ⴞ	cut_u.wav
1	174	4	3	2	I	2	0	409	1	Ⴇ	cut_o.wav
1	175	3	3	2	I	2	0	417	1	Ⴜ	cut_o.wav
1	176	1	1	1	C	2	0	1085	0	Ⴟ	cut_u.wav
1	177	4	3	2	I	2	0	456	1	Ⴇ	cut_o.wav
1	178	1	1	1	C	1	1	771	1	Ⴟ	cut_u.wav
1	179	2	2	1	C	1	1	1241	1	Ⴞ	cut_a.wav
1	180	3	4	2	I	2	0	469	0	Ⴜ	cut_k.wav
1	181	2	1	0	C	2	1	586	1	Ⴞ	cut_u.wav
1	182	3	3	2	I	2	0	499	0	Ⴜ	cut_o.wav
1	183	4	4	2	I	1	0	545	0	Ⴇ	cut_k.wav
1	184	1	2	0	C	2	1	567	1	Ⴟ	cut_a.wav
1	185	4	3	2	I	2	0	583	1	Ⴇ	cut_o.wav
1	186	3	3	2	I	2	0	590	0	Ⴜ	cut_o.wav
1	187	2	2	1	C	2	0	448	0	Ⴞ	cut_a.wav
1	188	1	2	0	C	2	1	489	1	Ⴟ	cut_a.wav
1	189	3	4	2	I	2	0	615	1	Ⴜ	cut_k.wav
1	190	2	1	0	C	2	1	615	1	Ⴞ	cut_u.wav
1	191	4	4	2	I	2	0	579	0	Ⴇ	cut_k.wav
1	192	1	1	1	C	2	0	495	0	Ⴟ	cut_u.wav
1	193	4	4	2	I	2	0	536	0	Ⴇ	cut_k.wav
1	194	3	3	2	I	2	0	592	0	Ⴜ	cut_o.wav
1	195	1	2	0	C	2	1	416	1	Ⴟ	cut_a.wav
1	196	2	1	0	C	2	1	381	1	Ⴞ	cut_u.wav
1	197	3	4	2	I	2	0	539	1	Ⴜ	cut_k.wav
1	198	1	1	1	C	1	1	696	1	Ⴟ	cut_u.wav
1	199	2	2	1	C	1	1	927	1	Ⴞ	cut_a.wav
1	200	4	3	2	I	2	0	563	0	Ⴇ	cut_o.wav
2	1	4	3	2	I	2	0	782	1	Ⴃ	cut_f.wav
2	2	2	1	0	C	2	1	644	1	Ⴁ	cut_ei.wav
2	3	1	1	1	C	1	1	619	1	Ⴂ	cut_ei.wav
2	4	3	3	2	I	1	0	612	1	Ⴡ	cut_f.wav
2	5	4	4	2	I	1	0	714	0	Ⴃ	cut_j.wav
2	6	1	2	0	C	1	0	623	0	Ⴂ	cut_n.wav
2	7	3	4	2	I	2	0	787	1	Ⴡ	cut_j.wav
2	8	2	2	1	C	1	1	649	1	Ⴁ	cut_n.wav
2	9	4	4	2	I	2	0	664	0	Ⴃ	cut_j.wav
2	10	2	2	1	C	1	1	697	1	Ⴁ	cut_n.wav
2	11	3	4	2	I	2	0	645	0	Ⴡ	cut_j.wav
2	12	1	2	0	C	2	1	617	1	Ⴂ	cut_n.wav
2	13	2	1	0	C	2	1	714	1	Ⴁ	cut_ei.wav
2	14	1	1	1	C	1	1	813	1	Ⴂ	cut_ei.wav
2	15	4	3	2	I	1	0	897	1	Ⴃ	cut_f.wav
2	16	3	3	2	I	1	0	843	1	Ⴡ	cut_f.wav
2	17	4	4	2	I	1	0	1071	0	Ⴃ	cut_j.wav
2	18	3	3	2	I	1	0	974	0	Ⴡ	cut_f.wav
2	19	2	2	1	C	1	1	727	1	Ⴁ	cut_n.wav
2	20	1	1	1	C	1	1	742	1	Ⴂ	cut_ei.wav
2	21	3	4	2	I	1	0	739	0	Ⴡ	cut_j.wav
2	22	2	1	0	C	1	0	926	0	Ⴁ	cut_ei.wav
2	23	4	3	2	I	2	0	620	1	Ⴃ	cut_f.wav
2	24	1	2	0	C	2	1	536	1	Ⴂ	cut_n.wav
2	25	2	2	1	C	1	1	592	1	Ⴁ	cut_n.wav
2	26	1	1	1	C	1	1	678	1	Ⴂ	cut_ei.wav
2	27	4	3	2	I	2	0	587	1	Ⴃ	cut_f.wav
2	28	3	4	2	I	1	0	594	1	Ⴡ	cut_j.wav
2	29	1	2	0	C	2	1	498	1	Ⴂ	cut_n.wav
2	30	4	4	2	I	1	0	615	1	Ⴃ	cut_j.wav
2	31	2	1	0	C	2	1	565	1	Ⴁ	cut_ei.wav
2	32	3	3	2	I	2	0	561	1	Ⴡ	cut_f.wav
2	33	2	2	1	C	1	1	580	1	Ⴁ	cut_n.wav
2	34	4	4	2	I	2	0	646	0	Ⴃ	cut_j.wav
2	35	3	3	2	I	2	0	546	1	Ⴡ	cut_f.wav
2	36	1	1	1	C	1	1	572	1	Ⴂ	cut_ei.wav
2	37	2	1	0	C	2	1	541	1	Ⴁ	cut_ei.wav
2	38	4	3	2	I	2	0	534	1	Ⴃ	cut_f.wav
2	39	1	2	0	C	2	1	541	1	Ⴂ	cut_n.wav
2	40	3	4	2	I	2	0	611	1	Ⴡ	cut_j.wav
2	41	4	3	2	I	2	0	543	0	Ⴃ	cut_f.wav
2	42	3	4	2	I	2	0	520	0	Ⴡ	cut_j.wav
2	43	1	1	1	C	2	0	506	0	Ⴂ	cut_ei.wav
2	44	2	2	1	C	1	1	780	1	Ⴁ	cut_n.wav
2	45	1	2	0	C	2	1	548	1	Ⴂ	cut_n.wav
2	46	4	4	2	I	2	0	653	0	Ⴃ	cut_j.wav
2	47	3	3	2	I	2	0	542	1	Ⴡ	cut_f.wav
2	48	2	1	0	C	2	1	628	1	Ⴁ	cut_ei.wav
2	49	4	3	2	I	2	0	455	1	Ⴃ	cut_f.wav
2	50	2	1	0	C	2	1	450	1	Ⴁ	cut_ei.wav
2	51	3	4	2	I	2	0	598	1	Ⴡ	cut_j.wav
2	52	1	1	1	C	2	0	435	0	Ⴂ	cut_ei.wav
2	53	2	2	1	C	1	1	900	1	Ⴁ	cut_n.wav
2	54	1	2	0	C	2	1	607	1	Ⴂ	cut_n.wav
2	55	4	4	2	I	2	0	608	1	Ⴃ	cut_j.wav
2	56	3	3	2	I	2	0	500	0	Ⴡ	cut_f.wav
2	57	4	3	2	I	2	0	459	0	Ⴃ	cut_f.wav
2	58	2	2	1	C	1	1	594	1	Ⴁ	cut_n.wav
2	59	3	3	2	I	2	0	516	1	Ⴡ	cut_f.wav
2	60	1	2	0	C	2	1	511	1	Ⴂ	cut_n.wav
2	61	4	4	2	I	1	0	763	0	Ⴃ	cut_j.wav
2	62	2	1	0	C	1	0	770	0	Ⴁ	cut_ei.wav
2	63	3	4	2	I	2	0	535	1	Ⴡ	cut_j.wav
2	64	1	1	1	C	1	1	650	1	Ⴂ	cut_ei.wav
2	65	2	2	1	C	1	1	777	1	Ⴁ	cut_n.wav
2	66	3	4	2	I	1	0	571	0	Ⴡ	cut_j.wav
2	67	4	3	2	I	1	0	464	1	Ⴃ	cut_f.wav
2	68	1	1	1	C	2	0	416	0	Ⴂ	cut_ei.wav
2	69	4	4	2	I	1	0	631	0	Ⴃ	cut_j.wav
2	70	3	3	2	I	2	0	582	0	Ⴡ	cut_f.wav
2	71	1	2	0	C	2	1	408	1	Ⴂ	cut_n.wav
2	72	2	1	0	C	2	1	457	1	Ⴁ	cut_ei.wav
2	73	4	3	2	I	1	0	539	1	Ⴃ	cut_f.wav
2	74	1	2	0	C	2	1	485	1	Ⴂ	cut_n.wav
2	75	2	1	0	C	2	1	553	1	Ⴁ	cut_ei.wav
2	76	3	3	2	I	2	0	512	1	Ⴡ	cut_f.wav
2	77	1	1	1	C	2	0	385	0	Ⴂ	cut_ei.wav
2	78	4	4	2	I	2	0	453	1	Ⴃ	cut_j.wav
2	79	2	2	1	C	1	1	655	1	Ⴁ	cut_n.wav
2	80	3	4	2	I	1	0	575	1	Ⴡ	cut_j.wav
2	81	1	1	1	C	1	1	744	1	Ⴂ	cut_ei.wav
2	82	2	1	0	C	2	1	638	1	Ⴁ	cut_ei.wav
2	83	4	3	2	I	1	0	578	0	Ⴃ	cut_f.wav
2	84	3	3	2	I	1	0	512	0	Ⴡ	cut_f.wav
2	85	1	2	0	C	2	1	432	1	Ⴂ	cut_n.wav
2	86	3	4	2	I	2	0	533	1	Ⴡ	cut_j.wav
2	87	2	2	1	C	1	1	522	1	Ⴁ	cut_n.wav
2	88	4	4	2	I	2	0	458	0	Ⴃ	cut_j.wav
2	89	1	2	0	C	2	1	511	1	Ⴂ	cut_n.wav
2	90	3	4	2	I	1	0	501	0	Ⴡ	cut_j.wav
2	91	4	3	2	I	1	0	485	1	Ⴃ	cut_f.wav
2	92	2	2	1	C	1	1	508	1	Ⴁ	cut_n.wav
2	93	1	1	1	C	1	1	694	1	Ⴂ	cut_ei.wav
2	94	4	4	2	I	1	0	488	0	Ⴃ	cut_j.wav
2	95	2	1	0	C	1	0	509	0	Ⴁ	cut_ei.wav
2	96	3	3	2	I	1	0	519	1	Ⴡ	cut_f.wav
2	97	4	4	2	I	1	0	510	0	Ⴃ	cut_j.wav
2	98	1	1	1	C	1	1	636	1	Ⴂ	cut_ei.wav
2	99	3	4	2	I	1	0	571	0	Ⴡ	cut_j.wav
2	100	2	2	1	C	1	1	671	1	Ⴁ	cut_n.wav
2	101	1	2	0	C	2	1	521	1	Ⴂ	cut_n.wav
2	102	4	3	2	I	1	0	514	1	Ⴃ	cut_f.wav
2	103	3	3	2	I	1	0	547	1	Ⴡ	cut_f.wav
2	104	2	1	0	C	2	1	627	1	Ⴁ	cut_ei.wav
2	105	4	3	2	I	1	0	530	0	Ⴃ	cut_f.wav
2	106	1	2	0	C	2	1	450	1	Ⴂ	cut_n.wav
2	107	2	2	1	C	1	1	887	1	Ⴁ	cut_n.wav
2	108	3	3	2	I	1	0	474	1	Ⴡ	cut_f.wav
2	109	2	1	0	C	1	0	495	0	Ⴁ	cut_ei.wav
2	110	4	4	2	I	2	0	530	1	Ⴃ	cut_j.wav
2	111	3	4	2	I	2	0	477	1	Ⴡ	cut_j.wav
2	112	1	1	1	C	1	1	541	1	Ⴂ	cut_ei.wav
2	113	2	1	0	C	2	1	500	1	Ⴁ	cut_ei.wav
2	114	4	4	2	I	2	0	526	0	Ⴃ	cut_j.wav
2	115	1	1	1	C	1	1	649	1	Ⴂ	cut_ei.wav
2	116	3	4	2	I	2	0	547	0	Ⴡ	cut_j.wav
2	117	1	2	0	C	2	1	502	1	Ⴂ	cut_n.wav
2	118	2	2	1	C	1	1	522	1	Ⴁ	cut_n.wav
2	119	3	3	2	I	1	0	471	0	Ⴡ	cut_f.wav
2	120	4	3	2	I	2	0	538	1	Ⴃ	cut_f.wav
2	121	3	3	2	I	1	0	536	0	Ⴡ	cut_f.wav
2	122	4	3	2	I	1	0	473	1	Ⴃ	cut_f.wav
2	123	2	1	0	C	2	1	655	1	Ⴁ	cut_ei.wav
2	124	1	2	0	C	2	1	510	1	Ⴂ	cut_n.wav
2	125	2	2	1	C	1	1	679	1	Ⴁ	cut_n.wav
2	126	1	1	1	C	1	1	649	1	Ⴂ	cut_ei.wav
2	127	4	4	2	I	1	0	456	0	Ⴃ	cut_j.wav
2	128	3	4	2	I	1	0	442	0	Ⴡ	cut_j.wav
2	129	1	1	1	C	1	1	629	1	Ⴂ	cut_ei.wav
2	130	3	4	2	I	1	0	490	0	Ⴡ	cut_j.wav
2	131	4	3	2	I	1	0	475	1	Ⴃ	cut_f.wav
2	132	2	2	1	C	1	1	627	1	Ⴁ	cut_n.wav
2	133	4	4	2	I	2	0	557	1	Ⴃ	cut_j.wav
2	134	1	2	0	C	2	1	586	1	Ⴂ	cut_n.wav
2	135	3	3	2	I	1	0	489	0	Ⴡ	cut_f.wav
2	136	2	1	0	C	2	1	760	1	Ⴁ	cut_ei.wav
2	137	4	4	2	I	1	0	482	0	Ⴃ	cut_j.wav
2	138	2	2	1	C	1	1	814	1	Ⴁ	cut_n.wav
2	139	1	2	0	C	2	1	551	1	Ⴂ	cut_n.wav
2	140	3	4	2	I	1	0	644	1	Ⴡ	cut_j.wav
2	141	1	1	1	C	1	1	569	1	Ⴂ	cut_ei.wav
2	142	2	1	0	C	2	1	522	1	Ⴁ	cut_ei.wav
2	143	3	3	2	I	1	0	453	0	Ⴡ	cut_f.wav
2	144	4	3	2	I	1	0	448	0	Ⴃ	cut_f.wav
2	145	2	2	1	C	1	1	675	1	Ⴁ	cut_n.wav
2	146	1	1	1	C	1	1	704	1	Ⴂ	cut_ei.wav
2	147	3	3	2	I	1	0	550	0	Ⴡ	cut_f.wav
2	148	4	3	2	I	1	0	509	0	Ⴃ	cut_f.wav
2	149	1	2	0	C	2	1	469	1	Ⴂ	cut_n.wav
2	150	2	1	0	C	2	1	610	1	Ⴁ	cut_ei.wav
2	151	3	4	2	I	2	0	570	1	Ⴡ	cut_j.wav
2	152	4	4	2	I	2	0	559	1	Ⴃ	cut_j.wav
2	153	2	1	0	C	2	1	553	1	Ⴁ	cut_ei.wav
2	154	4	4	2	I	2	0	518	1	Ⴃ	cut_j.wav
2	155	1	1	1	C	1	1	695	1	Ⴂ	cut_ei.wav
2	156	3	4	2	I	1	0	505	0	Ⴡ	cut_j.wav
2	157	4	3	2	I	2	0	561	0	Ⴃ	cut_f.wav
2	158	3	3	2	I	2	0	519	0	Ⴡ	cut_f.wav
2	159	1	2	0	C	2	1	430	1	Ⴂ	cut_n.wav
2	160	2	2	1	C	1	1	888	1	Ⴁ	cut_n.wav
2	161	3	3	2	I	1	0	495	1	Ⴡ	cut_f.wav
2	162	1	1	1	C	1	1	556	1	Ⴂ	cut_ei.wav
2	163	2	2	1	C	1	1	511	1	Ⴁ	cut_n.wav
2	164	4	4	2	I	1	0	548	0	Ⴃ	cut_j.wav
2	165	1	2	0	C	2	1	509	1	Ⴂ	cut_n.wav
2	166	4	3	2	I	1	0	429	0	Ⴃ	cut_f.wav
2	167	3	4	2	I	1	0	501	1	Ⴡ	cut_j.wav
2	168	2	1	0	C	2	1	664	1	Ⴁ	cut_ei.wav
2	169	4	4	2	I	1	0	463	1	Ⴃ	cut_j.wav
2	170	1	1	1	C	2	0	468	0	Ⴂ	cut_ei.wav
2	171	2	1	0	C	2	1	597	1	Ⴁ	cut_ei.wav
2	172	3	4	2	I	1	0	554	0	Ⴡ	cut_j.wav
2	173	4	3	2	I	2	0	543	1	Ⴃ	cut_f.wav
2	174	1	2	0	C	2	1	525	1	Ⴂ	cut_n.wav
2	175	3	3	2	I	2	0	544	0	Ⴡ	cut_f.wav
2	176	2	2	1	C	1	1	827	1	Ⴁ	cut_n.wav
2	177	1	1	1	C	2	0	484	0	Ⴂ	cut_ei.wav
2	178	3	3	2	I	2	0	538	1	Ⴡ	cut_f.wav
2	179	4	4	2	I	2	0	487	1	Ⴃ	cut_j.wav
2	180	2	1	0	C	1	0	588	0	Ⴁ	cut_ei.wav
2	181	3	4	2	I	1	0	573	0	Ⴡ	cut_j.wav
2	182	2	2	1	C	1	1	572	1	Ⴁ	cut_n.wav
2	183	4	3	2	I	1	0	517	1	Ⴃ	cut_f.wav
2	184	1	2	0	C	2	1	491	1	Ⴂ	cut_n.wav
2	185	2	1	0	C	2	1	543	1	Ⴁ	cut_ei.wav
2	186	3	3	2	I	1	0	850	0	Ⴡ	cut_f.wav
2	187	1	1	1	C	1	1	618	1	Ⴂ	cut_ei.wav
2	188	4	3	2	I	1	0	527	1	Ⴃ	cut_f.wav
2	189	3	4	2	I	1	0	651	1	Ⴡ	cut_j.wav
2	190	1	2	0	C	2	1	361	1	Ⴂ	cut_n.wav
2	191	2	2	1	C	1	1	524	1	Ⴁ	cut_n.wav
2	192	4	4	2	I	2	0	513	0	Ⴃ	cut_j.wav
2	193	2	1	0	C	2	1	623	1	Ⴁ	cut_ei.wav
2	194	3	4	2	I	2	0	485	1	Ⴡ	cut_j.wav
2	195	1	2	0	C	2	1	455	1	Ⴂ	cut_n.wav
2	196	4	4	2	I	2	0	499	0	Ⴃ	cut_j.wav
2	197	3	3	2	I	2	0	496	0	Ⴡ	cut_f.wav
2	198	2	2	1	C	1	1	671	1	Ⴁ	cut_n.wav
2	199	4	3	2	I	2	0	506	0	Ⴃ	cut_f.wav
2	200	1	1	1	C	2	0	461	0	Ⴂ	cut_ei.wav
3	1	2	2	1	C	2	0	830	0	Ⴔ	cut_oei.wav
3	2	4	3	2	I	2	0	492	0	Ⴉ	cut_ui.wav
3	3	3	3	2	I	2	0	386	0	Ⴖ	cut_ui.wav
3	4	1	1	1	C	2	0	459	0	Ⴌ	cut_r.wav
3	5	3	4	2	I	2	0	437	0	Ⴖ	cut_s.wav
3	6	2	1	0	C	2	1	374	1	Ⴔ	cut_r.wav
3	7	1	2	0	C	2	1	450	1	Ⴌ	cut_oei.wav
3	8	4	4	2	I	2	0	730	1	Ⴉ	cut_s.wav
3	9	2	1	0	C	2	1	473	1	Ⴔ	cut_r.wav
3	10	3	4	2	I	2	0	560	0	Ⴖ	cut_s.wav
3	11	4	4	2	I	2	0	577	0	Ⴉ	cut_s.wav
3	12	1	2	0	C	2	1	443	1	Ⴌ	cut_oei.wav
3	13	2	2	1	C	2	0	509	0	Ⴔ	cut_oei.wav
3	14	1	1	1	C	2	0	491	0	Ⴌ	cut_r.wav
3	15	4	3	2	I	2	0	936	1	Ⴉ	cut_ui.wav
3	16	3	3	2	I	1	0	817	0	Ⴖ	cut_ui.wav
3	17	4	4	2	I	2	0	610	0	Ⴉ	cut_s.wav
3	18	1	2	0	C	2	1	599	1	Ⴌ	cut_oei.wav
3	19	2	1	0	C	2	1	536	1	Ⴔ	cut_r.wav
3	20	3	3	2	I	2	0	710	0	Ⴖ	cut_ui.wav
3	21	4	3	2	I	2	0	537	1	Ⴉ	cut_ui.wav
3	22	1	1	1	C	2	0	583	0	Ⴌ	cut_r.wav
3	23	2	2	1	C	2	0	500	0	Ⴔ	cut_oei.wav
3	24	3	4	2	I	2	0	789	0	Ⴖ	cut_s.wav
3	25	4	4	2	I	2	0	787	0	Ⴉ	cut_s.wav
3	26	2	2	1	C	1	1	679	1	Ⴔ	cut_oei.wav
3	27	3	3	2	I	1	0	790	0	Ⴖ	cut_ui.wav
3	28	1	2	0	C	2	1	623	1	Ⴌ	cut_oei.wav
3	29	3	4	2	I	2	0	576	0	Ⴖ	cut_s.wav
3	30	1	1	1	C	1	1	1295	1	Ⴌ	cut_r.wav
3	31	4	3	2	I	2	0	799	0	Ⴉ	cut_ui.wav
3	32	2	1	0	C	2	1	627	1	Ⴔ	cut_r.wav
3	33	3	3	2	I	2	0	662	0	Ⴖ	cut_ui.wav
3	34	2	2	1	C	1	1	913	1	Ⴔ	cut_oei.wav
3	35	1	2	0	C	2	1	467	1	Ⴌ	cut_oei.wav
3	36	4	3	2	I	2	0	696	1	Ⴉ	cut_ui.wav
3	37	1	1	1	C	1	1	654	1	Ⴌ	cut_r.wav
3	38	3	4	2	I	1	0	583	1	Ⴖ	cut_s.wav
3	39	4	4	2	I	2	0	602	0	Ⴉ	cut_s.wav
3	40	2	1	0	C	2	1	510	1	Ⴔ	cut_r.wav
3	41	4	4	2	I	1	0	462	1	Ⴉ	cut_s.wav
3	42	2	2	1	C	2	0	550	0	Ⴔ	cut_oei.wav
3	43	3	4	2	I	2	0	547	1	Ⴖ	cut_s.wav
3	44	1	1	1	C	2	0	555	0	Ⴌ	cut_r.wav
3	45	3	3	2	I	2	0	526	1	Ⴖ	cut_ui.wav
3	46	1	2	0	C	2	1	563	1	Ⴌ	cut_oei.wav
3	47	4	3	2	I	2	0	485	1	Ⴉ	cut_ui.wav
3	48	2	1	0	C	2	1	691	1	Ⴔ	cut_r.wav
3	49	3	4	2	I	2	0	517	1	Ⴖ	cut_s.wav
3	50	4	3	2	I	2	0	501	0	Ⴉ	cut_ui.wav
3	51	2	2	1	C	2	0	921	0	Ⴔ	cut_oei.wav
3	52	1	1	1	C	1	1	760	1	Ⴌ	cut_r.wav
3	53	2	1	0	C	2	1	773	1	Ⴔ	cut_r.wav
3	54	1	2	0	C	2	1	677	1	Ⴌ	cut_oei.wav
3	55	4	4	2	I	2	0	552	1	Ⴉ	cut_s.wav
3	56	3	3	2	I	2	0	568	1	Ⴖ	cut_ui.wav
3	57	4	4	2	I	2	0	579	0	Ⴉ	cut_s.wav
3	58	2	2	1	C	1	1	680	1	Ⴔ	cut_oei.wav
3	59	1	1	1	C	2	0	633	0	Ⴌ	cut_r.wav
3	60	3	3	2	I	2	0	519	0	Ⴖ	cut_ui.wav
3	61	4	3	2	I	2	0	564	1	Ⴉ	cut_ui.wav
3	62	3	4	2	I	2	0	590	1	Ⴖ	cut_s.wav
3	63	1	2	0	C	2	1	864	1	Ⴌ	cut_oei.wav
3	64	2	1	0	C	2	1	490	1	Ⴔ	cut_r.wav
3	65	4	4	2	I	2	0	593	1	Ⴉ	cut_s.wav
3	66	1	2	0	C	2	1	550	1	Ⴌ	cut_oei.wav
3	67	3	4	2	I	2	0	500	1	Ⴖ	cut_s.wav
3	68	2	1	0	C	2	1	654	1	Ⴔ	cut_r.wav
3	69	1	1	1	C	1	1	591	1	Ⴌ	cut_r.wav
3	70	4	3	2	I	2	0	614	0	Ⴉ	cut_ui.wav
3	71	3	3	2	I	2	0	472	1	Ⴖ	cut_ui.wav
3	72	2	2	1	C	1	1	693	1	Ⴔ	cut_oei.wav
3	73	3	3	2	I	1	0	524	0	Ⴖ	cut_ui.wav
3	74	2	2	1	C	1	1	611	1	Ⴔ	cut_oei.wav
3	75	1	1	1	C	1	1	680	1	Ⴌ	cut_r.wav
3	76	4	4	2	I	2	0	577	0	Ⴉ	cut_s.wav
3	77	2	1	0	C	2	1	679	1	Ⴔ	cut_r.wav
3	78	1	2	0	C	2	1	459	1	Ⴌ	cut_oei.wav
3	79	3	4	2	I	1	0	505	1	Ⴖ	cut_s.wav
3	80	4	3	2	I	2	0	556	1	Ⴉ	cut_ui.wav
3	81	2	2	1	C	1	1	594	1	Ⴔ	cut_oei.wav
3	82	4	4	2	I	1	0	540	0	Ⴉ	cut_s.wav
3	83	3	3	2	I	2	0	595	1	Ⴖ	cut_ui.wav
3	84	1	1	1	C	1	1	957	1	Ⴌ	cut_r.wav
3	85	4	3	2	I	1	0	551	0	Ⴉ	cut_ui.wav
3	86	3	4	2	I	1	0	582	0	Ⴖ	cut_s.wav
3	87	1	2	0	C	2	1	712	1	Ⴌ	cut_oei.wav
3	88	2	1	0	C	2	1	406	1	Ⴔ	cut_r.wav
3	89	1	1	1	C	1	1	624	1	Ⴌ	cut_r.wav
3	90	2	1	0	C	2	1	562	1	Ⴔ	cut_r.wav
3	91	3	4	2	I	2	0	585	1	Ⴖ	cut_s.wav
3	92	4	3	2	I	1	0	598	1	Ⴉ	cut_ui.wav
3	93	3	3	2	I	1	0	468	0	Ⴖ	cut_ui.wav
3	94	1	2	0	C	2	1	568	1	Ⴌ	cut_oei.wav
3	95	4	4	2	I	2	0	532	1	Ⴉ	cut_s.wav
3	96	2	2	1	C	1	1	594	1	Ⴔ	cut_oei.wav
3	97	4	4	2	I	2	0	615	1	Ⴉ	cut_s.wav
3	98	1	2	0	C	2	1	591	1	Ⴌ	cut_oei.wav
3	99	2	2	1	C	1	1	469	1	Ⴔ	cut_oei.wav
3	100	3	4	2	I	1	0	472	0	Ⴖ	cut_s.wav
3	101	1	1	1	C	1	1	627	1	Ⴌ	cut_r.wav
3	102	3	3	2	I	1	0	448	0	Ⴖ	cut_ui.wav
3	103	2	1	0	C	2	1	734	1	Ⴔ	cut_r.wav
3	104	4	3	2	I	1	0	516	0	Ⴉ	cut_ui.wav
3	105	2	2	1	C	1	1	632	1	Ⴔ	cut_oei.wav
3	106	3	4	2	I	1	0	437	1	Ⴖ	cut_s.wav
3	107	1	2	0	C	2	1	406	1	Ⴌ	cut_oei.wav
3	108	4	4	2	I	2	0	580	0	Ⴉ	cut_s.wav
3	109	1	1	1	C	1	1	489	1	Ⴌ	cut_r.wav
3	110	3	3	2	I	2	0	530	1	Ⴖ	cut_ui.wav
3	111	2	1	0	C	2	1	576	1	Ⴔ	cut_r.wav
3	112	4	3	2	I	1	0	516	1	Ⴉ	cut_ui.wav
3	113	2	1	0	C	2	1	593	1	Ⴔ	cut_r.wav
3	114	4	3	2	I	1	0	586	1	Ⴉ	cut_ui.wav
3	115	3	3	2	I	1	0	468	0	Ⴖ	cut_ui.wav
3	116	1	2	0	C	2	1	388	1	Ⴌ	cut_oei.wav
3	117	2	2	1	C	1	1	557	1	Ⴔ	cut_oei.wav
3	118	4	4	2	I	1	0	525	1	Ⴉ	cut_s.wav
3	119	3	4	2	I	1	0	491	0	Ⴖ	cut_s.wav
3	120	1	1	1	C	2	0	542	0	Ⴌ	cut_r.wav
3	121	3	4	2	I	2	0	543	0	Ⴖ	cut_s.wav
3	122	2	2	1	C	1	1	679	1	Ⴔ	cut_oei.wav
3	123	4	3	2	I	1	0	581	0	Ⴉ	cut_ui.wav
3	124	1	1	1	C	1	1	632	1	Ⴌ	cut_r.wav
3	125	3	3	2	I	1	0	510	1	Ⴖ	cut_ui.wav
3	126	1	2	0	C	2	1	848	1	Ⴌ	cut_oei.wav
3	127	4	4	2	I	1	0	495	0	Ⴉ	cut_s.wav
3	128	2	1	0	C	2	1	519	1	Ⴔ	cut_r.wav
3	129	4	4	2	I	2	0	517	1	Ⴉ	cut_s.wav
3	130	3	4	2	I	1	0	441	0	Ⴖ	cut_s.wav
3	131	2	2	1	C	2	0	385	0	Ⴔ	cut_oei.wav
3	132	1	2	0	C	2	1	649	1	Ⴌ	cut_oei.wav
3	133	4	3	2	I	2	0	538	1	Ⴉ	cut_ui.wav
3	134	3	3	2	I	2	0	476	1	Ⴖ	cut_ui.wav
3	135	2	1	0	C	2	1	576	1	Ⴔ	cut_r.wav
3	136	1	1	1	C	1	1	591	1	Ⴌ	cut_r.wav
3	137	4	4	2	I	2	0	495	1	Ⴉ	cut_s.wav
3	138	2	1	0	C	2	1	543	1	Ⴔ	cut_r.wav
3	139	1	1	1	C	1	1	643	1	Ⴌ	cut_r.wav
3	140	3	3	2	I	1	0	526	0	Ⴖ	cut_ui.wav
3	141	4	3	2	I	1	0	484	0	Ⴉ	cut_ui.wav
3	142	1	2	0	C	2	1	530	1	Ⴌ	cut_oei.wav
3	143	3	4	2	I	2	0	560	1	Ⴖ	cut_s.wav
3	144	2	2	1	C	1	1	607	1	Ⴔ	cut_oei.wav
3	145	4	3	2	I	1	0	448	1	Ⴉ	cut_ui.wav
3	146	2	2	1	C	1	1	745	1	Ⴔ	cut_oei.wav
3	147	1	1	1	C	1	1	607	1	Ⴌ	cut_r.wav
3	148	3	4	2	I	1	0	498	0	Ⴖ	cut_s.wav
3	149	2	1	0	C	2	1	541	1	Ⴔ	cut_r.wav
3	150	3	3	2	I	1	0	502	1	Ⴖ	cut_ui.wav
3	151	4	4	2	I	2	0	560	0	Ⴉ	cut_s.wav
3	152	1	2	0	C	2	1	596	1	Ⴌ	cut_oei.wav
3	153	4	3	2	I	2	0	525	1	Ⴉ	cut_ui.wav
3	154	1	1	1	C	1	1	623	1	Ⴌ	cut_r.wav
3	155	2	1	0	C	2	1	552	1	Ⴔ	cut_r.wav
3	156	3	4	2	I	1	0	452	0	Ⴖ	cut_s.wav
3	157	2	2	1	C	1	1	641	1	Ⴔ	cut_oei.wav
3	158	4	4	2	I	1	0	441	0	Ⴉ	cut_s.wav
3	159	1	2	0	C	2	1	546	1	Ⴌ	cut_oei.wav
3	160	3	3	2	I	2	0	450	0	Ⴖ	cut_ui.wav
3	161	4	3	2	I	2	0	544	1	Ⴉ	cut_ui.wav
3	162	3	4	2	I	2	0	484	1	Ⴖ	cut_s.wav
3	163	2	1	0	C	2	1	487	1	Ⴔ	cut_r.wav
3	164	1	1	1	C	1	1	602	1	Ⴌ	cut_r.wav
3	165	3	3	2	I	2	0	472	0	Ⴖ	cut_ui.wav
3	166	1	2	0	C	1	0	599	0	Ⴌ	cut_oei.wav
3	167	2	2	1	C	1	1	709	1	Ⴔ	cut_oei.wav
3	168	4	4	2	I	2	0	525	0	Ⴉ	cut_s.wav
3	169	1	1	1	C	1	1	648	1	Ⴌ	cut_r.wav
3	170	4	3	2	I	1	0	631	0	Ⴉ	cut_ui.wav
3	171	2	1	0	C	2	1	518	1	Ⴔ	cut_r.wav
3	172	3	4	2	I	2	0	500	1	Ⴖ	cut_s.wav
3	173	2	2	1	C	1	1	646	1	Ⴔ	cut_oei.wav
3	174	4	4	2	I	1	0	428	0	Ⴉ	cut_s.wav
3	175	1	2	0	C	2	1	532	1	Ⴌ	cut_oei.wav
3	176	3	3	2	I	1	0	463	0	Ⴖ	cut_ui.wav
3	177	4	4	2	I	1	0	464	0	Ⴉ	cut_s.wav
3	178	2	1	0	C	2	1	686	1	Ⴔ	cut_r.wav
3	179	3	4	2	I	2	0	491	1	Ⴖ	cut_s.wav
3	180	1	1	1	C	2	0	534	0	Ⴌ	cut_r.wav
3	181	3	3	2	I	2	0	550	1	Ⴖ	cut_ui.wav
3	182	4	3	2	I	2	0	518	0	Ⴉ	cut_ui.wav
3	183	2	2	1	C	1	1	681	1	Ⴔ	cut_oei.wav
3	184	1	2	0	C	2	1	512	1	Ⴌ	cut_oei.wav
3	185	3	3	2	I	2	0	522	1	Ⴖ	cut_ui.wav
3	186	1	1	1	C	1	1	689	1	Ⴌ	cut_r.wav
3	187	2	1	0	C	2	1	471	1	Ⴔ	cut_r.wav
3	188	4	3	2	I	2	0	587	0	Ⴉ	cut_ui.wav
3	189	2	2	1	C	1	1	639	1	Ⴔ	cut_oei.wav
3	190	3	4	2	I	2	0	529	1	Ⴖ	cut_s.wav
3	191	1	2	0	C	2	1	701	1	Ⴌ	cut_oei.wav
3	192	4	4	2	I	2	0	539	1	Ⴉ	cut_s.wav
3	193	3	3	2	I	2	0	718	1	Ⴖ	cut_ui.wav
3	194	2	2	1	C	1	1	573	1	Ⴔ	cut_oei.wav
3	195	4	4	2	I	2	0	568	1	Ⴉ	cut_s.wav
3	196	1	2	0	C	2	1	477	1	Ⴌ	cut_oei.wav
3	197	2	1	0	C	2	1	497	1	Ⴔ	cut_r.wav
3	198	3	4	2	I	2	0	503	1	Ⴖ	cut_s.wav
3	199	4	3	2	I	2	0	508	1	Ⴉ	cut_ui.wav
3	200	1	1	1	C	1	1	706	1	Ⴌ	cut_r.wav
4	1	2	1	0	C	2	1	1626	1	Ⴊ	cut_nk.wav
4	2	4	4	2	I	2	0	475	1	Ⴢ	cut_ieuw.wav
4	3	1	2	0	C	2	1	605	1	Ⴋ	cut_ooi.wav
4	4	3	3	2	I	2	0	508	0	Ⴥ	cut_eeuw.wav
4	5	4	3	2	I	2	0	406	0	Ⴢ	cut_eeuw.wav
4	6	2	2	1	C	1	1	954	1	Ⴊ	cut_ooi.wav
4	7	3	4	2	I	2	0	615	0	Ⴥ	cut_ieuw.wav
4	8	1	1	1	C	1	1	861	1	Ⴋ	cut_nk.wav
4	9	4	4	2	I	2	0	518	1	Ⴢ	cut_ieuw.wav
4	10	1	1	1	C	2	0	603	0	Ⴋ	cut_nk.wav
4	11	3	4	2	I	1	0	586	1	Ⴥ	cut_ieuw.wav
4	12	2	2	1	C	2	0	582	0	Ⴊ	cut_ooi.wav
4	13	4	3	2	I	1	0	727	0	Ⴢ	cut_eeuw.wav
4	14	2	1	0	C	2	1	596	1	Ⴊ	cut_nk.wav
4	15	1	2	0	C	1	0	687	0	Ⴋ	cut_ooi.wav
4	16	3	3	2	I	1	0	639	1	Ⴥ	cut_eeuw.wav
4	17	2	1	0	C	2	1	813	1	Ⴊ	cut_nk.wav
4	18	1	1	1	C	1	1	844	1	Ⴋ	cut_nk.wav
4	19	3	3	2	I	2	0	784	1	Ⴥ	cut_eeuw.wav
4	20	4	4	2	I	2	0	417	0	Ⴢ	cut_ieuw.wav
4	21	1	2	0	C	2	1	801	1	Ⴋ	cut_ooi.wav
4	22	4	3	2	I	2	0	956	1	Ⴢ	cut_eeuw.wav
4	23	3	4	2	I	1	0	1244	0	Ⴥ	cut_ieuw.wav
4	24	2	2	1	C	1	1	888	1	Ⴊ	cut_ooi.wav
4	25	1	2	0	C	2	1	805	1	Ⴋ	cut_ooi.wav
4	26	3	3	2	I	2	0	602	1	Ⴥ	cut_eeuw.wav
4	27	4	4	2	I	2	0	394	0	Ⴢ	cut_ieuw.wav
4	28	2	1	0	C	2	1	639	1	Ⴊ	cut_nk.wav
4	29	3	4	2	I	2	0	484	1	Ⴥ	cut_ieuw.wav
4	30	4	3	2	I	2	0	581	0	Ⴢ	cut_eeuw.wav
4	31	1	1	1	C	1	1	980	1	Ⴋ	cut_nk.wav
4	32	2	2	1	C	1	1	967	1	Ⴊ	cut_ooi.wav
4	33	3	4	2	I	2	0	740	1	Ⴥ	cut_ieuw.wav
4	34	2	2	1	C	1	1	932	1	Ⴊ	cut_ooi.wav
4	35	4	4	2	I	2	0	568	0	Ⴢ	cut_ieuw.wav
4	36	1	2	0	C	2	1	599	1	Ⴋ	cut_ooi.wav
4	37	4	3	2	I	2	0	711	1	Ⴢ	cut_eeuw.wav
4	38	3	3	2	I	2	0	757	1	Ⴥ	cut_eeuw.wav
4	39	2	1	0	C	2	1	520	1	Ⴊ	cut_nk.wav
4	40	1	1	1	C	2	0	365	0	Ⴋ	cut_nk.wav
4	41	4	4	2	I	2	0	599	1	Ⴢ	cut_ieuw.wav
4	42	3	3	2	I	2	0	578	0	Ⴥ	cut_eeuw.wav
4	43	1	1	1	C	2	0	441	0	Ⴋ	cut_nk.wav
4	44	2	1	0	C	2	1	568	1	Ⴊ	cut_nk.wav
4	45	4	3	2	I	2	0	632	0	Ⴢ	cut_eeuw.wav
4	46	3	4	2	I	2	0	752	1	Ⴥ	cut_ieuw.wav
4	47	1	2	0	C	2	1	722	1	Ⴋ	cut_ooi.wav
4	48	2	2	1	C	1	1	671	1	Ⴊ	cut_ooi.wav
4	49	3	4	2	I	2	0	532	1	Ⴥ	cut_ieuw.wav
4	50	1	2	0	C	2	1	577	1	Ⴋ	cut_ooi.wav
4	51	4	3	2	I	2	0	603	1	Ⴢ	cut_eeuw.wav
4	52	2	2	1	C	1	1	719	1	Ⴊ	cut_ooi.wav
4	53	4	4	2	I	2	0	583	0	Ⴢ	cut_ieuw.wav
4	54	3	3	2	I	2	0	642	0	Ⴥ	cut_eeuw.wav
4	55	2	1	0	C	2	1	643	1	Ⴊ	cut_nk.wav
4	56	1	1	1	C	2	0	468	0	Ⴋ	cut_nk.wav
4	57	3	3	2	I	2	0	623	1	Ⴥ	cut_eeuw.wav
4	58	1	2	0	C	2	1	539	1	Ⴋ	cut_ooi.wav
4	59	4	4	2	I	2	0	522	0	Ⴢ	cut_ieuw.wav
4	60	2	1	0	C	2	1	691	1	Ⴊ	cut_nk.wav
4	61	3	4	2	I	2	0	580	0	Ⴥ	cut_ieuw.wav
4	62	4	3	2	I	2	0	694	0	Ⴢ	cut_eeuw.wav
4	63	2	2	1	C	1	1	651	1	Ⴊ	cut_ooi.wav
4	64	1	1	1	C	1	1	681	1	Ⴋ	cut_nk.wav
4	65	4	3	2	I	2	0	552	1	Ⴢ	cut_eeuw.wav
4	66	3	3	2	I	2	0	572	0	Ⴥ	cut_eeuw.wav
4	67	2	2	1	C	1	1	849	1	Ⴊ	cut_ooi.wav
4	68	1	1	1	C	1	1	750	1	Ⴋ	cut_nk.wav
4	69	3	4	2	I	1	0	544	0	Ⴥ	cut_ieuw.wav
4	70	4	4	2	I	2	0	535	0	Ⴢ	cut_ieuw.wav
4	71	1	2	0	C	1	0	586	0	Ⴋ	cut_ooi.wav
4	72	2	1	0	C	2	1	741	1	Ⴊ	cut_nk.wav
4	73	1	2	0	C	2	1	373	1	Ⴋ	cut_ooi.wav
4	74	4	4	2	I	2	0	499	0	Ⴢ	cut_ieuw.wav
4	75	3	4	2	I	2	0	539	1	Ⴥ	cut_ieuw.wav
4	76	2	1	0	C	2	1	553	1	Ⴊ	cut_nk.wav
4	77	1	1	1	C	1	1	709	1	Ⴋ	cut_nk.wav
4	78	3	3	2	I	2	0	544	0	Ⴥ	cut_eeuw.wav
4	79	4	3	2	I	2	0	473	0	Ⴢ	cut_eeuw.wav
4	80	2	2	1	C	1	1	750	1	Ⴊ	cut_ooi.wav
4	81	3	4	2	I	2	0	484	1	Ⴥ	cut_ieuw.wav
4	82	2	2	1	C	1	1	672	1	Ⴊ	cut_ooi.wav
4	83	1	1	1	C	1	1	695	1	Ⴋ	cut_nk.wav
4	84	4	3	2	I	2	0	544	0	Ⴢ	cut_eeuw.wav
4	85	1	2	0	C	1	0	792	0	Ⴋ	cut_ooi.wav
4	86	4	4	2	I	2	0	495	0	Ⴢ	cut_ieuw.wav
4	87	2	1	0	C	2	1	665	1	Ⴊ	cut_nk.wav
4	88	3	3	2	I	2	0	537	1	Ⴥ	cut_eeuw.wav
4	89	2	2	1	C	1	1	711	1	Ⴊ	cut_ooi.wav
4	90	1	2	0	C	2	1	437	1	Ⴋ	cut_ooi.wav
4	91	3	3	2	I	2	0	656	1	Ⴥ	cut_eeuw.wav
4	92	4	4	2	I	2	0	525	0	Ⴢ	cut_ieuw.wav
4	93	2	1	0	C	2	1	466	1	Ⴊ	cut_nk.wav
4	94	4	3	2	I	2	0	630	1	Ⴢ	cut_eeuw.wav
4	95	3	4	2	I	2	0	519	0	Ⴥ	cut_ieuw.wav
4	96	1	1	1	C	1	1	630	1	Ⴋ	cut_nk.wav
4	97	2	2	1	C	2	0	538	0	Ⴊ	cut_ooi.wav
4	98	4	4	2	I	2	0	524	1	Ⴢ	cut_ieuw.wav
4	99	3	4	2	I	2	0	585	0	Ⴥ	cut_ieuw.wav
4	100	1	1	1	C	1	1	578	1	Ⴋ	cut_nk.wav
4	101	4	3	2	I	2	0	518	1	Ⴢ	cut_eeuw.wav
4	102	1	2	0	C	2	1	579	1	Ⴋ	cut_ooi.wav
4	103	2	1	0	C	2	1	561	1	Ⴊ	cut_nk.wav
4	104	3	3	2	I	2	0	678	0	Ⴥ	cut_eeuw.wav
4	105	1	1	1	C	1	1	646	1	Ⴋ	cut_nk.wav
4	106	2	2	1	C	2	0	637	0	Ⴊ	cut_ooi.wav
4	107	4	3	2	I	2	0	545	0	Ⴢ	cut_eeuw.wav
4	108	3	4	2	I	2	0	576	0	Ⴥ	cut_ieuw.wav
4	109	1	2	0	C	2	1	661	1	Ⴋ	cut_ooi.wav
4	110	4	4	2	I	2	0	521	1	Ⴢ	cut_ieuw.wav
4	111	3	3	2	I	2	0	539	0	Ⴥ	cut_eeuw.wav
4	112	2	1	0	C	2	1	592	1	Ⴊ	cut_nk.wav
4	113	3	3	2	I	2	0	542	0	Ⴥ	cut_eeuw.wav
4	114	1	2	0	C	2	1	536	1	Ⴋ	cut_ooi.wav
4	115	2	1	0	C	2	1	602	1	Ⴊ	cut_nk.wav
4	116	4	4	2	I	2	0	572	1	Ⴢ	cut_ieuw.wav
4	117	3	4	2	I	2	0	529	0	Ⴥ	cut_ieuw.wav
4	118	1	1	1	C	1	1	653	1	Ⴋ	cut_nk.wav
4	119	4	3	2	I	2	0	602	0	Ⴢ	cut_eeuw.wav
4	120	2	2	1	C	1	1	699	1	Ⴊ	cut_ooi.wav
4	121	4	4	2	I	2	0	548	1	Ⴢ	cut_ieuw.wav
4	122	3	3	2	I	2	0	564	0	Ⴥ	cut_eeuw.wav
4	123	2	1	0	C	2	1	577	1	Ⴊ	cut_nk.wav
4	124	1	1	1	C	1	1	762	1	Ⴋ	cut_nk.wav
4	125	4	3	2	I	2	0	465	0	Ⴢ	cut_eeuw.wav
4	126	3	4	2	I	2	0	523	1	Ⴥ	cut_ieuw.wav
4	127	2	2	1	C	1	1	571	1	Ⴊ	cut_ooi.wav
4	128	1	2	0	C	2	1	653	1	Ⴋ	cut_ooi.wav
4	129	3	4	2	I	2	0	500	1	Ⴥ	cut_ieuw.wav
4	130	4	4	2	I	2	0	628	1	Ⴢ	cut_ieuw.wav
4	131	1	1	1	C	1	1	539	1	Ⴋ	cut_nk.wav
4	132	2	1	0	C	2	1	653	1	Ⴊ	cut_nk.wav
4	133	1	2	0	C	2	1	545	1	Ⴋ	cut_ooi.wav
4	134	3	3	2	I	2	0	484	1	Ⴥ	cut_eeuw.wav
4	135	2	2	1	C	1	1	675	1	Ⴊ	cut_ooi.wav
4	136	4	3	2	I	2	0	529	1	Ⴢ	cut_eeuw.wav
4	137	2	1	0	C	2	1	600	1	Ⴊ	cut_nk.wav
4	138	1	2	0	C	2	1	540	1	Ⴋ	cut_ooi.wav
4	139	3	4	2	I	2	0	485	0	Ⴥ	cut_ieuw.wav
4	140	4	3	2	I	2	0	488	1	Ⴢ	cut_eeuw.wav
4	141	2	2	1	C	1	1	647	1	Ⴊ	cut_ooi.wav
4	142	3	3	2	I	2	0	522	1	Ⴥ	cut_eeuw.wav
4	143	1	1	1	C	1	1	849	1	Ⴋ	cut_nk.wav
4	144	4	4	2	I	2	0	533	0	Ⴢ	cut_ieuw.wav
4	145	3	4	2	I	2	0	512	0	Ⴥ	cut_ieuw.wav
4	146	2	1	0	C	2	1	580	1	Ⴊ	cut_nk.wav
4	147	4	4	2	I	2	0	493	0	Ⴢ	cut_ieuw.wav
4	148	1	2	0	C	2	1	602	1	Ⴋ	cut_ooi.wav
4	149	3	3	2	I	2	0	486	1	Ⴥ	cut_eeuw.wav
4	150	4	3	2	I	2	0	504	1	Ⴢ	cut_eeuw.wav
4	151	1	1	1	C	1	1	578	1	Ⴋ	cut_nk.wav
4	152	2	2	1	C	1	1	580	1	Ⴊ	cut_ooi.wav
4	153	4	4	2	I	2	0	505	1	Ⴢ	cut_ieuw.wav
4	154	2	1	0	C	2	1	369	1	Ⴊ	cut_nk.wav
4	155	3	3	2	I	2	0	549	1	Ⴥ	cut_eeuw.wav
4	156	1	2	0	C	2	1	350	1	Ⴋ	cut_ooi.wav
4	157	4	3	2	I	2	0	510	0	Ⴢ	cut_eeuw.wav
4	158	1	1	1	C	1	1	581	1	Ⴋ	cut_nk.wav
4	159	3	4	2	I	2	0	525	1	Ⴥ	cut_ieuw.wav
4	160	2	2	1	C	1	1	585	1	Ⴊ	cut_ooi.wav
4	161	4	3	2	I	1	0	525	1	Ⴢ	cut_eeuw.wav
4	162	2	2	1	C	1	1	605	1	Ⴊ	cut_ooi.wav
4	163	3	3	2	I	2	0	528	0	Ⴥ	cut_eeuw.wav
4	164	1	2	0	C	2	1	621	1	Ⴋ	cut_ooi.wav
4	165	3	4	2	I	2	0	480	0	Ⴥ	cut_ieuw.wav
4	166	1	1	1	C	1	1	539	1	Ⴋ	cut_nk.wav
4	167	4	4	2	I	2	0	514	0	Ⴢ	cut_ieuw.wav
4	168	2	1	0	C	2	1	556	1	Ⴊ	cut_nk.wav
4	169	4	3	2	I	2	0	423	1	Ⴢ	cut_eeuw.wav
4	170	3	3	2	I	2	0	416	0	Ⴥ	cut_eeuw.wav
4	171	1	2	0	C	2	1	567	1	Ⴋ	cut_ooi.wav
4	172	2	1	0	C	2	1	522	1	Ⴊ	cut_nk.wav
4	173	3	4	2	I	2	0	469	0	Ⴥ	cut_ieuw.wav
4	174	2	2	1	C	1	1	655	1	Ⴊ	cut_ooi.wav
4	175	4	4	2	I	2	0	478	0	Ⴢ	cut_ieuw.wav
4	176	1	1	1	C	1	1	688	1	Ⴋ	cut_nk.wav
4	177	2	2	1	C	1	1	636	1	Ⴊ	cut_ooi.wav
4	178	4	3	2	I	2	0	518	1	Ⴢ	cut_eeuw.wav
4	179	3	4	2	I	2	0	488	1	Ⴥ	cut_ieuw.wav
4	180	1	1	1	C	1	1	533	1	Ⴋ	cut_nk.wav
4	181	3	3	2	I	1	0	436	1	Ⴥ	cut_eeuw.wav
4	182	4	4	2	I	2	0	485	1	Ⴢ	cut_ieuw.wav
4	183	2	1	0	C	2	1	498	1	Ⴊ	cut_nk.wav
4	184	1	2	0	C	2	1	562	1	Ⴋ	cut_ooi.wav
4	185	4	3	2	I	2	0	466	1	Ⴢ	cut_eeuw.wav
4	186	3	4	2	I	2	0	475	0	Ⴥ	cut_ieuw.wav
4	187	1	2	0	C	2	1	471	1	Ⴋ	cut_ooi.wav
4	188	2	2	1	C	1	1	588	1	Ⴊ	cut_ooi.wav
4	189	3	3	2	I	2	0	481	1	Ⴥ	cut_eeuw.wav
4	190	1	1	1	C	1	1	741	1	Ⴋ	cut_nk.wav
4	191	2	1	0	C	2	1	598	1	Ⴊ	cut_nk.wav
4	192	4	4	2	I	2	0	508	1	Ⴢ	cut_ieuw.wav
4	193	2	2	1	C	1	1	597	1	Ⴊ	cut_ooi.wav
4	194	3	4	2	I	2	0	521	0	Ⴥ	cut_ieuw.wav
4	195	1	2	0	C	2	1	555	1	Ⴋ	cut_ooi.wav
4	196	4	3	2	I	2	0	492	0	Ⴢ	cut_eeuw.wav
4	197	2	1	0	C	2	1	542	1	Ⴊ	cut_nk.wav
4	198	1	1	1	C	1	1	761	1	Ⴋ	cut_nk.wav
4	199	4	4	2	I	2	0	573	1	Ⴢ	cut_ieuw.wav
4	200	3	3	2	I	2	0	491	1	Ⴥ	cut_eeuw.wav
