block	trial	Vstim	Astim	match	C/I	resp	result	RT	fb	V-file	A-file
RL

0	1	2	3	1	C	2	0	1040	0	poli_8sides 21_whiteLine3.jpg	Practice4_b26_mono_resampled.wav
0	2	1	2	0	C	2	1	769	1	poli_8sides 22_whiteLine3.jpg	Practice2_b27_cut2_mono_resampled.wav
0	3	2	4	0	C	2	1	1018	1	poli_8sides 21_whiteLine3.jpg	Practice3_b26_cut1_mono_resampled.wav
0	4	1	1	1	C	1	1	1322	1	poli_8sides 22_whiteLine3.jpg	Practice1_b27_cut1_mono_resampled.wav
0	5	2	3	1	C	2	0	659	0	poli_8sides 21_whiteLine3.jpg	Practice4_b26_mono_resampled.wav
0	6	2	4	0	C	1	0	783	0	poli_8sides 21_whiteLine3.jpg	Practice3_b26_cut1_mono_resampled.wav
0	7	1	1	1	C	1	1	776	1	poli_8sides 22_whiteLine3.jpg	Practice1_b27_cut1_mono_resampled.wav
0	8	1	2	0	C	1	0	897	0	poli_8sides 22_whiteLine3.jpg	Practice2_b27_cut2_mono_resampled.wav
0	9	1	1	1	C	2	0	1148	0	poli_8sides 22_whiteLine3.jpg	Practice1_b27_cut1_mono_resampled.wav
0	10	2	4	0	C	2	1	1038	1	poli_8sides 21_whiteLine3.jpg	Practice3_b26_cut1_mono_resampled.wav
0	11	1	2	0	C	2	1	1197	1	poli_8sides 22_whiteLine3.jpg	Practice2_b27_cut2_mono_resampled.wav
0	12	2	3	1	C	1	1	761	1	poli_8sides 21_whiteLine3.jpg	Practice4_b26_mono_resampled.wav
0	13	1	1	1	C	1	1	765	1	poli_8sides 22_whiteLine3.jpg	Practice1_b27_cut1_mono_resampled.wav
0	14	2	4	0	C	2	1	1043	1	poli_8sides 21_whiteLine3.jpg	Practice3_b26_cut1_mono_resampled.wav
0	15	1	2	0	C	2	1	914	1	poli_8sides 22_whiteLine3.jpg	Practice2_b27_cut2_mono_resampled.wav
0	16	2	3	1	C	1	1	965	1	poli_8sides 21_whiteLine3.jpg	Practice4_b26_mono_resampled.wav
0	17	2	4	0	C	2	1	944	1	poli_8sides 21_whiteLine3.jpg	Practice3_b26_cut1_mono_resampled.wav
0	18	1	2	0	C	2	1	572	1	poli_8sides 22_whiteLine3.jpg	Practice2_b27_cut2_mono_resampled.wav
0	19	2	3	1	C	1	1	795	1	poli_8sides 21_whiteLine3.jpg	Practice4_b26_mono_resampled.wav
0	20	1	1	1	C	1	1	964	1	poli_8sides 22_whiteLine3.jpg	Practice1_b27_cut1_mono_resampled.wav
0	21	1	1	1	C	1	1	870	1	poli_8sides 22_whiteLine3.jpg	Practice1_b27_cut1_mono_resampled.wav
0	22	2	4	0	C	2	1	843	1	poli_8sides 21_whiteLine3.jpg	Practice3_b26_cut1_mono_resampled.wav
0	23	2	3	1	C	1	1	1292	1	poli_8sides 21_whiteLine3.jpg	Practice4_b26_mono_resampled.wav
0	24	1	2	0	C	2	1	920	1	poli_8sides 22_whiteLine3.jpg	Practice2_b27_cut2_mono_resampled.wav
0	25	2	3	1	C	1	1	926	1	poli_8sides 21_whiteLine3.jpg	Practice4_b26_mono_resampled.wav
0	26	2	4	0	C	2	1	792	1	poli_8sides 21_whiteLine3.jpg	Practice3_b26_cut1_mono_resampled.wav
0	27	1	1	1	C	1	1	823	1	poli_8sides 22_whiteLine3.jpg	Practice1_b27_cut1_mono_resampled.wav
0	28	1	2	0	C	2	1	1166	1	poli_8sides 22_whiteLine3.jpg	Practice2_b27_cut2_mono_resampled.wav
0	29	1	1	1	C	1	1	669	1	poli_8sides 22_whiteLine3.jpg	Practice1_b27_cut1_mono_resampled.wav
0	30	1	2	0	C	2	1	768	1	poli_8sides 22_whiteLine3.jpg	Practice2_b27_cut2_mono_resampled.wav
avg_resp = 916
1	1	4	3	2	I	2	0	1339	0	poli_8sides 15_whiteLine3.jpg	Long_e17_cut2_mono_resampled.wav
1	2	1	1	1	C	2	0	1187	0	poli_8sides 1_whiteLine3.jpg	Long_e24_cut1_mono_resampled.wav
1	3	2	1	0	C	2	1	801	1	poli_8sides 8_whiteLine3.jpg	Long_e24_cut1_mono_resampled.wav
1	4	3	3	2	I	2	0	1157	1	poli_8sides 18_whiteLine3.jpg	Long_e17_cut2_mono_resampled.wav
1	5	2	2	1	C	2	0	1215	0	poli_8sides 8_whiteLine3.jpg	Long_b01_cut2_L_mono_resampled.wav
1	6	1	2	0	C	2	1	1259	1	poli_8sides 1_whiteLine3.jpg	Long_b01_cut2_L_mono_resampled.wav
1	7	4	4	2	I	2	0	1093	1	poli_8sides 15_whiteLine3.jpg	Long_s10_cut2_l_mono_resampled.wav
1	8	3	4	2	I	1	0	975	0	poli_8sides 18_whiteLine3.jpg	Long_s10_cut2_l_mono_resampled.wav
1	9	2	1	0	C	2	1	1000	1	poli_8sides 8_whiteLine3.jpg	Long_e24_cut1_mono_resampled.wav
1	10	4	4	2	I	2	0	920	0	poli_8sides 15_whiteLine3.jpg	Long_s10_cut2_l_mono_resampled.wav
1	11	3	4	2	I	2	0	619	0	poli_8sides 18_whiteLine3.jpg	Long_s10_cut2_l_mono_resampled.wav
1	12	1	1	1	C	2	0	926	0	poli_8sides 1_whiteLine3.jpg	Long_e24_cut1_mono_resampled.wav
1	13	4	3	2	I	2	0	1031	0	poli_8sides 15_whiteLine3.jpg	Long_e17_cut2_mono_resampled.wav
1	14	1	2	0	C	2	1	1031	1	poli_8sides 1_whiteLine3.jpg	Long_b01_cut2_L_mono_resampled.wav
1	15	3	3	2	I	2	0	844	0	poli_8sides 18_whiteLine3.jpg	Long_e17_cut2_mono_resampled.wav
1	16	2	2	1	C	1	1	1119	1	poli_8sides 8_whiteLine3.jpg	Long_b01_cut2_L_mono_resampled.wav
1	17	3	3	2	I	2	0	907	1	poli_8sides 18_whiteLine3.jpg	Long_e17_cut2_mono_resampled.wav
1	18	1	2	0	C	2	1	733	1	poli_8sides 1_whiteLine3.jpg	Long_b01_cut2_L_mono_resampled.wav
1	19	2	1	0	C	2	1	1070	1	poli_8sides 8_whiteLine3.jpg	Long_e24_cut1_mono_resampled.wav
1	20	4	4	2	I	2	0	657	0	poli_8sides 15_whiteLine3.jpg	Long_s10_cut2_l_mono_resampled.wav
1	21	3	4	2	I	1	0	750	0	poli_8sides 18_whiteLine3.jpg	Long_s10_cut2_l_mono_resampled.wav
1	22	1	1	1	C	1	1	1114	1	poli_8sides 1_whiteLine3.jpg	Long_e24_cut1_mono_resampled.wav
1	23	2	2	1	C	1	1	923	1	poli_8sides 8_whiteLine3.jpg	Long_b01_cut2_L_mono_resampled.wav
1	24	4	3	2	I	2	0	821	0	poli_8sides 15_whiteLine3.jpg	Long_e17_cut2_mono_resampled.wav
1	25	1	2	0	C	2	1	779	1	poli_8sides 1_whiteLine3.jpg	Long_b01_cut2_L_mono_resampled.wav
1	26	4	3	2	I	1	0	1068	0	poli_8sides 15_whiteLine3.jpg	Long_e17_cut2_mono_resampled.wav
1	27	3	4	2	I	2	0	1086	1	poli_8sides 18_whiteLine3.jpg	Long_s10_cut2_l_mono_resampled.wav
1	28	2	2	1	C	1	1	821	1	poli_8sides 8_whiteLine3.jpg	Long_b01_cut2_L_mono_resampled.wav
1	29	3	3	2	I	2	0	901	0	poli_8sides 18_whiteLine3.jpg	Long_e17_cut2_mono_resampled.wav
1	30	4	4	2	I	2	0	1378	0	poli_8sides 15_whiteLine3.jpg	Long_s10_cut2_l_mono_resampled.wav
1	31	1	1	1	C	1	1	1004	1	poli_8sides 1_whiteLine3.jpg	Long_e24_cut1_mono_resampled.wav
1	32	2	1	0	C	2	1	747	1	poli_8sides 8_whiteLine3.jpg	Long_e24_cut1_mono_resampled.wav
1	33	4	4	2	I	2	0	860	0	poli_8sides 15_whiteLine3.jpg	Long_s10_cut2_l_mono_resampled.wav
1	34	1	2	0	C	2	1	904	1	poli_8sides 1_whiteLine3.jpg	Long_b01_cut2_L_mono_resampled.wav
1	35	3	3	2	I	2	0	969	1	poli_8sides 18_whiteLine3.jpg	Long_e17_cut2_mono_resampled.wav
1	36	2	1	0	C	2	1	1046	1	poli_8sides 8_whiteLine3.jpg	Long_e24_cut1_mono_resampled.wav
1	37	1	1	1	C	1	1	1163	1	poli_8sides 1_whiteLine3.jpg	Long_e24_cut1_mono_resampled.wav
1	38	2	2	1	C	1	1	1144	1	poli_8sides 8_whiteLine3.jpg	Long_b01_cut2_L_mono_resampled.wav
1	39	3	4	2	I	2	0	617	1	poli_8sides 18_whiteLine3.jpg	Long_s10_cut2_l_mono_resampled.wav
1	40	4	3	2	I	2	0	946	1	poli_8sides 15_whiteLine3.jpg	Long_e17_cut2_mono_resampled.wav
1	41	2	2	1	C	1	1	1143	1	poli_8sides 8_whiteLine3.jpg	Long_b01_cut2_L_mono_resampled.wav
1	42	1	2	0	C	2	1	744	1	poli_8sides 1_whiteLine3.jpg	Long_b01_cut2_L_mono_resampled.wav
1	43	4	4	2	I	2	0	894	0	poli_8sides 15_whiteLine3.jpg	Long_s10_cut2_l_mono_resampled.wav
1	44	3	3	2	I	1	0	1482	0	poli_8sides 18_whiteLine3.jpg	Long_e17_cut2_mono_resampled.wav
1	45	4	3	2	I	2	0	1223	1	poli_8sides 15_whiteLine3.jpg	Long_e17_cut2_mono_resampled.wav
1	46	3	4	2	I	2	0	953	1	poli_8sides 18_whiteLine3.jpg	Long_s10_cut2_l_mono_resampled.wav
1	47	2	1	0	C	2	1	484	1	poli_8sides 8_whiteLine3.jpg	Long_e24_cut1_mono_resampled.wav
1	48	1	1	1	C	1	1	634	1	poli_8sides 1_whiteLine3.jpg	Long_e24_cut1_mono_resampled.wav
1	49	3	3	2	I	1	0	733	0	poli_8sides 18_whiteLine3.jpg	Long_e17_cut2_mono_resampled.wav
1	50	4	4	2	I	1	0	1101	0	poli_8sides 15_whiteLine3.jpg	Long_s10_cut2_l_mono_resampled.wav
1	51	2	1	0	C	2	1	815	1	poli_8sides 8_whiteLine3.jpg	Long_e24_cut1_mono_resampled.wav
1	52	1	2	0	C	2	1	697	1	poli_8sides 1_whiteLine3.jpg	Long_b01_cut2_L_mono_resampled.wav
1	53	3	4	2	I	2	0	501	0	poli_8sides 18_whiteLine3.jpg	Long_s10_cut2_l_mono_resampled.wav
1	54	2	2	1	C	1	1	864	1	poli_8sides 8_whiteLine3.jpg	Long_b01_cut2_L_mono_resampled.wav
1	55	1	1	1	C	1	1	1118	1	poli_8sides 1_whiteLine3.jpg	Long_e24_cut1_mono_resampled.wav
1	56	4	3	2	I	1	0	852	1	poli_8sides 15_whiteLine3.jpg	Long_e17_cut2_mono_resampled.wav
1	57	3	3	2	I	2	0	1152	1	poli_8sides 18_whiteLine3.jpg	Long_e17_cut2_mono_resampled.wav
1	58	2	2	1	C	1	1	784	1	poli_8sides 8_whiteLine3.jpg	Long_b01_cut2_L_mono_resampled.wav
1	59	4	3	2	I	2	0	904	1	poli_8sides 15_whiteLine3.jpg	Long_e17_cut2_mono_resampled.wav
1	60	1	1	1	C	1	1	1138	1	poli_8sides 1_whiteLine3.jpg	Long_e24_cut1_mono_resampled.wav
1	61	3	4	2	I	2	0	806	1	poli_8sides 18_whiteLine3.jpg	Long_s10_cut2_l_mono_resampled.wav
1	62	4	4	2	I	1	0	1043	1	poli_8sides 15_whiteLine3.jpg	Long_s10_cut2_l_mono_resampled.wav
1	63	1	2	0	C	2	1	959	1	poli_8sides 1_whiteLine3.jpg	Long_b01_cut2_L_mono_resampled.wav
1	64	2	1	0	C	2	1	561	1	poli_8sides 8_whiteLine3.jpg	Long_e24_cut1_mono_resampled.wav
1	65	4	4	2	I	2	0	776	1	poli_8sides 15_whiteLine3.jpg	Long_s10_cut2_l_mono_resampled.wav
1	66	1	2	0	C	2	1	810	1	poli_8sides 1_whiteLine3.jpg	Long_b01_cut2_L_mono_resampled.wav
1	67	2	1	0	C	2	1	659	1	poli_8sides 8_whiteLine3.jpg	Long_e24_cut1_mono_resampled.wav
1	68	3	4	2	I	1	0	793	0	poli_8sides 18_whiteLine3.jpg	Long_s10_cut2_l_mono_resampled.wav
1	69	2	2	1	C	1	1	917	1	poli_8sides 8_whiteLine3.jpg	Long_b01_cut2_L_mono_resampled.wav
1	70	4	3	2	I	2	0	889	0	poli_8sides 15_whiteLine3.jpg	Long_e17_cut2_mono_resampled.wav
1	71	1	1	1	C	1	1	999	1	poli_8sides 1_whiteLine3.jpg	Long_e24_cut1_mono_resampled.wav
1	72	3	3	2	I	2	0	919	1	poli_8sides 18_whiteLine3.jpg	Long_e17_cut2_mono_resampled.wav
1	73	2	1	0	C	2	1	831	1	poli_8sides 8_whiteLine3.jpg	Long_e24_cut1_mono_resampled.wav
1	74	1	2	0	C	2	1	972	1	poli_8sides 1_whiteLine3.jpg	Long_b01_cut2_L_mono_resampled.wav
1	75	4	3	2	I	1	0	970	1	poli_8sides 15_whiteLine3.jpg	Long_e17_cut2_mono_resampled.wav
1	76	3	3	2	I	1	0	756	0	poli_8sides 18_whiteLine3.jpg	Long_e17_cut2_mono_resampled.wav
1	77	1	1	1	C	1	1	980	1	poli_8sides 1_whiteLine3.jpg	Long_e24_cut1_mono_resampled.wav
1	78	2	2	1	C	1	1	1006	1	poli_8sides 8_whiteLine3.jpg	Long_b01_cut2_L_mono_resampled.wav
1	79	4	4	2	I	1	0	1156	1	poli_8sides 15_whiteLine3.jpg	Long_s10_cut2_l_mono_resampled.wav
1	80	3	4	2	I	2	0	710	1	poli_8sides 18_whiteLine3.jpg	Long_s10_cut2_l_mono_resampled.wav
1	81	1	2	0	C	2	1	1089	1	poli_8sides 1_whiteLine3.jpg	Long_b01_cut2_L_mono_resampled.wav
1	82	4	4	2	I	2	0	961	1	poli_8sides 15_whiteLine3.jpg	Long_s10_cut2_l_mono_resampled.wav
1	83	3	4	2	I	1	0	895	0	poli_8sides 18_whiteLine3.jpg	Long_s10_cut2_l_mono_resampled.wav
1	84	2	2	1	C	1	1	877	1	poli_8sides 8_whiteLine3.jpg	Long_b01_cut2_L_mono_resampled.wav
1	85	3	3	2	I	2	0	1180	1	poli_8sides 18_whiteLine3.jpg	Long_e17_cut2_mono_resampled.wav
1	86	4	3	2	I	1	0	883	1	poli_8sides 15_whiteLine3.jpg	Long_e17_cut2_mono_resampled.wav
1	87	2	1	0	C	2	1	760	1	poli_8sides 8_whiteLine3.jpg	Long_e24_cut1_mono_resampled.wav
1	88	1	1	1	C	1	1	672	1	poli_8sides 1_whiteLine3.jpg	Long_e24_cut1_mono_resampled.wav
1	89	2	2	1	C	1	1	958	1	poli_8sides 8_whiteLine3.jpg	Long_b01_cut2_L_mono_resampled.wav
1	90	3	4	2	I	1	0	851	0	poli_8sides 18_whiteLine3.jpg	Long_s10_cut2_l_mono_resampled.wav
1	91	1	2	0	C	2	1	818	1	poli_8sides 1_whiteLine3.jpg	Long_b01_cut2_L_mono_resampled.wav
1	92	4	3	2	I	2	0	664	0	poli_8sides 15_whiteLine3.jpg	Long_e17_cut2_mono_resampled.wav
1	93	3	3	2	I	2	0	1023	0	poli_8sides 18_whiteLine3.jpg	Long_e17_cut2_mono_resampled.wav
1	94	1	1	1	C	1	1	769	1	poli_8sides 1_whiteLine3.jpg	Long_e24_cut1_mono_resampled.wav
1	95	2	1	0	C	2	1	1022	1	poli_8sides 8_whiteLine3.jpg	Long_e24_cut1_mono_resampled.wav
1	96	4	4	2	I	2	0	1155	0	poli_8sides 15_whiteLine3.jpg	Long_s10_cut2_l_mono_resampled.wav
1	97	1	2	0	C	2	1	642	1	poli_8sides 1_whiteLine3.jpg	Long_b01_cut2_L_mono_resampled.wav
1	98	3	4	2	I	2	0	918	0	poli_8sides 18_whiteLine3.jpg	Long_s10_cut2_l_mono_resampled.wav
1	99	4	3	2	I	2	0	729	0	poli_8sides 15_whiteLine3.jpg	Long_e17_cut2_mono_resampled.wav
1	100	2	1	0	C	2	1	1110	1	poli_8sides 8_whiteLine3.jpg	Long_e24_cut1_mono_resampled.wav
1	101	4	4	2	I	1	0	1233	0	poli_8sides 15_whiteLine3.jpg	Long_s10_cut2_l_mono_resampled.wav
1	102	3	3	2	I	2	0	960	0	poli_8sides 18_whiteLine3.jpg	Long_e17_cut2_mono_resampled.wav
1	103	1	1	1	C	1	1	1121	1	poli_8sides 1_whiteLine3.jpg	Long_e24_cut1_mono_resampled.wav
1	104	2	2	1	C	0	0	0	0	poli_8sides 8_whiteLine3.jpg	Long_b01_cut2_L_mono_resampled.wav
1	105	3	4	2	I	1	0	833	1	poli_8sides 18_whiteLine3.jpg	Long_s10_cut2_l_mono_resampled.wav
1	106	1	2	0	C	2	1	727	1	poli_8sides 1_whiteLine3.jpg	Long_b01_cut2_L_mono_resampled.wav
1	107	2	2	1	C	1	1	1110	1	poli_8sides 8_whiteLine3.jpg	Long_b01_cut2_L_mono_resampled.wav
1	108	4	3	2	I	2	0	872	1	poli_8sides 15_whiteLine3.jpg	Long_e17_cut2_mono_resampled.wav
1	109	1	1	1	C	1	1	657	1	poli_8sides 1_whiteLine3.jpg	Long_e24_cut1_mono_resampled.wav
1	110	4	4	2	I	2	0	823	0	poli_8sides 15_whiteLine3.jpg	Long_s10_cut2_l_mono_resampled.wav
1	111	2	1	0	C	2	1	797	1	poli_8sides 8_whiteLine3.jpg	Long_e24_cut1_mono_resampled.wav
1	112	3	3	2	I	1	0	1044	1	poli_8sides 18_whiteLine3.jpg	Long_e17_cut2_mono_resampled.wav
1	113	2	2	1	C	1	1	720	1	poli_8sides 8_whiteLine3.jpg	Long_b01_cut2_L_mono_resampled.wav
1	114	1	2	0	C	2	1	824	1	poli_8sides 1_whiteLine3.jpg	Long_b01_cut2_L_mono_resampled.wav
1	115	3	4	2	I	2	0	978	0	poli_8sides 18_whiteLine3.jpg	Long_s10_cut2_l_mono_resampled.wav
1	116	4	3	2	I	2	0	1023	1	poli_8sides 15_whiteLine3.jpg	Long_e17_cut2_mono_resampled.wav
1	117	1	1	1	C	1	1	888	1	poli_8sides 1_whiteLine3.jpg	Long_e24_cut1_mono_resampled.wav
1	118	2	1	0	C	2	1	1031	1	poli_8sides 8_whiteLine3.jpg	Long_e24_cut1_mono_resampled.wav
1	119	4	4	2	I	1	0	1068	1	poli_8sides 15_whiteLine3.jpg	Long_s10_cut2_l_mono_resampled.wav
1	120	3	3	2	I	2	0	912	1	poli_8sides 18_whiteLine3.jpg	Long_e17_cut2_mono_resampled.wav
1	121	2	2	1	C	1	1	853	1	poli_8sides 8_whiteLine3.jpg	Long_b01_cut2_L_mono_resampled.wav
1	122	4	4	2	I	2	0	1388	1	poli_8sides 15_whiteLine3.jpg	Long_s10_cut2_l_mono_resampled.wav
1	123	1	2	0	C	2	1	998	1	poli_8sides 1_whiteLine3.jpg	Long_b01_cut2_L_mono_resampled.wav
1	124	3	4	2	I	2	0	654	0	poli_8sides 18_whiteLine3.jpg	Long_s10_cut2_l_mono_resampled.wav
1	125	1	1	1	C	1	1	1040	1	poli_8sides 1_whiteLine3.jpg	Long_e24_cut1_mono_resampled.wav
1	126	4	3	2	I	2	0	1205	1	poli_8sides 15_whiteLine3.jpg	Long_e17_cut2_mono_resampled.wav
1	127	2	1	0	C	2	1	887	1	poli_8sides 8_whiteLine3.jpg	Long_e24_cut1_mono_resampled.wav
1	128	3	3	2	I	1	0	1167	1	poli_8sides 18_whiteLine3.jpg	Long_e17_cut2_mono_resampled.wav
1	129	2	2	1	C	1	1	904	1	poli_8sides 8_whiteLine3.jpg	Long_b01_cut2_L_mono_resampled.wav
1	130	1	1	1	C	1	1	1129	1	poli_8sides 1_whiteLine3.jpg	Long_e24_cut1_mono_resampled.wav
1	131	3	3	2	I	1	0	1070	0	poli_8sides 18_whiteLine3.jpg	Long_e17_cut2_mono_resampled.wav
1	132	4	4	2	I	2	0	814	1	poli_8sides 15_whiteLine3.jpg	Long_s10_cut2_l_mono_resampled.wav
1	133	2	1	0	C	2	1	901	1	poli_8sides 8_whiteLine3.jpg	Long_e24_cut1_mono_resampled.wav
1	134	3	4	2	I	2	0	950	1	poli_8sides 18_whiteLine3.jpg	Long_s10_cut2_l_mono_resampled.wav
1	135	4	3	2	I	1	0	696	1	poli_8sides 15_whiteLine3.jpg	Long_e17_cut2_mono_resampled.wav
1	136	1	2	0	C	2	1	641	1	poli_8sides 1_whiteLine3.jpg	Long_b01_cut2_L_mono_resampled.wav
1	137	4	3	2	I	2	0	967	0	poli_8sides 15_whiteLine3.jpg	Long_e17_cut2_mono_resampled.wav
1	138	3	3	2	I	2	0	590	1	poli_8sides 18_whiteLine3.jpg	Long_e17_cut2_mono_resampled.wav
1	139	2	1	0	C	2	1	720	1	poli_8sides 8_whiteLine3.jpg	Long_e24_cut1_mono_resampled.wav
1	140	1	1	1	C	1	1	830	1	poli_8sides 1_whiteLine3.jpg	Long_e24_cut1_mono_resampled.wav
1	141	3	4	2	I	2	0	1105	0	poli_8sides 18_whiteLine3.jpg	Long_s10_cut2_l_mono_resampled.wav
1	142	2	2	1	C	1	1	921	1	poli_8sides 8_whiteLine3.jpg	Long_b01_cut2_L_mono_resampled.wav
1	143	1	2	0	C	2	1	895	1	poli_8sides 1_whiteLine3.jpg	Long_b01_cut2_L_mono_resampled.wav
1	144	4	4	2	I	2	0	1009	1	poli_8sides 15_whiteLine3.jpg	Long_s10_cut2_l_mono_resampled.wav
1	145	1	1	1	C	1	1	1068	1	poli_8sides 1_whiteLine3.jpg	Long_e24_cut1_mono_resampled.wav
1	146	3	3	2	I	1	0	1385	1	poli_8sides 18_whiteLine3.jpg	Long_e17_cut2_mono_resampled.wav
1	147	4	4	2	I	1	0	1526	0	poli_8sides 15_whiteLine3.jpg	Long_s10_cut2_l_mono_resampled.wav
1	148	2	2	1	C	1	1	1007	1	poli_8sides 8_whiteLine3.jpg	Long_b01_cut2_L_mono_resampled.wav
1	149	4	3	2	I	2	0	830	0	poli_8sides 15_whiteLine3.jpg	Long_e17_cut2_mono_resampled.wav
1	150	3	4	2	I	2	0	960	0	poli_8sides 18_whiteLine3.jpg	Long_s10_cut2_l_mono_resampled.wav
1	151	1	2	0	C	2	1	778	1	poli_8sides 1_whiteLine3.jpg	Long_b01_cut2_L_mono_resampled.wav
1	152	2	1	0	C	2	1	1068	1	poli_8sides 8_whiteLine3.jpg	Long_e24_cut1_mono_resampled.wav
1	153	4	4	2	I	1	0	1160	0	poli_8sides 15_whiteLine3.jpg	Long_s10_cut2_l_mono_resampled.wav
1	154	1	2	0	C	2	1	814	1	poli_8sides 1_whiteLine3.jpg	Long_b01_cut2_L_mono_resampled.wav
1	155	3	3	2	I	2	0	556	1	poli_8sides 18_whiteLine3.jpg	Long_e17_cut2_mono_resampled.wav
1	156	2	1	0	C	2	1	702	1	poli_8sides 8_whiteLine3.jpg	Long_e24_cut1_mono_resampled.wav
1	157	1	1	1	C	1	1	889	1	poli_8sides 1_whiteLine3.jpg	Long_e24_cut1_mono_resampled.wav
1	158	3	4	2	I	2	0	787	0	poli_8sides 18_whiteLine3.jpg	Long_s10_cut2_l_mono_resampled.wav
1	159	4	3	2	I	1	0	623	0	poli_8sides 15_whiteLine3.jpg	Long_e17_cut2_mono_resampled.wav
1	160	2	2	1	C	1	1	908	1	poli_8sides 8_whiteLine3.jpg	Long_b01_cut2_L_mono_resampled.wav
1	161	4	3	2	I	2	0	907	1	poli_8sides 15_whiteLine3.jpg	Long_e17_cut2_mono_resampled.wav
1	162	2	2	1	C	2	0	1423	0	poli_8sides 8_whiteLine3.jpg	Long_b01_cut2_L_mono_resampled.wav
1	163	1	1	1	C	1	1	667	1	poli_8sides 1_whiteLine3.jpg	Long_e24_cut1_mono_resampled.wav
1	164	3	3	2	I	2	0	856	0	poli_8sides 18_whiteLine3.jpg	Long_e17_cut2_mono_resampled.wav
1	165	4	4	2	I	1	0	595	0	poli_8sides 15_whiteLine3.jpg	Long_s10_cut2_l_mono_resampled.wav
1	166	3	4	2	I	2	0	831	1	poli_8sides 18_whiteLine3.jpg	Long_s10_cut2_l_mono_resampled.wav
1	167	1	2	0	C	2	1	854	1	poli_8sides 1_whiteLine3.jpg	Long_b01_cut2_L_mono_resampled.wav
1	168	2	1	0	C	2	1	585	1	poli_8sides 8_whiteLine3.jpg	Long_e24_cut1_mono_resampled.wav
1	169	3	3	2	I	2	0	842	1	poli_8sides 18_whiteLine3.jpg	Long_e17_cut2_mono_resampled.wav
1	170	1	1	1	C	1	1	890	1	poli_8sides 1_whiteLine3.jpg	Long_e24_cut1_mono_resampled.wav
1	171	4	4	2	I	1	0	1041	1	poli_8sides 15_whiteLine3.jpg	Long_s10_cut2_l_mono_resampled.wav
1	172	2	1	0	C	2	1	688	1	poli_8sides 8_whiteLine3.jpg	Long_e24_cut1_mono_resampled.wav
1	173	3	4	2	I	1	0	964	1	poli_8sides 18_whiteLine3.jpg	Long_s10_cut2_l_mono_resampled.wav
1	174	2	2	1	C	1	1	866	1	poli_8sides 8_whiteLine3.jpg	Long_b01_cut2_L_mono_resampled.wav
1	175	1	2	0	C	2	1	640	1	poli_8sides 1_whiteLine3.jpg	Long_b01_cut2_L_mono_resampled.wav
1	176	4	3	2	I	1	0	1048	1	poli_8sides 15_whiteLine3.jpg	Long_e17_cut2_mono_resampled.wav
1	177	3	4	2	I	1	0	930	0	poli_8sides 18_whiteLine3.jpg	Long_s10_cut2_l_mono_resampled.wav
1	178	4	3	2	I	2	0	989	0	poli_8sides 15_whiteLine3.jpg	Long_e17_cut2_mono_resampled.wav
1	179	2	2	1	C	1	1	863	1	poli_8sides 8_whiteLine3.jpg	Long_b01_cut2_L_mono_resampled.wav
1	180	1	1	1	C	1	1	1285	1	poli_8sides 1_whiteLine3.jpg	Long_e24_cut1_mono_resampled.wav
1	181	3	3	2	I	1	0	1095	1	poli_8sides 18_whiteLine3.jpg	Long_e17_cut2_mono_resampled.wav
1	182	4	4	2	I	1	0	818	0	poli_8sides 15_whiteLine3.jpg	Long_s10_cut2_l_mono_resampled.wav
1	183	2	1	0	C	2	1	829	1	poli_8sides 8_whiteLine3.jpg	Long_e24_cut1_mono_resampled.wav
1	184	1	2	0	C	2	1	1341	1	poli_8sides 1_whiteLine3.jpg	Long_b01_cut2_L_mono_resampled.wav
1	185	4	4	2	I	2	0	1047	1	poli_8sides 15_whiteLine3.jpg	Long_s10_cut2_l_mono_resampled.wav
1	186	3	3	2	I	2	0	814	0	poli_8sides 18_whiteLine3.jpg	Long_e17_cut2_mono_resampled.wav
1	187	1	1	1	C	1	1	1076	1	poli_8sides 1_whiteLine3.jpg	Long_e24_cut1_mono_resampled.wav
1	188	2	1	0	C	2	1	691	1	poli_8sides 8_whiteLine3.jpg	Long_e24_cut1_mono_resampled.wav
1	189	1	2	0	C	2	1	597	1	poli_8sides 1_whiteLine3.jpg	Long_b01_cut2_L_mono_resampled.wav
1	190	4	3	2	I	2	0	827	0	poli_8sides 15_whiteLine3.jpg	Long_e17_cut2_mono_resampled.wav
1	191	3	4	2	I	1	0	1376	1	poli_8sides 18_whiteLine3.jpg	Long_s10_cut2_l_mono_resampled.wav
1	192	2	2	1	C	1	1	730	1	poli_8sides 8_whiteLine3.jpg	Long_b01_cut2_L_mono_resampled.wav
1	193	4	4	2	I	1	0	922	1	poli_8sides 15_whiteLine3.jpg	Long_s10_cut2_l_mono_resampled.wav
1	194	2	1	0	C	2	1	1618	1	poli_8sides 8_whiteLine3.jpg	Long_e24_cut1_mono_resampled.wav
1	195	1	1	1	C	1	1	751	1	poli_8sides 1_whiteLine3.jpg	Long_e24_cut1_mono_resampled.wav
1	196	3	3	2	I	1	0	1162	1	poli_8sides 18_whiteLine3.jpg	Long_e17_cut2_mono_resampled.wav
1	197	4	3	2	I	2	0	622	1	poli_8sides 15_whiteLine3.jpg	Long_e17_cut2_mono_resampled.wav
1	198	3	4	2	I	2	0	1131	0	poli_8sides 18_whiteLine3.jpg	Long_s10_cut2_l_mono_resampled.wav
1	199	1	2	0	C	2	1	750	1	poli_8sides 1_whiteLine3.jpg	Long_b01_cut2_L_mono_resampled.wav
1	200	2	2	1	C	1	1	865	1	poli_8sides 8_whiteLine3.jpg	Long_b01_cut2_L_mono_resampled.wav
2	1	4	4	2	I	2	0	1790	1	poli_8sides 13_whiteLine3.jpg	Short_b23_cut1_mono_resampled.wav
2	2	3	4	2	I	1	0	1230	1	poli_8sides 12_whiteLine3.jpg	Short_b23_cut1_mono_resampled.wav
2	3	2	2	1	C	2	0	925	0	poli_8sides 17_whiteLine3.jpg	Short_b09_cut1_mono_resampled.wav
2	4	1	1	1	C	2	0	1523	0	poli_8sides 3_whiteLine3.jpg	Short_b20_cut1_mono_resampled.wav
2	5	3	3	2	I	2	0	1319	0	poli_8sides 12_whiteLine3.jpg	Short_b22_cut1_mono_resampled.wav
2	6	2	1	0	C	2	1	1110	1	poli_8sides 17_whiteLine3.jpg	Short_b20_cut1_mono_resampled.wav
2	7	1	2	0	C	2	1	1542	1	poli_8sides 3_whiteLine3.jpg	Short_b09_cut1_mono_resampled.wav
2	8	4	3	2	I	2	0	1136	1	poli_8sides 13_whiteLine3.jpg	Short_b22_cut1_mono_resampled.wav
2	9	2	2	1	C	1	1	1040	1	poli_8sides 17_whiteLine3.jpg	Short_b09_cut1_mono_resampled.wav
2	10	3	3	2	I	1	0	1003	1	poli_8sides 12_whiteLine3.jpg	Short_b22_cut1_mono_resampled.wav
2	11	1	2	0	C	2	1	792	1	poli_8sides 3_whiteLine3.jpg	Short_b09_cut1_mono_resampled.wav
2	12	4	4	2	I	2	0	695	0	poli_8sides 13_whiteLine3.jpg	Short_b23_cut1_mono_resampled.wav
2	13	2	1	0	C	2	1	1450	1	poli_8sides 17_whiteLine3.jpg	Short_b20_cut1_mono_resampled.wav
2	14	3	4	2	I	1	0	1147	0	poli_8sides 12_whiteLine3.jpg	Short_b23_cut1_mono_resampled.wav
2	15	1	1	1	C	2	0	686	0	poli_8sides 3_whiteLine3.jpg	Short_b20_cut1_mono_resampled.wav
2	16	4	3	2	I	2	0	886	1	poli_8sides 13_whiteLine3.jpg	Short_b22_cut1_mono_resampled.wav
2	17	3	4	2	I	1	0	919	1	poli_8sides 12_whiteLine3.jpg	Short_b23_cut1_mono_resampled.wav
2	18	2	1	0	C	1	0	1477	0	poli_8sides 17_whiteLine3.jpg	Short_b20_cut1_mono_resampled.wav
2	19	4	4	2	I	2	0	1399	1	poli_8sides 13_whiteLine3.jpg	Short_b23_cut1_mono_resampled.wav
2	20	1	2	0	C	2	1	813	1	poli_8sides 3_whiteLine3.jpg	Short_b09_cut1_mono_resampled.wav
2	21	2	2	1	C	1	1	664	1	poli_8sides 17_whiteLine3.jpg	Short_b09_cut1_mono_resampled.wav
2	22	3	3	2	I	2	0	990	0	poli_8sides 12_whiteLine3.jpg	Short_b22_cut1_mono_resampled.wav
2	23	4	3	2	I	2	0	561	0	poli_8sides 13_whiteLine3.jpg	Short_b22_cut1_mono_resampled.wav
2	24	1	1	1	C	2	0	812	0	poli_8sides 3_whiteLine3.jpg	Short_b20_cut1_mono_resampled.wav
2	25	4	3	2	I	2	0	733	1	poli_8sides 13_whiteLine3.jpg	Short_b22_cut1_mono_resampled.wav
2	26	3	4	2	I	1	0	819	1	poli_8sides 12_whiteLine3.jpg	Short_b23_cut1_mono_resampled.wav
2	27	2	1	0	C	2	1	663	1	poli_8sides 17_whiteLine3.jpg	Short_b20_cut1_mono_resampled.wav
2	28	1	1	1	C	2	0	831	0	poli_8sides 3_whiteLine3.jpg	Short_b20_cut1_mono_resampled.wav
2	29	2	2	1	C	2	0	893	0	poli_8sides 17_whiteLine3.jpg	Short_b09_cut1_mono_resampled.wav
2	30	1	2	0	C	1	0	1205	0	poli_8sides 3_whiteLine3.jpg	Short_b09_cut1_mono_resampled.wav
2	31	3	3	2	I	2	0	723	0	poli_8sides 12_whiteLine3.jpg	Short_b22_cut1_mono_resampled.wav
2	32	4	4	2	I	2	0	476	0	poli_8sides 13_whiteLine3.jpg	Short_b23_cut1_mono_resampled.wav
2	33	2	1	0	C	2	1	837	1	poli_8sides 17_whiteLine3.jpg	Short_b20_cut1_mono_resampled.wav
2	34	3	4	2	I	2	0	702	1	poli_8sides 12_whiteLine3.jpg	Short_b23_cut1_mono_resampled.wav
2	35	1	1	1	C	2	0	1412	0	poli_8sides 3_whiteLine3.jpg	Short_b20_cut1_mono_resampled.wav
2	36	4	4	2	I	2	0	682	1	poli_8sides 13_whiteLine3.jpg	Short_b23_cut1_mono_resampled.wav
2	37	1	2	0	C	1	0	1237	0	poli_8sides 3_whiteLine3.jpg	Short_b09_cut1_mono_resampled.wav
2	38	2	2	1	C	1	1	1127	1	poli_8sides 17_whiteLine3.jpg	Short_b09_cut1_mono_resampled.wav
2	39	4	3	2	I	2	0	478	1	poli_8sides 13_whiteLine3.jpg	Short_b22_cut1_mono_resampled.wav
2	40	3	3	2	I	2	0	931	0	poli_8sides 12_whiteLine3.jpg	Short_b22_cut1_mono_resampled.wav
2	41	4	3	2	I	2	0	601	1	poli_8sides 13_whiteLine3.jpg	Short_b22_cut1_mono_resampled.wav
2	42	1	1	1	C	2	0	835	0	poli_8sides 3_whiteLine3.jpg	Short_b20_cut1_mono_resampled.wav
2	43	2	1	0	C	2	1	825	1	poli_8sides 17_whiteLine3.jpg	Short_b20_cut1_mono_resampled.wav
2	44	3	4	2	I	1	0	1282	1	poli_8sides 12_whiteLine3.jpg	Short_b23_cut1_mono_resampled.wav
2	45	4	4	2	I	2	0	760	0	poli_8sides 13_whiteLine3.jpg	Short_b23_cut1_mono_resampled.wav
2	46	1	2	0	C	2	1	629	1	poli_8sides 3_whiteLine3.jpg	Short_b09_cut1_mono_resampled.wav
2	47	3	3	2	I	1	0	974	1	poli_8sides 12_whiteLine3.jpg	Short_b22_cut1_mono_resampled.wav
2	48	2	2	1	C	2	0	1034	0	poli_8sides 17_whiteLine3.jpg	Short_b09_cut1_mono_resampled.wav
2	49	3	4	2	I	1	0	1304	0	poli_8sides 12_whiteLine3.jpg	Short_b23_cut1_mono_resampled.wav
2	50	4	4	2	I	2	0	602	1	poli_8sides 13_whiteLine3.jpg	Short_b23_cut1_mono_resampled.wav
2	51	1	2	0	C	2	1	857	1	poli_8sides 3_whiteLine3.jpg	Short_b09_cut1_mono_resampled.wav
2	52	2	2	1	C	1	1	1147	1	poli_8sides 17_whiteLine3.jpg	Short_b09_cut1_mono_resampled.wav
2	53	3	3	2	I	1	0	849	0	poli_8sides 12_whiteLine3.jpg	Short_b22_cut1_mono_resampled.wav
2	54	2	1	0	C	1	0	1028	0	poli_8sides 17_whiteLine3.jpg	Short_b20_cut1_mono_resampled.wav
2	55	4	3	2	I	2	0	703	0	poli_8sides 13_whiteLine3.jpg	Short_b22_cut1_mono_resampled.wav
2	56	1	1	1	C	2	0	998	0	poli_8sides 3_whiteLine3.jpg	Short_b20_cut1_mono_resampled.wav
2	57	2	1	0	C	2	1	474	1	poli_8sides 17_whiteLine3.jpg	Short_b20_cut1_mono_resampled.wav
2	58	4	4	2	I	2	0	696	0	poli_8sides 13_whiteLine3.jpg	Short_b23_cut1_mono_resampled.wav
2	59	3	3	2	I	1	0	923	1	poli_8sides 12_whiteLine3.jpg	Short_b22_cut1_mono_resampled.wav
2	60	1	1	1	C	2	0	1160	0	poli_8sides 3_whiteLine3.jpg	Short_b20_cut1_mono_resampled.wav
2	61	3	4	2	I	1	0	859	0	poli_8sides 12_whiteLine3.jpg	Short_b23_cut1_mono_resampled.wav
2	62	1	2	0	C	2	1	1112	1	poli_8sides 3_whiteLine3.jpg	Short_b09_cut1_mono_resampled.wav
2	63	4	3	2	I	2	0	770	0	poli_8sides 13_whiteLine3.jpg	Short_b22_cut1_mono_resampled.wav
2	64	2	2	1	C	1	1	1010	1	poli_8sides 17_whiteLine3.jpg	Short_b09_cut1_mono_resampled.wav
2	65	1	2	0	C	2	1	1385	1	poli_8sides 3_whiteLine3.jpg	Short_b09_cut1_mono_resampled.wav
2	66	4	4	2	I	2	0	700	1	poli_8sides 13_whiteLine3.jpg	Short_b23_cut1_mono_resampled.wav
2	67	2	1	0	C	2	1	609	1	poli_8sides 17_whiteLine3.jpg	Short_b20_cut1_mono_resampled.wav
2	68	3	4	2	I	1	0	787	1	poli_8sides 12_whiteLine3.jpg	Short_b23_cut1_mono_resampled.wav
2	69	2	2	1	C	2	0	788	0	poli_8sides 17_whiteLine3.jpg	Short_b09_cut1_mono_resampled.wav
2	70	1	1	1	C	1	1	950	1	poli_8sides 3_whiteLine3.jpg	Short_b20_cut1_mono_resampled.wav
2	71	3	3	2	I	2	0	1307	1	poli_8sides 12_whiteLine3.jpg	Short_b22_cut1_mono_resampled.wav
2	72	4	3	2	I	2	0	786	0	poli_8sides 13_whiteLine3.jpg	Short_b22_cut1_mono_resampled.wav
2	73	2	2	1	C	2	0	1186	0	poli_8sides 17_whiteLine3.jpg	Short_b09_cut1_mono_resampled.wav
2	74	3	3	2	I	1	0	985	1	poli_8sides 12_whiteLine3.jpg	Short_b22_cut1_mono_resampled.wav
2	75	1	1	1	C	1	1	1313	1	poli_8sides 3_whiteLine3.jpg	Short_b20_cut1_mono_resampled.wav
2	76	4	3	2	I	2	0	807	0	poli_8sides 13_whiteLine3.jpg	Short_b22_cut1_mono_resampled.wav
2	77	1	2	0	C	2	1	1244	1	poli_8sides 3_whiteLine3.jpg	Short_b09_cut1_mono_resampled.wav
2	78	2	1	0	C	2	1	566	1	poli_8sides 17_whiteLine3.jpg	Short_b20_cut1_mono_resampled.wav
2	79	3	4	2	I	2	0	1029	0	poli_8sides 12_whiteLine3.jpg	Short_b23_cut1_mono_resampled.wav
2	80	4	4	2	I	2	0	578	1	poli_8sides 13_whiteLine3.jpg	Short_b23_cut1_mono_resampled.wav
2	81	1	1	1	C	1	1	1691	1	poli_8sides 3_whiteLine3.jpg	Short_b20_cut1_mono_resampled.wav
2	82	3	4	2	I	2	0	750	0	poli_8sides 12_whiteLine3.jpg	Short_b23_cut1_mono_resampled.wav
2	83	2	2	1	C	2	0	1317	0	poli_8sides 17_whiteLine3.jpg	Short_b09_cut1_mono_resampled.wav
2	84	4	3	2	I	2	0	812	1	poli_8sides 13_whiteLine3.jpg	Short_b22_cut1_mono_resampled.wav
2	85	3	3	2	I	2	0	784	1	poli_8sides 12_whiteLine3.jpg	Short_b22_cut1_mono_resampled.wav
2	86	2	1	0	C	2	1	675	1	poli_8sides 17_whiteLine3.jpg	Short_b20_cut1_mono_resampled.wav
2	87	1	2	0	C	2	1	1108	1	poli_8sides 3_whiteLine3.jpg	Short_b09_cut1_mono_resampled.wav
2	88	4	4	2	I	2	0	786	1	poli_8sides 13_whiteLine3.jpg	Short_b23_cut1_mono_resampled.wav
2	89	3	4	2	I	2	0	764	1	poli_8sides 12_whiteLine3.jpg	Short_b23_cut1_mono_resampled.wav
2	90	1	2	0	C	2	1	1501	1	poli_8sides 3_whiteLine3.jpg	Short_b09_cut1_mono_resampled.wav
2	91	4	3	2	I	2	0	788	1	poli_8sides 13_whiteLine3.jpg	Short_b22_cut1_mono_resampled.wav
2	92	2	2	1	C	1	1	1179	1	poli_8sides 17_whiteLine3.jpg	Short_b09_cut1_mono_resampled.wav
2	93	3	3	2	I	2	0	694	1	poli_8sides 12_whiteLine3.jpg	Short_b22_cut1_mono_resampled.wav
2	94	4	4	2	I	2	0	690	0	poli_8sides 13_whiteLine3.jpg	Short_b23_cut1_mono_resampled.wav
2	95	2	1	0	C	2	1	950	1	poli_8sides 17_whiteLine3.jpg	Short_b20_cut1_mono_resampled.wav
2	96	1	1	1	C	1	1	921	1	poli_8sides 3_whiteLine3.jpg	Short_b20_cut1_mono_resampled.wav
2	97	4	3	2	I	2	0	790	0	poli_8sides 13_whiteLine3.jpg	Short_b22_cut1_mono_resampled.wav
2	98	2	2	1	C	1	1	1172	1	poli_8sides 17_whiteLine3.jpg	Short_b09_cut1_mono_resampled.wav
2	99	1	2	0	C	2	1	818	1	poli_8sides 3_whiteLine3.jpg	Short_b09_cut1_mono_resampled.wav
2	100	3	4	2	I	1	0	1650	0	poli_8sides 12_whiteLine3.jpg	Short_b23_cut1_mono_resampled.wav
2	101	1	1	1	C	1	1	1167	1	poli_8sides 3_whiteLine3.jpg	Short_b20_cut1_mono_resampled.wav
2	102	3	3	2	I	2	0	1215	1	poli_8sides 12_whiteLine3.jpg	Short_b22_cut1_mono_resampled.wav
2	103	4	4	2	I	2	0	597	0	poli_8sides 13_whiteLine3.jpg	Short_b23_cut1_mono_resampled.wav
2	104	2	1	0	C	2	1	1124	1	poli_8sides 17_whiteLine3.jpg	Short_b20_cut1_mono_resampled.wav
2	105	3	4	2	I	2	0	754	0	poli_8sides 12_whiteLine3.jpg	Short_b23_cut1_mono_resampled.wav
2	106	1	2	0	C	2	1	1137	1	poli_8sides 3_whiteLine3.jpg	Short_b09_cut1_mono_resampled.wav
2	107	4	4	2	I	2	0	970	0	poli_8sides 13_whiteLine3.jpg	Short_b23_cut1_mono_resampled.wav
2	108	2	1	0	C	2	1	613	1	poli_8sides 17_whiteLine3.jpg	Short_b20_cut1_mono_resampled.wav
2	109	1	1	1	C	1	1	1188	1	poli_8sides 3_whiteLine3.jpg	Short_b20_cut1_mono_resampled.wav
2	110	3	3	2	I	2	0	750	0	poli_8sides 12_whiteLine3.jpg	Short_b22_cut1_mono_resampled.wav
2	111	2	2	1	C	1	1	1419	1	poli_8sides 17_whiteLine3.jpg	Short_b09_cut1_mono_resampled.wav
2	112	4	3	2	I	2	0	578	1	poli_8sides 13_whiteLine3.jpg	Short_b22_cut1_mono_resampled.wav
2	113	1	2	0	C	2	1	1006	1	poli_8sides 3_whiteLine3.jpg	Short_b09_cut1_mono_resampled.wav
2	114	4	4	2	I	2	0	634	1	poli_8sides 13_whiteLine3.jpg	Short_b23_cut1_mono_resampled.wav
2	115	2	2	1	C	1	1	1138	1	poli_8sides 17_whiteLine3.jpg	Short_b09_cut1_mono_resampled.wav
2	116	3	3	2	I	1	0	835	0	poli_8sides 12_whiteLine3.jpg	Short_b22_cut1_mono_resampled.wav
2	117	4	3	2	I	2	0	1146	1	poli_8sides 13_whiteLine3.jpg	Short_b22_cut1_mono_resampled.wav
2	118	1	1	1	C	2	0	1021	0	poli_8sides 3_whiteLine3.jpg	Short_b20_cut1_mono_resampled.wav
2	119	3	4	2	I	2	0	678	1	poli_8sides 12_whiteLine3.jpg	Short_b23_cut1_mono_resampled.wav
2	120	2	1	0	C	2	1	634	1	poli_8sides 17_whiteLine3.jpg	Short_b20_cut1_mono_resampled.wav
2	121	3	3	2	I	2	0	747	1	poli_8sides 12_whiteLine3.jpg	Short_b22_cut1_mono_resampled.wav
2	122	4	4	2	I	2	0	811	0	poli_8sides 13_whiteLine3.jpg	Short_b23_cut1_mono_resampled.wav
2	123	2	2	1	C	0	0	0	0	poli_8sides 17_whiteLine3.jpg	Short_b09_cut1_mono_resampled.wav
2	124	1	1	1	C	1	1	1031	1	poli_8sides 3_whiteLine3.jpg	Short_b20_cut1_mono_resampled.wav
2	125	3	4	2	I	2	0	1439	0	poli_8sides 12_whiteLine3.jpg	Short_b23_cut1_mono_resampled.wav
2	126	1	2	0	C	2	1	1106	1	poli_8sides 3_whiteLine3.jpg	Short_b09_cut1_mono_resampled.wav
2	127	2	1	0	C	2	1	644	1	poli_8sides 17_whiteLine3.jpg	Short_b20_cut1_mono_resampled.wav
2	128	4	3	2	I	2	0	1031	0	poli_8sides 13_whiteLine3.jpg	Short_b22_cut1_mono_resampled.wav
2	129	3	4	2	I	1	0	820	0	poli_8sides 12_whiteLine3.jpg	Short_b23_cut1_mono_resampled.wav
2	130	4	4	2	I	2	0	1071	1	poli_8sides 13_whiteLine3.jpg	Short_b23_cut1_mono_resampled.wav
2	131	2	1	0	C	2	1	1089	1	poli_8sides 17_whiteLine3.jpg	Short_b20_cut1_mono_resampled.wav
2	132	1	2	0	C	2	1	991	1	poli_8sides 3_whiteLine3.jpg	Short_b09_cut1_mono_resampled.wav
2	133	2	2	1	C	1	1	1202	1	poli_8sides 17_whiteLine3.jpg	Short_b09_cut1_mono_resampled.wav
2	134	4	3	2	I	2	0	879	0	poli_8sides 13_whiteLine3.jpg	Short_b22_cut1_mono_resampled.wav
2	135	3	3	2	I	2	0	992	1	poli_8sides 12_whiteLine3.jpg	Short_b22_cut1_mono_resampled.wav
2	136	1	1	1	C	1	1	973	1	poli_8sides 3_whiteLine3.jpg	Short_b20_cut1_mono_resampled.wav
2	137	4	3	2	I	2	0	1179	0	poli_8sides 13_whiteLine3.jpg	Short_b22_cut1_mono_resampled.wav
2	138	1	2	0	C	2	1	1365	1	poli_8sides 3_whiteLine3.jpg	Short_b09_cut1_mono_resampled.wav
2	139	3	4	2	I	2	0	1147	1	poli_8sides 12_whiteLine3.jpg	Short_b23_cut1_mono_resampled.wav
2	140	2	2	1	C	1	1	907	1	poli_8sides 17_whiteLine3.jpg	Short_b09_cut1_mono_resampled.wav
2	141	3	3	2	I	2	0	1011	1	poli_8sides 12_whiteLine3.jpg	Short_b22_cut1_mono_resampled.wav
2	142	1	1	1	C	2	0	1340	0	poli_8sides 3_whiteLine3.jpg	Short_b20_cut1_mono_resampled.wav
2	143	4	4	2	I	2	0	856	1	poli_8sides 13_whiteLine3.jpg	Short_b23_cut1_mono_resampled.wav
2	144	2	1	0	C	2	1	448	1	poli_8sides 17_whiteLine3.jpg	Short_b20_cut1_mono_resampled.wav
2	145	3	4	2	I	1	0	1264	0	poli_8sides 12_whiteLine3.jpg	Short_b23_cut1_mono_resampled.wav
2	146	1	2	0	C	2	1	1184	1	poli_8sides 3_whiteLine3.jpg	Short_b09_cut1_mono_resampled.wav
2	147	2	1	0	C	2	1	687	1	poli_8sides 17_whiteLine3.jpg	Short_b20_cut1_mono_resampled.wav
2	148	4	4	2	I	2	0	789	0	poli_8sides 13_whiteLine3.jpg	Short_b23_cut1_mono_resampled.wav
2	149	2	2	1	C	1	1	1248	1	poli_8sides 17_whiteLine3.jpg	Short_b09_cut1_mono_resampled.wav
2	150	1	1	1	C	2	0	603	0	poli_8sides 3_whiteLine3.jpg	Short_b20_cut1_mono_resampled.wav
2	151	4	3	2	I	2	0	668	0	poli_8sides 13_whiteLine3.jpg	Short_b22_cut1_mono_resampled.wav
2	152	3	3	2	I	2	0	701	1	poli_8sides 12_whiteLine3.jpg	Short_b22_cut1_mono_resampled.wav
2	153	2	1	0	C	2	1	603	1	poli_8sides 17_whiteLine3.jpg	Short_b20_cut1_mono_resampled.wav
2	154	3	3	2	I	2	0	928	0	poli_8sides 12_whiteLine3.jpg	Short_b22_cut1_mono_resampled.wav
2	155	4	3	2	I	2	0	1249	1	poli_8sides 13_whiteLine3.jpg	Short_b22_cut1_mono_resampled.wav
2	156	1	1	1	C	1	1	1211	1	poli_8sides 3_whiteLine3.jpg	Short_b20_cut1_mono_resampled.wav
2	157	4	4	2	I	2	0	860	1	poli_8sides 13_whiteLine3.jpg	Short_b23_cut1_mono_resampled.wav
2	158	3	4	2	I	1	0	970	1	poli_8sides 12_whiteLine3.jpg	Short_b23_cut1_mono_resampled.wav
2	159	1	2	0	C	2	1	826	1	poli_8sides 3_whiteLine3.jpg	Short_b09_cut1_mono_resampled.wav
2	160	2	2	1	C	1	1	659	1	poli_8sides 17_whiteLine3.jpg	Short_b09_cut1_mono_resampled.wav
2	161	1	2	0	C	2	1	959	1	poli_8sides 3_whiteLine3.jpg	Short_b09_cut1_mono_resampled.wav
2	162	2	2	1	C	1	1	704	1	poli_8sides 17_whiteLine3.jpg	Short_b09_cut1_mono_resampled.wav
2	163	3	4	2	I	2	0	927	0	poli_8sides 12_whiteLine3.jpg	Short_b23_cut1_mono_resampled.wav
2	164	4	4	2	I	1	0	998	0	poli_8sides 13_whiteLine3.jpg	Short_b23_cut1_mono_resampled.wav
2	165	2	1	0	C	2	1	611	1	poli_8sides 17_whiteLine3.jpg	Short_b20_cut1_mono_resampled.wav
2	166	1	1	1	C	1	1	778	1	poli_8sides 3_whiteLine3.jpg	Short_b20_cut1_mono_resampled.wav
2	167	3	3	2	I	2	0	1128	0	poli_8sides 12_whiteLine3.jpg	Short_b22_cut1_mono_resampled.wav
2	168	4	3	2	I	2	0	1429	0	poli_8sides 13_whiteLine3.jpg	Short_b22_cut1_mono_resampled.wav
2	169	2	2	1	C	1	1	821	1	poli_8sides 17_whiteLine3.jpg	Short_b09_cut1_mono_resampled.wav
2	170	1	2	0	C	2	1	793	1	poli_8sides 3_whiteLine3.jpg	Short_b09_cut1_mono_resampled.wav
2	171	3	3	2	I	1	0	1123	1	poli_8sides 12_whiteLine3.jpg	Short_b22_cut1_mono_resampled.wav
2	172	4	3	2	I	2	0	1347	0	poli_8sides 13_whiteLine3.jpg	Short_b22_cut1_mono_resampled.wav
2	173	3	4	2	I	2	0	1299	1	poli_8sides 12_whiteLine3.jpg	Short_b23_cut1_mono_resampled.wav
2	174	2	1	0	C	2	1	532	1	poli_8sides 17_whiteLine3.jpg	Short_b20_cut1_mono_resampled.wav
2	175	4	4	2	I	2	0	925	1	poli_8sides 13_whiteLine3.jpg	Short_b23_cut1_mono_resampled.wav
2	176	1	1	1	C	1	1	973	1	poli_8sides 3_whiteLine3.jpg	Short_b20_cut1_mono_resampled.wav
2	177	3	3	2	I	2	0	878	0	poli_8sides 12_whiteLine3.jpg	Short_b22_cut1_mono_resampled.wav
2	178	4	4	2	I	2	0	715	1	poli_8sides 13_whiteLine3.jpg	Short_b23_cut1_mono_resampled.wav
2	179	2	2	1	C	1	1	814	1	poli_8sides 17_whiteLine3.jpg	Short_b09_cut1_mono_resampled.wav
2	180	1	1	1	C	1	1	1043	1	poli_8sides 3_whiteLine3.jpg	Short_b20_cut1_mono_resampled.wav
2	181	3	4	2	I	2	0	909	0	poli_8sides 12_whiteLine3.jpg	Short_b23_cut1_mono_resampled.wav
2	182	1	2	0	C	1	0	1091	0	poli_8sides 3_whiteLine3.jpg	Short_b09_cut1_mono_resampled.wav
2	183	4	3	2	I	2	0	698	1	poli_8sides 13_whiteLine3.jpg	Short_b22_cut1_mono_resampled.wav
2	184	2	1	0	C	2	1	610	1	poli_8sides 17_whiteLine3.jpg	Short_b20_cut1_mono_resampled.wav
2	185	4	4	2	I	2	0	865	0	poli_8sides 13_whiteLine3.jpg	Short_b23_cut1_mono_resampled.wav
2	186	2	2	1	C	1	1	1177	1	poli_8sides 17_whiteLine3.jpg	Short_b09_cut1_mono_resampled.wav
2	187	3	3	2	I	1	0	1069	0	poli_8sides 12_whiteLine3.jpg	Short_b22_cut1_mono_resampled.wav
2	188	1	2	0	C	2	1	1079	1	poli_8sides 3_whiteLine3.jpg	Short_b09_cut1_mono_resampled.wav
2	189	2	1	0	C	2	1	598	1	poli_8sides 17_whiteLine3.jpg	Short_b20_cut1_mono_resampled.wav
2	190	1	1	1	C	1	1	731	1	poli_8sides 3_whiteLine3.jpg	Short_b20_cut1_mono_resampled.wav
2	191	4	3	2	I	2	0	1021	1	poli_8sides 13_whiteLine3.jpg	Short_b22_cut1_mono_resampled.wav
2	192	3	4	2	I	2	0	1112	1	poli_8sides 12_whiteLine3.jpg	Short_b23_cut1_mono_resampled.wav
2	193	2	2	1	C	2	0	744	0	poli_8sides 17_whiteLine3.jpg	Short_b09_cut1_mono_resampled.wav
2	194	4	3	2	I	1	0	1293	0	poli_8sides 13_whiteLine3.jpg	Short_b22_cut1_mono_resampled.wav
2	195	3	3	2	I	2	0	956	0	poli_8sides 12_whiteLine3.jpg	Short_b22_cut1_mono_resampled.wav
2	196	1	2	0	C	2	1	794	1	poli_8sides 3_whiteLine3.jpg	Short_b09_cut1_mono_resampled.wav
2	197	3	4	2	I	1	0	1355	0	poli_8sides 12_whiteLine3.jpg	Short_b23_cut1_mono_resampled.wav
2	198	4	4	2	I	2	0	1216	0	poli_8sides 13_whiteLine3.jpg	Short_b23_cut1_mono_resampled.wav
2	199	2	1	0	C	2	1	454	1	poli_8sides 17_whiteLine3.jpg	Short_b20_cut1_mono_resampled.wav
2	200	1	1	1	C	1	1	824	1	poli_8sides 3_whiteLine3.jpg	Short_b20_cut1_mono_resampled.wav
3	1	2	1	0	C	2	1	1403	1	poli_8sides 14_whiteLine3.jpg	Medium_e26_mono_resampled.wav
3	2	4	4	2	I	2	0	1484	0	poli_8sides 6_whiteLine3.jpg	Medium_e01_cut1_mono_resampled.wav
3	3	3	3	2	I	2	0	1017	1	poli_8sides 19_whiteLine3.jpg	MediumLong_e04_mono_resampled.wav
3	4	1	1	1	C	1	1	1129	1	poli_8sides 4_whiteLine3.jpg	Medium_e26_mono_resampled.wav
3	5	3	4	2	I	1	0	843	1	poli_8sides 19_whiteLine3.jpg	Medium_e01_cut1_mono_resampled.wav
3	6	2	2	1	C	1	1	1443	1	poli_8sides 14_whiteLine3.jpg	Medium_e13_mono_resampled.wav
3	7	1	2	0	C	1	0	690	0	poli_8sides 4_whiteLine3.jpg	Medium_e13_mono_resampled.wav
3	8	4	3	2	I	1	0	715	0	poli_8sides 6_whiteLine3.jpg	MediumLong_e04_mono_resampled.wav
3	9	2	2	1	C	2	0	785	0	poli_8sides 14_whiteLine3.jpg	Medium_e13_mono_resampled.wav
3	10	1	2	0	C	1	0	1265	0	poli_8sides 4_whiteLine3.jpg	Medium_e13_mono_resampled.wav
3	11	4	4	2	I	2	0	783	1	poli_8sides 6_whiteLine3.jpg	Medium_e01_cut1_mono_resampled.wav
3	12	3	3	2	I	2	0	678	1	poli_8sides 19_whiteLine3.jpg	MediumLong_e04_mono_resampled.wav
3	13	1	1	1	C	2	0	1243	0	poli_8sides 4_whiteLine3.jpg	Medium_e26_mono_resampled.wav
3	14	4	3	2	I	1	0	877	1	poli_8sides 6_whiteLine3.jpg	MediumLong_e04_mono_resampled.wav
3	15	2	1	0	C	2	1	759	1	poli_8sides 14_whiteLine3.jpg	Medium_e26_mono_resampled.wav
3	16	3	4	2	I	1	0	1005	0	poli_8sides 19_whiteLine3.jpg	Medium_e01_cut1_mono_resampled.wav
3	17	1	2	0	C	2	1	676	1	poli_8sides 4_whiteLine3.jpg	Medium_e13_mono_resampled.wav
3	18	3	3	2	I	2	0	598	0	poli_8sides 19_whiteLine3.jpg	MediumLong_e04_mono_resampled.wav
3	19	4	4	2	I	2	0	1261	1	poli_8sides 6_whiteLine3.jpg	Medium_e01_cut1_mono_resampled.wav
3	20	2	2	1	C	2	0	810	0	poli_8sides 14_whiteLine3.jpg	Medium_e13_mono_resampled.wav
3	21	1	1	1	C	2	0	607	0	poli_8sides 4_whiteLine3.jpg	Medium_e26_mono_resampled.wav
3	22	2	1	0	C	2	1	605	1	poli_8sides 14_whiteLine3.jpg	Medium_e26_mono_resampled.wav
3	23	3	4	2	I	1	0	1202	1	poli_8sides 19_whiteLine3.jpg	Medium_e01_cut1_mono_resampled.wav
3	24	4	3	2	I	1	0	833	0	poli_8sides 6_whiteLine3.jpg	MediumLong_e04_mono_resampled.wav
3	25	2	2	1	C	2	0	917	0	poli_8sides 14_whiteLine3.jpg	Medium_e13_mono_resampled.wav
3	26	4	3	2	I	2	0	969	0	poli_8sides 6_whiteLine3.jpg	MediumLong_e04_mono_resampled.wav
3	27	1	2	0	C	2	1	641	1	poli_8sides 4_whiteLine3.jpg	Medium_e13_mono_resampled.wav
3	28	3	4	2	I	1	0	1099	1	poli_8sides 19_whiteLine3.jpg	Medium_e01_cut1_mono_resampled.wav
3	29	2	1	0	C	2	1	562	1	poli_8sides 14_whiteLine3.jpg	Medium_e26_mono_resampled.wav
3	30	1	1	1	C	1	1	977	1	poli_8sides 4_whiteLine3.jpg	Medium_e26_mono_resampled.wav
3	31	4	4	2	I	1	0	1116	1	poli_8sides 6_whiteLine3.jpg	Medium_e01_cut1_mono_resampled.wav
3	32	3	3	2	I	2	0	650	1	poli_8sides 19_whiteLine3.jpg	MediumLong_e04_mono_resampled.wav
3	33	2	2	1	C	2	0	943	0	poli_8sides 14_whiteLine3.jpg	Medium_e13_mono_resampled.wav
3	34	3	4	2	I	1	0	918	0	poli_8sides 19_whiteLine3.jpg	Medium_e01_cut1_mono_resampled.wav
3	35	4	3	2	I	2	0	1190	0	poli_8sides 6_whiteLine3.jpg	MediumLong_e04_mono_resampled.wav
3	36	1	1	1	C	1	1	1026	1	poli_8sides 4_whiteLine3.jpg	Medium_e26_mono_resampled.wav
3	37	3	3	2	I	2	0	671	0	poli_8sides 19_whiteLine3.jpg	MediumLong_e04_mono_resampled.wav
3	38	2	1	0	C	2	1	707	1	poli_8sides 14_whiteLine3.jpg	Medium_e26_mono_resampled.wav
3	39	4	4	2	I	2	0	892	0	poli_8sides 6_whiteLine3.jpg	Medium_e01_cut1_mono_resampled.wav
3	40	1	2	0	C	2	1	597	1	poli_8sides 4_whiteLine3.jpg	Medium_e13_mono_resampled.wav
3	41	3	3	2	I	2	0	703	1	poli_8sides 19_whiteLine3.jpg	MediumLong_e04_mono_resampled.wav
3	42	1	1	1	C	1	1	836	1	poli_8sides 4_whiteLine3.jpg	Medium_e26_mono_resampled.wav
3	43	4	3	2	I	1	0	896	0	poli_8sides 6_whiteLine3.jpg	MediumLong_e04_mono_resampled.wav
3	44	2	2	1	C	1	1	838	1	poli_8sides 14_whiteLine3.jpg	Medium_e13_mono_resampled.wav
3	45	1	2	0	C	1	0	783	0	poli_8sides 4_whiteLine3.jpg	Medium_e13_mono_resampled.wav
3	46	3	4	2	I	1	0	1272	1	poli_8sides 19_whiteLine3.jpg	Medium_e01_cut1_mono_resampled.wav
3	47	4	4	2	I	2	0	1298	0	poli_8sides 6_whiteLine3.jpg	Medium_e01_cut1_mono_resampled.wav
3	48	2	1	0	C	2	1	513	1	poli_8sides 14_whiteLine3.jpg	Medium_e26_mono_resampled.wav
3	49	3	3	2	I	2	0	676	1	poli_8sides 19_whiteLine3.jpg	MediumLong_e04_mono_resampled.wav
3	50	4	4	2	I	2	0	677	1	poli_8sides 6_whiteLine3.jpg	Medium_e01_cut1_mono_resampled.wav
3	51	1	2	0	C	2	1	579	1	poli_8sides 4_whiteLine3.jpg	Medium_e13_mono_resampled.wav
3	52	2	1	0	C	2	1	583	1	poli_8sides 14_whiteLine3.jpg	Medium_e26_mono_resampled.wav
3	53	1	1	1	C	1	1	817	1	poli_8sides 4_whiteLine3.jpg	Medium_e26_mono_resampled.wav
3	54	2	2	1	C	1	1	1062	1	poli_8sides 14_whiteLine3.jpg	Medium_e13_mono_resampled.wav
3	55	3	4	2	I	1	0	1068	0	poli_8sides 19_whiteLine3.jpg	Medium_e01_cut1_mono_resampled.wav
3	56	4	3	2	I	2	0	504	0	poli_8sides 6_whiteLine3.jpg	MediumLong_e04_mono_resampled.wav
3	57	2	1	0	C	2	1	645	1	poli_8sides 14_whiteLine3.jpg	Medium_e26_mono_resampled.wav
3	58	1	2	0	C	2	1	828	1	poli_8sides 4_whiteLine3.jpg	Medium_e13_mono_resampled.wav
3	59	4	3	2	I	2	0	1097	1	poli_8sides 6_whiteLine3.jpg	MediumLong_e04_mono_resampled.wav
3	60	3	4	2	I	2	0	531	0	poli_8sides 19_whiteLine3.jpg	Medium_e01_cut1_mono_resampled.wav
3	61	1	1	1	C	1	1	803	1	poli_8sides 4_whiteLine3.jpg	Medium_e26_mono_resampled.wav
3	62	2	2	1	C	1	1	855	1	poli_8sides 14_whiteLine3.jpg	Medium_e13_mono_resampled.wav
3	63	3	3	2	I	2	0	724	0	poli_8sides 19_whiteLine3.jpg	MediumLong_e04_mono_resampled.wav
3	64	4	4	2	I	2	0	1355	1	poli_8sides 6_whiteLine3.jpg	Medium_e01_cut1_mono_resampled.wav
3	65	3	3	2	I	2	0	719	1	poli_8sides 19_whiteLine3.jpg	MediumLong_e04_mono_resampled.wav
3	66	2	1	0	C	2	1	662	1	poli_8sides 14_whiteLine3.jpg	Medium_e26_mono_resampled.wav
3	67	1	1	1	C	1	1	600	1	poli_8sides 4_whiteLine3.jpg	Medium_e26_mono_resampled.wav
3	68	4	3	2	I	1	0	772	1	poli_8sides 6_whiteLine3.jpg	MediumLong_e04_mono_resampled.wav
3	69	1	2	0	C	2	1	625	1	poli_8sides 4_whiteLine3.jpg	Medium_e13_mono_resampled.wav
3	70	2	2	1	C	1	1	766	1	poli_8sides 14_whiteLine3.jpg	Medium_e13_mono_resampled.wav
3	71	3	4	2	I	1	0	984	1	poli_8sides 19_whiteLine3.jpg	Medium_e01_cut1_mono_resampled.wav
3	72	4	4	2	I	1	0	1244	0	poli_8sides 6_whiteLine3.jpg	Medium_e01_cut1_mono_resampled.wav
3	73	1	2	0	C	2	1	671	1	poli_8sides 4_whiteLine3.jpg	Medium_e13_mono_resampled.wav
3	74	4	3	2	I	1	0	1162	1	poli_8sides 6_whiteLine3.jpg	MediumLong_e04_mono_resampled.wav
3	75	2	2	1	C	1	1	649	1	poli_8sides 14_whiteLine3.jpg	Medium_e13_mono_resampled.wav
3	76	3	4	2	I	1	0	953	1	poli_8sides 19_whiteLine3.jpg	Medium_e01_cut1_mono_resampled.wav
3	77	4	4	2	I	2	0	1072	1	poli_8sides 6_whiteLine3.jpg	Medium_e01_cut1_mono_resampled.wav
3	78	1	1	1	C	1	1	665	1	poli_8sides 4_whiteLine3.jpg	Medium_e26_mono_resampled.wav
3	79	2	1	0	C	2	1	444	1	poli_8sides 14_whiteLine3.jpg	Medium_e26_mono_resampled.wav
3	80	3	3	2	I	2	0	508	1	poli_8sides 19_whiteLine3.jpg	MediumLong_e04_mono_resampled.wav
3	81	2	1	0	C	2	1	659	1	poli_8sides 14_whiteLine3.jpg	Medium_e26_mono_resampled.wav
3	82	4	4	2	I	2	0	713	1	poli_8sides 6_whiteLine3.jpg	Medium_e01_cut1_mono_resampled.wav
3	83	1	1	1	C	1	1	573	1	poli_8sides 4_whiteLine3.jpg	Medium_e26_mono_resampled.wav
3	84	3	4	2	I	1	0	875	0	poli_8sides 19_whiteLine3.jpg	Medium_e01_cut1_mono_resampled.wav
3	85	1	2	0	C	2	1	741	1	poli_8sides 4_whiteLine3.jpg	Medium_e13_mono_resampled.wav
3	86	2	2	1	C	1	1	1243	1	poli_8sides 14_whiteLine3.jpg	Medium_e13_mono_resampled.wav
3	87	4	3	2	I	1	0	953	1	poli_8sides 6_whiteLine3.jpg	MediumLong_e04_mono_resampled.wav
3	88	3	3	2	I	2	0	682	0	poli_8sides 19_whiteLine3.jpg	MediumLong_e04_mono_resampled.wav
3	89	4	3	2	I	1	0	980	1	poli_8sides 6_whiteLine3.jpg	MediumLong_e04_mono_resampled.wav
3	90	2	1	0	C	2	1	656	1	poli_8sides 14_whiteLine3.jpg	Medium_e26_mono_resampled.wav
3	91	1	1	1	C	1	1	583	1	poli_8sides 4_whiteLine3.jpg	Medium_e26_mono_resampled.wav
3	92	3	3	2	I	2	0	642	1	poli_8sides 19_whiteLine3.jpg	MediumLong_e04_mono_resampled.wav
3	93	2	2	1	C	1	1	772	1	poli_8sides 14_whiteLine3.jpg	Medium_e13_mono_resampled.wav
3	94	3	4	2	I	1	0	909	0	poli_8sides 19_whiteLine3.jpg	Medium_e01_cut1_mono_resampled.wav
3	95	1	2	0	C	2	1	733	1	poli_8sides 4_whiteLine3.jpg	Medium_e13_mono_resampled.wav
3	96	4	4	2	I	2	0	946	0	poli_8sides 6_whiteLine3.jpg	Medium_e01_cut1_mono_resampled.wav
3	97	2	1	0	C	2	1	514	1	poli_8sides 14_whiteLine3.jpg	Medium_e26_mono_resampled.wav
3	98	3	4	2	I	1	0	917	0	poli_8sides 19_whiteLine3.jpg	Medium_e01_cut1_mono_resampled.wav
3	99	1	2	0	C	2	1	636	1	poli_8sides 4_whiteLine3.jpg	Medium_e13_mono_resampled.wav
3	100	4	3	2	I	1	0	984	1	poli_8sides 6_whiteLine3.jpg	MediumLong_e04_mono_resampled.wav
3	101	2	2	1	C	1	1	872	1	poli_8sides 14_whiteLine3.jpg	Medium_e13_mono_resampled.wav
3	102	3	3	2	I	2	0	616	1	poli_8sides 19_whiteLine3.jpg	MediumLong_e04_mono_resampled.wav
3	103	1	1	1	C	1	1	581	1	poli_8sides 4_whiteLine3.jpg	Medium_e26_mono_resampled.wav
3	104	4	4	2	I	2	0	851	1	poli_8sides 6_whiteLine3.jpg	Medium_e01_cut1_mono_resampled.wav
3	105	1	2	0	C	2	1	636	1	poli_8sides 4_whiteLine3.jpg	Medium_e13_mono_resampled.wav
3	106	2	1	0	C	2	1	557	1	poli_8sides 14_whiteLine3.jpg	Medium_e26_mono_resampled.wav
3	107	3	3	2	I	1	0	725	0	poli_8sides 19_whiteLine3.jpg	MediumLong_e04_mono_resampled.wav
3	108	4	4	2	I	1	0	1004	1	poli_8sides 6_whiteLine3.jpg	Medium_e01_cut1_mono_resampled.wav
3	109	2	2	1	C	1	1	700	1	poli_8sides 14_whiteLine3.jpg	Medium_e13_mono_resampled.wav
3	110	3	4	2	I	1	0	824	1	poli_8sides 19_whiteLine3.jpg	Medium_e01_cut1_mono_resampled.wav
3	111	1	1	1	C	1	1	566	1	poli_8sides 4_whiteLine3.jpg	Medium_e26_mono_resampled.wav
3	112	4	3	2	I	1	0	837	0	poli_8sides 6_whiteLine3.jpg	MediumLong_e04_mono_resampled.wav
3	113	3	4	2	I	2	0	1030	0	poli_8sides 19_whiteLine3.jpg	Medium_e01_cut1_mono_resampled.wav
3	114	2	2	1	C	1	1	673	1	poli_8sides 14_whiteLine3.jpg	Medium_e13_mono_resampled.wav
3	115	4	4	2	I	1	0	848	0	poli_8sides 6_whiteLine3.jpg	Medium_e01_cut1_mono_resampled.wav
3	116	1	2	0	C	2	1	691	1	poli_8sides 4_whiteLine3.jpg	Medium_e13_mono_resampled.wav
3	117	2	1	0	C	2	1	449	1	poli_8sides 14_whiteLine3.jpg	Medium_e26_mono_resampled.wav
3	118	4	3	2	I	1	0	582	0	poli_8sides 6_whiteLine3.jpg	MediumLong_e04_mono_resampled.wav
3	119	1	1	1	C	1	1	1342	1	poli_8sides 4_whiteLine3.jpg	Medium_e26_mono_resampled.wav
3	120	3	3	2	I	2	0	881	0	poli_8sides 19_whiteLine3.jpg	MediumLong_e04_mono_resampled.wav
3	121	2	1	0	C	2	1	614	1	poli_8sides 14_whiteLine3.jpg	Medium_e26_mono_resampled.wav
3	122	4	3	2	I	1	0	767	0	poli_8sides 6_whiteLine3.jpg	MediumLong_e04_mono_resampled.wav
3	123	1	1	1	C	1	1	740	1	poli_8sides 4_whiteLine3.jpg	Medium_e26_mono_resampled.wav
3	124	3	3	2	I	2	0	845	0	poli_8sides 19_whiteLine3.jpg	MediumLong_e04_mono_resampled.wav
3	125	4	4	2	I	2	0	1121	0	poli_8sides 6_whiteLine3.jpg	Medium_e01_cut1_mono_resampled.wav
3	126	1	2	0	C	2	1	503	1	poli_8sides 4_whiteLine3.jpg	Medium_e13_mono_resampled.wav
3	127	2	2	1	C	1	1	600	1	poli_8sides 14_whiteLine3.jpg	Medium_e13_mono_resampled.wav
3	128	3	4	2	I	1	0	890	1	poli_8sides 19_whiteLine3.jpg	Medium_e01_cut1_mono_resampled.wav
3	129	1	2	0	C	2	1	687	1	poli_8sides 4_whiteLine3.jpg	Medium_e13_mono_resampled.wav
3	130	4	4	2	I	2	0	1373	1	poli_8sides 6_whiteLine3.jpg	Medium_e01_cut1_mono_resampled.wav
3	131	3	4	2	I	1	0	1292	0	poli_8sides 19_whiteLine3.jpg	Medium_e01_cut1_mono_resampled.wav
3	132	2	2	1	C	1	1	790	1	poli_8sides 14_whiteLine3.jpg	Medium_e13_mono_resampled.wav
3	133	3	3	2	I	2	0	768	1	poli_8sides 19_whiteLine3.jpg	MediumLong_e04_mono_resampled.wav
3	134	2	1	0	C	2	1	664	1	poli_8sides 14_whiteLine3.jpg	Medium_e26_mono_resampled.wav
3	135	1	1	1	C	1	1	697	1	poli_8sides 4_whiteLine3.jpg	Medium_e26_mono_resampled.wav
3	136	4	3	2	I	1	0	886	0	poli_8sides 6_whiteLine3.jpg	MediumLong_e04_mono_resampled.wav
3	137	2	1	0	C	2	1	757	1	poli_8sides 14_whiteLine3.jpg	Medium_e26_mono_resampled.wav
3	138	4	3	2	I	2	0	797	0	poli_8sides 6_whiteLine3.jpg	MediumLong_e04_mono_resampled.wav
3	139	3	3	2	I	2	0	1027	0	poli_8sides 19_whiteLine3.jpg	MediumLong_e04_mono_resampled.wav
3	140	1	2	0	C	2	1	689	1	poli_8sides 4_whiteLine3.jpg	Medium_e13_mono_resampled.wav
3	141	4	4	2	I	1	0	684	1	poli_8sides 6_whiteLine3.jpg	Medium_e01_cut1_mono_resampled.wav
3	142	3	4	2	I	1	0	929	0	poli_8sides 19_whiteLine3.jpg	Medium_e01_cut1_mono_resampled.wav
3	143	1	1	1	C	1	1	664	1	poli_8sides 4_whiteLine3.jpg	Medium_e26_mono_resampled.wav
3	144	2	2	1	C	1	1	924	1	poli_8sides 14_whiteLine3.jpg	Medium_e13_mono_resampled.wav
3	145	4	4	2	I	1	0	1122	0	poli_8sides 6_whiteLine3.jpg	Medium_e01_cut1_mono_resampled.wav
3	146	1	1	1	C	1	1	802	1	poli_8sides 4_whiteLine3.jpg	Medium_e26_mono_resampled.wav
3	147	3	3	2	I	2	0	692	1	poli_8sides 19_whiteLine3.jpg	MediumLong_e04_mono_resampled.wav
3	148	2	2	1	C	1	1	878	1	poli_8sides 14_whiteLine3.jpg	Medium_e13_mono_resampled.wav
3	149	3	4	2	I	1	0	955	0	poli_8sides 19_whiteLine3.jpg	Medium_e01_cut1_mono_resampled.wav
3	150	2	1	0	C	2	1	667	1	poli_8sides 14_whiteLine3.jpg	Medium_e26_mono_resampled.wav
3	151	4	3	2	I	1	0	777	0	poli_8sides 6_whiteLine3.jpg	MediumLong_e04_mono_resampled.wav
3	152	1	2	0	C	2	1	887	1	poli_8sides 4_whiteLine3.jpg	Medium_e13_mono_resampled.wav
3	153	2	1	0	C	2	1	545	1	poli_8sides 14_whiteLine3.jpg	Medium_e26_mono_resampled.wav
3	154	4	3	2	I	1	0	795	1	poli_8sides 6_whiteLine3.jpg	MediumLong_e04_mono_resampled.wav
3	155	3	3	2	I	2	0	534	0	poli_8sides 19_whiteLine3.jpg	MediumLong_e04_mono_resampled.wav
3	156	1	1	1	C	1	1	692	1	poli_8sides 4_whiteLine3.jpg	Medium_e26_mono_resampled.wav
3	157	4	4	2	I	1	0	1039	1	poli_8sides 6_whiteLine3.jpg	Medium_e01_cut1_mono_resampled.wav
3	158	1	2	0	C	2	1	751	1	poli_8sides 4_whiteLine3.jpg	Medium_e13_mono_resampled.wav
3	159	2	2	1	C	1	1	676	1	poli_8sides 14_whiteLine3.jpg	Medium_e13_mono_resampled.wav
3	160	3	4	2	I	1	0	1303	1	poli_8sides 19_whiteLine3.jpg	Medium_e01_cut1_mono_resampled.wav
3	161	1	1	1	C	1	1	840	1	poli_8sides 4_whiteLine3.jpg	Medium_e26_mono_resampled.wav
3	162	2	2	1	C	1	1	841	1	poli_8sides 14_whiteLine3.jpg	Medium_e13_mono_resampled.wav
3	163	4	3	2	I	1	0	760	0	poli_8sides 6_whiteLine3.jpg	MediumLong_e04_mono_resampled.wav
3	164	3	3	2	I	2	0	802	0	poli_8sides 19_whiteLine3.jpg	MediumLong_e04_mono_resampled.wav
3	165	2	1	0	C	2	1	738	1	poli_8sides 14_whiteLine3.jpg	Medium_e26_mono_resampled.wav
3	166	1	2	0	C	2	1	600	1	poli_8sides 4_whiteLine3.jpg	Medium_e13_mono_resampled.wav
3	167	4	4	2	I	2	0	883	1	poli_8sides 6_whiteLine3.jpg	Medium_e01_cut1_mono_resampled.wav
3	168	3	4	2	I	1	0	655	1	poli_8sides 19_whiteLine3.jpg	Medium_e01_cut1_mono_resampled.wav
3	169	4	4	2	I	2	0	1386	1	poli_8sides 6_whiteLine3.jpg	Medium_e01_cut1_mono_resampled.wav
3	170	3	4	2	I	1	0	904	0	poli_8sides 19_whiteLine3.jpg	Medium_e01_cut1_mono_resampled.wav
3	171	2	2	1	C	1	1	712	1	poli_8sides 14_whiteLine3.jpg	Medium_e13_mono_resampled.wav
3	172	1	2	0	C	2	1	582	1	poli_8sides 4_whiteLine3.jpg	Medium_e13_mono_resampled.wav
3	173	4	3	2	I	1	0	885	0	poli_8sides 6_whiteLine3.jpg	MediumLong_e04_mono_resampled.wav
3	174	3	3	2	I	1	0	859	1	poli_8sides 19_whiteLine3.jpg	MediumLong_e04_mono_resampled.wav
3	175	1	1	1	C	1	1	760	1	poli_8sides 4_whiteLine3.jpg	Medium_e26_mono_resampled.wav
3	176	2	1	0	C	2	1	665	1	poli_8sides 14_whiteLine3.jpg	Medium_e26_mono_resampled.wav
3	177	3	3	2	I	2	0	621	1	poli_8sides 19_whiteLine3.jpg	MediumLong_e04_mono_resampled.wav
3	178	1	2	0	C	2	1	694	1	poli_8sides 4_whiteLine3.jpg	Medium_e13_mono_resampled.wav
3	179	2	2	1	C	1	1	865	1	poli_8sides 14_whiteLine3.jpg	Medium_e13_mono_resampled.wav
3	180	4	3	2	I	1	0	1189	1	poli_8sides 6_whiteLine3.jpg	MediumLong_e04_mono_resampled.wav
3	181	3	4	2	I	1	0	1007	0	poli_8sides 19_whiteLine3.jpg	Medium_e01_cut1_mono_resampled.wav
3	182	4	4	2	I	1	0	993	1	poli_8sides 6_whiteLine3.jpg	Medium_e01_cut1_mono_resampled.wav
3	183	2	1	0	C	2	1	685	1	poli_8sides 14_whiteLine3.jpg	Medium_e26_mono_resampled.wav
3	184	1	1	1	C	1	1	805	1	poli_8sides 4_whiteLine3.jpg	Medium_e26_mono_resampled.wav
3	185	4	3	2	I	2	0	910	0	poli_8sides 6_whiteLine3.jpg	MediumLong_e04_mono_resampled.wav
3	186	3	4	2	I	1	0	870	1	poli_8sides 19_whiteLine3.jpg	Medium_e01_cut1_mono_resampled.wav
3	187	2	2	1	C	1	1	717	1	poli_8sides 14_whiteLine3.jpg	Medium_e13_mono_resampled.wav
3	188	1	2	0	C	2	1	654	1	poli_8sides 4_whiteLine3.jpg	Medium_e13_mono_resampled.wav
3	189	2	1	0	C	2	1	553	1	poli_8sides 14_whiteLine3.jpg	Medium_e26_mono_resampled.wav
3	190	1	1	1	C	1	1	735	1	poli_8sides 4_whiteLine3.jpg	Medium_e26_mono_resampled.wav
3	191	3	3	2	I	2	0	559	0	poli_8sides 19_whiteLine3.jpg	MediumLong_e04_mono_resampled.wav
3	192	4	4	2	I	1	0	827	1	poli_8sides 6_whiteLine3.jpg	Medium_e01_cut1_mono_resampled.wav
3	193	3	3	2	I	1	0	1200	1	poli_8sides 19_whiteLine3.jpg	MediumLong_e04_mono_resampled.wav
3	194	4	3	2	I	2	0	860	0	poli_8sides 6_whiteLine3.jpg	MediumLong_e04_mono_resampled.wav
3	195	1	2	0	C	2	1	732	1	poli_8sides 4_whiteLine3.jpg	Medium_e13_mono_resampled.wav
3	196	2	2	1	C	1	1	875	1	poli_8sides 14_whiteLine3.jpg	Medium_e13_mono_resampled.wav
3	197	3	4	2	I	1	0	822	0	poli_8sides 19_whiteLine3.jpg	Medium_e01_cut1_mono_resampled.wav
3	198	4	4	2	I	2	0	648	0	poli_8sides 6_whiteLine3.jpg	Medium_e01_cut1_mono_resampled.wav
3	199	2	1	0	C	2	1	704	1	poli_8sides 14_whiteLine3.jpg	Medium_e26_mono_resampled.wav
3	200	1	1	1	C	1	1	547	1	poli_8sides 4_whiteLine3.jpg	Medium_e26_mono_resampled.wav
4	1	2	2	1	C	2	0	1490	0	poli_8sides 5_whiteLine3.jpg	MediumLong_e19_mono_resampled.wav
4	2	1	1	1	C	2	0	1094	0	poli_8sides 11_whiteLine3.jpg	MediumLong_b23_cut4_ML_mono_resampled.wav
4	3	3	3	2	I	2	0	1193	1	poli_8sides 20_whiteLine3.jpg	Medium_e21_mono_resampled.wav
4	4	4	4	2	I	2	0	899	1	poli_8sides 7_whiteLine3.jpg	MediumLong_b10_cut2_L_mono_resampled.wav
4	5	1	2	0	C	2	1	1262	1	poli_8sides 11_whiteLine3.jpg	MediumLong_e19_mono_resampled.wav
4	6	2	1	0	C	2	1	989	1	poli_8sides 5_whiteLine3.jpg	MediumLong_b23_cut4_ML_mono_resampled.wav
4	7	4	3	2	I	1	0	1042	1	poli_8sides 7_whiteLine3.jpg	Medium_e21_mono_resampled.wav
4	8	3	4	2	I	1	0	1233	0	poli_8sides 20_whiteLine3.jpg	MediumLong_b10_cut2_L_mono_resampled.wav
4	9	2	1	0	C	2	1	679	1	poli_8sides 5_whiteLine3.jpg	MediumLong_b23_cut4_ML_mono_resampled.wav
4	10	1	1	1	C	1	1	1228	1	poli_8sides 11_whiteLine3.jpg	MediumLong_b23_cut4_ML_mono_resampled.wav
4	11	4	3	2	I	1	0	966	0	poli_8sides 7_whiteLine3.jpg	Medium_e21_mono_resampled.wav
4	12	3	3	2	I	2	0	734	0	poli_8sides 20_whiteLine3.jpg	Medium_e21_mono_resampled.wav
4	13	2	2	1	C	1	1	892	1	poli_8sides 5_whiteLine3.jpg	MediumLong_e19_mono_resampled.wav
4	14	1	2	0	C	2	1	652	1	poli_8sides 11_whiteLine3.jpg	MediumLong_e19_mono_resampled.wav
4	15	3	4	2	I	1	0	1169	0	poli_8sides 20_whiteLine3.jpg	MediumLong_b10_cut2_L_mono_resampled.wav
4	16	4	4	2	I	2	0	859	1	poli_8sides 7_whiteLine3.jpg	MediumLong_b10_cut2_L_mono_resampled.wav
4	17	1	1	1	C	1	1	1078	1	poli_8sides 11_whiteLine3.jpg	MediumLong_b23_cut4_ML_mono_resampled.wav
4	18	4	3	2	I	2	0	1162	1	poli_8sides 7_whiteLine3.jpg	Medium_e21_mono_resampled.wav
4	19	2	1	0	C	2	1	562	1	poli_8sides 5_whiteLine3.jpg	MediumLong_b23_cut4_ML_mono_resampled.wav
4	20	3	4	2	I	1	0	1164	1	poli_8sides 20_whiteLine3.jpg	MediumLong_b10_cut2_L_mono_resampled.wav
4	21	4	4	2	I	1	0	1177	1	poli_8sides 7_whiteLine3.jpg	MediumLong_b10_cut2_L_mono_resampled.wav
4	22	1	2	0	C	2	1	821	1	poli_8sides 11_whiteLine3.jpg	MediumLong_e19_mono_resampled.wav
4	23	3	3	2	I	2	0	1049	0	poli_8sides 20_whiteLine3.jpg	Medium_e21_mono_resampled.wav
4	24	2	2	1	C	1	1	751	1	poli_8sides 5_whiteLine3.jpg	MediumLong_e19_mono_resampled.wav
4	25	4	4	2	I	2	0	997	1	poli_8sides 7_whiteLine3.jpg	MediumLong_b10_cut2_L_mono_resampled.wav
4	26	1	2	0	C	2	1	973	1	poli_8sides 11_whiteLine3.jpg	MediumLong_e19_mono_resampled.wav
4	27	3	4	2	I	2	0	1123	1	poli_8sides 20_whiteLine3.jpg	MediumLong_b10_cut2_L_mono_resampled.wav
4	28	2	1	0	C	2	1	652	1	poli_8sides 5_whiteLine3.jpg	MediumLong_b23_cut4_ML_mono_resampled.wav
4	29	3	3	2	I	1	0	765	0	poli_8sides 20_whiteLine3.jpg	Medium_e21_mono_resampled.wav
4	30	1	1	1	C	1	1	779	1	poli_8sides 11_whiteLine3.jpg	MediumLong_b23_cut4_ML_mono_resampled.wav
4	31	4	3	2	I	2	0	1008	1	poli_8sides 7_whiteLine3.jpg	Medium_e21_mono_resampled.wav
4	32	2	2	1	C	1	1	674	1	poli_8sides 5_whiteLine3.jpg	MediumLong_e19_mono_resampled.wav
4	33	3	3	2	I	2	0	934	0	poli_8sides 20_whiteLine3.jpg	Medium_e21_mono_resampled.wav
4	34	1	1	1	C	1	1	658	1	poli_8sides 11_whiteLine3.jpg	MediumLong_b23_cut4_ML_mono_resampled.wav
4	35	4	3	2	I	2	0	1181	0	poli_8sides 7_whiteLine3.jpg	Medium_e21_mono_resampled.wav
4	36	2	2	1	C	1	1	575	1	poli_8sides 5_whiteLine3.jpg	MediumLong_e19_mono_resampled.wav
4	37	3	4	2	I	2	0	848	1	poli_8sides 20_whiteLine3.jpg	MediumLong_b10_cut2_L_mono_resampled.wav
4	38	1	2	0	C	2	1	943	1	poli_8sides 11_whiteLine3.jpg	MediumLong_e19_mono_resampled.wav
4	39	4	4	2	I	2	0	1297	1	poli_8sides 7_whiteLine3.jpg	MediumLong_b10_cut2_L_mono_resampled.wav
4	40	2	1	0	C	2	1	631	1	poli_8sides 5_whiteLine3.jpg	MediumLong_b23_cut4_ML_mono_resampled.wav
4	41	3	4	2	I	2	0	921	1	poli_8sides 20_whiteLine3.jpg	MediumLong_b10_cut2_L_mono_resampled.wav
4	42	4	4	2	I	1	0	1066	1	poli_8sides 7_whiteLine3.jpg	MediumLong_b10_cut2_L_mono_resampled.wav
4	43	2	2	1	C	1	1	640	1	poli_8sides 5_whiteLine3.jpg	MediumLong_e19_mono_resampled.wav
4	44	1	1	1	C	2	0	576	0	poli_8sides 11_whiteLine3.jpg	MediumLong_b23_cut4_ML_mono_resampled.wav
4	45	2	1	0	C	2	1	524	1	poli_8sides 5_whiteLine3.jpg	MediumLong_b23_cut4_ML_mono_resampled.wav
4	46	4	3	2	I	2	0	963	0	poli_8sides 7_whiteLine3.jpg	Medium_e21_mono_resampled.wav
4	47	3	3	2	I	2	0	490	0	poli_8sides 20_whiteLine3.jpg	Medium_e21_mono_resampled.wav
4	48	1	2	0	C	2	1	639	1	poli_8sides 11_whiteLine3.jpg	MediumLong_e19_mono_resampled.wav
4	49	2	1	0	C	2	1	580	1	poli_8sides 5_whiteLine3.jpg	MediumLong_b23_cut4_ML_mono_resampled.wav
4	50	1	2	0	C	2	1	898	1	poli_8sides 11_whiteLine3.jpg	MediumLong_e19_mono_resampled.wav
4	51	4	4	2	I	2	0	1286	0	poli_8sides 7_whiteLine3.jpg	MediumLong_b10_cut2_L_mono_resampled.wav
4	52	3	3	2	I	1	0	691	0	poli_8sides 20_whiteLine3.jpg	Medium_e21_mono_resampled.wav
4	53	4	3	2	I	2	0	1074	1	poli_8sides 7_whiteLine3.jpg	Medium_e21_mono_resampled.wav
4	54	3	4	2	I	2	0	1380	1	poli_8sides 20_whiteLine3.jpg	MediumLong_b10_cut2_L_mono_resampled.wav
4	55	2	2	1	C	1	1	653	1	poli_8sides 5_whiteLine3.jpg	MediumLong_e19_mono_resampled.wav
4	56	1	1	1	C	1	1	672	1	poli_8sides 11_whiteLine3.jpg	MediumLong_b23_cut4_ML_mono_resampled.wav
4	57	2	2	1	C	1	1	944	1	poli_8sides 5_whiteLine3.jpg	MediumLong_e19_mono_resampled.wav
4	58	3	4	2	I	2	0	817	1	poli_8sides 20_whiteLine3.jpg	MediumLong_b10_cut2_L_mono_resampled.wav
4	59	1	1	1	C	1	1	700	1	poli_8sides 11_whiteLine3.jpg	MediumLong_b23_cut4_ML_mono_resampled.wav
4	60	4	4	2	I	1	0	773	1	poli_8sides 7_whiteLine3.jpg	MediumLong_b10_cut2_L_mono_resampled.wav
4	61	1	2	0	C	2	1	903	1	poli_8sides 11_whiteLine3.jpg	MediumLong_e19_mono_resampled.wav
4	62	4	3	2	I	2	0	1049	0	poli_8sides 7_whiteLine3.jpg	Medium_e21_mono_resampled.wav
4	63	3	3	2	I	2	0	745	1	poli_8sides 20_whiteLine3.jpg	Medium_e21_mono_resampled.wav
4	64	2	1	0	C	2	1	594	1	poli_8sides 5_whiteLine3.jpg	MediumLong_b23_cut4_ML_mono_resampled.wav
4	65	3	3	2	I	2	0	999	0	poli_8sides 20_whiteLine3.jpg	Medium_e21_mono_resampled.wav
4	66	1	1	1	C	2	0	870	0	poli_8sides 11_whiteLine3.jpg	MediumLong_b23_cut4_ML_mono_resampled.wav
4	67	4	4	2	I	2	0	816	0	poli_8sides 7_whiteLine3.jpg	MediumLong_b10_cut2_L_mono_resampled.wav
4	68	2	1	0	C	2	1	543	1	poli_8sides 5_whiteLine3.jpg	MediumLong_b23_cut4_ML_mono_resampled.wav
4	69	3	4	2	I	2	0	915	0	poli_8sides 20_whiteLine3.jpg	MediumLong_b10_cut2_L_mono_resampled.wav
4	70	2	2	1	C	1	1	802	1	poli_8sides 5_whiteLine3.jpg	MediumLong_e19_mono_resampled.wav
4	71	4	3	2	I	2	0	863	1	poli_8sides 7_whiteLine3.jpg	Medium_e21_mono_resampled.wav
4	72	1	2	0	C	2	1	513	1	poli_8sides 11_whiteLine3.jpg	MediumLong_e19_mono_resampled.wav
4	73	2	1	0	C	2	1	429	1	poli_8sides 5_whiteLine3.jpg	MediumLong_b23_cut4_ML_mono_resampled.wav
4	74	4	4	2	I	2	0	846	0	poli_8sides 7_whiteLine3.jpg	MediumLong_b10_cut2_L_mono_resampled.wav
4	75	1	2	0	C	2	1	798	1	poli_8sides 11_whiteLine3.jpg	MediumLong_e19_mono_resampled.wav
4	76	3	4	2	I	2	0	707	1	poli_8sides 20_whiteLine3.jpg	MediumLong_b10_cut2_L_mono_resampled.wav
4	77	4	3	2	I	1	0	1220	1	poli_8sides 7_whiteLine3.jpg	Medium_e21_mono_resampled.wav
4	78	1	1	1	C	1	1	747	1	poli_8sides 11_whiteLine3.jpg	MediumLong_b23_cut4_ML_mono_resampled.wav
4	79	3	3	2	I	2	0	1116	0	poli_8sides 20_whiteLine3.jpg	Medium_e21_mono_resampled.wav
4	80	2	2	1	C	1	1	761	1	poli_8sides 5_whiteLine3.jpg	MediumLong_e19_mono_resampled.wav
4	81	4	4	2	I	2	0	890	1	poli_8sides 7_whiteLine3.jpg	MediumLong_b10_cut2_L_mono_resampled.wav
4	82	1	2	0	C	2	1	724	1	poli_8sides 11_whiteLine3.jpg	MediumLong_e19_mono_resampled.wav
4	83	2	1	0	C	2	1	461	1	poli_8sides 5_whiteLine3.jpg	MediumLong_b23_cut4_ML_mono_resampled.wav
4	84	3	3	2	I	2	0	944	1	poli_8sides 20_whiteLine3.jpg	Medium_e21_mono_resampled.wav
4	85	2	2	1	C	1	1	1073	1	poli_8sides 5_whiteLine3.jpg	MediumLong_e19_mono_resampled.wav
4	86	1	1	1	C	1	1	853	1	poli_8sides 11_whiteLine3.jpg	MediumLong_b23_cut4_ML_mono_resampled.wav
4	87	4	3	2	I	1	0	1277	1	poli_8sides 7_whiteLine3.jpg	Medium_e21_mono_resampled.wav
4	88	3	4	2	I	1	0	750	1	poli_8sides 20_whiteLine3.jpg	MediumLong_b10_cut2_L_mono_resampled.wav
4	89	1	2	0	C	2	1	953	1	poli_8sides 11_whiteLine3.jpg	MediumLong_e19_mono_resampled.wav
4	90	4	3	2	I	1	0	1006	0	poli_8sides 7_whiteLine3.jpg	Medium_e21_mono_resampled.wav
4	91	2	1	0	C	2	1	568	1	poli_8sides 5_whiteLine3.jpg	MediumLong_b23_cut4_ML_mono_resampled.wav
4	92	3	3	2	I	2	0	880	1	poli_8sides 20_whiteLine3.jpg	Medium_e21_mono_resampled.wav
4	93	1	1	1	C	1	1	949	1	poli_8sides 11_whiteLine3.jpg	MediumLong_b23_cut4_ML_mono_resampled.wav
4	94	4	4	2	I	2	0	783	0	poli_8sides 7_whiteLine3.jpg	MediumLong_b10_cut2_L_mono_resampled.wav
4	95	2	2	1	C	1	1	740	1	poli_8sides 5_whiteLine3.jpg	MediumLong_e19_mono_resampled.wav
4	96	3	4	2	I	2	0	850	0	poli_8sides 20_whiteLine3.jpg	MediumLong_b10_cut2_L_mono_resampled.wav
4	97	2	2	1	C	1	1	727	1	poli_8sides 5_whiteLine3.jpg	MediumLong_e19_mono_resampled.wav
4	98	3	3	2	I	2	0	706	1	poli_8sides 20_whiteLine3.jpg	Medium_e21_mono_resampled.wav
4	99	1	1	1	C	1	1	1091	1	poli_8sides 11_whiteLine3.jpg	MediumLong_b23_cut4_ML_mono_resampled.wav
4	100	4	3	2	I	2	0	1133	0	poli_8sides 7_whiteLine3.jpg	Medium_e21_mono_resampled.wav
4	101	3	4	2	I	1	0	1100	0	poli_8sides 20_whiteLine3.jpg	MediumLong_b10_cut2_L_mono_resampled.wav
4	102	2	1	0	C	2	1	654	1	poli_8sides 5_whiteLine3.jpg	MediumLong_b23_cut4_ML_mono_resampled.wav
4	103	1	2	0	C	2	1	892	1	poli_8sides 11_whiteLine3.jpg	MediumLong_e19_mono_resampled.wav
4	104	4	4	2	I	2	0	738	1	poli_8sides 7_whiteLine3.jpg	MediumLong_b10_cut2_L_mono_resampled.wav
4	105	3	3	2	I	2	0	712	0	poli_8sides 20_whiteLine3.jpg	Medium_e21_mono_resampled.wav
4	106	2	1	0	C	2	1	695	1	poli_8sides 5_whiteLine3.jpg	MediumLong_b23_cut4_ML_mono_resampled.wav
4	107	1	1	1	C	1	1	769	1	poli_8sides 11_whiteLine3.jpg	MediumLong_b23_cut4_ML_mono_resampled.wav
4	108	4	3	2	I	2	0	903	0	poli_8sides 7_whiteLine3.jpg	Medium_e21_mono_resampled.wav
4	109	2	2	1	C	1	1	670	1	poli_8sides 5_whiteLine3.jpg	MediumLong_e19_mono_resampled.wav
4	110	3	4	2	I	2	0	756	0	poli_8sides 20_whiteLine3.jpg	MediumLong_b10_cut2_L_mono_resampled.wav
4	111	4	4	2	I	2	0	456	0	poli_8sides 7_whiteLine3.jpg	MediumLong_b10_cut2_L_mono_resampled.wav
4	112	1	2	0	C	2	1	842	1	poli_8sides 11_whiteLine3.jpg	MediumLong_e19_mono_resampled.wav
4	113	4	4	2	I	2	0	1162	0	poli_8sides 7_whiteLine3.jpg	MediumLong_b10_cut2_L_mono_resampled.wav
4	114	1	2	0	C	2	1	802	1	poli_8sides 11_whiteLine3.jpg	MediumLong_e19_mono_resampled.wav
4	115	2	2	1	C	1	1	1644	1	poli_8sides 5_whiteLine3.jpg	MediumLong_e19_mono_resampled.wav
4	116	3	3	2	I	2	0	787	0	poli_8sides 20_whiteLine3.jpg	Medium_e21_mono_resampled.wav
4	117	2	1	0	C	2	1	644	1	poli_8sides 5_whiteLine3.jpg	MediumLong_b23_cut4_ML_mono_resampled.wav
4	118	3	4	2	I	2	0	976	0	poli_8sides 20_whiteLine3.jpg	MediumLong_b10_cut2_L_mono_resampled.wav
4	119	1	1	1	C	1	1	1104	1	poli_8sides 11_whiteLine3.jpg	MediumLong_b23_cut4_ML_mono_resampled.wav
4	120	4	3	2	I	1	0	1392	0	poli_8sides 7_whiteLine3.jpg	Medium_e21_mono_resampled.wav
4	121	3	3	2	I	2	0	781	0	poli_8sides 20_whiteLine3.jpg	Medium_e21_mono_resampled.wav
4	122	2	2	1	C	1	1	819	1	poli_8sides 5_whiteLine3.jpg	MediumLong_e19_mono_resampled.wav
4	123	1	2	0	C	2	1	606	1	poli_8sides 11_whiteLine3.jpg	MediumLong_e19_mono_resampled.wav
4	124	4	4	2	I	2	0	1150	1	poli_8sides 7_whiteLine3.jpg	MediumLong_b10_cut2_L_mono_resampled.wav
4	125	1	1	1	C	1	1	846	1	poli_8sides 11_whiteLine3.jpg	MediumLong_b23_cut4_ML_mono_resampled.wav
4	126	3	4	2	I	1	0	1278	1	poli_8sides 20_whiteLine3.jpg	MediumLong_b10_cut2_L_mono_resampled.wav
4	127	4	3	2	I	2	0	960	1	poli_8sides 7_whiteLine3.jpg	Medium_e21_mono_resampled.wav
4	128	2	1	0	C	2	1	520	1	poli_8sides 5_whiteLine3.jpg	MediumLong_b23_cut4_ML_mono_resampled.wav
4	129	3	3	2	I	2	0	852	1	poli_8sides 20_whiteLine3.jpg	Medium_e21_mono_resampled.wav
4	130	2	2	1	C	1	1	772	1	poli_8sides 5_whiteLine3.jpg	MediumLong_e19_mono_resampled.wav
4	131	1	2	0	C	2	1	617	1	poli_8sides 11_whiteLine3.jpg	MediumLong_e19_mono_resampled.wav
4	132	4	3	2	I	2	0	1500	0	poli_8sides 7_whiteLine3.jpg	Medium_e21_mono_resampled.wav
4	133	3	4	2	I	2	0	587	1	poli_8sides 20_whiteLine3.jpg	MediumLong_b10_cut2_L_mono_resampled.wav
4	134	2	1	0	C	2	1	533	1	poli_8sides 5_whiteLine3.jpg	MediumLong_b23_cut4_ML_mono_resampled.wav
4	135	4	4	2	I	2	0	783	1	poli_8sides 7_whiteLine3.jpg	MediumLong_b10_cut2_L_mono_resampled.wav
4	136	1	1	1	C	1	1	788	1	poli_8sides 11_whiteLine3.jpg	MediumLong_b23_cut4_ML_mono_resampled.wav
4	137	3	4	2	I	1	0	1242	1	poli_8sides 20_whiteLine3.jpg	MediumLong_b10_cut2_L_mono_resampled.wav
4	138	1	1	1	C	1	1	763	1	poli_8sides 11_whiteLine3.jpg	MediumLong_b23_cut4_ML_mono_resampled.wav
4	139	2	1	0	C	2	1	613	1	poli_8sides 5_whiteLine3.jpg	MediumLong_b23_cut4_ML_mono_resampled.wav
4	140	4	3	2	I	2	0	1236	0	poli_8sides 7_whiteLine3.jpg	Medium_e21_mono_resampled.wav
4	141	2	2	1	C	1	1	672	1	poli_8sides 5_whiteLine3.jpg	MediumLong_e19_mono_resampled.wav
4	142	1	2	0	C	2	1	491	1	poli_8sides 11_whiteLine3.jpg	MediumLong_e19_mono_resampled.wav
4	143	4	4	2	I	2	0	804	1	poli_8sides 7_whiteLine3.jpg	MediumLong_b10_cut2_L_mono_resampled.wav
4	144	3	3	2	I	2	0	530	1	poli_8sides 20_whiteLine3.jpg	Medium_e21_mono_resampled.wav
4	145	1	1	1	C	1	1	703	1	poli_8sides 11_whiteLine3.jpg	MediumLong_b23_cut4_ML_mono_resampled.wav
4	146	3	3	2	I	2	0	771	1	poli_8sides 20_whiteLine3.jpg	Medium_e21_mono_resampled.wav
4	147	4	3	2	I	1	0	1060	0	poli_8sides 7_whiteLine3.jpg	Medium_e21_mono_resampled.wav
4	148	2	2	1	C	1	1	781	1	poli_8sides 5_whiteLine3.jpg	MediumLong_e19_mono_resampled.wav
4	149	3	4	2	I	2	0	762	1	poli_8sides 20_whiteLine3.jpg	MediumLong_b10_cut2_L_mono_resampled.wav
4	150	4	4	2	I	1	0	669	0	poli_8sides 7_whiteLine3.jpg	MediumLong_b10_cut2_L_mono_resampled.wav
4	151	2	1	0	C	2	1	608	1	poli_8sides 5_whiteLine3.jpg	MediumLong_b23_cut4_ML_mono_resampled.wav
4	152	1	2	0	C	2	1	885	1	poli_8sides 11_whiteLine3.jpg	MediumLong_e19_mono_resampled.wav
4	153	3	4	2	I	2	0	926	0	poli_8sides 20_whiteLine3.jpg	MediumLong_b10_cut2_L_mono_resampled.wav
4	154	2	2	1	C	1	1	793	1	poli_8sides 5_whiteLine3.jpg	MediumLong_e19_mono_resampled.wav
4	155	4	4	2	I	2	0	936	1	poli_8sides 7_whiteLine3.jpg	MediumLong_b10_cut2_L_mono_resampled.wav
4	156	1	2	0	C	2	1	834	1	poli_8sides 11_whiteLine3.jpg	MediumLong_e19_mono_resampled.wav
4	157	4	3	2	I	1	0	959	0	poli_8sides 7_whiteLine3.jpg	Medium_e21_mono_resampled.wav
4	158	3	3	2	I	2	0	1152	0	poli_8sides 20_whiteLine3.jpg	Medium_e21_mono_resampled.wav
4	159	2	1	0	C	2	1	649	1	poli_8sides 5_whiteLine3.jpg	MediumLong_b23_cut4_ML_mono_resampled.wav
4	160	1	1	1	C	1	1	690	1	poli_8sides 11_whiteLine3.jpg	MediumLong_b23_cut4_ML_mono_resampled.wav
4	161	3	4	2	I	2	0	883	0	poli_8sides 20_whiteLine3.jpg	MediumLong_b10_cut2_L_mono_resampled.wav
4	162	2	1	0	C	2	1	653	1	poli_8sides 5_whiteLine3.jpg	MediumLong_b23_cut4_ML_mono_resampled.wav
4	163	1	1	1	C	1	1	725	1	poli_8sides 11_whiteLine3.jpg	MediumLong_b23_cut4_ML_mono_resampled.wav
4	164	4	4	2	I	2	0	1401	0	poli_8sides 7_whiteLine3.jpg	MediumLong_b10_cut2_L_mono_resampled.wav
4	165	2	2	1	C	1	1	707	1	poli_8sides 5_whiteLine3.jpg	MediumLong_e19_mono_resampled.wav
4	166	4	3	2	I	1	0	1193	0	poli_8sides 7_whiteLine3.jpg	Medium_e21_mono_resampled.wav
4	167	3	3	2	I	2	0	570	0	poli_8sides 20_whiteLine3.jpg	Medium_e21_mono_resampled.wav
4	168	1	2	0	C	2	1	733	1	poli_8sides 11_whiteLine3.jpg	MediumLong_e19_mono_resampled.wav
4	169	3	4	2	I	2	0	731	1	poli_8sides 20_whiteLine3.jpg	MediumLong_b10_cut2_L_mono_resampled.wav
4	170	4	4	2	I	1	0	1070	0	poli_8sides 7_whiteLine3.jpg	MediumLong_b10_cut2_L_mono_resampled.wav
4	171	1	2	0	C	2	1	881	1	poli_8sides 11_whiteLine3.jpg	MediumLong_e19_mono_resampled.wav
4	172	2	2	1	C	1	1	659	1	poli_8sides 5_whiteLine3.jpg	MediumLong_e19_mono_resampled.wav
4	173	4	3	2	I	2	0	982	1	poli_8sides 7_whiteLine3.jpg	Medium_e21_mono_resampled.wav
4	174	2	1	0	C	2	1	624	1	poli_8sides 5_whiteLine3.jpg	MediumLong_b23_cut4_ML_mono_resampled.wav
4	175	1	1	1	C	1	1	1004	1	poli_8sides 11_whiteLine3.jpg	MediumLong_b23_cut4_ML_mono_resampled.wav
4	176	3	3	2	I	1	0	1182	0	poli_8sides 20_whiteLine3.jpg	Medium_e21_mono_resampled.wav
4	177	4	3	2	I	2	0	948	0	poli_8sides 7_whiteLine3.jpg	Medium_e21_mono_resampled.wav
4	178	2	2	1	C	1	1	859	1	poli_8sides 5_whiteLine3.jpg	MediumLong_e19_mono_resampled.wav
4	179	3	3	2	I	2	0	1023	0	poli_8sides 20_whiteLine3.jpg	Medium_e21_mono_resampled.wav
4	180	1	2	0	C	2	1	882	1	poli_8sides 11_whiteLine3.jpg	MediumLong_e19_mono_resampled.wav
4	181	2	1	0	C	2	1	457	1	poli_8sides 5_whiteLine3.jpg	MediumLong_b23_cut4_ML_mono_resampled.wav
4	182	1	1	1	C	1	1	606	1	poli_8sides 11_whiteLine3.jpg	MediumLong_b23_cut4_ML_mono_resampled.wav
4	183	4	4	2	I	2	0	733	0	poli_8sides 7_whiteLine3.jpg	MediumLong_b10_cut2_L_mono_resampled.wav
4	184	3	4	2	I	2	0	470	1	poli_8sides 20_whiteLine3.jpg	MediumLong_b10_cut2_L_mono_resampled.wav
4	185	2	2	1	C	1	1	1019	1	poli_8sides 5_whiteLine3.jpg	MediumLong_e19_mono_resampled.wav
4	186	4	4	2	I	2	0	1125	1	poli_8sides 7_whiteLine3.jpg	MediumLong_b10_cut2_L_mono_resampled.wav
4	187	3	4	2	I	1	0	752	0	poli_8sides 20_whiteLine3.jpg	MediumLong_b10_cut2_L_mono_resampled.wav
4	188	1	1	1	C	1	1	737	1	poli_8sides 11_whiteLine3.jpg	MediumLong_b23_cut4_ML_mono_resampled.wav
4	189	2	1	0	C	2	1	479	1	poli_8sides 5_whiteLine3.jpg	MediumLong_b23_cut4_ML_mono_resampled.wav
4	190	3	3	2	I	1	0	746	1	poli_8sides 20_whiteLine3.jpg	Medium_e21_mono_resampled.wav
4	191	1	2	0	C	2	1	893	1	poli_8sides 11_whiteLine3.jpg	MediumLong_e19_mono_resampled.wav
4	192	4	3	2	I	1	0	1399	0	poli_8sides 7_whiteLine3.jpg	Medium_e21_mono_resampled.wav
4	193	1	2	0	C	2	1	594	1	poli_8sides 11_whiteLine3.jpg	MediumLong_e19_mono_resampled.wav
4	194	3	3	2	I	2	0	995	1	poli_8sides 20_whiteLine3.jpg	Medium_e21_mono_resampled.wav
4	195	2	2	1	C	1	1	1069	1	poli_8sides 5_whiteLine3.jpg	MediumLong_e19_mono_resampled.wav
4	196	4	4	2	I	2	0	541	1	poli_8sides 7_whiteLine3.jpg	MediumLong_b10_cut2_L_mono_resampled.wav
4	197	1	1	1	C	1	1	711	1	poli_8sides 11_whiteLine3.jpg	MediumLong_b23_cut4_ML_mono_resampled.wav
4	198	2	1	0	C	2	1	560	1	poli_8sides 5_whiteLine3.jpg	MediumLong_b23_cut4_ML_mono_resampled.wav
4	199	3	4	2	I	2	0	959	1	poli_8sides 20_whiteLine3.jpg	MediumLong_b10_cut2_L_mono_resampled.wav
4	200	4	3	2	I	2	0	729	1	poli_8sides 7_whiteLine3.jpg	Medium_e21_mono_resampled.wav
