block	trial	Vstim	Astim	match	C/I	resp	.result	RT	fb	V-file	A-file
LR

0	1	1	1	1	C	0	0	0	0	Ⴋ	cut_g.wav
0	2	2	4	0	C	2	0	770	0	Ⴢ	cut_oo.wav
0	3	1	2	0	C	2	0	856	0	Ⴋ	cut_ee.wav
0	4	2	3	1	C	2	1	370	1	Ⴢ	cut_eeuw.wav
0	5	1	1	1	C	2	1	946	1	Ⴋ	cut_g.wav
0	6	2	3	1	C	2	1	579	1	Ⴢ	cut_eeuw.wav
0	7	1	2	0	C	2	0	491	0	Ⴋ	cut_ee.wav
0	8	2	4	0	C	2	0	1019	0	Ⴢ	cut_oo.wav
0	9	2	3	1	C	2	1	700	1	Ⴢ	cut_eeuw.wav
0	10	1	1	1	C	2	1	886	1	Ⴋ	cut_g.wav
0	11	2	4	0	C	1	1	1164	1	Ⴢ	cut_oo.wav
0	12	1	2	0	C	1	1	1136	1	Ⴋ	cut_ee.wav
0	13	2	4	0	C	2	0	867	0	Ⴢ	cut_oo.wav
0	14	2	3	1	C	2	1	805	1	Ⴢ	cut_eeuw.wav
0	15	1	1	1	C	1	0	522	0	Ⴋ	cut_g.wav
0	16	1	2	0	C	1	1	902	1	Ⴋ	cut_ee.wav
0	17	1	1	1	C	2	1	737	1	Ⴋ	cut_g.wav
0	18	1	2	0	C	1	1	1006	1	Ⴋ	cut_ee.wav
0	19	2	4	0	C	1	1	1135	1	Ⴢ	cut_oo.wav
0	20	2	3	1	C	2	1	947	1	Ⴢ	cut_eeuw.wav
0	21	2	3	1	C	2	1	977	1	Ⴢ	cut_eeuw.wav
0	22	2	4	0	C	1	1	685	1	Ⴢ	cut_oo.wav
0	23	1	2	0	C	1	1	1165	1	Ⴋ	cut_ee.wav
0	24	1	1	1	C	2	1	586	1	Ⴋ	cut_g.wav
0	25	2	4	0	C	1	1	561	1	Ⴢ	cut_oo.wav
0	26	1	1	1	C	2	1	532	1	Ⴋ	cut_g.wav
0	27	1	2	0	C	1	1	813	1	Ⴋ	cut_ee.wav
0	28	2	3	1	C	1	0	526	0	Ⴢ	cut_eeuw.wav
0	29	2	4	0	C	1	1	802	1	Ⴢ	cut_oo.wav
0	30	1	2	0	C	1	1	730	1	Ⴋ	cut_ee.wav
avg_resp = 826
1	1	2	2	1	C	2	1	1102	1	Ⴒ	cut_g.wav
1	2	1	1	1	C	2	1	1232	1	Ⴐ	cut_w.wav
1	3	3	4	2	I	2	0	856	0	Ⴉ	cut_h.wav
1	4	4	3	2	I	2	0	681	1	Ⴏ	cut_l.wav
1	5	2	1	0	C	1	1	1075	1	Ⴒ	cut_w.wav
1	6	3	3	2	I	1	0	937	0	Ⴉ	cut_l.wav
1	7	4	4	2	I	2	0	860	0	Ⴏ	cut_h.wav
1	8	1	2	0	C	2	0	467	0	Ⴐ	cut_g.wav
1	9	2	1	0	C	2	0	802	0	Ⴒ	cut_w.wav
1	10	1	1	1	C	2	1	584	1	Ⴐ	cut_w.wav
1	11	4	4	2	I	1	0	830	0	Ⴏ	cut_h.wav
1	12	3	4	2	I	1	0	876	1	Ⴉ	cut_h.wav
1	13	4	3	2	I	2	0	902	1	Ⴏ	cut_l.wav
1	14	3	3	2	I	1	0	950	1	Ⴉ	cut_l.wav
1	15	2	2	1	C	1	0	764	0	Ⴒ	cut_g.wav
1	16	1	2	0	C	1	1	707	1	Ⴐ	cut_g.wav
1	17	4	4	2	I	1	0	892	1	Ⴏ	cut_h.wav
1	18	3	3	2	I	1	0	784	1	Ⴉ	cut_l.wav
1	19	2	1	0	C	2	0	899	0	Ⴒ	cut_w.wav
1	20	1	2	0	C	2	0	909	0	Ⴐ	cut_g.wav
1	21	2	2	1	C	2	1	597	1	Ⴒ	cut_g.wav
1	22	1	1	1	C	2	1	680	1	Ⴐ	cut_w.wav
1	23	3	4	2	I	1	0	647	1	Ⴉ	cut_h.wav
1	24	4	3	2	I	2	0	974	1	Ⴏ	cut_l.wav
1	25	3	3	2	I	1	0	930	1	Ⴉ	cut_l.wav
1	26	4	3	2	I	2	0	960	0	Ⴏ	cut_l.wav
1	27	2	1	0	C	1	1	906	1	Ⴒ	cut_w.wav
1	28	1	1	1	C	2	1	781	1	Ⴐ	cut_w.wav
1	29	2	2	1	C	2	1	1045	1	Ⴒ	cut_g.wav
1	30	3	4	2	I	2	0	839	1	Ⴉ	cut_h.wav
1	31	1	2	0	C	1	1	689	1	Ⴐ	cut_g.wav
1	32	4	4	2	I	2	0	789	1	Ⴏ	cut_h.wav
1	33	3	4	2	I	2	0	663	0	Ⴉ	cut_h.wav
1	34	2	1	0	C	1	1	742	1	Ⴒ	cut_w.wav
1	35	1	1	1	C	2	1	648	1	Ⴐ	cut_w.wav
1	36	4	4	2	I	2	0	657	1	Ⴏ	cut_h.wav
1	37	3	3	2	I	2	0	698	0	Ⴉ	cut_l.wav
1	38	4	3	2	I	2	0	611	0	Ⴏ	cut_l.wav
1	39	1	2	0	C	1	1	838	1	Ⴐ	cut_g.wav
1	40	2	2	1	C	2	1	425	1	Ⴒ	cut_g.wav
1	41	4	3	2	I	2	0	635	0	Ⴏ	cut_l.wav
1	42	1	2	0	C	1	1	791	1	Ⴐ	cut_g.wav
1	43	3	3	2	I	1	0	962	0	Ⴉ	cut_l.wav
1	44	2	1	0	C	1	1	614	1	Ⴒ	cut_w.wav
1	45	1	1	1	C	2	1	554	1	Ⴐ	cut_w.wav
1	46	2	2	1	C	2	1	506	1	Ⴒ	cut_g.wav
1	47	4	4	2	I	2	0	597	0	Ⴏ	cut_h.wav
1	48	3	4	2	I	2	0	388	0	Ⴉ	cut_h.wav
1	49	4	4	2	I	2	0	610	1	Ⴏ	cut_h.wav
1	50	3	4	2	I	1	0	1095	0	Ⴉ	cut_h.wav
1	51	2	2	1	C	2	1	582	1	Ⴒ	cut_g.wav
1	52	1	2	0	C	1	1	783	1	Ⴐ	cut_g.wav
1	53	3	3	2	I	2	0	875	0	Ⴉ	cut_l.wav
1	54	2	1	0	C	1	1	846	1	Ⴒ	cut_w.wav
1	55	1	1	1	C	2	1	744	1	Ⴐ	cut_w.wav
1	56	4	3	2	I	2	0	814	1	Ⴏ	cut_l.wav
1	57	2	2	1	C	2	1	617	1	Ⴒ	cut_g.wav
1	58	3	3	2	I	2	0	696	1	Ⴉ	cut_l.wav
1	59	4	4	2	I	2	0	1011	1	Ⴏ	cut_h.wav
1	60	1	1	1	C	2	1	735	1	Ⴐ	cut_w.wav
1	61	2	1	0	C	1	1	762	1	Ⴒ	cut_w.wav
1	62	1	2	0	C	1	1	1093	1	Ⴐ	cut_g.wav
1	63	4	3	2	I	1	0	1246	1	Ⴏ	cut_l.wav
1	64	3	4	2	I	2	0	769	1	Ⴉ	cut_h.wav
1	65	1	1	1	C	2	1	829	1	Ⴐ	cut_w.wav
1	66	2	1	0	C	1	1	711	1	Ⴒ	cut_w.wav
1	67	3	3	2	I	2	0	689	0	Ⴉ	cut_l.wav
1	68	4	3	2	I	2	0	720	0	Ⴏ	cut_l.wav
1	69	2	2	1	C	2	1	881	1	Ⴒ	cut_g.wav
1	70	4	4	2	I	2	0	675	1	Ⴏ	cut_h.wav
1	71	3	4	2	I	1	0	810	1	Ⴉ	cut_h.wav
1	72	1	2	0	C	1	1	852	1	Ⴐ	cut_g.wav
1	73	4	3	2	I	1	0	1168	1	Ⴏ	cut_l.wav
1	74	3	3	2	I	2	0	574	1	Ⴉ	cut_l.wav
1	75	1	1	1	C	1	0	568	0	Ⴐ	cut_w.wav
1	76	2	2	1	C	2	1	655	1	Ⴒ	cut_g.wav
1	77	4	4	2	I	2	0	622	0	Ⴏ	cut_h.wav
1	78	1	2	0	C	2	0	722	0	Ⴐ	cut_g.wav
1	79	3	4	2	I	1	0	1344	1	Ⴉ	cut_h.wav
1	80	2	1	0	C	1	1	795	1	Ⴒ	cut_w.wav
1	81	4	4	2	I	2	0	713	0	Ⴏ	cut_h.wav
1	82	1	1	1	C	2	1	1297	1	Ⴐ	cut_w.wav
1	83	3	3	2	I	2	0	688	0	Ⴉ	cut_l.wav
1	84	2	1	0	C	1	1	1310	1	Ⴒ	cut_w.wav
1	85	1	2	0	C	1	1	1344	1	Ⴐ	cut_g.wav
1	86	4	3	2	I	1	0	1131	1	Ⴏ	cut_l.wav
1	87	2	2	1	C	2	1	738	1	Ⴒ	cut_g.wav
1	88	3	4	2	I	2	0	715	1	Ⴉ	cut_h.wav
1	89	4	3	2	I	2	0	843	1	Ⴏ	cut_l.wav
1	90	2	2	1	C	2	1	691	1	Ⴒ	cut_g.wav
1	91	1	2	0	C	1	1	977	1	Ⴐ	cut_g.wav
1	92	3	4	2	I	2	0	729	1	Ⴉ	cut_h.wav
1	93	4	4	2	I	1	0	728	0	Ⴏ	cut_h.wav
1	94	3	3	2	I	2	0	845	0	Ⴉ	cut_l.wav
1	95	2	1	0	C	1	1	808	1	Ⴒ	cut_w.wav
1	96	1	1	1	C	2	1	791	1	Ⴐ	cut_w.wav
1	97	4	4	2	I	1	0	940	0	Ⴏ	cut_h.wav
1	98	3	3	2	I	2	0	701	0	Ⴉ	cut_l.wav
1	99	1	2	0	C	1	1	1395	1	Ⴐ	cut_g.wav
1	100	2	1	0	C	1	1	1372	1	Ⴒ	cut_w.wav
1	101	3	4	2	I	2	0	534	1	Ⴉ	cut_h.wav
1	102	1	1	1	C	2	1	1118	1	Ⴐ	cut_w.wav
1	103	2	2	1	C	2	1	769	1	Ⴒ	cut_g.wav
1	104	4	3	2	I	2	0	792	1	Ⴏ	cut_l.wav
1	105	2	2	1	C	2	1	716	1	Ⴒ	cut_g.wav
1	106	4	4	2	I	1	0	1130	1	Ⴏ	cut_h.wav
1	107	3	3	2	I	2	0	728	0	Ⴉ	cut_l.wav
1	108	1	1	1	C	2	1	852	1	Ⴐ	cut_w.wav
1	109	2	1	0	C	1	1	785	1	Ⴒ	cut_w.wav
1	110	3	4	2	I	2	0	776	0	Ⴉ	cut_h.wav
1	111	1	2	0	C	1	1	1540	1	Ⴐ	cut_g.wav
1	112	4	3	2	I	2	0	939	0	Ⴏ	cut_l.wav
1	113	1	1	1	C	2	1	1301	1	Ⴐ	cut_w.wav
1	114	4	4	2	I	1	0	1174	0	Ⴏ	cut_h.wav
1	115	3	4	2	I	2	0	609	0	Ⴉ	cut_h.wav
1	116	2	1	0	C	1	1	701	1	Ⴒ	cut_w.wav
1	117	3	3	2	I	2	0	692	1	Ⴉ	cut_l.wav
1	118	2	2	1	C	2	1	774	1	Ⴒ	cut_g.wav
1	119	4	3	2	I	1	0	785	0	Ⴏ	cut_l.wav
1	120	1	2	0	C	1	1	1596	1	Ⴐ	cut_g.wav
1	121	4	3	2	I	2	0	872	0	Ⴏ	cut_l.wav
1	122	2	1	0	C	1	1	765	1	Ⴒ	cut_w.wav
1	123	1	1	1	C	2	1	927	1	Ⴐ	cut_w.wav
1	124	3	3	2	I	2	0	693	1	Ⴉ	cut_l.wav
1	125	1	2	0	C	1	1	1674	1	Ⴐ	cut_g.wav
1	126	2	2	1	C	2	1	629	1	Ⴒ	cut_g.wav
1	127	3	4	2	I	2	0	769	1	Ⴉ	cut_h.wav
1	128	4	4	2	I	2	0	604	0	Ⴏ	cut_h.wav
1	129	2	2	1	C	2	1	652	1	Ⴒ	cut_g.wav
1	130	3	4	2	I	2	0	532	0	Ⴉ	cut_h.wav
1	131	4	3	2	I	2	0	995	1	Ⴏ	cut_l.wav
1	132	1	2	0	C	1	1	726	1	Ⴐ	cut_g.wav
1	133	3	3	2	I	2	0	558	0	Ⴉ	cut_l.wav
1	134	1	1	1	C	2	1	859	1	Ⴐ	cut_w.wav
1	135	4	4	2	I	2	0	783	0	Ⴏ	cut_h.wav
1	136	2	1	0	C	1	1	762	1	Ⴒ	cut_w.wav
1	137	1	2	0	C	1	1	1313	1	Ⴐ	cut_g.wav
1	138	3	4	2	I	2	0	598	0	Ⴉ	cut_h.wav
1	139	2	1	0	C	1	1	935	1	Ⴒ	cut_w.wav
1	140	4	3	2	I	2	0	606	0	Ⴏ	cut_l.wav
1	141	2	2	1	C	2	1	678	1	Ⴒ	cut_g.wav
1	142	1	1	1	C	2	1	939	1	Ⴐ	cut_w.wav
1	143	3	3	2	I	2	0	703	0	Ⴉ	cut_l.wav
1	144	4	4	2	I	1	0	740	0	Ⴏ	cut_h.wav
1	145	1	1	1	C	2	1	993	1	Ⴐ	cut_w.wav
1	146	2	2	1	C	2	1	554	1	Ⴒ	cut_g.wav
1	147	3	3	2	I	2	0	502	1	Ⴉ	cut_l.wav
1	148	4	4	2	I	2	0	652	0	Ⴏ	cut_h.wav
1	149	1	2	0	C	1	1	1387	1	Ⴐ	cut_g.wav
1	150	3	4	2	I	1	0	724	1	Ⴉ	cut_h.wav
1	151	2	1	0	C	1	1	827	1	Ⴒ	cut_w.wav
1	152	4	3	2	I	2	0	725	0	Ⴏ	cut_l.wav
1	153	3	3	2	I	2	0	417	1	Ⴉ	cut_l.wav
1	154	1	2	0	C	1	1	1110	1	Ⴐ	cut_g.wav
1	155	4	4	2	I	2	0	806	1	Ⴏ	cut_h.wav
1	156	2	2	1	C	2	1	736	1	Ⴒ	cut_g.wav
1	157	3	4	2	I	1	0	609	1	Ⴉ	cut_h.wav
1	158	2	1	0	C	1	1	697	1	Ⴒ	cut_w.wav
1	159	1	1	1	C	2	1	838	1	Ⴐ	cut_w.wav
1	160	4	3	2	I	1	0	914	1	Ⴏ	cut_l.wav
1	161	3	4	2	I	1	0	600	0	Ⴉ	cut_h.wav
1	162	1	2	0	C	1	1	949	1	Ⴐ	cut_g.wav
1	163	4	4	2	I	2	0	762	1	Ⴏ	cut_h.wav
1	164	2	1	0	C	1	1	698	1	Ⴒ	cut_w.wav
1	165	1	1	1	C	2	1	720	1	Ⴐ	cut_w.wav
1	166	3	3	2	I	2	0	477	1	Ⴉ	cut_l.wav
1	167	2	2	1	C	2	1	735	1	Ⴒ	cut_g.wav
1	168	4	3	2	I	1	0	1040	0	Ⴏ	cut_l.wav
1	169	2	1	0	C	1	1	971	1	Ⴒ	cut_w.wav
1	170	3	4	2	I	1	0	705	0	Ⴉ	cut_h.wav
1	171	4	3	2	I	1	0	1091	1	Ⴏ	cut_l.wav
1	172	1	2	0	C	1	1	838	1	Ⴐ	cut_g.wav
1	173	2	2	1	C	2	1	570	1	Ⴒ	cut_g.wav
1	174	3	3	2	I	2	0	570	0	Ⴉ	cut_l.wav
1	175	1	1	1	C	2	1	976	1	Ⴐ	cut_w.wav
1	176	4	4	2	I	2	0	930	0	Ⴏ	cut_h.wav
1	177	3	4	2	I	1	0	1077	1	Ⴉ	cut_h.wav
1	178	4	4	2	I	2	0	660	1	Ⴏ	cut_h.wav
1	179	1	2	0	C	1	1	1018	1	Ⴐ	cut_g.wav
1	180	2	2	1	C	2	1	650	1	Ⴒ	cut_g.wav
1	181	1	1	1	C	2	1	867	1	Ⴐ	cut_w.wav
1	182	2	1	0	C	1	1	876	1	Ⴒ	cut_w.wav
1	183	4	3	2	I	1	0	928	0	Ⴏ	cut_l.wav
1	184	3	3	2	I	2	0	429	0	Ⴉ	cut_l.wav
1	185	4	4	2	I	2	0	810	1	Ⴏ	cut_h.wav
1	186	3	4	2	I	1	0	720	0	Ⴉ	cut_h.wav
1	187	1	2	0	C	1	1	783	1	Ⴐ	cut_g.wav
1	188	2	1	0	C	1	1	727	1	Ⴒ	cut_w.wav
1	189	3	3	2	I	2	0	789	0	Ⴉ	cut_l.wav
1	190	4	3	2	I	2	0	857	1	Ⴏ	cut_l.wav
1	191	2	2	1	C	2	1	993	1	Ⴒ	cut_g.wav
1	192	1	1	1	C	2	1	674	1	Ⴐ	cut_w.wav
1	193	2	2	1	C	2	1	760	1	Ⴒ	cut_g.wav
1	194	4	3	2	I	2	0	770	0	Ⴏ	cut_l.wav
1	195	1	1	1	C	2	1	848	1	Ⴐ	cut_w.wav
1	196	3	3	2	I	2	0	639	1	Ⴉ	cut_l.wav
1	197	4	4	2	I	2	0	396	1	Ⴏ	cut_h.wav
1	198	3	4	2	I	2	0	585	1	Ⴉ	cut_h.wav
1	199	1	2	0	C	1	1	758	1	Ⴐ	cut_g.wav
1	200	2	1	0	C	1	1	685	1	Ⴒ	cut_w.wav
2	1	1	1	1	C	2	1	1427	1	Ⴂ	cut_ei.wav
2	2	3	4	2	I	2	0	1122	1	Ⴡ	cut_n.wav
2	3	2	2	1	C	2	1	765	1	Ⴥ	cut_j.wav
2	4	4	4	2	I	1	0	795	0	Ⴇ	cut_n.wav
2	5	1	2	0	C	1	1	982	1	Ⴂ	cut_j.wav
2	6	2	1	0	C	1	1	1131	1	Ⴥ	cut_ei.wav
2	7	3	3	2	I	2	0	879	1	Ⴡ	cut_ui.wav
2	8	4	3	2	I	1	0	782	0	Ⴇ	cut_ui.wav
2	9	2	1	0	C	2	0	715	0	Ⴥ	cut_ei.wav
2	10	1	2	0	C	2	0	702	0	Ⴂ	cut_j.wav
2	11	3	3	2	I	2	0	634	1	Ⴡ	cut_ui.wav
2	12	4	4	2	I	2	0	804	0	Ⴇ	cut_n.wav
2	13	2	2	1	C	2	1	632	1	Ⴥ	cut_j.wav
2	14	3	4	2	I	1	0	860	0	Ⴡ	cut_n.wav
2	15	1	1	1	C	1	0	1066	0	Ⴂ	cut_ei.wav
2	16	4	3	2	I	1	0	807	1	Ⴇ	cut_ui.wav
2	17	1	1	1	C	1	0	830	0	Ⴂ	cut_ei.wav
2	18	2	1	0	C	1	1	813	1	Ⴥ	cut_ei.wav
2	19	4	4	2	I	2	0	877	0	Ⴇ	cut_n.wav
2	20	3	4	2	I	1	0	962	1	Ⴡ	cut_n.wav
2	21	1	2	0	C	1	1	858	1	Ⴂ	cut_j.wav
2	22	2	2	1	C	2	1	356	1	Ⴥ	cut_j.wav
2	23	4	3	2	I	1	0	567	0	Ⴇ	cut_ui.wav
2	24	3	3	2	I	2	0	524	0	Ⴡ	cut_ui.wav
2	25	2	1	0	C	1	1	697	1	Ⴥ	cut_ei.wav
2	26	4	3	2	I	1	0	717	0	Ⴇ	cut_ui.wav
2	27	1	2	0	C	1	1	726	1	Ⴂ	cut_j.wav
2	28	3	4	2	I	1	0	801	0	Ⴡ	cut_n.wav
2	29	1	1	1	C	1	0	728	0	Ⴂ	cut_ei.wav
2	30	4	4	2	I	2	0	674	1	Ⴇ	cut_n.wav
2	31	2	2	1	C	2	1	462	1	Ⴥ	cut_j.wav
2	32	3	3	2	I	2	0	649	0	Ⴡ	cut_ui.wav
2	33	4	4	2	I	2	0	653	1	Ⴇ	cut_n.wav
2	34	3	3	2	I	2	0	639	0	Ⴡ	cut_ui.wav
2	35	1	2	0	C	1	1	687	1	Ⴂ	cut_j.wav
2	36	2	1	0	C	1	1	708	1	Ⴥ	cut_ei.wav
2	37	4	3	2	I	1	0	968	1	Ⴇ	cut_ui.wav
2	38	3	4	2	I	1	0	982	0	Ⴡ	cut_n.wav
2	39	1	1	1	C	1	0	669	0	Ⴂ	cut_ei.wav
2	40	2	2	1	C	2	1	541	1	Ⴥ	cut_j.wav
2	41	4	3	2	I	2	0	791	0	Ⴇ	cut_ui.wav
2	42	1	1	1	C	2	1	677	1	Ⴂ	cut_ei.wav
2	43	2	2	1	C	2	1	534	1	Ⴥ	cut_j.wav
2	44	3	3	2	I	2	0	602	0	Ⴡ	cut_ui.wav
2	45	4	4	2	I	2	0	626	0	Ⴇ	cut_n.wav
2	46	3	4	2	I	2	0	655	1	Ⴡ	cut_n.wav
2	47	2	1	0	C	1	1	667	1	Ⴥ	cut_ei.wav
2	48	1	2	0	C	1	1	734	1	Ⴂ	cut_j.wav
2	49	4	4	2	I	2	0	711	0	Ⴇ	cut_n.wav
2	50	2	1	0	C	1	1	811	1	Ⴥ	cut_ei.wav
2	51	1	2	0	C	1	1	641	1	Ⴂ	cut_j.wav
2	52	3	3	2	I	2	0	605	0	Ⴡ	cut_ui.wav
2	53	2	2	1	C	2	1	416	1	Ⴥ	cut_j.wav
2	54	1	1	1	C	2	1	910	1	Ⴂ	cut_ei.wav
2	55	4	3	2	I	2	0	930	1	Ⴇ	cut_ui.wav
2	56	3	4	2	I	2	0	674	0	Ⴡ	cut_n.wav
2	57	4	3	2	I	2	0	567	0	Ⴇ	cut_ui.wav
2	58	2	1	0	C	1	1	586	1	Ⴥ	cut_ei.wav
2	59	1	2	0	C	1	1	649	1	Ⴂ	cut_j.wav
2	60	3	3	2	I	2	0	794	1	Ⴡ	cut_ui.wav
2	61	2	2	1	C	2	1	558	1	Ⴥ	cut_j.wav
2	62	4	4	2	I	2	0	653	1	Ⴇ	cut_n.wav
2	63	3	4	2	I	1	0	798	0	Ⴡ	cut_n.wav
2	64	1	1	1	C	1	0	729	0	Ⴂ	cut_ei.wav
2	65	3	3	2	I	2	0	633	0	Ⴡ	cut_ui.wav
2	66	4	3	2	I	2	0	855	0	Ⴇ	cut_ui.wav
2	67	2	2	1	C	2	1	613	1	Ⴥ	cut_j.wav
2	68	1	1	1	C	2	1	733	1	Ⴂ	cut_ei.wav
2	69	3	4	2	I	2	0	681	1	Ⴡ	cut_n.wav
2	70	4	4	2	I	2	0	590	0	Ⴇ	cut_n.wav
2	71	1	2	0	C	1	1	910	1	Ⴂ	cut_j.wav
2	72	2	1	0	C	1	1	682	1	Ⴥ	cut_ei.wav
2	73	3	4	2	I	2	0	676	1	Ⴡ	cut_n.wav
2	74	4	4	2	I	2	0	677	1	Ⴇ	cut_n.wav
2	75	2	1	0	C	1	1	686	1	Ⴥ	cut_ei.wav
2	76	1	2	0	C	1	1	709	1	Ⴂ	cut_j.wav
2	77	2	2	1	C	2	1	630	1	Ⴥ	cut_j.wav
2	78	3	3	2	I	2	0	841	0	Ⴡ	cut_ui.wav
2	79	4	3	2	I	1	0	839	1	Ⴇ	cut_ui.wav
2	80	1	1	1	C	2	1	926	1	Ⴂ	cut_ei.wav
2	81	4	4	2	I	2	0	674	0	Ⴇ	cut_n.wav
2	82	3	4	2	I	2	0	504	0	Ⴡ	cut_n.wav
2	83	2	2	1	C	2	1	509	1	Ⴥ	cut_j.wav
2	84	1	1	1	C	2	1	656	1	Ⴂ	cut_ei.wav
2	85	3	3	2	I	1	0	1029	0	Ⴡ	cut_ui.wav
2	86	4	3	2	I	1	0	787	1	Ⴇ	cut_ui.wav
2	87	1	2	0	C	1	1	970	1	Ⴂ	cut_j.wav
2	88	2	1	0	C	1	1	651	1	Ⴥ	cut_ei.wav
2	89	1	2	0	C	1	1	786	1	Ⴂ	cut_j.wav
2	90	2	2	1	C	2	1	501	1	Ⴥ	cut_j.wav
2	91	4	3	2	I	1	0	759	1	Ⴇ	cut_ui.wav
2	92	3	3	2	I	2	0	713	1	Ⴡ	cut_ui.wav
2	93	4	4	2	I	2	0	691	1	Ⴇ	cut_n.wav
2	94	2	1	0	C	1	1	794	1	Ⴥ	cut_ei.wav
2	95	1	1	1	C	2	1	775	1	Ⴂ	cut_ei.wav
2	96	3	4	2	I	2	0	698	1	Ⴡ	cut_n.wav
2	97	4	3	2	I	1	0	707	1	Ⴇ	cut_ui.wav
2	98	3	3	2	I	2	0	759	1	Ⴡ	cut_ui.wav
2	99	1	2	0	C	1	1	729	1	Ⴂ	cut_j.wav
2	100	2	2	1	C	2	1	534	1	Ⴥ	cut_j.wav
2	101	1	1	1	C	2	1	609	1	Ⴂ	cut_ei.wav
2	102	3	4	2	I	1	0	673	1	Ⴡ	cut_n.wav
2	103	4	4	2	I	2	0	718	1	Ⴇ	cut_n.wav
2	104	2	1	0	C	1	1	591	1	Ⴥ	cut_ei.wav
2	105	4	3	2	I	1	0	613	1	Ⴇ	cut_ui.wav
2	106	1	2	0	C	1	1	796	1	Ⴂ	cut_j.wav
2	107	2	2	1	C	2	1	555	1	Ⴥ	cut_j.wav
2	108	3	4	2	I	1	0	722	0	Ⴡ	cut_n.wav
2	109	1	1	1	C	2	1	898	1	Ⴂ	cut_ei.wav
2	110	2	1	0	C	1	1	617	1	Ⴥ	cut_ei.wav
2	111	3	3	2	I	1	0	830	1	Ⴡ	cut_ui.wav
2	112	4	4	2	I	2	0	684	0	Ⴇ	cut_n.wav
2	113	1	1	1	C	2	1	642	1	Ⴂ	cut_ei.wav
2	114	4	4	2	I	2	0	673	0	Ⴇ	cut_n.wav
2	115	2	2	1	C	2	1	581	1	Ⴥ	cut_j.wav
2	116	3	3	2	I	2	0	866	1	Ⴡ	cut_ui.wav
2	117	2	1	0	C	1	1	672	1	Ⴥ	cut_ei.wav
2	118	1	2	0	C	1	1	621	1	Ⴂ	cut_j.wav
2	119	3	4	2	I	1	0	1123	0	Ⴡ	cut_n.wav
2	120	4	3	2	I	1	0	700	1	Ⴇ	cut_ui.wav
2	121	2	2	1	C	2	1	428	1	Ⴥ	cut_j.wav
2	122	3	3	2	I	2	0	737	0	Ⴡ	cut_ui.wav
2	123	4	3	2	I	1	0	702	0	Ⴇ	cut_ui.wav
2	124	1	2	0	C	1	1	517	1	Ⴂ	cut_j.wav
2	125	2	1	0	C	1	1	577	1	Ⴥ	cut_ei.wav
2	126	3	4	2	I	1	0	1209	1	Ⴡ	cut_n.wav
2	127	4	4	2	I	2	0	713	1	Ⴇ	cut_n.wav
2	128	1	1	1	C	2	1	684	1	Ⴂ	cut_ei.wav
2	129	4	3	2	I	1	0	692	1	Ⴇ	cut_ui.wav
2	130	1	1	1	C	2	1	678	1	Ⴂ	cut_ei.wav
2	131	2	1	0	C	1	1	625	1	Ⴥ	cut_ei.wav
2	132	3	3	2	I	2	0	833	1	Ⴡ	cut_ui.wav
2	133	4	4	2	I	2	0	563	0	Ⴇ	cut_n.wav
2	134	2	2	1	C	2	1	521	1	Ⴥ	cut_j.wav
2	135	3	4	2	I	2	0	706	1	Ⴡ	cut_n.wav
2	136	1	2	0	C	1	1	615	1	Ⴂ	cut_j.wav
2	137	4	3	2	I	1	0	602	1	Ⴇ	cut_ui.wav
2	138	2	1	0	C	1	1	570	1	Ⴥ	cut_ei.wav
2	139	1	2	0	C	1	1	731	1	Ⴂ	cut_j.wav
2	140	3	4	2	I	2	0	696	1	Ⴡ	cut_n.wav
2	141	2	2	1	C	2	1	603	1	Ⴥ	cut_j.wav
2	142	4	4	2	I	2	0	613	1	Ⴇ	cut_n.wav
2	143	1	1	1	C	2	1	685	1	Ⴂ	cut_ei.wav
2	144	3	3	2	I	2	0	648	1	Ⴡ	cut_ui.wav
2	145	1	2	0	C	1	1	782	1	Ⴂ	cut_j.wav
2	146	3	3	2	I	2	0	607	0	Ⴡ	cut_ui.wav
2	147	2	2	1	C	2	1	548	1	Ⴥ	cut_j.wav
2	148	4	3	2	I	1	0	943	1	Ⴇ	cut_ui.wav
2	149	2	1	0	C	1	1	667	1	Ⴥ	cut_ei.wav
2	150	3	4	2	I	2	0	821	0	Ⴡ	cut_n.wav
2	151	4	4	2	I	2	0	537	0	Ⴇ	cut_n.wav
2	152	1	1	1	C	2	1	682	1	Ⴂ	cut_ei.wav
2	153	2	2	1	C	2	1	580	1	Ⴥ	cut_j.wav
2	154	4	4	2	I	2	0	592	1	Ⴇ	cut_n.wav
2	155	1	2	0	C	1	1	750	1	Ⴂ	cut_j.wav
2	156	3	3	2	I	2	0	700	1	Ⴡ	cut_ui.wav
2	157	1	1	1	C	2	1	831	1	Ⴂ	cut_ei.wav
2	158	2	1	0	C	1	1	557	1	Ⴥ	cut_ei.wav
2	159	4	3	2	I	1	0	670	0	Ⴇ	cut_ui.wav
2	160	3	4	2	I	2	0	582	1	Ⴡ	cut_n.wav
2	161	1	2	0	C	1	1	650	1	Ⴂ	cut_j.wav
2	162	4	3	2	I	1	0	727	1	Ⴇ	cut_ui.wav
2	163	2	1	0	C	1	1	628	1	Ⴥ	cut_ei.wav
2	164	3	4	2	I	1	0	878	0	Ⴡ	cut_n.wav
2	165	4	4	2	I	2	0	520	0	Ⴇ	cut_n.wav
2	166	2	2	1	C	2	1	604	1	Ⴥ	cut_j.wav
2	167	1	1	1	C	2	1	616	1	Ⴂ	cut_ei.wav
2	168	3	3	2	I	2	0	682	0	Ⴡ	cut_ui.wav
2	169	2	2	1	C	2	1	562	1	Ⴥ	cut_j.wav
2	170	4	3	2	I	2	0	771	0	Ⴇ	cut_ui.wav
2	171	1	2	0	C	1	1	742	1	Ⴂ	cut_j.wav
2	172	3	4	2	I	1	0	978	1	Ⴡ	cut_n.wav
2	173	4	4	2	I	2	0	623	0	Ⴇ	cut_n.wav
2	174	1	1	1	C	2	1	652	1	Ⴂ	cut_ei.wav
2	175	2	1	0	C	1	1	700	1	Ⴥ	cut_ei.wav
2	176	3	3	2	I	1	0	817	0	Ⴡ	cut_ui.wav
2	177	4	3	2	I	1	0	939	1	Ⴇ	cut_ui.wav
2	178	3	4	2	I	1	0	679	0	Ⴡ	cut_n.wav
2	179	1	2	0	C	1	1	702	1	Ⴂ	cut_j.wav
2	180	2	1	0	C	1	1	592	1	Ⴥ	cut_ei.wav
2	181	3	3	2	I	2	0	840	0	Ⴡ	cut_ui.wav
2	182	1	1	1	C	2	1	732	1	Ⴂ	cut_ei.wav
2	183	2	2	1	C	2	1	543	1	Ⴥ	cut_j.wav
2	184	4	4	2	I	2	0	817	0	Ⴇ	cut_n.wav
2	185	1	1	1	C	2	1	992	1	Ⴂ	cut_ei.wav
2	186	4	3	2	I	1	0	758	0	Ⴇ	cut_ui.wav
2	187	3	3	2	I	1	0	821	1	Ⴡ	cut_ui.wav
2	188	2	2	1	C	2	1	596	1	Ⴥ	cut_j.wav
2	189	4	4	2	I	2	0	764	1	Ⴇ	cut_n.wav
2	190	2	1	0	C	1	1	752	1	Ⴥ	cut_ei.wav
2	191	1	2	0	C	1	1	810	1	Ⴂ	cut_j.wav
2	192	3	4	2	I	2	0	655	1	Ⴡ	cut_n.wav
2	193	1	2	0	C	1	1	676	1	Ⴂ	cut_j.wav
2	194	4	4	2	I	2	0	670	1	Ⴇ	cut_n.wav
2	195	2	1	0	C	1	1	726	1	Ⴥ	cut_ei.wav
2	196	3	4	2	I	2	0	572	0	Ⴡ	cut_n.wav
2	197	4	3	2	I	1	0	731	0	Ⴇ	cut_ui.wav
2	198	1	1	1	C	2	1	934	1	Ⴂ	cut_ei.wav
2	199	3	3	2	I	1	0	876	1	Ⴡ	cut_ui.wav
2	200	2	2	1	C	2	1	450	1	Ⴥ	cut_j.wav
3	1	3	4	2	I	2	0	883	1	Ⴃ	cut_o.wav
3	2	2	2	1	C	2	1	807	1	Ⴜ	cut_a.wav
3	3	4	4	2	I	1	0	742	0	Ⴟ	cut_o.wav
3	4	1	2	0	C	1	1	792	1	Ⴋ	cut_a.wav
3	5	4	3	2	I	2	0	762	1	Ⴟ	cut_u.wav
3	6	1	1	1	C	2	1	741	1	Ⴋ	cut_k.wav
3	7	2	1	0	C	1	1	893	1	Ⴜ	cut_k.wav
3	8	3	3	2	I	1	0	583	0	Ⴃ	cut_u.wav
3	9	4	3	2	I	2	0	1079	1	Ⴟ	cut_u.wav
3	10	3	3	2	I	2	0	526	0	Ⴃ	cut_u.wav
3	11	1	1	1	C	2	1	668	1	Ⴋ	cut_k.wav
3	12	2	1	0	C	1	1	850	1	Ⴜ	cut_k.wav
3	13	1	2	0	C	1	1	917	1	Ⴋ	cut_a.wav
3	14	2	2	1	C	1	0	791	0	Ⴜ	cut_a.wav
3	15	3	4	2	I	2	0	438	1	Ⴃ	cut_o.wav
3	16	4	4	2	I	1	0	706	1	Ⴟ	cut_o.wav
3	17	3	3	2	I	2	0	726	0	Ⴃ	cut_u.wav
3	18	4	3	2	I	1	0	442	0	Ⴟ	cut_u.wav
3	19	1	1	1	C	2	1	754	1	Ⴋ	cut_k.wav
3	20	2	1	0	C	1	1	681	1	Ⴜ	cut_k.wav
3	21	1	2	0	C	1	1	937	1	Ⴋ	cut_a.wav
3	22	4	4	2	I	1	0	1004	0	Ⴟ	cut_o.wav
3	23	3	4	2	I	2	0	516	0	Ⴃ	cut_o.wav
3	24	2	2	1	C	2	1	811	1	Ⴜ	cut_a.wav
3	25	1	2	0	C	1	1	777	1	Ⴋ	cut_a.wav
3	26	2	2	1	C	2	1	693	1	Ⴜ	cut_a.wav
3	27	4	3	2	I	2	0	679	1	Ⴟ	cut_u.wav
3	28	3	4	2	I	2	0	684	1	Ⴃ	cut_o.wav
3	29	4	4	2	I	2	0	715	0	Ⴟ	cut_o.wav
3	30	1	1	1	C	2	1	952	1	Ⴋ	cut_k.wav
3	31	3	3	2	I	2	0	864	1	Ⴃ	cut_u.wav
3	32	2	1	0	C	1	1	791	1	Ⴜ	cut_k.wav
3	33	3	3	2	I	2	0	856	0	Ⴃ	cut_u.wav
3	34	4	4	2	I	1	0	778	1	Ⴟ	cut_o.wav
3	35	2	1	0	C	1	1	856	1	Ⴜ	cut_k.wav
3	36	1	1	1	C	2	1	827	1	Ⴋ	cut_k.wav
3	37	2	2	1	C	2	1	820	1	Ⴜ	cut_a.wav
3	38	3	4	2	I	2	0	770	0	Ⴃ	cut_o.wav
3	39	4	3	2	I	2	0	671	1	Ⴟ	cut_u.wav
3	40	1	2	0	C	1	1	694	1	Ⴋ	cut_a.wav
3	41	4	4	2	I	1	0	794	0	Ⴟ	cut_o.wav
3	42	2	1	0	C	1	1	666	1	Ⴜ	cut_k.wav
3	43	3	3	2	I	2	0	744	1	Ⴃ	cut_u.wav
3	44	1	1	1	C	2	1	637	1	Ⴋ	cut_k.wav
3	45	4	3	2	I	2	0	425	0	Ⴟ	cut_u.wav
3	46	2	2	1	C	2	1	609	1	Ⴜ	cut_a.wav
3	47	3	4	2	I	1	0	1120	1	Ⴃ	cut_o.wav
3	48	1	2	0	C	1	1	786	1	Ⴋ	cut_a.wav
3	49	2	2	1	C	2	1	708	1	Ⴜ	cut_a.wav
3	50	3	4	2	I	2	0	866	0	Ⴃ	cut_o.wav
3	51	4	4	2	I	1	0	1002	0	Ⴟ	cut_o.wav
3	52	1	2	0	C	1	1	757	1	Ⴋ	cut_a.wav
3	53	2	1	0	C	1	1	934	1	Ⴜ	cut_k.wav
3	54	1	1	1	C	2	1	607	1	Ⴋ	cut_k.wav
3	55	3	3	2	I	2	0	966	0	Ⴃ	cut_u.wav
3	56	4	3	2	I	2	0	637	1	Ⴟ	cut_u.wav
3	57	2	2	1	C	2	1	666	1	Ⴜ	cut_a.wav
3	58	3	3	2	I	2	0	728	0	Ⴃ	cut_u.wav
3	59	1	2	0	C	1	1	748	1	Ⴋ	cut_a.wav
3	60	4	3	2	I	1	0	1154	1	Ⴟ	cut_u.wav
3	61	3	4	2	I	2	0	721	1	Ⴃ	cut_o.wav
3	62	4	4	2	I	1	0	743	0	Ⴟ	cut_o.wav
3	63	2	1	0	C	1	1	664	1	Ⴜ	cut_k.wav
3	64	1	1	1	C	1	0	785	0	Ⴋ	cut_k.wav
3	65	3	4	2	I	2	0	559	1	Ⴃ	cut_o.wav
3	66	1	1	1	C	2	1	594	1	Ⴋ	cut_k.wav
3	67	2	2	1	C	2	1	635	1	Ⴜ	cut_a.wav
3	68	4	4	2	I	1	0	546	0	Ⴟ	cut_o.wav
3	69	3	3	2	I	1	0	934	1	Ⴃ	cut_u.wav
3	70	2	1	0	C	1	1	797	1	Ⴜ	cut_k.wav
3	71	1	2	0	C	1	1	701	1	Ⴋ	cut_a.wav
3	72	4	3	2	I	2	0	867	0	Ⴟ	cut_u.wav
3	73	2	1	0	C	1	1	756	1	Ⴜ	cut_k.wav
3	74	3	4	2	I	2	0	583	1	Ⴃ	cut_o.wav
3	75	4	4	2	I	2	0	711	0	Ⴟ	cut_o.wav
3	76	1	1	1	C	2	1	591	1	Ⴋ	cut_k.wav
3	77	2	2	1	C	2	1	619	1	Ⴜ	cut_a.wav
3	78	4	3	2	I	2	0	931	0	Ⴟ	cut_u.wav
3	79	3	3	2	I	1	0	653	0	Ⴃ	cut_u.wav
3	80	1	2	0	C	1	1	993	1	Ⴋ	cut_a.wav
3	81	2	1	0	C	1	1	699	1	Ⴜ	cut_k.wav
3	82	4	4	2	I	1	0	836	0	Ⴟ	cut_o.wav
3	83	3	3	2	I	1	0	572	1	Ⴃ	cut_u.wav
3	84	1	2	0	C	1	1	818	1	Ⴋ	cut_a.wav
3	85	4	3	2	I	1	0	1227	1	Ⴟ	cut_u.wav
3	86	3	4	2	I	2	0	529	1	Ⴃ	cut_o.wav
3	87	2	2	1	C	2	1	511	1	Ⴜ	cut_a.wav
3	88	1	1	1	C	2	1	475	1	Ⴋ	cut_k.wav
3	89	3	4	2	I	2	0	643	0	Ⴃ	cut_o.wav
3	90	1	2	0	C	1	1	763	1	Ⴋ	cut_a.wav
3	91	2	2	1	C	2	1	657	1	Ⴜ	cut_a.wav
3	92	4	3	2	I	2	0	761	0	Ⴟ	cut_u.wav
3	93	1	1	1	C	2	1	712	1	Ⴋ	cut_k.wav
3	94	3	3	2	I	1	0	1051	0	Ⴃ	cut_u.wav
3	95	4	4	2	I	1	0	963	1	Ⴟ	cut_o.wav
3	96	2	1	0	C	1	1	589	1	Ⴜ	cut_k.wav
3	97	3	4	2	I	2	0	704	0	Ⴃ	cut_o.wav
3	98	2	1	0	C	1	1	811	1	Ⴜ	cut_k.wav
3	99	1	2	0	C	1	1	763	1	Ⴋ	cut_a.wav
3	100	4	4	2	I	1	0	826	0	Ⴟ	cut_o.wav
3	101	1	1	1	C	2	1	811	1	Ⴋ	cut_k.wav
3	102	2	2	1	C	2	1	757	1	Ⴜ	cut_a.wav
3	103	4	3	2	I	1	0	1055	0	Ⴟ	cut_u.wav
3	104	3	3	2	I	1	0	905	1	Ⴃ	cut_u.wav
3	105	2	2	1	C	2	1	680	1	Ⴜ	cut_a.wav
3	106	1	1	1	C	2	1	783	1	Ⴋ	cut_k.wav
3	107	4	4	2	I	1	0	951	0	Ⴟ	cut_o.wav
3	108	3	4	2	I	2	0	490	0	Ⴃ	cut_o.wav
3	109	1	2	0	C	1	1	832	1	Ⴋ	cut_a.wav
3	110	4	3	2	I	1	0	897	1	Ⴟ	cut_u.wav
3	111	2	1	0	C	1	1	770	1	Ⴜ	cut_k.wav
3	112	3	3	2	I	2	0	905	0	Ⴃ	cut_u.wav
3	113	1	2	0	C	1	1	986	1	Ⴋ	cut_a.wav
3	114	4	4	2	I	1	0	768	1	Ⴟ	cut_o.wav
3	115	3	3	2	I	1	0	662	0	Ⴃ	cut_u.wav
3	116	2	2	1	C	2	1	680	1	Ⴜ	cut_a.wav
3	117	4	3	2	I	1	0	837	1	Ⴟ	cut_u.wav
3	118	3	4	2	I	2	0	680	1	Ⴃ	cut_o.wav
3	119	1	1	1	C	1	0	692	0	Ⴋ	cut_k.wav
3	120	2	1	0	C	1	1	628	1	Ⴜ	cut_k.wav
3	121	3	3	2	I	1	0	1068	0	Ⴃ	cut_u.wav
3	122	4	4	2	I	1	0	627	0	Ⴟ	cut_o.wav
3	123	1	2	0	C	1	1	688	1	Ⴋ	cut_a.wav
3	124	2	2	1	C	2	1	626	1	Ⴜ	cut_a.wav
3	125	3	4	2	I	2	0	627	1	Ⴃ	cut_o.wav
3	126	1	1	1	C	2	1	775	1	Ⴋ	cut_k.wav
3	127	4	3	2	I	2	0	819	1	Ⴟ	cut_u.wav
3	128	2	1	0	C	1	1	684	1	Ⴜ	cut_k.wav
3	129	4	3	2	I	2	0	789	1	Ⴟ	cut_u.wav
3	130	3	3	2	I	1	0	606	0	Ⴃ	cut_u.wav
3	131	2	1	0	C	1	1	716	1	Ⴜ	cut_k.wav
3	132	1	1	1	C	2	1	785	1	Ⴋ	cut_k.wav
3	133	4	4	2	I	1	0	1141	0	Ⴟ	cut_o.wav
3	134	2	2	1	C	2	1	737	1	Ⴜ	cut_a.wav
3	135	3	4	2	I	2	0	544	0	Ⴃ	cut_o.wav
3	136	1	2	0	C	1	1	816	1	Ⴋ	cut_a.wav
3	137	4	3	2	I	1	0	928	0	Ⴟ	cut_u.wav
3	138	3	3	2	I	1	0	831	1	Ⴃ	cut_u.wav
3	139	1	2	0	C	1	1	714	1	Ⴋ	cut_a.wav
3	140	2	2	1	C	2	1	629	1	Ⴜ	cut_a.wav
3	141	1	1	1	C	2	1	1446	1	Ⴋ	cut_k.wav
3	142	2	1	0	C	1	1	754	1	Ⴜ	cut_k.wav
3	143	4	4	2	I	2	0	1256	0	Ⴟ	cut_o.wav
3	144	3	4	2	I	2	0	432	1	Ⴃ	cut_o.wav
3	145	4	3	2	I	1	0	877	1	Ⴟ	cut_u.wav
3	146	2	1	0	C	1	1	805	1	Ⴜ	cut_k.wav
3	147	3	4	2	I	2	0	535	1	Ⴃ	cut_o.wav
3	148	1	1	1	C	2	1	585	1	Ⴋ	cut_k.wav
3	149	4	4	2	I	1	0	1040	1	Ⴟ	cut_o.wav
3	150	3	3	2	I	1	0	759	0	Ⴃ	cut_u.wav
3	151	1	2	0	C	1	1	694	1	Ⴋ	cut_a.wav
3	152	2	2	1	C	2	1	635	1	Ⴜ	cut_a.wav
3	153	3	4	2	I	2	0	697	1	Ⴃ	cut_o.wav
3	154	2	1	0	C	1	1	736	1	Ⴜ	cut_k.wav
3	155	1	1	1	C	2	1	756	1	Ⴋ	cut_k.wav
3	156	4	4	2	I	1	0	1019	1	Ⴟ	cut_o.wav
3	157	2	2	1	C	2	1	709	1	Ⴜ	cut_a.wav
3	158	4	3	2	I	1	0	977	0	Ⴟ	cut_u.wav
3	159	1	2	0	C	1	1	798	1	Ⴋ	cut_a.wav
3	160	3	3	2	I	2	0	726	0	Ⴃ	cut_u.wav
3	161	2	2	1	C	2	1	646	1	Ⴜ	cut_a.wav
3	162	3	3	2	I	1	0	786	0	Ⴃ	cut_u.wav
3	163	1	2	0	C	1	1	771	1	Ⴋ	cut_a.wav
3	164	4	3	2	I	2	0	975	1	Ⴟ	cut_u.wav
3	165	3	4	2	I	2	0	421	1	Ⴃ	cut_o.wav
3	166	2	1	0	C	1	1	630	1	Ⴜ	cut_k.wav
3	167	4	4	2	I	1	0	904	1	Ⴟ	cut_o.wav
3	168	1	1	1	C	2	1	694	1	Ⴋ	cut_k.wav
3	169	2	2	1	C	2	1	611	1	Ⴜ	cut_a.wav
3	170	1	2	0	C	1	1	807	1	Ⴋ	cut_a.wav
3	171	4	3	2	I	1	0	1221	0	Ⴟ	cut_u.wav
3	172	3	4	2	I	2	0	775	1	Ⴃ	cut_o.wav
3	173	1	1	1	C	2	1	735	1	Ⴋ	cut_k.wav
3	174	4	4	2	I	1	0	1120	1	Ⴟ	cut_o.wav
3	175	3	3	2	I	1	0	815	0	Ⴃ	cut_u.wav
3	176	2	1	0	C	1	1	952	1	Ⴜ	cut_k.wav
3	177	4	3	2	I	2	0	800	1	Ⴟ	cut_u.wav
3	178	3	4	2	I	2	0	472	0	Ⴃ	cut_o.wav
3	179	2	2	1	C	2	1	672	1	Ⴜ	cut_a.wav
3	180	1	2	0	C	1	1	618	1	Ⴋ	cut_a.wav
3	181	4	4	2	I	1	0	798	1	Ⴟ	cut_o.wav
3	182	2	1	0	C	1	1	723	1	Ⴜ	cut_k.wav
3	183	1	1	1	C	2	1	539	1	Ⴋ	cut_k.wav
3	184	3	3	2	I	1	0	905	1	Ⴃ	cut_u.wav
3	185	4	4	2	I	2	0	924	0	Ⴟ	cut_o.wav
3	186	2	1	0	C	1	1	912	1	Ⴜ	cut_k.wav
3	187	1	2	0	C	1	1	730	1	Ⴋ	cut_a.wav
3	188	3	4	2	I	2	0	565	1	Ⴃ	cut_o.wav
3	189	4	3	2	I	2	0	833	0	Ⴟ	cut_u.wav
3	190	2	2	1	C	2	1	685	1	Ⴜ	cut_a.wav
3	191	3	3	2	I	1	0	853	0	Ⴃ	cut_u.wav
3	192	1	1	1	C	2	1	653	1	Ⴋ	cut_k.wav
3	193	2	1	0	C	1	1	818	1	Ⴜ	cut_k.wav
3	194	3	3	2	I	2	0	1057	1	Ⴃ	cut_u.wav
3	195	1	2	0	C	1	1	708	1	Ⴋ	cut_a.wav
3	196	4	4	2	I	1	0	684	1	Ⴟ	cut_o.wav
3	197	2	2	1	C	2	1	782	1	Ⴜ	cut_a.wav
3	198	1	1	1	C	2	1	659	1	Ⴋ	cut_k.wav
3	199	4	3	2	I	2	0	1041	1	Ⴟ	cut_u.wav
3	200	3	4	2	I	2	0	452	1	Ⴃ	cut_o.wav
4	1	3	3	2	I	2	0	1563	1	Ⴖ	cut_ooi.wav
4	2	2	1	0	C	2	0	1574	0	Ⴔ	cut_ieuw.wav
4	3	4	4	2	I	2	0	1311	1	Ⴌ	cut_nk.wav
4	4	1	1	1	C	2	1	1211	1	Ⴕ	cut_ieuw.wav
4	5	2	2	1	C	2	1	1057	1	Ⴔ	cut_eeuw.wav
4	6	1	2	0	C	1	1	793	1	Ⴕ	cut_eeuw.wav
4	7	4	3	2	I	1	0	1294	1	Ⴌ	cut_ooi.wav
4	8	3	4	2	I	1	0	945	0	Ⴖ	cut_nk.wav
4	9	4	4	2	I	2	0	980	0	Ⴌ	cut_nk.wav
4	10	1	1	1	C	2	1	1038	1	Ⴕ	cut_ieuw.wav
4	11	3	3	2	I	2	0	458	1	Ⴖ	cut_ooi.wav
4	12	2	1	0	C	1	1	1117	1	Ⴔ	cut_ieuw.wav
4	13	3	4	2	I	2	0	944	1	Ⴖ	cut_nk.wav
4	14	1	2	0	C	1	1	874	1	Ⴕ	cut_eeuw.wav
4	15	2	2	1	C	2	1	1045	1	Ⴔ	cut_eeuw.wav
4	16	4	3	2	I	1	0	1015	1	Ⴌ	cut_ooi.wav
4	17	1	1	1	C	2	1	759	1	Ⴕ	cut_ieuw.wav
4	18	4	3	2	I	1	0	941	1	Ⴌ	cut_ooi.wav
4	19	2	2	1	C	2	1	790	1	Ⴔ	cut_eeuw.wav
4	20	3	3	2	I	2	0	606	0	Ⴖ	cut_ooi.wav
4	21	2	1	0	C	1	1	1049	1	Ⴔ	cut_ieuw.wav
4	22	1	2	0	C	1	1	958	1	Ⴕ	cut_eeuw.wav
4	23	3	4	2	I	2	0	863	1	Ⴖ	cut_nk.wav
4	24	4	4	2	I	2	0	720	0	Ⴌ	cut_nk.wav
4	25	2	2	1	C	2	1	879	1	Ⴔ	cut_eeuw.wav
4	26	3	3	2	I	2	0	620	0	Ⴖ	cut_ooi.wav
4	27	4	4	2	I	1	0	1173	0	Ⴌ	cut_nk.wav
4	28	1	1	1	C	2	1	784	1	Ⴕ	cut_ieuw.wav
4	29	3	4	2	I	2	0	778	1	Ⴖ	cut_nk.wav
4	30	1	2	0	C	1	1	1037	1	Ⴕ	cut_eeuw.wav
4	31	4	3	2	I	2	0	803	0	Ⴌ	cut_ooi.wav
4	32	2	1	0	C	1	1	809	1	Ⴔ	cut_ieuw.wav
4	33	1	1	1	C	2	1	745	1	Ⴕ	cut_ieuw.wav
4	34	3	3	2	I	2	0	669	1	Ⴖ	cut_ooi.wav
4	35	4	4	2	I	2	0	989	0	Ⴌ	cut_nk.wav
4	36	2	2	1	C	2	1	653	1	Ⴔ	cut_eeuw.wav
4	37	4	3	2	I	2	0	973	0	Ⴌ	cut_ooi.wav
4	38	3	4	2	I	1	0	1036	0	Ⴖ	cut_nk.wav
4	39	1	2	0	C	1	1	775	1	Ⴕ	cut_eeuw.wav
4	40	2	1	0	C	1	1	758	1	Ⴔ	cut_ieuw.wav
4	41	1	1	1	C	2	1	657	1	Ⴕ	cut_ieuw.wav
4	42	4	3	2	I	2	0	731	1	Ⴌ	cut_ooi.wav
4	43	2	2	1	C	2	1	791	1	Ⴔ	cut_eeuw.wav
4	44	3	4	2	I	2	0	950	0	Ⴖ	cut_nk.wav
4	45	4	4	2	I	2	0	1409	1	Ⴌ	cut_nk.wav
4	46	2	1	0	C	1	1	1114	1	Ⴔ	cut_ieuw.wav
4	47	3	3	2	I	2	0	663	1	Ⴖ	cut_ooi.wav
4	48	1	2	0	C	1	1	790	1	Ⴕ	cut_eeuw.wav
4	49	3	3	2	I	2	0	569	1	Ⴖ	cut_ooi.wav
4	50	4	4	2	I	2	0	740	1	Ⴌ	cut_nk.wav
4	51	2	1	0	C	1	1	743	1	Ⴔ	cut_ieuw.wav
4	52	1	1	1	C	2	1	575	1	Ⴕ	cut_ieuw.wav
4	53	3	4	2	I	1	0	839	0	Ⴖ	cut_nk.wav
4	54	1	2	0	C	1	1	785	1	Ⴕ	cut_eeuw.wav
4	55	4	3	2	I	1	0	832	0	Ⴌ	cut_ooi.wav
4	56	2	2	1	C	2	1	1157	1	Ⴔ	cut_eeuw.wav
4	57	1	1	1	C	2	1	577	1	Ⴕ	cut_ieuw.wav
4	58	3	3	2	I	2	0	602	1	Ⴖ	cut_ooi.wav
4	59	2	2	1	C	2	1	861	1	Ⴔ	cut_eeuw.wav
4	60	4	3	2	I	1	0	990	1	Ⴌ	cut_ooi.wav
4	61	2	1	0	C	1	1	712	1	Ⴔ	cut_ieuw.wav
4	62	1	2	0	C	1	1	577	1	Ⴕ	cut_eeuw.wav
4	63	3	4	2	I	1	0	747	1	Ⴖ	cut_nk.wav
4	64	4	4	2	I	2	0	680	1	Ⴌ	cut_nk.wav
4	65	2	2	1	C	2	1	777	1	Ⴔ	cut_eeuw.wav
4	66	1	1	1	C	2	1	538	1	Ⴕ	cut_ieuw.wav
4	67	3	3	2	I	2	0	603	1	Ⴖ	cut_ooi.wav
4	68	4	3	2	I	1	0	649	0	Ⴌ	cut_ooi.wav
4	69	3	4	2	I	1	0	752	1	Ⴖ	cut_nk.wav
4	70	4	4	2	I	2	0	748	1	Ⴌ	cut_nk.wav
4	71	1	2	0	C	1	1	640	1	Ⴕ	cut_eeuw.wav
4	72	2	1	0	C	1	1	593	1	Ⴔ	cut_ieuw.wav
4	73	4	3	2	I	1	0	710	1	Ⴌ	cut_ooi.wav
4	74	3	4	2	I	1	0	652	0	Ⴖ	cut_nk.wav
4	75	2	2	1	C	2	1	802	1	Ⴔ	cut_eeuw.wav
4	76	1	2	0	C	1	1	638	1	Ⴕ	cut_eeuw.wav
4	77	3	3	2	I	2	0	657	1	Ⴖ	cut_ooi.wav
4	78	1	1	1	C	2	1	625	1	Ⴕ	cut_ieuw.wav
4	79	2	1	0	C	1	1	665	1	Ⴔ	cut_ieuw.wav
4	80	4	4	2	I	2	0	762	1	Ⴌ	cut_nk.wav
4	81	1	1	1	C	2	1	645	1	Ⴕ	cut_ieuw.wav
4	82	2	1	0	C	1	1	618	1	Ⴔ	cut_ieuw.wav
4	83	4	3	2	I	1	0	601	0	Ⴌ	cut_ooi.wav
4	84	3	4	2	I	1	0	783	0	Ⴖ	cut_nk.wav
4	85	2	2	1	C	2	1	886	1	Ⴔ	cut_eeuw.wav
4	86	3	3	2	I	2	0	863	0	Ⴖ	cut_ooi.wav
4	87	1	2	0	C	1	1	767	1	Ⴕ	cut_eeuw.wav
4	88	4	4	2	I	2	0	797	0	Ⴌ	cut_nk.wav
4	89	2	1	0	C	1	1	655	1	Ⴔ	cut_ieuw.wav
4	90	1	2	0	C	1	1	911	1	Ⴕ	cut_eeuw.wav
4	91	4	4	2	I	2	0	746	0	Ⴌ	cut_nk.wav
4	92	3	3	2	I	2	0	635	1	Ⴖ	cut_ooi.wav
4	93	1	1	1	C	2	1	587	1	Ⴕ	cut_ieuw.wav
4	94	3	4	2	I	1	0	654	0	Ⴖ	cut_nk.wav
4	95	2	2	1	C	2	1	803	1	Ⴔ	cut_eeuw.wav
4	96	4	3	2	I	1	0	867	0	Ⴌ	cut_ooi.wav
4	97	1	2	0	C	1	1	707	1	Ⴕ	cut_eeuw.wav
4	98	3	4	2	I	1	0	703	1	Ⴖ	cut_nk.wav
4	99	2	1	0	C	1	1	689	1	Ⴔ	cut_ieuw.wav
4	100	4	3	2	I	1	0	684	0	Ⴌ	cut_ooi.wav
4	101	3	3	2	I	2	0	550	0	Ⴖ	cut_ooi.wav
4	102	4	4	2	I	1	0	902	1	Ⴌ	cut_nk.wav
4	103	2	2	1	C	2	1	587	1	Ⴔ	cut_eeuw.wav
4	104	1	1	1	C	2	1	599	1	Ⴕ	cut_ieuw.wav
4	105	4	4	2	I	1	0	1181	0	Ⴌ	cut_nk.wav
4	106	1	1	1	C	2	1	711	1	Ⴕ	cut_ieuw.wav
4	107	3	4	2	I	1	0	819	0	Ⴖ	cut_nk.wav
4	108	2	1	0	C	1	1	747	1	Ⴔ	cut_ieuw.wav
4	109	4	3	2	I	2	0	903	0	Ⴌ	cut_ooi.wav
4	110	2	2	1	C	2	1	734	1	Ⴔ	cut_eeuw.wav
4	111	1	2	0	C	1	1	850	1	Ⴕ	cut_eeuw.wav
4	112	3	3	2	I	2	0	690	0	Ⴖ	cut_ooi.wav
4	113	2	2	1	C	2	1	578	1	Ⴔ	cut_eeuw.wav
4	114	1	2	0	C	1	1	1011	1	Ⴕ	cut_eeuw.wav
4	115	3	4	2	I	2	0	883	1	Ⴖ	cut_nk.wav
4	116	4	3	2	I	2	0	545	0	Ⴌ	cut_ooi.wav
4	117	2	1	0	C	1	1	632	1	Ⴔ	cut_ieuw.wav
4	118	4	4	2	I	1	0	959	1	Ⴌ	cut_nk.wav
4	119	3	3	2	I	1	0	844	1	Ⴖ	cut_ooi.wav
4	120	1	1	1	C	2	1	835	1	Ⴕ	cut_ieuw.wav
4	121	3	4	2	I	2	0	704	0	Ⴖ	cut_nk.wav
4	122	1	2	0	C	1	1	687	1	Ⴕ	cut_eeuw.wav
4	123	2	1	0	C	1	1	777	1	Ⴔ	cut_ieuw.wav
4	124	4	3	2	I	2	0	1051	0	Ⴌ	cut_ooi.wav
4	125	1	1	1	C	2	1	792	1	Ⴕ	cut_ieuw.wav
4	126	4	4	2	I	1	0	1044	1	Ⴌ	cut_nk.wav
4	127	3	3	2	I	1	0	874	1	Ⴖ	cut_ooi.wav
4	128	2	2	1	C	2	1	659	1	Ⴔ	cut_eeuw.wav
4	129	3	4	2	I	1	0	750	1	Ⴖ	cut_nk.wav
4	130	2	1	0	C	1	1	825	1	Ⴔ	cut_ieuw.wav
4	131	1	1	1	C	2	1	599	1	Ⴕ	cut_ieuw.wav
4	132	4	4	2	I	2	0	868	0	Ⴌ	cut_nk.wav
4	133	1	2	0	C	1	1	772	1	Ⴕ	cut_eeuw.wav
4	134	2	2	1	C	2	1	1095	1	Ⴔ	cut_eeuw.wav
4	135	3	3	2	I	2	0	538	0	Ⴖ	cut_ooi.wav
4	136	4	3	2	I	2	0	1042	1	Ⴌ	cut_ooi.wav
4	137	3	3	2	I	1	0	647	0	Ⴖ	cut_ooi.wav
4	138	4	3	2	I	2	0	931	1	Ⴌ	cut_ooi.wav
4	139	2	1	0	C	1	1	599	1	Ⴔ	cut_ieuw.wav
4	140	1	1	1	C	2	1	623	1	Ⴕ	cut_ieuw.wav
4	141	2	2	1	C	2	1	741	1	Ⴔ	cut_eeuw.wav
4	142	4	4	2	I	1	0	930	1	Ⴌ	cut_nk.wav
4	143	1	2	0	C	1	1	765	1	Ⴕ	cut_eeuw.wav
4	144	3	4	2	I	2	0	760	0	Ⴖ	cut_nk.wav
4	145	1	2	0	C	1	1	756	1	Ⴕ	cut_eeuw.wav
4	146	4	3	2	I	2	0	831	0	Ⴌ	cut_ooi.wav
4	147	2	1	0	C	1	1	870	1	Ⴔ	cut_ieuw.wav
4	148	3	3	2	I	2	0	541	1	Ⴖ	cut_ooi.wav
4	149	1	1	1	C	2	1	706	1	Ⴕ	cut_ieuw.wav
4	150	4	4	2	I	2	0	652	1	Ⴌ	cut_nk.wav
4	151	2	2	1	C	2	1	718	1	Ⴔ	cut_eeuw.wav
4	152	3	4	2	I	1	0	754	0	Ⴖ	cut_nk.wav
4	153	2	2	1	C	2	1	716	1	Ⴔ	cut_eeuw.wav
4	154	4	4	2	I	2	0	637	0	Ⴌ	cut_nk.wav
4	155	1	2	0	C	1	1	1073	1	Ⴕ	cut_eeuw.wav
4	156	3	4	2	I	1	0	945	0	Ⴖ	cut_nk.wav
4	157	4	3	2	I	1	0	1080	1	Ⴌ	cut_ooi.wav
4	158	1	1	1	C	2	1	710	1	Ⴕ	cut_ieuw.wav
4	159	2	1	0	C	1	1	737	1	Ⴔ	cut_ieuw.wav
4	160	3	3	2	I	2	0	687	1	Ⴖ	cut_ooi.wav
4	161	2	2	1	C	2	1	728	1	Ⴔ	cut_eeuw.wav
4	162	3	3	2	I	2	0	580	0	Ⴖ	cut_ooi.wav
4	163	4	3	2	I	1	0	891	0	Ⴌ	cut_ooi.wav
4	164	1	2	0	C	1	1	875	1	Ⴕ	cut_eeuw.wav
4	165	2	1	0	C	1	1	683	1	Ⴔ	cut_ieuw.wav
4	166	4	4	2	I	2	0	853	0	Ⴌ	cut_nk.wav
4	167	3	4	2	I	2	0	578	1	Ⴖ	cut_nk.wav
4	168	1	1	1	C	2	1	714	1	Ⴕ	cut_ieuw.wav
4	169	4	4	2	I	2	0	880	1	Ⴌ	cut_nk.wav
4	170	2	2	1	C	2	1	640	1	Ⴔ	cut_eeuw.wav
4	171	1	1	1	C	2	1	649	1	Ⴕ	cut_ieuw.wav
4	172	3	4	2	I	1	0	763	0	Ⴖ	cut_nk.wav
4	173	2	1	0	C	1	1	768	1	Ⴔ	cut_ieuw.wav
4	174	3	3	2	I	2	0	519	1	Ⴖ	cut_ooi.wav
4	175	4	3	2	I	1	0	636	1	Ⴌ	cut_ooi.wav
4	176	1	2	0	C	1	1	848	1	Ⴕ	cut_eeuw.wav
4	177	4	4	2	I	2	0	780	1	Ⴌ	cut_nk.wav
4	178	3	3	2	I	2	0	462	0	Ⴖ	cut_ooi.wav
4	179	2	1	0	C	1	1	793	1	Ⴔ	cut_ieuw.wav
4	180	1	1	1	C	2	1	679	1	Ⴕ	cut_ieuw.wav
4	181	3	4	2	I	1	0	1060	1	Ⴖ	cut_nk.wav
4	182	2	2	1	C	2	1	972	1	Ⴔ	cut_eeuw.wav
4	183	4	3	2	I	1	0	861	1	Ⴌ	cut_ooi.wav
4	184	1	2	0	C	1	1	765	1	Ⴕ	cut_eeuw.wav
4	185	2	2	1	C	2	1	663	1	Ⴔ	cut_eeuw.wav
4	186	1	1	1	C	2	1	567	1	Ⴕ	cut_ieuw.wav
4	187	3	4	2	I	1	0	711	0	Ⴖ	cut_nk.wav
4	188	4	4	2	I	2	0	691	0	Ⴌ	cut_nk.wav
4	189	3	3	2	I	2	0	694	0	Ⴖ	cut_ooi.wav
4	190	2	1	0	C	1	1	858	1	Ⴔ	cut_ieuw.wav
4	191	4	3	2	I	1	0	1077	1	Ⴌ	cut_ooi.wav
4	192	1	2	0	C	1	1	839	1	Ⴕ	cut_eeuw.wav
4	193	4	3	2	I	1	0	960	0	Ⴌ	cut_ooi.wav
4	194	2	2	1	C	2	1	815	1	Ⴔ	cut_eeuw.wav
4	195	1	2	0	C	1	1	838	1	Ⴕ	cut_eeuw.wav
4	196	3	3	2	I	2	0	670	0	Ⴖ	cut_ooi.wav
4	197	1	1	1	C	2	1	671	1	Ⴕ	cut_ieuw.wav
4	198	4	4	2	I	2	0	710	0	Ⴌ	cut_nk.wav
4	199	2	1	0	C	1	1	668	1	Ⴔ	cut_ieuw.wav
4	200	3	4	2	I	1	0	875	1	Ⴖ	cut_nk.wav
