block	trial	Vstim	Astim	match	C/I	resp	.result	RT	fb	V-file	A-file
LR

0	1	1	2	0	C	0	0	0	0	Ⴢ	cut_g_stereo_44KHz.wav
0	2	2	4	0	C	2	0	893	0	Ⴞ	cut_eeuw_stereo_44KHz.wav
0	3	1	1	1	C	1	0	1263	0	Ⴢ	cut_oo_stereo_44KHz.wav
0	4	2	3	1	C	1	0	1154	0	Ⴞ	cut_ee_stereo_44KHz.wav
0	5	1	2	0	C	0	0	0	0	Ⴢ	cut_g_stereo_44KHz.wav
0	6	2	3	1	C	2	1	1126	1	Ⴞ	cut_ee_stereo_44KHz.wav
0	7	2	4	0	C	1	1	891	1	Ⴞ	cut_eeuw_stereo_44KHz.wav
0	8	1	1	1	C	2	1	815	1	Ⴢ	cut_oo_stereo_44KHz.wav
0	9	1	1	1	C	2	1	674	1	Ⴢ	cut_oo_stereo_44KHz.wav
0	10	2	4	0	C	2	0	733	0	Ⴞ	cut_eeuw_stereo_44KHz.wav
0	11	1	2	0	C	1	1	1528	1	Ⴢ	cut_g_stereo_44KHz.wav
0	12	2	3	1	C	2	1	829	1	Ⴞ	cut_ee_stereo_44KHz.wav
0	13	2	3	1	C	2	1	936	1	Ⴞ	cut_ee_stereo_44KHz.wav
0	14	2	4	0	C	1	1	669	1	Ⴞ	cut_eeuw_stereo_44KHz.wav
0	15	1	1	1	C	2	1	658	1	Ⴢ	cut_oo_stereo_44KHz.wav
0	16	1	2	0	C	1	1	827	1	Ⴢ	cut_g_stereo_44KHz.wav
0	17	2	4	0	C	1	1	955	1	Ⴞ	cut_eeuw_stereo_44KHz.wav
0	18	2	3	1	C	2	1	670	1	Ⴞ	cut_ee_stereo_44KHz.wav
0	19	1	1	1	C	2	1	660	1	Ⴢ	cut_oo_stereo_44KHz.wav
0	20	1	2	0	C	1	1	664	1	Ⴢ	cut_g_stereo_44KHz.wav
0	21	2	3	1	C	2	1	868	1	Ⴞ	cut_ee_stereo_44KHz.wav
0	22	1	1	1	C	2	1	876	1	Ⴢ	cut_oo_stereo_44KHz.wav
0	23	1	2	0	C	1	1	760	1	Ⴢ	cut_g_stereo_44KHz.wav
0	24	2	4	0	C	1	1	808	1	Ⴞ	cut_eeuw_stereo_44KHz.wav
0	25	2	4	0	C	1	1	1094	1	Ⴞ	cut_eeuw_stereo_44KHz.wav
0	26	1	2	0	C	1	1	768	1	Ⴢ	cut_g_stereo_44KHz.wav
0	27	2	3	1	C	2	1	841	1	Ⴞ	cut_ee_stereo_44KHz.wav
0	28	1	1	1	C	2	1	893	1	Ⴢ	cut_oo_stereo_44KHz.wav
0	29	2	4	0	C	1	1	761	1	Ⴞ	cut_eeuw_stereo_44KHz.wav
0	30	2	3	1	C	2	1	896	1	Ⴞ	cut_ee_stereo_44KHz.wav
avg_resp = 853
1	1	4	3	2	I	2	0	1561	1	Ⴁ	cut_s_stereo_44KHz.wav
1	2	1	2	0	C	2	0	1573	0	Ⴃ	cut_f_stereo_44KHz.wav
1	3	2	2	1	C	2	1	1023	1	Ⴜ	cut_f_stereo_44KHz.wav
1	4	3	4	2	I	2	0	1252	1	Ⴇ	cut_j_stereo_44KHz.wav
1	5	2	1	0	C	2	0	1285	0	Ⴜ	cut_n_stereo_44KHz.wav
1	6	1	1	1	C	2	1	1357	1	Ⴃ	cut_n_stereo_44KHz.wav
1	7	3	3	2	I	2	0	1344	0	Ⴇ	cut_s_stereo_44KHz.wav
1	8	4	4	2	I	1	0	1200	0	Ⴁ	cut_j_stereo_44KHz.wav
1	9	3	4	2	I	2	0	1100	0	Ⴇ	cut_j_stereo_44KHz.wav
1	10	2	1	0	C	1	1	1152	1	Ⴜ	cut_n_stereo_44KHz.wav
1	11	1	2	0	C	1	1	1520	1	Ⴃ	cut_f_stereo_44KHz.wav
1	12	4	4	2	I	2	0	1324	0	Ⴁ	cut_j_stereo_44KHz.wav
1	13	2	2	1	C	1	0	1314	0	Ⴜ	cut_f_stereo_44KHz.wav
1	14	3	3	2	I	1	0	1360	0	Ⴇ	cut_s_stereo_44KHz.wav
1	15	1	1	1	C	2	1	1463	1	Ⴃ	cut_n_stereo_44KHz.wav
1	16	4	3	2	I	2	0	1394	1	Ⴁ	cut_s_stereo_44KHz.wav
1	17	3	3	2	I	1	0	1158	0	Ⴇ	cut_s_stereo_44KHz.wav
1	18	4	4	2	I	1	0	1382	1	Ⴁ	cut_j_stereo_44KHz.wav
1	19	1	2	0	C	1	1	1307	1	Ⴃ	cut_f_stereo_44KHz.wav
1	20	2	2	1	C	2	1	1076	1	Ⴜ	cut_f_stereo_44KHz.wav
1	21	4	3	2	I	2	0	1401	0	Ⴁ	cut_s_stereo_44KHz.wav
1	22	2	1	0	C	1	1	1187	1	Ⴜ	cut_n_stereo_44KHz.wav
1	23	1	1	1	C	2	1	1176	1	Ⴃ	cut_n_stereo_44KHz.wav
1	24	3	4	2	I	1	0	1097	1	Ⴇ	cut_j_stereo_44KHz.wav
1	25	4	4	2	I	2	0	1049	1	Ⴁ	cut_j_stereo_44KHz.wav
1	26	2	1	0	C	1	1	1119	1	Ⴜ	cut_n_stereo_44KHz.wav
1	27	1	2	0	C	1	1	1035	1	Ⴃ	cut_f_stereo_44KHz.wav
1	28	3	3	2	I	2	0	1184	1	Ⴇ	cut_s_stereo_44KHz.wav
1	29	4	3	2	I	1	0	1107	0	Ⴁ	cut_s_stereo_44KHz.wav
1	30	3	4	2	I	1	0	1160	0	Ⴇ	cut_j_stereo_44KHz.wav
1	31	1	1	1	C	1	0	1222	0	Ⴃ	cut_n_stereo_44KHz.wav
1	32	2	2	1	C	2	1	1143	1	Ⴜ	cut_f_stereo_44KHz.wav
1	33	1	2	0	C	1	1	901	1	Ⴃ	cut_f_stereo_44KHz.wav
1	34	3	3	2	I	1	0	1151	1	Ⴇ	cut_s_stereo_44KHz.wav
1	35	4	4	2	I	1	0	1156	0	Ⴁ	cut_j_stereo_44KHz.wav
1	36	2	1	0	C	1	1	987	1	Ⴜ	cut_n_stereo_44KHz.wav
1	37	4	3	2	I	2	0	1276	1	Ⴁ	cut_s_stereo_44KHz.wav
1	38	2	2	1	C	1	0	1051	0	Ⴜ	cut_f_stereo_44KHz.wav
1	39	1	1	1	C	2	1	973	1	Ⴃ	cut_n_stereo_44KHz.wav
1	40	3	4	2	I	1	0	1157	0	Ⴇ	cut_j_stereo_44KHz.wav
1	41	4	4	2	I	1	0	1026	1	Ⴁ	cut_j_stereo_44KHz.wav
1	42	3	4	2	I	2	0	975	0	Ⴇ	cut_j_stereo_44KHz.wav
1	43	1	1	1	C	2	1	871	1	Ⴃ	cut_n_stereo_44KHz.wav
1	44	2	1	0	C	1	1	1137	1	Ⴜ	cut_n_stereo_44KHz.wav
1	45	4	3	2	I	2	0	1175	1	Ⴁ	cut_s_stereo_44KHz.wav
1	46	3	3	2	I	2	0	967	1	Ⴇ	cut_s_stereo_44KHz.wav
1	47	1	2	0	C	1	1	761	1	Ⴃ	cut_f_stereo_44KHz.wav
1	48	2	2	1	C	2	1	931	1	Ⴜ	cut_f_stereo_44KHz.wav
1	49	3	3	2	I	2	0	956	1	Ⴇ	cut_s_stereo_44KHz.wav
1	50	4	3	2	I	1	0	963	1	Ⴁ	cut_s_stereo_44KHz.wav
1	51	1	1	1	C	2	1	819	1	Ⴃ	cut_n_stereo_44KHz.wav
1	52	2	1	0	C	2	0	1270	0	Ⴜ	cut_n_stereo_44KHz.wav
1	53	1	2	0	C	1	1	699	1	Ⴃ	cut_f_stereo_44KHz.wav
1	54	3	4	2	I	2	0	1259	0	Ⴇ	cut_j_stereo_44KHz.wav
1	55	2	2	1	C	2	1	1005	1	Ⴜ	cut_f_stereo_44KHz.wav
1	56	4	4	2	I	1	0	1018	0	Ⴁ	cut_j_stereo_44KHz.wav
1	57	3	4	2	I	2	0	1109	0	Ⴇ	cut_j_stereo_44KHz.wav
1	58	1	2	0	C	1	1	750	1	Ⴃ	cut_f_stereo_44KHz.wav
1	59	2	1	0	C	2	0	1808	0	Ⴜ	cut_n_stereo_44KHz.wav
1	60	4	3	2	I	2	0	1719	1	Ⴁ	cut_s_stereo_44KHz.wav
1	61	3	3	2	I	1	0	1441	1	Ⴇ	cut_s_stereo_44KHz.wav
1	62	2	2	1	C	2	1	913	1	Ⴜ	cut_f_stereo_44KHz.wav
1	63	1	1	1	C	2	1	1225	1	Ⴃ	cut_n_stereo_44KHz.wav
1	64	4	4	2	I	1	0	902	0	Ⴁ	cut_j_stereo_44KHz.wav
1	65	2	2	1	C	2	1	1204	1	Ⴜ	cut_f_stereo_44KHz.wav
1	66	1	2	0	C	1	1	747	1	Ⴃ	cut_f_stereo_44KHz.wav
1	67	4	4	2	I	2	0	1066	0	Ⴁ	cut_j_stereo_44KHz.wav
1	68	3	3	2	I	2	0	1305	1	Ⴇ	cut_s_stereo_44KHz.wav
1	69	1	1	1	C	2	1	916	1	Ⴃ	cut_n_stereo_44KHz.wav
1	70	2	1	0	C	2	0	1770	0	Ⴜ	cut_n_stereo_44KHz.wav
1	71	4	3	2	I	1	0	1642	0	Ⴁ	cut_s_stereo_44KHz.wav
1	72	3	4	2	I	2	0	1114	1	Ⴇ	cut_j_stereo_44KHz.wav
1	73	2	1	0	C	1	1	1362	1	Ⴜ	cut_n_stereo_44KHz.wav
1	74	4	3	2	I	2	0	1518	1	Ⴁ	cut_s_stereo_44KHz.wav
1	75	3	3	2	I	2	0	1054	0	Ⴇ	cut_s_stereo_44KHz.wav
1	76	1	1	1	C	2	1	819	1	Ⴃ	cut_n_stereo_44KHz.wav
1	77	3	4	2	I	1	0	979	1	Ⴇ	cut_j_stereo_44KHz.wav
1	78	4	4	2	I	2	0	840	0	Ⴁ	cut_j_stereo_44KHz.wav
1	79	2	2	1	C	2	1	1151	1	Ⴜ	cut_f_stereo_44KHz.wav
1	80	1	2	0	C	1	1	698	1	Ⴃ	cut_f_stereo_44KHz.wav
1	81	2	2	1	C	2	1	1091	1	Ⴜ	cut_f_stereo_44KHz.wav
1	82	1	2	0	C	1	1	819	1	Ⴃ	cut_f_stereo_44KHz.wav
1	83	3	3	2	I	2	0	1020	1	Ⴇ	cut_s_stereo_44KHz.wav
1	84	4	4	2	I	2	0	1567	0	Ⴁ	cut_j_stereo_44KHz.wav
1	85	3	4	2	I	1	0	1059	1	Ⴇ	cut_j_stereo_44KHz.wav
1	86	2	1	0	C	2	0	1216	0	Ⴜ	cut_n_stereo_44KHz.wav
1	87	4	3	2	I	2	0	1382	0	Ⴁ	cut_s_stereo_44KHz.wav
1	88	1	1	1	C	2	1	745	1	Ⴃ	cut_n_stereo_44KHz.wav
1	89	3	3	2	I	2	0	1357	1	Ⴇ	cut_s_stereo_44KHz.wav
1	90	1	1	1	C	2	1	836	1	Ⴃ	cut_n_stereo_44KHz.wav
1	91	2	1	0	C	2	0	1386	0	Ⴜ	cut_n_stereo_44KHz.wav
1	92	4	3	2	I	1	0	1356	0	Ⴁ	cut_s_stereo_44KHz.wav
1	93	1	2	0	C	1	1	800	1	Ⴃ	cut_f_stereo_44KHz.wav
1	94	2	2	1	C	2	1	923	1	Ⴜ	cut_f_stereo_44KHz.wav
1	95	4	4	2	I	1	0	987	1	Ⴁ	cut_j_stereo_44KHz.wav
1	96	3	4	2	I	1	0	930	0	Ⴇ	cut_j_stereo_44KHz.wav
1	97	1	2	0	C	1	1	767	1	Ⴃ	cut_f_stereo_44KHz.wav
1	98	2	1	0	C	1	1	1711	1	Ⴜ	cut_n_stereo_44KHz.wav
1	99	4	3	2	I	1	0	1129	1	Ⴁ	cut_s_stereo_44KHz.wav
1	100	3	3	2	I	2	0	1128	0	Ⴇ	cut_s_stereo_44KHz.wav
1	101	2	2	1	C	2	1	1591	1	Ⴜ	cut_f_stereo_44KHz.wav
1	102	4	4	2	I	1	0	890	0	Ⴁ	cut_j_stereo_44KHz.wav
1	103	1	1	1	C	2	1	777	1	Ⴃ	cut_n_stereo_44KHz.wav
1	104	3	4	2	I	1	0	815	0	Ⴇ	cut_j_stereo_44KHz.wav
1	105	2	1	0	C	0	0	0	0	Ⴜ	cut_n_stereo_44KHz.wav
1	106	4	4	2	I	1	0	1162	1	Ⴁ	cut_j_stereo_44KHz.wav
1	107	3	4	2	I	2	0	1966	0	Ⴇ	cut_j_stereo_44KHz.wav
1	108	1	1	1	C	2	1	1001	1	Ⴃ	cut_n_stereo_44KHz.wav
1	109	2	2	1	C	2	1	1480	1	Ⴜ	cut_f_stereo_44KHz.wav
1	110	4	3	2	I	0	0	0	0	Ⴁ	cut_s_stereo_44KHz.wav
1	111	1	2	0	C	1	1	716	1	Ⴃ	cut_f_stereo_44KHz.wav
1	112	3	3	2	I	2	0	984	1	Ⴇ	cut_s_stereo_44KHz.wav
1	113	1	1	1	C	2	1	855	1	Ⴃ	cut_n_stereo_44KHz.wav
1	114	4	3	2	I	1	0	889	0	Ⴁ	cut_s_stereo_44KHz.wav
1	115	3	3	2	I	2	0	1463	0	Ⴇ	cut_s_stereo_44KHz.wav
1	116	2	1	0	C	1	1	1391	1	Ⴜ	cut_n_stereo_44KHz.wav
1	117	4	4	2	I	2	0	1072	1	Ⴁ	cut_j_stereo_44KHz.wav
1	118	2	2	1	C	2	1	942	1	Ⴜ	cut_f_stereo_44KHz.wav
1	119	3	4	2	I	1	0	1052	1	Ⴇ	cut_j_stereo_44KHz.wav
1	120	1	2	0	C	1	1	852	1	Ⴃ	cut_f_stereo_44KHz.wav
1	121	2	1	0	C	1	1	1182	1	Ⴜ	cut_n_stereo_44KHz.wav
1	122	4	4	2	I	2	0	1132	1	Ⴁ	cut_j_stereo_44KHz.wav
1	123	1	2	0	C	1	1	692	1	Ⴃ	cut_f_stereo_44KHz.wav
1	124	3	4	2	I	1	0	782	1	Ⴇ	cut_j_stereo_44KHz.wav
1	125	2	2	1	C	2	1	1326	1	Ⴜ	cut_f_stereo_44KHz.wav
1	126	3	3	2	I	2	0	1317	1	Ⴇ	cut_s_stereo_44KHz.wav
1	127	4	3	2	I	1	0	890	1	Ⴁ	cut_s_stereo_44KHz.wav
1	128	1	1	1	C	2	1	963	1	Ⴃ	cut_n_stereo_44KHz.wav
1	129	4	4	2	I	2	0	1290	1	Ⴁ	cut_j_stereo_44KHz.wav
1	130	2	1	0	C	1	1	1167	1	Ⴜ	cut_n_stereo_44KHz.wav
1	131	1	2	0	C	1	1	911	1	Ⴃ	cut_f_stereo_44KHz.wav
1	132	3	3	2	I	2	0	1162	1	Ⴇ	cut_s_stereo_44KHz.wav
1	133	1	1	1	C	2	1	1100	1	Ⴃ	cut_n_stereo_44KHz.wav
1	134	2	2	1	C	2	1	1423	1	Ⴜ	cut_f_stereo_44KHz.wav
1	135	3	4	2	I	1	0	1106	1	Ⴇ	cut_j_stereo_44KHz.wav
1	136	4	3	2	I	1	0	1155	1	Ⴁ	cut_s_stereo_44KHz.wav
1	137	1	2	0	C	1	1	932	1	Ⴃ	cut_f_stereo_44KHz.wav
1	138	4	4	2	I	2	0	1069	0	Ⴁ	cut_j_stereo_44KHz.wav
1	139	2	1	0	C	1	1	1623	1	Ⴜ	cut_n_stereo_44KHz.wav
1	140	3	3	2	I	2	0	1317	0	Ⴇ	cut_s_stereo_44KHz.wav
1	141	2	2	1	C	2	1	1068	1	Ⴜ	cut_f_stereo_44KHz.wav
1	142	1	1	1	C	2	1	1164	1	Ⴃ	cut_n_stereo_44KHz.wav
1	143	4	3	2	I	1	0	1346	1	Ⴁ	cut_s_stereo_44KHz.wav
1	144	3	4	2	I	1	0	1296	1	Ⴇ	cut_j_stereo_44KHz.wav
1	145	2	2	1	C	2	1	1030	1	Ⴜ	cut_f_stereo_44KHz.wav
1	146	4	3	2	I	1	0	1764	0	Ⴁ	cut_s_stereo_44KHz.wav
1	147	1	1	1	C	2	1	865	1	Ⴃ	cut_n_stereo_44KHz.wav
1	148	3	3	2	I	2	0	1549	1	Ⴇ	cut_s_stereo_44KHz.wav
1	149	1	2	0	C	1	1	856	1	Ⴃ	cut_f_stereo_44KHz.wav
1	150	3	4	2	I	1	0	1002	1	Ⴇ	cut_j_stereo_44KHz.wav
1	151	4	4	2	I	2	0	1059	1	Ⴁ	cut_j_stereo_44KHz.wav
1	152	2	1	0	C	1	1	1600	1	Ⴜ	cut_n_stereo_44KHz.wav
1	153	1	1	1	C	2	1	1042	1	Ⴃ	cut_n_stereo_44KHz.wav
1	154	4	4	2	I	2	0	1562	1	Ⴁ	cut_j_stereo_44KHz.wav
1	155	3	3	2	I	2	0	1567	1	Ⴇ	cut_s_stereo_44KHz.wav
1	156	2	2	1	C	2	1	1287	1	Ⴜ	cut_f_stereo_44KHz.wav
1	157	1	2	0	C	1	1	846	1	Ⴃ	cut_f_stereo_44KHz.wav
1	158	4	3	2	I	2	0	1066	0	Ⴁ	cut_s_stereo_44KHz.wav
1	159	2	1	0	C	0	0	0	0	Ⴜ	cut_n_stereo_44KHz.wav
1	160	3	4	2	I	1	0	1048	0	Ⴇ	cut_j_stereo_44KHz.wav
1	161	1	1	1	C	2	1	1139	1	Ⴃ	cut_n_stereo_44KHz.wav
1	162	4	3	2	I	1	0	1404	0	Ⴁ	cut_s_stereo_44KHz.wav
1	163	3	4	2	I	1	0	990	0	Ⴇ	cut_j_stereo_44KHz.wav
1	164	2	2	1	C	2	1	1342	1	Ⴜ	cut_f_stereo_44KHz.wav
1	165	3	3	2	I	1	0	1719	0	Ⴇ	cut_s_stereo_44KHz.wav
1	166	1	2	0	C	1	1	1229	1	Ⴃ	cut_f_stereo_44KHz.wav
1	167	4	4	2	I	2	0	1030	0	Ⴁ	cut_j_stereo_44KHz.wav
1	168	2	1	0	C	2	0	1033	0	Ⴜ	cut_n_stereo_44KHz.wav
1	169	4	3	2	I	2	0	1950	0	Ⴁ	cut_s_stereo_44KHz.wav
1	170	3	3	2	I	1	0	1363	0	Ⴇ	cut_s_stereo_44KHz.wav
1	171	1	2	0	C	1	1	784	1	Ⴃ	cut_f_stereo_44KHz.wav
1	172	2	2	1	C	2	1	1040	1	Ⴜ	cut_f_stereo_44KHz.wav
1	173	1	1	1	C	2	1	1076	1	Ⴃ	cut_n_stereo_44KHz.wav
1	174	4	4	2	I	1	0	1059	1	Ⴁ	cut_j_stereo_44KHz.wav
1	175	3	4	2	I	2	0	832	0	Ⴇ	cut_j_stereo_44KHz.wav
1	176	2	1	0	C	1	1	1664	1	Ⴜ	cut_n_stereo_44KHz.wav
1	177	4	4	2	I	1	0	730	1	Ⴁ	cut_j_stereo_44KHz.wav
1	178	2	2	1	C	2	1	1023	1	Ⴜ	cut_f_stereo_44KHz.wav
1	179	3	3	2	I	2	0	1569	0	Ⴇ	cut_s_stereo_44KHz.wav
1	180	1	1	1	C	2	1	944	1	Ⴃ	cut_n_stereo_44KHz.wav
1	181	4	3	2	I	2	0	1119	1	Ⴁ	cut_s_stereo_44KHz.wav
1	182	3	4	2	I	2	0	1206	0	Ⴇ	cut_j_stereo_44KHz.wav
1	183	1	2	0	C	1	1	797	1	Ⴃ	cut_f_stereo_44KHz.wav
1	184	2	1	0	C	1	1	1106	1	Ⴜ	cut_n_stereo_44KHz.wav
1	185	1	1	1	C	2	1	756	1	Ⴃ	cut_n_stereo_44KHz.wav
1	186	2	2	1	C	2	1	1196	1	Ⴜ	cut_f_stereo_44KHz.wav
1	187	4	4	2	I	1	0	987	0	Ⴁ	cut_j_stereo_44KHz.wav
1	188	3	3	2	I	0	0	0	0	Ⴇ	cut_s_stereo_44KHz.wav
1	189	2	1	0	C	1	1	1453	1	Ⴜ	cut_n_stereo_44KHz.wav
1	190	1	2	0	C	1	1	982	1	Ⴃ	cut_f_stereo_44KHz.wav
1	191	3	4	2	I	1	0	1303	0	Ⴇ	cut_j_stereo_44KHz.wav
1	192	4	3	2	I	1	0	1879	0	Ⴁ	cut_s_stereo_44KHz.wav
1	193	2	1	0	C	1	1	1071	1	Ⴜ	cut_n_stereo_44KHz.wav
1	194	1	2	0	C	1	1	627	1	Ⴃ	cut_f_stereo_44KHz.wav
1	195	3	4	2	I	2	0	1185	1	Ⴇ	cut_j_stereo_44KHz.wav
1	196	4	3	2	I	2	0	1008	0	Ⴁ	cut_s_stereo_44KHz.wav
1	197	1	1	1	C	2	1	1193	1	Ⴃ	cut_n_stereo_44KHz.wav
1	198	2	2	1	C	2	1	1062	1	Ⴜ	cut_f_stereo_44KHz.wav
1	199	4	4	2	I	1	0	1327	0	Ⴁ	cut_j_stereo_44KHz.wav
1	200	3	3	2	I	0	0	0	0	Ⴇ	cut_s_stereo_44KHz.wav
2	1	4	4	2	I	0	0	0	0	Ⴊ	cut_r_stereo_44KHz.wav
2	2	2	2	1	C	2	1	1486	1	Ⴂ	cut_ei_stereo_44KHz.wav
2	3	1	2	0	C	1	1	920	1	Ⴡ	cut_ei_stereo_44KHz.wav
2	4	3	3	2	I	2	0	1589	1	Ⴟ	cut_oei_stereo_44KHz.wav
2	5	1	1	1	C	1	0	810	0	Ⴡ	cut_ui_stereo_44KHz.wav
2	6	2	1	0	C	2	0	1392	0	Ⴂ	cut_ui_stereo_44KHz.wav
2	7	3	4	2	I	1	0	1281	1	Ⴟ	cut_r_stereo_44KHz.wav
2	8	4	3	2	I	2	0	1359	1	Ⴊ	cut_oei_stereo_44KHz.wav
2	9	3	3	2	I	2	0	935	0	Ⴟ	cut_oei_stereo_44KHz.wav
2	10	2	1	0	C	1	1	1448	1	Ⴂ	cut_ui_stereo_44KHz.wav
2	11	4	4	2	I	2	0	1159	1	Ⴊ	cut_r_stereo_44KHz.wav
2	12	1	1	1	C	1	0	1370	0	Ⴡ	cut_ui_stereo_44KHz.wav
2	13	3	4	2	I	1	0	714	1	Ⴟ	cut_r_stereo_44KHz.wav
2	14	1	2	0	C	1	1	816	1	Ⴡ	cut_ei_stereo_44KHz.wav
2	15	2	2	1	C	2	1	983	1	Ⴂ	cut_ei_stereo_44KHz.wav
2	16	4	3	2	I	2	0	1098	0	Ⴊ	cut_oei_stereo_44KHz.wav
2	17	2	1	0	C	1	1	1383	1	Ⴂ	cut_ui_stereo_44KHz.wav
2	18	4	4	2	I	2	0	1123	1	Ⴊ	cut_r_stereo_44KHz.wav
2	19	1	1	1	C	2	1	1040	1	Ⴡ	cut_ui_stereo_44KHz.wav
2	20	3	4	2	I	1	0	857	1	Ⴟ	cut_r_stereo_44KHz.wav
2	21	2	2	1	C	2	1	958	1	Ⴂ	cut_ei_stereo_44KHz.wav
2	22	4	3	2	I	1	0	856	1	Ⴊ	cut_oei_stereo_44KHz.wav
2	23	3	3	2	I	2	0	858	0	Ⴟ	cut_oei_stereo_44KHz.wav
2	24	1	2	0	C	1	1	871	1	Ⴡ	cut_ei_stereo_44KHz.wav
2	25	2	1	0	C	1	1	995	1	Ⴂ	cut_ui_stereo_44KHz.wav
2	26	1	2	0	C	1	1	707	1	Ⴡ	cut_ei_stereo_44KHz.wav
2	27	3	3	2	I	1	0	985	0	Ⴟ	cut_oei_stereo_44KHz.wav
2	28	4	4	2	I	2	0	1018	0	Ⴊ	cut_r_stereo_44KHz.wav
2	29	1	1	1	C	2	1	907	1	Ⴡ	cut_ui_stereo_44KHz.wav
2	30	3	4	2	I	1	0	945	1	Ⴟ	cut_r_stereo_44KHz.wav
2	31	2	2	1	C	2	1	908	1	Ⴂ	cut_ei_stereo_44KHz.wav
2	32	4	3	2	I	1	0	1079	1	Ⴊ	cut_oei_stereo_44KHz.wav
2	33	1	1	1	C	2	1	946	1	Ⴡ	cut_ui_stereo_44KHz.wav
2	34	2	1	0	C	1	1	840	1	Ⴂ	cut_ui_stereo_44KHz.wav
2	35	3	4	2	I	2	0	1104	1	Ⴟ	cut_r_stereo_44KHz.wav
2	36	4	3	2	I	1	0	1043	0	Ⴊ	cut_oei_stereo_44KHz.wav
2	37	2	2	1	C	2	1	938	1	Ⴂ	cut_ei_stereo_44KHz.wav
2	38	4	4	2	I	1	0	943	1	Ⴊ	cut_r_stereo_44KHz.wav
2	39	1	2	0	C	1	1	868	1	Ⴡ	cut_ei_stereo_44KHz.wav
2	40	3	3	2	I	1	0	757	0	Ⴟ	cut_oei_stereo_44KHz.wav
2	41	1	1	1	C	2	1	1046	1	Ⴡ	cut_ui_stereo_44KHz.wav
2	42	4	4	2	I	2	0	1231	0	Ⴊ	cut_r_stereo_44KHz.wav
2	43	2	2	1	C	2	1	948	1	Ⴂ	cut_ei_stereo_44KHz.wav
2	44	3	3	2	I	1	0	940	1	Ⴟ	cut_oei_stereo_44KHz.wav
2	45	2	1	0	C	2	0	1584	0	Ⴂ	cut_ui_stereo_44KHz.wav
2	46	4	3	2	I	2	0	1254	1	Ⴊ	cut_oei_stereo_44KHz.wav
2	47	1	2	0	C	1	1	848	1	Ⴡ	cut_ei_stereo_44KHz.wav
2	48	3	4	2	I	2	0	1185	1	Ⴟ	cut_r_stereo_44KHz.wav
2	49	1	2	0	C	1	1	741	1	Ⴡ	cut_ei_stereo_44KHz.wav
2	50	4	3	2	I	2	0	1164	0	Ⴊ	cut_oei_stereo_44KHz.wav
2	51	2	2	1	C	2	1	974	1	Ⴂ	cut_ei_stereo_44KHz.wav
2	52	3	3	2	I	1	0	866	1	Ⴟ	cut_oei_stereo_44KHz.wav
2	53	2	1	0	C	1	1	1167	1	Ⴂ	cut_ui_stereo_44KHz.wav
2	54	4	4	2	I	1	0	1005	1	Ⴊ	cut_r_stereo_44KHz.wav
2	55	3	4	2	I	1	0	1242	0	Ⴟ	cut_r_stereo_44KHz.wav
2	56	1	1	1	C	2	1	904	1	Ⴡ	cut_ui_stereo_44KHz.wav
2	57	4	4	2	I	1	0	820	0	Ⴊ	cut_r_stereo_44KHz.wav
2	58	2	1	0	C	2	0	1034	0	Ⴂ	cut_ui_stereo_44KHz.wav
2	59	1	1	1	C	2	1	1150	1	Ⴡ	cut_ui_stereo_44KHz.wav
2	60	3	4	2	I	1	0	815	1	Ⴟ	cut_r_stereo_44KHz.wav
2	61	4	3	2	I	0	0	0	0	Ⴊ	cut_oei_stereo_44KHz.wav
2	62	3	3	2	I	1	0	727	0	Ⴟ	cut_oei_stereo_44KHz.wav
2	63	2	2	1	C	2	1	1198	1	Ⴂ	cut_ei_stereo_44KHz.wav
2	64	1	2	0	C	1	1	716	1	Ⴡ	cut_ei_stereo_44KHz.wav
2	65	2	2	1	C	2	1	733	1	Ⴂ	cut_ei_stereo_44KHz.wav
2	66	3	4	2	I	1	0	1743	1	Ⴟ	cut_r_stereo_44KHz.wav
2	67	4	3	2	I	1	0	775	0	Ⴊ	cut_oei_stereo_44KHz.wav
2	68	1	1	1	C	2	1	1300	1	Ⴡ	cut_ui_stereo_44KHz.wav
2	69	4	4	2	I	1	0	1171	1	Ⴊ	cut_r_stereo_44KHz.wav
2	70	2	1	0	C	1	1	1266	1	Ⴂ	cut_ui_stereo_44KHz.wav
2	71	1	2	0	C	1	1	786	1	Ⴡ	cut_ei_stereo_44KHz.wav
2	72	3	3	2	I	2	0	1156	0	Ⴟ	cut_oei_stereo_44KHz.wav
2	73	1	2	0	C	1	1	921	1	Ⴡ	cut_ei_stereo_44KHz.wav
2	74	4	4	2	I	1	0	1047	1	Ⴊ	cut_r_stereo_44KHz.wav
2	75	3	3	2	I	1	0	1022	0	Ⴟ	cut_oei_stereo_44KHz.wav
2	76	2	2	1	C	2	1	1016	1	Ⴂ	cut_ei_stereo_44KHz.wav
2	77	3	4	2	I	1	0	859	0	Ⴟ	cut_r_stereo_44KHz.wav
2	78	4	3	2	I	1	0	1008	1	Ⴊ	cut_oei_stereo_44KHz.wav
2	79	1	1	1	C	2	1	1243	1	Ⴡ	cut_ui_stereo_44KHz.wav
2	80	2	1	0	C	1	1	961	1	Ⴂ	cut_ui_stereo_44KHz.wav
2	81	4	4	2	I	1	0	1127	1	Ⴊ	cut_r_stereo_44KHz.wav
2	82	2	1	0	C	0	0	0	0	Ⴂ	cut_ui_stereo_44KHz.wav
2	83	1	2	0	C	1	1	790	1	Ⴡ	cut_ei_stereo_44KHz.wav
2	84	3	4	2	I	1	0	964	0	Ⴟ	cut_r_stereo_44KHz.wav
2	85	1	1	1	C	2	1	1022	1	Ⴡ	cut_ui_stereo_44KHz.wav
2	86	2	2	1	C	2	1	940	1	Ⴂ	cut_ei_stereo_44KHz.wav
2	87	3	3	2	I	2	0	809	0	Ⴟ	cut_oei_stereo_44KHz.wav
2	88	4	3	2	I	1	0	916	1	Ⴊ	cut_oei_stereo_44KHz.wav
2	89	2	1	0	C	1	1	1783	1	Ⴂ	cut_ui_stereo_44KHz.wav
2	90	3	3	2	I	2	0	939	1	Ⴟ	cut_oei_stereo_44KHz.wav
2	91	1	1	1	C	2	1	1085	1	Ⴡ	cut_ui_stereo_44KHz.wav
2	92	4	4	2	I	2	0	903	0	Ⴊ	cut_r_stereo_44KHz.wav
2	93	1	2	0	C	1	1	823	1	Ⴡ	cut_ei_stereo_44KHz.wav
2	94	2	2	1	C	2	1	946	1	Ⴂ	cut_ei_stereo_44KHz.wav
2	95	3	4	2	I	1	0	801	1	Ⴟ	cut_r_stereo_44KHz.wav
2	96	4	3	2	I	1	0	938	1	Ⴊ	cut_oei_stereo_44KHz.wav
2	97	3	3	2	I	2	0	886	0	Ⴟ	cut_oei_stereo_44KHz.wav
2	98	1	2	0	C	1	1	922	1	Ⴡ	cut_ei_stereo_44KHz.wav
2	99	4	3	2	I	2	0	1468	0	Ⴊ	cut_oei_stereo_44KHz.wav
2	100	2	2	1	C	2	1	1109	1	Ⴂ	cut_ei_stereo_44KHz.wav
2	101	1	1	1	C	2	1	877	1	Ⴡ	cut_ui_stereo_44KHz.wav
2	102	4	4	2	I	1	0	1072	0	Ⴊ	cut_r_stereo_44KHz.wav
2	103	2	1	0	C	1	1	1122	1	Ⴂ	cut_ui_stereo_44KHz.wav
2	104	3	4	2	I	1	0	526	0	Ⴟ	cut_r_stereo_44KHz.wav
2	105	2	2	1	C	2	1	914	1	Ⴂ	cut_ei_stereo_44KHz.wav
2	106	3	4	2	I	2	0	1116	0	Ⴟ	cut_r_stereo_44KHz.wav
2	107	4	4	2	I	1	0	793	0	Ⴊ	cut_r_stereo_44KHz.wav
2	108	1	1	1	C	1	0	1931	0	Ⴡ	cut_ui_stereo_44KHz.wav
2	109	4	3	2	I	1	0	809	0	Ⴊ	cut_oei_stereo_44KHz.wav
2	110	2	1	0	C	1	1	1439	1	Ⴂ	cut_ui_stereo_44KHz.wav
2	111	3	3	2	I	1	0	926	0	Ⴟ	cut_oei_stereo_44KHz.wav
2	112	1	2	0	C	1	1	900	1	Ⴡ	cut_ei_stereo_44KHz.wav
2	113	3	4	2	I	2	0	765	0	Ⴟ	cut_r_stereo_44KHz.wav
2	114	2	1	0	C	1	1	963	1	Ⴂ	cut_ui_stereo_44KHz.wav
2	115	4	4	2	I	2	0	1479	0	Ⴊ	cut_r_stereo_44KHz.wav
2	116	1	2	0	C	1	1	763	1	Ⴡ	cut_ei_stereo_44KHz.wav
2	117	4	3	2	I	2	0	962	0	Ⴊ	cut_oei_stereo_44KHz.wav
2	118	1	1	1	C	2	1	1101	1	Ⴡ	cut_ui_stereo_44KHz.wav
2	119	3	3	2	I	1	0	705	0	Ⴟ	cut_oei_stereo_44KHz.wav
2	120	2	2	1	C	2	1	1091	1	Ⴂ	cut_ei_stereo_44KHz.wav
2	121	1	2	0	C	1	1	784	1	Ⴡ	cut_ei_stereo_44KHz.wav
2	122	2	2	1	C	2	1	821	1	Ⴂ	cut_ei_stereo_44KHz.wav
2	123	3	4	2	I	1	0	643	0	Ⴟ	cut_r_stereo_44KHz.wav
2	124	4	3	2	I	1	0	1377	0	Ⴊ	cut_oei_stereo_44KHz.wav
2	125	1	1	1	C	2	1	1418	1	Ⴡ	cut_ui_stereo_44KHz.wav
2	126	4	4	2	I	1	0	808	1	Ⴊ	cut_r_stereo_44KHz.wav
2	127	2	1	0	C	2	0	1213	0	Ⴂ	cut_ui_stereo_44KHz.wav
2	128	3	3	2	I	1	0	1049	0	Ⴟ	cut_oei_stereo_44KHz.wav
2	129	4	4	2	I	1	0	1093	1	Ⴊ	cut_r_stereo_44KHz.wav
2	130	2	1	0	C	1	1	1276	1	Ⴂ	cut_ui_stereo_44KHz.wav
2	131	1	2	0	C	1	1	961	1	Ⴡ	cut_ei_stereo_44KHz.wav
2	132	3	4	2	I	1	0	759	1	Ⴟ	cut_r_stereo_44KHz.wav
2	133	1	1	1	C	2	1	1010	1	Ⴡ	cut_ui_stereo_44KHz.wav
2	134	4	3	2	I	1	0	1465	1	Ⴊ	cut_oei_stereo_44KHz.wav
2	135	2	2	1	C	2	1	974	1	Ⴂ	cut_ei_stereo_44KHz.wav
2	136	3	3	2	I	1	0	680	1	Ⴟ	cut_oei_stereo_44KHz.wav
2	137	4	3	2	I	1	0	699	0	Ⴊ	cut_oei_stereo_44KHz.wav
2	138	2	1	0	C	1	1	1514	1	Ⴂ	cut_ui_stereo_44KHz.wav
2	139	3	4	2	I	1	0	687	0	Ⴟ	cut_r_stereo_44KHz.wav
2	140	1	2	0	C	2	0	1978	0	Ⴡ	cut_ei_stereo_44KHz.wav
2	141	2	2	1	C	0	0	0	0	Ⴂ	cut_ei_stereo_44KHz.wav
2	142	4	4	2	I	1	0	796	1	Ⴊ	cut_r_stereo_44KHz.wav
2	143	1	1	1	C	2	1	891	1	Ⴡ	cut_ui_stereo_44KHz.wav
2	144	3	3	2	I	1	0	874	1	Ⴟ	cut_oei_stereo_44KHz.wav
2	145	2	2	1	C	1	0	1286	0	Ⴂ	cut_ei_stereo_44KHz.wav
2	146	1	2	0	C	1	1	693	1	Ⴡ	cut_ei_stereo_44KHz.wav
2	147	3	3	2	I	2	0	1115	0	Ⴟ	cut_oei_stereo_44KHz.wav
2	148	4	3	2	I	1	0	1107	0	Ⴊ	cut_oei_stereo_44KHz.wav
2	149	1	1	1	C	2	1	1104	1	Ⴡ	cut_ui_stereo_44KHz.wav
2	150	4	4	2	I	1	0	863	1	Ⴊ	cut_r_stereo_44KHz.wav
2	151	3	4	2	I	1	0	763	1	Ⴟ	cut_r_stereo_44KHz.wav
2	152	2	1	0	C	1	1	1143	1	Ⴂ	cut_ui_stereo_44KHz.wav
2	153	4	3	2	I	2	0	1297	0	Ⴊ	cut_oei_stereo_44KHz.wav
2	154	1	2	0	C	1	1	786	1	Ⴡ	cut_ei_stereo_44KHz.wav
2	155	3	3	2	I	1	0	728	0	Ⴟ	cut_oei_stereo_44KHz.wav
2	156	2	2	1	C	0	0	0	0	Ⴂ	cut_ei_stereo_44KHz.wav
2	157	1	1	1	C	2	1	805	1	Ⴡ	cut_ui_stereo_44KHz.wav
2	158	4	4	2	I	1	0	752	0	Ⴊ	cut_r_stereo_44KHz.wav
2	159	2	1	0	C	1	1	1301	1	Ⴂ	cut_ui_stereo_44KHz.wav
2	160	3	4	2	I	1	0	1254	1	Ⴟ	cut_r_stereo_44KHz.wav
2	161	2	2	1	C	2	1	1471	1	Ⴂ	cut_ei_stereo_44KHz.wav
2	162	4	4	2	I	1	0	823	1	Ⴊ	cut_r_stereo_44KHz.wav
2	163	1	1	1	C	2	1	1130	1	Ⴡ	cut_ui_stereo_44KHz.wav
2	164	3	4	2	I	1	0	1885	1	Ⴟ	cut_r_stereo_44KHz.wav
2	165	2	1	0	C	1	1	1178	1	Ⴂ	cut_ui_stereo_44KHz.wav
2	166	3	3	2	I	2	0	934	1	Ⴟ	cut_oei_stereo_44KHz.wav
2	167	1	2	0	C	1	1	880	1	Ⴡ	cut_ei_stereo_44KHz.wav
2	168	4	3	2	I	2	0	1144	0	Ⴊ	cut_oei_stereo_44KHz.wav
2	169	1	1	1	C	2	1	926	1	Ⴡ	cut_ui_stereo_44KHz.wav
2	170	4	3	2	I	0	0	0	0	Ⴊ	cut_oei_stereo_44KHz.wav
2	171	3	4	2	I	1	0	775	1	Ⴟ	cut_r_stereo_44KHz.wav
2	172	2	2	1	C	2	1	1036	1	Ⴂ	cut_ei_stereo_44KHz.wav
2	173	1	2	0	C	1	1	870	1	Ⴡ	cut_ei_stereo_44KHz.wav
2	174	2	1	0	C	1	1	1324	1	Ⴂ	cut_ui_stereo_44KHz.wav
2	175	4	4	2	I	1	0	1464	1	Ⴊ	cut_r_stereo_44KHz.wav
2	176	3	3	2	I	1	0	1013	0	Ⴟ	cut_oei_stereo_44KHz.wav
2	177	1	2	0	C	1	1	847	1	Ⴡ	cut_ei_stereo_44KHz.wav
2	178	3	4	2	I	1	0	1200	0	Ⴟ	cut_r_stereo_44KHz.wav
2	179	4	4	2	I	1	0	698	0	Ⴊ	cut_r_stereo_44KHz.wav
2	180	2	1	0	C	1	1	1791	1	Ⴂ	cut_ui_stereo_44KHz.wav
2	181	4	3	2	I	2	0	1023	0	Ⴊ	cut_oei_stereo_44KHz.wav
2	182	1	1	1	C	0	0	0	0	Ⴡ	cut_ui_stereo_44KHz.wav
2	183	2	2	1	C	2	1	1069	1	Ⴂ	cut_ei_stereo_44KHz.wav
2	184	3	3	2	I	1	0	929	0	Ⴟ	cut_oei_stereo_44KHz.wav
2	185	2	1	0	C	1	1	1627	1	Ⴂ	cut_ui_stereo_44KHz.wav
2	186	3	4	2	I	2	0	1467	1	Ⴟ	cut_r_stereo_44KHz.wav
2	187	1	1	1	C	2	1	1040	1	Ⴡ	cut_ui_stereo_44KHz.wav
2	188	4	4	2	I	1	0	752	0	Ⴊ	cut_r_stereo_44KHz.wav
2	189	3	3	2	I	1	0	1551	1	Ⴟ	cut_oei_stereo_44KHz.wav
2	190	2	2	1	C	2	1	872	1	Ⴂ	cut_ei_stereo_44KHz.wav
2	191	1	2	0	C	1	1	1014	1	Ⴡ	cut_ei_stereo_44KHz.wav
2	192	4	3	2	I	1	0	1346	1	Ⴊ	cut_oei_stereo_44KHz.wav
2	193	2	1	0	C	1	1	1150	1	Ⴂ	cut_ui_stereo_44KHz.wav
2	194	4	3	2	I	1	0	994	1	Ⴊ	cut_oei_stereo_44KHz.wav
2	195	3	4	2	I	1	0	835	1	Ⴟ	cut_r_stereo_44KHz.wav
2	196	1	2	0	C	1	1	881	1	Ⴡ	cut_ei_stereo_44KHz.wav
2	197	4	4	2	I	2	0	850	1	Ⴊ	cut_r_stereo_44KHz.wav
2	198	3	3	2	I	1	0	739	1	Ⴟ	cut_oei_stereo_44KHz.wav
2	199	1	1	1	C	2	1	911	1	Ⴡ	cut_ui_stereo_44KHz.wav
2	200	2	2	1	C	2	1	1007	1	Ⴂ	cut_ei_stereo_44KHz.wav
3	1	3	4	2	I	2	0	1664	1	Ⴒ	cut_k_stereo_44KHz.wav
3	2	4	3	2	I	1	0	1039	1	Ⴌ	cut_u_stereo_44KHz.wav
3	3	2	1	0	C	2	0	1153	0	Ⴐ	cut_a_stereo_44KHz.wav
3	4	1	1	1	C	2	1	1131	1	Ⴕ	cut_a_stereo_44KHz.wav
3	5	4	4	2	I	1	0	760	0	Ⴌ	cut_k_stereo_44KHz.wav
3	6	3	3	2	I	2	0	725	1	Ⴒ	cut_u_stereo_44KHz.wav
3	7	1	2	0	C	1	1	974	1	Ⴕ	cut_o_stereo_44KHz.wav
3	8	2	2	1	C	2	1	791	1	Ⴐ	cut_o_stereo_44KHz.wav
3	9	1	2	0	C	1	1	714	1	Ⴕ	cut_o_stereo_44KHz.wav
3	10	4	4	2	I	2	0	943	1	Ⴌ	cut_k_stereo_44KHz.wav
3	11	3	4	2	I	1	0	846	1	Ⴒ	cut_k_stereo_44KHz.wav
3	12	2	2	1	C	2	1	906	1	Ⴐ	cut_o_stereo_44KHz.wav
3	13	4	3	2	I	1	0	724	0	Ⴌ	cut_u_stereo_44KHz.wav
3	14	1	1	1	C	2	1	738	1	Ⴕ	cut_a_stereo_44KHz.wav
3	15	2	1	0	C	1	1	800	1	Ⴐ	cut_a_stereo_44KHz.wav
3	16	3	3	2	I	2	0	1116	1	Ⴒ	cut_u_stereo_44KHz.wav
3	17	2	1	0	C	1	1	734	1	Ⴐ	cut_a_stereo_44KHz.wav
3	18	1	1	1	C	2	1	840	1	Ⴕ	cut_a_stereo_44KHz.wav
3	19	4	4	2	I	2	0	1114	1	Ⴌ	cut_k_stereo_44KHz.wav
3	20	3	3	2	I	2	0	816	0	Ⴒ	cut_u_stereo_44KHz.wav
3	21	4	3	2	I	2	0	912	0	Ⴌ	cut_u_stereo_44KHz.wav
3	22	1	2	0	C	1	1	718	1	Ⴕ	cut_o_stereo_44KHz.wav
3	23	2	2	1	C	2	1	841	1	Ⴐ	cut_o_stereo_44KHz.wav
3	24	3	4	2	I	2	0	992	1	Ⴒ	cut_k_stereo_44KHz.wav
3	25	1	2	0	C	1	1	745	1	Ⴕ	cut_o_stereo_44KHz.wav
3	26	3	3	2	I	1	0	553	1	Ⴒ	cut_u_stereo_44KHz.wav
3	27	4	3	2	I	1	0	449	1	Ⴌ	cut_u_stereo_44KHz.wav
3	28	2	2	1	C	2	1	857	1	Ⴐ	cut_o_stereo_44KHz.wav
3	29	3	4	2	I	2	0	1008	0	Ⴒ	cut_k_stereo_44KHz.wav
3	30	4	4	2	I	2	0	943	1	Ⴌ	cut_k_stereo_44KHz.wav
3	31	1	1	1	C	2	1	721	1	Ⴕ	cut_a_stereo_44KHz.wav
3	32	2	1	0	C	2	0	793	0	Ⴐ	cut_a_stereo_44KHz.wav
3	33	4	3	2	I	1	0	789	0	Ⴌ	cut_u_stereo_44KHz.wav
3	34	2	1	0	C	1	1	767	1	Ⴐ	cut_a_stereo_44KHz.wav
3	35	1	2	0	C	1	1	782	1	Ⴕ	cut_o_stereo_44KHz.wav
3	36	3	4	2	I	1	0	850	0	Ⴒ	cut_k_stereo_44KHz.wav
3	37	1	1	1	C	2	1	695	1	Ⴕ	cut_a_stereo_44KHz.wav
3	38	4	4	2	I	1	0	799	1	Ⴌ	cut_k_stereo_44KHz.wav
3	39	3	3	2	I	2	0	1160	0	Ⴒ	cut_u_stereo_44KHz.wav
3	40	2	2	1	C	2	1	823	1	Ⴐ	cut_o_stereo_44KHz.wav
3	41	1	2	0	C	1	1	639	1	Ⴕ	cut_o_stereo_44KHz.wav
3	42	4	3	2	I	1	0	741	0	Ⴌ	cut_u_stereo_44KHz.wav
3	43	2	1	0	C	1	1	892	1	Ⴐ	cut_a_stereo_44KHz.wav
3	44	3	4	2	I	1	0	901	0	Ⴒ	cut_k_stereo_44KHz.wav
3	45	2	2	1	C	2	1	802	1	Ⴐ	cut_o_stereo_44KHz.wav
3	46	4	4	2	I	1	0	669	1	Ⴌ	cut_k_stereo_44KHz.wav
3	47	3	3	2	I	1	0	980	1	Ⴒ	cut_u_stereo_44KHz.wav
3	48	1	1	1	C	2	1	728	1	Ⴕ	cut_a_stereo_44KHz.wav
3	49	3	3	2	I	2	0	1325	0	Ⴒ	cut_u_stereo_44KHz.wav
3	50	2	2	1	C	2	1	806	1	Ⴐ	cut_o_stereo_44KHz.wav
3	51	4	4	2	I	2	0	1158	0	Ⴌ	cut_k_stereo_44KHz.wav
3	52	1	2	0	C	1	1	650	1	Ⴕ	cut_o_stereo_44KHz.wav
3	53	2	1	0	C	1	1	694	1	Ⴐ	cut_a_stereo_44KHz.wav
3	54	1	1	1	C	2	1	751	1	Ⴕ	cut_a_stereo_44KHz.wav
3	55	4	3	2	I	1	0	878	1	Ⴌ	cut_u_stereo_44KHz.wav
3	56	3	4	2	I	1	0	591	0	Ⴒ	cut_k_stereo_44KHz.wav
3	57	4	4	2	I	2	0	893	1	Ⴌ	cut_k_stereo_44KHz.wav
3	58	1	2	0	C	1	1	710	1	Ⴕ	cut_o_stereo_44KHz.wav
3	59	2	1	0	C	1	1	701	1	Ⴐ	cut_a_stereo_44KHz.wav
3	60	3	3	2	I	2	0	913	1	Ⴒ	cut_u_stereo_44KHz.wav
3	61	4	3	2	I	1	0	819	0	Ⴌ	cut_u_stereo_44KHz.wav
3	62	1	1	1	C	2	1	821	1	Ⴕ	cut_a_stereo_44KHz.wav
3	63	2	2	1	C	2	1	1040	1	Ⴐ	cut_o_stereo_44KHz.wav
3	64	3	4	2	I	2	0	1074	1	Ⴒ	cut_k_stereo_44KHz.wav
3	65	1	1	1	C	2	1	821	1	Ⴕ	cut_a_stereo_44KHz.wav
3	66	3	3	2	I	2	0	909	1	Ⴒ	cut_u_stereo_44KHz.wav
3	67	4	3	2	I	1	0	975	0	Ⴌ	cut_u_stereo_44KHz.wav
3	68	2	1	0	C	1	1	1660	1	Ⴐ	cut_a_stereo_44KHz.wav
3	69	1	2	0	C	1	1	976	1	Ⴕ	cut_o_stereo_44KHz.wav
3	70	2	2	1	C	2	1	777	1	Ⴐ	cut_o_stereo_44KHz.wav
3	71	4	4	2	I	2	0	1309	1	Ⴌ	cut_k_stereo_44KHz.wav
3	72	3	4	2	I	2	0	843	1	Ⴒ	cut_k_stereo_44KHz.wav
3	73	2	1	0	C	1	1	845	1	Ⴐ	cut_a_stereo_44KHz.wav
3	74	4	3	2	I	1	0	837	0	Ⴌ	cut_u_stereo_44KHz.wav
3	75	1	2	0	C	1	1	788	1	Ⴕ	cut_o_stereo_44KHz.wav
3	76	3	3	2	I	1	0	693	1	Ⴒ	cut_u_stereo_44KHz.wav
3	77	2	2	1	C	2	1	1300	1	Ⴐ	cut_o_stereo_44KHz.wav
3	78	1	1	1	C	2	1	845	1	Ⴕ	cut_a_stereo_44KHz.wav
3	79	4	4	2	I	1	0	1505	1	Ⴌ	cut_k_stereo_44KHz.wav
3	80	3	4	2	I	1	0	667	1	Ⴒ	cut_k_stereo_44KHz.wav
3	81	2	1	0	C	1	1	887	1	Ⴐ	cut_a_stereo_44KHz.wav
3	82	4	3	2	I	2	0	892	1	Ⴌ	cut_u_stereo_44KHz.wav
3	83	1	2	0	C	1	1	765	1	Ⴕ	cut_o_stereo_44KHz.wav
3	84	3	3	2	I	1	0	1168	0	Ⴒ	cut_u_stereo_44KHz.wav
3	85	2	2	1	C	2	1	1015	1	Ⴐ	cut_o_stereo_44KHz.wav
3	86	4	4	2	I	2	0	1283	1	Ⴌ	cut_k_stereo_44KHz.wav
3	87	3	4	2	I	1	0	840	0	Ⴒ	cut_k_stereo_44KHz.wav
3	88	1	1	1	C	2	1	980	1	Ⴕ	cut_a_stereo_44KHz.wav
3	89	3	3	2	I	1	0	1250	0	Ⴒ	cut_u_stereo_44KHz.wav
3	90	1	1	1	C	2	1	1133	1	Ⴕ	cut_a_stereo_44KHz.wav
3	91	4	4	2	I	1	0	1091	0	Ⴌ	cut_k_stereo_44KHz.wav
3	92	2	2	1	C	2	1	986	1	Ⴐ	cut_o_stereo_44KHz.wav
3	93	1	2	0	C	0	0	0	0	Ⴕ	cut_o_stereo_44KHz.wav
3	94	2	1	0	C	1	1	890	1	Ⴐ	cut_a_stereo_44KHz.wav
3	95	4	3	2	I	2	0	1604	1	Ⴌ	cut_u_stereo_44KHz.wav
3	96	3	4	2	I	2	0	1058	0	Ⴒ	cut_k_stereo_44KHz.wav
3	97	4	4	2	I	1	0	890	1	Ⴌ	cut_k_stereo_44KHz.wav
3	98	1	2	0	C	1	1	1112	1	Ⴕ	cut_o_stereo_44KHz.wav
3	99	3	3	2	I	1	0	609	0	Ⴒ	cut_u_stereo_44KHz.wav
3	100	2	1	0	C	1	1	786	1	Ⴐ	cut_a_stereo_44KHz.wav
3	101	3	4	2	I	1	0	543	0	Ⴒ	cut_k_stereo_44KHz.wav
3	102	2	2	1	C	2	1	1111	1	Ⴐ	cut_o_stereo_44KHz.wav
3	103	1	1	1	C	2	1	750	1	Ⴕ	cut_a_stereo_44KHz.wav
3	104	4	3	2	I	1	0	1374	0	Ⴌ	cut_u_stereo_44KHz.wav
3	105	3	4	2	I	2	0	891	0	Ⴒ	cut_k_stereo_44KHz.wav
3	106	1	1	1	C	2	1	816	1	Ⴕ	cut_a_stereo_44KHz.wav
3	107	2	2	1	C	2	1	886	1	Ⴐ	cut_o_stereo_44KHz.wav
3	108	4	3	2	I	1	0	1285	0	Ⴌ	cut_u_stereo_44KHz.wav
3	109	2	1	0	C	1	1	1048	1	Ⴐ	cut_a_stereo_44KHz.wav
3	110	3	3	2	I	2	0	950	1	Ⴒ	cut_u_stereo_44KHz.wav
3	111	4	4	2	I	1	0	956	1	Ⴌ	cut_k_stereo_44KHz.wav
3	112	1	2	0	C	1	1	727	1	Ⴕ	cut_o_stereo_44KHz.wav
3	113	4	3	2	I	1	0	663	0	Ⴌ	cut_u_stereo_44KHz.wav
3	114	1	1	1	C	2	1	932	1	Ⴕ	cut_a_stereo_44KHz.wav
3	115	2	1	0	C	1	1	865	1	Ⴐ	cut_a_stereo_44KHz.wav
3	116	3	3	2	I	2	0	730	1	Ⴒ	cut_u_stereo_44KHz.wav
3	117	2	2	1	C	2	1	937	1	Ⴐ	cut_o_stereo_44KHz.wav
3	118	4	4	2	I	2	0	1043	0	Ⴌ	cut_k_stereo_44KHz.wav
3	119	3	4	2	I	1	0	880	0	Ⴒ	cut_k_stereo_44KHz.wav
3	120	1	2	0	C	1	1	800	1	Ⴕ	cut_o_stereo_44KHz.wav
3	121	3	4	2	I	1	0	1340	1	Ⴒ	cut_k_stereo_44KHz.wav
3	122	4	3	2	I	2	0	867	0	Ⴌ	cut_u_stereo_44KHz.wav
3	123	1	1	1	C	2	1	977	1	Ⴕ	cut_a_stereo_44KHz.wav
3	124	2	1	0	C	1	1	772	1	Ⴐ	cut_a_stereo_44KHz.wav
3	125	4	4	2	I	1	0	1189	1	Ⴌ	cut_k_stereo_44KHz.wav
3	126	2	2	1	C	2	1	789	1	Ⴐ	cut_o_stereo_44KHz.wav
3	127	1	2	0	C	1	1	775	1	Ⴕ	cut_o_stereo_44KHz.wav
3	128	3	3	2	I	1	0	1629	0	Ⴒ	cut_u_stereo_44KHz.wav
3	129	1	1	1	C	2	1	694	1	Ⴕ	cut_a_stereo_44KHz.wav
3	130	3	4	2	I	1	0	1080	1	Ⴒ	cut_k_stereo_44KHz.wav
3	131	4	3	2	I	2	0	1029	0	Ⴌ	cut_u_stereo_44KHz.wav
3	132	2	1	0	C	1	1	1507	1	Ⴐ	cut_a_stereo_44KHz.wav
3	133	4	4	2	I	1	0	848	1	Ⴌ	cut_k_stereo_44KHz.wav
3	134	3	3	2	I	1	0	1020	0	Ⴒ	cut_u_stereo_44KHz.wav
3	135	1	2	0	C	1	1	1238	1	Ⴕ	cut_o_stereo_44KHz.wav
3	136	2	2	1	C	2	1	779	1	Ⴐ	cut_o_stereo_44KHz.wav
3	137	4	4	2	I	1	0	1202	0	Ⴌ	cut_k_stereo_44KHz.wav
3	138	3	3	2	I	2	0	1305	1	Ⴒ	cut_u_stereo_44KHz.wav
3	139	1	2	0	C	1	1	625	1	Ⴕ	cut_o_stereo_44KHz.wav
3	140	2	2	1	C	2	1	963	1	Ⴐ	cut_o_stereo_44KHz.wav
3	141	3	4	2	I	2	0	1181	0	Ⴒ	cut_k_stereo_44KHz.wav
3	142	4	3	2	I	1	0	1590	0	Ⴌ	cut_u_stereo_44KHz.wav
3	143	2	1	0	C	1	1	1658	1	Ⴐ	cut_a_stereo_44KHz.wav
3	144	1	1	1	C	2	1	739	1	Ⴕ	cut_a_stereo_44KHz.wav
3	145	3	4	2	I	1	0	1286	1	Ⴒ	cut_k_stereo_44KHz.wav
3	146	1	1	1	C	2	1	807	1	Ⴕ	cut_a_stereo_44KHz.wav
3	147	4	4	2	I	1	0	1009	1	Ⴌ	cut_k_stereo_44KHz.wav
3	148	2	2	1	C	2	1	900	1	Ⴐ	cut_o_stereo_44KHz.wav
3	149	3	3	2	I	2	0	1675	1	Ⴒ	cut_u_stereo_44KHz.wav
3	150	1	2	0	C	1	1	1164	1	Ⴕ	cut_o_stereo_44KHz.wav
3	151	4	3	2	I	2	0	1042	1	Ⴌ	cut_u_stereo_44KHz.wav
3	152	2	1	0	C	1	1	837	1	Ⴐ	cut_a_stereo_44KHz.wav
3	153	3	4	2	I	1	0	663	1	Ⴒ	cut_k_stereo_44KHz.wav
3	154	1	2	0	C	1	1	830	1	Ⴕ	cut_o_stereo_44KHz.wav
3	155	2	2	1	C	2	1	787	1	Ⴐ	cut_o_stereo_44KHz.wav
3	156	4	4	2	I	1	0	786	0	Ⴌ	cut_k_stereo_44KHz.wav
3	157	1	1	1	C	2	1	1259	1	Ⴕ	cut_a_stereo_44KHz.wav
3	158	4	3	2	I	1	0	1090	0	Ⴌ	cut_u_stereo_44KHz.wav
3	159	3	3	2	I	1	0	884	0	Ⴒ	cut_u_stereo_44KHz.wav
3	160	2	1	0	C	1	1	1229	1	Ⴐ	cut_a_stereo_44KHz.wav
3	161	1	1	1	C	2	1	753	1	Ⴕ	cut_a_stereo_44KHz.wav
3	162	3	4	2	I	1	0	1646	0	Ⴒ	cut_k_stereo_44KHz.wav
3	163	4	4	2	I	1	0	873	0	Ⴌ	cut_k_stereo_44KHz.wav
3	164	2	1	0	C	1	1	1287	1	Ⴐ	cut_a_stereo_44KHz.wav
3	165	1	2	0	C	1	1	1296	1	Ⴕ	cut_o_stereo_44KHz.wav
3	166	3	3	2	I	1	0	889	1	Ⴒ	cut_u_stereo_44KHz.wav
3	167	4	3	2	I	1	0	579	1	Ⴌ	cut_u_stereo_44KHz.wav
3	168	2	2	1	C	1	0	1083	0	Ⴐ	cut_o_stereo_44KHz.wav
3	169	4	4	2	I	2	0	1555	1	Ⴌ	cut_k_stereo_44KHz.wav
3	170	2	1	0	C	1	1	840	1	Ⴐ	cut_a_stereo_44KHz.wav
3	171	1	1	1	C	2	1	862	1	Ⴕ	cut_a_stereo_44KHz.wav
3	172	3	3	2	I	2	0	1499	0	Ⴒ	cut_u_stereo_44KHz.wav
3	173	4	3	2	I	1	0	725	0	Ⴌ	cut_u_stereo_44KHz.wav
3	174	1	2	0	C	1	1	1140	1	Ⴕ	cut_o_stereo_44KHz.wav
3	175	2	2	1	C	2	1	1271	1	Ⴐ	cut_o_stereo_44KHz.wav
3	176	3	4	2	I	1	0	1467	1	Ⴒ	cut_k_stereo_44KHz.wav
3	177	2	2	1	C	2	1	882	1	Ⴐ	cut_o_stereo_44KHz.wav
3	178	3	3	2	I	1	0	1120	0	Ⴒ	cut_u_stereo_44KHz.wav
3	179	1	2	0	C	1	1	974	1	Ⴕ	cut_o_stereo_44KHz.wav
3	180	4	4	2	I	1	0	993	0	Ⴌ	cut_k_stereo_44KHz.wav
3	181	3	4	2	I	2	0	1439	1	Ⴒ	cut_k_stereo_44KHz.wav
3	182	4	3	2	I	1	0	1602	0	Ⴌ	cut_u_stereo_44KHz.wav
3	183	1	1	1	C	2	1	743	1	Ⴕ	cut_a_stereo_44KHz.wav
3	184	2	1	0	C	1	1	1389	1	Ⴐ	cut_a_stereo_44KHz.wav
3	185	1	2	0	C	1	1	708	1	Ⴕ	cut_o_stereo_44KHz.wav
3	186	4	4	2	I	2	0	641	1	Ⴌ	cut_k_stereo_44KHz.wav
3	187	2	2	1	C	2	1	1118	1	Ⴐ	cut_o_stereo_44KHz.wav
3	188	3	3	2	I	1	0	1323	1	Ⴒ	cut_u_stereo_44KHz.wav
3	189	4	3	2	I	1	0	1045	1	Ⴌ	cut_u_stereo_44KHz.wav
3	190	1	1	1	C	2	1	908	1	Ⴕ	cut_a_stereo_44KHz.wav
3	191	3	4	2	I	1	0	1158	0	Ⴒ	cut_k_stereo_44KHz.wav
3	192	2	1	0	C	1	1	730	1	Ⴐ	cut_a_stereo_44KHz.wav
3	193	4	3	2	I	1	0	744	1	Ⴌ	cut_u_stereo_44KHz.wav
3	194	3	3	2	I	1	0	597	0	Ⴒ	cut_u_stereo_44KHz.wav
3	195	2	1	0	C	1	1	890	1	Ⴐ	cut_a_stereo_44KHz.wav
3	196	1	1	1	C	2	1	923	1	Ⴕ	cut_a_stereo_44KHz.wav
3	197	2	2	1	C	2	1	1410	1	Ⴐ	cut_o_stereo_44KHz.wav
3	198	4	4	2	I	1	0	1024	0	Ⴌ	cut_k_stereo_44KHz.wav
3	199	3	4	2	I	2	0	977	0	Ⴒ	cut_k_stereo_44KHz.wav
3	200	1	2	0	C	1	1	830	1	Ⴕ	cut_o_stereo_44KHz.wav
4	1	1	1	1	C	2	1	1953	1	Ⴔ	cut_w_stereo_44KHz.wav
4	2	2	2	1	C	1	0	1474	0	Ⴖ	cut_g_stereo_44KHz.wav
4	3	4	3	2	I	2	0	1514	1	Ⴉ	cut_h_stereo_44KHz.wav
4	4	3	3	2	I	1	0	1159	1	Ⴏ	cut_h_stereo_44KHz.wav
4	5	4	4	2	I	2	0	1457	0	Ⴉ	cut_l_stereo_44KHz.wav
4	6	3	4	2	I	2	0	1149	0	Ⴏ	cut_l_stereo_44KHz.wav
4	7	2	1	0	C	2	0	941	0	Ⴖ	cut_w_stereo_44KHz.wav
4	8	1	2	0	C	1	1	1730	1	Ⴔ	cut_g_stereo_44KHz.wav
4	9	3	4	2	I	1	0	1137	0	Ⴏ	cut_l_stereo_44KHz.wav
4	10	2	1	0	C	2	0	1087	0	Ⴖ	cut_w_stereo_44KHz.wav
4	11	4	4	2	I	1	0	1677	1	Ⴉ	cut_l_stereo_44KHz.wav
4	12	1	1	1	C	2	1	807	1	Ⴔ	cut_w_stereo_44KHz.wav
4	13	3	3	2	I	1	0	1158	0	Ⴏ	cut_h_stereo_44KHz.wav
4	14	1	2	0	C	1	1	1029	1	Ⴔ	cut_g_stereo_44KHz.wav
4	15	4	3	2	I	2	0	1177	1	Ⴉ	cut_h_stereo_44KHz.wav
4	16	2	2	1	C	1	0	1187	0	Ⴖ	cut_g_stereo_44KHz.wav
4	17	3	4	2	I	2	0	1377	0	Ⴏ	cut_l_stereo_44KHz.wav
4	18	4	3	2	I	2	0	987	1	Ⴉ	cut_h_stereo_44KHz.wav
4	19	1	2	0	C	1	1	702	1	Ⴔ	cut_g_stereo_44KHz.wav
4	20	2	1	0	C	0	0	0	0	Ⴖ	cut_w_stereo_44KHz.wav
4	21	3	3	2	I	2	0	1102	1	Ⴏ	cut_h_stereo_44KHz.wav
4	22	4	4	2	I	1	0	1280	0	Ⴉ	cut_l_stereo_44KHz.wav
4	23	1	1	1	C	2	1	1232	1	Ⴔ	cut_w_stereo_44KHz.wav
4	24	2	2	1	C	2	1	1468	1	Ⴖ	cut_g_stereo_44KHz.wav
4	25	3	3	2	I	2	0	916	0	Ⴏ	cut_h_stereo_44KHz.wav
4	26	4	3	2	I	2	0	1035	0	Ⴉ	cut_h_stereo_44KHz.wav
4	27	2	1	0	C	1	1	1364	1	Ⴖ	cut_w_stereo_44KHz.wav
4	28	1	1	1	C	2	1	863	1	Ⴔ	cut_w_stereo_44KHz.wav
4	29	2	2	1	C	2	1	981	1	Ⴖ	cut_g_stereo_44KHz.wav
4	30	3	4	2	I	2	0	1048	0	Ⴏ	cut_l_stereo_44KHz.wav
4	31	1	2	0	C	1	1	1010	1	Ⴔ	cut_g_stereo_44KHz.wav
4	32	4	4	2	I	1	0	1487	0	Ⴉ	cut_l_stereo_44KHz.wav
4	33	2	1	0	C	2	0	1348	0	Ⴖ	cut_w_stereo_44KHz.wav
4	34	1	2	0	C	1	1	719	1	Ⴔ	cut_g_stereo_44KHz.wav
4	35	3	4	2	I	1	0	1127	0	Ⴏ	cut_l_stereo_44KHz.wav
4	36	4	4	2	I	1	0	1434	1	Ⴉ	cut_l_stereo_44KHz.wav
4	37	2	2	1	C	2	1	873	1	Ⴖ	cut_g_stereo_44KHz.wav
4	38	3	3	2	I	1	0	906	0	Ⴏ	cut_h_stereo_44KHz.wav
4	39	4	3	2	I	2	0	991	1	Ⴉ	cut_h_stereo_44KHz.wav
4	40	1	1	1	C	2	1	946	1	Ⴔ	cut_w_stereo_44KHz.wav
4	41	3	3	2	I	1	0	961	1	Ⴏ	cut_h_stereo_44KHz.wav
4	42	4	3	2	I	2	0	955	1	Ⴉ	cut_h_stereo_44KHz.wav
4	43	1	2	0	C	1	1	877	1	Ⴔ	cut_g_stereo_44KHz.wav
4	44	2	2	1	C	2	1	862	1	Ⴖ	cut_g_stereo_44KHz.wav
4	45	3	4	2	I	1	0	1398	0	Ⴏ	cut_l_stereo_44KHz.wav
4	46	4	4	2	I	2	0	1000	1	Ⴉ	cut_l_stereo_44KHz.wav
4	47	1	1	1	C	2	1	893	1	Ⴔ	cut_w_stereo_44KHz.wav
4	48	2	1	0	C	2	0	1151	0	Ⴖ	cut_w_stereo_44KHz.wav
4	49	1	1	1	C	2	1	812	1	Ⴔ	cut_w_stereo_44KHz.wav
4	50	2	2	1	C	2	1	940	1	Ⴖ	cut_g_stereo_44KHz.wav
4	51	4	3	2	I	2	0	1178	0	Ⴉ	cut_h_stereo_44KHz.wav
4	52	3	3	2	I	1	0	1197	1	Ⴏ	cut_h_stereo_44KHz.wav
4	53	1	2	0	C	0	0	0	0	Ⴔ	cut_g_stereo_44KHz.wav
4	54	4	4	2	I	2	0	1668	0	Ⴉ	cut_l_stereo_44KHz.wav
4	55	3	4	2	I	2	0	1923	1	Ⴏ	cut_l_stereo_44KHz.wav
4	56	2	1	0	C	2	0	928	0	Ⴖ	cut_w_stereo_44KHz.wav
4	57	1	2	0	C	1	1	533	1	Ⴔ	cut_g_stereo_44KHz.wav
4	58	4	4	2	I	1	0	837	0	Ⴉ	cut_l_stereo_44KHz.wav
4	59	3	4	2	I	1	0	1402	1	Ⴏ	cut_l_stereo_44KHz.wav
4	60	2	2	1	C	2	1	1344	1	Ⴖ	cut_g_stereo_44KHz.wav
4	61	4	3	2	I	2	0	1835	0	Ⴉ	cut_h_stereo_44KHz.wav
4	62	3	3	2	I	1	0	1355	0	Ⴏ	cut_h_stereo_44KHz.wav
4	63	1	1	1	C	2	1	835	1	Ⴔ	cut_w_stereo_44KHz.wav
4	64	2	1	0	C	2	0	1131	0	Ⴖ	cut_w_stereo_44KHz.wav
4	65	4	4	2	I	2	0	1883	0	Ⴉ	cut_l_stereo_44KHz.wav
4	66	3	3	2	I	2	0	1049	0	Ⴏ	cut_h_stereo_44KHz.wav
4	67	2	2	1	C	2	1	1211	1	Ⴖ	cut_g_stereo_44KHz.wav
4	68	1	2	0	C	1	1	666	1	Ⴔ	cut_g_stereo_44KHz.wav
4	69	4	3	2	I	2	0	1565	0	Ⴉ	cut_h_stereo_44KHz.wav
4	70	2	1	0	C	1	1	1069	1	Ⴖ	cut_w_stereo_44KHz.wav
4	71	1	1	1	C	2	1	804	1	Ⴔ	cut_w_stereo_44KHz.wav
4	72	3	4	2	I	1	0	1233	0	Ⴏ	cut_l_stereo_44KHz.wav
4	73	1	1	1	C	2	1	767	1	Ⴔ	cut_w_stereo_44KHz.wav
4	74	2	2	1	C	2	1	929	1	Ⴖ	cut_g_stereo_44KHz.wav
4	75	3	4	2	I	1	0	1255	1	Ⴏ	cut_l_stereo_44KHz.wav
4	76	4	4	2	I	1	0	1083	0	Ⴉ	cut_l_stereo_44KHz.wav
4	77	3	3	2	I	2	0	943	0	Ⴏ	cut_h_stereo_44KHz.wav
4	78	4	3	2	I	1	0	1764	0	Ⴉ	cut_h_stereo_44KHz.wav
4	79	1	2	0	C	1	1	849	1	Ⴔ	cut_g_stereo_44KHz.wav
4	80	2	1	0	C	1	1	1833	1	Ⴖ	cut_w_stereo_44KHz.wav
4	81	3	4	2	I	2	0	1024	0	Ⴏ	cut_l_stereo_44KHz.wav
4	82	2	1	0	C	1	1	1064	1	Ⴖ	cut_w_stereo_44KHz.wav
4	83	1	2	0	C	1	1	632	1	Ⴔ	cut_g_stereo_44KHz.wav
4	84	4	4	2	I	2	0	1147	1	Ⴉ	cut_l_stereo_44KHz.wav
4	85	3	3	2	I	2	0	953	0	Ⴏ	cut_h_stereo_44KHz.wav
4	86	1	1	1	C	2	1	789	1	Ⴔ	cut_w_stereo_44KHz.wav
4	87	4	3	2	I	2	0	1373	1	Ⴉ	cut_h_stereo_44KHz.wav
4	88	2	2	1	C	2	1	787	1	Ⴖ	cut_g_stereo_44KHz.wav
4	89	3	4	2	I	1	0	1143	1	Ⴏ	cut_l_stereo_44KHz.wav
4	90	4	4	2	I	2	0	1463	0	Ⴉ	cut_l_stereo_44KHz.wav
4	91	1	2	0	C	1	1	700	1	Ⴔ	cut_g_stereo_44KHz.wav
4	92	2	2	1	C	0	0	0	0	Ⴖ	cut_g_stereo_44KHz.wav
4	93	3	3	2	I	2	0	892	0	Ⴏ	cut_h_stereo_44KHz.wav
4	94	2	1	0	C	1	1	941	1	Ⴖ	cut_w_stereo_44KHz.wav
4	95	1	1	1	C	2	1	694	1	Ⴔ	cut_w_stereo_44KHz.wav
4	96	4	3	2	I	2	0	1182	0	Ⴉ	cut_h_stereo_44KHz.wav
4	97	1	1	1	C	2	1	802	1	Ⴔ	cut_w_stereo_44KHz.wav
4	98	4	4	2	I	1	0	1628	0	Ⴉ	cut_l_stereo_44KHz.wav
4	99	2	2	1	C	2	1	759	1	Ⴖ	cut_g_stereo_44KHz.wav
4	100	3	4	2	I	1	0	1825	1	Ⴏ	cut_l_stereo_44KHz.wav
4	101	1	2	0	C	1	1	949	1	Ⴔ	cut_g_stereo_44KHz.wav
4	102	3	3	2	I	2	0	1009	1	Ⴏ	cut_h_stereo_44KHz.wav
4	103	4	3	2	I	1	0	752	1	Ⴉ	cut_h_stereo_44KHz.wav
4	104	2	1	0	C	1	1	1435	1	Ⴖ	cut_w_stereo_44KHz.wav
4	105	4	4	2	I	2	0	1658	1	Ⴉ	cut_l_stereo_44KHz.wav
4	106	1	2	0	C	1	1	1173	1	Ⴔ	cut_g_stereo_44KHz.wav
4	107	2	2	1	C	2	1	1061	1	Ⴖ	cut_g_stereo_44KHz.wav
4	108	3	4	2	I	2	0	1247	1	Ⴏ	cut_l_stereo_44KHz.wav
4	109	4	3	2	I	1	0	779	0	Ⴉ	cut_h_stereo_44KHz.wav
4	110	3	3	2	I	1	0	1025	1	Ⴏ	cut_h_stereo_44KHz.wav
4	111	1	1	1	C	2	1	738	1	Ⴔ	cut_w_stereo_44KHz.wav
4	112	2	1	0	C	1	1	901	1	Ⴖ	cut_w_stereo_44KHz.wav
4	113	1	2	0	C	1	1	846	1	Ⴔ	cut_g_stereo_44KHz.wav
4	114	2	1	0	C	1	1	906	1	Ⴖ	cut_w_stereo_44KHz.wav
4	115	4	3	2	I	2	0	1305	1	Ⴉ	cut_h_stereo_44KHz.wav
4	116	3	3	2	I	1	0	647	1	Ⴏ	cut_h_stereo_44KHz.wav
4	117	1	1	1	C	2	1	761	1	Ⴔ	cut_w_stereo_44KHz.wav
4	118	4	4	2	I	2	0	1556	0	Ⴉ	cut_l_stereo_44KHz.wav
4	119	2	2	1	C	2	1	1016	1	Ⴖ	cut_g_stereo_44KHz.wav
4	120	3	4	2	I	1	0	1536	1	Ⴏ	cut_l_stereo_44KHz.wav
4	121	2	1	0	C	1	1	1664	1	Ⴖ	cut_w_stereo_44KHz.wav
4	122	3	4	2	I	1	0	1126	0	Ⴏ	cut_l_stereo_44KHz.wav
4	123	1	1	1	C	2	1	891	1	Ⴔ	cut_w_stereo_44KHz.wav
4	124	4	4	2	I	2	0	1361	1	Ⴉ	cut_l_stereo_44KHz.wav
4	125	3	3	2	I	1	0	1239	1	Ⴏ	cut_h_stereo_44KHz.wav
4	126	2	2	1	C	2	1	904	1	Ⴖ	cut_g_stereo_44KHz.wav
4	127	1	2	0	C	1	1	971	1	Ⴔ	cut_g_stereo_44KHz.wav
4	128	4	3	2	I	1	0	1798	0	Ⴉ	cut_h_stereo_44KHz.wav
4	129	1	2	0	C	1	1	1269	1	Ⴔ	cut_g_stereo_44KHz.wav
4	130	2	2	1	C	2	1	1237	1	Ⴖ	cut_g_stereo_44KHz.wav
4	131	3	4	2	I	1	0	1015	1	Ⴏ	cut_l_stereo_44KHz.wav
4	132	4	4	2	I	1	0	1308	0	Ⴉ	cut_l_stereo_44KHz.wav
4	133	1	1	1	C	2	1	889	1	Ⴔ	cut_w_stereo_44KHz.wav
4	134	3	3	2	I	1	0	1534	0	Ⴏ	cut_h_stereo_44KHz.wav
4	135	2	1	0	C	1	1	1072	1	Ⴖ	cut_w_stereo_44KHz.wav
4	136	4	3	2	I	2	0	1243	0	Ⴉ	cut_h_stereo_44KHz.wav
4	137	1	1	1	C	2	1	1106	1	Ⴔ	cut_w_stereo_44KHz.wav
4	138	4	4	2	I	1	0	1073	1	Ⴉ	cut_l_stereo_44KHz.wav
4	139	2	2	1	C	2	1	1655	1	Ⴖ	cut_g_stereo_44KHz.wav
4	140	3	4	2	I	1	0	1153	1	Ⴏ	cut_l_stereo_44KHz.wav
4	141	1	2	0	C	1	1	910	1	Ⴔ	cut_g_stereo_44KHz.wav
4	142	4	3	2	I	0	0	0	0	Ⴉ	cut_h_stereo_44KHz.wav
4	143	2	1	0	C	1	1	1009	1	Ⴖ	cut_w_stereo_44KHz.wav
4	144	3	3	2	I	1	0	986	0	Ⴏ	cut_h_stereo_44KHz.wav
4	145	2	2	1	C	0	0	0	0	Ⴖ	cut_g_stereo_44KHz.wav
4	146	4	3	2	I	2	0	1116	1	Ⴉ	cut_h_stereo_44KHz.wav
4	147	1	2	0	C	0	0	0	0	Ⴔ	cut_g_stereo_44KHz.wav
4	148	3	4	2	I	1	0	1345	1	Ⴏ	cut_l_stereo_44KHz.wav
4	149	1	1	1	C	2	1	1024	1	Ⴔ	cut_w_stereo_44KHz.wav
4	150	2	1	0	C	1	1	1027	1	Ⴖ	cut_w_stereo_44KHz.wav
4	151	4	4	2	I	2	0	1007	1	Ⴉ	cut_l_stereo_44KHz.wav
4	152	3	3	2	I	1	0	1293	0	Ⴏ	cut_h_stereo_44KHz.wav
4	153	2	2	1	C	2	1	901	1	Ⴖ	cut_g_stereo_44KHz.wav
4	154	1	1	1	C	2	1	861	1	Ⴔ	cut_w_stereo_44KHz.wav
4	155	3	4	2	I	2	0	961	1	Ⴏ	cut_l_stereo_44KHz.wav
4	156	4	3	2	I	1	0	1304	0	Ⴉ	cut_h_stereo_44KHz.wav
4	157	3	3	2	I	1	0	1623	0	Ⴏ	cut_h_stereo_44KHz.wav
4	158	1	2	0	C	1	1	1087	1	Ⴔ	cut_g_stereo_44KHz.wav
4	159	4	4	2	I	2	0	1761	0	Ⴉ	cut_l_stereo_44KHz.wav
4	160	2	1	0	C	1	1	1527	1	Ⴖ	cut_w_stereo_44KHz.wav
4	161	4	4	2	I	2	0	1404	1	Ⴉ	cut_l_stereo_44KHz.wav
4	162	3	3	2	I	1	0	1155	1	Ⴏ	cut_h_stereo_44KHz.wav
4	163	2	1	0	C	1	1	1020	1	Ⴖ	cut_w_stereo_44KHz.wav
4	164	1	2	0	C	0	0	0	0	Ⴔ	cut_g_stereo_44KHz.wav
4	165	3	4	2	I	1	0	1399	1	Ⴏ	cut_l_stereo_44KHz.wav
4	166	4	3	2	I	0	0	0	0	Ⴉ	cut_h_stereo_44KHz.wav
4	167	2	2	1	C	2	1	913	1	Ⴖ	cut_g_stereo_44KHz.wav
4	168	1	1	1	C	2	1	1372	1	Ⴔ	cut_w_stereo_44KHz.wav
4	169	4	4	2	I	2	0	1735	0	Ⴉ	cut_l_stereo_44KHz.wav
4	170	3	4	2	I	1	0	1002	0	Ⴏ	cut_l_stereo_44KHz.wav
4	171	2	2	1	C	2	1	1008	1	Ⴖ	cut_g_stereo_44KHz.wav
4	172	1	1	1	C	2	1	1148	1	Ⴔ	cut_w_stereo_44KHz.wav
4	173	3	3	2	I	1	0	1960	0	Ⴏ	cut_h_stereo_44KHz.wav
4	174	1	2	0	C	1	1	1470	1	Ⴔ	cut_g_stereo_44KHz.wav
4	175	2	1	0	C	1	1	1239	1	Ⴖ	cut_w_stereo_44KHz.wav
4	176	4	3	2	I	1	0	1199	1	Ⴉ	cut_h_stereo_44KHz.wav
4	177	2	2	1	C	2	1	1152	1	Ⴖ	cut_g_stereo_44KHz.wav
4	178	4	4	2	I	1	0	1347	1	Ⴉ	cut_l_stereo_44KHz.wav
4	179	3	4	2	I	1	0	1350	1	Ⴏ	cut_l_stereo_44KHz.wav
4	180	1	1	1	C	2	1	868	1	Ⴔ	cut_w_stereo_44KHz.wav
4	181	4	3	2	I	1	0	1009	1	Ⴉ	cut_h_stereo_44KHz.wav
4	182	2	1	0	C	2	0	1005	0	Ⴖ	cut_w_stereo_44KHz.wav
4	183	3	3	2	I	1	0	880	1	Ⴏ	cut_h_stereo_44KHz.wav
4	184	1	2	0	C	1	1	822	1	Ⴔ	cut_g_stereo_44KHz.wav
4	185	4	3	2	I	2	0	1234	1	Ⴉ	cut_h_stereo_44KHz.wav
4	186	3	3	2	I	1	0	993	1	Ⴏ	cut_h_stereo_44KHz.wav
4	187	1	1	1	C	2	1	884	1	Ⴔ	cut_w_stereo_44KHz.wav
4	188	2	2	1	C	2	1	874	1	Ⴖ	cut_g_stereo_44KHz.wav
4	189	1	2	0	C	1	1	828	1	Ⴔ	cut_g_stereo_44KHz.wav
4	190	3	4	2	I	2	0	805	0	Ⴏ	cut_l_stereo_44KHz.wav
4	191	2	1	0	C	1	1	976	1	Ⴖ	cut_w_stereo_44KHz.wav
4	192	4	4	2	I	1	0	1063	1	Ⴉ	cut_l_stereo_44KHz.wav
4	193	3	4	2	I	1	0	918	1	Ⴏ	cut_l_stereo_44KHz.wav
4	194	2	1	0	C	1	1	777	1	Ⴖ	cut_w_stereo_44KHz.wav
4	195	1	1	1	C	2	1	916	1	Ⴔ	cut_w_stereo_44KHz.wav
4	196	4	3	2	I	1	0	1178	1	Ⴉ	cut_h_stereo_44KHz.wav
4	197	2	2	1	C	2	1	963	1	Ⴖ	cut_g_stereo_44KHz.wav
4	198	4	4	2	I	2	0	811	0	Ⴉ	cut_l_stereo_44KHz.wav
4	199	3	3	2	I	1	0	821	0	Ⴏ	cut_h_stereo_44KHz.wav
4	200	1	2	0	C	1	1	791	1	Ⴔ	cut_g_stereo_44KHz.wav
