block	trial	Vstim	Astim	match	C/I	resp	result	RT	fb	V-file	A-file
RL

0	1	1	2	0	C	2	1	1461	1	poli_8sides 23_whiteLine3.jpg	Practice1_b27_cut1_stereo_44KHz.wav
0	2	1	1	1	C	1	1	780	1	poli_8sides 23_whiteLine3.jpg	Practice3_b26_cut1_stereo_44KHz.wav
0	3	2	4	0	C	2	1	680	1	poli_8sides 21_whiteLine3.jpg	Practice2_b27_cut2_stereo_44KHz.wav
0	4	2	3	1	C	1	1	820	1	poli_8sides 21_whiteLine3.jpg	Practice4_b26_stereo_44KHz.wav
0	5	2	4	0	C	2	1	590	1	poli_8sides 21_whiteLine3.jpg	Practice2_b27_cut2_stereo_44KHz.wav
0	6	1	1	1	C	1	1	626	1	poli_8sides 23_whiteLine3.jpg	Practice3_b26_cut1_stereo_44KHz.wav
0	7	1	2	0	C	1	0	801	0	poli_8sides 23_whiteLine3.jpg	Practice1_b27_cut1_stereo_44KHz.wav
0	8	2	3	1	C	1	1	747	1	poli_8sides 21_whiteLine3.jpg	Practice4_b26_stereo_44KHz.wav
0	9	2	4	0	C	2	1	545	1	poli_8sides 21_whiteLine3.jpg	Practice2_b27_cut2_stereo_44KHz.wav
0	10	2	3	1	C	1	1	580	1	poli_8sides 21_whiteLine3.jpg	Practice4_b26_stereo_44KHz.wav
0	11	1	2	0	C	1	0	614	0	poli_8sides 23_whiteLine3.jpg	Practice1_b27_cut1_stereo_44KHz.wav
0	12	1	1	1	C	2	0	610	0	poli_8sides 23_whiteLine3.jpg	Practice3_b26_cut1_stereo_44KHz.wav
0	13	2	4	0	C	2	1	566	1	poli_8sides 21_whiteLine3.jpg	Practice2_b27_cut2_stereo_44KHz.wav
0	14	1	1	1	C	1	1	893	1	poli_8sides 23_whiteLine3.jpg	Practice3_b26_cut1_stereo_44KHz.wav
0	15	1	2	0	C	2	1	473	1	poli_8sides 23_whiteLine3.jpg	Practice1_b27_cut1_stereo_44KHz.wav
0	16	2	3	1	C	1	1	528	1	poli_8sides 21_whiteLine3.jpg	Practice4_b26_stereo_44KHz.wav
0	17	2	3	1	C	1	1	779	1	poli_8sides 21_whiteLine3.jpg	Practice4_b26_stereo_44KHz.wav
0	18	2	4	0	C	2	1	508	1	poli_8sides 21_whiteLine3.jpg	Practice2_b27_cut2_stereo_44KHz.wav
0	19	1	2	0	C	1	0	471	0	poli_8sides 23_whiteLine3.jpg	Practice1_b27_cut1_stereo_44KHz.wav
0	20	1	1	1	C	2	0	584	0	poli_8sides 23_whiteLine3.jpg	Practice3_b26_cut1_stereo_44KHz.wav
0	21	2	4	0	C	2	1	504	1	poli_8sides 21_whiteLine3.jpg	Practice2_b27_cut2_stereo_44KHz.wav
0	22	1	1	1	C	1	1	671	1	poli_8sides 23_whiteLine3.jpg	Practice3_b26_cut1_stereo_44KHz.wav
0	23	1	2	0	C	2	1	662	1	poli_8sides 23_whiteLine3.jpg	Practice1_b27_cut1_stereo_44KHz.wav
0	24	2	3	1	C	1	1	575	1	poli_8sides 21_whiteLine3.jpg	Practice4_b26_stereo_44KHz.wav
0	25	1	1	1	C	1	1	777	1	poli_8sides 23_whiteLine3.jpg	Practice3_b26_cut1_stereo_44KHz.wav
0	26	2	3	1	C	2	0	470	0	poli_8sides 21_whiteLine3.jpg	Practice4_b26_stereo_44KHz.wav
0	27	2	4	0	C	1	0	826	0	poli_8sides 21_whiteLine3.jpg	Practice2_b27_cut2_stereo_44KHz.wav
0	28	1	2	0	C	2	1	352	1	poli_8sides 23_whiteLine3.jpg	Practice1_b27_cut1_stereo_44KHz.wav
0	29	1	2	0	C	1	0	532	0	poli_8sides 23_whiteLine3.jpg	Practice1_b27_cut1_stereo_44KHz.wav
0	30	1	1	1	C	2	0	448	0	poli_8sides 23_whiteLine3.jpg	Practice3_b26_cut1_stereo_44KHz.wav
avg_resp = 672
1	1	3	3	2	I	1	0	707	1	poli_8sides 11_whiteLine3.jpg	MediumShort_e16_cut1_stereo_44KHz.wav
1	2	1	2	0	C	2	1	604	1	poli_8sides 7_whiteLine3.jpg	MediumShort_e22_cut1_stereo_44KHz.wav
1	3	2	1	0	C	1	0	573	0	poli_8sides 3_whiteLine3.jpg	MediumShort_b16_cut3_MS_stereo_44KHz.wav
1	4	4	4	2	I	1	0	844	0	poli_8sides 1_whiteLine3.jpg	MediumShort_b10_cut1_MS_stereo_44KHz.wav
1	5	2	2	1	C	2	0	492	0	poli_8sides 3_whiteLine3.jpg	MediumShort_e22_cut1_stereo_44KHz.wav
1	6	1	1	1	C	2	0	565	0	poli_8sides 7_whiteLine3.jpg	MediumShort_b16_cut3_MS_stereo_44KHz.wav
1	7	4	3	2	I	1	0	555	0	poli_8sides 1_whiteLine3.jpg	MediumShort_e16_cut1_stereo_44KHz.wav
1	8	3	4	2	I	2	0	468	0	poli_8sides 11_whiteLine3.jpg	MediumShort_b10_cut1_MS_stereo_44KHz.wav
1	9	1	2	0	C	2	1	509	1	poli_8sides 7_whiteLine3.jpg	MediumShort_e22_cut1_stereo_44KHz.wav
1	10	4	4	2	I	2	0	681	1	poli_8sides 1_whiteLine3.jpg	MediumShort_b10_cut1_MS_stereo_44KHz.wav
1	11	2	2	1	C	2	0	532	0	poli_8sides 3_whiteLine3.jpg	MediumShort_e22_cut1_stereo_44KHz.wav
1	12	3	4	2	I	2	0	496	0	poli_8sides 11_whiteLine3.jpg	MediumShort_b10_cut1_MS_stereo_44KHz.wav
1	13	1	1	1	C	1	1	530	1	poli_8sides 7_whiteLine3.jpg	MediumShort_b16_cut3_MS_stereo_44KHz.wav
1	14	2	1	0	C	2	1	533	1	poli_8sides 3_whiteLine3.jpg	MediumShort_b16_cut3_MS_stereo_44KHz.wav
1	15	3	3	2	I	2	0	538	0	poli_8sides 11_whiteLine3.jpg	MediumShort_e16_cut1_stereo_44KHz.wav
1	16	4	3	2	I	2	0	576	1	poli_8sides 1_whiteLine3.jpg	MediumShort_e16_cut1_stereo_44KHz.wav
1	17	3	4	2	I	2	0	655	1	poli_8sides 11_whiteLine3.jpg	MediumShort_b10_cut1_MS_stereo_44KHz.wav
1	18	2	2	1	C	2	0	748	0	poli_8sides 3_whiteLine3.jpg	MediumShort_e22_cut1_stereo_44KHz.wav
1	19	1	1	1	C	1	1	661	1	poli_8sides 7_whiteLine3.jpg	MediumShort_b16_cut3_MS_stereo_44KHz.wav
1	20	4	3	2	I	2	0	623	0	poli_8sides 1_whiteLine3.jpg	MediumShort_e16_cut1_stereo_44KHz.wav
1	21	1	2	0	C	2	1	583	1	poli_8sides 7_whiteLine3.jpg	MediumShort_e22_cut1_stereo_44KHz.wav
1	22	3	3	2	I	2	0	788	0	poli_8sides 11_whiteLine3.jpg	MediumShort_e16_cut1_stereo_44KHz.wav
1	23	4	4	2	I	1	0	398	1	poli_8sides 1_whiteLine3.jpg	MediumShort_b10_cut1_MS_stereo_44KHz.wav
1	24	2	1	0	C	2	1	483	1	poli_8sides 3_whiteLine3.jpg	MediumShort_b16_cut3_MS_stereo_44KHz.wav
1	25	1	2	0	C	2	1	664	1	poli_8sides 7_whiteLine3.jpg	MediumShort_e22_cut1_stereo_44KHz.wav
1	26	3	3	2	I	2	0	512	1	poli_8sides 11_whiteLine3.jpg	MediumShort_e16_cut1_stereo_44KHz.wav
1	27	4	3	2	I	1	0	756	0	poli_8sides 1_whiteLine3.jpg	MediumShort_e16_cut1_stereo_44KHz.wav
1	28	2	2	1	C	2	0	584	0	poli_8sides 3_whiteLine3.jpg	MediumShort_e22_cut1_stereo_44KHz.wav
1	29	3	4	2	I	2	0	561	1	poli_8sides 11_whiteLine3.jpg	MediumShort_b10_cut1_MS_stereo_44KHz.wav
1	30	2	1	0	C	2	1	555	1	poli_8sides 3_whiteLine3.jpg	MediumShort_b16_cut3_MS_stereo_44KHz.wav
1	31	1	1	1	C	1	1	359	1	poli_8sides 7_whiteLine3.jpg	MediumShort_b16_cut3_MS_stereo_44KHz.wav
1	32	4	4	2	I	2	0	489	1	poli_8sides 1_whiteLine3.jpg	MediumShort_b10_cut1_MS_stereo_44KHz.wav
1	33	3	3	2	I	1	0	653	1	poli_8sides 11_whiteLine3.jpg	MediumShort_e16_cut1_stereo_44KHz.wav
1	34	4	4	2	I	2	0	452	1	poli_8sides 1_whiteLine3.jpg	MediumShort_b10_cut1_MS_stereo_44KHz.wav
1	35	1	2	0	C	1	0	527	0	poli_8sides 7_whiteLine3.jpg	MediumShort_e22_cut1_stereo_44KHz.wav
1	36	2	2	1	C	2	0	522	0	poli_8sides 3_whiteLine3.jpg	MediumShort_e22_cut1_stereo_44KHz.wav
1	37	1	1	1	C	1	1	799	1	poli_8sides 7_whiteLine3.jpg	MediumShort_b16_cut3_MS_stereo_44KHz.wav
1	38	2	1	0	C	2	1	637	1	poli_8sides 3_whiteLine3.jpg	MediumShort_b16_cut3_MS_stereo_44KHz.wav
1	39	4	3	2	I	1	0	557	1	poli_8sides 1_whiteLine3.jpg	MediumShort_e16_cut1_stereo_44KHz.wav
1	40	3	4	2	I	2	0	349	1	poli_8sides 11_whiteLine3.jpg	MediumShort_b10_cut1_MS_stereo_44KHz.wav
1	41	4	4	2	I	2	0	507	0	poli_8sides 1_whiteLine3.jpg	MediumShort_b10_cut1_MS_stereo_44KHz.wav
1	42	3	4	2	I	2	0	556	1	poli_8sides 11_whiteLine3.jpg	MediumShort_b10_cut1_MS_stereo_44KHz.wav
1	43	1	2	0	C	1	0	333	0	poli_8sides 7_whiteLine3.jpg	MediumShort_e22_cut1_stereo_44KHz.wav
1	44	2	1	0	C	2	1	667	1	poli_8sides 3_whiteLine3.jpg	MediumShort_b16_cut3_MS_stereo_44KHz.wav
1	45	4	3	2	I	2	0	754	0	poli_8sides 1_whiteLine3.jpg	MediumShort_e16_cut1_stereo_44KHz.wav
1	46	1	1	1	C	1	1	728	1	poli_8sides 7_whiteLine3.jpg	MediumShort_b16_cut3_MS_stereo_44KHz.wav
1	47	2	2	1	C	2	0	971	0	poli_8sides 3_whiteLine3.jpg	MediumShort_e22_cut1_stereo_44KHz.wav
1	48	3	3	2	I	2	0	589	0	poli_8sides 11_whiteLine3.jpg	MediumShort_e16_cut1_stereo_44KHz.wav
1	49	1	1	1	C	2	0	1014	0	poli_8sides 7_whiteLine3.jpg	MediumShort_b16_cut3_MS_stereo_44KHz.wav
1	50	2	2	1	C	2	0	683	0	poli_8sides 3_whiteLine3.jpg	MediumShort_e22_cut1_stereo_44KHz.wav
1	51	4	3	2	I	2	0	589	0	poli_8sides 1_whiteLine3.jpg	MediumShort_e16_cut1_stereo_44KHz.wav
1	52	3	3	2	I	2	0	498	0	poli_8sides 11_whiteLine3.jpg	MediumShort_e16_cut1_stereo_44KHz.wav
1	53	1	2	0	C	2	1	563	1	poli_8sides 7_whiteLine3.jpg	MediumShort_e22_cut1_stereo_44KHz.wav
1	54	4	4	2	I	2	0	629	0	poli_8sides 1_whiteLine3.jpg	MediumShort_b10_cut1_MS_stereo_44KHz.wav
1	55	3	4	2	I	2	0	511	1	poli_8sides 11_whiteLine3.jpg	MediumShort_b10_cut1_MS_stereo_44KHz.wav
1	56	2	1	0	C	1	0	721	0	poli_8sides 3_whiteLine3.jpg	MediumShort_b16_cut3_MS_stereo_44KHz.wav
1	57	3	4	2	I	2	0	440	0	poli_8sides 11_whiteLine3.jpg	MediumShort_b10_cut1_MS_stereo_44KHz.wav
1	58	4	4	2	I	2	0	681	0	poli_8sides 1_whiteLine3.jpg	MediumShort_b10_cut1_MS_stereo_44KHz.wav
1	59	2	2	1	C	2	0	644	0	poli_8sides 3_whiteLine3.jpg	MediumShort_e22_cut1_stereo_44KHz.wav
1	60	1	1	1	C	2	0	908	0	poli_8sides 7_whiteLine3.jpg	MediumShort_b16_cut3_MS_stereo_44KHz.wav
1	61	2	1	0	C	1	0	795	0	poli_8sides 3_whiteLine3.jpg	MediumShort_b16_cut3_MS_stereo_44KHz.wav
1	62	3	3	2	I	2	0	818	0	poli_8sides 11_whiteLine3.jpg	MediumShort_e16_cut1_stereo_44KHz.wav
1	63	1	2	0	C	2	1	842	1	poli_8sides 7_whiteLine3.jpg	MediumShort_e22_cut1_stereo_44KHz.wav
1	64	4	3	2	I	2	0	918	1	poli_8sides 1_whiteLine3.jpg	MediumShort_e16_cut1_stereo_44KHz.wav
1	65	1	2	0	C	2	1	910	1	poli_8sides 7_whiteLine3.jpg	MediumShort_e22_cut1_stereo_44KHz.wav
1	66	4	4	2	I	2	0	1080	0	poli_8sides 1_whiteLine3.jpg	MediumShort_b10_cut1_MS_stereo_44KHz.wav
1	67	2	2	1	C	2	0	969	0	poli_8sides 3_whiteLine3.jpg	MediumShort_e22_cut1_stereo_44KHz.wav
1	68	3	3	2	I	2	0	725	0	poli_8sides 11_whiteLine3.jpg	MediumShort_e16_cut1_stereo_44KHz.wav
1	69	4	3	2	I	2	0	856	1	poli_8sides 1_whiteLine3.jpg	MediumShort_e16_cut1_stereo_44KHz.wav
1	70	2	1	0	C	1	0	880	0	poli_8sides 3_whiteLine3.jpg	MediumShort_b16_cut3_MS_stereo_44KHz.wav
1	71	3	4	2	I	1	0	984	1	poli_8sides 11_whiteLine3.jpg	MediumShort_b10_cut1_MS_stereo_44KHz.wav
1	72	1	1	1	C	2	0	1016	0	poli_8sides 7_whiteLine3.jpg	MediumShort_b16_cut3_MS_stereo_44KHz.wav
1	73	3	4	2	I	1	0	946	0	poli_8sides 11_whiteLine3.jpg	MediumShort_b10_cut1_MS_stereo_44KHz.wav
1	74	1	1	1	C	2	0	549	0	poli_8sides 7_whiteLine3.jpg	MediumShort_b16_cut3_MS_stereo_44KHz.wav
1	75	4	3	2	I	1	0	796	0	poli_8sides 1_whiteLine3.jpg	MediumShort_e16_cut1_stereo_44KHz.wav
1	76	2	1	0	C	2	1	1214	1	poli_8sides 3_whiteLine3.jpg	MediumShort_b16_cut3_MS_stereo_44KHz.wav
1	77	3	3	2	I	2	0	962	1	poli_8sides 11_whiteLine3.jpg	MediumShort_e16_cut1_stereo_44KHz.wav
1	78	4	4	2	I	1	0	728	0	poli_8sides 1_whiteLine3.jpg	MediumShort_b10_cut1_MS_stereo_44KHz.wav
1	79	2	2	1	C	2	0	848	0	poli_8sides 3_whiteLine3.jpg	MediumShort_e22_cut1_stereo_44KHz.wav
1	80	1	2	0	C	2	1	913	1	poli_8sides 7_whiteLine3.jpg	MediumShort_e22_cut1_stereo_44KHz.wav
1	81	2	2	1	C	1	1	617	1	poli_8sides 3_whiteLine3.jpg	MediumShort_e22_cut1_stereo_44KHz.wav
1	82	3	4	2	I	2	0	900	0	poli_8sides 11_whiteLine3.jpg	MediumShort_b10_cut1_MS_stereo_44KHz.wav
1	83	4	4	2	I	2	0	777	0	poli_8sides 1_whiteLine3.jpg	MediumShort_b10_cut1_MS_stereo_44KHz.wav
1	84	1	1	1	C	2	0	618	0	poli_8sides 7_whiteLine3.jpg	MediumShort_b16_cut3_MS_stereo_44KHz.wav
1	85	3	3	2	I	2	0	922	0	poli_8sides 11_whiteLine3.jpg	MediumShort_e16_cut1_stereo_44KHz.wav
1	86	4	3	2	I	1	0	772	1	poli_8sides 1_whiteLine3.jpg	MediumShort_e16_cut1_stereo_44KHz.wav
1	87	2	1	0	C	1	0	849	0	poli_8sides 3_whiteLine3.jpg	MediumShort_b16_cut3_MS_stereo_44KHz.wav
1	88	1	2	0	C	2	1	686	1	poli_8sides 7_whiteLine3.jpg	MediumShort_e22_cut1_stereo_44KHz.wav
1	89	2	2	1	C	1	1	947	1	poli_8sides 3_whiteLine3.jpg	MediumShort_e22_cut1_stereo_44KHz.wav
1	90	1	2	0	C	2	1	802	1	poli_8sides 7_whiteLine3.jpg	MediumShort_e22_cut1_stereo_44KHz.wav
1	91	3	3	2	I	1	0	940	0	poli_8sides 11_whiteLine3.jpg	MediumShort_e16_cut1_stereo_44KHz.wav
1	92	4	3	2	I	2	0	752	1	poli_8sides 1_whiteLine3.jpg	MediumShort_e16_cut1_stereo_44KHz.wav
1	93	1	1	1	C	2	0	729	0	poli_8sides 7_whiteLine3.jpg	MediumShort_b16_cut3_MS_stereo_44KHz.wav
1	94	4	4	2	I	1	0	690	1	poli_8sides 1_whiteLine3.jpg	MediumShort_b10_cut1_MS_stereo_44KHz.wav
1	95	2	1	0	C	2	1	820	1	poli_8sides 3_whiteLine3.jpg	MediumShort_b16_cut3_MS_stereo_44KHz.wav
1	96	3	4	2	I	1	0	563	1	poli_8sides 11_whiteLine3.jpg	MediumShort_b10_cut1_MS_stereo_44KHz.wav
1	97	4	3	2	I	2	0	507	0	poli_8sides 1_whiteLine3.jpg	MediumShort_e16_cut1_stereo_44KHz.wav
1	98	3	3	2	I	2	0	679	0	poli_8sides 11_whiteLine3.jpg	MediumShort_e16_cut1_stereo_44KHz.wav
1	99	1	2	0	C	2	1	693	1	poli_8sides 7_whiteLine3.jpg	MediumShort_e22_cut1_stereo_44KHz.wav
1	100	2	2	1	C	1	1	812	1	poli_8sides 3_whiteLine3.jpg	MediumShort_e22_cut1_stereo_44KHz.wav
1	101	3	4	2	I	2	0	657	1	poli_8sides 11_whiteLine3.jpg	MediumShort_b10_cut1_MS_stereo_44KHz.wav
1	102	1	1	1	C	2	0	656	0	poli_8sides 7_whiteLine3.jpg	MediumShort_b16_cut3_MS_stereo_44KHz.wav
1	103	4	4	2	I	1	0	610	1	poli_8sides 1_whiteLine3.jpg	MediumShort_b10_cut1_MS_stereo_44KHz.wav
1	104	2	1	0	C	2	1	572	1	poli_8sides 3_whiteLine3.jpg	MediumShort_b16_cut3_MS_stereo_44KHz.wav
1	105	3	4	2	I	2	0	691	1	poli_8sides 11_whiteLine3.jpg	MediumShort_b10_cut1_MS_stereo_44KHz.wav
1	106	2	2	1	C	1	1	720	1	poli_8sides 3_whiteLine3.jpg	MediumShort_e22_cut1_stereo_44KHz.wav
1	107	1	1	1	C	2	0	438	0	poli_8sides 7_whiteLine3.jpg	MediumShort_b16_cut3_MS_stereo_44KHz.wav
1	108	4	3	2	I	1	0	666	0	poli_8sides 1_whiteLine3.jpg	MediumShort_e16_cut1_stereo_44KHz.wav
1	109	1	2	0	C	2	1	624	1	poli_8sides 7_whiteLine3.jpg	MediumShort_e22_cut1_stereo_44KHz.wav
1	110	3	3	2	I	2	0	716	1	poli_8sides 11_whiteLine3.jpg	MediumShort_e16_cut1_stereo_44KHz.wav
1	111	2	1	0	C	1	0	660	0	poli_8sides 3_whiteLine3.jpg	MediumShort_b16_cut3_MS_stereo_44KHz.wav
1	112	4	4	2	I	2	0	808	0	poli_8sides 1_whiteLine3.jpg	MediumShort_b10_cut1_MS_stereo_44KHz.wav
1	113	2	1	0	C	2	1	869	1	poli_8sides 3_whiteLine3.jpg	MediumShort_b16_cut3_MS_stereo_44KHz.wav
1	114	1	1	1	C	2	0	639	0	poli_8sides 7_whiteLine3.jpg	MediumShort_b16_cut3_MS_stereo_44KHz.wav
1	115	4	4	2	I	1	0	612	1	poli_8sides 1_whiteLine3.jpg	MediumShort_b10_cut1_MS_stereo_44KHz.wav
1	116	3	4	2	I	2	0	689	1	poli_8sides 11_whiteLine3.jpg	MediumShort_b10_cut1_MS_stereo_44KHz.wav
1	117	4	3	2	I	1	0	876	1	poli_8sides 1_whiteLine3.jpg	MediumShort_e16_cut1_stereo_44KHz.wav
1	118	2	2	1	C	2	0	691	0	poli_8sides 3_whiteLine3.jpg	MediumShort_e22_cut1_stereo_44KHz.wav
1	119	1	2	0	C	2	1	541	1	poli_8sides 7_whiteLine3.jpg	MediumShort_e22_cut1_stereo_44KHz.wav
1	120	3	3	2	I	1	0	823	0	poli_8sides 11_whiteLine3.jpg	MediumShort_e16_cut1_stereo_44KHz.wav
1	121	1	2	0	C	2	1	702	1	poli_8sides 7_whiteLine3.jpg	MediumShort_e22_cut1_stereo_44KHz.wav
1	122	3	4	2	I	2	0	721	0	poli_8sides 11_whiteLine3.jpg	MediumShort_b10_cut1_MS_stereo_44KHz.wav
1	123	4	4	2	I	1	0	790	1	poli_8sides 1_whiteLine3.jpg	MediumShort_b10_cut1_MS_stereo_44KHz.wav
1	124	2	2	1	C	2	0	666	0	poli_8sides 3_whiteLine3.jpg	MediumShort_e22_cut1_stereo_44KHz.wav
1	125	4	3	2	I	1	0	799	1	poli_8sides 1_whiteLine3.jpg	MediumShort_e16_cut1_stereo_44KHz.wav
1	126	3	3	2	I	2	0	801	0	poli_8sides 11_whiteLine3.jpg	MediumShort_e16_cut1_stereo_44KHz.wav
1	127	2	1	0	C	1	0	627	0	poli_8sides 3_whiteLine3.jpg	MediumShort_b16_cut3_MS_stereo_44KHz.wav
1	128	1	1	1	C	2	0	634	0	poli_8sides 7_whiteLine3.jpg	MediumShort_b16_cut3_MS_stereo_44KHz.wav
1	129	2	1	0	C	2	1	788	1	poli_8sides 3_whiteLine3.jpg	MediumShort_b16_cut3_MS_stereo_44KHz.wav
1	130	1	2	0	C	2	1	590	1	poli_8sides 7_whiteLine3.jpg	MediumShort_e22_cut1_stereo_44KHz.wav
1	131	4	4	2	I	1	0	592	1	poli_8sides 1_whiteLine3.jpg	MediumShort_b10_cut1_MS_stereo_44KHz.wav
1	132	3	3	2	I	2	0	679	1	poli_8sides 11_whiteLine3.jpg	MediumShort_e16_cut1_stereo_44KHz.wav
1	133	1	1	1	C	2	0	712	0	poli_8sides 7_whiteLine3.jpg	MediumShort_b16_cut3_MS_stereo_44KHz.wav
1	134	3	4	2	I	2	0	722	1	poli_8sides 11_whiteLine3.jpg	MediumShort_b10_cut1_MS_stereo_44KHz.wav
1	135	4	3	2	I	1	0	535	1	poli_8sides 1_whiteLine3.jpg	MediumShort_e16_cut1_stereo_44KHz.wav
1	136	2	2	1	C	1	1	685	1	poli_8sides 3_whiteLine3.jpg	MediumShort_e22_cut1_stereo_44KHz.wav
1	137	3	4	2	I	2	0	585	1	poli_8sides 11_whiteLine3.jpg	MediumShort_b10_cut1_MS_stereo_44KHz.wav
1	138	1	2	0	C	2	1	602	1	poli_8sides 7_whiteLine3.jpg	MediumShort_e22_cut1_stereo_44KHz.wav
1	139	2	2	1	C	1	1	654	1	poli_8sides 3_whiteLine3.jpg	MediumShort_e22_cut1_stereo_44KHz.wav
1	140	4	3	2	I	1	0	1021	0	poli_8sides 1_whiteLine3.jpg	MediumShort_e16_cut1_stereo_44KHz.wav
1	141	2	1	0	C	2	1	1134	1	poli_8sides 3_whiteLine3.jpg	MediumShort_b16_cut3_MS_stereo_44KHz.wav
1	142	4	4	2	I	1	0	806	1	poli_8sides 1_whiteLine3.jpg	MediumShort_b10_cut1_MS_stereo_44KHz.wav
1	143	3	3	2	I	2	0	607	0	poli_8sides 11_whiteLine3.jpg	MediumShort_e16_cut1_stereo_44KHz.wav
1	144	1	1	1	C	2	0	618	0	poli_8sides 7_whiteLine3.jpg	MediumShort_b16_cut3_MS_stereo_44KHz.wav
1	145	4	3	2	I	1	0	773	1	poli_8sides 1_whiteLine3.jpg	MediumShort_e16_cut1_stereo_44KHz.wav
1	146	3	3	2	I	2	0	733	0	poli_8sides 11_whiteLine3.jpg	MediumShort_e16_cut1_stereo_44KHz.wav
1	147	1	2	0	C	2	1	740	1	poli_8sides 7_whiteLine3.jpg	MediumShort_e22_cut1_stereo_44KHz.wav
1	148	2	2	1	C	1	1	701	1	poli_8sides 3_whiteLine3.jpg	MediumShort_e22_cut1_stereo_44KHz.wav
1	149	1	1	1	C	2	0	624	0	poli_8sides 7_whiteLine3.jpg	MediumShort_b16_cut3_MS_stereo_44KHz.wav
1	150	3	4	2	I	1	0	1143	1	poli_8sides 11_whiteLine3.jpg	MediumShort_b10_cut1_MS_stereo_44KHz.wav
1	151	4	4	2	I	2	0	480	1	poli_8sides 1_whiteLine3.jpg	MediumShort_b10_cut1_MS_stereo_44KHz.wav
1	152	2	1	0	C	1	0	799	0	poli_8sides 3_whiteLine3.jpg	MediumShort_b16_cut3_MS_stereo_44KHz.wav
1	153	1	1	1	C	2	0	494	0	poli_8sides 7_whiteLine3.jpg	MediumShort_b16_cut3_MS_stereo_44KHz.wav
1	154	2	1	0	C	1	0	843	0	poli_8sides 3_whiteLine3.jpg	MediumShort_b16_cut3_MS_stereo_44KHz.wav
1	155	4	4	2	I	2	0	798	1	poli_8sides 1_whiteLine3.jpg	MediumShort_b10_cut1_MS_stereo_44KHz.wav
1	156	3	3	2	I	2	0	705	0	poli_8sides 11_whiteLine3.jpg	MediumShort_e16_cut1_stereo_44KHz.wav
1	157	1	2	0	C	2	1	522	1	poli_8sides 7_whiteLine3.jpg	MediumShort_e22_cut1_stereo_44KHz.wav
1	158	3	4	2	I	1	0	575	0	poli_8sides 11_whiteLine3.jpg	MediumShort_b10_cut1_MS_stereo_44KHz.wav
1	159	2	2	1	C	2	0	704	0	poli_8sides 3_whiteLine3.jpg	MediumShort_e22_cut1_stereo_44KHz.wav
1	160	4	3	2	I	2	0	833	0	poli_8sides 1_whiteLine3.jpg	MediumShort_e16_cut1_stereo_44KHz.wav
1	161	1	2	0	C	2	1	823	1	poli_8sides 7_whiteLine3.jpg	MediumShort_e22_cut1_stereo_44KHz.wav
1	162	4	3	2	I	2	0	664	0	poli_8sides 1_whiteLine3.jpg	MediumShort_e16_cut1_stereo_44KHz.wav
1	163	2	1	0	C	2	1	1051	1	poli_8sides 3_whiteLine3.jpg	MediumShort_b16_cut3_MS_stereo_44KHz.wav
1	164	3	3	2	I	1	0	1101	1	poli_8sides 11_whiteLine3.jpg	MediumShort_e16_cut1_stereo_44KHz.wav
1	165	2	2	1	C	2	0	694	0	poli_8sides 3_whiteLine3.jpg	MediumShort_e22_cut1_stereo_44KHz.wav
1	166	4	4	2	I	2	0	831	1	poli_8sides 1_whiteLine3.jpg	MediumShort_b10_cut1_MS_stereo_44KHz.wav
1	167	3	4	2	I	1	0	853	0	poli_8sides 11_whiteLine3.jpg	MediumShort_b10_cut1_MS_stereo_44KHz.wav
1	168	1	1	1	C	1	1	1079	1	poli_8sides 7_whiteLine3.jpg	MediumShort_b16_cut3_MS_stereo_44KHz.wav
1	169	2	1	0	C	1	0	719	0	poli_8sides 3_whiteLine3.jpg	MediumShort_b16_cut3_MS_stereo_44KHz.wav
1	170	3	4	2	I	2	0	710	1	poli_8sides 11_whiteLine3.jpg	MediumShort_b10_cut1_MS_stereo_44KHz.wav
1	171	1	2	0	C	2	1	856	1	poli_8sides 7_whiteLine3.jpg	MediumShort_e22_cut1_stereo_44KHz.wav
1	172	4	3	2	I	2	0	944	0	poli_8sides 1_whiteLine3.jpg	MediumShort_e16_cut1_stereo_44KHz.wav
1	173	1	1	1	C	2	0	598	0	poli_8sides 7_whiteLine3.jpg	MediumShort_b16_cut3_MS_stereo_44KHz.wav
1	174	2	2	1	C	1	1	600	1	poli_8sides 3_whiteLine3.jpg	MediumShort_e22_cut1_stereo_44KHz.wav
1	175	4	4	2	I	2	0	665	1	poli_8sides 1_whiteLine3.jpg	MediumShort_b10_cut1_MS_stereo_44KHz.wav
1	176	3	3	2	I	1	0	997	1	poli_8sides 11_whiteLine3.jpg	MediumShort_e16_cut1_stereo_44KHz.wav
1	177	2	2	1	C	2	0	740	0	poli_8sides 3_whiteLine3.jpg	MediumShort_e22_cut1_stereo_44KHz.wav
1	178	4	4	2	I	2	0	723	0	poli_8sides 1_whiteLine3.jpg	MediumShort_b10_cut1_MS_stereo_44KHz.wav
1	179	3	4	2	I	2	0	824	1	poli_8sides 11_whiteLine3.jpg	MediumShort_b10_cut1_MS_stereo_44KHz.wav
1	180	1	1	1	C	1	1	885	1	poli_8sides 7_whiteLine3.jpg	MediumShort_b16_cut3_MS_stereo_44KHz.wav
1	181	3	3	2	I	1	0	750	1	poli_8sides 11_whiteLine3.jpg	MediumShort_e16_cut1_stereo_44KHz.wav
1	182	4	3	2	I	1	0	883	1	poli_8sides 1_whiteLine3.jpg	MediumShort_e16_cut1_stereo_44KHz.wav
1	183	2	1	0	C	2	1	1113	1	poli_8sides 3_whiteLine3.jpg	MediumShort_b16_cut3_MS_stereo_44KHz.wav
1	184	1	2	0	C	2	1	871	1	poli_8sides 7_whiteLine3.jpg	MediumShort_e22_cut1_stereo_44KHz.wav
1	185	4	4	2	I	2	0	729	0	poli_8sides 1_whiteLine3.jpg	MediumShort_b10_cut1_MS_stereo_44KHz.wav
1	186	1	1	1	C	1	1	897	1	poli_8sides 7_whiteLine3.jpg	MediumShort_b16_cut3_MS_stereo_44KHz.wav
1	187	2	1	0	C	2	1	855	1	poli_8sides 3_whiteLine3.jpg	MediumShort_b16_cut3_MS_stereo_44KHz.wav
1	188	3	4	2	I	2	0	768	0	poli_8sides 11_whiteLine3.jpg	MediumShort_b10_cut1_MS_stereo_44KHz.wav
1	189	4	3	2	I	1	0	768	0	poli_8sides 1_whiteLine3.jpg	MediumShort_e16_cut1_stereo_44KHz.wav
1	190	2	2	1	C	2	0	784	0	poli_8sides 3_whiteLine3.jpg	MediumShort_e22_cut1_stereo_44KHz.wav
1	191	3	3	2	I	1	0	911	0	poli_8sides 11_whiteLine3.jpg	MediumShort_e16_cut1_stereo_44KHz.wav
1	192	1	2	0	C	2	1	688	1	poli_8sides 7_whiteLine3.jpg	MediumShort_e22_cut1_stereo_44KHz.wav
1	193	3	3	2	I	1	0	1086	1	poli_8sides 11_whiteLine3.jpg	MediumShort_e16_cut1_stereo_44KHz.wav
1	194	2	2	1	C	2	0	1178	0	poli_8sides 3_whiteLine3.jpg	MediumShort_e22_cut1_stereo_44KHz.wav
1	195	4	3	2	I	1	0	1028	0	poli_8sides 1_whiteLine3.jpg	MediumShort_e16_cut1_stereo_44KHz.wav
1	196	1	1	1	C	2	0	807	0	poli_8sides 7_whiteLine3.jpg	MediumShort_b16_cut3_MS_stereo_44KHz.wav
1	197	2	1	0	C	1	0	762	0	poli_8sides 3_whiteLine3.jpg	MediumShort_b16_cut3_MS_stereo_44KHz.wav
1	198	1	2	0	C	2	1	703	1	poli_8sides 7_whiteLine3.jpg	MediumShort_e22_cut1_stereo_44KHz.wav
1	199	3	4	2	I	2	0	1007	0	poli_8sides 11_whiteLine3.jpg	MediumShort_b10_cut1_MS_stereo_44KHz.wav
1	200	4	4	2	I	2	0	609	0	poli_8sides 1_whiteLine3.jpg	MediumShort_b10_cut1_MS_stereo_44KHz.wav
2	1	3	3	2	I	1	0	1091	0	poli_8sides 2_whiteLine3.jpg	Short_b09_cut1_stereo_44KHz.wav
2	2	2	1	0	C	2	1	476	1	poli_8sides 6_whiteLine3.jpg	Short_b23_cut1_stereo_44KHz.wav
2	3	1	1	1	C	1	1	758	1	poli_8sides 13_whiteLine3.jpg	Short_b23_cut1_stereo_44KHz.wav
2	4	4	4	2	I	2	0	682	1	poli_8sides 8_whiteLine3.jpg	Short_b20_cut1_stereo_44KHz.wav
2	5	2	2	1	C	2	0	793	0	poli_8sides 6_whiteLine3.jpg	Short_b22_cut1_stereo_44KHz.wav
2	6	1	2	0	C	2	1	723	1	poli_8sides 13_whiteLine3.jpg	Short_b22_cut1_stereo_44KHz.wav
2	7	3	4	2	I	1	0	767	1	poli_8sides 2_whiteLine3.jpg	Short_b20_cut1_stereo_44KHz.wav
2	8	4	3	2	I	2	0	821	0	poli_8sides 8_whiteLine3.jpg	Short_b09_cut1_stereo_44KHz.wav
2	9	1	2	0	C	2	1	737	1	poli_8sides 13_whiteLine3.jpg	Short_b22_cut1_stereo_44KHz.wav
2	10	2	1	0	C	1	0	760	0	poli_8sides 6_whiteLine3.jpg	Short_b23_cut1_stereo_44KHz.wav
2	11	3	4	2	I	2	0	695	1	poli_8sides 2_whiteLine3.jpg	Short_b20_cut1_stereo_44KHz.wav
2	12	4	4	2	I	2	0	919	0	poli_8sides 8_whiteLine3.jpg	Short_b20_cut1_stereo_44KHz.wav
2	13	1	1	1	C	1	1	592	1	poli_8sides 13_whiteLine3.jpg	Short_b23_cut1_stereo_44KHz.wav
2	14	2	2	1	C	2	0	1032	0	poli_8sides 6_whiteLine3.jpg	Short_b22_cut1_stereo_44KHz.wav
2	15	4	3	2	I	1	0	790	0	poli_8sides 8_whiteLine3.jpg	Short_b09_cut1_stereo_44KHz.wav
2	16	3	3	2	I	2	0	781	1	poli_8sides 2_whiteLine3.jpg	Short_b09_cut1_stereo_44KHz.wav
2	17	4	4	2	I	2	0	708	0	poli_8sides 8_whiteLine3.jpg	Short_b20_cut1_stereo_44KHz.wav
2	18	2	1	0	C	1	0	644	0	poli_8sides 6_whiteLine3.jpg	Short_b23_cut1_stereo_44KHz.wav
2	19	3	4	2	I	1	0	842	1	poli_8sides 2_whiteLine3.jpg	Short_b20_cut1_stereo_44KHz.wav
2	20	1	1	1	C	1	1	670	1	poli_8sides 13_whiteLine3.jpg	Short_b23_cut1_stereo_44KHz.wav
2	21	3	3	2	I	2	0	846	0	poli_8sides 2_whiteLine3.jpg	Short_b09_cut1_stereo_44KHz.wav
2	22	4	3	2	I	1	0	789	1	poli_8sides 8_whiteLine3.jpg	Short_b09_cut1_stereo_44KHz.wav
2	23	1	2	0	C	2	1	878	1	poli_8sides 13_whiteLine3.jpg	Short_b22_cut1_stereo_44KHz.wav
2	24	2	2	1	C	1	1	641	1	poli_8sides 6_whiteLine3.jpg	Short_b22_cut1_stereo_44KHz.wav
2	25	4	4	2	I	2	0	591	0	poli_8sides 8_whiteLine3.jpg	Short_b20_cut1_stereo_44KHz.wav
2	26	2	2	1	C	1	1	782	1	poli_8sides 6_whiteLine3.jpg	Short_b22_cut1_stereo_44KHz.wav
2	27	1	2	0	C	2	1	665	1	poli_8sides 13_whiteLine3.jpg	Short_b22_cut1_stereo_44KHz.wav
2	28	3	4	2	I	2	0	1143	0	poli_8sides 2_whiteLine3.jpg	Short_b20_cut1_stereo_44KHz.wav
2	29	2	1	0	C	2	1	1027	1	poli_8sides 6_whiteLine3.jpg	Short_b23_cut1_stereo_44KHz.wav
2	30	1	1	1	C	2	0	786	0	poli_8sides 13_whiteLine3.jpg	Short_b23_cut1_stereo_44KHz.wav
2	31	3	3	2	I	1	0	731	1	poli_8sides 2_whiteLine3.jpg	Short_b09_cut1_stereo_44KHz.wav
2	32	4	3	2	I	2	0	908	0	poli_8sides 8_whiteLine3.jpg	Short_b09_cut1_stereo_44KHz.wav
2	33	2	2	1	C	1	1	840	1	poli_8sides 6_whiteLine3.jpg	Short_b22_cut1_stereo_44KHz.wav
2	34	1	1	1	C	2	0	798	0	poli_8sides 13_whiteLine3.jpg	Short_b23_cut1_stereo_44KHz.wav
2	35	3	3	2	I	2	0	850	0	poli_8sides 2_whiteLine3.jpg	Short_b09_cut1_stereo_44KHz.wav
2	36	4	4	2	I	1	0	944	1	poli_8sides 8_whiteLine3.jpg	Short_b20_cut1_stereo_44KHz.wav
2	37	1	2	0	C	2	1	609	1	poli_8sides 13_whiteLine3.jpg	Short_b22_cut1_stereo_44KHz.wav
2	38	3	4	2	I	2	0	1082	0	poli_8sides 2_whiteLine3.jpg	Short_b20_cut1_stereo_44KHz.wav
2	39	2	1	0	C	1	0	758	0	poli_8sides 6_whiteLine3.jpg	Short_b23_cut1_stereo_44KHz.wav
2	40	4	3	2	I	2	0	708	0	poli_8sides 8_whiteLine3.jpg	Short_b09_cut1_stereo_44KHz.wav
2	41	2	1	0	C	2	1	751	1	poli_8sides 6_whiteLine3.jpg	Short_b23_cut1_stereo_44KHz.wav
2	42	3	4	2	I	1	0	812	0	poli_8sides 2_whiteLine3.jpg	Short_b20_cut1_stereo_44KHz.wav
2	43	4	4	2	I	1	0	1180	1	poli_8sides 8_whiteLine3.jpg	Short_b20_cut1_stereo_44KHz.wav
2	44	1	1	1	C	2	0	871	0	poli_8sides 13_whiteLine3.jpg	Short_b23_cut1_stereo_44KHz.wav
2	45	4	3	2	I	2	0	897	0	poli_8sides 8_whiteLine3.jpg	Short_b09_cut1_stereo_44KHz.wav
2	46	3	3	2	I	2	0	814	1	poli_8sides 2_whiteLine3.jpg	Short_b09_cut1_stereo_44KHz.wav
2	47	1	2	0	C	2	1	845	1	poli_8sides 13_whiteLine3.jpg	Short_b22_cut1_stereo_44KHz.wav
2	48	2	2	1	C	1	1	614	1	poli_8sides 6_whiteLine3.jpg	Short_b22_cut1_stereo_44KHz.wav
2	49	1	1	1	C	2	0	810	0	poli_8sides 13_whiteLine3.jpg	Short_b23_cut1_stereo_44KHz.wav
2	50	4	4	2	I	1	0	751	0	poli_8sides 8_whiteLine3.jpg	Short_b20_cut1_stereo_44KHz.wav
2	51	3	3	2	I	2	0	779	1	poli_8sides 2_whiteLine3.jpg	Short_b09_cut1_stereo_44KHz.wav
2	52	2	1	0	C	1	0	636	0	poli_8sides 6_whiteLine3.jpg	Short_b23_cut1_stereo_44KHz.wav
2	53	3	4	2	I	2	0	916	0	poli_8sides 2_whiteLine3.jpg	Short_b20_cut1_stereo_44KHz.wav
2	54	4	3	2	I	2	0	740	1	poli_8sides 8_whiteLine3.jpg	Short_b09_cut1_stereo_44KHz.wav
2	55	1	2	0	C	1	0	681	0	poli_8sides 13_whiteLine3.jpg	Short_b22_cut1_stereo_44KHz.wav
2	56	2	2	1	C	2	0	650	0	poli_8sides 6_whiteLine3.jpg	Short_b22_cut1_stereo_44KHz.wav
2	57	3	3	2	I	2	0	794	0	poli_8sides 2_whiteLine3.jpg	Short_b09_cut1_stereo_44KHz.wav
2	58	1	1	1	C	1	1	756	1	poli_8sides 13_whiteLine3.jpg	Short_b23_cut1_stereo_44KHz.wav
2	59	2	2	1	C	2	0	926	0	poli_8sides 6_whiteLine3.jpg	Short_b22_cut1_stereo_44KHz.wav
2	60	4	4	2	I	1	0	859	1	poli_8sides 8_whiteLine3.jpg	Short_b20_cut1_stereo_44KHz.wav
2	61	2	1	0	C	2	1	612	1	poli_8sides 6_whiteLine3.jpg	Short_b23_cut1_stereo_44KHz.wav
2	62	3	4	2	I	2	0	811	1	poli_8sides 2_whiteLine3.jpg	Short_b20_cut1_stereo_44KHz.wav
2	63	1	2	0	C	2	1	655	1	poli_8sides 13_whiteLine3.jpg	Short_b22_cut1_stereo_44KHz.wav
2	64	4	3	2	I	2	0	828	0	poli_8sides 8_whiteLine3.jpg	Short_b09_cut1_stereo_44KHz.wav
2	65	2	1	0	C	1	0	720	0	poli_8sides 6_whiteLine3.jpg	Short_b23_cut1_stereo_44KHz.wav
2	66	1	2	0	C	2	1	574	1	poli_8sides 13_whiteLine3.jpg	Short_b22_cut1_stereo_44KHz.wav
2	67	4	4	2	I	1	0	862	0	poli_8sides 8_whiteLine3.jpg	Short_b20_cut1_stereo_44KHz.wav
2	68	3	3	2	I	2	0	597	0	poli_8sides 2_whiteLine3.jpg	Short_b09_cut1_stereo_44KHz.wav
2	69	4	3	2	I	2	0	916	1	poli_8sides 8_whiteLine3.jpg	Short_b09_cut1_stereo_44KHz.wav
2	70	2	2	1	C	2	0	959	0	poli_8sides 6_whiteLine3.jpg	Short_b22_cut1_stereo_44KHz.wav
2	71	1	1	1	C	2	0	1129	0	poli_8sides 13_whiteLine3.jpg	Short_b23_cut1_stereo_44KHz.wav
2	72	3	4	2	I	1	0	836	0	poli_8sides 2_whiteLine3.jpg	Short_b20_cut1_stereo_44KHz.wav
2	73	4	4	2	I	2	0	671	0	poli_8sides 8_whiteLine3.jpg	Short_b20_cut1_stereo_44KHz.wav
2	74	1	1	1	C	2	0	630	0	poli_8sides 13_whiteLine3.jpg	Short_b23_cut1_stereo_44KHz.wav
2	75	2	2	1	C	1	1	857	1	poli_8sides 6_whiteLine3.jpg	Short_b22_cut1_stereo_44KHz.wav
2	76	3	4	2	I	2	0	1151	0	poli_8sides 2_whiteLine3.jpg	Short_b20_cut1_stereo_44KHz.wav
2	77	4	3	2	I	2	0	824	1	poli_8sides 8_whiteLine3.jpg	Short_b09_cut1_stereo_44KHz.wav
2	78	2	1	0	C	2	1	847	1	poli_8sides 6_whiteLine3.jpg	Short_b23_cut1_stereo_44KHz.wav
2	79	1	2	0	C	2	1	919	1	poli_8sides 13_whiteLine3.jpg	Short_b22_cut1_stereo_44KHz.wav
2	80	3	3	2	I	1	0	1044	1	poli_8sides 2_whiteLine3.jpg	Short_b09_cut1_stereo_44KHz.wav
2	81	4	4	2	I	2	0	1017	0	poli_8sides 8_whiteLine3.jpg	Short_b20_cut1_stereo_44KHz.wav
2	82	2	2	1	C	2	0	746	0	poli_8sides 6_whiteLine3.jpg	Short_b22_cut1_stereo_44KHz.wav
2	83	1	2	0	C	2	1	481	1	poli_8sides 13_whiteLine3.jpg	Short_b22_cut1_stereo_44KHz.wav
2	84	3	4	2	I	1	0	697	1	poli_8sides 2_whiteLine3.jpg	Short_b20_cut1_stereo_44KHz.wav
2	85	2	1	0	C	2	1	614	1	poli_8sides 6_whiteLine3.jpg	Short_b23_cut1_stereo_44KHz.wav
2	86	4	3	2	I	2	0	807	1	poli_8sides 8_whiteLine3.jpg	Short_b09_cut1_stereo_44KHz.wav
2	87	3	3	2	I	1	0	678	0	poli_8sides 2_whiteLine3.jpg	Short_b09_cut1_stereo_44KHz.wav
2	88	1	1	1	C	2	0	590	0	poli_8sides 13_whiteLine3.jpg	Short_b23_cut1_stereo_44KHz.wav
2	89	4	4	2	I	1	0	1200	0	poli_8sides 8_whiteLine3.jpg	Short_b20_cut1_stereo_44KHz.wav
2	90	2	2	1	C	2	0	600	0	poli_8sides 6_whiteLine3.jpg	Short_b22_cut1_stereo_44KHz.wav
2	91	1	2	0	C	1	0	760	0	poli_8sides 13_whiteLine3.jpg	Short_b22_cut1_stereo_44KHz.wav
2	92	3	4	2	I	2	0	1118	0	poli_8sides 2_whiteLine3.jpg	Short_b20_cut1_stereo_44KHz.wav
2	93	2	1	0	C	2	1	1452	1	poli_8sides 6_whiteLine3.jpg	Short_b23_cut1_stereo_44KHz.wav
2	94	1	1	1	C	2	0	1157	0	poli_8sides 13_whiteLine3.jpg	Short_b23_cut1_stereo_44KHz.wav
2	95	3	3	2	I	2	0	1226	0	poli_8sides 2_whiteLine3.jpg	Short_b09_cut1_stereo_44KHz.wav
2	96	4	3	2	I	2	0	1011	0	poli_8sides 8_whiteLine3.jpg	Short_b09_cut1_stereo_44KHz.wav
2	97	1	1	1	C	1	1	551	1	poli_8sides 13_whiteLine3.jpg	Short_b23_cut1_stereo_44KHz.wav
2	98	4	3	2	I	2	0	1171	1	poli_8sides 8_whiteLine3.jpg	Short_b09_cut1_stereo_44KHz.wav
2	99	3	3	2	I	2	0	971	1	poli_8sides 2_whiteLine3.jpg	Short_b09_cut1_stereo_44KHz.wav
2	100	2	2	1	C	2	0	1021	0	poli_8sides 6_whiteLine3.jpg	Short_b22_cut1_stereo_44KHz.wav
2	101	3	4	2	I	1	0	1347	0	poli_8sides 2_whiteLine3.jpg	Short_b20_cut1_stereo_44KHz.wav
2	102	4	4	2	I	1	0	1083	1	poli_8sides 8_whiteLine3.jpg	Short_b20_cut1_stereo_44KHz.wav
2	103	2	1	0	C	2	1	793	1	poli_8sides 6_whiteLine3.jpg	Short_b23_cut1_stereo_44KHz.wav
2	104	1	2	0	C	2	1	939	1	poli_8sides 13_whiteLine3.jpg	Short_b22_cut1_stereo_44KHz.wav
2	105	3	4	2	I	2	0	1075	1	poli_8sides 2_whiteLine3.jpg	Short_b20_cut1_stereo_44KHz.wav
2	106	2	2	1	C	2	0	849	0	poli_8sides 6_whiteLine3.jpg	Short_b22_cut1_stereo_44KHz.wav
2	107	4	4	2	I	1	0	841	0	poli_8sides 8_whiteLine3.jpg	Short_b20_cut1_stereo_44KHz.wav
2	108	1	1	1	C	2	0	560	0	poli_8sides 13_whiteLine3.jpg	Short_b23_cut1_stereo_44KHz.wav
2	109	2	1	0	C	2	1	679	1	poli_8sides 6_whiteLine3.jpg	Short_b23_cut1_stereo_44KHz.wav
2	110	3	3	2	I	1	0	711	0	poli_8sides 2_whiteLine3.jpg	Short_b09_cut1_stereo_44KHz.wav
2	111	4	3	2	I	2	0	465	0	poli_8sides 8_whiteLine3.jpg	Short_b09_cut1_stereo_44KHz.wav
2	112	1	2	0	C	2	1	929	1	poli_8sides 13_whiteLine3.jpg	Short_b22_cut1_stereo_44KHz.wav
2	113	3	3	2	I	2	0	881	1	poli_8sides 2_whiteLine3.jpg	Short_b09_cut1_stereo_44KHz.wav
2	114	2	1	0	C	2	1	830	1	poli_8sides 6_whiteLine3.jpg	Short_b23_cut1_stereo_44KHz.wav
2	115	4	3	2	I	2	0	829	0	poli_8sides 8_whiteLine3.jpg	Short_b09_cut1_stereo_44KHz.wav
2	116	1	1	1	C	2	0	821	0	poli_8sides 13_whiteLine3.jpg	Short_b23_cut1_stereo_44KHz.wav
2	117	2	2	1	C	1	1	714	1	poli_8sides 6_whiteLine3.jpg	Short_b22_cut1_stereo_44KHz.wav
2	118	1	2	0	C	2	1	589	1	poli_8sides 13_whiteLine3.jpg	Short_b22_cut1_stereo_44KHz.wav
2	119	3	4	2	I	2	0	685	1	poli_8sides 2_whiteLine3.jpg	Short_b20_cut1_stereo_44KHz.wav
2	120	4	4	2	I	1	0	763	1	poli_8sides 8_whiteLine3.jpg	Short_b20_cut1_stereo_44KHz.wav
2	121	2	1	0	C	2	1	707	1	poli_8sides 6_whiteLine3.jpg	Short_b23_cut1_stereo_44KHz.wav
2	122	4	4	2	I	1	0	1223	0	poli_8sides 8_whiteLine3.jpg	Short_b20_cut1_stereo_44KHz.wav
2	123	1	1	1	C	2	0	613	0	poli_8sides 13_whiteLine3.jpg	Short_b23_cut1_stereo_44KHz.wav
2	124	3	3	2	I	2	0	1002	1	poli_8sides 2_whiteLine3.jpg	Short_b09_cut1_stereo_44KHz.wav
2	125	1	2	0	C	1	0	721	0	poli_8sides 13_whiteLine3.jpg	Short_b22_cut1_stereo_44KHz.wav
2	126	4	3	2	I	2	0	604	0	poli_8sides 8_whiteLine3.jpg	Short_b09_cut1_stereo_44KHz.wav
2	127	3	4	2	I	2	0	791	0	poli_8sides 2_whiteLine3.jpg	Short_b20_cut1_stereo_44KHz.wav
2	128	2	2	1	C	1	1	534	1	poli_8sides 6_whiteLine3.jpg	Short_b22_cut1_stereo_44KHz.wav
2	129	4	4	2	I	2	0	726	0	poli_8sides 8_whiteLine3.jpg	Short_b20_cut1_stereo_44KHz.wav
2	130	2	1	0	C	2	1	693	1	poli_8sides 6_whiteLine3.jpg	Short_b23_cut1_stereo_44KHz.wav
2	131	1	2	0	C	1	0	671	0	poli_8sides 13_whiteLine3.jpg	Short_b22_cut1_stereo_44KHz.wav
2	132	3	4	2	I	2	0	598	1	poli_8sides 2_whiteLine3.jpg	Short_b20_cut1_stereo_44KHz.wav
2	133	2	2	1	C	2	0	569	0	poli_8sides 6_whiteLine3.jpg	Short_b22_cut1_stereo_44KHz.wav
2	134	4	3	2	I	2	0	934	1	poli_8sides 8_whiteLine3.jpg	Short_b09_cut1_stereo_44KHz.wav
2	135	3	3	2	I	2	0	918	1	poli_8sides 2_whiteLine3.jpg	Short_b09_cut1_stereo_44KHz.wav
2	136	1	1	1	C	1	1	619	1	poli_8sides 13_whiteLine3.jpg	Short_b23_cut1_stereo_44KHz.wav
2	137	2	2	1	C	2	0	517	0	poli_8sides 6_whiteLine3.jpg	Short_b22_cut1_stereo_44KHz.wav
2	138	3	3	2	I	2	0	709	0	poli_8sides 2_whiteLine3.jpg	Short_b09_cut1_stereo_44KHz.wav
2	139	4	4	2	I	2	0	1021	0	poli_8sides 8_whiteLine3.jpg	Short_b20_cut1_stereo_44KHz.wav
2	140	1	2	0	C	2	1	681	1	poli_8sides 13_whiteLine3.jpg	Short_b22_cut1_stereo_44KHz.wav
2	141	3	4	2	I	2	0	1007	1	poli_8sides 2_whiteLine3.jpg	Short_b20_cut1_stereo_44KHz.wav
2	142	2	1	0	C	1	0	764	0	poli_8sides 6_whiteLine3.jpg	Short_b23_cut1_stereo_44KHz.wav
2	143	4	3	2	I	2	0	1027	1	poli_8sides 8_whiteLine3.jpg	Short_b09_cut1_stereo_44KHz.wav
2	144	1	1	1	C	2	0	725	0	poli_8sides 13_whiteLine3.jpg	Short_b23_cut1_stereo_44KHz.wav
2	145	3	3	2	I	2	0	996	0	poli_8sides 2_whiteLine3.jpg	Short_b09_cut1_stereo_44KHz.wav
2	146	1	1	1	C	2	0	781	0	poli_8sides 13_whiteLine3.jpg	Short_b23_cut1_stereo_44KHz.wav
2	147	2	2	1	C	1	1	782	1	poli_8sides 6_whiteLine3.jpg	Short_b22_cut1_stereo_44KHz.wav
2	148	4	3	2	I	2	0	701	1	poli_8sides 8_whiteLine3.jpg	Short_b09_cut1_stereo_44KHz.wav
2	149	1	2	0	C	2	1	1140	1	poli_8sides 13_whiteLine3.jpg	Short_b22_cut1_stereo_44KHz.wav
2	150	4	4	2	I	1	0	1087	1	poli_8sides 8_whiteLine3.jpg	Short_b20_cut1_stereo_44KHz.wav
2	151	3	4	2	I	2	0	688	1	poli_8sides 2_whiteLine3.jpg	Short_b20_cut1_stereo_44KHz.wav
2	152	2	1	0	C	2	1	803	1	poli_8sides 6_whiteLine3.jpg	Short_b23_cut1_stereo_44KHz.wav
2	153	3	4	2	I	2	0	814	1	poli_8sides 2_whiteLine3.jpg	Short_b20_cut1_stereo_44KHz.wav
2	154	4	4	2	I	1	0	865	1	poli_8sides 8_whiteLine3.jpg	Short_b20_cut1_stereo_44KHz.wav
2	155	1	1	1	C	2	0	859	0	poli_8sides 13_whiteLine3.jpg	Short_b23_cut1_stereo_44KHz.wav
2	156	2	1	0	C	2	1	752	1	poli_8sides 6_whiteLine3.jpg	Short_b23_cut1_stereo_44KHz.wav
2	157	3	3	2	I	2	0	956	0	poli_8sides 2_whiteLine3.jpg	Short_b09_cut1_stereo_44KHz.wav
2	158	1	2	0	C	2	1	712	1	poli_8sides 13_whiteLine3.jpg	Short_b22_cut1_stereo_44KHz.wav
2	159	2	2	1	C	1	1	856	1	poli_8sides 6_whiteLine3.jpg	Short_b22_cut1_stereo_44KHz.wav
2	160	4	3	2	I	2	0	763	0	poli_8sides 8_whiteLine3.jpg	Short_b09_cut1_stereo_44KHz.wav
2	161	2	1	0	C	1	0	691	0	poli_8sides 6_whiteLine3.jpg	Short_b23_cut1_stereo_44KHz.wav
2	162	1	1	1	C	2	0	764	0	poli_8sides 13_whiteLine3.jpg	Short_b23_cut1_stereo_44KHz.wav
2	163	4	4	2	I	1	0	779	1	poli_8sides 8_whiteLine3.jpg	Short_b20_cut1_stereo_44KHz.wav
2	164	3	3	2	I	2	0	691	0	poli_8sides 2_whiteLine3.jpg	Short_b09_cut1_stereo_44KHz.wav
2	165	1	2	0	C	2	1	894	1	poli_8sides 13_whiteLine3.jpg	Short_b22_cut1_stereo_44KHz.wav
2	166	3	4	2	I	1	0	797	0	poli_8sides 2_whiteLine3.jpg	Short_b20_cut1_stereo_44KHz.wav
2	167	2	2	1	C	2	0	605	0	poli_8sides 6_whiteLine3.jpg	Short_b22_cut1_stereo_44KHz.wav
2	168	4	3	2	I	2	0	932	0	poli_8sides 8_whiteLine3.jpg	Short_b09_cut1_stereo_44KHz.wav
2	169	2	1	0	C	2	1	663	1	poli_8sides 6_whiteLine3.jpg	Short_b23_cut1_stereo_44KHz.wav
2	170	3	3	2	I	2	0	1286	1	poli_8sides 2_whiteLine3.jpg	Short_b09_cut1_stereo_44KHz.wav
2	171	1	1	1	C	1	1	690	1	poli_8sides 13_whiteLine3.jpg	Short_b23_cut1_stereo_44KHz.wav
2	172	4	3	2	I	2	0	771	1	poli_8sides 8_whiteLine3.jpg	Short_b09_cut1_stereo_44KHz.wav
2	173	1	2	0	C	1	0	888	0	poli_8sides 13_whiteLine3.jpg	Short_b22_cut1_stereo_44KHz.wav
2	174	4	4	2	I	2	0	768	1	poli_8sides 8_whiteLine3.jpg	Short_b20_cut1_stereo_44KHz.wav
2	175	2	2	1	C	2	0	766	0	poli_8sides 6_whiteLine3.jpg	Short_b22_cut1_stereo_44KHz.wav
2	176	3	4	2	I	2	0	911	1	poli_8sides 2_whiteLine3.jpg	Short_b20_cut1_stereo_44KHz.wav
2	177	4	4	2	I	1	0	958	1	poli_8sides 8_whiteLine3.jpg	Short_b20_cut1_stereo_44KHz.wav
2	178	3	3	2	I	2	0	773	0	poli_8sides 2_whiteLine3.jpg	Short_b09_cut1_stereo_44KHz.wav
2	179	1	1	1	C	2	0	674	0	poli_8sides 13_whiteLine3.jpg	Short_b23_cut1_stereo_44KHz.wav
2	180	2	2	1	C	1	1	468	1	poli_8sides 6_whiteLine3.jpg	Short_b22_cut1_stereo_44KHz.wav
2	181	4	3	2	I	2	0	766	1	poli_8sides 8_whiteLine3.jpg	Short_b09_cut1_stereo_44KHz.wav
2	182	3	4	2	I	2	0	763	0	poli_8sides 2_whiteLine3.jpg	Short_b20_cut1_stereo_44KHz.wav
2	183	1	2	0	C	2	1	627	1	poli_8sides 13_whiteLine3.jpg	Short_b22_cut1_stereo_44KHz.wav
2	184	2	1	0	C	1	0	553	0	poli_8sides 6_whiteLine3.jpg	Short_b23_cut1_stereo_44KHz.wav
2	185	3	3	2	I	2	0	1014	1	poli_8sides 2_whiteLine3.jpg	Short_b09_cut1_stereo_44KHz.wav
2	186	4	3	2	I	2	0	894	1	poli_8sides 8_whiteLine3.jpg	Short_b09_cut1_stereo_44KHz.wav
2	187	1	2	0	C	2	1	849	1	poli_8sides 13_whiteLine3.jpg	Short_b22_cut1_stereo_44KHz.wav
2	188	2	2	1	C	2	0	906	0	poli_8sides 6_whiteLine3.jpg	Short_b22_cut1_stereo_44KHz.wav
2	189	4	4	2	I	2	0	887	0	poli_8sides 8_whiteLine3.jpg	Short_b20_cut1_stereo_44KHz.wav
2	190	3	4	2	I	2	0	571	1	poli_8sides 2_whiteLine3.jpg	Short_b20_cut1_stereo_44KHz.wav
2	191	1	1	1	C	1	1	556	1	poli_8sides 13_whiteLine3.jpg	Short_b23_cut1_stereo_44KHz.wav
2	192	2	1	0	C	2	1	766	1	poli_8sides 6_whiteLine3.jpg	Short_b23_cut1_stereo_44KHz.wav
2	193	3	4	2	I	2	0	727	0	poli_8sides 2_whiteLine3.jpg	Short_b20_cut1_stereo_44KHz.wav
2	194	2	1	0	C	1	0	599	0	poli_8sides 6_whiteLine3.jpg	Short_b23_cut1_stereo_44KHz.wav
2	195	4	4	2	I	2	0	646	1	poli_8sides 8_whiteLine3.jpg	Short_b20_cut1_stereo_44KHz.wav
2	196	1	1	1	C	2	0	812	0	poli_8sides 13_whiteLine3.jpg	Short_b23_cut1_stereo_44KHz.wav
2	197	4	3	2	I	2	0	526	1	poli_8sides 8_whiteLine3.jpg	Short_b09_cut1_stereo_44KHz.wav
2	198	2	2	1	C	1	1	571	1	poli_8sides 6_whiteLine3.jpg	Short_b22_cut1_stereo_44KHz.wav
2	199	3	3	2	I	2	0	727	1	poli_8sides 2_whiteLine3.jpg	Short_b09_cut1_stereo_44KHz.wav
2	200	1	2	0	C	2	1	552	1	poli_8sides 13_whiteLine3.jpg	Short_b22_cut1_stereo_44KHz.wav
3	1	4	4	2	I	1	0	1067	0	poli_8sides 18_whiteLine3.jpg	MediumLong_e04_stereo_44KHz.wav
3	2	2	2	1	C	2	0	647	0	poli_8sides 9_whiteLine3.jpg	Medium_e21_stereo_44KHz.wav
3	3	3	4	2	I	2	0	828	1	poli_8sides 12_whiteLine3.jpg	MediumLong_e04_stereo_44KHz.wav
3	4	1	2	0	C	1	0	868	0	poli_8sides 4_whiteLine3.jpg	Medium_e21_stereo_44KHz.wav
3	5	3	3	2	I	2	0	726	0	poli_8sides 12_whiteLine3.jpg	Medium_e13_stereo_44KHz.wav
3	6	1	1	1	C	2	0	1044	0	poli_8sides 4_whiteLine3.jpg	MediumLong_e19_stereo_44KHz.wav
3	7	2	1	0	C	2	1	1113	1	poli_8sides 9_whiteLine3.jpg	MediumLong_e19_stereo_44KHz.wav
3	8	4	3	2	I	1	0	760	0	poli_8sides 18_whiteLine3.jpg	Medium_e13_stereo_44KHz.wav
3	9	3	3	2	I	1	0	1058	0	poli_8sides 12_whiteLine3.jpg	Medium_e13_stereo_44KHz.wav
3	10	2	2	1	C	2	0	896	0	poli_8sides 9_whiteLine3.jpg	Medium_e21_stereo_44KHz.wav
3	11	1	1	1	C	2	0	1141	0	poli_8sides 4_whiteLine3.jpg	MediumLong_e19_stereo_44KHz.wav
3	12	4	4	2	I	2	0	979	1	poli_8sides 18_whiteLine3.jpg	MediumLong_e04_stereo_44KHz.wav
3	13	2	1	0	C	1	0	1029	0	poli_8sides 9_whiteLine3.jpg	MediumLong_e19_stereo_44KHz.wav
3	14	4	3	2	I	2	0	1351	0	poli_8sides 18_whiteLine3.jpg	Medium_e13_stereo_44KHz.wav
3	15	1	2	0	C	1	0	1495	0	poli_8sides 4_whiteLine3.jpg	Medium_e21_stereo_44KHz.wav
3	16	3	4	2	I	2	0	1044	1	poli_8sides 12_whiteLine3.jpg	MediumLong_e04_stereo_44KHz.wav
3	17	1	1	1	C	2	0	1059	0	poli_8sides 4_whiteLine3.jpg	MediumLong_e19_stereo_44KHz.wav
3	18	2	1	0	C	1	0	919	0	poli_8sides 9_whiteLine3.jpg	MediumLong_e19_stereo_44KHz.wav
3	19	4	3	2	I	2	0	1105	1	poli_8sides 18_whiteLine3.jpg	Medium_e13_stereo_44KHz.wav
3	20	3	3	2	I	1	0	1365	0	poli_8sides 12_whiteLine3.jpg	Medium_e13_stereo_44KHz.wav
3	21	2	2	1	C	2	0	647	0	poli_8sides 9_whiteLine3.jpg	Medium_e21_stereo_44KHz.wav
3	22	4	4	2	I	1	0	1303	0	poli_8sides 18_whiteLine3.jpg	MediumLong_e04_stereo_44KHz.wav
3	23	3	4	2	I	2	0	796	0	poli_8sides 12_whiteLine3.jpg	MediumLong_e04_stereo_44KHz.wav
3	24	1	2	0	C	1	0	862	0	poli_8sides 4_whiteLine3.jpg	Medium_e21_stereo_44KHz.wav
3	25	3	3	2	I	2	0	1060	1	poli_8sides 12_whiteLine3.jpg	Medium_e13_stereo_44KHz.wav
3	26	1	1	1	C	1	1	975	1	poli_8sides 4_whiteLine3.jpg	MediumLong_e19_stereo_44KHz.wav
3	27	2	2	1	C	2	0	789	0	poli_8sides 9_whiteLine3.jpg	Medium_e21_stereo_44KHz.wav
3	28	4	4	2	I	2	0	749	1	poli_8sides 18_whiteLine3.jpg	MediumLong_e04_stereo_44KHz.wav
3	29	1	2	0	C	1	0	773	0	poli_8sides 4_whiteLine3.jpg	Medium_e21_stereo_44KHz.wav
3	30	2	1	0	C	2	1	923	1	poli_8sides 9_whiteLine3.jpg	MediumLong_e19_stereo_44KHz.wav
3	31	4	3	2	I	1	0	856	0	poli_8sides 18_whiteLine3.jpg	Medium_e13_stereo_44KHz.wav
3	32	3	4	2	I	1	0	891	1	poli_8sides 12_whiteLine3.jpg	MediumLong_e04_stereo_44KHz.wav
3	33	4	4	2	I	2	0	602	1	poli_8sides 18_whiteLine3.jpg	MediumLong_e04_stereo_44KHz.wav
3	34	3	4	2	I	1	0	785	0	poli_8sides 12_whiteLine3.jpg	MediumLong_e04_stereo_44KHz.wav
3	35	1	1	1	C	1	1	921	1	poli_8sides 4_whiteLine3.jpg	MediumLong_e19_stereo_44KHz.wav
3	36	2	2	1	C	2	0	885	0	poli_8sides 9_whiteLine3.jpg	Medium_e21_stereo_44KHz.wav
3	37	3	3	2	I	1	0	873	0	poli_8sides 12_whiteLine3.jpg	Medium_e13_stereo_44KHz.wav
3	38	2	1	0	C	2	1	829	1	poli_8sides 9_whiteLine3.jpg	MediumLong_e19_stereo_44KHz.wav
3	39	4	3	2	I	2	0	954	1	poli_8sides 18_whiteLine3.jpg	Medium_e13_stereo_44KHz.wav
3	40	1	2	0	C	1	0	685	0	poli_8sides 4_whiteLine3.jpg	Medium_e21_stereo_44KHz.wav
3	41	4	3	2	I	2	0	667	1	poli_8sides 18_whiteLine3.jpg	Medium_e13_stereo_44KHz.wav
3	42	2	1	0	C	2	1	1036	1	poli_8sides 9_whiteLine3.jpg	MediumLong_e19_stereo_44KHz.wav
3	43	1	1	1	C	1	1	932	1	poli_8sides 4_whiteLine3.jpg	MediumLong_e19_stereo_44KHz.wav
3	44	3	4	2	I	2	0	945	1	poli_8sides 12_whiteLine3.jpg	MediumLong_e04_stereo_44KHz.wav
3	45	2	2	1	C	1	1	1064	1	poli_8sides 9_whiteLine3.jpg	Medium_e21_stereo_44KHz.wav
3	46	4	4	2	I	2	0	682	1	poli_8sides 18_whiteLine3.jpg	MediumLong_e04_stereo_44KHz.wav
3	47	1	2	0	C	1	0	1012	0	poli_8sides 4_whiteLine3.jpg	Medium_e21_stereo_44KHz.wav
3	48	3	3	2	I	2	0	873	1	poli_8sides 12_whiteLine3.jpg	Medium_e13_stereo_44KHz.wav
3	49	2	2	1	C	2	0	800	0	poli_8sides 9_whiteLine3.jpg	Medium_e21_stereo_44KHz.wav
3	50	1	2	0	C	1	0	817	0	poli_8sides 4_whiteLine3.jpg	Medium_e21_stereo_44KHz.wav
3	51	4	4	2	I	2	0	803	0	poli_8sides 18_whiteLine3.jpg	MediumLong_e04_stereo_44KHz.wav
3	52	3	4	2	I	2	0	738	0	poli_8sides 12_whiteLine3.jpg	MediumLong_e04_stereo_44KHz.wav
3	53	1	1	1	C	1	1	848	1	poli_8sides 4_whiteLine3.jpg	MediumLong_e19_stereo_44KHz.wav
3	54	3	3	2	I	2	0	766	1	poli_8sides 12_whiteLine3.jpg	Medium_e13_stereo_44KHz.wav
3	55	2	1	0	C	2	1	1113	1	poli_8sides 9_whiteLine3.jpg	MediumLong_e19_stereo_44KHz.wav
3	56	4	3	2	I	2	0	876	1	poli_8sides 18_whiteLine3.jpg	Medium_e13_stereo_44KHz.wav
3	57	3	4	2	I	2	0	977	0	poli_8sides 12_whiteLine3.jpg	MediumLong_e04_stereo_44KHz.wav
3	58	2	1	0	C	2	1	925	1	poli_8sides 9_whiteLine3.jpg	MediumLong_e19_stereo_44KHz.wav
3	59	4	3	2	I	2	0	704	0	poli_8sides 18_whiteLine3.jpg	Medium_e13_stereo_44KHz.wav
3	60	1	1	1	C	1	1	814	1	poli_8sides 4_whiteLine3.jpg	MediumLong_e19_stereo_44KHz.wav
3	61	4	4	2	I	2	0	677	1	poli_8sides 18_whiteLine3.jpg	MediumLong_e04_stereo_44KHz.wav
3	62	3	3	2	I	2	0	1145	0	poli_8sides 12_whiteLine3.jpg	Medium_e13_stereo_44KHz.wav
3	63	1	2	0	C	1	0	973	0	poli_8sides 4_whiteLine3.jpg	Medium_e21_stereo_44KHz.wav
3	64	2	2	1	C	2	0	653	0	poli_8sides 9_whiteLine3.jpg	Medium_e21_stereo_44KHz.wav
3	65	1	1	1	C	1	1	982	1	poli_8sides 4_whiteLine3.jpg	MediumLong_e19_stereo_44KHz.wav
3	66	3	4	2	I	2	0	827	0	poli_8sides 12_whiteLine3.jpg	MediumLong_e04_stereo_44KHz.wav
3	67	2	2	1	C	1	1	885	1	poli_8sides 9_whiteLine3.jpg	Medium_e21_stereo_44KHz.wav
3	68	4	3	2	I	2	0	867	1	poli_8sides 18_whiteLine3.jpg	Medium_e13_stereo_44KHz.wav
3	69	2	1	0	C	2	1	641	1	poli_8sides 9_whiteLine3.jpg	MediumLong_e19_stereo_44KHz.wav
3	70	3	3	2	I	2	0	701	1	poli_8sides 12_whiteLine3.jpg	Medium_e13_stereo_44KHz.wav
3	71	4	4	2	I	2	0	831	1	poli_8sides 18_whiteLine3.jpg	MediumLong_e04_stereo_44KHz.wav
3	72	1	2	0	C	2	1	857	1	poli_8sides 4_whiteLine3.jpg	Medium_e21_stereo_44KHz.wav
3	73	3	3	2	I	2	0	956	0	poli_8sides 12_whiteLine3.jpg	Medium_e13_stereo_44KHz.wav
3	74	4	4	2	I	2	0	672	0	poli_8sides 18_whiteLine3.jpg	MediumLong_e04_stereo_44KHz.wav
3	75	1	1	1	C	1	1	1095	1	poli_8sides 4_whiteLine3.jpg	MediumLong_e19_stereo_44KHz.wav
3	76	2	1	0	C	2	1	689	1	poli_8sides 9_whiteLine3.jpg	MediumLong_e19_stereo_44KHz.wav
3	77	4	3	2	I	2	0	827	0	poli_8sides 18_whiteLine3.jpg	Medium_e13_stereo_44KHz.wav
3	78	2	2	1	C	1	1	844	1	poli_8sides 9_whiteLine3.jpg	Medium_e21_stereo_44KHz.wav
3	79	3	4	2	I	2	0	782	1	poli_8sides 12_whiteLine3.jpg	MediumLong_e04_stereo_44KHz.wav
3	80	1	2	0	C	2	1	850	1	poli_8sides 4_whiteLine3.jpg	Medium_e21_stereo_44KHz.wav
3	81	2	1	0	C	2	1	636	1	poli_8sides 9_whiteLine3.jpg	MediumLong_e19_stereo_44KHz.wav
3	82	3	3	2	I	2	0	692	1	poli_8sides 12_whiteLine3.jpg	Medium_e13_stereo_44KHz.wav
3	83	4	4	2	I	2	0	739	0	poli_8sides 18_whiteLine3.jpg	MediumLong_e04_stereo_44KHz.wav
3	84	1	2	0	C	2	1	799	1	poli_8sides 4_whiteLine3.jpg	Medium_e21_stereo_44KHz.wav
3	85	3	4	2	I	2	0	759	1	poli_8sides 12_whiteLine3.jpg	MediumLong_e04_stereo_44KHz.wav
3	86	4	3	2	I	2	0	768	1	poli_8sides 18_whiteLine3.jpg	Medium_e13_stereo_44KHz.wav
3	87	1	1	1	C	1	1	810	1	poli_8sides 4_whiteLine3.jpg	MediumLong_e19_stereo_44KHz.wav
3	88	2	2	1	C	2	0	891	0	poli_8sides 9_whiteLine3.jpg	Medium_e21_stereo_44KHz.wav
3	89	3	3	2	I	2	0	861	0	poli_8sides 12_whiteLine3.jpg	Medium_e13_stereo_44KHz.wav
3	90	4	4	2	I	2	0	691	1	poli_8sides 18_whiteLine3.jpg	MediumLong_e04_stereo_44KHz.wav
3	91	1	1	1	C	1	1	746	1	poli_8sides 4_whiteLine3.jpg	MediumLong_e19_stereo_44KHz.wav
3	92	2	2	1	C	2	0	951	0	poli_8sides 9_whiteLine3.jpg	Medium_e21_stereo_44KHz.wav
3	93	4	3	2	I	2	0	815	1	poli_8sides 18_whiteLine3.jpg	Medium_e13_stereo_44KHz.wav
3	94	3	4	2	I	2	0	761	0	poli_8sides 12_whiteLine3.jpg	MediumLong_e04_stereo_44KHz.wav
3	95	1	2	0	C	2	1	918	1	poli_8sides 4_whiteLine3.jpg	Medium_e21_stereo_44KHz.wav
3	96	2	1	0	C	2	1	675	1	poli_8sides 9_whiteLine3.jpg	MediumLong_e19_stereo_44KHz.wav
3	97	4	3	2	I	2	0	999	0	poli_8sides 18_whiteLine3.jpg	Medium_e13_stereo_44KHz.wav
3	98	1	1	1	C	1	1	889	1	poli_8sides 4_whiteLine3.jpg	MediumLong_e19_stereo_44KHz.wav
3	99	2	1	0	C	2	1	607	1	poli_8sides 9_whiteLine3.jpg	MediumLong_e19_stereo_44KHz.wav
3	100	3	4	2	I	2	0	750	1	poli_8sides 12_whiteLine3.jpg	MediumLong_e04_stereo_44KHz.wav
3	101	4	4	2	I	2	0	856	1	poli_8sides 18_whiteLine3.jpg	MediumLong_e04_stereo_44KHz.wav
3	102	2	2	1	C	1	1	1070	1	poli_8sides 9_whiteLine3.jpg	Medium_e21_stereo_44KHz.wav
3	103	1	2	0	C	2	1	774	1	poli_8sides 4_whiteLine3.jpg	Medium_e21_stereo_44KHz.wav
3	104	3	3	2	I	2	0	848	1	poli_8sides 12_whiteLine3.jpg	Medium_e13_stereo_44KHz.wav
3	105	1	2	0	C	2	1	776	1	poli_8sides 4_whiteLine3.jpg	Medium_e21_stereo_44KHz.wav
3	106	4	4	2	I	2	0	808	0	poli_8sides 18_whiteLine3.jpg	MediumLong_e04_stereo_44KHz.wav
3	107	2	2	1	C	1	1	994	1	poli_8sides 9_whiteLine3.jpg	Medium_e21_stereo_44KHz.wav
3	108	3	4	2	I	2	0	828	0	poli_8sides 12_whiteLine3.jpg	MediumLong_e04_stereo_44KHz.wav
3	109	4	3	2	I	2	0	769	0	poli_8sides 18_whiteLine3.jpg	Medium_e13_stereo_44KHz.wav
3	110	1	1	1	C	1	1	1103	1	poli_8sides 4_whiteLine3.jpg	MediumLong_e19_stereo_44KHz.wav
3	111	3	3	2	I	2	0	714	0	poli_8sides 12_whiteLine3.jpg	Medium_e13_stereo_44KHz.wav
3	112	2	1	0	C	2	1	714	1	poli_8sides 9_whiteLine3.jpg	MediumLong_e19_stereo_44KHz.wav
3	113	1	2	0	C	2	1	929	1	poli_8sides 4_whiteLine3.jpg	Medium_e21_stereo_44KHz.wav
3	114	2	2	1	C	1	1	862	1	poli_8sides 9_whiteLine3.jpg	Medium_e21_stereo_44KHz.wav
3	115	3	4	2	I	2	0	786	0	poli_8sides 12_whiteLine3.jpg	MediumLong_e04_stereo_44KHz.wav
3	116	4	3	2	I	2	0	971	0	poli_8sides 18_whiteLine3.jpg	Medium_e13_stereo_44KHz.wav
3	117	2	1	0	C	2	1	865	1	poli_8sides 9_whiteLine3.jpg	MediumLong_e19_stereo_44KHz.wav
3	118	1	1	1	C	1	1	772	1	poli_8sides 4_whiteLine3.jpg	MediumLong_e19_stereo_44KHz.wav
3	119	3	3	2	I	2	0	800	1	poli_8sides 12_whiteLine3.jpg	Medium_e13_stereo_44KHz.wav
3	120	4	4	2	I	2	0	1073	0	poli_8sides 18_whiteLine3.jpg	MediumLong_e04_stereo_44KHz.wav
3	121	1	1	1	C	1	1	755	1	poli_8sides 4_whiteLine3.jpg	MediumLong_e19_stereo_44KHz.wav
3	122	2	1	0	C	2	1	668	1	poli_8sides 9_whiteLine3.jpg	MediumLong_e19_stereo_44KHz.wav
3	123	3	3	2	I	2	0	785	1	poli_8sides 12_whiteLine3.jpg	Medium_e13_stereo_44KHz.wav
3	124	4	4	2	I	2	0	775	0	poli_8sides 18_whiteLine3.jpg	MediumLong_e04_stereo_44KHz.wav
3	125	3	4	2	I	2	0	664	0	poli_8sides 12_whiteLine3.jpg	MediumLong_e04_stereo_44KHz.wav
3	126	4	3	2	I	2	0	591	0	poli_8sides 18_whiteLine3.jpg	Medium_e13_stereo_44KHz.wav
3	127	1	2	0	C	2	1	803	1	poli_8sides 4_whiteLine3.jpg	Medium_e21_stereo_44KHz.wav
3	128	2	2	1	C	1	1	806	1	poli_8sides 9_whiteLine3.jpg	Medium_e21_stereo_44KHz.wav
3	129	3	3	2	I	2	0	763	0	poli_8sides 12_whiteLine3.jpg	Medium_e13_stereo_44KHz.wav
3	130	2	1	0	C	2	1	654	1	poli_8sides 9_whiteLine3.jpg	MediumLong_e19_stereo_44KHz.wav
3	131	1	2	0	C	1	0	872	0	poli_8sides 4_whiteLine3.jpg	Medium_e21_stereo_44KHz.wav
3	132	4	3	2	I	1	0	995	1	poli_8sides 18_whiteLine3.jpg	Medium_e13_stereo_44KHz.wav
3	133	1	1	1	C	1	1	972	1	poli_8sides 4_whiteLine3.jpg	MediumLong_e19_stereo_44KHz.wav
3	134	4	4	2	I	1	0	1087	1	poli_8sides 18_whiteLine3.jpg	MediumLong_e04_stereo_44KHz.wav
3	135	3	4	2	I	2	0	747	0	poli_8sides 12_whiteLine3.jpg	MediumLong_e04_stereo_44KHz.wav
3	136	2	2	1	C	1	1	903	1	poli_8sides 9_whiteLine3.jpg	Medium_e21_stereo_44KHz.wav
3	137	4	4	2	I	1	0	822	0	poli_8sides 18_whiteLine3.jpg	MediumLong_e04_stereo_44KHz.wav
3	138	2	2	1	C	1	1	852	1	poli_8sides 9_whiteLine3.jpg	Medium_e21_stereo_44KHz.wav
3	139	1	1	1	C	1	1	753	1	poli_8sides 4_whiteLine3.jpg	MediumLong_e19_stereo_44KHz.wav
3	140	3	3	2	I	2	0	838	1	poli_8sides 12_whiteLine3.jpg	Medium_e13_stereo_44KHz.wav
3	141	4	3	2	I	1	0	972	0	poli_8sides 18_whiteLine3.jpg	Medium_e13_stereo_44KHz.wav
3	142	1	2	0	C	2	1	1037	1	poli_8sides 4_whiteLine3.jpg	Medium_e21_stereo_44KHz.wav
3	143	2	1	0	C	2	1	709	1	poli_8sides 9_whiteLine3.jpg	MediumLong_e19_stereo_44KHz.wav
3	144	3	4	2	I	2	0	879	0	poli_8sides 12_whiteLine3.jpg	MediumLong_e04_stereo_44KHz.wav
3	145	2	2	1	C	1	1	828	1	poli_8sides 9_whiteLine3.jpg	Medium_e21_stereo_44KHz.wav
3	146	3	3	2	I	2	0	781	1	poli_8sides 12_whiteLine3.jpg	Medium_e13_stereo_44KHz.wav
3	147	1	1	1	C	1	1	769	1	poli_8sides 4_whiteLine3.jpg	MediumLong_e19_stereo_44KHz.wav
3	148	4	4	2	I	2	0	951	1	poli_8sides 18_whiteLine3.jpg	MediumLong_e04_stereo_44KHz.wav
3	149	3	4	2	I	1	0	904	0	poli_8sides 12_whiteLine3.jpg	MediumLong_e04_stereo_44KHz.wav
3	150	2	1	0	C	2	1	746	1	poli_8sides 9_whiteLine3.jpg	MediumLong_e19_stereo_44KHz.wav
3	151	4	3	2	I	2	0	1201	1	poli_8sides 18_whiteLine3.jpg	Medium_e13_stereo_44KHz.wav
3	152	1	2	0	C	1	0	1147	0	poli_8sides 4_whiteLine3.jpg	Medium_e21_stereo_44KHz.wav
3	153	3	4	2	I	2	0	885	1	poli_8sides 12_whiteLine3.jpg	MediumLong_e04_stereo_44KHz.wav
3	154	1	2	0	C	2	1	926	1	poli_8sides 4_whiteLine3.jpg	Medium_e21_stereo_44KHz.wav
3	155	2	2	1	C	1	1	989	1	poli_8sides 9_whiteLine3.jpg	Medium_e21_stereo_44KHz.wav
3	156	4	4	2	I	2	0	684	1	poli_8sides 18_whiteLine3.jpg	MediumLong_e04_stereo_44KHz.wav
3	157	3	3	2	I	2	0	915	1	poli_8sides 12_whiteLine3.jpg	Medium_e13_stereo_44KHz.wav
3	158	2	1	0	C	2	1	819	1	poli_8sides 9_whiteLine3.jpg	MediumLong_e19_stereo_44KHz.wav
3	159	4	3	2	I	2	0	741	1	poli_8sides 18_whiteLine3.jpg	Medium_e13_stereo_44KHz.wav
3	160	1	1	1	C	1	1	807	1	poli_8sides 4_whiteLine3.jpg	MediumLong_e19_stereo_44KHz.wav
3	161	2	2	1	C	2	0	945	0	poli_8sides 9_whiteLine3.jpg	Medium_e21_stereo_44KHz.wav
3	162	3	4	2	I	2	0	780	1	poli_8sides 12_whiteLine3.jpg	MediumLong_e04_stereo_44KHz.wav
3	163	4	4	2	I	2	0	749	0	poli_8sides 18_whiteLine3.jpg	MediumLong_e04_stereo_44KHz.wav
3	164	1	2	0	C	2	1	895	1	poli_8sides 4_whiteLine3.jpg	Medium_e21_stereo_44KHz.wav
3	165	2	1	0	C	2	1	735	1	poli_8sides 9_whiteLine3.jpg	MediumLong_e19_stereo_44KHz.wav
3	166	3	3	2	I	2	0	1074	1	poli_8sides 12_whiteLine3.jpg	Medium_e13_stereo_44KHz.wav
3	167	4	3	2	I	2	0	708	0	poli_8sides 18_whiteLine3.jpg	Medium_e13_stereo_44KHz.wav
3	168	1	1	1	C	1	1	778	1	poli_8sides 4_whiteLine3.jpg	MediumLong_e19_stereo_44KHz.wav
3	169	2	2	1	C	2	0	899	0	poli_8sides 9_whiteLine3.jpg	Medium_e21_stereo_44KHz.wav
3	170	1	2	0	C	2	1	821	1	poli_8sides 4_whiteLine3.jpg	Medium_e21_stereo_44KHz.wav
3	171	3	4	2	I	2	0	720	0	poli_8sides 12_whiteLine3.jpg	MediumLong_e04_stereo_44KHz.wav
3	172	4	3	2	I	2	0	754	0	poli_8sides 18_whiteLine3.jpg	Medium_e13_stereo_44KHz.wav
3	173	2	1	0	C	2	1	559	1	poli_8sides 9_whiteLine3.jpg	MediumLong_e19_stereo_44KHz.wav
3	174	3	3	2	I	2	0	676	1	poli_8sides 12_whiteLine3.jpg	Medium_e13_stereo_44KHz.wav
3	175	1	1	1	C	1	1	760	1	poli_8sides 4_whiteLine3.jpg	MediumLong_e19_stereo_44KHz.wav
3	176	4	4	2	I	2	0	900	0	poli_8sides 18_whiteLine3.jpg	MediumLong_e04_stereo_44KHz.wav
3	177	3	4	2	I	2	0	659	0	poli_8sides 12_whiteLine3.jpg	MediumLong_e04_stereo_44KHz.wav
3	178	2	1	0	C	2	1	582	1	poli_8sides 9_whiteLine3.jpg	MediumLong_e19_stereo_44KHz.wav
3	179	1	2	0	C	2	1	897	1	poli_8sides 4_whiteLine3.jpg	Medium_e21_stereo_44KHz.wav
3	180	4	4	2	I	2	0	808	1	poli_8sides 18_whiteLine3.jpg	MediumLong_e04_stereo_44KHz.wav
3	181	3	3	2	I	2	0	845	0	poli_8sides 12_whiteLine3.jpg	Medium_e13_stereo_44KHz.wav
3	182	4	3	2	I	1	0	889	0	poli_8sides 18_whiteLine3.jpg	Medium_e13_stereo_44KHz.wav
3	183	2	2	1	C	1	1	1139	1	poli_8sides 9_whiteLine3.jpg	Medium_e21_stereo_44KHz.wav
3	184	1	1	1	C	1	1	727	1	poli_8sides 4_whiteLine3.jpg	MediumLong_e19_stereo_44KHz.wav
3	185	3	4	2	I	2	0	947	1	poli_8sides 12_whiteLine3.jpg	MediumLong_e04_stereo_44KHz.wav
3	186	4	3	2	I	1	0	858	1	poli_8sides 18_whiteLine3.jpg	Medium_e13_stereo_44KHz.wav
3	187	2	1	0	C	2	1	764	1	poli_8sides 9_whiteLine3.jpg	MediumLong_e19_stereo_44KHz.wav
3	188	1	2	0	C	2	1	1064	1	poli_8sides 4_whiteLine3.jpg	Medium_e21_stereo_44KHz.wav
3	189	4	4	2	I	2	0	864	1	poli_8sides 18_whiteLine3.jpg	MediumLong_e04_stereo_44KHz.wav
3	190	2	2	1	C	1	1	981	1	poli_8sides 9_whiteLine3.jpg	Medium_e21_stereo_44KHz.wav
3	191	3	3	2	I	2	0	828	1	poli_8sides 12_whiteLine3.jpg	Medium_e13_stereo_44KHz.wav
3	192	1	1	1	C	1	1	740	1	poli_8sides 4_whiteLine3.jpg	MediumLong_e19_stereo_44KHz.wav
3	193	4	4	2	I	2	0	685	1	poli_8sides 18_whiteLine3.jpg	MediumLong_e04_stereo_44KHz.wav
3	194	1	1	1	C	1	1	797	1	poli_8sides 4_whiteLine3.jpg	MediumLong_e19_stereo_44KHz.wav
3	195	3	4	2	I	2	0	694	1	poli_8sides 12_whiteLine3.jpg	MediumLong_e04_stereo_44KHz.wav
3	196	2	2	1	C	1	1	1022	1	poli_8sides 9_whiteLine3.jpg	Medium_e21_stereo_44KHz.wav
3	197	3	3	2	I	2	0	658	0	poli_8sides 12_whiteLine3.jpg	Medium_e13_stereo_44KHz.wav
3	198	2	1	0	C	2	1	742	1	poli_8sides 9_whiteLine3.jpg	MediumLong_e19_stereo_44KHz.wav
3	199	1	2	0	C	2	1	881	1	poli_8sides 4_whiteLine3.jpg	Medium_e21_stereo_44KHz.wav
3	200	4	3	2	I	2	0	698	0	poli_8sides 18_whiteLine3.jpg	Medium_e13_stereo_44KHz.wav
4	1	1	2	0	C	1	0	871	0	poli_8sides 15_whiteLine3.jpg	MediumLong_e17_cut2_stereo_44KHz.wav
4	2	4	4	2	I	2	0	950	1	poli_8sides 10_whiteLine3.jpg	MediumLong_b10_cut2_L_stereo_44KHz.wav
4	3	3	3	2	I	2	0	804	0	poli_8sides 5_whiteLine3.jpg	Medium_e26_stereo_44KHz.wav
4	4	2	2	1	C	2	0	996	0	poli_8sides 16_whiteLine3.jpg	MediumLong_e17_cut2_stereo_44KHz.wav
4	5	3	4	2	I	2	0	999	1	poli_8sides 5_whiteLine3.jpg	MediumLong_b10_cut2_L_stereo_44KHz.wav
4	6	4	3	2	I	2	0	1136	0	poli_8sides 10_whiteLine3.jpg	Medium_e26_stereo_44KHz.wav
4	7	2	1	0	C	1	0	662	0	poli_8sides 16_whiteLine3.jpg	Medium_e01_cut1_stereo_44KHz.wav
4	8	1	1	1	C	2	0	696	0	poli_8sides 15_whiteLine3.jpg	Medium_e01_cut1_stereo_44KHz.wav
4	9	4	3	2	I	2	0	925	0	poli_8sides 10_whiteLine3.jpg	Medium_e26_stereo_44KHz.wav
4	10	2	2	1	C	2	0	1229	0	poli_8sides 16_whiteLine3.jpg	MediumLong_e17_cut2_stereo_44KHz.wav
4	11	1	1	1	C	2	0	1228	0	poli_8sides 15_whiteLine3.jpg	Medium_e01_cut1_stereo_44KHz.wav
4	12	3	3	2	I	2	0	831	0	poli_8sides 5_whiteLine3.jpg	Medium_e26_stereo_44KHz.wav
4	13	4	4	2	I	2	0	766	0	poli_8sides 10_whiteLine3.jpg	MediumLong_b10_cut2_L_stereo_44KHz.wav
4	14	3	4	2	I	2	0	722	0	poli_8sides 5_whiteLine3.jpg	MediumLong_b10_cut2_L_stereo_44KHz.wav
4	15	2	1	0	C	1	0	923	0	poli_8sides 16_whiteLine3.jpg	Medium_e01_cut1_stereo_44KHz.wav
4	16	1	2	0	C	2	1	731	1	poli_8sides 15_whiteLine3.jpg	MediumLong_e17_cut2_stereo_44KHz.wav
4	17	2	2	1	C	1	1	730	1	poli_8sides 16_whiteLine3.jpg	MediumLong_e17_cut2_stereo_44KHz.wav
4	18	1	1	1	C	1	1	838	1	poli_8sides 15_whiteLine3.jpg	Medium_e01_cut1_stereo_44KHz.wav
4	19	4	4	2	I	2	0	772	1	poli_8sides 10_whiteLine3.jpg	MediumLong_b10_cut2_L_stereo_44KHz.wav
4	20	3	3	2	I	1	0	1050	1	poli_8sides 5_whiteLine3.jpg	Medium_e26_stereo_44KHz.wav
4	21	2	1	0	C	2	1	672	1	poli_8sides 16_whiteLine3.jpg	Medium_e01_cut1_stereo_44KHz.wav
4	22	1	2	0	C	2	1	507	1	poli_8sides 15_whiteLine3.jpg	MediumLong_e17_cut2_stereo_44KHz.wav
4	23	4	3	2	I	1	0	666	0	poli_8sides 10_whiteLine3.jpg	Medium_e26_stereo_44KHz.wav
4	24	3	4	2	I	1	0	892	0	poli_8sides 5_whiteLine3.jpg	MediumLong_b10_cut2_L_stereo_44KHz.wav
4	25	4	4	2	I	2	0	669	0	poli_8sides 10_whiteLine3.jpg	MediumLong_b10_cut2_L_stereo_44KHz.wav
4	26	2	2	1	C	2	0	1006	0	poli_8sides 16_whiteLine3.jpg	MediumLong_e17_cut2_stereo_44KHz.wav
4	27	1	1	1	C	1	1	578	1	poli_8sides 15_whiteLine3.jpg	Medium_e01_cut1_stereo_44KHz.wav
4	28	3	4	2	I	2	0	796	0	poli_8sides 5_whiteLine3.jpg	MediumLong_b10_cut2_L_stereo_44KHz.wav
4	29	4	3	2	I	2	0	985	1	poli_8sides 10_whiteLine3.jpg	Medium_e26_stereo_44KHz.wav
4	30	2	1	0	C	1	0	712	0	poli_8sides 16_whiteLine3.jpg	Medium_e01_cut1_stereo_44KHz.wav
4	31	1	2	0	C	2	1	753	1	poli_8sides 15_whiteLine3.jpg	MediumLong_e17_cut2_stereo_44KHz.wav
4	32	3	3	2	I	2	0	796	0	poli_8sides 5_whiteLine3.jpg	Medium_e26_stereo_44KHz.wav
4	33	1	1	1	C	1	1	763	1	poli_8sides 15_whiteLine3.jpg	Medium_e01_cut1_stereo_44KHz.wav
4	34	4	4	2	I	2	0	900	0	poli_8sides 10_whiteLine3.jpg	MediumLong_b10_cut2_L_stereo_44KHz.wav
4	35	2	2	1	C	2	0	901	0	poli_8sides 16_whiteLine3.jpg	MediumLong_e17_cut2_stereo_44KHz.wav
4	36	3	4	2	I	1	0	707	0	poli_8sides 5_whiteLine3.jpg	MediumLong_b10_cut2_L_stereo_44KHz.wav
4	37	1	2	0	C	2	1	723	1	poli_8sides 15_whiteLine3.jpg	MediumLong_e17_cut2_stereo_44KHz.wav
4	38	2	1	0	C	1	0	746	0	poli_8sides 16_whiteLine3.jpg	Medium_e01_cut1_stereo_44KHz.wav
4	39	4	3	2	I	2	0	549	0	poli_8sides 10_whiteLine3.jpg	Medium_e26_stereo_44KHz.wav
4	40	3	3	2	I	2	0	959	1	poli_8sides 5_whiteLine3.jpg	Medium_e26_stereo_44KHz.wav
4	41	2	1	0	C	2	1	923	1	poli_8sides 16_whiteLine3.jpg	Medium_e01_cut1_stereo_44KHz.wav
4	42	3	3	2	I	1	0	616	1	poli_8sides 5_whiteLine3.jpg	Medium_e26_stereo_44KHz.wav
4	43	1	1	1	C	1	1	912	1	poli_8sides 15_whiteLine3.jpg	Medium_e01_cut1_stereo_44KHz.wav
4	44	4	3	2	I	1	0	611	0	poli_8sides 10_whiteLine3.jpg	Medium_e26_stereo_44KHz.wav
4	45	1	2	0	C	2	1	578	1	poli_8sides 15_whiteLine3.jpg	MediumLong_e17_cut2_stereo_44KHz.wav
4	46	3	4	2	I	1	0	832	1	poli_8sides 5_whiteLine3.jpg	MediumLong_b10_cut2_L_stereo_44KHz.wav
4	47	4	4	2	I	2	0	952	0	poli_8sides 10_whiteLine3.jpg	MediumLong_b10_cut2_L_stereo_44KHz.wav
4	48	2	2	1	C	1	1	974	1	poli_8sides 16_whiteLine3.jpg	MediumLong_e17_cut2_stereo_44KHz.wav
4	49	4	3	2	I	2	0	756	0	poli_8sides 10_whiteLine3.jpg	Medium_e26_stereo_44KHz.wav
4	50	3	3	2	I	2	0	731	1	poli_8sides 5_whiteLine3.jpg	Medium_e26_stereo_44KHz.wav
4	51	1	1	1	C	1	1	814	1	poli_8sides 15_whiteLine3.jpg	Medium_e01_cut1_stereo_44KHz.wav
4	52	2	2	1	C	2	0	665	0	poli_8sides 16_whiteLine3.jpg	MediumLong_e17_cut2_stereo_44KHz.wav
4	53	4	4	2	I	1	0	709	1	poli_8sides 10_whiteLine3.jpg	MediumLong_b10_cut2_L_stereo_44KHz.wav
4	54	2	1	0	C	2	1	717	1	poli_8sides 16_whiteLine3.jpg	Medium_e01_cut1_stereo_44KHz.wav
4	55	1	2	0	C	2	1	583	1	poli_8sides 15_whiteLine3.jpg	MediumLong_e17_cut2_stereo_44KHz.wav
4	56	3	4	2	I	1	0	583	0	poli_8sides 5_whiteLine3.jpg	MediumLong_b10_cut2_L_stereo_44KHz.wav
4	57	4	4	2	I	2	0	970	1	poli_8sides 10_whiteLine3.jpg	MediumLong_b10_cut2_L_stereo_44KHz.wav
4	58	3	3	2	I	1	0	834	1	poli_8sides 5_whiteLine3.jpg	Medium_e26_stereo_44KHz.wav
4	59	1	2	0	C	2	1	576	1	poli_8sides 15_whiteLine3.jpg	MediumLong_e17_cut2_stereo_44KHz.wav
4	60	2	2	1	C	1	1	625	1	poli_8sides 16_whiteLine3.jpg	MediumLong_e17_cut2_stereo_44KHz.wav
4	61	3	4	2	I	2	0	739	1	poli_8sides 5_whiteLine3.jpg	MediumLong_b10_cut2_L_stereo_44KHz.wav
4	62	2	1	0	C	2	1	797	1	poli_8sides 16_whiteLine3.jpg	Medium_e01_cut1_stereo_44KHz.wav
4	63	1	1	1	C	1	1	557	1	poli_8sides 15_whiteLine3.jpg	Medium_e01_cut1_stereo_44KHz.wav
4	64	4	3	2	I	1	0	761	0	poli_8sides 10_whiteLine3.jpg	Medium_e26_stereo_44KHz.wav
4	65	1	2	0	C	2	1	490	1	poli_8sides 15_whiteLine3.jpg	MediumLong_e17_cut2_stereo_44KHz.wav
4	66	4	3	2	I	2	0	402	1	poli_8sides 10_whiteLine3.jpg	Medium_e26_stereo_44KHz.wav
4	67	2	1	0	C	2	1	815	1	poli_8sides 16_whiteLine3.jpg	Medium_e01_cut1_stereo_44KHz.wav
4	68	3	3	2	I	1	0	786	0	poli_8sides 5_whiteLine3.jpg	Medium_e26_stereo_44KHz.wav
4	69	4	4	2	I	2	0	849	1	poli_8sides 10_whiteLine3.jpg	MediumLong_b10_cut2_L_stereo_44KHz.wav
4	70	2	2	1	C	1	1	907	1	poli_8sides 16_whiteLine3.jpg	MediumLong_e17_cut2_stereo_44KHz.wav
4	71	3	4	2	I	2	0	733	1	poli_8sides 5_whiteLine3.jpg	MediumLong_b10_cut2_L_stereo_44KHz.wav
4	72	1	1	1	C	1	1	810	1	poli_8sides 15_whiteLine3.jpg	Medium_e01_cut1_stereo_44KHz.wav
4	73	4	3	2	I	2	0	971	0	poli_8sides 10_whiteLine3.jpg	Medium_e26_stereo_44KHz.wav
4	74	3	3	2	I	1	0	901	1	poli_8sides 5_whiteLine3.jpg	Medium_e26_stereo_44KHz.wav
4	75	2	2	1	C	1	1	872	1	poli_8sides 16_whiteLine3.jpg	MediumLong_e17_cut2_stereo_44KHz.wav
4	76	1	2	0	C	2	1	619	1	poli_8sides 15_whiteLine3.jpg	MediumLong_e17_cut2_stereo_44KHz.wav
4	77	2	1	0	C	2	1	804	1	poli_8sides 16_whiteLine3.jpg	Medium_e01_cut1_stereo_44KHz.wav
4	78	1	1	1	C	1	1	919	1	poli_8sides 15_whiteLine3.jpg	Medium_e01_cut1_stereo_44KHz.wav
4	79	3	4	2	I	2	0	682	0	poli_8sides 5_whiteLine3.jpg	MediumLong_b10_cut2_L_stereo_44KHz.wav
4	80	4	4	2	I	2	0	736	1	poli_8sides 10_whiteLine3.jpg	MediumLong_b10_cut2_L_stereo_44KHz.wav
4	81	1	1	1	C	1	1	762	1	poli_8sides 15_whiteLine3.jpg	Medium_e01_cut1_stereo_44KHz.wav
4	82	4	3	2	I	1	0	875	1	poli_8sides 10_whiteLine3.jpg	Medium_e26_stereo_44KHz.wav
4	83	3	4	2	I	2	0	953	1	poli_8sides 5_whiteLine3.jpg	MediumLong_b10_cut2_L_stereo_44KHz.wav
4	84	2	1	0	C	2	1	717	1	poli_8sides 16_whiteLine3.jpg	Medium_e01_cut1_stereo_44KHz.wav
4	85	1	2	0	C	2	1	745	1	poli_8sides 15_whiteLine3.jpg	MediumLong_e17_cut2_stereo_44KHz.wav
4	86	3	3	2	I	2	0	668	0	poli_8sides 5_whiteLine3.jpg	Medium_e26_stereo_44KHz.wav
4	87	4	4	2	I	1	0	857	0	poli_8sides 10_whiteLine3.jpg	MediumLong_b10_cut2_L_stereo_44KHz.wav
4	88	2	2	1	C	1	1	843	1	poli_8sides 16_whiteLine3.jpg	MediumLong_e17_cut2_stereo_44KHz.wav
4	89	3	3	2	I	2	0	687	1	poli_8sides 5_whiteLine3.jpg	Medium_e26_stereo_44KHz.wav
4	90	1	2	0	C	2	1	748	1	poli_8sides 15_whiteLine3.jpg	MediumLong_e17_cut2_stereo_44KHz.wav
4	91	4	4	2	I	2	0	751	1	poli_8sides 10_whiteLine3.jpg	MediumLong_b10_cut2_L_stereo_44KHz.wav
4	92	2	2	1	C	1	1	821	1	poli_8sides 16_whiteLine3.jpg	MediumLong_e17_cut2_stereo_44KHz.wav
4	93	1	1	1	C	2	0	1065	0	poli_8sides 15_whiteLine3.jpg	Medium_e01_cut1_stereo_44KHz.wav
4	94	4	3	2	I	2	0	619	0	poli_8sides 10_whiteLine3.jpg	Medium_e26_stereo_44KHz.wav
4	95	3	4	2	I	2	0	642	1	poli_8sides 5_whiteLine3.jpg	MediumLong_b10_cut2_L_stereo_44KHz.wav
4	96	2	1	0	C	2	1	842	1	poli_8sides 16_whiteLine3.jpg	Medium_e01_cut1_stereo_44KHz.wav
4	97	4	4	2	I	2	0	833	1	poli_8sides 10_whiteLine3.jpg	MediumLong_b10_cut2_L_stereo_44KHz.wav
4	98	2	1	0	C	2	1	721	1	poli_8sides 16_whiteLine3.jpg	Medium_e01_cut1_stereo_44KHz.wav
4	99	3	3	2	I	2	0	748	0	poli_8sides 5_whiteLine3.jpg	Medium_e26_stereo_44KHz.wav
4	100	1	2	0	C	2	1	851	1	poli_8sides 15_whiteLine3.jpg	MediumLong_e17_cut2_stereo_44KHz.wav
4	101	3	4	2	I	2	0	644	0	poli_8sides 5_whiteLine3.jpg	MediumLong_b10_cut2_L_stereo_44KHz.wav
4	102	1	1	1	C	1	1	922	1	poli_8sides 15_whiteLine3.jpg	Medium_e01_cut1_stereo_44KHz.wav
4	103	2	2	1	C	1	1	883	1	poli_8sides 16_whiteLine3.jpg	MediumLong_e17_cut2_stereo_44KHz.wav
4	104	4	3	2	I	2	0	1057	0	poli_8sides 10_whiteLine3.jpg	Medium_e26_stereo_44KHz.wav
4	105	2	2	1	C	1	1	800	1	poli_8sides 16_whiteLine3.jpg	MediumLong_e17_cut2_stereo_44KHz.wav
4	106	4	3	2	I	2	0	659	1	poli_8sides 10_whiteLine3.jpg	Medium_e26_stereo_44KHz.wav
4	107	1	2	0	C	1	0	1024	0	poli_8sides 15_whiteLine3.jpg	MediumLong_e17_cut2_stereo_44KHz.wav
4	108	3	3	2	I	2	0	666	1	poli_8sides 5_whiteLine3.jpg	Medium_e26_stereo_44KHz.wav
4	109	2	1	0	C	2	1	666	1	poli_8sides 16_whiteLine3.jpg	Medium_e01_cut1_stereo_44KHz.wav
4	110	4	4	2	I	2	0	638	0	poli_8sides 10_whiteLine3.jpg	MediumLong_b10_cut2_L_stereo_44KHz.wav
4	111	1	1	1	C	1	1	813	1	poli_8sides 15_whiteLine3.jpg	Medium_e01_cut1_stereo_44KHz.wav
4	112	3	4	2	I	2	0	761	0	poli_8sides 5_whiteLine3.jpg	MediumLong_b10_cut2_L_stereo_44KHz.wav
4	113	1	1	1	C	1	1	720	1	poli_8sides 15_whiteLine3.jpg	Medium_e01_cut1_stereo_44KHz.wav
4	114	4	3	2	I	2	0	614	0	poli_8sides 10_whiteLine3.jpg	Medium_e26_stereo_44KHz.wav
4	115	2	1	0	C	2	1	794	1	poli_8sides 16_whiteLine3.jpg	Medium_e01_cut1_stereo_44KHz.wav
4	116	3	3	2	I	2	0	722	0	poli_8sides 5_whiteLine3.jpg	Medium_e26_stereo_44KHz.wav
4	117	4	4	2	I	2	0	1003	0	poli_8sides 10_whiteLine3.jpg	MediumLong_b10_cut2_L_stereo_44KHz.wav
4	118	1	2	0	C	2	1	1040	1	poli_8sides 15_whiteLine3.jpg	MediumLong_e17_cut2_stereo_44KHz.wav
4	119	2	2	1	C	1	1	634	1	poli_8sides 16_whiteLine3.jpg	MediumLong_e17_cut2_stereo_44KHz.wav
4	120	3	4	2	I	2	0	635	1	poli_8sides 5_whiteLine3.jpg	MediumLong_b10_cut2_L_stereo_44KHz.wav
4	121	4	4	2	I	2	0	637	0	poli_8sides 10_whiteLine3.jpg	MediumLong_b10_cut2_L_stereo_44KHz.wav
4	122	1	1	1	C	1	1	714	1	poli_8sides 15_whiteLine3.jpg	Medium_e01_cut1_stereo_44KHz.wav
4	123	3	3	2	I	2	0	1074	0	poli_8sides 5_whiteLine3.jpg	Medium_e26_stereo_44KHz.wav
4	124	2	2	1	C	1	1	1000	1	poli_8sides 16_whiteLine3.jpg	MediumLong_e17_cut2_stereo_44KHz.wav
4	125	4	3	2	I	2	0	640	1	poli_8sides 10_whiteLine3.jpg	Medium_e26_stereo_44KHz.wav
4	126	3	4	2	I	2	0	684	0	poli_8sides 5_whiteLine3.jpg	MediumLong_b10_cut2_L_stereo_44KHz.wav
4	127	1	2	0	C	2	1	893	1	poli_8sides 15_whiteLine3.jpg	MediumLong_e17_cut2_stereo_44KHz.wav
4	128	2	1	0	C	2	1	600	1	poli_8sides 16_whiteLine3.jpg	Medium_e01_cut1_stereo_44KHz.wav
4	129	1	2	0	C	2	1	760	1	poli_8sides 15_whiteLine3.jpg	MediumLong_e17_cut2_stereo_44KHz.wav
4	130	3	3	2	I	2	0	637	0	poli_8sides 5_whiteLine3.jpg	Medium_e26_stereo_44KHz.wav
4	131	4	4	2	I	2	0	689	1	poli_8sides 10_whiteLine3.jpg	MediumLong_b10_cut2_L_stereo_44KHz.wav
4	132	2	1	0	C	2	1	646	1	poli_8sides 16_whiteLine3.jpg	Medium_e01_cut1_stereo_44KHz.wav
4	133	4	3	2	I	2	0	905	0	poli_8sides 10_whiteLine3.jpg	Medium_e26_stereo_44KHz.wav
4	134	1	1	1	C	1	1	988	1	poli_8sides 15_whiteLine3.jpg	Medium_e01_cut1_stereo_44KHz.wav
4	135	3	4	2	I	2	0	722	1	poli_8sides 5_whiteLine3.jpg	MediumLong_b10_cut2_L_stereo_44KHz.wav
4	136	2	2	1	C	1	1	858	1	poli_8sides 16_whiteLine3.jpg	MediumLong_e17_cut2_stereo_44KHz.wav
4	137	1	1	1	C	1	1	768	1	poli_8sides 15_whiteLine3.jpg	Medium_e01_cut1_stereo_44KHz.wav
4	138	4	4	2	I	2	0	737	1	poli_8sides 10_whiteLine3.jpg	MediumLong_b10_cut2_L_stereo_44KHz.wav
4	139	2	1	0	C	2	1	714	1	poli_8sides 16_whiteLine3.jpg	Medium_e01_cut1_stereo_44KHz.wav
4	140	3	4	2	I	1	0	1032	0	poli_8sides 5_whiteLine3.jpg	MediumLong_b10_cut2_L_stereo_44KHz.wav
4	141	1	2	0	C	2	1	672	1	poli_8sides 15_whiteLine3.jpg	MediumLong_e17_cut2_stereo_44KHz.wav
4	142	3	3	2	I	1	0	734	1	poli_8sides 5_whiteLine3.jpg	Medium_e26_stereo_44KHz.wav
4	143	2	2	1	C	1	1	820	1	poli_8sides 16_whiteLine3.jpg	MediumLong_e17_cut2_stereo_44KHz.wav
4	144	4	3	2	I	2	0	716	1	poli_8sides 10_whiteLine3.jpg	Medium_e26_stereo_44KHz.wav
4	145	3	4	2	I	2	0	946	0	poli_8sides 5_whiteLine3.jpg	MediumLong_b10_cut2_L_stereo_44KHz.wav
4	146	1	1	1	C	1	1	772	1	poli_8sides 15_whiteLine3.jpg	Medium_e01_cut1_stereo_44KHz.wav
4	147	4	4	2	I	2	0	769	0	poli_8sides 10_whiteLine3.jpg	MediumLong_b10_cut2_L_stereo_44KHz.wav
4	148	2	1	0	C	2	1	689	1	poli_8sides 16_whiteLine3.jpg	Medium_e01_cut1_stereo_44KHz.wav
4	149	3	3	2	I	2	0	721	0	poli_8sides 5_whiteLine3.jpg	Medium_e26_stereo_44KHz.wav
4	150	4	3	2	I	2	0	669	1	poli_8sides 10_whiteLine3.jpg	Medium_e26_stereo_44KHz.wav
4	151	1	2	0	C	2	1	877	1	poli_8sides 15_whiteLine3.jpg	MediumLong_e17_cut2_stereo_44KHz.wav
4	152	2	2	1	C	1	1	679	1	poli_8sides 16_whiteLine3.jpg	MediumLong_e17_cut2_stereo_44KHz.wav
4	153	3	4	2	I	2	0	624	0	poli_8sides 5_whiteLine3.jpg	MediumLong_b10_cut2_L_stereo_44KHz.wav
4	154	1	2	0	C	2	1	849	1	poli_8sides 15_whiteLine3.jpg	MediumLong_e17_cut2_stereo_44KHz.wav
4	155	2	1	0	C	2	1	674	1	poli_8sides 16_whiteLine3.jpg	Medium_e01_cut1_stereo_44KHz.wav
4	156	4	3	2	I	1	0	809	1	poli_8sides 10_whiteLine3.jpg	Medium_e26_stereo_44KHz.wav
4	157	2	2	1	C	1	1	805	1	poli_8sides 16_whiteLine3.jpg	MediumLong_e17_cut2_stereo_44KHz.wav
4	158	3	3	2	I	2	0	662	1	poli_8sides 5_whiteLine3.jpg	Medium_e26_stereo_44KHz.wav
4	159	1	1	1	C	2	0	625	0	poli_8sides 15_whiteLine3.jpg	Medium_e01_cut1_stereo_44KHz.wav
4	160	4	4	2	I	2	0	698	1	poli_8sides 10_whiteLine3.jpg	MediumLong_b10_cut2_L_stereo_44KHz.wav
4	161	1	2	0	C	2	1	735	1	poli_8sides 15_whiteLine3.jpg	MediumLong_e17_cut2_stereo_44KHz.wav
4	162	2	1	0	C	2	1	958	1	poli_8sides 16_whiteLine3.jpg	Medium_e01_cut1_stereo_44KHz.wav
4	163	4	3	2	I	2	0	1028	0	poli_8sides 10_whiteLine3.jpg	Medium_e26_stereo_44KHz.wav
4	164	3	3	2	I	2	0	652	0	poli_8sides 5_whiteLine3.jpg	Medium_e26_stereo_44KHz.wav
4	165	2	2	1	C	1	1	857	1	poli_8sides 16_whiteLine3.jpg	MediumLong_e17_cut2_stereo_44KHz.wav
4	166	3	4	2	I	2	0	782	1	poli_8sides 5_whiteLine3.jpg	MediumLong_b10_cut2_L_stereo_44KHz.wav
4	167	1	1	1	C	1	1	921	1	poli_8sides 15_whiteLine3.jpg	Medium_e01_cut1_stereo_44KHz.wav
4	168	4	4	2	I	2	0	907	1	poli_8sides 10_whiteLine3.jpg	MediumLong_b10_cut2_L_stereo_44KHz.wav
4	169	1	1	1	C	1	1	933	1	poli_8sides 15_whiteLine3.jpg	Medium_e01_cut1_stereo_44KHz.wav
4	170	4	3	2	I	2	0	682	1	poli_8sides 10_whiteLine3.jpg	Medium_e26_stereo_44KHz.wav
4	171	3	3	2	I	1	0	649	0	poli_8sides 5_whiteLine3.jpg	Medium_e26_stereo_44KHz.wav
4	172	2	2	1	C	1	1	1144	1	poli_8sides 16_whiteLine3.jpg	MediumLong_e17_cut2_stereo_44KHz.wav
4	173	4	4	2	I	1	0	649	1	poli_8sides 10_whiteLine3.jpg	MediumLong_b10_cut2_L_stereo_44KHz.wav
4	174	3	4	2	I	2	0	785	1	poli_8sides 5_whiteLine3.jpg	MediumLong_b10_cut2_L_stereo_44KHz.wav
4	175	2	1	0	C	2	1	835	1	poli_8sides 16_whiteLine3.jpg	Medium_e01_cut1_stereo_44KHz.wav
4	176	1	2	0	C	2	1	763	1	poli_8sides 15_whiteLine3.jpg	MediumLong_e17_cut2_stereo_44KHz.wav
4	177	3	3	2	I	2	0	876	0	poli_8sides 5_whiteLine3.jpg	Medium_e26_stereo_44KHz.wav
4	178	4	4	2	I	1	0	582	0	poli_8sides 10_whiteLine3.jpg	MediumLong_b10_cut2_L_stereo_44KHz.wav
4	179	2	2	1	C	1	1	902	1	poli_8sides 16_whiteLine3.jpg	MediumLong_e17_cut2_stereo_44KHz.wav
4	180	1	1	1	C	1	1	684	1	poli_8sides 15_whiteLine3.jpg	Medium_e01_cut1_stereo_44KHz.wav
4	181	4	3	2	I	2	0	949	0	poli_8sides 10_whiteLine3.jpg	Medium_e26_stereo_44KHz.wav
4	182	1	2	0	C	1	0	653	0	poli_8sides 15_whiteLine3.jpg	MediumLong_e17_cut2_stereo_44KHz.wav
4	183	3	4	2	I	2	0	699	1	poli_8sides 5_whiteLine3.jpg	MediumLong_b10_cut2_L_stereo_44KHz.wav
4	184	2	1	0	C	2	1	926	1	poli_8sides 16_whiteLine3.jpg	Medium_e01_cut1_stereo_44KHz.wav
4	185	4	3	2	I	2	0	774	1	poli_8sides 10_whiteLine3.jpg	Medium_e26_stereo_44KHz.wav
4	186	1	1	1	C	1	1	1117	1	poli_8sides 15_whiteLine3.jpg	Medium_e01_cut1_stereo_44KHz.wav
4	187	3	3	2	I	2	0	752	1	poli_8sides 5_whiteLine3.jpg	Medium_e26_stereo_44KHz.wav
4	188	2	1	0	C	2	1	682	1	poli_8sides 16_whiteLine3.jpg	Medium_e01_cut1_stereo_44KHz.wav
4	189	3	4	2	I	2	0	778	1	poli_8sides 5_whiteLine3.jpg	MediumLong_b10_cut2_L_stereo_44KHz.wav
4	190	4	4	2	I	1	0	733	1	poli_8sides 10_whiteLine3.jpg	MediumLong_b10_cut2_L_stereo_44KHz.wav
4	191	1	2	0	C	2	1	892	1	poli_8sides 15_whiteLine3.jpg	MediumLong_e17_cut2_stereo_44KHz.wav
4	192	2	2	1	C	1	1	763	1	poli_8sides 16_whiteLine3.jpg	MediumLong_e17_cut2_stereo_44KHz.wav
4	193	3	3	2	I	2	0	755	1	poli_8sides 5_whiteLine3.jpg	Medium_e26_stereo_44KHz.wav
4	194	1	2	0	C	2	1	734	1	poli_8sides 15_whiteLine3.jpg	MediumLong_e17_cut2_stereo_44KHz.wav
4	195	2	1	0	C	2	1	797	1	poli_8sides 16_whiteLine3.jpg	Medium_e01_cut1_stereo_44KHz.wav
4	196	4	4	2	I	2	0	760	1	poli_8sides 10_whiteLine3.jpg	MediumLong_b10_cut2_L_stereo_44KHz.wav
4	197	1	1	1	C	1	1	688	1	poli_8sides 15_whiteLine3.jpg	Medium_e01_cut1_stereo_44KHz.wav
4	198	2	2	1	C	1	1	787	1	poli_8sides 16_whiteLine3.jpg	MediumLong_e17_cut2_stereo_44KHz.wav
4	199	4	3	2	I	2	0	704	0	poli_8sides 10_whiteLine3.jpg	Medium_e26_stereo_44KHz.wav
4	200	3	4	2	I	2	0	741	1	poli_8sides 5_whiteLine3.jpg	MediumLong_b10_cut2_L_stereo_44KHz.wav
