block	trial	Vstim	Astim	match	C/I	resp	result	RT	fb	V-file	A-file
LR

0	1	2	4	0	C	1	1	1422	1	poli_8sides 23_whiteLine3.jpg	Practice1_b27_cut1_stereo_44KHz.wav
0	2	1	2	0	C	1	1	890	1	poli_8sides 21_whiteLine3.jpg	Practice4_b26_stereo_44KHz.wav
0	3	2	3	1	C	2	1	886	1	poli_8sides 23_whiteLine3.jpg	Practice3_b26_cut1_stereo_44KHz.wav
0	4	1	1	1	C	1	0	940	0	poli_8sides 21_whiteLine3.jpg	Practice2_b27_cut2_stereo_44KHz.wav
0	5	2	3	1	C	1	0	904	0	poli_8sides 23_whiteLine3.jpg	Practice3_b26_cut1_stereo_44KHz.wav
0	6	1	2	0	C	1	1	796	1	poli_8sides 21_whiteLine3.jpg	Practice4_b26_stereo_44KHz.wav
0	7	2	4	0	C	1	1	728	1	poli_8sides 23_whiteLine3.jpg	Practice1_b27_cut1_stereo_44KHz.wav
0	8	1	1	1	C	2	1	562	1	poli_8sides 21_whiteLine3.jpg	Practice2_b27_cut2_stereo_44KHz.wav
0	9	1	1	1	C	2	1	799	1	poli_8sides 21_whiteLine3.jpg	Practice2_b27_cut2_stereo_44KHz.wav
0	10	1	2	0	C	1	1	729	1	poli_8sides 21_whiteLine3.jpg	Practice4_b26_stereo_44KHz.wav
avg_resp = 852
1	1	2	2	1	C	2	1	763	1	poli_8sides 15_whiteLine3.jpg	Short_b23_cut1_stereo_44KHz.wav
1	2	4	3	2	I	1	0	540	1	poli_8sides 9_whiteLine3.jpg	Short_b22_cut1_stereo_44KHz.wav
1	3	1	2	0	C	1	1	522	1	poli_8sides 6_whiteLine3.jpg	Short_b23_cut1_stereo_44KHz.wav
1	4	3	4	2	I	2	0	639	1	poli_8sides 2_whiteLine3.jpg	Short_b20_cut1_stereo_44KHz.wav
1	5	4	4	2	I	2	0	509	0	poli_8sides 9_whiteLine3.jpg	Short_b20_cut1_stereo_44KHz.wav
1	6	3	3	2	I	1	0	407	0	poli_8sides 2_whiteLine3.jpg	Short_b22_cut1_stereo_44KHz.wav
1	7	2	1	0	C	2	0	609	0	poli_8sides 15_whiteLine3.jpg	Short_b09_cut1_stereo_44KHz.wav
1	8	1	1	1	C	1	0	941	0	poli_8sides 6_whiteLine3.jpg	Short_b09_cut1_stereo_44KHz.wav
1	9	4	3	2	I	2	0	1538	1	poli_8sides 9_whiteLine3.jpg	Short_b22_cut1_stereo_44KHz.wav
1	10	2	1	0	C	2	0	555	0	poli_8sides 15_whiteLine3.jpg	Short_b09_cut1_stereo_44KHz.wav
1	11	3	3	2	I	2	0	686	1	poli_8sides 2_whiteLine3.jpg	Short_b22_cut1_stereo_44KHz.wav
1	12	1	2	0	C	2	0	634	0	poli_8sides 6_whiteLine3.jpg	Short_b23_cut1_stereo_44KHz.wav
1	13	2	2	1	C	1	0	486	0	poli_8sides 15_whiteLine3.jpg	Short_b23_cut1_stereo_44KHz.wav
1	14	1	1	1	C	2	1	535	1	poli_8sides 6_whiteLine3.jpg	Short_b09_cut1_stereo_44KHz.wav
1	15	3	4	2	I	2	0	649	1	poli_8sides 2_whiteLine3.jpg	Short_b20_cut1_stereo_44KHz.wav
1	16	4	4	2	I	2	0	672	1	poli_8sides 9_whiteLine3.jpg	Short_b20_cut1_stereo_44KHz.wav
1	17	1	1	1	C	2	1	696	1	poli_8sides 6_whiteLine3.jpg	Short_b09_cut1_stereo_44KHz.wav
1	18	4	3	2	I	2	0	530	0	poli_8sides 9_whiteLine3.jpg	Short_b22_cut1_stereo_44KHz.wav
1	19	2	2	1	C	1	0	546	0	poli_8sides 15_whiteLine3.jpg	Short_b23_cut1_stereo_44KHz.wav
1	20	3	3	2	I	2	0	788	0	poli_8sides 2_whiteLine3.jpg	Short_b22_cut1_stereo_44KHz.wav
1	21	4	4	2	I	1	0	1139	0	poli_8sides 9_whiteLine3.jpg	Short_b20_cut1_stereo_44KHz.wav
1	22	2	1	0	C	2	0	983	0	poli_8sides 15_whiteLine3.jpg	Short_b09_cut1_stereo_44KHz.wav
1	23	3	4	2	I	1	0	1003	0	poli_8sides 2_whiteLine3.jpg	Short_b20_cut1_stereo_44KHz.wav
1	24	1	2	0	C	2	0	584	0	poli_8sides 6_whiteLine3.jpg	Short_b23_cut1_stereo_44KHz.wav
1	25	4	4	2	I	1	0	1173	1	poli_8sides 9_whiteLine3.jpg	Short_b20_cut1_stereo_44KHz.wav
1	26	3	3	2	I	1	0	794	1	poli_8sides 2_whiteLine3.jpg	Short_b22_cut1_stereo_44KHz.wav
1	27	1	2	0	C	2	0	1108	0	poli_8sides 6_whiteLine3.jpg	Short_b23_cut1_stereo_44KHz.wav
1	28	2	1	0	C	1	1	774	1	poli_8sides 15_whiteLine3.jpg	Short_b09_cut1_stereo_44KHz.wav
1	29	4	3	2	I	1	0	642	0	poli_8sides 9_whiteLine3.jpg	Short_b22_cut1_stereo_44KHz.wav
1	30	2	2	1	C	2	1	714	1	poli_8sides 15_whiteLine3.jpg	Short_b23_cut1_stereo_44KHz.wav
1	31	1	1	1	C	1	0	771	0	poli_8sides 6_whiteLine3.jpg	Short_b09_cut1_stereo_44KHz.wav
1	32	3	4	2	I	2	0	634	1	poli_8sides 2_whiteLine3.jpg	Short_b20_cut1_stereo_44KHz.wav
1	33	1	2	0	C	2	0	728	0	poli_8sides 6_whiteLine3.jpg	Short_b23_cut1_stereo_44KHz.wav
1	34	3	4	2	I	1	0	611	0	poli_8sides 2_whiteLine3.jpg	Short_b20_cut1_stereo_44KHz.wav
1	35	4	4	2	I	2	0	755	1	poli_8sides 9_whiteLine3.jpg	Short_b20_cut1_stereo_44KHz.wav
1	36	2	1	0	C	2	0	1463	0	poli_8sides 15_whiteLine3.jpg	Short_b09_cut1_stereo_44KHz.wav
1	37	1	1	1	C	2	1	1391	1	poli_8sides 6_whiteLine3.jpg	Short_b09_cut1_stereo_44KHz.wav
1	38	4	3	2	I	1	0	1062	1	poli_8sides 9_whiteLine3.jpg	Short_b22_cut1_stereo_44KHz.wav
1	39	3	3	2	I	1	0	1035	0	poli_8sides 2_whiteLine3.jpg	Short_b22_cut1_stereo_44KHz.wav
1	40	2	2	1	C	2	1	1084	1	poli_8sides 15_whiteLine3.jpg	Short_b23_cut1_stereo_44KHz.wav
1	41	4	4	2	I	1	0	659	0	poli_8sides 9_whiteLine3.jpg	Short_b20_cut1_stereo_44KHz.wav
1	42	1	2	0	C	1	1	1284	1	poli_8sides 6_whiteLine3.jpg	Short_b23_cut1_stereo_44KHz.wav
1	43	2	2	1	C	1	0	822	0	poli_8sides 15_whiteLine3.jpg	Short_b23_cut1_stereo_44KHz.wav
1	44	3	4	2	I	1	0	874	0	poli_8sides 2_whiteLine3.jpg	Short_b20_cut1_stereo_44KHz.wav
1	45	4	3	2	I	2	0	681	1	poli_8sides 9_whiteLine3.jpg	Short_b22_cut1_stereo_44KHz.wav
1	46	3	3	2	I	1	0	799	1	poli_8sides 2_whiteLine3.jpg	Short_b22_cut1_stereo_44KHz.wav
1	47	1	1	1	C	2	1	956	1	poli_8sides 6_whiteLine3.jpg	Short_b09_cut1_stereo_44KHz.wav
1	48	2	1	0	C	2	0	793	0	poli_8sides 15_whiteLine3.jpg	Short_b09_cut1_stereo_44KHz.wav
1	49	3	4	2	I	1	0	501	1	poli_8sides 2_whiteLine3.jpg	Short_b20_cut1_stereo_44KHz.wav
1	50	2	2	1	C	1	0	567	0	poli_8sides 15_whiteLine3.jpg	Short_b23_cut1_stereo_44KHz.wav
1	51	4	4	2	I	2	0	704	0	poli_8sides 9_whiteLine3.jpg	Short_b20_cut1_stereo_44KHz.wav
1	52	1	2	0	C	1	1	474	1	poli_8sides 6_whiteLine3.jpg	Short_b23_cut1_stereo_44KHz.wav
1	53	4	3	2	I	1	0	576	1	poli_8sides 9_whiteLine3.jpg	Short_b22_cut1_stereo_44KHz.wav
1	54	1	1	1	C	1	0	789	0	poli_8sides 6_whiteLine3.jpg	Short_b09_cut1_stereo_44KHz.wav
1	55	2	1	0	C	2	0	794	0	poli_8sides 15_whiteLine3.jpg	Short_b09_cut1_stereo_44KHz.wav
1	56	3	3	2	I	2	0	596	1	poli_8sides 2_whiteLine3.jpg	Short_b22_cut1_stereo_44KHz.wav
1	57	1	1	1	C	2	1	558	1	poli_8sides 6_whiteLine3.jpg	Short_b09_cut1_stereo_44KHz.wav
1	58	3	3	2	I	2	0	681	0	poli_8sides 2_whiteLine3.jpg	Short_b22_cut1_stereo_44KHz.wav
1	59	4	4	2	I	1	0	426	0	poli_8sides 9_whiteLine3.jpg	Short_b20_cut1_stereo_44KHz.wav
1	60	2	1	0	C	2	0	516	0	poli_8sides 15_whiteLine3.jpg	Short_b09_cut1_stereo_44KHz.wav
1	61	3	4	2	I	1	0	463	1	poli_8sides 2_whiteLine3.jpg	Short_b20_cut1_stereo_44KHz.wav
1	62	2	2	1	C	1	0	566	0	poli_8sides 15_whiteLine3.jpg	Short_b23_cut1_stereo_44KHz.wav
1	63	1	2	0	C	1	1	1085	1	poli_8sides 6_whiteLine3.jpg	Short_b23_cut1_stereo_44KHz.wav
1	64	4	3	2	I	1	0	848	1	poli_8sides 9_whiteLine3.jpg	Short_b22_cut1_stereo_44KHz.wav
1	65	3	4	2	I	1	0	447	0	poli_8sides 2_whiteLine3.jpg	Short_b20_cut1_stereo_44KHz.wav
1	66	2	2	1	C	1	0	707	0	poli_8sides 15_whiteLine3.jpg	Short_b23_cut1_stereo_44KHz.wav
1	67	1	1	1	C	2	1	763	1	poli_8sides 6_whiteLine3.jpg	Short_b09_cut1_stereo_44KHz.wav
1	68	4	4	2	I	2	0	882	0	poli_8sides 9_whiteLine3.jpg	Short_b20_cut1_stereo_44KHz.wav
1	69	1	2	0	C	1	1	496	1	poli_8sides 6_whiteLine3.jpg	Short_b23_cut1_stereo_44KHz.wav
1	70	2	1	0	C	1	1	491	1	poli_8sides 15_whiteLine3.jpg	Short_b09_cut1_stereo_44KHz.wav
1	71	4	3	2	I	1	0	484	0	poli_8sides 9_whiteLine3.jpg	Short_b22_cut1_stereo_44KHz.wav
1	72	3	3	2	I	1	0	551	1	poli_8sides 2_whiteLine3.jpg	Short_b22_cut1_stereo_44KHz.wav
1	73	1	2	0	C	1	1	456	1	poli_8sides 6_whiteLine3.jpg	Short_b23_cut1_stereo_44KHz.wav
1	74	2	2	1	C	1	0	513	0	poli_8sides 15_whiteLine3.jpg	Short_b23_cut1_stereo_44KHz.wav
1	75	3	4	2	I	1	0	721	0	poli_8sides 2_whiteLine3.jpg	Short_b20_cut1_stereo_44KHz.wav
1	76	4	3	2	I	1	0	818	1	poli_8sides 9_whiteLine3.jpg	Short_b22_cut1_stereo_44KHz.wav
1	77	3	3	2	I	1	0	594	0	poli_8sides 2_whiteLine3.jpg	Short_b22_cut1_stereo_44KHz.wav
1	78	4	4	2	I	2	0	1506	0	poli_8sides 9_whiteLine3.jpg	Short_b20_cut1_stereo_44KHz.wav
1	79	2	1	0	C	1	1	814	1	poli_8sides 15_whiteLine3.jpg	Short_b09_cut1_stereo_44KHz.wav
1	80	1	1	1	C	1	0	1687	0	poli_8sides 6_whiteLine3.jpg	Short_b09_cut1_stereo_44KHz.wav
1	81	3	4	2	I	1	0	1033	0	poli_8sides 2_whiteLine3.jpg	Short_b20_cut1_stereo_44KHz.wav
1	82	1	1	1	C	1	0	876	0	poli_8sides 6_whiteLine3.jpg	Short_b09_cut1_stereo_44KHz.wav
1	83	2	2	1	C	1	0	779	0	poli_8sides 15_whiteLine3.jpg	Short_b23_cut1_stereo_44KHz.wav
1	84	4	4	2	I	1	0	1783	0	poli_8sides 9_whiteLine3.jpg	Short_b20_cut1_stereo_44KHz.wav
1	85	3	3	2	I	1	0	801	1	poli_8sides 2_whiteLine3.jpg	Short_b22_cut1_stereo_44KHz.wav
1	86	2	1	0	C	1	1	766	1	poli_8sides 15_whiteLine3.jpg	Short_b09_cut1_stereo_44KHz.wav
1	87	1	2	0	C	1	1	804	1	poli_8sides 6_whiteLine3.jpg	Short_b23_cut1_stereo_44KHz.wav
1	88	4	3	2	I	1	0	899	0	poli_8sides 9_whiteLine3.jpg	Short_b22_cut1_stereo_44KHz.wav
1	89	3	4	2	I	2	0	1639	1	poli_8sides 2_whiteLine3.jpg	Short_b20_cut1_stereo_44KHz.wav
1	90	2	1	0	C	2	0	1367	0	poli_8sides 15_whiteLine3.jpg	Short_b09_cut1_stereo_44KHz.wav
1	91	4	3	2	I	1	0	661	1	poli_8sides 9_whiteLine3.jpg	Short_b22_cut1_stereo_44KHz.wav
1	92	1	1	1	C	1	0	636	0	poli_8sides 6_whiteLine3.jpg	Short_b09_cut1_stereo_44KHz.wav
1	93	3	3	2	I	1	0	871	0	poli_8sides 2_whiteLine3.jpg	Short_b22_cut1_stereo_44KHz.wav
1	94	4	4	2	I	2	0	921	1	poli_8sides 9_whiteLine3.jpg	Short_b20_cut1_stereo_44KHz.wav
1	95	2	2	1	C	1	0	902	0	poli_8sides 15_whiteLine3.jpg	Short_b23_cut1_stereo_44KHz.wav
1	96	1	2	0	C	2	0	1243	0	poli_8sides 6_whiteLine3.jpg	Short_b23_cut1_stereo_44KHz.wav
1	97	3	3	2	I	1	0	572	1	poli_8sides 2_whiteLine3.jpg	Short_b22_cut1_stereo_44KHz.wav
1	98	2	2	1	C	1	0	648	0	poli_8sides 15_whiteLine3.jpg	Short_b23_cut1_stereo_44KHz.wav
1	99	1	1	1	C	2	1	876	1	poli_8sides 6_whiteLine3.jpg	Short_b09_cut1_stereo_44KHz.wav
1	100	4	3	2	I	1	0	1564	1	poli_8sides 9_whiteLine3.jpg	Short_b22_cut1_stereo_44KHz.wav
1	101	2	1	0	C	1	1	780	1	poli_8sides 15_whiteLine3.jpg	Short_b09_cut1_stereo_44KHz.wav
1	102	4	4	2	I	1	0	699	0	poli_8sides 9_whiteLine3.jpg	Short_b20_cut1_stereo_44KHz.wav
1	103	1	2	0	C	1	1	935	1	poli_8sides 6_whiteLine3.jpg	Short_b23_cut1_stereo_44KHz.wav
1	104	3	4	2	I	1	0	663	1	poli_8sides 2_whiteLine3.jpg	Short_b20_cut1_stereo_44KHz.wav
1	105	2	1	0	C	1	1	585	1	poli_8sides 15_whiteLine3.jpg	Short_b09_cut1_stereo_44KHz.wav
1	106	4	3	2	I	1	0	830	0	poli_8sides 9_whiteLine3.jpg	Short_b22_cut1_stereo_44KHz.wav
1	107	3	4	2	I	1	0	612	1	poli_8sides 2_whiteLine3.jpg	Short_b20_cut1_stereo_44KHz.wav
1	108	1	2	0	C	1	1	1041	1	poli_8sides 6_whiteLine3.jpg	Short_b23_cut1_stereo_44KHz.wav
1	109	2	2	1	C	1	0	652	0	poli_8sides 15_whiteLine3.jpg	Short_b23_cut1_stereo_44KHz.wav
1	110	3	3	2	I	1	0	804	0	poli_8sides 2_whiteLine3.jpg	Short_b22_cut1_stereo_44KHz.wav
1	111	4	4	2	I	1	0	982	0	poli_8sides 9_whiteLine3.jpg	Short_b20_cut1_stereo_44KHz.wav
1	112	1	1	1	C	2	1	1143	1	poli_8sides 6_whiteLine3.jpg	Short_b09_cut1_stereo_44KHz.wav
1	113	4	4	2	I	2	0	804	0	poli_8sides 9_whiteLine3.jpg	Short_b20_cut1_stereo_44KHz.wav
1	114	2	1	0	C	1	1	831	1	poli_8sides 15_whiteLine3.jpg	Short_b09_cut1_stereo_44KHz.wav
1	115	1	1	1	C	1	0	555	0	poli_8sides 6_whiteLine3.jpg	Short_b09_cut1_stereo_44KHz.wav
1	116	3	3	2	I	2	0	1469	1	poli_8sides 2_whiteLine3.jpg	Short_b22_cut1_stereo_44KHz.wav
1	117	2	2	1	C	1	0	643	0	poli_8sides 15_whiteLine3.jpg	Short_b23_cut1_stereo_44KHz.wav
1	118	3	4	2	I	1	0	1009	1	poli_8sides 2_whiteLine3.jpg	Short_b20_cut1_stereo_44KHz.wav
1	119	1	2	0	C	1	1	615	1	poli_8sides 6_whiteLine3.jpg	Short_b23_cut1_stereo_44KHz.wav
1	120	4	3	2	I	1	0	950	0	poli_8sides 9_whiteLine3.jpg	Short_b22_cut1_stereo_44KHz.wav
1	121	2	2	1	C	1	0	1388	0	poli_8sides 15_whiteLine3.jpg	Short_b23_cut1_stereo_44KHz.wav
1	122	4	4	2	I	2	0	874	0	poli_8sides 9_whiteLine3.jpg	Short_b20_cut1_stereo_44KHz.wav
1	123	3	4	2	I	1	0	691	1	poli_8sides 2_whiteLine3.jpg	Short_b20_cut1_stereo_44KHz.wav
1	124	1	1	1	C	1	0	618	0	poli_8sides 6_whiteLine3.jpg	Short_b09_cut1_stereo_44KHz.wav
1	125	3	3	2	I	2	0	986	0	poli_8sides 2_whiteLine3.jpg	Short_b22_cut1_stereo_44KHz.wav
1	126	1	2	0	C	1	1	545	1	poli_8sides 6_whiteLine3.jpg	Short_b23_cut1_stereo_44KHz.wav
1	127	4	3	2	I	1	0	535	0	poli_8sides 9_whiteLine3.jpg	Short_b22_cut1_stereo_44KHz.wav
1	128	2	1	0	C	1	1	1231	1	poli_8sides 15_whiteLine3.jpg	Short_b09_cut1_stereo_44KHz.wav
1	129	1	2	0	C	1	1	749	1	poli_8sides 6_whiteLine3.jpg	Short_b23_cut1_stereo_44KHz.wav
1	130	3	4	2	I	1	0	802	0	poli_8sides 2_whiteLine3.jpg	Short_b20_cut1_stereo_44KHz.wav
1	131	2	2	1	C	2	1	596	1	poli_8sides 15_whiteLine3.jpg	Short_b23_cut1_stereo_44KHz.wav
1	132	4	3	2	I	1	0	1260	0	poli_8sides 9_whiteLine3.jpg	Short_b22_cut1_stereo_44KHz.wav
1	133	3	3	2	I	2	0	618	0	poli_8sides 2_whiteLine3.jpg	Short_b22_cut1_stereo_44KHz.wav
1	134	4	4	2	I	1	0	674	1	poli_8sides 9_whiteLine3.jpg	Short_b20_cut1_stereo_44KHz.wav
1	135	2	1	0	C	1	1	668	1	poli_8sides 15_whiteLine3.jpg	Short_b09_cut1_stereo_44KHz.wav
1	136	1	1	1	C	1	0	544	0	poli_8sides 6_whiteLine3.jpg	Short_b09_cut1_stereo_44KHz.wav
1	137	2	2	1	C	2	1	519	1	poli_8sides 15_whiteLine3.jpg	Short_b23_cut1_stereo_44KHz.wav
1	138	3	3	2	I	1	0	950	0	poli_8sides 2_whiteLine3.jpg	Short_b22_cut1_stereo_44KHz.wav
1	139	4	4	2	I	1	0	619	1	poli_8sides 9_whiteLine3.jpg	Short_b20_cut1_stereo_44KHz.wav
1	140	1	2	0	C	1	1	1060	1	poli_8sides 6_whiteLine3.jpg	Short_b23_cut1_stereo_44KHz.wav
1	141	3	4	2	I	1	0	1064	0	poli_8sides 2_whiteLine3.jpg	Short_b20_cut1_stereo_44KHz.wav
1	142	1	1	1	C	2	1	1062	1	poli_8sides 6_whiteLine3.jpg	Short_b09_cut1_stereo_44KHz.wav
1	143	4	3	2	I	1	0	640	1	poli_8sides 9_whiteLine3.jpg	Short_b22_cut1_stereo_44KHz.wav
1	144	2	1	0	C	1	1	912	1	poli_8sides 15_whiteLine3.jpg	Short_b09_cut1_stereo_44KHz.wav
1	145	3	3	2	I	1	0	601	1	poli_8sides 2_whiteLine3.jpg	Short_b22_cut1_stereo_44KHz.wav
1	146	2	1	0	C	1	1	554	1	poli_8sides 15_whiteLine3.jpg	Short_b09_cut1_stereo_44KHz.wav
1	147	4	4	2	I	1	0	1295	0	poli_8sides 9_whiteLine3.jpg	Short_b20_cut1_stereo_44KHz.wav
1	148	1	1	1	C	2	1	704	1	poli_8sides 6_whiteLine3.jpg	Short_b09_cut1_stereo_44KHz.wav
1	149	2	2	1	C	1	0	1309	0	poli_8sides 15_whiteLine3.jpg	Short_b23_cut1_stereo_44KHz.wav
1	150	1	2	0	C	2	0	947	0	poli_8sides 6_whiteLine3.jpg	Short_b23_cut1_stereo_44KHz.wav
1	151	3	4	2	I	1	0	1371	0	poli_8sides 2_whiteLine3.jpg	Short_b20_cut1_stereo_44KHz.wav
1	152	4	3	2	I	0	0	0	0	poli_8sides 9_whiteLine3.jpg	Short_b22_cut1_stereo_44KHz.wav
1	153	2	2	1	C	1	0	642	0	poli_8sides 15_whiteLine3.jpg	Short_b23_cut1_stereo_44KHz.wav
1	154	1	2	0	C	2	0	533	0	poli_8sides 6_whiteLine3.jpg	Short_b23_cut1_stereo_44KHz.wav
1	155	3	3	2	I	1	0	431	0	poli_8sides 2_whiteLine3.jpg	Short_b22_cut1_stereo_44KHz.wav
1	156	4	3	2	I	2	0	631	0	poli_8sides 9_whiteLine3.jpg	Short_b22_cut1_stereo_44KHz.wav
1	157	1	1	1	C	1	0	628	0	poli_8sides 6_whiteLine3.jpg	Short_b09_cut1_stereo_44KHz.wav
1	158	4	4	2	I	1	0	1015	1	poli_8sides 9_whiteLine3.jpg	Short_b20_cut1_stereo_44KHz.wav
1	159	2	1	0	C	1	1	785	1	poli_8sides 15_whiteLine3.jpg	Short_b09_cut1_stereo_44KHz.wav
1	160	3	4	2	I	1	0	1548	0	poli_8sides 2_whiteLine3.jpg	Short_b20_cut1_stereo_44KHz.wav
1	161	2	2	1	C	1	0	998	0	poli_8sides 15_whiteLine3.jpg	Short_b23_cut1_stereo_44KHz.wav
1	162	1	2	0	C	2	0	1100	0	poli_8sides 6_whiteLine3.jpg	Short_b23_cut1_stereo_44KHz.wav
1	163	4	3	2	I	1	0	1018	0	poli_8sides 9_whiteLine3.jpg	Short_b22_cut1_stereo_44KHz.wav
1	164	3	3	2	I	2	0	761	1	poli_8sides 2_whiteLine3.jpg	Short_b22_cut1_stereo_44KHz.wav
1	165	2	1	0	C	2	0	691	0	poli_8sides 15_whiteLine3.jpg	Short_b09_cut1_stereo_44KHz.wav
1	166	3	4	2	I	1	0	414	1	poli_8sides 2_whiteLine3.jpg	Short_b20_cut1_stereo_44KHz.wav
1	167	4	4	2	I	1	0	761	0	poli_8sides 9_whiteLine3.jpg	Short_b20_cut1_stereo_44KHz.wav
1	168	1	1	1	C	2	1	620	1	poli_8sides 6_whiteLine3.jpg	Short_b09_cut1_stereo_44KHz.wav
1	169	3	3	2	I	2	0	458	1	poli_8sides 2_whiteLine3.jpg	Short_b22_cut1_stereo_44KHz.wav
1	170	4	4	2	I	0	0	0	0	poli_8sides 9_whiteLine3.jpg	Short_b20_cut1_stereo_44KHz.wav
1	171	2	1	0	C	2	0	529	0	poli_8sides 15_whiteLine3.jpg	Short_b09_cut1_stereo_44KHz.wav
1	172	1	2	0	C	1	1	314	1	poli_8sides 6_whiteLine3.jpg	Short_b23_cut1_stereo_44KHz.wav
1	173	2	2	1	C	1	0	699	0	poli_8sides 15_whiteLine3.jpg	Short_b23_cut1_stereo_44KHz.wav
1	174	4	3	2	I	2	0	1289	0	poli_8sides 9_whiteLine3.jpg	Short_b22_cut1_stereo_44KHz.wav
1	175	1	1	1	C	1	0	770	0	poli_8sides 6_whiteLine3.jpg	Short_b09_cut1_stereo_44KHz.wav
1	176	3	4	2	I	1	0	885	1	poli_8sides 2_whiteLine3.jpg	Short_b20_cut1_stereo_44KHz.wav
1	177	1	2	0	C	2	0	599	0	poli_8sides 6_whiteLine3.jpg	Short_b23_cut1_stereo_44KHz.wav
1	178	3	4	2	I	1	0	420	0	poli_8sides 2_whiteLine3.jpg	Short_b20_cut1_stereo_44KHz.wav
1	179	4	4	2	I	2	0	585	1	poli_8sides 9_whiteLine3.jpg	Short_b20_cut1_stereo_44KHz.wav
1	180	2	2	1	C	2	1	1165	1	poli_8sides 15_whiteLine3.jpg	Short_b23_cut1_stereo_44KHz.wav
1	181	3	3	2	I	2	0	694	0	poli_8sides 2_whiteLine3.jpg	Short_b22_cut1_stereo_44KHz.wav
1	182	1	1	1	C	1	0	1055	0	poli_8sides 6_whiteLine3.jpg	Short_b09_cut1_stereo_44KHz.wav
1	183	2	1	0	C	2	0	611	0	poli_8sides 15_whiteLine3.jpg	Short_b09_cut1_stereo_44KHz.wav
1	184	4	3	2	I	1	0	1202	1	poli_8sides 9_whiteLine3.jpg	Short_b22_cut1_stereo_44KHz.wav
1	185	2	2	1	C	1	0	679	0	poli_8sides 15_whiteLine3.jpg	Short_b23_cut1_stereo_44KHz.wav
1	186	4	3	2	I	2	0	1448	1	poli_8sides 9_whiteLine3.jpg	Short_b22_cut1_stereo_44KHz.wav
1	187	1	1	1	C	1	0	649	0	poli_8sides 6_whiteLine3.jpg	Short_b09_cut1_stereo_44KHz.wav
1	188	3	4	2	I	1	0	1280	0	poli_8sides 2_whiteLine3.jpg	Short_b20_cut1_stereo_44KHz.wav
1	189	1	2	0	C	2	0	1198	0	poli_8sides 6_whiteLine3.jpg	Short_b23_cut1_stereo_44KHz.wav
1	190	4	4	2	I	1	0	435	1	poli_8sides 9_whiteLine3.jpg	Short_b20_cut1_stereo_44KHz.wav
1	191	3	3	2	I	1	0	677	1	poli_8sides 2_whiteLine3.jpg	Short_b22_cut1_stereo_44KHz.wav
1	192	2	1	0	C	1	1	712	1	poli_8sides 15_whiteLine3.jpg	Short_b09_cut1_stereo_44KHz.wav
1	193	4	4	2	I	1	0	745	1	poli_8sides 9_whiteLine3.jpg	Short_b20_cut1_stereo_44KHz.wav
1	194	1	2	0	C	1	1	754	1	poli_8sides 6_whiteLine3.jpg	Short_b23_cut1_stereo_44KHz.wav
1	195	3	4	2	I	1	0	871	0	poli_8sides 2_whiteLine3.jpg	Short_b20_cut1_stereo_44KHz.wav
1	196	2	1	0	C	2	0	675	0	poli_8sides 15_whiteLine3.jpg	Short_b09_cut1_stereo_44KHz.wav
1	197	1	1	1	C	1	0	1126	0	poli_8sides 6_whiteLine3.jpg	Short_b09_cut1_stereo_44KHz.wav
1	198	2	2	1	C	2	1	529	1	poli_8sides 15_whiteLine3.jpg	Short_b23_cut1_stereo_44KHz.wav
1	199	4	3	2	I	1	0	745	1	poli_8sides 9_whiteLine3.jpg	Short_b22_cut1_stereo_44KHz.wav
1	200	3	3	2	I	1	0	1363	1	poli_8sides 2_whiteLine3.jpg	Short_b22_cut1_stereo_44KHz.wav
2	1	3	4	2	I	1	0	1022	1	poli_8sides 16_whiteLine3.jpg	Medium_e21_stereo_44KHz.wav
2	2	4	4	2	I	1	0	515	1	poli_8sides 13_whiteLine3.jpg	Medium_e21_stereo_44KHz.wav
2	3	1	1	1	C	1	0	771	0	poli_8sides 5_whiteLine3.jpg	MediumLong_e19_stereo_44KHz.wav
2	4	2	1	0	C	2	0	933	0	poli_8sides 4_whiteLine3.jpg	MediumLong_e19_stereo_44KHz.wav
2	5	1	2	0	C	2	0	1225	0	poli_8sides 5_whiteLine3.jpg	MediumLong_e04_stereo_44KHz.wav
2	6	2	2	1	C	2	1	645	1	poli_8sides 4_whiteLine3.jpg	MediumLong_e04_stereo_44KHz.wav
2	7	3	3	2	I	2	0	1216	0	poli_8sides 16_whiteLine3.jpg	Medium_e01_cut1_stereo_44KHz.wav
2	8	4	3	2	I	2	0	733	1	poli_8sides 13_whiteLine3.jpg	Medium_e01_cut1_stereo_44KHz.wav
2	9	1	2	0	C	2	0	699	0	poli_8sides 5_whiteLine3.jpg	MediumLong_e04_stereo_44KHz.wav
2	10	4	3	2	I	1	0	771	1	poli_8sides 13_whiteLine3.jpg	Medium_e01_cut1_stereo_44KHz.wav
2	11	2	2	1	C	1	0	615	0	poli_8sides 4_whiteLine3.jpg	MediumLong_e04_stereo_44KHz.wav
2	12	3	4	2	I	1	0	620	1	poli_8sides 16_whiteLine3.jpg	Medium_e21_stereo_44KHz.wav
2	13	4	4	2	I	2	0	591	0	poli_8sides 13_whiteLine3.jpg	Medium_e21_stereo_44KHz.wav
2	14	2	1	0	C	1	1	534	1	poli_8sides 4_whiteLine3.jpg	MediumLong_e19_stereo_44KHz.wav
2	15	3	3	2	I	1	0	1101	0	poli_8sides 16_whiteLine3.jpg	Medium_e01_cut1_stereo_44KHz.wav
2	16	1	1	1	C	2	1	722	1	poli_8sides 5_whiteLine3.jpg	MediumLong_e19_stereo_44KHz.wav
2	17	3	3	2	I	2	0	1230	0	poli_8sides 16_whiteLine3.jpg	Medium_e01_cut1_stereo_44KHz.wav
2	18	1	1	1	C	1	0	614	0	poli_8sides 5_whiteLine3.jpg	MediumLong_e19_stereo_44KHz.wav
2	19	2	1	0	C	2	0	576	0	poli_8sides 4_whiteLine3.jpg	MediumLong_e19_stereo_44KHz.wav
2	20	4	4	2	I	1	0	430	0	poli_8sides 13_whiteLine3.jpg	Medium_e21_stereo_44KHz.wav
2	21	3	4	2	I	2	0	620	1	poli_8sides 16_whiteLine3.jpg	Medium_e21_stereo_44KHz.wav
2	22	2	2	1	C	1	0	1352	0	poli_8sides 4_whiteLine3.jpg	MediumLong_e04_stereo_44KHz.wav
2	23	1	2	0	C	1	1	816	1	poli_8sides 5_whiteLine3.jpg	MediumLong_e04_stereo_44KHz.wav
2	24	4	3	2	I	1	0	1205	1	poli_8sides 13_whiteLine3.jpg	Medium_e01_cut1_stereo_44KHz.wav
2	25	3	4	2	I	2	0	595	0	poli_8sides 16_whiteLine3.jpg	Medium_e21_stereo_44KHz.wav
2	26	2	2	1	C	1	0	676	0	poli_8sides 4_whiteLine3.jpg	MediumLong_e04_stereo_44KHz.wav
2	27	4	4	2	I	2	0	555	0	poli_8sides 13_whiteLine3.jpg	Medium_e21_stereo_44KHz.wav
2	28	1	2	0	C	1	1	587	1	poli_8sides 5_whiteLine3.jpg	MediumLong_e04_stereo_44KHz.wav
2	29	3	3	2	I	1	0	724	0	poli_8sides 16_whiteLine3.jpg	Medium_e01_cut1_stereo_44KHz.wav
2	30	4	3	2	I	2	0	661	0	poli_8sides 13_whiteLine3.jpg	Medium_e01_cut1_stereo_44KHz.wav
2	31	2	1	0	C	1	1	567	1	poli_8sides 4_whiteLine3.jpg	MediumLong_e19_stereo_44KHz.wav
2	32	1	1	1	C	2	1	1635	1	poli_8sides 5_whiteLine3.jpg	MediumLong_e19_stereo_44KHz.wav
2	33	4	4	2	I	1	0	1019	1	poli_8sides 13_whiteLine3.jpg	Medium_e21_stereo_44KHz.wav
2	34	1	1	1	C	2	1	1201	1	poli_8sides 5_whiteLine3.jpg	MediumLong_e19_stereo_44KHz.wav
2	35	2	1	0	C	2	0	1008	0	poli_8sides 4_whiteLine3.jpg	MediumLong_e19_stereo_44KHz.wav
2	36	3	3	2	I	1	0	1039	0	poli_8sides 16_whiteLine3.jpg	Medium_e01_cut1_stereo_44KHz.wav
2	37	2	2	1	C	2	1	1653	1	poli_8sides 4_whiteLine3.jpg	MediumLong_e04_stereo_44KHz.wav
2	38	3	4	2	I	2	0	918	1	poli_8sides 16_whiteLine3.jpg	Medium_e21_stereo_44KHz.wav
2	39	4	3	2	I	2	0	862	1	poli_8sides 13_whiteLine3.jpg	Medium_e01_cut1_stereo_44KHz.wav
2	40	1	2	0	C	1	1	914	1	poli_8sides 5_whiteLine3.jpg	MediumLong_e04_stereo_44KHz.wav
2	41	4	4	2	I	2	0	781	0	poli_8sides 13_whiteLine3.jpg	Medium_e21_stereo_44KHz.wav
2	42	3	4	2	I	2	0	892	0	poli_8sides 16_whiteLine3.jpg	Medium_e21_stereo_44KHz.wav
2	43	2	2	1	C	2	1	886	1	poli_8sides 4_whiteLine3.jpg	MediumLong_e04_stereo_44KHz.wav
2	44	1	1	1	C	2	1	1245	1	poli_8sides 5_whiteLine3.jpg	MediumLong_e19_stereo_44KHz.wav
2	45	2	1	0	C	2	0	824	0	poli_8sides 4_whiteLine3.jpg	MediumLong_e19_stereo_44KHz.wav
2	46	4	3	2	I	2	0	995	1	poli_8sides 13_whiteLine3.jpg	Medium_e01_cut1_stereo_44KHz.wav
2	47	1	2	0	C	1	1	1349	1	poli_8sides 5_whiteLine3.jpg	MediumLong_e04_stereo_44KHz.wav
2	48	3	3	2	I	2	0	1383	1	poli_8sides 16_whiteLine3.jpg	Medium_e01_cut1_stereo_44KHz.wav
2	49	4	3	2	I	2	0	1386	0	poli_8sides 13_whiteLine3.jpg	Medium_e01_cut1_stereo_44KHz.wav
2	50	2	1	0	C	2	0	1662	0	poli_8sides 4_whiteLine3.jpg	MediumLong_e19_stereo_44KHz.wav
2	51	1	2	0	C	1	1	931	1	poli_8sides 5_whiteLine3.jpg	MediumLong_e04_stereo_44KHz.wav
2	52	3	3	2	I	1	0	1015	1	poli_8sides 16_whiteLine3.jpg	Medium_e01_cut1_stereo_44KHz.wav
2	53	1	1	1	C	1	0	855	0	poli_8sides 5_whiteLine3.jpg	MediumLong_e19_stereo_44KHz.wav
2	54	2	2	1	C	2	1	1594	1	poli_8sides 4_whiteLine3.jpg	MediumLong_e04_stereo_44KHz.wav
2	55	4	4	2	I	2	0	685	1	poli_8sides 13_whiteLine3.jpg	Medium_e21_stereo_44KHz.wav
2	56	3	4	2	I	2	0	601	0	poli_8sides 16_whiteLine3.jpg	Medium_e21_stereo_44KHz.wav
2	57	1	1	1	C	2	1	1170	1	poli_8sides 5_whiteLine3.jpg	MediumLong_e19_stereo_44KHz.wav
2	58	2	1	0	C	2	0	996	0	poli_8sides 4_whiteLine3.jpg	MediumLong_e19_stereo_44KHz.wav
2	59	4	3	2	I	1	0	865	0	poli_8sides 13_whiteLine3.jpg	Medium_e01_cut1_stereo_44KHz.wav
2	60	3	4	2	I	2	0	738	1	poli_8sides 16_whiteLine3.jpg	Medium_e21_stereo_44KHz.wav
2	61	2	2	1	C	2	1	968	1	poli_8sides 4_whiteLine3.jpg	MediumLong_e04_stereo_44KHz.wav
2	62	4	4	2	I	2	0	666	1	poli_8sides 13_whiteLine3.jpg	Medium_e21_stereo_44KHz.wav
2	63	3	3	2	I	2	0	926	0	poli_8sides 16_whiteLine3.jpg	Medium_e01_cut1_stereo_44KHz.wav
2	64	1	2	0	C	1	1	1230	1	poli_8sides 5_whiteLine3.jpg	MediumLong_e04_stereo_44KHz.wav
2	65	3	4	2	I	2	0	798	1	poli_8sides 16_whiteLine3.jpg	Medium_e21_stereo_44KHz.wav
2	66	1	2	0	C	1	1	666	1	poli_8sides 5_whiteLine3.jpg	MediumLong_e04_stereo_44KHz.wav
2	67	4	3	2	I	2	0	754	1	poli_8sides 13_whiteLine3.jpg	Medium_e01_cut1_stereo_44KHz.wav
2	68	2	2	1	C	2	1	1391	1	poli_8sides 4_whiteLine3.jpg	MediumLong_e04_stereo_44KHz.wav
2	69	1	1	1	C	2	1	1342	1	poli_8sides 5_whiteLine3.jpg	MediumLong_e19_stereo_44KHz.wav
2	70	3	3	2	I	2	0	736	1	poli_8sides 16_whiteLine3.jpg	Medium_e01_cut1_stereo_44KHz.wav
2	71	4	4	2	I	2	0	1334	0	poli_8sides 13_whiteLine3.jpg	Medium_e21_stereo_44KHz.wav
2	72	2	1	0	C	2	0	1252	0	poli_8sides 4_whiteLine3.jpg	MediumLong_e19_stereo_44KHz.wav
2	73	4	3	2	I	2	0	1678	0	poli_8sides 13_whiteLine3.jpg	Medium_e01_cut1_stereo_44KHz.wav
2	74	3	3	2	I	2	0	1731	0	poli_8sides 16_whiteLine3.jpg	Medium_e01_cut1_stereo_44KHz.wav
2	75	1	2	0	C	1	1	1017	1	poli_8sides 5_whiteLine3.jpg	MediumLong_e04_stereo_44KHz.wav
2	76	2	2	1	C	2	1	1219	1	poli_8sides 4_whiteLine3.jpg	MediumLong_e04_stereo_44KHz.wav
2	77	3	4	2	I	1	0	1244	1	poli_8sides 16_whiteLine3.jpg	Medium_e21_stereo_44KHz.wav
2	78	1	1	1	C	2	1	1199	1	poli_8sides 5_whiteLine3.jpg	MediumLong_e19_stereo_44KHz.wav
2	79	2	1	0	C	2	0	621	0	poli_8sides 4_whiteLine3.jpg	MediumLong_e19_stereo_44KHz.wav
2	80	4	4	2	I	2	0	1200	1	poli_8sides 13_whiteLine3.jpg	Medium_e21_stereo_44KHz.wav
2	81	1	1	1	C	2	1	1109	1	poli_8sides 5_whiteLine3.jpg	MediumLong_e19_stereo_44KHz.wav
2	82	2	2	1	C	2	1	963	1	poli_8sides 4_whiteLine3.jpg	MediumLong_e04_stereo_44KHz.wav
2	83	3	3	2	I	2	0	1058	0	poli_8sides 16_whiteLine3.jpg	Medium_e01_cut1_stereo_44KHz.wav
2	84	4	4	2	I	2	0	940	1	poli_8sides 13_whiteLine3.jpg	Medium_e21_stereo_44KHz.wav
2	85	1	2	0	C	1	1	1838	1	poli_8sides 5_whiteLine3.jpg	MediumLong_e04_stereo_44KHz.wav
2	86	3	4	2	I	2	0	968	1	poli_8sides 16_whiteLine3.jpg	Medium_e21_stereo_44KHz.wav
2	87	2	1	0	C	2	0	1536	0	poli_8sides 4_whiteLine3.jpg	MediumLong_e19_stereo_44KHz.wav
2	88	4	3	2	I	2	0	1248	0	poli_8sides 13_whiteLine3.jpg	Medium_e01_cut1_stereo_44KHz.wav
2	89	3	3	2	I	2	0	1441	0	poli_8sides 16_whiteLine3.jpg	Medium_e01_cut1_stereo_44KHz.wav
2	90	4	3	2	I	2	0	860	0	poli_8sides 13_whiteLine3.jpg	Medium_e01_cut1_stereo_44KHz.wav
2	91	1	1	1	C	2	1	1252	1	poli_8sides 5_whiteLine3.jpg	MediumLong_e19_stereo_44KHz.wav
2	92	2	1	0	C	2	0	674	0	poli_8sides 4_whiteLine3.jpg	MediumLong_e19_stereo_44KHz.wav
2	93	4	4	2	I	2	0	1815	0	poli_8sides 13_whiteLine3.jpg	Medium_e21_stereo_44KHz.wav
2	94	3	4	2	I	1	0	1369	1	poli_8sides 16_whiteLine3.jpg	Medium_e21_stereo_44KHz.wav
2	95	2	2	1	C	2	1	1188	1	poli_8sides 4_whiteLine3.jpg	MediumLong_e04_stereo_44KHz.wav
2	96	1	2	0	C	1	1	1190	1	poli_8sides 5_whiteLine3.jpg	MediumLong_e04_stereo_44KHz.wav
2	97	4	4	2	I	2	0	836	0	poli_8sides 13_whiteLine3.jpg	Medium_e21_stereo_44KHz.wav
2	98	1	1	1	C	2	1	922	1	poli_8sides 5_whiteLine3.jpg	MediumLong_e19_stereo_44KHz.wav
2	99	3	4	2	I	2	0	1408	0	poli_8sides 16_whiteLine3.jpg	Medium_e21_stereo_44KHz.wav
2	100	2	1	0	C	2	0	1386	0	poli_8sides 4_whiteLine3.jpg	MediumLong_e19_stereo_44KHz.wav
2	101	3	3	2	I	1	0	1463	0	poli_8sides 16_whiteLine3.jpg	Medium_e01_cut1_stereo_44KHz.wav
2	102	2	2	1	C	2	1	1308	1	poli_8sides 4_whiteLine3.jpg	MediumLong_e04_stereo_44KHz.wav
2	103	1	2	0	C	1	1	681	1	poli_8sides 5_whiteLine3.jpg	MediumLong_e04_stereo_44KHz.wav
2	104	4	3	2	I	2	0	754	0	poli_8sides 13_whiteLine3.jpg	Medium_e01_cut1_stereo_44KHz.wav
2	105	2	2	1	C	2	1	791	1	poli_8sides 4_whiteLine3.jpg	MediumLong_e04_stereo_44KHz.wav
2	106	1	2	0	C	1	1	1318	1	poli_8sides 5_whiteLine3.jpg	MediumLong_e04_stereo_44KHz.wav
2	107	3	4	2	I	1	0	1689	0	poli_8sides 16_whiteLine3.jpg	Medium_e21_stereo_44KHz.wav
2	108	4	4	2	I	2	0	660	0	poli_8sides 13_whiteLine3.jpg	Medium_e21_stereo_44KHz.wav
2	109	2	1	0	C	2	0	741	0	poli_8sides 4_whiteLine3.jpg	MediumLong_e19_stereo_44KHz.wav
2	110	4	3	2	I	2	0	1707	1	poli_8sides 13_whiteLine3.jpg	Medium_e01_cut1_stereo_44KHz.wav
2	111	3	3	2	I	2	0	840	1	poli_8sides 16_whiteLine3.jpg	Medium_e01_cut1_stereo_44KHz.wav
2	112	1	1	1	C	0	0	0	0	poli_8sides 5_whiteLine3.jpg	MediumLong_e19_stereo_44KHz.wav
2	113	3	4	2	I	2	0	1284	1	poli_8sides 16_whiteLine3.jpg	Medium_e21_stereo_44KHz.wav
2	114	1	2	0	C	1	1	1204	1	poli_8sides 5_whiteLine3.jpg	MediumLong_e04_stereo_44KHz.wav
2	115	2	1	0	C	2	0	1695	0	poli_8sides 4_whiteLine3.jpg	MediumLong_e19_stereo_44KHz.wav
2	116	4	4	2	I	2	0	1796	1	poli_8sides 13_whiteLine3.jpg	Medium_e21_stereo_44KHz.wav
2	117	3	3	2	I	2	0	1620	1	poli_8sides 16_whiteLine3.jpg	Medium_e01_cut1_stereo_44KHz.wav
2	118	4	3	2	I	0	0	0	0	poli_8sides 13_whiteLine3.jpg	Medium_e01_cut1_stereo_44KHz.wav
2	119	2	2	1	C	2	1	913	1	poli_8sides 4_whiteLine3.jpg	MediumLong_e04_stereo_44KHz.wav
2	120	1	1	1	C	2	1	1696	1	poli_8sides 5_whiteLine3.jpg	MediumLong_e19_stereo_44KHz.wav
2	121	4	3	2	I	2	0	1030	0	poli_8sides 13_whiteLine3.jpg	Medium_e01_cut1_stereo_44KHz.wav
2	122	1	1	1	C	2	1	912	1	poli_8sides 5_whiteLine3.jpg	MediumLong_e19_stereo_44KHz.wav
2	123	3	4	2	I	2	0	837	1	poli_8sides 16_whiteLine3.jpg	Medium_e21_stereo_44KHz.wav
2	124	2	1	0	C	2	0	1622	0	poli_8sides 4_whiteLine3.jpg	MediumLong_e19_stereo_44KHz.wav
2	125	4	4	2	I	1	0	1882	1	poli_8sides 13_whiteLine3.jpg	Medium_e21_stereo_44KHz.wav
2	126	2	2	1	C	2	1	1436	1	poli_8sides 4_whiteLine3.jpg	MediumLong_e04_stereo_44KHz.wav
2	127	1	2	0	C	1	1	1346	1	poli_8sides 5_whiteLine3.jpg	MediumLong_e04_stereo_44KHz.wav
2	128	3	3	2	I	2	0	974	0	poli_8sides 16_whiteLine3.jpg	Medium_e01_cut1_stereo_44KHz.wav
2	129	2	2	1	C	2	1	1306	1	poli_8sides 4_whiteLine3.jpg	MediumLong_e04_stereo_44KHz.wav
2	130	3	3	2	I	2	0	1777	0	poli_8sides 16_whiteLine3.jpg	Medium_e01_cut1_stereo_44KHz.wav
2	131	4	4	2	I	2	0	1344	1	poli_8sides 13_whiteLine3.jpg	Medium_e21_stereo_44KHz.wav
2	132	1	2	0	C	1	1	1243	1	poli_8sides 5_whiteLine3.jpg	MediumLong_e04_stereo_44KHz.wav
2	133	4	3	2	I	2	0	1336	0	poli_8sides 13_whiteLine3.jpg	Medium_e01_cut1_stereo_44KHz.wav
2	134	1	1	1	C	2	1	1107	1	poli_8sides 5_whiteLine3.jpg	MediumLong_e19_stereo_44KHz.wav
2	135	3	4	2	I	2	0	1335	0	poli_8sides 16_whiteLine3.jpg	Medium_e21_stereo_44KHz.wav
2	136	2	1	0	C	2	0	689	0	poli_8sides 4_whiteLine3.jpg	MediumLong_e19_stereo_44KHz.wav
2	137	3	4	2	I	2	0	848	0	poli_8sides 16_whiteLine3.jpg	Medium_e21_stereo_44KHz.wav
2	138	1	1	1	C	1	0	1003	0	poli_8sides 5_whiteLine3.jpg	MediumLong_e19_stereo_44KHz.wav
2	139	4	4	2	I	2	0	994	1	poli_8sides 13_whiteLine3.jpg	Medium_e21_stereo_44KHz.wav
2	140	2	1	0	C	2	0	750	0	poli_8sides 4_whiteLine3.jpg	MediumLong_e19_stereo_44KHz.wav
2	141	3	3	2	I	0	0	0	0	poli_8sides 16_whiteLine3.jpg	Medium_e01_cut1_stereo_44KHz.wav
2	142	1	2	0	C	1	1	1129	1	poli_8sides 5_whiteLine3.jpg	MediumLong_e04_stereo_44KHz.wav
2	143	4	3	2	I	2	0	630	1	poli_8sides 13_whiteLine3.jpg	Medium_e01_cut1_stereo_44KHz.wav
2	144	2	2	1	C	2	1	793	1	poli_8sides 4_whiteLine3.jpg	MediumLong_e04_stereo_44KHz.wav
2	145	1	1	1	C	2	1	1334	1	poli_8sides 5_whiteLine3.jpg	MediumLong_e19_stereo_44KHz.wav
2	146	2	1	0	C	2	0	706	0	poli_8sides 4_whiteLine3.jpg	MediumLong_e19_stereo_44KHz.wav
2	147	3	4	2	I	2	0	848	0	poli_8sides 16_whiteLine3.jpg	Medium_e21_stereo_44KHz.wav
2	148	4	4	2	I	2	0	756	1	poli_8sides 13_whiteLine3.jpg	Medium_e21_stereo_44KHz.wav
2	149	3	3	2	I	1	0	1919	1	poli_8sides 16_whiteLine3.jpg	Medium_e01_cut1_stereo_44KHz.wav
2	150	1	2	0	C	1	1	1161	1	poli_8sides 5_whiteLine3.jpg	MediumLong_e04_stereo_44KHz.wav
2	151	4	3	2	I	2	0	962	0	poli_8sides 13_whiteLine3.jpg	Medium_e01_cut1_stereo_44KHz.wav
2	152	2	2	1	C	2	1	800	1	poli_8sides 4_whiteLine3.jpg	MediumLong_e04_stereo_44KHz.wav
2	153	1	1	1	C	2	1	728	1	poli_8sides 5_whiteLine3.jpg	MediumLong_e19_stereo_44KHz.wav
2	154	4	3	2	I	2	0	756	1	poli_8sides 13_whiteLine3.jpg	Medium_e01_cut1_stereo_44KHz.wav
2	155	3	4	2	I	1	0	1154	1	poli_8sides 16_whiteLine3.jpg	Medium_e21_stereo_44KHz.wav
2	156	2	2	1	C	2	1	1703	1	poli_8sides 4_whiteLine3.jpg	MediumLong_e04_stereo_44KHz.wav
2	157	3	3	2	I	2	0	1767	1	poli_8sides 16_whiteLine3.jpg	Medium_e01_cut1_stereo_44KHz.wav
2	158	1	2	0	C	1	1	1235	1	poli_8sides 5_whiteLine3.jpg	MediumLong_e04_stereo_44KHz.wav
2	159	4	4	2	I	2	0	1029	1	poli_8sides 13_whiteLine3.jpg	Medium_e21_stereo_44KHz.wav
2	160	2	1	0	C	2	0	662	0	poli_8sides 4_whiteLine3.jpg	MediumLong_e19_stereo_44KHz.wav
2	161	3	4	2	I	1	0	1782	1	poli_8sides 16_whiteLine3.jpg	Medium_e21_stereo_44KHz.wav
2	162	2	1	0	C	2	0	619	0	poli_8sides 4_whiteLine3.jpg	MediumLong_e19_stereo_44KHz.wav
2	163	1	2	0	C	1	1	1533	1	poli_8sides 5_whiteLine3.jpg	MediumLong_e04_stereo_44KHz.wav
2	164	4	3	2	I	2	0	886	0	poli_8sides 13_whiteLine3.jpg	Medium_e01_cut1_stereo_44KHz.wav
2	165	3	3	2	I	2	0	1189	0	poli_8sides 16_whiteLine3.jpg	Medium_e01_cut1_stereo_44KHz.wav
2	166	2	2	1	C	2	1	1030	1	poli_8sides 4_whiteLine3.jpg	MediumLong_e04_stereo_44KHz.wav
2	167	4	4	2	I	2	0	1743	0	poli_8sides 13_whiteLine3.jpg	Medium_e21_stereo_44KHz.wav
2	168	1	1	1	C	1	0	1280	0	poli_8sides 5_whiteLine3.jpg	MediumLong_e19_stereo_44KHz.wav
2	169	3	3	2	I	2	0	690	0	poli_8sides 16_whiteLine3.jpg	Medium_e01_cut1_stereo_44KHz.wav
2	170	1	1	1	C	2	1	1435	1	poli_8sides 5_whiteLine3.jpg	MediumLong_e19_stereo_44KHz.wav
2	171	2	2	1	C	2	1	984	1	poli_8sides 4_whiteLine3.jpg	MediumLong_e04_stereo_44KHz.wav
2	172	4	4	2	I	0	0	0	0	poli_8sides 13_whiteLine3.jpg	Medium_e21_stereo_44KHz.wav
2	173	2	1	0	C	2	0	821	0	poli_8sides 4_whiteLine3.jpg	MediumLong_e19_stereo_44KHz.wav
2	174	1	2	0	C	1	1	1199	1	poli_8sides 5_whiteLine3.jpg	MediumLong_e04_stereo_44KHz.wav
2	175	3	4	2	I	1	0	1224	1	poli_8sides 16_whiteLine3.jpg	Medium_e21_stereo_44KHz.wav
2	176	4	3	2	I	2	0	898	1	poli_8sides 13_whiteLine3.jpg	Medium_e01_cut1_stereo_44KHz.wav
2	177	1	2	0	C	1	1	1100	1	poli_8sides 5_whiteLine3.jpg	MediumLong_e04_stereo_44KHz.wav
2	178	3	4	2	I	1	0	1066	0	poli_8sides 16_whiteLine3.jpg	Medium_e21_stereo_44KHz.wav
2	179	2	2	1	C	2	1	788	1	poli_8sides 4_whiteLine3.jpg	MediumLong_e04_stereo_44KHz.wav
2	180	4	3	2	I	2	0	808	0	poli_8sides 13_whiteLine3.jpg	Medium_e01_cut1_stereo_44KHz.wav
2	181	2	1	0	C	2	0	712	0	poli_8sides 4_whiteLine3.jpg	MediumLong_e19_stereo_44KHz.wav
2	182	1	1	1	C	2	1	816	1	poli_8sides 5_whiteLine3.jpg	MediumLong_e19_stereo_44KHz.wav
2	183	4	4	2	I	2	0	846	0	poli_8sides 13_whiteLine3.jpg	Medium_e21_stereo_44KHz.wav
2	184	3	3	2	I	2	0	686	1	poli_8sides 16_whiteLine3.jpg	Medium_e01_cut1_stereo_44KHz.wav
2	185	4	4	2	I	2	0	1038	1	poli_8sides 13_whiteLine3.jpg	Medium_e21_stereo_44KHz.wav
2	186	2	2	1	C	2	1	1039	1	poli_8sides 4_whiteLine3.jpg	MediumLong_e04_stereo_44KHz.wav
2	187	1	2	0	C	1	1	1815	1	poli_8sides 5_whiteLine3.jpg	MediumLong_e04_stereo_44KHz.wav
2	188	3	3	2	I	2	0	918	1	poli_8sides 16_whiteLine3.jpg	Medium_e01_cut1_stereo_44KHz.wav
2	189	1	1	1	C	2	1	984	1	poli_8sides 5_whiteLine3.jpg	MediumLong_e19_stereo_44KHz.wav
2	190	2	1	0	C	2	0	728	0	poli_8sides 4_whiteLine3.jpg	MediumLong_e19_stereo_44KHz.wav
2	191	4	3	2	I	2	0	554	0	poli_8sides 13_whiteLine3.jpg	Medium_e01_cut1_stereo_44KHz.wav
2	192	3	4	2	I	2	0	1082	0	poli_8sides 16_whiteLine3.jpg	Medium_e21_stereo_44KHz.wav
2	193	4	4	2	I	1	0	1485	1	poli_8sides 13_whiteLine3.jpg	Medium_e21_stereo_44KHz.wav
2	194	3	3	2	I	2	0	1099	1	poli_8sides 16_whiteLine3.jpg	Medium_e01_cut1_stereo_44KHz.wav
2	195	2	2	1	C	2	1	929	1	poli_8sides 4_whiteLine3.jpg	MediumLong_e04_stereo_44KHz.wav
2	196	1	1	1	C	1	0	688	0	poli_8sides 5_whiteLine3.jpg	MediumLong_e19_stereo_44KHz.wav
2	197	4	3	2	I	2	0	1603	1	poli_8sides 13_whiteLine3.jpg	Medium_e01_cut1_stereo_44KHz.wav
2	198	1	2	0	C	1	1	800	1	poli_8sides 5_whiteLine3.jpg	MediumLong_e04_stereo_44KHz.wav
2	199	3	4	2	I	2	0	743	0	poli_8sides 16_whiteLine3.jpg	Medium_e21_stereo_44KHz.wav
2	200	2	1	0	C	2	0	773	0	poli_8sides 4_whiteLine3.jpg	MediumLong_e19_stereo_44KHz.wav
3	1	4	4	2	I	2	0	1398	1	poli_8sides 11_whiteLine3.jpg	Medium_e26_stereo_44KHz.wav
3	2	1	1	1	C	2	1	761	1	poli_8sides 10_whiteLine3.jpg	MediumLong_e17_cut2_stereo_44KHz.wav
3	3	2	1	0	C	2	0	685	0	poli_8sides 18_whiteLine3.jpg	MediumLong_e17_cut2_stereo_44KHz.wav
3	4	3	3	2	I	1	0	554	1	poli_8sides 1_whiteLine3.jpg	MediumLong_b10_cut2_L_stereo_44KHz.wav
3	5	2	2	1	C	2	1	1106	1	poli_8sides 18_whiteLine3.jpg	Medium_e13_stereo_44KHz.wav
3	6	4	3	2	I	2	0	745	0	poli_8sides 11_whiteLine3.jpg	MediumLong_b10_cut2_L_stereo_44KHz.wav
3	7	3	4	2	I	1	0	630	1	poli_8sides 1_whiteLine3.jpg	Medium_e26_stereo_44KHz.wav
3	8	1	2	0	C	2	0	558	0	poli_8sides 10_whiteLine3.jpg	Medium_e13_stereo_44KHz.wav
3	9	4	3	2	I	2	0	978	0	poli_8sides 11_whiteLine3.jpg	MediumLong_b10_cut2_L_stereo_44KHz.wav
3	10	3	3	2	I	2	0	988	1	poli_8sides 1_whiteLine3.jpg	MediumLong_b10_cut2_L_stereo_44KHz.wav
3	11	1	1	1	C	1	0	1579	0	poli_8sides 10_whiteLine3.jpg	MediumLong_e17_cut2_stereo_44KHz.wav
3	12	2	2	1	C	2	1	618	1	poli_8sides 18_whiteLine3.jpg	Medium_e13_stereo_44KHz.wav
3	13	3	4	2	I	2	0	685	1	poli_8sides 1_whiteLine3.jpg	Medium_e26_stereo_44KHz.wav
3	14	4	4	2	I	2	0	611	1	poli_8sides 11_whiteLine3.jpg	Medium_e26_stereo_44KHz.wav
3	15	2	1	0	C	1	1	1225	1	poli_8sides 18_whiteLine3.jpg	MediumLong_e17_cut2_stereo_44KHz.wav
3	16	1	2	0	C	2	0	1345	0	poli_8sides 10_whiteLine3.jpg	Medium_e13_stereo_44KHz.wav
3	17	4	3	2	I	2	0	1134	1	poli_8sides 11_whiteLine3.jpg	MediumLong_b10_cut2_L_stereo_44KHz.wav
3	18	1	2	0	C	2	0	829	0	poli_8sides 10_whiteLine3.jpg	Medium_e13_stereo_44KHz.wav
3	19	3	4	2	I	2	0	763	0	poli_8sides 1_whiteLine3.jpg	Medium_e26_stereo_44KHz.wav
3	20	2	1	0	C	1	1	446	1	poli_8sides 18_whiteLine3.jpg	MediumLong_e17_cut2_stereo_44KHz.wav
3	21	1	1	1	C	2	1	668	1	poli_8sides 10_whiteLine3.jpg	MediumLong_e17_cut2_stereo_44KHz.wav
3	22	2	2	1	C	2	1	1562	1	poli_8sides 18_whiteLine3.jpg	Medium_e13_stereo_44KHz.wav
3	23	4	4	2	I	2	0	532	1	poli_8sides 11_whiteLine3.jpg	Medium_e26_stereo_44KHz.wav
3	24	3	3	2	I	2	0	468	1	poli_8sides 1_whiteLine3.jpg	MediumLong_b10_cut2_L_stereo_44KHz.wav
3	25	4	3	2	I	2	0	871	0	poli_8sides 11_whiteLine3.jpg	MediumLong_b10_cut2_L_stereo_44KHz.wav
3	26	3	3	2	I	2	0	733	1	poli_8sides 1_whiteLine3.jpg	MediumLong_b10_cut2_L_stereo_44KHz.wav
3	27	1	2	0	C	1	1	1533	1	poli_8sides 10_whiteLine3.jpg	Medium_e13_stereo_44KHz.wav
3	28	2	1	0	C	2	0	405	0	poli_8sides 18_whiteLine3.jpg	MediumLong_e17_cut2_stereo_44KHz.wav
3	29	4	4	2	I	1	0	596	1	poli_8sides 11_whiteLine3.jpg	Medium_e26_stereo_44KHz.wav
3	30	3	4	2	I	1	0	1282	0	poli_8sides 1_whiteLine3.jpg	Medium_e26_stereo_44KHz.wav
3	31	2	2	1	C	2	1	524	1	poli_8sides 18_whiteLine3.jpg	Medium_e13_stereo_44KHz.wav
3	32	1	1	1	C	1	0	1910	0	poli_8sides 10_whiteLine3.jpg	MediumLong_e17_cut2_stereo_44KHz.wav
3	33	2	2	1	C	2	1	948	1	poli_8sides 18_whiteLine3.jpg	Medium_e13_stereo_44KHz.wav
3	34	3	3	2	I	2	0	932	0	poli_8sides 1_whiteLine3.jpg	MediumLong_b10_cut2_L_stereo_44KHz.wav
3	35	1	2	0	C	2	0	711	0	poli_8sides 10_whiteLine3.jpg	Medium_e13_stereo_44KHz.wav
3	36	4	3	2	I	1	0	796	0	poli_8sides 11_whiteLine3.jpg	MediumLong_b10_cut2_L_stereo_44KHz.wav
3	37	2	1	0	C	2	0	596	0	poli_8sides 18_whiteLine3.jpg	MediumLong_e17_cut2_stereo_44KHz.wav
3	38	3	4	2	I	1	0	551	1	poli_8sides 1_whiteLine3.jpg	Medium_e26_stereo_44KHz.wav
3	39	4	4	2	I	2	0	778	1	poli_8sides 11_whiteLine3.jpg	Medium_e26_stereo_44KHz.wav
3	40	1	1	1	C	2	1	963	1	poli_8sides 10_whiteLine3.jpg	MediumLong_e17_cut2_stereo_44KHz.wav
3	41	4	3	2	I	1	0	713	1	poli_8sides 11_whiteLine3.jpg	MediumLong_b10_cut2_L_stereo_44KHz.wav
3	42	2	2	1	C	2	1	606	1	poli_8sides 18_whiteLine3.jpg	Medium_e13_stereo_44KHz.wav
3	43	1	2	0	C	2	0	692	0	poli_8sides 10_whiteLine3.jpg	Medium_e13_stereo_44KHz.wav
3	44	3	3	2	I	2	0	980	1	poli_8sides 1_whiteLine3.jpg	MediumLong_b10_cut2_L_stereo_44KHz.wav
3	45	2	1	0	C	2	0	615	0	poli_8sides 18_whiteLine3.jpg	MediumLong_e17_cut2_stereo_44KHz.wav
3	46	3	4	2	I	1	0	391	1	poli_8sides 1_whiteLine3.jpg	Medium_e26_stereo_44KHz.wav
3	47	1	1	1	C	1	0	425	0	poli_8sides 10_whiteLine3.jpg	MediumLong_e17_cut2_stereo_44KHz.wav
3	48	4	4	2	I	2	0	613	0	poli_8sides 11_whiteLine3.jpg	Medium_e26_stereo_44KHz.wav
3	49	3	4	2	I	2	0	651	0	poli_8sides 1_whiteLine3.jpg	Medium_e26_stereo_44KHz.wav
3	50	2	1	0	C	1	1	545	1	poli_8sides 18_whiteLine3.jpg	MediumLong_e17_cut2_stereo_44KHz.wav
3	51	1	2	0	C	1	1	547	1	poli_8sides 10_whiteLine3.jpg	Medium_e13_stereo_44KHz.wav
3	52	4	3	2	I	1	0	572	0	poli_8sides 11_whiteLine3.jpg	MediumLong_b10_cut2_L_stereo_44KHz.wav
3	53	1	1	1	C	2	1	1803	1	poli_8sides 10_whiteLine3.jpg	MediumLong_e17_cut2_stereo_44KHz.wav
3	54	3	3	2	I	2	0	793	0	poli_8sides 1_whiteLine3.jpg	MediumLong_b10_cut2_L_stereo_44KHz.wav
3	55	2	2	1	C	1	0	617	0	poli_8sides 18_whiteLine3.jpg	Medium_e13_stereo_44KHz.wav
3	56	4	4	2	I	2	0	553	1	poli_8sides 11_whiteLine3.jpg	Medium_e26_stereo_44KHz.wav
3	57	2	1	0	C	2	0	871	0	poli_8sides 18_whiteLine3.jpg	MediumLong_e17_cut2_stereo_44KHz.wav
3	58	3	3	2	I	1	0	439	0	poli_8sides 1_whiteLine3.jpg	MediumLong_b10_cut2_L_stereo_44KHz.wav
3	59	4	3	2	I	2	0	1212	1	poli_8sides 11_whiteLine3.jpg	MediumLong_b10_cut2_L_stereo_44KHz.wav
3	60	1	1	1	C	2	1	899	1	poli_8sides 10_whiteLine3.jpg	MediumLong_e17_cut2_stereo_44KHz.wav
3	61	3	4	2	I	2	0	1002	0	poli_8sides 1_whiteLine3.jpg	Medium_e26_stereo_44KHz.wav
3	62	4	4	2	I	1	0	1057	0	poli_8sides 11_whiteLine3.jpg	Medium_e26_stereo_44KHz.wav
3	63	2	2	1	C	2	1	944	1	poli_8sides 18_whiteLine3.jpg	Medium_e13_stereo_44KHz.wav
3	64	1	2	0	C	2	0	594	0	poli_8sides 10_whiteLine3.jpg	Medium_e13_stereo_44KHz.wav
3	65	3	4	2	I	1	0	1510	1	poli_8sides 1_whiteLine3.jpg	Medium_e26_stereo_44KHz.wav
3	66	2	2	1	C	2	1	1079	1	poli_8sides 18_whiteLine3.jpg	Medium_e13_stereo_44KHz.wav
3	67	4	3	2	I	2	0	719	0	poli_8sides 11_whiteLine3.jpg	MediumLong_b10_cut2_L_stereo_44KHz.wav
3	68	1	2	0	C	1	1	634	1	poli_8sides 10_whiteLine3.jpg	Medium_e13_stereo_44KHz.wav
3	69	2	1	0	C	2	0	824	0	poli_8sides 18_whiteLine3.jpg	MediumLong_e17_cut2_stereo_44KHz.wav
3	70	4	4	2	I	1	0	595	1	poli_8sides 11_whiteLine3.jpg	Medium_e26_stereo_44KHz.wav
3	71	3	3	2	I	1	0	666	0	poli_8sides 1_whiteLine3.jpg	MediumLong_b10_cut2_L_stereo_44KHz.wav
3	72	1	1	1	C	2	1	1095	1	poli_8sides 10_whiteLine3.jpg	MediumLong_e17_cut2_stereo_44KHz.wav
3	73	4	3	2	I	2	0	1043	0	poli_8sides 11_whiteLine3.jpg	MediumLong_b10_cut2_L_stereo_44KHz.wav
3	74	2	2	1	C	1	0	775	0	poli_8sides 18_whiteLine3.jpg	Medium_e13_stereo_44KHz.wav
3	75	1	1	1	C	2	1	343	1	poli_8sides 10_whiteLine3.jpg	MediumLong_e17_cut2_stereo_44KHz.wav
3	76	3	4	2	I	1	0	1286	1	poli_8sides 1_whiteLine3.jpg	Medium_e26_stereo_44KHz.wav
3	77	4	4	2	I	2	0	1260	0	poli_8sides 11_whiteLine3.jpg	Medium_e26_stereo_44KHz.wav
3	78	2	1	0	C	1	1	734	1	poli_8sides 18_whiteLine3.jpg	MediumLong_e17_cut2_stereo_44KHz.wav
3	79	3	3	2	I	1	0	548	1	poli_8sides 1_whiteLine3.jpg	MediumLong_b10_cut2_L_stereo_44KHz.wav
3	80	1	2	0	C	2	0	666	0	poli_8sides 10_whiteLine3.jpg	Medium_e13_stereo_44KHz.wav
3	81	3	3	2	I	1	0	797	0	poli_8sides 1_whiteLine3.jpg	MediumLong_b10_cut2_L_stereo_44KHz.wav
3	82	4	3	2	I	2	0	396	1	poli_8sides 11_whiteLine3.jpg	MediumLong_b10_cut2_L_stereo_44KHz.wav
3	83	1	2	0	C	2	0	617	0	poli_8sides 10_whiteLine3.jpg	Medium_e13_stereo_44KHz.wav
3	84	2	1	0	C	1	1	369	1	poli_8sides 18_whiteLine3.jpg	MediumLong_e17_cut2_stereo_44KHz.wav
3	85	4	4	2	I	1	0	607	0	poli_8sides 11_whiteLine3.jpg	Medium_e26_stereo_44KHz.wav
3	86	3	4	2	I	2	0	541	0	poli_8sides 1_whiteLine3.jpg	Medium_e26_stereo_44KHz.wav
3	87	1	1	1	C	1	0	451	0	poli_8sides 10_whiteLine3.jpg	MediumLong_e17_cut2_stereo_44KHz.wav
3	88	2	2	1	C	0	0	0	0	poli_8sides 18_whiteLine3.jpg	Medium_e13_stereo_44KHz.wav
3	89	3	4	2	I	2	0	981	0	poli_8sides 1_whiteLine3.jpg	Medium_e26_stereo_44KHz.wav
3	90	2	2	1	C	1	0	256	0	poli_8sides 18_whiteLine3.jpg	Medium_e13_stereo_44KHz.wav
3	91	1	1	1	C	2	1	691	1	poli_8sides 10_whiteLine3.jpg	MediumLong_e17_cut2_stereo_44KHz.wav
3	92	4	4	2	I	2	0	713	0	poli_8sides 11_whiteLine3.jpg	Medium_e26_stereo_44KHz.wav
3	93	2	1	0	C	1	1	588	1	poli_8sides 18_whiteLine3.jpg	MediumLong_e17_cut2_stereo_44KHz.wav
3	94	1	2	0	C	2	0	602	0	poli_8sides 10_whiteLine3.jpg	Medium_e13_stereo_44KHz.wav
3	95	3	3	2	I	1	0	740	0	poli_8sides 1_whiteLine3.jpg	MediumLong_b10_cut2_L_stereo_44KHz.wav
3	96	4	3	2	I	2	0	503	1	poli_8sides 11_whiteLine3.jpg	MediumLong_b10_cut2_L_stereo_44KHz.wav
3	97	3	3	2	I	2	0	878	1	poli_8sides 1_whiteLine3.jpg	MediumLong_b10_cut2_L_stereo_44KHz.wav
3	98	4	4	2	I	2	0	1290	1	poli_8sides 11_whiteLine3.jpg	Medium_e26_stereo_44KHz.wav
3	99	2	2	1	C	2	1	1268	1	poli_8sides 18_whiteLine3.jpg	Medium_e13_stereo_44KHz.wav
3	100	1	2	0	C	2	0	1841	0	poli_8sides 10_whiteLine3.jpg	Medium_e13_stereo_44KHz.wav
3	101	2	1	0	C	2	0	1587	0	poli_8sides 18_whiteLine3.jpg	MediumLong_e17_cut2_stereo_44KHz.wav
3	102	4	3	2	I	1	0	1300	1	poli_8sides 11_whiteLine3.jpg	MediumLong_b10_cut2_L_stereo_44KHz.wav
3	103	1	1	1	C	2	1	697	1	poli_8sides 10_whiteLine3.jpg	MediumLong_e17_cut2_stereo_44KHz.wav
3	104	3	4	2	I	2	0	777	1	poli_8sides 1_whiteLine3.jpg	Medium_e26_stereo_44KHz.wav
3	105	2	2	1	C	2	1	976	1	poli_8sides 18_whiteLine3.jpg	Medium_e13_stereo_44KHz.wav
3	106	4	4	2	I	2	0	687	1	poli_8sides 11_whiteLine3.jpg	Medium_e26_stereo_44KHz.wav
3	107	3	3	2	I	2	0	650	0	poli_8sides 1_whiteLine3.jpg	MediumLong_b10_cut2_L_stereo_44KHz.wav
3	108	1	2	0	C	1	1	542	1	poli_8sides 10_whiteLine3.jpg	Medium_e13_stereo_44KHz.wav
3	109	4	3	2	I	1	0	1642	1	poli_8sides 11_whiteLine3.jpg	MediumLong_b10_cut2_L_stereo_44KHz.wav
3	110	1	1	1	C	1	0	913	0	poli_8sides 10_whiteLine3.jpg	MediumLong_e17_cut2_stereo_44KHz.wav
3	111	2	1	0	C	0	0	0	0	poli_8sides 18_whiteLine3.jpg	MediumLong_e17_cut2_stereo_44KHz.wav
3	112	3	4	2	I	2	0	293	0	poli_8sides 1_whiteLine3.jpg	Medium_e26_stereo_44KHz.wav
3	113	2	2	1	C	2	1	949	1	poli_8sides 18_whiteLine3.jpg	Medium_e13_stereo_44KHz.wav
3	114	3	3	2	I	1	0	1208	0	poli_8sides 1_whiteLine3.jpg	MediumLong_b10_cut2_L_stereo_44KHz.wav
3	115	1	1	1	C	2	1	976	1	poli_8sides 10_whiteLine3.jpg	MediumLong_e17_cut2_stereo_44KHz.wav
3	116	4	3	2	I	2	0	834	0	poli_8sides 11_whiteLine3.jpg	MediumLong_b10_cut2_L_stereo_44KHz.wav
3	117	3	4	2	I	1	0	605	0	poli_8sides 1_whiteLine3.jpg	Medium_e26_stereo_44KHz.wav
3	118	4	4	2	I	0	0	0	0	poli_8sides 11_whiteLine3.jpg	Medium_e26_stereo_44KHz.wav
3	119	2	1	0	C	2	0	881	0	poli_8sides 18_whiteLine3.jpg	MediumLong_e17_cut2_stereo_44KHz.wav
3	120	1	2	0	C	2	0	1504	0	poli_8sides 10_whiteLine3.jpg	Medium_e13_stereo_44KHz.wav
3	121	2	1	0	C	2	0	759	0	poli_8sides 18_whiteLine3.jpg	MediumLong_e17_cut2_stereo_44KHz.wav
3	122	4	3	2	I	1	0	479	1	poli_8sides 11_whiteLine3.jpg	MediumLong_b10_cut2_L_stereo_44KHz.wav
3	123	3	3	2	I	2	0	1148	1	poli_8sides 1_whiteLine3.jpg	MediumLong_b10_cut2_L_stereo_44KHz.wav
3	124	1	2	0	C	2	0	727	0	poli_8sides 10_whiteLine3.jpg	Medium_e13_stereo_44KHz.wav
3	125	3	4	2	I	1	0	869	0	poli_8sides 1_whiteLine3.jpg	Medium_e26_stereo_44KHz.wav
3	126	2	2	1	C	2	1	683	1	poli_8sides 18_whiteLine3.jpg	Medium_e13_stereo_44KHz.wav
3	127	1	1	1	C	2	1	590	1	poli_8sides 10_whiteLine3.jpg	MediumLong_e17_cut2_stereo_44KHz.wav
3	128	4	4	2	I	2	0	750	0	poli_8sides 11_whiteLine3.jpg	Medium_e26_stereo_44KHz.wav
3	129	1	1	1	C	2	1	845	1	poli_8sides 10_whiteLine3.jpg	MediumLong_e17_cut2_stereo_44KHz.wav
3	130	3	4	2	I	2	0	898	1	poli_8sides 1_whiteLine3.jpg	Medium_e26_stereo_44KHz.wav
3	131	2	1	0	C	2	0	741	0	poli_8sides 18_whiteLine3.jpg	MediumLong_e17_cut2_stereo_44KHz.wav
3	132	4	4	2	I	1	0	584	0	poli_8sides 11_whiteLine3.jpg	Medium_e26_stereo_44KHz.wav
3	133	1	2	0	C	2	0	1240	0	poli_8sides 10_whiteLine3.jpg	Medium_e13_stereo_44KHz.wav
3	134	2	2	1	C	2	1	1006	1	poli_8sides 18_whiteLine3.jpg	Medium_e13_stereo_44KHz.wav
3	135	4	3	2	I	2	0	869	1	poli_8sides 11_whiteLine3.jpg	MediumLong_b10_cut2_L_stereo_44KHz.wav
3	136	3	3	2	I	2	0	572	1	poli_8sides 1_whiteLine3.jpg	MediumLong_b10_cut2_L_stereo_44KHz.wav
3	137	4	3	2	I	2	0	742	1	poli_8sides 11_whiteLine3.jpg	MediumLong_b10_cut2_L_stereo_44KHz.wav
3	138	1	2	0	C	2	0	1303	0	poli_8sides 10_whiteLine3.jpg	Medium_e13_stereo_44KHz.wav
3	139	2	1	0	C	2	0	701	0	poli_8sides 18_whiteLine3.jpg	MediumLong_e17_cut2_stereo_44KHz.wav
3	140	3	4	2	I	1	0	325	0	poli_8sides 1_whiteLine3.jpg	Medium_e26_stereo_44KHz.wav
3	141	2	2	1	C	2	1	466	1	poli_8sides 18_whiteLine3.jpg	Medium_e13_stereo_44KHz.wav
3	142	1	1	1	C	2	1	500	1	poli_8sides 10_whiteLine3.jpg	MediumLong_e17_cut2_stereo_44KHz.wav
3	143	3	3	2	I	2	0	508	1	poli_8sides 1_whiteLine3.jpg	MediumLong_b10_cut2_L_stereo_44KHz.wav
3	144	4	4	2	I	2	0	1529	0	poli_8sides 11_whiteLine3.jpg	Medium_e26_stereo_44KHz.wav
3	145	2	1	0	C	1	1	1935	1	poli_8sides 18_whiteLine3.jpg	MediumLong_e17_cut2_stereo_44KHz.wav
3	146	4	4	2	I	2	0	1832	0	poli_8sides 11_whiteLine3.jpg	Medium_e26_stereo_44KHz.wav
3	147	1	1	1	C	2	1	1564	1	poli_8sides 10_whiteLine3.jpg	MediumLong_e17_cut2_stereo_44KHz.wav
3	148	3	4	2	I	2	0	1197	0	poli_8sides 1_whiteLine3.jpg	Medium_e26_stereo_44KHz.wav
3	149	1	2	0	C	2	0	831	0	poli_8sides 10_whiteLine3.jpg	Medium_e13_stereo_44KHz.wav
3	150	3	3	2	I	2	0	736	0	poli_8sides 1_whiteLine3.jpg	MediumLong_b10_cut2_L_stereo_44KHz.wav
3	151	4	3	2	I	2	0	830	0	poli_8sides 11_whiteLine3.jpg	MediumLong_b10_cut2_L_stereo_44KHz.wav
3	152	2	2	1	C	1	0	424	0	poli_8sides 18_whiteLine3.jpg	Medium_e13_stereo_44KHz.wav
3	153	4	3	2	I	2	0	398	1	poli_8sides 11_whiteLine3.jpg	MediumLong_b10_cut2_L_stereo_44KHz.wav
3	154	1	1	1	C	2	1	568	1	poli_8sides 10_whiteLine3.jpg	MediumLong_e17_cut2_stereo_44KHz.wav
3	155	3	3	2	I	2	0	496	0	poli_8sides 1_whiteLine3.jpg	MediumLong_b10_cut2_L_stereo_44KHz.wav
3	156	2	1	0	C	2	0	623	0	poli_8sides 18_whiteLine3.jpg	MediumLong_e17_cut2_stereo_44KHz.wav
3	157	4	4	2	I	2	0	456	0	poli_8sides 11_whiteLine3.jpg	Medium_e26_stereo_44KHz.wav
3	158	1	2	0	C	1	1	412	1	poli_8sides 10_whiteLine3.jpg	Medium_e13_stereo_44KHz.wav
3	159	3	4	2	I	2	0	582	0	poli_8sides 1_whiteLine3.jpg	Medium_e26_stereo_44KHz.wav
3	160	2	2	1	C	2	1	1116	1	poli_8sides 18_whiteLine3.jpg	Medium_e13_stereo_44KHz.wav
3	161	3	3	2	I	2	0	968	1	poli_8sides 1_whiteLine3.jpg	MediumLong_b10_cut2_L_stereo_44KHz.wav
3	162	4	4	2	I	2	0	1401	0	poli_8sides 11_whiteLine3.jpg	Medium_e26_stereo_44KHz.wav
3	163	1	1	1	C	2	1	1397	1	poli_8sides 10_whiteLine3.jpg	MediumLong_e17_cut2_stereo_44KHz.wav
3	164	2	2	1	C	2	1	585	1	poli_8sides 18_whiteLine3.jpg	Medium_e13_stereo_44KHz.wav
3	165	3	4	2	I	0	0	0	0	poli_8sides 1_whiteLine3.jpg	Medium_e26_stereo_44KHz.wav
3	166	1	2	0	C	2	0	676	0	poli_8sides 10_whiteLine3.jpg	Medium_e13_stereo_44KHz.wav
3	167	4	3	2	I	2	0	663	1	poli_8sides 11_whiteLine3.jpg	MediumLong_b10_cut2_L_stereo_44KHz.wav
3	168	2	1	0	C	2	0	915	0	poli_8sides 18_whiteLine3.jpg	MediumLong_e17_cut2_stereo_44KHz.wav
3	169	1	2	0	C	2	0	522	0	poli_8sides 10_whiteLine3.jpg	Medium_e13_stereo_44KHz.wav
3	170	3	3	2	I	2	0	713	1	poli_8sides 1_whiteLine3.jpg	MediumLong_b10_cut2_L_stereo_44KHz.wav
3	171	2	1	0	C	2	0	830	0	poli_8sides 18_whiteLine3.jpg	MediumLong_e17_cut2_stereo_44KHz.wav
3	172	4	3	2	I	1	0	1435	1	poli_8sides 11_whiteLine3.jpg	MediumLong_b10_cut2_L_stereo_44KHz.wav
3	173	3	4	2	I	2	0	509	1	poli_8sides 1_whiteLine3.jpg	Medium_e26_stereo_44KHz.wav
3	174	2	2	1	C	2	1	569	1	poli_8sides 18_whiteLine3.jpg	Medium_e13_stereo_44KHz.wav
3	175	1	1	1	C	2	1	1263	1	poli_8sides 10_whiteLine3.jpg	MediumLong_e17_cut2_stereo_44KHz.wav
3	176	4	4	2	I	2	0	1915	0	poli_8sides 11_whiteLine3.jpg	Medium_e26_stereo_44KHz.wav
3	177	2	1	0	C	1	1	1211	1	poli_8sides 18_whiteLine3.jpg	MediumLong_e17_cut2_stereo_44KHz.wav
3	178	4	3	2	I	0	0	0	0	poli_8sides 11_whiteLine3.jpg	MediumLong_b10_cut2_L_stereo_44KHz.wav
3	179	1	1	1	C	2	1	561	1	poli_8sides 10_whiteLine3.jpg	MediumLong_e17_cut2_stereo_44KHz.wav
3	180	3	3	2	I	2	0	1190	1	poli_8sides 1_whiteLine3.jpg	MediumLong_b10_cut2_L_stereo_44KHz.wav
3	181	2	2	1	C	2	1	691	1	poli_8sides 18_whiteLine3.jpg	Medium_e13_stereo_44KHz.wav
3	182	1	2	0	C	2	0	669	0	poli_8sides 10_whiteLine3.jpg	Medium_e13_stereo_44KHz.wav
3	183	4	4	2	I	1	0	1156	1	poli_8sides 11_whiteLine3.jpg	Medium_e26_stereo_44KHz.wav
3	184	3	4	2	I	2	0	1483	0	poli_8sides 1_whiteLine3.jpg	Medium_e26_stereo_44KHz.wav
3	185	1	2	0	C	2	0	658	0	poli_8sides 10_whiteLine3.jpg	Medium_e13_stereo_44KHz.wav
3	186	3	3	2	I	1	0	528	0	poli_8sides 1_whiteLine3.jpg	MediumLong_b10_cut2_L_stereo_44KHz.wav
3	187	2	1	0	C	1	1	1137	1	poli_8sides 18_whiteLine3.jpg	MediumLong_e17_cut2_stereo_44KHz.wav
3	188	4	4	2	I	1	0	1161	0	poli_8sides 11_whiteLine3.jpg	Medium_e26_stereo_44KHz.wav
3	189	1	1	1	C	2	1	716	1	poli_8sides 10_whiteLine3.jpg	MediumLong_e17_cut2_stereo_44KHz.wav
3	190	4	3	2	I	1	0	1143	0	poli_8sides 11_whiteLine3.jpg	MediumLong_b10_cut2_L_stereo_44KHz.wav
3	191	3	4	2	I	2	0	1056	0	poli_8sides 1_whiteLine3.jpg	Medium_e26_stereo_44KHz.wav
3	192	2	2	1	C	2	1	1160	1	poli_8sides 18_whiteLine3.jpg	Medium_e13_stereo_44KHz.wav
3	193	3	3	2	I	2	0	786	1	poli_8sides 1_whiteLine3.jpg	MediumLong_b10_cut2_L_stereo_44KHz.wav
3	194	4	4	2	I	1	0	1177	0	poli_8sides 11_whiteLine3.jpg	Medium_e26_stereo_44KHz.wav
3	195	1	1	1	C	2	1	712	1	poli_8sides 10_whiteLine3.jpg	MediumLong_e17_cut2_stereo_44KHz.wav
3	196	2	2	1	C	2	1	1117	1	poli_8sides 18_whiteLine3.jpg	Medium_e13_stereo_44KHz.wav
3	197	1	2	0	C	2	0	1056	0	poli_8sides 10_whiteLine3.jpg	Medium_e13_stereo_44KHz.wav
3	198	4	3	2	I	1	0	659	0	poli_8sides 11_whiteLine3.jpg	MediumLong_b10_cut2_L_stereo_44KHz.wav
3	199	3	4	2	I	2	0	617	1	poli_8sides 1_whiteLine3.jpg	Medium_e26_stereo_44KHz.wav
3	200	2	1	0	C	1	1	1003	1	poli_8sides 18_whiteLine3.jpg	MediumLong_e17_cut2_stereo_44KHz.wav
4	1	1	2	0	C	2	0	1798	0	poli_8sides 7_whiteLine3.jpg	MediumShort_b10_cut1_MS_stereo_44KHz.wav
4	2	4	4	2	I	1	0	594	1	poli_8sides 12_whiteLine3.jpg	MediumShort_e16_cut1_stereo_44KHz.wav
4	3	2	2	1	C	1	0	528	0	poli_8sides 8_whiteLine3.jpg	MediumShort_b10_cut1_MS_stereo_44KHz.wav
4	4	3	3	2	I	2	0	587	0	poli_8sides 3_whiteLine3.jpg	MediumShort_e22_cut1_stereo_44KHz.wav
4	5	1	1	1	C	1	0	538	0	poli_8sides 7_whiteLine3.jpg	MediumShort_b16_cut3_MS_stereo_44KHz.wav
4	6	3	4	2	I	2	0	614	0	poli_8sides 3_whiteLine3.jpg	MediumShort_e16_cut1_stereo_44KHz.wav
4	7	2	1	0	C	1	1	335	1	poli_8sides 8_whiteLine3.jpg	MediumShort_b16_cut3_MS_stereo_44KHz.wav
4	8	4	3	2	I	1	0	561	0	poli_8sides 12_whiteLine3.jpg	MediumShort_e22_cut1_stereo_44KHz.wav
4	9	1	2	0	C	2	0	446	0	poli_8sides 7_whiteLine3.jpg	MediumShort_b10_cut1_MS_stereo_44KHz.wav
4	10	3	4	2	I	2	0	663	0	poli_8sides 3_whiteLine3.jpg	MediumShort_e16_cut1_stereo_44KHz.wav
4	11	2	2	1	C	1	0	450	0	poli_8sides 8_whiteLine3.jpg	MediumShort_b10_cut1_MS_stereo_44KHz.wav
4	12	4	4	2	I	2	0	568	0	poli_8sides 12_whiteLine3.jpg	MediumShort_e16_cut1_stereo_44KHz.wav
4	13	2	1	0	C	1	1	705	1	poli_8sides 8_whiteLine3.jpg	MediumShort_b16_cut3_MS_stereo_44KHz.wav
4	14	3	3	2	I	1	0	838	0	poli_8sides 3_whiteLine3.jpg	MediumShort_e22_cut1_stereo_44KHz.wav
4	15	1	1	1	C	1	0	702	0	poli_8sides 7_whiteLine3.jpg	MediumShort_b16_cut3_MS_stereo_44KHz.wav
4	16	4	3	2	I	2	0	403	1	poli_8sides 12_whiteLine3.jpg	MediumShort_e22_cut1_stereo_44KHz.wav
4	17	1	2	0	C	2	0	474	0	poli_8sides 7_whiteLine3.jpg	MediumShort_b10_cut1_MS_stereo_44KHz.wav
4	18	4	4	2	I	1	0	465	0	poli_8sides 12_whiteLine3.jpg	MediumShort_e16_cut1_stereo_44KHz.wav
4	19	3	4	2	I	2	0	859	1	poli_8sides 3_whiteLine3.jpg	MediumShort_e16_cut1_stereo_44KHz.wav
4	20	2	2	1	C	1	0	476	0	poli_8sides 8_whiteLine3.jpg	MediumShort_b10_cut1_MS_stereo_44KHz.wav
4	21	4	3	2	I	2	0	529	0	poli_8sides 12_whiteLine3.jpg	MediumShort_e22_cut1_stereo_44KHz.wav
4	22	1	1	1	C	1	0	475	0	poli_8sides 7_whiteLine3.jpg	MediumShort_b16_cut3_MS_stereo_44KHz.wav
4	23	3	3	2	I	2	0	528	1	poli_8sides 3_whiteLine3.jpg	MediumShort_e22_cut1_stereo_44KHz.wav
4	24	2	1	0	C	2	0	518	0	poli_8sides 8_whiteLine3.jpg	MediumShort_b16_cut3_MS_stereo_44KHz.wav
4	25	4	3	2	I	1	0	656	0	poli_8sides 12_whiteLine3.jpg	MediumShort_e22_cut1_stereo_44KHz.wav
4	26	1	2	0	C	2	0	535	0	poli_8sides 7_whiteLine3.jpg	MediumShort_b10_cut1_MS_stereo_44KHz.wav
4	27	2	1	0	C	1	1	449	1	poli_8sides 8_whiteLine3.jpg	MediumShort_b16_cut3_MS_stereo_44KHz.wav
4	28	3	4	2	I	1	0	505	0	poli_8sides 3_whiteLine3.jpg	MediumShort_e16_cut1_stereo_44KHz.wav
4	29	1	1	1	C	2	1	464	1	poli_8sides 7_whiteLine3.jpg	MediumShort_b16_cut3_MS_stereo_44KHz.wav
4	30	4	4	2	I	2	0	768	1	poli_8sides 12_whiteLine3.jpg	MediumShort_e16_cut1_stereo_44KHz.wav
4	31	3	3	2	I	2	0	539	0	poli_8sides 3_whiteLine3.jpg	MediumShort_e22_cut1_stereo_44KHz.wav
4	32	2	2	1	C	1	0	433	0	poli_8sides 8_whiteLine3.jpg	MediumShort_b10_cut1_MS_stereo_44KHz.wav
4	33	4	4	2	I	2	0	337	0	poli_8sides 12_whiteLine3.jpg	MediumShort_e16_cut1_stereo_44KHz.wav
4	34	3	3	2	I	1	0	459	0	poli_8sides 3_whiteLine3.jpg	MediumShort_e22_cut1_stereo_44KHz.wav
4	35	1	2	0	C	1	1	650	1	poli_8sides 7_whiteLine3.jpg	MediumShort_b10_cut1_MS_stereo_44KHz.wav
4	36	2	1	0	C	1	1	413	1	poli_8sides 8_whiteLine3.jpg	MediumShort_b16_cut3_MS_stereo_44KHz.wav
4	37	1	1	1	C	1	0	481	0	poli_8sides 7_whiteLine3.jpg	MediumShort_b16_cut3_MS_stereo_44KHz.wav
4	38	4	3	2	I	2	0	440	1	poli_8sides 12_whiteLine3.jpg	MediumShort_e22_cut1_stereo_44KHz.wav
4	39	3	4	2	I	2	0	1013	1	poli_8sides 3_whiteLine3.jpg	MediumShort_e16_cut1_stereo_44KHz.wav
4	40	2	2	1	C	2	1	605	1	poli_8sides 8_whiteLine3.jpg	MediumShort_b10_cut1_MS_stereo_44KHz.wav
4	41	4	4	2	I	1	0	626	0	poli_8sides 12_whiteLine3.jpg	MediumShort_e16_cut1_stereo_44KHz.wav
4	42	3	3	2	I	2	0	451	1	poli_8sides 3_whiteLine3.jpg	MediumShort_e22_cut1_stereo_44KHz.wav
4	43	2	2	1	C	1	0	501	0	poli_8sides 8_whiteLine3.jpg	MediumShort_b10_cut1_MS_stereo_44KHz.wav
4	44	1	2	0	C	2	0	659	0	poli_8sides 7_whiteLine3.jpg	MediumShort_b10_cut1_MS_stereo_44KHz.wav
4	45	4	3	2	I	1	0	651	0	poli_8sides 12_whiteLine3.jpg	MediumShort_e22_cut1_stereo_44KHz.wav
4	46	2	1	0	C	2	0	773	0	poli_8sides 8_whiteLine3.jpg	MediumShort_b16_cut3_MS_stereo_44KHz.wav
4	47	1	1	1	C	1	0	381	0	poli_8sides 7_whiteLine3.jpg	MediumShort_b16_cut3_MS_stereo_44KHz.wav
4	48	3	4	2	I	1	0	1193	1	poli_8sides 3_whiteLine3.jpg	MediumShort_e16_cut1_stereo_44KHz.wav
4	49	1	2	0	C	2	0	959	0	poli_8sides 7_whiteLine3.jpg	MediumShort_b10_cut1_MS_stereo_44KHz.wav
4	50	3	3	2	I	1	0	759	0	poli_8sides 3_whiteLine3.jpg	MediumShort_e22_cut1_stereo_44KHz.wav
4	51	4	4	2	I	2	0	659	1	poli_8sides 12_whiteLine3.jpg	MediumShort_e16_cut1_stereo_44KHz.wav
4	52	2	2	1	C	2	1	671	1	poli_8sides 8_whiteLine3.jpg	MediumShort_b10_cut1_MS_stereo_44KHz.wav
4	53	1	1	1	C	2	1	839	1	poli_8sides 7_whiteLine3.jpg	MediumShort_b16_cut3_MS_stereo_44KHz.wav
4	54	4	3	2	I	2	0	677	1	poli_8sides 12_whiteLine3.jpg	MediumShort_e22_cut1_stereo_44KHz.wav
4	55	2	1	0	C	2	0	600	0	poli_8sides 8_whiteLine3.jpg	MediumShort_b16_cut3_MS_stereo_44KHz.wav
4	56	3	4	2	I	1	0	537	0	poli_8sides 3_whiteLine3.jpg	MediumShort_e16_cut1_stereo_44KHz.wav
4	57	4	4	2	I	2	0	606	1	poli_8sides 12_whiteLine3.jpg	MediumShort_e16_cut1_stereo_44KHz.wav
4	58	3	3	2	I	1	0	1008	1	poli_8sides 3_whiteLine3.jpg	MediumShort_e22_cut1_stereo_44KHz.wav
4	59	2	1	0	C	2	0	735	0	poli_8sides 8_whiteLine3.jpg	MediumShort_b16_cut3_MS_stereo_44KHz.wav
4	60	1	2	0	C	1	1	745	1	poli_8sides 7_whiteLine3.jpg	MediumShort_b10_cut1_MS_stereo_44KHz.wav
4	61	4	3	2	I	1	0	627	1	poli_8sides 12_whiteLine3.jpg	MediumShort_e22_cut1_stereo_44KHz.wav
4	62	1	1	1	C	1	0	758	0	poli_8sides 7_whiteLine3.jpg	MediumShort_b16_cut3_MS_stereo_44KHz.wav
4	63	2	2	1	C	2	1	592	1	poli_8sides 8_whiteLine3.jpg	MediumShort_b10_cut1_MS_stereo_44KHz.wav
4	64	3	4	2	I	2	0	685	1	poli_8sides 3_whiteLine3.jpg	MediumShort_e16_cut1_stereo_44KHz.wav
4	65	4	4	2	I	1	0	995	1	poli_8sides 12_whiteLine3.jpg	MediumShort_e16_cut1_stereo_44KHz.wav
4	66	2	1	0	C	2	0	585	0	poli_8sides 8_whiteLine3.jpg	MediumShort_b16_cut3_MS_stereo_44KHz.wav
4	67	3	4	2	I	1	0	672	1	poli_8sides 3_whiteLine3.jpg	MediumShort_e16_cut1_stereo_44KHz.wav
4	68	1	2	0	C	1	1	898	1	poli_8sides 7_whiteLine3.jpg	MediumShort_b10_cut1_MS_stereo_44KHz.wav
4	69	4	3	2	I	2	0	1092	0	poli_8sides 12_whiteLine3.jpg	MediumShort_e22_cut1_stereo_44KHz.wav
4	70	1	1	1	C	1	0	526	0	poli_8sides 7_whiteLine3.jpg	MediumShort_b16_cut3_MS_stereo_44KHz.wav
4	71	2	2	1	C	2	1	461	1	poli_8sides 8_whiteLine3.jpg	MediumShort_b10_cut1_MS_stereo_44KHz.wav
4	72	3	3	2	I	1	0	1253	0	poli_8sides 3_whiteLine3.jpg	MediumShort_e22_cut1_stereo_44KHz.wav
4	73	2	1	0	C	1	1	757	1	poli_8sides 8_whiteLine3.jpg	MediumShort_b16_cut3_MS_stereo_44KHz.wav
4	74	4	4	2	I	1	0	1085	1	poli_8sides 12_whiteLine3.jpg	MediumShort_e16_cut1_stereo_44KHz.wav
4	75	3	4	2	I	1	0	598	0	poli_8sides 3_whiteLine3.jpg	MediumShort_e16_cut1_stereo_44KHz.wav
4	76	1	1	1	C	2	1	833	1	poli_8sides 7_whiteLine3.jpg	MediumShort_b16_cut3_MS_stereo_44KHz.wav
4	77	3	3	2	I	1	0	972	0	poli_8sides 3_whiteLine3.jpg	MediumShort_e22_cut1_stereo_44KHz.wav
4	78	2	2	1	C	2	1	654	1	poli_8sides 8_whiteLine3.jpg	MediumShort_b10_cut1_MS_stereo_44KHz.wav
4	79	4	3	2	I	1	0	877	0	poli_8sides 12_whiteLine3.jpg	MediumShort_e22_cut1_stereo_44KHz.wav
4	80	1	2	0	C	2	0	1018	0	poli_8sides 7_whiteLine3.jpg	MediumShort_b10_cut1_MS_stereo_44KHz.wav
4	81	2	1	0	C	1	1	442	1	poli_8sides 8_whiteLine3.jpg	MediumShort_b16_cut3_MS_stereo_44KHz.wav
4	82	4	4	2	I	2	0	590	0	poli_8sides 12_whiteLine3.jpg	MediumShort_e16_cut1_stereo_44KHz.wav
4	83	3	3	2	I	1	0	547	0	poli_8sides 3_whiteLine3.jpg	MediumShort_e22_cut1_stereo_44KHz.wav
4	84	1	1	1	C	2	1	739	1	poli_8sides 7_whiteLine3.jpg	MediumShort_b16_cut3_MS_stereo_44KHz.wav
4	85	2	2	1	C	1	0	1172	0	poli_8sides 8_whiteLine3.jpg	MediumShort_b10_cut1_MS_stereo_44KHz.wav
4	86	1	2	0	C	2	0	592	0	poli_8sides 7_whiteLine3.jpg	MediumShort_b10_cut1_MS_stereo_44KHz.wav
4	87	3	4	2	I	1	0	840	1	poli_8sides 3_whiteLine3.jpg	MediumShort_e16_cut1_stereo_44KHz.wav
4	88	4	3	2	I	1	0	645	0	poli_8sides 12_whiteLine3.jpg	MediumShort_e22_cut1_stereo_44KHz.wav
4	89	3	3	2	I	1	0	720	1	poli_8sides 3_whiteLine3.jpg	MediumShort_e22_cut1_stereo_44KHz.wav
4	90	1	2	0	C	1	1	763	1	poli_8sides 7_whiteLine3.jpg	MediumShort_b10_cut1_MS_stereo_44KHz.wav
4	91	2	1	0	C	1	1	620	1	poli_8sides 8_whiteLine3.jpg	MediumShort_b16_cut3_MS_stereo_44KHz.wav
4	92	4	3	2	I	1	0	885	1	poli_8sides 12_whiteLine3.jpg	MediumShort_e22_cut1_stereo_44KHz.wav
4	93	3	4	2	I	1	0	718	1	poli_8sides 3_whiteLine3.jpg	MediumShort_e16_cut1_stereo_44KHz.wav
4	94	2	2	1	C	2	1	1157	1	poli_8sides 8_whiteLine3.jpg	MediumShort_b10_cut1_MS_stereo_44KHz.wav
4	95	1	1	1	C	2	1	1048	1	poli_8sides 7_whiteLine3.jpg	MediumShort_b16_cut3_MS_stereo_44KHz.wav
4	96	4	4	2	I	1	0	712	0	poli_8sides 12_whiteLine3.jpg	MediumShort_e16_cut1_stereo_44KHz.wav
4	97	3	4	2	I	2	0	490	0	poli_8sides 3_whiteLine3.jpg	MediumShort_e16_cut1_stereo_44KHz.wav
4	98	4	4	2	I	1	0	498	1	poli_8sides 12_whiteLine3.jpg	MediumShort_e16_cut1_stereo_44KHz.wav
4	99	1	1	1	C	1	0	701	0	poli_8sides 7_whiteLine3.jpg	MediumShort_b16_cut3_MS_stereo_44KHz.wav
4	100	2	2	1	C	2	1	1681	1	poli_8sides 8_whiteLine3.jpg	MediumShort_b10_cut1_MS_stereo_44KHz.wav
4	101	4	3	2	I	2	0	878	0	poli_8sides 12_whiteLine3.jpg	MediumShort_e22_cut1_stereo_44KHz.wav
4	102	3	3	2	I	1	0	762	1	poli_8sides 3_whiteLine3.jpg	MediumShort_e22_cut1_stereo_44KHz.wav
4	103	1	2	0	C	2	0	564	0	poli_8sides 7_whiteLine3.jpg	MediumShort_b10_cut1_MS_stereo_44KHz.wav
4	104	2	1	0	C	1	1	509	1	poli_8sides 8_whiteLine3.jpg	MediumShort_b16_cut3_MS_stereo_44KHz.wav
4	105	3	4	2	I	1	0	710	1	poli_8sides 3_whiteLine3.jpg	MediumShort_e16_cut1_stereo_44KHz.wav
4	106	2	2	1	C	1	0	513	0	poli_8sides 8_whiteLine3.jpg	MediumShort_b10_cut1_MS_stereo_44KHz.wav
4	107	1	1	1	C	2	1	506	1	poli_8sides 7_whiteLine3.jpg	MediumShort_b16_cut3_MS_stereo_44KHz.wav
4	108	4	3	2	I	1	0	698	1	poli_8sides 12_whiteLine3.jpg	MediumShort_e22_cut1_stereo_44KHz.wav
4	109	2	1	0	C	1	1	589	1	poli_8sides 8_whiteLine3.jpg	MediumShort_b16_cut3_MS_stereo_44KHz.wav
4	110	4	4	2	I	1	0	726	1	poli_8sides 12_whiteLine3.jpg	MediumShort_e16_cut1_stereo_44KHz.wav
4	111	1	2	0	C	1	1	859	1	poli_8sides 7_whiteLine3.jpg	MediumShort_b10_cut1_MS_stereo_44KHz.wav
4	112	3	3	2	I	1	0	356	0	poli_8sides 3_whiteLine3.jpg	MediumShort_e22_cut1_stereo_44KHz.wav
4	113	1	2	0	C	2	0	992	0	poli_8sides 7_whiteLine3.jpg	MediumShort_b10_cut1_MS_stereo_44KHz.wav
4	114	4	4	2	I	1	0	616	1	poli_8sides 12_whiteLine3.jpg	MediumShort_e16_cut1_stereo_44KHz.wav
4	115	2	2	1	C	2	1	717	1	poli_8sides 8_whiteLine3.jpg	MediumShort_b10_cut1_MS_stereo_44KHz.wav
4	116	3	4	2	I	2	0	1264	0	poli_8sides 3_whiteLine3.jpg	MediumShort_e16_cut1_stereo_44KHz.wav
4	117	1	1	1	C	0	0	0	0	poli_8sides 7_whiteLine3.jpg	MediumShort_b16_cut3_MS_stereo_44KHz.wav
4	118	4	3	2	I	1	0	701	0	poli_8sides 12_whiteLine3.jpg	MediumShort_e22_cut1_stereo_44KHz.wav
4	119	2	1	0	C	1	1	647	1	poli_8sides 8_whiteLine3.jpg	MediumShort_b16_cut3_MS_stereo_44KHz.wav
4	120	3	3	2	I	1	0	722	0	poli_8sides 3_whiteLine3.jpg	MediumShort_e22_cut1_stereo_44KHz.wav
4	121	4	3	2	I	2	0	455	1	poli_8sides 12_whiteLine3.jpg	MediumShort_e22_cut1_stereo_44KHz.wav
4	122	2	2	1	C	1	0	546	0	poli_8sides 8_whiteLine3.jpg	MediumShort_b10_cut1_MS_stereo_44KHz.wav
4	123	1	2	0	C	2	0	522	0	poli_8sides 7_whiteLine3.jpg	MediumShort_b10_cut1_MS_stereo_44KHz.wav
4	124	3	3	2	I	1	0	429	1	poli_8sides 3_whiteLine3.jpg	MediumShort_e22_cut1_stereo_44KHz.wav
4	125	1	1	1	C	0	0	0	0	poli_8sides 7_whiteLine3.jpg	MediumShort_b16_cut3_MS_stereo_44KHz.wav
4	126	4	4	2	I	1	0	680	0	poli_8sides 12_whiteLine3.jpg	MediumShort_e16_cut1_stereo_44KHz.wav
4	127	3	4	2	I	2	0	404	0	poli_8sides 3_whiteLine3.jpg	MediumShort_e16_cut1_stereo_44KHz.wav
4	128	2	1	0	C	1	1	888	1	poli_8sides 8_whiteLine3.jpg	MediumShort_b16_cut3_MS_stereo_44KHz.wav
4	129	3	4	2	I	1	0	646	0	poli_8sides 3_whiteLine3.jpg	MediumShort_e16_cut1_stereo_44KHz.wav
4	130	4	3	2	I	2	0	434	1	poli_8sides 12_whiteLine3.jpg	MediumShort_e22_cut1_stereo_44KHz.wav
4	131	2	2	1	C	2	1	728	1	poli_8sides 8_whiteLine3.jpg	MediumShort_b10_cut1_MS_stereo_44KHz.wav
4	132	1	1	1	C	0	0	0	0	poli_8sides 7_whiteLine3.jpg	MediumShort_b16_cut3_MS_stereo_44KHz.wav
4	133	3	3	2	I	0	0	0	0	poli_8sides 3_whiteLine3.jpg	MediumShort_e22_cut1_stereo_44KHz.wav
4	134	2	1	0	C	0	0	0	0	poli_8sides 8_whiteLine3.jpg	MediumShort_b16_cut3_MS_stereo_44KHz.wav
4	135	4	4	2	I	1	0	474	0	poli_8sides 12_whiteLine3.jpg	MediumShort_e16_cut1_stereo_44KHz.wav
4	136	1	2	0	C	2	0	505	0	poli_8sides 7_whiteLine3.jpg	MediumShort_b10_cut1_MS_stereo_44KHz.wav
4	137	3	3	2	I	1	0	599	0	poli_8sides 3_whiteLine3.jpg	MediumShort_e22_cut1_stereo_44KHz.wav
4	138	4	3	2	I	2	0	436	1	poli_8sides 12_whiteLine3.jpg	MediumShort_e22_cut1_stereo_44KHz.wav
4	139	2	1	0	C	1	1	515	1	poli_8sides 8_whiteLine3.jpg	MediumShort_b16_cut3_MS_stereo_44KHz.wav
4	140	1	1	1	C	1	0	673	0	poli_8sides 7_whiteLine3.jpg	MediumShort_b16_cut3_MS_stereo_44KHz.wav
4	141	2	2	1	C	2	1	445	1	poli_8sides 8_whiteLine3.jpg	MediumShort_b10_cut1_MS_stereo_44KHz.wav
4	142	4	4	2	I	2	0	525	0	poli_8sides 12_whiteLine3.jpg	MediumShort_e16_cut1_stereo_44KHz.wav
4	143	3	4	2	I	2	0	945	1	poli_8sides 3_whiteLine3.jpg	MediumShort_e16_cut1_stereo_44KHz.wav
4	144	1	2	0	C	2	0	958	0	poli_8sides 7_whiteLine3.jpg	MediumShort_b10_cut1_MS_stereo_44KHz.wav
4	145	2	1	0	C	1	1	459	1	poli_8sides 8_whiteLine3.jpg	MediumShort_b16_cut3_MS_stereo_44KHz.wav
4	146	4	3	2	I	2	0	561	0	poli_8sides 12_whiteLine3.jpg	MediumShort_e22_cut1_stereo_44KHz.wav
4	147	1	1	1	C	1	0	623	0	poli_8sides 7_whiteLine3.jpg	MediumShort_b16_cut3_MS_stereo_44KHz.wav
4	148	3	4	2	I	2	0	426	1	poli_8sides 3_whiteLine3.jpg	MediumShort_e16_cut1_stereo_44KHz.wav
4	149	1	2	0	C	1	1	1073	1	poli_8sides 7_whiteLine3.jpg	MediumShort_b10_cut1_MS_stereo_44KHz.wav
4	150	4	4	2	I	1	0	726	1	poli_8sides 12_whiteLine3.jpg	MediumShort_e16_cut1_stereo_44KHz.wav
4	151	2	2	1	C	2	1	559	1	poli_8sides 8_whiteLine3.jpg	MediumShort_b10_cut1_MS_stereo_44KHz.wav
4	152	3	3	2	I	2	0	968	1	poli_8sides 3_whiteLine3.jpg	MediumShort_e22_cut1_stereo_44KHz.wav
4	153	1	1	1	C	2	1	947	1	poli_8sides 7_whiteLine3.jpg	MediumShort_b16_cut3_MS_stereo_44KHz.wav
4	154	2	1	0	C	1	1	1484	1	poli_8sides 8_whiteLine3.jpg	MediumShort_b16_cut3_MS_stereo_44KHz.wav
4	155	3	3	2	I	1	0	969	1	poli_8sides 3_whiteLine3.jpg	MediumShort_e22_cut1_stereo_44KHz.wav
4	156	4	3	2	I	2	0	641	0	poli_8sides 12_whiteLine3.jpg	MediumShort_e22_cut1_stereo_44KHz.wav
4	157	2	2	1	C	1	0	362	0	poli_8sides 8_whiteLine3.jpg	MediumShort_b10_cut1_MS_stereo_44KHz.wav
4	158	1	2	0	C	2	0	330	0	poli_8sides 7_whiteLine3.jpg	MediumShort_b10_cut1_MS_stereo_44KHz.wav
4	159	4	4	2	I	1	0	417	1	poli_8sides 12_whiteLine3.jpg	MediumShort_e16_cut1_stereo_44KHz.wav
4	160	3	4	2	I	2	0	881	0	poli_8sides 3_whiteLine3.jpg	MediumShort_e16_cut1_stereo_44KHz.wav
4	161	2	1	0	C	1	1	689	1	poli_8sides 8_whiteLine3.jpg	MediumShort_b16_cut3_MS_stereo_44KHz.wav
4	162	1	2	0	C	2	0	491	0	poli_8sides 7_whiteLine3.jpg	MediumShort_b10_cut1_MS_stereo_44KHz.wav
4	163	4	4	2	I	1	0	568	1	poli_8sides 12_whiteLine3.jpg	MediumShort_e16_cut1_stereo_44KHz.wav
4	164	3	3	2	I	1	0	681	0	poli_8sides 3_whiteLine3.jpg	MediumShort_e22_cut1_stereo_44KHz.wav
4	165	2	2	1	C	2	1	558	1	poli_8sides 8_whiteLine3.jpg	MediumShort_b10_cut1_MS_stereo_44KHz.wav
4	166	3	4	2	I	2	0	725	1	poli_8sides 3_whiteLine3.jpg	MediumShort_e16_cut1_stereo_44KHz.wav
4	167	1	1	1	C	0	0	0	0	poli_8sides 7_whiteLine3.jpg	MediumShort_b16_cut3_MS_stereo_44KHz.wav
4	168	4	3	2	I	1	0	448	1	poli_8sides 12_whiteLine3.jpg	MediumShort_e22_cut1_stereo_44KHz.wav
4	169	2	1	0	C	2	0	516	0	poli_8sides 8_whiteLine3.jpg	MediumShort_b16_cut3_MS_stereo_44KHz.wav
4	170	4	3	2	I	1	0	1053	0	poli_8sides 12_whiteLine3.jpg	MediumShort_e22_cut1_stereo_44KHz.wav
4	171	1	2	0	C	2	0	513	0	poli_8sides 7_whiteLine3.jpg	MediumShort_b10_cut1_MS_stereo_44KHz.wav
4	172	3	4	2	I	1	0	588	1	poli_8sides 3_whiteLine3.jpg	MediumShort_e16_cut1_stereo_44KHz.wav
4	173	4	4	2	I	2	0	684	0	poli_8sides 12_whiteLine3.jpg	MediumShort_e16_cut1_stereo_44KHz.wav
4	174	3	3	2	I	1	0	487	0	poli_8sides 3_whiteLine3.jpg	MediumShort_e22_cut1_stereo_44KHz.wav
4	175	2	2	1	C	2	1	612	1	poli_8sides 8_whiteLine3.jpg	MediumShort_b10_cut1_MS_stereo_44KHz.wav
4	176	1	1	1	C	2	1	441	1	poli_8sides 7_whiteLine3.jpg	MediumShort_b16_cut3_MS_stereo_44KHz.wav
4	177	3	4	2	I	2	0	781	0	poli_8sides 3_whiteLine3.jpg	MediumShort_e16_cut1_stereo_44KHz.wav
4	178	1	1	1	C	1	0	748	0	poli_8sides 7_whiteLine3.jpg	MediumShort_b16_cut3_MS_stereo_44KHz.wav
4	179	2	1	0	C	2	0	450	0	poli_8sides 8_whiteLine3.jpg	MediumShort_b16_cut3_MS_stereo_44KHz.wav
4	180	4	3	2	I	1	0	486	0	poli_8sides 12_whiteLine3.jpg	MediumShort_e22_cut1_stereo_44KHz.wav
4	181	3	3	2	I	2	0	370	0	poli_8sides 3_whiteLine3.jpg	MediumShort_e22_cut1_stereo_44KHz.wav
4	182	2	2	1	C	1	0	458	0	poli_8sides 8_whiteLine3.jpg	MediumShort_b10_cut1_MS_stereo_44KHz.wav
4	183	1	2	0	C	2	0	456	0	poli_8sides 7_whiteLine3.jpg	MediumShort_b10_cut1_MS_stereo_44KHz.wav
4	184	4	4	2	I	1	0	423	0	poli_8sides 12_whiteLine3.jpg	MediumShort_e16_cut1_stereo_44KHz.wav
4	185	2	1	0	C	2	0	460	0	poli_8sides 8_whiteLine3.jpg	MediumShort_b16_cut3_MS_stereo_44KHz.wav
4	186	4	4	2	I	1	0	435	0	poli_8sides 12_whiteLine3.jpg	MediumShort_e16_cut1_stereo_44KHz.wav
4	187	1	1	1	C	2	1	564	1	poli_8sides 7_whiteLine3.jpg	MediumShort_b16_cut3_MS_stereo_44KHz.wav
4	188	3	4	2	I	2	0	1138	1	poli_8sides 3_whiteLine3.jpg	MediumShort_e16_cut1_stereo_44KHz.wav
4	189	4	3	2	I	2	0	1029	1	poli_8sides 12_whiteLine3.jpg	MediumShort_e22_cut1_stereo_44KHz.wav
4	190	1	2	0	C	1	1	807	1	poli_8sides 7_whiteLine3.jpg	MediumShort_b10_cut1_MS_stereo_44KHz.wav
4	191	3	3	2	I	1	0	1258	1	poli_8sides 3_whiteLine3.jpg	MediumShort_e22_cut1_stereo_44KHz.wav
4	192	2	2	1	C	1	0	842	0	poli_8sides 8_whiteLine3.jpg	MediumShort_b10_cut1_MS_stereo_44KHz.wav
4	193	4	4	2	I	2	0	654	1	poli_8sides 12_whiteLine3.jpg	MediumShort_e16_cut1_stereo_44KHz.wav
4	194	3	3	2	I	2	0	599	1	poli_8sides 3_whiteLine3.jpg	MediumShort_e22_cut1_stereo_44KHz.wav
4	195	2	2	1	C	2	1	1019	1	poli_8sides 8_whiteLine3.jpg	MediumShort_b10_cut1_MS_stereo_44KHz.wav
4	196	1	2	0	C	2	0	646	0	poli_8sides 7_whiteLine3.jpg	MediumShort_b10_cut1_MS_stereo_44KHz.wav
4	197	4	3	2	I	2	0	953	1	poli_8sides 12_whiteLine3.jpg	MediumShort_e22_cut1_stereo_44KHz.wav
4	198	3	4	2	I	2	0	563	1	poli_8sides 3_whiteLine3.jpg	MediumShort_e16_cut1_stereo_44KHz.wav
4	199	1	1	1	C	1	0	1137	0	poli_8sides 7_whiteLine3.jpg	MediumShort_b16_cut3_MS_stereo_44KHz.wav
4	200	2	1	0	C	2	0	477	0	poli_8sides 8_whiteLine3.jpg	MediumShort_b16_cut3_MS_stereo_44KHz.wav
