block	trial	Vstim	Astim	match	C/I	resp	.result	RT	fb	V-file	A-file
RL

0	1	1	2	0	C	0	0	0	0	Ⴢ	cut_oo_stereo_44KHz.wav
0	2	2	4	0	C	1	0	1186	0	Ⴋ	cut_ee_stereo_44KHz.wav
0	3	1	1	1	C	1	1	1090	1	Ⴢ	cut_eeuw_stereo_44KHz.wav
0	4	2	3	1	C	1	1	778	1	Ⴋ	cut_g_stereo_44KHz.wav
0	5	2	4	0	C	1	0	1106	0	Ⴋ	cut_ee_stereo_44KHz.wav
0	6	2	3	1	C	1	1	1440	1	Ⴋ	cut_g_stereo_44KHz.wav
0	7	1	1	1	C	2	0	592	0	Ⴢ	cut_eeuw_stereo_44KHz.wav
0	8	1	2	0	C	1	0	912	0	Ⴢ	cut_oo_stereo_44KHz.wav
0	9	1	2	0	C	2	1	1106	1	Ⴢ	cut_oo_stereo_44KHz.wav
0	10	1	1	1	C	1	1	902	1	Ⴢ	cut_eeuw_stereo_44KHz.wav
0	11	2	4	0	C	2	1	864	1	Ⴋ	cut_ee_stereo_44KHz.wav
0	12	2	3	1	C	1	1	916	1	Ⴋ	cut_g_stereo_44KHz.wav
0	13	1	1	1	C	1	1	715	1	Ⴢ	cut_eeuw_stereo_44KHz.wav
0	14	2	4	0	C	2	1	988	1	Ⴋ	cut_ee_stereo_44KHz.wav
0	15	1	2	0	C	2	1	577	1	Ⴢ	cut_oo_stereo_44KHz.wav
0	16	2	3	1	C	1	1	635	1	Ⴋ	cut_g_stereo_44KHz.wav
0	17	2	4	0	C	2	1	543	1	Ⴋ	cut_ee_stereo_44KHz.wav
0	18	2	3	1	C	1	1	584	1	Ⴋ	cut_g_stereo_44KHz.wav
0	19	1	2	0	C	2	1	520	1	Ⴢ	cut_oo_stereo_44KHz.wav
0	20	1	1	1	C	1	1	842	1	Ⴢ	cut_eeuw_stereo_44KHz.wav
0	21	1	1	1	C	1	1	900	1	Ⴢ	cut_eeuw_stereo_44KHz.wav
0	22	2	4	0	C	2	1	749	1	Ⴋ	cut_ee_stereo_44KHz.wav
0	23	2	3	1	C	1	1	848	1	Ⴋ	cut_g_stereo_44KHz.wav
0	24	1	2	0	C	2	1	591	1	Ⴢ	cut_oo_stereo_44KHz.wav
0	25	1	2	0	C	2	1	848	1	Ⴢ	cut_oo_stereo_44KHz.wav
0	26	1	1	1	C	1	1	681	1	Ⴢ	cut_eeuw_stereo_44KHz.wav
0	27	2	3	1	C	1	1	920	1	Ⴋ	cut_g_stereo_44KHz.wav
0	28	2	4	0	C	2	1	566	1	Ⴋ	cut_ee_stereo_44KHz.wav
0	29	2	4	0	C	2	1	998	1	Ⴋ	cut_ee_stereo_44KHz.wav
0	30	1	2	0	C	2	1	639	1	Ⴢ	cut_oo_stereo_44KHz.wav
avg_resp = 810
1	1	2	2	1	C	2	0	1167	0	Ⴐ	cut_s_stereo_44KHz.wav
1	2	4	4	2	I	2	0	752	1	Ⴕ	cut_f_stereo_44KHz.wav
1	3	1	1	1	C	2	0	589	0	Ⴖ	cut_ei_stereo_44KHz.wav
1	4	3	3	2	I	2	0	662	1	Ⴔ	cut_j_stereo_44KHz.wav
1	5	1	2	0	C	1	0	897	0	Ⴖ	cut_s_stereo_44KHz.wav
1	6	2	1	0	C	2	1	871	1	Ⴐ	cut_ei_stereo_44KHz.wav
1	7	4	3	2	I	2	0	726	1	Ⴕ	cut_j_stereo_44KHz.wav
1	8	3	4	2	I	2	0	952	1	Ⴔ	cut_f_stereo_44KHz.wav
1	9	4	4	2	I	1	0	712	1	Ⴕ	cut_f_stereo_44KHz.wav
1	10	1	2	0	C	2	1	928	1	Ⴖ	cut_s_stereo_44KHz.wav
1	11	3	4	2	I	2	0	574	1	Ⴔ	cut_f_stereo_44KHz.wav
1	12	2	1	0	C	1	0	854	0	Ⴐ	cut_ei_stereo_44KHz.wav
1	13	3	3	2	I	2	0	542	1	Ⴔ	cut_j_stereo_44KHz.wav
1	14	2	2	1	C	1	1	952	1	Ⴐ	cut_s_stereo_44KHz.wav
1	15	1	1	1	C	1	1	601	1	Ⴖ	cut_ei_stereo_44KHz.wav
1	16	4	3	2	I	2	0	761	1	Ⴕ	cut_j_stereo_44KHz.wav
1	17	2	1	0	C	2	1	797	1	Ⴐ	cut_ei_stereo_44KHz.wav
1	18	3	3	2	I	2	0	584	0	Ⴔ	cut_j_stereo_44KHz.wav
1	19	1	1	1	C	1	1	885	1	Ⴖ	cut_ei_stereo_44KHz.wav
1	20	4	4	2	I	1	0	980	0	Ⴕ	cut_f_stereo_44KHz.wav
1	21	3	4	2	I	2	0	640	0	Ⴔ	cut_f_stereo_44KHz.wav
1	22	1	2	0	C	2	1	688	1	Ⴖ	cut_s_stereo_44KHz.wav
1	23	2	2	1	C	1	1	983	1	Ⴐ	cut_s_stereo_44KHz.wav
1	24	4	3	2	I	2	0	1015	1	Ⴕ	cut_j_stereo_44KHz.wav
1	25	3	3	2	I	1	0	768	0	Ⴔ	cut_j_stereo_44KHz.wav
1	26	4	3	2	I	2	0	820	1	Ⴕ	cut_j_stereo_44KHz.wav
1	27	2	1	0	C	2	1	696	1	Ⴐ	cut_ei_stereo_44KHz.wav
1	28	1	2	0	C	2	1	692	1	Ⴖ	cut_s_stereo_44KHz.wav
1	29	2	2	1	C	1	1	1029	1	Ⴐ	cut_s_stereo_44KHz.wav
1	30	1	1	1	C	1	1	948	1	Ⴖ	cut_ei_stereo_44KHz.wav
1	31	4	4	2	I	2	0	896	1	Ⴕ	cut_f_stereo_44KHz.wav
1	32	3	4	2	I	2	0	699	0	Ⴔ	cut_f_stereo_44KHz.wav
1	33	4	3	2	I	2	0	656	1	Ⴕ	cut_j_stereo_44KHz.wav
1	34	1	1	1	C	2	0	553	0	Ⴖ	cut_ei_stereo_44KHz.wav
1	35	2	2	1	C	1	1	660	1	Ⴐ	cut_s_stereo_44KHz.wav
1	36	3	4	2	I	1	0	1010	1	Ⴔ	cut_f_stereo_44KHz.wav
1	37	2	1	0	C	2	1	539	1	Ⴐ	cut_ei_stereo_44KHz.wav
1	38	1	2	0	C	2	1	581	1	Ⴖ	cut_s_stereo_44KHz.wav
1	39	4	4	2	I	2	0	758	0	Ⴕ	cut_f_stereo_44KHz.wav
1	40	3	3	2	I	2	0	653	0	Ⴔ	cut_j_stereo_44KHz.wav
1	41	4	4	2	I	2	0	564	0	Ⴕ	cut_f_stereo_44KHz.wav
1	42	1	1	1	C	1	1	787	1	Ⴖ	cut_ei_stereo_44KHz.wav
1	43	3	4	2	I	1	0	989	0	Ⴔ	cut_f_stereo_44KHz.wav
1	44	2	2	1	C	1	1	690	1	Ⴐ	cut_s_stereo_44KHz.wav
1	45	3	3	2	I	1	0	1032	0	Ⴔ	cut_j_stereo_44KHz.wav
1	46	2	1	0	C	2	1	540	1	Ⴐ	cut_ei_stereo_44KHz.wav
1	47	1	2	0	C	2	1	820	1	Ⴖ	cut_s_stereo_44KHz.wav
1	48	4	3	2	I	2	0	705	1	Ⴕ	cut_j_stereo_44KHz.wav
1	49	3	4	2	I	1	0	873	1	Ⴔ	cut_f_stereo_44KHz.wav
1	50	4	3	2	I	2	0	675	0	Ⴕ	cut_j_stereo_44KHz.wav
1	51	2	1	0	C	2	1	621	1	Ⴐ	cut_ei_stereo_44KHz.wav
1	52	1	2	0	C	2	1	576	1	Ⴖ	cut_s_stereo_44KHz.wav
1	53	3	3	2	I	2	0	1019	1	Ⴔ	cut_j_stereo_44KHz.wav
1	54	4	4	2	I	2	0	770	0	Ⴕ	cut_f_stereo_44KHz.wav
1	55	1	1	1	C	1	1	792	1	Ⴖ	cut_ei_stereo_44KHz.wav
1	56	2	2	1	C	1	1	873	1	Ⴐ	cut_s_stereo_44KHz.wav
1	57	4	4	2	I	2	0	673	0	Ⴕ	cut_f_stereo_44KHz.wav
1	58	2	1	0	C	2	1	852	1	Ⴐ	cut_ei_stereo_44KHz.wav
1	59	3	4	2	I	1	0	853	0	Ⴔ	cut_f_stereo_44KHz.wav
1	60	1	1	1	C	1	1	857	1	Ⴖ	cut_ei_stereo_44KHz.wav
1	61	2	2	1	C	1	1	714	1	Ⴐ	cut_s_stereo_44KHz.wav
1	62	1	2	0	C	2	1	751	1	Ⴖ	cut_s_stereo_44KHz.wav
1	63	3	3	2	I	2	0	714	1	Ⴔ	cut_j_stereo_44KHz.wav
1	64	4	3	2	I	1	0	790	0	Ⴕ	cut_j_stereo_44KHz.wav
1	65	2	2	1	C	1	1	974	1	Ⴐ	cut_s_stereo_44KHz.wav
1	66	1	2	0	C	2	1	715	1	Ⴖ	cut_s_stereo_44KHz.wav
1	67	4	4	2	I	1	0	1076	0	Ⴕ	cut_f_stereo_44KHz.wav
1	68	3	4	2	I	2	0	762	1	Ⴔ	cut_f_stereo_44KHz.wav
1	69	2	1	0	C	2	1	565	1	Ⴐ	cut_ei_stereo_44KHz.wav
1	70	1	1	1	C	1	1	690	1	Ⴖ	cut_ei_stereo_44KHz.wav
1	71	4	3	2	I	1	0	1034	0	Ⴕ	cut_j_stereo_44KHz.wav
1	72	3	3	2	I	2	0	1053	0	Ⴔ	cut_j_stereo_44KHz.wav
1	73	1	2	0	C	2	1	597	1	Ⴖ	cut_s_stereo_44KHz.wav
1	74	2	2	1	C	1	1	1187	1	Ⴐ	cut_s_stereo_44KHz.wav
1	75	3	4	2	I	1	0	1079	0	Ⴔ	cut_f_stereo_44KHz.wav
1	76	4	4	2	I	1	0	937	1	Ⴕ	cut_f_stereo_44KHz.wav
1	77	2	1	0	C	2	1	547	1	Ⴐ	cut_ei_stereo_44KHz.wav
1	78	3	3	2	I	1	0	791	0	Ⴔ	cut_j_stereo_44KHz.wav
1	79	1	1	1	C	1	1	737	1	Ⴖ	cut_ei_stereo_44KHz.wav
1	80	4	3	2	I	2	0	763	0	Ⴕ	cut_j_stereo_44KHz.wav
1	81	1	1	1	C	1	1	717	1	Ⴖ	cut_ei_stereo_44KHz.wav
1	82	3	4	2	I	1	0	796	1	Ⴔ	cut_f_stereo_44KHz.wav
1	83	2	1	0	C	2	1	568	1	Ⴐ	cut_ei_stereo_44KHz.wav
1	84	4	4	2	I	1	0	779	0	Ⴕ	cut_f_stereo_44KHz.wav
1	85	1	2	0	C	2	1	544	1	Ⴖ	cut_s_stereo_44KHz.wav
1	86	2	2	1	C	1	1	747	1	Ⴐ	cut_s_stereo_44KHz.wav
1	87	4	3	2	I	1	0	1185	1	Ⴕ	cut_j_stereo_44KHz.wav
1	88	3	3	2	I	2	0	759	1	Ⴔ	cut_j_stereo_44KHz.wav
1	89	1	1	1	C	1	1	773	1	Ⴖ	cut_ei_stereo_44KHz.wav
1	90	4	4	2	I	2	0	1064	0	Ⴕ	cut_f_stereo_44KHz.wav
1	91	3	3	2	I	2	0	875	1	Ⴔ	cut_j_stereo_44KHz.wav
1	92	2	2	1	C	1	1	699	1	Ⴐ	cut_s_stereo_44KHz.wav
1	93	4	3	2	I	2	0	710	0	Ⴕ	cut_j_stereo_44KHz.wav
1	94	3	4	2	I	2	0	720	0	Ⴔ	cut_f_stereo_44KHz.wav
1	95	1	2	0	C	2	1	881	1	Ⴖ	cut_s_stereo_44KHz.wav
1	96	2	1	0	C	2	1	966	1	Ⴐ	cut_ei_stereo_44KHz.wav
1	97	1	2	0	C	2	1	537	1	Ⴖ	cut_s_stereo_44KHz.wav
1	98	3	4	2	I	2	0	542	1	Ⴔ	cut_f_stereo_44KHz.wav
1	99	2	2	1	C	1	1	690	1	Ⴐ	cut_s_stereo_44KHz.wav
1	100	4	4	2	I	2	0	967	0	Ⴕ	cut_f_stereo_44KHz.wav
1	101	2	1	0	C	2	1	531	1	Ⴐ	cut_ei_stereo_44KHz.wav
1	102	1	1	1	C	1	1	719	1	Ⴖ	cut_ei_stereo_44KHz.wav
1	103	4	3	2	I	2	0	753	0	Ⴕ	cut_j_stereo_44KHz.wav
1	104	3	3	2	I	2	0	709	1	Ⴔ	cut_j_stereo_44KHz.wav
1	105	2	2	1	C	1	1	896	1	Ⴐ	cut_s_stereo_44KHz.wav
1	106	3	3	2	I	2	0	832	1	Ⴔ	cut_j_stereo_44KHz.wav
1	107	4	3	2	I	2	0	1001	0	Ⴕ	cut_j_stereo_44KHz.wav
1	108	1	1	1	C	1	1	602	1	Ⴖ	cut_ei_stereo_44KHz.wav
1	109	3	4	2	I	1	0	923	1	Ⴔ	cut_f_stereo_44KHz.wav
1	110	1	2	0	C	2	1	682	1	Ⴖ	cut_s_stereo_44KHz.wav
1	111	2	1	0	C	2	1	594	1	Ⴐ	cut_ei_stereo_44KHz.wav
1	112	4	4	2	I	1	0	968	1	Ⴕ	cut_f_stereo_44KHz.wav
1	113	3	3	2	I	2	0	744	1	Ⴔ	cut_j_stereo_44KHz.wav
1	114	1	1	1	C	2	0	615	0	Ⴖ	cut_ei_stereo_44KHz.wav
1	115	2	2	1	C	1	1	661	1	Ⴐ	cut_s_stereo_44KHz.wav
1	116	4	4	2	I	1	0	1141	1	Ⴕ	cut_f_stereo_44KHz.wav
1	117	2	1	0	C	2	1	528	1	Ⴐ	cut_ei_stereo_44KHz.wav
1	118	4	3	2	I	2	0	762	1	Ⴕ	cut_j_stereo_44KHz.wav
1	119	1	2	0	C	2	1	718	1	Ⴖ	cut_s_stereo_44KHz.wav
1	120	3	4	2	I	1	0	797	0	Ⴔ	cut_f_stereo_44KHz.wav
1	121	4	3	2	I	1	0	751	0	Ⴕ	cut_j_stereo_44KHz.wav
1	122	1	1	1	C	1	1	655	1	Ⴖ	cut_ei_stereo_44KHz.wav
1	123	2	1	0	C	2	1	553	1	Ⴐ	cut_ei_stereo_44KHz.wav
1	124	3	3	2	I	2	0	871	0	Ⴔ	cut_j_stereo_44KHz.wav
1	125	2	2	1	C	1	1	995	1	Ⴐ	cut_s_stereo_44KHz.wav
1	126	1	2	0	C	2	1	642	1	Ⴖ	cut_s_stereo_44KHz.wav
1	127	3	4	2	I	2	0	997	0	Ⴔ	cut_f_stereo_44KHz.wav
1	128	4	4	2	I	1	0	878	0	Ⴕ	cut_f_stereo_44KHz.wav
1	129	1	2	0	C	2	1	729	1	Ⴖ	cut_s_stereo_44KHz.wav
1	130	2	2	1	C	1	1	1158	1	Ⴐ	cut_s_stereo_44KHz.wav
1	131	3	4	2	I	2	0	908	0	Ⴔ	cut_f_stereo_44KHz.wav
1	132	4	3	2	I	1	0	787	1	Ⴕ	cut_j_stereo_44KHz.wav
1	133	2	1	0	C	2	1	618	1	Ⴐ	cut_ei_stereo_44KHz.wav
1	134	1	1	1	C	1	1	1000	1	Ⴖ	cut_ei_stereo_44KHz.wav
1	135	3	3	2	I	2	0	912	0	Ⴔ	cut_j_stereo_44KHz.wav
1	136	4	4	2	I	1	0	1074	1	Ⴕ	cut_f_stereo_44KHz.wav
1	137	3	3	2	I	2	0	682	1	Ⴔ	cut_j_stereo_44KHz.wav
1	138	1	1	1	C	1	1	755	1	Ⴖ	cut_ei_stereo_44KHz.wav
1	139	2	1	0	C	2	1	682	1	Ⴐ	cut_ei_stereo_44KHz.wav
1	140	4	4	2	I	1	0	1232	0	Ⴕ	cut_f_stereo_44KHz.wav
1	141	3	4	2	I	2	0	685	1	Ⴔ	cut_f_stereo_44KHz.wav
1	142	4	3	2	I	1	0	762	0	Ⴕ	cut_j_stereo_44KHz.wav
1	143	2	2	1	C	1	1	897	1	Ⴐ	cut_s_stereo_44KHz.wav
1	144	1	2	0	C	2	1	691	1	Ⴖ	cut_s_stereo_44KHz.wav
1	145	2	2	1	C	1	1	956	1	Ⴐ	cut_s_stereo_44KHz.wav
1	146	3	3	2	I	2	0	1254	0	Ⴔ	cut_j_stereo_44KHz.wav
1	147	4	3	2	I	2	0	989	1	Ⴕ	cut_j_stereo_44KHz.wav
1	148	1	1	1	C	1	1	930	1	Ⴖ	cut_ei_stereo_44KHz.wav
1	149	3	4	2	I	2	0	1617	0	Ⴔ	cut_f_stereo_44KHz.wav
1	150	1	2	0	C	2	1	931	1	Ⴖ	cut_s_stereo_44KHz.wav
1	151	4	4	2	I	2	0	842	1	Ⴕ	cut_f_stereo_44KHz.wav
1	152	2	1	0	C	2	1	701	1	Ⴐ	cut_ei_stereo_44KHz.wav
1	153	1	1	1	C	1	1	806	1	Ⴖ	cut_ei_stereo_44KHz.wav
1	154	3	3	2	I	1	0	1062	0	Ⴔ	cut_j_stereo_44KHz.wav
1	155	4	3	2	I	2	0	1309	0	Ⴕ	cut_j_stereo_44KHz.wav
1	156	2	1	0	C	2	1	623	1	Ⴐ	cut_ei_stereo_44KHz.wav
1	157	3	4	2	I	2	0	1446	0	Ⴔ	cut_f_stereo_44KHz.wav
1	158	2	2	1	C	1	1	1030	1	Ⴐ	cut_s_stereo_44KHz.wav
1	159	4	4	2	I	2	0	1139	1	Ⴕ	cut_f_stereo_44KHz.wav
1	160	1	2	0	C	2	1	557	1	Ⴖ	cut_s_stereo_44KHz.wav
1	161	3	4	2	I	2	0	1247	0	Ⴔ	cut_f_stereo_44KHz.wav
1	162	4	4	2	I	2	0	627	0	Ⴕ	cut_f_stereo_44KHz.wav
1	163	2	2	1	C	1	1	944	1	Ⴐ	cut_s_stereo_44KHz.wav
1	164	1	1	1	C	1	1	885	1	Ⴖ	cut_ei_stereo_44KHz.wav
1	165	2	1	0	C	2	1	691	1	Ⴐ	cut_ei_stereo_44KHz.wav
1	166	3	3	2	I	2	0	1063	1	Ⴔ	cut_j_stereo_44KHz.wav
1	167	4	3	2	I	2	0	1065	0	Ⴕ	cut_j_stereo_44KHz.wav
1	168	1	2	0	C	2	1	628	1	Ⴖ	cut_s_stereo_44KHz.wav
1	169	4	4	2	I	0	0	0	0	Ⴕ	cut_f_stereo_44KHz.wav
1	170	2	2	1	C	1	1	807	1	Ⴐ	cut_s_stereo_44KHz.wav
1	171	1	1	1	C	1	1	800	1	Ⴖ	cut_ei_stereo_44KHz.wav
1	172	3	3	2	I	2	0	1237	0	Ⴔ	cut_j_stereo_44KHz.wav
1	173	2	1	0	C	2	1	655	1	Ⴐ	cut_ei_stereo_44KHz.wav
1	174	3	4	2	I	2	0	960	1	Ⴔ	cut_f_stereo_44KHz.wav
1	175	1	2	0	C	2	1	561	1	Ⴖ	cut_s_stereo_44KHz.wav
1	176	4	3	2	I	2	0	793	1	Ⴕ	cut_j_stereo_44KHz.wav
1	177	3	4	2	I	2	0	618	1	Ⴔ	cut_f_stereo_44KHz.wav
1	178	4	4	2	I	2	0	637	1	Ⴕ	cut_f_stereo_44KHz.wav
1	179	2	2	1	C	1	1	736	1	Ⴐ	cut_s_stereo_44KHz.wav
1	180	1	2	0	C	2	1	600	1	Ⴖ	cut_s_stereo_44KHz.wav
1	181	3	3	2	I	1	0	1488	1	Ⴔ	cut_j_stereo_44KHz.wav
1	182	1	1	1	C	2	0	445	0	Ⴖ	cut_ei_stereo_44KHz.wav
1	183	4	3	2	I	2	0	694	0	Ⴕ	cut_j_stereo_44KHz.wav
1	184	2	1	0	C	2	1	608	1	Ⴐ	cut_ei_stereo_44KHz.wav
1	185	1	1	1	C	1	1	781	1	Ⴖ	cut_ei_stereo_44KHz.wav
1	186	3	4	2	I	2	0	845	0	Ⴔ	cut_f_stereo_44KHz.wav
1	187	2	1	0	C	2	1	621	1	Ⴐ	cut_ei_stereo_44KHz.wav
1	188	4	3	2	I	2	0	1059	1	Ⴕ	cut_j_stereo_44KHz.wav
1	189	1	2	0	C	2	1	717	1	Ⴖ	cut_s_stereo_44KHz.wav
1	190	3	3	2	I	2	0	1032	1	Ⴔ	cut_j_stereo_44KHz.wav
1	191	2	2	1	C	1	1	811	1	Ⴐ	cut_s_stereo_44KHz.wav
1	192	4	4	2	I	2	0	794	1	Ⴕ	cut_f_stereo_44KHz.wav
1	193	1	2	0	C	2	1	791	1	Ⴖ	cut_s_stereo_44KHz.wav
1	194	2	2	1	C	1	1	765	1	Ⴐ	cut_s_stereo_44KHz.wav
1	195	4	3	2	I	1	0	1178	0	Ⴕ	cut_j_stereo_44KHz.wav
1	196	3	3	2	I	2	0	709	1	Ⴔ	cut_j_stereo_44KHz.wav
1	197	2	1	0	C	2	1	718	1	Ⴐ	cut_ei_stereo_44KHz.wav
1	198	1	1	1	C	1	1	909	1	Ⴖ	cut_ei_stereo_44KHz.wav
1	199	4	4	2	I	2	0	696	1	Ⴕ	cut_f_stereo_44KHz.wav
1	200	3	4	2	I	2	0	600	0	Ⴔ	cut_f_stereo_44KHz.wav
2	1	3	3	2	I	0	0	0	0	Ⴜ	cut_oei_stereo_44KHz.wav
2	2	2	1	0	C	2	1	717	1	Ⴂ	cut_r_stereo_44KHz.wav
2	3	1	2	0	C	2	1	819	1	Ⴇ	cut_n_stereo_44KHz.wav
2	4	4	4	2	I	2	0	757	0	Ⴡ	cut_ui_stereo_44KHz.wav
2	5	1	1	1	C	1	1	1268	1	Ⴇ	cut_r_stereo_44KHz.wav
2	6	4	3	2	I	1	0	1265	1	Ⴡ	cut_oei_stereo_44KHz.wav
2	7	3	4	2	I	1	0	988	0	Ⴜ	cut_ui_stereo_44KHz.wav
2	8	2	2	1	C	1	1	1255	1	Ⴂ	cut_n_stereo_44KHz.wav
2	9	3	3	2	I	1	0	1067	0	Ⴜ	cut_oei_stereo_44KHz.wav
2	10	4	3	2	I	1	0	921	0	Ⴡ	cut_oei_stereo_44KHz.wav
2	11	1	2	0	C	1	0	1248	0	Ⴇ	cut_n_stereo_44KHz.wav
2	12	2	2	1	C	1	1	846	1	Ⴂ	cut_n_stereo_44KHz.wav
2	13	1	1	1	C	1	1	908	1	Ⴇ	cut_r_stereo_44KHz.wav
2	14	3	4	2	I	2	0	932	1	Ⴜ	cut_ui_stereo_44KHz.wav
2	15	4	4	2	I	1	0	625	1	Ⴡ	cut_ui_stereo_44KHz.wav
2	16	2	1	0	C	2	1	920	1	Ⴂ	cut_r_stereo_44KHz.wav
2	17	1	2	0	C	1	0	798	0	Ⴇ	cut_n_stereo_44KHz.wav
2	18	4	3	2	I	2	0	1059	0	Ⴡ	cut_oei_stereo_44KHz.wav
2	19	2	2	1	C	1	1	883	1	Ⴂ	cut_n_stereo_44KHz.wav
2	20	3	4	2	I	2	0	1095	0	Ⴜ	cut_ui_stereo_44KHz.wav
2	21	4	4	2	I	1	0	890	0	Ⴡ	cut_ui_stereo_44KHz.wav
2	22	2	1	0	C	2	1	562	1	Ⴂ	cut_r_stereo_44KHz.wav
2	23	3	3	2	I	2	0	764	0	Ⴜ	cut_oei_stereo_44KHz.wav
2	24	1	1	1	C	1	1	875	1	Ⴇ	cut_r_stereo_44KHz.wav
2	25	4	4	2	I	1	0	690	1	Ⴡ	cut_ui_stereo_44KHz.wav
2	26	3	4	2	I	1	0	867	0	Ⴜ	cut_ui_stereo_44KHz.wav
2	27	1	2	0	C	2	1	1168	1	Ⴇ	cut_n_stereo_44KHz.wav
2	28	2	2	1	C	1	1	669	1	Ⴂ	cut_n_stereo_44KHz.wav
2	29	4	3	2	I	1	0	714	1	Ⴡ	cut_oei_stereo_44KHz.wav
2	30	3	3	2	I	2	0	794	0	Ⴜ	cut_oei_stereo_44KHz.wav
2	31	2	1	0	C	2	1	657	1	Ⴂ	cut_r_stereo_44KHz.wav
2	32	1	1	1	C	1	1	793	1	Ⴇ	cut_r_stereo_44KHz.wav
2	33	2	1	0	C	2	1	566	1	Ⴂ	cut_r_stereo_44KHz.wav
2	34	4	4	2	I	1	0	1011	1	Ⴡ	cut_ui_stereo_44KHz.wav
2	35	3	4	2	I	2	0	1259	1	Ⴜ	cut_ui_stereo_44KHz.wav
2	36	1	2	0	C	2	1	754	1	Ⴇ	cut_n_stereo_44KHz.wav
2	37	3	3	2	I	2	0	959	1	Ⴜ	cut_oei_stereo_44KHz.wav
2	38	4	3	2	I	1	0	990	1	Ⴡ	cut_oei_stereo_44KHz.wav
2	39	2	2	1	C	1	1	664	1	Ⴂ	cut_n_stereo_44KHz.wav
2	40	1	1	1	C	2	0	903	0	Ⴇ	cut_r_stereo_44KHz.wav
2	41	2	1	0	C	2	1	612	1	Ⴂ	cut_r_stereo_44KHz.wav
2	42	3	4	2	I	1	0	1282	0	Ⴜ	cut_ui_stereo_44KHz.wav
2	43	4	4	2	I	1	0	853	0	Ⴡ	cut_ui_stereo_44KHz.wav
2	44	1	1	1	C	1	1	883	1	Ⴇ	cut_r_stereo_44KHz.wav
2	45	3	3	2	I	2	0	1148	0	Ⴜ	cut_oei_stereo_44KHz.wav
2	46	4	3	2	I	2	0	318	1	Ⴡ	cut_oei_stereo_44KHz.wav
2	47	1	2	0	C	1	0	759	0	Ⴇ	cut_n_stereo_44KHz.wav
2	48	2	2	1	C	1	1	839	1	Ⴂ	cut_n_stereo_44KHz.wav
2	49	3	3	2	I	2	0	801	1	Ⴜ	cut_oei_stereo_44KHz.wav
2	50	1	2	0	C	2	1	956	1	Ⴇ	cut_n_stereo_44KHz.wav
2	51	2	2	1	C	1	1	795	1	Ⴂ	cut_n_stereo_44KHz.wav
2	52	4	4	2	I	1	0	1438	0	Ⴡ	cut_ui_stereo_44KHz.wav
2	53	2	1	0	C	2	1	917	1	Ⴂ	cut_r_stereo_44KHz.wav
2	54	4	3	2	I	2	0	887	1	Ⴡ	cut_oei_stereo_44KHz.wav
2	55	3	4	2	I	2	0	983	0	Ⴜ	cut_ui_stereo_44KHz.wav
2	56	1	1	1	C	1	1	1297	1	Ⴇ	cut_r_stereo_44KHz.wav
2	57	4	3	2	I	2	0	758	0	Ⴡ	cut_oei_stereo_44KHz.wav
2	58	3	3	2	I	2	0	1137	1	Ⴜ	cut_oei_stereo_44KHz.wav
2	59	2	2	1	C	1	1	843	1	Ⴂ	cut_n_stereo_44KHz.wav
2	60	1	1	1	C	1	1	1225	1	Ⴇ	cut_r_stereo_44KHz.wav
2	61	3	4	2	I	2	0	1035	0	Ⴜ	cut_ui_stereo_44KHz.wav
2	62	4	4	2	I	2	0	788	1	Ⴡ	cut_ui_stereo_44KHz.wav
2	63	1	2	0	C	1	0	1535	0	Ⴇ	cut_n_stereo_44KHz.wav
2	64	2	1	0	C	2	1	561	1	Ⴂ	cut_r_stereo_44KHz.wav
2	65	3	3	2	I	1	0	1104	1	Ⴜ	cut_oei_stereo_44KHz.wav
2	66	2	1	0	C	2	1	541	1	Ⴂ	cut_r_stereo_44KHz.wav
2	67	4	3	2	I	1	0	826	1	Ⴡ	cut_oei_stereo_44KHz.wav
2	68	1	2	0	C	1	0	1266	0	Ⴇ	cut_n_stereo_44KHz.wav
2	69	2	2	1	C	1	1	719	1	Ⴂ	cut_n_stereo_44KHz.wav
2	70	3	4	2	I	2	0	860	1	Ⴜ	cut_ui_stereo_44KHz.wav
2	71	1	1	1	C	1	1	848	1	Ⴇ	cut_r_stereo_44KHz.wav
2	72	4	4	2	I	1	0	902	1	Ⴡ	cut_ui_stereo_44KHz.wav
2	73	2	2	1	C	1	1	799	1	Ⴂ	cut_n_stereo_44KHz.wav
2	74	1	1	1	C	1	1	829	1	Ⴇ	cut_r_stereo_44KHz.wav
2	75	4	3	2	I	1	0	801	0	Ⴡ	cut_oei_stereo_44KHz.wav
2	76	3	3	2	I	2	0	933	1	Ⴜ	cut_oei_stereo_44KHz.wav
2	77	1	2	0	C	1	0	803	0	Ⴇ	cut_n_stereo_44KHz.wav
2	78	4	4	2	I	1	0	1370	0	Ⴡ	cut_ui_stereo_44KHz.wav
2	79	3	4	2	I	2	0	647	1	Ⴜ	cut_ui_stereo_44KHz.wav
2	80	2	1	0	C	2	1	735	1	Ⴂ	cut_r_stereo_44KHz.wav
2	81	1	1	1	C	1	1	1340	1	Ⴇ	cut_r_stereo_44KHz.wav
2	82	3	4	2	I	1	0	1436	0	Ⴜ	cut_ui_stereo_44KHz.wav
2	83	2	2	1	C	1	1	923	1	Ⴂ	cut_n_stereo_44KHz.wav
2	84	4	3	2	I	2	0	1203	0	Ⴡ	cut_oei_stereo_44KHz.wav
2	85	1	2	0	C	2	1	1093	1	Ⴇ	cut_n_stereo_44KHz.wav
2	86	4	4	2	I	2	0	1097	0	Ⴡ	cut_ui_stereo_44KHz.wav
2	87	2	1	0	C	2	1	588	1	Ⴂ	cut_r_stereo_44KHz.wav
2	88	3	3	2	I	2	0	1072	1	Ⴜ	cut_oei_stereo_44KHz.wav
2	89	1	1	1	C	1	1	1101	1	Ⴇ	cut_r_stereo_44KHz.wav
2	90	2	2	1	C	1	1	853	1	Ⴂ	cut_n_stereo_44KHz.wav
2	91	4	4	2	I	1	0	1080	1	Ⴡ	cut_ui_stereo_44KHz.wav
2	92	3	3	2	I	2	0	1218	1	Ⴜ	cut_oei_stereo_44KHz.wav
2	93	4	3	2	I	1	0	863	1	Ⴡ	cut_oei_stereo_44KHz.wav
2	94	3	4	2	I	1	0	1316	0	Ⴜ	cut_ui_stereo_44KHz.wav
2	95	2	1	0	C	2	1	1313	1	Ⴂ	cut_r_stereo_44KHz.wav
2	96	1	2	0	C	2	1	593	1	Ⴇ	cut_n_stereo_44KHz.wav
2	97	4	4	2	I	1	0	1151	1	Ⴡ	cut_ui_stereo_44KHz.wav
2	98	2	1	0	C	2	1	591	1	Ⴂ	cut_r_stereo_44KHz.wav
2	99	1	2	0	C	2	1	1296	1	Ⴇ	cut_n_stereo_44KHz.wav
2	100	3	4	2	I	2	0	970	0	Ⴜ	cut_ui_stereo_44KHz.wav
2	101	2	2	1	C	2	0	603	0	Ⴂ	cut_n_stereo_44KHz.wav
2	102	3	3	2	I	2	0	856	1	Ⴜ	cut_oei_stereo_44KHz.wav
2	103	4	3	2	I	1	0	756	1	Ⴡ	cut_oei_stereo_44KHz.wav
2	104	1	1	1	C	1	1	921	1	Ⴇ	cut_r_stereo_44KHz.wav
2	105	4	3	2	I	1	0	1068	1	Ⴡ	cut_oei_stereo_44KHz.wav
2	106	3	4	2	I	1	0	1058	1	Ⴜ	cut_ui_stereo_44KHz.wav
2	107	2	1	0	C	2	1	726	1	Ⴂ	cut_r_stereo_44KHz.wav
2	108	1	2	0	C	2	1	664	1	Ⴇ	cut_n_stereo_44KHz.wav
2	109	3	3	2	I	2	0	1244	1	Ⴜ	cut_oei_stereo_44KHz.wav
2	110	2	2	1	C	1	1	908	1	Ⴂ	cut_n_stereo_44KHz.wav
2	111	4	4	2	I	1	0	803	0	Ⴡ	cut_ui_stereo_44KHz.wav
2	112	1	1	1	C	1	1	1187	1	Ⴇ	cut_r_stereo_44KHz.wav
2	113	2	2	1	C	1	1	731	1	Ⴂ	cut_n_stereo_44KHz.wav
2	114	4	4	2	I	2	0	1447	1	Ⴡ	cut_ui_stereo_44KHz.wav
2	115	1	2	0	C	2	1	712	1	Ⴇ	cut_n_stereo_44KHz.wav
2	116	3	4	2	I	2	0	1556	0	Ⴜ	cut_ui_stereo_44KHz.wav
2	117	4	3	2	I	2	0	850	0	Ⴡ	cut_oei_stereo_44KHz.wav
2	118	3	3	2	I	2	0	968	1	Ⴜ	cut_oei_stereo_44KHz.wav
2	119	2	1	0	C	2	1	996	1	Ⴂ	cut_r_stereo_44KHz.wav
2	120	1	1	1	C	1	1	689	1	Ⴇ	cut_r_stereo_44KHz.wav
2	121	3	3	2	I	2	0	1062	1	Ⴜ	cut_oei_stereo_44KHz.wav
2	122	4	3	2	I	1	0	739	0	Ⴡ	cut_oei_stereo_44KHz.wav
2	123	1	1	1	C	1	1	1021	1	Ⴇ	cut_r_stereo_44KHz.wav
2	124	2	2	1	C	1	1	775	1	Ⴂ	cut_n_stereo_44KHz.wav
2	125	3	4	2	I	2	0	940	0	Ⴜ	cut_ui_stereo_44KHz.wav
2	126	2	1	0	C	2	1	646	1	Ⴂ	cut_r_stereo_44KHz.wav
2	127	4	4	2	I	1	0	815	0	Ⴡ	cut_ui_stereo_44KHz.wav
2	128	1	2	0	C	2	1	834	1	Ⴇ	cut_n_stereo_44KHz.wav
2	129	2	1	0	C	2	1	619	1	Ⴂ	cut_r_stereo_44KHz.wav
2	130	1	1	1	C	1	1	842	1	Ⴇ	cut_r_stereo_44KHz.wav
2	131	4	3	2	I	2	0	1268	0	Ⴡ	cut_oei_stereo_44KHz.wav
2	132	3	4	2	I	2	0	1025	0	Ⴜ	cut_ui_stereo_44KHz.wav
2	133	4	4	2	I	2	0	800	0	Ⴡ	cut_ui_stereo_44KHz.wav
2	134	2	2	1	C	1	1	907	1	Ⴂ	cut_n_stereo_44KHz.wav
2	135	1	2	0	C	1	0	741	0	Ⴇ	cut_n_stereo_44KHz.wav
2	136	3	3	2	I	2	0	733	0	Ⴜ	cut_oei_stereo_44KHz.wav
2	137	2	1	0	C	2	1	597	1	Ⴂ	cut_r_stereo_44KHz.wav
2	138	3	4	2	I	2	0	1120	1	Ⴜ	cut_ui_stereo_44KHz.wav
2	139	1	1	1	C	1	1	979	1	Ⴇ	cut_r_stereo_44KHz.wav
2	140	4	3	2	I	2	0	1084	1	Ⴡ	cut_oei_stereo_44KHz.wav
2	141	3	3	2	I	2	0	880	0	Ⴜ	cut_oei_stereo_44KHz.wav
2	142	4	4	2	I	2	0	698	0	Ⴡ	cut_ui_stereo_44KHz.wav
2	143	2	2	1	C	1	1	823	1	Ⴂ	cut_n_stereo_44KHz.wav
2	144	1	2	0	C	2	1	823	1	Ⴇ	cut_n_stereo_44KHz.wav
2	145	3	4	2	I	2	0	763	1	Ⴜ	cut_ui_stereo_44KHz.wav
2	146	4	3	2	I	1	0	1510	1	Ⴡ	cut_oei_stereo_44KHz.wav
2	147	2	2	1	C	1	1	1008	1	Ⴂ	cut_n_stereo_44KHz.wav
2	148	1	2	0	C	2	1	907	1	Ⴇ	cut_n_stereo_44KHz.wav
2	149	3	3	2	I	2	0	744	0	Ⴜ	cut_oei_stereo_44KHz.wav
2	150	2	1	0	C	2	1	628	1	Ⴂ	cut_r_stereo_44KHz.wav
2	151	4	4	2	I	1	0	1039	0	Ⴡ	cut_ui_stereo_44KHz.wav
2	152	1	1	1	C	2	0	921	0	Ⴇ	cut_r_stereo_44KHz.wav
2	153	4	3	2	I	1	0	1146	0	Ⴡ	cut_oei_stereo_44KHz.wav
2	154	2	1	0	C	2	1	577	1	Ⴂ	cut_r_stereo_44KHz.wav
2	155	3	4	2	I	1	0	1417	0	Ⴜ	cut_ui_stereo_44KHz.wav
2	156	1	2	0	C	2	1	685	1	Ⴇ	cut_n_stereo_44KHz.wav
2	157	3	3	2	I	2	0	640	0	Ⴜ	cut_oei_stereo_44KHz.wav
2	158	1	1	1	C	1	1	884	1	Ⴇ	cut_r_stereo_44KHz.wav
2	159	2	2	1	C	1	1	813	1	Ⴂ	cut_n_stereo_44KHz.wav
2	160	4	4	2	I	1	0	1084	0	Ⴡ	cut_ui_stereo_44KHz.wav
2	161	2	1	0	C	2	1	626	1	Ⴂ	cut_r_stereo_44KHz.wav
2	162	1	1	1	C	1	1	705	1	Ⴇ	cut_r_stereo_44KHz.wav
2	163	3	4	2	I	1	0	970	1	Ⴜ	cut_ui_stereo_44KHz.wav
2	164	4	3	2	I	2	0	816	1	Ⴡ	cut_oei_stereo_44KHz.wav
2	165	3	3	2	I	1	0	781	1	Ⴜ	cut_oei_stereo_44KHz.wav
2	166	4	4	2	I	1	0	1303	1	Ⴡ	cut_ui_stereo_44KHz.wav
2	167	2	2	1	C	1	1	797	1	Ⴂ	cut_n_stereo_44KHz.wav
2	168	1	2	0	C	2	1	656	1	Ⴇ	cut_n_stereo_44KHz.wav
2	169	3	3	2	I	1	0	1416	0	Ⴜ	cut_oei_stereo_44KHz.wav
2	170	2	1	0	C	2	1	674	1	Ⴂ	cut_r_stereo_44KHz.wav
2	171	4	4	2	I	2	0	989	0	Ⴡ	cut_ui_stereo_44KHz.wav
2	172	1	2	0	C	2	1	745	1	Ⴇ	cut_n_stereo_44KHz.wav
2	173	3	4	2	I	2	0	768	0	Ⴜ	cut_ui_stereo_44KHz.wav
2	174	2	2	1	C	1	1	718	1	Ⴂ	cut_n_stereo_44KHz.wav
2	175	4	3	2	I	2	0	1516	0	Ⴡ	cut_oei_stereo_44KHz.wav
2	176	1	1	1	C	1	1	1027	1	Ⴇ	cut_r_stereo_44KHz.wav
2	177	2	1	0	C	2	1	731	1	Ⴂ	cut_r_stereo_44KHz.wav
2	178	1	1	1	C	1	1	731	1	Ⴇ	cut_r_stereo_44KHz.wav
2	179	3	4	2	I	2	0	919	1	Ⴜ	cut_ui_stereo_44KHz.wav
2	180	4	3	2	I	2	0	1797	0	Ⴡ	cut_oei_stereo_44KHz.wav
2	181	1	2	0	C	2	1	806	1	Ⴇ	cut_n_stereo_44KHz.wav
2	182	3	3	2	I	1	0	1237	0	Ⴜ	cut_oei_stereo_44KHz.wav
2	183	2	2	1	C	2	0	610	0	Ⴂ	cut_n_stereo_44KHz.wav
2	184	4	4	2	I	1	0	965	1	Ⴡ	cut_ui_stereo_44KHz.wav
2	185	3	3	2	I	1	0	1719	0	Ⴜ	cut_oei_stereo_44KHz.wav
2	186	2	2	1	C	1	1	768	1	Ⴂ	cut_n_stereo_44KHz.wav
2	187	4	3	2	I	2	0	1655	1	Ⴡ	cut_oei_stereo_44KHz.wav
2	188	1	2	0	C	2	1	1565	1	Ⴇ	cut_n_stereo_44KHz.wav
2	189	3	4	2	I	2	0	1027	1	Ⴜ	cut_ui_stereo_44KHz.wav
2	190	1	1	1	C	1	1	922	1	Ⴇ	cut_r_stereo_44KHz.wav
2	191	2	1	0	C	2	1	667	1	Ⴂ	cut_r_stereo_44KHz.wav
2	192	4	4	2	I	1	0	1000	1	Ⴡ	cut_ui_stereo_44KHz.wav
2	193	1	2	0	C	2	1	706	1	Ⴇ	cut_n_stereo_44KHz.wav
2	194	3	3	2	I	1	0	1317	1	Ⴜ	cut_oei_stereo_44KHz.wav
2	195	4	4	2	I	1	0	1465	1	Ⴡ	cut_ui_stereo_44KHz.wav
2	196	2	2	1	C	1	1	1301	1	Ⴂ	cut_n_stereo_44KHz.wav
2	197	1	1	1	C	1	1	990	1	Ⴇ	cut_r_stereo_44KHz.wav
2	198	3	4	2	I	2	0	826	1	Ⴜ	cut_ui_stereo_44KHz.wav
2	199	2	1	0	C	2	1	699	1	Ⴂ	cut_r_stereo_44KHz.wav
2	200	4	3	2	I	1	0	1564	0	Ⴡ	cut_oei_stereo_44KHz.wav
3	1	4	4	2	I	2	0	721	1	Ⴏ	cut_k_stereo_44KHz.wav
3	2	1	1	1	C	2	0	764	0	Ⴒ	cut_u_stereo_44KHz.wav
3	3	2	1	0	C	2	1	696	1	Ⴉ	cut_u_stereo_44KHz.wav
3	4	3	3	2	I	2	0	576	1	Ⴌ	cut_o_stereo_44KHz.wav
3	5	1	2	0	C	2	1	618	1	Ⴒ	cut_a_stereo_44KHz.wav
3	6	3	4	2	I	2	0	625	0	Ⴌ	cut_k_stereo_44KHz.wav
3	7	2	2	1	C	2	0	712	0	Ⴉ	cut_a_stereo_44KHz.wav
3	8	4	3	2	I	1	0	1171	0	Ⴏ	cut_o_stereo_44KHz.wav
3	9	2	1	0	C	2	1	673	1	Ⴉ	cut_u_stereo_44KHz.wav
3	10	1	1	1	C	1	1	644	1	Ⴒ	cut_u_stereo_44KHz.wav
3	11	3	3	2	I	1	0	634	1	Ⴌ	cut_o_stereo_44KHz.wav
3	12	4	4	2	I	1	0	736	1	Ⴏ	cut_k_stereo_44KHz.wav
3	13	3	4	2	I	1	0	614	0	Ⴌ	cut_k_stereo_44KHz.wav
3	14	1	2	0	C	2	1	772	1	Ⴒ	cut_a_stereo_44KHz.wav
3	15	2	2	1	C	1	1	644	1	Ⴉ	cut_a_stereo_44KHz.wav
3	16	4	3	2	I	1	0	511	1	Ⴏ	cut_o_stereo_44KHz.wav
3	17	1	1	1	C	2	0	1168	0	Ⴒ	cut_u_stereo_44KHz.wav
3	18	3	4	2	I	2	0	720	1	Ⴌ	cut_k_stereo_44KHz.wav
3	19	2	1	0	C	2	1	459	1	Ⴉ	cut_u_stereo_44KHz.wav
3	20	4	4	2	I	1	0	776	0	Ⴏ	cut_k_stereo_44KHz.wav
3	21	3	3	2	I	1	0	696	1	Ⴌ	cut_o_stereo_44KHz.wav
3	22	1	2	0	C	2	1	670	1	Ⴒ	cut_a_stereo_44KHz.wav
3	23	4	3	2	I	1	0	722	0	Ⴏ	cut_o_stereo_44KHz.wav
3	24	2	2	1	C	1	1	748	1	Ⴉ	cut_a_stereo_44KHz.wav
3	25	1	2	0	C	2	1	786	1	Ⴒ	cut_a_stereo_44KHz.wav
3	26	2	2	1	C	1	1	543	1	Ⴉ	cut_a_stereo_44KHz.wav
3	27	4	3	2	I	2	0	838	0	Ⴏ	cut_o_stereo_44KHz.wav
3	28	3	4	2	I	2	0	549	1	Ⴌ	cut_k_stereo_44KHz.wav
3	29	2	1	0	C	2	1	774	1	Ⴉ	cut_u_stereo_44KHz.wav
3	30	4	4	2	I	2	0	594	1	Ⴏ	cut_k_stereo_44KHz.wav
3	31	3	3	2	I	2	0	922	0	Ⴌ	cut_o_stereo_44KHz.wav
3	32	1	1	1	C	1	1	1025	1	Ⴒ	cut_u_stereo_44KHz.wav
3	33	4	3	2	I	2	0	827	1	Ⴏ	cut_o_stereo_44KHz.wav
3	34	1	1	1	C	1	1	792	1	Ⴒ	cut_u_stereo_44KHz.wav
3	35	2	2	1	C	1	1	847	1	Ⴉ	cut_a_stereo_44KHz.wav
3	36	3	3	2	I	2	0	753	1	Ⴌ	cut_o_stereo_44KHz.wav
3	37	2	1	0	C	2	1	799	1	Ⴉ	cut_u_stereo_44KHz.wav
3	38	4	4	2	I	2	0	770	0	Ⴏ	cut_k_stereo_44KHz.wav
3	39	1	2	0	C	2	1	841	1	Ⴒ	cut_a_stereo_44KHz.wav
3	40	3	4	2	I	2	0	1090	1	Ⴌ	cut_k_stereo_44KHz.wav
3	41	4	3	2	I	2	0	847	1	Ⴏ	cut_o_stereo_44KHz.wav
3	42	3	4	2	I	2	0	622	1	Ⴌ	cut_k_stereo_44KHz.wav
3	43	2	1	0	C	1	0	1247	0	Ⴉ	cut_u_stereo_44KHz.wav
3	44	1	2	0	C	2	1	635	1	Ⴒ	cut_a_stereo_44KHz.wav
3	45	2	2	1	C	1	1	1115	1	Ⴉ	cut_a_stereo_44KHz.wav
3	46	3	3	2	I	2	0	711	1	Ⴌ	cut_o_stereo_44KHz.wav
3	47	1	1	1	C	1	1	846	1	Ⴒ	cut_u_stereo_44KHz.wav
3	48	4	4	2	I	2	0	689	0	Ⴏ	cut_k_stereo_44KHz.wav
3	49	2	2	1	C	1	1	855	1	Ⴉ	cut_a_stereo_44KHz.wav
3	50	3	3	2	I	2	0	696	0	Ⴌ	cut_o_stereo_44KHz.wav
3	51	1	1	1	C	1	1	1036	1	Ⴒ	cut_u_stereo_44KHz.wav
3	52	4	4	2	I	2	0	1186	1	Ⴏ	cut_k_stereo_44KHz.wav
3	53	1	2	0	C	2	1	553	1	Ⴒ	cut_a_stereo_44KHz.wav
3	54	2	1	0	C	2	1	1319	1	Ⴉ	cut_u_stereo_44KHz.wav
3	55	4	3	2	I	1	0	859	1	Ⴏ	cut_o_stereo_44KHz.wav
3	56	3	4	2	I	1	0	868	0	Ⴌ	cut_k_stereo_44KHz.wav
3	57	2	1	0	C	2	1	710	1	Ⴉ	cut_u_stereo_44KHz.wav
3	58	4	3	2	I	1	0	1252	1	Ⴏ	cut_o_stereo_44KHz.wav
3	59	3	4	2	I	2	0	648	0	Ⴌ	cut_k_stereo_44KHz.wav
3	60	1	2	0	C	2	1	602	1	Ⴒ	cut_a_stereo_44KHz.wav
3	61	2	2	1	C	1	1	698	1	Ⴉ	cut_a_stereo_44KHz.wav
3	62	3	3	2	I	2	0	669	0	Ⴌ	cut_o_stereo_44KHz.wav
3	63	4	4	2	I	2	0	848	0	Ⴏ	cut_k_stereo_44KHz.wav
3	64	1	1	1	C	1	1	697	1	Ⴒ	cut_u_stereo_44KHz.wav
3	65	3	4	2	I	2	0	705	0	Ⴌ	cut_k_stereo_44KHz.wav
3	66	2	2	1	C	1	1	709	1	Ⴉ	cut_a_stereo_44KHz.wav
3	67	4	3	2	I	2	0	632	0	Ⴏ	cut_o_stereo_44KHz.wav
3	68	1	2	0	C	2	1	528	1	Ⴒ	cut_a_stereo_44KHz.wav
3	69	2	1	0	C	2	1	655	1	Ⴉ	cut_u_stereo_44KHz.wav
3	70	1	1	1	C	1	1	951	1	Ⴒ	cut_u_stereo_44KHz.wav
3	71	4	4	2	I	2	0	593	0	Ⴏ	cut_k_stereo_44KHz.wav
3	72	3	3	2	I	2	0	579	0	Ⴌ	cut_o_stereo_44KHz.wav
3	73	4	4	2	I	2	0	1188	1	Ⴏ	cut_k_stereo_44KHz.wav
3	74	3	3	2	I	1	0	740	0	Ⴌ	cut_o_stereo_44KHz.wav
3	75	2	1	0	C	2	1	719	1	Ⴉ	cut_u_stereo_44KHz.wav
3	76	1	1	1	C	1	1	668	1	Ⴒ	cut_u_stereo_44KHz.wav
3	77	2	2	1	C	1	1	650	1	Ⴉ	cut_a_stereo_44KHz.wav
3	78	4	3	2	I	1	0	843	0	Ⴏ	cut_o_stereo_44KHz.wav
3	79	3	4	2	I	0	0	0	0	Ⴌ	cut_k_stereo_44KHz.wav
3	80	1	2	0	C	2	1	650	1	Ⴒ	cut_a_stereo_44KHz.wav
3	81	2	2	1	C	1	1	697	1	Ⴉ	cut_a_stereo_44KHz.wav
3	82	3	3	2	I	2	0	930	0	Ⴌ	cut_o_stereo_44KHz.wav
3	83	4	4	2	I	2	0	915	1	Ⴏ	cut_k_stereo_44KHz.wav
3	84	1	2	0	C	2	1	652	1	Ⴒ	cut_a_stereo_44KHz.wav
3	85	4	3	2	I	1	0	730	0	Ⴏ	cut_o_stereo_44KHz.wav
3	86	1	1	1	C	1	1	746	1	Ⴒ	cut_u_stereo_44KHz.wav
3	87	2	1	0	C	1	0	776	0	Ⴉ	cut_u_stereo_44KHz.wav
3	88	3	4	2	I	1	0	1000	1	Ⴌ	cut_k_stereo_44KHz.wav
3	89	4	4	2	I	2	0	632	0	Ⴏ	cut_k_stereo_44KHz.wav
3	90	1	1	1	C	1	1	1117	1	Ⴒ	cut_u_stereo_44KHz.wav
3	91	2	2	1	C	1	1	1004	1	Ⴉ	cut_a_stereo_44KHz.wav
3	92	3	3	2	I	2	0	1471	1	Ⴌ	cut_o_stereo_44KHz.wav
3	93	2	1	0	C	2	1	776	1	Ⴉ	cut_u_stereo_44KHz.wav
3	94	4	3	2	I	1	0	1817	1	Ⴏ	cut_o_stereo_44KHz.wav
3	95	1	2	0	C	2	1	700	1	Ⴒ	cut_a_stereo_44KHz.wav
3	96	3	4	2	I	2	0	805	1	Ⴌ	cut_k_stereo_44KHz.wav
3	97	1	1	1	C	1	1	1124	1	Ⴒ	cut_u_stereo_44KHz.wav
3	98	2	1	0	C	2	1	1058	1	Ⴉ	cut_u_stereo_44KHz.wav
3	99	4	3	2	I	1	0	921	0	Ⴏ	cut_o_stereo_44KHz.wav
3	100	3	3	2	I	2	0	815	0	Ⴌ	cut_o_stereo_44KHz.wav
3	101	2	2	1	C	1	1	920	1	Ⴉ	cut_a_stereo_44KHz.wav
3	102	1	2	0	C	2	1	533	1	Ⴒ	cut_a_stereo_44KHz.wav
3	103	3	4	2	I	1	0	722	1	Ⴌ	cut_k_stereo_44KHz.wav
3	104	4	4	2	I	2	0	672	0	Ⴏ	cut_k_stereo_44KHz.wav
3	105	1	1	1	C	1	1	719	1	Ⴒ	cut_u_stereo_44KHz.wav
3	106	4	3	2	I	2	0	714	1	Ⴏ	cut_o_stereo_44KHz.wav
3	107	3	3	2	I	1	0	579	1	Ⴌ	cut_o_stereo_44KHz.wav
3	108	2	1	0	C	2	1	743	1	Ⴉ	cut_u_stereo_44KHz.wav
3	109	3	4	2	I	2	0	840	1	Ⴌ	cut_k_stereo_44KHz.wav
3	110	4	4	2	I	2	0	407	1	Ⴏ	cut_k_stereo_44KHz.wav
3	111	1	2	0	C	2	1	618	1	Ⴒ	cut_a_stereo_44KHz.wav
3	112	2	2	1	C	1	1	842	1	Ⴉ	cut_a_stereo_44KHz.wav
3	113	4	4	2	I	1	0	1037	0	Ⴏ	cut_k_stereo_44KHz.wav
3	114	1	2	0	C	2	1	554	1	Ⴒ	cut_a_stereo_44KHz.wav
3	115	3	4	2	I	2	0	869	1	Ⴌ	cut_k_stereo_44KHz.wav
3	116	2	1	0	C	2	1	721	1	Ⴉ	cut_u_stereo_44KHz.wav
3	117	4	3	2	I	2	0	737	1	Ⴏ	cut_o_stereo_44KHz.wav
3	118	1	1	1	C	2	0	630	0	Ⴒ	cut_u_stereo_44KHz.wav
3	119	2	2	1	C	1	1	1051	1	Ⴉ	cut_a_stereo_44KHz.wav
3	120	3	3	2	I	2	0	543	1	Ⴌ	cut_o_stereo_44KHz.wav
3	121	2	2	1	C	1	1	964	1	Ⴉ	cut_a_stereo_44KHz.wav
3	122	4	3	2	I	1	0	1127	0	Ⴏ	cut_o_stereo_44KHz.wav
3	123	1	1	1	C	1	1	734	1	Ⴒ	cut_u_stereo_44KHz.wav
3	124	3	4	2	I	2	0	652	1	Ⴌ	cut_k_stereo_44KHz.wav
3	125	2	1	0	C	2	1	733	1	Ⴉ	cut_u_stereo_44KHz.wav
3	126	1	2	0	C	2	1	1215	1	Ⴒ	cut_a_stereo_44KHz.wav
3	127	4	4	2	I	2	0	811	0	Ⴏ	cut_k_stereo_44KHz.wav
3	128	3	3	2	I	1	0	1264	1	Ⴌ	cut_o_stereo_44KHz.wav
3	129	1	1	1	C	1	1	798	1	Ⴒ	cut_u_stereo_44KHz.wav
3	130	4	4	2	I	2	0	972	1	Ⴏ	cut_k_stereo_44KHz.wav
3	131	2	1	0	C	2	1	694	1	Ⴉ	cut_u_stereo_44KHz.wav
3	132	3	3	2	I	2	0	1413	1	Ⴌ	cut_o_stereo_44KHz.wav
3	133	1	2	0	C	2	1	570	1	Ⴒ	cut_a_stereo_44KHz.wav
3	134	4	3	2	I	2	0	643	0	Ⴏ	cut_o_stereo_44KHz.wav
3	135	2	2	1	C	1	1	1132	1	Ⴉ	cut_a_stereo_44KHz.wav
3	136	3	4	2	I	2	0	986	0	Ⴌ	cut_k_stereo_44KHz.wav
3	137	4	4	2	I	2	0	609	0	Ⴏ	cut_k_stereo_44KHz.wav
3	138	2	1	0	C	2	1	797	1	Ⴉ	cut_u_stereo_44KHz.wav
3	139	1	2	0	C	2	1	719	1	Ⴒ	cut_a_stereo_44KHz.wav
3	140	3	3	2	I	2	0	613	0	Ⴌ	cut_o_stereo_44KHz.wav
3	141	2	2	1	C	1	1	709	1	Ⴉ	cut_a_stereo_44KHz.wav
3	142	4	3	2	I	2	0	684	1	Ⴏ	cut_o_stereo_44KHz.wav
3	143	3	4	2	I	2	0	697	1	Ⴌ	cut_k_stereo_44KHz.wav
3	144	1	1	1	C	1	1	726	1	Ⴒ	cut_u_stereo_44KHz.wav
3	145	2	1	0	C	1	0	675	0	Ⴉ	cut_u_stereo_44KHz.wav
3	146	3	3	2	I	2	0	1760	1	Ⴌ	cut_o_stereo_44KHz.wav
3	147	1	2	0	C	2	1	563	1	Ⴒ	cut_a_stereo_44KHz.wav
3	148	4	4	2	I	2	0	616	0	Ⴏ	cut_k_stereo_44KHz.wav
3	149	2	2	1	C	2	0	483	0	Ⴉ	cut_a_stereo_44KHz.wav
3	150	3	4	2	I	2	0	655	0	Ⴌ	cut_k_stereo_44KHz.wav
3	151	4	3	2	I	2	0	711	1	Ⴏ	cut_o_stereo_44KHz.wav
3	152	1	1	1	C	1	1	813	1	Ⴒ	cut_u_stereo_44KHz.wav
3	153	4	3	2	I	2	0	652	1	Ⴏ	cut_o_stereo_44KHz.wav
3	154	2	1	0	C	2	1	977	1	Ⴉ	cut_u_stereo_44KHz.wav
3	155	1	2	0	C	2	1	726	1	Ⴒ	cut_a_stereo_44KHz.wav
3	156	3	4	2	I	2	0	959	0	Ⴌ	cut_k_stereo_44KHz.wav
3	157	4	4	2	I	2	0	648	0	Ⴏ	cut_k_stereo_44KHz.wav
3	158	1	1	1	C	1	1	847	1	Ⴒ	cut_u_stereo_44KHz.wav
3	159	2	2	1	C	1	1	1051	1	Ⴉ	cut_a_stereo_44KHz.wav
3	160	3	3	2	I	1	0	728	1	Ⴌ	cut_o_stereo_44KHz.wav
3	161	2	1	0	C	2	1	872	1	Ⴉ	cut_u_stereo_44KHz.wav
3	162	1	2	0	C	2	1	534	1	Ⴒ	cut_a_stereo_44KHz.wav
3	163	3	4	2	I	2	0	816	0	Ⴌ	cut_k_stereo_44KHz.wav
3	164	4	3	2	I	2	0	693	1	Ⴏ	cut_o_stereo_44KHz.wav
3	165	3	3	2	I	1	0	964	0	Ⴌ	cut_o_stereo_44KHz.wav
3	166	1	1	1	C	1	1	1668	1	Ⴒ	cut_u_stereo_44KHz.wav
3	167	4	4	2	I	2	0	755	1	Ⴏ	cut_k_stereo_44KHz.wav
3	168	2	2	1	C	1	1	718	1	Ⴉ	cut_a_stereo_44KHz.wav
3	169	1	1	1	C	1	1	817	1	Ⴒ	cut_u_stereo_44KHz.wav
3	170	3	4	2	I	2	0	631	0	Ⴌ	cut_k_stereo_44KHz.wav
3	171	4	3	2	I	2	0	663	1	Ⴏ	cut_o_stereo_44KHz.wav
3	172	2	2	1	C	1	1	986	1	Ⴉ	cut_a_stereo_44KHz.wav
3	173	1	2	0	C	2	1	922	1	Ⴒ	cut_a_stereo_44KHz.wav
3	174	4	4	2	I	2	0	845	0	Ⴏ	cut_k_stereo_44KHz.wav
3	175	3	3	2	I	2	0	1261	0	Ⴌ	cut_o_stereo_44KHz.wav
3	176	2	1	0	C	2	1	654	1	Ⴉ	cut_u_stereo_44KHz.wav
3	177	1	1	1	C	1	1	1261	1	Ⴒ	cut_u_stereo_44KHz.wav
3	178	2	1	0	C	2	1	620	1	Ⴉ	cut_u_stereo_44KHz.wav
3	179	3	4	2	I	2	0	781	0	Ⴌ	cut_k_stereo_44KHz.wav
3	180	4	4	2	I	2	0	512	0	Ⴏ	cut_k_stereo_44KHz.wav
3	181	3	3	2	I	2	0	961	0	Ⴌ	cut_o_stereo_44KHz.wav
3	182	1	2	0	C	2	1	827	1	Ⴒ	cut_a_stereo_44KHz.wav
3	183	2	2	1	C	0	0	0	0	Ⴉ	cut_a_stereo_44KHz.wav
3	184	4	3	2	I	2	0	700	1	Ⴏ	cut_o_stereo_44KHz.wav
3	185	3	4	2	I	2	0	749	1	Ⴌ	cut_k_stereo_44KHz.wav
3	186	1	2	0	C	2	1	661	1	Ⴒ	cut_a_stereo_44KHz.wav
3	187	4	4	2	I	2	0	553	0	Ⴏ	cut_k_stereo_44KHz.wav
3	188	2	1	0	C	2	1	799	1	Ⴉ	cut_u_stereo_44KHz.wav
3	189	3	3	2	I	2	0	1548	1	Ⴌ	cut_o_stereo_44KHz.wav
3	190	2	2	1	C	1	1	1128	1	Ⴉ	cut_a_stereo_44KHz.wav
3	191	4	3	2	I	2	0	614	1	Ⴏ	cut_o_stereo_44KHz.wav
3	192	1	1	1	C	1	1	789	1	Ⴒ	cut_u_stereo_44KHz.wav
3	193	3	3	2	I	2	0	876	0	Ⴌ	cut_o_stereo_44KHz.wav
3	194	2	1	0	C	2	1	661	1	Ⴉ	cut_u_stereo_44KHz.wav
3	195	4	4	2	I	2	0	813	1	Ⴏ	cut_k_stereo_44KHz.wav
3	196	1	1	1	C	1	1	830	1	Ⴒ	cut_u_stereo_44KHz.wav
3	197	4	3	2	I	2	0	818	0	Ⴏ	cut_o_stereo_44KHz.wav
3	198	2	2	1	C	1	1	743	1	Ⴉ	cut_a_stereo_44KHz.wav
3	199	3	4	2	I	2	0	540	0	Ⴌ	cut_k_stereo_44KHz.wav
3	200	1	2	0	C	2	1	610	1	Ⴒ	cut_a_stereo_44KHz.wav
4	1	2	1	0	C	2	1	986	1	Ⴃ	cut_g_stereo_44KHz.wav
4	2	3	3	2	I	2	0	624	1	Ⴟ	cut_l_stereo_44KHz.wav
4	3	4	3	2	I	1	0	915	1	Ⴁ	cut_l_stereo_44KHz.wav
4	4	1	2	0	C	2	1	677	1	Ⴊ	cut_h_stereo_44KHz.wav
4	5	2	2	1	C	1	1	658	1	Ⴃ	cut_h_stereo_44KHz.wav
4	6	1	1	1	C	2	0	700	0	Ⴊ	cut_g_stereo_44KHz.wav
4	7	3	4	2	I	2	0	1198	1	Ⴟ	cut_w_stereo_44KHz.wav
4	8	4	4	2	I	1	0	810	0	Ⴁ	cut_w_stereo_44KHz.wav
4	9	3	3	2	I	2	0	752	1	Ⴟ	cut_l_stereo_44KHz.wav
4	10	1	1	1	C	2	0	752	0	Ⴊ	cut_g_stereo_44KHz.wav
4	11	2	1	0	C	2	1	736	1	Ⴃ	cut_g_stereo_44KHz.wav
4	12	4	4	2	I	1	0	840	0	Ⴁ	cut_w_stereo_44KHz.wav
4	13	2	2	1	C	2	0	1418	0	Ⴃ	cut_h_stereo_44KHz.wav
4	14	3	4	2	I	2	0	742	1	Ⴟ	cut_w_stereo_44KHz.wav
4	15	4	3	2	I	2	0	1106	0	Ⴁ	cut_l_stereo_44KHz.wav
4	16	1	2	0	C	2	1	745	1	Ⴊ	cut_h_stereo_44KHz.wav
4	17	4	3	2	I	1	0	1081	0	Ⴁ	cut_l_stereo_44KHz.wav
4	18	1	1	1	C	1	1	879	1	Ⴊ	cut_g_stereo_44KHz.wav
4	19	3	4	2	I	2	0	726	1	Ⴟ	cut_w_stereo_44KHz.wav
4	20	2	1	0	C	2	1	795	1	Ⴃ	cut_g_stereo_44KHz.wav
4	21	1	2	0	C	2	1	1176	1	Ⴊ	cut_h_stereo_44KHz.wav
4	22	4	4	2	I	2	0	880	1	Ⴁ	cut_w_stereo_44KHz.wav
4	23	3	3	2	I	1	0	792	1	Ⴟ	cut_l_stereo_44KHz.wav
4	24	2	2	1	C	1	1	709	1	Ⴃ	cut_h_stereo_44KHz.wav
4	25	4	4	2	I	2	0	626	1	Ⴁ	cut_w_stereo_44KHz.wav
4	26	2	2	1	C	1	1	615	1	Ⴃ	cut_h_stereo_44KHz.wav
4	27	3	3	2	I	1	0	699	1	Ⴟ	cut_l_stereo_44KHz.wav
4	28	1	1	1	C	1	1	1366	1	Ⴊ	cut_g_stereo_44KHz.wav
4	29	3	4	2	I	2	0	857	0	Ⴟ	cut_w_stereo_44KHz.wav
4	30	2	1	0	C	2	1	657	1	Ⴃ	cut_g_stereo_44KHz.wav
4	31	4	3	2	I	1	0	864	0	Ⴁ	cut_l_stereo_44KHz.wav
4	32	1	2	0	C	2	1	720	1	Ⴊ	cut_h_stereo_44KHz.wav
4	33	3	4	2	I	2	0	593	0	Ⴟ	cut_w_stereo_44KHz.wav
4	34	4	4	2	I	2	0	861	0	Ⴁ	cut_w_stereo_44KHz.wav
4	35	1	1	1	C	1	1	1158	1	Ⴊ	cut_g_stereo_44KHz.wav
4	36	2	1	0	C	2	1	1033	1	Ⴃ	cut_g_stereo_44KHz.wav
4	37	3	3	2	I	1	0	692	1	Ⴟ	cut_l_stereo_44KHz.wav
4	38	2	2	1	C	1	1	692	1	Ⴃ	cut_h_stereo_44KHz.wav
4	39	4	3	2	I	2	0	699	1	Ⴁ	cut_l_stereo_44KHz.wav
4	40	1	2	0	C	2	1	766	1	Ⴊ	cut_h_stereo_44KHz.wav
4	41	4	3	2	I	2	0	687	1	Ⴁ	cut_l_stereo_44KHz.wav
4	42	3	4	2	I	2	0	684	1	Ⴟ	cut_w_stereo_44KHz.wav
4	43	1	1	1	C	2	0	827	0	Ⴊ	cut_g_stereo_44KHz.wav
4	44	2	1	0	C	2	1	694	1	Ⴃ	cut_g_stereo_44KHz.wav
4	45	4	4	2	I	2	0	679	1	Ⴁ	cut_w_stereo_44KHz.wav
4	46	2	2	1	C	1	1	902	1	Ⴃ	cut_h_stereo_44KHz.wav
4	47	3	3	2	I	1	0	1259	0	Ⴟ	cut_l_stereo_44KHz.wav
4	48	1	2	0	C	2	1	674	1	Ⴊ	cut_h_stereo_44KHz.wav
4	49	4	4	2	I	2	0	651	1	Ⴁ	cut_w_stereo_44KHz.wav
4	50	3	4	2	I	2	0	869	0	Ⴟ	cut_w_stereo_44KHz.wav
4	51	2	2	1	C	1	1	669	1	Ⴃ	cut_h_stereo_44KHz.wav
4	52	1	2	0	C	2	1	760	1	Ⴊ	cut_h_stereo_44KHz.wav
4	53	4	3	2	I	1	0	846	1	Ⴁ	cut_l_stereo_44KHz.wav
4	54	2	1	0	C	1	0	750	0	Ⴃ	cut_g_stereo_44KHz.wav
4	55	3	3	2	I	1	0	967	0	Ⴟ	cut_l_stereo_44KHz.wav
4	56	1	1	1	C	1	1	928	1	Ⴊ	cut_g_stereo_44KHz.wav
4	57	4	3	2	I	1	0	742	0	Ⴁ	cut_l_stereo_44KHz.wav
4	58	1	1	1	C	1	1	742	1	Ⴊ	cut_g_stereo_44KHz.wav
4	59	2	2	1	C	1	1	843	1	Ⴃ	cut_h_stereo_44KHz.wav
4	60	3	4	2	I	2	0	842	1	Ⴟ	cut_w_stereo_44KHz.wav
4	61	2	1	0	C	1	0	650	0	Ⴃ	cut_g_stereo_44KHz.wav
4	62	3	3	2	I	1	0	687	0	Ⴟ	cut_l_stereo_44KHz.wav
4	63	1	2	0	C	2	1	581	1	Ⴊ	cut_h_stereo_44KHz.wav
4	64	4	4	2	I	2	0	851	0	Ⴁ	cut_w_stereo_44KHz.wav
4	65	1	2	0	C	2	1	985	1	Ⴊ	cut_h_stereo_44KHz.wav
4	66	2	1	0	C	2	1	695	1	Ⴃ	cut_g_stereo_44KHz.wav
4	67	3	3	2	I	2	0	1181	0	Ⴟ	cut_l_stereo_44KHz.wav
4	68	4	4	2	I	2	0	646	1	Ⴁ	cut_w_stereo_44KHz.wav
4	69	1	1	1	C	1	1	1622	1	Ⴊ	cut_g_stereo_44KHz.wav
4	70	2	2	1	C	1	1	732	1	Ⴃ	cut_h_stereo_44KHz.wav
4	71	4	3	2	I	2	0	1422	1	Ⴁ	cut_l_stereo_44KHz.wav
4	72	3	4	2	I	2	0	700	1	Ⴟ	cut_w_stereo_44KHz.wav
4	73	1	2	0	C	2	1	624	1	Ⴊ	cut_h_stereo_44KHz.wav
4	74	4	3	2	I	2	0	873	1	Ⴁ	cut_l_stereo_44KHz.wav
4	75	3	3	2	I	1	0	918	1	Ⴟ	cut_l_stereo_44KHz.wav
4	76	2	1	0	C	2	1	978	1	Ⴃ	cut_g_stereo_44KHz.wav
4	77	3	4	2	I	2	0	1181	0	Ⴟ	cut_w_stereo_44KHz.wav
4	78	1	1	1	C	2	0	536	0	Ⴊ	cut_g_stereo_44KHz.wav
4	79	2	2	1	C	2	0	499	0	Ⴃ	cut_h_stereo_44KHz.wav
4	80	4	4	2	I	2	0	732	0	Ⴁ	cut_w_stereo_44KHz.wav
4	81	3	4	2	I	2	0	698	1	Ⴟ	cut_w_stereo_44KHz.wav
4	82	2	2	1	C	1	1	773	1	Ⴃ	cut_h_stereo_44KHz.wav
4	83	1	2	0	C	2	1	551	1	Ⴊ	cut_h_stereo_44KHz.wav
4	84	4	4	2	I	2	0	840	1	Ⴁ	cut_w_stereo_44KHz.wav
4	85	1	1	1	C	1	1	725	1	Ⴊ	cut_g_stereo_44KHz.wav
4	86	2	1	0	C	2	1	663	1	Ⴃ	cut_g_stereo_44KHz.wav
4	87	3	3	2	I	2	0	1046	1	Ⴟ	cut_l_stereo_44KHz.wav
4	88	4	3	2	I	2	0	702	0	Ⴁ	cut_l_stereo_44KHz.wav
4	89	1	2	0	C	2	1	682	1	Ⴊ	cut_h_stereo_44KHz.wav
4	90	3	4	2	I	2	0	645	1	Ⴟ	cut_w_stereo_44KHz.wav
4	91	2	2	1	C	1	1	686	1	Ⴃ	cut_h_stereo_44KHz.wav
4	92	4	4	2	I	2	0	689	1	Ⴁ	cut_w_stereo_44KHz.wav
4	93	3	3	2	I	1	0	933	0	Ⴟ	cut_l_stereo_44KHz.wav
4	94	4	3	2	I	2	0	981	0	Ⴁ	cut_l_stereo_44KHz.wav
4	95	1	1	1	C	1	1	1010	1	Ⴊ	cut_g_stereo_44KHz.wav
4	96	2	1	0	C	2	1	578	1	Ⴃ	cut_g_stereo_44KHz.wav
4	97	4	4	2	I	2	0	776	1	Ⴁ	cut_w_stereo_44KHz.wav
4	98	3	3	2	I	2	0	1367	1	Ⴟ	cut_l_stereo_44KHz.wav
4	99	2	2	1	C	1	1	850	1	Ⴃ	cut_h_stereo_44KHz.wav
4	100	1	2	0	C	2	1	758	1	Ⴊ	cut_h_stereo_44KHz.wav
4	101	3	4	2	I	1	0	1630	1	Ⴟ	cut_w_stereo_44KHz.wav
4	102	4	3	2	I	2	0	869	0	Ⴁ	cut_l_stereo_44KHz.wav
4	103	2	1	0	C	2	1	652	1	Ⴃ	cut_g_stereo_44KHz.wav
4	104	1	1	1	C	1	1	921	1	Ⴊ	cut_g_stereo_44KHz.wav
4	105	4	4	2	I	2	0	1445	0	Ⴁ	cut_w_stereo_44KHz.wav
4	106	1	1	1	C	1	1	933	1	Ⴊ	cut_g_stereo_44KHz.wav
4	107	2	1	0	C	2	1	703	1	Ⴃ	cut_g_stereo_44KHz.wav
4	108	3	4	2	I	1	0	1508	0	Ⴟ	cut_w_stereo_44KHz.wav
4	109	4	3	2	I	2	0	815	1	Ⴁ	cut_l_stereo_44KHz.wav
4	110	1	2	0	C	2	1	656	1	Ⴊ	cut_h_stereo_44KHz.wav
4	111	2	2	1	C	1	1	767	1	Ⴃ	cut_h_stereo_44KHz.wav
4	112	3	3	2	I	2	0	1154	1	Ⴟ	cut_l_stereo_44KHz.wav
4	113	4	3	2	I	2	0	839	1	Ⴁ	cut_l_stereo_44KHz.wav
4	114	2	1	0	C	2	1	578	1	Ⴃ	cut_g_stereo_44KHz.wav
4	115	3	4	2	I	1	0	1178	0	Ⴟ	cut_w_stereo_44KHz.wav
4	116	1	2	0	C	0	0	0	0	Ⴊ	cut_h_stereo_44KHz.wav
4	117	2	2	1	C	1	1	742	1	Ⴃ	cut_h_stereo_44KHz.wav
4	118	1	1	1	C	2	0	899	0	Ⴊ	cut_g_stereo_44KHz.wav
4	119	4	4	2	I	2	0	754	1	Ⴁ	cut_w_stereo_44KHz.wav
4	120	3	3	2	I	2	0	781	0	Ⴟ	cut_l_stereo_44KHz.wav
4	121	4	3	2	I	2	0	748	0	Ⴁ	cut_l_stereo_44KHz.wav
4	122	3	4	2	I	2	0	914	0	Ⴟ	cut_w_stereo_44KHz.wav
4	123	2	1	0	C	2	1	648	1	Ⴃ	cut_g_stereo_44KHz.wav
4	124	1	2	0	C	2	1	927	1	Ⴊ	cut_h_stereo_44KHz.wav
4	125	2	2	1	C	1	1	895	1	Ⴃ	cut_h_stereo_44KHz.wav
4	126	3	3	2	I	2	0	791	0	Ⴟ	cut_l_stereo_44KHz.wav
4	127	4	4	2	I	2	0	805	1	Ⴁ	cut_w_stereo_44KHz.wav
4	128	1	1	1	C	1	1	1021	1	Ⴊ	cut_g_stereo_44KHz.wav
4	129	2	2	1	C	1	1	823	1	Ⴃ	cut_h_stereo_44KHz.wav
4	130	1	2	0	C	2	1	611	1	Ⴊ	cut_h_stereo_44KHz.wav
4	131	3	4	2	I	1	0	906	1	Ⴟ	cut_w_stereo_44KHz.wav
4	132	4	4	2	I	2	0	840	0	Ⴁ	cut_w_stereo_44KHz.wav
4	133	2	1	0	C	2	1	569	1	Ⴃ	cut_g_stereo_44KHz.wav
4	134	3	3	2	I	2	0	1763	0	Ⴟ	cut_l_stereo_44KHz.wav
4	135	1	1	1	C	1	1	848	1	Ⴊ	cut_g_stereo_44KHz.wav
4	136	4	3	2	I	2	0	748	1	Ⴁ	cut_l_stereo_44KHz.wav
4	137	3	3	2	I	2	0	584	0	Ⴟ	cut_l_stereo_44KHz.wav
4	138	2	1	0	C	2	1	745	1	Ⴃ	cut_g_stereo_44KHz.wav
4	139	1	2	0	C	2	1	641	1	Ⴊ	cut_h_stereo_44KHz.wav
4	140	4	4	2	I	2	0	880	0	Ⴁ	cut_w_stereo_44KHz.wav
4	141	1	1	1	C	1	1	924	1	Ⴊ	cut_g_stereo_44KHz.wav
4	142	4	3	2	I	2	0	587	1	Ⴁ	cut_l_stereo_44KHz.wav
4	143	2	2	1	C	1	1	742	1	Ⴃ	cut_h_stereo_44KHz.wav
4	144	3	4	2	I	2	0	705	1	Ⴟ	cut_w_stereo_44KHz.wav
4	145	2	1	0	C	2	1	620	1	Ⴃ	cut_g_stereo_44KHz.wav
4	146	3	4	2	I	2	0	680	1	Ⴟ	cut_w_stereo_44KHz.wav
4	147	4	3	2	I	2	0	645	0	Ⴁ	cut_l_stereo_44KHz.wav
4	148	1	2	0	C	2	1	784	1	Ⴊ	cut_h_stereo_44KHz.wav
4	149	2	2	1	C	1	1	834	1	Ⴃ	cut_h_stereo_44KHz.wav
4	150	4	4	2	I	2	0	815	0	Ⴁ	cut_w_stereo_44KHz.wav
4	151	1	1	1	C	1	1	690	1	Ⴊ	cut_g_stereo_44KHz.wav
4	152	3	3	2	I	2	0	757	0	Ⴟ	cut_l_stereo_44KHz.wav
4	153	1	2	0	C	2	1	962	1	Ⴊ	cut_h_stereo_44KHz.wav
4	154	3	3	2	I	2	0	784	1	Ⴟ	cut_l_stereo_44KHz.wav
4	155	4	3	2	I	2	0	766	1	Ⴁ	cut_l_stereo_44KHz.wav
4	156	2	1	0	C	2	1	559	1	Ⴃ	cut_g_stereo_44KHz.wav
4	157	4	4	2	I	2	0	1296	1	Ⴁ	cut_w_stereo_44KHz.wav
4	158	2	2	1	C	1	1	702	1	Ⴃ	cut_h_stereo_44KHz.wav
4	159	1	1	1	C	2	0	1222	0	Ⴊ	cut_g_stereo_44KHz.wav
4	160	3	4	2	I	1	0	841	0	Ⴟ	cut_w_stereo_44KHz.wav
4	161	2	2	1	C	1	1	747	1	Ⴃ	cut_h_stereo_44KHz.wav
4	162	3	4	2	I	2	0	621	1	Ⴟ	cut_w_stereo_44KHz.wav
4	163	4	4	2	I	1	0	718	1	Ⴁ	cut_w_stereo_44KHz.wav
4	164	1	2	0	C	2	1	829	1	Ⴊ	cut_h_stereo_44KHz.wav
4	165	2	1	0	C	2	1	599	1	Ⴃ	cut_g_stereo_44KHz.wav
4	166	4	3	2	I	2	0	788	1	Ⴁ	cut_l_stereo_44KHz.wav
4	167	3	3	2	I	2	0	611	0	Ⴟ	cut_l_stereo_44KHz.wav
4	168	1	1	1	C	1	1	950	1	Ⴊ	cut_g_stereo_44KHz.wav
4	169	4	3	2	I	2	0	698	0	Ⴁ	cut_l_stereo_44KHz.wav
4	170	1	2	0	C	2	1	713	1	Ⴊ	cut_h_stereo_44KHz.wav
4	171	2	2	1	C	1	1	671	1	Ⴃ	cut_h_stereo_44KHz.wav
4	172	3	4	2	I	2	0	955	1	Ⴟ	cut_w_stereo_44KHz.wav
4	173	2	1	0	C	2	1	659	1	Ⴃ	cut_g_stereo_44KHz.wav
4	174	1	1	1	C	1	1	940	1	Ⴊ	cut_g_stereo_44KHz.wav
4	175	3	3	2	I	2	0	944	0	Ⴟ	cut_l_stereo_44KHz.wav
4	176	4	4	2	I	2	0	935	1	Ⴁ	cut_w_stereo_44KHz.wav
4	177	1	2	0	C	2	1	970	1	Ⴊ	cut_h_stereo_44KHz.wav
4	178	3	3	2	I	2	0	880	0	Ⴟ	cut_l_stereo_44KHz.wav
4	179	2	2	1	C	1	1	746	1	Ⴃ	cut_h_stereo_44KHz.wav
4	180	4	3	2	I	2	0	769	0	Ⴁ	cut_l_stereo_44KHz.wav
4	181	3	4	2	I	2	0	832	0	Ⴟ	cut_w_stereo_44KHz.wav
4	182	4	4	2	I	2	0	615	0	Ⴁ	cut_w_stereo_44KHz.wav
4	183	1	1	1	C	1	1	876	1	Ⴊ	cut_g_stereo_44KHz.wav
4	184	2	1	0	C	2	1	1030	1	Ⴃ	cut_g_stereo_44KHz.wav
4	185	4	4	2	I	2	0	756	0	Ⴁ	cut_w_stereo_44KHz.wav
4	186	2	1	0	C	2	1	549	1	Ⴃ	cut_g_stereo_44KHz.wav
4	187	3	3	2	I	2	0	559	0	Ⴟ	cut_l_stereo_44KHz.wav
4	188	1	2	0	C	2	1	918	1	Ⴊ	cut_h_stereo_44KHz.wav
4	189	4	3	2	I	2	0	689	0	Ⴁ	cut_l_stereo_44KHz.wav
4	190	2	2	1	C	1	1	1133	1	Ⴃ	cut_h_stereo_44KHz.wav
4	191	1	1	1	C	1	1	1064	1	Ⴊ	cut_g_stereo_44KHz.wav
4	192	3	4	2	I	2	0	873	0	Ⴟ	cut_w_stereo_44KHz.wav
4	193	2	2	1	C	1	1	821	1	Ⴃ	cut_h_stereo_44KHz.wav
4	194	1	2	0	C	2	1	715	1	Ⴊ	cut_h_stereo_44KHz.wav
4	195	3	3	2	I	2	0	778	1	Ⴟ	cut_l_stereo_44KHz.wav
4	196	4	3	2	I	2	0	753	0	Ⴁ	cut_l_stereo_44KHz.wav
4	197	3	4	2	I	1	0	842	0	Ⴟ	cut_w_stereo_44KHz.wav
4	198	2	1	0	C	2	1	882	1	Ⴃ	cut_g_stereo_44KHz.wav
4	199	4	4	2	I	2	0	997	0	Ⴁ	cut_w_stereo_44KHz.wav
4	200	1	1	1	C	1	1	924	1	Ⴊ	cut_g_stereo_44KHz.wav
