block	trial	Vstim	Astim	match	C/I	resp	result	RT	fb	V-file	A-file
LR

0	1	2	3	1	C	2	1	1008	1	poli_8sides 24_whiteLine3.jpg	Practice4_b26_stereo_44KHz.wav
0	2	1	2	0	C	2	0	1159	0	poli_8sides 23_whiteLine3.jpg	Practice2_b27_cut2_stereo_44KHz.wav
0	3	1	1	1	C	1	0	992	0	poli_8sides 23_whiteLine3.jpg	Practice3_b26_cut1_stereo_44KHz.wav
0	4	2	4	0	C	1	1	884	1	poli_8sides 24_whiteLine3.jpg	Practice1_b27_cut1_stereo_44KHz.wav
0	5	2	4	0	C	1	1	937	1	poli_8sides 24_whiteLine3.jpg	Practice1_b27_cut1_stereo_44KHz.wav
0	6	1	1	1	C	2	1	1161	1	poli_8sides 23_whiteLine3.jpg	Practice3_b26_cut1_stereo_44KHz.wav
0	7	2	3	1	C	1	0	1131	0	poli_8sides 24_whiteLine3.jpg	Practice4_b26_stereo_44KHz.wav
0	8	1	2	0	C	1	1	1303	1	poli_8sides 23_whiteLine3.jpg	Practice2_b27_cut2_stereo_44KHz.wav
0	9	2	3	1	C	1	0	761	0	poli_8sides 24_whiteLine3.jpg	Practice4_b26_stereo_44KHz.wav
0	10	1	1	1	C	1	0	1450	0	poli_8sides 23_whiteLine3.jpg	Practice3_b26_cut1_stereo_44KHz.wav
0	11	2	4	0	C	1	1	849	1	poli_8sides 24_whiteLine3.jpg	Practice1_b27_cut1_stereo_44KHz.wav
0	12	1	2	0	C	1	1	1078	1	poli_8sides 23_whiteLine3.jpg	Practice2_b27_cut2_stereo_44KHz.wav
0	13	1	1	1	C	2	1	842	1	poli_8sides 23_whiteLine3.jpg	Practice3_b26_cut1_stereo_44KHz.wav
0	14	1	2	0	C	1	1	703	1	poli_8sides 23_whiteLine3.jpg	Practice2_b27_cut2_stereo_44KHz.wav
0	15	2	3	1	C	2	1	807	1	poli_8sides 24_whiteLine3.jpg	Practice4_b26_stereo_44KHz.wav
0	16	2	4	0	C	1	1	632	1	poli_8sides 24_whiteLine3.jpg	Practice1_b27_cut1_stereo_44KHz.wav
0	17	1	2	0	C	1	1	688	1	poli_8sides 23_whiteLine3.jpg	Practice2_b27_cut2_stereo_44KHz.wav
0	18	2	3	1	C	1	0	854	0	poli_8sides 24_whiteLine3.jpg	Practice4_b26_stereo_44KHz.wav
0	19	1	1	1	C	2	1	824	1	poli_8sides 23_whiteLine3.jpg	Practice3_b26_cut1_stereo_44KHz.wav
0	20	2	4	0	C	1	1	790	1	poli_8sides 24_whiteLine3.jpg	Practice1_b27_cut1_stereo_44KHz.wav
0	21	1	1	1	C	2	1	877	1	poli_8sides 23_whiteLine3.jpg	Practice3_b26_cut1_stereo_44KHz.wav
0	22	2	4	0	C	1	1	882	1	poli_8sides 24_whiteLine3.jpg	Practice1_b27_cut1_stereo_44KHz.wav
0	23	1	2	0	C	2	0	763	0	poli_8sides 23_whiteLine3.jpg	Practice2_b27_cut2_stereo_44KHz.wav
0	24	2	3	1	C	2	1	1055	1	poli_8sides 24_whiteLine3.jpg	Practice4_b26_stereo_44KHz.wav
0	25	1	2	0	C	1	1	842	1	poli_8sides 23_whiteLine3.jpg	Practice2_b27_cut2_stereo_44KHz.wav
0	26	2	3	1	C	2	1	1235	1	poli_8sides 24_whiteLine3.jpg	Practice4_b26_stereo_44KHz.wav
0	27	1	1	1	C	2	1	953	1	poli_8sides 23_whiteLine3.jpg	Practice3_b26_cut1_stereo_44KHz.wav
0	28	2	4	0	C	1	1	645	1	poli_8sides 24_whiteLine3.jpg	Practice1_b27_cut1_stereo_44KHz.wav
0	29	2	4	0	C	1	1	749	1	poli_8sides 24_whiteLine3.jpg	Practice1_b27_cut1_stereo_44KHz.wav
0	30	1	2	0	C	2	0	576	0	poli_8sides 23_whiteLine3.jpg	Practice2_b27_cut2_stereo_44KHz.wav
avg_resp = 897
1	1	3	3	2	I	1	0	1000	1	poli_8sides 8_whiteLine3.jpg	MediumLong_b10_cut2_L_stereo_44KHz.wav
1	2	1	1	1	C	1	0	821	0	poli_8sides 10_whiteLine3.jpg	Medium_e13_stereo_44KHz.wav
1	3	2	1	0	C	1	1	888	1	poli_8sides 5_whiteLine3.jpg	Medium_e13_stereo_44KHz.wav
1	4	4	4	2	I	1	0	978	0	poli_8sides 16_whiteLine3.jpg	Medium_e26_stereo_44KHz.wav
1	5	2	2	1	C	1	0	937	0	poli_8sides 5_whiteLine3.jpg	MediumLong_e17_cut2_stereo_44KHz.wav
1	6	3	4	2	I	1	0	1099	0	poli_8sides 8_whiteLine3.jpg	Medium_e26_stereo_44KHz.wav
1	7	1	2	0	C	1	1	932	1	poli_8sides 10_whiteLine3.jpg	MediumLong_e17_cut2_stereo_44KHz.wav
1	8	4	3	2	I	2	0	983	1	poli_8sides 16_whiteLine3.jpg	MediumLong_b10_cut2_L_stereo_44KHz.wav
1	9	1	2	0	C	1	1	764	1	poli_8sides 10_whiteLine3.jpg	MediumLong_e17_cut2_stereo_44KHz.wav
1	10	4	3	2	I	1	0	1258	0	poli_8sides 16_whiteLine3.jpg	MediumLong_b10_cut2_L_stereo_44KHz.wav
1	11	3	4	2	I	1	0	911	1	poli_8sides 8_whiteLine3.jpg	Medium_e26_stereo_44KHz.wav
1	12	2	1	0	C	1	1	728	1	poli_8sides 5_whiteLine3.jpg	Medium_e13_stereo_44KHz.wav
1	13	4	4	2	I	1	0	1119	0	poli_8sides 16_whiteLine3.jpg	Medium_e26_stereo_44KHz.wav
1	14	3	3	2	I	1	0	890	0	poli_8sides 8_whiteLine3.jpg	MediumLong_b10_cut2_L_stereo_44KHz.wav
1	15	2	2	1	C	1	0	753	0	poli_8sides 5_whiteLine3.jpg	MediumLong_e17_cut2_stereo_44KHz.wav
1	16	1	1	1	C	1	0	651	0	poli_8sides 10_whiteLine3.jpg	Medium_e13_stereo_44KHz.wav
1	17	3	4	2	I	2	0	628	0	poli_8sides 8_whiteLine3.jpg	Medium_e26_stereo_44KHz.wav
1	18	2	1	0	C	1	1	776	1	poli_8sides 5_whiteLine3.jpg	Medium_e13_stereo_44KHz.wav
1	19	4	4	2	I	1	0	830	1	poli_8sides 16_whiteLine3.jpg	Medium_e26_stereo_44KHz.wav
1	20	1	2	0	C	2	0	1160	0	poli_8sides 10_whiteLine3.jpg	MediumLong_e17_cut2_stereo_44KHz.wav
1	21	2	2	1	C	2	1	773	1	poli_8sides 5_whiteLine3.jpg	MediumLong_e17_cut2_stereo_44KHz.wav
1	22	1	1	1	C	2	1	865	1	poli_8sides 10_whiteLine3.jpg	Medium_e13_stereo_44KHz.wav
1	23	4	3	2	I	1	0	1015	0	poli_8sides 16_whiteLine3.jpg	MediumLong_b10_cut2_L_stereo_44KHz.wav
1	24	3	3	2	I	1	0	757	0	poli_8sides 8_whiteLine3.jpg	MediumLong_b10_cut2_L_stereo_44KHz.wav
1	25	4	4	2	I	1	0	728	0	poli_8sides 16_whiteLine3.jpg	Medium_e26_stereo_44KHz.wav
1	26	1	2	0	C	1	1	770	1	poli_8sides 10_whiteLine3.jpg	MediumLong_e17_cut2_stereo_44KHz.wav
1	27	3	4	2	I	1	0	658	0	poli_8sides 8_whiteLine3.jpg	Medium_e26_stereo_44KHz.wav
1	28	2	1	0	C	1	1	861	1	poli_8sides 5_whiteLine3.jpg	Medium_e13_stereo_44KHz.wav
1	29	3	3	2	I	1	0	867	0	poli_8sides 8_whiteLine3.jpg	MediumLong_b10_cut2_L_stereo_44KHz.wav
1	30	2	2	1	C	1	0	564	0	poli_8sides 5_whiteLine3.jpg	MediumLong_e17_cut2_stereo_44KHz.wav
1	31	4	3	2	I	2	0	813	1	poli_8sides 16_whiteLine3.jpg	MediumLong_b10_cut2_L_stereo_44KHz.wav
1	32	1	1	1	C	1	0	645	0	poli_8sides 10_whiteLine3.jpg	Medium_e13_stereo_44KHz.wav
1	33	4	4	2	I	1	0	833	1	poli_8sides 16_whiteLine3.jpg	Medium_e26_stereo_44KHz.wav
1	34	2	2	1	C	1	0	712	0	poli_8sides 5_whiteLine3.jpg	MediumLong_e17_cut2_stereo_44KHz.wav
1	35	1	1	1	C	1	0	635	0	poli_8sides 10_whiteLine3.jpg	Medium_e13_stereo_44KHz.wav
1	36	3	4	2	I	1	0	770	1	poli_8sides 8_whiteLine3.jpg	Medium_e26_stereo_44KHz.wav
1	37	1	2	0	C	1	1	651	1	poli_8sides 10_whiteLine3.jpg	MediumLong_e17_cut2_stereo_44KHz.wav
1	38	3	3	2	I	2	0	733	1	poli_8sides 8_whiteLine3.jpg	MediumLong_b10_cut2_L_stereo_44KHz.wav
1	39	4	3	2	I	2	0	642	0	poli_8sides 16_whiteLine3.jpg	MediumLong_b10_cut2_L_stereo_44KHz.wav
1	40	2	1	0	C	1	1	801	1	poli_8sides 5_whiteLine3.jpg	Medium_e13_stereo_44KHz.wav
1	41	1	1	1	C	2	1	916	1	poli_8sides 10_whiteLine3.jpg	Medium_e13_stereo_44KHz.wav
1	42	3	3	2	I	1	0	771	0	poli_8sides 8_whiteLine3.jpg	MediumLong_b10_cut2_L_stereo_44KHz.wav
1	43	4	4	2	I	1	0	721	1	poli_8sides 16_whiteLine3.jpg	Medium_e26_stereo_44KHz.wav
1	44	2	1	0	C	1	1	815	1	poli_8sides 5_whiteLine3.jpg	Medium_e13_stereo_44KHz.wav
1	45	1	2	0	C	1	1	998	1	poli_8sides 10_whiteLine3.jpg	MediumLong_e17_cut2_stereo_44KHz.wav
1	46	3	4	2	I	1	0	520	0	poli_8sides 8_whiteLine3.jpg	Medium_e26_stereo_44KHz.wav
1	47	4	3	2	I	2	0	952	1	poli_8sides 16_whiteLine3.jpg	MediumLong_b10_cut2_L_stereo_44KHz.wav
1	48	2	2	1	C	1	0	957	0	poli_8sides 5_whiteLine3.jpg	MediumLong_e17_cut2_stereo_44KHz.wav
1	49	4	4	2	I	1	0	984	0	poli_8sides 16_whiteLine3.jpg	Medium_e26_stereo_44KHz.wav
1	50	2	1	0	C	1	1	864	1	poli_8sides 5_whiteLine3.jpg	Medium_e13_stereo_44KHz.wav
1	51	1	2	0	C	1	1	858	1	poli_8sides 10_whiteLine3.jpg	MediumLong_e17_cut2_stereo_44KHz.wav
1	52	3	4	2	I	2	0	1075	1	poli_8sides 8_whiteLine3.jpg	Medium_e26_stereo_44KHz.wav
1	53	1	1	1	C	1	0	664	0	poli_8sides 10_whiteLine3.jpg	Medium_e13_stereo_44KHz.wav
1	54	2	2	1	C	1	0	591	0	poli_8sides 5_whiteLine3.jpg	MediumLong_e17_cut2_stereo_44KHz.wav
1	55	3	3	2	I	2	0	211	0	poli_8sides 8_whiteLine3.jpg	MediumLong_b10_cut2_L_stereo_44KHz.wav
1	56	4	3	2	I	2	0	871	1	poli_8sides 16_whiteLine3.jpg	MediumLong_b10_cut2_L_stereo_44KHz.wav
1	57	2	1	0	C	1	1	567	1	poli_8sides 5_whiteLine3.jpg	Medium_e13_stereo_44KHz.wav
1	58	4	3	2	I	2	0	658	0	poli_8sides 16_whiteLine3.jpg	MediumLong_b10_cut2_L_stereo_44KHz.wav
1	59	3	3	2	I	2	0	607	1	poli_8sides 8_whiteLine3.jpg	MediumLong_b10_cut2_L_stereo_44KHz.wav
1	60	1	2	0	C	1	1	747	1	poli_8sides 10_whiteLine3.jpg	MediumLong_e17_cut2_stereo_44KHz.wav
1	61	3	4	2	I	2	0	1023	0	poli_8sides 8_whiteLine3.jpg	Medium_e26_stereo_44KHz.wav
1	62	1	1	1	C	1	0	608	0	poli_8sides 10_whiteLine3.jpg	Medium_e13_stereo_44KHz.wav
1	63	2	2	1	C	1	0	590	0	poli_8sides 5_whiteLine3.jpg	MediumLong_e17_cut2_stereo_44KHz.wav
1	64	4	4	2	I	1	0	491	0	poli_8sides 16_whiteLine3.jpg	Medium_e26_stereo_44KHz.wav
1	65	1	1	1	C	1	0	640	0	poli_8sides 10_whiteLine3.jpg	Medium_e13_stereo_44KHz.wav
1	66	2	1	0	C	2	0	628	0	poli_8sides 5_whiteLine3.jpg	Medium_e13_stereo_44KHz.wav
1	67	4	4	2	I	1	0	473	1	poli_8sides 16_whiteLine3.jpg	Medium_e26_stereo_44KHz.wav
1	68	3	4	2	I	2	0	683	0	poli_8sides 8_whiteLine3.jpg	Medium_e26_stereo_44KHz.wav
1	69	4	3	2	I	1	0	939	0	poli_8sides 16_whiteLine3.jpg	MediumLong_b10_cut2_L_stereo_44KHz.wav
1	70	1	2	0	C	1	1	528	1	poli_8sides 10_whiteLine3.jpg	MediumLong_e17_cut2_stereo_44KHz.wav
1	71	2	2	1	C	2	1	681	1	poli_8sides 5_whiteLine3.jpg	MediumLong_e17_cut2_stereo_44KHz.wav
1	72	3	3	2	I	2	0	889	0	poli_8sides 8_whiteLine3.jpg	MediumLong_b10_cut2_L_stereo_44KHz.wav
1	73	4	4	2	I	1	0	681	1	poli_8sides 16_whiteLine3.jpg	Medium_e26_stereo_44KHz.wav
1	74	2	2	1	C	2	1	1070	1	poli_8sides 5_whiteLine3.jpg	MediumLong_e17_cut2_stereo_44KHz.wav
1	75	1	1	1	C	2	1	1047	1	poli_8sides 10_whiteLine3.jpg	Medium_e13_stereo_44KHz.wav
1	76	3	3	2	I	2	0	962	0	poli_8sides 8_whiteLine3.jpg	MediumLong_b10_cut2_L_stereo_44KHz.wav
1	77	4	3	2	I	2	0	1127	0	poli_8sides 16_whiteLine3.jpg	MediumLong_b10_cut2_L_stereo_44KHz.wav
1	78	2	1	0	C	1	1	950	1	poli_8sides 5_whiteLine3.jpg	Medium_e13_stereo_44KHz.wav
1	79	1	2	0	C	1	1	741	1	poli_8sides 10_whiteLine3.jpg	MediumLong_e17_cut2_stereo_44KHz.wav
1	80	3	4	2	I	2	0	1091	0	poli_8sides 8_whiteLine3.jpg	Medium_e26_stereo_44KHz.wav
1	81	4	4	2	I	1	0	934	1	poli_8sides 16_whiteLine3.jpg	Medium_e26_stereo_44KHz.wav
1	82	2	1	0	C	1	1	757	1	poli_8sides 5_whiteLine3.jpg	Medium_e13_stereo_44KHz.wav
1	83	3	4	2	I	2	0	683	0	poli_8sides 8_whiteLine3.jpg	Medium_e26_stereo_44KHz.wav
1	84	1	1	1	C	1	0	544	0	poli_8sides 10_whiteLine3.jpg	Medium_e13_stereo_44KHz.wav
1	85	4	3	2	I	1	0	1183	0	poli_8sides 16_whiteLine3.jpg	MediumLong_b10_cut2_L_stereo_44KHz.wav
1	86	2	2	1	C	2	1	936	1	poli_8sides 5_whiteLine3.jpg	MediumLong_e17_cut2_stereo_44KHz.wav
1	87	1	2	0	C	1	1	660	1	poli_8sides 10_whiteLine3.jpg	MediumLong_e17_cut2_stereo_44KHz.wav
1	88	3	3	2	I	2	0	922	1	poli_8sides 8_whiteLine3.jpg	MediumLong_b10_cut2_L_stereo_44KHz.wav
1	89	1	2	0	C	1	1	683	1	poli_8sides 10_whiteLine3.jpg	MediumLong_e17_cut2_stereo_44KHz.wav
1	90	2	2	1	C	2	1	902	1	poli_8sides 5_whiteLine3.jpg	MediumLong_e17_cut2_stereo_44KHz.wav
1	91	3	3	2	I	2	0	1079	0	poli_8sides 8_whiteLine3.jpg	MediumLong_b10_cut2_L_stereo_44KHz.wav
1	92	4	4	2	I	1	0	660	0	poli_8sides 16_whiteLine3.jpg	Medium_e26_stereo_44KHz.wav
1	93	3	4	2	I	2	0	758	1	poli_8sides 8_whiteLine3.jpg	Medium_e26_stereo_44KHz.wav
1	94	1	1	1	C	1	0	992	0	poli_8sides 10_whiteLine3.jpg	Medium_e13_stereo_44KHz.wav
1	95	4	3	2	I	2	0	989	0	poli_8sides 16_whiteLine3.jpg	MediumLong_b10_cut2_L_stereo_44KHz.wav
1	96	2	1	0	C	1	1	796	1	poli_8sides 5_whiteLine3.jpg	Medium_e13_stereo_44KHz.wav
1	97	3	3	2	I	2	0	859	0	poli_8sides 8_whiteLine3.jpg	MediumLong_b10_cut2_L_stereo_44KHz.wav
1	98	4	4	2	I	1	0	895	0	poli_8sides 16_whiteLine3.jpg	Medium_e26_stereo_44KHz.wav
1	99	2	1	0	C	1	1	723	1	poli_8sides 5_whiteLine3.jpg	Medium_e13_stereo_44KHz.wav
1	100	1	1	1	C	2	1	1000	1	poli_8sides 10_whiteLine3.jpg	Medium_e13_stereo_44KHz.wav
1	101	2	2	1	C	2	1	1145	1	poli_8sides 5_whiteLine3.jpg	MediumLong_e17_cut2_stereo_44KHz.wav
1	102	3	4	2	I	2	0	988	1	poli_8sides 8_whiteLine3.jpg	Medium_e26_stereo_44KHz.wav
1	103	1	2	0	C	1	1	1214	1	poli_8sides 10_whiteLine3.jpg	MediumLong_e17_cut2_stereo_44KHz.wav
1	104	4	3	2	I	1	0	1258	1	poli_8sides 16_whiteLine3.jpg	MediumLong_b10_cut2_L_stereo_44KHz.wav
1	105	2	2	1	C	2	1	1073	1	poli_8sides 5_whiteLine3.jpg	MediumLong_e17_cut2_stereo_44KHz.wav
1	106	4	3	2	I	1	0	722	1	poli_8sides 16_whiteLine3.jpg	MediumLong_b10_cut2_L_stereo_44KHz.wav
1	107	3	4	2	I	2	0	953	1	poli_8sides 8_whiteLine3.jpg	Medium_e26_stereo_44KHz.wav
1	108	1	1	1	C	1	0	894	0	poli_8sides 10_whiteLine3.jpg	Medium_e13_stereo_44KHz.wav
1	109	4	4	2	I	2	0	1363	1	poli_8sides 16_whiteLine3.jpg	Medium_e26_stereo_44KHz.wav
1	110	1	2	0	C	1	1	828	1	poli_8sides 10_whiteLine3.jpg	MediumLong_e17_cut2_stereo_44KHz.wav
1	111	3	3	2	I	1	0	1063	0	poli_8sides 8_whiteLine3.jpg	MediumLong_b10_cut2_L_stereo_44KHz.wav
1	112	2	1	0	C	1	1	962	1	poli_8sides 5_whiteLine3.jpg	Medium_e13_stereo_44KHz.wav
1	113	4	3	2	I	2	0	929	1	poli_8sides 16_whiteLine3.jpg	MediumLong_b10_cut2_L_stereo_44KHz.wav
1	114	1	2	0	C	1	1	941	1	poli_8sides 10_whiteLine3.jpg	MediumLong_e17_cut2_stereo_44KHz.wav
1	115	3	4	2	I	2	0	851	1	poli_8sides 8_whiteLine3.jpg	Medium_e26_stereo_44KHz.wav
1	116	2	1	0	C	1	1	846	1	poli_8sides 5_whiteLine3.jpg	Medium_e13_stereo_44KHz.wav
1	117	4	4	2	I	2	0	802	1	poli_8sides 16_whiteLine3.jpg	Medium_e26_stereo_44KHz.wav
1	118	3	3	2	I	1	0	751	1	poli_8sides 8_whiteLine3.jpg	MediumLong_b10_cut2_L_stereo_44KHz.wav
1	119	1	1	1	C	2	1	871	1	poli_8sides 10_whiteLine3.jpg	Medium_e13_stereo_44KHz.wav
1	120	2	2	1	C	1	0	1189	0	poli_8sides 5_whiteLine3.jpg	MediumLong_e17_cut2_stereo_44KHz.wav
1	121	3	3	2	I	2	0	866	1	poli_8sides 8_whiteLine3.jpg	MediumLong_b10_cut2_L_stereo_44KHz.wav
1	122	1	1	1	C	2	1	1369	1	poli_8sides 10_whiteLine3.jpg	Medium_e13_stereo_44KHz.wav
1	123	2	2	1	C	1	0	1459	0	poli_8sides 5_whiteLine3.jpg	MediumLong_e17_cut2_stereo_44KHz.wav
1	124	4	3	2	I	1	0	1158	0	poli_8sides 16_whiteLine3.jpg	MediumLong_b10_cut2_L_stereo_44KHz.wav
1	125	1	2	0	C	1	1	870	1	poli_8sides 10_whiteLine3.jpg	MediumLong_e17_cut2_stereo_44KHz.wav
1	126	2	1	0	C	2	0	724	0	poli_8sides 5_whiteLine3.jpg	Medium_e13_stereo_44KHz.wav
1	127	4	4	2	I	1	0	919	1	poli_8sides 16_whiteLine3.jpg	Medium_e26_stereo_44KHz.wav
1	128	3	4	2	I	1	0	978	1	poli_8sides 8_whiteLine3.jpg	Medium_e26_stereo_44KHz.wav
1	129	4	3	2	I	2	0	805	0	poli_8sides 16_whiteLine3.jpg	MediumLong_b10_cut2_L_stereo_44KHz.wav
1	130	1	2	0	C	1	1	1000	1	poli_8sides 10_whiteLine3.jpg	MediumLong_e17_cut2_stereo_44KHz.wav
1	131	2	1	0	C	0	0	0	0	poli_8sides 5_whiteLine3.jpg	Medium_e13_stereo_44KHz.wav
1	132	3	4	2	I	2	0	991	1	poli_8sides 8_whiteLine3.jpg	Medium_e26_stereo_44KHz.wav
1	133	2	2	1	C	1	0	891	0	poli_8sides 5_whiteLine3.jpg	MediumLong_e17_cut2_stereo_44KHz.wav
1	134	4	4	2	I	1	0	949	1	poli_8sides 16_whiteLine3.jpg	Medium_e26_stereo_44KHz.wav
1	135	3	3	2	I	2	0	731	1	poli_8sides 8_whiteLine3.jpg	MediumLong_b10_cut2_L_stereo_44KHz.wav
1	136	1	1	1	C	1	0	728	0	poli_8sides 10_whiteLine3.jpg	Medium_e13_stereo_44KHz.wav
1	137	4	4	2	I	1	0	917	1	poli_8sides 16_whiteLine3.jpg	Medium_e26_stereo_44KHz.wav
1	138	1	1	1	C	2	1	1351	1	poli_8sides 10_whiteLine3.jpg	Medium_e13_stereo_44KHz.wav
1	139	2	2	1	C	2	1	927	1	poli_8sides 5_whiteLine3.jpg	MediumLong_e17_cut2_stereo_44KHz.wav
1	140	3	4	2	I	1	0	1002	0	poli_8sides 8_whiteLine3.jpg	Medium_e26_stereo_44KHz.wav
1	141	2	1	0	C	2	0	959	0	poli_8sides 5_whiteLine3.jpg	Medium_e13_stereo_44KHz.wav
1	142	3	3	2	I	1	0	832	0	poli_8sides 8_whiteLine3.jpg	MediumLong_b10_cut2_L_stereo_44KHz.wav
1	143	4	3	2	I	1	0	761	1	poli_8sides 16_whiteLine3.jpg	MediumLong_b10_cut2_L_stereo_44KHz.wav
1	144	1	2	0	C	1	1	737	1	poli_8sides 10_whiteLine3.jpg	MediumLong_e17_cut2_stereo_44KHz.wav
1	145	2	2	1	C	2	1	980	1	poli_8sides 5_whiteLine3.jpg	MediumLong_e17_cut2_stereo_44KHz.wav
1	146	4	4	2	I	1	0	1305	0	poli_8sides 16_whiteLine3.jpg	Medium_e26_stereo_44KHz.wav
1	147	3	4	2	I	1	0	832	1	poli_8sides 8_whiteLine3.jpg	Medium_e26_stereo_44KHz.wav
1	148	1	1	1	C	2	1	1288	1	poli_8sides 10_whiteLine3.jpg	Medium_e13_stereo_44KHz.wav
1	149	2	1	0	C	1	1	1450	1	poli_8sides 5_whiteLine3.jpg	Medium_e13_stereo_44KHz.wav
1	150	1	2	0	C	1	1	1565	1	poli_8sides 10_whiteLine3.jpg	MediumLong_e17_cut2_stereo_44KHz.wav
1	151	3	3	2	I	1	0	1140	1	poli_8sides 8_whiteLine3.jpg	MediumLong_b10_cut2_L_stereo_44KHz.wav
1	152	4	3	2	I	2	0	904	1	poli_8sides 16_whiteLine3.jpg	MediumLong_b10_cut2_L_stereo_44KHz.wav
1	153	1	2	0	C	1	1	933	1	poli_8sides 10_whiteLine3.jpg	MediumLong_e17_cut2_stereo_44KHz.wav
1	154	3	3	2	I	1	0	1222	0	poli_8sides 8_whiteLine3.jpg	MediumLong_b10_cut2_L_stereo_44KHz.wav
1	155	2	1	0	C	2	0	1099	0	poli_8sides 5_whiteLine3.jpg	Medium_e13_stereo_44KHz.wav
1	156	4	4	2	I	2	0	1305	0	poli_8sides 16_whiteLine3.jpg	Medium_e26_stereo_44KHz.wav
1	157	2	2	1	C	2	1	1025	1	poli_8sides 5_whiteLine3.jpg	MediumLong_e17_cut2_stereo_44KHz.wav
1	158	3	4	2	I	2	0	1423	1	poli_8sides 8_whiteLine3.jpg	Medium_e26_stereo_44KHz.wav
1	159	1	1	1	C	1	0	837	0	poli_8sides 10_whiteLine3.jpg	Medium_e13_stereo_44KHz.wav
1	160	4	3	2	I	1	0	954	0	poli_8sides 16_whiteLine3.jpg	MediumLong_b10_cut2_L_stereo_44KHz.wav
1	161	3	4	2	I	1	0	1105	1	poli_8sides 8_whiteLine3.jpg	Medium_e26_stereo_44KHz.wav
1	162	2	1	0	C	1	1	939	1	poli_8sides 5_whiteLine3.jpg	Medium_e13_stereo_44KHz.wav
1	163	1	2	0	C	1	1	696	1	poli_8sides 10_whiteLine3.jpg	MediumLong_e17_cut2_stereo_44KHz.wav
1	164	4	4	2	I	1	0	800	0	poli_8sides 16_whiteLine3.jpg	Medium_e26_stereo_44KHz.wav
1	165	1	1	1	C	2	1	1156	1	poli_8sides 10_whiteLine3.jpg	Medium_e13_stereo_44KHz.wav
1	166	3	3	2	I	1	0	1088	1	poli_8sides 8_whiteLine3.jpg	MediumLong_b10_cut2_L_stereo_44KHz.wav
1	167	4	3	2	I	1	0	1436	0	poli_8sides 16_whiteLine3.jpg	MediumLong_b10_cut2_L_stereo_44KHz.wav
1	168	2	2	1	C	1	0	1248	0	poli_8sides 5_whiteLine3.jpg	MediumLong_e17_cut2_stereo_44KHz.wav
1	169	3	3	2	I	1	0	989	0	poli_8sides 8_whiteLine3.jpg	MediumLong_b10_cut2_L_stereo_44KHz.wav
1	170	4	3	2	I	1	0	954	0	poli_8sides 16_whiteLine3.jpg	MediumLong_b10_cut2_L_stereo_44KHz.wav
1	171	1	1	1	C	1	0	1343	0	poli_8sides 10_whiteLine3.jpg	Medium_e13_stereo_44KHz.wav
1	172	2	1	0	C	1	1	1112	1	poli_8sides 5_whiteLine3.jpg	Medium_e13_stereo_44KHz.wav
1	173	4	4	2	I	1	0	1032	1	poli_8sides 16_whiteLine3.jpg	Medium_e26_stereo_44KHz.wav
1	174	3	4	2	I	2	0	709	1	poli_8sides 8_whiteLine3.jpg	Medium_e26_stereo_44KHz.wav
1	175	2	2	1	C	2	1	1237	1	poli_8sides 5_whiteLine3.jpg	MediumLong_e17_cut2_stereo_44KHz.wav
1	176	1	2	0	C	1	1	960	1	poli_8sides 10_whiteLine3.jpg	MediumLong_e17_cut2_stereo_44KHz.wav
1	177	3	3	2	I	1	0	1092	0	poli_8sides 8_whiteLine3.jpg	MediumLong_b10_cut2_L_stereo_44KHz.wav
1	178	4	4	2	I	1	0	991	0	poli_8sides 16_whiteLine3.jpg	Medium_e26_stereo_44KHz.wav
1	179	1	2	0	C	1	1	1367	1	poli_8sides 10_whiteLine3.jpg	MediumLong_e17_cut2_stereo_44KHz.wav
1	180	2	2	1	C	2	1	910	1	poli_8sides 5_whiteLine3.jpg	MediumLong_e17_cut2_stereo_44KHz.wav
1	181	1	1	1	C	2	1	1238	1	poli_8sides 10_whiteLine3.jpg	Medium_e13_stereo_44KHz.wav
1	182	2	1	0	C	1	1	1089	1	poli_8sides 5_whiteLine3.jpg	Medium_e13_stereo_44KHz.wav
1	183	3	4	2	I	1	0	1005	0	poli_8sides 8_whiteLine3.jpg	Medium_e26_stereo_44KHz.wav
1	184	4	3	2	I	1	0	1369	0	poli_8sides 16_whiteLine3.jpg	MediumLong_b10_cut2_L_stereo_44KHz.wav
1	185	2	1	0	C	2	0	668	0	poli_8sides 5_whiteLine3.jpg	Medium_e13_stereo_44KHz.wav
1	186	3	3	2	I	1	0	799	0	poli_8sides 8_whiteLine3.jpg	MediumLong_b10_cut2_L_stereo_44KHz.wav
1	187	4	4	2	I	1	0	780	1	poli_8sides 16_whiteLine3.jpg	Medium_e26_stereo_44KHz.wav
1	188	1	1	1	C	2	1	1262	1	poli_8sides 10_whiteLine3.jpg	Medium_e13_stereo_44KHz.wav
1	189	3	4	2	I	2	0	1087	1	poli_8sides 8_whiteLine3.jpg	Medium_e26_stereo_44KHz.wav
1	190	4	3	2	I	2	0	1621	1	poli_8sides 16_whiteLine3.jpg	MediumLong_b10_cut2_L_stereo_44KHz.wav
1	191	1	2	0	C	0	0	0	0	poli_8sides 10_whiteLine3.jpg	MediumLong_e17_cut2_stereo_44KHz.wav
1	192	2	2	1	C	2	1	912	1	poli_8sides 5_whiteLine3.jpg	MediumLong_e17_cut2_stereo_44KHz.wav
1	193	4	4	2	I	1	0	864	1	poli_8sides 16_whiteLine3.jpg	Medium_e26_stereo_44KHz.wav
1	194	1	1	1	C	1	0	1529	0	poli_8sides 10_whiteLine3.jpg	Medium_e13_stereo_44KHz.wav
1	195	2	1	0	C	1	1	762	1	poli_8sides 5_whiteLine3.jpg	Medium_e13_stereo_44KHz.wav
1	196	3	3	2	I	2	0	757	1	poli_8sides 8_whiteLine3.jpg	MediumLong_b10_cut2_L_stereo_44KHz.wav
1	197	4	3	2	I	1	0	1137	1	poli_8sides 16_whiteLine3.jpg	MediumLong_b10_cut2_L_stereo_44KHz.wav
1	198	2	2	1	C	2	1	1436	1	poli_8sides 5_whiteLine3.jpg	MediumLong_e17_cut2_stereo_44KHz.wav
1	199	1	2	0	C	1	1	1955	1	poli_8sides 10_whiteLine3.jpg	MediumLong_e17_cut2_stereo_44KHz.wav
1	200	3	4	2	I	2	0	1211	1	poli_8sides 8_whiteLine3.jpg	Medium_e26_stereo_44KHz.wav
2	1	1	1	1	C	1	0	1147	0	poli_8sides 15_whiteLine3.jpg	Medium_e21_stereo_44KHz.wav
2	2	2	2	1	C	1	0	896	0	poli_8sides 7_whiteLine3.jpg	MediumLong_e19_stereo_44KHz.wav
2	3	4	3	2	I	1	0	747	0	poli_8sides 2_whiteLine3.jpg	Medium_e01_cut1_stereo_44KHz.wav
2	4	3	4	2	I	1	0	720	1	poli_8sides 4_whiteLine3.jpg	MediumLong_e04_stereo_44KHz.wav
2	5	4	4	2	I	2	0	690	1	poli_8sides 2_whiteLine3.jpg	MediumLong_e04_stereo_44KHz.wav
2	6	1	2	0	C	2	0	896	0	poli_8sides 15_whiteLine3.jpg	MediumLong_e19_stereo_44KHz.wav
2	7	3	3	2	I	1	0	720	1	poli_8sides 4_whiteLine3.jpg	Medium_e01_cut1_stereo_44KHz.wav
2	8	2	1	0	C	1	1	1231	1	poli_8sides 7_whiteLine3.jpg	Medium_e21_stereo_44KHz.wav
2	9	3	4	2	I	1	0	747	0	poli_8sides 4_whiteLine3.jpg	MediumLong_e04_stereo_44KHz.wav
2	10	2	1	0	C	1	1	863	1	poli_8sides 7_whiteLine3.jpg	Medium_e21_stereo_44KHz.wav
2	11	4	4	2	I	2	0	811	0	poli_8sides 2_whiteLine3.jpg	MediumLong_e04_stereo_44KHz.wav
2	12	1	2	0	C	1	1	1216	1	poli_8sides 15_whiteLine3.jpg	MediumLong_e19_stereo_44KHz.wav
2	13	2	2	1	C	2	1	812	1	poli_8sides 7_whiteLine3.jpg	MediumLong_e19_stereo_44KHz.wav
2	14	4	3	2	I	2	0	1133	1	poli_8sides 2_whiteLine3.jpg	Medium_e01_cut1_stereo_44KHz.wav
2	15	3	3	2	I	1	0	899	1	poli_8sides 4_whiteLine3.jpg	Medium_e01_cut1_stereo_44KHz.wav
2	16	1	1	1	C	2	1	879	1	poli_8sides 15_whiteLine3.jpg	Medium_e21_stereo_44KHz.wav
2	17	3	3	2	I	1	0	469	1	poli_8sides 4_whiteLine3.jpg	Medium_e01_cut1_stereo_44KHz.wav
2	18	1	2	0	C	1	1	925	1	poli_8sides 15_whiteLine3.jpg	MediumLong_e19_stereo_44KHz.wav
2	19	2	1	0	C	1	1	1054	1	poli_8sides 7_whiteLine3.jpg	Medium_e21_stereo_44KHz.wav
2	20	4	4	2	I	2	0	858	0	poli_8sides 2_whiteLine3.jpg	MediumLong_e04_stereo_44KHz.wav
2	21	3	4	2	I	1	0	607	1	poli_8sides 4_whiteLine3.jpg	MediumLong_e04_stereo_44KHz.wav
2	22	1	1	1	C	2	1	1333	1	poli_8sides 15_whiteLine3.jpg	Medium_e21_stereo_44KHz.wav
2	23	4	3	2	I	1	0	1120	1	poli_8sides 2_whiteLine3.jpg	Medium_e01_cut1_stereo_44KHz.wav
2	24	2	2	1	C	1	0	840	0	poli_8sides 7_whiteLine3.jpg	MediumLong_e19_stereo_44KHz.wav
2	25	3	4	2	I	1	0	682	1	poli_8sides 4_whiteLine3.jpg	MediumLong_e04_stereo_44KHz.wav
2	26	4	3	2	I	1	0	704	1	poli_8sides 2_whiteLine3.jpg	Medium_e01_cut1_stereo_44KHz.wav
2	27	1	1	1	C	1	0	1081	0	poli_8sides 15_whiteLine3.jpg	Medium_e21_stereo_44KHz.wav
2	28	2	2	1	C	1	0	877	0	poli_8sides 7_whiteLine3.jpg	MediumLong_e19_stereo_44KHz.wav
2	29	3	3	2	I	1	0	606	1	poli_8sides 4_whiteLine3.jpg	Medium_e01_cut1_stereo_44KHz.wav
2	30	1	2	0	C	1	1	1514	1	poli_8sides 15_whiteLine3.jpg	MediumLong_e19_stereo_44KHz.wav
2	31	4	4	2	I	1	0	836	1	poli_8sides 2_whiteLine3.jpg	MediumLong_e04_stereo_44KHz.wav
2	32	2	1	0	C	1	1	695	1	poli_8sides 7_whiteLine3.jpg	Medium_e21_stereo_44KHz.wav
2	33	1	1	1	C	2	1	1095	1	poli_8sides 15_whiteLine3.jpg	Medium_e21_stereo_44KHz.wav
2	34	2	2	1	C	2	1	1096	1	poli_8sides 7_whiteLine3.jpg	MediumLong_e19_stereo_44KHz.wav
2	35	3	3	2	I	1	0	1017	0	poli_8sides 4_whiteLine3.jpg	Medium_e01_cut1_stereo_44KHz.wav
2	36	4	4	2	I	2	0	750	1	poli_8sides 2_whiteLine3.jpg	MediumLong_e04_stereo_44KHz.wav
2	37	3	4	2	I	1	0	708	1	poli_8sides 4_whiteLine3.jpg	MediumLong_e04_stereo_44KHz.wav
2	38	2	1	0	C	1	1	1083	1	poli_8sides 7_whiteLine3.jpg	Medium_e21_stereo_44KHz.wav
2	39	4	3	2	I	1	0	866	0	poli_8sides 2_whiteLine3.jpg	Medium_e01_cut1_stereo_44KHz.wav
2	40	1	2	0	C	1	1	987	1	poli_8sides 15_whiteLine3.jpg	MediumLong_e19_stereo_44KHz.wav
2	41	3	4	2	I	1	0	603	1	poli_8sides 4_whiteLine3.jpg	MediumLong_e04_stereo_44KHz.wav
2	42	1	1	1	C	1	0	834	0	poli_8sides 15_whiteLine3.jpg	Medium_e21_stereo_44KHz.wav
2	43	2	2	1	C	2	1	976	1	poli_8sides 7_whiteLine3.jpg	MediumLong_e19_stereo_44KHz.wav
2	44	4	4	2	I	1	0	1404	1	poli_8sides 2_whiteLine3.jpg	MediumLong_e04_stereo_44KHz.wav
2	45	3	3	2	I	1	0	705	0	poli_8sides 4_whiteLine3.jpg	Medium_e01_cut1_stereo_44KHz.wav
2	46	2	1	0	C	1	1	906	1	poli_8sides 7_whiteLine3.jpg	Medium_e21_stereo_44KHz.wav
2	47	4	3	2	I	1	0	895	0	poli_8sides 2_whiteLine3.jpg	Medium_e01_cut1_stereo_44KHz.wav
2	48	1	2	0	C	1	1	836	1	poli_8sides 15_whiteLine3.jpg	MediumLong_e19_stereo_44KHz.wav
2	49	3	4	2	I	1	0	722	1	poli_8sides 4_whiteLine3.jpg	MediumLong_e04_stereo_44KHz.wav
2	50	4	4	2	I	2	0	1207	0	poli_8sides 2_whiteLine3.jpg	MediumLong_e04_stereo_44KHz.wav
2	51	2	1	0	C	1	1	1016	1	poli_8sides 7_whiteLine3.jpg	Medium_e21_stereo_44KHz.wav
2	52	1	1	1	C	1	0	1049	0	poli_8sides 15_whiteLine3.jpg	Medium_e21_stereo_44KHz.wav
2	53	2	2	1	C	2	1	1117	1	poli_8sides 7_whiteLine3.jpg	MediumLong_e19_stereo_44KHz.wav
2	54	1	2	0	C	1	1	1169	1	poli_8sides 15_whiteLine3.jpg	MediumLong_e19_stereo_44KHz.wav
2	55	3	3	2	I	1	0	884	0	poli_8sides 4_whiteLine3.jpg	Medium_e01_cut1_stereo_44KHz.wav
2	56	4	3	2	I	1	0	776	1	poli_8sides 2_whiteLine3.jpg	Medium_e01_cut1_stereo_44KHz.wav
2	57	1	2	0	C	1	1	1172	1	poli_8sides 15_whiteLine3.jpg	MediumLong_e19_stereo_44KHz.wav
2	58	4	3	2	I	1	0	831	1	poli_8sides 2_whiteLine3.jpg	Medium_e01_cut1_stereo_44KHz.wav
2	59	2	2	1	C	1	0	1509	0	poli_8sides 7_whiteLine3.jpg	MediumLong_e19_stereo_44KHz.wav
2	60	3	3	2	I	1	0	926	1	poli_8sides 4_whiteLine3.jpg	Medium_e01_cut1_stereo_44KHz.wav
2	61	1	1	1	C	1	0	1783	0	poli_8sides 15_whiteLine3.jpg	Medium_e21_stereo_44KHz.wav
2	62	2	1	0	C	1	1	810	1	poli_8sides 7_whiteLine3.jpg	Medium_e21_stereo_44KHz.wav
2	63	4	4	2	I	1	0	988	1	poli_8sides 2_whiteLine3.jpg	MediumLong_e04_stereo_44KHz.wav
2	64	3	4	2	I	1	0	745	0	poli_8sides 4_whiteLine3.jpg	MediumLong_e04_stereo_44KHz.wav
2	65	2	1	0	C	1	1	917	1	poli_8sides 7_whiteLine3.jpg	Medium_e21_stereo_44KHz.wav
2	66	4	3	2	I	1	0	1249	1	poli_8sides 2_whiteLine3.jpg	Medium_e01_cut1_stereo_44KHz.wav
2	67	3	4	2	I	1	0	592	1	poli_8sides 4_whiteLine3.jpg	MediumLong_e04_stereo_44KHz.wav
2	68	1	2	0	C	1	1	944	1	poli_8sides 15_whiteLine3.jpg	MediumLong_e19_stereo_44KHz.wav
2	69	4	4	2	I	2	0	1119	0	poli_8sides 2_whiteLine3.jpg	MediumLong_e04_stereo_44KHz.wav
2	70	3	3	2	I	2	0	1222	1	poli_8sides 4_whiteLine3.jpg	Medium_e01_cut1_stereo_44KHz.wav
2	71	1	1	1	C	1	0	1662	0	poli_8sides 15_whiteLine3.jpg	Medium_e21_stereo_44KHz.wav
2	72	2	2	1	C	2	1	1255	1	poli_8sides 7_whiteLine3.jpg	MediumLong_e19_stereo_44KHz.wav
2	73	3	3	2	I	1	0	794	1	poli_8sides 4_whiteLine3.jpg	Medium_e01_cut1_stereo_44KHz.wav
2	74	2	1	0	C	1	1	973	1	poli_8sides 7_whiteLine3.jpg	Medium_e21_stereo_44KHz.wav
2	75	4	3	2	I	1	0	1107	0	poli_8sides 2_whiteLine3.jpg	Medium_e01_cut1_stereo_44KHz.wav
2	76	1	2	0	C	1	1	1097	1	poli_8sides 15_whiteLine3.jpg	MediumLong_e19_stereo_44KHz.wav
2	77	4	4	2	I	2	0	1106	1	poli_8sides 2_whiteLine3.jpg	MediumLong_e04_stereo_44KHz.wav
2	78	3	4	2	I	1	0	1331	1	poli_8sides 4_whiteLine3.jpg	MediumLong_e04_stereo_44KHz.wav
2	79	1	1	1	C	1	0	1079	0	poli_8sides 15_whiteLine3.jpg	Medium_e21_stereo_44KHz.wav
2	80	2	2	1	C	2	1	1098	1	poli_8sides 7_whiteLine3.jpg	MediumLong_e19_stereo_44KHz.wav
2	81	4	4	2	I	2	0	1245	1	poli_8sides 2_whiteLine3.jpg	MediumLong_e04_stereo_44KHz.wav
2	82	2	1	0	C	1	1	1449	1	poli_8sides 7_whiteLine3.jpg	Medium_e21_stereo_44KHz.wav
2	83	3	4	2	I	1	0	673	0	poli_8sides 4_whiteLine3.jpg	MediumLong_e04_stereo_44KHz.wav
2	84	1	1	1	C	2	1	1418	1	poli_8sides 15_whiteLine3.jpg	Medium_e21_stereo_44KHz.wav
2	85	3	3	2	I	1	0	685	1	poli_8sides 4_whiteLine3.jpg	Medium_e01_cut1_stereo_44KHz.wav
2	86	2	2	1	C	2	1	1367	1	poli_8sides 7_whiteLine3.jpg	MediumLong_e19_stereo_44KHz.wav
2	87	4	3	2	I	1	0	1482	0	poli_8sides 2_whiteLine3.jpg	Medium_e01_cut1_stereo_44KHz.wav
2	88	1	2	0	C	1	1	1609	1	poli_8sides 15_whiteLine3.jpg	MediumLong_e19_stereo_44KHz.wav
2	89	4	4	2	I	2	0	1467	1	poli_8sides 2_whiteLine3.jpg	MediumLong_e04_stereo_44KHz.wav
2	90	2	2	1	C	2	1	1516	1	poli_8sides 7_whiteLine3.jpg	MediumLong_e19_stereo_44KHz.wav
2	91	1	1	1	C	1	0	1854	0	poli_8sides 15_whiteLine3.jpg	Medium_e21_stereo_44KHz.wav
2	92	3	3	2	I	2	0	1611	0	poli_8sides 4_whiteLine3.jpg	Medium_e01_cut1_stereo_44KHz.wav
2	93	4	3	2	I	1	0	1459	0	poli_8sides 2_whiteLine3.jpg	Medium_e01_cut1_stereo_44KHz.wav
2	94	2	1	0	C	1	1	951	1	poli_8sides 7_whiteLine3.jpg	Medium_e21_stereo_44KHz.wav
2	95	3	4	2	I	1	0	1052	0	poli_8sides 4_whiteLine3.jpg	MediumLong_e04_stereo_44KHz.wav
2	96	1	2	0	C	1	1	1051	1	poli_8sides 15_whiteLine3.jpg	MediumLong_e19_stereo_44KHz.wav
2	97	2	1	0	C	1	1	1722	1	poli_8sides 7_whiteLine3.jpg	Medium_e21_stereo_44KHz.wav
2	98	1	2	0	C	1	1	1285	1	poli_8sides 15_whiteLine3.jpg	MediumLong_e19_stereo_44KHz.wav
2	99	4	4	2	I	1	0	1500	0	poli_8sides 2_whiteLine3.jpg	MediumLong_e04_stereo_44KHz.wav
2	100	3	3	2	I	2	0	651	0	poli_8sides 4_whiteLine3.jpg	Medium_e01_cut1_stereo_44KHz.wav
2	101	1	1	1	C	2	1	1228	1	poli_8sides 15_whiteLine3.jpg	Medium_e21_stereo_44KHz.wav
2	102	2	2	1	C	2	1	1343	1	poli_8sides 7_whiteLine3.jpg	MediumLong_e19_stereo_44KHz.wav
2	103	4	3	2	I	1	0	1357	1	poli_8sides 2_whiteLine3.jpg	Medium_e01_cut1_stereo_44KHz.wav
2	104	3	4	2	I	1	0	1275	1	poli_8sides 4_whiteLine3.jpg	MediumLong_e04_stereo_44KHz.wav
2	105	2	1	0	C	1	1	1905	1	poli_8sides 7_whiteLine3.jpg	Medium_e21_stereo_44KHz.wav
2	106	3	3	2	I	0	0	0	0	poli_8sides 4_whiteLine3.jpg	Medium_e01_cut1_stereo_44KHz.wav
2	107	1	2	0	C	1	1	1332	1	poli_8sides 15_whiteLine3.jpg	MediumLong_e19_stereo_44KHz.wav
2	108	4	4	2	I	1	0	1324	1	poli_8sides 2_whiteLine3.jpg	MediumLong_e04_stereo_44KHz.wav
2	109	3	4	2	I	1	0	1030	0	poli_8sides 4_whiteLine3.jpg	MediumLong_e04_stereo_44KHz.wav
2	110	1	1	1	C	2	1	1419	1	poli_8sides 15_whiteLine3.jpg	Medium_e21_stereo_44KHz.wav
2	111	2	2	1	C	2	1	1409	1	poli_8sides 7_whiteLine3.jpg	MediumLong_e19_stereo_44KHz.wav
2	112	4	3	2	I	1	0	1186	0	poli_8sides 2_whiteLine3.jpg	Medium_e01_cut1_stereo_44KHz.wav
2	113	3	4	2	I	1	0	558	1	poli_8sides 4_whiteLine3.jpg	MediumLong_e04_stereo_44KHz.wav
2	114	1	2	0	C	1	1	1396	1	poli_8sides 15_whiteLine3.jpg	MediumLong_e19_stereo_44KHz.wav
2	115	2	2	1	C	2	1	1837	1	poli_8sides 7_whiteLine3.jpg	MediumLong_e19_stereo_44KHz.wav
2	116	4	3	2	I	1	0	815	0	poli_8sides 2_whiteLine3.jpg	Medium_e01_cut1_stereo_44KHz.wav
2	117	3	3	2	I	2	0	1087	0	poli_8sides 4_whiteLine3.jpg	Medium_e01_cut1_stereo_44KHz.wav
2	118	4	4	2	I	1	0	1495	1	poli_8sides 2_whiteLine3.jpg	MediumLong_e04_stereo_44KHz.wav
2	119	2	1	0	C	1	1	1236	1	poli_8sides 7_whiteLine3.jpg	Medium_e21_stereo_44KHz.wav
2	120	1	1	1	C	2	1	1371	1	poli_8sides 15_whiteLine3.jpg	Medium_e21_stereo_44KHz.wav
2	121	2	2	1	C	2	1	1005	1	poli_8sides 7_whiteLine3.jpg	MediumLong_e19_stereo_44KHz.wav
2	122	1	1	1	C	2	1	1121	1	poli_8sides 15_whiteLine3.jpg	Medium_e21_stereo_44KHz.wav
2	123	3	3	2	I	1	0	926	0	poli_8sides 4_whiteLine3.jpg	Medium_e01_cut1_stereo_44KHz.wav
2	124	4	3	2	I	1	0	697	0	poli_8sides 2_whiteLine3.jpg	Medium_e01_cut1_stereo_44KHz.wav
2	125	3	4	2	I	1	0	749	0	poli_8sides 4_whiteLine3.jpg	MediumLong_e04_stereo_44KHz.wav
2	126	2	1	0	C	1	1	1248	1	poli_8sides 7_whiteLine3.jpg	Medium_e21_stereo_44KHz.wav
2	127	4	4	2	I	1	0	1468	1	poli_8sides 2_whiteLine3.jpg	MediumLong_e04_stereo_44KHz.wav
2	128	1	2	0	C	0	0	0	0	poli_8sides 15_whiteLine3.jpg	MediumLong_e19_stereo_44KHz.wav
2	129	3	3	2	I	1	0	1106	0	poli_8sides 4_whiteLine3.jpg	Medium_e01_cut1_stereo_44KHz.wav
2	130	2	2	1	C	2	1	1028	1	poli_8sides 7_whiteLine3.jpg	MediumLong_e19_stereo_44KHz.wav
2	131	1	1	1	C	1	0	1201	0	poli_8sides 15_whiteLine3.jpg	Medium_e21_stereo_44KHz.wav
2	132	4	3	2	I	1	0	776	0	poli_8sides 2_whiteLine3.jpg	Medium_e01_cut1_stereo_44KHz.wav
2	133	2	1	0	C	1	1	1041	1	poli_8sides 7_whiteLine3.jpg	Medium_e21_stereo_44KHz.wav
2	134	1	2	0	C	1	1	938	1	poli_8sides 15_whiteLine3.jpg	MediumLong_e19_stereo_44KHz.wav
2	135	4	4	2	I	2	0	1259	0	poli_8sides 2_whiteLine3.jpg	MediumLong_e04_stereo_44KHz.wav
2	136	3	4	2	I	1	0	1491	1	poli_8sides 4_whiteLine3.jpg	MediumLong_e04_stereo_44KHz.wav
2	137	1	1	1	C	2	1	1161	1	poli_8sides 15_whiteLine3.jpg	Medium_e21_stereo_44KHz.wav
2	138	2	1	0	C	1	1	1124	1	poli_8sides 7_whiteLine3.jpg	Medium_e21_stereo_44KHz.wav
2	139	3	3	2	I	1	0	1276	0	poli_8sides 4_whiteLine3.jpg	Medium_e01_cut1_stereo_44KHz.wav
2	140	4	3	2	I	1	0	1001	1	poli_8sides 2_whiteLine3.jpg	Medium_e01_cut1_stereo_44KHz.wav
2	141	2	2	1	C	1	0	1688	0	poli_8sides 7_whiteLine3.jpg	MediumLong_e19_stereo_44KHz.wav
2	142	1	2	0	C	1	1	1274	1	poli_8sides 15_whiteLine3.jpg	MediumLong_e19_stereo_44KHz.wav
2	143	4	4	2	I	1	0	875	0	poli_8sides 2_whiteLine3.jpg	MediumLong_e04_stereo_44KHz.wav
2	144	3	4	2	I	1	0	920	0	poli_8sides 4_whiteLine3.jpg	MediumLong_e04_stereo_44KHz.wav
2	145	2	2	1	C	0	0	0	0	poli_8sides 7_whiteLine3.jpg	MediumLong_e19_stereo_44KHz.wav
2	146	4	3	2	I	1	0	834	1	poli_8sides 2_whiteLine3.jpg	Medium_e01_cut1_stereo_44KHz.wav
2	147	1	1	1	C	2	1	1428	1	poli_8sides 15_whiteLine3.jpg	Medium_e21_stereo_44KHz.wav
2	148	3	4	2	I	1	0	770	0	poli_8sides 4_whiteLine3.jpg	MediumLong_e04_stereo_44KHz.wav
2	149	4	4	2	I	1	0	1398	0	poli_8sides 2_whiteLine3.jpg	MediumLong_e04_stereo_44KHz.wav
2	150	2	1	0	C	1	1	1253	1	poli_8sides 7_whiteLine3.jpg	Medium_e21_stereo_44KHz.wav
2	151	1	2	0	C	1	1	1523	1	poli_8sides 15_whiteLine3.jpg	MediumLong_e19_stereo_44KHz.wav
2	152	3	3	2	I	1	0	1257	0	poli_8sides 4_whiteLine3.jpg	Medium_e01_cut1_stereo_44KHz.wav
2	153	1	1	1	C	1	0	1535	0	poli_8sides 15_whiteLine3.jpg	Medium_e21_stereo_44KHz.wav
2	154	3	4	2	I	1	0	793	0	poli_8sides 4_whiteLine3.jpg	MediumLong_e04_stereo_44KHz.wav
2	155	2	2	1	C	1	0	1426	0	poli_8sides 7_whiteLine3.jpg	MediumLong_e19_stereo_44KHz.wav
2	156	4	3	2	I	1	0	669	1	poli_8sides 2_whiteLine3.jpg	Medium_e01_cut1_stereo_44KHz.wav
2	157	2	1	0	C	1	1	1387	1	poli_8sides 7_whiteLine3.jpg	Medium_e21_stereo_44KHz.wav
2	158	4	4	2	I	2	0	1865	0	poli_8sides 2_whiteLine3.jpg	MediumLong_e04_stereo_44KHz.wav
2	159	3	3	2	I	1	0	1081	1	poli_8sides 4_whiteLine3.jpg	Medium_e01_cut1_stereo_44KHz.wav
2	160	1	2	0	C	1	1	1455	1	poli_8sides 15_whiteLine3.jpg	MediumLong_e19_stereo_44KHz.wav
2	161	2	2	1	C	2	1	1344	1	poli_8sides 7_whiteLine3.jpg	MediumLong_e19_stereo_44KHz.wav
2	162	3	3	2	I	1	0	1897	1	poli_8sides 4_whiteLine3.jpg	Medium_e01_cut1_stereo_44KHz.wav
2	163	1	1	1	C	0	0	0	0	poli_8sides 15_whiteLine3.jpg	Medium_e21_stereo_44KHz.wav
2	164	4	3	2	I	1	0	983	1	poli_8sides 2_whiteLine3.jpg	Medium_e01_cut1_stereo_44KHz.wav
2	165	1	2	0	C	1	1	1579	1	poli_8sides 15_whiteLine3.jpg	MediumLong_e19_stereo_44KHz.wav
2	166	4	4	2	I	2	0	970	0	poli_8sides 2_whiteLine3.jpg	MediumLong_e04_stereo_44KHz.wav
2	167	3	4	2	I	1	0	689	1	poli_8sides 4_whiteLine3.jpg	MediumLong_e04_stereo_44KHz.wav
2	168	2	1	0	C	1	1	951	1	poli_8sides 7_whiteLine3.jpg	Medium_e21_stereo_44KHz.wav
2	169	3	3	2	I	1	0	1239	0	poli_8sides 4_whiteLine3.jpg	Medium_e01_cut1_stereo_44KHz.wav
2	170	4	3	2	I	1	0	651	1	poli_8sides 2_whiteLine3.jpg	Medium_e01_cut1_stereo_44KHz.wav
2	171	1	2	0	C	2	0	1254	0	poli_8sides 15_whiteLine3.jpg	MediumLong_e19_stereo_44KHz.wav
2	172	2	1	0	C	1	1	913	1	poli_8sides 7_whiteLine3.jpg	Medium_e21_stereo_44KHz.wav
2	173	3	4	2	I	1	0	1299	0	poli_8sides 4_whiteLine3.jpg	MediumLong_e04_stereo_44KHz.wav
2	174	2	2	1	C	2	1	1070	1	poli_8sides 7_whiteLine3.jpg	MediumLong_e19_stereo_44KHz.wav
2	175	4	4	2	I	1	0	1111	0	poli_8sides 2_whiteLine3.jpg	MediumLong_e04_stereo_44KHz.wav
2	176	1	1	1	C	2	1	1782	1	poli_8sides 15_whiteLine3.jpg	Medium_e21_stereo_44KHz.wav
2	177	4	3	2	I	1	0	1473	0	poli_8sides 2_whiteLine3.jpg	Medium_e01_cut1_stereo_44KHz.wav
2	178	1	2	0	C	0	0	0	0	poli_8sides 15_whiteLine3.jpg	MediumLong_e19_stereo_44KHz.wav
2	179	3	3	2	I	1	0	1220	1	poli_8sides 4_whiteLine3.jpg	Medium_e01_cut1_stereo_44KHz.wav
2	180	2	1	0	C	1	1	1775	1	poli_8sides 7_whiteLine3.jpg	Medium_e21_stereo_44KHz.wav
2	181	1	1	1	C	2	1	1441	1	poli_8sides 15_whiteLine3.jpg	Medium_e21_stereo_44KHz.wav
2	182	3	4	2	I	1	0	741	1	poli_8sides 4_whiteLine3.jpg	MediumLong_e04_stereo_44KHz.wav
2	183	4	4	2	I	2	0	996	0	poli_8sides 2_whiteLine3.jpg	MediumLong_e04_stereo_44KHz.wav
2	184	2	2	1	C	2	1	958	1	poli_8sides 7_whiteLine3.jpg	MediumLong_e19_stereo_44KHz.wav
2	185	3	3	2	I	1	0	635	1	poli_8sides 4_whiteLine3.jpg	Medium_e01_cut1_stereo_44KHz.wav
2	186	2	1	0	C	1	1	1015	1	poli_8sides 7_whiteLine3.jpg	Medium_e21_stereo_44KHz.wav
2	187	1	1	1	C	1	0	1501	0	poli_8sides 15_whiteLine3.jpg	Medium_e21_stereo_44KHz.wav
2	188	4	4	2	I	2	0	1098	0	poli_8sides 2_whiteLine3.jpg	MediumLong_e04_stereo_44KHz.wav
2	189	1	2	0	C	1	1	1182	1	poli_8sides 15_whiteLine3.jpg	MediumLong_e19_stereo_44KHz.wav
2	190	3	4	2	I	1	0	1474	0	poli_8sides 4_whiteLine3.jpg	MediumLong_e04_stereo_44KHz.wav
2	191	4	3	2	I	1	0	1246	1	poli_8sides 2_whiteLine3.jpg	Medium_e01_cut1_stereo_44KHz.wav
2	192	2	2	1	C	1	0	1054	0	poli_8sides 7_whiteLine3.jpg	MediumLong_e19_stereo_44KHz.wav
2	193	1	1	1	C	1	0	1415	0	poli_8sides 15_whiteLine3.jpg	Medium_e21_stereo_44KHz.wav
2	194	2	2	1	C	2	1	833	1	poli_8sides 7_whiteLine3.jpg	MediumLong_e19_stereo_44KHz.wav
2	195	4	4	2	I	2	0	1298	0	poli_8sides 2_whiteLine3.jpg	MediumLong_e04_stereo_44KHz.wav
2	196	3	4	2	I	1	0	836	0	poli_8sides 4_whiteLine3.jpg	MediumLong_e04_stereo_44KHz.wav
2	197	4	3	2	I	1	0	1426	1	poli_8sides 2_whiteLine3.jpg	Medium_e01_cut1_stereo_44KHz.wav
2	198	2	1	0	C	1	1	1165	1	poli_8sides 7_whiteLine3.jpg	Medium_e21_stereo_44KHz.wav
2	199	3	3	2	I	0	0	0	0	poli_8sides 4_whiteLine3.jpg	Medium_e01_cut1_stereo_44KHz.wav
2	200	1	2	0	C	2	0	1146	0	poli_8sides 15_whiteLine3.jpg	MediumLong_e19_stereo_44KHz.wav
3	1	2	1	0	C	1	1	974	1	poli_8sides 3_whiteLine3.jpg	MediumShort_e16_cut1_stereo_44KHz.wav
3	2	4	4	2	I	1	0	861	1	poli_8sides 11_whiteLine3.jpg	MediumShort_b16_cut3_MS_stereo_44KHz.wav
3	3	1	2	0	C	1	1	904	1	poli_8sides 18_whiteLine3.jpg	MediumShort_b10_cut1_MS_stereo_44KHz.wav
3	4	3	4	2	I	2	0	833	0	poli_8sides 9_whiteLine3.jpg	MediumShort_b16_cut3_MS_stereo_44KHz.wav
3	5	1	1	1	C	1	0	532	0	poli_8sides 18_whiteLine3.jpg	MediumShort_e16_cut1_stereo_44KHz.wav
3	6	2	2	1	C	1	0	694	0	poli_8sides 3_whiteLine3.jpg	MediumShort_b10_cut1_MS_stereo_44KHz.wav
3	7	4	3	2	I	1	0	615	0	poli_8sides 11_whiteLine3.jpg	MediumShort_e22_cut1_stereo_44KHz.wav
3	8	3	3	2	I	1	0	393	1	poli_8sides 9_whiteLine3.jpg	MediumShort_e22_cut1_stereo_44KHz.wav
3	9	2	1	0	C	1	1	675	1	poli_8sides 3_whiteLine3.jpg	MediumShort_e16_cut1_stereo_44KHz.wav
3	10	4	3	2	I	2	0	858	0	poli_8sides 11_whiteLine3.jpg	MediumShort_e22_cut1_stereo_44KHz.wav
3	11	3	4	2	I	1	0	829	0	poli_8sides 9_whiteLine3.jpg	MediumShort_b16_cut3_MS_stereo_44KHz.wav
3	12	1	1	1	C	2	1	1068	1	poli_8sides 18_whiteLine3.jpg	MediumShort_e16_cut1_stereo_44KHz.wav
3	13	2	2	1	C	1	0	1447	0	poli_8sides 3_whiteLine3.jpg	MediumShort_b10_cut1_MS_stereo_44KHz.wav
3	14	4	4	2	I	2	0	981	0	poli_8sides 11_whiteLine3.jpg	MediumShort_b16_cut3_MS_stereo_44KHz.wav
3	15	1	2	0	C	1	1	635	1	poli_8sides 18_whiteLine3.jpg	MediumShort_b10_cut1_MS_stereo_44KHz.wav
3	16	3	3	2	I	1	0	1026	1	poli_8sides 9_whiteLine3.jpg	MediumShort_e22_cut1_stereo_44KHz.wav
3	17	2	2	1	C	1	0	864	0	poli_8sides 3_whiteLine3.jpg	MediumShort_b10_cut1_MS_stereo_44KHz.wav
3	18	1	2	0	C	1	1	638	1	poli_8sides 18_whiteLine3.jpg	MediumShort_b10_cut1_MS_stereo_44KHz.wav
3	19	3	3	2	I	1	0	824	1	poli_8sides 9_whiteLine3.jpg	MediumShort_e22_cut1_stereo_44KHz.wav
3	20	4	4	2	I	2	0	840	1	poli_8sides 11_whiteLine3.jpg	MediumShort_b16_cut3_MS_stereo_44KHz.wav
3	21	1	1	1	C	2	1	934	1	poli_8sides 18_whiteLine3.jpg	MediumShort_e16_cut1_stereo_44KHz.wav
3	22	2	1	0	C	1	1	1262	1	poli_8sides 3_whiteLine3.jpg	MediumShort_e16_cut1_stereo_44KHz.wav
3	23	4	3	2	I	2	0	846	1	poli_8sides 11_whiteLine3.jpg	MediumShort_e22_cut1_stereo_44KHz.wav
3	24	3	4	2	I	1	0	750	0	poli_8sides 9_whiteLine3.jpg	MediumShort_b16_cut3_MS_stereo_44KHz.wav
3	25	1	1	1	C	2	1	1205	1	poli_8sides 18_whiteLine3.jpg	MediumShort_e16_cut1_stereo_44KHz.wav
3	26	3	4	2	I	1	0	734	1	poli_8sides 9_whiteLine3.jpg	MediumShort_b16_cut3_MS_stereo_44KHz.wav
3	27	2	2	1	C	2	1	996	1	poli_8sides 3_whiteLine3.jpg	MediumShort_b10_cut1_MS_stereo_44KHz.wav
3	28	4	4	2	I	2	0	1024	0	poli_8sides 11_whiteLine3.jpg	MediumShort_b16_cut3_MS_stereo_44KHz.wav
3	29	2	1	0	C	1	1	973	1	poli_8sides 3_whiteLine3.jpg	MediumShort_e16_cut1_stereo_44KHz.wav
3	30	3	3	2	I	1	0	844	0	poli_8sides 9_whiteLine3.jpg	MediumShort_e22_cut1_stereo_44KHz.wav
3	31	4	3	2	I	2	0	943	0	poli_8sides 11_whiteLine3.jpg	MediumShort_e22_cut1_stereo_44KHz.wav
3	32	1	2	0	C	1	1	940	1	poli_8sides 18_whiteLine3.jpg	MediumShort_b10_cut1_MS_stereo_44KHz.wav
3	33	2	1	0	C	1	1	899	1	poli_8sides 3_whiteLine3.jpg	MediumShort_e16_cut1_stereo_44KHz.wav
3	34	4	3	2	I	2	0	1177	0	poli_8sides 11_whiteLine3.jpg	MediumShort_e22_cut1_stereo_44KHz.wav
3	35	1	2	0	C	1	1	724	1	poli_8sides 18_whiteLine3.jpg	MediumShort_b10_cut1_MS_stereo_44KHz.wav
3	36	3	3	2	I	1	0	904	0	poli_8sides 9_whiteLine3.jpg	MediumShort_e22_cut1_stereo_44KHz.wav
3	37	4	4	2	I	2	0	1189	1	poli_8sides 11_whiteLine3.jpg	MediumShort_b16_cut3_MS_stereo_44KHz.wav
3	38	2	2	1	C	2	1	1011	1	poli_8sides 3_whiteLine3.jpg	MediumShort_b10_cut1_MS_stereo_44KHz.wav
3	39	1	1	1	C	2	1	940	1	poli_8sides 18_whiteLine3.jpg	MediumShort_e16_cut1_stereo_44KHz.wav
3	40	3	4	2	I	1	0	1013	0	poli_8sides 9_whiteLine3.jpg	MediumShort_b16_cut3_MS_stereo_44KHz.wav
3	41	2	2	1	C	2	1	1044	1	poli_8sides 3_whiteLine3.jpg	MediumShort_b10_cut1_MS_stereo_44KHz.wav
3	42	1	1	1	C	2	1	824	1	poli_8sides 18_whiteLine3.jpg	MediumShort_e16_cut1_stereo_44KHz.wav
3	43	3	3	2	I	1	0	1035	0	poli_8sides 9_whiteLine3.jpg	MediumShort_e22_cut1_stereo_44KHz.wav
3	44	4	4	2	I	2	0	1364	0	poli_8sides 11_whiteLine3.jpg	MediumShort_b16_cut3_MS_stereo_44KHz.wav
3	45	2	1	0	C	1	1	1161	1	poli_8sides 3_whiteLine3.jpg	MediumShort_e16_cut1_stereo_44KHz.wav
3	46	4	3	2	I	2	0	943	0	poli_8sides 11_whiteLine3.jpg	MediumShort_e22_cut1_stereo_44KHz.wav
3	47	1	2	0	C	2	0	1043	0	poli_8sides 18_whiteLine3.jpg	MediumShort_b10_cut1_MS_stereo_44KHz.wav
3	48	3	4	2	I	1	0	996	0	poli_8sides 9_whiteLine3.jpg	MediumShort_b16_cut3_MS_stereo_44KHz.wav
3	49	4	4	2	I	2	0	1146	1	poli_8sides 11_whiteLine3.jpg	MediumShort_b16_cut3_MS_stereo_44KHz.wav
3	50	1	1	1	C	2	1	912	1	poli_8sides 18_whiteLine3.jpg	MediumShort_e16_cut1_stereo_44KHz.wav
3	51	3	3	2	I	1	0	968	1	poli_8sides 9_whiteLine3.jpg	MediumShort_e22_cut1_stereo_44KHz.wav
3	52	2	1	0	C	1	1	888	1	poli_8sides 3_whiteLine3.jpg	MediumShort_e16_cut1_stereo_44KHz.wav
3	53	4	3	2	I	2	0	847	0	poli_8sides 11_whiteLine3.jpg	MediumShort_e22_cut1_stereo_44KHz.wav
3	54	2	2	1	C	2	1	780	1	poli_8sides 3_whiteLine3.jpg	MediumShort_b10_cut1_MS_stereo_44KHz.wav
3	55	1	2	0	C	1	1	1147	1	poli_8sides 18_whiteLine3.jpg	MediumShort_b10_cut1_MS_stereo_44KHz.wav
3	56	3	4	2	I	1	0	1495	1	poli_8sides 9_whiteLine3.jpg	MediumShort_b16_cut3_MS_stereo_44KHz.wav
3	57	4	4	2	I	2	0	660	1	poli_8sides 11_whiteLine3.jpg	MediumShort_b16_cut3_MS_stereo_44KHz.wav
3	58	3	4	2	I	1	0	691	0	poli_8sides 9_whiteLine3.jpg	MediumShort_b16_cut3_MS_stereo_44KHz.wav
3	59	2	2	1	C	2	1	915	1	poli_8sides 3_whiteLine3.jpg	MediumShort_b10_cut1_MS_stereo_44KHz.wav
3	60	1	2	0	C	1	1	925	1	poli_8sides 18_whiteLine3.jpg	MediumShort_b10_cut1_MS_stereo_44KHz.wav
3	61	2	1	0	C	1	1	882	1	poli_8sides 3_whiteLine3.jpg	MediumShort_e16_cut1_stereo_44KHz.wav
3	62	3	3	2	I	1	0	987	0	poli_8sides 9_whiteLine3.jpg	MediumShort_e22_cut1_stereo_44KHz.wav
3	63	1	1	1	C	2	1	1427	1	poli_8sides 18_whiteLine3.jpg	MediumShort_e16_cut1_stereo_44KHz.wav
3	64	4	3	2	I	2	0	915	0	poli_8sides 11_whiteLine3.jpg	MediumShort_e22_cut1_stereo_44KHz.wav
3	65	2	2	1	C	2	1	1392	1	poli_8sides 3_whiteLine3.jpg	MediumShort_b10_cut1_MS_stereo_44KHz.wav
3	66	3	3	2	I	1	0	842	1	poli_8sides 9_whiteLine3.jpg	MediumShort_e22_cut1_stereo_44KHz.wav
3	67	1	2	0	C	1	1	1729	1	poli_8sides 18_whiteLine3.jpg	MediumShort_b10_cut1_MS_stereo_44KHz.wav
3	68	4	3	2	I	0	0	0	0	poli_8sides 11_whiteLine3.jpg	MediumShort_e22_cut1_stereo_44KHz.wav
3	69	2	1	0	C	1	1	1015	1	poli_8sides 3_whiteLine3.jpg	MediumShort_e16_cut1_stereo_44KHz.wav
3	70	1	1	1	C	2	1	802	1	poli_8sides 18_whiteLine3.jpg	MediumShort_e16_cut1_stereo_44KHz.wav
3	71	3	4	2	I	1	0	760	1	poli_8sides 9_whiteLine3.jpg	MediumShort_b16_cut3_MS_stereo_44KHz.wav
3	72	4	4	2	I	2	0	581	1	poli_8sides 11_whiteLine3.jpg	MediumShort_b16_cut3_MS_stereo_44KHz.wav
3	73	1	1	1	C	2	1	845	1	poli_8sides 18_whiteLine3.jpg	MediumShort_e16_cut1_stereo_44KHz.wav
3	74	2	1	0	C	1	1	979	1	poli_8sides 3_whiteLine3.jpg	MediumShort_e16_cut1_stereo_44KHz.wav
3	75	3	4	2	I	1	0	765	1	poli_8sides 9_whiteLine3.jpg	MediumShort_b16_cut3_MS_stereo_44KHz.wav
3	76	4	4	2	I	2	0	675	1	poli_8sides 11_whiteLine3.jpg	MediumShort_b16_cut3_MS_stereo_44KHz.wav
3	77	2	2	1	C	2	1	835	1	poli_8sides 3_whiteLine3.jpg	MediumShort_b10_cut1_MS_stereo_44KHz.wav
3	78	4	3	2	I	2	0	1411	1	poli_8sides 11_whiteLine3.jpg	MediumShort_e22_cut1_stereo_44KHz.wav
3	79	1	2	0	C	1	1	1329	1	poli_8sides 18_whiteLine3.jpg	MediumShort_b10_cut1_MS_stereo_44KHz.wav
3	80	3	3	2	I	1	0	1208	1	poli_8sides 9_whiteLine3.jpg	MediumShort_e22_cut1_stereo_44KHz.wav
3	81	2	1	0	C	1	1	800	1	poli_8sides 3_whiteLine3.jpg	MediumShort_e16_cut1_stereo_44KHz.wav
3	82	3	3	2	I	1	0	1172	0	poli_8sides 9_whiteLine3.jpg	MediumShort_e22_cut1_stereo_44KHz.wav
3	83	4	4	2	I	0	0	0	0	poli_8sides 11_whiteLine3.jpg	MediumShort_b16_cut3_MS_stereo_44KHz.wav
3	84	1	1	1	C	2	1	1080	1	poli_8sides 18_whiteLine3.jpg	MediumShort_e16_cut1_stereo_44KHz.wav
3	85	2	2	1	C	2	1	884	1	poli_8sides 3_whiteLine3.jpg	MediumShort_b10_cut1_MS_stereo_44KHz.wav
3	86	1	2	0	C	1	1	1663	1	poli_8sides 18_whiteLine3.jpg	MediumShort_b10_cut1_MS_stereo_44KHz.wav
3	87	4	3	2	I	2	0	709	1	poli_8sides 11_whiteLine3.jpg	MediumShort_e22_cut1_stereo_44KHz.wav
3	88	3	4	2	I	1	0	1241	1	poli_8sides 9_whiteLine3.jpg	MediumShort_b16_cut3_MS_stereo_44KHz.wav
3	89	2	2	1	C	1	0	1004	0	poli_8sides 3_whiteLine3.jpg	MediumShort_b10_cut1_MS_stereo_44KHz.wav
3	90	1	2	0	C	0	0	0	0	poli_8sides 18_whiteLine3.jpg	MediumShort_b10_cut1_MS_stereo_44KHz.wav
3	91	4	4	2	I	2	0	865	0	poli_8sides 11_whiteLine3.jpg	MediumShort_b16_cut3_MS_stereo_44KHz.wav
3	92	3	3	2	I	1	0	607	0	poli_8sides 9_whiteLine3.jpg	MediumShort_e22_cut1_stereo_44KHz.wav
3	93	1	1	1	C	1	0	836	0	poli_8sides 18_whiteLine3.jpg	MediumShort_e16_cut1_stereo_44KHz.wav
3	94	2	1	0	C	1	1	949	1	poli_8sides 3_whiteLine3.jpg	MediumShort_e16_cut1_stereo_44KHz.wav
3	95	4	3	2	I	2	0	619	1	poli_8sides 11_whiteLine3.jpg	MediumShort_e22_cut1_stereo_44KHz.wav
3	96	3	4	2	I	1	0	595	0	poli_8sides 9_whiteLine3.jpg	MediumShort_b16_cut3_MS_stereo_44KHz.wav
3	97	2	1	0	C	1	1	705	1	poli_8sides 3_whiteLine3.jpg	MediumShort_e16_cut1_stereo_44KHz.wav
3	98	1	2	0	C	2	0	905	0	poli_8sides 18_whiteLine3.jpg	MediumShort_b10_cut1_MS_stereo_44KHz.wav
3	99	3	3	2	I	1	0	628	1	poli_8sides 9_whiteLine3.jpg	MediumShort_e22_cut1_stereo_44KHz.wav
3	100	4	4	2	I	2	0	714	1	poli_8sides 11_whiteLine3.jpg	MediumShort_b16_cut3_MS_stereo_44KHz.wav
3	101	3	4	2	I	1	0	1226	1	poli_8sides 9_whiteLine3.jpg	MediumShort_b16_cut3_MS_stereo_44KHz.wav
3	102	4	3	2	I	2	0	915	1	poli_8sides 11_whiteLine3.jpg	MediumShort_e22_cut1_stereo_44KHz.wav
3	103	1	1	1	C	2	1	1117	1	poli_8sides 18_whiteLine3.jpg	MediumShort_e16_cut1_stereo_44KHz.wav
3	104	2	2	1	C	2	1	921	1	poli_8sides 3_whiteLine3.jpg	MediumShort_b10_cut1_MS_stereo_44KHz.wav
3	105	3	3	2	I	1	0	958	0	poli_8sides 9_whiteLine3.jpg	MediumShort_e22_cut1_stereo_44KHz.wav
3	106	4	4	2	I	2	0	920	1	poli_8sides 11_whiteLine3.jpg	MediumShort_b16_cut3_MS_stereo_44KHz.wav
3	107	1	2	0	C	1	1	878	1	poli_8sides 18_whiteLine3.jpg	MediumShort_b10_cut1_MS_stereo_44KHz.wav
3	108	2	1	0	C	1	1	810	1	poli_8sides 3_whiteLine3.jpg	MediumShort_e16_cut1_stereo_44KHz.wav
3	109	4	3	2	I	2	0	621	1	poli_8sides 11_whiteLine3.jpg	MediumShort_e22_cut1_stereo_44KHz.wav
3	110	2	2	1	C	2	1	952	1	poli_8sides 3_whiteLine3.jpg	MediumShort_b10_cut1_MS_stereo_44KHz.wav
3	111	3	4	2	I	1	0	711	1	poli_8sides 9_whiteLine3.jpg	MediumShort_b16_cut3_MS_stereo_44KHz.wav
3	112	1	1	1	C	2	1	1282	1	poli_8sides 18_whiteLine3.jpg	MediumShort_e16_cut1_stereo_44KHz.wav
3	113	2	1	0	C	1	1	760	1	poli_8sides 3_whiteLine3.jpg	MediumShort_e16_cut1_stereo_44KHz.wav
3	114	1	1	1	C	2	1	1213	1	poli_8sides 18_whiteLine3.jpg	MediumShort_e16_cut1_stereo_44KHz.wav
3	115	3	4	2	I	1	0	1048	0	poli_8sides 9_whiteLine3.jpg	MediumShort_b16_cut3_MS_stereo_44KHz.wav
3	116	4	4	2	I	2	0	628	1	poli_8sides 11_whiteLine3.jpg	MediumShort_b16_cut3_MS_stereo_44KHz.wav
3	117	3	3	2	I	2	0	1136	1	poli_8sides 9_whiteLine3.jpg	MediumShort_e22_cut1_stereo_44KHz.wav
3	118	1	2	0	C	1	1	880	1	poli_8sides 18_whiteLine3.jpg	MediumShort_b10_cut1_MS_stereo_44KHz.wav
3	119	4	3	2	I	2	0	771	1	poli_8sides 11_whiteLine3.jpg	MediumShort_e22_cut1_stereo_44KHz.wav
3	120	2	2	1	C	2	1	819	1	poli_8sides 3_whiteLine3.jpg	MediumShort_b10_cut1_MS_stereo_44KHz.wav
3	121	3	4	2	I	1	0	1119	0	poli_8sides 9_whiteLine3.jpg	MediumShort_b16_cut3_MS_stereo_44KHz.wav
3	122	2	1	0	C	1	1	842	1	poli_8sides 3_whiteLine3.jpg	MediumShort_e16_cut1_stereo_44KHz.wav
3	123	4	4	2	I	2	0	661	0	poli_8sides 11_whiteLine3.jpg	MediumShort_b16_cut3_MS_stereo_44KHz.wav
3	124	1	1	1	C	2	1	1413	1	poli_8sides 18_whiteLine3.jpg	MediumShort_e16_cut1_stereo_44KHz.wav
3	125	2	2	1	C	2	1	1431	1	poli_8sides 3_whiteLine3.jpg	MediumShort_b10_cut1_MS_stereo_44KHz.wav
3	126	1	2	0	C	2	0	695	0	poli_8sides 18_whiteLine3.jpg	MediumShort_b10_cut1_MS_stereo_44KHz.wav
3	127	3	3	2	I	1	0	1224	0	poli_8sides 9_whiteLine3.jpg	MediumShort_e22_cut1_stereo_44KHz.wav
3	128	4	3	2	I	2	0	682	0	poli_8sides 11_whiteLine3.jpg	MediumShort_e22_cut1_stereo_44KHz.wav
3	129	1	1	1	C	2	1	878	1	poli_8sides 18_whiteLine3.jpg	MediumShort_e16_cut1_stereo_44KHz.wav
3	130	2	2	1	C	2	1	1106	1	poli_8sides 3_whiteLine3.jpg	MediumShort_b10_cut1_MS_stereo_44KHz.wav
3	131	3	4	2	I	1	0	625	1	poli_8sides 9_whiteLine3.jpg	MediumShort_b16_cut3_MS_stereo_44KHz.wav
3	132	4	3	2	I	2	0	1001	0	poli_8sides 11_whiteLine3.jpg	MediumShort_e22_cut1_stereo_44KHz.wav
3	133	2	1	0	C	1	1	681	1	poli_8sides 3_whiteLine3.jpg	MediumShort_e16_cut1_stereo_44KHz.wav
3	134	1	2	0	C	1	1	727	1	poli_8sides 18_whiteLine3.jpg	MediumShort_b10_cut1_MS_stereo_44KHz.wav
3	135	3	3	2	I	1	0	924	1	poli_8sides 9_whiteLine3.jpg	MediumShort_e22_cut1_stereo_44KHz.wav
3	136	4	4	2	I	2	0	1373	1	poli_8sides 11_whiteLine3.jpg	MediumShort_b16_cut3_MS_stereo_44KHz.wav
3	137	1	1	1	C	2	1	961	1	poli_8sides 18_whiteLine3.jpg	MediumShort_e16_cut1_stereo_44KHz.wav
3	138	3	4	2	I	1	0	1276	1	poli_8sides 9_whiteLine3.jpg	MediumShort_b16_cut3_MS_stereo_44KHz.wav
3	139	4	4	2	I	1	0	1102	1	poli_8sides 11_whiteLine3.jpg	MediumShort_b16_cut3_MS_stereo_44KHz.wav
3	140	2	2	1	C	2	1	914	1	poli_8sides 3_whiteLine3.jpg	MediumShort_b10_cut1_MS_stereo_44KHz.wav
3	141	3	3	2	I	2	0	1071	1	poli_8sides 9_whiteLine3.jpg	MediumShort_e22_cut1_stereo_44KHz.wav
3	142	4	3	2	I	1	0	1250	0	poli_8sides 11_whiteLine3.jpg	MediumShort_e22_cut1_stereo_44KHz.wav
3	143	2	1	0	C	1	1	1083	1	poli_8sides 3_whiteLine3.jpg	MediumShort_e16_cut1_stereo_44KHz.wav
3	144	1	2	0	C	2	0	1898	0	poli_8sides 18_whiteLine3.jpg	MediumShort_b10_cut1_MS_stereo_44KHz.wav
3	145	4	3	2	I	2	0	1542	0	poli_8sides 11_whiteLine3.jpg	MediumShort_e22_cut1_stereo_44KHz.wav
3	146	2	1	0	C	1	1	788	1	poli_8sides 3_whiteLine3.jpg	MediumShort_e16_cut1_stereo_44KHz.wav
3	147	1	2	0	C	1	1	864	1	poli_8sides 18_whiteLine3.jpg	MediumShort_b10_cut1_MS_stereo_44KHz.wav
3	148	3	4	2	I	1	0	1555	0	poli_8sides 9_whiteLine3.jpg	MediumShort_b16_cut3_MS_stereo_44KHz.wav
3	149	1	1	1	C	2	1	1026	1	poli_8sides 18_whiteLine3.jpg	MediumShort_e16_cut1_stereo_44KHz.wav
3	150	2	2	1	C	2	1	1476	1	poli_8sides 3_whiteLine3.jpg	MediumShort_b10_cut1_MS_stereo_44KHz.wav
3	151	4	4	2	I	1	0	1119	1	poli_8sides 11_whiteLine3.jpg	MediumShort_b16_cut3_MS_stereo_44KHz.wav
3	152	3	3	2	I	2	0	1261	0	poli_8sides 9_whiteLine3.jpg	MediumShort_e22_cut1_stereo_44KHz.wav
3	153	1	1	1	C	2	1	1186	1	poli_8sides 18_whiteLine3.jpg	MediumShort_e16_cut1_stereo_44KHz.wav
3	154	3	3	2	I	2	0	1126	0	poli_8sides 9_whiteLine3.jpg	MediumShort_e22_cut1_stereo_44KHz.wav
3	155	4	4	2	I	0	0	0	0	poli_8sides 11_whiteLine3.jpg	MediumShort_b16_cut3_MS_stereo_44KHz.wav
3	156	2	1	0	C	1	1	1060	1	poli_8sides 3_whiteLine3.jpg	MediumShort_e16_cut1_stereo_44KHz.wav
3	157	4	3	2	I	1	0	1043	0	poli_8sides 11_whiteLine3.jpg	MediumShort_e22_cut1_stereo_44KHz.wav
3	158	1	2	0	C	1	1	1221	1	poli_8sides 18_whiteLine3.jpg	MediumShort_b10_cut1_MS_stereo_44KHz.wav
3	159	2	2	1	C	2	1	950	1	poli_8sides 3_whiteLine3.jpg	MediumShort_b10_cut1_MS_stereo_44KHz.wav
3	160	3	4	2	I	1	0	719	0	poli_8sides 9_whiteLine3.jpg	MediumShort_b16_cut3_MS_stereo_44KHz.wav
3	161	4	4	2	I	2	0	1515	1	poli_8sides 11_whiteLine3.jpg	MediumShort_b16_cut3_MS_stereo_44KHz.wav
3	162	3	3	2	I	2	0	1014	0	poli_8sides 9_whiteLine3.jpg	MediumShort_e22_cut1_stereo_44KHz.wav
3	163	1	2	0	C	1	1	651	1	poli_8sides 18_whiteLine3.jpg	MediumShort_b10_cut1_MS_stereo_44KHz.wav
3	164	2	1	0	C	1	1	821	1	poli_8sides 3_whiteLine3.jpg	MediumShort_e16_cut1_stereo_44KHz.wav
3	165	3	4	2	I	1	0	1110	1	poli_8sides 9_whiteLine3.jpg	MediumShort_b16_cut3_MS_stereo_44KHz.wav
3	166	4	3	2	I	1	0	1340	0	poli_8sides 11_whiteLine3.jpg	MediumShort_e22_cut1_stereo_44KHz.wav
3	167	2	2	1	C	2	1	1088	1	poli_8sides 3_whiteLine3.jpg	MediumShort_b10_cut1_MS_stereo_44KHz.wav
3	168	1	1	1	C	2	1	960	1	poli_8sides 18_whiteLine3.jpg	MediumShort_e16_cut1_stereo_44KHz.wav
3	169	3	3	2	I	2	0	1346	0	poli_8sides 9_whiteLine3.jpg	MediumShort_e22_cut1_stereo_44KHz.wav
3	170	4	4	2	I	2	0	1870	0	poli_8sides 11_whiteLine3.jpg	MediumShort_b16_cut3_MS_stereo_44KHz.wav
3	171	1	1	1	C	1	0	1599	0	poli_8sides 18_whiteLine3.jpg	MediumShort_e16_cut1_stereo_44KHz.wav
3	172	2	1	0	C	1	1	780	1	poli_8sides 3_whiteLine3.jpg	MediumShort_e16_cut1_stereo_44KHz.wav
3	173	3	4	2	I	1	0	1930	0	poli_8sides 9_whiteLine3.jpg	MediumShort_b16_cut3_MS_stereo_44KHz.wav
3	174	1	2	0	C	1	1	731	1	poli_8sides 18_whiteLine3.jpg	MediumShort_b10_cut1_MS_stereo_44KHz.wav
3	175	2	2	1	C	2	1	892	1	poli_8sides 3_whiteLine3.jpg	MediumShort_b10_cut1_MS_stereo_44KHz.wav
3	176	4	3	2	I	2	0	998	0	poli_8sides 11_whiteLine3.jpg	MediumShort_e22_cut1_stereo_44KHz.wav
3	177	3	4	2	I	1	0	632	1	poli_8sides 9_whiteLine3.jpg	MediumShort_b16_cut3_MS_stereo_44KHz.wav
3	178	4	4	2	I	2	0	1330	1	poli_8sides 11_whiteLine3.jpg	MediumShort_b16_cut3_MS_stereo_44KHz.wav
3	179	1	1	1	C	2	1	1156	1	poli_8sides 18_whiteLine3.jpg	MediumShort_e16_cut1_stereo_44KHz.wav
3	180	2	2	1	C	2	1	1407	1	poli_8sides 3_whiteLine3.jpg	MediumShort_b10_cut1_MS_stereo_44KHz.wav
3	181	1	2	0	C	0	0	0	0	poli_8sides 18_whiteLine3.jpg	MediumShort_b10_cut1_MS_stereo_44KHz.wav
3	182	2	1	0	C	1	1	1011	1	poli_8sides 3_whiteLine3.jpg	MediumShort_e16_cut1_stereo_44KHz.wav
3	183	3	3	2	I	2	0	935	1	poli_8sides 9_whiteLine3.jpg	MediumShort_e22_cut1_stereo_44KHz.wav
3	184	4	3	2	I	2	0	885	0	poli_8sides 11_whiteLine3.jpg	MediumShort_e22_cut1_stereo_44KHz.wav
3	185	1	1	1	C	1	0	996	0	poli_8sides 18_whiteLine3.jpg	MediumShort_e16_cut1_stereo_44KHz.wav
3	186	3	3	2	I	2	0	1053	1	poli_8sides 9_whiteLine3.jpg	MediumShort_e22_cut1_stereo_44KHz.wav
3	187	2	2	1	C	2	1	1187	1	poli_8sides 3_whiteLine3.jpg	MediumShort_b10_cut1_MS_stereo_44KHz.wav
3	188	4	4	2	I	2	0	739	0	poli_8sides 11_whiteLine3.jpg	MediumShort_b16_cut3_MS_stereo_44KHz.wav
3	189	1	2	0	C	1	1	767	1	poli_8sides 18_whiteLine3.jpg	MediumShort_b10_cut1_MS_stereo_44KHz.wav
3	190	2	1	0	C	1	1	1210	1	poli_8sides 3_whiteLine3.jpg	MediumShort_e16_cut1_stereo_44KHz.wav
3	191	3	4	2	I	1	0	714	1	poli_8sides 9_whiteLine3.jpg	MediumShort_b16_cut3_MS_stereo_44KHz.wav
3	192	4	3	2	I	2	0	818	1	poli_8sides 11_whiteLine3.jpg	MediumShort_e22_cut1_stereo_44KHz.wav
3	193	3	4	2	I	1	0	642	1	poli_8sides 9_whiteLine3.jpg	MediumShort_b16_cut3_MS_stereo_44KHz.wav
3	194	1	2	0	C	1	1	783	1	poli_8sides 18_whiteLine3.jpg	MediumShort_b10_cut1_MS_stereo_44KHz.wav
3	195	2	2	1	C	2	1	1465	1	poli_8sides 3_whiteLine3.jpg	MediumShort_b10_cut1_MS_stereo_44KHz.wav
3	196	4	4	2	I	2	0	1197	1	poli_8sides 11_whiteLine3.jpg	MediumShort_b16_cut3_MS_stereo_44KHz.wav
3	197	1	1	1	C	2	1	1508	1	poli_8sides 18_whiteLine3.jpg	MediumShort_e16_cut1_stereo_44KHz.wav
3	198	4	3	2	I	2	0	1113	0	poli_8sides 11_whiteLine3.jpg	MediumShort_e22_cut1_stereo_44KHz.wav
3	199	2	1	0	C	1	1	1474	1	poli_8sides 3_whiteLine3.jpg	MediumShort_e16_cut1_stereo_44KHz.wav
3	200	3	3	2	I	0	0	0	0	poli_8sides 9_whiteLine3.jpg	MediumShort_e22_cut1_stereo_44KHz.wav
4	1	1	1	1	C	2	1	1050	1	poli_8sides 1_whiteLine3.jpg	Short_b09_cut1_stereo_44KHz.wav
4	2	4	4	2	I	1	0	750	1	poli_8sides 12_whiteLine3.jpg	Short_b22_cut1_stereo_44KHz.wav
4	3	2	1	0	C	1	1	924	1	poli_8sides 6_whiteLine3.jpg	Short_b09_cut1_stereo_44KHz.wav
4	4	3	4	2	I	2	0	1013	1	poli_8sides 13_whiteLine3.jpg	Short_b22_cut1_stereo_44KHz.wav
4	5	2	2	1	C	1	0	658	0	poli_8sides 6_whiteLine3.jpg	Short_b20_cut1_stereo_44KHz.wav
4	6	1	2	0	C	1	1	825	1	poli_8sides 1_whiteLine3.jpg	Short_b20_cut1_stereo_44KHz.wav
4	7	4	3	2	I	2	0	858	1	poli_8sides 12_whiteLine3.jpg	Short_b23_cut1_stereo_44KHz.wav
4	8	3	3	2	I	1	0	928	0	poli_8sides 13_whiteLine3.jpg	Short_b23_cut1_stereo_44KHz.wav
4	9	1	1	1	C	1	0	1028	0	poli_8sides 1_whiteLine3.jpg	Short_b09_cut1_stereo_44KHz.wav
4	10	4	3	2	I	1	0	713	1	poli_8sides 12_whiteLine3.jpg	Short_b23_cut1_stereo_44KHz.wav
4	11	3	3	2	I	1	0	1014	0	poli_8sides 13_whiteLine3.jpg	Short_b23_cut1_stereo_44KHz.wav
4	12	2	2	1	C	1	0	728	0	poli_8sides 6_whiteLine3.jpg	Short_b20_cut1_stereo_44KHz.wav
4	13	1	2	0	C	1	1	752	1	poli_8sides 1_whiteLine3.jpg	Short_b20_cut1_stereo_44KHz.wav
4	14	2	1	0	C	1	1	878	1	poli_8sides 6_whiteLine3.jpg	Short_b09_cut1_stereo_44KHz.wav
4	15	4	4	2	I	1	0	711	0	poli_8sides 12_whiteLine3.jpg	Short_b22_cut1_stereo_44KHz.wav
4	16	3	4	2	I	1	0	784	1	poli_8sides 13_whiteLine3.jpg	Short_b22_cut1_stereo_44KHz.wav
4	17	2	2	1	C	1	0	676	0	poli_8sides 6_whiteLine3.jpg	Short_b20_cut1_stereo_44KHz.wav
4	18	4	4	2	I	1	0	681	0	poli_8sides 12_whiteLine3.jpg	Short_b22_cut1_stereo_44KHz.wav
4	19	1	2	0	C	1	1	450	1	poli_8sides 1_whiteLine3.jpg	Short_b20_cut1_stereo_44KHz.wav
4	20	3	3	2	I	1	0	935	1	poli_8sides 13_whiteLine3.jpg	Short_b23_cut1_stereo_44KHz.wav
4	21	4	3	2	I	2	0	1160	0	poli_8sides 12_whiteLine3.jpg	Short_b23_cut1_stereo_44KHz.wav
4	22	1	1	1	C	1	0	1158	0	poli_8sides 1_whiteLine3.jpg	Short_b09_cut1_stereo_44KHz.wav
4	23	2	1	0	C	1	1	744	1	poli_8sides 6_whiteLine3.jpg	Short_b09_cut1_stereo_44KHz.wav
4	24	3	4	2	I	1	0	1313	0	poli_8sides 13_whiteLine3.jpg	Short_b22_cut1_stereo_44KHz.wav
4	25	4	4	2	I	1	0	832	0	poli_8sides 12_whiteLine3.jpg	Short_b22_cut1_stereo_44KHz.wav
4	26	1	2	0	C	1	1	786	1	poli_8sides 1_whiteLine3.jpg	Short_b20_cut1_stereo_44KHz.wav
4	27	2	1	0	C	1	1	891	1	poli_8sides 6_whiteLine3.jpg	Short_b09_cut1_stereo_44KHz.wav
4	28	3	4	2	I	1	0	989	1	poli_8sides 13_whiteLine3.jpg	Short_b22_cut1_stereo_44KHz.wav
4	29	2	2	1	C	1	0	899	0	poli_8sides 6_whiteLine3.jpg	Short_b20_cut1_stereo_44KHz.wav
4	30	4	3	2	I	1	0	874	0	poli_8sides 12_whiteLine3.jpg	Short_b23_cut1_stereo_44KHz.wav
4	31	1	1	1	C	1	0	787	0	poli_8sides 1_whiteLine3.jpg	Short_b09_cut1_stereo_44KHz.wav
4	32	3	3	2	I	1	0	710	0	poli_8sides 13_whiteLine3.jpg	Short_b23_cut1_stereo_44KHz.wav
4	33	1	1	1	C	1	0	874	0	poli_8sides 1_whiteLine3.jpg	Short_b09_cut1_stereo_44KHz.wav
4	34	2	2	1	C	1	0	601	0	poli_8sides 6_whiteLine3.jpg	Short_b20_cut1_stereo_44KHz.wav
4	35	3	3	2	I	1	0	917	1	poli_8sides 13_whiteLine3.jpg	Short_b23_cut1_stereo_44KHz.wav
4	36	4	3	2	I	2	0	655	1	poli_8sides 12_whiteLine3.jpg	Short_b23_cut1_stereo_44KHz.wav
4	37	1	2	0	C	1	1	715	1	poli_8sides 1_whiteLine3.jpg	Short_b20_cut1_stereo_44KHz.wav
4	38	2	1	0	C	2	0	1042	0	poli_8sides 6_whiteLine3.jpg	Short_b09_cut1_stereo_44KHz.wav
4	39	4	4	2	I	1	0	837	0	poli_8sides 12_whiteLine3.jpg	Short_b22_cut1_stereo_44KHz.wav
4	40	3	4	2	I	1	0	824	0	poli_8sides 13_whiteLine3.jpg	Short_b22_cut1_stereo_44KHz.wav
4	41	1	1	1	C	1	0	1182	0	poli_8sides 1_whiteLine3.jpg	Short_b09_cut1_stereo_44KHz.wav
4	42	2	2	1	C	1	0	1888	0	poli_8sides 6_whiteLine3.jpg	Short_b20_cut1_stereo_44KHz.wav
4	43	3	3	2	I	1	0	724	0	poli_8sides 13_whiteLine3.jpg	Short_b23_cut1_stereo_44KHz.wav
4	44	4	4	2	I	1	0	1643	0	poli_8sides 12_whiteLine3.jpg	Short_b22_cut1_stereo_44KHz.wav
4	45	3	4	2	I	1	0	902	1	poli_8sides 13_whiteLine3.jpg	Short_b22_cut1_stereo_44KHz.wav
4	46	1	2	0	C	2	0	836	0	poli_8sides 1_whiteLine3.jpg	Short_b20_cut1_stereo_44KHz.wav
4	47	2	1	0	C	1	1	1467	1	poli_8sides 6_whiteLine3.jpg	Short_b09_cut1_stereo_44KHz.wav
4	48	4	3	2	I	2	0	1345	1	poli_8sides 12_whiteLine3.jpg	Short_b23_cut1_stereo_44KHz.wav
4	49	1	1	1	C	2	1	1527	1	poli_8sides 1_whiteLine3.jpg	Short_b09_cut1_stereo_44KHz.wav
4	50	4	3	2	I	2	0	1186	1	poli_8sides 12_whiteLine3.jpg	Short_b23_cut1_stereo_44KHz.wav
4	51	3	4	2	I	1	0	1204	0	poli_8sides 13_whiteLine3.jpg	Short_b22_cut1_stereo_44KHz.wav
4	52	2	2	1	C	1	0	1199	0	poli_8sides 6_whiteLine3.jpg	Short_b20_cut1_stereo_44KHz.wav
4	53	1	2	0	C	1	1	995	1	poli_8sides 1_whiteLine3.jpg	Short_b20_cut1_stereo_44KHz.wav
4	54	2	1	0	C	1	1	1128	1	poli_8sides 6_whiteLine3.jpg	Short_b09_cut1_stereo_44KHz.wav
4	55	3	3	2	I	1	0	1094	1	poli_8sides 13_whiteLine3.jpg	Short_b23_cut1_stereo_44KHz.wav
4	56	4	4	2	I	2	0	998	1	poli_8sides 12_whiteLine3.jpg	Short_b22_cut1_stereo_44KHz.wav
4	57	2	1	0	C	1	1	1283	1	poli_8sides 6_whiteLine3.jpg	Short_b09_cut1_stereo_44KHz.wav
4	58	1	1	1	C	2	1	1441	1	poli_8sides 1_whiteLine3.jpg	Short_b09_cut1_stereo_44KHz.wav
4	59	4	4	2	I	2	0	1460	0	poli_8sides 12_whiteLine3.jpg	Short_b22_cut1_stereo_44KHz.wav
4	60	3	4	2	I	1	0	1014	0	poli_8sides 13_whiteLine3.jpg	Short_b22_cut1_stereo_44KHz.wav
4	61	2	2	1	C	1	0	1014	0	poli_8sides 6_whiteLine3.jpg	Short_b20_cut1_stereo_44KHz.wav
4	62	3	3	2	I	1	0	1275	1	poli_8sides 13_whiteLine3.jpg	Short_b23_cut1_stereo_44KHz.wav
4	63	4	3	2	I	2	0	882	0	poli_8sides 12_whiteLine3.jpg	Short_b23_cut1_stereo_44KHz.wav
4	64	1	2	0	C	1	1	1554	1	poli_8sides 1_whiteLine3.jpg	Short_b20_cut1_stereo_44KHz.wav
4	65	3	3	2	I	1	0	929	0	poli_8sides 13_whiteLine3.jpg	Short_b23_cut1_stereo_44KHz.wav
4	66	1	2	0	C	1	1	1082	1	poli_8sides 1_whiteLine3.jpg	Short_b20_cut1_stereo_44KHz.wav
4	67	2	2	1	C	2	1	801	1	poli_8sides 6_whiteLine3.jpg	Short_b20_cut1_stereo_44KHz.wav
4	68	4	3	2	I	2	0	1354	1	poli_8sides 12_whiteLine3.jpg	Short_b23_cut1_stereo_44KHz.wav
4	69	1	1	1	C	1	0	1570	0	poli_8sides 1_whiteLine3.jpg	Short_b09_cut1_stereo_44KHz.wav
4	70	3	4	2	I	2	0	1467	0	poli_8sides 13_whiteLine3.jpg	Short_b22_cut1_stereo_44KHz.wav
4	71	4	4	2	I	2	0	1058	0	poli_8sides 12_whiteLine3.jpg	Short_b22_cut1_stereo_44KHz.wav
4	72	2	1	0	C	1	1	770	1	poli_8sides 6_whiteLine3.jpg	Short_b09_cut1_stereo_44KHz.wav
4	73	3	3	2	I	1	0	881	1	poli_8sides 13_whiteLine3.jpg	Short_b23_cut1_stereo_44KHz.wav
4	74	2	1	0	C	1	1	787	1	poli_8sides 6_whiteLine3.jpg	Short_b09_cut1_stereo_44KHz.wav
4	75	4	4	2	I	1	0	1171	1	poli_8sides 12_whiteLine3.jpg	Short_b22_cut1_stereo_44KHz.wav
4	76	1	1	1	C	1	0	1228	0	poli_8sides 1_whiteLine3.jpg	Short_b09_cut1_stereo_44KHz.wav
4	77	3	4	2	I	2	0	1346	1	poli_8sides 13_whiteLine3.jpg	Short_b22_cut1_stereo_44KHz.wav
4	78	4	3	2	I	2	0	1034	1	poli_8sides 12_whiteLine3.jpg	Short_b23_cut1_stereo_44KHz.wav
4	79	1	2	0	C	2	0	1157	0	poli_8sides 1_whiteLine3.jpg	Short_b20_cut1_stereo_44KHz.wav
4	80	2	2	1	C	1	0	1389	0	poli_8sides 6_whiteLine3.jpg	Short_b20_cut1_stereo_44KHz.wav
4	81	3	4	2	I	2	0	1371	1	poli_8sides 13_whiteLine3.jpg	Short_b22_cut1_stereo_44KHz.wav
4	82	4	3	2	I	2	0	1252	0	poli_8sides 12_whiteLine3.jpg	Short_b23_cut1_stereo_44KHz.wav
4	83	1	2	0	C	1	1	1584	1	poli_8sides 1_whiteLine3.jpg	Short_b20_cut1_stereo_44KHz.wav
4	84	2	1	0	C	1	1	996	1	poli_8sides 6_whiteLine3.jpg	Short_b09_cut1_stereo_44KHz.wav
4	85	1	1	1	C	2	1	1724	1	poli_8sides 1_whiteLine3.jpg	Short_b09_cut1_stereo_44KHz.wav
4	86	3	3	2	I	1	0	1111	0	poli_8sides 13_whiteLine3.jpg	Short_b23_cut1_stereo_44KHz.wav
4	87	4	4	2	I	2	0	1005	1	poli_8sides 12_whiteLine3.jpg	Short_b22_cut1_stereo_44KHz.wav
4	88	2	2	1	C	1	0	790	0	poli_8sides 6_whiteLine3.jpg	Short_b20_cut1_stereo_44KHz.wav
4	89	1	2	0	C	1	1	1254	1	poli_8sides 1_whiteLine3.jpg	Short_b20_cut1_stereo_44KHz.wav
4	90	2	1	0	C	1	1	887	1	poli_8sides 6_whiteLine3.jpg	Short_b09_cut1_stereo_44KHz.wav
4	91	4	4	2	I	1	0	1375	0	poli_8sides 12_whiteLine3.jpg	Short_b22_cut1_stereo_44KHz.wav
4	92	3	3	2	I	1	0	911	1	poli_8sides 13_whiteLine3.jpg	Short_b23_cut1_stereo_44KHz.wav
4	93	1	1	1	C	1	0	1056	0	poli_8sides 1_whiteLine3.jpg	Short_b09_cut1_stereo_44KHz.wav
4	94	2	2	1	C	1	0	676	0	poli_8sides 6_whiteLine3.jpg	Short_b20_cut1_stereo_44KHz.wav
4	95	3	4	2	I	1	0	858	1	poli_8sides 13_whiteLine3.jpg	Short_b22_cut1_stereo_44KHz.wav
4	96	4	3	2	I	2	0	916	1	poli_8sides 12_whiteLine3.jpg	Short_b23_cut1_stereo_44KHz.wav
4	97	3	4	2	I	2	0	1115	0	poli_8sides 13_whiteLine3.jpg	Short_b22_cut1_stereo_44KHz.wav
4	98	2	1	0	C	1	1	806	1	poli_8sides 6_whiteLine3.jpg	Short_b09_cut1_stereo_44KHz.wav
4	99	4	4	2	I	1	0	1335	1	poli_8sides 12_whiteLine3.jpg	Short_b22_cut1_stereo_44KHz.wav
4	100	1	2	0	C	1	1	988	1	poli_8sides 1_whiteLine3.jpg	Short_b20_cut1_stereo_44KHz.wav
4	101	3	3	2	I	1	0	938	0	poli_8sides 13_whiteLine3.jpg	Short_b23_cut1_stereo_44KHz.wav
4	102	2	2	1	C	1	0	1068	0	poli_8sides 6_whiteLine3.jpg	Short_b20_cut1_stereo_44KHz.wav
4	103	1	1	1	C	1	0	1490	0	poli_8sides 1_whiteLine3.jpg	Short_b09_cut1_stereo_44KHz.wav
4	104	4	3	2	I	2	0	951	0	poli_8sides 12_whiteLine3.jpg	Short_b23_cut1_stereo_44KHz.wav
4	105	1	2	0	C	1	1	1161	1	poli_8sides 1_whiteLine3.jpg	Short_b20_cut1_stereo_44KHz.wav
4	106	4	4	2	I	1	0	1187	1	poli_8sides 12_whiteLine3.jpg	Short_b22_cut1_stereo_44KHz.wav
4	107	2	2	1	C	1	0	737	0	poli_8sides 6_whiteLine3.jpg	Short_b20_cut1_stereo_44KHz.wav
4	108	3	3	2	I	1	0	747	0	poli_8sides 13_whiteLine3.jpg	Short_b23_cut1_stereo_44KHz.wav
4	109	2	1	0	C	2	0	1354	0	poli_8sides 6_whiteLine3.jpg	Short_b09_cut1_stereo_44KHz.wav
4	110	3	4	2	I	1	0	961	0	poli_8sides 13_whiteLine3.jpg	Short_b22_cut1_stereo_44KHz.wav
4	111	1	1	1	C	1	0	1043	0	poli_8sides 1_whiteLine3.jpg	Short_b09_cut1_stereo_44KHz.wav
4	112	4	3	2	I	2	0	764	1	poli_8sides 12_whiteLine3.jpg	Short_b23_cut1_stereo_44KHz.wav
4	113	3	4	2	I	2	0	1005	0	poli_8sides 13_whiteLine3.jpg	Short_b22_cut1_stereo_44KHz.wav
4	114	2	1	0	C	1	1	793	1	poli_8sides 6_whiteLine3.jpg	Short_b09_cut1_stereo_44KHz.wav
4	115	4	3	2	I	2	0	829	1	poli_8sides 12_whiteLine3.jpg	Short_b23_cut1_stereo_44KHz.wav
4	116	1	1	1	C	1	0	1184	0	poli_8sides 1_whiteLine3.jpg	Short_b09_cut1_stereo_44KHz.wav
4	117	2	2	1	C	1	0	768	0	poli_8sides 6_whiteLine3.jpg	Short_b20_cut1_stereo_44KHz.wav
4	118	1	2	0	C	2	0	1159	0	poli_8sides 1_whiteLine3.jpg	Short_b20_cut1_stereo_44KHz.wav
4	119	4	4	2	I	1	0	1120	0	poli_8sides 12_whiteLine3.jpg	Short_b22_cut1_stereo_44KHz.wav
4	120	3	3	2	I	1	0	1128	0	poli_8sides 13_whiteLine3.jpg	Short_b23_cut1_stereo_44KHz.wav
4	121	4	4	2	I	2	0	923	1	poli_8sides 12_whiteLine3.jpg	Short_b22_cut1_stereo_44KHz.wav
4	122	1	1	1	C	1	0	912	0	poli_8sides 1_whiteLine3.jpg	Short_b09_cut1_stereo_44KHz.wav
4	123	2	1	0	C	1	1	870	1	poli_8sides 6_whiteLine3.jpg	Short_b09_cut1_stereo_44KHz.wav
4	124	3	3	2	I	2	0	972	0	poli_8sides 13_whiteLine3.jpg	Short_b23_cut1_stereo_44KHz.wav
4	125	2	2	1	C	2	1	1450	1	poli_8sides 6_whiteLine3.jpg	Short_b20_cut1_stereo_44KHz.wav
4	126	3	4	2	I	1	0	1004	1	poli_8sides 13_whiteLine3.jpg	Short_b22_cut1_stereo_44KHz.wav
4	127	1	2	0	C	1	1	681	1	poli_8sides 1_whiteLine3.jpg	Short_b20_cut1_stereo_44KHz.wav
4	128	4	3	2	I	2	0	901	1	poli_8sides 12_whiteLine3.jpg	Short_b23_cut1_stereo_44KHz.wav
4	129	1	1	1	C	1	0	1162	0	poli_8sides 1_whiteLine3.jpg	Short_b09_cut1_stereo_44KHz.wav
4	130	3	4	2	I	1	0	946	1	poli_8sides 13_whiteLine3.jpg	Short_b22_cut1_stereo_44KHz.wav
4	131	2	1	0	C	1	1	1237	1	poli_8sides 6_whiteLine3.jpg	Short_b09_cut1_stereo_44KHz.wav
4	132	4	3	2	I	2	0	731	0	poli_8sides 12_whiteLine3.jpg	Short_b23_cut1_stereo_44KHz.wav
4	133	1	2	0	C	1	1	1059	1	poli_8sides 1_whiteLine3.jpg	Short_b20_cut1_stereo_44KHz.wav
4	134	2	2	1	C	2	1	947	1	poli_8sides 6_whiteLine3.jpg	Short_b20_cut1_stereo_44KHz.wav
4	135	3	3	2	I	1	0	1014	0	poli_8sides 13_whiteLine3.jpg	Short_b23_cut1_stereo_44KHz.wav
4	136	4	4	2	I	2	0	1012	0	poli_8sides 12_whiteLine3.jpg	Short_b22_cut1_stereo_44KHz.wav
4	137	1	1	1	C	2	1	1160	1	poli_8sides 1_whiteLine3.jpg	Short_b09_cut1_stereo_44KHz.wav
4	138	2	2	1	C	2	1	1218	1	poli_8sides 6_whiteLine3.jpg	Short_b20_cut1_stereo_44KHz.wav
4	139	4	3	2	I	2	0	1280	0	poli_8sides 12_whiteLine3.jpg	Short_b23_cut1_stereo_44KHz.wav
4	140	3	3	2	I	1	0	1140	1	poli_8sides 13_whiteLine3.jpg	Short_b23_cut1_stereo_44KHz.wav
4	141	1	2	0	C	1	1	1600	1	poli_8sides 1_whiteLine3.jpg	Short_b20_cut1_stereo_44KHz.wav
4	142	2	1	0	C	1	1	1540	1	poli_8sides 6_whiteLine3.jpg	Short_b09_cut1_stereo_44KHz.wav
4	143	3	4	2	I	1	0	1418	1	poli_8sides 13_whiteLine3.jpg	Short_b22_cut1_stereo_44KHz.wav
4	144	4	4	2	I	2	0	839	0	poli_8sides 12_whiteLine3.jpg	Short_b22_cut1_stereo_44KHz.wav
4	145	3	3	2	I	1	0	748	1	poli_8sides 13_whiteLine3.jpg	Short_b23_cut1_stereo_44KHz.wav
4	146	4	4	2	I	2	0	1327	1	poli_8sides 12_whiteLine3.jpg	Short_b22_cut1_stereo_44KHz.wav
4	147	1	1	1	C	1	0	1532	0	poli_8sides 1_whiteLine3.jpg	Short_b09_cut1_stereo_44KHz.wav
4	148	2	1	0	C	1	1	1856	1	poli_8sides 6_whiteLine3.jpg	Short_b09_cut1_stereo_44KHz.wav
4	149	4	3	2	I	2	0	751	1	poli_8sides 12_whiteLine3.jpg	Short_b23_cut1_stereo_44KHz.wav
4	150	1	2	0	C	1	1	702	1	poli_8sides 1_whiteLine3.jpg	Short_b20_cut1_stereo_44KHz.wav
4	151	2	2	1	C	2	1	1362	1	poli_8sides 6_whiteLine3.jpg	Short_b20_cut1_stereo_44KHz.wav
4	152	3	4	2	I	2	0	1273	1	poli_8sides 13_whiteLine3.jpg	Short_b22_cut1_stereo_44KHz.wav
4	153	4	3	2	I	2	0	908	0	poli_8sides 12_whiteLine3.jpg	Short_b23_cut1_stereo_44KHz.wav
4	154	1	1	1	C	2	1	1093	1	poli_8sides 1_whiteLine3.jpg	Short_b09_cut1_stereo_44KHz.wav
4	155	3	3	2	I	1	0	912	1	poli_8sides 13_whiteLine3.jpg	Short_b23_cut1_stereo_44KHz.wav
4	156	2	2	1	C	2	1	1148	1	poli_8sides 6_whiteLine3.jpg	Short_b20_cut1_stereo_44KHz.wav
4	157	3	4	2	I	1	0	861	1	poli_8sides 13_whiteLine3.jpg	Short_b22_cut1_stereo_44KHz.wav
4	158	2	1	0	C	1	1	1202	1	poli_8sides 6_whiteLine3.jpg	Short_b09_cut1_stereo_44KHz.wav
4	159	4	4	2	I	2	0	935	1	poli_8sides 12_whiteLine3.jpg	Short_b22_cut1_stereo_44KHz.wav
4	160	1	2	0	C	1	1	690	1	poli_8sides 1_whiteLine3.jpg	Short_b20_cut1_stereo_44KHz.wav
4	161	4	3	2	I	2	0	747	1	poli_8sides 12_whiteLine3.jpg	Short_b23_cut1_stereo_44KHz.wav
4	162	2	2	1	C	1	0	1285	0	poli_8sides 6_whiteLine3.jpg	Short_b20_cut1_stereo_44KHz.wav
4	163	3	4	2	I	1	0	799	1	poli_8sides 13_whiteLine3.jpg	Short_b22_cut1_stereo_44KHz.wav
4	164	1	1	1	C	2	1	950	1	poli_8sides 1_whiteLine3.jpg	Short_b09_cut1_stereo_44KHz.wav
4	165	3	3	2	I	1	0	593	1	poli_8sides 13_whiteLine3.jpg	Short_b23_cut1_stereo_44KHz.wav
4	166	2	1	0	C	1	1	1017	1	poli_8sides 6_whiteLine3.jpg	Short_b09_cut1_stereo_44KHz.wav
4	167	1	2	0	C	1	1	627	1	poli_8sides 1_whiteLine3.jpg	Short_b20_cut1_stereo_44KHz.wav
4	168	4	4	2	I	2	0	918	0	poli_8sides 12_whiteLine3.jpg	Short_b22_cut1_stereo_44KHz.wav
4	169	3	3	2	I	1	0	719	0	poli_8sides 13_whiteLine3.jpg	Short_b23_cut1_stereo_44KHz.wav
4	170	2	2	1	C	1	0	1012	0	poli_8sides 6_whiteLine3.jpg	Short_b20_cut1_stereo_44KHz.wav
4	171	1	1	1	C	1	0	1200	0	poli_8sides 1_whiteLine3.jpg	Short_b09_cut1_stereo_44KHz.wav
4	172	4	3	2	I	2	0	988	0	poli_8sides 12_whiteLine3.jpg	Short_b23_cut1_stereo_44KHz.wav
4	173	3	4	2	I	1	0	853	0	poli_8sides 13_whiteLine3.jpg	Short_b22_cut1_stereo_44KHz.wav
4	174	2	1	0	C	1	1	994	1	poli_8sides 6_whiteLine3.jpg	Short_b09_cut1_stereo_44KHz.wav
4	175	1	2	0	C	1	1	883	1	poli_8sides 1_whiteLine3.jpg	Short_b20_cut1_stereo_44KHz.wav
4	176	4	4	2	I	2	0	789	1	poli_8sides 12_whiteLine3.jpg	Short_b22_cut1_stereo_44KHz.wav
4	177	3	4	2	I	1	0	1202	0	poli_8sides 13_whiteLine3.jpg	Short_b22_cut1_stereo_44KHz.wav
4	178	1	1	1	C	2	1	1058	1	poli_8sides 1_whiteLine3.jpg	Short_b09_cut1_stereo_44KHz.wav
4	179	2	2	1	C	2	1	812	1	poli_8sides 6_whiteLine3.jpg	Short_b20_cut1_stereo_44KHz.wav
4	180	4	3	2	I	2	0	743	0	poli_8sides 12_whiteLine3.jpg	Short_b23_cut1_stereo_44KHz.wav
4	181	1	2	0	C	1	1	1229	1	poli_8sides 1_whiteLine3.jpg	Short_b20_cut1_stereo_44KHz.wav
4	182	3	3	2	I	1	0	902	0	poli_8sides 13_whiteLine3.jpg	Short_b23_cut1_stereo_44KHz.wav
4	183	2	1	0	C	1	1	804	1	poli_8sides 6_whiteLine3.jpg	Short_b09_cut1_stereo_44KHz.wav
4	184	4	4	2	I	2	0	930	0	poli_8sides 12_whiteLine3.jpg	Short_b22_cut1_stereo_44KHz.wav
4	185	2	1	0	C	1	1	672	1	poli_8sides 6_whiteLine3.jpg	Short_b09_cut1_stereo_44KHz.wav
4	186	1	1	1	C	2	1	838	1	poli_8sides 1_whiteLine3.jpg	Short_b09_cut1_stereo_44KHz.wav
4	187	4	4	2	I	2	0	856	0	poli_8sides 12_whiteLine3.jpg	Short_b22_cut1_stereo_44KHz.wav
4	188	3	4	2	I	1	0	851	0	poli_8sides 13_whiteLine3.jpg	Short_b22_cut1_stereo_44KHz.wav
4	189	4	3	2	I	2	0	1009	1	poli_8sides 12_whiteLine3.jpg	Short_b23_cut1_stereo_44KHz.wav
4	190	3	3	2	I	1	0	795	1	poli_8sides 13_whiteLine3.jpg	Short_b23_cut1_stereo_44KHz.wav
4	191	1	2	0	C	1	1	854	1	poli_8sides 1_whiteLine3.jpg	Short_b20_cut1_stereo_44KHz.wav
4	192	2	2	1	C	2	1	715	1	poli_8sides 6_whiteLine3.jpg	Short_b20_cut1_stereo_44KHz.wav
4	193	4	3	2	I	2	0	1307	1	poli_8sides 12_whiteLine3.jpg	Short_b23_cut1_stereo_44KHz.wav
4	194	3	4	2	I	2	0	844	0	poli_8sides 13_whiteLine3.jpg	Short_b22_cut1_stereo_44KHz.wav
4	195	1	1	1	C	1	0	1473	0	poli_8sides 1_whiteLine3.jpg	Short_b09_cut1_stereo_44KHz.wav
4	196	2	2	1	C	2	1	1014	1	poli_8sides 6_whiteLine3.jpg	Short_b20_cut1_stereo_44KHz.wav
4	197	1	2	0	C	1	1	724	1	poli_8sides 1_whiteLine3.jpg	Short_b20_cut1_stereo_44KHz.wav
4	198	4	4	2	I	1	0	1196	0	poli_8sides 12_whiteLine3.jpg	Short_b22_cut1_stereo_44KHz.wav
4	199	2	1	0	C	2	0	1158	0	poli_8sides 6_whiteLine3.jpg	Short_b09_cut1_stereo_44KHz.wav
4	200	3	3	2	I	1	0	802	1	poli_8sides 13_whiteLine3.jpg	Short_b23_cut1_stereo_44KHz.wav
