block	trial	Vstim	Astim	match	C/I	resp	.result	RT	fb	V-file	A-file
RL

0	1	2	4	0	C	2	1	1677	1	Ⴞ	cut_oo_stereo_44KHz.wav
0	2	1	2	0	C	2	1	948	1	Ⴋ	cut_ee_stereo_44KHz.wav
0	3	2	3	1	C	2	0	836	0	Ⴞ	cut_g_stereo_44KHz.wav
0	4	1	1	1	C	2	0	1258	0	Ⴋ	cut_eeuw_stereo_44KHz.wav
0	5	2	3	1	C	2	0	939	0	Ⴞ	cut_g_stereo_44KHz.wav
0	6	1	2	0	C	2	1	1640	1	Ⴋ	cut_ee_stereo_44KHz.wav
0	7	2	4	0	C	1	0	1251	0	Ⴞ	cut_oo_stereo_44KHz.wav
0	8	1	1	1	C	1	1	1264	1	Ⴋ	cut_eeuw_stereo_44KHz.wav
0	9	2	3	1	C	2	0	1405	0	Ⴞ	cut_g_stereo_44KHz.wav
0	10	1	2	0	C	2	1	920	1	Ⴋ	cut_ee_stereo_44KHz.wav
0	11	2	4	0	C	2	1	1173	1	Ⴞ	cut_oo_stereo_44KHz.wav
0	12	1	1	1	C	1	1	992	1	Ⴋ	cut_eeuw_stereo_44KHz.wav
0	13	2	3	1	C	1	1	939	1	Ⴞ	cut_g_stereo_44KHz.wav
0	14	1	1	1	C	2	0	1105	0	Ⴋ	cut_eeuw_stereo_44KHz.wav
0	15	2	4	0	C	2	1	1271	1	Ⴞ	cut_oo_stereo_44KHz.wav
0	16	1	2	0	C	2	1	897	1	Ⴋ	cut_ee_stereo_44KHz.wav
0	17	2	3	1	C	1	1	877	1	Ⴞ	cut_g_stereo_44KHz.wav
0	18	1	1	1	C	1	1	827	1	Ⴋ	cut_eeuw_stereo_44KHz.wav
0	19	2	4	0	C	2	1	839	1	Ⴞ	cut_oo_stereo_44KHz.wav
0	20	1	2	0	C	2	1	828	1	Ⴋ	cut_ee_stereo_44KHz.wav
0	21	2	4	0	C	2	1	1051	1	Ⴞ	cut_oo_stereo_44KHz.wav
0	22	1	2	0	C	2	1	722	1	Ⴋ	cut_ee_stereo_44KHz.wav
0	23	1	1	1	C	1	1	785	1	Ⴋ	cut_eeuw_stereo_44KHz.wav
0	24	2	3	1	C	2	0	683	0	Ⴞ	cut_g_stereo_44KHz.wav
0	25	2	3	1	C	1	1	1088	1	Ⴞ	cut_g_stereo_44KHz.wav
0	26	1	2	0	C	2	1	675	1	Ⴋ	cut_ee_stereo_44KHz.wav
0	27	1	1	1	C	1	1	915	1	Ⴋ	cut_eeuw_stereo_44KHz.wav
0	28	2	4	0	C	2	1	816	1	Ⴞ	cut_oo_stereo_44KHz.wav
0	29	1	2	0	C	2	1	752	1	Ⴋ	cut_ee_stereo_44KHz.wav
0	30	1	1	1	C	1	1	730	1	Ⴋ	cut_eeuw_stereo_44KHz.wav
avg_resp = 984
1	1	3	3	2	I	1	0	1056	1	Ⴔ	cut_ei_stereo_44KHz.wav
1	2	2	2	1	C	1	1	875	1	Ⴖ	cut_r_stereo_44KHz.wav
1	3	4	4	2	I	2	0	937	0	Ⴐ	cut_s_stereo_44KHz.wav
1	4	1	1	1	C	2	0	830	0	Ⴏ	cut_oei_stereo_44KHz.wav
1	5	4	3	2	I	1	0	730	0	Ⴐ	cut_ei_stereo_44KHz.wav
1	6	1	2	0	C	1	0	866	0	Ⴏ	cut_r_stereo_44KHz.wav
1	7	2	1	0	C	2	1	702	1	Ⴖ	cut_oei_stereo_44KHz.wav
1	8	3	4	2	I	2	0	985	1	Ⴔ	cut_s_stereo_44KHz.wav
1	9	4	4	2	I	1	0	770	1	Ⴐ	cut_s_stereo_44KHz.wav
1	10	2	1	0	C	2	1	726	1	Ⴖ	cut_oei_stereo_44KHz.wav
1	11	1	2	0	C	2	1	735	1	Ⴏ	cut_r_stereo_44KHz.wav
1	12	3	3	2	I	1	0	778	1	Ⴔ	cut_ei_stereo_44KHz.wav
1	13	4	3	2	I	1	0	702	1	Ⴐ	cut_ei_stereo_44KHz.wav
1	14	1	1	1	C	2	0	698	0	Ⴏ	cut_oei_stereo_44KHz.wav
1	15	3	4	2	I	1	0	861	0	Ⴔ	cut_s_stereo_44KHz.wav
1	16	2	2	1	C	2	0	606	0	Ⴖ	cut_r_stereo_44KHz.wav
1	17	4	3	2	I	1	0	699	1	Ⴐ	cut_ei_stereo_44KHz.wav
1	18	3	4	2	I	2	0	719	1	Ⴔ	cut_s_stereo_44KHz.wav
1	19	1	2	0	C	2	1	687	1	Ⴏ	cut_r_stereo_44KHz.wav
1	20	2	2	1	C	1	1	692	1	Ⴖ	cut_r_stereo_44KHz.wav
1	21	1	1	1	C	2	0	556	0	Ⴏ	cut_oei_stereo_44KHz.wav
1	22	4	4	2	I	2	0	761	1	Ⴐ	cut_s_stereo_44KHz.wav
1	23	2	1	0	C	1	0	713	0	Ⴖ	cut_oei_stereo_44KHz.wav
1	24	3	3	2	I	2	0	544	1	Ⴔ	cut_ei_stereo_44KHz.wav
1	25	4	3	2	I	1	0	599	0	Ⴐ	cut_ei_stereo_44KHz.wav
1	26	1	1	1	C	2	0	659	0	Ⴏ	cut_oei_stereo_44KHz.wav
1	27	2	1	0	C	2	1	529	1	Ⴖ	cut_oei_stereo_44KHz.wav
1	28	3	4	2	I	2	0	959	1	Ⴔ	cut_s_stereo_44KHz.wav
1	29	4	4	2	I	2	0	614	1	Ⴐ	cut_s_stereo_44KHz.wav
1	30	3	3	2	I	2	0	642	0	Ⴔ	cut_ei_stereo_44KHz.wav
1	31	2	2	1	C	2	0	535	0	Ⴖ	cut_r_stereo_44KHz.wav
1	32	1	2	0	C	2	1	621	1	Ⴏ	cut_r_stereo_44KHz.wav
1	33	3	3	2	I	2	0	596	0	Ⴔ	cut_ei_stereo_44KHz.wav
1	34	4	4	2	I	2	0	592	1	Ⴐ	cut_s_stereo_44KHz.wav
1	35	1	2	0	C	1	0	748	0	Ⴏ	cut_r_stereo_44KHz.wav
1	36	2	1	0	C	2	1	533	1	Ⴖ	cut_oei_stereo_44KHz.wav
1	37	3	4	2	I	2	0	649	0	Ⴔ	cut_s_stereo_44KHz.wav
1	38	4	3	2	I	2	0	533	0	Ⴐ	cut_ei_stereo_44KHz.wav
1	39	2	2	1	C	1	1	659	1	Ⴖ	cut_r_stereo_44KHz.wav
1	40	1	1	1	C	2	0	490	0	Ⴏ	cut_oei_stereo_44KHz.wav
1	41	3	3	2	I	1	0	640	1	Ⴔ	cut_ei_stereo_44KHz.wav
1	42	2	2	1	C	1	1	663	1	Ⴖ	cut_r_stereo_44KHz.wav
1	43	4	3	2	I	2	0	704	0	Ⴐ	cut_ei_stereo_44KHz.wav
1	44	1	2	0	C	2	1	545	1	Ⴏ	cut_r_stereo_44KHz.wav
1	45	4	4	2	I	1	0	546	1	Ⴐ	cut_s_stereo_44KHz.wav
1	46	3	4	2	I	2	0	821	1	Ⴔ	cut_s_stereo_44KHz.wav
1	47	1	1	1	C	1	1	857	1	Ⴏ	cut_oei_stereo_44KHz.wav
1	48	2	1	0	C	2	1	804	1	Ⴖ	cut_oei_stereo_44KHz.wav
1	49	1	1	1	C	1	1	1038	1	Ⴏ	cut_oei_stereo_44KHz.wav
1	50	3	3	2	I	1	0	732	0	Ⴔ	cut_ei_stereo_44KHz.wav
1	51	4	3	2	I	2	0	758	1	Ⴐ	cut_ei_stereo_44KHz.wav
1	52	2	2	1	C	1	1	878	1	Ⴖ	cut_r_stereo_44KHz.wav
1	53	4	4	2	I	2	0	800	0	Ⴐ	cut_s_stereo_44KHz.wav
1	54	2	1	0	C	2	1	610	1	Ⴖ	cut_oei_stereo_44KHz.wav
1	55	3	4	2	I	2	0	630	1	Ⴔ	cut_s_stereo_44KHz.wav
1	56	1	2	0	C	2	1	619	1	Ⴏ	cut_r_stereo_44KHz.wav
1	57	4	3	2	I	1	0	726	0	Ⴐ	cut_ei_stereo_44KHz.wav
1	58	2	1	0	C	2	1	513	1	Ⴖ	cut_oei_stereo_44KHz.wav
1	59	1	1	1	C	1	1	774	1	Ⴏ	cut_oei_stereo_44KHz.wav
1	60	3	4	2	I	2	0	963	0	Ⴔ	cut_s_stereo_44KHz.wav
1	61	2	2	1	C	1	1	732	1	Ⴖ	cut_r_stereo_44KHz.wav
1	62	4	4	2	I	2	0	767	0	Ⴐ	cut_s_stereo_44KHz.wav
1	63	1	2	0	C	2	1	822	1	Ⴏ	cut_r_stereo_44KHz.wav
1	64	3	3	2	I	1	0	924	1	Ⴔ	cut_ei_stereo_44KHz.wav
1	65	4	4	2	I	1	0	992	1	Ⴐ	cut_s_stereo_44KHz.wav
1	66	3	3	2	I	1	0	887	0	Ⴔ	cut_ei_stereo_44KHz.wav
1	67	2	1	0	C	2	1	698	1	Ⴖ	cut_oei_stereo_44KHz.wav
1	68	1	2	0	C	2	1	637	1	Ⴏ	cut_r_stereo_44KHz.wav
1	69	4	3	2	I	1	0	749	0	Ⴐ	cut_ei_stereo_44KHz.wav
1	70	3	4	2	I	2	0	939	0	Ⴔ	cut_s_stereo_44KHz.wav
1	71	2	2	1	C	1	1	735	1	Ⴖ	cut_r_stereo_44KHz.wav
1	72	1	1	1	C	1	1	953	1	Ⴏ	cut_oei_stereo_44KHz.wav
1	73	3	3	2	I	1	0	870	0	Ⴔ	cut_ei_stereo_44KHz.wav
1	74	4	3	2	I	1	0	966	0	Ⴐ	cut_ei_stereo_44KHz.wav
1	75	2	1	0	C	2	1	575	1	Ⴖ	cut_oei_stereo_44KHz.wav
1	76	1	2	0	C	2	1	830	1	Ⴏ	cut_r_stereo_44KHz.wav
1	77	2	2	1	C	1	1	628	1	Ⴖ	cut_r_stereo_44KHz.wav
1	78	4	4	2	I	2	0	690	0	Ⴐ	cut_s_stereo_44KHz.wav
1	79	1	1	1	C	1	1	768	1	Ⴏ	cut_oei_stereo_44KHz.wav
1	80	3	4	2	I	1	0	853	1	Ⴔ	cut_s_stereo_44KHz.wav
1	81	1	2	0	C	2	1	594	1	Ⴏ	cut_r_stereo_44KHz.wav
1	82	3	4	2	I	2	0	896	0	Ⴔ	cut_s_stereo_44KHz.wav
1	83	2	1	0	C	2	1	582	1	Ⴖ	cut_oei_stereo_44KHz.wav
1	84	4	3	2	I	2	0	756	0	Ⴐ	cut_ei_stereo_44KHz.wav
1	85	2	2	1	C	1	1	688	1	Ⴖ	cut_r_stereo_44KHz.wav
1	86	4	4	2	I	1	0	763	0	Ⴐ	cut_s_stereo_44KHz.wav
1	87	3	3	2	I	1	0	838	0	Ⴔ	cut_ei_stereo_44KHz.wav
1	88	1	1	1	C	1	1	926	1	Ⴏ	cut_oei_stereo_44KHz.wav
1	89	2	1	0	C	2	1	634	1	Ⴖ	cut_oei_stereo_44KHz.wav
1	90	3	4	2	I	2	0	1035	0	Ⴔ	cut_s_stereo_44KHz.wav
1	91	1	1	1	C	1	1	749	1	Ⴏ	cut_oei_stereo_44KHz.wav
1	92	4	4	2	I	1	0	939	1	Ⴐ	cut_s_stereo_44KHz.wav
1	93	3	3	2	I	1	0	740	0	Ⴔ	cut_ei_stereo_44KHz.wav
1	94	2	2	1	C	1	1	719	1	Ⴖ	cut_r_stereo_44KHz.wav
1	95	4	3	2	I	2	0	617	0	Ⴐ	cut_ei_stereo_44KHz.wav
1	96	1	2	0	C	1	0	799	0	Ⴏ	cut_r_stereo_44KHz.wav
1	97	4	3	2	I	1	0	878	1	Ⴐ	cut_ei_stereo_44KHz.wav
1	98	1	2	0	C	1	0	873	0	Ⴏ	cut_r_stereo_44KHz.wav
1	99	3	3	2	I	2	0	909	0	Ⴔ	cut_ei_stereo_44KHz.wav
1	100	2	1	0	C	2	1	663	1	Ⴖ	cut_oei_stereo_44KHz.wav
1	101	3	4	2	I	1	0	669	0	Ⴔ	cut_s_stereo_44KHz.wav
1	102	4	4	2	I	1	0	782	0	Ⴐ	cut_s_stereo_44KHz.wav
1	103	1	1	1	C	2	0	945	0	Ⴏ	cut_oei_stereo_44KHz.wav
1	104	2	2	1	C	1	1	718	1	Ⴖ	cut_r_stereo_44KHz.wav
1	105	1	2	0	C	2	1	836	1	Ⴏ	cut_r_stereo_44KHz.wav
1	106	4	3	2	I	2	0	658	1	Ⴐ	cut_ei_stereo_44KHz.wav
1	107	2	2	1	C	1	1	692	1	Ⴖ	cut_r_stereo_44KHz.wav
1	108	3	4	2	I	1	0	756	1	Ⴔ	cut_s_stereo_44KHz.wav
1	109	2	1	0	C	2	1	719	1	Ⴖ	cut_oei_stereo_44KHz.wav
1	110	3	3	2	I	1	0	713	1	Ⴔ	cut_ei_stereo_44KHz.wav
1	111	4	4	2	I	1	0	795	0	Ⴐ	cut_s_stereo_44KHz.wav
1	112	1	1	1	C	2	0	739	0	Ⴏ	cut_oei_stereo_44KHz.wav
1	113	2	1	0	C	2	1	406	1	Ⴖ	cut_oei_stereo_44KHz.wav
1	114	1	2	0	C	2	1	707	1	Ⴏ	cut_r_stereo_44KHz.wav
1	115	3	3	2	I	2	0	526	1	Ⴔ	cut_ei_stereo_44KHz.wav
1	116	4	3	2	I	1	0	762	1	Ⴐ	cut_ei_stereo_44KHz.wav
1	117	2	2	1	C	1	1	726	1	Ⴖ	cut_r_stereo_44KHz.wav
1	118	4	4	2	I	1	0	843	0	Ⴐ	cut_s_stereo_44KHz.wav
1	119	3	4	2	I	2	0	591	1	Ⴔ	cut_s_stereo_44KHz.wav
1	120	1	1	1	C	2	0	648	0	Ⴏ	cut_oei_stereo_44KHz.wav
1	121	3	3	2	I	1	0	649	1	Ⴔ	cut_ei_stereo_44KHz.wav
1	122	1	1	1	C	1	1	987	1	Ⴏ	cut_oei_stereo_44KHz.wav
1	123	2	2	1	C	1	1	616	1	Ⴖ	cut_r_stereo_44KHz.wav
1	124	4	3	2	I	2	0	848	0	Ⴐ	cut_ei_stereo_44KHz.wav
1	125	3	4	2	I	1	0	747	0	Ⴔ	cut_s_stereo_44KHz.wav
1	126	2	1	0	C	2	1	517	1	Ⴖ	cut_oei_stereo_44KHz.wav
1	127	4	4	2	I	1	0	712	1	Ⴐ	cut_s_stereo_44KHz.wav
1	128	1	2	0	C	2	1	785	1	Ⴏ	cut_r_stereo_44KHz.wav
1	129	3	3	2	I	1	0	652	1	Ⴔ	cut_ei_stereo_44KHz.wav
1	130	1	2	0	C	2	1	854	1	Ⴏ	cut_r_stereo_44KHz.wav
1	131	2	2	1	C	1	1	779	1	Ⴖ	cut_r_stereo_44KHz.wav
1	132	4	4	2	I	1	0	684	1	Ⴐ	cut_s_stereo_44KHz.wav
1	133	1	1	1	C	1	1	898	1	Ⴏ	cut_oei_stereo_44KHz.wav
1	134	2	1	0	C	2	1	652	1	Ⴖ	cut_oei_stereo_44KHz.wav
1	135	3	4	2	I	1	0	737	1	Ⴔ	cut_s_stereo_44KHz.wav
1	136	4	3	2	I	2	0	738	0	Ⴐ	cut_ei_stereo_44KHz.wav
1	137	1	1	1	C	1	1	835	1	Ⴏ	cut_oei_stereo_44KHz.wav
1	138	3	3	2	I	1	0	773	0	Ⴔ	cut_ei_stereo_44KHz.wav
1	139	2	2	1	C	1	1	727	1	Ⴖ	cut_r_stereo_44KHz.wav
1	140	4	4	2	I	1	0	911	0	Ⴐ	cut_s_stereo_44KHz.wav
1	141	1	2	0	C	2	1	838	1	Ⴏ	cut_r_stereo_44KHz.wav
1	142	3	4	2	I	2	0	749	1	Ⴔ	cut_s_stereo_44KHz.wav
1	143	2	1	0	C	2	1	578	1	Ⴖ	cut_oei_stereo_44KHz.wav
1	144	4	3	2	I	1	0	739	1	Ⴐ	cut_ei_stereo_44KHz.wav
1	145	1	2	0	C	2	1	569	1	Ⴏ	cut_r_stereo_44KHz.wav
1	146	4	3	2	I	1	0	706	1	Ⴐ	cut_ei_stereo_44KHz.wav
1	147	3	4	2	I	2	0	686	0	Ⴔ	cut_s_stereo_44KHz.wav
1	148	2	1	0	C	2	1	550	1	Ⴖ	cut_oei_stereo_44KHz.wav
1	149	3	3	2	I	2	0	811	0	Ⴔ	cut_ei_stereo_44KHz.wav
1	150	4	4	2	I	1	0	712	1	Ⴐ	cut_s_stereo_44KHz.wav
1	151	2	2	1	C	2	0	572	0	Ⴖ	cut_r_stereo_44KHz.wav
1	152	1	1	1	C	1	1	889	1	Ⴏ	cut_oei_stereo_44KHz.wav
1	153	3	3	2	I	1	0	890	1	Ⴔ	cut_ei_stereo_44KHz.wav
1	154	2	1	0	C	2	1	699	1	Ⴖ	cut_oei_stereo_44KHz.wav
1	155	1	2	0	C	2	1	876	1	Ⴏ	cut_r_stereo_44KHz.wav
1	156	4	4	2	I	1	0	779	0	Ⴐ	cut_s_stereo_44KHz.wav
1	157	3	4	2	I	2	0	677	1	Ⴔ	cut_s_stereo_44KHz.wav
1	158	1	1	1	C	1	1	727	1	Ⴏ	cut_oei_stereo_44KHz.wav
1	159	4	3	2	I	1	0	682	1	Ⴐ	cut_ei_stereo_44KHz.wav
1	160	2	2	1	C	1	1	827	1	Ⴖ	cut_r_stereo_44KHz.wav
1	161	3	4	2	I	2	0	1074	0	Ⴔ	cut_s_stereo_44KHz.wav
1	162	2	2	1	C	1	1	603	1	Ⴖ	cut_r_stereo_44KHz.wav
1	163	1	2	0	C	2	1	610	1	Ⴏ	cut_r_stereo_44KHz.wav
1	164	4	4	2	I	1	0	578	0	Ⴐ	cut_s_stereo_44KHz.wav
1	165	2	1	0	C	2	1	536	1	Ⴖ	cut_oei_stereo_44KHz.wav
1	166	4	3	2	I	1	0	731	0	Ⴐ	cut_ei_stereo_44KHz.wav
1	167	1	1	1	C	1	1	771	1	Ⴏ	cut_oei_stereo_44KHz.wav
1	168	3	3	2	I	2	0	695	0	Ⴔ	cut_ei_stereo_44KHz.wav
1	169	4	4	2	I	2	0	603	1	Ⴐ	cut_s_stereo_44KHz.wav
1	170	1	1	1	C	1	1	753	1	Ⴏ	cut_oei_stereo_44KHz.wav
1	171	3	4	2	I	2	0	654	1	Ⴔ	cut_s_stereo_44KHz.wav
1	172	2	2	1	C	1	1	689	1	Ⴖ	cut_r_stereo_44KHz.wav
1	173	1	2	0	C	2	1	798	1	Ⴏ	cut_r_stereo_44KHz.wav
1	174	2	1	0	C	2	1	665	1	Ⴖ	cut_oei_stereo_44KHz.wav
1	175	4	3	2	I	2	0	782	1	Ⴐ	cut_ei_stereo_44KHz.wav
1	176	3	3	2	I	2	0	826	1	Ⴔ	cut_ei_stereo_44KHz.wav
1	177	4	3	2	I	2	0	627	1	Ⴐ	cut_ei_stereo_44KHz.wav
1	178	3	4	2	I	2	0	607	0	Ⴔ	cut_s_stereo_44KHz.wav
1	179	2	1	0	C	2	1	864	1	Ⴖ	cut_oei_stereo_44KHz.wav
1	180	1	1	1	C	1	1	634	1	Ⴏ	cut_oei_stereo_44KHz.wav
1	181	3	3	2	I	1	0	954	1	Ⴔ	cut_ei_stereo_44KHz.wav
1	182	1	2	0	C	2	1	614	1	Ⴏ	cut_r_stereo_44KHz.wav
1	183	2	2	1	C	1	1	662	1	Ⴖ	cut_r_stereo_44KHz.wav
1	184	4	4	2	I	2	0	636	1	Ⴐ	cut_s_stereo_44KHz.wav
1	185	1	2	0	C	2	1	650	1	Ⴏ	cut_r_stereo_44KHz.wav
1	186	3	4	2	I	2	0	581	0	Ⴔ	cut_s_stereo_44KHz.wav
1	187	4	3	2	I	2	0	643	0	Ⴐ	cut_ei_stereo_44KHz.wav
1	188	2	1	0	C	2	1	511	1	Ⴖ	cut_oei_stereo_44KHz.wav
1	189	3	3	2	I	2	0	706	0	Ⴔ	cut_ei_stereo_44KHz.wav
1	190	2	2	1	C	1	1	700	1	Ⴖ	cut_r_stereo_44KHz.wav
1	191	1	1	1	C	2	0	813	0	Ⴏ	cut_oei_stereo_44KHz.wav
1	192	4	4	2	I	2	0	677	0	Ⴐ	cut_s_stereo_44KHz.wav
1	193	3	3	2	I	2	0	695	1	Ⴔ	cut_ei_stereo_44KHz.wav
1	194	4	3	2	I	1	0	574	1	Ⴐ	cut_ei_stereo_44KHz.wav
1	195	1	2	0	C	2	1	642	1	Ⴏ	cut_r_stereo_44KHz.wav
1	196	2	1	0	C	2	1	550	1	Ⴖ	cut_oei_stereo_44KHz.wav
1	197	4	4	2	I	2	0	586	1	Ⴐ	cut_s_stereo_44KHz.wav
1	198	2	2	1	C	2	0	581	0	Ⴖ	cut_r_stereo_44KHz.wav
1	199	1	1	1	C	1	1	858	1	Ⴏ	cut_oei_stereo_44KHz.wav
1	200	3	4	2	I	2	0	802	0	Ⴔ	cut_s_stereo_44KHz.wav
2	1	3	4	2	I	1	0	1152	0	Ⴕ	cut_n_stereo_44KHz.wav
2	2	4	4	2	I	1	0	561	0	Ⴒ	cut_n_stereo_44KHz.wav
2	3	2	2	1	C	2	0	522	0	Ⴌ	cut_f_stereo_44KHz.wav
2	4	1	2	0	C	1	0	565	0	Ⴉ	cut_f_stereo_44KHz.wav
2	5	2	1	0	C	2	1	616	1	Ⴌ	cut_ui_stereo_44KHz.wav
2	6	1	1	1	C	1	1	573	1	Ⴉ	cut_ui_stereo_44KHz.wav
2	7	4	3	2	I	2	0	803	1	Ⴒ	cut_j_stereo_44KHz.wav
2	8	3	3	2	I	1	0	701	1	Ⴕ	cut_j_stereo_44KHz.wav
2	9	2	1	0	C	2	1	600	1	Ⴌ	cut_ui_stereo_44KHz.wav
2	10	4	4	2	I	2	0	528	1	Ⴒ	cut_n_stereo_44KHz.wav
2	11	1	2	0	C	2	1	505	1	Ⴉ	cut_f_stereo_44KHz.wav
2	12	3	4	2	I	1	0	557	0	Ⴕ	cut_n_stereo_44KHz.wav
2	13	2	2	1	C	2	0	526	0	Ⴌ	cut_f_stereo_44KHz.wav
2	14	1	1	1	C	2	0	555	0	Ⴉ	cut_ui_stereo_44KHz.wav
2	15	4	3	2	I	2	0	563	0	Ⴒ	cut_j_stereo_44KHz.wav
2	16	3	3	2	I	2	0	646	1	Ⴕ	cut_j_stereo_44KHz.wav
2	17	2	2	1	C	1	1	1004	1	Ⴌ	cut_f_stereo_44KHz.wav
2	18	3	4	2	I	1	0	817	1	Ⴕ	cut_n_stereo_44KHz.wav
2	19	1	2	0	C	2	1	577	1	Ⴉ	cut_f_stereo_44KHz.wav
2	20	4	4	2	I	2	0	825	1	Ⴒ	cut_n_stereo_44KHz.wav
2	21	1	1	1	C	1	1	718	1	Ⴉ	cut_ui_stereo_44KHz.wav
2	22	3	3	2	I	1	0	821	1	Ⴕ	cut_j_stereo_44KHz.wav
2	23	2	1	0	C	2	1	654	1	Ⴌ	cut_ui_stereo_44KHz.wav
2	24	4	3	2	I	2	0	705	1	Ⴒ	cut_j_stereo_44KHz.wav
2	25	2	1	0	C	2	1	731	1	Ⴌ	cut_ui_stereo_44KHz.wav
2	26	1	1	1	C	1	1	775	1	Ⴉ	cut_ui_stereo_44KHz.wav
2	27	4	4	2	I	2	0	707	0	Ⴒ	cut_n_stereo_44KHz.wav
2	28	3	4	2	I	2	0	827	0	Ⴕ	cut_n_stereo_44KHz.wav
2	29	1	2	0	C	2	1	609	1	Ⴉ	cut_f_stereo_44KHz.wav
2	30	2	2	1	C	1	1	577	1	Ⴌ	cut_f_stereo_44KHz.wav
2	31	4	3	2	I	2	0	829	1	Ⴒ	cut_j_stereo_44KHz.wav
2	32	3	3	2	I	1	0	584	1	Ⴕ	cut_j_stereo_44KHz.wav
2	33	4	4	2	I	2	0	601	0	Ⴒ	cut_n_stereo_44KHz.wav
2	34	1	1	1	C	1	1	693	1	Ⴉ	cut_ui_stereo_44KHz.wav
2	35	3	3	2	I	2	0	742	1	Ⴕ	cut_j_stereo_44KHz.wav
2	36	2	1	0	C	2	1	609	1	Ⴌ	cut_ui_stereo_44KHz.wav
2	37	4	3	2	I	2	0	678	1	Ⴒ	cut_j_stereo_44KHz.wav
2	38	1	2	0	C	2	1	607	1	Ⴉ	cut_f_stereo_44KHz.wav
2	39	2	2	1	C	1	1	642	1	Ⴌ	cut_f_stereo_44KHz.wav
2	40	3	4	2	I	2	0	737	0	Ⴕ	cut_n_stereo_44KHz.wav
2	41	4	3	2	I	2	0	834	1	Ⴒ	cut_j_stereo_44KHz.wav
2	42	2	1	0	C	2	1	714	1	Ⴌ	cut_ui_stereo_44KHz.wav
2	43	3	3	2	I	2	0	726	1	Ⴕ	cut_j_stereo_44KHz.wav
2	44	1	2	0	C	2	1	571	1	Ⴉ	cut_f_stereo_44KHz.wav
2	45	2	2	1	C	1	1	684	1	Ⴌ	cut_f_stereo_44KHz.wav
2	46	1	1	1	C	1	1	699	1	Ⴉ	cut_ui_stereo_44KHz.wav
2	47	4	4	2	I	2	0	608	1	Ⴒ	cut_n_stereo_44KHz.wav
2	48	3	4	2	I	1	0	1145	0	Ⴕ	cut_n_stereo_44KHz.wav
2	49	1	1	1	C	1	1	704	1	Ⴉ	cut_ui_stereo_44KHz.wav
2	50	3	4	2	I	2	0	624	0	Ⴕ	cut_n_stereo_44KHz.wav
2	51	4	4	2	I	2	0	672	0	Ⴒ	cut_n_stereo_44KHz.wav
2	52	2	1	0	C	2	1	732	1	Ⴌ	cut_ui_stereo_44KHz.wav
2	53	1	2	0	C	2	1	556	1	Ⴉ	cut_f_stereo_44KHz.wav
2	54	3	3	2	I	2	0	757	0	Ⴕ	cut_j_stereo_44KHz.wav
2	55	2	2	1	C	1	1	883	1	Ⴌ	cut_f_stereo_44KHz.wav
2	56	4	3	2	I	2	0	728	0	Ⴒ	cut_j_stereo_44KHz.wav
2	57	1	2	0	C	2	1	581	1	Ⴉ	cut_f_stereo_44KHz.wav
2	58	2	2	1	C	1	1	691	1	Ⴌ	cut_f_stereo_44KHz.wav
2	59	3	4	2	I	2	0	691	0	Ⴕ	cut_n_stereo_44KHz.wav
2	60	4	4	2	I	2	0	735	0	Ⴒ	cut_n_stereo_44KHz.wav
2	61	2	1	0	C	2	1	683	1	Ⴌ	cut_ui_stereo_44KHz.wav
2	62	4	3	2	I	2	0	645	0	Ⴒ	cut_j_stereo_44KHz.wav
2	63	3	3	2	I	1	0	760	0	Ⴕ	cut_j_stereo_44KHz.wav
2	64	1	1	1	C	2	0	523	0	Ⴉ	cut_ui_stereo_44KHz.wav
2	65	4	3	2	I	2	0	692	0	Ⴒ	cut_j_stereo_44KHz.wav
2	66	3	3	2	I	1	0	500	1	Ⴕ	cut_j_stereo_44KHz.wav
2	67	2	2	1	C	1	1	895	1	Ⴌ	cut_f_stereo_44KHz.wav
2	68	1	2	0	C	2	1	617	1	Ⴉ	cut_f_stereo_44KHz.wav
2	69	3	4	2	I	1	0	672	0	Ⴕ	cut_n_stereo_44KHz.wav
2	70	4	4	2	I	1	0	660	1	Ⴒ	cut_n_stereo_44KHz.wav
2	71	1	1	1	C	1	1	691	1	Ⴉ	cut_ui_stereo_44KHz.wav
2	72	2	1	0	C	2	1	701	1	Ⴌ	cut_ui_stereo_44KHz.wav
2	73	4	3	2	I	1	0	593	0	Ⴒ	cut_j_stereo_44KHz.wav
2	74	3	4	2	I	2	0	611	0	Ⴕ	cut_n_stereo_44KHz.wav
2	75	2	2	1	C	1	1	969	1	Ⴌ	cut_f_stereo_44KHz.wav
2	76	1	1	1	C	1	1	728	1	Ⴉ	cut_ui_stereo_44KHz.wav
2	77	4	4	2	I	2	0	623	0	Ⴒ	cut_n_stereo_44KHz.wav
2	78	1	2	0	C	2	1	643	1	Ⴉ	cut_f_stereo_44KHz.wav
2	79	3	3	2	I	2	0	709	0	Ⴕ	cut_j_stereo_44KHz.wav
2	80	2	1	0	C	2	1	574	1	Ⴌ	cut_ui_stereo_44KHz.wav
2	81	4	3	2	I	1	0	569	1	Ⴒ	cut_j_stereo_44KHz.wav
2	82	2	1	0	C	2	1	618	1	Ⴌ	cut_ui_stereo_44KHz.wav
2	83	3	3	2	I	1	0	680	0	Ⴕ	cut_j_stereo_44KHz.wav
2	84	1	1	1	C	1	1	784	1	Ⴉ	cut_ui_stereo_44KHz.wav
2	85	4	4	2	I	2	0	808	1	Ⴒ	cut_n_stereo_44KHz.wav
2	86	2	2	1	C	1	1	786	1	Ⴌ	cut_f_stereo_44KHz.wav
2	87	3	4	2	I	2	0	734	1	Ⴕ	cut_n_stereo_44KHz.wav
2	88	1	2	0	C	2	1	618	1	Ⴉ	cut_f_stereo_44KHz.wav
2	89	4	3	2	I	2	0	617	1	Ⴒ	cut_j_stereo_44KHz.wav
2	90	1	2	0	C	2	1	536	1	Ⴉ	cut_f_stereo_44KHz.wav
2	91	2	2	1	C	1	1	707	1	Ⴌ	cut_f_stereo_44KHz.wav
2	92	3	3	2	I	2	0	620	1	Ⴕ	cut_j_stereo_44KHz.wav
2	93	2	1	0	C	1	0	744	0	Ⴌ	cut_ui_stereo_44KHz.wav
2	94	3	4	2	I	2	0	676	1	Ⴕ	cut_n_stereo_44KHz.wav
2	95	1	1	1	C	1	1	680	1	Ⴉ	cut_ui_stereo_44KHz.wav
2	96	4	4	2	I	2	0	670	0	Ⴒ	cut_n_stereo_44KHz.wav
2	97	3	3	2	I	2	0	833	1	Ⴕ	cut_j_stereo_44KHz.wav
2	98	4	3	2	I	1	0	711	0	Ⴒ	cut_j_stereo_44KHz.wav
2	99	1	2	0	C	2	1	577	1	Ⴉ	cut_f_stereo_44KHz.wav
2	100	2	1	0	C	2	1	563	1	Ⴌ	cut_ui_stereo_44KHz.wav
2	101	1	1	1	C	1	1	684	1	Ⴉ	cut_ui_stereo_44KHz.wav
2	102	3	4	2	I	1	0	584	1	Ⴕ	cut_n_stereo_44KHz.wav
2	103	4	4	2	I	2	0	585	1	Ⴒ	cut_n_stereo_44KHz.wav
2	104	2	2	1	C	1	1	700	1	Ⴌ	cut_f_stereo_44KHz.wav
2	105	4	3	2	I	1	0	572	1	Ⴒ	cut_j_stereo_44KHz.wav
2	106	3	4	2	I	2	0	997	0	Ⴕ	cut_n_stereo_44KHz.wav
2	107	2	2	1	C	1	1	696	1	Ⴌ	cut_f_stereo_44KHz.wav
2	108	1	1	1	C	1	1	657	1	Ⴉ	cut_ui_stereo_44KHz.wav
2	109	2	1	0	C	1	0	637	0	Ⴌ	cut_ui_stereo_44KHz.wav
2	110	1	2	0	C	2	1	576	1	Ⴉ	cut_f_stereo_44KHz.wav
2	111	4	4	2	I	2	0	698	1	Ⴒ	cut_n_stereo_44KHz.wav
2	112	3	3	2	I	2	0	694	1	Ⴕ	cut_j_stereo_44KHz.wav
2	113	2	2	1	C	1	1	775	1	Ⴌ	cut_f_stereo_44KHz.wav
2	114	1	1	1	C	2	0	557	0	Ⴉ	cut_ui_stereo_44KHz.wav
2	115	4	3	2	I	2	0	726	0	Ⴒ	cut_j_stereo_44KHz.wav
2	116	3	3	2	I	2	0	485	0	Ⴕ	cut_j_stereo_44KHz.wav
2	117	2	1	0	C	2	1	558	1	Ⴌ	cut_ui_stereo_44KHz.wav
2	118	4	4	2	I	2	0	788	1	Ⴒ	cut_n_stereo_44KHz.wav
2	119	1	2	0	C	2	1	610	1	Ⴉ	cut_f_stereo_44KHz.wav
2	120	3	4	2	I	2	0	647	0	Ⴕ	cut_n_stereo_44KHz.wav
2	121	4	4	2	I	2	0	475	1	Ⴒ	cut_n_stereo_44KHz.wav
2	122	3	4	2	I	2	0	634	0	Ⴕ	cut_n_stereo_44KHz.wav
2	123	2	1	0	C	2	1	562	1	Ⴌ	cut_ui_stereo_44KHz.wav
2	124	1	1	1	C	1	1	722	1	Ⴉ	cut_ui_stereo_44KHz.wav
2	125	2	2	1	C	1	1	687	1	Ⴌ	cut_f_stereo_44KHz.wav
2	126	1	2	0	C	2	1	759	1	Ⴉ	cut_f_stereo_44KHz.wav
2	127	3	3	2	I	2	0	876	0	Ⴕ	cut_j_stereo_44KHz.wav
2	128	4	3	2	I	2	0	548	0	Ⴒ	cut_j_stereo_44KHz.wav
2	129	2	1	0	C	2	1	622	1	Ⴌ	cut_ui_stereo_44KHz.wav
2	130	4	4	2	I	2	0	791	0	Ⴒ	cut_n_stereo_44KHz.wav
2	131	1	1	1	C	1	1	733	1	Ⴉ	cut_ui_stereo_44KHz.wav
2	132	3	4	2	I	2	0	876	0	Ⴕ	cut_n_stereo_44KHz.wav
2	133	4	3	2	I	2	0	575	0	Ⴒ	cut_j_stereo_44KHz.wav
2	134	1	2	0	C	2	1	554	1	Ⴉ	cut_f_stereo_44KHz.wav
2	135	3	3	2	I	1	0	750	1	Ⴕ	cut_j_stereo_44KHz.wav
2	136	2	2	1	C	1	1	1075	1	Ⴌ	cut_f_stereo_44KHz.wav
2	137	1	1	1	C	1	1	723	1	Ⴉ	cut_ui_stereo_44KHz.wav
2	138	4	4	2	I	2	0	766	1	Ⴒ	cut_n_stereo_44KHz.wav
2	139	2	1	0	C	2	1	812	1	Ⴌ	cut_ui_stereo_44KHz.wav
2	140	3	4	2	I	1	0	714	0	Ⴕ	cut_n_stereo_44KHz.wav
2	141	4	3	2	I	1	0	742	0	Ⴒ	cut_j_stereo_44KHz.wav
2	142	2	2	1	C	1	1	1004	1	Ⴌ	cut_f_stereo_44KHz.wav
2	143	3	3	2	I	2	0	794	1	Ⴕ	cut_j_stereo_44KHz.wav
2	144	1	2	0	C	2	1	642	1	Ⴉ	cut_f_stereo_44KHz.wav
2	145	2	1	0	C	2	1	824	1	Ⴌ	cut_ui_stereo_44KHz.wav
2	146	3	4	2	I	2	0	871	1	Ⴕ	cut_n_stereo_44KHz.wav
2	147	4	4	2	I	2	0	653	0	Ⴒ	cut_n_stereo_44KHz.wav
2	148	1	2	0	C	2	1	537	1	Ⴉ	cut_f_stereo_44KHz.wav
2	149	4	3	2	I	2	0	703	1	Ⴒ	cut_j_stereo_44KHz.wav
2	150	3	3	2	I	1	0	696	0	Ⴕ	cut_j_stereo_44KHz.wav
2	151	1	1	1	C	1	1	860	1	Ⴉ	cut_ui_stereo_44KHz.wav
2	152	2	2	1	C	1	1	708	1	Ⴌ	cut_f_stereo_44KHz.wav
2	153	3	3	2	I	2	0	625	1	Ⴕ	cut_j_stereo_44KHz.wav
2	154	2	2	1	C	1	1	699	1	Ⴌ	cut_f_stereo_44KHz.wav
2	155	4	4	2	I	2	0	791	0	Ⴒ	cut_n_stereo_44KHz.wav
2	156	1	2	0	C	2	1	583	1	Ⴉ	cut_f_stereo_44KHz.wav
2	157	4	3	2	I	2	0	651	1	Ⴒ	cut_j_stereo_44KHz.wav
2	158	1	1	1	C	1	1	832	1	Ⴉ	cut_ui_stereo_44KHz.wav
2	159	2	1	0	C	2	1	633	1	Ⴌ	cut_ui_stereo_44KHz.wav
2	160	3	4	2	I	2	0	812	0	Ⴕ	cut_n_stereo_44KHz.wav
2	161	2	1	0	C	2	1	952	1	Ⴌ	cut_ui_stereo_44KHz.wav
2	162	4	3	2	I	2	0	685	0	Ⴒ	cut_j_stereo_44KHz.wav
2	163	1	2	0	C	2	1	720	1	Ⴉ	cut_f_stereo_44KHz.wav
2	164	3	3	2	I	2	0	796	1	Ⴕ	cut_j_stereo_44KHz.wav
2	165	4	4	2	I	2	0	860	0	Ⴒ	cut_n_stereo_44KHz.wav
2	166	2	2	1	C	1	1	860	1	Ⴌ	cut_f_stereo_44KHz.wav
2	167	3	4	2	I	2	0	809	1	Ⴕ	cut_n_stereo_44KHz.wav
2	168	1	1	1	C	1	1	855	1	Ⴉ	cut_ui_stereo_44KHz.wav
2	169	2	1	0	C	2	1	670	1	Ⴌ	cut_ui_stereo_44KHz.wav
2	170	1	2	0	C	2	1	706	1	Ⴉ	cut_f_stereo_44KHz.wav
2	171	3	3	2	I	1	0	829	0	Ⴕ	cut_j_stereo_44KHz.wav
2	172	4	3	2	I	2	0	670	0	Ⴒ	cut_j_stereo_44KHz.wav
2	173	1	1	1	C	1	1	923	1	Ⴉ	cut_ui_stereo_44KHz.wav
2	174	2	2	1	C	1	1	753	1	Ⴌ	cut_f_stereo_44KHz.wav
2	175	4	4	2	I	2	0	544	1	Ⴒ	cut_n_stereo_44KHz.wav
2	176	3	4	2	I	1	0	649	0	Ⴕ	cut_n_stereo_44KHz.wav
2	177	2	2	1	C	1	1	997	1	Ⴌ	cut_f_stereo_44KHz.wav
2	178	1	2	0	C	2	1	756	1	Ⴉ	cut_f_stereo_44KHz.wav
2	179	4	4	2	I	1	0	957	1	Ⴒ	cut_n_stereo_44KHz.wav
2	180	3	4	2	I	2	0	636	1	Ⴕ	cut_n_stereo_44KHz.wav
2	181	2	1	0	C	2	1	637	1	Ⴌ	cut_ui_stereo_44KHz.wav
2	182	4	3	2	I	2	0	698	1	Ⴒ	cut_j_stereo_44KHz.wav
2	183	3	3	2	I	1	0	619	1	Ⴕ	cut_j_stereo_44KHz.wav
2	184	1	1	1	C	1	1	674	1	Ⴉ	cut_ui_stereo_44KHz.wav
2	185	4	3	2	I	2	0	729	1	Ⴒ	cut_j_stereo_44KHz.wav
2	186	1	2	0	C	2	1	882	1	Ⴉ	cut_f_stereo_44KHz.wav
2	187	3	4	2	I	2	0	672	0	Ⴕ	cut_n_stereo_44KHz.wav
2	188	2	2	1	C	1	1	782	1	Ⴌ	cut_f_stereo_44KHz.wav
2	189	4	4	2	I	2	0	642	0	Ⴒ	cut_n_stereo_44KHz.wav
2	190	3	3	2	I	2	0	832	1	Ⴕ	cut_j_stereo_44KHz.wav
2	191	2	1	0	C	2	1	663	1	Ⴌ	cut_ui_stereo_44KHz.wav
2	192	1	1	1	C	1	1	759	1	Ⴉ	cut_ui_stereo_44KHz.wav
2	193	3	4	2	I	1	0	671	1	Ⴕ	cut_n_stereo_44KHz.wav
2	194	4	4	2	I	2	0	500	0	Ⴒ	cut_n_stereo_44KHz.wav
2	195	1	1	1	C	1	1	638	1	Ⴉ	cut_ui_stereo_44KHz.wav
2	196	2	1	0	C	2	1	551	1	Ⴌ	cut_ui_stereo_44KHz.wav
2	197	1	2	0	C	2	1	703	1	Ⴉ	cut_f_stereo_44KHz.wav
2	198	3	3	2	I	2	0	707	1	Ⴕ	cut_j_stereo_44KHz.wav
2	199	2	2	1	C	1	1	935	1	Ⴌ	cut_f_stereo_44KHz.wav
2	200	4	3	2	I	2	0	783	1	Ⴒ	cut_j_stereo_44KHz.wav
3	1	2	2	1	C	2	0	930	0	Ⴇ	cut_k_stereo_44KHz.wav
3	2	3	3	2	I	2	0	478	0	Ⴃ	cut_u_stereo_44KHz.wav
3	3	1	1	1	C	2	0	432	0	Ⴂ	cut_a_stereo_44KHz.wav
3	4	4	3	2	I	2	0	419	0	Ⴡ	cut_u_stereo_44KHz.wav
3	5	3	4	2	I	2	0	465	0	Ⴃ	cut_o_stereo_44KHz.wav
3	6	1	2	0	C	2	1	358	1	Ⴂ	cut_k_stereo_44KHz.wav
3	7	4	4	2	I	2	0	625	1	Ⴡ	cut_o_stereo_44KHz.wav
3	8	2	1	0	C	1	0	469	0	Ⴇ	cut_a_stereo_44KHz.wav
3	9	4	3	2	I	2	0	403	0	Ⴡ	cut_u_stereo_44KHz.wav
3	10	1	2	0	C	2	1	464	1	Ⴂ	cut_k_stereo_44KHz.wav
3	11	3	3	2	I	1	0	640	1	Ⴃ	cut_u_stereo_44KHz.wav
3	12	2	1	0	C	2	1	570	1	Ⴇ	cut_a_stereo_44KHz.wav
3	13	4	4	2	I	2	0	520	0	Ⴡ	cut_o_stereo_44KHz.wav
3	14	1	1	1	C	2	0	475	0	Ⴂ	cut_a_stereo_44KHz.wav
3	15	3	4	2	I	1	0	679	1	Ⴃ	cut_o_stereo_44KHz.wav
3	16	2	2	1	C	1	1	676	1	Ⴇ	cut_k_stereo_44KHz.wav
3	17	4	4	2	I	2	0	702	0	Ⴡ	cut_o_stereo_44KHz.wav
3	18	3	4	2	I	1	0	641	1	Ⴃ	cut_o_stereo_44KHz.wav
3	19	2	1	0	C	2	1	621	1	Ⴇ	cut_a_stereo_44KHz.wav
3	20	1	2	0	C	2	1	381	1	Ⴂ	cut_k_stereo_44KHz.wav
3	21	3	3	2	I	1	0	384	0	Ⴃ	cut_u_stereo_44KHz.wav
3	22	2	2	1	C	1	1	812	1	Ⴇ	cut_k_stereo_44KHz.wav
3	23	4	3	2	I	2	0	736	0	Ⴡ	cut_u_stereo_44KHz.wav
3	24	1	1	1	C	1	1	784	1	Ⴂ	cut_a_stereo_44KHz.wav
3	25	4	4	2	I	2	0	585	1	Ⴡ	cut_o_stereo_44KHz.wav
3	26	3	4	2	I	1	0	539	0	Ⴃ	cut_o_stereo_44KHz.wav
3	27	2	1	0	C	2	1	669	1	Ⴇ	cut_a_stereo_44KHz.wav
3	28	1	2	0	C	2	1	558	1	Ⴂ	cut_k_stereo_44KHz.wav
3	29	4	3	2	I	2	0	520	1	Ⴡ	cut_u_stereo_44KHz.wav
3	30	1	1	1	C	1	1	774	1	Ⴂ	cut_a_stereo_44KHz.wav
3	31	3	3	2	I	2	0	548	0	Ⴃ	cut_u_stereo_44KHz.wav
3	32	2	2	1	C	2	0	553	0	Ⴇ	cut_k_stereo_44KHz.wav
3	33	4	4	2	I	2	0	598	1	Ⴡ	cut_o_stereo_44KHz.wav
3	34	3	3	2	I	1	0	846	1	Ⴃ	cut_u_stereo_44KHz.wav
3	35	2	1	0	C	2	1	476	1	Ⴇ	cut_a_stereo_44KHz.wav
3	36	1	1	1	C	2	0	564	0	Ⴂ	cut_a_stereo_44KHz.wav
3	37	3	4	2	I	2	0	526	0	Ⴃ	cut_o_stereo_44KHz.wav
3	38	1	2	0	C	1	0	783	0	Ⴂ	cut_k_stereo_44KHz.wav
3	39	4	3	2	I	2	0	663	1	Ⴡ	cut_u_stereo_44KHz.wav
3	40	2	2	1	C	1	1	837	1	Ⴇ	cut_k_stereo_44KHz.wav
3	41	3	3	2	I	2	0	661	0	Ⴃ	cut_u_stereo_44KHz.wav
3	42	1	2	0	C	2	1	812	1	Ⴂ	cut_k_stereo_44KHz.wav
3	43	4	4	2	I	2	0	564	0	Ⴡ	cut_o_stereo_44KHz.wav
3	44	2	1	0	C	2	1	514	1	Ⴇ	cut_a_stereo_44KHz.wav
3	45	1	1	1	C	1	1	605	1	Ⴂ	cut_a_stereo_44KHz.wav
3	46	3	4	2	I	2	0	570	0	Ⴃ	cut_o_stereo_44KHz.wav
3	47	4	3	2	I	2	0	608	0	Ⴡ	cut_u_stereo_44KHz.wav
3	48	2	2	1	C	1	1	636	1	Ⴇ	cut_k_stereo_44KHz.wav
3	49	3	4	2	I	2	0	600	1	Ⴃ	cut_o_stereo_44KHz.wav
3	50	1	2	0	C	2	1	532	1	Ⴂ	cut_k_stereo_44KHz.wav
3	51	2	1	0	C	1	0	316	0	Ⴇ	cut_a_stereo_44KHz.wav
3	52	4	3	2	I	2	0	577	0	Ⴡ	cut_u_stereo_44KHz.wav
3	53	3	3	2	I	2	0	661	1	Ⴃ	cut_u_stereo_44KHz.wav
3	54	1	1	1	C	2	0	497	0	Ⴂ	cut_a_stereo_44KHz.wav
3	55	2	2	1	C	1	1	825	1	Ⴇ	cut_k_stereo_44KHz.wav
3	56	4	4	2	I	2	0	638	0	Ⴡ	cut_o_stereo_44KHz.wav
3	57	2	1	0	C	2	1	511	1	Ⴇ	cut_a_stereo_44KHz.wav
3	58	1	2	0	C	2	1	518	1	Ⴂ	cut_k_stereo_44KHz.wav
3	59	3	3	2	I	2	0	606	1	Ⴃ	cut_u_stereo_44KHz.wav
3	60	4	3	2	I	2	0	568	0	Ⴡ	cut_u_stereo_44KHz.wav
3	61	2	2	1	C	1	1	874	1	Ⴇ	cut_k_stereo_44KHz.wav
3	62	3	4	2	I	2	0	660	0	Ⴃ	cut_o_stereo_44KHz.wav
3	63	4	4	2	I	2	0	942	0	Ⴡ	cut_o_stereo_44KHz.wav
3	64	1	1	1	C	1	1	555	1	Ⴂ	cut_a_stereo_44KHz.wav
3	65	4	3	2	I	1	0	618	1	Ⴡ	cut_u_stereo_44KHz.wav
3	66	1	2	0	C	2	1	558	1	Ⴂ	cut_k_stereo_44KHz.wav
3	67	3	3	2	I	1	0	630	0	Ⴃ	cut_u_stereo_44KHz.wav
3	68	2	1	0	C	2	1	508	1	Ⴇ	cut_a_stereo_44KHz.wav
3	69	4	4	2	I	2	0	429	1	Ⴡ	cut_o_stereo_44KHz.wav
3	70	3	4	2	I	2	0	685	0	Ⴃ	cut_o_stereo_44KHz.wav
3	71	2	2	1	C	1	1	685	1	Ⴇ	cut_k_stereo_44KHz.wav
3	72	1	1	1	C	2	0	599	0	Ⴂ	cut_a_stereo_44KHz.wav
3	73	3	3	2	I	1	0	572	1	Ⴃ	cut_u_stereo_44KHz.wav
3	74	2	2	1	C	1	1	530	1	Ⴇ	cut_k_stereo_44KHz.wav
3	75	1	2	0	C	2	1	372	1	Ⴂ	cut_k_stereo_44KHz.wav
3	76	4	4	2	I	1	0	490	0	Ⴡ	cut_o_stereo_44KHz.wav
3	77	2	1	0	C	2	1	531	1	Ⴇ	cut_a_stereo_44KHz.wav
3	78	4	3	2	I	1	0	442	1	Ⴡ	cut_u_stereo_44KHz.wav
3	79	1	1	1	C	2	0	563	0	Ⴂ	cut_a_stereo_44KHz.wav
3	80	3	4	2	I	1	0	575	0	Ⴃ	cut_o_stereo_44KHz.wav
3	81	2	1	0	C	2	1	503	1	Ⴇ	cut_a_stereo_44KHz.wav
3	82	1	1	1	C	1	1	527	1	Ⴂ	cut_a_stereo_44KHz.wav
3	83	4	3	2	I	1	0	512	1	Ⴡ	cut_u_stereo_44KHz.wav
3	84	3	4	2	I	1	0	559	1	Ⴃ	cut_o_stereo_44KHz.wav
3	85	2	2	1	C	1	1	547	1	Ⴇ	cut_k_stereo_44KHz.wav
3	86	3	3	2	I	1	0	532	1	Ⴃ	cut_u_stereo_44KHz.wav
3	87	4	4	2	I	1	0	586	1	Ⴡ	cut_o_stereo_44KHz.wav
3	88	1	2	0	C	2	1	642	1	Ⴂ	cut_k_stereo_44KHz.wav
3	89	3	3	2	I	1	0	461	1	Ⴃ	cut_u_stereo_44KHz.wav
3	90	4	4	2	I	2	0	608	0	Ⴡ	cut_o_stereo_44KHz.wav
3	91	1	1	1	C	1	1	655	1	Ⴂ	cut_a_stereo_44KHz.wav
3	92	2	1	0	C	2	1	456	1	Ⴇ	cut_a_stereo_44KHz.wav
3	93	4	3	2	I	2	0	525	1	Ⴡ	cut_u_stereo_44KHz.wav
3	94	1	2	0	C	2	1	534	1	Ⴂ	cut_k_stereo_44KHz.wav
3	95	2	2	1	C	2	0	583	0	Ⴇ	cut_k_stereo_44KHz.wav
3	96	3	4	2	I	1	0	578	1	Ⴃ	cut_o_stereo_44KHz.wav
3	97	4	3	2	I	1	0	585	1	Ⴡ	cut_u_stereo_44KHz.wav
3	98	3	4	2	I	1	0	539	1	Ⴃ	cut_o_stereo_44KHz.wav
3	99	1	2	0	C	2	1	572	1	Ⴂ	cut_k_stereo_44KHz.wav
3	100	2	2	1	C	1	1	562	1	Ⴇ	cut_k_stereo_44KHz.wav
3	101	1	1	1	C	1	1	490	1	Ⴂ	cut_a_stereo_44KHz.wav
3	102	3	3	2	I	1	0	503	1	Ⴃ	cut_u_stereo_44KHz.wav
3	103	4	4	2	I	1	0	603	1	Ⴡ	cut_o_stereo_44KHz.wav
3	104	2	1	0	C	2	1	520	1	Ⴇ	cut_a_stereo_44KHz.wav
3	105	1	1	1	C	1	1	543	1	Ⴂ	cut_a_stereo_44KHz.wav
3	106	2	1	0	C	2	1	553	1	Ⴇ	cut_a_stereo_44KHz.wav
3	107	3	4	2	I	1	0	547	1	Ⴃ	cut_o_stereo_44KHz.wav
3	108	4	4	2	I	1	0	556	0	Ⴡ	cut_o_stereo_44KHz.wav
3	109	3	3	2	I	1	0	997	0	Ⴃ	cut_u_stereo_44KHz.wav
3	110	1	2	0	C	2	1	447	1	Ⴂ	cut_k_stereo_44KHz.wav
3	111	4	3	2	I	1	0	410	1	Ⴡ	cut_u_stereo_44KHz.wav
3	112	2	2	1	C	1	1	680	1	Ⴇ	cut_k_stereo_44KHz.wav
3	113	4	4	2	I	1	0	531	0	Ⴡ	cut_o_stereo_44KHz.wav
3	114	3	4	2	I	1	0	444	0	Ⴃ	cut_o_stereo_44KHz.wav
3	115	2	2	1	C	2	0	497	0	Ⴇ	cut_k_stereo_44KHz.wav
3	116	1	2	0	C	2	1	644	1	Ⴂ	cut_k_stereo_44KHz.wav
3	117	2	1	0	C	2	1	431	1	Ⴇ	cut_a_stereo_44KHz.wav
3	118	1	1	1	C	1	1	678	1	Ⴂ	cut_a_stereo_44KHz.wav
3	119	4	3	2	I	2	0	639	0	Ⴡ	cut_u_stereo_44KHz.wav
3	120	3	3	2	I	2	0	468	0	Ⴃ	cut_u_stereo_44KHz.wav
3	121	4	4	2	I	1	0	537	1	Ⴡ	cut_o_stereo_44KHz.wav
3	122	3	3	2	I	1	0	502	0	Ⴃ	cut_u_stereo_44KHz.wav
3	123	2	1	0	C	2	1	523	1	Ⴇ	cut_a_stereo_44KHz.wav
3	124	1	1	1	C	1	1	495	1	Ⴂ	cut_a_stereo_44KHz.wav
3	125	3	4	2	I	1	0	478	0	Ⴃ	cut_o_stereo_44KHz.wav
3	126	4	3	2	I	2	0	542	1	Ⴡ	cut_u_stereo_44KHz.wav
3	127	1	2	0	C	2	1	516	1	Ⴂ	cut_k_stereo_44KHz.wav
3	128	2	2	1	C	1	1	500	1	Ⴇ	cut_k_stereo_44KHz.wav
3	129	1	2	0	C	2	1	684	1	Ⴂ	cut_k_stereo_44KHz.wav
3	130	4	3	2	I	1	0	442	0	Ⴡ	cut_u_stereo_44KHz.wav
3	131	2	1	0	C	2	1	499	1	Ⴇ	cut_a_stereo_44KHz.wav
3	132	3	3	2	I	1	0	628	0	Ⴃ	cut_u_stereo_44KHz.wav
3	133	1	1	1	C	1	1	652	1	Ⴂ	cut_a_stereo_44KHz.wav
3	134	2	2	1	C	1	1	705	1	Ⴇ	cut_k_stereo_44KHz.wav
3	135	3	4	2	I	1	0	619	1	Ⴃ	cut_o_stereo_44KHz.wav
3	136	4	4	2	I	1	0	584	0	Ⴡ	cut_o_stereo_44KHz.wav
3	137	1	2	0	C	2	1	733	1	Ⴂ	cut_k_stereo_44KHz.wav
3	138	4	3	2	I	2	0	742	1	Ⴡ	cut_u_stereo_44KHz.wav
3	139	3	3	2	I	1	0	481	1	Ⴃ	cut_u_stereo_44KHz.wav
3	140	2	1	0	C	2	1	543	1	Ⴇ	cut_a_stereo_44KHz.wav
3	141	4	4	2	I	2	0	621	1	Ⴡ	cut_o_stereo_44KHz.wav
3	142	2	2	1	C	1	1	654	1	Ⴇ	cut_k_stereo_44KHz.wav
3	143	1	1	1	C	1	1	901	1	Ⴂ	cut_a_stereo_44KHz.wav
3	144	3	4	2	I	2	0	741	1	Ⴃ	cut_o_stereo_44KHz.wav
3	145	1	1	1	C	1	1	612	1	Ⴂ	cut_a_stereo_44KHz.wav
3	146	4	3	2	I	2	0	698	0	Ⴡ	cut_u_stereo_44KHz.wav
3	147	3	3	2	I	1	0	484	0	Ⴃ	cut_u_stereo_44KHz.wav
3	148	2	2	1	C	1	1	778	1	Ⴇ	cut_k_stereo_44KHz.wav
3	149	1	2	0	C	2	1	643	1	Ⴂ	cut_k_stereo_44KHz.wav
3	150	4	4	2	I	2	0	707	1	Ⴡ	cut_o_stereo_44KHz.wav
3	151	3	4	2	I	2	0	557	1	Ⴃ	cut_o_stereo_44KHz.wav
3	152	2	1	0	C	1	0	478	0	Ⴇ	cut_a_stereo_44KHz.wav
3	153	4	3	2	I	2	0	580	0	Ⴡ	cut_u_stereo_44KHz.wav
3	154	3	4	2	I	2	0	589	0	Ⴃ	cut_o_stereo_44KHz.wav
3	155	1	1	1	C	1	1	542	1	Ⴂ	cut_a_stereo_44KHz.wav
3	156	2	2	1	C	1	1	776	1	Ⴇ	cut_k_stereo_44KHz.wav
3	157	4	4	2	I	2	0	663	0	Ⴡ	cut_o_stereo_44KHz.wav
3	158	2	1	0	C	2	1	626	1	Ⴇ	cut_a_stereo_44KHz.wav
3	159	1	2	0	C	2	1	454	1	Ⴂ	cut_k_stereo_44KHz.wav
3	160	3	3	2	I	1	0	407	0	Ⴃ	cut_u_stereo_44KHz.wav
3	161	1	2	0	C	2	1	534	1	Ⴂ	cut_k_stereo_44KHz.wav
3	162	3	4	2	I	2	0	592	0	Ⴃ	cut_o_stereo_44KHz.wav
3	163	4	3	2	I	2	0	701	0	Ⴡ	cut_u_stereo_44KHz.wav
3	164	2	2	1	C	1	1	800	1	Ⴇ	cut_k_stereo_44KHz.wav
3	165	1	1	1	C	1	1	1053	1	Ⴂ	cut_a_stereo_44KHz.wav
3	166	3	3	2	I	1	0	541	0	Ⴃ	cut_u_stereo_44KHz.wav
3	167	2	1	0	C	2	1	602	1	Ⴇ	cut_a_stereo_44KHz.wav
3	168	4	4	2	I	2	0	548	1	Ⴡ	cut_o_stereo_44KHz.wav
3	169	3	3	2	I	2	0	643	0	Ⴃ	cut_u_stereo_44KHz.wav
3	170	4	3	2	I	2	0	651	0	Ⴡ	cut_u_stereo_44KHz.wav
3	171	2	1	0	C	2	1	619	1	Ⴇ	cut_a_stereo_44KHz.wav
3	172	1	1	1	C	1	1	570	1	Ⴂ	cut_a_stereo_44KHz.wav
3	173	2	2	1	C	1	1	611	1	Ⴇ	cut_k_stereo_44KHz.wav
3	174	3	4	2	I	1	0	653	1	Ⴃ	cut_o_stereo_44KHz.wav
3	175	1	2	0	C	2	1	565	1	Ⴂ	cut_k_stereo_44KHz.wav
3	176	4	4	2	I	1	0	545	1	Ⴡ	cut_o_stereo_44KHz.wav
3	177	1	2	0	C	2	1	603	1	Ⴂ	cut_k_stereo_44KHz.wav
3	178	4	3	2	I	2	0	513	1	Ⴡ	cut_u_stereo_44KHz.wav
3	179	2	2	1	C	2	0	600	0	Ⴇ	cut_k_stereo_44KHz.wav
3	180	3	4	2	I	1	0	552	1	Ⴃ	cut_o_stereo_44KHz.wav
3	181	2	1	0	C	2	1	569	1	Ⴇ	cut_a_stereo_44KHz.wav
3	182	4	4	2	I	2	0	652	0	Ⴡ	cut_o_stereo_44KHz.wav
3	183	1	1	1	C	1	1	787	1	Ⴂ	cut_a_stereo_44KHz.wav
3	184	3	3	2	I	2	0	701	1	Ⴃ	cut_u_stereo_44KHz.wav
3	185	2	2	1	C	1	1	754	1	Ⴇ	cut_k_stereo_44KHz.wav
3	186	3	3	2	I	2	0	747	0	Ⴃ	cut_u_stereo_44KHz.wav
3	187	1	1	1	C	1	1	670	1	Ⴂ	cut_a_stereo_44KHz.wav
3	188	4	4	2	I	2	0	652	1	Ⴡ	cut_o_stereo_44KHz.wav
3	189	3	4	2	I	1	0	569	1	Ⴃ	cut_o_stereo_44KHz.wav
3	190	2	1	0	C	2	1	596	1	Ⴇ	cut_a_stereo_44KHz.wav
3	191	1	2	0	C	2	1	636	1	Ⴂ	cut_k_stereo_44KHz.wav
3	192	4	3	2	I	1	0	522	0	Ⴡ	cut_u_stereo_44KHz.wav
3	193	3	4	2	I	2	0	449	1	Ⴃ	cut_o_stereo_44KHz.wav
3	194	2	2	1	C	1	1	763	1	Ⴇ	cut_k_stereo_44KHz.wav
3	195	1	2	0	C	2	1	674	1	Ⴂ	cut_k_stereo_44KHz.wav
3	196	4	3	2	I	2	0	859	1	Ⴡ	cut_u_stereo_44KHz.wav
3	197	3	3	2	I	1	0	546	1	Ⴃ	cut_u_stereo_44KHz.wav
3	198	4	4	2	I	2	0	685	1	Ⴡ	cut_o_stereo_44KHz.wav
3	199	2	1	0	C	2	1	664	1	Ⴇ	cut_a_stereo_44KHz.wav
3	200	1	1	1	C	1	1	763	1	Ⴂ	cut_a_stereo_44KHz.wav
4	1	1	2	0	C	1	0	902	0	Ⴁ	cut_g_stereo_44KHz.wav
4	2	3	4	2	I	2	0	697	0	Ⴊ	cut_h_stereo_44KHz.wav
4	3	4	4	2	I	2	0	584	0	Ⴜ	cut_h_stereo_44KHz.wav
4	4	2	1	0	C	2	1	480	1	Ⴟ	cut_w_stereo_44KHz.wav
4	5	1	1	1	C	2	0	607	0	Ⴁ	cut_w_stereo_44KHz.wav
4	6	4	3	2	I	1	0	638	1	Ⴜ	cut_l_stereo_44KHz.wav
4	7	3	3	2	I	2	0	773	0	Ⴊ	cut_l_stereo_44KHz.wav
4	8	2	2	1	C	2	0	590	0	Ⴟ	cut_g_stereo_44KHz.wav
4	9	3	3	2	I	1	0	577	0	Ⴊ	cut_l_stereo_44KHz.wav
4	10	2	2	1	C	1	1	1037	1	Ⴟ	cut_g_stereo_44KHz.wav
4	11	4	3	2	I	2	0	798	1	Ⴜ	cut_l_stereo_44KHz.wav
4	12	1	2	0	C	1	0	726	0	Ⴁ	cut_g_stereo_44KHz.wav
4	13	4	4	2	I	1	0	810	0	Ⴜ	cut_h_stereo_44KHz.wav
4	14	3	4	2	I	2	0	646	1	Ⴊ	cut_h_stereo_44KHz.wav
4	15	1	1	1	C	1	1	823	1	Ⴁ	cut_w_stereo_44KHz.wav
4	16	2	1	0	C	2	1	690	1	Ⴟ	cut_w_stereo_44KHz.wav
4	17	1	1	1	C	1	1	658	1	Ⴁ	cut_w_stereo_44KHz.wav
4	18	4	4	2	I	2	0	590	1	Ⴜ	cut_h_stereo_44KHz.wav
4	19	2	2	1	C	2	0	583	0	Ⴟ	cut_g_stereo_44KHz.wav
4	20	3	3	2	I	2	0	719	0	Ⴊ	cut_l_stereo_44KHz.wav
4	21	1	2	0	C	2	1	885	1	Ⴁ	cut_g_stereo_44KHz.wav
4	22	2	1	0	C	1	0	900	0	Ⴟ	cut_w_stereo_44KHz.wav
4	23	3	4	2	I	2	0	690	1	Ⴊ	cut_h_stereo_44KHz.wav
4	24	4	3	2	I	2	0	786	1	Ⴜ	cut_l_stereo_44KHz.wav
4	25	1	1	1	C	2	0	663	0	Ⴁ	cut_w_stereo_44KHz.wav
4	26	2	1	0	C	2	1	459	1	Ⴟ	cut_w_stereo_44KHz.wav
4	27	3	3	2	I	2	0	997	1	Ⴊ	cut_l_stereo_44KHz.wav
4	28	4	3	2	I	1	0	658	1	Ⴜ	cut_l_stereo_44KHz.wav
4	29	2	2	1	C	1	1	750	1	Ⴟ	cut_g_stereo_44KHz.wav
4	30	4	4	2	I	2	0	550	0	Ⴜ	cut_h_stereo_44KHz.wav
4	31	1	2	0	C	2	1	628	1	Ⴁ	cut_g_stereo_44KHz.wav
4	32	3	4	2	I	2	0	566	0	Ⴊ	cut_h_stereo_44KHz.wav
4	33	1	2	0	C	2	1	708	1	Ⴁ	cut_g_stereo_44KHz.wav
4	34	2	2	1	C	1	1	573	1	Ⴟ	cut_g_stereo_44KHz.wav
4	35	3	4	2	I	2	0	726	1	Ⴊ	cut_h_stereo_44KHz.wav
4	36	4	3	2	I	2	0	636	1	Ⴜ	cut_l_stereo_44KHz.wav
4	37	3	3	2	I	2	0	723	0	Ⴊ	cut_l_stereo_44KHz.wav
4	38	4	4	2	I	2	0	636	1	Ⴜ	cut_h_stereo_44KHz.wav
4	39	1	1	1	C	1	1	799	1	Ⴁ	cut_w_stereo_44KHz.wav
4	40	2	1	0	C	2	1	513	1	Ⴟ	cut_w_stereo_44KHz.wav
4	41	4	4	2	I	2	0	542	0	Ⴜ	cut_h_stereo_44KHz.wav
4	42	3	3	2	I	2	0	602	1	Ⴊ	cut_l_stereo_44KHz.wav
4	43	2	1	0	C	2	1	559	1	Ⴟ	cut_w_stereo_44KHz.wav
4	44	1	2	0	C	2	1	741	1	Ⴁ	cut_g_stereo_44KHz.wav
4	45	2	2	1	C	1	1	867	1	Ⴟ	cut_g_stereo_44KHz.wav
4	46	4	3	2	I	2	0	592	0	Ⴜ	cut_l_stereo_44KHz.wav
4	47	3	4	2	I	1	0	693	0	Ⴊ	cut_h_stereo_44KHz.wav
4	48	1	1	1	C	1	1	956	1	Ⴁ	cut_w_stereo_44KHz.wav
4	49	4	3	2	I	2	0	640	1	Ⴜ	cut_l_stereo_44KHz.wav
4	50	1	2	0	C	1	0	725	0	Ⴁ	cut_g_stereo_44KHz.wav
4	51	3	4	2	I	2	0	668	1	Ⴊ	cut_h_stereo_44KHz.wav
4	52	2	2	1	C	1	1	653	1	Ⴟ	cut_g_stereo_44KHz.wav
4	53	4	4	2	I	2	0	735	1	Ⴜ	cut_h_stereo_44KHz.wav
4	54	1	1	1	C	2	0	687	0	Ⴁ	cut_w_stereo_44KHz.wav
4	55	3	3	2	I	2	0	661	1	Ⴊ	cut_l_stereo_44KHz.wav
4	56	2	1	0	C	1	0	854	0	Ⴟ	cut_w_stereo_44KHz.wav
4	57	3	4	2	I	2	0	602	1	Ⴊ	cut_h_stereo_44KHz.wav
4	58	2	1	0	C	2	1	486	1	Ⴟ	cut_w_stereo_44KHz.wav
4	59	1	1	1	C	1	1	640	1	Ⴁ	cut_w_stereo_44KHz.wav
4	60	4	4	2	I	2	0	660	1	Ⴜ	cut_h_stereo_44KHz.wav
4	61	3	3	2	I	2	0	700	1	Ⴊ	cut_l_stereo_44KHz.wav
4	62	2	2	1	C	1	1	736	1	Ⴟ	cut_g_stereo_44KHz.wav
4	63	1	2	0	C	2	1	702	1	Ⴁ	cut_g_stereo_44KHz.wav
4	64	4	3	2	I	2	0	654	1	Ⴜ	cut_l_stereo_44KHz.wav
4	65	2	2	1	C	1	1	788	1	Ⴟ	cut_g_stereo_44KHz.wav
4	66	1	1	1	C	2	0	739	0	Ⴁ	cut_w_stereo_44KHz.wav
4	67	4	4	2	I	2	0	637	1	Ⴜ	cut_h_stereo_44KHz.wav
4	68	3	4	2	I	2	0	818	0	Ⴊ	cut_h_stereo_44KHz.wav
4	69	4	3	2	I	2	0	792	1	Ⴜ	cut_l_stereo_44KHz.wav
4	70	3	3	2	I	1	0	824	0	Ⴊ	cut_l_stereo_44KHz.wav
4	71	1	2	0	C	2	1	785	1	Ⴁ	cut_g_stereo_44KHz.wav
4	72	2	1	0	C	2	1	772	1	Ⴟ	cut_w_stereo_44KHz.wav
4	73	1	2	0	C	2	1	660	1	Ⴁ	cut_g_stereo_44KHz.wav
4	74	3	4	2	I	1	0	617	0	Ⴊ	cut_h_stereo_44KHz.wav
4	75	2	2	1	C	2	0	575	0	Ⴟ	cut_g_stereo_44KHz.wav
4	76	4	4	2	I	2	0	635	1	Ⴜ	cut_h_stereo_44KHz.wav
4	77	3	3	2	I	2	0	882	0	Ⴊ	cut_l_stereo_44KHz.wav
4	78	2	1	0	C	2	1	650	1	Ⴟ	cut_w_stereo_44KHz.wav
4	79	4	3	2	I	2	0	641	0	Ⴜ	cut_l_stereo_44KHz.wav
4	80	1	1	1	C	1	1	798	1	Ⴁ	cut_w_stereo_44KHz.wav
4	81	4	4	2	I	2	0	716	1	Ⴜ	cut_h_stereo_44KHz.wav
4	82	1	2	0	C	2	1	705	1	Ⴁ	cut_g_stereo_44KHz.wav
4	83	3	4	2	I	2	0	764	0	Ⴊ	cut_h_stereo_44KHz.wav
4	84	2	2	1	C	1	1	844	1	Ⴟ	cut_g_stereo_44KHz.wav
4	85	4	3	2	I	1	0	883	0	Ⴜ	cut_l_stereo_44KHz.wav
4	86	3	3	2	I	1	0	773	1	Ⴊ	cut_l_stereo_44KHz.wav
4	87	2	1	0	C	2	1	765	1	Ⴟ	cut_w_stereo_44KHz.wav
4	88	1	1	1	C	1	1	714	1	Ⴁ	cut_w_stereo_44KHz.wav
4	89	3	3	2	I	2	0	761	1	Ⴊ	cut_l_stereo_44KHz.wav
4	90	4	3	2	I	1	0	742	0	Ⴜ	cut_l_stereo_44KHz.wav
4	91	1	1	1	C	1	1	789	1	Ⴁ	cut_w_stereo_44KHz.wav
4	92	2	1	0	C	2	1	664	1	Ⴟ	cut_w_stereo_44KHz.wav
4	93	4	4	2	I	2	0	656	0	Ⴜ	cut_h_stereo_44KHz.wav
4	94	3	4	2	I	2	0	645	0	Ⴊ	cut_h_stereo_44KHz.wav
4	95	2	2	1	C	1	1	773	1	Ⴟ	cut_g_stereo_44KHz.wav
4	96	1	2	0	C	2	1	609	1	Ⴁ	cut_g_stereo_44KHz.wav
4	97	2	1	0	C	2	1	688	1	Ⴟ	cut_w_stereo_44KHz.wav
4	98	3	3	2	I	1	0	467	0	Ⴊ	cut_l_stereo_44KHz.wav
4	99	1	2	0	C	2	1	631	1	Ⴁ	cut_g_stereo_44KHz.wav
4	100	4	3	2	I	2	0	761	0	Ⴜ	cut_l_stereo_44KHz.wav
4	101	3	4	2	I	2	0	667	1	Ⴊ	cut_h_stereo_44KHz.wav
4	102	4	4	2	I	1	0	764	0	Ⴜ	cut_h_stereo_44KHz.wav
4	103	2	2	1	C	2	0	599	0	Ⴟ	cut_g_stereo_44KHz.wav
4	104	1	1	1	C	1	1	783	1	Ⴁ	cut_w_stereo_44KHz.wav
4	105	2	2	1	C	1	1	735	1	Ⴟ	cut_g_stereo_44KHz.wav
4	106	3	4	2	I	2	0	721	0	Ⴊ	cut_h_stereo_44KHz.wav
4	107	1	1	1	C	1	1	903	1	Ⴁ	cut_w_stereo_44KHz.wav
4	108	4	4	2	I	2	0	764	1	Ⴜ	cut_h_stereo_44KHz.wav
4	109	1	2	0	C	2	1	712	1	Ⴁ	cut_g_stereo_44KHz.wav
4	110	2	1	0	C	1	0	759	0	Ⴟ	cut_w_stereo_44KHz.wav
4	111	4	3	2	I	1	0	621	1	Ⴜ	cut_l_stereo_44KHz.wav
4	112	3	3	2	I	2	0	689	1	Ⴊ	cut_l_stereo_44KHz.wav
4	113	2	2	1	C	1	1	868	1	Ⴟ	cut_g_stereo_44KHz.wav
4	114	3	4	2	I	2	0	792	0	Ⴊ	cut_h_stereo_44KHz.wav
4	115	4	4	2	I	2	0	564	0	Ⴜ	cut_h_stereo_44KHz.wav
4	116	1	2	0	C	2	1	920	1	Ⴁ	cut_g_stereo_44KHz.wav
4	117	4	3	2	I	2	0	816	0	Ⴜ	cut_l_stereo_44KHz.wav
4	118	1	1	1	C	1	1	757	1	Ⴁ	cut_w_stereo_44KHz.wav
4	119	3	3	2	I	2	0	697	0	Ⴊ	cut_l_stereo_44KHz.wav
4	120	2	1	0	C	2	1	675	1	Ⴟ	cut_w_stereo_44KHz.wav
4	121	1	1	1	C	1	1	628	1	Ⴁ	cut_w_stereo_44KHz.wav
4	122	2	2	1	C	1	1	866	1	Ⴟ	cut_g_stereo_44KHz.wav
4	123	4	4	2	I	2	0	674	1	Ⴜ	cut_h_stereo_44KHz.wav
4	124	3	4	2	I	1	0	901	1	Ⴊ	cut_h_stereo_44KHz.wav
4	125	4	3	2	I	2	0	634	0	Ⴜ	cut_l_stereo_44KHz.wav
4	126	3	3	2	I	1	0	715	1	Ⴊ	cut_l_stereo_44KHz.wav
4	127	2	1	0	C	2	1	642	1	Ⴟ	cut_w_stereo_44KHz.wav
4	128	1	2	0	C	2	1	617	1	Ⴁ	cut_g_stereo_44KHz.wav
4	129	4	4	2	I	2	0	667	1	Ⴜ	cut_h_stereo_44KHz.wav
4	130	2	1	0	C	2	1	690	1	Ⴟ	cut_w_stereo_44KHz.wav
4	131	3	3	2	I	2	0	730	0	Ⴊ	cut_l_stereo_44KHz.wav
4	132	1	1	1	C	1	1	786	1	Ⴁ	cut_w_stereo_44KHz.wav
4	133	4	3	2	I	2	0	648	1	Ⴜ	cut_l_stereo_44KHz.wav
4	134	3	4	2	I	1	0	748	0	Ⴊ	cut_h_stereo_44KHz.wav
4	135	1	2	0	C	2	1	762	1	Ⴁ	cut_g_stereo_44KHz.wav
4	136	2	2	1	C	1	1	837	1	Ⴟ	cut_g_stereo_44KHz.wav
4	137	3	3	2	I	2	0	734	1	Ⴊ	cut_l_stereo_44KHz.wav
4	138	1	1	1	C	1	1	746	1	Ⴁ	cut_w_stereo_44KHz.wav
4	139	4	3	2	I	2	0	661	1	Ⴜ	cut_l_stereo_44KHz.wav
4	140	2	1	0	C	1	0	784	0	Ⴟ	cut_w_stereo_44KHz.wav
4	141	4	4	2	I	2	0	621	1	Ⴜ	cut_h_stereo_44KHz.wav
4	142	1	2	0	C	2	1	651	1	Ⴁ	cut_g_stereo_44KHz.wav
4	143	3	4	2	I	2	0	708	1	Ⴊ	cut_h_stereo_44KHz.wav
4	144	2	2	1	C	1	1	922	1	Ⴟ	cut_g_stereo_44KHz.wav
4	145	4	3	2	I	2	0	671	0	Ⴜ	cut_l_stereo_44KHz.wav
4	146	1	2	0	C	2	1	1022	1	Ⴁ	cut_g_stereo_44KHz.wav
4	147	2	2	1	C	1	1	1161	1	Ⴟ	cut_g_stereo_44KHz.wav
4	148	3	4	2	I	2	0	751	1	Ⴊ	cut_h_stereo_44KHz.wav
4	149	2	1	0	C	2	1	690	1	Ⴟ	cut_w_stereo_44KHz.wav
4	150	4	4	2	I	1	0	1016	0	Ⴜ	cut_h_stereo_44KHz.wav
4	151	1	1	1	C	1	1	807	1	Ⴁ	cut_w_stereo_44KHz.wav
4	152	3	3	2	I	2	0	839	0	Ⴊ	cut_l_stereo_44KHz.wav
4	153	4	4	2	I	2	0	687	1	Ⴜ	cut_h_stereo_44KHz.wav
4	154	3	3	2	I	1	0	767	0	Ⴊ	cut_l_stereo_44KHz.wav
4	155	2	2	1	C	1	1	893	1	Ⴟ	cut_g_stereo_44KHz.wav
4	156	1	1	1	C	1	1	1192	1	Ⴁ	cut_w_stereo_44KHz.wav
4	157	2	1	0	C	2	1	829	1	Ⴟ	cut_w_stereo_44KHz.wav
4	158	3	4	2	I	2	0	712	0	Ⴊ	cut_h_stereo_44KHz.wav
4	159	4	3	2	I	2	0	666	0	Ⴜ	cut_l_stereo_44KHz.wav
4	160	1	2	0	C	2	1	878	1	Ⴁ	cut_g_stereo_44KHz.wav
4	161	4	4	2	I	2	0	661	0	Ⴜ	cut_h_stereo_44KHz.wav
4	162	1	1	1	C	1	1	858	1	Ⴁ	cut_w_stereo_44KHz.wav
4	163	2	1	0	C	2	1	751	1	Ⴟ	cut_w_stereo_44KHz.wav
4	164	3	3	2	I	2	0	509	1	Ⴊ	cut_l_stereo_44KHz.wav
4	165	2	2	1	C	1	1	734	1	Ⴟ	cut_g_stereo_44KHz.wav
4	166	4	3	2	I	2	0	644	0	Ⴜ	cut_l_stereo_44KHz.wav
4	167	3	4	2	I	1	0	818	0	Ⴊ	cut_h_stereo_44KHz.wav
4	168	1	2	0	C	2	1	701	1	Ⴁ	cut_g_stereo_44KHz.wav
4	169	4	3	2	I	2	0	775	1	Ⴜ	cut_l_stereo_44KHz.wav
4	170	2	1	0	C	2	1	769	1	Ⴟ	cut_w_stereo_44KHz.wav
4	171	1	2	0	C	2	1	683	1	Ⴁ	cut_g_stereo_44KHz.wav
4	172	3	4	2	I	2	0	629	1	Ⴊ	cut_h_stereo_44KHz.wav
4	173	4	4	2	I	2	0	610	0	Ⴜ	cut_h_stereo_44KHz.wav
4	174	2	2	1	C	1	1	793	1	Ⴟ	cut_g_stereo_44KHz.wav
4	175	1	1	1	C	1	1	672	1	Ⴁ	cut_w_stereo_44KHz.wav
4	176	3	3	2	I	2	0	697	1	Ⴊ	cut_l_stereo_44KHz.wav
4	177	4	4	2	I	2	0	577	0	Ⴜ	cut_h_stereo_44KHz.wav
4	178	2	1	0	C	2	1	738	1	Ⴟ	cut_w_stereo_44KHz.wav
4	179	3	4	2	I	2	0	611	1	Ⴊ	cut_h_stereo_44KHz.wav
4	180	1	2	0	C	2	1	470	1	Ⴁ	cut_g_stereo_44KHz.wav
4	181	2	2	1	C	2	0	537	0	Ⴟ	cut_g_stereo_44KHz.wav
4	182	4	3	2	I	2	0	528	0	Ⴜ	cut_l_stereo_44KHz.wav
4	183	3	3	2	I	2	0	796	1	Ⴊ	cut_l_stereo_44KHz.wav
4	184	1	1	1	C	1	1	709	1	Ⴁ	cut_w_stereo_44KHz.wav
4	185	2	2	1	C	1	1	809	1	Ⴟ	cut_g_stereo_44KHz.wav
4	186	1	1	1	C	1	1	892	1	Ⴁ	cut_w_stereo_44KHz.wav
4	187	3	4	2	I	2	0	690	1	Ⴊ	cut_h_stereo_44KHz.wav
4	188	4	4	2	I	2	0	638	0	Ⴜ	cut_h_stereo_44KHz.wav
4	189	1	2	0	C	2	1	755	1	Ⴁ	cut_g_stereo_44KHz.wav
4	190	4	3	2	I	2	0	695	0	Ⴜ	cut_l_stereo_44KHz.wav
4	191	2	1	0	C	2	1	906	1	Ⴟ	cut_w_stereo_44KHz.wav
4	192	3	3	2	I	1	0	627	1	Ⴊ	cut_l_stereo_44KHz.wav
4	193	2	1	0	C	2	1	799	1	Ⴟ	cut_w_stereo_44KHz.wav
4	194	4	4	2	I	2	0	572	0	Ⴜ	cut_h_stereo_44KHz.wav
4	195	3	3	2	I	2	0	660	0	Ⴊ	cut_l_stereo_44KHz.wav
4	196	1	1	1	C	1	1	956	1	Ⴁ	cut_w_stereo_44KHz.wav
4	197	3	4	2	I	2	0	641	0	Ⴊ	cut_h_stereo_44KHz.wav
4	198	4	3	2	I	1	0	631	1	Ⴜ	cut_l_stereo_44KHz.wav
4	199	1	2	0	C	2	1	748	1	Ⴁ	cut_g_stereo_44KHz.wav
4	200	2	2	1	C	2	0	883	0	Ⴟ	cut_g_stereo_44KHz.wav
