block	trial	Vstim	Astim	match	C/I	resp	result	RT	fb	V-file	A-file
RL

0	1	1	1	1	C	2	0	1485	0	poli_8sides 21_whiteLine3.jpg	Practice1_b27_cut1_stereo_44KHz.wav
0	2	2	3	1	C	2	0	535	0	poli_8sides 23_whiteLine3.jpg	Practice4_b26_stereo_44KHz.wav
0	3	1	2	0	C	2	1	505	1	poli_8sides 21_whiteLine3.jpg	Practice3_b26_cut1_stereo_44KHz.wav
0	4	2	4	0	C	1	0	741	0	poli_8sides 23_whiteLine3.jpg	Practice2_b27_cut2_stereo_44KHz.wav
0	5	2	3	1	C	2	0	601	0	poli_8sides 23_whiteLine3.jpg	Practice4_b26_stereo_44KHz.wav
0	6	1	1	1	C	2	0	488	0	poli_8sides 21_whiteLine3.jpg	Practice1_b27_cut1_stereo_44KHz.wav
0	7	2	4	0	C	2	1	749	1	poli_8sides 23_whiteLine3.jpg	Practice2_b27_cut2_stereo_44KHz.wav
0	8	1	2	0	C	2	1	598	1	poli_8sides 21_whiteLine3.jpg	Practice3_b26_cut1_stereo_44KHz.wav
0	9	2	3	1	C	1	1	949	1	poli_8sides 23_whiteLine3.jpg	Practice4_b26_stereo_44KHz.wav
0	10	1	1	1	C	2	0	801	0	poli_8sides 21_whiteLine3.jpg	Practice1_b27_cut1_stereo_44KHz.wav
0	11	2	4	0	C	2	1	740	1	poli_8sides 23_whiteLine3.jpg	Practice2_b27_cut2_stereo_44KHz.wav
0	12	1	2	0	C	2	1	606	1	poli_8sides 21_whiteLine3.jpg	Practice3_b26_cut1_stereo_44KHz.wav
0	13	2	3	1	C	1	1	834	1	poli_8sides 23_whiteLine3.jpg	Practice4_b26_stereo_44KHz.wav
0	14	1	2	0	C	2	1	801	1	poli_8sides 21_whiteLine3.jpg	Practice3_b26_cut1_stereo_44KHz.wav
0	15	1	1	1	C	1	1	1363	1	poli_8sides 21_whiteLine3.jpg	Practice1_b27_cut1_stereo_44KHz.wav
0	16	2	4	0	C	2	1	670	1	poli_8sides 23_whiteLine3.jpg	Practice2_b27_cut2_stereo_44KHz.wav
0	17	2	3	1	C	2	0	889	0	poli_8sides 23_whiteLine3.jpg	Practice4_b26_stereo_44KHz.wav
0	18	1	1	1	C	1	1	801	1	poli_8sides 21_whiteLine3.jpg	Practice1_b27_cut1_stereo_44KHz.wav
0	19	1	2	0	C	2	1	741	1	poli_8sides 21_whiteLine3.jpg	Practice3_b26_cut1_stereo_44KHz.wav
0	20	2	4	0	C	2	1	614	1	poli_8sides 23_whiteLine3.jpg	Practice2_b27_cut2_stereo_44KHz.wav
0	21	1	2	0	C	2	1	564	1	poli_8sides 21_whiteLine3.jpg	Practice3_b26_cut1_stereo_44KHz.wav
0	22	2	3	1	C	1	1	759	1	poli_8sides 23_whiteLine3.jpg	Practice4_b26_stereo_44KHz.wav
0	23	2	4	0	C	2	1	770	1	poli_8sides 23_whiteLine3.jpg	Practice2_b27_cut2_stereo_44KHz.wav
0	24	1	1	1	C	1	1	736	1	poli_8sides 21_whiteLine3.jpg	Practice1_b27_cut1_stereo_44KHz.wav
0	25	1	2	0	C	2	1	656	1	poli_8sides 21_whiteLine3.jpg	Practice3_b26_cut1_stereo_44KHz.wav
0	26	2	3	1	C	1	1	889	1	poli_8sides 23_whiteLine3.jpg	Practice4_b26_stereo_44KHz.wav
0	27	1	1	1	C	1	1	763	1	poli_8sides 21_whiteLine3.jpg	Practice1_b27_cut1_stereo_44KHz.wav
0	28	2	4	0	C	1	0	921	0	poli_8sides 23_whiteLine3.jpg	Practice2_b27_cut2_stereo_44KHz.wav
0	29	2	4	0	C	2	1	707	1	poli_8sides 23_whiteLine3.jpg	Practice2_b27_cut2_stereo_44KHz.wav
0	30	2	3	1	C	1	1	901	1	poli_8sides 23_whiteLine3.jpg	Practice4_b26_stereo_44KHz.wav
avg_resp = 760
1	1	1	1	1	C	2	0	1162	0	poli_8sides 4_whiteLine3.jpg	MediumShort_e22_cut1_stereo_44KHz.wav
1	2	3	3	2	I	2	0	532	1	poli_8sides 9_whiteLine3.jpg	MediumShort_b16_cut3_MS_stereo_44KHz.wav
1	3	4	3	2	I	1	0	572	0	poli_8sides 10_whiteLine3.jpg	MediumShort_b16_cut3_MS_stereo_44KHz.wav
1	4	2	2	1	C	1	1	739	1	poli_8sides 6_whiteLine3.jpg	MediumShort_b10_cut1_MS_stereo_44KHz.wav
1	5	4	4	2	I	2	0	955	1	poli_8sides 10_whiteLine3.jpg	MediumShort_e16_cut1_stereo_44KHz.wav
1	6	3	4	2	I	1	0	537	0	poli_8sides 9_whiteLine3.jpg	MediumShort_e16_cut1_stereo_44KHz.wav
1	7	2	1	0	C	2	1	610	1	poli_8sides 6_whiteLine3.jpg	MediumShort_e22_cut1_stereo_44KHz.wav
1	8	1	2	0	C	2	1	616	1	poli_8sides 4_whiteLine3.jpg	MediumShort_b10_cut1_MS_stereo_44KHz.wav
1	9	4	4	2	I	1	0	791	0	poli_8sides 10_whiteLine3.jpg	MediumShort_e16_cut1_stereo_44KHz.wav
1	10	2	2	1	C	2	0	668	0	poli_8sides 6_whiteLine3.jpg	MediumShort_b10_cut1_MS_stereo_44KHz.wav
1	11	1	2	0	C	2	1	613	1	poli_8sides 4_whiteLine3.jpg	MediumShort_b10_cut1_MS_stereo_44KHz.wav
1	12	3	4	2	I	2	0	911	0	poli_8sides 9_whiteLine3.jpg	MediumShort_e16_cut1_stereo_44KHz.wav
1	13	1	1	1	C	1	1	1021	1	poli_8sides 4_whiteLine3.jpg	MediumShort_e22_cut1_stereo_44KHz.wav
1	14	3	3	2	I	2	0	777	0	poli_8sides 9_whiteLine3.jpg	MediumShort_b16_cut3_MS_stereo_44KHz.wav
1	15	2	1	0	C	2	1	1122	1	poli_8sides 6_whiteLine3.jpg	MediumShort_e22_cut1_stereo_44KHz.wav
1	16	4	3	2	I	2	0	750	1	poli_8sides 10_whiteLine3.jpg	MediumShort_b16_cut3_MS_stereo_44KHz.wav
1	17	1	2	0	C	2	1	807	1	poli_8sides 4_whiteLine3.jpg	MediumShort_b10_cut1_MS_stereo_44KHz.wav
1	18	3	3	2	I	1	0	772	1	poli_8sides 9_whiteLine3.jpg	MediumShort_b16_cut3_MS_stereo_44KHz.wav
1	19	2	2	1	C	2	0	559	0	poli_8sides 6_whiteLine3.jpg	MediumShort_b10_cut1_MS_stereo_44KHz.wav
1	20	4	4	2	I	2	0	616	1	poli_8sides 10_whiteLine3.jpg	MediumShort_e16_cut1_stereo_44KHz.wav
1	21	3	4	2	I	1	0	607	1	poli_8sides 9_whiteLine3.jpg	MediumShort_e16_cut1_stereo_44KHz.wav
1	22	2	1	0	C	2	1	748	1	poli_8sides 6_whiteLine3.jpg	MediumShort_e22_cut1_stereo_44KHz.wav
1	23	1	1	1	C	1	1	613	1	poli_8sides 4_whiteLine3.jpg	MediumShort_e22_cut1_stereo_44KHz.wav
1	24	4	3	2	I	1	0	747	0	poli_8sides 10_whiteLine3.jpg	MediumShort_b16_cut3_MS_stereo_44KHz.wav
1	25	3	4	2	I	2	0	817	1	poli_8sides 9_whiteLine3.jpg	MediumShort_e16_cut1_stereo_44KHz.wav
1	26	1	2	0	C	2	1	575	1	poli_8sides 4_whiteLine3.jpg	MediumShort_b10_cut1_MS_stereo_44KHz.wav
1	27	2	2	1	C	1	1	618	1	poli_8sides 6_whiteLine3.jpg	MediumShort_b10_cut1_MS_stereo_44KHz.wav
1	28	4	4	2	I	2	0	601	1	poli_8sides 10_whiteLine3.jpg	MediumShort_e16_cut1_stereo_44KHz.wav
1	29	2	1	0	C	2	1	527	1	poli_8sides 6_whiteLine3.jpg	MediumShort_e22_cut1_stereo_44KHz.wav
1	30	1	1	1	C	1	1	662	1	poli_8sides 4_whiteLine3.jpg	MediumShort_e22_cut1_stereo_44KHz.wav
1	31	3	3	2	I	2	0	659	1	poli_8sides 9_whiteLine3.jpg	MediumShort_b16_cut3_MS_stereo_44KHz.wav
1	32	4	3	2	I	1	0	558	0	poli_8sides 10_whiteLine3.jpg	MediumShort_b16_cut3_MS_stereo_44KHz.wav
1	33	3	4	2	I	2	0	784	1	poli_8sides 9_whiteLine3.jpg	MediumShort_e16_cut1_stereo_44KHz.wav
1	34	1	2	0	C	2	1	510	1	poli_8sides 4_whiteLine3.jpg	MediumShort_b10_cut1_MS_stereo_44KHz.wav
1	35	2	2	1	C	1	1	523	1	poli_8sides 6_whiteLine3.jpg	MediumShort_b10_cut1_MS_stereo_44KHz.wav
1	36	4	4	2	I	2	0	665	0	poli_8sides 10_whiteLine3.jpg	MediumShort_e16_cut1_stereo_44KHz.wav
1	37	2	1	0	C	2	1	807	1	poli_8sides 6_whiteLine3.jpg	MediumShort_e22_cut1_stereo_44KHz.wav
1	38	3	3	2	I	1	0	735	0	poli_8sides 9_whiteLine3.jpg	MediumShort_b16_cut3_MS_stereo_44KHz.wav
1	39	4	3	2	I	2	0	588	0	poli_8sides 10_whiteLine3.jpg	MediumShort_b16_cut3_MS_stereo_44KHz.wav
1	40	1	1	1	C	2	0	535	0	poli_8sides 4_whiteLine3.jpg	MediumShort_e22_cut1_stereo_44KHz.wav
1	41	3	4	2	I	1	0	586	1	poli_8sides 9_whiteLine3.jpg	MediumShort_e16_cut1_stereo_44KHz.wav
1	42	1	1	1	C	2	0	468	0	poli_8sides 4_whiteLine3.jpg	MediumShort_e22_cut1_stereo_44KHz.wav
1	43	4	4	2	I	2	0	594	1	poli_8sides 10_whiteLine3.jpg	MediumShort_e16_cut1_stereo_44KHz.wav
1	44	2	1	0	C	1	0	672	0	poli_8sides 6_whiteLine3.jpg	MediumShort_e22_cut1_stereo_44KHz.wav
1	45	1	2	0	C	2	1	609	1	poli_8sides 4_whiteLine3.jpg	MediumShort_b10_cut1_MS_stereo_44KHz.wav
1	46	2	2	1	C	1	1	608	1	poli_8sides 6_whiteLine3.jpg	MediumShort_b10_cut1_MS_stereo_44KHz.wav
1	47	3	3	2	I	1	0	747	0	poli_8sides 9_whiteLine3.jpg	MediumShort_b16_cut3_MS_stereo_44KHz.wav
1	48	4	3	2	I	2	0	600	0	poli_8sides 10_whiteLine3.jpg	MediumShort_b16_cut3_MS_stereo_44KHz.wav
1	49	1	2	0	C	2	1	532	1	poli_8sides 4_whiteLine3.jpg	MediumShort_b10_cut1_MS_stereo_44KHz.wav
1	50	2	2	1	C	1	1	530	1	poli_8sides 6_whiteLine3.jpg	MediumShort_b10_cut1_MS_stereo_44KHz.wav
1	51	3	3	2	I	2	0	609	0	poli_8sides 9_whiteLine3.jpg	MediumShort_b16_cut3_MS_stereo_44KHz.wav
1	52	4	3	2	I	1	0	656	0	poli_8sides 10_whiteLine3.jpg	MediumShort_b16_cut3_MS_stereo_44KHz.wav
1	53	1	1	1	C	2	0	600	0	poli_8sides 4_whiteLine3.jpg	MediumShort_e22_cut1_stereo_44KHz.wav
1	54	2	1	0	C	2	1	676	1	poli_8sides 6_whiteLine3.jpg	MediumShort_e22_cut1_stereo_44KHz.wav
1	55	3	4	2	I	2	0	790	0	poli_8sides 9_whiteLine3.jpg	MediumShort_e16_cut1_stereo_44KHz.wav
1	56	4	4	2	I	2	0	645	0	poli_8sides 10_whiteLine3.jpg	MediumShort_e16_cut1_stereo_44KHz.wav
1	57	2	2	1	C	1	1	908	1	poli_8sides 6_whiteLine3.jpg	MediumShort_b10_cut1_MS_stereo_44KHz.wav
1	58	4	3	2	I	2	0	663	0	poli_8sides 10_whiteLine3.jpg	MediumShort_b16_cut3_MS_stereo_44KHz.wav
1	59	1	2	0	C	2	1	600	1	poli_8sides 4_whiteLine3.jpg	MediumShort_b10_cut1_MS_stereo_44KHz.wav
1	60	3	3	2	I	1	0	604	1	poli_8sides 9_whiteLine3.jpg	MediumShort_b16_cut3_MS_stereo_44KHz.wav
1	61	2	1	0	C	2	1	554	1	poli_8sides 6_whiteLine3.jpg	MediumShort_e22_cut1_stereo_44KHz.wav
1	62	4	4	2	I	2	0	594	1	poli_8sides 10_whiteLine3.jpg	MediumShort_e16_cut1_stereo_44KHz.wav
1	63	3	4	2	I	2	0	597	1	poli_8sides 9_whiteLine3.jpg	MediumShort_e16_cut1_stereo_44KHz.wav
1	64	1	1	1	C	2	0	574	0	poli_8sides 4_whiteLine3.jpg	MediumShort_e22_cut1_stereo_44KHz.wav
1	65	2	1	0	C	2	1	774	1	poli_8sides 6_whiteLine3.jpg	MediumShort_e22_cut1_stereo_44KHz.wav
1	66	4	3	2	I	1	0	831	1	poli_8sides 10_whiteLine3.jpg	MediumShort_b16_cut3_MS_stereo_44KHz.wav
1	67	1	1	1	C	1	1	710	1	poli_8sides 4_whiteLine3.jpg	MediumShort_e22_cut1_stereo_44KHz.wav
1	68	3	4	2	I	2	0	633	0	poli_8sides 9_whiteLine3.jpg	MediumShort_e16_cut1_stereo_44KHz.wav
1	69	2	2	1	C	1	1	719	1	poli_8sides 6_whiteLine3.jpg	MediumShort_b10_cut1_MS_stereo_44KHz.wav
1	70	4	4	2	I	2	0	636	1	poli_8sides 10_whiteLine3.jpg	MediumShort_e16_cut1_stereo_44KHz.wav
1	71	3	3	2	I	2	0	727	0	poli_8sides 9_whiteLine3.jpg	MediumShort_b16_cut3_MS_stereo_44KHz.wav
1	72	1	2	0	C	1	0	965	0	poli_8sides 4_whiteLine3.jpg	MediumShort_b10_cut1_MS_stereo_44KHz.wav
1	73	3	3	2	I	1	0	708	0	poli_8sides 9_whiteLine3.jpg	MediumShort_b16_cut3_MS_stereo_44KHz.wav
1	74	1	2	0	C	2	1	616	1	poli_8sides 4_whiteLine3.jpg	MediumShort_b10_cut1_MS_stereo_44KHz.wav
1	75	4	4	2	I	2	0	584	1	poli_8sides 10_whiteLine3.jpg	MediumShort_e16_cut1_stereo_44KHz.wav
1	76	2	1	0	C	2	1	800	1	poli_8sides 6_whiteLine3.jpg	MediumShort_e22_cut1_stereo_44KHz.wav
1	77	1	1	1	C	1	1	902	1	poli_8sides 4_whiteLine3.jpg	MediumShort_e22_cut1_stereo_44KHz.wav
1	78	4	3	2	I	1	0	765	0	poli_8sides 10_whiteLine3.jpg	MediumShort_b16_cut3_MS_stereo_44KHz.wav
1	79	2	2	1	C	1	1	698	1	poli_8sides 6_whiteLine3.jpg	MediumShort_b10_cut1_MS_stereo_44KHz.wav
1	80	3	4	2	I	2	0	679	0	poli_8sides 9_whiteLine3.jpg	MediumShort_e16_cut1_stereo_44KHz.wav
1	81	4	4	2	I	2	0	546	0	poli_8sides 10_whiteLine3.jpg	MediumShort_e16_cut1_stereo_44KHz.wav
1	82	3	3	2	I	1	0	652	0	poli_8sides 9_whiteLine3.jpg	MediumShort_b16_cut3_MS_stereo_44KHz.wav
1	83	2	2	1	C	1	1	719	1	poli_8sides 6_whiteLine3.jpg	MediumShort_b10_cut1_MS_stereo_44KHz.wav
1	84	1	1	1	C	2	0	611	0	poli_8sides 4_whiteLine3.jpg	MediumShort_e22_cut1_stereo_44KHz.wav
1	85	4	3	2	I	1	0	675	0	poli_8sides 10_whiteLine3.jpg	MediumShort_b16_cut3_MS_stereo_44KHz.wav
1	86	3	4	2	I	2	0	812	1	poli_8sides 9_whiteLine3.jpg	MediumShort_e16_cut1_stereo_44KHz.wav
1	87	1	2	0	C	2	1	989	1	poli_8sides 4_whiteLine3.jpg	MediumShort_b10_cut1_MS_stereo_44KHz.wav
1	88	2	1	0	C	2	1	828	1	poli_8sides 6_whiteLine3.jpg	MediumShort_e22_cut1_stereo_44KHz.wav
1	89	1	1	1	C	1	1	1077	1	poli_8sides 4_whiteLine3.jpg	MediumShort_e22_cut1_stereo_44KHz.wav
1	90	4	4	2	I	2	0	618	1	poli_8sides 10_whiteLine3.jpg	MediumShort_e16_cut1_stereo_44KHz.wav
1	91	3	3	2	I	1	0	720	1	poli_8sides 9_whiteLine3.jpg	MediumShort_b16_cut3_MS_stereo_44KHz.wav
1	92	2	2	1	C	1	1	621	1	poli_8sides 6_whiteLine3.jpg	MediumShort_b10_cut1_MS_stereo_44KHz.wav
1	93	4	3	2	I	1	0	714	1	poli_8sides 10_whiteLine3.jpg	MediumShort_b16_cut3_MS_stereo_44KHz.wav
1	94	1	2	0	C	2	1	665	1	poli_8sides 4_whiteLine3.jpg	MediumShort_b10_cut1_MS_stereo_44KHz.wav
1	95	3	4	2	I	2	0	656	0	poli_8sides 9_whiteLine3.jpg	MediumShort_e16_cut1_stereo_44KHz.wav
1	96	2	1	0	C	2	1	726	1	poli_8sides 6_whiteLine3.jpg	MediumShort_e22_cut1_stereo_44KHz.wav
1	97	1	1	1	C	1	1	595	1	poli_8sides 4_whiteLine3.jpg	MediumShort_e22_cut1_stereo_44KHz.wav
1	98	2	2	1	C	1	1	619	1	poli_8sides 6_whiteLine3.jpg	MediumShort_b10_cut1_MS_stereo_44KHz.wav
1	99	3	4	2	I	2	0	706	0	poli_8sides 9_whiteLine3.jpg	MediumShort_e16_cut1_stereo_44KHz.wav
1	100	4	4	2	I	2	0	614	0	poli_8sides 10_whiteLine3.jpg	MediumShort_e16_cut1_stereo_44KHz.wav
1	101	2	1	0	C	1	0	784	0	poli_8sides 6_whiteLine3.jpg	MediumShort_e22_cut1_stereo_44KHz.wav
1	102	3	3	2	I	1	0	813	1	poli_8sides 9_whiteLine3.jpg	MediumShort_b16_cut3_MS_stereo_44KHz.wav
1	103	1	2	0	C	2	1	541	1	poli_8sides 4_whiteLine3.jpg	MediumShort_b10_cut1_MS_stereo_44KHz.wav
1	104	4	3	2	I	2	0	800	0	poli_8sides 10_whiteLine3.jpg	MediumShort_b16_cut3_MS_stereo_44KHz.wav
1	105	1	2	0	C	2	1	561	1	poli_8sides 4_whiteLine3.jpg	MediumShort_b10_cut1_MS_stereo_44KHz.wav
1	106	3	3	2	I	1	0	695	1	poli_8sides 9_whiteLine3.jpg	MediumShort_b16_cut3_MS_stereo_44KHz.wav
1	107	4	3	2	I	1	0	726	1	poli_8sides 10_whiteLine3.jpg	MediumShort_b16_cut3_MS_stereo_44KHz.wav
1	108	2	2	1	C	1	1	802	1	poli_8sides 6_whiteLine3.jpg	MediumShort_b10_cut1_MS_stereo_44KHz.wav
1	109	1	1	1	C	2	0	702	0	poli_8sides 4_whiteLine3.jpg	MediumShort_e22_cut1_stereo_44KHz.wav
1	110	4	4	2	I	2	0	753	1	poli_8sides 10_whiteLine3.jpg	MediumShort_e16_cut1_stereo_44KHz.wav
1	111	2	1	0	C	2	1	786	1	poli_8sides 6_whiteLine3.jpg	MediumShort_e22_cut1_stereo_44KHz.wav
1	112	3	4	2	I	2	0	653	0	poli_8sides 9_whiteLine3.jpg	MediumShort_e16_cut1_stereo_44KHz.wav
1	113	2	2	1	C	1	1	743	1	poli_8sides 6_whiteLine3.jpg	MediumShort_b10_cut1_MS_stereo_44KHz.wav
1	114	4	4	2	I	2	0	638	0	poli_8sides 10_whiteLine3.jpg	MediumShort_e16_cut1_stereo_44KHz.wav
1	115	1	1	1	C	1	1	852	1	poli_8sides 4_whiteLine3.jpg	MediumShort_e22_cut1_stereo_44KHz.wav
1	116	3	4	2	I	2	0	710	1	poli_8sides 9_whiteLine3.jpg	MediumShort_e16_cut1_stereo_44KHz.wav
1	117	2	1	0	C	1	0	639	0	poli_8sides 6_whiteLine3.jpg	MediumShort_e22_cut1_stereo_44KHz.wav
1	118	4	3	2	I	2	0	803	1	poli_8sides 10_whiteLine3.jpg	MediumShort_b16_cut3_MS_stereo_44KHz.wav
1	119	3	3	2	I	2	0	714	0	poli_8sides 9_whiteLine3.jpg	MediumShort_b16_cut3_MS_stereo_44KHz.wav
1	120	1	2	0	C	2	1	595	1	poli_8sides 4_whiteLine3.jpg	MediumShort_b10_cut1_MS_stereo_44KHz.wav
1	121	3	3	2	I	1	0	636	1	poli_8sides 9_whiteLine3.jpg	MediumShort_b16_cut3_MS_stereo_44KHz.wav
1	122	2	1	0	C	2	1	671	1	poli_8sides 6_whiteLine3.jpg	MediumShort_e22_cut1_stereo_44KHz.wav
1	123	1	1	1	C	1	1	790	1	poli_8sides 4_whiteLine3.jpg	MediumShort_e22_cut1_stereo_44KHz.wav
1	124	4	3	2	I	1	0	624	0	poli_8sides 10_whiteLine3.jpg	MediumShort_b16_cut3_MS_stereo_44KHz.wav
1	125	3	4	2	I	2	0	626	1	poli_8sides 9_whiteLine3.jpg	MediumShort_e16_cut1_stereo_44KHz.wav
1	126	4	4	2	I	2	0	639	1	poli_8sides 10_whiteLine3.jpg	MediumShort_e16_cut1_stereo_44KHz.wav
1	127	2	2	1	C	1	1	846	1	poli_8sides 6_whiteLine3.jpg	MediumShort_b10_cut1_MS_stereo_44KHz.wav
1	128	1	2	0	C	2	1	707	1	poli_8sides 4_whiteLine3.jpg	MediumShort_b10_cut1_MS_stereo_44KHz.wav
1	129	4	4	2	I	2	0	641	1	poli_8sides 10_whiteLine3.jpg	MediumShort_e16_cut1_stereo_44KHz.wav
1	130	2	1	0	C	2	1	833	1	poli_8sides 6_whiteLine3.jpg	MediumShort_e22_cut1_stereo_44KHz.wav
1	131	3	3	2	I	1	0	782	0	poli_8sides 9_whiteLine3.jpg	MediumShort_b16_cut3_MS_stereo_44KHz.wav
1	132	1	2	0	C	2	1	641	1	poli_8sides 4_whiteLine3.jpg	MediumShort_b10_cut1_MS_stereo_44KHz.wav
1	133	3	4	2	I	2	0	575	0	poli_8sides 9_whiteLine3.jpg	MediumShort_e16_cut1_stereo_44KHz.wav
1	134	2	2	1	C	1	1	800	1	poli_8sides 6_whiteLine3.jpg	MediumShort_b10_cut1_MS_stereo_44KHz.wav
1	135	1	1	1	C	1	1	730	1	poli_8sides 4_whiteLine3.jpg	MediumShort_e22_cut1_stereo_44KHz.wav
1	136	4	3	2	I	2	0	727	0	poli_8sides 10_whiteLine3.jpg	MediumShort_b16_cut3_MS_stereo_44KHz.wav
1	137	1	1	1	C	1	1	1022	1	poli_8sides 4_whiteLine3.jpg	MediumShort_e22_cut1_stereo_44KHz.wav
1	138	2	1	0	C	1	0	784	0	poli_8sides 6_whiteLine3.jpg	MediumShort_e22_cut1_stereo_44KHz.wav
1	139	4	3	2	I	1	0	757	0	poli_8sides 10_whiteLine3.jpg	MediumShort_b16_cut3_MS_stereo_44KHz.wav
1	140	3	3	2	I	2	0	746	0	poli_8sides 9_whiteLine3.jpg	MediumShort_b16_cut3_MS_stereo_44KHz.wav
1	141	2	2	1	C	1	1	688	1	poli_8sides 6_whiteLine3.jpg	MediumShort_b10_cut1_MS_stereo_44KHz.wav
1	142	3	4	2	I	2	0	680	0	poli_8sides 9_whiteLine3.jpg	MediumShort_e16_cut1_stereo_44KHz.wav
1	143	1	2	0	C	2	1	795	1	poli_8sides 4_whiteLine3.jpg	MediumShort_b10_cut1_MS_stereo_44KHz.wav
1	144	4	4	2	I	2	0	566	1	poli_8sides 10_whiteLine3.jpg	MediumShort_e16_cut1_stereo_44KHz.wav
1	145	3	3	2	I	1	0	733	0	poli_8sides 9_whiteLine3.jpg	MediumShort_b16_cut3_MS_stereo_44KHz.wav
1	146	2	2	1	C	1	1	749	1	poli_8sides 6_whiteLine3.jpg	MediumShort_b10_cut1_MS_stereo_44KHz.wav
1	147	4	4	2	I	2	0	709	0	poli_8sides 10_whiteLine3.jpg	MediumShort_e16_cut1_stereo_44KHz.wav
1	148	1	2	0	C	2	1	552	1	poli_8sides 4_whiteLine3.jpg	MediumShort_b10_cut1_MS_stereo_44KHz.wav
1	149	3	4	2	I	2	0	652	1	poli_8sides 9_whiteLine3.jpg	MediumShort_e16_cut1_stereo_44KHz.wav
1	150	1	1	1	C	1	1	804	1	poli_8sides 4_whiteLine3.jpg	MediumShort_e22_cut1_stereo_44KHz.wav
1	151	4	3	2	I	1	0	721	1	poli_8sides 10_whiteLine3.jpg	MediumShort_b16_cut3_MS_stereo_44KHz.wav
1	152	2	1	0	C	2	1	693	1	poli_8sides 6_whiteLine3.jpg	MediumShort_e22_cut1_stereo_44KHz.wav
1	153	1	2	0	C	2	1	704	1	poli_8sides 4_whiteLine3.jpg	MediumShort_b10_cut1_MS_stereo_44KHz.wav
1	154	4	4	2	I	2	0	617	1	poli_8sides 10_whiteLine3.jpg	MediumShort_e16_cut1_stereo_44KHz.wav
1	155	3	3	2	I	2	0	794	1	poli_8sides 9_whiteLine3.jpg	MediumShort_b16_cut3_MS_stereo_44KHz.wav
1	156	2	1	0	C	2	1	638	1	poli_8sides 6_whiteLine3.jpg	MediumShort_e22_cut1_stereo_44KHz.wav
1	157	1	1	1	C	1	1	742	1	poli_8sides 4_whiteLine3.jpg	MediumShort_e22_cut1_stereo_44KHz.wav
1	158	3	4	2	I	2	0	727	1	poli_8sides 9_whiteLine3.jpg	MediumShort_e16_cut1_stereo_44KHz.wav
1	159	4	3	2	I	1	0	823	0	poli_8sides 10_whiteLine3.jpg	MediumShort_b16_cut3_MS_stereo_44KHz.wav
1	160	2	2	1	C	1	1	737	1	poli_8sides 6_whiteLine3.jpg	MediumShort_b10_cut1_MS_stereo_44KHz.wav
1	161	1	2	0	C	2	1	605	1	poli_8sides 4_whiteLine3.jpg	MediumShort_b10_cut1_MS_stereo_44KHz.wav
1	162	4	4	2	I	2	0	795	1	poli_8sides 10_whiteLine3.jpg	MediumShort_e16_cut1_stereo_44KHz.wav
1	163	2	1	0	C	2	1	866	1	poli_8sides 6_whiteLine3.jpg	MediumShort_e22_cut1_stereo_44KHz.wav
1	164	3	4	2	I	1	0	588	0	poli_8sides 9_whiteLine3.jpg	MediumShort_e16_cut1_stereo_44KHz.wav
1	165	4	3	2	I	1	0	746	1	poli_8sides 10_whiteLine3.jpg	MediumShort_b16_cut3_MS_stereo_44KHz.wav
1	166	1	1	1	C	1	1	785	1	poli_8sides 4_whiteLine3.jpg	MediumShort_e22_cut1_stereo_44KHz.wav
1	167	3	3	2	I	2	0	696	1	poli_8sides 9_whiteLine3.jpg	MediumShort_b16_cut3_MS_stereo_44KHz.wav
1	168	2	2	1	C	1	1	637	1	poli_8sides 6_whiteLine3.jpg	MediumShort_b10_cut1_MS_stereo_44KHz.wav
1	169	3	4	2	I	2	0	768	0	poli_8sides 9_whiteLine3.jpg	MediumShort_e16_cut1_stereo_44KHz.wav
1	170	4	3	2	I	1	0	866	0	poli_8sides 10_whiteLine3.jpg	MediumShort_b16_cut3_MS_stereo_44KHz.wav
1	171	2	1	0	C	2	1	784	1	poli_8sides 6_whiteLine3.jpg	MediumShort_e22_cut1_stereo_44KHz.wav
1	172	1	2	0	C	2	1	576	1	poli_8sides 4_whiteLine3.jpg	MediumShort_b10_cut1_MS_stereo_44KHz.wav
1	173	4	4	2	I	2	0	652	0	poli_8sides 10_whiteLine3.jpg	MediumShort_e16_cut1_stereo_44KHz.wav
1	174	1	1	1	C	1	1	828	1	poli_8sides 4_whiteLine3.jpg	MediumShort_e22_cut1_stereo_44KHz.wav
1	175	3	3	2	I	2	0	754	1	poli_8sides 9_whiteLine3.jpg	MediumShort_b16_cut3_MS_stereo_44KHz.wav
1	176	2	2	1	C	1	1	663	1	poli_8sides 6_whiteLine3.jpg	MediumShort_b10_cut1_MS_stereo_44KHz.wav
1	177	1	2	0	C	2	1	569	1	poli_8sides 4_whiteLine3.jpg	MediumShort_b10_cut1_MS_stereo_44KHz.wav
1	178	3	4	2	I	2	0	571	0	poli_8sides 9_whiteLine3.jpg	MediumShort_e16_cut1_stereo_44KHz.wav
1	179	2	2	1	C	1	1	624	1	poli_8sides 6_whiteLine3.jpg	MediumShort_b10_cut1_MS_stereo_44KHz.wav
1	180	4	4	2	I	2	0	611	1	poli_8sides 10_whiteLine3.jpg	MediumShort_e16_cut1_stereo_44KHz.wav
1	181	2	1	0	C	2	1	821	1	poli_8sides 6_whiteLine3.jpg	MediumShort_e22_cut1_stereo_44KHz.wav
1	182	3	3	2	I	2	0	842	1	poli_8sides 9_whiteLine3.jpg	MediumShort_b16_cut3_MS_stereo_44KHz.wav
1	183	4	3	2	I	1	0	719	0	poli_8sides 10_whiteLine3.jpg	MediumShort_b16_cut3_MS_stereo_44KHz.wav
1	184	1	1	1	C	1	1	849	1	poli_8sides 4_whiteLine3.jpg	MediumShort_e22_cut1_stereo_44KHz.wav
1	185	4	3	2	I	1	0	1012	1	poli_8sides 10_whiteLine3.jpg	MediumShort_b16_cut3_MS_stereo_44KHz.wav
1	186	2	1	0	C	2	1	791	1	poli_8sides 6_whiteLine3.jpg	MediumShort_e22_cut1_stereo_44KHz.wav
1	187	1	1	1	C	1	1	793	1	poli_8sides 4_whiteLine3.jpg	MediumShort_e22_cut1_stereo_44KHz.wav
1	188	3	3	2	I	2	0	703	1	poli_8sides 9_whiteLine3.jpg	MediumShort_b16_cut3_MS_stereo_44KHz.wav
1	189	4	4	2	I	1	0	696	0	poli_8sides 10_whiteLine3.jpg	MediumShort_e16_cut1_stereo_44KHz.wav
1	190	3	4	2	I	2	0	636	0	poli_8sides 9_whiteLine3.jpg	MediumShort_e16_cut1_stereo_44KHz.wav
1	191	1	2	0	C	2	1	631	1	poli_8sides 4_whiteLine3.jpg	MediumShort_b10_cut1_MS_stereo_44KHz.wav
1	192	2	2	1	C	1	1	552	1	poli_8sides 6_whiteLine3.jpg	MediumShort_b10_cut1_MS_stereo_44KHz.wav
1	193	3	4	2	I	2	0	675	1	poli_8sides 9_whiteLine3.jpg	MediumShort_e16_cut1_stereo_44KHz.wav
1	194	1	2	0	C	2	1	569	1	poli_8sides 4_whiteLine3.jpg	MediumShort_b10_cut1_MS_stereo_44KHz.wav
1	195	2	2	1	C	1	1	659	1	poli_8sides 6_whiteLine3.jpg	MediumShort_b10_cut1_MS_stereo_44KHz.wav
1	196	4	4	2	I	2	0	706	1	poli_8sides 10_whiteLine3.jpg	MediumShort_e16_cut1_stereo_44KHz.wav
1	197	3	3	2	I	2	0	663	1	poli_8sides 9_whiteLine3.jpg	MediumShort_b16_cut3_MS_stereo_44KHz.wav
1	198	4	3	2	I	1	0	687	1	poli_8sides 10_whiteLine3.jpg	MediumShort_b16_cut3_MS_stereo_44KHz.wav
1	199	1	1	1	C	1	1	655	1	poli_8sides 4_whiteLine3.jpg	MediumShort_e22_cut1_stereo_44KHz.wav
1	200	2	1	0	C	2	1	971	1	poli_8sides 6_whiteLine3.jpg	MediumShort_e22_cut1_stereo_44KHz.wav
2	1	1	1	1	C	2	0	584	0	poli_8sides 2_whiteLine3.jpg	Short_b20_cut1_stereo_44KHz.wav
2	2	2	1	0	C	2	1	452	1	poli_8sides 13_whiteLine3.jpg	Short_b20_cut1_stereo_44KHz.wav
2	3	3	4	2	I	1	0	604	1	poli_8sides 5_whiteLine3.jpg	Short_b22_cut1_stereo_44KHz.wav
2	4	4	3	2	I	2	0	601	1	poli_8sides 12_whiteLine3.jpg	Short_b23_cut1_stereo_44KHz.wav
2	5	1	2	0	C	2	1	488	1	poli_8sides 2_whiteLine3.jpg	Short_b09_cut1_stereo_44KHz.wav
2	6	2	2	1	C	1	1	556	1	poli_8sides 13_whiteLine3.jpg	Short_b09_cut1_stereo_44KHz.wav
2	7	4	4	2	I	2	0	545	0	poli_8sides 12_whiteLine3.jpg	Short_b22_cut1_stereo_44KHz.wav
2	8	3	3	2	I	2	0	714	0	poli_8sides 5_whiteLine3.jpg	Short_b23_cut1_stereo_44KHz.wav
2	9	4	4	2	I	1	0	780	1	poli_8sides 12_whiteLine3.jpg	Short_b22_cut1_stereo_44KHz.wav
2	10	3	4	2	I	2	0	672	0	poli_8sides 5_whiteLine3.jpg	Short_b22_cut1_stereo_44KHz.wav
2	11	1	1	1	C	2	0	713	0	poli_8sides 2_whiteLine3.jpg	Short_b20_cut1_stereo_44KHz.wav
2	12	2	2	1	C	2	0	504	0	poli_8sides 13_whiteLine3.jpg	Short_b09_cut1_stereo_44KHz.wav
2	13	4	3	2	I	1	0	852	0	poli_8sides 12_whiteLine3.jpg	Short_b23_cut1_stereo_44KHz.wav
2	14	3	3	2	I	1	0	863	0	poli_8sides 5_whiteLine3.jpg	Short_b23_cut1_stereo_44KHz.wav
2	15	1	2	0	C	2	1	577	1	poli_8sides 2_whiteLine3.jpg	Short_b09_cut1_stereo_44KHz.wav
2	16	2	1	0	C	2	1	630	1	poli_8sides 13_whiteLine3.jpg	Short_b20_cut1_stereo_44KHz.wav
2	17	4	3	2	I	2	0	771	1	poli_8sides 12_whiteLine3.jpg	Short_b23_cut1_stereo_44KHz.wav
2	18	2	1	0	C	2	1	503	1	poli_8sides 13_whiteLine3.jpg	Short_b20_cut1_stereo_44KHz.wav
2	19	1	2	0	C	1	0	755	0	poli_8sides 2_whiteLine3.jpg	Short_b09_cut1_stereo_44KHz.wav
2	20	3	3	2	I	1	0	832	1	poli_8sides 5_whiteLine3.jpg	Short_b23_cut1_stereo_44KHz.wav
2	21	4	4	2	I	2	0	698	0	poli_8sides 12_whiteLine3.jpg	Short_b22_cut1_stereo_44KHz.wav
2	22	2	2	1	C	2	0	552	0	poli_8sides 13_whiteLine3.jpg	Short_b09_cut1_stereo_44KHz.wav
2	23	3	4	2	I	2	0	515	0	poli_8sides 5_whiteLine3.jpg	Short_b22_cut1_stereo_44KHz.wav
2	24	1	1	1	C	2	0	594	0	poli_8sides 2_whiteLine3.jpg	Short_b20_cut1_stereo_44KHz.wav
2	25	2	1	0	C	2	1	563	1	poli_8sides 13_whiteLine3.jpg	Short_b20_cut1_stereo_44KHz.wav
2	26	4	4	2	I	1	0	755	1	poli_8sides 12_whiteLine3.jpg	Short_b22_cut1_stereo_44KHz.wav
2	27	3	4	2	I	1	0	651	0	poli_8sides 5_whiteLine3.jpg	Short_b22_cut1_stereo_44KHz.wav
2	28	1	1	1	C	2	0	526	0	poli_8sides 2_whiteLine3.jpg	Short_b20_cut1_stereo_44KHz.wav
2	29	4	3	2	I	2	0	592	0	poli_8sides 12_whiteLine3.jpg	Short_b23_cut1_stereo_44KHz.wav
2	30	2	2	1	C	2	0	515	0	poli_8sides 13_whiteLine3.jpg	Short_b09_cut1_stereo_44KHz.wav
2	31	1	2	0	C	1	0	662	0	poli_8sides 2_whiteLine3.jpg	Short_b09_cut1_stereo_44KHz.wav
2	32	3	3	2	I	2	0	616	1	poli_8sides 5_whiteLine3.jpg	Short_b23_cut1_stereo_44KHz.wav
2	33	4	4	2	I	2	0	656	0	poli_8sides 12_whiteLine3.jpg	Short_b22_cut1_stereo_44KHz.wav
2	34	3	3	2	I	1	0	454	1	poli_8sides 5_whiteLine3.jpg	Short_b23_cut1_stereo_44KHz.wav
2	35	2	2	1	C	2	0	511	0	poli_8sides 13_whiteLine3.jpg	Short_b09_cut1_stereo_44KHz.wav
2	36	1	1	1	C	2	0	455	0	poli_8sides 2_whiteLine3.jpg	Short_b20_cut1_stereo_44KHz.wav
2	37	4	3	2	I	1	0	544	0	poli_8sides 12_whiteLine3.jpg	Short_b23_cut1_stereo_44KHz.wav
2	38	3	4	2	I	2	0	560	1	poli_8sides 5_whiteLine3.jpg	Short_b22_cut1_stereo_44KHz.wav
2	39	2	1	0	C	1	0	676	0	poli_8sides 13_whiteLine3.jpg	Short_b20_cut1_stereo_44KHz.wav
2	40	1	2	0	C	2	1	703	1	poli_8sides 2_whiteLine3.jpg	Short_b09_cut1_stereo_44KHz.wav
2	41	3	4	2	I	2	0	704	0	poli_8sides 5_whiteLine3.jpg	Short_b22_cut1_stereo_44KHz.wav
2	42	1	2	0	C	1	0	698	0	poli_8sides 2_whiteLine3.jpg	Short_b09_cut1_stereo_44KHz.wav
2	43	4	3	2	I	2	0	615	1	poli_8sides 12_whiteLine3.jpg	Short_b23_cut1_stereo_44KHz.wav
2	44	2	2	1	C	2	0	580	0	poli_8sides 13_whiteLine3.jpg	Short_b09_cut1_stereo_44KHz.wav
2	45	1	1	1	C	1	1	654	1	poli_8sides 2_whiteLine3.jpg	Short_b20_cut1_stereo_44KHz.wav
2	46	2	1	0	C	2	1	533	1	poli_8sides 13_whiteLine3.jpg	Short_b20_cut1_stereo_44KHz.wav
2	47	3	3	2	I	1	0	598	1	poli_8sides 5_whiteLine3.jpg	Short_b23_cut1_stereo_44KHz.wav
2	48	4	4	2	I	2	0	548	0	poli_8sides 12_whiteLine3.jpg	Short_b22_cut1_stereo_44KHz.wav
2	49	2	2	1	C	1	1	544	1	poli_8sides 13_whiteLine3.jpg	Short_b09_cut1_stereo_44KHz.wav
2	50	4	3	2	I	2	0	523	1	poli_8sides 12_whiteLine3.jpg	Short_b23_cut1_stereo_44KHz.wav
2	51	3	4	2	I	1	0	603	0	poli_8sides 5_whiteLine3.jpg	Short_b22_cut1_stereo_44KHz.wav
2	52	1	2	0	C	1	0	682	0	poli_8sides 2_whiteLine3.jpg	Short_b09_cut1_stereo_44KHz.wav
2	53	4	4	2	I	2	0	630	0	poli_8sides 12_whiteLine3.jpg	Short_b22_cut1_stereo_44KHz.wav
2	54	3	3	2	I	1	0	737	0	poli_8sides 5_whiteLine3.jpg	Short_b23_cut1_stereo_44KHz.wav
2	55	1	1	1	C	1	1	821	1	poli_8sides 2_whiteLine3.jpg	Short_b20_cut1_stereo_44KHz.wav
2	56	2	1	0	C	2	1	534	1	poli_8sides 13_whiteLine3.jpg	Short_b20_cut1_stereo_44KHz.wav
2	57	3	4	2	I	2	0	587	1	poli_8sides 5_whiteLine3.jpg	Short_b22_cut1_stereo_44KHz.wav
2	58	2	2	1	C	2	0	683	0	poli_8sides 13_whiteLine3.jpg	Short_b09_cut1_stereo_44KHz.wav
2	59	1	1	1	C	2	0	628	0	poli_8sides 2_whiteLine3.jpg	Short_b20_cut1_stereo_44KHz.wav
2	60	4	3	2	I	2	0	614	0	poli_8sides 12_whiteLine3.jpg	Short_b23_cut1_stereo_44KHz.wav
2	61	2	1	0	C	2	1	570	1	poli_8sides 13_whiteLine3.jpg	Short_b20_cut1_stereo_44KHz.wav
2	62	4	4	2	I	1	0	995	1	poli_8sides 12_whiteLine3.jpg	Short_b22_cut1_stereo_44KHz.wav
2	63	1	2	0	C	1	0	698	0	poli_8sides 2_whiteLine3.jpg	Short_b09_cut1_stereo_44KHz.wav
2	64	3	3	2	I	2	0	610	1	poli_8sides 5_whiteLine3.jpg	Short_b23_cut1_stereo_44KHz.wav
2	65	1	2	0	C	1	0	813	0	poli_8sides 2_whiteLine3.jpg	Short_b09_cut1_stereo_44KHz.wav
2	66	2	1	0	C	2	1	601	1	poli_8sides 13_whiteLine3.jpg	Short_b20_cut1_stereo_44KHz.wav
2	67	4	3	2	I	2	0	498	1	poli_8sides 12_whiteLine3.jpg	Short_b23_cut1_stereo_44KHz.wav
2	68	3	3	2	I	2	0	783	1	poli_8sides 5_whiteLine3.jpg	Short_b23_cut1_stereo_44KHz.wav
2	69	1	1	1	C	1	1	664	1	poli_8sides 2_whiteLine3.jpg	Short_b20_cut1_stereo_44KHz.wav
2	70	2	2	1	C	2	0	500	0	poli_8sides 13_whiteLine3.jpg	Short_b09_cut1_stereo_44KHz.wav
2	71	4	4	2	I	2	0	786	1	poli_8sides 12_whiteLine3.jpg	Short_b22_cut1_stereo_44KHz.wav
2	72	3	4	2	I	2	0	762	1	poli_8sides 5_whiteLine3.jpg	Short_b22_cut1_stereo_44KHz.wav
2	73	2	1	0	C	2	1	628	1	poli_8sides 13_whiteLine3.jpg	Short_b20_cut1_stereo_44KHz.wav
2	74	4	4	2	I	1	0	842	1	poli_8sides 12_whiteLine3.jpg	Short_b22_cut1_stereo_44KHz.wav
2	75	1	2	0	C	1	0	759	0	poli_8sides 2_whiteLine3.jpg	Short_b09_cut1_stereo_44KHz.wav
2	76	3	3	2	I	2	0	613	1	poli_8sides 5_whiteLine3.jpg	Short_b23_cut1_stereo_44KHz.wav
2	77	4	3	2	I	2	0	666	0	poli_8sides 12_whiteLine3.jpg	Short_b23_cut1_stereo_44KHz.wav
2	78	2	2	1	C	2	0	821	0	poli_8sides 13_whiteLine3.jpg	Short_b09_cut1_stereo_44KHz.wav
2	79	1	1	1	C	1	1	837	1	poli_8sides 2_whiteLine3.jpg	Short_b20_cut1_stereo_44KHz.wav
2	80	3	4	2	I	2	0	657	0	poli_8sides 5_whiteLine3.jpg	Short_b22_cut1_stereo_44KHz.wav
2	81	4	4	2	I	1	0	967	1	poli_8sides 12_whiteLine3.jpg	Short_b22_cut1_stereo_44KHz.wav
2	82	1	2	0	C	2	1	754	1	poli_8sides 2_whiteLine3.jpg	Short_b09_cut1_stereo_44KHz.wav
2	83	2	2	1	C	1	1	976	1	poli_8sides 13_whiteLine3.jpg	Short_b09_cut1_stereo_44KHz.wav
2	84	3	4	2	I	2	0	740	1	poli_8sides 5_whiteLine3.jpg	Short_b22_cut1_stereo_44KHz.wav
2	85	4	3	2	I	2	0	759	0	poli_8sides 12_whiteLine3.jpg	Short_b23_cut1_stereo_44KHz.wav
2	86	1	1	1	C	1	1	851	1	poli_8sides 2_whiteLine3.jpg	Short_b20_cut1_stereo_44KHz.wav
2	87	2	1	0	C	2	1	774	1	poli_8sides 13_whiteLine3.jpg	Short_b20_cut1_stereo_44KHz.wav
2	88	3	3	2	I	2	0	696	1	poli_8sides 5_whiteLine3.jpg	Short_b23_cut1_stereo_44KHz.wav
2	89	1	1	1	C	1	1	707	1	poli_8sides 2_whiteLine3.jpg	Short_b20_cut1_stereo_44KHz.wav
2	90	3	3	2	I	2	0	552	1	poli_8sides 5_whiteLine3.jpg	Short_b23_cut1_stereo_44KHz.wav
2	91	4	3	2	I	1	0	569	1	poli_8sides 12_whiteLine3.jpg	Short_b23_cut1_stereo_44KHz.wav
2	92	2	2	1	C	2	0	668	0	poli_8sides 13_whiteLine3.jpg	Short_b09_cut1_stereo_44KHz.wav
2	93	4	4	2	I	1	0	863	0	poli_8sides 12_whiteLine3.jpg	Short_b22_cut1_stereo_44KHz.wav
2	94	2	1	0	C	2	1	752	1	poli_8sides 13_whiteLine3.jpg	Short_b20_cut1_stereo_44KHz.wav
2	95	3	4	2	I	2	0	608	0	poli_8sides 5_whiteLine3.jpg	Short_b22_cut1_stereo_44KHz.wav
2	96	1	2	0	C	2	1	620	1	poli_8sides 2_whiteLine3.jpg	Short_b09_cut1_stereo_44KHz.wav
2	97	3	3	2	I	2	0	656	0	poli_8sides 5_whiteLine3.jpg	Short_b23_cut1_stereo_44KHz.wav
2	98	2	2	1	C	2	0	619	0	poli_8sides 13_whiteLine3.jpg	Short_b09_cut1_stereo_44KHz.wav
2	99	1	2	0	C	2	1	738	1	poli_8sides 2_whiteLine3.jpg	Short_b09_cut1_stereo_44KHz.wav
2	100	4	3	2	I	1	0	661	0	poli_8sides 12_whiteLine3.jpg	Short_b23_cut1_stereo_44KHz.wav
2	101	1	1	1	C	1	1	904	1	poli_8sides 2_whiteLine3.jpg	Short_b20_cut1_stereo_44KHz.wav
2	102	4	4	2	I	2	0	698	0	poli_8sides 12_whiteLine3.jpg	Short_b22_cut1_stereo_44KHz.wav
2	103	3	4	2	I	2	0	900	1	poli_8sides 5_whiteLine3.jpg	Short_b22_cut1_stereo_44KHz.wav
2	104	2	1	0	C	2	1	691	1	poli_8sides 13_whiteLine3.jpg	Short_b20_cut1_stereo_44KHz.wav
2	105	4	4	2	I	1	0	696	0	poli_8sides 12_whiteLine3.jpg	Short_b22_cut1_stereo_44KHz.wav
2	106	2	1	0	C	2	1	539	1	poli_8sides 13_whiteLine3.jpg	Short_b20_cut1_stereo_44KHz.wav
2	107	1	1	1	C	1	1	790	1	poli_8sides 2_whiteLine3.jpg	Short_b20_cut1_stereo_44KHz.wav
2	108	3	4	2	I	2	0	738	0	poli_8sides 5_whiteLine3.jpg	Short_b22_cut1_stereo_44KHz.wav
2	109	2	2	1	C	2	0	666	0	poli_8sides 13_whiteLine3.jpg	Short_b09_cut1_stereo_44KHz.wav
2	110	3	3	2	I	2	0	758	1	poli_8sides 5_whiteLine3.jpg	Short_b23_cut1_stereo_44KHz.wav
2	111	1	2	0	C	2	1	921	1	poli_8sides 2_whiteLine3.jpg	Short_b09_cut1_stereo_44KHz.wav
2	112	4	3	2	I	1	0	580	0	poli_8sides 12_whiteLine3.jpg	Short_b23_cut1_stereo_44KHz.wav
2	113	1	1	1	C	1	1	711	1	poli_8sides 2_whiteLine3.jpg	Short_b20_cut1_stereo_44KHz.wav
2	114	2	2	1	C	1	1	683	1	poli_8sides 13_whiteLine3.jpg	Short_b09_cut1_stereo_44KHz.wav
2	115	3	4	2	I	2	0	783	0	poli_8sides 5_whiteLine3.jpg	Short_b22_cut1_stereo_44KHz.wav
2	116	4	4	2	I	1	0	739	1	poli_8sides 12_whiteLine3.jpg	Short_b22_cut1_stereo_44KHz.wav
2	117	2	1	0	C	2	1	618	1	poli_8sides 13_whiteLine3.jpg	Short_b20_cut1_stereo_44KHz.wav
2	118	3	3	2	I	2	0	723	1	poli_8sides 5_whiteLine3.jpg	Short_b23_cut1_stereo_44KHz.wav
2	119	1	2	0	C	1	0	742	0	poli_8sides 2_whiteLine3.jpg	Short_b09_cut1_stereo_44KHz.wav
2	120	4	3	2	I	1	0	708	0	poli_8sides 12_whiteLine3.jpg	Short_b23_cut1_stereo_44KHz.wav
2	121	1	2	0	C	2	1	626	1	poli_8sides 2_whiteLine3.jpg	Short_b09_cut1_stereo_44KHz.wav
2	122	4	3	2	I	2	0	924	1	poli_8sides 12_whiteLine3.jpg	Short_b23_cut1_stereo_44KHz.wav
2	123	2	1	0	C	2	1	657	1	poli_8sides 13_whiteLine3.jpg	Short_b20_cut1_stereo_44KHz.wav
2	124	3	4	2	I	2	0	947	1	poli_8sides 5_whiteLine3.jpg	Short_b22_cut1_stereo_44KHz.wav
2	125	1	1	1	C	2	0	732	0	poli_8sides 2_whiteLine3.jpg	Short_b20_cut1_stereo_44KHz.wav
2	126	4	4	2	I	2	0	710	0	poli_8sides 12_whiteLine3.jpg	Short_b22_cut1_stereo_44KHz.wav
2	127	2	2	1	C	1	1	1057	1	poli_8sides 13_whiteLine3.jpg	Short_b09_cut1_stereo_44KHz.wav
2	128	3	3	2	I	2	0	693	1	poli_8sides 5_whiteLine3.jpg	Short_b23_cut1_stereo_44KHz.wav
2	129	4	4	2	I	1	0	783	1	poli_8sides 12_whiteLine3.jpg	Short_b22_cut1_stereo_44KHz.wav
2	130	1	1	1	C	1	1	845	1	poli_8sides 2_whiteLine3.jpg	Short_b20_cut1_stereo_44KHz.wav
2	131	3	4	2	I	2	0	712	0	poli_8sides 5_whiteLine3.jpg	Short_b22_cut1_stereo_44KHz.wav
2	132	2	2	1	C	1	1	916	1	poli_8sides 13_whiteLine3.jpg	Short_b09_cut1_stereo_44KHz.wav
2	133	4	3	2	I	1	0	768	0	poli_8sides 12_whiteLine3.jpg	Short_b23_cut1_stereo_44KHz.wav
2	134	2	1	0	C	2	1	591	1	poli_8sides 13_whiteLine3.jpg	Short_b20_cut1_stereo_44KHz.wav
2	135	3	3	2	I	2	0	707	0	poli_8sides 5_whiteLine3.jpg	Short_b23_cut1_stereo_44KHz.wav
2	136	1	2	0	C	2	1	691	1	poli_8sides 2_whiteLine3.jpg	Short_b09_cut1_stereo_44KHz.wav
2	137	4	4	2	I	2	0	687	0	poli_8sides 12_whiteLine3.jpg	Short_b22_cut1_stereo_44KHz.wav
2	138	2	2	1	C	2	0	675	0	poli_8sides 13_whiteLine3.jpg	Short_b09_cut1_stereo_44KHz.wav
2	139	1	2	0	C	2	1	691	1	poli_8sides 2_whiteLine3.jpg	Short_b09_cut1_stereo_44KHz.wav
2	140	3	4	2	I	2	0	705	1	poli_8sides 5_whiteLine3.jpg	Short_b22_cut1_stereo_44KHz.wav
2	141	1	1	1	C	1	1	794	1	poli_8sides 2_whiteLine3.jpg	Short_b20_cut1_stereo_44KHz.wav
2	142	4	3	2	I	2	0	724	0	poli_8sides 12_whiteLine3.jpg	Short_b23_cut1_stereo_44KHz.wav
2	143	2	1	0	C	2	1	767	1	poli_8sides 13_whiteLine3.jpg	Short_b20_cut1_stereo_44KHz.wav
2	144	3	3	2	I	2	0	783	0	poli_8sides 5_whiteLine3.jpg	Short_b23_cut1_stereo_44KHz.wav
2	145	1	1	1	C	1	1	796	1	poli_8sides 2_whiteLine3.jpg	Short_b20_cut1_stereo_44KHz.wav
2	146	3	4	2	I	2	0	760	1	poli_8sides 5_whiteLine3.jpg	Short_b22_cut1_stereo_44KHz.wav
2	147	4	4	2	I	2	0	1077	1	poli_8sides 12_whiteLine3.jpg	Short_b22_cut1_stereo_44KHz.wav
2	148	2	1	0	C	2	1	646	1	poli_8sides 13_whiteLine3.jpg	Short_b20_cut1_stereo_44KHz.wav
2	149	1	2	0	C	2	1	942	1	poli_8sides 2_whiteLine3.jpg	Short_b09_cut1_stereo_44KHz.wav
2	150	2	2	1	C	1	1	653	1	poli_8sides 13_whiteLine3.jpg	Short_b09_cut1_stereo_44KHz.wav
2	151	3	3	2	I	1	0	918	0	poli_8sides 5_whiteLine3.jpg	Short_b23_cut1_stereo_44KHz.wav
2	152	4	3	2	I	2	0	999	1	poli_8sides 12_whiteLine3.jpg	Short_b23_cut1_stereo_44KHz.wav
2	153	3	3	2	I	2	0	780	1	poli_8sides 5_whiteLine3.jpg	Short_b23_cut1_stereo_44KHz.wav
2	154	4	3	2	I	1	0	648	0	poli_8sides 12_whiteLine3.jpg	Short_b23_cut1_stereo_44KHz.wav
2	155	2	2	1	C	2	0	734	0	poli_8sides 13_whiteLine3.jpg	Short_b09_cut1_stereo_44KHz.wav
2	156	1	2	0	C	2	1	732	1	poli_8sides 2_whiteLine3.jpg	Short_b09_cut1_stereo_44KHz.wav
2	157	2	1	0	C	2	1	790	1	poli_8sides 13_whiteLine3.jpg	Short_b20_cut1_stereo_44KHz.wav
2	158	1	1	1	C	1	1	610	1	poli_8sides 2_whiteLine3.jpg	Short_b20_cut1_stereo_44KHz.wav
2	159	3	4	2	I	2	0	774	1	poli_8sides 5_whiteLine3.jpg	Short_b22_cut1_stereo_44KHz.wav
2	160	4	4	2	I	1	0	785	1	poli_8sides 12_whiteLine3.jpg	Short_b22_cut1_stereo_44KHz.wav
2	161	3	3	2	I	1	0	785	0	poli_8sides 5_whiteLine3.jpg	Short_b23_cut1_stereo_44KHz.wav
2	162	2	1	0	C	2	1	711	1	poli_8sides 13_whiteLine3.jpg	Short_b20_cut1_stereo_44KHz.wav
2	163	4	4	2	I	1	0	650	1	poli_8sides 12_whiteLine3.jpg	Short_b22_cut1_stereo_44KHz.wav
2	164	1	1	1	C	1	1	798	1	poli_8sides 2_whiteLine3.jpg	Short_b20_cut1_stereo_44KHz.wav
2	165	3	4	2	I	2	0	758	0	poli_8sides 5_whiteLine3.jpg	Short_b22_cut1_stereo_44KHz.wav
2	166	1	2	0	C	2	1	815	1	poli_8sides 2_whiteLine3.jpg	Short_b09_cut1_stereo_44KHz.wav
2	167	2	2	1	C	1	1	604	1	poli_8sides 13_whiteLine3.jpg	Short_b09_cut1_stereo_44KHz.wav
2	168	4	3	2	I	2	0	685	1	poli_8sides 12_whiteLine3.jpg	Short_b23_cut1_stereo_44KHz.wav
2	169	3	3	2	I	1	0	702	0	poli_8sides 5_whiteLine3.jpg	Short_b23_cut1_stereo_44KHz.wav
2	170	2	2	1	C	2	0	944	0	poli_8sides 13_whiteLine3.jpg	Short_b09_cut1_stereo_44KHz.wav
2	171	4	4	2	I	2	0	827	1	poli_8sides 12_whiteLine3.jpg	Short_b22_cut1_stereo_44KHz.wav
2	172	1	2	0	C	2	1	729	1	poli_8sides 2_whiteLine3.jpg	Short_b09_cut1_stereo_44KHz.wav
2	173	4	3	2	I	2	0	776	0	poli_8sides 12_whiteLine3.jpg	Short_b23_cut1_stereo_44KHz.wav
2	174	1	1	1	C	1	1	727	1	poli_8sides 2_whiteLine3.jpg	Short_b20_cut1_stereo_44KHz.wav
2	175	3	4	2	I	2	0	771	1	poli_8sides 5_whiteLine3.jpg	Short_b22_cut1_stereo_44KHz.wav
2	176	2	1	0	C	2	1	725	1	poli_8sides 13_whiteLine3.jpg	Short_b20_cut1_stereo_44KHz.wav
2	177	3	3	2	I	2	0	706	0	poli_8sides 5_whiteLine3.jpg	Short_b23_cut1_stereo_44KHz.wav
2	178	4	3	2	I	2	0	827	0	poli_8sides 12_whiteLine3.jpg	Short_b23_cut1_stereo_44KHz.wav
2	179	1	1	1	C	1	1	976	1	poli_8sides 2_whiteLine3.jpg	Short_b20_cut1_stereo_44KHz.wav
2	180	2	1	0	C	2	1	750	1	poli_8sides 13_whiteLine3.jpg	Short_b20_cut1_stereo_44KHz.wav
2	181	4	4	2	I	1	0	937	0	poli_8sides 12_whiteLine3.jpg	Short_b22_cut1_stereo_44KHz.wav
2	182	2	2	1	C	1	1	876	1	poli_8sides 13_whiteLine3.jpg	Short_b09_cut1_stereo_44KHz.wav
2	183	1	2	0	C	2	1	619	1	poli_8sides 2_whiteLine3.jpg	Short_b09_cut1_stereo_44KHz.wav
2	184	3	4	2	I	2	0	946	0	poli_8sides 5_whiteLine3.jpg	Short_b22_cut1_stereo_44KHz.wav
2	185	1	2	0	C	2	1	1084	1	poli_8sides 2_whiteLine3.jpg	Short_b09_cut1_stereo_44KHz.wav
2	186	4	4	2	I	1	0	766	1	poli_8sides 12_whiteLine3.jpg	Short_b22_cut1_stereo_44KHz.wav
2	187	3	4	2	I	2	0	837	0	poli_8sides 5_whiteLine3.jpg	Short_b22_cut1_stereo_44KHz.wav
2	188	2	1	0	C	2	1	890	1	poli_8sides 13_whiteLine3.jpg	Short_b20_cut1_stereo_44KHz.wav
2	189	4	3	2	I	2	0	786	1	poli_8sides 12_whiteLine3.jpg	Short_b23_cut1_stereo_44KHz.wav
2	190	1	1	1	C	1	1	915	1	poli_8sides 2_whiteLine3.jpg	Short_b20_cut1_stereo_44KHz.wav
2	191	3	3	2	I	2	0	719	1	poli_8sides 5_whiteLine3.jpg	Short_b23_cut1_stereo_44KHz.wav
2	192	2	2	1	C	1	1	977	1	poli_8sides 13_whiteLine3.jpg	Short_b09_cut1_stereo_44KHz.wav
2	193	1	1	1	C	1	1	699	1	poli_8sides 2_whiteLine3.jpg	Short_b20_cut1_stereo_44KHz.wav
2	194	4	4	2	I	2	0	861	1	poli_8sides 12_whiteLine3.jpg	Short_b22_cut1_stereo_44KHz.wav
2	195	2	1	0	C	2	1	919	1	poli_8sides 13_whiteLine3.jpg	Short_b20_cut1_stereo_44KHz.wav
2	196	3	4	2	I	2	0	774	0	poli_8sides 5_whiteLine3.jpg	Short_b22_cut1_stereo_44KHz.wav
2	197	1	2	0	C	1	0	919	0	poli_8sides 2_whiteLine3.jpg	Short_b09_cut1_stereo_44KHz.wav
2	198	2	2	1	C	1	1	624	1	poli_8sides 13_whiteLine3.jpg	Short_b09_cut1_stereo_44KHz.wav
2	199	3	3	2	I	1	0	639	0	poli_8sides 5_whiteLine3.jpg	Short_b23_cut1_stereo_44KHz.wav
2	200	4	3	2	I	2	0	717	1	poli_8sides 12_whiteLine3.jpg	Short_b23_cut1_stereo_44KHz.wav
3	1	2	1	0	C	2	1	868	1	poli_8sides 16_whiteLine3.jpg	Medium_e21_stereo_44KHz.wav
3	2	4	4	2	I	1	0	717	0	poli_8sides 11_whiteLine3.jpg	Medium_e01_cut1_stereo_44KHz.wav
3	3	3	4	2	I	2	0	663	0	poli_8sides 15_whiteLine3.jpg	Medium_e01_cut1_stereo_44KHz.wav
3	4	1	1	1	C	2	0	550	0	poli_8sides 18_whiteLine3.jpg	Medium_e21_stereo_44KHz.wav
3	5	3	3	2	I	1	0	545	1	poli_8sides 15_whiteLine3.jpg	Medium_e26_stereo_44KHz.wav
3	6	1	2	0	C	2	1	824	1	poli_8sides 18_whiteLine3.jpg	Medium_e13_stereo_44KHz.wav
3	7	4	3	2	I	2	0	642	0	poli_8sides 11_whiteLine3.jpg	Medium_e26_stereo_44KHz.wav
3	8	2	2	1	C	1	1	857	1	poli_8sides 16_whiteLine3.jpg	Medium_e13_stereo_44KHz.wav
3	9	3	4	2	I	2	0	674	1	poli_8sides 15_whiteLine3.jpg	Medium_e01_cut1_stereo_44KHz.wav
3	10	1	1	1	C	1	1	724	1	poli_8sides 18_whiteLine3.jpg	Medium_e21_stereo_44KHz.wav
3	11	4	4	2	I	2	0	854	1	poli_8sides 11_whiteLine3.jpg	Medium_e01_cut1_stereo_44KHz.wav
3	12	2	2	1	C	1	1	839	1	poli_8sides 16_whiteLine3.jpg	Medium_e13_stereo_44KHz.wav
3	13	4	3	2	I	2	0	680	0	poli_8sides 11_whiteLine3.jpg	Medium_e26_stereo_44KHz.wav
3	14	1	2	0	C	2	1	891	1	poli_8sides 18_whiteLine3.jpg	Medium_e13_stereo_44KHz.wav
3	15	3	3	2	I	1	0	706	0	poli_8sides 15_whiteLine3.jpg	Medium_e26_stereo_44KHz.wav
3	16	2	1	0	C	1	0	708	0	poli_8sides 16_whiteLine3.jpg	Medium_e21_stereo_44KHz.wav
3	17	3	3	2	I	2	0	686	0	poli_8sides 15_whiteLine3.jpg	Medium_e26_stereo_44KHz.wav
3	18	1	2	0	C	2	1	781	1	poli_8sides 18_whiteLine3.jpg	Medium_e13_stereo_44KHz.wav
3	19	4	3	2	I	2	0	624	0	poli_8sides 11_whiteLine3.jpg	Medium_e26_stereo_44KHz.wav
3	20	2	1	0	C	2	1	749	1	poli_8sides 16_whiteLine3.jpg	Medium_e21_stereo_44KHz.wav
3	21	1	1	1	C	1	1	684	1	poli_8sides 18_whiteLine3.jpg	Medium_e21_stereo_44KHz.wav
3	22	2	2	1	C	1	1	910	1	poli_8sides 16_whiteLine3.jpg	Medium_e13_stereo_44KHz.wav
3	23	3	4	2	I	2	0	778	1	poli_8sides 15_whiteLine3.jpg	Medium_e01_cut1_stereo_44KHz.wav
3	24	4	4	2	I	1	0	668	0	poli_8sides 11_whiteLine3.jpg	Medium_e01_cut1_stereo_44KHz.wav
3	25	3	4	2	I	2	0	656	0	poli_8sides 15_whiteLine3.jpg	Medium_e01_cut1_stereo_44KHz.wav
3	26	4	4	2	I	2	0	1043	1	poli_8sides 11_whiteLine3.jpg	Medium_e01_cut1_stereo_44KHz.wav
3	27	1	2	0	C	2	1	703	1	poli_8sides 18_whiteLine3.jpg	Medium_e13_stereo_44KHz.wav
3	28	2	1	0	C	2	1	782	1	poli_8sides 16_whiteLine3.jpg	Medium_e21_stereo_44KHz.wav
3	29	4	3	2	I	2	0	689	0	poli_8sides 11_whiteLine3.jpg	Medium_e26_stereo_44KHz.wav
3	30	3	3	2	I	2	0	542	0	poli_8sides 15_whiteLine3.jpg	Medium_e26_stereo_44KHz.wav
3	31	2	2	1	C	2	0	794	0	poli_8sides 16_whiteLine3.jpg	Medium_e13_stereo_44KHz.wav
3	32	1	1	1	C	1	1	787	1	poli_8sides 18_whiteLine3.jpg	Medium_e21_stereo_44KHz.wav
3	33	3	3	2	I	2	0	862	0	poli_8sides 15_whiteLine3.jpg	Medium_e26_stereo_44KHz.wav
3	34	1	1	1	C	1	1	798	1	poli_8sides 18_whiteLine3.jpg	Medium_e21_stereo_44KHz.wav
3	35	2	1	0	C	1	0	1166	0	poli_8sides 16_whiteLine3.jpg	Medium_e21_stereo_44KHz.wav
3	36	4	4	2	I	2	0	801	1	poli_8sides 11_whiteLine3.jpg	Medium_e01_cut1_stereo_44KHz.wav
3	37	2	2	1	C	1	1	1061	1	poli_8sides 16_whiteLine3.jpg	Medium_e13_stereo_44KHz.wav
3	38	3	4	2	I	2	0	808	0	poli_8sides 15_whiteLine3.jpg	Medium_e01_cut1_stereo_44KHz.wav
3	39	4	3	2	I	2	0	826	1	poli_8sides 11_whiteLine3.jpg	Medium_e26_stereo_44KHz.wav
3	40	1	2	0	C	2	1	1343	1	poli_8sides 18_whiteLine3.jpg	Medium_e13_stereo_44KHz.wav
3	41	4	4	2	I	2	0	691	0	poli_8sides 11_whiteLine3.jpg	Medium_e01_cut1_stereo_44KHz.wav
3	42	2	1	0	C	2	1	1472	1	poli_8sides 16_whiteLine3.jpg	Medium_e21_stereo_44KHz.wav
3	43	1	2	0	C	2	1	820	1	poli_8sides 18_whiteLine3.jpg	Medium_e13_stereo_44KHz.wav
3	44	3	4	2	I	2	0	681	1	poli_8sides 15_whiteLine3.jpg	Medium_e01_cut1_stereo_44KHz.wav
3	45	1	1	1	C	1	1	778	1	poli_8sides 18_whiteLine3.jpg	Medium_e21_stereo_44KHz.wav
3	46	3	3	2	I	2	0	845	1	poli_8sides 15_whiteLine3.jpg	Medium_e26_stereo_44KHz.wav
3	47	2	2	1	C	1	1	834	1	poli_8sides 16_whiteLine3.jpg	Medium_e13_stereo_44KHz.wav
3	48	4	3	2	I	2	0	690	1	poli_8sides 11_whiteLine3.jpg	Medium_e26_stereo_44KHz.wav
3	49	1	1	1	C	2	0	1007	0	poli_8sides 18_whiteLine3.jpg	Medium_e21_stereo_44KHz.wav
3	50	2	2	1	C	1	1	689	1	poli_8sides 16_whiteLine3.jpg	Medium_e13_stereo_44KHz.wav
3	51	4	3	2	I	2	0	659	0	poli_8sides 11_whiteLine3.jpg	Medium_e26_stereo_44KHz.wav
3	52	3	4	2	I	2	0	743	1	poli_8sides 15_whiteLine3.jpg	Medium_e01_cut1_stereo_44KHz.wav
3	53	4	4	2	I	2	0	723	1	poli_8sides 11_whiteLine3.jpg	Medium_e01_cut1_stereo_44KHz.wav
3	54	1	2	0	C	2	1	958	1	poli_8sides 18_whiteLine3.jpg	Medium_e13_stereo_44KHz.wav
3	55	2	1	0	C	2	1	729	1	poli_8sides 16_whiteLine3.jpg	Medium_e21_stereo_44KHz.wav
3	56	3	3	2	I	2	0	652	0	poli_8sides 15_whiteLine3.jpg	Medium_e26_stereo_44KHz.wav
3	57	4	4	2	I	2	0	667	0	poli_8sides 11_whiteLine3.jpg	Medium_e01_cut1_stereo_44KHz.wav
3	58	3	3	2	I	2	0	587	0	poli_8sides 15_whiteLine3.jpg	Medium_e26_stereo_44KHz.wav
3	59	1	2	0	C	2	1	969	1	poli_8sides 18_whiteLine3.jpg	Medium_e13_stereo_44KHz.wav
3	60	2	2	1	C	1	1	697	1	poli_8sides 16_whiteLine3.jpg	Medium_e13_stereo_44KHz.wav
3	61	4	3	2	I	2	0	664	1	poli_8sides 11_whiteLine3.jpg	Medium_e26_stereo_44KHz.wav
3	62	1	1	1	C	1	1	894	1	poli_8sides 18_whiteLine3.jpg	Medium_e21_stereo_44KHz.wav
3	63	2	1	0	C	2	1	915	1	poli_8sides 16_whiteLine3.jpg	Medium_e21_stereo_44KHz.wav
3	64	3	4	2	I	2	0	449	0	poli_8sides 15_whiteLine3.jpg	Medium_e01_cut1_stereo_44KHz.wav
3	65	4	3	2	I	2	0	638	1	poli_8sides 11_whiteLine3.jpg	Medium_e26_stereo_44KHz.wav
3	66	3	3	2	I	2	0	634	0	poli_8sides 15_whiteLine3.jpg	Medium_e26_stereo_44KHz.wav
3	67	1	2	0	C	2	1	654	1	poli_8sides 18_whiteLine3.jpg	Medium_e13_stereo_44KHz.wav
3	68	2	2	1	C	1	1	744	1	poli_8sides 16_whiteLine3.jpg	Medium_e13_stereo_44KHz.wav
3	69	3	4	2	I	2	0	723	1	poli_8sides 15_whiteLine3.jpg	Medium_e01_cut1_stereo_44KHz.wav
3	70	1	1	1	C	1	1	842	1	poli_8sides 18_whiteLine3.jpg	Medium_e21_stereo_44KHz.wav
3	71	4	4	2	I	1	0	1098	0	poli_8sides 11_whiteLine3.jpg	Medium_e01_cut1_stereo_44KHz.wav
3	72	2	1	0	C	2	1	950	1	poli_8sides 16_whiteLine3.jpg	Medium_e21_stereo_44KHz.wav
3	73	1	2	0	C	2	1	972	1	poli_8sides 18_whiteLine3.jpg	Medium_e13_stereo_44KHz.wav
3	74	3	4	2	I	2	0	731	1	poli_8sides 15_whiteLine3.jpg	Medium_e01_cut1_stereo_44KHz.wav
3	75	4	4	2	I	2	0	698	0	poli_8sides 11_whiteLine3.jpg	Medium_e01_cut1_stereo_44KHz.wav
3	76	2	1	0	C	2	1	966	1	poli_8sides 16_whiteLine3.jpg	Medium_e21_stereo_44KHz.wav
3	77	1	1	1	C	1	1	854	1	poli_8sides 18_whiteLine3.jpg	Medium_e21_stereo_44KHz.wav
3	78	2	2	1	C	1	1	974	1	poli_8sides 16_whiteLine3.jpg	Medium_e13_stereo_44KHz.wav
3	79	4	3	2	I	2	0	656	0	poli_8sides 11_whiteLine3.jpg	Medium_e26_stereo_44KHz.wav
3	80	3	3	2	I	2	0	410	0	poli_8sides 15_whiteLine3.jpg	Medium_e26_stereo_44KHz.wav
3	81	2	2	1	C	1	1	957	1	poli_8sides 16_whiteLine3.jpg	Medium_e13_stereo_44KHz.wav
3	82	1	1	1	C	1	1	880	1	poli_8sides 18_whiteLine3.jpg	Medium_e21_stereo_44KHz.wav
3	83	3	3	2	I	2	0	723	1	poli_8sides 15_whiteLine3.jpg	Medium_e26_stereo_44KHz.wav
3	84	4	3	2	I	1	0	482	1	poli_8sides 11_whiteLine3.jpg	Medium_e26_stereo_44KHz.wav
3	85	1	2	0	C	2	1	820	1	poli_8sides 18_whiteLine3.jpg	Medium_e13_stereo_44KHz.wav
3	86	4	4	2	I	1	0	703	0	poli_8sides 11_whiteLine3.jpg	Medium_e01_cut1_stereo_44KHz.wav
3	87	2	1	0	C	2	1	696	1	poli_8sides 16_whiteLine3.jpg	Medium_e21_stereo_44KHz.wav
3	88	3	4	2	I	2	0	679	1	poli_8sides 15_whiteLine3.jpg	Medium_e01_cut1_stereo_44KHz.wav
3	89	1	2	0	C	2	1	710	1	poli_8sides 18_whiteLine3.jpg	Medium_e13_stereo_44KHz.wav
3	90	4	3	2	I	2	0	648	0	poli_8sides 11_whiteLine3.jpg	Medium_e26_stereo_44KHz.wav
3	91	2	1	0	C	2	1	1027	1	poli_8sides 16_whiteLine3.jpg	Medium_e21_stereo_44KHz.wav
3	92	3	3	2	I	2	0	610	1	poli_8sides 15_whiteLine3.jpg	Medium_e26_stereo_44KHz.wav
3	93	2	2	1	C	1	1	887	1	poli_8sides 16_whiteLine3.jpg	Medium_e13_stereo_44KHz.wav
3	94	3	4	2	I	2	0	703	0	poli_8sides 15_whiteLine3.jpg	Medium_e01_cut1_stereo_44KHz.wav
3	95	4	4	2	I	2	0	879	1	poli_8sides 11_whiteLine3.jpg	Medium_e01_cut1_stereo_44KHz.wav
3	96	1	1	1	C	1	1	792	1	poli_8sides 18_whiteLine3.jpg	Medium_e21_stereo_44KHz.wav
3	97	4	3	2	I	2	0	656	0	poli_8sides 11_whiteLine3.jpg	Medium_e26_stereo_44KHz.wav
3	98	1	1	1	C	1	1	800	1	poli_8sides 18_whiteLine3.jpg	Medium_e21_stereo_44KHz.wav
3	99	2	1	0	C	2	1	1182	1	poli_8sides 16_whiteLine3.jpg	Medium_e21_stereo_44KHz.wav
3	100	3	3	2	I	2	0	628	0	poli_8sides 15_whiteLine3.jpg	Medium_e26_stereo_44KHz.wav
3	101	4	4	2	I	2	0	606	1	poli_8sides 11_whiteLine3.jpg	Medium_e01_cut1_stereo_44KHz.wav
3	102	1	2	0	C	2	1	657	1	poli_8sides 18_whiteLine3.jpg	Medium_e13_stereo_44KHz.wav
3	103	2	2	1	C	1	1	701	1	poli_8sides 16_whiteLine3.jpg	Medium_e13_stereo_44KHz.wav
3	104	3	4	2	I	2	0	634	1	poli_8sides 15_whiteLine3.jpg	Medium_e01_cut1_stereo_44KHz.wav
3	105	1	1	1	C	1	1	792	1	poli_8sides 18_whiteLine3.jpg	Medium_e21_stereo_44KHz.wav
3	106	2	1	0	C	2	1	809	1	poli_8sides 16_whiteLine3.jpg	Medium_e21_stereo_44KHz.wav
3	107	3	3	2	I	2	0	687	1	poli_8sides 15_whiteLine3.jpg	Medium_e26_stereo_44KHz.wav
3	108	4	3	2	I	1	0	708	0	poli_8sides 11_whiteLine3.jpg	Medium_e26_stereo_44KHz.wav
3	109	3	4	2	I	2	0	572	0	poli_8sides 15_whiteLine3.jpg	Medium_e01_cut1_stereo_44KHz.wav
3	110	2	2	1	C	1	1	1091	1	poli_8sides 16_whiteLine3.jpg	Medium_e13_stereo_44KHz.wav
3	111	4	4	2	I	2	0	629	1	poli_8sides 11_whiteLine3.jpg	Medium_e01_cut1_stereo_44KHz.wav
3	112	1	2	0	C	2	1	735	1	poli_8sides 18_whiteLine3.jpg	Medium_e13_stereo_44KHz.wav
3	113	4	3	2	I	2	0	527	0	poli_8sides 11_whiteLine3.jpg	Medium_e26_stereo_44KHz.wav
3	114	1	2	0	C	2	1	687	1	poli_8sides 18_whiteLine3.jpg	Medium_e13_stereo_44KHz.wav
3	115	3	4	2	I	2	0	704	0	poli_8sides 15_whiteLine3.jpg	Medium_e01_cut1_stereo_44KHz.wav
3	116	2	2	1	C	1	1	962	1	poli_8sides 16_whiteLine3.jpg	Medium_e13_stereo_44KHz.wav
3	117	4	4	2	I	2	0	608	0	poli_8sides 11_whiteLine3.jpg	Medium_e01_cut1_stereo_44KHz.wav
3	118	2	1	0	C	2	1	980	1	poli_8sides 16_whiteLine3.jpg	Medium_e21_stereo_44KHz.wav
3	119	1	1	1	C	1	1	767	1	poli_8sides 18_whiteLine3.jpg	Medium_e21_stereo_44KHz.wav
3	120	3	3	2	I	2	0	754	1	poli_8sides 15_whiteLine3.jpg	Medium_e26_stereo_44KHz.wav
3	121	1	2	0	C	2	1	972	1	poli_8sides 18_whiteLine3.jpg	Medium_e13_stereo_44KHz.wav
3	122	4	3	2	I	2	0	635	1	poli_8sides 11_whiteLine3.jpg	Medium_e26_stereo_44KHz.wav
3	123	3	3	2	I	2	0	661	1	poli_8sides 15_whiteLine3.jpg	Medium_e26_stereo_44KHz.wav
3	124	2	2	1	C	1	1	923	1	poli_8sides 16_whiteLine3.jpg	Medium_e13_stereo_44KHz.wav
3	125	3	4	2	I	2	0	658	0	poli_8sides 15_whiteLine3.jpg	Medium_e01_cut1_stereo_44KHz.wav
3	126	4	4	2	I	2	0	695	1	poli_8sides 11_whiteLine3.jpg	Medium_e01_cut1_stereo_44KHz.wav
3	127	1	1	1	C	1	1	954	1	poli_8sides 18_whiteLine3.jpg	Medium_e21_stereo_44KHz.wav
3	128	2	1	0	C	2	1	1105	1	poli_8sides 16_whiteLine3.jpg	Medium_e21_stereo_44KHz.wav
3	129	3	4	2	I	2	0	724	0	poli_8sides 15_whiteLine3.jpg	Medium_e01_cut1_stereo_44KHz.wav
3	130	2	2	1	C	1	1	1066	1	poli_8sides 16_whiteLine3.jpg	Medium_e13_stereo_44KHz.wav
3	131	1	2	0	C	2	1	823	1	poli_8sides 18_whiteLine3.jpg	Medium_e13_stereo_44KHz.wav
3	132	4	3	2	I	2	0	735	1	poli_8sides 11_whiteLine3.jpg	Medium_e26_stereo_44KHz.wav
3	133	1	1	1	C	1	1	982	1	poli_8sides 18_whiteLine3.jpg	Medium_e21_stereo_44KHz.wav
3	134	4	4	2	I	2	0	697	1	poli_8sides 11_whiteLine3.jpg	Medium_e01_cut1_stereo_44KHz.wav
3	135	3	3	2	I	2	0	651	0	poli_8sides 15_whiteLine3.jpg	Medium_e26_stereo_44KHz.wav
3	136	2	1	0	C	2	1	866	1	poli_8sides 16_whiteLine3.jpg	Medium_e21_stereo_44KHz.wav
3	137	3	3	2	I	1	0	890	1	poli_8sides 15_whiteLine3.jpg	Medium_e26_stereo_44KHz.wav
3	138	4	3	2	I	2	0	690	1	poli_8sides 11_whiteLine3.jpg	Medium_e26_stereo_44KHz.wav
3	139	2	2	1	C	1	1	968	1	poli_8sides 16_whiteLine3.jpg	Medium_e13_stereo_44KHz.wav
3	140	1	1	1	C	1	1	913	1	poli_8sides 18_whiteLine3.jpg	Medium_e21_stereo_44KHz.wav
3	141	2	1	0	C	2	1	1012	1	poli_8sides 16_whiteLine3.jpg	Medium_e21_stereo_44KHz.wav
3	142	3	4	2	I	2	0	737	0	poli_8sides 15_whiteLine3.jpg	Medium_e01_cut1_stereo_44KHz.wav
3	143	4	4	2	I	2	0	437	1	poli_8sides 11_whiteLine3.jpg	Medium_e01_cut1_stereo_44KHz.wav
3	144	1	2	0	C	2	1	655	1	poli_8sides 18_whiteLine3.jpg	Medium_e13_stereo_44KHz.wav
3	145	4	4	2	I	2	0	679	1	poli_8sides 11_whiteLine3.jpg	Medium_e01_cut1_stereo_44KHz.wav
3	146	2	1	0	C	1	0	995	0	poli_8sides 16_whiteLine3.jpg	Medium_e21_stereo_44KHz.wav
3	147	3	4	2	I	2	0	735	1	poli_8sides 15_whiteLine3.jpg	Medium_e01_cut1_stereo_44KHz.wav
3	148	1	2	0	C	2	1	660	1	poli_8sides 18_whiteLine3.jpg	Medium_e13_stereo_44KHz.wav
3	149	4	3	2	I	2	0	684	0	poli_8sides 11_whiteLine3.jpg	Medium_e26_stereo_44KHz.wav
3	150	2	2	1	C	1	1	982	1	poli_8sides 16_whiteLine3.jpg	Medium_e13_stereo_44KHz.wav
3	151	3	3	2	I	2	0	692	1	poli_8sides 15_whiteLine3.jpg	Medium_e26_stereo_44KHz.wav
3	152	1	1	1	C	1	1	861	1	poli_8sides 18_whiteLine3.jpg	Medium_e21_stereo_44KHz.wav
3	153	4	4	2	I	1	0	834	0	poli_8sides 11_whiteLine3.jpg	Medium_e01_cut1_stereo_44KHz.wav
3	154	3	4	2	I	2	0	576	1	poli_8sides 15_whiteLine3.jpg	Medium_e01_cut1_stereo_44KHz.wav
3	155	2	2	1	C	1	1	894	1	poli_8sides 16_whiteLine3.jpg	Medium_e13_stereo_44KHz.wav
3	156	1	1	1	C	1	1	765	1	poli_8sides 18_whiteLine3.jpg	Medium_e21_stereo_44KHz.wav
3	157	3	3	2	I	2	0	674	1	poli_8sides 15_whiteLine3.jpg	Medium_e26_stereo_44KHz.wav
3	158	2	1	0	C	2	1	1101	1	poli_8sides 16_whiteLine3.jpg	Medium_e21_stereo_44KHz.wav
3	159	4	3	2	I	1	0	872	0	poli_8sides 11_whiteLine3.jpg	Medium_e26_stereo_44KHz.wav
3	160	1	2	0	C	2	1	822	1	poli_8sides 18_whiteLine3.jpg	Medium_e13_stereo_44KHz.wav
3	161	2	1	0	C	2	1	715	1	poli_8sides 16_whiteLine3.jpg	Medium_e21_stereo_44KHz.wav
3	162	4	3	2	I	2	0	773	1	poli_8sides 11_whiteLine3.jpg	Medium_e26_stereo_44KHz.wav
3	163	3	4	2	I	2	0	792	1	poli_8sides 15_whiteLine3.jpg	Medium_e01_cut1_stereo_44KHz.wav
3	164	1	1	1	C	1	1	898	1	poli_8sides 18_whiteLine3.jpg	Medium_e21_stereo_44KHz.wav
3	165	3	3	2	I	2	0	571	0	poli_8sides 15_whiteLine3.jpg	Medium_e26_stereo_44KHz.wav
3	166	2	2	1	C	1	1	1143	1	poli_8sides 16_whiteLine3.jpg	Medium_e13_stereo_44KHz.wav
3	167	1	2	0	C	2	1	829	1	poli_8sides 18_whiteLine3.jpg	Medium_e13_stereo_44KHz.wav
3	168	4	4	2	I	2	0	681	0	poli_8sides 11_whiteLine3.jpg	Medium_e01_cut1_stereo_44KHz.wav
3	169	2	2	1	C	1	1	831	1	poli_8sides 16_whiteLine3.jpg	Medium_e13_stereo_44KHz.wav
3	170	4	4	2	I	2	0	625	1	poli_8sides 11_whiteLine3.jpg	Medium_e01_cut1_stereo_44KHz.wav
3	171	1	2	0	C	2	1	685	1	poli_8sides 18_whiteLine3.jpg	Medium_e13_stereo_44KHz.wav
3	172	3	3	2	I	2	0	644	0	poli_8sides 15_whiteLine3.jpg	Medium_e26_stereo_44KHz.wav
3	173	4	3	2	I	2	0	640	0	poli_8sides 11_whiteLine3.jpg	Medium_e26_stereo_44KHz.wav
3	174	1	1	1	C	1	1	780	1	poli_8sides 18_whiteLine3.jpg	Medium_e21_stereo_44KHz.wav
3	175	3	4	2	I	2	0	677	1	poli_8sides 15_whiteLine3.jpg	Medium_e01_cut1_stereo_44KHz.wav
3	176	2	1	0	C	2	1	933	1	poli_8sides 16_whiteLine3.jpg	Medium_e21_stereo_44KHz.wav
3	177	3	4	2	I	2	0	607	1	poli_8sides 15_whiteLine3.jpg	Medium_e01_cut1_stereo_44KHz.wav
3	178	1	1	1	C	1	1	896	1	poli_8sides 18_whiteLine3.jpg	Medium_e21_stereo_44KHz.wav
3	179	2	2	1	C	1	1	1001	1	poli_8sides 16_whiteLine3.jpg	Medium_e13_stereo_44KHz.wav
3	180	4	4	2	I	2	0	575	1	poli_8sides 11_whiteLine3.jpg	Medium_e01_cut1_stereo_44KHz.wav
3	181	3	3	2	I	2	0	734	0	poli_8sides 15_whiteLine3.jpg	Medium_e26_stereo_44KHz.wav
3	182	4	3	2	I	2	0	1045	1	poli_8sides 11_whiteLine3.jpg	Medium_e26_stereo_44KHz.wav
3	183	2	1	0	C	2	1	766	1	poli_8sides 16_whiteLine3.jpg	Medium_e21_stereo_44KHz.wav
3	184	1	2	0	C	2	1	779	1	poli_8sides 18_whiteLine3.jpg	Medium_e13_stereo_44KHz.wav
3	185	3	3	2	I	2	0	571	0	poli_8sides 15_whiteLine3.jpg	Medium_e26_stereo_44KHz.wav
3	186	2	2	1	C	1	1	789	1	poli_8sides 16_whiteLine3.jpg	Medium_e13_stereo_44KHz.wav
3	187	1	1	1	C	1	1	682	1	poli_8sides 18_whiteLine3.jpg	Medium_e21_stereo_44KHz.wav
3	188	4	3	2	I	2	0	639	0	poli_8sides 11_whiteLine3.jpg	Medium_e26_stereo_44KHz.wav
3	189	2	1	0	C	2	1	819	1	poli_8sides 16_whiteLine3.jpg	Medium_e21_stereo_44KHz.wav
3	190	4	4	2	I	2	0	604	1	poli_8sides 11_whiteLine3.jpg	Medium_e01_cut1_stereo_44KHz.wav
3	191	3	4	2	I	2	0	503	0	poli_8sides 15_whiteLine3.jpg	Medium_e01_cut1_stereo_44KHz.wav
3	192	1	2	0	C	2	1	624	1	poli_8sides 18_whiteLine3.jpg	Medium_e13_stereo_44KHz.wav
3	193	2	2	1	C	1	1	861	1	poli_8sides 16_whiteLine3.jpg	Medium_e13_stereo_44KHz.wav
3	194	1	1	1	C	1	1	831	1	poli_8sides 18_whiteLine3.jpg	Medium_e21_stereo_44KHz.wav
3	195	3	4	2	I	2	0	583	1	poli_8sides 15_whiteLine3.jpg	Medium_e01_cut1_stereo_44KHz.wav
3	196	4	4	2	I	2	0	629	1	poli_8sides 11_whiteLine3.jpg	Medium_e01_cut1_stereo_44KHz.wav
3	197	3	3	2	I	2	0	642	1	poli_8sides 15_whiteLine3.jpg	Medium_e26_stereo_44KHz.wav
3	198	2	1	0	C	2	1	1011	1	poli_8sides 16_whiteLine3.jpg	Medium_e21_stereo_44KHz.wav
3	199	4	3	2	I	2	0	690	0	poli_8sides 11_whiteLine3.jpg	Medium_e26_stereo_44KHz.wav
3	200	1	2	0	C	2	1	1194	1	poli_8sides 18_whiteLine3.jpg	Medium_e13_stereo_44KHz.wav
4	1	4	4	2	I	2	0	1040	0	poli_8sides 7_whiteLine3.jpg	MediumLong_e17_cut2_stereo_44KHz.wav
4	2	2	1	0	C	2	1	509	1	poli_8sides 8_whiteLine3.jpg	MediumLong_e04_stereo_44KHz.wav
4	3	3	3	2	I	1	0	566	0	poli_8sides 1_whiteLine3.jpg	MediumLong_e19_stereo_44KHz.wav
4	4	1	1	1	C	2	0	597	0	poli_8sides 3_whiteLine3.jpg	MediumLong_e04_stereo_44KHz.wav
4	5	3	4	2	I	2	0	672	0	poli_8sides 1_whiteLine3.jpg	MediumLong_e17_cut2_stereo_44KHz.wav
4	6	1	2	0	C	2	1	780	1	poli_8sides 3_whiteLine3.jpg	MediumLong_b10_cut2_L_stereo_44KHz.wav
4	7	4	3	2	I	2	0	640	1	poli_8sides 7_whiteLine3.jpg	MediumLong_e19_stereo_44KHz.wav
4	8	2	2	1	C	2	0	665	0	poli_8sides 8_whiteLine3.jpg	MediumLong_b10_cut2_L_stereo_44KHz.wav
4	9	4	3	2	I	2	0	682	0	poli_8sides 7_whiteLine3.jpg	MediumLong_e19_stereo_44KHz.wav
4	10	3	3	2	I	2	0	633	1	poli_8sides 1_whiteLine3.jpg	MediumLong_e19_stereo_44KHz.wav
4	11	1	2	0	C	2	1	807	1	poli_8sides 3_whiteLine3.jpg	MediumLong_b10_cut2_L_stereo_44KHz.wav
4	12	2	2	1	C	1	1	808	1	poli_8sides 8_whiteLine3.jpg	MediumLong_b10_cut2_L_stereo_44KHz.wav
4	13	3	4	2	I	1	0	899	1	poli_8sides 1_whiteLine3.jpg	MediumLong_e17_cut2_stereo_44KHz.wav
4	14	4	4	2	I	2	0	638	1	poli_8sides 7_whiteLine3.jpg	MediumLong_e17_cut2_stereo_44KHz.wav
4	15	2	1	0	C	2	1	680	1	poli_8sides 8_whiteLine3.jpg	MediumLong_e04_stereo_44KHz.wav
4	16	1	1	1	C	1	1	709	1	poli_8sides 3_whiteLine3.jpg	MediumLong_e04_stereo_44KHz.wav
4	17	2	1	0	C	1	0	603	0	poli_8sides 8_whiteLine3.jpg	MediumLong_e04_stereo_44KHz.wav
4	18	4	3	2	I	2	0	601	0	poli_8sides 7_whiteLine3.jpg	MediumLong_e19_stereo_44KHz.wav
4	19	3	3	2	I	2	0	747	1	poli_8sides 1_whiteLine3.jpg	MediumLong_e19_stereo_44KHz.wav
4	20	1	1	1	C	2	0	850	0	poli_8sides 3_whiteLine3.jpg	MediumLong_e04_stereo_44KHz.wav
4	21	3	4	2	I	1	0	571	1	poli_8sides 1_whiteLine3.jpg	MediumLong_e17_cut2_stereo_44KHz.wav
4	22	1	2	0	C	2	1	782	1	poli_8sides 3_whiteLine3.jpg	MediumLong_b10_cut2_L_stereo_44KHz.wav
4	23	2	2	1	C	1	1	632	1	poli_8sides 8_whiteLine3.jpg	MediumLong_b10_cut2_L_stereo_44KHz.wav
4	24	4	4	2	I	2	0	695	0	poli_8sides 7_whiteLine3.jpg	MediumLong_e17_cut2_stereo_44KHz.wav
4	25	3	3	2	I	1	0	662	0	poli_8sides 1_whiteLine3.jpg	MediumLong_e19_stereo_44KHz.wav
4	26	2	2	1	C	2	0	656	0	poli_8sides 8_whiteLine3.jpg	MediumLong_b10_cut2_L_stereo_44KHz.wav
4	27	1	1	1	C	2	0	695	0	poli_8sides 3_whiteLine3.jpg	MediumLong_e04_stereo_44KHz.wav
4	28	4	3	2	I	2	0	700	0	poli_8sides 7_whiteLine3.jpg	MediumLong_e19_stereo_44KHz.wav
4	29	3	4	2	I	1	0	837	0	poli_8sides 1_whiteLine3.jpg	MediumLong_e17_cut2_stereo_44KHz.wav
4	30	2	1	0	C	2	1	567	1	poli_8sides 8_whiteLine3.jpg	MediumLong_e04_stereo_44KHz.wav
4	31	1	2	0	C	2	1	608	1	poli_8sides 3_whiteLine3.jpg	MediumLong_b10_cut2_L_stereo_44KHz.wav
4	32	4	4	2	I	1	0	563	1	poli_8sides 7_whiteLine3.jpg	MediumLong_e17_cut2_stereo_44KHz.wav
4	33	2	2	1	C	2	0	682	0	poli_8sides 8_whiteLine3.jpg	MediumLong_b10_cut2_L_stereo_44KHz.wav
4	34	4	4	2	I	2	0	716	1	poli_8sides 7_whiteLine3.jpg	MediumLong_e17_cut2_stereo_44KHz.wav
4	35	1	1	1	C	1	1	767	1	poli_8sides 3_whiteLine3.jpg	MediumLong_e04_stereo_44KHz.wav
4	36	3	3	2	I	2	0	755	1	poli_8sides 1_whiteLine3.jpg	MediumLong_e19_stereo_44KHz.wav
4	37	2	1	0	C	2	1	787	1	poli_8sides 8_whiteLine3.jpg	MediumLong_e04_stereo_44KHz.wav
4	38	4	3	2	I	1	0	559	0	poli_8sides 7_whiteLine3.jpg	MediumLong_e19_stereo_44KHz.wav
4	39	1	2	0	C	2	1	556	1	poli_8sides 3_whiteLine3.jpg	MediumLong_b10_cut2_L_stereo_44KHz.wav
4	40	3	4	2	I	2	0	644	1	poli_8sides 1_whiteLine3.jpg	MediumLong_e17_cut2_stereo_44KHz.wav
4	41	2	2	1	C	2	0	567	0	poli_8sides 8_whiteLine3.jpg	MediumLong_b10_cut2_L_stereo_44KHz.wav
4	42	3	4	2	I	2	0	551	1	poli_8sides 1_whiteLine3.jpg	MediumLong_e17_cut2_stereo_44KHz.wav
4	43	4	4	2	I	1	0	638	1	poli_8sides 7_whiteLine3.jpg	MediumLong_e17_cut2_stereo_44KHz.wav
4	44	1	1	1	C	1	1	762	1	poli_8sides 3_whiteLine3.jpg	MediumLong_e04_stereo_44KHz.wav
4	45	2	1	0	C	2	1	441	1	poli_8sides 8_whiteLine3.jpg	MediumLong_e04_stereo_44KHz.wav
4	46	4	3	2	I	1	0	525	1	poli_8sides 7_whiteLine3.jpg	MediumLong_e19_stereo_44KHz.wav
4	47	1	2	0	C	2	1	596	1	poli_8sides 3_whiteLine3.jpg	MediumLong_b10_cut2_L_stereo_44KHz.wav
4	48	3	3	2	I	1	0	501	0	poli_8sides 1_whiteLine3.jpg	MediumLong_e19_stereo_44KHz.wav
4	49	1	1	1	C	1	1	812	1	poli_8sides 3_whiteLine3.jpg	MediumLong_e04_stereo_44KHz.wav
4	50	4	4	2	I	2	0	633	1	poli_8sides 7_whiteLine3.jpg	MediumLong_e17_cut2_stereo_44KHz.wav
4	51	3	3	2	I	2	0	576	1	poli_8sides 1_whiteLine3.jpg	MediumLong_e19_stereo_44KHz.wav
4	52	2	2	1	C	1	1	925	1	poli_8sides 8_whiteLine3.jpg	MediumLong_b10_cut2_L_stereo_44KHz.wav
4	53	3	4	2	I	2	0	707	0	poli_8sides 1_whiteLine3.jpg	MediumLong_e17_cut2_stereo_44KHz.wav
4	54	1	2	0	C	2	1	746	1	poli_8sides 3_whiteLine3.jpg	MediumLong_b10_cut2_L_stereo_44KHz.wav
4	55	4	3	2	I	1	0	596	0	poli_8sides 7_whiteLine3.jpg	MediumLong_e19_stereo_44KHz.wav
4	56	2	1	0	C	2	1	803	1	poli_8sides 8_whiteLine3.jpg	MediumLong_e04_stereo_44KHz.wav
4	57	1	2	0	C	2	1	525	1	poli_8sides 3_whiteLine3.jpg	MediumLong_b10_cut2_L_stereo_44KHz.wav
4	58	4	3	2	I	2	0	664	0	poli_8sides 7_whiteLine3.jpg	MediumLong_e19_stereo_44KHz.wav
4	59	2	1	0	C	2	1	769	1	poli_8sides 8_whiteLine3.jpg	MediumLong_e04_stereo_44KHz.wav
4	60	3	4	2	I	1	0	613	0	poli_8sides 1_whiteLine3.jpg	MediumLong_e17_cut2_stereo_44KHz.wav
4	61	2	2	1	C	1	1	809	1	poli_8sides 8_whiteLine3.jpg	MediumLong_b10_cut2_L_stereo_44KHz.wav
4	62	3	3	2	I	2	0	599	0	poli_8sides 1_whiteLine3.jpg	MediumLong_e19_stereo_44KHz.wav
4	63	4	4	2	I	1	0	532	1	poli_8sides 7_whiteLine3.jpg	MediumLong_e17_cut2_stereo_44KHz.wav
4	64	1	1	1	C	1	1	724	1	poli_8sides 3_whiteLine3.jpg	MediumLong_e04_stereo_44KHz.wav
4	65	2	2	1	C	2	0	595	0	poli_8sides 8_whiteLine3.jpg	MediumLong_b10_cut2_L_stereo_44KHz.wav
4	66	4	3	2	I	1	0	663	0	poli_8sides 7_whiteLine3.jpg	MediumLong_e19_stereo_44KHz.wav
4	67	1	1	1	C	1	1	723	1	poli_8sides 3_whiteLine3.jpg	MediumLong_e04_stereo_44KHz.wav
4	68	3	3	2	I	2	0	649	0	poli_8sides 1_whiteLine3.jpg	MediumLong_e19_stereo_44KHz.wav
4	69	1	2	0	C	2	1	817	1	poli_8sides 3_whiteLine3.jpg	MediumLong_b10_cut2_L_stereo_44KHz.wav
4	70	4	4	2	I	2	0	679	1	poli_8sides 7_whiteLine3.jpg	MediumLong_e17_cut2_stereo_44KHz.wav
4	71	3	4	2	I	2	0	602	1	poli_8sides 1_whiteLine3.jpg	MediumLong_e17_cut2_stereo_44KHz.wav
4	72	2	1	0	C	2	1	649	1	poli_8sides 8_whiteLine3.jpg	MediumLong_e04_stereo_44KHz.wav
4	73	4	3	2	I	2	0	781	1	poli_8sides 7_whiteLine3.jpg	MediumLong_e19_stereo_44KHz.wav
4	74	3	3	2	I	2	0	688	0	poli_8sides 1_whiteLine3.jpg	MediumLong_e19_stereo_44KHz.wav
4	75	2	2	1	C	1	1	773	1	poli_8sides 8_whiteLine3.jpg	MediumLong_b10_cut2_L_stereo_44KHz.wav
4	76	1	2	0	C	2	1	651	1	poli_8sides 3_whiteLine3.jpg	MediumLong_b10_cut2_L_stereo_44KHz.wav
4	77	4	4	2	I	2	0	653	0	poli_8sides 7_whiteLine3.jpg	MediumLong_e17_cut2_stereo_44KHz.wav
4	78	2	1	0	C	2	1	791	1	poli_8sides 8_whiteLine3.jpg	MediumLong_e04_stereo_44KHz.wav
4	79	3	4	2	I	1	0	705	1	poli_8sides 1_whiteLine3.jpg	MediumLong_e17_cut2_stereo_44KHz.wav
4	80	1	1	1	C	1	1	705	1	poli_8sides 3_whiteLine3.jpg	MediumLong_e04_stereo_44KHz.wav
4	81	3	3	2	I	2	0	580	1	poli_8sides 1_whiteLine3.jpg	MediumLong_e19_stereo_44KHz.wav
4	82	4	4	2	I	2	0	687	1	poli_8sides 7_whiteLine3.jpg	MediumLong_e17_cut2_stereo_44KHz.wav
4	83	2	2	1	C	1	1	722	1	poli_8sides 8_whiteLine3.jpg	MediumLong_b10_cut2_L_stereo_44KHz.wav
4	84	1	2	0	C	2	1	529	1	poli_8sides 3_whiteLine3.jpg	MediumLong_b10_cut2_L_stereo_44KHz.wav
4	85	4	3	2	I	2	0	619	1	poli_8sides 7_whiteLine3.jpg	MediumLong_e19_stereo_44KHz.wav
4	86	2	1	0	C	2	1	713	1	poli_8sides 8_whiteLine3.jpg	MediumLong_e04_stereo_44KHz.wav
4	87	1	1	1	C	1	1	593	1	poli_8sides 3_whiteLine3.jpg	MediumLong_e04_stereo_44KHz.wav
4	88	3	4	2	I	2	0	578	1	poli_8sides 1_whiteLine3.jpg	MediumLong_e17_cut2_stereo_44KHz.wav
4	89	1	1	1	C	1	1	691	1	poli_8sides 3_whiteLine3.jpg	MediumLong_e04_stereo_44KHz.wav
4	90	4	3	2	I	2	0	641	1	poli_8sides 7_whiteLine3.jpg	MediumLong_e19_stereo_44KHz.wav
4	91	3	4	2	I	2	0	693	1	poli_8sides 1_whiteLine3.jpg	MediumLong_e17_cut2_stereo_44KHz.wav
4	92	2	2	1	C	1	1	697	1	poli_8sides 8_whiteLine3.jpg	MediumLong_b10_cut2_L_stereo_44KHz.wav
4	93	4	4	2	I	2	0	632	1	poli_8sides 7_whiteLine3.jpg	MediumLong_e17_cut2_stereo_44KHz.wav
4	94	1	2	0	C	2	1	748	1	poli_8sides 3_whiteLine3.jpg	MediumLong_b10_cut2_L_stereo_44KHz.wav
4	95	3	3	2	I	2	0	621	0	poli_8sides 1_whiteLine3.jpg	MediumLong_e19_stereo_44KHz.wav
4	96	2	1	0	C	2	1	894	1	poli_8sides 8_whiteLine3.jpg	MediumLong_e04_stereo_44KHz.wav
4	97	4	4	2	I	2	0	673	0	poli_8sides 7_whiteLine3.jpg	MediumLong_e17_cut2_stereo_44KHz.wav
4	98	1	1	1	C	1	1	697	1	poli_8sides 3_whiteLine3.jpg	MediumLong_e04_stereo_44KHz.wav
4	99	3	4	2	I	2	0	527	0	poli_8sides 1_whiteLine3.jpg	MediumLong_e17_cut2_stereo_44KHz.wav
4	100	2	1	0	C	2	1	836	1	poli_8sides 8_whiteLine3.jpg	MediumLong_e04_stereo_44KHz.wav
4	101	1	2	0	C	2	1	685	1	poli_8sides 3_whiteLine3.jpg	MediumLong_b10_cut2_L_stereo_44KHz.wav
4	102	3	3	2	I	2	0	428	0	poli_8sides 1_whiteLine3.jpg	MediumLong_e19_stereo_44KHz.wav
4	103	4	3	2	I	2	0	720	1	poli_8sides 7_whiteLine3.jpg	MediumLong_e19_stereo_44KHz.wav
4	104	2	2	1	C	1	1	920	1	poli_8sides 8_whiteLine3.jpg	MediumLong_b10_cut2_L_stereo_44KHz.wav
4	105	3	4	2	I	2	0	585	1	poli_8sides 1_whiteLine3.jpg	MediumLong_e17_cut2_stereo_44KHz.wav
4	106	1	1	1	C	1	1	740	1	poli_8sides 3_whiteLine3.jpg	MediumLong_e04_stereo_44KHz.wav
4	107	2	2	1	C	1	1	1008	1	poli_8sides 8_whiteLine3.jpg	MediumLong_b10_cut2_L_stereo_44KHz.wav
4	108	4	3	2	I	2	0	606	1	poli_8sides 7_whiteLine3.jpg	MediumLong_e19_stereo_44KHz.wav
4	109	2	1	0	C	2	1	1028	1	poli_8sides 8_whiteLine3.jpg	MediumLong_e04_stereo_44KHz.wav
4	110	4	4	2	I	2	0	565	0	poli_8sides 7_whiteLine3.jpg	MediumLong_e17_cut2_stereo_44KHz.wav
4	111	3	3	2	I	2	0	907	0	poli_8sides 1_whiteLine3.jpg	MediumLong_e19_stereo_44KHz.wav
4	112	1	2	0	C	2	1	904	1	poli_8sides 3_whiteLine3.jpg	MediumLong_b10_cut2_L_stereo_44KHz.wav
4	113	3	4	2	I	2	0	623	0	poli_8sides 1_whiteLine3.jpg	MediumLong_e17_cut2_stereo_44KHz.wav
4	114	1	2	0	C	2	1	966	1	poli_8sides 3_whiteLine3.jpg	MediumLong_b10_cut2_L_stereo_44KHz.wav
4	115	4	3	2	I	2	0	559	0	poli_8sides 7_whiteLine3.jpg	MediumLong_e19_stereo_44KHz.wav
4	116	2	2	1	C	1	1	912	1	poli_8sides 8_whiteLine3.jpg	MediumLong_b10_cut2_L_stereo_44KHz.wav
4	117	4	4	2	I	2	0	457	1	poli_8sides 7_whiteLine3.jpg	MediumLong_e17_cut2_stereo_44KHz.wav
4	118	3	3	2	I	2	0	640	0	poli_8sides 1_whiteLine3.jpg	MediumLong_e19_stereo_44KHz.wav
4	119	1	1	1	C	1	1	911	1	poli_8sides 3_whiteLine3.jpg	MediumLong_e04_stereo_44KHz.wav
4	120	2	1	0	C	2	1	1327	1	poli_8sides 8_whiteLine3.jpg	MediumLong_e04_stereo_44KHz.wav
4	121	3	4	2	I	2	0	984	1	poli_8sides 1_whiteLine3.jpg	MediumLong_e17_cut2_stereo_44KHz.wav
4	122	2	1	0	C	2	1	919	1	poli_8sides 8_whiteLine3.jpg	MediumLong_e04_stereo_44KHz.wav
4	123	4	4	2	I	2	0	777	1	poli_8sides 7_whiteLine3.jpg	MediumLong_e17_cut2_stereo_44KHz.wav
4	124	1	2	0	C	2	1	881	1	poli_8sides 3_whiteLine3.jpg	MediumLong_b10_cut2_L_stereo_44KHz.wav
4	125	3	3	2	I	2	0	612	0	poli_8sides 1_whiteLine3.jpg	MediumLong_e19_stereo_44KHz.wav
4	126	2	2	1	C	1	1	888	1	poli_8sides 8_whiteLine3.jpg	MediumLong_b10_cut2_L_stereo_44KHz.wav
4	127	1	1	1	C	1	1	824	1	poli_8sides 3_whiteLine3.jpg	MediumLong_e04_stereo_44KHz.wav
4	128	4	3	2	I	1	0	781	1	poli_8sides 7_whiteLine3.jpg	MediumLong_e19_stereo_44KHz.wav
4	129	2	2	1	C	1	1	1186	1	poli_8sides 8_whiteLine3.jpg	MediumLong_b10_cut2_L_stereo_44KHz.wav
4	130	4	4	2	I	2	0	917	1	poli_8sides 7_whiteLine3.jpg	MediumLong_e17_cut2_stereo_44KHz.wav
4	131	3	4	2	I	2	0	717	0	poli_8sides 1_whiteLine3.jpg	MediumLong_e17_cut2_stereo_44KHz.wav
4	132	1	2	0	C	2	1	862	1	poli_8sides 3_whiteLine3.jpg	MediumLong_b10_cut2_L_stereo_44KHz.wav
4	133	3	3	2	I	1	0	764	0	poli_8sides 1_whiteLine3.jpg	MediumLong_e19_stereo_44KHz.wav
4	134	2	1	0	C	2	1	1195	1	poli_8sides 8_whiteLine3.jpg	MediumLong_e04_stereo_44KHz.wav
4	135	4	3	2	I	2	0	736	1	poli_8sides 7_whiteLine3.jpg	MediumLong_e19_stereo_44KHz.wav
4	136	1	1	1	C	1	1	883	1	poli_8sides 3_whiteLine3.jpg	MediumLong_e04_stereo_44KHz.wav
4	137	4	3	2	I	2	0	570	0	poli_8sides 7_whiteLine3.jpg	MediumLong_e19_stereo_44KHz.wav
4	138	1	1	1	C	1	1	1022	1	poli_8sides 3_whiteLine3.jpg	MediumLong_e04_stereo_44KHz.wav
4	139	2	1	0	C	2	1	737	1	poli_8sides 8_whiteLine3.jpg	MediumLong_e04_stereo_44KHz.wav
4	140	3	3	2	I	2	0	658	1	poli_8sides 1_whiteLine3.jpg	MediumLong_e19_stereo_44KHz.wav
4	141	4	4	2	I	2	0	685	0	poli_8sides 7_whiteLine3.jpg	MediumLong_e17_cut2_stereo_44KHz.wav
4	142	3	4	2	I	2	0	533	0	poli_8sides 1_whiteLine3.jpg	MediumLong_e17_cut2_stereo_44KHz.wav
4	143	1	2	0	C	2	1	938	1	poli_8sides 3_whiteLine3.jpg	MediumLong_b10_cut2_L_stereo_44KHz.wav
4	144	2	2	1	C	1	1	721	1	poli_8sides 8_whiteLine3.jpg	MediumLong_b10_cut2_L_stereo_44KHz.wav
4	145	4	4	2	I	2	0	705	1	poli_8sides 7_whiteLine3.jpg	MediumLong_e17_cut2_stereo_44KHz.wav
4	146	1	1	1	C	1	1	952	1	poli_8sides 3_whiteLine3.jpg	MediumLong_e04_stereo_44KHz.wav
4	147	2	1	0	C	2	1	892	1	poli_8sides 8_whiteLine3.jpg	MediumLong_e04_stereo_44KHz.wav
4	148	3	4	2	I	2	0	795	1	poli_8sides 1_whiteLine3.jpg	MediumLong_e17_cut2_stereo_44KHz.wav
4	149	1	2	0	C	2	1	731	1	poli_8sides 3_whiteLine3.jpg	MediumLong_b10_cut2_L_stereo_44KHz.wav
4	150	4	3	2	I	2	0	637	0	poli_8sides 7_whiteLine3.jpg	MediumLong_e19_stereo_44KHz.wav
4	151	3	3	2	I	2	0	576	1	poli_8sides 1_whiteLine3.jpg	MediumLong_e19_stereo_44KHz.wav
4	152	2	2	1	C	2	0	1046	0	poli_8sides 8_whiteLine3.jpg	MediumLong_b10_cut2_L_stereo_44KHz.wav
4	153	4	3	2	I	2	0	1106	0	poli_8sides 7_whiteLine3.jpg	MediumLong_e19_stereo_44KHz.wav
4	154	3	4	2	I	2	0	601	0	poli_8sides 1_whiteLine3.jpg	MediumLong_e17_cut2_stereo_44KHz.wav
4	155	2	1	0	C	2	1	642	1	poli_8sides 8_whiteLine3.jpg	MediumLong_e04_stereo_44KHz.wav
4	156	1	1	1	C	1	1	675	1	poli_8sides 3_whiteLine3.jpg	MediumLong_e04_stereo_44KHz.wav
4	157	4	4	2	I	2	0	615	0	poli_8sides 7_whiteLine3.jpg	MediumLong_e17_cut2_stereo_44KHz.wav
4	158	1	2	0	C	2	1	676	1	poli_8sides 3_whiteLine3.jpg	MediumLong_b10_cut2_L_stereo_44KHz.wav
4	159	3	3	2	I	2	0	532	1	poli_8sides 1_whiteLine3.jpg	MediumLong_e19_stereo_44KHz.wav
4	160	2	2	1	C	1	1	807	1	poli_8sides 8_whiteLine3.jpg	MediumLong_b10_cut2_L_stereo_44KHz.wav
4	161	4	3	2	I	2	0	530	0	poli_8sides 7_whiteLine3.jpg	MediumLong_e19_stereo_44KHz.wav
4	162	3	4	2	I	2	0	551	1	poli_8sides 1_whiteLine3.jpg	MediumLong_e17_cut2_stereo_44KHz.wav
4	163	2	1	0	C	2	1	1025	1	poli_8sides 8_whiteLine3.jpg	MediumLong_e04_stereo_44KHz.wav
4	164	1	2	0	C	2	1	719	1	poli_8sides 3_whiteLine3.jpg	MediumLong_b10_cut2_L_stereo_44KHz.wav
4	165	3	3	2	I	2	0	753	0	poli_8sides 1_whiteLine3.jpg	MediumLong_e19_stereo_44KHz.wav
4	166	1	1	1	C	1	1	860	1	poli_8sides 3_whiteLine3.jpg	MediumLong_e04_stereo_44KHz.wav
4	167	2	2	1	C	1	1	1119	1	poli_8sides 8_whiteLine3.jpg	MediumLong_b10_cut2_L_stereo_44KHz.wav
4	168	4	4	2	I	1	0	720	0	poli_8sides 7_whiteLine3.jpg	MediumLong_e17_cut2_stereo_44KHz.wav
4	169	1	2	0	C	2	1	854	1	poli_8sides 3_whiteLine3.jpg	MediumLong_b10_cut2_L_stereo_44KHz.wav
4	170	4	4	2	I	1	0	572	0	poli_8sides 7_whiteLine3.jpg	MediumLong_e17_cut2_stereo_44KHz.wav
4	171	3	3	2	I	2	0	569	1	poli_8sides 1_whiteLine3.jpg	MediumLong_e19_stereo_44KHz.wav
4	172	2	1	0	C	2	1	1011	1	poli_8sides 8_whiteLine3.jpg	MediumLong_e04_stereo_44KHz.wav
4	173	1	1	1	C	1	1	604	1	poli_8sides 3_whiteLine3.jpg	MediumLong_e04_stereo_44KHz.wav
4	174	2	2	1	C	1	1	1193	1	poli_8sides 8_whiteLine3.jpg	MediumLong_b10_cut2_L_stereo_44KHz.wav
4	175	3	4	2	I	2	0	525	1	poli_8sides 1_whiteLine3.jpg	MediumLong_e17_cut2_stereo_44KHz.wav
4	176	4	3	2	I	2	0	718	0	poli_8sides 7_whiteLine3.jpg	MediumLong_e19_stereo_44KHz.wav
4	177	1	2	0	C	2	1	638	1	poli_8sides 3_whiteLine3.jpg	MediumLong_b10_cut2_L_stereo_44KHz.wav
4	178	3	3	2	I	2	0	596	0	poli_8sides 1_whiteLine3.jpg	MediumLong_e19_stereo_44KHz.wav
4	179	4	4	2	I	2	0	606	0	poli_8sides 7_whiteLine3.jpg	MediumLong_e17_cut2_stereo_44KHz.wav
4	180	2	2	1	C	1	1	701	1	poli_8sides 8_whiteLine3.jpg	MediumLong_b10_cut2_L_stereo_44KHz.wav
4	181	3	4	2	I	2	0	581	1	poli_8sides 1_whiteLine3.jpg	MediumLong_e17_cut2_stereo_44KHz.wav
4	182	2	1	0	C	2	1	920	1	poli_8sides 8_whiteLine3.jpg	MediumLong_e04_stereo_44KHz.wav
4	183	4	3	2	I	2	0	604	0	poli_8sides 7_whiteLine3.jpg	MediumLong_e19_stereo_44KHz.wav
4	184	1	1	1	C	1	1	989	1	poli_8sides 3_whiteLine3.jpg	MediumLong_e04_stereo_44KHz.wav
4	185	2	1	0	C	2	1	767	1	poli_8sides 8_whiteLine3.jpg	MediumLong_e04_stereo_44KHz.wav
4	186	4	3	2	I	2	0	549	1	poli_8sides 7_whiteLine3.jpg	MediumLong_e19_stereo_44KHz.wav
4	187	3	4	2	I	2	0	584	0	poli_8sides 1_whiteLine3.jpg	MediumLong_e17_cut2_stereo_44KHz.wav
4	188	1	1	1	C	1	1	760	1	poli_8sides 3_whiteLine3.jpg	MediumLong_e04_stereo_44KHz.wav
4	189	4	4	2	I	2	0	601	0	poli_8sides 7_whiteLine3.jpg	MediumLong_e17_cut2_stereo_44KHz.wav
4	190	2	2	1	C	1	1	794	1	poli_8sides 8_whiteLine3.jpg	MediumLong_b10_cut2_L_stereo_44KHz.wav
4	191	1	2	0	C	2	1	583	1	poli_8sides 3_whiteLine3.jpg	MediumLong_b10_cut2_L_stereo_44KHz.wav
4	192	3	3	2	I	2	0	560	0	poli_8sides 1_whiteLine3.jpg	MediumLong_e19_stereo_44KHz.wav
4	193	1	2	0	C	2	1	740	1	poli_8sides 3_whiteLine3.jpg	MediumLong_b10_cut2_L_stereo_44KHz.wav
4	194	3	4	2	I	2	0	473	1	poli_8sides 1_whiteLine3.jpg	MediumLong_e17_cut2_stereo_44KHz.wav
4	195	4	4	2	I	2	0	493	1	poli_8sides 7_whiteLine3.jpg	MediumLong_e17_cut2_stereo_44KHz.wav
4	196	2	1	0	C	2	1	796	1	poli_8sides 8_whiteLine3.jpg	MediumLong_e04_stereo_44KHz.wav
4	197	3	3	2	I	2	0	718	1	poli_8sides 1_whiteLine3.jpg	MediumLong_e19_stereo_44KHz.wav
4	198	2	2	1	C	1	1	775	1	poli_8sides 8_whiteLine3.jpg	MediumLong_b10_cut2_L_stereo_44KHz.wav
4	199	1	1	1	C	1	1	788	1	poli_8sides 3_whiteLine3.jpg	MediumLong_e04_stereo_44KHz.wav
4	200	4	3	2	I	2	0	584	1	poli_8sides 7_whiteLine3.jpg	MediumLong_e19_stereo_44KHz.wav
