block	trial	Vstim	Astim	match	C/I	resp	result	RT	fb	V-file	A-file
RL

0	1	1	1	1	C	0	0	0	0	poli_8sides 24_whiteLine3.jpg	Practice1_b27_cut1_stereo_44KHz.wav
0	2	2	3	1	C	2	0	796	0	poli_8sides 23_whiteLine3.jpg	Practice3_b26_cut1_stereo_44KHz.wav
0	3	2	4	0	C	2	1	865	1	poli_8sides 23_whiteLine3.jpg	Practice2_b27_cut2_stereo_44KHz.wav
0	4	1	2	0	C	2	1	794	1	poli_8sides 24_whiteLine3.jpg	Practice4_b26_stereo_44KHz.wav
0	5	2	4	0	C	2	1	796	1	poli_8sides 23_whiteLine3.jpg	Practice2_b27_cut2_stereo_44KHz.wav
0	6	1	1	1	C	1	1	646	1	poli_8sides 24_whiteLine3.jpg	Practice1_b27_cut1_stereo_44KHz.wav
0	7	2	3	1	C	1	1	890	1	poli_8sides 23_whiteLine3.jpg	Practice3_b26_cut1_stereo_44KHz.wav
0	8	1	2	0	C	2	1	469	1	poli_8sides 24_whiteLine3.jpg	Practice4_b26_stereo_44KHz.wav
0	9	2	3	1	C	1	1	805	1	poli_8sides 23_whiteLine3.jpg	Practice3_b26_cut1_stereo_44KHz.wav
0	10	1	1	1	C	2	0	736	0	poli_8sides 24_whiteLine3.jpg	Practice1_b27_cut1_stereo_44KHz.wav
0	11	1	2	0	C	2	1	835	1	poli_8sides 24_whiteLine3.jpg	Practice4_b26_stereo_44KHz.wav
0	12	2	4	0	C	2	1	776	1	poli_8sides 23_whiteLine3.jpg	Practice2_b27_cut2_stereo_44KHz.wav
0	13	2	3	1	C	1	1	857	1	poli_8sides 23_whiteLine3.jpg	Practice3_b26_cut1_stereo_44KHz.wav
0	14	1	2	0	C	2	1	606	1	poli_8sides 24_whiteLine3.jpg	Practice4_b26_stereo_44KHz.wav
0	15	1	1	1	C	1	1	1284	1	poli_8sides 24_whiteLine3.jpg	Practice1_b27_cut1_stereo_44KHz.wav
0	16	2	4	0	C	2	1	637	1	poli_8sides 23_whiteLine3.jpg	Practice2_b27_cut2_stereo_44KHz.wav
0	17	1	1	1	C	1	1	726	1	poli_8sides 24_whiteLine3.jpg	Practice1_b27_cut1_stereo_44KHz.wav
0	18	2	3	1	C	1	1	1091	1	poli_8sides 23_whiteLine3.jpg	Practice3_b26_cut1_stereo_44KHz.wav
0	19	2	4	0	C	2	1	1023	1	poli_8sides 23_whiteLine3.jpg	Practice2_b27_cut2_stereo_44KHz.wav
0	20	1	2	0	C	1	0	908	0	poli_8sides 24_whiteLine3.jpg	Practice4_b26_stereo_44KHz.wav
0	21	2	3	1	C	1	1	910	1	poli_8sides 23_whiteLine3.jpg	Practice3_b26_cut1_stereo_44KHz.wav
0	22	1	1	1	C	1	1	859	1	poli_8sides 24_whiteLine3.jpg	Practice1_b27_cut1_stereo_44KHz.wav
0	23	2	4	0	C	0	0	0	0	poli_8sides 23_whiteLine3.jpg	Practice2_b27_cut2_stereo_44KHz.wav
0	24	1	2	0	C	2	1	825	1	poli_8sides 24_whiteLine3.jpg	Practice4_b26_stereo_44KHz.wav
0	25	2	4	0	C	2	1	674	1	poli_8sides 23_whiteLine3.jpg	Practice2_b27_cut2_stereo_44KHz.wav
0	26	1	1	1	C	1	1	1044	1	poli_8sides 24_whiteLine3.jpg	Practice1_b27_cut1_stereo_44KHz.wav
0	27	1	2	0	C	1	0	1460	0	poli_8sides 24_whiteLine3.jpg	Practice4_b26_stereo_44KHz.wav
0	28	2	3	1	C	1	1	1067	1	poli_8sides 23_whiteLine3.jpg	Practice3_b26_cut1_stereo_44KHz.wav
0	29	2	4	0	C	2	1	615	1	poli_8sides 23_whiteLine3.jpg	Practice2_b27_cut2_stereo_44KHz.wav
0	30	1	1	1	C	1	1	876	1	poli_8sides 24_whiteLine3.jpg	Practice1_b27_cut1_stereo_44KHz.wav
avg_resp = 832
1	1	4	4	2	I	2	0	1183	0	poli_8sides 16_whiteLine3.jpg	MediumLong_b10_cut2_L_stereo_44KHz.wav
1	2	1	2	0	C	2	1	831	1	poli_8sides 6_whiteLine3.jpg	Medium_e26_stereo_44KHz.wav
1	3	2	1	0	C	2	1	868	1	poli_8sides 15_whiteLine3.jpg	MediumLong_e17_cut2_stereo_44KHz.wav
1	4	3	4	2	I	1	0	963	1	poli_8sides 7_whiteLine3.jpg	MediumLong_b10_cut2_L_stereo_44KHz.wav
1	5	2	2	1	C	2	0	1091	0	poli_8sides 15_whiteLine3.jpg	Medium_e26_stereo_44KHz.wav
1	6	3	3	2	I	2	0	779	0	poli_8sides 7_whiteLine3.jpg	Medium_e13_stereo_44KHz.wav
1	7	4	3	2	I	2	0	744	1	poli_8sides 16_whiteLine3.jpg	Medium_e13_stereo_44KHz.wav
1	8	1	1	1	C	2	0	927	0	poli_8sides 6_whiteLine3.jpg	MediumLong_e17_cut2_stereo_44KHz.wav
1	9	4	3	2	I	2	0	459	0	poli_8sides 16_whiteLine3.jpg	Medium_e13_stereo_44KHz.wav
1	10	3	3	2	I	2	0	714	0	poli_8sides 7_whiteLine3.jpg	Medium_e13_stereo_44KHz.wav
1	11	2	2	1	C	1	1	1128	1	poli_8sides 15_whiteLine3.jpg	Medium_e26_stereo_44KHz.wav
1	12	1	1	1	C	2	0	890	0	poli_8sides 6_whiteLine3.jpg	MediumLong_e17_cut2_stereo_44KHz.wav
1	13	3	4	2	I	2	0	744	0	poli_8sides 7_whiteLine3.jpg	MediumLong_b10_cut2_L_stereo_44KHz.wav
1	14	1	2	0	C	2	1	977	1	poli_8sides 6_whiteLine3.jpg	Medium_e26_stereo_44KHz.wav
1	15	2	1	0	C	2	1	1269	1	poli_8sides 15_whiteLine3.jpg	MediumLong_e17_cut2_stereo_44KHz.wav
1	16	4	4	2	I	2	0	1071	0	poli_8sides 16_whiteLine3.jpg	MediumLong_b10_cut2_L_stereo_44KHz.wav
1	17	2	2	1	C	2	0	950	0	poli_8sides 15_whiteLine3.jpg	Medium_e26_stereo_44KHz.wav
1	18	1	2	0	C	2	1	944	1	poli_8sides 6_whiteLine3.jpg	Medium_e26_stereo_44KHz.wav
1	19	4	4	2	I	2	0	1093	0	poli_8sides 16_whiteLine3.jpg	MediumLong_b10_cut2_L_stereo_44KHz.wav
1	20	3	3	2	I	2	0	786	0	poli_8sides 7_whiteLine3.jpg	Medium_e13_stereo_44KHz.wav
1	21	1	1	1	C	2	0	715	0	poli_8sides 6_whiteLine3.jpg	MediumLong_e17_cut2_stereo_44KHz.wav
1	22	3	4	2	I	1	0	769	0	poli_8sides 7_whiteLine3.jpg	MediumLong_b10_cut2_L_stereo_44KHz.wav
1	23	2	1	0	C	2	1	950	1	poli_8sides 15_whiteLine3.jpg	MediumLong_e17_cut2_stereo_44KHz.wav
1	24	4	3	2	I	2	0	1227	0	poli_8sides 16_whiteLine3.jpg	Medium_e13_stereo_44KHz.wav
1	25	2	1	0	C	2	1	765	1	poli_8sides 15_whiteLine3.jpg	MediumLong_e17_cut2_stereo_44KHz.wav
1	26	4	4	2	I	1	0	1101	1	poli_8sides 16_whiteLine3.jpg	MediumLong_b10_cut2_L_stereo_44KHz.wav
1	27	3	4	2	I	1	0	1205	1	poli_8sides 7_whiteLine3.jpg	MediumLong_b10_cut2_L_stereo_44KHz.wav
1	28	1	1	1	C	1	1	1230	1	poli_8sides 6_whiteLine3.jpg	MediumLong_e17_cut2_stereo_44KHz.wav
1	29	2	2	1	C	1	1	936	1	poli_8sides 15_whiteLine3.jpg	Medium_e26_stereo_44KHz.wav
1	30	4	3	2	I	2	0	1223	1	poli_8sides 16_whiteLine3.jpg	Medium_e13_stereo_44KHz.wav
1	31	3	3	2	I	1	0	857	0	poli_8sides 7_whiteLine3.jpg	Medium_e13_stereo_44KHz.wav
1	32	1	2	0	C	2	1	1073	1	poli_8sides 6_whiteLine3.jpg	Medium_e26_stereo_44KHz.wav
1	33	4	4	2	I	1	0	915	0	poli_8sides 16_whiteLine3.jpg	MediumLong_b10_cut2_L_stereo_44KHz.wav
1	34	2	2	1	C	2	0	1808	0	poli_8sides 15_whiteLine3.jpg	Medium_e26_stereo_44KHz.wav
1	35	3	3	2	I	2	0	1011	1	poli_8sides 7_whiteLine3.jpg	Medium_e13_stereo_44KHz.wav
1	36	1	1	1	C	1	1	1146	1	poli_8sides 6_whiteLine3.jpg	MediumLong_e17_cut2_stereo_44KHz.wav
1	37	2	1	0	C	2	1	997	1	poli_8sides 15_whiteLine3.jpg	MediumLong_e17_cut2_stereo_44KHz.wav
1	38	1	2	0	C	2	1	857	1	poli_8sides 6_whiteLine3.jpg	Medium_e26_stereo_44KHz.wav
1	39	4	3	2	I	2	0	932	1	poli_8sides 16_whiteLine3.jpg	Medium_e13_stereo_44KHz.wav
1	40	3	4	2	I	1	0	817	1	poli_8sides 7_whiteLine3.jpg	MediumLong_b10_cut2_L_stereo_44KHz.wav
1	41	4	3	2	I	2	0	902	1	poli_8sides 16_whiteLine3.jpg	Medium_e13_stereo_44KHz.wav
1	42	2	1	0	C	2	1	910	1	poli_8sides 15_whiteLine3.jpg	MediumLong_e17_cut2_stereo_44KHz.wav
1	43	3	3	2	I	2	0	1184	0	poli_8sides 7_whiteLine3.jpg	Medium_e13_stereo_44KHz.wav
1	44	1	1	1	C	1	1	990	1	poli_8sides 6_whiteLine3.jpg	MediumLong_e17_cut2_stereo_44KHz.wav
1	45	2	2	1	C	2	0	1136	0	poli_8sides 15_whiteLine3.jpg	Medium_e26_stereo_44KHz.wav
1	46	4	4	2	I	2	0	983	0	poli_8sides 16_whiteLine3.jpg	MediumLong_b10_cut2_L_stereo_44KHz.wav
1	47	3	4	2	I	2	0	923	0	poli_8sides 7_whiteLine3.jpg	MediumLong_b10_cut2_L_stereo_44KHz.wav
1	48	1	2	0	C	1	0	1703	0	poli_8sides 6_whiteLine3.jpg	Medium_e26_stereo_44KHz.wav
1	49	3	3	2	I	2	0	593	0	poli_8sides 7_whiteLine3.jpg	Medium_e13_stereo_44KHz.wav
1	50	2	1	0	C	2	1	710	1	poli_8sides 15_whiteLine3.jpg	MediumLong_e17_cut2_stereo_44KHz.wav
1	51	4	4	2	I	1	0	776	1	poli_8sides 16_whiteLine3.jpg	MediumLong_b10_cut2_L_stereo_44KHz.wav
1	52	1	2	0	C	2	1	660	1	poli_8sides 6_whiteLine3.jpg	Medium_e26_stereo_44KHz.wav
1	53	3	4	2	I	2	0	870	0	poli_8sides 7_whiteLine3.jpg	MediumLong_b10_cut2_L_stereo_44KHz.wav
1	54	2	2	1	C	1	1	912	1	poli_8sides 15_whiteLine3.jpg	Medium_e26_stereo_44KHz.wav
1	55	4	3	2	I	2	0	929	0	poli_8sides 16_whiteLine3.jpg	Medium_e13_stereo_44KHz.wav
1	56	1	1	1	C	2	0	724	0	poli_8sides 6_whiteLine3.jpg	MediumLong_e17_cut2_stereo_44KHz.wav
1	57	3	4	2	I	1	0	755	0	poli_8sides 7_whiteLine3.jpg	MediumLong_b10_cut2_L_stereo_44KHz.wav
1	58	4	3	2	I	1	0	910	0	poli_8sides 16_whiteLine3.jpg	Medium_e13_stereo_44KHz.wav
1	59	2	2	1	C	2	0	693	0	poli_8sides 15_whiteLine3.jpg	Medium_e26_stereo_44KHz.wav
1	60	1	2	0	C	1	0	810	0	poli_8sides 6_whiteLine3.jpg	Medium_e26_stereo_44KHz.wav
1	61	2	1	0	C	2	1	982	1	poli_8sides 15_whiteLine3.jpg	MediumLong_e17_cut2_stereo_44KHz.wav
1	62	3	3	2	I	2	0	871	1	poli_8sides 7_whiteLine3.jpg	Medium_e13_stereo_44KHz.wav
1	63	1	1	1	C	1	1	883	1	poli_8sides 6_whiteLine3.jpg	MediumLong_e17_cut2_stereo_44KHz.wav
1	64	4	4	2	I	2	0	933	0	poli_8sides 16_whiteLine3.jpg	MediumLong_b10_cut2_L_stereo_44KHz.wav
1	65	3	4	2	I	2	0	822	0	poli_8sides 7_whiteLine3.jpg	MediumLong_b10_cut2_L_stereo_44KHz.wav
1	66	2	1	0	C	2	1	770	1	poli_8sides 15_whiteLine3.jpg	MediumLong_e17_cut2_stereo_44KHz.wav
1	67	4	4	2	I	1	0	760	1	poli_8sides 16_whiteLine3.jpg	MediumLong_b10_cut2_L_stereo_44KHz.wav
1	68	1	1	1	C	1	1	957	1	poli_8sides 6_whiteLine3.jpg	MediumLong_e17_cut2_stereo_44KHz.wav
1	69	4	3	2	I	2	0	1319	0	poli_8sides 16_whiteLine3.jpg	Medium_e13_stereo_44KHz.wav
1	70	1	2	0	C	2	1	944	1	poli_8sides 6_whiteLine3.jpg	Medium_e26_stereo_44KHz.wav
1	71	2	2	1	C	1	1	788	1	poli_8sides 15_whiteLine3.jpg	Medium_e26_stereo_44KHz.wav
1	72	3	3	2	I	2	0	785	1	poli_8sides 7_whiteLine3.jpg	Medium_e13_stereo_44KHz.wav
1	73	4	3	2	I	2	0	900	1	poli_8sides 16_whiteLine3.jpg	Medium_e13_stereo_44KHz.wav
1	74	1	2	0	C	1	0	997	0	poli_8sides 6_whiteLine3.jpg	Medium_e26_stereo_44KHz.wav
1	75	3	4	2	I	2	0	845	1	poli_8sides 7_whiteLine3.jpg	MediumLong_b10_cut2_L_stereo_44KHz.wav
1	76	2	2	1	C	1	1	1227	1	poli_8sides 15_whiteLine3.jpg	Medium_e26_stereo_44KHz.wav
1	77	3	3	2	I	1	0	1141	1	poli_8sides 7_whiteLine3.jpg	Medium_e13_stereo_44KHz.wav
1	78	4	4	2	I	1	0	1407	0	poli_8sides 16_whiteLine3.jpg	MediumLong_b10_cut2_L_stereo_44KHz.wav
1	79	1	1	1	C	1	1	1508	1	poli_8sides 6_whiteLine3.jpg	MediumLong_e17_cut2_stereo_44KHz.wav
1	80	2	1	0	C	2	1	783	1	poli_8sides 15_whiteLine3.jpg	MediumLong_e17_cut2_stereo_44KHz.wav
1	81	3	4	2	I	2	0	1141	0	poli_8sides 7_whiteLine3.jpg	MediumLong_b10_cut2_L_stereo_44KHz.wav
1	82	2	1	0	C	1	0	1139	0	poli_8sides 15_whiteLine3.jpg	MediumLong_e17_cut2_stereo_44KHz.wav
1	83	4	4	2	I	2	0	804	1	poli_8sides 16_whiteLine3.jpg	MediumLong_b10_cut2_L_stereo_44KHz.wav
1	84	1	2	0	C	1	0	840	0	poli_8sides 6_whiteLine3.jpg	Medium_e26_stereo_44KHz.wav
1	85	4	3	2	I	2	0	963	0	poli_8sides 16_whiteLine3.jpg	Medium_e13_stereo_44KHz.wav
1	86	2	2	1	C	2	0	971	0	poli_8sides 15_whiteLine3.jpg	Medium_e26_stereo_44KHz.wav
1	87	3	3	2	I	2	0	1055	0	poli_8sides 7_whiteLine3.jpg	Medium_e13_stereo_44KHz.wav
1	88	1	1	1	C	1	1	955	1	poli_8sides 6_whiteLine3.jpg	MediumLong_e17_cut2_stereo_44KHz.wav
1	89	3	4	2	I	2	0	971	1	poli_8sides 7_whiteLine3.jpg	MediumLong_b10_cut2_L_stereo_44KHz.wav
1	90	4	3	2	I	2	0	831	0	poli_8sides 16_whiteLine3.jpg	Medium_e13_stereo_44KHz.wav
1	91	1	1	1	C	2	0	817	0	poli_8sides 6_whiteLine3.jpg	MediumLong_e17_cut2_stereo_44KHz.wav
1	92	2	2	1	C	1	1	1017	1	poli_8sides 15_whiteLine3.jpg	Medium_e26_stereo_44KHz.wav
1	93	1	2	0	C	2	1	1189	1	poli_8sides 6_whiteLine3.jpg	Medium_e26_stereo_44KHz.wav
1	94	4	4	2	I	1	0	821	0	poli_8sides 16_whiteLine3.jpg	MediumLong_b10_cut2_L_stereo_44KHz.wav
1	95	3	3	2	I	2	0	641	0	poli_8sides 7_whiteLine3.jpg	Medium_e13_stereo_44KHz.wav
1	96	2	1	0	C	2	1	679	1	poli_8sides 15_whiteLine3.jpg	MediumLong_e17_cut2_stereo_44KHz.wav
1	97	4	4	2	I	2	0	1113	0	poli_8sides 16_whiteLine3.jpg	MediumLong_b10_cut2_L_stereo_44KHz.wav
1	98	2	1	0	C	2	1	815	1	poli_8sides 15_whiteLine3.jpg	MediumLong_e17_cut2_stereo_44KHz.wav
1	99	1	1	1	C	2	0	970	0	poli_8sides 6_whiteLine3.jpg	MediumLong_e17_cut2_stereo_44KHz.wav
1	100	3	3	2	I	2	0	763	0	poli_8sides 7_whiteLine3.jpg	Medium_e13_stereo_44KHz.wav
1	101	4	3	2	I	2	0	761	1	poli_8sides 16_whiteLine3.jpg	Medium_e13_stereo_44KHz.wav
1	102	3	4	2	I	1	0	939	1	poli_8sides 7_whiteLine3.jpg	MediumLong_b10_cut2_L_stereo_44KHz.wav
1	103	1	2	0	C	2	1	943	1	poli_8sides 6_whiteLine3.jpg	Medium_e26_stereo_44KHz.wav
1	104	2	2	1	C	2	0	1366	0	poli_8sides 15_whiteLine3.jpg	Medium_e26_stereo_44KHz.wav
1	105	1	1	1	C	1	1	1002	1	poli_8sides 6_whiteLine3.jpg	MediumLong_e17_cut2_stereo_44KHz.wav
1	106	2	2	1	C	1	1	1008	1	poli_8sides 15_whiteLine3.jpg	Medium_e26_stereo_44KHz.wav
1	107	4	3	2	I	2	0	648	0	poli_8sides 16_whiteLine3.jpg	Medium_e13_stereo_44KHz.wav
1	108	3	3	2	I	2	0	734	1	poli_8sides 7_whiteLine3.jpg	Medium_e13_stereo_44KHz.wav
1	109	1	2	0	C	1	0	923	0	poli_8sides 6_whiteLine3.jpg	Medium_e26_stereo_44KHz.wav
1	110	3	4	2	I	1	0	1094	0	poli_8sides 7_whiteLine3.jpg	MediumLong_b10_cut2_L_stereo_44KHz.wav
1	111	2	1	0	C	2	1	979	1	poli_8sides 15_whiteLine3.jpg	MediumLong_e17_cut2_stereo_44KHz.wav
1	112	4	4	2	I	1	0	1088	0	poli_8sides 16_whiteLine3.jpg	MediumLong_b10_cut2_L_stereo_44KHz.wav
1	113	2	2	1	C	2	0	752	0	poli_8sides 15_whiteLine3.jpg	Medium_e26_stereo_44KHz.wav
1	114	4	3	2	I	1	0	754	1	poli_8sides 16_whiteLine3.jpg	Medium_e13_stereo_44KHz.wav
1	115	3	4	2	I	2	0	1417	1	poli_8sides 7_whiteLine3.jpg	MediumLong_b10_cut2_L_stereo_44KHz.wav
1	116	1	1	1	C	1	1	1002	1	poli_8sides 6_whiteLine3.jpg	MediumLong_e17_cut2_stereo_44KHz.wav
1	117	3	3	2	I	2	0	758	1	poli_8sides 7_whiteLine3.jpg	Medium_e13_stereo_44KHz.wav
1	118	1	2	0	C	2	1	948	1	poli_8sides 6_whiteLine3.jpg	Medium_e26_stereo_44KHz.wav
1	119	2	1	0	C	2	1	659	1	poli_8sides 15_whiteLine3.jpg	MediumLong_e17_cut2_stereo_44KHz.wav
1	120	4	4	2	I	1	0	1362	1	poli_8sides 16_whiteLine3.jpg	MediumLong_b10_cut2_L_stereo_44KHz.wav
1	121	1	1	1	C	1	1	1100	1	poli_8sides 6_whiteLine3.jpg	MediumLong_e17_cut2_stereo_44KHz.wav
1	122	2	2	1	C	2	0	1143	0	poli_8sides 15_whiteLine3.jpg	Medium_e26_stereo_44KHz.wav
1	123	3	3	2	I	2	0	708	0	poli_8sides 7_whiteLine3.jpg	Medium_e13_stereo_44KHz.wav
1	124	4	4	2	I	1	0	846	0	poli_8sides 16_whiteLine3.jpg	MediumLong_b10_cut2_L_stereo_44KHz.wav
1	125	3	4	2	I	2	0	768	1	poli_8sides 7_whiteLine3.jpg	MediumLong_b10_cut2_L_stereo_44KHz.wav
1	126	2	1	0	C	2	1	677	1	poli_8sides 15_whiteLine3.jpg	MediumLong_e17_cut2_stereo_44KHz.wav
1	127	1	2	0	C	2	1	780	1	poli_8sides 6_whiteLine3.jpg	Medium_e26_stereo_44KHz.wav
1	128	4	3	2	I	2	0	1479	1	poli_8sides 16_whiteLine3.jpg	Medium_e13_stereo_44KHz.wav
1	129	1	1	1	C	2	0	943	0	poli_8sides 6_whiteLine3.jpg	MediumLong_e17_cut2_stereo_44KHz.wav
1	130	3	4	2	I	2	0	829	1	poli_8sides 7_whiteLine3.jpg	MediumLong_b10_cut2_L_stereo_44KHz.wav
1	131	2	1	0	C	2	1	593	1	poli_8sides 15_whiteLine3.jpg	MediumLong_e17_cut2_stereo_44KHz.wav
1	132	4	3	2	I	2	0	1141	1	poli_8sides 16_whiteLine3.jpg	Medium_e13_stereo_44KHz.wav
1	133	2	2	1	C	1	1	858	1	poli_8sides 15_whiteLine3.jpg	Medium_e26_stereo_44KHz.wav
1	134	1	2	0	C	2	1	741	1	poli_8sides 6_whiteLine3.jpg	Medium_e26_stereo_44KHz.wav
1	135	4	4	2	I	1	0	1278	0	poli_8sides 16_whiteLine3.jpg	MediumLong_b10_cut2_L_stereo_44KHz.wav
1	136	3	3	2	I	2	0	696	1	poli_8sides 7_whiteLine3.jpg	Medium_e13_stereo_44KHz.wav
1	137	4	3	2	I	2	0	679	1	poli_8sides 16_whiteLine3.jpg	Medium_e13_stereo_44KHz.wav
1	138	3	3	2	I	2	0	755	1	poli_8sides 7_whiteLine3.jpg	Medium_e13_stereo_44KHz.wav
1	139	1	2	0	C	1	0	908	0	poli_8sides 6_whiteLine3.jpg	Medium_e26_stereo_44KHz.wav
1	140	2	2	1	C	2	0	737	0	poli_8sides 15_whiteLine3.jpg	Medium_e26_stereo_44KHz.wav
1	141	4	4	2	I	2	0	741	0	poli_8sides 16_whiteLine3.jpg	MediumLong_b10_cut2_L_stereo_44KHz.wav
1	142	1	1	1	C	1	1	798	1	poli_8sides 6_whiteLine3.jpg	MediumLong_e17_cut2_stereo_44KHz.wav
1	143	2	1	0	C	2	1	619	1	poli_8sides 15_whiteLine3.jpg	MediumLong_e17_cut2_stereo_44KHz.wav
1	144	3	4	2	I	2	0	783	0	poli_8sides 7_whiteLine3.jpg	MediumLong_b10_cut2_L_stereo_44KHz.wav
1	145	2	2	1	C	2	0	728	0	poli_8sides 15_whiteLine3.jpg	Medium_e26_stereo_44KHz.wav
1	146	3	4	2	I	2	0	850	1	poli_8sides 7_whiteLine3.jpg	MediumLong_b10_cut2_L_stereo_44KHz.wav
1	147	1	2	0	C	1	0	850	0	poli_8sides 6_whiteLine3.jpg	Medium_e26_stereo_44KHz.wav
1	148	4	3	2	I	2	0	887	1	poli_8sides 16_whiteLine3.jpg	Medium_e13_stereo_44KHz.wav
1	149	2	1	0	C	2	1	621	1	poli_8sides 15_whiteLine3.jpg	MediumLong_e17_cut2_stereo_44KHz.wav
1	150	3	3	2	I	2	0	562	0	poli_8sides 7_whiteLine3.jpg	Medium_e13_stereo_44KHz.wav
1	151	1	1	1	C	2	0	1098	0	poli_8sides 6_whiteLine3.jpg	MediumLong_e17_cut2_stereo_44KHz.wav
1	152	4	4	2	I	2	0	608	1	poli_8sides 16_whiteLine3.jpg	MediumLong_b10_cut2_L_stereo_44KHz.wav
1	153	2	1	0	C	2	1	680	1	poli_8sides 15_whiteLine3.jpg	MediumLong_e17_cut2_stereo_44KHz.wav
1	154	3	4	2	I	2	0	629	1	poli_8sides 7_whiteLine3.jpg	MediumLong_b10_cut2_L_stereo_44KHz.wav
1	155	1	1	1	C	2	0	908	0	poli_8sides 6_whiteLine3.jpg	MediumLong_e17_cut2_stereo_44KHz.wav
1	156	4	4	2	I	2	0	730	0	poli_8sides 16_whiteLine3.jpg	MediumLong_b10_cut2_L_stereo_44KHz.wav
1	157	3	3	2	I	1	0	1343	0	poli_8sides 7_whiteLine3.jpg	Medium_e13_stereo_44KHz.wav
1	158	2	2	1	C	2	0	942	0	poli_8sides 15_whiteLine3.jpg	Medium_e26_stereo_44KHz.wav
1	159	1	2	0	C	2	1	836	1	poli_8sides 6_whiteLine3.jpg	Medium_e26_stereo_44KHz.wav
1	160	4	3	2	I	2	0	1144	1	poli_8sides 16_whiteLine3.jpg	Medium_e13_stereo_44KHz.wav
1	161	2	2	1	C	2	0	755	0	poli_8sides 15_whiteLine3.jpg	Medium_e26_stereo_44KHz.wav
1	162	1	1	1	C	2	0	796	0	poli_8sides 6_whiteLine3.jpg	MediumLong_e17_cut2_stereo_44KHz.wav
1	163	4	4	2	I	2	0	643	0	poli_8sides 16_whiteLine3.jpg	MediumLong_b10_cut2_L_stereo_44KHz.wav
1	164	3	4	2	I	2	0	679	1	poli_8sides 7_whiteLine3.jpg	MediumLong_b10_cut2_L_stereo_44KHz.wav
1	165	2	1	0	C	2	1	692	1	poli_8sides 15_whiteLine3.jpg	MediumLong_e17_cut2_stereo_44KHz.wav
1	166	3	3	2	I	1	0	827	1	poli_8sides 7_whiteLine3.jpg	Medium_e13_stereo_44KHz.wav
1	167	4	3	2	I	2	0	693	1	poli_8sides 16_whiteLine3.jpg	Medium_e13_stereo_44KHz.wav
1	168	1	2	0	C	2	1	733	1	poli_8sides 6_whiteLine3.jpg	Medium_e26_stereo_44KHz.wav
1	169	2	2	1	C	2	0	704	0	poli_8sides 15_whiteLine3.jpg	Medium_e26_stereo_44KHz.wav
1	170	3	3	2	I	2	0	769	1	poli_8sides 7_whiteLine3.jpg	Medium_e13_stereo_44KHz.wav
1	171	1	1	1	C	1	1	1023	1	poli_8sides 6_whiteLine3.jpg	MediumLong_e17_cut2_stereo_44KHz.wav
1	172	4	3	2	I	2	0	716	1	poli_8sides 16_whiteLine3.jpg	Medium_e13_stereo_44KHz.wav
1	173	3	4	2	I	1	0	1314	0	poli_8sides 7_whiteLine3.jpg	MediumLong_b10_cut2_L_stereo_44KHz.wav
1	174	1	2	0	C	2	1	943	1	poli_8sides 6_whiteLine3.jpg	Medium_e26_stereo_44KHz.wav
1	175	4	4	2	I	1	0	790	1	poli_8sides 16_whiteLine3.jpg	MediumLong_b10_cut2_L_stereo_44KHz.wav
1	176	2	1	0	C	2	1	1482	1	poli_8sides 15_whiteLine3.jpg	MediumLong_e17_cut2_stereo_44KHz.wav
1	177	3	4	2	I	2	0	799	1	poli_8sides 7_whiteLine3.jpg	MediumLong_b10_cut2_L_stereo_44KHz.wav
1	178	2	2	1	C	2	0	722	0	poli_8sides 15_whiteLine3.jpg	Medium_e26_stereo_44KHz.wav
1	179	4	3	2	I	2	0	635	1	poli_8sides 16_whiteLine3.jpg	Medium_e13_stereo_44KHz.wav
1	180	1	2	0	C	2	1	1166	1	poli_8sides 6_whiteLine3.jpg	Medium_e26_stereo_44KHz.wav
1	181	4	4	2	I	2	0	672	1	poli_8sides 16_whiteLine3.jpg	MediumLong_b10_cut2_L_stereo_44KHz.wav
1	182	3	3	2	I	1	0	979	1	poli_8sides 7_whiteLine3.jpg	Medium_e13_stereo_44KHz.wav
1	183	1	1	1	C	2	0	718	0	poli_8sides 6_whiteLine3.jpg	MediumLong_e17_cut2_stereo_44KHz.wav
1	184	2	1	0	C	2	1	746	1	poli_8sides 15_whiteLine3.jpg	MediumLong_e17_cut2_stereo_44KHz.wav
1	185	1	2	0	C	2	1	1049	1	poli_8sides 6_whiteLine3.jpg	Medium_e26_stereo_44KHz.wav
1	186	4	3	2	I	2	0	785	0	poli_8sides 16_whiteLine3.jpg	Medium_e13_stereo_44KHz.wav
1	187	3	3	2	I	2	0	1184	0	poli_8sides 7_whiteLine3.jpg	Medium_e13_stereo_44KHz.wav
1	188	2	2	1	C	1	1	849	1	poli_8sides 15_whiteLine3.jpg	Medium_e26_stereo_44KHz.wav
1	189	4	4	2	I	2	0	718	0	poli_8sides 16_whiteLine3.jpg	MediumLong_b10_cut2_L_stereo_44KHz.wav
1	190	3	4	2	I	2	0	707	0	poli_8sides 7_whiteLine3.jpg	MediumLong_b10_cut2_L_stereo_44KHz.wav
1	191	2	1	0	C	2	1	706	1	poli_8sides 15_whiteLine3.jpg	MediumLong_e17_cut2_stereo_44KHz.wav
1	192	1	1	1	C	1	1	1224	1	poli_8sides 6_whiteLine3.jpg	MediumLong_e17_cut2_stereo_44KHz.wav
1	193	3	3	2	I	1	0	937	1	poli_8sides 7_whiteLine3.jpg	Medium_e13_stereo_44KHz.wav
1	194	2	2	1	C	2	0	841	0	poli_8sides 15_whiteLine3.jpg	Medium_e26_stereo_44KHz.wav
1	195	1	1	1	C	2	0	1030	0	poli_8sides 6_whiteLine3.jpg	MediumLong_e17_cut2_stereo_44KHz.wav
1	196	4	4	2	I	2	0	770	1	poli_8sides 16_whiteLine3.jpg	MediumLong_b10_cut2_L_stereo_44KHz.wav
1	197	3	4	2	I	1	0	879	0	poli_8sides 7_whiteLine3.jpg	MediumLong_b10_cut2_L_stereo_44KHz.wav
1	198	4	3	2	I	2	0	712	1	poli_8sides 16_whiteLine3.jpg	Medium_e13_stereo_44KHz.wav
1	199	2	1	0	C	2	1	1252	1	poli_8sides 15_whiteLine3.jpg	MediumLong_e17_cut2_stereo_44KHz.wav
1	200	1	2	0	C	2	1	842	1	poli_8sides 6_whiteLine3.jpg	Medium_e26_stereo_44KHz.wav
2	1	1	1	1	C	2	0	955	0	poli_8sides 4_whiteLine3.jpg	Short_b09_cut1_stereo_44KHz.wav
2	2	3	3	2	I	2	0	804	1	poli_8sides 2_whiteLine3.jpg	Short_b20_cut1_stereo_44KHz.wav
2	3	2	1	0	C	1	0	1114	0	poli_8sides 3_whiteLine3.jpg	Short_b09_cut1_stereo_44KHz.wav
2	4	4	3	2	I	2	0	721	1	poli_8sides 12_whiteLine3.jpg	Short_b20_cut1_stereo_44KHz.wav
2	5	3	4	2	I	2	0	1088	0	poli_8sides 2_whiteLine3.jpg	Short_b22_cut1_stereo_44KHz.wav
2	6	2	2	1	C	2	0	598	0	poli_8sides 3_whiteLine3.jpg	Short_b23_cut1_stereo_44KHz.wav
2	7	4	4	2	I	2	0	668	1	poli_8sides 12_whiteLine3.jpg	Short_b22_cut1_stereo_44KHz.wav
2	8	1	2	0	C	2	1	1000	1	poli_8sides 4_whiteLine3.jpg	Short_b23_cut1_stereo_44KHz.wav
2	9	2	2	1	C	1	1	726	1	poli_8sides 3_whiteLine3.jpg	Short_b23_cut1_stereo_44KHz.wav
2	10	1	1	1	C	2	0	740	0	poli_8sides 4_whiteLine3.jpg	Short_b09_cut1_stereo_44KHz.wav
2	11	4	3	2	I	2	0	830	0	poli_8sides 12_whiteLine3.jpg	Short_b20_cut1_stereo_44KHz.wav
2	12	3	3	2	I	2	0	568	1	poli_8sides 2_whiteLine3.jpg	Short_b20_cut1_stereo_44KHz.wav
2	13	4	4	2	I	2	0	846	1	poli_8sides 12_whiteLine3.jpg	Short_b22_cut1_stereo_44KHz.wav
2	14	2	1	0	C	1	0	808	0	poli_8sides 3_whiteLine3.jpg	Short_b09_cut1_stereo_44KHz.wav
2	15	1	2	0	C	2	1	723	1	poli_8sides 4_whiteLine3.jpg	Short_b23_cut1_stereo_44KHz.wav
2	16	3	4	2	I	2	0	1058	0	poli_8sides 2_whiteLine3.jpg	Short_b22_cut1_stereo_44KHz.wav
2	17	4	4	2	I	2	0	681	1	poli_8sides 12_whiteLine3.jpg	Short_b22_cut1_stereo_44KHz.wav
2	18	1	2	0	C	2	1	666	1	poli_8sides 4_whiteLine3.jpg	Short_b23_cut1_stereo_44KHz.wav
2	19	2	2	1	C	2	0	598	0	poli_8sides 3_whiteLine3.jpg	Short_b23_cut1_stereo_44KHz.wav
2	20	3	3	2	I	2	0	657	0	poli_8sides 2_whiteLine3.jpg	Short_b20_cut1_stereo_44KHz.wav
2	21	2	1	0	C	2	1	1155	1	poli_8sides 3_whiteLine3.jpg	Short_b09_cut1_stereo_44KHz.wav
2	22	1	1	1	C	1	1	861	1	poli_8sides 4_whiteLine3.jpg	Short_b09_cut1_stereo_44KHz.wav
2	23	3	4	2	I	1	0	1268	0	poli_8sides 2_whiteLine3.jpg	Short_b22_cut1_stereo_44KHz.wav
2	24	4	3	2	I	2	0	1043	1	poli_8sides 12_whiteLine3.jpg	Short_b20_cut1_stereo_44KHz.wav
2	25	3	4	2	I	1	0	826	0	poli_8sides 2_whiteLine3.jpg	Short_b22_cut1_stereo_44KHz.wav
2	26	4	3	2	I	2	0	599	0	poli_8sides 12_whiteLine3.jpg	Short_b20_cut1_stereo_44KHz.wav
2	27	2	2	1	C	1	1	1115	1	poli_8sides 3_whiteLine3.jpg	Short_b23_cut1_stereo_44KHz.wav
2	28	1	2	0	C	2	1	1027	1	poli_8sides 4_whiteLine3.jpg	Short_b23_cut1_stereo_44KHz.wav
2	29	3	3	2	I	2	0	798	1	poli_8sides 2_whiteLine3.jpg	Short_b20_cut1_stereo_44KHz.wav
2	30	1	1	1	C	2	0	971	0	poli_8sides 4_whiteLine3.jpg	Short_b09_cut1_stereo_44KHz.wav
2	31	4	4	2	I	2	0	639	1	poli_8sides 12_whiteLine3.jpg	Short_b22_cut1_stereo_44KHz.wav
2	32	2	1	0	C	2	1	765	1	poli_8sides 3_whiteLine3.jpg	Short_b09_cut1_stereo_44KHz.wav
2	33	1	1	1	C	1	1	899	1	poli_8sides 4_whiteLine3.jpg	Short_b09_cut1_stereo_44KHz.wav
2	34	3	4	2	I	2	0	701	0	poli_8sides 2_whiteLine3.jpg	Short_b22_cut1_stereo_44KHz.wav
2	35	4	3	2	I	2	0	761	0	poli_8sides 12_whiteLine3.jpg	Short_b20_cut1_stereo_44KHz.wav
2	36	2	2	1	C	1	1	971	1	poli_8sides 3_whiteLine3.jpg	Short_b23_cut1_stereo_44KHz.wav
2	37	4	4	2	I	1	0	1191	0	poli_8sides 12_whiteLine3.jpg	Short_b22_cut1_stereo_44KHz.wav
2	38	1	2	0	C	2	1	624	1	poli_8sides 4_whiteLine3.jpg	Short_b23_cut1_stereo_44KHz.wav
2	39	2	1	0	C	2	1	1308	1	poli_8sides 3_whiteLine3.jpg	Short_b09_cut1_stereo_44KHz.wav
2	40	3	3	2	I	2	0	1031	0	poli_8sides 2_whiteLine3.jpg	Short_b20_cut1_stereo_44KHz.wav
2	41	4	3	2	I	1	0	829	0	poli_8sides 12_whiteLine3.jpg	Short_b20_cut1_stereo_44KHz.wav
2	42	1	1	1	C	2	0	1233	0	poli_8sides 4_whiteLine3.jpg	Short_b09_cut1_stereo_44KHz.wav
2	43	3	3	2	I	2	0	1283	0	poli_8sides 2_whiteLine3.jpg	Short_b20_cut1_stereo_44KHz.wav
2	44	2	1	0	C	2	1	798	1	poli_8sides 3_whiteLine3.jpg	Short_b09_cut1_stereo_44KHz.wav
2	45	3	4	2	I	1	0	1419	1	poli_8sides 2_whiteLine3.jpg	Short_b22_cut1_stereo_44KHz.wav
2	46	4	4	2	I	2	0	675	1	poli_8sides 12_whiteLine3.jpg	Short_b22_cut1_stereo_44KHz.wav
2	47	2	2	1	C	1	1	920	1	poli_8sides 3_whiteLine3.jpg	Short_b23_cut1_stereo_44KHz.wav
2	48	1	2	0	C	2	1	765	1	poli_8sides 4_whiteLine3.jpg	Short_b23_cut1_stereo_44KHz.wav
2	49	4	4	2	I	2	0	659	1	poli_8sides 12_whiteLine3.jpg	Short_b22_cut1_stereo_44KHz.wav
2	50	3	4	2	I	1	0	1136	1	poli_8sides 2_whiteLine3.jpg	Short_b22_cut1_stereo_44KHz.wav
2	51	1	1	1	C	2	0	847	0	poli_8sides 4_whiteLine3.jpg	Short_b09_cut1_stereo_44KHz.wav
2	52	2	1	0	C	2	1	748	1	poli_8sides 3_whiteLine3.jpg	Short_b09_cut1_stereo_44KHz.wav
2	53	3	3	2	I	2	0	854	1	poli_8sides 2_whiteLine3.jpg	Short_b20_cut1_stereo_44KHz.wav
2	54	2	2	1	C	1	1	749	1	poli_8sides 3_whiteLine3.jpg	Short_b23_cut1_stereo_44KHz.wav
2	55	1	2	0	C	1	0	1130	0	poli_8sides 4_whiteLine3.jpg	Short_b23_cut1_stereo_44KHz.wav
2	56	4	3	2	I	1	0	1336	1	poli_8sides 12_whiteLine3.jpg	Short_b20_cut1_stereo_44KHz.wav
2	57	2	2	1	C	1	1	1034	1	poli_8sides 3_whiteLine3.jpg	Short_b23_cut1_stereo_44KHz.wav
2	58	1	1	1	C	1	1	1021	1	poli_8sides 4_whiteLine3.jpg	Short_b09_cut1_stereo_44KHz.wav
2	59	3	3	2	I	2	0	955	1	poli_8sides 2_whiteLine3.jpg	Short_b20_cut1_stereo_44KHz.wav
2	60	4	4	2	I	2	0	431	1	poli_8sides 12_whiteLine3.jpg	Short_b22_cut1_stereo_44KHz.wav
2	61	2	1	0	C	2	1	766	1	poli_8sides 3_whiteLine3.jpg	Short_b09_cut1_stereo_44KHz.wav
2	62	1	2	0	C	2	1	1138	1	poli_8sides 4_whiteLine3.jpg	Short_b23_cut1_stereo_44KHz.wav
2	63	3	4	2	I	1	0	1845	1	poli_8sides 2_whiteLine3.jpg	Short_b22_cut1_stereo_44KHz.wav
2	64	4	3	2	I	1	0	853	0	poli_8sides 12_whiteLine3.jpg	Short_b20_cut1_stereo_44KHz.wav
2	65	1	1	1	C	1	1	928	1	poli_8sides 4_whiteLine3.jpg	Short_b09_cut1_stereo_44KHz.wav
2	66	4	3	2	I	2	0	1182	1	poli_8sides 12_whiteLine3.jpg	Short_b20_cut1_stereo_44KHz.wav
2	67	2	1	0	C	2	1	630	1	poli_8sides 3_whiteLine3.jpg	Short_b09_cut1_stereo_44KHz.wav
2	68	3	3	2	I	2	0	938	0	poli_8sides 2_whiteLine3.jpg	Short_b20_cut1_stereo_44KHz.wav
2	69	4	4	2	I	2	0	1285	0	poli_8sides 12_whiteLine3.jpg	Short_b22_cut1_stereo_44KHz.wav
2	70	2	2	1	C	1	1	862	1	poli_8sides 3_whiteLine3.jpg	Short_b23_cut1_stereo_44KHz.wav
2	71	3	4	2	I	1	0	1540	1	poli_8sides 2_whiteLine3.jpg	Short_b22_cut1_stereo_44KHz.wav
2	72	1	2	0	C	2	1	1208	1	poli_8sides 4_whiteLine3.jpg	Short_b23_cut1_stereo_44KHz.wav
2	73	3	4	2	I	2	0	1171	0	poli_8sides 2_whiteLine3.jpg	Short_b22_cut1_stereo_44KHz.wav
2	74	4	3	2	I	1	0	1314	0	poli_8sides 12_whiteLine3.jpg	Short_b20_cut1_stereo_44KHz.wav
2	75	1	2	0	C	2	1	904	1	poli_8sides 4_whiteLine3.jpg	Short_b23_cut1_stereo_44KHz.wav
2	76	2	2	1	C	1	1	887	1	poli_8sides 3_whiteLine3.jpg	Short_b23_cut1_stereo_44KHz.wav
2	77	4	4	2	I	2	0	1470	0	poli_8sides 12_whiteLine3.jpg	Short_b22_cut1_stereo_44KHz.wav
2	78	1	1	1	C	1	1	1776	1	poli_8sides 4_whiteLine3.jpg	Short_b09_cut1_stereo_44KHz.wav
2	79	3	3	2	I	2	0	869	0	poli_8sides 2_whiteLine3.jpg	Short_b20_cut1_stereo_44KHz.wav
2	80	2	1	0	C	2	1	749	1	poli_8sides 3_whiteLine3.jpg	Short_b09_cut1_stereo_44KHz.wav
2	81	3	3	2	I	2	0	991	0	poli_8sides 2_whiteLine3.jpg	Short_b20_cut1_stereo_44KHz.wav
2	82	1	2	0	C	2	1	1009	1	poli_8sides 4_whiteLine3.jpg	Short_b23_cut1_stereo_44KHz.wav
2	83	2	1	0	C	2	1	963	1	poli_8sides 3_whiteLine3.jpg	Short_b09_cut1_stereo_44KHz.wav
2	84	4	4	2	I	2	0	1058	0	poli_8sides 12_whiteLine3.jpg	Short_b22_cut1_stereo_44KHz.wav
2	85	1	1	1	C	2	0	559	0	poli_8sides 4_whiteLine3.jpg	Short_b09_cut1_stereo_44KHz.wav
2	86	4	3	2	I	2	0	854	0	poli_8sides 12_whiteLine3.jpg	Short_b20_cut1_stereo_44KHz.wav
2	87	3	4	2	I	1	0	809	1	poli_8sides 2_whiteLine3.jpg	Short_b22_cut1_stereo_44KHz.wav
2	88	2	2	1	C	1	1	923	1	poli_8sides 3_whiteLine3.jpg	Short_b23_cut1_stereo_44KHz.wav
2	89	4	4	2	I	1	0	1250	0	poli_8sides 12_whiteLine3.jpg	Short_b22_cut1_stereo_44KHz.wav
2	90	1	2	0	C	2	1	1068	1	poli_8sides 4_whiteLine3.jpg	Short_b23_cut1_stereo_44KHz.wav
2	91	3	4	2	I	1	0	1977	0	poli_8sides 2_whiteLine3.jpg	Short_b22_cut1_stereo_44KHz.wav
2	92	2	1	0	C	2	1	525	1	poli_8sides 3_whiteLine3.jpg	Short_b09_cut1_stereo_44KHz.wav
2	93	3	3	2	I	2	0	666	1	poli_8sides 2_whiteLine3.jpg	Short_b20_cut1_stereo_44KHz.wav
2	94	4	3	2	I	2	0	790	0	poli_8sides 12_whiteLine3.jpg	Short_b20_cut1_stereo_44KHz.wav
2	95	1	1	1	C	2	0	793	0	poli_8sides 4_whiteLine3.jpg	Short_b09_cut1_stereo_44KHz.wav
2	96	2	2	1	C	1	1	724	1	poli_8sides 3_whiteLine3.jpg	Short_b23_cut1_stereo_44KHz.wav
2	97	3	4	2	I	2	0	1467	1	poli_8sides 2_whiteLine3.jpg	Short_b22_cut1_stereo_44KHz.wav
2	98	4	3	2	I	1	0	1244	0	poli_8sides 12_whiteLine3.jpg	Short_b20_cut1_stereo_44KHz.wav
2	99	1	2	0	C	1	0	1062	0	poli_8sides 4_whiteLine3.jpg	Short_b23_cut1_stereo_44KHz.wav
2	100	2	2	1	C	1	1	847	1	poli_8sides 3_whiteLine3.jpg	Short_b23_cut1_stereo_44KHz.wav
2	101	3	3	2	I	2	0	809	0	poli_8sides 2_whiteLine3.jpg	Short_b20_cut1_stereo_44KHz.wav
2	102	4	4	2	I	1	0	1251	0	poli_8sides 12_whiteLine3.jpg	Short_b22_cut1_stereo_44KHz.wav
2	103	2	1	0	C	2	1	638	1	poli_8sides 3_whiteLine3.jpg	Short_b09_cut1_stereo_44KHz.wav
2	104	1	1	1	C	1	1	850	1	poli_8sides 4_whiteLine3.jpg	Short_b09_cut1_stereo_44KHz.wav
2	105	2	1	0	C	2	1	1063	1	poli_8sides 3_whiteLine3.jpg	Short_b09_cut1_stereo_44KHz.wav
2	106	1	2	0	C	2	1	858	1	poli_8sides 4_whiteLine3.jpg	Short_b23_cut1_stereo_44KHz.wav
2	107	4	4	2	I	1	0	1367	1	poli_8sides 12_whiteLine3.jpg	Short_b22_cut1_stereo_44KHz.wav
2	108	3	3	2	I	2	0	1979	1	poli_8sides 2_whiteLine3.jpg	Short_b20_cut1_stereo_44KHz.wav
2	109	2	2	1	C	1	1	828	1	poli_8sides 3_whiteLine3.jpg	Short_b23_cut1_stereo_44KHz.wav
2	110	1	1	1	C	1	1	862	1	poli_8sides 4_whiteLine3.jpg	Short_b09_cut1_stereo_44KHz.wav
2	111	4	3	2	I	2	0	1130	1	poli_8sides 12_whiteLine3.jpg	Short_b20_cut1_stereo_44KHz.wav
2	112	3	4	2	I	1	0	1281	0	poli_8sides 2_whiteLine3.jpg	Short_b22_cut1_stereo_44KHz.wav
2	113	1	2	0	C	1	0	830	0	poli_8sides 4_whiteLine3.jpg	Short_b23_cut1_stereo_44KHz.wav
2	114	4	4	2	I	2	0	920	0	poli_8sides 12_whiteLine3.jpg	Short_b22_cut1_stereo_44KHz.wav
2	115	3	3	2	I	1	0	913	1	poli_8sides 2_whiteLine3.jpg	Short_b20_cut1_stereo_44KHz.wav
2	116	2	1	0	C	2	1	742	1	poli_8sides 3_whiteLine3.jpg	Short_b09_cut1_stereo_44KHz.wav
2	117	4	3	2	I	2	0	853	0	poli_8sides 12_whiteLine3.jpg	Short_b20_cut1_stereo_44KHz.wav
2	118	3	4	2	I	1	0	839	0	poli_8sides 2_whiteLine3.jpg	Short_b22_cut1_stereo_44KHz.wav
2	119	1	1	1	C	1	1	830	1	poli_8sides 4_whiteLine3.jpg	Short_b09_cut1_stereo_44KHz.wav
2	120	2	2	1	C	1	1	792	1	poli_8sides 3_whiteLine3.jpg	Short_b23_cut1_stereo_44KHz.wav
2	121	1	2	0	C	2	1	1638	1	poli_8sides 4_whiteLine3.jpg	Short_b23_cut1_stereo_44KHz.wav
2	122	2	2	1	C	1	1	753	1	poli_8sides 3_whiteLine3.jpg	Short_b23_cut1_stereo_44KHz.wav
2	123	3	3	2	I	1	0	1006	1	poli_8sides 2_whiteLine3.jpg	Short_b20_cut1_stereo_44KHz.wav
2	124	4	4	2	I	2	0	847	1	poli_8sides 12_whiteLine3.jpg	Short_b22_cut1_stereo_44KHz.wav
2	125	2	1	0	C	2	1	902	1	poli_8sides 3_whiteLine3.jpg	Short_b09_cut1_stereo_44KHz.wav
2	126	4	3	2	I	1	0	1091	1	poli_8sides 12_whiteLine3.jpg	Short_b20_cut1_stereo_44KHz.wav
2	127	1	1	1	C	1	1	1764	1	poli_8sides 4_whiteLine3.jpg	Short_b09_cut1_stereo_44KHz.wav
2	128	3	4	2	I	2	0	1165	0	poli_8sides 2_whiteLine3.jpg	Short_b22_cut1_stereo_44KHz.wav
2	129	4	3	2	I	1	0	987	0	poli_8sides 12_whiteLine3.jpg	Short_b20_cut1_stereo_44KHz.wav
2	130	2	2	1	C	1	1	1171	1	poli_8sides 3_whiteLine3.jpg	Short_b23_cut1_stereo_44KHz.wav
2	131	1	1	1	C	1	1	839	1	poli_8sides 4_whiteLine3.jpg	Short_b09_cut1_stereo_44KHz.wav
2	132	3	4	2	I	1	0	1024	0	poli_8sides 2_whiteLine3.jpg	Short_b22_cut1_stereo_44KHz.wav
2	133	2	1	0	C	2	1	1568	1	poli_8sides 3_whiteLine3.jpg	Short_b09_cut1_stereo_44KHz.wav
2	134	4	4	2	I	2	0	1019	0	poli_8sides 12_whiteLine3.jpg	Short_b22_cut1_stereo_44KHz.wav
2	135	1	2	0	C	2	1	1009	1	poli_8sides 4_whiteLine3.jpg	Short_b23_cut1_stereo_44KHz.wav
2	136	3	3	2	I	2	0	775	0	poli_8sides 2_whiteLine3.jpg	Short_b20_cut1_stereo_44KHz.wav
2	137	2	1	0	C	2	1	576	1	poli_8sides 3_whiteLine3.jpg	Short_b09_cut1_stereo_44KHz.wav
2	138	3	4	2	I	2	0	739	0	poli_8sides 2_whiteLine3.jpg	Short_b22_cut1_stereo_44KHz.wav
2	139	4	4	2	I	2	0	725	0	poli_8sides 12_whiteLine3.jpg	Short_b22_cut1_stereo_44KHz.wav
2	140	1	1	1	C	2	0	693	0	poli_8sides 4_whiteLine3.jpg	Short_b09_cut1_stereo_44KHz.wav
2	141	2	2	1	C	1	1	723	1	poli_8sides 3_whiteLine3.jpg	Short_b23_cut1_stereo_44KHz.wav
2	142	1	2	0	C	1	0	680	0	poli_8sides 4_whiteLine3.jpg	Short_b23_cut1_stereo_44KHz.wav
2	143	3	3	2	I	1	0	1108	1	poli_8sides 2_whiteLine3.jpg	Short_b20_cut1_stereo_44KHz.wav
2	144	4	3	2	I	1	0	934	1	poli_8sides 12_whiteLine3.jpg	Short_b20_cut1_stereo_44KHz.wav
2	145	1	1	1	C	1	1	771	1	poli_8sides 4_whiteLine3.jpg	Short_b09_cut1_stereo_44KHz.wav
2	146	2	2	1	C	1	1	653	1	poli_8sides 3_whiteLine3.jpg	Short_b23_cut1_stereo_44KHz.wav
2	147	3	4	2	I	2	0	801	0	poli_8sides 2_whiteLine3.jpg	Short_b22_cut1_stereo_44KHz.wav
2	148	4	4	2	I	2	0	678	1	poli_8sides 12_whiteLine3.jpg	Short_b22_cut1_stereo_44KHz.wav
2	149	3	3	2	I	1	0	730	1	poli_8sides 2_whiteLine3.jpg	Short_b20_cut1_stereo_44KHz.wav
2	150	2	1	0	C	2	1	673	1	poli_8sides 3_whiteLine3.jpg	Short_b09_cut1_stereo_44KHz.wav
2	151	4	3	2	I	1	0	1118	0	poli_8sides 12_whiteLine3.jpg	Short_b20_cut1_stereo_44KHz.wav
2	152	1	2	0	C	2	1	1556	1	poli_8sides 4_whiteLine3.jpg	Short_b23_cut1_stereo_44KHz.wav
2	153	2	1	0	C	2	1	773	1	poli_8sides 3_whiteLine3.jpg	Short_b09_cut1_stereo_44KHz.wav
2	154	4	3	2	I	1	0	1420	1	poli_8sides 12_whiteLine3.jpg	Short_b20_cut1_stereo_44KHz.wav
2	155	1	1	1	C	1	1	1028	1	poli_8sides 4_whiteLine3.jpg	Short_b09_cut1_stereo_44KHz.wav
2	156	3	4	2	I	2	0	1230	0	poli_8sides 2_whiteLine3.jpg	Short_b22_cut1_stereo_44KHz.wav
2	157	4	4	2	I	2	0	1221	0	poli_8sides 12_whiteLine3.jpg	Short_b22_cut1_stereo_44KHz.wav
2	158	3	3	2	I	2	0	790	1	poli_8sides 2_whiteLine3.jpg	Short_b20_cut1_stereo_44KHz.wav
2	159	1	2	0	C	1	0	1522	0	poli_8sides 4_whiteLine3.jpg	Short_b23_cut1_stereo_44KHz.wav
2	160	2	2	1	C	1	1	966	1	poli_8sides 3_whiteLine3.jpg	Short_b23_cut1_stereo_44KHz.wav
2	161	1	1	1	C	1	1	1107	1	poli_8sides 4_whiteLine3.jpg	Short_b09_cut1_stereo_44KHz.wav
2	162	4	4	2	I	2	0	1374	1	poli_8sides 12_whiteLine3.jpg	Short_b22_cut1_stereo_44KHz.wav
2	163	2	2	1	C	1	1	759	1	poli_8sides 3_whiteLine3.jpg	Short_b23_cut1_stereo_44KHz.wav
2	164	3	4	2	I	2	0	821	0	poli_8sides 2_whiteLine3.jpg	Short_b22_cut1_stereo_44KHz.wav
2	165	4	3	2	I	2	0	843	1	poli_8sides 12_whiteLine3.jpg	Short_b20_cut1_stereo_44KHz.wav
2	166	1	2	0	C	2	1	920	1	poli_8sides 4_whiteLine3.jpg	Short_b23_cut1_stereo_44KHz.wav
2	167	2	1	0	C	2	1	846	1	poli_8sides 3_whiteLine3.jpg	Short_b09_cut1_stereo_44KHz.wav
2	168	3	3	2	I	2	0	1226	0	poli_8sides 2_whiteLine3.jpg	Short_b20_cut1_stereo_44KHz.wav
2	169	4	4	2	I	2	0	664	1	poli_8sides 12_whiteLine3.jpg	Short_b22_cut1_stereo_44KHz.wav
2	170	1	2	0	C	2	1	866	1	poli_8sides 4_whiteLine3.jpg	Short_b23_cut1_stereo_44KHz.wav
2	171	2	2	1	C	1	1	862	1	poli_8sides 3_whiteLine3.jpg	Short_b23_cut1_stereo_44KHz.wav
2	172	3	3	2	I	1	0	1620	1	poli_8sides 2_whiteLine3.jpg	Short_b20_cut1_stereo_44KHz.wav
2	173	4	3	2	I	2	0	718	0	poli_8sides 12_whiteLine3.jpg	Short_b20_cut1_stereo_44KHz.wav
2	174	3	4	2	I	2	0	1433	1	poli_8sides 2_whiteLine3.jpg	Short_b22_cut1_stereo_44KHz.wav
2	175	1	1	1	C	1	1	997	1	poli_8sides 4_whiteLine3.jpg	Short_b09_cut1_stereo_44KHz.wav
2	176	2	1	0	C	2	1	730	1	poli_8sides 3_whiteLine3.jpg	Short_b09_cut1_stereo_44KHz.wav
2	177	3	3	2	I	2	0	751	0	poli_8sides 2_whiteLine3.jpg	Short_b20_cut1_stereo_44KHz.wav
2	178	2	1	0	C	2	1	759	1	poli_8sides 3_whiteLine3.jpg	Short_b09_cut1_stereo_44KHz.wav
2	179	4	3	2	I	1	0	826	0	poli_8sides 12_whiteLine3.jpg	Short_b20_cut1_stereo_44KHz.wav
2	180	1	1	1	C	1	1	1073	1	poli_8sides 4_whiteLine3.jpg	Short_b09_cut1_stereo_44KHz.wav
2	181	3	4	2	I	2	0	1360	1	poli_8sides 2_whiteLine3.jpg	Short_b22_cut1_stereo_44KHz.wav
2	182	1	2	0	C	2	1	970	1	poli_8sides 4_whiteLine3.jpg	Short_b23_cut1_stereo_44KHz.wav
2	183	4	4	2	I	2	0	919	1	poli_8sides 12_whiteLine3.jpg	Short_b22_cut1_stereo_44KHz.wav
2	184	2	2	1	C	1	1	711	1	poli_8sides 3_whiteLine3.jpg	Short_b23_cut1_stereo_44KHz.wav
2	185	1	1	1	C	2	0	573	0	poli_8sides 4_whiteLine3.jpg	Short_b09_cut1_stereo_44KHz.wav
2	186	4	3	2	I	2	0	1025	0	poli_8sides 12_whiteLine3.jpg	Short_b20_cut1_stereo_44KHz.wav
2	187	2	1	0	C	2	1	723	1	poli_8sides 3_whiteLine3.jpg	Short_b09_cut1_stereo_44KHz.wav
2	188	3	4	2	I	1	0	1268	1	poli_8sides 2_whiteLine3.jpg	Short_b22_cut1_stereo_44KHz.wav
2	189	4	4	2	I	2	0	683	1	poli_8sides 12_whiteLine3.jpg	Short_b22_cut1_stereo_44KHz.wav
2	190	1	2	0	C	1	0	917	0	poli_8sides 4_whiteLine3.jpg	Short_b23_cut1_stereo_44KHz.wav
2	191	3	3	2	I	2	0	738	1	poli_8sides 2_whiteLine3.jpg	Short_b20_cut1_stereo_44KHz.wav
2	192	2	2	1	C	1	1	787	1	poli_8sides 3_whiteLine3.jpg	Short_b23_cut1_stereo_44KHz.wav
2	193	3	3	2	I	2	0	839	1	poli_8sides 2_whiteLine3.jpg	Short_b20_cut1_stereo_44KHz.wav
2	194	1	2	0	C	2	1	1173	1	poli_8sides 4_whiteLine3.jpg	Short_b23_cut1_stereo_44KHz.wav
2	195	2	2	1	C	1	1	684	1	poli_8sides 3_whiteLine3.jpg	Short_b23_cut1_stereo_44KHz.wav
2	196	4	3	2	I	2	0	796	1	poli_8sides 12_whiteLine3.jpg	Short_b20_cut1_stereo_44KHz.wav
2	197	1	1	1	C	1	1	911	1	poli_8sides 4_whiteLine3.jpg	Short_b09_cut1_stereo_44KHz.wav
2	198	3	4	2	I	2	0	1434	1	poli_8sides 2_whiteLine3.jpg	Short_b22_cut1_stereo_44KHz.wav
2	199	4	4	2	I	2	0	759	1	poli_8sides 12_whiteLine3.jpg	Short_b22_cut1_stereo_44KHz.wav
2	200	2	1	0	C	2	1	762	1	poli_8sides 3_whiteLine3.jpg	Short_b09_cut1_stereo_44KHz.wav
3	1	1	1	1	C	1	1	1094	1	poli_8sides 13_whiteLine3.jpg	MediumLong_e19_stereo_44KHz.wav
3	2	2	2	1	C	2	0	785	0	poli_8sides 18_whiteLine3.jpg	MediumLong_e04_stereo_44KHz.wav
3	3	3	3	2	I	2	0	717	0	poli_8sides 5_whiteLine3.jpg	Medium_e01_cut1_stereo_44KHz.wav
3	4	4	4	2	I	2	0	750	1	poli_8sides 8_whiteLine3.jpg	Medium_e21_stereo_44KHz.wav
3	5	3	4	2	I	1	0	716	1	poli_8sides 5_whiteLine3.jpg	Medium_e21_stereo_44KHz.wav
3	6	4	3	2	I	2	0	867	0	poli_8sides 8_whiteLine3.jpg	Medium_e01_cut1_stereo_44KHz.wav
3	7	2	1	0	C	2	1	673	1	poli_8sides 18_whiteLine3.jpg	MediumLong_e19_stereo_44KHz.wav
3	8	1	2	0	C	2	1	822	1	poli_8sides 13_whiteLine3.jpg	MediumLong_e04_stereo_44KHz.wav
3	9	2	1	0	C	1	0	987	0	poli_8sides 18_whiteLine3.jpg	MediumLong_e19_stereo_44KHz.wav
3	10	4	4	2	I	2	0	818	0	poli_8sides 8_whiteLine3.jpg	Medium_e21_stereo_44KHz.wav
3	11	3	3	2	I	1	0	999	0	poli_8sides 5_whiteLine3.jpg	Medium_e01_cut1_stereo_44KHz.wav
3	12	1	1	1	C	2	0	847	0	poli_8sides 13_whiteLine3.jpg	MediumLong_e19_stereo_44KHz.wav
3	13	4	3	2	I	2	0	974	0	poli_8sides 8_whiteLine3.jpg	Medium_e01_cut1_stereo_44KHz.wav
3	14	1	2	0	C	2	1	982	1	poli_8sides 13_whiteLine3.jpg	MediumLong_e04_stereo_44KHz.wav
3	15	3	4	2	I	1	0	1009	0	poli_8sides 5_whiteLine3.jpg	Medium_e21_stereo_44KHz.wav
3	16	2	2	1	C	1	1	865	1	poli_8sides 18_whiteLine3.jpg	MediumLong_e04_stereo_44KHz.wav
3	17	3	3	2	I	2	0	836	0	poli_8sides 5_whiteLine3.jpg	Medium_e01_cut1_stereo_44KHz.wav
3	18	1	1	1	C	2	0	735	0	poli_8sides 13_whiteLine3.jpg	MediumLong_e19_stereo_44KHz.wav
3	19	4	3	2	I	2	0	877	0	poli_8sides 8_whiteLine3.jpg	Medium_e01_cut1_stereo_44KHz.wav
3	20	2	2	1	C	2	0	661	0	poli_8sides 18_whiteLine3.jpg	MediumLong_e04_stereo_44KHz.wav
3	21	3	4	2	I	1	0	984	1	poli_8sides 5_whiteLine3.jpg	Medium_e21_stereo_44KHz.wav
3	22	4	4	2	I	2	0	569	1	poli_8sides 8_whiteLine3.jpg	Medium_e21_stereo_44KHz.wav
3	23	2	1	0	C	2	1	851	1	poli_8sides 18_whiteLine3.jpg	MediumLong_e19_stereo_44KHz.wav
3	24	1	2	0	C	2	1	849	1	poli_8sides 13_whiteLine3.jpg	MediumLong_e04_stereo_44KHz.wav
3	25	2	2	1	C	2	0	698	0	poli_8sides 18_whiteLine3.jpg	MediumLong_e04_stereo_44KHz.wav
3	26	3	4	2	I	1	0	861	0	poli_8sides 5_whiteLine3.jpg	Medium_e21_stereo_44KHz.wav
3	27	4	4	2	I	1	0	1153	0	poli_8sides 8_whiteLine3.jpg	Medium_e21_stereo_44KHz.wav
3	28	1	2	0	C	2	1	588	1	poli_8sides 13_whiteLine3.jpg	MediumLong_e04_stereo_44KHz.wav
3	29	4	3	2	I	2	0	635	1	poli_8sides 8_whiteLine3.jpg	Medium_e01_cut1_stereo_44KHz.wav
3	30	1	1	1	C	1	1	777	1	poli_8sides 13_whiteLine3.jpg	MediumLong_e19_stereo_44KHz.wav
3	31	3	3	2	I	2	0	1025	1	poli_8sides 5_whiteLine3.jpg	Medium_e01_cut1_stereo_44KHz.wav
3	32	2	1	0	C	2	1	757	1	poli_8sides 18_whiteLine3.jpg	MediumLong_e19_stereo_44KHz.wav
3	33	1	1	1	C	2	0	608	0	poli_8sides 13_whiteLine3.jpg	MediumLong_e19_stereo_44KHz.wav
3	34	3	4	2	I	2	0	914	1	poli_8sides 5_whiteLine3.jpg	Medium_e21_stereo_44KHz.wav
3	35	2	1	0	C	1	0	770	0	poli_8sides 18_whiteLine3.jpg	MediumLong_e19_stereo_44KHz.wav
3	36	4	3	2	I	2	0	634	0	poli_8sides 8_whiteLine3.jpg	Medium_e01_cut1_stereo_44KHz.wav
3	37	3	3	2	I	1	0	901	0	poli_8sides 5_whiteLine3.jpg	Medium_e01_cut1_stereo_44KHz.wav
3	38	1	2	0	C	2	1	689	1	poli_8sides 13_whiteLine3.jpg	MediumLong_e04_stereo_44KHz.wav
3	39	2	2	1	C	1	1	881	1	poli_8sides 18_whiteLine3.jpg	MediumLong_e04_stereo_44KHz.wav
3	40	4	4	2	I	2	0	1141	0	poli_8sides 8_whiteLine3.jpg	Medium_e21_stereo_44KHz.wav
3	41	3	4	2	I	2	0	877	0	poli_8sides 5_whiteLine3.jpg	Medium_e21_stereo_44KHz.wav
3	42	4	3	2	I	2	0	735	0	poli_8sides 8_whiteLine3.jpg	Medium_e01_cut1_stereo_44KHz.wav
3	43	1	1	1	C	1	1	962	1	poli_8sides 13_whiteLine3.jpg	MediumLong_e19_stereo_44KHz.wav
3	44	2	1	0	C	2	1	1003	1	poli_8sides 18_whiteLine3.jpg	MediumLong_e19_stereo_44KHz.wav
3	45	3	3	2	I	1	0	747	1	poli_8sides 5_whiteLine3.jpg	Medium_e01_cut1_stereo_44KHz.wav
3	46	1	2	0	C	2	1	793	1	poli_8sides 13_whiteLine3.jpg	MediumLong_e04_stereo_44KHz.wav
3	47	4	4	2	I	2	0	719	0	poli_8sides 8_whiteLine3.jpg	Medium_e21_stereo_44KHz.wav
3	48	2	2	1	C	2	0	638	0	poli_8sides 18_whiteLine3.jpg	MediumLong_e04_stereo_44KHz.wav
3	49	4	3	2	I	2	0	756	1	poli_8sides 8_whiteLine3.jpg	Medium_e01_cut1_stereo_44KHz.wav
3	50	2	2	1	C	2	0	650	0	poli_8sides 18_whiteLine3.jpg	MediumLong_e04_stereo_44KHz.wav
3	51	3	4	2	I	2	0	866	0	poli_8sides 5_whiteLine3.jpg	Medium_e21_stereo_44KHz.wav
3	52	1	2	0	C	2	1	764	1	poli_8sides 13_whiteLine3.jpg	MediumLong_e04_stereo_44KHz.wav
3	53	3	3	2	I	2	0	852	1	poli_8sides 5_whiteLine3.jpg	Medium_e01_cut1_stereo_44KHz.wav
3	54	4	4	2	I	2	0	909	1	poli_8sides 8_whiteLine3.jpg	Medium_e21_stereo_44KHz.wav
3	55	2	1	0	C	2	1	845	1	poli_8sides 18_whiteLine3.jpg	MediumLong_e19_stereo_44KHz.wav
3	56	1	1	1	C	2	0	668	0	poli_8sides 13_whiteLine3.jpg	MediumLong_e19_stereo_44KHz.wav
3	57	2	1	0	C	2	1	516	1	poli_8sides 18_whiteLine3.jpg	MediumLong_e19_stereo_44KHz.wav
3	58	1	1	1	C	1	1	958	1	poli_8sides 13_whiteLine3.jpg	MediumLong_e19_stereo_44KHz.wav
3	59	4	3	2	I	2	0	591	0	poli_8sides 8_whiteLine3.jpg	Medium_e01_cut1_stereo_44KHz.wav
3	60	3	4	2	I	2	0	675	1	poli_8sides 5_whiteLine3.jpg	Medium_e21_stereo_44KHz.wav
3	61	2	2	1	C	1	1	683	1	poli_8sides 18_whiteLine3.jpg	MediumLong_e04_stereo_44KHz.wav
3	62	1	2	0	C	2	1	683	1	poli_8sides 13_whiteLine3.jpg	MediumLong_e04_stereo_44KHz.wav
3	63	3	3	2	I	1	0	1041	0	poli_8sides 5_whiteLine3.jpg	Medium_e01_cut1_stereo_44KHz.wav
3	64	4	4	2	I	2	0	704	1	poli_8sides 8_whiteLine3.jpg	Medium_e21_stereo_44KHz.wav
3	65	3	4	2	I	1	0	988	1	poli_8sides 5_whiteLine3.jpg	Medium_e21_stereo_44KHz.wav
3	66	1	2	0	C	2	1	759	1	poli_8sides 13_whiteLine3.jpg	MediumLong_e04_stereo_44KHz.wav
3	67	2	2	1	C	1	1	1458	1	poli_8sides 18_whiteLine3.jpg	MediumLong_e04_stereo_44KHz.wav
3	68	4	4	2	I	2	0	1499	1	poli_8sides 8_whiteLine3.jpg	Medium_e21_stereo_44KHz.wav
3	69	1	1	1	C	2	0	855	0	poli_8sides 13_whiteLine3.jpg	MediumLong_e19_stereo_44KHz.wav
3	70	3	3	2	I	1	0	1058	1	poli_8sides 5_whiteLine3.jpg	Medium_e01_cut1_stereo_44KHz.wav
3	71	2	1	0	C	1	0	1541	0	poli_8sides 18_whiteLine3.jpg	MediumLong_e19_stereo_44KHz.wav
3	72	4	3	2	I	2	0	500	1	poli_8sides 8_whiteLine3.jpg	Medium_e01_cut1_stereo_44KHz.wav
3	73	1	2	0	C	1	0	898	0	poli_8sides 13_whiteLine3.jpg	MediumLong_e04_stereo_44KHz.wav
3	74	2	1	0	C	2	1	684	1	poli_8sides 18_whiteLine3.jpg	MediumLong_e19_stereo_44KHz.wav
3	75	4	3	2	I	1	0	1614	0	poli_8sides 8_whiteLine3.jpg	Medium_e01_cut1_stereo_44KHz.wav
3	76	3	3	2	I	1	0	951	0	poli_8sides 5_whiteLine3.jpg	Medium_e01_cut1_stereo_44KHz.wav
3	77	1	1	1	C	2	0	636	0	poli_8sides 13_whiteLine3.jpg	MediumLong_e19_stereo_44KHz.wav
3	78	4	4	2	I	1	0	823	1	poli_8sides 8_whiteLine3.jpg	Medium_e21_stereo_44KHz.wav
3	79	2	2	1	C	1	1	500	1	poli_8sides 18_whiteLine3.jpg	MediumLong_e04_stereo_44KHz.wav
3	80	3	4	2	I	2	0	753	0	poli_8sides 5_whiteLine3.jpg	Medium_e21_stereo_44KHz.wav
3	81	1	2	0	C	2	1	597	1	poli_8sides 13_whiteLine3.jpg	MediumLong_e04_stereo_44KHz.wav
3	82	4	4	2	I	1	0	831	0	poli_8sides 8_whiteLine3.jpg	Medium_e21_stereo_44KHz.wav
3	83	2	1	0	C	2	1	380	1	poli_8sides 18_whiteLine3.jpg	MediumLong_e19_stereo_44KHz.wav
3	84	3	4	2	I	2	0	654	0	poli_8sides 5_whiteLine3.jpg	Medium_e21_stereo_44KHz.wav
3	85	4	3	2	I	1	0	412	1	poli_8sides 8_whiteLine3.jpg	Medium_e01_cut1_stereo_44KHz.wav
3	86	3	3	2	I	2	0	537	0	poli_8sides 5_whiteLine3.jpg	Medium_e01_cut1_stereo_44KHz.wav
3	87	1	1	1	C	1	1	676	1	poli_8sides 13_whiteLine3.jpg	MediumLong_e19_stereo_44KHz.wav
3	88	2	2	1	C	1	1	1477	1	poli_8sides 18_whiteLine3.jpg	MediumLong_e04_stereo_44KHz.wav
3	89	1	1	1	C	2	0	457	0	poli_8sides 13_whiteLine3.jpg	MediumLong_e19_stereo_44KHz.wav
3	90	4	3	2	I	1	0	617	0	poli_8sides 8_whiteLine3.jpg	Medium_e01_cut1_stereo_44KHz.wav
3	91	3	4	2	I	2	0	558	1	poli_8sides 5_whiteLine3.jpg	Medium_e21_stereo_44KHz.wav
3	92	2	2	1	C	1	1	771	1	poli_8sides 18_whiteLine3.jpg	MediumLong_e04_stereo_44KHz.wav
3	93	1	2	0	C	2	1	684	1	poli_8sides 13_whiteLine3.jpg	MediumLong_e04_stereo_44KHz.wav
3	94	2	1	0	C	1	0	591	0	poli_8sides 18_whiteLine3.jpg	MediumLong_e19_stereo_44KHz.wav
3	95	4	4	2	I	2	0	602	0	poli_8sides 8_whiteLine3.jpg	Medium_e21_stereo_44KHz.wav
3	96	3	3	2	I	2	0	686	0	poli_8sides 5_whiteLine3.jpg	Medium_e01_cut1_stereo_44KHz.wav
3	97	1	2	0	C	1	0	612	0	poli_8sides 13_whiteLine3.jpg	MediumLong_e04_stereo_44KHz.wav
3	98	3	4	2	I	1	0	776	0	poli_8sides 5_whiteLine3.jpg	Medium_e21_stereo_44KHz.wav
3	99	2	1	0	C	2	1	574	1	poli_8sides 18_whiteLine3.jpg	MediumLong_e19_stereo_44KHz.wav
3	100	4	4	2	I	1	0	627	1	poli_8sides 8_whiteLine3.jpg	Medium_e21_stereo_44KHz.wav
3	101	2	2	1	C	2	0	560	0	poli_8sides 18_whiteLine3.jpg	MediumLong_e04_stereo_44KHz.wav
3	102	4	3	2	I	1	0	494	0	poli_8sides 8_whiteLine3.jpg	Medium_e01_cut1_stereo_44KHz.wav
3	103	1	1	1	C	2	0	480	0	poli_8sides 13_whiteLine3.jpg	MediumLong_e19_stereo_44KHz.wav
3	104	3	3	2	I	2	0	519	1	poli_8sides 5_whiteLine3.jpg	Medium_e01_cut1_stereo_44KHz.wav
3	105	1	1	1	C	2	0	479	0	poli_8sides 13_whiteLine3.jpg	MediumLong_e19_stereo_44KHz.wav
3	106	4	3	2	I	1	0	916	1	poli_8sides 8_whiteLine3.jpg	Medium_e01_cut1_stereo_44KHz.wav
3	107	2	1	0	C	2	1	707	1	poli_8sides 18_whiteLine3.jpg	MediumLong_e19_stereo_44KHz.wav
3	108	3	4	2	I	2	0	580	1	poli_8sides 5_whiteLine3.jpg	Medium_e21_stereo_44KHz.wav
3	109	2	2	1	C	1	1	773	1	poli_8sides 18_whiteLine3.jpg	MediumLong_e04_stereo_44KHz.wav
3	110	3	3	2	I	1	0	839	0	poli_8sides 5_whiteLine3.jpg	Medium_e01_cut1_stereo_44KHz.wav
3	111	1	2	0	C	2	1	43	1	poli_8sides 13_whiteLine3.jpg	MediumLong_e04_stereo_44KHz.wav
3	112	4	4	2	I	2	0	1438	0	poli_8sides 8_whiteLine3.jpg	Medium_e21_stereo_44KHz.wav
3	113	2	2	1	C	2	0	1729	0	poli_8sides 18_whiteLine3.jpg	MediumLong_e04_stereo_44KHz.wav
3	114	3	3	2	I	2	0	1325	1	poli_8sides 5_whiteLine3.jpg	Medium_e01_cut1_stereo_44KHz.wav
3	115	4	3	2	I	1	0	863	0	poli_8sides 8_whiteLine3.jpg	Medium_e01_cut1_stereo_44KHz.wav
3	116	1	1	1	C	1	1	644	1	poli_8sides 13_whiteLine3.jpg	MediumLong_e19_stereo_44KHz.wav
3	117	4	4	2	I	2	0	821	0	poli_8sides 8_whiteLine3.jpg	Medium_e21_stereo_44KHz.wav
3	118	3	4	2	I	2	0	529	0	poli_8sides 5_whiteLine3.jpg	Medium_e21_stereo_44KHz.wav
3	119	2	1	0	C	2	1	661	1	poli_8sides 18_whiteLine3.jpg	MediumLong_e19_stereo_44KHz.wav
3	120	1	2	0	C	1	0	660	0	poli_8sides 13_whiteLine3.jpg	MediumLong_e04_stereo_44KHz.wav
3	121	3	3	2	I	2	0	756	0	poli_8sides 5_whiteLine3.jpg	Medium_e01_cut1_stereo_44KHz.wav
3	122	2	2	1	C	2	0	626	0	poli_8sides 18_whiteLine3.jpg	MediumLong_e04_stereo_44KHz.wav
3	123	4	3	2	I	1	0	415	1	poli_8sides 8_whiteLine3.jpg	Medium_e01_cut1_stereo_44KHz.wav
3	124	1	2	0	C	2	1	511	1	poli_8sides 13_whiteLine3.jpg	MediumLong_e04_stereo_44KHz.wav
3	125	3	4	2	I	1	0	857	1	poli_8sides 5_whiteLine3.jpg	Medium_e21_stereo_44KHz.wav
3	126	2	1	0	C	2	1	638	1	poli_8sides 18_whiteLine3.jpg	MediumLong_e19_stereo_44KHz.wav
3	127	4	4	2	I	1	0	627	1	poli_8sides 8_whiteLine3.jpg	Medium_e21_stereo_44KHz.wav
3	128	1	1	1	C	1	1	788	1	poli_8sides 13_whiteLine3.jpg	MediumLong_e19_stereo_44KHz.wav
3	129	4	3	2	I	2	0	687	0	poli_8sides 8_whiteLine3.jpg	Medium_e01_cut1_stereo_44KHz.wav
3	130	2	2	1	C	1	1	827	1	poli_8sides 18_whiteLine3.jpg	MediumLong_e04_stereo_44KHz.wav
3	131	3	4	2	I	2	0	596	0	poli_8sides 5_whiteLine3.jpg	Medium_e21_stereo_44KHz.wav
3	132	1	2	0	C	1	0	619	0	poli_8sides 13_whiteLine3.jpg	MediumLong_e04_stereo_44KHz.wav
3	133	3	3	2	I	2	0	834	0	poli_8sides 5_whiteLine3.jpg	Medium_e01_cut1_stereo_44KHz.wav
3	134	2	1	0	C	2	1	777	1	poli_8sides 18_whiteLine3.jpg	MediumLong_e19_stereo_44KHz.wav
3	135	1	1	1	C	2	0	617	0	poli_8sides 13_whiteLine3.jpg	MediumLong_e19_stereo_44KHz.wav
3	136	4	4	2	I	1	0	676	0	poli_8sides 8_whiteLine3.jpg	Medium_e21_stereo_44KHz.wav
3	137	1	2	0	C	2	1	993	1	poli_8sides 13_whiteLine3.jpg	MediumLong_e04_stereo_44KHz.wav
3	138	3	3	2	I	2	0	639	0	poli_8sides 5_whiteLine3.jpg	Medium_e01_cut1_stereo_44KHz.wav
3	139	2	1	0	C	2	1	885	1	poli_8sides 18_whiteLine3.jpg	MediumLong_e19_stereo_44KHz.wav
3	140	4	3	2	I	1	0	815	1	poli_8sides 8_whiteLine3.jpg	Medium_e01_cut1_stereo_44KHz.wav
3	141	2	2	1	C	2	0	672	0	poli_8sides 18_whiteLine3.jpg	MediumLong_e04_stereo_44KHz.wav
3	142	4	4	2	I	1	0	621	1	poli_8sides 8_whiteLine3.jpg	Medium_e21_stereo_44KHz.wav
3	143	1	1	1	C	2	0	642	0	poli_8sides 13_whiteLine3.jpg	MediumLong_e19_stereo_44KHz.wav
3	144	3	4	2	I	2	0	857	1	poli_8sides 5_whiteLine3.jpg	Medium_e21_stereo_44KHz.wav
3	145	1	2	0	C	1	0	713	0	poli_8sides 13_whiteLine3.jpg	MediumLong_e04_stereo_44KHz.wav
3	146	2	2	1	C	2	0	464	0	poli_8sides 18_whiteLine3.jpg	MediumLong_e04_stereo_44KHz.wav
3	147	4	4	2	I	1	0	558	1	poli_8sides 8_whiteLine3.jpg	Medium_e21_stereo_44KHz.wav
3	148	3	3	2	I	2	0	612	1	poli_8sides 5_whiteLine3.jpg	Medium_e01_cut1_stereo_44KHz.wav
3	149	1	1	1	C	1	1	754	1	poli_8sides 13_whiteLine3.jpg	MediumLong_e19_stereo_44KHz.wav
3	150	2	1	0	C	2	1	685	1	poli_8sides 18_whiteLine3.jpg	MediumLong_e19_stereo_44KHz.wav
3	151	4	3	2	I	0	0	0	0	poli_8sides 8_whiteLine3.jpg	Medium_e01_cut1_stereo_44KHz.wav
3	152	3	4	2	I	2	0	697	1	poli_8sides 5_whiteLine3.jpg	Medium_e21_stereo_44KHz.wav
3	153	1	2	0	C	1	0	598	0	poli_8sides 13_whiteLine3.jpg	MediumLong_e04_stereo_44KHz.wav
3	154	3	3	2	I	2	0	450	1	poli_8sides 5_whiteLine3.jpg	Medium_e01_cut1_stereo_44KHz.wav
3	155	4	3	2	I	2	0	544	0	poli_8sides 8_whiteLine3.jpg	Medium_e01_cut1_stereo_44KHz.wav
3	156	2	2	1	C	1	1	668	1	poli_8sides 18_whiteLine3.jpg	MediumLong_e04_stereo_44KHz.wav
3	157	4	4	2	I	2	0	1191	1	poli_8sides 8_whiteLine3.jpg	Medium_e21_stereo_44KHz.wav
3	158	3	4	2	I	2	0	753	1	poli_8sides 5_whiteLine3.jpg	Medium_e21_stereo_44KHz.wav
3	159	2	1	0	C	1	0	664	0	poli_8sides 18_whiteLine3.jpg	MediumLong_e19_stereo_44KHz.wav
3	160	1	1	1	C	2	0	578	0	poli_8sides 13_whiteLine3.jpg	MediumLong_e19_stereo_44KHz.wav
3	161	4	4	2	I	2	0	708	1	poli_8sides 8_whiteLine3.jpg	Medium_e21_stereo_44KHz.wav
3	162	2	2	1	C	1	1	1009	1	poli_8sides 18_whiteLine3.jpg	MediumLong_e04_stereo_44KHz.wav
3	163	3	3	2	I	2	0	1154	1	poli_8sides 5_whiteLine3.jpg	Medium_e01_cut1_stereo_44KHz.wav
3	164	1	2	0	C	1	0	848	0	poli_8sides 13_whiteLine3.jpg	MediumLong_e04_stereo_44KHz.wav
3	165	4	3	2	I	2	0	601	1	poli_8sides 8_whiteLine3.jpg	Medium_e01_cut1_stereo_44KHz.wav
3	166	3	4	2	I	1	0	634	1	poli_8sides 5_whiteLine3.jpg	Medium_e21_stereo_44KHz.wav
3	167	1	1	1	C	2	0	820	0	poli_8sides 13_whiteLine3.jpg	MediumLong_e19_stereo_44KHz.wav
3	168	2	1	0	C	2	1	848	1	poli_8sides 18_whiteLine3.jpg	MediumLong_e19_stereo_44KHz.wav
3	169	4	3	2	I	2	0	774	1	poli_8sides 8_whiteLine3.jpg	Medium_e01_cut1_stereo_44KHz.wav
3	170	2	1	0	C	1	0	824	0	poli_8sides 18_whiteLine3.jpg	MediumLong_e19_stereo_44KHz.wav
3	171	3	3	2	I	1	0	560	1	poli_8sides 5_whiteLine3.jpg	Medium_e01_cut1_stereo_44KHz.wav
3	172	1	2	0	C	1	0	1192	0	poli_8sides 13_whiteLine3.jpg	MediumLong_e04_stereo_44KHz.wav
3	173	2	2	1	C	2	0	729	0	poli_8sides 18_whiteLine3.jpg	MediumLong_e04_stereo_44KHz.wav
3	174	4	4	2	I	1	0	1074	0	poli_8sides 8_whiteLine3.jpg	Medium_e21_stereo_44KHz.wav
3	175	1	1	1	C	2	0	888	0	poli_8sides 13_whiteLine3.jpg	MediumLong_e19_stereo_44KHz.wav
3	176	3	4	2	I	2	0	700	0	poli_8sides 5_whiteLine3.jpg	Medium_e21_stereo_44KHz.wav
3	177	4	4	2	I	1	0	836	0	poli_8sides 8_whiteLine3.jpg	Medium_e21_stereo_44KHz.wav
3	178	1	1	1	C	1	1	961	1	poli_8sides 13_whiteLine3.jpg	MediumLong_e19_stereo_44KHz.wav
3	179	2	2	1	C	2	0	604	0	poli_8sides 18_whiteLine3.jpg	MediumLong_e04_stereo_44KHz.wav
3	180	3	4	2	I	2	0	983	0	poli_8sides 5_whiteLine3.jpg	Medium_e21_stereo_44KHz.wav
3	181	4	3	2	I	2	0	637	1	poli_8sides 8_whiteLine3.jpg	Medium_e01_cut1_stereo_44KHz.wav
3	182	1	2	0	C	2	1	1861	1	poli_8sides 13_whiteLine3.jpg	MediumLong_e04_stereo_44KHz.wav
3	183	2	1	0	C	2	1	870	1	poli_8sides 18_whiteLine3.jpg	MediumLong_e19_stereo_44KHz.wav
3	184	3	3	2	I	2	0	770	1	poli_8sides 5_whiteLine3.jpg	Medium_e01_cut1_stereo_44KHz.wav
3	185	4	3	2	I	1	0	1396	1	poli_8sides 8_whiteLine3.jpg	Medium_e01_cut1_stereo_44KHz.wav
3	186	1	1	1	C	2	0	789	0	poli_8sides 13_whiteLine3.jpg	MediumLong_e19_stereo_44KHz.wav
3	187	2	1	0	C	2	1	613	1	poli_8sides 18_whiteLine3.jpg	MediumLong_e19_stereo_44KHz.wav
3	188	3	3	2	I	2	0	617	1	poli_8sides 5_whiteLine3.jpg	Medium_e01_cut1_stereo_44KHz.wav
3	189	2	2	1	C	1	1	807	1	poli_8sides 18_whiteLine3.jpg	MediumLong_e04_stereo_44KHz.wav
3	190	3	4	2	I	2	0	843	0	poli_8sides 5_whiteLine3.jpg	Medium_e21_stereo_44KHz.wav
3	191	4	4	2	I	1	0	930	1	poli_8sides 8_whiteLine3.jpg	Medium_e21_stereo_44KHz.wav
3	192	1	2	0	C	2	1	452	1	poli_8sides 13_whiteLine3.jpg	MediumLong_e04_stereo_44KHz.wav
3	193	2	2	1	C	2	0	885	0	poli_8sides 18_whiteLine3.jpg	MediumLong_e04_stereo_44KHz.wav
3	194	1	1	1	C	1	1	777	1	poli_8sides 13_whiteLine3.jpg	MediumLong_e19_stereo_44KHz.wav
3	195	4	4	2	I	2	0	765	0	poli_8sides 8_whiteLine3.jpg	Medium_e21_stereo_44KHz.wav
3	196	3	4	2	I	1	0	879	0	poli_8sides 5_whiteLine3.jpg	Medium_e21_stereo_44KHz.wav
3	197	4	3	2	I	2	0	673	1	poli_8sides 8_whiteLine3.jpg	Medium_e01_cut1_stereo_44KHz.wav
3	198	1	2	0	C	2	1	738	1	poli_8sides 13_whiteLine3.jpg	MediumLong_e04_stereo_44KHz.wav
3	199	3	3	2	I	2	0	905	1	poli_8sides 5_whiteLine3.jpg	Medium_e01_cut1_stereo_44KHz.wav
3	200	2	1	0	C	2	1	970	1	poli_8sides 18_whiteLine3.jpg	MediumLong_e19_stereo_44KHz.wav
4	1	3	3	2	I	2	0	820	0	poli_8sides 10_whiteLine3.jpg	MediumShort_b10_cut1_MS_stereo_44KHz.wav
4	2	1	1	1	C	2	0	833	0	poli_8sides 1_whiteLine3.jpg	MediumShort_b16_cut3_MS_stereo_44KHz.wav
4	3	2	2	1	C	2	0	801	0	poli_8sides 9_whiteLine3.jpg	MediumShort_e16_cut1_stereo_44KHz.wav
4	4	4	4	2	I	2	0	733	0	poli_8sides 11_whiteLine3.jpg	MediumShort_e22_cut1_stereo_44KHz.wav
4	5	1	2	0	C	2	1	625	1	poli_8sides 1_whiteLine3.jpg	MediumShort_e16_cut1_stereo_44KHz.wav
4	6	4	3	2	I	2	0	781	0	poli_8sides 11_whiteLine3.jpg	MediumShort_b10_cut1_MS_stereo_44KHz.wav
4	7	3	4	2	I	2	0	634	1	poli_8sides 10_whiteLine3.jpg	MediumShort_e22_cut1_stereo_44KHz.wav
4	8	2	1	0	C	2	1	866	1	poli_8sides 9_whiteLine3.jpg	MediumShort_b16_cut3_MS_stereo_44KHz.wav
4	9	3	4	2	I	2	0	930	0	poli_8sides 10_whiteLine3.jpg	MediumShort_e22_cut1_stereo_44KHz.wav
4	10	2	2	1	C	2	0	714	0	poli_8sides 9_whiteLine3.jpg	MediumShort_e16_cut1_stereo_44KHz.wav
4	11	1	2	0	C	2	1	530	1	poli_8sides 1_whiteLine3.jpg	MediumShort_e16_cut1_stereo_44KHz.wav
4	12	4	3	2	I	2	0	865	1	poli_8sides 11_whiteLine3.jpg	MediumShort_b10_cut1_MS_stereo_44KHz.wav
4	13	3	3	2	I	1	0	991	1	poli_8sides 10_whiteLine3.jpg	MediumShort_b10_cut1_MS_stereo_44KHz.wav
4	14	2	1	0	C	2	1	812	1	poli_8sides 9_whiteLine3.jpg	MediumShort_b16_cut3_MS_stereo_44KHz.wav
4	15	4	4	2	I	1	0	1094	1	poli_8sides 11_whiteLine3.jpg	MediumShort_e22_cut1_stereo_44KHz.wav
4	16	1	1	1	C	1	1	983	1	poli_8sides 1_whiteLine3.jpg	MediumShort_b16_cut3_MS_stereo_44KHz.wav
4	17	3	3	2	I	1	0	955	0	poli_8sides 10_whiteLine3.jpg	MediumShort_b10_cut1_MS_stereo_44KHz.wav
4	18	4	3	2	I	1	0	1049	0	poli_8sides 11_whiteLine3.jpg	MediumShort_b10_cut1_MS_stereo_44KHz.wav
4	19	2	1	0	C	2	1	799	1	poli_8sides 9_whiteLine3.jpg	MediumShort_b16_cut3_MS_stereo_44KHz.wav
4	20	1	2	0	C	2	1	803	1	poli_8sides 1_whiteLine3.jpg	MediumShort_e16_cut1_stereo_44KHz.wav
4	21	2	2	1	C	2	0	627	0	poli_8sides 9_whiteLine3.jpg	MediumShort_e16_cut1_stereo_44KHz.wav
4	22	4	4	2	I	2	0	732	1	poli_8sides 11_whiteLine3.jpg	MediumShort_e22_cut1_stereo_44KHz.wav
4	23	3	4	2	I	2	0	1288	0	poli_8sides 10_whiteLine3.jpg	MediumShort_e22_cut1_stereo_44KHz.wav
4	24	1	1	1	C	1	1	1024	1	poli_8sides 1_whiteLine3.jpg	MediumShort_b16_cut3_MS_stereo_44KHz.wav
4	25	3	4	2	I	2	0	1130	0	poli_8sides 10_whiteLine3.jpg	MediumShort_e22_cut1_stereo_44KHz.wav
4	26	4	3	2	I	2	0	927	1	poli_8sides 11_whiteLine3.jpg	MediumShort_b10_cut1_MS_stereo_44KHz.wav
4	27	1	1	1	C	1	1	1027	1	poli_8sides 1_whiteLine3.jpg	MediumShort_b16_cut3_MS_stereo_44KHz.wav
4	28	2	2	1	C	2	0	789	0	poli_8sides 9_whiteLine3.jpg	MediumShort_e16_cut1_stereo_44KHz.wav
4	29	1	2	0	C	2	1	673	1	poli_8sides 1_whiteLine3.jpg	MediumShort_e16_cut1_stereo_44KHz.wav
4	30	2	1	0	C	2	1	841	1	poli_8sides 9_whiteLine3.jpg	MediumShort_b16_cut3_MS_stereo_44KHz.wav
4	31	3	3	2	I	1	0	949	1	poli_8sides 10_whiteLine3.jpg	MediumShort_b10_cut1_MS_stereo_44KHz.wav
4	32	4	4	2	I	1	0	841	0	poli_8sides 11_whiteLine3.jpg	MediumShort_e22_cut1_stereo_44KHz.wav
4	33	2	1	0	C	2	1	847	1	poli_8sides 9_whiteLine3.jpg	MediumShort_b16_cut3_MS_stereo_44KHz.wav
4	34	4	4	2	I	1	0	836	1	poli_8sides 11_whiteLine3.jpg	MediumShort_e22_cut1_stereo_44KHz.wav
4	35	1	1	1	C	1	1	1041	1	poli_8sides 1_whiteLine3.jpg	MediumShort_b16_cut3_MS_stereo_44KHz.wav
4	36	3	3	2	I	1	0	772	0	poli_8sides 10_whiteLine3.jpg	MediumShort_b10_cut1_MS_stereo_44KHz.wav
4	37	1	2	0	C	2	1	910	1	poli_8sides 1_whiteLine3.jpg	MediumShort_e16_cut1_stereo_44KHz.wav
4	38	3	4	2	I	2	0	781	0	poli_8sides 10_whiteLine3.jpg	MediumShort_e22_cut1_stereo_44KHz.wav
4	39	4	3	2	I	2	0	747	1	poli_8sides 11_whiteLine3.jpg	MediumShort_b10_cut1_MS_stereo_44KHz.wav
4	40	2	2	1	C	2	0	786	0	poli_8sides 9_whiteLine3.jpg	MediumShort_e16_cut1_stereo_44KHz.wav
4	41	3	4	2	I	2	0	676	0	poli_8sides 10_whiteLine3.jpg	MediumShort_e22_cut1_stereo_44KHz.wav
4	42	4	3	2	I	2	0	878	0	poli_8sides 11_whiteLine3.jpg	MediumShort_b10_cut1_MS_stereo_44KHz.wav
4	43	2	2	1	C	2	0	975	0	poli_8sides 9_whiteLine3.jpg	MediumShort_e16_cut1_stereo_44KHz.wav
4	44	1	2	0	C	2	1	539	1	poli_8sides 1_whiteLine3.jpg	MediumShort_e16_cut1_stereo_44KHz.wav
4	45	4	4	2	I	1	0	1042	0	poli_8sides 11_whiteLine3.jpg	MediumShort_e22_cut1_stereo_44KHz.wav
4	46	1	1	1	C	1	1	900	1	poli_8sides 1_whiteLine3.jpg	MediumShort_b16_cut3_MS_stereo_44KHz.wav
4	47	3	3	2	I	2	0	927	1	poli_8sides 10_whiteLine3.jpg	MediumShort_b10_cut1_MS_stereo_44KHz.wav
4	48	2	1	0	C	1	0	1573	0	poli_8sides 9_whiteLine3.jpg	MediumShort_b16_cut3_MS_stereo_44KHz.wav
4	49	4	3	2	I	2	0	817	1	poli_8sides 11_whiteLine3.jpg	MediumShort_b10_cut1_MS_stereo_44KHz.wav
4	50	2	2	1	C	1	1	1505	1	poli_8sides 9_whiteLine3.jpg	MediumShort_e16_cut1_stereo_44KHz.wav
4	51	3	3	2	I	2	0	1337	1	poli_8sides 10_whiteLine3.jpg	MediumShort_b10_cut1_MS_stereo_44KHz.wav
4	52	1	1	1	C	2	0	812	0	poli_8sides 1_whiteLine3.jpg	MediumShort_b16_cut3_MS_stereo_44KHz.wav
4	53	2	1	0	C	1	0	1051	0	poli_8sides 9_whiteLine3.jpg	MediumShort_b16_cut3_MS_stereo_44KHz.wav
4	54	3	4	2	I	1	0	959	0	poli_8sides 10_whiteLine3.jpg	MediumShort_e22_cut1_stereo_44KHz.wav
4	55	1	2	0	C	2	1	738	1	poli_8sides 1_whiteLine3.jpg	MediumShort_e16_cut1_stereo_44KHz.wav
4	56	4	4	2	I	2	0	1001	0	poli_8sides 11_whiteLine3.jpg	MediumShort_e22_cut1_stereo_44KHz.wav
4	57	2	1	0	C	1	0	957	0	poli_8sides 9_whiteLine3.jpg	MediumShort_b16_cut3_MS_stereo_44KHz.wav
4	58	4	3	2	I	2	0	1195	1	poli_8sides 11_whiteLine3.jpg	MediumShort_b10_cut1_MS_stereo_44KHz.wav
4	59	3	4	2	I	2	0	650	1	poli_8sides 10_whiteLine3.jpg	MediumShort_e22_cut1_stereo_44KHz.wav
4	60	1	2	0	C	2	1	740	1	poli_8sides 1_whiteLine3.jpg	MediumShort_e16_cut1_stereo_44KHz.wav
4	61	2	2	1	C	2	0	817	0	poli_8sides 9_whiteLine3.jpg	MediumShort_e16_cut1_stereo_44KHz.wav
4	62	3	3	2	I	1	0	740	0	poli_8sides 10_whiteLine3.jpg	MediumShort_b10_cut1_MS_stereo_44KHz.wav
4	63	4	4	2	I	1	0	789	0	poli_8sides 11_whiteLine3.jpg	MediumShort_e22_cut1_stereo_44KHz.wav
4	64	1	1	1	C	1	1	854	1	poli_8sides 1_whiteLine3.jpg	MediumShort_b16_cut3_MS_stereo_44KHz.wav
4	65	3	4	2	I	2	0	627	0	poli_8sides 10_whiteLine3.jpg	MediumShort_e22_cut1_stereo_44KHz.wav
4	66	4	4	2	I	1	0	848	0	poli_8sides 11_whiteLine3.jpg	MediumShort_e22_cut1_stereo_44KHz.wav
4	67	1	1	1	C	1	1	786	1	poli_8sides 1_whiteLine3.jpg	MediumShort_b16_cut3_MS_stereo_44KHz.wav
4	68	2	2	1	C	1	1	847	1	poli_8sides 9_whiteLine3.jpg	MediumShort_e16_cut1_stereo_44KHz.wav
4	69	3	3	2	I	1	0	1033	1	poli_8sides 10_whiteLine3.jpg	MediumShort_b10_cut1_MS_stereo_44KHz.wav
4	70	2	1	0	C	2	1	978	1	poli_8sides 9_whiteLine3.jpg	MediumShort_b16_cut3_MS_stereo_44KHz.wav
4	71	1	2	0	C	2	1	794	1	poli_8sides 1_whiteLine3.jpg	MediumShort_e16_cut1_stereo_44KHz.wav
4	72	4	3	2	I	2	0	953	1	poli_8sides 11_whiteLine3.jpg	MediumShort_b10_cut1_MS_stereo_44KHz.wav
4	73	2	1	0	C	2	1	1281	1	poli_8sides 9_whiteLine3.jpg	MediumShort_b16_cut3_MS_stereo_44KHz.wav
4	74	1	2	0	C	1	0	873	0	poli_8sides 1_whiteLine3.jpg	MediumShort_e16_cut1_stereo_44KHz.wav
4	75	3	3	2	I	2	0	956	1	poli_8sides 10_whiteLine3.jpg	MediumShort_b10_cut1_MS_stereo_44KHz.wav
4	76	4	3	2	I	2	0	1031	0	poli_8sides 11_whiteLine3.jpg	MediumShort_b10_cut1_MS_stereo_44KHz.wav
4	77	2	2	1	C	2	0	865	0	poli_8sides 9_whiteLine3.jpg	MediumShort_e16_cut1_stereo_44KHz.wav
4	78	4	4	2	I	2	0	812	0	poli_8sides 11_whiteLine3.jpg	MediumShort_e22_cut1_stereo_44KHz.wav
4	79	1	1	1	C	2	0	869	0	poli_8sides 1_whiteLine3.jpg	MediumShort_b16_cut3_MS_stereo_44KHz.wav
4	80	3	4	2	I	2	0	800	1	poli_8sides 10_whiteLine3.jpg	MediumShort_e22_cut1_stereo_44KHz.wav
4	81	4	4	2	I	1	0	831	1	poli_8sides 11_whiteLine3.jpg	MediumShort_e22_cut1_stereo_44KHz.wav
4	82	1	2	0	C	2	1	750	1	poli_8sides 1_whiteLine3.jpg	MediumShort_e16_cut1_stereo_44KHz.wav
4	83	2	2	1	C	1	1	882	1	poli_8sides 9_whiteLine3.jpg	MediumShort_e16_cut1_stereo_44KHz.wav
4	84	3	4	2	I	2	0	878	1	poli_8sides 10_whiteLine3.jpg	MediumShort_e22_cut1_stereo_44KHz.wav
4	85	1	1	1	C	2	0	1351	0	poli_8sides 1_whiteLine3.jpg	MediumShort_b16_cut3_MS_stereo_44KHz.wav
4	86	3	3	2	I	1	0	891	0	poli_8sides 10_whiteLine3.jpg	MediumShort_b10_cut1_MS_stereo_44KHz.wav
4	87	2	1	0	C	1	0	1074	0	poli_8sides 9_whiteLine3.jpg	MediumShort_b16_cut3_MS_stereo_44KHz.wav
4	88	4	3	2	I	2	0	846	0	poli_8sides 11_whiteLine3.jpg	MediumShort_b10_cut1_MS_stereo_44KHz.wav
4	89	1	1	1	C	1	1	896	1	poli_8sides 1_whiteLine3.jpg	MediumShort_b16_cut3_MS_stereo_44KHz.wav
4	90	3	4	2	I	2	0	592	1	poli_8sides 10_whiteLine3.jpg	MediumShort_e22_cut1_stereo_44KHz.wav
4	91	2	1	0	C	1	0	885	0	poli_8sides 9_whiteLine3.jpg	MediumShort_b16_cut3_MS_stereo_44KHz.wav
4	92	4	4	2	I	2	0	1011	0	poli_8sides 11_whiteLine3.jpg	MediumShort_e22_cut1_stereo_44KHz.wav
4	93	3	3	2	I	1	0	1117	0	poli_8sides 10_whiteLine3.jpg	MediumShort_b10_cut1_MS_stereo_44KHz.wav
4	94	1	2	0	C	2	1	688	1	poli_8sides 1_whiteLine3.jpg	MediumShort_e16_cut1_stereo_44KHz.wav
4	95	4	3	2	I	2	0	703	1	poli_8sides 11_whiteLine3.jpg	MediumShort_b10_cut1_MS_stereo_44KHz.wav
4	96	2	2	1	C	2	0	684	0	poli_8sides 9_whiteLine3.jpg	MediumShort_e16_cut1_stereo_44KHz.wav
4	97	4	3	2	I	2	0	684	0	poli_8sides 11_whiteLine3.jpg	MediumShort_b10_cut1_MS_stereo_44KHz.wav
4	98	3	4	2	I	2	0	580	1	poli_8sides 10_whiteLine3.jpg	MediumShort_e22_cut1_stereo_44KHz.wav
4	99	2	2	1	C	2	0	589	0	poli_8sides 9_whiteLine3.jpg	MediumShort_e16_cut1_stereo_44KHz.wav
4	100	1	1	1	C	1	1	1130	1	poli_8sides 1_whiteLine3.jpg	MediumShort_b16_cut3_MS_stereo_44KHz.wav
4	101	4	4	2	I	2	0	1265	1	poli_8sides 11_whiteLine3.jpg	MediumShort_e22_cut1_stereo_44KHz.wav
4	102	1	2	0	C	1	0	810	0	poli_8sides 1_whiteLine3.jpg	MediumShort_e16_cut1_stereo_44KHz.wav
4	103	3	3	2	I	1	0	978	1	poli_8sides 10_whiteLine3.jpg	MediumShort_b10_cut1_MS_stereo_44KHz.wav
4	104	2	1	0	C	2	1	1076	1	poli_8sides 9_whiteLine3.jpg	MediumShort_b16_cut3_MS_stereo_44KHz.wav
4	105	4	4	2	I	1	0	935	0	poli_8sides 11_whiteLine3.jpg	MediumShort_e22_cut1_stereo_44KHz.wav
4	106	3	3	2	I	2	0	700	1	poli_8sides 10_whiteLine3.jpg	MediumShort_b10_cut1_MS_stereo_44KHz.wav
4	107	1	1	1	C	1	1	845	1	poli_8sides 1_whiteLine3.jpg	MediumShort_b16_cut3_MS_stereo_44KHz.wav
4	108	2	1	0	C	2	1	908	1	poli_8sides 9_whiteLine3.jpg	MediumShort_b16_cut3_MS_stereo_44KHz.wav
4	109	4	3	2	I	2	0	954	1	poli_8sides 11_whiteLine3.jpg	MediumShort_b10_cut1_MS_stereo_44KHz.wav
4	110	1	2	0	C	2	1	952	1	poli_8sides 1_whiteLine3.jpg	MediumShort_e16_cut1_stereo_44KHz.wav
4	111	2	2	1	C	1	1	1040	1	poli_8sides 9_whiteLine3.jpg	MediumShort_e16_cut1_stereo_44KHz.wav
4	112	3	4	2	I	2	0	1344	1	poli_8sides 10_whiteLine3.jpg	MediumShort_e22_cut1_stereo_44KHz.wav
4	113	2	1	0	C	1	0	859	0	poli_8sides 9_whiteLine3.jpg	MediumShort_b16_cut3_MS_stereo_44KHz.wav
4	114	3	3	2	I	2	0	672	0	poli_8sides 10_whiteLine3.jpg	MediumShort_b10_cut1_MS_stereo_44KHz.wav
4	115	1	1	1	C	1	1	734	1	poli_8sides 1_whiteLine3.jpg	MediumShort_b16_cut3_MS_stereo_44KHz.wav
4	116	4	3	2	I	2	0	695	0	poli_8sides 11_whiteLine3.jpg	MediumShort_b10_cut1_MS_stereo_44KHz.wav
4	117	1	2	0	C	1	0	1210	0	poli_8sides 1_whiteLine3.jpg	MediumShort_e16_cut1_stereo_44KHz.wav
4	118	4	4	2	I	2	0	752	1	poli_8sides 11_whiteLine3.jpg	MediumShort_e22_cut1_stereo_44KHz.wav
4	119	2	2	1	C	2	0	1021	0	poli_8sides 9_whiteLine3.jpg	MediumShort_e16_cut1_stereo_44KHz.wav
4	120	3	4	2	I	1	0	1181	0	poli_8sides 10_whiteLine3.jpg	MediumShort_e22_cut1_stereo_44KHz.wav
4	121	2	2	1	C	2	0	717	0	poli_8sides 9_whiteLine3.jpg	MediumShort_e16_cut1_stereo_44KHz.wav
4	122	1	2	0	C	2	1	814	1	poli_8sides 1_whiteLine3.jpg	MediumShort_e16_cut1_stereo_44KHz.wav
4	123	3	4	2	I	1	0	672	0	poli_8sides 10_whiteLine3.jpg	MediumShort_e22_cut1_stereo_44KHz.wav
4	124	4	4	2	I	2	0	1500	0	poli_8sides 11_whiteLine3.jpg	MediumShort_e22_cut1_stereo_44KHz.wav
4	125	1	1	1	C	1	1	1186	1	poli_8sides 1_whiteLine3.jpg	MediumShort_b16_cut3_MS_stereo_44KHz.wav
4	126	2	1	0	C	2	1	1251	1	poli_8sides 9_whiteLine3.jpg	MediumShort_b16_cut3_MS_stereo_44KHz.wav
4	127	3	3	2	I	2	0	699	1	poli_8sides 10_whiteLine3.jpg	MediumShort_b10_cut1_MS_stereo_44KHz.wav
4	128	4	3	2	I	2	0	824	0	poli_8sides 11_whiteLine3.jpg	MediumShort_b10_cut1_MS_stereo_44KHz.wav
4	129	3	3	2	I	2	0	417	1	poli_8sides 10_whiteLine3.jpg	MediumShort_b10_cut1_MS_stereo_44KHz.wav
4	130	1	2	0	C	1	0	749	0	poli_8sides 1_whiteLine3.jpg	MediumShort_e16_cut1_stereo_44KHz.wav
4	131	4	3	2	I	2	0	621	0	poli_8sides 11_whiteLine3.jpg	MediumShort_b10_cut1_MS_stereo_44KHz.wav
4	132	2	1	0	C	1	0	1145	0	poli_8sides 9_whiteLine3.jpg	MediumShort_b16_cut3_MS_stereo_44KHz.wav
4	133	1	1	1	C	1	1	1104	1	poli_8sides 1_whiteLine3.jpg	MediumShort_b16_cut3_MS_stereo_44KHz.wav
4	134	2	2	1	C	2	0	806	0	poli_8sides 9_whiteLine3.jpg	MediumShort_e16_cut1_stereo_44KHz.wav
4	135	3	4	2	I	2	0	655	1	poli_8sides 10_whiteLine3.jpg	MediumShort_e22_cut1_stereo_44KHz.wav
4	136	4	4	2	I	2	0	1179	1	poli_8sides 11_whiteLine3.jpg	MediumShort_e22_cut1_stereo_44KHz.wav
4	137	2	2	1	C	2	0	750	0	poli_8sides 9_whiteLine3.jpg	MediumShort_e16_cut1_stereo_44KHz.wav
4	138	1	2	0	C	2	1	912	1	poli_8sides 1_whiteLine3.jpg	MediumShort_e16_cut1_stereo_44KHz.wav
4	139	4	4	2	I	2	0	778	1	poli_8sides 11_whiteLine3.jpg	MediumShort_e22_cut1_stereo_44KHz.wav
4	140	3	3	2	I	2	0	829	0	poli_8sides 10_whiteLine3.jpg	MediumShort_b10_cut1_MS_stereo_44KHz.wav
4	141	2	1	0	C	1	0	852	0	poli_8sides 9_whiteLine3.jpg	MediumShort_b16_cut3_MS_stereo_44KHz.wav
4	142	3	4	2	I	2	0	838	0	poli_8sides 10_whiteLine3.jpg	MediumShort_e22_cut1_stereo_44KHz.wav
4	143	1	1	1	C	1	1	927	1	poli_8sides 1_whiteLine3.jpg	MediumShort_b16_cut3_MS_stereo_44KHz.wav
4	144	4	3	2	I	2	0	822	1	poli_8sides 11_whiteLine3.jpg	MediumShort_b10_cut1_MS_stereo_44KHz.wav
4	145	2	2	1	C	2	0	862	0	poli_8sides 9_whiteLine3.jpg	MediumShort_e16_cut1_stereo_44KHz.wav
4	146	1	1	1	C	1	1	863	1	poli_8sides 1_whiteLine3.jpg	MediumShort_b16_cut3_MS_stereo_44KHz.wav
4	147	3	3	2	I	1	0	1091	1	poli_8sides 10_whiteLine3.jpg	MediumShort_b10_cut1_MS_stereo_44KHz.wav
4	148	4	3	2	I	2	0	876	1	poli_8sides 11_whiteLine3.jpg	MediumShort_b10_cut1_MS_stereo_44KHz.wav
4	149	2	1	0	C	1	0	807	0	poli_8sides 9_whiteLine3.jpg	MediumShort_b16_cut3_MS_stereo_44KHz.wav
4	150	1	2	0	C	2	1	638	1	poli_8sides 1_whiteLine3.jpg	MediumShort_e16_cut1_stereo_44KHz.wav
4	151	4	4	2	I	2	0	655	0	poli_8sides 11_whiteLine3.jpg	MediumShort_e22_cut1_stereo_44KHz.wav
4	152	3	4	2	I	2	0	592	1	poli_8sides 10_whiteLine3.jpg	MediumShort_e22_cut1_stereo_44KHz.wav
4	153	4	3	2	I	2	0	688	0	poli_8sides 11_whiteLine3.jpg	MediumShort_b10_cut1_MS_stereo_44KHz.wav
4	154	1	1	1	C	1	1	790	1	poli_8sides 1_whiteLine3.jpg	MediumShort_b16_cut3_MS_stereo_44KHz.wav
4	155	2	2	1	C	2	0	1484	0	poli_8sides 9_whiteLine3.jpg	MediumShort_e16_cut1_stereo_44KHz.wav
4	156	3	3	2	I	2	0	1542	0	poli_8sides 10_whiteLine3.jpg	MediumShort_b10_cut1_MS_stereo_44KHz.wav
4	157	4	4	2	I	2	0	1133	1	poli_8sides 11_whiteLine3.jpg	MediumShort_e22_cut1_stereo_44KHz.wav
4	158	3	4	2	I	2	0	683	0	poli_8sides 10_whiteLine3.jpg	MediumShort_e22_cut1_stereo_44KHz.wav
4	159	1	2	0	C	1	0	1177	0	poli_8sides 1_whiteLine3.jpg	MediumShort_e16_cut1_stereo_44KHz.wav
4	160	2	1	0	C	2	1	622	1	poli_8sides 9_whiteLine3.jpg	MediumShort_b16_cut3_MS_stereo_44KHz.wav
4	161	4	3	2	I	1	0	967	1	poli_8sides 11_whiteLine3.jpg	MediumShort_b10_cut1_MS_stereo_44KHz.wav
4	162	2	1	0	C	2	1	702	1	poli_8sides 9_whiteLine3.jpg	MediumShort_b16_cut3_MS_stereo_44KHz.wav
4	163	3	3	2	I	1	0	803	1	poli_8sides 10_whiteLine3.jpg	MediumShort_b10_cut1_MS_stereo_44KHz.wav
4	164	1	2	0	C	2	1	842	1	poli_8sides 1_whiteLine3.jpg	MediumShort_e16_cut1_stereo_44KHz.wav
4	165	2	2	1	C	2	0	1154	0	poli_8sides 9_whiteLine3.jpg	MediumShort_e16_cut1_stereo_44KHz.wav
4	166	4	4	2	I	2	0	695	1	poli_8sides 11_whiteLine3.jpg	MediumShort_e22_cut1_stereo_44KHz.wav
4	167	1	1	1	C	1	1	798	1	poli_8sides 1_whiteLine3.jpg	MediumShort_b16_cut3_MS_stereo_44KHz.wav
4	168	3	4	2	I	2	0	591	0	poli_8sides 10_whiteLine3.jpg	MediumShort_e22_cut1_stereo_44KHz.wav
4	169	1	2	0	C	2	1	120	1	poli_8sides 1_whiteLine3.jpg	MediumShort_e16_cut1_stereo_44KHz.wav
4	170	2	2	1	C	2	0	787	0	poli_8sides 9_whiteLine3.jpg	MediumShort_e16_cut1_stereo_44KHz.wav
4	171	3	4	2	I	1	0	869	1	poli_8sides 10_whiteLine3.jpg	MediumShort_e22_cut1_stereo_44KHz.wav
4	172	4	4	2	I	2	0	1091	0	poli_8sides 11_whiteLine3.jpg	MediumShort_e22_cut1_stereo_44KHz.wav
4	173	1	1	1	C	1	1	872	1	poli_8sides 1_whiteLine3.jpg	MediumShort_b16_cut3_MS_stereo_44KHz.wav
4	174	4	3	2	I	1	0	645	1	poli_8sides 11_whiteLine3.jpg	MediumShort_b10_cut1_MS_stereo_44KHz.wav
4	175	2	1	0	C	0	0	0	0	poli_8sides 9_whiteLine3.jpg	MediumShort_b16_cut3_MS_stereo_44KHz.wav
4	176	3	3	2	I	2	0	867	1	poli_8sides 10_whiteLine3.jpg	MediumShort_b10_cut1_MS_stereo_44KHz.wav
4	177	1	1	1	C	1	1	936	1	poli_8sides 1_whiteLine3.jpg	MediumShort_b16_cut3_MS_stereo_44KHz.wav
4	178	2	1	0	C	2	1	734	1	poli_8sides 9_whiteLine3.jpg	MediumShort_b16_cut3_MS_stereo_44KHz.wav
4	179	3	3	2	I	1	0	640	0	poli_8sides 10_whiteLine3.jpg	MediumShort_b10_cut1_MS_stereo_44KHz.wav
4	180	4	3	2	I	2	0	1169	1	poli_8sides 11_whiteLine3.jpg	MediumShort_b10_cut1_MS_stereo_44KHz.wav
4	181	3	4	2	I	1	0	528	0	poli_8sides 10_whiteLine3.jpg	MediumShort_e22_cut1_stereo_44KHz.wav
4	182	2	2	1	C	2	0	697	0	poli_8sides 9_whiteLine3.jpg	MediumShort_e16_cut1_stereo_44KHz.wav
4	183	1	2	0	C	2	1	580	1	poli_8sides 1_whiteLine3.jpg	MediumShort_e16_cut1_stereo_44KHz.wav
4	184	4	4	2	I	0	0	0	0	poli_8sides 11_whiteLine3.jpg	MediumShort_e22_cut1_stereo_44KHz.wav
4	185	3	4	2	I	1	0	801	0	poli_8sides 10_whiteLine3.jpg	MediumShort_e22_cut1_stereo_44KHz.wav
4	186	4	3	2	I	2	0	462	0	poli_8sides 11_whiteLine3.jpg	MediumShort_b10_cut1_MS_stereo_44KHz.wav
4	187	2	1	0	C	2	1	332	1	poli_8sides 9_whiteLine3.jpg	MediumShort_b16_cut3_MS_stereo_44KHz.wav
4	188	1	2	0	C	2	1	964	1	poli_8sides 1_whiteLine3.jpg	MediumShort_e16_cut1_stereo_44KHz.wav
4	189	4	4	2	I	1	0	1048	0	poli_8sides 11_whiteLine3.jpg	MediumShort_e22_cut1_stereo_44KHz.wav
4	190	2	2	1	C	2	0	574	0	poli_8sides 9_whiteLine3.jpg	MediumShort_e16_cut1_stereo_44KHz.wav
4	191	3	3	2	I	1	0	559	0	poli_8sides 10_whiteLine3.jpg	MediumShort_b10_cut1_MS_stereo_44KHz.wav
4	192	1	1	1	C	2	0	322	0	poli_8sides 1_whiteLine3.jpg	MediumShort_b16_cut3_MS_stereo_44KHz.wav
4	193	3	3	2	I	1	0	612	1	poli_8sides 10_whiteLine3.jpg	MediumShort_b10_cut1_MS_stereo_44KHz.wav
4	194	4	3	2	I	2	0	902	1	poli_8sides 11_whiteLine3.jpg	MediumShort_b10_cut1_MS_stereo_44KHz.wav
4	195	2	2	1	C	1	1	632	1	poli_8sides 9_whiteLine3.jpg	MediumShort_e16_cut1_stereo_44KHz.wav
4	196	1	1	1	C	1	1	835	1	poli_8sides 1_whiteLine3.jpg	MediumShort_b16_cut3_MS_stereo_44KHz.wav
4	197	2	1	0	C	0	0	0	0	poli_8sides 9_whiteLine3.jpg	MediumShort_b16_cut3_MS_stereo_44KHz.wav
4	198	4	4	2	I	2	0	703	1	poli_8sides 11_whiteLine3.jpg	MediumShort_e22_cut1_stereo_44KHz.wav
4	199	1	2	0	C	2	1	899	1	poli_8sides 1_whiteLine3.jpg	MediumShort_e16_cut1_stereo_44KHz.wav
4	200	3	4	2	I	2	0	879	1	poli_8sides 10_whiteLine3.jpg	MediumShort_e22_cut1_stereo_44KHz.wav
