block	trial	Vstim	Astim	match	C/I	resp	result	RT	fb	V-file	A-file
LR

0	1	2	3	1	C	1	0	631	0	poli_8sides 21_whiteLine3.jpg	Practice1_b27_cut1_stereo_44KHz.wav
0	2	1	1	1	C	1	0	651	0	poli_8sides 22_whiteLine3.jpg	Practice2_b27_cut2_stereo_44KHz.wav
0	3	1	2	0	C	2	0	816	0	poli_8sides 22_whiteLine3.jpg	Practice3_b26_cut1_stereo_44KHz.wav
0	4	2	4	0	C	2	0	924	0	poli_8sides 21_whiteLine3.jpg	Practice4_b26_stereo_44KHz.wav
0	5	2	3	1	C	1	0	1185	0	poli_8sides 21_whiteLine3.jpg	Practice1_b27_cut1_stereo_44KHz.wav
0	6	2	4	0	C	1	1	1797	1	poli_8sides 21_whiteLine3.jpg	Practice4_b26_stereo_44KHz.wav
0	7	1	2	0	C	2	0	901	0	poli_8sides 22_whiteLine3.jpg	Practice3_b26_cut1_stereo_44KHz.wav
0	8	1	1	1	C	1	0	1139	0	poli_8sides 22_whiteLine3.jpg	Practice2_b27_cut2_stereo_44KHz.wav
0	9	1	1	1	C	0	0	0	0	poli_8sides 22_whiteLine3.jpg	Practice2_b27_cut2_stereo_44KHz.wav
0	10	2	4	0	C	1	1	1071	1	poli_8sides 21_whiteLine3.jpg	Practice4_b26_stereo_44KHz.wav
0	11	2	3	1	C	2	1	1129	1	poli_8sides 21_whiteLine3.jpg	Practice1_b27_cut1_stereo_44KHz.wav
0	12	1	2	0	C	2	0	1146	0	poli_8sides 22_whiteLine3.jpg	Practice3_b26_cut1_stereo_44KHz.wav
0	13	2	3	1	C	2	1	1251	1	poli_8sides 21_whiteLine3.jpg	Practice1_b27_cut1_stereo_44KHz.wav
0	14	1	1	1	C	2	1	1439	1	poli_8sides 22_whiteLine3.jpg	Practice2_b27_cut2_stereo_44KHz.wav
0	15	2	4	0	C	2	0	1435	0	poli_8sides 21_whiteLine3.jpg	Practice4_b26_stereo_44KHz.wav
0	16	1	2	0	C	2	0	1635	0	poli_8sides 22_whiteLine3.jpg	Practice3_b26_cut1_stereo_44KHz.wav
0	17	2	4	0	C	1	1	1663	1	poli_8sides 21_whiteLine3.jpg	Practice4_b26_stereo_44KHz.wav
0	18	2	3	1	C	2	1	1194	1	poli_8sides 21_whiteLine3.jpg	Practice1_b27_cut1_stereo_44KHz.wav
0	19	1	1	1	C	2	1	1393	1	poli_8sides 22_whiteLine3.jpg	Practice2_b27_cut2_stereo_44KHz.wav
0	20	1	2	0	C	1	1	1144	1	poli_8sides 22_whiteLine3.jpg	Practice3_b26_cut1_stereo_44KHz.wav
0	21	1	1	1	C	2	1	1565	1	poli_8sides 22_whiteLine3.jpg	Practice2_b27_cut2_stereo_44KHz.wav
0	22	2	4	0	C	1	1	825	1	poli_8sides 21_whiteLine3.jpg	Practice4_b26_stereo_44KHz.wav
0	23	2	3	1	C	2	1	869	1	poli_8sides 21_whiteLine3.jpg	Practice1_b27_cut1_stereo_44KHz.wav
0	24	1	2	0	C	1	1	1152	1	poli_8sides 22_whiteLine3.jpg	Practice3_b26_cut1_stereo_44KHz.wav
0	25	1	1	1	C	2	1	756	1	poli_8sides 22_whiteLine3.jpg	Practice2_b27_cut2_stereo_44KHz.wav
0	26	2	4	0	C	1	1	1286	1	poli_8sides 21_whiteLine3.jpg	Practice4_b26_stereo_44KHz.wav
0	27	2	3	1	C	2	1	695	1	poli_8sides 21_whiteLine3.jpg	Practice1_b27_cut1_stereo_44KHz.wav
0	28	1	2	0	C	2	0	1153	0	poli_8sides 22_whiteLine3.jpg	Practice3_b26_cut1_stereo_44KHz.wav
0	29	1	1	1	C	2	1	1107	1	poli_8sides 22_whiteLine3.jpg	Practice2_b27_cut2_stereo_44KHz.wav
0	30	1	2	0	C	1	1	1286	1	poli_8sides 22_whiteLine3.jpg	Practice3_b26_cut1_stereo_44KHz.wav
avg_resp = 1201
1	1	4	4	2	I	1	0	800	1	poli_8sides 8_whiteLine3.jpg	Short_b22_cut1_stereo_44KHz.wav
1	2	2	2	1	C	2	1	1411	1	poli_8sides 18_whiteLine3.jpg	Short_b23_cut1_stereo_44KHz.wav
1	3	1	2	0	C	2	0	1187	0	poli_8sides 7_whiteLine3.jpg	Short_b23_cut1_stereo_44KHz.wav
1	4	3	4	2	I	1	0	1671	0	poli_8sides 12_whiteLine3.jpg	Short_b22_cut1_stereo_44KHz.wav
1	5	4	3	2	I	2	0	969	0	poli_8sides 8_whiteLine3.jpg	Short_b09_cut1_stereo_44KHz.wav
1	6	3	3	2	I	2	0	1742	1	poli_8sides 12_whiteLine3.jpg	Short_b09_cut1_stereo_44KHz.wav
1	7	1	1	1	C	2	1	1687	1	poli_8sides 7_whiteLine3.jpg	Short_b20_cut1_stereo_44KHz.wav
1	8	2	1	0	C	1	1	1444	1	poli_8sides 18_whiteLine3.jpg	Short_b20_cut1_stereo_44KHz.wav
1	9	1	1	1	C	2	1	1141	1	poli_8sides 7_whiteLine3.jpg	Short_b20_cut1_stereo_44KHz.wav
1	10	4	3	2	I	1	0	1301	1	poli_8sides 8_whiteLine3.jpg	Short_b09_cut1_stereo_44KHz.wav
1	11	2	1	0	C	1	1	1472	1	poli_8sides 18_whiteLine3.jpg	Short_b20_cut1_stereo_44KHz.wav
1	12	3	4	2	I	1	0	1714	0	poli_8sides 12_whiteLine3.jpg	Short_b22_cut1_stereo_44KHz.wav
1	13	1	2	0	C	1	1	1391	1	poli_8sides 7_whiteLine3.jpg	Short_b23_cut1_stereo_44KHz.wav
1	14	3	3	2	I	0	0	0	0	poli_8sides 12_whiteLine3.jpg	Short_b09_cut1_stereo_44KHz.wav
1	15	2	2	1	C	2	1	1357	1	poli_8sides 18_whiteLine3.jpg	Short_b23_cut1_stereo_44KHz.wav
1	16	4	4	2	I	2	0	1143	0	poli_8sides 8_whiteLine3.jpg	Short_b22_cut1_stereo_44KHz.wav
1	17	3	4	2	I	2	0	1115	0	poli_8sides 12_whiteLine3.jpg	Short_b22_cut1_stereo_44KHz.wav
1	18	2	2	1	C	2	1	1384	1	poli_8sides 18_whiteLine3.jpg	Short_b23_cut1_stereo_44KHz.wav
1	19	4	4	2	I	2	0	1305	1	poli_8sides 8_whiteLine3.jpg	Short_b22_cut1_stereo_44KHz.wav
1	20	1	1	1	C	2	1	1497	1	poli_8sides 7_whiteLine3.jpg	Short_b20_cut1_stereo_44KHz.wav
1	21	3	3	2	I	1	0	1963	1	poli_8sides 12_whiteLine3.jpg	Short_b09_cut1_stereo_44KHz.wav
1	22	4	3	2	I	2	0	921	0	poli_8sides 8_whiteLine3.jpg	Short_b09_cut1_stereo_44KHz.wav
1	23	1	2	0	C	1	1	1308	1	poli_8sides 7_whiteLine3.jpg	Short_b23_cut1_stereo_44KHz.wav
1	24	2	1	0	C	1	1	1175	1	poli_8sides 18_whiteLine3.jpg	Short_b20_cut1_stereo_44KHz.wav
1	25	1	1	1	C	2	1	938	1	poli_8sides 7_whiteLine3.jpg	Short_b20_cut1_stereo_44KHz.wav
1	26	4	4	2	I	1	0	1170	0	poli_8sides 8_whiteLine3.jpg	Short_b22_cut1_stereo_44KHz.wav
1	27	2	1	0	C	1	1	1027	1	poli_8sides 18_whiteLine3.jpg	Short_b20_cut1_stereo_44KHz.wav
1	28	3	3	2	I	2	0	1134	0	poli_8sides 12_whiteLine3.jpg	Short_b09_cut1_stereo_44KHz.wav
1	29	2	2	1	C	2	1	1103	1	poli_8sides 18_whiteLine3.jpg	Short_b23_cut1_stereo_44KHz.wav
1	30	3	4	2	I	1	0	1568	0	poli_8sides 12_whiteLine3.jpg	Short_b22_cut1_stereo_44KHz.wav
1	31	4	3	2	I	0	0	0	0	poli_8sides 8_whiteLine3.jpg	Short_b09_cut1_stereo_44KHz.wav
1	32	1	2	0	C	2	0	1564	0	poli_8sides 7_whiteLine3.jpg	Short_b23_cut1_stereo_44KHz.wav
1	33	4	3	2	I	1	0	1262	1	poli_8sides 8_whiteLine3.jpg	Short_b09_cut1_stereo_44KHz.wav
1	34	2	1	0	C	1	1	1151	1	poli_8sides 18_whiteLine3.jpg	Short_b20_cut1_stereo_44KHz.wav
1	35	1	2	0	C	1	1	1878	1	poli_8sides 7_whiteLine3.jpg	Short_b23_cut1_stereo_44KHz.wav
1	36	3	4	2	I	2	0	1639	0	poli_8sides 12_whiteLine3.jpg	Short_b22_cut1_stereo_44KHz.wav
1	37	2	2	1	C	2	1	921	1	poli_8sides 18_whiteLine3.jpg	Short_b23_cut1_stereo_44KHz.wav
1	38	1	1	1	C	2	1	1172	1	poli_8sides 7_whiteLine3.jpg	Short_b20_cut1_stereo_44KHz.wav
1	39	3	3	2	I	1	0	1293	1	poli_8sides 12_whiteLine3.jpg	Short_b09_cut1_stereo_44KHz.wav
1	40	4	4	2	I	1	0	1849	0	poli_8sides 8_whiteLine3.jpg	Short_b22_cut1_stereo_44KHz.wav
1	41	2	1	0	C	1	1	909	1	poli_8sides 18_whiteLine3.jpg	Short_b20_cut1_stereo_44KHz.wav
1	42	3	4	2	I	2	0	1671	1	poli_8sides 12_whiteLine3.jpg	Short_b22_cut1_stereo_44KHz.wav
1	43	1	1	1	C	2	1	1166	1	poli_8sides 7_whiteLine3.jpg	Short_b20_cut1_stereo_44KHz.wav
1	44	4	3	2	I	2	0	1493	0	poli_8sides 8_whiteLine3.jpg	Short_b09_cut1_stereo_44KHz.wav
1	45	1	2	0	C	2	0	839	0	poli_8sides 7_whiteLine3.jpg	Short_b23_cut1_stereo_44KHz.wav
1	46	2	2	1	C	2	1	1004	1	poli_8sides 18_whiteLine3.jpg	Short_b23_cut1_stereo_44KHz.wav
1	47	3	3	2	I	1	0	1392	0	poli_8sides 12_whiteLine3.jpg	Short_b09_cut1_stereo_44KHz.wav
1	48	4	4	2	I	0	0	0	0	poli_8sides 8_whiteLine3.jpg	Short_b22_cut1_stereo_44KHz.wav
1	49	1	1	1	C	2	1	1016	1	poli_8sides 7_whiteLine3.jpg	Short_b20_cut1_stereo_44KHz.wav
1	50	4	3	2	I	1	0	1060	1	poli_8sides 8_whiteLine3.jpg	Short_b09_cut1_stereo_44KHz.wav
1	51	3	3	2	I	2	0	872	0	poli_8sides 12_whiteLine3.jpg	Short_b09_cut1_stereo_44KHz.wav
1	52	2	2	1	C	2	1	779	1	poli_8sides 18_whiteLine3.jpg	Short_b23_cut1_stereo_44KHz.wav
1	53	3	4	2	I	2	0	1047	1	poli_8sides 12_whiteLine3.jpg	Short_b22_cut1_stereo_44KHz.wav
1	54	2	1	0	C	1	1	1006	1	poli_8sides 18_whiteLine3.jpg	Short_b20_cut1_stereo_44KHz.wav
1	55	4	4	2	I	2	0	1057	0	poli_8sides 8_whiteLine3.jpg	Short_b22_cut1_stereo_44KHz.wav
1	56	1	2	0	C	1	1	1171	1	poli_8sides 7_whiteLine3.jpg	Short_b23_cut1_stereo_44KHz.wav
1	57	4	4	2	I	1	0	1205	1	poli_8sides 8_whiteLine3.jpg	Short_b22_cut1_stereo_44KHz.wav
1	58	3	4	2	I	2	0	1195	1	poli_8sides 12_whiteLine3.jpg	Short_b22_cut1_stereo_44KHz.wav
1	59	1	1	1	C	2	1	950	1	poli_8sides 7_whiteLine3.jpg	Short_b20_cut1_stereo_44KHz.wav
1	60	2	1	0	C	1	1	819	1	poli_8sides 18_whiteLine3.jpg	Short_b20_cut1_stereo_44KHz.wav
1	61	1	2	0	C	1	1	904	1	poli_8sides 7_whiteLine3.jpg	Short_b23_cut1_stereo_44KHz.wav
1	62	4	3	2	I	1	0	1007	1	poli_8sides 8_whiteLine3.jpg	Short_b09_cut1_stereo_44KHz.wav
1	63	3	3	2	I	1	0	1091	1	poli_8sides 12_whiteLine3.jpg	Short_b09_cut1_stereo_44KHz.wav
1	64	2	2	1	C	2	1	896	1	poli_8sides 18_whiteLine3.jpg	Short_b23_cut1_stereo_44KHz.wav
1	65	1	2	0	C	1	1	1602	1	poli_8sides 7_whiteLine3.jpg	Short_b23_cut1_stereo_44KHz.wav
1	66	3	4	2	I	2	0	1049	1	poli_8sides 12_whiteLine3.jpg	Short_b22_cut1_stereo_44KHz.wav
1	67	4	4	2	I	1	0	768	0	poli_8sides 8_whiteLine3.jpg	Short_b22_cut1_stereo_44KHz.wav
1	68	2	2	1	C	2	1	680	1	poli_8sides 18_whiteLine3.jpg	Short_b23_cut1_stereo_44KHz.wav
1	69	1	1	1	C	2	1	1078	1	poli_8sides 7_whiteLine3.jpg	Short_b20_cut1_stereo_44KHz.wav
1	70	3	3	2	I	1	0	1410	1	poli_8sides 12_whiteLine3.jpg	Short_b09_cut1_stereo_44KHz.wav
1	71	4	3	2	I	1	0	731	0	poli_8sides 8_whiteLine3.jpg	Short_b09_cut1_stereo_44KHz.wav
1	72	2	1	0	C	1	1	1192	1	poli_8sides 18_whiteLine3.jpg	Short_b20_cut1_stereo_44KHz.wav
1	73	3	4	2	I	1	0	1045	1	poli_8sides 12_whiteLine3.jpg	Short_b22_cut1_stereo_44KHz.wav
1	74	4	4	2	I	1	0	790	1	poli_8sides 8_whiteLine3.jpg	Short_b22_cut1_stereo_44KHz.wav
1	75	1	1	1	C	2	1	884	1	poli_8sides 7_whiteLine3.jpg	Short_b20_cut1_stereo_44KHz.wav
1	76	2	2	1	C	2	1	713	1	poli_8sides 18_whiteLine3.jpg	Short_b23_cut1_stereo_44KHz.wav
1	77	4	3	2	I	1	0	832	0	poli_8sides 8_whiteLine3.jpg	Short_b09_cut1_stereo_44KHz.wav
1	78	1	2	0	C	2	0	676	0	poli_8sides 7_whiteLine3.jpg	Short_b23_cut1_stereo_44KHz.wav
1	79	2	1	0	C	1	1	900	1	poli_8sides 18_whiteLine3.jpg	Short_b20_cut1_stereo_44KHz.wav
1	80	3	3	2	I	1	0	778	1	poli_8sides 12_whiteLine3.jpg	Short_b09_cut1_stereo_44KHz.wav
1	81	2	1	0	C	1	1	650	1	poli_8sides 18_whiteLine3.jpg	Short_b20_cut1_stereo_44KHz.wav
1	82	3	3	2	I	1	0	829	0	poli_8sides 12_whiteLine3.jpg	Short_b09_cut1_stereo_44KHz.wav
1	83	4	4	2	I	1	0	663	0	poli_8sides 8_whiteLine3.jpg	Short_b22_cut1_stereo_44KHz.wav
1	84	1	1	1	C	2	1	907	1	poli_8sides 7_whiteLine3.jpg	Short_b20_cut1_stereo_44KHz.wav
1	85	2	2	1	C	2	1	746	1	poli_8sides 18_whiteLine3.jpg	Short_b23_cut1_stereo_44KHz.wav
1	86	1	2	0	C	2	0	816	0	poli_8sides 7_whiteLine3.jpg	Short_b23_cut1_stereo_44KHz.wav
1	87	3	4	2	I	2	0	1351	0	poli_8sides 12_whiteLine3.jpg	Short_b22_cut1_stereo_44KHz.wav
1	88	4	3	2	I	1	0	1034	1	poli_8sides 8_whiteLine3.jpg	Short_b09_cut1_stereo_44KHz.wav
1	89	1	1	1	C	2	1	1365	1	poli_8sides 7_whiteLine3.jpg	Short_b20_cut1_stereo_44KHz.wav
1	90	4	4	2	I	1	0	985	1	poli_8sides 8_whiteLine3.jpg	Short_b22_cut1_stereo_44KHz.wav
1	91	3	3	2	I	1	0	916	1	poli_8sides 12_whiteLine3.jpg	Short_b09_cut1_stereo_44KHz.wav
1	92	2	2	1	C	2	1	771	1	poli_8sides 18_whiteLine3.jpg	Short_b23_cut1_stereo_44KHz.wav
1	93	3	4	2	I	1	0	1212	1	poli_8sides 12_whiteLine3.jpg	Short_b22_cut1_stereo_44KHz.wav
1	94	2	1	0	C	2	0	703	0	poli_8sides 18_whiteLine3.jpg	Short_b20_cut1_stereo_44KHz.wav
1	95	1	2	0	C	2	0	789	0	poli_8sides 7_whiteLine3.jpg	Short_b23_cut1_stereo_44KHz.wav
1	96	4	3	2	I	1	0	1337	1	poli_8sides 8_whiteLine3.jpg	Short_b09_cut1_stereo_44KHz.wav
1	97	2	1	0	C	1	1	766	1	poli_8sides 18_whiteLine3.jpg	Short_b20_cut1_stereo_44KHz.wav
1	98	4	3	2	I	1	0	944	1	poli_8sides 8_whiteLine3.jpg	Short_b09_cut1_stereo_44KHz.wav
1	99	3	3	2	I	1	0	826	0	poli_8sides 12_whiteLine3.jpg	Short_b09_cut1_stereo_44KHz.wav
1	100	1	1	1	C	2	1	1087	1	poli_8sides 7_whiteLine3.jpg	Short_b20_cut1_stereo_44KHz.wav
1	101	2	2	1	C	2	1	855	1	poli_8sides 18_whiteLine3.jpg	Short_b23_cut1_stereo_44KHz.wav
1	102	4	4	2	I	1	0	1155	0	poli_8sides 8_whiteLine3.jpg	Short_b22_cut1_stereo_44KHz.wav
1	103	3	4	2	I	1	0	842	0	poli_8sides 12_whiteLine3.jpg	Short_b22_cut1_stereo_44KHz.wav
1	104	1	2	0	C	1	1	1577	1	poli_8sides 7_whiteLine3.jpg	Short_b23_cut1_stereo_44KHz.wav
1	105	4	4	2	I	1	0	1465	1	poli_8sides 8_whiteLine3.jpg	Short_b22_cut1_stereo_44KHz.wav
1	106	2	2	1	C	2	1	745	1	poli_8sides 18_whiteLine3.jpg	Short_b23_cut1_stereo_44KHz.wav
1	107	3	3	2	I	2	0	1534	1	poli_8sides 12_whiteLine3.jpg	Short_b09_cut1_stereo_44KHz.wav
1	108	1	1	1	C	2	1	1068	1	poli_8sides 7_whiteLine3.jpg	Short_b20_cut1_stereo_44KHz.wav
1	109	2	1	0	C	1	1	799	1	poli_8sides 18_whiteLine3.jpg	Short_b20_cut1_stereo_44KHz.wav
1	110	1	2	0	C	2	0	869	0	poli_8sides 7_whiteLine3.jpg	Short_b23_cut1_stereo_44KHz.wav
1	111	4	3	2	I	1	0	954	1	poli_8sides 8_whiteLine3.jpg	Short_b09_cut1_stereo_44KHz.wav
1	112	3	4	2	I	2	0	1645	1	poli_8sides 12_whiteLine3.jpg	Short_b22_cut1_stereo_44KHz.wav
1	113	4	3	2	I	1	0	939	0	poli_8sides 8_whiteLine3.jpg	Short_b09_cut1_stereo_44KHz.wav
1	114	2	2	1	C	2	1	1169	1	poli_8sides 18_whiteLine3.jpg	Short_b23_cut1_stereo_44KHz.wav
1	115	3	3	2	I	0	0	0	0	poli_8sides 12_whiteLine3.jpg	Short_b09_cut1_stereo_44KHz.wav
1	116	1	2	0	C	1	1	1089	1	poli_8sides 7_whiteLine3.jpg	Short_b23_cut1_stereo_44KHz.wav
1	117	4	4	2	I	2	0	1257	0	poli_8sides 8_whiteLine3.jpg	Short_b22_cut1_stereo_44KHz.wav
1	118	3	4	2	I	2	0	1225	1	poli_8sides 12_whiteLine3.jpg	Short_b22_cut1_stereo_44KHz.wav
1	119	1	1	1	C	2	1	985	1	poli_8sides 7_whiteLine3.jpg	Short_b20_cut1_stereo_44KHz.wav
1	120	2	1	0	C	1	1	584	1	poli_8sides 18_whiteLine3.jpg	Short_b20_cut1_stereo_44KHz.wav
1	121	3	3	2	I	2	0	1128	1	poli_8sides 12_whiteLine3.jpg	Short_b09_cut1_stereo_44KHz.wav
1	122	1	1	1	C	2	1	748	1	poli_8sides 7_whiteLine3.jpg	Short_b20_cut1_stereo_44KHz.wav
1	123	4	3	2	I	1	0	1179	0	poli_8sides 8_whiteLine3.jpg	Short_b09_cut1_stereo_44KHz.wav
1	124	2	2	1	C	2	1	736	1	poli_8sides 18_whiteLine3.jpg	Short_b23_cut1_stereo_44KHz.wav
1	125	4	4	2	I	2	0	1701	0	poli_8sides 8_whiteLine3.jpg	Short_b22_cut1_stereo_44KHz.wav
1	126	1	2	0	C	1	1	1044	1	poli_8sides 7_whiteLine3.jpg	Short_b23_cut1_stereo_44KHz.wav
1	127	2	1	0	C	1	1	736	1	poli_8sides 18_whiteLine3.jpg	Short_b20_cut1_stereo_44KHz.wav
1	128	3	4	2	I	2	0	1186	1	poli_8sides 12_whiteLine3.jpg	Short_b22_cut1_stereo_44KHz.wav
1	129	1	2	0	C	1	1	848	1	poli_8sides 7_whiteLine3.jpg	Short_b23_cut1_stereo_44KHz.wav
1	130	3	3	2	I	2	0	1331	0	poli_8sides 12_whiteLine3.jpg	Short_b09_cut1_stereo_44KHz.wav
1	131	2	2	1	C	2	1	885	1	poli_8sides 18_whiteLine3.jpg	Short_b23_cut1_stereo_44KHz.wav
1	132	4	4	2	I	2	0	970	1	poli_8sides 8_whiteLine3.jpg	Short_b22_cut1_stereo_44KHz.wav
1	133	2	1	0	C	1	1	917	1	poli_8sides 18_whiteLine3.jpg	Short_b20_cut1_stereo_44KHz.wav
1	134	4	3	2	I	2	0	1897	1	poli_8sides 8_whiteLine3.jpg	Short_b09_cut1_stereo_44KHz.wav
1	135	3	4	2	I	1	0	1890	0	poli_8sides 12_whiteLine3.jpg	Short_b22_cut1_stereo_44KHz.wav
1	136	1	1	1	C	2	1	1252	1	poli_8sides 7_whiteLine3.jpg	Short_b20_cut1_stereo_44KHz.wav
1	137	4	3	2	I	1	0	1197	0	poli_8sides 8_whiteLine3.jpg	Short_b09_cut1_stereo_44KHz.wav
1	138	3	4	2	I	2	0	1068	0	poli_8sides 12_whiteLine3.jpg	Short_b22_cut1_stereo_44KHz.wav
1	139	1	1	1	C	2	1	1329	1	poli_8sides 7_whiteLine3.jpg	Short_b20_cut1_stereo_44KHz.wav
1	140	2	2	1	C	2	1	807	1	poli_8sides 18_whiteLine3.jpg	Short_b23_cut1_stereo_44KHz.wav
1	141	1	2	0	C	2	0	1021	0	poli_8sides 7_whiteLine3.jpg	Short_b23_cut1_stereo_44KHz.wav
1	142	3	3	2	I	2	0	1386	0	poli_8sides 12_whiteLine3.jpg	Short_b09_cut1_stereo_44KHz.wav
1	143	4	4	2	I	1	0	923	0	poli_8sides 8_whiteLine3.jpg	Short_b22_cut1_stereo_44KHz.wav
1	144	2	1	0	C	1	1	1051	1	poli_8sides 18_whiteLine3.jpg	Short_b20_cut1_stereo_44KHz.wav
1	145	1	1	1	C	2	1	660	1	poli_8sides 7_whiteLine3.jpg	Short_b20_cut1_stereo_44KHz.wav
1	146	4	4	2	I	2	0	1412	0	poli_8sides 8_whiteLine3.jpg	Short_b22_cut1_stereo_44KHz.wav
1	147	3	4	2	I	2	0	1587	0	poli_8sides 12_whiteLine3.jpg	Short_b22_cut1_stereo_44KHz.wav
1	148	2	2	1	C	2	1	1238	1	poli_8sides 18_whiteLine3.jpg	Short_b23_cut1_stereo_44KHz.wav
1	149	3	3	2	I	1	0	1216	1	poli_8sides 12_whiteLine3.jpg	Short_b09_cut1_stereo_44KHz.wav
1	150	1	2	0	C	1	1	1432	1	poli_8sides 7_whiteLine3.jpg	Short_b23_cut1_stereo_44KHz.wav
1	151	2	1	0	C	1	1	1106	1	poli_8sides 18_whiteLine3.jpg	Short_b20_cut1_stereo_44KHz.wav
1	152	4	3	2	I	2	0	1580	1	poli_8sides 8_whiteLine3.jpg	Short_b09_cut1_stereo_44KHz.wav
1	153	3	4	2	I	2	0	1245	0	poli_8sides 12_whiteLine3.jpg	Short_b22_cut1_stereo_44KHz.wav
1	154	4	4	2	I	1	0	1150	0	poli_8sides 8_whiteLine3.jpg	Short_b22_cut1_stereo_44KHz.wav
1	155	2	2	1	C	2	1	1049	1	poli_8sides 18_whiteLine3.jpg	Short_b23_cut1_stereo_44KHz.wav
1	156	1	1	1	C	2	1	989	1	poli_8sides 7_whiteLine3.jpg	Short_b20_cut1_stereo_44KHz.wav
1	157	2	1	0	C	1	1	1057	1	poli_8sides 18_whiteLine3.jpg	Short_b20_cut1_stereo_44KHz.wav
1	158	3	3	2	I	1	0	1805	0	poli_8sides 12_whiteLine3.jpg	Short_b09_cut1_stereo_44KHz.wav
1	159	4	3	2	I	2	0	1722	1	poli_8sides 8_whiteLine3.jpg	Short_b09_cut1_stereo_44KHz.wav
1	160	1	2	0	C	2	0	1072	0	poli_8sides 7_whiteLine3.jpg	Short_b23_cut1_stereo_44KHz.wav
1	161	3	3	2	I	1	0	1176	1	poli_8sides 12_whiteLine3.jpg	Short_b09_cut1_stereo_44KHz.wav
1	162	1	1	1	C	2	1	858	1	poli_8sides 7_whiteLine3.jpg	Short_b20_cut1_stereo_44KHz.wav
1	163	2	2	1	C	2	1	869	1	poli_8sides 18_whiteLine3.jpg	Short_b23_cut1_stereo_44KHz.wav
1	164	4	4	2	I	1	0	1530	1	poli_8sides 8_whiteLine3.jpg	Short_b22_cut1_stereo_44KHz.wav
1	165	2	1	0	C	1	1	869	1	poli_8sides 18_whiteLine3.jpg	Short_b20_cut1_stereo_44KHz.wav
1	166	4	3	2	I	2	0	1147	0	poli_8sides 8_whiteLine3.jpg	Short_b09_cut1_stereo_44KHz.wav
1	167	1	2	0	C	1	1	970	1	poli_8sides 7_whiteLine3.jpg	Short_b23_cut1_stereo_44KHz.wav
1	168	3	4	2	I	2	0	1148	0	poli_8sides 12_whiteLine3.jpg	Short_b22_cut1_stereo_44KHz.wav
1	169	1	2	0	C	1	1	955	1	poli_8sides 7_whiteLine3.jpg	Short_b23_cut1_stereo_44KHz.wav
1	170	2	1	0	C	1	1	685	1	poli_8sides 18_whiteLine3.jpg	Short_b20_cut1_stereo_44KHz.wav
1	171	4	3	2	I	2	0	933	1	poli_8sides 8_whiteLine3.jpg	Short_b09_cut1_stereo_44KHz.wav
1	172	3	4	2	I	2	0	1365	0	poli_8sides 12_whiteLine3.jpg	Short_b22_cut1_stereo_44KHz.wav
1	173	4	4	2	I	1	0	936	1	poli_8sides 8_whiteLine3.jpg	Short_b22_cut1_stereo_44KHz.wav
1	174	3	3	2	I	1	0	1122	0	poli_8sides 12_whiteLine3.jpg	Short_b09_cut1_stereo_44KHz.wav
1	175	1	1	1	C	2	1	921	1	poli_8sides 7_whiteLine3.jpg	Short_b20_cut1_stereo_44KHz.wav
1	176	2	2	1	C	2	1	864	1	poli_8sides 18_whiteLine3.jpg	Short_b23_cut1_stereo_44KHz.wav
1	177	3	3	2	I	1	0	1149	0	poli_8sides 12_whiteLine3.jpg	Short_b09_cut1_stereo_44KHz.wav
1	178	1	1	1	C	2	1	1066	1	poli_8sides 7_whiteLine3.jpg	Short_b20_cut1_stereo_44KHz.wav
1	179	4	3	2	I	2	0	1346	0	poli_8sides 8_whiteLine3.jpg	Short_b09_cut1_stereo_44KHz.wav
1	180	2	2	1	C	2	1	758	1	poli_8sides 18_whiteLine3.jpg	Short_b23_cut1_stereo_44KHz.wav
1	181	1	2	0	C	1	1	1222	1	poli_8sides 7_whiteLine3.jpg	Short_b23_cut1_stereo_44KHz.wav
1	182	3	4	2	I	2	0	1819	1	poli_8sides 12_whiteLine3.jpg	Short_b22_cut1_stereo_44KHz.wav
1	183	2	1	0	C	1	1	1060	1	poli_8sides 18_whiteLine3.jpg	Short_b20_cut1_stereo_44KHz.wav
1	184	4	4	2	I	1	0	1348	1	poli_8sides 8_whiteLine3.jpg	Short_b22_cut1_stereo_44KHz.wav
1	185	2	2	1	C	2	1	710	1	poli_8sides 18_whiteLine3.jpg	Short_b23_cut1_stereo_44KHz.wav
1	186	3	3	2	I	1	0	1391	0	poli_8sides 12_whiteLine3.jpg	Short_b09_cut1_stereo_44KHz.wav
1	187	1	2	0	C	1	1	1011	1	poli_8sides 7_whiteLine3.jpg	Short_b23_cut1_stereo_44KHz.wav
1	188	4	4	2	I	1	0	809	0	poli_8sides 8_whiteLine3.jpg	Short_b22_cut1_stereo_44KHz.wav
1	189	2	1	0	C	1	1	827	1	poli_8sides 18_whiteLine3.jpg	Short_b20_cut1_stereo_44KHz.wav
1	190	4	3	2	I	1	0	1227	0	poli_8sides 8_whiteLine3.jpg	Short_b09_cut1_stereo_44KHz.wav
1	191	1	1	1	C	2	1	1021	1	poli_8sides 7_whiteLine3.jpg	Short_b20_cut1_stereo_44KHz.wav
1	192	3	4	2	I	2	0	1702	1	poli_8sides 12_whiteLine3.jpg	Short_b22_cut1_stereo_44KHz.wav
1	193	1	2	0	C	1	1	917	1	poli_8sides 7_whiteLine3.jpg	Short_b23_cut1_stereo_44KHz.wav
1	194	4	3	2	I	1	0	1160	1	poli_8sides 8_whiteLine3.jpg	Short_b09_cut1_stereo_44KHz.wav
1	195	3	3	2	I	1	0	1320	0	poli_8sides 12_whiteLine3.jpg	Short_b09_cut1_stereo_44KHz.wav
1	196	2	2	1	C	2	1	905	1	poli_8sides 18_whiteLine3.jpg	Short_b23_cut1_stereo_44KHz.wav
1	197	3	4	2	I	2	0	1341	1	poli_8sides 12_whiteLine3.jpg	Short_b22_cut1_stereo_44KHz.wav
1	198	4	4	2	I	1	0	1108	1	poli_8sides 8_whiteLine3.jpg	Short_b22_cut1_stereo_44KHz.wav
1	199	1	1	1	C	2	1	1211	1	poli_8sides 7_whiteLine3.jpg	Short_b20_cut1_stereo_44KHz.wav
1	200	2	1	0	C	1	1	804	1	poli_8sides 18_whiteLine3.jpg	Short_b20_cut1_stereo_44KHz.wav
2	1	3	4	2	I	2	0	1550	1	poli_8sides 6_whiteLine3.jpg	MediumLong_e04_stereo_44KHz.wav
2	2	1	2	0	C	1	1	1387	1	poli_8sides 16_whiteLine3.jpg	Medium_e26_stereo_44KHz.wav
2	3	4	3	2	I	1	0	1629	0	poli_8sides 11_whiteLine3.jpg	MediumLong_b10_cut2_L_stereo_44KHz.wav
2	4	2	2	1	C	1	0	1509	0	poli_8sides 5_whiteLine3.jpg	Medium_e26_stereo_44KHz.wav
2	5	3	3	2	I	1	0	1702	0	poli_8sides 6_whiteLine3.jpg	MediumLong_b10_cut2_L_stereo_44KHz.wav
2	6	2	1	0	C	1	1	1351	1	poli_8sides 5_whiteLine3.jpg	Medium_e13_stereo_44KHz.wav
2	7	1	1	1	C	2	1	1013	1	poli_8sides 16_whiteLine3.jpg	Medium_e13_stereo_44KHz.wav
2	8	4	4	2	I	1	0	1776	1	poli_8sides 11_whiteLine3.jpg	MediumLong_e04_stereo_44KHz.wav
2	9	1	1	1	C	2	1	1759	1	poli_8sides 16_whiteLine3.jpg	Medium_e13_stereo_44KHz.wav
2	10	4	3	2	I	0	0	0	0	poli_8sides 11_whiteLine3.jpg	MediumLong_b10_cut2_L_stereo_44KHz.wav
2	11	2	2	1	C	1	0	1216	0	poli_8sides 5_whiteLine3.jpg	Medium_e26_stereo_44KHz.wav
2	12	3	3	2	I	0	0	0	0	poli_8sides 6_whiteLine3.jpg	MediumLong_b10_cut2_L_stereo_44KHz.wav
2	13	4	4	2	I	2	0	1395	0	poli_8sides 11_whiteLine3.jpg	MediumLong_e04_stereo_44KHz.wav
2	14	2	1	0	C	1	1	828	1	poli_8sides 5_whiteLine3.jpg	Medium_e13_stereo_44KHz.wav
2	15	3	4	2	I	2	0	892	1	poli_8sides 6_whiteLine3.jpg	MediumLong_e04_stereo_44KHz.wav
2	16	1	2	0	C	1	1	1282	1	poli_8sides 16_whiteLine3.jpg	Medium_e26_stereo_44KHz.wav
2	17	2	2	1	C	2	1	848	1	poli_8sides 5_whiteLine3.jpg	Medium_e26_stereo_44KHz.wav
2	18	1	2	0	C	1	1	1102	1	poli_8sides 16_whiteLine3.jpg	Medium_e26_stereo_44KHz.wav
2	19	4	4	2	I	2	0	956	0	poli_8sides 11_whiteLine3.jpg	MediumLong_e04_stereo_44KHz.wav
2	20	3	4	2	I	2	0	1031	0	poli_8sides 6_whiteLine3.jpg	MediumLong_e04_stereo_44KHz.wav
2	21	2	1	0	C	1	1	1083	1	poli_8sides 5_whiteLine3.jpg	Medium_e13_stereo_44KHz.wav
2	22	1	1	1	C	2	1	1102	1	poli_8sides 16_whiteLine3.jpg	Medium_e13_stereo_44KHz.wav
2	23	3	3	2	I	2	0	1916	0	poli_8sides 6_whiteLine3.jpg	MediumLong_b10_cut2_L_stereo_44KHz.wav
2	24	4	3	2	I	2	0	817	1	poli_8sides 11_whiteLine3.jpg	MediumLong_b10_cut2_L_stereo_44KHz.wav
2	25	3	4	2	I	2	0	1292	0	poli_8sides 6_whiteLine3.jpg	MediumLong_e04_stereo_44KHz.wav
2	26	2	1	0	C	1	1	1067	1	poli_8sides 5_whiteLine3.jpg	Medium_e13_stereo_44KHz.wav
2	27	4	3	2	I	2	0	1696	0	poli_8sides 11_whiteLine3.jpg	MediumLong_b10_cut2_L_stereo_44KHz.wav
2	28	1	2	0	C	1	1	969	1	poli_8sides 16_whiteLine3.jpg	Medium_e26_stereo_44KHz.wav
2	29	4	4	2	I	1	0	863	1	poli_8sides 11_whiteLine3.jpg	MediumLong_e04_stereo_44KHz.wav
2	30	1	1	1	C	1	0	1493	0	poli_8sides 16_whiteLine3.jpg	Medium_e13_stereo_44KHz.wav
2	31	3	3	2	I	2	0	1307	1	poli_8sides 6_whiteLine3.jpg	MediumLong_b10_cut2_L_stereo_44KHz.wav
2	32	2	2	1	C	2	1	1217	1	poli_8sides 5_whiteLine3.jpg	Medium_e26_stereo_44KHz.wav
2	33	3	4	2	I	1	0	1292	0	poli_8sides 6_whiteLine3.jpg	MediumLong_e04_stereo_44KHz.wav
2	34	2	2	1	C	2	1	916	1	poli_8sides 5_whiteLine3.jpg	Medium_e26_stereo_44KHz.wav
2	35	4	3	2	I	1	0	1535	1	poli_8sides 11_whiteLine3.jpg	MediumLong_b10_cut2_L_stereo_44KHz.wav
2	36	1	1	1	C	1	0	1455	0	poli_8sides 16_whiteLine3.jpg	Medium_e13_stereo_44KHz.wav
2	37	2	1	0	C	1	1	985	1	poli_8sides 5_whiteLine3.jpg	Medium_e13_stereo_44KHz.wav
2	38	4	4	2	I	1	0	1092	0	poli_8sides 11_whiteLine3.jpg	MediumLong_e04_stereo_44KHz.wav
2	39	3	3	2	I	1	0	1353	1	poli_8sides 6_whiteLine3.jpg	MediumLong_b10_cut2_L_stereo_44KHz.wav
2	40	1	2	0	C	2	0	1259	0	poli_8sides 16_whiteLine3.jpg	Medium_e26_stereo_44KHz.wav
2	41	2	2	1	C	2	1	795	1	poli_8sides 5_whiteLine3.jpg	Medium_e26_stereo_44KHz.wav
2	42	1	2	0	C	1	1	1416	1	poli_8sides 16_whiteLine3.jpg	Medium_e26_stereo_44KHz.wav
2	43	3	3	2	I	1	0	1303	1	poli_8sides 6_whiteLine3.jpg	MediumLong_b10_cut2_L_stereo_44KHz.wav
2	44	4	3	2	I	1	0	855	1	poli_8sides 11_whiteLine3.jpg	MediumLong_b10_cut2_L_stereo_44KHz.wav
2	45	2	1	0	C	2	0	1386	0	poli_8sides 5_whiteLine3.jpg	Medium_e13_stereo_44KHz.wav
2	46	4	4	2	I	1	0	904	1	poli_8sides 11_whiteLine3.jpg	MediumLong_e04_stereo_44KHz.wav
2	47	3	4	2	I	1	0	1258	1	poli_8sides 6_whiteLine3.jpg	MediumLong_e04_stereo_44KHz.wav
2	48	1	1	1	C	1	0	1637	0	poli_8sides 16_whiteLine3.jpg	Medium_e13_stereo_44KHz.wav
2	49	2	1	0	C	1	1	954	1	poli_8sides 5_whiteLine3.jpg	Medium_e13_stereo_44KHz.wav
2	50	1	1	1	C	2	1	1844	1	poli_8sides 16_whiteLine3.jpg	Medium_e13_stereo_44KHz.wav
2	51	4	3	2	I	1	0	1269	1	poli_8sides 11_whiteLine3.jpg	MediumLong_b10_cut2_L_stereo_44KHz.wav
2	52	3	3	2	I	1	0	1075	1	poli_8sides 6_whiteLine3.jpg	MediumLong_b10_cut2_L_stereo_44KHz.wav
2	53	2	2	1	C	2	1	1147	1	poli_8sides 5_whiteLine3.jpg	Medium_e26_stereo_44KHz.wav
2	54	1	2	0	C	1	1	1229	1	poli_8sides 16_whiteLine3.jpg	Medium_e26_stereo_44KHz.wav
2	55	3	4	2	I	1	0	1398	1	poli_8sides 6_whiteLine3.jpg	MediumLong_e04_stereo_44KHz.wav
2	56	4	4	2	I	1	0	873	0	poli_8sides 11_whiteLine3.jpg	MediumLong_e04_stereo_44KHz.wav
2	57	1	1	1	C	2	1	1122	1	poli_8sides 16_whiteLine3.jpg	Medium_e13_stereo_44KHz.wav
2	58	2	1	0	C	1	1	1010	1	poli_8sides 5_whiteLine3.jpg	Medium_e13_stereo_44KHz.wav
2	59	4	4	2	I	2	0	1074	0	poli_8sides 11_whiteLine3.jpg	MediumLong_e04_stereo_44KHz.wav
2	60	3	4	2	I	1	0	990	0	poli_8sides 6_whiteLine3.jpg	MediumLong_e04_stereo_44KHz.wav
2	61	4	3	2	I	1	0	1273	0	poli_8sides 11_whiteLine3.jpg	MediumLong_b10_cut2_L_stereo_44KHz.wav
2	62	2	2	1	C	2	1	1013	1	poli_8sides 5_whiteLine3.jpg	Medium_e26_stereo_44KHz.wav
2	63	1	2	0	C	1	1	1611	1	poli_8sides 16_whiteLine3.jpg	Medium_e26_stereo_44KHz.wav
2	64	3	3	2	I	1	0	899	0	poli_8sides 6_whiteLine3.jpg	MediumLong_b10_cut2_L_stereo_44KHz.wav
2	65	2	1	0	C	0	0	0	0	poli_8sides 5_whiteLine3.jpg	Medium_e13_stereo_44KHz.wav
2	66	4	3	2	I	1	0	1017	1	poli_8sides 11_whiteLine3.jpg	MediumLong_b10_cut2_L_stereo_44KHz.wav
2	67	1	1	1	C	2	1	1111	1	poli_8sides 16_whiteLine3.jpg	Medium_e13_stereo_44KHz.wav
2	68	3	3	2	I	2	0	1228	1	poli_8sides 6_whiteLine3.jpg	MediumLong_b10_cut2_L_stereo_44KHz.wav
2	69	2	2	1	C	2	1	975	1	poli_8sides 5_whiteLine3.jpg	Medium_e26_stereo_44KHz.wav
2	70	4	4	2	I	1	0	831	0	poli_8sides 11_whiteLine3.jpg	MediumLong_e04_stereo_44KHz.wav
2	71	3	4	2	I	1	0	793	1	poli_8sides 6_whiteLine3.jpg	MediumLong_e04_stereo_44KHz.wav
2	72	1	2	0	C	1	1	1221	1	poli_8sides 16_whiteLine3.jpg	Medium_e26_stereo_44KHz.wav
2	73	3	3	2	I	1	0	1542	1	poli_8sides 6_whiteLine3.jpg	MediumLong_b10_cut2_L_stereo_44KHz.wav
2	74	1	1	1	C	2	1	1858	1	poli_8sides 16_whiteLine3.jpg	Medium_e13_stereo_44KHz.wav
2	75	2	2	1	C	2	1	926	1	poli_8sides 5_whiteLine3.jpg	Medium_e26_stereo_44KHz.wav
2	76	4	4	2	I	1	0	832	0	poli_8sides 11_whiteLine3.jpg	MediumLong_e04_stereo_44KHz.wav
2	77	2	1	0	C	2	0	927	0	poli_8sides 5_whiteLine3.jpg	Medium_e13_stereo_44KHz.wav
2	78	4	3	2	I	1	0	961	0	poli_8sides 11_whiteLine3.jpg	MediumLong_b10_cut2_L_stereo_44KHz.wav
2	79	3	4	2	I	1	0	1827	0	poli_8sides 6_whiteLine3.jpg	MediumLong_e04_stereo_44KHz.wav
2	80	1	2	0	C	1	1	1318	1	poli_8sides 16_whiteLine3.jpg	Medium_e26_stereo_44KHz.wav
2	81	2	1	0	C	1	1	1279	1	poli_8sides 5_whiteLine3.jpg	Medium_e13_stereo_44KHz.wav
2	82	1	1	1	C	2	1	1048	1	poli_8sides 16_whiteLine3.jpg	Medium_e13_stereo_44KHz.wav
2	83	3	4	2	I	1	0	936	0	poli_8sides 6_whiteLine3.jpg	MediumLong_e04_stereo_44KHz.wav
2	84	4	3	2	I	1	0	1007	0	poli_8sides 11_whiteLine3.jpg	MediumLong_b10_cut2_L_stereo_44KHz.wav
2	85	1	2	0	C	1	1	1139	1	poli_8sides 16_whiteLine3.jpg	Medium_e26_stereo_44KHz.wav
2	86	3	3	2	I	1	0	1161	0	poli_8sides 6_whiteLine3.jpg	MediumLong_b10_cut2_L_stereo_44KHz.wav
2	87	4	4	2	I	1	0	1092	1	poli_8sides 11_whiteLine3.jpg	MediumLong_e04_stereo_44KHz.wav
2	88	2	2	1	C	2	1	851	1	poli_8sides 5_whiteLine3.jpg	Medium_e26_stereo_44KHz.wav
2	89	1	1	1	C	2	1	862	1	poli_8sides 16_whiteLine3.jpg	Medium_e13_stereo_44KHz.wav
2	90	2	2	1	C	2	1	1494	1	poli_8sides 5_whiteLine3.jpg	Medium_e26_stereo_44KHz.wav
2	91	3	3	2	I	1	0	1245	0	poli_8sides 6_whiteLine3.jpg	MediumLong_b10_cut2_L_stereo_44KHz.wav
2	92	4	4	2	I	1	0	1002	0	poli_8sides 11_whiteLine3.jpg	MediumLong_e04_stereo_44KHz.wav
2	93	3	4	2	I	1	0	994	0	poli_8sides 6_whiteLine3.jpg	MediumLong_e04_stereo_44KHz.wav
2	94	4	3	2	I	1	0	1558	1	poli_8sides 11_whiteLine3.jpg	MediumLong_b10_cut2_L_stereo_44KHz.wav
2	95	2	1	0	C	1	1	1218	1	poli_8sides 5_whiteLine3.jpg	Medium_e13_stereo_44KHz.wav
2	96	1	2	0	C	1	1	1107	1	poli_8sides 16_whiteLine3.jpg	Medium_e26_stereo_44KHz.wav
2	97	3	3	2	I	2	0	1479	0	poli_8sides 6_whiteLine3.jpg	MediumLong_b10_cut2_L_stereo_44KHz.wav
2	98	2	2	1	C	2	1	1384	1	poli_8sides 5_whiteLine3.jpg	Medium_e26_stereo_44KHz.wav
2	99	4	4	2	I	1	0	1314	0	poli_8sides 11_whiteLine3.jpg	MediumLong_e04_stereo_44KHz.wav
2	100	1	1	1	C	2	1	1337	1	poli_8sides 16_whiteLine3.jpg	Medium_e13_stereo_44KHz.wav
2	101	2	1	0	C	1	1	956	1	poli_8sides 5_whiteLine3.jpg	Medium_e13_stereo_44KHz.wav
2	102	3	4	2	I	1	0	1284	1	poli_8sides 6_whiteLine3.jpg	MediumLong_e04_stereo_44KHz.wav
2	103	1	2	0	C	1	1	1180	1	poli_8sides 16_whiteLine3.jpg	Medium_e26_stereo_44KHz.wav
2	104	4	3	2	I	2	0	1290	0	poli_8sides 11_whiteLine3.jpg	MediumLong_b10_cut2_L_stereo_44KHz.wav
2	105	1	2	0	C	1	1	1003	1	poli_8sides 16_whiteLine3.jpg	Medium_e26_stereo_44KHz.wav
2	106	2	2	1	C	2	1	1544	1	poli_8sides 5_whiteLine3.jpg	Medium_e26_stereo_44KHz.wav
2	107	3	3	2	I	1	0	1458	1	poli_8sides 6_whiteLine3.jpg	MediumLong_b10_cut2_L_stereo_44KHz.wav
2	108	4	4	2	I	2	0	955	1	poli_8sides 11_whiteLine3.jpg	MediumLong_e04_stereo_44KHz.wav
2	109	1	1	1	C	2	1	1026	1	poli_8sides 16_whiteLine3.jpg	Medium_e13_stereo_44KHz.wav
2	110	4	3	2	I	2	0	1613	1	poli_8sides 11_whiteLine3.jpg	MediumLong_b10_cut2_L_stereo_44KHz.wav
2	111	3	4	2	I	1	0	1531	1	poli_8sides 6_whiteLine3.jpg	MediumLong_e04_stereo_44KHz.wav
2	112	2	1	0	C	1	1	998	1	poli_8sides 5_whiteLine3.jpg	Medium_e13_stereo_44KHz.wav
2	113	1	2	0	C	1	1	1096	1	poli_8sides 16_whiteLine3.jpg	Medium_e26_stereo_44KHz.wav
2	114	2	1	0	C	1	1	1388	1	poli_8sides 5_whiteLine3.jpg	Medium_e13_stereo_44KHz.wav
2	115	4	3	2	I	2	0	1129	0	poli_8sides 11_whiteLine3.jpg	MediumLong_b10_cut2_L_stereo_44KHz.wav
2	116	3	3	2	I	2	0	1265	0	poli_8sides 6_whiteLine3.jpg	MediumLong_b10_cut2_L_stereo_44KHz.wav
2	117	2	2	1	C	0	0	0	0	poli_8sides 5_whiteLine3.jpg	Medium_e26_stereo_44KHz.wav
2	118	4	4	2	I	1	0	874	0	poli_8sides 11_whiteLine3.jpg	MediumLong_e04_stereo_44KHz.wav
2	119	3	4	2	I	1	0	828	0	poli_8sides 6_whiteLine3.jpg	MediumLong_e04_stereo_44KHz.wav
2	120	1	1	1	C	2	1	1499	1	poli_8sides 16_whiteLine3.jpg	Medium_e13_stereo_44KHz.wav
2	121	2	2	1	C	2	1	605	1	poli_8sides 5_whiteLine3.jpg	Medium_e26_stereo_44KHz.wav
2	122	4	3	2	I	1	0	998	0	poli_8sides 11_whiteLine3.jpg	MediumLong_b10_cut2_L_stereo_44KHz.wav
2	123	1	2	0	C	1	1	1080	1	poli_8sides 16_whiteLine3.jpg	Medium_e26_stereo_44KHz.wav
2	124	3	4	2	I	1	0	1045	0	poli_8sides 6_whiteLine3.jpg	MediumLong_e04_stereo_44KHz.wav
2	125	1	1	1	C	2	1	1150	1	poli_8sides 16_whiteLine3.jpg	Medium_e13_stereo_44KHz.wav
2	126	2	1	0	C	2	0	896	0	poli_8sides 5_whiteLine3.jpg	Medium_e13_stereo_44KHz.wav
2	127	4	4	2	I	1	0	1083	1	poli_8sides 11_whiteLine3.jpg	MediumLong_e04_stereo_44KHz.wav
2	128	3	3	2	I	1	0	1891	1	poli_8sides 6_whiteLine3.jpg	MediumLong_b10_cut2_L_stereo_44KHz.wav
2	129	1	2	0	C	2	0	1476	0	poli_8sides 16_whiteLine3.jpg	Medium_e26_stereo_44KHz.wav
2	130	2	2	1	C	2	1	865	1	poli_8sides 5_whiteLine3.jpg	Medium_e26_stereo_44KHz.wav
2	131	4	3	2	I	1	0	1402	1	poli_8sides 11_whiteLine3.jpg	MediumLong_b10_cut2_L_stereo_44KHz.wav
2	132	3	4	2	I	1	0	761	0	poli_8sides 6_whiteLine3.jpg	MediumLong_e04_stereo_44KHz.wav
2	133	4	4	2	I	1	0	751	0	poli_8sides 11_whiteLine3.jpg	MediumLong_e04_stereo_44KHz.wav
2	134	1	1	1	C	2	1	1079	1	poli_8sides 16_whiteLine3.jpg	Medium_e13_stereo_44KHz.wav
2	135	2	1	0	C	1	1	1156	1	poli_8sides 5_whiteLine3.jpg	Medium_e13_stereo_44KHz.wav
2	136	3	3	2	I	2	0	1613	0	poli_8sides 6_whiteLine3.jpg	MediumLong_b10_cut2_L_stereo_44KHz.wav
2	137	4	4	2	I	1	0	849	1	poli_8sides 11_whiteLine3.jpg	MediumLong_e04_stereo_44KHz.wav
2	138	1	1	1	C	2	1	1199	1	poli_8sides 16_whiteLine3.jpg	Medium_e13_stereo_44KHz.wav
2	139	2	1	0	C	1	1	1713	1	poli_8sides 5_whiteLine3.jpg	Medium_e13_stereo_44KHz.wav
2	140	3	3	2	I	1	0	962	0	poli_8sides 6_whiteLine3.jpg	MediumLong_b10_cut2_L_stereo_44KHz.wav
2	141	1	2	0	C	1	1	908	1	poli_8sides 16_whiteLine3.jpg	Medium_e26_stereo_44KHz.wav
2	142	3	4	2	I	1	0	812	1	poli_8sides 6_whiteLine3.jpg	MediumLong_e04_stereo_44KHz.wav
2	143	2	2	1	C	2	1	1146	1	poli_8sides 5_whiteLine3.jpg	Medium_e26_stereo_44KHz.wav
2	144	4	3	2	I	1	0	1582	0	poli_8sides 11_whiteLine3.jpg	MediumLong_b10_cut2_L_stereo_44KHz.wav
2	145	3	4	2	I	1	0	1852	1	poli_8sides 6_whiteLine3.jpg	MediumLong_e04_stereo_44KHz.wav
2	146	2	1	0	C	1	1	1178	1	poli_8sides 5_whiteLine3.jpg	Medium_e13_stereo_44KHz.wav
2	147	1	1	1	C	1	0	981	0	poli_8sides 16_whiteLine3.jpg	Medium_e13_stereo_44KHz.wav
2	148	4	3	2	I	2	0	1296	1	poli_8sides 11_whiteLine3.jpg	MediumLong_b10_cut2_L_stereo_44KHz.wav
2	149	3	3	2	I	1	0	874	0	poli_8sides 6_whiteLine3.jpg	MediumLong_b10_cut2_L_stereo_44KHz.wav
2	150	2	2	1	C	2	1	1073	1	poli_8sides 5_whiteLine3.jpg	Medium_e26_stereo_44KHz.wav
2	151	1	2	0	C	1	1	784	1	poli_8sides 16_whiteLine3.jpg	Medium_e26_stereo_44KHz.wav
2	152	4	4	2	I	2	0	1112	1	poli_8sides 11_whiteLine3.jpg	MediumLong_e04_stereo_44KHz.wav
2	153	1	1	1	C	2	1	1258	1	poli_8sides 16_whiteLine3.jpg	Medium_e13_stereo_44KHz.wav
2	154	2	2	1	C	2	1	950	1	poli_8sides 5_whiteLine3.jpg	Medium_e26_stereo_44KHz.wav
2	155	4	4	2	I	1	0	1006	1	poli_8sides 11_whiteLine3.jpg	MediumLong_e04_stereo_44KHz.wav
2	156	3	4	2	I	2	0	1010	1	poli_8sides 6_whiteLine3.jpg	MediumLong_e04_stereo_44KHz.wav
2	157	2	1	0	C	2	0	945	0	poli_8sides 5_whiteLine3.jpg	Medium_e13_stereo_44KHz.wav
2	158	4	3	2	I	1	0	1561	1	poli_8sides 11_whiteLine3.jpg	MediumLong_b10_cut2_L_stereo_44KHz.wav
2	159	3	3	2	I	2	0	901	1	poli_8sides 6_whiteLine3.jpg	MediumLong_b10_cut2_L_stereo_44KHz.wav
2	160	1	2	0	C	1	1	1135	1	poli_8sides 16_whiteLine3.jpg	Medium_e26_stereo_44KHz.wav
2	161	3	3	2	I	2	0	1181	0	poli_8sides 6_whiteLine3.jpg	MediumLong_b10_cut2_L_stereo_44KHz.wav
2	162	4	4	2	I	1	0	1477	1	poli_8sides 11_whiteLine3.jpg	MediumLong_e04_stereo_44KHz.wav
2	163	1	1	1	C	2	1	1163	1	poli_8sides 16_whiteLine3.jpg	Medium_e13_stereo_44KHz.wav
2	164	2	2	1	C	2	1	1597	1	poli_8sides 5_whiteLine3.jpg	Medium_e26_stereo_44KHz.wav
2	165	4	3	2	I	1	0	1333	1	poli_8sides 11_whiteLine3.jpg	MediumLong_b10_cut2_L_stereo_44KHz.wav
2	166	3	4	2	I	1	0	1369	0	poli_8sides 6_whiteLine3.jpg	MediumLong_e04_stereo_44KHz.wav
2	167	2	1	0	C	1	1	1885	1	poli_8sides 5_whiteLine3.jpg	Medium_e13_stereo_44KHz.wav
2	168	1	2	0	C	1	1	838	1	poli_8sides 16_whiteLine3.jpg	Medium_e26_stereo_44KHz.wav
2	169	2	2	1	C	2	1	921	1	poli_8sides 5_whiteLine3.jpg	Medium_e26_stereo_44KHz.wav
2	170	4	3	2	I	1	0	1040	0	poli_8sides 11_whiteLine3.jpg	MediumLong_b10_cut2_L_stereo_44KHz.wav
2	171	3	3	2	I	1	0	1559	0	poli_8sides 6_whiteLine3.jpg	MediumLong_b10_cut2_L_stereo_44KHz.wav
2	172	1	1	1	C	2	1	978	1	poli_8sides 16_whiteLine3.jpg	Medium_e13_stereo_44KHz.wav
2	173	2	1	0	C	1	1	1044	1	poli_8sides 5_whiteLine3.jpg	Medium_e13_stereo_44KHz.wav
2	174	3	4	2	I	1	0	1713	0	poli_8sides 6_whiteLine3.jpg	MediumLong_e04_stereo_44KHz.wav
2	175	1	2	0	C	1	1	961	1	poli_8sides 16_whiteLine3.jpg	Medium_e26_stereo_44KHz.wav
2	176	4	4	2	I	1	0	1325	0	poli_8sides 11_whiteLine3.jpg	MediumLong_e04_stereo_44KHz.wav
2	177	1	2	0	C	1	1	749	1	poli_8sides 16_whiteLine3.jpg	Medium_e26_stereo_44KHz.wav
2	178	3	3	2	I	1	0	933	1	poli_8sides 6_whiteLine3.jpg	MediumLong_b10_cut2_L_stereo_44KHz.wav
2	179	4	3	2	I	1	0	883	1	poli_8sides 11_whiteLine3.jpg	MediumLong_b10_cut2_L_stereo_44KHz.wav
2	180	2	2	1	C	2	1	1335	1	poli_8sides 5_whiteLine3.jpg	Medium_e26_stereo_44KHz.wav
2	181	1	1	1	C	2	1	1027	1	poli_8sides 16_whiteLine3.jpg	Medium_e13_stereo_44KHz.wav
2	182	3	4	2	I	2	0	861	1	poli_8sides 6_whiteLine3.jpg	MediumLong_e04_stereo_44KHz.wav
2	183	2	1	0	C	1	1	1221	1	poli_8sides 5_whiteLine3.jpg	Medium_e13_stereo_44KHz.wav
2	184	4	4	2	I	1	0	1044	1	poli_8sides 11_whiteLine3.jpg	MediumLong_e04_stereo_44KHz.wav
2	185	2	1	0	C	1	1	993	1	poli_8sides 5_whiteLine3.jpg	Medium_e13_stereo_44KHz.wav
2	186	1	1	1	C	2	1	931	1	poli_8sides 16_whiteLine3.jpg	Medium_e13_stereo_44KHz.wav
2	187	3	4	2	I	1	0	820	1	poli_8sides 6_whiteLine3.jpg	MediumLong_e04_stereo_44KHz.wav
2	188	4	4	2	I	1	0	1070	0	poli_8sides 11_whiteLine3.jpg	MediumLong_e04_stereo_44KHz.wav
2	189	2	2	1	C	2	1	811	1	poli_8sides 5_whiteLine3.jpg	Medium_e26_stereo_44KHz.wav
2	190	1	2	0	C	1	1	769	1	poli_8sides 16_whiteLine3.jpg	Medium_e26_stereo_44KHz.wav
2	191	3	3	2	I	1	0	1137	1	poli_8sides 6_whiteLine3.jpg	MediumLong_b10_cut2_L_stereo_44KHz.wav
2	192	4	3	2	I	2	0	992	1	poli_8sides 11_whiteLine3.jpg	MediumLong_b10_cut2_L_stereo_44KHz.wav
2	193	1	1	1	C	0	0	0	0	poli_8sides 16_whiteLine3.jpg	Medium_e13_stereo_44KHz.wav
2	194	2	2	1	C	2	1	1411	1	poli_8sides 5_whiteLine3.jpg	Medium_e26_stereo_44KHz.wav
2	195	3	3	2	I	2	0	769	1	poli_8sides 6_whiteLine3.jpg	MediumLong_b10_cut2_L_stereo_44KHz.wav
2	196	4	4	2	I	2	0	720	0	poli_8sides 11_whiteLine3.jpg	MediumLong_e04_stereo_44KHz.wav
2	197	2	1	0	C	0	0	0	0	poli_8sides 5_whiteLine3.jpg	Medium_e13_stereo_44KHz.wav
2	198	3	4	2	I	1	0	959	1	poli_8sides 6_whiteLine3.jpg	MediumLong_e04_stereo_44KHz.wav
2	199	4	3	2	I	1	0	1378	1	poli_8sides 11_whiteLine3.jpg	MediumLong_b10_cut2_L_stereo_44KHz.wav
2	200	1	2	0	C	1	1	1315	1	poli_8sides 16_whiteLine3.jpg	Medium_e26_stereo_44KHz.wav
3	1	2	2	1	C	2	1	1093	1	poli_8sides 10_whiteLine3.jpg	Medium_e21_stereo_44KHz.wav
3	2	4	3	2	I	1	0	1162	0	poli_8sides 1_whiteLine3.jpg	MediumLong_e19_stereo_44KHz.wav
3	3	1	2	0	C	1	1	1270	1	poli_8sides 3_whiteLine3.jpg	Medium_e21_stereo_44KHz.wav
3	4	3	3	2	I	1	0	1372	0	poli_8sides 15_whiteLine3.jpg	MediumLong_e19_stereo_44KHz.wav
3	5	4	4	2	I	1	0	1259	1	poli_8sides 1_whiteLine3.jpg	MediumLong_e17_cut2_stereo_44KHz.wav
3	6	2	1	0	C	1	1	1092	1	poli_8sides 10_whiteLine3.jpg	Medium_e01_cut1_stereo_44KHz.wav
3	7	1	1	1	C	2	1	1132	1	poli_8sides 3_whiteLine3.jpg	Medium_e01_cut1_stereo_44KHz.wav
3	8	3	4	2	I	1	0	1483	1	poli_8sides 15_whiteLine3.jpg	MediumLong_e17_cut2_stereo_44KHz.wav
3	9	1	2	0	C	1	1	1385	1	poli_8sides 3_whiteLine3.jpg	Medium_e21_stereo_44KHz.wav
3	10	3	4	2	I	1	0	1035	1	poli_8sides 15_whiteLine3.jpg	MediumLong_e17_cut2_stereo_44KHz.wav
3	11	4	3	2	I	1	0	1643	1	poli_8sides 1_whiteLine3.jpg	MediumLong_e19_stereo_44KHz.wav
3	12	2	2	1	C	2	1	1215	1	poli_8sides 10_whiteLine3.jpg	Medium_e21_stereo_44KHz.wav
3	13	1	1	1	C	2	1	859	1	poli_8sides 3_whiteLine3.jpg	Medium_e01_cut1_stereo_44KHz.wav
3	14	4	4	2	I	2	0	1127	1	poli_8sides 1_whiteLine3.jpg	MediumLong_e17_cut2_stereo_44KHz.wav
3	15	3	3	2	I	2	0	1585	1	poli_8sides 15_whiteLine3.jpg	MediumLong_e19_stereo_44KHz.wav
3	16	2	1	0	C	1	1	1182	1	poli_8sides 10_whiteLine3.jpg	Medium_e01_cut1_stereo_44KHz.wav
3	17	3	4	2	I	1	0	1498	1	poli_8sides 15_whiteLine3.jpg	MediumLong_e17_cut2_stereo_44KHz.wav
3	18	4	3	2	I	1	0	1375	1	poli_8sides 1_whiteLine3.jpg	MediumLong_e19_stereo_44KHz.wav
3	19	2	1	0	C	1	1	1032	1	poli_8sides 10_whiteLine3.jpg	Medium_e01_cut1_stereo_44KHz.wav
3	20	1	1	1	C	2	1	962	1	poli_8sides 3_whiteLine3.jpg	Medium_e01_cut1_stereo_44KHz.wav
3	21	2	2	1	C	2	1	1118	1	poli_8sides 10_whiteLine3.jpg	Medium_e21_stereo_44KHz.wav
3	22	1	2	0	C	1	1	1002	1	poli_8sides 3_whiteLine3.jpg	Medium_e21_stereo_44KHz.wav
3	23	4	4	2	I	2	0	965	1	poli_8sides 1_whiteLine3.jpg	MediumLong_e17_cut2_stereo_44KHz.wav
3	24	3	3	2	I	2	0	1247	0	poli_8sides 15_whiteLine3.jpg	MediumLong_e19_stereo_44KHz.wav
3	25	4	3	2	I	1	0	1482	1	poli_8sides 1_whiteLine3.jpg	MediumLong_e19_stereo_44KHz.wav
3	26	1	1	1	C	2	1	1277	1	poli_8sides 3_whiteLine3.jpg	Medium_e01_cut1_stereo_44KHz.wav
3	27	3	3	2	I	2	0	1273	1	poli_8sides 15_whiteLine3.jpg	MediumLong_e19_stereo_44KHz.wav
3	28	2	1	0	C	1	1	1679	1	poli_8sides 10_whiteLine3.jpg	Medium_e01_cut1_stereo_44KHz.wav
3	29	1	2	0	C	1	1	1074	1	poli_8sides 3_whiteLine3.jpg	Medium_e21_stereo_44KHz.wav
3	30	3	4	2	I	1	0	1045	0	poli_8sides 15_whiteLine3.jpg	MediumLong_e17_cut2_stereo_44KHz.wav
3	31	4	4	2	I	2	0	1200	1	poli_8sides 1_whiteLine3.jpg	MediumLong_e17_cut2_stereo_44KHz.wav
3	32	2	2	1	C	1	0	1052	0	poli_8sides 10_whiteLine3.jpg	Medium_e21_stereo_44KHz.wav
3	33	3	4	2	I	1	0	989	0	poli_8sides 15_whiteLine3.jpg	MediumLong_e17_cut2_stereo_44KHz.wav
3	34	1	2	0	C	1	1	869	1	poli_8sides 3_whiteLine3.jpg	Medium_e21_stereo_44KHz.wav
3	35	4	3	2	I	1	0	992	0	poli_8sides 1_whiteLine3.jpg	MediumLong_e19_stereo_44KHz.wav
3	36	2	1	0	C	1	1	890	1	poli_8sides 10_whiteLine3.jpg	Medium_e01_cut1_stereo_44KHz.wav
3	37	4	4	2	I	1	0	1194	1	poli_8sides 1_whiteLine3.jpg	MediumLong_e17_cut2_stereo_44KHz.wav
3	38	2	2	1	C	2	1	1058	1	poli_8sides 10_whiteLine3.jpg	Medium_e21_stereo_44KHz.wav
3	39	1	1	1	C	2	1	1028	1	poli_8sides 3_whiteLine3.jpg	Medium_e01_cut1_stereo_44KHz.wav
3	40	3	3	2	I	2	0	1140	1	poli_8sides 15_whiteLine3.jpg	MediumLong_e19_stereo_44KHz.wav
3	41	4	3	2	I	1	0	927	1	poli_8sides 1_whiteLine3.jpg	MediumLong_e19_stereo_44KHz.wav
3	42	1	2	0	C	1	1	1157	1	poli_8sides 3_whiteLine3.jpg	Medium_e21_stereo_44KHz.wav
3	43	3	4	2	I	1	0	1074	0	poli_8sides 15_whiteLine3.jpg	MediumLong_e17_cut2_stereo_44KHz.wav
3	44	2	1	0	C	1	1	846	1	poli_8sides 10_whiteLine3.jpg	Medium_e01_cut1_stereo_44KHz.wav
3	45	1	1	1	C	2	1	827	1	poli_8sides 3_whiteLine3.jpg	Medium_e01_cut1_stereo_44KHz.wav
3	46	2	2	1	C	2	1	1009	1	poli_8sides 10_whiteLine3.jpg	Medium_e21_stereo_44KHz.wav
3	47	3	3	2	I	2	0	1286	1	poli_8sides 15_whiteLine3.jpg	MediumLong_e19_stereo_44KHz.wav
3	48	4	4	2	I	2	0	1229	0	poli_8sides 1_whiteLine3.jpg	MediumLong_e17_cut2_stereo_44KHz.wav
3	49	2	2	1	C	2	1	1060	1	poli_8sides 10_whiteLine3.jpg	Medium_e21_stereo_44KHz.wav
3	50	1	2	0	C	1	1	1080	1	poli_8sides 3_whiteLine3.jpg	Medium_e21_stereo_44KHz.wav
3	51	4	4	2	I	2	0	1108	1	poli_8sides 1_whiteLine3.jpg	MediumLong_e17_cut2_stereo_44KHz.wav
3	52	3	3	2	I	1	0	1072	0	poli_8sides 15_whiteLine3.jpg	MediumLong_e19_stereo_44KHz.wav
3	53	4	3	2	I	1	0	770	0	poli_8sides 1_whiteLine3.jpg	MediumLong_e19_stereo_44KHz.wav
3	54	2	1	0	C	2	0	1095	0	poli_8sides 10_whiteLine3.jpg	Medium_e01_cut1_stereo_44KHz.wav
3	55	3	4	2	I	1	0	1132	0	poli_8sides 15_whiteLine3.jpg	MediumLong_e17_cut2_stereo_44KHz.wav
3	56	1	1	1	C	2	1	843	1	poli_8sides 3_whiteLine3.jpg	Medium_e01_cut1_stereo_44KHz.wav
3	57	2	1	0	C	1	1	963	1	poli_8sides 10_whiteLine3.jpg	Medium_e01_cut1_stereo_44KHz.wav
3	58	3	3	2	I	1	0	1206	0	poli_8sides 15_whiteLine3.jpg	MediumLong_e19_stereo_44KHz.wav
3	59	4	4	2	I	1	0	1267	0	poli_8sides 1_whiteLine3.jpg	MediumLong_e17_cut2_stereo_44KHz.wav
3	60	1	1	1	C	2	1	1111	1	poli_8sides 3_whiteLine3.jpg	Medium_e01_cut1_stereo_44KHz.wav
3	61	2	2	1	C	1	0	777	0	poli_8sides 10_whiteLine3.jpg	Medium_e21_stereo_44KHz.wav
3	62	3	4	2	I	1	0	949	0	poli_8sides 15_whiteLine3.jpg	MediumLong_e17_cut2_stereo_44KHz.wav
3	63	4	3	2	I	2	0	812	0	poli_8sides 1_whiteLine3.jpg	MediumLong_e19_stereo_44KHz.wav
3	64	1	2	0	C	1	1	1152	1	poli_8sides 3_whiteLine3.jpg	Medium_e21_stereo_44KHz.wav
3	65	2	1	0	C	2	0	707	0	poli_8sides 10_whiteLine3.jpg	Medium_e01_cut1_stereo_44KHz.wav
3	66	1	2	0	C	1	1	1068	1	poli_8sides 3_whiteLine3.jpg	Medium_e21_stereo_44KHz.wav
3	67	3	4	2	I	1	0	809	1	poli_8sides 15_whiteLine3.jpg	MediumLong_e17_cut2_stereo_44KHz.wav
3	68	4	3	2	I	1	0	961	1	poli_8sides 1_whiteLine3.jpg	MediumLong_e19_stereo_44KHz.wav
3	69	2	2	1	C	2	1	1236	1	poli_8sides 10_whiteLine3.jpg	Medium_e21_stereo_44KHz.wav
3	70	4	4	2	I	2	0	1393	1	poli_8sides 1_whiteLine3.jpg	MediumLong_e17_cut2_stereo_44KHz.wav
3	71	3	3	2	I	2	0	1407	0	poli_8sides 15_whiteLine3.jpg	MediumLong_e19_stereo_44KHz.wav
3	72	1	1	1	C	2	1	906	1	poli_8sides 3_whiteLine3.jpg	Medium_e01_cut1_stereo_44KHz.wav
3	73	4	3	2	I	1	0	824	0	poli_8sides 1_whiteLine3.jpg	MediumLong_e19_stereo_44KHz.wav
3	74	2	1	0	C	1	1	1121	1	poli_8sides 10_whiteLine3.jpg	Medium_e01_cut1_stereo_44KHz.wav
3	75	1	1	1	C	2	1	856	1	poli_8sides 3_whiteLine3.jpg	Medium_e01_cut1_stereo_44KHz.wav
3	76	3	4	2	I	1	0	913	0	poli_8sides 15_whiteLine3.jpg	MediumLong_e17_cut2_stereo_44KHz.wav
3	77	4	4	2	I	2	0	1250	0	poli_8sides 1_whiteLine3.jpg	MediumLong_e17_cut2_stereo_44KHz.wav
3	78	1	2	0	C	1	1	856	1	poli_8sides 3_whiteLine3.jpg	Medium_e21_stereo_44KHz.wav
3	79	3	3	2	I	2	0	780	0	poli_8sides 15_whiteLine3.jpg	MediumLong_e19_stereo_44KHz.wav
3	80	2	2	1	C	2	1	1009	1	poli_8sides 10_whiteLine3.jpg	Medium_e21_stereo_44KHz.wav
3	81	1	2	0	C	1	1	925	1	poli_8sides 3_whiteLine3.jpg	Medium_e21_stereo_44KHz.wav
3	82	3	4	2	I	1	0	1251	0	poli_8sides 15_whiteLine3.jpg	MediumLong_e17_cut2_stereo_44KHz.wav
3	83	4	4	2	I	1	0	1753	1	poli_8sides 1_whiteLine3.jpg	MediumLong_e17_cut2_stereo_44KHz.wav
3	84	2	1	0	C	1	1	1325	1	poli_8sides 10_whiteLine3.jpg	Medium_e01_cut1_stereo_44KHz.wav
3	85	4	3	2	I	1	0	1360	0	poli_8sides 1_whiteLine3.jpg	MediumLong_e19_stereo_44KHz.wav
3	86	1	1	1	C	2	1	833	1	poli_8sides 3_whiteLine3.jpg	Medium_e01_cut1_stereo_44KHz.wav
3	87	2	2	1	C	2	1	928	1	poli_8sides 10_whiteLine3.jpg	Medium_e21_stereo_44KHz.wav
3	88	3	3	2	I	1	0	1391	0	poli_8sides 15_whiteLine3.jpg	MediumLong_e19_stereo_44KHz.wav
3	89	1	1	1	C	2	1	757	1	poli_8sides 3_whiteLine3.jpg	Medium_e01_cut1_stereo_44KHz.wav
3	90	4	3	2	I	1	0	781	1	poli_8sides 1_whiteLine3.jpg	MediumLong_e19_stereo_44KHz.wav
3	91	3	3	2	I	1	0	734	0	poli_8sides 15_whiteLine3.jpg	MediumLong_e19_stereo_44KHz.wav
3	92	2	2	1	C	2	1	900	1	poli_8sides 10_whiteLine3.jpg	Medium_e21_stereo_44KHz.wav
3	93	1	2	0	C	1	1	1369	1	poli_8sides 3_whiteLine3.jpg	Medium_e21_stereo_44KHz.wav
3	94	3	4	2	I	1	0	880	1	poli_8sides 15_whiteLine3.jpg	MediumLong_e17_cut2_stereo_44KHz.wav
3	95	2	1	0	C	1	1	1022	1	poli_8sides 10_whiteLine3.jpg	Medium_e01_cut1_stereo_44KHz.wav
3	96	4	4	2	I	2	0	917	0	poli_8sides 1_whiteLine3.jpg	MediumLong_e17_cut2_stereo_44KHz.wav
3	97	3	4	2	I	1	0	1153	0	poli_8sides 15_whiteLine3.jpg	MediumLong_e17_cut2_stereo_44KHz.wav
3	98	1	1	1	C	2	1	1045	1	poli_8sides 3_whiteLine3.jpg	Medium_e01_cut1_stereo_44KHz.wav
3	99	4	4	2	I	1	0	897	1	poli_8sides 1_whiteLine3.jpg	MediumLong_e17_cut2_stereo_44KHz.wav
3	100	2	1	0	C	1	1	1169	1	poli_8sides 10_whiteLine3.jpg	Medium_e01_cut1_stereo_44KHz.wav
3	101	1	2	0	C	1	1	1014	1	poli_8sides 3_whiteLine3.jpg	Medium_e21_stereo_44KHz.wav
3	102	4	3	2	I	1	0	1877	1	poli_8sides 1_whiteLine3.jpg	MediumLong_e19_stereo_44KHz.wav
3	103	3	3	2	I	1	0	1732	1	poli_8sides 15_whiteLine3.jpg	MediumLong_e19_stereo_44KHz.wav
3	104	2	2	1	C	2	1	1494	1	poli_8sides 10_whiteLine3.jpg	Medium_e21_stereo_44KHz.wav
3	105	3	3	2	I	2	0	1736	1	poli_8sides 15_whiteLine3.jpg	MediumLong_e19_stereo_44KHz.wav
3	106	1	1	1	C	2	1	1263	1	poli_8sides 3_whiteLine3.jpg	Medium_e01_cut1_stereo_44KHz.wav
3	107	2	1	0	C	1	1	1682	1	poli_8sides 10_whiteLine3.jpg	Medium_e01_cut1_stereo_44KHz.wav
3	108	4	3	2	I	1	0	1358	1	poli_8sides 1_whiteLine3.jpg	MediumLong_e19_stereo_44KHz.wav
3	109	2	2	1	C	2	1	1007	1	poli_8sides 10_whiteLine3.jpg	Medium_e21_stereo_44KHz.wav
3	110	1	2	0	C	1	1	856	1	poli_8sides 3_whiteLine3.jpg	Medium_e21_stereo_44KHz.wav
3	111	3	4	2	I	1	0	1171	1	poli_8sides 15_whiteLine3.jpg	MediumLong_e17_cut2_stereo_44KHz.wav
3	112	4	4	2	I	1	0	896	1	poli_8sides 1_whiteLine3.jpg	MediumLong_e17_cut2_stereo_44KHz.wav
3	113	1	1	1	C	2	1	859	1	poli_8sides 3_whiteLine3.jpg	Medium_e01_cut1_stereo_44KHz.wav
3	114	4	4	2	I	2	0	1329	0	poli_8sides 1_whiteLine3.jpg	MediumLong_e17_cut2_stereo_44KHz.wav
3	115	3	3	2	I	1	0	1383	0	poli_8sides 15_whiteLine3.jpg	MediumLong_e19_stereo_44KHz.wav
3	116	2	2	1	C	2	1	1177	1	poli_8sides 10_whiteLine3.jpg	Medium_e21_stereo_44KHz.wav
3	117	3	4	2	I	2	0	1692	1	poli_8sides 15_whiteLine3.jpg	MediumLong_e17_cut2_stereo_44KHz.wav
3	118	4	3	2	I	1	0	967	0	poli_8sides 1_whiteLine3.jpg	MediumLong_e19_stereo_44KHz.wav
3	119	2	1	0	C	1	1	1323	1	poli_8sides 10_whiteLine3.jpg	Medium_e01_cut1_stereo_44KHz.wav
3	120	1	2	0	C	1	1	1564	1	poli_8sides 3_whiteLine3.jpg	Medium_e21_stereo_44KHz.wav
3	121	4	4	2	I	1	0	1460	0	poli_8sides 1_whiteLine3.jpg	MediumLong_e17_cut2_stereo_44KHz.wav
3	122	3	4	2	I	1	0	927	1	poli_8sides 15_whiteLine3.jpg	MediumLong_e17_cut2_stereo_44KHz.wav
3	123	2	1	0	C	1	1	1090	1	poli_8sides 10_whiteLine3.jpg	Medium_e01_cut1_stereo_44KHz.wav
3	124	1	2	0	C	1	1	1086	1	poli_8sides 3_whiteLine3.jpg	Medium_e21_stereo_44KHz.wav
3	125	2	2	1	C	2	1	1106	1	poli_8sides 10_whiteLine3.jpg	Medium_e21_stereo_44KHz.wav
3	126	4	3	2	I	1	0	969	0	poli_8sides 1_whiteLine3.jpg	MediumLong_e19_stereo_44KHz.wav
3	127	3	3	2	I	1	0	884	1	poli_8sides 15_whiteLine3.jpg	MediumLong_e19_stereo_44KHz.wav
3	128	1	1	1	C	2	1	1084	1	poli_8sides 3_whiteLine3.jpg	Medium_e01_cut1_stereo_44KHz.wav
3	129	3	4	2	I	1	0	954	1	poli_8sides 15_whiteLine3.jpg	MediumLong_e17_cut2_stereo_44KHz.wav
3	130	2	2	1	C	2	1	914	1	poli_8sides 10_whiteLine3.jpg	Medium_e21_stereo_44KHz.wav
3	131	1	2	0	C	1	1	718	1	poli_8sides 3_whiteLine3.jpg	Medium_e21_stereo_44KHz.wav
3	132	4	3	2	I	1	0	869	0	poli_8sides 1_whiteLine3.jpg	MediumLong_e19_stereo_44KHz.wav
3	133	1	1	1	C	2	1	1062	1	poli_8sides 3_whiteLine3.jpg	Medium_e01_cut1_stereo_44KHz.wav
3	134	4	4	2	I	1	0	1265	1	poli_8sides 1_whiteLine3.jpg	MediumLong_e17_cut2_stereo_44KHz.wav
3	135	3	3	2	I	2	0	1199	1	poli_8sides 15_whiteLine3.jpg	MediumLong_e19_stereo_44KHz.wav
3	136	2	1	0	C	1	1	948	1	poli_8sides 10_whiteLine3.jpg	Medium_e01_cut1_stereo_44KHz.wav
3	137	1	2	0	C	1	1	909	1	poli_8sides 3_whiteLine3.jpg	Medium_e21_stereo_44KHz.wav
3	138	4	3	2	I	2	0	1207	0	poli_8sides 1_whiteLine3.jpg	MediumLong_e19_stereo_44KHz.wav
3	139	3	4	2	I	1	0	1089	1	poli_8sides 15_whiteLine3.jpg	MediumLong_e17_cut2_stereo_44KHz.wav
3	140	2	1	0	C	1	1	1133	1	poli_8sides 10_whiteLine3.jpg	Medium_e01_cut1_stereo_44KHz.wav
3	141	3	3	2	I	2	0	1111	1	poli_8sides 15_whiteLine3.jpg	MediumLong_e19_stereo_44KHz.wav
3	142	2	2	1	C	2	1	1275	1	poli_8sides 10_whiteLine3.jpg	Medium_e21_stereo_44KHz.wav
3	143	1	1	1	C	2	1	924	1	poli_8sides 3_whiteLine3.jpg	Medium_e01_cut1_stereo_44KHz.wav
3	144	4	4	2	I	1	0	1967	0	poli_8sides 1_whiteLine3.jpg	MediumLong_e17_cut2_stereo_44KHz.wav
3	145	3	3	2	I	1	0	1908	1	poli_8sides 15_whiteLine3.jpg	MediumLong_e19_stereo_44KHz.wav
3	146	4	4	2	I	1	0	838	0	poli_8sides 1_whiteLine3.jpg	MediumLong_e17_cut2_stereo_44KHz.wav
3	147	2	1	0	C	1	1	679	1	poli_8sides 10_whiteLine3.jpg	Medium_e01_cut1_stereo_44KHz.wav
3	148	1	1	1	C	2	1	727	1	poli_8sides 3_whiteLine3.jpg	Medium_e01_cut1_stereo_44KHz.wav
3	149	3	4	2	I	1	0	873	1	poli_8sides 15_whiteLine3.jpg	MediumLong_e17_cut2_stereo_44KHz.wav
3	150	4	3	2	I	1	0	1030	1	poli_8sides 1_whiteLine3.jpg	MediumLong_e19_stereo_44KHz.wav
3	151	2	2	1	C	2	1	900	1	poli_8sides 10_whiteLine3.jpg	Medium_e21_stereo_44KHz.wav
3	152	1	2	0	C	1	1	1350	1	poli_8sides 3_whiteLine3.jpg	Medium_e21_stereo_44KHz.wav
3	153	4	4	2	I	1	0	1494	0	poli_8sides 1_whiteLine3.jpg	MediumLong_e17_cut2_stereo_44KHz.wav
3	154	2	1	0	C	1	1	952	1	poli_8sides 10_whiteLine3.jpg	Medium_e01_cut1_stereo_44KHz.wav
3	155	3	4	2	I	1	0	804	0	poli_8sides 15_whiteLine3.jpg	MediumLong_e17_cut2_stereo_44KHz.wav
3	156	1	1	1	C	2	1	915	1	poli_8sides 3_whiteLine3.jpg	Medium_e01_cut1_stereo_44KHz.wav
3	157	4	3	2	I	1	0	1119	0	poli_8sides 1_whiteLine3.jpg	MediumLong_e19_stereo_44KHz.wav
3	158	3	3	2	I	1	0	942	1	poli_8sides 15_whiteLine3.jpg	MediumLong_e19_stereo_44KHz.wav
3	159	2	2	1	C	2	1	895	1	poli_8sides 10_whiteLine3.jpg	Medium_e21_stereo_44KHz.wav
3	160	1	2	0	C	1	1	1243	1	poli_8sides 3_whiteLine3.jpg	Medium_e21_stereo_44KHz.wav
3	161	4	4	2	I	1	0	1405	0	poli_8sides 1_whiteLine3.jpg	MediumLong_e17_cut2_stereo_44KHz.wav
3	162	3	3	2	I	1	0	905	1	poli_8sides 15_whiteLine3.jpg	MediumLong_e19_stereo_44KHz.wav
3	163	2	2	1	C	2	1	1648	1	poli_8sides 10_whiteLine3.jpg	Medium_e21_stereo_44KHz.wav
3	164	1	2	0	C	2	0	672	0	poli_8sides 3_whiteLine3.jpg	Medium_e21_stereo_44KHz.wav
3	165	2	1	0	C	1	1	1017	1	poli_8sides 10_whiteLine3.jpg	Medium_e01_cut1_stereo_44KHz.wav
3	166	1	1	1	C	2	1	1073	1	poli_8sides 3_whiteLine3.jpg	Medium_e01_cut1_stereo_44KHz.wav
3	167	3	4	2	I	1	0	909	0	poli_8sides 15_whiteLine3.jpg	MediumLong_e17_cut2_stereo_44KHz.wav
3	168	4	3	2	I	2	0	1021	1	poli_8sides 1_whiteLine3.jpg	MediumLong_e19_stereo_44KHz.wav
3	169	3	4	2	I	1	0	800	0	poli_8sides 15_whiteLine3.jpg	MediumLong_e17_cut2_stereo_44KHz.wav
3	170	2	1	0	C	1	1	1229	1	poli_8sides 10_whiteLine3.jpg	Medium_e01_cut1_stereo_44KHz.wav
3	171	1	1	1	C	2	1	802	1	poli_8sides 3_whiteLine3.jpg	Medium_e01_cut1_stereo_44KHz.wav
3	172	4	4	2	I	1	0	774	0	poli_8sides 1_whiteLine3.jpg	MediumLong_e17_cut2_stereo_44KHz.wav
3	173	3	3	2	I	1	0	658	1	poli_8sides 15_whiteLine3.jpg	MediumLong_e19_stereo_44KHz.wav
3	174	1	2	0	C	1	1	1250	1	poli_8sides 3_whiteLine3.jpg	Medium_e21_stereo_44KHz.wav
3	175	4	3	2	I	2	0	718	1	poli_8sides 1_whiteLine3.jpg	MediumLong_e19_stereo_44KHz.wav
3	176	2	2	1	C	2	1	1641	1	poli_8sides 10_whiteLine3.jpg	Medium_e21_stereo_44KHz.wav
3	177	3	4	2	I	1	0	1588	0	poli_8sides 15_whiteLine3.jpg	MediumLong_e17_cut2_stereo_44KHz.wav
3	178	2	2	1	C	2	1	1587	1	poli_8sides 10_whiteLine3.jpg	Medium_e21_stereo_44KHz.wav
3	179	4	4	2	I	1	0	1173	1	poli_8sides 1_whiteLine3.jpg	MediumLong_e17_cut2_stereo_44KHz.wav
3	180	1	2	0	C	1	1	904	1	poli_8sides 3_whiteLine3.jpg	Medium_e21_stereo_44KHz.wav
3	181	4	3	2	I	1	0	1344	1	poli_8sides 1_whiteLine3.jpg	MediumLong_e19_stereo_44KHz.wav
3	182	1	1	1	C	2	1	1136	1	poli_8sides 3_whiteLine3.jpg	Medium_e01_cut1_stereo_44KHz.wav
3	183	3	3	2	I	1	0	973	0	poli_8sides 15_whiteLine3.jpg	MediumLong_e19_stereo_44KHz.wav
3	184	2	1	0	C	1	1	1037	1	poli_8sides 10_whiteLine3.jpg	Medium_e01_cut1_stereo_44KHz.wav
3	185	4	4	2	I	1	0	1600	0	poli_8sides 1_whiteLine3.jpg	MediumLong_e17_cut2_stereo_44KHz.wav
3	186	1	1	1	C	2	1	967	1	poli_8sides 3_whiteLine3.jpg	Medium_e01_cut1_stereo_44KHz.wav
3	187	3	3	2	I	1	0	878	0	poli_8sides 15_whiteLine3.jpg	MediumLong_e19_stereo_44KHz.wav
3	188	2	1	0	C	1	1	792	1	poli_8sides 10_whiteLine3.jpg	Medium_e01_cut1_stereo_44KHz.wav
3	189	1	2	0	C	1	1	799	1	poli_8sides 3_whiteLine3.jpg	Medium_e21_stereo_44KHz.wav
3	190	4	3	2	I	2	0	1552	0	poli_8sides 1_whiteLine3.jpg	MediumLong_e19_stereo_44KHz.wav
3	191	2	2	1	C	0	0	0	0	poli_8sides 10_whiteLine3.jpg	Medium_e21_stereo_44KHz.wav
3	192	3	4	2	I	1	0	1059	0	poli_8sides 15_whiteLine3.jpg	MediumLong_e17_cut2_stereo_44KHz.wav
3	193	2	2	1	C	2	1	900	1	poli_8sides 10_whiteLine3.jpg	Medium_e21_stereo_44KHz.wav
3	194	3	4	2	I	1	0	683	0	poli_8sides 15_whiteLine3.jpg	MediumLong_e17_cut2_stereo_44KHz.wav
3	195	4	3	2	I	0	0	0	0	poli_8sides 1_whiteLine3.jpg	MediumLong_e19_stereo_44KHz.wav
3	196	1	1	1	C	2	1	881	1	poli_8sides 3_whiteLine3.jpg	Medium_e01_cut1_stereo_44KHz.wav
3	197	2	1	0	C	1	1	823	1	poli_8sides 10_whiteLine3.jpg	Medium_e01_cut1_stereo_44KHz.wav
3	198	4	4	2	I	1	0	1076	1	poli_8sides 1_whiteLine3.jpg	MediumLong_e17_cut2_stereo_44KHz.wav
3	199	3	3	2	I	1	0	968	1	poli_8sides 15_whiteLine3.jpg	MediumLong_e19_stereo_44KHz.wav
3	200	1	2	0	C	1	1	852	1	poli_8sides 3_whiteLine3.jpg	Medium_e21_stereo_44KHz.wav
4	1	2	1	0	C	1	1	1104	1	poli_8sides 2_whiteLine3.jpg	MediumShort_e16_cut1_stereo_44KHz.wav
4	2	1	2	0	C	1	1	1271	1	poli_8sides 4_whiteLine3.jpg	MediumShort_e22_cut1_stereo_44KHz.wav
4	3	4	4	2	I	1	0	1356	0	poli_8sides 13_whiteLine3.jpg	MediumShort_b16_cut3_MS_stereo_44KHz.wav
4	4	3	3	2	I	0	0	0	0	poli_8sides 9_whiteLine3.jpg	MediumShort_b10_cut1_MS_stereo_44KHz.wav
4	5	1	1	1	C	1	0	1442	0	poli_8sides 4_whiteLine3.jpg	MediumShort_e16_cut1_stereo_44KHz.wav
4	6	4	3	2	I	0	0	0	0	poli_8sides 13_whiteLine3.jpg	MediumShort_b10_cut1_MS_stereo_44KHz.wav
4	7	3	4	2	I	1	0	1042	0	poli_8sides 9_whiteLine3.jpg	MediumShort_b16_cut3_MS_stereo_44KHz.wav
4	8	2	2	1	C	1	0	1094	0	poli_8sides 2_whiteLine3.jpg	MediumShort_e22_cut1_stereo_44KHz.wav
4	9	3	4	2	I	2	0	1397	0	poli_8sides 9_whiteLine3.jpg	MediumShort_b16_cut3_MS_stereo_44KHz.wav
4	10	1	1	1	C	2	1	1352	1	poli_8sides 4_whiteLine3.jpg	MediumShort_e16_cut1_stereo_44KHz.wav
4	11	2	1	0	C	1	1	983	1	poli_8sides 2_whiteLine3.jpg	MediumShort_e16_cut1_stereo_44KHz.wav
4	12	4	4	2	I	2	0	1727	1	poli_8sides 13_whiteLine3.jpg	MediumShort_b16_cut3_MS_stereo_44KHz.wav
4	13	1	2	0	C	1	1	850	1	poli_8sides 4_whiteLine3.jpg	MediumShort_e22_cut1_stereo_44KHz.wav
4	14	2	2	1	C	2	1	940	1	poli_8sides 2_whiteLine3.jpg	MediumShort_e22_cut1_stereo_44KHz.wav
4	15	4	3	2	I	2	0	1610	0	poli_8sides 13_whiteLine3.jpg	MediumShort_b10_cut1_MS_stereo_44KHz.wav
4	16	3	3	2	I	1	0	1427	1	poli_8sides 9_whiteLine3.jpg	MediumShort_b10_cut1_MS_stereo_44KHz.wav
4	17	2	2	1	C	2	1	1099	1	poli_8sides 2_whiteLine3.jpg	MediumShort_e22_cut1_stereo_44KHz.wav
4	18	3	3	2	I	1	0	1327	1	poli_8sides 9_whiteLine3.jpg	MediumShort_b10_cut1_MS_stereo_44KHz.wav
4	19	1	1	1	C	2	1	1222	1	poli_8sides 4_whiteLine3.jpg	MediumShort_e16_cut1_stereo_44KHz.wav
4	20	4	4	2	I	2	0	1143	1	poli_8sides 13_whiteLine3.jpg	MediumShort_b16_cut3_MS_stereo_44KHz.wav
4	21	2	1	0	C	2	0	1212	0	poli_8sides 2_whiteLine3.jpg	MediumShort_e16_cut1_stereo_44KHz.wav
4	22	3	4	2	I	2	0	783	1	poli_8sides 9_whiteLine3.jpg	MediumShort_b16_cut3_MS_stereo_44KHz.wav
4	23	1	2	0	C	1	1	776	1	poli_8sides 4_whiteLine3.jpg	MediumShort_e22_cut1_stereo_44KHz.wav
4	24	4	3	2	I	2	0	1135	0	poli_8sides 13_whiteLine3.jpg	MediumShort_b10_cut1_MS_stereo_44KHz.wav
4	25	2	2	1	C	1	0	760	0	poli_8sides 2_whiteLine3.jpg	MediumShort_e22_cut1_stereo_44KHz.wav
4	26	3	4	2	I	2	0	700	1	poli_8sides 9_whiteLine3.jpg	MediumShort_b16_cut3_MS_stereo_44KHz.wav
4	27	1	1	1	C	2	1	997	1	poli_8sides 4_whiteLine3.jpg	MediumShort_e16_cut1_stereo_44KHz.wav
4	28	4	3	2	I	2	0	716	0	poli_8sides 13_whiteLine3.jpg	MediumShort_b10_cut1_MS_stereo_44KHz.wav
4	29	3	3	2	I	1	0	865	1	poli_8sides 9_whiteLine3.jpg	MediumShort_b10_cut1_MS_stereo_44KHz.wav
4	30	4	4	2	I	2	0	861	1	poli_8sides 13_whiteLine3.jpg	MediumShort_b16_cut3_MS_stereo_44KHz.wav
4	31	1	2	0	C	1	1	1001	1	poli_8sides 4_whiteLine3.jpg	MediumShort_e22_cut1_stereo_44KHz.wav
4	32	2	1	0	C	1	1	1235	1	poli_8sides 2_whiteLine3.jpg	MediumShort_e16_cut1_stereo_44KHz.wav
4	33	4	3	2	I	2	0	772	1	poli_8sides 13_whiteLine3.jpg	MediumShort_b10_cut1_MS_stereo_44KHz.wav
4	34	3	4	2	I	1	0	1128	1	poli_8sides 9_whiteLine3.jpg	MediumShort_b16_cut3_MS_stereo_44KHz.wav
4	35	2	1	0	C	1	1	841	1	poli_8sides 2_whiteLine3.jpg	MediumShort_e16_cut1_stereo_44KHz.wav
4	36	1	2	0	C	1	1	853	1	poli_8sides 4_whiteLine3.jpg	MediumShort_e22_cut1_stereo_44KHz.wav
4	37	4	4	2	I	2	0	675	1	poli_8sides 13_whiteLine3.jpg	MediumShort_b16_cut3_MS_stereo_44KHz.wav
4	38	2	2	1	C	2	1	1115	1	poli_8sides 2_whiteLine3.jpg	MediumShort_e22_cut1_stereo_44KHz.wav
4	39	3	3	2	I	2	0	1292	1	poli_8sides 9_whiteLine3.jpg	MediumShort_b10_cut1_MS_stereo_44KHz.wav
4	40	1	1	1	C	2	1	800	1	poli_8sides 4_whiteLine3.jpg	MediumShort_e16_cut1_stereo_44KHz.wav
4	41	4	4	2	I	2	0	632	1	poli_8sides 13_whiteLine3.jpg	MediumShort_b16_cut3_MS_stereo_44KHz.wav
4	42	2	1	0	C	1	1	1008	1	poli_8sides 2_whiteLine3.jpg	MediumShort_e16_cut1_stereo_44KHz.wav
4	43	1	2	0	C	1	1	620	1	poli_8sides 4_whiteLine3.jpg	MediumShort_e22_cut1_stereo_44KHz.wav
4	44	3	3	2	I	2	0	689	0	poli_8sides 9_whiteLine3.jpg	MediumShort_b10_cut1_MS_stereo_44KHz.wav
4	45	1	1	1	C	2	1	832	1	poli_8sides 4_whiteLine3.jpg	MediumShort_e16_cut1_stereo_44KHz.wav
4	46	4	3	2	I	1	0	811	1	poli_8sides 13_whiteLine3.jpg	MediumShort_b10_cut1_MS_stereo_44KHz.wav
4	47	3	4	2	I	2	0	1399	1	poli_8sides 9_whiteLine3.jpg	MediumShort_b16_cut3_MS_stereo_44KHz.wav
4	48	2	2	1	C	2	1	1466	1	poli_8sides 2_whiteLine3.jpg	MediumShort_e22_cut1_stereo_44KHz.wav
4	49	1	2	0	C	1	1	605	1	poli_8sides 4_whiteLine3.jpg	MediumShort_e22_cut1_stereo_44KHz.wav
4	50	3	4	2	I	2	0	938	0	poli_8sides 9_whiteLine3.jpg	MediumShort_b16_cut3_MS_stereo_44KHz.wav
4	51	4	4	2	I	2	0	1043	1	poli_8sides 13_whiteLine3.jpg	MediumShort_b16_cut3_MS_stereo_44KHz.wav
4	52	2	1	0	C	1	1	1244	1	poli_8sides 2_whiteLine3.jpg	MediumShort_e16_cut1_stereo_44KHz.wav
4	53	3	3	2	I	2	0	1239	0	poli_8sides 9_whiteLine3.jpg	MediumShort_b10_cut1_MS_stereo_44KHz.wav
4	54	4	3	2	I	2	0	821	1	poli_8sides 13_whiteLine3.jpg	MediumShort_b10_cut1_MS_stereo_44KHz.wav
4	55	1	1	1	C	2	1	1299	1	poli_8sides 4_whiteLine3.jpg	MediumShort_e16_cut1_stereo_44KHz.wav
4	56	2	2	1	C	2	1	1566	1	poli_8sides 2_whiteLine3.jpg	MediumShort_e22_cut1_stereo_44KHz.wav
4	57	1	1	1	C	2	1	768	1	poli_8sides 4_whiteLine3.jpg	MediumShort_e16_cut1_stereo_44KHz.wav
4	58	4	4	2	I	2	0	1211	0	poli_8sides 13_whiteLine3.jpg	MediumShort_b16_cut3_MS_stereo_44KHz.wav
4	59	3	3	2	I	2	0	783	1	poli_8sides 9_whiteLine3.jpg	MediumShort_b10_cut1_MS_stereo_44KHz.wav
4	60	2	2	1	C	2	1	889	1	poli_8sides 2_whiteLine3.jpg	MediumShort_e22_cut1_stereo_44KHz.wav
4	61	3	4	2	I	2	0	621	1	poli_8sides 9_whiteLine3.jpg	MediumShort_b16_cut3_MS_stereo_44KHz.wav
4	62	1	2	0	C	1	1	1066	1	poli_8sides 4_whiteLine3.jpg	MediumShort_e22_cut1_stereo_44KHz.wav
4	63	4	3	2	I	2	0	653	0	poli_8sides 13_whiteLine3.jpg	MediumShort_b10_cut1_MS_stereo_44KHz.wav
4	64	2	1	0	C	1	1	882	1	poli_8sides 2_whiteLine3.jpg	MediumShort_e16_cut1_stereo_44KHz.wav
4	65	3	3	2	I	1	0	1229	1	poli_8sides 9_whiteLine3.jpg	MediumShort_b10_cut1_MS_stereo_44KHz.wav
4	66	4	3	2	I	2	0	705	0	poli_8sides 13_whiteLine3.jpg	MediumShort_b10_cut1_MS_stereo_44KHz.wav
4	67	1	1	1	C	2	1	835	1	poli_8sides 4_whiteLine3.jpg	MediumShort_e16_cut1_stereo_44KHz.wav
4	68	2	2	1	C	2	1	933	1	poli_8sides 2_whiteLine3.jpg	MediumShort_e22_cut1_stereo_44KHz.wav
4	69	1	2	0	C	2	0	103	0	poli_8sides 4_whiteLine3.jpg	MediumShort_e22_cut1_stereo_44KHz.wav
4	70	3	4	2	I	2	0	994	1	poli_8sides 9_whiteLine3.jpg	MediumShort_b16_cut3_MS_stereo_44KHz.wav
4	71	4	4	2	I	2	0	689	0	poli_8sides 13_whiteLine3.jpg	MediumShort_b16_cut3_MS_stereo_44KHz.wav
4	72	2	1	0	C	1	1	954	1	poli_8sides 2_whiteLine3.jpg	MediumShort_e16_cut1_stereo_44KHz.wav
4	73	4	4	2	I	2	0	1062	0	poli_8sides 13_whiteLine3.jpg	MediumShort_b16_cut3_MS_stereo_44KHz.wav
4	74	1	1	1	C	2	1	917	1	poli_8sides 4_whiteLine3.jpg	MediumShort_e16_cut1_stereo_44KHz.wav
4	75	3	3	2	I	2	0	834	1	poli_8sides 9_whiteLine3.jpg	MediumShort_b10_cut1_MS_stereo_44KHz.wav
4	76	2	1	0	C	1	1	891	1	poli_8sides 2_whiteLine3.jpg	MediumShort_e16_cut1_stereo_44KHz.wav
4	77	1	2	0	C	1	1	740	1	poli_8sides 4_whiteLine3.jpg	MediumShort_e22_cut1_stereo_44KHz.wav
4	78	4	3	2	I	1	0	1139	1	poli_8sides 13_whiteLine3.jpg	MediumShort_b10_cut1_MS_stereo_44KHz.wav
4	79	2	2	1	C	2	1	1139	1	poli_8sides 2_whiteLine3.jpg	MediumShort_e22_cut1_stereo_44KHz.wav
4	80	3	4	2	I	2	0	1705	0	poli_8sides 9_whiteLine3.jpg	MediumShort_b16_cut3_MS_stereo_44KHz.wav
4	81	4	4	2	I	1	0	925	0	poli_8sides 13_whiteLine3.jpg	MediumShort_b16_cut3_MS_stereo_44KHz.wav
4	82	3	3	2	I	2	0	990	0	poli_8sides 9_whiteLine3.jpg	MediumShort_b10_cut1_MS_stereo_44KHz.wav
4	83	2	2	1	C	2	1	1165	1	poli_8sides 2_whiteLine3.jpg	MediumShort_e22_cut1_stereo_44KHz.wav
4	84	1	2	0	C	1	1	559	1	poli_8sides 4_whiteLine3.jpg	MediumShort_e22_cut1_stereo_44KHz.wav
4	85	2	1	0	C	1	1	831	1	poli_8sides 2_whiteLine3.jpg	MediumShort_e16_cut1_stereo_44KHz.wav
4	86	1	1	1	C	2	1	862	1	poli_8sides 4_whiteLine3.jpg	MediumShort_e16_cut1_stereo_44KHz.wav
4	87	3	4	2	I	1	0	957	1	poli_8sides 9_whiteLine3.jpg	MediumShort_b16_cut3_MS_stereo_44KHz.wav
4	88	4	3	2	I	2	0	739	1	poli_8sides 13_whiteLine3.jpg	MediumShort_b10_cut1_MS_stereo_44KHz.wav
4	89	3	3	2	I	1	0	1053	1	poli_8sides 9_whiteLine3.jpg	MediumShort_b10_cut1_MS_stereo_44KHz.wav
4	90	4	3	2	I	1	0	1091	0	poli_8sides 13_whiteLine3.jpg	MediumShort_b10_cut1_MS_stereo_44KHz.wav
4	91	1	1	1	C	2	1	778	1	poli_8sides 4_whiteLine3.jpg	MediumShort_e16_cut1_stereo_44KHz.wav
4	92	2	1	0	C	1	1	1457	1	poli_8sides 2_whiteLine3.jpg	MediumShort_e16_cut1_stereo_44KHz.wav
4	93	3	4	2	I	1	0	1439	0	poli_8sides 9_whiteLine3.jpg	MediumShort_b16_cut3_MS_stereo_44KHz.wav
4	94	4	4	2	I	1	0	880	1	poli_8sides 13_whiteLine3.jpg	MediumShort_b16_cut3_MS_stereo_44KHz.wav
4	95	2	2	1	C	1	0	1125	0	poli_8sides 2_whiteLine3.jpg	MediumShort_e22_cut1_stereo_44KHz.wav
4	96	1	2	0	C	1	1	973	1	poli_8sides 4_whiteLine3.jpg	MediumShort_e22_cut1_stereo_44KHz.wav
4	97	2	2	1	C	2	1	1047	1	poli_8sides 2_whiteLine3.jpg	MediumShort_e22_cut1_stereo_44KHz.wav
4	98	3	4	2	I	1	0	1213	1	poli_8sides 9_whiteLine3.jpg	MediumShort_b16_cut3_MS_stereo_44KHz.wav
4	99	1	1	1	C	2	1	764	1	poli_8sides 4_whiteLine3.jpg	MediumShort_e16_cut1_stereo_44KHz.wav
4	100	4	4	2	I	2	0	1111	1	poli_8sides 13_whiteLine3.jpg	MediumShort_b16_cut3_MS_stereo_44KHz.wav
4	101	2	1	0	C	2	0	688	0	poli_8sides 2_whiteLine3.jpg	MediumShort_e16_cut1_stereo_44KHz.wav
4	102	3	3	2	I	2	0	763	1	poli_8sides 9_whiteLine3.jpg	MediumShort_b10_cut1_MS_stereo_44KHz.wav
4	103	1	2	0	C	1	1	1095	1	poli_8sides 4_whiteLine3.jpg	MediumShort_e22_cut1_stereo_44KHz.wav
4	104	4	3	2	I	2	0	925	1	poli_8sides 13_whiteLine3.jpg	MediumShort_b10_cut1_MS_stereo_44KHz.wav
4	105	1	2	0	C	1	1	703	1	poli_8sides 4_whiteLine3.jpg	MediumShort_e22_cut1_stereo_44KHz.wav
4	106	2	2	1	C	2	1	1037	1	poli_8sides 2_whiteLine3.jpg	MediumShort_e22_cut1_stereo_44KHz.wav
4	107	3	4	2	I	1	0	1050	1	poli_8sides 9_whiteLine3.jpg	MediumShort_b16_cut3_MS_stereo_44KHz.wav
4	108	4	4	2	I	2	0	799	1	poli_8sides 13_whiteLine3.jpg	MediumShort_b16_cut3_MS_stereo_44KHz.wav
4	109	1	1	1	C	2	1	828	1	poli_8sides 4_whiteLine3.jpg	MediumShort_e16_cut1_stereo_44KHz.wav
4	110	4	3	2	I	1	0	1357	0	poli_8sides 13_whiteLine3.jpg	MediumShort_b10_cut1_MS_stereo_44KHz.wav
4	111	3	3	2	I	1	0	1342	0	poli_8sides 9_whiteLine3.jpg	MediumShort_b10_cut1_MS_stereo_44KHz.wav
4	112	2	1	0	C	1	1	1209	1	poli_8sides 2_whiteLine3.jpg	MediumShort_e16_cut1_stereo_44KHz.wav
4	113	3	4	2	I	2	0	884	1	poli_8sides 9_whiteLine3.jpg	MediumShort_b16_cut3_MS_stereo_44KHz.wav
4	114	1	2	0	C	1	1	826	1	poli_8sides 4_whiteLine3.jpg	MediumShort_e22_cut1_stereo_44KHz.wav
4	115	2	2	1	C	2	1	786	1	poli_8sides 2_whiteLine3.jpg	MediumShort_e22_cut1_stereo_44KHz.wav
4	116	4	3	2	I	1	0	1051	1	poli_8sides 13_whiteLine3.jpg	MediumShort_b10_cut1_MS_stereo_44KHz.wav
4	117	1	1	1	C	2	1	812	1	poli_8sides 4_whiteLine3.jpg	MediumShort_e16_cut1_stereo_44KHz.wav
4	118	4	4	2	I	1	0	1258	0	poli_8sides 13_whiteLine3.jpg	MediumShort_b16_cut3_MS_stereo_44KHz.wav
4	119	3	3	2	I	1	0	1602	0	poli_8sides 9_whiteLine3.jpg	MediumShort_b10_cut1_MS_stereo_44KHz.wav
4	120	2	1	0	C	2	0	806	0	poli_8sides 2_whiteLine3.jpg	MediumShort_e16_cut1_stereo_44KHz.wav
4	121	4	3	2	I	1	0	1073	0	poli_8sides 13_whiteLine3.jpg	MediumShort_b10_cut1_MS_stereo_44KHz.wav
4	122	3	3	2	I	1	0	723	0	poli_8sides 9_whiteLine3.jpg	MediumShort_b10_cut1_MS_stereo_44KHz.wav
4	123	2	1	0	C	1	1	1291	1	poli_8sides 2_whiteLine3.jpg	MediumShort_e16_cut1_stereo_44KHz.wav
4	124	1	2	0	C	0	0	0	0	poli_8sides 4_whiteLine3.jpg	MediumShort_e22_cut1_stereo_44KHz.wav
4	125	3	4	2	I	2	0	1269	1	poli_8sides 9_whiteLine3.jpg	MediumShort_b16_cut3_MS_stereo_44KHz.wav
4	126	2	2	1	C	1	0	681	0	poli_8sides 2_whiteLine3.jpg	MediumShort_e22_cut1_stereo_44KHz.wav
4	127	4	4	2	I	1	0	1032	1	poli_8sides 13_whiteLine3.jpg	MediumShort_b16_cut3_MS_stereo_44KHz.wav
4	128	1	1	1	C	2	1	794	1	poli_8sides 4_whiteLine3.jpg	MediumShort_e16_cut1_stereo_44KHz.wav
4	129	4	4	2	I	2	0	571	1	poli_8sides 13_whiteLine3.jpg	MediumShort_b16_cut3_MS_stereo_44KHz.wav
4	130	2	2	1	C	2	1	1030	1	poli_8sides 2_whiteLine3.jpg	MediumShort_e22_cut1_stereo_44KHz.wav
4	131	3	4	2	I	2	0	648	0	poli_8sides 9_whiteLine3.jpg	MediumShort_b16_cut3_MS_stereo_44KHz.wav
4	132	1	1	1	C	2	1	1178	1	poli_8sides 4_whiteLine3.jpg	MediumShort_e16_cut1_stereo_44KHz.wav
4	133	3	3	2	I	2	0	701	1	poli_8sides 9_whiteLine3.jpg	MediumShort_b10_cut1_MS_stereo_44KHz.wav
4	134	4	3	2	I	1	0	1262	0	poli_8sides 13_whiteLine3.jpg	MediumShort_b10_cut1_MS_stereo_44KHz.wav
4	135	2	1	0	C	1	1	1378	1	poli_8sides 2_whiteLine3.jpg	MediumShort_e16_cut1_stereo_44KHz.wav
4	136	1	2	0	C	1	1	737	1	poli_8sides 4_whiteLine3.jpg	MediumShort_e22_cut1_stereo_44KHz.wav
4	137	4	4	2	I	1	0	1098	1	poli_8sides 13_whiteLine3.jpg	MediumShort_b16_cut3_MS_stereo_44KHz.wav
4	138	1	1	1	C	2	1	988	1	poli_8sides 4_whiteLine3.jpg	MediumShort_e16_cut1_stereo_44KHz.wav
4	139	3	3	2	I	1	0	1245	0	poli_8sides 9_whiteLine3.jpg	MediumShort_b10_cut1_MS_stereo_44KHz.wav
4	140	2	1	0	C	1	1	1134	1	poli_8sides 2_whiteLine3.jpg	MediumShort_e16_cut1_stereo_44KHz.wav
4	141	1	2	0	C	1	1	775	1	poli_8sides 4_whiteLine3.jpg	MediumShort_e22_cut1_stereo_44KHz.wav
4	142	4	3	2	I	1	0	814	0	poli_8sides 13_whiteLine3.jpg	MediumShort_b10_cut1_MS_stereo_44KHz.wav
4	143	2	2	1	C	2	1	1091	1	poli_8sides 2_whiteLine3.jpg	MediumShort_e22_cut1_stereo_44KHz.wav
4	144	3	4	2	I	2	0	1149	0	poli_8sides 9_whiteLine3.jpg	MediumShort_b16_cut3_MS_stereo_44KHz.wav
4	145	1	2	0	C	1	1	1029	1	poli_8sides 4_whiteLine3.jpg	MediumShort_e22_cut1_stereo_44KHz.wav
4	146	3	4	2	I	2	0	710	0	poli_8sides 9_whiteLine3.jpg	MediumShort_b16_cut3_MS_stereo_44KHz.wav
4	147	4	4	2	I	1	0	877	0	poli_8sides 13_whiteLine3.jpg	MediumShort_b16_cut3_MS_stereo_44KHz.wav
4	148	2	2	1	C	2	1	1689	1	poli_8sides 2_whiteLine3.jpg	MediumShort_e22_cut1_stereo_44KHz.wav
4	149	3	3	2	I	1	0	924	0	poli_8sides 9_whiteLine3.jpg	MediumShort_b10_cut1_MS_stereo_44KHz.wav
4	150	4	3	2	I	1	0	1653	1	poli_8sides 13_whiteLine3.jpg	MediumShort_b10_cut1_MS_stereo_44KHz.wav
4	151	2	1	0	C	1	1	1481	1	poli_8sides 2_whiteLine3.jpg	MediumShort_e16_cut1_stereo_44KHz.wav
4	152	1	1	1	C	2	1	800	1	poli_8sides 4_whiteLine3.jpg	MediumShort_e16_cut1_stereo_44KHz.wav
4	153	3	4	2	I	1	0	1022	0	poli_8sides 9_whiteLine3.jpg	MediumShort_b16_cut3_MS_stereo_44KHz.wav
4	154	2	2	1	C	2	1	800	1	poli_8sides 2_whiteLine3.jpg	MediumShort_e22_cut1_stereo_44KHz.wav
4	155	4	4	2	I	1	0	954	0	poli_8sides 13_whiteLine3.jpg	MediumShort_b16_cut3_MS_stereo_44KHz.wav
4	156	1	1	1	C	2	1	814	1	poli_8sides 4_whiteLine3.jpg	MediumShort_e16_cut1_stereo_44KHz.wav
4	157	4	3	2	I	2	0	582	0	poli_8sides 13_whiteLine3.jpg	MediumShort_b10_cut1_MS_stereo_44KHz.wav
4	158	1	2	0	C	1	1	1841	1	poli_8sides 4_whiteLine3.jpg	MediumShort_e22_cut1_stereo_44KHz.wav
4	159	2	1	0	C	1	1	903	1	poli_8sides 2_whiteLine3.jpg	MediumShort_e16_cut1_stereo_44KHz.wav
4	160	3	3	2	I	1	0	723	0	poli_8sides 9_whiteLine3.jpg	MediumShort_b10_cut1_MS_stereo_44KHz.wav
4	161	2	1	0	C	1	1	1035	1	poli_8sides 2_whiteLine3.jpg	MediumShort_e16_cut1_stereo_44KHz.wav
4	162	1	2	0	C	1	1	1015	1	poli_8sides 4_whiteLine3.jpg	MediumShort_e22_cut1_stereo_44KHz.wav
4	163	4	3	2	I	2	0	1048	0	poli_8sides 13_whiteLine3.jpg	MediumShort_b10_cut1_MS_stereo_44KHz.wav
4	164	3	3	2	I	1	0	1029	0	poli_8sides 9_whiteLine3.jpg	MediumShort_b10_cut1_MS_stereo_44KHz.wav
4	165	4	4	2	I	1	0	1133	0	poli_8sides 13_whiteLine3.jpg	MediumShort_b16_cut3_MS_stereo_44KHz.wav
4	166	2	2	1	C	2	1	895	1	poli_8sides 2_whiteLine3.jpg	MediumShort_e22_cut1_stereo_44KHz.wav
4	167	1	1	1	C	2	1	882	1	poli_8sides 4_whiteLine3.jpg	MediumShort_e16_cut1_stereo_44KHz.wav
4	168	3	4	2	I	1	0	1034	0	poli_8sides 9_whiteLine3.jpg	MediumShort_b16_cut3_MS_stereo_44KHz.wav
4	169	4	3	2	I	1	0	1788	0	poli_8sides 13_whiteLine3.jpg	MediumShort_b10_cut1_MS_stereo_44KHz.wav
4	170	3	4	2	I	2	0	1036	1	poli_8sides 9_whiteLine3.jpg	MediumShort_b16_cut3_MS_stereo_44KHz.wav
4	171	2	1	0	C	1	1	821	1	poli_8sides 2_whiteLine3.jpg	MediumShort_e16_cut1_stereo_44KHz.wav
4	172	1	2	0	C	1	1	651	1	poli_8sides 4_whiteLine3.jpg	MediumShort_e22_cut1_stereo_44KHz.wav
4	173	4	4	2	I	1	0	851	0	poli_8sides 13_whiteLine3.jpg	MediumShort_b16_cut3_MS_stereo_44KHz.wav
4	174	3	3	2	I	1	0	1305	0	poli_8sides 9_whiteLine3.jpg	MediumShort_b10_cut1_MS_stereo_44KHz.wav
4	175	1	1	1	C	2	1	812	1	poli_8sides 4_whiteLine3.jpg	MediumShort_e16_cut1_stereo_44KHz.wav
4	176	2	2	1	C	2	1	1036	1	poli_8sides 2_whiteLine3.jpg	MediumShort_e22_cut1_stereo_44KHz.wav
4	177	3	4	2	I	1	0	942	0	poli_8sides 9_whiteLine3.jpg	MediumShort_b16_cut3_MS_stereo_44KHz.wav
4	178	4	3	2	I	1	0	925	1	poli_8sides 13_whiteLine3.jpg	MediumShort_b10_cut1_MS_stereo_44KHz.wav
4	179	1	1	1	C	2	1	797	1	poli_8sides 4_whiteLine3.jpg	MediumShort_e16_cut1_stereo_44KHz.wav
4	180	2	2	1	C	2	1	1403	1	poli_8sides 2_whiteLine3.jpg	MediumShort_e22_cut1_stereo_44KHz.wav
4	181	1	2	0	C	1	1	753	1	poli_8sides 4_whiteLine3.jpg	MediumShort_e22_cut1_stereo_44KHz.wav
4	182	3	3	2	I	2	0	1198	1	poli_8sides 9_whiteLine3.jpg	MediumShort_b10_cut1_MS_stereo_44KHz.wav
4	183	4	4	2	I	1	0	1332	1	poli_8sides 13_whiteLine3.jpg	MediumShort_b16_cut3_MS_stereo_44KHz.wav
4	184	2	1	0	C	1	1	941	1	poli_8sides 2_whiteLine3.jpg	MediumShort_e16_cut1_stereo_44KHz.wav
4	185	4	4	2	I	2	0	1005	0	poli_8sides 13_whiteLine3.jpg	MediumShort_b16_cut3_MS_stereo_44KHz.wav
4	186	3	3	2	I	1	0	1035	1	poli_8sides 9_whiteLine3.jpg	MediumShort_b10_cut1_MS_stereo_44KHz.wav
4	187	1	1	1	C	2	1	687	1	poli_8sides 4_whiteLine3.jpg	MediumShort_e16_cut1_stereo_44KHz.wav
4	188	2	1	0	C	1	1	1256	1	poli_8sides 2_whiteLine3.jpg	MediumShort_e16_cut1_stereo_44KHz.wav
4	189	1	2	0	C	1	1	730	1	poli_8sides 4_whiteLine3.jpg	MediumShort_e22_cut1_stereo_44KHz.wav
4	190	2	2	1	C	2	1	748	1	poli_8sides 2_whiteLine3.jpg	MediumShort_e22_cut1_stereo_44KHz.wav
4	191	3	4	2	I	2	0	762	0	poli_8sides 9_whiteLine3.jpg	MediumShort_b16_cut3_MS_stereo_44KHz.wav
4	192	4	3	2	I	1	0	827	1	poli_8sides 13_whiteLine3.jpg	MediumShort_b10_cut1_MS_stereo_44KHz.wav
4	193	2	2	1	C	2	1	968	1	poli_8sides 2_whiteLine3.jpg	MediumShort_e22_cut1_stereo_44KHz.wav
4	194	4	4	2	I	1	0	1057	1	poli_8sides 13_whiteLine3.jpg	MediumShort_b16_cut3_MS_stereo_44KHz.wav
4	195	3	4	2	I	2	0	1603	1	poli_8sides 9_whiteLine3.jpg	MediumShort_b16_cut3_MS_stereo_44KHz.wav
4	196	1	2	0	C	1	1	1119	1	poli_8sides 4_whiteLine3.jpg	MediumShort_e22_cut1_stereo_44KHz.wav
4	197	3	3	2	I	2	0	1200	0	poli_8sides 9_whiteLine3.jpg	MediumShort_b10_cut1_MS_stereo_44KHz.wav
4	198	1	1	1	C	2	1	755	1	poli_8sides 4_whiteLine3.jpg	MediumShort_e16_cut1_stereo_44KHz.wav
4	199	4	3	2	I	2	0	802	1	poli_8sides 13_whiteLine3.jpg	MediumShort_b10_cut1_MS_stereo_44KHz.wav
4	200	2	1	0	C	1	1	919	1	poli_8sides 2_whiteLine3.jpg	MediumShort_e16_cut1_stereo_44KHz.wav
