block	trial	Vstim	Astim	match	C/I	resp	.result	RT	fb	V-file	A-file
LR

0	1	2	4	0	C	1	1	1204	1	Ⴋ	cut_ee_stereo_44KHz.wav
0	2	1	1	1	C	2	1	1044	1	Ⴞ	cut_g_stereo_44KHz.wav
0	3	2	3	1	C	2	1	1287	1	Ⴋ	cut_eeuw_stereo_44KHz.wav
0	4	1	2	0	C	1	1	1056	1	Ⴞ	cut_oo_stereo_44KHz.wav
0	5	2	4	0	C	1	1	1307	1	Ⴋ	cut_ee_stereo_44KHz.wav
0	6	1	1	1	C	2	1	1451	1	Ⴞ	cut_g_stereo_44KHz.wav
0	7	2	3	1	C	2	1	977	1	Ⴋ	cut_eeuw_stereo_44KHz.wav
0	8	1	2	0	C	1	1	1060	1	Ⴞ	cut_oo_stereo_44KHz.wav
0	9	2	4	0	C	1	1	1019	1	Ⴋ	cut_ee_stereo_44KHz.wav
0	10	1	2	0	C	2	0	672	0	Ⴞ	cut_oo_stereo_44KHz.wav
0	11	2	3	1	C	1	0	1178	0	Ⴋ	cut_eeuw_stereo_44KHz.wav
0	12	1	1	1	C	2	1	663	1	Ⴞ	cut_g_stereo_44KHz.wav
0	13	2	4	0	C	1	1	1157	1	Ⴋ	cut_ee_stereo_44KHz.wav
0	14	1	2	0	C	2	0	711	0	Ⴞ	cut_oo_stereo_44KHz.wav
0	15	1	1	1	C	2	1	1420	1	Ⴞ	cut_g_stereo_44KHz.wav
0	16	2	3	1	C	2	1	875	1	Ⴋ	cut_eeuw_stereo_44KHz.wav
0	17	1	1	1	C	2	1	1489	1	Ⴞ	cut_g_stereo_44KHz.wav
0	18	1	2	0	C	1	1	875	1	Ⴞ	cut_oo_stereo_44KHz.wav
0	19	2	3	1	C	2	1	788	1	Ⴋ	cut_eeuw_stereo_44KHz.wav
0	20	2	4	0	C	1	1	712	1	Ⴋ	cut_ee_stereo_44KHz.wav
0	21	2	3	1	C	1	0	696	0	Ⴋ	cut_eeuw_stereo_44KHz.wav
0	22	1	2	0	C	2	0	1118	0	Ⴞ	cut_oo_stereo_44KHz.wav
0	23	1	1	1	C	2	1	1264	1	Ⴞ	cut_g_stereo_44KHz.wav
0	24	2	4	0	C	1	1	636	1	Ⴋ	cut_ee_stereo_44KHz.wav
0	25	2	4	0	C	1	1	742	1	Ⴋ	cut_ee_stereo_44KHz.wav
0	26	1	2	0	C	1	1	1583	1	Ⴞ	cut_oo_stereo_44KHz.wav
0	27	2	3	1	C	2	1	722	1	Ⴋ	cut_eeuw_stereo_44KHz.wav
0	28	1	1	1	C	2	1	1021	1	Ⴞ	cut_g_stereo_44KHz.wav
0	29	2	3	1	C	1	0	694	0	Ⴋ	cut_eeuw_stereo_44KHz.wav
0	30	1	1	1	C	2	1	1102	1	Ⴞ	cut_g_stereo_44KHz.wav
avg_resp = 1061
1	1	2	2	1	C	2	1	1151	1	Ⴉ	cut_k_stereo_44KHz.wav
1	2	1	1	1	C	1	0	1156	0	Ⴖ	cut_u_stereo_44KHz.wav
1	3	4	3	2	I	1	0	1064	0	Ⴒ	cut_o_stereo_44KHz.wav
1	4	3	3	2	I	1	0	755	1	Ⴏ	cut_o_stereo_44KHz.wav
1	5	2	1	0	C	1	1	1604	1	Ⴉ	cut_u_stereo_44KHz.wav
1	6	1	2	0	C	1	1	1226	1	Ⴖ	cut_k_stereo_44KHz.wav
1	7	3	4	2	I	1	0	1827	0	Ⴏ	cut_a_stereo_44KHz.wav
1	8	4	4	2	I	1	0	1014	0	Ⴒ	cut_a_stereo_44KHz.wav
1	9	2	2	1	C	1	0	1906	0	Ⴉ	cut_k_stereo_44KHz.wav
1	10	4	4	2	I	1	0	1003	0	Ⴒ	cut_a_stereo_44KHz.wav
1	11	3	3	2	I	1	0	1098	0	Ⴏ	cut_o_stereo_44KHz.wav
1	12	1	1	1	C	2	1	1068	1	Ⴖ	cut_u_stereo_44KHz.wav
1	13	3	4	2	I	2	0	1306	0	Ⴏ	cut_a_stereo_44KHz.wav
1	14	1	2	0	C	1	1	1112	1	Ⴖ	cut_k_stereo_44KHz.wav
1	15	2	1	0	C	1	1	1628	1	Ⴉ	cut_u_stereo_44KHz.wav
1	16	4	3	2	I	1	0	1262	1	Ⴒ	cut_o_stereo_44KHz.wav
1	17	1	1	1	C	2	1	1388	1	Ⴖ	cut_u_stereo_44KHz.wav
1	18	3	3	2	I	2	0	1307	1	Ⴏ	cut_o_stereo_44KHz.wav
1	19	2	1	0	C	1	1	1080	1	Ⴉ	cut_u_stereo_44KHz.wav
1	20	4	4	2	I	2	0	1247	0	Ⴒ	cut_a_stereo_44KHz.wav
1	21	1	2	0	C	1	1	930	1	Ⴖ	cut_k_stereo_44KHz.wav
1	22	4	3	2	I	2	0	970	0	Ⴒ	cut_o_stereo_44KHz.wav
1	23	3	4	2	I	2	0	1589	1	Ⴏ	cut_a_stereo_44KHz.wav
1	24	2	2	1	C	1	0	1290	0	Ⴉ	cut_k_stereo_44KHz.wav
1	25	3	3	2	I	2	0	1735	0	Ⴏ	cut_o_stereo_44KHz.wav
1	26	1	2	0	C	1	1	1023	1	Ⴖ	cut_k_stereo_44KHz.wav
1	27	4	4	2	I	1	0	1317	0	Ⴒ	cut_a_stereo_44KHz.wav
1	28	2	2	1	C	1	0	1302	0	Ⴉ	cut_k_stereo_44KHz.wav
1	29	4	3	2	I	2	0	957	0	Ⴒ	cut_o_stereo_44KHz.wav
1	30	3	4	2	I	1	0	1086	0	Ⴏ	cut_a_stereo_44KHz.wav
1	31	1	1	1	C	2	1	1436	1	Ⴖ	cut_u_stereo_44KHz.wav
1	32	2	1	0	C	2	0	1125	0	Ⴉ	cut_u_stereo_44KHz.wav
1	33	4	4	2	I	1	0	1184	1	Ⴒ	cut_a_stereo_44KHz.wav
1	34	3	4	2	I	1	0	1781	0	Ⴏ	cut_a_stereo_44KHz.wav
1	35	2	2	1	C	0	0	0	0	Ⴉ	cut_k_stereo_44KHz.wav
1	36	1	1	1	C	2	1	1366	1	Ⴖ	cut_u_stereo_44KHz.wav
1	37	3	3	2	I	1	0	1131	0	Ⴏ	cut_o_stereo_44KHz.wav
1	38	2	1	0	C	1	1	992	1	Ⴉ	cut_u_stereo_44KHz.wav
1	39	1	2	0	C	1	1	886	1	Ⴖ	cut_k_stereo_44KHz.wav
1	40	4	3	2	I	2	0	1669	1	Ⴒ	cut_o_stereo_44KHz.wav
1	41	1	2	0	C	1	1	1009	1	Ⴖ	cut_k_stereo_44KHz.wav
1	42	2	2	1	C	2	1	1062	1	Ⴉ	cut_k_stereo_44KHz.wav
1	43	3	3	2	I	1	0	1182	1	Ⴏ	cut_o_stereo_44KHz.wav
1	44	4	4	2	I	1	0	1550	0	Ⴒ	cut_a_stereo_44KHz.wav
1	45	2	1	0	C	2	0	1419	0	Ⴉ	cut_u_stereo_44KHz.wav
1	46	3	4	2	I	1	0	1002	1	Ⴏ	cut_a_stereo_44KHz.wav
1	47	1	1	1	C	2	1	1328	1	Ⴖ	cut_u_stereo_44KHz.wav
1	48	4	3	2	I	1	0	957	1	Ⴒ	cut_o_stereo_44KHz.wav
1	49	2	2	1	C	2	1	1671	1	Ⴉ	cut_k_stereo_44KHz.wav
1	50	4	4	2	I	2	0	1634	1	Ⴒ	cut_a_stereo_44KHz.wav
1	51	1	1	1	C	2	1	1509	1	Ⴖ	cut_u_stereo_44KHz.wav
1	52	3	4	2	I	1	0	982	1	Ⴏ	cut_a_stereo_44KHz.wav
1	53	4	3	2	I	1	0	1293	1	Ⴒ	cut_o_stereo_44KHz.wav
1	54	2	1	0	C	1	1	1519	1	Ⴉ	cut_u_stereo_44KHz.wav
1	55	3	3	2	I	1	0	1133	0	Ⴏ	cut_o_stereo_44KHz.wav
1	56	1	2	0	C	1	1	964	1	Ⴖ	cut_k_stereo_44KHz.wav
1	57	4	3	2	I	2	0	748	1	Ⴒ	cut_o_stereo_44KHz.wav
1	58	3	3	2	I	1	0	976	1	Ⴏ	cut_o_stereo_44KHz.wav
1	59	1	2	0	C	1	1	1306	1	Ⴖ	cut_k_stereo_44KHz.wav
1	60	2	1	0	C	1	1	824	1	Ⴉ	cut_u_stereo_44KHz.wav
1	61	4	4	2	I	2	0	1307	0	Ⴒ	cut_a_stereo_44KHz.wav
1	62	3	4	2	I	2	0	1055	0	Ⴏ	cut_a_stereo_44KHz.wav
1	63	2	2	1	C	2	1	1673	1	Ⴉ	cut_k_stereo_44KHz.wav
1	64	1	1	1	C	2	1	972	1	Ⴖ	cut_u_stereo_44KHz.wav
1	65	4	4	2	I	2	0	1102	0	Ⴒ	cut_a_stereo_44KHz.wav
1	66	3	4	2	I	1	0	1108	0	Ⴏ	cut_a_stereo_44KHz.wav
1	67	1	2	0	C	1	1	1571	1	Ⴖ	cut_k_stereo_44KHz.wav
1	68	2	1	0	C	1	1	913	1	Ⴉ	cut_u_stereo_44KHz.wav
1	69	3	3	2	I	1	0	1935	0	Ⴏ	cut_o_stereo_44KHz.wav
1	70	2	2	1	C	2	1	1377	1	Ⴉ	cut_k_stereo_44KHz.wav
1	71	1	1	1	C	2	1	1193	1	Ⴖ	cut_u_stereo_44KHz.wav
1	72	4	3	2	I	1	0	993	1	Ⴒ	cut_o_stereo_44KHz.wav
1	73	3	3	2	I	1	0	913	1	Ⴏ	cut_o_stereo_44KHz.wav
1	74	4	4	2	I	1	0	1569	0	Ⴒ	cut_a_stereo_44KHz.wav
1	75	2	2	1	C	2	1	1272	1	Ⴉ	cut_k_stereo_44KHz.wav
1	76	1	1	1	C	1	0	929	0	Ⴖ	cut_u_stereo_44KHz.wav
1	77	3	4	2	I	1	0	1716	1	Ⴏ	cut_a_stereo_44KHz.wav
1	78	4	3	2	I	0	0	0	0	Ⴒ	cut_o_stereo_44KHz.wav
1	79	2	1	0	C	2	0	1038	0	Ⴉ	cut_u_stereo_44KHz.wav
1	80	1	2	0	C	1	1	1022	1	Ⴖ	cut_k_stereo_44KHz.wav
1	81	2	1	0	C	1	1	992	1	Ⴉ	cut_u_stereo_44KHz.wav
1	82	1	1	1	C	2	1	737	1	Ⴖ	cut_u_stereo_44KHz.wav
1	83	4	4	2	I	1	0	1540	0	Ⴒ	cut_a_stereo_44KHz.wav
1	84	3	4	2	I	1	0	1276	1	Ⴏ	cut_a_stereo_44KHz.wav
1	85	4	3	2	I	1	0	1348	1	Ⴒ	cut_o_stereo_44KHz.wav
1	86	3	3	2	I	1	0	1073	1	Ⴏ	cut_o_stereo_44KHz.wav
1	87	2	2	1	C	2	1	1888	1	Ⴉ	cut_k_stereo_44KHz.wav
1	88	1	2	0	C	2	0	1097	0	Ⴖ	cut_k_stereo_44KHz.wav
1	89	4	3	2	I	1	0	1216	1	Ⴒ	cut_o_stereo_44KHz.wav
1	90	3	3	2	I	1	0	760	1	Ⴏ	cut_o_stereo_44KHz.wav
1	91	1	1	1	C	2	1	1536	1	Ⴖ	cut_u_stereo_44KHz.wav
1	92	2	1	0	C	1	1	769	1	Ⴉ	cut_u_stereo_44KHz.wav
1	93	4	4	2	I	1	0	1370	1	Ⴒ	cut_a_stereo_44KHz.wav
1	94	1	2	0	C	2	0	1461	0	Ⴖ	cut_k_stereo_44KHz.wav
1	95	2	2	1	C	2	1	1159	1	Ⴉ	cut_k_stereo_44KHz.wav
1	96	3	4	2	I	2	0	1096	0	Ⴏ	cut_a_stereo_44KHz.wav
1	97	2	1	0	C	1	1	1641	1	Ⴉ	cut_u_stereo_44KHz.wav
1	98	3	4	2	I	2	0	1445	1	Ⴏ	cut_a_stereo_44KHz.wav
1	99	4	3	2	I	2	0	1317	0	Ⴒ	cut_o_stereo_44KHz.wav
1	100	1	2	0	C	1	1	1586	1	Ⴖ	cut_k_stereo_44KHz.wav
1	101	4	4	2	I	1	0	898	1	Ⴒ	cut_a_stereo_44KHz.wav
1	102	3	3	2	I	2	0	1481	0	Ⴏ	cut_o_stereo_44KHz.wav
1	103	1	1	1	C	2	1	1080	1	Ⴖ	cut_u_stereo_44KHz.wav
1	104	2	2	1	C	1	0	1056	0	Ⴉ	cut_k_stereo_44KHz.wav
1	105	1	2	0	C	1	1	1339	1	Ⴖ	cut_k_stereo_44KHz.wav
1	106	2	2	1	C	2	1	1292	1	Ⴉ	cut_k_stereo_44KHz.wav
1	107	4	4	2	I	2	0	912	1	Ⴒ	cut_a_stereo_44KHz.wav
1	108	3	4	2	I	1	0	964	1	Ⴏ	cut_a_stereo_44KHz.wav
1	109	1	1	1	C	2	1	1140	1	Ⴖ	cut_u_stereo_44KHz.wav
1	110	2	1	0	C	1	1	817	1	Ⴉ	cut_u_stereo_44KHz.wav
1	111	4	3	2	I	2	0	1399	0	Ⴒ	cut_o_stereo_44KHz.wav
1	112	3	3	2	I	2	0	1485	1	Ⴏ	cut_o_stereo_44KHz.wav
1	113	1	1	1	C	2	1	941	1	Ⴖ	cut_u_stereo_44KHz.wav
1	114	4	4	2	I	1	0	1159	1	Ⴒ	cut_a_stereo_44KHz.wav
1	115	3	4	2	I	1	0	1288	0	Ⴏ	cut_a_stereo_44KHz.wav
1	116	2	1	0	C	1	1	1217	1	Ⴉ	cut_u_stereo_44KHz.wav
1	117	4	3	2	I	1	0	1388	0	Ⴒ	cut_o_stereo_44KHz.wav
1	118	2	2	1	C	1	0	963	0	Ⴉ	cut_k_stereo_44KHz.wav
1	119	3	3	2	I	2	0	1244	1	Ⴏ	cut_o_stereo_44KHz.wav
1	120	1	2	0	C	1	1	1774	1	Ⴖ	cut_k_stereo_44KHz.wav
1	121	3	4	2	I	1	0	1218	0	Ⴏ	cut_a_stereo_44KHz.wav
1	122	1	1	1	C	2	1	1663	1	Ⴖ	cut_u_stereo_44KHz.wav
1	123	2	1	0	C	1	1	805	1	Ⴉ	cut_u_stereo_44KHz.wav
1	124	4	4	2	I	0	0	0	0	Ⴒ	cut_a_stereo_44KHz.wav
1	125	1	2	0	C	2	0	1308	0	Ⴖ	cut_k_stereo_44KHz.wav
1	126	3	3	2	I	2	0	1734	0	Ⴏ	cut_o_stereo_44KHz.wav
1	127	2	2	1	C	2	1	1272	1	Ⴉ	cut_k_stereo_44KHz.wav
1	128	4	3	2	I	1	0	1157	1	Ⴒ	cut_o_stereo_44KHz.wav
1	129	2	1	0	C	1	1	1274	1	Ⴉ	cut_u_stereo_44KHz.wav
1	130	3	4	2	I	1	0	1311	1	Ⴏ	cut_a_stereo_44KHz.wav
1	131	1	2	0	C	2	0	1541	0	Ⴖ	cut_k_stereo_44KHz.wav
1	132	4	4	2	I	1	0	1407	0	Ⴒ	cut_a_stereo_44KHz.wav
1	133	3	3	2	I	1	0	1564	0	Ⴏ	cut_o_stereo_44KHz.wav
1	134	4	3	2	I	1	0	1274	1	Ⴒ	cut_o_stereo_44KHz.wav
1	135	1	1	1	C	0	0	0	0	Ⴖ	cut_u_stereo_44KHz.wav
1	136	2	2	1	C	2	1	1399	1	Ⴉ	cut_k_stereo_44KHz.wav
1	137	3	4	2	I	1	0	1179	0	Ⴏ	cut_a_stereo_44KHz.wav
1	138	4	4	2	I	1	0	1423	1	Ⴒ	cut_a_stereo_44KHz.wav
1	139	2	2	1	C	2	1	1014	1	Ⴉ	cut_k_stereo_44KHz.wav
1	140	1	1	1	C	2	1	1084	1	Ⴖ	cut_u_stereo_44KHz.wav
1	141	3	3	2	I	2	0	1388	0	Ⴏ	cut_o_stereo_44KHz.wav
1	142	2	1	0	C	2	0	1885	0	Ⴉ	cut_u_stereo_44KHz.wav
1	143	1	2	0	C	0	0	0	0	Ⴖ	cut_k_stereo_44KHz.wav
1	144	4	3	2	I	2	0	1041	0	Ⴒ	cut_o_stereo_44KHz.wav
1	145	2	1	0	C	1	1	998	1	Ⴉ	cut_u_stereo_44KHz.wav
1	146	3	3	2	I	2	0	1656	1	Ⴏ	cut_o_stereo_44KHz.wav
1	147	4	3	2	I	2	0	923	0	Ⴒ	cut_o_stereo_44KHz.wav
1	148	1	1	1	C	2	1	1033	1	Ⴖ	cut_u_stereo_44KHz.wav
1	149	2	2	1	C	2	1	1655	1	Ⴉ	cut_k_stereo_44KHz.wav
1	150	4	4	2	I	2	0	1048	0	Ⴒ	cut_a_stereo_44KHz.wav
1	151	1	2	0	C	2	0	1200	0	Ⴖ	cut_k_stereo_44KHz.wav
1	152	3	4	2	I	2	0	915	1	Ⴏ	cut_a_stereo_44KHz.wav
1	153	2	1	0	C	1	1	763	1	Ⴉ	cut_u_stereo_44KHz.wav
1	154	1	2	0	C	1	1	1118	1	Ⴖ	cut_k_stereo_44KHz.wav
1	155	3	3	2	I	1	0	680	0	Ⴏ	cut_o_stereo_44KHz.wav
1	156	4	3	2	I	1	0	1179	1	Ⴒ	cut_o_stereo_44KHz.wav
1	157	2	2	1	C	2	1	939	1	Ⴉ	cut_k_stereo_44KHz.wav
1	158	4	4	2	I	2	0	1297	1	Ⴒ	cut_a_stereo_44KHz.wav
1	159	3	4	2	I	2	0	957	1	Ⴏ	cut_a_stereo_44KHz.wav
1	160	1	1	1	C	2	1	1169	1	Ⴖ	cut_u_stereo_44KHz.wav
1	161	3	3	2	I	2	0	979	0	Ⴏ	cut_o_stereo_44KHz.wav
1	162	1	2	0	C	2	0	1208	0	Ⴖ	cut_k_stereo_44KHz.wav
1	163	4	4	2	I	1	0	1163	1	Ⴒ	cut_a_stereo_44KHz.wav
1	164	2	1	0	C	1	1	990	1	Ⴉ	cut_u_stereo_44KHz.wav
1	165	1	1	1	C	2	1	1234	1	Ⴖ	cut_u_stereo_44KHz.wav
1	166	3	4	2	I	2	0	702	0	Ⴏ	cut_a_stereo_44KHz.wav
1	167	4	3	2	I	2	0	838	0	Ⴒ	cut_o_stereo_44KHz.wav
1	168	2	2	1	C	2	1	1890	1	Ⴉ	cut_k_stereo_44KHz.wav
1	169	4	3	2	I	2	0	1257	0	Ⴒ	cut_o_stereo_44KHz.wav
1	170	3	3	2	I	2	0	1400	1	Ⴏ	cut_o_stereo_44KHz.wav
1	171	1	1	1	C	2	1	1208	1	Ⴖ	cut_u_stereo_44KHz.wav
1	172	2	2	1	C	1	0	1158	0	Ⴉ	cut_k_stereo_44KHz.wav
1	173	4	4	2	I	1	0	800	1	Ⴒ	cut_a_stereo_44KHz.wav
1	174	3	4	2	I	1	0	720	0	Ⴏ	cut_a_stereo_44KHz.wav
1	175	1	2	0	C	2	0	1648	0	Ⴖ	cut_k_stereo_44KHz.wav
1	176	2	1	0	C	0	0	0	0	Ⴉ	cut_u_stereo_44KHz.wav
1	177	1	2	0	C	1	1	1464	1	Ⴖ	cut_k_stereo_44KHz.wav
1	178	4	4	2	I	1	0	851	1	Ⴒ	cut_a_stereo_44KHz.wav
1	179	2	2	1	C	1	0	1344	0	Ⴉ	cut_k_stereo_44KHz.wav
1	180	3	4	2	I	2	0	924	1	Ⴏ	cut_a_stereo_44KHz.wav
1	181	4	3	2	I	1	0	1237	1	Ⴒ	cut_o_stereo_44KHz.wav
1	182	1	1	1	C	2	1	1902	1	Ⴖ	cut_u_stereo_44KHz.wav
1	183	2	1	0	C	1	1	1387	1	Ⴉ	cut_u_stereo_44KHz.wav
1	184	3	3	2	I	2	0	673	1	Ⴏ	cut_o_stereo_44KHz.wav
1	185	4	4	2	I	1	0	864	1	Ⴒ	cut_a_stereo_44KHz.wav
1	186	1	2	0	C	2	0	1381	0	Ⴖ	cut_k_stereo_44KHz.wav
1	187	2	1	0	C	1	1	1319	1	Ⴉ	cut_u_stereo_44KHz.wav
1	188	3	4	2	I	1	0	598	1	Ⴏ	cut_a_stereo_44KHz.wav
1	189	4	3	2	I	2	0	732	0	Ⴒ	cut_o_stereo_44KHz.wav
1	190	1	1	1	C	2	1	1461	1	Ⴖ	cut_u_stereo_44KHz.wav
1	191	3	3	2	I	2	0	1061	1	Ⴏ	cut_o_stereo_44KHz.wav
1	192	2	2	1	C	1	0	1489	0	Ⴉ	cut_k_stereo_44KHz.wav
1	193	1	1	1	C	1	0	1484	0	Ⴖ	cut_u_stereo_44KHz.wav
1	194	2	1	0	C	0	0	0	0	Ⴉ	cut_u_stereo_44KHz.wav
1	195	4	3	2	I	2	0	834	1	Ⴒ	cut_o_stereo_44KHz.wav
1	196	3	3	2	I	2	0	720	0	Ⴏ	cut_o_stereo_44KHz.wav
1	197	4	4	2	I	2	0	1217	0	Ⴒ	cut_a_stereo_44KHz.wav
1	198	2	2	1	C	2	1	1586	1	Ⴉ	cut_k_stereo_44KHz.wav
1	199	3	4	2	I	2	0	1230	0	Ⴏ	cut_a_stereo_44KHz.wav
1	200	1	2	0	C	0	0	0	0	Ⴖ	cut_k_stereo_44KHz.wav
2	1	1	1	1	C	2	1	1255	1	Ⴇ	cut_f_stereo_44KHz.wav
2	2	4	4	2	I	1	0	1305	1	Ⴊ	cut_n_stereo_44KHz.wav
2	3	3	4	2	I	1	0	1141	1	Ⴜ	cut_n_stereo_44KHz.wav
2	4	2	1	0	C	2	0	1299	0	Ⴃ	cut_f_stereo_44KHz.wav
2	5	1	2	0	C	2	0	1211	0	Ⴇ	cut_s_stereo_44KHz.wav
2	6	3	3	2	I	1	0	1385	0	Ⴜ	cut_ui_stereo_44KHz.wav
2	7	2	2	1	C	1	0	1158	0	Ⴃ	cut_s_stereo_44KHz.wav
2	8	4	3	2	I	1	0	1263	0	Ⴊ	cut_ui_stereo_44KHz.wav
2	9	1	1	1	C	1	0	1065	0	Ⴇ	cut_f_stereo_44KHz.wav
2	10	4	4	2	I	1	0	1470	1	Ⴊ	cut_n_stereo_44KHz.wav
2	11	3	3	2	I	1	0	1084	1	Ⴜ	cut_ui_stereo_44KHz.wav
2	12	2	1	0	C	0	0	0	0	Ⴃ	cut_f_stereo_44KHz.wav
2	13	3	4	2	I	2	0	1326	0	Ⴜ	cut_n_stereo_44KHz.wav
2	14	2	2	1	C	1	0	1554	0	Ⴃ	cut_s_stereo_44KHz.wav
2	15	1	2	0	C	1	1	774	1	Ⴇ	cut_s_stereo_44KHz.wav
2	16	4	3	2	I	1	0	802	1	Ⴊ	cut_ui_stereo_44KHz.wav
2	17	2	1	0	C	2	0	1438	0	Ⴃ	cut_f_stereo_44KHz.wav
2	18	3	3	2	I	2	0	1258	1	Ⴜ	cut_ui_stereo_44KHz.wav
2	19	1	2	0	C	1	1	1149	1	Ⴇ	cut_s_stereo_44KHz.wav
2	20	4	3	2	I	1	0	1056	1	Ⴊ	cut_ui_stereo_44KHz.wav
2	21	1	1	1	C	2	1	1287	1	Ⴇ	cut_f_stereo_44KHz.wav
2	22	3	4	2	I	2	0	976	0	Ⴜ	cut_n_stereo_44KHz.wav
2	23	4	4	2	I	2	0	1014	0	Ⴊ	cut_n_stereo_44KHz.wav
2	24	2	2	1	C	1	0	968	0	Ⴃ	cut_s_stereo_44KHz.wav
2	25	4	3	2	I	1	0	873	1	Ⴊ	cut_ui_stereo_44KHz.wav
2	26	2	2	1	C	0	0	0	0	Ⴃ	cut_s_stereo_44KHz.wav
2	27	3	4	2	I	1	0	1206	1	Ⴜ	cut_n_stereo_44KHz.wav
2	28	1	2	0	C	1	1	1733	1	Ⴇ	cut_s_stereo_44KHz.wav
2	29	4	4	2	I	2	0	995	1	Ⴊ	cut_n_stereo_44KHz.wav
2	30	3	3	2	I	2	0	1055	0	Ⴜ	cut_ui_stereo_44KHz.wav
2	31	2	1	0	C	1	1	1928	1	Ⴃ	cut_f_stereo_44KHz.wav
2	32	1	1	1	C	2	1	1613	1	Ⴇ	cut_f_stereo_44KHz.wav
2	33	2	2	1	C	2	1	1351	1	Ⴃ	cut_s_stereo_44KHz.wav
2	34	1	1	1	C	1	0	1157	0	Ⴇ	cut_f_stereo_44KHz.wav
2	35	4	3	2	I	1	0	1510	0	Ⴊ	cut_ui_stereo_44KHz.wav
2	36	3	4	2	I	2	0	1045	1	Ⴜ	cut_n_stereo_44KHz.wav
2	37	1	2	0	C	1	1	1925	1	Ⴇ	cut_s_stereo_44KHz.wav
2	38	4	4	2	I	2	0	1015	1	Ⴊ	cut_n_stereo_44KHz.wav
2	39	3	3	2	I	1	0	1368	1	Ⴜ	cut_ui_stereo_44KHz.wav
2	40	2	1	0	C	1	1	1108	1	Ⴃ	cut_f_stereo_44KHz.wav
2	41	3	3	2	I	1	0	937	1	Ⴜ	cut_ui_stereo_44KHz.wav
2	42	1	1	1	C	1	0	838	0	Ⴇ	cut_f_stereo_44KHz.wav
2	43	4	3	2	I	2	0	776	1	Ⴊ	cut_ui_stereo_44KHz.wav
2	44	2	1	0	C	2	0	701	0	Ⴃ	cut_f_stereo_44KHz.wav
2	45	1	2	0	C	1	1	583	1	Ⴇ	cut_s_stereo_44KHz.wav
2	46	4	4	2	I	1	0	641	0	Ⴊ	cut_n_stereo_44KHz.wav
2	47	3	4	2	I	1	0	601	0	Ⴜ	cut_n_stereo_44KHz.wav
2	48	2	2	1	C	2	1	1010	1	Ⴃ	cut_s_stereo_44KHz.wav
2	49	3	4	2	I	2	0	786	0	Ⴜ	cut_n_stereo_44KHz.wav
2	50	1	1	1	C	0	0	0	0	Ⴇ	cut_f_stereo_44KHz.wav
2	51	2	1	0	C	1	1	898	1	Ⴃ	cut_f_stereo_44KHz.wav
2	52	4	3	2	I	1	0	700	1	Ⴊ	cut_ui_stereo_44KHz.wav
2	53	2	2	1	C	1	0	622	0	Ⴃ	cut_s_stereo_44KHz.wav
2	54	3	3	2	I	2	0	614	0	Ⴜ	cut_ui_stereo_44KHz.wav
2	55	4	4	2	I	1	0	1301	0	Ⴊ	cut_n_stereo_44KHz.wav
2	56	1	2	0	C	1	1	1541	1	Ⴇ	cut_s_stereo_44KHz.wav
2	57	4	3	2	I	1	0	1140	0	Ⴊ	cut_ui_stereo_44KHz.wav
2	58	2	1	0	C	2	0	632	0	Ⴃ	cut_f_stereo_44KHz.wav
2	59	1	2	0	C	1	1	1052	1	Ⴇ	cut_s_stereo_44KHz.wav
2	60	3	3	2	I	1	0	801	1	Ⴜ	cut_ui_stereo_44KHz.wav
2	61	2	2	1	C	1	0	527	0	Ⴃ	cut_s_stereo_44KHz.wav
2	62	1	1	1	C	1	0	880	0	Ⴇ	cut_f_stereo_44KHz.wav
2	63	3	4	2	I	1	0	983	0	Ⴜ	cut_n_stereo_44KHz.wav
2	64	4	4	2	I	2	0	1918	0	Ⴊ	cut_n_stereo_44KHz.wav
2	65	1	2	0	C	2	0	1914	0	Ⴇ	cut_s_stereo_44KHz.wav
2	66	3	3	2	I	1	0	1848	1	Ⴜ	cut_ui_stereo_44KHz.wav
2	67	4	3	2	I	1	0	1209	0	Ⴊ	cut_ui_stereo_44KHz.wav
2	68	2	2	1	C	2	1	1390	1	Ⴃ	cut_s_stereo_44KHz.wav
2	69	1	1	1	C	2	1	795	1	Ⴇ	cut_f_stereo_44KHz.wav
2	70	3	4	2	I	1	0	1027	1	Ⴜ	cut_n_stereo_44KHz.wav
2	71	4	4	2	I	1	0	1255	0	Ⴊ	cut_n_stereo_44KHz.wav
2	72	2	1	0	C	1	1	819	1	Ⴃ	cut_f_stereo_44KHz.wav
2	73	1	1	1	C	1	0	789	0	Ⴇ	cut_f_stereo_44KHz.wav
2	74	2	1	0	C	1	1	1348	1	Ⴃ	cut_f_stereo_44KHz.wav
2	75	3	4	2	I	2	0	831	1	Ⴜ	cut_n_stereo_44KHz.wav
2	76	4	4	2	I	1	0	788	0	Ⴊ	cut_n_stereo_44KHz.wav
2	77	1	2	0	C	2	0	819	0	Ⴇ	cut_s_stereo_44KHz.wav
2	78	3	3	2	I	1	0	602	1	Ⴜ	cut_ui_stereo_44KHz.wav
2	79	2	2	1	C	2	1	1893	1	Ⴃ	cut_s_stereo_44KHz.wav
2	80	4	3	2	I	1	0	528	1	Ⴊ	cut_ui_stereo_44KHz.wav
2	81	1	2	0	C	2	0	444	0	Ⴇ	cut_s_stereo_44KHz.wav
2	82	3	3	2	I	2	0	698	1	Ⴜ	cut_ui_stereo_44KHz.wav
2	83	2	1	0	C	2	0	939	0	Ⴃ	cut_f_stereo_44KHz.wav
2	84	4	4	2	I	1	0	989	1	Ⴊ	cut_n_stereo_44KHz.wav
2	85	2	2	1	C	1	0	1027	0	Ⴃ	cut_s_stereo_44KHz.wav
2	86	1	1	1	C	2	1	334	1	Ⴇ	cut_f_stereo_44KHz.wav
2	87	4	3	2	I	1	0	692	0	Ⴊ	cut_ui_stereo_44KHz.wav
2	88	3	4	2	I	1	0	728	0	Ⴜ	cut_n_stereo_44KHz.wav
2	89	2	2	1	C	2	1	1108	1	Ⴃ	cut_s_stereo_44KHz.wav
2	90	4	3	2	I	2	0	509	0	Ⴊ	cut_ui_stereo_44KHz.wav
2	91	3	3	2	I	2	0	975	0	Ⴜ	cut_ui_stereo_44KHz.wav
2	92	1	2	0	C	1	1	1220	1	Ⴇ	cut_s_stereo_44KHz.wav
2	93	4	4	2	I	1	0	1300	1	Ⴊ	cut_n_stereo_44KHz.wav
2	94	1	1	1	C	2	1	1686	1	Ⴇ	cut_f_stereo_44KHz.wav
2	95	2	1	0	C	2	0	858	0	Ⴃ	cut_f_stereo_44KHz.wav
2	96	3	4	2	I	2	0	1078	0	Ⴜ	cut_n_stereo_44KHz.wav
2	97	1	1	1	C	1	0	1042	0	Ⴇ	cut_f_stereo_44KHz.wav
2	98	4	4	2	I	2	0	763	0	Ⴊ	cut_n_stereo_44KHz.wav
2	99	3	4	2	I	2	0	659	0	Ⴜ	cut_n_stereo_44KHz.wav
2	100	2	2	1	C	2	1	848	1	Ⴃ	cut_s_stereo_44KHz.wav
2	101	4	3	2	I	1	0	697	0	Ⴊ	cut_ui_stereo_44KHz.wav
2	102	2	1	0	C	2	0	1121	0	Ⴃ	cut_f_stereo_44KHz.wav
2	103	1	2	0	C	1	1	1110	1	Ⴇ	cut_s_stereo_44KHz.wav
2	104	3	3	2	I	1	0	847	1	Ⴜ	cut_ui_stereo_44KHz.wav
2	105	4	4	2	I	0	0	0	0	Ⴊ	cut_n_stereo_44KHz.wav
2	106	2	1	0	C	2	0	727	0	Ⴃ	cut_f_stereo_44KHz.wav
2	107	3	3	2	I	1	0	728	1	Ⴜ	cut_ui_stereo_44KHz.wav
2	108	1	2	0	C	1	1	1074	1	Ⴇ	cut_s_stereo_44KHz.wav
2	109	3	4	2	I	2	0	1318	1	Ⴜ	cut_n_stereo_44KHz.wav
2	110	4	3	2	I	2	0	1291	1	Ⴊ	cut_ui_stereo_44KHz.wav
2	111	2	2	1	C	2	1	1465	1	Ⴃ	cut_s_stereo_44KHz.wav
2	112	1	1	1	C	2	1	1183	1	Ⴇ	cut_f_stereo_44KHz.wav
2	113	4	4	2	I	2	0	1248	0	Ⴊ	cut_n_stereo_44KHz.wav
2	114	1	1	1	C	0	0	0	0	Ⴇ	cut_f_stereo_44KHz.wav
2	115	3	3	2	I	1	0	997	0	Ⴜ	cut_ui_stereo_44KHz.wav
2	116	2	2	1	C	2	1	1552	1	Ⴃ	cut_s_stereo_44KHz.wav
2	117	4	3	2	I	2	0	529	1	Ⴊ	cut_ui_stereo_44KHz.wav
2	118	1	2	0	C	2	0	728	0	Ⴇ	cut_s_stereo_44KHz.wav
2	119	3	4	2	I	1	0	1544	0	Ⴜ	cut_n_stereo_44KHz.wav
2	120	2	1	0	C	1	1	967	1	Ⴃ	cut_f_stereo_44KHz.wav
2	121	3	4	2	I	2	0	1143	0	Ⴜ	cut_n_stereo_44KHz.wav
2	122	2	1	0	C	1	1	894	1	Ⴃ	cut_f_stereo_44KHz.wav
2	123	1	1	1	C	2	1	897	1	Ⴇ	cut_f_stereo_44KHz.wav
2	124	4	3	2	I	2	0	940	1	Ⴊ	cut_ui_stereo_44KHz.wav
2	125	1	2	0	C	1	1	1237	1	Ⴇ	cut_s_stereo_44KHz.wav
2	126	2	2	1	C	2	1	1581	1	Ⴃ	cut_s_stereo_44KHz.wav
2	127	4	4	2	I	1	0	1107	0	Ⴊ	cut_n_stereo_44KHz.wav
2	128	3	3	2	I	2	0	1113	1	Ⴜ	cut_ui_stereo_44KHz.wav
2	129	1	2	0	C	1	1	796	1	Ⴇ	cut_s_stereo_44KHz.wav
2	130	4	3	2	I	2	0	1109	0	Ⴊ	cut_ui_stereo_44KHz.wav
2	131	2	1	0	C	1	1	756	1	Ⴃ	cut_f_stereo_44KHz.wav
2	132	3	3	2	I	2	0	1769	0	Ⴜ	cut_ui_stereo_44KHz.wav
2	133	1	1	1	C	2	1	1394	1	Ⴇ	cut_f_stereo_44KHz.wav
2	134	4	4	2	I	2	0	671	0	Ⴊ	cut_n_stereo_44KHz.wav
2	135	2	2	1	C	1	0	473	0	Ⴃ	cut_s_stereo_44KHz.wav
2	136	3	4	2	I	0	0	0	0	Ⴜ	cut_n_stereo_44KHz.wav
2	137	4	3	2	I	2	0	751	0	Ⴊ	cut_ui_stereo_44KHz.wav
2	138	2	1	0	C	1	1	1232	1	Ⴃ	cut_f_stereo_44KHz.wav
2	139	3	3	2	I	2	0	733	0	Ⴜ	cut_ui_stereo_44KHz.wav
2	140	1	2	0	C	2	0	904	0	Ⴇ	cut_s_stereo_44KHz.wav
2	141	4	4	2	I	2	0	807	1	Ⴊ	cut_n_stereo_44KHz.wav
2	142	2	2	1	C	2	1	1270	1	Ⴃ	cut_s_stereo_44KHz.wav
2	143	3	4	2	I	2	0	1687	1	Ⴜ	cut_n_stereo_44KHz.wav
2	144	1	1	1	C	2	1	1248	1	Ⴇ	cut_f_stereo_44KHz.wav
2	145	4	4	2	I	2	0	1430	1	Ⴊ	cut_n_stereo_44KHz.wav
2	146	2	2	1	C	2	1	1667	1	Ⴃ	cut_s_stereo_44KHz.wav
2	147	1	2	0	C	2	0	1222	0	Ⴇ	cut_s_stereo_44KHz.wav
2	148	3	3	2	I	1	0	1343	1	Ⴜ	cut_ui_stereo_44KHz.wav
2	149	1	1	1	C	1	0	923	0	Ⴇ	cut_f_stereo_44KHz.wav
2	150	2	1	0	C	2	0	1293	0	Ⴃ	cut_f_stereo_44KHz.wav
2	151	4	3	2	I	1	0	905	1	Ⴊ	cut_ui_stereo_44KHz.wav
2	152	3	4	2	I	2	0	807	1	Ⴜ	cut_n_stereo_44KHz.wav
2	153	4	3	2	I	2	0	930	1	Ⴊ	cut_ui_stereo_44KHz.wav
2	154	3	3	2	I	1	0	447	0	Ⴜ	cut_ui_stereo_44KHz.wav
2	155	1	1	1	C	2	1	627	1	Ⴇ	cut_f_stereo_44KHz.wav
2	156	2	2	1	C	1	0	738	0	Ⴃ	cut_s_stereo_44KHz.wav
2	157	3	4	2	I	2	0	1296	1	Ⴜ	cut_n_stereo_44KHz.wav
2	158	2	1	0	C	1	1	1120	1	Ⴃ	cut_f_stereo_44KHz.wav
2	159	4	4	2	I	2	0	858	1	Ⴊ	cut_n_stereo_44KHz.wav
2	160	1	2	0	C	2	0	654	0	Ⴇ	cut_s_stereo_44KHz.wav
2	161	2	1	0	C	1	1	365	1	Ⴃ	cut_f_stereo_44KHz.wav
2	162	4	4	2	I	2	0	878	1	Ⴊ	cut_n_stereo_44KHz.wav
2	163	1	1	1	C	1	0	473	0	Ⴇ	cut_f_stereo_44KHz.wav
2	164	3	4	2	I	2	0	759	0	Ⴜ	cut_n_stereo_44KHz.wav
2	165	4	3	2	I	1	0	390	0	Ⴊ	cut_ui_stereo_44KHz.wav
2	166	3	3	2	I	2	0	521	0	Ⴜ	cut_ui_stereo_44KHz.wav
2	167	2	2	1	C	2	1	1456	1	Ⴃ	cut_s_stereo_44KHz.wav
2	168	1	2	0	C	2	0	805	0	Ⴇ	cut_s_stereo_44KHz.wav
2	169	4	3	2	I	1	0	1359	0	Ⴊ	cut_ui_stereo_44KHz.wav
2	170	2	2	1	C	1	0	1691	0	Ⴃ	cut_s_stereo_44KHz.wav
2	171	1	1	1	C	2	1	977	1	Ⴇ	cut_f_stereo_44KHz.wav
2	172	3	4	2	I	2	0	1694	1	Ⴜ	cut_n_stereo_44KHz.wav
2	173	2	1	0	C	1	1	1195	1	Ⴃ	cut_f_stereo_44KHz.wav
2	174	3	3	2	I	2	0	576	0	Ⴜ	cut_ui_stereo_44KHz.wav
2	175	4	4	2	I	1	0	1260	0	Ⴊ	cut_n_stereo_44KHz.wav
2	176	1	2	0	C	2	0	1115	0	Ⴇ	cut_s_stereo_44KHz.wav
2	177	2	1	0	C	1	1	1199	1	Ⴃ	cut_f_stereo_44KHz.wav
2	178	1	1	1	C	1	0	1529	0	Ⴇ	cut_f_stereo_44KHz.wav
2	179	3	3	2	I	2	0	1003	0	Ⴜ	cut_ui_stereo_44KHz.wav
2	180	4	4	2	I	2	0	1337	0	Ⴊ	cut_n_stereo_44KHz.wav
2	181	2	2	1	C	0	0	0	0	Ⴃ	cut_s_stereo_44KHz.wav
2	182	3	4	2	I	2	0	664	1	Ⴜ	cut_n_stereo_44KHz.wav
2	183	4	3	2	I	1	0	1744	0	Ⴊ	cut_ui_stereo_44KHz.wav
2	184	1	2	0	C	1	1	878	1	Ⴇ	cut_s_stereo_44KHz.wav
2	185	3	3	2	I	1	0	660	1	Ⴜ	cut_ui_stereo_44KHz.wav
2	186	4	4	2	I	2	0	868	1	Ⴊ	cut_n_stereo_44KHz.wav
2	187	2	2	1	C	1	0	847	0	Ⴃ	cut_s_stereo_44KHz.wav
2	188	1	2	0	C	2	0	920	0	Ⴇ	cut_s_stereo_44KHz.wav
2	189	4	3	2	I	0	0	0	0	Ⴊ	cut_ui_stereo_44KHz.wav
2	190	2	1	0	C	2	0	1308	0	Ⴃ	cut_f_stereo_44KHz.wav
2	191	1	1	1	C	1	0	1502	0	Ⴇ	cut_f_stereo_44KHz.wav
2	192	3	4	2	I	2	0	762	0	Ⴜ	cut_n_stereo_44KHz.wav
2	193	2	2	1	C	2	1	1076	1	Ⴃ	cut_s_stereo_44KHz.wav
2	194	3	4	2	I	2	0	1472	1	Ⴜ	cut_n_stereo_44KHz.wav
2	195	4	3	2	I	0	0	0	0	Ⴊ	cut_ui_stereo_44KHz.wav
2	196	1	2	0	C	2	0	1493	0	Ⴇ	cut_s_stereo_44KHz.wav
2	197	2	1	0	C	1	1	746	1	Ⴃ	cut_f_stereo_44KHz.wav
2	198	3	3	2	I	2	0	1829	0	Ⴜ	cut_ui_stereo_44KHz.wav
2	199	1	1	1	C	1	0	1922	0	Ⴇ	cut_f_stereo_44KHz.wav
2	200	4	4	2	I	2	0	1277	1	Ⴊ	cut_n_stereo_44KHz.wav
3	1	3	3	2	I	2	0	1002	0	Ⴕ	cut_g_stereo_44KHz.wav
3	2	2	1	0	C	1	1	836	1	Ⴐ	cut_h_stereo_44KHz.wav
3	3	4	4	2	I	1	0	705	0	Ⴔ	cut_w_stereo_44KHz.wav
3	4	1	1	1	C	1	0	1034	0	Ⴌ	cut_h_stereo_44KHz.wav
3	5	3	4	2	I	1	0	696	1	Ⴕ	cut_w_stereo_44KHz.wav
3	6	4	3	2	I	1	0	734	1	Ⴔ	cut_g_stereo_44KHz.wav
3	7	1	2	0	C	1	1	958	1	Ⴌ	cut_l_stereo_44KHz.wav
3	8	2	2	1	C	1	0	1113	0	Ⴐ	cut_l_stereo_44KHz.wav
3	9	4	3	2	I	1	0	797	1	Ⴔ	cut_g_stereo_44KHz.wav
3	10	1	2	0	C	1	1	791	1	Ⴌ	cut_l_stereo_44KHz.wav
3	11	3	4	2	I	1	0	777	0	Ⴕ	cut_w_stereo_44KHz.wav
3	12	2	1	0	C	1	1	689	1	Ⴐ	cut_h_stereo_44KHz.wav
3	13	3	3	2	I	1	0	1357	1	Ⴕ	cut_g_stereo_44KHz.wav
3	14	4	4	2	I	1	0	832	1	Ⴔ	cut_w_stereo_44KHz.wav
3	15	1	1	1	C	2	1	1556	1	Ⴌ	cut_h_stereo_44KHz.wav
3	16	2	2	1	C	2	1	993	1	Ⴐ	cut_l_stereo_44KHz.wav
3	17	1	2	0	C	2	0	676	0	Ⴌ	cut_l_stereo_44KHz.wav
3	18	3	3	2	I	2	0	892	0	Ⴕ	cut_g_stereo_44KHz.wav
3	19	4	3	2	I	1	0	884	0	Ⴔ	cut_g_stereo_44KHz.wav
3	20	2	2	1	C	2	1	842	1	Ⴐ	cut_l_stereo_44KHz.wav
3	21	4	4	2	I	1	0	924	1	Ⴔ	cut_w_stereo_44KHz.wav
3	22	2	1	0	C	1	1	705	1	Ⴐ	cut_h_stereo_44KHz.wav
3	23	3	4	2	I	1	0	1190	0	Ⴕ	cut_w_stereo_44KHz.wav
3	24	1	1	1	C	2	1	1183	1	Ⴌ	cut_h_stereo_44KHz.wav
3	25	2	1	0	C	1	1	578	1	Ⴐ	cut_h_stereo_44KHz.wav
3	26	3	3	2	I	2	0	765	1	Ⴕ	cut_g_stereo_44KHz.wav
3	27	1	2	0	C	2	0	915	0	Ⴌ	cut_l_stereo_44KHz.wav
3	28	4	4	2	I	2	0	702	1	Ⴔ	cut_w_stereo_44KHz.wav
3	29	1	1	1	C	1	0	1119	0	Ⴌ	cut_h_stereo_44KHz.wav
3	30	3	4	2	I	1	0	974	0	Ⴕ	cut_w_stereo_44KHz.wav
3	31	4	3	2	I	2	0	1102	1	Ⴔ	cut_g_stereo_44KHz.wav
3	32	2	2	1	C	2	1	1109	1	Ⴐ	cut_l_stereo_44KHz.wav
3	33	3	3	2	I	2	0	819	0	Ⴕ	cut_g_stereo_44KHz.wav
3	34	2	2	1	C	2	1	950	1	Ⴐ	cut_l_stereo_44KHz.wav
3	35	4	4	2	I	2	0	1008	1	Ⴔ	cut_w_stereo_44KHz.wav
3	36	1	1	1	C	1	0	933	0	Ⴌ	cut_h_stereo_44KHz.wav
3	37	3	4	2	I	2	0	747	1	Ⴕ	cut_w_stereo_44KHz.wav
3	38	4	3	2	I	2	0	1245	0	Ⴔ	cut_g_stereo_44KHz.wav
3	39	1	2	0	C	1	1	1601	1	Ⴌ	cut_l_stereo_44KHz.wav
3	40	2	1	0	C	1	1	1021	1	Ⴐ	cut_h_stereo_44KHz.wav
3	41	1	2	0	C	1	1	806	1	Ⴌ	cut_l_stereo_44KHz.wav
3	42	4	3	2	I	2	0	1079	1	Ⴔ	cut_g_stereo_44KHz.wav
3	43	3	3	2	I	2	0	650	0	Ⴕ	cut_g_stereo_44KHz.wav
3	44	2	2	1	C	2	1	1236	1	Ⴐ	cut_l_stereo_44KHz.wav
3	45	3	4	2	I	1	0	1303	1	Ⴕ	cut_w_stereo_44KHz.wav
3	46	4	4	2	I	2	0	838	0	Ⴔ	cut_w_stereo_44KHz.wav
3	47	1	1	1	C	2	1	1379	1	Ⴌ	cut_h_stereo_44KHz.wav
3	48	2	1	0	C	1	1	1370	1	Ⴐ	cut_h_stereo_44KHz.wav
3	49	3	4	2	I	2	0	822	1	Ⴕ	cut_w_stereo_44KHz.wav
3	50	4	3	2	I	1	0	726	1	Ⴔ	cut_g_stereo_44KHz.wav
3	51	2	2	1	C	2	1	1162	1	Ⴐ	cut_l_stereo_44KHz.wav
3	52	1	2	0	C	2	0	1116	0	Ⴌ	cut_l_stereo_44KHz.wav
3	53	3	3	2	I	2	0	1051	1	Ⴕ	cut_g_stereo_44KHz.wav
3	54	2	1	0	C	1	1	601	1	Ⴐ	cut_h_stereo_44KHz.wav
3	55	1	1	1	C	2	1	363	1	Ⴌ	cut_h_stereo_44KHz.wav
3	56	4	4	2	I	2	0	1293	0	Ⴔ	cut_w_stereo_44KHz.wav
3	57	1	2	0	C	2	0	869	0	Ⴌ	cut_l_stereo_44KHz.wav
3	58	4	4	2	I	1	0	832	0	Ⴔ	cut_w_stereo_44KHz.wav
3	59	3	4	2	I	2	0	645	1	Ⴕ	cut_w_stereo_44KHz.wav
3	60	2	2	1	C	2	1	817	1	Ⴐ	cut_l_stereo_44KHz.wav
3	61	1	1	1	C	2	1	703	1	Ⴌ	cut_h_stereo_44KHz.wav
3	62	4	3	2	I	2	0	679	0	Ⴔ	cut_g_stereo_44KHz.wav
3	63	2	1	0	C	1	1	989	1	Ⴐ	cut_h_stereo_44KHz.wav
3	64	3	3	2	I	1	0	739	0	Ⴕ	cut_g_stereo_44KHz.wav
3	65	4	4	2	I	2	0	630	1	Ⴔ	cut_w_stereo_44KHz.wav
3	66	2	2	1	C	2	1	723	1	Ⴐ	cut_l_stereo_44KHz.wav
3	67	3	4	2	I	2	0	1241	1	Ⴕ	cut_w_stereo_44KHz.wav
3	68	1	1	1	C	2	1	960	1	Ⴌ	cut_h_stereo_44KHz.wav
3	69	4	3	2	I	2	0	714	0	Ⴔ	cut_g_stereo_44KHz.wav
3	70	3	3	2	I	1	0	1371	1	Ⴕ	cut_g_stereo_44KHz.wav
3	71	1	2	0	C	1	1	823	1	Ⴌ	cut_l_stereo_44KHz.wav
3	72	2	1	0	C	1	1	523	1	Ⴐ	cut_h_stereo_44KHz.wav
3	73	4	4	2	I	1	0	622	1	Ⴔ	cut_w_stereo_44KHz.wav
3	74	2	1	0	C	1	1	851	1	Ⴐ	cut_h_stereo_44KHz.wav
3	75	3	4	2	I	1	0	673	1	Ⴕ	cut_w_stereo_44KHz.wav
3	76	1	2	0	C	1	1	665	1	Ⴌ	cut_l_stereo_44KHz.wav
3	77	4	3	2	I	1	0	671	0	Ⴔ	cut_g_stereo_44KHz.wav
3	78	2	2	1	C	2	1	927	1	Ⴐ	cut_l_stereo_44KHz.wav
3	79	1	1	1	C	2	1	657	1	Ⴌ	cut_h_stereo_44KHz.wav
3	80	3	3	2	I	2	0	645	0	Ⴕ	cut_g_stereo_44KHz.wav
3	81	4	3	2	I	1	0	666	1	Ⴔ	cut_g_stereo_44KHz.wav
3	82	3	3	2	I	1	0	407	1	Ⴕ	cut_g_stereo_44KHz.wav
3	83	1	2	0	C	1	1	872	1	Ⴌ	cut_l_stereo_44KHz.wav
3	84	2	1	0	C	1	1	740	1	Ⴐ	cut_h_stereo_44KHz.wav
3	85	3	4	2	I	1	0	561	1	Ⴕ	cut_w_stereo_44KHz.wav
3	86	4	4	2	I	1	0	341	0	Ⴔ	cut_w_stereo_44KHz.wav
3	87	2	2	1	C	2	1	677	1	Ⴐ	cut_l_stereo_44KHz.wav
3	88	1	1	1	C	2	1	380	1	Ⴌ	cut_h_stereo_44KHz.wav
3	89	2	2	1	C	2	1	393	1	Ⴐ	cut_l_stereo_44KHz.wav
3	90	3	3	2	I	2	0	708	0	Ⴕ	cut_g_stereo_44KHz.wav
3	91	1	2	0	C	1	1	1368	1	Ⴌ	cut_l_stereo_44KHz.wav
3	92	4	3	2	I	1	0	320	1	Ⴔ	cut_g_stereo_44KHz.wav
3	93	3	4	2	I	1	0	386	1	Ⴕ	cut_w_stereo_44KHz.wav
3	94	4	4	2	I	1	0	545	0	Ⴔ	cut_w_stereo_44KHz.wav
3	95	2	1	0	C	2	0	81	0	Ⴐ	cut_h_stereo_44KHz.wav
3	96	1	1	1	C	2	1	777	1	Ⴌ	cut_h_stereo_44KHz.wav
3	97	4	4	2	I	2	0	853	0	Ⴔ	cut_w_stereo_44KHz.wav
3	98	1	1	1	C	2	1	1065	1	Ⴌ	cut_h_stereo_44KHz.wav
3	99	2	1	0	C	1	1	666	1	Ⴐ	cut_h_stereo_44KHz.wav
3	100	3	4	2	I	1	0	809	0	Ⴕ	cut_w_stereo_44KHz.wav
3	101	2	2	1	C	2	1	891	1	Ⴐ	cut_l_stereo_44KHz.wav
3	102	4	3	2	I	2	0	659	0	Ⴔ	cut_g_stereo_44KHz.wav
3	103	1	2	0	C	1	1	294	1	Ⴌ	cut_l_stereo_44KHz.wav
3	104	3	3	2	I	1	0	748	1	Ⴕ	cut_g_stereo_44KHz.wav
3	105	4	3	2	I	1	0	628	1	Ⴔ	cut_g_stereo_44KHz.wav
3	106	1	2	0	C	1	1	645	1	Ⴌ	cut_l_stereo_44KHz.wav
3	107	2	1	0	C	1	1	807	1	Ⴐ	cut_h_stereo_44KHz.wav
3	108	3	4	2	I	1	0	587	0	Ⴕ	cut_w_stereo_44KHz.wav
3	109	1	1	1	C	2	1	868	1	Ⴌ	cut_h_stereo_44KHz.wav
3	110	2	2	1	C	2	1	769	1	Ⴐ	cut_l_stereo_44KHz.wav
3	111	3	3	2	I	2	0	547	1	Ⴕ	cut_g_stereo_44KHz.wav
3	112	4	4	2	I	2	0	1024	1	Ⴔ	cut_w_stereo_44KHz.wav
3	113	2	1	0	C	1	1	976	1	Ⴐ	cut_h_stereo_44KHz.wav
3	114	3	4	2	I	1	0	1343	0	Ⴕ	cut_w_stereo_44KHz.wav
3	115	1	2	0	C	2	0	719	0	Ⴌ	cut_l_stereo_44KHz.wav
3	116	4	3	2	I	1	0	281	1	Ⴔ	cut_g_stereo_44KHz.wav
3	117	3	3	2	I	1	0	647	0	Ⴕ	cut_g_stereo_44KHz.wav
3	118	2	2	1	C	2	1	1025	1	Ⴐ	cut_l_stereo_44KHz.wav
3	119	4	4	2	I	2	0	495	0	Ⴔ	cut_w_stereo_44KHz.wav
3	120	1	1	1	C	1	0	494	0	Ⴌ	cut_h_stereo_44KHz.wav
3	121	3	3	2	I	1	0	714	0	Ⴕ	cut_g_stereo_44KHz.wav
3	122	4	4	2	I	2	0	510	1	Ⴔ	cut_w_stereo_44KHz.wav
3	123	2	1	0	C	1	1	1394	1	Ⴐ	cut_h_stereo_44KHz.wav
3	124	1	1	1	C	1	0	280	0	Ⴌ	cut_h_stereo_44KHz.wav
3	125	4	3	2	I	2	0	398	1	Ⴔ	cut_g_stereo_44KHz.wav
3	126	1	2	0	C	2	0	792	0	Ⴌ	cut_l_stereo_44KHz.wav
3	127	3	4	2	I	1	0	405	1	Ⴕ	cut_w_stereo_44KHz.wav
3	128	2	2	1	C	1	0	390	0	Ⴐ	cut_l_stereo_44KHz.wav
3	129	1	1	1	C	2	1	423	1	Ⴌ	cut_h_stereo_44KHz.wav
3	130	3	4	2	I	2	0	533	0	Ⴕ	cut_w_stereo_44KHz.wav
3	131	2	2	1	C	2	1	1125	1	Ⴐ	cut_l_stereo_44KHz.wav
3	132	4	4	2	I	2	0	622	0	Ⴔ	cut_w_stereo_44KHz.wav
3	133	2	1	0	C	1	1	720	1	Ⴐ	cut_h_stereo_44KHz.wav
3	134	4	3	2	I	1	0	674	0	Ⴔ	cut_g_stereo_44KHz.wav
3	135	1	2	0	C	2	0	672	0	Ⴌ	cut_l_stereo_44KHz.wav
3	136	3	3	2	I	1	0	890	0	Ⴕ	cut_g_stereo_44KHz.wav
3	137	1	1	1	C	2	1	647	1	Ⴌ	cut_h_stereo_44KHz.wav
3	138	3	3	2	I	2	0	527	0	Ⴕ	cut_g_stereo_44KHz.wav
3	139	2	2	1	C	2	1	749	1	Ⴐ	cut_l_stereo_44KHz.wav
3	140	4	3	2	I	2	0	646	0	Ⴔ	cut_g_stereo_44KHz.wav
3	141	1	2	0	C	1	1	507	1	Ⴌ	cut_l_stereo_44KHz.wav
3	142	3	4	2	I	1	0	1239	1	Ⴕ	cut_w_stereo_44KHz.wav
3	143	4	4	2	I	1	0	953	0	Ⴔ	cut_w_stereo_44KHz.wav
3	144	2	1	0	C	2	0	1359	0	Ⴐ	cut_h_stereo_44KHz.wav
3	145	3	3	2	I	2	0	668	0	Ⴕ	cut_g_stereo_44KHz.wav
3	146	2	2	1	C	2	1	866	1	Ⴐ	cut_l_stereo_44KHz.wav
3	147	4	4	2	I	2	0	583	1	Ⴔ	cut_w_stereo_44KHz.wav
3	148	1	2	0	C	1	1	702	1	Ⴌ	cut_l_stereo_44KHz.wav
3	149	2	1	0	C	1	1	577	1	Ⴐ	cut_h_stereo_44KHz.wav
3	150	4	3	2	I	1	0	422	1	Ⴔ	cut_g_stereo_44KHz.wav
3	151	1	1	1	C	1	0	727	0	Ⴌ	cut_h_stereo_44KHz.wav
3	152	3	4	2	I	2	0	761	1	Ⴕ	cut_w_stereo_44KHz.wav
3	153	1	1	1	C	2	1	606	1	Ⴌ	cut_h_stereo_44KHz.wav
3	154	2	1	0	C	2	0	502	0	Ⴐ	cut_h_stereo_44KHz.wav
3	155	3	4	2	I	1	0	1155	1	Ⴕ	cut_w_stereo_44KHz.wav
3	156	4	4	2	I	2	0	1342	0	Ⴔ	cut_w_stereo_44KHz.wav
3	157	1	2	0	C	1	1	1209	1	Ⴌ	cut_l_stereo_44KHz.wav
3	158	4	3	2	I	2	0	1142	1	Ⴔ	cut_g_stereo_44KHz.wav
3	159	2	2	1	C	2	1	1421	1	Ⴐ	cut_l_stereo_44KHz.wav
3	160	3	3	2	I	1	0	886	1	Ⴕ	cut_g_stereo_44KHz.wav
3	161	1	2	0	C	2	0	742	0	Ⴌ	cut_l_stereo_44KHz.wav
3	162	2	2	1	C	1	0	597	0	Ⴐ	cut_l_stereo_44KHz.wav
3	163	4	4	2	I	1	0	894	0	Ⴔ	cut_w_stereo_44KHz.wav
3	164	3	4	2	I	2	0	652	1	Ⴕ	cut_w_stereo_44KHz.wav
3	165	2	1	0	C	2	0	445	0	Ⴐ	cut_h_stereo_44KHz.wav
3	166	4	3	2	I	2	0	686	1	Ⴔ	cut_g_stereo_44KHz.wav
3	167	1	1	1	C	2	1	418	1	Ⴌ	cut_h_stereo_44KHz.wav
3	168	3	3	2	I	2	0	605	1	Ⴕ	cut_g_stereo_44KHz.wav
3	169	1	1	1	C	2	1	638	1	Ⴌ	cut_h_stereo_44KHz.wav
3	170	2	2	1	C	2	1	337	1	Ⴐ	cut_l_stereo_44KHz.wav
3	171	3	4	2	I	2	0	621	0	Ⴕ	cut_w_stereo_44KHz.wav
3	172	4	3	2	I	1	0	1123	0	Ⴔ	cut_g_stereo_44KHz.wav
3	173	3	3	2	I	2	0	670	1	Ⴕ	cut_g_stereo_44KHz.wav
3	174	2	1	0	C	1	1	833	1	Ⴐ	cut_h_stereo_44KHz.wav
3	175	4	4	2	I	2	0	641	0	Ⴔ	cut_w_stereo_44KHz.wav
3	176	1	2	0	C	2	0	1116	0	Ⴌ	cut_l_stereo_44KHz.wav
3	177	2	1	0	C	1	1	755	1	Ⴐ	cut_h_stereo_44KHz.wav
3	178	4	4	2	I	2	0	642	1	Ⴔ	cut_w_stereo_44KHz.wav
3	179	1	1	1	C	1	0	915	0	Ⴌ	cut_h_stereo_44KHz.wav
3	180	3	4	2	I	1	0	779	0	Ⴕ	cut_w_stereo_44KHz.wav
3	181	1	2	0	C	2	0	657	0	Ⴌ	cut_l_stereo_44KHz.wav
3	182	3	3	2	I	1	0	1881	0	Ⴕ	cut_g_stereo_44KHz.wav
3	183	2	2	1	C	2	1	842	1	Ⴐ	cut_l_stereo_44KHz.wav
3	184	4	3	2	I	2	0	650	0	Ⴔ	cut_g_stereo_44KHz.wav
3	185	1	2	0	C	1	1	727	1	Ⴌ	cut_l_stereo_44KHz.wav
3	186	2	2	1	C	2	1	1089	1	Ⴐ	cut_l_stereo_44KHz.wav
3	187	3	3	2	I	1	0	1195	0	Ⴕ	cut_g_stereo_44KHz.wav
3	188	4	4	2	I	1	0	1760	0	Ⴔ	cut_w_stereo_44KHz.wav
3	189	2	1	0	C	1	1	955	1	Ⴐ	cut_h_stereo_44KHz.wav
3	190	1	1	1	C	2	1	861	1	Ⴌ	cut_h_stereo_44KHz.wav
3	191	4	3	2	I	1	0	830	1	Ⴔ	cut_g_stereo_44KHz.wav
3	192	3	4	2	I	1	0	1082	0	Ⴕ	cut_w_stereo_44KHz.wav
3	193	2	1	0	C	1	1	834	1	Ⴐ	cut_h_stereo_44KHz.wav
3	194	1	2	0	C	2	0	1034	0	Ⴌ	cut_l_stereo_44KHz.wav
3	195	4	3	2	I	2	0	1278	1	Ⴔ	cut_g_stereo_44KHz.wav
3	196	3	3	2	I	2	0	820	0	Ⴕ	cut_g_stereo_44KHz.wav
3	197	1	1	1	C	2	1	851	1	Ⴌ	cut_h_stereo_44KHz.wav
3	198	4	4	2	I	0	0	0	0	Ⴔ	cut_w_stereo_44KHz.wav
3	199	3	4	2	I	1	0	701	1	Ⴕ	cut_w_stereo_44KHz.wav
3	200	2	2	1	C	2	1	874	1	Ⴐ	cut_l_stereo_44KHz.wav
4	1	1	1	1	C	2	1	1134	1	Ⴡ	cut_ei_stereo_44KHz.wav
4	2	4	3	2	I	1	0	1350	1	Ⴂ	cut_j_stereo_44KHz.wav
4	3	3	3	2	I	2	0	1037	1	Ⴟ	cut_j_stereo_44KHz.wav
4	4	2	1	0	C	2	0	1211	0	Ⴁ	cut_ei_stereo_44KHz.wav
4	5	4	4	2	I	2	0	1633	0	Ⴂ	cut_oei_stereo_44KHz.wav
4	6	1	2	0	C	1	1	735	1	Ⴡ	cut_r_stereo_44KHz.wav
4	7	2	2	1	C	2	1	875	1	Ⴁ	cut_r_stereo_44KHz.wav
4	8	3	4	2	I	2	0	850	0	Ⴟ	cut_oei_stereo_44KHz.wav
4	9	1	2	0	C	1	1	734	1	Ⴡ	cut_r_stereo_44KHz.wav
4	10	4	4	2	I	2	0	1330	0	Ⴂ	cut_oei_stereo_44KHz.wav
4	11	3	3	2	I	0	0	0	0	Ⴟ	cut_j_stereo_44KHz.wav
4	12	2	2	1	C	2	1	1357	1	Ⴁ	cut_r_stereo_44KHz.wav
4	13	3	4	2	I	1	0	1445	1	Ⴟ	cut_oei_stereo_44KHz.wav
4	14	1	1	1	C	2	1	1174	1	Ⴡ	cut_ei_stereo_44KHz.wav
4	15	2	1	0	C	2	0	1095	0	Ⴁ	cut_ei_stereo_44KHz.wav
4	16	4	3	2	I	2	0	1471	1	Ⴂ	cut_j_stereo_44KHz.wav
4	17	3	3	2	I	2	0	1440	0	Ⴟ	cut_j_stereo_44KHz.wav
4	18	1	2	0	C	1	1	1016	1	Ⴡ	cut_r_stereo_44KHz.wav
4	19	4	4	2	I	2	0	1538	1	Ⴂ	cut_oei_stereo_44KHz.wav
4	20	2	2	1	C	2	1	1411	1	Ⴁ	cut_r_stereo_44KHz.wav
4	21	4	3	2	I	2	0	1890	0	Ⴂ	cut_j_stereo_44KHz.wav
4	22	1	1	1	C	2	1	1667	1	Ⴡ	cut_ei_stereo_44KHz.wav
4	23	3	4	2	I	1	0	826	0	Ⴟ	cut_oei_stereo_44KHz.wav
4	24	2	1	0	C	2	0	572	0	Ⴁ	cut_ei_stereo_44KHz.wav
4	25	1	1	1	C	2	1	1253	1	Ⴡ	cut_ei_stereo_44KHz.wav
4	26	2	2	1	C	2	1	694	1	Ⴁ	cut_r_stereo_44KHz.wav
4	27	4	3	2	I	2	0	673	1	Ⴂ	cut_j_stereo_44KHz.wav
4	28	3	4	2	I	2	0	888	0	Ⴟ	cut_oei_stereo_44KHz.wav
4	29	2	1	0	C	2	0	597	0	Ⴁ	cut_ei_stereo_44KHz.wav
4	30	4	4	2	I	2	0	1135	0	Ⴂ	cut_oei_stereo_44KHz.wav
4	31	1	2	0	C	1	1	791	1	Ⴡ	cut_r_stereo_44KHz.wav
4	32	3	3	2	I	2	0	990	1	Ⴟ	cut_j_stereo_44KHz.wav
4	33	4	4	2	I	2	0	1233	0	Ⴂ	cut_oei_stereo_44KHz.wav
4	34	2	1	0	C	2	0	951	0	Ⴁ	cut_ei_stereo_44KHz.wav
4	35	1	1	1	C	2	1	1116	1	Ⴡ	cut_ei_stereo_44KHz.wav
4	36	3	4	2	I	2	0	1386	0	Ⴟ	cut_oei_stereo_44KHz.wav
4	37	1	2	0	C	1	1	1505	1	Ⴡ	cut_r_stereo_44KHz.wav
4	38	2	2	1	C	2	1	937	1	Ⴁ	cut_r_stereo_44KHz.wav
4	39	4	3	2	I	1	0	806	1	Ⴂ	cut_j_stereo_44KHz.wav
4	40	3	3	2	I	1	0	1072	0	Ⴟ	cut_j_stereo_44KHz.wav
4	41	2	2	1	C	2	1	1679	1	Ⴁ	cut_r_stereo_44KHz.wav
4	42	1	2	0	C	1	1	817	1	Ⴡ	cut_r_stereo_44KHz.wav
4	43	3	4	2	I	2	0	522	1	Ⴟ	cut_oei_stereo_44KHz.wav
4	44	4	4	2	I	1	0	611	1	Ⴂ	cut_oei_stereo_44KHz.wav
4	45	1	1	1	C	2	1	923	1	Ⴡ	cut_ei_stereo_44KHz.wav
4	46	3	3	2	I	1	0	1752	0	Ⴟ	cut_j_stereo_44KHz.wav
4	47	4	3	2	I	2	0	1255	1	Ⴂ	cut_j_stereo_44KHz.wav
4	48	2	1	0	C	2	0	1885	0	Ⴁ	cut_ei_stereo_44KHz.wav
4	49	4	4	2	I	2	0	1460	0	Ⴂ	cut_oei_stereo_44KHz.wav
4	50	1	1	1	C	2	1	1056	1	Ⴡ	cut_ei_stereo_44KHz.wav
4	51	3	4	2	I	2	0	1143	1	Ⴟ	cut_oei_stereo_44KHz.wav
4	52	2	1	0	C	2	0	509	0	Ⴁ	cut_ei_stereo_44KHz.wav
4	53	3	3	2	I	2	0	797	0	Ⴟ	cut_j_stereo_44KHz.wav
4	54	4	3	2	I	2	0	590	1	Ⴂ	cut_j_stereo_44KHz.wav
4	55	1	2	0	C	1	1	869	1	Ⴡ	cut_r_stereo_44KHz.wav
4	56	2	2	1	C	2	1	946	1	Ⴁ	cut_r_stereo_44KHz.wav
4	57	3	3	2	I	1	0	861	0	Ⴟ	cut_j_stereo_44KHz.wav
4	58	2	1	0	C	2	0	849	0	Ⴁ	cut_ei_stereo_44KHz.wav
4	59	4	4	2	I	2	0	628	0	Ⴂ	cut_oei_stereo_44KHz.wav
4	60	1	1	1	C	2	1	1006	1	Ⴡ	cut_ei_stereo_44KHz.wav
4	61	2	2	1	C	2	1	1106	1	Ⴁ	cut_r_stereo_44KHz.wav
4	62	1	2	0	C	1	1	1203	1	Ⴡ	cut_r_stereo_44KHz.wav
4	63	3	4	2	I	2	0	1085	0	Ⴟ	cut_oei_stereo_44KHz.wav
4	64	4	3	2	I	1	0	836	0	Ⴂ	cut_j_stereo_44KHz.wav
4	65	1	1	1	C	2	1	830	1	Ⴡ	cut_ei_stereo_44KHz.wav
4	66	4	3	2	I	2	0	735	1	Ⴂ	cut_j_stereo_44KHz.wav
4	67	3	3	2	I	2	0	599	1	Ⴟ	cut_j_stereo_44KHz.wav
4	68	2	2	1	C	1	0	883	0	Ⴁ	cut_r_stereo_44KHz.wav
4	69	4	4	2	I	2	0	595	1	Ⴂ	cut_oei_stereo_44KHz.wav
4	70	1	2	0	C	1	1	585	1	Ⴡ	cut_r_stereo_44KHz.wav
4	71	2	1	0	C	2	0	580	0	Ⴁ	cut_ei_stereo_44KHz.wav
4	72	3	4	2	I	1	0	616	0	Ⴟ	cut_oei_stereo_44KHz.wav
4	73	2	1	0	C	2	0	558	0	Ⴁ	cut_ei_stereo_44KHz.wav
4	74	3	4	2	I	2	0	681	0	Ⴟ	cut_oei_stereo_44KHz.wav
4	75	1	1	1	C	2	1	788	1	Ⴡ	cut_ei_stereo_44KHz.wav
4	76	4	4	2	I	2	0	766	1	Ⴂ	cut_oei_stereo_44KHz.wav
4	77	1	2	0	C	1	1	682	1	Ⴡ	cut_r_stereo_44KHz.wav
4	78	4	3	2	I	2	0	533	0	Ⴂ	cut_j_stereo_44KHz.wav
4	79	2	2	1	C	2	1	701	1	Ⴁ	cut_r_stereo_44KHz.wav
4	80	3	3	2	I	2	0	624	0	Ⴟ	cut_j_stereo_44KHz.wav
4	81	1	1	1	C	2	1	870	1	Ⴡ	cut_ei_stereo_44KHz.wav
4	82	2	1	0	C	2	0	573	0	Ⴁ	cut_ei_stereo_44KHz.wav
4	83	3	3	2	I	2	0	595	0	Ⴟ	cut_j_stereo_44KHz.wav
4	84	4	3	2	I	2	0	546	1	Ⴂ	cut_j_stereo_44KHz.wav
4	85	3	4	2	I	2	0	558	1	Ⴟ	cut_oei_stereo_44KHz.wav
4	86	1	2	0	C	1	1	852	1	Ⴡ	cut_r_stereo_44KHz.wav
4	87	2	2	1	C	2	1	681	1	Ⴁ	cut_r_stereo_44KHz.wav
4	88	4	4	2	I	2	0	621	1	Ⴂ	cut_oei_stereo_44KHz.wav
4	89	1	1	1	C	2	1	777	1	Ⴡ	cut_ei_stereo_44KHz.wav
4	90	3	4	2	I	2	0	619	0	Ⴟ	cut_oei_stereo_44KHz.wav
4	91	2	1	0	C	2	0	492	0	Ⴁ	cut_ei_stereo_44KHz.wav
4	92	4	4	2	I	2	0	622	0	Ⴂ	cut_oei_stereo_44KHz.wav
4	93	3	3	2	I	2	0	631	0	Ⴟ	cut_j_stereo_44KHz.wav
4	94	1	2	0	C	1	1	770	1	Ⴡ	cut_r_stereo_44KHz.wav
4	95	2	2	1	C	2	1	732	1	Ⴁ	cut_r_stereo_44KHz.wav
4	96	4	3	2	I	2	0	661	1	Ⴂ	cut_j_stereo_44KHz.wav
4	97	3	3	2	I	2	0	548	0	Ⴟ	cut_j_stereo_44KHz.wav
4	98	2	2	1	C	2	1	719	1	Ⴁ	cut_r_stereo_44KHz.wav
4	99	1	2	0	C	1	1	733	1	Ⴡ	cut_r_stereo_44KHz.wav
4	100	4	4	2	I	1	0	667	0	Ⴂ	cut_oei_stereo_44KHz.wav
4	101	2	1	0	C	2	0	643	0	Ⴁ	cut_ei_stereo_44KHz.wav
4	102	4	3	2	I	2	0	898	1	Ⴂ	cut_j_stereo_44KHz.wav
4	103	1	1	1	C	2	1	914	1	Ⴡ	cut_ei_stereo_44KHz.wav
4	104	3	4	2	I	2	0	619	1	Ⴟ	cut_oei_stereo_44KHz.wav
4	105	2	1	0	C	2	0	617	0	Ⴁ	cut_ei_stereo_44KHz.wav
4	106	4	4	2	I	2	0	833	1	Ⴂ	cut_oei_stereo_44KHz.wav
4	107	3	4	2	I	2	0	495	0	Ⴟ	cut_oei_stereo_44KHz.wav
4	108	1	2	0	C	1	1	1051	1	Ⴡ	cut_r_stereo_44KHz.wav
4	109	4	3	2	I	2	0	498	1	Ⴂ	cut_j_stereo_44KHz.wav
4	110	2	2	1	C	2	1	485	1	Ⴁ	cut_r_stereo_44KHz.wav
4	111	1	1	1	C	2	1	807	1	Ⴡ	cut_ei_stereo_44KHz.wav
4	112	3	3	2	I	2	0	560	0	Ⴟ	cut_j_stereo_44KHz.wav
4	113	2	2	1	C	2	1	466	1	Ⴁ	cut_r_stereo_44KHz.wav
4	114	3	3	2	I	2	0	900	1	Ⴟ	cut_j_stereo_44KHz.wav
4	115	1	2	0	C	1	1	687	1	Ⴡ	cut_r_stereo_44KHz.wav
4	116	4	3	2	I	2	0	479	0	Ⴂ	cut_j_stereo_44KHz.wav
4	117	2	1	0	C	2	0	485	0	Ⴁ	cut_ei_stereo_44KHz.wav
4	118	3	4	2	I	2	0	495	1	Ⴟ	cut_oei_stereo_44KHz.wav
4	119	4	4	2	I	2	0	561	1	Ⴂ	cut_oei_stereo_44KHz.wav
4	120	1	1	1	C	1	0	1183	0	Ⴡ	cut_ei_stereo_44KHz.wav
4	121	3	4	2	I	2	0	563	0	Ⴟ	cut_oei_stereo_44KHz.wav
4	122	4	4	2	I	2	0	578	0	Ⴂ	cut_oei_stereo_44KHz.wav
4	123	2	1	0	C	2	0	656	0	Ⴁ	cut_ei_stereo_44KHz.wav
4	124	1	2	0	C	1	1	785	1	Ⴡ	cut_r_stereo_44KHz.wav
4	125	3	3	2	I	2	0	519	1	Ⴟ	cut_j_stereo_44KHz.wav
4	126	4	3	2	I	2	0	627	0	Ⴂ	cut_j_stereo_44KHz.wav
4	127	1	1	1	C	2	1	1118	1	Ⴡ	cut_ei_stereo_44KHz.wav
4	128	2	2	1	C	2	1	684	1	Ⴁ	cut_r_stereo_44KHz.wav
4	129	4	3	2	I	2	0	517	0	Ⴂ	cut_j_stereo_44KHz.wav
4	130	3	4	2	I	2	0	593	1	Ⴟ	cut_oei_stereo_44KHz.wav
4	131	1	2	0	C	1	1	743	1	Ⴡ	cut_r_stereo_44KHz.wav
4	132	2	1	0	C	2	0	719	0	Ⴁ	cut_ei_stereo_44KHz.wav
4	133	1	1	1	C	2	1	713	1	Ⴡ	cut_ei_stereo_44KHz.wav
4	134	3	3	2	I	2	0	639	1	Ⴟ	cut_j_stereo_44KHz.wav
4	135	4	4	2	I	2	0	922	0	Ⴂ	cut_oei_stereo_44KHz.wav
4	136	2	2	1	C	2	1	995	1	Ⴁ	cut_r_stereo_44KHz.wav
4	137	1	1	1	C	2	1	935	1	Ⴡ	cut_ei_stereo_44KHz.wav
4	138	4	3	2	I	2	0	800	0	Ⴂ	cut_j_stereo_44KHz.wav
4	139	2	1	0	C	2	0	607	0	Ⴁ	cut_ei_stereo_44KHz.wav
4	140	3	4	2	I	2	0	643	0	Ⴟ	cut_oei_stereo_44KHz.wav
4	141	1	2	0	C	1	1	854	1	Ⴡ	cut_r_stereo_44KHz.wav
4	142	3	3	2	I	1	0	841	0	Ⴟ	cut_j_stereo_44KHz.wav
4	143	2	2	1	C	2	1	913	1	Ⴁ	cut_r_stereo_44KHz.wav
4	144	4	4	2	I	2	0	824	1	Ⴂ	cut_oei_stereo_44KHz.wav
4	145	2	2	1	C	2	1	1223	1	Ⴁ	cut_r_stereo_44KHz.wav
4	146	3	4	2	I	2	0	1386	1	Ⴟ	cut_oei_stereo_44KHz.wav
4	147	1	1	1	C	2	1	860	1	Ⴡ	cut_ei_stereo_44KHz.wav
4	148	4	3	2	I	2	0	747	1	Ⴂ	cut_j_stereo_44KHz.wav
4	149	2	1	0	C	2	0	851	0	Ⴁ	cut_ei_stereo_44KHz.wav
4	150	3	3	2	I	1	0	974	1	Ⴟ	cut_j_stereo_44KHz.wav
4	151	4	4	2	I	1	0	857	0	Ⴂ	cut_oei_stereo_44KHz.wav
4	152	1	2	0	C	1	1	1890	1	Ⴡ	cut_r_stereo_44KHz.wav
4	153	3	4	2	I	2	0	1168	0	Ⴟ	cut_oei_stereo_44KHz.wav
4	154	4	4	2	I	2	0	670	1	Ⴂ	cut_oei_stereo_44KHz.wav
4	155	1	1	1	C	2	1	1271	1	Ⴡ	cut_ei_stereo_44KHz.wav
4	156	2	2	1	C	2	1	1123	1	Ⴁ	cut_r_stereo_44KHz.wav
4	157	4	3	2	I	2	0	572	0	Ⴂ	cut_j_stereo_44KHz.wav
4	158	1	2	0	C	1	1	886	1	Ⴡ	cut_r_stereo_44KHz.wav
4	159	3	3	2	I	2	0	489	1	Ⴟ	cut_j_stereo_44KHz.wav
4	160	2	1	0	C	2	0	813	0	Ⴁ	cut_ei_stereo_44KHz.wav
4	161	3	4	2	I	2	0	519	1	Ⴟ	cut_oei_stereo_44KHz.wav
4	162	2	2	1	C	2	1	682	1	Ⴁ	cut_r_stereo_44KHz.wav
4	163	1	1	1	C	2	1	911	1	Ⴡ	cut_ei_stereo_44KHz.wav
4	164	4	4	2	I	2	0	504	1	Ⴂ	cut_oei_stereo_44KHz.wav
4	165	3	3	2	I	2	0	530	1	Ⴟ	cut_j_stereo_44KHz.wav
4	166	4	3	2	I	2	0	474	1	Ⴂ	cut_j_stereo_44KHz.wav
4	167	2	1	0	C	2	0	569	0	Ⴁ	cut_ei_stereo_44KHz.wav
4	168	1	2	0	C	1	1	931	1	Ⴡ	cut_r_stereo_44KHz.wav
4	169	4	4	2	I	2	0	629	0	Ⴂ	cut_oei_stereo_44KHz.wav
4	170	2	2	1	C	2	1	690	1	Ⴁ	cut_r_stereo_44KHz.wav
4	171	1	1	1	C	2	1	695	1	Ⴡ	cut_ei_stereo_44KHz.wav
4	172	3	4	2	I	2	0	472	1	Ⴟ	cut_oei_stereo_44KHz.wav
4	173	1	2	0	C	1	1	620	1	Ⴡ	cut_r_stereo_44KHz.wav
4	174	3	3	2	I	2	0	494	1	Ⴟ	cut_j_stereo_44KHz.wav
4	175	2	1	0	C	2	0	528	0	Ⴁ	cut_ei_stereo_44KHz.wav
4	176	4	3	2	I	2	0	473	0	Ⴂ	cut_j_stereo_44KHz.wav
4	177	1	1	1	C	2	1	413	1	Ⴡ	cut_ei_stereo_44KHz.wav
4	178	2	1	0	C	2	0	395	0	Ⴁ	cut_ei_stereo_44KHz.wav
4	179	3	4	2	I	2	0	561	1	Ⴟ	cut_oei_stereo_44KHz.wav
4	180	4	4	2	I	2	0	440	0	Ⴂ	cut_oei_stereo_44KHz.wav
4	181	3	3	2	I	2	0	689	1	Ⴟ	cut_j_stereo_44KHz.wav
4	182	4	3	2	I	2	0	409	1	Ⴂ	cut_j_stereo_44KHz.wav
4	183	1	2	0	C	1	1	568	1	Ⴡ	cut_r_stereo_44KHz.wav
4	184	2	2	1	C	2	1	603	1	Ⴁ	cut_r_stereo_44KHz.wav
4	185	3	3	2	I	2	0	628	1	Ⴟ	cut_j_stereo_44KHz.wav
4	186	2	2	1	C	2	1	490	1	Ⴁ	cut_r_stereo_44KHz.wav
4	187	1	2	0	C	1	1	645	1	Ⴡ	cut_r_stereo_44KHz.wav
4	188	4	3	2	I	2	0	399	0	Ⴂ	cut_j_stereo_44KHz.wav
4	189	3	4	2	I	2	0	573	0	Ⴟ	cut_oei_stereo_44KHz.wav
4	190	1	1	1	C	2	1	1089	1	Ⴡ	cut_ei_stereo_44KHz.wav
4	191	4	4	2	I	2	0	580	1	Ⴂ	cut_oei_stereo_44KHz.wav
4	192	2	1	0	C	2	0	478	0	Ⴁ	cut_ei_stereo_44KHz.wav
4	193	1	1	1	C	2	1	890	1	Ⴡ	cut_ei_stereo_44KHz.wav
4	194	2	1	0	C	2	0	500	0	Ⴁ	cut_ei_stereo_44KHz.wav
4	195	3	3	2	I	2	0	495	1	Ⴟ	cut_j_stereo_44KHz.wav
4	196	4	3	2	I	2	0	810	0	Ⴂ	cut_j_stereo_44KHz.wav
4	197	1	2	0	C	1	1	1482	1	Ⴡ	cut_r_stereo_44KHz.wav
4	198	3	4	2	I	2	0	538	0	Ⴟ	cut_oei_stereo_44KHz.wav
4	199	2	2	1	C	1	0	810	0	Ⴁ	cut_r_stereo_44KHz.wav
4	200	4	4	2	I	2	0	786	0	Ⴂ	cut_oei_stereo_44KHz.wav
