block	trial	Vstim	Astim	match	C/I	resp	result	RT	fb	V-file	A-file
RL

0	1	2	4	0	C	2	1	732	1	poli_8sides 22_whiteLine3.jpg	Practice3_b26_cut1_stereo_44KHz.wav
0	2	1	1	1	C	2	0	440	0	poli_8sides 23_whiteLine3.jpg	Practice1_b27_cut1_stereo_44KHz.wav
0	3	1	2	0	C	2	1	1126	1	poli_8sides 23_whiteLine3.jpg	Practice2_b27_cut2_stereo_44KHz.wav
0	4	2	3	1	C	1	1	657	1	poli_8sides 22_whiteLine3.jpg	Practice4_b26_stereo_44KHz.wav
0	5	1	1	1	C	1	1	822	1	poli_8sides 23_whiteLine3.jpg	Practice1_b27_cut1_stereo_44KHz.wav
0	6	1	2	0	C	2	1	832	1	poli_8sides 23_whiteLine3.jpg	Practice2_b27_cut2_stereo_44KHz.wav
0	7	2	4	0	C	2	1	903	1	poli_8sides 22_whiteLine3.jpg	Practice3_b26_cut1_stereo_44KHz.wav
0	8	2	3	1	C	1	1	685	1	poli_8sides 22_whiteLine3.jpg	Practice4_b26_stereo_44KHz.wav
0	9	1	1	1	C	2	0	1368	0	poli_8sides 23_whiteLine3.jpg	Practice1_b27_cut1_stereo_44KHz.wav
0	10	2	4	0	C	2	1	1121	1	poli_8sides 22_whiteLine3.jpg	Practice3_b26_cut1_stereo_44KHz.wav
0	11	1	2	0	C	2	1	865	1	poli_8sides 23_whiteLine3.jpg	Practice2_b27_cut2_stereo_44KHz.wav
0	12	2	3	1	C	2	0	775	0	poli_8sides 22_whiteLine3.jpg	Practice4_b26_stereo_44KHz.wav
0	13	1	2	0	C	2	1	631	1	poli_8sides 23_whiteLine3.jpg	Practice2_b27_cut2_stereo_44KHz.wav
0	14	2	4	0	C	2	1	936	1	poli_8sides 22_whiteLine3.jpg	Practice3_b26_cut1_stereo_44KHz.wav
0	15	2	3	1	C	1	1	568	1	poli_8sides 22_whiteLine3.jpg	Practice4_b26_stereo_44KHz.wav
0	16	1	1	1	C	2	0	876	0	poli_8sides 23_whiteLine3.jpg	Practice1_b27_cut1_stereo_44KHz.wav
0	17	1	2	0	C	2	1	580	1	poli_8sides 23_whiteLine3.jpg	Practice2_b27_cut2_stereo_44KHz.wav
0	18	1	1	1	C	1	1	707	1	poli_8sides 23_whiteLine3.jpg	Practice1_b27_cut1_stereo_44KHz.wav
0	19	2	4	0	C	2	1	488	1	poli_8sides 22_whiteLine3.jpg	Practice3_b26_cut1_stereo_44KHz.wav
0	20	2	3	1	C	1	1	642	1	poli_8sides 22_whiteLine3.jpg	Practice4_b26_stereo_44KHz.wav
0	21	2	3	1	C	1	1	725	1	poli_8sides 22_whiteLine3.jpg	Practice4_b26_stereo_44KHz.wav
0	22	1	2	0	C	2	1	597	1	poli_8sides 23_whiteLine3.jpg	Practice2_b27_cut2_stereo_44KHz.wav
0	23	1	1	1	C	1	1	659	1	poli_8sides 23_whiteLine3.jpg	Practice1_b27_cut1_stereo_44KHz.wav
0	24	2	4	0	C	2	1	726	1	poli_8sides 22_whiteLine3.jpg	Practice3_b26_cut1_stereo_44KHz.wav
0	25	1	2	0	C	1	0	770	0	poli_8sides 23_whiteLine3.jpg	Practice2_b27_cut2_stereo_44KHz.wav
0	26	2	3	1	C	2	0	523	0	poli_8sides 22_whiteLine3.jpg	Practice4_b26_stereo_44KHz.wav
0	27	1	1	1	C	2	0	580	0	poli_8sides 23_whiteLine3.jpg	Practice1_b27_cut1_stereo_44KHz.wav
0	28	2	4	0	C	2	1	481	1	poli_8sides 22_whiteLine3.jpg	Practice3_b26_cut1_stereo_44KHz.wav
0	29	2	4	0	C	2	1	848	1	poli_8sides 22_whiteLine3.jpg	Practice3_b26_cut1_stereo_44KHz.wav
0	30	1	2	0	C	2	1	821	1	poli_8sides 23_whiteLine3.jpg	Practice2_b27_cut2_stereo_44KHz.wav
avg_resp = 746
1	1	2	2	1	C	2	0	1064	0	poli_8sides 12_whiteLine3.jpg	MediumLong_e04_stereo_44KHz.wav
1	2	4	4	2	I	2	0	719	1	poli_8sides 7_whiteLine3.jpg	MediumLong_b10_cut2_L_stereo_44KHz.wav
1	3	3	4	2	I	1	0	754	0	poli_8sides 16_whiteLine3.jpg	MediumLong_b10_cut2_L_stereo_44KHz.wav
1	4	1	1	1	C	2	0	870	0	poli_8sides 18_whiteLine3.jpg	MediumLong_e19_stereo_44KHz.wav
1	5	2	1	0	C	2	1	614	1	poli_8sides 12_whiteLine3.jpg	MediumLong_e19_stereo_44KHz.wav
1	6	1	2	0	C	1	0	892	0	poli_8sides 18_whiteLine3.jpg	MediumLong_e04_stereo_44KHz.wav
1	7	3	3	2	I	2	0	554	0	poli_8sides 16_whiteLine3.jpg	Medium_e21_stereo_44KHz.wav
1	8	4	3	2	I	2	0	770	0	poli_8sides 7_whiteLine3.jpg	Medium_e21_stereo_44KHz.wav
1	9	3	4	2	I	1	0	513	0	poli_8sides 16_whiteLine3.jpg	MediumLong_b10_cut2_L_stereo_44KHz.wav
1	10	4	3	2	I	2	0	559	1	poli_8sides 7_whiteLine3.jpg	Medium_e21_stereo_44KHz.wav
1	11	2	1	0	C	1	0	710	0	poli_8sides 12_whiteLine3.jpg	MediumLong_e19_stereo_44KHz.wav
1	12	1	2	0	C	2	1	673	1	poli_8sides 18_whiteLine3.jpg	MediumLong_e04_stereo_44KHz.wav
1	13	3	3	2	I	2	0	639	1	poli_8sides 16_whiteLine3.jpg	Medium_e21_stereo_44KHz.wav
1	14	1	1	1	C	1	1	738	1	poli_8sides 18_whiteLine3.jpg	MediumLong_e19_stereo_44KHz.wav
1	15	2	2	1	C	1	1	827	1	poli_8sides 12_whiteLine3.jpg	MediumLong_e04_stereo_44KHz.wav
1	16	4	4	2	I	2	0	910	1	poli_8sides 7_whiteLine3.jpg	MediumLong_b10_cut2_L_stereo_44KHz.wav
1	17	3	4	2	I	1	0	630	1	poli_8sides 16_whiteLine3.jpg	MediumLong_b10_cut2_L_stereo_44KHz.wav
1	18	1	1	1	C	1	1	741	1	poli_8sides 18_whiteLine3.jpg	MediumLong_e19_stereo_44KHz.wav
1	19	4	3	2	I	1	0	760	1	poli_8sides 7_whiteLine3.jpg	Medium_e21_stereo_44KHz.wav
1	20	2	1	0	C	2	1	1004	1	poli_8sides 12_whiteLine3.jpg	MediumLong_e19_stereo_44KHz.wav
1	21	3	3	2	I	1	0	898	1	poli_8sides 16_whiteLine3.jpg	Medium_e21_stereo_44KHz.wav
1	22	1	2	0	C	2	1	768	1	poli_8sides 18_whiteLine3.jpg	MediumLong_e04_stereo_44KHz.wav
1	23	4	4	2	I	2	0	795	0	poli_8sides 7_whiteLine3.jpg	MediumLong_b10_cut2_L_stereo_44KHz.wav
1	24	2	2	1	C	1	1	730	1	poli_8sides 12_whiteLine3.jpg	MediumLong_e04_stereo_44KHz.wav
1	25	3	3	2	I	2	0	806	1	poli_8sides 16_whiteLine3.jpg	Medium_e21_stereo_44KHz.wav
1	26	2	2	1	C	1	1	719	1	poli_8sides 12_whiteLine3.jpg	MediumLong_e04_stereo_44KHz.wav
1	27	1	1	1	C	1	1	844	1	poli_8sides 18_whiteLine3.jpg	MediumLong_e19_stereo_44KHz.wav
1	28	4	4	2	I	2	0	989	1	poli_8sides 7_whiteLine3.jpg	MediumLong_b10_cut2_L_stereo_44KHz.wav
1	29	1	2	0	C	2	1	696	1	poli_8sides 18_whiteLine3.jpg	MediumLong_e04_stereo_44KHz.wav
1	30	4	3	2	I	1	0	713	0	poli_8sides 7_whiteLine3.jpg	Medium_e21_stereo_44KHz.wav
1	31	2	1	0	C	2	1	735	1	poli_8sides 12_whiteLine3.jpg	MediumLong_e19_stereo_44KHz.wav
1	32	3	4	2	I	2	0	934	0	poli_8sides 16_whiteLine3.jpg	MediumLong_b10_cut2_L_stereo_44KHz.wav
1	33	2	2	1	C	1	1	779	1	poli_8sides 12_whiteLine3.jpg	MediumLong_e04_stereo_44KHz.wav
1	34	1	2	0	C	2	1	620	1	poli_8sides 18_whiteLine3.jpg	MediumLong_e04_stereo_44KHz.wav
1	35	3	3	2	I	2	0	724	0	poli_8sides 16_whiteLine3.jpg	Medium_e21_stereo_44KHz.wav
1	36	4	4	2	I	2	0	820	1	poli_8sides 7_whiteLine3.jpg	MediumLong_b10_cut2_L_stereo_44KHz.wav
1	37	2	1	0	C	2	1	1002	1	poli_8sides 12_whiteLine3.jpg	MediumLong_e19_stereo_44KHz.wav
1	38	1	1	1	C	1	1	674	1	poli_8sides 18_whiteLine3.jpg	MediumLong_e19_stereo_44KHz.wav
1	39	4	3	2	I	1	0	935	0	poli_8sides 7_whiteLine3.jpg	Medium_e21_stereo_44KHz.wav
1	40	3	4	2	I	2	0	780	0	poli_8sides 16_whiteLine3.jpg	MediumLong_b10_cut2_L_stereo_44KHz.wav
1	41	2	1	0	C	1	0	753	0	poli_8sides 12_whiteLine3.jpg	MediumLong_e19_stereo_44KHz.wav
1	42	1	2	0	C	2	1	540	1	poli_8sides 18_whiteLine3.jpg	MediumLong_e04_stereo_44KHz.wav
1	43	3	4	2	I	1	0	1352	0	poli_8sides 16_whiteLine3.jpg	MediumLong_b10_cut2_L_stereo_44KHz.wav
1	44	4	4	2	I	2	0	710	0	poli_8sides 7_whiteLine3.jpg	MediumLong_b10_cut2_L_stereo_44KHz.wav
1	45	1	1	1	C	1	1	660	1	poli_8sides 18_whiteLine3.jpg	MediumLong_e19_stereo_44KHz.wav
1	46	2	2	1	C	1	1	914	1	poli_8sides 12_whiteLine3.jpg	MediumLong_e04_stereo_44KHz.wav
1	47	3	3	2	I	1	0	831	0	poli_8sides 16_whiteLine3.jpg	Medium_e21_stereo_44KHz.wav
1	48	4	3	2	I	1	0	770	0	poli_8sides 7_whiteLine3.jpg	Medium_e21_stereo_44KHz.wav
1	49	1	2	0	C	2	1	627	1	poli_8sides 18_whiteLine3.jpg	MediumLong_e04_stereo_44KHz.wav
1	50	4	3	2	I	1	0	816	1	poli_8sides 7_whiteLine3.jpg	Medium_e21_stereo_44KHz.wav
1	51	2	1	0	C	2	1	1177	1	poli_8sides 12_whiteLine3.jpg	MediumLong_e19_stereo_44KHz.wav
1	52	3	3	2	I	2	0	1075	0	poli_8sides 16_whiteLine3.jpg	Medium_e21_stereo_44KHz.wav
1	53	1	1	1	C	1	1	1155	1	poli_8sides 18_whiteLine3.jpg	MediumLong_e19_stereo_44KHz.wav
1	54	2	2	1	C	1	1	1078	1	poli_8sides 12_whiteLine3.jpg	MediumLong_e04_stereo_44KHz.wav
1	55	3	4	2	I	1	0	848	1	poli_8sides 16_whiteLine3.jpg	MediumLong_b10_cut2_L_stereo_44KHz.wav
1	56	4	4	2	I	2	0	796	0	poli_8sides 7_whiteLine3.jpg	MediumLong_b10_cut2_L_stereo_44KHz.wav
1	57	3	4	2	I	1	0	801	1	poli_8sides 16_whiteLine3.jpg	MediumLong_b10_cut2_L_stereo_44KHz.wav
1	58	1	2	0	C	2	1	633	1	poli_8sides 18_whiteLine3.jpg	MediumLong_e04_stereo_44KHz.wav
1	59	4	4	2	I	2	0	1235	0	poli_8sides 7_whiteLine3.jpg	MediumLong_b10_cut2_L_stereo_44KHz.wav
1	60	2	1	0	C	1	0	1374	0	poli_8sides 12_whiteLine3.jpg	MediumLong_e19_stereo_44KHz.wav
1	61	4	3	2	I	2	0	800	1	poli_8sides 7_whiteLine3.jpg	Medium_e21_stereo_44KHz.wav
1	62	1	1	1	C	1	1	819	1	poli_8sides 18_whiteLine3.jpg	MediumLong_e19_stereo_44KHz.wav
1	63	2	2	1	C	1	1	969	1	poli_8sides 12_whiteLine3.jpg	MediumLong_e04_stereo_44KHz.wav
1	64	3	3	2	I	1	0	1508	1	poli_8sides 16_whiteLine3.jpg	Medium_e21_stereo_44KHz.wav
1	65	4	4	2	I	2	0	958	0	poli_8sides 7_whiteLine3.jpg	MediumLong_b10_cut2_L_stereo_44KHz.wav
1	66	3	4	2	I	2	0	783	1	poli_8sides 16_whiteLine3.jpg	MediumLong_b10_cut2_L_stereo_44KHz.wav
1	67	1	1	1	C	1	1	730	1	poli_8sides 18_whiteLine3.jpg	MediumLong_e19_stereo_44KHz.wav
1	68	2	1	0	C	1	0	795	0	poli_8sides 12_whiteLine3.jpg	MediumLong_e19_stereo_44KHz.wav
1	69	3	3	2	I	2	0	952	0	poli_8sides 16_whiteLine3.jpg	Medium_e21_stereo_44KHz.wav
1	70	1	2	0	C	2	1	617	1	poli_8sides 18_whiteLine3.jpg	MediumLong_e04_stereo_44KHz.wav
1	71	2	2	1	C	1	1	814	1	poli_8sides 12_whiteLine3.jpg	MediumLong_e04_stereo_44KHz.wav
1	72	4	3	2	I	1	0	1173	0	poli_8sides 7_whiteLine3.jpg	Medium_e21_stereo_44KHz.wav
1	73	3	4	2	I	1	0	1010	1	poli_8sides 16_whiteLine3.jpg	MediumLong_b10_cut2_L_stereo_44KHz.wav
1	74	4	4	2	I	2	0	890	0	poli_8sides 7_whiteLine3.jpg	MediumLong_b10_cut2_L_stereo_44KHz.wav
1	75	2	1	0	C	1	0	864	0	poli_8sides 12_whiteLine3.jpg	MediumLong_e19_stereo_44KHz.wav
1	76	1	2	0	C	2	1	727	1	poli_8sides 18_whiteLine3.jpg	MediumLong_e04_stereo_44KHz.wav
1	77	4	3	2	I	1	0	722	0	poli_8sides 7_whiteLine3.jpg	Medium_e21_stereo_44KHz.wav
1	78	3	3	2	I	2	0	834	1	poli_8sides 16_whiteLine3.jpg	Medium_e21_stereo_44KHz.wav
1	79	2	2	1	C	1	1	918	1	poli_8sides 12_whiteLine3.jpg	MediumLong_e04_stereo_44KHz.wav
1	80	1	1	1	C	1	1	803	1	poli_8sides 18_whiteLine3.jpg	MediumLong_e19_stereo_44KHz.wav
1	81	2	1	0	C	2	1	992	1	poli_8sides 12_whiteLine3.jpg	MediumLong_e19_stereo_44KHz.wav
1	82	4	4	2	I	1	0	998	0	poli_8sides 7_whiteLine3.jpg	MediumLong_b10_cut2_L_stereo_44KHz.wav
1	83	1	2	0	C	2	1	760	1	poli_8sides 18_whiteLine3.jpg	MediumLong_e04_stereo_44KHz.wav
1	84	3	4	2	I	1	0	1455	0	poli_8sides 16_whiteLine3.jpg	MediumLong_b10_cut2_L_stereo_44KHz.wav
1	85	1	1	1	C	1	1	881	1	poli_8sides 18_whiteLine3.jpg	MediumLong_e19_stereo_44KHz.wav
1	86	2	2	1	C	1	1	868	1	poli_8sides 12_whiteLine3.jpg	MediumLong_e04_stereo_44KHz.wav
1	87	3	3	2	I	2	0	1295	1	poli_8sides 16_whiteLine3.jpg	Medium_e21_stereo_44KHz.wav
1	88	4	3	2	I	1	0	829	0	poli_8sides 7_whiteLine3.jpg	Medium_e21_stereo_44KHz.wav
1	89	3	4	2	I	1	0	1530	1	poli_8sides 16_whiteLine3.jpg	MediumLong_b10_cut2_L_stereo_44KHz.wav
1	90	1	2	0	C	2	1	746	1	poli_8sides 18_whiteLine3.jpg	MediumLong_e04_stereo_44KHz.wav
1	91	2	2	1	C	1	1	976	1	poli_8sides 12_whiteLine3.jpg	MediumLong_e04_stereo_44KHz.wav
1	92	4	4	2	I	1	0	1454	0	poli_8sides 7_whiteLine3.jpg	MediumLong_b10_cut2_L_stereo_44KHz.wav
1	93	1	1	1	C	1	1	821	1	poli_8sides 18_whiteLine3.jpg	MediumLong_e19_stereo_44KHz.wav
1	94	4	3	2	I	2	0	876	0	poli_8sides 7_whiteLine3.jpg	Medium_e21_stereo_44KHz.wav
1	95	3	3	2	I	2	0	1118	0	poli_8sides 16_whiteLine3.jpg	Medium_e21_stereo_44KHz.wav
1	96	2	1	0	C	2	1	902	1	poli_8sides 12_whiteLine3.jpg	MediumLong_e19_stereo_44KHz.wav
1	97	4	4	2	I	2	0	880	1	poli_8sides 7_whiteLine3.jpg	MediumLong_b10_cut2_L_stereo_44KHz.wav
1	98	1	2	0	C	2	1	640	1	poli_8sides 18_whiteLine3.jpg	MediumLong_e04_stereo_44KHz.wav
1	99	3	3	2	I	2	0	857	0	poli_8sides 16_whiteLine3.jpg	Medium_e21_stereo_44KHz.wav
1	100	2	1	0	C	1	0	857	0	poli_8sides 12_whiteLine3.jpg	MediumLong_e19_stereo_44KHz.wav
1	101	3	4	2	I	1	0	1419	1	poli_8sides 16_whiteLine3.jpg	MediumLong_b10_cut2_L_stereo_44KHz.wav
1	102	1	1	1	C	1	1	825	1	poli_8sides 18_whiteLine3.jpg	MediumLong_e19_stereo_44KHz.wav
1	103	2	2	1	C	1	1	786	1	poli_8sides 12_whiteLine3.jpg	MediumLong_e04_stereo_44KHz.wav
1	104	4	3	2	I	1	0	835	0	poli_8sides 7_whiteLine3.jpg	Medium_e21_stereo_44KHz.wav
1	105	1	1	1	C	1	1	756	1	poli_8sides 18_whiteLine3.jpg	MediumLong_e19_stereo_44KHz.wav
1	106	2	2	1	C	1	1	741	1	poli_8sides 12_whiteLine3.jpg	MediumLong_e04_stereo_44KHz.wav
1	107	3	3	2	I	1	0	1190	0	poli_8sides 16_whiteLine3.jpg	Medium_e21_stereo_44KHz.wav
1	108	4	4	2	I	2	0	1441	1	poli_8sides 7_whiteLine3.jpg	MediumLong_b10_cut2_L_stereo_44KHz.wav
1	109	3	4	2	I	2	0	1134	0	poli_8sides 16_whiteLine3.jpg	MediumLong_b10_cut2_L_stereo_44KHz.wav
1	110	1	2	0	C	2	1	688	1	poli_8sides 18_whiteLine3.jpg	MediumLong_e04_stereo_44KHz.wav
1	111	4	3	2	I	2	0	1352	1	poli_8sides 7_whiteLine3.jpg	Medium_e21_stereo_44KHz.wav
1	112	2	1	0	C	2	1	924	1	poli_8sides 12_whiteLine3.jpg	MediumLong_e19_stereo_44KHz.wav
1	113	1	2	0	C	2	1	751	1	poli_8sides 18_whiteLine3.jpg	MediumLong_e04_stereo_44KHz.wav
1	114	2	1	0	C	2	1	830	1	poli_8sides 12_whiteLine3.jpg	MediumLong_e19_stereo_44KHz.wav
1	115	3	4	2	I	1	0	982	1	poli_8sides 16_whiteLine3.jpg	MediumLong_b10_cut2_L_stereo_44KHz.wav
1	116	4	4	2	I	2	0	911	0	poli_8sides 7_whiteLine3.jpg	MediumLong_b10_cut2_L_stereo_44KHz.wav
1	117	1	1	1	C	1	1	748	1	poli_8sides 18_whiteLine3.jpg	MediumLong_e19_stereo_44KHz.wav
1	118	3	3	2	I	2	0	1083	1	poli_8sides 16_whiteLine3.jpg	Medium_e21_stereo_44KHz.wav
1	119	2	2	1	C	1	1	781	1	poli_8sides 12_whiteLine3.jpg	MediumLong_e04_stereo_44KHz.wav
1	120	4	3	2	I	1	0	928	0	poli_8sides 7_whiteLine3.jpg	Medium_e21_stereo_44KHz.wav
1	121	1	2	0	C	2	1	787	1	poli_8sides 18_whiteLine3.jpg	MediumLong_e04_stereo_44KHz.wav
1	122	2	1	0	C	1	0	922	0	poli_8sides 12_whiteLine3.jpg	MediumLong_e19_stereo_44KHz.wav
1	123	3	4	2	I	2	0	1580	1	poli_8sides 16_whiteLine3.jpg	MediumLong_b10_cut2_L_stereo_44KHz.wav
1	124	4	3	2	I	1	0	582	1	poli_8sides 7_whiteLine3.jpg	Medium_e21_stereo_44KHz.wav
1	125	1	1	1	C	2	0	647	0	poli_8sides 18_whiteLine3.jpg	MediumLong_e19_stereo_44KHz.wav
1	126	3	3	2	I	1	0	663	1	poli_8sides 16_whiteLine3.jpg	Medium_e21_stereo_44KHz.wav
1	127	4	4	2	I	1	0	819	1	poli_8sides 7_whiteLine3.jpg	MediumLong_b10_cut2_L_stereo_44KHz.wav
1	128	2	2	1	C	1	1	734	1	poli_8sides 12_whiteLine3.jpg	MediumLong_e04_stereo_44KHz.wav
1	129	3	4	2	I	1	0	951	1	poli_8sides 16_whiteLine3.jpg	MediumLong_b10_cut2_L_stereo_44KHz.wav
1	130	4	3	2	I	1	0	1211	1	poli_8sides 7_whiteLine3.jpg	Medium_e21_stereo_44KHz.wav
1	131	2	1	0	C	2	1	973	1	poli_8sides 12_whiteLine3.jpg	MediumLong_e19_stereo_44KHz.wav
1	132	1	2	0	C	2	1	729	1	poli_8sides 18_whiteLine3.jpg	MediumLong_e04_stereo_44KHz.wav
1	133	3	3	2	I	1	0	1102	0	poli_8sides 16_whiteLine3.jpg	Medium_e21_stereo_44KHz.wav
1	134	2	2	1	C	1	1	828	1	poli_8sides 12_whiteLine3.jpg	MediumLong_e04_stereo_44KHz.wav
1	135	4	4	2	I	1	0	676	1	poli_8sides 7_whiteLine3.jpg	MediumLong_b10_cut2_L_stereo_44KHz.wav
1	136	1	1	1	C	1	1	666	1	poli_8sides 18_whiteLine3.jpg	MediumLong_e19_stereo_44KHz.wav
1	137	4	4	2	I	1	0	768	1	poli_8sides 7_whiteLine3.jpg	MediumLong_b10_cut2_L_stereo_44KHz.wav
1	138	2	1	0	C	2	1	1162	1	poli_8sides 12_whiteLine3.jpg	MediumLong_e19_stereo_44KHz.wav
1	139	3	3	2	I	1	0	861	0	poli_8sides 16_whiteLine3.jpg	Medium_e21_stereo_44KHz.wav
1	140	1	2	0	C	2	1	677	1	poli_8sides 18_whiteLine3.jpg	MediumLong_e04_stereo_44KHz.wav
1	141	2	2	1	C	1	1	717	1	poli_8sides 12_whiteLine3.jpg	MediumLong_e04_stereo_44KHz.wav
1	142	4	3	2	I	1	0	738	0	poli_8sides 7_whiteLine3.jpg	Medium_e21_stereo_44KHz.wav
1	143	1	1	1	C	1	1	740	1	poli_8sides 18_whiteLine3.jpg	MediumLong_e19_stereo_44KHz.wav
1	144	3	4	2	I	2	0	914	1	poli_8sides 16_whiteLine3.jpg	MediumLong_b10_cut2_L_stereo_44KHz.wav
1	145	4	4	2	I	1	0	684	1	poli_8sides 7_whiteLine3.jpg	MediumLong_b10_cut2_L_stereo_44KHz.wav
1	146	2	1	0	C	1	0	1065	0	poli_8sides 12_whiteLine3.jpg	MediumLong_e19_stereo_44KHz.wav
1	147	3	4	2	I	2	0	919	0	poli_8sides 16_whiteLine3.jpg	MediumLong_b10_cut2_L_stereo_44KHz.wav
1	148	1	2	0	C	2	1	658	1	poli_8sides 18_whiteLine3.jpg	MediumLong_e04_stereo_44KHz.wav
1	149	3	3	2	I	1	0	984	0	poli_8sides 16_whiteLine3.jpg	Medium_e21_stereo_44KHz.wav
1	150	1	1	1	C	1	1	744	1	poli_8sides 18_whiteLine3.jpg	MediumLong_e19_stereo_44KHz.wav
1	151	4	3	2	I	1	0	860	1	poli_8sides 7_whiteLine3.jpg	Medium_e21_stereo_44KHz.wav
1	152	2	2	1	C	1	1	855	1	poli_8sides 12_whiteLine3.jpg	MediumLong_e04_stereo_44KHz.wav
1	153	3	4	2	I	1	0	791	1	poli_8sides 16_whiteLine3.jpg	MediumLong_b10_cut2_L_stereo_44KHz.wav
1	154	4	4	2	I	1	0	718	1	poli_8sides 7_whiteLine3.jpg	MediumLong_b10_cut2_L_stereo_44KHz.wav
1	155	2	1	0	C	2	1	1035	1	poli_8sides 12_whiteLine3.jpg	MediumLong_e19_stereo_44KHz.wav
1	156	1	1	1	C	1	1	721	1	poli_8sides 18_whiteLine3.jpg	MediumLong_e19_stereo_44KHz.wav
1	157	3	3	2	I	2	0	912	0	poli_8sides 16_whiteLine3.jpg	Medium_e21_stereo_44KHz.wav
1	158	1	2	0	C	2	1	669	1	poli_8sides 18_whiteLine3.jpg	MediumLong_e04_stereo_44KHz.wav
1	159	2	2	1	C	1	1	817	1	poli_8sides 12_whiteLine3.jpg	MediumLong_e04_stereo_44KHz.wav
1	160	4	3	2	I	1	0	708	0	poli_8sides 7_whiteLine3.jpg	Medium_e21_stereo_44KHz.wav
1	161	2	1	0	C	2	1	898	1	poli_8sides 12_whiteLine3.jpg	MediumLong_e19_stereo_44KHz.wav
1	162	4	4	2	I	1	0	615	1	poli_8sides 7_whiteLine3.jpg	MediumLong_b10_cut2_L_stereo_44KHz.wav
1	163	1	2	0	C	2	1	694	1	poli_8sides 18_whiteLine3.jpg	MediumLong_e04_stereo_44KHz.wav
1	164	3	4	2	I	1	0	699	0	poli_8sides 16_whiteLine3.jpg	MediumLong_b10_cut2_L_stereo_44KHz.wav
1	165	1	1	1	C	1	1	768	1	poli_8sides 18_whiteLine3.jpg	MediumLong_e19_stereo_44KHz.wav
1	166	2	2	1	C	1	1	1099	1	poli_8sides 12_whiteLine3.jpg	MediumLong_e04_stereo_44KHz.wav
1	167	4	3	2	I	2	0	1308	1	poli_8sides 7_whiteLine3.jpg	Medium_e21_stereo_44KHz.wav
1	168	3	3	2	I	1	0	1152	0	poli_8sides 16_whiteLine3.jpg	Medium_e21_stereo_44KHz.wav
1	169	1	2	0	C	2	1	763	1	poli_8sides 18_whiteLine3.jpg	MediumLong_e04_stereo_44KHz.wav
1	170	2	1	0	C	2	1	1506	1	poli_8sides 12_whiteLine3.jpg	MediumLong_e19_stereo_44KHz.wav
1	171	3	4	2	I	1	0	859	1	poli_8sides 16_whiteLine3.jpg	MediumLong_b10_cut2_L_stereo_44KHz.wav
1	172	4	3	2	I	2	0	1035	0	poli_8sides 7_whiteLine3.jpg	Medium_e21_stereo_44KHz.wav
1	173	1	1	1	C	1	1	774	1	poli_8sides 18_whiteLine3.jpg	MediumLong_e19_stereo_44KHz.wav
1	174	3	3	2	I	1	0	1025	0	poli_8sides 16_whiteLine3.jpg	Medium_e21_stereo_44KHz.wav
1	175	4	4	2	I	1	0	1437	0	poli_8sides 7_whiteLine3.jpg	MediumLong_b10_cut2_L_stereo_44KHz.wav
1	176	2	2	1	C	1	1	825	1	poli_8sides 12_whiteLine3.jpg	MediumLong_e04_stereo_44KHz.wav
1	177	4	4	2	I	0	0	0	0	poli_8sides 7_whiteLine3.jpg	MediumLong_b10_cut2_L_stereo_44KHz.wav
1	178	1	2	0	C	2	1	530	1	poli_8sides 18_whiteLine3.jpg	MediumLong_e04_stereo_44KHz.wav
1	179	2	1	0	C	1	0	688	0	poli_8sides 12_whiteLine3.jpg	MediumLong_e19_stereo_44KHz.wav
1	180	3	3	2	I	1	0	784	1	poli_8sides 16_whiteLine3.jpg	Medium_e21_stereo_44KHz.wav
1	181	4	3	2	I	2	0	721	1	poli_8sides 7_whiteLine3.jpg	Medium_e21_stereo_44KHz.wav
1	182	1	1	1	C	1	1	856	1	poli_8sides 18_whiteLine3.jpg	MediumLong_e19_stereo_44KHz.wav
1	183	2	2	1	C	1	1	881	1	poli_8sides 12_whiteLine3.jpg	MediumLong_e04_stereo_44KHz.wav
1	184	3	4	2	I	1	0	665	1	poli_8sides 16_whiteLine3.jpg	MediumLong_b10_cut2_L_stereo_44KHz.wav
1	185	4	4	2	I	1	0	745	1	poli_8sides 7_whiteLine3.jpg	MediumLong_b10_cut2_L_stereo_44KHz.wav
1	186	1	1	1	C	1	1	757	1	poli_8sides 18_whiteLine3.jpg	MediumLong_e19_stereo_44KHz.wav
1	187	3	3	2	I	1	0	926	1	poli_8sides 16_whiteLine3.jpg	Medium_e21_stereo_44KHz.wav
1	188	2	1	0	C	2	1	690	1	poli_8sides 12_whiteLine3.jpg	MediumLong_e19_stereo_44KHz.wav
1	189	4	3	2	I	2	0	903	0	poli_8sides 7_whiteLine3.jpg	Medium_e21_stereo_44KHz.wav
1	190	2	2	1	C	1	1	758	1	poli_8sides 12_whiteLine3.jpg	MediumLong_e04_stereo_44KHz.wav
1	191	3	4	2	I	1	0	660	0	poli_8sides 16_whiteLine3.jpg	MediumLong_b10_cut2_L_stereo_44KHz.wav
1	192	1	2	0	C	2	1	704	1	poli_8sides 18_whiteLine3.jpg	MediumLong_e04_stereo_44KHz.wav
1	193	4	4	2	I	1	0	592	1	poli_8sides 7_whiteLine3.jpg	MediumLong_b10_cut2_L_stereo_44KHz.wav
1	194	1	1	1	C	1	1	752	1	poli_8sides 18_whiteLine3.jpg	MediumLong_e19_stereo_44KHz.wav
1	195	2	1	0	C	2	1	733	1	poli_8sides 12_whiteLine3.jpg	MediumLong_e19_stereo_44KHz.wav
1	196	3	3	2	I	1	0	568	1	poli_8sides 16_whiteLine3.jpg	Medium_e21_stereo_44KHz.wav
1	197	4	3	2	I	2	0	890	0	poli_8sides 7_whiteLine3.jpg	Medium_e21_stereo_44KHz.wav
1	198	1	2	0	C	2	1	555	1	poli_8sides 18_whiteLine3.jpg	MediumLong_e04_stereo_44KHz.wav
1	199	2	2	1	C	1	1	545	1	poli_8sides 12_whiteLine3.jpg	MediumLong_e04_stereo_44KHz.wav
1	200	3	4	2	I	1	0	729	0	poli_8sides 16_whiteLine3.jpg	MediumLong_b10_cut2_L_stereo_44KHz.wav
2	1	4	3	2	I	2	0	812	0	poli_8sides 9_whiteLine3.jpg	Short_b20_cut1_stereo_44KHz.wav
2	2	2	2	1	C	2	0	897	0	poli_8sides 13_whiteLine3.jpg	Short_b09_cut1_stereo_44KHz.wav
2	3	3	4	2	I	2	0	569	0	poli_8sides 5_whiteLine3.jpg	Short_b23_cut1_stereo_44KHz.wav
2	4	1	1	1	C	1	1	416	1	poli_8sides 1_whiteLine3.jpg	Short_b22_cut1_stereo_44KHz.wav
2	5	3	3	2	I	2	0	691	0	poli_8sides 5_whiteLine3.jpg	Short_b20_cut1_stereo_44KHz.wav
2	6	4	4	2	I	2	0	653	0	poli_8sides 9_whiteLine3.jpg	Short_b23_cut1_stereo_44KHz.wav
2	7	2	1	0	C	1	0	527	0	poli_8sides 13_whiteLine3.jpg	Short_b22_cut1_stereo_44KHz.wav
2	8	1	2	0	C	2	1	529	1	poli_8sides 1_whiteLine3.jpg	Short_b09_cut1_stereo_44KHz.wav
2	9	3	3	2	I	2	0	642	0	poli_8sides 5_whiteLine3.jpg	Short_b20_cut1_stereo_44KHz.wav
2	10	2	1	0	C	2	1	369	1	poli_8sides 13_whiteLine3.jpg	Short_b22_cut1_stereo_44KHz.wav
2	11	1	1	1	C	1	1	478	1	poli_8sides 1_whiteLine3.jpg	Short_b22_cut1_stereo_44KHz.wav
2	12	4	4	2	I	2	0	883	1	poli_8sides 9_whiteLine3.jpg	Short_b23_cut1_stereo_44KHz.wav
2	13	1	2	0	C	2	1	988	1	poli_8sides 1_whiteLine3.jpg	Short_b09_cut1_stereo_44KHz.wav
2	14	2	2	1	C	1	1	598	1	poli_8sides 13_whiteLine3.jpg	Short_b09_cut1_stereo_44KHz.wav
2	15	3	4	2	I	1	0	862	0	poli_8sides 5_whiteLine3.jpg	Short_b23_cut1_stereo_44KHz.wav
2	16	4	3	2	I	1	0	889	0	poli_8sides 9_whiteLine3.jpg	Short_b20_cut1_stereo_44KHz.wav
2	17	2	1	0	C	1	0	648	0	poli_8sides 13_whiteLine3.jpg	Short_b22_cut1_stereo_44KHz.wav
2	18	3	4	2	I	2	0	633	1	poli_8sides 5_whiteLine3.jpg	Short_b23_cut1_stereo_44KHz.wav
2	19	4	3	2	I	2	0	965	1	poli_8sides 9_whiteLine3.jpg	Short_b20_cut1_stereo_44KHz.wav
2	20	1	2	0	C	2	1	725	1	poli_8sides 1_whiteLine3.jpg	Short_b09_cut1_stereo_44KHz.wav
2	21	4	4	2	I	1	0	751	1	poli_8sides 9_whiteLine3.jpg	Short_b23_cut1_stereo_44KHz.wav
2	22	2	2	1	C	1	1	1097	1	poli_8sides 13_whiteLine3.jpg	Short_b09_cut1_stereo_44KHz.wav
2	23	1	1	1	C	1	1	693	1	poli_8sides 1_whiteLine3.jpg	Short_b22_cut1_stereo_44KHz.wav
2	24	3	3	2	I	1	0	751	0	poli_8sides 5_whiteLine3.jpg	Short_b20_cut1_stereo_44KHz.wav
2	25	1	1	1	C	1	1	695	1	poli_8sides 1_whiteLine3.jpg	Short_b22_cut1_stereo_44KHz.wav
2	26	4	3	2	I	1	0	699	0	poli_8sides 9_whiteLine3.jpg	Short_b20_cut1_stereo_44KHz.wav
2	27	2	1	0	C	1	0	888	0	poli_8sides 13_whiteLine3.jpg	Short_b22_cut1_stereo_44KHz.wav
2	28	3	4	2	I	2	0	991	1	poli_8sides 5_whiteLine3.jpg	Short_b23_cut1_stereo_44KHz.wav
2	29	1	2	0	C	2	1	933	1	poli_8sides 1_whiteLine3.jpg	Short_b09_cut1_stereo_44KHz.wav
2	30	3	3	2	I	1	0	671	0	poli_8sides 5_whiteLine3.jpg	Short_b20_cut1_stereo_44KHz.wav
2	31	4	4	2	I	1	0	784	1	poli_8sides 9_whiteLine3.jpg	Short_b23_cut1_stereo_44KHz.wav
2	32	2	2	1	C	1	1	805	1	poli_8sides 13_whiteLine3.jpg	Short_b09_cut1_stereo_44KHz.wav
2	33	1	2	0	C	2	1	679	1	poli_8sides 1_whiteLine3.jpg	Short_b09_cut1_stereo_44KHz.wav
2	34	2	1	0	C	1	0	611	0	poli_8sides 13_whiteLine3.jpg	Short_b22_cut1_stereo_44KHz.wav
2	35	3	4	2	I	1	0	629	0	poli_8sides 5_whiteLine3.jpg	Short_b23_cut1_stereo_44KHz.wav
2	36	4	3	2	I	2	0	584	1	poli_8sides 9_whiteLine3.jpg	Short_b20_cut1_stereo_44KHz.wav
2	37	3	3	2	I	1	0	845	1	poli_8sides 5_whiteLine3.jpg	Short_b20_cut1_stereo_44KHz.wav
2	38	1	1	1	C	1	1	643	1	poli_8sides 1_whiteLine3.jpg	Short_b22_cut1_stereo_44KHz.wav
2	39	4	4	2	I	2	0	856	0	poli_8sides 9_whiteLine3.jpg	Short_b23_cut1_stereo_44KHz.wav
2	40	2	2	1	C	1	1	866	1	poli_8sides 13_whiteLine3.jpg	Short_b09_cut1_stereo_44KHz.wav
2	41	1	1	1	C	1	1	789	1	poli_8sides 1_whiteLine3.jpg	Short_b22_cut1_stereo_44KHz.wav
2	42	2	1	0	C	1	0	588	0	poli_8sides 13_whiteLine3.jpg	Short_b22_cut1_stereo_44KHz.wav
2	43	3	3	2	I	1	0	1011	1	poli_8sides 5_whiteLine3.jpg	Short_b20_cut1_stereo_44KHz.wav
2	44	4	4	2	I	1	0	1201	1	poli_8sides 9_whiteLine3.jpg	Short_b23_cut1_stereo_44KHz.wav
2	45	3	4	2	I	2	0	1150	0	poli_8sides 5_whiteLine3.jpg	Short_b23_cut1_stereo_44KHz.wav
2	46	1	2	0	C	1	0	948	0	poli_8sides 1_whiteLine3.jpg	Short_b09_cut1_stereo_44KHz.wav
2	47	4	3	2	I	1	0	759	1	poli_8sides 9_whiteLine3.jpg	Short_b20_cut1_stereo_44KHz.wav
2	48	2	2	1	C	1	1	794	1	poli_8sides 13_whiteLine3.jpg	Short_b09_cut1_stereo_44KHz.wav
2	49	3	4	2	I	1	0	806	1	poli_8sides 5_whiteLine3.jpg	Short_b23_cut1_stereo_44KHz.wav
2	50	2	1	0	C	1	0	561	0	poli_8sides 13_whiteLine3.jpg	Short_b22_cut1_stereo_44KHz.wav
2	51	1	2	0	C	2	1	818	1	poli_8sides 1_whiteLine3.jpg	Short_b09_cut1_stereo_44KHz.wav
2	52	4	3	2	I	1	0	585	1	poli_8sides 9_whiteLine3.jpg	Short_b20_cut1_stereo_44KHz.wav
2	53	2	2	1	C	1	1	678	1	poli_8sides 13_whiteLine3.jpg	Short_b09_cut1_stereo_44KHz.wav
2	54	4	4	2	I	1	0	895	0	poli_8sides 9_whiteLine3.jpg	Short_b23_cut1_stereo_44KHz.wav
2	55	3	3	2	I	1	0	551	0	poli_8sides 5_whiteLine3.jpg	Short_b20_cut1_stereo_44KHz.wav
2	56	1	1	1	C	1	1	682	1	poli_8sides 1_whiteLine3.jpg	Short_b22_cut1_stereo_44KHz.wav
2	57	3	4	2	I	2	0	831	0	poli_8sides 5_whiteLine3.jpg	Short_b23_cut1_stereo_44KHz.wav
2	58	2	2	1	C	1	1	905	1	poli_8sides 13_whiteLine3.jpg	Short_b09_cut1_stereo_44KHz.wav
2	59	1	1	1	C	1	1	612	1	poli_8sides 1_whiteLine3.jpg	Short_b22_cut1_stereo_44KHz.wav
2	60	4	3	2	I	2	0	740	1	poli_8sides 9_whiteLine3.jpg	Short_b20_cut1_stereo_44KHz.wav
2	61	2	1	0	C	1	0	694	0	poli_8sides 13_whiteLine3.jpg	Short_b22_cut1_stereo_44KHz.wav
2	62	3	3	2	I	1	0	658	0	poli_8sides 5_whiteLine3.jpg	Short_b20_cut1_stereo_44KHz.wav
2	63	1	2	0	C	2	1	826	1	poli_8sides 1_whiteLine3.jpg	Short_b09_cut1_stereo_44KHz.wav
2	64	4	4	2	I	1	0	650	0	poli_8sides 9_whiteLine3.jpg	Short_b23_cut1_stereo_44KHz.wav
2	65	3	4	2	I	1	0	591	1	poli_8sides 5_whiteLine3.jpg	Short_b23_cut1_stereo_44KHz.wav
2	66	4	3	2	I	1	0	642	0	poli_8sides 9_whiteLine3.jpg	Short_b20_cut1_stereo_44KHz.wav
2	67	2	1	0	C	1	0	541	0	poli_8sides 13_whiteLine3.jpg	Short_b22_cut1_stereo_44KHz.wav
2	68	1	1	1	C	1	1	678	1	poli_8sides 1_whiteLine3.jpg	Short_b22_cut1_stereo_44KHz.wav
2	69	3	3	2	I	1	0	763	1	poli_8sides 5_whiteLine3.jpg	Short_b20_cut1_stereo_44KHz.wav
2	70	2	2	1	C	2	0	862	0	poli_8sides 13_whiteLine3.jpg	Short_b09_cut1_stereo_44KHz.wav
2	71	1	2	0	C	2	1	576	1	poli_8sides 1_whiteLine3.jpg	Short_b09_cut1_stereo_44KHz.wav
2	72	4	4	2	I	1	0	566	1	poli_8sides 9_whiteLine3.jpg	Short_b23_cut1_stereo_44KHz.wav
2	73	1	2	0	C	2	1	651	1	poli_8sides 1_whiteLine3.jpg	Short_b09_cut1_stereo_44KHz.wav
2	74	3	3	2	I	1	0	602	1	poli_8sides 5_whiteLine3.jpg	Short_b20_cut1_stereo_44KHz.wav
2	75	2	2	1	C	1	1	667	1	poli_8sides 13_whiteLine3.jpg	Short_b09_cut1_stereo_44KHz.wav
2	76	4	4	2	I	1	0	611	0	poli_8sides 9_whiteLine3.jpg	Short_b23_cut1_stereo_44KHz.wav
2	77	2	1	0	C	1	0	860	0	poli_8sides 13_whiteLine3.jpg	Short_b22_cut1_stereo_44KHz.wav
2	78	1	1	1	C	1	1	664	1	poli_8sides 1_whiteLine3.jpg	Short_b22_cut1_stereo_44KHz.wav
2	79	4	3	2	I	2	0	1094	1	poli_8sides 9_whiteLine3.jpg	Short_b20_cut1_stereo_44KHz.wav
2	80	3	4	2	I	1	0	606	1	poli_8sides 5_whiteLine3.jpg	Short_b23_cut1_stereo_44KHz.wav
2	81	1	1	1	C	1	1	732	1	poli_8sides 1_whiteLine3.jpg	Short_b22_cut1_stereo_44KHz.wav
2	82	3	4	2	I	1	0	1027	1	poli_8sides 5_whiteLine3.jpg	Short_b23_cut1_stereo_44KHz.wav
2	83	4	4	2	I	1	0	928	1	poli_8sides 9_whiteLine3.jpg	Short_b23_cut1_stereo_44KHz.wav
2	84	2	1	0	C	1	0	1471	0	poli_8sides 13_whiteLine3.jpg	Short_b22_cut1_stereo_44KHz.wav
2	85	3	3	2	I	1	0	924	1	poli_8sides 5_whiteLine3.jpg	Short_b20_cut1_stereo_44KHz.wav
2	86	1	2	0	C	2	1	764	1	poli_8sides 1_whiteLine3.jpg	Short_b09_cut1_stereo_44KHz.wav
2	87	4	3	2	I	1	0	741	0	poli_8sides 9_whiteLine3.jpg	Short_b20_cut1_stereo_44KHz.wav
2	88	2	2	1	C	1	1	767	1	poli_8sides 13_whiteLine3.jpg	Short_b09_cut1_stereo_44KHz.wav
2	89	3	3	2	I	1	0	586	0	poli_8sides 5_whiteLine3.jpg	Short_b20_cut1_stereo_44KHz.wav
2	90	2	1	0	C	1	0	649	0	poli_8sides 13_whiteLine3.jpg	Short_b22_cut1_stereo_44KHz.wav
2	91	1	1	1	C	1	1	739	1	poli_8sides 1_whiteLine3.jpg	Short_b22_cut1_stereo_44KHz.wav
2	92	4	3	2	I	2	0	801	0	poli_8sides 9_whiteLine3.jpg	Short_b20_cut1_stereo_44KHz.wav
2	93	2	2	1	C	1	1	586	1	poli_8sides 13_whiteLine3.jpg	Short_b09_cut1_stereo_44KHz.wav
2	94	4	4	2	I	1	0	663	0	poli_8sides 9_whiteLine3.jpg	Short_b23_cut1_stereo_44KHz.wav
2	95	3	4	2	I	1	0	625	0	poli_8sides 5_whiteLine3.jpg	Short_b23_cut1_stereo_44KHz.wav
2	96	1	2	0	C	2	1	992	1	poli_8sides 1_whiteLine3.jpg	Short_b09_cut1_stereo_44KHz.wav
2	97	4	3	2	I	2	0	832	1	poli_8sides 9_whiteLine3.jpg	Short_b20_cut1_stereo_44KHz.wav
2	98	1	1	1	C	1	1	758	1	poli_8sides 1_whiteLine3.jpg	Short_b22_cut1_stereo_44KHz.wav
2	99	2	1	0	C	1	0	619	0	poli_8sides 13_whiteLine3.jpg	Short_b22_cut1_stereo_44KHz.wav
2	100	3	3	2	I	1	0	666	0	poli_8sides 5_whiteLine3.jpg	Short_b20_cut1_stereo_44KHz.wav
2	101	2	2	1	C	1	1	744	1	poli_8sides 13_whiteLine3.jpg	Short_b09_cut1_stereo_44KHz.wav
2	102	3	4	2	I	2	0	733	0	poli_8sides 5_whiteLine3.jpg	Short_b23_cut1_stereo_44KHz.wav
2	103	1	2	0	C	2	1	959	1	poli_8sides 1_whiteLine3.jpg	Short_b09_cut1_stereo_44KHz.wav
2	104	4	4	2	I	1	0	797	1	poli_8sides 9_whiteLine3.jpg	Short_b23_cut1_stereo_44KHz.wav
2	105	3	4	2	I	1	0	1321	1	poli_8sides 5_whiteLine3.jpg	Short_b23_cut1_stereo_44KHz.wav
2	106	4	3	2	I	2	0	819	0	poli_8sides 9_whiteLine3.jpg	Short_b20_cut1_stereo_44KHz.wav
2	107	1	2	0	C	2	1	710	1	poli_8sides 1_whiteLine3.jpg	Short_b09_cut1_stereo_44KHz.wav
2	108	2	2	1	C	1	1	653	1	poli_8sides 13_whiteLine3.jpg	Short_b09_cut1_stereo_44KHz.wav
2	109	4	4	2	I	1	0	550	0	poli_8sides 9_whiteLine3.jpg	Short_b23_cut1_stereo_44KHz.wav
2	110	1	1	1	C	1	1	823	1	poli_8sides 1_whiteLine3.jpg	Short_b22_cut1_stereo_44KHz.wav
2	111	2	1	0	C	1	0	572	0	poli_8sides 13_whiteLine3.jpg	Short_b22_cut1_stereo_44KHz.wav
2	112	3	3	2	I	2	0	840	0	poli_8sides 5_whiteLine3.jpg	Short_b20_cut1_stereo_44KHz.wav
2	113	4	3	2	I	2	0	613	1	poli_8sides 9_whiteLine3.jpg	Short_b20_cut1_stereo_44KHz.wav
2	114	1	2	0	C	2	1	696	1	poli_8sides 1_whiteLine3.jpg	Short_b09_cut1_stereo_44KHz.wav
2	115	3	4	2	I	1	0	641	1	poli_8sides 5_whiteLine3.jpg	Short_b23_cut1_stereo_44KHz.wav
2	116	2	1	0	C	1	0	636	0	poli_8sides 13_whiteLine3.jpg	Short_b22_cut1_stereo_44KHz.wav
2	117	4	4	2	I	1	0	1003	0	poli_8sides 9_whiteLine3.jpg	Short_b23_cut1_stereo_44KHz.wav
2	118	1	1	1	C	1	1	743	1	poli_8sides 1_whiteLine3.jpg	Short_b22_cut1_stereo_44KHz.wav
2	119	3	3	2	I	1	0	915	0	poli_8sides 5_whiteLine3.jpg	Short_b20_cut1_stereo_44KHz.wav
2	120	2	2	1	C	1	1	912	1	poli_8sides 13_whiteLine3.jpg	Short_b09_cut1_stereo_44KHz.wav
2	121	4	4	2	I	2	0	911	1	poli_8sides 9_whiteLine3.jpg	Short_b23_cut1_stereo_44KHz.wav
2	122	3	4	2	I	1	0	595	1	poli_8sides 5_whiteLine3.jpg	Short_b23_cut1_stereo_44KHz.wav
2	123	2	1	0	C	2	1	1052	1	poli_8sides 13_whiteLine3.jpg	Short_b22_cut1_stereo_44KHz.wav
2	124	1	1	1	C	1	1	905	1	poli_8sides 1_whiteLine3.jpg	Short_b22_cut1_stereo_44KHz.wav
2	125	2	2	1	C	2	0	703	0	poli_8sides 13_whiteLine3.jpg	Short_b09_cut1_stereo_44KHz.wav
2	126	3	3	2	I	1	0	553	1	poli_8sides 5_whiteLine3.jpg	Short_b20_cut1_stereo_44KHz.wav
2	127	1	2	0	C	2	1	727	1	poli_8sides 1_whiteLine3.jpg	Short_b09_cut1_stereo_44KHz.wav
2	128	4	3	2	I	1	0	703	0	poli_8sides 9_whiteLine3.jpg	Short_b20_cut1_stereo_44KHz.wav
2	129	2	1	0	C	2	1	811	1	poli_8sides 13_whiteLine3.jpg	Short_b22_cut1_stereo_44KHz.wav
2	130	1	2	0	C	2	1	698	1	poli_8sides 1_whiteLine3.jpg	Short_b09_cut1_stereo_44KHz.wav
2	131	4	3	2	I	1	0	652	0	poli_8sides 9_whiteLine3.jpg	Short_b20_cut1_stereo_44KHz.wav
2	132	3	4	2	I	2	0	807	0	poli_8sides 5_whiteLine3.jpg	Short_b23_cut1_stereo_44KHz.wav
2	133	2	2	1	C	1	1	847	1	poli_8sides 13_whiteLine3.jpg	Short_b09_cut1_stereo_44KHz.wav
2	134	4	4	2	I	2	0	969	1	poli_8sides 9_whiteLine3.jpg	Short_b23_cut1_stereo_44KHz.wav
2	135	3	3	2	I	1	0	814	0	poli_8sides 5_whiteLine3.jpg	Short_b20_cut1_stereo_44KHz.wav
2	136	1	1	1	C	1	1	775	1	poli_8sides 1_whiteLine3.jpg	Short_b22_cut1_stereo_44KHz.wav
2	137	3	4	2	I	1	0	856	1	poli_8sides 5_whiteLine3.jpg	Short_b23_cut1_stereo_44KHz.wav
2	138	2	2	1	C	1	1	840	1	poli_8sides 13_whiteLine3.jpg	Short_b09_cut1_stereo_44KHz.wav
2	139	1	1	1	C	1	1	1103	1	poli_8sides 1_whiteLine3.jpg	Short_b22_cut1_stereo_44KHz.wav
2	140	4	3	2	I	1	0	653	0	poli_8sides 9_whiteLine3.jpg	Short_b20_cut1_stereo_44KHz.wav
2	141	2	1	0	C	1	0	599	0	poli_8sides 13_whiteLine3.jpg	Short_b22_cut1_stereo_44KHz.wav
2	142	4	4	2	I	1	0	770	0	poli_8sides 9_whiteLine3.jpg	Short_b23_cut1_stereo_44KHz.wav
2	143	3	3	2	I	2	0	753	1	poli_8sides 5_whiteLine3.jpg	Short_b20_cut1_stereo_44KHz.wav
2	144	1	2	0	C	2	1	930	1	poli_8sides 1_whiteLine3.jpg	Short_b09_cut1_stereo_44KHz.wav
2	145	2	1	0	C	2	1	1038	1	poli_8sides 13_whiteLine3.jpg	Short_b22_cut1_stereo_44KHz.wav
2	146	4	4	2	I	1	0	579	0	poli_8sides 9_whiteLine3.jpg	Short_b23_cut1_stereo_44KHz.wav
2	147	1	1	1	C	1	1	687	1	poli_8sides 1_whiteLine3.jpg	Short_b22_cut1_stereo_44KHz.wav
2	148	3	3	2	I	1	0	651	1	poli_8sides 5_whiteLine3.jpg	Short_b20_cut1_stereo_44KHz.wav
2	149	2	2	1	C	1	1	837	1	poli_8sides 13_whiteLine3.jpg	Short_b09_cut1_stereo_44KHz.wav
2	150	4	3	2	I	1	0	745	0	poli_8sides 9_whiteLine3.jpg	Short_b20_cut1_stereo_44KHz.wav
2	151	1	2	0	C	2	1	1369	1	poli_8sides 1_whiteLine3.jpg	Short_b09_cut1_stereo_44KHz.wav
2	152	3	4	2	I	1	0	669	1	poli_8sides 5_whiteLine3.jpg	Short_b23_cut1_stereo_44KHz.wav
2	153	1	2	0	C	2	1	757	1	poli_8sides 1_whiteLine3.jpg	Short_b09_cut1_stereo_44KHz.wav
2	154	2	1	0	C	2	1	974	1	poli_8sides 13_whiteLine3.jpg	Short_b22_cut1_stereo_44KHz.wav
2	155	4	4	2	I	1	0	565	0	poli_8sides 9_whiteLine3.jpg	Short_b23_cut1_stereo_44KHz.wav
2	156	3	4	2	I	2	0	836	1	poli_8sides 5_whiteLine3.jpg	Short_b23_cut1_stereo_44KHz.wav
2	157	4	3	2	I	1	0	709	1	poli_8sides 9_whiteLine3.jpg	Short_b20_cut1_stereo_44KHz.wav
2	158	2	2	1	C	2	0	811	0	poli_8sides 13_whiteLine3.jpg	Short_b09_cut1_stereo_44KHz.wav
2	159	1	1	1	C	1	1	701	1	poli_8sides 1_whiteLine3.jpg	Short_b22_cut1_stereo_44KHz.wav
2	160	3	3	2	I	1	0	616	0	poli_8sides 5_whiteLine3.jpg	Short_b20_cut1_stereo_44KHz.wav
2	161	1	2	0	C	2	1	654	1	poli_8sides 1_whiteLine3.jpg	Short_b09_cut1_stereo_44KHz.wav
2	162	2	2	1	C	1	1	905	1	poli_8sides 13_whiteLine3.jpg	Short_b09_cut1_stereo_44KHz.wav
2	163	4	3	2	I	1	0	600	0	poli_8sides 9_whiteLine3.jpg	Short_b20_cut1_stereo_44KHz.wav
2	164	3	4	2	I	1	0	519	0	poli_8sides 5_whiteLine3.jpg	Short_b23_cut1_stereo_44KHz.wav
2	165	2	1	0	C	2	1	1004	1	poli_8sides 13_whiteLine3.jpg	Short_b22_cut1_stereo_44KHz.wav
2	166	1	1	1	C	1	1	689	1	poli_8sides 1_whiteLine3.jpg	Short_b22_cut1_stereo_44KHz.wav
2	167	4	4	2	I	1	0	542	1	poli_8sides 9_whiteLine3.jpg	Short_b23_cut1_stereo_44KHz.wav
2	168	3	3	2	I	1	0	663	1	poli_8sides 5_whiteLine3.jpg	Short_b20_cut1_stereo_44KHz.wav
2	169	4	3	2	I	1	0	737	1	poli_8sides 9_whiteLine3.jpg	Short_b20_cut1_stereo_44KHz.wav
2	170	2	1	0	C	2	1	956	1	poli_8sides 13_whiteLine3.jpg	Short_b22_cut1_stereo_44KHz.wav
2	171	1	1	1	C	1	1	749	1	poli_8sides 1_whiteLine3.jpg	Short_b22_cut1_stereo_44KHz.wav
2	172	3	4	2	I	1	0	652	0	poli_8sides 5_whiteLine3.jpg	Short_b23_cut1_stereo_44KHz.wav
2	173	2	2	1	C	1	1	1025	1	poli_8sides 13_whiteLine3.jpg	Short_b09_cut1_stereo_44KHz.wav
2	174	1	2	0	C	1	0	1448	0	poli_8sides 1_whiteLine3.jpg	Short_b09_cut1_stereo_44KHz.wav
2	175	3	3	2	I	1	0	568	0	poli_8sides 5_whiteLine3.jpg	Short_b20_cut1_stereo_44KHz.wav
2	176	4	4	2	I	2	0	695	0	poli_8sides 9_whiteLine3.jpg	Short_b23_cut1_stereo_44KHz.wav
2	177	1	2	0	C	2	1	878	1	poli_8sides 1_whiteLine3.jpg	Short_b09_cut1_stereo_44KHz.wav
2	178	3	4	2	I	1	0	699	1	poli_8sides 5_whiteLine3.jpg	Short_b23_cut1_stereo_44KHz.wav
2	179	2	2	1	C	2	0	632	0	poli_8sides 13_whiteLine3.jpg	Short_b09_cut1_stereo_44KHz.wav
2	180	4	4	2	I	1	0	616	0	poli_8sides 9_whiteLine3.jpg	Short_b23_cut1_stereo_44KHz.wav
2	181	2	1	0	C	2	1	931	1	poli_8sides 13_whiteLine3.jpg	Short_b22_cut1_stereo_44KHz.wav
2	182	3	3	2	I	1	0	620	0	poli_8sides 5_whiteLine3.jpg	Short_b20_cut1_stereo_44KHz.wav
2	183	4	3	2	I	2	0	854	1	poli_8sides 9_whiteLine3.jpg	Short_b20_cut1_stereo_44KHz.wav
2	184	1	1	1	C	1	1	882	1	poli_8sides 1_whiteLine3.jpg	Short_b22_cut1_stereo_44KHz.wav
2	185	4	4	2	I	1	0	603	1	poli_8sides 9_whiteLine3.jpg	Short_b23_cut1_stereo_44KHz.wav
2	186	3	4	2	I	1	0	853	1	poli_8sides 5_whiteLine3.jpg	Short_b23_cut1_stereo_44KHz.wav
2	187	1	2	0	C	2	1	863	1	poli_8sides 1_whiteLine3.jpg	Short_b09_cut1_stereo_44KHz.wav
2	188	2	1	0	C	2	1	727	1	poli_8sides 13_whiteLine3.jpg	Short_b22_cut1_stereo_44KHz.wav
2	189	4	3	2	I	1	0	628	1	poli_8sides 9_whiteLine3.jpg	Short_b20_cut1_stereo_44KHz.wav
2	190	1	1	1	C	1	1	935	1	poli_8sides 1_whiteLine3.jpg	Short_b22_cut1_stereo_44KHz.wav
2	191	2	2	1	C	1	1	1145	1	poli_8sides 13_whiteLine3.jpg	Short_b09_cut1_stereo_44KHz.wav
2	192	3	3	2	I	2	0	793	1	poli_8sides 5_whiteLine3.jpg	Short_b20_cut1_stereo_44KHz.wav
2	193	4	3	2	I	2	0	1246	1	poli_8sides 9_whiteLine3.jpg	Short_b20_cut1_stereo_44KHz.wav
2	194	1	2	0	C	2	1	861	1	poli_8sides 1_whiteLine3.jpg	Short_b09_cut1_stereo_44KHz.wav
2	195	3	3	2	I	1	0	881	0	poli_8sides 5_whiteLine3.jpg	Short_b20_cut1_stereo_44KHz.wav
2	196	2	2	1	C	1	1	815	1	poli_8sides 13_whiteLine3.jpg	Short_b09_cut1_stereo_44KHz.wav
2	197	1	1	1	C	1	1	688	1	poli_8sides 1_whiteLine3.jpg	Short_b22_cut1_stereo_44KHz.wav
2	198	2	1	0	C	2	1	890	1	poli_8sides 13_whiteLine3.jpg	Short_b22_cut1_stereo_44KHz.wav
2	199	4	4	2	I	2	0	848	1	poli_8sides 9_whiteLine3.jpg	Short_b23_cut1_stereo_44KHz.wav
2	200	3	4	2	I	2	0	673	1	poli_8sides 5_whiteLine3.jpg	Short_b23_cut1_stereo_44KHz.wav
3	1	2	2	1	C	2	0	878	0	poli_8sides 15_whiteLine3.jpg	MediumShort_b10_cut1_MS_stereo_44KHz.wav
3	2	1	1	1	C	2	0	864	0	poli_8sides 10_whiteLine3.jpg	MediumShort_b16_cut3_MS_stereo_44KHz.wav
3	3	3	4	2	I	2	0	729	0	poli_8sides 3_whiteLine3.jpg	MediumShort_e16_cut1_stereo_44KHz.wav
3	4	4	3	2	I	2	0	903	1	poli_8sides 6_whiteLine3.jpg	MediumShort_e22_cut1_stereo_44KHz.wav
3	5	2	1	0	C	1	0	1059	0	poli_8sides 15_whiteLine3.jpg	MediumShort_b16_cut3_MS_stereo_44KHz.wav
3	6	1	2	0	C	1	0	886	0	poli_8sides 10_whiteLine3.jpg	MediumShort_b10_cut1_MS_stereo_44KHz.wav
3	7	3	3	2	I	2	0	751	1	poli_8sides 3_whiteLine3.jpg	MediumShort_e22_cut1_stereo_44KHz.wav
3	8	4	4	2	I	2	0	1197	1	poli_8sides 6_whiteLine3.jpg	MediumShort_e16_cut1_stereo_44KHz.wav
3	9	1	2	0	C	1	0	671	0	poli_8sides 10_whiteLine3.jpg	MediumShort_b10_cut1_MS_stereo_44KHz.wav
3	10	4	4	2	I	2	0	1151	0	poli_8sides 6_whiteLine3.jpg	MediumShort_e16_cut1_stereo_44KHz.wav
3	11	3	4	2	I	1	0	927	1	poli_8sides 3_whiteLine3.jpg	MediumShort_e16_cut1_stereo_44KHz.wav
3	12	2	1	0	C	1	0	861	0	poli_8sides 15_whiteLine3.jpg	MediumShort_b16_cut3_MS_stereo_44KHz.wav
3	13	4	3	2	I	1	0	841	0	poli_8sides 6_whiteLine3.jpg	MediumShort_e22_cut1_stereo_44KHz.wav
3	14	1	1	1	C	1	1	1014	1	poli_8sides 10_whiteLine3.jpg	MediumShort_b16_cut3_MS_stereo_44KHz.wav
3	15	3	3	2	I	2	0	723	1	poli_8sides 3_whiteLine3.jpg	MediumShort_e22_cut1_stereo_44KHz.wav
3	16	2	2	1	C	1	1	946	1	poli_8sides 15_whiteLine3.jpg	MediumShort_b10_cut1_MS_stereo_44KHz.wav
3	17	4	3	2	I	1	0	806	0	poli_8sides 6_whiteLine3.jpg	MediumShort_e22_cut1_stereo_44KHz.wav
3	18	3	4	2	I	1	0	793	0	poli_8sides 3_whiteLine3.jpg	MediumShort_e16_cut1_stereo_44KHz.wav
3	19	2	1	0	C	2	1	992	1	poli_8sides 15_whiteLine3.jpg	MediumShort_b16_cut3_MS_stereo_44KHz.wav
3	20	1	2	0	C	2	1	740	1	poli_8sides 10_whiteLine3.jpg	MediumShort_b10_cut1_MS_stereo_44KHz.wav
3	21	2	2	1	C	1	1	777	1	poli_8sides 15_whiteLine3.jpg	MediumShort_b10_cut1_MS_stereo_44KHz.wav
3	22	4	4	2	I	1	0	702	0	poli_8sides 6_whiteLine3.jpg	MediumShort_e16_cut1_stereo_44KHz.wav
3	23	1	1	1	C	2	0	1001	0	poli_8sides 10_whiteLine3.jpg	MediumShort_b16_cut3_MS_stereo_44KHz.wav
3	24	3	3	2	I	2	0	894	0	poli_8sides 3_whiteLine3.jpg	MediumShort_e22_cut1_stereo_44KHz.wav
3	25	4	4	2	I	1	0	807	1	poli_8sides 6_whiteLine3.jpg	MediumShort_e16_cut1_stereo_44KHz.wav
3	26	1	2	0	C	2	1	734	1	poli_8sides 10_whiteLine3.jpg	MediumShort_b10_cut1_MS_stereo_44KHz.wav
3	27	2	2	1	C	1	1	657	1	poli_8sides 15_whiteLine3.jpg	MediumShort_b10_cut1_MS_stereo_44KHz.wav
3	28	3	3	2	I	1	0	767	0	poli_8sides 3_whiteLine3.jpg	MediumShort_e22_cut1_stereo_44KHz.wav
3	29	2	1	0	C	2	1	693	1	poli_8sides 15_whiteLine3.jpg	MediumShort_b16_cut3_MS_stereo_44KHz.wav
3	30	3	4	2	I	1	0	844	0	poli_8sides 3_whiteLine3.jpg	MediumShort_e16_cut1_stereo_44KHz.wav
3	31	1	1	1	C	2	0	719	0	poli_8sides 10_whiteLine3.jpg	MediumShort_b16_cut3_MS_stereo_44KHz.wav
3	32	4	3	2	I	1	0	833	1	poli_8sides 6_whiteLine3.jpg	MediumShort_e22_cut1_stereo_44KHz.wav
3	33	1	1	1	C	2	0	811	0	poli_8sides 10_whiteLine3.jpg	MediumShort_b16_cut3_MS_stereo_44KHz.wav
3	34	4	3	2	I	1	0	720	1	poli_8sides 6_whiteLine3.jpg	MediumShort_e22_cut1_stereo_44KHz.wav
3	35	3	4	2	I	2	0	1032	1	poli_8sides 3_whiteLine3.jpg	MediumShort_e16_cut1_stereo_44KHz.wav
3	36	2	1	0	C	2	1	786	1	poli_8sides 15_whiteLine3.jpg	MediumShort_b16_cut3_MS_stereo_44KHz.wav
3	37	4	4	2	I	1	0	728	1	poli_8sides 6_whiteLine3.jpg	MediumShort_e16_cut1_stereo_44KHz.wav
3	38	2	2	1	C	1	1	1346	1	poli_8sides 15_whiteLine3.jpg	MediumShort_b10_cut1_MS_stereo_44KHz.wav
3	39	1	2	0	C	2	1	666	1	poli_8sides 10_whiteLine3.jpg	MediumShort_b10_cut1_MS_stereo_44KHz.wav
3	40	3	3	2	I	1	0	748	0	poli_8sides 3_whiteLine3.jpg	MediumShort_e22_cut1_stereo_44KHz.wav
3	41	2	2	1	C	1	1	914	1	poli_8sides 15_whiteLine3.jpg	MediumShort_b10_cut1_MS_stereo_44KHz.wav
3	42	4	4	2	I	2	0	801	1	poli_8sides 6_whiteLine3.jpg	MediumShort_e16_cut1_stereo_44KHz.wav
3	43	3	3	2	I	2	0	1036	1	poli_8sides 3_whiteLine3.jpg	MediumShort_e22_cut1_stereo_44KHz.wav
3	44	1	2	0	C	2	1	810	1	poli_8sides 10_whiteLine3.jpg	MediumShort_b10_cut1_MS_stereo_44KHz.wav
3	45	3	4	2	I	1	0	620	1	poli_8sides 3_whiteLine3.jpg	MediumShort_e16_cut1_stereo_44KHz.wav
3	46	2	1	0	C	2	1	816	1	poli_8sides 15_whiteLine3.jpg	MediumShort_b16_cut3_MS_stereo_44KHz.wav
3	47	1	1	1	C	1	1	709	1	poli_8sides 10_whiteLine3.jpg	MediumShort_b16_cut3_MS_stereo_44KHz.wav
3	48	4	3	2	I	1	0	882	1	poli_8sides 6_whiteLine3.jpg	MediumShort_e22_cut1_stereo_44KHz.wav
3	49	2	1	0	C	1	0	780	0	poli_8sides 15_whiteLine3.jpg	MediumShort_b16_cut3_MS_stereo_44KHz.wav
3	50	1	1	1	C	1	1	717	1	poli_8sides 10_whiteLine3.jpg	MediumShort_b16_cut3_MS_stereo_44KHz.wav
3	51	3	4	2	I	1	0	655	1	poli_8sides 3_whiteLine3.jpg	MediumShort_e16_cut1_stereo_44KHz.wav
3	52	4	3	2	I	1	0	814	0	poli_8sides 6_whiteLine3.jpg	MediumShort_e22_cut1_stereo_44KHz.wav
3	53	2	2	1	C	2	0	1101	0	poli_8sides 15_whiteLine3.jpg	MediumShort_b10_cut1_MS_stereo_44KHz.wav
3	54	4	4	2	I	1	0	586	1	poli_8sides 6_whiteLine3.jpg	MediumShort_e16_cut1_stereo_44KHz.wav
3	55	3	3	2	I	1	0	662	1	poli_8sides 3_whiteLine3.jpg	MediumShort_e22_cut1_stereo_44KHz.wav
3	56	1	2	0	C	2	1	762	1	poli_8sides 10_whiteLine3.jpg	MediumShort_b10_cut1_MS_stereo_44KHz.wav
3	57	3	3	2	I	1	0	736	0	poli_8sides 3_whiteLine3.jpg	MediumShort_e22_cut1_stereo_44KHz.wav
3	58	4	3	2	I	2	0	1015	1	poli_8sides 6_whiteLine3.jpg	MediumShort_e22_cut1_stereo_44KHz.wav
3	59	2	1	0	C	2	1	852	1	poli_8sides 15_whiteLine3.jpg	MediumShort_b16_cut3_MS_stereo_44KHz.wav
3	60	1	2	0	C	2	1	577	1	poli_8sides 10_whiteLine3.jpg	MediumShort_b10_cut1_MS_stereo_44KHz.wav
3	61	2	2	1	C	2	0	767	0	poli_8sides 15_whiteLine3.jpg	MediumShort_b10_cut1_MS_stereo_44KHz.wav
3	62	1	1	1	C	1	1	687	1	poli_8sides 10_whiteLine3.jpg	MediumShort_b16_cut3_MS_stereo_44KHz.wav
3	63	4	4	2	I	1	0	666	1	poli_8sides 6_whiteLine3.jpg	MediumShort_e16_cut1_stereo_44KHz.wav
3	64	3	4	2	I	1	0	738	0	poli_8sides 3_whiteLine3.jpg	MediumShort_e16_cut1_stereo_44KHz.wav
3	65	4	3	2	I	2	0	911	0	poli_8sides 6_whiteLine3.jpg	MediumShort_e22_cut1_stereo_44KHz.wav
3	66	2	2	1	C	2	0	729	0	poli_8sides 15_whiteLine3.jpg	MediumShort_b10_cut1_MS_stereo_44KHz.wav
3	67	3	4	2	I	1	0	648	1	poli_8sides 3_whiteLine3.jpg	MediumShort_e16_cut1_stereo_44KHz.wav
3	68	1	1	1	C	2	0	815	0	poli_8sides 10_whiteLine3.jpg	MediumShort_b16_cut3_MS_stereo_44KHz.wav
3	69	2	1	0	C	2	1	751	1	poli_8sides 15_whiteLine3.jpg	MediumShort_b16_cut3_MS_stereo_44KHz.wav
3	70	1	2	0	C	2	1	1142	1	poli_8sides 10_whiteLine3.jpg	MediumShort_b10_cut1_MS_stereo_44KHz.wav
3	71	4	4	2	I	1	0	620	1	poli_8sides 6_whiteLine3.jpg	MediumShort_e16_cut1_stereo_44KHz.wav
3	72	3	3	2	I	2	0	942	0	poli_8sides 3_whiteLine3.jpg	MediumShort_e22_cut1_stereo_44KHz.wav
3	73	4	3	2	I	1	0	825	1	poli_8sides 6_whiteLine3.jpg	MediumShort_e22_cut1_stereo_44KHz.wav
3	74	2	2	1	C	1	1	1438	1	poli_8sides 15_whiteLine3.jpg	MediumShort_b10_cut1_MS_stereo_44KHz.wav
3	75	1	1	1	C	1	1	712	1	poli_8sides 10_whiteLine3.jpg	MediumShort_b16_cut3_MS_stereo_44KHz.wav
3	76	3	4	2	I	1	0	641	1	poli_8sides 3_whiteLine3.jpg	MediumShort_e16_cut1_stereo_44KHz.wav
3	77	1	2	0	C	2	1	667	1	poli_8sides 10_whiteLine3.jpg	MediumShort_b10_cut1_MS_stereo_44KHz.wav
3	78	3	3	2	I	1	0	710	1	poli_8sides 3_whiteLine3.jpg	MediumShort_e22_cut1_stereo_44KHz.wav
3	79	4	4	2	I	1	0	874	0	poli_8sides 6_whiteLine3.jpg	MediumShort_e16_cut1_stereo_44KHz.wav
3	80	2	1	0	C	2	1	629	1	poli_8sides 15_whiteLine3.jpg	MediumShort_b16_cut3_MS_stereo_44KHz.wav
3	81	4	4	2	I	1	0	676	0	poli_8sides 6_whiteLine3.jpg	MediumShort_e16_cut1_stereo_44KHz.wav
3	82	3	3	2	I	2	0	802	1	poli_8sides 3_whiteLine3.jpg	MediumShort_e22_cut1_stereo_44KHz.wav
3	83	2	1	0	C	2	1	730	1	poli_8sides 15_whiteLine3.jpg	MediumShort_b16_cut3_MS_stereo_44KHz.wav
3	84	1	1	1	C	1	1	697	1	poli_8sides 10_whiteLine3.jpg	MediumShort_b16_cut3_MS_stereo_44KHz.wav
3	85	3	4	2	I	1	0	730	0	poli_8sides 3_whiteLine3.jpg	MediumShort_e16_cut1_stereo_44KHz.wav
3	86	2	2	1	C	1	1	685	1	poli_8sides 15_whiteLine3.jpg	MediumShort_b10_cut1_MS_stereo_44KHz.wav
3	87	1	2	0	C	1	0	750	0	poli_8sides 10_whiteLine3.jpg	MediumShort_b10_cut1_MS_stereo_44KHz.wav
3	88	4	3	2	I	1	0	692	1	poli_8sides 6_whiteLine3.jpg	MediumShort_e22_cut1_stereo_44KHz.wav
3	89	1	1	1	C	1	1	787	1	poli_8sides 10_whiteLine3.jpg	MediumShort_b16_cut3_MS_stereo_44KHz.wav
3	90	3	4	2	I	1	0	688	1	poli_8sides 3_whiteLine3.jpg	MediumShort_e16_cut1_stereo_44KHz.wav
3	91	4	3	2	I	2	0	782	1	poli_8sides 6_whiteLine3.jpg	MediumShort_e22_cut1_stereo_44KHz.wav
3	92	2	1	0	C	2	1	605	1	poli_8sides 15_whiteLine3.jpg	MediumShort_b16_cut3_MS_stereo_44KHz.wav
3	93	4	4	2	I	1	0	649	0	poli_8sides 6_whiteLine3.jpg	MediumShort_e16_cut1_stereo_44KHz.wav
3	94	1	2	0	C	2	1	734	1	poli_8sides 10_whiteLine3.jpg	MediumShort_b10_cut1_MS_stereo_44KHz.wav
3	95	2	2	1	C	1	1	749	1	poli_8sides 15_whiteLine3.jpg	MediumShort_b10_cut1_MS_stereo_44KHz.wav
3	96	3	3	2	I	1	0	850	0	poli_8sides 3_whiteLine3.jpg	MediumShort_e22_cut1_stereo_44KHz.wav
3	97	2	2	1	C	2	0	763	0	poli_8sides 15_whiteLine3.jpg	MediumShort_b10_cut1_MS_stereo_44KHz.wav
3	98	4	4	2	I	1	0	692	1	poli_8sides 6_whiteLine3.jpg	MediumShort_e16_cut1_stereo_44KHz.wav
3	99	3	4	2	I	1	0	786	1	poli_8sides 3_whiteLine3.jpg	MediumShort_e16_cut1_stereo_44KHz.wav
3	100	1	1	1	C	2	0	762	0	poli_8sides 10_whiteLine3.jpg	MediumShort_b16_cut3_MS_stereo_44KHz.wav
3	101	3	3	2	I	1	0	735	0	poli_8sides 3_whiteLine3.jpg	MediumShort_e22_cut1_stereo_44KHz.wav
3	102	2	1	0	C	2	1	802	1	poli_8sides 15_whiteLine3.jpg	MediumShort_b16_cut3_MS_stereo_44KHz.wav
3	103	4	3	2	I	1	0	686	0	poli_8sides 6_whiteLine3.jpg	MediumShort_e22_cut1_stereo_44KHz.wav
3	104	1	2	0	C	2	1	650	1	poli_8sides 10_whiteLine3.jpg	MediumShort_b10_cut1_MS_stereo_44KHz.wav
3	105	2	1	0	C	2	1	697	1	poli_8sides 15_whiteLine3.jpg	MediumShort_b16_cut3_MS_stereo_44KHz.wav
3	106	1	2	0	C	1	0	749	0	poli_8sides 10_whiteLine3.jpg	MediumShort_b10_cut1_MS_stereo_44KHz.wav
3	107	3	3	2	I	1	0	842	0	poli_8sides 3_whiteLine3.jpg	MediumShort_e22_cut1_stereo_44KHz.wav
3	108	4	3	2	I	1	0	819	1	poli_8sides 6_whiteLine3.jpg	MediumShort_e22_cut1_stereo_44KHz.wav
3	109	3	4	2	I	2	0	1073	1	poli_8sides 3_whiteLine3.jpg	MediumShort_e16_cut1_stereo_44KHz.wav
3	110	2	2	1	C	1	1	1024	1	poli_8sides 15_whiteLine3.jpg	MediumShort_b10_cut1_MS_stereo_44KHz.wav
3	111	4	4	2	I	1	0	671	1	poli_8sides 6_whiteLine3.jpg	MediumShort_e16_cut1_stereo_44KHz.wav
3	112	1	1	1	C	1	1	1103	1	poli_8sides 10_whiteLine3.jpg	MediumShort_b16_cut3_MS_stereo_44KHz.wav
3	113	4	3	2	I	1	0	750	0	poli_8sides 6_whiteLine3.jpg	MediumShort_e22_cut1_stereo_44KHz.wav
3	114	2	1	0	C	2	1	692	1	poli_8sides 15_whiteLine3.jpg	MediumShort_b16_cut3_MS_stereo_44KHz.wav
3	115	3	4	2	I	1	0	662	1	poli_8sides 3_whiteLine3.jpg	MediumShort_e16_cut1_stereo_44KHz.wav
3	116	1	1	1	C	1	1	991	1	poli_8sides 10_whiteLine3.jpg	MediumShort_b16_cut3_MS_stereo_44KHz.wav
3	117	4	4	2	I	2	0	663	0	poli_8sides 6_whiteLine3.jpg	MediumShort_e16_cut1_stereo_44KHz.wav
3	118	3	3	2	I	1	0	707	0	poli_8sides 3_whiteLine3.jpg	MediumShort_e22_cut1_stereo_44KHz.wav
3	119	1	2	0	C	2	1	1082	1	poli_8sides 10_whiteLine3.jpg	MediumShort_b10_cut1_MS_stereo_44KHz.wav
3	120	2	2	1	C	1	1	905	1	poli_8sides 15_whiteLine3.jpg	MediumShort_b10_cut1_MS_stereo_44KHz.wav
3	121	3	4	2	I	1	0	614	1	poli_8sides 3_whiteLine3.jpg	MediumShort_e16_cut1_stereo_44KHz.wav
3	122	4	4	2	I	1	0	791	1	poli_8sides 6_whiteLine3.jpg	MediumShort_e16_cut1_stereo_44KHz.wav
3	123	1	1	1	C	1	1	1091	1	poli_8sides 10_whiteLine3.jpg	MediumShort_b16_cut3_MS_stereo_44KHz.wav
3	124	2	1	0	C	2	1	645	1	poli_8sides 15_whiteLine3.jpg	MediumShort_b16_cut3_MS_stereo_44KHz.wav
3	125	4	3	2	I	1	0	670	1	poli_8sides 6_whiteLine3.jpg	MediumShort_e22_cut1_stereo_44KHz.wav
3	126	1	2	0	C	2	1	638	1	poli_8sides 10_whiteLine3.jpg	MediumShort_b10_cut1_MS_stereo_44KHz.wav
3	127	3	3	2	I	1	0	817	0	poli_8sides 3_whiteLine3.jpg	MediumShort_e22_cut1_stereo_44KHz.wav
3	128	2	2	1	C	1	1	954	1	poli_8sides 15_whiteLine3.jpg	MediumShort_b10_cut1_MS_stereo_44KHz.wav
3	129	3	4	2	I	1	0	713	0	poli_8sides 3_whiteLine3.jpg	MediumShort_e16_cut1_stereo_44KHz.wav
3	130	2	2	1	C	1	1	949	1	poli_8sides 15_whiteLine3.jpg	MediumShort_b10_cut1_MS_stereo_44KHz.wav
3	131	4	4	2	I	1	0	661	0	poli_8sides 6_whiteLine3.jpg	MediumShort_e16_cut1_stereo_44KHz.wav
3	132	1	1	1	C	2	0	601	0	poli_8sides 10_whiteLine3.jpg	MediumShort_b16_cut3_MS_stereo_44KHz.wav
3	133	3	3	2	I	1	0	780	1	poli_8sides 3_whiteLine3.jpg	MediumShort_e22_cut1_stereo_44KHz.wav
3	134	2	1	0	C	2	1	672	1	poli_8sides 15_whiteLine3.jpg	MediumShort_b16_cut3_MS_stereo_44KHz.wav
3	135	4	3	2	I	1	0	809	0	poli_8sides 6_whiteLine3.jpg	MediumShort_e22_cut1_stereo_44KHz.wav
3	136	1	2	0	C	2	1	1081	1	poli_8sides 10_whiteLine3.jpg	MediumShort_b10_cut1_MS_stereo_44KHz.wav
3	137	4	4	2	I	1	0	581	0	poli_8sides 6_whiteLine3.jpg	MediumShort_e16_cut1_stereo_44KHz.wav
3	138	3	3	2	I	2	0	726	0	poli_8sides 3_whiteLine3.jpg	MediumShort_e22_cut1_stereo_44KHz.wav
3	139	1	2	0	C	1	0	1568	0	poli_8sides 10_whiteLine3.jpg	MediumShort_b10_cut1_MS_stereo_44KHz.wav
3	140	2	1	0	C	2	1	795	1	poli_8sides 15_whiteLine3.jpg	MediumShort_b16_cut3_MS_stereo_44KHz.wav
3	141	4	3	2	I	1	0	565	0	poli_8sides 6_whiteLine3.jpg	MediumShort_e22_cut1_stereo_44KHz.wav
3	142	2	2	1	C	2	0	810	0	poli_8sides 15_whiteLine3.jpg	MediumShort_b10_cut1_MS_stereo_44KHz.wav
3	143	3	4	2	I	1	0	676	1	poli_8sides 3_whiteLine3.jpg	MediumShort_e16_cut1_stereo_44KHz.wav
3	144	1	1	1	C	1	1	768	1	poli_8sides 10_whiteLine3.jpg	MediumShort_b16_cut3_MS_stereo_44KHz.wav
3	145	2	1	0	C	2	1	487	1	poli_8sides 15_whiteLine3.jpg	MediumShort_b16_cut3_MS_stereo_44KHz.wav
3	146	3	4	2	I	1	0	696	1	poli_8sides 3_whiteLine3.jpg	MediumShort_e16_cut1_stereo_44KHz.wav
3	147	4	3	2	I	1	0	924	1	poli_8sides 6_whiteLine3.jpg	MediumShort_e22_cut1_stereo_44KHz.wav
3	148	1	2	0	C	2	1	701	1	poli_8sides 10_whiteLine3.jpg	MediumShort_b10_cut1_MS_stereo_44KHz.wav
3	149	3	3	2	I	1	0	644	0	poli_8sides 3_whiteLine3.jpg	MediumShort_e22_cut1_stereo_44KHz.wav
3	150	1	1	1	C	1	1	812	1	poli_8sides 10_whiteLine3.jpg	MediumShort_b16_cut3_MS_stereo_44KHz.wav
3	151	2	2	1	C	1	1	1020	1	poli_8sides 15_whiteLine3.jpg	MediumShort_b10_cut1_MS_stereo_44KHz.wav
3	152	4	4	2	I	1	0	736	0	poli_8sides 6_whiteLine3.jpg	MediumShort_e16_cut1_stereo_44KHz.wav
3	153	1	1	1	C	2	0	1142	0	poli_8sides 10_whiteLine3.jpg	MediumShort_b16_cut3_MS_stereo_44KHz.wav
3	154	2	1	0	C	2	1	714	1	poli_8sides 15_whiteLine3.jpg	MediumShort_b16_cut3_MS_stereo_44KHz.wav
3	155	3	4	2	I	1	0	579	0	poli_8sides 3_whiteLine3.jpg	MediumShort_e16_cut1_stereo_44KHz.wav
3	156	4	3	2	I	1	0	760	0	poli_8sides 6_whiteLine3.jpg	MediumShort_e22_cut1_stereo_44KHz.wav
3	157	1	2	0	C	2	1	857	1	poli_8sides 10_whiteLine3.jpg	MediumShort_b10_cut1_MS_stereo_44KHz.wav
3	158	2	2	1	C	1	1	675	1	poli_8sides 15_whiteLine3.jpg	MediumShort_b10_cut1_MS_stereo_44KHz.wav
3	159	3	3	2	I	1	0	614	1	poli_8sides 3_whiteLine3.jpg	MediumShort_e22_cut1_stereo_44KHz.wav
3	160	4	4	2	I	1	0	764	0	poli_8sides 6_whiteLine3.jpg	MediumShort_e16_cut1_stereo_44KHz.wav
3	161	3	3	2	I	2	0	1291	0	poli_8sides 3_whiteLine3.jpg	MediumShort_e22_cut1_stereo_44KHz.wav
3	162	2	2	1	C	1	1	955	1	poli_8sides 15_whiteLine3.jpg	MediumShort_b10_cut1_MS_stereo_44KHz.wav
3	163	1	1	1	C	1	1	747	1	poli_8sides 10_whiteLine3.jpg	MediumShort_b16_cut3_MS_stereo_44KHz.wav
3	164	4	4	2	I	1	0	687	1	poli_8sides 6_whiteLine3.jpg	MediumShort_e16_cut1_stereo_44KHz.wav
3	165	3	4	2	I	2	0	750	1	poli_8sides 3_whiteLine3.jpg	MediumShort_e16_cut1_stereo_44KHz.wav
3	166	2	1	0	C	1	0	1379	0	poli_8sides 15_whiteLine3.jpg	MediumShort_b16_cut3_MS_stereo_44KHz.wav
3	167	1	2	0	C	1	0	842	0	poli_8sides 10_whiteLine3.jpg	MediumShort_b10_cut1_MS_stereo_44KHz.wav
3	168	4	3	2	I	1	0	698	0	poli_8sides 6_whiteLine3.jpg	MediumShort_e22_cut1_stereo_44KHz.wav
3	169	2	1	0	C	2	1	989	1	poli_8sides 15_whiteLine3.jpg	MediumShort_b16_cut3_MS_stereo_44KHz.wav
3	170	1	1	1	C	1	1	627	1	poli_8sides 10_whiteLine3.jpg	MediumShort_b16_cut3_MS_stereo_44KHz.wav
3	171	4	3	2	I	1	0	755	0	poli_8sides 6_whiteLine3.jpg	MediumShort_e22_cut1_stereo_44KHz.wav
3	172	3	3	2	I	1	0	680	0	poli_8sides 3_whiteLine3.jpg	MediumShort_e22_cut1_stereo_44KHz.wav
3	173	4	4	2	I	2	0	758	0	poli_8sides 6_whiteLine3.jpg	MediumShort_e16_cut1_stereo_44KHz.wav
3	174	2	2	1	C	2	0	834	0	poli_8sides 15_whiteLine3.jpg	MediumShort_b10_cut1_MS_stereo_44KHz.wav
3	175	1	2	0	C	2	1	580	1	poli_8sides 10_whiteLine3.jpg	MediumShort_b10_cut1_MS_stereo_44KHz.wav
3	176	3	4	2	I	1	0	625	1	poli_8sides 3_whiteLine3.jpg	MediumShort_e16_cut1_stereo_44KHz.wav
3	177	1	1	1	C	1	1	908	1	poli_8sides 10_whiteLine3.jpg	MediumShort_b16_cut3_MS_stereo_44KHz.wav
3	178	4	4	2	I	1	0	673	0	poli_8sides 6_whiteLine3.jpg	MediumShort_e16_cut1_stereo_44KHz.wav
3	179	3	4	2	I	2	0	874	0	poli_8sides 3_whiteLine3.jpg	MediumShort_e16_cut1_stereo_44KHz.wav
3	180	2	2	1	C	2	0	629	0	poli_8sides 15_whiteLine3.jpg	MediumShort_b10_cut1_MS_stereo_44KHz.wav
3	181	4	3	2	I	1	0	681	1	poli_8sides 6_whiteLine3.jpg	MediumShort_e22_cut1_stereo_44KHz.wav
3	182	1	2	0	C	2	1	932	1	poli_8sides 10_whiteLine3.jpg	MediumShort_b10_cut1_MS_stereo_44KHz.wav
3	183	3	3	2	I	1	0	627	1	poli_8sides 3_whiteLine3.jpg	MediumShort_e22_cut1_stereo_44KHz.wav
3	184	2	1	0	C	2	1	638	1	poli_8sides 15_whiteLine3.jpg	MediumShort_b16_cut3_MS_stereo_44KHz.wav
3	185	1	1	1	C	1	1	663	1	poli_8sides 10_whiteLine3.jpg	MediumShort_b16_cut3_MS_stereo_44KHz.wav
3	186	2	1	0	C	2	1	646	1	poli_8sides 15_whiteLine3.jpg	MediumShort_b16_cut3_MS_stereo_44KHz.wav
3	187	3	3	2	I	1	0	623	0	poli_8sides 3_whiteLine3.jpg	MediumShort_e22_cut1_stereo_44KHz.wav
3	188	4	3	2	I	2	0	657	0	poli_8sides 6_whiteLine3.jpg	MediumShort_e22_cut1_stereo_44KHz.wav
3	189	3	4	2	I	1	0	615	0	poli_8sides 3_whiteLine3.jpg	MediumShort_e16_cut1_stereo_44KHz.wav
3	190	1	2	0	C	2	1	1038	1	poli_8sides 10_whiteLine3.jpg	MediumShort_b10_cut1_MS_stereo_44KHz.wav
3	191	4	4	2	I	1	0	554	1	poli_8sides 6_whiteLine3.jpg	MediumShort_e16_cut1_stereo_44KHz.wav
3	192	2	2	1	C	1	1	717	1	poli_8sides 15_whiteLine3.jpg	MediumShort_b10_cut1_MS_stereo_44KHz.wav
3	193	1	2	0	C	2	1	751	1	poli_8sides 10_whiteLine3.jpg	MediumShort_b10_cut1_MS_stereo_44KHz.wav
3	194	2	2	1	C	1	1	677	1	poli_8sides 15_whiteLine3.jpg	MediumShort_b10_cut1_MS_stereo_44KHz.wav
3	195	3	4	2	I	1	0	781	0	poli_8sides 3_whiteLine3.jpg	MediumShort_e16_cut1_stereo_44KHz.wav
3	196	4	3	2	I	1	0	588	0	poli_8sides 6_whiteLine3.jpg	MediumShort_e22_cut1_stereo_44KHz.wav
3	197	3	3	2	I	2	0	740	1	poli_8sides 3_whiteLine3.jpg	MediumShort_e22_cut1_stereo_44KHz.wav
3	198	1	1	1	C	2	0	995	0	poli_8sides 10_whiteLine3.jpg	MediumShort_b16_cut3_MS_stereo_44KHz.wav
3	199	4	4	2	I	1	0	595	1	poli_8sides 6_whiteLine3.jpg	MediumShort_e16_cut1_stereo_44KHz.wav
3	200	2	1	0	C	2	1	598	1	poli_8sides 15_whiteLine3.jpg	MediumShort_b16_cut3_MS_stereo_44KHz.wav
4	1	4	4	2	I	2	0	959	0	poli_8sides 11_whiteLine3.jpg	Medium_e01_cut1_stereo_44KHz.wav
4	2	3	3	2	I	1	0	846	1	poli_8sides 8_whiteLine3.jpg	MediumLong_e17_cut2_stereo_44KHz.wav
4	3	2	1	0	C	1	0	665	0	poli_8sides 4_whiteLine3.jpg	Medium_e13_stereo_44KHz.wav
4	4	1	2	0	C	2	1	601	1	poli_8sides 2_whiteLine3.jpg	Medium_e26_stereo_44KHz.wav
4	5	3	4	2	I	2	0	696	0	poli_8sides 8_whiteLine3.jpg	Medium_e01_cut1_stereo_44KHz.wav
4	6	1	1	1	C	2	0	828	0	poli_8sides 2_whiteLine3.jpg	Medium_e13_stereo_44KHz.wav
4	7	4	3	2	I	2	0	806	1	poli_8sides 11_whiteLine3.jpg	MediumLong_e17_cut2_stereo_44KHz.wav
4	8	2	2	1	C	1	1	724	1	poli_8sides 4_whiteLine3.jpg	Medium_e26_stereo_44KHz.wav
4	9	1	2	0	C	1	0	958	0	poli_8sides 2_whiteLine3.jpg	Medium_e26_stereo_44KHz.wav
4	10	3	4	2	I	1	0	748	1	poli_8sides 8_whiteLine3.jpg	Medium_e01_cut1_stereo_44KHz.wav
4	11	2	2	1	C	1	1	792	1	poli_8sides 4_whiteLine3.jpg	Medium_e26_stereo_44KHz.wav
4	12	4	4	2	I	1	0	1131	1	poli_8sides 11_whiteLine3.jpg	Medium_e01_cut1_stereo_44KHz.wav
4	13	3	3	2	I	1	0	902	0	poli_8sides 8_whiteLine3.jpg	MediumLong_e17_cut2_stereo_44KHz.wav
4	14	4	3	2	I	2	0	643	1	poli_8sides 11_whiteLine3.jpg	MediumLong_e17_cut2_stereo_44KHz.wav
4	15	2	1	0	C	1	0	744	0	poli_8sides 4_whiteLine3.jpg	Medium_e13_stereo_44KHz.wav
4	16	1	1	1	C	2	0	666	0	poli_8sides 2_whiteLine3.jpg	Medium_e13_stereo_44KHz.wav
4	17	2	1	0	C	2	1	727	1	poli_8sides 4_whiteLine3.jpg	Medium_e13_stereo_44KHz.wav
4	18	1	1	1	C	2	0	693	0	poli_8sides 2_whiteLine3.jpg	Medium_e13_stereo_44KHz.wav
4	19	4	4	2	I	1	0	788	0	poli_8sides 11_whiteLine3.jpg	Medium_e01_cut1_stereo_44KHz.wav
4	20	3	3	2	I	2	0	797	0	poli_8sides 8_whiteLine3.jpg	MediumLong_e17_cut2_stereo_44KHz.wav
4	21	4	3	2	I	2	0	821	0	poli_8sides 11_whiteLine3.jpg	MediumLong_e17_cut2_stereo_44KHz.wav
4	22	3	4	2	I	2	0	771	0	poli_8sides 8_whiteLine3.jpg	Medium_e01_cut1_stereo_44KHz.wav
4	23	2	2	1	C	2	0	733	0	poli_8sides 4_whiteLine3.jpg	Medium_e26_stereo_44KHz.wav
4	24	1	2	0	C	2	1	627	1	poli_8sides 2_whiteLine3.jpg	Medium_e26_stereo_44KHz.wav
4	25	4	4	2	I	1	0	678	1	poli_8sides 11_whiteLine3.jpg	Medium_e01_cut1_stereo_44KHz.wav
4	26	1	1	1	C	1	1	683	1	poli_8sides 2_whiteLine3.jpg	Medium_e13_stereo_44KHz.wav
4	27	3	3	2	I	2	0	884	1	poli_8sides 8_whiteLine3.jpg	MediumLong_e17_cut2_stereo_44KHz.wav
4	28	2	2	1	C	1	1	736	1	poli_8sides 4_whiteLine3.jpg	Medium_e26_stereo_44KHz.wav
4	29	3	4	2	I	1	0	782	1	poli_8sides 8_whiteLine3.jpg	Medium_e01_cut1_stereo_44KHz.wav
4	30	2	1	0	C	1	0	795	0	poli_8sides 4_whiteLine3.jpg	Medium_e13_stereo_44KHz.wav
4	31	4	3	2	I	1	0	745	0	poli_8sides 11_whiteLine3.jpg	MediumLong_e17_cut2_stereo_44KHz.wav
4	32	1	2	0	C	2	1	599	1	poli_8sides 2_whiteLine3.jpg	Medium_e26_stereo_44KHz.wav
4	33	4	3	2	I	1	0	745	1	poli_8sides 11_whiteLine3.jpg	MediumLong_e17_cut2_stereo_44KHz.wav
4	34	2	2	1	C	1	1	774	1	poli_8sides 4_whiteLine3.jpg	Medium_e26_stereo_44KHz.wav
4	35	1	1	1	C	2	0	724	0	poli_8sides 2_whiteLine3.jpg	Medium_e13_stereo_44KHz.wav
4	36	3	4	2	I	1	0	615	0	poli_8sides 8_whiteLine3.jpg	Medium_e01_cut1_stereo_44KHz.wav
4	37	1	2	0	C	2	1	573	1	poli_8sides 2_whiteLine3.jpg	Medium_e26_stereo_44KHz.wav
4	38	2	1	0	C	1	0	968	0	poli_8sides 4_whiteLine3.jpg	Medium_e13_stereo_44KHz.wav
4	39	3	3	2	I	2	0	892	1	poli_8sides 8_whiteLine3.jpg	MediumLong_e17_cut2_stereo_44KHz.wav
4	40	4	4	2	I	1	0	655	1	poli_8sides 11_whiteLine3.jpg	Medium_e01_cut1_stereo_44KHz.wav
4	41	1	2	0	C	1	0	703	0	poli_8sides 2_whiteLine3.jpg	Medium_e26_stereo_44KHz.wav
4	42	2	2	1	C	1	1	752	1	poli_8sides 4_whiteLine3.jpg	Medium_e26_stereo_44KHz.wav
4	43	3	4	2	I	2	0	741	0	poli_8sides 8_whiteLine3.jpg	Medium_e01_cut1_stereo_44KHz.wav
4	44	4	4	2	I	2	0	625	1	poli_8sides 11_whiteLine3.jpg	Medium_e01_cut1_stereo_44KHz.wav
4	45	1	1	1	C	2	0	628	0	poli_8sides 2_whiteLine3.jpg	Medium_e13_stereo_44KHz.wav
4	46	2	1	0	C	1	0	573	0	poli_8sides 4_whiteLine3.jpg	Medium_e13_stereo_44KHz.wav
4	47	3	3	2	I	2	0	607	1	poli_8sides 8_whiteLine3.jpg	MediumLong_e17_cut2_stereo_44KHz.wav
4	48	4	3	2	I	2	0	628	1	poli_8sides 11_whiteLine3.jpg	MediumLong_e17_cut2_stereo_44KHz.wav
4	49	1	1	1	C	1	1	579	1	poli_8sides 2_whiteLine3.jpg	Medium_e13_stereo_44KHz.wav
4	50	2	2	1	C	2	0	532	0	poli_8sides 4_whiteLine3.jpg	Medium_e26_stereo_44KHz.wav
4	51	4	4	2	I	2	0	560	0	poli_8sides 11_whiteLine3.jpg	Medium_e01_cut1_stereo_44KHz.wav
4	52	3	4	2	I	1	0	175	1	poli_8sides 8_whiteLine3.jpg	Medium_e01_cut1_stereo_44KHz.wav
4	53	4	3	2	I	2	0	725	0	poli_8sides 11_whiteLine3.jpg	MediumLong_e17_cut2_stereo_44KHz.wav
4	54	2	1	0	C	2	1	579	1	poli_8sides 4_whiteLine3.jpg	Medium_e13_stereo_44KHz.wav
4	55	1	2	0	C	2	1	669	1	poli_8sides 2_whiteLine3.jpg	Medium_e26_stereo_44KHz.wav
4	56	3	3	2	I	2	0	968	0	poli_8sides 8_whiteLine3.jpg	MediumLong_e17_cut2_stereo_44KHz.wav
4	57	4	4	2	I	1	0	694	1	poli_8sides 11_whiteLine3.jpg	Medium_e01_cut1_stereo_44KHz.wav
4	58	3	3	2	I	2	0	843	1	poli_8sides 8_whiteLine3.jpg	MediumLong_e17_cut2_stereo_44KHz.wav
4	59	1	1	1	C	2	0	632	0	poli_8sides 2_whiteLine3.jpg	Medium_e13_stereo_44KHz.wav
4	60	2	1	0	C	1	0	688	0	poli_8sides 4_whiteLine3.jpg	Medium_e13_stereo_44KHz.wav
4	61	3	4	2	I	1	0	1116	0	poli_8sides 8_whiteLine3.jpg	Medium_e01_cut1_stereo_44KHz.wav
4	62	2	2	1	C	2	0	736	0	poli_8sides 4_whiteLine3.jpg	Medium_e26_stereo_44KHz.wav
4	63	4	3	2	I	1	0	1004	0	poli_8sides 11_whiteLine3.jpg	MediumLong_e17_cut2_stereo_44KHz.wav
4	64	1	2	0	C	2	1	491	1	poli_8sides 2_whiteLine3.jpg	Medium_e26_stereo_44KHz.wav
4	65	4	3	2	I	1	0	755	0	poli_8sides 11_whiteLine3.jpg	MediumLong_e17_cut2_stereo_44KHz.wav
4	66	3	4	2	I	2	0	548	1	poli_8sides 8_whiteLine3.jpg	Medium_e01_cut1_stereo_44KHz.wav
4	67	1	2	0	C	2	1	722	1	poli_8sides 2_whiteLine3.jpg	Medium_e26_stereo_44KHz.wav
4	68	2	2	1	C	1	1	662	1	poli_8sides 4_whiteLine3.jpg	Medium_e26_stereo_44KHz.wav
4	69	1	1	1	C	1	1	758	1	poli_8sides 2_whiteLine3.jpg	Medium_e13_stereo_44KHz.wav
4	70	3	3	2	I	1	0	750	0	poli_8sides 8_whiteLine3.jpg	MediumLong_e17_cut2_stereo_44KHz.wav
4	71	4	4	2	I	1	0	674	1	poli_8sides 11_whiteLine3.jpg	Medium_e01_cut1_stereo_44KHz.wav
4	72	2	1	0	C	1	0	674	0	poli_8sides 4_whiteLine3.jpg	Medium_e13_stereo_44KHz.wav
4	73	3	4	2	I	2	0	627	0	poli_8sides 8_whiteLine3.jpg	Medium_e01_cut1_stereo_44KHz.wav
4	74	2	2	1	C	2	0	953	0	poli_8sides 4_whiteLine3.jpg	Medium_e26_stereo_44KHz.wav
4	75	1	1	1	C	2	0	855	0	poli_8sides 2_whiteLine3.jpg	Medium_e13_stereo_44KHz.wav
4	76	4	3	2	I	1	0	770	0	poli_8sides 11_whiteLine3.jpg	MediumLong_e17_cut2_stereo_44KHz.wav
4	77	2	1	0	C	2	1	496	1	poli_8sides 4_whiteLine3.jpg	Medium_e13_stereo_44KHz.wav
4	78	3	3	2	I	2	0	562	0	poli_8sides 8_whiteLine3.jpg	MediumLong_e17_cut2_stereo_44KHz.wav
4	79	1	2	0	C	2	1	606	1	poli_8sides 2_whiteLine3.jpg	Medium_e26_stereo_44KHz.wav
4	80	4	4	2	I	1	0	615	1	poli_8sides 11_whiteLine3.jpg	Medium_e01_cut1_stereo_44KHz.wav
4	81	3	4	2	I	1	0	664	0	poli_8sides 8_whiteLine3.jpg	Medium_e01_cut1_stereo_44KHz.wav
4	82	4	4	2	I	1	0	770	1	poli_8sides 11_whiteLine3.jpg	Medium_e01_cut1_stereo_44KHz.wav
4	83	1	1	1	C	2	0	859	0	poli_8sides 2_whiteLine3.jpg	Medium_e13_stereo_44KHz.wav
4	84	2	2	1	C	1	1	763	1	poli_8sides 4_whiteLine3.jpg	Medium_e26_stereo_44KHz.wav
4	85	3	3	2	I	1	0	716	1	poli_8sides 8_whiteLine3.jpg	MediumLong_e17_cut2_stereo_44KHz.wav
4	86	2	1	0	C	2	1	879	1	poli_8sides 4_whiteLine3.jpg	Medium_e13_stereo_44KHz.wav
4	87	4	3	2	I	1	0	817	1	poli_8sides 11_whiteLine3.jpg	MediumLong_e17_cut2_stereo_44KHz.wav
4	88	1	2	0	C	2	1	1185	1	poli_8sides 2_whiteLine3.jpg	Medium_e26_stereo_44KHz.wav
4	89	2	1	0	C	1	0	653	0	poli_8sides 4_whiteLine3.jpg	Medium_e13_stereo_44KHz.wav
4	90	1	2	0	C	2	1	827	1	poli_8sides 2_whiteLine3.jpg	Medium_e26_stereo_44KHz.wav
4	91	4	3	2	I	1	0	873	0	poli_8sides 11_whiteLine3.jpg	MediumLong_e17_cut2_stereo_44KHz.wav
4	92	3	4	2	I	1	0	887	1	poli_8sides 8_whiteLine3.jpg	Medium_e01_cut1_stereo_44KHz.wav
4	93	4	4	2	I	1	0	775	0	poli_8sides 11_whiteLine3.jpg	Medium_e01_cut1_stereo_44KHz.wav
4	94	3	3	2	I	1	0	871	0	poli_8sides 8_whiteLine3.jpg	MediumLong_e17_cut2_stereo_44KHz.wav
4	95	1	1	1	C	2	0	623	0	poli_8sides 2_whiteLine3.jpg	Medium_e13_stereo_44KHz.wav
4	96	2	2	1	C	2	0	609	0	poli_8sides 4_whiteLine3.jpg	Medium_e26_stereo_44KHz.wav
4	97	4	4	2	I	1	0	876	0	poli_8sides 11_whiteLine3.jpg	Medium_e01_cut1_stereo_44KHz.wav
4	98	1	2	0	C	2	1	623	1	poli_8sides 2_whiteLine3.jpg	Medium_e26_stereo_44KHz.wav
4	99	3	4	2	I	1	0	764	0	poli_8sides 8_whiteLine3.jpg	Medium_e01_cut1_stereo_44KHz.wav
4	100	2	2	1	C	1	1	1070	1	poli_8sides 4_whiteLine3.jpg	Medium_e26_stereo_44KHz.wav
4	101	3	3	2	I	1	0	747	1	poli_8sides 8_whiteLine3.jpg	MediumLong_e17_cut2_stereo_44KHz.wav
4	102	4	3	2	I	2	0	1097	1	poli_8sides 11_whiteLine3.jpg	MediumLong_e17_cut2_stereo_44KHz.wav
4	103	1	1	1	C	1	1	1359	1	poli_8sides 2_whiteLine3.jpg	Medium_e13_stereo_44KHz.wav
4	104	2	1	0	C	2	1	1040	1	poli_8sides 4_whiteLine3.jpg	Medium_e13_stereo_44KHz.wav
4	105	4	3	2	I	1	0	929	0	poli_8sides 11_whiteLine3.jpg	MediumLong_e17_cut2_stereo_44KHz.wav
4	106	1	2	0	C	1	0	870	0	poli_8sides 2_whiteLine3.jpg	Medium_e26_stereo_44KHz.wav
4	107	3	4	2	I	2	0	806	1	poli_8sides 8_whiteLine3.jpg	Medium_e01_cut1_stereo_44KHz.wav
4	108	2	2	1	C	1	1	1187	1	poli_8sides 4_whiteLine3.jpg	Medium_e26_stereo_44KHz.wav
4	109	1	1	1	C	2	0	725	0	poli_8sides 2_whiteLine3.jpg	Medium_e13_stereo_44KHz.wav
4	110	2	1	0	C	2	1	923	1	poli_8sides 4_whiteLine3.jpg	Medium_e13_stereo_44KHz.wav
4	111	3	3	2	I	1	0	1014	1	poli_8sides 8_whiteLine3.jpg	MediumLong_e17_cut2_stereo_44KHz.wav
4	112	4	4	2	I	1	0	978	0	poli_8sides 11_whiteLine3.jpg	Medium_e01_cut1_stereo_44KHz.wav
4	113	3	3	2	I	2	0	738	0	poli_8sides 8_whiteLine3.jpg	MediumLong_e17_cut2_stereo_44KHz.wav
4	114	4	3	2	I	1	0	867	1	poli_8sides 11_whiteLine3.jpg	MediumLong_e17_cut2_stereo_44KHz.wav
4	115	2	1	0	C	2	1	692	1	poli_8sides 4_whiteLine3.jpg	Medium_e13_stereo_44KHz.wav
4	116	1	1	1	C	2	0	784	0	poli_8sides 2_whiteLine3.jpg	Medium_e13_stereo_44KHz.wav
4	117	2	2	1	C	1	1	590	1	poli_8sides 4_whiteLine3.jpg	Medium_e26_stereo_44KHz.wav
4	118	1	2	0	C	2	1	586	1	poli_8sides 2_whiteLine3.jpg	Medium_e26_stereo_44KHz.wav
4	119	3	4	2	I	2	0	769	1	poli_8sides 8_whiteLine3.jpg	Medium_e01_cut1_stereo_44KHz.wav
4	120	4	4	2	I	2	0	764	0	poli_8sides 11_whiteLine3.jpg	Medium_e01_cut1_stereo_44KHz.wav
4	121	1	2	0	C	1	0	755	0	poli_8sides 2_whiteLine3.jpg	Medium_e26_stereo_44KHz.wav
4	122	2	2	1	C	1	1	778	1	poli_8sides 4_whiteLine3.jpg	Medium_e26_stereo_44KHz.wav
4	123	4	3	2	I	1	0	950	1	poli_8sides 11_whiteLine3.jpg	MediumLong_e17_cut2_stereo_44KHz.wav
4	124	3	4	2	I	2	0	750	1	poli_8sides 8_whiteLine3.jpg	Medium_e01_cut1_stereo_44KHz.wav
4	125	2	1	0	C	2	1	1155	1	poli_8sides 4_whiteLine3.jpg	Medium_e13_stereo_44KHz.wav
4	126	1	1	1	C	1	1	978	1	poli_8sides 2_whiteLine3.jpg	Medium_e13_stereo_44KHz.wav
4	127	4	4	2	I	1	0	1038	0	poli_8sides 11_whiteLine3.jpg	Medium_e01_cut1_stereo_44KHz.wav
4	128	3	3	2	I	1	0	947	0	poli_8sides 8_whiteLine3.jpg	MediumLong_e17_cut2_stereo_44KHz.wav
4	129	4	4	2	I	1	0	659	1	poli_8sides 11_whiteLine3.jpg	Medium_e01_cut1_stereo_44KHz.wav
4	130	2	2	1	C	2	0	701	0	poli_8sides 4_whiteLine3.jpg	Medium_e26_stereo_44KHz.wav
4	131	3	3	2	I	1	0	879	0	poli_8sides 8_whiteLine3.jpg	MediumLong_e17_cut2_stereo_44KHz.wav
4	132	1	1	1	C	2	0	755	0	poli_8sides 2_whiteLine3.jpg	Medium_e13_stereo_44KHz.wav
4	133	2	1	0	C	1	0	624	0	poli_8sides 4_whiteLine3.jpg	Medium_e13_stereo_44KHz.wav
4	134	3	4	2	I	2	0	829	1	poli_8sides 8_whiteLine3.jpg	Medium_e01_cut1_stereo_44KHz.wav
4	135	1	2	0	C	2	1	689	1	poli_8sides 2_whiteLine3.jpg	Medium_e26_stereo_44KHz.wav
4	136	4	3	2	I	1	0	730	0	poli_8sides 11_whiteLine3.jpg	MediumLong_e17_cut2_stereo_44KHz.wav
4	137	3	4	2	I	2	0	679	0	poli_8sides 8_whiteLine3.jpg	Medium_e01_cut1_stereo_44KHz.wav
4	138	2	2	1	C	1	1	623	1	poli_8sides 4_whiteLine3.jpg	Medium_e26_stereo_44KHz.wav
4	139	4	3	2	I	1	0	789	1	poli_8sides 11_whiteLine3.jpg	MediumLong_e17_cut2_stereo_44KHz.wav
4	140	1	1	1	C	2	0	645	0	poli_8sides 2_whiteLine3.jpg	Medium_e13_stereo_44KHz.wav
4	141	3	3	2	I	1	0	810	0	poli_8sides 8_whiteLine3.jpg	MediumLong_e17_cut2_stereo_44KHz.wav
4	142	2	1	0	C	2	1	586	1	poli_8sides 4_whiteLine3.jpg	Medium_e13_stereo_44KHz.wav
4	143	1	2	0	C	1	0	668	0	poli_8sides 2_whiteLine3.jpg	Medium_e26_stereo_44KHz.wav
4	144	4	4	2	I	2	0	698	0	poli_8sides 11_whiteLine3.jpg	Medium_e01_cut1_stereo_44KHz.wav
4	145	2	2	1	C	2	0	701	0	poli_8sides 4_whiteLine3.jpg	Medium_e26_stereo_44KHz.wav
4	146	3	4	2	I	1	0	778	1	poli_8sides 8_whiteLine3.jpg	Medium_e01_cut1_stereo_44KHz.wav
4	147	4	3	2	I	2	0	1146	0	poli_8sides 11_whiteLine3.jpg	MediumLong_e17_cut2_stereo_44KHz.wav
4	148	1	1	1	C	2	0	815	0	poli_8sides 2_whiteLine3.jpg	Medium_e13_stereo_44KHz.wav
4	149	3	3	2	I	2	0	839	1	poli_8sides 8_whiteLine3.jpg	MediumLong_e17_cut2_stereo_44KHz.wav
4	150	4	4	2	I	1	0	744	0	poli_8sides 11_whiteLine3.jpg	Medium_e01_cut1_stereo_44KHz.wav
4	151	2	1	0	C	1	0	688	0	poli_8sides 4_whiteLine3.jpg	Medium_e13_stereo_44KHz.wav
4	152	1	2	0	C	2	1	990	1	poli_8sides 2_whiteLine3.jpg	Medium_e26_stereo_44KHz.wav
4	153	2	2	1	C	1	1	776	1	poli_8sides 4_whiteLine3.jpg	Medium_e26_stereo_44KHz.wav
4	154	4	3	2	I	1	0	996	0	poli_8sides 11_whiteLine3.jpg	MediumLong_e17_cut2_stereo_44KHz.wav
4	155	1	2	0	C	2	1	902	1	poli_8sides 2_whiteLine3.jpg	Medium_e26_stereo_44KHz.wav
4	156	3	4	2	I	2	0	1035	1	poli_8sides 8_whiteLine3.jpg	Medium_e01_cut1_stereo_44KHz.wav
4	157	2	1	0	C	1	0	741	0	poli_8sides 4_whiteLine3.jpg	Medium_e13_stereo_44KHz.wav
4	158	1	1	1	C	1	1	968	1	poli_8sides 2_whiteLine3.jpg	Medium_e13_stereo_44KHz.wav
4	159	4	4	2	I	2	0	1479	1	poli_8sides 11_whiteLine3.jpg	Medium_e01_cut1_stereo_44KHz.wav
4	160	3	3	2	I	1	0	805	1	poli_8sides 8_whiteLine3.jpg	MediumLong_e17_cut2_stereo_44KHz.wav
4	161	4	3	2	I	2	0	1026	0	poli_8sides 11_whiteLine3.jpg	MediumLong_e17_cut2_stereo_44KHz.wav
4	162	3	3	2	I	1	0	732	1	poli_8sides 8_whiteLine3.jpg	MediumLong_e17_cut2_stereo_44KHz.wav
4	163	2	1	0	C	1	0	616	0	poli_8sides 4_whiteLine3.jpg	Medium_e13_stereo_44KHz.wav
4	164	1	1	1	C	2	0	868	0	poli_8sides 2_whiteLine3.jpg	Medium_e13_stereo_44KHz.wav
4	165	4	4	2	I	1	0	709	0	poli_8sides 11_whiteLine3.jpg	Medium_e01_cut1_stereo_44KHz.wav
4	166	2	2	1	C	2	0	675	0	poli_8sides 4_whiteLine3.jpg	Medium_e26_stereo_44KHz.wav
4	167	3	4	2	I	2	0	785	0	poli_8sides 8_whiteLine3.jpg	Medium_e01_cut1_stereo_44KHz.wav
4	168	1	2	0	C	2	1	893	1	poli_8sides 2_whiteLine3.jpg	Medium_e26_stereo_44KHz.wav
4	169	2	2	1	C	1	1	733	1	poli_8sides 4_whiteLine3.jpg	Medium_e26_stereo_44KHz.wav
4	170	4	4	2	I	1	0	609	1	poli_8sides 11_whiteLine3.jpg	Medium_e01_cut1_stereo_44KHz.wav
4	171	3	3	2	I	2	0	931	0	poli_8sides 8_whiteLine3.jpg	MediumLong_e17_cut2_stereo_44KHz.wav
4	172	1	2	0	C	2	1	821	1	poli_8sides 2_whiteLine3.jpg	Medium_e26_stereo_44KHz.wav
4	173	2	1	0	C	2	1	925	1	poli_8sides 4_whiteLine3.jpg	Medium_e13_stereo_44KHz.wav
4	174	3	4	2	I	2	0	760	0	poli_8sides 8_whiteLine3.jpg	Medium_e01_cut1_stereo_44KHz.wav
4	175	4	3	2	I	2	0	902	0	poli_8sides 11_whiteLine3.jpg	MediumLong_e17_cut2_stereo_44KHz.wav
4	176	1	1	1	C	2	0	962	0	poli_8sides 2_whiteLine3.jpg	Medium_e13_stereo_44KHz.wav
4	177	3	3	2	I	2	0	1015	0	poli_8sides 8_whiteLine3.jpg	MediumLong_e17_cut2_stereo_44KHz.wav
4	178	4	4	2	I	1	0	559	0	poli_8sides 11_whiteLine3.jpg	Medium_e01_cut1_stereo_44KHz.wav
4	179	1	1	1	C	1	1	907	1	poli_8sides 2_whiteLine3.jpg	Medium_e13_stereo_44KHz.wav
4	180	2	2	1	C	2	0	739	0	poli_8sides 4_whiteLine3.jpg	Medium_e26_stereo_44KHz.wav
4	181	4	3	2	I	2	0	765	1	poli_8sides 11_whiteLine3.jpg	MediumLong_e17_cut2_stereo_44KHz.wav
4	182	3	4	2	I	1	0	722	1	poli_8sides 8_whiteLine3.jpg	Medium_e01_cut1_stereo_44KHz.wav
4	183	1	2	0	C	1	0	1112	0	poli_8sides 2_whiteLine3.jpg	Medium_e26_stereo_44KHz.wav
4	184	2	1	0	C	2	1	859	1	poli_8sides 4_whiteLine3.jpg	Medium_e13_stereo_44KHz.wav
4	185	3	4	2	I	1	0	567	0	poli_8sides 8_whiteLine3.jpg	Medium_e01_cut1_stereo_44KHz.wav
4	186	2	1	0	C	2	1	558	1	poli_8sides 4_whiteLine3.jpg	Medium_e13_stereo_44KHz.wav
4	187	1	2	0	C	2	1	737	1	poli_8sides 2_whiteLine3.jpg	Medium_e26_stereo_44KHz.wav
4	188	4	3	2	I	1	0	734	1	poli_8sides 11_whiteLine3.jpg	MediumLong_e17_cut2_stereo_44KHz.wav
4	189	2	2	1	C	2	0	607	0	poli_8sides 4_whiteLine3.jpg	Medium_e26_stereo_44KHz.wav
4	190	4	4	2	I	1	0	659	1	poli_8sides 11_whiteLine3.jpg	Medium_e01_cut1_stereo_44KHz.wav
4	191	1	1	1	C	2	0	550	0	poli_8sides 2_whiteLine3.jpg	Medium_e13_stereo_44KHz.wav
4	192	3	3	2	I	1	0	746	0	poli_8sides 8_whiteLine3.jpg	MediumLong_e17_cut2_stereo_44KHz.wav
4	193	4	4	2	I	2	0	544	1	poli_8sides 11_whiteLine3.jpg	Medium_e01_cut1_stereo_44KHz.wav
4	194	3	3	2	I	2	0	907	1	poli_8sides 8_whiteLine3.jpg	MediumLong_e17_cut2_stereo_44KHz.wav
4	195	1	2	0	C	2	1	1328	1	poli_8sides 2_whiteLine3.jpg	Medium_e26_stereo_44KHz.wav
4	196	2	1	0	C	1	0	752	0	poli_8sides 4_whiteLine3.jpg	Medium_e13_stereo_44KHz.wav
4	197	4	3	2	I	2	0	712	1	poli_8sides 11_whiteLine3.jpg	MediumLong_e17_cut2_stereo_44KHz.wav
4	198	2	2	1	C	1	1	713	1	poli_8sides 4_whiteLine3.jpg	Medium_e26_stereo_44KHz.wav
4	199	3	4	2	I	2	0	933	1	poli_8sides 8_whiteLine3.jpg	Medium_e01_cut1_stereo_44KHz.wav
4	200	1	1	1	C	1	1	1223	1	poli_8sides 2_whiteLine3.jpg	Medium_e13_stereo_44KHz.wav
