block	trial	Vstim	Astim	match	C/I	resp	result	RT	fb	V-file	A-file
LR

0	1	2	4	0	C	0	0	0	0	Ⴋ	cut_eeuw_stereo_44KHz.wav
0	2	2	3	1	C	2	1	997	1	Ⴋ	cut_g_stereo_44KHz.wav
0	3	1	2	0	C	1	1	1503	1	Ⴞ	cut_oo_stereo_44KHz.wav
0	4	1	1	1	C	2	1	1003	1	Ⴞ	cut_ee_stereo_44KHz.wav
0	5	2	4	0	C	1	1	780	1	Ⴋ	cut_eeuw_stereo_44KHz.wav
0	6	1	2	0	C	1	1	814	1	Ⴞ	cut_oo_stereo_44KHz.wav
0	7	2	3	1	C	2	1	958	1	Ⴋ	cut_g_stereo_44KHz.wav
0	8	1	1	1	C	1	0	581	0	Ⴞ	cut_ee_stereo_44KHz.wav
0	9	2	3	1	C	2	1	823	1	Ⴋ	cut_g_stereo_44KHz.wav
0	10	1	2	0	C	1	1	838	1	Ⴞ	cut_oo_stereo_44KHz.wav
0	11	1	1	1	C	2	1	792	1	Ⴞ	cut_ee_stereo_44KHz.wav
0	12	2	4	0	C	1	1	438	1	Ⴋ	cut_eeuw_stereo_44KHz.wav
0	13	2	4	0	C	1	1	760	1	Ⴋ	cut_eeuw_stereo_44KHz.wav
0	14	2	3	1	C	2	1	609	1	Ⴋ	cut_g_stereo_44KHz.wav
0	15	1	1	1	C	1	0	561	0	Ⴞ	cut_ee_stereo_44KHz.wav
0	16	1	2	0	C	1	1	716	1	Ⴞ	cut_oo_stereo_44KHz.wav
0	17	2	3	1	C	2	1	981	1	Ⴋ	cut_g_stereo_44KHz.wav
0	18	1	2	0	C	1	1	727	1	Ⴞ	cut_oo_stereo_44KHz.wav
0	19	2	4	0	C	1	1	562	1	Ⴋ	cut_eeuw_stereo_44KHz.wav
0	20	1	1	1	C	2	1	691	1	Ⴞ	cut_ee_stereo_44KHz.wav
0	21	2	3	1	C	2	1	1079	1	Ⴋ	cut_g_stereo_44KHz.wav
0	22	1	2	0	C	1	1	691	1	Ⴞ	cut_oo_stereo_44KHz.wav
0	23	1	1	1	C	2	1	612	1	Ⴞ	cut_ee_stereo_44KHz.wav
0	24	2	4	0	C	1	1	576	1	Ⴋ	cut_eeuw_stereo_44KHz.wav
0	25	1	1	1	C	2	1	814	1	Ⴞ	cut_ee_stereo_44KHz.wav
0	26	2	3	1	C	2	1	842	1	Ⴋ	cut_g_stereo_44KHz.wav
0	27	2	4	0	C	1	1	716	1	Ⴋ	cut_eeuw_stereo_44KHz.wav
0	28	1	2	0	C	1	1	512	1	Ⴞ	cut_oo_stereo_44KHz.wav
0	29	2	3	1	C	2	1	702	1	Ⴋ	cut_g_stereo_44KHz.wav
0	30	1	1	1	C	2	1	759	1	Ⴞ	cut_ee_stereo_44KHz.wav
avg_resp = 789
1	1	3	3	2	I	1	0	1685	1	Ⴉ	cut_k_stereo_44KHz.wav
1	2	2	2	1	C	1	0	971	0	Ⴖ	cut_u_stereo_44KHz.wav
1	3	4	3	2	I	2	0	803	0	Ⴔ	cut_k_stereo_44KHz.wav
1	4	1	1	1	C	0	0	0	0	Ⴌ	cut_a_stereo_44KHz.wav
1	5	4	4	2	I	2	0	1151	0	Ⴔ	cut_o_stereo_44KHz.wav
1	6	3	4	2	I	2	0	923	0	Ⴉ	cut_o_stereo_44KHz.wav
1	7	1	2	0	C	2	0	1085	0	Ⴌ	cut_u_stereo_44KHz.wav
1	8	2	1	0	C	1	1	1064	1	Ⴖ	cut_a_stereo_44KHz.wav
1	9	3	3	2	I	1	0	847	0	Ⴉ	cut_k_stereo_44KHz.wav
1	10	2	2	1	C	1	0	987	0	Ⴖ	cut_u_stereo_44KHz.wav
1	11	4	4	2	I	1	0	1063	0	Ⴔ	cut_o_stereo_44KHz.wav
1	12	1	2	0	C	2	0	1160	0	Ⴌ	cut_u_stereo_44KHz.wav
1	13	4	3	2	I	1	0	818	1	Ⴔ	cut_k_stereo_44KHz.wav
1	14	3	4	2	I	1	0	931	1	Ⴉ	cut_o_stereo_44KHz.wav
1	15	2	1	0	C	1	1	1151	1	Ⴖ	cut_a_stereo_44KHz.wav
1	16	1	1	1	C	2	1	655	1	Ⴌ	cut_a_stereo_44KHz.wav
1	17	4	3	2	I	1	0	819	0	Ⴔ	cut_k_stereo_44KHz.wav
1	18	2	2	1	C	2	1	1055	1	Ⴖ	cut_u_stereo_44KHz.wav
1	19	1	1	1	C	2	1	605	1	Ⴌ	cut_a_stereo_44KHz.wav
1	20	3	4	2	I	2	0	928	1	Ⴉ	cut_o_stereo_44KHz.wav
1	21	1	2	0	C	2	0	831	0	Ⴌ	cut_u_stereo_44KHz.wav
1	22	2	1	0	C	1	1	1062	1	Ⴖ	cut_a_stereo_44KHz.wav
1	23	4	4	2	I	1	0	1134	1	Ⴔ	cut_o_stereo_44KHz.wav
1	24	3	3	2	I	1	0	465	0	Ⴉ	cut_k_stereo_44KHz.wav
1	25	1	2	0	C	1	1	1082	1	Ⴌ	cut_u_stereo_44KHz.wav
1	26	3	4	2	I	2	0	1287	1	Ⴉ	cut_o_stereo_44KHz.wav
1	27	2	2	1	C	2	1	862	1	Ⴖ	cut_u_stereo_44KHz.wav
1	28	4	4	2	I	1	0	962	1	Ⴔ	cut_o_stereo_44KHz.wav
1	29	3	3	2	I	1	0	1537	0	Ⴉ	cut_k_stereo_44KHz.wav
1	30	1	1	1	C	2	1	1170	1	Ⴌ	cut_a_stereo_44KHz.wav
1	31	4	3	2	I	1	0	1528	1	Ⴔ	cut_k_stereo_44KHz.wav
1	32	2	1	0	C	1	1	728	1	Ⴖ	cut_a_stereo_44KHz.wav
1	33	3	4	2	I	0	0	0	0	Ⴉ	cut_o_stereo_44KHz.wav
1	34	1	2	0	C	1	1	1866	1	Ⴌ	cut_u_stereo_44KHz.wav
1	35	4	4	2	I	1	0	859	0	Ⴔ	cut_o_stereo_44KHz.wav
1	36	2	1	0	C	1	1	671	1	Ⴖ	cut_a_stereo_44KHz.wav
1	37	4	3	2	I	1	0	877	1	Ⴔ	cut_k_stereo_44KHz.wav
1	38	1	1	1	C	1	0	798	0	Ⴌ	cut_a_stereo_44KHz.wav
1	39	3	3	2	I	1	0	804	1	Ⴉ	cut_k_stereo_44KHz.wav
1	40	2	2	1	C	2	1	856	1	Ⴖ	cut_u_stereo_44KHz.wav
1	41	1	2	0	C	1	1	846	1	Ⴌ	cut_u_stereo_44KHz.wav
1	42	2	2	1	C	2	1	577	1	Ⴖ	cut_u_stereo_44KHz.wav
1	43	4	4	2	I	1	0	1095	0	Ⴔ	cut_o_stereo_44KHz.wav
1	44	3	3	2	I	1	0	699	1	Ⴉ	cut_k_stereo_44KHz.wav
1	45	4	3	2	I	1	0	1171	1	Ⴔ	cut_k_stereo_44KHz.wav
1	46	3	4	2	I	2	0	1614	1	Ⴉ	cut_o_stereo_44KHz.wav
1	47	2	1	0	C	1	1	770	1	Ⴖ	cut_a_stereo_44KHz.wav
1	48	1	1	1	C	2	1	796	1	Ⴌ	cut_a_stereo_44KHz.wav
1	49	4	3	2	I	1	0	760	0	Ⴔ	cut_k_stereo_44KHz.wav
1	50	3	3	2	I	2	0	1061	1	Ⴉ	cut_k_stereo_44KHz.wav
1	51	1	1	1	C	2	1	1119	1	Ⴌ	cut_a_stereo_44KHz.wav
1	52	2	2	1	C	2	1	687	1	Ⴖ	cut_u_stereo_44KHz.wav
1	53	3	4	2	I	2	0	1312	0	Ⴉ	cut_o_stereo_44KHz.wav
1	54	2	1	0	C	1	1	835	1	Ⴖ	cut_a_stereo_44KHz.wav
1	55	1	2	0	C	1	1	1236	1	Ⴌ	cut_u_stereo_44KHz.wav
1	56	4	4	2	I	2	0	1323	1	Ⴔ	cut_o_stereo_44KHz.wav
1	57	2	1	0	C	1	1	659	1	Ⴖ	cut_a_stereo_44KHz.wav
1	58	3	4	2	I	1	0	1631	0	Ⴉ	cut_o_stereo_44KHz.wav
1	59	4	3	2	I	2	0	1511	1	Ⴔ	cut_k_stereo_44KHz.wav
1	60	1	2	0	C	1	1	974	1	Ⴌ	cut_u_stereo_44KHz.wav
1	61	3	3	2	I	2	0	1344	0	Ⴉ	cut_k_stereo_44KHz.wav
1	62	2	2	1	C	2	1	808	1	Ⴖ	cut_u_stereo_44KHz.wav
1	63	1	1	1	C	2	1	933	1	Ⴌ	cut_a_stereo_44KHz.wav
1	64	4	4	2	I	2	0	1509	1	Ⴔ	cut_o_stereo_44KHz.wav
1	65	1	1	1	C	2	1	1041	1	Ⴌ	cut_a_stereo_44KHz.wav
1	66	2	1	0	C	1	1	506	1	Ⴖ	cut_a_stereo_44KHz.wav
1	67	3	4	2	I	2	0	1577	0	Ⴉ	cut_o_stereo_44KHz.wav
1	68	4	3	2	I	2	0	1482	0	Ⴔ	cut_k_stereo_44KHz.wav
1	69	1	2	0	C	1	1	1092	1	Ⴌ	cut_u_stereo_44KHz.wav
1	70	4	4	2	I	1	0	1133	1	Ⴔ	cut_o_stereo_44KHz.wav
1	71	2	2	1	C	2	1	687	1	Ⴖ	cut_u_stereo_44KHz.wav
1	72	3	3	2	I	1	0	959	0	Ⴉ	cut_k_stereo_44KHz.wav
1	73	4	3	2	I	1	0	656	1	Ⴔ	cut_k_stereo_44KHz.wav
1	74	2	1	0	C	1	1	1141	1	Ⴖ	cut_a_stereo_44KHz.wav
1	75	1	2	0	C	1	1	746	1	Ⴌ	cut_u_stereo_44KHz.wav
1	76	3	3	2	I	2	0	1442	1	Ⴉ	cut_k_stereo_44KHz.wav
1	77	2	2	1	C	2	1	1359	1	Ⴖ	cut_u_stereo_44KHz.wav
1	78	3	4	2	I	1	0	1415	1	Ⴉ	cut_o_stereo_44KHz.wav
1	79	4	4	2	I	2	0	1497	0	Ⴔ	cut_o_stereo_44KHz.wav
1	80	1	1	1	C	2	1	1380	1	Ⴌ	cut_a_stereo_44KHz.wav
1	81	2	2	1	C	2	1	1367	1	Ⴖ	cut_u_stereo_44KHz.wav
1	82	3	4	2	I	1	0	818	0	Ⴉ	cut_o_stereo_44KHz.wav
1	83	4	3	2	I	1	0	1028	1	Ⴔ	cut_k_stereo_44KHz.wav
1	84	1	2	0	C	1	1	1323	1	Ⴌ	cut_u_stereo_44KHz.wav
1	85	2	1	0	C	1	1	858	1	Ⴖ	cut_a_stereo_44KHz.wav
1	86	4	4	2	I	2	0	1542	1	Ⴔ	cut_o_stereo_44KHz.wav
1	87	1	1	1	C	2	1	877	1	Ⴌ	cut_a_stereo_44KHz.wav
1	88	3	3	2	I	2	0	1232	1	Ⴉ	cut_k_stereo_44KHz.wav
1	89	2	1	0	C	1	1	1269	1	Ⴖ	cut_a_stereo_44KHz.wav
1	90	3	4	2	I	1	0	1282	1	Ⴉ	cut_o_stereo_44KHz.wav
1	91	1	1	1	C	2	1	708	1	Ⴌ	cut_a_stereo_44KHz.wav
1	92	4	4	2	I	2	0	865	1	Ⴔ	cut_o_stereo_44KHz.wav
1	93	1	2	0	C	1	1	857	1	Ⴌ	cut_u_stereo_44KHz.wav
1	94	4	3	2	I	1	0	970	1	Ⴔ	cut_k_stereo_44KHz.wav
1	95	3	3	2	I	2	0	755	1	Ⴉ	cut_k_stereo_44KHz.wav
1	96	2	2	1	C	2	1	1249	1	Ⴖ	cut_u_stereo_44KHz.wav
1	97	4	4	2	I	2	0	1005	0	Ⴔ	cut_o_stereo_44KHz.wav
1	98	2	1	0	C	1	1	1383	1	Ⴖ	cut_a_stereo_44KHz.wav
1	99	3	3	2	I	2	0	1049	0	Ⴉ	cut_k_stereo_44KHz.wav
1	100	1	1	1	C	2	1	1462	1	Ⴌ	cut_a_stereo_44KHz.wav
1	101	4	3	2	I	1	0	1008	1	Ⴔ	cut_k_stereo_44KHz.wav
1	102	1	2	0	C	1	1	971	1	Ⴌ	cut_u_stereo_44KHz.wav
1	103	2	2	1	C	2	1	1009	1	Ⴖ	cut_u_stereo_44KHz.wav
1	104	3	4	2	I	1	0	1083	1	Ⴉ	cut_o_stereo_44KHz.wav
1	105	1	1	1	C	2	1	882	1	Ⴌ	cut_a_stereo_44KHz.wav
1	106	4	4	2	I	2	0	1120	0	Ⴔ	cut_o_stereo_44KHz.wav
1	107	3	3	2	I	2	0	995	1	Ⴉ	cut_k_stereo_44KHz.wav
1	108	2	1	0	C	1	1	1329	1	Ⴖ	cut_a_stereo_44KHz.wav
1	109	1	2	0	C	1	1	675	1	Ⴌ	cut_u_stereo_44KHz.wav
1	110	2	2	1	C	2	1	708	1	Ⴖ	cut_u_stereo_44KHz.wav
1	111	4	3	2	I	1	0	858	1	Ⴔ	cut_k_stereo_44KHz.wav
1	112	3	4	2	I	1	0	832	1	Ⴉ	cut_o_stereo_44KHz.wav
1	113	4	3	2	I	1	0	710	0	Ⴔ	cut_k_stereo_44KHz.wav
1	114	3	3	2	I	1	0	638	0	Ⴉ	cut_k_stereo_44KHz.wav
1	115	2	1	0	C	1	1	964	1	Ⴖ	cut_a_stereo_44KHz.wav
1	116	1	2	0	C	1	1	892	1	Ⴌ	cut_u_stereo_44KHz.wav
1	117	3	4	2	I	1	0	787	0	Ⴉ	cut_o_stereo_44KHz.wav
1	118	4	4	2	I	1	0	1272	1	Ⴔ	cut_o_stereo_44KHz.wav
1	119	1	1	1	C	2	1	994	1	Ⴌ	cut_a_stereo_44KHz.wav
1	120	2	2	1	C	2	1	926	1	Ⴖ	cut_u_stereo_44KHz.wav
1	121	3	4	2	I	1	0	1181	1	Ⴉ	cut_o_stereo_44KHz.wav
1	122	1	1	1	C	2	1	1560	1	Ⴌ	cut_a_stereo_44KHz.wav
1	123	2	1	0	C	1	1	609	1	Ⴖ	cut_a_stereo_44KHz.wav
1	124	4	3	2	I	1	0	830	1	Ⴔ	cut_k_stereo_44KHz.wav
1	125	3	3	2	I	1	0	1223	0	Ⴉ	cut_k_stereo_44KHz.wav
1	126	4	4	2	I	1	0	1206	0	Ⴔ	cut_o_stereo_44KHz.wav
1	127	2	2	1	C	2	1	1020	1	Ⴖ	cut_u_stereo_44KHz.wav
1	128	1	2	0	C	1	1	796	1	Ⴌ	cut_u_stereo_44KHz.wav
1	129	3	4	2	I	1	0	806	1	Ⴉ	cut_o_stereo_44KHz.wav
1	130	4	3	2	I	1	0	715	0	Ⴔ	cut_k_stereo_44KHz.wav
1	131	1	2	0	C	1	1	1066	1	Ⴌ	cut_u_stereo_44KHz.wav
1	132	2	1	0	C	1	1	578	1	Ⴖ	cut_a_stereo_44KHz.wav
1	133	3	3	2	I	2	0	1636	1	Ⴉ	cut_k_stereo_44KHz.wav
1	134	2	2	1	C	2	1	1108	1	Ⴖ	cut_u_stereo_44KHz.wav
1	135	4	4	2	I	2	0	985	1	Ⴔ	cut_o_stereo_44KHz.wav
1	136	1	1	1	C	2	1	723	1	Ⴌ	cut_a_stereo_44KHz.wav
1	137	4	4	2	I	2	0	1467	1	Ⴔ	cut_o_stereo_44KHz.wav
1	138	2	1	0	C	1	1	1271	1	Ⴖ	cut_a_stereo_44KHz.wav
1	139	1	1	1	C	2	1	846	1	Ⴌ	cut_a_stereo_44KHz.wav
1	140	3	3	2	I	1	0	904	0	Ⴉ	cut_k_stereo_44KHz.wav
1	141	4	3	2	I	1	0	709	1	Ⴔ	cut_k_stereo_44KHz.wav
1	142	1	2	0	C	1	1	842	1	Ⴌ	cut_u_stereo_44KHz.wav
1	143	3	4	2	I	2	0	1023	1	Ⴉ	cut_o_stereo_44KHz.wav
1	144	2	2	1	C	2	1	907	1	Ⴖ	cut_u_stereo_44KHz.wav
1	145	3	3	2	I	2	0	1384	1	Ⴉ	cut_k_stereo_44KHz.wav
1	146	2	1	0	C	1	1	1116	1	Ⴖ	cut_a_stereo_44KHz.wav
1	147	4	3	2	I	1	0	853	0	Ⴔ	cut_k_stereo_44KHz.wav
1	148	1	2	0	C	1	1	960	1	Ⴌ	cut_u_stereo_44KHz.wav
1	149	3	4	2	I	1	0	825	0	Ⴉ	cut_o_stereo_44KHz.wav
1	150	4	4	2	I	1	0	747	0	Ⴔ	cut_o_stereo_44KHz.wav
1	151	2	2	1	C	2	1	1102	1	Ⴖ	cut_u_stereo_44KHz.wav
1	152	1	1	1	C	2	1	910	1	Ⴌ	cut_a_stereo_44KHz.wav
1	153	3	3	2	I	2	0	1434	0	Ⴉ	cut_k_stereo_44KHz.wav
1	154	4	3	2	I	2	0	1679	0	Ⴔ	cut_k_stereo_44KHz.wav
1	155	1	1	1	C	2	1	1557	1	Ⴌ	cut_a_stereo_44KHz.wav
1	156	2	2	1	C	2	1	937	1	Ⴖ	cut_u_stereo_44KHz.wav
1	157	4	4	2	I	1	0	769	0	Ⴔ	cut_o_stereo_44KHz.wav
1	158	1	2	0	C	1	1	977	1	Ⴌ	cut_u_stereo_44KHz.wav
1	159	3	4	2	I	1	0	827	0	Ⴉ	cut_o_stereo_44KHz.wav
1	160	2	1	0	C	1	1	953	1	Ⴖ	cut_a_stereo_44KHz.wav
1	161	4	3	2	I	1	0	910	0	Ⴔ	cut_k_stereo_44KHz.wav
1	162	3	4	2	I	1	0	970	1	Ⴉ	cut_o_stereo_44KHz.wav
1	163	2	2	1	C	2	1	808	1	Ⴖ	cut_u_stereo_44KHz.wav
1	164	1	1	1	C	2	1	1369	1	Ⴌ	cut_a_stereo_44KHz.wav
1	165	4	4	2	I	1	0	972	1	Ⴔ	cut_o_stereo_44KHz.wav
1	166	1	2	0	C	1	1	1054	1	Ⴌ	cut_u_stereo_44KHz.wav
1	167	3	3	2	I	2	0	1110	0	Ⴉ	cut_k_stereo_44KHz.wav
1	168	2	1	0	C	1	1	994	1	Ⴖ	cut_a_stereo_44KHz.wav
1	169	3	4	2	I	2	0	1386	1	Ⴉ	cut_o_stereo_44KHz.wav
1	170	1	2	0	C	1	1	1090	1	Ⴌ	cut_u_stereo_44KHz.wav
1	171	4	4	2	I	2	0	1057	0	Ⴔ	cut_o_stereo_44KHz.wav
1	172	2	1	0	C	1	1	1082	1	Ⴖ	cut_a_stereo_44KHz.wav
1	173	4	3	2	I	2	0	952	1	Ⴔ	cut_k_stereo_44KHz.wav
1	174	2	2	1	C	2	1	960	1	Ⴖ	cut_u_stereo_44KHz.wav
1	175	3	3	2	I	1	0	889	0	Ⴉ	cut_k_stereo_44KHz.wav
1	176	1	1	1	C	2	1	1027	1	Ⴌ	cut_a_stereo_44KHz.wav
1	177	3	4	2	I	2	0	1437	0	Ⴉ	cut_o_stereo_44KHz.wav
1	178	2	2	1	C	2	1	1089	1	Ⴖ	cut_u_stereo_44KHz.wav
1	179	1	1	1	C	2	1	933	1	Ⴌ	cut_a_stereo_44KHz.wav
1	180	4	3	2	I	2	0	1560	0	Ⴔ	cut_k_stereo_44KHz.wav
1	181	1	2	0	C	1	1	1134	1	Ⴌ	cut_u_stereo_44KHz.wav
1	182	4	4	2	I	1	0	1484	0	Ⴔ	cut_o_stereo_44KHz.wav
1	183	2	1	0	C	1	1	1283	1	Ⴖ	cut_a_stereo_44KHz.wav
1	184	3	3	2	I	2	0	1334	1	Ⴉ	cut_k_stereo_44KHz.wav
1	185	2	2	1	C	2	1	963	1	Ⴖ	cut_u_stereo_44KHz.wav
1	186	3	3	2	I	1	0	921	1	Ⴉ	cut_k_stereo_44KHz.wav
1	187	1	1	1	C	2	1	991	1	Ⴌ	cut_a_stereo_44KHz.wav
1	188	4	4	2	I	1	0	976	0	Ⴔ	cut_o_stereo_44KHz.wav
1	189	3	4	2	I	1	0	497	0	Ⴉ	cut_o_stereo_44KHz.wav
1	190	2	1	0	C	1	1	1449	1	Ⴖ	cut_a_stereo_44KHz.wav
1	191	1	2	0	C	1	1	682	1	Ⴌ	cut_u_stereo_44KHz.wav
1	192	4	3	2	I	1	0	665	1	Ⴔ	cut_k_stereo_44KHz.wav
1	193	2	2	1	C	2	1	806	1	Ⴖ	cut_u_stereo_44KHz.wav
1	194	4	3	2	I	1	0	1542	0	Ⴔ	cut_k_stereo_44KHz.wav
1	195	1	2	0	C	1	1	698	1	Ⴌ	cut_u_stereo_44KHz.wav
1	196	3	3	2	I	1	0	873	0	Ⴉ	cut_k_stereo_44KHz.wav
1	197	4	4	2	I	1	0	1010	0	Ⴔ	cut_o_stereo_44KHz.wav
1	198	1	1	1	C	2	1	1091	1	Ⴌ	cut_a_stereo_44KHz.wav
1	199	2	1	0	C	1	1	1818	1	Ⴖ	cut_a_stereo_44KHz.wav
1	200	3	4	2	I	1	0	865	0	Ⴉ	cut_o_stereo_44KHz.wav
2	1	4	3	2	I	0	0	0	0	Ⴃ	cut_l_stereo_44KHz.wav
2	2	3	3	2	I	1	0	1156	0	Ⴂ	cut_l_stereo_44KHz.wav
2	3	1	1	1	C	1	0	1364	0	Ⴁ	cut_g_stereo_44KHz.wav
2	4	2	1	0	C	1	1	520	1	Ⴇ	cut_g_stereo_44KHz.wav
2	5	1	2	0	C	1	1	1152	1	Ⴁ	cut_w_stereo_44KHz.wav
2	6	4	4	2	I	1	0	795	1	Ⴃ	cut_h_stereo_44KHz.wav
2	7	3	4	2	I	2	0	658	0	Ⴂ	cut_h_stereo_44KHz.wav
2	8	2	2	1	C	2	1	1064	1	Ⴇ	cut_w_stereo_44KHz.wav
2	9	4	4	2	I	1	0	969	0	Ⴃ	cut_h_stereo_44KHz.wav
2	10	2	1	0	C	1	1	852	1	Ⴇ	cut_g_stereo_44KHz.wav
2	11	3	4	2	I	1	0	938	0	Ⴂ	cut_h_stereo_44KHz.wav
2	12	1	1	1	C	2	1	931	1	Ⴁ	cut_g_stereo_44KHz.wav
2	13	3	3	2	I	1	0	790	1	Ⴂ	cut_l_stereo_44KHz.wav
2	14	2	2	1	C	2	1	1053	1	Ⴇ	cut_w_stereo_44KHz.wav
2	15	4	3	2	I	1	0	967	1	Ⴃ	cut_l_stereo_44KHz.wav
2	16	1	2	0	C	2	0	1353	0	Ⴁ	cut_w_stereo_44KHz.wav
2	17	2	2	1	C	2	1	812	1	Ⴇ	cut_w_stereo_44KHz.wav
2	18	3	4	2	I	1	0	1059	1	Ⴂ	cut_h_stereo_44KHz.wav
2	19	4	3	2	I	1	0	682	1	Ⴃ	cut_l_stereo_44KHz.wav
2	20	1	2	0	C	1	1	1035	1	Ⴁ	cut_w_stereo_44KHz.wav
2	21	4	4	2	I	1	0	937	1	Ⴃ	cut_h_stereo_44KHz.wav
2	22	3	3	2	I	1	0	1016	1	Ⴂ	cut_l_stereo_44KHz.wav
2	23	1	1	1	C	2	1	1462	1	Ⴁ	cut_g_stereo_44KHz.wav
2	24	2	1	0	C	1	1	691	1	Ⴇ	cut_g_stereo_44KHz.wav
2	25	1	1	1	C	2	1	647	1	Ⴁ	cut_g_stereo_44KHz.wav
2	26	4	4	2	I	2	0	1381	0	Ⴃ	cut_h_stereo_44KHz.wav
2	27	2	1	0	C	1	1	626	1	Ⴇ	cut_g_stereo_44KHz.wav
2	28	3	3	2	I	1	0	555	0	Ⴂ	cut_l_stereo_44KHz.wav
2	29	1	2	0	C	1	1	936	1	Ⴁ	cut_w_stereo_44KHz.wav
2	30	2	2	1	C	2	1	641	1	Ⴇ	cut_w_stereo_44KHz.wav
2	31	3	4	2	I	1	0	730	0	Ⴂ	cut_h_stereo_44KHz.wav
2	32	4	3	2	I	1	0	673	1	Ⴃ	cut_l_stereo_44KHz.wav
2	33	2	1	0	C	1	1	827	1	Ⴇ	cut_g_stereo_44KHz.wav
2	34	1	2	0	C	1	1	768	1	Ⴁ	cut_w_stereo_44KHz.wav
2	35	3	3	2	I	1	0	686	1	Ⴂ	cut_l_stereo_44KHz.wav
2	36	4	4	2	I	1	0	884	1	Ⴃ	cut_h_stereo_44KHz.wav
2	37	2	2	1	C	1	0	794	0	Ⴇ	cut_w_stereo_44KHz.wav
2	38	1	1	1	C	2	1	823	1	Ⴁ	cut_g_stereo_44KHz.wav
2	39	4	3	2	I	1	0	809	0	Ⴃ	cut_l_stereo_44KHz.wav
2	40	3	4	2	I	2	0	1491	0	Ⴂ	cut_h_stereo_44KHz.wav
2	41	2	1	0	C	1	1	623	1	Ⴇ	cut_g_stereo_44KHz.wav
2	42	4	4	2	I	2	0	1085	1	Ⴃ	cut_h_stereo_44KHz.wav
2	43	1	2	0	C	1	1	869	1	Ⴁ	cut_w_stereo_44KHz.wav
2	44	3	4	2	I	1	0	778	0	Ⴂ	cut_h_stereo_44KHz.wav
2	45	2	2	1	C	2	1	808	1	Ⴇ	cut_w_stereo_44KHz.wav
2	46	4	3	2	I	2	0	1281	1	Ⴃ	cut_l_stereo_44KHz.wav
2	47	3	3	2	I	1	0	568	1	Ⴂ	cut_l_stereo_44KHz.wav
2	48	1	1	1	C	2	1	1555	1	Ⴁ	cut_g_stereo_44KHz.wav
2	49	3	3	2	I	0	0	0	0	Ⴂ	cut_l_stereo_44KHz.wav
2	50	1	2	0	C	1	1	1016	1	Ⴁ	cut_w_stereo_44KHz.wav
2	51	4	4	2	I	1	0	1746	1	Ⴃ	cut_h_stereo_44KHz.wav
2	52	2	2	1	C	2	1	977	1	Ⴇ	cut_w_stereo_44KHz.wav
2	53	4	3	2	I	2	0	1315	0	Ⴃ	cut_l_stereo_44KHz.wav
2	54	3	4	2	I	2	0	1050	1	Ⴂ	cut_h_stereo_44KHz.wav
2	55	1	1	1	C	2	1	1214	1	Ⴁ	cut_g_stereo_44KHz.wav
2	56	2	1	0	C	1	1	866	1	Ⴇ	cut_g_stereo_44KHz.wav
2	57	3	4	2	I	2	0	1124	1	Ⴂ	cut_h_stereo_44KHz.wav
2	58	1	2	0	C	1	1	1403	1	Ⴁ	cut_w_stereo_44KHz.wav
2	59	4	3	2	I	2	0	1255	0	Ⴃ	cut_l_stereo_44KHz.wav
2	60	2	2	1	C	2	1	789	1	Ⴇ	cut_w_stereo_44KHz.wav
2	61	1	1	1	C	2	1	781	1	Ⴁ	cut_g_stereo_44KHz.wav
2	62	4	4	2	I	1	0	981	0	Ⴃ	cut_h_stereo_44KHz.wav
2	63	2	1	0	C	1	1	1010	1	Ⴇ	cut_g_stereo_44KHz.wav
2	64	3	3	2	I	1	0	1306	0	Ⴂ	cut_l_stereo_44KHz.wav
2	65	1	2	0	C	1	1	894	1	Ⴁ	cut_w_stereo_44KHz.wav
2	66	2	1	0	C	1	1	633	1	Ⴇ	cut_g_stereo_44KHz.wav
2	67	3	3	2	I	1	0	689	0	Ⴂ	cut_l_stereo_44KHz.wav
2	68	4	4	2	I	2	0	1162	0	Ⴃ	cut_h_stereo_44KHz.wav
2	69	2	2	1	C	2	1	1102	1	Ⴇ	cut_w_stereo_44KHz.wav
2	70	3	4	2	I	2	0	941	0	Ⴂ	cut_h_stereo_44KHz.wav
2	71	1	1	1	C	2	1	1622	1	Ⴁ	cut_g_stereo_44KHz.wav
2	72	4	3	2	I	2	0	1748	1	Ⴃ	cut_l_stereo_44KHz.wav
2	73	1	1	1	C	2	1	1044	1	Ⴁ	cut_g_stereo_44KHz.wav
2	74	3	3	2	I	1	0	1144	1	Ⴂ	cut_l_stereo_44KHz.wav
2	75	4	4	2	I	1	0	579	0	Ⴃ	cut_h_stereo_44KHz.wav
2	76	2	1	0	C	1	1	686	1	Ⴇ	cut_g_stereo_44KHz.wav
2	77	4	3	2	I	1	0	1267	1	Ⴃ	cut_l_stereo_44KHz.wav
2	78	2	2	1	C	2	1	857	1	Ⴇ	cut_w_stereo_44KHz.wav
2	79	1	2	0	C	1	1	938	1	Ⴁ	cut_w_stereo_44KHz.wav
2	80	3	4	2	I	1	0	820	0	Ⴂ	cut_h_stereo_44KHz.wav
2	81	2	1	0	C	1	1	925	1	Ⴇ	cut_g_stereo_44KHz.wav
2	82	1	1	1	C	2	1	856	1	Ⴁ	cut_g_stereo_44KHz.wav
2	83	3	4	2	I	1	0	1034	0	Ⴂ	cut_h_stereo_44KHz.wav
2	84	4	4	2	I	1	0	536	0	Ⴃ	cut_h_stereo_44KHz.wav
2	85	2	2	1	C	2	1	785	1	Ⴇ	cut_w_stereo_44KHz.wav
2	86	4	3	2	I	2	0	1385	1	Ⴃ	cut_l_stereo_44KHz.wav
2	87	1	2	0	C	1	1	834	1	Ⴁ	cut_w_stereo_44KHz.wav
2	88	3	3	2	I	1	0	892	0	Ⴂ	cut_l_stereo_44KHz.wav
2	89	4	4	2	I	1	0	1401	0	Ⴃ	cut_h_stereo_44KHz.wav
2	90	3	3	2	I	1	0	914	0	Ⴂ	cut_l_stereo_44KHz.wav
2	91	1	2	0	C	1	1	713	1	Ⴁ	cut_w_stereo_44KHz.wav
2	92	2	2	1	C	2	1	708	1	Ⴇ	cut_w_stereo_44KHz.wav
2	93	1	1	1	C	2	1	1139	1	Ⴁ	cut_g_stereo_44KHz.wav
2	94	2	1	0	C	1	1	697	1	Ⴇ	cut_g_stereo_44KHz.wav
2	95	4	3	2	I	1	0	779	0	Ⴃ	cut_l_stereo_44KHz.wav
2	96	3	4	2	I	2	0	1118	0	Ⴂ	cut_h_stereo_44KHz.wav
2	97	4	4	2	I	1	0	776	1	Ⴃ	cut_h_stereo_44KHz.wav
2	98	1	1	1	C	2	1	1104	1	Ⴁ	cut_g_stereo_44KHz.wav
2	99	2	1	0	C	1	1	651	1	Ⴇ	cut_g_stereo_44KHz.wav
2	100	3	3	2	I	1	0	990	1	Ⴂ	cut_l_stereo_44KHz.wav
2	101	1	2	0	C	1	1	1159	1	Ⴁ	cut_w_stereo_44KHz.wav
2	102	3	4	2	I	1	0	784	1	Ⴂ	cut_h_stereo_44KHz.wav
2	103	4	3	2	I	2	0	1519	1	Ⴃ	cut_l_stereo_44KHz.wav
2	104	2	2	1	C	2	1	866	1	Ⴇ	cut_w_stereo_44KHz.wav
2	105	3	3	2	I	1	0	927	1	Ⴂ	cut_l_stereo_44KHz.wav
2	106	2	1	0	C	1	1	722	1	Ⴇ	cut_g_stereo_44KHz.wav
2	107	1	1	1	C	2	1	874	1	Ⴁ	cut_g_stereo_44KHz.wav
2	108	4	3	2	I	2	0	1171	0	Ⴃ	cut_l_stereo_44KHz.wav
2	109	1	2	0	C	1	1	907	1	Ⴁ	cut_w_stereo_44KHz.wav
2	110	3	4	2	I	1	0	1189	0	Ⴂ	cut_h_stereo_44KHz.wav
2	111	2	2	1	C	2	1	860	1	Ⴇ	cut_w_stereo_44KHz.wav
2	112	4	4	2	I	1	0	1111	0	Ⴃ	cut_h_stereo_44KHz.wav
2	113	2	2	1	C	2	1	841	1	Ⴇ	cut_w_stereo_44KHz.wav
2	114	1	1	1	C	2	1	827	1	Ⴁ	cut_g_stereo_44KHz.wav
2	115	4	4	2	I	1	0	1261	0	Ⴃ	cut_h_stereo_44KHz.wav
2	116	3	3	2	I	1	0	1151	0	Ⴂ	cut_l_stereo_44KHz.wav
2	117	1	2	0	C	1	1	868	1	Ⴁ	cut_w_stereo_44KHz.wav
2	118	3	4	2	I	2	0	1153	1	Ⴂ	cut_h_stereo_44KHz.wav
2	119	2	1	0	C	1	1	683	1	Ⴇ	cut_g_stereo_44KHz.wav
2	120	4	3	2	I	2	0	1197	0	Ⴃ	cut_l_stereo_44KHz.wav
2	121	2	2	1	C	2	1	819	1	Ⴇ	cut_w_stereo_44KHz.wav
2	122	4	3	2	I	1	0	934	1	Ⴃ	cut_l_stereo_44KHz.wav
2	123	3	4	2	I	1	0	805	0	Ⴂ	cut_h_stereo_44KHz.wav
2	124	1	2	0	C	1	1	815	1	Ⴁ	cut_w_stereo_44KHz.wav
2	125	3	3	2	I	1	0	847	0	Ⴂ	cut_l_stereo_44KHz.wav
2	126	4	4	2	I	1	0	954	0	Ⴃ	cut_h_stereo_44KHz.wav
2	127	1	1	1	C	2	1	775	1	Ⴁ	cut_g_stereo_44KHz.wav
2	128	2	1	0	C	1	1	551	1	Ⴇ	cut_g_stereo_44KHz.wav
2	129	4	4	2	I	2	0	1810	0	Ⴃ	cut_h_stereo_44KHz.wav
2	130	1	1	1	C	2	1	811	1	Ⴁ	cut_g_stereo_44KHz.wav
2	131	3	4	2	I	2	0	992	0	Ⴂ	cut_h_stereo_44KHz.wav
2	132	2	2	1	C	2	1	790	1	Ⴇ	cut_w_stereo_44KHz.wav
2	133	3	3	2	I	1	0	724	1	Ⴂ	cut_l_stereo_44KHz.wav
2	134	4	3	2	I	2	0	743	1	Ⴃ	cut_l_stereo_44KHz.wav
2	135	2	1	0	C	1	1	867	1	Ⴇ	cut_g_stereo_44KHz.wav
2	136	1	2	0	C	1	1	1056	1	Ⴁ	cut_w_stereo_44KHz.wav
2	137	4	3	2	I	1	0	983	0	Ⴃ	cut_l_stereo_44KHz.wav
2	138	3	4	2	I	2	0	1095	1	Ⴂ	cut_h_stereo_44KHz.wav
2	139	2	1	0	C	1	1	723	1	Ⴇ	cut_g_stereo_44KHz.wav
2	140	1	2	0	C	1	1	730	1	Ⴁ	cut_w_stereo_44KHz.wav
2	141	4	4	2	I	1	0	1061	1	Ⴃ	cut_h_stereo_44KHz.wav
2	142	1	1	1	C	2	1	838	1	Ⴁ	cut_g_stereo_44KHz.wav
2	143	2	2	1	C	2	1	941	1	Ⴇ	cut_w_stereo_44KHz.wav
2	144	3	3	2	I	1	0	1092	1	Ⴂ	cut_l_stereo_44KHz.wav
2	145	4	3	2	I	2	0	722	0	Ⴃ	cut_l_stereo_44KHz.wav
2	146	1	1	1	C	2	1	807	1	Ⴁ	cut_g_stereo_44KHz.wav
2	147	3	3	2	I	1	0	745	1	Ⴂ	cut_l_stereo_44KHz.wav
2	148	2	2	1	C	2	1	697	1	Ⴇ	cut_w_stereo_44KHz.wav
2	149	3	4	2	I	2	0	1100	0	Ⴂ	cut_h_stereo_44KHz.wav
2	150	1	2	0	C	1	1	861	1	Ⴁ	cut_w_stereo_44KHz.wav
2	151	4	4	2	I	1	0	855	0	Ⴃ	cut_h_stereo_44KHz.wav
2	152	2	1	0	C	1	1	855	1	Ⴇ	cut_g_stereo_44KHz.wav
2	153	4	3	2	I	1	0	893	1	Ⴃ	cut_l_stereo_44KHz.wav
2	154	1	2	0	C	1	1	761	1	Ⴁ	cut_w_stereo_44KHz.wav
2	155	3	4	2	I	1	0	758	1	Ⴂ	cut_h_stereo_44KHz.wav
2	156	2	1	0	C	1	1	713	1	Ⴇ	cut_g_stereo_44KHz.wav
2	157	1	1	1	C	2	1	862	1	Ⴁ	cut_g_stereo_44KHz.wav
2	158	2	2	1	C	2	1	915	1	Ⴇ	cut_w_stereo_44KHz.wav
2	159	4	4	2	I	2	0	1216	1	Ⴃ	cut_h_stereo_44KHz.wav
2	160	3	3	2	I	1	0	540	1	Ⴂ	cut_l_stereo_44KHz.wav
2	161	4	3	2	I	2	0	717	1	Ⴃ	cut_l_stereo_44KHz.wav
2	162	3	3	2	I	1	0	793	1	Ⴂ	cut_l_stereo_44KHz.wav
2	163	2	1	0	C	1	1	685	1	Ⴇ	cut_g_stereo_44KHz.wav
2	164	1	1	1	C	2	1	720	1	Ⴁ	cut_g_stereo_44KHz.wav
2	165	2	2	1	C	2	1	813	1	Ⴇ	cut_w_stereo_44KHz.wav
2	166	1	2	0	C	1	1	1039	1	Ⴁ	cut_w_stereo_44KHz.wav
2	167	4	4	2	I	1	0	932	1	Ⴃ	cut_h_stereo_44KHz.wav
2	168	3	4	2	I	2	0	846	0	Ⴂ	cut_h_stereo_44KHz.wav
2	169	4	3	2	I	2	0	838	1	Ⴃ	cut_l_stereo_44KHz.wav
2	170	2	1	0	C	1	1	734	1	Ⴇ	cut_g_stereo_44KHz.wav
2	171	1	2	0	C	1	1	708	1	Ⴁ	cut_w_stereo_44KHz.wav
2	172	3	3	2	I	2	0	1750	1	Ⴂ	cut_l_stereo_44KHz.wav
2	173	1	1	1	C	2	1	1075	1	Ⴁ	cut_g_stereo_44KHz.wav
2	174	2	2	1	C	2	1	1075	1	Ⴇ	cut_w_stereo_44KHz.wav
2	175	3	4	2	I	1	0	919	1	Ⴂ	cut_h_stereo_44KHz.wav
2	176	4	4	2	I	2	0	722	1	Ⴃ	cut_h_stereo_44KHz.wav
2	177	2	1	0	C	1	1	723	1	Ⴇ	cut_g_stereo_44KHz.wav
2	178	4	3	2	I	1	0	1185	0	Ⴃ	cut_l_stereo_44KHz.wav
2	179	3	3	2	I	1	0	717	1	Ⴂ	cut_l_stereo_44KHz.wav
2	180	1	1	1	C	2	1	709	1	Ⴁ	cut_g_stereo_44KHz.wav
2	181	4	4	2	I	1	0	799	0	Ⴃ	cut_h_stereo_44KHz.wav
2	182	2	2	1	C	2	1	926	1	Ⴇ	cut_w_stereo_44KHz.wav
2	183	3	4	2	I	1	0	739	1	Ⴂ	cut_h_stereo_44KHz.wav
2	184	1	2	0	C	1	1	1478	1	Ⴁ	cut_w_stereo_44KHz.wav
2	185	3	3	2	I	2	0	1072	0	Ⴂ	cut_l_stereo_44KHz.wav
2	186	2	1	0	C	1	1	794	1	Ⴇ	cut_g_stereo_44KHz.wav
2	187	1	1	1	C	2	1	798	1	Ⴁ	cut_g_stereo_44KHz.wav
2	188	4	3	2	I	2	0	1051	0	Ⴃ	cut_l_stereo_44KHz.wav
2	189	3	4	2	I	1	0	830	0	Ⴂ	cut_h_stereo_44KHz.wav
2	190	2	2	1	C	2	1	1047	1	Ⴇ	cut_w_stereo_44KHz.wav
2	191	4	4	2	I	1	0	800	1	Ⴃ	cut_h_stereo_44KHz.wav
2	192	1	2	0	C	1	1	686	1	Ⴁ	cut_w_stereo_44KHz.wav
2	193	3	3	2	I	1	0	937	0	Ⴂ	cut_l_stereo_44KHz.wav
2	194	2	2	1	C	2	1	880	1	Ⴇ	cut_w_stereo_44KHz.wav
2	195	1	1	1	C	2	1	961	1	Ⴁ	cut_g_stereo_44KHz.wav
2	196	4	3	2	I	2	0	1110	1	Ⴃ	cut_l_stereo_44KHz.wav
2	197	2	1	0	C	1	1	811	1	Ⴇ	cut_g_stereo_44KHz.wav
2	198	3	4	2	I	1	0	1434	1	Ⴂ	cut_h_stereo_44KHz.wav
2	199	1	2	0	C	1	1	868	1	Ⴁ	cut_w_stereo_44KHz.wav
2	200	4	4	2	I	1	0	1497	0	Ⴃ	cut_h_stereo_44KHz.wav
3	1	3	3	2	I	0	0	0	0	Ⴟ	cut_n_stereo_44KHz.wav
3	2	2	1	0	C	1	1	735	1	Ⴊ	cut_j_stereo_44KHz.wav
3	3	1	2	0	C	1	1	772	1	Ⴡ	cut_ei_stereo_44KHz.wav
3	4	4	3	2	I	1	0	909	1	Ⴜ	cut_n_stereo_44KHz.wav
3	5	3	4	2	I	1	0	1092	1	Ⴟ	cut_s_stereo_44KHz.wav
3	6	4	4	2	I	2	0	799	0	Ⴜ	cut_s_stereo_44KHz.wav
3	7	1	1	1	C	1	0	1020	0	Ⴡ	cut_j_stereo_44KHz.wav
3	8	2	2	1	C	1	0	725	0	Ⴊ	cut_ei_stereo_44KHz.wav
3	9	1	2	0	C	1	1	727	1	Ⴡ	cut_ei_stereo_44KHz.wav
3	10	2	1	0	C	1	1	664	1	Ⴊ	cut_j_stereo_44KHz.wav
3	11	4	3	2	I	1	0	730	1	Ⴜ	cut_n_stereo_44KHz.wav
3	12	3	3	2	I	2	0	796	1	Ⴟ	cut_n_stereo_44KHz.wav
3	13	4	4	2	I	1	0	865	1	Ⴜ	cut_s_stereo_44KHz.wav
3	14	3	4	2	I	1	0	986	0	Ⴟ	cut_s_stereo_44KHz.wav
3	15	2	2	1	C	1	0	773	0	Ⴊ	cut_ei_stereo_44KHz.wav
3	16	1	1	1	C	2	1	783	1	Ⴡ	cut_j_stereo_44KHz.wav
3	17	2	2	1	C	2	1	553	1	Ⴊ	cut_ei_stereo_44KHz.wav
3	18	1	1	1	C	2	1	610	1	Ⴡ	cut_j_stereo_44KHz.wav
3	19	3	4	2	I	1	0	722	1	Ⴟ	cut_s_stereo_44KHz.wav
3	20	4	4	2	I	1	0	1190	0	Ⴜ	cut_s_stereo_44KHz.wav
3	21	1	2	0	C	1	1	459	1	Ⴡ	cut_ei_stereo_44KHz.wav
3	22	2	1	0	C	1	1	779	1	Ⴊ	cut_j_stereo_44KHz.wav
3	23	4	3	2	I	1	0	933	0	Ⴜ	cut_n_stereo_44KHz.wav
3	24	3	3	2	I	1	0	755	1	Ⴟ	cut_n_stereo_44KHz.wav
3	25	2	2	1	C	2	1	776	1	Ⴊ	cut_ei_stereo_44KHz.wav
3	26	1	2	0	C	1	1	569	1	Ⴡ	cut_ei_stereo_44KHz.wav
3	27	3	3	2	I	1	0	1279	0	Ⴟ	cut_n_stereo_44KHz.wav
3	28	4	4	2	I	1	0	1335	1	Ⴜ	cut_s_stereo_44KHz.wav
3	29	1	1	1	C	2	1	746	1	Ⴡ	cut_j_stereo_44KHz.wav
3	30	4	3	2	I	2	0	1536	0	Ⴜ	cut_n_stereo_44KHz.wav
3	31	2	1	0	C	1	1	689	1	Ⴊ	cut_j_stereo_44KHz.wav
3	32	3	4	2	I	1	0	728	1	Ⴟ	cut_s_stereo_44KHz.wav
3	33	2	1	0	C	1	1	783	1	Ⴊ	cut_j_stereo_44KHz.wav
3	34	4	3	2	I	1	0	1145	0	Ⴜ	cut_n_stereo_44KHz.wav
3	35	3	4	2	I	1	0	656	0	Ⴟ	cut_s_stereo_44KHz.wav
3	36	1	2	0	C	1	1	598	1	Ⴡ	cut_ei_stereo_44KHz.wav
3	37	3	3	2	I	2	0	1703	0	Ⴟ	cut_n_stereo_44KHz.wav
3	38	4	4	2	I	1	0	1178	0	Ⴜ	cut_s_stereo_44KHz.wav
3	39	2	2	1	C	1	0	664	0	Ⴊ	cut_ei_stereo_44KHz.wav
3	40	1	1	1	C	2	1	976	1	Ⴡ	cut_j_stereo_44KHz.wav
3	41	4	3	2	I	1	0	1217	0	Ⴜ	cut_n_stereo_44KHz.wav
3	42	1	2	0	C	1	1	606	1	Ⴡ	cut_ei_stereo_44KHz.wav
3	43	3	3	2	I	1	0	1100	0	Ⴟ	cut_n_stereo_44KHz.wav
3	44	2	1	0	C	1	1	709	1	Ⴊ	cut_j_stereo_44KHz.wav
3	45	4	4	2	I	1	0	1077	1	Ⴜ	cut_s_stereo_44KHz.wav
3	46	2	2	1	C	2	1	744	1	Ⴊ	cut_ei_stereo_44KHz.wav
3	47	3	4	2	I	1	0	1213	1	Ⴟ	cut_s_stereo_44KHz.wav
3	48	1	1	1	C	2	1	1048	1	Ⴡ	cut_j_stereo_44KHz.wav
3	49	2	1	0	C	1	1	804	1	Ⴊ	cut_j_stereo_44KHz.wav
3	50	3	4	2	I	1	0	961	1	Ⴟ	cut_s_stereo_44KHz.wav
3	51	4	4	2	I	2	0	1043	1	Ⴜ	cut_s_stereo_44KHz.wav
3	52	1	1	1	C	2	1	1032	1	Ⴡ	cut_j_stereo_44KHz.wav
3	53	4	3	2	I	1	0	1542	1	Ⴜ	cut_n_stereo_44KHz.wav
3	54	3	3	2	I	2	0	936	1	Ⴟ	cut_n_stereo_44KHz.wav
3	55	2	2	1	C	2	1	908	1	Ⴊ	cut_ei_stereo_44KHz.wav
3	56	1	2	0	C	1	1	589	1	Ⴡ	cut_ei_stereo_44KHz.wav
3	57	4	4	2	I	2	0	1152	1	Ⴜ	cut_s_stereo_44KHz.wav
3	58	1	1	1	C	2	1	804	1	Ⴡ	cut_j_stereo_44KHz.wav
3	59	2	1	0	C	1	1	685	1	Ⴊ	cut_j_stereo_44KHz.wav
3	60	3	3	2	I	2	0	1119	1	Ⴟ	cut_n_stereo_44KHz.wav
3	61	1	2	0	C	1	1	810	1	Ⴡ	cut_ei_stereo_44KHz.wav
3	62	3	4	2	I	1	0	870	1	Ⴟ	cut_s_stereo_44KHz.wav
3	63	2	2	1	C	2	1	752	1	Ⴊ	cut_ei_stereo_44KHz.wav
3	64	4	3	2	I	1	0	1613	0	Ⴜ	cut_n_stereo_44KHz.wav
3	65	2	1	0	C	1	1	962	1	Ⴊ	cut_j_stereo_44KHz.wav
3	66	4	3	2	I	1	0	770	0	Ⴜ	cut_n_stereo_44KHz.wav
3	67	1	2	0	C	1	1	728	1	Ⴡ	cut_ei_stereo_44KHz.wav
3	68	3	4	2	I	1	0	733	0	Ⴟ	cut_s_stereo_44KHz.wav
3	69	2	2	1	C	2	1	891	1	Ⴊ	cut_ei_stereo_44KHz.wav
3	70	3	3	2	I	2	0	1388	1	Ⴟ	cut_n_stereo_44KHz.wav
3	71	4	4	2	I	2	0	1198	1	Ⴜ	cut_s_stereo_44KHz.wav
3	72	1	1	1	C	2	1	582	1	Ⴡ	cut_j_stereo_44KHz.wav
3	73	2	2	1	C	2	1	589	1	Ⴊ	cut_ei_stereo_44KHz.wav
3	74	4	3	2	I	2	0	992	1	Ⴜ	cut_n_stereo_44KHz.wav
3	75	1	1	1	C	2	1	753	1	Ⴡ	cut_j_stereo_44KHz.wav
3	76	3	4	2	I	1	0	757	0	Ⴟ	cut_s_stereo_44KHz.wav
3	77	2	1	0	C	1	1	723	1	Ⴊ	cut_j_stereo_44KHz.wav
3	78	3	3	2	I	2	0	1158	0	Ⴟ	cut_n_stereo_44KHz.wav
3	79	1	2	0	C	1	1	774	1	Ⴡ	cut_ei_stereo_44KHz.wav
3	80	4	4	2	I	1	0	1133	0	Ⴜ	cut_s_stereo_44KHz.wav
3	81	2	2	1	C	2	1	651	1	Ⴊ	cut_ei_stereo_44KHz.wav
3	82	4	4	2	I	1	0	1422	1	Ⴜ	cut_s_stereo_44KHz.wav
3	83	3	3	2	I	1	0	620	0	Ⴟ	cut_n_stereo_44KHz.wav
3	84	1	2	0	C	1	1	585	1	Ⴡ	cut_ei_stereo_44KHz.wav
3	85	2	1	0	C	1	1	742	1	Ⴊ	cut_j_stereo_44KHz.wav
3	86	1	1	1	C	2	1	764	1	Ⴡ	cut_j_stereo_44KHz.wav
3	87	4	3	2	I	1	0	910	1	Ⴜ	cut_n_stereo_44KHz.wav
3	88	3	4	2	I	1	0	617	0	Ⴟ	cut_s_stereo_44KHz.wav
3	89	1	2	0	C	1	1	660	1	Ⴡ	cut_ei_stereo_44KHz.wav
3	90	4	4	2	I	2	0	639	1	Ⴜ	cut_s_stereo_44KHz.wav
3	91	3	3	2	I	1	0	815	1	Ⴟ	cut_n_stereo_44KHz.wav
3	92	2	1	0	C	1	1	1085	1	Ⴊ	cut_j_stereo_44KHz.wav
3	93	3	4	2	I	1	0	870	0	Ⴟ	cut_s_stereo_44KHz.wav
3	94	1	1	1	C	2	1	782	1	Ⴡ	cut_j_stereo_44KHz.wav
3	95	4	3	2	I	1	0	1154	1	Ⴜ	cut_n_stereo_44KHz.wav
3	96	2	2	1	C	2	1	715	1	Ⴊ	cut_ei_stereo_44KHz.wav
3	97	1	2	0	C	1	1	722	1	Ⴡ	cut_ei_stereo_44KHz.wav
3	98	3	4	2	I	1	0	856	1	Ⴟ	cut_s_stereo_44KHz.wav
3	99	2	2	1	C	2	1	681	1	Ⴊ	cut_ei_stereo_44KHz.wav
3	100	4	3	2	I	1	0	1000	1	Ⴜ	cut_n_stereo_44KHz.wav
3	101	1	1	1	C	2	1	684	1	Ⴡ	cut_j_stereo_44KHz.wav
3	102	4	4	2	I	2	0	1228	1	Ⴜ	cut_s_stereo_44KHz.wav
3	103	2	1	0	C	1	1	718	1	Ⴊ	cut_j_stereo_44KHz.wav
3	104	3	3	2	I	1	0	743	0	Ⴟ	cut_n_stereo_44KHz.wav
3	105	4	4	2	I	1	0	888	1	Ⴜ	cut_s_stereo_44KHz.wav
3	106	1	1	1	C	2	1	923	1	Ⴡ	cut_j_stereo_44KHz.wav
3	107	2	2	1	C	2	1	606	1	Ⴊ	cut_ei_stereo_44KHz.wav
3	108	3	3	2	I	1	0	753	1	Ⴟ	cut_n_stereo_44KHz.wav
3	109	2	1	0	C	1	1	680	1	Ⴊ	cut_j_stereo_44KHz.wav
3	110	3	4	2	I	1	0	753	0	Ⴟ	cut_s_stereo_44KHz.wav
3	111	1	2	0	C	1	1	769	1	Ⴡ	cut_ei_stereo_44KHz.wav
3	112	4	3	2	I	1	0	723	1	Ⴜ	cut_n_stereo_44KHz.wav
3	113	3	3	2	I	2	0	776	0	Ⴟ	cut_n_stereo_44KHz.wav
3	114	1	2	0	C	1	1	785	1	Ⴡ	cut_ei_stereo_44KHz.wav
3	115	4	3	2	I	1	0	1023	0	Ⴜ	cut_n_stereo_44KHz.wav
3	116	2	2	1	C	2	1	855	1	Ⴊ	cut_ei_stereo_44KHz.wav
3	117	1	1	1	C	2	1	802	1	Ⴡ	cut_j_stereo_44KHz.wav
3	118	2	1	0	C	1	1	713	1	Ⴊ	cut_j_stereo_44KHz.wav
3	119	3	4	2	I	1	0	719	0	Ⴟ	cut_s_stereo_44KHz.wav
3	120	4	4	2	I	1	0	615	0	Ⴜ	cut_s_stereo_44KHz.wav
3	121	3	3	2	I	1	0	725	1	Ⴟ	cut_n_stereo_44KHz.wav
3	122	2	1	0	C	1	1	653	1	Ⴊ	cut_j_stereo_44KHz.wav
3	123	1	2	0	C	1	1	756	1	Ⴡ	cut_ei_stereo_44KHz.wav
3	124	4	4	2	I	1	0	763	0	Ⴜ	cut_s_stereo_44KHz.wav
3	125	3	4	2	I	1	0	486	1	Ⴟ	cut_s_stereo_44KHz.wav
3	126	4	3	2	I	1	0	726	1	Ⴜ	cut_n_stereo_44KHz.wav
3	127	1	1	1	C	2	1	771	1	Ⴡ	cut_j_stereo_44KHz.wav
3	128	2	2	1	C	2	1	1108	1	Ⴊ	cut_ei_stereo_44KHz.wav
3	129	3	4	2	I	1	0	718	0	Ⴟ	cut_s_stereo_44KHz.wav
3	130	1	1	1	C	2	1	736	1	Ⴡ	cut_j_stereo_44KHz.wav
3	131	2	2	1	C	2	1	766	1	Ⴊ	cut_ei_stereo_44KHz.wav
3	132	4	4	2	I	1	0	735	1	Ⴜ	cut_s_stereo_44KHz.wav
3	133	3	3	2	I	1	0	767	1	Ⴟ	cut_n_stereo_44KHz.wav
3	134	4	3	2	I	2	0	958	0	Ⴜ	cut_n_stereo_44KHz.wav
3	135	1	2	0	C	1	1	679	1	Ⴡ	cut_ei_stereo_44KHz.wav
3	136	2	1	0	C	1	1	1022	1	Ⴊ	cut_j_stereo_44KHz.wav
3	137	3	4	2	I	1	0	1309	0	Ⴟ	cut_s_stereo_44KHz.wav
3	138	4	3	2	I	1	0	662	1	Ⴜ	cut_n_stereo_44KHz.wav
3	139	1	1	1	C	2	1	650	1	Ⴡ	cut_j_stereo_44KHz.wav
3	140	2	1	0	C	1	1	711	1	Ⴊ	cut_j_stereo_44KHz.wav
3	141	3	3	2	I	1	0	800	0	Ⴟ	cut_n_stereo_44KHz.wav
3	142	2	2	1	C	2	1	746	1	Ⴊ	cut_ei_stereo_44KHz.wav
3	143	1	2	0	C	1	1	606	1	Ⴡ	cut_ei_stereo_44KHz.wav
3	144	4	4	2	I	1	0	830	1	Ⴜ	cut_s_stereo_44KHz.wav
3	145	3	3	2	I	1	0	727	0	Ⴟ	cut_n_stereo_44KHz.wav
3	146	2	1	0	C	1	1	720	1	Ⴊ	cut_j_stereo_44KHz.wav
3	147	4	4	2	I	1	0	699	0	Ⴜ	cut_s_stereo_44KHz.wav
3	148	1	1	1	C	2	1	770	1	Ⴡ	cut_j_stereo_44KHz.wav
3	149	2	2	1	C	2	1	674	1	Ⴊ	cut_ei_stereo_44KHz.wav
3	150	4	3	2	I	1	0	593	0	Ⴜ	cut_n_stereo_44KHz.wav
3	151	3	4	2	I	2	0	989	0	Ⴟ	cut_s_stereo_44KHz.wav
3	152	1	2	0	C	1	1	632	1	Ⴡ	cut_ei_stereo_44KHz.wav
3	153	3	4	2	I	1	0	717	1	Ⴟ	cut_s_stereo_44KHz.wav
3	154	4	3	2	I	1	0	646	0	Ⴜ	cut_n_stereo_44KHz.wav
3	155	1	1	1	C	2	1	759	1	Ⴡ	cut_j_stereo_44KHz.wav
3	156	2	1	0	C	1	1	963	1	Ⴊ	cut_j_stereo_44KHz.wav
3	157	3	3	2	I	1	0	818	0	Ⴟ	cut_n_stereo_44KHz.wav
3	158	4	4	2	I	1	0	912	0	Ⴜ	cut_s_stereo_44KHz.wav
3	159	1	2	0	C	1	1	675	1	Ⴡ	cut_ei_stereo_44KHz.wav
3	160	2	2	1	C	2	1	538	1	Ⴊ	cut_ei_stereo_44KHz.wav
3	161	1	1	1	C	2	1	818	1	Ⴡ	cut_j_stereo_44KHz.wav
3	162	4	3	2	I	2	0	1327	0	Ⴜ	cut_n_stereo_44KHz.wav
3	163	3	3	2	I	1	0	771	0	Ⴟ	cut_n_stereo_44KHz.wav
3	164	2	2	1	C	2	1	754	1	Ⴊ	cut_ei_stereo_44KHz.wav
3	165	1	2	0	C	1	1	472	1	Ⴡ	cut_ei_stereo_44KHz.wav
3	166	3	4	2	I	1	0	1123	0	Ⴟ	cut_s_stereo_44KHz.wav
3	167	2	1	0	C	1	1	931	1	Ⴊ	cut_j_stereo_44KHz.wav
3	168	4	4	2	I	1	0	755	0	Ⴜ	cut_s_stereo_44KHz.wav
3	169	1	1	1	C	2	1	998	1	Ⴡ	cut_j_stereo_44KHz.wav
3	170	4	3	2	I	2	0	1236	1	Ⴜ	cut_n_stereo_44KHz.wav
3	171	3	4	2	I	1	0	997	1	Ⴟ	cut_s_stereo_44KHz.wav
3	172	2	1	0	C	1	1	675	1	Ⴊ	cut_j_stereo_44KHz.wav
3	173	4	4	2	I	2	0	964	0	Ⴜ	cut_s_stereo_44KHz.wav
3	174	1	2	0	C	1	1	548	1	Ⴡ	cut_ei_stereo_44KHz.wav
3	175	3	3	2	I	2	0	1005	1	Ⴟ	cut_n_stereo_44KHz.wav
3	176	2	2	1	C	2	1	728	1	Ⴊ	cut_ei_stereo_44KHz.wav
3	177	4	4	2	I	1	0	939	0	Ⴜ	cut_s_stereo_44KHz.wav
3	178	3	3	2	I	2	0	802	1	Ⴟ	cut_n_stereo_44KHz.wav
3	179	2	2	1	C	2	1	1125	1	Ⴊ	cut_ei_stereo_44KHz.wav
3	180	1	2	0	C	1	1	893	1	Ⴡ	cut_ei_stereo_44KHz.wav
3	181	4	3	2	I	1	0	1058	0	Ⴜ	cut_n_stereo_44KHz.wav
3	182	1	1	1	C	2	1	735	1	Ⴡ	cut_j_stereo_44KHz.wav
3	183	2	1	0	C	1	1	559	1	Ⴊ	cut_j_stereo_44KHz.wav
3	184	3	4	2	I	1	0	722	1	Ⴟ	cut_s_stereo_44KHz.wav
3	185	4	4	2	I	2	0	764	1	Ⴜ	cut_s_stereo_44KHz.wav
3	186	2	2	1	C	2	1	617	1	Ⴊ	cut_ei_stereo_44KHz.wav
3	187	3	3	2	I	1	0	660	1	Ⴟ	cut_n_stereo_44KHz.wav
3	188	1	1	1	C	1	0	655	0	Ⴡ	cut_j_stereo_44KHz.wav
3	189	4	3	2	I	2	0	1223	1	Ⴜ	cut_n_stereo_44KHz.wav
3	190	3	4	2	I	2	0	661	1	Ⴟ	cut_s_stereo_44KHz.wav
3	191	1	2	0	C	1	1	618	1	Ⴡ	cut_ei_stereo_44KHz.wav
3	192	2	1	0	C	1	1	667	1	Ⴊ	cut_j_stereo_44KHz.wav
3	193	3	3	2	I	1	0	858	0	Ⴟ	cut_n_stereo_44KHz.wav
3	194	1	2	0	C	1	1	1015	1	Ⴡ	cut_ei_stereo_44KHz.wav
3	195	4	4	2	I	2	0	690	0	Ⴜ	cut_s_stereo_44KHz.wav
3	196	2	2	1	C	2	1	686	1	Ⴊ	cut_ei_stereo_44KHz.wav
3	197	1	1	1	C	2	1	718	1	Ⴡ	cut_j_stereo_44KHz.wav
3	198	3	4	2	I	1	0	1044	1	Ⴟ	cut_s_stereo_44KHz.wav
3	199	2	1	0	C	1	1	754	1	Ⴊ	cut_j_stereo_44KHz.wav
3	200	4	3	2	I	1	0	1188	0	Ⴜ	cut_n_stereo_44KHz.wav
4	1	4	3	2	I	1	0	1687	0	Ⴕ	cut_r_stereo_44KHz.wav
4	2	1	2	0	C	1	1	1000	1	Ⴐ	cut_oei_stereo_44KHz.wav
4	3	3	4	2	I	1	0	1544	0	Ⴏ	cut_f_stereo_44KHz.wav
4	4	2	1	0	C	1	1	953	1	Ⴒ	cut_ui_stereo_44KHz.wav
4	5	3	3	2	I	1	0	766	0	Ⴏ	cut_r_stereo_44KHz.wav
4	6	4	4	2	I	1	0	866	1	Ⴕ	cut_f_stereo_44KHz.wav
4	7	1	1	1	C	1	0	752	0	Ⴐ	cut_ui_stereo_44KHz.wav
4	8	2	2	1	C	1	0	730	0	Ⴒ	cut_oei_stereo_44KHz.wav
4	9	4	3	2	I	1	0	1028	1	Ⴕ	cut_r_stereo_44KHz.wav
4	10	3	3	2	I	2	0	1180	0	Ⴏ	cut_r_stereo_44KHz.wav
4	11	1	1	1	C	2	1	1416	1	Ⴐ	cut_ui_stereo_44KHz.wav
4	12	2	2	1	C	2	1	1128	1	Ⴒ	cut_oei_stereo_44KHz.wav
4	13	1	2	0	C	1	1	761	1	Ⴐ	cut_oei_stereo_44KHz.wav
4	14	2	1	0	C	1	1	1139	1	Ⴒ	cut_ui_stereo_44KHz.wav
4	15	4	4	2	I	1	0	719	1	Ⴕ	cut_f_stereo_44KHz.wav
4	16	3	4	2	I	2	0	856	0	Ⴏ	cut_f_stereo_44KHz.wav
4	17	1	1	1	C	2	1	1064	1	Ⴐ	cut_ui_stereo_44KHz.wav
4	18	3	4	2	I	2	0	827	0	Ⴏ	cut_f_stereo_44KHz.wav
4	19	2	1	0	C	2	0	831	0	Ⴒ	cut_ui_stereo_44KHz.wav
4	20	4	4	2	I	1	0	1320	1	Ⴕ	cut_f_stereo_44KHz.wav
4	21	3	3	2	I	1	0	946	1	Ⴏ	cut_r_stereo_44KHz.wav
4	22	2	2	1	C	1	0	774	0	Ⴒ	cut_oei_stereo_44KHz.wav
4	23	1	2	0	C	1	1	1118	1	Ⴐ	cut_oei_stereo_44KHz.wav
4	24	4	3	2	I	2	0	1386	0	Ⴕ	cut_r_stereo_44KHz.wav
4	25	3	3	2	I	1	0	1405	0	Ⴏ	cut_r_stereo_44KHz.wav
4	26	4	4	2	I	1	0	693	1	Ⴕ	cut_f_stereo_44KHz.wav
4	27	1	2	0	C	1	1	901	1	Ⴐ	cut_oei_stereo_44KHz.wav
4	28	2	1	0	C	1	1	882	1	Ⴒ	cut_ui_stereo_44KHz.wav
4	29	1	1	1	C	1	0	1764	0	Ⴐ	cut_ui_stereo_44KHz.wav
4	30	2	2	1	C	2	1	1141	1	Ⴒ	cut_oei_stereo_44KHz.wav
4	31	3	4	2	I	2	0	1533	1	Ⴏ	cut_f_stereo_44KHz.wav
4	32	4	3	2	I	2	0	698	0	Ⴕ	cut_r_stereo_44KHz.wav
4	33	2	1	0	C	1	1	1870	1	Ⴒ	cut_ui_stereo_44KHz.wav
4	34	4	3	2	I	2	0	857	0	Ⴕ	cut_r_stereo_44KHz.wav
4	35	1	2	0	C	1	1	1078	1	Ⴐ	cut_oei_stereo_44KHz.wav
4	36	3	3	2	I	1	0	1161	1	Ⴏ	cut_r_stereo_44KHz.wav
4	37	1	1	1	C	2	1	1804	1	Ⴐ	cut_ui_stereo_44KHz.wav
4	38	2	2	1	C	2	1	791	1	Ⴒ	cut_oei_stereo_44KHz.wav
4	39	3	4	2	I	2	0	1787	1	Ⴏ	cut_f_stereo_44KHz.wav
4	40	4	4	2	I	1	0	891	0	Ⴕ	cut_f_stereo_44KHz.wav
4	41	2	2	1	C	2	1	1236	1	Ⴒ	cut_oei_stereo_44KHz.wav
4	42	1	1	1	C	2	1	957	1	Ⴐ	cut_ui_stereo_44KHz.wav
4	43	3	3	2	I	1	0	810	0	Ⴏ	cut_r_stereo_44KHz.wav
4	44	4	4	2	I	1	0	737	1	Ⴕ	cut_f_stereo_44KHz.wav
4	45	2	1	0	C	1	1	1195	1	Ⴒ	cut_ui_stereo_44KHz.wav
4	46	1	2	0	C	1	1	664	1	Ⴐ	cut_oei_stereo_44KHz.wav
4	47	4	3	2	I	1	0	787	1	Ⴕ	cut_r_stereo_44KHz.wav
4	48	3	4	2	I	2	0	1141	0	Ⴏ	cut_f_stereo_44KHz.wav
4	49	1	2	0	C	1	1	1560	1	Ⴐ	cut_oei_stereo_44KHz.wav
4	50	2	2	1	C	2	1	940	1	Ⴒ	cut_oei_stereo_44KHz.wav
4	51	3	4	2	I	1	0	1141	0	Ⴏ	cut_f_stereo_44KHz.wav
4	52	4	3	2	I	2	0	1100	0	Ⴕ	cut_r_stereo_44KHz.wav
4	53	3	3	2	I	1	0	976	0	Ⴏ	cut_r_stereo_44KHz.wav
4	54	4	4	2	I	1	0	1044	1	Ⴕ	cut_f_stereo_44KHz.wav
4	55	1	1	1	C	2	1	1755	1	Ⴐ	cut_ui_stereo_44KHz.wav
4	56	2	1	0	C	1	1	1260	1	Ⴒ	cut_ui_stereo_44KHz.wav
4	57	1	2	0	C	1	1	769	1	Ⴐ	cut_oei_stereo_44KHz.wav
4	58	3	3	2	I	1	0	867	0	Ⴏ	cut_r_stereo_44KHz.wav
4	59	4	3	2	I	1	0	482	0	Ⴕ	cut_r_stereo_44KHz.wav
4	60	2	2	1	C	2	1	1428	1	Ⴒ	cut_oei_stereo_44KHz.wav
4	61	4	4	2	I	1	0	747	0	Ⴕ	cut_f_stereo_44KHz.wav
4	62	1	1	1	C	2	1	867	1	Ⴐ	cut_ui_stereo_44KHz.wav
4	63	3	4	2	I	1	0	811	1	Ⴏ	cut_f_stereo_44KHz.wav
4	64	2	1	0	C	0	0	0	0	Ⴒ	cut_ui_stereo_44KHz.wav
4	65	4	3	2	I	1	0	902	0	Ⴕ	cut_r_stereo_44KHz.wav
4	66	2	1	0	C	1	1	1133	1	Ⴒ	cut_ui_stereo_44KHz.wav
4	67	3	3	2	I	1	0	976	0	Ⴏ	cut_r_stereo_44KHz.wav
4	68	1	1	1	C	2	1	997	1	Ⴐ	cut_ui_stereo_44KHz.wav
4	69	3	4	2	I	1	0	1201	1	Ⴏ	cut_f_stereo_44KHz.wav
4	70	2	2	1	C	2	1	1144	1	Ⴒ	cut_oei_stereo_44KHz.wav
4	71	4	4	2	I	1	0	818	1	Ⴕ	cut_f_stereo_44KHz.wav
4	72	1	2	0	C	1	1	724	1	Ⴐ	cut_oei_stereo_44KHz.wav
4	73	2	2	1	C	2	1	646	1	Ⴒ	cut_oei_stereo_44KHz.wav
4	74	3	4	2	I	1	0	1152	1	Ⴏ	cut_f_stereo_44KHz.wav
4	75	1	2	0	C	1	1	704	1	Ⴐ	cut_oei_stereo_44KHz.wav
4	76	4	4	2	I	2	0	699	1	Ⴕ	cut_f_stereo_44KHz.wav
4	77	2	1	0	C	2	0	868	0	Ⴒ	cut_ui_stereo_44KHz.wav
4	78	1	1	1	C	1	0	580	0	Ⴐ	cut_ui_stereo_44KHz.wav
4	79	4	3	2	I	1	0	1155	1	Ⴕ	cut_r_stereo_44KHz.wav
4	80	3	3	2	I	2	0	883	1	Ⴏ	cut_r_stereo_44KHz.wav
4	81	2	2	1	C	2	1	1122	1	Ⴒ	cut_oei_stereo_44KHz.wav
4	82	4	3	2	I	1	0	1221	0	Ⴕ	cut_r_stereo_44KHz.wav
4	83	3	4	2	I	1	0	644	1	Ⴏ	cut_f_stereo_44KHz.wav
4	84	1	2	0	C	1	1	756	1	Ⴐ	cut_oei_stereo_44KHz.wav
4	85	4	4	2	I	1	0	1022	0	Ⴕ	cut_f_stereo_44KHz.wav
4	86	3	3	2	I	1	0	710	0	Ⴏ	cut_r_stereo_44KHz.wav
4	87	1	1	1	C	2	1	1054	1	Ⴐ	cut_ui_stereo_44KHz.wav
4	88	2	1	0	C	1	1	745	1	Ⴒ	cut_ui_stereo_44KHz.wav
4	89	3	4	2	I	1	0	897	1	Ⴏ	cut_f_stereo_44KHz.wav
4	90	4	4	2	I	2	0	822	0	Ⴕ	cut_f_stereo_44KHz.wav
4	91	2	1	0	C	1	1	1017	1	Ⴒ	cut_ui_stereo_44KHz.wav
4	92	1	2	0	C	1	1	459	1	Ⴐ	cut_oei_stereo_44KHz.wav
4	93	2	2	1	C	2	1	996	1	Ⴒ	cut_oei_stereo_44KHz.wav
4	94	3	3	2	I	1	0	891	1	Ⴏ	cut_r_stereo_44KHz.wav
4	95	4	3	2	I	2	0	851	0	Ⴕ	cut_r_stereo_44KHz.wav
4	96	1	1	1	C	2	1	785	1	Ⴐ	cut_ui_stereo_44KHz.wav
4	97	2	1	0	C	1	1	878	1	Ⴒ	cut_ui_stereo_44KHz.wav
4	98	3	4	2	I	1	0	1024	0	Ⴏ	cut_f_stereo_44KHz.wav
4	99	1	2	0	C	1	1	678	1	Ⴐ	cut_oei_stereo_44KHz.wav
4	100	4	3	2	I	1	0	1371	0	Ⴕ	cut_r_stereo_44KHz.wav
4	101	3	3	2	I	1	0	487	1	Ⴏ	cut_r_stereo_44KHz.wav
4	102	4	4	2	I	1	0	572	1	Ⴕ	cut_f_stereo_44KHz.wav
4	103	2	2	1	C	2	1	1173	1	Ⴒ	cut_oei_stereo_44KHz.wav
4	104	1	1	1	C	2	1	1030	1	Ⴐ	cut_ui_stereo_44KHz.wav
4	105	2	1	0	C	1	1	926	1	Ⴒ	cut_ui_stereo_44KHz.wav
4	106	1	1	1	C	2	1	854	1	Ⴐ	cut_ui_stereo_44KHz.wav
4	107	4	3	2	I	2	0	1390	0	Ⴕ	cut_r_stereo_44KHz.wav
4	108	3	3	2	I	1	0	941	0	Ⴏ	cut_r_stereo_44KHz.wav
4	109	2	2	1	C	1	0	833	0	Ⴒ	cut_oei_stereo_44KHz.wav
4	110	1	2	0	C	1	1	497	1	Ⴐ	cut_oei_stereo_44KHz.wav
4	111	3	4	2	I	1	0	934	1	Ⴏ	cut_f_stereo_44KHz.wav
4	112	4	4	2	I	2	0	845	0	Ⴕ	cut_f_stereo_44KHz.wav
4	113	2	2	1	C	2	1	1519	1	Ⴒ	cut_oei_stereo_44KHz.wav
4	114	3	3	2	I	1	0	743	1	Ⴏ	cut_r_stereo_44KHz.wav
4	115	1	2	0	C	1	1	711	1	Ⴐ	cut_oei_stereo_44KHz.wav
4	116	4	4	2	I	1	0	688	0	Ⴕ	cut_f_stereo_44KHz.wav
4	117	2	1	0	C	1	1	1190	1	Ⴒ	cut_ui_stereo_44KHz.wav
4	118	4	3	2	I	2	0	1176	0	Ⴕ	cut_r_stereo_44KHz.wav
4	119	3	4	2	I	1	0	948	1	Ⴏ	cut_f_stereo_44KHz.wav
4	120	1	1	1	C	2	1	1282	1	Ⴐ	cut_ui_stereo_44KHz.wav
4	121	4	4	2	I	1	0	1111	0	Ⴕ	cut_f_stereo_44KHz.wav
4	122	3	3	2	I	2	0	877	1	Ⴏ	cut_r_stereo_44KHz.wav
4	123	2	1	0	C	1	1	897	1	Ⴒ	cut_ui_stereo_44KHz.wav
4	124	1	2	0	C	1	1	716	1	Ⴐ	cut_oei_stereo_44KHz.wav
4	125	4	3	2	I	2	0	1306	1	Ⴕ	cut_r_stereo_44KHz.wav
4	126	2	2	1	C	2	1	947	1	Ⴒ	cut_oei_stereo_44KHz.wav
4	127	3	4	2	I	1	0	791	1	Ⴏ	cut_f_stereo_44KHz.wav
4	128	1	1	1	C	2	1	813	1	Ⴐ	cut_ui_stereo_44KHz.wav
4	129	3	4	2	I	1	0	1019	0	Ⴏ	cut_f_stereo_44KHz.wav
4	130	2	2	1	C	2	1	1295	1	Ⴒ	cut_oei_stereo_44KHz.wav
4	131	1	2	0	C	1	1	747	1	Ⴐ	cut_oei_stereo_44KHz.wav
4	132	4	4	2	I	1	0	1062	0	Ⴕ	cut_f_stereo_44KHz.wav
4	133	3	3	2	I	2	0	1073	0	Ⴏ	cut_r_stereo_44KHz.wav
4	134	2	1	0	C	1	1	1346	1	Ⴒ	cut_ui_stereo_44KHz.wav
4	135	1	1	1	C	2	1	1094	1	Ⴐ	cut_ui_stereo_44KHz.wav
4	136	4	3	2	I	1	0	909	0	Ⴕ	cut_r_stereo_44KHz.wav
4	137	2	2	1	C	2	1	946	1	Ⴒ	cut_oei_stereo_44KHz.wav
4	138	1	2	0	C	1	1	620	1	Ⴐ	cut_oei_stereo_44KHz.wav
4	139	4	4	2	I	1	0	780	1	Ⴕ	cut_f_stereo_44KHz.wav
4	140	3	3	2	I	1	0	788	0	Ⴏ	cut_r_stereo_44KHz.wav
4	141	1	1	1	C	2	1	917	1	Ⴐ	cut_ui_stereo_44KHz.wav
4	142	2	1	0	C	1	1	1128	1	Ⴒ	cut_ui_stereo_44KHz.wav
4	143	3	4	2	I	1	0	791	1	Ⴏ	cut_f_stereo_44KHz.wav
4	144	4	3	2	I	1	0	647	1	Ⴕ	cut_r_stereo_44KHz.wav
4	145	3	4	2	I	1	0	639	1	Ⴏ	cut_f_stereo_44KHz.wav
4	146	2	2	1	C	2	1	1089	1	Ⴒ	cut_oei_stereo_44KHz.wav
4	147	1	2	0	C	1	1	931	1	Ⴐ	cut_oei_stereo_44KHz.wav
4	148	4	4	2	I	1	0	728	0	Ⴕ	cut_f_stereo_44KHz.wav
4	149	1	1	1	C	1	0	1234	0	Ⴐ	cut_ui_stereo_44KHz.wav
4	150	4	3	2	I	1	0	947	1	Ⴕ	cut_r_stereo_44KHz.wav
4	151	2	1	0	C	1	1	1093	1	Ⴒ	cut_ui_stereo_44KHz.wav
4	152	3	3	2	I	2	0	1777	1	Ⴏ	cut_r_stereo_44KHz.wav
4	153	4	4	2	I	1	0	1010	1	Ⴕ	cut_f_stereo_44KHz.wav
4	154	1	2	0	C	1	1	955	1	Ⴐ	cut_oei_stereo_44KHz.wav
4	155	3	3	2	I	1	0	1329	1	Ⴏ	cut_r_stereo_44KHz.wav
4	156	2	1	0	C	1	1	1041	1	Ⴒ	cut_ui_stereo_44KHz.wav
4	157	1	1	1	C	2	1	879	1	Ⴐ	cut_ui_stereo_44KHz.wav
4	158	2	2	1	C	2	1	1240	1	Ⴒ	cut_oei_stereo_44KHz.wav
4	159	4	3	2	I	1	0	1006	0	Ⴕ	cut_r_stereo_44KHz.wav
4	160	3	4	2	I	1	0	1020	0	Ⴏ	cut_f_stereo_44KHz.wav
4	161	1	1	1	C	2	1	825	1	Ⴐ	cut_ui_stereo_44KHz.wav
4	162	4	3	2	I	1	0	981	1	Ⴕ	cut_r_stereo_44KHz.wav
4	163	2	1	0	C	1	1	939	1	Ⴒ	cut_ui_stereo_44KHz.wav
4	164	3	3	2	I	2	0	874	0	Ⴏ	cut_r_stereo_44KHz.wav
4	165	2	2	1	C	2	1	1210	1	Ⴒ	cut_oei_stereo_44KHz.wav
4	166	3	4	2	I	1	0	1682	0	Ⴏ	cut_f_stereo_44KHz.wav
4	167	1	2	0	C	1	1	1023	1	Ⴐ	cut_oei_stereo_44KHz.wav
4	168	4	4	2	I	1	0	928	1	Ⴕ	cut_f_stereo_44KHz.wav
4	169	1	1	1	C	2	1	827	1	Ⴐ	cut_ui_stereo_44KHz.wav
4	170	2	2	1	C	2	1	1145	1	Ⴒ	cut_oei_stereo_44KHz.wav
4	171	4	3	2	I	1	0	1090	1	Ⴕ	cut_r_stereo_44KHz.wav
4	172	3	3	2	I	1	0	584	1	Ⴏ	cut_r_stereo_44KHz.wav
4	173	1	2	0	C	1	1	734	1	Ⴐ	cut_oei_stereo_44KHz.wav
4	174	3	4	2	I	1	0	1566	1	Ⴏ	cut_f_stereo_44KHz.wav
4	175	4	4	2	I	1	0	1392	1	Ⴕ	cut_f_stereo_44KHz.wav
4	176	2	1	0	C	1	1	996	1	Ⴒ	cut_ui_stereo_44KHz.wav
4	177	1	2	0	C	1	1	885	1	Ⴐ	cut_oei_stereo_44KHz.wav
4	178	4	4	2	I	1	0	733	0	Ⴕ	cut_f_stereo_44KHz.wav
4	179	2	1	0	C	1	1	1173	1	Ⴒ	cut_ui_stereo_44KHz.wav
4	180	3	4	2	I	1	0	801	0	Ⴏ	cut_f_stereo_44KHz.wav
4	181	4	3	2	I	1	0	1261	1	Ⴕ	cut_r_stereo_44KHz.wav
4	182	2	2	1	C	2	1	1246	1	Ⴒ	cut_oei_stereo_44KHz.wav
4	183	3	3	2	I	1	0	754	0	Ⴏ	cut_r_stereo_44KHz.wav
4	184	1	1	1	C	2	1	995	1	Ⴐ	cut_ui_stereo_44KHz.wav
4	185	4	4	2	I	1	0	885	1	Ⴕ	cut_f_stereo_44KHz.wav
4	186	1	2	0	C	1	1	734	1	Ⴐ	cut_oei_stereo_44KHz.wav
4	187	3	3	2	I	1	0	1097	1	Ⴏ	cut_r_stereo_44KHz.wav
4	188	2	2	1	C	2	1	1220	1	Ⴒ	cut_oei_stereo_44KHz.wav
4	189	4	3	2	I	1	0	925	0	Ⴕ	cut_r_stereo_44KHz.wav
4	190	2	1	0	C	1	1	882	1	Ⴒ	cut_ui_stereo_44KHz.wav
4	191	1	1	1	C	1	0	854	0	Ⴐ	cut_ui_stereo_44KHz.wav
4	192	3	4	2	I	1	0	988	1	Ⴏ	cut_f_stereo_44KHz.wav
4	193	4	3	2	I	1	0	678	1	Ⴕ	cut_r_stereo_44KHz.wav
4	194	1	2	0	C	1	1	678	1	Ⴐ	cut_oei_stereo_44KHz.wav
4	195	3	3	2	I	1	0	738	0	Ⴏ	cut_r_stereo_44KHz.wav
4	196	2	1	0	C	1	1	1400	1	Ⴒ	cut_ui_stereo_44KHz.wav
4	197	4	4	2	I	1	0	796	1	Ⴕ	cut_f_stereo_44KHz.wav
4	198	3	4	2	I	1	0	1034	0	Ⴏ	cut_f_stereo_44KHz.wav
4	199	1	1	1	C	2	1	840	1	Ⴐ	cut_ui_stereo_44KHz.wav
4	200	2	2	1	C	2	1	997	1	Ⴒ	cut_oei_stereo_44KHz.wav
