block	trial	Vstim	Astim	match	C/I	resp	result	RT	fb	V-file	A-file
RL

0	1	1	2	0	C	2	1	1075	1	poli_8sides 23_whiteLine3.jpg	Practice1_b27_cut1_stereo_44KHz.wav
0	2	2	4	0	C	2	1	695	1	poli_8sides 21_whiteLine3.jpg	Practice3_b26_cut1_stereo_44KHz.wav
0	3	2	3	1	C	2	0	472	0	poli_8sides 21_whiteLine3.jpg	Practice4_b26_stereo_44KHz.wav
0	4	1	1	1	C	2	0	554	0	poli_8sides 23_whiteLine3.jpg	Practice2_b27_cut2_stereo_44KHz.wav
0	5	1	2	0	C	1	0	866	0	poli_8sides 23_whiteLine3.jpg	Practice1_b27_cut1_stereo_44KHz.wav
0	6	2	3	1	C	2	0	574	0	poli_8sides 21_whiteLine3.jpg	Practice4_b26_stereo_44KHz.wav
0	7	1	1	1	C	2	0	650	0	poli_8sides 23_whiteLine3.jpg	Practice2_b27_cut2_stereo_44KHz.wav
0	8	2	4	0	C	2	1	796	1	poli_8sides 21_whiteLine3.jpg	Practice3_b26_cut1_stereo_44KHz.wav
0	9	1	1	1	C	1	1	917	1	poli_8sides 23_whiteLine3.jpg	Practice2_b27_cut2_stereo_44KHz.wav
0	10	2	3	1	C	2	0	846	0	poli_8sides 21_whiteLine3.jpg	Practice4_b26_stereo_44KHz.wav
0	11	2	4	0	C	2	1	738	1	poli_8sides 21_whiteLine3.jpg	Practice3_b26_cut1_stereo_44KHz.wav
0	12	1	2	0	C	1	0	504	0	poli_8sides 23_whiteLine3.jpg	Practice1_b27_cut1_stereo_44KHz.wav
0	13	1	1	1	C	1	1	1130	1	poli_8sides 23_whiteLine3.jpg	Practice2_b27_cut2_stereo_44KHz.wav
0	14	1	2	0	C	2	1	1173	1	poli_8sides 23_whiteLine3.jpg	Practice1_b27_cut1_stereo_44KHz.wav
0	15	2	4	0	C	2	1	583	1	poli_8sides 21_whiteLine3.jpg	Practice3_b26_cut1_stereo_44KHz.wav
0	16	2	3	1	C	1	1	913	1	poli_8sides 21_whiteLine3.jpg	Practice4_b26_stereo_44KHz.wav
0	17	1	1	1	C	1	1	702	1	poli_8sides 23_whiteLine3.jpg	Practice2_b27_cut2_stereo_44KHz.wav
0	18	2	4	0	C	2	1	854	1	poli_8sides 21_whiteLine3.jpg	Practice3_b26_cut1_stereo_44KHz.wav
0	19	2	3	1	C	1	1	724	1	poli_8sides 21_whiteLine3.jpg	Practice4_b26_stereo_44KHz.wav
0	20	1	2	0	C	1	0	509	0	poli_8sides 23_whiteLine3.jpg	Practice1_b27_cut1_stereo_44KHz.wav
0	21	2	3	1	C	1	1	846	1	poli_8sides 21_whiteLine3.jpg	Practice4_b26_stereo_44KHz.wav
0	22	1	2	0	C	2	1	886	1	poli_8sides 23_whiteLine3.jpg	Practice1_b27_cut1_stereo_44KHz.wav
0	23	2	4	0	C	2	1	548	1	poli_8sides 21_whiteLine3.jpg	Practice3_b26_cut1_stereo_44KHz.wav
0	24	1	1	1	C	1	1	683	1	poli_8sides 23_whiteLine3.jpg	Practice2_b27_cut2_stereo_44KHz.wav
0	25	1	1	1	C	1	1	763	1	poli_8sides 23_whiteLine3.jpg	Practice2_b27_cut2_stereo_44KHz.wav
0	26	2	3	1	C	1	1	780	1	poli_8sides 21_whiteLine3.jpg	Practice4_b26_stereo_44KHz.wav
0	27	2	4	0	C	2	1	575	1	poli_8sides 21_whiteLine3.jpg	Practice3_b26_cut1_stereo_44KHz.wav
0	28	1	2	0	C	1	0	478	0	poli_8sides 23_whiteLine3.jpg	Practice1_b27_cut1_stereo_44KHz.wav
0	29	2	4	0	C	2	1	579	1	poli_8sides 21_whiteLine3.jpg	Practice3_b26_cut1_stereo_44KHz.wav
0	30	2	3	1	C	1	1	742	1	poli_8sides 21_whiteLine3.jpg	Practice4_b26_stereo_44KHz.wav
avg_resp = 795
1	1	4	3	2	I	2	0	1178	0	poli_8sides 1_whiteLine3.jpg	Medium_e13_stereo_44KHz.wav
1	2	3	3	2	I	2	0	876	0	poli_8sides 7_whiteLine3.jpg	Medium_e13_stereo_44KHz.wav
1	3	2	2	1	C	2	0	1266	0	poli_8sides 13_whiteLine3.jpg	MediumLong_b10_cut2_L_stereo_44KHz.wav
1	4	1	1	1	C	2	0	1130	0	poli_8sides 8_whiteLine3.jpg	Medium_e21_stereo_44KHz.wav
1	5	4	4	2	I	1	0	956	0	poli_8sides 1_whiteLine3.jpg	Medium_e26_stereo_44KHz.wav
1	6	1	2	0	C	2	1	1288	1	poli_8sides 8_whiteLine3.jpg	MediumLong_b10_cut2_L_stereo_44KHz.wav
1	7	2	1	0	C	2	1	1333	1	poli_8sides 13_whiteLine3.jpg	Medium_e21_stereo_44KHz.wav
1	8	3	4	2	I	2	0	1239	1	poli_8sides 7_whiteLine3.jpg	Medium_e26_stereo_44KHz.wav
1	9	2	1	0	C	2	1	925	1	poli_8sides 13_whiteLine3.jpg	Medium_e21_stereo_44KHz.wav
1	10	3	3	2	I	2	0	742	1	poli_8sides 7_whiteLine3.jpg	Medium_e13_stereo_44KHz.wav
1	11	1	1	1	C	2	0	996	0	poli_8sides 8_whiteLine3.jpg	Medium_e21_stereo_44KHz.wav
1	12	4	3	2	I	2	0	897	0	poli_8sides 1_whiteLine3.jpg	Medium_e13_stereo_44KHz.wav
1	13	2	2	1	C	1	1	1368	1	poli_8sides 13_whiteLine3.jpg	MediumLong_b10_cut2_L_stereo_44KHz.wav
1	14	3	4	2	I	2	0	1015	0	poli_8sides 7_whiteLine3.jpg	Medium_e26_stereo_44KHz.wav
1	15	4	4	2	I	2	0	899	0	poli_8sides 1_whiteLine3.jpg	Medium_e26_stereo_44KHz.wav
1	16	1	2	0	C	2	1	1173	1	poli_8sides 8_whiteLine3.jpg	MediumLong_b10_cut2_L_stereo_44KHz.wav
1	17	3	4	2	I	1	0	1062	1	poli_8sides 7_whiteLine3.jpg	Medium_e26_stereo_44KHz.wav
1	18	1	1	1	C	2	0	1542	0	poli_8sides 8_whiteLine3.jpg	Medium_e21_stereo_44KHz.wav
1	19	4	3	2	I	1	0	805	0	poli_8sides 1_whiteLine3.jpg	Medium_e13_stereo_44KHz.wav
1	20	2	2	1	C	1	1	1087	1	poli_8sides 13_whiteLine3.jpg	MediumLong_b10_cut2_L_stereo_44KHz.wav
1	21	3	3	2	I	2	0	1143	1	poli_8sides 7_whiteLine3.jpg	Medium_e13_stereo_44KHz.wav
1	22	1	2	0	C	1	0	1299	0	poli_8sides 8_whiteLine3.jpg	MediumLong_b10_cut2_L_stereo_44KHz.wav
1	23	2	1	0	C	2	1	1009	1	poli_8sides 13_whiteLine3.jpg	Medium_e21_stereo_44KHz.wav
1	24	4	4	2	I	2	0	863	1	poli_8sides 1_whiteLine3.jpg	Medium_e26_stereo_44KHz.wav
1	25	2	2	1	C	1	1	907	1	poli_8sides 13_whiteLine3.jpg	MediumLong_b10_cut2_L_stereo_44KHz.wav
1	26	4	4	2	I	2	0	761	0	poli_8sides 1_whiteLine3.jpg	Medium_e26_stereo_44KHz.wav
1	27	3	4	2	I	2	0	828	0	poli_8sides 7_whiteLine3.jpg	Medium_e26_stereo_44KHz.wav
1	28	1	1	1	C	2	0	1338	0	poli_8sides 8_whiteLine3.jpg	Medium_e21_stereo_44KHz.wav
1	29	2	1	0	C	1	0	1386	0	poli_8sides 13_whiteLine3.jpg	Medium_e21_stereo_44KHz.wav
1	30	1	2	0	C	1	0	1420	0	poli_8sides 8_whiteLine3.jpg	MediumLong_b10_cut2_L_stereo_44KHz.wav
1	31	3	3	2	I	2	0	937	0	poli_8sides 7_whiteLine3.jpg	Medium_e13_stereo_44KHz.wav
1	32	4	3	2	I	2	0	1039	1	poli_8sides 1_whiteLine3.jpg	Medium_e13_stereo_44KHz.wav
1	33	1	1	1	C	2	0	1310	0	poli_8sides 8_whiteLine3.jpg	Medium_e21_stereo_44KHz.wav
1	34	2	2	1	C	1	1	965	1	poli_8sides 13_whiteLine3.jpg	MediumLong_b10_cut2_L_stereo_44KHz.wav
1	35	4	3	2	I	2	0	1183	1	poli_8sides 1_whiteLine3.jpg	Medium_e13_stereo_44KHz.wav
1	36	3	3	2	I	1	0	823	0	poli_8sides 7_whiteLine3.jpg	Medium_e13_stereo_44KHz.wav
1	37	2	1	0	C	2	1	1258	1	poli_8sides 13_whiteLine3.jpg	Medium_e21_stereo_44KHz.wav
1	38	4	4	2	I	1	0	1446	0	poli_8sides 1_whiteLine3.jpg	Medium_e26_stereo_44KHz.wav
1	39	1	2	0	C	1	0	1234	0	poli_8sides 8_whiteLine3.jpg	MediumLong_b10_cut2_L_stereo_44KHz.wav
1	40	3	4	2	I	2	0	1224	0	poli_8sides 7_whiteLine3.jpg	Medium_e26_stereo_44KHz.wav
1	41	4	3	2	I	1	0	1676	0	poli_8sides 1_whiteLine3.jpg	Medium_e13_stereo_44KHz.wav
1	42	1	2	0	C	1	0	933	0	poli_8sides 8_whiteLine3.jpg	MediumLong_b10_cut2_L_stereo_44KHz.wav
1	43	2	1	0	C	1	0	1184	0	poli_8sides 13_whiteLine3.jpg	Medium_e21_stereo_44KHz.wav
1	44	3	4	2	I	2	0	1048	0	poli_8sides 7_whiteLine3.jpg	Medium_e26_stereo_44KHz.wav
1	45	4	4	2	I	2	0	1354	0	poli_8sides 1_whiteLine3.jpg	Medium_e26_stereo_44KHz.wav
1	46	3	3	2	I	2	0	955	1	poli_8sides 7_whiteLine3.jpg	Medium_e13_stereo_44KHz.wav
1	47	1	1	1	C	2	0	1244	0	poli_8sides 8_whiteLine3.jpg	Medium_e21_stereo_44KHz.wav
1	48	2	2	1	C	2	0	1565	0	poli_8sides 13_whiteLine3.jpg	MediumLong_b10_cut2_L_stereo_44KHz.wav
1	49	4	3	2	I	2	0	986	0	poli_8sides 1_whiteLine3.jpg	Medium_e13_stereo_44KHz.wav
1	50	1	1	1	C	2	0	1328	0	poli_8sides 8_whiteLine3.jpg	Medium_e21_stereo_44KHz.wav
1	51	3	4	2	I	2	0	1186	0	poli_8sides 7_whiteLine3.jpg	Medium_e26_stereo_44KHz.wav
1	52	2	2	1	C	1	1	1369	1	poli_8sides 13_whiteLine3.jpg	MediumLong_b10_cut2_L_stereo_44KHz.wav
1	53	1	2	0	C	2	1	1626	1	poli_8sides 8_whiteLine3.jpg	MediumLong_b10_cut2_L_stereo_44KHz.wav
1	54	2	1	0	C	2	1	1594	1	poli_8sides 13_whiteLine3.jpg	Medium_e21_stereo_44KHz.wav
1	55	3	3	2	I	2	0	978	0	poli_8sides 7_whiteLine3.jpg	Medium_e13_stereo_44KHz.wav
1	56	4	4	2	I	2	0	983	1	poli_8sides 1_whiteLine3.jpg	Medium_e26_stereo_44KHz.wav
1	57	3	3	2	I	1	0	1404	1	poli_8sides 7_whiteLine3.jpg	Medium_e13_stereo_44KHz.wav
1	58	1	2	0	C	2	1	1488	1	poli_8sides 8_whiteLine3.jpg	MediumLong_b10_cut2_L_stereo_44KHz.wav
1	59	2	2	1	C	1	1	1122	1	poli_8sides 13_whiteLine3.jpg	MediumLong_b10_cut2_L_stereo_44KHz.wav
1	60	4	4	2	I	2	0	636	0	poli_8sides 1_whiteLine3.jpg	Medium_e26_stereo_44KHz.wav
1	61	1	1	1	C	2	0	1045	0	poli_8sides 8_whiteLine3.jpg	Medium_e21_stereo_44KHz.wav
1	62	2	1	0	C	1	0	1288	0	poli_8sides 13_whiteLine3.jpg	Medium_e21_stereo_44KHz.wav
1	63	3	4	2	I	1	0	1355	0	poli_8sides 7_whiteLine3.jpg	Medium_e26_stereo_44KHz.wav
1	64	4	3	2	I	2	0	1837	1	poli_8sides 1_whiteLine3.jpg	Medium_e13_stereo_44KHz.wav
1	65	3	4	2	I	1	0	1118	0	poli_8sides 7_whiteLine3.jpg	Medium_e26_stereo_44KHz.wav
1	66	1	2	0	C	2	1	1444	1	poli_8sides 8_whiteLine3.jpg	MediumLong_b10_cut2_L_stereo_44KHz.wav
1	67	2	1	0	C	2	1	1597	1	poli_8sides 13_whiteLine3.jpg	Medium_e21_stereo_44KHz.wav
1	68	4	3	2	I	2	0	1331	1	poli_8sides 1_whiteLine3.jpg	Medium_e13_stereo_44KHz.wav
1	69	3	3	2	I	1	0	873	1	poli_8sides 7_whiteLine3.jpg	Medium_e13_stereo_44KHz.wav
1	70	2	2	1	C	0	0	0	0	poli_8sides 13_whiteLine3.jpg	MediumLong_b10_cut2_L_stereo_44KHz.wav
1	71	1	1	1	C	1	1	707	1	poli_8sides 8_whiteLine3.jpg	Medium_e21_stereo_44KHz.wav
1	72	4	4	2	I	2	0	1279	1	poli_8sides 1_whiteLine3.jpg	Medium_e26_stereo_44KHz.wav
1	73	1	1	1	C	2	0	1143	0	poli_8sides 8_whiteLine3.jpg	Medium_e21_stereo_44KHz.wav
1	74	2	2	1	C	1	1	1553	1	poli_8sides 13_whiteLine3.jpg	MediumLong_b10_cut2_L_stereo_44KHz.wav
1	75	3	4	2	I	2	0	992	1	poli_8sides 7_whiteLine3.jpg	Medium_e26_stereo_44KHz.wav
1	76	4	4	2	I	1	0	1164	0	poli_8sides 1_whiteLine3.jpg	Medium_e26_stereo_44KHz.wav
1	77	1	2	0	C	2	1	1611	1	poli_8sides 8_whiteLine3.jpg	MediumLong_b10_cut2_L_stereo_44KHz.wav
1	78	3	3	2	I	2	0	962	1	poli_8sides 7_whiteLine3.jpg	Medium_e13_stereo_44KHz.wav
1	79	2	1	0	C	1	0	1638	0	poli_8sides 13_whiteLine3.jpg	Medium_e21_stereo_44KHz.wav
1	80	4	3	2	I	2	0	1032	1	poli_8sides 1_whiteLine3.jpg	Medium_e13_stereo_44KHz.wav
1	81	2	1	0	C	2	1	1415	1	poli_8sides 13_whiteLine3.jpg	Medium_e21_stereo_44KHz.wav
1	82	4	3	2	I	2	0	1167	0	poli_8sides 1_whiteLine3.jpg	Medium_e13_stereo_44KHz.wav
1	83	3	4	2	I	1	0	1526	0	poli_8sides 7_whiteLine3.jpg	Medium_e26_stereo_44KHz.wav
1	84	1	1	1	C	2	0	1082	0	poli_8sides 8_whiteLine3.jpg	Medium_e21_stereo_44KHz.wav
1	85	2	2	1	C	0	0	0	0	poli_8sides 13_whiteLine3.jpg	MediumLong_b10_cut2_L_stereo_44KHz.wav
1	86	4	4	2	I	2	0	1728	1	poli_8sides 1_whiteLine3.jpg	Medium_e26_stereo_44KHz.wav
1	87	3	3	2	I	2	0	1443	1	poli_8sides 7_whiteLine3.jpg	Medium_e13_stereo_44KHz.wav
1	88	1	2	0	C	2	1	1323	1	poli_8sides 8_whiteLine3.jpg	MediumLong_b10_cut2_L_stereo_44KHz.wav
1	89	4	3	2	I	2	0	1424	1	poli_8sides 1_whiteLine3.jpg	Medium_e13_stereo_44KHz.wav
1	90	1	1	1	C	2	0	1298	0	poli_8sides 8_whiteLine3.jpg	Medium_e21_stereo_44KHz.wav
1	91	3	4	2	I	2	0	1221	0	poli_8sides 7_whiteLine3.jpg	Medium_e26_stereo_44KHz.wav
1	92	2	1	0	C	2	1	1385	1	poli_8sides 13_whiteLine3.jpg	Medium_e21_stereo_44KHz.wav
1	93	1	2	0	C	2	1	862	1	poli_8sides 8_whiteLine3.jpg	MediumLong_b10_cut2_L_stereo_44KHz.wav
1	94	3	3	2	I	0	0	0	0	poli_8sides 7_whiteLine3.jpg	Medium_e13_stereo_44KHz.wav
1	95	2	2	1	C	1	1	1051	1	poli_8sides 13_whiteLine3.jpg	MediumLong_b10_cut2_L_stereo_44KHz.wav
1	96	4	4	2	I	2	0	1175	1	poli_8sides 1_whiteLine3.jpg	Medium_e26_stereo_44KHz.wav
1	97	2	1	0	C	2	1	1187	1	poli_8sides 13_whiteLine3.jpg	Medium_e21_stereo_44KHz.wav
1	98	3	4	2	I	1	0	1271	0	poli_8sides 7_whiteLine3.jpg	Medium_e26_stereo_44KHz.wav
1	99	4	4	2	I	2	0	841	0	poli_8sides 1_whiteLine3.jpg	Medium_e26_stereo_44KHz.wav
1	100	1	1	1	C	2	0	853	0	poli_8sides 8_whiteLine3.jpg	Medium_e21_stereo_44KHz.wav
1	101	4	3	2	I	2	0	1147	1	poli_8sides 1_whiteLine3.jpg	Medium_e13_stereo_44KHz.wav
1	102	2	2	1	C	1	1	981	1	poli_8sides 13_whiteLine3.jpg	MediumLong_b10_cut2_L_stereo_44KHz.wav
1	103	1	2	0	C	2	1	996	1	poli_8sides 8_whiteLine3.jpg	MediumLong_b10_cut2_L_stereo_44KHz.wav
1	104	3	3	2	I	2	0	1269	1	poli_8sides 7_whiteLine3.jpg	Medium_e13_stereo_44KHz.wav
1	105	2	1	0	C	2	1	1130	1	poli_8sides 13_whiteLine3.jpg	Medium_e21_stereo_44KHz.wav
1	106	3	3	2	I	2	0	1333	1	poli_8sides 7_whiteLine3.jpg	Medium_e13_stereo_44KHz.wav
1	107	1	1	1	C	2	0	1436	0	poli_8sides 8_whiteLine3.jpg	Medium_e21_stereo_44KHz.wav
1	108	4	4	2	I	2	0	1531	1	poli_8sides 1_whiteLine3.jpg	Medium_e26_stereo_44KHz.wav
1	109	1	2	0	C	2	1	998	1	poli_8sides 8_whiteLine3.jpg	MediumLong_b10_cut2_L_stereo_44KHz.wav
1	110	2	2	1	C	1	1	1100	1	poli_8sides 13_whiteLine3.jpg	MediumLong_b10_cut2_L_stereo_44KHz.wav
1	111	3	4	2	I	2	0	1342	0	poli_8sides 7_whiteLine3.jpg	Medium_e26_stereo_44KHz.wav
1	112	4	3	2	I	2	0	1309	0	poli_8sides 1_whiteLine3.jpg	Medium_e13_stereo_44KHz.wav
1	113	2	1	0	C	2	1	1748	1	poli_8sides 13_whiteLine3.jpg	Medium_e21_stereo_44KHz.wav
1	114	3	4	2	I	2	0	1682	0	poli_8sides 7_whiteLine3.jpg	Medium_e26_stereo_44KHz.wav
1	115	1	1	1	C	2	0	1140	0	poli_8sides 8_whiteLine3.jpg	Medium_e21_stereo_44KHz.wav
1	116	4	3	2	I	1	0	1495	1	poli_8sides 1_whiteLine3.jpg	Medium_e13_stereo_44KHz.wav
1	117	2	2	1	C	1	1	1192	1	poli_8sides 13_whiteLine3.jpg	MediumLong_b10_cut2_L_stereo_44KHz.wav
1	118	4	4	2	I	2	0	1323	0	poli_8sides 1_whiteLine3.jpg	Medium_e26_stereo_44KHz.wav
1	119	1	2	0	C	2	1	1435	1	poli_8sides 8_whiteLine3.jpg	MediumLong_b10_cut2_L_stereo_44KHz.wav
1	120	3	3	2	I	1	0	1846	0	poli_8sides 7_whiteLine3.jpg	Medium_e13_stereo_44KHz.wav
1	121	1	1	1	C	2	0	1102	0	poli_8sides 8_whiteLine3.jpg	Medium_e21_stereo_44KHz.wav
1	122	4	4	2	I	1	0	1596	1	poli_8sides 1_whiteLine3.jpg	Medium_e26_stereo_44KHz.wav
1	123	3	4	2	I	2	0	1240	1	poli_8sides 7_whiteLine3.jpg	Medium_e26_stereo_44KHz.wav
1	124	2	1	0	C	2	1	1237	1	poli_8sides 13_whiteLine3.jpg	Medium_e21_stereo_44KHz.wav
1	125	3	3	2	I	1	0	1572	1	poli_8sides 7_whiteLine3.jpg	Medium_e13_stereo_44KHz.wav
1	126	2	2	1	C	1	1	1128	1	poli_8sides 13_whiteLine3.jpg	MediumLong_b10_cut2_L_stereo_44KHz.wav
1	127	1	2	0	C	2	1	1147	1	poli_8sides 8_whiteLine3.jpg	MediumLong_b10_cut2_L_stereo_44KHz.wav
1	128	4	3	2	I	0	0	0	0	poli_8sides 1_whiteLine3.jpg	Medium_e13_stereo_44KHz.wav
1	129	2	2	1	C	1	1	945	1	poli_8sides 13_whiteLine3.jpg	MediumLong_b10_cut2_L_stereo_44KHz.wav
1	130	4	4	2	I	2	0	1109	0	poli_8sides 1_whiteLine3.jpg	Medium_e26_stereo_44KHz.wav
1	131	3	3	2	I	2	0	1034	1	poli_8sides 7_whiteLine3.jpg	Medium_e13_stereo_44KHz.wav
1	132	1	2	0	C	2	1	1208	1	poli_8sides 8_whiteLine3.jpg	MediumLong_b10_cut2_L_stereo_44KHz.wav
1	133	4	3	2	I	2	0	893	0	poli_8sides 1_whiteLine3.jpg	Medium_e13_stereo_44KHz.wav
1	134	1	1	1	C	2	0	645	0	poli_8sides 8_whiteLine3.jpg	Medium_e21_stereo_44KHz.wav
1	135	3	4	2	I	1	0	909	1	poli_8sides 7_whiteLine3.jpg	Medium_e26_stereo_44KHz.wav
1	136	2	1	0	C	2	1	1152	1	poli_8sides 13_whiteLine3.jpg	Medium_e21_stereo_44KHz.wav
1	137	1	1	1	C	2	0	1210	0	poli_8sides 8_whiteLine3.jpg	Medium_e21_stereo_44KHz.wav
1	138	2	1	0	C	2	1	1120	1	poli_8sides 13_whiteLine3.jpg	Medium_e21_stereo_44KHz.wav
1	139	4	4	2	I	2	0	1448	1	poli_8sides 1_whiteLine3.jpg	Medium_e26_stereo_44KHz.wav
1	140	3	4	2	I	1	0	990	0	poli_8sides 7_whiteLine3.jpg	Medium_e26_stereo_44KHz.wav
1	141	2	2	1	C	1	1	1519	1	poli_8sides 13_whiteLine3.jpg	MediumLong_b10_cut2_L_stereo_44KHz.wav
1	142	4	3	2	I	1	0	1908	1	poli_8sides 1_whiteLine3.jpg	Medium_e13_stereo_44KHz.wav
1	143	3	3	2	I	2	0	924	0	poli_8sides 7_whiteLine3.jpg	Medium_e13_stereo_44KHz.wav
1	144	1	2	0	C	2	1	1582	1	poli_8sides 8_whiteLine3.jpg	MediumLong_b10_cut2_L_stereo_44KHz.wav
1	145	3	4	2	I	1	0	1306	1	poli_8sides 7_whiteLine3.jpg	Medium_e26_stereo_44KHz.wav
1	146	1	2	0	C	2	1	1348	1	poli_8sides 8_whiteLine3.jpg	MediumLong_b10_cut2_L_stereo_44KHz.wav
1	147	2	1	0	C	2	1	1411	1	poli_8sides 13_whiteLine3.jpg	Medium_e21_stereo_44KHz.wav
1	148	4	4	2	I	2	0	1958	1	poli_8sides 1_whiteLine3.jpg	Medium_e26_stereo_44KHz.wav
1	149	1	1	1	C	2	0	1727	0	poli_8sides 8_whiteLine3.jpg	Medium_e21_stereo_44KHz.wav
1	150	2	2	1	C	1	1	1006	1	poli_8sides 13_whiteLine3.jpg	MediumLong_b10_cut2_L_stereo_44KHz.wav
1	151	3	3	2	I	2	0	1014	1	poli_8sides 7_whiteLine3.jpg	Medium_e13_stereo_44KHz.wav
1	152	4	3	2	I	1	0	944	0	poli_8sides 1_whiteLine3.jpg	Medium_e13_stereo_44KHz.wav
1	153	1	1	1	C	2	0	973	0	poli_8sides 8_whiteLine3.jpg	Medium_e21_stereo_44KHz.wav
1	154	2	2	1	C	1	1	1248	1	poli_8sides 13_whiteLine3.jpg	MediumLong_b10_cut2_L_stereo_44KHz.wav
1	155	3	3	2	I	2	0	1779	1	poli_8sides 7_whiteLine3.jpg	Medium_e13_stereo_44KHz.wav
1	156	4	3	2	I	1	0	948	1	poli_8sides 1_whiteLine3.jpg	Medium_e13_stereo_44KHz.wav
1	157	3	4	2	I	2	0	1144	1	poli_8sides 7_whiteLine3.jpg	Medium_e26_stereo_44KHz.wav
1	158	2	1	0	C	2	1	1329	1	poli_8sides 13_whiteLine3.jpg	Medium_e21_stereo_44KHz.wav
1	159	4	4	2	I	2	0	1182	0	poli_8sides 1_whiteLine3.jpg	Medium_e26_stereo_44KHz.wav
1	160	1	2	0	C	2	1	1779	1	poli_8sides 8_whiteLine3.jpg	MediumLong_b10_cut2_L_stereo_44KHz.wav
1	161	3	4	2	I	2	0	1407	0	poli_8sides 7_whiteLine3.jpg	Medium_e26_stereo_44KHz.wav
1	162	2	1	0	C	2	1	1292	1	poli_8sides 13_whiteLine3.jpg	Medium_e21_stereo_44KHz.wav
1	163	4	3	2	I	1	0	1026	0	poli_8sides 1_whiteLine3.jpg	Medium_e13_stereo_44KHz.wav
1	164	1	2	0	C	2	1	1745	1	poli_8sides 8_whiteLine3.jpg	MediumLong_b10_cut2_L_stereo_44KHz.wav
1	165	4	4	2	I	2	0	1830	1	poli_8sides 1_whiteLine3.jpg	Medium_e26_stereo_44KHz.wav
1	166	3	3	2	I	2	0	929	0	poli_8sides 7_whiteLine3.jpg	Medium_e13_stereo_44KHz.wav
1	167	2	2	1	C	1	1	1316	1	poli_8sides 13_whiteLine3.jpg	MediumLong_b10_cut2_L_stereo_44KHz.wav
1	168	1	1	1	C	2	0	1113	0	poli_8sides 8_whiteLine3.jpg	Medium_e21_stereo_44KHz.wav
1	169	2	2	1	C	1	1	1020	1	poli_8sides 13_whiteLine3.jpg	MediumLong_b10_cut2_L_stereo_44KHz.wav
1	170	3	4	2	I	1	0	1954	1	poli_8sides 7_whiteLine3.jpg	Medium_e26_stereo_44KHz.wav
1	171	1	1	1	C	2	0	1098	0	poli_8sides 8_whiteLine3.jpg	Medium_e21_stereo_44KHz.wav
1	172	4	3	2	I	1	0	1192	1	poli_8sides 1_whiteLine3.jpg	Medium_e13_stereo_44KHz.wav
1	173	1	2	0	C	2	1	1682	1	poli_8sides 8_whiteLine3.jpg	MediumLong_b10_cut2_L_stereo_44KHz.wav
1	174	3	3	2	I	2	0	1493	1	poli_8sides 7_whiteLine3.jpg	Medium_e13_stereo_44KHz.wav
1	175	4	4	2	I	2	0	1116	1	poli_8sides 1_whiteLine3.jpg	Medium_e26_stereo_44KHz.wav
1	176	2	1	0	C	0	0	0	0	poli_8sides 13_whiteLine3.jpg	Medium_e21_stereo_44KHz.wav
1	177	4	3	2	I	1	0	1230	1	poli_8sides 1_whiteLine3.jpg	Medium_e13_stereo_44KHz.wav
1	178	2	2	1	C	1	1	899	1	poli_8sides 13_whiteLine3.jpg	MediumLong_b10_cut2_L_stereo_44KHz.wav
1	179	1	2	0	C	0	0	0	0	poli_8sides 8_whiteLine3.jpg	MediumLong_b10_cut2_L_stereo_44KHz.wav
1	180	3	4	2	I	1	0	1178	1	poli_8sides 7_whiteLine3.jpg	Medium_e26_stereo_44KHz.wav
1	181	1	1	1	C	2	0	1185	0	poli_8sides 8_whiteLine3.jpg	Medium_e21_stereo_44KHz.wav
1	182	2	1	0	C	2	1	1424	1	poli_8sides 13_whiteLine3.jpg	Medium_e21_stereo_44KHz.wav
1	183	4	4	2	I	2	0	1856	1	poli_8sides 1_whiteLine3.jpg	Medium_e26_stereo_44KHz.wav
1	184	3	3	2	I	2	0	1187	1	poli_8sides 7_whiteLine3.jpg	Medium_e13_stereo_44KHz.wav
1	185	2	1	0	C	2	1	933	1	poli_8sides 13_whiteLine3.jpg	Medium_e21_stereo_44KHz.wav
1	186	1	2	0	C	2	1	1573	1	poli_8sides 8_whiteLine3.jpg	MediumLong_b10_cut2_L_stereo_44KHz.wav
1	187	3	3	2	I	2	0	1873	1	poli_8sides 7_whiteLine3.jpg	Medium_e13_stereo_44KHz.wav
1	188	4	4	2	I	2	0	1214	0	poli_8sides 1_whiteLine3.jpg	Medium_e26_stereo_44KHz.wav
1	189	3	4	2	I	2	0	1966	0	poli_8sides 7_whiteLine3.jpg	Medium_e26_stereo_44KHz.wav
1	190	2	2	1	C	1	1	1030	1	poli_8sides 13_whiteLine3.jpg	MediumLong_b10_cut2_L_stereo_44KHz.wav
1	191	4	3	2	I	0	0	0	0	poli_8sides 1_whiteLine3.jpg	Medium_e13_stereo_44KHz.wav
1	192	1	1	1	C	1	1	1386	1	poli_8sides 8_whiteLine3.jpg	Medium_e21_stereo_44KHz.wav
1	193	2	2	1	C	1	1	928	1	poli_8sides 13_whiteLine3.jpg	MediumLong_b10_cut2_L_stereo_44KHz.wav
1	194	4	4	2	I	2	0	1090	0	poli_8sides 1_whiteLine3.jpg	Medium_e26_stereo_44KHz.wav
1	195	3	3	2	I	2	0	1319	0	poli_8sides 7_whiteLine3.jpg	Medium_e13_stereo_44KHz.wav
1	196	1	1	1	C	0	0	0	0	poli_8sides 8_whiteLine3.jpg	Medium_e21_stereo_44KHz.wav
1	197	4	3	2	I	2	0	1329	1	poli_8sides 1_whiteLine3.jpg	Medium_e13_stereo_44KHz.wav
1	198	2	1	0	C	1	0	1121	0	poli_8sides 13_whiteLine3.jpg	Medium_e21_stereo_44KHz.wav
1	199	1	2	0	C	2	1	1219	1	poli_8sides 8_whiteLine3.jpg	MediumLong_b10_cut2_L_stereo_44KHz.wav
1	200	3	4	2	I	1	0	1191	0	poli_8sides 7_whiteLine3.jpg	Medium_e26_stereo_44KHz.wav
2	1	2	2	1	C	1	1	1756	1	poli_8sides 18_whiteLine3.jpg	Short_b09_cut1_stereo_44KHz.wav
2	2	3	3	2	I	0	0	0	0	poli_8sides 10_whiteLine3.jpg	Short_b23_cut1_stereo_44KHz.wav
2	3	1	2	0	C	1	0	652	0	poli_8sides 4_whiteLine3.jpg	Short_b09_cut1_stereo_44KHz.wav
2	4	4	3	2	I	2	0	667	1	poli_8sides 15_whiteLine3.jpg	Short_b23_cut1_stereo_44KHz.wav
2	5	2	1	0	C	2	1	1030	1	poli_8sides 18_whiteLine3.jpg	Short_b20_cut1_stereo_44KHz.wav
2	6	3	4	2	I	2	0	722	0	poli_8sides 10_whiteLine3.jpg	Short_b22_cut1_stereo_44KHz.wav
2	7	1	1	1	C	2	0	794	0	poli_8sides 4_whiteLine3.jpg	Short_b20_cut1_stereo_44KHz.wav
2	8	4	4	2	I	2	0	805	0	poli_8sides 15_whiteLine3.jpg	Short_b22_cut1_stereo_44KHz.wav
2	9	1	1	1	C	2	0	929	0	poli_8sides 4_whiteLine3.jpg	Short_b20_cut1_stereo_44KHz.wav
2	10	4	3	2	I	1	0	1093	0	poli_8sides 15_whiteLine3.jpg	Short_b23_cut1_stereo_44KHz.wav
2	11	3	4	2	I	2	0	1453	1	poli_8sides 10_whiteLine3.jpg	Short_b22_cut1_stereo_44KHz.wav
2	12	2	2	1	C	2	0	920	0	poli_8sides 18_whiteLine3.jpg	Short_b09_cut1_stereo_44KHz.wav
2	13	4	4	2	I	2	0	859	1	poli_8sides 15_whiteLine3.jpg	Short_b22_cut1_stereo_44KHz.wav
2	14	1	2	0	C	1	0	767	0	poli_8sides 4_whiteLine3.jpg	Short_b09_cut1_stereo_44KHz.wav
2	15	2	1	0	C	2	1	1187	1	poli_8sides 18_whiteLine3.jpg	Short_b20_cut1_stereo_44KHz.wav
2	16	3	3	2	I	2	0	904	0	poli_8sides 10_whiteLine3.jpg	Short_b23_cut1_stereo_44KHz.wav
2	17	4	3	2	I	2	0	891	1	poli_8sides 15_whiteLine3.jpg	Short_b23_cut1_stereo_44KHz.wav
2	18	3	3	2	I	1	0	873	1	poli_8sides 10_whiteLine3.jpg	Short_b23_cut1_stereo_44KHz.wav
2	19	1	2	0	C	2	1	1040	1	poli_8sides 4_whiteLine3.jpg	Short_b09_cut1_stereo_44KHz.wav
2	20	2	2	1	C	1	1	836	1	poli_8sides 18_whiteLine3.jpg	Short_b09_cut1_stereo_44KHz.wav
2	21	1	1	1	C	1	1	999	1	poli_8sides 4_whiteLine3.jpg	Short_b20_cut1_stereo_44KHz.wav
2	22	4	4	2	I	2	0	1208	0	poli_8sides 15_whiteLine3.jpg	Short_b22_cut1_stereo_44KHz.wav
2	23	3	4	2	I	2	0	905	0	poli_8sides 10_whiteLine3.jpg	Short_b22_cut1_stereo_44KHz.wav
2	24	2	1	0	C	2	1	1076	1	poli_8sides 18_whiteLine3.jpg	Short_b20_cut1_stereo_44KHz.wav
2	25	3	4	2	I	1	0	934	1	poli_8sides 10_whiteLine3.jpg	Short_b22_cut1_stereo_44KHz.wav
2	26	2	2	1	C	1	1	871	1	poli_8sides 18_whiteLine3.jpg	Short_b09_cut1_stereo_44KHz.wav
2	27	1	1	1	C	1	1	1283	1	poli_8sides 4_whiteLine3.jpg	Short_b20_cut1_stereo_44KHz.wav
2	28	4	3	2	I	2	0	1074	0	poli_8sides 15_whiteLine3.jpg	Short_b23_cut1_stereo_44KHz.wav
2	29	3	3	2	I	1	0	952	1	poli_8sides 10_whiteLine3.jpg	Short_b23_cut1_stereo_44KHz.wav
2	30	4	4	2	I	2	0	903	1	poli_8sides 15_whiteLine3.jpg	Short_b22_cut1_stereo_44KHz.wav
2	31	2	1	0	C	2	1	909	1	poli_8sides 18_whiteLine3.jpg	Short_b20_cut1_stereo_44KHz.wav
2	32	1	2	0	C	2	1	1416	1	poli_8sides 4_whiteLine3.jpg	Short_b09_cut1_stereo_44KHz.wav
2	33	4	3	2	I	2	0	1117	1	poli_8sides 15_whiteLine3.jpg	Short_b23_cut1_stereo_44KHz.wav
2	34	3	4	2	I	1	0	878	1	poli_8sides 10_whiteLine3.jpg	Short_b22_cut1_stereo_44KHz.wav
2	35	2	2	1	C	1	1	1261	1	poli_8sides 18_whiteLine3.jpg	Short_b09_cut1_stereo_44KHz.wav
2	36	1	2	0	C	1	0	1544	0	poli_8sides 4_whiteLine3.jpg	Short_b09_cut1_stereo_44KHz.wav
2	37	2	1	0	C	2	1	690	1	poli_8sides 18_whiteLine3.jpg	Short_b20_cut1_stereo_44KHz.wav
2	38	4	4	2	I	2	0	824	0	poli_8sides 15_whiteLine3.jpg	Short_b22_cut1_stereo_44KHz.wav
2	39	1	1	1	C	2	0	837	0	poli_8sides 4_whiteLine3.jpg	Short_b20_cut1_stereo_44KHz.wav
2	40	3	3	2	I	1	0	1025	0	poli_8sides 10_whiteLine3.jpg	Short_b23_cut1_stereo_44KHz.wav
2	41	4	4	2	I	2	0	1118	1	poli_8sides 15_whiteLine3.jpg	Short_b22_cut1_stereo_44KHz.wav
2	42	3	4	2	I	1	0	1176	0	poli_8sides 10_whiteLine3.jpg	Short_b22_cut1_stereo_44KHz.wav
2	43	2	2	1	C	1	1	1086	1	poli_8sides 18_whiteLine3.jpg	Short_b09_cut1_stereo_44KHz.wav
2	44	1	1	1	C	1	1	1147	1	poli_8sides 4_whiteLine3.jpg	Short_b20_cut1_stereo_44KHz.wav
2	45	2	1	0	C	2	1	792	1	poli_8sides 18_whiteLine3.jpg	Short_b20_cut1_stereo_44KHz.wav
2	46	3	3	2	I	2	0	1281	1	poli_8sides 10_whiteLine3.jpg	Short_b23_cut1_stereo_44KHz.wav
2	47	1	2	0	C	2	1	1069	1	poli_8sides 4_whiteLine3.jpg	Short_b09_cut1_stereo_44KHz.wav
2	48	4	3	2	I	2	0	1715	0	poli_8sides 15_whiteLine3.jpg	Short_b23_cut1_stereo_44KHz.wav
2	49	2	2	1	C	1	1	816	1	poli_8sides 18_whiteLine3.jpg	Short_b09_cut1_stereo_44KHz.wav
2	50	1	2	0	C	2	1	755	1	poli_8sides 4_whiteLine3.jpg	Short_b09_cut1_stereo_44KHz.wav
2	51	4	4	2	I	1	0	1024	0	poli_8sides 15_whiteLine3.jpg	Short_b22_cut1_stereo_44KHz.wav
2	52	3	3	2	I	2	0	799	0	poli_8sides 10_whiteLine3.jpg	Short_b23_cut1_stereo_44KHz.wav
2	53	1	1	1	C	1	1	919	1	poli_8sides 4_whiteLine3.jpg	Short_b20_cut1_stereo_44KHz.wav
2	54	4	3	2	I	2	0	721	1	poli_8sides 15_whiteLine3.jpg	Short_b23_cut1_stereo_44KHz.wav
2	55	2	1	0	C	2	1	832	1	poli_8sides 18_whiteLine3.jpg	Short_b20_cut1_stereo_44KHz.wav
2	56	3	4	2	I	1	0	1022	0	poli_8sides 10_whiteLine3.jpg	Short_b22_cut1_stereo_44KHz.wav
2	57	2	1	0	C	2	1	781	1	poli_8sides 18_whiteLine3.jpg	Short_b20_cut1_stereo_44KHz.wav
2	58	4	3	2	I	2	0	1413	0	poli_8sides 15_whiteLine3.jpg	Short_b23_cut1_stereo_44KHz.wav
2	59	3	4	2	I	2	0	1220	0	poli_8sides 10_whiteLine3.jpg	Short_b22_cut1_stereo_44KHz.wav
2	60	1	1	1	C	1	1	1047	1	poli_8sides 4_whiteLine3.jpg	Short_b20_cut1_stereo_44KHz.wav
2	61	3	3	2	I	2	0	892	0	poli_8sides 10_whiteLine3.jpg	Short_b23_cut1_stereo_44KHz.wav
2	62	1	2	0	C	2	1	1201	1	poli_8sides 4_whiteLine3.jpg	Short_b09_cut1_stereo_44KHz.wav
2	63	4	4	2	I	2	0	1206	0	poli_8sides 15_whiteLine3.jpg	Short_b22_cut1_stereo_44KHz.wav
2	64	2	2	1	C	1	1	1495	1	poli_8sides 18_whiteLine3.jpg	Short_b09_cut1_stereo_44KHz.wav
2	65	4	4	2	I	2	0	1260	1	poli_8sides 15_whiteLine3.jpg	Short_b22_cut1_stereo_44KHz.wav
2	66	3	3	2	I	2	0	1098	1	poli_8sides 10_whiteLine3.jpg	Short_b23_cut1_stereo_44KHz.wav
2	67	1	2	0	C	2	1	1436	1	poli_8sides 4_whiteLine3.jpg	Short_b09_cut1_stereo_44KHz.wav
2	68	2	1	0	C	2	1	1269	1	poli_8sides 18_whiteLine3.jpg	Short_b20_cut1_stereo_44KHz.wav
2	69	1	1	1	C	1	1	1060	1	poli_8sides 4_whiteLine3.jpg	Short_b20_cut1_stereo_44KHz.wav
2	70	2	2	1	C	1	1	1227	1	poli_8sides 18_whiteLine3.jpg	Short_b09_cut1_stereo_44KHz.wav
2	71	3	4	2	I	2	0	1353	1	poli_8sides 10_whiteLine3.jpg	Short_b22_cut1_stereo_44KHz.wav
2	72	4	3	2	I	1	0	1894	1	poli_8sides 15_whiteLine3.jpg	Short_b23_cut1_stereo_44KHz.wav
2	73	3	3	2	I	2	0	1163	0	poli_8sides 10_whiteLine3.jpg	Short_b23_cut1_stereo_44KHz.wav
2	74	4	4	2	I	2	0	952	1	poli_8sides 15_whiteLine3.jpg	Short_b22_cut1_stereo_44KHz.wav
2	75	2	1	0	C	2	1	707	1	poli_8sides 18_whiteLine3.jpg	Short_b20_cut1_stereo_44KHz.wav
2	76	1	1	1	C	2	0	1084	0	poli_8sides 4_whiteLine3.jpg	Short_b20_cut1_stereo_44KHz.wav
2	77	2	2	1	C	2	0	701	0	poli_8sides 18_whiteLine3.jpg	Short_b09_cut1_stereo_44KHz.wav
2	78	3	4	2	I	2	0	980	0	poli_8sides 10_whiteLine3.jpg	Short_b22_cut1_stereo_44KHz.wav
2	79	1	2	0	C	2	1	1030	1	poli_8sides 4_whiteLine3.jpg	Short_b09_cut1_stereo_44KHz.wav
2	80	4	3	2	I	2	0	1495	1	poli_8sides 15_whiteLine3.jpg	Short_b23_cut1_stereo_44KHz.wav
2	81	2	2	1	C	1	1	797	1	poli_8sides 18_whiteLine3.jpg	Short_b09_cut1_stereo_44KHz.wav
2	82	4	3	2	I	2	0	814	1	poli_8sides 15_whiteLine3.jpg	Short_b23_cut1_stereo_44KHz.wav
2	83	3	4	2	I	2	0	1322	1	poli_8sides 10_whiteLine3.jpg	Short_b22_cut1_stereo_44KHz.wav
2	84	1	1	1	C	1	1	1271	1	poli_8sides 4_whiteLine3.jpg	Short_b20_cut1_stereo_44KHz.wav
2	85	3	3	2	I	1	0	957	0	poli_8sides 10_whiteLine3.jpg	Short_b23_cut1_stereo_44KHz.wav
2	86	2	1	0	C	2	1	777	1	poli_8sides 18_whiteLine3.jpg	Short_b20_cut1_stereo_44KHz.wav
2	87	4	4	2	I	2	0	839	0	poli_8sides 15_whiteLine3.jpg	Short_b22_cut1_stereo_44KHz.wav
2	88	1	2	0	C	1	0	1299	0	poli_8sides 4_whiteLine3.jpg	Short_b09_cut1_stereo_44KHz.wav
2	89	2	2	1	C	1	1	1509	1	poli_8sides 18_whiteLine3.jpg	Short_b09_cut1_stereo_44KHz.wav
2	90	3	3	2	I	1	0	1405	1	poli_8sides 10_whiteLine3.jpg	Short_b23_cut1_stereo_44KHz.wav
2	91	1	1	1	C	1	1	1294	1	poli_8sides 4_whiteLine3.jpg	Short_b20_cut1_stereo_44KHz.wav
2	92	4	3	2	I	2	0	1121	0	poli_8sides 15_whiteLine3.jpg	Short_b23_cut1_stereo_44KHz.wav
2	93	2	1	0	C	2	1	796	1	poli_8sides 18_whiteLine3.jpg	Short_b20_cut1_stereo_44KHz.wav
2	94	4	4	2	I	2	0	1178	1	poli_8sides 15_whiteLine3.jpg	Short_b22_cut1_stereo_44KHz.wav
2	95	1	2	0	C	1	0	1232	0	poli_8sides 4_whiteLine3.jpg	Short_b09_cut1_stereo_44KHz.wav
2	96	3	4	2	I	1	0	1512	1	poli_8sides 10_whiteLine3.jpg	Short_b22_cut1_stereo_44KHz.wav
2	97	4	3	2	I	2	0	1138	0	poli_8sides 15_whiteLine3.jpg	Short_b23_cut1_stereo_44KHz.wav
2	98	2	2	1	C	1	1	1306	1	poli_8sides 18_whiteLine3.jpg	Short_b09_cut1_stereo_44KHz.wav
2	99	1	2	0	C	2	1	1145	1	poli_8sides 4_whiteLine3.jpg	Short_b09_cut1_stereo_44KHz.wav
2	100	3	4	2	I	2	0	1244	0	poli_8sides 10_whiteLine3.jpg	Short_b22_cut1_stereo_44KHz.wav
2	101	2	1	0	C	2	1	817	1	poli_8sides 18_whiteLine3.jpg	Short_b20_cut1_stereo_44KHz.wav
2	102	1	1	1	C	1	1	1152	1	poli_8sides 4_whiteLine3.jpg	Short_b20_cut1_stereo_44KHz.wav
2	103	3	3	2	I	1	0	1758	1	poli_8sides 10_whiteLine3.jpg	Short_b23_cut1_stereo_44KHz.wav
2	104	4	4	2	I	2	0	1133	0	poli_8sides 15_whiteLine3.jpg	Short_b22_cut1_stereo_44KHz.wav
2	105	1	1	1	C	1	1	974	1	poli_8sides 4_whiteLine3.jpg	Short_b20_cut1_stereo_44KHz.wav
2	106	2	1	0	C	2	1	1245	1	poli_8sides 18_whiteLine3.jpg	Short_b20_cut1_stereo_44KHz.wav
2	107	3	4	2	I	1	0	1418	0	poli_8sides 10_whiteLine3.jpg	Short_b22_cut1_stereo_44KHz.wav
2	108	4	4	2	I	2	0	1072	0	poli_8sides 15_whiteLine3.jpg	Short_b22_cut1_stereo_44KHz.wav
2	109	1	2	0	C	1	0	1288	0	poli_8sides 4_whiteLine3.jpg	Short_b09_cut1_stereo_44KHz.wav
2	110	2	2	1	C	1	1	1341	1	poli_8sides 18_whiteLine3.jpg	Short_b09_cut1_stereo_44KHz.wav
2	111	4	3	2	I	2	0	815	1	poli_8sides 15_whiteLine3.jpg	Short_b23_cut1_stereo_44KHz.wav
2	112	3	3	2	I	2	0	1097	0	poli_8sides 10_whiteLine3.jpg	Short_b23_cut1_stereo_44KHz.wav
2	113	2	2	1	C	1	1	775	1	poli_8sides 18_whiteLine3.jpg	Short_b09_cut1_stereo_44KHz.wav
2	114	4	3	2	I	2	0	742	1	poli_8sides 15_whiteLine3.jpg	Short_b23_cut1_stereo_44KHz.wav
2	115	1	1	1	C	1	1	882	1	poli_8sides 4_whiteLine3.jpg	Short_b20_cut1_stereo_44KHz.wav
2	116	3	3	2	I	1	0	1141	1	poli_8sides 10_whiteLine3.jpg	Short_b23_cut1_stereo_44KHz.wav
2	117	1	2	0	C	2	1	1118	1	poli_8sides 4_whiteLine3.jpg	Short_b09_cut1_stereo_44KHz.wav
2	118	3	4	2	I	2	0	1035	0	poli_8sides 10_whiteLine3.jpg	Short_b22_cut1_stereo_44KHz.wav
2	119	4	4	2	I	2	0	1382	0	poli_8sides 15_whiteLine3.jpg	Short_b22_cut1_stereo_44KHz.wav
2	120	2	1	0	C	2	1	771	1	poli_8sides 18_whiteLine3.jpg	Short_b20_cut1_stereo_44KHz.wav
2	121	1	2	0	C	2	1	1736	1	poli_8sides 4_whiteLine3.jpg	Short_b09_cut1_stereo_44KHz.wav
2	122	2	1	0	C	2	1	725	1	poli_8sides 18_whiteLine3.jpg	Short_b20_cut1_stereo_44KHz.wav
2	123	4	4	2	I	2	0	699	0	poli_8sides 15_whiteLine3.jpg	Short_b22_cut1_stereo_44KHz.wav
2	124	3	3	2	I	2	0	826	1	poli_8sides 10_whiteLine3.jpg	Short_b23_cut1_stereo_44KHz.wav
2	125	2	2	1	C	1	1	883	1	poli_8sides 18_whiteLine3.jpg	Short_b09_cut1_stereo_44KHz.wav
2	126	1	1	1	C	1	1	1116	1	poli_8sides 4_whiteLine3.jpg	Short_b20_cut1_stereo_44KHz.wav
2	127	4	3	2	I	2	0	917	0	poli_8sides 15_whiteLine3.jpg	Short_b23_cut1_stereo_44KHz.wav
2	128	3	4	2	I	2	0	770	1	poli_8sides 10_whiteLine3.jpg	Short_b22_cut1_stereo_44KHz.wav
2	129	1	1	1	C	1	1	1222	1	poli_8sides 4_whiteLine3.jpg	Short_b20_cut1_stereo_44KHz.wav
2	130	4	3	2	I	2	0	1704	1	poli_8sides 15_whiteLine3.jpg	Short_b23_cut1_stereo_44KHz.wav
2	131	3	3	2	I	1	0	1557	0	poli_8sides 10_whiteLine3.jpg	Short_b23_cut1_stereo_44KHz.wav
2	132	2	2	1	C	1	1	1358	1	poli_8sides 18_whiteLine3.jpg	Short_b09_cut1_stereo_44KHz.wav
2	133	1	2	0	C	2	1	1777	1	poli_8sides 4_whiteLine3.jpg	Short_b09_cut1_stereo_44KHz.wav
2	134	4	4	2	I	2	0	1145	1	poli_8sides 15_whiteLine3.jpg	Short_b22_cut1_stereo_44KHz.wav
2	135	3	4	2	I	1	0	1174	0	poli_8sides 10_whiteLine3.jpg	Short_b22_cut1_stereo_44KHz.wav
2	136	2	1	0	C	2	1	904	1	poli_8sides 18_whiteLine3.jpg	Short_b20_cut1_stereo_44KHz.wav
2	137	4	3	2	I	2	0	1155	0	poli_8sides 15_whiteLine3.jpg	Short_b23_cut1_stereo_44KHz.wav
2	138	2	2	1	C	1	1	1409	1	poli_8sides 18_whiteLine3.jpg	Short_b09_cut1_stereo_44KHz.wav
2	139	3	3	2	I	2	0	1141	0	poli_8sides 10_whiteLine3.jpg	Short_b23_cut1_stereo_44KHz.wav
2	140	1	2	0	C	2	1	845	1	poli_8sides 4_whiteLine3.jpg	Short_b09_cut1_stereo_44KHz.wav
2	141	2	1	0	C	2	1	1134	1	poli_8sides 18_whiteLine3.jpg	Short_b20_cut1_stereo_44KHz.wav
2	142	1	1	1	C	1	1	866	1	poli_8sides 4_whiteLine3.jpg	Short_b20_cut1_stereo_44KHz.wav
2	143	3	4	2	I	2	0	941	1	poli_8sides 10_whiteLine3.jpg	Short_b22_cut1_stereo_44KHz.wav
2	144	4	4	2	I	2	0	1644	1	poli_8sides 15_whiteLine3.jpg	Short_b22_cut1_stereo_44KHz.wav
2	145	1	1	1	C	1	1	779	1	poli_8sides 4_whiteLine3.jpg	Short_b20_cut1_stereo_44KHz.wav
2	146	3	4	2	I	2	0	696	0	poli_8sides 10_whiteLine3.jpg	Short_b22_cut1_stereo_44KHz.wav
2	147	2	2	1	C	1	1	753	1	poli_8sides 18_whiteLine3.jpg	Short_b09_cut1_stereo_44KHz.wav
2	148	4	3	2	I	2	0	1376	1	poli_8sides 15_whiteLine3.jpg	Short_b23_cut1_stereo_44KHz.wav
2	149	2	1	0	C	2	1	1500	1	poli_8sides 18_whiteLine3.jpg	Short_b20_cut1_stereo_44KHz.wav
2	150	1	2	0	C	2	1	942	1	poli_8sides 4_whiteLine3.jpg	Short_b09_cut1_stereo_44KHz.wav
2	151	3	3	2	I	2	0	1848	1	poli_8sides 10_whiteLine3.jpg	Short_b23_cut1_stereo_44KHz.wav
2	152	4	4	2	I	2	0	1270	1	poli_8sides 15_whiteLine3.jpg	Short_b22_cut1_stereo_44KHz.wav
2	153	2	2	1	C	1	1	1332	1	poli_8sides 18_whiteLine3.jpg	Short_b09_cut1_stereo_44KHz.wav
2	154	1	1	1	C	1	1	1525	1	poli_8sides 4_whiteLine3.jpg	Short_b20_cut1_stereo_44KHz.wav
2	155	3	4	2	I	2	0	1131	0	poli_8sides 10_whiteLine3.jpg	Short_b22_cut1_stereo_44KHz.wav
2	156	4	3	2	I	2	0	953	0	poli_8sides 15_whiteLine3.jpg	Short_b23_cut1_stereo_44KHz.wav
2	157	2	1	0	C	2	1	1311	1	poli_8sides 18_whiteLine3.jpg	Short_b20_cut1_stereo_44KHz.wav
2	158	1	2	0	C	2	1	1300	1	poli_8sides 4_whiteLine3.jpg	Short_b09_cut1_stereo_44KHz.wav
2	159	4	4	2	I	1	0	1213	0	poli_8sides 15_whiteLine3.jpg	Short_b22_cut1_stereo_44KHz.wav
2	160	3	3	2	I	2	0	881	1	poli_8sides 10_whiteLine3.jpg	Short_b23_cut1_stereo_44KHz.wav
2	161	1	1	1	C	1	1	1384	1	poli_8sides 4_whiteLine3.jpg	Short_b20_cut1_stereo_44KHz.wav
2	162	3	4	2	I	2	0	964	0	poli_8sides 10_whiteLine3.jpg	Short_b22_cut1_stereo_44KHz.wav
2	163	4	3	2	I	2	0	1029	1	poli_8sides 15_whiteLine3.jpg	Short_b23_cut1_stereo_44KHz.wav
2	164	2	1	0	C	2	1	1043	1	poli_8sides 18_whiteLine3.jpg	Short_b20_cut1_stereo_44KHz.wav
2	165	4	4	2	I	2	0	1240	1	poli_8sides 15_whiteLine3.jpg	Short_b22_cut1_stereo_44KHz.wav
2	166	1	2	0	C	2	1	923	1	poli_8sides 4_whiteLine3.jpg	Short_b09_cut1_stereo_44KHz.wav
2	167	2	2	1	C	1	1	1374	1	poli_8sides 18_whiteLine3.jpg	Short_b09_cut1_stereo_44KHz.wav
2	168	3	3	2	I	2	0	1276	1	poli_8sides 10_whiteLine3.jpg	Short_b23_cut1_stereo_44KHz.wav
2	169	4	4	2	I	2	0	797	0	poli_8sides 15_whiteLine3.jpg	Short_b22_cut1_stereo_44KHz.wav
2	170	3	4	2	I	2	0	919	0	poli_8sides 10_whiteLine3.jpg	Short_b22_cut1_stereo_44KHz.wav
2	171	2	2	1	C	1	1	929	1	poli_8sides 18_whiteLine3.jpg	Short_b09_cut1_stereo_44KHz.wav
2	172	1	2	0	C	2	1	745	1	poli_8sides 4_whiteLine3.jpg	Short_b09_cut1_stereo_44KHz.wav
2	173	3	3	2	I	2	0	1476	0	poli_8sides 10_whiteLine3.jpg	Short_b23_cut1_stereo_44KHz.wav
2	174	1	1	1	C	1	1	1669	1	poli_8sides 4_whiteLine3.jpg	Short_b20_cut1_stereo_44KHz.wav
2	175	4	3	2	I	2	0	1429	0	poli_8sides 15_whiteLine3.jpg	Short_b23_cut1_stereo_44KHz.wav
2	176	2	1	0	C	2	1	917	1	poli_8sides 18_whiteLine3.jpg	Short_b20_cut1_stereo_44KHz.wav
2	177	4	3	2	I	2	0	1036	0	poli_8sides 15_whiteLine3.jpg	Short_b23_cut1_stereo_44KHz.wav
2	178	3	3	2	I	1	0	1077	1	poli_8sides 10_whiteLine3.jpg	Short_b23_cut1_stereo_44KHz.wav
2	179	2	1	0	C	2	1	725	1	poli_8sides 18_whiteLine3.jpg	Short_b20_cut1_stereo_44KHz.wav
2	180	1	1	1	C	1	1	788	1	poli_8sides 4_whiteLine3.jpg	Short_b20_cut1_stereo_44KHz.wav
2	181	3	4	2	I	2	0	716	1	poli_8sides 10_whiteLine3.jpg	Short_b22_cut1_stereo_44KHz.wav
2	182	2	2	1	C	1	1	1106	1	poli_8sides 18_whiteLine3.jpg	Short_b09_cut1_stereo_44KHz.wav
2	183	4	4	2	I	2	0	1283	1	poli_8sides 15_whiteLine3.jpg	Short_b22_cut1_stereo_44KHz.wav
2	184	1	2	0	C	2	1	1082	1	poli_8sides 4_whiteLine3.jpg	Short_b09_cut1_stereo_44KHz.wav
2	185	4	4	2	I	2	0	840	1	poli_8sides 15_whiteLine3.jpg	Short_b22_cut1_stereo_44KHz.wav
2	186	2	1	0	C	2	1	962	1	poli_8sides 18_whiteLine3.jpg	Short_b20_cut1_stereo_44KHz.wav
2	187	3	4	2	I	2	0	1139	0	poli_8sides 10_whiteLine3.jpg	Short_b22_cut1_stereo_44KHz.wav
2	188	1	2	0	C	2	1	1540	1	poli_8sides 4_whiteLine3.jpg	Short_b09_cut1_stereo_44KHz.wav
2	189	3	3	2	I	2	0	1378	1	poli_8sides 10_whiteLine3.jpg	Short_b23_cut1_stereo_44KHz.wav
2	190	1	1	1	C	1	1	1105	1	poli_8sides 4_whiteLine3.jpg	Short_b20_cut1_stereo_44KHz.wav
2	191	2	2	1	C	1	1	1309	1	poli_8sides 18_whiteLine3.jpg	Short_b09_cut1_stereo_44KHz.wav
2	192	4	3	2	I	2	0	1075	0	poli_8sides 15_whiteLine3.jpg	Short_b23_cut1_stereo_44KHz.wav
2	193	3	4	2	I	2	0	1131	1	poli_8sides 10_whiteLine3.jpg	Short_b22_cut1_stereo_44KHz.wav
2	194	4	3	2	I	2	0	1191	1	poli_8sides 15_whiteLine3.jpg	Short_b23_cut1_stereo_44KHz.wav
2	195	1	1	1	C	1	1	1253	1	poli_8sides 4_whiteLine3.jpg	Short_b20_cut1_stereo_44KHz.wav
2	196	2	2	1	C	1	1	1226	1	poli_8sides 18_whiteLine3.jpg	Short_b09_cut1_stereo_44KHz.wav
2	197	3	3	2	I	2	0	1282	1	poli_8sides 10_whiteLine3.jpg	Short_b23_cut1_stereo_44KHz.wav
2	198	1	2	0	C	1	0	1574	0	poli_8sides 4_whiteLine3.jpg	Short_b09_cut1_stereo_44KHz.wav
2	199	4	4	2	I	2	0	1131	0	poli_8sides 15_whiteLine3.jpg	Short_b22_cut1_stereo_44KHz.wav
2	200	2	1	0	C	2	1	1311	1	poli_8sides 18_whiteLine3.jpg	Short_b20_cut1_stereo_44KHz.wav
3	1	1	2	0	C	0	0	0	0	poli_8sides 9_whiteLine3.jpg	MediumLong_e19_stereo_44KHz.wav
3	2	2	2	1	C	0	0	0	0	poli_8sides 12_whiteLine3.jpg	MediumLong_e19_stereo_44KHz.wav
3	3	3	3	2	I	2	0	934	1	poli_8sides 6_whiteLine3.jpg	MediumLong_e17_cut2_stereo_44KHz.wav
3	4	4	4	2	I	2	0	911	0	poli_8sides 11_whiteLine3.jpg	MediumLong_e04_stereo_44KHz.wav
3	5	1	1	1	C	1	1	1428	1	poli_8sides 9_whiteLine3.jpg	Medium_e01_cut1_stereo_44KHz.wav
3	6	4	3	2	I	2	0	710	1	poli_8sides 11_whiteLine3.jpg	MediumLong_e17_cut2_stereo_44KHz.wav
3	7	3	4	2	I	2	0	1050	1	poli_8sides 6_whiteLine3.jpg	MediumLong_e04_stereo_44KHz.wav
3	8	2	1	0	C	2	1	994	1	poli_8sides 12_whiteLine3.jpg	Medium_e01_cut1_stereo_44KHz.wav
3	9	3	3	2	I	2	0	673	0	poli_8sides 6_whiteLine3.jpg	MediumLong_e17_cut2_stereo_44KHz.wav
3	10	1	2	0	C	1	0	1370	0	poli_8sides 9_whiteLine3.jpg	MediumLong_e19_stereo_44KHz.wav
3	11	4	3	2	I	2	0	837	1	poli_8sides 11_whiteLine3.jpg	MediumLong_e17_cut2_stereo_44KHz.wav
3	12	2	1	0	C	2	1	990	1	poli_8sides 12_whiteLine3.jpg	Medium_e01_cut1_stereo_44KHz.wav
3	13	1	1	1	C	1	1	757	1	poli_8sides 9_whiteLine3.jpg	Medium_e01_cut1_stereo_44KHz.wav
3	14	2	2	1	C	1	1	1274	1	poli_8sides 12_whiteLine3.jpg	MediumLong_e19_stereo_44KHz.wav
3	15	3	4	2	I	2	0	966	0	poli_8sides 6_whiteLine3.jpg	MediumLong_e04_stereo_44KHz.wav
3	16	4	4	2	I	2	0	1160	0	poli_8sides 11_whiteLine3.jpg	MediumLong_e04_stereo_44KHz.wav
3	17	1	1	1	C	1	1	946	1	poli_8sides 9_whiteLine3.jpg	Medium_e01_cut1_stereo_44KHz.wav
3	18	3	3	2	I	2	0	865	0	poli_8sides 6_whiteLine3.jpg	MediumLong_e17_cut2_stereo_44KHz.wav
3	19	2	1	0	C	2	1	1158	1	poli_8sides 12_whiteLine3.jpg	Medium_e01_cut1_stereo_44KHz.wav
3	20	4	3	2	I	1	0	1375	0	poli_8sides 11_whiteLine3.jpg	MediumLong_e17_cut2_stereo_44KHz.wav
3	21	1	2	0	C	2	1	1005	1	poli_8sides 9_whiteLine3.jpg	MediumLong_e19_stereo_44KHz.wav
3	22	2	2	1	C	2	0	1155	0	poli_8sides 12_whiteLine3.jpg	MediumLong_e19_stereo_44KHz.wav
3	23	3	4	2	I	2	0	1072	1	poli_8sides 6_whiteLine3.jpg	MediumLong_e04_stereo_44KHz.wav
3	24	4	4	2	I	1	0	1013	1	poli_8sides 11_whiteLine3.jpg	MediumLong_e04_stereo_44KHz.wav
3	25	2	2	1	C	2	0	870	0	poli_8sides 12_whiteLine3.jpg	MediumLong_e19_stereo_44KHz.wav
3	26	3	4	2	I	2	0	1430	1	poli_8sides 6_whiteLine3.jpg	MediumLong_e04_stereo_44KHz.wav
3	27	1	1	1	C	2	0	1730	0	poli_8sides 9_whiteLine3.jpg	Medium_e01_cut1_stereo_44KHz.wav
3	28	4	3	2	I	2	0	744	0	poli_8sides 11_whiteLine3.jpg	MediumLong_e17_cut2_stereo_44KHz.wav
3	29	1	2	0	C	1	0	1272	0	poli_8sides 9_whiteLine3.jpg	MediumLong_e19_stereo_44KHz.wav
3	30	2	1	0	C	2	1	853	1	poli_8sides 12_whiteLine3.jpg	Medium_e01_cut1_stereo_44KHz.wav
3	31	3	3	2	I	2	0	785	0	poli_8sides 6_whiteLine3.jpg	MediumLong_e17_cut2_stereo_44KHz.wav
3	32	4	4	2	I	2	0	1329	1	poli_8sides 11_whiteLine3.jpg	MediumLong_e04_stereo_44KHz.wav
3	33	1	2	0	C	2	1	1171	1	poli_8sides 9_whiteLine3.jpg	MediumLong_e19_stereo_44KHz.wav
3	34	4	4	2	I	2	0	843	1	poli_8sides 11_whiteLine3.jpg	MediumLong_e04_stereo_44KHz.wav
3	35	2	2	1	C	2	0	918	0	poli_8sides 12_whiteLine3.jpg	MediumLong_e19_stereo_44KHz.wav
3	36	3	4	2	I	2	0	906	1	poli_8sides 6_whiteLine3.jpg	MediumLong_e04_stereo_44KHz.wav
3	37	2	1	0	C	2	1	928	1	poli_8sides 12_whiteLine3.jpg	Medium_e01_cut1_stereo_44KHz.wav
3	38	4	3	2	I	1	0	1532	1	poli_8sides 11_whiteLine3.jpg	MediumLong_e17_cut2_stereo_44KHz.wav
3	39	3	3	2	I	1	0	1110	0	poli_8sides 6_whiteLine3.jpg	MediumLong_e17_cut2_stereo_44KHz.wav
3	40	1	1	1	C	1	1	1226	1	poli_8sides 9_whiteLine3.jpg	Medium_e01_cut1_stereo_44KHz.wav
3	41	4	4	2	I	2	0	705	1	poli_8sides 11_whiteLine3.jpg	MediumLong_e04_stereo_44KHz.wav
3	42	1	1	1	C	2	0	1066	0	poli_8sides 9_whiteLine3.jpg	Medium_e01_cut1_stereo_44KHz.wav
3	43	3	3	2	I	2	0	888	1	poli_8sides 6_whiteLine3.jpg	MediumLong_e17_cut2_stereo_44KHz.wav
3	44	2	1	0	C	2	1	1063	1	poli_8sides 12_whiteLine3.jpg	Medium_e01_cut1_stereo_44KHz.wav
3	45	3	4	2	I	2	0	870	1	poli_8sides 6_whiteLine3.jpg	MediumLong_e04_stereo_44KHz.wav
3	46	1	2	0	C	2	1	932	1	poli_8sides 9_whiteLine3.jpg	MediumLong_e19_stereo_44KHz.wav
3	47	4	3	2	I	2	0	1036	0	poli_8sides 11_whiteLine3.jpg	MediumLong_e17_cut2_stereo_44KHz.wav
3	48	2	2	1	C	1	1	1702	1	poli_8sides 12_whiteLine3.jpg	MediumLong_e19_stereo_44KHz.wav
3	49	1	2	0	C	2	1	1303	1	poli_8sides 9_whiteLine3.jpg	MediumLong_e19_stereo_44KHz.wav
3	50	3	3	2	I	2	0	962	0	poli_8sides 6_whiteLine3.jpg	MediumLong_e17_cut2_stereo_44KHz.wav
3	51	4	4	2	I	2	0	1081	0	poli_8sides 11_whiteLine3.jpg	MediumLong_e04_stereo_44KHz.wav
3	52	2	2	1	C	1	1	1469	1	poli_8sides 12_whiteLine3.jpg	MediumLong_e19_stereo_44KHz.wav
3	53	4	3	2	I	2	0	1070	1	poli_8sides 11_whiteLine3.jpg	MediumLong_e17_cut2_stereo_44KHz.wav
3	54	2	1	0	C	2	1	1141	1	poli_8sides 12_whiteLine3.jpg	Medium_e01_cut1_stereo_44KHz.wav
3	55	3	4	2	I	2	0	836	0	poli_8sides 6_whiteLine3.jpg	MediumLong_e04_stereo_44KHz.wav
3	56	1	1	1	C	2	0	784	0	poli_8sides 9_whiteLine3.jpg	Medium_e01_cut1_stereo_44KHz.wav
3	57	3	4	2	I	2	0	849	0	poli_8sides 6_whiteLine3.jpg	MediumLong_e04_stereo_44KHz.wav
3	58	2	1	0	C	2	1	898	1	poli_8sides 12_whiteLine3.jpg	Medium_e01_cut1_stereo_44KHz.wav
3	59	4	3	2	I	1	0	1363	1	poli_8sides 11_whiteLine3.jpg	MediumLong_e17_cut2_stereo_44KHz.wav
3	60	1	1	1	C	1	1	1153	1	poli_8sides 9_whiteLine3.jpg	Medium_e01_cut1_stereo_44KHz.wav
3	61	3	3	2	I	2	0	1317	1	poli_8sides 6_whiteLine3.jpg	MediumLong_e17_cut2_stereo_44KHz.wav
3	62	2	2	1	C	1	1	1326	1	poli_8sides 12_whiteLine3.jpg	MediumLong_e19_stereo_44KHz.wav
3	63	4	4	2	I	1	0	866	1	poli_8sides 11_whiteLine3.jpg	MediumLong_e04_stereo_44KHz.wav
3	64	1	2	0	C	2	1	825	1	poli_8sides 9_whiteLine3.jpg	MediumLong_e19_stereo_44KHz.wav
3	65	3	4	2	I	2	0	1336	0	poli_8sides 6_whiteLine3.jpg	MediumLong_e04_stereo_44KHz.wav
3	66	2	2	1	C	1	1	1130	1	poli_8sides 12_whiteLine3.jpg	MediumLong_e19_stereo_44KHz.wav
3	67	1	1	1	C	1	1	1430	1	poli_8sides 9_whiteLine3.jpg	Medium_e01_cut1_stereo_44KHz.wav
3	68	4	4	2	I	2	0	1227	0	poli_8sides 11_whiteLine3.jpg	MediumLong_e04_stereo_44KHz.wav
3	69	1	2	0	C	2	1	1088	1	poli_8sides 9_whiteLine3.jpg	MediumLong_e19_stereo_44KHz.wav
3	70	3	3	2	I	2	0	1047	0	poli_8sides 6_whiteLine3.jpg	MediumLong_e17_cut2_stereo_44KHz.wav
3	71	2	1	0	C	2	1	845	1	poli_8sides 12_whiteLine3.jpg	Medium_e01_cut1_stereo_44KHz.wav
3	72	4	3	2	I	1	0	1346	1	poli_8sides 11_whiteLine3.jpg	MediumLong_e17_cut2_stereo_44KHz.wav
3	73	3	4	2	I	0	0	0	0	poli_8sides 6_whiteLine3.jpg	MediumLong_e04_stereo_44KHz.wav
3	74	4	3	2	I	0	0	0	0	poli_8sides 11_whiteLine3.jpg	MediumLong_e17_cut2_stereo_44KHz.wav
3	75	2	2	1	C	1	1	853	1	poli_8sides 12_whiteLine3.jpg	MediumLong_e19_stereo_44KHz.wav
3	76	1	2	0	C	2	1	915	1	poli_8sides 9_whiteLine3.jpg	MediumLong_e19_stereo_44KHz.wav
3	77	3	3	2	I	2	0	1225	1	poli_8sides 6_whiteLine3.jpg	MediumLong_e17_cut2_stereo_44KHz.wav
3	78	2	1	0	C	2	1	836	1	poli_8sides 12_whiteLine3.jpg	Medium_e01_cut1_stereo_44KHz.wav
3	79	1	1	1	C	1	1	844	1	poli_8sides 9_whiteLine3.jpg	Medium_e01_cut1_stereo_44KHz.wav
3	80	4	4	2	I	2	0	1086	0	poli_8sides 11_whiteLine3.jpg	MediumLong_e04_stereo_44KHz.wav
3	81	3	4	2	I	2	0	916	0	poli_8sides 6_whiteLine3.jpg	MediumLong_e04_stereo_44KHz.wav
3	82	4	3	2	I	1	0	1063	0	poli_8sides 11_whiteLine3.jpg	MediumLong_e17_cut2_stereo_44KHz.wav
3	83	1	1	1	C	1	1	876	1	poli_8sides 9_whiteLine3.jpg	Medium_e01_cut1_stereo_44KHz.wav
3	84	2	1	0	C	2	1	726	1	poli_8sides 12_whiteLine3.jpg	Medium_e01_cut1_stereo_44KHz.wav
3	85	1	2	0	C	2	1	986	1	poli_8sides 9_whiteLine3.jpg	MediumLong_e19_stereo_44KHz.wav
3	86	3	3	2	I	2	0	1197	0	poli_8sides 6_whiteLine3.jpg	MediumLong_e17_cut2_stereo_44KHz.wav
3	87	2	2	1	C	1	1	898	1	poli_8sides 12_whiteLine3.jpg	MediumLong_e19_stereo_44KHz.wav
3	88	4	4	2	I	2	0	1221	0	poli_8sides 11_whiteLine3.jpg	MediumLong_e04_stereo_44KHz.wav
3	89	2	1	0	C	2	1	806	1	poli_8sides 12_whiteLine3.jpg	Medium_e01_cut1_stereo_44KHz.wav
3	90	1	2	0	C	2	1	790	1	poli_8sides 9_whiteLine3.jpg	MediumLong_e19_stereo_44KHz.wav
3	91	3	4	2	I	1	0	801	0	poli_8sides 6_whiteLine3.jpg	MediumLong_e04_stereo_44KHz.wav
3	92	4	4	2	I	1	0	1017	0	poli_8sides 11_whiteLine3.jpg	MediumLong_e04_stereo_44KHz.wav
3	93	2	2	1	C	2	0	944	0	poli_8sides 12_whiteLine3.jpg	MediumLong_e19_stereo_44KHz.wav
3	94	4	3	2	I	2	0	790	1	poli_8sides 11_whiteLine3.jpg	MediumLong_e17_cut2_stereo_44KHz.wav
3	95	1	1	1	C	1	1	1062	1	poli_8sides 9_whiteLine3.jpg	Medium_e01_cut1_stereo_44KHz.wav
3	96	3	3	2	I	2	0	908	1	poli_8sides 6_whiteLine3.jpg	MediumLong_e17_cut2_stereo_44KHz.wav
3	97	2	1	0	C	2	1	1215	1	poli_8sides 12_whiteLine3.jpg	Medium_e01_cut1_stereo_44KHz.wav
3	98	3	3	2	I	2	0	1300	1	poli_8sides 6_whiteLine3.jpg	MediumLong_e17_cut2_stereo_44KHz.wav
3	99	1	2	0	C	2	1	785	1	poli_8sides 9_whiteLine3.jpg	MediumLong_e19_stereo_44KHz.wav
3	100	4	3	2	I	2	0	1078	1	poli_8sides 11_whiteLine3.jpg	MediumLong_e17_cut2_stereo_44KHz.wav
3	101	2	2	1	C	2	0	889	0	poli_8sides 12_whiteLine3.jpg	MediumLong_e19_stereo_44KHz.wav
3	102	3	4	2	I	1	0	1356	0	poli_8sides 6_whiteLine3.jpg	MediumLong_e04_stereo_44KHz.wav
3	103	1	1	1	C	1	1	800	1	poli_8sides 9_whiteLine3.jpg	Medium_e01_cut1_stereo_44KHz.wav
3	104	4	4	2	I	2	0	1010	0	poli_8sides 11_whiteLine3.jpg	MediumLong_e04_stereo_44KHz.wav
3	105	2	1	0	C	2	1	1182	1	poli_8sides 12_whiteLine3.jpg	Medium_e01_cut1_stereo_44KHz.wav
3	106	4	4	2	I	2	0	1228	0	poli_8sides 11_whiteLine3.jpg	MediumLong_e04_stereo_44KHz.wav
3	107	1	2	0	C	2	1	1097	1	poli_8sides 9_whiteLine3.jpg	MediumLong_e19_stereo_44KHz.wav
3	108	3	3	2	I	2	0	1055	0	poli_8sides 6_whiteLine3.jpg	MediumLong_e17_cut2_stereo_44KHz.wav
3	109	4	3	2	I	2	0	1263	1	poli_8sides 11_whiteLine3.jpg	MediumLong_e17_cut2_stereo_44KHz.wav
3	110	1	1	1	C	1	1	1140	1	poli_8sides 9_whiteLine3.jpg	Medium_e01_cut1_stereo_44KHz.wav
3	111	3	4	2	I	2	0	1297	1	poli_8sides 6_whiteLine3.jpg	MediumLong_e04_stereo_44KHz.wav
3	112	2	2	1	C	1	1	1018	1	poli_8sides 12_whiteLine3.jpg	MediumLong_e19_stereo_44KHz.wav
3	113	3	3	2	I	0	0	0	0	poli_8sides 6_whiteLine3.jpg	MediumLong_e17_cut2_stereo_44KHz.wav
3	114	1	2	0	C	2	1	840	1	poli_8sides 9_whiteLine3.jpg	MediumLong_e19_stereo_44KHz.wav
3	115	2	1	0	C	1	0	806	0	poli_8sides 12_whiteLine3.jpg	Medium_e01_cut1_stereo_44KHz.wav
3	116	4	3	2	I	2	0	879	0	poli_8sides 11_whiteLine3.jpg	MediumLong_e17_cut2_stereo_44KHz.wav
3	117	1	1	1	C	2	0	755	0	poli_8sides 9_whiteLine3.jpg	Medium_e01_cut1_stereo_44KHz.wav
3	118	3	4	2	I	2	0	945	0	poli_8sides 6_whiteLine3.jpg	MediumLong_e04_stereo_44KHz.wav
3	119	2	2	1	C	1	1	1039	1	poli_8sides 12_whiteLine3.jpg	MediumLong_e19_stereo_44KHz.wav
3	120	4	4	2	I	2	0	1295	1	poli_8sides 11_whiteLine3.jpg	MediumLong_e04_stereo_44KHz.wav
3	121	3	4	2	I	2	0	750	1	poli_8sides 6_whiteLine3.jpg	MediumLong_e04_stereo_44KHz.wav
3	122	1	2	0	C	1	0	1036	0	poli_8sides 9_whiteLine3.jpg	MediumLong_e19_stereo_44KHz.wav
3	123	4	3	2	I	1	0	1178	1	poli_8sides 11_whiteLine3.jpg	MediumLong_e17_cut2_stereo_44KHz.wav
3	124	2	2	1	C	1	1	1120	1	poli_8sides 12_whiteLine3.jpg	MediumLong_e19_stereo_44KHz.wav
3	125	1	1	1	C	1	1	1082	1	poli_8sides 9_whiteLine3.jpg	Medium_e01_cut1_stereo_44KHz.wav
3	126	4	4	2	I	2	0	1093	0	poli_8sides 11_whiteLine3.jpg	MediumLong_e04_stereo_44KHz.wav
3	127	2	1	0	C	2	1	989	1	poli_8sides 12_whiteLine3.jpg	Medium_e01_cut1_stereo_44KHz.wav
3	128	3	3	2	I	1	0	1358	0	poli_8sides 6_whiteLine3.jpg	MediumLong_e17_cut2_stereo_44KHz.wav
3	129	4	3	2	I	1	0	1369	0	poli_8sides 11_whiteLine3.jpg	MediumLong_e17_cut2_stereo_44KHz.wav
3	130	2	2	1	C	1	1	1223	1	poli_8sides 12_whiteLine3.jpg	MediumLong_e19_stereo_44KHz.wav
3	131	1	1	1	C	1	1	1327	1	poli_8sides 9_whiteLine3.jpg	Medium_e01_cut1_stereo_44KHz.wav
3	132	3	4	2	I	2	0	1251	0	poli_8sides 6_whiteLine3.jpg	MediumLong_e04_stereo_44KHz.wav
3	133	1	2	0	C	1	0	1143	0	poli_8sides 9_whiteLine3.jpg	MediumLong_e19_stereo_44KHz.wav
3	134	2	1	0	C	2	1	1668	1	poli_8sides 12_whiteLine3.jpg	Medium_e01_cut1_stereo_44KHz.wav
3	135	4	4	2	I	2	0	945	0	poli_8sides 11_whiteLine3.jpg	MediumLong_e04_stereo_44KHz.wav
3	136	3	3	2	I	2	0	1601	1	poli_8sides 6_whiteLine3.jpg	MediumLong_e17_cut2_stereo_44KHz.wav
3	137	1	1	1	C	1	1	1159	1	poli_8sides 9_whiteLine3.jpg	Medium_e01_cut1_stereo_44KHz.wav
3	138	2	1	0	C	2	1	1264	1	poli_8sides 12_whiteLine3.jpg	Medium_e01_cut1_stereo_44KHz.wav
3	139	3	4	2	I	2	0	856	1	poli_8sides 6_whiteLine3.jpg	MediumLong_e04_stereo_44KHz.wav
3	140	4	4	2	I	1	0	1647	0	poli_8sides 11_whiteLine3.jpg	MediumLong_e04_stereo_44KHz.wav
3	141	3	3	2	I	2	0	1023	0	poli_8sides 6_whiteLine3.jpg	MediumLong_e17_cut2_stereo_44KHz.wav
3	142	2	2	1	C	1	1	1065	1	poli_8sides 12_whiteLine3.jpg	MediumLong_e19_stereo_44KHz.wav
3	143	4	3	2	I	2	0	822	0	poli_8sides 11_whiteLine3.jpg	MediumLong_e17_cut2_stereo_44KHz.wav
3	144	1	2	0	C	2	1	911	1	poli_8sides 9_whiteLine3.jpg	MediumLong_e19_stereo_44KHz.wav
3	145	3	3	2	I	2	0	841	1	poli_8sides 6_whiteLine3.jpg	MediumLong_e17_cut2_stereo_44KHz.wav
3	146	2	1	0	C	2	1	922	1	poli_8sides 12_whiteLine3.jpg	Medium_e01_cut1_stereo_44KHz.wav
3	147	1	2	0	C	2	1	759	1	poli_8sides 9_whiteLine3.jpg	MediumLong_e19_stereo_44KHz.wav
3	148	4	3	2	I	1	0	869	1	poli_8sides 11_whiteLine3.jpg	MediumLong_e17_cut2_stereo_44KHz.wav
3	149	1	1	1	C	2	0	1143	0	poli_8sides 9_whiteLine3.jpg	Medium_e01_cut1_stereo_44KHz.wav
3	150	3	4	2	I	2	0	778	1	poli_8sides 6_whiteLine3.jpg	MediumLong_e04_stereo_44KHz.wav
3	151	2	2	1	C	1	1	1563	1	poli_8sides 12_whiteLine3.jpg	MediumLong_e19_stereo_44KHz.wav
3	152	4	4	2	I	2	0	876	1	poli_8sides 11_whiteLine3.jpg	MediumLong_e04_stereo_44KHz.wav
3	153	2	1	0	C	2	1	1544	1	poli_8sides 12_whiteLine3.jpg	Medium_e01_cut1_stereo_44KHz.wav
3	154	3	4	2	I	2	0	903	0	poli_8sides 6_whiteLine3.jpg	MediumLong_e04_stereo_44KHz.wav
3	155	1	2	0	C	2	1	1713	1	poli_8sides 9_whiteLine3.jpg	MediumLong_e19_stereo_44KHz.wav
3	156	4	4	2	I	2	0	1267	0	poli_8sides 11_whiteLine3.jpg	MediumLong_e04_stereo_44KHz.wav
3	157	2	2	1	C	1	1	1587	1	poli_8sides 12_whiteLine3.jpg	MediumLong_e19_stereo_44KHz.wav
3	158	3	3	2	I	2	0	1775	1	poli_8sides 6_whiteLine3.jpg	MediumLong_e17_cut2_stereo_44KHz.wav
3	159	4	3	2	I	2	0	1599	1	poli_8sides 11_whiteLine3.jpg	MediumLong_e17_cut2_stereo_44KHz.wav
3	160	1	1	1	C	1	1	1697	1	poli_8sides 9_whiteLine3.jpg	Medium_e01_cut1_stereo_44KHz.wav
3	161	2	2	1	C	1	1	1647	1	poli_8sides 12_whiteLine3.jpg	MediumLong_e19_stereo_44KHz.wav
3	162	3	3	2	I	2	0	1534	1	poli_8sides 6_whiteLine3.jpg	MediumLong_e17_cut2_stereo_44KHz.wav
3	163	4	3	2	I	2	0	1315	0	poli_8sides 11_whiteLine3.jpg	MediumLong_e17_cut2_stereo_44KHz.wav
3	164	1	1	1	C	2	0	1269	0	poli_8sides 9_whiteLine3.jpg	Medium_e01_cut1_stereo_44KHz.wav
3	165	3	4	2	I	2	0	1286	1	poli_8sides 6_whiteLine3.jpg	MediumLong_e04_stereo_44KHz.wav
3	166	1	2	0	C	2	1	1461	1	poli_8sides 9_whiteLine3.jpg	MediumLong_e19_stereo_44KHz.wav
3	167	4	4	2	I	2	0	1412	0	poli_8sides 11_whiteLine3.jpg	MediumLong_e04_stereo_44KHz.wav
3	168	2	1	0	C	2	1	1745	1	poli_8sides 12_whiteLine3.jpg	Medium_e01_cut1_stereo_44KHz.wav
3	169	1	1	1	C	1	1	1543	1	poli_8sides 9_whiteLine3.jpg	Medium_e01_cut1_stereo_44KHz.wav
3	170	2	2	1	C	1	1	1203	1	poli_8sides 12_whiteLine3.jpg	MediumLong_e19_stereo_44KHz.wav
3	171	4	3	2	I	2	0	1863	0	poli_8sides 11_whiteLine3.jpg	MediumLong_e17_cut2_stereo_44KHz.wav
3	172	3	3	2	I	2	0	911	0	poli_8sides 6_whiteLine3.jpg	MediumLong_e17_cut2_stereo_44KHz.wav
3	173	1	2	0	C	2	1	883	1	poli_8sides 9_whiteLine3.jpg	MediumLong_e19_stereo_44KHz.wav
3	174	2	1	0	C	2	1	808	1	poli_8sides 12_whiteLine3.jpg	Medium_e01_cut1_stereo_44KHz.wav
3	175	3	4	2	I	2	0	916	0	poli_8sides 6_whiteLine3.jpg	MediumLong_e04_stereo_44KHz.wav
3	176	4	4	2	I	2	0	903	1	poli_8sides 11_whiteLine3.jpg	MediumLong_e04_stereo_44KHz.wav
3	177	3	3	2	I	2	0	747	1	poli_8sides 6_whiteLine3.jpg	MediumLong_e17_cut2_stereo_44KHz.wav
3	178	4	4	2	I	2	0	1340	0	poli_8sides 11_whiteLine3.jpg	MediumLong_e04_stereo_44KHz.wav
3	179	2	2	1	C	1	1	998	1	poli_8sides 12_whiteLine3.jpg	MediumLong_e19_stereo_44KHz.wav
3	180	1	2	0	C	2	1	813	1	poli_8sides 9_whiteLine3.jpg	MediumLong_e19_stereo_44KHz.wav
3	181	4	3	2	I	2	0	1207	1	poli_8sides 11_whiteLine3.jpg	MediumLong_e17_cut2_stereo_44KHz.wav
3	182	1	1	1	C	1	1	1455	1	poli_8sides 9_whiteLine3.jpg	Medium_e01_cut1_stereo_44KHz.wav
3	183	3	4	2	I	2	0	821	1	poli_8sides 6_whiteLine3.jpg	MediumLong_e04_stereo_44KHz.wav
3	184	2	1	0	C	2	1	839	1	poli_8sides 12_whiteLine3.jpg	Medium_e01_cut1_stereo_44KHz.wav
3	185	1	2	0	C	2	1	743	1	poli_8sides 9_whiteLine3.jpg	MediumLong_e19_stereo_44KHz.wav
3	186	4	4	2	I	2	0	938	0	poli_8sides 11_whiteLine3.jpg	MediumLong_e04_stereo_44KHz.wav
3	187	2	1	0	C	2	1	745	1	poli_8sides 12_whiteLine3.jpg	Medium_e01_cut1_stereo_44KHz.wav
3	188	3	4	2	I	2	0	1238	1	poli_8sides 6_whiteLine3.jpg	MediumLong_e04_stereo_44KHz.wav
3	189	1	1	1	C	1	1	1348	1	poli_8sides 9_whiteLine3.jpg	Medium_e01_cut1_stereo_44KHz.wav
3	190	3	3	2	I	1	0	1623	0	poli_8sides 6_whiteLine3.jpg	MediumLong_e17_cut2_stereo_44KHz.wav
3	191	4	3	2	I	2	0	1041	1	poli_8sides 11_whiteLine3.jpg	MediumLong_e17_cut2_stereo_44KHz.wav
3	192	2	2	1	C	1	1	1014	1	poli_8sides 12_whiteLine3.jpg	MediumLong_e19_stereo_44KHz.wav
3	193	1	2	0	C	2	1	1195	1	poli_8sides 9_whiteLine3.jpg	MediumLong_e19_stereo_44KHz.wav
3	194	4	4	2	I	1	0	1633	1	poli_8sides 11_whiteLine3.jpg	MediumLong_e04_stereo_44KHz.wav
3	195	2	2	1	C	1	1	862	1	poli_8sides 12_whiteLine3.jpg	MediumLong_e19_stereo_44KHz.wav
3	196	3	4	2	I	2	0	1641	0	poli_8sides 6_whiteLine3.jpg	MediumLong_e04_stereo_44KHz.wav
3	197	2	1	0	C	2	1	1106	1	poli_8sides 12_whiteLine3.jpg	Medium_e01_cut1_stereo_44KHz.wav
3	198	3	3	2	I	2	0	1377	1	poli_8sides 6_whiteLine3.jpg	MediumLong_e17_cut2_stereo_44KHz.wav
3	199	4	3	2	I	1	0	930	1	poli_8sides 11_whiteLine3.jpg	MediumLong_e17_cut2_stereo_44KHz.wav
3	200	1	1	1	C	1	1	1692	1	poli_8sides 9_whiteLine3.jpg	Medium_e01_cut1_stereo_44KHz.wav
4	1	1	2	0	C	2	1	1359	1	poli_8sides 2_whiteLine3.jpg	MediumShort_b10_cut1_MS_stereo_44KHz.wav
4	2	4	3	2	I	2	0	1129	1	poli_8sides 5_whiteLine3.jpg	MediumShort_e22_cut1_stereo_44KHz.wav
4	3	3	4	2	I	2	0	723	1	poli_8sides 16_whiteLine3.jpg	MediumShort_b16_cut3_MS_stereo_44KHz.wav
4	4	2	2	1	C	2	0	637	0	poli_8sides 3_whiteLine3.jpg	MediumShort_b10_cut1_MS_stereo_44KHz.wav
4	5	4	4	2	I	2	0	987	0	poli_8sides 5_whiteLine3.jpg	MediumShort_b16_cut3_MS_stereo_44KHz.wav
4	6	2	1	0	C	1	0	1345	0	poli_8sides 3_whiteLine3.jpg	MediumShort_e16_cut1_stereo_44KHz.wav
4	7	3	3	2	I	2	0	826	1	poli_8sides 16_whiteLine3.jpg	MediumShort_e22_cut1_stereo_44KHz.wav
4	8	1	1	1	C	1	1	1014	1	poli_8sides 2_whiteLine3.jpg	MediumShort_e16_cut1_stereo_44KHz.wav
4	9	4	4	2	I	2	0	1647	0	poli_8sides 5_whiteLine3.jpg	MediumShort_b16_cut3_MS_stereo_44KHz.wav
4	10	3	4	2	I	2	0	1289	0	poli_8sides 16_whiteLine3.jpg	MediumShort_b16_cut3_MS_stereo_44KHz.wav
4	11	1	1	1	C	1	1	1411	1	poli_8sides 2_whiteLine3.jpg	MediumShort_e16_cut1_stereo_44KHz.wav
4	12	2	1	0	C	2	1	1485	1	poli_8sides 3_whiteLine3.jpg	MediumShort_e16_cut1_stereo_44KHz.wav
4	13	3	3	2	I	2	0	834	0	poli_8sides 16_whiteLine3.jpg	MediumShort_e22_cut1_stereo_44KHz.wav
4	14	4	3	2	I	2	0	1108	1	poli_8sides 5_whiteLine3.jpg	MediumShort_e22_cut1_stereo_44KHz.wav
4	15	2	2	1	C	1	1	1212	1	poli_8sides 3_whiteLine3.jpg	MediumShort_b10_cut1_MS_stereo_44KHz.wav
4	16	1	2	0	C	2	1	1620	1	poli_8sides 2_whiteLine3.jpg	MediumShort_b10_cut1_MS_stereo_44KHz.wav
4	17	3	4	2	I	2	0	1252	0	poli_8sides 16_whiteLine3.jpg	MediumShort_b16_cut3_MS_stereo_44KHz.wav
4	18	2	1	0	C	2	1	850	1	poli_8sides 3_whiteLine3.jpg	MediumShort_e16_cut1_stereo_44KHz.wav
4	19	1	2	0	C	2	1	1087	1	poli_8sides 2_whiteLine3.jpg	MediumShort_b10_cut1_MS_stereo_44KHz.wav
4	20	4	3	2	I	2	0	1808	1	poli_8sides 5_whiteLine3.jpg	MediumShort_e22_cut1_stereo_44KHz.wav
4	21	2	2	1	C	2	0	1202	0	poli_8sides 3_whiteLine3.jpg	MediumShort_b10_cut1_MS_stereo_44KHz.wav
4	22	3	3	2	I	2	0	1048	0	poli_8sides 16_whiteLine3.jpg	MediumShort_e22_cut1_stereo_44KHz.wav
4	23	4	4	2	I	2	0	1351	1	poli_8sides 5_whiteLine3.jpg	MediumShort_b16_cut3_MS_stereo_44KHz.wav
4	24	1	1	1	C	2	0	1281	0	poli_8sides 2_whiteLine3.jpg	MediumShort_e16_cut1_stereo_44KHz.wav
4	25	3	3	2	I	0	0	0	0	poli_8sides 16_whiteLine3.jpg	MediumShort_e22_cut1_stereo_44KHz.wav
4	26	2	2	1	C	2	0	636	0	poli_8sides 3_whiteLine3.jpg	MediumShort_b10_cut1_MS_stereo_44KHz.wav
4	27	4	3	2	I	2	0	844	1	poli_8sides 5_whiteLine3.jpg	MediumShort_e22_cut1_stereo_44KHz.wav
4	28	1	2	0	C	2	1	847	1	poli_8sides 2_whiteLine3.jpg	MediumShort_b10_cut1_MS_stereo_44KHz.wav
4	29	4	4	2	I	2	0	1268	1	poli_8sides 5_whiteLine3.jpg	MediumShort_b16_cut3_MS_stereo_44KHz.wav
4	30	3	4	2	I	2	0	1314	0	poli_8sides 16_whiteLine3.jpg	MediumShort_b16_cut3_MS_stereo_44KHz.wav
4	31	1	1	1	C	2	0	1106	0	poli_8sides 2_whiteLine3.jpg	MediumShort_e16_cut1_stereo_44KHz.wav
4	32	2	1	0	C	2	1	994	1	poli_8sides 3_whiteLine3.jpg	MediumShort_e16_cut1_stereo_44KHz.wav
4	33	3	3	2	I	1	0	1716	1	poli_8sides 16_whiteLine3.jpg	MediumShort_e22_cut1_stereo_44KHz.wav
4	34	1	2	0	C	2	1	1729	1	poli_8sides 2_whiteLine3.jpg	MediumShort_b10_cut1_MS_stereo_44KHz.wav
4	35	4	4	2	I	2	0	1380	0	poli_8sides 5_whiteLine3.jpg	MediumShort_b16_cut3_MS_stereo_44KHz.wav
4	36	2	2	1	C	2	0	1324	0	poli_8sides 3_whiteLine3.jpg	MediumShort_b10_cut1_MS_stereo_44KHz.wav
4	37	1	1	1	C	1	1	1730	1	poli_8sides 2_whiteLine3.jpg	MediumShort_e16_cut1_stereo_44KHz.wav
4	38	2	1	0	C	2	1	571	1	poli_8sides 3_whiteLine3.jpg	MediumShort_e16_cut1_stereo_44KHz.wav
4	39	4	3	2	I	2	0	986	0	poli_8sides 5_whiteLine3.jpg	MediumShort_e22_cut1_stereo_44KHz.wav
4	40	3	4	2	I	1	0	1551	1	poli_8sides 16_whiteLine3.jpg	MediumShort_b16_cut3_MS_stereo_44KHz.wav
4	41	1	1	1	C	1	1	1201	1	poli_8sides 2_whiteLine3.jpg	MediumShort_e16_cut1_stereo_44KHz.wav
4	42	2	1	0	C	2	1	701	1	poli_8sides 3_whiteLine3.jpg	MediumShort_e16_cut1_stereo_44KHz.wav
4	43	3	4	2	I	1	0	1340	1	poli_8sides 16_whiteLine3.jpg	MediumShort_b16_cut3_MS_stereo_44KHz.wav
4	44	4	3	2	I	2	0	1398	0	poli_8sides 5_whiteLine3.jpg	MediumShort_e22_cut1_stereo_44KHz.wav
4	45	3	3	2	I	2	0	1027	1	poli_8sides 16_whiteLine3.jpg	MediumShort_e22_cut1_stereo_44KHz.wav
4	46	1	2	0	C	1	0	1357	0	poli_8sides 2_whiteLine3.jpg	MediumShort_b10_cut1_MS_stereo_44KHz.wav
4	47	4	4	2	I	2	0	1153	1	poli_8sides 5_whiteLine3.jpg	MediumShort_b16_cut3_MS_stereo_44KHz.wav
4	48	2	2	1	C	2	0	820	0	poli_8sides 3_whiteLine3.jpg	MediumShort_b10_cut1_MS_stereo_44KHz.wav
4	49	3	3	2	I	2	0	1268	1	poli_8sides 16_whiteLine3.jpg	MediumShort_e22_cut1_stereo_44KHz.wav
4	50	1	2	0	C	2	1	1329	1	poli_8sides 2_whiteLine3.jpg	MediumShort_b10_cut1_MS_stereo_44KHz.wav
4	51	2	2	1	C	1	1	1459	1	poli_8sides 3_whiteLine3.jpg	MediumShort_b10_cut1_MS_stereo_44KHz.wav
4	52	4	4	2	I	2	0	1034	1	poli_8sides 5_whiteLine3.jpg	MediumShort_b16_cut3_MS_stereo_44KHz.wav
4	53	1	1	1	C	2	0	1106	0	poli_8sides 2_whiteLine3.jpg	MediumShort_e16_cut1_stereo_44KHz.wav
4	54	3	4	2	I	1	0	1172	0	poli_8sides 16_whiteLine3.jpg	MediumShort_b16_cut3_MS_stereo_44KHz.wav
4	55	4	3	2	I	2	0	1058	1	poli_8sides 5_whiteLine3.jpg	MediumShort_e22_cut1_stereo_44KHz.wav
4	56	2	1	0	C	2	1	1288	1	poli_8sides 3_whiteLine3.jpg	MediumShort_e16_cut1_stereo_44KHz.wav
4	57	4	4	2	I	2	0	1250	0	poli_8sides 5_whiteLine3.jpg	MediumShort_b16_cut3_MS_stereo_44KHz.wav
4	58	1	1	1	C	2	0	523	0	poli_8sides 2_whiteLine3.jpg	MediumShort_e16_cut1_stereo_44KHz.wav
4	59	3	3	2	I	2	0	999	1	poli_8sides 16_whiteLine3.jpg	MediumShort_e22_cut1_stereo_44KHz.wav
4	60	2	2	1	C	2	0	1185	0	poli_8sides 3_whiteLine3.jpg	MediumShort_b10_cut1_MS_stereo_44KHz.wav
4	61	4	3	2	I	2	0	696	1	poli_8sides 5_whiteLine3.jpg	MediumShort_e22_cut1_stereo_44KHz.wav
4	62	3	4	2	I	2	0	721	1	poli_8sides 16_whiteLine3.jpg	MediumShort_b16_cut3_MS_stereo_44KHz.wav
4	63	1	2	0	C	2	1	1751	1	poli_8sides 2_whiteLine3.jpg	MediumShort_b10_cut1_MS_stereo_44KHz.wav
4	64	2	1	0	C	2	1	867	1	poli_8sides 3_whiteLine3.jpg	MediumShort_e16_cut1_stereo_44KHz.wav
4	65	3	4	2	I	2	0	1396	1	poli_8sides 16_whiteLine3.jpg	MediumShort_b16_cut3_MS_stereo_44KHz.wav
4	66	4	4	2	I	2	0	946	0	poli_8sides 5_whiteLine3.jpg	MediumShort_b16_cut3_MS_stereo_44KHz.wav
4	67	2	2	1	C	2	0	789	0	poli_8sides 3_whiteLine3.jpg	MediumShort_b10_cut1_MS_stereo_44KHz.wav
4	68	1	2	0	C	2	1	1043	1	poli_8sides 2_whiteLine3.jpg	MediumShort_b10_cut1_MS_stereo_44KHz.wav
4	69	2	1	0	C	2	1	1320	1	poli_8sides 3_whiteLine3.jpg	MediumShort_e16_cut1_stereo_44KHz.wav
4	70	4	3	2	I	2	0	978	0	poli_8sides 5_whiteLine3.jpg	MediumShort_e22_cut1_stereo_44KHz.wav
4	71	3	3	2	I	2	0	1699	0	poli_8sides 16_whiteLine3.jpg	MediumShort_e22_cut1_stereo_44KHz.wav
4	72	1	1	1	C	2	0	1534	0	poli_8sides 2_whiteLine3.jpg	MediumShort_e16_cut1_stereo_44KHz.wav
4	73	4	3	2	I	2	0	1982	1	poli_8sides 5_whiteLine3.jpg	MediumShort_e22_cut1_stereo_44KHz.wav
4	74	3	3	2	I	2	0	938	0	poli_8sides 16_whiteLine3.jpg	MediumShort_e22_cut1_stereo_44KHz.wav
4	75	1	2	0	C	1	0	1852	0	poli_8sides 2_whiteLine3.jpg	MediumShort_b10_cut1_MS_stereo_44KHz.wav
4	76	2	2	1	C	2	0	1046	0	poli_8sides 3_whiteLine3.jpg	MediumShort_b10_cut1_MS_stereo_44KHz.wav
4	77	3	4	2	I	2	0	1551	0	poli_8sides 16_whiteLine3.jpg	MediumShort_b16_cut3_MS_stereo_44KHz.wav
4	78	4	4	2	I	2	0	1132	0	poli_8sides 5_whiteLine3.jpg	MediumShort_b16_cut3_MS_stereo_44KHz.wav
4	79	2	1	0	C	2	1	1513	1	poli_8sides 3_whiteLine3.jpg	MediumShort_e16_cut1_stereo_44KHz.wav
4	80	1	1	1	C	1	1	1287	1	poli_8sides 2_whiteLine3.jpg	MediumShort_e16_cut1_stereo_44KHz.wav
4	81	4	4	2	I	2	0	1049	1	poli_8sides 5_whiteLine3.jpg	MediumShort_b16_cut3_MS_stereo_44KHz.wav
4	82	3	3	2	I	2	0	1131	1	poli_8sides 16_whiteLine3.jpg	MediumShort_e22_cut1_stereo_44KHz.wav
4	83	1	1	1	C	1	1	1402	1	poli_8sides 2_whiteLine3.jpg	MediumShort_e16_cut1_stereo_44KHz.wav
4	84	2	2	1	C	1	1	1304	1	poli_8sides 3_whiteLine3.jpg	MediumShort_b10_cut1_MS_stereo_44KHz.wav
4	85	1	2	0	C	2	1	1174	1	poli_8sides 2_whiteLine3.jpg	MediumShort_b10_cut1_MS_stereo_44KHz.wav
4	86	3	4	2	I	2	0	1432	0	poli_8sides 16_whiteLine3.jpg	MediumShort_b16_cut3_MS_stereo_44KHz.wav
4	87	2	1	0	C	2	1	1179	1	poli_8sides 3_whiteLine3.jpg	MediumShort_e16_cut1_stereo_44KHz.wav
4	88	4	3	2	I	2	0	1113	0	poli_8sides 5_whiteLine3.jpg	MediumShort_e22_cut1_stereo_44KHz.wav
4	89	2	1	0	C	2	1	882	1	poli_8sides 3_whiteLine3.jpg	MediumShort_e16_cut1_stereo_44KHz.wav
4	90	3	4	2	I	2	0	1175	0	poli_8sides 16_whiteLine3.jpg	MediumShort_b16_cut3_MS_stereo_44KHz.wav
4	91	1	1	1	C	2	0	1511	0	poli_8sides 2_whiteLine3.jpg	MediumShort_e16_cut1_stereo_44KHz.wav
4	92	4	4	2	I	2	0	871	1	poli_8sides 5_whiteLine3.jpg	MediumShort_b16_cut3_MS_stereo_44KHz.wav
4	93	2	2	1	C	0	0	0	0	poli_8sides 3_whiteLine3.jpg	MediumShort_b10_cut1_MS_stereo_44KHz.wav
4	94	1	2	0	C	2	1	1881	1	poli_8sides 2_whiteLine3.jpg	MediumShort_b10_cut1_MS_stereo_44KHz.wav
4	95	4	3	2	I	2	0	872	0	poli_8sides 5_whiteLine3.jpg	MediumShort_e22_cut1_stereo_44KHz.wav
4	96	3	3	2	I	2	0	1299	0	poli_8sides 16_whiteLine3.jpg	MediumShort_e22_cut1_stereo_44KHz.wav
4	97	4	3	2	I	2	0	1521	1	poli_8sides 5_whiteLine3.jpg	MediumShort_e22_cut1_stereo_44KHz.wav
4	98	1	2	0	C	2	1	1678	1	poli_8sides 2_whiteLine3.jpg	MediumShort_b10_cut1_MS_stereo_44KHz.wav
4	99	3	4	2	I	2	0	1284	0	poli_8sides 16_whiteLine3.jpg	MediumShort_b16_cut3_MS_stereo_44KHz.wav
4	100	2	2	1	C	2	0	1005	0	poli_8sides 3_whiteLine3.jpg	MediumShort_b10_cut1_MS_stereo_44KHz.wav
4	101	3	3	2	I	2	0	1384	1	poli_8sides 16_whiteLine3.jpg	MediumShort_e22_cut1_stereo_44KHz.wav
4	102	1	1	1	C	2	0	1243	0	poli_8sides 2_whiteLine3.jpg	MediumShort_e16_cut1_stereo_44KHz.wav
4	103	2	1	0	C	2	1	697	1	poli_8sides 3_whiteLine3.jpg	MediumShort_e16_cut1_stereo_44KHz.wav
4	104	4	4	2	I	2	0	774	1	poli_8sides 5_whiteLine3.jpg	MediumShort_b16_cut3_MS_stereo_44KHz.wav
4	105	2	1	0	C	2	1	779	1	poli_8sides 3_whiteLine3.jpg	MediumShort_e16_cut1_stereo_44KHz.wav
4	106	1	1	1	C	2	0	1484	0	poli_8sides 2_whiteLine3.jpg	MediumShort_e16_cut1_stereo_44KHz.wav
4	107	3	3	2	I	2	0	635	0	poli_8sides 16_whiteLine3.jpg	MediumShort_e22_cut1_stereo_44KHz.wav
4	108	4	3	2	I	2	0	711	0	poli_8sides 5_whiteLine3.jpg	MediumShort_e22_cut1_stereo_44KHz.wav
4	109	3	4	2	I	2	0	822	0	poli_8sides 16_whiteLine3.jpg	MediumShort_b16_cut3_MS_stereo_44KHz.wav
4	110	2	2	1	C	2	0	707	0	poli_8sides 3_whiteLine3.jpg	MediumShort_b10_cut1_MS_stereo_44KHz.wav
4	111	1	2	0	C	2	1	798	1	poli_8sides 2_whiteLine3.jpg	MediumShort_b10_cut1_MS_stereo_44KHz.wav
4	112	4	4	2	I	2	0	1318	1	poli_8sides 5_whiteLine3.jpg	MediumShort_b16_cut3_MS_stereo_44KHz.wav
4	113	3	3	2	I	2	0	1112	1	poli_8sides 16_whiteLine3.jpg	MediumShort_e22_cut1_stereo_44KHz.wav
4	114	4	3	2	I	2	0	1661	0	poli_8sides 5_whiteLine3.jpg	MediumShort_e22_cut1_stereo_44KHz.wav
4	115	2	2	1	C	2	0	762	0	poli_8sides 3_whiteLine3.jpg	MediumShort_b10_cut1_MS_stereo_44KHz.wav
4	116	1	2	0	C	2	1	814	1	poli_8sides 2_whiteLine3.jpg	MediumShort_b10_cut1_MS_stereo_44KHz.wav
4	117	2	1	0	C	2	1	745	1	poli_8sides 3_whiteLine3.jpg	MediumShort_e16_cut1_stereo_44KHz.wav
4	118	1	1	1	C	1	1	1240	1	poli_8sides 2_whiteLine3.jpg	MediumShort_e16_cut1_stereo_44KHz.wav
4	119	3	4	2	I	2	0	1445	0	poli_8sides 16_whiteLine3.jpg	MediumShort_b16_cut3_MS_stereo_44KHz.wav
4	120	4	4	2	I	2	0	928	0	poli_8sides 5_whiteLine3.jpg	MediumShort_b16_cut3_MS_stereo_44KHz.wav
4	121	3	3	2	I	2	0	1094	1	poli_8sides 16_whiteLine3.jpg	MediumShort_e22_cut1_stereo_44KHz.wav
4	122	2	1	0	C	2	1	736	1	poli_8sides 3_whiteLine3.jpg	MediumShort_e16_cut1_stereo_44KHz.wav
4	123	4	4	2	I	2	0	876	1	poli_8sides 5_whiteLine3.jpg	MediumShort_b16_cut3_MS_stereo_44KHz.wav
4	124	1	1	1	C	1	1	1396	1	poli_8sides 2_whiteLine3.jpg	MediumShort_e16_cut1_stereo_44KHz.wav
4	125	3	4	2	I	2	0	875	1	poli_8sides 16_whiteLine3.jpg	MediumShort_b16_cut3_MS_stereo_44KHz.wav
4	126	4	3	2	I	0	0	0	0	poli_8sides 5_whiteLine3.jpg	MediumShort_e22_cut1_stereo_44KHz.wav
4	127	2	2	1	C	2	0	580	0	poli_8sides 3_whiteLine3.jpg	MediumShort_b10_cut1_MS_stereo_44KHz.wav
4	128	1	2	0	C	2	1	891	1	poli_8sides 2_whiteLine3.jpg	MediumShort_b10_cut1_MS_stereo_44KHz.wav
4	129	2	1	0	C	2	1	740	1	poli_8sides 3_whiteLine3.jpg	MediumShort_e16_cut1_stereo_44KHz.wav
4	130	1	2	0	C	2	1	816	1	poli_8sides 2_whiteLine3.jpg	MediumShort_b10_cut1_MS_stereo_44KHz.wav
4	131	3	3	2	I	2	0	715	1	poli_8sides 16_whiteLine3.jpg	MediumShort_e22_cut1_stereo_44KHz.wav
4	132	4	4	2	I	2	0	938	0	poli_8sides 5_whiteLine3.jpg	MediumShort_b16_cut3_MS_stereo_44KHz.wav
4	133	3	4	2	I	2	0	842	0	poli_8sides 16_whiteLine3.jpg	MediumShort_b16_cut3_MS_stereo_44KHz.wav
4	134	2	2	1	C	2	0	1325	0	poli_8sides 3_whiteLine3.jpg	MediumShort_b10_cut1_MS_stereo_44KHz.wav
4	135	1	1	1	C	2	0	1667	0	poli_8sides 2_whiteLine3.jpg	MediumShort_e16_cut1_stereo_44KHz.wav
4	136	4	3	2	I	2	0	1091	1	poli_8sides 5_whiteLine3.jpg	MediumShort_e22_cut1_stereo_44KHz.wav
4	137	2	1	0	C	2	1	963	1	poli_8sides 3_whiteLine3.jpg	MediumShort_e16_cut1_stereo_44KHz.wav
4	138	3	4	2	I	1	0	1608	0	poli_8sides 16_whiteLine3.jpg	MediumShort_b16_cut3_MS_stereo_44KHz.wav
4	139	1	2	0	C	2	1	1102	1	poli_8sides 2_whiteLine3.jpg	MediumShort_b10_cut1_MS_stereo_44KHz.wav
4	140	4	4	2	I	2	0	1249	1	poli_8sides 5_whiteLine3.jpg	MediumShort_b16_cut3_MS_stereo_44KHz.wav
4	141	2	2	1	C	1	1	1502	1	poli_8sides 3_whiteLine3.jpg	MediumShort_b10_cut1_MS_stereo_44KHz.wav
4	142	3	3	2	I	2	0	1182	0	poli_8sides 16_whiteLine3.jpg	MediumShort_e22_cut1_stereo_44KHz.wav
4	143	1	1	1	C	2	0	1502	0	poli_8sides 2_whiteLine3.jpg	MediumShort_e16_cut1_stereo_44KHz.wav
4	144	4	3	2	I	2	0	1004	0	poli_8sides 5_whiteLine3.jpg	MediumShort_e22_cut1_stereo_44KHz.wav
4	145	1	1	1	C	2	0	1186	0	poli_8sides 2_whiteLine3.jpg	MediumShort_e16_cut1_stereo_44KHz.wav
4	146	3	4	2	I	2	0	1334	0	poli_8sides 16_whiteLine3.jpg	MediumShort_b16_cut3_MS_stereo_44KHz.wav
4	147	4	4	2	I	2	0	1117	0	poli_8sides 5_whiteLine3.jpg	MediumShort_b16_cut3_MS_stereo_44KHz.wav
4	148	2	1	0	C	2	1	806	1	poli_8sides 3_whiteLine3.jpg	MediumShort_e16_cut1_stereo_44KHz.wav
4	149	1	2	0	C	2	1	1072	1	poli_8sides 2_whiteLine3.jpg	MediumShort_b10_cut1_MS_stereo_44KHz.wav
4	150	3	3	2	I	2	0	1484	1	poli_8sides 16_whiteLine3.jpg	MediumShort_e22_cut1_stereo_44KHz.wav
4	151	2	2	1	C	2	0	777	0	poli_8sides 3_whiteLine3.jpg	MediumShort_b10_cut1_MS_stereo_44KHz.wav
4	152	4	3	2	I	2	0	915	0	poli_8sides 5_whiteLine3.jpg	MediumShort_e22_cut1_stereo_44KHz.wav
4	153	2	1	0	C	2	1	1469	1	poli_8sides 3_whiteLine3.jpg	MediumShort_e16_cut1_stereo_44KHz.wav
4	154	1	1	1	C	2	0	907	0	poli_8sides 2_whiteLine3.jpg	MediumShort_e16_cut1_stereo_44KHz.wav
4	155	4	3	2	I	2	0	1337	1	poli_8sides 5_whiteLine3.jpg	MediumShort_e22_cut1_stereo_44KHz.wav
4	156	3	4	2	I	2	0	1195	0	poli_8sides 16_whiteLine3.jpg	MediumShort_b16_cut3_MS_stereo_44KHz.wav
4	157	4	4	2	I	2	0	1046	1	poli_8sides 5_whiteLine3.jpg	MediumShort_b16_cut3_MS_stereo_44KHz.wav
4	158	2	2	1	C	1	1	1455	1	poli_8sides 3_whiteLine3.jpg	MediumShort_b10_cut1_MS_stereo_44KHz.wav
4	159	1	2	0	C	2	1	1039	1	poli_8sides 2_whiteLine3.jpg	MediumShort_b10_cut1_MS_stereo_44KHz.wav
4	160	3	3	2	I	2	0	866	1	poli_8sides 16_whiteLine3.jpg	MediumShort_e22_cut1_stereo_44KHz.wav
4	161	1	1	1	C	2	0	982	0	poli_8sides 2_whiteLine3.jpg	MediumShort_e16_cut1_stereo_44KHz.wav
4	162	3	4	2	I	2	0	994	0	poli_8sides 16_whiteLine3.jpg	MediumShort_b16_cut3_MS_stereo_44KHz.wav
4	163	4	4	2	I	2	0	910	0	poli_8sides 5_whiteLine3.jpg	MediumShort_b16_cut3_MS_stereo_44KHz.wav
4	164	2	2	1	C	1	1	1137	1	poli_8sides 3_whiteLine3.jpg	MediumShort_b10_cut1_MS_stereo_44KHz.wav
4	165	1	2	0	C	2	1	810	1	poli_8sides 2_whiteLine3.jpg	MediumShort_b10_cut1_MS_stereo_44KHz.wav
4	166	4	3	2	I	2	0	724	0	poli_8sides 5_whiteLine3.jpg	MediumShort_e22_cut1_stereo_44KHz.wav
4	167	2	1	0	C	2	1	1137	1	poli_8sides 3_whiteLine3.jpg	MediumShort_e16_cut1_stereo_44KHz.wav
4	168	3	3	2	I	1	0	996	0	poli_8sides 16_whiteLine3.jpg	MediumShort_e22_cut1_stereo_44KHz.wav
4	169	4	3	2	I	1	0	1710	0	poli_8sides 5_whiteLine3.jpg	MediumShort_e22_cut1_stereo_44KHz.wav
4	170	2	1	0	C	2	1	696	1	poli_8sides 3_whiteLine3.jpg	MediumShort_e16_cut1_stereo_44KHz.wav
4	171	1	2	0	C	2	1	892	1	poli_8sides 2_whiteLine3.jpg	MediumShort_b10_cut1_MS_stereo_44KHz.wav
4	172	3	4	2	I	1	0	1798	1	poli_8sides 16_whiteLine3.jpg	MediumShort_b16_cut3_MS_stereo_44KHz.wav
4	173	1	1	1	C	2	0	1435	0	poli_8sides 2_whiteLine3.jpg	MediumShort_e16_cut1_stereo_44KHz.wav
4	174	4	4	2	I	2	0	1567	1	poli_8sides 5_whiteLine3.jpg	MediumShort_b16_cut3_MS_stereo_44KHz.wav
4	175	2	2	1	C	1	1	1215	1	poli_8sides 3_whiteLine3.jpg	MediumShort_b10_cut1_MS_stereo_44KHz.wav
4	176	3	3	2	I	2	0	1864	0	poli_8sides 16_whiteLine3.jpg	MediumShort_e22_cut1_stereo_44KHz.wav
4	177	1	1	1	C	2	0	741	0	poli_8sides 2_whiteLine3.jpg	MediumShort_e16_cut1_stereo_44KHz.wav
4	178	3	4	2	I	1	0	1586	1	poli_8sides 16_whiteLine3.jpg	MediumShort_b16_cut3_MS_stereo_44KHz.wav
4	179	2	1	0	C	2	1	811	1	poli_8sides 3_whiteLine3.jpg	MediumShort_e16_cut1_stereo_44KHz.wav
4	180	4	4	2	I	2	0	727	1	poli_8sides 5_whiteLine3.jpg	MediumShort_b16_cut3_MS_stereo_44KHz.wav
4	181	1	2	0	C	2	1	1565	1	poli_8sides 2_whiteLine3.jpg	MediumShort_b10_cut1_MS_stereo_44KHz.wav
4	182	2	2	1	C	1	1	1405	1	poli_8sides 3_whiteLine3.jpg	MediumShort_b10_cut1_MS_stereo_44KHz.wav
4	183	4	3	2	I	2	0	1771	0	poli_8sides 5_whiteLine3.jpg	MediumShort_e22_cut1_stereo_44KHz.wav
4	184	3	3	2	I	2	0	1067	1	poli_8sides 16_whiteLine3.jpg	MediumShort_e22_cut1_stereo_44KHz.wav
4	185	1	1	1	C	2	0	1403	0	poli_8sides 2_whiteLine3.jpg	MediumShort_e16_cut1_stereo_44KHz.wav
4	186	2	2	1	C	2	0	769	0	poli_8sides 3_whiteLine3.jpg	MediumShort_b10_cut1_MS_stereo_44KHz.wav
4	187	4	4	2	I	2	0	743	0	poli_8sides 5_whiteLine3.jpg	MediumShort_b16_cut3_MS_stereo_44KHz.wav
4	188	3	3	2	I	1	0	1336	1	poli_8sides 16_whiteLine3.jpg	MediumShort_e22_cut1_stereo_44KHz.wav
4	189	1	2	0	C	2	1	1022	1	poli_8sides 2_whiteLine3.jpg	MediumShort_b10_cut1_MS_stereo_44KHz.wav
4	190	4	3	2	I	2	0	1768	1	poli_8sides 5_whiteLine3.jpg	MediumShort_e22_cut1_stereo_44KHz.wav
4	191	3	4	2	I	2	0	1250	1	poli_8sides 16_whiteLine3.jpg	MediumShort_b16_cut3_MS_stereo_44KHz.wav
4	192	2	1	0	C	2	1	709	1	poli_8sides 3_whiteLine3.jpg	MediumShort_e16_cut1_stereo_44KHz.wav
4	193	1	1	1	C	1	1	919	1	poli_8sides 2_whiteLine3.jpg	MediumShort_e16_cut1_stereo_44KHz.wav
4	194	3	3	2	I	2	0	815	1	poli_8sides 16_whiteLine3.jpg	MediumShort_e22_cut1_stereo_44KHz.wav
4	195	4	4	2	I	1	0	1366	1	poli_8sides 5_whiteLine3.jpg	MediumShort_b16_cut3_MS_stereo_44KHz.wav
4	196	2	2	1	C	2	0	838	0	poli_8sides 3_whiteLine3.jpg	MediumShort_b10_cut1_MS_stereo_44KHz.wav
4	197	4	3	2	I	2	0	690	0	poli_8sides 5_whiteLine3.jpg	MediumShort_e22_cut1_stereo_44KHz.wav
4	198	3	4	2	I	2	0	774	0	poli_8sides 16_whiteLine3.jpg	MediumShort_b16_cut3_MS_stereo_44KHz.wav
4	199	2	1	0	C	2	1	456	1	poli_8sides 3_whiteLine3.jpg	MediumShort_e16_cut1_stereo_44KHz.wav
4	200	1	2	0	C	1	0	1734	0	poli_8sides 2_whiteLine3.jpg	MediumShort_b10_cut1_MS_stereo_44KHz.wav
