block	trial	Vstim	Astim	match	C/I	resp	result	RT	fb	V-file	A-file
LR

0	1	1	1	1	C	2	1	1271	1	Ⴢ	cut_oo_stereo_44KHz.wav
0	2	2	4	0	C	2	0	688	0	Ⴞ	cut_ee_stereo_44KHz.wav
0	3	2	3	1	C	2	1	934	1	Ⴞ	cut_eeuw_stereo_44KHz.wav
0	4	1	2	0	C	1	1	791	1	Ⴢ	cut_g_stereo_44KHz.wav
0	5	1	1	1	C	2	1	628	1	Ⴢ	cut_oo_stereo_44KHz.wav
0	6	2	4	0	C	1	1	543	1	Ⴞ	cut_ee_stereo_44KHz.wav
0	7	2	3	1	C	2	1	719	1	Ⴞ	cut_eeuw_stereo_44KHz.wav
0	8	1	2	0	C	1	1	800	1	Ⴢ	cut_g_stereo_44KHz.wav
0	9	1	1	1	C	2	1	572	1	Ⴢ	cut_oo_stereo_44KHz.wav
0	10	2	3	1	C	1	0	386	0	Ⴞ	cut_eeuw_stereo_44KHz.wav
0	11	2	4	0	C	1	1	683	1	Ⴞ	cut_ee_stereo_44KHz.wav
0	12	1	2	0	C	1	1	702	1	Ⴢ	cut_g_stereo_44KHz.wav
0	13	1	1	1	C	2	1	1088	1	Ⴢ	cut_oo_stereo_44KHz.wav
0	14	1	2	0	C	1	1	993	1	Ⴢ	cut_g_stereo_44KHz.wav
0	15	2	4	0	C	1	1	748	1	Ⴞ	cut_ee_stereo_44KHz.wav
0	16	2	3	1	C	2	1	1273	1	Ⴞ	cut_eeuw_stereo_44KHz.wav
0	17	2	3	1	C	2	1	854	1	Ⴞ	cut_eeuw_stereo_44KHz.wav
0	18	1	1	1	C	2	1	1073	1	Ⴢ	cut_oo_stereo_44KHz.wav
0	19	2	4	0	C	1	1	636	1	Ⴞ	cut_ee_stereo_44KHz.wav
0	20	1	2	0	C	1	1	874	1	Ⴢ	cut_g_stereo_44KHz.wav
0	21	2	4	0	C	1	1	557	1	Ⴞ	cut_ee_stereo_44KHz.wav
0	22	1	2	0	C	1	1	1119	1	Ⴢ	cut_g_stereo_44KHz.wav
0	23	2	3	1	C	2	1	887	1	Ⴞ	cut_eeuw_stereo_44KHz.wav
0	24	1	1	1	C	2	1	607	1	Ⴢ	cut_oo_stereo_44KHz.wav
0	25	1	2	0	C	2	0	1197	0	Ⴢ	cut_g_stereo_44KHz.wav
0	26	1	1	1	C	2	1	1223	1	Ⴢ	cut_oo_stereo_44KHz.wav
0	27	2	3	1	C	2	1	721	1	Ⴞ	cut_eeuw_stereo_44KHz.wav
0	28	2	4	0	C	1	1	606	1	Ⴞ	cut_ee_stereo_44KHz.wav
0	29	1	2	0	C	2	0	667	0	Ⴢ	cut_g_stereo_44KHz.wav
0	30	2	3	1	C	2	1	862	1	Ⴞ	cut_eeuw_stereo_44KHz.wav
avg_resp = 837
1	1	2	2	1	C	1	0	1406	0	Ⴉ	cut_f_stereo_44KHz.wav
1	2	3	4	2	I	1	0	929	0	Ⴔ	cut_n_stereo_44KHz.wav
1	3	1	1	1	C	1	0	892	0	Ⴖ	cut_ui_stereo_44KHz.wav
1	4	4	4	2	I	1	0	978	0	Ⴒ	cut_n_stereo_44KHz.wav
1	5	3	3	2	I	1	0	860	0	Ⴔ	cut_r_stereo_44KHz.wav
1	6	2	1	0	C	1	1	947	1	Ⴉ	cut_ui_stereo_44KHz.wav
1	7	4	3	2	I	1	0	866	1	Ⴒ	cut_r_stereo_44KHz.wav
1	8	1	2	0	C	1	1	956	1	Ⴖ	cut_f_stereo_44KHz.wav
1	9	2	2	1	C	2	1	799	1	Ⴉ	cut_f_stereo_44KHz.wav
1	10	4	4	2	I	2	0	1054	0	Ⴒ	cut_n_stereo_44KHz.wav
1	11	1	2	0	C	1	1	828	1	Ⴖ	cut_f_stereo_44KHz.wav
1	12	3	4	2	I	1	0	862	1	Ⴔ	cut_n_stereo_44KHz.wav
1	13	4	3	2	I	1	0	656	0	Ⴒ	cut_r_stereo_44KHz.wav
1	14	3	3	2	I	2	0	784	1	Ⴔ	cut_r_stereo_44KHz.wav
1	15	2	1	0	C	1	1	586	1	Ⴉ	cut_ui_stereo_44KHz.wav
1	16	1	1	1	C	2	1	728	1	Ⴖ	cut_ui_stereo_44KHz.wav
1	17	2	2	1	C	2	1	816	1	Ⴉ	cut_f_stereo_44KHz.wav
1	18	4	4	2	I	2	0	775	1	Ⴒ	cut_n_stereo_44KHz.wav
1	19	1	1	1	C	2	1	757	1	Ⴖ	cut_ui_stereo_44KHz.wav
1	20	3	3	2	I	1	0	982	0	Ⴔ	cut_r_stereo_44KHz.wav
1	21	4	3	2	I	1	0	609	0	Ⴒ	cut_r_stereo_44KHz.wav
1	22	2	1	0	C	1	1	829	1	Ⴉ	cut_ui_stereo_44KHz.wav
1	23	1	2	0	C	1	1	1093	1	Ⴖ	cut_f_stereo_44KHz.wav
1	24	3	4	2	I	1	0	806	1	Ⴔ	cut_n_stereo_44KHz.wav
1	25	2	2	1	C	2	1	916	1	Ⴉ	cut_f_stereo_44KHz.wav
1	26	3	4	2	I	1	0	772	1	Ⴔ	cut_n_stereo_44KHz.wav
1	27	1	1	1	C	2	1	903	1	Ⴖ	cut_ui_stereo_44KHz.wav
1	28	4	4	2	I	2	0	841	0	Ⴒ	cut_n_stereo_44KHz.wav
1	29	2	1	0	C	1	1	886	1	Ⴉ	cut_ui_stereo_44KHz.wav
1	30	1	2	0	C	1	1	727	1	Ⴖ	cut_f_stereo_44KHz.wav
1	31	4	3	2	I	1	0	766	0	Ⴒ	cut_r_stereo_44KHz.wav
1	32	3	3	2	I	2	0	1145	0	Ⴔ	cut_r_stereo_44KHz.wav
1	33	1	1	1	C	2	1	884	1	Ⴖ	cut_ui_stereo_44KHz.wav
1	34	2	1	0	C	1	1	562	1	Ⴉ	cut_ui_stereo_44KHz.wav
1	35	3	4	2	I	1	0	1038	1	Ⴔ	cut_n_stereo_44KHz.wav
1	36	4	4	2	I	1	0	675	0	Ⴒ	cut_n_stereo_44KHz.wav
1	37	1	2	0	C	1	1	687	1	Ⴖ	cut_f_stereo_44KHz.wav
1	38	2	2	1	C	2	1	742	1	Ⴉ	cut_f_stereo_44KHz.wav
1	39	4	3	2	I	1	0	741	0	Ⴒ	cut_r_stereo_44KHz.wav
1	40	3	3	2	I	1	0	542	0	Ⴔ	cut_r_stereo_44KHz.wav
1	41	2	1	0	C	1	1	680	1	Ⴉ	cut_ui_stereo_44KHz.wav
1	42	3	4	2	I	1	0	663	1	Ⴔ	cut_n_stereo_44KHz.wav
1	43	1	1	1	C	2	1	867	1	Ⴖ	cut_ui_stereo_44KHz.wav
1	44	4	4	2	I	1	0	911	1	Ⴒ	cut_n_stereo_44KHz.wav
1	45	2	2	1	C	2	1	974	1	Ⴉ	cut_f_stereo_44KHz.wav
1	46	1	2	0	C	1	1	654	1	Ⴖ	cut_f_stereo_44KHz.wav
1	47	4	3	2	I	1	0	729	1	Ⴒ	cut_r_stereo_44KHz.wav
1	48	3	3	2	I	1	0	932	0	Ⴔ	cut_r_stereo_44KHz.wav
1	49	2	1	0	C	1	1	568	1	Ⴉ	cut_ui_stereo_44KHz.wav
1	50	1	1	1	C	2	1	577	1	Ⴖ	cut_ui_stereo_44KHz.wav
1	51	4	3	2	I	1	0	669	1	Ⴒ	cut_r_stereo_44KHz.wav
1	52	3	3	2	I	2	0	633	1	Ⴔ	cut_r_stereo_44KHz.wav
1	53	4	4	2	I	1	0	773	1	Ⴒ	cut_n_stereo_44KHz.wav
1	54	1	2	0	C	1	1	730	1	Ⴖ	cut_f_stereo_44KHz.wav
1	55	3	4	2	I	1	0	925	0	Ⴔ	cut_n_stereo_44KHz.wav
1	56	2	2	1	C	1	0	648	0	Ⴉ	cut_f_stereo_44KHz.wav
1	57	1	2	0	C	1	1	539	1	Ⴖ	cut_f_stereo_44KHz.wav
1	58	3	3	2	I	2	0	954	1	Ⴔ	cut_r_stereo_44KHz.wav
1	59	4	4	2	I	2	0	854	0	Ⴒ	cut_n_stereo_44KHz.wav
1	60	2	2	1	C	2	1	1178	1	Ⴉ	cut_f_stereo_44KHz.wav
1	61	4	3	2	I	1	0	761	1	Ⴒ	cut_r_stereo_44KHz.wav
1	62	1	1	1	C	2	1	786	1	Ⴖ	cut_ui_stereo_44KHz.wav
1	63	2	1	0	C	1	1	726	1	Ⴉ	cut_ui_stereo_44KHz.wav
1	64	3	4	2	I	1	0	839	1	Ⴔ	cut_n_stereo_44KHz.wav
1	65	1	1	1	C	2	1	829	1	Ⴖ	cut_ui_stereo_44KHz.wav
1	66	4	4	2	I	2	0	831	0	Ⴒ	cut_n_stereo_44KHz.wav
1	67	2	2	1	C	2	1	811	1	Ⴉ	cut_f_stereo_44KHz.wav
1	68	3	3	2	I	2	0	696	1	Ⴔ	cut_r_stereo_44KHz.wav
1	69	4	3	2	I	1	0	834	1	Ⴒ	cut_r_stereo_44KHz.wav
1	70	2	1	0	C	1	1	640	1	Ⴉ	cut_ui_stereo_44KHz.wav
1	71	3	4	2	I	1	0	963	0	Ⴔ	cut_n_stereo_44KHz.wav
1	72	1	2	0	C	1	1	945	1	Ⴖ	cut_f_stereo_44KHz.wav
1	73	3	3	2	I	2	0	860	0	Ⴔ	cut_r_stereo_44KHz.wav
1	74	4	4	2	I	1	0	757	0	Ⴒ	cut_n_stereo_44KHz.wav
1	75	2	1	0	C	1	1	767	1	Ⴉ	cut_ui_stereo_44KHz.wav
1	76	1	2	0	C	1	1	1053	1	Ⴖ	cut_f_stereo_44KHz.wav
1	77	2	2	1	C	2	1	1064	1	Ⴉ	cut_f_stereo_44KHz.wav
1	78	4	3	2	I	1	0	765	0	Ⴒ	cut_r_stereo_44KHz.wav
1	79	1	1	1	C	2	1	908	1	Ⴖ	cut_ui_stereo_44KHz.wav
1	80	3	4	2	I	1	0	1045	1	Ⴔ	cut_n_stereo_44KHz.wav
1	81	2	1	0	C	1	1	811	1	Ⴉ	cut_ui_stereo_44KHz.wav
1	82	1	2	0	C	1	1	719	1	Ⴖ	cut_f_stereo_44KHz.wav
1	83	3	3	2	I	1	0	1044	1	Ⴔ	cut_r_stereo_44KHz.wav
1	84	4	3	2	I	1	0	837	1	Ⴒ	cut_r_stereo_44KHz.wav
1	85	1	1	1	C	2	1	965	1	Ⴖ	cut_ui_stereo_44KHz.wav
1	86	2	2	1	C	2	1	988	1	Ⴉ	cut_f_stereo_44KHz.wav
1	87	3	4	2	I	1	0	932	0	Ⴔ	cut_n_stereo_44KHz.wav
1	88	4	4	2	I	1	0	1055	0	Ⴒ	cut_n_stereo_44KHz.wav
1	89	1	2	0	C	1	1	1154	1	Ⴖ	cut_f_stereo_44KHz.wav
1	90	2	2	1	C	2	1	1199	1	Ⴉ	cut_f_stereo_44KHz.wav
1	91	3	3	2	I	1	0	1183	0	Ⴔ	cut_r_stereo_44KHz.wav
1	92	4	3	2	I	1	0	600	1	Ⴒ	cut_r_stereo_44KHz.wav
1	93	1	1	1	C	2	1	721	1	Ⴖ	cut_ui_stereo_44KHz.wav
1	94	2	1	0	C	1	1	855	1	Ⴉ	cut_ui_stereo_44KHz.wav
1	95	3	4	2	I	1	0	726	0	Ⴔ	cut_n_stereo_44KHz.wav
1	96	4	4	2	I	2	0	770	0	Ⴒ	cut_n_stereo_44KHz.wav
1	97	2	2	1	C	2	1	995	1	Ⴉ	cut_f_stereo_44KHz.wav
1	98	3	3	2	I	2	0	1003	0	Ⴔ	cut_r_stereo_44KHz.wav
1	99	1	1	1	C	2	1	791	1	Ⴖ	cut_ui_stereo_44KHz.wav
1	100	4	4	2	I	2	0	823	0	Ⴒ	cut_n_stereo_44KHz.wav
1	101	3	4	2	I	1	0	797	1	Ⴔ	cut_n_stereo_44KHz.wav
1	102	4	3	2	I	1	0	851	1	Ⴒ	cut_r_stereo_44KHz.wav
1	103	1	2	0	C	1	1	921	1	Ⴖ	cut_f_stereo_44KHz.wav
1	104	2	1	0	C	1	1	648	1	Ⴉ	cut_ui_stereo_44KHz.wav
1	105	3	3	2	I	2	0	798	1	Ⴔ	cut_r_stereo_44KHz.wav
1	106	2	2	1	C	2	1	1007	1	Ⴉ	cut_f_stereo_44KHz.wav
1	107	1	2	0	C	1	1	746	1	Ⴖ	cut_f_stereo_44KHz.wav
1	108	4	4	2	I	1	0	1221	1	Ⴒ	cut_n_stereo_44KHz.wav
1	109	3	4	2	I	1	0	731	0	Ⴔ	cut_n_stereo_44KHz.wav
1	110	4	3	2	I	1	0	842	0	Ⴒ	cut_r_stereo_44KHz.wav
1	111	2	1	0	C	1	1	695	1	Ⴉ	cut_ui_stereo_44KHz.wav
1	112	1	1	1	C	2	1	719	1	Ⴖ	cut_ui_stereo_44KHz.wav
1	113	2	2	1	C	2	1	1050	1	Ⴉ	cut_f_stereo_44KHz.wav
1	114	1	1	1	C	2	1	1263	1	Ⴖ	cut_ui_stereo_44KHz.wav
1	115	3	3	2	I	1	0	960	1	Ⴔ	cut_r_stereo_44KHz.wav
1	116	4	3	2	I	1	0	531	0	Ⴒ	cut_r_stereo_44KHz.wav
1	117	3	4	2	I	1	0	1033	1	Ⴔ	cut_n_stereo_44KHz.wav
1	118	4	4	2	I	2	0	837	0	Ⴒ	cut_n_stereo_44KHz.wav
1	119	1	2	0	C	1	1	866	1	Ⴖ	cut_f_stereo_44KHz.wav
1	120	2	1	0	C	1	1	687	1	Ⴉ	cut_ui_stereo_44KHz.wav
1	121	3	3	2	I	1	0	947	0	Ⴔ	cut_r_stereo_44KHz.wav
1	122	1	1	1	C	2	1	1009	1	Ⴖ	cut_ui_stereo_44KHz.wav
1	123	2	2	1	C	1	0	706	0	Ⴉ	cut_f_stereo_44KHz.wav
1	124	4	3	2	I	1	0	770	1	Ⴒ	cut_r_stereo_44KHz.wav
1	125	3	4	2	I	1	0	854	0	Ⴔ	cut_n_stereo_44KHz.wav
1	126	1	2	0	C	1	1	811	1	Ⴖ	cut_f_stereo_44KHz.wav
1	127	2	1	0	C	1	1	996	1	Ⴉ	cut_ui_stereo_44KHz.wav
1	128	4	4	2	I	1	0	959	1	Ⴒ	cut_n_stereo_44KHz.wav
1	129	2	2	1	C	2	1	986	1	Ⴉ	cut_f_stereo_44KHz.wav
1	130	4	3	2	I	1	0	875	0	Ⴒ	cut_r_stereo_44KHz.wav
1	131	3	3	2	I	1	0	1154	0	Ⴔ	cut_r_stereo_44KHz.wav
1	132	1	2	0	C	1	1	1072	1	Ⴖ	cut_f_stereo_44KHz.wav
1	133	3	4	2	I	1	0	752	0	Ⴔ	cut_n_stereo_44KHz.wav
1	134	2	1	0	C	1	1	813	1	Ⴉ	cut_ui_stereo_44KHz.wav
1	135	1	1	1	C	2	1	858	1	Ⴖ	cut_ui_stereo_44KHz.wav
1	136	4	4	2	I	1	0	764	1	Ⴒ	cut_n_stereo_44KHz.wav
1	137	1	1	1	C	2	1	1247	1	Ⴖ	cut_ui_stereo_44KHz.wav
1	138	4	3	2	I	1	0	672	1	Ⴒ	cut_r_stereo_44KHz.wav
1	139	3	3	2	I	1	0	848	0	Ⴔ	cut_r_stereo_44KHz.wav
1	140	2	2	1	C	2	1	1892	1	Ⴉ	cut_f_stereo_44KHz.wav
1	141	1	2	0	C	1	1	1050	1	Ⴖ	cut_f_stereo_44KHz.wav
1	142	3	4	2	I	1	0	875	1	Ⴔ	cut_n_stereo_44KHz.wav
1	143	4	4	2	I	1	0	719	1	Ⴒ	cut_n_stereo_44KHz.wav
1	144	2	1	0	C	1	1	687	1	Ⴉ	cut_ui_stereo_44KHz.wav
1	145	1	1	1	C	2	1	686	1	Ⴖ	cut_ui_stereo_44KHz.wav
1	146	2	2	1	C	2	1	1083	1	Ⴉ	cut_f_stereo_44KHz.wav
1	147	3	3	2	I	1	0	835	1	Ⴔ	cut_r_stereo_44KHz.wav
1	148	4	3	2	I	1	0	1060	1	Ⴒ	cut_r_stereo_44KHz.wav
1	149	1	2	0	C	1	1	1190	1	Ⴖ	cut_f_stereo_44KHz.wav
1	150	2	1	0	C	1	1	1026	1	Ⴉ	cut_ui_stereo_44KHz.wav
1	151	3	4	2	I	1	0	843	1	Ⴔ	cut_n_stereo_44KHz.wav
1	152	4	4	2	I	1	0	770	1	Ⴒ	cut_n_stereo_44KHz.wav
1	153	2	1	0	C	1	1	783	1	Ⴉ	cut_ui_stereo_44KHz.wav
1	154	3	3	2	I	1	0	1152	1	Ⴔ	cut_r_stereo_44KHz.wav
1	155	4	3	2	I	1	0	763	0	Ⴒ	cut_r_stereo_44KHz.wav
1	156	1	1	1	C	2	1	1222	1	Ⴖ	cut_ui_stereo_44KHz.wav
1	157	3	4	2	I	1	0	1259	1	Ⴔ	cut_n_stereo_44KHz.wav
1	158	4	4	2	I	1	0	778	0	Ⴒ	cut_n_stereo_44KHz.wav
1	159	1	2	0	C	1	1	768	1	Ⴖ	cut_f_stereo_44KHz.wav
1	160	2	2	1	C	2	1	1023	1	Ⴉ	cut_f_stereo_44KHz.wav
1	161	1	1	1	C	2	1	1001	1	Ⴖ	cut_ui_stereo_44KHz.wav
1	162	4	3	2	I	1	0	824	1	Ⴒ	cut_r_stereo_44KHz.wav
1	163	3	4	2	I	1	0	865	0	Ⴔ	cut_n_stereo_44KHz.wav
1	164	2	2	1	C	2	1	1405	1	Ⴉ	cut_f_stereo_44KHz.wav
1	165	4	4	2	I	1	0	886	1	Ⴒ	cut_n_stereo_44KHz.wav
1	166	2	1	0	C	1	1	920	1	Ⴉ	cut_ui_stereo_44KHz.wav
1	167	1	2	0	C	1	1	962	1	Ⴖ	cut_f_stereo_44KHz.wav
1	168	3	3	2	I	1	0	1450	1	Ⴔ	cut_r_stereo_44KHz.wav
1	169	2	1	0	C	1	1	1011	1	Ⴉ	cut_ui_stereo_44KHz.wav
1	170	1	1	1	C	2	1	890	1	Ⴖ	cut_ui_stereo_44KHz.wav
1	171	4	4	2	I	1	0	816	1	Ⴒ	cut_n_stereo_44KHz.wav
1	172	3	3	2	I	1	0	610	0	Ⴔ	cut_r_stereo_44KHz.wav
1	173	1	2	0	C	1	1	827	1	Ⴖ	cut_f_stereo_44KHz.wav
1	174	3	4	2	I	1	0	765	0	Ⴔ	cut_n_stereo_44KHz.wav
1	175	2	2	1	C	2	1	1101	1	Ⴉ	cut_f_stereo_44KHz.wav
1	176	4	3	2	I	1	0	691	1	Ⴒ	cut_r_stereo_44KHz.wav
1	177	3	4	2	I	1	0	806	1	Ⴔ	cut_n_stereo_44KHz.wav
1	178	4	3	2	I	1	0	614	1	Ⴒ	cut_r_stereo_44KHz.wav
1	179	2	1	0	C	1	1	625	1	Ⴉ	cut_ui_stereo_44KHz.wav
1	180	1	1	1	C	2	1	873	1	Ⴖ	cut_ui_stereo_44KHz.wav
1	181	3	3	2	I	1	0	798	0	Ⴔ	cut_r_stereo_44KHz.wav
1	182	4	4	2	I	1	0	857	0	Ⴒ	cut_n_stereo_44KHz.wav
1	183	2	2	1	C	2	1	926	1	Ⴉ	cut_f_stereo_44KHz.wav
1	184	1	2	0	C	1	1	795	1	Ⴖ	cut_f_stereo_44KHz.wav
1	185	4	3	2	I	1	0	685	0	Ⴒ	cut_r_stereo_44KHz.wav
1	186	3	4	2	I	1	0	675	0	Ⴔ	cut_n_stereo_44KHz.wav
1	187	2	2	1	C	2	1	1269	1	Ⴉ	cut_f_stereo_44KHz.wav
1	188	1	1	1	C	1	0	474	0	Ⴖ	cut_ui_stereo_44KHz.wav
1	189	4	4	2	I	1	0	1317	0	Ⴒ	cut_n_stereo_44KHz.wav
1	190	3	3	2	I	1	0	1040	1	Ⴔ	cut_r_stereo_44KHz.wav
1	191	2	1	0	C	2	0	882	0	Ⴉ	cut_ui_stereo_44KHz.wav
1	192	1	2	0	C	1	1	762	1	Ⴖ	cut_f_stereo_44KHz.wav
1	193	4	3	2	I	1	0	962	0	Ⴒ	cut_r_stereo_44KHz.wav
1	194	2	2	1	C	2	1	1272	1	Ⴉ	cut_f_stereo_44KHz.wav
1	195	3	3	2	I	1	0	771	1	Ⴔ	cut_r_stereo_44KHz.wav
1	196	1	2	0	C	1	1	825	1	Ⴖ	cut_f_stereo_44KHz.wav
1	197	4	4	2	I	2	0	1214	1	Ⴒ	cut_n_stereo_44KHz.wav
1	198	3	4	2	I	1	0	1036	0	Ⴔ	cut_n_stereo_44KHz.wav
1	199	2	1	0	C	1	1	815	1	Ⴉ	cut_ui_stereo_44KHz.wav
1	200	1	1	1	C	2	1	1206	1	Ⴖ	cut_ui_stereo_44KHz.wav
2	1	4	3	2	I	1	0	1040	0	Ⴊ	cut_u_stereo_44KHz.wav
2	2	2	2	1	C	2	1	723	1	Ⴡ	cut_o_stereo_44KHz.wav
2	3	3	3	2	I	1	0	644	0	Ⴁ	cut_u_stereo_44KHz.wav
2	4	1	1	1	C	1	0	674	0	Ⴇ	cut_a_stereo_44KHz.wav
2	5	3	4	2	I	1	0	668	0	Ⴁ	cut_k_stereo_44KHz.wav
2	6	4	4	2	I	1	0	597	0	Ⴊ	cut_k_stereo_44KHz.wav
2	7	2	1	0	C	1	1	549	1	Ⴡ	cut_a_stereo_44KHz.wav
2	8	1	2	0	C	1	1	631	1	Ⴇ	cut_o_stereo_44KHz.wav
2	9	3	4	2	I	2	0	758	1	Ⴁ	cut_k_stereo_44KHz.wav
2	10	2	1	0	C	2	0	646	0	Ⴡ	cut_a_stereo_44KHz.wav
2	11	4	3	2	I	2	0	787	1	Ⴊ	cut_u_stereo_44KHz.wav
2	12	1	1	1	C	2	1	926	1	Ⴇ	cut_a_stereo_44KHz.wav
2	13	2	2	1	C	2	1	624	1	Ⴡ	cut_o_stereo_44KHz.wav
2	14	4	4	2	I	2	0	659	0	Ⴊ	cut_k_stereo_44KHz.wav
2	15	3	3	2	I	2	0	685	1	Ⴁ	cut_u_stereo_44KHz.wav
2	16	1	2	0	C	1	1	451	1	Ⴇ	cut_o_stereo_44KHz.wav
2	17	3	3	2	I	2	0	668	0	Ⴁ	cut_u_stereo_44KHz.wav
2	18	4	3	2	I	2	0	746	1	Ⴊ	cut_u_stereo_44KHz.wav
2	19	1	1	1	C	2	1	818	1	Ⴇ	cut_a_stereo_44KHz.wav
2	20	2	2	1	C	2	1	657	1	Ⴡ	cut_o_stereo_44KHz.wav
2	21	4	4	2	I	1	0	897	0	Ⴊ	cut_k_stereo_44KHz.wav
2	22	1	2	0	C	1	1	692	1	Ⴇ	cut_o_stereo_44KHz.wav
2	23	2	1	0	C	1	1	461	1	Ⴡ	cut_a_stereo_44KHz.wav
2	24	3	4	2	I	1	0	825	1	Ⴁ	cut_k_stereo_44KHz.wav
2	25	4	3	2	I	2	0	650	1	Ⴊ	cut_u_stereo_44KHz.wav
2	26	3	4	2	I	1	0	777	1	Ⴁ	cut_k_stereo_44KHz.wav
2	27	2	1	0	C	1	1	602	1	Ⴡ	cut_a_stereo_44KHz.wav
2	28	1	1	1	C	1	0	416	0	Ⴇ	cut_a_stereo_44KHz.wav
2	29	3	3	2	I	2	0	817	0	Ⴁ	cut_u_stereo_44KHz.wav
2	30	4	4	2	I	2	0	949	0	Ⴊ	cut_k_stereo_44KHz.wav
2	31	2	2	1	C	1	0	553	0	Ⴡ	cut_o_stereo_44KHz.wav
2	32	1	2	0	C	1	1	530	1	Ⴇ	cut_o_stereo_44KHz.wav
2	33	2	2	1	C	2	1	713	1	Ⴡ	cut_o_stereo_44KHz.wav
2	34	4	3	2	I	2	0	662	1	Ⴊ	cut_u_stereo_44KHz.wav
2	35	3	3	2	I	2	0	585	1	Ⴁ	cut_u_stereo_44KHz.wav
2	36	1	1	1	C	2	1	900	1	Ⴇ	cut_a_stereo_44KHz.wav
2	37	3	4	2	I	1	0	1199	1	Ⴁ	cut_k_stereo_44KHz.wav
2	38	1	2	0	C	1	1	668	1	Ⴇ	cut_o_stereo_44KHz.wav
2	39	2	1	0	C	1	1	407	1	Ⴡ	cut_a_stereo_44KHz.wav
2	40	4	4	2	I	2	0	837	0	Ⴊ	cut_k_stereo_44KHz.wav
2	41	1	2	0	C	1	1	685	1	Ⴇ	cut_o_stereo_44KHz.wav
2	42	3	3	2	I	1	0	764	0	Ⴁ	cut_u_stereo_44KHz.wav
2	43	2	2	1	C	1	0	608	0	Ⴡ	cut_o_stereo_44KHz.wav
2	44	4	3	2	I	1	0	815	1	Ⴊ	cut_u_stereo_44KHz.wav
2	45	2	1	0	C	1	1	487	1	Ⴡ	cut_a_stereo_44KHz.wav
2	46	3	4	2	I	1	0	1105	1	Ⴁ	cut_k_stereo_44KHz.wav
2	47	4	4	2	I	2	0	900	1	Ⴊ	cut_k_stereo_44KHz.wav
2	48	1	1	1	C	2	1	848	1	Ⴇ	cut_a_stereo_44KHz.wav
2	49	4	3	2	I	2	0	610	0	Ⴊ	cut_u_stereo_44KHz.wav
2	50	1	1	1	C	2	1	735	1	Ⴇ	cut_a_stereo_44KHz.wav
2	51	3	4	2	I	1	0	676	1	Ⴁ	cut_k_stereo_44KHz.wav
2	52	2	2	1	C	2	1	723	1	Ⴡ	cut_o_stereo_44KHz.wav
2	53	1	2	0	C	1	1	651	1	Ⴇ	cut_o_stereo_44KHz.wav
2	54	4	4	2	I	2	0	921	1	Ⴊ	cut_k_stereo_44KHz.wav
2	55	3	3	2	I	2	0	993	0	Ⴁ	cut_u_stereo_44KHz.wav
2	56	2	1	0	C	1	1	607	1	Ⴡ	cut_a_stereo_44KHz.wav
2	57	3	3	2	I	2	0	995	1	Ⴁ	cut_u_stereo_44KHz.wav
2	58	1	2	0	C	1	1	523	1	Ⴇ	cut_o_stereo_44KHz.wav
2	59	4	4	2	I	2	0	792	1	Ⴊ	cut_k_stereo_44KHz.wav
2	60	2	1	0	C	1	1	542	1	Ⴡ	cut_a_stereo_44KHz.wav
2	61	3	4	2	I	1	0	752	1	Ⴁ	cut_k_stereo_44KHz.wav
2	62	2	2	1	C	2	1	785	1	Ⴡ	cut_o_stereo_44KHz.wav
2	63	4	3	2	I	2	0	831	0	Ⴊ	cut_u_stereo_44KHz.wav
2	64	1	1	1	C	2	1	762	1	Ⴇ	cut_a_stereo_44KHz.wav
2	65	3	4	2	I	1	0	902	0	Ⴁ	cut_k_stereo_44KHz.wav
2	66	2	1	0	C	1	1	641	1	Ⴡ	cut_a_stereo_44KHz.wav
2	67	4	3	2	I	2	0	839	1	Ⴊ	cut_u_stereo_44KHz.wav
2	68	1	1	1	C	2	1	623	1	Ⴇ	cut_a_stereo_44KHz.wav
2	69	3	3	2	I	2	0	1199	1	Ⴁ	cut_u_stereo_44KHz.wav
2	70	1	2	0	C	1	1	820	1	Ⴇ	cut_o_stereo_44KHz.wav
2	71	4	4	2	I	2	0	767	1	Ⴊ	cut_k_stereo_44KHz.wav
2	72	2	2	1	C	2	1	838	1	Ⴡ	cut_o_stereo_44KHz.wav
2	73	1	1	1	C	2	1	822	1	Ⴇ	cut_a_stereo_44KHz.wav
2	74	3	3	2	I	2	0	1063	0	Ⴁ	cut_u_stereo_44KHz.wav
2	75	4	4	2	I	2	0	838	1	Ⴊ	cut_k_stereo_44KHz.wav
2	76	2	2	1	C	2	1	738	1	Ⴡ	cut_o_stereo_44KHz.wav
2	77	3	4	2	I	2	0	807	1	Ⴁ	cut_k_stereo_44KHz.wav
2	78	2	1	0	C	1	1	607	1	Ⴡ	cut_a_stereo_44KHz.wav
2	79	1	2	0	C	1	1	987	1	Ⴇ	cut_o_stereo_44KHz.wav
2	80	4	3	2	I	2	0	781	0	Ⴊ	cut_u_stereo_44KHz.wav
2	81	2	1	0	C	1	1	609	1	Ⴡ	cut_a_stereo_44KHz.wav
2	82	3	3	2	I	1	0	771	0	Ⴁ	cut_u_stereo_44KHz.wav
2	83	4	4	2	I	1	0	676	0	Ⴊ	cut_k_stereo_44KHz.wav
2	84	1	1	1	C	2	1	701	1	Ⴇ	cut_a_stereo_44KHz.wav
2	85	4	3	2	I	1	0	761	0	Ⴊ	cut_u_stereo_44KHz.wav
2	86	2	2	1	C	2	1	797	1	Ⴡ	cut_o_stereo_44KHz.wav
2	87	1	2	0	C	1	1	590	1	Ⴇ	cut_o_stereo_44KHz.wav
2	88	3	4	2	I	2	0	735	1	Ⴁ	cut_k_stereo_44KHz.wav
2	89	2	1	0	C	1	1	889	1	Ⴡ	cut_a_stereo_44KHz.wav
2	90	3	3	2	I	1	0	868	0	Ⴁ	cut_u_stereo_44KHz.wav
2	91	4	3	2	I	1	0	680	0	Ⴊ	cut_u_stereo_44KHz.wav
2	92	1	1	1	C	2	1	1169	1	Ⴇ	cut_a_stereo_44KHz.wav
2	93	3	4	2	I	1	0	1060	1	Ⴁ	cut_k_stereo_44KHz.wav
2	94	4	4	2	I	2	0	724	1	Ⴊ	cut_k_stereo_44KHz.wav
2	95	2	2	1	C	2	1	646	1	Ⴡ	cut_o_stereo_44KHz.wav
2	96	1	2	0	C	1	1	998	1	Ⴇ	cut_o_stereo_44KHz.wav
2	97	3	4	2	I	1	0	736	0	Ⴁ	cut_k_stereo_44KHz.wav
2	98	1	2	0	C	1	1	645	1	Ⴇ	cut_o_stereo_44KHz.wav
2	99	2	1	0	C	1	1	684	1	Ⴡ	cut_a_stereo_44KHz.wav
2	100	4	4	2	I	1	0	710	0	Ⴊ	cut_k_stereo_44KHz.wav
2	101	3	3	2	I	1	0	733	0	Ⴁ	cut_u_stereo_44KHz.wav
2	102	2	2	1	C	2	1	738	1	Ⴡ	cut_o_stereo_44KHz.wav
2	103	4	3	2	I	2	0	782	0	Ⴊ	cut_u_stereo_44KHz.wav
2	104	1	1	1	C	2	1	701	1	Ⴇ	cut_a_stereo_44KHz.wav
2	105	3	4	2	I	1	0	726	0	Ⴁ	cut_k_stereo_44KHz.wav
2	106	2	2	1	C	2	1	779	1	Ⴡ	cut_o_stereo_44KHz.wav
2	107	1	2	0	C	1	1	760	1	Ⴇ	cut_o_stereo_44KHz.wav
2	108	4	3	2	I	2	0	739	1	Ⴊ	cut_u_stereo_44KHz.wav
2	109	3	3	2	I	1	0	774	1	Ⴁ	cut_u_stereo_44KHz.wav
2	110	2	1	0	C	1	1	720	1	Ⴡ	cut_a_stereo_44KHz.wav
2	111	4	4	2	I	2	0	669	1	Ⴊ	cut_k_stereo_44KHz.wav
2	112	1	1	1	C	2	1	907	1	Ⴇ	cut_a_stereo_44KHz.wav
2	113	4	4	2	I	2	0	598	1	Ⴊ	cut_k_stereo_44KHz.wav
2	114	1	1	1	C	2	1	688	1	Ⴇ	cut_a_stereo_44KHz.wav
2	115	2	1	0	C	1	1	888	1	Ⴡ	cut_a_stereo_44KHz.wav
2	116	3	3	2	I	2	0	943	1	Ⴁ	cut_u_stereo_44KHz.wav
2	117	2	2	1	C	2	1	750	1	Ⴡ	cut_o_stereo_44KHz.wav
2	118	3	4	2	I	2	0	709	1	Ⴁ	cut_k_stereo_44KHz.wav
2	119	1	2	0	C	1	1	719	1	Ⴇ	cut_o_stereo_44KHz.wav
2	120	4	3	2	I	2	0	688	0	Ⴊ	cut_u_stereo_44KHz.wav
2	121	2	1	0	C	1	1	712	1	Ⴡ	cut_a_stereo_44KHz.wav
2	122	1	1	1	C	2	1	767	1	Ⴇ	cut_a_stereo_44KHz.wav
2	123	4	4	2	I	2	0	648	1	Ⴊ	cut_k_stereo_44KHz.wav
2	124	3	4	2	I	2	0	646	1	Ⴁ	cut_k_stereo_44KHz.wav
2	125	2	2	1	C	2	1	729	1	Ⴡ	cut_o_stereo_44KHz.wav
2	126	4	3	2	I	2	0	586	1	Ⴊ	cut_u_stereo_44KHz.wav
2	127	3	3	2	I	1	0	851	0	Ⴁ	cut_u_stereo_44KHz.wav
2	128	1	2	0	C	1	1	709	1	Ⴇ	cut_o_stereo_44KHz.wav
2	129	3	4	2	I	1	0	761	0	Ⴁ	cut_k_stereo_44KHz.wav
2	130	4	4	2	I	1	0	680	0	Ⴊ	cut_k_stereo_44KHz.wav
2	131	2	1	0	C	1	1	749	1	Ⴡ	cut_a_stereo_44KHz.wav
2	132	1	2	0	C	1	1	692	1	Ⴇ	cut_o_stereo_44KHz.wav
2	133	2	2	1	C	2	1	741	1	Ⴡ	cut_o_stereo_44KHz.wav
2	134	1	1	1	C	1	0	1185	0	Ⴇ	cut_a_stereo_44KHz.wav
2	135	3	3	2	I	1	0	799	0	Ⴁ	cut_u_stereo_44KHz.wav
2	136	4	3	2	I	1	0	758	1	Ⴊ	cut_u_stereo_44KHz.wav
2	137	2	1	0	C	1	1	629	1	Ⴡ	cut_a_stereo_44KHz.wav
2	138	1	1	1	C	2	1	718	1	Ⴇ	cut_a_stereo_44KHz.wav
2	139	4	3	2	I	1	0	737	0	Ⴊ	cut_u_stereo_44KHz.wav
2	140	3	3	2	I	1	0	644	0	Ⴁ	cut_u_stereo_44KHz.wav
2	141	4	4	2	I	1	0	693	1	Ⴊ	cut_k_stereo_44KHz.wav
2	142	3	4	2	I	1	0	688	0	Ⴁ	cut_k_stereo_44KHz.wav
2	143	2	2	1	C	2	1	996	1	Ⴡ	cut_o_stereo_44KHz.wav
2	144	1	2	0	C	1	1	511	1	Ⴇ	cut_o_stereo_44KHz.wav
2	145	3	4	2	I	1	0	641	0	Ⴁ	cut_k_stereo_44KHz.wav
2	146	2	1	0	C	1	1	775	1	Ⴡ	cut_a_stereo_44KHz.wav
2	147	1	1	1	C	2	1	821	1	Ⴇ	cut_a_stereo_44KHz.wav
2	148	4	4	2	I	1	0	730	1	Ⴊ	cut_k_stereo_44KHz.wav
2	149	2	2	1	C	2	1	962	1	Ⴡ	cut_o_stereo_44KHz.wav
2	150	1	2	0	C	1	1	457	1	Ⴇ	cut_o_stereo_44KHz.wav
2	151	4	3	2	I	1	0	813	1	Ⴊ	cut_u_stereo_44KHz.wav
2	152	3	3	2	I	1	0	679	0	Ⴁ	cut_u_stereo_44KHz.wav
2	153	1	2	0	C	1	1	674	1	Ⴇ	cut_o_stereo_44KHz.wav
2	154	4	3	2	I	1	0	799	0	Ⴊ	cut_u_stereo_44KHz.wav
2	155	2	1	0	C	1	1	708	1	Ⴡ	cut_a_stereo_44KHz.wav
2	156	3	3	2	I	1	0	763	0	Ⴁ	cut_u_stereo_44KHz.wav
2	157	4	4	2	I	1	0	713	1	Ⴊ	cut_k_stereo_44KHz.wav
2	158	1	1	1	C	2	1	973	1	Ⴇ	cut_a_stereo_44KHz.wav
2	159	3	4	2	I	1	0	721	1	Ⴁ	cut_k_stereo_44KHz.wav
2	160	2	2	1	C	2	1	809	1	Ⴡ	cut_o_stereo_44KHz.wav
2	161	1	1	1	C	2	1	780	1	Ⴇ	cut_a_stereo_44KHz.wav
2	162	3	4	2	I	2	0	630	1	Ⴁ	cut_k_stereo_44KHz.wav
2	163	2	2	1	C	2	1	875	1	Ⴡ	cut_o_stereo_44KHz.wav
2	164	4	3	2	I	2	0	659	1	Ⴊ	cut_u_stereo_44KHz.wav
2	165	1	2	0	C	1	1	648	1	Ⴇ	cut_o_stereo_44KHz.wav
2	166	4	4	2	I	2	0	1215	0	Ⴊ	cut_k_stereo_44KHz.wav
2	167	2	1	0	C	1	1	905	1	Ⴡ	cut_a_stereo_44KHz.wav
2	168	3	3	2	I	2	0	631	0	Ⴁ	cut_u_stereo_44KHz.wav
2	169	4	3	2	I	2	0	785	0	Ⴊ	cut_u_stereo_44KHz.wav
2	170	2	2	1	C	2	1	789	1	Ⴡ	cut_o_stereo_44KHz.wav
2	171	1	2	0	C	1	1	843	1	Ⴇ	cut_o_stereo_44KHz.wav
2	172	3	4	2	I	1	0	1144	1	Ⴁ	cut_k_stereo_44KHz.wav
2	173	2	1	0	C	1	1	609	1	Ⴡ	cut_a_stereo_44KHz.wav
2	174	3	3	2	I	1	0	890	0	Ⴁ	cut_u_stereo_44KHz.wav
2	175	1	1	1	C	2	1	723	1	Ⴇ	cut_a_stereo_44KHz.wav
2	176	4	4	2	I	2	0	988	1	Ⴊ	cut_k_stereo_44KHz.wav
2	177	3	3	2	I	2	0	1544	1	Ⴁ	cut_u_stereo_44KHz.wav
2	178	4	4	2	I	2	0	1315	0	Ⴊ	cut_k_stereo_44KHz.wav
2	179	2	1	0	C	1	1	701	1	Ⴡ	cut_a_stereo_44KHz.wav
2	180	1	2	0	C	1	1	515	1	Ⴇ	cut_o_stereo_44KHz.wav
2	181	4	3	2	I	2	0	734	0	Ⴊ	cut_u_stereo_44KHz.wav
2	182	1	1	1	C	2	1	840	1	Ⴇ	cut_a_stereo_44KHz.wav
2	183	2	2	1	C	2	1	750	1	Ⴡ	cut_o_stereo_44KHz.wav
2	184	3	4	2	I	1	0	979	1	Ⴁ	cut_k_stereo_44KHz.wav
2	185	1	1	1	C	2	1	919	1	Ⴇ	cut_a_stereo_44KHz.wav
2	186	4	3	2	I	1	0	979	0	Ⴊ	cut_u_stereo_44KHz.wav
2	187	2	1	0	C	1	1	765	1	Ⴡ	cut_a_stereo_44KHz.wav
2	188	3	3	2	I	2	0	930	0	Ⴁ	cut_u_stereo_44KHz.wav
2	189	4	4	2	I	2	0	886	1	Ⴊ	cut_k_stereo_44KHz.wav
2	190	1	2	0	C	1	1	730	1	Ⴇ	cut_o_stereo_44KHz.wav
2	191	3	4	2	I	2	0	936	0	Ⴁ	cut_k_stereo_44KHz.wav
2	192	2	2	1	C	2	1	715	1	Ⴡ	cut_o_stereo_44KHz.wav
2	193	3	4	2	I	1	0	1021	1	Ⴁ	cut_k_stereo_44KHz.wav
2	194	4	4	2	I	2	0	843	0	Ⴊ	cut_k_stereo_44KHz.wav
2	195	1	2	0	C	1	1	706	1	Ⴇ	cut_o_stereo_44KHz.wav
2	196	2	2	1	C	2	1	764	1	Ⴡ	cut_o_stereo_44KHz.wav
2	197	4	3	2	I	2	0	613	0	Ⴊ	cut_u_stereo_44KHz.wav
2	198	3	3	2	I	2	0	928	1	Ⴁ	cut_u_stereo_44KHz.wav
2	199	2	1	0	C	1	1	747	1	Ⴡ	cut_a_stereo_44KHz.wav
2	200	1	1	1	C	2	1	761	1	Ⴇ	cut_a_stereo_44KHz.wav
3	1	2	2	1	C	1	0	1067	0	Ⴏ	cut_g_stereo_44KHz.wav
3	2	4	4	2	I	1	0	815	1	Ⴌ	cut_h_stereo_44KHz.wav
3	3	3	3	2	I	2	0	723	1	Ⴐ	cut_w_stereo_44KHz.wav
3	4	1	2	0	C	2	0	795	0	Ⴕ	cut_g_stereo_44KHz.wav
3	5	3	4	2	I	2	0	808	0	Ⴐ	cut_h_stereo_44KHz.wav
3	6	2	1	0	C	1	1	988	1	Ⴏ	cut_l_stereo_44KHz.wav
3	7	4	3	2	I	2	0	885	0	Ⴌ	cut_w_stereo_44KHz.wav
3	8	1	1	1	C	2	1	794	1	Ⴕ	cut_l_stereo_44KHz.wav
3	9	4	3	2	I	2	0	792	0	Ⴌ	cut_w_stereo_44KHz.wav
3	10	3	3	2	I	1	0	732	1	Ⴐ	cut_w_stereo_44KHz.wav
3	11	2	2	1	C	2	1	1004	1	Ⴏ	cut_g_stereo_44KHz.wav
3	12	1	1	1	C	2	1	1188	1	Ⴕ	cut_l_stereo_44KHz.wav
3	13	4	4	2	I	1	0	743	1	Ⴌ	cut_h_stereo_44KHz.wav
3	14	1	2	0	C	2	0	1060	0	Ⴕ	cut_g_stereo_44KHz.wav
3	15	3	4	2	I	1	0	873	0	Ⴐ	cut_h_stereo_44KHz.wav
3	16	2	1	0	C	1	1	602	1	Ⴏ	cut_l_stereo_44KHz.wav
3	17	3	3	2	I	1	0	750	1	Ⴐ	cut_w_stereo_44KHz.wav
3	18	2	1	0	C	1	1	705	1	Ⴏ	cut_l_stereo_44KHz.wav
3	19	1	2	0	C	1	1	804	1	Ⴕ	cut_g_stereo_44KHz.wav
3	20	4	4	2	I	1	0	723	0	Ⴌ	cut_h_stereo_44KHz.wav
3	21	3	4	2	I	2	0	864	1	Ⴐ	cut_h_stereo_44KHz.wav
3	22	2	2	1	C	2	1	854	1	Ⴏ	cut_g_stereo_44KHz.wav
3	23	4	3	2	I	1	0	822	1	Ⴌ	cut_w_stereo_44KHz.wav
3	24	1	1	1	C	2	1	602	1	Ⴕ	cut_l_stereo_44KHz.wav
3	25	2	2	1	C	2	1	716	1	Ⴏ	cut_g_stereo_44KHz.wav
3	26	3	3	2	I	1	0	758	0	Ⴐ	cut_w_stereo_44KHz.wav
3	27	1	1	1	C	2	1	615	1	Ⴕ	cut_l_stereo_44KHz.wav
3	28	4	4	2	I	1	0	743	1	Ⴌ	cut_h_stereo_44KHz.wav
3	29	2	1	0	C	1	1	728	1	Ⴏ	cut_l_stereo_44KHz.wav
3	30	1	2	0	C	1	1	642	1	Ⴕ	cut_g_stereo_44KHz.wav
3	31	3	4	2	I	1	0	965	1	Ⴐ	cut_h_stereo_44KHz.wav
3	32	4	3	2	I	1	0	857	0	Ⴌ	cut_w_stereo_44KHz.wav
3	33	2	1	0	C	1	1	1053	1	Ⴏ	cut_l_stereo_44KHz.wav
3	34	1	1	1	C	2	1	764	1	Ⴕ	cut_l_stereo_44KHz.wav
3	35	3	4	2	I	1	0	692	0	Ⴐ	cut_h_stereo_44KHz.wav
3	36	4	3	2	I	1	0	786	0	Ⴌ	cut_w_stereo_44KHz.wav
3	37	2	2	1	C	2	1	700	1	Ⴏ	cut_g_stereo_44KHz.wav
3	38	1	2	0	C	1	1	967	1	Ⴕ	cut_g_stereo_44KHz.wav
3	39	4	4	2	I	1	0	769	1	Ⴌ	cut_h_stereo_44KHz.wav
3	40	3	3	2	I	1	0	857	0	Ⴐ	cut_w_stereo_44KHz.wav
3	41	2	2	1	C	2	1	987	1	Ⴏ	cut_g_stereo_44KHz.wav
3	42	1	2	0	C	1	1	661	1	Ⴕ	cut_g_stereo_44KHz.wav
3	43	4	4	2	I	1	0	672	0	Ⴌ	cut_h_stereo_44KHz.wav
3	44	3	4	2	I	2	0	810	1	Ⴐ	cut_h_stereo_44KHz.wav
3	45	4	3	2	I	2	0	969	0	Ⴌ	cut_w_stereo_44KHz.wav
3	46	1	1	1	C	2	1	907	1	Ⴕ	cut_l_stereo_44KHz.wav
3	47	3	3	2	I	1	0	904	0	Ⴐ	cut_w_stereo_44KHz.wav
3	48	2	1	0	C	1	1	719	1	Ⴏ	cut_l_stereo_44KHz.wav
3	49	1	2	0	C	1	1	735	1	Ⴕ	cut_g_stereo_44KHz.wav
3	50	4	3	2	I	2	0	1245	0	Ⴌ	cut_w_stereo_44KHz.wav
3	51	2	2	1	C	2	1	1092	1	Ⴏ	cut_g_stereo_44KHz.wav
3	52	3	3	2	I	2	0	1050	0	Ⴐ	cut_w_stereo_44KHz.wav
3	53	1	1	1	C	2	1	784	1	Ⴕ	cut_l_stereo_44KHz.wav
3	54	2	1	0	C	1	1	676	1	Ⴏ	cut_l_stereo_44KHz.wav
3	55	4	4	2	I	2	0	882	1	Ⴌ	cut_h_stereo_44KHz.wav
3	56	3	4	2	I	1	0	1015	1	Ⴐ	cut_h_stereo_44KHz.wav
3	57	4	3	2	I	1	0	808	0	Ⴌ	cut_w_stereo_44KHz.wav
3	58	3	4	2	I	1	0	931	1	Ⴐ	cut_h_stereo_44KHz.wav
3	59	2	2	1	C	2	1	815	1	Ⴏ	cut_g_stereo_44KHz.wav
3	60	1	2	0	C	1	1	603	1	Ⴕ	cut_g_stereo_44KHz.wav
3	61	4	4	2	I	1	0	893	0	Ⴌ	cut_h_stereo_44KHz.wav
3	62	1	1	1	C	2	1	680	1	Ⴕ	cut_l_stereo_44KHz.wav
3	63	2	1	0	C	1	1	495	1	Ⴏ	cut_l_stereo_44KHz.wav
3	64	3	3	2	I	2	0	826	1	Ⴐ	cut_w_stereo_44KHz.wav
3	65	2	2	1	C	2	1	737	1	Ⴏ	cut_g_stereo_44KHz.wav
3	66	3	3	2	I	1	0	918	1	Ⴐ	cut_w_stereo_44KHz.wav
3	67	1	1	1	C	2	1	1035	1	Ⴕ	cut_l_stereo_44KHz.wav
3	68	4	3	2	I	1	0	775	0	Ⴌ	cut_w_stereo_44KHz.wav
3	69	1	2	0	C	2	0	840	0	Ⴕ	cut_g_stereo_44KHz.wav
3	70	2	1	0	C	1	1	1026	1	Ⴏ	cut_l_stereo_44KHz.wav
3	71	4	4	2	I	1	0	659	1	Ⴌ	cut_h_stereo_44KHz.wav
3	72	3	4	2	I	1	0	767	1	Ⴐ	cut_h_stereo_44KHz.wav
3	73	2	2	1	C	2	1	991	1	Ⴏ	cut_g_stereo_44KHz.wav
3	74	4	4	2	I	1	0	627	1	Ⴌ	cut_h_stereo_44KHz.wav
3	75	3	4	2	I	2	0	701	1	Ⴐ	cut_h_stereo_44KHz.wav
3	76	1	1	1	C	2	1	773	1	Ⴕ	cut_l_stereo_44KHz.wav
3	77	2	1	0	C	1	1	663	1	Ⴏ	cut_l_stereo_44KHz.wav
3	78	3	3	2	I	2	0	796	1	Ⴐ	cut_w_stereo_44KHz.wav
3	79	4	3	2	I	2	0	634	0	Ⴌ	cut_w_stereo_44KHz.wav
3	80	1	2	0	C	1	1	1030	1	Ⴕ	cut_g_stereo_44KHz.wav
3	81	3	3	2	I	1	0	927	1	Ⴐ	cut_w_stereo_44KHz.wav
3	82	4	3	2	I	1	0	682	1	Ⴌ	cut_w_stereo_44KHz.wav
3	83	1	1	1	C	2	1	824	1	Ⴕ	cut_l_stereo_44KHz.wav
3	84	2	1	0	C	1	1	661	1	Ⴏ	cut_l_stereo_44KHz.wav
3	85	4	4	2	I	1	0	686	0	Ⴌ	cut_h_stereo_44KHz.wav
3	86	2	2	1	C	2	1	917	1	Ⴏ	cut_g_stereo_44KHz.wav
3	87	1	2	0	C	1	1	887	1	Ⴕ	cut_g_stereo_44KHz.wav
3	88	3	4	2	I	1	0	1067	0	Ⴐ	cut_h_stereo_44KHz.wav
3	89	4	4	2	I	1	0	876	1	Ⴌ	cut_h_stereo_44KHz.wav
3	90	2	1	0	C	2	0	1239	0	Ⴏ	cut_l_stereo_44KHz.wav
3	91	3	3	2	I	1	0	822	0	Ⴐ	cut_w_stereo_44KHz.wav
3	92	1	2	0	C	1	1	845	1	Ⴕ	cut_g_stereo_44KHz.wav
3	93	4	3	2	I	1	0	783	0	Ⴌ	cut_w_stereo_44KHz.wav
3	94	1	1	1	C	1	0	954	0	Ⴕ	cut_l_stereo_44KHz.wav
3	95	3	4	2	I	1	0	796	0	Ⴐ	cut_h_stereo_44KHz.wav
3	96	2	2	1	C	2	1	1291	1	Ⴏ	cut_g_stereo_44KHz.wav
3	97	3	3	2	I	1	0	733	0	Ⴐ	cut_w_stereo_44KHz.wav
3	98	2	1	0	C	1	1	615	1	Ⴏ	cut_l_stereo_44KHz.wav
3	99	4	3	2	I	1	0	747	0	Ⴌ	cut_w_stereo_44KHz.wav
3	100	1	2	0	C	2	0	886	0	Ⴕ	cut_g_stereo_44KHz.wav
3	101	4	4	2	I	1	0	639	0	Ⴌ	cut_h_stereo_44KHz.wav
3	102	2	2	1	C	2	1	995	1	Ⴏ	cut_g_stereo_44KHz.wav
3	103	3	4	2	I	1	0	675	1	Ⴐ	cut_h_stereo_44KHz.wav
3	104	1	1	1	C	2	1	810	1	Ⴕ	cut_l_stereo_44KHz.wav
3	105	2	2	1	C	2	1	770	1	Ⴏ	cut_g_stereo_44KHz.wav
3	106	3	3	2	I	1	0	876	0	Ⴐ	cut_w_stereo_44KHz.wav
3	107	4	4	2	I	1	0	799	1	Ⴌ	cut_h_stereo_44KHz.wav
3	108	1	1	1	C	2	1	811	1	Ⴕ	cut_l_stereo_44KHz.wav
3	109	3	4	2	I	1	0	692	1	Ⴐ	cut_h_stereo_44KHz.wav
3	110	4	3	2	I	1	0	736	1	Ⴌ	cut_w_stereo_44KHz.wav
3	111	1	2	0	C	1	1	791	1	Ⴕ	cut_g_stereo_44KHz.wav
3	112	2	1	0	C	1	1	1056	1	Ⴏ	cut_l_stereo_44KHz.wav
3	113	3	4	2	I	1	0	1070	0	Ⴐ	cut_h_stereo_44KHz.wav
3	114	2	1	0	C	1	1	775	1	Ⴏ	cut_l_stereo_44KHz.wav
3	115	1	2	0	C	1	1	1023	1	Ⴕ	cut_g_stereo_44KHz.wav
3	116	4	4	2	I	1	0	980	1	Ⴌ	cut_h_stereo_44KHz.wav
3	117	2	2	1	C	2	1	809	1	Ⴏ	cut_g_stereo_44KHz.wav
3	118	1	1	1	C	2	1	652	1	Ⴕ	cut_l_stereo_44KHz.wav
3	119	3	3	2	I	1	0	704	0	Ⴐ	cut_w_stereo_44KHz.wav
3	120	4	3	2	I	1	0	632	1	Ⴌ	cut_w_stereo_44KHz.wav
3	121	3	4	2	I	1	0	678	1	Ⴐ	cut_h_stereo_44KHz.wav
3	122	1	2	0	C	1	1	764	1	Ⴕ	cut_g_stereo_44KHz.wav
3	123	2	2	1	C	2	1	787	1	Ⴏ	cut_g_stereo_44KHz.wav
3	124	4	3	2	I	1	0	905	1	Ⴌ	cut_w_stereo_44KHz.wav
3	125	3	3	2	I	1	0	700	1	Ⴐ	cut_w_stereo_44KHz.wav
3	126	1	1	1	C	2	1	732	1	Ⴕ	cut_l_stereo_44KHz.wav
3	127	2	1	0	C	1	1	817	1	Ⴏ	cut_l_stereo_44KHz.wav
3	128	4	4	2	I	1	0	664	0	Ⴌ	cut_h_stereo_44KHz.wav
3	129	2	1	0	C	1	1	821	1	Ⴏ	cut_l_stereo_44KHz.wav
3	130	4	4	2	I	1	0	1391	1	Ⴌ	cut_h_stereo_44KHz.wav
3	131	3	4	2	I	1	0	588	0	Ⴐ	cut_h_stereo_44KHz.wav
3	132	1	2	0	C	1	1	741	1	Ⴕ	cut_g_stereo_44KHz.wav
3	133	3	3	2	I	1	0	690	0	Ⴐ	cut_w_stereo_44KHz.wav
3	134	2	2	1	C	1	0	816	0	Ⴏ	cut_g_stereo_44KHz.wav
3	135	1	1	1	C	2	1	644	1	Ⴕ	cut_l_stereo_44KHz.wav
3	136	4	3	2	I	1	0	798	0	Ⴌ	cut_w_stereo_44KHz.wav
3	137	1	1	1	C	2	1	1379	1	Ⴕ	cut_l_stereo_44KHz.wav
3	138	3	3	2	I	2	0	1033	1	Ⴐ	cut_w_stereo_44KHz.wav
3	139	2	2	1	C	2	1	1008	1	Ⴏ	cut_g_stereo_44KHz.wav
3	140	4	3	2	I	1	0	1468	0	Ⴌ	cut_w_stereo_44KHz.wav
3	141	2	1	0	C	1	1	812	1	Ⴏ	cut_l_stereo_44KHz.wav
3	142	3	4	2	I	1	0	1081	0	Ⴐ	cut_h_stereo_44KHz.wav
3	143	1	2	0	C	1	1	866	1	Ⴕ	cut_g_stereo_44KHz.wav
3	144	4	4	2	I	1	0	724	0	Ⴌ	cut_h_stereo_44KHz.wav
3	145	1	1	1	C	2	1	1149	1	Ⴕ	cut_l_stereo_44KHz.wav
3	146	4	3	2	I	1	0	734	0	Ⴌ	cut_w_stereo_44KHz.wav
3	147	2	1	0	C	1	1	803	1	Ⴏ	cut_l_stereo_44KHz.wav
3	148	3	3	2	I	1	0	723	0	Ⴐ	cut_w_stereo_44KHz.wav
3	149	4	4	2	I	1	0	745	1	Ⴌ	cut_h_stereo_44KHz.wav
3	150	1	2	0	C	1	1	1088	1	Ⴕ	cut_g_stereo_44KHz.wav
3	151	3	4	2	I	1	0	739	0	Ⴐ	cut_h_stereo_44KHz.wav
3	152	2	2	1	C	2	1	1148	1	Ⴏ	cut_g_stereo_44KHz.wav
3	153	1	1	1	C	2	1	663	1	Ⴕ	cut_l_stereo_44KHz.wav
3	154	4	4	2	I	1	0	685	1	Ⴌ	cut_h_stereo_44KHz.wav
3	155	3	4	2	I	1	0	951	0	Ⴐ	cut_h_stereo_44KHz.wav
3	156	2	1	0	C	1	1	746	1	Ⴏ	cut_l_stereo_44KHz.wav
3	157	1	2	0	C	1	1	823	1	Ⴕ	cut_g_stereo_44KHz.wav
3	158	4	3	2	I	2	0	1110	1	Ⴌ	cut_w_stereo_44KHz.wav
3	159	3	3	2	I	1	0	1312	0	Ⴐ	cut_w_stereo_44KHz.wav
3	160	2	2	1	C	2	1	740	1	Ⴏ	cut_g_stereo_44KHz.wav
3	161	1	1	1	C	2	1	1143	1	Ⴕ	cut_l_stereo_44KHz.wav
3	162	2	1	0	C	1	1	986	1	Ⴏ	cut_l_stereo_44KHz.wav
3	163	4	3	2	I	1	0	711	1	Ⴌ	cut_w_stereo_44KHz.wav
3	164	3	3	2	I	2	0	543	1	Ⴐ	cut_w_stereo_44KHz.wav
3	165	2	2	1	C	2	1	1139	1	Ⴏ	cut_g_stereo_44KHz.wav
3	166	4	4	2	I	1	0	1144	0	Ⴌ	cut_h_stereo_44KHz.wav
3	167	3	4	2	I	1	0	775	1	Ⴐ	cut_h_stereo_44KHz.wav
3	168	1	2	0	C	1	1	783	1	Ⴕ	cut_g_stereo_44KHz.wav
3	169	2	1	0	C	1	1	794	1	Ⴏ	cut_l_stereo_44KHz.wav
3	170	3	3	2	I	1	0	770	1	Ⴐ	cut_w_stereo_44KHz.wav
3	171	1	2	0	C	1	1	1621	1	Ⴕ	cut_g_stereo_44KHz.wav
3	172	4	4	2	I	1	0	753	0	Ⴌ	cut_h_stereo_44KHz.wav
3	173	1	1	1	C	2	1	791	1	Ⴕ	cut_l_stereo_44KHz.wav
3	174	4	3	2	I	1	0	670	1	Ⴌ	cut_w_stereo_44KHz.wav
3	175	3	4	2	I	1	0	1009	0	Ⴐ	cut_h_stereo_44KHz.wav
3	176	2	2	1	C	2	1	943	1	Ⴏ	cut_g_stereo_44KHz.wav
3	177	3	4	2	I	1	0	1000	1	Ⴐ	cut_h_stereo_44KHz.wav
3	178	1	1	1	C	2	1	859	1	Ⴕ	cut_l_stereo_44KHz.wav
3	179	2	1	0	C	1	1	1488	1	Ⴏ	cut_l_stereo_44KHz.wav
3	180	4	3	2	I	1	0	662	0	Ⴌ	cut_w_stereo_44KHz.wav
3	181	1	2	0	C	1	1	1606	1	Ⴕ	cut_g_stereo_44KHz.wav
3	182	4	4	2	I	1	0	592	0	Ⴌ	cut_h_stereo_44KHz.wav
3	183	3	3	2	I	1	0	667	1	Ⴐ	cut_w_stereo_44KHz.wav
3	184	2	2	1	C	2	1	925	1	Ⴏ	cut_g_stereo_44KHz.wav
3	185	1	2	0	C	1	1	701	1	Ⴕ	cut_g_stereo_44KHz.wav
3	186	4	4	2	I	1	0	611	1	Ⴌ	cut_h_stereo_44KHz.wav
3	187	3	4	2	I	1	0	519	0	Ⴐ	cut_h_stereo_44KHz.wav
3	188	2	2	1	C	2	1	947	1	Ⴏ	cut_g_stereo_44KHz.wav
3	189	3	3	2	I	1	0	577	0	Ⴐ	cut_w_stereo_44KHz.wav
3	190	2	1	0	C	1	1	822	1	Ⴏ	cut_l_stereo_44KHz.wav
3	191	4	3	2	I	1	0	728	1	Ⴌ	cut_w_stereo_44KHz.wav
3	192	1	1	1	C	2	1	800	1	Ⴕ	cut_l_stereo_44KHz.wav
3	193	4	4	2	I	1	0	623	1	Ⴌ	cut_h_stereo_44KHz.wav
3	194	1	2	0	C	1	1	807	1	Ⴕ	cut_g_stereo_44KHz.wav
3	195	2	1	0	C	1	1	1056	1	Ⴏ	cut_l_stereo_44KHz.wav
3	196	3	4	2	I	1	0	658	0	Ⴐ	cut_h_stereo_44KHz.wav
3	197	2	2	1	C	2	1	946	1	Ⴏ	cut_g_stereo_44KHz.wav
3	198	3	3	2	I	1	0	749	1	Ⴐ	cut_w_stereo_44KHz.wav
3	199	1	1	1	C	2	1	988	1	Ⴕ	cut_l_stereo_44KHz.wav
3	200	4	3	2	I	2	0	690	1	Ⴌ	cut_w_stereo_44KHz.wav
4	1	1	1	1	C	1	0	1089	0	Ⴂ	cut_s_stereo_44KHz.wav
4	2	2	1	0	C	1	1	761	1	Ⴟ	cut_s_stereo_44KHz.wav
4	3	3	3	2	I	2	0	1094	0	Ⴃ	cut_ei_stereo_44KHz.wav
4	4	4	4	2	I	1	0	841	1	Ⴜ	cut_oei_stereo_44KHz.wav
4	5	3	4	2	I	2	0	720	1	Ⴃ	cut_oei_stereo_44KHz.wav
4	6	1	2	0	C	1	1	1023	1	Ⴂ	cut_j_stereo_44KHz.wav
4	7	4	3	2	I	2	0	805	0	Ⴜ	cut_ei_stereo_44KHz.wav
4	8	2	2	1	C	2	1	858	1	Ⴟ	cut_j_stereo_44KHz.wav
4	9	3	3	2	I	1	0	558	1	Ⴃ	cut_ei_stereo_44KHz.wav
4	10	2	1	0	C	1	1	707	1	Ⴟ	cut_s_stereo_44KHz.wav
4	11	4	3	2	I	2	0	556	1	Ⴜ	cut_ei_stereo_44KHz.wav
4	12	1	2	0	C	1	1	745	1	Ⴂ	cut_j_stereo_44KHz.wav
4	13	4	4	2	I	1	0	655	0	Ⴜ	cut_oei_stereo_44KHz.wav
4	14	2	2	1	C	2	1	708	1	Ⴟ	cut_j_stereo_44KHz.wav
4	15	3	4	2	I	2	0	750	1	Ⴃ	cut_oei_stereo_44KHz.wav
4	16	1	1	1	C	2	1	896	1	Ⴂ	cut_s_stereo_44KHz.wav
4	17	3	3	2	I	1	0	593	0	Ⴃ	cut_ei_stereo_44KHz.wav
4	18	1	1	1	C	2	1	984	1	Ⴂ	cut_s_stereo_44KHz.wav
4	19	4	3	2	I	2	0	781	0	Ⴜ	cut_ei_stereo_44KHz.wav
4	20	2	1	0	C	1	1	645	1	Ⴟ	cut_s_stereo_44KHz.wav
4	21	3	4	2	I	1	0	606	1	Ⴃ	cut_oei_stereo_44KHz.wav
4	22	1	2	0	C	1	1	944	1	Ⴂ	cut_j_stereo_44KHz.wav
4	23	2	2	1	C	2	1	788	1	Ⴟ	cut_j_stereo_44KHz.wav
4	24	4	4	2	I	1	0	649	0	Ⴜ	cut_oei_stereo_44KHz.wav
4	25	2	2	1	C	2	1	894	1	Ⴟ	cut_j_stereo_44KHz.wav
4	26	4	4	2	I	1	0	877	0	Ⴜ	cut_oei_stereo_44KHz.wav
4	27	1	2	0	C	1	1	722	1	Ⴂ	cut_j_stereo_44KHz.wav
4	28	3	4	2	I	2	0	1225	0	Ⴃ	cut_oei_stereo_44KHz.wav
4	29	1	1	1	C	2	1	953	1	Ⴂ	cut_s_stereo_44KHz.wav
4	30	3	3	2	I	1	0	742	1	Ⴃ	cut_ei_stereo_44KHz.wav
4	31	4	3	2	I	1	0	789	1	Ⴜ	cut_ei_stereo_44KHz.wav
4	32	2	1	0	C	1	1	662	1	Ⴟ	cut_s_stereo_44KHz.wav
4	33	4	4	2	I	1	0	579	1	Ⴜ	cut_oei_stereo_44KHz.wav
4	34	2	2	1	C	2	1	734	1	Ⴟ	cut_j_stereo_44KHz.wav
4	35	1	2	0	C	1	1	721	1	Ⴂ	cut_j_stereo_44KHz.wav
4	36	3	3	2	I	2	0	671	0	Ⴃ	cut_ei_stereo_44KHz.wav
4	37	4	3	2	I	1	0	993	1	Ⴜ	cut_ei_stereo_44KHz.wav
4	38	1	1	1	C	2	1	1058	1	Ⴂ	cut_s_stereo_44KHz.wav
4	39	2	1	0	C	1	1	660	1	Ⴟ	cut_s_stereo_44KHz.wav
4	40	3	4	2	I	1	0	658	0	Ⴃ	cut_oei_stereo_44KHz.wav
4	41	4	3	2	I	2	0	935	0	Ⴜ	cut_ei_stereo_44KHz.wav
4	42	3	4	2	I	2	0	873	0	Ⴃ	cut_oei_stereo_44KHz.wav
4	43	2	2	1	C	2	1	841	1	Ⴟ	cut_j_stereo_44KHz.wav
4	44	1	1	1	C	2	1	894	1	Ⴂ	cut_s_stereo_44KHz.wav
4	45	3	3	2	I	1	0	632	1	Ⴃ	cut_ei_stereo_44KHz.wav
4	46	2	1	0	C	2	0	578	0	Ⴟ	cut_s_stereo_44KHz.wav
4	47	4	4	2	I	1	0	648	0	Ⴜ	cut_oei_stereo_44KHz.wav
4	48	1	2	0	C	1	1	774	1	Ⴂ	cut_j_stereo_44KHz.wav
4	49	4	4	2	I	1	0	632	1	Ⴜ	cut_oei_stereo_44KHz.wav
4	50	3	4	2	I	1	0	623	0	Ⴃ	cut_oei_stereo_44KHz.wav
4	51	1	2	0	C	1	1	792	1	Ⴂ	cut_j_stereo_44KHz.wav
4	52	2	1	0	C	1	1	720	1	Ⴟ	cut_s_stereo_44KHz.wav
4	53	3	3	2	I	1	0	761	1	Ⴃ	cut_ei_stereo_44KHz.wav
4	54	4	3	2	I	1	0	760	1	Ⴜ	cut_ei_stereo_44KHz.wav
4	55	1	1	1	C	1	0	832	0	Ⴂ	cut_s_stereo_44KHz.wav
4	56	2	2	1	C	2	1	736	1	Ⴟ	cut_j_stereo_44KHz.wav
4	57	3	3	2	I	1	0	685	1	Ⴃ	cut_ei_stereo_44KHz.wav
4	58	2	2	1	C	2	1	632	1	Ⴟ	cut_j_stereo_44KHz.wav
4	59	1	2	0	C	1	1	861	1	Ⴂ	cut_j_stereo_44KHz.wav
4	60	4	3	2	I	1	0	694	0	Ⴜ	cut_ei_stereo_44KHz.wav
4	61	2	1	0	C	1	1	658	1	Ⴟ	cut_s_stereo_44KHz.wav
4	62	3	4	2	I	1	0	665	0	Ⴃ	cut_oei_stereo_44KHz.wav
4	63	4	4	2	I	1	0	619	0	Ⴜ	cut_oei_stereo_44KHz.wav
4	64	1	1	1	C	2	1	826	1	Ⴂ	cut_s_stereo_44KHz.wav
4	65	3	4	2	I	1	0	567	0	Ⴃ	cut_oei_stereo_44KHz.wav
4	66	4	4	2	I	1	0	520	1	Ⴜ	cut_oei_stereo_44KHz.wav
4	67	1	2	0	C	1	1	728	1	Ⴂ	cut_j_stereo_44KHz.wav
4	68	2	2	1	C	2	1	706	1	Ⴟ	cut_j_stereo_44KHz.wav
4	69	3	3	2	I	1	0	646	0	Ⴃ	cut_ei_stereo_44KHz.wav
4	70	2	1	0	C	1	1	1105	1	Ⴟ	cut_s_stereo_44KHz.wav
4	71	4	3	2	I	1	0	611	1	Ⴜ	cut_ei_stereo_44KHz.wav
4	72	1	1	1	C	2	1	1087	1	Ⴂ	cut_s_stereo_44KHz.wav
4	73	3	3	2	I	1	0	579	0	Ⴃ	cut_ei_stereo_44KHz.wav
4	74	4	4	2	I	1	0	631	1	Ⴜ	cut_oei_stereo_44KHz.wav
4	75	1	2	0	C	1	1	944	1	Ⴂ	cut_j_stereo_44KHz.wav
4	76	2	2	1	C	2	1	921	1	Ⴟ	cut_j_stereo_44KHz.wav
4	77	3	4	2	I	1	0	577	1	Ⴃ	cut_oei_stereo_44KHz.wav
4	78	4	3	2	I	1	0	630	1	Ⴜ	cut_ei_stereo_44KHz.wav
4	79	1	1	1	C	2	1	726	1	Ⴂ	cut_s_stereo_44KHz.wav
4	80	2	1	0	C	1	1	647	1	Ⴟ	cut_s_stereo_44KHz.wav
4	81	4	4	2	I	1	0	665	0	Ⴜ	cut_oei_stereo_44KHz.wav
4	82	1	2	0	C	1	1	954	1	Ⴂ	cut_j_stereo_44KHz.wav
4	83	3	3	2	I	1	0	607	1	Ⴃ	cut_ei_stereo_44KHz.wav
4	84	2	2	1	C	2	1	694	1	Ⴟ	cut_j_stereo_44KHz.wav
4	85	1	1	1	C	2	1	734	1	Ⴂ	cut_s_stereo_44KHz.wav
4	86	2	1	0	C	1	1	827	1	Ⴟ	cut_s_stereo_44KHz.wav
4	87	4	3	2	I	1	0	666	0	Ⴜ	cut_ei_stereo_44KHz.wav
4	88	3	4	2	I	1	0	572	1	Ⴃ	cut_oei_stereo_44KHz.wav
4	89	2	1	0	C	1	1	759	1	Ⴟ	cut_s_stereo_44KHz.wav
4	90	4	3	2	I	1	0	609	1	Ⴜ	cut_ei_stereo_44KHz.wav
4	91	3	4	2	I	1	0	649	0	Ⴃ	cut_oei_stereo_44KHz.wav
4	92	1	1	1	C	2	1	736	1	Ⴂ	cut_s_stereo_44KHz.wav
4	93	4	4	2	I	1	0	672	0	Ⴜ	cut_oei_stereo_44KHz.wav
4	94	3	3	2	I	1	0	845	1	Ⴃ	cut_ei_stereo_44KHz.wav
4	95	1	2	0	C	1	1	695	1	Ⴂ	cut_j_stereo_44KHz.wav
4	96	2	2	1	C	2	1	806	1	Ⴟ	cut_j_stereo_44KHz.wav
4	97	3	4	2	I	1	0	632	0	Ⴃ	cut_oei_stereo_44KHz.wav
4	98	2	2	1	C	2	1	715	1	Ⴟ	cut_j_stereo_44KHz.wav
4	99	1	1	1	C	2	1	943	1	Ⴂ	cut_s_stereo_44KHz.wav
4	100	4	4	2	I	1	0	566	1	Ⴜ	cut_oei_stereo_44KHz.wav
4	101	1	2	0	C	1	1	918	1	Ⴂ	cut_j_stereo_44KHz.wav
4	102	3	3	2	I	1	0	624	1	Ⴃ	cut_ei_stereo_44KHz.wav
4	103	2	1	0	C	1	1	720	1	Ⴟ	cut_s_stereo_44KHz.wav
4	104	4	3	2	I	1	0	597	1	Ⴜ	cut_ei_stereo_44KHz.wav
4	105	1	1	1	C	2	1	752	1	Ⴂ	cut_s_stereo_44KHz.wav
4	106	3	4	2	I	1	0	555	0	Ⴃ	cut_oei_stereo_44KHz.wav
4	107	4	4	2	I	1	0	535	0	Ⴜ	cut_oei_stereo_44KHz.wav
4	108	2	1	0	C	1	1	724	1	Ⴟ	cut_s_stereo_44KHz.wav
4	109	3	3	2	I	1	0	691	1	Ⴃ	cut_ei_stereo_44KHz.wav
4	110	4	3	2	I	1	0	580	0	Ⴜ	cut_ei_stereo_44KHz.wav
4	111	2	2	1	C	2	1	818	1	Ⴟ	cut_j_stereo_44KHz.wav
4	112	1	2	0	C	1	1	710	1	Ⴂ	cut_j_stereo_44KHz.wav
4	113	4	4	2	I	1	0	651	1	Ⴜ	cut_oei_stereo_44KHz.wav
4	114	1	2	0	C	1	1	630	1	Ⴂ	cut_j_stereo_44KHz.wav
4	115	2	2	1	C	2	1	928	1	Ⴟ	cut_j_stereo_44KHz.wav
4	116	3	4	2	I	1	0	934	0	Ⴃ	cut_oei_stereo_44KHz.wav
4	117	1	1	1	C	2	1	1145	1	Ⴂ	cut_s_stereo_44KHz.wav
4	118	2	1	0	C	1	1	627	1	Ⴟ	cut_s_stereo_44KHz.wav
4	119	3	3	2	I	1	0	607	0	Ⴃ	cut_ei_stereo_44KHz.wav
4	120	4	3	2	I	1	0	565	1	Ⴜ	cut_ei_stereo_44KHz.wav
4	121	3	4	2	I	1	0	668	0	Ⴃ	cut_oei_stereo_44KHz.wav
4	122	2	1	0	C	1	1	840	1	Ⴟ	cut_s_stereo_44KHz.wav
4	123	1	1	1	C	2	1	850	1	Ⴂ	cut_s_stereo_44KHz.wav
4	124	4	4	2	I	1	0	580	0	Ⴜ	cut_oei_stereo_44KHz.wav
4	125	3	3	2	I	1	0	539	0	Ⴃ	cut_ei_stereo_44KHz.wav
4	126	1	2	0	C	1	1	995	1	Ⴂ	cut_j_stereo_44KHz.wav
4	127	4	3	2	I	1	0	781	0	Ⴜ	cut_ei_stereo_44KHz.wav
4	128	2	2	1	C	2	1	836	1	Ⴟ	cut_j_stereo_44KHz.wav
4	129	1	1	1	C	2	1	1168	1	Ⴂ	cut_s_stereo_44KHz.wav
4	130	2	2	1	C	2	1	690	1	Ⴟ	cut_j_stereo_44KHz.wav
4	131	3	3	2	I	1	0	693	0	Ⴃ	cut_ei_stereo_44KHz.wav
4	132	4	4	2	I	1	0	668	1	Ⴜ	cut_oei_stereo_44KHz.wav
4	133	3	4	2	I	1	0	742	1	Ⴃ	cut_oei_stereo_44KHz.wav
4	134	1	2	0	C	1	1	940	1	Ⴂ	cut_j_stereo_44KHz.wav
4	135	4	3	2	I	1	0	803	0	Ⴜ	cut_ei_stereo_44KHz.wav
4	136	2	1	0	C	1	1	713	1	Ⴟ	cut_s_stereo_44KHz.wav
4	137	1	2	0	C	1	1	732	1	Ⴂ	cut_j_stereo_44KHz.wav
4	138	3	3	2	I	1	0	666	1	Ⴃ	cut_ei_stereo_44KHz.wav
4	139	2	2	1	C	2	1	752	1	Ⴟ	cut_j_stereo_44KHz.wav
4	140	4	3	2	I	1	0	618	1	Ⴜ	cut_ei_stereo_44KHz.wav
4	141	2	1	0	C	1	1	688	1	Ⴟ	cut_s_stereo_44KHz.wav
4	142	3	4	2	I	1	0	580	1	Ⴃ	cut_oei_stereo_44KHz.wav
4	143	1	1	1	C	2	1	863	1	Ⴂ	cut_s_stereo_44KHz.wav
4	144	4	4	2	I	1	0	610	1	Ⴜ	cut_oei_stereo_44KHz.wav
4	145	3	3	2	I	1	0	576	0	Ⴃ	cut_ei_stereo_44KHz.wav
4	146	4	3	2	I	1	0	639	0	Ⴜ	cut_ei_stereo_44KHz.wav
4	147	1	1	1	C	2	1	1122	1	Ⴂ	cut_s_stereo_44KHz.wav
4	148	2	2	1	C	2	1	877	1	Ⴟ	cut_j_stereo_44KHz.wav
4	149	1	2	0	C	1	1	635	1	Ⴂ	cut_j_stereo_44KHz.wav
4	150	4	4	2	I	1	0	619	1	Ⴜ	cut_oei_stereo_44KHz.wav
4	151	2	1	0	C	1	1	765	1	Ⴟ	cut_s_stereo_44KHz.wav
4	152	3	4	2	I	2	0	821	1	Ⴃ	cut_oei_stereo_44KHz.wav
4	153	4	3	2	I	2	0	917	0	Ⴜ	cut_ei_stereo_44KHz.wav
4	154	2	2	1	C	2	1	768	1	Ⴟ	cut_j_stereo_44KHz.wav
4	155	3	4	2	I	2	0	707	1	Ⴃ	cut_oei_stereo_44KHz.wav
4	156	1	2	0	C	1	1	688	1	Ⴂ	cut_j_stereo_44KHz.wav
4	157	3	3	2	I	1	0	744	1	Ⴃ	cut_ei_stereo_44KHz.wav
4	158	4	4	2	I	1	0	859	0	Ⴜ	cut_oei_stereo_44KHz.wav
4	159	1	1	1	C	2	1	871	1	Ⴂ	cut_s_stereo_44KHz.wav
4	160	2	1	0	C	1	1	615	1	Ⴟ	cut_s_stereo_44KHz.wav
4	161	1	2	0	C	1	1	748	1	Ⴂ	cut_j_stereo_44KHz.wav
4	162	4	4	2	I	1	0	681	0	Ⴜ	cut_oei_stereo_44KHz.wav
4	163	3	4	2	I	1	0	580	0	Ⴃ	cut_oei_stereo_44KHz.wav
4	164	2	1	0	C	1	1	759	1	Ⴟ	cut_s_stereo_44KHz.wav
4	165	1	1	1	C	2	1	841	1	Ⴂ	cut_s_stereo_44KHz.wav
4	166	3	3	2	I	1	0	640	0	Ⴃ	cut_ei_stereo_44KHz.wav
4	167	4	3	2	I	1	0	854	1	Ⴜ	cut_ei_stereo_44KHz.wav
4	168	2	2	1	C	2	1	1071	1	Ⴟ	cut_j_stereo_44KHz.wav
4	169	1	1	1	C	2	1	787	1	Ⴂ	cut_s_stereo_44KHz.wav
4	170	4	4	2	I	1	0	1414	0	Ⴜ	cut_oei_stereo_44KHz.wav
4	171	2	2	1	C	2	1	1030	1	Ⴟ	cut_j_stereo_44KHz.wav
4	172	3	3	2	I	1	0	714	0	Ⴃ	cut_ei_stereo_44KHz.wav
4	173	2	1	0	C	1	1	1052	1	Ⴟ	cut_s_stereo_44KHz.wav
4	174	1	2	0	C	1	1	856	1	Ⴂ	cut_j_stereo_44KHz.wav
4	175	3	4	2	I	1	0	572	1	Ⴃ	cut_oei_stereo_44KHz.wav
4	176	4	3	2	I	1	0	709	0	Ⴜ	cut_ei_stereo_44KHz.wav
4	177	2	2	1	C	2	1	793	1	Ⴟ	cut_j_stereo_44KHz.wav
4	178	1	2	0	C	1	1	687	1	Ⴂ	cut_j_stereo_44KHz.wav
4	179	4	4	2	I	1	0	567	1	Ⴜ	cut_oei_stereo_44KHz.wav
4	180	3	4	2	I	1	0	509	1	Ⴃ	cut_oei_stereo_44KHz.wav
4	181	1	1	1	C	2	1	815	1	Ⴂ	cut_s_stereo_44KHz.wav
4	182	3	3	2	I	1	0	979	1	Ⴃ	cut_ei_stereo_44KHz.wav
4	183	4	3	2	I	1	0	674	0	Ⴜ	cut_ei_stereo_44KHz.wav
4	184	2	1	0	C	1	1	729	1	Ⴟ	cut_s_stereo_44KHz.wav
4	185	1	2	0	C	1	1	660	1	Ⴂ	cut_j_stereo_44KHz.wav
4	186	4	4	2	I	1	0	712	1	Ⴜ	cut_oei_stereo_44KHz.wav
4	187	3	4	2	I	1	0	600	1	Ⴃ	cut_oei_stereo_44KHz.wav
4	188	2	2	1	C	2	1	1050	1	Ⴟ	cut_j_stereo_44KHz.wav
4	189	4	3	2	I	1	0	657	0	Ⴜ	cut_ei_stereo_44KHz.wav
4	190	2	1	0	C	1	1	797	1	Ⴟ	cut_s_stereo_44KHz.wav
4	191	3	3	2	I	1	0	679	0	Ⴃ	cut_ei_stereo_44KHz.wav
4	192	1	1	1	C	2	1	791	1	Ⴂ	cut_s_stereo_44KHz.wav
4	193	3	4	2	I	1	0	630	1	Ⴃ	cut_oei_stereo_44KHz.wav
4	194	1	2	0	C	1	1	756	1	Ⴂ	cut_j_stereo_44KHz.wav
4	195	4	3	2	I	1	0	603	1	Ⴜ	cut_ei_stereo_44KHz.wav
4	196	2	2	1	C	2	1	817	1	Ⴟ	cut_j_stereo_44KHz.wav
4	197	4	4	2	I	1	0	660	1	Ⴜ	cut_oei_stereo_44KHz.wav
4	198	2	1	0	C	1	1	953	1	Ⴟ	cut_s_stereo_44KHz.wav
4	199	1	1	1	C	2	1	1000	1	Ⴂ	cut_s_stereo_44KHz.wav
4	200	3	3	2	I	1	0	662	0	Ⴃ	cut_ei_stereo_44KHz.wav
