block	trial	Vstim	Astim	match	C/I	resp	result	RT	fb	V-file	A-file
RL

0	1	1	2	0	C	2	1	1503	1	poli_8sides 24_whiteLine3.jpg	Practice3_b26_cut1_stereo_44KHz.wav
0	2	1	1	1	C	2	0	1630	0	poli_8sides 24_whiteLine3.jpg	Practice4_b26_stereo_44KHz.wav
0	3	2	4	0	C	1	0	971	0	poli_8sides 23_whiteLine3.jpg	Practice1_b27_cut1_stereo_44KHz.wav
0	4	2	3	1	C	2	0	1318	0	poli_8sides 23_whiteLine3.jpg	Practice2_b27_cut2_stereo_44KHz.wav
0	5	2	3	1	C	2	0	1056	0	poli_8sides 23_whiteLine3.jpg	Practice2_b27_cut2_stereo_44KHz.wav
0	6	2	4	0	C	1	0	739	0	poli_8sides 23_whiteLine3.jpg	Practice1_b27_cut1_stereo_44KHz.wav
0	7	1	2	0	C	2	1	705	1	poli_8sides 24_whiteLine3.jpg	Practice3_b26_cut1_stereo_44KHz.wav
0	8	1	1	1	C	2	0	573	0	poli_8sides 24_whiteLine3.jpg	Practice4_b26_stereo_44KHz.wav
0	9	1	1	1	C	2	0	998	0	poli_8sides 24_whiteLine3.jpg	Practice4_b26_stereo_44KHz.wav
0	10	2	3	1	C	1	1	351	1	poli_8sides 23_whiteLine3.jpg	Practice2_b27_cut2_stereo_44KHz.wav
0	11	1	2	0	C	2	1	454	1	poli_8sides 24_whiteLine3.jpg	Practice3_b26_cut1_stereo_44KHz.wav
0	12	2	4	0	C	1	0	322	0	poli_8sides 23_whiteLine3.jpg	Practice1_b27_cut1_stereo_44KHz.wav
0	13	2	3	1	C	1	1	292	1	poli_8sides 23_whiteLine3.jpg	Practice2_b27_cut2_stereo_44KHz.wav
0	14	1	2	0	C	1	0	386	0	poli_8sides 24_whiteLine3.jpg	Practice3_b26_cut1_stereo_44KHz.wav
0	15	2	4	0	C	1	0	329	0	poli_8sides 23_whiteLine3.jpg	Practice1_b27_cut1_stereo_44KHz.wav
0	16	1	1	1	C	2	0	542	0	poli_8sides 24_whiteLine3.jpg	Practice4_b26_stereo_44KHz.wav
0	17	2	4	0	C	2	1	612	1	poli_8sides 23_whiteLine3.jpg	Practice1_b27_cut1_stereo_44KHz.wav
0	18	2	3	1	C	2	0	463	0	poli_8sides 23_whiteLine3.jpg	Practice2_b27_cut2_stereo_44KHz.wav
0	19	1	2	0	C	2	1	392	1	poli_8sides 24_whiteLine3.jpg	Practice3_b26_cut1_stereo_44KHz.wav
0	20	1	1	1	C	2	0	493	0	poli_8sides 24_whiteLine3.jpg	Practice4_b26_stereo_44KHz.wav
0	21	1	1	1	C	2	0	465	0	poli_8sides 24_whiteLine3.jpg	Practice4_b26_stereo_44KHz.wav
0	22	2	4	0	C	2	1	695	1	poli_8sides 23_whiteLine3.jpg	Practice1_b27_cut1_stereo_44KHz.wav
0	23	2	3	1	C	1	1	848	1	poli_8sides 23_whiteLine3.jpg	Practice2_b27_cut2_stereo_44KHz.wav
0	24	1	2	0	C	2	1	528	1	poli_8sides 24_whiteLine3.jpg	Practice3_b26_cut1_stereo_44KHz.wav
0	25	1	2	0	C	2	1	637	1	poli_8sides 24_whiteLine3.jpg	Practice3_b26_cut1_stereo_44KHz.wav
0	26	2	4	0	C	1	0	433	0	poli_8sides 23_whiteLine3.jpg	Practice1_b27_cut1_stereo_44KHz.wav
0	27	1	1	1	C	2	0	525	0	poli_8sides 24_whiteLine3.jpg	Practice4_b26_stereo_44KHz.wav
0	28	2	3	1	C	1	1	692	1	poli_8sides 23_whiteLine3.jpg	Practice2_b27_cut2_stereo_44KHz.wav
0	29	1	1	1	C	2	0	460	0	poli_8sides 24_whiteLine3.jpg	Practice4_b26_stereo_44KHz.wav
0	30	2	4	0	C	2	1	735	1	poli_8sides 23_whiteLine3.jpg	Practice1_b27_cut1_stereo_44KHz.wav
avg_resp = 650
1	1	2	1	0	C	2	1	1471	1	poli_8sides 10_whiteLine3.jpg	MediumLong_e04_stereo_44KHz.wav
1	2	1	1	1	C	2	0	955	0	poli_8sides 5_whiteLine3.jpg	MediumLong_e04_stereo_44KHz.wav
1	3	4	3	2	I	1	0	1013	0	poli_8sides 3_whiteLine3.jpg	MediumLong_b10_cut2_L_stereo_44KHz.wav
1	4	3	4	2	I	2	0	873	0	poli_8sides 13_whiteLine3.jpg	Medium_e21_stereo_44KHz.wav
1	5	1	2	0	C	1	0	781	0	poli_8sides 5_whiteLine3.jpg	Medium_e01_cut1_stereo_44KHz.wav
1	6	4	4	2	I	2	0	833	0	poli_8sides 3_whiteLine3.jpg	Medium_e21_stereo_44KHz.wav
1	7	3	3	2	I	2	0	859	1	poli_8sides 13_whiteLine3.jpg	MediumLong_b10_cut2_L_stereo_44KHz.wav
1	8	2	2	1	C	1	1	655	1	poli_8sides 10_whiteLine3.jpg	Medium_e01_cut1_stereo_44KHz.wav
1	9	1	1	1	C	1	1	599	1	poli_8sides 5_whiteLine3.jpg	MediumLong_e04_stereo_44KHz.wav
1	10	4	4	2	I	2	0	864	0	poli_8sides 3_whiteLine3.jpg	Medium_e21_stereo_44KHz.wav
1	11	3	3	2	I	2	0	719	1	poli_8sides 13_whiteLine3.jpg	MediumLong_b10_cut2_L_stereo_44KHz.wav
1	12	2	1	0	C	1	0	511	0	poli_8sides 10_whiteLine3.jpg	MediumLong_e04_stereo_44KHz.wav
1	13	1	2	0	C	2	1	722	1	poli_8sides 5_whiteLine3.jpg	Medium_e01_cut1_stereo_44KHz.wav
1	14	2	2	1	C	2	0	512	0	poli_8sides 10_whiteLine3.jpg	Medium_e01_cut1_stereo_44KHz.wav
1	15	3	4	2	I	2	0	742	1	poli_8sides 13_whiteLine3.jpg	Medium_e21_stereo_44KHz.wav
1	16	4	3	2	I	1	0	629	0	poli_8sides 3_whiteLine3.jpg	MediumLong_b10_cut2_L_stereo_44KHz.wav
1	17	2	1	0	C	1	0	569	0	poli_8sides 10_whiteLine3.jpg	MediumLong_e04_stereo_44KHz.wav
1	18	4	3	2	I	2	0	690	1	poli_8sides 3_whiteLine3.jpg	MediumLong_b10_cut2_L_stereo_44KHz.wav
1	19	3	4	2	I	2	0	848	0	poli_8sides 13_whiteLine3.jpg	Medium_e21_stereo_44KHz.wav
1	20	1	2	0	C	1	0	647	0	poli_8sides 5_whiteLine3.jpg	Medium_e01_cut1_stereo_44KHz.wav
1	21	4	4	2	I	2	0	834	1	poli_8sides 3_whiteLine3.jpg	Medium_e21_stereo_44KHz.wav
1	22	2	2	1	C	2	0	681	0	poli_8sides 10_whiteLine3.jpg	Medium_e01_cut1_stereo_44KHz.wav
1	23	1	1	1	C	2	0	513	0	poli_8sides 5_whiteLine3.jpg	MediumLong_e04_stereo_44KHz.wav
1	24	3	3	2	I	2	0	1123	1	poli_8sides 13_whiteLine3.jpg	MediumLong_b10_cut2_L_stereo_44KHz.wav
1	25	4	3	2	I	2	0	643	0	poli_8sides 3_whiteLine3.jpg	MediumLong_b10_cut2_L_stereo_44KHz.wav
1	26	3	4	2	I	2	0	547	0	poli_8sides 13_whiteLine3.jpg	Medium_e21_stereo_44KHz.wav
1	27	1	2	0	C	2	1	929	1	poli_8sides 5_whiteLine3.jpg	Medium_e01_cut1_stereo_44KHz.wav
1	28	2	2	1	C	2	0	423	0	poli_8sides 10_whiteLine3.jpg	Medium_e01_cut1_stereo_44KHz.wav
1	29	4	4	2	I	2	0	638	1	poli_8sides 3_whiteLine3.jpg	Medium_e21_stereo_44KHz.wav
1	30	1	1	1	C	2	0	490	0	poli_8sides 5_whiteLine3.jpg	MediumLong_e04_stereo_44KHz.wav
1	31	3	3	2	I	1	0	658	0	poli_8sides 13_whiteLine3.jpg	MediumLong_b10_cut2_L_stereo_44KHz.wav
1	32	2	1	0	C	2	1	637	1	poli_8sides 10_whiteLine3.jpg	MediumLong_e04_stereo_44KHz.wav
1	33	3	3	2	I	1	0	567	0	poli_8sides 13_whiteLine3.jpg	MediumLong_b10_cut2_L_stereo_44KHz.wav
1	34	2	1	0	C	2	1	495	1	poli_8sides 10_whiteLine3.jpg	MediumLong_e04_stereo_44KHz.wav
1	35	1	1	1	C	2	0	451	0	poli_8sides 5_whiteLine3.jpg	MediumLong_e04_stereo_44KHz.wav
1	36	4	4	2	I	2	0	651	0	poli_8sides 3_whiteLine3.jpg	Medium_e21_stereo_44KHz.wav
1	37	1	2	0	C	2	1	459	1	poli_8sides 5_whiteLine3.jpg	Medium_e01_cut1_stereo_44KHz.wav
1	38	2	2	1	C	2	0	320	0	poli_8sides 10_whiteLine3.jpg	Medium_e01_cut1_stereo_44KHz.wav
1	39	3	4	2	I	2	0	657	1	poli_8sides 13_whiteLine3.jpg	Medium_e21_stereo_44KHz.wav
1	40	4	3	2	I	1	0	494	1	poli_8sides 3_whiteLine3.jpg	MediumLong_b10_cut2_L_stereo_44KHz.wav
1	41	3	4	2	I	1	0	619	1	poli_8sides 13_whiteLine3.jpg	Medium_e21_stereo_44KHz.wav
1	42	2	1	0	C	2	1	447	1	poli_8sides 10_whiteLine3.jpg	MediumLong_e04_stereo_44KHz.wav
1	43	4	3	2	I	2	0	453	1	poli_8sides 3_whiteLine3.jpg	MediumLong_b10_cut2_L_stereo_44KHz.wav
1	44	1	1	1	C	2	0	402	0	poli_8sides 5_whiteLine3.jpg	MediumLong_e04_stereo_44KHz.wav
1	45	3	3	2	I	2	0	605	1	poli_8sides 13_whiteLine3.jpg	MediumLong_b10_cut2_L_stereo_44KHz.wav
1	46	1	2	0	C	2	1	552	1	poli_8sides 5_whiteLine3.jpg	Medium_e01_cut1_stereo_44KHz.wav
1	47	2	2	1	C	2	0	502	0	poli_8sides 10_whiteLine3.jpg	Medium_e01_cut1_stereo_44KHz.wav
1	48	4	4	2	I	2	0	518	0	poli_8sides 3_whiteLine3.jpg	Medium_e21_stereo_44KHz.wav
1	49	2	1	0	C	2	1	517	1	poli_8sides 10_whiteLine3.jpg	MediumLong_e04_stereo_44KHz.wav
1	50	1	2	0	C	2	1	415	1	poli_8sides 5_whiteLine3.jpg	Medium_e01_cut1_stereo_44KHz.wav
1	51	3	4	2	I	2	0	612	0	poli_8sides 13_whiteLine3.jpg	Medium_e21_stereo_44KHz.wav
1	52	4	3	2	I	1	0	1044	0	poli_8sides 3_whiteLine3.jpg	MediumLong_b10_cut2_L_stereo_44KHz.wav
1	53	3	3	2	I	2	0	454	0	poli_8sides 13_whiteLine3.jpg	MediumLong_b10_cut2_L_stereo_44KHz.wav
1	54	2	2	1	C	2	0	510	0	poli_8sides 10_whiteLine3.jpg	Medium_e01_cut1_stereo_44KHz.wav
1	55	1	1	1	C	2	0	345	0	poli_8sides 5_whiteLine3.jpg	MediumLong_e04_stereo_44KHz.wav
1	56	4	4	2	I	2	0	512	0	poli_8sides 3_whiteLine3.jpg	Medium_e21_stereo_44KHz.wav
1	57	3	3	2	I	1	0	338	1	poli_8sides 13_whiteLine3.jpg	MediumLong_b10_cut2_L_stereo_44KHz.wav
1	58	4	4	2	I	1	0	399	1	poli_8sides 3_whiteLine3.jpg	Medium_e21_stereo_44KHz.wav
1	59	1	2	0	C	1	0	330	0	poli_8sides 5_whiteLine3.jpg	Medium_e01_cut1_stereo_44KHz.wav
1	60	2	2	1	C	2	0	666	0	poli_8sides 10_whiteLine3.jpg	Medium_e01_cut1_stereo_44KHz.wav
1	61	1	1	1	C	1	1	294	1	poli_8sides 5_whiteLine3.jpg	MediumLong_e04_stereo_44KHz.wav
1	62	3	4	2	I	1	0	260	1	poli_8sides 13_whiteLine3.jpg	Medium_e21_stereo_44KHz.wav
1	63	4	3	2	I	1	0	265	1	poli_8sides 3_whiteLine3.jpg	MediumLong_b10_cut2_L_stereo_44KHz.wav
1	64	2	1	0	C	1	0	277	0	poli_8sides 10_whiteLine3.jpg	MediumLong_e04_stereo_44KHz.wav
1	65	3	3	2	I	1	0	373	0	poli_8sides 13_whiteLine3.jpg	MediumLong_b10_cut2_L_stereo_44KHz.wav
1	66	4	4	2	I	2	0	305	0	poli_8sides 3_whiteLine3.jpg	Medium_e21_stereo_44KHz.wav
1	67	1	1	1	C	1	1	237	1	poli_8sides 5_whiteLine3.jpg	MediumLong_e04_stereo_44KHz.wav
1	68	2	1	0	C	1	0	301	0	poli_8sides 10_whiteLine3.jpg	MediumLong_e04_stereo_44KHz.wav
1	69	4	3	2	I	2	0	581	1	poli_8sides 3_whiteLine3.jpg	MediumLong_b10_cut2_L_stereo_44KHz.wav
1	70	1	2	0	C	2	1	450	1	poli_8sides 5_whiteLine3.jpg	Medium_e01_cut1_stereo_44KHz.wav
1	71	3	4	2	I	1	0	330	0	poli_8sides 13_whiteLine3.jpg	Medium_e21_stereo_44KHz.wav
1	72	2	2	1	C	2	0	334	0	poli_8sides 10_whiteLine3.jpg	Medium_e01_cut1_stereo_44KHz.wav
1	73	1	1	1	C	2	0	266	0	poli_8sides 5_whiteLine3.jpg	MediumLong_e04_stereo_44KHz.wav
1	74	2	2	1	C	1	1	407	1	poli_8sides 10_whiteLine3.jpg	Medium_e01_cut1_stereo_44KHz.wav
1	75	3	3	2	I	1	0	249	0	poli_8sides 13_whiteLine3.jpg	MediumLong_b10_cut2_L_stereo_44KHz.wav
1	76	4	4	2	I	1	0	247	1	poli_8sides 3_whiteLine3.jpg	Medium_e21_stereo_44KHz.wav
1	77	1	2	0	C	1	0	333	0	poli_8sides 5_whiteLine3.jpg	Medium_e01_cut1_stereo_44KHz.wav
1	78	3	4	2	I	1	0	234	0	poli_8sides 13_whiteLine3.jpg	Medium_e21_stereo_44KHz.wav
1	79	4	3	2	I	2	0	196	1	poli_8sides 3_whiteLine3.jpg	MediumLong_b10_cut2_L_stereo_44KHz.wav
1	80	2	1	0	C	2	1	268	1	poli_8sides 10_whiteLine3.jpg	MediumLong_e04_stereo_44KHz.wav
1	81	4	3	2	I	2	0	311	1	poli_8sides 3_whiteLine3.jpg	MediumLong_b10_cut2_L_stereo_44KHz.wav
1	82	3	4	2	I	2	0	374	0	poli_8sides 13_whiteLine3.jpg	Medium_e21_stereo_44KHz.wav
1	83	2	1	0	C	2	1	414	1	poli_8sides 10_whiteLine3.jpg	MediumLong_e04_stereo_44KHz.wav
1	84	1	2	0	C	2	1	360	1	poli_8sides 5_whiteLine3.jpg	Medium_e01_cut1_stereo_44KHz.wav
1	85	2	2	1	C	1	1	398	1	poli_8sides 10_whiteLine3.jpg	Medium_e01_cut1_stereo_44KHz.wav
1	86	3	3	2	I	2	0	256	0	poli_8sides 13_whiteLine3.jpg	MediumLong_b10_cut2_L_stereo_44KHz.wav
1	87	4	4	2	I	1	0	257	0	poli_8sides 3_whiteLine3.jpg	Medium_e21_stereo_44KHz.wav
1	88	1	1	1	C	2	0	427	0	poli_8sides 5_whiteLine3.jpg	MediumLong_e04_stereo_44KHz.wav
1	89	3	4	2	I	1	0	230	0	poli_8sides 13_whiteLine3.jpg	Medium_e21_stereo_44KHz.wav
1	90	1	1	1	C	2	0	482	0	poli_8sides 5_whiteLine3.jpg	MediumLong_e04_stereo_44KHz.wav
1	91	4	3	2	I	1	0	239	0	poli_8sides 3_whiteLine3.jpg	MediumLong_b10_cut2_L_stereo_44KHz.wav
1	92	2	2	1	C	2	0	303	0	poli_8sides 10_whiteLine3.jpg	Medium_e01_cut1_stereo_44KHz.wav
1	93	4	4	2	I	1	0	214	1	poli_8sides 3_whiteLine3.jpg	Medium_e21_stereo_44KHz.wav
1	94	3	3	2	I	1	0	362	1	poli_8sides 13_whiteLine3.jpg	MediumLong_b10_cut2_L_stereo_44KHz.wav
1	95	2	1	0	C	1	0	340	0	poli_8sides 10_whiteLine3.jpg	MediumLong_e04_stereo_44KHz.wav
1	96	1	2	0	C	2	1	262	1	poli_8sides 5_whiteLine3.jpg	Medium_e01_cut1_stereo_44KHz.wav
1	97	2	2	1	C	2	0	416	0	poli_8sides 10_whiteLine3.jpg	Medium_e01_cut1_stereo_44KHz.wav
1	98	1	2	0	C	1	0	239	0	poli_8sides 5_whiteLine3.jpg	Medium_e01_cut1_stereo_44KHz.wav
1	99	4	3	2	I	2	0	216	0	poli_8sides 3_whiteLine3.jpg	MediumLong_b10_cut2_L_stereo_44KHz.wav
1	100	3	4	2	I	2	0	278	1	poli_8sides 13_whiteLine3.jpg	Medium_e21_stereo_44KHz.wav
1	101	2	1	0	C	2	1	308	1	poli_8sides 10_whiteLine3.jpg	MediumLong_e04_stereo_44KHz.wav
1	102	3	3	2	I	2	0	210	1	poli_8sides 13_whiteLine3.jpg	MediumLong_b10_cut2_L_stereo_44KHz.wav
1	103	1	1	1	C	2	0	258	0	poli_8sides 5_whiteLine3.jpg	MediumLong_e04_stereo_44KHz.wav
1	104	4	4	2	I	1	0	270	0	poli_8sides 3_whiteLine3.jpg	Medium_e21_stereo_44KHz.wav
1	105	2	1	0	C	2	1	224	1	poli_8sides 10_whiteLine3.jpg	MediumLong_e04_stereo_44KHz.wav
1	106	4	4	2	I	2	0	168	0	poli_8sides 3_whiteLine3.jpg	Medium_e21_stereo_44KHz.wav
1	107	3	4	2	I	2	0	250	1	poli_8sides 13_whiteLine3.jpg	Medium_e21_stereo_44KHz.wav
1	108	1	1	1	C	2	0	398	0	poli_8sides 5_whiteLine3.jpg	MediumLong_e04_stereo_44KHz.wav
1	109	2	2	1	C	1	1	301	1	poli_8sides 10_whiteLine3.jpg	Medium_e01_cut1_stereo_44KHz.wav
1	110	4	3	2	I	2	0	363	1	poli_8sides 3_whiteLine3.jpg	MediumLong_b10_cut2_L_stereo_44KHz.wav
1	111	1	2	0	C	2	1	349	1	poli_8sides 5_whiteLine3.jpg	Medium_e01_cut1_stereo_44KHz.wav
1	112	3	3	2	I	2	0	243	1	poli_8sides 13_whiteLine3.jpg	MediumLong_b10_cut2_L_stereo_44KHz.wav
1	113	4	3	2	I	2	0	537	0	poli_8sides 3_whiteLine3.jpg	MediumLong_b10_cut2_L_stereo_44KHz.wav
1	114	3	3	2	I	1	0	203	1	poli_8sides 13_whiteLine3.jpg	MediumLong_b10_cut2_L_stereo_44KHz.wav
1	115	2	1	0	C	1	0	282	0	poli_8sides 10_whiteLine3.jpg	MediumLong_e04_stereo_44KHz.wav
1	116	1	2	0	C	2	1	281	1	poli_8sides 5_whiteLine3.jpg	Medium_e01_cut1_stereo_44KHz.wav
1	117	2	2	1	C	2	0	381	0	poli_8sides 10_whiteLine3.jpg	Medium_e01_cut1_stereo_44KHz.wav
1	118	4	4	2	I	1	0	245	1	poli_8sides 3_whiteLine3.jpg	Medium_e21_stereo_44KHz.wav
1	119	3	4	2	I	1	0	261	0	poli_8sides 13_whiteLine3.jpg	Medium_e21_stereo_44KHz.wav
1	120	1	1	1	C	2	0	205	0	poli_8sides 5_whiteLine3.jpg	MediumLong_e04_stereo_44KHz.wav
1	121	2	1	0	C	2	1	229	1	poli_8sides 10_whiteLine3.jpg	MediumLong_e04_stereo_44KHz.wav
1	122	1	2	0	C	2	1	299	1	poli_8sides 5_whiteLine3.jpg	Medium_e01_cut1_stereo_44KHz.wav
1	123	4	4	2	I	2	0	249	0	poli_8sides 3_whiteLine3.jpg	Medium_e21_stereo_44KHz.wav
1	124	3	4	2	I	1	0	271	1	poli_8sides 13_whiteLine3.jpg	Medium_e21_stereo_44KHz.wav
1	125	2	2	1	C	2	0	208	0	poli_8sides 10_whiteLine3.jpg	Medium_e01_cut1_stereo_44KHz.wav
1	126	4	3	2	I	1	0	209	1	poli_8sides 3_whiteLine3.jpg	MediumLong_b10_cut2_L_stereo_44KHz.wav
1	127	1	1	1	C	1	1	251	1	poli_8sides 5_whiteLine3.jpg	MediumLong_e04_stereo_44KHz.wav
1	128	3	3	2	I	1	0	241	0	poli_8sides 13_whiteLine3.jpg	MediumLong_b10_cut2_L_stereo_44KHz.wav
1	129	1	1	1	C	2	0	214	0	poli_8sides 5_whiteLine3.jpg	MediumLong_e04_stereo_44KHz.wav
1	130	3	4	2	I	1	0	302	0	poli_8sides 13_whiteLine3.jpg	Medium_e21_stereo_44KHz.wav
1	131	4	3	2	I	2	0	222	0	poli_8sides 3_whiteLine3.jpg	MediumLong_b10_cut2_L_stereo_44KHz.wav
1	132	2	2	1	C	1	1	268	1	poli_8sides 10_whiteLine3.jpg	Medium_e01_cut1_stereo_44KHz.wav
1	133	1	2	0	C	1	0	575	0	poli_8sides 5_whiteLine3.jpg	Medium_e01_cut1_stereo_44KHz.wav
1	134	2	1	0	C	2	1	631	1	poli_8sides 10_whiteLine3.jpg	MediumLong_e04_stereo_44KHz.wav
1	135	4	4	2	I	2	0	284	0	poli_8sides 3_whiteLine3.jpg	Medium_e21_stereo_44KHz.wav
1	136	3	3	2	I	1	0	265	0	poli_8sides 13_whiteLine3.jpg	MediumLong_b10_cut2_L_stereo_44KHz.wav
1	137	2	1	0	C	2	1	183	1	poli_8sides 10_whiteLine3.jpg	MediumLong_e04_stereo_44KHz.wav
1	138	3	3	2	I	2	0	257	1	poli_8sides 13_whiteLine3.jpg	MediumLong_b10_cut2_L_stereo_44KHz.wav
1	139	4	4	2	I	2	0	260	0	poli_8sides 3_whiteLine3.jpg	Medium_e21_stereo_44KHz.wav
1	140	1	2	0	C	2	1	565	1	poli_8sides 5_whiteLine3.jpg	Medium_e01_cut1_stereo_44KHz.wav
1	141	3	4	2	I	1	0	260	0	poli_8sides 13_whiteLine3.jpg	Medium_e21_stereo_44KHz.wav
1	142	1	1	1	C	2	0	196	0	poli_8sides 5_whiteLine3.jpg	MediumLong_e04_stereo_44KHz.wav
1	143	2	2	1	C	2	0	174	0	poli_8sides 10_whiteLine3.jpg	Medium_e01_cut1_stereo_44KHz.wav
1	144	4	3	2	I	1	0	239	0	poli_8sides 3_whiteLine3.jpg	MediumLong_b10_cut2_L_stereo_44KHz.wav
1	145	3	3	2	I	2	0	211	1	poli_8sides 13_whiteLine3.jpg	MediumLong_b10_cut2_L_stereo_44KHz.wav
1	146	2	2	1	C	2	0	178	0	poli_8sides 10_whiteLine3.jpg	Medium_e01_cut1_stereo_44KHz.wav
1	147	4	4	2	I	2	0	391	1	poli_8sides 3_whiteLine3.jpg	Medium_e21_stereo_44KHz.wav
1	148	1	1	1	C	1	1	574	1	poli_8sides 5_whiteLine3.jpg	MediumLong_e04_stereo_44KHz.wav
1	149	3	4	2	I	2	0	327	0	poli_8sides 13_whiteLine3.jpg	Medium_e21_stereo_44KHz.wav
1	150	4	3	2	I	1	0	361	1	poli_8sides 3_whiteLine3.jpg	MediumLong_b10_cut2_L_stereo_44KHz.wav
1	151	2	1	0	C	1	0	229	0	poli_8sides 10_whiteLine3.jpg	MediumLong_e04_stereo_44KHz.wav
1	152	1	2	0	C	2	1	172	1	poli_8sides 5_whiteLine3.jpg	Medium_e01_cut1_stereo_44KHz.wav
1	153	2	1	0	C	2	1	195	1	poli_8sides 10_whiteLine3.jpg	MediumLong_e04_stereo_44KHz.wav
1	154	4	4	2	I	2	0	251	0	poli_8sides 3_whiteLine3.jpg	Medium_e21_stereo_44KHz.wav
1	155	1	1	1	C	2	0	200	0	poli_8sides 5_whiteLine3.jpg	MediumLong_e04_stereo_44KHz.wav
1	156	3	3	2	I	1	0	505	0	poli_8sides 13_whiteLine3.jpg	MediumLong_b10_cut2_L_stereo_44KHz.wav
1	157	1	2	0	C	2	1	203	1	poli_8sides 5_whiteLine3.jpg	Medium_e01_cut1_stereo_44KHz.wav
1	158	3	4	2	I	2	0	494	0	poli_8sides 13_whiteLine3.jpg	Medium_e21_stereo_44KHz.wav
1	159	2	2	1	C	2	0	339	0	poli_8sides 10_whiteLine3.jpg	Medium_e01_cut1_stereo_44KHz.wav
1	160	4	3	2	I	1	0	290	1	poli_8sides 3_whiteLine3.jpg	MediumLong_b10_cut2_L_stereo_44KHz.wav
1	161	3	4	2	I	1	0	277	0	poli_8sides 13_whiteLine3.jpg	Medium_e21_stereo_44KHz.wav
1	162	2	2	1	C	1	1	310	1	poli_8sides 10_whiteLine3.jpg	Medium_e01_cut1_stereo_44KHz.wav
1	163	1	2	0	C	1	0	283	0	poli_8sides 5_whiteLine3.jpg	Medium_e01_cut1_stereo_44KHz.wav
1	164	4	4	2	I	2	0	172	1	poli_8sides 3_whiteLine3.jpg	Medium_e21_stereo_44KHz.wav
1	165	1	1	1	C	2	0	191	0	poli_8sides 5_whiteLine3.jpg	MediumLong_e04_stereo_44KHz.wav
1	166	4	3	2	I	2	0	155	1	poli_8sides 3_whiteLine3.jpg	MediumLong_b10_cut2_L_stereo_44KHz.wav
1	167	2	1	0	C	2	1	424	1	poli_8sides 10_whiteLine3.jpg	MediumLong_e04_stereo_44KHz.wav
1	168	3	3	2	I	2	0	315	1	poli_8sides 13_whiteLine3.jpg	MediumLong_b10_cut2_L_stereo_44KHz.wav
1	169	1	2	0	C	1	0	392	0	poli_8sides 5_whiteLine3.jpg	Medium_e01_cut1_stereo_44KHz.wav
1	170	4	3	2	I	2	0	222	1	poli_8sides 3_whiteLine3.jpg	MediumLong_b10_cut2_L_stereo_44KHz.wav
1	171	2	1	0	C	2	1	387	1	poli_8sides 10_whiteLine3.jpg	MediumLong_e04_stereo_44KHz.wav
1	172	3	3	2	I	2	0	255	0	poli_8sides 13_whiteLine3.jpg	MediumLong_b10_cut2_L_stereo_44KHz.wav
1	173	4	4	2	I	2	0	482	1	poli_8sides 3_whiteLine3.jpg	Medium_e21_stereo_44KHz.wav
1	174	1	1	1	C	2	0	393	0	poli_8sides 5_whiteLine3.jpg	MediumLong_e04_stereo_44KHz.wav
1	175	3	4	2	I	1	0	410	1	poli_8sides 13_whiteLine3.jpg	Medium_e21_stereo_44KHz.wav
1	176	2	2	1	C	2	0	576	0	poli_8sides 10_whiteLine3.jpg	Medium_e01_cut1_stereo_44KHz.wav
1	177	4	3	2	I	1	0	315	1	poli_8sides 3_whiteLine3.jpg	MediumLong_b10_cut2_L_stereo_44KHz.wav
1	178	2	1	0	C	1	0	376	0	poli_8sides 10_whiteLine3.jpg	MediumLong_e04_stereo_44KHz.wav
1	179	3	3	2	I	1	0	228	1	poli_8sides 13_whiteLine3.jpg	MediumLong_b10_cut2_L_stereo_44KHz.wav
1	180	1	1	1	C	2	0	242	0	poli_8sides 5_whiteLine3.jpg	MediumLong_e04_stereo_44KHz.wav
1	181	3	4	2	I	1	0	298	1	poli_8sides 13_whiteLine3.jpg	Medium_e21_stereo_44KHz.wav
1	182	1	2	0	C	1	0	263	0	poli_8sides 5_whiteLine3.jpg	Medium_e01_cut1_stereo_44KHz.wav
1	183	2	2	1	C	1	1	549	1	poli_8sides 10_whiteLine3.jpg	Medium_e01_cut1_stereo_44KHz.wav
1	184	4	4	2	I	2	0	217	0	poli_8sides 3_whiteLine3.jpg	Medium_e21_stereo_44KHz.wav
1	185	3	4	2	I	1	0	265	1	poli_8sides 13_whiteLine3.jpg	Medium_e21_stereo_44KHz.wav
1	186	4	3	2	I	1	0	250	1	poli_8sides 3_whiteLine3.jpg	MediumLong_b10_cut2_L_stereo_44KHz.wav
1	187	2	2	1	C	1	1	562	1	poli_8sides 10_whiteLine3.jpg	Medium_e01_cut1_stereo_44KHz.wav
1	188	1	1	1	C	1	1	340	1	poli_8sides 5_whiteLine3.jpg	MediumLong_e04_stereo_44KHz.wav
1	189	3	3	2	I	1	0	269	1	poli_8sides 13_whiteLine3.jpg	MediumLong_b10_cut2_L_stereo_44KHz.wav
1	190	2	1	0	C	1	0	231	0	poli_8sides 10_whiteLine3.jpg	MediumLong_e04_stereo_44KHz.wav
1	191	1	2	0	C	2	1	286	1	poli_8sides 5_whiteLine3.jpg	Medium_e01_cut1_stereo_44KHz.wav
1	192	4	4	2	I	2	0	163	0	poli_8sides 3_whiteLine3.jpg	Medium_e21_stereo_44KHz.wav
1	193	1	1	1	C	1	1	116	1	poli_8sides 5_whiteLine3.jpg	MediumLong_e04_stereo_44KHz.wav
1	194	2	1	0	C	1	0	196	0	poli_8sides 10_whiteLine3.jpg	MediumLong_e04_stereo_44KHz.wav
1	195	3	4	2	I	2	0	45	0	poli_8sides 13_whiteLine3.jpg	Medium_e21_stereo_44KHz.wav
1	196	4	4	2	I	1	0	208	1	poli_8sides 3_whiteLine3.jpg	Medium_e21_stereo_44KHz.wav
1	197	3	3	2	I	1	0	216	1	poli_8sides 13_whiteLine3.jpg	MediumLong_b10_cut2_L_stereo_44KHz.wav
1	198	2	2	1	C	1	1	231	1	poli_8sides 10_whiteLine3.jpg	Medium_e01_cut1_stereo_44KHz.wav
1	199	1	2	0	C	1	0	102	0	poli_8sides 5_whiteLine3.jpg	Medium_e01_cut1_stereo_44KHz.wav
1	200	4	3	2	I	2	0	413	0	poli_8sides 3_whiteLine3.jpg	MediumLong_b10_cut2_L_stereo_44KHz.wav
2	1	3	4	2	I	2	0	1178	0	poli_8sides 12_whiteLine3.jpg	MediumShort_b10_cut1_MS_stereo_44KHz.wav
2	2	4	3	2	I	2	0	530	1	poli_8sides 8_whiteLine3.jpg	MediumShort_b16_cut3_MS_stereo_44KHz.wav
2	3	2	2	1	C	1	1	400	1	poli_8sides 18_whiteLine3.jpg	MediumShort_e16_cut1_stereo_44KHz.wav
2	4	1	2	0	C	2	1	428	1	poli_8sides 2_whiteLine3.jpg	MediumShort_e16_cut1_stereo_44KHz.wav
2	5	2	1	0	C	2	1	227	1	poli_8sides 18_whiteLine3.jpg	MediumShort_e22_cut1_stereo_44KHz.wav
2	6	1	1	1	C	2	0	396	0	poli_8sides 2_whiteLine3.jpg	MediumShort_e22_cut1_stereo_44KHz.wav
2	7	3	3	2	I	1	0	326	1	poli_8sides 12_whiteLine3.jpg	MediumShort_b16_cut3_MS_stereo_44KHz.wav
2	8	4	4	2	I	1	0	332	0	poli_8sides 8_whiteLine3.jpg	MediumShort_b10_cut1_MS_stereo_44KHz.wav
2	9	2	1	0	C	2	1	403	1	poli_8sides 18_whiteLine3.jpg	MediumShort_e22_cut1_stereo_44KHz.wav
2	10	4	4	2	I	2	0	194	0	poli_8sides 8_whiteLine3.jpg	MediumShort_b10_cut1_MS_stereo_44KHz.wav
2	11	1	1	1	C	1	1	221	1	poli_8sides 2_whiteLine3.jpg	MediumShort_e22_cut1_stereo_44KHz.wav
2	12	3	4	2	I	2	0	493	0	poli_8sides 12_whiteLine3.jpg	MediumShort_b10_cut1_MS_stereo_44KHz.wav
2	13	2	2	1	C	1	1	221	1	poli_8sides 18_whiteLine3.jpg	MediumShort_e16_cut1_stereo_44KHz.wav
2	14	4	3	2	I	1	0	215	0	poli_8sides 8_whiteLine3.jpg	MediumShort_b16_cut3_MS_stereo_44KHz.wav
2	15	1	2	0	C	1	0	358	0	poli_8sides 2_whiteLine3.jpg	MediumShort_e16_cut1_stereo_44KHz.wav
2	16	3	3	2	I	2	0	445	0	poli_8sides 12_whiteLine3.jpg	MediumShort_b16_cut3_MS_stereo_44KHz.wav
2	17	4	4	2	I	1	0	191	0	poli_8sides 8_whiteLine3.jpg	MediumShort_b10_cut1_MS_stereo_44KHz.wav
2	18	1	2	0	C	1	0	170	0	poli_8sides 2_whiteLine3.jpg	MediumShort_e16_cut1_stereo_44KHz.wav
2	19	3	4	2	I	2	0	161	0	poli_8sides 12_whiteLine3.jpg	MediumShort_b10_cut1_MS_stereo_44KHz.wav
2	20	2	1	0	C	2	1	172	1	poli_8sides 18_whiteLine3.jpg	MediumShort_e22_cut1_stereo_44KHz.wav
2	21	3	3	2	I	2	0	340	1	poli_8sides 12_whiteLine3.jpg	MediumShort_b16_cut3_MS_stereo_44KHz.wav
2	22	2	2	1	C	2	0	154	0	poli_8sides 18_whiteLine3.jpg	MediumShort_e16_cut1_stereo_44KHz.wav
2	23	4	3	2	I	2	0	306	0	poli_8sides 8_whiteLine3.jpg	MediumShort_b16_cut3_MS_stereo_44KHz.wav
2	24	1	1	1	C	1	1	200	1	poli_8sides 2_whiteLine3.jpg	MediumShort_e22_cut1_stereo_44KHz.wav
2	25	3	4	2	I	1	0	117	1	poli_8sides 12_whiteLine3.jpg	MediumShort_b10_cut1_MS_stereo_44KHz.wav
2	26	4	3	2	I	1	0	216	0	poli_8sides 8_whiteLine3.jpg	MediumShort_b16_cut3_MS_stereo_44KHz.wav
2	27	2	2	1	C	1	1	218	1	poli_8sides 18_whiteLine3.jpg	MediumShort_e16_cut1_stereo_44KHz.wav
2	28	1	2	0	C	2	1	96	1	poli_8sides 2_whiteLine3.jpg	MediumShort_e16_cut1_stereo_44KHz.wav
2	29	2	1	0	C	1	0	93	0	poli_8sides 18_whiteLine3.jpg	MediumShort_e22_cut1_stereo_44KHz.wav
2	30	4	4	2	I	2	0	853	1	poli_8sides 8_whiteLine3.jpg	MediumShort_b10_cut1_MS_stereo_44KHz.wav
2	31	3	3	2	I	2	0	1834	1	poli_8sides 12_whiteLine3.jpg	MediumShort_b16_cut3_MS_stereo_44KHz.wav
2	32	1	1	1	C	2	0	653	0	poli_8sides 2_whiteLine3.jpg	MediumShort_e22_cut1_stereo_44KHz.wav
2	33	3	4	2	I	0	0	0	0	poli_8sides 12_whiteLine3.jpg	MediumShort_b10_cut1_MS_stereo_44KHz.wav
2	34	2	2	1	C	1	1	379	1	poli_8sides 18_whiteLine3.jpg	MediumShort_e16_cut1_stereo_44KHz.wav
2	35	1	1	1	C	1	1	203	1	poli_8sides 2_whiteLine3.jpg	MediumShort_e22_cut1_stereo_44KHz.wav
2	36	4	3	2	I	1	0	227	1	poli_8sides 8_whiteLine3.jpg	MediumShort_b16_cut3_MS_stereo_44KHz.wav
2	37	1	2	0	C	1	0	112	0	poli_8sides 2_whiteLine3.jpg	MediumShort_e16_cut1_stereo_44KHz.wav
2	38	4	4	2	I	2	0	141	1	poli_8sides 8_whiteLine3.jpg	MediumShort_b10_cut1_MS_stereo_44KHz.wav
2	39	3	3	2	I	2	0	199	0	poli_8sides 12_whiteLine3.jpg	MediumShort_b16_cut3_MS_stereo_44KHz.wav
2	40	2	1	0	C	1	0	182	0	poli_8sides 18_whiteLine3.jpg	MediumShort_e22_cut1_stereo_44KHz.wav
2	41	1	2	0	C	2	1	177	1	poli_8sides 2_whiteLine3.jpg	MediumShort_e16_cut1_stereo_44KHz.wav
2	42	4	3	2	I	2	0	190	0	poli_8sides 8_whiteLine3.jpg	MediumShort_b16_cut3_MS_stereo_44KHz.wav
2	43	2	1	0	C	2	1	244	1	poli_8sides 18_whiteLine3.jpg	MediumShort_e22_cut1_stereo_44KHz.wav
2	44	3	3	2	I	2	0	113	0	poli_8sides 12_whiteLine3.jpg	MediumShort_b16_cut3_MS_stereo_44KHz.wav
2	45	2	2	1	C	1	1	220	1	poli_8sides 18_whiteLine3.jpg	MediumShort_e16_cut1_stereo_44KHz.wav
2	46	3	4	2	I	2	0	368	1	poli_8sides 12_whiteLine3.jpg	MediumShort_b10_cut1_MS_stereo_44KHz.wav
2	47	1	1	1	C	2	0	305	0	poli_8sides 2_whiteLine3.jpg	MediumShort_e22_cut1_stereo_44KHz.wav
2	48	4	4	2	I	1	0	259	0	poli_8sides 8_whiteLine3.jpg	MediumShort_b10_cut1_MS_stereo_44KHz.wav
2	49	2	2	1	C	2	0	258	0	poli_8sides 18_whiteLine3.jpg	MediumShort_e16_cut1_stereo_44KHz.wav
2	50	4	4	2	I	1	0	654	0	poli_8sides 8_whiteLine3.jpg	MediumShort_b10_cut1_MS_stereo_44KHz.wav
2	51	1	1	1	C	1	1	921	1	poli_8sides 2_whiteLine3.jpg	MediumShort_e22_cut1_stereo_44KHz.wav
2	52	3	4	2	I	2	0	626	0	poli_8sides 12_whiteLine3.jpg	MediumShort_b10_cut1_MS_stereo_44KHz.wav
2	53	1	2	0	C	2	1	404	1	poli_8sides 2_whiteLine3.jpg	MediumShort_e16_cut1_stereo_44KHz.wav
2	54	4	3	2	I	2	0	272	0	poli_8sides 8_whiteLine3.jpg	MediumShort_b16_cut3_MS_stereo_44KHz.wav
2	55	3	3	2	I	1	0	106	1	poli_8sides 12_whiteLine3.jpg	MediumShort_b16_cut3_MS_stereo_44KHz.wav
2	56	2	1	0	C	1	0	409	0	poli_8sides 18_whiteLine3.jpg	MediumShort_e22_cut1_stereo_44KHz.wav
2	57	4	4	2	I	2	0	87	1	poli_8sides 8_whiteLine3.jpg	MediumShort_b10_cut1_MS_stereo_44KHz.wav
2	58	3	3	2	I	2	0	120	0	poli_8sides 12_whiteLine3.jpg	MediumShort_b16_cut3_MS_stereo_44KHz.wav
2	59	2	1	0	C	1	0	181	0	poli_8sides 18_whiteLine3.jpg	MediumShort_e22_cut1_stereo_44KHz.wav
2	60	1	1	1	C	1	1	104	1	poli_8sides 2_whiteLine3.jpg	MediumShort_e22_cut1_stereo_44KHz.wav
2	61	4	3	2	I	1	0	94	1	poli_8sides 8_whiteLine3.jpg	MediumShort_b16_cut3_MS_stereo_44KHz.wav
2	62	1	2	0	C	1	0	87	0	poli_8sides 2_whiteLine3.jpg	MediumShort_e16_cut1_stereo_44KHz.wav
2	63	3	4	2	I	2	0	84	0	poli_8sides 12_whiteLine3.jpg	MediumShort_b10_cut1_MS_stereo_44KHz.wav
2	64	2	2	1	C	1	1	176	1	poli_8sides 18_whiteLine3.jpg	MediumShort_e16_cut1_stereo_44KHz.wav
2	65	4	3	2	I	1	0	242	1	poli_8sides 8_whiteLine3.jpg	MediumShort_b16_cut3_MS_stereo_44KHz.wav
2	66	3	3	2	I	1	0	376	1	poli_8sides 12_whiteLine3.jpg	MediumShort_b16_cut3_MS_stereo_44KHz.wav
2	67	2	2	1	C	1	1	85	1	poli_8sides 18_whiteLine3.jpg	MediumShort_e16_cut1_stereo_44KHz.wav
2	68	1	2	0	C	1	0	272	0	poli_8sides 2_whiteLine3.jpg	MediumShort_e16_cut1_stereo_44KHz.wav
2	69	4	4	2	I	2	0	53	0	poli_8sides 8_whiteLine3.jpg	MediumShort_b10_cut1_MS_stereo_44KHz.wav
2	70	3	4	2	I	1	0	75	1	poli_8sides 12_whiteLine3.jpg	MediumShort_b10_cut1_MS_stereo_44KHz.wav
2	71	1	1	1	C	1	1	183	1	poli_8sides 2_whiteLine3.jpg	MediumShort_e22_cut1_stereo_44KHz.wav
2	72	2	1	0	C	1	0	183	0	poli_8sides 18_whiteLine3.jpg	MediumShort_e22_cut1_stereo_44KHz.wav
2	73	1	2	0	C	1	0	500	0	poli_8sides 2_whiteLine3.jpg	MediumShort_e16_cut1_stereo_44KHz.wav
2	74	2	2	1	C	1	1	537	1	poli_8sides 18_whiteLine3.jpg	MediumShort_e16_cut1_stereo_44KHz.wav
2	75	3	3	2	I	2	0	410	1	poli_8sides 12_whiteLine3.jpg	MediumShort_b16_cut3_MS_stereo_44KHz.wav
2	76	4	4	2	I	1	0	596	1	poli_8sides 8_whiteLine3.jpg	MediumShort_b10_cut1_MS_stereo_44KHz.wav
2	77	3	4	2	I	2	0	435	1	poli_8sides 12_whiteLine3.jpg	MediumShort_b10_cut1_MS_stereo_44KHz.wav
2	78	1	1	1	C	2	0	358	0	poli_8sides 2_whiteLine3.jpg	MediumShort_e22_cut1_stereo_44KHz.wav
2	79	4	3	2	I	1	0	372	1	poli_8sides 8_whiteLine3.jpg	MediumShort_b16_cut3_MS_stereo_44KHz.wav
2	80	2	1	0	C	1	0	228	0	poli_8sides 18_whiteLine3.jpg	MediumShort_e22_cut1_stereo_44KHz.wav
2	81	3	4	2	I	2	0	269	1	poli_8sides 12_whiteLine3.jpg	MediumShort_b10_cut1_MS_stereo_44KHz.wav
2	82	1	1	1	C	2	0	851	0	poli_8sides 2_whiteLine3.jpg	MediumShort_e22_cut1_stereo_44KHz.wav
2	83	4	4	2	I	1	0	656	0	poli_8sides 8_whiteLine3.jpg	MediumShort_b10_cut1_MS_stereo_44KHz.wav
2	84	2	2	1	C	2	0	319	0	poli_8sides 18_whiteLine3.jpg	MediumShort_e16_cut1_stereo_44KHz.wav
2	85	1	2	0	C	2	1	976	1	poli_8sides 2_whiteLine3.jpg	MediumShort_e16_cut1_stereo_44KHz.wav
2	86	3	3	2	I	1	0	849	1	poli_8sides 12_whiteLine3.jpg	MediumShort_b16_cut3_MS_stereo_44KHz.wav
2	87	4	3	2	I	2	0	841	0	poli_8sides 8_whiteLine3.jpg	MediumShort_b16_cut3_MS_stereo_44KHz.wav
2	88	2	1	0	C	1	0	867	0	poli_8sides 18_whiteLine3.jpg	MediumShort_e22_cut1_stereo_44KHz.wav
2	89	1	2	0	C	2	1	811	1	poli_8sides 2_whiteLine3.jpg	MediumShort_e16_cut1_stereo_44KHz.wav
2	90	3	3	2	I	2	0	383	0	poli_8sides 12_whiteLine3.jpg	MediumShort_b16_cut3_MS_stereo_44KHz.wav
2	91	2	2	1	C	1	1	315	1	poli_8sides 18_whiteLine3.jpg	MediumShort_e16_cut1_stereo_44KHz.wav
2	92	4	4	2	I	1	0	237	0	poli_8sides 8_whiteLine3.jpg	MediumShort_b10_cut1_MS_stereo_44KHz.wav
2	93	3	4	2	I	2	0	228	0	poli_8sides 12_whiteLine3.jpg	MediumShort_b10_cut1_MS_stereo_44KHz.wav
2	94	2	1	0	C	2	1	211	1	poli_8sides 18_whiteLine3.jpg	MediumShort_e22_cut1_stereo_44KHz.wav
2	95	1	1	1	C	2	0	213	0	poli_8sides 2_whiteLine3.jpg	MediumShort_e22_cut1_stereo_44KHz.wav
2	96	4	3	2	I	2	0	223	0	poli_8sides 8_whiteLine3.jpg	MediumShort_b16_cut3_MS_stereo_44KHz.wav
2	97	1	2	0	C	1	0	191	0	poli_8sides 2_whiteLine3.jpg	MediumShort_e16_cut1_stereo_44KHz.wav
2	98	2	2	1	C	2	0	210	0	poli_8sides 18_whiteLine3.jpg	MediumShort_e16_cut1_stereo_44KHz.wav
2	99	3	3	2	I	1	0	180	1	poli_8sides 12_whiteLine3.jpg	MediumShort_b16_cut3_MS_stereo_44KHz.wav
2	100	4	3	2	I	1	0	246	1	poli_8sides 8_whiteLine3.jpg	MediumShort_b16_cut3_MS_stereo_44KHz.wav
2	101	2	1	0	C	1	0	153	0	poli_8sides 18_whiteLine3.jpg	MediumShort_e22_cut1_stereo_44KHz.wav
2	102	3	4	2	I	2	0	137	0	poli_8sides 12_whiteLine3.jpg	MediumShort_b10_cut1_MS_stereo_44KHz.wav
2	103	4	4	2	I	1	0	195	1	poli_8sides 8_whiteLine3.jpg	MediumShort_b10_cut1_MS_stereo_44KHz.wav
2	104	1	1	1	C	1	1	630	1	poli_8sides 2_whiteLine3.jpg	MediumShort_e22_cut1_stereo_44KHz.wav
2	105	2	2	1	C	1	1	169	1	poli_8sides 18_whiteLine3.jpg	MediumShort_e16_cut1_stereo_44KHz.wav
2	106	3	3	2	I	1	0	188	0	poli_8sides 12_whiteLine3.jpg	MediumShort_b16_cut3_MS_stereo_44KHz.wav
2	107	4	3	2	I	2	0	178	1	poli_8sides 8_whiteLine3.jpg	MediumShort_b16_cut3_MS_stereo_44KHz.wav
2	108	1	1	1	C	2	0	155	0	poli_8sides 2_whiteLine3.jpg	MediumShort_e22_cut1_stereo_44KHz.wav
2	109	3	4	2	I	1	0	176	1	poli_8sides 12_whiteLine3.jpg	MediumShort_b10_cut1_MS_stereo_44KHz.wav
2	110	4	4	2	I	1	0	416	1	poli_8sides 8_whiteLine3.jpg	MediumShort_b10_cut1_MS_stereo_44KHz.wav
2	111	2	1	0	C	1	0	257	0	poli_8sides 18_whiteLine3.jpg	MediumShort_e22_cut1_stereo_44KHz.wav
2	112	1	2	0	C	2	1	338	1	poli_8sides 2_whiteLine3.jpg	MediumShort_e16_cut1_stereo_44KHz.wav
2	113	3	3	2	I	2	0	239	1	poli_8sides 12_whiteLine3.jpg	MediumShort_b16_cut3_MS_stereo_44KHz.wav
2	114	1	1	1	C	2	0	195	0	poli_8sides 2_whiteLine3.jpg	MediumShort_e22_cut1_stereo_44KHz.wav
2	115	2	1	0	C	1	0	151	0	poli_8sides 18_whiteLine3.jpg	MediumShort_e22_cut1_stereo_44KHz.wav
2	116	4	4	2	I	2	0	68	0	poli_8sides 8_whiteLine3.jpg	MediumShort_b10_cut1_MS_stereo_44KHz.wav
2	117	2	2	1	C	1	1	558	1	poli_8sides 18_whiteLine3.jpg	MediumShort_e16_cut1_stereo_44KHz.wav
2	118	4	3	2	I	2	0	136	0	poli_8sides 8_whiteLine3.jpg	MediumShort_b16_cut3_MS_stereo_44KHz.wav
2	119	3	4	2	I	1	0	265	0	poli_8sides 12_whiteLine3.jpg	MediumShort_b10_cut1_MS_stereo_44KHz.wav
2	120	1	2	0	C	2	1	202	1	poli_8sides 2_whiteLine3.jpg	MediumShort_e16_cut1_stereo_44KHz.wav
2	121	3	4	2	I	2	0	240	0	poli_8sides 12_whiteLine3.jpg	MediumShort_b10_cut1_MS_stereo_44KHz.wav
2	122	2	1	0	C	2	1	113	1	poli_8sides 18_whiteLine3.jpg	MediumShort_e22_cut1_stereo_44KHz.wav
2	123	1	1	1	C	2	0	58	0	poli_8sides 2_whiteLine3.jpg	MediumShort_e22_cut1_stereo_44KHz.wav
2	124	4	3	2	I	1	0	103	1	poli_8sides 8_whiteLine3.jpg	MediumShort_b16_cut3_MS_stereo_44KHz.wav
2	125	2	2	1	C	1	1	183	1	poli_8sides 18_whiteLine3.jpg	MediumShort_e16_cut1_stereo_44KHz.wav
2	126	4	4	2	I	1	0	188	1	poli_8sides 8_whiteLine3.jpg	MediumShort_b10_cut1_MS_stereo_44KHz.wav
2	127	1	2	0	C	2	1	224	1	poli_8sides 2_whiteLine3.jpg	MediumShort_e16_cut1_stereo_44KHz.wav
2	128	3	3	2	I	1	0	214	0	poli_8sides 12_whiteLine3.jpg	MediumShort_b16_cut3_MS_stereo_44KHz.wav
2	129	2	1	0	C	2	1	231	1	poli_8sides 18_whiteLine3.jpg	MediumShort_e22_cut1_stereo_44KHz.wav
2	130	4	3	2	I	2	0	144	0	poli_8sides 8_whiteLine3.jpg	MediumShort_b16_cut3_MS_stereo_44KHz.wav
2	131	1	2	0	C	1	0	33	0	poli_8sides 2_whiteLine3.jpg	MediumShort_e16_cut1_stereo_44KHz.wav
2	132	3	4	2	I	2	0	94	0	poli_8sides 12_whiteLine3.jpg	MediumShort_b10_cut1_MS_stereo_44KHz.wav
2	133	2	2	1	C	1	1	508	1	poli_8sides 18_whiteLine3.jpg	MediumShort_e16_cut1_stereo_44KHz.wav
2	134	3	3	2	I	2	0	344	1	poli_8sides 12_whiteLine3.jpg	MediumShort_b16_cut3_MS_stereo_44KHz.wav
2	135	4	4	2	I	1	0	158	1	poli_8sides 8_whiteLine3.jpg	MediumShort_b10_cut1_MS_stereo_44KHz.wav
2	136	1	1	1	C	2	0	225	0	poli_8sides 2_whiteLine3.jpg	MediumShort_e22_cut1_stereo_44KHz.wav
2	137	4	4	2	I	1	0	465	0	poli_8sides 8_whiteLine3.jpg	MediumShort_b10_cut1_MS_stereo_44KHz.wav
2	138	3	4	2	I	2	0	78	1	poli_8sides 12_whiteLine3.jpg	MediumShort_b10_cut1_MS_stereo_44KHz.wav
2	139	1	1	1	C	2	0	239	0	poli_8sides 2_whiteLine3.jpg	MediumShort_e22_cut1_stereo_44KHz.wav
2	140	2	2	1	C	1	1	278	1	poli_8sides 18_whiteLine3.jpg	MediumShort_e16_cut1_stereo_44KHz.wav
2	141	4	3	2	I	2	0	215	1	poli_8sides 8_whiteLine3.jpg	MediumShort_b16_cut3_MS_stereo_44KHz.wav
2	142	1	2	0	C	1	0	263	0	poli_8sides 2_whiteLine3.jpg	MediumShort_e16_cut1_stereo_44KHz.wav
2	143	3	3	2	I	2	0	130	1	poli_8sides 12_whiteLine3.jpg	MediumShort_b16_cut3_MS_stereo_44KHz.wav
2	144	2	1	0	C	2	1	310	1	poli_8sides 18_whiteLine3.jpg	MediumShort_e22_cut1_stereo_44KHz.wav
2	145	3	3	2	I	1	0	636	0	poli_8sides 12_whiteLine3.jpg	MediumShort_b16_cut3_MS_stereo_44KHz.wav
2	146	4	4	2	I	2	0	144	0	poli_8sides 8_whiteLine3.jpg	MediumShort_b10_cut1_MS_stereo_44KHz.wav
2	147	2	1	0	C	1	0	173	0	poli_8sides 18_whiteLine3.jpg	MediumShort_e22_cut1_stereo_44KHz.wav
2	148	1	1	1	C	2	0	207	0	poli_8sides 2_whiteLine3.jpg	MediumShort_e22_cut1_stereo_44KHz.wav
2	149	4	3	2	I	1	0	55	1	poli_8sides 8_whiteLine3.jpg	MediumShort_b16_cut3_MS_stereo_44KHz.wav
2	150	1	2	0	C	1	0	137	0	poli_8sides 2_whiteLine3.jpg	MediumShort_e16_cut1_stereo_44KHz.wav
2	151	3	4	2	I	2	0	67	0	poli_8sides 12_whiteLine3.jpg	MediumShort_b10_cut1_MS_stereo_44KHz.wav
2	152	2	2	1	C	1	1	183	1	poli_8sides 18_whiteLine3.jpg	MediumShort_e16_cut1_stereo_44KHz.wav
2	153	4	3	2	I	1	0	61	1	poli_8sides 8_whiteLine3.jpg	MediumShort_b16_cut3_MS_stereo_44KHz.wav
2	154	2	2	1	C	1	1	217	1	poli_8sides 18_whiteLine3.jpg	MediumShort_e16_cut1_stereo_44KHz.wav
2	155	1	1	1	C	2	0	231	0	poli_8sides 2_whiteLine3.jpg	MediumShort_e22_cut1_stereo_44KHz.wav
2	156	3	4	2	I	1	0	176	0	poli_8sides 12_whiteLine3.jpg	MediumShort_b10_cut1_MS_stereo_44KHz.wav
2	157	4	4	2	I	2	0	172	1	poli_8sides 8_whiteLine3.jpg	MediumShort_b10_cut1_MS_stereo_44KHz.wav
2	158	2	1	0	C	2	1	246	1	poli_8sides 18_whiteLine3.jpg	MediumShort_e22_cut1_stereo_44KHz.wav
2	159	1	2	0	C	2	1	270	1	poli_8sides 2_whiteLine3.jpg	MediumShort_e16_cut1_stereo_44KHz.wav
2	160	3	3	2	I	2	0	271	0	poli_8sides 12_whiteLine3.jpg	MediumShort_b16_cut3_MS_stereo_44KHz.wav
2	161	4	3	2	I	1	0	458	1	poli_8sides 8_whiteLine3.jpg	MediumShort_b16_cut3_MS_stereo_44KHz.wav
2	162	3	3	2	I	1	0	222	1	poli_8sides 12_whiteLine3.jpg	MediumShort_b16_cut3_MS_stereo_44KHz.wav
2	163	2	1	0	C	1	0	422	0	poli_8sides 18_whiteLine3.jpg	MediumShort_e22_cut1_stereo_44KHz.wav
2	164	1	1	1	C	2	0	135	0	poli_8sides 2_whiteLine3.jpg	MediumShort_e22_cut1_stereo_44KHz.wav
2	165	4	4	2	I	1	0	111	1	poli_8sides 8_whiteLine3.jpg	MediumShort_b10_cut1_MS_stereo_44KHz.wav
2	166	2	2	1	C	1	1	185	1	poli_8sides 18_whiteLine3.jpg	MediumShort_e16_cut1_stereo_44KHz.wav
2	167	3	4	2	I	2	0	273	0	poli_8sides 12_whiteLine3.jpg	MediumShort_b10_cut1_MS_stereo_44KHz.wav
2	168	1	2	0	C	1	0	153	0	poli_8sides 2_whiteLine3.jpg	MediumShort_e16_cut1_stereo_44KHz.wav
2	169	3	3	2	I	2	0	461	0	poli_8sides 12_whiteLine3.jpg	MediumShort_b16_cut3_MS_stereo_44KHz.wav
2	170	2	2	1	C	1	1	35	1	poli_8sides 18_whiteLine3.jpg	MediumShort_e16_cut1_stereo_44KHz.wav
2	171	1	1	1	C	1	1	154	1	poli_8sides 2_whiteLine3.jpg	MediumShort_e22_cut1_stereo_44KHz.wav
2	172	4	3	2	I	1	0	376	0	poli_8sides 8_whiteLine3.jpg	MediumShort_b16_cut3_MS_stereo_44KHz.wav
2	173	3	4	2	I	2	0	84	1	poli_8sides 12_whiteLine3.jpg	MediumShort_b10_cut1_MS_stereo_44KHz.wav
2	174	4	4	2	I	2	0	99	1	poli_8sides 8_whiteLine3.jpg	MediumShort_b10_cut1_MS_stereo_44KHz.wav
2	175	2	1	0	C	2	1	714	1	poli_8sides 18_whiteLine3.jpg	MediumShort_e22_cut1_stereo_44KHz.wav
2	176	1	2	0	C	2	1	93	1	poli_8sides 2_whiteLine3.jpg	MediumShort_e16_cut1_stereo_44KHz.wav
2	177	2	2	1	C	1	1	140	1	poli_8sides 18_whiteLine3.jpg	MediumShort_e16_cut1_stereo_44KHz.wav
2	178	3	4	2	I	2	0	344	1	poli_8sides 12_whiteLine3.jpg	MediumShort_b10_cut1_MS_stereo_44KHz.wav
2	179	4	4	2	I	2	0	257	0	poli_8sides 8_whiteLine3.jpg	MediumShort_b10_cut1_MS_stereo_44KHz.wav
2	180	1	2	0	C	1	0	125	0	poli_8sides 2_whiteLine3.jpg	MediumShort_e16_cut1_stereo_44KHz.wav
2	181	4	3	2	I	2	0	230	0	poli_8sides 8_whiteLine3.jpg	MediumShort_b16_cut3_MS_stereo_44KHz.wav
2	182	2	1	0	C	1	0	100	0	poli_8sides 18_whiteLine3.jpg	MediumShort_e22_cut1_stereo_44KHz.wav
2	183	1	1	1	C	2	0	132	0	poli_8sides 2_whiteLine3.jpg	MediumShort_e22_cut1_stereo_44KHz.wav
2	184	3	3	2	I	1	0	1	0	poli_8sides 12_whiteLine3.jpg	MediumShort_b16_cut3_MS_stereo_44KHz.wav
2	185	2	1	0	C	2	1	231	1	poli_8sides 18_whiteLine3.jpg	MediumShort_e22_cut1_stereo_44KHz.wav
2	186	3	3	2	I	2	0	156	1	poli_8sides 12_whiteLine3.jpg	MediumShort_b16_cut3_MS_stereo_44KHz.wav
2	187	4	3	2	I	2	0	434	0	poli_8sides 8_whiteLine3.jpg	MediumShort_b16_cut3_MS_stereo_44KHz.wav
2	188	1	1	1	C	1	1	260	1	poli_8sides 2_whiteLine3.jpg	MediumShort_e22_cut1_stereo_44KHz.wav
2	189	3	4	2	I	2	0	283	0	poli_8sides 12_whiteLine3.jpg	MediumShort_b10_cut1_MS_stereo_44KHz.wav
2	190	4	4	2	I	1	0	387	1	poli_8sides 8_whiteLine3.jpg	MediumShort_b10_cut1_MS_stereo_44KHz.wav
2	191	1	2	0	C	2	1	327	1	poli_8sides 2_whiteLine3.jpg	MediumShort_e16_cut1_stereo_44KHz.wav
2	192	2	2	1	C	1	1	245	1	poli_8sides 18_whiteLine3.jpg	MediumShort_e16_cut1_stereo_44KHz.wav
2	193	1	1	1	C	2	0	173	0	poli_8sides 2_whiteLine3.jpg	MediumShort_e22_cut1_stereo_44KHz.wav
2	194	2	2	1	C	1	1	154	1	poli_8sides 18_whiteLine3.jpg	MediumShort_e16_cut1_stereo_44KHz.wav
2	195	3	4	2	I	2	0	680	1	poli_8sides 12_whiteLine3.jpg	MediumShort_b10_cut1_MS_stereo_44KHz.wav
2	196	4	3	2	I	2	0	213	1	poli_8sides 8_whiteLine3.jpg	MediumShort_b16_cut3_MS_stereo_44KHz.wav
2	197	3	3	2	I	2	0	396	1	poli_8sides 12_whiteLine3.jpg	MediumShort_b16_cut3_MS_stereo_44KHz.wav
2	198	2	1	0	C	1	0	700	0	poli_8sides 18_whiteLine3.jpg	MediumShort_e22_cut1_stereo_44KHz.wav
2	199	4	4	2	I	2	0	371	0	poli_8sides 8_whiteLine3.jpg	MediumShort_b10_cut1_MS_stereo_44KHz.wav
2	200	1	2	0	C	1	0	199	0	poli_8sides 2_whiteLine3.jpg	MediumShort_e16_cut1_stereo_44KHz.wav
3	1	3	4	2	I	2	0	1546	0	poli_8sides 11_whiteLine3.jpg	Short_b22_cut1_stereo_44KHz.wav
3	2	1	1	1	C	1	1	146	1	poli_8sides 6_whiteLine3.jpg	Short_b09_cut1_stereo_44KHz.wav
3	3	2	2	1	C	1	1	169	1	poli_8sides 16_whiteLine3.jpg	Short_b23_cut1_stereo_44KHz.wav
3	4	4	3	2	I	2	0	373	0	poli_8sides 4_whiteLine3.jpg	Short_b20_cut1_stereo_44KHz.wav
3	5	3	3	2	I	1	0	218	0	poli_8sides 11_whiteLine3.jpg	Short_b20_cut1_stereo_44KHz.wav
3	6	4	4	2	I	2	0	93	1	poli_8sides 4_whiteLine3.jpg	Short_b22_cut1_stereo_44KHz.wav
3	7	2	1	0	C	1	0	325	0	poli_8sides 16_whiteLine3.jpg	Short_b09_cut1_stereo_44KHz.wav
3	8	1	2	0	C	2	1	290	1	poli_8sides 6_whiteLine3.jpg	Short_b23_cut1_stereo_44KHz.wav
3	9	4	4	2	I	2	0	166	0	poli_8sides 4_whiteLine3.jpg	Short_b22_cut1_stereo_44KHz.wav
3	10	1	1	1	C	1	1	259	1	poli_8sides 6_whiteLine3.jpg	Short_b09_cut1_stereo_44KHz.wav
3	11	2	1	0	C	1	0	197	0	poli_8sides 16_whiteLine3.jpg	Short_b09_cut1_stereo_44KHz.wav
3	12	3	4	2	I	2	0	446	0	poli_8sides 11_whiteLine3.jpg	Short_b22_cut1_stereo_44KHz.wav
3	13	4	3	2	I	2	0	67	0	poli_8sides 4_whiteLine3.jpg	Short_b20_cut1_stereo_44KHz.wav
3	14	3	3	2	I	1	0	184	1	poli_8sides 11_whiteLine3.jpg	Short_b20_cut1_stereo_44KHz.wav
3	15	1	2	0	C	1	0	146	0	poli_8sides 6_whiteLine3.jpg	Short_b23_cut1_stereo_44KHz.wav
3	16	2	2	1	C	2	0	230	0	poli_8sides 16_whiteLine3.jpg	Short_b23_cut1_stereo_44KHz.wav
3	17	4	3	2	I	2	0	350	0	poli_8sides 4_whiteLine3.jpg	Short_b20_cut1_stereo_44KHz.wav
3	18	3	4	2	I	1	0	285	0	poli_8sides 11_whiteLine3.jpg	Short_b22_cut1_stereo_44KHz.wav
3	19	2	1	0	C	2	1	83	1	poli_8sides 16_whiteLine3.jpg	Short_b09_cut1_stereo_44KHz.wav
3	20	1	1	1	C	1	1	275	1	poli_8sides 6_whiteLine3.jpg	Short_b09_cut1_stereo_44KHz.wav
3	21	3	3	2	I	2	0	707	0	poli_8sides 11_whiteLine3.jpg	Short_b20_cut1_stereo_44KHz.wav
3	22	1	2	0	C	1	0	465	0	poli_8sides 6_whiteLine3.jpg	Short_b23_cut1_stereo_44KHz.wav
3	23	4	4	2	I	1	0	719	1	poli_8sides 4_whiteLine3.jpg	Short_b22_cut1_stereo_44KHz.wav
3	24	2	2	1	C	1	1	481	1	poli_8sides 16_whiteLine3.jpg	Short_b23_cut1_stereo_44KHz.wav
3	25	3	4	2	I	1	0	755	0	poli_8sides 11_whiteLine3.jpg	Short_b22_cut1_stereo_44KHz.wav
3	26	2	1	0	C	1	0	514	0	poli_8sides 16_whiteLine3.jpg	Short_b09_cut1_stereo_44KHz.wav
3	27	4	3	2	I	2	0	251	1	poli_8sides 4_whiteLine3.jpg	Short_b20_cut1_stereo_44KHz.wav
3	28	1	2	0	C	2	1	215	1	poli_8sides 6_whiteLine3.jpg	Short_b23_cut1_stereo_44KHz.wav
3	29	3	3	2	I	1	0	208	1	poli_8sides 11_whiteLine3.jpg	Short_b20_cut1_stereo_44KHz.wav
3	30	4	4	2	I	1	0	222	1	poli_8sides 4_whiteLine3.jpg	Short_b22_cut1_stereo_44KHz.wav
3	31	1	1	1	C	2	0	201	0	poli_8sides 6_whiteLine3.jpg	Short_b09_cut1_stereo_44KHz.wav
3	32	2	2	1	C	1	1	141	1	poli_8sides 16_whiteLine3.jpg	Short_b23_cut1_stereo_44KHz.wav
3	33	4	3	2	I	1	0	196	0	poli_8sides 4_whiteLine3.jpg	Short_b20_cut1_stereo_44KHz.wav
3	34	1	1	1	C	1	1	199	1	poli_8sides 6_whiteLine3.jpg	Short_b09_cut1_stereo_44KHz.wav
3	35	3	4	2	I	1	0	115	0	poli_8sides 11_whiteLine3.jpg	Short_b22_cut1_stereo_44KHz.wav
3	36	2	1	0	C	2	1	279	1	poli_8sides 16_whiteLine3.jpg	Short_b09_cut1_stereo_44KHz.wav
3	37	3	3	2	I	2	0	178	0	poli_8sides 11_whiteLine3.jpg	Short_b20_cut1_stereo_44KHz.wav
3	38	1	2	0	C	1	0	110	0	poli_8sides 6_whiteLine3.jpg	Short_b23_cut1_stereo_44KHz.wav
3	39	4	4	2	I	1	0	163	1	poli_8sides 4_whiteLine3.jpg	Short_b22_cut1_stereo_44KHz.wav
3	40	2	2	1	C	1	1	186	1	poli_8sides 16_whiteLine3.jpg	Short_b23_cut1_stereo_44KHz.wav
3	41	3	3	2	I	1	0	48	1	poli_8sides 11_whiteLine3.jpg	Short_b20_cut1_stereo_44KHz.wav
3	42	1	2	0	C	2	1	253	1	poli_8sides 6_whiteLine3.jpg	Short_b23_cut1_stereo_44KHz.wav
3	43	2	1	0	C	1	0	171	0	poli_8sides 16_whiteLine3.jpg	Short_b09_cut1_stereo_44KHz.wav
3	44	4	4	2	I	2	0	247	0	poli_8sides 4_whiteLine3.jpg	Short_b22_cut1_stereo_44KHz.wav
3	45	3	4	2	I	1	0	156	1	poli_8sides 11_whiteLine3.jpg	Short_b22_cut1_stereo_44KHz.wav
3	46	2	2	1	C	1	1	152	1	poli_8sides 16_whiteLine3.jpg	Short_b23_cut1_stereo_44KHz.wav
3	47	4	3	2	I	1	0	122	1	poli_8sides 4_whiteLine3.jpg	Short_b20_cut1_stereo_44KHz.wav
3	48	1	1	1	C	1	1	204	1	poli_8sides 6_whiteLine3.jpg	Short_b09_cut1_stereo_44KHz.wav
3	49	2	2	1	C	1	1	241	1	poli_8sides 16_whiteLine3.jpg	Short_b23_cut1_stereo_44KHz.wav
3	50	3	4	2	I	2	0	219	0	poli_8sides 11_whiteLine3.jpg	Short_b22_cut1_stereo_44KHz.wav
3	51	4	4	2	I	1	0	177	1	poli_8sides 4_whiteLine3.jpg	Short_b22_cut1_stereo_44KHz.wav
3	52	1	2	0	C	1	0	75	0	poli_8sides 6_whiteLine3.jpg	Short_b23_cut1_stereo_44KHz.wav
3	53	3	3	2	I	1	0	179	1	poli_8sides 11_whiteLine3.jpg	Short_b20_cut1_stereo_44KHz.wav
3	54	1	1	1	C	1	1	247	1	poli_8sides 6_whiteLine3.jpg	Short_b09_cut1_stereo_44KHz.wav
3	55	2	1	0	C	1	0	218	0	poli_8sides 16_whiteLine3.jpg	Short_b09_cut1_stereo_44KHz.wav
3	56	4	3	2	I	1	0	399	1	poli_8sides 4_whiteLine3.jpg	Short_b20_cut1_stereo_44KHz.wav
3	57	3	3	2	I	1	0	405	1	poli_8sides 11_whiteLine3.jpg	Short_b20_cut1_stereo_44KHz.wav
3	58	1	1	1	C	1	1	175	1	poli_8sides 6_whiteLine3.jpg	Short_b09_cut1_stereo_44KHz.wav
3	59	2	2	1	C	2	0	518	0	poli_8sides 16_whiteLine3.jpg	Short_b23_cut1_stereo_44KHz.wav
3	60	4	4	2	I	1	0	654	1	poli_8sides 4_whiteLine3.jpg	Short_b22_cut1_stereo_44KHz.wav
3	61	2	1	0	C	1	0	507	0	poli_8sides 16_whiteLine3.jpg	Short_b09_cut1_stereo_44KHz.wav
3	62	3	4	2	I	1	0	556	1	poli_8sides 11_whiteLine3.jpg	Short_b22_cut1_stereo_44KHz.wav
3	63	4	3	2	I	1	0	447	0	poli_8sides 4_whiteLine3.jpg	Short_b20_cut1_stereo_44KHz.wav
3	64	1	2	0	C	1	0	351	0	poli_8sides 6_whiteLine3.jpg	Short_b23_cut1_stereo_44KHz.wav
3	65	4	4	2	I	2	0	241	0	poli_8sides 4_whiteLine3.jpg	Short_b22_cut1_stereo_44KHz.wav
3	66	1	1	1	C	1	1	271	1	poli_8sides 6_whiteLine3.jpg	Short_b09_cut1_stereo_44KHz.wav
3	67	2	1	0	C	1	0	258	0	poli_8sides 16_whiteLine3.jpg	Short_b09_cut1_stereo_44KHz.wav
3	68	3	3	2	I	2	0	107	1	poli_8sides 11_whiteLine3.jpg	Short_b20_cut1_stereo_44KHz.wav
3	69	4	3	2	I	2	0	227	0	poli_8sides 4_whiteLine3.jpg	Short_b20_cut1_stereo_44KHz.wav
3	70	1	2	0	C	1	0	56	0	poli_8sides 6_whiteLine3.jpg	Short_b23_cut1_stereo_44KHz.wav
3	71	3	4	2	I	1	0	182	0	poli_8sides 11_whiteLine3.jpg	Short_b22_cut1_stereo_44KHz.wav
3	72	2	2	1	C	1	1	166	1	poli_8sides 16_whiteLine3.jpg	Short_b23_cut1_stereo_44KHz.wav
3	73	4	3	2	I	2	0	188	1	poli_8sides 4_whiteLine3.jpg	Short_b20_cut1_stereo_44KHz.wav
3	74	1	1	1	C	2	0	126	0	poli_8sides 6_whiteLine3.jpg	Short_b09_cut1_stereo_44KHz.wav
3	75	2	1	0	C	1	0	159	0	poli_8sides 16_whiteLine3.jpg	Short_b09_cut1_stereo_44KHz.wav
3	76	3	4	2	I	2	0	210	1	poli_8sides 11_whiteLine3.jpg	Short_b22_cut1_stereo_44KHz.wav
3	77	4	4	2	I	2	0	170	0	poli_8sides 4_whiteLine3.jpg	Short_b22_cut1_stereo_44KHz.wav
3	78	1	2	0	C	2	1	126	1	poli_8sides 6_whiteLine3.jpg	Short_b23_cut1_stereo_44KHz.wav
3	79	2	2	1	C	2	0	101	0	poli_8sides 16_whiteLine3.jpg	Short_b23_cut1_stereo_44KHz.wav
3	80	3	3	2	I	1	0	117	1	poli_8sides 11_whiteLine3.jpg	Short_b20_cut1_stereo_44KHz.wav
3	81	2	1	0	C	2	1	114	1	poli_8sides 16_whiteLine3.jpg	Short_b09_cut1_stereo_44KHz.wav
3	82	1	1	1	C	2	0	207	0	poli_8sides 6_whiteLine3.jpg	Short_b09_cut1_stereo_44KHz.wav
3	83	3	4	2	I	1	0	246	1	poli_8sides 11_whiteLine3.jpg	Short_b22_cut1_stereo_44KHz.wav
3	84	4	4	2	I	1	0	333	1	poli_8sides 4_whiteLine3.jpg	Short_b22_cut1_stereo_44KHz.wav
3	85	3	3	2	I	1	0	217	0	poli_8sides 11_whiteLine3.jpg	Short_b20_cut1_stereo_44KHz.wav
3	86	4	3	2	I	2	0	30	1	poli_8sides 4_whiteLine3.jpg	Short_b20_cut1_stereo_44KHz.wav
3	87	1	2	0	C	1	0	133	0	poli_8sides 6_whiteLine3.jpg	Short_b23_cut1_stereo_44KHz.wav
3	88	2	2	1	C	2	0	146	0	poli_8sides 16_whiteLine3.jpg	Short_b23_cut1_stereo_44KHz.wav
3	89	3	4	2	I	1	0	219	1	poli_8sides 11_whiteLine3.jpg	Short_b22_cut1_stereo_44KHz.wav
3	90	2	1	0	C	1	0	145	0	poli_8sides 16_whiteLine3.jpg	Short_b09_cut1_stereo_44KHz.wav
3	91	1	1	1	C	2	0	253	0	poli_8sides 6_whiteLine3.jpg	Short_b09_cut1_stereo_44KHz.wav
3	92	4	4	2	I	1	0	250	0	poli_8sides 4_whiteLine3.jpg	Short_b22_cut1_stereo_44KHz.wav
3	93	3	3	2	I	2	0	159	1	poli_8sides 11_whiteLine3.jpg	Short_b20_cut1_stereo_44KHz.wav
3	94	1	2	0	C	2	1	87	1	poli_8sides 6_whiteLine3.jpg	Short_b23_cut1_stereo_44KHz.wav
3	95	4	3	2	I	2	0	165	0	poli_8sides 4_whiteLine3.jpg	Short_b20_cut1_stereo_44KHz.wav
3	96	2	2	1	C	2	0	86	0	poli_8sides 16_whiteLine3.jpg	Short_b23_cut1_stereo_44KHz.wav
3	97	3	4	2	I	1	0	166	1	poli_8sides 11_whiteLine3.jpg	Short_b22_cut1_stereo_44KHz.wav
3	98	2	1	0	C	1	0	106	0	poli_8sides 16_whiteLine3.jpg	Short_b09_cut1_stereo_44KHz.wav
3	99	1	1	1	C	2	0	38	0	poli_8sides 6_whiteLine3.jpg	Short_b09_cut1_stereo_44KHz.wav
3	100	4	3	2	I	1	0	192	0	poli_8sides 4_whiteLine3.jpg	Short_b20_cut1_stereo_44KHz.wav
3	101	3	3	2	I	1	0	210	1	poli_8sides 11_whiteLine3.jpg	Short_b20_cut1_stereo_44KHz.wav
3	102	1	2	0	C	2	1	79	1	poli_8sides 6_whiteLine3.jpg	Short_b23_cut1_stereo_44KHz.wav
3	103	4	4	2	I	2	0	568	1	poli_8sides 4_whiteLine3.jpg	Short_b22_cut1_stereo_44KHz.wav
3	104	2	2	1	C	2	0	172	0	poli_8sides 16_whiteLine3.jpg	Short_b23_cut1_stereo_44KHz.wav
3	105	1	2	0	C	2	1	155	1	poli_8sides 6_whiteLine3.jpg	Short_b23_cut1_stereo_44KHz.wav
3	106	3	4	2	I	2	0	160	0	poli_8sides 11_whiteLine3.jpg	Short_b22_cut1_stereo_44KHz.wav
3	107	4	4	2	I	1	0	349	0	poli_8sides 4_whiteLine3.jpg	Short_b22_cut1_stereo_44KHz.wav
3	108	2	1	0	C	2	1	34	1	poli_8sides 16_whiteLine3.jpg	Short_b09_cut1_stereo_44KHz.wav
3	109	3	3	2	I	2	0	30	1	poli_8sides 11_whiteLine3.jpg	Short_b20_cut1_stereo_44KHz.wav
3	110	4	3	2	I	2	0	430	0	poli_8sides 4_whiteLine3.jpg	Short_b20_cut1_stereo_44KHz.wav
3	111	2	2	1	C	2	0	163	0	poli_8sides 16_whiteLine3.jpg	Short_b23_cut1_stereo_44KHz.wav
3	112	1	1	1	C	1	1	117	1	poli_8sides 6_whiteLine3.jpg	Short_b09_cut1_stereo_44KHz.wav
3	113	2	1	0	C	1	0	191	0	poli_8sides 16_whiteLine3.jpg	Short_b09_cut1_stereo_44KHz.wav
3	114	1	2	0	C	2	1	33	1	poli_8sides 6_whiteLine3.jpg	Short_b23_cut1_stereo_44KHz.wav
3	115	4	4	2	I	2	0	30	1	poli_8sides 4_whiteLine3.jpg	Short_b22_cut1_stereo_44KHz.wav
3	116	3	4	2	I	2	0	120	0	poli_8sides 11_whiteLine3.jpg	Short_b22_cut1_stereo_44KHz.wav
3	117	1	1	1	C	1	1	93	1	poli_8sides 6_whiteLine3.jpg	Short_b09_cut1_stereo_44KHz.wav
3	118	4	3	2	I	1	0	126	0	poli_8sides 4_whiteLine3.jpg	Short_b20_cut1_stereo_44KHz.wav
3	119	2	2	1	C	2	0	150	0	poli_8sides 16_whiteLine3.jpg	Short_b23_cut1_stereo_44KHz.wav
3	120	3	3	2	I	2	0	527	1	poli_8sides 11_whiteLine3.jpg	Short_b20_cut1_stereo_44KHz.wav
3	121	4	3	2	I	2	0	181	0	poli_8sides 4_whiteLine3.jpg	Short_b20_cut1_stereo_44KHz.wav
3	122	2	2	1	C	2	0	200	0	poli_8sides 16_whiteLine3.jpg	Short_b23_cut1_stereo_44KHz.wav
3	123	1	2	0	C	2	1	243	1	poli_8sides 6_whiteLine3.jpg	Short_b23_cut1_stereo_44KHz.wav
3	124	3	3	2	I	1	0	190	1	poli_8sides 11_whiteLine3.jpg	Short_b20_cut1_stereo_44KHz.wav
3	125	1	1	1	C	2	0	241	0	poli_8sides 6_whiteLine3.jpg	Short_b09_cut1_stereo_44KHz.wav
3	126	4	4	2	I	1	0	196	0	poli_8sides 4_whiteLine3.jpg	Short_b22_cut1_stereo_44KHz.wav
3	127	2	1	0	C	2	1	261	1	poli_8sides 16_whiteLine3.jpg	Short_b09_cut1_stereo_44KHz.wav
3	128	3	4	2	I	2	0	134	1	poli_8sides 11_whiteLine3.jpg	Short_b22_cut1_stereo_44KHz.wav
3	129	1	2	0	C	2	1	121	1	poli_8sides 6_whiteLine3.jpg	Short_b23_cut1_stereo_44KHz.wav
3	130	2	1	0	C	2	1	62	1	poli_8sides 16_whiteLine3.jpg	Short_b09_cut1_stereo_44KHz.wav
3	131	4	3	2	I	2	0	62	1	poli_8sides 4_whiteLine3.jpg	Short_b20_cut1_stereo_44KHz.wav
3	132	3	3	2	I	1	0	179	0	poli_8sides 11_whiteLine3.jpg	Short_b20_cut1_stereo_44KHz.wav
3	133	2	2	1	C	2	0	163	0	poli_8sides 16_whiteLine3.jpg	Short_b23_cut1_stereo_44KHz.wav
3	134	4	4	2	I	1	0	447	1	poli_8sides 4_whiteLine3.jpg	Short_b22_cut1_stereo_44KHz.wav
3	135	1	1	1	C	1	1	187	1	poli_8sides 6_whiteLine3.jpg	Short_b09_cut1_stereo_44KHz.wav
3	136	3	4	2	I	1	0	8	0	poli_8sides 11_whiteLine3.jpg	Short_b22_cut1_stereo_44KHz.wav
3	137	4	4	2	I	2	0	142	1	poli_8sides 4_whiteLine3.jpg	Short_b22_cut1_stereo_44KHz.wav
3	138	1	2	0	C	2	1	53	1	poli_8sides 6_whiteLine3.jpg	Short_b23_cut1_stereo_44KHz.wav
3	139	2	1	0	C	2	1	127	1	poli_8sides 16_whiteLine3.jpg	Short_b09_cut1_stereo_44KHz.wav
3	140	3	4	2	I	2	0	146	0	poli_8sides 11_whiteLine3.jpg	Short_b22_cut1_stereo_44KHz.wav
3	141	1	1	1	C	1	1	246	1	poli_8sides 6_whiteLine3.jpg	Short_b09_cut1_stereo_44KHz.wav
3	142	2	2	1	C	1	1	60	1	poli_8sides 16_whiteLine3.jpg	Short_b23_cut1_stereo_44KHz.wav
3	143	3	3	2	I	1	0	166	0	poli_8sides 11_whiteLine3.jpg	Short_b20_cut1_stereo_44KHz.wav
3	144	4	3	2	I	2	0	112	0	poli_8sides 4_whiteLine3.jpg	Short_b20_cut1_stereo_44KHz.wav
3	145	2	1	0	C	1	0	228	0	poli_8sides 16_whiteLine3.jpg	Short_b09_cut1_stereo_44KHz.wav
3	146	4	3	2	I	1	0	147	0	poli_8sides 4_whiteLine3.jpg	Short_b20_cut1_stereo_44KHz.wav
3	147	3	4	2	I	2	0	107	1	poli_8sides 11_whiteLine3.jpg	Short_b22_cut1_stereo_44KHz.wav
3	148	1	2	0	C	2	1	90	1	poli_8sides 6_whiteLine3.jpg	Short_b23_cut1_stereo_44KHz.wav
3	149	3	3	2	I	2	0	590	0	poli_8sides 11_whiteLine3.jpg	Short_b20_cut1_stereo_44KHz.wav
3	150	2	2	1	C	2	0	206	0	poli_8sides 16_whiteLine3.jpg	Short_b23_cut1_stereo_44KHz.wav
3	151	1	1	1	C	2	0	92	0	poli_8sides 6_whiteLine3.jpg	Short_b09_cut1_stereo_44KHz.wav
3	152	4	4	2	I	1	0	153	0	poli_8sides 4_whiteLine3.jpg	Short_b22_cut1_stereo_44KHz.wav
3	153	2	1	0	C	2	1	162	1	poli_8sides 16_whiteLine3.jpg	Short_b09_cut1_stereo_44KHz.wav
3	154	4	3	2	I	2	0	307	1	poli_8sides 4_whiteLine3.jpg	Short_b20_cut1_stereo_44KHz.wav
3	155	1	1	1	C	2	0	40	0	poli_8sides 6_whiteLine3.jpg	Short_b09_cut1_stereo_44KHz.wav
3	156	3	4	2	I	1	0	14	1	poli_8sides 11_whiteLine3.jpg	Short_b22_cut1_stereo_44KHz.wav
3	157	1	2	0	C	1	0	77	0	poli_8sides 6_whiteLine3.jpg	Short_b23_cut1_stereo_44KHz.wav
3	158	3	3	2	I	2	0	93	1	poli_8sides 11_whiteLine3.jpg	Short_b20_cut1_stereo_44KHz.wav
3	159	2	2	1	C	2	0	381	0	poli_8sides 16_whiteLine3.jpg	Short_b23_cut1_stereo_44KHz.wav
3	160	4	4	2	I	1	0	154	1	poli_8sides 4_whiteLine3.jpg	Short_b22_cut1_stereo_44KHz.wav
3	161	1	2	0	C	1	0	142	0	poli_8sides 6_whiteLine3.jpg	Short_b23_cut1_stereo_44KHz.wav
3	162	3	4	2	I	2	0	44	0	poli_8sides 11_whiteLine3.jpg	Short_b22_cut1_stereo_44KHz.wav
3	163	2	2	1	C	1	1	87	1	poli_8sides 16_whiteLine3.jpg	Short_b23_cut1_stereo_44KHz.wav
3	164	4	3	2	I	2	0	160	1	poli_8sides 4_whiteLine3.jpg	Short_b20_cut1_stereo_44KHz.wav
3	165	3	3	2	I	2	0	26	0	poli_8sides 11_whiteLine3.jpg	Short_b20_cut1_stereo_44KHz.wav
3	166	2	1	0	C	1	0	13	0	poli_8sides 16_whiteLine3.jpg	Short_b09_cut1_stereo_44KHz.wav
3	167	4	4	2	I	2	0	177	1	poli_8sides 4_whiteLine3.jpg	Short_b22_cut1_stereo_44KHz.wav
3	168	1	1	1	C	2	0	254	0	poli_8sides 6_whiteLine3.jpg	Short_b09_cut1_stereo_44KHz.wav
3	169	3	3	2	I	1	0	165	0	poli_8sides 11_whiteLine3.jpg	Short_b20_cut1_stereo_44KHz.wav
3	170	2	1	0	C	2	1	404	1	poli_8sides 16_whiteLine3.jpg	Short_b09_cut1_stereo_44KHz.wav
3	171	1	1	1	C	2	0	58	0	poli_8sides 6_whiteLine3.jpg	Short_b09_cut1_stereo_44KHz.wav
3	172	4	4	2	I	1	0	125	1	poli_8sides 4_whiteLine3.jpg	Short_b22_cut1_stereo_44KHz.wav
3	173	3	4	2	I	2	0	135	0	poli_8sides 11_whiteLine3.jpg	Short_b22_cut1_stereo_44KHz.wav
3	174	1	2	0	C	1	0	95	0	poli_8sides 6_whiteLine3.jpg	Short_b23_cut1_stereo_44KHz.wav
3	175	2	2	1	C	2	0	64	0	poli_8sides 16_whiteLine3.jpg	Short_b23_cut1_stereo_44KHz.wav
3	176	4	3	2	I	1	0	113	0	poli_8sides 4_whiteLine3.jpg	Short_b20_cut1_stereo_44KHz.wav
3	177	2	2	1	C	2	0	248	0	poli_8sides 16_whiteLine3.jpg	Short_b23_cut1_stereo_44KHz.wav
3	178	3	3	2	I	1	0	179	1	poli_8sides 11_whiteLine3.jpg	Short_b20_cut1_stereo_44KHz.wav
3	179	1	2	0	C	1	0	146	0	poli_8sides 6_whiteLine3.jpg	Short_b23_cut1_stereo_44KHz.wav
3	180	4	4	2	I	2	0	1069	0	poli_8sides 4_whiteLine3.jpg	Short_b22_cut1_stereo_44KHz.wav
3	181	1	1	1	C	2	0	141	0	poli_8sides 6_whiteLine3.jpg	Short_b09_cut1_stereo_44KHz.wav
3	182	3	4	2	I	1	0	34	1	poli_8sides 11_whiteLine3.jpg	Short_b22_cut1_stereo_44KHz.wav
3	183	4	3	2	I	1	0	67	0	poli_8sides 4_whiteLine3.jpg	Short_b20_cut1_stereo_44KHz.wav
3	184	2	1	0	C	2	1	34	1	poli_8sides 16_whiteLine3.jpg	Short_b09_cut1_stereo_44KHz.wav
3	185	4	3	2	I	2	0	34	1	poli_8sides 4_whiteLine3.jpg	Short_b20_cut1_stereo_44KHz.wav
3	186	3	4	2	I	2	0	113	0	poli_8sides 11_whiteLine3.jpg	Short_b22_cut1_stereo_44KHz.wav
3	187	2	1	0	C	1	0	70	0	poli_8sides 16_whiteLine3.jpg	Short_b09_cut1_stereo_44KHz.wav
3	188	1	2	0	C	2	1	101	1	poli_8sides 6_whiteLine3.jpg	Short_b23_cut1_stereo_44KHz.wav
3	189	2	2	1	C	2	0	61	0	poli_8sides 16_whiteLine3.jpg	Short_b23_cut1_stereo_44KHz.wav
3	190	1	1	1	C	1	1	79	1	poli_8sides 6_whiteLine3.jpg	Short_b09_cut1_stereo_44KHz.wav
3	191	4	4	2	I	1	0	97	1	poli_8sides 4_whiteLine3.jpg	Short_b22_cut1_stereo_44KHz.wav
3	192	3	3	2	I	1	0	52	0	poli_8sides 11_whiteLine3.jpg	Short_b20_cut1_stereo_44KHz.wav
3	193	4	3	2	I	2	0	154	0	poli_8sides 4_whiteLine3.jpg	Short_b20_cut1_stereo_44KHz.wav
3	194	1	2	0	C	2	1	46	1	poli_8sides 6_whiteLine3.jpg	Short_b23_cut1_stereo_44KHz.wav
3	195	3	4	2	I	2	0	123	1	poli_8sides 11_whiteLine3.jpg	Short_b22_cut1_stereo_44KHz.wav
3	196	2	1	0	C	1	0	36	0	poli_8sides 16_whiteLine3.jpg	Short_b09_cut1_stereo_44KHz.wav
3	197	4	4	2	I	2	0	26	1	poli_8sides 4_whiteLine3.jpg	Short_b22_cut1_stereo_44KHz.wav
3	198	3	3	2	I	2	0	150	0	poli_8sides 11_whiteLine3.jpg	Short_b20_cut1_stereo_44KHz.wav
3	199	1	1	1	C	1	1	10	1	poli_8sides 6_whiteLine3.jpg	Short_b09_cut1_stereo_44KHz.wav
3	200	2	2	1	C	1	1	35	1	poli_8sides 16_whiteLine3.jpg	Short_b23_cut1_stereo_44KHz.wav
4	1	2	2	1	C	2	0	970	0	poli_8sides 1_whiteLine3.jpg	MediumLong_e19_stereo_44KHz.wav
4	2	3	3	2	I	1	0	149	1	poli_8sides 7_whiteLine3.jpg	Medium_e13_stereo_44KHz.wav
4	3	4	3	2	I	1	0	446	1	poli_8sides 9_whiteLine3.jpg	Medium_e13_stereo_44KHz.wav
4	4	1	1	1	C	1	1	399	1	poli_8sides 15_whiteLine3.jpg	Medium_e26_stereo_44KHz.wav
4	5	4	4	2	I	1	0	7	1	poli_8sides 9_whiteLine3.jpg	MediumLong_e17_cut2_stereo_44KHz.wav
4	6	3	4	2	I	1	0	90	0	poli_8sides 7_whiteLine3.jpg	MediumLong_e17_cut2_stereo_44KHz.wav
4	7	1	2	0	C	2	1	30	1	poli_8sides 15_whiteLine3.jpg	MediumLong_e19_stereo_44KHz.wav
4	8	2	1	0	C	2	1	15	1	poli_8sides 1_whiteLine3.jpg	Medium_e26_stereo_44KHz.wav
4	9	1	2	0	C	2	1	251	1	poli_8sides 15_whiteLine3.jpg	MediumLong_e19_stereo_44KHz.wav
4	10	2	1	0	C	2	1	29	1	poli_8sides 1_whiteLine3.jpg	Medium_e26_stereo_44KHz.wav
4	11	4	3	2	I	2	0	78	0	poli_8sides 9_whiteLine3.jpg	Medium_e13_stereo_44KHz.wav
4	12	3	3	2	I	1	0	381	0	poli_8sides 7_whiteLine3.jpg	Medium_e13_stereo_44KHz.wav
4	13	1	1	1	C	2	0	273	0	poli_8sides 15_whiteLine3.jpg	Medium_e26_stereo_44KHz.wav
4	14	3	4	2	I	1	0	161	1	poli_8sides 7_whiteLine3.jpg	MediumLong_e17_cut2_stereo_44KHz.wav
4	15	4	4	2	I	1	0	91	1	poli_8sides 9_whiteLine3.jpg	MediumLong_e17_cut2_stereo_44KHz.wav
4	16	2	2	1	C	2	0	45	0	poli_8sides 1_whiteLine3.jpg	MediumLong_e19_stereo_44KHz.wav
4	17	3	4	2	I	1	0	446	0	poli_8sides 7_whiteLine3.jpg	MediumLong_e17_cut2_stereo_44KHz.wav
4	18	2	2	1	C	1	1	17	1	poli_8sides 1_whiteLine3.jpg	MediumLong_e19_stereo_44KHz.wav
4	19	1	1	1	C	1	1	26	1	poli_8sides 15_whiteLine3.jpg	Medium_e26_stereo_44KHz.wav
4	20	4	3	2	I	1	0	118	1	poli_8sides 9_whiteLine3.jpg	Medium_e13_stereo_44KHz.wav
4	21	1	2	0	C	1	0	249	0	poli_8sides 15_whiteLine3.jpg	MediumLong_e19_stereo_44KHz.wav
4	22	4	4	2	I	2	0	433	1	poli_8sides 9_whiteLine3.jpg	MediumLong_e17_cut2_stereo_44KHz.wav
4	23	2	1	0	C	2	1	134	1	poli_8sides 1_whiteLine3.jpg	Medium_e26_stereo_44KHz.wav
4	24	3	3	2	I	2	0	364	1	poli_8sides 7_whiteLine3.jpg	Medium_e13_stereo_44KHz.wav
4	25	4	4	2	I	2	0	53	1	poli_8sides 9_whiteLine3.jpg	MediumLong_e17_cut2_stereo_44KHz.wav
4	26	2	1	0	C	2	1	91	1	poli_8sides 1_whiteLine3.jpg	Medium_e26_stereo_44KHz.wav
4	27	1	1	1	C	2	0	9	0	poli_8sides 15_whiteLine3.jpg	Medium_e26_stereo_44KHz.wav
4	28	3	4	2	I	1	0	394	0	poli_8sides 7_whiteLine3.jpg	MediumLong_e17_cut2_stereo_44KHz.wav
4	29	2	2	1	C	2	0	6	0	poli_8sides 1_whiteLine3.jpg	MediumLong_e19_stereo_44KHz.wav
4	30	3	3	2	I	2	0	79	1	poli_8sides 7_whiteLine3.jpg	Medium_e13_stereo_44KHz.wav
4	31	1	2	0	C	2	1	215	1	poli_8sides 15_whiteLine3.jpg	MediumLong_e19_stereo_44KHz.wav
4	32	4	3	2	I	2	0	28	0	poli_8sides 9_whiteLine3.jpg	Medium_e13_stereo_44KHz.wav
4	33	2	1	0	C	1	0	145	0	poli_8sides 1_whiteLine3.jpg	Medium_e26_stereo_44KHz.wav
4	34	4	3	2	I	2	0	0	1	poli_8sides 9_whiteLine3.jpg	Medium_e13_stereo_44KHz.wav
4	35	1	2	0	C	2	1	25	1	poli_8sides 15_whiteLine3.jpg	MediumLong_e19_stereo_44KHz.wav
4	36	3	4	2	I	2	0	387	0	poli_8sides 7_whiteLine3.jpg	MediumLong_e17_cut2_stereo_44KHz.wav
4	37	4	4	2	I	1	0	26	1	poli_8sides 9_whiteLine3.jpg	MediumLong_e17_cut2_stereo_44KHz.wav
4	38	3	3	2	I	1	0	17	0	poli_8sides 7_whiteLine3.jpg	Medium_e13_stereo_44KHz.wav
4	39	1	1	1	C	2	0	52	0	poli_8sides 15_whiteLine3.jpg	Medium_e26_stereo_44KHz.wav
4	40	2	2	1	C	2	0	93	0	poli_8sides 1_whiteLine3.jpg	MediumLong_e19_stereo_44KHz.wav
4	41	1	2	0	C	1	0	31	0	poli_8sides 15_whiteLine3.jpg	MediumLong_e19_stereo_44KHz.wav
4	42	3	3	2	I	2	0	38	0	poli_8sides 7_whiteLine3.jpg	Medium_e13_stereo_44KHz.wav
4	43	4	3	2	I	2	0	438	0	poli_8sides 9_whiteLine3.jpg	Medium_e13_stereo_44KHz.wav
4	44	2	1	0	C	1	0	41	0	poli_8sides 1_whiteLine3.jpg	Medium_e26_stereo_44KHz.wav
4	45	3	4	2	I	2	0	13	1	poli_8sides 7_whiteLine3.jpg	MediumLong_e17_cut2_stereo_44KHz.wav
4	46	2	2	1	C	2	0	68	0	poli_8sides 1_whiteLine3.jpg	MediumLong_e19_stereo_44KHz.wav
4	47	4	4	2	I	2	0	74	1	poli_8sides 9_whiteLine3.jpg	MediumLong_e17_cut2_stereo_44KHz.wav
4	48	1	1	1	C	1	1	122	1	poli_8sides 15_whiteLine3.jpg	Medium_e26_stereo_44KHz.wav
4	49	2	1	0	C	2	1	60	1	poli_8sides 1_whiteLine3.jpg	Medium_e26_stereo_44KHz.wav
4	50	3	4	2	I	2	0	432	1	poli_8sides 7_whiteLine3.jpg	MediumLong_e17_cut2_stereo_44KHz.wav
4	51	4	3	2	I	2	0	59	0	poli_8sides 9_whiteLine3.jpg	Medium_e13_stereo_44KHz.wav
4	52	1	2	0	C	1	0	169	0	poli_8sides 15_whiteLine3.jpg	MediumLong_e19_stereo_44KHz.wav
4	53	3	3	2	I	2	0	24	1	poli_8sides 7_whiteLine3.jpg	Medium_e13_stereo_44KHz.wav
4	54	2	2	1	C	2	0	15	0	poli_8sides 1_whiteLine3.jpg	MediumLong_e19_stereo_44KHz.wav
4	55	1	1	1	C	2	0	363	0	poli_8sides 15_whiteLine3.jpg	Medium_e26_stereo_44KHz.wav
4	56	4	4	2	I	1	0	176	1	poli_8sides 9_whiteLine3.jpg	MediumLong_e17_cut2_stereo_44KHz.wav
4	57	3	3	2	I	1	0	17	1	poli_8sides 7_whiteLine3.jpg	Medium_e13_stereo_44KHz.wav
4	58	4	4	2	I	1	0	39	0	poli_8sides 9_whiteLine3.jpg	MediumLong_e17_cut2_stereo_44KHz.wav
4	59	1	2	0	C	2	1	23	1	poli_8sides 15_whiteLine3.jpg	MediumLong_e19_stereo_44KHz.wav
4	60	2	1	0	C	2	1	4	1	poli_8sides 1_whiteLine3.jpg	Medium_e26_stereo_44KHz.wav
4	61	3	4	2	I	2	0	86	1	poli_8sides 7_whiteLine3.jpg	MediumLong_e17_cut2_stereo_44KHz.wav
4	62	1	1	1	C	2	0	404	0	poli_8sides 15_whiteLine3.jpg	Medium_e26_stereo_44KHz.wav
4	63	2	2	1	C	1	1	50	1	poli_8sides 1_whiteLine3.jpg	MediumLong_e19_stereo_44KHz.wav
4	64	4	3	2	I	1	0	6	0	poli_8sides 9_whiteLine3.jpg	Medium_e13_stereo_44KHz.wav
4	65	1	1	1	C	2	0	48	0	poli_8sides 15_whiteLine3.jpg	Medium_e26_stereo_44KHz.wav
4	66	4	3	2	I	2	0	139	0	poli_8sides 9_whiteLine3.jpg	Medium_e13_stereo_44KHz.wav
4	67	2	1	0	C	2	1	475	1	poli_8sides 1_whiteLine3.jpg	Medium_e26_stereo_44KHz.wav
4	68	3	3	2	I	1	0	182	1	poli_8sides 7_whiteLine3.jpg	Medium_e13_stereo_44KHz.wav
4	69	1	2	0	C	1	0	47	0	poli_8sides 15_whiteLine3.jpg	MediumLong_e19_stereo_44KHz.wav
4	70	2	2	1	C	2	0	12	0	poli_8sides 1_whiteLine3.jpg	MediumLong_e19_stereo_44KHz.wav
4	71	3	4	2	I	2	0	357	0	poli_8sides 7_whiteLine3.jpg	MediumLong_e17_cut2_stereo_44KHz.wav
4	72	4	4	2	I	2	0	369	1	poli_8sides 9_whiteLine3.jpg	MediumLong_e17_cut2_stereo_44KHz.wav
4	73	3	4	2	I	2	0	253	0	poli_8sides 7_whiteLine3.jpg	MediumLong_e17_cut2_stereo_44KHz.wav
4	74	4	3	2	I	1	0	201	1	poli_8sides 9_whiteLine3.jpg	Medium_e13_stereo_44KHz.wav
4	75	2	1	0	C	1	0	305	0	poli_8sides 1_whiteLine3.jpg	Medium_e26_stereo_44KHz.wav
4	76	1	1	1	C	2	0	328	0	poli_8sides 15_whiteLine3.jpg	Medium_e26_stereo_44KHz.wav
4	77	3	3	2	I	2	0	262	0	poli_8sides 7_whiteLine3.jpg	Medium_e13_stereo_44KHz.wav
4	78	2	2	1	C	1	1	192	1	poli_8sides 1_whiteLine3.jpg	MediumLong_e19_stereo_44KHz.wav
4	79	4	4	2	I	1	0	5	0	poli_8sides 9_whiteLine3.jpg	MediumLong_e17_cut2_stereo_44KHz.wav
4	80	1	2	0	C	2	1	42	1	poli_8sides 15_whiteLine3.jpg	MediumLong_e19_stereo_44KHz.wav
4	81	2	1	0	C	2	1	487	1	poli_8sides 1_whiteLine3.jpg	Medium_e26_stereo_44KHz.wav
4	82	3	4	2	I	2	0	320	1	poli_8sides 7_whiteLine3.jpg	MediumLong_e17_cut2_stereo_44KHz.wav
4	83	1	2	0	C	2	1	33	1	poli_8sides 15_whiteLine3.jpg	MediumLong_e19_stereo_44KHz.wav
4	84	4	3	2	I	2	0	72	1	poli_8sides 9_whiteLine3.jpg	Medium_e13_stereo_44KHz.wav
4	85	3	3	2	I	2	0	263	1	poli_8sides 7_whiteLine3.jpg	Medium_e13_stereo_44KHz.wav
4	86	4	4	2	I	2	0	58	0	poli_8sides 9_whiteLine3.jpg	MediumLong_e17_cut2_stereo_44KHz.wav
4	87	2	2	1	C	2	0	46	0	poli_8sides 1_whiteLine3.jpg	MediumLong_e19_stereo_44KHz.wav
4	88	1	1	1	C	1	1	167	1	poli_8sides 15_whiteLine3.jpg	Medium_e26_stereo_44KHz.wav
4	89	2	2	1	C	1	1	84	1	poli_8sides 1_whiteLine3.jpg	MediumLong_e19_stereo_44KHz.wav
4	90	4	4	2	I	1	0	44	0	poli_8sides 9_whiteLine3.jpg	MediumLong_e17_cut2_stereo_44KHz.wav
4	91	1	1	1	C	2	0	14	0	poli_8sides 15_whiteLine3.jpg	Medium_e26_stereo_44KHz.wav
4	92	3	3	2	I	1	0	232	0	poli_8sides 7_whiteLine3.jpg	Medium_e13_stereo_44KHz.wav
4	93	4	3	2	I	2	0	36	1	poli_8sides 9_whiteLine3.jpg	Medium_e13_stereo_44KHz.wav
4	94	3	4	2	I	2	0	224	1	poli_8sides 7_whiteLine3.jpg	MediumLong_e17_cut2_stereo_44KHz.wav
4	95	1	2	0	C	2	1	35	1	poli_8sides 15_whiteLine3.jpg	MediumLong_e19_stereo_44KHz.wav
4	96	2	1	0	C	2	1	130	1	poli_8sides 1_whiteLine3.jpg	Medium_e26_stereo_44KHz.wav
4	97	1	1	1	C	2	0	245	0	poli_8sides 15_whiteLine3.jpg	Medium_e26_stereo_44KHz.wav
4	98	3	3	2	I	1	0	213	0	poli_8sides 7_whiteLine3.jpg	Medium_e13_stereo_44KHz.wav
4	99	2	1	0	C	2	1	6	1	poli_8sides 1_whiteLine3.jpg	Medium_e26_stereo_44KHz.wav
4	100	4	4	2	I	2	0	479	0	poli_8sides 9_whiteLine3.jpg	MediumLong_e17_cut2_stereo_44KHz.wav
4	101	2	2	1	C	2	0	68	0	poli_8sides 1_whiteLine3.jpg	MediumLong_e19_stereo_44KHz.wav
4	102	1	2	0	C	2	1	104	1	poli_8sides 15_whiteLine3.jpg	MediumLong_e19_stereo_44KHz.wav
4	103	3	4	2	I	1	0	59	1	poli_8sides 7_whiteLine3.jpg	MediumLong_e17_cut2_stereo_44KHz.wav
4	104	4	3	2	I	1	0	117	1	poli_8sides 9_whiteLine3.jpg	Medium_e13_stereo_44KHz.wav
4	105	2	2	1	C	1	1	24	1	poli_8sides 1_whiteLine3.jpg	MediumLong_e19_stereo_44KHz.wav
4	106	4	3	2	I	1	0	9	0	poli_8sides 9_whiteLine3.jpg	Medium_e13_stereo_44KHz.wav
4	107	1	1	1	C	2	0	412	0	poli_8sides 15_whiteLine3.jpg	Medium_e26_stereo_44KHz.wav
4	108	3	3	2	I	1	0	35	1	poli_8sides 7_whiteLine3.jpg	Medium_e13_stereo_44KHz.wav
4	109	2	1	0	C	1	0	64	0	poli_8sides 1_whiteLine3.jpg	Medium_e26_stereo_44KHz.wav
4	110	1	2	0	C	2	1	92	1	poli_8sides 15_whiteLine3.jpg	MediumLong_e19_stereo_44KHz.wav
4	111	4	4	2	I	1	0	91	0	poli_8sides 9_whiteLine3.jpg	MediumLong_e17_cut2_stereo_44KHz.wav
4	112	3	4	2	I	2	0	68	0	poli_8sides 7_whiteLine3.jpg	MediumLong_e17_cut2_stereo_44KHz.wav
4	113	2	2	1	C	2	0	43	0	poli_8sides 1_whiteLine3.jpg	MediumLong_e19_stereo_44KHz.wav
4	114	4	4	2	I	2	0	55	1	poli_8sides 9_whiteLine3.jpg	MediumLong_e17_cut2_stereo_44KHz.wav
4	115	3	4	2	I	2	0	401	0	poli_8sides 7_whiteLine3.jpg	MediumLong_e17_cut2_stereo_44KHz.wav
4	116	1	2	0	C	1	0	78	0	poli_8sides 15_whiteLine3.jpg	MediumLong_e19_stereo_44KHz.wav
4	117	3	3	2	I	2	0	57	1	poli_8sides 7_whiteLine3.jpg	Medium_e13_stereo_44KHz.wav
4	118	1	1	1	C	2	0	193	0	poli_8sides 15_whiteLine3.jpg	Medium_e26_stereo_44KHz.wav
4	119	4	3	2	I	2	0	504	1	poli_8sides 9_whiteLine3.jpg	Medium_e13_stereo_44KHz.wav
4	120	2	1	0	C	2	1	50	1	poli_8sides 1_whiteLine3.jpg	Medium_e26_stereo_44KHz.wav
4	121	4	3	2	I	2	0	100	1	poli_8sides 9_whiteLine3.jpg	Medium_e13_stereo_44KHz.wav
4	122	1	2	0	C	2	1	143	1	poli_8sides 15_whiteLine3.jpg	MediumLong_e19_stereo_44KHz.wav
4	123	2	1	0	C	2	1	64	1	poli_8sides 1_whiteLine3.jpg	Medium_e26_stereo_44KHz.wav
4	124	3	3	2	I	2	0	449	1	poli_8sides 7_whiteLine3.jpg	Medium_e13_stereo_44KHz.wav
4	125	1	1	1	C	2	0	80	0	poli_8sides 15_whiteLine3.jpg	Medium_e26_stereo_44KHz.wav
4	126	3	4	2	I	1	0	40	0	poli_8sides 7_whiteLine3.jpg	MediumLong_e17_cut2_stereo_44KHz.wav
4	127	2	2	1	C	2	0	223	0	poli_8sides 1_whiteLine3.jpg	MediumLong_e19_stereo_44KHz.wav
4	128	4	4	2	I	1	0	211	1	poli_8sides 9_whiteLine3.jpg	MediumLong_e17_cut2_stereo_44KHz.wav
4	129	2	1	0	C	1	0	80	0	poli_8sides 1_whiteLine3.jpg	Medium_e26_stereo_44KHz.wav
4	130	3	4	2	I	2	0	106	0	poli_8sides 7_whiteLine3.jpg	MediumLong_e17_cut2_stereo_44KHz.wav
4	131	4	3	2	I	2	0	166	1	poli_8sides 9_whiteLine3.jpg	Medium_e13_stereo_44KHz.wav
4	132	1	1	1	C	2	0	138	0	poli_8sides 15_whiteLine3.jpg	Medium_e26_stereo_44KHz.wav
4	133	2	2	1	C	2	0	141	0	poli_8sides 1_whiteLine3.jpg	MediumLong_e19_stereo_44KHz.wav
4	134	4	4	2	I	2	0	52	1	poli_8sides 9_whiteLine3.jpg	MediumLong_e17_cut2_stereo_44KHz.wav
4	135	1	2	0	C	2	1	237	1	poli_8sides 15_whiteLine3.jpg	MediumLong_e19_stereo_44KHz.wav
4	136	3	3	2	I	2	0	17	1	poli_8sides 7_whiteLine3.jpg	Medium_e13_stereo_44KHz.wav
4	137	1	1	1	C	2	0	132	0	poli_8sides 15_whiteLine3.jpg	Medium_e26_stereo_44KHz.wav
4	138	3	4	2	I	2	0	19	0	poli_8sides 7_whiteLine3.jpg	MediumLong_e17_cut2_stereo_44KHz.wav
4	139	2	1	0	C	1	0	35	0	poli_8sides 1_whiteLine3.jpg	Medium_e26_stereo_44KHz.wav
4	140	4	4	2	I	2	0	40	0	poli_8sides 9_whiteLine3.jpg	MediumLong_e17_cut2_stereo_44KHz.wav
4	141	1	2	0	C	1	0	425	0	poli_8sides 15_whiteLine3.jpg	MediumLong_e19_stereo_44KHz.wav
4	142	4	3	2	I	2	0	96	1	poli_8sides 9_whiteLine3.jpg	Medium_e13_stereo_44KHz.wav
4	143	3	3	2	I	2	0	87	0	poli_8sides 7_whiteLine3.jpg	Medium_e13_stereo_44KHz.wav
4	144	2	2	1	C	2	0	664	0	poli_8sides 1_whiteLine3.jpg	MediumLong_e19_stereo_44KHz.wav
4	145	4	3	2	I	2	0	71	0	poli_8sides 9_whiteLine3.jpg	Medium_e13_stereo_44KHz.wav
4	146	2	2	1	C	1	1	121	1	poli_8sides 1_whiteLine3.jpg	MediumLong_e19_stereo_44KHz.wav
4	147	1	2	0	C	1	0	82	0	poli_8sides 15_whiteLine3.jpg	MediumLong_e19_stereo_44KHz.wav
4	148	3	3	2	I	1	0	249	0	poli_8sides 7_whiteLine3.jpg	Medium_e13_stereo_44KHz.wav
4	149	2	1	0	C	1	0	138	0	poli_8sides 1_whiteLine3.jpg	Medium_e26_stereo_44KHz.wav
4	150	3	4	2	I	2	0	75	0	poli_8sides 7_whiteLine3.jpg	MediumLong_e17_cut2_stereo_44KHz.wav
4	151	4	4	2	I	2	0	97	1	poli_8sides 9_whiteLine3.jpg	MediumLong_e17_cut2_stereo_44KHz.wav
4	152	1	1	1	C	2	0	5	0	poli_8sides 15_whiteLine3.jpg	Medium_e26_stereo_44KHz.wav
4	153	4	4	2	I	1	0	114	0	poli_8sides 9_whiteLine3.jpg	MediumLong_e17_cut2_stereo_44KHz.wav
4	154	2	1	0	C	2	1	40	1	poli_8sides 1_whiteLine3.jpg	Medium_e26_stereo_44KHz.wav
4	155	1	2	0	C	2	1	428	1	poli_8sides 15_whiteLine3.jpg	MediumLong_e19_stereo_44KHz.wav
4	156	3	4	2	I	2	0	333	0	poli_8sides 7_whiteLine3.jpg	MediumLong_e17_cut2_stereo_44KHz.wav
4	157	1	1	1	C	2	0	180	0	poli_8sides 15_whiteLine3.jpg	Medium_e26_stereo_44KHz.wav
4	158	4	3	2	I	1	0	36	0	poli_8sides 9_whiteLine3.jpg	Medium_e13_stereo_44KHz.wav
4	159	2	2	1	C	2	0	146	0	poli_8sides 1_whiteLine3.jpg	MediumLong_e19_stereo_44KHz.wav
4	160	3	3	2	I	1	0	116	0	poli_8sides 7_whiteLine3.jpg	Medium_e13_stereo_44KHz.wav
4	161	2	2	1	C	2	0	54	0	poli_8sides 1_whiteLine3.jpg	MediumLong_e19_stereo_44KHz.wav
4	162	3	4	2	I	2	0	521	0	poli_8sides 7_whiteLine3.jpg	MediumLong_e17_cut2_stereo_44KHz.wav
4	163	1	2	0	C	2	1	340	1	poli_8sides 15_whiteLine3.jpg	MediumLong_e19_stereo_44KHz.wav
4	164	4	3	2	I	2	0	132	1	poli_8sides 9_whiteLine3.jpg	Medium_e13_stereo_44KHz.wav
4	165	2	1	0	C	2	1	33	1	poli_8sides 1_whiteLine3.jpg	Medium_e26_stereo_44KHz.wav
4	166	1	1	1	C	2	0	20	0	poli_8sides 15_whiteLine3.jpg	Medium_e26_stereo_44KHz.wav
4	167	3	3	2	I	1	0	92	1	poli_8sides 7_whiteLine3.jpg	Medium_e13_stereo_44KHz.wav
4	168	4	4	2	I	1	0	122	0	poli_8sides 9_whiteLine3.jpg	MediumLong_e17_cut2_stereo_44KHz.wav
4	169	1	1	1	C	2	0	89	0	poli_8sides 15_whiteLine3.jpg	Medium_e26_stereo_44KHz.wav
4	170	4	3	2	I	2	0	38	0	poli_8sides 9_whiteLine3.jpg	Medium_e13_stereo_44KHz.wav
4	171	2	1	0	C	2	1	24	1	poli_8sides 1_whiteLine3.jpg	Medium_e26_stereo_44KHz.wav
4	172	3	4	2	I	2	0	31	0	poli_8sides 7_whiteLine3.jpg	MediumLong_e17_cut2_stereo_44KHz.wav
4	173	2	2	1	C	2	0	127	0	poli_8sides 1_whiteLine3.jpg	MediumLong_e19_stereo_44KHz.wav
4	174	1	2	0	C	2	1	173	1	poli_8sides 15_whiteLine3.jpg	MediumLong_e19_stereo_44KHz.wav
4	175	3	3	2	I	2	0	126	1	poli_8sides 7_whiteLine3.jpg	Medium_e13_stereo_44KHz.wav
4	176	4	4	2	I	2	0	412	0	poli_8sides 9_whiteLine3.jpg	MediumLong_e17_cut2_stereo_44KHz.wav
4	177	2	1	0	C	2	1	263	1	poli_8sides 1_whiteLine3.jpg	Medium_e26_stereo_44KHz.wav
4	178	3	3	2	I	2	0	251	1	poli_8sides 7_whiteLine3.jpg	Medium_e13_stereo_44KHz.wav
4	179	1	2	0	C	2	1	331	1	poli_8sides 15_whiteLine3.jpg	MediumLong_e19_stereo_44KHz.wav
4	180	4	3	2	I	2	0	254	0	poli_8sides 9_whiteLine3.jpg	Medium_e13_stereo_44KHz.wav
4	181	1	1	1	C	1	1	252	1	poli_8sides 15_whiteLine3.jpg	Medium_e26_stereo_44KHz.wav
4	182	3	4	2	I	1	0	241	1	poli_8sides 7_whiteLine3.jpg	MediumLong_e17_cut2_stereo_44KHz.wav
4	183	4	4	2	I	1	0	240	0	poli_8sides 9_whiteLine3.jpg	MediumLong_e17_cut2_stereo_44KHz.wav
4	184	2	2	1	C	2	0	234	0	poli_8sides 1_whiteLine3.jpg	MediumLong_e19_stereo_44KHz.wav
4	185	4	4	2	I	1	0	9	0	poli_8sides 9_whiteLine3.jpg	MediumLong_e17_cut2_stereo_44KHz.wav
4	186	2	2	1	C	2	0	200	0	poli_8sides 1_whiteLine3.jpg	MediumLong_e19_stereo_44KHz.wav
4	187	3	4	2	I	2	0	384	1	poli_8sides 7_whiteLine3.jpg	MediumLong_e17_cut2_stereo_44KHz.wav
4	188	1	1	1	C	2	0	2	0	poli_8sides 15_whiteLine3.jpg	Medium_e26_stereo_44KHz.wav
4	189	4	3	2	I	2	0	267	1	poli_8sides 9_whiteLine3.jpg	Medium_e13_stereo_44KHz.wav
4	190	2	1	0	C	2	1	58	1	poli_8sides 1_whiteLine3.jpg	Medium_e26_stereo_44KHz.wav
4	191	1	2	0	C	2	1	215	1	poli_8sides 15_whiteLine3.jpg	MediumLong_e19_stereo_44KHz.wav
4	192	3	3	2	I	1	0	329	0	poli_8sides 7_whiteLine3.jpg	Medium_e13_stereo_44KHz.wav
4	193	1	2	0	C	1	0	210	0	poli_8sides 15_whiteLine3.jpg	MediumLong_e19_stereo_44KHz.wav
4	194	2	2	1	C	1	1	139	1	poli_8sides 1_whiteLine3.jpg	MediumLong_e19_stereo_44KHz.wav
4	195	4	4	2	I	1	0	40	0	poli_8sides 9_whiteLine3.jpg	MediumLong_e17_cut2_stereo_44KHz.wav
4	196	3	3	2	I	1	0	134	1	poli_8sides 7_whiteLine3.jpg	Medium_e13_stereo_44KHz.wav
4	197	1	1	1	C	2	0	94	0	poli_8sides 15_whiteLine3.jpg	Medium_e26_stereo_44KHz.wav
4	198	4	3	2	I	2	0	145	0	poli_8sides 9_whiteLine3.jpg	Medium_e13_stereo_44KHz.wav
4	199	2	1	0	C	2	1	96	1	poli_8sides 1_whiteLine3.jpg	Medium_e26_stereo_44KHz.wav
4	200	3	4	2	I	2	0	9	1	poli_8sides 7_whiteLine3.jpg	MediumLong_e17_cut2_stereo_44KHz.wav
