block	trial	Vstim	Astim	match	C/I	resp	result	RT	fb	V-file	A-file
RL

0	1	1	2	0	C	0	0	0	0	Ⴢ	cut_ee_stereo_44KHz.wav
0	2	2	3	1	C	1	1	678	1	Ⴉ	cut_eeuw_stereo_44KHz.wav
0	3	1	1	1	C	2	0	967	0	Ⴢ	cut_g_stereo_44KHz.wav
0	4	2	4	0	C	1	0	583	0	Ⴉ	cut_oo_stereo_44KHz.wav
0	5	2	4	0	C	2	1	610	1	Ⴉ	cut_oo_stereo_44KHz.wav
0	6	1	2	0	C	2	1	626	1	Ⴢ	cut_ee_stereo_44KHz.wav
0	7	2	3	1	C	1	1	541	1	Ⴉ	cut_eeuw_stereo_44KHz.wav
0	8	1	1	1	C	2	0	171	0	Ⴢ	cut_g_stereo_44KHz.wav
0	9	1	1	1	C	1	1	156	1	Ⴢ	cut_g_stereo_44KHz.wav
0	10	2	4	0	C	1	0	509	0	Ⴉ	cut_oo_stereo_44KHz.wav
0	11	2	3	1	C	2	0	60	0	Ⴉ	cut_eeuw_stereo_44KHz.wav
0	12	1	2	0	C	2	1	681	1	Ⴢ	cut_ee_stereo_44KHz.wav
0	13	1	2	0	C	2	1	743	1	Ⴢ	cut_ee_stereo_44KHz.wav
0	14	2	3	1	C	1	1	981	1	Ⴉ	cut_eeuw_stereo_44KHz.wav
0	15	1	1	1	C	1	1	889	1	Ⴢ	cut_g_stereo_44KHz.wav
0	16	2	4	0	C	1	0	509	0	Ⴉ	cut_oo_stereo_44KHz.wav
0	17	1	1	1	C	2	0	1110	0	Ⴢ	cut_g_stereo_44KHz.wav
0	18	2	3	1	C	1	1	755	1	Ⴉ	cut_eeuw_stereo_44KHz.wav
0	19	1	2	0	C	2	1	419	1	Ⴢ	cut_ee_stereo_44KHz.wav
0	20	2	4	0	C	2	1	773	1	Ⴉ	cut_oo_stereo_44KHz.wav
0	21	2	4	0	C	2	1	535	1	Ⴉ	cut_oo_stereo_44KHz.wav
0	22	1	2	0	C	2	1	832	1	Ⴢ	cut_ee_stereo_44KHz.wav
0	23	1	1	1	C	2	0	478	0	Ⴢ	cut_g_stereo_44KHz.wav
0	24	2	3	1	C	1	1	960	1	Ⴉ	cut_eeuw_stereo_44KHz.wav
0	25	2	4	0	C	1	0	1140	0	Ⴉ	cut_oo_stereo_44KHz.wav
0	26	1	1	1	C	1	1	1121	1	Ⴢ	cut_g_stereo_44KHz.wav
0	27	2	3	1	C	1	1	827	1	Ⴉ	cut_eeuw_stereo_44KHz.wav
0	28	1	2	0	C	2	1	444	1	Ⴢ	cut_ee_stereo_44KHz.wav
0	29	2	4	0	C	1	0	654	0	Ⴉ	cut_oo_stereo_44KHz.wav
0	30	1	1	1	C	1	1	792	1	Ⴢ	cut_g_stereo_44KHz.wav
avg_resp = 703
1	1	2	1	0	C	1	0	1062	0	Ⴇ	cut_r_stereo_44KHz.wav
1	2	1	1	1	C	2	0	879	0	Ⴜ	cut_r_stereo_44KHz.wav
1	3	3	3	2	I	2	0	1204	0	Ⴁ	cut_j_stereo_44KHz.wav
1	4	4	3	2	I	1	0	842	1	Ⴟ	cut_j_stereo_44KHz.wav
1	5	2	2	1	C	1	1	801	1	Ⴇ	cut_ui_stereo_44KHz.wav
1	6	3	4	2	I	2	0	793	0	Ⴁ	cut_ei_stereo_44KHz.wav
1	7	1	2	0	C	1	0	1074	0	Ⴜ	cut_ui_stereo_44KHz.wav
1	8	4	4	2	I	1	0	768	1	Ⴟ	cut_ei_stereo_44KHz.wav
1	9	3	3	2	I	2	0	919	0	Ⴁ	cut_j_stereo_44KHz.wav
1	10	4	3	2	I	1	0	484	0	Ⴟ	cut_j_stereo_44KHz.wav
1	11	2	1	0	C	2	1	813	1	Ⴇ	cut_r_stereo_44KHz.wav
1	12	1	2	0	C	2	1	496	1	Ⴜ	cut_ui_stereo_44KHz.wav
1	13	2	2	1	C	2	0	207	0	Ⴇ	cut_ui_stereo_44KHz.wav
1	14	3	4	2	I	2	0	881	0	Ⴁ	cut_ei_stereo_44KHz.wav
1	15	1	1	1	C	2	0	996	0	Ⴜ	cut_r_stereo_44KHz.wav
1	16	4	4	2	I	1	0	303	0	Ⴟ	cut_ei_stereo_44KHz.wav
1	17	2	2	1	C	1	1	465	1	Ⴇ	cut_ui_stereo_44KHz.wav
1	18	4	3	2	I	1	0	653	1	Ⴟ	cut_j_stereo_44KHz.wav
1	19	3	3	2	I	2	0	1122	1	Ⴁ	cut_j_stereo_44KHz.wav
1	20	1	1	1	C	2	0	850	0	Ⴜ	cut_r_stereo_44KHz.wav
1	21	2	1	0	C	1	0	467	0	Ⴇ	cut_r_stereo_44KHz.wav
1	22	3	4	2	I	1	0	712	1	Ⴁ	cut_ei_stereo_44KHz.wav
1	23	1	2	0	C	1	0	1254	0	Ⴜ	cut_ui_stereo_44KHz.wav
1	24	4	4	2	I	1	0	664	1	Ⴟ	cut_ei_stereo_44KHz.wav
1	25	2	1	0	C	2	1	786	1	Ⴇ	cut_r_stereo_44KHz.wav
1	26	4	4	2	I	1	0	584	1	Ⴟ	cut_ei_stereo_44KHz.wav
1	27	3	3	2	I	2	0	948	1	Ⴁ	cut_j_stereo_44KHz.wav
1	28	1	1	1	C	2	0	917	0	Ⴜ	cut_r_stereo_44KHz.wav
1	29	3	4	2	I	1	0	840	0	Ⴁ	cut_ei_stereo_44KHz.wav
1	30	4	3	2	I	1	0	600	1	Ⴟ	cut_j_stereo_44KHz.wav
1	31	1	2	0	C	1	0	1166	0	Ⴜ	cut_ui_stereo_44KHz.wav
1	32	2	2	1	C	1	1	1113	1	Ⴇ	cut_ui_stereo_44KHz.wav
1	33	4	4	2	I	1	0	655	0	Ⴟ	cut_ei_stereo_44KHz.wav
1	34	2	1	0	C	2	1	832	1	Ⴇ	cut_r_stereo_44KHz.wav
1	35	1	1	1	C	1	1	826	1	Ⴜ	cut_r_stereo_44KHz.wav
1	36	3	4	2	I	2	0	758	0	Ⴁ	cut_ei_stereo_44KHz.wav
1	37	4	3	2	I	1	0	812	0	Ⴟ	cut_j_stereo_44KHz.wav
1	38	2	2	1	C	1	1	774	1	Ⴇ	cut_ui_stereo_44KHz.wav
1	39	3	3	2	I	2	0	700	0	Ⴁ	cut_j_stereo_44KHz.wav
1	40	1	2	0	C	1	0	222	0	Ⴜ	cut_ui_stereo_44KHz.wav
1	41	2	2	1	C	2	0	362	0	Ⴇ	cut_ui_stereo_44KHz.wav
1	42	3	3	2	I	2	0	777	0	Ⴁ	cut_j_stereo_44KHz.wav
1	43	4	4	2	I	1	0	480	1	Ⴟ	cut_ei_stereo_44KHz.wav
1	44	1	2	0	C	1	0	248	0	Ⴜ	cut_ui_stereo_44KHz.wav
1	45	3	4	2	I	2	0	450	0	Ⴁ	cut_ei_stereo_44KHz.wav
1	46	1	1	1	C	2	0	852	0	Ⴜ	cut_r_stereo_44KHz.wav
1	47	4	3	2	I	2	0	735	1	Ⴟ	cut_j_stereo_44KHz.wav
1	48	2	1	0	C	1	0	578	0	Ⴇ	cut_r_stereo_44KHz.wav
1	49	4	4	2	I	1	0	637	0	Ⴟ	cut_ei_stereo_44KHz.wav
1	50	1	1	1	C	1	1	900	1	Ⴜ	cut_r_stereo_44KHz.wav
1	51	2	1	0	C	2	1	443	1	Ⴇ	cut_r_stereo_44KHz.wav
1	52	3	3	2	I	2	0	533	1	Ⴁ	cut_j_stereo_44KHz.wav
1	53	2	2	1	C	1	1	955	1	Ⴇ	cut_ui_stereo_44KHz.wav
1	54	1	2	0	C	2	1	1157	1	Ⴜ	cut_ui_stereo_44KHz.wav
1	55	4	3	2	I	2	0	914	1	Ⴟ	cut_j_stereo_44KHz.wav
1	56	3	4	2	I	2	0	941	1	Ⴁ	cut_ei_stereo_44KHz.wav
1	57	1	1	1	C	1	1	949	1	Ⴜ	cut_r_stereo_44KHz.wav
1	58	2	2	1	C	1	1	532	1	Ⴇ	cut_ui_stereo_44KHz.wav
1	59	3	4	2	I	2	0	724	1	Ⴁ	cut_ei_stereo_44KHz.wav
1	60	4	4	2	I	2	0	759	0	Ⴟ	cut_ei_stereo_44KHz.wav
1	61	2	1	0	C	2	1	731	1	Ⴇ	cut_r_stereo_44KHz.wav
1	62	1	2	0	C	1	0	747	0	Ⴜ	cut_ui_stereo_44KHz.wav
1	63	4	3	2	I	2	0	741	0	Ⴟ	cut_j_stereo_44KHz.wav
1	64	3	3	2	I	2	0	473	1	Ⴁ	cut_j_stereo_44KHz.wav
1	65	2	2	1	C	1	1	781	1	Ⴇ	cut_ui_stereo_44KHz.wav
1	66	4	3	2	I	1	0	657	0	Ⴟ	cut_j_stereo_44KHz.wav
1	67	3	4	2	I	2	0	947	0	Ⴁ	cut_ei_stereo_44KHz.wav
1	68	1	1	1	C	1	1	898	1	Ⴜ	cut_r_stereo_44KHz.wav
1	69	2	1	0	C	1	0	598	0	Ⴇ	cut_r_stereo_44KHz.wav
1	70	1	2	0	C	2	1	479	1	Ⴜ	cut_ui_stereo_44KHz.wav
1	71	3	3	2	I	2	0	608	0	Ⴁ	cut_j_stereo_44KHz.wav
1	72	4	4	2	I	1	0	565	0	Ⴟ	cut_ei_stereo_44KHz.wav
1	73	1	2	0	C	1	0	623	0	Ⴜ	cut_ui_stereo_44KHz.wav
1	74	3	3	2	I	2	0	654	0	Ⴁ	cut_j_stereo_44KHz.wav
1	75	4	3	2	I	2	0	441	0	Ⴟ	cut_j_stereo_44KHz.wav
1	76	2	2	1	C	1	1	884	1	Ⴇ	cut_ui_stereo_44KHz.wav
1	77	4	4	2	I	2	0	803	1	Ⴟ	cut_ei_stereo_44KHz.wav
1	78	1	1	1	C	1	1	935	1	Ⴜ	cut_r_stereo_44KHz.wav
1	79	2	1	0	C	2	1	481	1	Ⴇ	cut_r_stereo_44KHz.wav
1	80	3	4	2	I	2	0	543	0	Ⴁ	cut_ei_stereo_44KHz.wav
1	81	4	3	2	I	1	0	429	1	Ⴟ	cut_j_stereo_44KHz.wav
1	82	2	2	1	C	1	1	787	1	Ⴇ	cut_ui_stereo_44KHz.wav
1	83	3	4	2	I	2	0	640	1	Ⴁ	cut_ei_stereo_44KHz.wav
1	84	1	1	1	C	1	1	747	1	Ⴜ	cut_r_stereo_44KHz.wav
1	85	3	3	2	I	2	0	637	0	Ⴁ	cut_j_stereo_44KHz.wav
1	86	2	1	0	C	2	1	827	1	Ⴇ	cut_r_stereo_44KHz.wav
1	87	4	4	2	I	2	0	679	0	Ⴟ	cut_ei_stereo_44KHz.wav
1	88	1	2	0	C	1	0	503	0	Ⴜ	cut_ui_stereo_44KHz.wav
1	89	4	4	2	I	2	0	651	0	Ⴟ	cut_ei_stereo_44KHz.wav
1	90	1	2	0	C	2	1	538	1	Ⴜ	cut_ui_stereo_44KHz.wav
1	91	3	3	2	I	2	0	687	0	Ⴁ	cut_j_stereo_44KHz.wav
1	92	2	2	1	C	1	1	860	1	Ⴇ	cut_ui_stereo_44KHz.wav
1	93	1	1	1	C	1	1	1331	1	Ⴜ	cut_r_stereo_44KHz.wav
1	94	2	1	0	C	1	0	831	0	Ⴇ	cut_r_stereo_44KHz.wav
1	95	4	3	2	I	1	0	586	0	Ⴟ	cut_j_stereo_44KHz.wav
1	96	3	4	2	I	2	0	95	0	Ⴁ	cut_ei_stereo_44KHz.wav
1	97	2	2	1	C	1	1	949	1	Ⴇ	cut_ui_stereo_44KHz.wav
1	98	3	4	2	I	2	0	731	0	Ⴁ	cut_ei_stereo_44KHz.wav
1	99	1	1	1	C	1	1	517	1	Ⴜ	cut_r_stereo_44KHz.wav
1	100	4	3	2	I	1	0	831	1	Ⴟ	cut_j_stereo_44KHz.wav
1	101	2	1	0	C	2	1	892	1	Ⴇ	cut_r_stereo_44KHz.wav
1	102	4	4	2	I	2	0	837	1	Ⴟ	cut_ei_stereo_44KHz.wav
1	103	1	2	0	C	2	1	659	1	Ⴜ	cut_ui_stereo_44KHz.wav
1	104	3	3	2	I	1	0	757	1	Ⴁ	cut_j_stereo_44KHz.wav
1	105	1	2	0	C	2	1	683	1	Ⴜ	cut_ui_stereo_44KHz.wav
1	106	4	4	2	I	2	0	838	1	Ⴟ	cut_ei_stereo_44KHz.wav
1	107	2	2	1	C	1	1	615	1	Ⴇ	cut_ui_stereo_44KHz.wav
1	108	3	3	2	I	1	0	795	1	Ⴁ	cut_j_stereo_44KHz.wav
1	109	4	3	2	I	2	0	798	1	Ⴟ	cut_j_stereo_44KHz.wav
1	110	3	4	2	I	2	0	630	1	Ⴁ	cut_ei_stereo_44KHz.wav
1	111	1	1	1	C	1	1	538	1	Ⴜ	cut_r_stereo_44KHz.wav
1	112	2	1	0	C	1	0	498	0	Ⴇ	cut_r_stereo_44KHz.wav
1	113	3	4	2	I	2	0	688	0	Ⴁ	cut_ei_stereo_44KHz.wav
1	114	1	1	1	C	1	1	731	1	Ⴜ	cut_r_stereo_44KHz.wav
1	115	4	4	2	I	2	0	661	0	Ⴟ	cut_ei_stereo_44KHz.wav
1	116	2	2	1	C	1	1	955	1	Ⴇ	cut_ui_stereo_44KHz.wav
1	117	3	3	2	I	2	0	649	0	Ⴁ	cut_j_stereo_44KHz.wav
1	118	1	2	0	C	1	0	798	0	Ⴜ	cut_ui_stereo_44KHz.wav
1	119	2	1	0	C	1	0	703	0	Ⴇ	cut_r_stereo_44KHz.wav
1	120	4	3	2	I	2	0	814	1	Ⴟ	cut_j_stereo_44KHz.wav
1	121	2	2	1	C	1	1	917	1	Ⴇ	cut_ui_stereo_44KHz.wav
1	122	4	3	2	I	2	0	746	0	Ⴟ	cut_j_stereo_44KHz.wav
1	123	3	4	2	I	1	0	868	0	Ⴁ	cut_ei_stereo_44KHz.wav
1	124	1	2	0	C	2	1	982	1	Ⴜ	cut_ui_stereo_44KHz.wav
1	125	4	4	2	I	1	0	1037	0	Ⴟ	cut_ei_stereo_44KHz.wav
1	126	3	3	2	I	2	0	684	0	Ⴁ	cut_j_stereo_44KHz.wav
1	127	2	1	0	C	2	1	399	1	Ⴇ	cut_r_stereo_44KHz.wav
1	128	1	1	1	C	1	1	738	1	Ⴜ	cut_r_stereo_44KHz.wav
1	129	2	2	1	C	2	0	1390	0	Ⴇ	cut_ui_stereo_44KHz.wav
1	130	1	2	0	C	1	0	717	0	Ⴜ	cut_ui_stereo_44KHz.wav
1	131	4	4	2	I	2	0	247	1	Ⴟ	cut_ei_stereo_44KHz.wav
1	132	3	3	2	I	1	0	610	1	Ⴁ	cut_j_stereo_44KHz.wav
1	133	1	1	1	C	1	1	1047	1	Ⴜ	cut_r_stereo_44KHz.wav
1	134	2	1	0	C	2	1	782	1	Ⴇ	cut_r_stereo_44KHz.wav
1	135	4	3	2	I	2	0	837	1	Ⴟ	cut_j_stereo_44KHz.wav
1	136	3	4	2	I	1	0	794	1	Ⴁ	cut_ei_stereo_44KHz.wav
1	137	4	3	2	I	2	0	729	0	Ⴟ	cut_j_stereo_44KHz.wav
1	138	3	4	2	I	1	0	275	1	Ⴁ	cut_ei_stereo_44KHz.wav
1	139	1	2	0	C	2	1	629	1	Ⴜ	cut_ui_stereo_44KHz.wav
1	140	2	2	1	C	1	1	967	1	Ⴇ	cut_ui_stereo_44KHz.wav
1	141	4	4	2	I	1	0	762	1	Ⴟ	cut_ei_stereo_44KHz.wav
1	142	2	1	0	C	2	1	433	1	Ⴇ	cut_r_stereo_44KHz.wav
1	143	3	3	2	I	1	0	658	1	Ⴁ	cut_j_stereo_44KHz.wav
1	144	1	1	1	C	2	0	703	0	Ⴜ	cut_r_stereo_44KHz.wav
1	145	4	3	2	I	1	0	413	1	Ⴟ	cut_j_stereo_44KHz.wav
1	146	3	3	2	I	1	0	777	1	Ⴁ	cut_j_stereo_44KHz.wav
1	147	1	1	1	C	1	1	783	1	Ⴜ	cut_r_stereo_44KHz.wav
1	148	2	1	0	C	2	1	585	1	Ⴇ	cut_r_stereo_44KHz.wav
1	149	3	4	2	I	1	0	522	1	Ⴁ	cut_ei_stereo_44KHz.wav
1	150	1	2	0	C	2	1	1145	1	Ⴜ	cut_ui_stereo_44KHz.wav
1	151	4	4	2	I	1	0	1056	1	Ⴟ	cut_ei_stereo_44KHz.wav
1	152	2	2	1	C	1	1	1170	1	Ⴇ	cut_ui_stereo_44KHz.wav
1	153	3	4	2	I	2	0	1433	1	Ⴁ	cut_ei_stereo_44KHz.wav
1	154	2	2	1	C	2	0	512	0	Ⴇ	cut_ui_stereo_44KHz.wav
1	155	1	2	0	C	2	1	811	1	Ⴜ	cut_ui_stereo_44KHz.wav
1	156	4	3	2	I	1	0	527	0	Ⴟ	cut_j_stereo_44KHz.wav
1	157	1	1	1	C	2	0	827	0	Ⴜ	cut_r_stereo_44KHz.wav
1	158	2	1	0	C	2	1	753	1	Ⴇ	cut_r_stereo_44KHz.wav
1	159	4	4	2	I	1	0	684	0	Ⴟ	cut_ei_stereo_44KHz.wav
1	160	3	3	2	I	1	0	1375	1	Ⴁ	cut_j_stereo_44KHz.wav
1	161	2	1	0	C	2	1	727	1	Ⴇ	cut_r_stereo_44KHz.wav
1	162	4	3	2	I	2	0	714	1	Ⴟ	cut_j_stereo_44KHz.wav
1	163	3	3	2	I	1	0	708	0	Ⴁ	cut_j_stereo_44KHz.wav
1	164	1	2	0	C	2	1	636	1	Ⴜ	cut_ui_stereo_44KHz.wav
1	165	4	4	2	I	1	0	707	0	Ⴟ	cut_ei_stereo_44KHz.wav
1	166	1	1	1	C	2	0	701	0	Ⴜ	cut_r_stereo_44KHz.wav
1	167	3	4	2	I	1	0	659	1	Ⴁ	cut_ei_stereo_44KHz.wav
1	168	2	2	1	C	2	0	1303	0	Ⴇ	cut_ui_stereo_44KHz.wav
1	169	4	3	2	I	2	0	968	1	Ⴟ	cut_j_stereo_44KHz.wav
1	170	1	2	0	C	2	1	1046	1	Ⴜ	cut_ui_stereo_44KHz.wav
1	171	2	1	0	C	2	1	1080	1	Ⴇ	cut_r_stereo_44KHz.wav
1	172	3	3	2	I	1	0	876	0	Ⴁ	cut_j_stereo_44KHz.wav
1	173	2	2	1	C	2	0	788	0	Ⴇ	cut_ui_stereo_44KHz.wav
1	174	3	4	2	I	1	0	708	1	Ⴁ	cut_ei_stereo_44KHz.wav
1	175	1	1	1	C	1	1	1168	1	Ⴜ	cut_r_stereo_44KHz.wav
1	176	4	4	2	I	1	0	965	0	Ⴟ	cut_ei_stereo_44KHz.wav
1	177	3	3	2	I	2	0	936	1	Ⴁ	cut_j_stereo_44KHz.wav
1	178	4	3	2	I	2	0	748	0	Ⴟ	cut_j_stereo_44KHz.wav
1	179	1	2	0	C	2	1	996	1	Ⴜ	cut_ui_stereo_44KHz.wav
1	180	2	2	1	C	1	1	966	1	Ⴇ	cut_ui_stereo_44KHz.wav
1	181	4	4	2	I	1	0	835	1	Ⴟ	cut_ei_stereo_44KHz.wav
1	182	2	1	0	C	2	1	782	1	Ⴇ	cut_r_stereo_44KHz.wav
1	183	3	4	2	I	2	0	849	1	Ⴁ	cut_ei_stereo_44KHz.wav
1	184	1	1	1	C	1	1	777	1	Ⴜ	cut_r_stereo_44KHz.wav
1	185	4	3	2	I	2	0	735	0	Ⴟ	cut_j_stereo_44KHz.wav
1	186	3	3	2	I	1	0	831	0	Ⴁ	cut_j_stereo_44KHz.wav
1	187	2	2	1	C	1	1	1055	1	Ⴇ	cut_ui_stereo_44KHz.wav
1	188	1	2	0	C	2	1	904	1	Ⴜ	cut_ui_stereo_44KHz.wav
1	189	4	4	2	I	1	0	596	0	Ⴟ	cut_ei_stereo_44KHz.wav
1	190	3	4	2	I	2	0	293	1	Ⴁ	cut_ei_stereo_44KHz.wav
1	191	1	1	1	C	2	0	382	0	Ⴜ	cut_r_stereo_44KHz.wav
1	192	2	1	0	C	2	1	808	1	Ⴇ	cut_r_stereo_44KHz.wav
1	193	4	4	2	I	1	0	659	0	Ⴟ	cut_ei_stereo_44KHz.wav
1	194	1	1	1	C	2	0	471	0	Ⴜ	cut_r_stereo_44KHz.wav
1	195	3	4	2	I	2	0	924	0	Ⴁ	cut_ei_stereo_44KHz.wav
1	196	2	2	1	C	1	1	1285	1	Ⴇ	cut_ui_stereo_44KHz.wav
1	197	4	3	2	I	1	0	687	1	Ⴟ	cut_j_stereo_44KHz.wav
1	198	2	1	0	C	2	1	853	1	Ⴇ	cut_r_stereo_44KHz.wav
1	199	1	2	0	C	2	1	851	1	Ⴜ	cut_ui_stereo_44KHz.wav
1	200	3	3	2	I	1	0	697	1	Ⴁ	cut_j_stereo_44KHz.wav
2	1	3	3	2	I	2	0	1556	1	Ⴃ	cut_oei_stereo_44KHz.wav
2	2	4	3	2	I	1	0	852	1	Ⴊ	cut_oei_stereo_44KHz.wav
2	3	1	2	0	C	2	1	1051	1	Ⴂ	cut_f_stereo_44KHz.wav
2	4	2	1	0	C	1	0	940	0	Ⴡ	cut_n_stereo_44KHz.wav
2	5	4	4	2	I	2	0	994	0	Ⴊ	cut_s_stereo_44KHz.wav
2	6	1	1	1	C	1	1	578	1	Ⴂ	cut_n_stereo_44KHz.wav
2	7	2	2	1	C	2	0	824	0	Ⴡ	cut_f_stereo_44KHz.wav
2	8	3	4	2	I	1	0	172	1	Ⴃ	cut_s_stereo_44KHz.wav
2	9	2	1	0	C	1	0	847	0	Ⴡ	cut_n_stereo_44KHz.wav
2	10	4	4	2	I	2	0	460	1	Ⴊ	cut_s_stereo_44KHz.wav
2	11	3	4	2	I	2	0	358	0	Ⴃ	cut_s_stereo_44KHz.wav
2	12	1	2	0	C	1	0	572	0	Ⴂ	cut_f_stereo_44KHz.wav
2	13	2	2	1	C	2	0	794	0	Ⴡ	cut_f_stereo_44KHz.wav
2	14	1	1	1	C	2	0	831	0	Ⴂ	cut_n_stereo_44KHz.wav
2	15	4	3	2	I	2	0	870	0	Ⴊ	cut_oei_stereo_44KHz.wav
2	16	3	3	2	I	2	0	648	1	Ⴃ	cut_oei_stereo_44KHz.wav
2	17	4	4	2	I	1	0	430	1	Ⴊ	cut_s_stereo_44KHz.wav
2	18	2	2	1	C	2	0	634	0	Ⴡ	cut_f_stereo_44KHz.wav
2	19	1	1	1	C	2	0	233	0	Ⴂ	cut_n_stereo_44KHz.wav
2	20	3	3	2	I	2	0	672	1	Ⴃ	cut_oei_stereo_44KHz.wav
2	21	4	3	2	I	2	0	536	0	Ⴊ	cut_oei_stereo_44KHz.wav
2	22	1	2	0	C	1	0	327	0	Ⴂ	cut_f_stereo_44KHz.wav
2	23	3	4	2	I	2	0	761	1	Ⴃ	cut_s_stereo_44KHz.wav
2	24	2	1	0	C	1	0	647	0	Ⴡ	cut_n_stereo_44KHz.wav
2	25	3	4	2	I	2	0	242	0	Ⴃ	cut_s_stereo_44KHz.wav
2	26	4	4	2	I	1	0	292	0	Ⴊ	cut_s_stereo_44KHz.wav
2	27	1	1	1	C	2	0	159	0	Ⴂ	cut_n_stereo_44KHz.wav
2	28	2	2	1	C	2	0	161	0	Ⴡ	cut_f_stereo_44KHz.wav
2	29	4	3	2	I	2	0	349	1	Ⴊ	cut_oei_stereo_44KHz.wav
2	30	1	2	0	C	2	1	170	1	Ⴂ	cut_f_stereo_44KHz.wav
2	31	2	1	0	C	2	1	361	1	Ⴡ	cut_n_stereo_44KHz.wav
2	32	3	3	2	I	2	0	174	1	Ⴃ	cut_oei_stereo_44KHz.wav
2	33	2	2	1	C	2	0	384	0	Ⴡ	cut_f_stereo_44KHz.wav
2	34	3	3	2	I	1	0	196	0	Ⴃ	cut_oei_stereo_44KHz.wav
2	35	4	3	2	I	2	0	47	0	Ⴊ	cut_oei_stereo_44KHz.wav
2	36	1	2	0	C	1	0	204	0	Ⴂ	cut_f_stereo_44KHz.wav
2	37	4	4	2	I	2	0	190	1	Ⴊ	cut_s_stereo_44KHz.wav
2	38	3	4	2	I	2	0	226	0	Ⴃ	cut_s_stereo_44KHz.wav
2	39	1	1	1	C	1	1	434	1	Ⴂ	cut_n_stereo_44KHz.wav
2	40	2	1	0	C	1	0	340	0	Ⴡ	cut_n_stereo_44KHz.wav
2	41	4	4	2	I	2	0	184	1	Ⴊ	cut_s_stereo_44KHz.wav
2	42	3	3	2	I	1	0	498	0	Ⴃ	cut_oei_stereo_44KHz.wav
2	43	2	1	0	C	2	1	546	1	Ⴡ	cut_n_stereo_44KHz.wav
2	44	1	2	0	C	2	1	480	1	Ⴂ	cut_f_stereo_44KHz.wav
2	45	3	4	2	I	2	0	334	0	Ⴃ	cut_s_stereo_44KHz.wav
2	46	1	1	1	C	2	0	852	0	Ⴂ	cut_n_stereo_44KHz.wav
2	47	4	3	2	I	2	0	805	0	Ⴊ	cut_oei_stereo_44KHz.wav
2	48	2	2	1	C	2	0	609	0	Ⴡ	cut_f_stereo_44KHz.wav
2	49	4	4	2	I	2	0	481	1	Ⴊ	cut_s_stereo_44KHz.wav
2	50	2	2	1	C	2	0	692	0	Ⴡ	cut_f_stereo_44KHz.wav
2	51	1	1	1	C	2	0	795	0	Ⴂ	cut_n_stereo_44KHz.wav
2	52	3	4	2	I	1	0	1077	0	Ⴃ	cut_s_stereo_44KHz.wav
2	53	1	2	0	C	2	1	727	1	Ⴂ	cut_f_stereo_44KHz.wav
2	54	2	1	0	C	1	0	722	0	Ⴡ	cut_n_stereo_44KHz.wav
2	55	3	3	2	I	2	0	581	1	Ⴃ	cut_oei_stereo_44KHz.wav
2	56	4	3	2	I	1	0	605	0	Ⴊ	cut_oei_stereo_44KHz.wav
2	57	2	1	0	C	1	0	831	0	Ⴡ	cut_n_stereo_44KHz.wav
2	58	4	3	2	I	1	0	934	0	Ⴊ	cut_oei_stereo_44KHz.wav
2	59	3	3	2	I	2	0	516	0	Ⴃ	cut_oei_stereo_44KHz.wav
2	60	1	1	1	C	1	1	594	1	Ⴂ	cut_n_stereo_44KHz.wav
2	61	4	4	2	I	1	0	408	1	Ⴊ	cut_s_stereo_44KHz.wav
2	62	1	2	0	C	2	1	558	1	Ⴂ	cut_f_stereo_44KHz.wav
2	63	3	4	2	I	2	0	1138	0	Ⴃ	cut_s_stereo_44KHz.wav
2	64	2	2	1	C	1	1	460	1	Ⴡ	cut_f_stereo_44KHz.wav
2	65	1	1	1	C	1	1	232	1	Ⴂ	cut_n_stereo_44KHz.wav
2	66	3	3	2	I	1	0	212	1	Ⴃ	cut_oei_stereo_44KHz.wav
2	67	4	3	2	I	1	0	67	0	Ⴊ	cut_oei_stereo_44KHz.wav
2	68	2	1	0	C	2	1	288	1	Ⴡ	cut_n_stereo_44KHz.wav
2	69	4	4	2	I	2	0	178	1	Ⴊ	cut_s_stereo_44KHz.wav
2	70	2	2	1	C	2	0	78	0	Ⴡ	cut_f_stereo_44KHz.wav
2	71	3	4	2	I	1	0	109	1	Ⴃ	cut_s_stereo_44KHz.wav
2	72	1	2	0	C	1	0	142	0	Ⴂ	cut_f_stereo_44KHz.wav
2	73	4	3	2	I	2	0	48	1	Ⴊ	cut_oei_stereo_44KHz.wav
2	74	3	4	2	I	2	0	179	1	Ⴃ	cut_s_stereo_44KHz.wav
2	75	1	1	1	C	2	0	70	0	Ⴂ	cut_n_stereo_44KHz.wav
2	76	2	1	0	C	1	0	106	0	Ⴡ	cut_n_stereo_44KHz.wav
2	77	4	4	2	I	2	0	241	0	Ⴊ	cut_s_stereo_44KHz.wav
2	78	3	3	2	I	2	0	70	0	Ⴃ	cut_oei_stereo_44KHz.wav
2	79	2	2	1	C	2	0	356	0	Ⴡ	cut_f_stereo_44KHz.wav
2	80	1	2	0	C	1	0	157	0	Ⴂ	cut_f_stereo_44KHz.wav
2	81	4	3	2	I	1	0	80	1	Ⴊ	cut_oei_stereo_44KHz.wav
2	82	1	1	1	C	1	1	87	1	Ⴂ	cut_n_stereo_44KHz.wav
2	83	3	3	2	I	1	0	605	0	Ⴃ	cut_oei_stereo_44KHz.wav
2	84	2	1	0	C	2	1	171	1	Ⴡ	cut_n_stereo_44KHz.wav
2	85	3	4	2	I	2	0	70	0	Ⴃ	cut_s_stereo_44KHz.wav
2	86	2	2	1	C	1	1	147	1	Ⴡ	cut_f_stereo_44KHz.wav
2	87	4	4	2	I	1	0	217	0	Ⴊ	cut_s_stereo_44KHz.wav
2	88	1	2	0	C	1	0	107	0	Ⴂ	cut_f_stereo_44KHz.wav
2	89	3	3	2	I	2	0	174	1	Ⴃ	cut_oei_stereo_44KHz.wav
2	90	2	1	0	C	2	1	148	1	Ⴡ	cut_n_stereo_44KHz.wav
2	91	4	3	2	I	2	0	289	0	Ⴊ	cut_oei_stereo_44KHz.wav
2	92	1	1	1	C	2	0	6	0	Ⴂ	cut_n_stereo_44KHz.wav
2	93	2	2	1	C	1	1	259	1	Ⴡ	cut_f_stereo_44KHz.wav
2	94	4	4	2	I	1	0	242	0	Ⴊ	cut_s_stereo_44KHz.wav
2	95	3	4	2	I	2	0	511	0	Ⴃ	cut_s_stereo_44KHz.wav
2	96	1	2	0	C	1	0	205	0	Ⴂ	cut_f_stereo_44KHz.wav
2	97	2	1	0	C	2	1	57	1	Ⴡ	cut_n_stereo_44KHz.wav
2	98	3	4	2	I	2	0	9	1	Ⴃ	cut_s_stereo_44KHz.wav
2	99	1	2	0	C	2	1	60	1	Ⴂ	cut_f_stereo_44KHz.wav
2	100	4	4	2	I	2	0	198	1	Ⴊ	cut_s_stereo_44KHz.wav
2	101	1	1	1	C	2	0	273	0	Ⴂ	cut_n_stereo_44KHz.wav
2	102	3	3	2	I	1	0	149	1	Ⴃ	cut_oei_stereo_44KHz.wav
2	103	2	2	1	C	1	1	200	1	Ⴡ	cut_f_stereo_44KHz.wav
2	104	4	3	2	I	1	0	81	1	Ⴊ	cut_oei_stereo_44KHz.wav
2	105	3	4	2	I	1	0	92	0	Ⴃ	cut_s_stereo_44KHz.wav
2	106	1	1	1	C	1	1	103	1	Ⴂ	cut_n_stereo_44KHz.wav
2	107	4	3	2	I	1	0	55	0	Ⴊ	cut_oei_stereo_44KHz.wav
2	108	2	1	0	C	2	1	118	1	Ⴡ	cut_n_stereo_44KHz.wav
2	109	1	2	0	C	2	1	28	1	Ⴂ	cut_f_stereo_44KHz.wav
2	110	4	4	2	I	2	0	87	0	Ⴊ	cut_s_stereo_44KHz.wav
2	111	3	3	2	I	1	0	129	1	Ⴃ	cut_oei_stereo_44KHz.wav
2	112	2	2	1	C	1	1	64	1	Ⴡ	cut_f_stereo_44KHz.wav
2	113	3	3	2	I	1	0	232	0	Ⴃ	cut_oei_stereo_44KHz.wav
2	114	1	1	1	C	2	0	486	0	Ⴂ	cut_n_stereo_44KHz.wav
2	115	2	2	1	C	1	1	195	1	Ⴡ	cut_f_stereo_44KHz.wav
2	116	4	3	2	I	2	0	417	0	Ⴊ	cut_oei_stereo_44KHz.wav
2	117	1	2	0	C	1	0	94	0	Ⴂ	cut_f_stereo_44KHz.wav
2	118	2	1	0	C	2	1	205	1	Ⴡ	cut_n_stereo_44KHz.wav
2	119	3	4	2	I	2	0	220	1	Ⴃ	cut_s_stereo_44KHz.wav
2	120	4	4	2	I	1	0	163	1	Ⴊ	cut_s_stereo_44KHz.wav
2	121	3	4	2	I	2	0	123	1	Ⴃ	cut_s_stereo_44KHz.wav
2	122	1	1	1	C	1	1	344	1	Ⴂ	cut_n_stereo_44KHz.wav
2	123	2	2	1	C	1	1	112	1	Ⴡ	cut_f_stereo_44KHz.wav
2	124	4	4	2	I	1	0	408	1	Ⴊ	cut_s_stereo_44KHz.wav
2	125	3	3	2	I	2	0	110	0	Ⴃ	cut_oei_stereo_44KHz.wav
2	126	4	3	2	I	1	0	90	1	Ⴊ	cut_oei_stereo_44KHz.wav
2	127	2	1	0	C	1	0	266	0	Ⴡ	cut_n_stereo_44KHz.wav
2	128	1	2	0	C	2	1	115	1	Ⴂ	cut_f_stereo_44KHz.wav
2	129	4	3	2	I	2	0	374	0	Ⴊ	cut_oei_stereo_44KHz.wav
2	130	1	2	0	C	1	0	245	0	Ⴂ	cut_f_stereo_44KHz.wav
2	131	3	4	2	I	1	0	185	1	Ⴃ	cut_s_stereo_44KHz.wav
2	132	2	1	0	C	2	1	197	1	Ⴡ	cut_n_stereo_44KHz.wav
2	133	4	4	2	I	2	0	162	1	Ⴊ	cut_s_stereo_44KHz.wav
2	134	2	2	1	C	2	0	217	0	Ⴡ	cut_f_stereo_44KHz.wav
2	135	3	3	2	I	2	0	164	1	Ⴃ	cut_oei_stereo_44KHz.wav
2	136	1	1	1	C	2	0	191	0	Ⴂ	cut_n_stereo_44KHz.wav
2	137	3	3	2	I	1	0	223	1	Ⴃ	cut_oei_stereo_44KHz.wav
2	138	2	1	0	C	1	0	221	0	Ⴡ	cut_n_stereo_44KHz.wav
2	139	4	3	2	I	1	0	258	1	Ⴊ	cut_oei_stereo_44KHz.wav
2	140	1	1	1	C	1	1	395	1	Ⴂ	cut_n_stereo_44KHz.wav
2	141	4	4	2	I	2	0	118	0	Ⴊ	cut_s_stereo_44KHz.wav
2	142	3	4	2	I	2	0	157	1	Ⴃ	cut_s_stereo_44KHz.wav
2	143	1	2	0	C	2	1	31	1	Ⴂ	cut_f_stereo_44KHz.wav
2	144	2	2	1	C	2	0	64	0	Ⴡ	cut_f_stereo_44KHz.wav
2	145	4	3	2	I	1	0	35	1	Ⴊ	cut_oei_stereo_44KHz.wav
2	146	3	4	2	I	1	0	593	1	Ⴃ	cut_s_stereo_44KHz.wav
2	147	2	2	1	C	1	1	183	1	Ⴡ	cut_f_stereo_44KHz.wav
2	148	1	2	0	C	1	0	168	0	Ⴂ	cut_f_stereo_44KHz.wav
2	149	3	3	2	I	2	0	60	0	Ⴃ	cut_oei_stereo_44KHz.wav
2	150	4	4	2	I	1	0	232	1	Ⴊ	cut_s_stereo_44KHz.wav
2	151	1	1	1	C	1	1	106	1	Ⴂ	cut_n_stereo_44KHz.wav
2	152	2	1	0	C	2	1	510	1	Ⴡ	cut_n_stereo_44KHz.wav
2	153	3	4	2	I	2	0	262	0	Ⴃ	cut_s_stereo_44KHz.wav
2	154	4	4	2	I	1	0	414	0	Ⴊ	cut_s_stereo_44KHz.wav
2	155	1	1	1	C	2	0	184	0	Ⴂ	cut_n_stereo_44KHz.wav
2	156	2	2	1	C	1	1	169	1	Ⴡ	cut_f_stereo_44KHz.wav
2	157	1	2	0	C	1	0	180	0	Ⴂ	cut_f_stereo_44KHz.wav
2	158	3	3	2	I	1	0	388	1	Ⴃ	cut_oei_stereo_44KHz.wav
2	159	4	3	2	I	2	0	271	1	Ⴊ	cut_oei_stereo_44KHz.wav
2	160	2	1	0	C	2	1	90	1	Ⴡ	cut_n_stereo_44KHz.wav
2	161	3	3	2	I	2	0	80	0	Ⴃ	cut_oei_stereo_44KHz.wav
2	162	1	2	0	C	1	0	77	0	Ⴂ	cut_f_stereo_44KHz.wav
2	163	4	3	2	I	2	0	33	0	Ⴊ	cut_oei_stereo_44KHz.wav
2	164	2	2	1	C	1	1	360	1	Ⴡ	cut_f_stereo_44KHz.wav
2	165	1	1	1	C	1	1	102	1	Ⴂ	cut_n_stereo_44KHz.wav
2	166	3	4	2	I	1	0	260	0	Ⴃ	cut_s_stereo_44KHz.wav
2	167	4	4	2	I	2	0	133	0	Ⴊ	cut_s_stereo_44KHz.wav
2	168	2	1	0	C	2	1	207	1	Ⴡ	cut_n_stereo_44KHz.wav
2	169	3	3	2	I	2	0	163	0	Ⴃ	cut_oei_stereo_44KHz.wav
2	170	4	4	2	I	1	0	55	1	Ⴊ	cut_s_stereo_44KHz.wav
2	171	2	1	0	C	1	0	57	0	Ⴡ	cut_n_stereo_44KHz.wav
2	172	1	2	0	C	2	1	122	1	Ⴂ	cut_f_stereo_44KHz.wav
2	173	3	4	2	I	2	0	235	1	Ⴃ	cut_s_stereo_44KHz.wav
2	174	2	2	1	C	2	0	124	0	Ⴡ	cut_f_stereo_44KHz.wav
2	175	1	1	1	C	2	0	162	0	Ⴂ	cut_n_stereo_44KHz.wav
2	176	4	3	2	I	1	0	281	1	Ⴊ	cut_oei_stereo_44KHz.wav
2	177	3	4	2	I	1	0	179	1	Ⴃ	cut_s_stereo_44KHz.wav
2	178	4	4	2	I	1	0	498	0	Ⴊ	cut_s_stereo_44KHz.wav
2	179	1	2	0	C	2	1	401	1	Ⴂ	cut_f_stereo_44KHz.wav
2	180	2	2	1	C	2	0	533	0	Ⴡ	cut_f_stereo_44KHz.wav
2	181	4	3	2	I	2	0	29	0	Ⴊ	cut_oei_stereo_44KHz.wav
2	182	3	3	2	I	1	0	218	0	Ⴃ	cut_oei_stereo_44KHz.wav
2	183	2	1	0	C	2	1	134	1	Ⴡ	cut_n_stereo_44KHz.wav
2	184	1	1	1	C	2	0	272	0	Ⴂ	cut_n_stereo_44KHz.wav
2	185	2	2	1	C	1	1	656	1	Ⴡ	cut_f_stereo_44KHz.wav
2	186	1	1	1	C	1	1	742	1	Ⴂ	cut_n_stereo_44KHz.wav
2	187	3	4	2	I	2	0	736	0	Ⴃ	cut_s_stereo_44KHz.wav
2	188	4	4	2	I	2	0	391	0	Ⴊ	cut_s_stereo_44KHz.wav
2	189	3	3	2	I	2	0	635	0	Ⴃ	cut_oei_stereo_44KHz.wav
2	190	2	1	0	C	1	0	477	0	Ⴡ	cut_n_stereo_44KHz.wav
2	191	1	2	0	C	1	0	440	0	Ⴂ	cut_f_stereo_44KHz.wav
2	192	4	3	2	I	1	0	181	1	Ⴊ	cut_oei_stereo_44KHz.wav
2	193	3	4	2	I	1	0	134	1	Ⴃ	cut_s_stereo_44KHz.wav
2	194	1	2	0	C	1	0	102	0	Ⴂ	cut_f_stereo_44KHz.wav
2	195	4	3	2	I	2	0	171	1	Ⴊ	cut_oei_stereo_44KHz.wav
2	196	2	1	0	C	2	1	228	1	Ⴡ	cut_n_stereo_44KHz.wav
2	197	3	3	2	I	2	0	92	0	Ⴃ	cut_oei_stereo_44KHz.wav
2	198	2	2	1	C	1	1	219	1	Ⴡ	cut_f_stereo_44KHz.wav
2	199	1	1	1	C	1	1	381	1	Ⴂ	cut_n_stereo_44KHz.wav
2	200	4	4	2	I	1	0	201	0	Ⴊ	cut_s_stereo_44KHz.wav
3	1	3	3	2	I	1	0	1477	0	Ⴔ	cut_u_stereo_44KHz.wav
3	2	2	1	0	C	1	0	816	0	Ⴒ	cut_k_stereo_44KHz.wav
3	3	1	1	1	C	1	1	707	1	Ⴖ	cut_k_stereo_44KHz.wav
3	4	4	4	2	I	1	0	804	0	Ⴏ	cut_o_stereo_44KHz.wav
3	5	1	2	0	C	2	1	673	1	Ⴖ	cut_a_stereo_44KHz.wav
3	6	4	3	2	I	1	0	617	0	Ⴏ	cut_u_stereo_44KHz.wav
3	7	2	2	1	C	2	0	493	0	Ⴒ	cut_a_stereo_44KHz.wav
3	8	3	4	2	I	1	0	737	1	Ⴔ	cut_o_stereo_44KHz.wav
3	9	4	4	2	I	1	0	705	1	Ⴏ	cut_o_stereo_44KHz.wav
3	10	3	3	2	I	2	0	957	1	Ⴔ	cut_u_stereo_44KHz.wav
3	11	2	1	0	C	1	0	745	0	Ⴒ	cut_k_stereo_44KHz.wav
3	12	1	2	0	C	2	1	504	1	Ⴖ	cut_a_stereo_44KHz.wav
3	13	2	2	1	C	1	1	637	1	Ⴒ	cut_a_stereo_44KHz.wav
3	14	3	4	2	I	1	0	751	1	Ⴔ	cut_o_stereo_44KHz.wav
3	15	1	1	1	C	1	1	721	1	Ⴖ	cut_k_stereo_44KHz.wav
3	16	4	3	2	I	1	0	579	0	Ⴏ	cut_u_stereo_44KHz.wav
3	17	1	2	0	C	2	1	170	1	Ⴖ	cut_a_stereo_44KHz.wav
3	18	3	4	2	I	1	0	700	1	Ⴔ	cut_o_stereo_44KHz.wav
3	19	2	1	0	C	1	0	234	0	Ⴒ	cut_k_stereo_44KHz.wav
3	20	4	3	2	I	2	0	162	1	Ⴏ	cut_u_stereo_44KHz.wav
3	21	3	3	2	I	1	0	260	0	Ⴔ	cut_u_stereo_44KHz.wav
3	22	2	2	1	C	2	0	210	0	Ⴒ	cut_a_stereo_44KHz.wav
3	23	1	1	1	C	1	1	818	1	Ⴖ	cut_k_stereo_44KHz.wav
3	24	4	4	2	I	1	0	752	0	Ⴏ	cut_o_stereo_44KHz.wav
3	25	2	1	0	C	2	1	734	1	Ⴒ	cut_k_stereo_44KHz.wav
3	26	3	4	2	I	1	0	681	1	Ⴔ	cut_o_stereo_44KHz.wav
3	27	4	3	2	I	2	0	910	0	Ⴏ	cut_u_stereo_44KHz.wav
3	28	1	1	1	C	2	0	1475	0	Ⴖ	cut_k_stereo_44KHz.wav
3	29	3	3	2	I	1	0	607	1	Ⴔ	cut_u_stereo_44KHz.wav
3	30	2	2	1	C	2	0	849	0	Ⴒ	cut_a_stereo_44KHz.wav
3	31	1	2	0	C	2	1	424	1	Ⴖ	cut_a_stereo_44KHz.wav
3	32	4	4	2	I	1	0	645	0	Ⴏ	cut_o_stereo_44KHz.wav
3	33	2	2	1	C	1	1	666	1	Ⴒ	cut_a_stereo_44KHz.wav
3	34	3	4	2	I	1	0	715	0	Ⴔ	cut_o_stereo_44KHz.wav
3	35	4	4	2	I	2	0	748	1	Ⴏ	cut_o_stereo_44KHz.wav
3	36	1	1	1	C	1	1	641	1	Ⴖ	cut_k_stereo_44KHz.wav
3	37	3	3	2	I	1	0	725	1	Ⴔ	cut_u_stereo_44KHz.wav
3	38	2	1	0	C	2	1	736	1	Ⴒ	cut_k_stereo_44KHz.wav
3	39	1	2	0	C	2	1	1325	1	Ⴖ	cut_a_stereo_44KHz.wav
3	40	4	3	2	I	2	0	707	1	Ⴏ	cut_u_stereo_44KHz.wav
3	41	3	4	2	I	2	0	776	0	Ⴔ	cut_o_stereo_44KHz.wav
3	42	4	4	2	I	2	0	500	1	Ⴏ	cut_o_stereo_44KHz.wav
3	43	1	2	0	C	1	0	495	0	Ⴖ	cut_a_stereo_44KHz.wav
3	44	2	2	1	C	2	0	480	0	Ⴒ	cut_a_stereo_44KHz.wav
3	45	4	3	2	I	1	0	272	1	Ⴏ	cut_u_stereo_44KHz.wav
3	46	3	3	2	I	1	0	214	1	Ⴔ	cut_u_stereo_44KHz.wav
3	47	1	1	1	C	2	0	170	0	Ⴖ	cut_k_stereo_44KHz.wav
3	48	2	1	0	C	1	0	187	0	Ⴒ	cut_k_stereo_44KHz.wav
3	49	1	1	1	C	2	0	453	0	Ⴖ	cut_k_stereo_44KHz.wav
3	50	4	3	2	I	2	0	300	0	Ⴏ	cut_u_stereo_44KHz.wav
3	51	3	4	2	I	2	0	222	0	Ⴔ	cut_o_stereo_44KHz.wav
3	52	2	2	1	C	1	1	208	1	Ⴒ	cut_a_stereo_44KHz.wav
3	53	4	4	2	I	1	0	198	0	Ⴏ	cut_o_stereo_44KHz.wav
3	54	3	3	2	I	2	0	221	1	Ⴔ	cut_u_stereo_44KHz.wav
3	55	1	2	0	C	2	1	388	1	Ⴖ	cut_a_stereo_44KHz.wav
3	56	2	1	0	C	2	1	149	1	Ⴒ	cut_k_stereo_44KHz.wav
3	57	3	3	2	I	2	0	546	0	Ⴔ	cut_u_stereo_44KHz.wav
3	58	2	1	0	C	1	0	553	0	Ⴒ	cut_k_stereo_44KHz.wav
3	59	1	1	1	C	2	0	188	0	Ⴖ	cut_k_stereo_44KHz.wav
3	60	4	4	2	I	2	0	269	1	Ⴏ	cut_o_stereo_44KHz.wav
3	61	2	2	1	C	1	1	460	1	Ⴒ	cut_a_stereo_44KHz.wav
3	62	1	2	0	C	2	1	159	1	Ⴖ	cut_a_stereo_44KHz.wav
3	63	3	4	2	I	1	0	209	1	Ⴔ	cut_o_stereo_44KHz.wav
3	64	4	3	2	I	1	0	260	1	Ⴏ	cut_u_stereo_44KHz.wav
3	65	3	4	2	I	1	0	679	0	Ⴔ	cut_o_stereo_44KHz.wav
3	66	2	1	0	C	2	1	219	1	Ⴒ	cut_k_stereo_44KHz.wav
3	67	1	2	0	C	1	0	396	0	Ⴖ	cut_a_stereo_44KHz.wav
3	68	4	4	2	I	2	0	246	1	Ⴏ	cut_o_stereo_44KHz.wav
3	69	2	2	1	C	2	0	87	0	Ⴒ	cut_a_stereo_44KHz.wav
3	70	4	3	2	I	1	0	322	1	Ⴏ	cut_u_stereo_44KHz.wav
3	71	3	3	2	I	2	0	48	0	Ⴔ	cut_u_stereo_44KHz.wav
3	72	1	1	1	C	1	1	35	1	Ⴖ	cut_k_stereo_44KHz.wav
3	73	2	2	1	C	1	1	55	1	Ⴒ	cut_a_stereo_44KHz.wav
3	74	1	1	1	C	1	1	35	1	Ⴖ	cut_k_stereo_44KHz.wav
3	75	4	3	2	I	1	0	62	1	Ⴏ	cut_u_stereo_44KHz.wav
3	76	3	4	2	I	1	0	506	0	Ⴔ	cut_o_stereo_44KHz.wav
3	77	2	1	0	C	2	1	300	1	Ⴒ	cut_k_stereo_44KHz.wav
3	78	4	4	2	I	1	0	216	0	Ⴏ	cut_o_stereo_44KHz.wav
3	79	1	2	0	C	2	1	336	1	Ⴖ	cut_a_stereo_44KHz.wav
3	80	3	3	2	I	2	0	287	0	Ⴔ	cut_u_stereo_44KHz.wav
3	81	1	2	0	C	2	1	182	1	Ⴖ	cut_a_stereo_44KHz.wav
3	82	3	4	2	I	2	0	89	1	Ⴔ	cut_o_stereo_44KHz.wav
3	83	4	4	2	I	2	0	48	0	Ⴏ	cut_o_stereo_44KHz.wav
3	84	2	2	1	C	1	1	188	1	Ⴒ	cut_a_stereo_44KHz.wav
3	85	4	3	2	I	2	0	209	1	Ⴏ	cut_u_stereo_44KHz.wav
3	86	1	1	1	C	2	0	779	0	Ⴖ	cut_k_stereo_44KHz.wav
3	87	3	3	2	I	1	0	180	0	Ⴔ	cut_u_stereo_44KHz.wav
3	88	2	1	0	C	2	1	186	1	Ⴒ	cut_k_stereo_44KHz.wav
3	89	3	4	2	I	1	0	255	1	Ⴔ	cut_o_stereo_44KHz.wav
3	90	2	2	1	C	2	0	445	0	Ⴒ	cut_a_stereo_44KHz.wav
3	91	1	2	0	C	1	0	116	0	Ⴖ	cut_a_stereo_44KHz.wav
3	92	4	3	2	I	2	0	270	1	Ⴏ	cut_u_stereo_44KHz.wav
3	93	1	1	1	C	2	0	31	0	Ⴖ	cut_k_stereo_44KHz.wav
3	94	2	1	0	C	1	0	59	0	Ⴒ	cut_k_stereo_44KHz.wav
3	95	3	3	2	I	1	0	52	1	Ⴔ	cut_u_stereo_44KHz.wav
3	96	4	4	2	I	1	0	114	0	Ⴏ	cut_o_stereo_44KHz.wav
3	97	3	3	2	I	2	0	153	0	Ⴔ	cut_u_stereo_44KHz.wav
3	98	2	1	0	C	1	0	57	0	Ⴒ	cut_k_stereo_44KHz.wav
3	99	1	1	1	C	1	1	292	1	Ⴖ	cut_k_stereo_44KHz.wav
3	100	4	4	2	I	2	0	217	0	Ⴏ	cut_o_stereo_44KHz.wav
3	101	1	2	0	C	1	0	259	0	Ⴖ	cut_a_stereo_44KHz.wav
3	102	4	3	2	I	2	0	178	0	Ⴏ	cut_u_stereo_44KHz.wav
3	103	2	2	1	C	1	1	228	1	Ⴒ	cut_a_stereo_44KHz.wav
3	104	3	4	2	I	1	0	127	1	Ⴔ	cut_o_stereo_44KHz.wav
3	105	1	2	0	C	1	0	120	0	Ⴖ	cut_a_stereo_44KHz.wav
3	106	4	3	2	I	2	0	73	1	Ⴏ	cut_u_stereo_44KHz.wav
3	107	3	4	2	I	2	0	156	1	Ⴔ	cut_o_stereo_44KHz.wav
3	108	2	2	1	C	2	0	199	0	Ⴒ	cut_a_stereo_44KHz.wav
3	109	4	4	2	I	1	0	543	1	Ⴏ	cut_o_stereo_44KHz.wav
3	110	2	1	0	C	1	0	232	0	Ⴒ	cut_k_stereo_44KHz.wav
3	111	1	1	1	C	2	0	338	0	Ⴖ	cut_k_stereo_44KHz.wav
3	112	3	3	2	I	1	0	81	0	Ⴔ	cut_u_stereo_44KHz.wav
3	113	1	1	1	C	2	0	77	0	Ⴖ	cut_k_stereo_44KHz.wav
3	114	4	4	2	I	1	0	85	1	Ⴏ	cut_o_stereo_44KHz.wav
3	115	2	2	1	C	2	0	140	0	Ⴒ	cut_a_stereo_44KHz.wav
3	116	3	4	2	I	1	0	186	0	Ⴔ	cut_o_stereo_44KHz.wav
3	117	4	3	2	I	2	0	89	1	Ⴏ	cut_u_stereo_44KHz.wav
3	118	3	3	2	I	2	0	310	0	Ⴔ	cut_u_stereo_44KHz.wav
3	119	2	1	0	C	2	1	679	1	Ⴒ	cut_k_stereo_44KHz.wav
3	120	1	2	0	C	1	0	116	0	Ⴖ	cut_a_stereo_44KHz.wav
3	121	4	3	2	I	2	0	187	1	Ⴏ	cut_u_stereo_44KHz.wav
3	122	2	1	0	C	2	1	485	1	Ⴒ	cut_k_stereo_44KHz.wav
3	123	1	2	0	C	2	1	506	1	Ⴖ	cut_a_stereo_44KHz.wav
3	124	3	4	2	I	2	0	171	1	Ⴔ	cut_o_stereo_44KHz.wav
3	125	4	4	2	I	2	0	180	1	Ⴏ	cut_o_stereo_44KHz.wav
3	126	3	3	2	I	2	0	224	1	Ⴔ	cut_u_stereo_44KHz.wav
3	127	2	2	1	C	2	0	16	0	Ⴒ	cut_a_stereo_44KHz.wav
3	128	1	1	1	C	1	1	82	1	Ⴖ	cut_k_stereo_44KHz.wav
3	129	3	4	2	I	1	0	109	1	Ⴔ	cut_o_stereo_44KHz.wav
3	130	2	1	0	C	1	0	194	0	Ⴒ	cut_k_stereo_44KHz.wav
3	131	4	4	2	I	2	0	182	1	Ⴏ	cut_o_stereo_44KHz.wav
3	132	1	2	0	C	2	1	202	1	Ⴖ	cut_a_stereo_44KHz.wav
3	133	4	3	2	I	2	0	152	1	Ⴏ	cut_u_stereo_44KHz.wav
3	134	3	3	2	I	2	0	38	0	Ⴔ	cut_u_stereo_44KHz.wav
3	135	2	2	1	C	1	1	246	1	Ⴒ	cut_a_stereo_44KHz.wav
3	136	1	1	1	C	1	1	196	1	Ⴖ	cut_k_stereo_44KHz.wav
3	137	4	3	2	I	1	0	491	0	Ⴏ	cut_u_stereo_44KHz.wav
3	138	3	3	2	I	2	0	192	0	Ⴔ	cut_u_stereo_44KHz.wav
3	139	2	2	1	C	1	1	195	1	Ⴒ	cut_a_stereo_44KHz.wav
3	140	1	1	1	C	2	0	217	0	Ⴖ	cut_k_stereo_44KHz.wav
3	141	2	1	0	C	1	0	416	0	Ⴒ	cut_k_stereo_44KHz.wav
3	142	3	4	2	I	2	0	234	0	Ⴔ	cut_o_stereo_44KHz.wav
3	143	1	2	0	C	2	1	185	1	Ⴖ	cut_a_stereo_44KHz.wav
3	144	4	4	2	I	2	0	106	1	Ⴏ	cut_o_stereo_44KHz.wav
3	145	2	1	0	C	2	1	101	1	Ⴒ	cut_k_stereo_44KHz.wav
3	146	3	4	2	I	2	0	196	0	Ⴔ	cut_o_stereo_44KHz.wav
3	147	4	4	2	I	1	0	62	0	Ⴏ	cut_o_stereo_44KHz.wav
3	148	1	1	1	C	1	1	7	1	Ⴖ	cut_k_stereo_44KHz.wav
3	149	4	3	2	I	1	0	91	1	Ⴏ	cut_u_stereo_44KHz.wav
3	150	1	2	0	C	1	0	118	0	Ⴖ	cut_a_stereo_44KHz.wav
3	151	2	2	1	C	2	0	444	0	Ⴒ	cut_a_stereo_44KHz.wav
3	152	3	3	2	I	1	0	194	1	Ⴔ	cut_u_stereo_44KHz.wav
3	153	1	2	0	C	2	1	1883	1	Ⴖ	cut_a_stereo_44KHz.wav
3	154	4	3	2	I	2	0	508	0	Ⴏ	cut_u_stereo_44KHz.wav
3	155	3	3	2	I	1	0	201	1	Ⴔ	cut_u_stereo_44KHz.wav
3	156	2	2	1	C	1	1	287	1	Ⴒ	cut_a_stereo_44KHz.wav
3	157	1	1	1	C	1	1	136	1	Ⴖ	cut_k_stereo_44KHz.wav
3	158	3	4	2	I	2	0	126	1	Ⴔ	cut_o_stereo_44KHz.wav
3	159	4	4	2	I	2	0	238	0	Ⴏ	cut_o_stereo_44KHz.wav
3	160	2	1	0	C	1	0	118	0	Ⴒ	cut_k_stereo_44KHz.wav
3	161	1	2	0	C	2	1	72	1	Ⴖ	cut_a_stereo_44KHz.wav
3	162	4	4	2	I	2	0	93	0	Ⴏ	cut_o_stereo_44KHz.wav
3	163	2	2	1	C	1	1	523	1	Ⴒ	cut_a_stereo_44KHz.wav
3	164	3	4	2	I	1	0	382	1	Ⴔ	cut_o_stereo_44KHz.wav
3	165	4	3	2	I	1	0	786	0	Ⴏ	cut_u_stereo_44KHz.wav
3	166	2	1	0	C	2	1	135	1	Ⴒ	cut_k_stereo_44KHz.wav
3	167	1	1	1	C	1	1	32	1	Ⴖ	cut_k_stereo_44KHz.wav
3	168	3	3	2	I	2	0	65	0	Ⴔ	cut_u_stereo_44KHz.wav
3	169	1	1	1	C	1	1	167	1	Ⴖ	cut_k_stereo_44KHz.wav
3	170	3	3	2	I	1	0	243	0	Ⴔ	cut_u_stereo_44KHz.wav
3	171	4	3	2	I	2	0	156	0	Ⴏ	cut_u_stereo_44KHz.wav
3	172	2	1	0	C	2	1	15	1	Ⴒ	cut_k_stereo_44KHz.wav
3	173	4	4	2	I	2	0	52	0	Ⴏ	cut_o_stereo_44KHz.wav
3	174	1	2	0	C	1	0	298	0	Ⴖ	cut_a_stereo_44KHz.wav
3	175	3	4	2	I	1	0	161	1	Ⴔ	cut_o_stereo_44KHz.wav
3	176	2	2	1	C	1	1	205	1	Ⴒ	cut_a_stereo_44KHz.wav
3	177	4	4	2	I	1	0	531	0	Ⴏ	cut_o_stereo_44KHz.wav
3	178	2	1	0	C	2	1	61	1	Ⴒ	cut_k_stereo_44KHz.wav
3	179	1	2	0	C	2	1	272	1	Ⴖ	cut_a_stereo_44KHz.wav
3	180	3	4	2	I	1	0	635	0	Ⴔ	cut_o_stereo_44KHz.wav
3	181	4	3	2	I	2	0	720	1	Ⴏ	cut_u_stereo_44KHz.wav
3	182	1	1	1	C	1	1	522	1	Ⴖ	cut_k_stereo_44KHz.wav
3	183	2	2	1	C	1	1	564	1	Ⴒ	cut_a_stereo_44KHz.wav
3	184	3	3	2	I	1	0	739	1	Ⴔ	cut_u_stereo_44KHz.wav
3	185	2	2	1	C	1	1	595	1	Ⴒ	cut_a_stereo_44KHz.wav
3	186	1	1	1	C	1	1	635	1	Ⴖ	cut_k_stereo_44KHz.wav
3	187	4	3	2	I	1	0	709	1	Ⴏ	cut_u_stereo_44KHz.wav
3	188	3	3	2	I	1	0	749	0	Ⴔ	cut_u_stereo_44KHz.wav
3	189	2	1	0	C	1	0	630	0	Ⴒ	cut_k_stereo_44KHz.wav
3	190	1	2	0	C	2	1	373	1	Ⴖ	cut_a_stereo_44KHz.wav
3	191	3	4	2	I	2	0	813	0	Ⴔ	cut_o_stereo_44KHz.wav
3	192	4	4	2	I	2	0	828	0	Ⴏ	cut_o_stereo_44KHz.wav
3	193	3	3	2	I	1	0	682	0	Ⴔ	cut_u_stereo_44KHz.wav
3	194	4	3	2	I	1	0	557	0	Ⴏ	cut_u_stereo_44KHz.wav
3	195	1	1	1	C	1	1	861	1	Ⴖ	cut_k_stereo_44KHz.wav
3	196	2	2	1	C	1	1	858	1	Ⴒ	cut_a_stereo_44KHz.wav
3	197	3	4	2	I	2	0	612	1	Ⴔ	cut_o_stereo_44KHz.wav
3	198	1	2	0	C	2	1	617	1	Ⴖ	cut_a_stereo_44KHz.wav
3	199	4	4	2	I	2	0	1136	0	Ⴏ	cut_o_stereo_44KHz.wav
3	200	2	1	0	C	1	0	627	0	Ⴒ	cut_k_stereo_44KHz.wav
4	1	1	1	1	C	0	0	0	0	Ⴐ	cut_w_stereo_44KHz.wav
4	2	2	1	0	C	2	1	903	1	Ⴌ	cut_w_stereo_44KHz.wav
4	3	4	4	2	I	1	0	756	0	Ⴕ	cut_g_stereo_44KHz.wav
4	4	3	4	2	I	1	0	560	1	Ⴉ	cut_g_stereo_44KHz.wav
4	5	4	3	2	I	0	0	0	0	Ⴕ	cut_l_stereo_44KHz.wav
4	6	1	2	0	C	1	0	1185	0	Ⴐ	cut_h_stereo_44KHz.wav
4	7	2	2	1	C	2	0	843	0	Ⴌ	cut_h_stereo_44KHz.wav
4	8	3	3	2	I	2	0	1038	1	Ⴉ	cut_l_stereo_44KHz.wav
4	9	2	1	0	C	1	0	826	0	Ⴌ	cut_w_stereo_44KHz.wav
4	10	1	1	1	C	1	1	605	1	Ⴐ	cut_w_stereo_44KHz.wav
4	11	4	4	2	I	2	0	297	1	Ⴕ	cut_g_stereo_44KHz.wav
4	12	3	3	2	I	1	0	457	0	Ⴉ	cut_l_stereo_44KHz.wav
4	13	4	3	2	I	2	0	791	1	Ⴕ	cut_l_stereo_44KHz.wav
4	14	1	2	0	C	1	0	899	0	Ⴐ	cut_h_stereo_44KHz.wav
4	15	2	2	1	C	1	1	882	1	Ⴌ	cut_h_stereo_44KHz.wav
4	16	3	4	2	I	2	0	934	0	Ⴉ	cut_g_stereo_44KHz.wav
4	17	2	2	1	C	1	1	724	1	Ⴌ	cut_h_stereo_44KHz.wav
4	18	3	4	2	I	1	0	1004	1	Ⴉ	cut_g_stereo_44KHz.wav
4	19	4	4	2	I	2	0	912	0	Ⴕ	cut_g_stereo_44KHz.wav
4	20	1	1	1	C	1	1	964	1	Ⴐ	cut_w_stereo_44KHz.wav
4	21	2	1	0	C	1	0	464	0	Ⴌ	cut_w_stereo_44KHz.wav
4	22	3	3	2	I	1	0	867	1	Ⴉ	cut_l_stereo_44KHz.wav
4	23	1	2	0	C	2	1	1148	1	Ⴐ	cut_h_stereo_44KHz.wav
4	24	4	3	2	I	2	0	1040	1	Ⴕ	cut_l_stereo_44KHz.wav
4	25	3	4	2	I	1	0	781	0	Ⴉ	cut_g_stereo_44KHz.wav
4	26	4	4	2	I	2	0	924	0	Ⴕ	cut_g_stereo_44KHz.wav
4	27	1	2	0	C	2	1	871	1	Ⴐ	cut_h_stereo_44KHz.wav
4	28	2	1	0	C	2	1	875	1	Ⴌ	cut_w_stereo_44KHz.wav
4	29	1	1	1	C	2	0	753	0	Ⴐ	cut_w_stereo_44KHz.wav
4	30	2	2	1	C	1	1	766	1	Ⴌ	cut_h_stereo_44KHz.wav
4	31	4	3	2	I	2	0	712	0	Ⴕ	cut_l_stereo_44KHz.wav
4	32	3	3	2	I	2	0	715	1	Ⴉ	cut_l_stereo_44KHz.wav
4	33	4	3	2	I	2	0	745	1	Ⴕ	cut_l_stereo_44KHz.wav
4	34	3	3	2	I	2	0	609	0	Ⴉ	cut_l_stereo_44KHz.wav
4	35	1	1	1	C	2	0	642	0	Ⴐ	cut_w_stereo_44KHz.wav
4	36	2	1	0	C	2	1	731	1	Ⴌ	cut_w_stereo_44KHz.wav
4	37	1	2	0	C	2	1	989	1	Ⴐ	cut_h_stereo_44KHz.wav
4	38	3	4	2	I	1	0	699	1	Ⴉ	cut_g_stereo_44KHz.wav
4	39	2	2	1	C	1	1	820	1	Ⴌ	cut_h_stereo_44KHz.wav
4	40	4	4	2	I	2	0	677	1	Ⴕ	cut_g_stereo_44KHz.wav
4	41	1	2	0	C	2	1	696	1	Ⴐ	cut_h_stereo_44KHz.wav
4	42	2	2	1	C	1	1	1125	1	Ⴌ	cut_h_stereo_44KHz.wav
4	43	3	4	2	I	1	0	749	0	Ⴉ	cut_g_stereo_44KHz.wav
4	44	4	3	2	I	2	0	675	0	Ⴕ	cut_l_stereo_44KHz.wav
4	45	2	1	0	C	2	1	844	1	Ⴌ	cut_w_stereo_44KHz.wav
4	46	4	4	2	I	2	0	837	0	Ⴕ	cut_g_stereo_44KHz.wav
4	47	3	3	2	I	2	0	768	0	Ⴉ	cut_l_stereo_44KHz.wav
4	48	1	1	1	C	2	0	642	0	Ⴐ	cut_w_stereo_44KHz.wav
4	49	2	2	1	C	2	0	592	0	Ⴌ	cut_h_stereo_44KHz.wav
4	50	3	4	2	I	2	0	728	1	Ⴉ	cut_g_stereo_44KHz.wav
4	51	1	1	1	C	2	0	603	0	Ⴐ	cut_w_stereo_44KHz.wav
4	52	4	3	2	I	1	0	373	0	Ⴕ	cut_l_stereo_44KHz.wav
4	53	2	1	0	C	2	1	259	1	Ⴌ	cut_w_stereo_44KHz.wav
4	54	4	4	2	I	1	0	709	0	Ⴕ	cut_g_stereo_44KHz.wav
4	55	1	2	0	C	2	1	189	1	Ⴐ	cut_h_stereo_44KHz.wav
4	56	3	3	2	I	2	0	391	1	Ⴉ	cut_l_stereo_44KHz.wav
4	57	2	2	1	C	2	0	413	0	Ⴌ	cut_h_stereo_44KHz.wav
4	58	3	4	2	I	1	0	268	0	Ⴉ	cut_g_stereo_44KHz.wav
4	59	1	2	0	C	2	1	169	1	Ⴐ	cut_h_stereo_44KHz.wav
4	60	4	4	2	I	2	0	667	1	Ⴕ	cut_g_stereo_44KHz.wav
4	61	3	3	2	I	2	0	634	0	Ⴉ	cut_l_stereo_44KHz.wav
4	62	1	1	1	C	1	1	256	1	Ⴐ	cut_w_stereo_44KHz.wav
4	63	2	1	0	C	2	1	458	1	Ⴌ	cut_w_stereo_44KHz.wav
4	64	4	3	2	I	1	0	316	0	Ⴕ	cut_l_stereo_44KHz.wav
4	65	2	1	0	C	2	1	314	1	Ⴌ	cut_w_stereo_44KHz.wav
4	66	4	4	2	I	2	0	323	1	Ⴕ	cut_g_stereo_44KHz.wav
4	67	3	4	2	I	2	0	520	0	Ⴉ	cut_g_stereo_44KHz.wav
4	68	1	1	1	C	1	1	631	1	Ⴐ	cut_w_stereo_44KHz.wav
4	69	3	3	2	I	2	0	596	0	Ⴉ	cut_l_stereo_44KHz.wav
4	70	4	3	2	I	1	0	235	0	Ⴕ	cut_l_stereo_44KHz.wav
4	71	2	2	1	C	2	0	160	0	Ⴌ	cut_h_stereo_44KHz.wav
4	72	1	2	0	C	1	0	343	0	Ⴐ	cut_h_stereo_44KHz.wav
4	73	2	2	1	C	1	1	767	1	Ⴌ	cut_h_stereo_44KHz.wav
4	74	3	4	2	I	2	0	895	0	Ⴉ	cut_g_stereo_44KHz.wav
4	75	4	4	2	I	1	0	469	0	Ⴕ	cut_g_stereo_44KHz.wav
4	76	1	1	1	C	2	0	118	0	Ⴐ	cut_w_stereo_44KHz.wav
4	77	3	3	2	I	2	0	692	1	Ⴉ	cut_l_stereo_44KHz.wav
4	78	1	2	0	C	2	1	635	1	Ⴐ	cut_h_stereo_44KHz.wav
4	79	2	1	0	C	2	1	820	1	Ⴌ	cut_w_stereo_44KHz.wav
4	80	4	3	2	I	0	0	0	0	Ⴕ	cut_l_stereo_44KHz.wav
4	81	1	2	0	C	2	1	775	1	Ⴐ	cut_h_stereo_44KHz.wav
4	82	2	1	0	C	1	0	599	0	Ⴌ	cut_w_stereo_44KHz.wav
4	83	4	3	2	I	2	0	412	0	Ⴕ	cut_l_stereo_44KHz.wav
4	84	3	4	2	I	2	0	654	0	Ⴉ	cut_g_stereo_44KHz.wav
4	85	1	1	1	C	1	1	421	1	Ⴐ	cut_w_stereo_44KHz.wav
4	86	2	2	1	C	1	1	853	1	Ⴌ	cut_h_stereo_44KHz.wav
4	87	4	4	2	I	1	0	794	1	Ⴕ	cut_g_stereo_44KHz.wav
4	88	3	3	2	I	1	0	963	1	Ⴉ	cut_l_stereo_44KHz.wav
4	89	2	1	0	C	2	1	874	1	Ⴌ	cut_w_stereo_44KHz.wav
4	90	1	2	0	C	2	1	828	1	Ⴐ	cut_h_stereo_44KHz.wav
4	91	3	3	2	I	1	0	641	0	Ⴉ	cut_l_stereo_44KHz.wav
4	92	4	3	2	I	2	0	612	0	Ⴕ	cut_l_stereo_44KHz.wav
4	93	2	2	1	C	2	0	543	0	Ⴌ	cut_h_stereo_44KHz.wav
4	94	4	4	2	I	1	0	211	0	Ⴕ	cut_g_stereo_44KHz.wav
4	95	1	1	1	C	2	0	565	0	Ⴐ	cut_w_stereo_44KHz.wav
4	96	3	4	2	I	2	0	636	0	Ⴉ	cut_g_stereo_44KHz.wav
4	97	1	2	0	C	1	0	253	0	Ⴐ	cut_h_stereo_44KHz.wav
4	98	3	3	2	I	2	0	177	1	Ⴉ	cut_l_stereo_44KHz.wav
4	99	2	1	0	C	2	1	320	1	Ⴌ	cut_w_stereo_44KHz.wav
4	100	4	3	2	I	2	0	181	1	Ⴕ	cut_l_stereo_44KHz.wav
4	101	1	1	1	C	2	0	253	0	Ⴐ	cut_w_stereo_44KHz.wav
4	102	3	4	2	I	1	0	97	1	Ⴉ	cut_g_stereo_44KHz.wav
4	103	2	2	1	C	1	1	769	1	Ⴌ	cut_h_stereo_44KHz.wav
4	104	4	4	2	I	2	0	853	0	Ⴕ	cut_g_stereo_44KHz.wav
4	105	1	1	1	C	1	1	342	1	Ⴐ	cut_w_stereo_44KHz.wav
4	106	2	1	0	C	1	0	836	0	Ⴌ	cut_w_stereo_44KHz.wav
4	107	4	4	2	I	2	0	334	1	Ⴕ	cut_g_stereo_44KHz.wav
4	108	3	4	2	I	2	0	612	0	Ⴉ	cut_g_stereo_44KHz.wav
4	109	2	2	1	C	1	1	280	1	Ⴌ	cut_h_stereo_44KHz.wav
4	110	1	2	0	C	1	0	604	0	Ⴐ	cut_h_stereo_44KHz.wav
4	111	3	3	2	I	2	0	558	0	Ⴉ	cut_l_stereo_44KHz.wav
4	112	4	3	2	I	2	0	749	0	Ⴕ	cut_l_stereo_44KHz.wav
4	113	1	1	1	C	2	0	760	0	Ⴐ	cut_w_stereo_44KHz.wav
4	114	2	2	1	C	2	0	421	0	Ⴌ	cut_h_stereo_44KHz.wav
4	115	4	4	2	I	1	0	235	0	Ⴕ	cut_g_stereo_44KHz.wav
4	116	3	4	2	I	2	0	360	1	Ⴉ	cut_g_stereo_44KHz.wav
4	117	1	2	0	C	2	1	637	1	Ⴐ	cut_h_stereo_44KHz.wav
4	118	3	3	2	I	1	0	870	0	Ⴉ	cut_l_stereo_44KHz.wav
4	119	4	3	2	I	1	0	900	1	Ⴕ	cut_l_stereo_44KHz.wav
4	120	2	1	0	C	2	1	720	1	Ⴌ	cut_w_stereo_44KHz.wav
4	121	4	3	2	I	2	0	661	1	Ⴕ	cut_l_stereo_44KHz.wav
4	122	1	2	0	C	2	1	712	1	Ⴐ	cut_h_stereo_44KHz.wav
4	123	3	4	2	I	2	0	686	1	Ⴉ	cut_g_stereo_44KHz.wav
4	124	2	2	1	C	1	1	767	1	Ⴌ	cut_h_stereo_44KHz.wav
4	125	3	3	2	I	2	0	932	0	Ⴉ	cut_l_stereo_44KHz.wav
4	126	4	4	2	I	2	0	561	1	Ⴕ	cut_g_stereo_44KHz.wav
4	127	2	1	0	C	2	1	703	1	Ⴌ	cut_w_stereo_44KHz.wav
4	128	1	1	1	C	2	0	614	0	Ⴐ	cut_w_stereo_44KHz.wav
4	129	4	3	2	I	2	0	708	1	Ⴕ	cut_l_stereo_44KHz.wav
4	130	1	2	0	C	2	1	742	1	Ⴐ	cut_h_stereo_44KHz.wav
4	131	3	4	2	I	2	0	629	1	Ⴉ	cut_g_stereo_44KHz.wav
4	132	2	1	0	C	1	0	593	0	Ⴌ	cut_w_stereo_44KHz.wav
4	133	1	1	1	C	2	0	513	0	Ⴐ	cut_w_stereo_44KHz.wav
4	134	4	4	2	I	2	0	600	1	Ⴕ	cut_g_stereo_44KHz.wav
4	135	2	2	1	C	1	1	896	1	Ⴌ	cut_h_stereo_44KHz.wav
4	136	3	3	2	I	2	0	777	0	Ⴉ	cut_l_stereo_44KHz.wav
4	137	4	3	2	I	2	0	638	1	Ⴕ	cut_l_stereo_44KHz.wav
4	138	3	4	2	I	2	0	649	0	Ⴉ	cut_g_stereo_44KHz.wav
4	139	2	1	0	C	2	1	604	1	Ⴌ	cut_w_stereo_44KHz.wav
4	140	1	2	0	C	2	1	863	1	Ⴐ	cut_h_stereo_44KHz.wav
4	141	3	3	2	I	2	0	555	0	Ⴉ	cut_l_stereo_44KHz.wav
4	142	2	2	1	C	1	1	737	1	Ⴌ	cut_h_stereo_44KHz.wav
4	143	4	4	2	I	2	0	642	0	Ⴕ	cut_g_stereo_44KHz.wav
4	144	1	1	1	C	2	0	785	0	Ⴐ	cut_w_stereo_44KHz.wav
4	145	3	4	2	I	2	0	604	1	Ⴉ	cut_g_stereo_44KHz.wav
4	146	2	1	0	C	2	1	614	1	Ⴌ	cut_w_stereo_44KHz.wav
4	147	4	3	2	I	2	0	756	1	Ⴕ	cut_l_stereo_44KHz.wav
4	148	1	2	0	C	1	0	666	0	Ⴐ	cut_h_stereo_44KHz.wav
4	149	3	3	2	I	2	0	525	0	Ⴉ	cut_l_stereo_44KHz.wav
4	150	2	2	1	C	1	1	852	1	Ⴌ	cut_h_stereo_44KHz.wav
4	151	1	1	1	C	2	0	777	0	Ⴐ	cut_w_stereo_44KHz.wav
4	152	4	4	2	I	2	0	763	0	Ⴕ	cut_g_stereo_44KHz.wav
4	153	1	2	0	C	1	0	468	0	Ⴐ	cut_h_stereo_44KHz.wav
4	154	2	1	0	C	2	1	246	1	Ⴌ	cut_w_stereo_44KHz.wav
4	155	4	4	2	I	2	0	318	0	Ⴕ	cut_g_stereo_44KHz.wav
4	156	3	3	2	I	1	0	510	1	Ⴉ	cut_l_stereo_44KHz.wav
4	157	4	3	2	I	1	0	335	0	Ⴕ	cut_l_stereo_44KHz.wav
4	158	3	4	2	I	2	0	230	1	Ⴉ	cut_g_stereo_44KHz.wav
4	159	2	2	1	C	2	0	310	0	Ⴌ	cut_h_stereo_44KHz.wav
4	160	1	1	1	C	2	0	563	0	Ⴐ	cut_w_stereo_44KHz.wav
4	161	3	4	2	I	1	0	302	1	Ⴉ	cut_g_stereo_44KHz.wav
4	162	2	2	1	C	1	1	647	1	Ⴌ	cut_h_stereo_44KHz.wav
4	163	4	4	2	I	2	0	673	0	Ⴕ	cut_g_stereo_44KHz.wav
4	164	1	2	0	C	1	0	425	0	Ⴐ	cut_h_stereo_44KHz.wav
4	165	2	1	0	C	2	1	295	1	Ⴌ	cut_w_stereo_44KHz.wav
4	166	1	1	1	C	2	0	711	0	Ⴐ	cut_w_stereo_44KHz.wav
4	167	3	3	2	I	1	0	406	0	Ⴉ	cut_l_stereo_44KHz.wav
4	168	4	3	2	I	2	0	525	0	Ⴕ	cut_l_stereo_44KHz.wav
4	169	1	2	0	C	2	1	690	1	Ⴐ	cut_h_stereo_44KHz.wav
4	170	3	4	2	I	2	0	732	1	Ⴉ	cut_g_stereo_44KHz.wav
4	171	2	1	0	C	2	1	874	1	Ⴌ	cut_w_stereo_44KHz.wav
4	172	4	4	2	I	2	0	719	1	Ⴕ	cut_g_stereo_44KHz.wav
4	173	2	2	1	C	1	1	636	1	Ⴌ	cut_h_stereo_44KHz.wav
4	174	4	3	2	I	2	0	634	1	Ⴕ	cut_l_stereo_44KHz.wav
4	175	3	3	2	I	2	0	781	1	Ⴉ	cut_l_stereo_44KHz.wav
4	176	1	1	1	C	2	0	846	0	Ⴐ	cut_w_stereo_44KHz.wav
4	177	2	2	1	C	1	1	635	1	Ⴌ	cut_h_stereo_44KHz.wav
4	178	4	3	2	I	2	0	752	1	Ⴕ	cut_l_stereo_44KHz.wav
4	179	1	1	1	C	2	0	694	0	Ⴐ	cut_w_stereo_44KHz.wav
4	180	3	4	2	I	1	0	580	1	Ⴉ	cut_g_stereo_44KHz.wav
4	181	4	4	2	I	2	0	337	0	Ⴕ	cut_g_stereo_44KHz.wav
4	182	3	3	2	I	1	0	288	1	Ⴉ	cut_l_stereo_44KHz.wav
4	183	1	2	0	C	1	0	369	0	Ⴐ	cut_h_stereo_44KHz.wav
4	184	2	1	0	C	2	1	252	1	Ⴌ	cut_w_stereo_44KHz.wav
4	185	4	3	2	I	2	0	256	1	Ⴕ	cut_l_stereo_44KHz.wav
4	186	2	2	1	C	2	0	266	0	Ⴌ	cut_h_stereo_44KHz.wav
4	187	3	4	2	I	2	0	200	0	Ⴉ	cut_g_stereo_44KHz.wav
4	188	1	2	0	C	2	1	357	1	Ⴐ	cut_h_stereo_44KHz.wav
4	189	3	3	2	I	2	0	726	1	Ⴉ	cut_l_stereo_44KHz.wav
4	190	4	4	2	I	2	0	687	1	Ⴕ	cut_g_stereo_44KHz.wav
4	191	2	1	0	C	2	1	885	1	Ⴌ	cut_w_stereo_44KHz.wav
4	192	1	1	1	C	2	0	693	0	Ⴐ	cut_w_stereo_44KHz.wav
4	193	3	3	2	I	2	0	819	1	Ⴉ	cut_l_stereo_44KHz.wav
4	194	4	3	2	I	1	0	885	0	Ⴕ	cut_l_stereo_44KHz.wav
4	195	1	1	1	C	2	0	542	0	Ⴐ	cut_w_stereo_44KHz.wav
4	196	2	2	1	C	1	1	668	1	Ⴌ	cut_h_stereo_44KHz.wav
4	197	4	4	2	I	2	0	733	1	Ⴕ	cut_g_stereo_44KHz.wav
4	198	3	4	2	I	2	0	803	0	Ⴉ	cut_g_stereo_44KHz.wav
4	199	2	1	0	C	2	1	911	1	Ⴌ	cut_w_stereo_44KHz.wav
4	200	1	2	0	C	2	1	861	1	Ⴐ	cut_h_stereo_44KHz.wav
