block	trial	Vstim	Astim	match	C/I	resp	result	RT	fb	V-file	A-file
LR

0	1	1	1	1	C	0	0	0	0	Ⴋ	cut_g_stereo_44KHz.wav
0	2	2	4	0	C	2	0	687	0	Ⴞ	cut_ee_stereo_44KHz.wav
0	3	2	3	1	C	2	1	1007	1	Ⴞ	cut_oo_stereo_44KHz.wav
0	4	1	2	0	C	1	1	1055	1	Ⴋ	cut_eeuw_stereo_44KHz.wav
0	5	1	1	1	C	1	0	712	0	Ⴋ	cut_g_stereo_44KHz.wav
0	6	2	3	1	C	2	1	905	1	Ⴞ	cut_oo_stereo_44KHz.wav
0	7	2	4	0	C	1	1	1126	1	Ⴞ	cut_ee_stereo_44KHz.wav
0	8	1	2	0	C	2	0	1157	0	Ⴋ	cut_eeuw_stereo_44KHz.wav
0	9	1	1	1	C	2	1	1416	1	Ⴋ	cut_g_stereo_44KHz.wav
0	10	2	4	0	C	1	1	751	1	Ⴞ	cut_ee_stereo_44KHz.wav
0	11	1	2	0	C	1	1	1095	1	Ⴋ	cut_eeuw_stereo_44KHz.wav
0	12	2	3	1	C	2	1	1346	1	Ⴞ	cut_oo_stereo_44KHz.wav
0	13	1	1	1	C	2	1	1376	1	Ⴋ	cut_g_stereo_44KHz.wav
0	14	2	3	1	C	2	1	1515	1	Ⴞ	cut_oo_stereo_44KHz.wav
0	15	1	2	0	C	1	1	1595	1	Ⴋ	cut_eeuw_stereo_44KHz.wav
0	16	2	4	0	C	1	1	1657	1	Ⴞ	cut_ee_stereo_44KHz.wav
0	17	2	4	0	C	1	1	583	1	Ⴞ	cut_ee_stereo_44KHz.wav
0	18	1	2	0	C	1	1	1291	1	Ⴋ	cut_eeuw_stereo_44KHz.wav
0	19	2	3	1	C	2	1	860	1	Ⴞ	cut_oo_stereo_44KHz.wav
0	20	1	1	1	C	2	1	1154	1	Ⴋ	cut_g_stereo_44KHz.wav
0	21	2	4	0	C	1	1	891	1	Ⴞ	cut_ee_stereo_44KHz.wav
0	22	1	2	0	C	1	1	1099	1	Ⴋ	cut_eeuw_stereo_44KHz.wav
0	23	2	3	1	C	2	1	1639	1	Ⴞ	cut_oo_stereo_44KHz.wav
0	24	1	1	1	C	1	0	1147	0	Ⴋ	cut_g_stereo_44KHz.wav
0	25	1	1	1	C	2	1	1450	1	Ⴋ	cut_g_stereo_44KHz.wav
0	26	2	4	0	C	1	1	630	1	Ⴞ	cut_ee_stereo_44KHz.wav
0	27	2	3	1	C	2	1	1403	1	Ⴞ	cut_oo_stereo_44KHz.wav
0	28	1	2	0	C	1	1	1321	1	Ⴋ	cut_eeuw_stereo_44KHz.wav
0	29	1	2	0	C	1	1	830	1	Ⴋ	cut_eeuw_stereo_44KHz.wav
0	30	2	4	0	C	1	1	1371	1	Ⴞ	cut_ee_stereo_44KHz.wav
avg_resp = 1175
1	1	3	3	2	I	1	0	1576	1	Ⴇ	cut_w_stereo_44KHz.wav
1	2	2	2	1	C	1	0	890	0	Ⴃ	cut_h_stereo_44KHz.wav
1	3	1	2	0	C	1	1	616	1	Ⴜ	cut_h_stereo_44KHz.wav
1	4	4	3	2	I	1	0	860	0	Ⴂ	cut_w_stereo_44KHz.wav
1	5	1	1	1	C	1	0	892	0	Ⴜ	cut_l_stereo_44KHz.wav
1	6	2	1	0	C	1	1	799	1	Ⴃ	cut_l_stereo_44KHz.wav
1	7	4	4	2	I	1	0	1039	0	Ⴂ	cut_g_stereo_44KHz.wav
1	8	3	4	2	I	1	0	735	1	Ⴇ	cut_g_stereo_44KHz.wav
1	9	2	1	0	C	1	1	748	1	Ⴃ	cut_l_stereo_44KHz.wav
1	10	1	2	0	C	1	1	880	1	Ⴜ	cut_h_stereo_44KHz.wav
1	11	3	4	2	I	1	0	1056	0	Ⴇ	cut_g_stereo_44KHz.wav
1	12	4	4	2	I	2	0	940	1	Ⴂ	cut_g_stereo_44KHz.wav
1	13	2	2	1	C	2	1	1015	1	Ⴃ	cut_h_stereo_44KHz.wav
1	14	3	3	2	I	1	0	895	1	Ⴇ	cut_w_stereo_44KHz.wav
1	15	4	3	2	I	2	0	726	0	Ⴂ	cut_w_stereo_44KHz.wav
1	16	1	1	1	C	2	1	1424	1	Ⴜ	cut_l_stereo_44KHz.wav
1	17	3	4	2	I	2	0	1346	0	Ⴇ	cut_g_stereo_44KHz.wav
1	18	4	4	2	I	2	0	825	0	Ⴂ	cut_g_stereo_44KHz.wav
1	19	2	2	1	C	1	0	947	0	Ⴃ	cut_h_stereo_44KHz.wav
1	20	1	2	0	C	1	1	1481	1	Ⴜ	cut_h_stereo_44KHz.wav
1	21	2	1	0	C	1	1	747	1	Ⴃ	cut_l_stereo_44KHz.wav
1	22	1	1	1	C	2	1	873	1	Ⴜ	cut_l_stereo_44KHz.wav
1	23	4	3	2	I	2	0	997	0	Ⴂ	cut_w_stereo_44KHz.wav
1	24	3	3	2	I	2	0	694	0	Ⴇ	cut_w_stereo_44KHz.wav
1	25	2	2	1	C	2	1	1118	1	Ⴃ	cut_h_stereo_44KHz.wav
1	26	4	3	2	I	2	0	850	0	Ⴂ	cut_w_stereo_44KHz.wav
1	27	1	1	1	C	1	0	1188	0	Ⴜ	cut_l_stereo_44KHz.wav
1	28	3	3	2	I	1	0	748	1	Ⴇ	cut_w_stereo_44KHz.wav
1	29	2	1	0	C	1	1	760	1	Ⴃ	cut_l_stereo_44KHz.wav
1	30	3	4	2	I	1	0	984	1	Ⴇ	cut_g_stereo_44KHz.wav
1	31	1	2	0	C	1	1	1026	1	Ⴜ	cut_h_stereo_44KHz.wav
1	32	4	4	2	I	2	0	1151	1	Ⴂ	cut_g_stereo_44KHz.wav
1	33	3	3	2	I	1	0	677	1	Ⴇ	cut_w_stereo_44KHz.wav
1	34	2	1	0	C	1	1	760	1	Ⴃ	cut_l_stereo_44KHz.wav
1	35	4	4	2	I	1	0	1781	1	Ⴂ	cut_g_stereo_44KHz.wav
1	36	1	2	0	C	1	1	727	1	Ⴜ	cut_h_stereo_44KHz.wav
1	37	4	3	2	I	2	0	918	1	Ⴂ	cut_w_stereo_44KHz.wav
1	38	1	1	1	C	1	0	1005	0	Ⴜ	cut_l_stereo_44KHz.wav
1	39	3	4	2	I	1	0	925	1	Ⴇ	cut_g_stereo_44KHz.wav
1	40	2	2	1	C	2	1	1103	1	Ⴃ	cut_h_stereo_44KHz.wav
1	41	4	3	2	I	2	0	991	0	Ⴂ	cut_w_stereo_44KHz.wav
1	42	2	2	1	C	1	0	866	0	Ⴃ	cut_h_stereo_44KHz.wav
1	43	1	1	1	C	1	0	782	0	Ⴜ	cut_l_stereo_44KHz.wav
1	44	3	3	2	I	1	0	582	1	Ⴇ	cut_w_stereo_44KHz.wav
1	45	2	1	0	C	1	1	653	1	Ⴃ	cut_l_stereo_44KHz.wav
1	46	3	4	2	I	1	0	767	0	Ⴇ	cut_g_stereo_44KHz.wav
1	47	4	4	2	I	1	0	688	0	Ⴂ	cut_g_stereo_44KHz.wav
1	48	1	2	0	C	1	1	655	1	Ⴜ	cut_h_stereo_44KHz.wav
1	49	2	1	0	C	1	1	972	1	Ⴃ	cut_l_stereo_44KHz.wav
1	50	1	1	1	C	2	1	678	1	Ⴜ	cut_l_stereo_44KHz.wav
1	51	4	4	2	I	2	0	865	0	Ⴂ	cut_g_stereo_44KHz.wav
1	52	3	4	2	I	1	0	719	0	Ⴇ	cut_g_stereo_44KHz.wav
1	53	4	3	2	I	2	0	1847	1	Ⴂ	cut_w_stereo_44KHz.wav
1	54	3	3	2	I	1	0	648	0	Ⴇ	cut_w_stereo_44KHz.wav
1	55	2	2	1	C	2	1	788	1	Ⴃ	cut_h_stereo_44KHz.wav
1	56	1	2	0	C	2	0	969	0	Ⴜ	cut_h_stereo_44KHz.wav
1	57	3	3	2	I	1	0	700	0	Ⴇ	cut_w_stereo_44KHz.wav
1	58	2	2	1	C	2	1	834	1	Ⴃ	cut_h_stereo_44KHz.wav
1	59	1	2	0	C	1	1	656	1	Ⴜ	cut_h_stereo_44KHz.wav
1	60	4	3	2	I	1	0	1032	1	Ⴂ	cut_w_stereo_44KHz.wav
1	61	3	4	2	I	1	0	1195	0	Ⴇ	cut_g_stereo_44KHz.wav
1	62	2	1	0	C	2	0	1386	0	Ⴃ	cut_l_stereo_44KHz.wav
1	63	4	4	2	I	1	0	793	1	Ⴂ	cut_g_stereo_44KHz.wav
1	64	1	1	1	C	2	1	1615	1	Ⴜ	cut_l_stereo_44KHz.wav
1	65	4	3	2	I	1	0	636	1	Ⴂ	cut_w_stereo_44KHz.wav
1	66	2	1	0	C	1	1	904	1	Ⴃ	cut_l_stereo_44KHz.wav
1	67	3	3	2	I	2	0	1111	0	Ⴇ	cut_w_stereo_44KHz.wav
1	68	1	1	1	C	2	1	999	1	Ⴜ	cut_l_stereo_44KHz.wav
1	69	3	4	2	I	1	0	1348	1	Ⴇ	cut_g_stereo_44KHz.wav
1	70	4	4	2	I	1	0	970	0	Ⴂ	cut_g_stereo_44KHz.wav
1	71	2	2	1	C	2	1	915	1	Ⴃ	cut_h_stereo_44KHz.wav
1	72	1	2	0	C	1	1	494	1	Ⴜ	cut_h_stereo_44KHz.wav
1	73	4	3	2	I	2	0	1017	1	Ⴂ	cut_w_stereo_44KHz.wav
1	74	1	2	0	C	1	1	774	1	Ⴜ	cut_h_stereo_44KHz.wav
1	75	2	1	0	C	1	1	677	1	Ⴃ	cut_l_stereo_44KHz.wav
1	76	3	3	2	I	1	0	589	1	Ⴇ	cut_w_stereo_44KHz.wav
1	77	1	1	1	C	2	1	817	1	Ⴜ	cut_l_stereo_44KHz.wav
1	78	3	4	2	I	1	0	731	0	Ⴇ	cut_g_stereo_44KHz.wav
1	79	2	2	1	C	2	1	822	1	Ⴃ	cut_h_stereo_44KHz.wav
1	80	4	4	2	I	1	0	536	0	Ⴂ	cut_g_stereo_44KHz.wav
1	81	1	1	1	C	2	1	925	1	Ⴜ	cut_l_stereo_44KHz.wav
1	82	3	4	2	I	1	0	790	0	Ⴇ	cut_g_stereo_44KHz.wav
1	83	2	1	0	C	1	1	700	1	Ⴃ	cut_l_stereo_44KHz.wav
1	84	4	3	2	I	1	0	896	0	Ⴂ	cut_w_stereo_44KHz.wav
1	85	3	3	2	I	1	0	669	1	Ⴇ	cut_w_stereo_44KHz.wav
1	86	2	2	1	C	2	1	1024	1	Ⴃ	cut_h_stereo_44KHz.wav
1	87	4	4	2	I	1	0	939	0	Ⴂ	cut_g_stereo_44KHz.wav
1	88	1	2	0	C	1	1	1294	1	Ⴜ	cut_h_stereo_44KHz.wav
1	89	4	4	2	I	2	0	762	1	Ⴂ	cut_g_stereo_44KHz.wav
1	90	2	2	1	C	2	1	906	1	Ⴃ	cut_h_stereo_44KHz.wav
1	91	1	1	1	C	2	1	711	1	Ⴜ	cut_l_stereo_44KHz.wav
1	92	3	3	2	I	1	0	697	0	Ⴇ	cut_w_stereo_44KHz.wav
1	93	4	3	2	I	1	0	621	0	Ⴂ	cut_w_stereo_44KHz.wav
1	94	1	2	0	C	1	1	1439	1	Ⴜ	cut_h_stereo_44KHz.wav
1	95	2	1	0	C	1	1	1585	1	Ⴃ	cut_l_stereo_44KHz.wav
1	96	3	4	2	I	1	0	903	1	Ⴇ	cut_g_stereo_44KHz.wav
1	97	4	4	2	I	2	0	963	0	Ⴂ	cut_g_stereo_44KHz.wav
1	98	3	3	2	I	1	0	641	1	Ⴇ	cut_w_stereo_44KHz.wav
1	99	1	1	1	C	2	1	858	1	Ⴜ	cut_l_stereo_44KHz.wav
1	100	2	1	0	C	1	1	751	1	Ⴃ	cut_l_stereo_44KHz.wav
1	101	3	4	2	I	1	0	817	0	Ⴇ	cut_g_stereo_44KHz.wav
1	102	2	2	1	C	2	1	894	1	Ⴃ	cut_h_stereo_44KHz.wav
1	103	4	3	2	I	1	0	719	1	Ⴂ	cut_w_stereo_44KHz.wav
1	104	1	2	0	C	1	1	1353	1	Ⴜ	cut_h_stereo_44KHz.wav
1	105	3	4	2	I	1	0	721	1	Ⴇ	cut_g_stereo_44KHz.wav
1	106	2	1	0	C	1	1	903	1	Ⴃ	cut_l_stereo_44KHz.wav
1	107	1	1	1	C	2	1	993	1	Ⴜ	cut_l_stereo_44KHz.wav
1	108	4	3	2	I	1	0	1088	1	Ⴂ	cut_w_stereo_44KHz.wav
1	109	2	2	1	C	2	1	812	1	Ⴃ	cut_h_stereo_44KHz.wav
1	110	4	4	2	I	2	0	1086	1	Ⴂ	cut_g_stereo_44KHz.wav
1	111	1	2	0	C	1	1	1261	1	Ⴜ	cut_h_stereo_44KHz.wav
1	112	3	3	2	I	1	0	766	0	Ⴇ	cut_w_stereo_44KHz.wav
1	113	4	3	2	I	1	0	497	0	Ⴂ	cut_w_stereo_44KHz.wav
1	114	3	4	2	I	2	0	1087	0	Ⴇ	cut_g_stereo_44KHz.wav
1	115	2	1	0	C	1	1	792	1	Ⴃ	cut_l_stereo_44KHz.wav
1	116	1	2	0	C	1	1	1104	1	Ⴜ	cut_h_stereo_44KHz.wav
1	117	2	2	1	C	2	1	893	1	Ⴃ	cut_h_stereo_44KHz.wav
1	118	3	3	2	I	1	0	720	0	Ⴇ	cut_w_stereo_44KHz.wav
1	119	4	4	2	I	1	0	1105	1	Ⴂ	cut_g_stereo_44KHz.wav
1	120	1	1	1	C	2	1	832	1	Ⴜ	cut_l_stereo_44KHz.wav
1	121	3	3	2	I	1	0	685	1	Ⴇ	cut_w_stereo_44KHz.wav
1	122	2	2	1	C	2	1	1069	1	Ⴃ	cut_h_stereo_44KHz.wav
1	123	4	3	2	I	1	0	832	0	Ⴂ	cut_w_stereo_44KHz.wav
1	124	1	2	0	C	1	1	968	1	Ⴜ	cut_h_stereo_44KHz.wav
1	125	3	4	2	I	1	0	839	1	Ⴇ	cut_g_stereo_44KHz.wav
1	126	1	1	1	C	2	1	1419	1	Ⴜ	cut_l_stereo_44KHz.wav
1	127	4	4	2	I	1	0	816	0	Ⴂ	cut_g_stereo_44KHz.wav
1	128	2	1	0	C	1	1	1748	1	Ⴃ	cut_l_stereo_44KHz.wav
1	129	3	4	2	I	1	0	872	0	Ⴇ	cut_g_stereo_44KHz.wav
1	130	4	4	2	I	1	0	864	1	Ⴂ	cut_g_stereo_44KHz.wav
1	131	1	2	0	C	1	1	1187	1	Ⴜ	cut_h_stereo_44KHz.wav
1	132	2	1	0	C	1	1	632	1	Ⴃ	cut_l_stereo_44KHz.wav
1	133	4	3	2	I	2	0	1055	1	Ⴂ	cut_w_stereo_44KHz.wav
1	134	3	3	2	I	1	0	721	0	Ⴇ	cut_w_stereo_44KHz.wav
1	135	1	1	1	C	2	1	820	1	Ⴜ	cut_l_stereo_44KHz.wav
1	136	2	2	1	C	2	1	782	1	Ⴃ	cut_h_stereo_44KHz.wav
1	137	3	3	2	I	1	0	638	1	Ⴇ	cut_w_stereo_44KHz.wav
1	138	1	1	1	C	2	1	1452	1	Ⴜ	cut_l_stereo_44KHz.wav
1	139	2	2	1	C	2	1	931	1	Ⴃ	cut_h_stereo_44KHz.wav
1	140	4	3	2	I	1	0	1001	1	Ⴂ	cut_w_stereo_44KHz.wav
1	141	3	4	2	I	1	0	850	0	Ⴇ	cut_g_stereo_44KHz.wav
1	142	1	2	0	C	2	0	850	0	Ⴜ	cut_h_stereo_44KHz.wav
1	143	2	1	0	C	1	1	616	1	Ⴃ	cut_l_stereo_44KHz.wav
1	144	4	4	2	I	1	0	728	0	Ⴂ	cut_g_stereo_44KHz.wav
1	145	3	4	2	I	1	0	655	1	Ⴇ	cut_g_stereo_44KHz.wav
1	146	1	1	1	C	2	1	1155	1	Ⴜ	cut_l_stereo_44KHz.wav
1	147	2	1	0	C	1	1	728	1	Ⴃ	cut_l_stereo_44KHz.wav
1	148	4	3	2	I	1	0	837	0	Ⴂ	cut_w_stereo_44KHz.wav
1	149	3	3	2	I	1	0	648	1	Ⴇ	cut_w_stereo_44KHz.wav
1	150	1	2	0	C	2	0	1182	0	Ⴜ	cut_h_stereo_44KHz.wav
1	151	4	4	2	I	1	0	936	1	Ⴂ	cut_g_stereo_44KHz.wav
1	152	2	2	1	C	2	1	1074	1	Ⴃ	cut_h_stereo_44KHz.wav
1	153	1	2	0	C	1	1	538	1	Ⴜ	cut_h_stereo_44KHz.wav
1	154	4	4	2	I	1	0	793	0	Ⴂ	cut_g_stereo_44KHz.wav
1	155	2	1	0	C	1	1	832	1	Ⴃ	cut_l_stereo_44KHz.wav
1	156	3	4	2	I	1	0	823	1	Ⴇ	cut_g_stereo_44KHz.wav
1	157	4	3	2	I	2	0	977	1	Ⴂ	cut_w_stereo_44KHz.wav
1	158	1	1	1	C	2	1	800	1	Ⴜ	cut_l_stereo_44KHz.wav
1	159	2	2	1	C	2	1	781	1	Ⴃ	cut_h_stereo_44KHz.wav
1	160	3	3	2	I	1	0	740	0	Ⴇ	cut_w_stereo_44KHz.wav
1	161	1	2	0	C	1	1	649	1	Ⴜ	cut_h_stereo_44KHz.wav
1	162	4	3	2	I	2	0	1033	1	Ⴂ	cut_w_stereo_44KHz.wav
1	163	2	2	1	C	2	1	1010	1	Ⴃ	cut_h_stereo_44KHz.wav
1	164	3	3	2	I	1	0	993	0	Ⴇ	cut_w_stereo_44KHz.wav
1	165	4	4	2	I	1	0	1022	0	Ⴂ	cut_g_stereo_44KHz.wav
1	166	1	1	1	C	2	1	856	1	Ⴜ	cut_l_stereo_44KHz.wav
1	167	3	4	2	I	1	0	924	1	Ⴇ	cut_g_stereo_44KHz.wav
1	168	2	1	0	C	1	1	658	1	Ⴃ	cut_l_stereo_44KHz.wav
1	169	1	2	0	C	1	1	793	1	Ⴜ	cut_h_stereo_44KHz.wav
1	170	4	4	2	I	1	0	952	1	Ⴂ	cut_g_stereo_44KHz.wav
1	171	2	2	1	C	2	1	745	1	Ⴃ	cut_h_stereo_44KHz.wav
1	172	3	3	2	I	1	0	708	1	Ⴇ	cut_w_stereo_44KHz.wav
1	173	4	3	2	I	2	0	1017	1	Ⴂ	cut_w_stereo_44KHz.wav
1	174	2	1	0	C	1	1	576	1	Ⴃ	cut_l_stereo_44KHz.wav
1	175	1	1	1	C	2	1	1146	1	Ⴜ	cut_l_stereo_44KHz.wav
1	176	3	4	2	I	2	0	953	0	Ⴇ	cut_g_stereo_44KHz.wav
1	177	1	2	0	C	1	1	982	1	Ⴜ	cut_h_stereo_44KHz.wav
1	178	2	1	0	C	1	1	630	1	Ⴃ	cut_l_stereo_44KHz.wav
1	179	4	3	2	I	2	0	958	1	Ⴂ	cut_w_stereo_44KHz.wav
1	180	3	4	2	I	1	0	695	0	Ⴇ	cut_g_stereo_44KHz.wav
1	181	2	2	1	C	2	1	821	1	Ⴃ	cut_h_stereo_44KHz.wav
1	182	3	3	2	I	1	0	731	1	Ⴇ	cut_w_stereo_44KHz.wav
1	183	1	1	1	C	1	0	824	0	Ⴜ	cut_l_stereo_44KHz.wav
1	184	4	4	2	I	1	0	917	1	Ⴂ	cut_g_stereo_44KHz.wav
1	185	3	4	2	I	2	0	969	1	Ⴇ	cut_g_stereo_44KHz.wav
1	186	2	1	0	C	1	1	638	1	Ⴃ	cut_l_stereo_44KHz.wav
1	187	4	4	2	I	1	0	842	1	Ⴂ	cut_g_stereo_44KHz.wav
1	188	1	2	0	C	1	1	972	1	Ⴜ	cut_h_stereo_44KHz.wav
1	189	3	3	2	I	1	0	736	1	Ⴇ	cut_w_stereo_44KHz.wav
1	190	2	2	1	C	2	1	738	1	Ⴃ	cut_h_stereo_44KHz.wav
1	191	1	1	1	C	2	1	1450	1	Ⴜ	cut_l_stereo_44KHz.wav
1	192	4	3	2	I	2	0	863	0	Ⴂ	cut_w_stereo_44KHz.wav
1	193	1	2	0	C	1	1	1190	1	Ⴜ	cut_h_stereo_44KHz.wav
1	194	2	1	0	C	1	1	614	1	Ⴃ	cut_l_stereo_44KHz.wav
1	195	3	4	2	I	1	0	987	0	Ⴇ	cut_g_stereo_44KHz.wav
1	196	4	3	2	I	2	0	952	0	Ⴂ	cut_w_stereo_44KHz.wav
1	197	2	2	1	C	2	1	855	1	Ⴃ	cut_h_stereo_44KHz.wav
1	198	4	4	2	I	1	0	822	0	Ⴂ	cut_g_stereo_44KHz.wav
1	199	3	3	2	I	2	0	907	0	Ⴇ	cut_w_stereo_44KHz.wav
1	200	1	1	1	C	2	1	1262	1	Ⴜ	cut_l_stereo_44KHz.wav
2	1	4	3	2	I	0	0	0	0	Ⴒ	cut_ui_stereo_44KHz.wav
2	2	1	1	1	C	2	1	630	1	Ⴉ	cut_oei_stereo_44KHz.wav
2	3	2	1	0	C	1	1	946	1	Ⴔ	cut_oei_stereo_44KHz.wav
2	4	3	3	2	I	1	0	933	0	Ⴐ	cut_ui_stereo_44KHz.wav
2	5	4	4	2	I	1	0	773	0	Ⴒ	cut_j_stereo_44KHz.wav
2	6	1	2	0	C	1	1	878	1	Ⴉ	cut_f_stereo_44KHz.wav
2	7	3	4	2	I	1	0	805	0	Ⴐ	cut_j_stereo_44KHz.wav
2	8	2	2	1	C	1	0	1288	0	Ⴔ	cut_f_stereo_44KHz.wav
2	9	4	4	2	I	1	0	1037	1	Ⴒ	cut_j_stereo_44KHz.wav
2	10	1	1	1	C	1	0	968	0	Ⴉ	cut_oei_stereo_44KHz.wav
2	11	2	2	1	C	2	1	985	1	Ⴔ	cut_f_stereo_44KHz.wav
2	12	3	3	2	I	1	0	889	0	Ⴐ	cut_ui_stereo_44KHz.wav
2	13	1	2	0	C	1	1	1265	1	Ⴉ	cut_f_stereo_44KHz.wav
2	14	3	4	2	I	2	0	817	0	Ⴐ	cut_j_stereo_44KHz.wav
2	15	4	3	2	I	1	0	1062	0	Ⴒ	cut_ui_stereo_44KHz.wav
2	16	2	1	0	C	2	0	844	0	Ⴔ	cut_oei_stereo_44KHz.wav
2	17	4	4	2	I	1	0	1806	1	Ⴒ	cut_j_stereo_44KHz.wav
2	18	3	3	2	I	2	0	887	1	Ⴐ	cut_ui_stereo_44KHz.wav
2	19	1	1	1	C	1	0	1196	0	Ⴉ	cut_oei_stereo_44KHz.wav
2	20	2	1	0	C	2	0	1098	0	Ⴔ	cut_oei_stereo_44KHz.wav
2	21	3	4	2	I	1	0	1106	1	Ⴐ	cut_j_stereo_44KHz.wav
2	22	1	2	0	C	1	1	726	1	Ⴉ	cut_f_stereo_44KHz.wav
2	23	4	3	2	I	2	0	1152	1	Ⴒ	cut_ui_stereo_44KHz.wav
2	24	2	2	1	C	2	1	1121	1	Ⴔ	cut_f_stereo_44KHz.wav
2	25	4	3	2	I	2	0	1005	0	Ⴒ	cut_ui_stereo_44KHz.wav
2	26	2	1	0	C	1	1	1843	1	Ⴔ	cut_oei_stereo_44KHz.wav
2	27	1	2	0	C	1	1	781	1	Ⴉ	cut_f_stereo_44KHz.wav
2	28	3	3	2	I	1	0	1253	1	Ⴐ	cut_ui_stereo_44KHz.wav
2	29	2	2	1	C	1	0	1523	0	Ⴔ	cut_f_stereo_44KHz.wav
2	30	1	1	1	C	2	1	904	1	Ⴉ	cut_oei_stereo_44KHz.wav
2	31	3	4	2	I	1	0	936	0	Ⴐ	cut_j_stereo_44KHz.wav
2	32	4	4	2	I	1	0	725	1	Ⴒ	cut_j_stereo_44KHz.wav
2	33	2	2	1	C	2	1	1860	1	Ⴔ	cut_f_stereo_44KHz.wav
2	34	1	2	0	C	1	1	699	1	Ⴉ	cut_f_stereo_44KHz.wav
2	35	4	3	2	I	1	0	1290	0	Ⴒ	cut_ui_stereo_44KHz.wav
2	36	3	3	2	I	1	0	922	1	Ⴐ	cut_ui_stereo_44KHz.wav
2	37	1	1	1	C	2	1	1495	1	Ⴉ	cut_oei_stereo_44KHz.wav
2	38	4	4	2	I	1	0	1262	0	Ⴒ	cut_j_stereo_44KHz.wav
2	39	3	4	2	I	1	0	687	1	Ⴐ	cut_j_stereo_44KHz.wav
2	40	2	1	0	C	1	1	1055	1	Ⴔ	cut_oei_stereo_44KHz.wav
2	41	1	1	1	C	2	1	806	1	Ⴉ	cut_oei_stereo_44KHz.wav
2	42	4	4	2	I	2	0	1493	1	Ⴒ	cut_j_stereo_44KHz.wav
2	43	3	3	2	I	2	0	1133	0	Ⴐ	cut_ui_stereo_44KHz.wav
2	44	2	1	0	C	1	1	1191	1	Ⴔ	cut_oei_stereo_44KHz.wav
2	45	3	4	2	I	1	0	880	0	Ⴐ	cut_j_stereo_44KHz.wav
2	46	4	3	2	I	2	0	973	1	Ⴒ	cut_ui_stereo_44KHz.wav
2	47	1	2	0	C	1	1	663	1	Ⴉ	cut_f_stereo_44KHz.wav
2	48	2	2	1	C	2	1	908	1	Ⴔ	cut_f_stereo_44KHz.wav
2	49	4	3	2	I	2	0	1017	0	Ⴒ	cut_ui_stereo_44KHz.wav
2	50	2	2	1	C	2	1	1478	1	Ⴔ	cut_f_stereo_44KHz.wav
2	51	1	1	1	C	2	1	698	1	Ⴉ	cut_oei_stereo_44KHz.wav
2	52	3	3	2	I	2	0	723	1	Ⴐ	cut_ui_stereo_44KHz.wav
2	53	4	4	2	I	2	0	1413	1	Ⴒ	cut_j_stereo_44KHz.wav
2	54	2	1	0	C	1	1	1762	1	Ⴔ	cut_oei_stereo_44KHz.wav
2	55	3	4	2	I	1	0	927	0	Ⴐ	cut_j_stereo_44KHz.wav
2	56	1	2	0	C	1	1	888	1	Ⴉ	cut_f_stereo_44KHz.wav
2	57	4	4	2	I	2	0	1376	1	Ⴒ	cut_j_stereo_44KHz.wav
2	58	1	2	0	C	1	1	682	1	Ⴉ	cut_f_stereo_44KHz.wav
2	59	2	1	0	C	1	1	764	1	Ⴔ	cut_oei_stereo_44KHz.wav
2	60	3	3	2	I	2	0	1071	1	Ⴐ	cut_ui_stereo_44KHz.wav
2	61	1	1	1	C	2	1	1054	1	Ⴉ	cut_oei_stereo_44KHz.wav
2	62	4	3	2	I	2	0	992	0	Ⴒ	cut_ui_stereo_44KHz.wav
2	63	3	4	2	I	1	0	921	1	Ⴐ	cut_j_stereo_44KHz.wav
2	64	2	2	1	C	2	1	1442	1	Ⴔ	cut_f_stereo_44KHz.wav
2	65	3	3	2	I	1	0	1598	1	Ⴐ	cut_ui_stereo_44KHz.wav
2	66	1	2	0	C	1	1	816	1	Ⴉ	cut_f_stereo_44KHz.wav
2	67	2	2	1	C	2	1	1057	1	Ⴔ	cut_f_stereo_44KHz.wav
2	68	4	3	2	I	1	0	1253	1	Ⴒ	cut_ui_stereo_44KHz.wav
2	69	2	1	0	C	1	1	1038	1	Ⴔ	cut_oei_stereo_44KHz.wav
2	70	4	4	2	I	2	0	1586	0	Ⴒ	cut_j_stereo_44KHz.wav
2	71	1	1	1	C	2	1	1335	1	Ⴉ	cut_oei_stereo_44KHz.wav
2	72	3	4	2	I	1	0	1431	1	Ⴐ	cut_j_stereo_44KHz.wav
2	73	1	2	0	C	1	1	1261	1	Ⴉ	cut_f_stereo_44KHz.wav
2	74	2	2	1	C	2	1	799	1	Ⴔ	cut_f_stereo_44KHz.wav
2	75	4	3	2	I	2	0	1122	0	Ⴒ	cut_ui_stereo_44KHz.wav
2	76	3	4	2	I	1	0	1005	0	Ⴐ	cut_j_stereo_44KHz.wav
2	77	4	4	2	I	2	0	1020	0	Ⴒ	cut_j_stereo_44KHz.wav
2	78	1	1	1	C	2	1	830	1	Ⴉ	cut_oei_stereo_44KHz.wav
2	79	2	1	0	C	1	1	628	1	Ⴔ	cut_oei_stereo_44KHz.wav
2	80	3	3	2	I	1	0	1274	1	Ⴐ	cut_ui_stereo_44KHz.wav
2	81	1	1	1	C	2	1	857	1	Ⴉ	cut_oei_stereo_44KHz.wav
2	82	3	3	2	I	2	0	887	0	Ⴐ	cut_ui_stereo_44KHz.wav
2	83	2	2	1	C	2	1	1314	1	Ⴔ	cut_f_stereo_44KHz.wav
2	84	4	3	2	I	2	0	871	0	Ⴒ	cut_ui_stereo_44KHz.wav
2	85	2	1	0	C	1	1	1136	1	Ⴔ	cut_oei_stereo_44KHz.wav
2	86	4	4	2	I	1	0	955	0	Ⴒ	cut_j_stereo_44KHz.wav
2	87	3	4	2	I	2	0	908	1	Ⴐ	cut_j_stereo_44KHz.wav
2	88	1	2	0	C	1	1	644	1	Ⴉ	cut_f_stereo_44KHz.wav
2	89	2	2	1	C	2	1	782	1	Ⴔ	cut_f_stereo_44KHz.wav
2	90	3	4	2	I	1	0	1247	0	Ⴐ	cut_j_stereo_44KHz.wav
2	91	4	4	2	I	1	0	1118	0	Ⴒ	cut_j_stereo_44KHz.wav
2	92	1	2	0	C	1	1	1321	1	Ⴉ	cut_f_stereo_44KHz.wav
2	93	4	3	2	I	2	0	1165	0	Ⴒ	cut_ui_stereo_44KHz.wav
2	94	2	1	0	C	1	1	1373	1	Ⴔ	cut_oei_stereo_44KHz.wav
2	95	3	3	2	I	1	0	891	1	Ⴐ	cut_ui_stereo_44KHz.wav
2	96	1	1	1	C	2	1	1061	1	Ⴉ	cut_oei_stereo_44KHz.wav
2	97	3	4	2	I	2	0	1684	1	Ⴐ	cut_j_stereo_44KHz.wav
2	98	2	1	0	C	1	1	1311	1	Ⴔ	cut_oei_stereo_44KHz.wav
2	99	1	1	1	C	2	1	791	1	Ⴉ	cut_oei_stereo_44KHz.wav
2	100	4	4	2	I	1	0	991	0	Ⴒ	cut_j_stereo_44KHz.wav
2	101	2	2	1	C	2	1	1089	1	Ⴔ	cut_f_stereo_44KHz.wav
2	102	4	3	2	I	1	0	1444	1	Ⴒ	cut_ui_stereo_44KHz.wav
2	103	1	2	0	C	1	1	1078	1	Ⴉ	cut_f_stereo_44KHz.wav
2	104	3	3	2	I	1	0	483	0	Ⴐ	cut_ui_stereo_44KHz.wav
2	105	2	1	0	C	1	1	1699	1	Ⴔ	cut_oei_stereo_44KHz.wav
2	106	4	3	2	I	1	0	1069	1	Ⴒ	cut_ui_stereo_44KHz.wav
2	107	1	2	0	C	1	1	593	1	Ⴉ	cut_f_stereo_44KHz.wav
2	108	3	4	2	I	1	0	730	1	Ⴐ	cut_j_stereo_44KHz.wav
2	109	4	4	2	I	2	0	1550	0	Ⴒ	cut_j_stereo_44KHz.wav
2	110	1	1	1	C	2	1	913	1	Ⴉ	cut_oei_stereo_44KHz.wav
2	111	3	3	2	I	1	0	1415	0	Ⴐ	cut_ui_stereo_44KHz.wav
2	112	2	2	1	C	1	0	580	0	Ⴔ	cut_f_stereo_44KHz.wav
2	113	3	3	2	I	2	0	1305	1	Ⴐ	cut_ui_stereo_44KHz.wav
2	114	4	4	2	I	0	0	0	0	Ⴒ	cut_j_stereo_44KHz.wav
2	115	1	1	1	C	2	1	773	1	Ⴉ	cut_oei_stereo_44KHz.wav
2	116	2	1	0	C	1	1	834	1	Ⴔ	cut_oei_stereo_44KHz.wav
2	117	1	2	0	C	1	1	741	1	Ⴉ	cut_f_stereo_44KHz.wav
2	118	4	3	2	I	1	0	1164	0	Ⴒ	cut_ui_stereo_44KHz.wav
2	119	2	2	1	C	2	1	960	1	Ⴔ	cut_f_stereo_44KHz.wav
2	120	3	4	2	I	1	0	896	1	Ⴐ	cut_j_stereo_44KHz.wav
2	121	4	3	2	I	2	0	687	1	Ⴒ	cut_ui_stereo_44KHz.wav
2	122	2	2	1	C	2	1	844	1	Ⴔ	cut_f_stereo_44KHz.wav
2	123	1	2	0	C	1	1	1101	1	Ⴉ	cut_f_stereo_44KHz.wav
2	124	3	3	2	I	2	0	1028	0	Ⴐ	cut_ui_stereo_44KHz.wav
2	125	2	1	0	C	2	0	872	0	Ⴔ	cut_oei_stereo_44KHz.wav
2	126	4	4	2	I	1	0	844	0	Ⴒ	cut_j_stereo_44KHz.wav
2	127	3	4	2	I	1	0	1199	1	Ⴐ	cut_j_stereo_44KHz.wav
2	128	1	1	1	C	2	1	953	1	Ⴉ	cut_oei_stereo_44KHz.wav
2	129	3	4	2	I	1	0	666	1	Ⴐ	cut_j_stereo_44KHz.wav
2	130	1	1	1	C	2	1	772	1	Ⴉ	cut_oei_stereo_44KHz.wav
2	131	4	3	2	I	1	0	1057	1	Ⴒ	cut_ui_stereo_44KHz.wav
2	132	2	2	1	C	2	1	1033	1	Ⴔ	cut_f_stereo_44KHz.wav
2	133	4	4	2	I	2	0	1068	0	Ⴒ	cut_j_stereo_44KHz.wav
2	134	2	1	0	C	1	1	1249	1	Ⴔ	cut_oei_stereo_44KHz.wav
2	135	1	2	0	C	1	1	766	1	Ⴉ	cut_f_stereo_44KHz.wav
2	136	3	3	2	I	1	0	604	0	Ⴐ	cut_ui_stereo_44KHz.wav
2	137	4	3	2	I	1	0	889	0	Ⴒ	cut_ui_stereo_44KHz.wav
2	138	2	1	0	C	1	1	952	1	Ⴔ	cut_oei_stereo_44KHz.wav
2	139	1	2	0	C	1	1	696	1	Ⴉ	cut_f_stereo_44KHz.wav
2	140	3	4	2	I	2	0	1099	0	Ⴐ	cut_j_stereo_44KHz.wav
2	141	4	4	2	I	2	0	947	0	Ⴒ	cut_j_stereo_44KHz.wav
2	142	2	2	1	C	2	1	1169	1	Ⴔ	cut_f_stereo_44KHz.wav
2	143	1	1	1	C	2	1	696	1	Ⴉ	cut_oei_stereo_44KHz.wav
2	144	3	3	2	I	1	0	893	0	Ⴐ	cut_ui_stereo_44KHz.wav
2	145	4	3	2	I	1	0	628	1	Ⴒ	cut_ui_stereo_44KHz.wav
2	146	2	2	1	C	2	1	1620	1	Ⴔ	cut_f_stereo_44KHz.wav
2	147	1	2	0	C	1	1	1470	1	Ⴉ	cut_f_stereo_44KHz.wav
2	148	3	4	2	I	1	0	906	1	Ⴐ	cut_j_stereo_44KHz.wav
2	149	1	1	1	C	2	1	817	1	Ⴉ	cut_oei_stereo_44KHz.wav
2	150	4	4	2	I	2	0	887	1	Ⴒ	cut_j_stereo_44KHz.wav
2	151	2	1	0	C	2	0	934	0	Ⴔ	cut_oei_stereo_44KHz.wav
2	152	3	3	2	I	1	0	1511	0	Ⴐ	cut_ui_stereo_44KHz.wav
2	153	1	2	0	C	1	1	1209	1	Ⴉ	cut_f_stereo_44KHz.wav
2	154	2	1	0	C	1	1	773	1	Ⴔ	cut_oei_stereo_44KHz.wav
2	155	3	4	2	I	2	0	828	0	Ⴐ	cut_j_stereo_44KHz.wav
2	156	4	3	2	I	1	0	1332	1	Ⴒ	cut_ui_stereo_44KHz.wav
2	157	3	3	2	I	2	0	1006	0	Ⴐ	cut_ui_stereo_44KHz.wav
2	158	4	4	2	I	2	0	1176	1	Ⴒ	cut_j_stereo_44KHz.wav
2	159	1	1	1	C	2	1	782	1	Ⴉ	cut_oei_stereo_44KHz.wav
2	160	2	2	1	C	1	0	526	0	Ⴔ	cut_f_stereo_44KHz.wav
2	161	3	4	2	I	2	0	760	1	Ⴐ	cut_j_stereo_44KHz.wav
2	162	1	1	1	C	2	1	905	1	Ⴉ	cut_oei_stereo_44KHz.wav
2	163	4	4	2	I	2	0	797	1	Ⴒ	cut_j_stereo_44KHz.wav
2	164	2	1	0	C	1	1	1219	1	Ⴔ	cut_oei_stereo_44KHz.wav
2	165	4	3	2	I	2	0	1093	1	Ⴒ	cut_ui_stereo_44KHz.wav
2	166	2	2	1	C	2	1	755	1	Ⴔ	cut_f_stereo_44KHz.wav
2	167	1	2	0	C	1	1	994	1	Ⴉ	cut_f_stereo_44KHz.wav
2	168	3	3	2	I	2	0	853	0	Ⴐ	cut_ui_stereo_44KHz.wav
2	169	4	4	2	I	1	0	1579	1	Ⴒ	cut_j_stereo_44KHz.wav
2	170	3	4	2	I	1	0	1385	1	Ⴐ	cut_j_stereo_44KHz.wav
2	171	1	1	1	C	2	1	949	1	Ⴉ	cut_oei_stereo_44KHz.wav
2	172	2	1	0	C	1	1	640	1	Ⴔ	cut_oei_stereo_44KHz.wav
2	173	4	3	2	I	2	0	767	1	Ⴒ	cut_ui_stereo_44KHz.wav
2	174	1	2	0	C	1	1	568	1	Ⴉ	cut_f_stereo_44KHz.wav
2	175	2	2	1	C	2	1	808	1	Ⴔ	cut_f_stereo_44KHz.wav
2	176	3	3	2	I	2	0	837	0	Ⴐ	cut_ui_stereo_44KHz.wav
2	177	4	4	2	I	2	0	784	1	Ⴒ	cut_j_stereo_44KHz.wav
2	178	1	1	1	C	2	1	809	1	Ⴉ	cut_oei_stereo_44KHz.wav
2	179	2	1	0	C	1	1	667	1	Ⴔ	cut_oei_stereo_44KHz.wav
2	180	3	4	2	I	1	0	1281	0	Ⴐ	cut_j_stereo_44KHz.wav
2	181	2	2	1	C	2	1	1005	1	Ⴔ	cut_f_stereo_44KHz.wav
2	182	3	3	2	I	2	0	941	1	Ⴐ	cut_ui_stereo_44KHz.wav
2	183	4	3	2	I	2	0	897	0	Ⴒ	cut_ui_stereo_44KHz.wav
2	184	1	2	0	C	1	1	671	1	Ⴉ	cut_f_stereo_44KHz.wav
2	185	2	2	1	C	1	0	535	0	Ⴔ	cut_f_stereo_44KHz.wav
2	186	1	1	1	C	2	1	809	1	Ⴉ	cut_oei_stereo_44KHz.wav
2	187	3	4	2	I	2	0	765	1	Ⴐ	cut_j_stereo_44KHz.wav
2	188	4	4	2	I	2	0	1426	1	Ⴒ	cut_j_stereo_44KHz.wav
2	189	3	3	2	I	2	0	1062	1	Ⴐ	cut_ui_stereo_44KHz.wav
2	190	1	2	0	C	1	1	838	1	Ⴉ	cut_f_stereo_44KHz.wav
2	191	4	3	2	I	2	0	771	0	Ⴒ	cut_ui_stereo_44KHz.wav
2	192	2	1	0	C	1	1	938	1	Ⴔ	cut_oei_stereo_44KHz.wav
2	193	3	3	2	I	1	0	1018	0	Ⴐ	cut_ui_stereo_44KHz.wav
2	194	2	2	1	C	2	1	206	1	Ⴔ	cut_f_stereo_44KHz.wav
2	195	4	3	2	I	1	0	969	0	Ⴒ	cut_ui_stereo_44KHz.wav
2	196	1	1	1	C	2	1	750	1	Ⴉ	cut_oei_stereo_44KHz.wav
2	197	2	1	0	C	1	1	777	1	Ⴔ	cut_oei_stereo_44KHz.wav
2	198	3	4	2	I	1	0	777	0	Ⴐ	cut_j_stereo_44KHz.wav
2	199	4	4	2	I	1	0	654	0	Ⴒ	cut_j_stereo_44KHz.wav
2	200	1	2	0	C	1	1	712	1	Ⴉ	cut_f_stereo_44KHz.wav
3	1	3	4	2	I	2	0	998	0	Ⴖ	cut_u_stereo_44KHz.wav
3	2	1	1	1	C	1	0	910	0	Ⴏ	cut_o_stereo_44KHz.wav
3	3	4	3	2	I	1	0	348	0	Ⴌ	cut_k_stereo_44KHz.wav
3	4	2	1	0	C	1	1	639	1	Ⴕ	cut_o_stereo_44KHz.wav
3	5	3	3	2	I	0	0	0	0	Ⴖ	cut_k_stereo_44KHz.wav
3	6	2	2	1	C	2	1	793	1	Ⴕ	cut_a_stereo_44KHz.wav
3	7	4	4	2	I	1	0	938	0	Ⴌ	cut_u_stereo_44KHz.wav
3	8	1	2	0	C	2	0	763	0	Ⴏ	cut_a_stereo_44KHz.wav
3	9	2	2	1	C	2	1	713	1	Ⴕ	cut_a_stereo_44KHz.wav
3	10	1	2	0	C	1	1	631	1	Ⴏ	cut_a_stereo_44KHz.wav
3	11	3	3	2	I	2	0	1016	1	Ⴖ	cut_k_stereo_44KHz.wav
3	12	4	3	2	I	1	0	850	0	Ⴌ	cut_k_stereo_44KHz.wav
3	13	1	1	1	C	1	0	730	0	Ⴏ	cut_o_stereo_44KHz.wav
3	14	2	1	0	C	2	0	798	0	Ⴕ	cut_o_stereo_44KHz.wav
3	15	3	4	2	I	1	0	918	1	Ⴖ	cut_u_stereo_44KHz.wav
3	16	4	4	2	I	2	0	873	1	Ⴌ	cut_u_stereo_44KHz.wav
3	17	1	2	0	C	1	1	637	1	Ⴏ	cut_a_stereo_44KHz.wav
3	18	2	1	0	C	1	1	759	1	Ⴕ	cut_o_stereo_44KHz.wav
3	19	3	3	2	I	2	0	866	0	Ⴖ	cut_k_stereo_44KHz.wav
3	20	4	3	2	I	2	0	1168	0	Ⴌ	cut_k_stereo_44KHz.wav
3	21	3	4	2	I	1	0	941	1	Ⴖ	cut_u_stereo_44KHz.wav
3	22	4	4	2	I	2	0	895	0	Ⴌ	cut_u_stereo_44KHz.wav
3	23	1	1	1	C	1	0	1137	0	Ⴏ	cut_o_stereo_44KHz.wav
3	24	2	2	1	C	2	1	754	1	Ⴕ	cut_a_stereo_44KHz.wav
3	25	3	4	2	I	1	0	965	0	Ⴖ	cut_u_stereo_44KHz.wav
3	26	4	3	2	I	2	0	1040	0	Ⴌ	cut_k_stereo_44KHz.wav
3	27	1	1	1	C	1	0	763	0	Ⴏ	cut_o_stereo_44KHz.wav
3	28	2	2	1	C	2	1	909	1	Ⴕ	cut_a_stereo_44KHz.wav
3	29	1	2	0	C	1	1	1459	1	Ⴏ	cut_a_stereo_44KHz.wav
3	30	4	4	2	I	2	0	874	1	Ⴌ	cut_u_stereo_44KHz.wav
3	31	2	1	0	C	2	0	1031	0	Ⴕ	cut_o_stereo_44KHz.wav
3	32	3	3	2	I	1	0	1221	0	Ⴖ	cut_k_stereo_44KHz.wav
3	33	2	1	0	C	2	0	988	0	Ⴕ	cut_o_stereo_44KHz.wav
3	34	1	1	1	C	1	0	735	0	Ⴏ	cut_o_stereo_44KHz.wav
3	35	4	4	2	I	2	0	1328	1	Ⴌ	cut_u_stereo_44KHz.wav
3	36	3	4	2	I	2	0	991	0	Ⴖ	cut_u_stereo_44KHz.wav
3	37	1	2	0	C	1	1	1222	1	Ⴏ	cut_a_stereo_44KHz.wav
3	38	2	2	1	C	1	0	1395	0	Ⴕ	cut_a_stereo_44KHz.wav
3	39	4	3	2	I	1	0	1374	1	Ⴌ	cut_k_stereo_44KHz.wav
3	40	3	3	2	I	2	0	1063	0	Ⴖ	cut_k_stereo_44KHz.wav
3	41	2	1	0	C	2	0	1742	0	Ⴕ	cut_o_stereo_44KHz.wav
3	42	1	1	1	C	1	0	1271	0	Ⴏ	cut_o_stereo_44KHz.wav
3	43	4	4	2	I	1	0	1163	0	Ⴌ	cut_u_stereo_44KHz.wav
3	44	3	4	2	I	1	0	933	1	Ⴖ	cut_u_stereo_44KHz.wav
3	45	2	2	1	C	1	0	857	0	Ⴕ	cut_a_stereo_44KHz.wav
3	46	4	3	2	I	1	0	895	1	Ⴌ	cut_k_stereo_44KHz.wav
3	47	3	3	2	I	1	0	975	1	Ⴖ	cut_k_stereo_44KHz.wav
3	48	1	2	0	C	1	1	1345	1	Ⴏ	cut_a_stereo_44KHz.wav
3	49	3	4	2	I	1	0	1168	0	Ⴖ	cut_u_stereo_44KHz.wav
3	50	4	3	2	I	2	0	1062	0	Ⴌ	cut_k_stereo_44KHz.wav
3	51	2	1	0	C	1	1	699	1	Ⴕ	cut_o_stereo_44KHz.wav
3	52	1	1	1	C	1	0	542	0	Ⴏ	cut_o_stereo_44KHz.wav
3	53	4	4	2	I	1	0	970	1	Ⴌ	cut_u_stereo_44KHz.wav
3	54	2	2	1	C	2	1	1530	1	Ⴕ	cut_a_stereo_44KHz.wav
3	55	3	3	2	I	1	0	1981	1	Ⴖ	cut_k_stereo_44KHz.wav
3	56	1	2	0	C	1	1	667	1	Ⴏ	cut_a_stereo_44KHz.wav
3	57	4	3	2	I	1	0	853	0	Ⴌ	cut_k_stereo_44KHz.wav
3	58	1	1	1	C	2	1	1106	1	Ⴏ	cut_o_stereo_44KHz.wav
3	59	3	4	2	I	1	0	961	0	Ⴖ	cut_u_stereo_44KHz.wav
3	60	2	2	1	C	1	0	1186	0	Ⴕ	cut_a_stereo_44KHz.wav
3	61	3	3	2	I	1	0	1174	1	Ⴖ	cut_k_stereo_44KHz.wav
3	62	1	2	0	C	1	1	1091	1	Ⴏ	cut_a_stereo_44KHz.wav
3	63	4	4	2	I	1	0	1300	0	Ⴌ	cut_u_stereo_44KHz.wav
3	64	2	1	0	C	1	1	892	1	Ⴕ	cut_o_stereo_44KHz.wav
3	65	3	4	2	I	1	0	850	0	Ⴖ	cut_u_stereo_44KHz.wav
3	66	1	1	1	C	1	0	555	0	Ⴏ	cut_o_stereo_44KHz.wav
3	67	4	4	2	I	1	0	804	0	Ⴌ	cut_u_stereo_44KHz.wav
3	68	2	1	0	C	1	1	751	1	Ⴕ	cut_o_stereo_44KHz.wav
3	69	3	3	2	I	1	0	800	0	Ⴖ	cut_k_stereo_44KHz.wav
3	70	2	2	1	C	1	0	752	0	Ⴕ	cut_a_stereo_44KHz.wav
3	71	1	2	0	C	1	1	653	1	Ⴏ	cut_a_stereo_44KHz.wav
3	72	4	3	2	I	1	0	729	0	Ⴌ	cut_k_stereo_44KHz.wav
3	73	3	3	2	I	1	0	1719	1	Ⴖ	cut_k_stereo_44KHz.wav
3	74	4	4	2	I	1	0	989	0	Ⴌ	cut_u_stereo_44KHz.wav
3	75	1	2	0	C	1	1	819	1	Ⴏ	cut_a_stereo_44KHz.wav
3	76	2	1	0	C	2	0	1232	0	Ⴕ	cut_o_stereo_44KHz.wav
3	77	4	3	2	I	1	0	803	1	Ⴌ	cut_k_stereo_44KHz.wav
3	78	2	2	1	C	2	1	1189	1	Ⴕ	cut_a_stereo_44KHz.wav
3	79	3	4	2	I	1	0	732	0	Ⴖ	cut_u_stereo_44KHz.wav
3	80	1	1	1	C	1	0	965	0	Ⴏ	cut_o_stereo_44KHz.wav
3	81	2	2	1	C	2	1	1621	1	Ⴕ	cut_a_stereo_44KHz.wav
3	82	3	3	2	I	1	0	785	1	Ⴖ	cut_k_stereo_44KHz.wav
3	83	1	1	1	C	1	0	997	0	Ⴏ	cut_o_stereo_44KHz.wav
3	84	4	3	2	I	1	0	1316	0	Ⴌ	cut_k_stereo_44KHz.wav
3	85	3	4	2	I	1	0	1005	0	Ⴖ	cut_u_stereo_44KHz.wav
3	86	1	2	0	C	1	1	833	1	Ⴏ	cut_a_stereo_44KHz.wav
3	87	2	1	0	C	2	0	620	0	Ⴕ	cut_o_stereo_44KHz.wav
3	88	4	4	2	I	1	0	762	1	Ⴌ	cut_u_stereo_44KHz.wav
3	89	1	2	0	C	1	1	613	1	Ⴏ	cut_a_stereo_44KHz.wav
3	90	2	2	1	C	2	1	542	1	Ⴕ	cut_a_stereo_44KHz.wav
3	91	4	4	2	I	2	0	1098	1	Ⴌ	cut_u_stereo_44KHz.wav
3	92	3	4	2	I	1	0	639	0	Ⴖ	cut_u_stereo_44KHz.wav
3	93	4	3	2	I	2	0	810	1	Ⴌ	cut_k_stereo_44KHz.wav
3	94	2	1	0	C	1	1	685	1	Ⴕ	cut_o_stereo_44KHz.wav
3	95	1	1	1	C	2	1	829	1	Ⴏ	cut_o_stereo_44KHz.wav
3	96	3	3	2	I	1	0	1310	0	Ⴖ	cut_k_stereo_44KHz.wav
3	97	4	3	2	I	1	0	830	1	Ⴌ	cut_k_stereo_44KHz.wav
3	98	1	1	1	C	2	1	797	1	Ⴏ	cut_o_stereo_44KHz.wav
3	99	3	3	2	I	1	0	559	1	Ⴖ	cut_k_stereo_44KHz.wav
3	100	2	2	1	C	2	1	1142	1	Ⴕ	cut_a_stereo_44KHz.wav
3	101	1	2	0	C	1	1	483	1	Ⴏ	cut_a_stereo_44KHz.wav
3	102	3	4	2	I	1	0	820	1	Ⴖ	cut_u_stereo_44KHz.wav
3	103	2	1	0	C	2	0	682	0	Ⴕ	cut_o_stereo_44KHz.wav
3	104	4	4	2	I	1	0	1131	0	Ⴌ	cut_u_stereo_44KHz.wav
3	105	2	2	1	C	1	0	1504	0	Ⴕ	cut_a_stereo_44KHz.wav
3	106	1	2	0	C	2	0	878	0	Ⴏ	cut_a_stereo_44KHz.wav
3	107	4	4	2	I	1	0	233	0	Ⴌ	cut_u_stereo_44KHz.wav
3	108	3	3	2	I	2	0	212	1	Ⴖ	cut_k_stereo_44KHz.wav
3	109	4	3	2	I	2	0	478	1	Ⴌ	cut_k_stereo_44KHz.wav
3	110	3	4	2	I	2	0	250	0	Ⴖ	cut_u_stereo_44KHz.wav
3	111	2	1	0	C	1	1	618	1	Ⴕ	cut_o_stereo_44KHz.wav
3	112	1	1	1	C	1	0	327	0	Ⴏ	cut_o_stereo_44KHz.wav
3	113	2	2	1	C	2	1	256	1	Ⴕ	cut_a_stereo_44KHz.wav
3	114	3	3	2	I	1	0	696	0	Ⴖ	cut_k_stereo_44KHz.wav
3	115	4	4	2	I	2	0	720	1	Ⴌ	cut_u_stereo_44KHz.wav
3	116	1	2	0	C	2	0	314	0	Ⴏ	cut_a_stereo_44KHz.wav
3	117	2	1	0	C	2	0	456	0	Ⴕ	cut_o_stereo_44KHz.wav
3	118	3	4	2	I	1	0	745	0	Ⴖ	cut_u_stereo_44KHz.wav
3	119	1	1	1	C	1	0	775	0	Ⴏ	cut_o_stereo_44KHz.wav
3	120	4	3	2	I	2	0	651	1	Ⴌ	cut_k_stereo_44KHz.wav
3	121	2	1	0	C	2	0	874	0	Ⴕ	cut_o_stereo_44KHz.wav
3	122	4	3	2	I	2	0	756	1	Ⴌ	cut_k_stereo_44KHz.wav
3	123	3	4	2	I	1	0	763	1	Ⴖ	cut_u_stereo_44KHz.wav
3	124	1	2	0	C	2	0	698	0	Ⴏ	cut_a_stereo_44KHz.wav
3	125	3	3	2	I	1	0	629	0	Ⴖ	cut_k_stereo_44KHz.wav
3	126	2	2	1	C	2	1	923	1	Ⴕ	cut_a_stereo_44KHz.wav
3	127	1	1	1	C	1	0	512	0	Ⴏ	cut_o_stereo_44KHz.wav
3	128	4	4	2	I	2	0	285	0	Ⴌ	cut_u_stereo_44KHz.wav
3	129	3	4	2	I	2	0	392	1	Ⴖ	cut_u_stereo_44KHz.wav
3	130	4	3	2	I	2	0	220	0	Ⴌ	cut_k_stereo_44KHz.wav
3	131	1	1	1	C	2	1	454	1	Ⴏ	cut_o_stereo_44KHz.wav
3	132	2	1	0	C	1	1	377	1	Ⴕ	cut_o_stereo_44KHz.wav
3	133	4	4	2	I	1	0	341	1	Ⴌ	cut_u_stereo_44KHz.wav
3	134	2	2	1	C	2	1	838	1	Ⴕ	cut_a_stereo_44KHz.wav
3	135	1	2	0	C	1	1	815	1	Ⴏ	cut_a_stereo_44KHz.wav
3	136	3	3	2	I	1	0	724	1	Ⴖ	cut_k_stereo_44KHz.wav
3	137	2	1	0	C	2	0	514	0	Ⴕ	cut_o_stereo_44KHz.wav
3	138	3	3	2	I	1	0	741	1	Ⴖ	cut_k_stereo_44KHz.wav
3	139	1	1	1	C	2	1	498	1	Ⴏ	cut_o_stereo_44KHz.wav
3	140	4	4	2	I	2	0	455	0	Ⴌ	cut_u_stereo_44KHz.wav
3	141	2	2	1	C	1	0	476	0	Ⴕ	cut_a_stereo_44KHz.wav
3	142	1	2	0	C	2	0	207	0	Ⴏ	cut_a_stereo_44KHz.wav
3	143	4	3	2	I	1	0	206	1	Ⴌ	cut_k_stereo_44KHz.wav
3	144	3	4	2	I	1	0	205	1	Ⴖ	cut_u_stereo_44KHz.wav
3	145	4	3	2	I	1	0	340	1	Ⴌ	cut_k_stereo_44KHz.wav
3	146	3	3	2	I	1	0	283	1	Ⴖ	cut_k_stereo_44KHz.wav
3	147	1	2	0	C	2	0	276	0	Ⴏ	cut_a_stereo_44KHz.wav
3	148	2	1	0	C	2	0	521	0	Ⴕ	cut_o_stereo_44KHz.wav
3	149	4	4	2	I	2	0	572	1	Ⴌ	cut_u_stereo_44KHz.wav
3	150	1	1	1	C	1	0	688	0	Ⴏ	cut_o_stereo_44KHz.wav
3	151	3	4	2	I	2	0	218	0	Ⴖ	cut_u_stereo_44KHz.wav
3	152	2	2	1	C	1	0	613	0	Ⴕ	cut_a_stereo_44KHz.wav
3	153	4	3	2	I	2	0	18	0	Ⴌ	cut_k_stereo_44KHz.wav
3	154	3	3	2	I	1	0	17	1	Ⴖ	cut_k_stereo_44KHz.wav
3	155	2	2	1	C	1	0	343	0	Ⴕ	cut_a_stereo_44KHz.wav
3	156	1	1	1	C	2	1	506	1	Ⴏ	cut_o_stereo_44KHz.wav
3	157	3	4	2	I	2	0	443	1	Ⴖ	cut_u_stereo_44KHz.wav
3	158	2	1	0	C	2	0	601	0	Ⴕ	cut_o_stereo_44KHz.wav
3	159	4	4	2	I	1	0	741	0	Ⴌ	cut_u_stereo_44KHz.wav
3	160	1	2	0	C	2	0	614	0	Ⴏ	cut_a_stereo_44KHz.wav
3	161	4	4	2	I	2	0	723	0	Ⴌ	cut_u_stereo_44KHz.wav
3	162	3	4	2	I	2	0	294	1	Ⴖ	cut_u_stereo_44KHz.wav
3	163	2	1	0	C	1	1	286	1	Ⴕ	cut_o_stereo_44KHz.wav
3	164	1	1	1	C	2	1	1077	1	Ⴏ	cut_o_stereo_44KHz.wav
3	165	3	3	2	I	1	0	718	0	Ⴖ	cut_k_stereo_44KHz.wav
3	166	4	3	2	I	2	0	243	0	Ⴌ	cut_k_stereo_44KHz.wav
3	167	1	2	0	C	1	1	1052	1	Ⴏ	cut_a_stereo_44KHz.wav
3	168	2	2	1	C	2	1	819	1	Ⴕ	cut_a_stereo_44KHz.wav
3	169	1	2	0	C	2	0	546	0	Ⴏ	cut_a_stereo_44KHz.wav
3	170	2	1	0	C	2	0	503	0	Ⴕ	cut_o_stereo_44KHz.wav
3	171	3	3	2	I	2	0	372	1	Ⴖ	cut_k_stereo_44KHz.wav
3	172	4	3	2	I	1	0	110	1	Ⴌ	cut_k_stereo_44KHz.wav
3	173	3	4	2	I	2	0	189	1	Ⴖ	cut_u_stereo_44KHz.wav
3	174	4	4	2	I	2	0	165	1	Ⴌ	cut_u_stereo_44KHz.wav
3	175	1	1	1	C	2	1	188	1	Ⴏ	cut_o_stereo_44KHz.wav
3	176	2	2	1	C	1	0	238	0	Ⴕ	cut_a_stereo_44KHz.wav
3	177	1	2	0	C	1	1	227	1	Ⴏ	cut_a_stereo_44KHz.wav
3	178	3	3	2	I	1	0	408	0	Ⴖ	cut_k_stereo_44KHz.wav
3	179	4	3	2	I	2	0	62	1	Ⴌ	cut_k_stereo_44KHz.wav
3	180	2	1	0	C	2	0	608	0	Ⴕ	cut_o_stereo_44KHz.wav
3	181	3	4	2	I	1	0	769	0	Ⴖ	cut_u_stereo_44KHz.wav
3	182	4	4	2	I	2	0	755	1	Ⴌ	cut_u_stereo_44KHz.wav
3	183	2	2	1	C	2	1	707	1	Ⴕ	cut_a_stereo_44KHz.wav
3	184	1	1	1	C	2	1	413	1	Ⴏ	cut_o_stereo_44KHz.wav
3	185	3	3	2	I	1	0	417	1	Ⴖ	cut_k_stereo_44KHz.wav
3	186	2	1	0	C	1	1	899	1	Ⴕ	cut_o_stereo_44KHz.wav
3	187	4	3	2	I	0	0	0	0	Ⴌ	cut_k_stereo_44KHz.wav
3	188	1	1	1	C	2	1	1388	1	Ⴏ	cut_o_stereo_44KHz.wav
3	189	2	2	1	C	1	0	363	0	Ⴕ	cut_a_stereo_44KHz.wav
3	190	4	4	2	I	2	0	210	1	Ⴌ	cut_u_stereo_44KHz.wav
3	191	1	2	0	C	2	0	385	0	Ⴏ	cut_a_stereo_44KHz.wav
3	192	3	4	2	I	2	0	222	0	Ⴖ	cut_u_stereo_44KHz.wav
3	193	2	1	0	C	1	1	365	1	Ⴕ	cut_o_stereo_44KHz.wav
3	194	3	3	2	I	2	0	322	0	Ⴖ	cut_k_stereo_44KHz.wav
3	195	4	4	2	I	1	0	88	0	Ⴌ	cut_u_stereo_44KHz.wav
3	196	1	1	1	C	2	1	338	1	Ⴏ	cut_o_stereo_44KHz.wav
3	197	2	2	1	C	2	1	434	1	Ⴕ	cut_a_stereo_44KHz.wav
3	198	4	3	2	I	2	0	302	0	Ⴌ	cut_k_stereo_44KHz.wav
3	199	1	2	0	C	1	1	363	1	Ⴏ	cut_a_stereo_44KHz.wav
3	200	3	4	2	I	2	0	346	1	Ⴖ	cut_u_stereo_44KHz.wav
4	1	2	1	0	C	2	0	1326	0	Ⴟ	cut_s_stereo_44KHz.wav
4	2	3	3	2	I	2	0	644	0	Ⴊ	cut_n_stereo_44KHz.wav
4	3	4	3	2	I	2	0	811	0	Ⴡ	cut_n_stereo_44KHz.wav
4	4	1	2	0	C	1	1	745	1	Ⴁ	cut_ei_stereo_44KHz.wav
4	5	4	4	2	I	2	0	1038	1	Ⴡ	cut_r_stereo_44KHz.wav
4	6	3	4	2	I	1	0	825	1	Ⴊ	cut_r_stereo_44KHz.wav
4	7	1	1	1	C	2	1	871	1	Ⴁ	cut_s_stereo_44KHz.wav
4	8	2	2	1	C	2	1	1033	1	Ⴟ	cut_ei_stereo_44KHz.wav
4	9	3	4	2	I	1	0	1256	0	Ⴊ	cut_r_stereo_44KHz.wav
4	10	1	1	1	C	2	1	1065	1	Ⴁ	cut_s_stereo_44KHz.wav
4	11	4	3	2	I	1	0	1085	1	Ⴡ	cut_n_stereo_44KHz.wav
4	12	2	1	0	C	1	1	940	1	Ⴟ	cut_s_stereo_44KHz.wav
4	13	4	4	2	I	2	0	1478	1	Ⴡ	cut_r_stereo_44KHz.wav
4	14	2	2	1	C	2	1	1240	1	Ⴟ	cut_ei_stereo_44KHz.wav
4	15	3	3	2	I	2	0	1159	0	Ⴊ	cut_n_stereo_44KHz.wav
4	16	1	2	0	C	2	0	1131	0	Ⴁ	cut_ei_stereo_44KHz.wav
4	17	4	4	2	I	2	0	940	0	Ⴡ	cut_r_stereo_44KHz.wav
4	18	2	1	0	C	1	1	724	1	Ⴟ	cut_s_stereo_44KHz.wav
4	19	1	2	0	C	1	1	757	1	Ⴁ	cut_ei_stereo_44KHz.wav
4	20	3	3	2	I	1	0	1254	0	Ⴊ	cut_n_stereo_44KHz.wav
4	21	2	2	1	C	2	1	773	1	Ⴟ	cut_ei_stereo_44KHz.wav
4	22	4	3	2	I	1	0	894	1	Ⴡ	cut_n_stereo_44KHz.wav
4	23	1	1	1	C	2	1	956	1	Ⴁ	cut_s_stereo_44KHz.wav
4	24	3	4	2	I	1	0	873	1	Ⴊ	cut_r_stereo_44KHz.wav
4	25	2	2	1	C	2	1	930	1	Ⴟ	cut_ei_stereo_44KHz.wav
4	26	1	2	0	C	2	0	1208	0	Ⴁ	cut_ei_stereo_44KHz.wav
4	27	3	3	2	I	1	0	1241	0	Ⴊ	cut_n_stereo_44KHz.wav
4	28	4	3	2	I	1	0	1174	1	Ⴡ	cut_n_stereo_44KHz.wav
4	29	2	1	0	C	1	1	1077	1	Ⴟ	cut_s_stereo_44KHz.wav
4	30	1	1	1	C	2	1	782	1	Ⴁ	cut_s_stereo_44KHz.wav
4	31	3	4	2	I	1	0	1090	1	Ⴊ	cut_r_stereo_44KHz.wav
4	32	4	4	2	I	2	0	1070	1	Ⴡ	cut_r_stereo_44KHz.wav
4	33	3	4	2	I	1	0	1115	1	Ⴊ	cut_r_stereo_44KHz.wav
4	34	2	2	1	C	2	1	677	1	Ⴟ	cut_ei_stereo_44KHz.wav
4	35	1	1	1	C	2	1	1222	1	Ⴁ	cut_s_stereo_44KHz.wav
4	36	4	3	2	I	1	0	912	0	Ⴡ	cut_n_stereo_44KHz.wav
4	37	3	3	2	I	2	0	1161	0	Ⴊ	cut_n_stereo_44KHz.wav
4	38	4	4	2	I	1	0	829	1	Ⴡ	cut_r_stereo_44KHz.wav
4	39	2	1	0	C	1	1	736	1	Ⴟ	cut_s_stereo_44KHz.wav
4	40	1	2	0	C	2	0	890	0	Ⴁ	cut_ei_stereo_44KHz.wav
4	41	3	4	2	I	1	0	751	1	Ⴊ	cut_r_stereo_44KHz.wav
4	42	4	4	2	I	2	0	1066	1	Ⴡ	cut_r_stereo_44KHz.wav
4	43	2	2	1	C	2	1	817	1	Ⴟ	cut_ei_stereo_44KHz.wav
4	44	1	1	1	C	2	1	898	1	Ⴁ	cut_s_stereo_44KHz.wav
4	45	3	3	2	I	1	0	1113	1	Ⴊ	cut_n_stereo_44KHz.wav
4	46	4	3	2	I	2	0	688	0	Ⴡ	cut_n_stereo_44KHz.wav
4	47	1	2	0	C	1	1	979	1	Ⴁ	cut_ei_stereo_44KHz.wav
4	48	2	1	0	C	1	1	618	1	Ⴟ	cut_s_stereo_44KHz.wav
4	49	1	1	1	C	2	1	737	1	Ⴁ	cut_s_stereo_44KHz.wav
4	50	4	3	2	I	1	0	1329	1	Ⴡ	cut_n_stereo_44KHz.wav
4	51	3	4	2	I	1	0	1000	1	Ⴊ	cut_r_stereo_44KHz.wav
4	52	2	2	1	C	2	1	1122	1	Ⴟ	cut_ei_stereo_44KHz.wav
4	53	4	4	2	I	2	0	1916	0	Ⴡ	cut_r_stereo_44KHz.wav
4	54	3	3	2	I	1	0	1330	1	Ⴊ	cut_n_stereo_44KHz.wav
4	55	1	2	0	C	1	1	761	1	Ⴁ	cut_ei_stereo_44KHz.wav
4	56	2	1	0	C	1	1	824	1	Ⴟ	cut_s_stereo_44KHz.wav
4	57	3	4	2	I	1	0	718	0	Ⴊ	cut_r_stereo_44KHz.wav
4	58	2	1	0	C	1	1	810	1	Ⴟ	cut_s_stereo_44KHz.wav
4	59	4	3	2	I	1	0	934	1	Ⴡ	cut_n_stereo_44KHz.wav
4	60	1	1	1	C	2	1	1497	1	Ⴁ	cut_s_stereo_44KHz.wav
4	61	3	3	2	I	2	0	1154	1	Ⴊ	cut_n_stereo_44KHz.wav
4	62	4	4	2	I	2	0	1639	0	Ⴡ	cut_r_stereo_44KHz.wav
4	63	2	2	1	C	2	1	709	1	Ⴟ	cut_ei_stereo_44KHz.wav
4	64	1	2	0	C	1	1	790	1	Ⴁ	cut_ei_stereo_44KHz.wav
4	65	3	3	2	I	2	0	1835	0	Ⴊ	cut_n_stereo_44KHz.wav
4	66	1	2	0	C	1	1	637	1	Ⴁ	cut_ei_stereo_44KHz.wav
4	67	2	1	0	C	1	1	870	1	Ⴟ	cut_s_stereo_44KHz.wav
4	68	4	3	2	I	1	0	778	1	Ⴡ	cut_n_stereo_44KHz.wav
4	69	2	2	1	C	2	1	748	1	Ⴟ	cut_ei_stereo_44KHz.wav
4	70	4	4	2	I	1	0	805	0	Ⴡ	cut_r_stereo_44KHz.wav
4	71	3	4	2	I	1	0	606	1	Ⴊ	cut_r_stereo_44KHz.wav
4	72	1	1	1	C	2	1	779	1	Ⴁ	cut_s_stereo_44KHz.wav
4	73	3	4	2	I	1	0	777	0	Ⴊ	cut_r_stereo_44KHz.wav
4	74	2	2	1	C	2	1	1190	1	Ⴟ	cut_ei_stereo_44KHz.wav
4	75	1	1	1	C	2	1	819	1	Ⴁ	cut_s_stereo_44KHz.wav
4	76	4	3	2	I	1	0	1011	1	Ⴡ	cut_n_stereo_44KHz.wav
4	77	1	2	0	C	1	1	802	1	Ⴁ	cut_ei_stereo_44KHz.wav
4	78	2	1	0	C	1	1	679	1	Ⴟ	cut_s_stereo_44KHz.wav
4	79	4	4	2	I	1	0	1014	0	Ⴡ	cut_r_stereo_44KHz.wav
4	80	3	3	2	I	2	0	793	0	Ⴊ	cut_n_stereo_44KHz.wav
4	81	4	3	2	I	1	0	757	0	Ⴡ	cut_n_stereo_44KHz.wav
4	82	3	3	2	I	1	0	645	0	Ⴊ	cut_n_stereo_44KHz.wav
4	83	2	1	0	C	1	1	688	1	Ⴟ	cut_s_stereo_44KHz.wav
4	84	1	2	0	C	1	1	791	1	Ⴁ	cut_ei_stereo_44KHz.wav
4	85	2	2	1	C	2	1	1116	1	Ⴟ	cut_ei_stereo_44KHz.wav
4	86	3	4	2	I	1	0	772	1	Ⴊ	cut_r_stereo_44KHz.wav
4	87	4	4	2	I	2	0	862	0	Ⴡ	cut_r_stereo_44KHz.wav
4	88	1	1	1	C	2	1	943	1	Ⴁ	cut_s_stereo_44KHz.wav
4	89	3	3	2	I	2	0	782	1	Ⴊ	cut_n_stereo_44KHz.wav
4	90	4	3	2	I	2	0	523	1	Ⴡ	cut_n_stereo_44KHz.wav
4	91	2	2	1	C	2	1	814	1	Ⴟ	cut_ei_stereo_44KHz.wav
4	92	1	1	1	C	2	1	778	1	Ⴁ	cut_s_stereo_44KHz.wav
4	93	4	4	2	I	1	0	871	0	Ⴡ	cut_r_stereo_44KHz.wav
4	94	2	1	0	C	1	1	519	1	Ⴟ	cut_s_stereo_44KHz.wav
4	95	1	2	0	C	1	1	710	1	Ⴁ	cut_ei_stereo_44KHz.wav
4	96	3	4	2	I	1	0	449	0	Ⴊ	cut_r_stereo_44KHz.wav
4	97	1	1	1	C	2	1	1688	1	Ⴁ	cut_s_stereo_44KHz.wav
4	98	2	1	0	C	1	1	665	1	Ⴟ	cut_s_stereo_44KHz.wav
4	99	3	3	2	I	1	0	809	1	Ⴊ	cut_n_stereo_44KHz.wav
4	100	4	3	2	I	1	0	834	0	Ⴡ	cut_n_stereo_44KHz.wav
4	101	2	2	1	C	2	1	1347	1	Ⴟ	cut_ei_stereo_44KHz.wav
4	102	1	2	0	C	1	1	643	1	Ⴁ	cut_ei_stereo_44KHz.wav
4	103	3	4	2	I	1	0	902	1	Ⴊ	cut_r_stereo_44KHz.wav
4	104	4	4	2	I	1	0	1025	0	Ⴡ	cut_r_stereo_44KHz.wav
4	105	3	4	2	I	1	0	661	1	Ⴊ	cut_r_stereo_44KHz.wav
4	106	2	1	0	C	1	1	642	1	Ⴟ	cut_s_stereo_44KHz.wav
4	107	4	4	2	I	1	0	634	1	Ⴡ	cut_r_stereo_44KHz.wav
4	108	1	1	1	C	2	1	798	1	Ⴁ	cut_s_stereo_44KHz.wav
4	109	3	3	2	I	1	0	1964	0	Ⴊ	cut_n_stereo_44KHz.wav
4	110	1	2	0	C	1	1	661	1	Ⴁ	cut_ei_stereo_44KHz.wav
4	111	2	2	1	C	2	1	643	1	Ⴟ	cut_ei_stereo_44KHz.wav
4	112	4	3	2	I	2	0	626	1	Ⴡ	cut_n_stereo_44KHz.wav
4	113	2	2	1	C	2	1	1033	1	Ⴟ	cut_ei_stereo_44KHz.wav
4	114	3	4	2	I	1	0	691	0	Ⴊ	cut_r_stereo_44KHz.wav
4	115	1	2	0	C	1	1	1535	1	Ⴁ	cut_ei_stereo_44KHz.wav
4	116	4	3	2	I	2	0	1007	0	Ⴡ	cut_n_stereo_44KHz.wav
4	117	3	3	2	I	1	0	625	0	Ⴊ	cut_n_stereo_44KHz.wav
4	118	2	1	0	C	1	1	673	1	Ⴟ	cut_s_stereo_44KHz.wav
4	119	4	4	2	I	2	0	1092	0	Ⴡ	cut_r_stereo_44KHz.wav
4	120	1	1	1	C	2	1	861	1	Ⴁ	cut_s_stereo_44KHz.wav
4	121	4	4	2	I	1	0	947	0	Ⴡ	cut_r_stereo_44KHz.wav
4	122	1	2	0	C	1	1	32	1	Ⴁ	cut_ei_stereo_44KHz.wav
4	123	3	3	2	I	1	0	791	0	Ⴊ	cut_n_stereo_44KHz.wav
4	124	2	1	0	C	2	0	377	0	Ⴟ	cut_s_stereo_44KHz.wav
4	125	1	1	1	C	2	1	764	1	Ⴁ	cut_s_stereo_44KHz.wav
4	126	3	4	2	I	1	0	580	0	Ⴊ	cut_r_stereo_44KHz.wav
4	127	4	3	2	I	2	0	683	1	Ⴡ	cut_n_stereo_44KHz.wav
4	128	2	2	1	C	2	1	790	1	Ⴟ	cut_ei_stereo_44KHz.wav
4	129	1	2	0	C	1	1	1065	1	Ⴁ	cut_ei_stereo_44KHz.wav
4	130	2	1	0	C	1	1	836	1	Ⴟ	cut_s_stereo_44KHz.wav
4	131	3	3	2	I	2	0	916	0	Ⴊ	cut_n_stereo_44KHz.wav
4	132	4	4	2	I	1	0	851	0	Ⴡ	cut_r_stereo_44KHz.wav
4	133	3	4	2	I	1	0	666	0	Ⴊ	cut_r_stereo_44KHz.wav
4	134	4	3	2	I	2	0	490	0	Ⴡ	cut_n_stereo_44KHz.wav
4	135	1	1	1	C	2	1	769	1	Ⴁ	cut_s_stereo_44KHz.wav
4	136	2	2	1	C	2	1	771	1	Ⴟ	cut_ei_stereo_44KHz.wav
4	137	4	3	2	I	1	0	814	0	Ⴡ	cut_n_stereo_44KHz.wav
4	138	1	1	1	C	2	1	763	1	Ⴁ	cut_s_stereo_44KHz.wav
4	139	2	1	0	C	1	1	520	1	Ⴟ	cut_s_stereo_44KHz.wav
4	140	3	3	2	I	2	0	715	1	Ⴊ	cut_n_stereo_44KHz.wav
4	141	4	4	2	I	2	0	857	1	Ⴡ	cut_r_stereo_44KHz.wav
4	142	2	2	1	C	2	1	747	1	Ⴟ	cut_ei_stereo_44KHz.wav
4	143	1	2	0	C	1	1	732	1	Ⴁ	cut_ei_stereo_44KHz.wav
4	144	3	4	2	I	1	0	1069	1	Ⴊ	cut_r_stereo_44KHz.wav
4	145	1	2	0	C	2	0	646	0	Ⴁ	cut_ei_stereo_44KHz.wav
4	146	4	3	2	I	2	0	609	1	Ⴡ	cut_n_stereo_44KHz.wav
4	147	2	2	1	C	2	1	1039	1	Ⴟ	cut_ei_stereo_44KHz.wav
4	148	3	4	2	I	1	0	692	0	Ⴊ	cut_r_stereo_44KHz.wav
4	149	4	4	2	I	2	0	736	1	Ⴡ	cut_r_stereo_44KHz.wav
4	150	3	3	2	I	2	0	1358	0	Ⴊ	cut_n_stereo_44KHz.wav
4	151	1	1	1	C	2	1	818	1	Ⴁ	cut_s_stereo_44KHz.wav
4	152	2	1	0	C	1	1	851	1	Ⴟ	cut_s_stereo_44KHz.wav
4	153	3	4	2	I	1	0	742	1	Ⴊ	cut_r_stereo_44KHz.wav
4	154	2	1	0	C	1	1	588	1	Ⴟ	cut_s_stereo_44KHz.wav
4	155	1	1	1	C	2	1	1002	1	Ⴁ	cut_s_stereo_44KHz.wav
4	156	4	4	2	I	1	0	1073	1	Ⴡ	cut_r_stereo_44KHz.wav
4	157	3	3	2	I	2	0	718	1	Ⴊ	cut_n_stereo_44KHz.wav
4	158	1	2	0	C	1	1	1528	1	Ⴁ	cut_ei_stereo_44KHz.wav
4	159	4	3	2	I	1	0	867	1	Ⴡ	cut_n_stereo_44KHz.wav
4	160	2	2	1	C	2	1	674	1	Ⴟ	cut_ei_stereo_44KHz.wav
4	161	4	4	2	I	1	0	948	0	Ⴡ	cut_r_stereo_44KHz.wav
4	162	1	1	1	C	2	1	981	1	Ⴁ	cut_s_stereo_44KHz.wav
4	163	2	2	1	C	2	1	702	1	Ⴟ	cut_ei_stereo_44KHz.wav
4	164	3	3	2	I	1	0	1280	0	Ⴊ	cut_n_stereo_44KHz.wav
4	165	4	3	2	I	2	0	520	0	Ⴡ	cut_n_stereo_44KHz.wav
4	166	3	4	2	I	1	0	704	1	Ⴊ	cut_r_stereo_44KHz.wav
4	167	1	2	0	C	1	1	1513	1	Ⴁ	cut_ei_stereo_44KHz.wav
4	168	2	1	0	C	1	1	677	1	Ⴟ	cut_s_stereo_44KHz.wav
4	169	1	1	1	C	2	1	1458	1	Ⴁ	cut_s_stereo_44KHz.wav
4	170	4	4	2	I	1	0	883	0	Ⴡ	cut_r_stereo_44KHz.wav
4	171	2	1	0	C	1	1	484	1	Ⴟ	cut_s_stereo_44KHz.wav
4	172	3	4	2	I	1	0	1912	1	Ⴊ	cut_r_stereo_44KHz.wav
4	173	4	3	2	I	1	0	461	1	Ⴡ	cut_n_stereo_44KHz.wav
4	174	2	2	1	C	2	1	874	1	Ⴟ	cut_ei_stereo_44KHz.wav
4	175	1	2	0	C	1	1	837	1	Ⴁ	cut_ei_stereo_44KHz.wav
4	176	3	3	2	I	1	0	1232	1	Ⴊ	cut_n_stereo_44KHz.wav
4	177	2	2	1	C	2	1	855	1	Ⴟ	cut_ei_stereo_44KHz.wav
4	178	1	2	0	C	1	1	686	1	Ⴁ	cut_ei_stereo_44KHz.wav
4	179	3	3	2	I	2	0	1314	1	Ⴊ	cut_n_stereo_44KHz.wav
4	180	4	3	2	I	1	0	1073	1	Ⴡ	cut_n_stereo_44KHz.wav
4	181	2	1	0	C	1	1	577	1	Ⴟ	cut_s_stereo_44KHz.wav
4	182	4	4	2	I	2	0	923	0	Ⴡ	cut_r_stereo_44KHz.wav
4	183	3	4	2	I	1	0	638	1	Ⴊ	cut_r_stereo_44KHz.wav
4	184	1	1	1	C	2	1	778	1	Ⴁ	cut_s_stereo_44KHz.wav
4	185	4	4	2	I	0	0	0	0	Ⴡ	cut_r_stereo_44KHz.wav
4	186	3	4	2	I	1	0	557	0	Ⴊ	cut_r_stereo_44KHz.wav
4	187	1	1	1	C	2	1	810	1	Ⴁ	cut_s_stereo_44KHz.wav
4	188	2	1	0	C	1	1	474	1	Ⴟ	cut_s_stereo_44KHz.wav
4	189	1	2	0	C	1	1	698	1	Ⴁ	cut_ei_stereo_44KHz.wav
4	190	3	3	2	I	2	0	1162	0	Ⴊ	cut_n_stereo_44KHz.wav
4	191	4	3	2	I	1	0	661	1	Ⴡ	cut_n_stereo_44KHz.wav
4	192	2	2	1	C	2	1	636	1	Ⴟ	cut_ei_stereo_44KHz.wav
4	193	4	4	2	I	1	0	1168	0	Ⴡ	cut_r_stereo_44KHz.wav
4	194	2	1	0	C	2	0	334	0	Ⴟ	cut_s_stereo_44KHz.wav
4	195	3	3	2	I	2	0	755	0	Ⴊ	cut_n_stereo_44KHz.wav
4	196	1	1	1	C	2	1	880	1	Ⴁ	cut_s_stereo_44KHz.wav
4	197	2	2	1	C	2	1	780	1	Ⴟ	cut_ei_stereo_44KHz.wav
4	198	4	3	2	I	1	0	1016	0	Ⴡ	cut_n_stereo_44KHz.wav
4	199	1	2	0	C	1	1	660	1	Ⴁ	cut_ei_stereo_44KHz.wav
4	200	3	4	2	I	1	0	678	1	Ⴊ	cut_r_stereo_44KHz.wav
