block	trial	Vstim	Astim	match	C/I	resp	result	RT	fb	V-file	A-file
RL

0	1	1	2	0	C	2	1	1916	1	Ⴉ	cut_oo_stereo_44KHz.wav
0	2	2	4	0	C	1	0	744	0	Ⴞ	cut_eeuw_stereo_44KHz.wav
0	3	1	1	1	C	2	0	948	0	Ⴉ	cut_g_stereo_44KHz.wav
0	4	2	3	1	C	2	0	919	0	Ⴞ	cut_ee_stereo_44KHz.wav
0	5	1	1	1	C	1	1	1241	1	Ⴉ	cut_g_stereo_44KHz.wav
0	6	2	3	1	C	1	1	1360	1	Ⴞ	cut_ee_stereo_44KHz.wav
0	7	1	2	0	C	2	1	787	1	Ⴉ	cut_oo_stereo_44KHz.wav
0	8	2	4	0	C	2	1	1243	1	Ⴞ	cut_eeuw_stereo_44KHz.wav
0	9	2	4	0	C	2	1	1041	1	Ⴞ	cut_eeuw_stereo_44KHz.wav
0	10	2	3	1	C	1	1	984	1	Ⴞ	cut_ee_stereo_44KHz.wav
0	11	1	1	1	C	2	0	1072	0	Ⴉ	cut_g_stereo_44KHz.wav
0	12	1	2	0	C	2	1	572	1	Ⴉ	cut_oo_stereo_44KHz.wav
0	13	1	2	0	C	2	1	896	1	Ⴉ	cut_oo_stereo_44KHz.wav
0	14	2	3	1	C	1	1	1150	1	Ⴞ	cut_ee_stereo_44KHz.wav
0	15	1	1	1	C	1	1	972	1	Ⴉ	cut_g_stereo_44KHz.wav
0	16	2	4	0	C	2	1	1004	1	Ⴞ	cut_eeuw_stereo_44KHz.wav
0	17	1	1	1	C	1	1	852	1	Ⴉ	cut_g_stereo_44KHz.wav
0	18	2	3	1	C	2	0	1709	0	Ⴞ	cut_ee_stereo_44KHz.wav
0	19	1	2	0	C	2	1	584	1	Ⴉ	cut_oo_stereo_44KHz.wav
0	20	2	4	0	C	1	0	529	0	Ⴞ	cut_eeuw_stereo_44KHz.wav
0	21	2	3	1	C	1	1	1197	1	Ⴞ	cut_ee_stereo_44KHz.wav
0	22	2	4	0	C	2	1	685	1	Ⴞ	cut_eeuw_stereo_44KHz.wav
0	23	1	2	0	C	2	1	1002	1	Ⴉ	cut_oo_stereo_44KHz.wav
0	24	1	1	1	C	1	1	1181	1	Ⴉ	cut_g_stereo_44KHz.wav
0	25	1	1	1	C	1	1	1335	1	Ⴉ	cut_g_stereo_44KHz.wav
0	26	2	4	0	C	2	1	1081	1	Ⴞ	cut_eeuw_stereo_44KHz.wav
0	27	1	2	0	C	2	1	680	1	Ⴉ	cut_oo_stereo_44KHz.wav
0	28	2	3	1	C	1	1	1092	1	Ⴞ	cut_ee_stereo_44KHz.wav
0	29	2	3	1	C	1	1	865	1	Ⴞ	cut_ee_stereo_44KHz.wav
0	30	1	1	1	C	1	1	1386	1	Ⴉ	cut_g_stereo_44KHz.wav
avg_resp = 1046
1	1	2	2	1	C	2	0	1297	0	Ⴜ	cut_w_stereo_44KHz.wav
1	2	4	4	2	I	2	0	1338	1	Ⴊ	cut_g_stereo_44KHz.wav
1	3	1	2	0	C	2	1	1536	1	Ⴟ	cut_w_stereo_44KHz.wav
1	4	3	3	2	I	2	0	1737	0	Ⴃ	cut_h_stereo_44KHz.wav
1	5	1	1	1	C	2	0	852	0	Ⴟ	cut_l_stereo_44KHz.wav
1	6	3	4	2	I	2	0	1898	0	Ⴃ	cut_g_stereo_44KHz.wav
1	7	2	1	0	C	2	1	1491	1	Ⴜ	cut_l_stereo_44KHz.wav
1	8	4	3	2	I	0	0	0	0	Ⴊ	cut_h_stereo_44KHz.wav
1	9	1	2	0	C	1	0	974	0	Ⴟ	cut_w_stereo_44KHz.wav
1	10	2	2	1	C	2	0	550	0	Ⴜ	cut_w_stereo_44KHz.wav
1	11	4	3	2	I	2	0	1056	0	Ⴊ	cut_h_stereo_44KHz.wav
1	12	3	3	2	I	2	0	849	0	Ⴃ	cut_h_stereo_44KHz.wav
1	13	2	1	0	C	2	1	1144	1	Ⴜ	cut_l_stereo_44KHz.wav
1	14	4	4	2	I	0	0	0	0	Ⴊ	cut_g_stereo_44KHz.wav
1	15	1	1	1	C	1	1	1204	1	Ⴟ	cut_l_stereo_44KHz.wav
1	16	3	4	2	I	2	0	1410	0	Ⴃ	cut_g_stereo_44KHz.wav
1	17	2	1	0	C	2	1	1061	1	Ⴜ	cut_l_stereo_44KHz.wav
1	18	3	3	2	I	1	0	1145	0	Ⴃ	cut_h_stereo_44KHz.wav
1	19	4	3	2	I	1	0	1089	0	Ⴊ	cut_h_stereo_44KHz.wav
1	20	1	1	1	C	1	1	1158	1	Ⴟ	cut_l_stereo_44KHz.wav
1	21	4	4	2	I	2	0	926	1	Ⴊ	cut_g_stereo_44KHz.wav
1	22	3	4	2	I	1	0	731	0	Ⴃ	cut_g_stereo_44KHz.wav
1	23	2	2	1	C	2	0	1070	0	Ⴜ	cut_w_stereo_44KHz.wav
1	24	1	2	0	C	2	1	574	1	Ⴟ	cut_w_stereo_44KHz.wav
1	25	3	4	2	I	1	0	1594	1	Ⴃ	cut_g_stereo_44KHz.wav
1	26	4	3	2	I	1	0	1063	1	Ⴊ	cut_h_stereo_44KHz.wav
1	27	2	1	0	C	2	1	1142	1	Ⴜ	cut_l_stereo_44KHz.wav
1	28	1	2	0	C	2	1	1408	1	Ⴟ	cut_w_stereo_44KHz.wav
1	29	3	3	2	I	1	0	885	1	Ⴃ	cut_h_stereo_44KHz.wav
1	30	1	1	1	C	1	1	1152	1	Ⴟ	cut_l_stereo_44KHz.wav
1	31	4	4	2	I	2	0	1051	1	Ⴊ	cut_g_stereo_44KHz.wav
1	32	2	2	1	C	1	1	1304	1	Ⴜ	cut_w_stereo_44KHz.wav
1	33	3	3	2	I	1	0	1226	0	Ⴃ	cut_h_stereo_44KHz.wav
1	34	1	2	0	C	2	1	828	1	Ⴟ	cut_w_stereo_44KHz.wav
1	35	4	4	2	I	2	0	1064	0	Ⴊ	cut_g_stereo_44KHz.wav
1	36	2	1	0	C	2	1	821	1	Ⴜ	cut_l_stereo_44KHz.wav
1	37	1	1	1	C	1	1	1279	1	Ⴟ	cut_l_stereo_44KHz.wav
1	38	2	2	1	C	1	1	1202	1	Ⴜ	cut_w_stereo_44KHz.wav
1	39	3	4	2	I	1	0	789	1	Ⴃ	cut_g_stereo_44KHz.wav
1	40	4	3	2	I	1	0	1140	1	Ⴊ	cut_h_stereo_44KHz.wav
1	41	2	1	0	C	2	1	794	1	Ⴜ	cut_l_stereo_44KHz.wav
1	42	1	2	0	C	2	1	920	1	Ⴟ	cut_w_stereo_44KHz.wav
1	43	4	4	2	I	2	0	1037	1	Ⴊ	cut_g_stereo_44KHz.wav
1	44	3	4	2	I	1	0	1058	1	Ⴃ	cut_g_stereo_44KHz.wav
1	45	4	3	2	I	1	0	927	1	Ⴊ	cut_h_stereo_44KHz.wav
1	46	3	3	2	I	2	0	1277	1	Ⴃ	cut_h_stereo_44KHz.wav
1	47	1	1	1	C	1	1	1086	1	Ⴟ	cut_l_stereo_44KHz.wav
1	48	2	2	1	C	1	1	1094	1	Ⴜ	cut_w_stereo_44KHz.wav
1	49	1	1	1	C	1	1	1126	1	Ⴟ	cut_l_stereo_44KHz.wav
1	50	4	3	2	I	1	0	1207	0	Ⴊ	cut_h_stereo_44KHz.wav
1	51	2	2	1	C	1	1	1545	1	Ⴜ	cut_w_stereo_44KHz.wav
1	52	3	3	2	I	2	0	718	1	Ⴃ	cut_h_stereo_44KHz.wav
1	53	2	1	0	C	2	1	717	1	Ⴜ	cut_l_stereo_44KHz.wav
1	54	1	2	0	C	2	1	731	1	Ⴟ	cut_w_stereo_44KHz.wav
1	55	4	4	2	I	2	0	1091	1	Ⴊ	cut_g_stereo_44KHz.wav
1	56	3	4	2	I	1	0	844	1	Ⴃ	cut_g_stereo_44KHz.wav
1	57	1	2	0	C	2	1	680	1	Ⴟ	cut_w_stereo_44KHz.wav
1	58	2	2	1	C	1	1	979	1	Ⴜ	cut_w_stereo_44KHz.wav
1	59	3	3	2	I	2	0	744	1	Ⴃ	cut_h_stereo_44KHz.wav
1	60	4	4	2	I	2	0	1086	1	Ⴊ	cut_g_stereo_44KHz.wav
1	61	3	4	2	I	1	0	956	0	Ⴃ	cut_g_stereo_44KHz.wav
1	62	4	3	2	I	2	0	1226	0	Ⴊ	cut_h_stereo_44KHz.wav
1	63	2	1	0	C	2	1	699	1	Ⴜ	cut_l_stereo_44KHz.wav
1	64	1	1	1	C	1	1	831	1	Ⴟ	cut_l_stereo_44KHz.wav
1	65	3	3	2	I	2	0	889	0	Ⴃ	cut_h_stereo_44KHz.wav
1	66	2	2	1	C	1	1	1087	1	Ⴜ	cut_w_stereo_44KHz.wav
1	67	4	3	2	I	1	0	1172	1	Ⴊ	cut_h_stereo_44KHz.wav
1	68	1	1	1	C	1	1	817	1	Ⴟ	cut_l_stereo_44KHz.wav
1	69	3	4	2	I	1	0	874	1	Ⴃ	cut_g_stereo_44KHz.wav
1	70	4	4	2	I	2	0	1629	1	Ⴊ	cut_g_stereo_44KHz.wav
1	71	1	2	0	C	2	1	867	1	Ⴟ	cut_w_stereo_44KHz.wav
1	72	2	1	0	C	2	1	711	1	Ⴜ	cut_l_stereo_44KHz.wav
1	73	3	4	2	I	1	0	903	1	Ⴃ	cut_g_stereo_44KHz.wav
1	74	1	1	1	C	1	1	745	1	Ⴟ	cut_l_stereo_44KHz.wav
1	75	2	2	1	C	1	1	1191	1	Ⴜ	cut_w_stereo_44KHz.wav
1	76	4	4	2	I	2	0	1044	1	Ⴊ	cut_g_stereo_44KHz.wav
1	77	2	1	0	C	2	1	1164	1	Ⴜ	cut_l_stereo_44KHz.wav
1	78	4	3	2	I	0	0	0	0	Ⴊ	cut_h_stereo_44KHz.wav
1	79	1	2	0	C	2	1	653	1	Ⴟ	cut_w_stereo_44KHz.wav
1	80	3	3	2	I	2	0	743	0	Ⴃ	cut_h_stereo_44KHz.wav
1	81	4	3	2	I	1	0	1227	1	Ⴊ	cut_h_stereo_44KHz.wav
1	82	1	2	0	C	2	1	642	1	Ⴟ	cut_w_stereo_44KHz.wav
1	83	3	3	2	I	2	0	597	0	Ⴃ	cut_h_stereo_44KHz.wav
1	84	2	1	0	C	2	1	724	1	Ⴜ	cut_l_stereo_44KHz.wav
1	85	4	4	2	I	2	0	960	1	Ⴊ	cut_g_stereo_44KHz.wav
1	86	3	4	2	I	2	0	1100	0	Ⴃ	cut_g_stereo_44KHz.wav
1	87	1	1	1	C	1	1	1193	1	Ⴟ	cut_l_stereo_44KHz.wav
1	88	2	2	1	C	1	1	908	1	Ⴜ	cut_w_stereo_44KHz.wav
1	89	1	2	0	C	2	1	888	1	Ⴟ	cut_w_stereo_44KHz.wav
1	90	2	1	0	C	2	1	849	1	Ⴜ	cut_l_stereo_44KHz.wav
1	91	4	3	2	I	1	0	1266	0	Ⴊ	cut_h_stereo_44KHz.wav
1	92	3	4	2	I	1	0	1600	1	Ⴃ	cut_g_stereo_44KHz.wav
1	93	4	4	2	I	2	0	1072	0	Ⴊ	cut_g_stereo_44KHz.wav
1	94	2	2	1	C	0	0	0	0	Ⴜ	cut_w_stereo_44KHz.wav
1	95	1	1	1	C	1	1	900	1	Ⴟ	cut_l_stereo_44KHz.wav
1	96	3	3	2	I	2	0	1011	1	Ⴃ	cut_h_stereo_44KHz.wav
1	97	4	4	2	I	2	0	1039	0	Ⴊ	cut_g_stereo_44KHz.wav
1	98	1	1	1	C	1	1	1315	1	Ⴟ	cut_l_stereo_44KHz.wav
1	99	2	2	1	C	1	1	1344	1	Ⴜ	cut_w_stereo_44KHz.wav
1	100	3	4	2	I	1	0	1638	0	Ⴃ	cut_g_stereo_44KHz.wav
1	101	2	1	0	C	2	1	1303	1	Ⴜ	cut_l_stereo_44KHz.wav
1	102	1	2	0	C	2	1	1122	1	Ⴟ	cut_w_stereo_44KHz.wav
1	103	4	3	2	I	2	0	1218	0	Ⴊ	cut_h_stereo_44KHz.wav
1	104	3	3	2	I	2	0	859	1	Ⴃ	cut_h_stereo_44KHz.wav
1	105	4	4	2	I	2	0	874	0	Ⴊ	cut_g_stereo_44KHz.wav
1	106	2	1	0	C	2	1	946	1	Ⴜ	cut_l_stereo_44KHz.wav
1	107	1	1	1	C	1	1	1224	1	Ⴟ	cut_l_stereo_44KHz.wav
1	108	3	4	2	I	1	0	1320	0	Ⴃ	cut_g_stereo_44KHz.wav
1	109	4	3	2	I	2	0	876	0	Ⴊ	cut_h_stereo_44KHz.wav
1	110	1	2	0	C	2	1	840	1	Ⴟ	cut_w_stereo_44KHz.wav
1	111	2	2	1	C	1	1	992	1	Ⴜ	cut_w_stereo_44KHz.wav
1	112	3	3	2	I	2	0	964	1	Ⴃ	cut_h_stereo_44KHz.wav
1	113	4	3	2	I	1	0	1631	1	Ⴊ	cut_h_stereo_44KHz.wav
1	114	2	1	0	C	2	1	900	1	Ⴜ	cut_l_stereo_44KHz.wav
1	115	1	1	1	C	1	1	942	1	Ⴟ	cut_l_stereo_44KHz.wav
1	116	3	4	2	I	1	0	1260	0	Ⴃ	cut_g_stereo_44KHz.wav
1	117	1	2	0	C	2	1	892	1	Ⴟ	cut_w_stereo_44KHz.wav
1	118	3	3	2	I	2	0	655	1	Ⴃ	cut_h_stereo_44KHz.wav
1	119	2	2	1	C	1	1	888	1	Ⴜ	cut_w_stereo_44KHz.wav
1	120	4	4	2	I	2	0	1632	0	Ⴊ	cut_g_stereo_44KHz.wav
1	121	3	4	2	I	2	0	758	1	Ⴃ	cut_g_stereo_44KHz.wav
1	122	1	2	0	C	2	1	826	1	Ⴟ	cut_w_stereo_44KHz.wav
1	123	4	3	2	I	1	0	1062	1	Ⴊ	cut_h_stereo_44KHz.wav
1	124	2	2	1	C	1	1	1103	1	Ⴜ	cut_w_stereo_44KHz.wav
1	125	4	4	2	I	2	0	1144	1	Ⴊ	cut_g_stereo_44KHz.wav
1	126	3	3	2	I	2	0	769	0	Ⴃ	cut_h_stereo_44KHz.wav
1	127	2	1	0	C	2	1	647	1	Ⴜ	cut_l_stereo_44KHz.wav
1	128	1	1	1	C	1	1	876	1	Ⴟ	cut_l_stereo_44KHz.wav
1	129	4	3	2	I	1	0	978	0	Ⴊ	cut_h_stereo_44KHz.wav
1	130	1	1	1	C	1	1	1094	1	Ⴟ	cut_l_stereo_44KHz.wav
1	131	2	2	1	C	1	1	1167	1	Ⴜ	cut_w_stereo_44KHz.wav
1	132	3	4	2	I	2	0	1247	1	Ⴃ	cut_g_stereo_44KHz.wav
1	133	2	1	0	C	2	1	1072	1	Ⴜ	cut_l_stereo_44KHz.wav
1	134	1	2	0	C	2	1	961	1	Ⴟ	cut_w_stereo_44KHz.wav
1	135	4	4	2	I	2	0	773	0	Ⴊ	cut_g_stereo_44KHz.wav
1	136	3	3	2	I	2	0	1062	1	Ⴃ	cut_h_stereo_44KHz.wav
1	137	2	2	1	C	1	1	980	1	Ⴜ	cut_w_stereo_44KHz.wav
1	138	3	4	2	I	2	0	819	1	Ⴃ	cut_g_stereo_44KHz.wav
1	139	4	4	2	I	2	0	809	1	Ⴊ	cut_g_stereo_44KHz.wav
1	140	1	2	0	C	2	1	842	1	Ⴟ	cut_w_stereo_44KHz.wav
1	141	3	3	2	I	2	0	814	0	Ⴃ	cut_h_stereo_44KHz.wav
1	142	2	1	0	C	2	1	748	1	Ⴜ	cut_l_stereo_44KHz.wav
1	143	1	1	1	C	1	1	908	1	Ⴟ	cut_l_stereo_44KHz.wav
1	144	4	3	2	I	1	0	1014	0	Ⴊ	cut_h_stereo_44KHz.wav
1	145	2	2	1	C	1	1	1298	1	Ⴜ	cut_w_stereo_44KHz.wav
1	146	1	1	1	C	1	1	1033	1	Ⴟ	cut_l_stereo_44KHz.wav
1	147	4	4	2	I	2	0	996	1	Ⴊ	cut_g_stereo_44KHz.wav
1	148	3	3	2	I	2	0	829	0	Ⴃ	cut_h_stereo_44KHz.wav
1	149	4	3	2	I	1	0	847	0	Ⴊ	cut_h_stereo_44KHz.wav
1	150	1	2	0	C	2	1	705	1	Ⴟ	cut_w_stereo_44KHz.wav
1	151	3	4	2	I	1	0	858	0	Ⴃ	cut_g_stereo_44KHz.wav
1	152	2	1	0	C	2	1	776	1	Ⴜ	cut_l_stereo_44KHz.wav
1	153	4	4	2	I	2	0	1030	0	Ⴊ	cut_g_stereo_44KHz.wav
1	154	1	2	0	C	2	1	554	1	Ⴟ	cut_w_stereo_44KHz.wav
1	155	3	3	2	I	2	0	678	1	Ⴃ	cut_h_stereo_44KHz.wav
1	156	2	1	0	C	2	1	718	1	Ⴜ	cut_l_stereo_44KHz.wav
1	157	4	3	2	I	1	0	936	0	Ⴊ	cut_h_stereo_44KHz.wav
1	158	1	1	1	C	1	1	1097	1	Ⴟ	cut_l_stereo_44KHz.wav
1	159	3	4	2	I	2	0	1046	0	Ⴃ	cut_g_stereo_44KHz.wav
1	160	2	2	1	C	1	1	1212	1	Ⴜ	cut_w_stereo_44KHz.wav
1	161	1	1	1	C	1	1	922	1	Ⴟ	cut_l_stereo_44KHz.wav
1	162	2	2	1	C	1	1	1800	1	Ⴜ	cut_w_stereo_44KHz.wav
1	163	3	3	2	I	2	0	1251	0	Ⴃ	cut_h_stereo_44KHz.wav
1	164	4	3	2	I	2	0	895	1	Ⴊ	cut_h_stereo_44KHz.wav
1	165	3	4	2	I	2	0	876	0	Ⴃ	cut_g_stereo_44KHz.wav
1	166	1	2	0	C	2	1	869	1	Ⴟ	cut_w_stereo_44KHz.wav
1	167	2	1	0	C	2	1	1018	1	Ⴜ	cut_l_stereo_44KHz.wav
1	168	4	4	2	I	2	0	1098	0	Ⴊ	cut_g_stereo_44KHz.wav
1	169	1	1	1	C	1	1	927	1	Ⴟ	cut_l_stereo_44KHz.wav
1	170	2	1	0	C	2	1	1079	1	Ⴜ	cut_l_stereo_44KHz.wav
1	171	4	3	2	I	1	0	1099	1	Ⴊ	cut_h_stereo_44KHz.wav
1	172	3	4	2	I	2	0	1226	1	Ⴃ	cut_g_stereo_44KHz.wav
1	173	1	2	0	C	2	1	787	1	Ⴟ	cut_w_stereo_44KHz.wav
1	174	4	4	2	I	2	0	1460	0	Ⴊ	cut_g_stereo_44KHz.wav
1	175	3	3	2	I	2	0	932	0	Ⴃ	cut_h_stereo_44KHz.wav
1	176	2	2	1	C	2	0	991	0	Ⴜ	cut_w_stereo_44KHz.wav
1	177	1	1	1	C	2	0	597	0	Ⴟ	cut_l_stereo_44KHz.wav
1	178	3	3	2	I	2	0	667	1	Ⴃ	cut_h_stereo_44KHz.wav
1	179	2	1	0	C	2	1	664	1	Ⴜ	cut_l_stereo_44KHz.wav
1	180	4	3	2	I	2	0	784	0	Ⴊ	cut_h_stereo_44KHz.wav
1	181	1	2	0	C	2	1	606	1	Ⴟ	cut_w_stereo_44KHz.wav
1	182	2	2	1	C	1	1	999	1	Ⴜ	cut_w_stereo_44KHz.wav
1	183	3	4	2	I	2	0	934	1	Ⴃ	cut_g_stereo_44KHz.wav
1	184	4	4	2	I	2	0	1021	0	Ⴊ	cut_g_stereo_44KHz.wav
1	185	3	4	2	I	2	0	614	1	Ⴃ	cut_g_stereo_44KHz.wav
1	186	2	2	1	C	1	1	1329	1	Ⴜ	cut_w_stereo_44KHz.wav
1	187	4	3	2	I	2	0	929	1	Ⴊ	cut_h_stereo_44KHz.wav
1	188	1	2	0	C	2	1	1012	1	Ⴟ	cut_w_stereo_44KHz.wav
1	189	2	1	0	C	2	1	877	1	Ⴜ	cut_l_stereo_44KHz.wav
1	190	1	1	1	C	1	1	862	1	Ⴟ	cut_l_stereo_44KHz.wav
1	191	3	3	2	I	1	0	1128	0	Ⴃ	cut_h_stereo_44KHz.wav
1	192	4	4	2	I	1	0	976	1	Ⴊ	cut_g_stereo_44KHz.wav
1	193	1	1	1	C	1	1	948	1	Ⴟ	cut_l_stereo_44KHz.wav
1	194	2	2	1	C	2	0	1063	0	Ⴜ	cut_w_stereo_44KHz.wav
1	195	4	3	2	I	2	0	1036	0	Ⴊ	cut_h_stereo_44KHz.wav
1	196	3	4	2	I	2	0	761	0	Ⴃ	cut_g_stereo_44KHz.wav
1	197	4	4	2	I	1	0	981	1	Ⴊ	cut_g_stereo_44KHz.wav
1	198	2	1	0	C	2	1	727	1	Ⴜ	cut_l_stereo_44KHz.wav
1	199	1	2	0	C	2	1	924	1	Ⴟ	cut_w_stereo_44KHz.wav
1	200	3	3	2	I	2	0	846	1	Ⴃ	cut_h_stereo_44KHz.wav
2	1	1	1	1	C	2	0	1240	0	Ⴒ	cut_j_stereo_44KHz.wav
2	2	3	4	2	I	2	0	648	1	Ⴐ	cut_f_stereo_44KHz.wav
2	3	4	4	2	I	1	0	1109	0	Ⴕ	cut_f_stereo_44KHz.wav
2	4	2	2	1	C	2	0	744	0	Ⴖ	cut_r_stereo_44KHz.wav
2	5	4	3	2	I	2	0	391	1	Ⴕ	cut_oei_stereo_44KHz.wav
2	6	3	3	2	I	2	0	579	0	Ⴐ	cut_oei_stereo_44KHz.wav
2	7	1	2	0	C	2	1	812	1	Ⴒ	cut_r_stereo_44KHz.wav
2	8	2	1	0	C	2	1	861	1	Ⴖ	cut_j_stereo_44KHz.wav
2	9	1	2	0	C	1	0	1447	0	Ⴒ	cut_r_stereo_44KHz.wav
2	10	3	3	2	I	1	0	929	0	Ⴐ	cut_oei_stereo_44KHz.wav
2	11	2	1	0	C	2	1	1006	1	Ⴖ	cut_j_stereo_44KHz.wav
2	12	4	3	2	I	2	0	687	1	Ⴕ	cut_oei_stereo_44KHz.wav
2	13	1	1	1	C	1	1	1126	1	Ⴒ	cut_j_stereo_44KHz.wav
2	14	2	2	1	C	1	1	1112	1	Ⴖ	cut_r_stereo_44KHz.wav
2	15	4	4	2	I	2	0	1144	0	Ⴕ	cut_f_stereo_44KHz.wav
2	16	3	4	2	I	1	0	1429	0	Ⴐ	cut_f_stereo_44KHz.wav
2	17	1	1	1	C	2	0	1291	0	Ⴒ	cut_j_stereo_44KHz.wav
2	18	4	4	2	I	1	0	1505	0	Ⴕ	cut_f_stereo_44KHz.wav
2	19	3	3	2	I	1	0	1006	1	Ⴐ	cut_oei_stereo_44KHz.wav
2	20	2	2	1	C	1	1	861	1	Ⴖ	cut_r_stereo_44KHz.wav
2	21	4	3	2	I	2	0	1002	0	Ⴕ	cut_oei_stereo_44KHz.wav
2	22	2	1	0	C	2	1	1070	1	Ⴖ	cut_j_stereo_44KHz.wav
2	23	1	2	0	C	2	1	1165	1	Ⴒ	cut_r_stereo_44KHz.wav
2	24	3	4	2	I	2	0	1231	1	Ⴐ	cut_f_stereo_44KHz.wav
2	25	1	2	0	C	2	1	1473	1	Ⴒ	cut_r_stereo_44KHz.wav
2	26	3	4	2	I	2	0	592	1	Ⴐ	cut_f_stereo_44KHz.wav
2	27	2	2	1	C	1	1	1061	1	Ⴖ	cut_r_stereo_44KHz.wav
2	28	4	3	2	I	2	0	1427	1	Ⴕ	cut_oei_stereo_44KHz.wav
2	29	3	3	2	I	1	0	795	0	Ⴐ	cut_oei_stereo_44KHz.wav
2	30	2	1	0	C	2	1	1144	1	Ⴖ	cut_j_stereo_44KHz.wav
2	31	4	4	2	I	2	0	1366	0	Ⴕ	cut_f_stereo_44KHz.wav
2	32	1	1	1	C	2	0	1145	0	Ⴒ	cut_j_stereo_44KHz.wav
2	33	4	3	2	I	2	0	751	1	Ⴕ	cut_oei_stereo_44KHz.wav
2	34	3	4	2	I	2	0	1139	0	Ⴐ	cut_f_stereo_44KHz.wav
2	35	2	2	1	C	1	1	928	1	Ⴖ	cut_r_stereo_44KHz.wav
2	36	1	2	0	C	1	0	1066	0	Ⴒ	cut_r_stereo_44KHz.wav
2	37	3	3	2	I	2	0	737	0	Ⴐ	cut_oei_stereo_44KHz.wav
2	38	2	1	0	C	2	1	927	1	Ⴖ	cut_j_stereo_44KHz.wav
2	39	4	4	2	I	2	0	992	1	Ⴕ	cut_f_stereo_44KHz.wav
2	40	1	1	1	C	2	0	1401	0	Ⴒ	cut_j_stereo_44KHz.wav
2	41	2	1	0	C	2	1	888	1	Ⴖ	cut_j_stereo_44KHz.wav
2	42	3	3	2	I	1	0	957	0	Ⴐ	cut_oei_stereo_44KHz.wav
2	43	4	4	2	I	2	0	929	0	Ⴕ	cut_f_stereo_44KHz.wav
2	44	1	2	0	C	2	1	925	1	Ⴒ	cut_r_stereo_44KHz.wav
2	45	3	4	2	I	2	0	895	1	Ⴐ	cut_f_stereo_44KHz.wav
2	46	1	1	1	C	2	0	1078	0	Ⴒ	cut_j_stereo_44KHz.wav
2	47	4	3	2	I	2	0	1307	1	Ⴕ	cut_oei_stereo_44KHz.wav
2	48	2	2	1	C	1	1	842	1	Ⴖ	cut_r_stereo_44KHz.wav
2	49	4	4	2	I	2	0	1020	0	Ⴕ	cut_f_stereo_44KHz.wav
2	50	2	1	0	C	2	1	1092	1	Ⴖ	cut_j_stereo_44KHz.wav
2	51	3	4	2	I	2	0	798	0	Ⴐ	cut_f_stereo_44KHz.wav
2	52	1	1	1	C	1	1	1203	1	Ⴒ	cut_j_stereo_44KHz.wav
2	53	3	3	2	I	2	0	991	1	Ⴐ	cut_oei_stereo_44KHz.wav
2	54	1	2	0	C	2	1	855	1	Ⴒ	cut_r_stereo_44KHz.wav
2	55	4	3	2	I	2	0	993	1	Ⴕ	cut_oei_stereo_44KHz.wav
2	56	2	2	1	C	1	1	1068	1	Ⴖ	cut_r_stereo_44KHz.wav
2	57	1	1	1	C	1	1	1274	1	Ⴒ	cut_j_stereo_44KHz.wav
2	58	4	3	2	I	2	0	857	0	Ⴕ	cut_oei_stereo_44KHz.wav
2	59	3	4	2	I	2	0	894	1	Ⴐ	cut_f_stereo_44KHz.wav
2	60	2	2	1	C	1	1	1155	1	Ⴖ	cut_r_stereo_44KHz.wav
2	61	1	2	0	C	2	1	863	1	Ⴒ	cut_r_stereo_44KHz.wav
2	62	2	1	0	C	2	1	815	1	Ⴖ	cut_j_stereo_44KHz.wav
2	63	4	4	2	I	2	0	1634	0	Ⴕ	cut_f_stereo_44KHz.wav
2	64	3	3	2	I	2	0	1602	1	Ⴐ	cut_oei_stereo_44KHz.wav
2	65	2	2	1	C	1	1	822	1	Ⴖ	cut_r_stereo_44KHz.wav
2	66	4	3	2	I	2	0	758	0	Ⴕ	cut_oei_stereo_44KHz.wav
2	67	1	2	0	C	2	1	736	1	Ⴒ	cut_r_stereo_44KHz.wav
2	68	3	4	2	I	2	0	1106	0	Ⴐ	cut_f_stereo_44KHz.wav
2	69	2	1	0	C	2	1	922	1	Ⴖ	cut_j_stereo_44KHz.wav
2	70	3	3	2	I	2	0	741	0	Ⴐ	cut_oei_stereo_44KHz.wav
2	71	4	4	2	I	0	0	0	0	Ⴕ	cut_f_stereo_44KHz.wav
2	72	1	1	1	C	1	1	1445	1	Ⴒ	cut_j_stereo_44KHz.wav
2	73	4	3	2	I	1	0	1000	0	Ⴕ	cut_oei_stereo_44KHz.wav
2	74	2	2	1	C	1	1	1070	1	Ⴖ	cut_r_stereo_44KHz.wav
2	75	1	2	0	C	2	1	1031	1	Ⴒ	cut_r_stereo_44KHz.wav
2	76	3	4	2	I	1	0	1018	1	Ⴐ	cut_f_stereo_44KHz.wav
2	77	4	4	2	I	1	0	947	0	Ⴕ	cut_f_stereo_44KHz.wav
2	78	3	3	2	I	2	0	742	1	Ⴐ	cut_oei_stereo_44KHz.wav
2	79	2	1	0	C	2	1	958	1	Ⴖ	cut_j_stereo_44KHz.wav
2	80	1	1	1	C	1	1	1104	1	Ⴒ	cut_j_stereo_44KHz.wav
2	81	2	2	1	C	1	1	867	1	Ⴖ	cut_r_stereo_44KHz.wav
2	82	1	1	1	C	1	1	1022	1	Ⴒ	cut_j_stereo_44KHz.wav
2	83	3	3	2	I	2	0	1121	0	Ⴐ	cut_oei_stereo_44KHz.wav
2	84	4	3	2	I	2	0	1671	0	Ⴕ	cut_oei_stereo_44KHz.wav
2	85	3	4	2	I	1	0	1209	0	Ⴐ	cut_f_stereo_44KHz.wav
2	86	4	4	2	I	2	0	1387	1	Ⴕ	cut_f_stereo_44KHz.wav
2	87	1	2	0	C	2	1	985	1	Ⴒ	cut_r_stereo_44KHz.wav
2	88	2	1	0	C	2	1	968	1	Ⴖ	cut_j_stereo_44KHz.wav
2	89	4	4	2	I	2	0	1021	1	Ⴕ	cut_f_stereo_44KHz.wav
2	90	3	4	2	I	2	0	1105	1	Ⴐ	cut_f_stereo_44KHz.wav
2	91	1	1	1	C	1	1	1244	1	Ⴒ	cut_j_stereo_44KHz.wav
2	92	2	1	0	C	2	1	902	1	Ⴖ	cut_j_stereo_44KHz.wav
2	93	1	2	0	C	2	1	823	1	Ⴒ	cut_r_stereo_44KHz.wav
2	94	4	3	2	I	1	0	1019	1	Ⴕ	cut_oei_stereo_44KHz.wav
2	95	2	2	1	C	1	1	1343	1	Ⴖ	cut_r_stereo_44KHz.wav
2	96	3	3	2	I	1	0	1093	1	Ⴐ	cut_oei_stereo_44KHz.wav
2	97	1	2	0	C	2	1	685	1	Ⴒ	cut_r_stereo_44KHz.wav
2	98	4	4	2	I	2	0	913	0	Ⴕ	cut_f_stereo_44KHz.wav
2	99	3	3	2	I	2	0	807	1	Ⴐ	cut_oei_stereo_44KHz.wav
2	100	2	1	0	C	2	1	826	1	Ⴖ	cut_j_stereo_44KHz.wav
2	101	4	3	2	I	1	0	1081	0	Ⴕ	cut_oei_stereo_44KHz.wav
2	102	2	2	1	C	1	1	949	1	Ⴖ	cut_r_stereo_44KHz.wav
2	103	3	4	2	I	2	0	1021	1	Ⴐ	cut_f_stereo_44KHz.wav
2	104	1	1	1	C	2	0	1288	0	Ⴒ	cut_j_stereo_44KHz.wav
2	105	4	4	2	I	2	0	962	0	Ⴕ	cut_f_stereo_44KHz.wav
2	106	3	3	2	I	1	0	1100	1	Ⴐ	cut_oei_stereo_44KHz.wav
2	107	2	2	1	C	1	1	909	1	Ⴖ	cut_r_stereo_44KHz.wav
2	108	1	1	1	C	1	1	902	1	Ⴒ	cut_j_stereo_44KHz.wav
2	109	3	4	2	I	2	0	1308	1	Ⴐ	cut_f_stereo_44KHz.wav
2	110	4	3	2	I	1	0	938	1	Ⴕ	cut_oei_stereo_44KHz.wav
2	111	1	2	0	C	2	1	750	1	Ⴒ	cut_r_stereo_44KHz.wav
2	112	2	1	0	C	2	1	1102	1	Ⴖ	cut_j_stereo_44KHz.wav
2	113	3	4	2	I	1	0	1035	0	Ⴐ	cut_f_stereo_44KHz.wav
2	114	1	2	0	C	2	1	828	1	Ⴒ	cut_r_stereo_44KHz.wav
2	115	4	3	2	I	1	0	1333	0	Ⴕ	cut_oei_stereo_44KHz.wav
2	116	2	1	0	C	2	1	1001	1	Ⴖ	cut_j_stereo_44KHz.wav
2	117	3	3	2	I	1	0	1419	0	Ⴐ	cut_oei_stereo_44KHz.wav
2	118	1	1	1	C	1	1	868	1	Ⴒ	cut_j_stereo_44KHz.wav
2	119	4	4	2	I	2	0	1524	0	Ⴕ	cut_f_stereo_44KHz.wav
2	120	2	2	1	C	0	0	0	0	Ⴖ	cut_r_stereo_44KHz.wav
2	121	3	3	2	I	2	0	854	0	Ⴐ	cut_oei_stereo_44KHz.wav
2	122	1	2	0	C	2	1	993	1	Ⴒ	cut_r_stereo_44KHz.wav
2	123	2	1	0	C	1	0	1250	0	Ⴖ	cut_j_stereo_44KHz.wav
2	124	4	4	2	I	2	0	843	1	Ⴕ	cut_f_stereo_44KHz.wav
2	125	3	4	2	I	1	0	792	0	Ⴐ	cut_f_stereo_44KHz.wav
2	126	4	3	2	I	1	0	789	0	Ⴕ	cut_oei_stereo_44KHz.wav
2	127	1	1	1	C	1	1	1525	1	Ⴒ	cut_j_stereo_44KHz.wav
2	128	2	2	1	C	1	1	926	1	Ⴖ	cut_r_stereo_44KHz.wav
2	129	3	4	2	I	2	0	980	0	Ⴐ	cut_f_stereo_44KHz.wav
2	130	1	1	1	C	1	1	1007	1	Ⴒ	cut_j_stereo_44KHz.wav
2	131	2	2	1	C	1	1	1162	1	Ⴖ	cut_r_stereo_44KHz.wav
2	132	4	3	2	I	1	0	699	0	Ⴕ	cut_oei_stereo_44KHz.wav
2	133	1	2	0	C	2	1	770	1	Ⴒ	cut_r_stereo_44KHz.wav
2	134	3	3	2	I	1	0	909	0	Ⴐ	cut_oei_stereo_44KHz.wav
2	135	2	1	0	C	2	1	809	1	Ⴖ	cut_j_stereo_44KHz.wav
2	136	4	4	2	I	2	0	841	1	Ⴕ	cut_f_stereo_44KHz.wav
2	137	1	1	1	C	1	1	1310	1	Ⴒ	cut_j_stereo_44KHz.wav
2	138	3	4	2	I	1	0	1261	0	Ⴐ	cut_f_stereo_44KHz.wav
2	139	4	3	2	I	2	0	916	0	Ⴕ	cut_oei_stereo_44KHz.wav
2	140	2	2	1	C	2	0	775	0	Ⴖ	cut_r_stereo_44KHz.wav
2	141	1	2	0	C	2	1	624	1	Ⴒ	cut_r_stereo_44KHz.wav
2	142	2	1	0	C	2	1	982	1	Ⴖ	cut_j_stereo_44KHz.wav
2	143	3	3	2	I	1	0	1359	0	Ⴐ	cut_oei_stereo_44KHz.wav
2	144	4	4	2	I	2	0	851	0	Ⴕ	cut_f_stereo_44KHz.wav
2	145	3	4	2	I	1	0	878	1	Ⴐ	cut_f_stereo_44KHz.wav
2	146	4	4	2	I	1	0	1141	0	Ⴕ	cut_f_stereo_44KHz.wav
2	147	1	2	0	C	2	1	772	1	Ⴒ	cut_r_stereo_44KHz.wav
2	148	2	2	1	C	1	1	858	1	Ⴖ	cut_r_stereo_44KHz.wav
2	149	1	1	1	C	1	1	1275	1	Ⴒ	cut_j_stereo_44KHz.wav
2	150	3	3	2	I	2	0	1100	1	Ⴐ	cut_oei_stereo_44KHz.wav
2	151	2	1	0	C	2	1	1326	1	Ⴖ	cut_j_stereo_44KHz.wav
2	152	4	3	2	I	1	0	1170	1	Ⴕ	cut_oei_stereo_44KHz.wav
2	153	2	1	0	C	2	1	1131	1	Ⴖ	cut_j_stereo_44KHz.wav
2	154	3	4	2	I	2	0	1284	0	Ⴐ	cut_f_stereo_44KHz.wav
2	155	1	1	1	C	1	1	1273	1	Ⴒ	cut_j_stereo_44KHz.wav
2	156	4	3	2	I	1	0	1100	0	Ⴕ	cut_oei_stereo_44KHz.wav
2	157	1	2	0	C	2	1	644	1	Ⴒ	cut_r_stereo_44KHz.wav
2	158	4	4	2	I	1	0	824	1	Ⴕ	cut_f_stereo_44KHz.wav
2	159	3	3	2	I	2	0	906	1	Ⴐ	cut_oei_stereo_44KHz.wav
2	160	2	2	1	C	2	0	659	0	Ⴖ	cut_r_stereo_44KHz.wav
2	161	4	3	2	I	1	0	996	1	Ⴕ	cut_oei_stereo_44KHz.wav
2	162	1	1	1	C	1	1	1521	1	Ⴒ	cut_j_stereo_44KHz.wav
2	163	2	2	1	C	2	0	689	0	Ⴖ	cut_r_stereo_44KHz.wav
2	164	3	4	2	I	2	0	1602	1	Ⴐ	cut_f_stereo_44KHz.wav
2	165	2	1	0	C	2	1	1042	1	Ⴖ	cut_j_stereo_44KHz.wav
2	166	4	4	2	I	1	0	1166	1	Ⴕ	cut_f_stereo_44KHz.wav
2	167	1	2	0	C	2	1	946	1	Ⴒ	cut_r_stereo_44KHz.wav
2	168	3	3	2	I	2	0	898	0	Ⴐ	cut_oei_stereo_44KHz.wav
2	169	1	1	1	C	1	1	1299	1	Ⴒ	cut_j_stereo_44KHz.wav
2	170	3	3	2	I	1	0	1020	0	Ⴐ	cut_oei_stereo_44KHz.wav
2	171	4	4	2	I	2	0	1286	1	Ⴕ	cut_f_stereo_44KHz.wav
2	172	2	1	0	C	2	1	751	1	Ⴖ	cut_j_stereo_44KHz.wav
2	173	1	2	0	C	2	1	842	1	Ⴒ	cut_r_stereo_44KHz.wav
2	174	4	3	2	I	1	0	1391	1	Ⴕ	cut_oei_stereo_44KHz.wav
2	175	2	2	1	C	1	1	1022	1	Ⴖ	cut_r_stereo_44KHz.wav
2	176	3	4	2	I	1	0	1311	1	Ⴐ	cut_f_stereo_44KHz.wav
2	177	2	2	1	C	1	1	777	1	Ⴖ	cut_r_stereo_44KHz.wav
2	178	4	3	2	I	1	0	1495	1	Ⴕ	cut_oei_stereo_44KHz.wav
2	179	1	2	0	C	2	1	1007	1	Ⴒ	cut_r_stereo_44KHz.wav
2	180	3	4	2	I	1	0	1539	1	Ⴐ	cut_f_stereo_44KHz.wav
2	181	1	1	1	C	1	1	943	1	Ⴒ	cut_j_stereo_44KHz.wav
2	182	4	4	2	I	2	0	1013	1	Ⴕ	cut_f_stereo_44KHz.wav
2	183	2	1	0	C	2	1	901	1	Ⴖ	cut_j_stereo_44KHz.wav
2	184	3	3	2	I	2	0	752	0	Ⴐ	cut_oei_stereo_44KHz.wav
2	185	4	3	2	I	1	0	833	1	Ⴕ	cut_oei_stereo_44KHz.wav
2	186	1	2	0	C	2	1	1120	1	Ⴒ	cut_r_stereo_44KHz.wav
2	187	3	4	2	I	1	0	960	1	Ⴐ	cut_f_stereo_44KHz.wav
2	188	2	1	0	C	2	1	861	1	Ⴖ	cut_j_stereo_44KHz.wav
2	189	1	1	1	C	1	1	965	1	Ⴒ	cut_j_stereo_44KHz.wav
2	190	4	4	2	I	2	0	1178	0	Ⴕ	cut_f_stereo_44KHz.wav
2	191	3	3	2	I	2	0	957	1	Ⴐ	cut_oei_stereo_44KHz.wav
2	192	2	2	1	C	1	1	1274	1	Ⴖ	cut_r_stereo_44KHz.wav
2	193	4	4	2	I	2	0	1185	1	Ⴕ	cut_f_stereo_44KHz.wav
2	194	3	4	2	I	2	0	490	1	Ⴐ	cut_f_stereo_44KHz.wav
2	195	1	2	0	C	2	1	841	1	Ⴒ	cut_r_stereo_44KHz.wav
2	196	2	1	0	C	2	1	933	1	Ⴖ	cut_j_stereo_44KHz.wav
2	197	4	3	2	I	1	0	1136	1	Ⴕ	cut_oei_stereo_44KHz.wav
2	198	3	3	2	I	2	0	971	0	Ⴐ	cut_oei_stereo_44KHz.wav
2	199	2	2	1	C	1	1	1075	1	Ⴖ	cut_r_stereo_44KHz.wav
2	200	1	1	1	C	2	0	1422	0	Ⴒ	cut_j_stereo_44KHz.wav
3	1	3	3	2	I	2	0	1413	1	Ⴡ	cut_a_stereo_44KHz.wav
3	2	4	4	2	I	2	0	826	1	Ⴁ	cut_o_stereo_44KHz.wav
3	3	2	2	1	C	2	0	1112	0	Ⴂ	cut_u_stereo_44KHz.wav
3	4	1	1	1	C	2	0	610	0	Ⴇ	cut_k_stereo_44KHz.wav
3	5	3	4	2	I	2	0	948	0	Ⴡ	cut_o_stereo_44KHz.wav
3	6	4	3	2	I	2	0	1020	1	Ⴁ	cut_a_stereo_44KHz.wav
3	7	2	1	0	C	2	1	912	1	Ⴂ	cut_k_stereo_44KHz.wav
3	8	1	2	0	C	2	1	1073	1	Ⴇ	cut_u_stereo_44KHz.wav
3	9	4	3	2	I	1	0	1502	1	Ⴁ	cut_a_stereo_44KHz.wav
3	10	3	4	2	I	2	0	1143	0	Ⴡ	cut_o_stereo_44KHz.wav
3	11	1	2	0	C	2	1	557	1	Ⴇ	cut_u_stereo_44KHz.wav
3	12	2	2	1	C	2	0	381	0	Ⴂ	cut_u_stereo_44KHz.wav
3	13	4	4	2	I	2	0	580	1	Ⴁ	cut_o_stereo_44KHz.wav
3	14	1	1	1	C	2	0	566	0	Ⴇ	cut_k_stereo_44KHz.wav
3	15	2	1	0	C	2	1	429	1	Ⴂ	cut_k_stereo_44KHz.wav
3	16	3	3	2	I	2	0	587	1	Ⴡ	cut_a_stereo_44KHz.wav
3	17	1	1	1	C	1	1	998	1	Ⴇ	cut_k_stereo_44KHz.wav
3	18	2	1	0	C	2	1	744	1	Ⴂ	cut_k_stereo_44KHz.wav
3	19	3	4	2	I	1	0	995	1	Ⴡ	cut_o_stereo_44KHz.wav
3	20	4	4	2	I	1	0	1463	1	Ⴁ	cut_o_stereo_44KHz.wav
3	21	3	3	2	I	2	0	969	1	Ⴡ	cut_a_stereo_44KHz.wav
3	22	1	2	0	C	2	1	812	1	Ⴇ	cut_u_stereo_44KHz.wav
3	23	2	2	1	C	1	1	827	1	Ⴂ	cut_u_stereo_44KHz.wav
3	24	4	3	2	I	2	0	1214	1	Ⴁ	cut_a_stereo_44KHz.wav
3	25	2	2	1	C	1	1	1019	1	Ⴂ	cut_u_stereo_44KHz.wav
3	26	4	3	2	I	0	0	0	0	Ⴁ	cut_a_stereo_44KHz.wav
3	27	3	4	2	I	1	0	817	0	Ⴡ	cut_o_stereo_44KHz.wav
3	28	1	2	0	C	2	1	979	1	Ⴇ	cut_u_stereo_44KHz.wav
3	29	2	1	0	C	2	1	770	1	Ⴂ	cut_k_stereo_44KHz.wav
3	30	3	3	2	I	2	0	825	0	Ⴡ	cut_a_stereo_44KHz.wav
3	31	1	1	1	C	1	1	1137	1	Ⴇ	cut_k_stereo_44KHz.wav
3	32	4	4	2	I	1	0	926	0	Ⴁ	cut_o_stereo_44KHz.wav
3	33	3	3	2	I	2	0	647	1	Ⴡ	cut_a_stereo_44KHz.wav
3	34	2	2	1	C	1	1	825	1	Ⴂ	cut_u_stereo_44KHz.wav
3	35	4	4	2	I	1	0	1371	0	Ⴁ	cut_o_stereo_44KHz.wav
3	36	1	2	0	C	2	1	693	1	Ⴇ	cut_u_stereo_44KHz.wav
3	37	2	1	0	C	2	1	676	1	Ⴂ	cut_k_stereo_44KHz.wav
3	38	3	4	2	I	1	0	942	1	Ⴡ	cut_o_stereo_44KHz.wav
3	39	1	1	1	C	1	1	1051	1	Ⴇ	cut_k_stereo_44KHz.wav
3	40	4	3	2	I	1	0	810	1	Ⴁ	cut_a_stereo_44KHz.wav
3	41	3	4	2	I	1	0	1005	1	Ⴡ	cut_o_stereo_44KHz.wav
3	42	1	1	1	C	1	1	648	1	Ⴇ	cut_k_stereo_44KHz.wav
3	43	2	2	1	C	1	1	756	1	Ⴂ	cut_u_stereo_44KHz.wav
3	44	4	3	2	I	2	0	1037	0	Ⴁ	cut_a_stereo_44KHz.wav
3	45	2	1	0	C	2	1	645	1	Ⴂ	cut_k_stereo_44KHz.wav
3	46	3	3	2	I	2	0	791	0	Ⴡ	cut_a_stereo_44KHz.wav
3	47	4	4	2	I	1	0	1234	0	Ⴁ	cut_o_stereo_44KHz.wav
3	48	1	2	0	C	2	1	740	1	Ⴇ	cut_u_stereo_44KHz.wav
3	49	4	3	2	I	2	0	1110	1	Ⴁ	cut_a_stereo_44KHz.wav
3	50	1	2	0	C	2	1	768	1	Ⴇ	cut_u_stereo_44KHz.wav
3	51	2	1	0	C	2	1	555	1	Ⴂ	cut_k_stereo_44KHz.wav
3	52	3	3	2	I	2	0	845	0	Ⴡ	cut_a_stereo_44KHz.wav
3	53	1	1	1	C	1	1	726	1	Ⴇ	cut_k_stereo_44KHz.wav
3	54	4	4	2	I	2	0	1364	0	Ⴁ	cut_o_stereo_44KHz.wav
3	55	2	2	1	C	1	1	780	1	Ⴂ	cut_u_stereo_44KHz.wav
3	56	3	4	2	I	1	0	1247	1	Ⴡ	cut_o_stereo_44KHz.wav
3	57	1	1	1	C	1	1	616	1	Ⴇ	cut_k_stereo_44KHz.wav
3	58	2	2	1	C	1	1	1168	1	Ⴂ	cut_u_stereo_44KHz.wav
3	59	4	4	2	I	1	0	1452	1	Ⴁ	cut_o_stereo_44KHz.wav
3	60	3	3	2	I	2	0	1035	0	Ⴡ	cut_a_stereo_44KHz.wav
3	61	1	2	0	C	2	1	1374	1	Ⴇ	cut_u_stereo_44KHz.wav
3	62	2	1	0	C	2	1	801	1	Ⴂ	cut_k_stereo_44KHz.wav
3	63	4	3	2	I	1	0	1274	1	Ⴁ	cut_a_stereo_44KHz.wav
3	64	3	4	2	I	1	0	940	1	Ⴡ	cut_o_stereo_44KHz.wav
3	65	4	3	2	I	1	0	799	1	Ⴁ	cut_a_stereo_44KHz.wav
3	66	2	1	0	C	2	1	618	1	Ⴂ	cut_k_stereo_44KHz.wav
3	67	3	3	2	I	2	0	1241	0	Ⴡ	cut_a_stereo_44KHz.wav
3	68	1	1	1	C	1	1	702	1	Ⴇ	cut_k_stereo_44KHz.wav
3	69	4	4	2	I	1	0	1420	0	Ⴁ	cut_o_stereo_44KHz.wav
3	70	2	2	1	C	1	1	764	1	Ⴂ	cut_u_stereo_44KHz.wav
3	71	1	2	0	C	2	1	782	1	Ⴇ	cut_u_stereo_44KHz.wav
3	72	3	4	2	I	1	0	963	0	Ⴡ	cut_o_stereo_44KHz.wav
3	73	1	2	0	C	2	1	662	1	Ⴇ	cut_u_stereo_44KHz.wav
3	74	3	4	2	I	1	0	891	1	Ⴡ	cut_o_stereo_44KHz.wav
3	75	2	1	0	C	2	1	810	1	Ⴂ	cut_k_stereo_44KHz.wav
3	76	4	3	2	I	2	0	1173	1	Ⴁ	cut_a_stereo_44KHz.wav
3	77	3	3	2	I	2	0	648	0	Ⴡ	cut_a_stereo_44KHz.wav
3	78	2	2	1	C	1	1	991	1	Ⴂ	cut_u_stereo_44KHz.wav
3	79	1	1	1	C	1	1	911	1	Ⴇ	cut_k_stereo_44KHz.wav
3	80	4	4	2	I	1	0	1643	0	Ⴁ	cut_o_stereo_44KHz.wav
3	81	1	1	1	C	1	1	793	1	Ⴇ	cut_k_stereo_44KHz.wav
3	82	3	3	2	I	1	0	1097	1	Ⴡ	cut_a_stereo_44KHz.wav
3	83	4	4	2	I	1	0	1646	0	Ⴁ	cut_o_stereo_44KHz.wav
3	84	2	1	0	C	2	1	1073	1	Ⴂ	cut_k_stereo_44KHz.wav
3	85	3	4	2	I	1	0	1036	0	Ⴡ	cut_o_stereo_44KHz.wav
3	86	4	3	2	I	1	0	1411	1	Ⴁ	cut_a_stereo_44KHz.wav
3	87	1	2	0	C	2	1	820	1	Ⴇ	cut_u_stereo_44KHz.wav
3	88	2	2	1	C	1	1	652	1	Ⴂ	cut_u_stereo_44KHz.wav
3	89	1	1	1	C	1	1	683	1	Ⴇ	cut_k_stereo_44KHz.wav
3	90	3	3	2	I	1	0	983	1	Ⴡ	cut_a_stereo_44KHz.wav
3	91	4	4	2	I	2	0	1321	0	Ⴁ	cut_o_stereo_44KHz.wav
3	92	2	1	0	C	2	1	693	1	Ⴂ	cut_k_stereo_44KHz.wav
3	93	4	3	2	I	1	0	946	0	Ⴁ	cut_a_stereo_44KHz.wav
3	94	1	2	0	C	2	1	909	1	Ⴇ	cut_u_stereo_44KHz.wav
3	95	3	4	2	I	2	0	964	0	Ⴡ	cut_o_stereo_44KHz.wav
3	96	2	2	1	C	2	0	1294	0	Ⴂ	cut_u_stereo_44KHz.wav
3	97	3	3	2	I	2	0	1092	0	Ⴡ	cut_a_stereo_44KHz.wav
3	98	1	2	0	C	2	1	890	1	Ⴇ	cut_u_stereo_44KHz.wav
3	99	2	1	0	C	2	1	978	1	Ⴂ	cut_k_stereo_44KHz.wav
3	100	4	4	2	I	2	0	1633	1	Ⴁ	cut_o_stereo_44KHz.wav
3	101	1	1	1	C	1	1	923	1	Ⴇ	cut_k_stereo_44KHz.wav
3	102	3	4	2	I	2	0	1375	1	Ⴡ	cut_o_stereo_44KHz.wav
3	103	2	2	1	C	1	1	813	1	Ⴂ	cut_u_stereo_44KHz.wav
3	104	4	3	2	I	2	0	1213	0	Ⴁ	cut_a_stereo_44KHz.wav
3	105	3	3	2	I	1	0	1005	0	Ⴡ	cut_a_stereo_44KHz.wav
3	106	2	2	1	C	1	1	950	1	Ⴂ	cut_u_stereo_44KHz.wav
3	107	1	1	1	C	1	1	790	1	Ⴇ	cut_k_stereo_44KHz.wav
3	108	4	4	2	I	2	0	1111	1	Ⴁ	cut_o_stereo_44KHz.wav
3	109	2	1	0	C	2	1	865	1	Ⴂ	cut_k_stereo_44KHz.wav
3	110	3	4	2	I	2	0	957	0	Ⴡ	cut_o_stereo_44KHz.wav
3	111	4	3	2	I	1	0	1239	0	Ⴁ	cut_a_stereo_44KHz.wav
3	112	1	2	0	C	1	0	749	0	Ⴇ	cut_u_stereo_44KHz.wav
3	113	3	4	2	I	2	0	1617	1	Ⴡ	cut_o_stereo_44KHz.wav
3	114	2	1	0	C	2	1	737	1	Ⴂ	cut_k_stereo_44KHz.wav
3	115	1	2	0	C	2	1	723	1	Ⴇ	cut_u_stereo_44KHz.wav
3	116	4	4	2	I	2	0	1358	1	Ⴁ	cut_o_stereo_44KHz.wav
3	117	1	1	1	C	1	1	1075	1	Ⴇ	cut_k_stereo_44KHz.wav
3	118	3	3	2	I	1	0	1044	0	Ⴡ	cut_a_stereo_44KHz.wav
3	119	4	3	2	I	2	0	1563	0	Ⴁ	cut_a_stereo_44KHz.wav
3	120	2	2	1	C	1	1	697	1	Ⴂ	cut_u_stereo_44KHz.wav
3	121	4	3	2	I	2	0	1130	0	Ⴁ	cut_a_stereo_44KHz.wav
3	122	3	3	2	I	2	0	814	1	Ⴡ	cut_a_stereo_44KHz.wav
3	123	2	2	1	C	1	1	848	1	Ⴂ	cut_u_stereo_44KHz.wav
3	124	1	2	0	C	2	1	699	1	Ⴇ	cut_u_stereo_44KHz.wav
3	125	2	1	0	C	2	1	646	1	Ⴂ	cut_k_stereo_44KHz.wav
3	126	1	1	1	C	1	1	960	1	Ⴇ	cut_k_stereo_44KHz.wav
3	127	4	4	2	I	1	0	1348	0	Ⴁ	cut_o_stereo_44KHz.wav
3	128	3	4	2	I	2	0	1145	0	Ⴡ	cut_o_stereo_44KHz.wav
3	129	4	3	2	I	2	0	1026	1	Ⴁ	cut_a_stereo_44KHz.wav
3	130	1	2	0	C	2	1	664	1	Ⴇ	cut_u_stereo_44KHz.wav
3	131	3	3	2	I	1	0	1030	1	Ⴡ	cut_a_stereo_44KHz.wav
3	132	2	1	0	C	2	1	684	1	Ⴂ	cut_k_stereo_44KHz.wav
3	133	1	1	1	C	1	1	864	1	Ⴇ	cut_k_stereo_44KHz.wav
3	134	2	2	1	C	1	1	1127	1	Ⴂ	cut_u_stereo_44KHz.wav
3	135	4	4	2	I	1	0	1475	0	Ⴁ	cut_o_stereo_44KHz.wav
3	136	3	4	2	I	1	0	1372	1	Ⴡ	cut_o_stereo_44KHz.wav
3	137	2	2	1	C	1	1	739	1	Ⴂ	cut_u_stereo_44KHz.wav
3	138	1	2	0	C	2	1	1533	1	Ⴇ	cut_u_stereo_44KHz.wav
3	139	4	3	2	I	2	0	1513	1	Ⴁ	cut_a_stereo_44KHz.wav
3	140	3	4	2	I	1	0	1428	0	Ⴡ	cut_o_stereo_44KHz.wav
3	141	4	4	2	I	2	0	715	1	Ⴁ	cut_o_stereo_44KHz.wav
3	142	2	1	0	C	2	1	891	1	Ⴂ	cut_k_stereo_44KHz.wav
3	143	1	1	1	C	1	1	915	1	Ⴇ	cut_k_stereo_44KHz.wav
3	144	3	3	2	I	2	0	1202	1	Ⴡ	cut_a_stereo_44KHz.wav
3	145	2	2	1	C	1	1	801	1	Ⴂ	cut_u_stereo_44KHz.wav
3	146	1	1	1	C	1	1	779	1	Ⴇ	cut_k_stereo_44KHz.wav
3	147	4	4	2	I	2	0	1141	0	Ⴁ	cut_o_stereo_44KHz.wav
3	148	3	4	2	I	2	0	782	0	Ⴡ	cut_o_stereo_44KHz.wav
3	149	4	3	2	I	2	0	504	0	Ⴁ	cut_a_stereo_44KHz.wav
3	150	3	3	2	I	2	0	773	1	Ⴡ	cut_a_stereo_44KHz.wav
3	151	2	1	0	C	2	1	789	1	Ⴂ	cut_k_stereo_44KHz.wav
3	152	1	2	0	C	2	1	937	1	Ⴇ	cut_u_stereo_44KHz.wav
3	153	2	1	0	C	2	1	848	1	Ⴂ	cut_k_stereo_44KHz.wav
3	154	3	4	2	I	1	0	924	1	Ⴡ	cut_o_stereo_44KHz.wav
3	155	4	3	2	I	1	0	1467	0	Ⴁ	cut_a_stereo_44KHz.wav
3	156	1	2	0	C	2	1	611	1	Ⴇ	cut_u_stereo_44KHz.wav
3	157	2	2	1	C	1	1	924	1	Ⴂ	cut_u_stereo_44KHz.wav
3	158	1	1	1	C	1	1	946	1	Ⴇ	cut_k_stereo_44KHz.wav
3	159	3	3	2	I	2	0	1216	0	Ⴡ	cut_a_stereo_44KHz.wav
3	160	4	4	2	I	2	0	1000	0	Ⴁ	cut_o_stereo_44KHz.wav
3	161	1	1	1	C	1	1	823	1	Ⴇ	cut_k_stereo_44KHz.wav
3	162	2	1	0	C	2	1	990	1	Ⴂ	cut_k_stereo_44KHz.wav
3	163	4	4	2	I	1	0	1292	0	Ⴁ	cut_o_stereo_44KHz.wav
3	164	3	3	2	I	1	0	802	0	Ⴡ	cut_a_stereo_44KHz.wav
3	165	4	3	2	I	1	0	965	1	Ⴁ	cut_a_stereo_44KHz.wav
3	166	1	2	0	C	2	1	969	1	Ⴇ	cut_u_stereo_44KHz.wav
3	167	3	4	2	I	1	0	1217	1	Ⴡ	cut_o_stereo_44KHz.wav
3	168	2	2	1	C	1	1	1932	1	Ⴂ	cut_u_stereo_44KHz.wav
3	169	4	3	2	I	1	0	1211	1	Ⴁ	cut_a_stereo_44KHz.wav
3	170	3	3	2	I	2	0	959	0	Ⴡ	cut_a_stereo_44KHz.wav
3	171	1	2	0	C	2	1	1552	1	Ⴇ	cut_u_stereo_44KHz.wav
3	172	2	1	0	C	2	1	789	1	Ⴂ	cut_k_stereo_44KHz.wav
3	173	4	4	2	I	1	0	702	0	Ⴁ	cut_o_stereo_44KHz.wav
3	174	2	2	1	C	1	1	1889	1	Ⴂ	cut_u_stereo_44KHz.wav
3	175	1	1	1	C	1	1	1093	1	Ⴇ	cut_k_stereo_44KHz.wav
3	176	3	4	2	I	1	0	896	0	Ⴡ	cut_o_stereo_44KHz.wav
3	177	4	4	2	I	1	0	634	1	Ⴁ	cut_o_stereo_44KHz.wav
3	178	1	1	1	C	1	1	861	1	Ⴇ	cut_k_stereo_44KHz.wav
3	179	3	4	2	I	2	0	866	0	Ⴡ	cut_o_stereo_44KHz.wav
3	180	2	2	1	C	1	1	1152	1	Ⴂ	cut_u_stereo_44KHz.wav
3	181	1	2	0	C	2	1	1062	1	Ⴇ	cut_u_stereo_44KHz.wav
3	182	3	3	2	I	1	0	1180	1	Ⴡ	cut_a_stereo_44KHz.wav
3	183	4	3	2	I	1	0	926	1	Ⴁ	cut_a_stereo_44KHz.wav
3	184	2	1	0	C	2	1	703	1	Ⴂ	cut_k_stereo_44KHz.wav
3	185	3	3	2	I	1	0	1054	1	Ⴡ	cut_a_stereo_44KHz.wav
3	186	2	1	0	C	2	1	580	1	Ⴂ	cut_k_stereo_44KHz.wav
3	187	1	1	1	C	1	1	663	1	Ⴇ	cut_k_stereo_44KHz.wav
3	188	4	4	2	I	1	0	1003	0	Ⴁ	cut_o_stereo_44KHz.wav
3	189	3	4	2	I	1	0	730	0	Ⴡ	cut_o_stereo_44KHz.wav
3	190	4	3	2	I	1	0	328	0	Ⴁ	cut_a_stereo_44KHz.wav
3	191	2	2	1	C	2	0	1604	0	Ⴂ	cut_u_stereo_44KHz.wav
3	192	1	2	0	C	2	1	538	1	Ⴇ	cut_u_stereo_44KHz.wav
3	193	3	3	2	I	1	0	403	1	Ⴡ	cut_a_stereo_44KHz.wav
3	194	4	3	2	I	1	0	312	0	Ⴁ	cut_a_stereo_44KHz.wav
3	195	2	2	1	C	2	0	429	0	Ⴂ	cut_u_stereo_44KHz.wav
3	196	1	1	1	C	2	0	461	0	Ⴇ	cut_k_stereo_44KHz.wav
3	197	2	1	0	C	2	1	842	1	Ⴂ	cut_k_stereo_44KHz.wav
3	198	1	2	0	C	2	1	872	1	Ⴇ	cut_u_stereo_44KHz.wav
3	199	4	4	2	I	1	0	773	1	Ⴁ	cut_o_stereo_44KHz.wav
3	200	3	4	2	I	1	0	1048	1	Ⴡ	cut_o_stereo_44KHz.wav
4	1	4	4	2	I	2	0	952	0	Ⴏ	cut_s_stereo_44KHz.wav
4	2	1	2	0	C	2	1	812	1	Ⴔ	cut_ui_stereo_44KHz.wav
4	3	2	2	1	C	2	0	1221	0	Ⴌ	cut_ui_stereo_44KHz.wav
4	4	3	3	2	I	2	0	786	0	Ⴉ	cut_n_stereo_44KHz.wav
4	5	4	3	2	I	2	0	1064	0	Ⴏ	cut_n_stereo_44KHz.wav
4	6	1	1	1	C	1	1	1858	1	Ⴔ	cut_ei_stereo_44KHz.wav
4	7	3	4	2	I	2	0	1020	1	Ⴉ	cut_s_stereo_44KHz.wav
4	8	2	1	0	C	0	0	0	0	Ⴌ	cut_ei_stereo_44KHz.wav
4	9	4	3	2	I	2	0	974	0	Ⴏ	cut_n_stereo_44KHz.wav
4	10	3	3	2	I	1	0	864	1	Ⴉ	cut_n_stereo_44KHz.wav
4	11	2	2	1	C	1	1	1225	1	Ⴌ	cut_ui_stereo_44KHz.wav
4	12	1	1	1	C	1	1	872	1	Ⴔ	cut_ei_stereo_44KHz.wav
4	13	4	4	2	I	0	0	0	0	Ⴏ	cut_s_stereo_44KHz.wav
4	14	2	1	0	C	2	1	1191	1	Ⴌ	cut_ei_stereo_44KHz.wav
4	15	1	2	0	C	2	1	737	1	Ⴔ	cut_ui_stereo_44KHz.wav
4	16	3	4	2	I	2	0	865	1	Ⴉ	cut_s_stereo_44KHz.wav
4	17	2	2	1	C	1	1	1190	1	Ⴌ	cut_ui_stereo_44KHz.wav
4	18	1	1	1	C	1	1	831	1	Ⴔ	cut_ei_stereo_44KHz.wav
4	19	3	3	2	I	1	0	978	0	Ⴉ	cut_n_stereo_44KHz.wav
4	20	4	4	2	I	1	0	1053	1	Ⴏ	cut_s_stereo_44KHz.wav
4	21	3	4	2	I	2	0	809	1	Ⴉ	cut_s_stereo_44KHz.wav
4	22	1	2	0	C	2	1	1098	1	Ⴔ	cut_ui_stereo_44KHz.wav
4	23	4	3	2	I	1	0	1141	0	Ⴏ	cut_n_stereo_44KHz.wav
4	24	2	1	0	C	2	1	1008	1	Ⴌ	cut_ei_stereo_44KHz.wav
4	25	4	3	2	I	2	0	1095	1	Ⴏ	cut_n_stereo_44KHz.wav
4	26	3	3	2	I	2	0	1063	1	Ⴉ	cut_n_stereo_44KHz.wav
4	27	1	1	1	C	1	1	1187	1	Ⴔ	cut_ei_stereo_44KHz.wav
4	28	2	1	0	C	2	1	968	1	Ⴌ	cut_ei_stereo_44KHz.wav
4	29	1	2	0	C	2	1	1184	1	Ⴔ	cut_ui_stereo_44KHz.wav
4	30	4	4	2	I	1	0	1260	0	Ⴏ	cut_s_stereo_44KHz.wav
4	31	2	2	1	C	1	1	1183	1	Ⴌ	cut_ui_stereo_44KHz.wav
4	32	3	4	2	I	2	0	896	1	Ⴉ	cut_s_stereo_44KHz.wav
4	33	1	1	1	C	1	1	1213	1	Ⴔ	cut_ei_stereo_44KHz.wav
4	34	2	1	0	C	2	1	1127	1	Ⴌ	cut_ei_stereo_44KHz.wav
4	35	4	3	2	I	2	0	924	0	Ⴏ	cut_n_stereo_44KHz.wav
4	36	3	4	2	I	2	0	666	0	Ⴉ	cut_s_stereo_44KHz.wav
4	37	1	2	0	C	2	1	1410	1	Ⴔ	cut_ui_stereo_44KHz.wav
4	38	3	3	2	I	2	0	1294	0	Ⴉ	cut_n_stereo_44KHz.wav
4	39	4	4	2	I	1	0	1420	0	Ⴏ	cut_s_stereo_44KHz.wav
4	40	2	2	1	C	2	0	1356	0	Ⴌ	cut_ui_stereo_44KHz.wav
4	41	3	3	2	I	2	0	1229	0	Ⴉ	cut_n_stereo_44KHz.wav
4	42	1	1	1	C	1	1	1363	1	Ⴔ	cut_ei_stereo_44KHz.wav
4	43	2	1	0	C	2	1	760	1	Ⴌ	cut_ei_stereo_44KHz.wav
4	44	4	4	2	I	1	0	1879	1	Ⴏ	cut_s_stereo_44KHz.wav
4	45	3	4	2	I	2	0	811	0	Ⴉ	cut_s_stereo_44KHz.wav
4	46	2	2	1	C	1	1	1048	1	Ⴌ	cut_ui_stereo_44KHz.wav
4	47	4	3	2	I	2	0	1263	1	Ⴏ	cut_n_stereo_44KHz.wav
4	48	1	2	0	C	1	0	1533	0	Ⴔ	cut_ui_stereo_44KHz.wav
4	49	3	4	2	I	2	0	1373	0	Ⴉ	cut_s_stereo_44KHz.wav
4	50	4	4	2	I	1	0	955	1	Ⴏ	cut_s_stereo_44KHz.wav
4	51	1	1	1	C	1	1	1182	1	Ⴔ	cut_ei_stereo_44KHz.wav
4	52	2	1	0	C	2	1	1116	1	Ⴌ	cut_ei_stereo_44KHz.wav
4	53	4	3	2	I	2	0	1228	0	Ⴏ	cut_n_stereo_44KHz.wav
4	54	1	2	0	C	2	1	874	1	Ⴔ	cut_ui_stereo_44KHz.wav
4	55	3	3	2	I	1	0	1143	1	Ⴉ	cut_n_stereo_44KHz.wav
4	56	2	2	1	C	1	1	1710	1	Ⴌ	cut_ui_stereo_44KHz.wav
4	57	1	2	0	C	2	1	1333	1	Ⴔ	cut_ui_stereo_44KHz.wav
4	58	4	3	2	I	2	0	927	1	Ⴏ	cut_n_stereo_44KHz.wav
4	59	3	3	2	I	1	0	876	1	Ⴉ	cut_n_stereo_44KHz.wav
4	60	2	2	1	C	1	1	1455	1	Ⴌ	cut_ui_stereo_44KHz.wav
4	61	4	4	2	I	1	0	1608	1	Ⴏ	cut_s_stereo_44KHz.wav
4	62	2	1	0	C	2	1	882	1	Ⴌ	cut_ei_stereo_44KHz.wav
4	63	3	4	2	I	2	0	1419	1	Ⴉ	cut_s_stereo_44KHz.wav
4	64	1	1	1	C	1	1	1192	1	Ⴔ	cut_ei_stereo_44KHz.wav
4	65	4	4	2	I	1	0	1564	0	Ⴏ	cut_s_stereo_44KHz.wav
4	66	2	2	1	C	1	1	1770	1	Ⴌ	cut_ui_stereo_44KHz.wav
4	67	1	1	1	C	1	1	1024	1	Ⴔ	cut_ei_stereo_44KHz.wav
4	68	3	4	2	I	2	0	1266	0	Ⴉ	cut_s_stereo_44KHz.wav
4	69	1	2	0	C	2	1	1077	1	Ⴔ	cut_ui_stereo_44KHz.wav
4	70	4	3	2	I	2	0	1431	0	Ⴏ	cut_n_stereo_44KHz.wav
4	71	3	3	2	I	1	0	955	1	Ⴉ	cut_n_stereo_44KHz.wav
4	72	2	1	0	C	2	1	951	1	Ⴌ	cut_ei_stereo_44KHz.wav
4	73	1	2	0	C	1	0	896	0	Ⴔ	cut_ui_stereo_44KHz.wav
4	74	4	3	2	I	1	0	1240	0	Ⴏ	cut_n_stereo_44KHz.wav
4	75	2	2	1	C	1	1	1085	1	Ⴌ	cut_ui_stereo_44KHz.wav
4	76	3	3	2	I	1	0	1234	0	Ⴉ	cut_n_stereo_44KHz.wav
4	77	1	1	1	C	1	1	1276	1	Ⴔ	cut_ei_stereo_44KHz.wav
4	78	2	1	0	C	2	1	1101	1	Ⴌ	cut_ei_stereo_44KHz.wav
4	79	3	4	2	I	2	0	1507	1	Ⴉ	cut_s_stereo_44KHz.wav
4	80	4	4	2	I	1	0	1197	1	Ⴏ	cut_s_stereo_44KHz.wav
4	81	3	3	2	I	1	0	1322	0	Ⴉ	cut_n_stereo_44KHz.wav
4	82	2	2	1	C	1	1	885	1	Ⴌ	cut_ui_stereo_44KHz.wav
4	83	4	3	2	I	2	0	1318	0	Ⴏ	cut_n_stereo_44KHz.wav
4	84	1	1	1	C	1	1	1231	1	Ⴔ	cut_ei_stereo_44KHz.wav
4	85	4	4	2	I	1	0	1139	1	Ⴏ	cut_s_stereo_44KHz.wav
4	86	2	1	0	C	2	1	1028	1	Ⴌ	cut_ei_stereo_44KHz.wav
4	87	1	2	0	C	1	0	858	0	Ⴔ	cut_ui_stereo_44KHz.wav
4	88	3	4	2	I	2	0	1352	1	Ⴉ	cut_s_stereo_44KHz.wav
4	89	4	3	2	I	1	0	843	0	Ⴏ	cut_n_stereo_44KHz.wav
4	90	3	4	2	I	2	0	1236	1	Ⴉ	cut_s_stereo_44KHz.wav
4	91	2	1	0	C	2	1	1293	1	Ⴌ	cut_ei_stereo_44KHz.wav
4	92	1	1	1	C	1	1	897	1	Ⴔ	cut_ei_stereo_44KHz.wav
4	93	4	4	2	I	2	0	1641	1	Ⴏ	cut_s_stereo_44KHz.wav
4	94	1	2	0	C	2	1	972	1	Ⴔ	cut_ui_stereo_44KHz.wav
4	95	3	3	2	I	1	0	1803	1	Ⴉ	cut_n_stereo_44KHz.wav
4	96	2	2	1	C	0	0	0	0	Ⴌ	cut_ui_stereo_44KHz.wav
4	97	3	3	2	I	1	0	1347	0	Ⴉ	cut_n_stereo_44KHz.wav
4	98	4	3	2	I	2	0	973	0	Ⴏ	cut_n_stereo_44KHz.wav
4	99	2	2	1	C	1	1	1192	1	Ⴌ	cut_ui_stereo_44KHz.wav
4	100	1	1	1	C	1	1	1309	1	Ⴔ	cut_ei_stereo_44KHz.wav
4	101	4	4	2	I	2	0	1046	0	Ⴏ	cut_s_stereo_44KHz.wav
4	102	3	4	2	I	2	0	1095	0	Ⴉ	cut_s_stereo_44KHz.wav
4	103	2	1	0	C	2	1	1264	1	Ⴌ	cut_ei_stereo_44KHz.wav
4	104	1	2	0	C	2	1	908	1	Ⴔ	cut_ui_stereo_44KHz.wav
4	105	4	3	2	I	1	0	1519	1	Ⴏ	cut_n_stereo_44KHz.wav
4	106	3	3	2	I	1	0	947	1	Ⴉ	cut_n_stereo_44KHz.wav
4	107	1	2	0	C	1	0	1442	0	Ⴔ	cut_ui_stereo_44KHz.wav
4	108	2	2	1	C	1	1	771	1	Ⴌ	cut_ui_stereo_44KHz.wav
4	109	3	4	2	I	2	0	1147	0	Ⴉ	cut_s_stereo_44KHz.wav
4	110	2	1	0	C	2	1	780	1	Ⴌ	cut_ei_stereo_44KHz.wav
4	111	1	1	1	C	1	1	689	1	Ⴔ	cut_ei_stereo_44KHz.wav
4	112	4	4	2	I	1	0	1161	1	Ⴏ	cut_s_stereo_44KHz.wav
4	113	1	2	0	C	2	1	1085	1	Ⴔ	cut_ui_stereo_44KHz.wav
4	114	3	4	2	I	1	0	1458	1	Ⴉ	cut_s_stereo_44KHz.wav
4	115	2	2	1	C	2	0	1389	0	Ⴌ	cut_ui_stereo_44KHz.wav
4	116	4	4	2	I	2	0	1196	0	Ⴏ	cut_s_stereo_44KHz.wav
4	117	3	3	2	I	1	0	1102	0	Ⴉ	cut_n_stereo_44KHz.wav
4	118	1	1	1	C	1	1	1402	1	Ⴔ	cut_ei_stereo_44KHz.wav
4	119	2	1	0	C	2	1	883	1	Ⴌ	cut_ei_stereo_44KHz.wav
4	120	4	3	2	I	2	0	1334	1	Ⴏ	cut_n_stereo_44KHz.wav
4	121	1	1	1	C	1	1	1511	1	Ⴔ	cut_ei_stereo_44KHz.wav
4	122	4	4	2	I	2	0	1490	1	Ⴏ	cut_s_stereo_44KHz.wav
4	123	2	2	1	C	1	1	1267	1	Ⴌ	cut_ui_stereo_44KHz.wav
4	124	3	4	2	I	2	0	1458	0	Ⴉ	cut_s_stereo_44KHz.wav
4	125	1	2	0	C	1	0	895	0	Ⴔ	cut_ui_stereo_44KHz.wav
4	126	2	1	0	C	2	1	1008	1	Ⴌ	cut_ei_stereo_44KHz.wav
4	127	3	3	2	I	1	0	1515	1	Ⴉ	cut_n_stereo_44KHz.wav
4	128	4	3	2	I	2	0	1149	0	Ⴏ	cut_n_stereo_44KHz.wav
4	129	3	3	2	I	2	0	1526	1	Ⴉ	cut_n_stereo_44KHz.wav
4	130	1	2	0	C	2	1	1129	1	Ⴔ	cut_ui_stereo_44KHz.wav
4	131	4	3	2	I	2	0	1074	0	Ⴏ	cut_n_stereo_44KHz.wav
4	132	2	2	1	C	1	1	1695	1	Ⴌ	cut_ui_stereo_44KHz.wav
4	133	3	4	2	I	1	0	1717	0	Ⴉ	cut_s_stereo_44KHz.wav
4	134	4	4	2	I	1	0	1032	0	Ⴏ	cut_s_stereo_44KHz.wav
4	135	1	1	1	C	2	0	1460	0	Ⴔ	cut_ei_stereo_44KHz.wav
4	136	2	1	0	C	2	1	1183	1	Ⴌ	cut_ei_stereo_44KHz.wav
4	137	1	2	0	C	1	0	662	0	Ⴔ	cut_ui_stereo_44KHz.wav
4	138	4	3	2	I	1	0	744	0	Ⴏ	cut_n_stereo_44KHz.wav
4	139	3	3	2	I	1	0	938	0	Ⴉ	cut_n_stereo_44KHz.wav
4	140	2	1	0	C	2	1	853	1	Ⴌ	cut_ei_stereo_44KHz.wav
4	141	3	4	2	I	1	0	1024	1	Ⴉ	cut_s_stereo_44KHz.wav
4	142	2	2	1	C	1	1	1042	1	Ⴌ	cut_ui_stereo_44KHz.wav
4	143	1	1	1	C	2	0	778	0	Ⴔ	cut_ei_stereo_44KHz.wav
4	144	4	4	2	I	1	0	729	1	Ⴏ	cut_s_stereo_44KHz.wav
4	145	1	1	1	C	1	1	879	1	Ⴔ	cut_ei_stereo_44KHz.wav
4	146	2	2	1	C	1	1	1174	1	Ⴌ	cut_ui_stereo_44KHz.wav
4	147	4	4	2	I	1	0	1325	0	Ⴏ	cut_s_stereo_44KHz.wav
4	148	3	4	2	I	2	0	758	1	Ⴉ	cut_s_stereo_44KHz.wav
4	149	1	2	0	C	1	0	1139	0	Ⴔ	cut_ui_stereo_44KHz.wav
4	150	4	3	2	I	2	0	1356	1	Ⴏ	cut_n_stereo_44KHz.wav
4	151	2	1	0	C	2	1	1072	1	Ⴌ	cut_ei_stereo_44KHz.wav
4	152	3	3	2	I	2	0	1291	0	Ⴉ	cut_n_stereo_44KHz.wav
4	153	4	4	2	I	2	0	944	1	Ⴏ	cut_s_stereo_44KHz.wav
4	154	2	2	1	C	1	1	1278	1	Ⴌ	cut_ui_stereo_44KHz.wav
4	155	1	1	1	C	1	1	1217	1	Ⴔ	cut_ei_stereo_44KHz.wav
4	156	3	3	2	I	2	0	1037	1	Ⴉ	cut_n_stereo_44KHz.wav
4	157	1	2	0	C	1	0	1104	0	Ⴔ	cut_ui_stereo_44KHz.wav
4	158	2	1	0	C	2	1	946	1	Ⴌ	cut_ei_stereo_44KHz.wav
4	159	4	3	2	I	1	0	1174	1	Ⴏ	cut_n_stereo_44KHz.wav
4	160	3	4	2	I	1	0	1407	0	Ⴉ	cut_s_stereo_44KHz.wav
4	161	2	1	0	C	2	1	1140	1	Ⴌ	cut_ei_stereo_44KHz.wav
4	162	4	3	2	I	1	0	781	1	Ⴏ	cut_n_stereo_44KHz.wav
4	163	1	1	1	C	1	1	1251	1	Ⴔ	cut_ei_stereo_44KHz.wav
4	164	3	4	2	I	1	0	1114	0	Ⴉ	cut_s_stereo_44KHz.wav
4	165	4	4	2	I	1	0	817	1	Ⴏ	cut_s_stereo_44KHz.wav
4	166	3	3	2	I	2	0	1031	0	Ⴉ	cut_n_stereo_44KHz.wav
4	167	1	2	0	C	1	0	940	0	Ⴔ	cut_ui_stereo_44KHz.wav
4	168	2	2	1	C	1	1	872	1	Ⴌ	cut_ui_stereo_44KHz.wav
4	169	1	1	1	C	2	0	1137	0	Ⴔ	cut_ei_stereo_44KHz.wav
4	170	4	4	2	I	1	0	741	0	Ⴏ	cut_s_stereo_44KHz.wav
4	171	2	2	1	C	1	1	1139	1	Ⴌ	cut_ui_stereo_44KHz.wav
4	172	3	3	2	I	2	0	968	0	Ⴉ	cut_n_stereo_44KHz.wav
4	173	2	1	0	C	2	1	774	1	Ⴌ	cut_ei_stereo_44KHz.wav
4	174	3	4	2	I	2	0	1032	1	Ⴉ	cut_s_stereo_44KHz.wav
4	175	1	2	0	C	1	0	1127	0	Ⴔ	cut_ui_stereo_44KHz.wav
4	176	4	3	2	I	1	0	902	1	Ⴏ	cut_n_stereo_44KHz.wav
4	177	2	1	0	C	2	1	1553	1	Ⴌ	cut_ei_stereo_44KHz.wav
4	178	1	2	0	C	2	1	897	1	Ⴔ	cut_ui_stereo_44KHz.wav
4	179	3	4	2	I	2	0	1567	0	Ⴉ	cut_s_stereo_44KHz.wav
4	180	4	4	2	I	2	0	727	1	Ⴏ	cut_s_stereo_44KHz.wav
4	181	2	2	1	C	1	1	1043	1	Ⴌ	cut_ui_stereo_44KHz.wav
4	182	4	3	2	I	1	0	1131	0	Ⴏ	cut_n_stereo_44KHz.wav
4	183	3	3	2	I	2	0	1364	0	Ⴉ	cut_n_stereo_44KHz.wav
4	184	1	1	1	C	2	0	1306	0	Ⴔ	cut_ei_stereo_44KHz.wav
4	185	2	1	0	C	2	1	976	1	Ⴌ	cut_ei_stereo_44KHz.wav
4	186	3	3	2	I	2	0	1068	1	Ⴉ	cut_n_stereo_44KHz.wav
4	187	1	1	1	C	2	0	1158	0	Ⴔ	cut_ei_stereo_44KHz.wav
4	188	4	3	2	I	1	0	796	0	Ⴏ	cut_n_stereo_44KHz.wav
4	189	1	2	0	C	2	1	946	1	Ⴔ	cut_ui_stereo_44KHz.wav
4	190	3	4	2	I	1	0	1182	1	Ⴉ	cut_s_stereo_44KHz.wav
4	191	4	4	2	I	1	0	1127	1	Ⴏ	cut_s_stereo_44KHz.wav
4	192	2	2	1	C	1	1	1228	1	Ⴌ	cut_ui_stereo_44KHz.wav
4	193	3	4	2	I	1	0	1171	0	Ⴉ	cut_s_stereo_44KHz.wav
4	194	4	3	2	I	1	0	1467	0	Ⴏ	cut_n_stereo_44KHz.wav
4	195	1	1	1	C	2	0	1275	0	Ⴔ	cut_ei_stereo_44KHz.wav
4	196	2	2	1	C	1	1	1115	1	Ⴌ	cut_ui_stereo_44KHz.wav
4	197	4	4	2	I	1	0	795	1	Ⴏ	cut_s_stereo_44KHz.wav
4	198	3	3	2	I	2	0	1121	1	Ⴉ	cut_n_stereo_44KHz.wav
4	199	1	2	0	C	2	1	1204	1	Ⴔ	cut_ui_stereo_44KHz.wav
4	200	2	1	0	C	2	1	858	1	Ⴌ	cut_ei_stereo_44KHz.wav
