block	trial	Vstim	Astim	match	C/I	resp	result	RT	fb	V-file	A-file
LR

0	1	2	4	0	C	0	0	0	0	poli_8sides 23_whiteLine3.jpg	Practice1_b27_cut1_stereo_44KHz.wav
0	2	2	3	1	C	2	1	430	1	poli_8sides 23_whiteLine3.jpg	Practice4_b26_stereo_44KHz.wav
0	3	1	2	0	C	1	1	633	1	poli_8sides 24_whiteLine3.jpg	Practice3_b26_cut1_stereo_44KHz.wav
0	4	1	1	1	C	2	1	616	1	poli_8sides 24_whiteLine3.jpg	Practice2_b27_cut2_stereo_44KHz.wav
0	5	1	1	1	C	1	0	688	0	poli_8sides 24_whiteLine3.jpg	Practice2_b27_cut2_stereo_44KHz.wav
0	6	2	3	1	C	2	1	875	1	poli_8sides 23_whiteLine3.jpg	Practice4_b26_stereo_44KHz.wav
0	7	1	2	0	C	1	1	572	1	poli_8sides 24_whiteLine3.jpg	Practice3_b26_cut1_stereo_44KHz.wav
0	8	2	4	0	C	2	0	366	0	poli_8sides 23_whiteLine3.jpg	Practice1_b27_cut1_stereo_44KHz.wav
0	9	2	3	1	C	2	1	724	1	poli_8sides 23_whiteLine3.jpg	Practice4_b26_stereo_44KHz.wav
0	10	2	4	0	C	1	1	673	1	poli_8sides 23_whiteLine3.jpg	Practice1_b27_cut1_stereo_44KHz.wav
0	11	1	1	1	C	2	1	581	1	poli_8sides 24_whiteLine3.jpg	Practice2_b27_cut2_stereo_44KHz.wav
0	12	1	2	0	C	1	1	515	1	poli_8sides 24_whiteLine3.jpg	Practice3_b26_cut1_stereo_44KHz.wav
0	13	2	4	0	C	1	1	572	1	poli_8sides 23_whiteLine3.jpg	Practice1_b27_cut1_stereo_44KHz.wav
0	14	2	3	1	C	2	1	720	1	poli_8sides 23_whiteLine3.jpg	Practice4_b26_stereo_44KHz.wav
0	15	1	1	1	C	2	1	793	1	poli_8sides 24_whiteLine3.jpg	Practice2_b27_cut2_stereo_44KHz.wav
0	16	1	2	0	C	1	1	646	1	poli_8sides 24_whiteLine3.jpg	Practice3_b26_cut1_stereo_44KHz.wav
0	17	2	3	1	C	2	1	543	1	poli_8sides 23_whiteLine3.jpg	Practice4_b26_stereo_44KHz.wav
0	18	1	1	1	C	2	1	649	1	poli_8sides 24_whiteLine3.jpg	Practice2_b27_cut2_stereo_44KHz.wav
0	19	2	4	0	C	2	0	540	0	poli_8sides 23_whiteLine3.jpg	Practice1_b27_cut1_stereo_44KHz.wav
0	20	1	2	0	C	1	1	704	1	poli_8sides 24_whiteLine3.jpg	Practice3_b26_cut1_stereo_44KHz.wav
0	21	2	4	0	C	1	1	781	1	poli_8sides 23_whiteLine3.jpg	Practice1_b27_cut1_stereo_44KHz.wav
0	22	2	3	1	C	2	1	632	1	poli_8sides 23_whiteLine3.jpg	Practice4_b26_stereo_44KHz.wav
0	23	1	2	0	C	1	1	536	1	poli_8sides 24_whiteLine3.jpg	Practice3_b26_cut1_stereo_44KHz.wav
0	24	1	1	1	C	2	1	605	1	poli_8sides 24_whiteLine3.jpg	Practice2_b27_cut2_stereo_44KHz.wav
0	25	2	4	0	C	2	0	807	0	poli_8sides 23_whiteLine3.jpg	Practice1_b27_cut1_stereo_44KHz.wav
0	26	1	2	0	C	1	1	722	1	poli_8sides 24_whiteLine3.jpg	Practice3_b26_cut1_stereo_44KHz.wav
0	27	1	1	1	C	2	1	656	1	poli_8sides 24_whiteLine3.jpg	Practice2_b27_cut2_stereo_44KHz.wav
0	28	2	3	1	C	2	1	613	1	poli_8sides 23_whiteLine3.jpg	Practice4_b26_stereo_44KHz.wav
0	29	1	1	1	C	2	1	696	1	poli_8sides 24_whiteLine3.jpg	Practice2_b27_cut2_stereo_44KHz.wav
0	30	2	4	0	C	1	1	788	1	poli_8sides 23_whiteLine3.jpg	Practice1_b27_cut1_stereo_44KHz.wav
avg_resp = 651
1	1	2	2	1	C	0	0	0	0	poli_8sides 7_whiteLine3.jpg	MediumLong_e04_stereo_44KHz.wav
1	2	1	1	1	C	1	0	659	0	poli_8sides 8_whiteLine3.jpg	Medium_e21_stereo_44KHz.wav
1	3	3	4	2	I	1	0	470	1	poli_8sides 15_whiteLine3.jpg	MediumLong_b10_cut2_L_stereo_44KHz.wav
1	4	4	3	2	I	1	0	771	0	poli_8sides 18_whiteLine3.jpg	MediumLong_e17_cut2_stereo_44KHz.wav
1	5	1	2	0	C	2	0	824	0	poli_8sides 8_whiteLine3.jpg	MediumLong_e04_stereo_44KHz.wav
1	6	3	3	2	I	1	0	677	1	poli_8sides 15_whiteLine3.jpg	MediumLong_e17_cut2_stereo_44KHz.wav
1	7	2	1	0	C	2	0	657	0	poli_8sides 7_whiteLine3.jpg	Medium_e21_stereo_44KHz.wav
1	8	4	4	2	I	1	0	749	1	poli_8sides 18_whiteLine3.jpg	MediumLong_b10_cut2_L_stereo_44KHz.wav
1	9	2	1	0	C	1	1	745	1	poli_8sides 7_whiteLine3.jpg	Medium_e21_stereo_44KHz.wav
1	10	1	1	1	C	1	0	537	0	poli_8sides 8_whiteLine3.jpg	Medium_e21_stereo_44KHz.wav
1	11	4	3	2	I	2	0	566	0	poli_8sides 18_whiteLine3.jpg	MediumLong_e17_cut2_stereo_44KHz.wav
1	12	3	4	2	I	1	0	686	0	poli_8sides 15_whiteLine3.jpg	MediumLong_b10_cut2_L_stereo_44KHz.wav
1	13	1	2	0	C	2	0	767	0	poli_8sides 8_whiteLine3.jpg	MediumLong_e04_stereo_44KHz.wav
1	14	2	2	1	C	2	1	939	1	poli_8sides 7_whiteLine3.jpg	MediumLong_e04_stereo_44KHz.wav
1	15	3	3	2	I	1	0	660	0	poli_8sides 15_whiteLine3.jpg	MediumLong_e17_cut2_stereo_44KHz.wav
1	16	4	4	2	I	1	0	659	1	poli_8sides 18_whiteLine3.jpg	MediumLong_b10_cut2_L_stereo_44KHz.wav
1	17	2	2	1	C	2	1	661	1	poli_8sides 7_whiteLine3.jpg	MediumLong_e04_stereo_44KHz.wav
1	18	1	1	1	C	2	1	693	1	poli_8sides 8_whiteLine3.jpg	Medium_e21_stereo_44KHz.wav
1	19	4	4	2	I	1	0	646	0	poli_8sides 18_whiteLine3.jpg	MediumLong_b10_cut2_L_stereo_44KHz.wav
1	20	3	3	2	I	2	0	513	1	poli_8sides 15_whiteLine3.jpg	MediumLong_e17_cut2_stereo_44KHz.wav
1	21	1	2	0	C	1	1	427	1	poli_8sides 8_whiteLine3.jpg	MediumLong_e04_stereo_44KHz.wav
1	22	2	1	0	C	2	0	591	0	poli_8sides 7_whiteLine3.jpg	Medium_e21_stereo_44KHz.wav
1	23	3	4	2	I	1	0	697	0	poli_8sides 15_whiteLine3.jpg	MediumLong_b10_cut2_L_stereo_44KHz.wav
1	24	4	3	2	I	1	0	587	1	poli_8sides 18_whiteLine3.jpg	MediumLong_e17_cut2_stereo_44KHz.wav
1	25	1	2	0	C	1	1	719	1	poli_8sides 8_whiteLine3.jpg	MediumLong_e04_stereo_44KHz.wav
1	26	4	4	2	I	1	0	675	1	poli_8sides 18_whiteLine3.jpg	MediumLong_b10_cut2_L_stereo_44KHz.wav
1	27	2	2	1	C	2	1	580	1	poli_8sides 7_whiteLine3.jpg	MediumLong_e04_stereo_44KHz.wav
1	28	3	3	2	I	1	0	640	0	poli_8sides 15_whiteLine3.jpg	MediumLong_e17_cut2_stereo_44KHz.wav
1	29	2	1	0	C	1	1	796	1	poli_8sides 7_whiteLine3.jpg	Medium_e21_stereo_44KHz.wav
1	30	4	3	2	I	1	0	734	1	poli_8sides 18_whiteLine3.jpg	MediumLong_e17_cut2_stereo_44KHz.wav
1	31	3	4	2	I	1	0	756	1	poli_8sides 15_whiteLine3.jpg	MediumLong_b10_cut2_L_stereo_44KHz.wav
1	32	1	1	1	C	2	1	575	1	poli_8sides 8_whiteLine3.jpg	Medium_e21_stereo_44KHz.wav
1	33	4	4	2	I	1	0	612	0	poli_8sides 18_whiteLine3.jpg	MediumLong_b10_cut2_L_stereo_44KHz.wav
1	34	1	1	1	C	2	1	699	1	poli_8sides 8_whiteLine3.jpg	Medium_e21_stereo_44KHz.wav
1	35	3	4	2	I	1	0	680	1	poli_8sides 15_whiteLine3.jpg	MediumLong_b10_cut2_L_stereo_44KHz.wav
1	36	2	2	1	C	2	1	683	1	poli_8sides 7_whiteLine3.jpg	MediumLong_e04_stereo_44KHz.wav
1	37	4	3	2	I	1	0	716	1	poli_8sides 18_whiteLine3.jpg	MediumLong_e17_cut2_stereo_44KHz.wav
1	38	1	2	0	C	1	1	509	1	poli_8sides 8_whiteLine3.jpg	MediumLong_e04_stereo_44KHz.wav
1	39	2	1	0	C	1	1	704	1	poli_8sides 7_whiteLine3.jpg	Medium_e21_stereo_44KHz.wav
1	40	3	3	2	I	1	0	677	0	poli_8sides 15_whiteLine3.jpg	MediumLong_e17_cut2_stereo_44KHz.wav
1	41	2	2	1	C	2	1	488	1	poli_8sides 7_whiteLine3.jpg	MediumLong_e04_stereo_44KHz.wav
1	42	1	2	0	C	1	1	476	1	poli_8sides 8_whiteLine3.jpg	MediumLong_e04_stereo_44KHz.wav
1	43	4	3	2	I	1	0	682	0	poli_8sides 18_whiteLine3.jpg	MediumLong_e17_cut2_stereo_44KHz.wav
1	44	3	4	2	I	1	0	675	1	poli_8sides 15_whiteLine3.jpg	MediumLong_b10_cut2_L_stereo_44KHz.wav
1	45	2	1	0	C	2	0	518	0	poli_8sides 7_whiteLine3.jpg	Medium_e21_stereo_44KHz.wav
1	46	4	4	2	I	1	0	566	0	poli_8sides 18_whiteLine3.jpg	MediumLong_b10_cut2_L_stereo_44KHz.wav
1	47	3	3	2	I	1	0	610	0	poli_8sides 15_whiteLine3.jpg	MediumLong_e17_cut2_stereo_44KHz.wav
1	48	1	1	1	C	2	1	707	1	poli_8sides 8_whiteLine3.jpg	Medium_e21_stereo_44KHz.wav
1	49	3	3	2	I	1	0	620	1	poli_8sides 15_whiteLine3.jpg	MediumLong_e17_cut2_stereo_44KHz.wav
1	50	1	2	0	C	2	0	586	0	poli_8sides 8_whiteLine3.jpg	MediumLong_e04_stereo_44KHz.wav
1	51	4	3	2	I	1	0	688	0	poli_8sides 18_whiteLine3.jpg	MediumLong_e17_cut2_stereo_44KHz.wav
1	52	2	2	1	C	2	1	752	1	poli_8sides 7_whiteLine3.jpg	MediumLong_e04_stereo_44KHz.wav
1	53	3	4	2	I	1	0	696	0	poli_8sides 15_whiteLine3.jpg	MediumLong_b10_cut2_L_stereo_44KHz.wav
1	54	1	1	1	C	2	1	699	1	poli_8sides 8_whiteLine3.jpg	Medium_e21_stereo_44KHz.wav
1	55	4	4	2	I	1	0	801	0	poli_8sides 18_whiteLine3.jpg	MediumLong_b10_cut2_L_stereo_44KHz.wav
1	56	2	1	0	C	2	0	542	0	poli_8sides 7_whiteLine3.jpg	Medium_e21_stereo_44KHz.wav
1	57	4	3	2	I	1	0	554	0	poli_8sides 18_whiteLine3.jpg	MediumLong_e17_cut2_stereo_44KHz.wav
1	58	2	2	1	C	2	1	572	1	poli_8sides 7_whiteLine3.jpg	MediumLong_e04_stereo_44KHz.wav
1	59	3	4	2	I	1	0	506	1	poli_8sides 15_whiteLine3.jpg	MediumLong_b10_cut2_L_stereo_44KHz.wav
1	60	1	2	0	C	1	1	481	1	poli_8sides 8_whiteLine3.jpg	MediumLong_e04_stereo_44KHz.wav
1	61	2	1	0	C	1	1	827	1	poli_8sides 7_whiteLine3.jpg	Medium_e21_stereo_44KHz.wav
1	62	1	1	1	C	2	1	526	1	poli_8sides 8_whiteLine3.jpg	Medium_e21_stereo_44KHz.wav
1	63	3	3	2	I	1	0	617	1	poli_8sides 15_whiteLine3.jpg	MediumLong_e17_cut2_stereo_44KHz.wav
1	64	4	4	2	I	1	0	393	1	poli_8sides 18_whiteLine3.jpg	MediumLong_b10_cut2_L_stereo_44KHz.wav
1	65	1	2	0	C	1	1	459	1	poli_8sides 8_whiteLine3.jpg	MediumLong_e04_stereo_44KHz.wav
1	66	2	1	0	C	2	0	499	0	poli_8sides 7_whiteLine3.jpg	Medium_e21_stereo_44KHz.wav
1	67	3	4	2	I	1	0	810	1	poli_8sides 15_whiteLine3.jpg	MediumLong_b10_cut2_L_stereo_44KHz.wav
1	68	4	3	2	I	1	0	483	1	poli_8sides 18_whiteLine3.jpg	MediumLong_e17_cut2_stereo_44KHz.wav
1	69	1	1	1	C	1	0	608	0	poli_8sides 8_whiteLine3.jpg	Medium_e21_stereo_44KHz.wav
1	70	4	4	2	I	1	0	636	1	poli_8sides 18_whiteLine3.jpg	MediumLong_b10_cut2_L_stereo_44KHz.wav
1	71	2	2	1	C	2	1	632	1	poli_8sides 7_whiteLine3.jpg	MediumLong_e04_stereo_44KHz.wav
1	72	3	3	2	I	1	0	700	0	poli_8sides 15_whiteLine3.jpg	MediumLong_e17_cut2_stereo_44KHz.wav
1	73	4	3	2	I	1	0	785	0	poli_8sides 18_whiteLine3.jpg	MediumLong_e17_cut2_stereo_44KHz.wav
1	74	3	4	2	I	1	0	516	1	poli_8sides 15_whiteLine3.jpg	MediumLong_b10_cut2_L_stereo_44KHz.wav
1	75	1	1	1	C	2	1	682	1	poli_8sides 8_whiteLine3.jpg	Medium_e21_stereo_44KHz.wav
1	76	2	2	1	C	2	1	706	1	poli_8sides 7_whiteLine3.jpg	MediumLong_e04_stereo_44KHz.wav
1	77	1	2	0	C	1	1	514	1	poli_8sides 8_whiteLine3.jpg	MediumLong_e04_stereo_44KHz.wav
1	78	4	4	2	I	1	0	730	0	poli_8sides 18_whiteLine3.jpg	MediumLong_b10_cut2_L_stereo_44KHz.wav
1	79	2	1	0	C	2	0	631	0	poli_8sides 7_whiteLine3.jpg	Medium_e21_stereo_44KHz.wav
1	80	3	3	2	I	1	0	512	1	poli_8sides 15_whiteLine3.jpg	MediumLong_e17_cut2_stereo_44KHz.wav
1	81	1	1	1	C	2	1	804	1	poli_8sides 8_whiteLine3.jpg	Medium_e21_stereo_44KHz.wav
1	82	2	1	0	C	1	1	735	1	poli_8sides 7_whiteLine3.jpg	Medium_e21_stereo_44KHz.wav
1	83	4	3	2	I	2	0	1026	0	poli_8sides 18_whiteLine3.jpg	MediumLong_e17_cut2_stereo_44KHz.wav
1	84	3	3	2	I	2	0	908	0	poli_8sides 15_whiteLine3.jpg	MediumLong_e17_cut2_stereo_44KHz.wav
1	85	2	2	1	C	2	1	724	1	poli_8sides 7_whiteLine3.jpg	MediumLong_e04_stereo_44KHz.wav
1	86	1	2	0	C	1	1	510	1	poli_8sides 8_whiteLine3.jpg	MediumLong_e04_stereo_44KHz.wav
1	87	4	4	2	I	1	0	595	1	poli_8sides 18_whiteLine3.jpg	MediumLong_b10_cut2_L_stereo_44KHz.wav
1	88	3	4	2	I	1	0	713	1	poli_8sides 15_whiteLine3.jpg	MediumLong_b10_cut2_L_stereo_44KHz.wav
1	89	1	2	0	C	1	1	927	1	poli_8sides 8_whiteLine3.jpg	MediumLong_e04_stereo_44KHz.wav
1	90	3	3	2	I	1	0	540	0	poli_8sides 15_whiteLine3.jpg	MediumLong_e17_cut2_stereo_44KHz.wav
1	91	4	4	2	I	1	0	373	1	poli_8sides 18_whiteLine3.jpg	MediumLong_b10_cut2_L_stereo_44KHz.wav
1	92	2	2	1	C	2	1	640	1	poli_8sides 7_whiteLine3.jpg	MediumLong_e04_stereo_44KHz.wav
1	93	1	1	1	C	2	1	665	1	poli_8sides 8_whiteLine3.jpg	Medium_e21_stereo_44KHz.wav
1	94	2	1	0	C	1	1	736	1	poli_8sides 7_whiteLine3.jpg	Medium_e21_stereo_44KHz.wav
1	95	3	4	2	I	1	0	659	0	poli_8sides 15_whiteLine3.jpg	MediumLong_b10_cut2_L_stereo_44KHz.wav
1	96	4	3	2	I	1	0	614	1	poli_8sides 18_whiteLine3.jpg	MediumLong_e17_cut2_stereo_44KHz.wav
1	97	2	1	0	C	1	1	742	1	poli_8sides 7_whiteLine3.jpg	Medium_e21_stereo_44KHz.wav
1	98	1	1	1	C	2	1	726	1	poli_8sides 8_whiteLine3.jpg	Medium_e21_stereo_44KHz.wav
1	99	4	4	2	I	1	0	678	0	poli_8sides 18_whiteLine3.jpg	MediumLong_b10_cut2_L_stereo_44KHz.wav
1	100	3	3	2	I	1	0	799	0	poli_8sides 15_whiteLine3.jpg	MediumLong_e17_cut2_stereo_44KHz.wav
1	101	1	2	0	C	1	1	620	1	poli_8sides 8_whiteLine3.jpg	MediumLong_e04_stereo_44KHz.wav
1	102	3	4	2	I	1	0	714	1	poli_8sides 15_whiteLine3.jpg	MediumLong_b10_cut2_L_stereo_44KHz.wav
1	103	2	2	1	C	2	1	684	1	poli_8sides 7_whiteLine3.jpg	MediumLong_e04_stereo_44KHz.wav
1	104	4	3	2	I	1	0	757	0	poli_8sides 18_whiteLine3.jpg	MediumLong_e17_cut2_stereo_44KHz.wav
1	105	2	1	0	C	1	1	850	1	poli_8sides 7_whiteLine3.jpg	Medium_e21_stereo_44KHz.wav
1	106	1	1	1	C	2	1	694	1	poli_8sides 8_whiteLine3.jpg	Medium_e21_stereo_44KHz.wav
1	107	3	3	2	I	1	0	733	0	poli_8sides 15_whiteLine3.jpg	MediumLong_e17_cut2_stereo_44KHz.wav
1	108	4	4	2	I	1	0	616	1	poli_8sides 18_whiteLine3.jpg	MediumLong_b10_cut2_L_stereo_44KHz.wav
1	109	3	4	2	I	1	0	924	1	poli_8sides 15_whiteLine3.jpg	MediumLong_b10_cut2_L_stereo_44KHz.wav
1	110	1	2	0	C	1	1	444	1	poli_8sides 8_whiteLine3.jpg	MediumLong_e04_stereo_44KHz.wav
1	111	4	3	2	I	1	0	566	1	poli_8sides 18_whiteLine3.jpg	MediumLong_e17_cut2_stereo_44KHz.wav
1	112	2	2	1	C	2	1	614	1	poli_8sides 7_whiteLine3.jpg	MediumLong_e04_stereo_44KHz.wav
1	113	4	3	2	I	1	0	567	0	poli_8sides 18_whiteLine3.jpg	MediumLong_e17_cut2_stereo_44KHz.wav
1	114	2	1	0	C	2	0	710	0	poli_8sides 7_whiteLine3.jpg	Medium_e21_stereo_44KHz.wav
1	115	3	3	2	I	1	0	634	0	poli_8sides 15_whiteLine3.jpg	MediumLong_e17_cut2_stereo_44KHz.wav
1	116	1	1	1	C	1	0	543	0	poli_8sides 8_whiteLine3.jpg	Medium_e21_stereo_44KHz.wav
1	117	2	2	1	C	2	1	585	1	poli_8sides 7_whiteLine3.jpg	MediumLong_e04_stereo_44KHz.wav
1	118	1	2	0	C	1	1	534	1	poli_8sides 8_whiteLine3.jpg	MediumLong_e04_stereo_44KHz.wav
1	119	3	4	2	I	1	0	576	0	poli_8sides 15_whiteLine3.jpg	MediumLong_b10_cut2_L_stereo_44KHz.wav
1	120	4	4	2	I	1	0	613	1	poli_8sides 18_whiteLine3.jpg	MediumLong_b10_cut2_L_stereo_44KHz.wav
1	121	1	1	1	C	1	0	551	0	poli_8sides 8_whiteLine3.jpg	Medium_e21_stereo_44KHz.wav
1	122	2	2	1	C	2	1	556	1	poli_8sides 7_whiteLine3.jpg	MediumLong_e04_stereo_44KHz.wav
1	123	3	3	2	I	2	0	625	0	poli_8sides 15_whiteLine3.jpg	MediumLong_e17_cut2_stereo_44KHz.wav
1	124	4	4	2	I	1	0	495	1	poli_8sides 18_whiteLine3.jpg	MediumLong_b10_cut2_L_stereo_44KHz.wav
1	125	1	2	0	C	1	1	502	1	poli_8sides 8_whiteLine3.jpg	MediumLong_e04_stereo_44KHz.wav
1	126	3	4	2	I	1	0	636	1	poli_8sides 15_whiteLine3.jpg	MediumLong_b10_cut2_L_stereo_44KHz.wav
1	127	2	1	0	C	2	0	581	0	poli_8sides 7_whiteLine3.jpg	Medium_e21_stereo_44KHz.wav
1	128	4	3	2	I	1	0	709	0	poli_8sides 18_whiteLine3.jpg	MediumLong_e17_cut2_stereo_44KHz.wav
1	129	1	2	0	C	1	1	494	1	poli_8sides 8_whiteLine3.jpg	MediumLong_e04_stereo_44KHz.wav
1	130	3	3	2	I	2	0	718	0	poli_8sides 15_whiteLine3.jpg	MediumLong_e17_cut2_stereo_44KHz.wav
1	131	2	1	0	C	1	1	880	1	poli_8sides 7_whiteLine3.jpg	Medium_e21_stereo_44KHz.wav
1	132	4	4	2	I	1	0	523	0	poli_8sides 18_whiteLine3.jpg	MediumLong_b10_cut2_L_stereo_44KHz.wav
1	133	1	1	1	C	1	0	402	0	poli_8sides 8_whiteLine3.jpg	Medium_e21_stereo_44KHz.wav
1	134	4	3	2	I	1	0	626	0	poli_8sides 18_whiteLine3.jpg	MediumLong_e17_cut2_stereo_44KHz.wav
1	135	2	2	1	C	2	1	614	1	poli_8sides 7_whiteLine3.jpg	MediumLong_e04_stereo_44KHz.wav
1	136	3	4	2	I	1	0	566	0	poli_8sides 15_whiteLine3.jpg	MediumLong_b10_cut2_L_stereo_44KHz.wav
1	137	2	1	0	C	2	0	705	0	poli_8sides 7_whiteLine3.jpg	Medium_e21_stereo_44KHz.wav
1	138	4	4	2	I	1	0	630	0	poli_8sides 18_whiteLine3.jpg	MediumLong_b10_cut2_L_stereo_44KHz.wav
1	139	1	2	0	C	1	1	536	1	poli_8sides 8_whiteLine3.jpg	MediumLong_e04_stereo_44KHz.wav
1	140	3	4	2	I	1	0	861	0	poli_8sides 15_whiteLine3.jpg	MediumLong_b10_cut2_L_stereo_44KHz.wav
1	141	1	1	1	C	2	1	798	1	poli_8sides 8_whiteLine3.jpg	Medium_e21_stereo_44KHz.wav
1	142	2	2	1	C	2	1	640	1	poli_8sides 7_whiteLine3.jpg	MediumLong_e04_stereo_44KHz.wav
1	143	4	3	2	I	1	0	698	1	poli_8sides 18_whiteLine3.jpg	MediumLong_e17_cut2_stereo_44KHz.wav
1	144	3	3	2	I	1	0	902	1	poli_8sides 15_whiteLine3.jpg	MediumLong_e17_cut2_stereo_44KHz.wav
1	145	2	1	0	C	2	0	674	0	poli_8sides 7_whiteLine3.jpg	Medium_e21_stereo_44KHz.wav
1	146	4	3	2	I	1	0	638	1	poli_8sides 18_whiteLine3.jpg	MediumLong_e17_cut2_stereo_44KHz.wav
1	147	1	1	1	C	1	0	544	0	poli_8sides 8_whiteLine3.jpg	Medium_e21_stereo_44KHz.wav
1	148	3	4	2	I	1	0	638	0	poli_8sides 15_whiteLine3.jpg	MediumLong_b10_cut2_L_stereo_44KHz.wav
1	149	4	4	2	I	1	0	625	0	poli_8sides 18_whiteLine3.jpg	MediumLong_b10_cut2_L_stereo_44KHz.wav
1	150	1	2	0	C	1	1	551	1	poli_8sides 8_whiteLine3.jpg	MediumLong_e04_stereo_44KHz.wav
1	151	2	2	1	C	2	1	1041	1	poli_8sides 7_whiteLine3.jpg	MediumLong_e04_stereo_44KHz.wav
1	152	3	3	2	I	1	0	723	1	poli_8sides 15_whiteLine3.jpg	MediumLong_e17_cut2_stereo_44KHz.wav
1	153	1	1	1	C	2	1	765	1	poli_8sides 8_whiteLine3.jpg	Medium_e21_stereo_44KHz.wav
1	154	2	2	1	C	1	0	760	0	poli_8sides 7_whiteLine3.jpg	MediumLong_e04_stereo_44KHz.wav
1	155	4	4	2	I	1	0	595	0	poli_8sides 18_whiteLine3.jpg	MediumLong_b10_cut2_L_stereo_44KHz.wav
1	156	3	3	2	I	1	0	646	1	poli_8sides 15_whiteLine3.jpg	MediumLong_e17_cut2_stereo_44KHz.wav
1	157	4	3	2	I	1	0	920	1	poli_8sides 18_whiteLine3.jpg	MediumLong_e17_cut2_stereo_44KHz.wav
1	158	1	2	0	C	1	1	711	1	poli_8sides 8_whiteLine3.jpg	MediumLong_e04_stereo_44KHz.wav
1	159	2	1	0	C	1	1	405	1	poli_8sides 7_whiteLine3.jpg	Medium_e21_stereo_44KHz.wav
1	160	3	4	2	I	1	0	552	1	poli_8sides 15_whiteLine3.jpg	MediumLong_b10_cut2_L_stereo_44KHz.wav
1	161	2	1	0	C	1	1	717	1	poli_8sides 7_whiteLine3.jpg	Medium_e21_stereo_44KHz.wav
1	162	4	4	2	I	1	0	700	0	poli_8sides 18_whiteLine3.jpg	MediumLong_b10_cut2_L_stereo_44KHz.wav
1	163	1	1	1	C	2	1	660	1	poli_8sides 8_whiteLine3.jpg	Medium_e21_stereo_44KHz.wav
1	164	3	4	2	I	1	0	741	1	poli_8sides 15_whiteLine3.jpg	MediumLong_b10_cut2_L_stereo_44KHz.wav
1	165	1	2	0	C	1	1	598	1	poli_8sides 8_whiteLine3.jpg	MediumLong_e04_stereo_44KHz.wav
1	166	3	3	2	I	2	0	817	1	poli_8sides 15_whiteLine3.jpg	MediumLong_e17_cut2_stereo_44KHz.wav
1	167	2	2	1	C	1	0	902	0	poli_8sides 7_whiteLine3.jpg	MediumLong_e04_stereo_44KHz.wav
1	168	4	3	2	I	1	0	989	1	poli_8sides 18_whiteLine3.jpg	MediumLong_e17_cut2_stereo_44KHz.wav
1	169	3	4	2	I	1	0	712	0	poli_8sides 15_whiteLine3.jpg	MediumLong_b10_cut2_L_stereo_44KHz.wav
1	170	4	3	2	I	1	0	664	0	poli_8sides 18_whiteLine3.jpg	MediumLong_e17_cut2_stereo_44KHz.wav
1	171	1	2	0	C	1	1	532	1	poli_8sides 8_whiteLine3.jpg	MediumLong_e04_stereo_44KHz.wav
1	172	2	2	1	C	2	1	594	1	poli_8sides 7_whiteLine3.jpg	MediumLong_e04_stereo_44KHz.wav
1	173	3	3	2	I	1	0	718	0	poli_8sides 15_whiteLine3.jpg	MediumLong_e17_cut2_stereo_44KHz.wav
1	174	2	1	0	C	1	1	762	1	poli_8sides 7_whiteLine3.jpg	Medium_e21_stereo_44KHz.wav
1	175	4	4	2	I	1	0	653	1	poli_8sides 18_whiteLine3.jpg	MediumLong_b10_cut2_L_stereo_44KHz.wav
1	176	1	1	1	C	2	1	846	1	poli_8sides 8_whiteLine3.jpg	Medium_e21_stereo_44KHz.wav
1	177	4	4	2	I	1	0	746	1	poli_8sides 18_whiteLine3.jpg	MediumLong_b10_cut2_L_stereo_44KHz.wav
1	178	2	1	0	C	1	1	777	1	poli_8sides 7_whiteLine3.jpg	Medium_e21_stereo_44KHz.wav
1	179	1	1	1	C	2	1	568	1	poli_8sides 8_whiteLine3.jpg	Medium_e21_stereo_44KHz.wav
1	180	3	4	2	I	1	0	633	1	poli_8sides 15_whiteLine3.jpg	MediumLong_b10_cut2_L_stereo_44KHz.wav
1	181	4	3	2	I	1	0	1131	1	poli_8sides 18_whiteLine3.jpg	MediumLong_e17_cut2_stereo_44KHz.wav
1	182	1	2	0	C	1	1	731	1	poli_8sides 8_whiteLine3.jpg	MediumLong_e04_stereo_44KHz.wav
1	183	3	3	2	I	1	0	634	1	poli_8sides 15_whiteLine3.jpg	MediumLong_e17_cut2_stereo_44KHz.wav
1	184	2	2	1	C	2	1	580	1	poli_8sides 7_whiteLine3.jpg	MediumLong_e04_stereo_44KHz.wav
1	185	1	1	1	C	2	1	1006	1	poli_8sides 8_whiteLine3.jpg	Medium_e21_stereo_44KHz.wav
1	186	4	4	2	I	1	0	662	0	poli_8sides 18_whiteLine3.jpg	MediumLong_b10_cut2_L_stereo_44KHz.wav
1	187	2	1	0	C	2	0	669	0	poli_8sides 7_whiteLine3.jpg	Medium_e21_stereo_44KHz.wav
1	188	3	3	2	I	1	0	1027	0	poli_8sides 15_whiteLine3.jpg	MediumLong_e17_cut2_stereo_44KHz.wav
1	189	1	2	0	C	1	1	577	1	poli_8sides 8_whiteLine3.jpg	MediumLong_e04_stereo_44KHz.wav
1	190	2	2	1	C	2	1	560	1	poli_8sides 7_whiteLine3.jpg	MediumLong_e04_stereo_44KHz.wav
1	191	4	3	2	I	1	0	593	1	poli_8sides 18_whiteLine3.jpg	MediumLong_e17_cut2_stereo_44KHz.wav
1	192	3	4	2	I	1	0	577	1	poli_8sides 15_whiteLine3.jpg	MediumLong_b10_cut2_L_stereo_44KHz.wav
1	193	2	2	1	C	2	1	656	1	poli_8sides 7_whiteLine3.jpg	MediumLong_e04_stereo_44KHz.wav
1	194	3	4	2	I	1	0	565	0	poli_8sides 15_whiteLine3.jpg	MediumLong_b10_cut2_L_stereo_44KHz.wav
1	195	4	4	2	I	1	0	606	0	poli_8sides 18_whiteLine3.jpg	MediumLong_b10_cut2_L_stereo_44KHz.wav
1	196	1	2	0	C	1	1	554	1	poli_8sides 8_whiteLine3.jpg	MediumLong_e04_stereo_44KHz.wav
1	197	2	1	0	C	2	0	604	0	poli_8sides 7_whiteLine3.jpg	Medium_e21_stereo_44KHz.wav
1	198	1	1	1	C	2	1	847	1	poli_8sides 8_whiteLine3.jpg	Medium_e21_stereo_44KHz.wav
1	199	3	3	2	I	1	0	511	0	poli_8sides 15_whiteLine3.jpg	MediumLong_e17_cut2_stereo_44KHz.wav
1	200	4	3	2	I	1	0	595	1	poli_8sides 18_whiteLine3.jpg	MediumLong_e17_cut2_stereo_44KHz.wav
2	1	2	1	0	C	1	1	1591	1	poli_8sides 10_whiteLine3.jpg	Medium_e26_stereo_44KHz.wav
2	2	4	4	2	I	2	0	592	1	poli_8sides 5_whiteLine3.jpg	Medium_e01_cut1_stereo_44KHz.wav
2	3	3	3	2	I	1	0	803	0	poli_8sides 16_whiteLine3.jpg	Medium_e13_stereo_44KHz.wav
2	4	1	1	1	C	1	0	482	0	poli_8sides 3_whiteLine3.jpg	Medium_e26_stereo_44KHz.wav
2	5	4	3	2	I	2	0	541	0	poli_8sides 5_whiteLine3.jpg	Medium_e13_stereo_44KHz.wav
2	6	1	2	0	C	1	1	640	1	poli_8sides 3_whiteLine3.jpg	MediumLong_e19_stereo_44KHz.wav
2	7	3	4	2	I	1	0	585	0	poli_8sides 16_whiteLine3.jpg	Medium_e01_cut1_stereo_44KHz.wav
2	8	2	2	1	C	1	0	449	0	poli_8sides 10_whiteLine3.jpg	MediumLong_e19_stereo_44KHz.wav
2	9	1	2	0	C	1	1	511	1	poli_8sides 3_whiteLine3.jpg	MediumLong_e19_stereo_44KHz.wav
2	10	3	3	2	I	1	0	439	0	poli_8sides 16_whiteLine3.jpg	Medium_e13_stereo_44KHz.wav
2	11	4	3	2	I	2	0	317	1	poli_8sides 5_whiteLine3.jpg	Medium_e13_stereo_44KHz.wav
2	12	2	1	0	C	2	0	139	0	poli_8sides 10_whiteLine3.jpg	Medium_e26_stereo_44KHz.wav
2	13	3	4	2	I	1	0	432	0	poli_8sides 16_whiteLine3.jpg	Medium_e01_cut1_stereo_44KHz.wav
2	14	2	2	1	C	1	0	478	0	poli_8sides 10_whiteLine3.jpg	MediumLong_e19_stereo_44KHz.wav
2	15	1	1	1	C	2	1	348	1	poli_8sides 3_whiteLine3.jpg	Medium_e26_stereo_44KHz.wav
2	16	4	4	2	I	1	0	448	0	poli_8sides 5_whiteLine3.jpg	Medium_e01_cut1_stereo_44KHz.wav
2	17	2	2	1	C	1	0	380	0	poli_8sides 10_whiteLine3.jpg	MediumLong_e19_stereo_44KHz.wav
2	18	3	4	2	I	1	0	802	1	poli_8sides 16_whiteLine3.jpg	Medium_e01_cut1_stereo_44KHz.wav
2	19	4	3	2	I	2	0	603	0	poli_8sides 5_whiteLine3.jpg	Medium_e13_stereo_44KHz.wav
2	20	1	1	1	C	1	0	617	0	poli_8sides 3_whiteLine3.jpg	Medium_e26_stereo_44KHz.wav
2	21	4	4	2	I	1	0	563	0	poli_8sides 5_whiteLine3.jpg	Medium_e01_cut1_stereo_44KHz.wav
2	22	2	1	0	C	2	0	882	0	poli_8sides 10_whiteLine3.jpg	Medium_e26_stereo_44KHz.wav
2	23	3	3	2	I	1	0	311	0	poli_8sides 16_whiteLine3.jpg	Medium_e13_stereo_44KHz.wav
2	24	1	2	0	C	2	0	448	0	poli_8sides 3_whiteLine3.jpg	MediumLong_e19_stereo_44KHz.wav
2	25	4	4	2	I	1	0	362	0	poli_8sides 5_whiteLine3.jpg	Medium_e01_cut1_stereo_44KHz.wav
2	26	3	3	2	I	2	0	520	1	poli_8sides 16_whiteLine3.jpg	Medium_e13_stereo_44KHz.wav
2	27	1	2	0	C	2	0	792	0	poli_8sides 3_whiteLine3.jpg	MediumLong_e19_stereo_44KHz.wav
2	28	2	1	0	C	1	1	358	1	poli_8sides 10_whiteLine3.jpg	Medium_e26_stereo_44KHz.wav
2	29	1	1	1	C	2	1	541	1	poli_8sides 3_whiteLine3.jpg	Medium_e26_stereo_44KHz.wav
2	30	3	4	2	I	2	0	767	0	poli_8sides 16_whiteLine3.jpg	Medium_e01_cut1_stereo_44KHz.wav
2	31	4	3	2	I	1	0	588	0	poli_8sides 5_whiteLine3.jpg	Medium_e13_stereo_44KHz.wav
2	32	2	2	1	C	1	0	500	0	poli_8sides 10_whiteLine3.jpg	MediumLong_e19_stereo_44KHz.wav
2	33	1	1	1	C	1	0	363	0	poli_8sides 3_whiteLine3.jpg	Medium_e26_stereo_44KHz.wav
2	34	4	3	2	I	1	0	514	0	poli_8sides 5_whiteLine3.jpg	Medium_e13_stereo_44KHz.wav
2	35	3	3	2	I	1	0	457	1	poli_8sides 16_whiteLine3.jpg	Medium_e13_stereo_44KHz.wav
2	36	2	1	0	C	1	1	448	1	poli_8sides 10_whiteLine3.jpg	Medium_e26_stereo_44KHz.wav
2	37	1	2	0	C	2	0	458	0	poli_8sides 3_whiteLine3.jpg	MediumLong_e19_stereo_44KHz.wav
2	38	4	4	2	I	1	0	390	1	poli_8sides 5_whiteLine3.jpg	Medium_e01_cut1_stereo_44KHz.wav
2	39	2	2	1	C	2	1	898	1	poli_8sides 10_whiteLine3.jpg	MediumLong_e19_stereo_44KHz.wav
2	40	3	4	2	I	2	0	294	1	poli_8sides 16_whiteLine3.jpg	Medium_e01_cut1_stereo_44KHz.wav
2	41	4	3	2	I	1	0	270	0	poli_8sides 5_whiteLine3.jpg	Medium_e13_stereo_44KHz.wav
2	42	3	3	2	I	2	0	670	0	poli_8sides 16_whiteLine3.jpg	Medium_e13_stereo_44KHz.wav
2	43	2	1	0	C	2	0	416	0	poli_8sides 10_whiteLine3.jpg	Medium_e26_stereo_44KHz.wav
2	44	1	1	1	C	1	0	495	0	poli_8sides 3_whiteLine3.jpg	Medium_e26_stereo_44KHz.wav
2	45	2	2	1	C	1	0	446	0	poli_8sides 10_whiteLine3.jpg	MediumLong_e19_stereo_44KHz.wav
2	46	1	2	0	C	1	1	716	1	poli_8sides 3_whiteLine3.jpg	MediumLong_e19_stereo_44KHz.wav
2	47	3	4	2	I	2	0	652	0	poli_8sides 16_whiteLine3.jpg	Medium_e01_cut1_stereo_44KHz.wav
2	48	4	4	2	I	2	0	571	0	poli_8sides 5_whiteLine3.jpg	Medium_e01_cut1_stereo_44KHz.wav
2	49	1	1	1	C	2	1	659	1	poli_8sides 3_whiteLine3.jpg	Medium_e26_stereo_44KHz.wav
2	50	4	3	2	I	1	0	1495	0	poli_8sides 5_whiteLine3.jpg	Medium_e13_stereo_44KHz.wav
2	51	2	2	1	C	1	0	357	0	poli_8sides 10_whiteLine3.jpg	MediumLong_e19_stereo_44KHz.wav
2	52	3	4	2	I	2	0	393	1	poli_8sides 16_whiteLine3.jpg	Medium_e01_cut1_stereo_44KHz.wav
2	53	1	2	0	C	2	0	560	0	poli_8sides 3_whiteLine3.jpg	MediumLong_e19_stereo_44KHz.wav
2	54	4	4	2	I	1	0	587	0	poli_8sides 5_whiteLine3.jpg	Medium_e01_cut1_stereo_44KHz.wav
2	55	3	3	2	I	1	0	409	1	poli_8sides 16_whiteLine3.jpg	Medium_e13_stereo_44KHz.wav
2	56	2	1	0	C	1	1	659	1	poli_8sides 10_whiteLine3.jpg	Medium_e26_stereo_44KHz.wav
2	57	3	4	2	I	1	0	598	1	poli_8sides 16_whiteLine3.jpg	Medium_e01_cut1_stereo_44KHz.wav
2	58	1	1	1	C	2	1	561	1	poli_8sides 3_whiteLine3.jpg	Medium_e26_stereo_44KHz.wav
2	59	4	3	2	I	1	0	816	1	poli_8sides 5_whiteLine3.jpg	Medium_e13_stereo_44KHz.wav
2	60	2	1	0	C	1	1	498	1	poli_8sides 10_whiteLine3.jpg	Medium_e26_stereo_44KHz.wav
2	61	4	4	2	I	1	0	535	0	poli_8sides 5_whiteLine3.jpg	Medium_e01_cut1_stereo_44KHz.wav
2	62	3	3	2	I	2	0	547	0	poli_8sides 16_whiteLine3.jpg	Medium_e13_stereo_44KHz.wav
2	63	1	2	0	C	1	1	382	1	poli_8sides 3_whiteLine3.jpg	MediumLong_e19_stereo_44KHz.wav
2	64	2	2	1	C	1	0	462	0	poli_8sides 10_whiteLine3.jpg	MediumLong_e19_stereo_44KHz.wav
2	65	3	4	2	I	1	0	341	0	poli_8sides 16_whiteLine3.jpg	Medium_e01_cut1_stereo_44KHz.wav
2	66	4	3	2	I	2	0	397	0	poli_8sides 5_whiteLine3.jpg	Medium_e13_stereo_44KHz.wav
2	67	2	2	1	C	1	0	245	0	poli_8sides 10_whiteLine3.jpg	MediumLong_e19_stereo_44KHz.wav
2	68	1	1	1	C	1	0	239	0	poli_8sides 3_whiteLine3.jpg	Medium_e26_stereo_44KHz.wav
2	69	3	3	2	I	1	0	337	1	poli_8sides 16_whiteLine3.jpg	Medium_e13_stereo_44KHz.wav
2	70	2	1	0	C	1	1	386	1	poli_8sides 10_whiteLine3.jpg	Medium_e26_stereo_44KHz.wav
2	71	1	2	0	C	1	1	417	1	poli_8sides 3_whiteLine3.jpg	MediumLong_e19_stereo_44KHz.wav
2	72	4	4	2	I	1	0	278	1	poli_8sides 5_whiteLine3.jpg	Medium_e01_cut1_stereo_44KHz.wav
2	73	1	1	1	C	1	0	402	0	poli_8sides 3_whiteLine3.jpg	Medium_e26_stereo_44KHz.wav
2	74	2	1	0	C	1	1	284	1	poli_8sides 10_whiteLine3.jpg	Medium_e26_stereo_44KHz.wav
2	75	3	4	2	I	1	0	320	0	poli_8sides 16_whiteLine3.jpg	Medium_e01_cut1_stereo_44KHz.wav
2	76	4	3	2	I	1	0	199	0	poli_8sides 5_whiteLine3.jpg	Medium_e13_stereo_44KHz.wav
2	77	2	2	1	C	2	1	272	1	poli_8sides 10_whiteLine3.jpg	MediumLong_e19_stereo_44KHz.wav
2	78	3	3	2	I	1	0	416	0	poli_8sides 16_whiteLine3.jpg	Medium_e13_stereo_44KHz.wav
2	79	1	2	0	C	2	0	540	0	poli_8sides 3_whiteLine3.jpg	MediumLong_e19_stereo_44KHz.wav
2	80	4	4	2	I	2	0	531	0	poli_8sides 5_whiteLine3.jpg	Medium_e01_cut1_stereo_44KHz.wav
2	81	3	3	2	I	1	0	283	1	poli_8sides 16_whiteLine3.jpg	Medium_e13_stereo_44KHz.wav
2	82	4	4	2	I	1	0	382	1	poli_8sides 5_whiteLine3.jpg	Medium_e01_cut1_stereo_44KHz.wav
2	83	2	2	1	C	1	0	348	0	poli_8sides 10_whiteLine3.jpg	MediumLong_e19_stereo_44KHz.wav
2	84	1	1	1	C	1	0	342	0	poli_8sides 3_whiteLine3.jpg	Medium_e26_stereo_44KHz.wav
2	85	2	1	0	C	1	1	402	1	poli_8sides 10_whiteLine3.jpg	Medium_e26_stereo_44KHz.wav
2	86	4	3	2	I	1	0	1076	1	poli_8sides 5_whiteLine3.jpg	Medium_e13_stereo_44KHz.wav
2	87	3	4	2	I	2	0	559	0	poli_8sides 16_whiteLine3.jpg	Medium_e01_cut1_stereo_44KHz.wav
2	88	1	2	0	C	2	0	624	0	poli_8sides 3_whiteLine3.jpg	MediumLong_e19_stereo_44KHz.wav
2	89	3	4	2	I	1	0	407	0	poli_8sides 16_whiteLine3.jpg	Medium_e01_cut1_stereo_44KHz.wav
2	90	1	2	0	C	1	1	367	1	poli_8sides 3_whiteLine3.jpg	MediumLong_e19_stereo_44KHz.wav
2	91	2	2	1	C	1	0	675	0	poli_8sides 10_whiteLine3.jpg	MediumLong_e19_stereo_44KHz.wav
2	92	4	4	2	I	1	0	644	0	poli_8sides 5_whiteLine3.jpg	Medium_e01_cut1_stereo_44KHz.wav
2	93	3	3	2	I	1	0	628	1	poli_8sides 16_whiteLine3.jpg	Medium_e13_stereo_44KHz.wav
2	94	1	1	1	C	1	0	596	0	poli_8sides 3_whiteLine3.jpg	Medium_e26_stereo_44KHz.wav
2	95	2	1	0	C	1	1	625	1	poli_8sides 10_whiteLine3.jpg	Medium_e26_stereo_44KHz.wav
2	96	4	3	2	I	1	0	512	1	poli_8sides 5_whiteLine3.jpg	Medium_e13_stereo_44KHz.wav
2	97	2	2	1	C	1	0	581	0	poli_8sides 10_whiteLine3.jpg	MediumLong_e19_stereo_44KHz.wav
2	98	3	4	2	I	1	0	433	1	poli_8sides 16_whiteLine3.jpg	Medium_e01_cut1_stereo_44KHz.wav
2	99	1	2	0	C	1	1	731	1	poli_8sides 3_whiteLine3.jpg	MediumLong_e19_stereo_44KHz.wav
2	100	4	3	2	I	1	0	468	1	poli_8sides 5_whiteLine3.jpg	Medium_e13_stereo_44KHz.wav
2	101	1	1	1	C	2	1	920	1	poli_8sides 3_whiteLine3.jpg	Medium_e26_stereo_44KHz.wav
2	102	4	4	2	I	2	0	445	1	poli_8sides 5_whiteLine3.jpg	Medium_e01_cut1_stereo_44KHz.wav
2	103	2	1	0	C	2	0	538	0	poli_8sides 10_whiteLine3.jpg	Medium_e26_stereo_44KHz.wav
2	104	3	3	2	I	1	0	397	0	poli_8sides 16_whiteLine3.jpg	Medium_e13_stereo_44KHz.wav
2	105	2	2	1	C	1	0	335	0	poli_8sides 10_whiteLine3.jpg	MediumLong_e19_stereo_44KHz.wav
2	106	4	4	2	I	2	0	342	1	poli_8sides 5_whiteLine3.jpg	Medium_e01_cut1_stereo_44KHz.wav
2	107	3	4	2	I	2	0	441	0	poli_8sides 16_whiteLine3.jpg	Medium_e01_cut1_stereo_44KHz.wav
2	108	1	1	1	C	1	0	583	0	poli_8sides 3_whiteLine3.jpg	Medium_e26_stereo_44KHz.wav
2	109	3	3	2	I	1	0	508	1	poli_8sides 16_whiteLine3.jpg	Medium_e13_stereo_44KHz.wav
2	110	2	1	0	C	1	1	474	1	poli_8sides 10_whiteLine3.jpg	Medium_e26_stereo_44KHz.wav
2	111	4	3	2	I	1	0	382	1	poli_8sides 5_whiteLine3.jpg	Medium_e13_stereo_44KHz.wav
2	112	1	2	0	C	2	0	376	0	poli_8sides 3_whiteLine3.jpg	MediumLong_e19_stereo_44KHz.wav
2	113	2	1	0	C	1	1	240	1	poli_8sides 10_whiteLine3.jpg	Medium_e26_stereo_44KHz.wav
2	114	3	3	2	I	1	0	379	1	poli_8sides 16_whiteLine3.jpg	Medium_e13_stereo_44KHz.wav
2	115	4	3	2	I	1	0	376	1	poli_8sides 5_whiteLine3.jpg	Medium_e13_stereo_44KHz.wav
2	116	1	1	1	C	1	0	463	0	poli_8sides 3_whiteLine3.jpg	Medium_e26_stereo_44KHz.wav
2	117	4	4	2	I	2	0	459	0	poli_8sides 5_whiteLine3.jpg	Medium_e01_cut1_stereo_44KHz.wav
2	118	2	2	1	C	1	0	284	0	poli_8sides 10_whiteLine3.jpg	MediumLong_e19_stereo_44KHz.wav
2	119	3	4	2	I	1	0	311	1	poli_8sides 16_whiteLine3.jpg	Medium_e01_cut1_stereo_44KHz.wav
2	120	1	2	0	C	1	1	234	1	poli_8sides 3_whiteLine3.jpg	MediumLong_e19_stereo_44KHz.wav
2	121	2	1	0	C	2	0	323	0	poli_8sides 10_whiteLine3.jpg	Medium_e26_stereo_44KHz.wav
2	122	4	4	2	I	2	0	468	1	poli_8sides 5_whiteLine3.jpg	Medium_e01_cut1_stereo_44KHz.wav
2	123	3	4	2	I	1	0	205	1	poli_8sides 16_whiteLine3.jpg	Medium_e01_cut1_stereo_44KHz.wav
2	124	1	1	1	C	1	0	534	0	poli_8sides 3_whiteLine3.jpg	Medium_e26_stereo_44KHz.wav
2	125	4	3	2	I	1	0	565	0	poli_8sides 5_whiteLine3.jpg	Medium_e13_stereo_44KHz.wav
2	126	1	2	0	C	1	1	370	1	poli_8sides 3_whiteLine3.jpg	MediumLong_e19_stereo_44KHz.wav
2	127	3	3	2	I	1	0	631	1	poli_8sides 16_whiteLine3.jpg	Medium_e13_stereo_44KHz.wav
2	128	2	2	1	C	2	1	543	1	poli_8sides 10_whiteLine3.jpg	MediumLong_e19_stereo_44KHz.wav
2	129	4	4	2	I	1	0	343	0	poli_8sides 5_whiteLine3.jpg	Medium_e01_cut1_stereo_44KHz.wav
2	130	1	2	0	C	1	1	219	1	poli_8sides 3_whiteLine3.jpg	MediumLong_e19_stereo_44KHz.wav
2	131	3	3	2	I	2	0	392	1	poli_8sides 16_whiteLine3.jpg	Medium_e13_stereo_44KHz.wav
2	132	2	2	1	C	1	0	457	0	poli_8sides 10_whiteLine3.jpg	MediumLong_e19_stereo_44KHz.wav
2	133	1	1	1	C	1	0	385	0	poli_8sides 3_whiteLine3.jpg	Medium_e26_stereo_44KHz.wav
2	134	3	4	2	I	2	0	560	1	poli_8sides 16_whiteLine3.jpg	Medium_e01_cut1_stereo_44KHz.wav
2	135	2	1	0	C	1	1	389	1	poli_8sides 10_whiteLine3.jpg	Medium_e26_stereo_44KHz.wav
2	136	4	3	2	I	2	0	865	0	poli_8sides 5_whiteLine3.jpg	Medium_e13_stereo_44KHz.wav
2	137	1	2	0	C	2	0	1023	0	poli_8sides 3_whiteLine3.jpg	MediumLong_e19_stereo_44KHz.wav
2	138	2	1	0	C	1	1	324	1	poli_8sides 10_whiteLine3.jpg	Medium_e26_stereo_44KHz.wav
2	139	4	3	2	I	1	0	364	0	poli_8sides 5_whiteLine3.jpg	Medium_e13_stereo_44KHz.wav
2	140	3	4	2	I	2	0	294	1	poli_8sides 16_whiteLine3.jpg	Medium_e01_cut1_stereo_44KHz.wav
2	141	4	4	2	I	2	0	614	1	poli_8sides 5_whiteLine3.jpg	Medium_e01_cut1_stereo_44KHz.wav
2	142	3	3	2	I	1	0	516	0	poli_8sides 16_whiteLine3.jpg	Medium_e13_stereo_44KHz.wav
2	143	2	2	1	C	1	0	222	0	poli_8sides 10_whiteLine3.jpg	MediumLong_e19_stereo_44KHz.wav
2	144	1	1	1	C	2	1	504	1	poli_8sides 3_whiteLine3.jpg	Medium_e26_stereo_44KHz.wav
2	145	4	4	2	I	1	0	474	1	poli_8sides 5_whiteLine3.jpg	Medium_e01_cut1_stereo_44KHz.wav
2	146	2	2	1	C	1	0	312	0	poli_8sides 10_whiteLine3.jpg	MediumLong_e19_stereo_44KHz.wav
2	147	3	3	2	I	1	0	56	0	poli_8sides 16_whiteLine3.jpg	Medium_e13_stereo_44KHz.wav
2	148	1	1	1	C	1	0	225	0	poli_8sides 3_whiteLine3.jpg	Medium_e26_stereo_44KHz.wav
2	149	3	4	2	I	2	0	287	1	poli_8sides 16_whiteLine3.jpg	Medium_e01_cut1_stereo_44KHz.wav
2	150	2	1	0	C	2	0	914	0	poli_8sides 10_whiteLine3.jpg	Medium_e26_stereo_44KHz.wav
2	151	1	2	0	C	1	1	426	1	poli_8sides 3_whiteLine3.jpg	MediumLong_e19_stereo_44KHz.wav
2	152	4	3	2	I	1	0	385	1	poli_8sides 5_whiteLine3.jpg	Medium_e13_stereo_44KHz.wav
2	153	2	2	1	C	1	0	421	0	poli_8sides 10_whiteLine3.jpg	MediumLong_e19_stereo_44KHz.wav
2	154	3	4	2	I	2	0	545	0	poli_8sides 16_whiteLine3.jpg	Medium_e01_cut1_stereo_44KHz.wav
2	155	1	2	0	C	2	0	677	0	poli_8sides 3_whiteLine3.jpg	MediumLong_e19_stereo_44KHz.wav
2	156	4	3	2	I	1	0	549	1	poli_8sides 5_whiteLine3.jpg	Medium_e13_stereo_44KHz.wav
2	157	1	1	1	C	1	0	657	0	poli_8sides 3_whiteLine3.jpg	Medium_e26_stereo_44KHz.wav
2	158	3	3	2	I	2	0	650	0	poli_8sides 16_whiteLine3.jpg	Medium_e13_stereo_44KHz.wav
2	159	2	1	0	C	1	1	328	1	poli_8sides 10_whiteLine3.jpg	Medium_e26_stereo_44KHz.wav
2	160	4	4	2	I	1	0	384	0	poli_8sides 5_whiteLine3.jpg	Medium_e01_cut1_stereo_44KHz.wav
2	161	1	1	1	C	2	1	379	1	poli_8sides 3_whiteLine3.jpg	Medium_e26_stereo_44KHz.wav
2	162	4	4	2	I	1	0	410	0	poli_8sides 5_whiteLine3.jpg	Medium_e01_cut1_stereo_44KHz.wav
2	163	2	1	0	C	1	1	392	1	poli_8sides 10_whiteLine3.jpg	Medium_e26_stereo_44KHz.wav
2	164	3	4	2	I	2	0	520	0	poli_8sides 16_whiteLine3.jpg	Medium_e01_cut1_stereo_44KHz.wav
2	165	2	2	1	C	1	0	383	0	poli_8sides 10_whiteLine3.jpg	MediumLong_e19_stereo_44KHz.wav
2	166	4	3	2	I	1	0	531	1	poli_8sides 5_whiteLine3.jpg	Medium_e13_stereo_44KHz.wav
2	167	1	2	0	C	2	0	617	0	poli_8sides 3_whiteLine3.jpg	MediumLong_e19_stereo_44KHz.wav
2	168	3	3	2	I	1	0	630	1	poli_8sides 16_whiteLine3.jpg	Medium_e13_stereo_44KHz.wav
2	169	4	4	2	I	1	0	400	1	poli_8sides 5_whiteLine3.jpg	Medium_e01_cut1_stereo_44KHz.wav
2	170	1	2	0	C	2	0	706	0	poli_8sides 3_whiteLine3.jpg	MediumLong_e19_stereo_44KHz.wav
2	171	3	4	2	I	1	0	340	0	poli_8sides 16_whiteLine3.jpg	Medium_e01_cut1_stereo_44KHz.wav
2	172	2	2	1	C	1	0	477	0	poli_8sides 10_whiteLine3.jpg	MediumLong_e19_stereo_44KHz.wav
2	173	3	3	2	I	2	0	618	0	poli_8sides 16_whiteLine3.jpg	Medium_e13_stereo_44KHz.wav
2	174	1	1	1	C	2	1	838	1	poli_8sides 3_whiteLine3.jpg	Medium_e26_stereo_44KHz.wav
2	175	2	1	0	C	1	1	452	1	poli_8sides 10_whiteLine3.jpg	Medium_e26_stereo_44KHz.wav
2	176	4	3	2	I	1	0	582	1	poli_8sides 5_whiteLine3.jpg	Medium_e13_stereo_44KHz.wav
2	177	3	4	2	I	1	0	825	1	poli_8sides 16_whiteLine3.jpg	Medium_e01_cut1_stereo_44KHz.wav
2	178	1	1	1	C	2	1	729	1	poli_8sides 3_whiteLine3.jpg	Medium_e26_stereo_44KHz.wav
2	179	4	3	2	I	1	0	664	0	poli_8sides 5_whiteLine3.jpg	Medium_e13_stereo_44KHz.wav
2	180	2	1	0	C	2	0	683	0	poli_8sides 10_whiteLine3.jpg	Medium_e26_stereo_44KHz.wav
2	181	4	4	2	I	1	0	526	1	poli_8sides 5_whiteLine3.jpg	Medium_e01_cut1_stereo_44KHz.wav
2	182	3	3	2	I	1	0	693	1	poli_8sides 16_whiteLine3.jpg	Medium_e13_stereo_44KHz.wav
2	183	2	2	1	C	1	0	400	0	poli_8sides 10_whiteLine3.jpg	MediumLong_e19_stereo_44KHz.wav
2	184	1	2	0	C	1	1	495	1	poli_8sides 3_whiteLine3.jpg	MediumLong_e19_stereo_44KHz.wav
2	185	2	1	0	C	2	0	435	0	poli_8sides 10_whiteLine3.jpg	Medium_e26_stereo_44KHz.wav
2	186	3	4	2	I	1	0	720	1	poli_8sides 16_whiteLine3.jpg	Medium_e01_cut1_stereo_44KHz.wav
2	187	4	3	2	I	1	0	612	0	poli_8sides 5_whiteLine3.jpg	Medium_e13_stereo_44KHz.wav
2	188	1	2	0	C	1	1	392	1	poli_8sides 3_whiteLine3.jpg	MediumLong_e19_stereo_44KHz.wav
2	189	4	4	2	I	1	0	394	1	poli_8sides 5_whiteLine3.jpg	Medium_e01_cut1_stereo_44KHz.wav
2	190	1	1	1	C	2	1	687	1	poli_8sides 3_whiteLine3.jpg	Medium_e26_stereo_44KHz.wav
2	191	2	2	1	C	1	0	1212	0	poli_8sides 10_whiteLine3.jpg	MediumLong_e19_stereo_44KHz.wav
2	192	3	3	2	I	1	0	463	0	poli_8sides 16_whiteLine3.jpg	Medium_e13_stereo_44KHz.wav
2	193	4	4	2	I	1	0	470	1	poli_8sides 5_whiteLine3.jpg	Medium_e01_cut1_stereo_44KHz.wav
2	194	3	3	2	I	2	0	836	1	poli_8sides 16_whiteLine3.jpg	Medium_e13_stereo_44KHz.wav
2	195	1	2	0	C	1	1	609	1	poli_8sides 3_whiteLine3.jpg	MediumLong_e19_stereo_44KHz.wav
2	196	2	2	1	C	1	0	519	0	poli_8sides 10_whiteLine3.jpg	MediumLong_e19_stereo_44KHz.wav
2	197	3	4	2	I	1	0	551	0	poli_8sides 16_whiteLine3.jpg	Medium_e01_cut1_stereo_44KHz.wav
2	198	2	1	0	C	1	1	391	1	poli_8sides 10_whiteLine3.jpg	Medium_e26_stereo_44KHz.wav
2	199	4	3	2	I	2	0	415	1	poli_8sides 5_whiteLine3.jpg	Medium_e13_stereo_44KHz.wav
2	200	1	1	1	C	2	1	576	1	poli_8sides 3_whiteLine3.jpg	Medium_e26_stereo_44KHz.wav
3	1	4	3	2	I	1	0	930	1	poli_8sides 2_whiteLine3.jpg	Short_b20_cut1_stereo_44KHz.wav
3	2	2	1	0	C	2	0	461	0	poli_8sides 4_whiteLine3.jpg	Short_b22_cut1_stereo_44KHz.wav
3	3	3	4	2	I	1	0	481	1	poli_8sides 6_whiteLine3.jpg	Short_b09_cut1_stereo_44KHz.wav
3	4	1	1	1	C	1	0	427	0	poli_8sides 11_whiteLine3.jpg	Short_b22_cut1_stereo_44KHz.wav
3	5	3	3	2	I	1	0	406	1	poli_8sides 6_whiteLine3.jpg	Short_b20_cut1_stereo_44KHz.wav
3	6	4	4	2	I	1	0	542	0	poli_8sides 2_whiteLine3.jpg	Short_b09_cut1_stereo_44KHz.wav
3	7	1	2	0	C	1	1	673	1	poli_8sides 11_whiteLine3.jpg	Short_b23_cut1_stereo_44KHz.wav
3	8	2	2	1	C	2	1	666	1	poli_8sides 4_whiteLine3.jpg	Short_b23_cut1_stereo_44KHz.wav
3	9	4	4	2	I	2	0	518	1	poli_8sides 2_whiteLine3.jpg	Short_b09_cut1_stereo_44KHz.wav
3	10	1	2	0	C	1	1	414	1	poli_8sides 11_whiteLine3.jpg	Short_b23_cut1_stereo_44KHz.wav
3	11	3	4	2	I	2	0	443	1	poli_8sides 6_whiteLine3.jpg	Short_b09_cut1_stereo_44KHz.wav
3	12	2	1	0	C	1	1	596	1	poli_8sides 4_whiteLine3.jpg	Short_b22_cut1_stereo_44KHz.wav
3	13	4	3	2	I	2	0	416	1	poli_8sides 2_whiteLine3.jpg	Short_b20_cut1_stereo_44KHz.wav
3	14	3	3	2	I	1	0	474	0	poli_8sides 6_whiteLine3.jpg	Short_b20_cut1_stereo_44KHz.wav
3	15	1	1	1	C	1	0	402	0	poli_8sides 11_whiteLine3.jpg	Short_b22_cut1_stereo_44KHz.wav
3	16	2	2	1	C	2	1	419	1	poli_8sides 4_whiteLine3.jpg	Short_b23_cut1_stereo_44KHz.wav
3	17	1	2	0	C	1	1	375	1	poli_8sides 11_whiteLine3.jpg	Short_b23_cut1_stereo_44KHz.wav
3	18	2	1	0	C	1	1	520	1	poli_8sides 4_whiteLine3.jpg	Short_b22_cut1_stereo_44KHz.wav
3	19	3	3	2	I	2	0	365	0	poli_8sides 6_whiteLine3.jpg	Short_b20_cut1_stereo_44KHz.wav
3	20	4	3	2	I	1	0	239	1	poli_8sides 2_whiteLine3.jpg	Short_b20_cut1_stereo_44KHz.wav
3	21	2	2	1	C	1	0	292	0	poli_8sides 4_whiteLine3.jpg	Short_b23_cut1_stereo_44KHz.wav
3	22	4	4	2	I	2	0	474	0	poli_8sides 2_whiteLine3.jpg	Short_b09_cut1_stereo_44KHz.wav
3	23	3	4	2	I	1	0	389	1	poli_8sides 6_whiteLine3.jpg	Short_b09_cut1_stereo_44KHz.wav
3	24	1	1	1	C	1	0	395	0	poli_8sides 11_whiteLine3.jpg	Short_b22_cut1_stereo_44KHz.wav
3	25	2	1	0	C	1	1	449	1	poli_8sides 4_whiteLine3.jpg	Short_b22_cut1_stereo_44KHz.wav
3	26	4	3	2	I	2	0	694	0	poli_8sides 2_whiteLine3.jpg	Short_b20_cut1_stereo_44KHz.wav
3	27	3	4	2	I	1	0	663	1	poli_8sides 6_whiteLine3.jpg	Short_b09_cut1_stereo_44KHz.wav
3	28	1	2	0	C	1	1	396	1	poli_8sides 11_whiteLine3.jpg	Short_b23_cut1_stereo_44KHz.wav
3	29	3	3	2	I	1	0	673	0	poli_8sides 6_whiteLine3.jpg	Short_b20_cut1_stereo_44KHz.wav
3	30	2	2	1	C	1	0	541	0	poli_8sides 4_whiteLine3.jpg	Short_b23_cut1_stereo_44KHz.wav
3	31	4	4	2	I	1	0	582	0	poli_8sides 2_whiteLine3.jpg	Short_b09_cut1_stereo_44KHz.wav
3	32	1	1	1	C	1	0	477	0	poli_8sides 11_whiteLine3.jpg	Short_b22_cut1_stereo_44KHz.wav
3	33	4	4	2	I	1	0	598	0	poli_8sides 2_whiteLine3.jpg	Short_b09_cut1_stereo_44KHz.wav
3	34	2	1	0	C	1	1	461	1	poli_8sides 4_whiteLine3.jpg	Short_b22_cut1_stereo_44KHz.wav
3	35	3	4	2	I	2	0	652	0	poli_8sides 6_whiteLine3.jpg	Short_b09_cut1_stereo_44KHz.wav
3	36	1	2	0	C	1	1	486	1	poli_8sides 11_whiteLine3.jpg	Short_b23_cut1_stereo_44KHz.wav
3	37	2	2	1	C	1	0	762	0	poli_8sides 4_whiteLine3.jpg	Short_b23_cut1_stereo_44KHz.wav
3	38	3	3	2	I	1	0	621	0	poli_8sides 6_whiteLine3.jpg	Short_b20_cut1_stereo_44KHz.wav
3	39	4	3	2	I	1	0	514	0	poli_8sides 2_whiteLine3.jpg	Short_b20_cut1_stereo_44KHz.wav
3	40	1	1	1	C	1	0	468	0	poli_8sides 11_whiteLine3.jpg	Short_b22_cut1_stereo_44KHz.wav
3	41	2	1	0	C	1	1	595	1	poli_8sides 4_whiteLine3.jpg	Short_b22_cut1_stereo_44KHz.wav
3	42	4	4	2	I	1	0	778	1	poli_8sides 2_whiteLine3.jpg	Short_b09_cut1_stereo_44KHz.wav
3	43	3	4	2	I	2	0	523	1	poli_8sides 6_whiteLine3.jpg	Short_b09_cut1_stereo_44KHz.wav
3	44	1	1	1	C	1	0	551	0	poli_8sides 11_whiteLine3.jpg	Short_b22_cut1_stereo_44KHz.wav
3	45	4	3	2	I	0	0	0	0	poli_8sides 2_whiteLine3.jpg	Short_b20_cut1_stereo_44KHz.wav
3	46	1	2	0	C	1	1	468	1	poli_8sides 11_whiteLine3.jpg	Short_b23_cut1_stereo_44KHz.wav
3	47	2	2	1	C	1	0	543	0	poli_8sides 4_whiteLine3.jpg	Short_b23_cut1_stereo_44KHz.wav
3	48	3	3	2	I	2	0	456	0	poli_8sides 6_whiteLine3.jpg	Short_b20_cut1_stereo_44KHz.wav
3	49	2	1	0	C	1	1	555	1	poli_8sides 4_whiteLine3.jpg	Short_b22_cut1_stereo_44KHz.wav
3	50	4	3	2	I	2	0	460	1	poli_8sides 2_whiteLine3.jpg	Short_b20_cut1_stereo_44KHz.wav
3	51	3	3	2	I	1	0	472	0	poli_8sides 6_whiteLine3.jpg	Short_b20_cut1_stereo_44KHz.wav
3	52	1	2	0	C	1	1	496	1	poli_8sides 11_whiteLine3.jpg	Short_b23_cut1_stereo_44KHz.wav
3	53	4	4	2	I	2	0	568	1	poli_8sides 2_whiteLine3.jpg	Short_b09_cut1_stereo_44KHz.wav
3	54	3	4	2	I	1	0	523	0	poli_8sides 6_whiteLine3.jpg	Short_b09_cut1_stereo_44KHz.wav
3	55	2	2	1	C	1	0	520	0	poli_8sides 4_whiteLine3.jpg	Short_b23_cut1_stereo_44KHz.wav
3	56	1	1	1	C	1	0	437	0	poli_8sides 11_whiteLine3.jpg	Short_b22_cut1_stereo_44KHz.wav
3	57	3	4	2	I	2	0	490	1	poli_8sides 6_whiteLine3.jpg	Short_b09_cut1_stereo_44KHz.wav
3	58	4	4	2	I	2	0	694	0	poli_8sides 2_whiteLine3.jpg	Short_b09_cut1_stereo_44KHz.wav
3	59	1	1	1	C	1	0	465	0	poli_8sides 11_whiteLine3.jpg	Short_b22_cut1_stereo_44KHz.wav
3	60	2	2	1	C	2	1	777	1	poli_8sides 4_whiteLine3.jpg	Short_b23_cut1_stereo_44KHz.wav
3	61	1	2	0	C	1	1	636	1	poli_8sides 11_whiteLine3.jpg	Short_b23_cut1_stereo_44KHz.wav
3	62	4	3	2	I	1	0	689	1	poli_8sides 2_whiteLine3.jpg	Short_b20_cut1_stereo_44KHz.wav
3	63	3	3	2	I	2	0	509	0	poli_8sides 6_whiteLine3.jpg	Short_b20_cut1_stereo_44KHz.wav
3	64	2	1	0	C	1	1	548	1	poli_8sides 4_whiteLine3.jpg	Short_b22_cut1_stereo_44KHz.wav
3	65	1	1	1	C	0	0	0	0	poli_8sides 11_whiteLine3.jpg	Short_b22_cut1_stereo_44KHz.wav
3	66	4	4	2	I	1	0	414	0	poli_8sides 2_whiteLine3.jpg	Short_b09_cut1_stereo_44KHz.wav
3	67	3	3	2	I	1	0	358	0	poli_8sides 6_whiteLine3.jpg	Short_b20_cut1_stereo_44KHz.wav
3	68	2	1	0	C	1	1	549	1	poli_8sides 4_whiteLine3.jpg	Short_b22_cut1_stereo_44KHz.wav
3	69	3	4	2	I	2	0	857	1	poli_8sides 6_whiteLine3.jpg	Short_b09_cut1_stereo_44KHz.wav
3	70	1	2	0	C	1	1	869	1	poli_8sides 11_whiteLine3.jpg	Short_b23_cut1_stereo_44KHz.wav
3	71	4	3	2	I	1	0	439	0	poli_8sides 2_whiteLine3.jpg	Short_b20_cut1_stereo_44KHz.wav
3	72	2	2	1	C	1	0	547	0	poli_8sides 4_whiteLine3.jpg	Short_b23_cut1_stereo_44KHz.wav
3	73	1	1	1	C	1	0	462	0	poli_8sides 11_whiteLine3.jpg	Short_b22_cut1_stereo_44KHz.wav
3	74	2	1	0	C	1	1	565	1	poli_8sides 4_whiteLine3.jpg	Short_b22_cut1_stereo_44KHz.wav
3	75	4	4	2	I	1	0	622	1	poli_8sides 2_whiteLine3.jpg	Short_b09_cut1_stereo_44KHz.wav
3	76	3	4	2	I	2	0	560	1	poli_8sides 6_whiteLine3.jpg	Short_b09_cut1_stereo_44KHz.wav
3	77	1	2	0	C	1	1	683	1	poli_8sides 11_whiteLine3.jpg	Short_b23_cut1_stereo_44KHz.wav
3	78	3	3	2	I	1	0	538	0	poli_8sides 6_whiteLine3.jpg	Short_b20_cut1_stereo_44KHz.wav
3	79	4	3	2	I	1	0	478	1	poli_8sides 2_whiteLine3.jpg	Short_b20_cut1_stereo_44KHz.wav
3	80	2	2	1	C	1	0	669	0	poli_8sides 4_whiteLine3.jpg	Short_b23_cut1_stereo_44KHz.wav
3	81	1	1	1	C	1	0	517	0	poli_8sides 11_whiteLine3.jpg	Short_b22_cut1_stereo_44KHz.wav
3	82	4	4	2	I	1	0	675	1	poli_8sides 2_whiteLine3.jpg	Short_b09_cut1_stereo_44KHz.wav
3	83	2	2	1	C	2	1	643	1	poli_8sides 4_whiteLine3.jpg	Short_b23_cut1_stereo_44KHz.wav
3	84	3	4	2	I	1	0	665	0	poli_8sides 6_whiteLine3.jpg	Short_b09_cut1_stereo_44KHz.wav
3	85	4	3	2	I	1	0	654	1	poli_8sides 2_whiteLine3.jpg	Short_b20_cut1_stereo_44KHz.wav
3	86	3	3	2	I	1	0	427	1	poli_8sides 6_whiteLine3.jpg	Short_b20_cut1_stereo_44KHz.wav
3	87	2	1	0	C	1	1	738	1	poli_8sides 4_whiteLine3.jpg	Short_b22_cut1_stereo_44KHz.wav
3	88	1	2	0	C	1	1	587	1	poli_8sides 11_whiteLine3.jpg	Short_b23_cut1_stereo_44KHz.wav
3	89	4	4	2	I	1	0	527	0	poli_8sides 2_whiteLine3.jpg	Short_b09_cut1_stereo_44KHz.wav
3	90	2	2	1	C	2	1	1419	1	poli_8sides 4_whiteLine3.jpg	Short_b23_cut1_stereo_44KHz.wav
3	91	1	2	0	C	1	1	455	1	poli_8sides 11_whiteLine3.jpg	Short_b23_cut1_stereo_44KHz.wav
3	92	3	3	2	I	1	0	453	1	poli_8sides 6_whiteLine3.jpg	Short_b20_cut1_stereo_44KHz.wav
3	93	1	1	1	C	2	1	402	1	poli_8sides 11_whiteLine3.jpg	Short_b22_cut1_stereo_44KHz.wav
3	94	2	1	0	C	2	0	856	0	poli_8sides 4_whiteLine3.jpg	Short_b22_cut1_stereo_44KHz.wav
3	95	3	4	2	I	1	0	700	1	poli_8sides 6_whiteLine3.jpg	Short_b09_cut1_stereo_44KHz.wav
3	96	4	3	2	I	1	0	568	0	poli_8sides 2_whiteLine3.jpg	Short_b20_cut1_stereo_44KHz.wav
3	97	1	1	1	C	1	0	759	0	poli_8sides 11_whiteLine3.jpg	Short_b22_cut1_stereo_44KHz.wav
3	98	2	1	0	C	1	1	495	1	poli_8sides 4_whiteLine3.jpg	Short_b22_cut1_stereo_44KHz.wav
3	99	4	3	2	I	2	0	505	0	poli_8sides 2_whiteLine3.jpg	Short_b20_cut1_stereo_44KHz.wav
3	100	3	3	2	I	1	0	371	1	poli_8sides 6_whiteLine3.jpg	Short_b20_cut1_stereo_44KHz.wav
3	101	4	4	2	I	1	0	715	0	poli_8sides 2_whiteLine3.jpg	Short_b09_cut1_stereo_44KHz.wav
3	102	3	4	2	I	2	0	566	0	poli_8sides 6_whiteLine3.jpg	Short_b09_cut1_stereo_44KHz.wav
3	103	2	2	1	C	1	0	290	0	poli_8sides 4_whiteLine3.jpg	Short_b23_cut1_stereo_44KHz.wav
3	104	1	2	0	C	1	1	382	1	poli_8sides 11_whiteLine3.jpg	Short_b23_cut1_stereo_44KHz.wav
3	105	4	3	2	I	1	0	601	0	poli_8sides 2_whiteLine3.jpg	Short_b20_cut1_stereo_44KHz.wav
3	106	1	1	1	C	1	0	312	0	poli_8sides 11_whiteLine3.jpg	Short_b22_cut1_stereo_44KHz.wav
3	107	3	4	2	I	2	0	276	0	poli_8sides 6_whiteLine3.jpg	Short_b09_cut1_stereo_44KHz.wav
3	108	2	1	0	C	1	1	334	1	poli_8sides 4_whiteLine3.jpg	Short_b22_cut1_stereo_44KHz.wav
3	109	3	3	2	I	1	0	700	0	poli_8sides 6_whiteLine3.jpg	Short_b20_cut1_stereo_44KHz.wav
3	110	2	2	1	C	1	0	765	0	poli_8sides 4_whiteLine3.jpg	Short_b23_cut1_stereo_44KHz.wav
3	111	4	4	2	I	2	0	786	0	poli_8sides 2_whiteLine3.jpg	Short_b09_cut1_stereo_44KHz.wav
3	112	1	2	0	C	1	1	394	1	poli_8sides 11_whiteLine3.jpg	Short_b23_cut1_stereo_44KHz.wav
3	113	3	3	2	I	1	0	580	1	poli_8sides 6_whiteLine3.jpg	Short_b20_cut1_stereo_44KHz.wav
3	114	4	3	2	I	1	0	460	1	poli_8sides 2_whiteLine3.jpg	Short_b20_cut1_stereo_44KHz.wav
3	115	2	2	1	C	1	0	344	0	poli_8sides 4_whiteLine3.jpg	Short_b23_cut1_stereo_44KHz.wav
3	116	1	1	1	C	1	0	532	0	poli_8sides 11_whiteLine3.jpg	Short_b22_cut1_stereo_44KHz.wav
3	117	4	4	2	I	1	0	613	1	poli_8sides 2_whiteLine3.jpg	Short_b09_cut1_stereo_44KHz.wav
3	118	2	1	0	C	1	1	347	1	poli_8sides 4_whiteLine3.jpg	Short_b22_cut1_stereo_44KHz.wav
3	119	1	2	0	C	1	1	442	1	poli_8sides 11_whiteLine3.jpg	Short_b23_cut1_stereo_44KHz.wav
3	120	3	4	2	I	1	0	435	1	poli_8sides 6_whiteLine3.jpg	Short_b09_cut1_stereo_44KHz.wav
3	121	4	4	2	I	1	0	354	0	poli_8sides 2_whiteLine3.jpg	Short_b09_cut1_stereo_44KHz.wav
3	122	1	2	0	C	2	0	342	0	poli_8sides 11_whiteLine3.jpg	Short_b23_cut1_stereo_44KHz.wav
3	123	3	4	2	I	1	0	321	0	poli_8sides 6_whiteLine3.jpg	Short_b09_cut1_stereo_44KHz.wav
3	124	2	1	0	C	1	1	318	1	poli_8sides 4_whiteLine3.jpg	Short_b22_cut1_stereo_44KHz.wav
3	125	1	1	1	C	1	0	526	0	poli_8sides 11_whiteLine3.jpg	Short_b22_cut1_stereo_44KHz.wav
3	126	4	3	2	I	1	0	365	0	poli_8sides 2_whiteLine3.jpg	Short_b20_cut1_stereo_44KHz.wav
3	127	2	2	1	C	2	1	250	1	poli_8sides 4_whiteLine3.jpg	Short_b23_cut1_stereo_44KHz.wav
3	128	3	3	2	I	0	0	0	0	poli_8sides 6_whiteLine3.jpg	Short_b20_cut1_stereo_44KHz.wav
3	129	4	3	2	I	2	0	383	1	poli_8sides 2_whiteLine3.jpg	Short_b20_cut1_stereo_44KHz.wav
3	130	2	2	1	C	1	0	395	0	poli_8sides 4_whiteLine3.jpg	Short_b23_cut1_stereo_44KHz.wav
3	131	1	1	1	C	1	0	264	0	poli_8sides 11_whiteLine3.jpg	Short_b22_cut1_stereo_44KHz.wav
3	132	3	4	2	I	1	0	271	1	poli_8sides 6_whiteLine3.jpg	Short_b09_cut1_stereo_44KHz.wav
3	133	1	2	0	C	1	1	328	1	poli_8sides 11_whiteLine3.jpg	Short_b23_cut1_stereo_44KHz.wav
3	134	3	3	2	I	1	0	351	0	poli_8sides 6_whiteLine3.jpg	Short_b20_cut1_stereo_44KHz.wav
3	135	2	1	0	C	2	0	277	0	poli_8sides 4_whiteLine3.jpg	Short_b22_cut1_stereo_44KHz.wav
3	136	4	4	2	I	2	0	269	0	poli_8sides 2_whiteLine3.jpg	Short_b09_cut1_stereo_44KHz.wav
3	137	1	1	1	C	1	0	442	0	poli_8sides 11_whiteLine3.jpg	Short_b22_cut1_stereo_44KHz.wav
3	138	2	2	1	C	1	0	588	0	poli_8sides 4_whiteLine3.jpg	Short_b23_cut1_stereo_44KHz.wav
3	139	4	4	2	I	2	0	618	1	poli_8sides 2_whiteLine3.jpg	Short_b09_cut1_stereo_44KHz.wav
3	140	3	3	2	I	1	0	714	1	poli_8sides 6_whiteLine3.jpg	Short_b20_cut1_stereo_44KHz.wav
3	141	4	3	2	I	1	0	714	1	poli_8sides 2_whiteLine3.jpg	Short_b20_cut1_stereo_44KHz.wav
3	142	2	1	0	C	1	1	725	1	poli_8sides 4_whiteLine3.jpg	Short_b22_cut1_stereo_44KHz.wav
3	143	1	2	0	C	1	1	558	1	poli_8sides 11_whiteLine3.jpg	Short_b23_cut1_stereo_44KHz.wav
3	144	3	4	2	I	1	0	390	0	poli_8sides 6_whiteLine3.jpg	Short_b09_cut1_stereo_44KHz.wav
3	145	2	2	1	C	1	0	450	0	poli_8sides 4_whiteLine3.jpg	Short_b23_cut1_stereo_44KHz.wav
3	146	3	4	2	I	1	0	352	1	poli_8sides 6_whiteLine3.jpg	Short_b09_cut1_stereo_44KHz.wav
3	147	4	4	2	I	2	0	418	0	poli_8sides 2_whiteLine3.jpg	Short_b09_cut1_stereo_44KHz.wav
3	148	1	2	0	C	1	1	35	1	poli_8sides 11_whiteLine3.jpg	Short_b23_cut1_stereo_44KHz.wav
3	149	2	1	0	C	1	1	562	1	poli_8sides 4_whiteLine3.jpg	Short_b22_cut1_stereo_44KHz.wav
3	150	3	3	2	I	2	0	503	1	poli_8sides 6_whiteLine3.jpg	Short_b20_cut1_stereo_44KHz.wav
3	151	1	1	1	C	1	0	507	0	poli_8sides 11_whiteLine3.jpg	Short_b22_cut1_stereo_44KHz.wav
3	152	4	3	2	I	2	0	493	1	poli_8sides 2_whiteLine3.jpg	Short_b20_cut1_stereo_44KHz.wav
3	153	2	1	0	C	1	1	324	1	poli_8sides 4_whiteLine3.jpg	Short_b22_cut1_stereo_44KHz.wav
3	154	4	4	2	I	2	0	434	1	poli_8sides 2_whiteLine3.jpg	Short_b09_cut1_stereo_44KHz.wav
3	155	1	2	0	C	1	1	317	1	poli_8sides 11_whiteLine3.jpg	Short_b23_cut1_stereo_44KHz.wav
3	156	3	4	2	I	2	0	441	1	poli_8sides 6_whiteLine3.jpg	Short_b09_cut1_stereo_44KHz.wav
3	157	1	1	1	C	1	0	248	0	poli_8sides 11_whiteLine3.jpg	Short_b22_cut1_stereo_44KHz.wav
3	158	4	3	2	I	2	0	316	1	poli_8sides 2_whiteLine3.jpg	Short_b20_cut1_stereo_44KHz.wav
3	159	3	3	2	I	1	0	369	0	poli_8sides 6_whiteLine3.jpg	Short_b20_cut1_stereo_44KHz.wav
3	160	2	2	1	C	1	0	633	0	poli_8sides 4_whiteLine3.jpg	Short_b23_cut1_stereo_44KHz.wav
3	161	1	2	0	C	1	1	577	1	poli_8sides 11_whiteLine3.jpg	Short_b23_cut1_stereo_44KHz.wav
3	162	3	4	2	I	2	0	513	0	poli_8sides 6_whiteLine3.jpg	Short_b09_cut1_stereo_44KHz.wav
3	163	2	1	0	C	1	1	350	1	poli_8sides 4_whiteLine3.jpg	Short_b22_cut1_stereo_44KHz.wav
3	164	4	4	2	I	1	0	553	0	poli_8sides 2_whiteLine3.jpg	Short_b09_cut1_stereo_44KHz.wav
3	165	2	2	1	C	1	0	477	0	poli_8sides 4_whiteLine3.jpg	Short_b23_cut1_stereo_44KHz.wav
3	166	4	3	2	I	2	0	616	0	poli_8sides 2_whiteLine3.jpg	Short_b20_cut1_stereo_44KHz.wav
3	167	3	3	2	I	1	0	427	1	poli_8sides 6_whiteLine3.jpg	Short_b20_cut1_stereo_44KHz.wav
3	168	1	1	1	C	2	1	437	1	poli_8sides 11_whiteLine3.jpg	Short_b22_cut1_stereo_44KHz.wav
3	169	3	4	2	I	2	0	475	0	poli_8sides 6_whiteLine3.jpg	Short_b09_cut1_stereo_44KHz.wav
3	170	4	4	2	I	1	0	448	0	poli_8sides 2_whiteLine3.jpg	Short_b09_cut1_stereo_44KHz.wav
3	171	2	1	0	C	1	1	397	1	poli_8sides 4_whiteLine3.jpg	Short_b22_cut1_stereo_44KHz.wav
3	172	1	2	0	C	1	1	763	1	poli_8sides 11_whiteLine3.jpg	Short_b23_cut1_stereo_44KHz.wav
3	173	3	3	2	I	2	0	468	0	poli_8sides 6_whiteLine3.jpg	Short_b20_cut1_stereo_44KHz.wav
3	174	2	2	1	C	1	0	348	0	poli_8sides 4_whiteLine3.jpg	Short_b23_cut1_stereo_44KHz.wav
3	175	1	1	1	C	1	0	248	0	poli_8sides 11_whiteLine3.jpg	Short_b22_cut1_stereo_44KHz.wav
3	176	4	3	2	I	2	0	493	1	poli_8sides 2_whiteLine3.jpg	Short_b20_cut1_stereo_44KHz.wav
3	177	2	2	1	C	2	1	671	1	poli_8sides 4_whiteLine3.jpg	Short_b23_cut1_stereo_44KHz.wav
3	178	1	2	0	C	1	1	479	1	poli_8sides 11_whiteLine3.jpg	Short_b23_cut1_stereo_44KHz.wav
3	179	4	4	2	I	1	0	349	1	poli_8sides 2_whiteLine3.jpg	Short_b09_cut1_stereo_44KHz.wav
3	180	3	3	2	I	2	0	258	0	poli_8sides 6_whiteLine3.jpg	Short_b20_cut1_stereo_44KHz.wav
3	181	4	3	2	I	1	0	444	0	poli_8sides 2_whiteLine3.jpg	Short_b20_cut1_stereo_44KHz.wav
3	182	1	1	1	C	1	0	1974	0	poli_8sides 11_whiteLine3.jpg	Short_b22_cut1_stereo_44KHz.wav
3	183	2	1	0	C	1	1	375	1	poli_8sides 4_whiteLine3.jpg	Short_b22_cut1_stereo_44KHz.wav
3	184	3	4	2	I	1	0	402	0	poli_8sides 6_whiteLine3.jpg	Short_b09_cut1_stereo_44KHz.wav
3	185	2	1	0	C	1	1	319	1	poli_8sides 4_whiteLine3.jpg	Short_b22_cut1_stereo_44KHz.wav
3	186	4	3	2	I	1	0	386	1	poli_8sides 2_whiteLine3.jpg	Short_b20_cut1_stereo_44KHz.wav
3	187	1	1	1	C	1	0	345	0	poli_8sides 11_whiteLine3.jpg	Short_b22_cut1_stereo_44KHz.wav
3	188	3	3	2	I	1	0	352	1	poli_8sides 6_whiteLine3.jpg	Short_b20_cut1_stereo_44KHz.wav
3	189	4	4	2	I	1	0	417	0	poli_8sides 2_whiteLine3.jpg	Short_b09_cut1_stereo_44KHz.wav
3	190	1	2	0	C	1	1	780	1	poli_8sides 11_whiteLine3.jpg	Short_b23_cut1_stereo_44KHz.wav
3	191	2	2	1	C	1	0	367	0	poli_8sides 4_whiteLine3.jpg	Short_b23_cut1_stereo_44KHz.wav
3	192	3	4	2	I	2	0	313	1	poli_8sides 6_whiteLine3.jpg	Short_b09_cut1_stereo_44KHz.wav
3	193	4	4	2	I	1	0	418	1	poli_8sides 2_whiteLine3.jpg	Short_b09_cut1_stereo_44KHz.wav
3	194	3	4	2	I	1	0	280	1	poli_8sides 6_whiteLine3.jpg	Short_b09_cut1_stereo_44KHz.wav
3	195	2	2	1	C	1	0	373	0	poli_8sides 4_whiteLine3.jpg	Short_b23_cut1_stereo_44KHz.wav
3	196	1	1	1	C	1	0	348	0	poli_8sides 11_whiteLine3.jpg	Short_b22_cut1_stereo_44KHz.wav
3	197	4	3	2	I	1	0	424	1	poli_8sides 2_whiteLine3.jpg	Short_b20_cut1_stereo_44KHz.wav
3	198	3	3	2	I	2	0	400	0	poli_8sides 6_whiteLine3.jpg	Short_b20_cut1_stereo_44KHz.wav
3	199	1	2	0	C	1	1	413	1	poli_8sides 11_whiteLine3.jpg	Short_b23_cut1_stereo_44KHz.wav
3	200	2	1	0	C	1	1	507	1	poli_8sides 4_whiteLine3.jpg	Short_b22_cut1_stereo_44KHz.wav
4	1	1	2	0	C	1	1	855	1	poli_8sides 12_whiteLine3.jpg	MediumShort_e22_cut1_stereo_44KHz.wav
4	2	4	4	2	I	2	0	497	1	poli_8sides 1_whiteLine3.jpg	MediumShort_e16_cut1_stereo_44KHz.wav
4	3	3	4	2	I	1	0	328	0	poli_8sides 9_whiteLine3.jpg	MediumShort_e16_cut1_stereo_44KHz.wav
4	4	2	1	0	C	1	1	486	1	poli_8sides 13_whiteLine3.jpg	MediumShort_b10_cut1_MS_stereo_44KHz.wav
4	5	1	1	1	C	2	1	589	1	poli_8sides 12_whiteLine3.jpg	MediumShort_b10_cut1_MS_stereo_44KHz.wav
4	6	3	3	2	I	1	0	417	0	poli_8sides 9_whiteLine3.jpg	MediumShort_b16_cut3_MS_stereo_44KHz.wav
4	7	2	2	1	C	1	0	324	0	poli_8sides 13_whiteLine3.jpg	MediumShort_e22_cut1_stereo_44KHz.wav
4	8	4	3	2	I	1	0	373	0	poli_8sides 1_whiteLine3.jpg	MediumShort_b16_cut3_MS_stereo_44KHz.wav
4	9	3	3	2	I	2	0	327	0	poli_8sides 9_whiteLine3.jpg	MediumShort_b16_cut3_MS_stereo_44KHz.wav
4	10	1	1	1	C	1	0	422	0	poli_8sides 12_whiteLine3.jpg	MediumShort_b10_cut1_MS_stereo_44KHz.wav
4	11	2	2	1	C	1	0	376	0	poli_8sides 13_whiteLine3.jpg	MediumShort_e22_cut1_stereo_44KHz.wav
4	12	4	3	2	I	1	0	345	1	poli_8sides 1_whiteLine3.jpg	MediumShort_b16_cut3_MS_stereo_44KHz.wav
4	13	2	1	0	C	2	0	455	0	poli_8sides 13_whiteLine3.jpg	MediumShort_b10_cut1_MS_stereo_44KHz.wav
4	14	4	4	2	I	1	0	443	0	poli_8sides 1_whiteLine3.jpg	MediumShort_e16_cut1_stereo_44KHz.wav
4	15	1	2	0	C	2	0	466	0	poli_8sides 12_whiteLine3.jpg	MediumShort_e22_cut1_stereo_44KHz.wav
4	16	3	4	2	I	1	0	544	0	poli_8sides 9_whiteLine3.jpg	MediumShort_e16_cut1_stereo_44KHz.wav
4	17	2	1	0	C	1	1	608	1	poli_8sides 13_whiteLine3.jpg	MediumShort_b10_cut1_MS_stereo_44KHz.wav
4	18	1	2	0	C	2	0	470	0	poli_8sides 12_whiteLine3.jpg	MediumShort_e22_cut1_stereo_44KHz.wav
4	19	4	3	2	I	1	0	627	0	poli_8sides 1_whiteLine3.jpg	MediumShort_b16_cut3_MS_stereo_44KHz.wav
4	20	3	4	2	I	1	0	298	1	poli_8sides 9_whiteLine3.jpg	MediumShort_e16_cut1_stereo_44KHz.wav
4	21	1	1	1	C	1	0	365	0	poli_8sides 12_whiteLine3.jpg	MediumShort_b10_cut1_MS_stereo_44KHz.wav
4	22	3	3	2	I	2	0	46	0	poli_8sides 9_whiteLine3.jpg	MediumShort_b16_cut3_MS_stereo_44KHz.wav
4	23	4	4	2	I	1	0	507	1	poli_8sides 1_whiteLine3.jpg	MediumShort_e16_cut1_stereo_44KHz.wav
4	24	2	2	1	C	2	1	493	1	poli_8sides 13_whiteLine3.jpg	MediumShort_e22_cut1_stereo_44KHz.wav
4	25	4	3	2	I	1	0	416	1	poli_8sides 1_whiteLine3.jpg	MediumShort_b16_cut3_MS_stereo_44KHz.wav
4	26	1	1	1	C	2	1	449	1	poli_8sides 12_whiteLine3.jpg	MediumShort_b10_cut1_MS_stereo_44KHz.wav
4	27	2	1	0	C	2	0	532	0	poli_8sides 13_whiteLine3.jpg	MediumShort_b10_cut1_MS_stereo_44KHz.wav
4	28	3	4	2	I	1	0	457	0	poli_8sides 9_whiteLine3.jpg	MediumShort_e16_cut1_stereo_44KHz.wav
4	29	4	4	2	I	1	0	396	1	poli_8sides 1_whiteLine3.jpg	MediumShort_e16_cut1_stereo_44KHz.wav
4	30	3	3	2	I	2	0	462	1	poli_8sides 9_whiteLine3.jpg	MediumShort_b16_cut3_MS_stereo_44KHz.wav
4	31	1	2	0	C	1	1	343	1	poli_8sides 12_whiteLine3.jpg	MediumShort_e22_cut1_stereo_44KHz.wav
4	32	2	2	1	C	2	1	314	1	poli_8sides 13_whiteLine3.jpg	MediumShort_e22_cut1_stereo_44KHz.wav
4	33	3	3	2	I	1	0	648	0	poli_8sides 9_whiteLine3.jpg	MediumShort_b16_cut3_MS_stereo_44KHz.wav
4	34	1	2	0	C	1	1	456	1	poli_8sides 12_whiteLine3.jpg	MediumShort_e22_cut1_stereo_44KHz.wav
4	35	2	1	0	C	2	0	402	0	poli_8sides 13_whiteLine3.jpg	MediumShort_b10_cut1_MS_stereo_44KHz.wav
4	36	4	4	2	I	1	0	265	0	poli_8sides 1_whiteLine3.jpg	MediumShort_e16_cut1_stereo_44KHz.wav
4	37	1	1	1	C	1	0	243	0	poli_8sides 12_whiteLine3.jpg	MediumShort_b10_cut1_MS_stereo_44KHz.wav
4	38	3	4	2	I	1	0	356	1	poli_8sides 9_whiteLine3.jpg	MediumShort_e16_cut1_stereo_44KHz.wav
4	39	2	2	1	C	2	1	228	1	poli_8sides 13_whiteLine3.jpg	MediumShort_e22_cut1_stereo_44KHz.wav
4	40	4	3	2	I	1	0	543	0	poli_8sides 1_whiteLine3.jpg	MediumShort_b16_cut3_MS_stereo_44KHz.wav
4	41	3	3	2	I	2	0	486	0	poli_8sides 9_whiteLine3.jpg	MediumShort_b16_cut3_MS_stereo_44KHz.wav
4	42	2	2	1	C	1	0	359	0	poli_8sides 13_whiteLine3.jpg	MediumShort_e22_cut1_stereo_44KHz.wav
4	43	4	3	2	I	1	0	250	1	poli_8sides 1_whiteLine3.jpg	MediumShort_b16_cut3_MS_stereo_44KHz.wav
4	44	1	1	1	C	2	1	429	1	poli_8sides 12_whiteLine3.jpg	MediumShort_b10_cut1_MS_stereo_44KHz.wav
4	45	4	4	2	I	2	0	444	0	poli_8sides 1_whiteLine3.jpg	MediumShort_e16_cut1_stereo_44KHz.wav
4	46	2	1	0	C	2	0	395	0	poli_8sides 13_whiteLine3.jpg	MediumShort_b10_cut1_MS_stereo_44KHz.wav
4	47	3	4	2	I	1	0	421	1	poli_8sides 9_whiteLine3.jpg	MediumShort_e16_cut1_stereo_44KHz.wav
4	48	1	2	0	C	1	1	427	1	poli_8sides 12_whiteLine3.jpg	MediumShort_e22_cut1_stereo_44KHz.wav
4	49	4	4	2	I	1	0	364	1	poli_8sides 1_whiteLine3.jpg	MediumShort_e16_cut1_stereo_44KHz.wav
4	50	1	1	1	C	1	0	295	0	poli_8sides 12_whiteLine3.jpg	MediumShort_b10_cut1_MS_stereo_44KHz.wav
4	51	3	3	2	I	1	0	352	1	poli_8sides 9_whiteLine3.jpg	MediumShort_b16_cut3_MS_stereo_44KHz.wav
4	52	2	2	1	C	1	0	312	0	poli_8sides 13_whiteLine3.jpg	MediumShort_e22_cut1_stereo_44KHz.wav
4	53	1	2	0	C	2	0	283	0	poli_8sides 12_whiteLine3.jpg	MediumShort_e22_cut1_stereo_44KHz.wav
4	54	2	1	0	C	1	1	394	1	poli_8sides 13_whiteLine3.jpg	MediumShort_b10_cut1_MS_stereo_44KHz.wav
4	55	4	3	2	I	1	0	390	1	poli_8sides 1_whiteLine3.jpg	MediumShort_b16_cut3_MS_stereo_44KHz.wav
4	56	3	4	2	I	2	0	500	1	poli_8sides 9_whiteLine3.jpg	MediumShort_e16_cut1_stereo_44KHz.wav
4	57	1	2	0	C	1	1	319	1	poli_8sides 12_whiteLine3.jpg	MediumShort_e22_cut1_stereo_44KHz.wav
4	58	2	1	0	C	1	1	591	1	poli_8sides 13_whiteLine3.jpg	MediumShort_b10_cut1_MS_stereo_44KHz.wav
4	59	4	3	2	I	2	0	923	0	poli_8sides 1_whiteLine3.jpg	MediumShort_b16_cut3_MS_stereo_44KHz.wav
4	60	3	3	2	I	1	0	379	1	poli_8sides 9_whiteLine3.jpg	MediumShort_b16_cut3_MS_stereo_44KHz.wav
4	61	2	2	1	C	2	1	384	1	poli_8sides 13_whiteLine3.jpg	MediumShort_e22_cut1_stereo_44KHz.wav
4	62	3	4	2	I	1	0	395	1	poli_8sides 9_whiteLine3.jpg	MediumShort_e16_cut1_stereo_44KHz.wav
4	63	1	1	1	C	2	1	391	1	poli_8sides 12_whiteLine3.jpg	MediumShort_b10_cut1_MS_stereo_44KHz.wav
4	64	4	4	2	I	1	0	420	1	poli_8sides 1_whiteLine3.jpg	MediumShort_e16_cut1_stereo_44KHz.wav
4	65	1	1	1	C	2	1	511	1	poli_8sides 12_whiteLine3.jpg	MediumShort_b10_cut1_MS_stereo_44KHz.wav
4	66	4	4	2	I	1	0	521	1	poli_8sides 1_whiteLine3.jpg	MediumShort_e16_cut1_stereo_44KHz.wav
4	67	3	3	2	I	2	0	384	0	poli_8sides 9_whiteLine3.jpg	MediumShort_b16_cut3_MS_stereo_44KHz.wav
4	68	2	1	0	C	1	1	447	1	poli_8sides 13_whiteLine3.jpg	MediumShort_b10_cut1_MS_stereo_44KHz.wav
4	69	1	2	0	C	2	0	486	0	poli_8sides 12_whiteLine3.jpg	MediumShort_e22_cut1_stereo_44KHz.wav
4	70	4	3	2	I	1	0	412	1	poli_8sides 1_whiteLine3.jpg	MediumShort_b16_cut3_MS_stereo_44KHz.wav
4	71	3	4	2	I	1	0	626	0	poli_8sides 9_whiteLine3.jpg	MediumShort_e16_cut1_stereo_44KHz.wav
4	72	2	2	1	C	1	0	572	0	poli_8sides 13_whiteLine3.jpg	MediumShort_e22_cut1_stereo_44KHz.wav
4	73	4	4	2	I	1	0	416	1	poli_8sides 1_whiteLine3.jpg	MediumShort_e16_cut1_stereo_44KHz.wav
4	74	2	2	1	C	2	1	433	1	poli_8sides 13_whiteLine3.jpg	MediumShort_e22_cut1_stereo_44KHz.wav
4	75	1	2	0	C	2	0	514	0	poli_8sides 12_whiteLine3.jpg	MediumShort_e22_cut1_stereo_44KHz.wav
4	76	3	4	2	I	2	0	390	1	poli_8sides 9_whiteLine3.jpg	MediumShort_e16_cut1_stereo_44KHz.wav
4	77	2	1	0	C	2	0	807	0	poli_8sides 13_whiteLine3.jpg	MediumShort_b10_cut1_MS_stereo_44KHz.wav
4	78	3	3	2	I	1	0	317	1	poli_8sides 9_whiteLine3.jpg	MediumShort_b16_cut3_MS_stereo_44KHz.wav
4	79	1	1	1	C	1	0	395	0	poli_8sides 12_whiteLine3.jpg	MediumShort_b10_cut1_MS_stereo_44KHz.wav
4	80	4	3	2	I	1	0	473	0	poli_8sides 1_whiteLine3.jpg	MediumShort_b16_cut3_MS_stereo_44KHz.wav
4	81	1	2	0	C	2	0	404	0	poli_8sides 12_whiteLine3.jpg	MediumShort_e22_cut1_stereo_44KHz.wav
4	82	2	2	1	C	1	0	377	0	poli_8sides 13_whiteLine3.jpg	MediumShort_e22_cut1_stereo_44KHz.wav
4	83	3	3	2	I	1	0	445	1	poli_8sides 9_whiteLine3.jpg	MediumShort_b16_cut3_MS_stereo_44KHz.wav
4	84	4	3	2	I	2	0	611	0	poli_8sides 1_whiteLine3.jpg	MediumShort_b16_cut3_MS_stereo_44KHz.wav
4	85	3	4	2	I	1	0	589	0	poli_8sides 9_whiteLine3.jpg	MediumShort_e16_cut1_stereo_44KHz.wav
4	86	4	4	2	I	1	0	327	0	poli_8sides 1_whiteLine3.jpg	MediumShort_e16_cut1_stereo_44KHz.wav
4	87	1	1	1	C	1	0	364	0	poli_8sides 12_whiteLine3.jpg	MediumShort_b10_cut1_MS_stereo_44KHz.wav
4	88	2	1	0	C	2	0	317	0	poli_8sides 13_whiteLine3.jpg	MediumShort_b10_cut1_MS_stereo_44KHz.wav
4	89	3	3	2	I	1	0	333	0	poli_8sides 9_whiteLine3.jpg	MediumShort_b16_cut3_MS_stereo_44KHz.wav
4	90	4	4	2	I	1	0	344	1	poli_8sides 1_whiteLine3.jpg	MediumShort_e16_cut1_stereo_44KHz.wav
4	91	1	2	0	C	2	0	354	0	poli_8sides 12_whiteLine3.jpg	MediumShort_e22_cut1_stereo_44KHz.wav
4	92	2	1	0	C	1	1	483	1	poli_8sides 13_whiteLine3.jpg	MediumShort_b10_cut1_MS_stereo_44KHz.wav
4	93	1	1	1	C	2	1	451	1	poli_8sides 12_whiteLine3.jpg	MediumShort_b10_cut1_MS_stereo_44KHz.wav
4	94	4	3	2	I	1	0	293	0	poli_8sides 1_whiteLine3.jpg	MediumShort_b16_cut3_MS_stereo_44KHz.wav
4	95	2	2	1	C	1	0	360	0	poli_8sides 13_whiteLine3.jpg	MediumShort_e22_cut1_stereo_44KHz.wav
4	96	3	4	2	I	2	0	376	0	poli_8sides 9_whiteLine3.jpg	MediumShort_e16_cut1_stereo_44KHz.wav
4	97	2	2	1	C	1	0	352	0	poli_8sides 13_whiteLine3.jpg	MediumShort_e22_cut1_stereo_44KHz.wav
4	98	1	2	0	C	1	1	504	1	poli_8sides 12_whiteLine3.jpg	MediumShort_e22_cut1_stereo_44KHz.wav
4	99	3	3	2	I	1	0	563	0	poli_8sides 9_whiteLine3.jpg	MediumShort_b16_cut3_MS_stereo_44KHz.wav
4	100	4	4	2	I	1	0	379	1	poli_8sides 1_whiteLine3.jpg	MediumShort_e16_cut1_stereo_44KHz.wav
4	101	3	4	2	I	1	0	666	1	poli_8sides 9_whiteLine3.jpg	MediumShort_e16_cut1_stereo_44KHz.wav
4	102	1	1	1	C	2	1	564	1	poli_8sides 12_whiteLine3.jpg	MediumShort_b10_cut1_MS_stereo_44KHz.wav
4	103	2	1	0	C	2	0	344	0	poli_8sides 13_whiteLine3.jpg	MediumShort_b10_cut1_MS_stereo_44KHz.wav
4	104	4	3	2	I	2	0	664	1	poli_8sides 1_whiteLine3.jpg	MediumShort_b16_cut3_MS_stereo_44KHz.wav
4	105	2	1	0	C	1	1	728	1	poli_8sides 13_whiteLine3.jpg	MediumShort_b10_cut1_MS_stereo_44KHz.wav
4	106	4	3	2	I	1	0	391	0	poli_8sides 1_whiteLine3.jpg	MediumShort_b16_cut3_MS_stereo_44KHz.wav
4	107	3	3	2	I	2	0	296	0	poli_8sides 9_whiteLine3.jpg	MediumShort_b16_cut3_MS_stereo_44KHz.wav
4	108	1	2	0	C	1	1	480	1	poli_8sides 12_whiteLine3.jpg	MediumShort_e22_cut1_stereo_44KHz.wav
4	109	2	2	1	C	1	0	502	0	poli_8sides 13_whiteLine3.jpg	MediumShort_e22_cut1_stereo_44KHz.wav
4	110	4	4	2	I	1	0	436	1	poli_8sides 1_whiteLine3.jpg	MediumShort_e16_cut1_stereo_44KHz.wav
4	111	1	1	1	C	1	0	463	0	poli_8sides 12_whiteLine3.jpg	MediumShort_b10_cut1_MS_stereo_44KHz.wav
4	112	3	4	2	I	1	0	528	0	poli_8sides 9_whiteLine3.jpg	MediumShort_e16_cut1_stereo_44KHz.wav
4	113	2	2	1	C	2	1	379	1	poli_8sides 13_whiteLine3.jpg	MediumShort_e22_cut1_stereo_44KHz.wav
4	114	4	3	2	I	2	0	410	1	poli_8sides 1_whiteLine3.jpg	MediumShort_b16_cut3_MS_stereo_44KHz.wav
4	115	3	3	2	I	1	0	446	1	poli_8sides 9_whiteLine3.jpg	MediumShort_b16_cut3_MS_stereo_44KHz.wav
4	116	1	2	0	C	1	1	380	1	poli_8sides 12_whiteLine3.jpg	MediumShort_e22_cut1_stereo_44KHz.wav
4	117	2	1	0	C	2	0	345	0	poli_8sides 13_whiteLine3.jpg	MediumShort_b10_cut1_MS_stereo_44KHz.wav
4	118	1	1	1	C	1	0	332	0	poli_8sides 12_whiteLine3.jpg	MediumShort_b10_cut1_MS_stereo_44KHz.wav
4	119	3	4	2	I	1	0	264	1	poli_8sides 9_whiteLine3.jpg	MediumShort_e16_cut1_stereo_44KHz.wav
4	120	4	4	2	I	1	0	391	1	poli_8sides 1_whiteLine3.jpg	MediumShort_e16_cut1_stereo_44KHz.wav
4	121	3	4	2	I	2	0	351	1	poli_8sides 9_whiteLine3.jpg	MediumShort_e16_cut1_stereo_44KHz.wav
4	122	2	2	1	C	1	0	300	0	poli_8sides 13_whiteLine3.jpg	MediumShort_e22_cut1_stereo_44KHz.wav
4	123	4	3	2	I	2	0	291	1	poli_8sides 1_whiteLine3.jpg	MediumShort_b16_cut3_MS_stereo_44KHz.wav
4	124	1	2	0	C	2	0	646	0	poli_8sides 12_whiteLine3.jpg	MediumShort_e22_cut1_stereo_44KHz.wav
4	125	2	1	0	C	1	1	896	1	poli_8sides 13_whiteLine3.jpg	MediumShort_b10_cut1_MS_stereo_44KHz.wav
4	126	4	4	2	I	1	0	403	0	poli_8sides 1_whiteLine3.jpg	MediumShort_e16_cut1_stereo_44KHz.wav
4	127	1	1	1	C	1	0	358	0	poli_8sides 12_whiteLine3.jpg	MediumShort_b10_cut1_MS_stereo_44KHz.wav
4	128	3	3	2	I	2	0	390	0	poli_8sides 9_whiteLine3.jpg	MediumShort_b16_cut3_MS_stereo_44KHz.wav
4	129	4	3	2	I	1	0	8	0	poli_8sides 1_whiteLine3.jpg	MediumShort_b16_cut3_MS_stereo_44KHz.wav
4	130	2	2	1	C	1	0	315	0	poli_8sides 13_whiteLine3.jpg	MediumShort_e22_cut1_stereo_44KHz.wav
4	131	3	4	2	I	2	0	541	0	poli_8sides 9_whiteLine3.jpg	MediumShort_e16_cut1_stereo_44KHz.wav
4	132	1	1	1	C	1	0	303	0	poli_8sides 12_whiteLine3.jpg	MediumShort_b10_cut1_MS_stereo_44KHz.wav
4	133	4	4	2	I	1	0	407	0	poli_8sides 1_whiteLine3.jpg	MediumShort_e16_cut1_stereo_44KHz.wav
4	134	3	3	2	I	2	0	332	0	poli_8sides 9_whiteLine3.jpg	MediumShort_b16_cut3_MS_stereo_44KHz.wav
4	135	1	2	0	C	1	1	478	1	poli_8sides 12_whiteLine3.jpg	MediumShort_e22_cut1_stereo_44KHz.wav
4	136	2	1	0	C	1	1	397	1	poli_8sides 13_whiteLine3.jpg	MediumShort_b10_cut1_MS_stereo_44KHz.wav
4	137	4	3	2	I	1	0	419	0	poli_8sides 1_whiteLine3.jpg	MediumShort_b16_cut3_MS_stereo_44KHz.wav
4	138	2	2	1	C	1	0	390	0	poli_8sides 13_whiteLine3.jpg	MediumShort_e22_cut1_stereo_44KHz.wav
4	139	1	2	0	C	1	1	389	1	poli_8sides 12_whiteLine3.jpg	MediumShort_e22_cut1_stereo_44KHz.wav
4	140	3	4	2	I	2	0	509	0	poli_8sides 9_whiteLine3.jpg	MediumShort_e16_cut1_stereo_44KHz.wav
4	141	1	1	1	C	1	0	553	0	poli_8sides 12_whiteLine3.jpg	MediumShort_b10_cut1_MS_stereo_44KHz.wav
4	142	2	1	0	C	1	1	350	1	poli_8sides 13_whiteLine3.jpg	MediumShort_b10_cut1_MS_stereo_44KHz.wav
4	143	4	4	2	I	1	0	772	0	poli_8sides 1_whiteLine3.jpg	MediumShort_e16_cut1_stereo_44KHz.wav
4	144	3	3	2	I	2	0	347	0	poli_8sides 9_whiteLine3.jpg	MediumShort_b16_cut3_MS_stereo_44KHz.wav
4	145	4	4	2	I	2	0	481	0	poli_8sides 1_whiteLine3.jpg	MediumShort_e16_cut1_stereo_44KHz.wav
4	146	3	3	2	I	1	0	458	1	poli_8sides 9_whiteLine3.jpg	MediumShort_b16_cut3_MS_stereo_44KHz.wav
4	147	2	1	0	C	1	1	432	1	poli_8sides 13_whiteLine3.jpg	MediumShort_b10_cut1_MS_stereo_44KHz.wav
4	148	1	1	1	C	2	1	608	1	poli_8sides 12_whiteLine3.jpg	MediumShort_b10_cut1_MS_stereo_44KHz.wav
4	149	2	2	1	C	1	0	524	0	poli_8sides 13_whiteLine3.jpg	MediumShort_e22_cut1_stereo_44KHz.wav
4	150	4	3	2	I	1	0	469	1	poli_8sides 1_whiteLine3.jpg	MediumShort_b16_cut3_MS_stereo_44KHz.wav
4	151	3	4	2	I	2	0	1740	0	poli_8sides 9_whiteLine3.jpg	MediumShort_e16_cut1_stereo_44KHz.wav
4	152	1	2	0	C	1	1	315	1	poli_8sides 12_whiteLine3.jpg	MediumShort_e22_cut1_stereo_44KHz.wav
4	153	2	1	0	C	1	1	345	1	poli_8sides 13_whiteLine3.jpg	MediumShort_b10_cut1_MS_stereo_44KHz.wav
4	154	3	3	2	I	2	0	401	1	poli_8sides 9_whiteLine3.jpg	MediumShort_b16_cut3_MS_stereo_44KHz.wav
4	155	4	3	2	I	1	0	376	1	poli_8sides 1_whiteLine3.jpg	MediumShort_b16_cut3_MS_stereo_44KHz.wav
4	156	1	2	0	C	2	0	294	0	poli_8sides 12_whiteLine3.jpg	MediumShort_e22_cut1_stereo_44KHz.wav
4	157	4	4	2	I	1	0	337	0	poli_8sides 1_whiteLine3.jpg	MediumShort_e16_cut1_stereo_44KHz.wav
4	158	2	2	1	C	2	1	448	1	poli_8sides 13_whiteLine3.jpg	MediumShort_e22_cut1_stereo_44KHz.wav
4	159	1	1	1	C	1	0	377	0	poli_8sides 12_whiteLine3.jpg	MediumShort_b10_cut1_MS_stereo_44KHz.wav
4	160	3	4	2	I	1	0	627	0	poli_8sides 9_whiteLine3.jpg	MediumShort_e16_cut1_stereo_44KHz.wav
4	161	4	3	2	I	1	0	544	0	poli_8sides 1_whiteLine3.jpg	MediumShort_b16_cut3_MS_stereo_44KHz.wav
4	162	3	3	2	I	1	0	289	0	poli_8sides 9_whiteLine3.jpg	MediumShort_b16_cut3_MS_stereo_44KHz.wav
4	163	1	1	1	C	2	1	721	1	poli_8sides 12_whiteLine3.jpg	MediumShort_b10_cut1_MS_stereo_44KHz.wav
4	164	2	2	1	C	1	0	485	0	poli_8sides 13_whiteLine3.jpg	MediumShort_e22_cut1_stereo_44KHz.wav
4	165	4	4	2	I	1	0	444	1	poli_8sides 1_whiteLine3.jpg	MediumShort_e16_cut1_stereo_44KHz.wav
4	166	1	2	0	C	1	1	732	1	poli_8sides 12_whiteLine3.jpg	MediumShort_e22_cut1_stereo_44KHz.wav
4	167	2	1	0	C	1	1	463	1	poli_8sides 13_whiteLine3.jpg	MediumShort_b10_cut1_MS_stereo_44KHz.wav
4	168	3	4	2	I	2	0	341	1	poli_8sides 9_whiteLine3.jpg	MediumShort_e16_cut1_stereo_44KHz.wav
4	169	1	1	1	C	1	0	661	0	poli_8sides 12_whiteLine3.jpg	MediumShort_b10_cut1_MS_stereo_44KHz.wav
4	170	2	2	1	C	2	1	425	1	poli_8sides 13_whiteLine3.jpg	MediumShort_e22_cut1_stereo_44KHz.wav
4	171	3	3	2	I	2	0	303	1	poli_8sides 9_whiteLine3.jpg	MediumShort_b16_cut3_MS_stereo_44KHz.wav
4	172	4	3	2	I	1	0	498	0	poli_8sides 1_whiteLine3.jpg	MediumShort_b16_cut3_MS_stereo_44KHz.wav
4	173	3	4	2	I	1	0	340	1	poli_8sides 9_whiteLine3.jpg	MediumShort_e16_cut1_stereo_44KHz.wav
4	174	4	4	2	I	1	0	635	0	poli_8sides 1_whiteLine3.jpg	MediumShort_e16_cut1_stereo_44KHz.wav
4	175	2	1	0	C	2	0	402	0	poli_8sides 13_whiteLine3.jpg	MediumShort_b10_cut1_MS_stereo_44KHz.wav
4	176	1	2	0	C	1	1	362	1	poli_8sides 12_whiteLine3.jpg	MediumShort_e22_cut1_stereo_44KHz.wav
4	177	4	4	2	I	1	0	449	0	poli_8sides 1_whiteLine3.jpg	MediumShort_e16_cut1_stereo_44KHz.wav
4	178	2	2	1	C	2	1	454	1	poli_8sides 13_whiteLine3.jpg	MediumShort_e22_cut1_stereo_44KHz.wav
4	179	3	3	2	I	2	0	488	1	poli_8sides 9_whiteLine3.jpg	MediumShort_b16_cut3_MS_stereo_44KHz.wav
4	180	1	2	0	C	1	1	445	1	poli_8sides 12_whiteLine3.jpg	MediumShort_e22_cut1_stereo_44KHz.wav
4	181	3	4	2	I	1	0	883	0	poli_8sides 9_whiteLine3.jpg	MediumShort_e16_cut1_stereo_44KHz.wav
4	182	2	1	0	C	1	1	681	1	poli_8sides 13_whiteLine3.jpg	MediumShort_b10_cut1_MS_stereo_44KHz.wav
4	183	1	1	1	C	1	0	528	0	poli_8sides 12_whiteLine3.jpg	MediumShort_b10_cut1_MS_stereo_44KHz.wav
4	184	4	3	2	I	2	0	443	0	poli_8sides 1_whiteLine3.jpg	MediumShort_b16_cut3_MS_stereo_44KHz.wav
4	185	3	3	2	I	1	0	611	1	poli_8sides 9_whiteLine3.jpg	MediumShort_b16_cut3_MS_stereo_44KHz.wav
4	186	1	2	0	C	1	1	546	1	poli_8sides 12_whiteLine3.jpg	MediumShort_e22_cut1_stereo_44KHz.wav
4	187	2	1	0	C	1	1	712	1	poli_8sides 13_whiteLine3.jpg	MediumShort_b10_cut1_MS_stereo_44KHz.wav
4	188	4	3	2	I	1	0	396	0	poli_8sides 1_whiteLine3.jpg	MediumShort_b16_cut3_MS_stereo_44KHz.wav
4	189	3	4	2	I	2	0	495	1	poli_8sides 9_whiteLine3.jpg	MediumShort_e16_cut1_stereo_44KHz.wav
4	190	1	1	1	C	1	0	586	0	poli_8sides 12_whiteLine3.jpg	MediumShort_b10_cut1_MS_stereo_44KHz.wav
4	191	4	4	2	I	2	0	299	1	poli_8sides 1_whiteLine3.jpg	MediumShort_e16_cut1_stereo_44KHz.wav
4	192	2	2	1	C	1	0	381	0	poli_8sides 13_whiteLine3.jpg	MediumShort_e22_cut1_stereo_44KHz.wav
4	193	4	3	2	I	2	0	251	1	poli_8sides 1_whiteLine3.jpg	MediumShort_b16_cut3_MS_stereo_44KHz.wav
4	194	1	2	0	C	2	0	443	0	poli_8sides 12_whiteLine3.jpg	MediumShort_e22_cut1_stereo_44KHz.wav
4	195	3	4	2	I	1	0	534	1	poli_8sides 9_whiteLine3.jpg	MediumShort_e16_cut1_stereo_44KHz.wav
4	196	2	2	1	C	1	0	601	0	poli_8sides 13_whiteLine3.jpg	MediumShort_e22_cut1_stereo_44KHz.wav
4	197	1	1	1	C	2	1	1483	1	poli_8sides 12_whiteLine3.jpg	MediumShort_b10_cut1_MS_stereo_44KHz.wav
4	198	3	3	2	I	2	0	881	1	poli_8sides 9_whiteLine3.jpg	MediumShort_b16_cut3_MS_stereo_44KHz.wav
4	199	2	1	0	C	1	1	509	1	poli_8sides 13_whiteLine3.jpg	MediumShort_b10_cut1_MS_stereo_44KHz.wav
4	200	4	4	2	I	1	0	651	1	poli_8sides 1_whiteLine3.jpg	MediumShort_e16_cut1_stereo_44KHz.wav
