block	trial	Vstim	Astim	match	C/I	resp	result	RT	fb	V-file	A-file
LR

0	1	1	2	0	C	1	1	1569	1	Ⴋ	cut_eeuw_stereo_44KHz.wav
0	2	1	1	1	C	2	1	1068	1	Ⴋ	cut_g_stereo_44KHz.wav
0	3	2	4	0	C	2	0	870	0	Ⴉ	cut_oo_stereo_44KHz.wav
0	4	2	3	1	C	2	1	1239	1	Ⴉ	cut_ee_stereo_44KHz.wav
0	5	2	3	1	C	2	1	657	1	Ⴉ	cut_ee_stereo_44KHz.wav
0	6	1	1	1	C	1	0	938	0	Ⴋ	cut_g_stereo_44KHz.wav
0	7	1	2	0	C	1	1	823	1	Ⴋ	cut_eeuw_stereo_44KHz.wav
0	8	2	4	0	C	1	1	654	1	Ⴉ	cut_oo_stereo_44KHz.wav
0	9	1	2	0	C	1	1	717	1	Ⴋ	cut_eeuw_stereo_44KHz.wav
0	10	2	4	0	C	1	1	569	1	Ⴉ	cut_oo_stereo_44KHz.wav
0	11	1	1	1	C	2	1	873	1	Ⴋ	cut_g_stereo_44KHz.wav
0	12	2	3	1	C	2	1	782	1	Ⴉ	cut_ee_stereo_44KHz.wav
0	13	2	4	0	C	1	1	535	1	Ⴉ	cut_oo_stereo_44KHz.wav
0	14	1	1	1	C	2	1	862	1	Ⴋ	cut_g_stereo_44KHz.wav
0	15	2	3	1	C	2	1	792	1	Ⴉ	cut_ee_stereo_44KHz.wav
0	16	1	2	0	C	1	1	524	1	Ⴋ	cut_eeuw_stereo_44KHz.wav
0	17	2	3	1	C	2	1	768	1	Ⴉ	cut_ee_stereo_44KHz.wav
0	18	2	4	0	C	2	0	768	0	Ⴉ	cut_oo_stereo_44KHz.wav
0	19	1	1	1	C	2	1	1144	1	Ⴋ	cut_g_stereo_44KHz.wav
0	20	1	2	0	C	1	1	494	1	Ⴋ	cut_eeuw_stereo_44KHz.wav
0	21	1	1	1	C	2	1	1046	1	Ⴋ	cut_g_stereo_44KHz.wav
0	22	2	4	0	C	1	1	719	1	Ⴉ	cut_oo_stereo_44KHz.wav
0	23	1	2	0	C	1	1	638	1	Ⴋ	cut_eeuw_stereo_44KHz.wav
0	24	2	3	1	C	2	1	722	1	Ⴉ	cut_ee_stereo_44KHz.wav
0	25	1	2	0	C	2	0	730	0	Ⴋ	cut_eeuw_stereo_44KHz.wav
0	26	2	3	1	C	2	1	858	1	Ⴉ	cut_ee_stereo_44KHz.wav
0	27	1	1	1	C	2	1	757	1	Ⴋ	cut_g_stereo_44KHz.wav
0	28	2	4	0	C	1	1	587	1	Ⴉ	cut_oo_stereo_44KHz.wav
0	29	1	1	1	C	2	1	847	1	Ⴋ	cut_g_stereo_44KHz.wav
0	30	2	3	1	C	2	1	962	1	Ⴉ	cut_ee_stereo_44KHz.wav
avg_resp = 816
1	1	4	4	2	I	2	0	1729	1	Ⴉ	cut_ei_stereo_44KHz.wav
1	2	2	1	0	C	1	1	877	1	Ⴏ	cut_j_stereo_44KHz.wav
1	3	3	4	2	I	2	0	989	1	Ⴌ	cut_ei_stereo_44KHz.wav
1	4	1	2	0	C	1	1	794	1	Ⴕ	cut_r_stereo_44KHz.wav
1	5	2	2	1	C	2	1	719	1	Ⴏ	cut_r_stereo_44KHz.wav
1	6	1	1	1	C	2	1	715	1	Ⴕ	cut_j_stereo_44KHz.wav
1	7	3	3	2	I	1	0	581	1	Ⴌ	cut_oei_stereo_44KHz.wav
1	8	4	3	2	I	2	0	651	0	Ⴉ	cut_oei_stereo_44KHz.wav
1	9	3	3	2	I	1	0	518	0	Ⴌ	cut_oei_stereo_44KHz.wav
1	10	1	2	0	C	1	1	663	1	Ⴕ	cut_r_stereo_44KHz.wav
1	11	4	4	2	I	2	0	622	1	Ⴉ	cut_ei_stereo_44KHz.wav
1	12	2	1	0	C	1	1	553	1	Ⴏ	cut_j_stereo_44KHz.wav
1	13	1	1	1	C	2	1	700	1	Ⴕ	cut_j_stereo_44KHz.wav
1	14	4	3	2	I	1	0	629	1	Ⴉ	cut_oei_stereo_44KHz.wav
1	15	3	4	2	I	2	0	761	0	Ⴌ	cut_ei_stereo_44KHz.wav
1	16	2	2	1	C	2	1	631	1	Ⴏ	cut_r_stereo_44KHz.wav
1	17	3	3	2	I	1	0	553	1	Ⴌ	cut_oei_stereo_44KHz.wav
1	18	2	1	0	C	1	1	516	1	Ⴏ	cut_j_stereo_44KHz.wav
1	19	4	4	2	I	2	0	707	1	Ⴉ	cut_ei_stereo_44KHz.wav
1	20	1	2	0	C	1	1	819	1	Ⴕ	cut_r_stereo_44KHz.wav
1	21	3	4	2	I	2	0	765	1	Ⴌ	cut_ei_stereo_44KHz.wav
1	22	2	2	1	C	2	1	595	1	Ⴏ	cut_r_stereo_44KHz.wav
1	23	4	3	2	I	1	0	543	0	Ⴉ	cut_oei_stereo_44KHz.wav
1	24	1	1	1	C	2	1	640	1	Ⴕ	cut_j_stereo_44KHz.wav
1	25	3	4	2	I	1	0	838	1	Ⴌ	cut_ei_stereo_44KHz.wav
1	26	4	4	2	I	2	0	502	1	Ⴉ	cut_ei_stereo_44KHz.wav
1	27	1	2	0	C	1	1	640	1	Ⴕ	cut_r_stereo_44KHz.wav
1	28	2	1	0	C	1	1	575	1	Ⴏ	cut_j_stereo_44KHz.wav
1	29	3	3	2	I	2	0	512	0	Ⴌ	cut_oei_stereo_44KHz.wav
1	30	4	3	2	I	1	0	769	0	Ⴉ	cut_oei_stereo_44KHz.wav
1	31	2	2	1	C	2	1	670	1	Ⴏ	cut_r_stereo_44KHz.wav
1	32	1	1	1	C	2	1	1032	1	Ⴕ	cut_j_stereo_44KHz.wav
1	33	2	1	0	C	1	1	538	1	Ⴏ	cut_j_stereo_44KHz.wav
1	34	4	3	2	I	2	0	643	1	Ⴉ	cut_oei_stereo_44KHz.wav
1	35	1	2	0	C	1	1	639	1	Ⴕ	cut_r_stereo_44KHz.wav
1	36	3	3	2	I	2	0	544	1	Ⴌ	cut_oei_stereo_44KHz.wav
1	37	1	1	1	C	2	1	716	1	Ⴕ	cut_j_stereo_44KHz.wav
1	38	3	4	2	I	2	0	834	1	Ⴌ	cut_ei_stereo_44KHz.wav
1	39	4	4	2	I	2	0	539	1	Ⴉ	cut_ei_stereo_44KHz.wav
1	40	2	2	1	C	2	1	641	1	Ⴏ	cut_r_stereo_44KHz.wav
1	41	3	4	2	I	1	0	522	0	Ⴌ	cut_ei_stereo_44KHz.wav
1	42	4	4	2	I	2	0	667	0	Ⴉ	cut_ei_stereo_44KHz.wav
1	43	1	1	1	C	2	1	671	1	Ⴕ	cut_j_stereo_44KHz.wav
1	44	2	2	1	C	2	1	607	1	Ⴏ	cut_r_stereo_44KHz.wav
1	45	3	3	2	I	1	0	589	0	Ⴌ	cut_oei_stereo_44KHz.wav
1	46	1	2	0	C	1	1	917	1	Ⴕ	cut_r_stereo_44KHz.wav
1	47	2	1	0	C	1	1	568	1	Ⴏ	cut_j_stereo_44KHz.wav
1	48	4	3	2	I	1	0	634	0	Ⴉ	cut_oei_stereo_44KHz.wav
1	49	2	1	0	C	1	1	578	1	Ⴏ	cut_j_stereo_44KHz.wav
1	50	4	4	2	I	2	0	538	1	Ⴉ	cut_ei_stereo_44KHz.wav
1	51	3	4	2	I	2	0	719	1	Ⴌ	cut_ei_stereo_44KHz.wav
1	52	1	2	0	C	1	1	669	1	Ⴕ	cut_r_stereo_44KHz.wav
1	53	2	2	1	C	2	1	588	1	Ⴏ	cut_r_stereo_44KHz.wav
1	54	4	3	2	I	1	0	677	1	Ⴉ	cut_oei_stereo_44KHz.wav
1	55	3	3	2	I	2	0	514	1	Ⴌ	cut_oei_stereo_44KHz.wav
1	56	1	1	1	C	2	1	694	1	Ⴕ	cut_j_stereo_44KHz.wav
1	57	3	3	2	I	2	0	664	1	Ⴌ	cut_oei_stereo_44KHz.wav
1	58	1	2	0	C	1	1	534	1	Ⴕ	cut_r_stereo_44KHz.wav
1	59	2	1	0	C	1	1	524	1	Ⴏ	cut_j_stereo_44KHz.wav
1	60	4	3	2	I	1	0	604	0	Ⴉ	cut_oei_stereo_44KHz.wav
1	61	1	1	1	C	2	1	679	1	Ⴕ	cut_j_stereo_44KHz.wav
1	62	3	4	2	I	1	0	865	1	Ⴌ	cut_ei_stereo_44KHz.wav
1	63	2	2	1	C	2	1	570	1	Ⴏ	cut_r_stereo_44KHz.wav
1	64	4	4	2	I	2	0	646	0	Ⴉ	cut_ei_stereo_44KHz.wav
1	65	1	1	1	C	1	0	703	0	Ⴕ	cut_j_stereo_44KHz.wav
1	66	2	1	0	C	1	1	1296	1	Ⴏ	cut_j_stereo_44KHz.wav
1	67	4	3	2	I	2	0	739	0	Ⴉ	cut_oei_stereo_44KHz.wav
1	68	3	3	2	I	1	0	597	0	Ⴌ	cut_oei_stereo_44KHz.wav
1	69	1	2	0	C	1	1	679	1	Ⴕ	cut_r_stereo_44KHz.wav
1	70	4	4	2	I	2	0	589	0	Ⴉ	cut_ei_stereo_44KHz.wav
1	71	2	2	1	C	1	0	485	0	Ⴏ	cut_r_stereo_44KHz.wav
1	72	3	4	2	I	2	0	662	0	Ⴌ	cut_ei_stereo_44KHz.wav
1	73	1	1	1	C	2	1	1174	1	Ⴕ	cut_j_stereo_44KHz.wav
1	74	2	1	0	C	1	1	540	1	Ⴏ	cut_j_stereo_44KHz.wav
1	75	4	4	2	I	2	0	652	1	Ⴉ	cut_ei_stereo_44KHz.wav
1	76	3	4	2	I	1	0	655	0	Ⴌ	cut_ei_stereo_44KHz.wav
1	77	1	2	0	C	1	1	583	1	Ⴕ	cut_r_stereo_44KHz.wav
1	78	3	3	2	I	2	0	691	0	Ⴌ	cut_oei_stereo_44KHz.wav
1	79	4	3	2	I	2	0	719	1	Ⴉ	cut_oei_stereo_44KHz.wav
1	80	2	2	1	C	1	0	472	0	Ⴏ	cut_r_stereo_44KHz.wav
1	81	3	4	2	I	2	0	858	1	Ⴌ	cut_ei_stereo_44KHz.wav
1	82	1	2	0	C	1	1	682	1	Ⴕ	cut_r_stereo_44KHz.wav
1	83	4	4	2	I	2	0	747	1	Ⴉ	cut_ei_stereo_44KHz.wav
1	84	2	1	0	C	1	1	654	1	Ⴏ	cut_j_stereo_44KHz.wav
1	85	3	3	2	I	1	0	695	0	Ⴌ	cut_oei_stereo_44KHz.wav
1	86	2	2	1	C	2	1	664	1	Ⴏ	cut_r_stereo_44KHz.wav
1	87	4	3	2	I	1	0	909	1	Ⴉ	cut_oei_stereo_44KHz.wav
1	88	1	1	1	C	2	1	719	1	Ⴕ	cut_j_stereo_44KHz.wav
1	89	4	3	2	I	2	0	645	0	Ⴉ	cut_oei_stereo_44KHz.wav
1	90	1	2	0	C	1	1	573	1	Ⴕ	cut_r_stereo_44KHz.wav
1	91	3	4	2	I	1	0	847	1	Ⴌ	cut_ei_stereo_44KHz.wav
1	92	2	1	0	C	1	1	579	1	Ⴏ	cut_j_stereo_44KHz.wav
1	93	4	4	2	I	2	0	587	0	Ⴉ	cut_ei_stereo_44KHz.wav
1	94	2	2	1	C	2	1	671	1	Ⴏ	cut_r_stereo_44KHz.wav
1	95	1	1	1	C	1	0	805	0	Ⴕ	cut_j_stereo_44KHz.wav
1	96	3	3	2	I	1	0	863	1	Ⴌ	cut_oei_stereo_44KHz.wav
1	97	1	1	1	C	2	1	705	1	Ⴕ	cut_j_stereo_44KHz.wav
1	98	4	4	2	I	1	0	819	0	Ⴉ	cut_ei_stereo_44KHz.wav
1	99	2	1	0	C	1	1	477	1	Ⴏ	cut_j_stereo_44KHz.wav
1	100	3	3	2	I	2	0	1030	0	Ⴌ	cut_oei_stereo_44KHz.wav
1	101	4	3	2	I	2	0	742	0	Ⴉ	cut_oei_stereo_44KHz.wav
1	102	2	2	1	C	2	1	1437	1	Ⴏ	cut_r_stereo_44KHz.wav
1	103	1	2	0	C	1	1	630	1	Ⴕ	cut_r_stereo_44KHz.wav
1	104	3	4	2	I	2	0	702	0	Ⴌ	cut_ei_stereo_44KHz.wav
1	105	1	1	1	C	1	0	541	0	Ⴕ	cut_j_stereo_44KHz.wav
1	106	4	3	2	I	1	0	618	0	Ⴉ	cut_oei_stereo_44KHz.wav
1	107	3	4	2	I	1	0	802	1	Ⴌ	cut_ei_stereo_44KHz.wav
1	108	2	2	1	C	2	1	680	1	Ⴏ	cut_r_stereo_44KHz.wav
1	109	4	4	2	I	2	0	699	0	Ⴉ	cut_ei_stereo_44KHz.wav
1	110	1	2	0	C	1	1	568	1	Ⴕ	cut_r_stereo_44KHz.wav
1	111	3	3	2	I	2	0	582	0	Ⴌ	cut_oei_stereo_44KHz.wav
1	112	2	1	0	C	1	1	464	1	Ⴏ	cut_j_stereo_44KHz.wav
1	113	4	3	2	I	2	0	606	0	Ⴉ	cut_oei_stereo_44KHz.wav
1	114	3	3	2	I	1	0	527	0	Ⴌ	cut_oei_stereo_44KHz.wav
1	115	1	1	1	C	1	0	1044	0	Ⴕ	cut_j_stereo_44KHz.wav
1	116	2	1	0	C	1	1	539	1	Ⴏ	cut_j_stereo_44KHz.wav
1	117	4	4	2	I	2	0	1132	0	Ⴉ	cut_ei_stereo_44KHz.wav
1	118	3	4	2	I	2	0	611	0	Ⴌ	cut_ei_stereo_44KHz.wav
1	119	1	2	0	C	1	1	806	1	Ⴕ	cut_r_stereo_44KHz.wav
1	120	2	2	1	C	2	1	571	1	Ⴏ	cut_r_stereo_44KHz.wav
1	121	3	3	2	I	2	0	670	0	Ⴌ	cut_oei_stereo_44KHz.wav
1	122	4	4	2	I	1	0	709	0	Ⴉ	cut_ei_stereo_44KHz.wav
1	123	2	1	0	C	1	1	666	1	Ⴏ	cut_j_stereo_44KHz.wav
1	124	1	1	1	C	2	1	612	1	Ⴕ	cut_j_stereo_44KHz.wav
1	125	3	4	2	I	2	0	906	1	Ⴌ	cut_ei_stereo_44KHz.wav
1	126	2	2	1	C	2	1	638	1	Ⴏ	cut_r_stereo_44KHz.wav
1	127	4	3	2	I	1	0	655	0	Ⴉ	cut_oei_stereo_44KHz.wav
1	128	1	2	0	C	1	1	746	1	Ⴕ	cut_r_stereo_44KHz.wav
1	129	2	2	1	C	2	1	518	1	Ⴏ	cut_r_stereo_44KHz.wav
1	130	3	4	2	I	2	0	792	1	Ⴌ	cut_ei_stereo_44KHz.wav
1	131	4	3	2	I	2	0	776	0	Ⴉ	cut_oei_stereo_44KHz.wav
1	132	1	2	0	C	1	1	623	1	Ⴕ	cut_r_stereo_44KHz.wav
1	133	3	3	2	I	2	0	542	0	Ⴌ	cut_oei_stereo_44KHz.wav
1	134	1	1	1	C	1	0	647	0	Ⴕ	cut_j_stereo_44KHz.wav
1	135	2	1	0	C	1	1	499	1	Ⴏ	cut_j_stereo_44KHz.wav
1	136	4	4	2	I	1	0	747	1	Ⴉ	cut_ei_stereo_44KHz.wav
1	137	1	2	0	C	1	1	640	1	Ⴕ	cut_r_stereo_44KHz.wav
1	138	2	1	0	C	1	1	591	1	Ⴏ	cut_j_stereo_44KHz.wav
1	139	3	4	2	I	2	0	848	1	Ⴌ	cut_ei_stereo_44KHz.wav
1	140	4	4	2	I	1	0	790	0	Ⴉ	cut_ei_stereo_44KHz.wav
1	141	3	3	2	I	1	0	676	1	Ⴌ	cut_oei_stereo_44KHz.wav
1	142	2	2	1	C	2	1	620	1	Ⴏ	cut_r_stereo_44KHz.wav
1	143	4	3	2	I	1	0	598	1	Ⴉ	cut_oei_stereo_44KHz.wav
1	144	1	1	1	C	2	1	794	1	Ⴕ	cut_j_stereo_44KHz.wav
1	145	4	3	2	I	1	0	608	0	Ⴉ	cut_oei_stereo_44KHz.wav
1	146	2	1	0	C	1	1	579	1	Ⴏ	cut_j_stereo_44KHz.wav
1	147	3	4	2	I	1	0	646	0	Ⴌ	cut_ei_stereo_44KHz.wav
1	148	1	1	1	C	2	1	699	1	Ⴕ	cut_j_stereo_44KHz.wav
1	149	3	3	2	I	1	0	647	0	Ⴌ	cut_oei_stereo_44KHz.wav
1	150	1	2	0	C	1	1	745	1	Ⴕ	cut_r_stereo_44KHz.wav
1	151	4	4	2	I	1	0	624	0	Ⴉ	cut_ei_stereo_44KHz.wav
1	152	2	2	1	C	1	0	558	0	Ⴏ	cut_r_stereo_44KHz.wav
1	153	4	3	2	I	1	0	629	1	Ⴉ	cut_oei_stereo_44KHz.wav
1	154	1	2	0	C	1	1	566	1	Ⴕ	cut_r_stereo_44KHz.wav
1	155	3	3	2	I	1	0	559	1	Ⴌ	cut_oei_stereo_44KHz.wav
1	156	2	1	0	C	1	1	652	1	Ⴏ	cut_j_stereo_44KHz.wav
1	157	4	4	2	I	2	0	563	1	Ⴉ	cut_ei_stereo_44KHz.wav
1	158	1	1	1	C	2	1	810	1	Ⴕ	cut_j_stereo_44KHz.wav
1	159	3	4	2	I	2	0	713	1	Ⴌ	cut_ei_stereo_44KHz.wav
1	160	2	2	1	C	1	0	515	0	Ⴏ	cut_r_stereo_44KHz.wav
1	161	3	3	2	I	2	0	756	1	Ⴌ	cut_oei_stereo_44KHz.wav
1	162	2	1	0	C	1	1	503	1	Ⴏ	cut_j_stereo_44KHz.wav
1	163	4	4	2	I	2	0	976	1	Ⴉ	cut_ei_stereo_44KHz.wav
1	164	1	2	0	C	1	1	523	1	Ⴕ	cut_r_stereo_44KHz.wav
1	165	2	2	1	C	2	1	524	1	Ⴏ	cut_r_stereo_44KHz.wav
1	166	1	1	1	C	2	1	590	1	Ⴕ	cut_j_stereo_44KHz.wav
1	167	4	3	2	I	1	0	666	1	Ⴉ	cut_oei_stereo_44KHz.wav
1	168	3	4	2	I	1	0	563	0	Ⴌ	cut_ei_stereo_44KHz.wav
1	169	2	1	0	C	1	1	553	1	Ⴏ	cut_j_stereo_44KHz.wav
1	170	1	2	0	C	1	1	501	1	Ⴕ	cut_r_stereo_44KHz.wav
1	171	4	4	2	I	2	0	575	1	Ⴉ	cut_ei_stereo_44KHz.wav
1	172	3	3	2	I	1	0	660	0	Ⴌ	cut_oei_stereo_44KHz.wav
1	173	2	2	1	C	1	0	507	0	Ⴏ	cut_r_stereo_44KHz.wav
1	174	3	4	2	I	2	0	598	1	Ⴌ	cut_ei_stereo_44KHz.wav
1	175	4	3	2	I	1	0	575	1	Ⴉ	cut_oei_stereo_44KHz.wav
1	176	1	1	1	C	2	1	639	1	Ⴕ	cut_j_stereo_44KHz.wav
1	177	2	2	1	C	2	1	637	1	Ⴏ	cut_r_stereo_44KHz.wav
1	178	1	2	0	C	1	1	582	1	Ⴕ	cut_r_stereo_44KHz.wav
1	179	3	3	2	I	2	0	686	0	Ⴌ	cut_oei_stereo_44KHz.wav
1	180	4	4	2	I	2	0	537	0	Ⴉ	cut_ei_stereo_44KHz.wav
1	181	3	4	2	I	1	0	550	1	Ⴌ	cut_ei_stereo_44KHz.wav
1	182	2	1	0	C	1	1	551	1	Ⴏ	cut_j_stereo_44KHz.wav
1	183	4	3	2	I	1	0	791	1	Ⴉ	cut_oei_stereo_44KHz.wav
1	184	1	1	1	C	1	0	541	0	Ⴕ	cut_j_stereo_44KHz.wav
1	185	3	3	2	I	1	0	616	0	Ⴌ	cut_oei_stereo_44KHz.wav
1	186	1	2	0	C	1	1	579	1	Ⴕ	cut_r_stereo_44KHz.wav
1	187	4	3	2	I	1	0	625	0	Ⴉ	cut_oei_stereo_44KHz.wav
1	188	2	2	1	C	1	0	702	0	Ⴏ	cut_r_stereo_44KHz.wav
1	189	4	4	2	I	1	0	844	1	Ⴉ	cut_ei_stereo_44KHz.wav
1	190	2	1	0	C	1	1	549	1	Ⴏ	cut_j_stereo_44KHz.wav
1	191	3	4	2	I	2	0	623	0	Ⴌ	cut_ei_stereo_44KHz.wav
1	192	1	1	1	C	2	1	732	1	Ⴕ	cut_j_stereo_44KHz.wav
1	193	3	4	2	I	2	0	646	0	Ⴌ	cut_ei_stereo_44KHz.wav
1	194	1	1	1	C	1	0	662	0	Ⴕ	cut_j_stereo_44KHz.wav
1	195	2	1	0	C	1	1	446	1	Ⴏ	cut_j_stereo_44KHz.wav
1	196	4	3	2	I	1	0	629	1	Ⴉ	cut_oei_stereo_44KHz.wav
1	197	3	3	2	I	2	0	606	1	Ⴌ	cut_oei_stereo_44KHz.wav
1	198	2	2	1	C	2	1	619	1	Ⴏ	cut_r_stereo_44KHz.wav
1	199	4	4	2	I	2	0	674	1	Ⴉ	cut_ei_stereo_44KHz.wav
1	200	1	2	0	C	2	0	778	0	Ⴕ	cut_r_stereo_44KHz.wav
2	1	2	2	1	C	0	0	0	0	Ⴁ	cut_f_stereo_44KHz.wav
2	2	3	4	2	I	1	0	682	0	Ⴡ	cut_n_stereo_44KHz.wav
2	3	4	4	2	I	2	0	514	0	Ⴂ	cut_n_stereo_44KHz.wav
2	4	1	2	0	C	1	1	509	1	Ⴃ	cut_f_stereo_44KHz.wav
2	5	4	3	2	I	2	0	814	1	Ⴂ	cut_ui_stereo_44KHz.wav
2	6	1	1	1	C	1	0	756	0	Ⴃ	cut_s_stereo_44KHz.wav
2	7	2	1	0	C	1	1	617	1	Ⴁ	cut_s_stereo_44KHz.wav
2	8	3	3	2	I	2	0	507	0	Ⴡ	cut_ui_stereo_44KHz.wav
2	9	2	1	0	C	2	0	891	0	Ⴁ	cut_s_stereo_44KHz.wav
2	10	3	3	2	I	2	0	486	0	Ⴡ	cut_ui_stereo_44KHz.wav
2	11	1	2	0	C	1	1	648	1	Ⴃ	cut_f_stereo_44KHz.wav
2	12	4	3	2	I	2	0	667	1	Ⴂ	cut_ui_stereo_44KHz.wav
2	13	2	2	1	C	1	0	510	0	Ⴁ	cut_f_stereo_44KHz.wav
2	14	4	4	2	I	1	0	606	0	Ⴂ	cut_n_stereo_44KHz.wav
2	15	1	1	1	C	1	0	476	0	Ⴃ	cut_s_stereo_44KHz.wav
2	16	3	4	2	I	1	0	614	0	Ⴡ	cut_n_stereo_44KHz.wav
2	17	4	3	2	I	2	0	954	1	Ⴂ	cut_ui_stereo_44KHz.wav
2	18	2	1	0	C	1	1	752	1	Ⴁ	cut_s_stereo_44KHz.wav
2	19	1	1	1	C	2	1	694	1	Ⴃ	cut_s_stereo_44KHz.wav
2	20	3	3	2	I	1	0	1005	1	Ⴡ	cut_ui_stereo_44KHz.wav
2	21	1	2	0	C	1	1	641	1	Ⴃ	cut_f_stereo_44KHz.wav
2	22	2	2	1	C	2	1	569	1	Ⴁ	cut_f_stereo_44KHz.wav
2	23	3	4	2	I	2	0	805	1	Ⴡ	cut_n_stereo_44KHz.wav
2	24	4	4	2	I	1	0	663	1	Ⴂ	cut_n_stereo_44KHz.wav
2	25	3	3	2	I	2	0	527	1	Ⴡ	cut_ui_stereo_44KHz.wav
2	26	2	1	0	C	1	1	614	1	Ⴁ	cut_s_stereo_44KHz.wav
2	27	1	1	1	C	1	0	644	0	Ⴃ	cut_s_stereo_44KHz.wav
2	28	4	4	2	I	1	0	889	0	Ⴂ	cut_n_stereo_44KHz.wav
2	29	3	4	2	I	1	0	625	1	Ⴡ	cut_n_stereo_44KHz.wav
2	30	4	3	2	I	1	0	706	0	Ⴂ	cut_ui_stereo_44KHz.wav
2	31	1	2	0	C	1	1	1304	1	Ⴃ	cut_f_stereo_44KHz.wav
2	32	2	2	1	C	2	1	758	1	Ⴁ	cut_f_stereo_44KHz.wav
2	33	3	3	2	I	1	0	740	0	Ⴡ	cut_ui_stereo_44KHz.wav
2	34	4	3	2	I	1	0	624	1	Ⴂ	cut_ui_stereo_44KHz.wav
2	35	2	1	0	C	2	0	597	0	Ⴁ	cut_s_stereo_44KHz.wav
2	36	1	1	1	C	1	0	759	0	Ⴃ	cut_s_stereo_44KHz.wav
2	37	4	4	2	I	2	0	816	0	Ⴂ	cut_n_stereo_44KHz.wav
2	38	2	2	1	C	1	0	749	0	Ⴁ	cut_f_stereo_44KHz.wav
2	39	1	2	0	C	1	1	518	1	Ⴃ	cut_f_stereo_44KHz.wav
2	40	3	4	2	I	1	0	628	0	Ⴡ	cut_n_stereo_44KHz.wav
2	41	4	4	2	I	1	0	443	1	Ⴂ	cut_n_stereo_44KHz.wav
2	42	1	1	1	C	1	0	690	0	Ⴃ	cut_s_stereo_44KHz.wav
2	43	3	3	2	I	1	0	593	0	Ⴡ	cut_ui_stereo_44KHz.wav
2	44	2	2	1	C	1	0	679	0	Ⴁ	cut_f_stereo_44KHz.wav
2	45	1	2	0	C	1	1	506	1	Ⴃ	cut_f_stereo_44KHz.wav
2	46	3	4	2	I	2	0	686	1	Ⴡ	cut_n_stereo_44KHz.wav
2	47	4	3	2	I	1	0	838	1	Ⴂ	cut_ui_stereo_44KHz.wav
2	48	2	1	0	C	1	1	799	1	Ⴁ	cut_s_stereo_44KHz.wav
2	49	3	4	2	I	1	0	561	0	Ⴡ	cut_n_stereo_44KHz.wav
2	50	4	3	2	I	2	0	597	1	Ⴂ	cut_ui_stereo_44KHz.wav
2	51	2	1	0	C	1	1	615	1	Ⴁ	cut_s_stereo_44KHz.wav
2	52	1	1	1	C	1	0	538	0	Ⴃ	cut_s_stereo_44KHz.wav
2	53	4	4	2	I	2	0	607	0	Ⴂ	cut_n_stereo_44KHz.wav
2	54	2	2	1	C	1	0	525	0	Ⴁ	cut_f_stereo_44KHz.wav
2	55	3	3	2	I	1	0	590	1	Ⴡ	cut_ui_stereo_44KHz.wav
2	56	1	2	0	C	1	1	663	1	Ⴃ	cut_f_stereo_44KHz.wav
2	57	2	1	0	C	1	1	623	1	Ⴁ	cut_s_stereo_44KHz.wav
2	58	1	1	1	C	2	1	593	1	Ⴃ	cut_s_stereo_44KHz.wav
2	59	3	4	2	I	1	0	686	1	Ⴡ	cut_n_stereo_44KHz.wav
2	60	4	3	2	I	1	0	617	0	Ⴂ	cut_ui_stereo_44KHz.wav
2	61	1	2	0	C	1	1	726	1	Ⴃ	cut_f_stereo_44KHz.wav
2	62	3	3	2	I	1	0	446	1	Ⴡ	cut_ui_stereo_44KHz.wav
2	63	2	2	1	C	1	0	752	0	Ⴁ	cut_f_stereo_44KHz.wav
2	64	4	4	2	I	1	0	431	1	Ⴂ	cut_n_stereo_44KHz.wav
2	65	1	1	1	C	1	0	660	0	Ⴃ	cut_s_stereo_44KHz.wav
2	66	2	1	0	C	1	1	608	1	Ⴁ	cut_s_stereo_44KHz.wav
2	67	4	3	2	I	1	0	733	0	Ⴂ	cut_ui_stereo_44KHz.wav
2	68	3	3	2	I	1	0	518	1	Ⴡ	cut_ui_stereo_44KHz.wav
2	69	1	2	0	C	1	1	596	1	Ⴃ	cut_f_stereo_44KHz.wav
2	70	2	2	1	C	2	1	710	1	Ⴁ	cut_f_stereo_44KHz.wav
2	71	3	4	2	I	2	0	891	1	Ⴡ	cut_n_stereo_44KHz.wav
2	72	4	4	2	I	1	0	1040	1	Ⴂ	cut_n_stereo_44KHz.wav
2	73	1	2	0	C	1	1	812	1	Ⴃ	cut_f_stereo_44KHz.wav
2	74	3	3	2	I	2	0	558	1	Ⴡ	cut_ui_stereo_44KHz.wav
2	75	2	1	0	C	1	1	722	1	Ⴁ	cut_s_stereo_44KHz.wav
2	76	4	4	2	I	2	0	655	1	Ⴂ	cut_n_stereo_44KHz.wav
2	77	3	4	2	I	1	0	473	0	Ⴡ	cut_n_stereo_44KHz.wav
2	78	4	3	2	I	1	0	600	0	Ⴂ	cut_ui_stereo_44KHz.wav
2	79	2	2	1	C	1	0	690	0	Ⴁ	cut_f_stereo_44KHz.wav
2	80	1	1	1	C	1	0	537	0	Ⴃ	cut_s_stereo_44KHz.wav
2	81	4	4	2	I	1	0	613	0	Ⴂ	cut_n_stereo_44KHz.wav
2	82	3	3	2	I	1	0	601	0	Ⴡ	cut_ui_stereo_44KHz.wav
2	83	1	2	0	C	1	1	573	1	Ⴃ	cut_f_stereo_44KHz.wav
2	84	2	1	0	C	1	1	533	1	Ⴁ	cut_s_stereo_44KHz.wav
2	85	3	4	2	I	1	0	509	0	Ⴡ	cut_n_stereo_44KHz.wav
2	86	2	2	1	C	1	0	387	0	Ⴁ	cut_f_stereo_44KHz.wav
2	87	4	3	2	I	1	0	437	1	Ⴂ	cut_ui_stereo_44KHz.wav
2	88	1	1	1	C	1	0	745	0	Ⴃ	cut_s_stereo_44KHz.wav
2	89	4	4	2	I	1	0	588	0	Ⴂ	cut_n_stereo_44KHz.wav
2	90	2	1	0	C	1	1	727	1	Ⴁ	cut_s_stereo_44KHz.wav
2	91	1	2	0	C	2	0	579	0	Ⴃ	cut_f_stereo_44KHz.wav
2	92	3	4	2	I	1	0	584	1	Ⴡ	cut_n_stereo_44KHz.wav
2	93	2	2	1	C	1	0	717	0	Ⴁ	cut_f_stereo_44KHz.wav
2	94	4	3	2	I	1	0	459	0	Ⴂ	cut_ui_stereo_44KHz.wav
2	95	3	3	2	I	1	0	518	0	Ⴡ	cut_ui_stereo_44KHz.wav
2	96	1	1	1	C	1	0	609	0	Ⴃ	cut_s_stereo_44KHz.wav
2	97	4	3	2	I	2	0	839	0	Ⴂ	cut_ui_stereo_44KHz.wav
2	98	1	1	1	C	1	0	577	0	Ⴃ	cut_s_stereo_44KHz.wav
2	99	3	4	2	I	1	0	518	0	Ⴡ	cut_n_stereo_44KHz.wav
2	100	2	1	0	C	1	1	391	1	Ⴁ	cut_s_stereo_44KHz.wav
2	101	4	4	2	I	1	0	619	1	Ⴂ	cut_n_stereo_44KHz.wav
2	102	2	2	1	C	1	0	510	0	Ⴁ	cut_f_stereo_44KHz.wav
2	103	3	3	2	I	1	0	428	0	Ⴡ	cut_ui_stereo_44KHz.wav
2	104	1	2	0	C	1	1	521	1	Ⴃ	cut_f_stereo_44KHz.wav
2	105	2	2	1	C	1	0	479	0	Ⴁ	cut_f_stereo_44KHz.wav
2	106	3	4	2	I	2	0	628	1	Ⴡ	cut_n_stereo_44KHz.wav
2	107	1	2	0	C	1	1	681	1	Ⴃ	cut_f_stereo_44KHz.wav
2	108	4	4	2	I	1	0	745	1	Ⴂ	cut_n_stereo_44KHz.wav
2	109	1	1	1	C	1	0	672	0	Ⴃ	cut_s_stereo_44KHz.wav
2	110	4	3	2	I	2	0	715	0	Ⴂ	cut_ui_stereo_44KHz.wav
2	111	3	3	2	I	1	0	356	0	Ⴡ	cut_ui_stereo_44KHz.wav
2	112	2	1	0	C	1	1	503	1	Ⴁ	cut_s_stereo_44KHz.wav
2	113	3	4	2	I	1	0	933	0	Ⴡ	cut_n_stereo_44KHz.wav
2	114	1	1	1	C	1	0	518	0	Ⴃ	cut_s_stereo_44KHz.wav
2	115	2	1	0	C	1	1	525	1	Ⴁ	cut_s_stereo_44KHz.wav
2	116	4	4	2	I	2	0	819	0	Ⴂ	cut_n_stereo_44KHz.wav
2	117	1	2	0	C	1	1	591	1	Ⴃ	cut_f_stereo_44KHz.wav
2	118	4	3	2	I	1	0	755	0	Ⴂ	cut_ui_stereo_44KHz.wav
2	119	2	2	1	C	1	0	542	0	Ⴁ	cut_f_stereo_44KHz.wav
2	120	3	3	2	I	1	0	571	1	Ⴡ	cut_ui_stereo_44KHz.wav
2	121	1	1	1	C	1	0	734	0	Ⴃ	cut_s_stereo_44KHz.wav
2	122	4	4	2	I	1	0	747	0	Ⴂ	cut_n_stereo_44KHz.wav
2	123	2	1	0	C	1	1	677	1	Ⴁ	cut_s_stereo_44KHz.wav
2	124	3	3	2	I	1	0	851	0	Ⴡ	cut_ui_stereo_44KHz.wav
2	125	1	2	0	C	1	1	519	1	Ⴃ	cut_f_stereo_44KHz.wav
2	126	2	2	1	C	2	1	683	1	Ⴁ	cut_f_stereo_44KHz.wav
2	127	4	3	2	I	1	0	745	1	Ⴂ	cut_ui_stereo_44KHz.wav
2	128	3	4	2	I	1	0	648	1	Ⴡ	cut_n_stereo_44KHz.wav
2	129	4	3	2	I	2	0	634	1	Ⴂ	cut_ui_stereo_44KHz.wav
2	130	2	1	0	C	1	1	635	1	Ⴁ	cut_s_stereo_44KHz.wav
2	131	3	4	2	I	1	0	759	1	Ⴡ	cut_n_stereo_44KHz.wav
2	132	1	1	1	C	2	1	837	1	Ⴃ	cut_s_stereo_44KHz.wav
2	133	4	4	2	I	1	0	606	1	Ⴂ	cut_n_stereo_44KHz.wav
2	134	2	2	1	C	1	0	667	0	Ⴁ	cut_f_stereo_44KHz.wav
2	135	1	2	0	C	2	0	559	0	Ⴃ	cut_f_stereo_44KHz.wav
2	136	3	3	2	I	2	0	835	0	Ⴡ	cut_ui_stereo_44KHz.wav
2	137	1	2	0	C	1	1	776	1	Ⴃ	cut_f_stereo_44KHz.wav
2	138	4	3	2	I	1	0	758	1	Ⴂ	cut_ui_stereo_44KHz.wav
2	139	3	4	2	I	1	0	642	1	Ⴡ	cut_n_stereo_44KHz.wav
2	140	2	1	0	C	1	1	871	1	Ⴁ	cut_s_stereo_44KHz.wav
2	141	3	3	2	I	2	0	513	1	Ⴡ	cut_ui_stereo_44KHz.wav
2	142	1	1	1	C	1	0	611	0	Ⴃ	cut_s_stereo_44KHz.wav
2	143	4	4	2	I	2	0	872	0	Ⴂ	cut_n_stereo_44KHz.wav
2	144	2	2	1	C	1	0	653	0	Ⴁ	cut_f_stereo_44KHz.wav
2	145	3	3	2	I	2	0	518	1	Ⴡ	cut_ui_stereo_44KHz.wav
2	146	1	1	1	C	1	0	828	0	Ⴃ	cut_s_stereo_44KHz.wav
2	147	4	3	2	I	2	0	555	1	Ⴂ	cut_ui_stereo_44KHz.wav
2	148	2	2	1	C	1	0	470	0	Ⴁ	cut_f_stereo_44KHz.wav
2	149	4	4	2	I	2	0	850	0	Ⴂ	cut_n_stereo_44KHz.wav
2	150	3	4	2	I	1	0	721	0	Ⴡ	cut_n_stereo_44KHz.wav
2	151	1	2	0	C	2	0	757	0	Ⴃ	cut_f_stereo_44KHz.wav
2	152	2	1	0	C	1	1	584	1	Ⴁ	cut_s_stereo_44KHz.wav
2	153	4	4	2	I	1	0	779	1	Ⴂ	cut_n_stereo_44KHz.wav
2	154	3	3	2	I	2	0	577	1	Ⴡ	cut_ui_stereo_44KHz.wav
2	155	2	1	0	C	1	1	1084	1	Ⴁ	cut_s_stereo_44KHz.wav
2	156	1	1	1	C	2	1	553	1	Ⴃ	cut_s_stereo_44KHz.wav
2	157	4	3	2	I	2	0	753	0	Ⴂ	cut_ui_stereo_44KHz.wav
2	158	1	2	0	C	2	0	784	0	Ⴃ	cut_f_stereo_44KHz.wav
2	159	2	2	1	C	1	0	697	0	Ⴁ	cut_f_stereo_44KHz.wav
2	160	3	4	2	I	2	0	752	1	Ⴡ	cut_n_stereo_44KHz.wav
2	161	1	2	0	C	1	1	510	1	Ⴃ	cut_f_stereo_44KHz.wav
2	162	3	4	2	I	2	0	562	0	Ⴡ	cut_n_stereo_44KHz.wav
2	163	2	2	1	C	2	1	852	1	Ⴁ	cut_f_stereo_44KHz.wav
2	164	4	4	2	I	1	0	764	1	Ⴂ	cut_n_stereo_44KHz.wav
2	165	3	3	2	I	2	0	564	1	Ⴡ	cut_ui_stereo_44KHz.wav
2	166	1	1	1	C	1	0	676	0	Ⴃ	cut_s_stereo_44KHz.wav
2	167	4	3	2	I	1	0	764	1	Ⴂ	cut_ui_stereo_44KHz.wav
2	168	2	1	0	C	2	0	680	0	Ⴁ	cut_s_stereo_44KHz.wav
2	169	3	3	2	I	1	0	557	0	Ⴡ	cut_ui_stereo_44KHz.wav
2	170	2	2	1	C	1	0	517	0	Ⴁ	cut_f_stereo_44KHz.wav
2	171	1	2	0	C	2	0	713	0	Ⴃ	cut_f_stereo_44KHz.wav
2	172	4	3	2	I	1	0	464	1	Ⴂ	cut_ui_stereo_44KHz.wav
2	173	1	1	1	C	1	0	640	0	Ⴃ	cut_s_stereo_44KHz.wav
2	174	2	1	0	C	2	0	631	0	Ⴁ	cut_s_stereo_44KHz.wav
2	175	4	4	2	I	1	0	666	0	Ⴂ	cut_n_stereo_44KHz.wav
2	176	3	4	2	I	1	0	670	0	Ⴡ	cut_n_stereo_44KHz.wav
2	177	4	4	2	I	1	0	797	1	Ⴂ	cut_n_stereo_44KHz.wav
2	178	2	1	0	C	1	1	560	1	Ⴁ	cut_s_stereo_44KHz.wav
2	179	1	2	0	C	1	1	402	1	Ⴃ	cut_f_stereo_44KHz.wav
2	180	3	4	2	I	1	0	765	1	Ⴡ	cut_n_stereo_44KHz.wav
2	181	4	3	2	I	1	0	714	1	Ⴂ	cut_ui_stereo_44KHz.wav
2	182	1	1	1	C	2	1	768	1	Ⴃ	cut_s_stereo_44KHz.wav
2	183	3	3	2	I	2	0	845	0	Ⴡ	cut_ui_stereo_44KHz.wav
2	184	2	2	1	C	1	0	891	0	Ⴁ	cut_f_stereo_44KHz.wav
2	185	3	4	2	I	2	0	779	0	Ⴡ	cut_n_stereo_44KHz.wav
2	186	2	1	0	C	1	1	609	1	Ⴁ	cut_s_stereo_44KHz.wav
2	187	1	2	0	C	1	1	603	1	Ⴃ	cut_f_stereo_44KHz.wav
2	188	4	3	2	I	1	0	764	0	Ⴂ	cut_ui_stereo_44KHz.wav
2	189	2	2	1	C	1	0	652	0	Ⴁ	cut_f_stereo_44KHz.wav
2	190	3	3	2	I	1	0	731	0	Ⴡ	cut_ui_stereo_44KHz.wav
2	191	4	4	2	I	1	0	603	0	Ⴂ	cut_n_stereo_44KHz.wav
2	192	1	1	1	C	2	1	902	1	Ⴃ	cut_s_stereo_44KHz.wav
2	193	3	3	2	I	1	0	871	1	Ⴡ	cut_ui_stereo_44KHz.wav
2	194	4	3	2	I	2	0	1124	0	Ⴂ	cut_ui_stereo_44KHz.wav
2	195	1	1	1	C	1	0	810	0	Ⴃ	cut_s_stereo_44KHz.wav
2	196	2	1	0	C	1	1	560	1	Ⴁ	cut_s_stereo_44KHz.wav
2	197	4	4	2	I	1	0	824	0	Ⴂ	cut_n_stereo_44KHz.wav
2	198	1	2	0	C	1	1	763	1	Ⴃ	cut_f_stereo_44KHz.wav
2	199	2	2	1	C	2	1	675	1	Ⴁ	cut_f_stereo_44KHz.wav
2	200	3	4	2	I	1	0	574	1	Ⴡ	cut_n_stereo_44KHz.wav
3	1	2	1	0	C	0	0	0	0	Ⴒ	cut_a_stereo_44KHz.wav
3	2	3	4	2	I	2	0	510	1	Ⴖ	cut_k_stereo_44KHz.wav
3	3	4	3	2	I	1	0	505	0	Ⴐ	cut_o_stereo_44KHz.wav
3	4	1	2	0	C	2	0	850	0	Ⴔ	cut_u_stereo_44KHz.wav
3	5	3	3	2	I	1	0	706	1	Ⴖ	cut_o_stereo_44KHz.wav
3	6	1	1	1	C	1	0	554	0	Ⴔ	cut_a_stereo_44KHz.wav
3	7	2	2	1	C	1	0	479	0	Ⴒ	cut_u_stereo_44KHz.wav
3	8	4	4	2	I	2	0	490	0	Ⴐ	cut_k_stereo_44KHz.wav
3	9	2	1	0	C	1	1	530	1	Ⴒ	cut_a_stereo_44KHz.wav
3	10	1	2	0	C	1	1	624	1	Ⴔ	cut_u_stereo_44KHz.wav
3	11	4	3	2	I	1	0	563	0	Ⴐ	cut_o_stereo_44KHz.wav
3	12	3	4	2	I	2	0	746	1	Ⴖ	cut_k_stereo_44KHz.wav
3	13	1	1	1	C	1	0	465	0	Ⴔ	cut_a_stereo_44KHz.wav
3	14	2	2	1	C	1	0	614	0	Ⴒ	cut_u_stereo_44KHz.wav
3	15	4	4	2	I	2	0	577	0	Ⴐ	cut_k_stereo_44KHz.wav
3	16	3	3	2	I	1	0	530	0	Ⴖ	cut_o_stereo_44KHz.wav
3	17	1	2	0	C	1	1	473	1	Ⴔ	cut_u_stereo_44KHz.wav
3	18	2	1	0	C	1	1	547	1	Ⴒ	cut_a_stereo_44KHz.wav
3	19	4	3	2	I	1	0	598	0	Ⴐ	cut_o_stereo_44KHz.wav
3	20	3	4	2	I	2	0	576	1	Ⴖ	cut_k_stereo_44KHz.wav
3	21	2	2	1	C	2	1	814	1	Ⴒ	cut_u_stereo_44KHz.wav
3	22	4	4	2	I	1	0	607	0	Ⴐ	cut_k_stereo_44KHz.wav
3	23	3	3	2	I	2	0	747	0	Ⴖ	cut_o_stereo_44KHz.wav
3	24	1	1	1	C	1	0	852	0	Ⴔ	cut_a_stereo_44KHz.wav
3	25	3	4	2	I	2	0	565	1	Ⴖ	cut_k_stereo_44KHz.wav
3	26	4	4	2	I	1	0	500	0	Ⴐ	cut_k_stereo_44KHz.wav
3	27	1	1	1	C	2	1	745	1	Ⴔ	cut_a_stereo_44KHz.wav
3	28	2	1	0	C	1	1	476	1	Ⴒ	cut_a_stereo_44KHz.wav
3	29	4	3	2	I	2	0	657	0	Ⴐ	cut_o_stereo_44KHz.wav
3	30	1	2	0	C	2	0	1079	0	Ⴔ	cut_u_stereo_44KHz.wav
3	31	3	3	2	I	2	0	586	1	Ⴖ	cut_o_stereo_44KHz.wav
3	32	2	2	1	C	2	1	755	1	Ⴒ	cut_u_stereo_44KHz.wav
3	33	3	4	2	I	1	0	735	0	Ⴖ	cut_k_stereo_44KHz.wav
3	34	2	1	0	C	1	1	758	1	Ⴒ	cut_a_stereo_44KHz.wav
3	35	4	4	2	I	2	0	620	1	Ⴐ	cut_k_stereo_44KHz.wav
3	36	1	1	1	C	2	1	623	1	Ⴔ	cut_a_stereo_44KHz.wav
3	37	3	3	2	I	1	0	613	0	Ⴖ	cut_o_stereo_44KHz.wav
3	38	2	2	1	C	2	1	619	1	Ⴒ	cut_u_stereo_44KHz.wav
3	39	1	2	0	C	1	1	629	1	Ⴔ	cut_u_stereo_44KHz.wav
3	40	4	3	2	I	2	0	660	0	Ⴐ	cut_o_stereo_44KHz.wav
3	41	1	2	0	C	1	1	688	1	Ⴔ	cut_u_stereo_44KHz.wav
3	42	2	1	0	C	1	1	618	1	Ⴒ	cut_a_stereo_44KHz.wav
3	43	4	3	2	I	1	0	552	0	Ⴐ	cut_o_stereo_44KHz.wav
3	44	3	3	2	I	1	0	545	1	Ⴖ	cut_o_stereo_44KHz.wav
3	45	1	1	1	C	2	1	665	1	Ⴔ	cut_a_stereo_44KHz.wav
3	46	2	2	1	C	2	1	861	1	Ⴒ	cut_u_stereo_44KHz.wav
3	47	3	4	2	I	2	0	656	1	Ⴖ	cut_k_stereo_44KHz.wav
3	48	4	4	2	I	1	0	705	1	Ⴐ	cut_k_stereo_44KHz.wav
3	49	1	1	1	C	1	0	727	0	Ⴔ	cut_a_stereo_44KHz.wav
3	50	3	4	2	I	2	0	555	1	Ⴖ	cut_k_stereo_44KHz.wav
3	51	2	2	1	C	1	0	488	0	Ⴒ	cut_u_stereo_44KHz.wav
3	52	4	4	2	I	1	0	532	0	Ⴐ	cut_k_stereo_44KHz.wav
3	53	3	3	2	I	2	0	633	1	Ⴖ	cut_o_stereo_44KHz.wav
3	54	4	3	2	I	1	0	742	0	Ⴐ	cut_o_stereo_44KHz.wav
3	55	1	2	0	C	1	1	652	1	Ⴔ	cut_u_stereo_44KHz.wav
3	56	2	1	0	C	2	0	579	0	Ⴒ	cut_a_stereo_44KHz.wav
3	57	3	4	2	I	2	0	686	0	Ⴖ	cut_k_stereo_44KHz.wav
3	58	2	1	0	C	1	1	522	1	Ⴒ	cut_a_stereo_44KHz.wav
3	59	4	3	2	I	2	0	602	1	Ⴐ	cut_o_stereo_44KHz.wav
3	60	1	2	0	C	1	1	520	1	Ⴔ	cut_u_stereo_44KHz.wav
3	61	2	2	1	C	2	1	677	1	Ⴒ	cut_u_stereo_44KHz.wav
3	62	4	4	2	I	1	0	515	1	Ⴐ	cut_k_stereo_44KHz.wav
3	63	1	1	1	C	1	0	636	0	Ⴔ	cut_a_stereo_44KHz.wav
3	64	3	3	2	I	2	0	570	1	Ⴖ	cut_o_stereo_44KHz.wav
3	65	2	2	1	C	1	0	630	0	Ⴒ	cut_u_stereo_44KHz.wav
3	66	1	1	1	C	1	0	392	0	Ⴔ	cut_a_stereo_44KHz.wav
3	67	4	4	2	I	2	0	417	1	Ⴐ	cut_k_stereo_44KHz.wav
3	68	3	4	2	I	1	0	534	0	Ⴖ	cut_k_stereo_44KHz.wav
3	69	1	2	0	C	1	1	448	1	Ⴔ	cut_u_stereo_44KHz.wav
3	70	4	3	2	I	1	0	470	0	Ⴐ	cut_o_stereo_44KHz.wav
3	71	2	1	0	C	1	1	394	1	Ⴒ	cut_a_stereo_44KHz.wav
3	72	3	3	2	I	1	0	726	0	Ⴖ	cut_o_stereo_44KHz.wav
3	73	4	4	2	I	1	0	475	1	Ⴐ	cut_k_stereo_44KHz.wav
3	74	1	2	0	C	2	0	629	0	Ⴔ	cut_u_stereo_44KHz.wav
3	75	3	3	2	I	1	0	391	1	Ⴖ	cut_o_stereo_44KHz.wav
3	76	2	1	0	C	1	1	664	1	Ⴒ	cut_a_stereo_44KHz.wav
3	77	1	1	1	C	2	1	556	1	Ⴔ	cut_a_stereo_44KHz.wav
3	78	4	3	2	I	1	0	626	0	Ⴐ	cut_o_stereo_44KHz.wav
3	79	3	4	2	I	2	0	561	1	Ⴖ	cut_k_stereo_44KHz.wav
3	80	2	2	1	C	2	1	788	1	Ⴒ	cut_u_stereo_44KHz.wav
3	81	1	2	0	C	1	1	569	1	Ⴔ	cut_u_stereo_44KHz.wav
3	82	2	1	0	C	1	1	400	1	Ⴒ	cut_a_stereo_44KHz.wav
3	83	3	3	2	I	1	0	616	0	Ⴖ	cut_o_stereo_44KHz.wav
3	84	4	4	2	I	2	0	555	1	Ⴐ	cut_k_stereo_44KHz.wav
3	85	2	2	1	C	1	0	495	0	Ⴒ	cut_u_stereo_44KHz.wav
3	86	3	4	2	I	2	0	559	0	Ⴖ	cut_k_stereo_44KHz.wav
3	87	4	3	2	I	1	0	480	0	Ⴐ	cut_o_stereo_44KHz.wav
3	88	1	1	1	C	1	0	522	0	Ⴔ	cut_a_stereo_44KHz.wav
3	89	2	1	0	C	1	1	452	1	Ⴒ	cut_a_stereo_44KHz.wav
3	90	1	1	1	C	2	1	566	1	Ⴔ	cut_a_stereo_44KHz.wav
3	91	4	3	2	I	1	0	676	1	Ⴐ	cut_o_stereo_44KHz.wav
3	92	3	4	2	I	2	0	501	0	Ⴖ	cut_k_stereo_44KHz.wav
3	93	2	2	1	C	1	0	539	0	Ⴒ	cut_u_stereo_44KHz.wav
3	94	4	4	2	I	2	0	463	1	Ⴐ	cut_k_stereo_44KHz.wav
3	95	3	3	2	I	2	0	816	1	Ⴖ	cut_o_stereo_44KHz.wav
3	96	1	2	0	C	1	1	789	1	Ⴔ	cut_u_stereo_44KHz.wav
3	97	3	4	2	I	1	0	863	0	Ⴖ	cut_k_stereo_44KHz.wav
3	98	2	2	1	C	1	0	496	0	Ⴒ	cut_u_stereo_44KHz.wav
3	99	1	2	0	C	1	1	537	1	Ⴔ	cut_u_stereo_44KHz.wav
3	100	4	3	2	I	2	0	595	1	Ⴐ	cut_o_stereo_44KHz.wav
3	101	1	1	1	C	1	0	487	0	Ⴔ	cut_a_stereo_44KHz.wav
3	102	4	4	2	I	1	0	681	0	Ⴐ	cut_k_stereo_44KHz.wav
3	103	3	3	2	I	2	0	662	0	Ⴖ	cut_o_stereo_44KHz.wav
3	104	2	1	0	C	1	1	675	1	Ⴒ	cut_a_stereo_44KHz.wav
3	105	4	4	2	I	1	0	666	1	Ⴐ	cut_k_stereo_44KHz.wav
3	106	2	2	1	C	1	0	725	0	Ⴒ	cut_u_stereo_44KHz.wav
3	107	3	4	2	I	2	0	581	1	Ⴖ	cut_k_stereo_44KHz.wav
3	108	1	1	1	C	2	1	725	1	Ⴔ	cut_a_stereo_44KHz.wav
3	109	2	1	0	C	1	1	601	1	Ⴒ	cut_a_stereo_44KHz.wav
3	110	3	3	2	I	2	0	516	1	Ⴖ	cut_o_stereo_44KHz.wav
3	111	1	2	0	C	1	1	507	1	Ⴔ	cut_u_stereo_44KHz.wav
3	112	4	3	2	I	2	0	408	1	Ⴐ	cut_o_stereo_44KHz.wav
3	113	1	1	1	C	2	1	546	1	Ⴔ	cut_a_stereo_44KHz.wav
3	114	2	2	1	C	2	1	488	1	Ⴒ	cut_u_stereo_44KHz.wav
3	115	3	3	2	I	2	0	689	1	Ⴖ	cut_o_stereo_44KHz.wav
3	116	4	3	2	I	1	0	537	0	Ⴐ	cut_o_stereo_44KHz.wav
3	117	2	1	0	C	1	1	534	1	Ⴒ	cut_a_stereo_44KHz.wav
3	118	1	2	0	C	1	1	596	1	Ⴔ	cut_u_stereo_44KHz.wav
3	119	4	4	2	I	1	0	576	1	Ⴐ	cut_k_stereo_44KHz.wav
3	120	3	4	2	I	2	0	886	1	Ⴖ	cut_k_stereo_44KHz.wav
3	121	4	4	2	I	1	0	613	1	Ⴐ	cut_k_stereo_44KHz.wav
3	122	1	1	1	C	2	1	541	1	Ⴔ	cut_a_stereo_44KHz.wav
3	123	2	2	1	C	2	1	663	1	Ⴒ	cut_u_stereo_44KHz.wav
3	124	3	4	2	I	1	0	615	0	Ⴖ	cut_k_stereo_44KHz.wav
3	125	2	1	0	C	1	1	630	1	Ⴒ	cut_a_stereo_44KHz.wav
3	126	3	3	2	I	2	0	486	0	Ⴖ	cut_o_stereo_44KHz.wav
3	127	1	2	0	C	1	1	560	1	Ⴔ	cut_u_stereo_44KHz.wav
3	128	4	3	2	I	2	0	738	1	Ⴐ	cut_o_stereo_44KHz.wav
3	129	3	4	2	I	1	0	622	0	Ⴖ	cut_k_stereo_44KHz.wav
3	130	1	1	1	C	2	1	725	1	Ⴔ	cut_a_stereo_44KHz.wav
3	131	2	2	1	C	2	1	811	1	Ⴒ	cut_u_stereo_44KHz.wav
3	132	4	3	2	I	1	0	584	0	Ⴐ	cut_o_stereo_44KHz.wav
3	133	2	1	0	C	1	1	629	1	Ⴒ	cut_a_stereo_44KHz.wav
3	134	3	3	2	I	2	0	1081	0	Ⴖ	cut_o_stereo_44KHz.wav
3	135	1	2	0	C	1	1	773	1	Ⴔ	cut_u_stereo_44KHz.wav
3	136	4	4	2	I	1	0	605	1	Ⴐ	cut_k_stereo_44KHz.wav
3	137	1	1	1	C	2	1	725	1	Ⴔ	cut_a_stereo_44KHz.wav
3	138	2	2	1	C	2	1	684	1	Ⴒ	cut_u_stereo_44KHz.wav
3	139	4	3	2	I	1	0	741	1	Ⴐ	cut_o_stereo_44KHz.wav
3	140	3	4	2	I	1	0	715	1	Ⴖ	cut_k_stereo_44KHz.wav
3	141	2	1	0	C	1	1	559	1	Ⴒ	cut_a_stereo_44KHz.wav
3	142	4	4	2	I	1	0	541	1	Ⴐ	cut_k_stereo_44KHz.wav
3	143	1	2	0	C	2	0	612	0	Ⴔ	cut_u_stereo_44KHz.wav
3	144	3	3	2	I	1	0	665	0	Ⴖ	cut_o_stereo_44KHz.wav
3	145	2	1	0	C	1	1	551	1	Ⴒ	cut_a_stereo_44KHz.wav
3	146	3	3	2	I	1	0	668	0	Ⴖ	cut_o_stereo_44KHz.wav
3	147	4	3	2	I	1	0	666	0	Ⴐ	cut_o_stereo_44KHz.wav
3	148	1	2	0	C	1	1	543	1	Ⴔ	cut_u_stereo_44KHz.wav
3	149	4	4	2	I	1	0	563	1	Ⴐ	cut_k_stereo_44KHz.wav
3	150	2	2	1	C	1	0	555	0	Ⴒ	cut_u_stereo_44KHz.wav
3	151	1	1	1	C	1	0	520	0	Ⴔ	cut_a_stereo_44KHz.wav
3	152	3	4	2	I	2	0	696	0	Ⴖ	cut_k_stereo_44KHz.wav
3	153	1	2	0	C	1	1	1000	1	Ⴔ	cut_u_stereo_44KHz.wav
3	154	2	2	1	C	2	1	680	1	Ⴒ	cut_u_stereo_44KHz.wav
3	155	3	4	2	I	1	0	638	1	Ⴖ	cut_k_stereo_44KHz.wav
3	156	4	3	2	I	1	0	509	0	Ⴐ	cut_o_stereo_44KHz.wav
3	157	1	1	1	C	2	1	721	1	Ⴔ	cut_a_stereo_44KHz.wav
3	158	4	4	2	I	1	0	519	0	Ⴐ	cut_k_stereo_44KHz.wav
3	159	3	3	2	I	2	0	1105	0	Ⴖ	cut_o_stereo_44KHz.wav
3	160	2	1	0	C	1	1	553	1	Ⴒ	cut_a_stereo_44KHz.wav
3	161	1	2	0	C	1	1	733	1	Ⴔ	cut_u_stereo_44KHz.wav
3	162	2	1	0	C	1	1	827	1	Ⴒ	cut_a_stereo_44KHz.wav
3	163	4	4	2	I	1	0	763	1	Ⴐ	cut_k_stereo_44KHz.wav
3	164	3	4	2	I	1	0	606	0	Ⴖ	cut_k_stereo_44KHz.wav
3	165	1	1	1	C	2	1	720	1	Ⴔ	cut_a_stereo_44KHz.wav
3	166	4	3	2	I	1	0	530	1	Ⴐ	cut_o_stereo_44KHz.wav
3	167	2	2	1	C	2	1	713	1	Ⴒ	cut_u_stereo_44KHz.wav
3	168	3	3	2	I	2	0	634	0	Ⴖ	cut_o_stereo_44KHz.wav
3	169	4	4	2	I	1	0	572	1	Ⴐ	cut_k_stereo_44KHz.wav
3	170	3	3	2	I	2	0	1264	0	Ⴖ	cut_o_stereo_44KHz.wav
3	171	2	2	1	C	2	1	872	1	Ⴒ	cut_u_stereo_44KHz.wav
3	172	1	1	1	C	1	0	685	0	Ⴔ	cut_a_stereo_44KHz.wav
3	173	4	3	2	I	1	0	633	0	Ⴐ	cut_o_stereo_44KHz.wav
3	174	1	2	0	C	1	1	583	1	Ⴔ	cut_u_stereo_44KHz.wav
3	175	3	4	2	I	1	0	865	1	Ⴖ	cut_k_stereo_44KHz.wav
3	176	2	1	0	C	1	1	832	1	Ⴒ	cut_a_stereo_44KHz.wav
3	177	3	4	2	I	1	0	801	0	Ⴖ	cut_k_stereo_44KHz.wav
3	178	4	3	2	I	1	0	659	0	Ⴐ	cut_o_stereo_44KHz.wav
3	179	2	2	1	C	1	0	490	0	Ⴒ	cut_u_stereo_44KHz.wav
3	180	1	1	1	C	2	1	745	1	Ⴔ	cut_a_stereo_44KHz.wav
3	181	3	3	2	I	1	0	239	1	Ⴖ	cut_o_stereo_44KHz.wav
3	182	1	2	0	C	1	1	500	1	Ⴔ	cut_u_stereo_44KHz.wav
3	183	2	1	0	C	1	1	411	1	Ⴒ	cut_a_stereo_44KHz.wav
3	184	4	4	2	I	2	0	742	1	Ⴐ	cut_k_stereo_44KHz.wav
3	185	1	2	0	C	1	1	587	1	Ⴔ	cut_u_stereo_44KHz.wav
3	186	4	3	2	I	1	0	606	1	Ⴐ	cut_o_stereo_44KHz.wav
3	187	2	2	1	C	1	0	585	0	Ⴒ	cut_u_stereo_44KHz.wav
3	188	3	4	2	I	1	0	672	1	Ⴖ	cut_k_stereo_44KHz.wav
3	189	1	1	1	C	1	0	565	0	Ⴔ	cut_a_stereo_44KHz.wav
3	190	2	1	0	C	1	1	550	1	Ⴒ	cut_a_stereo_44KHz.wav
3	191	4	4	2	I	2	0	638	0	Ⴐ	cut_k_stereo_44KHz.wav
3	192	3	3	2	I	1	0	580	1	Ⴖ	cut_o_stereo_44KHz.wav
3	193	1	1	1	C	2	1	862	1	Ⴔ	cut_a_stereo_44KHz.wav
3	194	4	3	2	I	2	0	686	1	Ⴐ	cut_o_stereo_44KHz.wav
3	195	2	1	0	C	1	1	463	1	Ⴒ	cut_a_stereo_44KHz.wav
3	196	3	3	2	I	2	0	757	1	Ⴖ	cut_o_stereo_44KHz.wav
3	197	1	2	0	C	2	0	503	0	Ⴔ	cut_u_stereo_44KHz.wav
3	198	3	4	2	I	2	0	637	0	Ⴖ	cut_k_stereo_44KHz.wav
3	199	2	2	1	C	1	0	568	0	Ⴒ	cut_u_stereo_44KHz.wav
3	200	4	4	2	I	1	0	674	0	Ⴐ	cut_k_stereo_44KHz.wav
4	1	1	1	1	C	2	1	990	1	Ⴜ	cut_h_stereo_44KHz.wav
4	2	2	1	0	C	1	1	440	1	Ⴊ	cut_h_stereo_44KHz.wav
4	3	4	3	2	I	2	0	567	0	Ⴇ	cut_l_stereo_44KHz.wav
4	4	3	4	2	I	1	0	603	0	Ⴟ	cut_g_stereo_44KHz.wav
4	5	4	4	2	I	1	0	502	0	Ⴇ	cut_g_stereo_44KHz.wav
4	6	2	2	1	C	1	0	566	0	Ⴊ	cut_w_stereo_44KHz.wav
4	7	3	3	2	I	2	0	467	0	Ⴟ	cut_l_stereo_44KHz.wav
4	8	1	2	0	C	1	1	447	1	Ⴜ	cut_w_stereo_44KHz.wav
4	9	4	3	2	I	2	0	528	1	Ⴇ	cut_l_stereo_44KHz.wav
4	10	2	2	1	C	2	1	577	1	Ⴊ	cut_w_stereo_44KHz.wav
4	11	3	4	2	I	2	0	422	0	Ⴟ	cut_g_stereo_44KHz.wav
4	12	1	2	0	C	1	1	371	1	Ⴜ	cut_w_stereo_44KHz.wav
4	13	2	1	0	C	1	1	657	1	Ⴊ	cut_h_stereo_44KHz.wav
4	14	3	3	2	I	1	0	470	0	Ⴟ	cut_l_stereo_44KHz.wav
4	15	1	1	1	C	1	0	570	0	Ⴜ	cut_h_stereo_44KHz.wav
4	16	4	4	2	I	2	0	758	0	Ⴇ	cut_g_stereo_44KHz.wav
4	17	1	2	0	C	1	1	405	1	Ⴜ	cut_w_stereo_44KHz.wav
4	18	3	4	2	I	1	0	815	0	Ⴟ	cut_g_stereo_44KHz.wav
4	19	4	4	2	I	1	0	505	1	Ⴇ	cut_g_stereo_44KHz.wav
4	20	2	2	1	C	1	0	541	0	Ⴊ	cut_w_stereo_44KHz.wav
4	21	1	1	1	C	1	0	380	0	Ⴜ	cut_h_stereo_44KHz.wav
4	22	4	3	2	I	1	0	449	0	Ⴇ	cut_l_stereo_44KHz.wav
4	23	2	1	0	C	2	0	617	0	Ⴊ	cut_h_stereo_44KHz.wav
4	24	3	3	2	I	1	0	763	1	Ⴟ	cut_l_stereo_44KHz.wav
4	25	1	1	1	C	1	0	776	0	Ⴜ	cut_h_stereo_44KHz.wav
4	26	3	3	2	I	1	0	484	0	Ⴟ	cut_l_stereo_44KHz.wav
4	27	2	2	1	C	1	0	480	0	Ⴊ	cut_w_stereo_44KHz.wav
4	28	4	3	2	I	2	0	455	0	Ⴇ	cut_l_stereo_44KHz.wav
4	29	3	4	2	I	1	0	849	0	Ⴟ	cut_g_stereo_44KHz.wav
4	30	1	2	0	C	1	1	818	1	Ⴜ	cut_w_stereo_44KHz.wav
4	31	4	4	2	I	2	0	786	0	Ⴇ	cut_g_stereo_44KHz.wav
4	32	2	1	0	C	1	1	637	1	Ⴊ	cut_h_stereo_44KHz.wav
4	33	3	4	2	I	1	0	886	1	Ⴟ	cut_g_stereo_44KHz.wav
4	34	1	2	0	C	1	1	509	1	Ⴜ	cut_w_stereo_44KHz.wav
4	35	4	4	2	I	1	0	607	1	Ⴇ	cut_g_stereo_44KHz.wav
4	36	2	1	0	C	1	1	601	1	Ⴊ	cut_h_stereo_44KHz.wav
4	37	4	3	2	I	2	0	658	0	Ⴇ	cut_l_stereo_44KHz.wav
4	38	1	1	1	C	1	0	576	0	Ⴜ	cut_h_stereo_44KHz.wav
4	39	2	2	1	C	1	0	671	0	Ⴊ	cut_w_stereo_44KHz.wav
4	40	3	3	2	I	2	0	544	1	Ⴟ	cut_l_stereo_44KHz.wav
4	41	4	3	2	I	2	0	867	1	Ⴇ	cut_l_stereo_44KHz.wav
4	42	1	1	1	C	2	1	732	1	Ⴜ	cut_h_stereo_44KHz.wav
4	43	3	3	2	I	1	0	691	0	Ⴟ	cut_l_stereo_44KHz.wav
4	44	2	1	0	C	1	1	711	1	Ⴊ	cut_h_stereo_44KHz.wav
4	45	4	4	2	I	1	0	658	1	Ⴇ	cut_g_stereo_44KHz.wav
4	46	1	2	0	C	1	1	668	1	Ⴜ	cut_w_stereo_44KHz.wav
4	47	3	4	2	I	1	0	635	1	Ⴟ	cut_g_stereo_44KHz.wav
4	48	2	2	1	C	2	1	766	1	Ⴊ	cut_w_stereo_44KHz.wav
4	49	1	2	0	C	1	1	758	1	Ⴜ	cut_w_stereo_44KHz.wav
4	50	4	4	2	I	1	0	761	0	Ⴇ	cut_g_stereo_44KHz.wav
4	51	3	4	2	I	1	0	584	1	Ⴟ	cut_g_stereo_44KHz.wav
4	52	2	2	1	C	2	1	727	1	Ⴊ	cut_w_stereo_44KHz.wav
4	53	1	1	1	C	2	1	620	1	Ⴜ	cut_h_stereo_44KHz.wav
4	54	3	3	2	I	2	0	779	1	Ⴟ	cut_l_stereo_44KHz.wav
4	55	2	1	0	C	1	1	624	1	Ⴊ	cut_h_stereo_44KHz.wav
4	56	4	3	2	I	1	0	730	1	Ⴇ	cut_l_stereo_44KHz.wav
4	57	3	3	2	I	2	0	622	0	Ⴟ	cut_l_stereo_44KHz.wav
4	58	1	1	1	C	2	1	805	1	Ⴜ	cut_h_stereo_44KHz.wav
4	59	4	3	2	I	1	0	573	1	Ⴇ	cut_l_stereo_44KHz.wav
4	60	2	2	1	C	2	1	542	1	Ⴊ	cut_w_stereo_44KHz.wav
4	61	3	4	2	I	1	0	725	1	Ⴟ	cut_g_stereo_44KHz.wav
4	62	2	1	0	C	2	0	709	0	Ⴊ	cut_h_stereo_44KHz.wav
4	63	4	4	2	I	1	0	821	1	Ⴇ	cut_g_stereo_44KHz.wav
4	64	1	2	0	C	1	1	818	1	Ⴜ	cut_w_stereo_44KHz.wav
4	65	4	3	2	I	2	0	868	1	Ⴇ	cut_l_stereo_44KHz.wav
4	66	1	2	0	C	1	1	693	1	Ⴜ	cut_w_stereo_44KHz.wav
4	67	3	4	2	I	1	0	574	0	Ⴟ	cut_g_stereo_44KHz.wav
4	68	2	2	1	C	1	0	600	0	Ⴊ	cut_w_stereo_44KHz.wav
4	69	1	1	1	C	1	0	475	0	Ⴜ	cut_h_stereo_44KHz.wav
4	70	4	4	2	I	2	0	552	1	Ⴇ	cut_g_stereo_44KHz.wav
4	71	3	3	2	I	1	0	529	0	Ⴟ	cut_l_stereo_44KHz.wav
4	72	2	1	0	C	1	1	618	1	Ⴊ	cut_h_stereo_44KHz.wav
4	73	1	1	1	C	1	0	630	0	Ⴜ	cut_h_stereo_44KHz.wav
4	74	4	3	2	I	1	0	623	0	Ⴇ	cut_l_stereo_44KHz.wav
4	75	2	2	1	C	2	1	738	1	Ⴊ	cut_w_stereo_44KHz.wav
4	76	3	3	2	I	2	0	726	0	Ⴟ	cut_l_stereo_44KHz.wav
4	77	1	2	0	C	1	1	592	1	Ⴜ	cut_w_stereo_44KHz.wav
4	78	4	4	2	I	2	0	799	1	Ⴇ	cut_g_stereo_44KHz.wav
4	79	3	4	2	I	1	0	570	0	Ⴟ	cut_g_stereo_44KHz.wav
4	80	2	1	0	C	1	1	353	1	Ⴊ	cut_h_stereo_44KHz.wav
4	81	4	4	2	I	2	0	491	0	Ⴇ	cut_g_stereo_44KHz.wav
4	82	2	2	1	C	1	0	343	0	Ⴊ	cut_w_stereo_44KHz.wav
4	83	1	2	0	C	1	1	259	1	Ⴜ	cut_w_stereo_44KHz.wav
4	84	3	4	2	I	2	0	371	0	Ⴟ	cut_g_stereo_44KHz.wav
4	85	2	1	0	C	1	1	323	1	Ⴊ	cut_h_stereo_44KHz.wav
4	86	3	3	2	I	1	0	284	1	Ⴟ	cut_l_stereo_44KHz.wav
4	87	1	1	1	C	1	0	547	0	Ⴜ	cut_h_stereo_44KHz.wav
4	88	4	3	2	I	1	0	490	0	Ⴇ	cut_l_stereo_44KHz.wav
4	89	3	3	2	I	1	0	515	0	Ⴟ	cut_l_stereo_44KHz.wav
4	90	1	2	0	C	1	1	526	1	Ⴜ	cut_w_stereo_44KHz.wav
4	91	2	1	0	C	1	1	552	1	Ⴊ	cut_h_stereo_44KHz.wav
4	92	4	4	2	I	1	0	581	0	Ⴇ	cut_g_stereo_44KHz.wav
4	93	2	2	1	C	2	1	841	1	Ⴊ	cut_w_stereo_44KHz.wav
4	94	1	1	1	C	1	0	715	0	Ⴜ	cut_h_stereo_44KHz.wav
4	95	3	4	2	I	1	0	620	1	Ⴟ	cut_g_stereo_44KHz.wav
4	96	4	3	2	I	2	0	730	0	Ⴇ	cut_l_stereo_44KHz.wav
4	97	2	2	1	C	2	1	805	1	Ⴊ	cut_w_stereo_44KHz.wav
4	98	4	3	2	I	2	0	505	0	Ⴇ	cut_l_stereo_44KHz.wav
4	99	1	2	0	C	1	1	658	1	Ⴜ	cut_w_stereo_44KHz.wav
4	100	3	4	2	I	1	0	561	0	Ⴟ	cut_g_stereo_44KHz.wav
4	101	4	4	2	I	2	0	545	1	Ⴇ	cut_g_stereo_44KHz.wav
4	102	1	1	1	C	1	0	566	0	Ⴜ	cut_h_stereo_44KHz.wav
4	103	3	3	2	I	2	0	546	1	Ⴟ	cut_l_stereo_44KHz.wav
4	104	2	1	0	C	1	1	610	1	Ⴊ	cut_h_stereo_44KHz.wav
4	105	1	2	0	C	1	1	564	1	Ⴜ	cut_w_stereo_44KHz.wav
4	106	3	3	2	I	2	0	649	0	Ⴟ	cut_l_stereo_44KHz.wav
4	107	4	3	2	I	2	0	892	1	Ⴇ	cut_l_stereo_44KHz.wav
4	108	2	1	0	C	2	0	415	0	Ⴊ	cut_h_stereo_44KHz.wav
4	109	3	4	2	I	1	0	374	1	Ⴟ	cut_g_stereo_44KHz.wav
4	110	1	1	1	C	1	0	668	0	Ⴜ	cut_h_stereo_44KHz.wav
4	111	2	2	1	C	1	0	545	0	Ⴊ	cut_w_stereo_44KHz.wav
4	112	4	4	2	I	1	0	434	0	Ⴇ	cut_g_stereo_44KHz.wav
4	113	3	3	2	I	2	0	691	1	Ⴟ	cut_l_stereo_44KHz.wav
4	114	2	2	1	C	1	0	646	0	Ⴊ	cut_w_stereo_44KHz.wav
4	115	4	4	2	I	2	0	586	1	Ⴇ	cut_g_stereo_44KHz.wav
4	116	1	2	0	C	2	0	757	0	Ⴜ	cut_w_stereo_44KHz.wav
4	117	4	3	2	I	1	0	764	0	Ⴇ	cut_l_stereo_44KHz.wav
4	118	3	4	2	I	1	0	645	0	Ⴟ	cut_g_stereo_44KHz.wav
4	119	1	1	1	C	2	1	826	1	Ⴜ	cut_h_stereo_44KHz.wav
4	120	2	1	0	C	1	1	479	1	Ⴊ	cut_h_stereo_44KHz.wav
4	121	3	3	2	I	2	0	761	0	Ⴟ	cut_l_stereo_44KHz.wav
4	122	4	3	2	I	2	0	716	1	Ⴇ	cut_l_stereo_44KHz.wav
4	123	2	1	0	C	1	1	479	1	Ⴊ	cut_h_stereo_44KHz.wav
4	124	1	2	0	C	1	1	621	1	Ⴜ	cut_w_stereo_44KHz.wav
4	125	2	2	1	C	2	1	686	1	Ⴊ	cut_w_stereo_44KHz.wav
4	126	4	4	2	I	2	0	898	1	Ⴇ	cut_g_stereo_44KHz.wav
4	127	1	1	1	C	2	1	663	1	Ⴜ	cut_h_stereo_44KHz.wav
4	128	3	4	2	I	1	0	566	1	Ⴟ	cut_g_stereo_44KHz.wav
4	129	1	2	0	C	2	0	700	0	Ⴜ	cut_w_stereo_44KHz.wav
4	130	2	2	1	C	1	0	550	0	Ⴊ	cut_w_stereo_44KHz.wav
4	131	4	4	2	I	2	0	630	0	Ⴇ	cut_g_stereo_44KHz.wav
4	132	3	4	2	I	1	0	481	0	Ⴟ	cut_g_stereo_44KHz.wav
4	133	2	1	0	C	1	1	610	1	Ⴊ	cut_h_stereo_44KHz.wav
4	134	3	3	2	I	2	0	736	1	Ⴟ	cut_l_stereo_44KHz.wav
4	135	4	3	2	I	1	0	860	1	Ⴇ	cut_l_stereo_44KHz.wav
4	136	1	1	1	C	1	0	710	0	Ⴜ	cut_h_stereo_44KHz.wav
4	137	2	2	1	C	2	1	962	1	Ⴊ	cut_w_stereo_44KHz.wav
4	138	1	2	0	C	1	1	678	1	Ⴜ	cut_w_stereo_44KHz.wav
4	139	3	3	2	I	2	0	593	1	Ⴟ	cut_l_stereo_44KHz.wav
4	140	4	3	2	I	1	0	780	1	Ⴇ	cut_l_stereo_44KHz.wav
4	141	2	1	0	C	1	1	721	1	Ⴊ	cut_h_stereo_44KHz.wav
4	142	3	4	2	I	1	0	643	1	Ⴟ	cut_g_stereo_44KHz.wav
4	143	1	1	1	C	2	1	683	1	Ⴜ	cut_h_stereo_44KHz.wav
4	144	4	4	2	I	1	0	933	0	Ⴇ	cut_g_stereo_44KHz.wav
4	145	2	2	1	C	2	1	772	1	Ⴊ	cut_w_stereo_44KHz.wav
4	146	4	4	2	I	1	0	700	1	Ⴇ	cut_g_stereo_44KHz.wav
4	147	1	1	1	C	1	0	670	0	Ⴜ	cut_h_stereo_44KHz.wav
4	148	3	4	2	I	1	0	764	1	Ⴟ	cut_g_stereo_44KHz.wav
4	149	4	3	2	I	2	0	899	1	Ⴇ	cut_l_stereo_44KHz.wav
4	150	1	2	0	C	2	0	746	0	Ⴜ	cut_w_stereo_44KHz.wav
4	151	3	3	2	I	1	0	584	1	Ⴟ	cut_l_stereo_44KHz.wav
4	152	2	1	0	C	1	1	600	1	Ⴊ	cut_h_stereo_44KHz.wav
4	153	3	3	2	I	1	0	722	0	Ⴟ	cut_l_stereo_44KHz.wav
4	154	2	1	0	C	1	1	511	1	Ⴊ	cut_h_stereo_44KHz.wav
4	155	4	3	2	I	2	0	520	1	Ⴇ	cut_l_stereo_44KHz.wav
4	156	1	1	1	C	2	1	834	1	Ⴜ	cut_h_stereo_44KHz.wav
4	157	3	4	2	I	1	0	528	1	Ⴟ	cut_g_stereo_44KHz.wav
4	158	2	2	1	C	2	1	904	1	Ⴊ	cut_w_stereo_44KHz.wav
4	159	4	4	2	I	1	0	752	0	Ⴇ	cut_g_stereo_44KHz.wav
4	160	1	2	0	C	2	0	597	0	Ⴜ	cut_w_stereo_44KHz.wav
4	161	3	3	2	I	1	0	703	1	Ⴟ	cut_l_stereo_44KHz.wav
4	162	1	2	0	C	1	1	996	1	Ⴜ	cut_w_stereo_44KHz.wav
4	163	4	3	2	I	2	0	705	1	Ⴇ	cut_l_stereo_44KHz.wav
4	164	2	2	1	C	2	1	852	1	Ⴊ	cut_w_stereo_44KHz.wav
4	165	4	4	2	I	1	0	627	0	Ⴇ	cut_g_stereo_44KHz.wav
4	166	3	4	2	I	1	0	639	0	Ⴟ	cut_g_stereo_44KHz.wav
4	167	2	1	0	C	1	1	816	1	Ⴊ	cut_h_stereo_44KHz.wav
4	168	1	1	1	C	2	1	655	1	Ⴜ	cut_h_stereo_44KHz.wav
4	169	4	4	2	I	1	0	731	0	Ⴇ	cut_g_stereo_44KHz.wav
4	170	2	1	0	C	1	1	756	1	Ⴊ	cut_h_stereo_44KHz.wav
4	171	3	4	2	I	1	0	691	1	Ⴟ	cut_g_stereo_44KHz.wav
4	172	1	2	0	C	1	1	759	1	Ⴜ	cut_w_stereo_44KHz.wav
4	173	3	3	2	I	2	0	696	1	Ⴟ	cut_l_stereo_44KHz.wav
4	174	2	2	1	C	2	1	748	1	Ⴊ	cut_w_stereo_44KHz.wav
4	175	4	3	2	I	1	0	411	0	Ⴇ	cut_l_stereo_44KHz.wav
4	176	1	1	1	C	1	0	662	0	Ⴜ	cut_h_stereo_44KHz.wav
4	177	4	4	2	I	1	0	821	0	Ⴇ	cut_g_stereo_44KHz.wav
4	178	3	4	2	I	1	0	397	0	Ⴟ	cut_g_stereo_44KHz.wav
4	179	1	1	1	C	2	1	823	1	Ⴜ	cut_h_stereo_44KHz.wav
4	180	2	1	0	C	1	1	662	1	Ⴊ	cut_h_stereo_44KHz.wav
4	181	4	3	2	I	2	0	500	0	Ⴇ	cut_l_stereo_44KHz.wav
4	182	1	2	0	C	1	1	543	1	Ⴜ	cut_w_stereo_44KHz.wav
4	183	3	3	2	I	2	0	669	0	Ⴟ	cut_l_stereo_44KHz.wav
4	184	2	2	1	C	2	1	752	1	Ⴊ	cut_w_stereo_44KHz.wav
4	185	4	4	2	I	1	0	692	0	Ⴇ	cut_g_stereo_44KHz.wav
4	186	2	1	0	C	1	1	648	1	Ⴊ	cut_h_stereo_44KHz.wav
4	187	1	1	1	C	2	1	707	1	Ⴜ	cut_h_stereo_44KHz.wav
4	188	3	3	2	I	1	0	513	1	Ⴟ	cut_l_stereo_44KHz.wav
4	189	4	3	2	I	2	0	660	1	Ⴇ	cut_l_stereo_44KHz.wav
4	190	2	2	1	C	2	1	678	1	Ⴊ	cut_w_stereo_44KHz.wav
4	191	3	4	2	I	1	0	649	1	Ⴟ	cut_g_stereo_44KHz.wav
4	192	1	2	0	C	2	0	642	0	Ⴜ	cut_w_stereo_44KHz.wav
4	193	3	4	2	I	1	0	634	1	Ⴟ	cut_g_stereo_44KHz.wav
4	194	4	4	2	I	1	0	876	1	Ⴇ	cut_g_stereo_44KHz.wav
4	195	1	2	0	C	1	1	943	1	Ⴜ	cut_w_stereo_44KHz.wav
4	196	2	2	1	C	2	1	665	1	Ⴊ	cut_w_stereo_44KHz.wav
4	197	3	3	2	I	1	0	640	0	Ⴟ	cut_l_stereo_44KHz.wav
4	198	2	1	0	C	1	1	747	1	Ⴊ	cut_h_stereo_44KHz.wav
4	199	4	3	2	I	2	0	598	1	Ⴇ	cut_l_stereo_44KHz.wav
4	200	1	1	1	C	2	1	784	1	Ⴜ	cut_h_stereo_44KHz.wav
