block	trial	Vstim	Astim	match	C/I	resp	result	RT	fb	V-file	A-file
RL

0	1	2	3	1	C	2	0	982	0	poli_8sides 24_whiteLine3.jpg	Practice4_b26_stereo_44KHz.wav
0	2	1	1	1	C	2	0	788	0	poli_8sides 23_whiteLine3.jpg	Practice2_b27_cut2_stereo_44KHz.wav
0	3	1	2	0	C	1	0	1324	0	poli_8sides 23_whiteLine3.jpg	Practice1_b27_cut1_stereo_44KHz.wav
0	4	2	4	0	C	2	1	1680	1	poli_8sides 24_whiteLine3.jpg	Practice3_b26_cut1_stereo_44KHz.wav
0	5	2	3	1	C	0	0	0	0	poli_8sides 24_whiteLine3.jpg	Practice4_b26_stereo_44KHz.wav
0	6	2	4	0	C	2	1	1202	1	poli_8sides 24_whiteLine3.jpg	Practice3_b26_cut1_stereo_44KHz.wav
0	7	1	2	0	C	1	0	936	0	poli_8sides 23_whiteLine3.jpg	Practice1_b27_cut1_stereo_44KHz.wav
0	8	1	1	1	C	1	1	1453	1	poli_8sides 23_whiteLine3.jpg	Practice2_b27_cut2_stereo_44KHz.wav
0	9	2	3	1	C	1	1	924	1	poli_8sides 24_whiteLine3.jpg	Practice4_b26_stereo_44KHz.wav
0	10	1	1	1	C	1	1	1097	1	poli_8sides 23_whiteLine3.jpg	Practice2_b27_cut2_stereo_44KHz.wav
0	11	2	4	0	C	2	1	875	1	poli_8sides 24_whiteLine3.jpg	Practice3_b26_cut1_stereo_44KHz.wav
0	12	1	2	0	C	1	0	1294	0	poli_8sides 23_whiteLine3.jpg	Practice1_b27_cut1_stereo_44KHz.wav
0	13	2	4	0	C	2	1	875	1	poli_8sides 24_whiteLine3.jpg	Practice3_b26_cut1_stereo_44KHz.wav
0	14	2	3	1	C	1	1	1382	1	poli_8sides 24_whiteLine3.jpg	Practice4_b26_stereo_44KHz.wav
0	15	1	1	1	C	2	0	1661	0	poli_8sides 23_whiteLine3.jpg	Practice2_b27_cut2_stereo_44KHz.wav
0	16	1	2	0	C	1	0	1149	0	poli_8sides 23_whiteLine3.jpg	Practice1_b27_cut1_stereo_44KHz.wav
0	17	1	2	0	C	2	1	1171	1	poli_8sides 23_whiteLine3.jpg	Practice1_b27_cut1_stereo_44KHz.wav
0	18	2	3	1	C	1	1	1239	1	poli_8sides 24_whiteLine3.jpg	Practice4_b26_stereo_44KHz.wav
0	19	2	4	0	C	2	1	797	1	poli_8sides 24_whiteLine3.jpg	Practice3_b26_cut1_stereo_44KHz.wav
0	20	1	1	1	C	1	1	1157	1	poli_8sides 23_whiteLine3.jpg	Practice2_b27_cut2_stereo_44KHz.wav
0	21	1	2	0	C	2	1	989	1	poli_8sides 23_whiteLine3.jpg	Practice1_b27_cut1_stereo_44KHz.wav
0	22	1	1	1	C	1	1	1052	1	poli_8sides 23_whiteLine3.jpg	Practice2_b27_cut2_stereo_44KHz.wav
0	23	2	4	0	C	2	1	701	1	poli_8sides 24_whiteLine3.jpg	Practice3_b26_cut1_stereo_44KHz.wav
0	24	2	3	1	C	1	1	895	1	poli_8sides 24_whiteLine3.jpg	Practice4_b26_stereo_44KHz.wav
0	25	2	4	0	C	2	1	919	1	poli_8sides 24_whiteLine3.jpg	Practice3_b26_cut1_stereo_44KHz.wav
0	26	2	3	1	C	1	1	842	1	poli_8sides 24_whiteLine3.jpg	Practice4_b26_stereo_44KHz.wav
0	27	1	1	1	C	1	1	1141	1	poli_8sides 23_whiteLine3.jpg	Practice2_b27_cut2_stereo_44KHz.wav
0	28	1	2	0	C	2	1	818	1	poli_8sides 23_whiteLine3.jpg	Practice1_b27_cut1_stereo_44KHz.wav
0	29	2	3	1	C	1	1	1082	1	poli_8sides 24_whiteLine3.jpg	Practice4_b26_stereo_44KHz.wav
0	30	1	1	1	C	1	1	1030	1	poli_8sides 23_whiteLine3.jpg	Practice2_b27_cut2_stereo_44KHz.wav
avg_resp = 1060
1	1	3	3	2	I	1	0	1171	1	poli_8sides 6_whiteLine3.jpg	MediumLong_e04_stereo_44KHz.wav
1	2	4	3	2	I	2	0	959	1	poli_8sides 10_whiteLine3.jpg	MediumLong_e04_stereo_44KHz.wav
1	3	1	2	0	C	1	0	1536	0	poli_8sides 7_whiteLine3.jpg	MediumLong_b10_cut2_L_stereo_44KHz.wav
1	4	2	1	0	C	2	1	945	1	poli_8sides 8_whiteLine3.jpg	Medium_e21_stereo_44KHz.wav
1	5	3	4	2	I	2	0	924	0	poli_8sides 6_whiteLine3.jpg	Medium_e13_stereo_44KHz.wav
1	6	2	2	1	C	2	0	1239	0	poli_8sides 8_whiteLine3.jpg	MediumLong_b10_cut2_L_stereo_44KHz.wav
1	7	1	1	1	C	2	0	1133	0	poli_8sides 7_whiteLine3.jpg	Medium_e21_stereo_44KHz.wav
1	8	4	4	2	I	1	0	1096	1	poli_8sides 10_whiteLine3.jpg	Medium_e13_stereo_44KHz.wav
1	9	1	1	1	C	2	0	1339	0	poli_8sides 7_whiteLine3.jpg	Medium_e21_stereo_44KHz.wav
1	10	4	3	2	I	1	0	1348	0	poli_8sides 10_whiteLine3.jpg	MediumLong_e04_stereo_44KHz.wav
1	11	2	2	1	C	2	0	936	0	poli_8sides 8_whiteLine3.jpg	MediumLong_b10_cut2_L_stereo_44KHz.wav
1	12	3	4	2	I	2	0	1502	1	poli_8sides 6_whiteLine3.jpg	Medium_e13_stereo_44KHz.wav
1	13	1	2	0	C	2	1	1154	1	poli_8sides 7_whiteLine3.jpg	MediumLong_b10_cut2_L_stereo_44KHz.wav
1	14	4	4	2	I	1	0	1552	0	poli_8sides 10_whiteLine3.jpg	Medium_e13_stereo_44KHz.wav
1	15	2	1	0	C	1	0	1533	0	poli_8sides 8_whiteLine3.jpg	Medium_e21_stereo_44KHz.wav
1	16	3	3	2	I	2	0	973	1	poli_8sides 6_whiteLine3.jpg	MediumLong_e04_stereo_44KHz.wav
1	17	2	2	1	C	2	0	1301	0	poli_8sides 8_whiteLine3.jpg	MediumLong_b10_cut2_L_stereo_44KHz.wav
1	18	3	4	2	I	2	0	904	1	poli_8sides 6_whiteLine3.jpg	Medium_e13_stereo_44KHz.wav
1	19	1	2	0	C	2	1	893	1	poli_8sides 7_whiteLine3.jpg	MediumLong_b10_cut2_L_stereo_44KHz.wav
1	20	4	4	2	I	2	0	1031	1	poli_8sides 10_whiteLine3.jpg	Medium_e13_stereo_44KHz.wav
1	21	3	3	2	I	2	0	966	1	poli_8sides 6_whiteLine3.jpg	MediumLong_e04_stereo_44KHz.wav
1	22	1	1	1	C	1	1	1041	1	poli_8sides 7_whiteLine3.jpg	Medium_e21_stereo_44KHz.wav
1	23	4	3	2	I	2	0	969	0	poli_8sides 10_whiteLine3.jpg	MediumLong_e04_stereo_44KHz.wav
1	24	2	1	0	C	2	1	889	1	poli_8sides 8_whiteLine3.jpg	Medium_e21_stereo_44KHz.wav
1	25	4	4	2	I	2	0	1026	1	poli_8sides 10_whiteLine3.jpg	Medium_e13_stereo_44KHz.wav
1	26	3	4	2	I	1	0	870	1	poli_8sides 6_whiteLine3.jpg	Medium_e13_stereo_44KHz.wav
1	27	2	1	0	C	2	1	945	1	poli_8sides 8_whiteLine3.jpg	Medium_e21_stereo_44KHz.wav
1	28	1	1	1	C	1	1	836	1	poli_8sides 7_whiteLine3.jpg	Medium_e21_stereo_44KHz.wav
1	29	2	2	1	C	1	1	1148	1	poli_8sides 8_whiteLine3.jpg	MediumLong_b10_cut2_L_stereo_44KHz.wav
1	30	4	3	2	I	1	0	1518	0	poli_8sides 10_whiteLine3.jpg	MediumLong_e04_stereo_44KHz.wav
1	31	3	3	2	I	1	0	965	1	poli_8sides 6_whiteLine3.jpg	MediumLong_e04_stereo_44KHz.wav
1	32	1	2	0	C	2	1	811	1	poli_8sides 7_whiteLine3.jpg	MediumLong_b10_cut2_L_stereo_44KHz.wav
1	33	2	1	0	C	2	1	801	1	poli_8sides 8_whiteLine3.jpg	Medium_e21_stereo_44KHz.wav
1	34	3	3	2	I	2	0	640	1	poli_8sides 6_whiteLine3.jpg	MediumLong_e04_stereo_44KHz.wav
1	35	4	3	2	I	1	0	893	1	poli_8sides 10_whiteLine3.jpg	MediumLong_e04_stereo_44KHz.wav
1	36	1	1	1	C	2	0	1131	0	poli_8sides 7_whiteLine3.jpg	Medium_e21_stereo_44KHz.wav
1	37	3	4	2	I	2	0	1181	0	poli_8sides 6_whiteLine3.jpg	Medium_e13_stereo_44KHz.wav
1	38	2	2	1	C	2	0	851	0	poli_8sides 8_whiteLine3.jpg	MediumLong_b10_cut2_L_stereo_44KHz.wav
1	39	4	4	2	I	2	0	877	0	poli_8sides 10_whiteLine3.jpg	Medium_e13_stereo_44KHz.wav
1	40	1	2	0	C	2	1	1016	1	poli_8sides 7_whiteLine3.jpg	MediumLong_b10_cut2_L_stereo_44KHz.wav
1	41	3	3	2	I	2	0	906	1	poli_8sides 6_whiteLine3.jpg	MediumLong_e04_stereo_44KHz.wav
1	42	1	1	1	C	2	0	1148	0	poli_8sides 7_whiteLine3.jpg	Medium_e21_stereo_44KHz.wav
1	43	2	1	0	C	2	1	901	1	poli_8sides 8_whiteLine3.jpg	Medium_e21_stereo_44KHz.wav
1	44	4	3	2	I	2	0	1019	0	poli_8sides 10_whiteLine3.jpg	MediumLong_e04_stereo_44KHz.wav
1	45	1	2	0	C	2	1	923	1	poli_8sides 7_whiteLine3.jpg	MediumLong_b10_cut2_L_stereo_44KHz.wav
1	46	2	2	1	C	1	1	1320	1	poli_8sides 8_whiteLine3.jpg	MediumLong_b10_cut2_L_stereo_44KHz.wav
1	47	3	4	2	I	2	0	896	0	poli_8sides 6_whiteLine3.jpg	Medium_e13_stereo_44KHz.wav
1	48	4	4	2	I	2	0	787	0	poli_8sides 10_whiteLine3.jpg	Medium_e13_stereo_44KHz.wav
1	49	1	2	0	C	2	1	715	1	poli_8sides 7_whiteLine3.jpg	MediumLong_b10_cut2_L_stereo_44KHz.wav
1	50	4	3	2	I	1	0	1210	0	poli_8sides 10_whiteLine3.jpg	MediumLong_e04_stereo_44KHz.wav
1	51	2	1	0	C	2	1	694	1	poli_8sides 8_whiteLine3.jpg	Medium_e21_stereo_44KHz.wav
1	52	3	3	2	I	1	0	942	0	poli_8sides 6_whiteLine3.jpg	MediumLong_e04_stereo_44KHz.wav
1	53	2	2	1	C	1	1	1232	1	poli_8sides 8_whiteLine3.jpg	MediumLong_b10_cut2_L_stereo_44KHz.wav
1	54	1	1	1	C	1	1	1587	1	poli_8sides 7_whiteLine3.jpg	Medium_e21_stereo_44KHz.wav
1	55	4	4	2	I	1	0	1628	0	poli_8sides 10_whiteLine3.jpg	Medium_e13_stereo_44KHz.wav
1	56	3	4	2	I	1	0	1062	0	poli_8sides 6_whiteLine3.jpg	Medium_e13_stereo_44KHz.wav
1	57	2	1	0	C	2	1	701	1	poli_8sides 8_whiteLine3.jpg	Medium_e21_stereo_44KHz.wav
1	58	3	3	2	I	1	0	1330	0	poli_8sides 6_whiteLine3.jpg	MediumLong_e04_stereo_44KHz.wav
1	59	4	4	2	I	2	0	1200	0	poli_8sides 10_whiteLine3.jpg	Medium_e13_stereo_44KHz.wav
1	60	1	2	0	C	2	1	910	1	poli_8sides 7_whiteLine3.jpg	MediumLong_b10_cut2_L_stereo_44KHz.wav
1	61	2	2	1	C	1	1	1190	1	poli_8sides 8_whiteLine3.jpg	MediumLong_b10_cut2_L_stereo_44KHz.wav
1	62	3	4	2	I	1	0	1321	0	poli_8sides 6_whiteLine3.jpg	Medium_e13_stereo_44KHz.wav
1	63	1	1	1	C	1	1	1089	1	poli_8sides 7_whiteLine3.jpg	Medium_e21_stereo_44KHz.wav
1	64	4	3	2	I	2	0	1175	0	poli_8sides 10_whiteLine3.jpg	MediumLong_e04_stereo_44KHz.wav
1	65	3	3	2	I	2	0	696	1	poli_8sides 6_whiteLine3.jpg	MediumLong_e04_stereo_44KHz.wav
1	66	2	2	1	C	1	1	1326	1	poli_8sides 8_whiteLine3.jpg	MediumLong_b10_cut2_L_stereo_44KHz.wav
1	67	4	3	2	I	2	0	963	1	poli_8sides 10_whiteLine3.jpg	MediumLong_e04_stereo_44KHz.wav
1	68	1	2	0	C	2	1	982	1	poli_8sides 7_whiteLine3.jpg	MediumLong_b10_cut2_L_stereo_44KHz.wav
1	69	2	1	0	C	2	1	778	1	poli_8sides 8_whiteLine3.jpg	Medium_e21_stereo_44KHz.wav
1	70	1	1	1	C	1	1	1315	1	poli_8sides 7_whiteLine3.jpg	Medium_e21_stereo_44KHz.wav
1	71	4	4	2	I	2	0	1302	0	poli_8sides 10_whiteLine3.jpg	Medium_e13_stereo_44KHz.wav
1	72	3	4	2	I	1	0	1108	0	poli_8sides 6_whiteLine3.jpg	Medium_e13_stereo_44KHz.wav
1	73	1	2	0	C	2	1	1150	1	poli_8sides 7_whiteLine3.jpg	MediumLong_b10_cut2_L_stereo_44KHz.wav
1	74	3	4	2	I	2	0	920	0	poli_8sides 6_whiteLine3.jpg	Medium_e13_stereo_44KHz.wav
1	75	4	4	2	I	2	0	742	0	poli_8sides 10_whiteLine3.jpg	Medium_e13_stereo_44KHz.wav
1	76	2	1	0	C	2	1	767	1	poli_8sides 8_whiteLine3.jpg	Medium_e21_stereo_44KHz.wav
1	77	1	1	1	C	1	1	924	1	poli_8sides 7_whiteLine3.jpg	Medium_e21_stereo_44KHz.wav
1	78	3	3	2	I	2	0	851	1	poli_8sides 6_whiteLine3.jpg	MediumLong_e04_stereo_44KHz.wav
1	79	2	2	1	C	1	1	1057	1	poli_8sides 8_whiteLine3.jpg	MediumLong_b10_cut2_L_stereo_44KHz.wav
1	80	4	3	2	I	2	0	1011	1	poli_8sides 10_whiteLine3.jpg	MediumLong_e04_stereo_44KHz.wav
1	81	3	4	2	I	1	0	1116	0	poli_8sides 6_whiteLine3.jpg	Medium_e13_stereo_44KHz.wav
1	82	4	4	2	I	2	0	575	0	poli_8sides 10_whiteLine3.jpg	Medium_e13_stereo_44KHz.wav
1	83	2	2	1	C	1	1	1070	1	poli_8sides 8_whiteLine3.jpg	MediumLong_b10_cut2_L_stereo_44KHz.wav
1	84	1	2	0	C	2	1	916	1	poli_8sides 7_whiteLine3.jpg	MediumLong_b10_cut2_L_stereo_44KHz.wav
1	85	3	3	2	I	2	0	772	0	poli_8sides 6_whiteLine3.jpg	MediumLong_e04_stereo_44KHz.wav
1	86	4	3	2	I	2	0	1099	1	poli_8sides 10_whiteLine3.jpg	MediumLong_e04_stereo_44KHz.wav
1	87	1	1	1	C	1	1	911	1	poli_8sides 7_whiteLine3.jpg	Medium_e21_stereo_44KHz.wav
1	88	2	1	0	C	2	1	1012	1	poli_8sides 8_whiteLine3.jpg	Medium_e21_stereo_44KHz.wav
1	89	1	1	1	C	1	1	830	1	poli_8sides 7_whiteLine3.jpg	Medium_e21_stereo_44KHz.wav
1	90	3	3	2	I	2	0	913	1	poli_8sides 6_whiteLine3.jpg	MediumLong_e04_stereo_44KHz.wav
1	91	4	3	2	I	1	0	1186	1	poli_8sides 10_whiteLine3.jpg	MediumLong_e04_stereo_44KHz.wav
1	92	2	2	1	C	1	1	1440	1	poli_8sides 8_whiteLine3.jpg	MediumLong_b10_cut2_L_stereo_44KHz.wav
1	93	4	4	2	I	1	0	1793	1	poli_8sides 10_whiteLine3.jpg	Medium_e13_stereo_44KHz.wav
1	94	2	1	0	C	2	1	1430	1	poli_8sides 8_whiteLine3.jpg	Medium_e21_stereo_44KHz.wav
1	95	1	2	0	C	2	1	1014	1	poli_8sides 7_whiteLine3.jpg	MediumLong_b10_cut2_L_stereo_44KHz.wav
1	96	3	4	2	I	2	0	1269	1	poli_8sides 6_whiteLine3.jpg	Medium_e13_stereo_44KHz.wav
1	97	2	1	0	C	2	1	889	1	poli_8sides 8_whiteLine3.jpg	Medium_e21_stereo_44KHz.wav
1	98	4	3	2	I	2	0	1200	0	poli_8sides 10_whiteLine3.jpg	MediumLong_e04_stereo_44KHz.wav
1	99	3	4	2	I	2	0	1770	0	poli_8sides 6_whiteLine3.jpg	Medium_e13_stereo_44KHz.wav
1	100	1	2	0	C	2	1	728	1	poli_8sides 7_whiteLine3.jpg	MediumLong_b10_cut2_L_stereo_44KHz.wav
1	101	3	3	2	I	2	0	861	0	poli_8sides 6_whiteLine3.jpg	MediumLong_e04_stereo_44KHz.wav
1	102	2	2	1	C	1	1	1208	1	poli_8sides 8_whiteLine3.jpg	MediumLong_b10_cut2_L_stereo_44KHz.wav
1	103	1	1	1	C	1	1	1806	1	poli_8sides 7_whiteLine3.jpg	Medium_e21_stereo_44KHz.wav
1	104	4	4	2	I	2	0	1300	0	poli_8sides 10_whiteLine3.jpg	Medium_e13_stereo_44KHz.wav
1	105	1	1	1	C	1	1	1139	1	poli_8sides 7_whiteLine3.jpg	Medium_e21_stereo_44KHz.wav
1	106	3	4	2	I	2	0	1039	0	poli_8sides 6_whiteLine3.jpg	Medium_e13_stereo_44KHz.wav
1	107	2	1	0	C	2	1	1070	1	poli_8sides 8_whiteLine3.jpg	Medium_e21_stereo_44KHz.wav
1	108	4	3	2	I	2	0	1069	1	poli_8sides 10_whiteLine3.jpg	MediumLong_e04_stereo_44KHz.wav
1	109	1	2	0	C	2	1	859	1	poli_8sides 7_whiteLine3.jpg	MediumLong_b10_cut2_L_stereo_44KHz.wav
1	110	2	2	1	C	1	1	1023	1	poli_8sides 8_whiteLine3.jpg	MediumLong_b10_cut2_L_stereo_44KHz.wav
1	111	4	4	2	I	1	0	980	1	poli_8sides 10_whiteLine3.jpg	Medium_e13_stereo_44KHz.wav
1	112	3	3	2	I	2	0	1076	1	poli_8sides 6_whiteLine3.jpg	MediumLong_e04_stereo_44KHz.wav
1	113	4	4	2	I	1	0	1408	1	poli_8sides 10_whiteLine3.jpg	Medium_e13_stereo_44KHz.wav
1	114	2	2	1	C	1	1	1027	1	poli_8sides 8_whiteLine3.jpg	MediumLong_b10_cut2_L_stereo_44KHz.wav
1	115	3	3	2	I	1	0	1251	1	poli_8sides 6_whiteLine3.jpg	MediumLong_e04_stereo_44KHz.wav
1	116	1	1	1	C	1	1	899	1	poli_8sides 7_whiteLine3.jpg	Medium_e21_stereo_44KHz.wav
1	117	4	3	2	I	2	0	995	1	poli_8sides 10_whiteLine3.jpg	MediumLong_e04_stereo_44KHz.wav
1	118	3	4	2	I	1	0	1225	0	poli_8sides 6_whiteLine3.jpg	Medium_e13_stereo_44KHz.wav
1	119	1	2	0	C	2	1	657	1	poli_8sides 7_whiteLine3.jpg	MediumLong_b10_cut2_L_stereo_44KHz.wav
1	120	2	1	0	C	2	1	829	1	poli_8sides 8_whiteLine3.jpg	Medium_e21_stereo_44KHz.wav
1	121	4	4	2	I	1	0	961	1	poli_8sides 10_whiteLine3.jpg	Medium_e13_stereo_44KHz.wav
1	122	1	1	1	C	1	1	980	1	poli_8sides 7_whiteLine3.jpg	Medium_e21_stereo_44KHz.wav
1	123	2	1	0	C	2	1	784	1	poli_8sides 8_whiteLine3.jpg	Medium_e21_stereo_44KHz.wav
1	124	3	4	2	I	2	0	898	0	poli_8sides 6_whiteLine3.jpg	Medium_e13_stereo_44KHz.wav
1	125	2	2	1	C	1	1	989	1	poli_8sides 8_whiteLine3.jpg	MediumLong_b10_cut2_L_stereo_44KHz.wav
1	126	3	3	2	I	1	0	940	0	poli_8sides 6_whiteLine3.jpg	MediumLong_e04_stereo_44KHz.wav
1	127	1	2	0	C	2	1	893	1	poli_8sides 7_whiteLine3.jpg	MediumLong_b10_cut2_L_stereo_44KHz.wav
1	128	4	3	2	I	2	0	671	0	poli_8sides 10_whiteLine3.jpg	MediumLong_e04_stereo_44KHz.wav
1	129	2	1	0	C	2	1	929	1	poli_8sides 8_whiteLine3.jpg	Medium_e21_stereo_44KHz.wav
1	130	1	2	0	C	2	1	678	1	poli_8sides 7_whiteLine3.jpg	MediumLong_b10_cut2_L_stereo_44KHz.wav
1	131	3	4	2	I	1	0	1155	1	poli_8sides 6_whiteLine3.jpg	Medium_e13_stereo_44KHz.wav
1	132	4	3	2	I	2	0	1041	1	poli_8sides 10_whiteLine3.jpg	MediumLong_e04_stereo_44KHz.wav
1	133	1	1	1	C	1	1	979	1	poli_8sides 7_whiteLine3.jpg	Medium_e21_stereo_44KHz.wav
1	134	2	2	1	C	1	1	1154	1	poli_8sides 8_whiteLine3.jpg	MediumLong_b10_cut2_L_stereo_44KHz.wav
1	135	4	4	2	I	2	0	1119	0	poli_8sides 10_whiteLine3.jpg	Medium_e13_stereo_44KHz.wav
1	136	3	3	2	I	1	0	1219	0	poli_8sides 6_whiteLine3.jpg	MediumLong_e04_stereo_44KHz.wav
1	137	4	4	2	I	1	0	1239	1	poli_8sides 10_whiteLine3.jpg	Medium_e13_stereo_44KHz.wav
1	138	3	4	2	I	2	0	1420	0	poli_8sides 6_whiteLine3.jpg	Medium_e13_stereo_44KHz.wav
1	139	1	1	1	C	1	1	866	1	poli_8sides 7_whiteLine3.jpg	Medium_e21_stereo_44KHz.wav
1	140	2	2	1	C	1	1	927	1	poli_8sides 8_whiteLine3.jpg	MediumLong_b10_cut2_L_stereo_44KHz.wav
1	141	4	3	2	I	2	0	970	0	poli_8sides 10_whiteLine3.jpg	MediumLong_e04_stereo_44KHz.wav
1	142	3	3	2	I	2	0	1129	1	poli_8sides 6_whiteLine3.jpg	MediumLong_e04_stereo_44KHz.wav
1	143	1	2	0	C	2	1	740	1	poli_8sides 7_whiteLine3.jpg	MediumLong_b10_cut2_L_stereo_44KHz.wav
1	144	2	1	0	C	2	1	1299	1	poli_8sides 8_whiteLine3.jpg	Medium_e21_stereo_44KHz.wav
1	145	4	4	2	I	2	0	1167	1	poli_8sides 10_whiteLine3.jpg	Medium_e13_stereo_44KHz.wav
1	146	2	1	0	C	2	1	1152	1	poli_8sides 8_whiteLine3.jpg	Medium_e21_stereo_44KHz.wav
1	147	3	4	2	I	1	0	912	1	poli_8sides 6_whiteLine3.jpg	Medium_e13_stereo_44KHz.wav
1	148	1	2	0	C	2	1	765	1	poli_8sides 7_whiteLine3.jpg	MediumLong_b10_cut2_L_stereo_44KHz.wav
1	149	2	2	1	C	1	1	1040	1	poli_8sides 8_whiteLine3.jpg	MediumLong_b10_cut2_L_stereo_44KHz.wav
1	150	4	3	2	I	1	0	1433	0	poli_8sides 10_whiteLine3.jpg	MediumLong_e04_stereo_44KHz.wav
1	151	1	1	1	C	1	1	997	1	poli_8sides 7_whiteLine3.jpg	Medium_e21_stereo_44KHz.wav
1	152	3	3	2	I	2	0	996	0	poli_8sides 6_whiteLine3.jpg	MediumLong_e04_stereo_44KHz.wav
1	153	2	2	1	C	1	1	1450	1	poli_8sides 8_whiteLine3.jpg	MediumLong_b10_cut2_L_stereo_44KHz.wav
1	154	4	3	2	I	2	0	1058	1	poli_8sides 10_whiteLine3.jpg	MediumLong_e04_stereo_44KHz.wav
1	155	1	1	1	C	1	1	1902	1	poli_8sides 7_whiteLine3.jpg	Medium_e21_stereo_44KHz.wav
1	156	3	4	2	I	2	0	1030	0	poli_8sides 6_whiteLine3.jpg	Medium_e13_stereo_44KHz.wav
1	157	4	4	2	I	2	0	920	0	poli_8sides 10_whiteLine3.jpg	Medium_e13_stereo_44KHz.wav
1	158	3	3	2	I	2	0	1116	1	poli_8sides 6_whiteLine3.jpg	MediumLong_e04_stereo_44KHz.wav
1	159	2	1	0	C	2	1	1113	1	poli_8sides 8_whiteLine3.jpg	Medium_e21_stereo_44KHz.wav
1	160	1	2	0	C	2	1	789	1	poli_8sides 7_whiteLine3.jpg	MediumLong_b10_cut2_L_stereo_44KHz.wav
1	161	3	3	2	I	1	0	1406	0	poli_8sides 6_whiteLine3.jpg	MediumLong_e04_stereo_44KHz.wav
1	162	4	3	2	I	2	0	784	1	poli_8sides 10_whiteLine3.jpg	MediumLong_e04_stereo_44KHz.wav
1	163	1	2	0	C	2	1	913	1	poli_8sides 7_whiteLine3.jpg	MediumLong_b10_cut2_L_stereo_44KHz.wav
1	164	2	1	0	C	2	1	883	1	poli_8sides 8_whiteLine3.jpg	Medium_e21_stereo_44KHz.wav
1	165	1	1	1	C	2	0	755	0	poli_8sides 7_whiteLine3.jpg	Medium_e21_stereo_44KHz.wav
1	166	4	4	2	I	2	0	874	0	poli_8sides 10_whiteLine3.jpg	Medium_e13_stereo_44KHz.wav
1	167	3	4	2	I	2	0	705	1	poli_8sides 6_whiteLine3.jpg	Medium_e13_stereo_44KHz.wav
1	168	2	2	1	C	1	1	1166	1	poli_8sides 8_whiteLine3.jpg	MediumLong_b10_cut2_L_stereo_44KHz.wav
1	169	3	3	2	I	2	0	1008	0	poli_8sides 6_whiteLine3.jpg	MediumLong_e04_stereo_44KHz.wav
1	170	4	4	2	I	2	0	1375	0	poli_8sides 10_whiteLine3.jpg	Medium_e13_stereo_44KHz.wav
1	171	1	1	1	C	1	1	1278	1	poli_8sides 7_whiteLine3.jpg	Medium_e21_stereo_44KHz.wav
1	172	2	2	1	C	1	1	1082	1	poli_8sides 8_whiteLine3.jpg	MediumLong_b10_cut2_L_stereo_44KHz.wav
1	173	1	2	0	C	2	1	867	1	poli_8sides 7_whiteLine3.jpg	MediumLong_b10_cut2_L_stereo_44KHz.wav
1	174	2	1	0	C	2	1	995	1	poli_8sides 8_whiteLine3.jpg	Medium_e21_stereo_44KHz.wav
1	175	4	3	2	I	2	0	1203	1	poli_8sides 10_whiteLine3.jpg	MediumLong_e04_stereo_44KHz.wav
1	176	3	4	2	I	2	0	1062	1	poli_8sides 6_whiteLine3.jpg	Medium_e13_stereo_44KHz.wav
1	177	2	2	1	C	1	1	1219	1	poli_8sides 8_whiteLine3.jpg	MediumLong_b10_cut2_L_stereo_44KHz.wav
1	178	3	3	2	I	2	0	1574	0	poli_8sides 6_whiteLine3.jpg	MediumLong_e04_stereo_44KHz.wav
1	179	1	2	0	C	2	1	878	1	poli_8sides 7_whiteLine3.jpg	MediumLong_b10_cut2_L_stereo_44KHz.wav
1	180	4	3	2	I	2	0	579	1	poli_8sides 10_whiteLine3.jpg	MediumLong_e04_stereo_44KHz.wav
1	181	1	1	1	C	1	1	1210	1	poli_8sides 7_whiteLine3.jpg	Medium_e21_stereo_44KHz.wav
1	182	2	1	0	C	1	0	1073	0	poli_8sides 8_whiteLine3.jpg	Medium_e21_stereo_44KHz.wav
1	183	4	4	2	I	1	0	1227	0	poli_8sides 10_whiteLine3.jpg	Medium_e13_stereo_44KHz.wav
1	184	3	4	2	I	1	0	1466	1	poli_8sides 6_whiteLine3.jpg	Medium_e13_stereo_44KHz.wav
1	185	2	2	1	C	1	1	1114	1	poli_8sides 8_whiteLine3.jpg	MediumLong_b10_cut2_L_stereo_44KHz.wav
1	186	4	4	2	I	1	0	1138	0	poli_8sides 10_whiteLine3.jpg	Medium_e13_stereo_44KHz.wav
1	187	3	4	2	I	2	0	1382	1	poli_8sides 6_whiteLine3.jpg	Medium_e13_stereo_44KHz.wav
1	188	1	1	1	C	1	1	922	1	poli_8sides 7_whiteLine3.jpg	Medium_e21_stereo_44KHz.wav
1	189	3	3	2	I	1	0	1327	1	poli_8sides 6_whiteLine3.jpg	MediumLong_e04_stereo_44KHz.wav
1	190	4	3	2	I	2	0	1631	1	poli_8sides 10_whiteLine3.jpg	MediumLong_e04_stereo_44KHz.wav
1	191	2	1	0	C	2	1	1287	1	poli_8sides 8_whiteLine3.jpg	Medium_e21_stereo_44KHz.wav
1	192	1	2	0	C	2	1	874	1	poli_8sides 7_whiteLine3.jpg	MediumLong_b10_cut2_L_stereo_44KHz.wav
1	193	2	1	0	C	2	1	1242	1	poli_8sides 8_whiteLine3.jpg	Medium_e21_stereo_44KHz.wav
1	194	1	1	1	C	1	1	817	1	poli_8sides 7_whiteLine3.jpg	Medium_e21_stereo_44KHz.wav
1	195	4	3	2	I	2	0	1353	1	poli_8sides 10_whiteLine3.jpg	MediumLong_e04_stereo_44KHz.wav
1	196	3	4	2	I	0	0	0	0	poli_8sides 6_whiteLine3.jpg	Medium_e13_stereo_44KHz.wav
1	197	4	4	2	I	1	0	911	1	poli_8sides 10_whiteLine3.jpg	Medium_e13_stereo_44KHz.wav
1	198	3	3	2	I	2	0	1926	1	poli_8sides 6_whiteLine3.jpg	MediumLong_e04_stereo_44KHz.wav
1	199	2	2	1	C	1	1	1160	1	poli_8sides 8_whiteLine3.jpg	MediumLong_b10_cut2_L_stereo_44KHz.wav
1	200	1	2	0	C	2	1	946	1	poli_8sides 7_whiteLine3.jpg	MediumLong_b10_cut2_L_stereo_44KHz.wav
2	1	3	3	2	I	0	0	0	0	poli_8sides 16_whiteLine3.jpg	MediumLong_e17_cut2_stereo_44KHz.wav
2	2	4	3	2	I	2	0	1164	0	poli_8sides 12_whiteLine3.jpg	MediumLong_e17_cut2_stereo_44KHz.wav
2	3	2	1	0	C	1	0	1193	0	poli_8sides 13_whiteLine3.jpg	MediumLong_e19_stereo_44KHz.wav
2	4	1	1	1	C	2	0	1359	0	poli_8sides 11_whiteLine3.jpg	MediumLong_e19_stereo_44KHz.wav
2	5	3	4	2	I	2	0	950	1	poli_8sides 16_whiteLine3.jpg	Medium_e01_cut1_stereo_44KHz.wav
2	6	4	4	2	I	1	0	886	1	poli_8sides 12_whiteLine3.jpg	Medium_e01_cut1_stereo_44KHz.wav
2	7	1	2	0	C	2	1	1375	1	poli_8sides 11_whiteLine3.jpg	Medium_e26_stereo_44KHz.wav
2	8	2	2	1	C	1	1	949	1	poli_8sides 13_whiteLine3.jpg	Medium_e26_stereo_44KHz.wav
2	9	4	3	2	I	1	0	1414	0	poli_8sides 12_whiteLine3.jpg	MediumLong_e17_cut2_stereo_44KHz.wav
2	10	1	2	0	C	2	1	830	1	poli_8sides 11_whiteLine3.jpg	Medium_e26_stereo_44KHz.wav
2	11	3	3	2	I	2	0	775	1	poli_8sides 16_whiteLine3.jpg	MediumLong_e17_cut2_stereo_44KHz.wav
2	12	2	2	1	C	2	0	1673	0	poli_8sides 13_whiteLine3.jpg	Medium_e26_stereo_44KHz.wav
2	13	1	1	1	C	1	1	1273	1	poli_8sides 11_whiteLine3.jpg	MediumLong_e19_stereo_44KHz.wav
2	14	2	1	0	C	2	1	1061	1	poli_8sides 13_whiteLine3.jpg	MediumLong_e19_stereo_44KHz.wav
2	15	4	4	2	I	1	0	1837	1	poli_8sides 12_whiteLine3.jpg	Medium_e01_cut1_stereo_44KHz.wav
2	16	3	4	2	I	2	0	1148	1	poli_8sides 16_whiteLine3.jpg	Medium_e01_cut1_stereo_44KHz.wav
2	17	1	2	0	C	2	1	958	1	poli_8sides 11_whiteLine3.jpg	Medium_e26_stereo_44KHz.wav
2	18	4	4	2	I	1	0	972	0	poli_8sides 12_whiteLine3.jpg	Medium_e01_cut1_stereo_44KHz.wav
2	19	2	2	1	C	2	0	940	0	poli_8sides 13_whiteLine3.jpg	Medium_e26_stereo_44KHz.wav
2	20	3	4	2	I	2	0	1409	1	poli_8sides 16_whiteLine3.jpg	Medium_e01_cut1_stereo_44KHz.wav
2	21	1	1	1	C	1	1	1104	1	poli_8sides 11_whiteLine3.jpg	MediumLong_e19_stereo_44KHz.wav
2	22	2	1	0	C	2	1	1009	1	poli_8sides 13_whiteLine3.jpg	MediumLong_e19_stereo_44KHz.wav
2	23	4	3	2	I	2	0	1536	1	poli_8sides 12_whiteLine3.jpg	MediumLong_e17_cut2_stereo_44KHz.wav
2	24	3	3	2	I	1	0	1201	0	poli_8sides 16_whiteLine3.jpg	MediumLong_e17_cut2_stereo_44KHz.wav
2	25	2	2	1	C	1	1	1678	1	poli_8sides 13_whiteLine3.jpg	Medium_e26_stereo_44KHz.wav
2	26	4	3	2	I	1	0	1351	0	poli_8sides 12_whiteLine3.jpg	MediumLong_e17_cut2_stereo_44KHz.wav
2	27	1	1	1	C	1	1	1517	1	poli_8sides 11_whiteLine3.jpg	MediumLong_e19_stereo_44KHz.wav
2	28	3	4	2	I	2	0	762	1	poli_8sides 16_whiteLine3.jpg	Medium_e01_cut1_stereo_44KHz.wav
2	29	4	4	2	I	1	0	840	1	poli_8sides 12_whiteLine3.jpg	Medium_e01_cut1_stereo_44KHz.wav
2	30	3	3	2	I	1	0	1229	1	poli_8sides 16_whiteLine3.jpg	MediumLong_e17_cut2_stereo_44KHz.wav
2	31	2	1	0	C	2	1	893	1	poli_8sides 13_whiteLine3.jpg	MediumLong_e19_stereo_44KHz.wav
2	32	1	2	0	C	2	1	734	1	poli_8sides 11_whiteLine3.jpg	Medium_e26_stereo_44KHz.wav
2	33	2	2	1	C	1	1	681	1	poli_8sides 13_whiteLine3.jpg	Medium_e26_stereo_44KHz.wav
2	34	3	3	2	I	2	0	950	0	poli_8sides 16_whiteLine3.jpg	MediumLong_e17_cut2_stereo_44KHz.wav
2	35	1	2	0	C	2	1	652	1	poli_8sides 11_whiteLine3.jpg	Medium_e26_stereo_44KHz.wav
2	36	4	4	2	I	1	0	1320	1	poli_8sides 12_whiteLine3.jpg	Medium_e01_cut1_stereo_44KHz.wav
2	37	3	4	2	I	2	0	829	1	poli_8sides 16_whiteLine3.jpg	Medium_e01_cut1_stereo_44KHz.wav
2	38	4	3	2	I	2	0	1121	1	poli_8sides 12_whiteLine3.jpg	MediumLong_e17_cut2_stereo_44KHz.wav
2	39	2	1	0	C	2	1	934	1	poli_8sides 13_whiteLine3.jpg	MediumLong_e19_stereo_44KHz.wav
2	40	1	1	1	C	1	1	897	1	poli_8sides 11_whiteLine3.jpg	MediumLong_e19_stereo_44KHz.wav
2	41	4	4	2	I	1	0	1524	0	poli_8sides 12_whiteLine3.jpg	Medium_e01_cut1_stereo_44KHz.wav
2	42	3	4	2	I	2	0	1046	0	poli_8sides 16_whiteLine3.jpg	Medium_e01_cut1_stereo_44KHz.wav
2	43	1	2	0	C	2	1	593	1	poli_8sides 11_whiteLine3.jpg	Medium_e26_stereo_44KHz.wav
2	44	2	2	1	C	1	1	857	1	poli_8sides 13_whiteLine3.jpg	Medium_e26_stereo_44KHz.wav
2	45	1	1	1	C	1	1	884	1	poli_8sides 11_whiteLine3.jpg	MediumLong_e19_stereo_44KHz.wav
2	46	2	1	0	C	2	1	967	1	poli_8sides 13_whiteLine3.jpg	MediumLong_e19_stereo_44KHz.wav
2	47	3	3	2	I	1	0	962	1	poli_8sides 16_whiteLine3.jpg	MediumLong_e17_cut2_stereo_44KHz.wav
2	48	4	3	2	I	1	0	1208	0	poli_8sides 12_whiteLine3.jpg	MediumLong_e17_cut2_stereo_44KHz.wav
2	49	1	2	0	C	2	1	657	1	poli_8sides 11_whiteLine3.jpg	Medium_e26_stereo_44KHz.wav
2	50	2	1	0	C	2	1	1232	1	poli_8sides 13_whiteLine3.jpg	MediumLong_e19_stereo_44KHz.wav
2	51	4	3	2	I	1	0	1303	0	poli_8sides 12_whiteLine3.jpg	MediumLong_e17_cut2_stereo_44KHz.wav
2	52	3	3	2	I	1	0	1332	1	poli_8sides 16_whiteLine3.jpg	MediumLong_e17_cut2_stereo_44KHz.wav
2	53	2	2	1	C	1	1	1242	1	poli_8sides 13_whiteLine3.jpg	Medium_e26_stereo_44KHz.wav
2	54	4	4	2	I	2	0	1366	1	poli_8sides 12_whiteLine3.jpg	Medium_e01_cut1_stereo_44KHz.wav
2	55	1	1	1	C	1	1	1143	1	poli_8sides 11_whiteLine3.jpg	MediumLong_e19_stereo_44KHz.wav
2	56	3	4	2	I	2	0	967	1	poli_8sides 16_whiteLine3.jpg	Medium_e01_cut1_stereo_44KHz.wav
2	57	1	1	1	C	1	1	892	1	poli_8sides 11_whiteLine3.jpg	MediumLong_e19_stereo_44KHz.wav
2	58	3	4	2	I	2	0	835	0	poli_8sides 16_whiteLine3.jpg	Medium_e01_cut1_stereo_44KHz.wav
2	59	2	2	1	C	2	0	925	0	poli_8sides 13_whiteLine3.jpg	Medium_e26_stereo_44KHz.wav
2	60	4	3	2	I	1	0	1381	1	poli_8sides 12_whiteLine3.jpg	MediumLong_e17_cut2_stereo_44KHz.wav
2	61	1	2	0	C	2	1	758	1	poli_8sides 11_whiteLine3.jpg	Medium_e26_stereo_44KHz.wav
2	62	3	3	2	I	1	0	961	0	poli_8sides 16_whiteLine3.jpg	MediumLong_e17_cut2_stereo_44KHz.wav
2	63	4	4	2	I	2	0	1400	1	poli_8sides 12_whiteLine3.jpg	Medium_e01_cut1_stereo_44KHz.wav
2	64	2	1	0	C	2	1	1078	1	poli_8sides 13_whiteLine3.jpg	MediumLong_e19_stereo_44KHz.wav
2	65	3	3	2	I	1	0	1408	0	poli_8sides 16_whiteLine3.jpg	MediumLong_e17_cut2_stereo_44KHz.wav
2	66	2	1	0	C	2	1	833	1	poli_8sides 13_whiteLine3.jpg	MediumLong_e19_stereo_44KHz.wav
2	67	1	1	1	C	2	0	442	0	poli_8sides 11_whiteLine3.jpg	MediumLong_e19_stereo_44KHz.wav
2	68	4	3	2	I	1	0	1219	0	poli_8sides 12_whiteLine3.jpg	MediumLong_e17_cut2_stereo_44KHz.wav
2	69	2	2	1	C	1	1	1453	1	poli_8sides 13_whiteLine3.jpg	Medium_e26_stereo_44KHz.wav
2	70	1	2	0	C	2	1	456	1	poli_8sides 11_whiteLine3.jpg	Medium_e26_stereo_44KHz.wav
2	71	3	4	2	I	2	0	975	0	poli_8sides 16_whiteLine3.jpg	Medium_e01_cut1_stereo_44KHz.wav
2	72	4	4	2	I	2	0	1385	0	poli_8sides 12_whiteLine3.jpg	Medium_e01_cut1_stereo_44KHz.wav
2	73	1	2	0	C	2	1	1327	1	poli_8sides 11_whiteLine3.jpg	Medium_e26_stereo_44KHz.wav
2	74	4	4	2	I	2	0	1291	0	poli_8sides 12_whiteLine3.jpg	Medium_e01_cut1_stereo_44KHz.wav
2	75	3	4	2	I	2	0	1138	0	poli_8sides 16_whiteLine3.jpg	Medium_e01_cut1_stereo_44KHz.wav
2	76	2	1	0	C	2	1	1516	1	poli_8sides 13_whiteLine3.jpg	MediumLong_e19_stereo_44KHz.wav
2	77	4	3	2	I	1	0	1975	1	poli_8sides 12_whiteLine3.jpg	MediumLong_e17_cut2_stereo_44KHz.wav
2	78	3	3	2	I	1	0	1279	1	poli_8sides 16_whiteLine3.jpg	MediumLong_e17_cut2_stereo_44KHz.wav
2	79	2	2	1	C	1	1	1524	1	poli_8sides 13_whiteLine3.jpg	Medium_e26_stereo_44KHz.wav
2	80	1	1	1	C	1	1	830	1	poli_8sides 11_whiteLine3.jpg	MediumLong_e19_stereo_44KHz.wav
2	81	2	2	1	C	1	1	1623	1	poli_8sides 13_whiteLine3.jpg	Medium_e26_stereo_44KHz.wav
2	82	1	2	0	C	2	1	1258	1	poli_8sides 11_whiteLine3.jpg	Medium_e26_stereo_44KHz.wav
2	83	4	4	2	I	1	0	1319	0	poli_8sides 12_whiteLine3.jpg	Medium_e01_cut1_stereo_44KHz.wav
2	84	3	3	2	I	1	0	1015	0	poli_8sides 16_whiteLine3.jpg	MediumLong_e17_cut2_stereo_44KHz.wav
2	85	2	1	0	C	2	1	920	1	poli_8sides 13_whiteLine3.jpg	MediumLong_e19_stereo_44KHz.wav
2	86	4	3	2	I	1	0	1225	1	poli_8sides 12_whiteLine3.jpg	MediumLong_e17_cut2_stereo_44KHz.wav
2	87	1	1	1	C	1	1	877	1	poli_8sides 11_whiteLine3.jpg	MediumLong_e19_stereo_44KHz.wav
2	88	3	4	2	I	2	0	1089	1	poli_8sides 16_whiteLine3.jpg	Medium_e01_cut1_stereo_44KHz.wav
2	89	4	3	2	I	1	0	1714	1	poli_8sides 12_whiteLine3.jpg	MediumLong_e17_cut2_stereo_44KHz.wav
2	90	3	3	2	I	1	0	1238	1	poli_8sides 16_whiteLine3.jpg	MediumLong_e17_cut2_stereo_44KHz.wav
2	91	1	2	0	C	2	1	886	1	poli_8sides 11_whiteLine3.jpg	Medium_e26_stereo_44KHz.wav
2	92	2	2	1	C	1	1	1056	1	poli_8sides 13_whiteLine3.jpg	Medium_e26_stereo_44KHz.wav
2	93	3	4	2	I	2	0	1362	1	poli_8sides 16_whiteLine3.jpg	Medium_e01_cut1_stereo_44KHz.wav
2	94	2	1	0	C	2	1	1088	1	poli_8sides 13_whiteLine3.jpg	MediumLong_e19_stereo_44KHz.wav
2	95	1	1	1	C	1	1	816	1	poli_8sides 11_whiteLine3.jpg	MediumLong_e19_stereo_44KHz.wav
2	96	4	4	2	I	2	0	1282	0	poli_8sides 12_whiteLine3.jpg	Medium_e01_cut1_stereo_44KHz.wav
2	97	2	2	1	C	2	0	1169	0	poli_8sides 13_whiteLine3.jpg	Medium_e26_stereo_44KHz.wav
2	98	1	2	0	C	2	1	913	1	poli_8sides 11_whiteLine3.jpg	Medium_e26_stereo_44KHz.wav
2	99	4	4	2	I	2	0	1072	1	poli_8sides 12_whiteLine3.jpg	Medium_e01_cut1_stereo_44KHz.wav
2	100	3	4	2	I	1	0	1389	0	poli_8sides 16_whiteLine3.jpg	Medium_e01_cut1_stereo_44KHz.wav
2	101	1	1	1	C	1	1	964	1	poli_8sides 11_whiteLine3.jpg	MediumLong_e19_stereo_44KHz.wav
2	102	3	3	2	I	1	0	1096	1	poli_8sides 16_whiteLine3.jpg	MediumLong_e17_cut2_stereo_44KHz.wav
2	103	2	1	0	C	2	1	847	1	poli_8sides 13_whiteLine3.jpg	MediumLong_e19_stereo_44KHz.wav
2	104	4	3	2	I	2	0	1359	1	poli_8sides 12_whiteLine3.jpg	MediumLong_e17_cut2_stereo_44KHz.wav
2	105	2	2	1	C	1	1	1402	1	poli_8sides 13_whiteLine3.jpg	Medium_e26_stereo_44KHz.wav
2	106	3	3	2	I	1	0	1693	0	poli_8sides 16_whiteLine3.jpg	MediumLong_e17_cut2_stereo_44KHz.wav
2	107	1	2	0	C	2	1	750	1	poli_8sides 11_whiteLine3.jpg	Medium_e26_stereo_44KHz.wav
2	108	4	4	2	I	2	0	1259	1	poli_8sides 12_whiteLine3.jpg	Medium_e01_cut1_stereo_44KHz.wav
2	109	3	4	2	I	1	0	1218	0	poli_8sides 16_whiteLine3.jpg	Medium_e01_cut1_stereo_44KHz.wav
2	110	2	1	0	C	2	1	846	1	poli_8sides 13_whiteLine3.jpg	MediumLong_e19_stereo_44KHz.wav
2	111	4	3	2	I	1	0	1492	0	poli_8sides 12_whiteLine3.jpg	MediumLong_e17_cut2_stereo_44KHz.wav
2	112	1	1	1	C	1	1	916	1	poli_8sides 11_whiteLine3.jpg	MediumLong_e19_stereo_44KHz.wav
2	113	2	2	1	C	1	1	1810	1	poli_8sides 13_whiteLine3.jpg	Medium_e26_stereo_44KHz.wav
2	114	1	1	1	C	1	1	832	1	poli_8sides 11_whiteLine3.jpg	MediumLong_e19_stereo_44KHz.wav
2	115	4	4	2	I	2	0	1344	0	poli_8sides 12_whiteLine3.jpg	Medium_e01_cut1_stereo_44KHz.wav
2	116	3	4	2	I	2	0	706	1	poli_8sides 16_whiteLine3.jpg	Medium_e01_cut1_stereo_44KHz.wav
2	117	2	1	0	C	2	1	717	1	poli_8sides 13_whiteLine3.jpg	MediumLong_e19_stereo_44KHz.wav
2	118	4	3	2	I	1	0	1274	0	poli_8sides 12_whiteLine3.jpg	MediumLong_e17_cut2_stereo_44KHz.wav
2	119	3	3	2	I	1	0	1497	0	poli_8sides 16_whiteLine3.jpg	MediumLong_e17_cut2_stereo_44KHz.wav
2	120	1	2	0	C	2	1	1136	1	poli_8sides 11_whiteLine3.jpg	Medium_e26_stereo_44KHz.wav
2	121	2	1	0	C	2	1	689	1	poli_8sides 13_whiteLine3.jpg	MediumLong_e19_stereo_44KHz.wav
2	122	3	4	2	I	2	0	1523	0	poli_8sides 16_whiteLine3.jpg	Medium_e01_cut1_stereo_44KHz.wav
2	123	4	4	2	I	2	0	738	0	poli_8sides 12_whiteLine3.jpg	Medium_e01_cut1_stereo_44KHz.wav
2	124	1	2	0	C	2	1	738	1	poli_8sides 11_whiteLine3.jpg	Medium_e26_stereo_44KHz.wav
2	125	2	2	1	C	1	1	1058	1	poli_8sides 13_whiteLine3.jpg	Medium_e26_stereo_44KHz.wav
2	126	4	3	2	I	1	0	1283	0	poli_8sides 12_whiteLine3.jpg	MediumLong_e17_cut2_stereo_44KHz.wav
2	127	1	1	1	C	1	1	897	1	poli_8sides 11_whiteLine3.jpg	MediumLong_e19_stereo_44KHz.wav
2	128	3	3	2	I	1	0	1652	0	poli_8sides 16_whiteLine3.jpg	MediumLong_e17_cut2_stereo_44KHz.wav
2	129	1	1	1	C	1	1	768	1	poli_8sides 11_whiteLine3.jpg	MediumLong_e19_stereo_44KHz.wav
2	130	3	3	2	I	2	0	1499	1	poli_8sides 16_whiteLine3.jpg	MediumLong_e17_cut2_stereo_44KHz.wav
2	131	2	2	1	C	1	1	1305	1	poli_8sides 13_whiteLine3.jpg	Medium_e26_stereo_44KHz.wav
2	132	4	3	2	I	2	0	1230	0	poli_8sides 12_whiteLine3.jpg	MediumLong_e17_cut2_stereo_44KHz.wav
2	133	1	2	0	C	2	1	795	1	poli_8sides 11_whiteLine3.jpg	Medium_e26_stereo_44KHz.wav
2	134	3	4	2	I	2	0	1137	1	poli_8sides 16_whiteLine3.jpg	Medium_e01_cut1_stereo_44KHz.wav
2	135	4	4	2	I	1	0	747	1	poli_8sides 12_whiteLine3.jpg	Medium_e01_cut1_stereo_44KHz.wav
2	136	2	1	0	C	2	1	971	1	poli_8sides 13_whiteLine3.jpg	MediumLong_e19_stereo_44KHz.wav
2	137	3	3	2	I	1	0	1613	1	poli_8sides 16_whiteLine3.jpg	MediumLong_e17_cut2_stereo_44KHz.wav
2	138	2	1	0	C	2	1	946	1	poli_8sides 13_whiteLine3.jpg	MediumLong_e19_stereo_44KHz.wav
2	139	1	1	1	C	1	1	1038	1	poli_8sides 11_whiteLine3.jpg	MediumLong_e19_stereo_44KHz.wav
2	140	4	4	2	I	2	0	1681	1	poli_8sides 12_whiteLine3.jpg	Medium_e01_cut1_stereo_44KHz.wav
2	141	2	2	1	C	2	0	920	0	poli_8sides 13_whiteLine3.jpg	Medium_e26_stereo_44KHz.wav
2	142	4	3	2	I	2	0	1881	0	poli_8sides 12_whiteLine3.jpg	MediumLong_e17_cut2_stereo_44KHz.wav
2	143	1	2	0	C	2	1	666	1	poli_8sides 11_whiteLine3.jpg	Medium_e26_stereo_44KHz.wav
2	144	3	4	2	I	2	0	636	0	poli_8sides 16_whiteLine3.jpg	Medium_e01_cut1_stereo_44KHz.wav
2	145	4	4	2	I	2	0	655	1	poli_8sides 12_whiteLine3.jpg	Medium_e01_cut1_stereo_44KHz.wav
2	146	3	3	2	I	2	0	1548	0	poli_8sides 16_whiteLine3.jpg	MediumLong_e17_cut2_stereo_44KHz.wav
2	147	2	2	1	C	1	1	1069	1	poli_8sides 13_whiteLine3.jpg	Medium_e26_stereo_44KHz.wav
2	148	1	2	0	C	2	1	689	1	poli_8sides 11_whiteLine3.jpg	Medium_e26_stereo_44KHz.wav
2	149	2	1	0	C	2	1	781	1	poli_8sides 13_whiteLine3.jpg	MediumLong_e19_stereo_44KHz.wav
2	150	4	3	2	I	1	0	1127	1	poli_8sides 12_whiteLine3.jpg	MediumLong_e17_cut2_stereo_44KHz.wav
2	151	1	1	1	C	1	1	863	1	poli_8sides 11_whiteLine3.jpg	MediumLong_e19_stereo_44KHz.wav
2	152	3	4	2	I	2	0	1175	0	poli_8sides 16_whiteLine3.jpg	Medium_e01_cut1_stereo_44KHz.wav
2	153	1	1	1	C	1	1	1800	1	poli_8sides 11_whiteLine3.jpg	MediumLong_e19_stereo_44KHz.wav
2	154	2	2	1	C	1	1	1097	1	poli_8sides 13_whiteLine3.jpg	Medium_e26_stereo_44KHz.wav
2	155	3	3	2	I	1	0	1248	1	poli_8sides 16_whiteLine3.jpg	MediumLong_e17_cut2_stereo_44KHz.wav
2	156	4	3	2	I	1	0	1025	1	poli_8sides 12_whiteLine3.jpg	MediumLong_e17_cut2_stereo_44KHz.wav
2	157	3	4	2	I	2	0	1049	0	poli_8sides 16_whiteLine3.jpg	Medium_e01_cut1_stereo_44KHz.wav
2	158	1	2	0	C	2	1	715	1	poli_8sides 11_whiteLine3.jpg	Medium_e26_stereo_44KHz.wav
2	159	2	1	0	C	2	1	895	1	poli_8sides 13_whiteLine3.jpg	MediumLong_e19_stereo_44KHz.wav
2	160	4	4	2	I	2	0	1434	0	poli_8sides 12_whiteLine3.jpg	Medium_e01_cut1_stereo_44KHz.wav
2	161	3	3	2	I	1	0	1392	0	poli_8sides 16_whiteLine3.jpg	MediumLong_e17_cut2_stereo_44KHz.wav
2	162	2	1	0	C	2	1	737	1	poli_8sides 13_whiteLine3.jpg	MediumLong_e19_stereo_44KHz.wav
2	163	1	1	1	C	1	1	857	1	poli_8sides 11_whiteLine3.jpg	MediumLong_e19_stereo_44KHz.wav
2	164	4	4	2	I	1	0	1486	1	poli_8sides 12_whiteLine3.jpg	Medium_e01_cut1_stereo_44KHz.wav
2	165	3	4	2	I	2	0	1490	1	poli_8sides 16_whiteLine3.jpg	Medium_e01_cut1_stereo_44KHz.wav
2	166	2	2	1	C	1	1	1190	1	poli_8sides 13_whiteLine3.jpg	Medium_e26_stereo_44KHz.wav
2	167	1	2	0	C	2	1	1229	1	poli_8sides 11_whiteLine3.jpg	Medium_e26_stereo_44KHz.wav
2	168	4	3	2	I	0	0	0	0	poli_8sides 12_whiteLine3.jpg	MediumLong_e17_cut2_stereo_44KHz.wav
2	169	3	4	2	I	2	0	1287	1	poli_8sides 16_whiteLine3.jpg	Medium_e01_cut1_stereo_44KHz.wav
2	170	4	4	2	I	1	0	896	0	poli_8sides 12_whiteLine3.jpg	Medium_e01_cut1_stereo_44KHz.wav
2	171	1	2	0	C	2	1	1059	1	poli_8sides 11_whiteLine3.jpg	Medium_e26_stereo_44KHz.wav
2	172	2	2	1	C	1	1	1078	1	poli_8sides 13_whiteLine3.jpg	Medium_e26_stereo_44KHz.wav
2	173	4	3	2	I	1	0	1465	0	poli_8sides 12_whiteLine3.jpg	MediumLong_e17_cut2_stereo_44KHz.wav
2	174	3	3	2	I	1	0	1074	0	poli_8sides 16_whiteLine3.jpg	MediumLong_e17_cut2_stereo_44KHz.wav
2	175	1	1	1	C	1	1	837	1	poli_8sides 11_whiteLine3.jpg	MediumLong_e19_stereo_44KHz.wav
2	176	2	1	0	C	2	1	1767	1	poli_8sides 13_whiteLine3.jpg	MediumLong_e19_stereo_44KHz.wav
2	177	3	3	2	I	2	0	1511	0	poli_8sides 16_whiteLine3.jpg	MediumLong_e17_cut2_stereo_44KHz.wav
2	178	4	3	2	I	2	0	552	0	poli_8sides 12_whiteLine3.jpg	MediumLong_e17_cut2_stereo_44KHz.wav
2	179	1	1	1	C	1	1	1047	1	poli_8sides 11_whiteLine3.jpg	MediumLong_e19_stereo_44KHz.wav
2	180	2	2	1	C	1	1	1070	1	poli_8sides 13_whiteLine3.jpg	Medium_e26_stereo_44KHz.wav
2	181	1	2	0	C	2	1	792	1	poli_8sides 11_whiteLine3.jpg	Medium_e26_stereo_44KHz.wav
2	182	4	4	2	I	2	0	1277	0	poli_8sides 12_whiteLine3.jpg	Medium_e01_cut1_stereo_44KHz.wav
2	183	3	4	2	I	2	0	729	0	poli_8sides 16_whiteLine3.jpg	Medium_e01_cut1_stereo_44KHz.wav
2	184	2	1	0	C	2	1	790	1	poli_8sides 13_whiteLine3.jpg	MediumLong_e19_stereo_44KHz.wav
2	185	4	4	2	I	1	0	1451	1	poli_8sides 12_whiteLine3.jpg	Medium_e01_cut1_stereo_44KHz.wav
2	186	2	1	0	C	2	1	693	1	poli_8sides 13_whiteLine3.jpg	MediumLong_e19_stereo_44KHz.wav
2	187	1	2	0	C	2	1	626	1	poli_8sides 11_whiteLine3.jpg	Medium_e26_stereo_44KHz.wav
2	188	3	4	2	I	1	0	1049	0	poli_8sides 16_whiteLine3.jpg	Medium_e01_cut1_stereo_44KHz.wav
2	189	2	2	1	C	2	0	816	0	poli_8sides 13_whiteLine3.jpg	Medium_e26_stereo_44KHz.wav
2	190	3	3	2	I	1	0	1420	1	poli_8sides 16_whiteLine3.jpg	MediumLong_e17_cut2_stereo_44KHz.wav
2	191	1	1	1	C	1	1	927	1	poli_8sides 11_whiteLine3.jpg	MediumLong_e19_stereo_44KHz.wav
2	192	4	3	2	I	2	0	1509	1	poli_8sides 12_whiteLine3.jpg	MediumLong_e17_cut2_stereo_44KHz.wav
2	193	1	2	0	C	2	1	879	1	poli_8sides 11_whiteLine3.jpg	Medium_e26_stereo_44KHz.wav
2	194	3	4	2	I	2	0	1156	0	poli_8sides 16_whiteLine3.jpg	Medium_e01_cut1_stereo_44KHz.wav
2	195	4	4	2	I	2	0	1174	0	poli_8sides 12_whiteLine3.jpg	Medium_e01_cut1_stereo_44KHz.wav
2	196	2	1	0	C	2	1	795	1	poli_8sides 13_whiteLine3.jpg	MediumLong_e19_stereo_44KHz.wav
2	197	1	1	1	C	1	1	947	1	poli_8sides 11_whiteLine3.jpg	MediumLong_e19_stereo_44KHz.wav
2	198	4	3	2	I	1	0	1712	1	poli_8sides 12_whiteLine3.jpg	MediumLong_e17_cut2_stereo_44KHz.wav
2	199	2	2	1	C	1	1	1383	1	poli_8sides 13_whiteLine3.jpg	Medium_e26_stereo_44KHz.wav
2	200	3	3	2	I	1	0	1801	1	poli_8sides 16_whiteLine3.jpg	MediumLong_e17_cut2_stereo_44KHz.wav
3	1	1	2	0	C	1	0	1513	0	poli_8sides 9_whiteLine3.jpg	Short_b23_cut1_stereo_44KHz.wav
3	2	2	2	1	C	2	0	1203	0	poli_8sides 1_whiteLine3.jpg	Short_b23_cut1_stereo_44KHz.wav
3	3	4	3	2	I	2	0	804	0	poli_8sides 3_whiteLine3.jpg	Short_b22_cut1_stereo_44KHz.wav
3	4	3	3	2	I	2	0	951	1	poli_8sides 2_whiteLine3.jpg	Short_b22_cut1_stereo_44KHz.wav
3	5	1	1	1	C	2	0	929	0	poli_8sides 9_whiteLine3.jpg	Short_b09_cut1_stereo_44KHz.wav
3	6	4	4	2	I	1	0	847	0	poli_8sides 3_whiteLine3.jpg	Short_b20_cut1_stereo_44KHz.wav
3	7	2	1	0	C	1	0	938	0	poli_8sides 1_whiteLine3.jpg	Short_b09_cut1_stereo_44KHz.wav
3	8	3	4	2	I	2	0	956	1	poli_8sides 2_whiteLine3.jpg	Short_b20_cut1_stereo_44KHz.wav
3	9	4	3	2	I	1	0	1242	0	poli_8sides 3_whiteLine3.jpg	Short_b22_cut1_stereo_44KHz.wav
3	10	2	2	1	C	2	0	1003	0	poli_8sides 1_whiteLine3.jpg	Short_b23_cut1_stereo_44KHz.wav
3	11	3	3	2	I	2	0	751	0	poli_8sides 2_whiteLine3.jpg	Short_b22_cut1_stereo_44KHz.wav
3	12	1	1	1	C	2	0	798	0	poli_8sides 9_whiteLine3.jpg	Short_b09_cut1_stereo_44KHz.wav
3	13	4	4	2	I	2	0	1150	0	poli_8sides 3_whiteLine3.jpg	Short_b20_cut1_stereo_44KHz.wav
3	14	2	1	0	C	2	1	1020	1	poli_8sides 1_whiteLine3.jpg	Short_b09_cut1_stereo_44KHz.wav
3	15	3	4	2	I	2	0	1047	1	poli_8sides 2_whiteLine3.jpg	Short_b20_cut1_stereo_44KHz.wav
3	16	1	2	0	C	2	1	1526	1	poli_8sides 9_whiteLine3.jpg	Short_b23_cut1_stereo_44KHz.wav
3	17	2	1	0	C	1	0	1052	0	poli_8sides 1_whiteLine3.jpg	Short_b09_cut1_stereo_44KHz.wav
3	18	1	1	1	C	1	1	1134	1	poli_8sides 9_whiteLine3.jpg	Short_b09_cut1_stereo_44KHz.wav
3	19	3	3	2	I	1	0	1435	0	poli_8sides 2_whiteLine3.jpg	Short_b22_cut1_stereo_44KHz.wav
3	20	4	3	2	I	2	0	1131	1	poli_8sides 3_whiteLine3.jpg	Short_b22_cut1_stereo_44KHz.wav
3	21	3	4	2	I	1	0	1640	0	poli_8sides 2_whiteLine3.jpg	Short_b20_cut1_stereo_44KHz.wav
3	22	1	2	0	C	2	1	1212	1	poli_8sides 9_whiteLine3.jpg	Short_b23_cut1_stereo_44KHz.wav
3	23	2	2	1	C	1	1	1236	1	poli_8sides 1_whiteLine3.jpg	Short_b23_cut1_stereo_44KHz.wav
3	24	4	4	2	I	1	0	1254	1	poli_8sides 3_whiteLine3.jpg	Short_b20_cut1_stereo_44KHz.wav
3	25	2	1	0	C	2	1	1036	1	poli_8sides 1_whiteLine3.jpg	Short_b09_cut1_stereo_44KHz.wav
3	26	1	1	1	C	1	1	802	1	poli_8sides 9_whiteLine3.jpg	Short_b09_cut1_stereo_44KHz.wav
3	27	3	3	2	I	2	0	1141	1	poli_8sides 2_whiteLine3.jpg	Short_b22_cut1_stereo_44KHz.wav
3	28	4	4	2	I	1	0	845	1	poli_8sides 3_whiteLine3.jpg	Short_b20_cut1_stereo_44KHz.wav
3	29	3	4	2	I	1	0	1263	1	poli_8sides 2_whiteLine3.jpg	Short_b20_cut1_stereo_44KHz.wav
3	30	1	2	0	C	1	0	1246	0	poli_8sides 9_whiteLine3.jpg	Short_b23_cut1_stereo_44KHz.wav
3	31	4	3	2	I	1	0	1677	1	poli_8sides 3_whiteLine3.jpg	Short_b22_cut1_stereo_44KHz.wav
3	32	2	2	1	C	2	0	1025	0	poli_8sides 1_whiteLine3.jpg	Short_b23_cut1_stereo_44KHz.wav
3	33	3	3	2	I	2	0	1755	1	poli_8sides 2_whiteLine3.jpg	Short_b22_cut1_stereo_44KHz.wav
3	34	2	1	0	C	2	1	1003	1	poli_8sides 1_whiteLine3.jpg	Short_b09_cut1_stereo_44KHz.wav
3	35	4	3	2	I	1	0	899	0	poli_8sides 3_whiteLine3.jpg	Short_b22_cut1_stereo_44KHz.wav
3	36	1	1	1	C	2	0	1363	0	poli_8sides 9_whiteLine3.jpg	Short_b09_cut1_stereo_44KHz.wav
3	37	2	2	1	C	2	0	825	0	poli_8sides 1_whiteLine3.jpg	Short_b23_cut1_stereo_44KHz.wav
3	38	4	4	2	I	1	0	1544	0	poli_8sides 3_whiteLine3.jpg	Short_b20_cut1_stereo_44KHz.wav
3	39	1	2	0	C	2	1	1217	1	poli_8sides 9_whiteLine3.jpg	Short_b23_cut1_stereo_44KHz.wav
3	40	3	4	2	I	2	0	995	1	poli_8sides 2_whiteLine3.jpg	Short_b20_cut1_stereo_44KHz.wav
3	41	4	3	2	I	1	0	1223	1	poli_8sides 3_whiteLine3.jpg	Short_b22_cut1_stereo_44KHz.wav
3	42	2	1	0	C	2	1	1143	1	poli_8sides 1_whiteLine3.jpg	Short_b09_cut1_stereo_44KHz.wav
3	43	1	1	1	C	1	1	949	1	poli_8sides 9_whiteLine3.jpg	Short_b09_cut1_stereo_44KHz.wav
3	44	3	4	2	I	2	0	1814	0	poli_8sides 2_whiteLine3.jpg	Short_b20_cut1_stereo_44KHz.wav
3	45	2	2	1	C	2	0	758	0	poli_8sides 1_whiteLine3.jpg	Short_b23_cut1_stereo_44KHz.wav
3	46	3	3	2	I	2	0	1495	0	poli_8sides 2_whiteLine3.jpg	Short_b22_cut1_stereo_44KHz.wav
3	47	1	2	0	C	1	0	1120	0	poli_8sides 9_whiteLine3.jpg	Short_b23_cut1_stereo_44KHz.wav
3	48	4	4	2	I	1	0	1022	0	poli_8sides 3_whiteLine3.jpg	Short_b20_cut1_stereo_44KHz.wav
3	49	2	1	0	C	2	1	796	1	poli_8sides 1_whiteLine3.jpg	Short_b09_cut1_stereo_44KHz.wav
3	50	3	3	2	I	2	0	1164	0	poli_8sides 2_whiteLine3.jpg	Short_b22_cut1_stereo_44KHz.wav
3	51	4	3	2	I	1	0	1424	0	poli_8sides 3_whiteLine3.jpg	Short_b22_cut1_stereo_44KHz.wav
3	52	1	1	1	C	1	1	1487	1	poli_8sides 9_whiteLine3.jpg	Short_b09_cut1_stereo_44KHz.wav
3	53	3	4	2	I	2	0	1261	0	poli_8sides 2_whiteLine3.jpg	Short_b20_cut1_stereo_44KHz.wav
3	54	4	4	2	I	2	0	1268	1	poli_8sides 3_whiteLine3.jpg	Short_b20_cut1_stereo_44KHz.wav
3	55	2	2	1	C	2	0	1178	0	poli_8sides 1_whiteLine3.jpg	Short_b23_cut1_stereo_44KHz.wav
3	56	1	2	0	C	2	1	873	1	poli_8sides 9_whiteLine3.jpg	Short_b23_cut1_stereo_44KHz.wav
3	57	3	3	2	I	2	0	1847	0	poli_8sides 2_whiteLine3.jpg	Short_b22_cut1_stereo_44KHz.wav
3	58	2	2	1	C	2	0	768	0	poli_8sides 1_whiteLine3.jpg	Short_b23_cut1_stereo_44KHz.wav
3	59	4	4	2	I	1	0	1301	1	poli_8sides 3_whiteLine3.jpg	Short_b20_cut1_stereo_44KHz.wav
3	60	1	1	1	C	2	0	1898	0	poli_8sides 9_whiteLine3.jpg	Short_b09_cut1_stereo_44KHz.wav
3	61	2	1	0	C	2	1	731	1	poli_8sides 1_whiteLine3.jpg	Short_b09_cut1_stereo_44KHz.wav
3	62	1	2	0	C	1	0	1454	0	poli_8sides 9_whiteLine3.jpg	Short_b23_cut1_stereo_44KHz.wav
3	63	4	3	2	I	2	0	1009	1	poli_8sides 3_whiteLine3.jpg	Short_b22_cut1_stereo_44KHz.wav
3	64	3	4	2	I	2	0	1131	0	poli_8sides 2_whiteLine3.jpg	Short_b20_cut1_stereo_44KHz.wav
3	65	1	2	0	C	1	0	1791	0	poli_8sides 9_whiteLine3.jpg	Short_b23_cut1_stereo_44KHz.wav
3	66	2	1	0	C	2	1	753	1	poli_8sides 1_whiteLine3.jpg	Short_b09_cut1_stereo_44KHz.wav
3	67	4	3	2	I	2	0	779	1	poli_8sides 3_whiteLine3.jpg	Short_b22_cut1_stereo_44KHz.wav
3	68	3	4	2	I	2	0	883	0	poli_8sides 2_whiteLine3.jpg	Short_b20_cut1_stereo_44KHz.wav
3	69	2	2	1	C	2	0	714	0	poli_8sides 1_whiteLine3.jpg	Short_b23_cut1_stereo_44KHz.wav
3	70	3	3	2	I	1	0	1056	0	poli_8sides 2_whiteLine3.jpg	Short_b22_cut1_stereo_44KHz.wav
3	71	4	4	2	I	2	0	1018	0	poli_8sides 3_whiteLine3.jpg	Short_b20_cut1_stereo_44KHz.wav
3	72	1	1	1	C	1	1	1454	1	poli_8sides 9_whiteLine3.jpg	Short_b09_cut1_stereo_44KHz.wav
3	73	2	1	0	C	2	1	876	1	poli_8sides 1_whiteLine3.jpg	Short_b09_cut1_stereo_44KHz.wav
3	74	3	4	2	I	2	0	1105	0	poli_8sides 2_whiteLine3.jpg	Short_b20_cut1_stereo_44KHz.wav
3	75	4	3	2	I	2	0	513	1	poli_8sides 3_whiteLine3.jpg	Short_b22_cut1_stereo_44KHz.wav
3	76	1	1	1	C	2	0	1829	0	poli_8sides 9_whiteLine3.jpg	Short_b09_cut1_stereo_44KHz.wav
3	77	3	3	2	I	1	0	1316	1	poli_8sides 2_whiteLine3.jpg	Short_b22_cut1_stereo_44KHz.wav
3	78	1	2	0	C	1	0	731	0	poli_8sides 9_whiteLine3.jpg	Short_b23_cut1_stereo_44KHz.wav
3	79	4	4	2	I	1	0	915	0	poli_8sides 3_whiteLine3.jpg	Short_b20_cut1_stereo_44KHz.wav
3	80	2	2	1	C	1	1	1380	1	poli_8sides 1_whiteLine3.jpg	Short_b23_cut1_stereo_44KHz.wav
3	81	4	3	2	I	2	0	826	1	poli_8sides 3_whiteLine3.jpg	Short_b22_cut1_stereo_44KHz.wav
3	82	3	4	2	I	2	0	1043	0	poli_8sides 2_whiteLine3.jpg	Short_b20_cut1_stereo_44KHz.wav
3	83	1	2	0	C	1	0	1747	0	poli_8sides 9_whiteLine3.jpg	Short_b23_cut1_stereo_44KHz.wav
3	84	2	2	1	C	2	0	612	0	poli_8sides 1_whiteLine3.jpg	Short_b23_cut1_stereo_44KHz.wav
3	85	3	3	2	I	1	0	1283	0	poli_8sides 2_whiteLine3.jpg	Short_b22_cut1_stereo_44KHz.wav
3	86	4	4	2	I	1	0	833	1	poli_8sides 3_whiteLine3.jpg	Short_b20_cut1_stereo_44KHz.wav
3	87	2	1	0	C	2	1	633	1	poli_8sides 1_whiteLine3.jpg	Short_b09_cut1_stereo_44KHz.wav
3	88	1	1	1	C	1	1	637	1	poli_8sides 9_whiteLine3.jpg	Short_b09_cut1_stereo_44KHz.wav
3	89	2	1	0	C	2	1	706	1	poli_8sides 1_whiteLine3.jpg	Short_b09_cut1_stereo_44KHz.wav
3	90	1	1	1	C	1	1	734	1	poli_8sides 9_whiteLine3.jpg	Short_b09_cut1_stereo_44KHz.wav
3	91	4	3	2	I	2	0	888	0	poli_8sides 3_whiteLine3.jpg	Short_b22_cut1_stereo_44KHz.wav
3	92	3	3	2	I	2	0	1095	1	poli_8sides 2_whiteLine3.jpg	Short_b22_cut1_stereo_44KHz.wav
3	93	2	2	1	C	1	1	996	1	poli_8sides 1_whiteLine3.jpg	Short_b23_cut1_stereo_44KHz.wav
3	94	3	4	2	I	2	0	926	1	poli_8sides 2_whiteLine3.jpg	Short_b20_cut1_stereo_44KHz.wav
3	95	1	2	0	C	1	0	1927	0	poli_8sides 9_whiteLine3.jpg	Short_b23_cut1_stereo_44KHz.wav
3	96	4	4	2	I	1	0	1922	1	poli_8sides 3_whiteLine3.jpg	Short_b20_cut1_stereo_44KHz.wav
3	97	2	1	0	C	2	1	659	1	poli_8sides 1_whiteLine3.jpg	Short_b09_cut1_stereo_44KHz.wav
3	98	4	4	2	I	1	0	1439	1	poli_8sides 3_whiteLine3.jpg	Short_b20_cut1_stereo_44KHz.wav
3	99	1	2	0	C	2	1	1038	1	poli_8sides 9_whiteLine3.jpg	Short_b23_cut1_stereo_44KHz.wav
3	100	3	3	2	I	1	0	1575	0	poli_8sides 2_whiteLine3.jpg	Short_b22_cut1_stereo_44KHz.wav
3	101	4	3	2	I	2	0	1078	1	poli_8sides 3_whiteLine3.jpg	Short_b22_cut1_stereo_44KHz.wav
3	102	2	2	1	C	1	1	1858	1	poli_8sides 1_whiteLine3.jpg	Short_b23_cut1_stereo_44KHz.wav
3	103	3	4	2	I	2	0	889	0	poli_8sides 2_whiteLine3.jpg	Short_b20_cut1_stereo_44KHz.wav
3	104	1	1	1	C	2	0	1635	0	poli_8sides 9_whiteLine3.jpg	Short_b09_cut1_stereo_44KHz.wav
3	105	4	3	2	I	2	0	1083	0	poli_8sides 3_whiteLine3.jpg	Short_b22_cut1_stereo_44KHz.wav
3	106	2	1	0	C	2	1	638	1	poli_8sides 1_whiteLine3.jpg	Short_b09_cut1_stereo_44KHz.wav
3	107	1	2	0	C	2	1	907	1	poli_8sides 9_whiteLine3.jpg	Short_b23_cut1_stereo_44KHz.wav
3	108	3	3	2	I	2	0	1541	0	poli_8sides 2_whiteLine3.jpg	Short_b22_cut1_stereo_44KHz.wav
3	109	2	2	1	C	2	0	622	0	poli_8sides 1_whiteLine3.jpg	Short_b23_cut1_stereo_44KHz.wav
3	110	1	1	1	C	1	1	1438	1	poli_8sides 9_whiteLine3.jpg	Short_b09_cut1_stereo_44KHz.wav
3	111	4	4	2	I	2	0	1396	1	poli_8sides 3_whiteLine3.jpg	Short_b20_cut1_stereo_44KHz.wav
3	112	3	4	2	I	1	0	1090	1	poli_8sides 2_whiteLine3.jpg	Short_b20_cut1_stereo_44KHz.wav
3	113	4	4	2	I	2	0	1029	0	poli_8sides 3_whiteLine3.jpg	Short_b20_cut1_stereo_44KHz.wav
3	114	2	2	1	C	1	1	1077	1	poli_8sides 1_whiteLine3.jpg	Short_b23_cut1_stereo_44KHz.wav
3	115	1	1	1	C	1	1	1232	1	poli_8sides 9_whiteLine3.jpg	Short_b09_cut1_stereo_44KHz.wav
3	116	3	3	2	I	1	0	1304	1	poli_8sides 2_whiteLine3.jpg	Short_b22_cut1_stereo_44KHz.wav
3	117	2	1	0	C	2	1	776	1	poli_8sides 1_whiteLine3.jpg	Short_b09_cut1_stereo_44KHz.wav
3	118	1	2	0	C	2	1	1047	1	poli_8sides 9_whiteLine3.jpg	Short_b23_cut1_stereo_44KHz.wav
3	119	4	3	2	I	1	0	1425	0	poli_8sides 3_whiteLine3.jpg	Short_b22_cut1_stereo_44KHz.wav
3	120	3	4	2	I	2	0	1437	1	poli_8sides 2_whiteLine3.jpg	Short_b20_cut1_stereo_44KHz.wav
3	121	4	4	2	I	1	0	1167	0	poli_8sides 3_whiteLine3.jpg	Short_b20_cut1_stereo_44KHz.wav
3	122	1	2	0	C	0	0	0	0	poli_8sides 9_whiteLine3.jpg	Short_b23_cut1_stereo_44KHz.wav
3	123	3	3	2	I	1	0	1681	0	poli_8sides 2_whiteLine3.jpg	Short_b22_cut1_stereo_44KHz.wav
3	124	2	2	1	C	1	1	1104	1	poli_8sides 1_whiteLine3.jpg	Short_b23_cut1_stereo_44KHz.wav
3	125	1	1	1	C	1	1	1454	1	poli_8sides 9_whiteLine3.jpg	Short_b09_cut1_stereo_44KHz.wav
3	126	3	4	2	I	2	0	1028	1	poli_8sides 2_whiteLine3.jpg	Short_b20_cut1_stereo_44KHz.wav
3	127	4	3	2	I	2	0	1348	0	poli_8sides 3_whiteLine3.jpg	Short_b22_cut1_stereo_44KHz.wav
3	128	2	1	0	C	2	1	671	1	poli_8sides 1_whiteLine3.jpg	Short_b09_cut1_stereo_44KHz.wav
3	129	3	4	2	I	2	0	1042	1	poli_8sides 2_whiteLine3.jpg	Short_b20_cut1_stereo_44KHz.wav
3	130	1	2	0	C	1	0	1411	0	poli_8sides 9_whiteLine3.jpg	Short_b23_cut1_stereo_44KHz.wav
3	131	4	4	2	I	1	0	1335	0	poli_8sides 3_whiteLine3.jpg	Short_b20_cut1_stereo_44KHz.wav
3	132	2	2	1	C	1	1	848	1	poli_8sides 1_whiteLine3.jpg	Short_b23_cut1_stereo_44KHz.wav
3	133	3	3	2	I	1	0	1539	1	poli_8sides 2_whiteLine3.jpg	Short_b22_cut1_stereo_44KHz.wav
3	134	1	1	1	C	2	0	884	0	poli_8sides 9_whiteLine3.jpg	Short_b09_cut1_stereo_44KHz.wav
3	135	2	1	0	C	2	1	693	1	poli_8sides 1_whiteLine3.jpg	Short_b09_cut1_stereo_44KHz.wav
3	136	4	3	2	I	2	0	1208	1	poli_8sides 3_whiteLine3.jpg	Short_b22_cut1_stereo_44KHz.wav
3	137	2	1	0	C	2	1	764	1	poli_8sides 1_whiteLine3.jpg	Short_b09_cut1_stereo_44KHz.wav
3	138	4	3	2	I	1	0	896	0	poli_8sides 3_whiteLine3.jpg	Short_b22_cut1_stereo_44KHz.wav
3	139	3	4	2	I	2	0	828	0	poli_8sides 2_whiteLine3.jpg	Short_b20_cut1_stereo_44KHz.wav
3	140	1	1	1	C	2	0	1341	0	poli_8sides 9_whiteLine3.jpg	Short_b09_cut1_stereo_44KHz.wav
3	141	2	2	1	C	1	1	1050	1	poli_8sides 1_whiteLine3.jpg	Short_b23_cut1_stereo_44KHz.wav
3	142	4	4	2	I	1	0	980	1	poli_8sides 3_whiteLine3.jpg	Short_b20_cut1_stereo_44KHz.wav
3	143	1	2	0	C	2	1	940	1	poli_8sides 9_whiteLine3.jpg	Short_b23_cut1_stereo_44KHz.wav
3	144	3	3	2	I	1	0	1334	0	poli_8sides 2_whiteLine3.jpg	Short_b22_cut1_stereo_44KHz.wav
3	145	2	2	1	C	1	1	916	1	poli_8sides 1_whiteLine3.jpg	Short_b23_cut1_stereo_44KHz.wav
3	146	4	4	2	I	1	0	1523	0	poli_8sides 3_whiteLine3.jpg	Short_b20_cut1_stereo_44KHz.wav
3	147	1	2	0	C	2	1	922	1	poli_8sides 9_whiteLine3.jpg	Short_b23_cut1_stereo_44KHz.wav
3	148	3	4	2	I	2	0	1096	1	poli_8sides 2_whiteLine3.jpg	Short_b20_cut1_stereo_44KHz.wav
3	149	4	3	2	I	2	0	1048	1	poli_8sides 3_whiteLine3.jpg	Short_b22_cut1_stereo_44KHz.wav
3	150	2	1	0	C	2	1	637	1	poli_8sides 1_whiteLine3.jpg	Short_b09_cut1_stereo_44KHz.wav
3	151	1	1	1	C	1	1	1255	1	poli_8sides 9_whiteLine3.jpg	Short_b09_cut1_stereo_44KHz.wav
3	152	3	3	2	I	2	0	965	0	poli_8sides 2_whiteLine3.jpg	Short_b22_cut1_stereo_44KHz.wav
3	153	1	1	1	C	2	0	1184	0	poli_8sides 9_whiteLine3.jpg	Short_b09_cut1_stereo_44KHz.wav
3	154	3	4	2	I	2	0	873	0	poli_8sides 2_whiteLine3.jpg	Short_b20_cut1_stereo_44KHz.wav
3	155	4	4	2	I	2	0	1067	0	poli_8sides 3_whiteLine3.jpg	Short_b20_cut1_stereo_44KHz.wav
3	156	2	1	0	C	2	1	943	1	poli_8sides 1_whiteLine3.jpg	Short_b09_cut1_stereo_44KHz.wav
3	157	4	3	2	I	2	0	1137	1	poli_8sides 3_whiteLine3.jpg	Short_b22_cut1_stereo_44KHz.wav
3	158	2	2	1	C	1	1	872	1	poli_8sides 1_whiteLine3.jpg	Short_b23_cut1_stereo_44KHz.wav
3	159	1	2	0	C	1	0	1343	0	poli_8sides 9_whiteLine3.jpg	Short_b23_cut1_stereo_44KHz.wav
3	160	3	3	2	I	2	0	680	1	poli_8sides 2_whiteLine3.jpg	Short_b22_cut1_stereo_44KHz.wav
3	161	1	1	1	C	2	0	790	0	poli_8sides 9_whiteLine3.jpg	Short_b09_cut1_stereo_44KHz.wav
3	162	3	4	2	I	2	0	728	1	poli_8sides 2_whiteLine3.jpg	Short_b20_cut1_stereo_44KHz.wav
3	163	2	2	1	C	1	1	772	1	poli_8sides 1_whiteLine3.jpg	Short_b23_cut1_stereo_44KHz.wav
3	164	4	4	2	I	1	0	695	0	poli_8sides 3_whiteLine3.jpg	Short_b20_cut1_stereo_44KHz.wav
3	165	2	1	0	C	1	0	822	0	poli_8sides 1_whiteLine3.jpg	Short_b09_cut1_stereo_44KHz.wav
3	166	4	3	2	I	2	0	747	1	poli_8sides 3_whiteLine3.jpg	Short_b22_cut1_stereo_44KHz.wav
3	167	1	2	0	C	2	1	877	1	poli_8sides 9_whiteLine3.jpg	Short_b23_cut1_stereo_44KHz.wav
3	168	3	3	2	I	2	0	759	0	poli_8sides 2_whiteLine3.jpg	Short_b22_cut1_stereo_44KHz.wav
3	169	4	3	2	I	1	0	917	0	poli_8sides 3_whiteLine3.jpg	Short_b22_cut1_stereo_44KHz.wav
3	170	2	1	0	C	2	1	639	1	poli_8sides 1_whiteLine3.jpg	Short_b09_cut1_stereo_44KHz.wav
3	171	3	3	2	I	2	0	1427	1	poli_8sides 2_whiteLine3.jpg	Short_b22_cut1_stereo_44KHz.wav
3	172	1	1	1	C	1	1	739	1	poli_8sides 9_whiteLine3.jpg	Short_b09_cut1_stereo_44KHz.wav
3	173	4	4	2	I	1	0	750	0	poli_8sides 3_whiteLine3.jpg	Short_b20_cut1_stereo_44KHz.wav
3	174	3	4	2	I	1	0	741	1	poli_8sides 2_whiteLine3.jpg	Short_b20_cut1_stereo_44KHz.wav
3	175	2	2	1	C	2	0	1160	0	poli_8sides 1_whiteLine3.jpg	Short_b23_cut1_stereo_44KHz.wav
3	176	1	2	0	C	1	0	866	0	poli_8sides 9_whiteLine3.jpg	Short_b23_cut1_stereo_44KHz.wav
3	177	4	4	2	I	2	0	772	1	poli_8sides 3_whiteLine3.jpg	Short_b20_cut1_stereo_44KHz.wav
3	178	2	1	0	C	2	1	783	1	poli_8sides 1_whiteLine3.jpg	Short_b09_cut1_stereo_44KHz.wav
3	179	1	1	1	C	1	1	1466	1	poli_8sides 9_whiteLine3.jpg	Short_b09_cut1_stereo_44KHz.wav
3	180	3	3	2	I	2	0	1190	1	poli_8sides 2_whiteLine3.jpg	Short_b22_cut1_stereo_44KHz.wav
3	181	1	2	0	C	2	1	1552	1	poli_8sides 9_whiteLine3.jpg	Short_b23_cut1_stereo_44KHz.wav
3	182	3	4	2	I	1	0	1598	0	poli_8sides 2_whiteLine3.jpg	Short_b20_cut1_stereo_44KHz.wav
3	183	2	2	1	C	1	1	992	1	poli_8sides 1_whiteLine3.jpg	Short_b23_cut1_stereo_44KHz.wav
3	184	4	3	2	I	1	0	1131	1	poli_8sides 3_whiteLine3.jpg	Short_b22_cut1_stereo_44KHz.wav
3	185	2	1	0	C	2	1	812	1	poli_8sides 1_whiteLine3.jpg	Short_b09_cut1_stereo_44KHz.wav
3	186	3	3	2	I	1	0	1137	1	poli_8sides 2_whiteLine3.jpg	Short_b22_cut1_stereo_44KHz.wav
3	187	1	1	1	C	2	0	926	0	poli_8sides 9_whiteLine3.jpg	Short_b09_cut1_stereo_44KHz.wav
3	188	4	3	2	I	2	0	1134	1	poli_8sides 3_whiteLine3.jpg	Short_b22_cut1_stereo_44KHz.wav
3	189	2	2	1	C	1	1	831	1	poli_8sides 1_whiteLine3.jpg	Short_b23_cut1_stereo_44KHz.wav
3	190	1	2	0	C	1	0	1246	0	poli_8sides 9_whiteLine3.jpg	Short_b23_cut1_stereo_44KHz.wav
3	191	3	4	2	I	2	0	1109	1	poli_8sides 2_whiteLine3.jpg	Short_b20_cut1_stereo_44KHz.wav
3	192	4	4	2	I	2	0	995	0	poli_8sides 3_whiteLine3.jpg	Short_b20_cut1_stereo_44KHz.wav
3	193	2	2	1	C	1	1	860	1	poli_8sides 1_whiteLine3.jpg	Short_b23_cut1_stereo_44KHz.wav
3	194	1	1	1	C	1	1	1529	1	poli_8sides 9_whiteLine3.jpg	Short_b09_cut1_stereo_44KHz.wav
3	195	4	3	2	I	2	0	1211	1	poli_8sides 3_whiteLine3.jpg	Short_b22_cut1_stereo_44KHz.wav
3	196	3	4	2	I	2	0	1066	1	poli_8sides 2_whiteLine3.jpg	Short_b20_cut1_stereo_44KHz.wav
3	197	1	2	0	C	2	1	1414	1	poli_8sides 9_whiteLine3.jpg	Short_b23_cut1_stereo_44KHz.wav
3	198	2	1	0	C	2	1	1070	1	poli_8sides 1_whiteLine3.jpg	Short_b09_cut1_stereo_44KHz.wav
3	199	3	3	2	I	2	0	1629	0	poli_8sides 2_whiteLine3.jpg	Short_b22_cut1_stereo_44KHz.wav
3	200	4	4	2	I	2	0	1545	0	poli_8sides 3_whiteLine3.jpg	Short_b20_cut1_stereo_44KHz.wav
4	1	2	1	0	C	2	1	1344	1	poli_8sides 4_whiteLine3.jpg	MediumShort_b16_cut3_MS_stereo_44KHz.wav
4	2	1	1	1	C	1	1	929	1	poli_8sides 18_whiteLine3.jpg	MediumShort_b16_cut3_MS_stereo_44KHz.wav
4	3	3	3	2	I	1	0	1271	1	poli_8sides 15_whiteLine3.jpg	MediumShort_e22_cut1_stereo_44KHz.wav
4	4	4	3	2	I	1	0	1086	0	poli_8sides 5_whiteLine3.jpg	MediumShort_e22_cut1_stereo_44KHz.wav
4	5	3	4	2	I	1	0	1476	0	poli_8sides 15_whiteLine3.jpg	MediumShort_b10_cut1_MS_stereo_44KHz.wav
4	6	4	4	2	I	1	0	1278	0	poli_8sides 5_whiteLine3.jpg	MediumShort_b10_cut1_MS_stereo_44KHz.wav
4	7	1	2	0	C	2	1	1086	1	poli_8sides 18_whiteLine3.jpg	MediumShort_e16_cut1_stereo_44KHz.wav
4	8	2	2	1	C	1	1	944	1	poli_8sides 4_whiteLine3.jpg	MediumShort_e16_cut1_stereo_44KHz.wav
4	9	3	4	2	I	2	0	1389	1	poli_8sides 15_whiteLine3.jpg	MediumShort_b10_cut1_MS_stereo_44KHz.wav
4	10	4	4	2	I	1	0	1240	0	poli_8sides 5_whiteLine3.jpg	MediumShort_b10_cut1_MS_stereo_44KHz.wav
4	11	1	2	0	C	0	0	0	0	poli_8sides 18_whiteLine3.jpg	MediumShort_e16_cut1_stereo_44KHz.wav
4	12	2	2	1	C	2	0	1891	0	poli_8sides 4_whiteLine3.jpg	MediumShort_e16_cut1_stereo_44KHz.wav
4	13	4	3	2	I	2	0	924	0	poli_8sides 5_whiteLine3.jpg	MediumShort_e22_cut1_stereo_44KHz.wav
4	14	3	3	2	I	1	0	1398	1	poli_8sides 15_whiteLine3.jpg	MediumShort_e22_cut1_stereo_44KHz.wav
4	15	2	1	0	C	2	1	1169	1	poli_8sides 4_whiteLine3.jpg	MediumShort_b16_cut3_MS_stereo_44KHz.wav
4	16	1	1	1	C	1	1	850	1	poli_8sides 18_whiteLine3.jpg	MediumShort_b16_cut3_MS_stereo_44KHz.wav
4	17	4	4	2	I	1	0	1442	0	poli_8sides 5_whiteLine3.jpg	MediumShort_b10_cut1_MS_stereo_44KHz.wav
4	18	2	1	0	C	2	1	1927	1	poli_8sides 4_whiteLine3.jpg	MediumShort_b16_cut3_MS_stereo_44KHz.wav
4	19	3	3	2	I	2	0	1078	0	poli_8sides 15_whiteLine3.jpg	MediumShort_e22_cut1_stereo_44KHz.wav
4	20	1	2	0	C	2	1	1293	1	poli_8sides 18_whiteLine3.jpg	MediumShort_e16_cut1_stereo_44KHz.wav
4	21	3	4	2	I	2	0	1138	0	poli_8sides 15_whiteLine3.jpg	MediumShort_b10_cut1_MS_stereo_44KHz.wav
4	22	4	3	2	I	2	0	989	0	poli_8sides 5_whiteLine3.jpg	MediumShort_e22_cut1_stereo_44KHz.wav
4	23	1	1	1	C	2	0	1543	0	poli_8sides 18_whiteLine3.jpg	MediumShort_b16_cut3_MS_stereo_44KHz.wav
4	24	2	2	1	C	2	0	1502	0	poli_8sides 4_whiteLine3.jpg	MediumShort_e16_cut1_stereo_44KHz.wav
4	25	1	2	0	C	2	1	980	1	poli_8sides 18_whiteLine3.jpg	MediumShort_e16_cut1_stereo_44KHz.wav
4	26	3	3	2	I	2	0	876	1	poli_8sides 15_whiteLine3.jpg	MediumShort_e22_cut1_stereo_44KHz.wav
4	27	2	1	0	C	1	0	867	0	poli_8sides 4_whiteLine3.jpg	MediumShort_b16_cut3_MS_stereo_44KHz.wav
4	28	4	4	2	I	2	0	1431	0	poli_8sides 5_whiteLine3.jpg	MediumShort_b10_cut1_MS_stereo_44KHz.wav
4	29	3	4	2	I	2	0	1088	1	poli_8sides 15_whiteLine3.jpg	MediumShort_b10_cut1_MS_stereo_44KHz.wav
4	30	1	1	1	C	1	1	1077	1	poli_8sides 18_whiteLine3.jpg	MediumShort_b16_cut3_MS_stereo_44KHz.wav
4	31	2	2	1	C	1	1	1161	1	poli_8sides 4_whiteLine3.jpg	MediumShort_e16_cut1_stereo_44KHz.wav
4	32	4	3	2	I	2	0	1082	0	poli_8sides 5_whiteLine3.jpg	MediumShort_e22_cut1_stereo_44KHz.wav
4	33	2	2	1	C	1	1	1051	1	poli_8sides 4_whiteLine3.jpg	MediumShort_e16_cut1_stereo_44KHz.wav
4	34	3	3	2	I	2	0	980	0	poli_8sides 15_whiteLine3.jpg	MediumShort_e22_cut1_stereo_44KHz.wav
4	35	1	1	1	C	1	1	956	1	poli_8sides 18_whiteLine3.jpg	MediumShort_b16_cut3_MS_stereo_44KHz.wav
4	36	4	3	2	I	2	0	1155	1	poli_8sides 5_whiteLine3.jpg	MediumShort_e22_cut1_stereo_44KHz.wav
4	37	2	1	0	C	2	1	1089	1	poli_8sides 4_whiteLine3.jpg	MediumShort_b16_cut3_MS_stereo_44KHz.wav
4	38	1	2	0	C	2	1	902	1	poli_8sides 18_whiteLine3.jpg	MediumShort_e16_cut1_stereo_44KHz.wav
4	39	4	4	2	I	1	0	1160	1	poli_8sides 5_whiteLine3.jpg	MediumShort_b10_cut1_MS_stereo_44KHz.wav
4	40	3	4	2	I	2	0	817	0	poli_8sides 15_whiteLine3.jpg	MediumShort_b10_cut1_MS_stereo_44KHz.wav
4	41	1	2	0	C	2	1	751	1	poli_8sides 18_whiteLine3.jpg	MediumShort_e16_cut1_stereo_44KHz.wav
4	42	3	4	2	I	2	0	906	0	poli_8sides 15_whiteLine3.jpg	MediumShort_b10_cut1_MS_stereo_44KHz.wav
4	43	2	1	0	C	2	1	645	1	poli_8sides 4_whiteLine3.jpg	MediumShort_b16_cut3_MS_stereo_44KHz.wav
4	44	4	3	2	I	2	0	857	0	poli_8sides 5_whiteLine3.jpg	MediumShort_e22_cut1_stereo_44KHz.wav
4	45	1	1	1	C	1	1	865	1	poli_8sides 18_whiteLine3.jpg	MediumShort_b16_cut3_MS_stereo_44KHz.wav
4	46	2	2	1	C	2	0	1352	0	poli_8sides 4_whiteLine3.jpg	MediumShort_e16_cut1_stereo_44KHz.wav
4	47	3	3	2	I	2	0	767	0	poli_8sides 15_whiteLine3.jpg	MediumShort_e22_cut1_stereo_44KHz.wav
4	48	4	4	2	I	1	0	1429	1	poli_8sides 5_whiteLine3.jpg	MediumShort_b10_cut1_MS_stereo_44KHz.wav
4	49	3	4	2	I	2	0	821	1	poli_8sides 15_whiteLine3.jpg	MediumShort_b10_cut1_MS_stereo_44KHz.wav
4	50	4	4	2	I	1	0	1005	1	poli_8sides 5_whiteLine3.jpg	MediumShort_b10_cut1_MS_stereo_44KHz.wav
4	51	2	2	1	C	2	0	1397	0	poli_8sides 4_whiteLine3.jpg	MediumShort_e16_cut1_stereo_44KHz.wav
4	52	1	2	0	C	2	1	536	1	poli_8sides 18_whiteLine3.jpg	MediumShort_e16_cut1_stereo_44KHz.wav
4	53	2	1	0	C	2	1	814	1	poli_8sides 4_whiteLine3.jpg	MediumShort_b16_cut3_MS_stereo_44KHz.wav
4	54	4	3	2	I	1	0	1272	0	poli_8sides 5_whiteLine3.jpg	MediumShort_e22_cut1_stereo_44KHz.wav
4	55	1	1	1	C	1	1	818	1	poli_8sides 18_whiteLine3.jpg	MediumShort_b16_cut3_MS_stereo_44KHz.wav
4	56	3	3	2	I	1	0	1544	0	poli_8sides 15_whiteLine3.jpg	MediumShort_e22_cut1_stereo_44KHz.wav
4	57	1	1	1	C	2	0	934	0	poli_8sides 18_whiteLine3.jpg	MediumShort_b16_cut3_MS_stereo_44KHz.wav
4	58	3	3	2	I	2	0	1387	0	poli_8sides 15_whiteLine3.jpg	MediumShort_e22_cut1_stereo_44KHz.wav
4	59	4	4	2	I	1	0	1439	1	poli_8sides 5_whiteLine3.jpg	MediumShort_b10_cut1_MS_stereo_44KHz.wav
4	60	2	1	0	C	2	1	1107	1	poli_8sides 4_whiteLine3.jpg	MediumShort_b16_cut3_MS_stereo_44KHz.wav
4	61	1	2	0	C	2	1	638	1	poli_8sides 18_whiteLine3.jpg	MediumShort_e16_cut1_stereo_44KHz.wav
4	62	4	3	2	I	2	0	956	0	poli_8sides 5_whiteLine3.jpg	MediumShort_e22_cut1_stereo_44KHz.wav
4	63	2	2	1	C	1	1	1187	1	poli_8sides 4_whiteLine3.jpg	MediumShort_e16_cut1_stereo_44KHz.wav
4	64	3	4	2	I	2	0	1012	1	poli_8sides 15_whiteLine3.jpg	MediumShort_b10_cut1_MS_stereo_44KHz.wav
4	65	4	4	2	I	1	0	1155	1	poli_8sides 5_whiteLine3.jpg	MediumShort_b10_cut1_MS_stereo_44KHz.wav
4	66	2	1	0	C	2	1	747	1	poli_8sides 4_whiteLine3.jpg	MediumShort_b16_cut3_MS_stereo_44KHz.wav
4	67	1	1	1	C	1	1	708	1	poli_8sides 18_whiteLine3.jpg	MediumShort_b16_cut3_MS_stereo_44KHz.wav
4	68	3	3	2	I	1	0	1276	0	poli_8sides 15_whiteLine3.jpg	MediumShort_e22_cut1_stereo_44KHz.wav
4	69	2	2	1	C	1	1	1251	1	poli_8sides 4_whiteLine3.jpg	MediumShort_e16_cut1_stereo_44KHz.wav
4	70	3	4	2	I	2	0	886	0	poli_8sides 15_whiteLine3.jpg	MediumShort_b10_cut1_MS_stereo_44KHz.wav
4	71	4	3	2	I	2	0	1433	1	poli_8sides 5_whiteLine3.jpg	MediumShort_e22_cut1_stereo_44KHz.wav
4	72	1	2	0	C	2	1	739	1	poli_8sides 18_whiteLine3.jpg	MediumShort_e16_cut1_stereo_44KHz.wav
4	73	4	4	2	I	1	0	1078	1	poli_8sides 5_whiteLine3.jpg	MediumShort_b10_cut1_MS_stereo_44KHz.wav
4	74	2	2	1	C	1	1	1270	1	poli_8sides 4_whiteLine3.jpg	MediumShort_e16_cut1_stereo_44KHz.wav
4	75	3	4	2	I	2	0	1280	0	poli_8sides 15_whiteLine3.jpg	MediumShort_b10_cut1_MS_stereo_44KHz.wav
4	76	1	2	0	C	2	1	821	1	poli_8sides 18_whiteLine3.jpg	MediumShort_e16_cut1_stereo_44KHz.wav
4	77	4	3	2	I	2	0	1364	1	poli_8sides 5_whiteLine3.jpg	MediumShort_e22_cut1_stereo_44KHz.wav
4	78	1	1	1	C	1	1	812	1	poli_8sides 18_whiteLine3.jpg	MediumShort_b16_cut3_MS_stereo_44KHz.wav
4	79	3	3	2	I	1	0	1474	1	poli_8sides 15_whiteLine3.jpg	MediumShort_e22_cut1_stereo_44KHz.wav
4	80	2	1	0	C	2	1	1314	1	poli_8sides 4_whiteLine3.jpg	MediumShort_b16_cut3_MS_stereo_44KHz.wav
4	81	1	2	0	C	2	1	785	1	poli_8sides 18_whiteLine3.jpg	MediumShort_e16_cut1_stereo_44KHz.wav
4	82	3	4	2	I	2	0	782	1	poli_8sides 15_whiteLine3.jpg	MediumShort_b10_cut1_MS_stereo_44KHz.wav
4	83	4	4	2	I	1	0	1238	0	poli_8sides 5_whiteLine3.jpg	MediumShort_b10_cut1_MS_stereo_44KHz.wav
4	84	2	2	1	C	1	1	1326	1	poli_8sides 4_whiteLine3.jpg	MediumShort_e16_cut1_stereo_44KHz.wav
4	85	4	3	2	I	2	0	1029	1	poli_8sides 5_whiteLine3.jpg	MediumShort_e22_cut1_stereo_44KHz.wav
4	86	1	1	1	C	1	1	836	1	poli_8sides 18_whiteLine3.jpg	MediumShort_b16_cut3_MS_stereo_44KHz.wav
4	87	3	3	2	I	2	0	998	1	poli_8sides 15_whiteLine3.jpg	MediumShort_e22_cut1_stereo_44KHz.wav
4	88	2	1	0	C	2	1	1159	1	poli_8sides 4_whiteLine3.jpg	MediumShort_b16_cut3_MS_stereo_44KHz.wav
4	89	1	1	1	C	1	1	872	1	poli_8sides 18_whiteLine3.jpg	MediumShort_b16_cut3_MS_stereo_44KHz.wav
4	90	4	4	2	I	2	0	1237	1	poli_8sides 5_whiteLine3.jpg	MediumShort_b10_cut1_MS_stereo_44KHz.wav
4	91	3	3	2	I	2	0	1525	1	poli_8sides 15_whiteLine3.jpg	MediumShort_e22_cut1_stereo_44KHz.wav
4	92	2	1	0	C	2	1	1012	1	poli_8sides 4_whiteLine3.jpg	MediumShort_b16_cut3_MS_stereo_44KHz.wav
4	93	4	3	2	I	2	0	1297	0	poli_8sides 5_whiteLine3.jpg	MediumShort_e22_cut1_stereo_44KHz.wav
4	94	2	2	1	C	2	0	1397	0	poli_8sides 4_whiteLine3.jpg	MediumShort_e16_cut1_stereo_44KHz.wav
4	95	3	4	2	I	2	0	1247	0	poli_8sides 15_whiteLine3.jpg	MediumShort_b10_cut1_MS_stereo_44KHz.wav
4	96	1	2	0	C	2	1	661	1	poli_8sides 18_whiteLine3.jpg	MediumShort_e16_cut1_stereo_44KHz.wav
4	97	2	1	0	C	2	1	1225	1	poli_8sides 4_whiteLine3.jpg	MediumShort_b16_cut3_MS_stereo_44KHz.wav
4	98	4	3	2	I	2	0	990	1	poli_8sides 5_whiteLine3.jpg	MediumShort_e22_cut1_stereo_44KHz.wav
4	99	3	3	2	I	1	0	917	1	poli_8sides 15_whiteLine3.jpg	MediumShort_e22_cut1_stereo_44KHz.wav
4	100	1	2	0	C	2	1	684	1	poli_8sides 18_whiteLine3.jpg	MediumShort_e16_cut1_stereo_44KHz.wav
4	101	2	2	1	C	1	1	1025	1	poli_8sides 4_whiteLine3.jpg	MediumShort_e16_cut1_stereo_44KHz.wav
4	102	3	4	2	I	2	0	1455	1	poli_8sides 15_whiteLine3.jpg	MediumShort_b10_cut1_MS_stereo_44KHz.wav
4	103	4	4	2	I	1	0	1143	0	poli_8sides 5_whiteLine3.jpg	MediumShort_b10_cut1_MS_stereo_44KHz.wav
4	104	1	1	1	C	1	1	978	1	poli_8sides 18_whiteLine3.jpg	MediumShort_b16_cut3_MS_stereo_44KHz.wav
4	105	3	4	2	I	2	0	979	0	poli_8sides 15_whiteLine3.jpg	MediumShort_b10_cut1_MS_stereo_44KHz.wav
4	106	4	3	2	I	2	0	898	1	poli_8sides 5_whiteLine3.jpg	MediumShort_e22_cut1_stereo_44KHz.wav
4	107	2	1	0	C	2	1	1216	1	poli_8sides 4_whiteLine3.jpg	MediumShort_b16_cut3_MS_stereo_44KHz.wav
4	108	1	1	1	C	1	1	938	1	poli_8sides 18_whiteLine3.jpg	MediumShort_b16_cut3_MS_stereo_44KHz.wav
4	109	2	2	1	C	2	0	1116	0	poli_8sides 4_whiteLine3.jpg	MediumShort_e16_cut1_stereo_44KHz.wav
4	110	3	3	2	I	2	0	1050	0	poli_8sides 15_whiteLine3.jpg	MediumShort_e22_cut1_stereo_44KHz.wav
4	111	4	4	2	I	2	0	933	0	poli_8sides 5_whiteLine3.jpg	MediumShort_b10_cut1_MS_stereo_44KHz.wav
4	112	1	2	0	C	2	1	698	1	poli_8sides 18_whiteLine3.jpg	MediumShort_e16_cut1_stereo_44KHz.wav
4	113	3	3	2	I	2	0	996	0	poli_8sides 15_whiteLine3.jpg	MediumShort_e22_cut1_stereo_44KHz.wav
4	114	4	3	2	I	1	0	926	0	poli_8sides 5_whiteLine3.jpg	MediumShort_e22_cut1_stereo_44KHz.wav
4	115	2	2	1	C	1	1	1157	1	poli_8sides 4_whiteLine3.jpg	MediumShort_e16_cut1_stereo_44KHz.wav
4	116	1	2	0	C	2	1	886	1	poli_8sides 18_whiteLine3.jpg	MediumShort_e16_cut1_stereo_44KHz.wav
4	117	3	4	2	I	2	0	1197	0	poli_8sides 15_whiteLine3.jpg	MediumShort_b10_cut1_MS_stereo_44KHz.wav
4	118	4	4	2	I	2	0	854	1	poli_8sides 5_whiteLine3.jpg	MediumShort_b10_cut1_MS_stereo_44KHz.wav
4	119	2	1	0	C	1	0	851	0	poli_8sides 4_whiteLine3.jpg	MediumShort_b16_cut3_MS_stereo_44KHz.wav
4	120	1	1	1	C	1	1	812	1	poli_8sides 18_whiteLine3.jpg	MediumShort_b16_cut3_MS_stereo_44KHz.wav
4	121	4	4	2	I	2	0	731	1	poli_8sides 5_whiteLine3.jpg	MediumShort_b10_cut1_MS_stereo_44KHz.wav
4	122	1	1	1	C	1	1	898	1	poli_8sides 18_whiteLine3.jpg	MediumShort_b16_cut3_MS_stereo_44KHz.wav
4	123	2	1	0	C	1	0	1362	0	poli_8sides 4_whiteLine3.jpg	MediumShort_b16_cut3_MS_stereo_44KHz.wav
4	124	3	4	2	I	2	0	862	1	poli_8sides 15_whiteLine3.jpg	MediumShort_b10_cut1_MS_stereo_44KHz.wav
4	125	1	2	0	C	2	1	726	1	poli_8sides 18_whiteLine3.jpg	MediumShort_e16_cut1_stereo_44KHz.wav
4	126	3	3	2	I	2	0	1343	1	poli_8sides 15_whiteLine3.jpg	MediumShort_e22_cut1_stereo_44KHz.wav
4	127	4	3	2	I	1	0	1052	0	poli_8sides 5_whiteLine3.jpg	MediumShort_e22_cut1_stereo_44KHz.wav
4	128	2	2	1	C	1	1	1813	1	poli_8sides 4_whiteLine3.jpg	MediumShort_e16_cut1_stereo_44KHz.wav
4	129	3	4	2	I	1	0	1454	0	poli_8sides 15_whiteLine3.jpg	MediumShort_b10_cut1_MS_stereo_44KHz.wav
4	130	2	2	1	C	1	1	1548	1	poli_8sides 4_whiteLine3.jpg	MediumShort_e16_cut1_stereo_44KHz.wav
4	131	4	4	2	I	1	0	1437	1	poli_8sides 5_whiteLine3.jpg	MediumShort_b10_cut1_MS_stereo_44KHz.wav
4	132	1	2	0	C	2	1	679	1	poli_8sides 18_whiteLine3.jpg	MediumShort_e16_cut1_stereo_44KHz.wav
4	133	2	1	0	C	2	1	869	1	poli_8sides 4_whiteLine3.jpg	MediumShort_b16_cut3_MS_stereo_44KHz.wav
4	134	1	1	1	C	1	1	818	1	poli_8sides 18_whiteLine3.jpg	MediumShort_b16_cut3_MS_stereo_44KHz.wav
4	135	3	3	2	I	2	0	896	1	poli_8sides 15_whiteLine3.jpg	MediumShort_e22_cut1_stereo_44KHz.wav
4	136	4	3	2	I	2	0	798	1	poli_8sides 5_whiteLine3.jpg	MediumShort_e22_cut1_stereo_44KHz.wav
4	137	1	1	1	C	1	1	839	1	poli_8sides 18_whiteLine3.jpg	MediumShort_b16_cut3_MS_stereo_44KHz.wav
4	138	3	3	2	I	2	0	1185	1	poli_8sides 15_whiteLine3.jpg	MediumShort_e22_cut1_stereo_44KHz.wav
4	139	2	1	0	C	2	1	961	1	poli_8sides 4_whiteLine3.jpg	MediumShort_b16_cut3_MS_stereo_44KHz.wav
4	140	4	3	2	I	2	0	1188	1	poli_8sides 5_whiteLine3.jpg	MediumShort_e22_cut1_stereo_44KHz.wav
4	141	2	2	1	C	1	1	1369	1	poli_8sides 4_whiteLine3.jpg	MediumShort_e16_cut1_stereo_44KHz.wav
4	142	1	2	0	C	2	1	728	1	poli_8sides 18_whiteLine3.jpg	MediumShort_e16_cut1_stereo_44KHz.wav
4	143	4	4	2	I	2	0	1139	1	poli_8sides 5_whiteLine3.jpg	MediumShort_b10_cut1_MS_stereo_44KHz.wav
4	144	3	4	2	I	1	0	1218	1	poli_8sides 15_whiteLine3.jpg	MediumShort_b10_cut1_MS_stereo_44KHz.wav
4	145	1	1	1	C	1	1	896	1	poli_8sides 18_whiteLine3.jpg	MediumShort_b16_cut3_MS_stereo_44KHz.wav
4	146	3	3	2	I	2	0	887	1	poli_8sides 15_whiteLine3.jpg	MediumShort_e22_cut1_stereo_44KHz.wav
4	147	4	4	2	I	1	0	1029	1	poli_8sides 5_whiteLine3.jpg	MediumShort_b10_cut1_MS_stereo_44KHz.wav
4	148	2	2	1	C	1	1	1165	1	poli_8sides 4_whiteLine3.jpg	MediumShort_e16_cut1_stereo_44KHz.wav
4	149	1	2	0	C	2	1	777	1	poli_8sides 18_whiteLine3.jpg	MediumShort_e16_cut1_stereo_44KHz.wav
4	150	3	4	2	I	1	0	1053	0	poli_8sides 15_whiteLine3.jpg	MediumShort_b10_cut1_MS_stereo_44KHz.wav
4	151	4	3	2	I	2	0	951	1	poli_8sides 5_whiteLine3.jpg	MediumShort_e22_cut1_stereo_44KHz.wav
4	152	2	1	0	C	2	1	1013	1	poli_8sides 4_whiteLine3.jpg	MediumShort_b16_cut3_MS_stereo_44KHz.wav
4	153	1	2	0	C	2	1	661	1	poli_8sides 18_whiteLine3.jpg	MediumShort_e16_cut1_stereo_44KHz.wav
4	154	2	2	1	C	1	1	1025	1	poli_8sides 4_whiteLine3.jpg	MediumShort_e16_cut1_stereo_44KHz.wav
4	155	3	3	2	I	2	0	1008	0	poli_8sides 15_whiteLine3.jpg	MediumShort_e22_cut1_stereo_44KHz.wav
4	156	4	4	2	I	2	0	955	1	poli_8sides 5_whiteLine3.jpg	MediumShort_b10_cut1_MS_stereo_44KHz.wav
4	157	3	4	2	I	1	0	950	0	poli_8sides 15_whiteLine3.jpg	MediumShort_b10_cut1_MS_stereo_44KHz.wav
4	158	2	1	0	C	2	1	931	1	poli_8sides 4_whiteLine3.jpg	MediumShort_b16_cut3_MS_stereo_44KHz.wav
4	159	4	3	2	I	2	0	1212	0	poli_8sides 5_whiteLine3.jpg	MediumShort_e22_cut1_stereo_44KHz.wav
4	160	1	1	1	C	1	1	855	1	poli_8sides 18_whiteLine3.jpg	MediumShort_b16_cut3_MS_stereo_44KHz.wav
4	161	4	3	2	I	2	0	1094	1	poli_8sides 5_whiteLine3.jpg	MediumShort_e22_cut1_stereo_44KHz.wav
4	162	3	4	2	I	1	0	989	1	poli_8sides 15_whiteLine3.jpg	MediumShort_b10_cut1_MS_stereo_44KHz.wav
4	163	2	1	0	C	2	1	764	1	poli_8sides 4_whiteLine3.jpg	MediumShort_b16_cut3_MS_stereo_44KHz.wav
4	164	1	2	0	C	2	1	939	1	poli_8sides 18_whiteLine3.jpg	MediumShort_e16_cut1_stereo_44KHz.wav
4	165	4	4	2	I	2	0	885	0	poli_8sides 5_whiteLine3.jpg	MediumShort_b10_cut1_MS_stereo_44KHz.wav
4	166	3	3	2	I	2	0	880	1	poli_8sides 15_whiteLine3.jpg	MediumShort_e22_cut1_stereo_44KHz.wav
4	167	2	2	1	C	1	1	1148	1	poli_8sides 4_whiteLine3.jpg	MediumShort_e16_cut1_stereo_44KHz.wav
4	168	1	1	1	C	1	1	874	1	poli_8sides 18_whiteLine3.jpg	MediumShort_b16_cut3_MS_stereo_44KHz.wav
4	169	4	3	2	I	1	0	856	0	poli_8sides 5_whiteLine3.jpg	MediumShort_e22_cut1_stereo_44KHz.wav
4	170	1	2	0	C	2	1	590	1	poli_8sides 18_whiteLine3.jpg	MediumShort_e16_cut1_stereo_44KHz.wav
4	171	2	2	1	C	1	1	996	1	poli_8sides 4_whiteLine3.jpg	MediumShort_e16_cut1_stereo_44KHz.wav
4	172	3	4	2	I	1	0	1327	0	poli_8sides 15_whiteLine3.jpg	MediumShort_b10_cut1_MS_stereo_44KHz.wav
4	173	4	4	2	I	1	0	894	0	poli_8sides 5_whiteLine3.jpg	MediumShort_b10_cut1_MS_stereo_44KHz.wav
4	174	2	1	0	C	2	1	786	1	poli_8sides 4_whiteLine3.jpg	MediumShort_b16_cut3_MS_stereo_44KHz.wav
4	175	1	1	1	C	1	1	805	1	poli_8sides 18_whiteLine3.jpg	MediumShort_b16_cut3_MS_stereo_44KHz.wav
4	176	3	3	2	I	2	0	1322	0	poli_8sides 15_whiteLine3.jpg	MediumShort_e22_cut1_stereo_44KHz.wav
4	177	2	1	0	C	2	1	863	1	poli_8sides 4_whiteLine3.jpg	MediumShort_b16_cut3_MS_stereo_44KHz.wav
4	178	1	2	0	C	2	1	731	1	poli_8sides 18_whiteLine3.jpg	MediumShort_e16_cut1_stereo_44KHz.wav
4	179	3	3	2	I	2	0	880	0	poli_8sides 15_whiteLine3.jpg	MediumShort_e22_cut1_stereo_44KHz.wav
4	180	4	4	2	I	2	0	1003	1	poli_8sides 5_whiteLine3.jpg	MediumShort_b10_cut1_MS_stereo_44KHz.wav
4	181	2	2	1	C	1	1	1040	1	poli_8sides 4_whiteLine3.jpg	MediumShort_e16_cut1_stereo_44KHz.wav
4	182	3	4	2	I	2	0	1165	0	poli_8sides 15_whiteLine3.jpg	MediumShort_b10_cut1_MS_stereo_44KHz.wav
4	183	1	1	1	C	1	1	740	1	poli_8sides 18_whiteLine3.jpg	MediumShort_b16_cut3_MS_stereo_44KHz.wav
4	184	4	3	2	I	1	0	936	0	poli_8sides 5_whiteLine3.jpg	MediumShort_e22_cut1_stereo_44KHz.wav
4	185	2	2	1	C	1	1	858	1	poli_8sides 4_whiteLine3.jpg	MediumShort_e16_cut1_stereo_44KHz.wav
4	186	3	3	2	I	2	0	862	1	poli_8sides 15_whiteLine3.jpg	MediumShort_e22_cut1_stereo_44KHz.wav
4	187	4	4	2	I	1	0	880	1	poli_8sides 5_whiteLine3.jpg	MediumShort_b10_cut1_MS_stereo_44KHz.wav
4	188	1	1	1	C	1	1	744	1	poli_8sides 18_whiteLine3.jpg	MediumShort_b16_cut3_MS_stereo_44KHz.wav
4	189	4	3	2	I	1	0	1133	0	poli_8sides 5_whiteLine3.jpg	MediumShort_e22_cut1_stereo_44KHz.wav
4	190	1	2	0	C	2	1	907	1	poli_8sides 18_whiteLine3.jpg	MediumShort_e16_cut1_stereo_44KHz.wav
4	191	3	4	2	I	0	0	0	0	poli_8sides 15_whiteLine3.jpg	MediumShort_b10_cut1_MS_stereo_44KHz.wav
4	192	2	1	0	C	2	1	801	1	poli_8sides 4_whiteLine3.jpg	MediumShort_b16_cut3_MS_stereo_44KHz.wav
4	193	4	3	2	I	2	0	1054	0	poli_8sides 5_whiteLine3.jpg	MediumShort_e22_cut1_stereo_44KHz.wav
4	194	1	2	0	C	2	1	743	1	poli_8sides 18_whiteLine3.jpg	MediumShort_e16_cut1_stereo_44KHz.wav
4	195	3	3	2	I	2	0	1001	1	poli_8sides 15_whiteLine3.jpg	MediumShort_e22_cut1_stereo_44KHz.wav
4	196	2	2	1	C	1	1	1091	1	poli_8sides 4_whiteLine3.jpg	MediumShort_e16_cut1_stereo_44KHz.wav
4	197	4	4	2	I	1	0	1263	0	poli_8sides 5_whiteLine3.jpg	MediumShort_b10_cut1_MS_stereo_44KHz.wav
4	198	2	1	0	C	2	1	733	1	poli_8sides 4_whiteLine3.jpg	MediumShort_b16_cut3_MS_stereo_44KHz.wav
4	199	3	4	2	I	2	0	975	1	poli_8sides 15_whiteLine3.jpg	MediumShort_b10_cut1_MS_stereo_44KHz.wav
4	200	1	1	1	C	1	1	735	1	poli_8sides 18_whiteLine3.jpg	MediumShort_b16_cut3_MS_stereo_44KHz.wav
