block	trial	Vstim	Astim	match	C/I	resp	result	RT	fb	V-file	A-file
RL

0	1	2	4	0	C	2	1	1367	1	Ⴉ	cut_g_stereo_44KHz.wav
0	2	1	2	0	C	1	0	839	0	Ⴞ	cut_oo_stereo_44KHz.wav
0	3	1	1	1	C	1	1	674	1	Ⴞ	cut_eeuw_stereo_44KHz.wav
0	4	2	3	1	C	1	1	1130	1	Ⴉ	cut_ee_stereo_44KHz.wav
0	5	2	4	0	C	2	1	461	1	Ⴉ	cut_g_stereo_44KHz.wav
0	6	1	1	1	C	2	0	679	0	Ⴞ	cut_eeuw_stereo_44KHz.wav
0	7	1	2	0	C	1	0	687	0	Ⴞ	cut_oo_stereo_44KHz.wav
0	8	2	3	1	C	1	1	776	1	Ⴉ	cut_ee_stereo_44KHz.wav
0	9	1	2	0	C	2	1	1047	1	Ⴞ	cut_oo_stereo_44KHz.wav
0	10	2	4	0	C	2	1	580	1	Ⴉ	cut_g_stereo_44KHz.wav
0	11	1	1	1	C	1	1	872	1	Ⴞ	cut_eeuw_stereo_44KHz.wav
0	12	2	3	1	C	2	0	578	0	Ⴉ	cut_ee_stereo_44KHz.wav
0	13	2	4	0	C	2	1	860	1	Ⴉ	cut_g_stereo_44KHz.wav
0	14	1	1	1	C	1	1	924	1	Ⴞ	cut_eeuw_stereo_44KHz.wav
0	15	1	2	0	C	2	1	618	1	Ⴞ	cut_oo_stereo_44KHz.wav
0	16	2	3	1	C	1	1	624	1	Ⴉ	cut_ee_stereo_44KHz.wav
0	17	2	3	1	C	1	1	909	1	Ⴉ	cut_ee_stereo_44KHz.wav
0	18	1	2	0	C	2	1	1192	1	Ⴞ	cut_oo_stereo_44KHz.wav
0	19	2	4	0	C	2	1	805	1	Ⴉ	cut_g_stereo_44KHz.wav
0	20	1	1	1	C	1	1	854	1	Ⴞ	cut_eeuw_stereo_44KHz.wav
0	21	2	3	1	C	1	1	971	1	Ⴉ	cut_ee_stereo_44KHz.wav
0	22	2	4	0	C	2	1	846	1	Ⴉ	cut_g_stereo_44KHz.wav
0	23	1	1	1	C	1	1	758	1	Ⴞ	cut_eeuw_stereo_44KHz.wav
0	24	1	2	0	C	2	1	731	1	Ⴞ	cut_oo_stereo_44KHz.wav
0	25	1	2	0	C	2	1	1470	1	Ⴞ	cut_oo_stereo_44KHz.wav
0	26	2	4	0	C	2	1	572	1	Ⴉ	cut_g_stereo_44KHz.wav
0	27	1	1	1	C	1	1	847	1	Ⴞ	cut_eeuw_stereo_44KHz.wav
0	28	2	3	1	C	1	1	687	1	Ⴉ	cut_ee_stereo_44KHz.wav
0	29	1	2	0	C	2	1	751	1	Ⴞ	cut_oo_stereo_44KHz.wav
0	30	1	1	1	C	1	1	1041	1	Ⴞ	cut_eeuw_stereo_44KHz.wav
avg_resp = 860
1	1	1	1	1	C	1	1	856	1	Ⴂ	cut_ui_stereo_44KHz.wav
1	2	3	4	2	I	1	0	864	0	Ⴇ	cut_s_stereo_44KHz.wav
1	3	2	1	0	C	2	1	1532	1	Ⴟ	cut_ui_stereo_44KHz.wav
1	4	4	4	2	I	1	0	747	0	Ⴃ	cut_s_stereo_44KHz.wav
1	5	3	3	2	I	1	0	995	1	Ⴇ	cut_n_stereo_44KHz.wav
1	6	2	2	1	C	1	1	985	1	Ⴟ	cut_j_stereo_44KHz.wav
1	7	1	2	0	C	2	1	829	1	Ⴂ	cut_j_stereo_44KHz.wav
1	8	4	3	2	I	2	0	1166	0	Ⴃ	cut_n_stereo_44KHz.wav
1	9	2	1	0	C	2	1	1103	1	Ⴟ	cut_ui_stereo_44KHz.wav
1	10	3	4	2	I	2	0	741	1	Ⴇ	cut_s_stereo_44KHz.wav
1	11	1	1	1	C	1	1	1007	1	Ⴂ	cut_ui_stereo_44KHz.wav
1	12	4	4	2	I	1	0	1081	0	Ⴃ	cut_s_stereo_44KHz.wav
1	13	1	2	0	C	2	1	941	1	Ⴂ	cut_j_stereo_44KHz.wav
1	14	4	3	2	I	1	0	946	1	Ⴃ	cut_n_stereo_44KHz.wav
1	15	3	3	2	I	1	0	1153	1	Ⴇ	cut_n_stereo_44KHz.wav
1	16	2	2	1	C	1	1	947	1	Ⴟ	cut_j_stereo_44KHz.wav
1	17	1	2	0	C	2	1	864	1	Ⴂ	cut_j_stereo_44KHz.wav
1	18	3	4	2	I	2	0	862	0	Ⴇ	cut_s_stereo_44KHz.wav
1	19	2	1	0	C	2	1	840	1	Ⴟ	cut_ui_stereo_44KHz.wav
1	20	4	3	2	I	1	0	1290	1	Ⴃ	cut_n_stereo_44KHz.wav
1	21	2	2	1	C	1	1	941	1	Ⴟ	cut_j_stereo_44KHz.wav
1	22	4	4	2	I	2	0	777	0	Ⴃ	cut_s_stereo_44KHz.wav
1	23	3	3	2	I	2	0	1134	0	Ⴇ	cut_n_stereo_44KHz.wav
1	24	1	1	1	C	1	1	1052	1	Ⴂ	cut_ui_stereo_44KHz.wav
1	25	2	2	1	C	1	1	984	1	Ⴟ	cut_j_stereo_44KHz.wav
1	26	3	3	2	I	1	0	1024	0	Ⴇ	cut_n_stereo_44KHz.wav
1	27	1	2	0	C	2	1	921	1	Ⴂ	cut_j_stereo_44KHz.wav
1	28	4	3	2	I	2	0	708	0	Ⴃ	cut_n_stereo_44KHz.wav
1	29	1	1	1	C	1	1	1835	1	Ⴂ	cut_ui_stereo_44KHz.wav
1	30	4	4	2	I	2	0	725	0	Ⴃ	cut_s_stereo_44KHz.wav
1	31	2	1	0	C	2	1	676	1	Ⴟ	cut_ui_stereo_44KHz.wav
1	32	3	4	2	I	2	0	824	0	Ⴇ	cut_s_stereo_44KHz.wav
1	33	1	2	0	C	2	1	991	1	Ⴂ	cut_j_stereo_44KHz.wav
1	34	4	4	2	I	1	0	642	1	Ⴃ	cut_s_stereo_44KHz.wav
1	35	2	1	0	C	2	1	768	1	Ⴟ	cut_ui_stereo_44KHz.wav
1	36	3	3	2	I	1	0	571	1	Ⴇ	cut_n_stereo_44KHz.wav
1	37	2	2	1	C	1	1	868	1	Ⴟ	cut_j_stereo_44KHz.wav
1	38	3	4	2	I	2	0	624	1	Ⴇ	cut_s_stereo_44KHz.wav
1	39	4	3	2	I	2	0	771	0	Ⴃ	cut_n_stereo_44KHz.wav
1	40	1	1	1	C	1	1	1288	1	Ⴂ	cut_ui_stereo_44KHz.wav
1	41	3	4	2	I	2	0	556	1	Ⴇ	cut_s_stereo_44KHz.wav
1	42	4	4	2	I	2	0	638	1	Ⴃ	cut_s_stereo_44KHz.wav
1	43	1	1	1	C	1	1	919	1	Ⴂ	cut_ui_stereo_44KHz.wav
1	44	2	1	0	C	2	1	930	1	Ⴟ	cut_ui_stereo_44KHz.wav
1	45	1	2	0	C	2	1	825	1	Ⴂ	cut_j_stereo_44KHz.wav
1	46	3	3	2	I	1	0	567	0	Ⴇ	cut_n_stereo_44KHz.wav
1	47	4	3	2	I	2	0	437	1	Ⴃ	cut_n_stereo_44KHz.wav
1	48	2	2	1	C	1	1	1225	1	Ⴟ	cut_j_stereo_44KHz.wav
1	49	1	1	1	C	1	1	1081	1	Ⴂ	cut_ui_stereo_44KHz.wav
1	50	3	3	2	I	1	0	1332	1	Ⴇ	cut_n_stereo_44KHz.wav
1	51	2	1	0	C	2	1	1170	1	Ⴟ	cut_ui_stereo_44KHz.wav
1	52	4	3	2	I	1	0	1043	0	Ⴃ	cut_n_stereo_44KHz.wav
1	53	1	2	0	C	2	1	940	1	Ⴂ	cut_j_stereo_44KHz.wav
1	54	2	2	1	C	1	1	1341	1	Ⴟ	cut_j_stereo_44KHz.wav
1	55	4	4	2	I	2	0	1669	0	Ⴃ	cut_s_stereo_44KHz.wav
1	56	3	4	2	I	1	0	1046	1	Ⴇ	cut_s_stereo_44KHz.wav
1	57	2	1	0	C	2	1	1073	1	Ⴟ	cut_ui_stereo_44KHz.wav
1	58	1	2	0	C	2	1	826	1	Ⴂ	cut_j_stereo_44KHz.wav
1	59	4	4	2	I	2	0	549	0	Ⴃ	cut_s_stereo_44KHz.wav
1	60	3	3	2	I	2	0	970	0	Ⴇ	cut_n_stereo_44KHz.wav
1	61	2	2	1	C	0	0	0	0	Ⴟ	cut_j_stereo_44KHz.wav
1	62	3	4	2	I	2	0	818	1	Ⴇ	cut_s_stereo_44KHz.wav
1	63	4	3	2	I	2	0	1229	1	Ⴃ	cut_n_stereo_44KHz.wav
1	64	1	1	1	C	1	1	1075	1	Ⴂ	cut_ui_stereo_44KHz.wav
1	65	4	3	2	I	1	0	785	1	Ⴃ	cut_n_stereo_44KHz.wav
1	66	2	1	0	C	2	1	916	1	Ⴟ	cut_ui_stereo_44KHz.wav
1	67	3	4	2	I	2	0	581	0	Ⴇ	cut_s_stereo_44KHz.wav
1	68	1	2	0	C	2	1	1791	1	Ⴂ	cut_j_stereo_44KHz.wav
1	69	4	4	2	I	1	0	858	1	Ⴃ	cut_s_stereo_44KHz.wav
1	70	3	3	2	I	2	0	576	1	Ⴇ	cut_n_stereo_44KHz.wav
1	71	2	2	1	C	1	1	1821	1	Ⴟ	cut_j_stereo_44KHz.wav
1	72	1	1	1	C	1	1	888	1	Ⴂ	cut_ui_stereo_44KHz.wav
1	73	3	4	2	I	2	0	469	0	Ⴇ	cut_s_stereo_44KHz.wav
1	74	2	2	1	C	1	1	1617	1	Ⴟ	cut_j_stereo_44KHz.wav
1	75	1	1	1	C	1	1	969	1	Ⴂ	cut_ui_stereo_44KHz.wav
1	76	4	3	2	I	2	0	1367	1	Ⴃ	cut_n_stereo_44KHz.wav
1	77	2	1	0	C	1	0	1115	0	Ⴟ	cut_ui_stereo_44KHz.wav
1	78	1	2	0	C	2	1	1900	1	Ⴂ	cut_j_stereo_44KHz.wav
1	79	4	4	2	I	2	0	945	0	Ⴃ	cut_s_stereo_44KHz.wav
1	80	3	3	2	I	1	0	1128	1	Ⴇ	cut_n_stereo_44KHz.wav
1	81	4	4	2	I	1	0	1139	1	Ⴃ	cut_s_stereo_44KHz.wav
1	82	2	1	0	C	2	1	1116	1	Ⴟ	cut_ui_stereo_44KHz.wav
1	83	3	3	2	I	1	0	435	0	Ⴇ	cut_n_stereo_44KHz.wav
1	84	1	1	1	C	1	1	1399	1	Ⴂ	cut_ui_stereo_44KHz.wav
1	85	4	3	2	I	1	0	1254	0	Ⴃ	cut_n_stereo_44KHz.wav
1	86	1	2	0	C	2	1	1032	1	Ⴂ	cut_j_stereo_44KHz.wav
1	87	2	2	1	C	1	1	961	1	Ⴟ	cut_j_stereo_44KHz.wav
1	88	3	4	2	I	1	0	1046	0	Ⴇ	cut_s_stereo_44KHz.wav
1	89	1	1	1	C	1	1	1044	1	Ⴂ	cut_ui_stereo_44KHz.wav
1	90	3	3	2	I	0	0	0	0	Ⴇ	cut_n_stereo_44KHz.wav
1	91	4	4	2	I	2	0	1053	0	Ⴃ	cut_s_stereo_44KHz.wav
1	92	2	1	0	C	2	1	686	1	Ⴟ	cut_ui_stereo_44KHz.wav
1	93	4	3	2	I	2	0	747	1	Ⴃ	cut_n_stereo_44KHz.wav
1	94	3	4	2	I	2	0	813	1	Ⴇ	cut_s_stereo_44KHz.wav
1	95	1	2	0	C	2	1	833	1	Ⴂ	cut_j_stereo_44KHz.wav
1	96	2	2	1	C	1	1	1103	1	Ⴟ	cut_j_stereo_44KHz.wav
1	97	3	3	2	I	1	0	678	1	Ⴇ	cut_n_stereo_44KHz.wav
1	98	2	1	0	C	2	1	905	1	Ⴟ	cut_ui_stereo_44KHz.wav
1	99	1	1	1	C	1	1	1032	1	Ⴂ	cut_ui_stereo_44KHz.wav
1	100	4	3	2	I	1	0	1242	1	Ⴃ	cut_n_stereo_44KHz.wav
1	101	2	2	1	C	1	1	1000	1	Ⴟ	cut_j_stereo_44KHz.wav
1	102	3	4	2	I	2	0	1124	0	Ⴇ	cut_s_stereo_44KHz.wav
1	103	1	2	0	C	2	1	964	1	Ⴂ	cut_j_stereo_44KHz.wav
1	104	4	4	2	I	2	0	1243	1	Ⴃ	cut_s_stereo_44KHz.wav
1	105	2	2	1	C	1	1	909	1	Ⴟ	cut_j_stereo_44KHz.wav
1	106	3	3	2	I	2	0	806	1	Ⴇ	cut_n_stereo_44KHz.wav
1	107	4	3	2	I	2	0	855	1	Ⴃ	cut_n_stereo_44KHz.wav
1	108	1	2	0	C	2	1	1022	1	Ⴂ	cut_j_stereo_44KHz.wav
1	109	4	4	2	I	1	0	1401	0	Ⴃ	cut_s_stereo_44KHz.wav
1	110	2	1	0	C	2	1	988	1	Ⴟ	cut_ui_stereo_44KHz.wav
1	111	1	1	1	C	1	1	874	1	Ⴂ	cut_ui_stereo_44KHz.wav
1	112	3	4	2	I	2	0	555	0	Ⴇ	cut_s_stereo_44KHz.wav
1	113	1	1	1	C	1	1	1217	1	Ⴂ	cut_ui_stereo_44KHz.wav
1	114	3	4	2	I	1	0	403	0	Ⴇ	cut_s_stereo_44KHz.wav
1	115	2	1	0	C	2	1	1693	1	Ⴟ	cut_ui_stereo_44KHz.wav
1	116	4	4	2	I	2	0	843	1	Ⴃ	cut_s_stereo_44KHz.wav
1	117	3	3	2	I	2	0	932	1	Ⴇ	cut_n_stereo_44KHz.wav
1	118	2	2	1	C	1	1	1124	1	Ⴟ	cut_j_stereo_44KHz.wav
1	119	4	3	2	I	1	0	1294	0	Ⴃ	cut_n_stereo_44KHz.wav
1	120	1	2	0	C	2	1	984	1	Ⴂ	cut_j_stereo_44KHz.wav
1	121	4	4	2	I	2	0	438	0	Ⴃ	cut_s_stereo_44KHz.wav
1	122	3	3	2	I	2	0	1064	0	Ⴇ	cut_n_stereo_44KHz.wav
1	123	2	2	1	C	1	1	999	1	Ⴟ	cut_j_stereo_44KHz.wav
1	124	1	1	1	C	1	1	1694	1	Ⴂ	cut_ui_stereo_44KHz.wav
1	125	4	3	2	I	1	0	1617	1	Ⴃ	cut_n_stereo_44KHz.wav
1	126	2	1	0	C	2	1	895	1	Ⴟ	cut_ui_stereo_44KHz.wav
1	127	1	2	0	C	1	0	1272	0	Ⴂ	cut_j_stereo_44KHz.wav
1	128	3	4	2	I	1	0	452	1	Ⴇ	cut_s_stereo_44KHz.wav
1	129	2	1	0	C	2	1	1593	1	Ⴟ	cut_ui_stereo_44KHz.wav
1	130	4	3	2	I	2	0	793	1	Ⴃ	cut_n_stereo_44KHz.wav
1	131	3	3	2	I	2	0	717	1	Ⴇ	cut_n_stereo_44KHz.wav
1	132	1	2	0	C	2	1	1271	1	Ⴂ	cut_j_stereo_44KHz.wav
1	133	2	2	1	C	1	1	1529	1	Ⴟ	cut_j_stereo_44KHz.wav
1	134	1	1	1	C	1	1	1131	1	Ⴂ	cut_ui_stereo_44KHz.wav
1	135	3	4	2	I	1	0	446	0	Ⴇ	cut_s_stereo_44KHz.wav
1	136	4	4	2	I	2	0	937	0	Ⴃ	cut_s_stereo_44KHz.wav
1	137	2	2	1	C	1	1	1710	1	Ⴟ	cut_j_stereo_44KHz.wav
1	138	3	3	2	I	2	0	648	0	Ⴇ	cut_n_stereo_44KHz.wav
1	139	1	2	0	C	2	1	918	1	Ⴂ	cut_j_stereo_44KHz.wav
1	140	4	4	2	I	2	0	638	1	Ⴃ	cut_s_stereo_44KHz.wav
1	141	1	1	1	C	1	1	1065	1	Ⴂ	cut_ui_stereo_44KHz.wav
1	142	2	1	0	C	2	1	1002	1	Ⴟ	cut_ui_stereo_44KHz.wav
1	143	3	4	2	I	2	0	470	1	Ⴇ	cut_s_stereo_44KHz.wav
1	144	4	3	2	I	2	0	623	1	Ⴃ	cut_n_stereo_44KHz.wav
1	145	1	2	0	C	2	1	881	1	Ⴂ	cut_j_stereo_44KHz.wav
1	146	4	3	2	I	2	0	581	0	Ⴃ	cut_n_stereo_44KHz.wav
1	147	2	1	0	C	2	1	957	1	Ⴟ	cut_ui_stereo_44KHz.wav
1	148	3	3	2	I	2	0	645	1	Ⴇ	cut_n_stereo_44KHz.wav
1	149	2	2	1	C	1	1	1408	1	Ⴟ	cut_j_stereo_44KHz.wav
1	150	3	4	2	I	2	0	667	0	Ⴇ	cut_s_stereo_44KHz.wav
1	151	4	4	2	I	1	0	560	0	Ⴃ	cut_s_stereo_44KHz.wav
1	152	1	1	1	C	1	1	1779	1	Ⴂ	cut_ui_stereo_44KHz.wav
1	153	4	4	2	I	1	0	551	0	Ⴃ	cut_s_stereo_44KHz.wav
1	154	1	1	1	C	1	1	1145	1	Ⴂ	cut_ui_stereo_44KHz.wav
1	155	3	3	2	I	1	0	1200	1	Ⴇ	cut_n_stereo_44KHz.wav
1	156	2	1	0	C	2	1	1020	1	Ⴟ	cut_ui_stereo_44KHz.wav
1	157	3	4	2	I	2	0	805	1	Ⴇ	cut_s_stereo_44KHz.wav
1	158	2	2	1	C	1	1	1180	1	Ⴟ	cut_j_stereo_44KHz.wav
1	159	1	2	0	C	2	1	1313	1	Ⴂ	cut_j_stereo_44KHz.wav
1	160	4	3	2	I	0	0	0	0	Ⴃ	cut_n_stereo_44KHz.wav
1	161	2	2	1	C	1	1	1229	1	Ⴟ	cut_j_stereo_44KHz.wav
1	162	3	4	2	I	1	0	945	0	Ⴇ	cut_s_stereo_44KHz.wav
1	163	4	4	2	I	2	0	969	1	Ⴃ	cut_s_stereo_44KHz.wav
1	164	1	2	0	C	2	1	916	1	Ⴂ	cut_j_stereo_44KHz.wav
1	165	2	1	0	C	2	1	1064	1	Ⴟ	cut_ui_stereo_44KHz.wav
1	166	4	3	2	I	2	0	445	1	Ⴃ	cut_n_stereo_44KHz.wav
1	167	3	3	2	I	2	0	669	0	Ⴇ	cut_n_stereo_44KHz.wav
1	168	1	1	1	C	1	1	1291	1	Ⴂ	cut_ui_stereo_44KHz.wav
1	169	4	3	2	I	2	0	1254	1	Ⴃ	cut_n_stereo_44KHz.wav
1	170	2	1	0	C	2	1	1563	1	Ⴟ	cut_ui_stereo_44KHz.wav
1	171	3	4	2	I	2	0	835	1	Ⴇ	cut_s_stereo_44KHz.wav
1	172	1	1	1	C	1	1	1314	1	Ⴂ	cut_ui_stereo_44KHz.wav
1	173	4	4	2	I	2	0	761	0	Ⴃ	cut_s_stereo_44KHz.wav
1	174	3	3	2	I	2	0	1082	0	Ⴇ	cut_n_stereo_44KHz.wav
1	175	2	2	1	C	1	1	1305	1	Ⴟ	cut_j_stereo_44KHz.wav
1	176	1	2	0	C	2	1	931	1	Ⴂ	cut_j_stereo_44KHz.wav
1	177	4	3	2	I	2	0	1010	1	Ⴃ	cut_n_stereo_44KHz.wav
1	178	3	4	2	I	2	0	844	0	Ⴇ	cut_s_stereo_44KHz.wav
1	179	2	2	1	C	0	0	0	0	Ⴟ	cut_j_stereo_44KHz.wav
1	180	1	2	0	C	2	1	644	1	Ⴂ	cut_j_stereo_44KHz.wav
1	181	4	4	2	I	2	0	603	0	Ⴃ	cut_s_stereo_44KHz.wav
1	182	1	1	1	C	1	1	1084	1	Ⴂ	cut_ui_stereo_44KHz.wav
1	183	3	3	2	I	2	0	861	0	Ⴇ	cut_n_stereo_44KHz.wav
1	184	2	1	0	C	2	1	863	1	Ⴟ	cut_ui_stereo_44KHz.wav
1	185	4	3	2	I	2	0	1182	0	Ⴃ	cut_n_stereo_44KHz.wav
1	186	3	3	2	I	1	0	685	1	Ⴇ	cut_n_stereo_44KHz.wav
1	187	1	1	1	C	1	1	995	1	Ⴂ	cut_ui_stereo_44KHz.wav
1	188	2	2	1	C	1	1	1163	1	Ⴟ	cut_j_stereo_44KHz.wav
1	189	4	4	2	I	2	0	1266	0	Ⴃ	cut_s_stereo_44KHz.wav
1	190	1	2	0	C	2	1	1089	1	Ⴂ	cut_j_stereo_44KHz.wav
1	191	2	1	0	C	2	1	852	1	Ⴟ	cut_ui_stereo_44KHz.wav
1	192	3	4	2	I	2	0	779	1	Ⴇ	cut_s_stereo_44KHz.wav
1	193	4	3	2	I	2	0	865	1	Ⴃ	cut_n_stereo_44KHz.wav
1	194	1	2	0	C	2	1	1025	1	Ⴂ	cut_j_stereo_44KHz.wav
1	195	2	1	0	C	2	1	942	1	Ⴟ	cut_ui_stereo_44KHz.wav
1	196	3	3	2	I	1	0	1170	0	Ⴇ	cut_n_stereo_44KHz.wav
1	197	4	4	2	I	2	0	584	0	Ⴃ	cut_s_stereo_44KHz.wav
1	198	2	2	1	C	1	1	1863	1	Ⴟ	cut_j_stereo_44KHz.wav
1	199	3	4	2	I	1	0	1319	0	Ⴇ	cut_s_stereo_44KHz.wav
1	200	1	1	1	C	1	1	1213	1	Ⴂ	cut_ui_stereo_44KHz.wav
2	1	1	2	0	C	1	0	1292	0	Ⴒ	cut_w_stereo_44KHz.wav
2	2	2	2	1	C	1	1	1071	1	Ⴐ	cut_w_stereo_44KHz.wav
2	3	4	4	2	I	1	0	1038	0	Ⴏ	cut_h_stereo_44KHz.wav
2	4	3	4	2	I	1	0	746	0	Ⴕ	cut_h_stereo_44KHz.wav
2	5	1	1	1	C	1	1	705	1	Ⴒ	cut_l_stereo_44KHz.wav
2	6	3	3	2	I	1	0	914	1	Ⴕ	cut_g_stereo_44KHz.wav
2	7	2	1	0	C	1	0	984	0	Ⴐ	cut_l_stereo_44KHz.wav
2	8	4	3	2	I	1	0	810	0	Ⴏ	cut_g_stereo_44KHz.wav
2	9	1	2	0	C	2	1	1032	1	Ⴒ	cut_w_stereo_44KHz.wav
2	10	2	1	0	C	2	1	839	1	Ⴐ	cut_l_stereo_44KHz.wav
2	11	3	3	2	I	2	0	769	0	Ⴕ	cut_g_stereo_44KHz.wav
2	12	4	3	2	I	2	0	1142	1	Ⴏ	cut_g_stereo_44KHz.wav
2	13	1	1	1	C	1	1	1056	1	Ⴒ	cut_l_stereo_44KHz.wav
2	14	2	2	1	C	1	1	721	1	Ⴐ	cut_w_stereo_44KHz.wav
2	15	4	4	2	I	2	0	1175	0	Ⴏ	cut_h_stereo_44KHz.wav
2	16	3	4	2	I	2	0	627	1	Ⴕ	cut_h_stereo_44KHz.wav
2	17	2	2	1	C	1	1	956	1	Ⴐ	cut_w_stereo_44KHz.wav
2	18	3	3	2	I	1	0	906	0	Ⴕ	cut_g_stereo_44KHz.wav
2	19	1	1	1	C	1	1	896	1	Ⴒ	cut_l_stereo_44KHz.wav
2	20	4	3	2	I	2	0	559	1	Ⴏ	cut_g_stereo_44KHz.wav
2	21	1	2	0	C	1	0	1556	0	Ⴒ	cut_w_stereo_44KHz.wav
2	22	3	4	2	I	2	0	754	1	Ⴕ	cut_h_stereo_44KHz.wav
2	23	4	4	2	I	2	0	931	1	Ⴏ	cut_h_stereo_44KHz.wav
2	24	2	1	0	C	2	1	861	1	Ⴐ	cut_l_stereo_44KHz.wav
2	25	1	1	1	C	1	1	793	1	Ⴒ	cut_l_stereo_44KHz.wav
2	26	2	2	1	C	1	1	1306	1	Ⴐ	cut_w_stereo_44KHz.wav
2	27	3	3	2	I	2	0	710	1	Ⴕ	cut_g_stereo_44KHz.wav
2	28	4	4	2	I	2	0	787	0	Ⴏ	cut_h_stereo_44KHz.wav
2	29	1	2	0	C	2	1	933	1	Ⴒ	cut_w_stereo_44KHz.wav
2	30	2	1	0	C	2	1	778	1	Ⴐ	cut_l_stereo_44KHz.wav
2	31	3	4	2	I	2	0	882	0	Ⴕ	cut_h_stereo_44KHz.wav
2	32	4	3	2	I	1	0	1003	0	Ⴏ	cut_g_stereo_44KHz.wav
2	33	3	3	2	I	2	0	741	1	Ⴕ	cut_g_stereo_44KHz.wav
2	34	2	1	0	C	2	1	730	1	Ⴐ	cut_l_stereo_44KHz.wav
2	35	1	1	1	C	1	1	904	1	Ⴒ	cut_l_stereo_44KHz.wav
2	36	4	3	2	I	2	0	676	0	Ⴏ	cut_g_stereo_44KHz.wav
2	37	3	4	2	I	1	0	714	0	Ⴕ	cut_h_stereo_44KHz.wav
2	38	2	2	1	C	1	1	1263	1	Ⴐ	cut_w_stereo_44KHz.wav
2	39	4	4	2	I	2	0	922	0	Ⴏ	cut_h_stereo_44KHz.wav
2	40	1	2	0	C	2	1	864	1	Ⴒ	cut_w_stereo_44KHz.wav
2	41	3	4	2	I	2	0	1124	1	Ⴕ	cut_h_stereo_44KHz.wav
2	42	1	1	1	C	1	1	1094	1	Ⴒ	cut_l_stereo_44KHz.wav
2	43	2	1	0	C	2	1	799	1	Ⴐ	cut_l_stereo_44KHz.wav
2	44	4	4	2	I	2	0	656	1	Ⴏ	cut_h_stereo_44KHz.wav
2	45	1	2	0	C	1	0	694	0	Ⴒ	cut_w_stereo_44KHz.wav
2	46	2	2	1	C	1	1	1219	1	Ⴐ	cut_w_stereo_44KHz.wav
2	47	3	3	2	I	1	0	541	1	Ⴕ	cut_g_stereo_44KHz.wav
2	48	4	3	2	I	1	0	623	0	Ⴏ	cut_g_stereo_44KHz.wav
2	49	2	1	0	C	2	1	978	1	Ⴐ	cut_l_stereo_44KHz.wav
2	50	3	3	2	I	2	0	1130	1	Ⴕ	cut_g_stereo_44KHz.wav
2	51	4	3	2	I	2	0	683	0	Ⴏ	cut_g_stereo_44KHz.wav
2	52	1	2	0	C	1	0	750	0	Ⴒ	cut_w_stereo_44KHz.wav
2	53	4	4	2	I	2	0	767	0	Ⴏ	cut_h_stereo_44KHz.wav
2	54	2	2	1	C	1	1	1098	1	Ⴐ	cut_w_stereo_44KHz.wav
2	55	1	1	1	C	1	1	1176	1	Ⴒ	cut_l_stereo_44KHz.wav
2	56	3	4	2	I	2	0	533	1	Ⴕ	cut_h_stereo_44KHz.wav
2	57	1	2	0	C	2	1	1237	1	Ⴒ	cut_w_stereo_44KHz.wav
2	58	2	2	1	C	1	1	860	1	Ⴐ	cut_w_stereo_44KHz.wav
2	59	3	3	2	I	2	0	640	0	Ⴕ	cut_g_stereo_44KHz.wav
2	60	4	3	2	I	2	0	634	0	Ⴏ	cut_g_stereo_44KHz.wav
2	61	3	4	2	I	1	0	1710	1	Ⴕ	cut_h_stereo_44KHz.wav
2	62	2	1	0	C	2	1	783	1	Ⴐ	cut_l_stereo_44KHz.wav
2	63	1	1	1	C	2	0	718	0	Ⴒ	cut_l_stereo_44KHz.wav
2	64	4	4	2	I	2	0	813	1	Ⴏ	cut_h_stereo_44KHz.wav
2	65	3	3	2	I	2	0	1200	1	Ⴕ	cut_g_stereo_44KHz.wav
2	66	2	1	0	C	2	1	1204	1	Ⴐ	cut_l_stereo_44KHz.wav
2	67	4	3	2	I	2	0	657	0	Ⴏ	cut_g_stereo_44KHz.wav
2	68	1	2	0	C	2	1	1207	1	Ⴒ	cut_w_stereo_44KHz.wav
2	69	3	4	2	I	2	0	843	0	Ⴕ	cut_h_stereo_44KHz.wav
2	70	4	4	2	I	2	0	732	1	Ⴏ	cut_h_stereo_44KHz.wav
2	71	2	2	1	C	1	1	1634	1	Ⴐ	cut_w_stereo_44KHz.wav
2	72	1	1	1	C	1	1	1463	1	Ⴒ	cut_l_stereo_44KHz.wav
2	73	4	3	2	I	2	0	740	0	Ⴏ	cut_g_stereo_44KHz.wav
2	74	1	1	1	C	1	1	887	1	Ⴒ	cut_l_stereo_44KHz.wav
2	75	3	4	2	I	1	0	1189	0	Ⴕ	cut_h_stereo_44KHz.wav
2	76	2	2	1	C	1	1	984	1	Ⴐ	cut_w_stereo_44KHz.wav
2	77	4	4	2	I	2	0	652	0	Ⴏ	cut_h_stereo_44KHz.wav
2	78	3	3	2	I	1	0	1434	0	Ⴕ	cut_g_stereo_44KHz.wav
2	79	1	2	0	C	2	1	1478	1	Ⴒ	cut_w_stereo_44KHz.wav
2	80	2	1	0	C	2	1	938	1	Ⴐ	cut_l_stereo_44KHz.wav
2	81	4	4	2	I	2	0	682	0	Ⴏ	cut_h_stereo_44KHz.wav
2	82	1	2	0	C	1	0	1191	0	Ⴒ	cut_w_stereo_44KHz.wav
2	83	2	2	1	C	2	0	1735	0	Ⴐ	cut_w_stereo_44KHz.wav
2	84	3	4	2	I	2	0	770	0	Ⴕ	cut_h_stereo_44KHz.wav
2	85	1	1	1	C	1	1	1262	1	Ⴒ	cut_l_stereo_44KHz.wav
2	86	3	3	2	I	2	0	1230	0	Ⴕ	cut_g_stereo_44KHz.wav
2	87	2	1	0	C	2	1	890	1	Ⴐ	cut_l_stereo_44KHz.wav
2	88	4	3	2	I	2	0	1026	0	Ⴏ	cut_g_stereo_44KHz.wav
2	89	2	2	1	C	1	1	297	1	Ⴐ	cut_w_stereo_44KHz.wav
2	90	1	2	0	C	2	1	1116	1	Ⴒ	cut_w_stereo_44KHz.wav
2	91	3	3	2	I	2	0	467	1	Ⴕ	cut_g_stereo_44KHz.wav
2	92	4	4	2	I	1	0	1054	1	Ⴏ	cut_h_stereo_44KHz.wav
2	93	2	1	0	C	2	1	609	1	Ⴐ	cut_l_stereo_44KHz.wav
2	94	4	3	2	I	1	0	1086	1	Ⴏ	cut_g_stereo_44KHz.wav
2	95	1	1	1	C	1	1	1469	1	Ⴒ	cut_l_stereo_44KHz.wav
2	96	3	4	2	I	2	0	1232	1	Ⴕ	cut_h_stereo_44KHz.wav
2	97	1	1	1	C	1	1	1892	1	Ⴒ	cut_l_stereo_44KHz.wav
2	98	2	1	0	C	2	1	1028	1	Ⴐ	cut_l_stereo_44KHz.wav
2	99	4	3	2	I	1	0	634	1	Ⴏ	cut_g_stereo_44KHz.wav
2	100	3	4	2	I	2	0	1013	1	Ⴕ	cut_h_stereo_44KHz.wav
2	101	2	2	1	C	1	1	1896	1	Ⴐ	cut_w_stereo_44KHz.wav
2	102	4	4	2	I	1	0	744	1	Ⴏ	cut_h_stereo_44KHz.wav
2	103	3	3	2	I	2	0	736	1	Ⴕ	cut_g_stereo_44KHz.wav
2	104	1	2	0	C	2	1	1404	1	Ⴒ	cut_w_stereo_44KHz.wav
2	105	4	4	2	I	1	0	712	0	Ⴏ	cut_h_stereo_44KHz.wav
2	106	3	3	2	I	2	0	797	1	Ⴕ	cut_g_stereo_44KHz.wav
2	107	2	1	0	C	2	1	782	1	Ⴐ	cut_l_stereo_44KHz.wav
2	108	1	2	0	C	2	1	1389	1	Ⴒ	cut_w_stereo_44KHz.wav
2	109	3	4	2	I	0	0	0	0	Ⴕ	cut_h_stereo_44KHz.wav
2	110	1	1	1	C	1	1	1967	1	Ⴒ	cut_l_stereo_44KHz.wav
2	111	4	3	2	I	1	0	877	1	Ⴏ	cut_g_stereo_44KHz.wav
2	112	2	2	1	C	2	0	1598	0	Ⴐ	cut_w_stereo_44KHz.wav
2	113	3	4	2	I	2	0	1290	0	Ⴕ	cut_h_stereo_44KHz.wav
2	114	4	3	2	I	2	0	906	0	Ⴏ	cut_g_stereo_44KHz.wav
2	115	1	2	0	C	2	1	1481	1	Ⴒ	cut_w_stereo_44KHz.wav
2	116	2	2	1	C	1	1	1562	1	Ⴐ	cut_w_stereo_44KHz.wav
2	117	3	3	2	I	2	0	749	0	Ⴕ	cut_g_stereo_44KHz.wav
2	118	1	1	1	C	1	1	1372	1	Ⴒ	cut_l_stereo_44KHz.wav
2	119	2	1	0	C	2	1	1018	1	Ⴐ	cut_l_stereo_44KHz.wav
2	120	4	4	2	I	2	0	762	1	Ⴏ	cut_h_stereo_44KHz.wav
2	121	2	1	0	C	2	1	1146	1	Ⴐ	cut_l_stereo_44KHz.wav
2	122	1	1	1	C	1	1	894	1	Ⴒ	cut_l_stereo_44KHz.wav
2	123	4	3	2	I	1	0	909	1	Ⴏ	cut_g_stereo_44KHz.wav
2	124	3	3	2	I	1	0	883	0	Ⴕ	cut_g_stereo_44KHz.wav
2	125	2	2	1	C	0	0	0	0	Ⴐ	cut_w_stereo_44KHz.wav
2	126	4	4	2	I	2	0	1352	0	Ⴏ	cut_h_stereo_44KHz.wav
2	127	1	2	0	C	2	1	1351	1	Ⴒ	cut_w_stereo_44KHz.wav
2	128	3	4	2	I	1	0	747	1	Ⴕ	cut_h_stereo_44KHz.wav
2	129	1	2	0	C	2	1	736	1	Ⴒ	cut_w_stereo_44KHz.wav
2	130	3	3	2	I	2	0	798	0	Ⴕ	cut_g_stereo_44KHz.wav
2	131	4	4	2	I	1	0	1952	1	Ⴏ	cut_h_stereo_44KHz.wav
2	132	2	2	1	C	1	1	1101	1	Ⴐ	cut_w_stereo_44KHz.wav
2	133	1	1	1	C	1	1	1776	1	Ⴒ	cut_l_stereo_44KHz.wav
2	134	3	4	2	I	2	0	647	0	Ⴕ	cut_h_stereo_44KHz.wav
2	135	2	1	0	C	2	1	1608	1	Ⴐ	cut_l_stereo_44KHz.wav
2	136	4	3	2	I	1	0	841	1	Ⴏ	cut_g_stereo_44KHz.wav
2	137	3	4	2	I	2	0	759	0	Ⴕ	cut_h_stereo_44KHz.wav
2	138	2	2	1	C	1	1	955	1	Ⴐ	cut_w_stereo_44KHz.wav
2	139	4	3	2	I	2	0	604	1	Ⴏ	cut_g_stereo_44KHz.wav
2	140	1	1	1	C	1	1	1896	1	Ⴒ	cut_l_stereo_44KHz.wav
2	141	3	3	2	I	1	0	1718	1	Ⴕ	cut_g_stereo_44KHz.wav
2	142	2	1	0	C	2	1	968	1	Ⴐ	cut_l_stereo_44KHz.wav
2	143	4	4	2	I	2	0	1184	1	Ⴏ	cut_h_stereo_44KHz.wav
2	144	1	2	0	C	2	1	1412	1	Ⴒ	cut_w_stereo_44KHz.wav
2	145	2	1	0	C	2	1	1205	1	Ⴐ	cut_l_stereo_44KHz.wav
2	146	3	3	2	I	1	0	887	0	Ⴕ	cut_g_stereo_44KHz.wav
2	147	1	1	1	C	1	1	1430	1	Ⴒ	cut_l_stereo_44KHz.wav
2	148	4	4	2	I	2	0	1395	0	Ⴏ	cut_h_stereo_44KHz.wav
2	149	1	2	0	C	2	1	988	1	Ⴒ	cut_w_stereo_44KHz.wav
2	150	2	2	1	C	1	1	1082	1	Ⴐ	cut_w_stereo_44KHz.wav
2	151	4	3	2	I	2	0	1257	1	Ⴏ	cut_g_stereo_44KHz.wav
2	152	3	4	2	I	2	0	1387	0	Ⴕ	cut_h_stereo_44KHz.wav
2	153	1	2	0	C	2	1	1734	1	Ⴒ	cut_w_stereo_44KHz.wav
2	154	4	4	2	I	1	0	1594	1	Ⴏ	cut_h_stereo_44KHz.wav
2	155	2	2	1	C	1	1	1108	1	Ⴐ	cut_w_stereo_44KHz.wav
2	156	3	4	2	I	0	0	0	0	Ⴕ	cut_h_stereo_44KHz.wav
2	157	2	1	0	C	2	1	826	1	Ⴐ	cut_l_stereo_44KHz.wav
2	158	4	3	2	I	1	0	1245	1	Ⴏ	cut_g_stereo_44KHz.wav
2	159	3	3	2	I	1	0	907	0	Ⴕ	cut_g_stereo_44KHz.wav
2	160	1	1	1	C	1	1	1122	1	Ⴒ	cut_l_stereo_44KHz.wav
2	161	4	3	2	I	2	0	1487	1	Ⴏ	cut_g_stereo_44KHz.wav
2	162	1	2	0	C	2	1	1190	1	Ⴒ	cut_w_stereo_44KHz.wav
2	163	2	1	0	C	2	1	946	1	Ⴐ	cut_l_stereo_44KHz.wav
2	164	3	3	2	I	2	0	1095	0	Ⴕ	cut_g_stereo_44KHz.wav
2	165	2	2	1	C	1	1	1434	1	Ⴐ	cut_w_stereo_44KHz.wav
2	166	3	4	2	I	1	0	903	0	Ⴕ	cut_h_stereo_44KHz.wav
2	167	1	1	1	C	2	0	1056	0	Ⴒ	cut_l_stereo_44KHz.wav
2	168	4	4	2	I	2	0	1331	1	Ⴏ	cut_h_stereo_44KHz.wav
2	169	1	1	1	C	1	1	1205	1	Ⴒ	cut_l_stereo_44KHz.wav
2	170	4	3	2	I	1	0	1567	1	Ⴏ	cut_g_stereo_44KHz.wav
2	171	3	3	2	I	1	0	1650	1	Ⴕ	cut_g_stereo_44KHz.wav
2	172	2	1	0	C	2	1	975	1	Ⴐ	cut_l_stereo_44KHz.wav
2	173	4	4	2	I	2	0	696	0	Ⴏ	cut_h_stereo_44KHz.wav
2	174	2	2	1	C	1	1	1090	1	Ⴐ	cut_w_stereo_44KHz.wav
2	175	3	4	2	I	1	0	1650	0	Ⴕ	cut_h_stereo_44KHz.wav
2	176	1	2	0	C	0	0	0	0	Ⴒ	cut_w_stereo_44KHz.wav
2	177	4	4	2	I	2	0	896	0	Ⴏ	cut_h_stereo_44KHz.wav
2	178	1	2	0	C	2	1	694	1	Ⴒ	cut_w_stereo_44KHz.wav
2	179	3	3	2	I	2	0	615	1	Ⴕ	cut_g_stereo_44KHz.wav
2	180	2	2	1	C	1	1	1024	1	Ⴐ	cut_w_stereo_44KHz.wav
2	181	3	4	2	I	2	0	1264	1	Ⴕ	cut_h_stereo_44KHz.wav
2	182	2	1	0	C	2	1	1039	1	Ⴐ	cut_l_stereo_44KHz.wav
2	183	1	1	1	C	1	1	987	1	Ⴒ	cut_l_stereo_44KHz.wav
2	184	4	3	2	I	0	0	0	0	Ⴏ	cut_g_stereo_44KHz.wav
2	185	1	1	1	C	2	0	1956	0	Ⴒ	cut_l_stereo_44KHz.wav
2	186	3	3	2	I	2	0	1151	0	Ⴕ	cut_g_stereo_44KHz.wav
2	187	2	2	1	C	1	1	1003	1	Ⴐ	cut_w_stereo_44KHz.wav
2	188	4	3	2	I	1	0	1716	0	Ⴏ	cut_g_stereo_44KHz.wav
2	189	2	1	0	C	2	1	883	1	Ⴐ	cut_l_stereo_44KHz.wav
2	190	3	4	2	I	2	0	579	1	Ⴕ	cut_h_stereo_44KHz.wav
2	191	4	4	2	I	2	0	477	1	Ⴏ	cut_h_stereo_44KHz.wav
2	192	1	2	0	C	2	1	1152	1	Ⴒ	cut_w_stereo_44KHz.wav
2	193	3	4	2	I	1	0	1457	1	Ⴕ	cut_h_stereo_44KHz.wav
2	194	1	1	1	C	1	1	1760	1	Ⴒ	cut_l_stereo_44KHz.wav
2	195	2	2	1	C	1	1	878	1	Ⴐ	cut_w_stereo_44KHz.wav
2	196	4	4	2	I	1	0	916	0	Ⴏ	cut_h_stereo_44KHz.wav
2	197	2	1	0	C	2	1	1386	1	Ⴐ	cut_l_stereo_44KHz.wav
2	198	3	3	2	I	1	0	1204	1	Ⴕ	cut_g_stereo_44KHz.wav
2	199	1	2	0	C	2	1	1067	1	Ⴒ	cut_w_stereo_44KHz.wav
2	200	4	3	2	I	1	0	477	1	Ⴏ	cut_g_stereo_44KHz.wav
3	1	4	3	2	I	2	0	1082	1	Ⴊ	cut_r_stereo_44KHz.wav
3	2	1	1	1	C	1	1	734	1	Ⴡ	cut_oei_stereo_44KHz.wav
3	3	2	1	0	C	2	1	720	1	Ⴁ	cut_oei_stereo_44KHz.wav
3	4	3	4	2	I	1	0	867	0	Ⴜ	cut_f_stereo_44KHz.wav
3	5	1	2	0	C	2	1	696	1	Ⴡ	cut_ei_stereo_44KHz.wav
3	6	3	3	2	I	2	0	1277	1	Ⴜ	cut_r_stereo_44KHz.wav
3	7	4	4	2	I	2	0	1246	1	Ⴊ	cut_f_stereo_44KHz.wav
3	8	2	2	1	C	1	1	1293	1	Ⴁ	cut_ei_stereo_44KHz.wav
3	9	3	3	2	I	2	0	904	0	Ⴜ	cut_r_stereo_44KHz.wav
3	10	4	3	2	I	2	0	1088	1	Ⴊ	cut_r_stereo_44KHz.wav
3	11	2	1	0	C	2	1	1237	1	Ⴁ	cut_oei_stereo_44KHz.wav
3	12	1	1	1	C	1	1	1288	1	Ⴡ	cut_oei_stereo_44KHz.wav
3	13	3	4	2	I	2	0	943	0	Ⴜ	cut_f_stereo_44KHz.wav
3	14	1	2	0	C	2	1	985	1	Ⴡ	cut_ei_stereo_44KHz.wav
3	15	4	4	2	I	2	0	692	0	Ⴊ	cut_f_stereo_44KHz.wav
3	16	2	2	1	C	2	0	838	0	Ⴁ	cut_ei_stereo_44KHz.wav
3	17	3	4	2	I	2	0	671	0	Ⴜ	cut_f_stereo_44KHz.wav
3	18	1	1	1	C	1	1	1060	1	Ⴡ	cut_oei_stereo_44KHz.wav
3	19	4	4	2	I	1	0	958	1	Ⴊ	cut_f_stereo_44KHz.wav
3	20	2	1	0	C	2	1	1172	1	Ⴁ	cut_oei_stereo_44KHz.wav
3	21	3	3	2	I	2	0	1502	1	Ⴜ	cut_r_stereo_44KHz.wav
3	22	1	2	0	C	2	1	759	1	Ⴡ	cut_ei_stereo_44KHz.wav
3	23	2	2	1	C	1	1	1248	1	Ⴁ	cut_ei_stereo_44KHz.wav
3	24	4	3	2	I	2	0	809	1	Ⴊ	cut_r_stereo_44KHz.wav
3	25	1	2	0	C	2	1	1006	1	Ⴡ	cut_ei_stereo_44KHz.wav
3	26	4	4	2	I	0	0	0	0	Ⴊ	cut_f_stereo_44KHz.wav
3	27	2	2	1	C	1	1	866	1	Ⴁ	cut_ei_stereo_44KHz.wav
3	28	3	4	2	I	2	0	1822	1	Ⴜ	cut_f_stereo_44KHz.wav
3	29	2	1	0	C	2	1	1101	1	Ⴁ	cut_oei_stereo_44KHz.wav
3	30	1	1	1	C	1	1	844	1	Ⴡ	cut_oei_stereo_44KHz.wav
3	31	3	3	2	I	2	0	911	1	Ⴜ	cut_r_stereo_44KHz.wav
3	32	4	3	2	I	2	0	1015	0	Ⴊ	cut_r_stereo_44KHz.wav
3	33	2	2	1	C	1	1	892	1	Ⴁ	cut_ei_stereo_44KHz.wav
3	34	4	4	2	I	2	0	798	0	Ⴊ	cut_f_stereo_44KHz.wav
3	35	3	3	2	I	2	0	701	0	Ⴜ	cut_r_stereo_44KHz.wav
3	36	1	1	1	C	1	1	1478	1	Ⴡ	cut_oei_stereo_44KHz.wav
3	37	4	3	2	I	2	0	771	0	Ⴊ	cut_r_stereo_44KHz.wav
3	38	2	1	0	C	0	0	0	0	Ⴁ	cut_oei_stereo_44KHz.wav
3	39	3	4	2	I	2	0	1082	1	Ⴜ	cut_f_stereo_44KHz.wav
3	40	1	2	0	C	2	1	1113	1	Ⴡ	cut_ei_stereo_44KHz.wav
3	41	3	3	2	I	2	0	968	1	Ⴜ	cut_r_stereo_44KHz.wav
3	42	2	1	0	C	2	1	1390	1	Ⴁ	cut_oei_stereo_44KHz.wav
3	43	1	1	1	C	1	1	1047	1	Ⴡ	cut_oei_stereo_44KHz.wav
3	44	4	4	2	I	2	0	1081	0	Ⴊ	cut_f_stereo_44KHz.wav
3	45	2	2	1	C	1	1	1167	1	Ⴁ	cut_ei_stereo_44KHz.wav
3	46	3	4	2	I	2	0	672	1	Ⴜ	cut_f_stereo_44KHz.wav
3	47	1	2	0	C	1	0	854	0	Ⴡ	cut_ei_stereo_44KHz.wav
3	48	4	3	2	I	1	0	971	1	Ⴊ	cut_r_stereo_44KHz.wav
3	49	3	3	2	I	1	0	1237	0	Ⴜ	cut_r_stereo_44KHz.wav
3	50	2	1	0	C	2	1	1262	1	Ⴁ	cut_oei_stereo_44KHz.wav
3	51	1	2	0	C	2	1	1026	1	Ⴡ	cut_ei_stereo_44KHz.wav
3	52	4	3	2	I	1	0	976	1	Ⴊ	cut_r_stereo_44KHz.wav
3	53	1	1	1	C	1	1	1733	1	Ⴡ	cut_oei_stereo_44KHz.wav
3	54	4	4	2	I	2	0	837	0	Ⴊ	cut_f_stereo_44KHz.wav
3	55	3	4	2	I	1	0	745	0	Ⴜ	cut_f_stereo_44KHz.wav
3	56	2	2	1	C	1	1	979	1	Ⴁ	cut_ei_stereo_44KHz.wav
3	57	1	2	0	C	2	1	1198	1	Ⴡ	cut_ei_stereo_44KHz.wav
3	58	3	3	2	I	2	0	830	0	Ⴜ	cut_r_stereo_44KHz.wav
3	59	4	3	2	I	1	0	842	1	Ⴊ	cut_r_stereo_44KHz.wav
3	60	2	1	0	C	2	1	912	1	Ⴁ	cut_oei_stereo_44KHz.wav
3	61	3	4	2	I	2	0	881	1	Ⴜ	cut_f_stereo_44KHz.wav
3	62	2	2	1	C	2	0	1262	0	Ⴁ	cut_ei_stereo_44KHz.wav
3	63	1	1	1	C	1	1	1171	1	Ⴡ	cut_oei_stereo_44KHz.wav
3	64	4	4	2	I	2	0	648	1	Ⴊ	cut_f_stereo_44KHz.wav
3	65	1	1	1	C	1	1	1763	1	Ⴡ	cut_oei_stereo_44KHz.wav
3	66	2	2	1	C	2	0	1360	0	Ⴁ	cut_ei_stereo_44KHz.wav
3	67	4	4	2	I	2	0	1768	0	Ⴊ	cut_f_stereo_44KHz.wav
3	68	3	3	2	I	2	0	736	0	Ⴜ	cut_r_stereo_44KHz.wav
3	69	4	3	2	I	2	0	1098	1	Ⴊ	cut_r_stereo_44KHz.wav
3	70	1	2	0	C	2	1	695	1	Ⴡ	cut_ei_stereo_44KHz.wav
3	71	2	1	0	C	2	1	1013	1	Ⴁ	cut_oei_stereo_44KHz.wav
3	72	3	4	2	I	1	0	944	0	Ⴜ	cut_f_stereo_44KHz.wav
3	73	2	2	1	C	0	0	0	0	Ⴁ	cut_ei_stereo_44KHz.wav
3	74	1	2	0	C	2	1	811	1	Ⴡ	cut_ei_stereo_44KHz.wav
3	75	4	4	2	I	1	0	781	0	Ⴊ	cut_f_stereo_44KHz.wav
3	76	3	4	2	I	2	0	775	0	Ⴜ	cut_f_stereo_44KHz.wav
3	77	4	3	2	I	2	0	720	1	Ⴊ	cut_r_stereo_44KHz.wav
3	78	1	1	1	C	1	1	1008	1	Ⴡ	cut_oei_stereo_44KHz.wav
3	79	2	1	0	C	2	1	1296	1	Ⴁ	cut_oei_stereo_44KHz.wav
3	80	3	3	2	I	2	0	1535	1	Ⴜ	cut_r_stereo_44KHz.wav
3	81	1	2	0	C	2	1	1327	1	Ⴡ	cut_ei_stereo_44KHz.wav
3	82	3	3	2	I	1	0	1027	0	Ⴜ	cut_r_stereo_44KHz.wav
3	83	4	3	2	I	2	0	553	1	Ⴊ	cut_r_stereo_44KHz.wav
3	84	2	1	0	C	2	1	1294	1	Ⴁ	cut_oei_stereo_44KHz.wav
3	85	1	1	1	C	1	1	748	1	Ⴡ	cut_oei_stereo_44KHz.wav
3	86	3	4	2	I	2	0	962	0	Ⴜ	cut_f_stereo_44KHz.wav
3	87	4	4	2	I	1	0	771	0	Ⴊ	cut_f_stereo_44KHz.wav
3	88	2	2	1	C	2	0	1113	0	Ⴁ	cut_ei_stereo_44KHz.wav
3	89	4	4	2	I	2	0	624	0	Ⴊ	cut_f_stereo_44KHz.wav
3	90	1	1	1	C	1	1	1057	1	Ⴡ	cut_oei_stereo_44KHz.wav
3	91	3	3	2	I	2	0	792	1	Ⴜ	cut_r_stereo_44KHz.wav
3	92	2	2	1	C	2	0	446	0	Ⴁ	cut_ei_stereo_44KHz.wav
3	93	4	3	2	I	2	0	977	0	Ⴊ	cut_r_stereo_44KHz.wav
3	94	3	4	2	I	1	0	91	1	Ⴜ	cut_f_stereo_44KHz.wav
3	95	1	2	0	C	2	1	1088	1	Ⴡ	cut_ei_stereo_44KHz.wav
3	96	2	1	0	C	1	0	715	0	Ⴁ	cut_oei_stereo_44KHz.wav
3	97	4	4	2	I	2	0	1737	1	Ⴊ	cut_f_stereo_44KHz.wav
3	98	2	1	0	C	2	1	1754	1	Ⴁ	cut_oei_stereo_44KHz.wav
3	99	3	4	2	I	1	0	732	0	Ⴜ	cut_f_stereo_44KHz.wav
3	100	1	2	0	C	2	1	737	1	Ⴡ	cut_ei_stereo_44KHz.wav
3	101	4	3	2	I	2	0	759	1	Ⴊ	cut_r_stereo_44KHz.wav
3	102	1	1	1	C	1	1	1071	1	Ⴡ	cut_oei_stereo_44KHz.wav
3	103	2	2	1	C	2	0	1121	0	Ⴁ	cut_ei_stereo_44KHz.wav
3	104	3	3	2	I	1	0	1430	0	Ⴜ	cut_r_stereo_44KHz.wav
3	105	2	2	1	C	1	1	1054	1	Ⴁ	cut_ei_stereo_44KHz.wav
3	106	3	3	2	I	1	0	716	0	Ⴜ	cut_r_stereo_44KHz.wav
3	107	4	4	2	I	2	0	689	0	Ⴊ	cut_f_stereo_44KHz.wav
3	108	1	2	0	C	1	0	331	0	Ⴡ	cut_ei_stereo_44KHz.wav
3	109	2	1	0	C	2	1	1192	1	Ⴁ	cut_oei_stereo_44KHz.wav
3	110	3	4	2	I	2	0	728	0	Ⴜ	cut_f_stereo_44KHz.wav
3	111	1	1	1	C	1	1	1577	1	Ⴡ	cut_oei_stereo_44KHz.wav
3	112	4	3	2	I	2	0	692	0	Ⴊ	cut_r_stereo_44KHz.wav
3	113	3	3	2	I	2	0	864	1	Ⴜ	cut_r_stereo_44KHz.wav
3	114	2	1	0	C	2	1	1911	1	Ⴁ	cut_oei_stereo_44KHz.wav
3	115	1	1	1	C	1	1	984	1	Ⴡ	cut_oei_stereo_44KHz.wav
3	116	4	3	2	I	2	0	1326	1	Ⴊ	cut_r_stereo_44KHz.wav
3	117	2	2	1	C	1	1	1371	1	Ⴁ	cut_ei_stereo_44KHz.wav
3	118	4	4	2	I	2	0	1053	1	Ⴊ	cut_f_stereo_44KHz.wav
3	119	3	4	2	I	1	0	737	1	Ⴜ	cut_f_stereo_44KHz.wav
3	120	1	2	0	C	2	1	1110	1	Ⴡ	cut_ei_stereo_44KHz.wav
3	121	4	3	2	I	1	0	879	0	Ⴊ	cut_r_stereo_44KHz.wav
3	122	2	1	0	C	2	1	1119	1	Ⴁ	cut_oei_stereo_44KHz.wav
3	123	3	3	2	I	2	0	843	1	Ⴜ	cut_r_stereo_44KHz.wav
3	124	1	2	0	C	1	0	1327	0	Ⴡ	cut_ei_stereo_44KHz.wav
3	125	3	4	2	I	2	0	746	1	Ⴜ	cut_f_stereo_44KHz.wav
3	126	2	2	1	C	1	1	1032	1	Ⴁ	cut_ei_stereo_44KHz.wav
3	127	4	4	2	I	2	0	808	1	Ⴊ	cut_f_stereo_44KHz.wav
3	128	1	1	1	C	1	1	1187	1	Ⴡ	cut_oei_stereo_44KHz.wav
3	129	3	3	2	I	2	0	874	1	Ⴜ	cut_r_stereo_44KHz.wav
3	130	2	1	0	C	2	1	1927	1	Ⴁ	cut_oei_stereo_44KHz.wav
3	131	4	4	2	I	1	0	675	1	Ⴊ	cut_f_stereo_44KHz.wav
3	132	1	2	0	C	2	1	933	1	Ⴡ	cut_ei_stereo_44KHz.wav
3	133	2	2	1	C	1	1	1264	1	Ⴁ	cut_ei_stereo_44KHz.wav
3	134	1	1	1	C	1	1	1692	1	Ⴡ	cut_oei_stereo_44KHz.wav
3	135	4	3	2	I	2	0	520	0	Ⴊ	cut_r_stereo_44KHz.wav
3	136	3	4	2	I	2	0	1001	1	Ⴜ	cut_f_stereo_44KHz.wav
3	137	1	1	1	C	1	1	1326	1	Ⴡ	cut_oei_stereo_44KHz.wav
3	138	3	4	2	I	2	0	643	0	Ⴜ	cut_f_stereo_44KHz.wav
3	139	4	3	2	I	2	0	1489	1	Ⴊ	cut_r_stereo_44KHz.wav
3	140	2	1	0	C	2	1	597	1	Ⴁ	cut_oei_stereo_44KHz.wav
3	141	4	4	2	I	2	0	526	1	Ⴊ	cut_f_stereo_44KHz.wav
3	142	3	3	2	I	1	0	865	1	Ⴜ	cut_r_stereo_44KHz.wav
3	143	2	2	1	C	2	0	1471	0	Ⴁ	cut_ei_stereo_44KHz.wav
3	144	1	2	0	C	2	1	406	1	Ⴡ	cut_ei_stereo_44KHz.wav
3	145	4	3	2	I	2	0	776	0	Ⴊ	cut_r_stereo_44KHz.wav
3	146	2	2	1	C	1	1	366	1	Ⴁ	cut_ei_stereo_44KHz.wav
3	147	3	4	2	I	2	0	610	0	Ⴜ	cut_f_stereo_44KHz.wav
3	148	1	1	1	C	1	1	675	1	Ⴡ	cut_oei_stereo_44KHz.wav
3	149	4	4	2	I	2	0	286	0	Ⴊ	cut_f_stereo_44KHz.wav
3	150	2	1	0	C	2	1	1088	1	Ⴁ	cut_oei_stereo_44KHz.wav
3	151	1	2	0	C	2	1	919	1	Ⴡ	cut_ei_stereo_44KHz.wav
3	152	3	3	2	I	2	0	385	0	Ⴜ	cut_r_stereo_44KHz.wav
3	153	1	1	1	C	1	1	1031	1	Ⴡ	cut_oei_stereo_44KHz.wav
3	154	3	3	2	I	2	0	580	0	Ⴜ	cut_r_stereo_44KHz.wav
3	155	2	1	0	C	2	1	1148	1	Ⴁ	cut_oei_stereo_44KHz.wav
3	156	4	4	2	I	2	0	273	1	Ⴊ	cut_f_stereo_44KHz.wav
3	157	1	2	0	C	2	1	779	1	Ⴡ	cut_ei_stereo_44KHz.wav
3	158	4	3	2	I	2	0	676	0	Ⴊ	cut_r_stereo_44KHz.wav
3	159	3	4	2	I	2	0	680	1	Ⴜ	cut_f_stereo_44KHz.wav
3	160	2	2	1	C	1	1	1325	1	Ⴁ	cut_ei_stereo_44KHz.wav
3	161	3	3	2	I	1	0	889	0	Ⴜ	cut_r_stereo_44KHz.wav
3	162	2	1	0	C	1	0	1284	0	Ⴁ	cut_oei_stereo_44KHz.wav
3	163	1	1	1	C	2	0	693	0	Ⴡ	cut_oei_stereo_44KHz.wav
3	164	4	4	2	I	2	0	835	0	Ⴊ	cut_f_stereo_44KHz.wav
3	165	3	4	2	I	2	0	370	1	Ⴜ	cut_f_stereo_44KHz.wav
3	166	4	3	2	I	1	0	1229	0	Ⴊ	cut_r_stereo_44KHz.wav
3	167	2	2	1	C	0	0	0	0	Ⴁ	cut_ei_stereo_44KHz.wav
3	168	1	2	0	C	2	1	884	1	Ⴡ	cut_ei_stereo_44KHz.wav
3	169	3	4	2	I	2	0	549	0	Ⴜ	cut_f_stereo_44KHz.wav
3	170	2	2	1	C	0	0	0	0	Ⴁ	cut_ei_stereo_44KHz.wav
3	171	4	4	2	I	2	0	1155	0	Ⴊ	cut_f_stereo_44KHz.wav
3	172	1	2	0	C	2	1	672	1	Ⴡ	cut_ei_stereo_44KHz.wav
3	173	4	3	2	I	2	0	770	1	Ⴊ	cut_r_stereo_44KHz.wav
3	174	1	1	1	C	1	1	1185	1	Ⴡ	cut_oei_stereo_44KHz.wav
3	175	3	3	2	I	2	0	863	1	Ⴜ	cut_r_stereo_44KHz.wav
3	176	2	1	0	C	2	1	1300	1	Ⴁ	cut_oei_stereo_44KHz.wav
3	177	4	3	2	I	2	0	942	1	Ⴊ	cut_r_stereo_44KHz.wav
3	178	2	1	0	C	2	1	848	1	Ⴁ	cut_oei_stereo_44KHz.wav
3	179	1	1	1	C	1	1	910	1	Ⴡ	cut_oei_stereo_44KHz.wav
3	180	3	4	2	I	2	0	1479	0	Ⴜ	cut_f_stereo_44KHz.wav
3	181	4	4	2	I	1	0	973	0	Ⴊ	cut_f_stereo_44KHz.wav
3	182	1	2	0	C	2	1	625	1	Ⴡ	cut_ei_stereo_44KHz.wav
3	183	2	2	1	C	1	1	1489	1	Ⴁ	cut_ei_stereo_44KHz.wav
3	184	3	3	2	I	2	0	424	1	Ⴜ	cut_r_stereo_44KHz.wav
3	185	1	2	0	C	1	0	681	0	Ⴡ	cut_ei_stereo_44KHz.wav
3	186	3	4	2	I	0	0	0	0	Ⴜ	cut_f_stereo_44KHz.wav
3	187	4	4	2	I	2	0	598	0	Ⴊ	cut_f_stereo_44KHz.wav
3	188	2	1	0	C	2	1	919	1	Ⴁ	cut_oei_stereo_44KHz.wav
3	189	1	1	1	C	1	1	784	1	Ⴡ	cut_oei_stereo_44KHz.wav
3	190	4	3	2	I	2	0	631	0	Ⴊ	cut_r_stereo_44KHz.wav
3	191	2	2	1	C	1	1	1118	1	Ⴁ	cut_ei_stereo_44KHz.wav
3	192	3	3	2	I	2	0	685	1	Ⴜ	cut_r_stereo_44KHz.wav
3	193	4	3	2	I	2	0	657	1	Ⴊ	cut_r_stereo_44KHz.wav
3	194	2	2	1	C	1	1	933	1	Ⴁ	cut_ei_stereo_44KHz.wav
3	195	3	3	2	I	2	0	634	0	Ⴜ	cut_r_stereo_44KHz.wav
3	196	1	1	1	C	2	0	618	0	Ⴡ	cut_oei_stereo_44KHz.wav
3	197	2	1	0	C	2	1	793	1	Ⴁ	cut_oei_stereo_44KHz.wav
3	198	3	4	2	I	2	0	574	1	Ⴜ	cut_f_stereo_44KHz.wav
3	199	1	2	0	C	2	1	775	1	Ⴡ	cut_ei_stereo_44KHz.wav
3	200	4	4	2	I	2	0	263	1	Ⴊ	cut_f_stereo_44KHz.wav
4	1	1	1	1	C	2	0	982	0	Ⴉ	cut_u_stereo_44KHz.wav
4	2	4	3	2	I	2	0	743	0	Ⴔ	cut_a_stereo_44KHz.wav
4	3	3	3	2	I	1	0	467	1	Ⴌ	cut_a_stereo_44KHz.wav
4	4	2	2	1	C	1	1	468	1	Ⴖ	cut_o_stereo_44KHz.wav
4	5	4	4	2	I	1	0	691	1	Ⴔ	cut_k_stereo_44KHz.wav
4	6	2	1	0	C	1	0	581	0	Ⴖ	cut_u_stereo_44KHz.wav
4	7	3	4	2	I	1	0	699	0	Ⴌ	cut_k_stereo_44KHz.wav
4	8	1	2	0	C	1	0	760	0	Ⴉ	cut_o_stereo_44KHz.wav
4	9	2	1	0	C	2	1	935	1	Ⴖ	cut_u_stereo_44KHz.wav
4	10	3	3	2	I	1	0	732	1	Ⴌ	cut_a_stereo_44KHz.wav
4	11	4	3	2	I	2	0	725	1	Ⴔ	cut_a_stereo_44KHz.wav
4	12	1	2	0	C	2	1	670	1	Ⴉ	cut_o_stereo_44KHz.wav
4	13	4	4	2	I	1	0	745	0	Ⴔ	cut_k_stereo_44KHz.wav
4	14	2	2	1	C	1	1	835	1	Ⴖ	cut_o_stereo_44KHz.wav
4	15	3	4	2	I	2	0	450	0	Ⴌ	cut_k_stereo_44KHz.wav
4	16	1	1	1	C	1	1	993	1	Ⴉ	cut_u_stereo_44KHz.wav
4	17	3	4	2	I	2	0	589	1	Ⴌ	cut_k_stereo_44KHz.wav
4	18	2	1	0	C	2	1	581	1	Ⴖ	cut_u_stereo_44KHz.wav
4	19	4	3	2	I	2	0	779	0	Ⴔ	cut_a_stereo_44KHz.wav
4	20	1	2	0	C	2	1	841	1	Ⴉ	cut_o_stereo_44KHz.wav
4	21	4	4	2	I	2	0	368	1	Ⴔ	cut_k_stereo_44KHz.wav
4	22	3	3	2	I	1	0	1169	0	Ⴌ	cut_a_stereo_44KHz.wav
4	23	1	1	1	C	1	1	915	1	Ⴉ	cut_u_stereo_44KHz.wav
4	24	2	2	1	C	1	1	627	1	Ⴖ	cut_o_stereo_44KHz.wav
4	25	3	3	2	I	2	0	1005	0	Ⴌ	cut_a_stereo_44KHz.wav
4	26	1	2	0	C	2	1	710	1	Ⴉ	cut_o_stereo_44KHz.wav
4	27	4	4	2	I	2	0	695	0	Ⴔ	cut_k_stereo_44KHz.wav
4	28	2	1	0	C	2	1	1448	1	Ⴖ	cut_u_stereo_44KHz.wav
4	29	3	4	2	I	2	0	751	1	Ⴌ	cut_k_stereo_44KHz.wav
4	30	4	3	2	I	2	0	1144	1	Ⴔ	cut_a_stereo_44KHz.wav
4	31	2	2	1	C	1	1	942	1	Ⴖ	cut_o_stereo_44KHz.wav
4	32	1	1	1	C	1	1	1518	1	Ⴉ	cut_u_stereo_44KHz.wav
4	33	3	4	2	I	2	0	628	0	Ⴌ	cut_k_stereo_44KHz.wav
4	34	2	2	1	C	1	1	877	1	Ⴖ	cut_o_stereo_44KHz.wav
4	35	1	2	0	C	2	1	711	1	Ⴉ	cut_o_stereo_44KHz.wav
4	36	4	4	2	I	2	0	716	1	Ⴔ	cut_k_stereo_44KHz.wav
4	37	1	1	1	C	1	1	810	1	Ⴉ	cut_u_stereo_44KHz.wav
4	38	2	1	0	C	2	1	583	1	Ⴖ	cut_u_stereo_44KHz.wav
4	39	4	3	2	I	2	0	851	0	Ⴔ	cut_a_stereo_44KHz.wav
4	40	3	3	2	I	2	0	653	1	Ⴌ	cut_a_stereo_44KHz.wav
4	41	2	1	0	C	2	1	937	1	Ⴖ	cut_u_stereo_44KHz.wav
4	42	3	3	2	I	2	0	492	0	Ⴌ	cut_a_stereo_44KHz.wav
4	43	1	2	0	C	2	1	1169	1	Ⴉ	cut_o_stereo_44KHz.wav
4	44	4	3	2	I	1	0	699	1	Ⴔ	cut_a_stereo_44KHz.wav
4	45	2	2	1	C	1	1	887	1	Ⴖ	cut_o_stereo_44KHz.wav
4	46	1	1	1	C	1	1	1067	1	Ⴉ	cut_u_stereo_44KHz.wav
4	47	3	4	2	I	1	0	1261	0	Ⴌ	cut_k_stereo_44KHz.wav
4	48	4	4	2	I	2	0	983	1	Ⴔ	cut_k_stereo_44KHz.wav
4	49	1	1	1	C	1	1	851	1	Ⴉ	cut_u_stereo_44KHz.wav
4	50	4	3	2	I	1	0	759	0	Ⴔ	cut_a_stereo_44KHz.wav
4	51	3	3	2	I	2	0	626	0	Ⴌ	cut_a_stereo_44KHz.wav
4	52	2	2	1	C	1	1	1745	1	Ⴖ	cut_o_stereo_44KHz.wav
4	53	1	2	0	C	2	1	908	1	Ⴉ	cut_o_stereo_44KHz.wav
4	54	3	4	2	I	2	0	978	1	Ⴌ	cut_k_stereo_44KHz.wav
4	55	2	1	0	C	1	0	571	0	Ⴖ	cut_u_stereo_44KHz.wav
4	56	4	4	2	I	2	0	790	1	Ⴔ	cut_k_stereo_44KHz.wav
4	57	2	1	0	C	2	1	911	1	Ⴖ	cut_u_stereo_44KHz.wav
4	58	3	3	2	I	2	0	1156	0	Ⴌ	cut_a_stereo_44KHz.wav
4	59	1	1	1	C	1	1	1177	1	Ⴉ	cut_u_stereo_44KHz.wav
4	60	4	4	2	I	1	0	883	1	Ⴔ	cut_k_stereo_44KHz.wav
4	61	3	4	2	I	1	0	977	1	Ⴌ	cut_k_stereo_44KHz.wav
4	62	2	2	1	C	1	1	1123	1	Ⴖ	cut_o_stereo_44KHz.wav
4	63	4	3	2	I	2	0	973	0	Ⴔ	cut_a_stereo_44KHz.wav
4	64	1	2	0	C	2	1	1054	1	Ⴉ	cut_o_stereo_44KHz.wav
4	65	2	1	0	C	2	1	1103	1	Ⴖ	cut_u_stereo_44KHz.wav
4	66	4	4	2	I	2	0	652	0	Ⴔ	cut_k_stereo_44KHz.wav
4	67	3	3	2	I	2	0	619	0	Ⴌ	cut_a_stereo_44KHz.wav
4	68	1	2	0	C	2	1	638	1	Ⴉ	cut_o_stereo_44KHz.wav
4	69	3	4	2	I	2	0	664	1	Ⴌ	cut_k_stereo_44KHz.wav
4	70	4	3	2	I	2	0	680	0	Ⴔ	cut_a_stereo_44KHz.wav
4	71	2	2	1	C	2	0	582	0	Ⴖ	cut_o_stereo_44KHz.wav
4	72	1	1	1	C	1	1	773	1	Ⴉ	cut_u_stereo_44KHz.wav
4	73	2	1	0	C	2	1	691	1	Ⴖ	cut_u_stereo_44KHz.wav
4	74	1	2	0	C	2	1	1072	1	Ⴉ	cut_o_stereo_44KHz.wav
4	75	3	4	2	I	2	0	745	0	Ⴌ	cut_k_stereo_44KHz.wav
4	76	4	3	2	I	2	0	752	0	Ⴔ	cut_a_stereo_44KHz.wav
4	77	2	2	1	C	1	1	704	1	Ⴖ	cut_o_stereo_44KHz.wav
4	78	3	3	2	I	2	0	894	1	Ⴌ	cut_a_stereo_44KHz.wav
4	79	1	1	1	C	1	1	906	1	Ⴉ	cut_u_stereo_44KHz.wav
4	80	4	4	2	I	2	0	511	1	Ⴔ	cut_k_stereo_44KHz.wav
4	81	2	2	1	C	1	1	749	1	Ⴖ	cut_o_stereo_44KHz.wav
4	82	4	4	2	I	2	0	683	0	Ⴔ	cut_k_stereo_44KHz.wav
4	83	3	4	2	I	2	0	705	0	Ⴌ	cut_k_stereo_44KHz.wav
4	84	1	2	0	C	2	1	918	1	Ⴉ	cut_o_stereo_44KHz.wav
4	85	2	1	0	C	2	1	1542	1	Ⴖ	cut_u_stereo_44KHz.wav
4	86	4	3	2	I	1	0	757	1	Ⴔ	cut_a_stereo_44KHz.wav
4	87	1	1	1	C	1	1	1119	1	Ⴉ	cut_u_stereo_44KHz.wav
4	88	3	3	2	I	2	0	597	1	Ⴌ	cut_a_stereo_44KHz.wav
4	89	2	2	1	C	1	1	1047	1	Ⴖ	cut_o_stereo_44KHz.wav
4	90	3	3	2	I	1	0	999	1	Ⴌ	cut_a_stereo_44KHz.wav
4	91	1	1	1	C	1	1	1071	1	Ⴉ	cut_u_stereo_44KHz.wav
4	92	4	4	2	I	1	0	666	0	Ⴔ	cut_k_stereo_44KHz.wav
4	93	2	1	0	C	2	1	1023	1	Ⴖ	cut_u_stereo_44KHz.wav
4	94	1	2	0	C	2	1	1041	1	Ⴉ	cut_o_stereo_44KHz.wav
4	95	3	4	2	I	2	0	1174	0	Ⴌ	cut_k_stereo_44KHz.wav
4	96	4	3	2	I	1	0	1204	1	Ⴔ	cut_a_stereo_44KHz.wav
4	97	1	1	1	C	1	1	1398	1	Ⴉ	cut_u_stereo_44KHz.wav
4	98	3	4	2	I	1	0	552	0	Ⴌ	cut_k_stereo_44KHz.wav
4	99	2	1	0	C	2	1	994	1	Ⴖ	cut_u_stereo_44KHz.wav
4	100	4	3	2	I	1	0	505	0	Ⴔ	cut_a_stereo_44KHz.wav
4	101	3	3	2	I	2	0	268	1	Ⴌ	cut_a_stereo_44KHz.wav
4	102	1	2	0	C	2	1	995	1	Ⴉ	cut_o_stereo_44KHz.wav
4	103	2	2	1	C	1	1	664	1	Ⴖ	cut_o_stereo_44KHz.wav
4	104	4	4	2	I	2	0	778	1	Ⴔ	cut_k_stereo_44KHz.wav
4	105	2	2	1	C	1	1	620	1	Ⴖ	cut_o_stereo_44KHz.wav
4	106	3	4	2	I	2	0	618	1	Ⴌ	cut_k_stereo_44KHz.wav
4	107	1	1	1	C	1	1	1186	1	Ⴉ	cut_u_stereo_44KHz.wav
4	108	4	3	2	I	2	0	522	1	Ⴔ	cut_a_stereo_44KHz.wav
4	109	1	2	0	C	2	1	1189	1	Ⴉ	cut_o_stereo_44KHz.wav
4	110	3	3	2	I	2	0	468	0	Ⴌ	cut_a_stereo_44KHz.wav
4	111	4	4	2	I	2	0	484	1	Ⴔ	cut_k_stereo_44KHz.wav
4	112	2	1	0	C	2	1	458	1	Ⴖ	cut_u_stereo_44KHz.wav
4	113	4	4	2	I	2	0	580	0	Ⴔ	cut_k_stereo_44KHz.wav
4	114	1	1	1	C	0	0	0	0	Ⴉ	cut_u_stereo_44KHz.wav
4	115	3	3	2	I	2	0	389	1	Ⴌ	cut_a_stereo_44KHz.wav
4	116	2	2	1	C	2	0	318	0	Ⴖ	cut_o_stereo_44KHz.wav
4	117	4	3	2	I	2	0	676	1	Ⴔ	cut_a_stereo_44KHz.wav
4	118	2	1	0	C	2	1	703	1	Ⴖ	cut_u_stereo_44KHz.wav
4	119	1	2	0	C	2	1	1147	1	Ⴉ	cut_o_stereo_44KHz.wav
4	120	3	4	2	I	2	0	1070	0	Ⴌ	cut_k_stereo_44KHz.wav
4	121	4	3	2	I	2	0	578	1	Ⴔ	cut_a_stereo_44KHz.wav
4	122	3	3	2	I	2	0	707	0	Ⴌ	cut_a_stereo_44KHz.wav
4	123	1	1	1	C	1	1	1009	1	Ⴉ	cut_u_stereo_44KHz.wav
4	124	2	2	1	C	1	1	969	1	Ⴖ	cut_o_stereo_44KHz.wav
4	125	3	4	2	I	2	0	573	0	Ⴌ	cut_k_stereo_44KHz.wav
4	126	4	4	2	I	2	0	293	0	Ⴔ	cut_k_stereo_44KHz.wav
4	127	2	1	0	C	2	1	1444	1	Ⴖ	cut_u_stereo_44KHz.wav
4	128	1	2	0	C	1	0	859	0	Ⴉ	cut_o_stereo_44KHz.wav
4	129	4	4	2	I	2	0	568	0	Ⴔ	cut_k_stereo_44KHz.wav
4	130	1	2	0	C	2	1	735	1	Ⴉ	cut_o_stereo_44KHz.wav
4	131	2	2	1	C	1	1	934	1	Ⴖ	cut_o_stereo_44KHz.wav
4	132	3	4	2	I	2	0	269	0	Ⴌ	cut_k_stereo_44KHz.wav
4	133	1	1	1	C	1	1	1718	1	Ⴉ	cut_u_stereo_44KHz.wav
4	134	4	3	2	I	1	0	1378	0	Ⴔ	cut_a_stereo_44KHz.wav
4	135	2	1	0	C	2	1	733	1	Ⴖ	cut_u_stereo_44KHz.wav
4	136	3	3	2	I	2	0	716	1	Ⴌ	cut_a_stereo_44KHz.wav
4	137	2	2	1	C	1	1	401	1	Ⴖ	cut_o_stereo_44KHz.wav
4	138	3	3	2	I	2	0	516	1	Ⴌ	cut_a_stereo_44KHz.wav
4	139	4	3	2	I	2	0	528	1	Ⴔ	cut_a_stereo_44KHz.wav
4	140	1	1	1	C	1	1	1124	1	Ⴉ	cut_u_stereo_44KHz.wav
4	141	2	1	0	C	2	1	587	1	Ⴖ	cut_u_stereo_44KHz.wav
4	142	3	4	2	I	2	0	819	1	Ⴌ	cut_k_stereo_44KHz.wav
4	143	1	2	0	C	2	1	1286	1	Ⴉ	cut_o_stereo_44KHz.wav
4	144	4	4	2	I	2	0	713	1	Ⴔ	cut_k_stereo_44KHz.wav
4	145	1	1	1	C	1	1	851	1	Ⴉ	cut_u_stereo_44KHz.wav
4	146	2	1	0	C	2	1	955	1	Ⴖ	cut_u_stereo_44KHz.wav
4	147	3	4	2	I	2	0	1025	1	Ⴌ	cut_k_stereo_44KHz.wav
4	148	4	4	2	I	2	0	619	0	Ⴔ	cut_k_stereo_44KHz.wav
4	149	2	2	1	C	1	1	890	1	Ⴖ	cut_o_stereo_44KHz.wav
4	150	1	2	0	C	2	1	614	1	Ⴉ	cut_o_stereo_44KHz.wav
4	151	3	3	2	I	2	0	1002	1	Ⴌ	cut_a_stereo_44KHz.wav
4	152	4	3	2	I	2	0	707	0	Ⴔ	cut_a_stereo_44KHz.wav
4	153	2	2	1	C	1	1	1023	1	Ⴖ	cut_o_stereo_44KHz.wav
4	154	4	3	2	I	1	0	1129	1	Ⴔ	cut_a_stereo_44KHz.wav
4	155	3	3	2	I	2	0	1371	0	Ⴌ	cut_a_stereo_44KHz.wav
4	156	1	2	0	C	2	1	755	1	Ⴉ	cut_o_stereo_44KHz.wav
4	157	4	4	2	I	2	0	778	1	Ⴔ	cut_k_stereo_44KHz.wav
4	158	3	4	2	I	2	0	920	1	Ⴌ	cut_k_stereo_44KHz.wav
4	159	1	1	1	C	1	1	1325	1	Ⴉ	cut_u_stereo_44KHz.wav
4	160	2	1	0	C	2	1	1541	1	Ⴖ	cut_u_stereo_44KHz.wav
4	161	3	4	2	I	2	0	1228	0	Ⴌ	cut_k_stereo_44KHz.wav
4	162	4	3	2	I	1	0	808	1	Ⴔ	cut_a_stereo_44KHz.wav
4	163	1	2	0	C	2	1	731	1	Ⴉ	cut_o_stereo_44KHz.wav
4	164	2	1	0	C	2	1	478	1	Ⴖ	cut_u_stereo_44KHz.wav
4	165	3	3	2	I	2	0	1668	1	Ⴌ	cut_a_stereo_44KHz.wav
4	166	1	1	1	C	1	1	352	1	Ⴉ	cut_u_stereo_44KHz.wav
4	167	2	2	1	C	1	1	786	1	Ⴖ	cut_o_stereo_44KHz.wav
4	168	4	4	2	I	2	0	281	0	Ⴔ	cut_k_stereo_44KHz.wav
4	169	3	4	2	I	1	0	260	1	Ⴌ	cut_k_stereo_44KHz.wav
4	170	4	4	2	I	1	0	528	0	Ⴔ	cut_k_stereo_44KHz.wav
4	171	1	1	1	C	1	1	1161	1	Ⴉ	cut_u_stereo_44KHz.wav
4	172	2	1	0	C	2	1	820	1	Ⴖ	cut_u_stereo_44KHz.wav
4	173	3	3	2	I	1	0	1081	1	Ⴌ	cut_a_stereo_44KHz.wav
4	174	1	2	0	C	2	1	393	1	Ⴉ	cut_o_stereo_44KHz.wav
4	175	2	2	1	C	1	1	1372	1	Ⴖ	cut_o_stereo_44KHz.wav
4	176	4	3	2	I	2	0	825	1	Ⴔ	cut_a_stereo_44KHz.wav
4	177	2	1	0	C	2	1	1112	1	Ⴖ	cut_u_stereo_44KHz.wav
4	178	1	1	1	C	1	1	533	1	Ⴉ	cut_u_stereo_44KHz.wav
4	179	4	4	2	I	2	0	1196	1	Ⴔ	cut_k_stereo_44KHz.wav
4	180	3	4	2	I	2	0	526	1	Ⴌ	cut_k_stereo_44KHz.wav
4	181	4	3	2	I	1	0	691	0	Ⴔ	cut_a_stereo_44KHz.wav
4	182	1	2	0	C	2	1	990	1	Ⴉ	cut_o_stereo_44KHz.wav
4	183	3	3	2	I	1	0	661	0	Ⴌ	cut_a_stereo_44KHz.wav
4	184	2	2	1	C	1	1	704	1	Ⴖ	cut_o_stereo_44KHz.wav
4	185	4	3	2	I	2	0	548	1	Ⴔ	cut_a_stereo_44KHz.wav
4	186	1	1	1	C	1	1	926	1	Ⴉ	cut_u_stereo_44KHz.wav
4	187	2	2	1	C	1	1	1086	1	Ⴖ	cut_o_stereo_44KHz.wav
4	188	3	3	2	I	1	0	441	0	Ⴌ	cut_a_stereo_44KHz.wav
4	189	1	2	0	C	2	1	787	1	Ⴉ	cut_o_stereo_44KHz.wav
4	190	4	4	2	I	1	0	559	0	Ⴔ	cut_k_stereo_44KHz.wav
4	191	2	1	0	C	2	1	1479	1	Ⴖ	cut_u_stereo_44KHz.wav
4	192	3	4	2	I	2	0	694	1	Ⴌ	cut_k_stereo_44KHz.wav
4	193	1	1	1	C	1	1	815	1	Ⴉ	cut_u_stereo_44KHz.wav
4	194	2	1	0	C	2	1	471	1	Ⴖ	cut_u_stereo_44KHz.wav
4	195	3	4	2	I	2	0	1852	0	Ⴌ	cut_k_stereo_44KHz.wav
4	196	4	4	2	I	2	0	550	0	Ⴔ	cut_k_stereo_44KHz.wav
4	197	1	2	0	C	2	1	1019	1	Ⴉ	cut_o_stereo_44KHz.wav
4	198	4	3	2	I	1	0	579	0	Ⴔ	cut_a_stereo_44KHz.wav
4	199	3	3	2	I	2	0	545	0	Ⴌ	cut_a_stereo_44KHz.wav
4	200	2	2	1	C	1	1	761	1	Ⴖ	cut_o_stereo_44KHz.wav
