block	trial	Vstim	Astim	match	C/I	resp	result	RT	fb	V-file	A-file
LR

0	1	2	4	0	C	2	0	1884	0	poli_8sides 23_whiteLine3.jpg	Practice3_b26_cut1_stereo_44KHz.wav
0	2	1	2	0	C	1	1	995	1	poli_8sides 22_whiteLine3.jpg	Practice2_b27_cut2_stereo_44KHz.wav
0	3	2	3	1	C	2	1	671	1	poli_8sides 23_whiteLine3.jpg	Practice1_b27_cut1_stereo_44KHz.wav
0	4	1	1	1	C	1	0	599	0	poli_8sides 22_whiteLine3.jpg	Practice4_b26_stereo_44KHz.wav
0	5	2	4	0	C	1	1	1103	1	poli_8sides 23_whiteLine3.jpg	Practice3_b26_cut1_stereo_44KHz.wav
0	6	1	2	0	C	1	1	950	1	poli_8sides 22_whiteLine3.jpg	Practice2_b27_cut2_stereo_44KHz.wav
0	7	1	1	1	C	2	1	939	1	poli_8sides 22_whiteLine3.jpg	Practice4_b26_stereo_44KHz.wav
0	8	2	3	1	C	1	0	841	0	poli_8sides 23_whiteLine3.jpg	Practice1_b27_cut1_stereo_44KHz.wav
0	9	2	3	1	C	1	0	877	0	poli_8sides 23_whiteLine3.jpg	Practice1_b27_cut1_stereo_44KHz.wav
0	10	2	4	0	C	1	1	1071	1	poli_8sides 23_whiteLine3.jpg	Practice3_b26_cut1_stereo_44KHz.wav
0	11	1	2	0	C	1	1	1061	1	poli_8sides 22_whiteLine3.jpg	Practice2_b27_cut2_stereo_44KHz.wav
0	12	1	1	1	C	1	0	1450	0	poli_8sides 22_whiteLine3.jpg	Practice4_b26_stereo_44KHz.wav
0	13	1	2	0	C	1	1	1528	1	poli_8sides 22_whiteLine3.jpg	Practice2_b27_cut2_stereo_44KHz.wav
0	14	1	1	1	C	1	0	1859	0	poli_8sides 22_whiteLine3.jpg	Practice4_b26_stereo_44KHz.wav
0	15	2	4	0	C	1	1	1908	1	poli_8sides 23_whiteLine3.jpg	Practice3_b26_cut1_stereo_44KHz.wav
0	16	2	3	1	C	2	1	1480	1	poli_8sides 23_whiteLine3.jpg	Practice1_b27_cut1_stereo_44KHz.wav
0	17	1	2	0	C	1	1	1464	1	poli_8sides 22_whiteLine3.jpg	Practice2_b27_cut2_stereo_44KHz.wav
0	18	2	3	1	C	0	0	0	0	poli_8sides 23_whiteLine3.jpg	Practice1_b27_cut1_stereo_44KHz.wav
0	19	2	4	0	C	1	1	1183	1	poli_8sides 23_whiteLine3.jpg	Practice3_b26_cut1_stereo_44KHz.wav
0	20	1	1	1	C	2	1	1920	1	poli_8sides 22_whiteLine3.jpg	Practice4_b26_stereo_44KHz.wav
0	21	2	3	1	C	1	0	799	0	poli_8sides 23_whiteLine3.jpg	Practice1_b27_cut1_stereo_44KHz.wav
0	22	2	4	0	C	2	0	1648	0	poli_8sides 23_whiteLine3.jpg	Practice3_b26_cut1_stereo_44KHz.wav
0	23	1	1	1	C	2	1	1363	1	poli_8sides 22_whiteLine3.jpg	Practice4_b26_stereo_44KHz.wav
0	24	1	2	0	C	1	1	1165	1	poli_8sides 22_whiteLine3.jpg	Practice2_b27_cut2_stereo_44KHz.wav
0	25	2	3	1	C	1	0	1202	0	poli_8sides 23_whiteLine3.jpg	Practice1_b27_cut1_stereo_44KHz.wav
0	26	1	2	0	C	1	1	934	1	poli_8sides 22_whiteLine3.jpg	Practice2_b27_cut2_stereo_44KHz.wav
0	27	1	1	1	C	2	1	935	1	poli_8sides 22_whiteLine3.jpg	Practice4_b26_stereo_44KHz.wav
0	28	2	4	0	C	2	0	777	0	poli_8sides 23_whiteLine3.jpg	Practice3_b26_cut1_stereo_44KHz.wav
0	29	1	2	0	C	1	1	1065	1	poli_8sides 22_whiteLine3.jpg	Practice2_b27_cut2_stereo_44KHz.wav
0	30	2	3	1	C	1	0	1334	0	poli_8sides 23_whiteLine3.jpg	Practice1_b27_cut1_stereo_44KHz.wav
avg_resp = 1208
1	1	4	4	2	I	1	0	1587	0	poli_8sides 7_whiteLine3.jpg	Medium_e13_stereo_44KHz.wav
1	2	1	1	1	C	2	1	1554	1	poli_8sides 16_whiteLine3.jpg	Medium_e21_stereo_44KHz.wav
1	3	2	2	1	C	1	0	1197	0	poli_8sides 1_whiteLine3.jpg	MediumLong_e17_cut2_stereo_44KHz.wav
1	4	3	3	2	I	1	0	1694	0	poli_8sides 8_whiteLine3.jpg	Medium_e26_stereo_44KHz.wav
1	5	4	3	2	I	0	0	0	0	poli_8sides 7_whiteLine3.jpg	Medium_e26_stereo_44KHz.wav
1	6	3	4	2	I	1	0	1088	1	poli_8sides 8_whiteLine3.jpg	Medium_e13_stereo_44KHz.wav
1	7	2	1	0	C	1	1	1789	1	poli_8sides 1_whiteLine3.jpg	Medium_e21_stereo_44KHz.wav
1	8	1	2	0	C	2	0	1694	0	poli_8sides 16_whiteLine3.jpg	MediumLong_e17_cut2_stereo_44KHz.wav
1	9	3	4	2	I	1	0	1093	1	poli_8sides 8_whiteLine3.jpg	Medium_e13_stereo_44KHz.wav
1	10	4	3	2	I	1	0	1259	1	poli_8sides 7_whiteLine3.jpg	Medium_e26_stereo_44KHz.wav
1	11	2	2	1	C	1	0	770	0	poli_8sides 1_whiteLine3.jpg	MediumLong_e17_cut2_stereo_44KHz.wav
1	12	1	2	0	C	0	0	0	0	poli_8sides 16_whiteLine3.jpg	MediumLong_e17_cut2_stereo_44KHz.wav
1	13	2	1	0	C	1	1	1018	1	poli_8sides 1_whiteLine3.jpg	Medium_e21_stereo_44KHz.wav
1	14	4	4	2	I	1	0	1107	0	poli_8sides 7_whiteLine3.jpg	Medium_e13_stereo_44KHz.wav
1	15	3	3	2	I	2	0	1295	0	poli_8sides 8_whiteLine3.jpg	Medium_e26_stereo_44KHz.wav
1	16	1	1	1	C	2	1	1217	1	poli_8sides 16_whiteLine3.jpg	Medium_e21_stereo_44KHz.wav
1	17	3	4	2	I	1	0	839	1	poli_8sides 8_whiteLine3.jpg	Medium_e13_stereo_44KHz.wav
1	18	4	4	2	I	1	0	1316	0	poli_8sides 7_whiteLine3.jpg	Medium_e13_stereo_44KHz.wav
1	19	2	1	0	C	1	1	1207	1	poli_8sides 1_whiteLine3.jpg	Medium_e21_stereo_44KHz.wav
1	20	1	2	0	C	1	1	1273	1	poli_8sides 16_whiteLine3.jpg	MediumLong_e17_cut2_stereo_44KHz.wav
1	21	2	2	1	C	2	1	1173	1	poli_8sides 1_whiteLine3.jpg	MediumLong_e17_cut2_stereo_44KHz.wav
1	22	1	1	1	C	2	1	1430	1	poli_8sides 16_whiteLine3.jpg	Medium_e21_stereo_44KHz.wav
1	23	4	3	2	I	1	0	1620	0	poli_8sides 7_whiteLine3.jpg	Medium_e26_stereo_44KHz.wav
1	24	3	3	2	I	0	0	0	0	poli_8sides 8_whiteLine3.jpg	Medium_e26_stereo_44KHz.wav
1	25	4	4	2	I	1	0	1097	1	poli_8sides 7_whiteLine3.jpg	Medium_e13_stereo_44KHz.wav
1	26	2	1	0	C	1	1	933	1	poli_8sides 1_whiteLine3.jpg	Medium_e21_stereo_44KHz.wav
1	27	3	4	2	I	1	0	1021	0	poli_8sides 8_whiteLine3.jpg	Medium_e13_stereo_44KHz.wav
1	28	1	2	0	C	1	1	936	1	poli_8sides 16_whiteLine3.jpg	MediumLong_e17_cut2_stereo_44KHz.wav
1	29	4	3	2	I	1	0	1325	0	poli_8sides 7_whiteLine3.jpg	Medium_e26_stereo_44KHz.wav
1	30	1	1	1	C	2	1	1231	1	poli_8sides 16_whiteLine3.jpg	Medium_e21_stereo_44KHz.wav
1	31	2	2	1	C	2	1	1247	1	poli_8sides 1_whiteLine3.jpg	MediumLong_e17_cut2_stereo_44KHz.wav
1	32	3	3	2	I	2	0	1631	1	poli_8sides 8_whiteLine3.jpg	Medium_e26_stereo_44KHz.wav
1	33	1	2	0	C	1	1	952	1	poli_8sides 16_whiteLine3.jpg	MediumLong_e17_cut2_stereo_44KHz.wav
1	34	2	2	1	C	1	0	1342	0	poli_8sides 1_whiteLine3.jpg	MediumLong_e17_cut2_stereo_44KHz.wav
1	35	4	3	2	I	1	0	1021	0	poli_8sides 7_whiteLine3.jpg	Medium_e26_stereo_44KHz.wav
1	36	3	3	2	I	2	0	1124	1	poli_8sides 8_whiteLine3.jpg	Medium_e26_stereo_44KHz.wav
1	37	2	1	0	C	1	1	866	1	poli_8sides 1_whiteLine3.jpg	Medium_e21_stereo_44KHz.wav
1	38	3	4	2	I	1	0	848	1	poli_8sides 8_whiteLine3.jpg	Medium_e13_stereo_44KHz.wav
1	39	1	1	1	C	2	1	1209	1	poli_8sides 16_whiteLine3.jpg	Medium_e21_stereo_44KHz.wav
1	40	4	4	2	I	2	0	1123	0	poli_8sides 7_whiteLine3.jpg	Medium_e13_stereo_44KHz.wav
1	41	2	1	0	C	1	1	945	1	poli_8sides 1_whiteLine3.jpg	Medium_e21_stereo_44KHz.wav
1	42	4	3	2	I	1	0	918	0	poli_8sides 7_whiteLine3.jpg	Medium_e26_stereo_44KHz.wav
1	43	1	2	0	C	1	1	966	1	poli_8sides 16_whiteLine3.jpg	MediumLong_e17_cut2_stereo_44KHz.wav
1	44	3	4	2	I	1	0	853	0	poli_8sides 8_whiteLine3.jpg	Medium_e13_stereo_44KHz.wav
1	45	4	4	2	I	1	0	1152	0	poli_8sides 7_whiteLine3.jpg	Medium_e13_stereo_44KHz.wav
1	46	3	3	2	I	1	0	828	1	poli_8sides 8_whiteLine3.jpg	Medium_e26_stereo_44KHz.wav
1	47	2	2	1	C	2	1	960	1	poli_8sides 1_whiteLine3.jpg	MediumLong_e17_cut2_stereo_44KHz.wav
1	48	1	1	1	C	2	1	1179	1	poli_8sides 16_whiteLine3.jpg	Medium_e21_stereo_44KHz.wav
1	49	4	3	2	I	1	0	1190	1	poli_8sides 7_whiteLine3.jpg	Medium_e26_stereo_44KHz.wav
1	50	1	1	1	C	1	0	1309	0	poli_8sides 16_whiteLine3.jpg	Medium_e21_stereo_44KHz.wav
1	51	2	2	1	C	2	1	1054	1	poli_8sides 1_whiteLine3.jpg	MediumLong_e17_cut2_stereo_44KHz.wav
1	52	3	3	2	I	2	0	884	1	poli_8sides 8_whiteLine3.jpg	Medium_e26_stereo_44KHz.wav
1	53	2	1	0	C	1	1	853	1	poli_8sides 1_whiteLine3.jpg	Medium_e21_stereo_44KHz.wav
1	54	1	2	0	C	1	1	1046	1	poli_8sides 16_whiteLine3.jpg	MediumLong_e17_cut2_stereo_44KHz.wav
1	55	4	4	2	I	2	0	1120	0	poli_8sides 7_whiteLine3.jpg	Medium_e13_stereo_44KHz.wav
1	56	3	4	2	I	1	0	1062	1	poli_8sides 8_whiteLine3.jpg	Medium_e13_stereo_44KHz.wav
1	57	4	3	2	I	2	0	1289	1	poli_8sides 7_whiteLine3.jpg	Medium_e26_stereo_44KHz.wav
1	58	1	2	0	C	2	0	846	0	poli_8sides 16_whiteLine3.jpg	MediumLong_e17_cut2_stereo_44KHz.wav
1	59	2	1	0	C	1	1	1194	1	poli_8sides 1_whiteLine3.jpg	Medium_e21_stereo_44KHz.wav
1	60	3	4	2	I	1	0	1187	0	poli_8sides 8_whiteLine3.jpg	Medium_e13_stereo_44KHz.wav
1	61	2	2	1	C	2	1	967	1	poli_8sides 1_whiteLine3.jpg	MediumLong_e17_cut2_stereo_44KHz.wav
1	62	3	3	2	I	2	0	956	0	poli_8sides 8_whiteLine3.jpg	Medium_e26_stereo_44KHz.wav
1	63	4	4	2	I	2	0	1291	0	poli_8sides 7_whiteLine3.jpg	Medium_e13_stereo_44KHz.wav
1	64	1	1	1	C	1	0	1403	0	poli_8sides 16_whiteLine3.jpg	Medium_e21_stereo_44KHz.wav
1	65	2	2	1	C	2	1	965	1	poli_8sides 1_whiteLine3.jpg	MediumLong_e17_cut2_stereo_44KHz.wav
1	66	3	4	2	I	2	0	1171	1	poli_8sides 8_whiteLine3.jpg	Medium_e13_stereo_44KHz.wav
1	67	1	2	0	C	1	1	958	1	poli_8sides 16_whiteLine3.jpg	MediumLong_e17_cut2_stereo_44KHz.wav
1	68	4	4	2	I	1	0	1030	1	poli_8sides 7_whiteLine3.jpg	Medium_e13_stereo_44KHz.wav
1	69	1	1	1	C	1	0	865	0	poli_8sides 16_whiteLine3.jpg	Medium_e21_stereo_44KHz.wav
1	70	4	3	2	I	2	0	1311	0	poli_8sides 7_whiteLine3.jpg	Medium_e26_stereo_44KHz.wav
1	71	3	3	2	I	2	0	1018	0	poli_8sides 8_whiteLine3.jpg	Medium_e26_stereo_44KHz.wav
1	72	2	1	0	C	1	1	688	1	poli_8sides 1_whiteLine3.jpg	Medium_e21_stereo_44KHz.wav
1	73	3	4	2	I	2	0	1166	0	poli_8sides 8_whiteLine3.jpg	Medium_e13_stereo_44KHz.wav
1	74	4	3	2	I	2	0	1113	0	poli_8sides 7_whiteLine3.jpg	Medium_e26_stereo_44KHz.wav
1	75	1	1	1	C	1	0	830	0	poli_8sides 16_whiteLine3.jpg	Medium_e21_stereo_44KHz.wav
1	76	2	1	0	C	1	1	911	1	poli_8sides 1_whiteLine3.jpg	Medium_e21_stereo_44KHz.wav
1	77	1	2	0	C	1	1	846	1	poli_8sides 16_whiteLine3.jpg	MediumLong_e17_cut2_stereo_44KHz.wav
1	78	3	3	2	I	2	0	908	0	poli_8sides 8_whiteLine3.jpg	Medium_e26_stereo_44KHz.wav
1	79	2	2	1	C	2	1	1100	1	poli_8sides 1_whiteLine3.jpg	MediumLong_e17_cut2_stereo_44KHz.wav
1	80	4	4	2	I	1	0	983	1	poli_8sides 7_whiteLine3.jpg	Medium_e13_stereo_44KHz.wav
1	81	1	2	0	C	1	1	896	1	poli_8sides 16_whiteLine3.jpg	MediumLong_e17_cut2_stereo_44KHz.wav
1	82	2	1	0	C	1	1	1367	1	poli_8sides 1_whiteLine3.jpg	Medium_e21_stereo_44KHz.wav
1	83	3	3	2	I	1	0	876	0	poli_8sides 8_whiteLine3.jpg	Medium_e26_stereo_44KHz.wav
1	84	4	4	2	I	1	0	823	0	poli_8sides 7_whiteLine3.jpg	Medium_e13_stereo_44KHz.wav
1	85	3	4	2	I	1	0	788	1	poli_8sides 8_whiteLine3.jpg	Medium_e13_stereo_44KHz.wav
1	86	2	2	1	C	2	1	1041	1	poli_8sides 1_whiteLine3.jpg	MediumLong_e17_cut2_stereo_44KHz.wav
1	87	1	1	1	C	2	1	1513	1	poli_8sides 16_whiteLine3.jpg	Medium_e21_stereo_44KHz.wav
1	88	4	3	2	I	2	0	946	0	poli_8sides 7_whiteLine3.jpg	Medium_e26_stereo_44KHz.wav
1	89	2	1	0	C	1	1	941	1	poli_8sides 1_whiteLine3.jpg	Medium_e21_stereo_44KHz.wav
1	90	3	4	2	I	1	0	1355	0	poli_8sides 8_whiteLine3.jpg	Medium_e13_stereo_44KHz.wav
1	91	1	1	1	C	1	0	1156	0	poli_8sides 16_whiteLine3.jpg	Medium_e21_stereo_44KHz.wav
1	92	4	4	2	I	2	0	886	1	poli_8sides 7_whiteLine3.jpg	Medium_e13_stereo_44KHz.wav
1	93	1	2	0	C	1	1	1021	1	poli_8sides 16_whiteLine3.jpg	MediumLong_e17_cut2_stereo_44KHz.wav
1	94	3	3	2	I	1	0	1255	0	poli_8sides 8_whiteLine3.jpg	Medium_e26_stereo_44KHz.wav
1	95	2	2	1	C	2	1	1327	1	poli_8sides 1_whiteLine3.jpg	MediumLong_e17_cut2_stereo_44KHz.wav
1	96	4	3	2	I	1	0	1051	1	poli_8sides 7_whiteLine3.jpg	Medium_e26_stereo_44KHz.wav
1	97	2	1	0	C	1	1	1391	1	poli_8sides 1_whiteLine3.jpg	Medium_e21_stereo_44KHz.wav
1	98	1	2	0	C	1	1	914	1	poli_8sides 16_whiteLine3.jpg	MediumLong_e17_cut2_stereo_44KHz.wav
1	99	4	4	2	I	1	0	1156	1	poli_8sides 7_whiteLine3.jpg	Medium_e13_stereo_44KHz.wav
1	100	3	4	2	I	1	0	1523	1	poli_8sides 8_whiteLine3.jpg	Medium_e13_stereo_44KHz.wav
1	101	4	3	2	I	1	0	1101	1	poli_8sides 7_whiteLine3.jpg	Medium_e26_stereo_44KHz.wav
1	102	2	2	1	C	2	1	1134	1	poli_8sides 1_whiteLine3.jpg	MediumLong_e17_cut2_stereo_44KHz.wav
1	103	3	3	2	I	2	0	1113	1	poli_8sides 8_whiteLine3.jpg	Medium_e26_stereo_44KHz.wav
1	104	1	1	1	C	2	1	1255	1	poli_8sides 16_whiteLine3.jpg	Medium_e21_stereo_44KHz.wav
1	105	4	3	2	I	2	0	1336	1	poli_8sides 7_whiteLine3.jpg	Medium_e26_stereo_44KHz.wav
1	106	1	2	0	C	2	0	1038	0	poli_8sides 16_whiteLine3.jpg	MediumLong_e17_cut2_stereo_44KHz.wav
1	107	2	1	0	C	1	1	972	1	poli_8sides 1_whiteLine3.jpg	Medium_e21_stereo_44KHz.wav
1	108	3	4	2	I	1	0	1157	0	poli_8sides 8_whiteLine3.jpg	Medium_e13_stereo_44KHz.wav
1	109	4	4	2	I	1	0	1159	0	poli_8sides 7_whiteLine3.jpg	Medium_e13_stereo_44KHz.wav
1	110	3	3	2	I	1	0	1411	0	poli_8sides 8_whiteLine3.jpg	Medium_e26_stereo_44KHz.wav
1	111	1	1	1	C	2	1	1699	1	poli_8sides 16_whiteLine3.jpg	Medium_e21_stereo_44KHz.wav
1	112	2	2	1	C	2	1	944	1	poli_8sides 1_whiteLine3.jpg	MediumLong_e17_cut2_stereo_44KHz.wav
1	113	3	3	2	I	2	0	962	1	poli_8sides 8_whiteLine3.jpg	Medium_e26_stereo_44KHz.wav
1	114	2	1	0	C	1	1	1228	1	poli_8sides 1_whiteLine3.jpg	Medium_e21_stereo_44KHz.wav
1	115	1	1	1	C	2	1	1289	1	poli_8sides 16_whiteLine3.jpg	Medium_e21_stereo_44KHz.wav
1	116	4	3	2	I	1	0	939	0	poli_8sides 7_whiteLine3.jpg	Medium_e26_stereo_44KHz.wav
1	117	2	2	1	C	2	1	1007	1	poli_8sides 1_whiteLine3.jpg	MediumLong_e17_cut2_stereo_44KHz.wav
1	118	4	4	2	I	1	0	1042	1	poli_8sides 7_whiteLine3.jpg	Medium_e13_stereo_44KHz.wav
1	119	1	2	0	C	1	1	1156	1	poli_8sides 16_whiteLine3.jpg	MediumLong_e17_cut2_stereo_44KHz.wav
1	120	3	4	2	I	1	0	1165	1	poli_8sides 8_whiteLine3.jpg	Medium_e13_stereo_44KHz.wav
1	121	2	2	1	C	2	1	865	1	poli_8sides 1_whiteLine3.jpg	MediumLong_e17_cut2_stereo_44KHz.wav
1	122	4	3	2	I	1	0	1161	1	poli_8sides 7_whiteLine3.jpg	Medium_e26_stereo_44KHz.wav
1	123	1	2	0	C	1	1	1480	1	poli_8sides 16_whiteLine3.jpg	MediumLong_e17_cut2_stereo_44KHz.wav
1	124	3	4	2	I	1	0	1031	1	poli_8sides 8_whiteLine3.jpg	Medium_e13_stereo_44KHz.wav
1	125	4	4	2	I	2	0	1054	1	poli_8sides 7_whiteLine3.jpg	Medium_e13_stereo_44KHz.wav
1	126	2	1	0	C	1	1	949	1	poli_8sides 1_whiteLine3.jpg	Medium_e21_stereo_44KHz.wav
1	127	3	3	2	I	2	0	1110	0	poli_8sides 8_whiteLine3.jpg	Medium_e26_stereo_44KHz.wav
1	128	1	1	1	C	1	0	1347	0	poli_8sides 16_whiteLine3.jpg	Medium_e21_stereo_44KHz.wav
1	129	4	3	2	I	2	0	1206	1	poli_8sides 7_whiteLine3.jpg	Medium_e26_stereo_44KHz.wav
1	130	2	1	0	C	1	1	900	1	poli_8sides 1_whiteLine3.jpg	Medium_e21_stereo_44KHz.wav
1	131	1	1	1	C	2	1	1337	1	poli_8sides 16_whiteLine3.jpg	Medium_e21_stereo_44KHz.wav
1	132	3	3	2	I	1	0	1043	1	poli_8sides 8_whiteLine3.jpg	Medium_e26_stereo_44KHz.wav
1	133	4	4	2	I	1	0	1064	0	poli_8sides 7_whiteLine3.jpg	Medium_e13_stereo_44KHz.wav
1	134	1	2	0	C	1	1	1005	1	poli_8sides 16_whiteLine3.jpg	MediumLong_e17_cut2_stereo_44KHz.wav
1	135	2	2	1	C	2	1	889	1	poli_8sides 1_whiteLine3.jpg	MediumLong_e17_cut2_stereo_44KHz.wav
1	136	3	4	2	I	2	0	1929	1	poli_8sides 8_whiteLine3.jpg	Medium_e13_stereo_44KHz.wav
1	137	4	4	2	I	1	0	959	1	poli_8sides 7_whiteLine3.jpg	Medium_e13_stereo_44KHz.wav
1	138	3	4	2	I	2	0	1073	1	poli_8sides 8_whiteLine3.jpg	Medium_e13_stereo_44KHz.wav
1	139	2	1	0	C	1	1	996	1	poli_8sides 1_whiteLine3.jpg	Medium_e21_stereo_44KHz.wav
1	140	1	1	1	C	2	1	952	1	poli_8sides 16_whiteLine3.jpg	Medium_e21_stereo_44KHz.wav
1	141	4	3	2	I	0	0	0	0	poli_8sides 7_whiteLine3.jpg	Medium_e26_stereo_44KHz.wav
1	142	3	3	2	I	2	0	1263	1	poli_8sides 8_whiteLine3.jpg	Medium_e26_stereo_44KHz.wav
1	143	1	2	0	C	1	1	877	1	poli_8sides 16_whiteLine3.jpg	MediumLong_e17_cut2_stereo_44KHz.wav
1	144	2	2	1	C	2	1	784	1	poli_8sides 1_whiteLine3.jpg	MediumLong_e17_cut2_stereo_44KHz.wav
1	145	1	2	0	C	1	1	1515	1	poli_8sides 16_whiteLine3.jpg	MediumLong_e17_cut2_stereo_44KHz.wav
1	146	4	3	2	I	2	0	1439	0	poli_8sides 7_whiteLine3.jpg	Medium_e26_stereo_44KHz.wav
1	147	2	2	1	C	2	1	1236	1	poli_8sides 1_whiteLine3.jpg	MediumLong_e17_cut2_stereo_44KHz.wav
1	148	3	4	2	I	2	0	1381	0	poli_8sides 8_whiteLine3.jpg	Medium_e13_stereo_44KHz.wav
1	149	4	4	2	I	1	0	1311	1	poli_8sides 7_whiteLine3.jpg	Medium_e13_stereo_44KHz.wav
1	150	3	3	2	I	1	0	1828	0	poli_8sides 8_whiteLine3.jpg	Medium_e26_stereo_44KHz.wav
1	151	2	1	0	C	1	1	912	1	poli_8sides 1_whiteLine3.jpg	Medium_e21_stereo_44KHz.wav
1	152	1	1	1	C	1	0	1933	0	poli_8sides 16_whiteLine3.jpg	Medium_e21_stereo_44KHz.wav
1	153	3	3	2	I	1	0	1075	0	poli_8sides 8_whiteLine3.jpg	Medium_e26_stereo_44KHz.wav
1	154	1	1	1	C	2	1	1437	1	poli_8sides 16_whiteLine3.jpg	Medium_e21_stereo_44KHz.wav
1	155	2	1	0	C	1	1	828	1	poli_8sides 1_whiteLine3.jpg	Medium_e21_stereo_44KHz.wav
1	156	4	4	2	I	1	0	1345	1	poli_8sides 7_whiteLine3.jpg	Medium_e13_stereo_44KHz.wav
1	157	3	4	2	I	1	0	1274	0	poli_8sides 8_whiteLine3.jpg	Medium_e13_stereo_44KHz.wav
1	158	4	3	2	I	2	0	1423	1	poli_8sides 7_whiteLine3.jpg	Medium_e26_stereo_44KHz.wav
1	159	2	2	1	C	2	1	848	1	poli_8sides 1_whiteLine3.jpg	MediumLong_e17_cut2_stereo_44KHz.wav
1	160	1	2	0	C	1	1	1546	1	poli_8sides 16_whiteLine3.jpg	MediumLong_e17_cut2_stereo_44KHz.wav
1	161	3	4	2	I	2	0	1432	0	poli_8sides 8_whiteLine3.jpg	Medium_e13_stereo_44KHz.wav
1	162	4	4	2	I	1	0	981	1	poli_8sides 7_whiteLine3.jpg	Medium_e13_stereo_44KHz.wav
1	163	1	2	0	C	1	1	1065	1	poli_8sides 16_whiteLine3.jpg	MediumLong_e17_cut2_stereo_44KHz.wav
1	164	2	2	1	C	2	1	786	1	poli_8sides 1_whiteLine3.jpg	MediumLong_e17_cut2_stereo_44KHz.wav
1	165	1	1	1	C	2	1	1191	1	poli_8sides 16_whiteLine3.jpg	Medium_e21_stereo_44KHz.wav
1	166	4	3	2	I	2	0	1225	1	poli_8sides 7_whiteLine3.jpg	Medium_e26_stereo_44KHz.wav
1	167	3	3	2	I	1	0	1350	0	poli_8sides 8_whiteLine3.jpg	Medium_e26_stereo_44KHz.wav
1	168	2	1	0	C	1	1	875	1	poli_8sides 1_whiteLine3.jpg	Medium_e21_stereo_44KHz.wav
1	169	1	2	0	C	1	1	1241	1	poli_8sides 16_whiteLine3.jpg	MediumLong_e17_cut2_stereo_44KHz.wav
1	170	2	1	0	C	0	0	0	0	poli_8sides 1_whiteLine3.jpg	Medium_e21_stereo_44KHz.wav
1	171	4	3	2	I	2	0	1042	0	poli_8sides 7_whiteLine3.jpg	Medium_e26_stereo_44KHz.wav
1	172	3	4	2	I	1	0	1183	0	poli_8sides 8_whiteLine3.jpg	Medium_e13_stereo_44KHz.wav
1	173	1	1	1	C	2	1	1279	1	poli_8sides 16_whiteLine3.jpg	Medium_e21_stereo_44KHz.wav
1	174	3	3	2	I	1	0	1319	1	poli_8sides 8_whiteLine3.jpg	Medium_e26_stereo_44KHz.wav
1	175	4	4	2	I	2	0	1295	1	poli_8sides 7_whiteLine3.jpg	Medium_e13_stereo_44KHz.wav
1	176	2	2	1	C	2	1	954	1	poli_8sides 1_whiteLine3.jpg	MediumLong_e17_cut2_stereo_44KHz.wav
1	177	1	2	0	C	1	1	1087	1	poli_8sides 16_whiteLine3.jpg	MediumLong_e17_cut2_stereo_44KHz.wav
1	178	2	1	0	C	1	1	906	1	poli_8sides 1_whiteLine3.jpg	Medium_e21_stereo_44KHz.wav
1	179	4	4	2	I	1	0	901	0	poli_8sides 7_whiteLine3.jpg	Medium_e13_stereo_44KHz.wav
1	180	3	3	2	I	2	0	1266	1	poli_8sides 8_whiteLine3.jpg	Medium_e26_stereo_44KHz.wav
1	181	4	3	2	I	2	0	1640	0	poli_8sides 7_whiteLine3.jpg	Medium_e26_stereo_44KHz.wav
1	182	2	2	1	C	2	1	892	1	poli_8sides 1_whiteLine3.jpg	MediumLong_e17_cut2_stereo_44KHz.wav
1	183	3	4	2	I	2	0	1037	0	poli_8sides 8_whiteLine3.jpg	Medium_e13_stereo_44KHz.wav
1	184	1	1	1	C	2	1	1069	1	poli_8sides 16_whiteLine3.jpg	Medium_e21_stereo_44KHz.wav
1	185	4	4	2	I	1	0	869	1	poli_8sides 7_whiteLine3.jpg	Medium_e13_stereo_44KHz.wav
1	186	1	1	1	C	2	1	1177	1	poli_8sides 16_whiteLine3.jpg	Medium_e21_stereo_44KHz.wav
1	187	2	1	0	C	1	1	942	1	poli_8sides 1_whiteLine3.jpg	Medium_e21_stereo_44KHz.wav
1	188	3	3	2	I	2	0	1025	1	poli_8sides 8_whiteLine3.jpg	Medium_e26_stereo_44KHz.wav
1	189	2	2	1	C	2	1	1053	1	poli_8sides 1_whiteLine3.jpg	MediumLong_e17_cut2_stereo_44KHz.wav
1	190	4	3	2	I	1	0	1545	0	poli_8sides 7_whiteLine3.jpg	Medium_e26_stereo_44KHz.wav
1	191	3	4	2	I	1	0	1227	0	poli_8sides 8_whiteLine3.jpg	Medium_e13_stereo_44KHz.wav
1	192	1	2	0	C	1	1	909	1	poli_8sides 16_whiteLine3.jpg	MediumLong_e17_cut2_stereo_44KHz.wav
1	193	3	4	2	I	1	0	890	1	poli_8sides 8_whiteLine3.jpg	Medium_e13_stereo_44KHz.wav
1	194	1	1	1	C	2	1	971	1	poli_8sides 16_whiteLine3.jpg	Medium_e21_stereo_44KHz.wav
1	195	2	1	0	C	1	1	1402	1	poli_8sides 1_whiteLine3.jpg	Medium_e21_stereo_44KHz.wav
1	196	4	4	2	I	1	0	1067	0	poli_8sides 7_whiteLine3.jpg	Medium_e13_stereo_44KHz.wav
1	197	2	2	1	C	2	1	725	1	poli_8sides 1_whiteLine3.jpg	MediumLong_e17_cut2_stereo_44KHz.wav
1	198	3	3	2	I	2	0	961	0	poli_8sides 8_whiteLine3.jpg	Medium_e26_stereo_44KHz.wav
1	199	4	3	2	I	2	0	1022	0	poli_8sides 7_whiteLine3.jpg	Medium_e26_stereo_44KHz.wav
1	200	1	2	0	C	0	0	0	0	poli_8sides 16_whiteLine3.jpg	MediumLong_e17_cut2_stereo_44KHz.wav
2	1	3	3	2	I	1	0	1536	0	poli_8sides 13_whiteLine3.jpg	MediumShort_b10_cut1_MS_stereo_44KHz.wav
2	2	4	4	2	I	1	0	1115	0	poli_8sides 6_whiteLine3.jpg	MediumShort_e16_cut1_stereo_44KHz.wav
2	3	2	2	1	C	1	0	1325	0	poli_8sides 11_whiteLine3.jpg	MediumShort_b16_cut3_MS_stereo_44KHz.wav
2	4	1	1	1	C	2	1	1487	1	poli_8sides 12_whiteLine3.jpg	MediumShort_e22_cut1_stereo_44KHz.wav
2	5	4	3	2	I	1	0	1171	1	poli_8sides 6_whiteLine3.jpg	MediumShort_b10_cut1_MS_stereo_44KHz.wav
2	6	1	2	0	C	2	0	1203	0	poli_8sides 12_whiteLine3.jpg	MediumShort_b16_cut3_MS_stereo_44KHz.wav
2	7	3	4	2	I	1	0	976	0	poli_8sides 13_whiteLine3.jpg	MediumShort_e16_cut1_stereo_44KHz.wav
2	8	2	1	0	C	1	1	1216	1	poli_8sides 11_whiteLine3.jpg	MediumShort_e22_cut1_stereo_44KHz.wav
2	9	3	3	2	I	1	0	1797	1	poli_8sides 13_whiteLine3.jpg	MediumShort_b10_cut1_MS_stereo_44KHz.wav
2	10	2	1	0	C	1	1	1159	1	poli_8sides 11_whiteLine3.jpg	MediumShort_e22_cut1_stereo_44KHz.wav
2	11	1	2	0	C	1	1	893	1	poli_8sides 12_whiteLine3.jpg	MediumShort_b16_cut3_MS_stereo_44KHz.wav
2	12	4	3	2	I	1	0	1380	1	poli_8sides 6_whiteLine3.jpg	MediumShort_b10_cut1_MS_stereo_44KHz.wav
2	13	3	4	2	I	1	0	1230	1	poli_8sides 13_whiteLine3.jpg	MediumShort_e16_cut1_stereo_44KHz.wav
2	14	4	4	2	I	2	0	1194	0	poli_8sides 6_whiteLine3.jpg	MediumShort_e16_cut1_stereo_44KHz.wav
2	15	1	1	1	C	1	0	1975	0	poli_8sides 12_whiteLine3.jpg	MediumShort_e22_cut1_stereo_44KHz.wav
2	16	2	2	1	C	1	0	970	0	poli_8sides 11_whiteLine3.jpg	MediumShort_b16_cut3_MS_stereo_44KHz.wav
2	17	4	3	2	I	1	0	867	1	poli_8sides 6_whiteLine3.jpg	MediumShort_b10_cut1_MS_stereo_44KHz.wav
2	18	1	2	0	C	1	1	1185	1	poli_8sides 12_whiteLine3.jpg	MediumShort_b16_cut3_MS_stereo_44KHz.wav
2	19	2	2	1	C	1	0	1071	0	poli_8sides 11_whiteLine3.jpg	MediumShort_b16_cut3_MS_stereo_44KHz.wav
2	20	3	4	2	I	1	0	856	0	poli_8sides 13_whiteLine3.jpg	MediumShort_e16_cut1_stereo_44KHz.wav
2	21	2	1	0	C	1	1	966	1	poli_8sides 11_whiteLine3.jpg	MediumShort_e22_cut1_stereo_44KHz.wav
2	22	4	4	2	I	2	0	1162	0	poli_8sides 6_whiteLine3.jpg	MediumShort_e16_cut1_stereo_44KHz.wav
2	23	3	3	2	I	1	0	719	1	poli_8sides 13_whiteLine3.jpg	MediumShort_b10_cut1_MS_stereo_44KHz.wav
2	24	1	1	1	C	2	1	1397	1	poli_8sides 12_whiteLine3.jpg	MediumShort_e22_cut1_stereo_44KHz.wav
2	25	4	3	2	I	1	0	923	1	poli_8sides 6_whiteLine3.jpg	MediumShort_b10_cut1_MS_stereo_44KHz.wav
2	26	3	3	2	I	1	0	746	0	poli_8sides 13_whiteLine3.jpg	MediumShort_b10_cut1_MS_stereo_44KHz.wav
2	27	1	2	0	C	1	1	1790	1	poli_8sides 12_whiteLine3.jpg	MediumShort_b16_cut3_MS_stereo_44KHz.wav
2	28	2	2	1	C	1	0	1399	0	poli_8sides 11_whiteLine3.jpg	MediumShort_b16_cut3_MS_stereo_44KHz.wav
2	29	1	1	1	C	1	0	1098	0	poli_8sides 12_whiteLine3.jpg	MediumShort_e22_cut1_stereo_44KHz.wav
2	30	4	4	2	I	1	0	1699	0	poli_8sides 6_whiteLine3.jpg	MediumShort_e16_cut1_stereo_44KHz.wav
2	31	2	1	0	C	1	1	1143	1	poli_8sides 11_whiteLine3.jpg	MediumShort_e22_cut1_stereo_44KHz.wav
2	32	3	4	2	I	1	0	1854	1	poli_8sides 13_whiteLine3.jpg	MediumShort_e16_cut1_stereo_44KHz.wav
2	33	4	3	2	I	2	0	1199	0	poli_8sides 6_whiteLine3.jpg	MediumShort_b10_cut1_MS_stereo_44KHz.wav
2	34	1	2	0	C	1	1	1210	1	poli_8sides 12_whiteLine3.jpg	MediumShort_b16_cut3_MS_stereo_44KHz.wav
2	35	2	1	0	C	1	1	959	1	poli_8sides 11_whiteLine3.jpg	MediumShort_e22_cut1_stereo_44KHz.wav
2	36	3	3	2	I	2	0	1440	0	poli_8sides 13_whiteLine3.jpg	MediumShort_b10_cut1_MS_stereo_44KHz.wav
2	37	2	2	1	C	2	1	1252	1	poli_8sides 11_whiteLine3.jpg	MediumShort_b16_cut3_MS_stereo_44KHz.wav
2	38	3	4	2	I	1	0	1528	1	poli_8sides 13_whiteLine3.jpg	MediumShort_e16_cut1_stereo_44KHz.wav
2	39	4	4	2	I	1	0	1118	0	poli_8sides 6_whiteLine3.jpg	MediumShort_e16_cut1_stereo_44KHz.wav
2	40	1	1	1	C	1	0	1044	0	poli_8sides 12_whiteLine3.jpg	MediumShort_e22_cut1_stereo_44KHz.wav
2	41	4	3	2	I	2	0	1519	0	poli_8sides 6_whiteLine3.jpg	MediumShort_b10_cut1_MS_stereo_44KHz.wav
2	42	3	4	2	I	1	0	805	1	poli_8sides 13_whiteLine3.jpg	MediumShort_e16_cut1_stereo_44KHz.wav
2	43	1	1	1	C	1	0	1042	0	poli_8sides 12_whiteLine3.jpg	MediumShort_e22_cut1_stereo_44KHz.wav
2	44	2	1	0	C	0	0	0	0	poli_8sides 11_whiteLine3.jpg	MediumShort_e22_cut1_stereo_44KHz.wav
2	45	3	3	2	I	2	0	1024	0	poli_8sides 13_whiteLine3.jpg	MediumShort_b10_cut1_MS_stereo_44KHz.wav
2	46	2	2	1	C	1	0	1186	0	poli_8sides 11_whiteLine3.jpg	MediumShort_b16_cut3_MS_stereo_44KHz.wav
2	47	1	2	0	C	2	0	794	0	poli_8sides 12_whiteLine3.jpg	MediumShort_b16_cut3_MS_stereo_44KHz.wav
2	48	4	4	2	I	1	0	996	1	poli_8sides 6_whiteLine3.jpg	MediumShort_e16_cut1_stereo_44KHz.wav
2	49	1	1	1	C	2	1	905	1	poli_8sides 12_whiteLine3.jpg	MediumShort_e22_cut1_stereo_44KHz.wav
2	50	3	3	2	I	2	0	1214	1	poli_8sides 13_whiteLine3.jpg	MediumShort_b10_cut1_MS_stereo_44KHz.wav
2	51	2	2	1	C	1	0	1174	0	poli_8sides 11_whiteLine3.jpg	MediumShort_b16_cut3_MS_stereo_44KHz.wav
2	52	4	3	2	I	2	0	980	1	poli_8sides 6_whiteLine3.jpg	MediumShort_b10_cut1_MS_stereo_44KHz.wav
2	53	3	4	2	I	1	0	948	1	poli_8sides 13_whiteLine3.jpg	MediumShort_e16_cut1_stereo_44KHz.wav
2	54	2	1	0	C	2	0	1651	0	poli_8sides 11_whiteLine3.jpg	MediumShort_e22_cut1_stereo_44KHz.wav
2	55	1	2	0	C	2	0	1376	0	poli_8sides 12_whiteLine3.jpg	MediumShort_b16_cut3_MS_stereo_44KHz.wav
2	56	4	4	2	I	2	0	911	1	poli_8sides 6_whiteLine3.jpg	MediumShort_e16_cut1_stereo_44KHz.wav
2	57	3	4	2	I	1	0	1255	1	poli_8sides 13_whiteLine3.jpg	MediumShort_e16_cut1_stereo_44KHz.wav
2	58	4	3	2	I	1	0	890	0	poli_8sides 6_whiteLine3.jpg	MediumShort_b10_cut1_MS_stereo_44KHz.wav
2	59	2	2	1	C	2	1	852	1	poli_8sides 11_whiteLine3.jpg	MediumShort_b16_cut3_MS_stereo_44KHz.wav
2	60	1	2	0	C	2	0	781	0	poli_8sides 12_whiteLine3.jpg	MediumShort_b16_cut3_MS_stereo_44KHz.wav
2	61	4	4	2	I	2	0	1159	0	poli_8sides 6_whiteLine3.jpg	MediumShort_e16_cut1_stereo_44KHz.wav
2	62	2	1	0	C	1	1	1202	1	poli_8sides 11_whiteLine3.jpg	MediumShort_e22_cut1_stereo_44KHz.wav
2	63	1	1	1	C	1	0	650	0	poli_8sides 12_whiteLine3.jpg	MediumShort_e22_cut1_stereo_44KHz.wav
2	64	3	3	2	I	2	0	887	0	poli_8sides 13_whiteLine3.jpg	MediumShort_b10_cut1_MS_stereo_44KHz.wav
2	65	4	4	2	I	2	0	824	0	poli_8sides 6_whiteLine3.jpg	MediumShort_e16_cut1_stereo_44KHz.wav
2	66	2	2	1	C	1	0	1219	0	poli_8sides 11_whiteLine3.jpg	MediumShort_b16_cut3_MS_stereo_44KHz.wav
2	67	1	2	0	C	1	1	977	1	poli_8sides 12_whiteLine3.jpg	MediumShort_b16_cut3_MS_stereo_44KHz.wav
2	68	3	3	2	I	2	0	772	0	poli_8sides 13_whiteLine3.jpg	MediumShort_b10_cut1_MS_stereo_44KHz.wav
2	69	1	1	1	C	1	0	979	0	poli_8sides 12_whiteLine3.jpg	MediumShort_e22_cut1_stereo_44KHz.wav
2	70	2	1	0	C	1	1	1198	1	poli_8sides 11_whiteLine3.jpg	MediumShort_e22_cut1_stereo_44KHz.wav
2	71	3	4	2	I	1	0	1336	0	poli_8sides 13_whiteLine3.jpg	MediumShort_e16_cut1_stereo_44KHz.wav
2	72	4	3	2	I	2	0	726	0	poli_8sides 6_whiteLine3.jpg	MediumShort_b10_cut1_MS_stereo_44KHz.wav
2	73	3	3	2	I	1	0	584	0	poli_8sides 13_whiteLine3.jpg	MediumShort_b10_cut1_MS_stereo_44KHz.wav
2	74	1	1	1	C	1	0	944	0	poli_8sides 12_whiteLine3.jpg	MediumShort_e22_cut1_stereo_44KHz.wav
2	75	2	2	1	C	2	1	759	1	poli_8sides 11_whiteLine3.jpg	MediumShort_b16_cut3_MS_stereo_44KHz.wav
2	76	4	3	2	I	2	0	1218	1	poli_8sides 6_whiteLine3.jpg	MediumShort_b10_cut1_MS_stereo_44KHz.wav
2	77	1	2	0	C	2	0	1006	0	poli_8sides 12_whiteLine3.jpg	MediumShort_b16_cut3_MS_stereo_44KHz.wav
2	78	3	4	2	I	1	0	833	1	poli_8sides 13_whiteLine3.jpg	MediumShort_e16_cut1_stereo_44KHz.wav
2	79	2	1	0	C	2	0	1071	0	poli_8sides 11_whiteLine3.jpg	MediumShort_e22_cut1_stereo_44KHz.wav
2	80	4	4	2	I	2	0	862	1	poli_8sides 6_whiteLine3.jpg	MediumShort_e16_cut1_stereo_44KHz.wav
2	81	3	4	2	I	1	0	1052	1	poli_8sides 13_whiteLine3.jpg	MediumShort_e16_cut1_stereo_44KHz.wav
2	82	1	1	1	C	1	0	1226	0	poli_8sides 12_whiteLine3.jpg	MediumShort_e22_cut1_stereo_44KHz.wav
2	83	2	2	1	C	1	0	1285	0	poli_8sides 11_whiteLine3.jpg	MediumShort_b16_cut3_MS_stereo_44KHz.wav
2	84	4	3	2	I	2	0	949	1	poli_8sides 6_whiteLine3.jpg	MediumShort_b10_cut1_MS_stereo_44KHz.wav
2	85	2	1	0	C	2	0	921	0	poli_8sides 11_whiteLine3.jpg	MediumShort_e22_cut1_stereo_44KHz.wav
2	86	3	3	2	I	2	0	943	0	poli_8sides 13_whiteLine3.jpg	MediumShort_b10_cut1_MS_stereo_44KHz.wav
2	87	4	4	2	I	2	0	950	1	poli_8sides 6_whiteLine3.jpg	MediumShort_e16_cut1_stereo_44KHz.wav
2	88	1	2	0	C	1	1	916	1	poli_8sides 12_whiteLine3.jpg	MediumShort_b16_cut3_MS_stereo_44KHz.wav
2	89	2	2	1	C	2	1	1186	1	poli_8sides 11_whiteLine3.jpg	MediumShort_b16_cut3_MS_stereo_44KHz.wav
2	90	3	4	2	I	1	0	798	1	poli_8sides 13_whiteLine3.jpg	MediumShort_e16_cut1_stereo_44KHz.wav
2	91	4	4	2	I	1	0	1161	1	poli_8sides 6_whiteLine3.jpg	MediumShort_e16_cut1_stereo_44KHz.wav
2	92	1	1	1	C	1	0	1537	0	poli_8sides 12_whiteLine3.jpg	MediumShort_e22_cut1_stereo_44KHz.wav
2	93	2	1	0	C	2	0	830	0	poli_8sides 11_whiteLine3.jpg	MediumShort_e22_cut1_stereo_44KHz.wav
2	94	3	3	2	I	2	0	902	0	poli_8sides 13_whiteLine3.jpg	MediumShort_b10_cut1_MS_stereo_44KHz.wav
2	95	4	3	2	I	2	0	890	0	poli_8sides 6_whiteLine3.jpg	MediumShort_b10_cut1_MS_stereo_44KHz.wav
2	96	1	2	0	C	2	0	663	0	poli_8sides 12_whiteLine3.jpg	MediumShort_b16_cut3_MS_stereo_44KHz.wav
2	97	2	1	0	C	1	1	820	1	poli_8sides 11_whiteLine3.jpg	MediumShort_e22_cut1_stereo_44KHz.wav
2	98	1	1	1	C	1	0	520	0	poli_8sides 12_whiteLine3.jpg	MediumShort_e22_cut1_stereo_44KHz.wav
2	99	3	4	2	I	1	0	816	0	poli_8sides 13_whiteLine3.jpg	MediumShort_e16_cut1_stereo_44KHz.wav
2	100	4	4	2	I	1	0	991	1	poli_8sides 6_whiteLine3.jpg	MediumShort_e16_cut1_stereo_44KHz.wav
2	101	3	3	2	I	2	0	813	1	poli_8sides 13_whiteLine3.jpg	MediumShort_b10_cut1_MS_stereo_44KHz.wav
2	102	1	2	0	C	1	1	824	1	poli_8sides 12_whiteLine3.jpg	MediumShort_b16_cut3_MS_stereo_44KHz.wav
2	103	4	3	2	I	2	0	720	0	poli_8sides 6_whiteLine3.jpg	MediumShort_b10_cut1_MS_stereo_44KHz.wav
2	104	2	2	1	C	2	1	893	1	poli_8sides 11_whiteLine3.jpg	MediumShort_b16_cut3_MS_stereo_44KHz.wav
2	105	4	4	2	I	1	0	661	1	poli_8sides 6_whiteLine3.jpg	MediumShort_e16_cut1_stereo_44KHz.wav
2	106	2	1	0	C	1	1	1134	1	poli_8sides 11_whiteLine3.jpg	MediumShort_e22_cut1_stereo_44KHz.wav
2	107	3	4	2	I	1	0	689	0	poli_8sides 13_whiteLine3.jpg	MediumShort_e16_cut1_stereo_44KHz.wav
2	108	1	2	0	C	2	0	886	0	poli_8sides 12_whiteLine3.jpg	MediumShort_b16_cut3_MS_stereo_44KHz.wav
2	109	2	2	1	C	1	0	1241	0	poli_8sides 11_whiteLine3.jpg	MediumShort_b16_cut3_MS_stereo_44KHz.wav
2	110	1	1	1	C	1	0	806	0	poli_8sides 12_whiteLine3.jpg	MediumShort_e22_cut1_stereo_44KHz.wav
2	111	4	3	2	I	2	0	785	1	poli_8sides 6_whiteLine3.jpg	MediumShort_b10_cut1_MS_stereo_44KHz.wav
2	112	3	3	2	I	2	0	807	0	poli_8sides 13_whiteLine3.jpg	MediumShort_b10_cut1_MS_stereo_44KHz.wav
2	113	1	1	1	C	1	0	842	0	poli_8sides 12_whiteLine3.jpg	MediumShort_e22_cut1_stereo_44KHz.wav
2	114	3	4	2	I	2	0	312	0	poli_8sides 13_whiteLine3.jpg	MediumShort_e16_cut1_stereo_44KHz.wav
2	115	2	2	1	C	1	0	912	0	poli_8sides 11_whiteLine3.jpg	MediumShort_b16_cut3_MS_stereo_44KHz.wav
2	116	4	3	2	I	2	0	859	0	poli_8sides 6_whiteLine3.jpg	MediumShort_b10_cut1_MS_stereo_44KHz.wav
2	117	3	3	2	I	1	0	1057	1	poli_8sides 13_whiteLine3.jpg	MediumShort_b10_cut1_MS_stereo_44KHz.wav
2	118	2	1	0	C	2	0	933	0	poli_8sides 11_whiteLine3.jpg	MediumShort_e22_cut1_stereo_44KHz.wav
2	119	1	2	0	C	1	1	664	1	poli_8sides 12_whiteLine3.jpg	MediumShort_b16_cut3_MS_stereo_44KHz.wav
2	120	4	4	2	I	1	0	1123	1	poli_8sides 6_whiteLine3.jpg	MediumShort_e16_cut1_stereo_44KHz.wav
2	121	2	1	0	C	2	0	978	0	poli_8sides 11_whiteLine3.jpg	MediumShort_e22_cut1_stereo_44KHz.wav
2	122	3	4	2	I	1	0	908	0	poli_8sides 13_whiteLine3.jpg	MediumShort_e16_cut1_stereo_44KHz.wav
2	123	4	3	2	I	1	0	920	0	poli_8sides 6_whiteLine3.jpg	MediumShort_b10_cut1_MS_stereo_44KHz.wav
2	124	1	2	0	C	2	0	876	0	poli_8sides 12_whiteLine3.jpg	MediumShort_b16_cut3_MS_stereo_44KHz.wav
2	125	4	4	2	I	1	0	590	0	poli_8sides 6_whiteLine3.jpg	MediumShort_e16_cut1_stereo_44KHz.wav
2	126	2	2	1	C	1	0	836	0	poli_8sides 11_whiteLine3.jpg	MediumShort_b16_cut3_MS_stereo_44KHz.wav
2	127	1	1	1	C	2	1	218	1	poli_8sides 12_whiteLine3.jpg	MediumShort_e22_cut1_stereo_44KHz.wav
2	128	3	3	2	I	2	0	462	1	poli_8sides 13_whiteLine3.jpg	MediumShort_b10_cut1_MS_stereo_44KHz.wav
2	129	2	1	0	C	2	0	714	0	poli_8sides 11_whiteLine3.jpg	MediumShort_e22_cut1_stereo_44KHz.wav
2	130	3	3	2	I	1	0	360	0	poli_8sides 13_whiteLine3.jpg	MediumShort_b10_cut1_MS_stereo_44KHz.wav
2	131	1	1	1	C	2	1	437	1	poli_8sides 12_whiteLine3.jpg	MediumShort_e22_cut1_stereo_44KHz.wav
2	132	4	3	2	I	1	0	802	0	poli_8sides 6_whiteLine3.jpg	MediumShort_b10_cut1_MS_stereo_44KHz.wav
2	133	2	2	1	C	1	0	866	0	poli_8sides 11_whiteLine3.jpg	MediumShort_b16_cut3_MS_stereo_44KHz.wav
2	134	1	2	0	C	2	0	823	0	poli_8sides 12_whiteLine3.jpg	MediumShort_b16_cut3_MS_stereo_44KHz.wav
2	135	4	4	2	I	1	0	721	0	poli_8sides 6_whiteLine3.jpg	MediumShort_e16_cut1_stereo_44KHz.wav
2	136	3	4	2	I	1	0	632	0	poli_8sides 13_whiteLine3.jpg	MediumShort_e16_cut1_stereo_44KHz.wav
2	137	4	3	2	I	1	0	488	1	poli_8sides 6_whiteLine3.jpg	MediumShort_b10_cut1_MS_stereo_44KHz.wav
2	138	3	3	2	I	1	0	573	0	poli_8sides 13_whiteLine3.jpg	MediumShort_b10_cut1_MS_stereo_44KHz.wav
2	139	1	2	0	C	2	0	641	0	poli_8sides 12_whiteLine3.jpg	MediumShort_b16_cut3_MS_stereo_44KHz.wav
2	140	2	1	0	C	2	0	1076	0	poli_8sides 11_whiteLine3.jpg	MediumShort_e22_cut1_stereo_44KHz.wav
2	141	1	1	1	C	2	1	759	1	poli_8sides 12_whiteLine3.jpg	MediumShort_e22_cut1_stereo_44KHz.wav
2	142	3	4	2	I	1	0	800	1	poli_8sides 13_whiteLine3.jpg	MediumShort_e16_cut1_stereo_44KHz.wav
2	143	4	4	2	I	1	0	594	0	poli_8sides 6_whiteLine3.jpg	MediumShort_e16_cut1_stereo_44KHz.wav
2	144	2	2	1	C	2	1	985	1	poli_8sides 11_whiteLine3.jpg	MediumShort_b16_cut3_MS_stereo_44KHz.wav
2	145	3	4	2	I	1	0	598	1	poli_8sides 13_whiteLine3.jpg	MediumShort_e16_cut1_stereo_44KHz.wav
2	146	2	1	0	C	2	0	829	0	poli_8sides 11_whiteLine3.jpg	MediumShort_e22_cut1_stereo_44KHz.wav
2	147	4	4	2	I	1	0	698	0	poli_8sides 6_whiteLine3.jpg	MediumShort_e16_cut1_stereo_44KHz.wav
2	148	1	2	0	C	2	0	756	0	poli_8sides 12_whiteLine3.jpg	MediumShort_b16_cut3_MS_stereo_44KHz.wav
2	149	4	3	2	I	2	0	811	1	poli_8sides 6_whiteLine3.jpg	MediumShort_b10_cut1_MS_stereo_44KHz.wav
2	150	1	1	1	C	1	0	966	0	poli_8sides 12_whiteLine3.jpg	MediumShort_e22_cut1_stereo_44KHz.wav
2	151	3	3	2	I	2	0	823	1	poli_8sides 13_whiteLine3.jpg	MediumShort_b10_cut1_MS_stereo_44KHz.wav
2	152	2	2	1	C	1	0	1320	0	poli_8sides 11_whiteLine3.jpg	MediumShort_b16_cut3_MS_stereo_44KHz.wav
2	153	3	3	2	I	2	0	1077	0	poli_8sides 13_whiteLine3.jpg	MediumShort_b10_cut1_MS_stereo_44KHz.wav
2	154	4	4	2	I	1	0	822	1	poli_8sides 6_whiteLine3.jpg	MediumShort_e16_cut1_stereo_44KHz.wav
2	155	1	2	0	C	2	0	1054	0	poli_8sides 12_whiteLine3.jpg	MediumShort_b16_cut3_MS_stereo_44KHz.wav
2	156	2	2	1	C	0	0	0	0	poli_8sides 11_whiteLine3.jpg	MediumShort_b16_cut3_MS_stereo_44KHz.wav
2	157	4	3	2	I	1	0	936	0	poli_8sides 6_whiteLine3.jpg	MediumShort_b10_cut1_MS_stereo_44KHz.wav
2	158	2	1	0	C	2	0	302	0	poli_8sides 11_whiteLine3.jpg	MediumShort_e22_cut1_stereo_44KHz.wav
2	159	3	4	2	I	1	0	734	0	poli_8sides 13_whiteLine3.jpg	MediumShort_e16_cut1_stereo_44KHz.wav
2	160	1	1	1	C	2	1	1313	1	poli_8sides 12_whiteLine3.jpg	MediumShort_e22_cut1_stereo_44KHz.wav
2	161	4	3	2	I	2	0	945	1	poli_8sides 6_whiteLine3.jpg	MediumShort_b10_cut1_MS_stereo_44KHz.wav
2	162	3	4	2	I	1	0	697	0	poli_8sides 13_whiteLine3.jpg	MediumShort_e16_cut1_stereo_44KHz.wav
2	163	2	2	1	C	2	1	1028	1	poli_8sides 11_whiteLine3.jpg	MediumShort_b16_cut3_MS_stereo_44KHz.wav
2	164	1	1	1	C	1	0	901	0	poli_8sides 12_whiteLine3.jpg	MediumShort_e22_cut1_stereo_44KHz.wav
2	165	3	3	2	I	2	0	1206	1	poli_8sides 13_whiteLine3.jpg	MediumShort_b10_cut1_MS_stereo_44KHz.wav
2	166	1	2	0	C	2	0	1212	0	poli_8sides 12_whiteLine3.jpg	MediumShort_b16_cut3_MS_stereo_44KHz.wav
2	167	4	4	2	I	1	0	877	1	poli_8sides 6_whiteLine3.jpg	MediumShort_e16_cut1_stereo_44KHz.wav
2	168	2	1	0	C	2	0	1026	0	poli_8sides 11_whiteLine3.jpg	MediumShort_e22_cut1_stereo_44KHz.wav
2	169	1	1	1	C	1	0	1074	0	poli_8sides 12_whiteLine3.jpg	MediumShort_e22_cut1_stereo_44KHz.wav
2	170	4	4	2	I	1	0	933	0	poli_8sides 6_whiteLine3.jpg	MediumShort_e16_cut1_stereo_44KHz.wav
2	171	2	2	1	C	1	0	684	0	poli_8sides 11_whiteLine3.jpg	MediumShort_b16_cut3_MS_stereo_44KHz.wav
2	172	3	3	2	I	2	0	842	1	poli_8sides 13_whiteLine3.jpg	MediumShort_b10_cut1_MS_stereo_44KHz.wav
2	173	4	3	2	I	2	0	1452	0	poli_8sides 6_whiteLine3.jpg	MediumShort_b10_cut1_MS_stereo_44KHz.wav
2	174	1	2	0	C	1	1	1202	1	poli_8sides 12_whiteLine3.jpg	MediumShort_b16_cut3_MS_stereo_44KHz.wav
2	175	3	4	2	I	1	0	916	1	poli_8sides 13_whiteLine3.jpg	MediumShort_e16_cut1_stereo_44KHz.wav
2	176	2	1	0	C	2	0	944	0	poli_8sides 11_whiteLine3.jpg	MediumShort_e22_cut1_stereo_44KHz.wav
2	177	1	1	1	C	1	0	741	0	poli_8sides 12_whiteLine3.jpg	MediumShort_e22_cut1_stereo_44KHz.wav
2	178	2	2	1	C	1	0	940	0	poli_8sides 11_whiteLine3.jpg	MediumShort_b16_cut3_MS_stereo_44KHz.wav
2	179	3	4	2	I	1	0	1289	0	poli_8sides 13_whiteLine3.jpg	MediumShort_e16_cut1_stereo_44KHz.wav
2	180	4	4	2	I	1	0	872	1	poli_8sides 6_whiteLine3.jpg	MediumShort_e16_cut1_stereo_44KHz.wav
2	181	1	2	0	C	2	0	636	0	poli_8sides 12_whiteLine3.jpg	MediumShort_b16_cut3_MS_stereo_44KHz.wav
2	182	3	3	2	I	1	0	637	1	poli_8sides 13_whiteLine3.jpg	MediumShort_b10_cut1_MS_stereo_44KHz.wav
2	183	2	1	0	C	1	1	113	1	poli_8sides 11_whiteLine3.jpg	MediumShort_e22_cut1_stereo_44KHz.wav
2	184	4	3	2	I	1	0	792	1	poli_8sides 6_whiteLine3.jpg	MediumShort_b10_cut1_MS_stereo_44KHz.wav
2	185	2	2	1	C	1	0	303	0	poli_8sides 11_whiteLine3.jpg	MediumShort_b16_cut3_MS_stereo_44KHz.wav
2	186	3	3	2	I	2	0	498	1	poli_8sides 13_whiteLine3.jpg	MediumShort_b10_cut1_MS_stereo_44KHz.wav
2	187	4	3	2	I	2	0	310	1	poli_8sides 6_whiteLine3.jpg	MediumShort_b10_cut1_MS_stereo_44KHz.wav
2	188	1	1	1	C	2	1	275	1	poli_8sides 12_whiteLine3.jpg	MediumShort_e22_cut1_stereo_44KHz.wav
2	189	3	4	2	I	2	0	515	1	poli_8sides 13_whiteLine3.jpg	MediumShort_e16_cut1_stereo_44KHz.wav
2	190	4	4	2	I	1	0	940	0	poli_8sides 6_whiteLine3.jpg	MediumShort_e16_cut1_stereo_44KHz.wav
2	191	2	1	0	C	2	0	766	0	poli_8sides 11_whiteLine3.jpg	MediumShort_e22_cut1_stereo_44KHz.wav
2	192	1	2	0	C	1	1	817	1	poli_8sides 12_whiteLine3.jpg	MediumShort_b16_cut3_MS_stereo_44KHz.wav
2	193	3	3	2	I	2	0	463	0	poli_8sides 13_whiteLine3.jpg	MediumShort_b10_cut1_MS_stereo_44KHz.wav
2	194	4	4	2	I	1	0	934	0	poli_8sides 6_whiteLine3.jpg	MediumShort_e16_cut1_stereo_44KHz.wav
2	195	2	1	0	C	2	0	562	0	poli_8sides 11_whiteLine3.jpg	MediumShort_e22_cut1_stereo_44KHz.wav
2	196	1	1	1	C	1	0	419	0	poli_8sides 12_whiteLine3.jpg	MediumShort_e22_cut1_stereo_44KHz.wav
2	197	2	2	1	C	2	1	634	1	poli_8sides 11_whiteLine3.jpg	MediumShort_b16_cut3_MS_stereo_44KHz.wav
2	198	3	4	2	I	1	0	324	1	poli_8sides 13_whiteLine3.jpg	MediumShort_e16_cut1_stereo_44KHz.wav
2	199	4	3	2	I	2	0	219	1	poli_8sides 6_whiteLine3.jpg	MediumShort_b10_cut1_MS_stereo_44KHz.wav
2	200	1	2	0	C	1	1	303	1	poli_8sides 12_whiteLine3.jpg	MediumShort_b16_cut3_MS_stereo_44KHz.wav
3	1	1	1	1	C	2	1	1324	1	poli_8sides 18_whiteLine3.jpg	Short_b23_cut1_stereo_44KHz.wav
3	2	3	3	2	I	1	0	862	1	poli_8sides 5_whiteLine3.jpg	Short_b09_cut1_stereo_44KHz.wav
3	3	4	3	2	I	2	0	941	0	poli_8sides 15_whiteLine3.jpg	Short_b09_cut1_stereo_44KHz.wav
3	4	2	2	1	C	2	1	1167	1	poli_8sides 9_whiteLine3.jpg	Short_b20_cut1_stereo_44KHz.wav
3	5	3	4	2	I	2	0	660	0	poli_8sides 5_whiteLine3.jpg	Short_b22_cut1_stereo_44KHz.wav
3	6	2	1	0	C	1	1	843	1	poli_8sides 9_whiteLine3.jpg	Short_b23_cut1_stereo_44KHz.wav
3	7	1	2	0	C	2	0	1116	0	poli_8sides 18_whiteLine3.jpg	Short_b20_cut1_stereo_44KHz.wav
3	8	4	4	2	I	2	0	1308	0	poli_8sides 15_whiteLine3.jpg	Short_b22_cut1_stereo_44KHz.wav
3	9	2	1	0	C	1	1	910	1	poli_8sides 9_whiteLine3.jpg	Short_b23_cut1_stereo_44KHz.wav
3	10	1	1	1	C	1	0	672	0	poli_8sides 18_whiteLine3.jpg	Short_b23_cut1_stereo_44KHz.wav
3	11	3	4	2	I	1	0	890	0	poli_8sides 5_whiteLine3.jpg	Short_b22_cut1_stereo_44KHz.wav
3	12	4	3	2	I	1	0	581	1	poli_8sides 15_whiteLine3.jpg	Short_b09_cut1_stereo_44KHz.wav
3	13	3	3	2	I	1	0	1100	1	poli_8sides 5_whiteLine3.jpg	Short_b09_cut1_stereo_44KHz.wav
3	14	2	2	1	C	1	0	953	0	poli_8sides 9_whiteLine3.jpg	Short_b20_cut1_stereo_44KHz.wav
3	15	1	2	0	C	2	0	869	0	poli_8sides 18_whiteLine3.jpg	Short_b20_cut1_stereo_44KHz.wav
3	16	4	4	2	I	1	0	1155	1	poli_8sides 15_whiteLine3.jpg	Short_b22_cut1_stereo_44KHz.wav
3	17	3	3	2	I	1	0	1358	1	poli_8sides 5_whiteLine3.jpg	Short_b09_cut1_stereo_44KHz.wav
3	18	2	2	1	C	2	1	1164	1	poli_8sides 9_whiteLine3.jpg	Short_b20_cut1_stereo_44KHz.wav
3	19	1	1	1	C	1	0	1281	0	poli_8sides 18_whiteLine3.jpg	Short_b23_cut1_stereo_44KHz.wav
3	20	4	3	2	I	1	0	1127	1	poli_8sides 15_whiteLine3.jpg	Short_b09_cut1_stereo_44KHz.wav
3	21	2	1	0	C	2	0	720	0	poli_8sides 9_whiteLine3.jpg	Short_b23_cut1_stereo_44KHz.wav
3	22	4	4	2	I	1	0	1317	1	poli_8sides 15_whiteLine3.jpg	Short_b22_cut1_stereo_44KHz.wav
3	23	1	2	0	C	2	0	1034	0	poli_8sides 18_whiteLine3.jpg	Short_b20_cut1_stereo_44KHz.wav
3	24	3	4	2	I	1	0	1004	0	poli_8sides 5_whiteLine3.jpg	Short_b22_cut1_stereo_44KHz.wav
3	25	2	2	1	C	1	0	793	0	poli_8sides 9_whiteLine3.jpg	Short_b20_cut1_stereo_44KHz.wav
3	26	4	3	2	I	1	0	1384	1	poli_8sides 15_whiteLine3.jpg	Short_b09_cut1_stereo_44KHz.wav
3	27	1	2	0	C	1	1	1096	1	poli_8sides 18_whiteLine3.jpg	Short_b20_cut1_stereo_44KHz.wav
3	28	3	4	2	I	2	0	972	0	poli_8sides 5_whiteLine3.jpg	Short_b22_cut1_stereo_44KHz.wav
3	29	4	4	2	I	2	0	1281	0	poli_8sides 15_whiteLine3.jpg	Short_b22_cut1_stereo_44KHz.wav
3	30	1	1	1	C	2	1	1001	1	poli_8sides 18_whiteLine3.jpg	Short_b23_cut1_stereo_44KHz.wav
3	31	2	1	0	C	2	0	894	0	poli_8sides 9_whiteLine3.jpg	Short_b23_cut1_stereo_44KHz.wav
3	32	3	3	2	I	1	0	641	1	poli_8sides 5_whiteLine3.jpg	Short_b09_cut1_stereo_44KHz.wav
3	33	4	4	2	I	1	0	885	0	poli_8sides 15_whiteLine3.jpg	Short_b22_cut1_stereo_44KHz.wav
3	34	1	1	1	C	1	0	555	0	poli_8sides 18_whiteLine3.jpg	Short_b23_cut1_stereo_44KHz.wav
3	35	2	2	1	C	2	1	668	1	poli_8sides 9_whiteLine3.jpg	Short_b20_cut1_stereo_44KHz.wav
3	36	3	3	2	I	0	0	0	0	poli_8sides 5_whiteLine3.jpg	Short_b09_cut1_stereo_44KHz.wav
3	37	4	3	2	I	1	0	858	0	poli_8sides 15_whiteLine3.jpg	Short_b09_cut1_stereo_44KHz.wav
3	38	3	4	2	I	2	0	1228	1	poli_8sides 5_whiteLine3.jpg	Short_b22_cut1_stereo_44KHz.wav
3	39	1	2	0	C	2	0	654	0	poli_8sides 18_whiteLine3.jpg	Short_b20_cut1_stereo_44KHz.wav
3	40	2	1	0	C	2	0	1111	0	poli_8sides 9_whiteLine3.jpg	Short_b23_cut1_stereo_44KHz.wav
3	41	1	2	0	C	2	0	937	0	poli_8sides 18_whiteLine3.jpg	Short_b20_cut1_stereo_44KHz.wav
3	42	2	1	0	C	0	0	0	0	poli_8sides 9_whiteLine3.jpg	Short_b23_cut1_stereo_44KHz.wav
3	43	3	4	2	I	2	0	909	1	poli_8sides 5_whiteLine3.jpg	Short_b22_cut1_stereo_44KHz.wav
3	44	4	4	2	I	1	0	764	0	poli_8sides 15_whiteLine3.jpg	Short_b22_cut1_stereo_44KHz.wav
3	45	1	1	1	C	2	1	1291	1	poli_8sides 18_whiteLine3.jpg	Short_b23_cut1_stereo_44KHz.wav
3	46	2	2	1	C	2	1	964	1	poli_8sides 9_whiteLine3.jpg	Short_b20_cut1_stereo_44KHz.wav
3	47	4	3	2	I	2	0	1099	0	poli_8sides 15_whiteLine3.jpg	Short_b09_cut1_stereo_44KHz.wav
3	48	3	3	2	I	1	0	1432	1	poli_8sides 5_whiteLine3.jpg	Short_b09_cut1_stereo_44KHz.wav
3	49	4	4	2	I	2	0	911	0	poli_8sides 15_whiteLine3.jpg	Short_b22_cut1_stereo_44KHz.wav
3	50	1	1	1	C	2	1	1007	1	poli_8sides 18_whiteLine3.jpg	Short_b23_cut1_stereo_44KHz.wav
3	51	2	2	1	C	2	1	1310	1	poli_8sides 9_whiteLine3.jpg	Short_b20_cut1_stereo_44KHz.wav
3	52	3	3	2	I	2	0	1058	1	poli_8sides 5_whiteLine3.jpg	Short_b09_cut1_stereo_44KHz.wav
3	53	4	3	2	I	2	0	626	1	poli_8sides 15_whiteLine3.jpg	Short_b09_cut1_stereo_44KHz.wav
3	54	3	4	2	I	2	0	920	0	poli_8sides 5_whiteLine3.jpg	Short_b22_cut1_stereo_44KHz.wav
3	55	1	2	0	C	1	1	427	1	poli_8sides 18_whiteLine3.jpg	Short_b20_cut1_stereo_44KHz.wav
3	56	2	1	0	C	2	0	809	0	poli_8sides 9_whiteLine3.jpg	Short_b23_cut1_stereo_44KHz.wav
3	57	4	3	2	I	1	0	657	1	poli_8sides 15_whiteLine3.jpg	Short_b09_cut1_stereo_44KHz.wav
3	58	3	4	2	I	2	0	510	0	poli_8sides 5_whiteLine3.jpg	Short_b22_cut1_stereo_44KHz.wav
3	59	1	1	1	C	1	0	353	0	poli_8sides 18_whiteLine3.jpg	Short_b23_cut1_stereo_44KHz.wav
3	60	2	1	0	C	2	0	671	0	poli_8sides 9_whiteLine3.jpg	Short_b23_cut1_stereo_44KHz.wav
3	61	4	4	2	I	1	0	650	1	poli_8sides 15_whiteLine3.jpg	Short_b22_cut1_stereo_44KHz.wav
3	62	3	3	2	I	1	0	787	1	poli_8sides 5_whiteLine3.jpg	Short_b09_cut1_stereo_44KHz.wav
3	63	2	2	1	C	2	1	806	1	poli_8sides 9_whiteLine3.jpg	Short_b20_cut1_stereo_44KHz.wav
3	64	1	2	0	C	2	0	1417	0	poli_8sides 18_whiteLine3.jpg	Short_b20_cut1_stereo_44KHz.wav
3	65	4	3	2	I	1	0	893	0	poli_8sides 15_whiteLine3.jpg	Short_b09_cut1_stereo_44KHz.wav
3	66	3	4	2	I	2	0	1015	1	poli_8sides 5_whiteLine3.jpg	Short_b22_cut1_stereo_44KHz.wav
3	67	2	2	1	C	2	1	713	1	poli_8sides 9_whiteLine3.jpg	Short_b20_cut1_stereo_44KHz.wav
3	68	1	1	1	C	2	1	1028	1	poli_8sides 18_whiteLine3.jpg	Short_b23_cut1_stereo_44KHz.wav
3	69	3	3	2	I	2	0	1093	0	poli_8sides 5_whiteLine3.jpg	Short_b09_cut1_stereo_44KHz.wav
3	70	2	1	0	C	2	0	938	0	poli_8sides 9_whiteLine3.jpg	Short_b23_cut1_stereo_44KHz.wav
3	71	1	2	0	C	1	1	1075	1	poli_8sides 18_whiteLine3.jpg	Short_b20_cut1_stereo_44KHz.wav
3	72	4	4	2	I	1	0	773	0	poli_8sides 15_whiteLine3.jpg	Short_b22_cut1_stereo_44KHz.wav
3	73	2	2	1	C	1	0	1311	0	poli_8sides 9_whiteLine3.jpg	Short_b20_cut1_stereo_44KHz.wav
3	74	4	4	2	I	2	0	1461	0	poli_8sides 15_whiteLine3.jpg	Short_b22_cut1_stereo_44KHz.wav
3	75	3	4	2	I	2	0	964	1	poli_8sides 5_whiteLine3.jpg	Short_b22_cut1_stereo_44KHz.wav
3	76	1	1	1	C	2	1	1188	1	poli_8sides 18_whiteLine3.jpg	Short_b23_cut1_stereo_44KHz.wav
3	77	2	1	0	C	1	1	956	1	poli_8sides 9_whiteLine3.jpg	Short_b23_cut1_stereo_44KHz.wav
3	78	4	3	2	I	2	0	1032	1	poli_8sides 15_whiteLine3.jpg	Short_b09_cut1_stereo_44KHz.wav
3	79	1	2	0	C	1	1	876	1	poli_8sides 18_whiteLine3.jpg	Short_b20_cut1_stereo_44KHz.wav
3	80	3	3	2	I	1	0	1209	1	poli_8sides 5_whiteLine3.jpg	Short_b09_cut1_stereo_44KHz.wav
3	81	1	2	0	C	1	1	1069	1	poli_8sides 18_whiteLine3.jpg	Short_b20_cut1_stereo_44KHz.wav
3	82	2	2	1	C	2	1	1069	1	poli_8sides 9_whiteLine3.jpg	Short_b20_cut1_stereo_44KHz.wav
3	83	3	3	2	I	1	0	904	0	poli_8sides 5_whiteLine3.jpg	Short_b09_cut1_stereo_44KHz.wav
3	84	4	4	2	I	2	0	1485	1	poli_8sides 15_whiteLine3.jpg	Short_b22_cut1_stereo_44KHz.wav
3	85	3	4	2	I	2	0	877	0	poli_8sides 5_whiteLine3.jpg	Short_b22_cut1_stereo_44KHz.wav
3	86	2	1	0	C	1	1	1180	1	poli_8sides 9_whiteLine3.jpg	Short_b23_cut1_stereo_44KHz.wav
3	87	4	3	2	I	2	0	1150	0	poli_8sides 15_whiteLine3.jpg	Short_b09_cut1_stereo_44KHz.wav
3	88	1	1	1	C	1	0	1233	0	poli_8sides 18_whiteLine3.jpg	Short_b23_cut1_stereo_44KHz.wav
3	89	4	4	2	I	1	0	1122	0	poli_8sides 15_whiteLine3.jpg	Short_b22_cut1_stereo_44KHz.wav
3	90	2	1	0	C	1	1	951	1	poli_8sides 9_whiteLine3.jpg	Short_b23_cut1_stereo_44KHz.wav
3	91	3	4	2	I	2	0	1469	0	poli_8sides 5_whiteLine3.jpg	Short_b22_cut1_stereo_44KHz.wav
3	92	1	1	1	C	2	1	958	1	poli_8sides 18_whiteLine3.jpg	Short_b23_cut1_stereo_44KHz.wav
3	93	3	3	2	I	1	0	892	0	poli_8sides 5_whiteLine3.jpg	Short_b09_cut1_stereo_44KHz.wav
3	94	4	3	2	I	2	0	939	0	poli_8sides 15_whiteLine3.jpg	Short_b09_cut1_stereo_44KHz.wav
3	95	1	2	0	C	1	1	1133	1	poli_8sides 18_whiteLine3.jpg	Short_b20_cut1_stereo_44KHz.wav
3	96	2	2	1	C	1	0	1121	0	poli_8sides 9_whiteLine3.jpg	Short_b20_cut1_stereo_44KHz.wav
3	97	1	1	1	C	2	1	1230	1	poli_8sides 18_whiteLine3.jpg	Short_b23_cut1_stereo_44KHz.wav
3	98	3	4	2	I	1	0	1207	1	poli_8sides 5_whiteLine3.jpg	Short_b22_cut1_stereo_44KHz.wav
3	99	2	2	1	C	2	1	1040	1	poli_8sides 9_whiteLine3.jpg	Short_b20_cut1_stereo_44KHz.wav
3	100	4	4	2	I	1	0	970	1	poli_8sides 15_whiteLine3.jpg	Short_b22_cut1_stereo_44KHz.wav
3	101	2	1	0	C	1	1	1052	1	poli_8sides 9_whiteLine3.jpg	Short_b23_cut1_stereo_44KHz.wav
3	102	1	2	0	C	1	1	774	1	poli_8sides 18_whiteLine3.jpg	Short_b20_cut1_stereo_44KHz.wav
3	103	4	3	2	I	2	0	1404	1	poli_8sides 15_whiteLine3.jpg	Short_b09_cut1_stereo_44KHz.wav
3	104	3	3	2	I	1	0	1099	0	poli_8sides 5_whiteLine3.jpg	Short_b09_cut1_stereo_44KHz.wav
3	105	4	3	2	I	1	0	1077	1	poli_8sides 15_whiteLine3.jpg	Short_b09_cut1_stereo_44KHz.wav
3	106	2	2	1	C	2	1	1229	1	poli_8sides 9_whiteLine3.jpg	Short_b20_cut1_stereo_44KHz.wav
3	107	3	3	2	I	2	0	1129	1	poli_8sides 5_whiteLine3.jpg	Short_b09_cut1_stereo_44KHz.wav
3	108	1	1	1	C	2	1	1412	1	poli_8sides 18_whiteLine3.jpg	Short_b23_cut1_stereo_44KHz.wav
3	109	3	4	2	I	1	0	1540	1	poli_8sides 5_whiteLine3.jpg	Short_b22_cut1_stereo_44KHz.wav
3	110	4	4	2	I	2	0	729	1	poli_8sides 15_whiteLine3.jpg	Short_b22_cut1_stereo_44KHz.wav
3	111	2	1	0	C	1	1	1267	1	poli_8sides 9_whiteLine3.jpg	Short_b23_cut1_stereo_44KHz.wav
3	112	1	2	0	C	1	1	988	1	poli_8sides 18_whiteLine3.jpg	Short_b20_cut1_stereo_44KHz.wav
3	113	4	3	2	I	2	0	766	1	poli_8sides 15_whiteLine3.jpg	Short_b09_cut1_stereo_44KHz.wav
3	114	1	2	0	C	1	1	784	1	poli_8sides 18_whiteLine3.jpg	Short_b20_cut1_stereo_44KHz.wav
3	115	2	2	1	C	2	1	824	1	poli_8sides 9_whiteLine3.jpg	Short_b20_cut1_stereo_44KHz.wav
3	116	3	3	2	I	1	0	1852	0	poli_8sides 5_whiteLine3.jpg	Short_b09_cut1_stereo_44KHz.wav
3	117	2	1	0	C	1	1	886	1	poli_8sides 9_whiteLine3.jpg	Short_b23_cut1_stereo_44KHz.wav
3	118	3	4	2	I	2	0	1140	1	poli_8sides 5_whiteLine3.jpg	Short_b22_cut1_stereo_44KHz.wav
3	119	4	4	2	I	1	0	1122	1	poli_8sides 15_whiteLine3.jpg	Short_b22_cut1_stereo_44KHz.wav
3	120	1	1	1	C	2	1	771	1	poli_8sides 18_whiteLine3.jpg	Short_b23_cut1_stereo_44KHz.wav
3	121	4	4	2	I	2	0	1090	1	poli_8sides 15_whiteLine3.jpg	Short_b22_cut1_stereo_44KHz.wav
3	122	3	4	2	I	1	0	939	0	poli_8sides 5_whiteLine3.jpg	Short_b22_cut1_stereo_44KHz.wav
3	123	2	2	1	C	2	1	675	1	poli_8sides 9_whiteLine3.jpg	Short_b20_cut1_stereo_44KHz.wav
3	124	1	1	1	C	2	1	766	1	poli_8sides 18_whiteLine3.jpg	Short_b23_cut1_stereo_44KHz.wav
3	125	4	3	2	I	1	0	1099	1	poli_8sides 15_whiteLine3.jpg	Short_b09_cut1_stereo_44KHz.wav
3	126	3	3	2	I	2	0	743	1	poli_8sides 5_whiteLine3.jpg	Short_b09_cut1_stereo_44KHz.wav
3	127	2	1	0	C	2	0	805	0	poli_8sides 9_whiteLine3.jpg	Short_b23_cut1_stereo_44KHz.wav
3	128	1	2	0	C	1	1	1124	1	poli_8sides 18_whiteLine3.jpg	Short_b20_cut1_stereo_44KHz.wav
3	129	2	2	1	C	2	1	1083	1	poli_8sides 9_whiteLine3.jpg	Short_b20_cut1_stereo_44KHz.wav
3	130	3	3	2	I	1	0	1161	0	poli_8sides 5_whiteLine3.jpg	Short_b09_cut1_stereo_44KHz.wav
3	131	1	2	0	C	1	1	931	1	poli_8sides 18_whiteLine3.jpg	Short_b20_cut1_stereo_44KHz.wav
3	132	4	3	2	I	2	0	1421	1	poli_8sides 15_whiteLine3.jpg	Short_b09_cut1_stereo_44KHz.wav
3	133	2	1	0	C	2	0	887	0	poli_8sides 9_whiteLine3.jpg	Short_b23_cut1_stereo_44KHz.wav
3	134	3	4	2	I	1	0	1117	0	poli_8sides 5_whiteLine3.jpg	Short_b22_cut1_stereo_44KHz.wav
3	135	1	1	1	C	2	1	837	1	poli_8sides 18_whiteLine3.jpg	Short_b23_cut1_stereo_44KHz.wav
3	136	4	4	2	I	2	0	833	1	poli_8sides 15_whiteLine3.jpg	Short_b22_cut1_stereo_44KHz.wav
3	137	2	1	0	C	1	1	818	1	poli_8sides 9_whiteLine3.jpg	Short_b23_cut1_stereo_44KHz.wav
3	138	4	4	2	I	2	0	939	0	poli_8sides 15_whiteLine3.jpg	Short_b22_cut1_stereo_44KHz.wav
3	139	3	4	2	I	2	0	1209	0	poli_8sides 5_whiteLine3.jpg	Short_b22_cut1_stereo_44KHz.wav
3	140	1	2	0	C	1	1	1144	1	poli_8sides 18_whiteLine3.jpg	Short_b20_cut1_stereo_44KHz.wav
3	141	4	3	2	I	2	0	1409	0	poli_8sides 15_whiteLine3.jpg	Short_b09_cut1_stereo_44KHz.wav
3	142	3	3	2	I	2	0	1213	0	poli_8sides 5_whiteLine3.jpg	Short_b09_cut1_stereo_44KHz.wav
3	143	2	2	1	C	2	1	952	1	poli_8sides 9_whiteLine3.jpg	Short_b20_cut1_stereo_44KHz.wav
3	144	1	1	1	C	0	0	0	0	poli_8sides 18_whiteLine3.jpg	Short_b23_cut1_stereo_44KHz.wav
3	145	2	2	1	C	2	1	906	1	poli_8sides 9_whiteLine3.jpg	Short_b20_cut1_stereo_44KHz.wav
3	146	4	4	2	I	2	0	1703	0	poli_8sides 15_whiteLine3.jpg	Short_b22_cut1_stereo_44KHz.wav
3	147	1	2	0	C	1	1	1006	1	poli_8sides 18_whiteLine3.jpg	Short_b20_cut1_stereo_44KHz.wav
3	148	3	3	2	I	2	0	1030	1	poli_8sides 5_whiteLine3.jpg	Short_b09_cut1_stereo_44KHz.wav
3	149	2	1	0	C	1	1	978	1	poli_8sides 9_whiteLine3.jpg	Short_b23_cut1_stereo_44KHz.wav
3	150	1	1	1	C	2	1	1197	1	poli_8sides 18_whiteLine3.jpg	Short_b23_cut1_stereo_44KHz.wav
3	151	4	3	2	I	1	0	976	0	poli_8sides 15_whiteLine3.jpg	Short_b09_cut1_stereo_44KHz.wav
3	152	3	4	2	I	2	0	899	1	poli_8sides 5_whiteLine3.jpg	Short_b22_cut1_stereo_44KHz.wav
3	153	1	2	0	C	1	1	902	1	poli_8sides 18_whiteLine3.jpg	Short_b20_cut1_stereo_44KHz.wav
3	154	4	4	2	I	1	0	1221	1	poli_8sides 15_whiteLine3.jpg	Short_b22_cut1_stereo_44KHz.wav
3	155	2	2	1	C	2	1	910	1	poli_8sides 9_whiteLine3.jpg	Short_b20_cut1_stereo_44KHz.wav
3	156	3	3	2	I	1	0	852	0	poli_8sides 5_whiteLine3.jpg	Short_b09_cut1_stereo_44KHz.wav
3	157	2	1	0	C	2	0	282	0	poli_8sides 9_whiteLine3.jpg	Short_b23_cut1_stereo_44KHz.wav
3	158	4	3	2	I	1	0	1164	0	poli_8sides 15_whiteLine3.jpg	Short_b09_cut1_stereo_44KHz.wav
3	159	3	4	2	I	2	0	803	0	poli_8sides 5_whiteLine3.jpg	Short_b22_cut1_stereo_44KHz.wav
3	160	1	1	1	C	2	1	911	1	poli_8sides 18_whiteLine3.jpg	Short_b23_cut1_stereo_44KHz.wav
3	161	4	4	2	I	1	0	931	1	poli_8sides 15_whiteLine3.jpg	Short_b22_cut1_stereo_44KHz.wav
3	162	1	2	0	C	1	1	1099	1	poli_8sides 18_whiteLine3.jpg	Short_b20_cut1_stereo_44KHz.wav
3	163	3	4	2	I	2	0	879	1	poli_8sides 5_whiteLine3.jpg	Short_b22_cut1_stereo_44KHz.wav
3	164	2	1	0	C	1	1	526	1	poli_8sides 9_whiteLine3.jpg	Short_b23_cut1_stereo_44KHz.wav
3	165	1	1	1	C	2	1	724	1	poli_8sides 18_whiteLine3.jpg	Short_b23_cut1_stereo_44KHz.wav
3	166	3	3	2	I	2	0	645	0	poli_8sides 5_whiteLine3.jpg	Short_b09_cut1_stereo_44KHz.wav
3	167	2	2	1	C	2	1	724	1	poli_8sides 9_whiteLine3.jpg	Short_b20_cut1_stereo_44KHz.wav
3	168	4	3	2	I	1	0	779	0	poli_8sides 15_whiteLine3.jpg	Short_b09_cut1_stereo_44KHz.wav
3	169	2	2	1	C	2	1	854	1	poli_8sides 9_whiteLine3.jpg	Short_b20_cut1_stereo_44KHz.wav
3	170	4	4	2	I	2	0	872	1	poli_8sides 15_whiteLine3.jpg	Short_b22_cut1_stereo_44KHz.wav
3	171	1	2	0	C	1	1	884	1	poli_8sides 18_whiteLine3.jpg	Short_b20_cut1_stereo_44KHz.wav
3	172	3	3	2	I	2	0	706	1	poli_8sides 5_whiteLine3.jpg	Short_b09_cut1_stereo_44KHz.wav
3	173	4	3	2	I	1	0	665	0	poli_8sides 15_whiteLine3.jpg	Short_b09_cut1_stereo_44KHz.wav
3	174	1	1	1	C	2	1	888	1	poli_8sides 18_whiteLine3.jpg	Short_b23_cut1_stereo_44KHz.wav
3	175	3	4	2	I	2	0	759	1	poli_8sides 5_whiteLine3.jpg	Short_b22_cut1_stereo_44KHz.wav
3	176	2	1	0	C	1	1	747	1	poli_8sides 9_whiteLine3.jpg	Short_b23_cut1_stereo_44KHz.wav
3	177	1	2	0	C	1	1	927	1	poli_8sides 18_whiteLine3.jpg	Short_b20_cut1_stereo_44KHz.wav
3	178	3	4	2	I	1	0	1158	0	poli_8sides 5_whiteLine3.jpg	Short_b22_cut1_stereo_44KHz.wav
3	179	4	3	2	I	2	0	1982	0	poli_8sides 15_whiteLine3.jpg	Short_b09_cut1_stereo_44KHz.wav
3	180	2	2	1	C	2	1	824	1	poli_8sides 9_whiteLine3.jpg	Short_b20_cut1_stereo_44KHz.wav
3	181	4	4	2	I	1	0	869	0	poli_8sides 15_whiteLine3.jpg	Short_b22_cut1_stereo_44KHz.wav
3	182	1	1	1	C	2	1	971	1	poli_8sides 18_whiteLine3.jpg	Short_b23_cut1_stereo_44KHz.wav
3	183	2	1	0	C	2	0	1165	0	poli_8sides 9_whiteLine3.jpg	Short_b23_cut1_stereo_44KHz.wav
3	184	3	3	2	I	1	0	1018	1	poli_8sides 5_whiteLine3.jpg	Short_b09_cut1_stereo_44KHz.wav
3	185	4	4	2	I	2	0	1287	0	poli_8sides 15_whiteLine3.jpg	Short_b22_cut1_stereo_44KHz.wav
3	186	1	1	1	C	2	1	848	1	poli_8sides 18_whiteLine3.jpg	Short_b23_cut1_stereo_44KHz.wav
3	187	3	3	2	I	1	0	1090	0	poli_8sides 5_whiteLine3.jpg	Short_b09_cut1_stereo_44KHz.wav
3	188	2	2	1	C	2	1	740	1	poli_8sides 9_whiteLine3.jpg	Short_b20_cut1_stereo_44KHz.wav
3	189	1	2	0	C	2	0	1069	0	poli_8sides 18_whiteLine3.jpg	Short_b20_cut1_stereo_44KHz.wav
3	190	2	1	0	C	1	1	705	1	poli_8sides 9_whiteLine3.jpg	Short_b23_cut1_stereo_44KHz.wav
3	191	4	3	2	I	1	0	947	1	poli_8sides 15_whiteLine3.jpg	Short_b09_cut1_stereo_44KHz.wav
3	192	3	4	2	I	1	0	849	0	poli_8sides 5_whiteLine3.jpg	Short_b22_cut1_stereo_44KHz.wav
3	193	1	2	0	C	1	1	909	1	poli_8sides 18_whiteLine3.jpg	Short_b20_cut1_stereo_44KHz.wav
3	194	4	4	2	I	1	0	995	0	poli_8sides 15_whiteLine3.jpg	Short_b22_cut1_stereo_44KHz.wav
3	195	3	3	2	I	1	0	1080	1	poli_8sides 5_whiteLine3.jpg	Short_b09_cut1_stereo_44KHz.wav
3	196	2	1	0	C	1	1	1049	1	poli_8sides 9_whiteLine3.jpg	Short_b23_cut1_stereo_44KHz.wav
3	197	3	4	2	I	1	0	1184	0	poli_8sides 5_whiteLine3.jpg	Short_b22_cut1_stereo_44KHz.wav
3	198	1	1	1	C	2	1	742	1	poli_8sides 18_whiteLine3.jpg	Short_b23_cut1_stereo_44KHz.wav
3	199	2	2	1	C	2	1	1341	1	poli_8sides 9_whiteLine3.jpg	Short_b20_cut1_stereo_44KHz.wav
3	200	4	3	2	I	1	0	1535	1	poli_8sides 15_whiteLine3.jpg	Short_b09_cut1_stereo_44KHz.wav
4	1	2	1	0	C	2	0	1587	0	poli_8sides 2_whiteLine3.jpg	MediumLong_b10_cut2_L_stereo_44KHz.wav
4	2	4	3	2	I	1	0	1211	1	poli_8sides 4_whiteLine3.jpg	MediumLong_e04_stereo_44KHz.wav
4	3	1	1	1	C	1	0	966	0	poli_8sides 10_whiteLine3.jpg	MediumLong_b10_cut2_L_stereo_44KHz.wav
4	4	3	4	2	I	1	0	761	1	poli_8sides 3_whiteLine3.jpg	Medium_e01_cut1_stereo_44KHz.wav
4	5	1	2	0	C	1	1	963	1	poli_8sides 10_whiteLine3.jpg	MediumLong_e19_stereo_44KHz.wav
4	6	2	2	1	C	2	1	750	1	poli_8sides 2_whiteLine3.jpg	MediumLong_e19_stereo_44KHz.wav
4	7	4	4	2	I	2	0	1373	1	poli_8sides 4_whiteLine3.jpg	Medium_e01_cut1_stereo_44KHz.wav
4	8	3	3	2	I	2	0	1171	1	poli_8sides 3_whiteLine3.jpg	MediumLong_e04_stereo_44KHz.wav
4	9	2	2	1	C	1	0	1135	0	poli_8sides 2_whiteLine3.jpg	MediumLong_e19_stereo_44KHz.wav
4	10	3	4	2	I	1	0	1055	1	poli_8sides 3_whiteLine3.jpg	Medium_e01_cut1_stereo_44KHz.wav
4	11	1	2	0	C	1	1	956	1	poli_8sides 10_whiteLine3.jpg	MediumLong_e19_stereo_44KHz.wav
4	12	4	3	2	I	1	0	1129	0	poli_8sides 4_whiteLine3.jpg	MediumLong_e04_stereo_44KHz.wav
4	13	3	3	2	I	2	0	1253	0	poli_8sides 3_whiteLine3.jpg	MediumLong_e04_stereo_44KHz.wav
4	14	1	1	1	C	2	1	1173	1	poli_8sides 10_whiteLine3.jpg	MediumLong_b10_cut2_L_stereo_44KHz.wav
4	15	2	1	0	C	2	0	407	0	poli_8sides 2_whiteLine3.jpg	MediumLong_b10_cut2_L_stereo_44KHz.wav
4	16	4	4	2	I	1	0	794	0	poli_8sides 4_whiteLine3.jpg	Medium_e01_cut1_stereo_44KHz.wav
4	17	2	2	1	C	2	1	923	1	poli_8sides 2_whiteLine3.jpg	MediumLong_e19_stereo_44KHz.wav
4	18	3	3	2	I	2	0	1076	1	poli_8sides 3_whiteLine3.jpg	MediumLong_e04_stereo_44KHz.wav
4	19	1	1	1	C	2	1	1480	1	poli_8sides 10_whiteLine3.jpg	MediumLong_b10_cut2_L_stereo_44KHz.wav
4	20	4	3	2	I	1	0	903	0	poli_8sides 4_whiteLine3.jpg	MediumLong_e04_stereo_44KHz.wav
4	21	2	1	0	C	2	0	716	0	poli_8sides 2_whiteLine3.jpg	MediumLong_b10_cut2_L_stereo_44KHz.wav
4	22	3	4	2	I	1	0	951	0	poli_8sides 3_whiteLine3.jpg	Medium_e01_cut1_stereo_44KHz.wav
4	23	4	4	2	I	2	0	875	1	poli_8sides 4_whiteLine3.jpg	Medium_e01_cut1_stereo_44KHz.wav
4	24	1	2	0	C	1	1	1028	1	poli_8sides 10_whiteLine3.jpg	MediumLong_e19_stereo_44KHz.wav
4	25	2	2	1	C	2	1	886	1	poli_8sides 2_whiteLine3.jpg	MediumLong_e19_stereo_44KHz.wav
4	26	4	3	2	I	1	0	776	0	poli_8sides 4_whiteLine3.jpg	MediumLong_e04_stereo_44KHz.wav
4	27	3	4	2	I	2	0	769	0	poli_8sides 3_whiteLine3.jpg	Medium_e01_cut1_stereo_44KHz.wav
4	28	1	2	0	C	1	1	770	1	poli_8sides 10_whiteLine3.jpg	MediumLong_e19_stereo_44KHz.wav
4	29	3	3	2	I	2	0	843	0	poli_8sides 3_whiteLine3.jpg	MediumLong_e04_stereo_44KHz.wav
4	30	2	1	0	C	2	0	868	0	poli_8sides 2_whiteLine3.jpg	MediumLong_b10_cut2_L_stereo_44KHz.wav
4	31	4	4	2	I	2	0	1253	0	poli_8sides 4_whiteLine3.jpg	Medium_e01_cut1_stereo_44KHz.wav
4	32	1	1	1	C	2	1	796	1	poli_8sides 10_whiteLine3.jpg	MediumLong_b10_cut2_L_stereo_44KHz.wav
4	33	3	3	2	I	1	0	870	1	poli_8sides 3_whiteLine3.jpg	MediumLong_e04_stereo_44KHz.wav
4	34	2	1	0	C	1	1	739	1	poli_8sides 2_whiteLine3.jpg	MediumLong_b10_cut2_L_stereo_44KHz.wav
4	35	1	2	0	C	1	1	1208	1	poli_8sides 10_whiteLine3.jpg	MediumLong_e19_stereo_44KHz.wav
4	36	4	3	2	I	1	0	796	0	poli_8sides 4_whiteLine3.jpg	MediumLong_e04_stereo_44KHz.wav
4	37	3	4	2	I	1	0	1515	1	poli_8sides 3_whiteLine3.jpg	Medium_e01_cut1_stereo_44KHz.wav
4	38	2	2	1	C	2	1	747	1	poli_8sides 2_whiteLine3.jpg	MediumLong_e19_stereo_44KHz.wav
4	39	1	1	1	C	2	1	846	1	poli_8sides 10_whiteLine3.jpg	MediumLong_b10_cut2_L_stereo_44KHz.wav
4	40	4	4	2	I	1	0	1236	0	poli_8sides 4_whiteLine3.jpg	Medium_e01_cut1_stereo_44KHz.wav
4	41	1	1	1	C	1	0	308	0	poli_8sides 10_whiteLine3.jpg	MediumLong_b10_cut2_L_stereo_44KHz.wav
4	42	2	1	0	C	1	1	463	1	poli_8sides 2_whiteLine3.jpg	MediumLong_b10_cut2_L_stereo_44KHz.wav
4	43	3	3	2	I	2	0	707	0	poli_8sides 3_whiteLine3.jpg	MediumLong_e04_stereo_44KHz.wav
4	44	4	4	2	I	2	0	1227	0	poli_8sides 4_whiteLine3.jpg	Medium_e01_cut1_stereo_44KHz.wav
4	45	1	2	0	C	1	1	314	1	poli_8sides 10_whiteLine3.jpg	MediumLong_e19_stereo_44KHz.wav
4	46	2	2	1	C	1	0	289	0	poli_8sides 2_whiteLine3.jpg	MediumLong_e19_stereo_44KHz.wav
4	47	4	3	2	I	1	0	749	0	poli_8sides 4_whiteLine3.jpg	MediumLong_e04_stereo_44KHz.wav
4	48	3	4	2	I	2	0	917	1	poli_8sides 3_whiteLine3.jpg	Medium_e01_cut1_stereo_44KHz.wav
4	49	4	4	2	I	2	0	1110	1	poli_8sides 4_whiteLine3.jpg	Medium_e01_cut1_stereo_44KHz.wav
4	50	2	2	1	C	2	1	887	1	poli_8sides 2_whiteLine3.jpg	MediumLong_e19_stereo_44KHz.wav
4	51	3	4	2	I	2	0	790	0	poli_8sides 3_whiteLine3.jpg	Medium_e01_cut1_stereo_44KHz.wav
4	52	1	1	1	C	2	1	795	1	poli_8sides 10_whiteLine3.jpg	MediumLong_b10_cut2_L_stereo_44KHz.wav
4	53	3	3	2	I	1	0	911	1	poli_8sides 3_whiteLine3.jpg	MediumLong_e04_stereo_44KHz.wav
4	54	4	3	2	I	1	0	798	1	poli_8sides 4_whiteLine3.jpg	MediumLong_e04_stereo_44KHz.wav
4	55	2	1	0	C	2	0	746	0	poli_8sides 2_whiteLine3.jpg	MediumLong_b10_cut2_L_stereo_44KHz.wav
4	56	1	2	0	C	2	0	757	0	poli_8sides 10_whiteLine3.jpg	MediumLong_e19_stereo_44KHz.wav
4	57	3	3	2	I	2	0	1152	0	poli_8sides 3_whiteLine3.jpg	MediumLong_e04_stereo_44KHz.wav
4	58	2	2	1	C	1	0	809	0	poli_8sides 2_whiteLine3.jpg	MediumLong_e19_stereo_44KHz.wav
4	59	1	2	0	C	1	1	528	1	poli_8sides 10_whiteLine3.jpg	MediumLong_e19_stereo_44KHz.wav
4	60	4	4	2	I	2	0	815	1	poli_8sides 4_whiteLine3.jpg	Medium_e01_cut1_stereo_44KHz.wav
4	61	2	1	0	C	2	0	916	0	poli_8sides 2_whiteLine3.jpg	MediumLong_b10_cut2_L_stereo_44KHz.wav
4	62	3	4	2	I	2	0	577	0	poli_8sides 3_whiteLine3.jpg	Medium_e01_cut1_stereo_44KHz.wav
4	63	4	3	2	I	1	0	891	0	poli_8sides 4_whiteLine3.jpg	MediumLong_e04_stereo_44KHz.wav
4	64	1	1	1	C	2	1	1100	1	poli_8sides 10_whiteLine3.jpg	MediumLong_b10_cut2_L_stereo_44KHz.wav
4	65	4	3	2	I	1	0	683	1	poli_8sides 4_whiteLine3.jpg	MediumLong_e04_stereo_44KHz.wav
4	66	2	2	1	C	2	1	1291	1	poli_8sides 2_whiteLine3.jpg	MediumLong_e19_stereo_44KHz.wav
4	67	3	3	2	I	2	0	1078	1	poli_8sides 3_whiteLine3.jpg	MediumLong_e04_stereo_44KHz.wav
4	68	1	2	0	C	1	1	798	1	poli_8sides 10_whiteLine3.jpg	MediumLong_e19_stereo_44KHz.wav
4	69	4	4	2	I	2	0	685	0	poli_8sides 4_whiteLine3.jpg	Medium_e01_cut1_stereo_44KHz.wav
4	70	1	1	1	C	2	1	864	1	poli_8sides 10_whiteLine3.jpg	MediumLong_b10_cut2_L_stereo_44KHz.wav
4	71	2	1	0	C	2	0	764	0	poli_8sides 2_whiteLine3.jpg	MediumLong_b10_cut2_L_stereo_44KHz.wav
4	72	3	4	2	I	2	0	780	1	poli_8sides 3_whiteLine3.jpg	Medium_e01_cut1_stereo_44KHz.wav
4	73	1	1	1	C	1	0	1149	0	poli_8sides 10_whiteLine3.jpg	MediumLong_b10_cut2_L_stereo_44KHz.wav
4	74	4	3	2	I	1	0	867	1	poli_8sides 4_whiteLine3.jpg	MediumLong_e04_stereo_44KHz.wav
4	75	3	4	2	I	2	0	1152	1	poli_8sides 3_whiteLine3.jpg	Medium_e01_cut1_stereo_44KHz.wav
4	76	2	2	1	C	2	1	289	1	poli_8sides 2_whiteLine3.jpg	MediumLong_e19_stereo_44KHz.wav
4	77	3	3	2	I	2	0	1034	0	poli_8sides 3_whiteLine3.jpg	MediumLong_e04_stereo_44KHz.wav
4	78	2	1	0	C	2	0	1367	0	poli_8sides 2_whiteLine3.jpg	MediumLong_b10_cut2_L_stereo_44KHz.wav
4	79	4	4	2	I	2	0	795	1	poli_8sides 4_whiteLine3.jpg	Medium_e01_cut1_stereo_44KHz.wav
4	80	1	2	0	C	1	1	1660	1	poli_8sides 10_whiteLine3.jpg	MediumLong_e19_stereo_44KHz.wav
4	81	3	4	2	I	2	0	594	1	poli_8sides 3_whiteLine3.jpg	Medium_e01_cut1_stereo_44KHz.wav
4	82	4	3	2	I	2	0	772	1	poli_8sides 4_whiteLine3.jpg	MediumLong_e04_stereo_44KHz.wav
4	83	2	2	1	C	2	1	1300	1	poli_8sides 2_whiteLine3.jpg	MediumLong_e19_stereo_44KHz.wav
4	84	1	1	1	C	2	1	814	1	poli_8sides 10_whiteLine3.jpg	MediumLong_b10_cut2_L_stereo_44KHz.wav
4	85	4	4	2	I	2	0	686	0	poli_8sides 4_whiteLine3.jpg	Medium_e01_cut1_stereo_44KHz.wav
4	86	1	2	0	C	1	1	733	1	poli_8sides 10_whiteLine3.jpg	MediumLong_e19_stereo_44KHz.wav
4	87	3	3	2	I	1	0	718	1	poli_8sides 3_whiteLine3.jpg	MediumLong_e04_stereo_44KHz.wav
4	88	2	1	0	C	1	1	805	1	poli_8sides 2_whiteLine3.jpg	MediumLong_b10_cut2_L_stereo_44KHz.wav
4	89	3	4	2	I	2	0	484	0	poli_8sides 3_whiteLine3.jpg	Medium_e01_cut1_stereo_44KHz.wav
4	90	1	1	1	C	2	1	1048	1	poli_8sides 10_whiteLine3.jpg	MediumLong_b10_cut2_L_stereo_44KHz.wav
4	91	4	4	2	I	2	0	1268	1	poli_8sides 4_whiteLine3.jpg	Medium_e01_cut1_stereo_44KHz.wav
4	92	2	1	0	C	2	0	650	0	poli_8sides 2_whiteLine3.jpg	MediumLong_b10_cut2_L_stereo_44KHz.wav
4	93	4	3	2	I	1	0	873	1	poli_8sides 4_whiteLine3.jpg	MediumLong_e04_stereo_44KHz.wav
4	94	2	2	1	C	2	1	782	1	poli_8sides 2_whiteLine3.jpg	MediumLong_e19_stereo_44KHz.wav
4	95	3	3	2	I	1	0	932	1	poli_8sides 3_whiteLine3.jpg	MediumLong_e04_stereo_44KHz.wav
4	96	1	2	0	C	1	1	1409	1	poli_8sides 10_whiteLine3.jpg	MediumLong_e19_stereo_44KHz.wav
4	97	3	3	2	I	2	0	1023	0	poli_8sides 3_whiteLine3.jpg	MediumLong_e04_stereo_44KHz.wav
4	98	4	4	2	I	2	0	865	1	poli_8sides 4_whiteLine3.jpg	Medium_e01_cut1_stereo_44KHz.wav
4	99	1	2	0	C	1	1	840	1	poli_8sides 10_whiteLine3.jpg	MediumLong_e19_stereo_44KHz.wav
4	100	2	2	1	C	2	1	1185	1	poli_8sides 2_whiteLine3.jpg	MediumLong_e19_stereo_44KHz.wav
4	101	4	3	2	I	1	0	669	1	poli_8sides 4_whiteLine3.jpg	MediumLong_e04_stereo_44KHz.wav
4	102	3	4	2	I	2	0	744	0	poli_8sides 3_whiteLine3.jpg	Medium_e01_cut1_stereo_44KHz.wav
4	103	1	1	1	C	2	1	829	1	poli_8sides 10_whiteLine3.jpg	MediumLong_b10_cut2_L_stereo_44KHz.wav
4	104	2	1	0	C	2	0	742	0	poli_8sides 2_whiteLine3.jpg	MediumLong_b10_cut2_L_stereo_44KHz.wav
4	105	4	3	2	I	1	0	666	1	poli_8sides 4_whiteLine3.jpg	MediumLong_e04_stereo_44KHz.wav
4	106	2	1	0	C	1	1	741	1	poli_8sides 2_whiteLine3.jpg	MediumLong_b10_cut2_L_stereo_44KHz.wav
4	107	3	3	2	I	2	0	935	1	poli_8sides 3_whiteLine3.jpg	MediumLong_e04_stereo_44KHz.wav
4	108	1	2	0	C	1	1	696	1	poli_8sides 10_whiteLine3.jpg	MediumLong_e19_stereo_44KHz.wav
4	109	4	4	2	I	2	0	545	1	poli_8sides 4_whiteLine3.jpg	Medium_e01_cut1_stereo_44KHz.wav
4	110	1	1	1	C	2	1	914	1	poli_8sides 10_whiteLine3.jpg	MediumLong_b10_cut2_L_stereo_44KHz.wav
4	111	2	2	1	C	2	1	445	1	poli_8sides 2_whiteLine3.jpg	MediumLong_e19_stereo_44KHz.wav
4	112	3	4	2	I	1	0	698	1	poli_8sides 3_whiteLine3.jpg	Medium_e01_cut1_stereo_44KHz.wav
4	113	4	4	2	I	1	0	462	1	poli_8sides 4_whiteLine3.jpg	Medium_e01_cut1_stereo_44KHz.wav
4	114	3	4	2	I	1	0	408	0	poli_8sides 3_whiteLine3.jpg	Medium_e01_cut1_stereo_44KHz.wav
4	115	2	1	0	C	2	0	379	0	poli_8sides 2_whiteLine3.jpg	MediumLong_b10_cut2_L_stereo_44KHz.wav
4	116	1	2	0	C	1	1	619	1	poli_8sides 10_whiteLine3.jpg	MediumLong_e19_stereo_44KHz.wav
4	117	3	3	2	I	2	0	373	0	poli_8sides 3_whiteLine3.jpg	MediumLong_e04_stereo_44KHz.wav
4	118	1	1	1	C	2	1	739	1	poli_8sides 10_whiteLine3.jpg	MediumLong_b10_cut2_L_stereo_44KHz.wav
4	119	2	2	1	C	2	1	808	1	poli_8sides 2_whiteLine3.jpg	MediumLong_e19_stereo_44KHz.wav
4	120	4	3	2	I	1	0	600	0	poli_8sides 4_whiteLine3.jpg	MediumLong_e04_stereo_44KHz.wav
4	121	2	1	0	C	2	0	355	0	poli_8sides 2_whiteLine3.jpg	MediumLong_b10_cut2_L_stereo_44KHz.wav
4	122	1	1	1	C	1	0	323	0	poli_8sides 10_whiteLine3.jpg	MediumLong_b10_cut2_L_stereo_44KHz.wav
4	123	4	3	2	I	1	0	672	0	poli_8sides 4_whiteLine3.jpg	MediumLong_e04_stereo_44KHz.wav
4	124	3	4	2	I	1	0	1185	0	poli_8sides 3_whiteLine3.jpg	Medium_e01_cut1_stereo_44KHz.wav
4	125	2	2	1	C	2	1	188	1	poli_8sides 2_whiteLine3.jpg	MediumLong_e19_stereo_44KHz.wav
4	126	4	4	2	I	2	0	367	0	poli_8sides 4_whiteLine3.jpg	Medium_e01_cut1_stereo_44KHz.wav
4	127	3	3	2	I	1	0	566	1	poli_8sides 3_whiteLine3.jpg	MediumLong_e04_stereo_44KHz.wav
4	128	1	2	0	C	2	0	573	0	poli_8sides 10_whiteLine3.jpg	MediumLong_e19_stereo_44KHz.wav
4	129	2	1	0	C	1	1	927	1	poli_8sides 2_whiteLine3.jpg	MediumLong_b10_cut2_L_stereo_44KHz.wav
4	130	4	4	2	I	1	0	814	1	poli_8sides 4_whiteLine3.jpg	Medium_e01_cut1_stereo_44KHz.wav
4	131	3	3	2	I	2	0	779	1	poli_8sides 3_whiteLine3.jpg	MediumLong_e04_stereo_44KHz.wav
4	132	1	1	1	C	2	1	572	1	poli_8sides 10_whiteLine3.jpg	MediumLong_b10_cut2_L_stereo_44KHz.wav
4	133	2	2	1	C	2	1	536	1	poli_8sides 2_whiteLine3.jpg	MediumLong_e19_stereo_44KHz.wav
4	134	1	2	0	C	1	1	1256	1	poli_8sides 10_whiteLine3.jpg	MediumLong_e19_stereo_44KHz.wav
4	135	3	4	2	I	2	0	236	0	poli_8sides 3_whiteLine3.jpg	Medium_e01_cut1_stereo_44KHz.wav
4	136	4	3	2	I	1	0	231	1	poli_8sides 4_whiteLine3.jpg	MediumLong_e04_stereo_44KHz.wav
4	137	1	2	0	C	2	0	599	0	poli_8sides 10_whiteLine3.jpg	MediumLong_e19_stereo_44KHz.wav
4	138	3	4	2	I	1	0	419	1	poli_8sides 3_whiteLine3.jpg	Medium_e01_cut1_stereo_44KHz.wav
4	139	2	1	0	C	1	1	936	1	poli_8sides 2_whiteLine3.jpg	MediumLong_b10_cut2_L_stereo_44KHz.wav
4	140	4	3	2	I	2	0	528	0	poli_8sides 4_whiteLine3.jpg	MediumLong_e04_stereo_44KHz.wav
4	141	2	2	1	C	1	0	374	0	poli_8sides 2_whiteLine3.jpg	MediumLong_e19_stereo_44KHz.wav
4	142	1	1	1	C	2	1	241	1	poli_8sides 10_whiteLine3.jpg	MediumLong_b10_cut2_L_stereo_44KHz.wav
4	143	3	3	2	I	2	0	294	0	poli_8sides 3_whiteLine3.jpg	MediumLong_e04_stereo_44KHz.wav
4	144	4	4	2	I	1	0	295	1	poli_8sides 4_whiteLine3.jpg	Medium_e01_cut1_stereo_44KHz.wav
4	145	1	1	1	C	1	0	833	0	poli_8sides 10_whiteLine3.jpg	MediumLong_b10_cut2_L_stereo_44KHz.wav
4	146	4	3	2	I	2	0	288	0	poli_8sides 4_whiteLine3.jpg	MediumLong_e04_stereo_44KHz.wav
4	147	2	2	1	C	1	0	312	0	poli_8sides 2_whiteLine3.jpg	MediumLong_e19_stereo_44KHz.wav
4	148	3	3	2	I	2	0	269	0	poli_8sides 3_whiteLine3.jpg	MediumLong_e04_stereo_44KHz.wav
4	149	1	2	0	C	1	1	546	1	poli_8sides 10_whiteLine3.jpg	MediumLong_e19_stereo_44KHz.wav
4	150	3	4	2	I	1	0	544	0	poli_8sides 3_whiteLine3.jpg	Medium_e01_cut1_stereo_44KHz.wav
4	151	4	4	2	I	2	0	385	0	poli_8sides 4_whiteLine3.jpg	Medium_e01_cut1_stereo_44KHz.wav
4	152	2	1	0	C	1	1	506	1	poli_8sides 2_whiteLine3.jpg	MediumLong_b10_cut2_L_stereo_44KHz.wav
4	153	3	4	2	I	1	0	346	0	poli_8sides 3_whiteLine3.jpg	Medium_e01_cut1_stereo_44KHz.wav
4	154	4	4	2	I	1	0	653	1	poli_8sides 4_whiteLine3.jpg	Medium_e01_cut1_stereo_44KHz.wav
4	155	2	1	0	C	1	1	1060	1	poli_8sides 2_whiteLine3.jpg	MediumLong_b10_cut2_L_stereo_44KHz.wav
4	156	1	1	1	C	1	0	638	0	poli_8sides 10_whiteLine3.jpg	MediumLong_b10_cut2_L_stereo_44KHz.wav
4	157	4	3	2	I	2	0	1106	0	poli_8sides 4_whiteLine3.jpg	MediumLong_e04_stereo_44KHz.wav
4	158	3	3	2	I	1	0	503	1	poli_8sides 3_whiteLine3.jpg	MediumLong_e04_stereo_44KHz.wav
4	159	1	2	0	C	2	0	345	0	poli_8sides 10_whiteLine3.jpg	MediumLong_e19_stereo_44KHz.wav
4	160	2	2	1	C	1	0	509	0	poli_8sides 2_whiteLine3.jpg	MediumLong_e19_stereo_44KHz.wav
4	161	3	4	2	I	2	0	306	0	poli_8sides 3_whiteLine3.jpg	Medium_e01_cut1_stereo_44KHz.wav
4	162	4	3	2	I	1	0	533	0	poli_8sides 4_whiteLine3.jpg	MediumLong_e04_stereo_44KHz.wav
4	163	1	2	0	C	1	1	891	1	poli_8sides 10_whiteLine3.jpg	MediumLong_e19_stereo_44KHz.wav
4	164	2	1	0	C	2	0	603	0	poli_8sides 2_whiteLine3.jpg	MediumLong_b10_cut2_L_stereo_44KHz.wav
4	165	3	3	2	I	1	0	640	1	poli_8sides 3_whiteLine3.jpg	MediumLong_e04_stereo_44KHz.wav
4	166	1	1	1	C	1	0	1127	0	poli_8sides 10_whiteLine3.jpg	MediumLong_b10_cut2_L_stereo_44KHz.wav
4	167	4	4	2	I	2	0	883	0	poli_8sides 4_whiteLine3.jpg	Medium_e01_cut1_stereo_44KHz.wav
4	168	2	2	1	C	2	1	1073	1	poli_8sides 2_whiteLine3.jpg	MediumLong_e19_stereo_44KHz.wav
4	169	4	3	2	I	1	0	762	1	poli_8sides 4_whiteLine3.jpg	MediumLong_e04_stereo_44KHz.wav
4	170	1	2	0	C	2	0	723	0	poli_8sides 10_whiteLine3.jpg	MediumLong_e19_stereo_44KHz.wav
4	171	2	2	1	C	1	0	393	0	poli_8sides 2_whiteLine3.jpg	MediumLong_e19_stereo_44KHz.wav
4	172	3	4	2	I	1	0	419	0	poli_8sides 3_whiteLine3.jpg	Medium_e01_cut1_stereo_44KHz.wav
4	173	1	1	1	C	2	1	1193	1	poli_8sides 10_whiteLine3.jpg	MediumLong_b10_cut2_L_stereo_44KHz.wav
4	174	4	4	2	I	1	0	973	0	poli_8sides 4_whiteLine3.jpg	Medium_e01_cut1_stereo_44KHz.wav
4	175	2	1	0	C	2	0	749	0	poli_8sides 2_whiteLine3.jpg	MediumLong_b10_cut2_L_stereo_44KHz.wav
4	176	3	3	2	I	1	0	822	0	poli_8sides 3_whiteLine3.jpg	MediumLong_e04_stereo_44KHz.wav
4	177	2	1	0	C	2	0	1369	0	poli_8sides 2_whiteLine3.jpg	MediumLong_b10_cut2_L_stereo_44KHz.wav
4	178	1	1	1	C	2	1	686	1	poli_8sides 10_whiteLine3.jpg	MediumLong_b10_cut2_L_stereo_44KHz.wav
4	179	3	4	2	I	1	0	938	1	poli_8sides 3_whiteLine3.jpg	Medium_e01_cut1_stereo_44KHz.wav
4	180	4	4	2	I	1	0	1008	0	poli_8sides 4_whiteLine3.jpg	Medium_e01_cut1_stereo_44KHz.wav
4	181	1	2	0	C	1	1	965	1	poli_8sides 10_whiteLine3.jpg	MediumLong_e19_stereo_44KHz.wav
4	182	4	3	2	I	1	0	690	1	poli_8sides 4_whiteLine3.jpg	MediumLong_e04_stereo_44KHz.wav
4	183	2	2	1	C	2	1	884	1	poli_8sides 2_whiteLine3.jpg	MediumLong_e19_stereo_44KHz.wav
4	184	3	3	2	I	1	0	889	1	poli_8sides 3_whiteLine3.jpg	MediumLong_e04_stereo_44KHz.wav
4	185	1	1	1	C	2	1	1643	1	poli_8sides 10_whiteLine3.jpg	MediumLong_b10_cut2_L_stereo_44KHz.wav
4	186	2	2	1	C	2	1	871	1	poli_8sides 2_whiteLine3.jpg	MediumLong_e19_stereo_44KHz.wav
4	187	3	3	2	I	1	0	887	1	poli_8sides 3_whiteLine3.jpg	MediumLong_e04_stereo_44KHz.wav
4	188	4	4	2	I	2	0	821	0	poli_8sides 4_whiteLine3.jpg	Medium_e01_cut1_stereo_44KHz.wav
4	189	2	1	0	C	1	1	1223	1	poli_8sides 2_whiteLine3.jpg	MediumLong_b10_cut2_L_stereo_44KHz.wav
4	190	3	4	2	I	1	0	1136	0	poli_8sides 3_whiteLine3.jpg	Medium_e01_cut1_stereo_44KHz.wav
4	191	1	2	0	C	1	1	1071	1	poli_8sides 10_whiteLine3.jpg	MediumLong_e19_stereo_44KHz.wav
4	192	4	3	2	I	1	0	868	1	poli_8sides 4_whiteLine3.jpg	MediumLong_e04_stereo_44KHz.wav
4	193	1	1	1	C	2	1	814	1	poli_8sides 10_whiteLine3.jpg	MediumLong_b10_cut2_L_stereo_44KHz.wav
4	194	3	3	2	I	1	0	791	0	poli_8sides 3_whiteLine3.jpg	MediumLong_e04_stereo_44KHz.wav
4	195	2	2	1	C	2	1	388	1	poli_8sides 2_whiteLine3.jpg	MediumLong_e19_stereo_44KHz.wav
4	196	4	4	2	I	1	0	961	0	poli_8sides 4_whiteLine3.jpg	Medium_e01_cut1_stereo_44KHz.wav
4	197	2	1	0	C	1	1	1516	1	poli_8sides 2_whiteLine3.jpg	MediumLong_b10_cut2_L_stereo_44KHz.wav
4	198	3	4	2	I	1	0	791	1	poli_8sides 3_whiteLine3.jpg	Medium_e01_cut1_stereo_44KHz.wav
4	199	4	3	2	I	1	0	816	1	poli_8sides 4_whiteLine3.jpg	MediumLong_e04_stereo_44KHz.wav
4	200	1	2	0	C	1	1	722	1	poli_8sides 10_whiteLine3.jpg	MediumLong_e19_stereo_44KHz.wav
