block	trial	Vstim	Astim	match	C/I	resp	result	RT	fb	V-file	A-file
RL

0	1	2	3	1	C	0	0	0	0	Ⴞ	cut_g_stereo_44KHz.wav
0	2	1	1	1	C	1	1	908	1	Ⴢ	cut_eeuw_stereo_44KHz.wav
0	3	1	2	0	C	1	0	692	0	Ⴢ	cut_oo_stereo_44KHz.wav
0	4	2	4	0	C	1	0	1054	0	Ⴞ	cut_ee_stereo_44KHz.wav
0	5	1	1	1	C	2	0	1018	0	Ⴢ	cut_eeuw_stereo_44KHz.wav
0	6	1	2	0	C	2	1	1233	1	Ⴢ	cut_oo_stereo_44KHz.wav
0	7	2	4	0	C	2	1	617	1	Ⴞ	cut_ee_stereo_44KHz.wav
0	8	2	3	1	C	1	1	876	1	Ⴞ	cut_g_stereo_44KHz.wav
0	9	1	1	1	C	2	0	966	0	Ⴢ	cut_eeuw_stereo_44KHz.wav
0	10	1	2	0	C	2	1	1045	1	Ⴢ	cut_oo_stereo_44KHz.wav
0	11	2	3	1	C	1	1	812	1	Ⴞ	cut_g_stereo_44KHz.wav
0	12	2	4	0	C	1	0	1137	0	Ⴞ	cut_ee_stereo_44KHz.wav
0	13	2	3	1	C	2	0	1501	0	Ⴞ	cut_g_stereo_44KHz.wav
0	14	1	2	0	C	2	1	923	1	Ⴢ	cut_oo_stereo_44KHz.wav
0	15	1	1	1	C	1	1	1003	1	Ⴢ	cut_eeuw_stereo_44KHz.wav
0	16	2	4	0	C	2	1	1085	1	Ⴞ	cut_ee_stereo_44KHz.wav
0	17	2	3	1	C	1	1	685	1	Ⴞ	cut_g_stereo_44KHz.wav
0	18	1	2	0	C	2	1	822	1	Ⴢ	cut_oo_stereo_44KHz.wav
0	19	2	4	0	C	2	1	887	1	Ⴞ	cut_ee_stereo_44KHz.wav
0	20	1	1	1	C	1	1	758	1	Ⴢ	cut_eeuw_stereo_44KHz.wav
0	21	1	2	0	C	2	1	862	1	Ⴢ	cut_oo_stereo_44KHz.wav
0	22	1	1	1	C	1	1	852	1	Ⴢ	cut_eeuw_stereo_44KHz.wav
0	23	2	4	0	C	2	1	1131	1	Ⴞ	cut_ee_stereo_44KHz.wav
0	24	2	3	1	C	1	1	809	1	Ⴞ	cut_g_stereo_44KHz.wav
0	25	1	1	1	C	1	1	1327	1	Ⴢ	cut_eeuw_stereo_44KHz.wav
0	26	2	4	0	C	2	1	1161	1	Ⴞ	cut_ee_stereo_44KHz.wav
0	27	1	2	0	C	2	1	842	1	Ⴢ	cut_oo_stereo_44KHz.wav
0	28	2	3	1	C	1	1	1134	1	Ⴞ	cut_g_stereo_44KHz.wav
0	29	1	1	1	C	1	1	1252	1	Ⴢ	cut_eeuw_stereo_44KHz.wav
0	30	2	4	0	C	2	1	925	1	Ⴞ	cut_ee_stereo_44KHz.wav
avg_resp = 954
1	1	1	1	1	C	2	0	1072	0	Ⴖ	cut_ui_stereo_44KHz.wav
1	2	2	1	0	C	2	1	730	1	Ⴏ	cut_ui_stereo_44KHz.wav
1	3	4	3	2	I	2	0	891	0	Ⴔ	cut_f_stereo_44KHz.wav
1	4	3	4	2	I	2	0	812	0	Ⴐ	cut_oei_stereo_44KHz.wav
1	5	1	2	0	C	2	1	950	1	Ⴖ	cut_s_stereo_44KHz.wav
1	6	3	3	2	I	2	0	1030	1	Ⴐ	cut_f_stereo_44KHz.wav
1	7	4	4	2	I	2	0	894	0	Ⴔ	cut_oei_stereo_44KHz.wav
1	8	2	2	1	C	1	1	1053	1	Ⴏ	cut_s_stereo_44KHz.wav
1	9	4	4	2	I	2	0	953	1	Ⴔ	cut_oei_stereo_44KHz.wav
1	10	2	1	0	C	2	1	1013	1	Ⴏ	cut_ui_stereo_44KHz.wav
1	11	3	4	2	I	1	0	958	0	Ⴐ	cut_oei_stereo_44KHz.wav
1	12	1	1	1	C	2	0	811	0	Ⴖ	cut_ui_stereo_44KHz.wav
1	13	2	2	1	C	1	1	896	1	Ⴏ	cut_s_stereo_44KHz.wav
1	14	1	2	0	C	1	0	1141	0	Ⴖ	cut_s_stereo_44KHz.wav
1	15	4	3	2	I	1	0	1023	1	Ⴔ	cut_f_stereo_44KHz.wav
1	16	3	3	2	I	2	0	1023	0	Ⴐ	cut_f_stereo_44KHz.wav
1	17	2	2	1	C	1	1	1314	1	Ⴏ	cut_s_stereo_44KHz.wav
1	18	4	3	2	I	2	0	816	1	Ⴔ	cut_f_stereo_44KHz.wav
1	19	1	1	1	C	1	1	852	1	Ⴖ	cut_ui_stereo_44KHz.wav
1	20	3	3	2	I	2	0	834	0	Ⴐ	cut_f_stereo_44KHz.wav
1	21	1	2	0	C	2	1	1136	1	Ⴖ	cut_s_stereo_44KHz.wav
1	22	2	1	0	C	2	1	926	1	Ⴏ	cut_ui_stereo_44KHz.wav
1	23	4	4	2	I	1	0	1071	1	Ⴔ	cut_oei_stereo_44KHz.wav
1	24	3	4	2	I	2	0	987	1	Ⴐ	cut_oei_stereo_44KHz.wav
1	25	1	1	1	C	1	1	819	1	Ⴖ	cut_ui_stereo_44KHz.wav
1	26	3	3	2	I	1	0	952	0	Ⴐ	cut_f_stereo_44KHz.wav
1	27	2	1	0	C	2	1	889	1	Ⴏ	cut_ui_stereo_44KHz.wav
1	28	4	4	2	I	1	0	935	0	Ⴔ	cut_oei_stereo_44KHz.wav
1	29	3	4	2	I	1	0	914	0	Ⴐ	cut_oei_stereo_44KHz.wav
1	30	4	3	2	I	2	0	1066	0	Ⴔ	cut_f_stereo_44KHz.wav
1	31	2	2	1	C	1	1	1013	1	Ⴏ	cut_s_stereo_44KHz.wav
1	32	1	2	0	C	2	1	1072	1	Ⴖ	cut_s_stereo_44KHz.wav
1	33	3	4	2	I	1	0	882	1	Ⴐ	cut_oei_stereo_44KHz.wav
1	34	4	3	2	I	2	0	1352	0	Ⴔ	cut_f_stereo_44KHz.wav
1	35	1	1	1	C	1	1	1238	1	Ⴖ	cut_ui_stereo_44KHz.wav
1	36	2	2	1	C	1	1	1066	1	Ⴏ	cut_s_stereo_44KHz.wav
1	37	1	2	0	C	2	1	973	1	Ⴖ	cut_s_stereo_44KHz.wav
1	38	2	1	0	C	2	1	823	1	Ⴏ	cut_ui_stereo_44KHz.wav
1	39	3	3	2	I	1	0	1075	1	Ⴐ	cut_f_stereo_44KHz.wav
1	40	4	4	2	I	2	0	580	0	Ⴔ	cut_oei_stereo_44KHz.wav
1	41	1	2	0	C	2	1	980	1	Ⴖ	cut_s_stereo_44KHz.wav
1	42	2	2	1	C	1	1	858	1	Ⴏ	cut_s_stereo_44KHz.wav
1	43	3	3	2	I	1	0	800	0	Ⴐ	cut_f_stereo_44KHz.wav
1	44	4	4	2	I	2	0	697	0	Ⴔ	cut_oei_stereo_44KHz.wav
1	45	3	4	2	I	2	0	663	1	Ⴐ	cut_oei_stereo_44KHz.wav
1	46	1	1	1	C	1	1	1035	1	Ⴖ	cut_ui_stereo_44KHz.wav
1	47	2	1	0	C	2	1	941	1	Ⴏ	cut_ui_stereo_44KHz.wav
1	48	4	3	2	I	2	0	1015	0	Ⴔ	cut_f_stereo_44KHz.wav
1	49	1	2	0	C	2	1	930	1	Ⴖ	cut_s_stereo_44KHz.wav
1	50	3	4	2	I	1	0	1102	1	Ⴐ	cut_oei_stereo_44KHz.wav
1	51	4	4	2	I	2	0	486	0	Ⴔ	cut_oei_stereo_44KHz.wav
1	52	2	2	1	C	1	1	841	1	Ⴏ	cut_s_stereo_44KHz.wav
1	53	4	3	2	I	1	0	1278	1	Ⴔ	cut_f_stereo_44KHz.wav
1	54	3	3	2	I	2	0	880	1	Ⴐ	cut_f_stereo_44KHz.wav
1	55	2	1	0	C	2	1	776	1	Ⴏ	cut_ui_stereo_44KHz.wav
1	56	1	1	1	C	1	1	737	1	Ⴖ	cut_ui_stereo_44KHz.wav
1	57	3	4	2	I	1	0	1483	0	Ⴐ	cut_oei_stereo_44KHz.wav
1	58	1	2	0	C	2	1	953	1	Ⴖ	cut_s_stereo_44KHz.wav
1	59	2	2	1	C	1	1	1359	1	Ⴏ	cut_s_stereo_44KHz.wav
1	60	4	3	2	I	2	0	804	1	Ⴔ	cut_f_stereo_44KHz.wav
1	61	3	3	2	I	2	0	1004	0	Ⴐ	cut_f_stereo_44KHz.wav
1	62	2	1	0	C	2	1	881	1	Ⴏ	cut_ui_stereo_44KHz.wav
1	63	4	4	2	I	1	0	830	1	Ⴔ	cut_oei_stereo_44KHz.wav
1	64	1	1	1	C	1	1	868	1	Ⴖ	cut_ui_stereo_44KHz.wav
1	65	4	3	2	I	1	0	1422	0	Ⴔ	cut_f_stereo_44KHz.wav
1	66	3	3	2	I	1	0	956	1	Ⴐ	cut_f_stereo_44KHz.wav
1	67	1	2	0	C	2	1	1013	1	Ⴖ	cut_s_stereo_44KHz.wav
1	68	2	1	0	C	2	1	778	1	Ⴏ	cut_ui_stereo_44KHz.wav
1	69	4	4	2	I	1	0	1639	0	Ⴔ	cut_oei_stereo_44KHz.wav
1	70	3	4	2	I	1	0	836	1	Ⴐ	cut_oei_stereo_44KHz.wav
1	71	2	2	1	C	1	1	1076	1	Ⴏ	cut_s_stereo_44KHz.wav
1	72	1	1	1	C	1	1	745	1	Ⴖ	cut_ui_stereo_44KHz.wav
1	73	4	4	2	I	2	0	1108	0	Ⴔ	cut_oei_stereo_44KHz.wav
1	74	1	1	1	C	1	1	1085	1	Ⴖ	cut_ui_stereo_44KHz.wav
1	75	3	3	2	I	1	0	1053	0	Ⴐ	cut_f_stereo_44KHz.wav
1	76	2	2	1	C	1	1	1341	1	Ⴏ	cut_s_stereo_44KHz.wav
1	77	3	4	2	I	1	0	942	0	Ⴐ	cut_oei_stereo_44KHz.wav
1	78	4	3	2	I	2	0	1039	1	Ⴔ	cut_f_stereo_44KHz.wav
1	79	2	1	0	C	2	1	977	1	Ⴏ	cut_ui_stereo_44KHz.wav
1	80	1	2	0	C	1	0	809	0	Ⴖ	cut_s_stereo_44KHz.wav
1	81	4	3	2	I	2	0	986	0	Ⴔ	cut_f_stereo_44KHz.wav
1	82	2	2	1	C	1	1	973	1	Ⴏ	cut_s_stereo_44KHz.wav
1	83	1	1	1	C	1	1	952	1	Ⴖ	cut_ui_stereo_44KHz.wav
1	84	3	4	2	I	1	0	964	0	Ⴐ	cut_oei_stereo_44KHz.wav
1	85	1	2	0	C	2	1	931	1	Ⴖ	cut_s_stereo_44KHz.wav
1	86	3	3	2	I	2	0	1147	1	Ⴐ	cut_f_stereo_44KHz.wav
1	87	4	4	2	I	2	0	924	1	Ⴔ	cut_oei_stereo_44KHz.wav
1	88	2	1	0	C	2	1	812	1	Ⴏ	cut_ui_stereo_44KHz.wav
1	89	3	3	2	I	1	0	1066	1	Ⴐ	cut_f_stereo_44KHz.wav
1	90	1	2	0	C	2	1	1004	1	Ⴖ	cut_s_stereo_44KHz.wav
1	91	2	1	0	C	2	1	893	1	Ⴏ	cut_ui_stereo_44KHz.wav
1	92	4	3	2	I	2	0	994	1	Ⴔ	cut_f_stereo_44KHz.wav
1	93	1	1	1	C	1	1	996	1	Ⴖ	cut_ui_stereo_44KHz.wav
1	94	2	2	1	C	1	1	1230	1	Ⴏ	cut_s_stereo_44KHz.wav
1	95	3	4	2	I	2	0	753	0	Ⴐ	cut_oei_stereo_44KHz.wav
1	96	4	4	2	I	2	0	800	0	Ⴔ	cut_oei_stereo_44KHz.wav
1	97	3	3	2	I	2	0	994	1	Ⴐ	cut_f_stereo_44KHz.wav
1	98	1	2	0	C	1	0	868	0	Ⴖ	cut_s_stereo_44KHz.wav
1	99	2	2	1	C	1	1	737	1	Ⴏ	cut_s_stereo_44KHz.wav
1	100	4	3	2	I	2	0	773	0	Ⴔ	cut_f_stereo_44KHz.wav
1	101	1	1	1	C	1	1	1320	1	Ⴖ	cut_ui_stereo_44KHz.wav
1	102	4	4	2	I	1	0	889	0	Ⴔ	cut_oei_stereo_44KHz.wav
1	103	3	4	2	I	1	0	1167	0	Ⴐ	cut_oei_stereo_44KHz.wav
1	104	2	1	0	C	2	1	978	1	Ⴏ	cut_ui_stereo_44KHz.wav
1	105	1	2	0	C	2	1	1003	1	Ⴖ	cut_s_stereo_44KHz.wav
1	106	2	1	0	C	2	1	664	1	Ⴏ	cut_ui_stereo_44KHz.wav
1	107	3	4	2	I	1	0	961	0	Ⴐ	cut_oei_stereo_44KHz.wav
1	108	4	3	2	I	2	0	851	1	Ⴔ	cut_f_stereo_44KHz.wav
1	109	3	3	2	I	1	0	1031	0	Ⴐ	cut_f_stereo_44KHz.wav
1	110	1	1	1	C	1	1	1018	1	Ⴖ	cut_ui_stereo_44KHz.wav
1	111	4	4	2	I	2	0	1004	0	Ⴔ	cut_oei_stereo_44KHz.wav
1	112	2	2	1	C	1	1	880	1	Ⴏ	cut_s_stereo_44KHz.wav
1	113	1	1	1	C	1	1	901	1	Ⴖ	cut_ui_stereo_44KHz.wav
1	114	3	4	2	I	2	0	1023	0	Ⴐ	cut_oei_stereo_44KHz.wav
1	115	4	3	2	I	1	0	1313	1	Ⴔ	cut_f_stereo_44KHz.wav
1	116	2	2	1	C	1	1	1030	1	Ⴏ	cut_s_stereo_44KHz.wav
1	117	3	3	2	I	2	0	1132	0	Ⴐ	cut_f_stereo_44KHz.wav
1	118	4	4	2	I	1	0	969	1	Ⴔ	cut_oei_stereo_44KHz.wav
1	119	2	1	0	C	2	1	1068	1	Ⴏ	cut_ui_stereo_44KHz.wav
1	120	1	2	0	C	2	1	1116	1	Ⴖ	cut_s_stereo_44KHz.wav
1	121	3	3	2	I	2	0	877	1	Ⴐ	cut_f_stereo_44KHz.wav
1	122	1	1	1	C	1	1	1030	1	Ⴖ	cut_ui_stereo_44KHz.wav
1	123	2	2	1	C	1	1	1117	1	Ⴏ	cut_s_stereo_44KHz.wav
1	124	4	4	2	I	2	0	473	1	Ⴔ	cut_oei_stereo_44KHz.wav
1	125	1	2	0	C	1	0	1015	0	Ⴖ	cut_s_stereo_44KHz.wav
1	126	2	1	0	C	2	1	838	1	Ⴏ	cut_ui_stereo_44KHz.wav
1	127	4	3	2	I	1	0	759	0	Ⴔ	cut_f_stereo_44KHz.wav
1	128	3	4	2	I	2	0	1032	1	Ⴐ	cut_oei_stereo_44KHz.wav
1	129	2	2	1	C	1	1	1049	1	Ⴏ	cut_s_stereo_44KHz.wav
1	130	3	4	2	I	1	0	922	0	Ⴐ	cut_oei_stereo_44KHz.wav
1	131	1	2	0	C	2	1	902	1	Ⴖ	cut_s_stereo_44KHz.wav
1	132	4	4	2	I	2	0	777	0	Ⴔ	cut_oei_stereo_44KHz.wav
1	133	3	3	2	I	2	0	1222	0	Ⴐ	cut_f_stereo_44KHz.wav
1	134	1	1	1	C	1	1	1074	1	Ⴖ	cut_ui_stereo_44KHz.wav
1	135	4	3	2	I	2	0	944	0	Ⴔ	cut_f_stereo_44KHz.wav
1	136	2	1	0	C	2	1	894	1	Ⴏ	cut_ui_stereo_44KHz.wav
1	137	3	4	2	I	1	0	699	1	Ⴐ	cut_oei_stereo_44KHz.wav
1	138	1	1	1	C	1	1	963	1	Ⴖ	cut_ui_stereo_44KHz.wav
1	139	2	1	0	C	2	1	873	1	Ⴏ	cut_ui_stereo_44KHz.wav
1	140	4	3	2	I	1	0	847	1	Ⴔ	cut_f_stereo_44KHz.wav
1	141	1	2	0	C	2	1	942	1	Ⴖ	cut_s_stereo_44KHz.wav
1	142	4	4	2	I	2	0	1362	1	Ⴔ	cut_oei_stereo_44KHz.wav
1	143	3	3	2	I	2	0	1014	1	Ⴐ	cut_f_stereo_44KHz.wav
1	144	2	2	1	C	1	1	963	1	Ⴏ	cut_s_stereo_44KHz.wav
1	145	4	3	2	I	1	0	1094	1	Ⴔ	cut_f_stereo_44KHz.wav
1	146	3	4	2	I	1	0	944	1	Ⴐ	cut_oei_stereo_44KHz.wav
1	147	2	1	0	C	2	1	678	1	Ⴏ	cut_ui_stereo_44KHz.wav
1	148	1	2	0	C	2	1	1039	1	Ⴖ	cut_s_stereo_44KHz.wav
1	149	4	4	2	I	2	0	991	0	Ⴔ	cut_oei_stereo_44KHz.wav
1	150	1	1	1	C	1	1	1442	1	Ⴖ	cut_ui_stereo_44KHz.wav
1	151	2	2	1	C	1	1	1053	1	Ⴏ	cut_s_stereo_44KHz.wav
1	152	3	3	2	I	2	0	1229	0	Ⴐ	cut_f_stereo_44KHz.wav
1	153	2	2	1	C	1	1	1565	1	Ⴏ	cut_s_stereo_44KHz.wav
1	154	3	4	2	I	2	0	1003	1	Ⴐ	cut_oei_stereo_44KHz.wav
1	155	1	2	0	C	1	0	1187	0	Ⴖ	cut_s_stereo_44KHz.wav
1	156	4	4	2	I	2	0	1065	1	Ⴔ	cut_oei_stereo_44KHz.wav
1	157	2	1	0	C	2	1	756	1	Ⴏ	cut_ui_stereo_44KHz.wav
1	158	3	3	2	I	2	0	1279	1	Ⴐ	cut_f_stereo_44KHz.wav
1	159	1	1	1	C	1	1	962	1	Ⴖ	cut_ui_stereo_44KHz.wav
1	160	4	3	2	I	2	0	1246	1	Ⴔ	cut_f_stereo_44KHz.wav
1	161	2	2	1	C	1	1	1522	1	Ⴏ	cut_s_stereo_44KHz.wav
1	162	3	4	2	I	1	0	1045	1	Ⴐ	cut_oei_stereo_44KHz.wav
1	163	1	2	0	C	1	0	847	0	Ⴖ	cut_s_stereo_44KHz.wav
1	164	4	3	2	I	1	0	1640	1	Ⴔ	cut_f_stereo_44KHz.wav
1	165	3	3	2	I	2	0	1436	1	Ⴐ	cut_f_stereo_44KHz.wav
1	166	1	1	1	C	1	1	958	1	Ⴖ	cut_ui_stereo_44KHz.wav
1	167	4	4	2	I	1	0	1207	0	Ⴔ	cut_oei_stereo_44KHz.wav
1	168	2	1	0	C	2	1	740	1	Ⴏ	cut_ui_stereo_44KHz.wav
1	169	1	1	1	C	1	1	886	1	Ⴖ	cut_ui_stereo_44KHz.wav
1	170	3	4	2	I	2	0	1199	0	Ⴐ	cut_oei_stereo_44KHz.wav
1	171	4	4	2	I	2	0	920	1	Ⴔ	cut_oei_stereo_44KHz.wav
1	172	2	1	0	C	2	1	967	1	Ⴏ	cut_ui_stereo_44KHz.wav
1	173	4	3	2	I	1	0	1269	0	Ⴔ	cut_f_stereo_44KHz.wav
1	174	1	2	0	C	1	0	1160	0	Ⴖ	cut_s_stereo_44KHz.wav
1	175	2	2	1	C	1	1	982	1	Ⴏ	cut_s_stereo_44KHz.wav
1	176	3	3	2	I	2	0	1009	0	Ⴐ	cut_f_stereo_44KHz.wav
1	177	1	2	0	C	2	1	1169	1	Ⴖ	cut_s_stereo_44KHz.wav
1	178	4	4	2	I	2	0	814	1	Ⴔ	cut_oei_stereo_44KHz.wav
1	179	3	3	2	I	2	0	988	0	Ⴐ	cut_f_stereo_44KHz.wav
1	180	2	1	0	C	2	1	820	1	Ⴏ	cut_ui_stereo_44KHz.wav
1	181	3	4	2	I	2	0	1073	1	Ⴐ	cut_oei_stereo_44KHz.wav
1	182	4	3	2	I	2	0	871	1	Ⴔ	cut_f_stereo_44KHz.wav
1	183	1	1	1	C	1	1	874	1	Ⴖ	cut_ui_stereo_44KHz.wav
1	184	2	2	1	C	1	1	924	1	Ⴏ	cut_s_stereo_44KHz.wav
1	185	4	4	2	I	2	0	905	0	Ⴔ	cut_oei_stereo_44KHz.wav
1	186	2	1	0	C	2	1	847	1	Ⴏ	cut_ui_stereo_44KHz.wav
1	187	1	1	1	C	1	1	779	1	Ⴖ	cut_ui_stereo_44KHz.wav
1	188	3	4	2	I	2	0	764	1	Ⴐ	cut_oei_stereo_44KHz.wav
1	189	1	2	0	C	2	1	1025	1	Ⴖ	cut_s_stereo_44KHz.wav
1	190	3	3	2	I	2	0	947	1	Ⴐ	cut_f_stereo_44KHz.wav
1	191	2	2	1	C	1	1	995	1	Ⴏ	cut_s_stereo_44KHz.wav
1	192	4	3	2	I	0	0	0	0	Ⴔ	cut_f_stereo_44KHz.wav
1	193	1	2	0	C	2	1	1035	1	Ⴖ	cut_s_stereo_44KHz.wav
1	194	2	1	0	C	2	1	952	1	Ⴏ	cut_ui_stereo_44KHz.wav
1	195	3	3	2	I	2	0	950	1	Ⴐ	cut_f_stereo_44KHz.wav
1	196	4	4	2	I	2	0	1035	1	Ⴔ	cut_oei_stereo_44KHz.wav
1	197	1	1	1	C	1	1	1346	1	Ⴖ	cut_ui_stereo_44KHz.wav
1	198	2	2	1	C	1	1	842	1	Ⴏ	cut_s_stereo_44KHz.wav
1	199	4	3	2	I	2	0	1228	0	Ⴔ	cut_f_stereo_44KHz.wav
1	200	3	4	2	I	2	0	1394	0	Ⴐ	cut_oei_stereo_44KHz.wav
2	1	2	1	0	C	2	1	1352	1	Ⴃ	cut_k_stereo_44KHz.wav
2	2	1	1	1	C	1	1	870	1	Ⴇ	cut_k_stereo_44KHz.wav
2	3	3	4	2	I	1	0	784	0	Ⴂ	cut_u_stereo_44KHz.wav
2	4	4	3	2	I	2	0	912	0	Ⴟ	cut_o_stereo_44KHz.wav
2	5	1	2	0	C	2	1	950	1	Ⴇ	cut_a_stereo_44KHz.wav
2	6	4	4	2	I	2	0	925	0	Ⴟ	cut_u_stereo_44KHz.wav
2	7	2	2	1	C	1	1	700	1	Ⴃ	cut_a_stereo_44KHz.wav
2	8	3	3	2	I	2	0	998	1	Ⴂ	cut_o_stereo_44KHz.wav
2	9	4	4	2	I	2	0	663	1	Ⴟ	cut_u_stereo_44KHz.wav
2	10	1	2	0	C	2	1	794	1	Ⴇ	cut_a_stereo_44KHz.wav
2	11	3	3	2	I	2	0	736	0	Ⴂ	cut_o_stereo_44KHz.wav
2	12	2	2	1	C	1	1	992	1	Ⴃ	cut_a_stereo_44KHz.wav
2	13	4	3	2	I	2	0	646	1	Ⴟ	cut_o_stereo_44KHz.wav
2	14	1	1	1	C	1	1	1003	1	Ⴇ	cut_k_stereo_44KHz.wav
2	15	2	1	0	C	2	1	483	1	Ⴃ	cut_k_stereo_44KHz.wav
2	16	3	4	2	I	2	0	712	0	Ⴂ	cut_u_stereo_44KHz.wav
2	17	2	1	0	C	2	1	891	1	Ⴃ	cut_k_stereo_44KHz.wav
2	18	1	2	0	C	2	1	1210	1	Ⴇ	cut_a_stereo_44KHz.wav
2	19	4	4	2	I	2	0	732	1	Ⴟ	cut_u_stereo_44KHz.wav
2	20	3	3	2	I	2	0	491	1	Ⴂ	cut_o_stereo_44KHz.wav
2	21	2	2	1	C	1	1	903	1	Ⴃ	cut_a_stereo_44KHz.wav
2	22	3	4	2	I	2	0	949	0	Ⴂ	cut_u_stereo_44KHz.wav
2	23	4	3	2	I	1	0	1022	1	Ⴟ	cut_o_stereo_44KHz.wav
2	24	1	1	1	C	1	1	1262	1	Ⴇ	cut_k_stereo_44KHz.wav
2	25	2	1	0	C	2	1	866	1	Ⴃ	cut_k_stereo_44KHz.wav
2	26	4	3	2	I	2	0	1056	0	Ⴟ	cut_o_stereo_44KHz.wav
2	27	3	4	2	I	1	0	895	0	Ⴂ	cut_u_stereo_44KHz.wav
2	28	1	1	1	C	1	1	1139	1	Ⴇ	cut_k_stereo_44KHz.wav
2	29	3	3	2	I	2	0	861	0	Ⴂ	cut_o_stereo_44KHz.wav
2	30	1	2	0	C	2	1	1042	1	Ⴇ	cut_a_stereo_44KHz.wav
2	31	4	4	2	I	2	0	806	0	Ⴟ	cut_u_stereo_44KHz.wav
2	32	2	2	1	C	1	1	802	1	Ⴃ	cut_a_stereo_44KHz.wav
2	33	4	3	2	I	2	0	1083	0	Ⴟ	cut_o_stereo_44KHz.wav
2	34	2	1	0	C	2	1	778	1	Ⴃ	cut_k_stereo_44KHz.wav
2	35	3	4	2	I	2	0	1044	0	Ⴂ	cut_u_stereo_44KHz.wav
2	36	1	1	1	C	1	1	883	1	Ⴇ	cut_k_stereo_44KHz.wav
2	37	3	3	2	I	2	0	707	1	Ⴂ	cut_o_stereo_44KHz.wav
2	38	1	2	0	C	2	1	889	1	Ⴇ	cut_a_stereo_44KHz.wav
2	39	4	4	2	I	2	0	701	0	Ⴟ	cut_u_stereo_44KHz.wav
2	40	2	2	1	C	1	1	839	1	Ⴃ	cut_a_stereo_44KHz.wav
2	41	3	4	2	I	2	0	708	1	Ⴂ	cut_u_stereo_44KHz.wav
2	42	1	1	1	C	1	1	889	1	Ⴇ	cut_k_stereo_44KHz.wav
2	43	2	2	1	C	1	1	843	1	Ⴃ	cut_a_stereo_44KHz.wav
2	44	4	4	2	I	2	0	667	0	Ⴟ	cut_u_stereo_44KHz.wav
2	45	3	3	2	I	2	0	636	1	Ⴂ	cut_o_stereo_44KHz.wav
2	46	1	2	0	C	2	1	931	1	Ⴇ	cut_a_stereo_44KHz.wav
2	47	4	3	2	I	2	0	590	1	Ⴟ	cut_o_stereo_44KHz.wav
2	48	2	1	0	C	2	1	908	1	Ⴃ	cut_k_stereo_44KHz.wav
2	49	4	3	2	I	2	0	669	1	Ⴟ	cut_o_stereo_44KHz.wav
2	50	1	2	0	C	2	1	739	1	Ⴇ	cut_a_stereo_44KHz.wav
2	51	2	1	0	C	2	1	616	1	Ⴃ	cut_k_stereo_44KHz.wav
2	52	3	3	2	I	2	0	709	0	Ⴂ	cut_o_stereo_44KHz.wav
2	53	2	2	1	C	2	0	625	0	Ⴃ	cut_a_stereo_44KHz.wav
2	54	3	4	2	I	2	0	797	1	Ⴂ	cut_u_stereo_44KHz.wav
2	55	4	4	2	I	1	0	805	1	Ⴟ	cut_u_stereo_44KHz.wav
2	56	1	1	1	C	1	1	848	1	Ⴇ	cut_k_stereo_44KHz.wav
2	57	4	4	2	I	2	0	1193	0	Ⴟ	cut_u_stereo_44KHz.wav
2	58	3	3	2	I	1	0	1207	1	Ⴂ	cut_o_stereo_44KHz.wav
2	59	2	2	1	C	1	1	927	1	Ⴃ	cut_a_stereo_44KHz.wav
2	60	1	1	1	C	1	1	763	1	Ⴇ	cut_k_stereo_44KHz.wav
2	61	2	1	0	C	2	1	797	1	Ⴃ	cut_k_stereo_44KHz.wav
2	62	1	2	0	C	2	1	760	1	Ⴇ	cut_a_stereo_44KHz.wav
2	63	3	4	2	I	2	0	978	1	Ⴂ	cut_u_stereo_44KHz.wav
2	64	4	3	2	I	2	0	560	1	Ⴟ	cut_o_stereo_44KHz.wav
2	65	1	1	1	C	1	1	841	1	Ⴇ	cut_k_stereo_44KHz.wav
2	66	4	3	2	I	2	0	1024	1	Ⴟ	cut_o_stereo_44KHz.wav
2	67	3	3	2	I	2	0	1182	0	Ⴂ	cut_o_stereo_44KHz.wav
2	68	2	1	0	C	2	1	726	1	Ⴃ	cut_k_stereo_44KHz.wav
2	69	1	2	0	C	2	1	794	1	Ⴇ	cut_a_stereo_44KHz.wav
2	70	4	4	2	I	2	0	767	0	Ⴟ	cut_u_stereo_44KHz.wav
2	71	3	4	2	I	2	0	742	1	Ⴂ	cut_u_stereo_44KHz.wav
2	72	2	2	1	C	1	1	798	1	Ⴃ	cut_a_stereo_44KHz.wav
2	73	4	3	2	I	2	0	931	1	Ⴟ	cut_o_stereo_44KHz.wav
2	74	1	2	0	C	2	1	797	1	Ⴇ	cut_a_stereo_44KHz.wav
2	75	3	3	2	I	1	0	1004	0	Ⴂ	cut_o_stereo_44KHz.wav
2	76	2	2	1	C	1	1	1027	1	Ⴃ	cut_a_stereo_44KHz.wav
2	77	4	4	2	I	2	0	833	1	Ⴟ	cut_u_stereo_44KHz.wav
2	78	3	4	2	I	1	0	856	1	Ⴂ	cut_u_stereo_44KHz.wav
2	79	1	1	1	C	1	1	877	1	Ⴇ	cut_k_stereo_44KHz.wav
2	80	2	1	0	C	2	1	882	1	Ⴃ	cut_k_stereo_44KHz.wav
2	81	3	3	2	I	1	0	956	1	Ⴂ	cut_o_stereo_44KHz.wav
2	82	4	4	2	I	2	0	807	0	Ⴟ	cut_u_stereo_44KHz.wav
2	83	2	2	1	C	1	1	903	1	Ⴃ	cut_a_stereo_44KHz.wav
2	84	1	1	1	C	1	1	884	1	Ⴇ	cut_k_stereo_44KHz.wav
2	85	3	4	2	I	2	0	499	0	Ⴂ	cut_u_stereo_44KHz.wav
2	86	1	2	0	C	2	1	995	1	Ⴇ	cut_a_stereo_44KHz.wav
2	87	2	1	0	C	2	1	824	1	Ⴃ	cut_k_stereo_44KHz.wav
2	88	4	3	2	I	1	0	889	1	Ⴟ	cut_o_stereo_44KHz.wav
2	89	1	1	1	C	1	1	979	1	Ⴇ	cut_k_stereo_44KHz.wav
2	90	2	1	0	C	2	1	901	1	Ⴃ	cut_k_stereo_44KHz.wav
2	91	4	4	2	I	2	0	765	0	Ⴟ	cut_u_stereo_44KHz.wav
2	92	3	3	2	I	2	0	766	1	Ⴂ	cut_o_stereo_44KHz.wav
2	93	2	2	1	C	1	1	1001	1	Ⴃ	cut_a_stereo_44KHz.wav
2	94	4	3	2	I	1	0	959	0	Ⴟ	cut_o_stereo_44KHz.wav
2	95	3	4	2	I	2	0	956	1	Ⴂ	cut_u_stereo_44KHz.wav
2	96	1	2	0	C	2	1	770	1	Ⴇ	cut_a_stereo_44KHz.wav
2	97	4	4	2	I	1	0	933	0	Ⴟ	cut_u_stereo_44KHz.wav
2	98	3	4	2	I	2	0	1325	1	Ⴂ	cut_u_stereo_44KHz.wav
2	99	1	2	0	C	2	1	882	1	Ⴇ	cut_a_stereo_44KHz.wav
2	100	2	1	0	C	2	1	752	1	Ⴃ	cut_k_stereo_44KHz.wav
2	101	4	3	2	I	1	0	859	1	Ⴟ	cut_o_stereo_44KHz.wav
2	102	2	2	1	C	1	1	807	1	Ⴃ	cut_a_stereo_44KHz.wav
2	103	3	3	2	I	1	0	991	1	Ⴂ	cut_o_stereo_44KHz.wav
2	104	1	1	1	C	1	1	1052	1	Ⴇ	cut_k_stereo_44KHz.wav
2	105	2	2	1	C	1	1	916	1	Ⴃ	cut_a_stereo_44KHz.wav
2	106	4	3	2	I	1	0	901	0	Ⴟ	cut_o_stereo_44KHz.wav
2	107	1	1	1	C	0	0	0	0	Ⴇ	cut_k_stereo_44KHz.wav
2	108	3	3	2	I	2	0	800	0	Ⴂ	cut_o_stereo_44KHz.wav
2	109	4	4	2	I	1	0	895	0	Ⴟ	cut_u_stereo_44KHz.wav
2	110	3	4	2	I	1	0	787	1	Ⴂ	cut_u_stereo_44KHz.wav
2	111	2	1	0	C	2	1	825	1	Ⴃ	cut_k_stereo_44KHz.wav
2	112	1	2	0	C	2	1	805	1	Ⴇ	cut_a_stereo_44KHz.wav
2	113	3	4	2	I	2	0	718	0	Ⴂ	cut_u_stereo_44KHz.wav
2	114	1	1	1	C	1	1	786	1	Ⴇ	cut_k_stereo_44KHz.wav
2	115	2	1	0	C	2	1	657	1	Ⴃ	cut_k_stereo_44KHz.wav
2	116	4	3	2	I	1	0	895	0	Ⴟ	cut_o_stereo_44KHz.wav
2	117	1	2	0	C	2	1	680	1	Ⴇ	cut_a_stereo_44KHz.wav
2	118	3	3	2	I	1	0	718	0	Ⴂ	cut_o_stereo_44KHz.wav
2	119	4	4	2	I	2	0	680	1	Ⴟ	cut_u_stereo_44KHz.wav
2	120	2	2	1	C	1	1	828	1	Ⴃ	cut_a_stereo_44KHz.wav
2	121	1	1	1	C	1	1	789	1	Ⴇ	cut_k_stereo_44KHz.wav
2	122	3	3	2	I	2	0	921	0	Ⴂ	cut_o_stereo_44KHz.wav
2	123	2	1	0	C	2	1	755	1	Ⴃ	cut_k_stereo_44KHz.wav
2	124	4	3	2	I	2	0	806	1	Ⴟ	cut_o_stereo_44KHz.wav
2	125	2	2	1	C	1	1	792	1	Ⴃ	cut_a_stereo_44KHz.wav
2	126	4	4	2	I	2	0	697	1	Ⴟ	cut_u_stereo_44KHz.wav
2	127	3	4	2	I	1	0	728	1	Ⴂ	cut_u_stereo_44KHz.wav
2	128	1	2	0	C	2	1	810	1	Ⴇ	cut_a_stereo_44KHz.wav
2	129	2	2	1	C	1	1	923	1	Ⴃ	cut_a_stereo_44KHz.wav
2	130	3	3	2	I	2	0	1147	1	Ⴂ	cut_o_stereo_44KHz.wav
2	131	4	4	2	I	2	0	695	1	Ⴟ	cut_u_stereo_44KHz.wav
2	132	1	1	1	C	1	1	814	1	Ⴇ	cut_k_stereo_44KHz.wav
2	133	2	1	0	C	2	1	653	1	Ⴃ	cut_k_stereo_44KHz.wav
2	134	4	3	2	I	2	0	698	1	Ⴟ	cut_o_stereo_44KHz.wav
2	135	3	4	2	I	1	0	595	0	Ⴂ	cut_u_stereo_44KHz.wav
2	136	1	2	0	C	2	1	686	1	Ⴇ	cut_a_stereo_44KHz.wav
2	137	2	2	1	C	1	1	895	1	Ⴃ	cut_a_stereo_44KHz.wav
2	138	4	4	2	I	2	0	717	0	Ⴟ	cut_u_stereo_44KHz.wav
2	139	3	4	2	I	2	0	1392	0	Ⴂ	cut_u_stereo_44KHz.wav
2	140	1	1	1	C	1	1	843	1	Ⴇ	cut_k_stereo_44KHz.wav
2	141	4	3	2	I	2	0	690	1	Ⴟ	cut_o_stereo_44KHz.wav
2	142	1	2	0	C	2	1	897	1	Ⴇ	cut_a_stereo_44KHz.wav
2	143	3	3	2	I	1	0	1026	1	Ⴂ	cut_o_stereo_44KHz.wav
2	144	2	1	0	C	2	1	645	1	Ⴃ	cut_k_stereo_44KHz.wav
2	145	4	4	2	I	2	0	717	1	Ⴟ	cut_u_stereo_44KHz.wav
2	146	3	3	2	I	2	0	688	0	Ⴂ	cut_o_stereo_44KHz.wav
2	147	1	1	1	C	1	1	917	1	Ⴇ	cut_k_stereo_44KHz.wav
2	148	2	2	1	C	1	1	1211	1	Ⴃ	cut_a_stereo_44KHz.wav
2	149	4	3	2	I	2	0	1009	1	Ⴟ	cut_o_stereo_44KHz.wav
2	150	1	2	0	C	2	1	827	1	Ⴇ	cut_a_stereo_44KHz.wav
2	151	3	4	2	I	1	0	797	0	Ⴂ	cut_u_stereo_44KHz.wav
2	152	2	1	0	C	2	1	858	1	Ⴃ	cut_k_stereo_44KHz.wav
2	153	4	4	2	I	2	0	945	0	Ⴟ	cut_u_stereo_44KHz.wav
2	154	3	3	2	I	2	0	940	0	Ⴂ	cut_o_stereo_44KHz.wav
2	155	1	2	0	C	2	1	735	1	Ⴇ	cut_a_stereo_44KHz.wav
2	156	2	1	0	C	2	1	718	1	Ⴃ	cut_k_stereo_44KHz.wav
2	157	3	4	2	I	2	0	1184	1	Ⴂ	cut_u_stereo_44KHz.wav
2	158	1	1	1	C	1	1	922	1	Ⴇ	cut_k_stereo_44KHz.wav
2	159	2	2	1	C	1	1	1159	1	Ⴃ	cut_a_stereo_44KHz.wav
2	160	4	3	2	I	2	0	831	0	Ⴟ	cut_o_stereo_44KHz.wav
2	161	1	1	1	C	1	1	908	1	Ⴇ	cut_k_stereo_44KHz.wav
2	162	2	2	1	C	1	1	870	1	Ⴃ	cut_a_stereo_44KHz.wav
2	163	4	4	2	I	2	0	788	0	Ⴟ	cut_u_stereo_44KHz.wav
2	164	3	4	2	I	1	0	942	1	Ⴂ	cut_u_stereo_44KHz.wav
2	165	2	1	0	C	2	1	855	1	Ⴃ	cut_k_stereo_44KHz.wav
2	166	1	2	0	C	2	1	710	1	Ⴇ	cut_a_stereo_44KHz.wav
2	167	4	3	2	I	2	0	796	0	Ⴟ	cut_o_stereo_44KHz.wav
2	168	3	3	2	I	1	0	1108	1	Ⴂ	cut_o_stereo_44KHz.wav
2	169	4	4	2	I	2	0	831	1	Ⴟ	cut_u_stereo_44KHz.wav
2	170	1	2	0	C	2	1	771	1	Ⴇ	cut_a_stereo_44KHz.wav
2	171	2	2	1	C	1	1	760	1	Ⴃ	cut_a_stereo_44KHz.wav
2	172	3	4	2	I	2	0	773	0	Ⴂ	cut_u_stereo_44KHz.wav
2	173	4	3	2	I	2	0	744	1	Ⴟ	cut_o_stereo_44KHz.wav
2	174	1	1	1	C	1	1	848	1	Ⴇ	cut_k_stereo_44KHz.wav
2	175	3	3	2	I	2	0	719	1	Ⴂ	cut_o_stereo_44KHz.wav
2	176	2	1	0	C	2	1	649	1	Ⴃ	cut_k_stereo_44KHz.wav
2	177	1	1	1	C	1	1	1066	1	Ⴇ	cut_k_stereo_44KHz.wav
2	178	2	2	1	C	1	1	828	1	Ⴃ	cut_a_stereo_44KHz.wav
2	179	4	3	2	I	2	0	706	1	Ⴟ	cut_o_stereo_44KHz.wav
2	180	3	3	2	I	2	0	734	1	Ⴂ	cut_o_stereo_44KHz.wav
2	181	2	1	0	C	2	1	812	1	Ⴃ	cut_k_stereo_44KHz.wav
2	182	3	4	2	I	2	0	750	0	Ⴂ	cut_u_stereo_44KHz.wav
2	183	1	2	0	C	2	1	881	1	Ⴇ	cut_a_stereo_44KHz.wav
2	184	4	4	2	I	2	0	780	0	Ⴟ	cut_u_stereo_44KHz.wav
2	185	1	2	0	C	2	1	958	1	Ⴇ	cut_a_stereo_44KHz.wav
2	186	2	1	0	C	2	1	632	1	Ⴃ	cut_k_stereo_44KHz.wav
2	187	4	3	2	I	2	0	737	1	Ⴟ	cut_o_stereo_44KHz.wav
2	188	3	3	2	I	2	0	639	1	Ⴂ	cut_o_stereo_44KHz.wav
2	189	2	2	1	C	1	1	1385	1	Ⴃ	cut_a_stereo_44KHz.wav
2	190	3	4	2	I	1	0	1184	0	Ⴂ	cut_u_stereo_44KHz.wav
2	191	4	4	2	I	2	0	1028	0	Ⴟ	cut_u_stereo_44KHz.wav
2	192	1	1	1	C	1	1	1024	1	Ⴇ	cut_k_stereo_44KHz.wav
2	193	3	4	2	I	2	0	627	0	Ⴂ	cut_u_stereo_44KHz.wav
2	194	1	2	0	C	2	1	709	1	Ⴇ	cut_a_stereo_44KHz.wav
2	195	4	3	2	I	2	0	594	0	Ⴟ	cut_o_stereo_44KHz.wav
2	196	2	2	1	C	1	1	933	1	Ⴃ	cut_a_stereo_44KHz.wav
2	197	3	3	2	I	2	0	727	0	Ⴂ	cut_o_stereo_44KHz.wav
2	198	2	1	0	C	2	1	1068	1	Ⴃ	cut_k_stereo_44KHz.wav
2	199	1	1	1	C	1	1	834	1	Ⴇ	cut_k_stereo_44KHz.wav
2	200	4	4	2	I	2	0	1411	0	Ⴟ	cut_u_stereo_44KHz.wav
3	1	3	3	2	I	1	0	1057	1	Ⴒ	cut_ei_stereo_44KHz.wav
3	2	2	1	0	C	2	1	922	1	Ⴕ	cut_r_stereo_44KHz.wav
3	3	4	3	2	I	1	0	756	0	Ⴌ	cut_ei_stereo_44KHz.wav
3	4	1	2	0	C	2	1	1248	1	Ⴉ	cut_n_stereo_44KHz.wav
3	5	3	4	2	I	1	0	1287	0	Ⴒ	cut_j_stereo_44KHz.wav
3	6	1	1	1	C	2	0	766	0	Ⴉ	cut_r_stereo_44KHz.wav
3	7	4	4	2	I	2	0	841	0	Ⴌ	cut_j_stereo_44KHz.wav
3	8	2	2	1	C	1	1	997	1	Ⴕ	cut_n_stereo_44KHz.wav
3	9	3	3	2	I	2	0	759	0	Ⴒ	cut_ei_stereo_44KHz.wav
3	10	4	4	2	I	2	0	679	1	Ⴌ	cut_j_stereo_44KHz.wav
3	11	2	1	0	C	2	1	824	1	Ⴕ	cut_r_stereo_44KHz.wav
3	12	1	2	0	C	1	0	1180	0	Ⴉ	cut_n_stereo_44KHz.wav
3	13	2	2	1	C	1	1	937	1	Ⴕ	cut_n_stereo_44KHz.wav
3	14	4	3	2	I	2	0	772	0	Ⴌ	cut_ei_stereo_44KHz.wav
3	15	3	4	2	I	1	0	866	1	Ⴒ	cut_j_stereo_44KHz.wav
3	16	1	1	1	C	1	1	842	1	Ⴉ	cut_r_stereo_44KHz.wav
3	17	2	2	1	C	1	1	912	1	Ⴕ	cut_n_stereo_44KHz.wav
3	18	3	3	2	I	2	0	976	1	Ⴒ	cut_ei_stereo_44KHz.wav
3	19	1	1	1	C	1	1	1119	1	Ⴉ	cut_r_stereo_44KHz.wav
3	20	4	4	2	I	2	0	1078	1	Ⴌ	cut_j_stereo_44KHz.wav
3	21	3	4	2	I	1	0	855	0	Ⴒ	cut_j_stereo_44KHz.wav
3	22	4	3	2	I	1	0	967	0	Ⴌ	cut_ei_stereo_44KHz.wav
3	23	1	2	0	C	1	0	862	0	Ⴉ	cut_n_stereo_44KHz.wav
3	24	2	1	0	C	2	1	596	1	Ⴕ	cut_r_stereo_44KHz.wav
3	25	3	4	2	I	1	0	1089	0	Ⴒ	cut_j_stereo_44KHz.wav
3	26	2	2	1	C	1	1	1094	1	Ⴕ	cut_n_stereo_44KHz.wav
3	27	4	3	2	I	2	0	856	1	Ⴌ	cut_ei_stereo_44KHz.wav
3	28	1	2	0	C	2	1	1648	1	Ⴉ	cut_n_stereo_44KHz.wav
3	29	3	3	2	I	2	0	721	1	Ⴒ	cut_ei_stereo_44KHz.wav
3	30	4	4	2	I	2	0	1198	0	Ⴌ	cut_j_stereo_44KHz.wav
3	31	2	1	0	C	2	1	765	1	Ⴕ	cut_r_stereo_44KHz.wav
3	32	1	1	1	C	2	0	893	0	Ⴉ	cut_r_stereo_44KHz.wav
3	33	4	4	2	I	2	0	1207	0	Ⴌ	cut_j_stereo_44KHz.wav
3	34	1	1	1	C	1	1	893	1	Ⴉ	cut_r_stereo_44KHz.wav
3	35	3	4	2	I	2	0	666	0	Ⴒ	cut_j_stereo_44KHz.wav
3	36	2	2	1	C	1	1	1083	1	Ⴕ	cut_n_stereo_44KHz.wav
3	37	3	3	2	I	2	0	680	0	Ⴒ	cut_ei_stereo_44KHz.wav
3	38	1	2	0	C	2	1	715	1	Ⴉ	cut_n_stereo_44KHz.wav
3	39	2	1	0	C	2	1	752	1	Ⴕ	cut_r_stereo_44KHz.wav
3	40	4	3	2	I	2	0	1140	0	Ⴌ	cut_ei_stereo_44KHz.wav
3	41	2	1	0	C	2	1	764	1	Ⴕ	cut_r_stereo_44KHz.wav
3	42	1	1	1	C	1	1	1309	1	Ⴉ	cut_r_stereo_44KHz.wav
3	43	3	4	2	I	2	0	896	0	Ⴒ	cut_j_stereo_44KHz.wav
3	44	4	3	2	I	2	0	802	1	Ⴌ	cut_ei_stereo_44KHz.wav
3	45	2	2	1	C	2	0	694	0	Ⴕ	cut_n_stereo_44KHz.wav
3	46	4	4	2	I	2	0	821	1	Ⴌ	cut_j_stereo_44KHz.wav
3	47	3	3	2	I	1	0	996	0	Ⴒ	cut_ei_stereo_44KHz.wav
3	48	1	2	0	C	1	0	930	0	Ⴉ	cut_n_stereo_44KHz.wav
3	49	4	4	2	I	2	0	907	1	Ⴌ	cut_j_stereo_44KHz.wav
3	50	3	3	2	I	2	0	654	1	Ⴒ	cut_ei_stereo_44KHz.wav
3	51	1	1	1	C	1	1	1216	1	Ⴉ	cut_r_stereo_44KHz.wav
3	52	2	2	1	C	1	1	1020	1	Ⴕ	cut_n_stereo_44KHz.wav
3	53	4	3	2	I	2	0	647	0	Ⴌ	cut_ei_stereo_44KHz.wav
3	54	2	1	0	C	2	1	863	1	Ⴕ	cut_r_stereo_44KHz.wav
3	55	3	4	2	I	1	0	983	0	Ⴒ	cut_j_stereo_44KHz.wav
3	56	1	2	0	C	1	0	1154	0	Ⴉ	cut_n_stereo_44KHz.wav
3	57	4	3	2	I	2	0	903	1	Ⴌ	cut_ei_stereo_44KHz.wav
3	58	1	1	1	C	1	1	1249	1	Ⴉ	cut_r_stereo_44KHz.wav
3	59	3	3	2	I	2	0	781	0	Ⴒ	cut_ei_stereo_44KHz.wav
3	60	2	1	0	C	2	1	671	1	Ⴕ	cut_r_stereo_44KHz.wav
3	61	4	4	2	I	2	0	749	0	Ⴌ	cut_j_stereo_44KHz.wav
3	62	3	4	2	I	2	0	983	0	Ⴒ	cut_j_stereo_44KHz.wav
3	63	1	2	0	C	2	1	662	1	Ⴉ	cut_n_stereo_44KHz.wav
3	64	2	2	1	C	1	1	705	1	Ⴕ	cut_n_stereo_44KHz.wav
3	65	3	4	2	I	2	0	630	0	Ⴒ	cut_j_stereo_44KHz.wav
3	66	4	3	2	I	1	0	767	0	Ⴌ	cut_ei_stereo_44KHz.wav
3	67	1	2	0	C	2	1	648	1	Ⴉ	cut_n_stereo_44KHz.wav
3	68	2	2	1	C	2	0	696	0	Ⴕ	cut_n_stereo_44KHz.wav
3	69	4	4	2	I	2	0	703	1	Ⴌ	cut_j_stereo_44KHz.wav
3	70	2	1	0	C	2	1	956	1	Ⴕ	cut_r_stereo_44KHz.wav
3	71	1	1	1	C	1	1	813	1	Ⴉ	cut_r_stereo_44KHz.wav
3	72	3	3	2	I	2	0	769	0	Ⴒ	cut_ei_stereo_44KHz.wav
3	73	1	1	1	C	1	1	728	1	Ⴉ	cut_r_stereo_44KHz.wav
3	74	2	1	0	C	2	1	733	1	Ⴕ	cut_r_stereo_44KHz.wav
3	75	3	4	2	I	1	0	826	0	Ⴒ	cut_j_stereo_44KHz.wav
3	76	4	3	2	I	1	0	1046	0	Ⴌ	cut_ei_stereo_44KHz.wav
3	77	2	2	1	C	1	1	938	1	Ⴕ	cut_n_stereo_44KHz.wav
3	78	1	2	0	C	2	1	755	1	Ⴉ	cut_n_stereo_44KHz.wav
3	79	4	4	2	I	1	0	1215	1	Ⴌ	cut_j_stereo_44KHz.wav
3	80	3	3	2	I	1	0	759	1	Ⴒ	cut_ei_stereo_44KHz.wav
3	81	1	1	1	C	1	1	1109	1	Ⴉ	cut_r_stereo_44KHz.wav
3	82	2	1	0	C	2	1	693	1	Ⴕ	cut_r_stereo_44KHz.wav
3	83	4	3	2	I	2	0	664	1	Ⴌ	cut_ei_stereo_44KHz.wav
3	84	3	4	2	I	1	0	822	0	Ⴒ	cut_j_stereo_44KHz.wav
3	85	2	2	1	C	1	1	905	1	Ⴕ	cut_n_stereo_44KHz.wav
3	86	1	2	0	C	2	1	781	1	Ⴉ	cut_n_stereo_44KHz.wav
3	87	4	4	2	I	1	0	923	0	Ⴌ	cut_j_stereo_44KHz.wav
3	88	3	3	2	I	2	0	774	0	Ⴒ	cut_ei_stereo_44KHz.wav
3	89	2	1	0	C	2	1	679	1	Ⴕ	cut_r_stereo_44KHz.wav
3	90	4	4	2	I	1	0	772	0	Ⴌ	cut_j_stereo_44KHz.wav
3	91	1	1	1	C	1	1	715	1	Ⴉ	cut_r_stereo_44KHz.wav
3	92	3	4	2	I	2	0	747	1	Ⴒ	cut_j_stereo_44KHz.wav
3	93	2	2	1	C	1	1	1239	1	Ⴕ	cut_n_stereo_44KHz.wav
3	94	1	2	0	C	2	1	984	1	Ⴉ	cut_n_stereo_44KHz.wav
3	95	4	3	2	I	1	0	1048	1	Ⴌ	cut_ei_stereo_44KHz.wav
3	96	3	3	2	I	2	0	695	1	Ⴒ	cut_ei_stereo_44KHz.wav
3	97	1	1	1	C	1	1	806	1	Ⴉ	cut_r_stereo_44KHz.wav
3	98	3	3	2	I	1	0	1352	0	Ⴒ	cut_ei_stereo_44KHz.wav
3	99	4	3	2	I	1	0	1071	0	Ⴌ	cut_ei_stereo_44KHz.wav
3	100	2	1	0	C	2	1	898	1	Ⴕ	cut_r_stereo_44KHz.wav
3	101	3	4	2	I	1	0	670	0	Ⴒ	cut_j_stereo_44KHz.wav
3	102	2	2	1	C	1	1	1325	1	Ⴕ	cut_n_stereo_44KHz.wav
3	103	4	4	2	I	2	0	1205	1	Ⴌ	cut_j_stereo_44KHz.wav
3	104	1	2	0	C	2	1	806	1	Ⴉ	cut_n_stereo_44KHz.wav
3	105	4	3	2	I	2	0	1121	0	Ⴌ	cut_ei_stereo_44KHz.wav
3	106	3	3	2	I	1	0	875	1	Ⴒ	cut_ei_stereo_44KHz.wav
3	107	1	2	0	C	2	1	720	1	Ⴉ	cut_n_stereo_44KHz.wav
3	108	2	1	0	C	2	1	1085	1	Ⴕ	cut_r_stereo_44KHz.wav
3	109	4	4	2	I	2	0	1222	1	Ⴌ	cut_j_stereo_44KHz.wav
3	110	1	1	1	C	1	1	986	1	Ⴉ	cut_r_stereo_44KHz.wav
3	111	2	2	1	C	1	1	947	1	Ⴕ	cut_n_stereo_44KHz.wav
3	112	3	4	2	I	1	0	786	1	Ⴒ	cut_j_stereo_44KHz.wav
3	113	2	1	0	C	2	1	1045	1	Ⴕ	cut_r_stereo_44KHz.wav
3	114	1	1	1	C	1	1	823	1	Ⴉ	cut_r_stereo_44KHz.wav
3	115	3	3	2	I	2	0	1002	0	Ⴒ	cut_ei_stereo_44KHz.wav
3	116	4	3	2	I	2	0	761	1	Ⴌ	cut_ei_stereo_44KHz.wav
3	117	1	2	0	C	2	1	1040	1	Ⴉ	cut_n_stereo_44KHz.wav
3	118	4	4	2	I	1	0	1426	1	Ⴌ	cut_j_stereo_44KHz.wav
3	119	3	4	2	I	2	0	953	1	Ⴒ	cut_j_stereo_44KHz.wav
3	120	2	2	1	C	1	1	1071	1	Ⴕ	cut_n_stereo_44KHz.wav
3	121	1	1	1	C	1	1	807	1	Ⴉ	cut_r_stereo_44KHz.wav
3	122	2	2	1	C	1	1	770	1	Ⴕ	cut_n_stereo_44KHz.wav
3	123	3	3	2	I	2	0	1253	1	Ⴒ	cut_ei_stereo_44KHz.wav
3	124	4	4	2	I	2	0	1162	0	Ⴌ	cut_j_stereo_44KHz.wav
3	125	2	1	0	C	2	1	850	1	Ⴕ	cut_r_stereo_44KHz.wav
3	126	1	2	0	C	2	1	851	1	Ⴉ	cut_n_stereo_44KHz.wav
3	127	3	4	2	I	1	0	1189	1	Ⴒ	cut_j_stereo_44KHz.wav
3	128	4	3	2	I	2	0	877	1	Ⴌ	cut_ei_stereo_44KHz.wav
3	129	3	3	2	I	1	0	1205	1	Ⴒ	cut_ei_stereo_44KHz.wav
3	130	1	2	0	C	2	1	945	1	Ⴉ	cut_n_stereo_44KHz.wav
3	131	2	1	0	C	2	1	757	1	Ⴕ	cut_r_stereo_44KHz.wav
3	132	4	3	2	I	2	0	618	1	Ⴌ	cut_ei_stereo_44KHz.wav
3	133	2	2	1	C	1	1	1308	1	Ⴕ	cut_n_stereo_44KHz.wav
3	134	3	4	2	I	2	0	933	1	Ⴒ	cut_j_stereo_44KHz.wav
3	135	1	1	1	C	1	1	1072	1	Ⴉ	cut_r_stereo_44KHz.wav
3	136	4	4	2	I	2	0	1109	1	Ⴌ	cut_j_stereo_44KHz.wav
3	137	2	1	0	C	2	1	784	1	Ⴕ	cut_r_stereo_44KHz.wav
3	138	1	1	1	C	1	1	939	1	Ⴉ	cut_r_stereo_44KHz.wav
3	139	4	3	2	I	2	0	1186	0	Ⴌ	cut_ei_stereo_44KHz.wav
3	140	3	4	2	I	1	0	1134	1	Ⴒ	cut_j_stereo_44KHz.wav
3	141	4	4	2	I	2	0	1186	0	Ⴌ	cut_j_stereo_44KHz.wav
3	142	2	2	1	C	1	1	918	1	Ⴕ	cut_n_stereo_44KHz.wav
3	143	3	3	2	I	2	0	788	1	Ⴒ	cut_ei_stereo_44KHz.wav
3	144	1	2	0	C	2	1	1051	1	Ⴉ	cut_n_stereo_44KHz.wav
3	145	4	3	2	I	2	0	851	1	Ⴌ	cut_ei_stereo_44KHz.wav
3	146	2	2	1	C	1	1	861	1	Ⴕ	cut_n_stereo_44KHz.wav
3	147	1	1	1	C	1	1	1165	1	Ⴉ	cut_r_stereo_44KHz.wav
3	148	3	4	2	I	1	0	969	1	Ⴒ	cut_j_stereo_44KHz.wav
3	149	1	2	0	C	2	1	839	1	Ⴉ	cut_n_stereo_44KHz.wav
3	150	4	4	2	I	2	0	951	0	Ⴌ	cut_j_stereo_44KHz.wav
3	151	3	3	2	I	1	0	1662	0	Ⴒ	cut_ei_stereo_44KHz.wav
3	152	2	1	0	C	2	1	713	1	Ⴕ	cut_r_stereo_44KHz.wav
3	153	1	1	1	C	1	1	768	1	Ⴉ	cut_r_stereo_44KHz.wav
3	154	3	3	2	I	2	0	784	1	Ⴒ	cut_ei_stereo_44KHz.wav
3	155	2	1	0	C	2	1	1067	1	Ⴕ	cut_r_stereo_44KHz.wav
3	156	4	3	2	I	2	0	805	0	Ⴌ	cut_ei_stereo_44KHz.wav
3	157	2	2	1	C	1	1	1005	1	Ⴕ	cut_n_stereo_44KHz.wav
3	158	1	2	0	C	2	1	872	1	Ⴉ	cut_n_stereo_44KHz.wav
3	159	3	4	2	I	2	0	1003	1	Ⴒ	cut_j_stereo_44KHz.wav
3	160	4	4	2	I	1	0	1358	1	Ⴌ	cut_j_stereo_44KHz.wav
3	161	2	1	0	C	2	1	664	1	Ⴕ	cut_r_stereo_44KHz.wav
3	162	3	3	2	I	2	0	1084	0	Ⴒ	cut_ei_stereo_44KHz.wav
3	163	4	4	2	I	1	0	1209	1	Ⴌ	cut_j_stereo_44KHz.wav
3	164	1	2	0	C	2	1	874	1	Ⴉ	cut_n_stereo_44KHz.wav
3	165	4	3	2	I	2	0	697	1	Ⴌ	cut_ei_stereo_44KHz.wav
3	166	1	1	1	C	1	1	954	1	Ⴉ	cut_r_stereo_44KHz.wav
3	167	2	2	1	C	1	1	831	1	Ⴕ	cut_n_stereo_44KHz.wav
3	168	3	4	2	I	2	0	784	1	Ⴒ	cut_j_stereo_44KHz.wav
3	169	4	4	2	I	1	0	1016	0	Ⴌ	cut_j_stereo_44KHz.wav
3	170	1	1	1	C	1	1	842	1	Ⴉ	cut_r_stereo_44KHz.wav
3	171	3	4	2	I	1	0	881	1	Ⴒ	cut_j_stereo_44KHz.wav
3	172	2	2	1	C	2	0	671	0	Ⴕ	cut_n_stereo_44KHz.wav
3	173	1	2	0	C	2	1	908	1	Ⴉ	cut_n_stereo_44KHz.wav
3	174	3	3	2	I	2	0	782	1	Ⴒ	cut_ei_stereo_44KHz.wav
3	175	2	1	0	C	2	1	657	1	Ⴕ	cut_r_stereo_44KHz.wav
3	176	4	3	2	I	2	0	891	0	Ⴌ	cut_ei_stereo_44KHz.wav
3	177	1	2	0	C	2	1	663	1	Ⴉ	cut_n_stereo_44KHz.wav
3	178	2	1	0	C	2	1	1028	1	Ⴕ	cut_r_stereo_44KHz.wav
3	179	3	4	2	I	1	0	874	0	Ⴒ	cut_j_stereo_44KHz.wav
3	180	4	3	2	I	2	0	739	0	Ⴌ	cut_ei_stereo_44KHz.wav
3	181	2	2	1	C	2	0	983	0	Ⴕ	cut_n_stereo_44KHz.wav
3	182	4	4	2	I	1	0	856	0	Ⴌ	cut_j_stereo_44KHz.wav
3	183	1	1	1	C	1	1	972	1	Ⴉ	cut_r_stereo_44KHz.wav
3	184	3	3	2	I	2	0	853	0	Ⴒ	cut_ei_stereo_44KHz.wav
3	185	1	2	0	C	2	1	1293	1	Ⴉ	cut_n_stereo_44KHz.wav
3	186	2	2	1	C	1	1	819	1	Ⴕ	cut_n_stereo_44KHz.wav
3	187	4	3	2	I	2	0	762	1	Ⴌ	cut_ei_stereo_44KHz.wav
3	188	3	4	2	I	2	0	1003	1	Ⴒ	cut_j_stereo_44KHz.wav
3	189	4	4	2	I	1	0	1052	1	Ⴌ	cut_j_stereo_44KHz.wav
3	190	1	1	1	C	1	1	927	1	Ⴉ	cut_r_stereo_44KHz.wav
3	191	2	1	0	C	2	1	809	1	Ⴕ	cut_r_stereo_44KHz.wav
3	192	3	3	2	I	2	0	729	0	Ⴒ	cut_ei_stereo_44KHz.wav
3	193	4	4	2	I	1	0	775	1	Ⴌ	cut_j_stereo_44KHz.wav
3	194	1	1	1	C	1	1	1083	1	Ⴉ	cut_r_stereo_44KHz.wav
3	195	2	1	0	C	2	1	659	1	Ⴕ	cut_r_stereo_44KHz.wav
3	196	3	3	2	I	2	0	657	1	Ⴒ	cut_ei_stereo_44KHz.wav
3	197	4	3	2	I	1	0	764	0	Ⴌ	cut_ei_stereo_44KHz.wav
3	198	3	4	2	I	1	0	818	0	Ⴒ	cut_j_stereo_44KHz.wav
3	199	1	2	0	C	2	1	832	1	Ⴉ	cut_n_stereo_44KHz.wav
3	200	2	2	1	C	1	1	1059	1	Ⴕ	cut_n_stereo_44KHz.wav
4	1	4	4	2	I	2	0	894	1	Ⴜ	cut_l_stereo_44KHz.wav
4	2	3	3	2	I	1	0	799	1	Ⴡ	cut_g_stereo_44KHz.wav
4	3	2	2	1	C	1	1	935	1	Ⴊ	cut_w_stereo_44KHz.wav
4	4	1	1	1	C	2	0	760	0	Ⴁ	cut_h_stereo_44KHz.wav
4	5	4	3	2	I	2	0	884	1	Ⴜ	cut_g_stereo_44KHz.wav
4	6	3	4	2	I	2	0	898	0	Ⴡ	cut_l_stereo_44KHz.wav
4	7	1	2	0	C	2	1	975	1	Ⴁ	cut_w_stereo_44KHz.wav
4	8	2	1	0	C	2	1	816	1	Ⴊ	cut_h_stereo_44KHz.wav
4	9	4	4	2	I	2	0	746	1	Ⴜ	cut_l_stereo_44KHz.wav
4	10	2	1	0	C	2	1	618	1	Ⴊ	cut_h_stereo_44KHz.wav
4	11	3	4	2	I	1	0	1037	0	Ⴡ	cut_l_stereo_44KHz.wav
4	12	1	2	0	C	1	0	809	0	Ⴁ	cut_w_stereo_44KHz.wav
4	13	4	3	2	I	1	0	931	1	Ⴜ	cut_g_stereo_44KHz.wav
4	14	3	3	2	I	1	0	906	1	Ⴡ	cut_g_stereo_44KHz.wav
4	15	1	1	1	C	2	0	677	0	Ⴁ	cut_h_stereo_44KHz.wav
4	16	2	2	1	C	2	0	710	0	Ⴊ	cut_w_stereo_44KHz.wav
4	17	3	3	2	I	1	0	1088	1	Ⴡ	cut_g_stereo_44KHz.wav
4	18	2	1	0	C	1	0	835	0	Ⴊ	cut_h_stereo_44KHz.wav
4	19	1	1	1	C	1	1	993	1	Ⴁ	cut_h_stereo_44KHz.wav
4	20	4	3	2	I	1	0	1007	0	Ⴜ	cut_g_stereo_44KHz.wav
4	21	3	4	2	I	2	0	708	0	Ⴡ	cut_l_stereo_44KHz.wav
4	22	4	4	2	I	2	0	985	1	Ⴜ	cut_l_stereo_44KHz.wav
4	23	2	2	1	C	1	1	756	1	Ⴊ	cut_w_stereo_44KHz.wav
4	24	1	2	0	C	1	0	758	0	Ⴁ	cut_w_stereo_44KHz.wav
4	25	3	4	2	I	1	0	760	0	Ⴡ	cut_l_stereo_44KHz.wav
4	26	2	2	1	C	2	0	499	0	Ⴊ	cut_w_stereo_44KHz.wav
4	27	4	4	2	I	2	0	598	1	Ⴜ	cut_l_stereo_44KHz.wav
4	28	1	2	0	C	1	0	740	0	Ⴁ	cut_w_stereo_44KHz.wav
4	29	4	3	2	I	1	0	946	1	Ⴜ	cut_g_stereo_44KHz.wav
4	30	1	1	1	C	2	0	933	0	Ⴁ	cut_h_stereo_44KHz.wav
4	31	3	3	2	I	2	0	784	0	Ⴡ	cut_g_stereo_44KHz.wav
4	32	2	1	0	C	1	0	833	0	Ⴊ	cut_h_stereo_44KHz.wav
4	33	4	3	2	I	1	0	1028	1	Ⴜ	cut_g_stereo_44KHz.wav
4	34	1	2	0	C	2	1	658	1	Ⴁ	cut_w_stereo_44KHz.wav
4	35	3	4	2	I	1	0	1046	0	Ⴡ	cut_l_stereo_44KHz.wav
4	36	2	2	1	C	1	1	957	1	Ⴊ	cut_w_stereo_44KHz.wav
4	37	4	4	2	I	2	0	929	0	Ⴜ	cut_l_stereo_44KHz.wav
4	38	1	1	1	C	2	0	907	0	Ⴁ	cut_h_stereo_44KHz.wav
4	39	2	1	0	C	2	1	1072	1	Ⴊ	cut_h_stereo_44KHz.wav
4	40	3	3	2	I	1	0	995	0	Ⴡ	cut_g_stereo_44KHz.wav
4	41	1	1	1	C	1	1	776	1	Ⴁ	cut_h_stereo_44KHz.wav
4	42	3	3	2	I	2	0	558	1	Ⴡ	cut_g_stereo_44KHz.wav
4	43	4	3	2	I	1	0	912	1	Ⴜ	cut_g_stereo_44KHz.wav
4	44	2	1	0	C	2	1	750	1	Ⴊ	cut_h_stereo_44KHz.wav
4	45	3	4	2	I	1	0	1050	0	Ⴡ	cut_l_stereo_44KHz.wav
4	46	4	4	2	I	2	0	754	1	Ⴜ	cut_l_stereo_44KHz.wav
4	47	1	2	0	C	2	1	522	1	Ⴁ	cut_w_stereo_44KHz.wav
4	48	2	2	1	C	1	1	734	1	Ⴊ	cut_w_stereo_44KHz.wav
4	49	3	4	2	I	2	0	416	1	Ⴡ	cut_l_stereo_44KHz.wav
4	50	1	2	0	C	2	1	891	1	Ⴁ	cut_w_stereo_44KHz.wav
4	51	4	4	2	I	2	0	631	1	Ⴜ	cut_l_stereo_44KHz.wav
4	52	2	1	0	C	2	1	811	1	Ⴊ	cut_h_stereo_44KHz.wav
4	53	1	1	1	C	1	1	1187	1	Ⴁ	cut_h_stereo_44KHz.wav
4	54	3	3	2	I	2	0	1005	1	Ⴡ	cut_g_stereo_44KHz.wav
4	55	4	3	2	I	1	0	739	1	Ⴜ	cut_g_stereo_44KHz.wav
4	56	2	2	1	C	1	1	945	1	Ⴊ	cut_w_stereo_44KHz.wav
4	57	3	4	2	I	1	0	905	1	Ⴡ	cut_l_stereo_44KHz.wav
4	58	2	1	0	C	2	1	872	1	Ⴊ	cut_h_stereo_44KHz.wav
4	59	1	2	0	C	1	0	1038	0	Ⴁ	cut_w_stereo_44KHz.wav
4	60	4	4	2	I	2	0	691	1	Ⴜ	cut_l_stereo_44KHz.wav
4	61	3	3	2	I	2	0	1063	0	Ⴡ	cut_g_stereo_44KHz.wav
4	62	4	3	2	I	1	0	770	1	Ⴜ	cut_g_stereo_44KHz.wav
4	63	2	2	1	C	1	1	1200	1	Ⴊ	cut_w_stereo_44KHz.wav
4	64	1	1	1	C	1	1	981	1	Ⴁ	cut_h_stereo_44KHz.wav
4	65	4	3	2	I	1	0	922	0	Ⴜ	cut_g_stereo_44KHz.wav
4	66	3	4	2	I	2	0	869	0	Ⴡ	cut_l_stereo_44KHz.wav
4	67	2	2	1	C	1	1	1162	1	Ⴊ	cut_w_stereo_44KHz.wav
4	68	1	1	1	C	2	0	956	0	Ⴁ	cut_h_stereo_44KHz.wav
4	69	3	3	2	I	2	0	780	0	Ⴡ	cut_g_stereo_44KHz.wav
4	70	2	1	0	C	2	1	1011	1	Ⴊ	cut_h_stereo_44KHz.wav
4	71	4	4	2	I	2	0	576	0	Ⴜ	cut_l_stereo_44KHz.wav
4	72	1	2	0	C	2	1	1209	1	Ⴁ	cut_w_stereo_44KHz.wav
4	73	2	2	1	C	1	1	768	1	Ⴊ	cut_w_stereo_44KHz.wav
4	74	3	4	2	I	2	0	844	1	Ⴡ	cut_l_stereo_44KHz.wav
4	75	1	2	0	C	2	1	953	1	Ⴁ	cut_w_stereo_44KHz.wav
4	76	4	3	2	I	2	0	601	0	Ⴜ	cut_g_stereo_44KHz.wav
4	77	2	1	0	C	2	1	724	1	Ⴊ	cut_h_stereo_44KHz.wav
4	78	3	3	2	I	2	0	726	1	Ⴡ	cut_g_stereo_44KHz.wav
4	79	4	4	2	I	2	0	1123	0	Ⴜ	cut_l_stereo_44KHz.wav
4	80	1	1	1	C	1	1	1042	1	Ⴁ	cut_h_stereo_44KHz.wav
4	81	2	1	0	C	2	1	894	1	Ⴊ	cut_h_stereo_44KHz.wav
4	82	1	1	1	C	1	1	770	1	Ⴁ	cut_h_stereo_44KHz.wav
4	83	3	4	2	I	2	0	827	1	Ⴡ	cut_l_stereo_44KHz.wav
4	84	4	3	2	I	1	0	939	0	Ⴜ	cut_g_stereo_44KHz.wav
4	85	1	2	0	C	2	1	835	1	Ⴁ	cut_w_stereo_44KHz.wav
4	86	4	4	2	I	2	0	785	0	Ⴜ	cut_l_stereo_44KHz.wav
4	87	2	2	1	C	2	0	1000	0	Ⴊ	cut_w_stereo_44KHz.wav
4	88	3	3	2	I	2	0	725	0	Ⴡ	cut_g_stereo_44KHz.wav
4	89	1	2	0	C	2	1	854	1	Ⴁ	cut_w_stereo_44KHz.wav
4	90	2	1	0	C	2	1	746	1	Ⴊ	cut_h_stereo_44KHz.wav
4	91	3	3	2	I	1	0	835	0	Ⴡ	cut_g_stereo_44KHz.wav
4	92	4	4	2	I	2	0	711	0	Ⴜ	cut_l_stereo_44KHz.wav
4	93	2	2	1	C	1	1	1024	1	Ⴊ	cut_w_stereo_44KHz.wav
4	94	4	3	2	I	2	0	702	0	Ⴜ	cut_g_stereo_44KHz.wav
4	95	3	4	2	I	2	0	995	0	Ⴡ	cut_l_stereo_44KHz.wav
4	96	1	1	1	C	1	1	958	1	Ⴁ	cut_h_stereo_44KHz.wav
4	97	4	3	2	I	1	0	1195	0	Ⴜ	cut_g_stereo_44KHz.wav
4	98	2	1	0	C	1	0	1361	0	Ⴊ	cut_h_stereo_44KHz.wav
4	99	1	2	0	C	1	0	904	0	Ⴁ	cut_w_stereo_44KHz.wav
4	100	3	3	2	I	2	0	699	1	Ⴡ	cut_g_stereo_44KHz.wav
4	101	4	4	2	I	2	0	936	0	Ⴜ	cut_l_stereo_44KHz.wav
4	102	1	1	1	C	1	1	1237	1	Ⴁ	cut_h_stereo_44KHz.wav
4	103	3	4	2	I	1	0	1012	0	Ⴡ	cut_l_stereo_44KHz.wav
4	104	2	2	1	C	1	1	989	1	Ⴊ	cut_w_stereo_44KHz.wav
4	105	3	3	2	I	2	0	745	1	Ⴡ	cut_g_stereo_44KHz.wav
4	106	1	1	1	C	1	1	1140	1	Ⴁ	cut_h_stereo_44KHz.wav
4	107	4	3	2	I	1	0	1051	1	Ⴜ	cut_g_stereo_44KHz.wav
4	108	2	2	1	C	1	1	1060	1	Ⴊ	cut_w_stereo_44KHz.wav
4	109	3	4	2	I	2	0	1049	1	Ⴡ	cut_l_stereo_44KHz.wav
4	110	1	2	0	C	2	1	760	1	Ⴁ	cut_w_stereo_44KHz.wav
4	111	4	4	2	I	1	0	746	0	Ⴜ	cut_l_stereo_44KHz.wav
4	112	2	1	0	C	2	1	804	1	Ⴊ	cut_h_stereo_44KHz.wav
4	113	4	3	2	I	1	0	923	1	Ⴜ	cut_g_stereo_44KHz.wav
4	114	3	3	2	I	2	0	869	1	Ⴡ	cut_g_stereo_44KHz.wav
4	115	1	1	1	C	1	1	842	1	Ⴁ	cut_h_stereo_44KHz.wav
4	116	2	2	1	C	1	1	1095	1	Ⴊ	cut_w_stereo_44KHz.wav
4	117	4	4	2	I	2	0	850	0	Ⴜ	cut_l_stereo_44KHz.wav
4	118	2	1	0	C	2	1	1091	1	Ⴊ	cut_h_stereo_44KHz.wav
4	119	3	4	2	I	2	0	757	0	Ⴡ	cut_l_stereo_44KHz.wav
4	120	1	2	0	C	1	0	1141	0	Ⴁ	cut_w_stereo_44KHz.wav
4	121	2	1	0	C	2	1	910	1	Ⴊ	cut_h_stereo_44KHz.wav
4	122	1	1	1	C	1	1	1004	1	Ⴁ	cut_h_stereo_44KHz.wav
4	123	4	3	2	I	2	0	909	1	Ⴜ	cut_g_stereo_44KHz.wav
4	124	3	4	2	I	2	0	607	0	Ⴡ	cut_l_stereo_44KHz.wav
4	125	2	2	1	C	1	1	775	1	Ⴊ	cut_w_stereo_44KHz.wav
4	126	4	4	2	I	2	0	818	0	Ⴜ	cut_l_stereo_44KHz.wav
4	127	3	3	2	I	1	0	1118	1	Ⴡ	cut_g_stereo_44KHz.wav
4	128	1	2	0	C	2	1	832	1	Ⴁ	cut_w_stereo_44KHz.wav
4	129	4	4	2	I	2	0	532	0	Ⴜ	cut_l_stereo_44KHz.wav
4	130	2	1	0	C	2	1	1174	1	Ⴊ	cut_h_stereo_44KHz.wav
4	131	3	3	2	I	2	0	929	1	Ⴡ	cut_g_stereo_44KHz.wav
4	132	1	2	0	C	2	1	1079	1	Ⴁ	cut_w_stereo_44KHz.wav
4	133	3	4	2	I	1	0	1120	1	Ⴡ	cut_l_stereo_44KHz.wav
4	134	1	1	1	C	1	1	1600	1	Ⴁ	cut_h_stereo_44KHz.wav
4	135	2	2	1	C	1	1	1066	1	Ⴊ	cut_w_stereo_44KHz.wav
4	136	4	3	2	I	2	0	1171	0	Ⴜ	cut_g_stereo_44KHz.wav
4	137	1	2	0	C	1	0	870	0	Ⴁ	cut_w_stereo_44KHz.wav
4	138	2	1	0	C	2	1	1605	1	Ⴊ	cut_h_stereo_44KHz.wav
4	139	4	4	2	I	2	0	840	1	Ⴜ	cut_l_stereo_44KHz.wav
4	140	3	3	2	I	1	0	1105	0	Ⴡ	cut_g_stereo_44KHz.wav
4	141	1	1	1	C	1	1	1034	1	Ⴁ	cut_h_stereo_44KHz.wav
4	142	4	3	2	I	2	0	868	1	Ⴜ	cut_g_stereo_44KHz.wav
4	143	2	2	1	C	1	1	885	1	Ⴊ	cut_w_stereo_44KHz.wav
4	144	3	4	2	I	1	0	985	1	Ⴡ	cut_l_stereo_44KHz.wav
4	145	4	4	2	I	1	0	871	1	Ⴜ	cut_l_stereo_44KHz.wav
4	146	3	3	2	I	2	0	885	1	Ⴡ	cut_g_stereo_44KHz.wav
4	147	2	2	1	C	1	1	891	1	Ⴊ	cut_w_stereo_44KHz.wav
4	148	1	2	0	C	2	1	582	1	Ⴁ	cut_w_stereo_44KHz.wav
4	149	4	3	2	I	1	0	921	0	Ⴜ	cut_g_stereo_44KHz.wav
4	150	2	1	0	C	2	1	1031	1	Ⴊ	cut_h_stereo_44KHz.wav
4	151	3	4	2	I	1	0	981	0	Ⴡ	cut_l_stereo_44KHz.wav
4	152	1	1	1	C	1	1	1353	1	Ⴁ	cut_h_stereo_44KHz.wav
4	153	2	2	1	C	1	1	918	1	Ⴊ	cut_w_stereo_44KHz.wav
4	154	1	2	0	C	2	1	1103	1	Ⴁ	cut_w_stereo_44KHz.wav
4	155	4	4	2	I	2	0	1166	0	Ⴜ	cut_l_stereo_44KHz.wav
4	156	3	3	2	I	2	0	843	0	Ⴡ	cut_g_stereo_44KHz.wav
4	157	2	1	0	C	2	1	1455	1	Ⴊ	cut_h_stereo_44KHz.wav
4	158	4	3	2	I	1	0	1014	1	Ⴜ	cut_g_stereo_44KHz.wav
4	159	1	1	1	C	1	1	1106	1	Ⴁ	cut_h_stereo_44KHz.wav
4	160	3	4	2	I	2	0	718	1	Ⴡ	cut_l_stereo_44KHz.wav
4	161	1	1	1	C	1	1	1293	1	Ⴁ	cut_h_stereo_44KHz.wav
4	162	2	2	1	C	1	1	927	1	Ⴊ	cut_w_stereo_44KHz.wav
4	163	3	4	2	I	2	0	663	0	Ⴡ	cut_l_stereo_44KHz.wav
4	164	4	3	2	I	2	0	882	0	Ⴜ	cut_g_stereo_44KHz.wav
4	165	2	1	0	C	1	0	1069	0	Ⴊ	cut_h_stereo_44KHz.wav
4	166	1	2	0	C	2	1	891	1	Ⴁ	cut_w_stereo_44KHz.wav
4	167	4	4	2	I	2	0	773	1	Ⴜ	cut_l_stereo_44KHz.wav
4	168	3	3	2	I	1	0	792	1	Ⴡ	cut_g_stereo_44KHz.wav
4	169	2	1	0	C	2	1	939	1	Ⴊ	cut_h_stereo_44KHz.wav
4	170	4	3	2	I	1	0	735	0	Ⴜ	cut_g_stereo_44KHz.wav
4	171	1	2	0	C	1	0	1103	0	Ⴁ	cut_w_stereo_44KHz.wav
4	172	3	3	2	I	1	0	828	0	Ⴡ	cut_g_stereo_44KHz.wav
4	173	1	1	1	C	2	0	632	0	Ⴁ	cut_h_stereo_44KHz.wav
4	174	2	2	1	C	1	1	926	1	Ⴊ	cut_w_stereo_44KHz.wav
4	175	3	4	2	I	2	0	1202	0	Ⴡ	cut_l_stereo_44KHz.wav
4	176	4	4	2	I	2	0	907	0	Ⴜ	cut_l_stereo_44KHz.wav
4	177	2	2	1	C	1	1	1023	1	Ⴊ	cut_w_stereo_44KHz.wav
4	178	3	4	2	I	2	0	801	1	Ⴡ	cut_l_stereo_44KHz.wav
4	179	4	4	2	I	1	0	680	1	Ⴜ	cut_l_stereo_44KHz.wav
4	180	1	2	0	C	2	1	1104	1	Ⴁ	cut_w_stereo_44KHz.wav
4	181	3	3	2	I	2	0	873	0	Ⴡ	cut_g_stereo_44KHz.wav
4	182	1	1	1	C	1	1	942	1	Ⴁ	cut_h_stereo_44KHz.wav
4	183	2	1	0	C	1	0	802	0	Ⴊ	cut_h_stereo_44KHz.wav
4	184	4	3	2	I	2	0	785	0	Ⴜ	cut_g_stereo_44KHz.wav
4	185	2	1	0	C	2	1	1058	1	Ⴊ	cut_h_stereo_44KHz.wav
4	186	1	2	0	C	2	1	647	1	Ⴁ	cut_w_stereo_44KHz.wav
4	187	3	3	2	I	2	0	927	1	Ⴡ	cut_g_stereo_44KHz.wav
4	188	4	4	2	I	2	0	736	0	Ⴜ	cut_l_stereo_44KHz.wav
4	189	3	4	2	I	1	0	897	0	Ⴡ	cut_l_stereo_44KHz.wav
4	190	2	2	1	C	1	1	1058	1	Ⴊ	cut_w_stereo_44KHz.wav
4	191	4	3	2	I	1	0	937	1	Ⴜ	cut_g_stereo_44KHz.wav
4	192	1	1	1	C	2	0	1057	0	Ⴁ	cut_h_stereo_44KHz.wav
4	193	4	4	2	I	2	0	1071	0	Ⴜ	cut_l_stereo_44KHz.wav
4	194	3	4	2	I	1	0	904	1	Ⴡ	cut_l_stereo_44KHz.wav
4	195	2	1	0	C	2	1	746	1	Ⴊ	cut_h_stereo_44KHz.wav
4	196	1	2	0	C	1	0	905	0	Ⴁ	cut_w_stereo_44KHz.wav
4	197	4	3	2	I	2	0	920	1	Ⴜ	cut_g_stereo_44KHz.wav
4	198	3	3	2	I	1	0	1091	1	Ⴡ	cut_g_stereo_44KHz.wav
4	199	2	2	1	C	2	0	839	0	Ⴊ	cut_w_stereo_44KHz.wav
4	200	1	1	1	C	1	1	912	1	Ⴁ	cut_h_stereo_44KHz.wav
