block	trial	Vstim	Astim	match	C/I	resp	result	RT	fb	V-file	A-file
RL

0	1	2	4	0	C	2	1	1239	1	poli_8sides 21_whiteLine3.jpg	Practice3_b26_cut1_stereo_44KHz.wav
0	2	2	3	1	C	1	1	788	1	poli_8sides 21_whiteLine3.jpg	Practice1_b27_cut1_stereo_44KHz.wav
0	3	1	1	1	C	1	1	782	1	poli_8sides 23_whiteLine3.jpg	Practice4_b26_stereo_44KHz.wav
0	4	1	2	0	C	2	1	690	1	poli_8sides 23_whiteLine3.jpg	Practice2_b27_cut2_stereo_44KHz.wav
0	5	1	2	0	C	2	1	893	1	poli_8sides 23_whiteLine3.jpg	Practice2_b27_cut2_stereo_44KHz.wav
0	6	1	1	1	C	1	1	774	1	poli_8sides 23_whiteLine3.jpg	Practice4_b26_stereo_44KHz.wav
0	7	2	3	1	C	1	1	1011	1	poli_8sides 21_whiteLine3.jpg	Practice1_b27_cut1_stereo_44KHz.wav
0	8	2	4	0	C	2	1	1046	1	poli_8sides 21_whiteLine3.jpg	Practice3_b26_cut1_stereo_44KHz.wav
0	9	1	2	0	C	2	1	867	1	poli_8sides 23_whiteLine3.jpg	Practice2_b27_cut2_stereo_44KHz.wav
0	10	2	3	1	C	1	1	995	1	poli_8sides 21_whiteLine3.jpg	Practice1_b27_cut1_stereo_44KHz.wav
0	11	1	1	1	C	2	0	834	0	poli_8sides 23_whiteLine3.jpg	Practice4_b26_stereo_44KHz.wav
0	12	2	4	0	C	2	1	819	1	poli_8sides 21_whiteLine3.jpg	Practice3_b26_cut1_stereo_44KHz.wav
0	13	1	2	0	C	2	1	714	1	poli_8sides 23_whiteLine3.jpg	Practice2_b27_cut2_stereo_44KHz.wav
0	14	2	3	1	C	1	1	932	1	poli_8sides 21_whiteLine3.jpg	Practice1_b27_cut1_stereo_44KHz.wav
0	15	1	1	1	C	1	1	1105	1	poli_8sides 23_whiteLine3.jpg	Practice4_b26_stereo_44KHz.wav
0	16	2	4	0	C	2	1	567	1	poli_8sides 21_whiteLine3.jpg	Practice3_b26_cut1_stereo_44KHz.wav
0	17	1	2	0	C	1	0	594	0	poli_8sides 23_whiteLine3.jpg	Practice2_b27_cut2_stereo_44KHz.wav
0	18	2	3	1	C	1	1	1182	1	poli_8sides 21_whiteLine3.jpg	Practice1_b27_cut1_stereo_44KHz.wav
0	19	2	4	0	C	1	0	850	0	poli_8sides 21_whiteLine3.jpg	Practice3_b26_cut1_stereo_44KHz.wav
0	20	1	1	1	C	1	1	1054	1	poli_8sides 23_whiteLine3.jpg	Practice4_b26_stereo_44KHz.wav
0	21	1	1	1	C	2	0	1217	0	poli_8sides 23_whiteLine3.jpg	Practice4_b26_stereo_44KHz.wav
0	22	1	2	0	C	2	1	840	1	poli_8sides 23_whiteLine3.jpg	Practice2_b27_cut2_stereo_44KHz.wav
0	23	2	3	1	C	1	1	932	1	poli_8sides 21_whiteLine3.jpg	Practice1_b27_cut1_stereo_44KHz.wav
0	24	2	4	0	C	2	1	944	1	poli_8sides 21_whiteLine3.jpg	Practice3_b26_cut1_stereo_44KHz.wav
0	25	1	1	1	C	1	1	940	1	poli_8sides 23_whiteLine3.jpg	Practice4_b26_stereo_44KHz.wav
0	26	2	4	0	C	2	1	894	1	poli_8sides 21_whiteLine3.jpg	Practice3_b26_cut1_stereo_44KHz.wav
0	27	2	3	1	C	1	1	1285	1	poli_8sides 21_whiteLine3.jpg	Practice1_b27_cut1_stereo_44KHz.wav
0	28	1	2	0	C	2	1	1319	1	poli_8sides 23_whiteLine3.jpg	Practice2_b27_cut2_stereo_44KHz.wav
0	29	1	2	0	C	2	1	872	1	poli_8sides 23_whiteLine3.jpg	Practice2_b27_cut2_stereo_44KHz.wav
0	30	2	3	1	C	1	1	973	1	poli_8sides 21_whiteLine3.jpg	Practice1_b27_cut1_stereo_44KHz.wav
avg_resp = 941
1	1	2	2	1	C	1	1	1175	1	poli_8sides 9_whiteLine3.jpg	Medium_e01_cut1_stereo_44KHz.wav
1	2	3	4	2	I	2	0	764	1	poli_8sides 10_whiteLine3.jpg	Medium_e21_stereo_44KHz.wav
1	3	1	1	1	C	2	0	937	0	poli_8sides 11_whiteLine3.jpg	MediumLong_e04_stereo_44KHz.wav
1	4	4	4	2	I	1	0	797	1	poli_8sides 13_whiteLine3.jpg	Medium_e21_stereo_44KHz.wav
1	5	3	3	2	I	2	0	813	0	poli_8sides 10_whiteLine3.jpg	MediumLong_e17_cut2_stereo_44KHz.wav
1	6	2	1	0	C	2	1	752	1	poli_8sides 9_whiteLine3.jpg	MediumLong_e04_stereo_44KHz.wav
1	7	4	3	2	I	1	0	832	1	poli_8sides 13_whiteLine3.jpg	MediumLong_e17_cut2_stereo_44KHz.wav
1	8	1	2	0	C	2	1	1062	1	poli_8sides 11_whiteLine3.jpg	Medium_e01_cut1_stereo_44KHz.wav
1	9	2	1	0	C	2	1	552	1	poli_8sides 9_whiteLine3.jpg	MediumLong_e04_stereo_44KHz.wav
1	10	1	2	0	C	2	1	620	1	poli_8sides 11_whiteLine3.jpg	Medium_e01_cut1_stereo_44KHz.wav
1	11	4	3	2	I	2	0	898	0	poli_8sides 13_whiteLine3.jpg	MediumLong_e17_cut2_stereo_44KHz.wav
1	12	3	4	2	I	2	0	858	1	poli_8sides 10_whiteLine3.jpg	Medium_e21_stereo_44KHz.wav
1	13	4	4	2	I	1	0	868	1	poli_8sides 13_whiteLine3.jpg	Medium_e21_stereo_44KHz.wav
1	14	1	1	1	C	2	0	774	0	poli_8sides 11_whiteLine3.jpg	MediumLong_e04_stereo_44KHz.wav
1	15	3	3	2	I	2	0	844	0	poli_8sides 10_whiteLine3.jpg	MediumLong_e17_cut2_stereo_44KHz.wav
1	16	2	2	1	C	2	0	634	0	poli_8sides 9_whiteLine3.jpg	Medium_e01_cut1_stereo_44KHz.wav
1	17	1	2	0	C	2	1	817	1	poli_8sides 11_whiteLine3.jpg	Medium_e01_cut1_stereo_44KHz.wav
1	18	4	4	2	I	2	0	954	0	poli_8sides 13_whiteLine3.jpg	Medium_e21_stereo_44KHz.wav
1	19	2	1	0	C	2	1	697	1	poli_8sides 9_whiteLine3.jpg	MediumLong_e04_stereo_44KHz.wav
1	20	3	3	2	I	1	0	1019	1	poli_8sides 10_whiteLine3.jpg	MediumLong_e17_cut2_stereo_44KHz.wav
1	21	1	1	1	C	2	0	806	0	poli_8sides 11_whiteLine3.jpg	MediumLong_e04_stereo_44KHz.wav
1	22	4	3	2	I	1	0	1161	1	poli_8sides 13_whiteLine3.jpg	MediumLong_e17_cut2_stereo_44KHz.wav
1	23	3	4	2	I	1	0	1239	1	poli_8sides 10_whiteLine3.jpg	Medium_e21_stereo_44KHz.wav
1	24	2	2	1	C	1	1	913	1	poli_8sides 9_whiteLine3.jpg	Medium_e01_cut1_stereo_44KHz.wav
1	25	1	1	1	C	1	1	1009	1	poli_8sides 11_whiteLine3.jpg	MediumLong_e04_stereo_44KHz.wav
1	26	4	3	2	I	1	0	993	1	poli_8sides 13_whiteLine3.jpg	MediumLong_e17_cut2_stereo_44KHz.wav
1	27	2	1	0	C	2	1	893	1	poli_8sides 9_whiteLine3.jpg	MediumLong_e04_stereo_44KHz.wav
1	28	3	3	2	I	1	0	973	0	poli_8sides 10_whiteLine3.jpg	MediumLong_e17_cut2_stereo_44KHz.wav
1	29	4	4	2	I	2	0	1458	0	poli_8sides 13_whiteLine3.jpg	Medium_e21_stereo_44KHz.wav
1	30	2	2	1	C	1	1	1013	1	poli_8sides 9_whiteLine3.jpg	Medium_e01_cut1_stereo_44KHz.wav
1	31	3	4	2	I	2	0	1065	0	poli_8sides 10_whiteLine3.jpg	Medium_e21_stereo_44KHz.wav
1	32	1	2	0	C	2	1	808	1	poli_8sides 11_whiteLine3.jpg	Medium_e01_cut1_stereo_44KHz.wav
1	33	3	4	2	I	1	0	1042	1	poli_8sides 10_whiteLine3.jpg	Medium_e21_stereo_44KHz.wav
1	34	1	1	1	C	1	1	1114	1	poli_8sides 11_whiteLine3.jpg	MediumLong_e04_stereo_44KHz.wav
1	35	4	3	2	I	2	0	778	0	poli_8sides 13_whiteLine3.jpg	MediumLong_e17_cut2_stereo_44KHz.wav
1	36	2	1	0	C	1	0	1023	0	poli_8sides 9_whiteLine3.jpg	MediumLong_e04_stereo_44KHz.wav
1	37	1	2	0	C	2	1	939	1	poli_8sides 11_whiteLine3.jpg	Medium_e01_cut1_stereo_44KHz.wav
1	38	2	2	1	C	1	1	1138	1	poli_8sides 9_whiteLine3.jpg	Medium_e01_cut1_stereo_44KHz.wav
1	39	3	3	2	I	1	0	974	1	poli_8sides 10_whiteLine3.jpg	MediumLong_e17_cut2_stereo_44KHz.wav
1	40	4	4	2	I	1	0	1096	0	poli_8sides 13_whiteLine3.jpg	Medium_e21_stereo_44KHz.wav
1	41	2	2	1	C	1	1	970	1	poli_8sides 9_whiteLine3.jpg	Medium_e01_cut1_stereo_44KHz.wav
1	42	1	2	0	C	2	1	910	1	poli_8sides 11_whiteLine3.jpg	Medium_e01_cut1_stereo_44KHz.wav
1	43	4	3	2	I	2	0	1093	1	poli_8sides 13_whiteLine3.jpg	MediumLong_e17_cut2_stereo_44KHz.wav
1	44	3	3	2	I	1	0	1091	0	poli_8sides 10_whiteLine3.jpg	MediumLong_e17_cut2_stereo_44KHz.wav
1	45	2	1	0	C	2	1	1009	1	poli_8sides 9_whiteLine3.jpg	MediumLong_e04_stereo_44KHz.wav
1	46	1	1	1	C	1	1	1001	1	poli_8sides 11_whiteLine3.jpg	MediumLong_e04_stereo_44KHz.wav
1	47	3	4	2	I	1	0	1036	0	poli_8sides 10_whiteLine3.jpg	Medium_e21_stereo_44KHz.wav
1	48	4	4	2	I	1	0	883	0	poli_8sides 13_whiteLine3.jpg	Medium_e21_stereo_44KHz.wav
1	49	3	3	2	I	1	0	1102	0	poli_8sides 10_whiteLine3.jpg	MediumLong_e17_cut2_stereo_44KHz.wav
1	50	2	2	1	C	1	1	991	1	poli_8sides 9_whiteLine3.jpg	Medium_e01_cut1_stereo_44KHz.wav
1	51	1	1	1	C	1	1	1034	1	poli_8sides 11_whiteLine3.jpg	MediumLong_e04_stereo_44KHz.wav
1	52	4	3	2	I	2	0	987	1	poli_8sides 13_whiteLine3.jpg	MediumLong_e17_cut2_stereo_44KHz.wav
1	53	3	4	2	I	1	0	1132	1	poli_8sides 10_whiteLine3.jpg	Medium_e21_stereo_44KHz.wav
1	54	1	2	0	C	2	1	854	1	poli_8sides 11_whiteLine3.jpg	Medium_e01_cut1_stereo_44KHz.wav
1	55	2	1	0	C	2	1	544	1	poli_8sides 9_whiteLine3.jpg	MediumLong_e04_stereo_44KHz.wav
1	56	4	4	2	I	1	0	1052	1	poli_8sides 13_whiteLine3.jpg	Medium_e21_stereo_44KHz.wav
1	57	2	2	1	C	1	1	1032	1	poli_8sides 9_whiteLine3.jpg	Medium_e01_cut1_stereo_44KHz.wav
1	58	3	3	2	I	2	0	795	1	poli_8sides 10_whiteLine3.jpg	MediumLong_e17_cut2_stereo_44KHz.wav
1	59	4	4	2	I	1	0	661	0	poli_8sides 13_whiteLine3.jpg	Medium_e21_stereo_44KHz.wav
1	60	1	2	0	C	2	1	784	1	poli_8sides 11_whiteLine3.jpg	Medium_e01_cut1_stereo_44KHz.wav
1	61	2	1	0	C	2	1	859	1	poli_8sides 9_whiteLine3.jpg	MediumLong_e04_stereo_44KHz.wav
1	62	4	3	2	I	1	0	799	0	poli_8sides 13_whiteLine3.jpg	MediumLong_e17_cut2_stereo_44KHz.wav
1	63	3	4	2	I	2	0	734	0	poli_8sides 10_whiteLine3.jpg	Medium_e21_stereo_44KHz.wav
1	64	1	1	1	C	1	1	948	1	poli_8sides 11_whiteLine3.jpg	MediumLong_e04_stereo_44KHz.wav
1	65	2	1	0	C	1	0	950	0	poli_8sides 9_whiteLine3.jpg	MediumLong_e04_stereo_44KHz.wav
1	66	1	2	0	C	2	1	987	1	poli_8sides 11_whiteLine3.jpg	Medium_e01_cut1_stereo_44KHz.wav
1	67	3	4	2	I	2	0	943	1	poli_8sides 10_whiteLine3.jpg	Medium_e21_stereo_44KHz.wav
1	68	4	4	2	I	1	0	961	0	poli_8sides 13_whiteLine3.jpg	Medium_e21_stereo_44KHz.wav
1	69	3	3	2	I	2	0	649	0	poli_8sides 10_whiteLine3.jpg	MediumLong_e17_cut2_stereo_44KHz.wav
1	70	4	3	2	I	2	0	637	0	poli_8sides 13_whiteLine3.jpg	MediumLong_e17_cut2_stereo_44KHz.wav
1	71	1	1	1	C	1	1	979	1	poli_8sides 11_whiteLine3.jpg	MediumLong_e04_stereo_44KHz.wav
1	72	2	2	1	C	1	1	852	1	poli_8sides 9_whiteLine3.jpg	Medium_e01_cut1_stereo_44KHz.wav
1	73	3	3	2	I	2	0	90	1	poli_8sides 10_whiteLine3.jpg	MediumLong_e17_cut2_stereo_44KHz.wav
1	74	2	2	1	C	1	1	975	1	poli_8sides 9_whiteLine3.jpg	Medium_e01_cut1_stereo_44KHz.wav
1	75	4	3	2	I	2	0	1057	1	poli_8sides 13_whiteLine3.jpg	MediumLong_e17_cut2_stereo_44KHz.wav
1	76	1	2	0	C	2	1	800	1	poli_8sides 11_whiteLine3.jpg	Medium_e01_cut1_stereo_44KHz.wav
1	77	2	1	0	C	2	1	959	1	poli_8sides 9_whiteLine3.jpg	MediumLong_e04_stereo_44KHz.wav
1	78	4	4	2	I	2	0	808	1	poli_8sides 13_whiteLine3.jpg	Medium_e21_stereo_44KHz.wav
1	79	3	4	2	I	2	0	842	1	poli_8sides 10_whiteLine3.jpg	Medium_e21_stereo_44KHz.wav
1	80	1	1	1	C	1	1	1147	1	poli_8sides 11_whiteLine3.jpg	MediumLong_e04_stereo_44KHz.wav
1	81	3	3	2	I	2	0	851	0	poli_8sides 10_whiteLine3.jpg	MediumLong_e17_cut2_stereo_44KHz.wav
1	82	4	4	2	I	2	0	1215	0	poli_8sides 13_whiteLine3.jpg	Medium_e21_stereo_44KHz.wav
1	83	1	2	0	C	2	1	814	1	poli_8sides 11_whiteLine3.jpg	Medium_e01_cut1_stereo_44KHz.wav
1	84	2	2	1	C	1	1	1147	1	poli_8sides 9_whiteLine3.jpg	Medium_e01_cut1_stereo_44KHz.wav
1	85	4	3	2	I	2	0	866	1	poli_8sides 13_whiteLine3.jpg	MediumLong_e17_cut2_stereo_44KHz.wav
1	86	3	4	2	I	1	0	823	1	poli_8sides 10_whiteLine3.jpg	Medium_e21_stereo_44KHz.wav
1	87	2	1	0	C	2	1	734	1	poli_8sides 9_whiteLine3.jpg	MediumLong_e04_stereo_44KHz.wav
1	88	1	1	1	C	1	1	930	1	poli_8sides 11_whiteLine3.jpg	MediumLong_e04_stereo_44KHz.wav
1	89	3	3	2	I	1	0	1067	1	poli_8sides 10_whiteLine3.jpg	MediumLong_e17_cut2_stereo_44KHz.wav
1	90	1	2	0	C	2	1	821	1	poli_8sides 11_whiteLine3.jpg	Medium_e01_cut1_stereo_44KHz.wav
1	91	4	3	2	I	2	0	840	0	poli_8sides 13_whiteLine3.jpg	MediumLong_e17_cut2_stereo_44KHz.wav
1	92	2	1	0	C	2	1	865	1	poli_8sides 9_whiteLine3.jpg	MediumLong_e04_stereo_44KHz.wav
1	93	3	4	2	I	1	0	731	1	poli_8sides 10_whiteLine3.jpg	Medium_e21_stereo_44KHz.wav
1	94	4	4	2	I	1	0	752	1	poli_8sides 13_whiteLine3.jpg	Medium_e21_stereo_44KHz.wav
1	95	2	2	1	C	1	1	710	1	poli_8sides 9_whiteLine3.jpg	Medium_e01_cut1_stereo_44KHz.wav
1	96	1	1	1	C	1	1	794	1	poli_8sides 11_whiteLine3.jpg	MediumLong_e04_stereo_44KHz.wav
1	97	3	3	2	I	2	0	942	1	poli_8sides 10_whiteLine3.jpg	MediumLong_e17_cut2_stereo_44KHz.wav
1	98	1	2	0	C	2	1	806	1	poli_8sides 11_whiteLine3.jpg	Medium_e01_cut1_stereo_44KHz.wav
1	99	2	1	0	C	2	1	822	1	poli_8sides 9_whiteLine3.jpg	MediumLong_e04_stereo_44KHz.wav
1	100	4	4	2	I	2	0	752	1	poli_8sides 13_whiteLine3.jpg	Medium_e21_stereo_44KHz.wav
1	101	3	4	2	I	2	0	607	1	poli_8sides 10_whiteLine3.jpg	Medium_e21_stereo_44KHz.wav
1	102	1	1	1	C	1	1	847	1	poli_8sides 11_whiteLine3.jpg	MediumLong_e04_stereo_44KHz.wav
1	103	4	3	2	I	2	0	675	0	poli_8sides 13_whiteLine3.jpg	MediumLong_e17_cut2_stereo_44KHz.wav
1	104	2	2	1	C	1	1	783	1	poli_8sides 9_whiteLine3.jpg	Medium_e01_cut1_stereo_44KHz.wav
1	105	3	4	2	I	2	0	726	0	poli_8sides 10_whiteLine3.jpg	Medium_e21_stereo_44KHz.wav
1	106	2	1	0	C	2	1	594	1	poli_8sides 9_whiteLine3.jpg	MediumLong_e04_stereo_44KHz.wav
1	107	1	1	1	C	1	1	846	1	poli_8sides 11_whiteLine3.jpg	MediumLong_e04_stereo_44KHz.wav
1	108	4	4	2	I	2	0	775	0	poli_8sides 13_whiteLine3.jpg	Medium_e21_stereo_44KHz.wav
1	109	2	2	1	C	1	1	941	1	poli_8sides 9_whiteLine3.jpg	Medium_e01_cut1_stereo_44KHz.wav
1	110	3	3	2	I	2	0	731	1	poli_8sides 10_whiteLine3.jpg	MediumLong_e17_cut2_stereo_44KHz.wav
1	111	1	2	0	C	2	1	801	1	poli_8sides 11_whiteLine3.jpg	Medium_e01_cut1_stereo_44KHz.wav
1	112	4	3	2	I	1	0	806	0	poli_8sides 13_whiteLine3.jpg	MediumLong_e17_cut2_stereo_44KHz.wav
1	113	1	1	1	C	1	1	1223	1	poli_8sides 11_whiteLine3.jpg	MediumLong_e04_stereo_44KHz.wav
1	114	2	1	0	C	2	1	970	1	poli_8sides 9_whiteLine3.jpg	MediumLong_e04_stereo_44KHz.wav
1	115	4	4	2	I	1	0	733	0	poli_8sides 13_whiteLine3.jpg	Medium_e21_stereo_44KHz.wav
1	116	3	4	2	I	2	0	733	1	poli_8sides 10_whiteLine3.jpg	Medium_e21_stereo_44KHz.wav
1	117	4	3	2	I	1	0	964	0	poli_8sides 13_whiteLine3.jpg	MediumLong_e17_cut2_stereo_44KHz.wav
1	118	2	2	1	C	1	1	1022	1	poli_8sides 9_whiteLine3.jpg	Medium_e01_cut1_stereo_44KHz.wav
1	119	3	3	2	I	2	0	790	1	poli_8sides 10_whiteLine3.jpg	MediumLong_e17_cut2_stereo_44KHz.wav
1	120	1	2	0	C	2	1	830	1	poli_8sides 11_whiteLine3.jpg	Medium_e01_cut1_stereo_44KHz.wav
1	121	3	4	2	I	2	0	938	0	poli_8sides 10_whiteLine3.jpg	Medium_e21_stereo_44KHz.wav
1	122	4	4	2	I	1	0	1338	0	poli_8sides 13_whiteLine3.jpg	Medium_e21_stereo_44KHz.wav
1	123	2	1	0	C	2	1	800	1	poli_8sides 9_whiteLine3.jpg	MediumLong_e04_stereo_44KHz.wav
1	124	1	1	1	C	1	1	1286	1	poli_8sides 11_whiteLine3.jpg	MediumLong_e04_stereo_44KHz.wav
1	125	3	3	2	I	2	0	796	0	poli_8sides 10_whiteLine3.jpg	MediumLong_e17_cut2_stereo_44KHz.wav
1	126	2	2	1	C	1	1	883	1	poli_8sides 9_whiteLine3.jpg	Medium_e01_cut1_stereo_44KHz.wav
1	127	1	2	0	C	2	1	1077	1	poli_8sides 11_whiteLine3.jpg	Medium_e01_cut1_stereo_44KHz.wav
1	128	4	3	2	I	2	0	843	1	poli_8sides 13_whiteLine3.jpg	MediumLong_e17_cut2_stereo_44KHz.wav
1	129	1	1	1	C	1	1	880	1	poli_8sides 11_whiteLine3.jpg	MediumLong_e04_stereo_44KHz.wav
1	130	3	4	2	I	2	0	945	0	poli_8sides 10_whiteLine3.jpg	Medium_e21_stereo_44KHz.wav
1	131	2	2	1	C	1	1	814	1	poli_8sides 9_whiteLine3.jpg	Medium_e01_cut1_stereo_44KHz.wav
1	132	4	4	2	I	2	0	636	1	poli_8sides 13_whiteLine3.jpg	Medium_e21_stereo_44KHz.wav
1	133	1	2	0	C	1	0	1168	0	poli_8sides 11_whiteLine3.jpg	Medium_e01_cut1_stereo_44KHz.wav
1	134	2	1	0	C	2	1	844	1	poli_8sides 9_whiteLine3.jpg	MediumLong_e04_stereo_44KHz.wav
1	135	4	3	2	I	2	0	757	0	poli_8sides 13_whiteLine3.jpg	MediumLong_e17_cut2_stereo_44KHz.wav
1	136	3	3	2	I	1	0	933	0	poli_8sides 10_whiteLine3.jpg	MediumLong_e17_cut2_stereo_44KHz.wav
1	137	1	2	0	C	2	1	773	1	poli_8sides 11_whiteLine3.jpg	Medium_e01_cut1_stereo_44KHz.wav
1	138	2	1	0	C	2	1	605	1	poli_8sides 9_whiteLine3.jpg	MediumLong_e04_stereo_44KHz.wav
1	139	4	3	2	I	1	0	893	1	poli_8sides 13_whiteLine3.jpg	MediumLong_e17_cut2_stereo_44KHz.wav
1	140	3	3	2	I	1	0	753	1	poli_8sides 10_whiteLine3.jpg	MediumLong_e17_cut2_stereo_44KHz.wav
1	141	2	2	1	C	1	1	858	1	poli_8sides 9_whiteLine3.jpg	Medium_e01_cut1_stereo_44KHz.wav
1	142	4	4	2	I	2	0	717	1	poli_8sides 13_whiteLine3.jpg	Medium_e21_stereo_44KHz.wav
1	143	1	1	1	C	2	0	916	0	poli_8sides 11_whiteLine3.jpg	MediumLong_e04_stereo_44KHz.wav
1	144	3	4	2	I	1	0	552	1	poli_8sides 10_whiteLine3.jpg	Medium_e21_stereo_44KHz.wav
1	145	1	2	0	C	2	1	909	1	poli_8sides 11_whiteLine3.jpg	Medium_e01_cut1_stereo_44KHz.wav
1	146	4	3	2	I	1	0	791	0	poli_8sides 13_whiteLine3.jpg	MediumLong_e17_cut2_stereo_44KHz.wav
1	147	2	2	1	C	2	0	655	0	poli_8sides 9_whiteLine3.jpg	Medium_e01_cut1_stereo_44KHz.wav
1	148	3	3	2	I	1	0	765	0	poli_8sides 10_whiteLine3.jpg	MediumLong_e17_cut2_stereo_44KHz.wav
1	149	1	1	1	C	1	1	1053	1	poli_8sides 11_whiteLine3.jpg	MediumLong_e04_stereo_44KHz.wav
1	150	2	1	0	C	2	1	926	1	poli_8sides 9_whiteLine3.jpg	MediumLong_e04_stereo_44KHz.wav
1	151	3	4	2	I	1	0	763	1	poli_8sides 10_whiteLine3.jpg	Medium_e21_stereo_44KHz.wav
1	152	4	4	2	I	2	0	789	0	poli_8sides 13_whiteLine3.jpg	Medium_e21_stereo_44KHz.wav
1	153	3	4	2	I	1	0	417	0	poli_8sides 10_whiteLine3.jpg	Medium_e21_stereo_44KHz.wav
1	154	2	1	0	C	2	1	987	1	poli_8sides 9_whiteLine3.jpg	MediumLong_e04_stereo_44KHz.wav
1	155	1	2	0	C	2	1	910	1	poli_8sides 11_whiteLine3.jpg	Medium_e01_cut1_stereo_44KHz.wav
1	156	4	4	2	I	2	0	761	1	poli_8sides 13_whiteLine3.jpg	Medium_e21_stereo_44KHz.wav
1	157	3	3	2	I	1	0	771	0	poli_8sides 10_whiteLine3.jpg	MediumLong_e17_cut2_stereo_44KHz.wav
1	158	4	3	2	I	2	0	854	0	poli_8sides 13_whiteLine3.jpg	MediumLong_e17_cut2_stereo_44KHz.wav
1	159	2	2	1	C	1	1	756	1	poli_8sides 9_whiteLine3.jpg	Medium_e01_cut1_stereo_44KHz.wav
1	160	1	1	1	C	1	1	1098	1	poli_8sides 11_whiteLine3.jpg	MediumLong_e04_stereo_44KHz.wav
1	161	2	2	1	C	1	1	737	1	poli_8sides 9_whiteLine3.jpg	Medium_e01_cut1_stereo_44KHz.wav
1	162	4	3	2	I	1	0	853	0	poli_8sides 13_whiteLine3.jpg	MediumLong_e17_cut2_stereo_44KHz.wav
1	163	3	4	2	I	2	0	1053	1	poli_8sides 10_whiteLine3.jpg	Medium_e21_stereo_44KHz.wav
1	164	1	2	0	C	2	1	721	1	poli_8sides 11_whiteLine3.jpg	Medium_e01_cut1_stereo_44KHz.wav
1	165	4	4	2	I	2	0	682	1	poli_8sides 13_whiteLine3.jpg	Medium_e21_stereo_44KHz.wav
1	166	1	1	1	C	1	1	1221	1	poli_8sides 11_whiteLine3.jpg	MediumLong_e04_stereo_44KHz.wav
1	167	2	1	0	C	2	1	754	1	poli_8sides 9_whiteLine3.jpg	MediumLong_e04_stereo_44KHz.wav
1	168	3	3	2	I	1	0	654	0	poli_8sides 10_whiteLine3.jpg	MediumLong_e17_cut2_stereo_44KHz.wav
1	169	2	1	0	C	2	1	907	1	poli_8sides 9_whiteLine3.jpg	MediumLong_e04_stereo_44KHz.wav
1	170	1	2	0	C	2	1	773	1	poli_8sides 11_whiteLine3.jpg	Medium_e01_cut1_stereo_44KHz.wav
1	171	3	3	2	I	1	0	631	1	poli_8sides 10_whiteLine3.jpg	MediumLong_e17_cut2_stereo_44KHz.wav
1	172	4	4	2	I	2	0	704	1	poli_8sides 13_whiteLine3.jpg	Medium_e21_stereo_44KHz.wav
1	173	3	4	2	I	1	0	928	0	poli_8sides 10_whiteLine3.jpg	Medium_e21_stereo_44KHz.wav
1	174	1	1	1	C	1	1	1131	1	poli_8sides 11_whiteLine3.jpg	MediumLong_e04_stereo_44KHz.wav
1	175	2	2	1	C	1	1	784	1	poli_8sides 9_whiteLine3.jpg	Medium_e01_cut1_stereo_44KHz.wav
1	176	4	3	2	I	1	0	1039	0	poli_8sides 13_whiteLine3.jpg	MediumLong_e17_cut2_stereo_44KHz.wav
1	177	2	1	0	C	2	1	972	1	poli_8sides 9_whiteLine3.jpg	MediumLong_e04_stereo_44KHz.wav
1	178	4	4	2	I	1	0	851	0	poli_8sides 13_whiteLine3.jpg	Medium_e21_stereo_44KHz.wav
1	179	3	4	2	I	2	0	806	0	poli_8sides 10_whiteLine3.jpg	Medium_e21_stereo_44KHz.wav
1	180	1	2	0	C	2	1	919	1	poli_8sides 11_whiteLine3.jpg	Medium_e01_cut1_stereo_44KHz.wav
1	181	4	3	2	I	1	0	754	1	poli_8sides 13_whiteLine3.jpg	MediumLong_e17_cut2_stereo_44KHz.wav
1	182	3	3	2	I	2	0	581	1	poli_8sides 10_whiteLine3.jpg	MediumLong_e17_cut2_stereo_44KHz.wav
1	183	1	1	1	C	2	0	1015	0	poli_8sides 11_whiteLine3.jpg	MediumLong_e04_stereo_44KHz.wav
1	184	2	2	1	C	1	1	760	1	poli_8sides 9_whiteLine3.jpg	Medium_e01_cut1_stereo_44KHz.wav
1	185	4	3	2	I	2	0	815	1	poli_8sides 13_whiteLine3.jpg	MediumLong_e17_cut2_stereo_44KHz.wav
1	186	1	1	1	C	1	1	1363	1	poli_8sides 11_whiteLine3.jpg	MediumLong_e04_stereo_44KHz.wav
1	187	3	4	2	I	2	0	807	0	poli_8sides 10_whiteLine3.jpg	Medium_e21_stereo_44KHz.wav
1	188	2	2	1	C	1	1	676	1	poli_8sides 9_whiteLine3.jpg	Medium_e01_cut1_stereo_44KHz.wav
1	189	1	2	0	C	2	1	826	1	poli_8sides 11_whiteLine3.jpg	Medium_e01_cut1_stereo_44KHz.wav
1	190	4	4	2	I	1	0	707	1	poli_8sides 13_whiteLine3.jpg	Medium_e21_stereo_44KHz.wav
1	191	3	3	2	I	2	0	995	0	poli_8sides 10_whiteLine3.jpg	MediumLong_e17_cut2_stereo_44KHz.wav
1	192	2	1	0	C	2	1	1100	1	poli_8sides 9_whiteLine3.jpg	MediumLong_e04_stereo_44KHz.wav
1	193	1	1	1	C	1	1	988	1	poli_8sides 11_whiteLine3.jpg	MediumLong_e04_stereo_44KHz.wav
1	194	3	4	2	I	1	0	887	0	poli_8sides 10_whiteLine3.jpg	Medium_e21_stereo_44KHz.wav
1	195	4	4	2	I	2	0	749	1	poli_8sides 13_whiteLine3.jpg	Medium_e21_stereo_44KHz.wav
1	196	2	1	0	C	2	1	1028	1	poli_8sides 9_whiteLine3.jpg	MediumLong_e04_stereo_44KHz.wav
1	197	4	3	2	I	1	0	590	1	poli_8sides 13_whiteLine3.jpg	MediumLong_e17_cut2_stereo_44KHz.wav
1	198	3	3	2	I	2	0	907	0	poli_8sides 10_whiteLine3.jpg	MediumLong_e17_cut2_stereo_44KHz.wav
1	199	1	2	0	C	2	1	854	1	poli_8sides 11_whiteLine3.jpg	Medium_e01_cut1_stereo_44KHz.wav
1	200	2	2	1	C	1	1	808	1	poli_8sides 9_whiteLine3.jpg	Medium_e01_cut1_stereo_44KHz.wav
2	1	1	2	0	C	2	1	809	1	poli_8sides 4_whiteLine3.jpg	Short_b20_cut1_stereo_44KHz.wav
2	2	3	3	2	I	1	0	557	1	poli_8sides 16_whiteLine3.jpg	Short_b22_cut1_stereo_44KHz.wav
2	3	2	2	1	C	1	1	833	1	poli_8sides 5_whiteLine3.jpg	Short_b20_cut1_stereo_44KHz.wav
2	4	4	4	2	I	2	0	767	1	poli_8sides 3_whiteLine3.jpg	Short_b23_cut1_stereo_44KHz.wav
2	5	2	1	0	C	1	0	762	0	poli_8sides 5_whiteLine3.jpg	Short_b09_cut1_stereo_44KHz.wav
2	6	1	1	1	C	1	1	898	1	poli_8sides 4_whiteLine3.jpg	Short_b09_cut1_stereo_44KHz.wav
2	7	3	4	2	I	2	0	658	0	poli_8sides 16_whiteLine3.jpg	Short_b23_cut1_stereo_44KHz.wav
2	8	4	3	2	I	1	0	910	0	poli_8sides 3_whiteLine3.jpg	Short_b22_cut1_stereo_44KHz.wav
2	9	2	2	1	C	2	0	712	0	poli_8sides 5_whiteLine3.jpg	Short_b20_cut1_stereo_44KHz.wav
2	10	4	3	2	I	2	0	691	1	poli_8sides 3_whiteLine3.jpg	Short_b22_cut1_stereo_44KHz.wav
2	11	1	1	1	C	2	0	1193	0	poli_8sides 4_whiteLine3.jpg	Short_b09_cut1_stereo_44KHz.wav
2	12	3	4	2	I	1	0	655	1	poli_8sides 16_whiteLine3.jpg	Short_b23_cut1_stereo_44KHz.wav
2	13	1	2	0	C	2	1	592	1	poli_8sides 4_whiteLine3.jpg	Short_b20_cut1_stereo_44KHz.wav
2	14	3	3	2	I	2	0	760	0	poli_8sides 16_whiteLine3.jpg	Short_b22_cut1_stereo_44KHz.wav
2	15	2	1	0	C	2	1	789	1	poli_8sides 5_whiteLine3.jpg	Short_b09_cut1_stereo_44KHz.wav
2	16	4	4	2	I	2	0	709	1	poli_8sides 3_whiteLine3.jpg	Short_b23_cut1_stereo_44KHz.wav
2	17	1	2	0	C	2	1	764	1	poli_8sides 4_whiteLine3.jpg	Short_b20_cut1_stereo_44KHz.wav
2	18	2	1	0	C	2	1	701	1	poli_8sides 5_whiteLine3.jpg	Short_b09_cut1_stereo_44KHz.wav
2	19	3	4	2	I	2	0	1062	1	poli_8sides 16_whiteLine3.jpg	Short_b23_cut1_stereo_44KHz.wav
2	20	4	4	2	I	2	0	817	1	poli_8sides 3_whiteLine3.jpg	Short_b23_cut1_stereo_44KHz.wav
2	21	2	2	1	C	1	1	735	1	poli_8sides 5_whiteLine3.jpg	Short_b20_cut1_stereo_44KHz.wav
2	22	3	3	2	I	2	0	737	1	poli_8sides 16_whiteLine3.jpg	Short_b22_cut1_stereo_44KHz.wav
2	23	1	1	1	C	2	0	829	0	poli_8sides 4_whiteLine3.jpg	Short_b09_cut1_stereo_44KHz.wav
2	24	4	3	2	I	2	0	848	1	poli_8sides 3_whiteLine3.jpg	Short_b22_cut1_stereo_44KHz.wav
2	25	2	1	0	C	2	1	731	1	poli_8sides 5_whiteLine3.jpg	Short_b09_cut1_stereo_44KHz.wav
2	26	1	2	0	C	2	1	733	1	poli_8sides 4_whiteLine3.jpg	Short_b20_cut1_stereo_44KHz.wav
2	27	4	4	2	I	2	0	951	1	poli_8sides 3_whiteLine3.jpg	Short_b23_cut1_stereo_44KHz.wav
2	28	3	3	2	I	1	0	840	0	poli_8sides 16_whiteLine3.jpg	Short_b22_cut1_stereo_44KHz.wav
2	29	1	1	1	C	1	1	925	1	poli_8sides 4_whiteLine3.jpg	Short_b09_cut1_stereo_44KHz.wav
2	30	4	3	2	I	2	0	1089	0	poli_8sides 3_whiteLine3.jpg	Short_b22_cut1_stereo_44KHz.wav
2	31	2	2	1	C	1	1	910	1	poli_8sides 5_whiteLine3.jpg	Short_b20_cut1_stereo_44KHz.wav
2	32	3	4	2	I	2	0	677	1	poli_8sides 16_whiteLine3.jpg	Short_b23_cut1_stereo_44KHz.wav
2	33	2	1	0	C	2	1	1131	1	poli_8sides 5_whiteLine3.jpg	Short_b09_cut1_stereo_44KHz.wav
2	34	3	4	2	I	1	0	600	0	poli_8sides 16_whiteLine3.jpg	Short_b23_cut1_stereo_44KHz.wav
2	35	1	1	1	C	2	0	585	0	poli_8sides 4_whiteLine3.jpg	Short_b09_cut1_stereo_44KHz.wav
2	36	4	4	2	I	2	0	814	0	poli_8sides 3_whiteLine3.jpg	Short_b23_cut1_stereo_44KHz.wav
2	37	2	2	1	C	1	1	966	1	poli_8sides 5_whiteLine3.jpg	Short_b20_cut1_stereo_44KHz.wav
2	38	4	3	2	I	1	0	1117	0	poli_8sides 3_whiteLine3.jpg	Short_b22_cut1_stereo_44KHz.wav
2	39	1	2	0	C	2	1	1159	1	poli_8sides 4_whiteLine3.jpg	Short_b20_cut1_stereo_44KHz.wav
2	40	3	3	2	I	2	0	801	1	poli_8sides 16_whiteLine3.jpg	Short_b22_cut1_stereo_44KHz.wav
2	41	1	1	1	C	1	1	1167	1	poli_8sides 4_whiteLine3.jpg	Short_b09_cut1_stereo_44KHz.wav
2	42	3	4	2	I	2	0	894	1	poli_8sides 16_whiteLine3.jpg	Short_b23_cut1_stereo_44KHz.wav
2	43	2	2	1	C	1	1	1087	1	poli_8sides 5_whiteLine3.jpg	Short_b20_cut1_stereo_44KHz.wav
2	44	4	4	2	I	2	0	888	0	poli_8sides 3_whiteLine3.jpg	Short_b23_cut1_stereo_44KHz.wav
2	45	2	1	0	C	1	0	1074	0	poli_8sides 5_whiteLine3.jpg	Short_b09_cut1_stereo_44KHz.wav
2	46	4	3	2	I	1	0	1098	1	poli_8sides 3_whiteLine3.jpg	Short_b22_cut1_stereo_44KHz.wav
2	47	3	3	2	I	2	0	1161	0	poli_8sides 16_whiteLine3.jpg	Short_b22_cut1_stereo_44KHz.wav
2	48	1	2	0	C	2	1	820	1	poli_8sides 4_whiteLine3.jpg	Short_b20_cut1_stereo_44KHz.wav
2	49	3	4	2	I	1	0	1228	1	poli_8sides 16_whiteLine3.jpg	Short_b23_cut1_stereo_44KHz.wav
2	50	4	3	2	I	2	0	1229	0	poli_8sides 3_whiteLine3.jpg	Short_b22_cut1_stereo_44KHz.wav
2	51	2	1	0	C	2	1	910	1	poli_8sides 5_whiteLine3.jpg	Short_b09_cut1_stereo_44KHz.wav
2	52	1	2	0	C	2	1	834	1	poli_8sides 4_whiteLine3.jpg	Short_b20_cut1_stereo_44KHz.wav
2	53	4	4	2	I	2	0	945	0	poli_8sides 3_whiteLine3.jpg	Short_b23_cut1_stereo_44KHz.wav
2	54	2	2	1	C	1	1	1128	1	poli_8sides 5_whiteLine3.jpg	Short_b20_cut1_stereo_44KHz.wav
2	55	1	1	1	C	1	1	771	1	poli_8sides 4_whiteLine3.jpg	Short_b09_cut1_stereo_44KHz.wav
2	56	3	3	2	I	1	0	1139	1	poli_8sides 16_whiteLine3.jpg	Short_b22_cut1_stereo_44KHz.wav
2	57	1	1	1	C	1	1	1199	1	poli_8sides 4_whiteLine3.jpg	Short_b09_cut1_stereo_44KHz.wav
2	58	4	4	2	I	1	0	1104	1	poli_8sides 3_whiteLine3.jpg	Short_b23_cut1_stereo_44KHz.wav
2	59	2	2	1	C	1	1	840	1	poli_8sides 5_whiteLine3.jpg	Short_b20_cut1_stereo_44KHz.wav
2	60	3	3	2	I	1	0	1007	0	poli_8sides 16_whiteLine3.jpg	Short_b22_cut1_stereo_44KHz.wav
2	61	1	2	0	C	2	1	884	1	poli_8sides 4_whiteLine3.jpg	Short_b20_cut1_stereo_44KHz.wav
2	62	3	4	2	I	2	0	974	1	poli_8sides 16_whiteLine3.jpg	Short_b23_cut1_stereo_44KHz.wav
2	63	4	3	2	I	1	0	676	0	poli_8sides 3_whiteLine3.jpg	Short_b22_cut1_stereo_44KHz.wav
2	64	2	1	0	C	1	0	1048	0	poli_8sides 5_whiteLine3.jpg	Short_b09_cut1_stereo_44KHz.wav
2	65	1	2	0	C	2	1	775	1	poli_8sides 4_whiteLine3.jpg	Short_b20_cut1_stereo_44KHz.wav
2	66	4	3	2	I	1	0	927	1	poli_8sides 3_whiteLine3.jpg	Short_b22_cut1_stereo_44KHz.wav
2	67	2	1	0	C	2	1	774	1	poli_8sides 5_whiteLine3.jpg	Short_b09_cut1_stereo_44KHz.wav
2	68	3	4	2	I	2	0	1241	0	poli_8sides 16_whiteLine3.jpg	Short_b23_cut1_stereo_44KHz.wav
2	69	4	4	2	I	1	0	1177	0	poli_8sides 3_whiteLine3.jpg	Short_b23_cut1_stereo_44KHz.wav
2	70	3	3	2	I	1	0	1615	0	poli_8sides 16_whiteLine3.jpg	Short_b22_cut1_stereo_44KHz.wav
2	71	2	2	1	C	1	1	1137	1	poli_8sides 5_whiteLine3.jpg	Short_b20_cut1_stereo_44KHz.wav
2	72	1	1	1	C	1	1	896	1	poli_8sides 4_whiteLine3.jpg	Short_b09_cut1_stereo_44KHz.wav
2	73	4	3	2	I	1	0	1030	1	poli_8sides 3_whiteLine3.jpg	Short_b22_cut1_stereo_44KHz.wav
2	74	3	4	2	I	2	0	1253	0	poli_8sides 16_whiteLine3.jpg	Short_b23_cut1_stereo_44KHz.wav
2	75	1	1	1	C	1	1	815	1	poli_8sides 4_whiteLine3.jpg	Short_b09_cut1_stereo_44KHz.wav
2	76	2	2	1	C	1	1	1139	1	poli_8sides 5_whiteLine3.jpg	Short_b20_cut1_stereo_44KHz.wav
2	77	4	4	2	I	0	0	0	0	poli_8sides 3_whiteLine3.jpg	Short_b23_cut1_stereo_44KHz.wav
2	78	3	3	2	I	2	0	985	0	poli_8sides 16_whiteLine3.jpg	Short_b22_cut1_stereo_44KHz.wav
2	79	1	2	0	C	2	1	769	1	poli_8sides 4_whiteLine3.jpg	Short_b20_cut1_stereo_44KHz.wav
2	80	2	1	0	C	2	1	1158	1	poli_8sides 5_whiteLine3.jpg	Short_b09_cut1_stereo_44KHz.wav
2	81	1	2	0	C	2	1	1668	1	poli_8sides 4_whiteLine3.jpg	Short_b20_cut1_stereo_44KHz.wav
2	82	3	4	2	I	2	0	848	0	poli_8sides 16_whiteLine3.jpg	Short_b23_cut1_stereo_44KHz.wav
2	83	4	3	2	I	2	0	788	1	poli_8sides 3_whiteLine3.jpg	Short_b22_cut1_stereo_44KHz.wav
2	84	2	1	0	C	2	1	657	1	poli_8sides 5_whiteLine3.jpg	Short_b09_cut1_stereo_44KHz.wav
2	85	4	4	2	I	2	0	681	1	poli_8sides 3_whiteLine3.jpg	Short_b23_cut1_stereo_44KHz.wav
2	86	2	2	1	C	1	1	923	1	poli_8sides 5_whiteLine3.jpg	Short_b20_cut1_stereo_44KHz.wav
2	87	1	1	1	C	1	1	852	1	poli_8sides 4_whiteLine3.jpg	Short_b09_cut1_stereo_44KHz.wav
2	88	3	3	2	I	2	0	1111	1	poli_8sides 16_whiteLine3.jpg	Short_b22_cut1_stereo_44KHz.wav
2	89	4	4	2	I	1	0	672	0	poli_8sides 3_whiteLine3.jpg	Short_b23_cut1_stereo_44KHz.wav
2	90	3	4	2	I	2	0	859	1	poli_8sides 16_whiteLine3.jpg	Short_b23_cut1_stereo_44KHz.wav
2	91	1	2	0	C	2	1	637	1	poli_8sides 4_whiteLine3.jpg	Short_b20_cut1_stereo_44KHz.wav
2	92	2	2	1	C	1	1	978	1	poli_8sides 5_whiteLine3.jpg	Short_b20_cut1_stereo_44KHz.wav
2	93	4	3	2	I	2	0	732	0	poli_8sides 3_whiteLine3.jpg	Short_b22_cut1_stereo_44KHz.wav
2	94	3	3	2	I	1	0	1069	0	poli_8sides 16_whiteLine3.jpg	Short_b22_cut1_stereo_44KHz.wav
2	95	1	1	1	C	1	1	1076	1	poli_8sides 4_whiteLine3.jpg	Short_b09_cut1_stereo_44KHz.wav
2	96	2	1	0	C	2	1	513	1	poli_8sides 5_whiteLine3.jpg	Short_b09_cut1_stereo_44KHz.wav
2	97	1	1	1	C	1	1	802	1	poli_8sides 4_whiteLine3.jpg	Short_b09_cut1_stereo_44KHz.wav
2	98	2	2	1	C	1	1	763	1	poli_8sides 5_whiteLine3.jpg	Short_b20_cut1_stereo_44KHz.wav
2	99	4	4	2	I	2	0	671	1	poli_8sides 3_whiteLine3.jpg	Short_b23_cut1_stereo_44KHz.wav
2	100	3	4	2	I	1	0	632	0	poli_8sides 16_whiteLine3.jpg	Short_b23_cut1_stereo_44KHz.wav
2	101	1	2	0	C	2	1	736	1	poli_8sides 4_whiteLine3.jpg	Short_b20_cut1_stereo_44KHz.wav
2	102	4	3	2	I	1	0	772	1	poli_8sides 3_whiteLine3.jpg	Short_b22_cut1_stereo_44KHz.wav
2	103	3	3	2	I	1	0	893	0	poli_8sides 16_whiteLine3.jpg	Short_b22_cut1_stereo_44KHz.wav
2	104	2	1	0	C	1	0	767	0	poli_8sides 5_whiteLine3.jpg	Short_b09_cut1_stereo_44KHz.wav
2	105	3	3	2	I	1	0	731	0	poli_8sides 16_whiteLine3.jpg	Short_b22_cut1_stereo_44KHz.wav
2	106	2	2	1	C	1	1	971	1	poli_8sides 5_whiteLine3.jpg	Short_b20_cut1_stereo_44KHz.wav
2	107	1	2	0	C	2	1	811	1	poli_8sides 4_whiteLine3.jpg	Short_b20_cut1_stereo_44KHz.wav
2	108	4	3	2	I	2	0	766	0	poli_8sides 3_whiteLine3.jpg	Short_b22_cut1_stereo_44KHz.wav
2	109	3	4	2	I	2	0	779	0	poli_8sides 16_whiteLine3.jpg	Short_b23_cut1_stereo_44KHz.wav
2	110	2	1	0	C	2	1	950	1	poli_8sides 5_whiteLine3.jpg	Short_b09_cut1_stereo_44KHz.wav
2	111	1	1	1	C	1	1	835	1	poli_8sides 4_whiteLine3.jpg	Short_b09_cut1_stereo_44KHz.wav
2	112	4	4	2	I	2	0	722	1	poli_8sides 3_whiteLine3.jpg	Short_b23_cut1_stereo_44KHz.wav
2	113	3	3	2	I	2	0	1028	0	poli_8sides 16_whiteLine3.jpg	Short_b22_cut1_stereo_44KHz.wav
2	114	2	1	0	C	2	1	687	1	poli_8sides 5_whiteLine3.jpg	Short_b09_cut1_stereo_44KHz.wav
2	115	1	1	1	C	1	1	864	1	poli_8sides 4_whiteLine3.jpg	Short_b09_cut1_stereo_44KHz.wav
2	116	4	3	2	I	2	0	755	1	poli_8sides 3_whiteLine3.jpg	Short_b22_cut1_stereo_44KHz.wav
2	117	2	2	1	C	2	0	814	0	poli_8sides 5_whiteLine3.jpg	Short_b20_cut1_stereo_44KHz.wav
2	118	3	4	2	I	1	0	1134	1	poli_8sides 16_whiteLine3.jpg	Short_b23_cut1_stereo_44KHz.wav
2	119	1	2	0	C	2	1	753	1	poli_8sides 4_whiteLine3.jpg	Short_b20_cut1_stereo_44KHz.wav
2	120	4	4	2	I	1	0	1084	0	poli_8sides 3_whiteLine3.jpg	Short_b23_cut1_stereo_44KHz.wav
2	121	1	2	0	C	2	1	917	1	poli_8sides 4_whiteLine3.jpg	Short_b20_cut1_stereo_44KHz.wav
2	122	2	2	1	C	1	1	1259	1	poli_8sides 5_whiteLine3.jpg	Short_b20_cut1_stereo_44KHz.wav
2	123	4	3	2	I	2	0	746	0	poli_8sides 3_whiteLine3.jpg	Short_b22_cut1_stereo_44KHz.wav
2	124	3	4	2	I	2	0	834	1	poli_8sides 16_whiteLine3.jpg	Short_b23_cut1_stereo_44KHz.wav
2	125	4	4	2	I	1	0	883	1	poli_8sides 3_whiteLine3.jpg	Short_b23_cut1_stereo_44KHz.wav
2	126	2	1	0	C	2	1	970	1	poli_8sides 5_whiteLine3.jpg	Short_b09_cut1_stereo_44KHz.wav
2	127	3	3	2	I	1	0	837	1	poli_8sides 16_whiteLine3.jpg	Short_b22_cut1_stereo_44KHz.wav
2	128	1	1	1	C	1	1	1062	1	poli_8sides 4_whiteLine3.jpg	Short_b09_cut1_stereo_44KHz.wav
2	129	2	1	0	C	1	0	852	0	poli_8sides 5_whiteLine3.jpg	Short_b09_cut1_stereo_44KHz.wav
2	130	4	4	2	I	2	0	1167	1	poli_8sides 3_whiteLine3.jpg	Short_b23_cut1_stereo_44KHz.wav
2	131	1	2	0	C	2	1	785	1	poli_8sides 4_whiteLine3.jpg	Short_b20_cut1_stereo_44KHz.wav
2	132	3	3	2	I	1	0	776	1	poli_8sides 16_whiteLine3.jpg	Short_b22_cut1_stereo_44KHz.wav
2	133	2	2	1	C	2	0	1235	0	poli_8sides 5_whiteLine3.jpg	Short_b20_cut1_stereo_44KHz.wav
2	134	4	3	2	I	1	0	954	1	poli_8sides 3_whiteLine3.jpg	Short_b22_cut1_stereo_44KHz.wav
2	135	3	4	2	I	1	0	871	1	poli_8sides 16_whiteLine3.jpg	Short_b23_cut1_stereo_44KHz.wav
2	136	1	1	1	C	1	1	1113	1	poli_8sides 4_whiteLine3.jpg	Short_b09_cut1_stereo_44KHz.wav
2	137	3	4	2	I	2	0	1215	0	poli_8sides 16_whiteLine3.jpg	Short_b23_cut1_stereo_44KHz.wav
2	138	1	2	0	C	2	1	728	1	poli_8sides 4_whiteLine3.jpg	Short_b20_cut1_stereo_44KHz.wav
2	139	2	1	0	C	1	0	793	0	poli_8sides 5_whiteLine3.jpg	Short_b09_cut1_stereo_44KHz.wav
2	140	4	4	2	I	2	0	1456	0	poli_8sides 3_whiteLine3.jpg	Short_b23_cut1_stereo_44KHz.wav
2	141	1	1	1	C	1	1	483	1	poli_8sides 4_whiteLine3.jpg	Short_b09_cut1_stereo_44KHz.wav
2	142	2	2	1	C	1	1	1128	1	poli_8sides 5_whiteLine3.jpg	Short_b20_cut1_stereo_44KHz.wav
2	143	3	3	2	I	2	0	1003	0	poli_8sides 16_whiteLine3.jpg	Short_b22_cut1_stereo_44KHz.wav
2	144	4	3	2	I	2	0	658	0	poli_8sides 3_whiteLine3.jpg	Short_b22_cut1_stereo_44KHz.wav
2	145	3	4	2	I	2	0	993	1	poli_8sides 16_whiteLine3.jpg	Short_b23_cut1_stereo_44KHz.wav
2	146	1	1	1	C	1	1	973	1	poli_8sides 4_whiteLine3.jpg	Short_b09_cut1_stereo_44KHz.wav
2	147	2	1	0	C	1	0	865	0	poli_8sides 5_whiteLine3.jpg	Short_b09_cut1_stereo_44KHz.wav
2	148	4	3	2	I	2	0	1169	0	poli_8sides 3_whiteLine3.jpg	Short_b22_cut1_stereo_44KHz.wav
2	149	1	2	0	C	2	1	1452	1	poli_8sides 4_whiteLine3.jpg	Short_b20_cut1_stereo_44KHz.wav
2	150	3	3	2	I	1	0	1794	1	poli_8sides 16_whiteLine3.jpg	Short_b22_cut1_stereo_44KHz.wav
2	151	4	4	2	I	2	0	517	0	poli_8sides 3_whiteLine3.jpg	Short_b23_cut1_stereo_44KHz.wav
2	152	2	2	1	C	1	1	989	1	poli_8sides 5_whiteLine3.jpg	Short_b20_cut1_stereo_44KHz.wav
2	153	3	3	2	I	1	0	882	1	poli_8sides 16_whiteLine3.jpg	Short_b22_cut1_stereo_44KHz.wav
2	154	4	3	2	I	2	0	1500	0	poli_8sides 3_whiteLine3.jpg	Short_b22_cut1_stereo_44KHz.wav
2	155	1	2	0	C	2	1	1010	1	poli_8sides 4_whiteLine3.jpg	Short_b20_cut1_stereo_44KHz.wav
2	156	2	1	0	C	2	1	901	1	poli_8sides 5_whiteLine3.jpg	Short_b09_cut1_stereo_44KHz.wav
2	157	1	1	1	C	1	1	620	1	poli_8sides 4_whiteLine3.jpg	Short_b09_cut1_stereo_44KHz.wav
2	158	4	4	2	I	2	0	677	1	poli_8sides 3_whiteLine3.jpg	Short_b23_cut1_stereo_44KHz.wav
2	159	2	2	1	C	1	1	863	1	poli_8sides 5_whiteLine3.jpg	Short_b20_cut1_stereo_44KHz.wav
2	160	3	4	2	I	1	0	891	0	poli_8sides 16_whiteLine3.jpg	Short_b23_cut1_stereo_44KHz.wav
2	161	4	3	2	I	2	0	569	1	poli_8sides 3_whiteLine3.jpg	Short_b22_cut1_stereo_44KHz.wav
2	162	1	2	0	C	2	1	1122	1	poli_8sides 4_whiteLine3.jpg	Short_b20_cut1_stereo_44KHz.wav
2	163	2	1	0	C	1	0	1002	0	poli_8sides 5_whiteLine3.jpg	Short_b09_cut1_stereo_44KHz.wav
2	164	3	4	2	I	2	0	802	1	poli_8sides 16_whiteLine3.jpg	Short_b23_cut1_stereo_44KHz.wav
2	165	4	4	2	I	2	0	616	0	poli_8sides 3_whiteLine3.jpg	Short_b23_cut1_stereo_44KHz.wav
2	166	2	2	1	C	1	1	707	1	poli_8sides 5_whiteLine3.jpg	Short_b20_cut1_stereo_44KHz.wav
2	167	3	3	2	I	2	0	919	0	poli_8sides 16_whiteLine3.jpg	Short_b22_cut1_stereo_44KHz.wav
2	168	1	1	1	C	1	1	948	1	poli_8sides 4_whiteLine3.jpg	Short_b09_cut1_stereo_44KHz.wav
2	169	4	4	2	I	2	0	803	1	poli_8sides 3_whiteLine3.jpg	Short_b23_cut1_stereo_44KHz.wav
2	170	2	2	1	C	1	1	1530	1	poli_8sides 5_whiteLine3.jpg	Short_b20_cut1_stereo_44KHz.wav
2	171	1	1	1	C	1	1	1052	1	poli_8sides 4_whiteLine3.jpg	Short_b09_cut1_stereo_44KHz.wav
2	172	3	3	2	I	2	0	951	1	poli_8sides 16_whiteLine3.jpg	Short_b22_cut1_stereo_44KHz.wav
2	173	4	3	2	I	1	0	1155	0	poli_8sides 3_whiteLine3.jpg	Short_b22_cut1_stereo_44KHz.wav
2	174	1	2	0	C	2	1	856	1	poli_8sides 4_whiteLine3.jpg	Short_b20_cut1_stereo_44KHz.wav
2	175	2	1	0	C	2	1	1039	1	poli_8sides 5_whiteLine3.jpg	Short_b09_cut1_stereo_44KHz.wav
2	176	3	4	2	I	1	0	830	0	poli_8sides 16_whiteLine3.jpg	Short_b23_cut1_stereo_44KHz.wav
2	177	1	2	0	C	2	1	758	1	poli_8sides 4_whiteLine3.jpg	Short_b20_cut1_stereo_44KHz.wav
2	178	2	2	1	C	1	1	1050	1	poli_8sides 5_whiteLine3.jpg	Short_b20_cut1_stereo_44KHz.wav
2	179	4	3	2	I	1	0	858	0	poli_8sides 3_whiteLine3.jpg	Short_b22_cut1_stereo_44KHz.wav
2	180	3	4	2	I	2	0	502	0	poli_8sides 16_whiteLine3.jpg	Short_b23_cut1_stereo_44KHz.wav
2	181	2	1	0	C	2	1	1095	1	poli_8sides 5_whiteLine3.jpg	Short_b09_cut1_stereo_44KHz.wav
2	182	1	1	1	C	1	1	616	1	poli_8sides 4_whiteLine3.jpg	Short_b09_cut1_stereo_44KHz.wav
2	183	4	4	2	I	2	0	731	0	poli_8sides 3_whiteLine3.jpg	Short_b23_cut1_stereo_44KHz.wav
2	184	3	3	2	I	2	0	757	0	poli_8sides 16_whiteLine3.jpg	Short_b22_cut1_stereo_44KHz.wav
2	185	2	1	0	C	2	1	682	1	poli_8sides 5_whiteLine3.jpg	Short_b09_cut1_stereo_44KHz.wav
2	186	4	4	2	I	2	0	857	0	poli_8sides 3_whiteLine3.jpg	Short_b23_cut1_stereo_44KHz.wav
2	187	1	1	1	C	1	1	926	1	poli_8sides 4_whiteLine3.jpg	Short_b09_cut1_stereo_44KHz.wav
2	188	3	3	2	I	2	0	724	1	poli_8sides 16_whiteLine3.jpg	Short_b22_cut1_stereo_44KHz.wav
2	189	4	3	2	I	2	0	620	1	poli_8sides 3_whiteLine3.jpg	Short_b22_cut1_stereo_44KHz.wav
2	190	2	2	1	C	1	1	1138	1	poli_8sides 5_whiteLine3.jpg	Short_b20_cut1_stereo_44KHz.wav
2	191	1	2	0	C	2	1	693	1	poli_8sides 4_whiteLine3.jpg	Short_b20_cut1_stereo_44KHz.wav
2	192	3	4	2	I	1	0	982	0	poli_8sides 16_whiteLine3.jpg	Short_b23_cut1_stereo_44KHz.wav
2	193	4	4	2	I	1	0	1174	1	poli_8sides 3_whiteLine3.jpg	Short_b23_cut1_stereo_44KHz.wav
2	194	3	4	2	I	2	0	1134	1	poli_8sides 16_whiteLine3.jpg	Short_b23_cut1_stereo_44KHz.wav
2	195	1	2	0	C	2	1	1080	1	poli_8sides 4_whiteLine3.jpg	Short_b20_cut1_stereo_44KHz.wav
2	196	2	1	0	C	2	1	790	1	poli_8sides 5_whiteLine3.jpg	Short_b09_cut1_stereo_44KHz.wav
2	197	3	3	2	I	1	0	902	1	poli_8sides 16_whiteLine3.jpg	Short_b22_cut1_stereo_44KHz.wav
2	198	1	1	1	C	1	1	1132	1	poli_8sides 4_whiteLine3.jpg	Short_b09_cut1_stereo_44KHz.wav
2	199	2	2	1	C	1	1	979	1	poli_8sides 5_whiteLine3.jpg	Short_b20_cut1_stereo_44KHz.wav
2	200	4	3	2	I	2	0	811	1	poli_8sides 3_whiteLine3.jpg	Short_b22_cut1_stereo_44KHz.wav
3	1	4	4	2	I	2	0	1017	1	poli_8sides 18_whiteLine3.jpg	MediumLong_e19_stereo_44KHz.wav
3	2	1	2	0	C	2	1	908	1	poli_8sides 12_whiteLine3.jpg	Medium_e13_stereo_44KHz.wav
3	3	2	1	0	C	2	1	850	1	poli_8sides 1_whiteLine3.jpg	MediumLong_b10_cut2_L_stereo_44KHz.wav
3	4	3	3	2	I	2	0	821	1	poli_8sides 15_whiteLine3.jpg	Medium_e26_stereo_44KHz.wav
3	5	4	3	2	I	1	0	910	0	poli_8sides 18_whiteLine3.jpg	Medium_e26_stereo_44KHz.wav
3	6	2	2	1	C	2	0	1081	0	poli_8sides 1_whiteLine3.jpg	Medium_e13_stereo_44KHz.wav
3	7	3	4	2	I	2	0	833	1	poli_8sides 15_whiteLine3.jpg	MediumLong_e19_stereo_44KHz.wav
3	8	1	1	1	C	1	1	1141	1	poli_8sides 12_whiteLine3.jpg	MediumLong_b10_cut2_L_stereo_44KHz.wav
3	9	3	3	2	I	2	0	770	1	poli_8sides 15_whiteLine3.jpg	Medium_e26_stereo_44KHz.wav
3	10	2	2	1	C	2	0	1050	0	poli_8sides 1_whiteLine3.jpg	Medium_e13_stereo_44KHz.wav
3	11	1	1	1	C	1	1	909	1	poli_8sides 12_whiteLine3.jpg	MediumLong_b10_cut2_L_stereo_44KHz.wav
3	12	4	3	2	I	2	0	892	0	poli_8sides 18_whiteLine3.jpg	Medium_e26_stereo_44KHz.wav
3	13	1	2	0	C	2	1	1026	1	poli_8sides 12_whiteLine3.jpg	Medium_e13_stereo_44KHz.wav
3	14	4	4	2	I	2	0	1134	1	poli_8sides 18_whiteLine3.jpg	MediumLong_e19_stereo_44KHz.wav
3	15	2	1	0	C	1	0	711	0	poli_8sides 1_whiteLine3.jpg	MediumLong_b10_cut2_L_stereo_44KHz.wav
3	16	3	4	2	I	2	0	388	0	poli_8sides 15_whiteLine3.jpg	MediumLong_e19_stereo_44KHz.wav
3	17	1	1	1	C	1	1	586	1	poli_8sides 12_whiteLine3.jpg	MediumLong_b10_cut2_L_stereo_44KHz.wav
3	18	4	3	2	I	2	0	728	1	poli_8sides 18_whiteLine3.jpg	Medium_e26_stereo_44KHz.wav
3	19	2	2	1	C	2	0	645	0	poli_8sides 1_whiteLine3.jpg	Medium_e13_stereo_44KHz.wav
3	20	3	3	2	I	1	0	787	0	poli_8sides 15_whiteLine3.jpg	Medium_e26_stereo_44KHz.wav
3	21	4	4	2	I	2	0	1178	0	poli_8sides 18_whiteLine3.jpg	MediumLong_e19_stereo_44KHz.wav
3	22	3	4	2	I	1	0	1227	0	poli_8sides 15_whiteLine3.jpg	MediumLong_e19_stereo_44KHz.wav
3	23	1	2	0	C	2	1	766	1	poli_8sides 12_whiteLine3.jpg	Medium_e13_stereo_44KHz.wav
3	24	2	1	0	C	2	1	789	1	poli_8sides 1_whiteLine3.jpg	MediumLong_b10_cut2_L_stereo_44KHz.wav
3	25	3	3	2	I	2	0	971	1	poli_8sides 15_whiteLine3.jpg	Medium_e26_stereo_44KHz.wav
3	26	4	4	2	I	2	0	1331	1	poli_8sides 18_whiteLine3.jpg	MediumLong_e19_stereo_44KHz.wav
3	27	2	1	0	C	1	0	1144	0	poli_8sides 1_whiteLine3.jpg	MediumLong_b10_cut2_L_stereo_44KHz.wav
3	28	1	2	0	C	2	1	883	1	poli_8sides 12_whiteLine3.jpg	Medium_e13_stereo_44KHz.wav
3	29	4	3	2	I	1	0	918	0	poli_8sides 18_whiteLine3.jpg	Medium_e26_stereo_44KHz.wav
3	30	2	2	1	C	2	0	1109	0	poli_8sides 1_whiteLine3.jpg	Medium_e13_stereo_44KHz.wav
3	31	3	4	2	I	2	0	693	0	poli_8sides 15_whiteLine3.jpg	MediumLong_e19_stereo_44KHz.wav
3	32	1	1	1	C	1	1	872	1	poli_8sides 12_whiteLine3.jpg	MediumLong_b10_cut2_L_stereo_44KHz.wav
3	33	4	4	2	I	2	0	582	1	poli_8sides 18_whiteLine3.jpg	MediumLong_e19_stereo_44KHz.wav
3	34	2	1	0	C	2	1	627	1	poli_8sides 1_whiteLine3.jpg	MediumLong_b10_cut2_L_stereo_44KHz.wav
3	35	1	1	1	C	1	1	892	1	poli_8sides 12_whiteLine3.jpg	MediumLong_b10_cut2_L_stereo_44KHz.wav
3	36	3	3	2	I	2	0	1016	1	poli_8sides 15_whiteLine3.jpg	Medium_e26_stereo_44KHz.wav
3	37	1	2	0	C	2	1	844	1	poli_8sides 12_whiteLine3.jpg	Medium_e13_stereo_44KHz.wav
3	38	2	2	1	C	1	1	837	1	poli_8sides 1_whiteLine3.jpg	Medium_e13_stereo_44KHz.wav
3	39	4	3	2	I	2	0	818	1	poli_8sides 18_whiteLine3.jpg	Medium_e26_stereo_44KHz.wav
3	40	3	4	2	I	2	0	735	0	poli_8sides 15_whiteLine3.jpg	MediumLong_e19_stereo_44KHz.wav
3	41	1	1	1	C	1	1	555	1	poli_8sides 12_whiteLine3.jpg	MediumLong_b10_cut2_L_stereo_44KHz.wav
3	42	3	4	2	I	2	0	574	0	poli_8sides 15_whiteLine3.jpg	MediumLong_e19_stereo_44KHz.wav
3	43	4	4	2	I	1	0	885	0	poli_8sides 18_whiteLine3.jpg	MediumLong_e19_stereo_44KHz.wav
3	44	2	1	0	C	2	1	683	1	poli_8sides 1_whiteLine3.jpg	MediumLong_b10_cut2_L_stereo_44KHz.wav
3	45	1	2	0	C	2	1	857	1	poli_8sides 12_whiteLine3.jpg	Medium_e13_stereo_44KHz.wav
3	46	2	2	1	C	2	0	682	0	poli_8sides 1_whiteLine3.jpg	Medium_e13_stereo_44KHz.wav
3	47	4	3	2	I	2	0	703	1	poli_8sides 18_whiteLine3.jpg	Medium_e26_stereo_44KHz.wav
3	48	3	3	2	I	2	0	853	1	poli_8sides 15_whiteLine3.jpg	Medium_e26_stereo_44KHz.wav
3	49	4	3	2	I	2	0	782	0	poli_8sides 18_whiteLine3.jpg	Medium_e26_stereo_44KHz.wav
3	50	3	4	2	I	1	0	1169	1	poli_8sides 15_whiteLine3.jpg	MediumLong_e19_stereo_44KHz.wav
3	51	1	1	1	C	2	0	628	0	poli_8sides 12_whiteLine3.jpg	MediumLong_b10_cut2_L_stereo_44KHz.wav
3	52	2	1	0	C	2	1	966	1	poli_8sides 1_whiteLine3.jpg	MediumLong_b10_cut2_L_stereo_44KHz.wav
3	53	4	4	2	I	1	0	618	0	poli_8sides 18_whiteLine3.jpg	MediumLong_e19_stereo_44KHz.wav
3	54	1	2	0	C	2	1	597	1	poli_8sides 12_whiteLine3.jpg	Medium_e13_stereo_44KHz.wav
3	55	2	2	1	C	1	1	560	1	poli_8sides 1_whiteLine3.jpg	Medium_e13_stereo_44KHz.wav
3	56	3	3	2	I	2	0	573	0	poli_8sides 15_whiteLine3.jpg	Medium_e26_stereo_44KHz.wav
3	57	2	1	0	C	1	0	458	0	poli_8sides 1_whiteLine3.jpg	MediumLong_b10_cut2_L_stereo_44KHz.wav
3	58	4	3	2	I	2	0	477	0	poli_8sides 18_whiteLine3.jpg	Medium_e26_stereo_44KHz.wav
3	59	3	4	2	I	1	0	765	0	poli_8sides 15_whiteLine3.jpg	MediumLong_e19_stereo_44KHz.wav
3	60	1	2	0	C	2	1	570	1	poli_8sides 12_whiteLine3.jpg	Medium_e13_stereo_44KHz.wav
3	61	2	2	1	C	1	1	968	1	poli_8sides 1_whiteLine3.jpg	Medium_e13_stereo_44KHz.wav
3	62	4	4	2	I	2	0	696	1	poli_8sides 18_whiteLine3.jpg	MediumLong_e19_stereo_44KHz.wav
3	63	1	1	1	C	2	0	679	0	poli_8sides 12_whiteLine3.jpg	MediumLong_b10_cut2_L_stereo_44KHz.wav
3	64	3	3	2	I	2	0	657	0	poli_8sides 15_whiteLine3.jpg	Medium_e26_stereo_44KHz.wav
3	65	4	4	2	I	1	0	742	0	poli_8sides 18_whiteLine3.jpg	MediumLong_e19_stereo_44KHz.wav
3	66	1	1	1	C	2	0	803	0	poli_8sides 12_whiteLine3.jpg	MediumLong_b10_cut2_L_stereo_44KHz.wav
3	67	3	3	2	I	1	0	741	0	poli_8sides 15_whiteLine3.jpg	Medium_e26_stereo_44KHz.wav
3	68	2	2	1	C	2	0	736	0	poli_8sides 1_whiteLine3.jpg	Medium_e13_stereo_44KHz.wav
3	69	4	3	2	I	1	0	806	0	poli_8sides 18_whiteLine3.jpg	Medium_e26_stereo_44KHz.wav
3	70	2	1	0	C	2	1	913	1	poli_8sides 1_whiteLine3.jpg	MediumLong_b10_cut2_L_stereo_44KHz.wav
3	71	1	2	0	C	2	1	664	1	poli_8sides 12_whiteLine3.jpg	Medium_e13_stereo_44KHz.wav
3	72	3	4	2	I	1	0	902	0	poli_8sides 15_whiteLine3.jpg	MediumLong_e19_stereo_44KHz.wav
3	73	1	2	0	C	2	1	722	1	poli_8sides 12_whiteLine3.jpg	Medium_e13_stereo_44KHz.wav
3	74	2	1	0	C	2	1	736	1	poli_8sides 1_whiteLine3.jpg	MediumLong_b10_cut2_L_stereo_44KHz.wav
3	75	4	4	2	I	2	0	1249	1	poli_8sides 18_whiteLine3.jpg	MediumLong_e19_stereo_44KHz.wav
3	76	3	3	2	I	2	0	716	1	poli_8sides 15_whiteLine3.jpg	Medium_e26_stereo_44KHz.wav
3	77	4	3	2	I	2	0	622	0	poli_8sides 18_whiteLine3.jpg	Medium_e26_stereo_44KHz.wav
3	78	2	2	1	C	2	0	889	0	poli_8sides 1_whiteLine3.jpg	Medium_e13_stereo_44KHz.wav
3	79	1	1	1	C	1	1	958	1	poli_8sides 12_whiteLine3.jpg	MediumLong_b10_cut2_L_stereo_44KHz.wav
3	80	3	4	2	I	1	0	836	1	poli_8sides 15_whiteLine3.jpg	MediumLong_e19_stereo_44KHz.wav
3	81	1	1	1	C	2	0	1074	0	poli_8sides 12_whiteLine3.jpg	MediumLong_b10_cut2_L_stereo_44KHz.wav
3	82	2	1	0	C	1	0	1019	0	poli_8sides 1_whiteLine3.jpg	MediumLong_b10_cut2_L_stereo_44KHz.wav
3	83	3	3	2	I	2	0	834	0	poli_8sides 15_whiteLine3.jpg	Medium_e26_stereo_44KHz.wav
3	84	4	4	2	I	2	0	788	1	poli_8sides 18_whiteLine3.jpg	MediumLong_e19_stereo_44KHz.wav
3	85	1	2	0	C	1	0	725	0	poli_8sides 12_whiteLine3.jpg	Medium_e13_stereo_44KHz.wav
3	86	3	4	2	I	2	0	801	1	poli_8sides 15_whiteLine3.jpg	MediumLong_e19_stereo_44KHz.wav
3	87	2	2	1	C	2	0	806	0	poli_8sides 1_whiteLine3.jpg	Medium_e13_stereo_44KHz.wav
3	88	4	3	2	I	1	0	820	0	poli_8sides 18_whiteLine3.jpg	Medium_e26_stereo_44KHz.wav
3	89	2	1	0	C	2	1	915	1	poli_8sides 1_whiteLine3.jpg	MediumLong_b10_cut2_L_stereo_44KHz.wav
3	90	3	3	2	I	1	0	857	1	poli_8sides 15_whiteLine3.jpg	Medium_e26_stereo_44KHz.wav
3	91	1	2	0	C	2	1	869	1	poli_8sides 12_whiteLine3.jpg	Medium_e13_stereo_44KHz.wav
3	92	4	3	2	I	1	0	842	0	poli_8sides 18_whiteLine3.jpg	Medium_e26_stereo_44KHz.wav
3	93	1	1	1	C	2	0	1206	0	poli_8sides 12_whiteLine3.jpg	MediumLong_b10_cut2_L_stereo_44KHz.wav
3	94	3	4	2	I	1	0	849	0	poli_8sides 15_whiteLine3.jpg	MediumLong_e19_stereo_44KHz.wav
3	95	2	2	1	C	2	0	763	0	poli_8sides 1_whiteLine3.jpg	Medium_e13_stereo_44KHz.wav
3	96	4	4	2	I	2	0	1099	1	poli_8sides 18_whiteLine3.jpg	MediumLong_e19_stereo_44KHz.wav
3	97	2	1	0	C	2	1	1342	1	poli_8sides 1_whiteLine3.jpg	MediumLong_b10_cut2_L_stereo_44KHz.wav
3	98	4	4	2	I	1	0	767	1	poli_8sides 18_whiteLine3.jpg	MediumLong_e19_stereo_44KHz.wav
3	99	3	3	2	I	1	0	863	1	poli_8sides 15_whiteLine3.jpg	Medium_e26_stereo_44KHz.wav
3	100	1	2	0	C	2	1	973	1	poli_8sides 12_whiteLine3.jpg	Medium_e13_stereo_44KHz.wav
3	101	3	4	2	I	1	0	1075	0	poli_8sides 15_whiteLine3.jpg	MediumLong_e19_stereo_44KHz.wav
3	102	2	2	1	C	2	0	1092	0	poli_8sides 1_whiteLine3.jpg	Medium_e13_stereo_44KHz.wav
3	103	1	1	1	C	1	1	927	1	poli_8sides 12_whiteLine3.jpg	MediumLong_b10_cut2_L_stereo_44KHz.wav
3	104	4	3	2	I	1	0	776	0	poli_8sides 18_whiteLine3.jpg	Medium_e26_stereo_44KHz.wav
3	105	1	1	1	C	1	1	1027	1	poli_8sides 12_whiteLine3.jpg	MediumLong_b10_cut2_L_stereo_44KHz.wav
3	106	2	2	1	C	1	1	1108	1	poli_8sides 1_whiteLine3.jpg	Medium_e13_stereo_44KHz.wav
3	107	3	3	2	I	1	0	713	1	poli_8sides 15_whiteLine3.jpg	Medium_e26_stereo_44KHz.wav
3	108	4	4	2	I	1	0	809	1	poli_8sides 18_whiteLine3.jpg	MediumLong_e19_stereo_44KHz.wav
3	109	3	4	2	I	1	0	861	0	poli_8sides 15_whiteLine3.jpg	MediumLong_e19_stereo_44KHz.wav
3	110	4	3	2	I	1	0	822	1	poli_8sides 18_whiteLine3.jpg	Medium_e26_stereo_44KHz.wav
3	111	2	1	0	C	2	1	1163	1	poli_8sides 1_whiteLine3.jpg	MediumLong_b10_cut2_L_stereo_44KHz.wav
3	112	1	2	0	C	2	1	901	1	poli_8sides 12_whiteLine3.jpg	Medium_e13_stereo_44KHz.wav
3	113	3	4	2	I	2	0	1197	0	poli_8sides 15_whiteLine3.jpg	MediumLong_e19_stereo_44KHz.wav
3	114	2	1	0	C	1	0	974	0	poli_8sides 1_whiteLine3.jpg	MediumLong_b10_cut2_L_stereo_44KHz.wav
3	115	1	1	1	C	1	1	1160	1	poli_8sides 12_whiteLine3.jpg	MediumLong_b10_cut2_L_stereo_44KHz.wav
3	116	4	3	2	I	1	0	973	0	poli_8sides 18_whiteLine3.jpg	Medium_e26_stereo_44KHz.wav
3	117	1	2	0	C	2	1	1573	1	poli_8sides 12_whiteLine3.jpg	Medium_e13_stereo_44KHz.wav
3	118	2	2	1	C	1	1	1259	1	poli_8sides 1_whiteLine3.jpg	Medium_e13_stereo_44KHz.wav
3	119	3	3	2	I	2	0	1032	1	poli_8sides 15_whiteLine3.jpg	Medium_e26_stereo_44KHz.wav
3	120	4	4	2	I	1	0	680	1	poli_8sides 18_whiteLine3.jpg	MediumLong_e19_stereo_44KHz.wav
3	121	3	3	2	I	1	0	662	1	poli_8sides 15_whiteLine3.jpg	Medium_e26_stereo_44KHz.wav
3	122	1	1	1	C	1	1	986	1	poli_8sides 12_whiteLine3.jpg	MediumLong_b10_cut2_L_stereo_44KHz.wav
3	123	2	2	1	C	1	1	1236	1	poli_8sides 1_whiteLine3.jpg	Medium_e13_stereo_44KHz.wav
3	124	4	4	2	I	1	0	664	1	poli_8sides 18_whiteLine3.jpg	MediumLong_e19_stereo_44KHz.wav
3	125	3	4	2	I	2	0	1045	0	poli_8sides 15_whiteLine3.jpg	MediumLong_e19_stereo_44KHz.wav
3	126	1	2	0	C	2	1	1665	1	poli_8sides 12_whiteLine3.jpg	Medium_e13_stereo_44KHz.wav
3	127	2	1	0	C	2	1	1041	1	poli_8sides 1_whiteLine3.jpg	MediumLong_b10_cut2_L_stereo_44KHz.wav
3	128	4	3	2	I	2	0	1875	1	poli_8sides 18_whiteLine3.jpg	Medium_e26_stereo_44KHz.wav
3	129	2	2	1	C	1	1	1395	1	poli_8sides 1_whiteLine3.jpg	Medium_e13_stereo_44KHz.wav
3	130	3	3	2	I	2	0	804	0	poli_8sides 15_whiteLine3.jpg	Medium_e26_stereo_44KHz.wav
3	131	1	2	0	C	2	1	942	1	poli_8sides 12_whiteLine3.jpg	Medium_e13_stereo_44KHz.wav
3	132	4	3	2	I	2	0	1436	0	poli_8sides 18_whiteLine3.jpg	Medium_e26_stereo_44KHz.wav
3	133	2	1	0	C	2	1	1593	1	poli_8sides 1_whiteLine3.jpg	MediumLong_b10_cut2_L_stereo_44KHz.wav
3	134	3	4	2	I	1	0	777	0	poli_8sides 15_whiteLine3.jpg	MediumLong_e19_stereo_44KHz.wav
3	135	4	4	2	I	2	0	681	0	poli_8sides 18_whiteLine3.jpg	MediumLong_e19_stereo_44KHz.wav
3	136	1	1	1	C	1	1	1104	1	poli_8sides 12_whiteLine3.jpg	MediumLong_b10_cut2_L_stereo_44KHz.wav
3	137	2	2	1	C	1	1	1267	1	poli_8sides 1_whiteLine3.jpg	Medium_e13_stereo_44KHz.wav
3	138	3	4	2	I	1	0	947	0	poli_8sides 15_whiteLine3.jpg	MediumLong_e19_stereo_44KHz.wav
3	139	4	4	2	I	1	0	822	1	poli_8sides 18_whiteLine3.jpg	MediumLong_e19_stereo_44KHz.wav
3	140	1	2	0	C	2	1	1112	1	poli_8sides 12_whiteLine3.jpg	Medium_e13_stereo_44KHz.wav
3	141	3	3	2	I	2	0	1124	0	poli_8sides 15_whiteLine3.jpg	Medium_e26_stereo_44KHz.wav
3	142	2	1	0	C	2	1	1337	1	poli_8sides 1_whiteLine3.jpg	MediumLong_b10_cut2_L_stereo_44KHz.wav
3	143	1	1	1	C	1	1	1246	1	poli_8sides 12_whiteLine3.jpg	MediumLong_b10_cut2_L_stereo_44KHz.wav
3	144	4	3	2	I	1	0	949	1	poli_8sides 18_whiteLine3.jpg	Medium_e26_stereo_44KHz.wav
3	145	2	2	1	C	1	1	1373	1	poli_8sides 1_whiteLine3.jpg	Medium_e13_stereo_44KHz.wav
3	146	3	4	2	I	2	0	707	1	poli_8sides 15_whiteLine3.jpg	MediumLong_e19_stereo_44KHz.wav
3	147	4	4	2	I	2	0	812	1	poli_8sides 18_whiteLine3.jpg	MediumLong_e19_stereo_44KHz.wav
3	148	1	2	0	C	2	1	1035	1	poli_8sides 12_whiteLine3.jpg	Medium_e13_stereo_44KHz.wav
3	149	3	3	2	I	2	0	1123	1	poli_8sides 15_whiteLine3.jpg	Medium_e26_stereo_44KHz.wav
3	150	1	1	1	C	2	0	1252	0	poli_8sides 12_whiteLine3.jpg	MediumLong_b10_cut2_L_stereo_44KHz.wav
3	151	4	3	2	I	2	0	750	0	poli_8sides 18_whiteLine3.jpg	Medium_e26_stereo_44KHz.wav
3	152	2	1	0	C	2	1	1282	1	poli_8sides 1_whiteLine3.jpg	MediumLong_b10_cut2_L_stereo_44KHz.wav
3	153	4	3	2	I	1	0	907	0	poli_8sides 18_whiteLine3.jpg	Medium_e26_stereo_44KHz.wav
3	154	3	4	2	I	1	0	1290	1	poli_8sides 15_whiteLine3.jpg	MediumLong_e19_stereo_44KHz.wav
3	155	2	2	1	C	1	1	1194	1	poli_8sides 1_whiteLine3.jpg	Medium_e13_stereo_44KHz.wav
3	156	1	2	0	C	2	1	665	1	poli_8sides 12_whiteLine3.jpg	Medium_e13_stereo_44KHz.wav
3	157	2	1	0	C	2	1	1094	1	poli_8sides 1_whiteLine3.jpg	MediumLong_b10_cut2_L_stereo_44KHz.wav
3	158	1	1	1	C	1	1	1505	1	poli_8sides 12_whiteLine3.jpg	MediumLong_b10_cut2_L_stereo_44KHz.wav
3	159	4	4	2	I	2	0	829	0	poli_8sides 18_whiteLine3.jpg	MediumLong_e19_stereo_44KHz.wav
3	160	3	3	2	I	2	0	877	1	poli_8sides 15_whiteLine3.jpg	Medium_e26_stereo_44KHz.wav
3	161	4	4	2	I	2	0	791	1	poli_8sides 18_whiteLine3.jpg	MediumLong_e19_stereo_44KHz.wav
3	162	2	1	0	C	2	1	1039	1	poli_8sides 1_whiteLine3.jpg	MediumLong_b10_cut2_L_stereo_44KHz.wav
3	163	1	2	0	C	2	1	705	1	poli_8sides 12_whiteLine3.jpg	Medium_e13_stereo_44KHz.wav
3	164	3	3	2	I	2	0	759	0	poli_8sides 15_whiteLine3.jpg	Medium_e26_stereo_44KHz.wav
3	165	2	2	1	C	2	0	990	0	poli_8sides 1_whiteLine3.jpg	Medium_e13_stereo_44KHz.wav
3	166	4	3	2	I	1	0	889	1	poli_8sides 18_whiteLine3.jpg	Medium_e26_stereo_44KHz.wav
3	167	3	4	2	I	2	0	1001	0	poli_8sides 15_whiteLine3.jpg	MediumLong_e19_stereo_44KHz.wav
3	168	1	1	1	C	1	1	929	1	poli_8sides 12_whiteLine3.jpg	MediumLong_b10_cut2_L_stereo_44KHz.wav
3	169	4	3	2	I	2	0	848	0	poli_8sides 18_whiteLine3.jpg	Medium_e26_stereo_44KHz.wav
3	170	1	2	0	C	2	1	927	1	poli_8sides 12_whiteLine3.jpg	Medium_e13_stereo_44KHz.wav
3	171	2	1	0	C	2	1	1437	1	poli_8sides 1_whiteLine3.jpg	MediumLong_b10_cut2_L_stereo_44KHz.wav
3	172	3	3	2	I	1	0	1071	1	poli_8sides 15_whiteLine3.jpg	Medium_e26_stereo_44KHz.wav
3	173	1	1	1	C	1	1	1000	1	poli_8sides 12_whiteLine3.jpg	MediumLong_b10_cut2_L_stereo_44KHz.wav
3	174	2	2	1	C	2	0	1233	0	poli_8sides 1_whiteLine3.jpg	Medium_e13_stereo_44KHz.wav
3	175	3	4	2	I	1	0	807	1	poli_8sides 15_whiteLine3.jpg	MediumLong_e19_stereo_44KHz.wav
3	176	4	4	2	I	2	0	880	0	poli_8sides 18_whiteLine3.jpg	MediumLong_e19_stereo_44KHz.wav
3	177	3	3	2	I	2	0	1018	0	poli_8sides 15_whiteLine3.jpg	Medium_e26_stereo_44KHz.wav
3	178	1	1	1	C	1	1	937	1	poli_8sides 12_whiteLine3.jpg	MediumLong_b10_cut2_L_stereo_44KHz.wav
3	179	2	1	0	C	2	1	1126	1	poli_8sides 1_whiteLine3.jpg	MediumLong_b10_cut2_L_stereo_44KHz.wav
3	180	4	3	2	I	2	0	780	1	poli_8sides 18_whiteLine3.jpg	Medium_e26_stereo_44KHz.wav
3	181	3	4	2	I	2	0	881	1	poli_8sides 15_whiteLine3.jpg	MediumLong_e19_stereo_44KHz.wav
3	182	1	2	0	C	2	1	1616	1	poli_8sides 12_whiteLine3.jpg	Medium_e13_stereo_44KHz.wav
3	183	2	2	1	C	1	1	975	1	poli_8sides 1_whiteLine3.jpg	Medium_e13_stereo_44KHz.wav
3	184	4	4	2	I	2	0	776	0	poli_8sides 18_whiteLine3.jpg	MediumLong_e19_stereo_44KHz.wav
3	185	2	2	1	C	1	1	1438	1	poli_8sides 1_whiteLine3.jpg	Medium_e13_stereo_44KHz.wav
3	186	1	1	1	C	1	1	1384	1	poli_8sides 12_whiteLine3.jpg	MediumLong_b10_cut2_L_stereo_44KHz.wav
3	187	4	4	2	I	2	0	1274	0	poli_8sides 18_whiteLine3.jpg	MediumLong_e19_stereo_44KHz.wav
3	188	3	4	2	I	1	0	707	1	poli_8sides 15_whiteLine3.jpg	MediumLong_e19_stereo_44KHz.wav
3	189	1	2	0	C	2	1	1585	1	poli_8sides 12_whiteLine3.jpg	Medium_e13_stereo_44KHz.wav
3	190	3	3	2	I	1	0	875	1	poli_8sides 15_whiteLine3.jpg	Medium_e26_stereo_44KHz.wav
3	191	4	3	2	I	2	0	975	1	poli_8sides 18_whiteLine3.jpg	Medium_e26_stereo_44KHz.wav
3	192	2	1	0	C	2	1	1240	1	poli_8sides 1_whiteLine3.jpg	MediumLong_b10_cut2_L_stereo_44KHz.wav
3	193	4	4	2	I	1	0	895	0	poli_8sides 18_whiteLine3.jpg	MediumLong_e19_stereo_44KHz.wav
3	194	2	2	1	C	1	1	1208	1	poli_8sides 1_whiteLine3.jpg	Medium_e13_stereo_44KHz.wav
3	195	3	3	2	I	2	0	1171	1	poli_8sides 15_whiteLine3.jpg	Medium_e26_stereo_44KHz.wav
3	196	1	2	0	C	2	1	1058	1	poli_8sides 12_whiteLine3.jpg	Medium_e13_stereo_44KHz.wav
3	197	4	3	2	I	1	0	855	1	poli_8sides 18_whiteLine3.jpg	Medium_e26_stereo_44KHz.wav
3	198	2	1	0	C	2	1	1133	1	poli_8sides 1_whiteLine3.jpg	MediumLong_b10_cut2_L_stereo_44KHz.wav
3	199	1	1	1	C	1	1	842	1	poli_8sides 12_whiteLine3.jpg	MediumLong_b10_cut2_L_stereo_44KHz.wav
3	200	3	4	2	I	2	0	1340	0	poli_8sides 15_whiteLine3.jpg	MediumLong_e19_stereo_44KHz.wav
4	1	3	3	2	I	2	0	1878	1	poli_8sides 7_whiteLine3.jpg	MediumShort_e22_cut1_stereo_44KHz.wav
4	2	4	3	2	I	1	0	764	0	poli_8sides 2_whiteLine3.jpg	MediumShort_e22_cut1_stereo_44KHz.wav
4	3	1	1	1	C	2	0	644	0	poli_8sides 8_whiteLine3.jpg	MediumShort_b10_cut1_MS_stereo_44KHz.wav
4	4	2	1	0	C	2	1	926	1	poli_8sides 6_whiteLine3.jpg	MediumShort_b10_cut1_MS_stereo_44KHz.wav
4	5	1	2	0	C	1	0	862	0	poli_8sides 8_whiteLine3.jpg	MediumShort_e16_cut1_stereo_44KHz.wav
4	6	2	2	1	C	1	1	821	1	poli_8sides 6_whiteLine3.jpg	MediumShort_e16_cut1_stereo_44KHz.wav
4	7	4	4	2	I	2	0	849	1	poli_8sides 2_whiteLine3.jpg	MediumShort_b16_cut3_MS_stereo_44KHz.wav
4	8	3	4	2	I	1	0	983	0	poli_8sides 7_whiteLine3.jpg	MediumShort_b16_cut3_MS_stereo_44KHz.wav
4	9	1	2	0	C	2	1	932	1	poli_8sides 8_whiteLine3.jpg	MediumShort_e16_cut1_stereo_44KHz.wav
4	10	4	4	2	I	1	0	783	1	poli_8sides 2_whiteLine3.jpg	MediumShort_b16_cut3_MS_stereo_44KHz.wav
4	11	3	3	2	I	1	0	982	0	poli_8sides 7_whiteLine3.jpg	MediumShort_e22_cut1_stereo_44KHz.wav
4	12	2	2	1	C	2	0	967	0	poli_8sides 6_whiteLine3.jpg	MediumShort_e16_cut1_stereo_44KHz.wav
4	13	1	1	1	C	2	0	829	0	poli_8sides 8_whiteLine3.jpg	MediumShort_b10_cut1_MS_stereo_44KHz.wav
4	14	3	4	2	I	2	0	743	0	poli_8sides 7_whiteLine3.jpg	MediumShort_b16_cut3_MS_stereo_44KHz.wav
4	15	2	1	0	C	1	0	954	0	poli_8sides 6_whiteLine3.jpg	MediumShort_b10_cut1_MS_stereo_44KHz.wav
4	16	4	3	2	I	2	0	665	1	poli_8sides 2_whiteLine3.jpg	MediumShort_e22_cut1_stereo_44KHz.wav
4	17	1	1	1	C	2	0	761	0	poli_8sides 8_whiteLine3.jpg	MediumShort_b10_cut1_MS_stereo_44KHz.wav
4	18	2	2	1	C	1	1	770	1	poli_8sides 6_whiteLine3.jpg	MediumShort_e16_cut1_stereo_44KHz.wav
4	19	4	4	2	I	2	0	652	1	poli_8sides 2_whiteLine3.jpg	MediumShort_b16_cut3_MS_stereo_44KHz.wav
4	20	3	4	2	I	1	0	773	1	poli_8sides 7_whiteLine3.jpg	MediumShort_b16_cut3_MS_stereo_44KHz.wav
4	21	2	1	0	C	2	1	837	1	poli_8sides 6_whiteLine3.jpg	MediumShort_b10_cut1_MS_stereo_44KHz.wav
4	22	4	3	2	I	1	0	967	0	poli_8sides 2_whiteLine3.jpg	MediumShort_e22_cut1_stereo_44KHz.wav
4	23	1	2	0	C	2	1	878	1	poli_8sides 8_whiteLine3.jpg	MediumShort_e16_cut1_stereo_44KHz.wav
4	24	3	3	2	I	2	0	808	1	poli_8sides 7_whiteLine3.jpg	MediumShort_e22_cut1_stereo_44KHz.wav
4	25	4	4	2	I	2	0	677	0	poli_8sides 2_whiteLine3.jpg	MediumShort_b16_cut3_MS_stereo_44KHz.wav
4	26	1	2	0	C	1	0	611	0	poli_8sides 8_whiteLine3.jpg	MediumShort_e16_cut1_stereo_44KHz.wav
4	27	3	3	2	I	2	0	461	1	poli_8sides 7_whiteLine3.jpg	MediumShort_e22_cut1_stereo_44KHz.wav
4	28	2	2	1	C	2	0	1036	0	poli_8sides 6_whiteLine3.jpg	MediumShort_e16_cut1_stereo_44KHz.wav
4	29	4	3	2	I	1	0	982	0	poli_8sides 2_whiteLine3.jpg	MediumShort_e22_cut1_stereo_44KHz.wav
4	30	3	4	2	I	2	0	603	0	poli_8sides 7_whiteLine3.jpg	MediumShort_b16_cut3_MS_stereo_44KHz.wav
4	31	1	1	1	C	1	1	508	1	poli_8sides 8_whiteLine3.jpg	MediumShort_b10_cut1_MS_stereo_44KHz.wav
4	32	2	1	0	C	2	1	559	1	poli_8sides 6_whiteLine3.jpg	MediumShort_b10_cut1_MS_stereo_44KHz.wav
4	33	4	3	2	I	2	0	853	0	poli_8sides 2_whiteLine3.jpg	MediumShort_e22_cut1_stereo_44KHz.wav
4	34	2	1	0	C	2	1	638	1	poli_8sides 6_whiteLine3.jpg	MediumShort_b10_cut1_MS_stereo_44KHz.wav
4	35	3	3	2	I	2	0	766	1	poli_8sides 7_whiteLine3.jpg	MediumShort_e22_cut1_stereo_44KHz.wav
4	36	1	1	1	C	1	1	659	1	poli_8sides 8_whiteLine3.jpg	MediumShort_b10_cut1_MS_stereo_44KHz.wav
4	37	4	4	2	I	2	0	578	1	poli_8sides 2_whiteLine3.jpg	MediumShort_b16_cut3_MS_stereo_44KHz.wav
4	38	2	2	1	C	1	1	764	1	poli_8sides 6_whiteLine3.jpg	MediumShort_e16_cut1_stereo_44KHz.wav
4	39	3	4	2	I	2	0	655	1	poli_8sides 7_whiteLine3.jpg	MediumShort_b16_cut3_MS_stereo_44KHz.wav
4	40	1	2	0	C	1	0	723	0	poli_8sides 8_whiteLine3.jpg	MediumShort_e16_cut1_stereo_44KHz.wav
4	41	3	3	2	I	1	0	834	1	poli_8sides 7_whiteLine3.jpg	MediumShort_e22_cut1_stereo_44KHz.wav
4	42	4	3	2	I	2	0	850	1	poli_8sides 2_whiteLine3.jpg	MediumShort_e22_cut1_stereo_44KHz.wav
4	43	1	1	1	C	1	1	949	1	poli_8sides 8_whiteLine3.jpg	MediumShort_b10_cut1_MS_stereo_44KHz.wav
4	44	2	1	0	C	1	0	767	0	poli_8sides 6_whiteLine3.jpg	MediumShort_b10_cut1_MS_stereo_44KHz.wav
4	45	4	4	2	I	2	0	627	1	poli_8sides 2_whiteLine3.jpg	MediumShort_b16_cut3_MS_stereo_44KHz.wav
4	46	1	2	0	C	2	1	656	1	poli_8sides 8_whiteLine3.jpg	MediumShort_e16_cut1_stereo_44KHz.wav
4	47	3	4	2	I	1	0	805	0	poli_8sides 7_whiteLine3.jpg	MediumShort_b16_cut3_MS_stereo_44KHz.wav
4	48	2	2	1	C	1	1	774	1	poli_8sides 6_whiteLine3.jpg	MediumShort_e16_cut1_stereo_44KHz.wav
4	49	4	4	2	I	2	0	758	1	poli_8sides 2_whiteLine3.jpg	MediumShort_b16_cut3_MS_stereo_44KHz.wav
4	50	1	1	1	C	2	0	837	0	poli_8sides 8_whiteLine3.jpg	MediumShort_b10_cut1_MS_stereo_44KHz.wav
4	51	3	4	2	I	1	0	820	0	poli_8sides 7_whiteLine3.jpg	MediumShort_b16_cut3_MS_stereo_44KHz.wav
4	52	2	2	1	C	2	0	714	0	poli_8sides 6_whiteLine3.jpg	MediumShort_e16_cut1_stereo_44KHz.wav
4	53	1	2	0	C	1	0	865	0	poli_8sides 8_whiteLine3.jpg	MediumShort_e16_cut1_stereo_44KHz.wav
4	54	3	3	2	I	2	0	644	0	poli_8sides 7_whiteLine3.jpg	MediumShort_e22_cut1_stereo_44KHz.wav
4	55	4	3	2	I	2	0	703	0	poli_8sides 2_whiteLine3.jpg	MediumShort_e22_cut1_stereo_44KHz.wav
4	56	2	1	0	C	1	0	768	0	poli_8sides 6_whiteLine3.jpg	MediumShort_b10_cut1_MS_stereo_44KHz.wav
4	57	3	3	2	I	2	0	624	0	poli_8sides 7_whiteLine3.jpg	MediumShort_e22_cut1_stereo_44KHz.wav
4	58	1	2	0	C	1	0	625	0	poli_8sides 8_whiteLine3.jpg	MediumShort_e16_cut1_stereo_44KHz.wav
4	59	4	3	2	I	1	0	941	0	poli_8sides 2_whiteLine3.jpg	MediumShort_e22_cut1_stereo_44KHz.wav
4	60	2	1	0	C	2	1	644	1	poli_8sides 6_whiteLine3.jpg	MediumShort_b10_cut1_MS_stereo_44KHz.wav
4	61	3	4	2	I	2	0	768	1	poli_8sides 7_whiteLine3.jpg	MediumShort_b16_cut3_MS_stereo_44KHz.wav
4	62	2	2	1	C	1	1	1049	1	poli_8sides 6_whiteLine3.jpg	MediumShort_e16_cut1_stereo_44KHz.wav
4	63	1	1	1	C	2	0	679	0	poli_8sides 8_whiteLine3.jpg	MediumShort_b10_cut1_MS_stereo_44KHz.wav
4	64	4	4	2	I	2	0	692	0	poli_8sides 2_whiteLine3.jpg	MediumShort_b16_cut3_MS_stereo_44KHz.wav
4	65	3	3	2	I	2	0	1054	1	poli_8sides 7_whiteLine3.jpg	MediumShort_e22_cut1_stereo_44KHz.wav
4	66	2	2	1	C	1	1	983	1	poli_8sides 6_whiteLine3.jpg	MediumShort_e16_cut1_stereo_44KHz.wav
4	67	1	1	1	C	1	1	904	1	poli_8sides 8_whiteLine3.jpg	MediumShort_b10_cut1_MS_stereo_44KHz.wav
4	68	4	4	2	I	2	0	589	0	poli_8sides 2_whiteLine3.jpg	MediumShort_b16_cut3_MS_stereo_44KHz.wav
4	69	2	1	0	C	1	0	1052	0	poli_8sides 6_whiteLine3.jpg	MediumShort_b10_cut1_MS_stereo_44KHz.wav
4	70	4	3	2	I	2	0	1041	0	poli_8sides 2_whiteLine3.jpg	MediumShort_e22_cut1_stereo_44KHz.wav
4	71	3	4	2	I	2	0	1015	0	poli_8sides 7_whiteLine3.jpg	MediumShort_b16_cut3_MS_stereo_44KHz.wav
4	72	1	2	0	C	2	1	591	1	poli_8sides 8_whiteLine3.jpg	MediumShort_e16_cut1_stereo_44KHz.wav
4	73	3	4	2	I	1	0	976	0	poli_8sides 7_whiteLine3.jpg	MediumShort_b16_cut3_MS_stereo_44KHz.wav
4	74	4	3	2	I	2	0	684	0	poli_8sides 2_whiteLine3.jpg	MediumShort_e22_cut1_stereo_44KHz.wav
4	75	1	2	0	C	2	1	814	1	poli_8sides 8_whiteLine3.jpg	MediumShort_e16_cut1_stereo_44KHz.wav
4	76	2	1	0	C	1	0	576	0	poli_8sides 6_whiteLine3.jpg	MediumShort_b10_cut1_MS_stereo_44KHz.wav
4	77	4	4	2	I	2	0	759	0	poli_8sides 2_whiteLine3.jpg	MediumShort_b16_cut3_MS_stereo_44KHz.wav
4	78	3	3	2	I	2	0	371	0	poli_8sides 7_whiteLine3.jpg	MediumShort_e22_cut1_stereo_44KHz.wav
4	79	2	2	1	C	1	1	750	1	poli_8sides 6_whiteLine3.jpg	MediumShort_e16_cut1_stereo_44KHz.wav
4	80	1	1	1	C	2	0	506	0	poli_8sides 8_whiteLine3.jpg	MediumShort_b10_cut1_MS_stereo_44KHz.wav
4	81	2	2	1	C	1	1	661	1	poli_8sides 6_whiteLine3.jpg	MediumShort_e16_cut1_stereo_44KHz.wav
4	82	4	4	2	I	2	0	476	0	poli_8sides 2_whiteLine3.jpg	MediumShort_b16_cut3_MS_stereo_44KHz.wav
4	83	3	3	2	I	2	0	715	0	poli_8sides 7_whiteLine3.jpg	MediumShort_e22_cut1_stereo_44KHz.wav
4	84	1	2	0	C	2	1	369	1	poli_8sides 8_whiteLine3.jpg	MediumShort_e16_cut1_stereo_44KHz.wav
4	85	4	3	2	I	1	0	879	1	poli_8sides 2_whiteLine3.jpg	MediumShort_e22_cut1_stereo_44KHz.wav
4	86	3	4	2	I	2	0	441	1	poli_8sides 7_whiteLine3.jpg	MediumShort_b16_cut3_MS_stereo_44KHz.wav
4	87	1	1	1	C	2	0	589	0	poli_8sides 8_whiteLine3.jpg	MediumShort_b10_cut1_MS_stereo_44KHz.wav
4	88	2	1	0	C	2	1	349	1	poli_8sides 6_whiteLine3.jpg	MediumShort_b10_cut1_MS_stereo_44KHz.wav
4	89	1	2	0	C	1	0	703	0	poli_8sides 8_whiteLine3.jpg	MediumShort_e16_cut1_stereo_44KHz.wav
4	90	2	1	0	C	2	1	464	1	poli_8sides 6_whiteLine3.jpg	MediumShort_b10_cut1_MS_stereo_44KHz.wav
4	91	3	4	2	I	1	0	398	0	poli_8sides 7_whiteLine3.jpg	MediumShort_b16_cut3_MS_stereo_44KHz.wav
4	92	4	4	2	I	2	0	321	1	poli_8sides 2_whiteLine3.jpg	MediumShort_b16_cut3_MS_stereo_44KHz.wav
4	93	3	3	2	I	2	0	312	0	poli_8sides 7_whiteLine3.jpg	MediumShort_e22_cut1_stereo_44KHz.wav
4	94	2	2	1	C	1	1	1324	1	poli_8sides 6_whiteLine3.jpg	MediumShort_e16_cut1_stereo_44KHz.wav
4	95	1	1	1	C	2	0	603	0	poli_8sides 8_whiteLine3.jpg	MediumShort_b10_cut1_MS_stereo_44KHz.wav
4	96	4	3	2	I	2	0	869	0	poli_8sides 2_whiteLine3.jpg	MediumShort_e22_cut1_stereo_44KHz.wav
4	97	1	2	0	C	1	0	1029	0	poli_8sides 8_whiteLine3.jpg	MediumShort_e16_cut1_stereo_44KHz.wav
4	98	4	4	2	I	1	0	891	0	poli_8sides 2_whiteLine3.jpg	MediumShort_b16_cut3_MS_stereo_44KHz.wav
4	99	3	3	2	I	2	0	561	0	poli_8sides 7_whiteLine3.jpg	MediumShort_e22_cut1_stereo_44KHz.wav
4	100	2	1	0	C	1	0	1183	0	poli_8sides 6_whiteLine3.jpg	MediumShort_b10_cut1_MS_stereo_44KHz.wav
4	101	3	4	2	I	1	0	935	0	poli_8sides 7_whiteLine3.jpg	MediumShort_b16_cut3_MS_stereo_44KHz.wav
4	102	4	3	2	I	2	0	898	1	poli_8sides 2_whiteLine3.jpg	MediumShort_e22_cut1_stereo_44KHz.wav
4	103	2	2	1	C	2	0	792	0	poli_8sides 6_whiteLine3.jpg	MediumShort_e16_cut1_stereo_44KHz.wav
4	104	1	1	1	C	1	1	657	1	poli_8sides 8_whiteLine3.jpg	MediumShort_b10_cut1_MS_stereo_44KHz.wav
4	105	3	3	2	I	2	0	608	0	poli_8sides 7_whiteLine3.jpg	MediumShort_e22_cut1_stereo_44KHz.wav
4	106	1	2	0	C	1	0	416	0	poli_8sides 8_whiteLine3.jpg	MediumShort_e16_cut1_stereo_44KHz.wav
4	107	2	2	1	C	1	1	775	1	poli_8sides 6_whiteLine3.jpg	MediumShort_e16_cut1_stereo_44KHz.wav
4	108	4	4	2	I	2	0	1094	0	poli_8sides 2_whiteLine3.jpg	MediumShort_b16_cut3_MS_stereo_44KHz.wav
4	109	1	1	1	C	1	1	969	1	poli_8sides 8_whiteLine3.jpg	MediumShort_b10_cut1_MS_stereo_44KHz.wav
4	110	3	4	2	I	2	0	996	1	poli_8sides 7_whiteLine3.jpg	MediumShort_b16_cut3_MS_stereo_44KHz.wav
4	111	2	1	0	C	1	0	957	0	poli_8sides 6_whiteLine3.jpg	MediumShort_b10_cut1_MS_stereo_44KHz.wav
4	112	4	3	2	I	2	0	917	1	poli_8sides 2_whiteLine3.jpg	MediumShort_e22_cut1_stereo_44KHz.wav
4	113	1	2	0	C	2	1	628	1	poli_8sides 8_whiteLine3.jpg	MediumShort_e16_cut1_stereo_44KHz.wav
4	114	2	2	1	C	2	0	1323	0	poli_8sides 6_whiteLine3.jpg	MediumShort_e16_cut1_stereo_44KHz.wav
4	115	4	4	2	I	2	0	1133	1	poli_8sides 2_whiteLine3.jpg	MediumShort_b16_cut3_MS_stereo_44KHz.wav
4	116	3	4	2	I	1	0	927	1	poli_8sides 7_whiteLine3.jpg	MediumShort_b16_cut3_MS_stereo_44KHz.wav
4	117	2	1	0	C	2	1	823	1	poli_8sides 6_whiteLine3.jpg	MediumShort_b10_cut1_MS_stereo_44KHz.wav
4	118	3	3	2	I	2	0	1073	0	poli_8sides 7_whiteLine3.jpg	MediumShort_e22_cut1_stereo_44KHz.wav
4	119	4	3	2	I	1	0	1018	1	poli_8sides 2_whiteLine3.jpg	MediumShort_e22_cut1_stereo_44KHz.wav
4	120	1	1	1	C	2	0	884	0	poli_8sides 8_whiteLine3.jpg	MediumShort_b10_cut1_MS_stereo_44KHz.wav
4	121	3	3	2	I	2	0	1030	1	poli_8sides 7_whiteLine3.jpg	MediumShort_e22_cut1_stereo_44KHz.wav
4	122	1	2	0	C	2	1	878	1	poli_8sides 8_whiteLine3.jpg	MediumShort_e16_cut1_stereo_44KHz.wav
4	123	4	3	2	I	2	0	753	1	poli_8sides 2_whiteLine3.jpg	MediumShort_e22_cut1_stereo_44KHz.wav
4	124	2	1	0	C	1	0	1177	0	poli_8sides 6_whiteLine3.jpg	MediumShort_b10_cut1_MS_stereo_44KHz.wav
4	125	3	4	2	I	2	0	1248	1	poli_8sides 7_whiteLine3.jpg	MediumShort_b16_cut3_MS_stereo_44KHz.wav
4	126	1	1	1	C	1	1	922	1	poli_8sides 8_whiteLine3.jpg	MediumShort_b10_cut1_MS_stereo_44KHz.wav
4	127	2	2	1	C	2	0	910	0	poli_8sides 6_whiteLine3.jpg	MediumShort_e16_cut1_stereo_44KHz.wav
4	128	4	4	2	I	2	0	872	0	poli_8sides 2_whiteLine3.jpg	MediumShort_b16_cut3_MS_stereo_44KHz.wav
4	129	2	1	0	C	1	0	802	0	poli_8sides 6_whiteLine3.jpg	MediumShort_b10_cut1_MS_stereo_44KHz.wav
4	130	1	1	1	C	2	0	628	0	poli_8sides 8_whiteLine3.jpg	MediumShort_b10_cut1_MS_stereo_44KHz.wav
4	131	3	3	2	I	2	0	842	1	poli_8sides 7_whiteLine3.jpg	MediumShort_e22_cut1_stereo_44KHz.wav
4	132	4	3	2	I	2	0	937	1	poli_8sides 2_whiteLine3.jpg	MediumShort_e22_cut1_stereo_44KHz.wav
4	133	1	2	0	C	2	1	711	1	poli_8sides 8_whiteLine3.jpg	MediumShort_e16_cut1_stereo_44KHz.wav
4	134	3	4	2	I	1	0	913	1	poli_8sides 7_whiteLine3.jpg	MediumShort_b16_cut3_MS_stereo_44KHz.wav
4	135	2	2	1	C	2	0	933	0	poli_8sides 6_whiteLine3.jpg	MediumShort_e16_cut1_stereo_44KHz.wav
4	136	4	4	2	I	2	0	675	0	poli_8sides 2_whiteLine3.jpg	MediumShort_b16_cut3_MS_stereo_44KHz.wav
4	137	3	4	2	I	2	0	955	1	poli_8sides 7_whiteLine3.jpg	MediumShort_b16_cut3_MS_stereo_44KHz.wav
4	138	4	3	2	I	2	0	712	1	poli_8sides 2_whiteLine3.jpg	MediumShort_e22_cut1_stereo_44KHz.wav
4	139	1	1	1	C	1	1	744	1	poli_8sides 8_whiteLine3.jpg	MediumShort_b10_cut1_MS_stereo_44KHz.wav
4	140	2	2	1	C	2	0	807	0	poli_8sides 6_whiteLine3.jpg	MediumShort_e16_cut1_stereo_44KHz.wav
4	141	1	2	0	C	2	1	946	1	poli_8sides 8_whiteLine3.jpg	MediumShort_e16_cut1_stereo_44KHz.wav
4	142	3	3	2	I	2	0	906	1	poli_8sides 7_whiteLine3.jpg	MediumShort_e22_cut1_stereo_44KHz.wav
4	143	4	4	2	I	2	0	927	0	poli_8sides 2_whiteLine3.jpg	MediumShort_b16_cut3_MS_stereo_44KHz.wav
4	144	2	1	0	C	2	1	1043	1	poli_8sides 6_whiteLine3.jpg	MediumShort_b10_cut1_MS_stereo_44KHz.wav
4	145	4	4	2	I	2	0	964	0	poli_8sides 2_whiteLine3.jpg	MediumShort_b16_cut3_MS_stereo_44KHz.wav
4	146	2	2	1	C	1	1	1122	1	poli_8sides 6_whiteLine3.jpg	MediumShort_e16_cut1_stereo_44KHz.wav
4	147	3	3	2	I	2	0	720	0	poli_8sides 7_whiteLine3.jpg	MediumShort_e22_cut1_stereo_44KHz.wav
4	148	1	2	0	C	2	1	636	1	poli_8sides 8_whiteLine3.jpg	MediumShort_e16_cut1_stereo_44KHz.wav
4	149	4	3	2	I	2	0	866	1	poli_8sides 2_whiteLine3.jpg	MediumShort_e22_cut1_stereo_44KHz.wav
4	150	3	4	2	I	1	0	872	1	poli_8sides 7_whiteLine3.jpg	MediumShort_b16_cut3_MS_stereo_44KHz.wav
4	151	1	1	1	C	2	0	726	0	poli_8sides 8_whiteLine3.jpg	MediumShort_b10_cut1_MS_stereo_44KHz.wav
4	152	2	1	0	C	1	0	618	0	poli_8sides 6_whiteLine3.jpg	MediumShort_b10_cut1_MS_stereo_44KHz.wav
4	153	4	3	2	I	2	0	653	0	poli_8sides 2_whiteLine3.jpg	MediumShort_e22_cut1_stereo_44KHz.wav
4	154	2	1	0	C	1	0	513	0	poli_8sides 6_whiteLine3.jpg	MediumShort_b10_cut1_MS_stereo_44KHz.wav
4	155	1	1	1	C	2	0	442	0	poli_8sides 8_whiteLine3.jpg	MediumShort_b10_cut1_MS_stereo_44KHz.wav
4	156	3	3	2	I	2	0	762	1	poli_8sides 7_whiteLine3.jpg	MediumShort_e22_cut1_stereo_44KHz.wav
4	157	1	2	0	C	2	1	515	1	poli_8sides 8_whiteLine3.jpg	MediumShort_e16_cut1_stereo_44KHz.wav
4	158	2	2	1	C	1	1	1027	1	poli_8sides 6_whiteLine3.jpg	MediumShort_e16_cut1_stereo_44KHz.wav
4	159	3	4	2	I	2	0	1065	0	poli_8sides 7_whiteLine3.jpg	MediumShort_b16_cut3_MS_stereo_44KHz.wav
4	160	4	4	2	I	2	0	973	1	poli_8sides 2_whiteLine3.jpg	MediumShort_b16_cut3_MS_stereo_44KHz.wav
4	161	3	4	2	I	2	0	723	0	poli_8sides 7_whiteLine3.jpg	MediumShort_b16_cut3_MS_stereo_44KHz.wav
4	162	1	1	1	C	1	1	891	1	poli_8sides 8_whiteLine3.jpg	MediumShort_b10_cut1_MS_stereo_44KHz.wav
4	163	2	2	1	C	1	1	864	1	poli_8sides 6_whiteLine3.jpg	MediumShort_e16_cut1_stereo_44KHz.wav
4	164	4	3	2	I	2	0	1224	1	poli_8sides 2_whiteLine3.jpg	MediumShort_e22_cut1_stereo_44KHz.wav
4	165	1	2	0	C	2	1	810	1	poli_8sides 8_whiteLine3.jpg	MediumShort_e16_cut1_stereo_44KHz.wav
4	166	3	3	2	I	2	0	954	1	poli_8sides 7_whiteLine3.jpg	MediumShort_e22_cut1_stereo_44KHz.wav
4	167	2	1	0	C	1	0	773	0	poli_8sides 6_whiteLine3.jpg	MediumShort_b10_cut1_MS_stereo_44KHz.wav
4	168	4	4	2	I	1	0	1117	1	poli_8sides 2_whiteLine3.jpg	MediumShort_b16_cut3_MS_stereo_44KHz.wav
4	169	3	4	2	I	2	0	1091	0	poli_8sides 7_whiteLine3.jpg	MediumShort_b16_cut3_MS_stereo_44KHz.wav
4	170	2	2	1	C	1	1	950	1	poli_8sides 6_whiteLine3.jpg	MediumShort_e16_cut1_stereo_44KHz.wav
4	171	4	3	2	I	2	0	521	1	poli_8sides 2_whiteLine3.jpg	MediumShort_e22_cut1_stereo_44KHz.wav
4	172	1	2	0	C	2	1	831	1	poli_8sides 8_whiteLine3.jpg	MediumShort_e16_cut1_stereo_44KHz.wav
4	173	2	1	0	C	1	0	758	0	poli_8sides 6_whiteLine3.jpg	MediumShort_b10_cut1_MS_stereo_44KHz.wav
4	174	1	1	1	C	2	0	528	0	poli_8sides 8_whiteLine3.jpg	MediumShort_b10_cut1_MS_stereo_44KHz.wav
4	175	3	3	2	I	2	0	1032	1	poli_8sides 7_whiteLine3.jpg	MediumShort_e22_cut1_stereo_44KHz.wav
4	176	4	4	2	I	1	0	739	0	poli_8sides 2_whiteLine3.jpg	MediumShort_b16_cut3_MS_stereo_44KHz.wav
4	177	2	1	0	C	1	0	735	0	poli_8sides 6_whiteLine3.jpg	MediumShort_b10_cut1_MS_stereo_44KHz.wav
4	178	1	2	0	C	2	1	828	1	poli_8sides 8_whiteLine3.jpg	MediumShort_e16_cut1_stereo_44KHz.wav
4	179	3	4	2	I	2	0	706	0	poli_8sides 7_whiteLine3.jpg	MediumShort_b16_cut3_MS_stereo_44KHz.wav
4	180	4	3	2	I	2	0	854	0	poli_8sides 2_whiteLine3.jpg	MediumShort_e22_cut1_stereo_44KHz.wav
4	181	2	2	1	C	1	1	1022	1	poli_8sides 6_whiteLine3.jpg	MediumShort_e16_cut1_stereo_44KHz.wav
4	182	3	3	2	I	2	0	843	1	poli_8sides 7_whiteLine3.jpg	MediumShort_e22_cut1_stereo_44KHz.wav
4	183	1	1	1	C	1	1	1047	1	poli_8sides 8_whiteLine3.jpg	MediumShort_b10_cut1_MS_stereo_44KHz.wav
4	184	4	4	2	I	2	0	839	0	poli_8sides 2_whiteLine3.jpg	MediumShort_b16_cut3_MS_stereo_44KHz.wav
4	185	1	1	1	C	1	1	1007	1	poli_8sides 8_whiteLine3.jpg	MediumShort_b10_cut1_MS_stereo_44KHz.wav
4	186	4	3	2	I	2	0	1017	1	poli_8sides 2_whiteLine3.jpg	MediumShort_e22_cut1_stereo_44KHz.wav
4	187	2	1	0	C	1	0	823	0	poli_8sides 6_whiteLine3.jpg	MediumShort_b10_cut1_MS_stereo_44KHz.wav
4	188	3	3	2	I	2	0	836	0	poli_8sides 7_whiteLine3.jpg	MediumShort_e22_cut1_stereo_44KHz.wav
4	189	2	2	1	C	1	1	1124	1	poli_8sides 6_whiteLine3.jpg	MediumShort_e16_cut1_stereo_44KHz.wav
4	190	3	4	2	I	2	0	808	1	poli_8sides 7_whiteLine3.jpg	MediumShort_b16_cut3_MS_stereo_44KHz.wav
4	191	1	2	0	C	2	1	662	1	poli_8sides 8_whiteLine3.jpg	MediumShort_e16_cut1_stereo_44KHz.wav
4	192	4	4	2	I	1	0	691	0	poli_8sides 2_whiteLine3.jpg	MediumShort_b16_cut3_MS_stereo_44KHz.wav
4	193	3	4	2	I	2	0	664	1	poli_8sides 7_whiteLine3.jpg	MediumShort_b16_cut3_MS_stereo_44KHz.wav
4	194	1	1	1	C	1	1	832	1	poli_8sides 8_whiteLine3.jpg	MediumShort_b10_cut1_MS_stereo_44KHz.wav
4	195	2	2	1	C	1	1	802	1	poli_8sides 6_whiteLine3.jpg	MediumShort_e16_cut1_stereo_44KHz.wav
4	196	4	3	2	I	2	0	760	1	poli_8sides 2_whiteLine3.jpg	MediumShort_e22_cut1_stereo_44KHz.wav
4	197	2	1	0	C	1	0	516	0	poli_8sides 6_whiteLine3.jpg	MediumShort_b10_cut1_MS_stereo_44KHz.wav
4	198	3	3	2	I	2	0	446	0	poli_8sides 7_whiteLine3.jpg	MediumShort_e22_cut1_stereo_44KHz.wav
4	199	4	4	2	I	1	0	719	1	poli_8sides 2_whiteLine3.jpg	MediumShort_b16_cut3_MS_stereo_44KHz.wav
4	200	1	2	0	C	2	1	612	1	poli_8sides 8_whiteLine3.jpg	MediumShort_e16_cut1_stereo_44KHz.wav
