block	trial	Vstim	Astim	match	C/I	resp	result	RT	fb	V-file	A-file
LR

0	1	2	4	0	C	0	0	0	0	poli_8sides 22_whiteLine3.jpg	Practice1_b27_cut1_stereo_44KHz.wav
0	2	1	2	0	C	2	0	817	0	poli_8sides 21_whiteLine3.jpg	Practice4_b26_stereo_44KHz.wav
0	3	1	1	1	C	1	0	578	0	poli_8sides 21_whiteLine3.jpg	Practice3_b26_cut1_stereo_44KHz.wav
0	4	2	3	1	C	2	1	748	1	poli_8sides 22_whiteLine3.jpg	Practice2_b27_cut2_stereo_44KHz.wav
0	5	1	1	1	C	2	1	737	1	poli_8sides 21_whiteLine3.jpg	Practice3_b26_cut1_stereo_44KHz.wav
0	6	2	4	0	C	2	0	849	0	poli_8sides 22_whiteLine3.jpg	Practice1_b27_cut1_stereo_44KHz.wav
0	7	2	3	1	C	2	1	920	1	poli_8sides 22_whiteLine3.jpg	Practice2_b27_cut2_stereo_44KHz.wav
0	8	1	2	0	C	1	1	701	1	poli_8sides 21_whiteLine3.jpg	Practice4_b26_stereo_44KHz.wav
0	9	1	1	1	C	2	1	904	1	poli_8sides 21_whiteLine3.jpg	Practice3_b26_cut1_stereo_44KHz.wav
0	10	2	4	0	C	1	1	671	1	poli_8sides 22_whiteLine3.jpg	Practice1_b27_cut1_stereo_44KHz.wav
0	11	1	2	0	C	1	1	782	1	poli_8sides 21_whiteLine3.jpg	Practice4_b26_stereo_44KHz.wav
0	12	2	3	1	C	1	0	746	0	poli_8sides 22_whiteLine3.jpg	Practice2_b27_cut2_stereo_44KHz.wav
0	13	1	1	1	C	2	1	632	1	poli_8sides 21_whiteLine3.jpg	Practice3_b26_cut1_stereo_44KHz.wav
0	14	2	3	1	C	1	0	644	0	poli_8sides 22_whiteLine3.jpg	Practice2_b27_cut2_stereo_44KHz.wav
0	15	2	4	0	C	2	0	624	0	poli_8sides 22_whiteLine3.jpg	Practice1_b27_cut1_stereo_44KHz.wav
0	16	1	2	0	C	2	0	829	0	poli_8sides 21_whiteLine3.jpg	Practice4_b26_stereo_44KHz.wav
0	17	1	2	0	C	1	1	739	1	poli_8sides 21_whiteLine3.jpg	Practice4_b26_stereo_44KHz.wav
0	18	2	4	0	C	1	1	459	1	poli_8sides 22_whiteLine3.jpg	Practice1_b27_cut1_stereo_44KHz.wav
0	19	1	1	1	C	2	1	728	1	poli_8sides 21_whiteLine3.jpg	Practice3_b26_cut1_stereo_44KHz.wav
0	20	2	3	1	C	2	1	531	1	poli_8sides 22_whiteLine3.jpg	Practice2_b27_cut2_stereo_44KHz.wav
0	21	2	3	1	C	2	1	800	1	poli_8sides 22_whiteLine3.jpg	Practice2_b27_cut2_stereo_44KHz.wav
0	22	1	1	1	C	2	1	832	1	poli_8sides 21_whiteLine3.jpg	Practice3_b26_cut1_stereo_44KHz.wav
0	23	2	4	0	C	1	1	1160	1	poli_8sides 22_whiteLine3.jpg	Practice1_b27_cut1_stereo_44KHz.wav
0	24	1	2	0	C	1	1	698	1	poli_8sides 21_whiteLine3.jpg	Practice4_b26_stereo_44KHz.wav
0	25	2	4	0	C	1	1	767	1	poli_8sides 22_whiteLine3.jpg	Practice1_b27_cut1_stereo_44KHz.wav
0	26	1	2	0	C	1	1	504	1	poli_8sides 21_whiteLine3.jpg	Practice4_b26_stereo_44KHz.wav
0	27	2	3	1	C	2	1	1219	1	poli_8sides 22_whiteLine3.jpg	Practice2_b27_cut2_stereo_44KHz.wav
0	28	1	1	1	C	1	0	580	0	poli_8sides 21_whiteLine3.jpg	Practice3_b26_cut1_stereo_44KHz.wav
0	29	2	4	0	C	1	1	888	1	poli_8sides 22_whiteLine3.jpg	Practice1_b27_cut1_stereo_44KHz.wav
0	30	1	1	1	C	2	1	494	1	poli_8sides 21_whiteLine3.jpg	Practice3_b26_cut1_stereo_44KHz.wav
avg_resp = 758
1	1	3	4	2	I	2	0	809	0	poli_8sides 13_whiteLine3.jpg	Short_b20_cut1_stereo_44KHz.wav
1	2	2	2	1	C	2	1	706	1	poli_8sides 12_whiteLine3.jpg	Short_b23_cut1_stereo_44KHz.wav
1	3	4	3	2	I	1	0	635	0	poli_8sides 3_whiteLine3.jpg	Short_b09_cut1_stereo_44KHz.wav
1	4	1	2	0	C	1	1	597	1	poli_8sides 16_whiteLine3.jpg	Short_b23_cut1_stereo_44KHz.wav
1	5	2	1	0	C	0	0	0	0	poli_8sides 12_whiteLine3.jpg	Short_b22_cut1_stereo_44KHz.wav
1	6	1	1	1	C	2	1	297	1	poli_8sides 16_whiteLine3.jpg	Short_b22_cut1_stereo_44KHz.wav
1	7	4	4	2	I	1	0	619	1	poli_8sides 3_whiteLine3.jpg	Short_b20_cut1_stereo_44KHz.wav
1	8	3	3	2	I	2	0	791	0	poli_8sides 13_whiteLine3.jpg	Short_b09_cut1_stereo_44KHz.wav
1	9	2	1	0	C	1	1	524	1	poli_8sides 12_whiteLine3.jpg	Short_b22_cut1_stereo_44KHz.wav
1	10	4	3	2	I	1	0	511	1	poli_8sides 3_whiteLine3.jpg	Short_b09_cut1_stereo_44KHz.wav
1	11	1	1	1	C	1	0	599	0	poli_8sides 16_whiteLine3.jpg	Short_b22_cut1_stereo_44KHz.wav
1	12	3	3	2	I	1	0	485	1	poli_8sides 13_whiteLine3.jpg	Short_b09_cut1_stereo_44KHz.wav
1	13	2	2	1	C	1	0	400	0	poli_8sides 12_whiteLine3.jpg	Short_b23_cut1_stereo_44KHz.wav
1	14	1	2	0	C	1	1	560	1	poli_8sides 16_whiteLine3.jpg	Short_b23_cut1_stereo_44KHz.wav
1	15	4	4	2	I	1	0	584	0	poli_8sides 3_whiteLine3.jpg	Short_b20_cut1_stereo_44KHz.wav
1	16	3	4	2	I	1	0	654	0	poli_8sides 13_whiteLine3.jpg	Short_b20_cut1_stereo_44KHz.wav
1	17	1	2	0	C	2	0	508	0	poli_8sides 16_whiteLine3.jpg	Short_b23_cut1_stereo_44KHz.wav
1	18	3	4	2	I	2	0	703	1	poli_8sides 13_whiteLine3.jpg	Short_b20_cut1_stereo_44KHz.wav
1	19	2	2	1	C	1	0	647	0	poli_8sides 12_whiteLine3.jpg	Short_b23_cut1_stereo_44KHz.wav
1	20	4	3	2	I	1	0	792	0	poli_8sides 3_whiteLine3.jpg	Short_b09_cut1_stereo_44KHz.wav
1	21	3	3	2	I	1	0	713	0	poli_8sides 13_whiteLine3.jpg	Short_b09_cut1_stereo_44KHz.wav
1	22	4	4	2	I	1	0	632	0	poli_8sides 3_whiteLine3.jpg	Short_b20_cut1_stereo_44KHz.wav
1	23	2	1	0	C	1	1	391	1	poli_8sides 12_whiteLine3.jpg	Short_b22_cut1_stereo_44KHz.wav
1	24	1	1	1	C	2	1	432	1	poli_8sides 16_whiteLine3.jpg	Short_b22_cut1_stereo_44KHz.wav
1	25	2	2	1	C	1	0	706	0	poli_8sides 12_whiteLine3.jpg	Short_b23_cut1_stereo_44KHz.wav
1	26	1	2	0	C	1	1	710	1	poli_8sides 16_whiteLine3.jpg	Short_b23_cut1_stereo_44KHz.wav
1	27	4	4	2	I	2	0	699	1	poli_8sides 3_whiteLine3.jpg	Short_b20_cut1_stereo_44KHz.wav
1	28	3	4	2	I	2	0	498	1	poli_8sides 13_whiteLine3.jpg	Short_b20_cut1_stereo_44KHz.wav
1	29	1	1	1	C	1	0	583	0	poli_8sides 16_whiteLine3.jpg	Short_b22_cut1_stereo_44KHz.wav
1	30	4	3	2	I	2	0	238	0	poli_8sides 3_whiteLine3.jpg	Short_b09_cut1_stereo_44KHz.wav
1	31	2	1	0	C	1	1	505	1	poli_8sides 12_whiteLine3.jpg	Short_b22_cut1_stereo_44KHz.wav
1	32	3	3	2	I	1	0	272	1	poli_8sides 13_whiteLine3.jpg	Short_b09_cut1_stereo_44KHz.wav
1	33	1	2	0	C	2	0	639	0	poli_8sides 16_whiteLine3.jpg	Short_b23_cut1_stereo_44KHz.wav
1	34	2	1	0	C	1	1	266	1	poli_8sides 12_whiteLine3.jpg	Short_b22_cut1_stereo_44KHz.wav
1	35	4	4	2	I	1	0	358	1	poli_8sides 3_whiteLine3.jpg	Short_b20_cut1_stereo_44KHz.wav
1	36	3	4	2	I	1	0	416	0	poli_8sides 13_whiteLine3.jpg	Short_b20_cut1_stereo_44KHz.wav
1	37	1	1	1	C	2	1	434	1	poli_8sides 16_whiteLine3.jpg	Short_b22_cut1_stereo_44KHz.wav
1	38	4	3	2	I	2	0	658	0	poli_8sides 3_whiteLine3.jpg	Short_b09_cut1_stereo_44KHz.wav
1	39	2	2	1	C	1	0	606	0	poli_8sides 12_whiteLine3.jpg	Short_b23_cut1_stereo_44KHz.wav
1	40	3	3	2	I	1	0	674	1	poli_8sides 13_whiteLine3.jpg	Short_b09_cut1_stereo_44KHz.wav
1	41	4	3	2	I	2	0	686	0	poli_8sides 3_whiteLine3.jpg	Short_b09_cut1_stereo_44KHz.wav
1	42	1	1	1	C	1	0	775	0	poli_8sides 16_whiteLine3.jpg	Short_b22_cut1_stereo_44KHz.wav
1	43	3	3	2	I	0	0	0	0	poli_8sides 13_whiteLine3.jpg	Short_b09_cut1_stereo_44KHz.wav
1	44	2	2	1	C	1	0	443	0	poli_8sides 12_whiteLine3.jpg	Short_b23_cut1_stereo_44KHz.wav
1	45	3	4	2	I	1	0	255	1	poli_8sides 13_whiteLine3.jpg	Short_b20_cut1_stereo_44KHz.wav
1	46	1	2	0	C	2	0	608	0	poli_8sides 16_whiteLine3.jpg	Short_b23_cut1_stereo_44KHz.wav
1	47	4	4	2	I	2	0	585	0	poli_8sides 3_whiteLine3.jpg	Short_b20_cut1_stereo_44KHz.wav
1	48	2	1	0	C	1	1	446	1	poli_8sides 12_whiteLine3.jpg	Short_b22_cut1_stereo_44KHz.wav
1	49	4	4	2	I	1	0	317	0	poli_8sides 3_whiteLine3.jpg	Short_b20_cut1_stereo_44KHz.wav
1	50	1	1	1	C	1	0	250	0	poli_8sides 16_whiteLine3.jpg	Short_b22_cut1_stereo_44KHz.wav
1	51	2	2	1	C	2	1	576	1	poli_8sides 12_whiteLine3.jpg	Short_b23_cut1_stereo_44KHz.wav
1	52	3	3	2	I	1	0	373	0	poli_8sides 13_whiteLine3.jpg	Short_b09_cut1_stereo_44KHz.wav
1	53	4	3	2	I	1	0	692	0	poli_8sides 3_whiteLine3.jpg	Short_b09_cut1_stereo_44KHz.wav
1	54	1	2	0	C	1	1	340	1	poli_8sides 16_whiteLine3.jpg	Short_b23_cut1_stereo_44KHz.wav
1	55	3	4	2	I	1	0	876	0	poli_8sides 13_whiteLine3.jpg	Short_b20_cut1_stereo_44KHz.wav
1	56	2	1	0	C	1	1	438	1	poli_8sides 12_whiteLine3.jpg	Short_b22_cut1_stereo_44KHz.wav
1	57	1	2	0	C	1	1	585	1	poli_8sides 16_whiteLine3.jpg	Short_b23_cut1_stereo_44KHz.wav
1	58	2	1	0	C	2	0	586	0	poli_8sides 12_whiteLine3.jpg	Short_b22_cut1_stereo_44KHz.wav
1	59	3	3	2	I	1	0	241	1	poli_8sides 13_whiteLine3.jpg	Short_b09_cut1_stereo_44KHz.wav
1	60	4	4	2	I	1	0	340	1	poli_8sides 3_whiteLine3.jpg	Short_b20_cut1_stereo_44KHz.wav
1	61	1	1	1	C	1	0	446	0	poli_8sides 16_whiteLine3.jpg	Short_b22_cut1_stereo_44KHz.wav
1	62	4	3	2	I	2	0	904	1	poli_8sides 3_whiteLine3.jpg	Short_b09_cut1_stereo_44KHz.wav
1	63	2	2	1	C	1	0	597	0	poli_8sides 12_whiteLine3.jpg	Short_b23_cut1_stereo_44KHz.wav
1	64	3	4	2	I	2	0	515	1	poli_8sides 13_whiteLine3.jpg	Short_b20_cut1_stereo_44KHz.wav
1	65	4	4	2	I	2	0	586	1	poli_8sides 3_whiteLine3.jpg	Short_b20_cut1_stereo_44KHz.wav
1	66	1	1	1	C	2	1	427	1	poli_8sides 16_whiteLine3.jpg	Short_b22_cut1_stereo_44KHz.wav
1	67	2	1	0	C	1	1	356	1	poli_8sides 12_whiteLine3.jpg	Short_b22_cut1_stereo_44KHz.wav
1	68	3	3	2	I	2	0	485	1	poli_8sides 13_whiteLine3.jpg	Short_b09_cut1_stereo_44KHz.wav
1	69	4	3	2	I	1	0	655	1	poli_8sides 3_whiteLine3.jpg	Short_b09_cut1_stereo_44KHz.wav
1	70	3	4	2	I	2	0	426	1	poli_8sides 13_whiteLine3.jpg	Short_b20_cut1_stereo_44KHz.wav
1	71	1	2	0	C	2	0	524	0	poli_8sides 16_whiteLine3.jpg	Short_b23_cut1_stereo_44KHz.wav
1	72	2	2	1	C	1	0	569	0	poli_8sides 12_whiteLine3.jpg	Short_b23_cut1_stereo_44KHz.wav
1	73	3	4	2	I	2	0	511	1	poli_8sides 13_whiteLine3.jpg	Short_b20_cut1_stereo_44KHz.wav
1	74	2	2	1	C	2	1	644	1	poli_8sides 12_whiteLine3.jpg	Short_b23_cut1_stereo_44KHz.wav
1	75	4	3	2	I	1	0	707	0	poli_8sides 3_whiteLine3.jpg	Short_b09_cut1_stereo_44KHz.wav
1	76	1	1	1	C	2	1	418	1	poli_8sides 16_whiteLine3.jpg	Short_b22_cut1_stereo_44KHz.wav
1	77	2	1	0	C	2	0	672	0	poli_8sides 12_whiteLine3.jpg	Short_b22_cut1_stereo_44KHz.wav
1	78	3	3	2	I	2	0	1584	1	poli_8sides 13_whiteLine3.jpg	Short_b09_cut1_stereo_44KHz.wav
1	79	1	2	0	C	1	1	472	1	poli_8sides 16_whiteLine3.jpg	Short_b23_cut1_stereo_44KHz.wav
1	80	4	4	2	I	1	0	607	1	poli_8sides 3_whiteLine3.jpg	Short_b20_cut1_stereo_44KHz.wav
1	81	2	2	1	C	1	0	381	0	poli_8sides 12_whiteLine3.jpg	Short_b23_cut1_stereo_44KHz.wav
1	82	3	3	2	I	2	0	508	0	poli_8sides 13_whiteLine3.jpg	Short_b09_cut1_stereo_44KHz.wav
1	83	4	4	2	I	1	0	1037	1	poli_8sides 3_whiteLine3.jpg	Short_b20_cut1_stereo_44KHz.wav
1	84	1	2	0	C	2	0	586	0	poli_8sides 16_whiteLine3.jpg	Short_b23_cut1_stereo_44KHz.wav
1	85	3	4	2	I	1	0	389	0	poli_8sides 13_whiteLine3.jpg	Short_b20_cut1_stereo_44KHz.wav
1	86	2	1	0	C	2	0	569	0	poli_8sides 12_whiteLine3.jpg	Short_b22_cut1_stereo_44KHz.wav
1	87	4	3	2	I	1	0	602	0	poli_8sides 3_whiteLine3.jpg	Short_b09_cut1_stereo_44KHz.wav
1	88	1	1	1	C	1	0	553	0	poli_8sides 16_whiteLine3.jpg	Short_b22_cut1_stereo_44KHz.wav
1	89	2	2	1	C	1	0	432	0	poli_8sides 12_whiteLine3.jpg	Short_b23_cut1_stereo_44KHz.wav
1	90	1	2	0	C	2	0	2	0	poli_8sides 16_whiteLine3.jpg	Short_b23_cut1_stereo_44KHz.wav
1	91	3	3	2	I	2	0	546	1	poli_8sides 13_whiteLine3.jpg	Short_b09_cut1_stereo_44KHz.wav
1	92	4	4	2	I	1	0	567	1	poli_8sides 3_whiteLine3.jpg	Short_b20_cut1_stereo_44KHz.wav
1	93	3	4	2	I	2	0	576	1	poli_8sides 13_whiteLine3.jpg	Short_b20_cut1_stereo_44KHz.wav
1	94	1	1	1	C	2	1	305	1	poli_8sides 16_whiteLine3.jpg	Short_b22_cut1_stereo_44KHz.wav
1	95	4	3	2	I	1	0	584	0	poli_8sides 3_whiteLine3.jpg	Short_b09_cut1_stereo_44KHz.wav
1	96	2	1	0	C	2	0	561	0	poli_8sides 12_whiteLine3.jpg	Short_b22_cut1_stereo_44KHz.wav
1	97	1	1	1	C	1	0	717	0	poli_8sides 16_whiteLine3.jpg	Short_b22_cut1_stereo_44KHz.wav
1	98	4	4	2	I	1	0	847	1	poli_8sides 3_whiteLine3.jpg	Short_b20_cut1_stereo_44KHz.wav
1	99	3	3	2	I	1	0	816	0	poli_8sides 13_whiteLine3.jpg	Short_b09_cut1_stereo_44KHz.wav
1	100	2	2	1	C	2	1	661	1	poli_8sides 12_whiteLine3.jpg	Short_b23_cut1_stereo_44KHz.wav
1	101	1	2	0	C	1	1	672	1	poli_8sides 16_whiteLine3.jpg	Short_b23_cut1_stereo_44KHz.wav
1	102	2	1	0	C	2	0	546	0	poli_8sides 12_whiteLine3.jpg	Short_b22_cut1_stereo_44KHz.wav
1	103	4	3	2	I	1	0	611	0	poli_8sides 3_whiteLine3.jpg	Short_b09_cut1_stereo_44KHz.wav
1	104	3	4	2	I	2	0	751	1	poli_8sides 13_whiteLine3.jpg	Short_b20_cut1_stereo_44KHz.wav
1	105	1	2	0	C	2	0	738	0	poli_8sides 16_whiteLine3.jpg	Short_b23_cut1_stereo_44KHz.wav
1	106	3	4	2	I	1	0	471	0	poli_8sides 13_whiteLine3.jpg	Short_b20_cut1_stereo_44KHz.wav
1	107	2	1	0	C	1	1	539	1	poli_8sides 12_whiteLine3.jpg	Short_b22_cut1_stereo_44KHz.wav
1	108	4	3	2	I	2	0	827	1	poli_8sides 3_whiteLine3.jpg	Short_b09_cut1_stereo_44KHz.wav
1	109	2	2	1	C	2	1	733	1	poli_8sides 12_whiteLine3.jpg	Short_b23_cut1_stereo_44KHz.wav
1	110	1	1	1	C	1	0	720	0	poli_8sides 16_whiteLine3.jpg	Short_b22_cut1_stereo_44KHz.wav
1	111	3	3	2	I	2	0	603	0	poli_8sides 13_whiteLine3.jpg	Short_b09_cut1_stereo_44KHz.wav
1	112	4	4	2	I	2	0	746	0	poli_8sides 3_whiteLine3.jpg	Short_b20_cut1_stereo_44KHz.wav
1	113	3	3	2	I	1	0	610	0	poli_8sides 13_whiteLine3.jpg	Short_b09_cut1_stereo_44KHz.wav
1	114	4	3	2	I	1	0	685	0	poli_8sides 3_whiteLine3.jpg	Short_b09_cut1_stereo_44KHz.wav
1	115	1	2	0	C	2	0	317	0	poli_8sides 16_whiteLine3.jpg	Short_b23_cut1_stereo_44KHz.wav
1	116	2	1	0	C	1	1	451	1	poli_8sides 12_whiteLine3.jpg	Short_b22_cut1_stereo_44KHz.wav
1	117	3	4	2	I	2	0	615	0	poli_8sides 13_whiteLine3.jpg	Short_b20_cut1_stereo_44KHz.wav
1	118	1	1	1	C	2	1	465	1	poli_8sides 16_whiteLine3.jpg	Short_b22_cut1_stereo_44KHz.wav
1	119	4	4	2	I	2	0	723	1	poli_8sides 3_whiteLine3.jpg	Short_b20_cut1_stereo_44KHz.wav
1	120	2	2	1	C	1	0	521	0	poli_8sides 12_whiteLine3.jpg	Short_b23_cut1_stereo_44KHz.wav
1	121	1	2	0	C	2	0	365	0	poli_8sides 16_whiteLine3.jpg	Short_b23_cut1_stereo_44KHz.wav
1	122	4	4	2	I	1	0	690	0	poli_8sides 3_whiteLine3.jpg	Short_b20_cut1_stereo_44KHz.wav
1	123	2	2	1	C	1	0	689	0	poli_8sides 12_whiteLine3.jpg	Short_b23_cut1_stereo_44KHz.wav
1	124	3	3	2	I	2	0	601	1	poli_8sides 13_whiteLine3.jpg	Short_b09_cut1_stereo_44KHz.wav
1	125	4	3	2	I	1	0	346	0	poli_8sides 3_whiteLine3.jpg	Short_b09_cut1_stereo_44KHz.wav
1	126	2	1	0	C	2	0	842	0	poli_8sides 12_whiteLine3.jpg	Short_b22_cut1_stereo_44KHz.wav
1	127	3	4	2	I	2	0	595	1	poli_8sides 13_whiteLine3.jpg	Short_b20_cut1_stereo_44KHz.wav
1	128	1	1	1	C	1	0	634	0	poli_8sides 16_whiteLine3.jpg	Short_b22_cut1_stereo_44KHz.wav
1	129	4	3	2	I	1	0	827	1	poli_8sides 3_whiteLine3.jpg	Short_b09_cut1_stereo_44KHz.wav
1	130	3	3	2	I	1	0	812	0	poli_8sides 13_whiteLine3.jpg	Short_b09_cut1_stereo_44KHz.wav
1	131	1	2	0	C	2	0	556	0	poli_8sides 16_whiteLine3.jpg	Short_b23_cut1_stereo_44KHz.wav
1	132	2	1	0	C	2	0	860	0	poli_8sides 12_whiteLine3.jpg	Short_b22_cut1_stereo_44KHz.wav
1	133	4	4	2	I	1	0	212	1	poli_8sides 3_whiteLine3.jpg	Short_b20_cut1_stereo_44KHz.wav
1	134	2	2	1	C	2	1	959	1	poli_8sides 12_whiteLine3.jpg	Short_b23_cut1_stereo_44KHz.wav
1	135	3	4	2	I	2	0	741	0	poli_8sides 13_whiteLine3.jpg	Short_b20_cut1_stereo_44KHz.wav
1	136	1	1	1	C	1	0	546	0	poli_8sides 16_whiteLine3.jpg	Short_b22_cut1_stereo_44KHz.wav
1	137	3	4	2	I	2	0	614	1	poli_8sides 13_whiteLine3.jpg	Short_b20_cut1_stereo_44KHz.wav
1	138	1	2	0	C	2	0	956	0	poli_8sides 16_whiteLine3.jpg	Short_b23_cut1_stereo_44KHz.wav
1	139	4	3	2	I	1	0	589	0	poli_8sides 3_whiteLine3.jpg	Short_b09_cut1_stereo_44KHz.wav
1	140	2	2	1	C	2	1	559	1	poli_8sides 12_whiteLine3.jpg	Short_b23_cut1_stereo_44KHz.wav
1	141	1	1	1	C	2	1	616	1	poli_8sides 16_whiteLine3.jpg	Short_b22_cut1_stereo_44KHz.wav
1	142	4	4	2	I	2	0	383	1	poli_8sides 3_whiteLine3.jpg	Short_b20_cut1_stereo_44KHz.wav
1	143	2	1	0	C	1	1	766	1	poli_8sides 12_whiteLine3.jpg	Short_b22_cut1_stereo_44KHz.wav
1	144	3	3	2	I	1	0	521	1	poli_8sides 13_whiteLine3.jpg	Short_b09_cut1_stereo_44KHz.wav
1	145	2	1	0	C	1	1	504	1	poli_8sides 12_whiteLine3.jpg	Short_b22_cut1_stereo_44KHz.wav
1	146	1	2	0	C	2	0	591	0	poli_8sides 16_whiteLine3.jpg	Short_b23_cut1_stereo_44KHz.wav
1	147	3	4	2	I	1	0	244	1	poli_8sides 13_whiteLine3.jpg	Short_b20_cut1_stereo_44KHz.wav
1	148	4	4	2	I	1	0	361	0	poli_8sides 3_whiteLine3.jpg	Short_b20_cut1_stereo_44KHz.wav
1	149	2	2	1	C	2	1	280	1	poli_8sides 12_whiteLine3.jpg	Short_b23_cut1_stereo_44KHz.wav
1	150	4	3	2	I	1	0	572	1	poli_8sides 3_whiteLine3.jpg	Short_b09_cut1_stereo_44KHz.wav
1	151	1	1	1	C	1	0	815	0	poli_8sides 16_whiteLine3.jpg	Short_b22_cut1_stereo_44KHz.wav
1	152	3	3	2	I	2	0	717	0	poli_8sides 13_whiteLine3.jpg	Short_b09_cut1_stereo_44KHz.wav
1	153	2	2	1	C	2	1	729	1	poli_8sides 12_whiteLine3.jpg	Short_b23_cut1_stereo_44KHz.wav
1	154	3	4	2	I	2	0	585	1	poli_8sides 13_whiteLine3.jpg	Short_b20_cut1_stereo_44KHz.wav
1	155	1	2	0	C	2	0	561	0	poli_8sides 16_whiteLine3.jpg	Short_b23_cut1_stereo_44KHz.wav
1	156	4	4	2	I	1	0	610	1	poli_8sides 3_whiteLine3.jpg	Short_b20_cut1_stereo_44KHz.wav
1	157	1	1	1	C	2	1	338	1	poli_8sides 16_whiteLine3.jpg	Short_b22_cut1_stereo_44KHz.wav
1	158	4	3	2	I	1	0	581	1	poli_8sides 3_whiteLine3.jpg	Short_b09_cut1_stereo_44KHz.wav
1	159	3	3	2	I	2	0	475	0	poli_8sides 13_whiteLine3.jpg	Short_b09_cut1_stereo_44KHz.wav
1	160	2	1	0	C	1	1	473	1	poli_8sides 12_whiteLine3.jpg	Short_b22_cut1_stereo_44KHz.wav
1	161	4	3	2	I	1	0	646	1	poli_8sides 3_whiteLine3.jpg	Short_b09_cut1_stereo_44KHz.wav
1	162	1	1	1	C	1	0	270	0	poli_8sides 16_whiteLine3.jpg	Short_b22_cut1_stereo_44KHz.wav
1	163	2	2	1	C	2	1	439	1	poli_8sides 12_whiteLine3.jpg	Short_b23_cut1_stereo_44KHz.wav
1	164	3	3	2	I	2	0	678	0	poli_8sides 13_whiteLine3.jpg	Short_b09_cut1_stereo_44KHz.wav
1	165	1	2	0	C	1	1	603	1	poli_8sides 16_whiteLine3.jpg	Short_b23_cut1_stereo_44KHz.wav
1	166	4	4	2	I	1	0	582	1	poli_8sides 3_whiteLine3.jpg	Short_b20_cut1_stereo_44KHz.wav
1	167	3	4	2	I	2	0	663	0	poli_8sides 13_whiteLine3.jpg	Short_b20_cut1_stereo_44KHz.wav
1	168	2	1	0	C	1	1	695	1	poli_8sides 12_whiteLine3.jpg	Short_b22_cut1_stereo_44KHz.wav
1	169	3	4	2	I	2	0	590	0	poli_8sides 13_whiteLine3.jpg	Short_b20_cut1_stereo_44KHz.wav
1	170	1	1	1	C	1	0	544	0	poli_8sides 16_whiteLine3.jpg	Short_b22_cut1_stereo_44KHz.wav
1	171	4	4	2	I	1	0	394	0	poli_8sides 3_whiteLine3.jpg	Short_b20_cut1_stereo_44KHz.wav
1	172	2	1	0	C	2	0	475	0	poli_8sides 12_whiteLine3.jpg	Short_b22_cut1_stereo_44KHz.wav
1	173	4	3	2	I	1	0	705	1	poli_8sides 3_whiteLine3.jpg	Short_b09_cut1_stereo_44KHz.wav
1	174	2	2	1	C	1	0	814	0	poli_8sides 12_whiteLine3.jpg	Short_b23_cut1_stereo_44KHz.wav
1	175	3	3	2	I	1	0	408	1	poli_8sides 13_whiteLine3.jpg	Short_b09_cut1_stereo_44KHz.wav
1	176	1	2	0	C	1	1	426	1	poli_8sides 16_whiteLine3.jpg	Short_b23_cut1_stereo_44KHz.wav
1	177	2	2	1	C	1	0	541	0	poli_8sides 12_whiteLine3.jpg	Short_b23_cut1_stereo_44KHz.wav
1	178	3	4	2	I	2	0	524	0	poli_8sides 13_whiteLine3.jpg	Short_b20_cut1_stereo_44KHz.wav
1	179	4	3	2	I	1	0	623	1	poli_8sides 3_whiteLine3.jpg	Short_b09_cut1_stereo_44KHz.wav
1	180	1	1	1	C	1	0	663	0	poli_8sides 16_whiteLine3.jpg	Short_b22_cut1_stereo_44KHz.wav
1	181	4	4	2	I	2	0	567	0	poli_8sides 3_whiteLine3.jpg	Short_b20_cut1_stereo_44KHz.wav
1	182	2	1	0	C	2	0	617	0	poli_8sides 12_whiteLine3.jpg	Short_b22_cut1_stereo_44KHz.wav
1	183	1	2	0	C	2	0	734	0	poli_8sides 16_whiteLine3.jpg	Short_b23_cut1_stereo_44KHz.wav
1	184	3	3	2	I	1	0	626	0	poli_8sides 13_whiteLine3.jpg	Short_b09_cut1_stereo_44KHz.wav
1	185	2	1	0	C	1	1	438	1	poli_8sides 12_whiteLine3.jpg	Short_b22_cut1_stereo_44KHz.wav
1	186	3	4	2	I	1	0	625	1	poli_8sides 13_whiteLine3.jpg	Short_b20_cut1_stereo_44KHz.wav
1	187	1	2	0	C	1	1	505	1	poli_8sides 16_whiteLine3.jpg	Short_b23_cut1_stereo_44KHz.wav
1	188	4	4	2	I	1	0	639	0	poli_8sides 3_whiteLine3.jpg	Short_b20_cut1_stereo_44KHz.wav
1	189	3	3	2	I	2	0	534	1	poli_8sides 13_whiteLine3.jpg	Short_b09_cut1_stereo_44KHz.wav
1	190	4	3	2	I	2	0	633	0	poli_8sides 3_whiteLine3.jpg	Short_b09_cut1_stereo_44KHz.wav
1	191	1	1	1	C	1	0	478	0	poli_8sides 16_whiteLine3.jpg	Short_b22_cut1_stereo_44KHz.wav
1	192	2	2	1	C	2	1	474	1	poli_8sides 12_whiteLine3.jpg	Short_b23_cut1_stereo_44KHz.wav
1	193	4	4	2	I	2	0	477	0	poli_8sides 3_whiteLine3.jpg	Short_b20_cut1_stereo_44KHz.wav
1	194	2	1	0	C	1	1	605	1	poli_8sides 12_whiteLine3.jpg	Short_b22_cut1_stereo_44KHz.wav
1	195	3	3	2	I	2	0	930	0	poli_8sides 13_whiteLine3.jpg	Short_b09_cut1_stereo_44KHz.wav
1	196	1	1	1	C	1	0	842	0	poli_8sides 16_whiteLine3.jpg	Short_b22_cut1_stereo_44KHz.wav
1	197	2	2	1	C	1	0	686	0	poli_8sides 12_whiteLine3.jpg	Short_b23_cut1_stereo_44KHz.wav
1	198	4	3	2	I	1	0	786	1	poli_8sides 3_whiteLine3.jpg	Short_b09_cut1_stereo_44KHz.wav
1	199	3	4	2	I	2	0	462	0	poli_8sides 13_whiteLine3.jpg	Short_b20_cut1_stereo_44KHz.wav
1	200	1	2	0	C	1	1	670	1	poli_8sides 16_whiteLine3.jpg	Short_b23_cut1_stereo_44KHz.wav
2	1	4	3	2	I	1	0	1710	1	poli_8sides 11_whiteLine3.jpg	Medium_e26_stereo_44KHz.wav
2	2	2	1	0	C	1	1	753	1	poli_8sides 1_whiteLine3.jpg	MediumLong_b10_cut2_L_stereo_44KHz.wav
2	3	1	1	1	C	2	1	890	1	poli_8sides 18_whiteLine3.jpg	MediumLong_b10_cut2_L_stereo_44KHz.wav
2	4	3	4	2	I	2	0	747	1	poli_8sides 10_whiteLine3.jpg	Medium_e21_stereo_44KHz.wav
2	5	1	2	0	C	2	0	842	0	poli_8sides 18_whiteLine3.jpg	MediumLong_e04_stereo_44KHz.wav
2	6	3	3	2	I	2	0	867	0	poli_8sides 10_whiteLine3.jpg	Medium_e26_stereo_44KHz.wav
2	7	4	4	2	I	2	0	857	1	poli_8sides 11_whiteLine3.jpg	Medium_e21_stereo_44KHz.wav
2	8	2	2	1	C	2	1	836	1	poli_8sides 1_whiteLine3.jpg	MediumLong_e04_stereo_44KHz.wav
2	9	1	1	1	C	2	1	693	1	poli_8sides 18_whiteLine3.jpg	MediumLong_b10_cut2_L_stereo_44KHz.wav
2	10	2	1	0	C	1	1	805	1	poli_8sides 1_whiteLine3.jpg	MediumLong_b10_cut2_L_stereo_44KHz.wav
2	11	3	4	2	I	2	0	730	0	poli_8sides 10_whiteLine3.jpg	Medium_e21_stereo_44KHz.wav
2	12	4	4	2	I	2	0	795	1	poli_8sides 11_whiteLine3.jpg	Medium_e21_stereo_44KHz.wav
2	13	3	3	2	I	1	0	870	1	poli_8sides 10_whiteLine3.jpg	Medium_e26_stereo_44KHz.wav
2	14	1	2	0	C	1	1	999	1	poli_8sides 18_whiteLine3.jpg	MediumLong_e04_stereo_44KHz.wav
2	15	2	2	1	C	2	1	702	1	poli_8sides 1_whiteLine3.jpg	MediumLong_e04_stereo_44KHz.wav
2	16	4	3	2	I	1	0	696	0	poli_8sides 11_whiteLine3.jpg	Medium_e26_stereo_44KHz.wav
2	17	2	2	1	C	2	1	725	1	poli_8sides 1_whiteLine3.jpg	MediumLong_e04_stereo_44KHz.wav
2	18	3	4	2	I	2	0	741	0	poli_8sides 10_whiteLine3.jpg	Medium_e21_stereo_44KHz.wav
2	19	1	1	1	C	2	1	844	1	poli_8sides 18_whiteLine3.jpg	MediumLong_b10_cut2_L_stereo_44KHz.wav
2	20	4	3	2	I	2	0	997	1	poli_8sides 11_whiteLine3.jpg	Medium_e26_stereo_44KHz.wav
2	21	3	3	2	I	1	0	757	0	poli_8sides 10_whiteLine3.jpg	Medium_e26_stereo_44KHz.wav
2	22	2	1	0	C	2	0	786	0	poli_8sides 1_whiteLine3.jpg	MediumLong_b10_cut2_L_stereo_44KHz.wav
2	23	4	4	2	I	2	0	934	1	poli_8sides 11_whiteLine3.jpg	Medium_e21_stereo_44KHz.wav
2	24	1	2	0	C	2	0	718	0	poli_8sides 18_whiteLine3.jpg	MediumLong_e04_stereo_44KHz.wav
2	25	2	2	1	C	2	1	742	1	poli_8sides 1_whiteLine3.jpg	MediumLong_e04_stereo_44KHz.wav
2	26	3	3	2	I	2	0	892	1	poli_8sides 10_whiteLine3.jpg	Medium_e26_stereo_44KHz.wav
2	27	4	4	2	I	2	0	775	1	poli_8sides 11_whiteLine3.jpg	Medium_e21_stereo_44KHz.wav
2	28	1	2	0	C	1	1	1064	1	poli_8sides 18_whiteLine3.jpg	MediumLong_e04_stereo_44KHz.wav
2	29	4	3	2	I	2	0	861	0	poli_8sides 11_whiteLine3.jpg	Medium_e26_stereo_44KHz.wav
2	30	3	4	2	I	1	0	965	0	poli_8sides 10_whiteLine3.jpg	Medium_e21_stereo_44KHz.wav
2	31	2	1	0	C	1	1	856	1	poli_8sides 1_whiteLine3.jpg	MediumLong_b10_cut2_L_stereo_44KHz.wav
2	32	1	1	1	C	2	1	672	1	poli_8sides 18_whiteLine3.jpg	MediumLong_b10_cut2_L_stereo_44KHz.wav
2	33	4	3	2	I	1	0	548	1	poli_8sides 11_whiteLine3.jpg	Medium_e26_stereo_44KHz.wav
2	34	2	1	0	C	1	1	686	1	poli_8sides 1_whiteLine3.jpg	MediumLong_b10_cut2_L_stereo_44KHz.wav
2	35	1	2	0	C	1	1	638	1	poli_8sides 18_whiteLine3.jpg	MediumLong_e04_stereo_44KHz.wav
2	36	3	3	2	I	2	0	769	0	poli_8sides 10_whiteLine3.jpg	Medium_e26_stereo_44KHz.wav
2	37	1	1	1	C	2	1	858	1	poli_8sides 18_whiteLine3.jpg	MediumLong_b10_cut2_L_stereo_44KHz.wav
2	38	2	2	1	C	1	0	618	0	poli_8sides 1_whiteLine3.jpg	MediumLong_e04_stereo_44KHz.wav
2	39	4	4	2	I	2	0	879	0	poli_8sides 11_whiteLine3.jpg	Medium_e21_stereo_44KHz.wav
2	40	3	4	2	I	1	0	744	0	poli_8sides 10_whiteLine3.jpg	Medium_e21_stereo_44KHz.wav
2	41	1	2	0	C	1	1	1269	1	poli_8sides 18_whiteLine3.jpg	MediumLong_e04_stereo_44KHz.wav
2	42	3	3	2	I	1	0	645	1	poli_8sides 10_whiteLine3.jpg	Medium_e26_stereo_44KHz.wav
2	43	2	1	0	C	2	0	876	0	poli_8sides 1_whiteLine3.jpg	MediumLong_b10_cut2_L_stereo_44KHz.wav
2	44	4	3	2	I	1	0	982	0	poli_8sides 11_whiteLine3.jpg	Medium_e26_stereo_44KHz.wav
2	45	1	1	1	C	2	1	865	1	poli_8sides 18_whiteLine3.jpg	MediumLong_b10_cut2_L_stereo_44KHz.wav
2	46	2	2	1	C	2	1	666	1	poli_8sides 1_whiteLine3.jpg	MediumLong_e04_stereo_44KHz.wav
2	47	4	4	2	I	1	0	736	1	poli_8sides 11_whiteLine3.jpg	Medium_e21_stereo_44KHz.wav
2	48	3	4	2	I	1	0	805	0	poli_8sides 10_whiteLine3.jpg	Medium_e21_stereo_44KHz.wav
2	49	1	1	1	C	2	1	614	1	poli_8sides 18_whiteLine3.jpg	MediumLong_b10_cut2_L_stereo_44KHz.wav
2	50	4	4	2	I	1	0	705	1	poli_8sides 11_whiteLine3.jpg	Medium_e21_stereo_44KHz.wav
2	51	3	4	2	I	2	0	702	1	poli_8sides 10_whiteLine3.jpg	Medium_e21_stereo_44KHz.wav
2	52	2	1	0	C	2	0	761	0	poli_8sides 1_whiteLine3.jpg	MediumLong_b10_cut2_L_stereo_44KHz.wav
2	53	3	3	2	I	1	0	734	1	poli_8sides 10_whiteLine3.jpg	Medium_e26_stereo_44KHz.wav
2	54	2	2	1	C	2	1	659	1	poli_8sides 1_whiteLine3.jpg	MediumLong_e04_stereo_44KHz.wav
2	55	1	2	0	C	1	1	865	1	poli_8sides 18_whiteLine3.jpg	MediumLong_e04_stereo_44KHz.wav
2	56	4	3	2	I	1	0	660	1	poli_8sides 11_whiteLine3.jpg	Medium_e26_stereo_44KHz.wav
2	57	3	3	2	I	2	0	768	1	poli_8sides 10_whiteLine3.jpg	Medium_e26_stereo_44KHz.wav
2	58	4	4	2	I	1	0	529	0	poli_8sides 11_whiteLine3.jpg	Medium_e21_stereo_44KHz.wav
2	59	1	2	0	C	1	1	692	1	poli_8sides 18_whiteLine3.jpg	MediumLong_e04_stereo_44KHz.wav
2	60	2	1	0	C	2	0	957	0	poli_8sides 1_whiteLine3.jpg	MediumLong_b10_cut2_L_stereo_44KHz.wav
2	61	4	3	2	I	1	0	727	0	poli_8sides 11_whiteLine3.jpg	Medium_e26_stereo_44KHz.wav
2	62	3	4	2	I	1	0	662	1	poli_8sides 10_whiteLine3.jpg	Medium_e21_stereo_44KHz.wav
2	63	2	2	1	C	1	0	563	0	poli_8sides 1_whiteLine3.jpg	MediumLong_e04_stereo_44KHz.wav
2	64	1	1	1	C	2	1	830	1	poli_8sides 18_whiteLine3.jpg	MediumLong_b10_cut2_L_stereo_44KHz.wav
2	65	4	3	2	I	1	0	651	1	poli_8sides 11_whiteLine3.jpg	Medium_e26_stereo_44KHz.wav
2	66	2	2	1	C	2	1	763	1	poli_8sides 1_whiteLine3.jpg	MediumLong_e04_stereo_44KHz.wav
2	67	1	1	1	C	2	1	816	1	poli_8sides 18_whiteLine3.jpg	MediumLong_b10_cut2_L_stereo_44KHz.wav
2	68	3	3	2	I	1	0	652	1	poli_8sides 10_whiteLine3.jpg	Medium_e26_stereo_44KHz.wav
2	69	1	2	0	C	1	1	835	1	poli_8sides 18_whiteLine3.jpg	MediumLong_e04_stereo_44KHz.wav
2	70	4	4	2	I	1	0	925	0	poli_8sides 11_whiteLine3.jpg	Medium_e21_stereo_44KHz.wav
2	71	2	1	0	C	1	1	904	1	poli_8sides 1_whiteLine3.jpg	MediumLong_b10_cut2_L_stereo_44KHz.wav
2	72	3	4	2	I	1	0	629	1	poli_8sides 10_whiteLine3.jpg	Medium_e21_stereo_44KHz.wav
2	73	2	2	1	C	2	1	718	1	poli_8sides 1_whiteLine3.jpg	MediumLong_e04_stereo_44KHz.wav
2	74	3	3	2	I	1	0	605	0	poli_8sides 10_whiteLine3.jpg	Medium_e26_stereo_44KHz.wav
2	75	4	3	2	I	1	0	686	1	poli_8sides 11_whiteLine3.jpg	Medium_e26_stereo_44KHz.wav
2	76	1	2	0	C	1	1	619	1	poli_8sides 18_whiteLine3.jpg	MediumLong_e04_stereo_44KHz.wav
2	77	4	4	2	I	1	0	550	0	poli_8sides 11_whiteLine3.jpg	Medium_e21_stereo_44KHz.wav
2	78	2	1	0	C	1	1	708	1	poli_8sides 1_whiteLine3.jpg	MediumLong_b10_cut2_L_stereo_44KHz.wav
2	79	3	4	2	I	1	0	542	1	poli_8sides 10_whiteLine3.jpg	Medium_e21_stereo_44KHz.wav
2	80	1	1	1	C	2	1	640	1	poli_8sides 18_whiteLine3.jpg	MediumLong_b10_cut2_L_stereo_44KHz.wav
2	81	3	4	2	I	1	0	614	0	poli_8sides 10_whiteLine3.jpg	Medium_e21_stereo_44KHz.wav
2	82	2	1	0	C	1	1	724	1	poli_8sides 1_whiteLine3.jpg	MediumLong_b10_cut2_L_stereo_44KHz.wav
2	83	4	3	2	I	1	0	745	1	poli_8sides 11_whiteLine3.jpg	Medium_e26_stereo_44KHz.wav
2	84	1	1	1	C	2	1	763	1	poli_8sides 18_whiteLine3.jpg	MediumLong_b10_cut2_L_stereo_44KHz.wav
2	85	3	3	2	I	1	0	733	0	poli_8sides 10_whiteLine3.jpg	Medium_e26_stereo_44KHz.wav
2	86	4	4	2	I	1	0	760	1	poli_8sides 11_whiteLine3.jpg	Medium_e21_stereo_44KHz.wav
2	87	2	2	1	C	2	1	609	1	poli_8sides 1_whiteLine3.jpg	MediumLong_e04_stereo_44KHz.wav
2	88	1	2	0	C	1	1	676	1	poli_8sides 18_whiteLine3.jpg	MediumLong_e04_stereo_44KHz.wav
2	89	3	4	2	I	2	0	928	0	poli_8sides 10_whiteLine3.jpg	Medium_e21_stereo_44KHz.wav
2	90	1	1	1	C	2	1	574	1	poli_8sides 18_whiteLine3.jpg	MediumLong_b10_cut2_L_stereo_44KHz.wav
2	91	4	3	2	I	1	0	578	0	poli_8sides 11_whiteLine3.jpg	Medium_e26_stereo_44KHz.wav
2	92	2	2	1	C	2	1	670	1	poli_8sides 1_whiteLine3.jpg	MediumLong_e04_stereo_44KHz.wav
2	93	1	2	0	C	1	1	543	1	poli_8sides 18_whiteLine3.jpg	MediumLong_e04_stereo_44KHz.wav
2	94	2	1	0	C	1	1	682	1	poli_8sides 1_whiteLine3.jpg	MediumLong_b10_cut2_L_stereo_44KHz.wav
2	95	4	4	2	I	1	0	728	0	poli_8sides 11_whiteLine3.jpg	Medium_e21_stereo_44KHz.wav
2	96	3	3	2	I	1	0	781	1	poli_8sides 10_whiteLine3.jpg	Medium_e26_stereo_44KHz.wav
2	97	1	2	0	C	1	1	683	1	poli_8sides 18_whiteLine3.jpg	MediumLong_e04_stereo_44KHz.wav
2	98	3	3	2	I	1	0	595	1	poli_8sides 10_whiteLine3.jpg	Medium_e26_stereo_44KHz.wav
2	99	4	3	2	I	1	0	535	1	poli_8sides 11_whiteLine3.jpg	Medium_e26_stereo_44KHz.wav
2	100	2	1	0	C	1	1	730	1	poli_8sides 1_whiteLine3.jpg	MediumLong_b10_cut2_L_stereo_44KHz.wav
2	101	4	4	2	I	1	0	549	0	poli_8sides 11_whiteLine3.jpg	Medium_e21_stereo_44KHz.wav
2	102	3	4	2	I	1	0	588	0	poli_8sides 10_whiteLine3.jpg	Medium_e21_stereo_44KHz.wav
2	103	1	1	1	C	2	1	623	1	poli_8sides 18_whiteLine3.jpg	MediumLong_b10_cut2_L_stereo_44KHz.wav
2	104	2	2	1	C	2	1	720	1	poli_8sides 1_whiteLine3.jpg	MediumLong_e04_stereo_44KHz.wav
2	105	1	2	0	C	1	1	598	1	poli_8sides 18_whiteLine3.jpg	MediumLong_e04_stereo_44KHz.wav
2	106	4	3	2	I	1	0	613	0	poli_8sides 11_whiteLine3.jpg	Medium_e26_stereo_44KHz.wav
2	107	3	4	2	I	1	0	735	0	poli_8sides 10_whiteLine3.jpg	Medium_e21_stereo_44KHz.wav
2	108	2	1	0	C	1	1	889	1	poli_8sides 1_whiteLine3.jpg	MediumLong_b10_cut2_L_stereo_44KHz.wav
2	109	1	1	1	C	2	1	723	1	poli_8sides 18_whiteLine3.jpg	MediumLong_b10_cut2_L_stereo_44KHz.wav
2	110	2	2	1	C	2	1	746	1	poli_8sides 1_whiteLine3.jpg	MediumLong_e04_stereo_44KHz.wav
2	111	4	4	2	I	1	0	554	0	poli_8sides 11_whiteLine3.jpg	Medium_e21_stereo_44KHz.wav
2	112	3	3	2	I	1	0	595	1	poli_8sides 10_whiteLine3.jpg	Medium_e26_stereo_44KHz.wav
2	113	2	2	1	C	2	1	743	1	poli_8sides 1_whiteLine3.jpg	MediumLong_e04_stereo_44KHz.wav
2	114	4	3	2	I	1	0	579	1	poli_8sides 11_whiteLine3.jpg	Medium_e26_stereo_44KHz.wav
2	115	3	4	2	I	1	0	654	1	poli_8sides 10_whiteLine3.jpg	Medium_e21_stereo_44KHz.wav
2	116	1	1	1	C	2	1	608	1	poli_8sides 18_whiteLine3.jpg	MediumLong_b10_cut2_L_stereo_44KHz.wav
2	117	4	4	2	I	1	0	568	1	poli_8sides 11_whiteLine3.jpg	Medium_e21_stereo_44KHz.wav
2	118	1	2	0	C	1	1	698	1	poli_8sides 18_whiteLine3.jpg	MediumLong_e04_stereo_44KHz.wav
2	119	3	3	2	I	1	0	659	1	poli_8sides 10_whiteLine3.jpg	Medium_e26_stereo_44KHz.wav
2	120	2	1	0	C	1	1	665	1	poli_8sides 1_whiteLine3.jpg	MediumLong_b10_cut2_L_stereo_44KHz.wav
2	121	4	4	2	I	1	0	754	0	poli_8sides 11_whiteLine3.jpg	Medium_e21_stereo_44KHz.wav
2	122	2	2	1	C	2	1	685	1	poli_8sides 1_whiteLine3.jpg	MediumLong_e04_stereo_44KHz.wav
2	123	3	4	2	I	1	0	537	0	poli_8sides 10_whiteLine3.jpg	Medium_e21_stereo_44KHz.wav
2	124	1	1	1	C	2	1	662	1	poli_8sides 18_whiteLine3.jpg	MediumLong_b10_cut2_L_stereo_44KHz.wav
2	125	2	1	0	C	1	1	1028	1	poli_8sides 1_whiteLine3.jpg	MediumLong_b10_cut2_L_stereo_44KHz.wav
2	126	1	2	0	C	1	1	627	1	poli_8sides 18_whiteLine3.jpg	MediumLong_e04_stereo_44KHz.wav
2	127	4	3	2	I	1	0	569	1	poli_8sides 11_whiteLine3.jpg	Medium_e26_stereo_44KHz.wav
2	128	3	3	2	I	1	0	618	1	poli_8sides 10_whiteLine3.jpg	Medium_e26_stereo_44KHz.wav
2	129	4	4	2	I	1	0	577	1	poli_8sides 11_whiteLine3.jpg	Medium_e21_stereo_44KHz.wav
2	130	1	2	0	C	2	0	680	0	poli_8sides 18_whiteLine3.jpg	MediumLong_e04_stereo_44KHz.wav
2	131	2	2	1	C	2	1	620	1	poli_8sides 1_whiteLine3.jpg	MediumLong_e04_stereo_44KHz.wav
2	132	3	4	2	I	1	0	652	1	poli_8sides 10_whiteLine3.jpg	Medium_e21_stereo_44KHz.wav
2	133	4	3	2	I	1	0	563	0	poli_8sides 11_whiteLine3.jpg	Medium_e26_stereo_44KHz.wav
2	134	1	1	1	C	2	1	665	1	poli_8sides 18_whiteLine3.jpg	MediumLong_b10_cut2_L_stereo_44KHz.wav
2	135	2	1	0	C	1	1	558	1	poli_8sides 1_whiteLine3.jpg	MediumLong_b10_cut2_L_stereo_44KHz.wav
2	136	3	3	2	I	1	0	692	1	poli_8sides 10_whiteLine3.jpg	Medium_e26_stereo_44KHz.wav
2	137	4	4	2	I	2	0	624	0	poli_8sides 11_whiteLine3.jpg	Medium_e21_stereo_44KHz.wav
2	138	2	1	0	C	1	1	640	1	poli_8sides 1_whiteLine3.jpg	MediumLong_b10_cut2_L_stereo_44KHz.wav
2	139	3	4	2	I	1	0	721	1	poli_8sides 10_whiteLine3.jpg	Medium_e21_stereo_44KHz.wav
2	140	1	1	1	C	2	1	675	1	poli_8sides 18_whiteLine3.jpg	MediumLong_b10_cut2_L_stereo_44KHz.wav
2	141	3	3	2	I	1	0	610	0	poli_8sides 10_whiteLine3.jpg	Medium_e26_stereo_44KHz.wav
2	142	1	2	0	C	1	1	815	1	poli_8sides 18_whiteLine3.jpg	MediumLong_e04_stereo_44KHz.wav
2	143	2	2	1	C	2	1	695	1	poli_8sides 1_whiteLine3.jpg	MediumLong_e04_stereo_44KHz.wav
2	144	4	3	2	I	1	0	705	1	poli_8sides 11_whiteLine3.jpg	Medium_e26_stereo_44KHz.wav
2	145	3	4	2	I	1	0	777	0	poli_8sides 10_whiteLine3.jpg	Medium_e21_stereo_44KHz.wav
2	146	1	2	0	C	1	1	603	1	poli_8sides 18_whiteLine3.jpg	MediumLong_e04_stereo_44KHz.wav
2	147	4	3	2	I	2	0	566	0	poli_8sides 11_whiteLine3.jpg	Medium_e26_stereo_44KHz.wav
2	148	2	1	0	C	1	1	843	1	poli_8sides 1_whiteLine3.jpg	MediumLong_b10_cut2_L_stereo_44KHz.wav
2	149	4	4	2	I	1	0	521	1	poli_8sides 11_whiteLine3.jpg	Medium_e21_stereo_44KHz.wav
2	150	3	3	2	I	1	0	552	0	poli_8sides 10_whiteLine3.jpg	Medium_e26_stereo_44KHz.wav
2	151	2	2	1	C	2	1	656	1	poli_8sides 1_whiteLine3.jpg	MediumLong_e04_stereo_44KHz.wav
2	152	1	1	1	C	2	1	807	1	poli_8sides 18_whiteLine3.jpg	MediumLong_b10_cut2_L_stereo_44KHz.wav
2	153	3	4	2	I	1	0	661	0	poli_8sides 10_whiteLine3.jpg	Medium_e21_stereo_44KHz.wav
2	154	4	3	2	I	1	0	487	1	poli_8sides 11_whiteLine3.jpg	Medium_e26_stereo_44KHz.wav
2	155	1	2	0	C	1	1	929	1	poli_8sides 18_whiteLine3.jpg	MediumLong_e04_stereo_44KHz.wav
2	156	2	1	0	C	1	1	756	1	poli_8sides 1_whiteLine3.jpg	MediumLong_b10_cut2_L_stereo_44KHz.wav
2	157	4	4	2	I	1	0	565	0	poli_8sides 11_whiteLine3.jpg	Medium_e21_stereo_44KHz.wav
2	158	3	3	2	I	1	0	711	0	poli_8sides 10_whiteLine3.jpg	Medium_e26_stereo_44KHz.wav
2	159	2	2	1	C	2	1	715	1	poli_8sides 1_whiteLine3.jpg	MediumLong_e04_stereo_44KHz.wav
2	160	1	1	1	C	2	1	773	1	poli_8sides 18_whiteLine3.jpg	MediumLong_b10_cut2_L_stereo_44KHz.wav
2	161	4	4	2	I	1	0	618	0	poli_8sides 11_whiteLine3.jpg	Medium_e21_stereo_44KHz.wav
2	162	1	1	1	C	2	1	534	1	poli_8sides 18_whiteLine3.jpg	MediumLong_b10_cut2_L_stereo_44KHz.wav
2	163	3	4	2	I	2	0	840	1	poli_8sides 10_whiteLine3.jpg	Medium_e21_stereo_44KHz.wav
2	164	2	1	0	C	1	1	532	1	poli_8sides 1_whiteLine3.jpg	MediumLong_b10_cut2_L_stereo_44KHz.wav
2	165	1	2	0	C	1	1	673	1	poli_8sides 18_whiteLine3.jpg	MediumLong_e04_stereo_44KHz.wav
2	166	4	3	2	I	1	0	565	0	poli_8sides 11_whiteLine3.jpg	Medium_e26_stereo_44KHz.wav
2	167	3	3	2	I	1	0	579	1	poli_8sides 10_whiteLine3.jpg	Medium_e26_stereo_44KHz.wav
2	168	2	2	1	C	2	1	671	1	poli_8sides 1_whiteLine3.jpg	MediumLong_e04_stereo_44KHz.wav
2	169	1	2	0	C	2	0	739	0	poli_8sides 18_whiteLine3.jpg	MediumLong_e04_stereo_44KHz.wav
2	170	3	3	2	I	1	0	655	0	poli_8sides 10_whiteLine3.jpg	Medium_e26_stereo_44KHz.wav
2	171	2	1	0	C	1	1	637	1	poli_8sides 1_whiteLine3.jpg	MediumLong_b10_cut2_L_stereo_44KHz.wav
2	172	4	3	2	I	2	0	977	1	poli_8sides 11_whiteLine3.jpg	Medium_e26_stereo_44KHz.wav
2	173	1	1	1	C	2	1	707	1	poli_8sides 18_whiteLine3.jpg	MediumLong_b10_cut2_L_stereo_44KHz.wav
2	174	2	2	1	C	2	1	508	1	poli_8sides 1_whiteLine3.jpg	MediumLong_e04_stereo_44KHz.wav
2	175	3	4	2	I	1	0	515	0	poli_8sides 10_whiteLine3.jpg	Medium_e21_stereo_44KHz.wav
2	176	4	4	2	I	1	0	526	0	poli_8sides 11_whiteLine3.jpg	Medium_e21_stereo_44KHz.wav
2	177	3	4	2	I	1	0	501	1	poli_8sides 10_whiteLine3.jpg	Medium_e21_stereo_44KHz.wav
2	178	2	1	0	C	1	1	505	1	poli_8sides 1_whiteLine3.jpg	MediumLong_b10_cut2_L_stereo_44KHz.wav
2	179	1	2	0	C	2	0	574	0	poli_8sides 18_whiteLine3.jpg	MediumLong_e04_stereo_44KHz.wav
2	180	4	4	2	I	1	0	613	0	poli_8sides 11_whiteLine3.jpg	Medium_e21_stereo_44KHz.wav
2	181	2	2	1	C	2	1	545	1	poli_8sides 1_whiteLine3.jpg	MediumLong_e04_stereo_44KHz.wav
2	182	1	1	1	C	2	1	632	1	poli_8sides 18_whiteLine3.jpg	MediumLong_b10_cut2_L_stereo_44KHz.wav
2	183	3	3	2	I	1	0	561	1	poli_8sides 10_whiteLine3.jpg	Medium_e26_stereo_44KHz.wav
2	184	4	3	2	I	2	0	774	1	poli_8sides 11_whiteLine3.jpg	Medium_e26_stereo_44KHz.wav
2	185	2	2	1	C	2	1	686	1	poli_8sides 1_whiteLine3.jpg	MediumLong_e04_stereo_44KHz.wav
2	186	3	3	2	I	1	0	563	1	poli_8sides 10_whiteLine3.jpg	Medium_e26_stereo_44KHz.wav
2	187	4	4	2	I	2	0	625	0	poli_8sides 11_whiteLine3.jpg	Medium_e21_stereo_44KHz.wav
2	188	1	1	1	C	2	1	682	1	poli_8sides 18_whiteLine3.jpg	MediumLong_b10_cut2_L_stereo_44KHz.wav
2	189	2	1	0	C	1	1	913	1	poli_8sides 1_whiteLine3.jpg	MediumLong_b10_cut2_L_stereo_44KHz.wav
2	190	1	2	0	C	1	1	709	1	poli_8sides 18_whiteLine3.jpg	MediumLong_e04_stereo_44KHz.wav
2	191	4	3	2	I	1	0	689	0	poli_8sides 11_whiteLine3.jpg	Medium_e26_stereo_44KHz.wav
2	192	3	4	2	I	1	0	589	0	poli_8sides 10_whiteLine3.jpg	Medium_e21_stereo_44KHz.wav
2	193	4	3	2	I	1	0	684	0	poli_8sides 11_whiteLine3.jpg	Medium_e26_stereo_44KHz.wav
2	194	3	3	2	I	1	0	661	0	poli_8sides 10_whiteLine3.jpg	Medium_e26_stereo_44KHz.wav
2	195	1	1	1	C	2	1	780	1	poli_8sides 18_whiteLine3.jpg	MediumLong_b10_cut2_L_stereo_44KHz.wav
2	196	2	1	0	C	1	1	596	1	poli_8sides 1_whiteLine3.jpg	MediumLong_b10_cut2_L_stereo_44KHz.wav
2	197	3	4	2	I	1	0	635	0	poli_8sides 10_whiteLine3.jpg	Medium_e21_stereo_44KHz.wav
2	198	1	2	0	C	2	0	590	0	poli_8sides 18_whiteLine3.jpg	MediumLong_e04_stereo_44KHz.wav
2	199	2	2	1	C	2	1	476	1	poli_8sides 1_whiteLine3.jpg	MediumLong_e04_stereo_44KHz.wav
2	200	4	4	2	I	1	0	744	1	poli_8sides 11_whiteLine3.jpg	Medium_e21_stereo_44KHz.wav
3	1	2	1	0	C	2	0	1146	0	poli_8sides 2_whiteLine3.jpg	MediumShort_b16_cut3_MS_stereo_44KHz.wav
3	2	3	3	2	I	1	0	740	0	poli_8sides 7_whiteLine3.jpg	MediumShort_e22_cut1_stereo_44KHz.wav
3	3	1	2	0	C	2	0	627	0	poli_8sides 15_whiteLine3.jpg	MediumShort_b10_cut1_MS_stereo_44KHz.wav
3	4	4	3	2	I	1	0	570	1	poli_8sides 8_whiteLine3.jpg	MediumShort_e22_cut1_stereo_44KHz.wav
3	5	2	2	1	C	2	1	631	1	poli_8sides 2_whiteLine3.jpg	MediumShort_b10_cut1_MS_stereo_44KHz.wav
3	6	4	4	2	I	1	0	873	0	poli_8sides 8_whiteLine3.jpg	MediumShort_e16_cut1_stereo_44KHz.wav
3	7	3	4	2	I	1	0	726	1	poli_8sides 7_whiteLine3.jpg	MediumShort_e16_cut1_stereo_44KHz.wav
3	8	1	1	1	C	2	1	818	1	poli_8sides 15_whiteLine3.jpg	MediumShort_b16_cut3_MS_stereo_44KHz.wav
3	9	2	1	0	C	2	0	816	0	poli_8sides 2_whiteLine3.jpg	MediumShort_b16_cut3_MS_stereo_44KHz.wav
3	10	1	2	0	C	1	1	719	1	poli_8sides 15_whiteLine3.jpg	MediumShort_b10_cut1_MS_stereo_44KHz.wav
3	11	4	4	2	I	2	0	804	0	poli_8sides 8_whiteLine3.jpg	MediumShort_e16_cut1_stereo_44KHz.wav
3	12	3	3	2	I	1	0	595	1	poli_8sides 7_whiteLine3.jpg	MediumShort_e22_cut1_stereo_44KHz.wav
3	13	2	2	1	C	2	1	619	1	poli_8sides 2_whiteLine3.jpg	MediumShort_b10_cut1_MS_stereo_44KHz.wav
3	14	1	1	1	C	1	0	549	0	poli_8sides 15_whiteLine3.jpg	MediumShort_b16_cut3_MS_stereo_44KHz.wav
3	15	3	4	2	I	2	0	550	1	poli_8sides 7_whiteLine3.jpg	MediumShort_e16_cut1_stereo_44KHz.wav
3	16	4	3	2	I	1	0	491	0	poli_8sides 8_whiteLine3.jpg	MediumShort_e22_cut1_stereo_44KHz.wav
3	17	2	2	1	C	2	1	541	1	poli_8sides 2_whiteLine3.jpg	MediumShort_b10_cut1_MS_stereo_44KHz.wav
3	18	3	4	2	I	2	0	690	0	poli_8sides 7_whiteLine3.jpg	MediumShort_e16_cut1_stereo_44KHz.wav
3	19	1	2	0	C	1	1	660	1	poli_8sides 15_whiteLine3.jpg	MediumShort_b10_cut1_MS_stereo_44KHz.wav
3	20	4	4	2	I	2	0	805	0	poli_8sides 8_whiteLine3.jpg	MediumShort_e16_cut1_stereo_44KHz.wav
3	21	2	1	0	C	2	0	733	0	poli_8sides 2_whiteLine3.jpg	MediumShort_b16_cut3_MS_stereo_44KHz.wav
3	22	1	1	1	C	1	0	525	0	poli_8sides 15_whiteLine3.jpg	MediumShort_b16_cut3_MS_stereo_44KHz.wav
3	23	3	3	2	I	2	0	331	1	poli_8sides 7_whiteLine3.jpg	MediumShort_e22_cut1_stereo_44KHz.wav
3	24	4	3	2	I	1	0	719	1	poli_8sides 8_whiteLine3.jpg	MediumShort_e22_cut1_stereo_44KHz.wav
3	25	1	2	0	C	1	1	845	1	poli_8sides 15_whiteLine3.jpg	MediumShort_b10_cut1_MS_stereo_44KHz.wav
3	26	3	4	2	I	2	0	722	1	poli_8sides 7_whiteLine3.jpg	MediumShort_e16_cut1_stereo_44KHz.wav
3	27	2	2	1	C	1	0	816	0	poli_8sides 2_whiteLine3.jpg	MediumShort_b10_cut1_MS_stereo_44KHz.wav
3	28	4	3	2	I	1	0	845	1	poli_8sides 8_whiteLine3.jpg	MediumShort_e22_cut1_stereo_44KHz.wav
3	29	2	1	0	C	2	0	928	0	poli_8sides 2_whiteLine3.jpg	MediumShort_b16_cut3_MS_stereo_44KHz.wav
3	30	1	1	1	C	2	1	663	1	poli_8sides 15_whiteLine3.jpg	MediumShort_b16_cut3_MS_stereo_44KHz.wav
3	31	4	4	2	I	1	0	693	1	poli_8sides 8_whiteLine3.jpg	MediumShort_e16_cut1_stereo_44KHz.wav
3	32	3	3	2	I	2	0	565	0	poli_8sides 7_whiteLine3.jpg	MediumShort_e22_cut1_stereo_44KHz.wav
3	33	1	2	0	C	1	1	419	1	poli_8sides 15_whiteLine3.jpg	MediumShort_b10_cut1_MS_stereo_44KHz.wav
3	34	2	2	1	C	2	1	851	1	poli_8sides 2_whiteLine3.jpg	MediumShort_b10_cut1_MS_stereo_44KHz.wav
3	35	3	4	2	I	1	0	644	0	poli_8sides 7_whiteLine3.jpg	MediumShort_e16_cut1_stereo_44KHz.wav
3	36	4	4	2	I	2	0	647	0	poli_8sides 8_whiteLine3.jpg	MediumShort_e16_cut1_stereo_44KHz.wav
3	37	3	3	2	I	2	0	661	0	poli_8sides 7_whiteLine3.jpg	MediumShort_e22_cut1_stereo_44KHz.wav
3	38	2	1	0	C	2	0	1049	0	poli_8sides 2_whiteLine3.jpg	MediumShort_b16_cut3_MS_stereo_44KHz.wav
3	39	1	1	1	C	1	0	801	0	poli_8sides 15_whiteLine3.jpg	MediumShort_b16_cut3_MS_stereo_44KHz.wav
3	40	4	3	2	I	2	0	687	0	poli_8sides 8_whiteLine3.jpg	MediumShort_e22_cut1_stereo_44KHz.wav
3	41	2	2	1	C	1	0	1091	0	poli_8sides 2_whiteLine3.jpg	MediumShort_b10_cut1_MS_stereo_44KHz.wav
3	42	3	3	2	I	1	0	937	0	poli_8sides 7_whiteLine3.jpg	MediumShort_e22_cut1_stereo_44KHz.wav
3	43	4	4	2	I	2	0	630	0	poli_8sides 8_whiteLine3.jpg	MediumShort_e16_cut1_stereo_44KHz.wav
3	44	1	2	0	C	1	1	619	1	poli_8sides 15_whiteLine3.jpg	MediumShort_b10_cut1_MS_stereo_44KHz.wav
3	45	2	1	0	C	1	1	602	1	poli_8sides 2_whiteLine3.jpg	MediumShort_b16_cut3_MS_stereo_44KHz.wav
3	46	3	4	2	I	1	0	768	0	poli_8sides 7_whiteLine3.jpg	MediumShort_e16_cut1_stereo_44KHz.wav
3	47	4	3	2	I	1	0	669	0	poli_8sides 8_whiteLine3.jpg	MediumShort_e22_cut1_stereo_44KHz.wav
3	48	1	1	1	C	1	0	962	0	poli_8sides 15_whiteLine3.jpg	MediumShort_b16_cut3_MS_stereo_44KHz.wav
3	49	3	3	2	I	1	0	703	0	poli_8sides 7_whiteLine3.jpg	MediumShort_e22_cut1_stereo_44KHz.wav
3	50	4	3	2	I	1	0	744	1	poli_8sides 8_whiteLine3.jpg	MediumShort_e22_cut1_stereo_44KHz.wav
3	51	1	1	1	C	2	1	633	1	poli_8sides 15_whiteLine3.jpg	MediumShort_b16_cut3_MS_stereo_44KHz.wav
3	52	2	2	1	C	2	1	809	1	poli_8sides 2_whiteLine3.jpg	MediumShort_b10_cut1_MS_stereo_44KHz.wav
3	53	1	2	0	C	1	1	744	1	poli_8sides 15_whiteLine3.jpg	MediumShort_b10_cut1_MS_stereo_44KHz.wav
3	54	3	4	2	I	2	0	846	0	poli_8sides 7_whiteLine3.jpg	MediumShort_e16_cut1_stereo_44KHz.wav
3	55	4	4	2	I	2	0	1181	1	poli_8sides 8_whiteLine3.jpg	MediumShort_e16_cut1_stereo_44KHz.wav
3	56	2	1	0	C	1	1	651	1	poli_8sides 2_whiteLine3.jpg	MediumShort_b16_cut3_MS_stereo_44KHz.wav
3	57	4	4	2	I	2	0	662	1	poli_8sides 8_whiteLine3.jpg	MediumShort_e16_cut1_stereo_44KHz.wav
3	58	1	2	0	C	2	0	564	0	poli_8sides 15_whiteLine3.jpg	MediumShort_b10_cut1_MS_stereo_44KHz.wav
3	59	2	1	0	C	1	1	655	1	poli_8sides 2_whiteLine3.jpg	MediumShort_b16_cut3_MS_stereo_44KHz.wav
3	60	3	3	2	I	2	0	973	0	poli_8sides 7_whiteLine3.jpg	MediumShort_e22_cut1_stereo_44KHz.wav
3	61	1	1	1	C	1	0	792	0	poli_8sides 15_whiteLine3.jpg	MediumShort_b16_cut3_MS_stereo_44KHz.wav
3	62	2	2	1	C	2	1	772	1	poli_8sides 2_whiteLine3.jpg	MediumShort_b10_cut1_MS_stereo_44KHz.wav
3	63	3	4	2	I	2	0	840	0	poli_8sides 7_whiteLine3.jpg	MediumShort_e16_cut1_stereo_44KHz.wav
3	64	4	3	2	I	1	0	805	0	poli_8sides 8_whiteLine3.jpg	MediumShort_e22_cut1_stereo_44KHz.wav
3	65	1	1	1	C	1	0	815	0	poli_8sides 15_whiteLine3.jpg	MediumShort_b16_cut3_MS_stereo_44KHz.wav
3	66	2	1	0	C	1	1	831	1	poli_8sides 2_whiteLine3.jpg	MediumShort_b16_cut3_MS_stereo_44KHz.wav
3	67	3	4	2	I	1	0	782	1	poli_8sides 7_whiteLine3.jpg	MediumShort_e16_cut1_stereo_44KHz.wav
3	68	4	4	2	I	2	0	712	0	poli_8sides 8_whiteLine3.jpg	MediumShort_e16_cut1_stereo_44KHz.wav
3	69	1	2	0	C	1	1	641	1	poli_8sides 15_whiteLine3.jpg	MediumShort_b10_cut1_MS_stereo_44KHz.wav
3	70	2	2	1	C	1	0	634	0	poli_8sides 2_whiteLine3.jpg	MediumShort_b10_cut1_MS_stereo_44KHz.wav
3	71	3	3	2	I	2	0	914	1	poli_8sides 7_whiteLine3.jpg	MediumShort_e22_cut1_stereo_44KHz.wav
3	72	4	3	2	I	1	0	518	1	poli_8sides 8_whiteLine3.jpg	MediumShort_e22_cut1_stereo_44KHz.wav
3	73	2	1	0	C	1	1	663	1	poli_8sides 2_whiteLine3.jpg	MediumShort_b16_cut3_MS_stereo_44KHz.wav
3	74	3	3	2	I	1	0	796	1	poli_8sides 7_whiteLine3.jpg	MediumShort_e22_cut1_stereo_44KHz.wav
3	75	1	1	1	C	1	0	627	0	poli_8sides 15_whiteLine3.jpg	MediumShort_b16_cut3_MS_stereo_44KHz.wav
3	76	4	4	2	I	1	0	709	0	poli_8sides 8_whiteLine3.jpg	MediumShort_e16_cut1_stereo_44KHz.wav
3	77	2	2	1	C	2	1	735	1	poli_8sides 2_whiteLine3.jpg	MediumShort_b10_cut1_MS_stereo_44KHz.wav
3	78	3	4	2	I	1	0	598	0	poli_8sides 7_whiteLine3.jpg	MediumShort_e16_cut1_stereo_44KHz.wav
3	79	1	2	0	C	2	0	745	0	poli_8sides 15_whiteLine3.jpg	MediumShort_b10_cut1_MS_stereo_44KHz.wav
3	80	4	3	2	I	1	0	722	0	poli_8sides 8_whiteLine3.jpg	MediumShort_e22_cut1_stereo_44KHz.wav
3	81	2	2	1	C	1	0	654	0	poli_8sides 2_whiteLine3.jpg	MediumShort_b10_cut1_MS_stereo_44KHz.wav
3	82	3	3	2	I	2	0	753	1	poli_8sides 7_whiteLine3.jpg	MediumShort_e22_cut1_stereo_44KHz.wav
3	83	1	2	0	C	2	0	754	0	poli_8sides 15_whiteLine3.jpg	MediumShort_b10_cut1_MS_stereo_44KHz.wav
3	84	4	3	2	I	2	0	796	0	poli_8sides 8_whiteLine3.jpg	MediumShort_e22_cut1_stereo_44KHz.wav
3	85	1	1	1	C	2	1	751	1	poli_8sides 15_whiteLine3.jpg	MediumShort_b16_cut3_MS_stereo_44KHz.wav
3	86	3	4	2	I	2	0	886	1	poli_8sides 7_whiteLine3.jpg	MediumShort_e16_cut1_stereo_44KHz.wav
3	87	2	1	0	C	1	1	641	1	poli_8sides 2_whiteLine3.jpg	MediumShort_b16_cut3_MS_stereo_44KHz.wav
3	88	4	4	2	I	1	0	553	1	poli_8sides 8_whiteLine3.jpg	MediumShort_e16_cut1_stereo_44KHz.wav
3	89	3	3	2	I	1	0	580	1	poli_8sides 7_whiteLine3.jpg	MediumShort_e22_cut1_stereo_44KHz.wav
3	90	2	2	1	C	2	1	666	1	poli_8sides 2_whiteLine3.jpg	MediumShort_b10_cut1_MS_stereo_44KHz.wav
3	91	4	4	2	I	2	0	550	1	poli_8sides 8_whiteLine3.jpg	MediumShort_e16_cut1_stereo_44KHz.wav
3	92	1	1	1	C	1	0	615	0	poli_8sides 15_whiteLine3.jpg	MediumShort_b16_cut3_MS_stereo_44KHz.wav
3	93	4	3	2	I	1	0	484	1	poli_8sides 8_whiteLine3.jpg	MediumShort_e22_cut1_stereo_44KHz.wav
3	94	2	1	0	C	1	1	594	1	poli_8sides 2_whiteLine3.jpg	MediumShort_b16_cut3_MS_stereo_44KHz.wav
3	95	3	4	2	I	2	0	631	0	poli_8sides 7_whiteLine3.jpg	MediumShort_e16_cut1_stereo_44KHz.wav
3	96	1	2	0	C	2	0	590	0	poli_8sides 15_whiteLine3.jpg	MediumShort_b10_cut1_MS_stereo_44KHz.wav
3	97	4	3	2	I	1	0	738	0	poli_8sides 8_whiteLine3.jpg	MediumShort_e22_cut1_stereo_44KHz.wav
3	98	1	1	1	C	2	1	711	1	poli_8sides 15_whiteLine3.jpg	MediumShort_b16_cut3_MS_stereo_44KHz.wav
3	99	2	1	0	C	1	1	625	1	poli_8sides 2_whiteLine3.jpg	MediumShort_b16_cut3_MS_stereo_44KHz.wav
3	100	3	3	2	I	1	0	753	1	poli_8sides 7_whiteLine3.jpg	MediumShort_e22_cut1_stereo_44KHz.wav
3	101	1	2	0	C	1	1	490	1	poli_8sides 15_whiteLine3.jpg	MediumShort_b10_cut1_MS_stereo_44KHz.wav
3	102	2	2	1	C	2	1	698	1	poli_8sides 2_whiteLine3.jpg	MediumShort_b10_cut1_MS_stereo_44KHz.wav
3	103	4	4	2	I	2	0	1040	0	poli_8sides 8_whiteLine3.jpg	MediumShort_e16_cut1_stereo_44KHz.wav
3	104	3	4	2	I	2	0	986	0	poli_8sides 7_whiteLine3.jpg	MediumShort_e16_cut1_stereo_44KHz.wav
3	105	2	2	1	C	2	1	742	1	poli_8sides 2_whiteLine3.jpg	MediumShort_b10_cut1_MS_stereo_44KHz.wav
3	106	1	1	1	C	1	0	1027	0	poli_8sides 15_whiteLine3.jpg	MediumShort_b16_cut3_MS_stereo_44KHz.wav
3	107	3	3	2	I	1	0	736	1	poli_8sides 7_whiteLine3.jpg	MediumShort_e22_cut1_stereo_44KHz.wav
3	108	4	4	2	I	1	0	594	1	poli_8sides 8_whiteLine3.jpg	MediumShort_e16_cut1_stereo_44KHz.wav
3	109	1	2	0	C	1	1	643	1	poli_8sides 15_whiteLine3.jpg	MediumShort_b10_cut1_MS_stereo_44KHz.wav
3	110	4	3	2	I	1	0	793	1	poli_8sides 8_whiteLine3.jpg	MediumShort_e22_cut1_stereo_44KHz.wav
3	111	3	4	2	I	1	0	729	0	poli_8sides 7_whiteLine3.jpg	MediumShort_e16_cut1_stereo_44KHz.wav
3	112	2	1	0	C	1	1	772	1	poli_8sides 2_whiteLine3.jpg	MediumShort_b16_cut3_MS_stereo_44KHz.wav
3	113	1	1	1	C	2	1	854	1	poli_8sides 15_whiteLine3.jpg	MediumShort_b16_cut3_MS_stereo_44KHz.wav
3	114	2	2	1	C	2	1	772	1	poli_8sides 2_whiteLine3.jpg	MediumShort_b10_cut1_MS_stereo_44KHz.wav
3	115	3	4	2	I	1	0	620	1	poli_8sides 7_whiteLine3.jpg	MediumShort_e16_cut1_stereo_44KHz.wav
3	116	4	4	2	I	2	0	646	0	poli_8sides 8_whiteLine3.jpg	MediumShort_e16_cut1_stereo_44KHz.wav
3	117	1	2	0	C	1	1	724	1	poli_8sides 15_whiteLine3.jpg	MediumShort_b10_cut1_MS_stereo_44KHz.wav
3	118	2	1	0	C	1	1	753	1	poli_8sides 2_whiteLine3.jpg	MediumShort_b16_cut3_MS_stereo_44KHz.wav
3	119	4	3	2	I	2	0	687	0	poli_8sides 8_whiteLine3.jpg	MediumShort_e22_cut1_stereo_44KHz.wav
3	120	3	3	2	I	1	0	671	0	poli_8sides 7_whiteLine3.jpg	MediumShort_e22_cut1_stereo_44KHz.wav
3	121	4	4	2	I	2	0	674	1	poli_8sides 8_whiteLine3.jpg	MediumShort_e16_cut1_stereo_44KHz.wav
3	122	2	2	1	C	1	0	610	0	poli_8sides 2_whiteLine3.jpg	MediumShort_b10_cut1_MS_stereo_44KHz.wav
3	123	1	1	1	C	2	1	812	1	poli_8sides 15_whiteLine3.jpg	MediumShort_b16_cut3_MS_stereo_44KHz.wav
3	124	3	4	2	I	1	0	777	1	poli_8sides 7_whiteLine3.jpg	MediumShort_e16_cut1_stereo_44KHz.wav
3	125	4	3	2	I	2	0	695	0	poli_8sides 8_whiteLine3.jpg	MediumShort_e22_cut1_stereo_44KHz.wav
3	126	1	2	0	C	2	0	898	0	poli_8sides 15_whiteLine3.jpg	MediumShort_b10_cut1_MS_stereo_44KHz.wav
3	127	2	1	0	C	1	1	596	1	poli_8sides 2_whiteLine3.jpg	MediumShort_b16_cut3_MS_stereo_44KHz.wav
3	128	3	3	2	I	1	0	677	1	poli_8sides 7_whiteLine3.jpg	MediumShort_e22_cut1_stereo_44KHz.wav
3	129	2	1	0	C	1	1	892	1	poli_8sides 2_whiteLine3.jpg	MediumShort_b16_cut3_MS_stereo_44KHz.wav
3	130	4	3	2	I	1	0	767	1	poli_8sides 8_whiteLine3.jpg	MediumShort_e22_cut1_stereo_44KHz.wav
3	131	3	4	2	I	1	0	784	1	poli_8sides 7_whiteLine3.jpg	MediumShort_e16_cut1_stereo_44KHz.wav
3	132	1	1	1	C	2	1	708	1	poli_8sides 15_whiteLine3.jpg	MediumShort_b16_cut3_MS_stereo_44KHz.wav
3	133	3	3	2	I	1	0	653	1	poli_8sides 7_whiteLine3.jpg	MediumShort_e22_cut1_stereo_44KHz.wav
3	134	2	2	1	C	2	1	771	1	poli_8sides 2_whiteLine3.jpg	MediumShort_b10_cut1_MS_stereo_44KHz.wav
3	135	1	2	0	C	1	1	514	1	poli_8sides 15_whiteLine3.jpg	MediumShort_b10_cut1_MS_stereo_44KHz.wav
3	136	4	4	2	I	1	0	961	0	poli_8sides 8_whiteLine3.jpg	MediumShort_e16_cut1_stereo_44KHz.wav
3	137	1	2	0	C	1	1	758	1	poli_8sides 15_whiteLine3.jpg	MediumShort_b10_cut1_MS_stereo_44KHz.wav
3	138	4	3	2	I	1	0	789	1	poli_8sides 8_whiteLine3.jpg	MediumShort_e22_cut1_stereo_44KHz.wav
3	139	2	2	1	C	2	1	585	1	poli_8sides 2_whiteLine3.jpg	MediumShort_b10_cut1_MS_stereo_44KHz.wav
3	140	3	3	2	I	1	0	714	1	poli_8sides 7_whiteLine3.jpg	MediumShort_e22_cut1_stereo_44KHz.wav
3	141	4	4	2	I	1	0	1034	1	poli_8sides 8_whiteLine3.jpg	MediumShort_e16_cut1_stereo_44KHz.wav
3	142	1	1	1	C	2	1	719	1	poli_8sides 15_whiteLine3.jpg	MediumShort_b16_cut3_MS_stereo_44KHz.wav
3	143	3	4	2	I	1	0	825	0	poli_8sides 7_whiteLine3.jpg	MediumShort_e16_cut1_stereo_44KHz.wav
3	144	2	1	0	C	1	1	700	1	poli_8sides 2_whiteLine3.jpg	MediumShort_b16_cut3_MS_stereo_44KHz.wav
3	145	1	2	0	C	1	1	478	1	poli_8sides 15_whiteLine3.jpg	MediumShort_b10_cut1_MS_stereo_44KHz.wav
3	146	3	3	2	I	1	0	680	0	poli_8sides 7_whiteLine3.jpg	MediumShort_e22_cut1_stereo_44KHz.wav
3	147	4	4	2	I	1	0	886	1	poli_8sides 8_whiteLine3.jpg	MediumShort_e16_cut1_stereo_44KHz.wav
3	148	2	2	1	C	2	1	684	1	poli_8sides 2_whiteLine3.jpg	MediumShort_b10_cut1_MS_stereo_44KHz.wav
3	149	4	3	2	I	1	0	704	1	poli_8sides 8_whiteLine3.jpg	MediumShort_e22_cut1_stereo_44KHz.wav
3	150	1	1	1	C	2	1	615	1	poli_8sides 15_whiteLine3.jpg	MediumShort_b16_cut3_MS_stereo_44KHz.wav
3	151	2	1	0	C	1	1	735	1	poli_8sides 2_whiteLine3.jpg	MediumShort_b16_cut3_MS_stereo_44KHz.wav
3	152	3	4	2	I	1	0	840	1	poli_8sides 7_whiteLine3.jpg	MediumShort_e16_cut1_stereo_44KHz.wav
3	153	1	1	1	C	2	1	644	1	poli_8sides 15_whiteLine3.jpg	MediumShort_b16_cut3_MS_stereo_44KHz.wav
3	154	3	4	2	I	2	0	667	0	poli_8sides 7_whiteLine3.jpg	MediumShort_e16_cut1_stereo_44KHz.wav
3	155	2	1	0	C	1	1	645	1	poli_8sides 2_whiteLine3.jpg	MediumShort_b16_cut3_MS_stereo_44KHz.wav
3	156	4	3	2	I	1	0	723	0	poli_8sides 8_whiteLine3.jpg	MediumShort_e22_cut1_stereo_44KHz.wav
3	157	2	2	1	C	2	1	696	1	poli_8sides 2_whiteLine3.jpg	MediumShort_b10_cut1_MS_stereo_44KHz.wav
3	158	1	2	0	C	1	1	523	1	poli_8sides 15_whiteLine3.jpg	MediumShort_b10_cut1_MS_stereo_44KHz.wav
3	159	3	3	2	I	2	0	761	0	poli_8sides 7_whiteLine3.jpg	MediumShort_e22_cut1_stereo_44KHz.wav
3	160	4	4	2	I	1	0	566	1	poli_8sides 8_whiteLine3.jpg	MediumShort_e16_cut1_stereo_44KHz.wav
3	161	3	3	2	I	1	0	581	0	poli_8sides 7_whiteLine3.jpg	MediumShort_e22_cut1_stereo_44KHz.wav
3	162	4	3	2	I	1	0	794	0	poli_8sides 8_whiteLine3.jpg	MediumShort_e22_cut1_stereo_44KHz.wav
3	163	1	1	1	C	2	1	730	1	poli_8sides 15_whiteLine3.jpg	MediumShort_b16_cut3_MS_stereo_44KHz.wav
3	164	2	1	0	C	1	1	564	1	poli_8sides 2_whiteLine3.jpg	MediumShort_b16_cut3_MS_stereo_44KHz.wav
3	165	1	2	0	C	1	1	663	1	poli_8sides 15_whiteLine3.jpg	MediumShort_b10_cut1_MS_stereo_44KHz.wav
3	166	2	2	1	C	2	1	731	1	poli_8sides 2_whiteLine3.jpg	MediumShort_b10_cut1_MS_stereo_44KHz.wav
3	167	3	4	2	I	1	0	620	0	poli_8sides 7_whiteLine3.jpg	MediumShort_e16_cut1_stereo_44KHz.wav
3	168	4	4	2	I	1	0	504	0	poli_8sides 8_whiteLine3.jpg	MediumShort_e16_cut1_stereo_44KHz.wav
3	169	1	1	1	C	2	1	909	1	poli_8sides 15_whiteLine3.jpg	MediumShort_b16_cut3_MS_stereo_44KHz.wav
3	170	3	4	2	I	1	0	695	1	poli_8sides 7_whiteLine3.jpg	MediumShort_e16_cut1_stereo_44KHz.wav
3	171	4	4	2	I	2	0	915	1	poli_8sides 8_whiteLine3.jpg	MediumShort_e16_cut1_stereo_44KHz.wav
3	172	2	1	0	C	1	1	632	1	poli_8sides 2_whiteLine3.jpg	MediumShort_b16_cut3_MS_stereo_44KHz.wav
3	173	3	3	2	I	1	0	666	1	poli_8sides 7_whiteLine3.jpg	MediumShort_e22_cut1_stereo_44KHz.wav
3	174	2	2	1	C	2	1	810	1	poli_8sides 2_whiteLine3.jpg	MediumShort_b10_cut1_MS_stereo_44KHz.wav
3	175	4	3	2	I	1	0	714	1	poli_8sides 8_whiteLine3.jpg	MediumShort_e22_cut1_stereo_44KHz.wav
3	176	1	2	0	C	2	0	655	0	poli_8sides 15_whiteLine3.jpg	MediumShort_b10_cut1_MS_stereo_44KHz.wav
3	177	3	3	2	I	1	0	747	0	poli_8sides 7_whiteLine3.jpg	MediumShort_e22_cut1_stereo_44KHz.wav
3	178	4	4	2	I	1	0	748	1	poli_8sides 8_whiteLine3.jpg	MediumShort_e16_cut1_stereo_44KHz.wav
3	179	1	1	1	C	2	1	871	1	poli_8sides 15_whiteLine3.jpg	MediumShort_b16_cut3_MS_stereo_44KHz.wav
3	180	2	2	1	C	2	1	638	1	poli_8sides 2_whiteLine3.jpg	MediumShort_b10_cut1_MS_stereo_44KHz.wav
3	181	3	4	2	I	1	0	731	1	poli_8sides 7_whiteLine3.jpg	MediumShort_e16_cut1_stereo_44KHz.wav
3	182	4	3	2	I	1	0	670	1	poli_8sides 8_whiteLine3.jpg	MediumShort_e22_cut1_stereo_44KHz.wav
3	183	2	1	0	C	1	1	746	1	poli_8sides 2_whiteLine3.jpg	MediumShort_b16_cut3_MS_stereo_44KHz.wav
3	184	1	2	0	C	1	1	530	1	poli_8sides 15_whiteLine3.jpg	MediumShort_b10_cut1_MS_stereo_44KHz.wav
3	185	2	1	0	C	1	1	734	1	poli_8sides 2_whiteLine3.jpg	MediumShort_b16_cut3_MS_stereo_44KHz.wav
3	186	3	4	2	I	1	0	574	0	poli_8sides 7_whiteLine3.jpg	MediumShort_e16_cut1_stereo_44KHz.wav
3	187	4	3	2	I	1	0	776	1	poli_8sides 8_whiteLine3.jpg	MediumShort_e22_cut1_stereo_44KHz.wav
3	188	1	1	1	C	2	1	706	1	poli_8sides 15_whiteLine3.jpg	MediumShort_b16_cut3_MS_stereo_44KHz.wav
3	189	2	2	1	C	2	1	832	1	poli_8sides 2_whiteLine3.jpg	MediumShort_b10_cut1_MS_stereo_44KHz.wav
3	190	1	2	0	C	1	1	879	1	poli_8sides 15_whiteLine3.jpg	MediumShort_b10_cut1_MS_stereo_44KHz.wav
3	191	3	3	2	I	1	0	657	1	poli_8sides 7_whiteLine3.jpg	MediumShort_e22_cut1_stereo_44KHz.wav
3	192	4	4	2	I	1	0	655	0	poli_8sides 8_whiteLine3.jpg	MediumShort_e16_cut1_stereo_44KHz.wav
3	193	2	2	1	C	2	1	632	1	poli_8sides 2_whiteLine3.jpg	MediumShort_b10_cut1_MS_stereo_44KHz.wav
3	194	3	3	2	I	1	0	645	0	poli_8sides 7_whiteLine3.jpg	MediumShort_e22_cut1_stereo_44KHz.wav
3	195	1	2	0	C	1	1	907	1	poli_8sides 15_whiteLine3.jpg	MediumShort_b10_cut1_MS_stereo_44KHz.wav
3	196	4	4	2	I	1	0	616	0	poli_8sides 8_whiteLine3.jpg	MediumShort_e16_cut1_stereo_44KHz.wav
3	197	1	1	1	C	2	1	740	1	poli_8sides 15_whiteLine3.jpg	MediumShort_b16_cut3_MS_stereo_44KHz.wav
3	198	3	4	2	I	1	0	646	1	poli_8sides 7_whiteLine3.jpg	MediumShort_e16_cut1_stereo_44KHz.wav
3	199	2	1	0	C	2	0	616	0	poli_8sides 2_whiteLine3.jpg	MediumShort_b16_cut3_MS_stereo_44KHz.wav
3	200	4	3	2	I	1	0	713	0	poli_8sides 8_whiteLine3.jpg	MediumShort_e22_cut1_stereo_44KHz.wav
4	1	4	3	2	I	1	0	928	0	poli_8sides 6_whiteLine3.jpg	Medium_e13_stereo_44KHz.wav
4	2	2	1	0	C	1	1	748	1	poli_8sides 4_whiteLine3.jpg	MediumLong_e17_cut2_stereo_44KHz.wav
4	3	3	4	2	I	2	0	944	0	poli_8sides 9_whiteLine3.jpg	MediumLong_e19_stereo_44KHz.wav
4	4	1	2	0	C	1	1	754	1	poli_8sides 5_whiteLine3.jpg	Medium_e01_cut1_stereo_44KHz.wav
4	5	2	2	1	C	2	1	730	1	poli_8sides 4_whiteLine3.jpg	Medium_e01_cut1_stereo_44KHz.wav
4	6	4	4	2	I	1	0	816	0	poli_8sides 6_whiteLine3.jpg	MediumLong_e19_stereo_44KHz.wav
4	7	3	3	2	I	1	0	740	0	poli_8sides 9_whiteLine3.jpg	Medium_e13_stereo_44KHz.wav
4	8	1	1	1	C	2	1	823	1	poli_8sides 5_whiteLine3.jpg	MediumLong_e17_cut2_stereo_44KHz.wav
4	9	2	2	1	C	1	0	764	0	poli_8sides 4_whiteLine3.jpg	Medium_e01_cut1_stereo_44KHz.wav
4	10	4	3	2	I	2	0	834	0	poli_8sides 6_whiteLine3.jpg	Medium_e13_stereo_44KHz.wav
4	11	1	1	1	C	2	1	921	1	poli_8sides 5_whiteLine3.jpg	MediumLong_e17_cut2_stereo_44KHz.wav
4	12	3	3	2	I	2	0	819	1	poli_8sides 9_whiteLine3.jpg	Medium_e13_stereo_44KHz.wav
4	13	1	2	0	C	1	1	725	1	poli_8sides 5_whiteLine3.jpg	Medium_e01_cut1_stereo_44KHz.wav
4	14	4	4	2	I	2	0	715	0	poli_8sides 6_whiteLine3.jpg	MediumLong_e19_stereo_44KHz.wav
4	15	2	1	0	C	1	1	956	1	poli_8sides 4_whiteLine3.jpg	MediumLong_e17_cut2_stereo_44KHz.wav
4	16	3	4	2	I	2	0	689	1	poli_8sides 9_whiteLine3.jpg	MediumLong_e19_stereo_44KHz.wav
4	17	1	1	1	C	2	1	820	1	poli_8sides 5_whiteLine3.jpg	MediumLong_e17_cut2_stereo_44KHz.wav
4	18	2	1	0	C	1	1	893	1	poli_8sides 4_whiteLine3.jpg	MediumLong_e17_cut2_stereo_44KHz.wav
4	19	3	3	2	I	2	0	652	0	poli_8sides 9_whiteLine3.jpg	Medium_e13_stereo_44KHz.wav
4	20	4	4	2	I	2	0	1108	1	poli_8sides 6_whiteLine3.jpg	MediumLong_e19_stereo_44KHz.wav
4	21	3	4	2	I	2	0	1003	1	poli_8sides 9_whiteLine3.jpg	MediumLong_e19_stereo_44KHz.wav
4	22	4	3	2	I	2	0	907	0	poli_8sides 6_whiteLine3.jpg	Medium_e13_stereo_44KHz.wav
4	23	1	2	0	C	1	1	728	1	poli_8sides 5_whiteLine3.jpg	Medium_e01_cut1_stereo_44KHz.wav
4	24	2	2	1	C	2	1	664	1	poli_8sides 4_whiteLine3.jpg	Medium_e01_cut1_stereo_44KHz.wav
4	25	4	4	2	I	1	0	649	0	poli_8sides 6_whiteLine3.jpg	MediumLong_e19_stereo_44KHz.wav
4	26	3	3	2	I	2	0	612	1	poli_8sides 9_whiteLine3.jpg	Medium_e13_stereo_44KHz.wav
4	27	1	1	1	C	2	1	803	1	poli_8sides 5_whiteLine3.jpg	MediumLong_e17_cut2_stereo_44KHz.wav
4	28	2	1	0	C	1	1	765	1	poli_8sides 4_whiteLine3.jpg	MediumLong_e17_cut2_stereo_44KHz.wav
4	29	4	3	2	I	2	0	621	1	poli_8sides 6_whiteLine3.jpg	Medium_e13_stereo_44KHz.wav
4	30	3	4	2	I	1	0	787	0	poli_8sides 9_whiteLine3.jpg	MediumLong_e19_stereo_44KHz.wav
4	31	2	2	1	C	2	1	743	1	poli_8sides 4_whiteLine3.jpg	Medium_e01_cut1_stereo_44KHz.wav
4	32	1	2	0	C	1	1	701	1	poli_8sides 5_whiteLine3.jpg	Medium_e01_cut1_stereo_44KHz.wav
4	33	3	4	2	I	1	0	731	1	poli_8sides 9_whiteLine3.jpg	MediumLong_e19_stereo_44KHz.wav
4	34	1	1	1	C	2	1	717	1	poli_8sides 5_whiteLine3.jpg	MediumLong_e17_cut2_stereo_44KHz.wav
4	35	2	1	0	C	1	1	722	1	poli_8sides 4_whiteLine3.jpg	MediumLong_e17_cut2_stereo_44KHz.wav
4	36	4	3	2	I	1	0	849	0	poli_8sides 6_whiteLine3.jpg	Medium_e13_stereo_44KHz.wav
4	37	2	2	1	C	2	1	858	1	poli_8sides 4_whiteLine3.jpg	Medium_e01_cut1_stereo_44KHz.wav
4	38	4	4	2	I	1	0	808	0	poli_8sides 6_whiteLine3.jpg	MediumLong_e19_stereo_44KHz.wav
4	39	1	2	0	C	2	0	570	0	poli_8sides 5_whiteLine3.jpg	Medium_e01_cut1_stereo_44KHz.wav
4	40	3	3	2	I	1	0	725	0	poli_8sides 9_whiteLine3.jpg	Medium_e13_stereo_44KHz.wav
4	41	1	1	1	C	2	1	744	1	poli_8sides 5_whiteLine3.jpg	MediumLong_e17_cut2_stereo_44KHz.wav
4	42	2	1	0	C	1	1	725	1	poli_8sides 4_whiteLine3.jpg	MediumLong_e17_cut2_stereo_44KHz.wav
4	43	3	4	2	I	1	0	857	0	poli_8sides 9_whiteLine3.jpg	MediumLong_e19_stereo_44KHz.wav
4	44	4	4	2	I	1	0	799	1	poli_8sides 6_whiteLine3.jpg	MediumLong_e19_stereo_44KHz.wav
4	45	3	3	2	I	2	0	574	0	poli_8sides 9_whiteLine3.jpg	Medium_e13_stereo_44KHz.wav
4	46	2	2	1	C	2	1	987	1	poli_8sides 4_whiteLine3.jpg	Medium_e01_cut1_stereo_44KHz.wav
4	47	4	3	2	I	1	0	656	1	poli_8sides 6_whiteLine3.jpg	Medium_e13_stereo_44KHz.wav
4	48	1	2	0	C	1	1	861	1	poli_8sides 5_whiteLine3.jpg	Medium_e01_cut1_stereo_44KHz.wav
4	49	2	2	1	C	2	1	924	1	poli_8sides 4_whiteLine3.jpg	Medium_e01_cut1_stereo_44KHz.wav
4	50	1	2	0	C	1	1	673	1	poli_8sides 5_whiteLine3.jpg	Medium_e01_cut1_stereo_44KHz.wav
4	51	3	4	2	I	2	0	736	0	poli_8sides 9_whiteLine3.jpg	MediumLong_e19_stereo_44KHz.wav
4	52	4	3	2	I	1	0	766	0	poli_8sides 6_whiteLine3.jpg	Medium_e13_stereo_44KHz.wav
4	53	1	1	1	C	2	1	713	1	poli_8sides 5_whiteLine3.jpg	MediumLong_e17_cut2_stereo_44KHz.wav
4	54	3	3	2	I	1	0	708	1	poli_8sides 9_whiteLine3.jpg	Medium_e13_stereo_44KHz.wav
4	55	2	1	0	C	1	1	840	1	poli_8sides 4_whiteLine3.jpg	MediumLong_e17_cut2_stereo_44KHz.wav
4	56	4	4	2	I	1	0	653	0	poli_8sides 6_whiteLine3.jpg	MediumLong_e19_stereo_44KHz.wav
4	57	2	2	1	C	2	1	710	1	poli_8sides 4_whiteLine3.jpg	Medium_e01_cut1_stereo_44KHz.wav
4	58	3	3	2	I	1	0	953	0	poli_8sides 9_whiteLine3.jpg	Medium_e13_stereo_44KHz.wav
4	59	1	1	1	C	2	1	671	1	poli_8sides 5_whiteLine3.jpg	MediumLong_e17_cut2_stereo_44KHz.wav
4	60	4	4	2	I	1	0	645	0	poli_8sides 6_whiteLine3.jpg	MediumLong_e19_stereo_44KHz.wav
4	61	1	2	0	C	1	1	730	1	poli_8sides 5_whiteLine3.jpg	Medium_e01_cut1_stereo_44KHz.wav
4	62	3	4	2	I	2	0	649	1	poli_8sides 9_whiteLine3.jpg	MediumLong_e19_stereo_44KHz.wav
4	63	4	3	2	I	1	0	576	1	poli_8sides 6_whiteLine3.jpg	Medium_e13_stereo_44KHz.wav
4	64	2	1	0	C	1	1	637	1	poli_8sides 4_whiteLine3.jpg	MediumLong_e17_cut2_stereo_44KHz.wav
4	65	3	3	2	I	1	0	683	0	poli_8sides 9_whiteLine3.jpg	Medium_e13_stereo_44KHz.wav
4	66	4	3	2	I	1	0	592	0	poli_8sides 6_whiteLine3.jpg	Medium_e13_stereo_44KHz.wav
4	67	1	2	0	C	1	1	558	1	poli_8sides 5_whiteLine3.jpg	Medium_e01_cut1_stereo_44KHz.wav
4	68	2	2	1	C	2	1	548	1	poli_8sides 4_whiteLine3.jpg	Medium_e01_cut1_stereo_44KHz.wav
4	69	1	1	1	C	2	1	609	1	poli_8sides 5_whiteLine3.jpg	MediumLong_e17_cut2_stereo_44KHz.wav
4	70	4	4	2	I	1	0	728	1	poli_8sides 6_whiteLine3.jpg	MediumLong_e19_stereo_44KHz.wav
4	71	2	1	0	C	2	0	620	0	poli_8sides 4_whiteLine3.jpg	MediumLong_e17_cut2_stereo_44KHz.wav
4	72	3	4	2	I	2	0	842	1	poli_8sides 9_whiteLine3.jpg	MediumLong_e19_stereo_44KHz.wav
4	73	2	1	0	C	1	1	688	1	poli_8sides 4_whiteLine3.jpg	MediumLong_e17_cut2_stereo_44KHz.wav
4	74	3	3	2	I	1	0	748	0	poli_8sides 9_whiteLine3.jpg	Medium_e13_stereo_44KHz.wav
4	75	1	2	0	C	1	1	748	1	poli_8sides 5_whiteLine3.jpg	Medium_e01_cut1_stereo_44KHz.wav
4	76	4	4	2	I	1	0	768	0	poli_8sides 6_whiteLine3.jpg	MediumLong_e19_stereo_44KHz.wav
4	77	1	1	1	C	2	1	659	1	poli_8sides 5_whiteLine3.jpg	MediumLong_e17_cut2_stereo_44KHz.wav
4	78	4	3	2	I	1	0	663	0	poli_8sides 6_whiteLine3.jpg	Medium_e13_stereo_44KHz.wav
4	79	3	4	2	I	2	0	701	0	poli_8sides 9_whiteLine3.jpg	MediumLong_e19_stereo_44KHz.wav
4	80	2	2	1	C	1	0	727	0	poli_8sides 4_whiteLine3.jpg	Medium_e01_cut1_stereo_44KHz.wav
4	81	3	3	2	I	1	0	742	1	poli_8sides 9_whiteLine3.jpg	Medium_e13_stereo_44KHz.wav
4	82	4	4	2	I	2	0	598	1	poli_8sides 6_whiteLine3.jpg	MediumLong_e19_stereo_44KHz.wav
4	83	1	1	1	C	1	0	636	0	poli_8sides 5_whiteLine3.jpg	MediumLong_e17_cut2_stereo_44KHz.wav
4	84	2	1	0	C	1	1	591	1	poli_8sides 4_whiteLine3.jpg	MediumLong_e17_cut2_stereo_44KHz.wav
4	85	4	3	2	I	2	0	769	1	poli_8sides 6_whiteLine3.jpg	Medium_e13_stereo_44KHz.wav
4	86	3	4	2	I	2	0	627	0	poli_8sides 9_whiteLine3.jpg	MediumLong_e19_stereo_44KHz.wav
4	87	2	2	1	C	2	1	684	1	poli_8sides 4_whiteLine3.jpg	Medium_e01_cut1_stereo_44KHz.wav
4	88	1	2	0	C	1	1	496	1	poli_8sides 5_whiteLine3.jpg	Medium_e01_cut1_stereo_44KHz.wav
4	89	3	3	2	I	2	0	637	0	poli_8sides 9_whiteLine3.jpg	Medium_e13_stereo_44KHz.wav
4	90	1	1	1	C	1	0	536	0	poli_8sides 5_whiteLine3.jpg	MediumLong_e17_cut2_stereo_44KHz.wav
4	91	2	2	1	C	2	1	917	1	poli_8sides 4_whiteLine3.jpg	Medium_e01_cut1_stereo_44KHz.wav
4	92	4	4	2	I	1	0	646	1	poli_8sides 6_whiteLine3.jpg	MediumLong_e19_stereo_44KHz.wav
4	93	3	4	2	I	1	0	762	1	poli_8sides 9_whiteLine3.jpg	MediumLong_e19_stereo_44KHz.wav
4	94	4	3	2	I	1	0	686	1	poli_8sides 6_whiteLine3.jpg	Medium_e13_stereo_44KHz.wav
4	95	2	1	0	C	1	1	611	1	poli_8sides 4_whiteLine3.jpg	MediumLong_e17_cut2_stereo_44KHz.wav
4	96	1	2	0	C	1	1	488	1	poli_8sides 5_whiteLine3.jpg	Medium_e01_cut1_stereo_44KHz.wav
4	97	4	4	2	I	2	0	873	0	poli_8sides 6_whiteLine3.jpg	MediumLong_e19_stereo_44KHz.wav
4	98	1	1	1	C	2	1	671	1	poli_8sides 5_whiteLine3.jpg	MediumLong_e17_cut2_stereo_44KHz.wav
4	99	2	2	1	C	2	1	683	1	poli_8sides 4_whiteLine3.jpg	Medium_e01_cut1_stereo_44KHz.wav
4	100	3	3	2	I	1	0	658	0	poli_8sides 9_whiteLine3.jpg	Medium_e13_stereo_44KHz.wav
4	101	4	3	2	I	2	0	631	1	poli_8sides 6_whiteLine3.jpg	Medium_e13_stereo_44KHz.wav
4	102	1	2	0	C	1	1	595	1	poli_8sides 5_whiteLine3.jpg	Medium_e01_cut1_stereo_44KHz.wav
4	103	2	1	0	C	1	1	889	1	poli_8sides 4_whiteLine3.jpg	MediumLong_e17_cut2_stereo_44KHz.wav
4	104	3	4	2	I	2	0	589	1	poli_8sides 9_whiteLine3.jpg	MediumLong_e19_stereo_44KHz.wav
4	105	4	4	2	I	1	0	531	1	poli_8sides 6_whiteLine3.jpg	MediumLong_e19_stereo_44KHz.wav
4	106	1	2	0	C	1	1	578	1	poli_8sides 5_whiteLine3.jpg	Medium_e01_cut1_stereo_44KHz.wav
4	107	2	1	0	C	1	1	695	1	poli_8sides 4_whiteLine3.jpg	MediumLong_e17_cut2_stereo_44KHz.wav
4	108	3	4	2	I	1	0	597	1	poli_8sides 9_whiteLine3.jpg	MediumLong_e19_stereo_44KHz.wav
4	109	1	1	1	C	2	1	879	1	poli_8sides 5_whiteLine3.jpg	MediumLong_e17_cut2_stereo_44KHz.wav
4	110	3	3	2	I	1	0	578	0	poli_8sides 9_whiteLine3.jpg	Medium_e13_stereo_44KHz.wav
4	111	2	2	1	C	2	1	822	1	poli_8sides 4_whiteLine3.jpg	Medium_e01_cut1_stereo_44KHz.wav
4	112	4	3	2	I	1	0	666	1	poli_8sides 6_whiteLine3.jpg	Medium_e13_stereo_44KHz.wav
4	113	1	1	1	C	2	1	669	1	poli_8sides 5_whiteLine3.jpg	MediumLong_e17_cut2_stereo_44KHz.wav
4	114	2	2	1	C	2	1	637	1	poli_8sides 4_whiteLine3.jpg	Medium_e01_cut1_stereo_44KHz.wav
4	115	4	3	2	I	1	0	852	1	poli_8sides 6_whiteLine3.jpg	Medium_e13_stereo_44KHz.wav
4	116	3	4	2	I	1	0	509	1	poli_8sides 9_whiteLine3.jpg	MediumLong_e19_stereo_44KHz.wav
4	117	1	2	0	C	1	1	343	1	poli_8sides 5_whiteLine3.jpg	Medium_e01_cut1_stereo_44KHz.wav
4	118	3	3	2	I	1	0	610	0	poli_8sides 9_whiteLine3.jpg	Medium_e13_stereo_44KHz.wav
4	119	2	1	0	C	1	1	713	1	poli_8sides 4_whiteLine3.jpg	MediumLong_e17_cut2_stereo_44KHz.wav
4	120	4	4	2	I	2	0	698	1	poli_8sides 6_whiteLine3.jpg	MediumLong_e19_stereo_44KHz.wav
4	121	3	4	2	I	1	0	750	1	poli_8sides 9_whiteLine3.jpg	MediumLong_e19_stereo_44KHz.wav
4	122	1	1	1	C	2	1	683	1	poli_8sides 5_whiteLine3.jpg	MediumLong_e17_cut2_stereo_44KHz.wav
4	123	4	4	2	I	1	0	684	1	poli_8sides 6_whiteLine3.jpg	MediumLong_e19_stereo_44KHz.wav
4	124	2	1	0	C	1	1	505	1	poli_8sides 4_whiteLine3.jpg	MediumLong_e17_cut2_stereo_44KHz.wav
4	125	4	3	2	I	1	0	677	1	poli_8sides 6_whiteLine3.jpg	Medium_e13_stereo_44KHz.wav
4	126	2	2	1	C	2	1	625	1	poli_8sides 4_whiteLine3.jpg	Medium_e01_cut1_stereo_44KHz.wav
4	127	1	2	0	C	1	1	579	1	poli_8sides 5_whiteLine3.jpg	Medium_e01_cut1_stereo_44KHz.wav
4	128	3	3	2	I	1	0	585	0	poli_8sides 9_whiteLine3.jpg	Medium_e13_stereo_44KHz.wav
4	129	4	3	2	I	1	0	541	0	poli_8sides 6_whiteLine3.jpg	Medium_e13_stereo_44KHz.wav
4	130	2	2	1	C	2	1	434	1	poli_8sides 4_whiteLine3.jpg	Medium_e01_cut1_stereo_44KHz.wav
4	131	3	3	2	I	1	0	642	1	poli_8sides 9_whiteLine3.jpg	Medium_e13_stereo_44KHz.wav
4	132	1	2	0	C	1	1	782	1	poli_8sides 5_whiteLine3.jpg	Medium_e01_cut1_stereo_44KHz.wav
4	133	4	4	2	I	2	0	697	1	poli_8sides 6_whiteLine3.jpg	MediumLong_e19_stereo_44KHz.wav
4	134	2	1	0	C	1	1	662	1	poli_8sides 4_whiteLine3.jpg	MediumLong_e17_cut2_stereo_44KHz.wav
4	135	3	4	2	I	1	0	674	1	poli_8sides 9_whiteLine3.jpg	MediumLong_e19_stereo_44KHz.wav
4	136	1	1	1	C	1	0	627	0	poli_8sides 5_whiteLine3.jpg	MediumLong_e17_cut2_stereo_44KHz.wav
4	137	4	4	2	I	1	0	687	0	poli_8sides 6_whiteLine3.jpg	MediumLong_e19_stereo_44KHz.wav
4	138	2	2	1	C	2	1	694	1	poli_8sides 4_whiteLine3.jpg	Medium_e01_cut1_stereo_44KHz.wav
4	139	3	4	2	I	1	0	530	0	poli_8sides 9_whiteLine3.jpg	MediumLong_e19_stereo_44KHz.wav
4	140	1	1	1	C	2	1	653	1	poli_8sides 5_whiteLine3.jpg	MediumLong_e17_cut2_stereo_44KHz.wav
4	141	4	3	2	I	1	0	588	0	poli_8sides 6_whiteLine3.jpg	Medium_e13_stereo_44KHz.wav
4	142	1	2	0	C	1	1	482	1	poli_8sides 5_whiteLine3.jpg	Medium_e01_cut1_stereo_44KHz.wav
4	143	3	3	2	I	1	0	515	0	poli_8sides 9_whiteLine3.jpg	Medium_e13_stereo_44KHz.wav
4	144	2	1	0	C	1	1	957	1	poli_8sides 4_whiteLine3.jpg	MediumLong_e17_cut2_stereo_44KHz.wav
4	145	4	3	2	I	1	0	544	1	poli_8sides 6_whiteLine3.jpg	Medium_e13_stereo_44KHz.wav
4	146	2	2	1	C	2	1	877	1	poli_8sides 4_whiteLine3.jpg	Medium_e01_cut1_stereo_44KHz.wav
4	147	3	3	2	I	1	0	604	1	poli_8sides 9_whiteLine3.jpg	Medium_e13_stereo_44KHz.wav
4	148	1	2	0	C	1	1	501	1	poli_8sides 5_whiteLine3.jpg	Medium_e01_cut1_stereo_44KHz.wav
4	149	4	4	2	I	1	0	517	0	poli_8sides 6_whiteLine3.jpg	MediumLong_e19_stereo_44KHz.wav
4	150	2	1	0	C	1	1	773	1	poli_8sides 4_whiteLine3.jpg	MediumLong_e17_cut2_stereo_44KHz.wav
4	151	3	4	2	I	1	0	589	1	poli_8sides 9_whiteLine3.jpg	MediumLong_e19_stereo_44KHz.wav
4	152	1	1	1	C	2	1	685	1	poli_8sides 5_whiteLine3.jpg	MediumLong_e17_cut2_stereo_44KHz.wav
4	153	2	1	0	C	1	1	544	1	poli_8sides 4_whiteLine3.jpg	MediumLong_e17_cut2_stereo_44KHz.wav
4	154	4	3	2	I	1	0	612	1	poli_8sides 6_whiteLine3.jpg	Medium_e13_stereo_44KHz.wav
4	155	1	2	0	C	1	1	750	1	poli_8sides 5_whiteLine3.jpg	Medium_e01_cut1_stereo_44KHz.wav
4	156	3	4	2	I	2	0	732	1	poli_8sides 9_whiteLine3.jpg	MediumLong_e19_stereo_44KHz.wav
4	157	4	4	2	I	1	0	722	0	poli_8sides 6_whiteLine3.jpg	MediumLong_e19_stereo_44KHz.wav
4	158	2	2	1	C	1	0	577	0	poli_8sides 4_whiteLine3.jpg	Medium_e01_cut1_stereo_44KHz.wav
4	159	1	1	1	C	2	1	741	1	poli_8sides 5_whiteLine3.jpg	MediumLong_e17_cut2_stereo_44KHz.wav
4	160	3	3	2	I	1	0	674	0	poli_8sides 9_whiteLine3.jpg	Medium_e13_stereo_44KHz.wav
4	161	4	4	2	I	1	0	532	0	poli_8sides 6_whiteLine3.jpg	MediumLong_e19_stereo_44KHz.wav
4	162	3	3	2	I	1	0	571	0	poli_8sides 9_whiteLine3.jpg	Medium_e13_stereo_44KHz.wav
4	163	2	2	1	C	2	1	727	1	poli_8sides 4_whiteLine3.jpg	Medium_e01_cut1_stereo_44KHz.wav
4	164	1	2	0	C	1	1	664	1	poli_8sides 5_whiteLine3.jpg	Medium_e01_cut1_stereo_44KHz.wav
4	165	3	4	2	I	1	0	496	1	poli_8sides 9_whiteLine3.jpg	MediumLong_e19_stereo_44KHz.wav
4	166	2	1	0	C	2	0	694	0	poli_8sides 4_whiteLine3.jpg	MediumLong_e17_cut2_stereo_44KHz.wav
4	167	1	1	1	C	0	0	0	0	poli_8sides 5_whiteLine3.jpg	MediumLong_e17_cut2_stereo_44KHz.wav
4	168	4	3	2	I	0	0	0	0	poli_8sides 6_whiteLine3.jpg	Medium_e13_stereo_44KHz.wav
4	169	3	4	2	I	1	0	470	1	poli_8sides 9_whiteLine3.jpg	MediumLong_e19_stereo_44KHz.wav
4	170	2	2	1	C	2	1	629	1	poli_8sides 4_whiteLine3.jpg	Medium_e01_cut1_stereo_44KHz.wav
4	171	4	4	2	I	1	0	416	0	poli_8sides 6_whiteLine3.jpg	MediumLong_e19_stereo_44KHz.wav
4	172	1	2	0	C	1	1	376	1	poli_8sides 5_whiteLine3.jpg	Medium_e01_cut1_stereo_44KHz.wav
4	173	2	1	0	C	1	1	589	1	poli_8sides 4_whiteLine3.jpg	MediumLong_e17_cut2_stereo_44KHz.wav
4	174	4	3	2	I	1	0	324	0	poli_8sides 6_whiteLine3.jpg	Medium_e13_stereo_44KHz.wav
4	175	3	3	2	I	1	0	536	1	poli_8sides 9_whiteLine3.jpg	Medium_e13_stereo_44KHz.wav
4	176	1	1	1	C	1	0	531	0	poli_8sides 5_whiteLine3.jpg	MediumLong_e17_cut2_stereo_44KHz.wav
4	177	2	2	1	C	2	1	606	1	poli_8sides 4_whiteLine3.jpg	Medium_e01_cut1_stereo_44KHz.wav
4	178	1	1	1	C	2	1	689	1	poli_8sides 5_whiteLine3.jpg	MediumLong_e17_cut2_stereo_44KHz.wav
4	179	4	3	2	I	2	0	563	1	poli_8sides 6_whiteLine3.jpg	Medium_e13_stereo_44KHz.wav
4	180	3	4	2	I	2	0	409	0	poli_8sides 9_whiteLine3.jpg	MediumLong_e19_stereo_44KHz.wav
4	181	4	4	2	I	1	0	896	1	poli_8sides 6_whiteLine3.jpg	MediumLong_e19_stereo_44KHz.wav
4	182	3	3	2	I	2	0	576	1	poli_8sides 9_whiteLine3.jpg	Medium_e13_stereo_44KHz.wav
4	183	2	1	0	C	1	1	759	1	poli_8sides 4_whiteLine3.jpg	MediumLong_e17_cut2_stereo_44KHz.wav
4	184	1	2	0	C	1	1	350	1	poli_8sides 5_whiteLine3.jpg	Medium_e01_cut1_stereo_44KHz.wav
4	185	4	4	2	I	1	0	489	1	poli_8sides 6_whiteLine3.jpg	MediumLong_e19_stereo_44KHz.wav
4	186	1	1	1	C	1	0	366	0	poli_8sides 5_whiteLine3.jpg	MediumLong_e17_cut2_stereo_44KHz.wav
4	187	2	2	1	C	1	0	713	0	poli_8sides 4_whiteLine3.jpg	Medium_e01_cut1_stereo_44KHz.wav
4	188	3	4	2	I	1	0	590	0	poli_8sides 9_whiteLine3.jpg	MediumLong_e19_stereo_44KHz.wav
4	189	4	3	2	I	1	0	622	0	poli_8sides 6_whiteLine3.jpg	Medium_e13_stereo_44KHz.wav
4	190	1	2	0	C	1	1	564	1	poli_8sides 5_whiteLine3.jpg	Medium_e01_cut1_stereo_44KHz.wav
4	191	3	3	2	I	2	0	550	0	poli_8sides 9_whiteLine3.jpg	Medium_e13_stereo_44KHz.wav
4	192	2	1	0	C	2	0	713	0	poli_8sides 4_whiteLine3.jpg	MediumLong_e17_cut2_stereo_44KHz.wav
4	193	3	4	2	I	1	0	641	1	poli_8sides 9_whiteLine3.jpg	MediumLong_e19_stereo_44KHz.wav
4	194	1	2	0	C	1	1	477	1	poli_8sides 5_whiteLine3.jpg	Medium_e01_cut1_stereo_44KHz.wav
4	195	4	4	2	I	1	0	608	0	poli_8sides 6_whiteLine3.jpg	MediumLong_e19_stereo_44KHz.wav
4	196	2	2	1	C	2	1	667	1	poli_8sides 4_whiteLine3.jpg	Medium_e01_cut1_stereo_44KHz.wav
4	197	4	3	2	I	1	0	530	1	poli_8sides 6_whiteLine3.jpg	Medium_e13_stereo_44KHz.wav
4	198	3	3	2	I	1	0	501	1	poli_8sides 9_whiteLine3.jpg	Medium_e13_stereo_44KHz.wav
4	199	2	1	0	C	1	1	638	1	poli_8sides 4_whiteLine3.jpg	MediumLong_e17_cut2_stereo_44KHz.wav
4	200	1	1	1	C	2	1	727	1	poli_8sides 5_whiteLine3.jpg	MediumLong_e17_cut2_stereo_44KHz.wav
