block	trial	Vstim	Astim	match	C/I	resp	result	RT	fb	V-file	A-file
RL

0	1	2	4	0	C	0	0	0	0	poli_8sides 22_whiteLine3.jpg	Practice1_b27_cut1_stereo_44KHz.wav
0	2	1	1	1	C	1	1	826	1	poli_8sides 23_whiteLine3.jpg	Practice3_b26_cut1_stereo_44KHz.wav
0	3	2	3	1	C	2	0	889	0	poli_8sides 22_whiteLine3.jpg	Practice2_b27_cut2_stereo_44KHz.wav
0	4	1	2	0	C	1	0	955	0	poli_8sides 23_whiteLine3.jpg	Practice4_b26_stereo_44KHz.wav
0	5	2	4	0	C	2	1	693	1	poli_8sides 22_whiteLine3.jpg	Practice1_b27_cut1_stereo_44KHz.wav
0	6	1	2	0	C	2	1	1336	1	poli_8sides 23_whiteLine3.jpg	Practice4_b26_stereo_44KHz.wav
0	7	1	1	1	C	1	1	870	1	poli_8sides 23_whiteLine3.jpg	Practice3_b26_cut1_stereo_44KHz.wav
0	8	2	3	1	C	2	0	647	0	poli_8sides 22_whiteLine3.jpg	Practice2_b27_cut2_stereo_44KHz.wav
0	9	2	3	1	C	2	0	907	0	poli_8sides 22_whiteLine3.jpg	Practice2_b27_cut2_stereo_44KHz.wav
0	10	1	2	0	C	2	1	829	1	poli_8sides 23_whiteLine3.jpg	Practice4_b26_stereo_44KHz.wav
0	11	2	4	0	C	2	1	783	1	poli_8sides 22_whiteLine3.jpg	Practice1_b27_cut1_stereo_44KHz.wav
0	12	1	1	1	C	2	0	678	0	poli_8sides 23_whiteLine3.jpg	Practice3_b26_cut1_stereo_44KHz.wav
0	13	1	2	0	C	2	1	576	1	poli_8sides 23_whiteLine3.jpg	Practice4_b26_stereo_44KHz.wav
0	14	2	3	1	C	1	1	1313	1	poli_8sides 22_whiteLine3.jpg	Practice2_b27_cut2_stereo_44KHz.wav
0	15	2	4	0	C	2	1	759	1	poli_8sides 22_whiteLine3.jpg	Practice1_b27_cut1_stereo_44KHz.wav
0	16	1	1	1	C	2	0	838	0	poli_8sides 23_whiteLine3.jpg	Practice3_b26_cut1_stereo_44KHz.wav
0	17	2	3	1	C	1	1	992	1	poli_8sides 22_whiteLine3.jpg	Practice2_b27_cut2_stereo_44KHz.wav
0	18	1	1	1	C	2	0	742	0	poli_8sides 23_whiteLine3.jpg	Practice3_b26_cut1_stereo_44KHz.wav
0	19	2	4	0	C	2	1	820	1	poli_8sides 22_whiteLine3.jpg	Practice1_b27_cut1_stereo_44KHz.wav
0	20	1	2	0	C	1	0	858	0	poli_8sides 23_whiteLine3.jpg	Practice4_b26_stereo_44KHz.wav
0	21	1	2	0	C	1	0	1237	0	poli_8sides 23_whiteLine3.jpg	Practice4_b26_stereo_44KHz.wav
0	22	2	3	1	C	1	1	1152	1	poli_8sides 22_whiteLine3.jpg	Practice2_b27_cut2_stereo_44KHz.wav
0	23	2	4	0	C	2	1	1536	1	poli_8sides 22_whiteLine3.jpg	Practice1_b27_cut1_stereo_44KHz.wav
0	24	1	1	1	C	1	1	944	1	poli_8sides 23_whiteLine3.jpg	Practice3_b26_cut1_stereo_44KHz.wav
0	25	2	4	0	C	2	1	933	1	poli_8sides 22_whiteLine3.jpg	Practice1_b27_cut1_stereo_44KHz.wav
0	26	1	2	0	C	1	0	836	0	poli_8sides 23_whiteLine3.jpg	Practice4_b26_stereo_44KHz.wav
0	27	2	3	1	C	1	1	998	1	poli_8sides 22_whiteLine3.jpg	Practice2_b27_cut2_stereo_44KHz.wav
0	28	1	1	1	C	1	1	1246	1	poli_8sides 23_whiteLine3.jpg	Practice3_b26_cut1_stereo_44KHz.wav
0	29	1	2	0	C	1	0	1235	0	poli_8sides 23_whiteLine3.jpg	Practice4_b26_stereo_44KHz.wav
0	30	2	3	1	C	1	1	903	1	poli_8sides 22_whiteLine3.jpg	Practice2_b27_cut2_stereo_44KHz.wav
avg_resp = 973
1	1	4	3	2	I	0	0	0	0	poli_8sides 2_whiteLine3.jpg	MediumLong_e19_stereo_44KHz.wav
1	2	1	2	0	C	2	1	1372	1	poli_8sides 5_whiteLine3.jpg	Medium_e01_cut1_stereo_44KHz.wav
1	3	2	1	0	C	2	1	1232	1	poli_8sides 15_whiteLine3.jpg	MediumLong_b10_cut2_L_stereo_44KHz.wav
1	4	3	3	2	I	1	0	1117	1	poli_8sides 12_whiteLine3.jpg	MediumLong_e19_stereo_44KHz.wav
1	5	1	1	1	C	1	1	1081	1	poli_8sides 5_whiteLine3.jpg	MediumLong_b10_cut2_L_stereo_44KHz.wav
1	6	3	4	2	I	2	0	989	1	poli_8sides 12_whiteLine3.jpg	Medium_e26_stereo_44KHz.wav
1	7	2	2	1	C	2	0	944	0	poli_8sides 15_whiteLine3.jpg	Medium_e01_cut1_stereo_44KHz.wav
1	8	4	4	2	I	1	0	1060	0	poli_8sides 2_whiteLine3.jpg	Medium_e26_stereo_44KHz.wav
1	9	3	4	2	I	2	0	842	0	poli_8sides 12_whiteLine3.jpg	Medium_e26_stereo_44KHz.wav
1	10	2	1	0	C	1	0	1399	0	poli_8sides 15_whiteLine3.jpg	MediumLong_b10_cut2_L_stereo_44KHz.wav
1	11	1	1	1	C	2	0	1494	0	poli_8sides 5_whiteLine3.jpg	MediumLong_b10_cut2_L_stereo_44KHz.wav
1	12	4	4	2	I	1	0	885	0	poli_8sides 2_whiteLine3.jpg	Medium_e26_stereo_44KHz.wav
1	13	1	2	0	C	2	1	1236	1	poli_8sides 5_whiteLine3.jpg	Medium_e01_cut1_stereo_44KHz.wav
1	14	4	3	2	I	1	0	1267	1	poli_8sides 2_whiteLine3.jpg	MediumLong_e19_stereo_44KHz.wav
1	15	2	2	1	C	1	1	1603	1	poli_8sides 15_whiteLine3.jpg	Medium_e01_cut1_stereo_44KHz.wav
1	16	3	3	2	I	1	0	1106	0	poli_8sides 12_whiteLine3.jpg	MediumLong_e19_stereo_44KHz.wav
1	17	2	1	0	C	1	0	1154	0	poli_8sides 15_whiteLine3.jpg	MediumLong_b10_cut2_L_stereo_44KHz.wav
1	18	1	1	1	C	2	0	1005	0	poli_8sides 5_whiteLine3.jpg	MediumLong_b10_cut2_L_stereo_44KHz.wav
1	19	4	3	2	I	2	0	1092	1	poli_8sides 2_whiteLine3.jpg	MediumLong_e19_stereo_44KHz.wav
1	20	3	4	2	I	1	0	1205	0	poli_8sides 12_whiteLine3.jpg	Medium_e26_stereo_44KHz.wav
1	21	4	4	2	I	1	0	1018	0	poli_8sides 2_whiteLine3.jpg	Medium_e26_stereo_44KHz.wav
1	22	3	3	2	I	1	0	996	0	poli_8sides 12_whiteLine3.jpg	MediumLong_e19_stereo_44KHz.wav
1	23	2	2	1	C	1	1	1187	1	poli_8sides 15_whiteLine3.jpg	Medium_e01_cut1_stereo_44KHz.wav
1	24	1	2	0	C	2	1	1041	1	poli_8sides 5_whiteLine3.jpg	Medium_e01_cut1_stereo_44KHz.wav
1	25	2	2	1	C	1	1	1149	1	poli_8sides 15_whiteLine3.jpg	Medium_e01_cut1_stereo_44KHz.wav
1	26	4	3	2	I	2	0	698	1	poli_8sides 2_whiteLine3.jpg	MediumLong_e19_stereo_44KHz.wav
1	27	3	4	2	I	2	0	844	0	poli_8sides 12_whiteLine3.jpg	Medium_e26_stereo_44KHz.wav
1	28	1	2	0	C	2	1	754	1	poli_8sides 5_whiteLine3.jpg	Medium_e01_cut1_stereo_44KHz.wav
1	29	2	1	0	C	2	1	1061	1	poli_8sides 15_whiteLine3.jpg	MediumLong_b10_cut2_L_stereo_44KHz.wav
1	30	3	3	2	I	2	0	1133	1	poli_8sides 12_whiteLine3.jpg	MediumLong_e19_stereo_44KHz.wav
1	31	4	4	2	I	2	0	819	0	poli_8sides 2_whiteLine3.jpg	Medium_e26_stereo_44KHz.wav
1	32	1	1	1	C	2	0	826	0	poli_8sides 5_whiteLine3.jpg	MediumLong_b10_cut2_L_stereo_44KHz.wav
1	33	3	3	2	I	2	0	711	0	poli_8sides 12_whiteLine3.jpg	MediumLong_e19_stereo_44KHz.wav
1	34	2	1	0	C	2	1	1198	1	poli_8sides 15_whiteLine3.jpg	MediumLong_b10_cut2_L_stereo_44KHz.wav
1	35	1	2	0	C	2	1	696	1	poli_8sides 5_whiteLine3.jpg	Medium_e01_cut1_stereo_44KHz.wav
1	36	4	3	2	I	2	0	812	1	poli_8sides 2_whiteLine3.jpg	MediumLong_e19_stereo_44KHz.wav
1	37	2	2	1	C	1	1	1103	1	poli_8sides 15_whiteLine3.jpg	Medium_e01_cut1_stereo_44KHz.wav
1	38	4	4	2	I	2	0	666	1	poli_8sides 2_whiteLine3.jpg	Medium_e26_stereo_44KHz.wav
1	39	1	1	1	C	2	0	714	0	poli_8sides 5_whiteLine3.jpg	MediumLong_b10_cut2_L_stereo_44KHz.wav
1	40	3	4	2	I	2	0	684	1	poli_8sides 12_whiteLine3.jpg	Medium_e26_stereo_44KHz.wav
1	41	2	2	1	C	1	1	1220	1	poli_8sides 15_whiteLine3.jpg	Medium_e01_cut1_stereo_44KHz.wav
1	42	4	3	2	I	2	0	679	0	poli_8sides 2_whiteLine3.jpg	MediumLong_e19_stereo_44KHz.wav
1	43	3	4	2	I	2	0	636	1	poli_8sides 12_whiteLine3.jpg	Medium_e26_stereo_44KHz.wav
1	44	1	1	1	C	2	0	630	0	poli_8sides 5_whiteLine3.jpg	MediumLong_b10_cut2_L_stereo_44KHz.wav
1	45	2	1	0	C	2	1	614	1	poli_8sides 15_whiteLine3.jpg	MediumLong_b10_cut2_L_stereo_44KHz.wav
1	46	4	4	2	I	2	0	708	1	poli_8sides 2_whiteLine3.jpg	Medium_e26_stereo_44KHz.wav
1	47	3	3	2	I	2	0	670	1	poli_8sides 12_whiteLine3.jpg	MediumLong_e19_stereo_44KHz.wav
1	48	1	2	0	C	2	1	647	1	poli_8sides 5_whiteLine3.jpg	Medium_e01_cut1_stereo_44KHz.wav
1	49	2	1	0	C	1	0	1129	0	poli_8sides 15_whiteLine3.jpg	MediumLong_b10_cut2_L_stereo_44KHz.wav
1	50	3	4	2	I	2	0	931	1	poli_8sides 12_whiteLine3.jpg	Medium_e26_stereo_44KHz.wav
1	51	1	1	1	C	2	0	553	0	poli_8sides 5_whiteLine3.jpg	MediumLong_b10_cut2_L_stereo_44KHz.wav
1	52	4	4	2	I	1	0	1389	1	poli_8sides 2_whiteLine3.jpg	Medium_e26_stereo_44KHz.wav
1	53	2	2	1	C	1	1	985	1	poli_8sides 15_whiteLine3.jpg	Medium_e01_cut1_stereo_44KHz.wav
1	54	1	2	0	C	2	1	665	1	poli_8sides 5_whiteLine3.jpg	Medium_e01_cut1_stereo_44KHz.wav
1	55	4	3	2	I	2	0	732	0	poli_8sides 2_whiteLine3.jpg	MediumLong_e19_stereo_44KHz.wav
1	56	3	3	2	I	2	0	741	0	poli_8sides 12_whiteLine3.jpg	MediumLong_e19_stereo_44KHz.wav
1	57	4	3	2	I	1	0	946	1	poli_8sides 2_whiteLine3.jpg	MediumLong_e19_stereo_44KHz.wav
1	58	3	3	2	I	2	0	667	0	poli_8sides 12_whiteLine3.jpg	MediumLong_e19_stereo_44KHz.wav
1	59	1	2	0	C	2	1	550	1	poli_8sides 5_whiteLine3.jpg	Medium_e01_cut1_stereo_44KHz.wav
1	60	2	1	0	C	2	1	613	1	poli_8sides 15_whiteLine3.jpg	MediumLong_b10_cut2_L_stereo_44KHz.wav
1	61	4	4	2	I	2	0	605	0	poli_8sides 2_whiteLine3.jpg	Medium_e26_stereo_44KHz.wav
1	62	2	2	1	C	1	1	1103	1	poli_8sides 15_whiteLine3.jpg	Medium_e01_cut1_stereo_44KHz.wav
1	63	1	1	1	C	2	0	594	0	poli_8sides 5_whiteLine3.jpg	MediumLong_b10_cut2_L_stereo_44KHz.wav
1	64	3	4	2	I	2	0	581	1	poli_8sides 12_whiteLine3.jpg	Medium_e26_stereo_44KHz.wav
1	65	1	1	1	C	2	0	605	0	poli_8sides 5_whiteLine3.jpg	MediumLong_b10_cut2_L_stereo_44KHz.wav
1	66	2	1	0	C	2	1	648	1	poli_8sides 15_whiteLine3.jpg	MediumLong_b10_cut2_L_stereo_44KHz.wav
1	67	3	4	2	I	2	0	681	0	poli_8sides 12_whiteLine3.jpg	Medium_e26_stereo_44KHz.wav
1	68	4	3	2	I	2	0	781	0	poli_8sides 2_whiteLine3.jpg	MediumLong_e19_stereo_44KHz.wav
1	69	2	2	1	C	1	1	834	1	poli_8sides 15_whiteLine3.jpg	Medium_e01_cut1_stereo_44KHz.wav
1	70	4	4	2	I	2	0	720	0	poli_8sides 2_whiteLine3.jpg	Medium_e26_stereo_44KHz.wav
1	71	3	3	2	I	2	0	810	0	poli_8sides 12_whiteLine3.jpg	MediumLong_e19_stereo_44KHz.wav
1	72	1	2	0	C	2	1	1071	1	poli_8sides 5_whiteLine3.jpg	Medium_e01_cut1_stereo_44KHz.wav
1	73	4	4	2	I	2	0	1177	1	poli_8sides 2_whiteLine3.jpg	Medium_e26_stereo_44KHz.wav
1	74	1	2	0	C	2	1	965	1	poli_8sides 5_whiteLine3.jpg	Medium_e01_cut1_stereo_44KHz.wav
1	75	3	4	2	I	2	0	710	1	poli_8sides 12_whiteLine3.jpg	Medium_e26_stereo_44KHz.wav
1	76	2	1	0	C	2	1	1351	1	poli_8sides 15_whiteLine3.jpg	MediumLong_b10_cut2_L_stereo_44KHz.wav
1	77	1	1	1	C	2	0	1698	0	poli_8sides 5_whiteLine3.jpg	MediumLong_b10_cut2_L_stereo_44KHz.wav
1	78	3	3	2	I	2	0	879	1	poli_8sides 12_whiteLine3.jpg	MediumLong_e19_stereo_44KHz.wav
1	79	2	2	1	C	1	1	1100	1	poli_8sides 15_whiteLine3.jpg	Medium_e01_cut1_stereo_44KHz.wav
1	80	4	3	2	I	2	0	645	0	poli_8sides 2_whiteLine3.jpg	MediumLong_e19_stereo_44KHz.wav
1	81	2	1	0	C	1	0	695	0	poli_8sides 15_whiteLine3.jpg	MediumLong_b10_cut2_L_stereo_44KHz.wav
1	82	1	2	0	C	2	1	712	1	poli_8sides 5_whiteLine3.jpg	Medium_e01_cut1_stereo_44KHz.wav
1	83	3	3	2	I	2	0	773	1	poli_8sides 12_whiteLine3.jpg	MediumLong_e19_stereo_44KHz.wav
1	84	4	3	2	I	2	0	637	1	poli_8sides 2_whiteLine3.jpg	MediumLong_e19_stereo_44KHz.wav
1	85	2	2	1	C	1	1	768	1	poli_8sides 15_whiteLine3.jpg	Medium_e01_cut1_stereo_44KHz.wav
1	86	1	1	1	C	1	1	930	1	poli_8sides 5_whiteLine3.jpg	MediumLong_b10_cut2_L_stereo_44KHz.wav
1	87	4	4	2	I	2	0	685	0	poli_8sides 2_whiteLine3.jpg	Medium_e26_stereo_44KHz.wav
1	88	3	4	2	I	2	0	567	0	poli_8sides 12_whiteLine3.jpg	Medium_e26_stereo_44KHz.wav
1	89	4	4	2	I	1	0	1266	0	poli_8sides 2_whiteLine3.jpg	Medium_e26_stereo_44KHz.wav
1	90	1	2	0	C	1	0	1275	0	poli_8sides 5_whiteLine3.jpg	Medium_e01_cut1_stereo_44KHz.wav
1	91	3	3	2	I	2	0	724	0	poli_8sides 12_whiteLine3.jpg	MediumLong_e19_stereo_44KHz.wav
1	92	2	1	0	C	1	0	725	0	poli_8sides 15_whiteLine3.jpg	MediumLong_b10_cut2_L_stereo_44KHz.wav
1	93	3	4	2	I	1	0	1240	0	poli_8sides 12_whiteLine3.jpg	Medium_e26_stereo_44KHz.wav
1	94	2	2	1	C	2	0	855	0	poli_8sides 15_whiteLine3.jpg	Medium_e01_cut1_stereo_44KHz.wav
1	95	1	1	1	C	2	0	755	0	poli_8sides 5_whiteLine3.jpg	MediumLong_b10_cut2_L_stereo_44KHz.wav
1	96	4	3	2	I	2	0	586	1	poli_8sides 2_whiteLine3.jpg	MediumLong_e19_stereo_44KHz.wav
1	97	2	1	0	C	2	1	931	1	poli_8sides 15_whiteLine3.jpg	MediumLong_b10_cut2_L_stereo_44KHz.wav
1	98	1	2	0	C	2	1	1167	1	poli_8sides 5_whiteLine3.jpg	Medium_e01_cut1_stereo_44KHz.wav
1	99	3	4	2	I	1	0	895	1	poli_8sides 12_whiteLine3.jpg	Medium_e26_stereo_44KHz.wav
1	100	4	3	2	I	2	0	780	1	poli_8sides 2_whiteLine3.jpg	MediumLong_e19_stereo_44KHz.wav
1	101	2	2	1	C	1	1	843	1	poli_8sides 15_whiteLine3.jpg	Medium_e01_cut1_stereo_44KHz.wav
1	102	4	4	2	I	1	0	857	1	poli_8sides 2_whiteLine3.jpg	Medium_e26_stereo_44KHz.wav
1	103	1	1	1	C	1	1	1320	1	poli_8sides 5_whiteLine3.jpg	MediumLong_b10_cut2_L_stereo_44KHz.wav
1	104	3	3	2	I	2	0	752	1	poli_8sides 12_whiteLine3.jpg	MediumLong_e19_stereo_44KHz.wav
1	105	1	1	1	C	2	0	1045	0	poli_8sides 5_whiteLine3.jpg	MediumLong_b10_cut2_L_stereo_44KHz.wav
1	106	2	2	1	C	1	1	706	1	poli_8sides 15_whiteLine3.jpg	Medium_e01_cut1_stereo_44KHz.wav
1	107	3	3	2	I	2	0	627	0	poli_8sides 12_whiteLine3.jpg	MediumLong_e19_stereo_44KHz.wav
1	108	4	3	2	I	2	0	818	1	poli_8sides 2_whiteLine3.jpg	MediumLong_e19_stereo_44KHz.wav
1	109	3	4	2	I	1	0	868	0	poli_8sides 12_whiteLine3.jpg	Medium_e26_stereo_44KHz.wav
1	110	2	1	0	C	1	0	752	0	poli_8sides 15_whiteLine3.jpg	MediumLong_b10_cut2_L_stereo_44KHz.wav
1	111	4	4	2	I	1	0	901	1	poli_8sides 2_whiteLine3.jpg	Medium_e26_stereo_44KHz.wav
1	112	1	2	0	C	2	1	728	1	poli_8sides 5_whiteLine3.jpg	Medium_e01_cut1_stereo_44KHz.wav
1	113	2	2	1	C	2	0	548	0	poli_8sides 15_whiteLine3.jpg	Medium_e01_cut1_stereo_44KHz.wav
1	114	3	3	2	I	2	0	591	0	poli_8sides 12_whiteLine3.jpg	MediumLong_e19_stereo_44KHz.wav
1	115	4	3	2	I	2	0	1014	0	poli_8sides 2_whiteLine3.jpg	MediumLong_e19_stereo_44KHz.wav
1	116	1	2	0	C	2	1	603	1	poli_8sides 5_whiteLine3.jpg	Medium_e01_cut1_stereo_44KHz.wav
1	117	2	1	0	C	2	1	597	1	poli_8sides 15_whiteLine3.jpg	MediumLong_b10_cut2_L_stereo_44KHz.wav
1	118	3	4	2	I	2	0	478	1	poli_8sides 12_whiteLine3.jpg	Medium_e26_stereo_44KHz.wav
1	119	4	4	2	I	1	0	1038	1	poli_8sides 2_whiteLine3.jpg	Medium_e26_stereo_44KHz.wav
1	120	1	1	1	C	2	0	660	0	poli_8sides 5_whiteLine3.jpg	MediumLong_b10_cut2_L_stereo_44KHz.wav
1	121	4	4	2	I	2	0	891	1	poli_8sides 2_whiteLine3.jpg	Medium_e26_stereo_44KHz.wav
1	122	1	1	1	C	2	0	905	0	poli_8sides 5_whiteLine3.jpg	MediumLong_b10_cut2_L_stereo_44KHz.wav
1	123	3	4	2	I	2	0	791	0	poli_8sides 12_whiteLine3.jpg	Medium_e26_stereo_44KHz.wav
1	124	2	2	1	C	1	1	1161	1	poli_8sides 15_whiteLine3.jpg	Medium_e01_cut1_stereo_44KHz.wav
1	125	4	3	2	I	2	0	789	1	poli_8sides 2_whiteLine3.jpg	MediumLong_e19_stereo_44KHz.wav
1	126	1	2	0	C	2	1	1217	1	poli_8sides 5_whiteLine3.jpg	Medium_e01_cut1_stereo_44KHz.wav
1	127	3	3	2	I	2	0	569	0	poli_8sides 12_whiteLine3.jpg	MediumLong_e19_stereo_44KHz.wav
1	128	2	1	0	C	1	0	848	0	poli_8sides 15_whiteLine3.jpg	MediumLong_b10_cut2_L_stereo_44KHz.wav
1	129	1	2	0	C	2	1	775	1	poli_8sides 5_whiteLine3.jpg	Medium_e01_cut1_stereo_44KHz.wav
1	130	3	3	2	I	2	0	571	1	poli_8sides 12_whiteLine3.jpg	MediumLong_e19_stereo_44KHz.wav
1	131	2	1	0	C	1	0	671	0	poli_8sides 15_whiteLine3.jpg	MediumLong_b10_cut2_L_stereo_44KHz.wav
1	132	4	4	2	I	1	0	967	0	poli_8sides 2_whiteLine3.jpg	Medium_e26_stereo_44KHz.wav
1	133	3	4	2	I	1	0	825	0	poli_8sides 12_whiteLine3.jpg	Medium_e26_stereo_44KHz.wav
1	134	2	2	1	C	1	1	783	1	poli_8sides 15_whiteLine3.jpg	Medium_e01_cut1_stereo_44KHz.wav
1	135	4	3	2	I	2	0	1218	0	poli_8sides 2_whiteLine3.jpg	MediumLong_e19_stereo_44KHz.wav
1	136	1	1	1	C	2	0	928	0	poli_8sides 5_whiteLine3.jpg	MediumLong_b10_cut2_L_stereo_44KHz.wav
1	137	4	3	2	I	2	0	656	0	poli_8sides 2_whiteLine3.jpg	MediumLong_e19_stereo_44KHz.wav
1	138	3	4	2	I	1	0	1178	0	poli_8sides 12_whiteLine3.jpg	Medium_e26_stereo_44KHz.wav
1	139	1	1	1	C	2	0	757	0	poli_8sides 5_whiteLine3.jpg	MediumLong_b10_cut2_L_stereo_44KHz.wav
1	140	2	2	1	C	2	0	992	0	poli_8sides 15_whiteLine3.jpg	Medium_e01_cut1_stereo_44KHz.wav
1	141	3	3	2	I	2	0	636	0	poli_8sides 12_whiteLine3.jpg	MediumLong_e19_stereo_44KHz.wav
1	142	1	2	0	C	2	1	973	1	poli_8sides 5_whiteLine3.jpg	Medium_e01_cut1_stereo_44KHz.wav
1	143	4	4	2	I	1	0	925	0	poli_8sides 2_whiteLine3.jpg	Medium_e26_stereo_44KHz.wav
1	144	2	1	0	C	1	0	1309	0	poli_8sides 15_whiteLine3.jpg	MediumLong_b10_cut2_L_stereo_44KHz.wav
1	145	3	3	2	I	2	0	1008	1	poli_8sides 12_whiteLine3.jpg	MediumLong_e19_stereo_44KHz.wav
1	146	2	2	1	C	2	0	1186	0	poli_8sides 15_whiteLine3.jpg	Medium_e01_cut1_stereo_44KHz.wav
1	147	1	1	1	C	2	0	957	0	poli_8sides 5_whiteLine3.jpg	MediumLong_b10_cut2_L_stereo_44KHz.wav
1	148	4	3	2	I	2	0	636	0	poli_8sides 2_whiteLine3.jpg	MediumLong_e19_stereo_44KHz.wav
1	149	2	1	0	C	1	0	689	0	poli_8sides 15_whiteLine3.jpg	MediumLong_b10_cut2_L_stereo_44KHz.wav
1	150	3	4	2	I	2	0	620	1	poli_8sides 12_whiteLine3.jpg	Medium_e26_stereo_44KHz.wav
1	151	4	4	2	I	2	0	582	0	poli_8sides 2_whiteLine3.jpg	Medium_e26_stereo_44KHz.wav
1	152	1	2	0	C	2	1	663	1	poli_8sides 5_whiteLine3.jpg	Medium_e01_cut1_stereo_44KHz.wav
1	153	3	3	2	I	2	0	757	1	poli_8sides 12_whiteLine3.jpg	MediumLong_e19_stereo_44KHz.wav
1	154	4	3	2	I	2	0	820	1	poli_8sides 2_whiteLine3.jpg	MediumLong_e19_stereo_44KHz.wav
1	155	1	1	1	C	2	0	1169	0	poli_8sides 5_whiteLine3.jpg	MediumLong_b10_cut2_L_stereo_44KHz.wav
1	156	2	2	1	C	2	0	796	0	poli_8sides 15_whiteLine3.jpg	Medium_e01_cut1_stereo_44KHz.wav
1	157	1	2	0	C	2	1	599	1	poli_8sides 5_whiteLine3.jpg	Medium_e01_cut1_stereo_44KHz.wav
1	158	3	4	2	I	1	0	965	0	poli_8sides 12_whiteLine3.jpg	Medium_e26_stereo_44KHz.wav
1	159	2	1	0	C	1	0	932	0	poli_8sides 15_whiteLine3.jpg	MediumLong_b10_cut2_L_stereo_44KHz.wav
1	160	4	4	2	I	2	0	761	1	poli_8sides 2_whiteLine3.jpg	Medium_e26_stereo_44KHz.wav
1	161	1	1	1	C	2	0	628	0	poli_8sides 5_whiteLine3.jpg	MediumLong_b10_cut2_L_stereo_44KHz.wav
1	162	3	3	2	I	2	0	982	1	poli_8sides 12_whiteLine3.jpg	MediumLong_e19_stereo_44KHz.wav
1	163	4	4	2	I	2	0	781	0	poli_8sides 2_whiteLine3.jpg	Medium_e26_stereo_44KHz.wav
1	164	2	1	0	C	2	1	1078	1	poli_8sides 15_whiteLine3.jpg	MediumLong_b10_cut2_L_stereo_44KHz.wav
1	165	1	2	0	C	2	1	938	1	poli_8sides 5_whiteLine3.jpg	Medium_e01_cut1_stereo_44KHz.wav
1	166	3	4	2	I	1	0	925	1	poli_8sides 12_whiteLine3.jpg	Medium_e26_stereo_44KHz.wav
1	167	4	3	2	I	2	0	609	1	poli_8sides 2_whiteLine3.jpg	MediumLong_e19_stereo_44KHz.wav
1	168	2	2	1	C	2	0	657	0	poli_8sides 15_whiteLine3.jpg	Medium_e01_cut1_stereo_44KHz.wav
1	169	1	1	1	C	2	0	1119	0	poli_8sides 5_whiteLine3.jpg	MediumLong_b10_cut2_L_stereo_44KHz.wav
1	170	2	1	0	C	0	0	0	0	poli_8sides 15_whiteLine3.jpg	MediumLong_b10_cut2_L_stereo_44KHz.wav
1	171	4	4	2	I	2	0	533	1	poli_8sides 2_whiteLine3.jpg	Medium_e26_stereo_44KHz.wav
1	172	3	3	2	I	2	0	525	1	poli_8sides 12_whiteLine3.jpg	MediumLong_e19_stereo_44KHz.wav
1	173	4	3	2	I	2	0	570	0	poli_8sides 2_whiteLine3.jpg	MediumLong_e19_stereo_44KHz.wav
1	174	1	2	0	C	2	1	718	1	poli_8sides 5_whiteLine3.jpg	Medium_e01_cut1_stereo_44KHz.wav
1	175	2	2	1	C	2	0	492	0	poli_8sides 15_whiteLine3.jpg	Medium_e01_cut1_stereo_44KHz.wav
1	176	3	4	2	I	2	0	699	1	poli_8sides 12_whiteLine3.jpg	Medium_e26_stereo_44KHz.wav
1	177	4	4	2	I	1	0	851	0	poli_8sides 2_whiteLine3.jpg	Medium_e26_stereo_44KHz.wav
1	178	2	1	0	C	2	1	759	1	poli_8sides 15_whiteLine3.jpg	MediumLong_b10_cut2_L_stereo_44KHz.wav
1	179	3	3	2	I	2	0	720	0	poli_8sides 12_whiteLine3.jpg	MediumLong_e19_stereo_44KHz.wav
1	180	1	1	1	C	2	0	526	0	poli_8sides 5_whiteLine3.jpg	MediumLong_b10_cut2_L_stereo_44KHz.wav
1	181	2	2	1	C	2	0	600	0	poli_8sides 15_whiteLine3.jpg	Medium_e01_cut1_stereo_44KHz.wav
1	182	4	3	2	I	2	0	547	0	poli_8sides 2_whiteLine3.jpg	MediumLong_e19_stereo_44KHz.wav
1	183	1	2	0	C	2	1	671	1	poli_8sides 5_whiteLine3.jpg	Medium_e01_cut1_stereo_44KHz.wav
1	184	3	4	2	I	2	0	816	0	poli_8sides 12_whiteLine3.jpg	Medium_e26_stereo_44KHz.wav
1	185	4	3	2	I	2	0	659	1	poli_8sides 2_whiteLine3.jpg	MediumLong_e19_stereo_44KHz.wav
1	186	1	1	1	C	2	0	938	0	poli_8sides 5_whiteLine3.jpg	MediumLong_b10_cut2_L_stereo_44KHz.wav
1	187	2	1	0	C	1	0	693	0	poli_8sides 15_whiteLine3.jpg	MediumLong_b10_cut2_L_stereo_44KHz.wav
1	188	3	4	2	I	2	0	472	1	poli_8sides 12_whiteLine3.jpg	Medium_e26_stereo_44KHz.wav
1	189	1	2	0	C	1	0	695	0	poli_8sides 5_whiteLine3.jpg	Medium_e01_cut1_stereo_44KHz.wav
1	190	3	3	2	I	2	0	635	0	poli_8sides 12_whiteLine3.jpg	MediumLong_e19_stereo_44KHz.wav
1	191	2	2	1	C	2	0	630	0	poli_8sides 15_whiteLine3.jpg	Medium_e01_cut1_stereo_44KHz.wav
1	192	4	4	2	I	2	0	377	0	poli_8sides 2_whiteLine3.jpg	Medium_e26_stereo_44KHz.wav
1	193	1	2	0	C	2	1	712	1	poli_8sides 5_whiteLine3.jpg	Medium_e01_cut1_stereo_44KHz.wav
1	194	3	4	2	I	2	0	1682	1	poli_8sides 12_whiteLine3.jpg	Medium_e26_stereo_44KHz.wav
1	195	4	3	2	I	0	0	0	0	poli_8sides 2_whiteLine3.jpg	MediumLong_e19_stereo_44KHz.wav
1	196	2	2	1	C	2	0	1006	0	poli_8sides 15_whiteLine3.jpg	Medium_e01_cut1_stereo_44KHz.wav
1	197	3	3	2	I	2	0	858	1	poli_8sides 12_whiteLine3.jpg	MediumLong_e19_stereo_44KHz.wav
1	198	2	1	0	C	1	0	707	0	poli_8sides 15_whiteLine3.jpg	MediumLong_b10_cut2_L_stereo_44KHz.wav
1	199	1	1	1	C	2	0	1036	0	poli_8sides 5_whiteLine3.jpg	MediumLong_b10_cut2_L_stereo_44KHz.wav
1	200	4	4	2	I	2	0	600	0	poli_8sides 2_whiteLine3.jpg	Medium_e26_stereo_44KHz.wav
2	1	2	1	0	C	2	1	1851	1	poli_8sides 18_whiteLine3.jpg	MediumLong_e17_cut2_stereo_44KHz.wav
2	2	1	2	0	C	2	1	1823	1	poli_8sides 13_whiteLine3.jpg	MediumLong_e04_stereo_44KHz.wav
2	3	3	3	2	I	2	0	1675	0	poli_8sides 4_whiteLine3.jpg	Medium_e13_stereo_44KHz.wav
2	4	4	3	2	I	1	0	1177	0	poli_8sides 11_whiteLine3.jpg	Medium_e13_stereo_44KHz.wav
2	5	1	1	1	C	2	0	997	0	poli_8sides 13_whiteLine3.jpg	MediumLong_e17_cut2_stereo_44KHz.wav
2	6	2	2	1	C	1	1	1272	1	poli_8sides 18_whiteLine3.jpg	MediumLong_e04_stereo_44KHz.wav
2	7	3	4	2	I	1	0	999	0	poli_8sides 4_whiteLine3.jpg	Medium_e21_stereo_44KHz.wav
2	8	4	4	2	I	1	0	1219	0	poli_8sides 11_whiteLine3.jpg	Medium_e21_stereo_44KHz.wav
2	9	1	1	1	C	1	1	1183	1	poli_8sides 13_whiteLine3.jpg	MediumLong_e17_cut2_stereo_44KHz.wav
2	10	3	4	2	I	1	0	997	0	poli_8sides 4_whiteLine3.jpg	Medium_e21_stereo_44KHz.wav
2	11	2	2	1	C	2	0	877	0	poli_8sides 18_whiteLine3.jpg	MediumLong_e04_stereo_44KHz.wav
2	12	4	3	2	I	1	0	859	0	poli_8sides 11_whiteLine3.jpg	Medium_e13_stereo_44KHz.wav
2	13	2	1	0	C	2	1	974	1	poli_8sides 18_whiteLine3.jpg	MediumLong_e17_cut2_stereo_44KHz.wav
2	14	4	4	2	I	2	0	1182	1	poli_8sides 11_whiteLine3.jpg	Medium_e21_stereo_44KHz.wav
2	15	3	3	2	I	2	0	1023	1	poli_8sides 4_whiteLine3.jpg	Medium_e13_stereo_44KHz.wav
2	16	1	2	0	C	2	1	1788	1	poli_8sides 13_whiteLine3.jpg	MediumLong_e04_stereo_44KHz.wav
2	17	2	2	1	C	2	0	759	0	poli_8sides 18_whiteLine3.jpg	MediumLong_e04_stereo_44KHz.wav
2	18	4	3	2	I	1	0	717	1	poli_8sides 11_whiteLine3.jpg	Medium_e13_stereo_44KHz.wav
2	19	3	3	2	I	2	0	832	1	poli_8sides 4_whiteLine3.jpg	Medium_e13_stereo_44KHz.wav
2	20	1	1	1	C	2	0	648	0	poli_8sides 13_whiteLine3.jpg	MediumLong_e17_cut2_stereo_44KHz.wav
2	21	2	1	0	C	2	1	714	1	poli_8sides 18_whiteLine3.jpg	MediumLong_e17_cut2_stereo_44KHz.wav
2	22	3	4	2	I	2	0	879	1	poli_8sides 4_whiteLine3.jpg	Medium_e21_stereo_44KHz.wav
2	23	4	4	2	I	1	0	1078	0	poli_8sides 11_whiteLine3.jpg	Medium_e21_stereo_44KHz.wav
2	24	1	2	0	C	2	1	659	1	poli_8sides 13_whiteLine3.jpg	MediumLong_e04_stereo_44KHz.wav
2	25	3	3	2	I	2	0	522	0	poli_8sides 4_whiteLine3.jpg	Medium_e13_stereo_44KHz.wav
2	26	4	3	2	I	2	0	743	0	poli_8sides 11_whiteLine3.jpg	Medium_e13_stereo_44KHz.wav
2	27	2	2	1	C	2	0	736	0	poli_8sides 18_whiteLine3.jpg	MediumLong_e04_stereo_44KHz.wav
2	28	1	1	1	C	1	1	1487	1	poli_8sides 13_whiteLine3.jpg	MediumLong_e17_cut2_stereo_44KHz.wav
2	29	2	1	0	C	2	1	778	1	poli_8sides 18_whiteLine3.jpg	MediumLong_e17_cut2_stereo_44KHz.wav
2	30	3	4	2	I	2	0	974	0	poli_8sides 4_whiteLine3.jpg	Medium_e21_stereo_44KHz.wav
2	31	1	2	0	C	1	0	1549	0	poli_8sides 13_whiteLine3.jpg	MediumLong_e04_stereo_44KHz.wav
2	32	4	4	2	I	2	0	834	1	poli_8sides 11_whiteLine3.jpg	Medium_e21_stereo_44KHz.wav
2	33	1	2	0	C	2	1	841	1	poli_8sides 13_whiteLine3.jpg	MediumLong_e04_stereo_44KHz.wav
2	34	4	3	2	I	2	0	797	0	poli_8sides 11_whiteLine3.jpg	Medium_e13_stereo_44KHz.wav
2	35	2	1	0	C	2	1	1135	1	poli_8sides 18_whiteLine3.jpg	MediumLong_e17_cut2_stereo_44KHz.wav
2	36	3	3	2	I	1	0	951	0	poli_8sides 4_whiteLine3.jpg	Medium_e13_stereo_44KHz.wav
2	37	4	4	2	I	2	0	530	1	poli_8sides 11_whiteLine3.jpg	Medium_e21_stereo_44KHz.wav
2	38	3	4	2	I	1	0	650	1	poli_8sides 4_whiteLine3.jpg	Medium_e21_stereo_44KHz.wav
2	39	1	1	1	C	2	0	688	0	poli_8sides 13_whiteLine3.jpg	MediumLong_e17_cut2_stereo_44KHz.wav
2	40	2	2	1	C	2	0	1061	0	poli_8sides 18_whiteLine3.jpg	MediumLong_e04_stereo_44KHz.wav
2	41	4	3	2	I	1	0	882	0	poli_8sides 11_whiteLine3.jpg	Medium_e13_stereo_44KHz.wav
2	42	3	3	2	I	1	0	819	0	poli_8sides 4_whiteLine3.jpg	Medium_e13_stereo_44KHz.wav
2	43	2	1	0	C	2	1	1233	1	poli_8sides 18_whiteLine3.jpg	MediumLong_e17_cut2_stereo_44KHz.wav
2	44	1	1	1	C	1	1	1657	1	poli_8sides 13_whiteLine3.jpg	MediumLong_e17_cut2_stereo_44KHz.wav
2	45	4	4	2	I	1	0	1144	1	poli_8sides 11_whiteLine3.jpg	Medium_e21_stereo_44KHz.wav
2	46	3	4	2	I	1	0	919	0	poli_8sides 4_whiteLine3.jpg	Medium_e21_stereo_44KHz.wav
2	47	1	2	0	C	1	0	887	0	poli_8sides 13_whiteLine3.jpg	MediumLong_e04_stereo_44KHz.wav
2	48	2	2	1	C	1	1	1246	1	poli_8sides 18_whiteLine3.jpg	MediumLong_e04_stereo_44KHz.wav
2	49	1	1	1	C	1	1	842	1	poli_8sides 13_whiteLine3.jpg	MediumLong_e17_cut2_stereo_44KHz.wav
2	50	2	1	0	C	1	0	1112	0	poli_8sides 18_whiteLine3.jpg	MediumLong_e17_cut2_stereo_44KHz.wav
2	51	3	4	2	I	2	0	1143	0	poli_8sides 4_whiteLine3.jpg	Medium_e21_stereo_44KHz.wav
2	52	4	3	2	I	1	0	773	0	poli_8sides 11_whiteLine3.jpg	Medium_e13_stereo_44KHz.wav
2	53	1	2	0	C	2	1	668	1	poli_8sides 13_whiteLine3.jpg	MediumLong_e04_stereo_44KHz.wav
2	54	4	4	2	I	2	0	857	1	poli_8sides 11_whiteLine3.jpg	Medium_e21_stereo_44KHz.wav
2	55	3	3	2	I	2	0	635	1	poli_8sides 4_whiteLine3.jpg	Medium_e13_stereo_44KHz.wav
2	56	2	2	1	C	2	0	842	0	poli_8sides 18_whiteLine3.jpg	MediumLong_e04_stereo_44KHz.wav
2	57	1	2	0	C	2	1	653	1	poli_8sides 13_whiteLine3.jpg	MediumLong_e04_stereo_44KHz.wav
2	58	2	1	0	C	2	1	796	1	poli_8sides 18_whiteLine3.jpg	MediumLong_e17_cut2_stereo_44KHz.wav
2	59	4	4	2	I	2	0	757	1	poli_8sides 11_whiteLine3.jpg	Medium_e21_stereo_44KHz.wav
2	60	3	4	2	I	1	0	985	1	poli_8sides 4_whiteLine3.jpg	Medium_e21_stereo_44KHz.wav
2	61	1	1	1	C	1	1	1579	1	poli_8sides 13_whiteLine3.jpg	MediumLong_e17_cut2_stereo_44KHz.wav
2	62	2	2	1	C	2	0	668	0	poli_8sides 18_whiteLine3.jpg	MediumLong_e04_stereo_44KHz.wav
2	63	4	3	2	I	2	0	830	1	poli_8sides 11_whiteLine3.jpg	Medium_e13_stereo_44KHz.wav
2	64	3	3	2	I	1	0	1175	1	poli_8sides 4_whiteLine3.jpg	Medium_e13_stereo_44KHz.wav
2	65	2	1	0	C	2	1	736	1	poli_8sides 18_whiteLine3.jpg	MediumLong_e17_cut2_stereo_44KHz.wav
2	66	1	2	0	C	2	1	663	1	poli_8sides 13_whiteLine3.jpg	MediumLong_e04_stereo_44KHz.wav
2	67	4	4	2	I	2	0	566	0	poli_8sides 11_whiteLine3.jpg	Medium_e21_stereo_44KHz.wav
2	68	3	4	2	I	1	0	758	1	poli_8sides 4_whiteLine3.jpg	Medium_e21_stereo_44KHz.wav
2	69	2	2	1	C	2	0	687	0	poli_8sides 18_whiteLine3.jpg	MediumLong_e04_stereo_44KHz.wav
2	70	3	3	2	I	2	0	234	1	poli_8sides 4_whiteLine3.jpg	Medium_e13_stereo_44KHz.wav
2	71	4	3	2	I	2	0	459	1	poli_8sides 11_whiteLine3.jpg	Medium_e13_stereo_44KHz.wav
2	72	1	1	1	C	2	0	1035	0	poli_8sides 13_whiteLine3.jpg	MediumLong_e17_cut2_stereo_44KHz.wav
2	73	4	4	2	I	2	0	633	1	poli_8sides 11_whiteLine3.jpg	Medium_e21_stereo_44KHz.wav
2	74	1	1	1	C	2	0	658	0	poli_8sides 13_whiteLine3.jpg	MediumLong_e17_cut2_stereo_44KHz.wav
2	75	2	2	1	C	2	0	223	0	poli_8sides 18_whiteLine3.jpg	MediumLong_e04_stereo_44KHz.wav
2	76	3	4	2	I	1	0	903	1	poli_8sides 4_whiteLine3.jpg	Medium_e21_stereo_44KHz.wav
2	77	2	1	0	C	2	1	507	1	poli_8sides 18_whiteLine3.jpg	MediumLong_e17_cut2_stereo_44KHz.wav
2	78	3	3	2	I	1	0	867	0	poli_8sides 4_whiteLine3.jpg	Medium_e13_stereo_44KHz.wav
2	79	4	3	2	I	2	0	551	1	poli_8sides 11_whiteLine3.jpg	Medium_e13_stereo_44KHz.wav
2	80	1	2	0	C	2	1	720	1	poli_8sides 13_whiteLine3.jpg	MediumLong_e04_stereo_44KHz.wav
2	81	2	1	0	C	2	1	504	1	poli_8sides 18_whiteLine3.jpg	MediumLong_e17_cut2_stereo_44KHz.wav
2	82	4	4	2	I	2	0	511	0	poli_8sides 11_whiteLine3.jpg	Medium_e21_stereo_44KHz.wav
2	83	3	4	2	I	1	0	850	0	poli_8sides 4_whiteLine3.jpg	Medium_e21_stereo_44KHz.wav
2	84	1	1	1	C	2	0	1197	0	poli_8sides 13_whiteLine3.jpg	MediumLong_e17_cut2_stereo_44KHz.wav
2	85	2	2	1	C	2	0	767	0	poli_8sides 18_whiteLine3.jpg	MediumLong_e04_stereo_44KHz.wav
2	86	3	3	2	I	2	0	1135	0	poli_8sides 4_whiteLine3.jpg	Medium_e13_stereo_44KHz.wav
2	87	4	3	2	I	2	0	986	0	poli_8sides 11_whiteLine3.jpg	Medium_e13_stereo_44KHz.wav
2	88	1	2	0	C	2	1	915	1	poli_8sides 13_whiteLine3.jpg	MediumLong_e04_stereo_44KHz.wav
2	89	4	3	2	I	2	0	663	0	poli_8sides 11_whiteLine3.jpg	Medium_e13_stereo_44KHz.wav
2	90	2	1	0	C	2	1	804	1	poli_8sides 18_whiteLine3.jpg	MediumLong_e17_cut2_stereo_44KHz.wav
2	91	1	1	1	C	2	0	1315	0	poli_8sides 13_whiteLine3.jpg	MediumLong_e17_cut2_stereo_44KHz.wav
2	92	3	3	2	I	2	0	685	1	poli_8sides 4_whiteLine3.jpg	Medium_e13_stereo_44KHz.wav
2	93	1	2	0	C	2	1	747	1	poli_8sides 13_whiteLine3.jpg	MediumLong_e04_stereo_44KHz.wav
2	94	3	4	2	I	2	0	765	0	poli_8sides 4_whiteLine3.jpg	Medium_e21_stereo_44KHz.wav
2	95	4	4	2	I	2	0	804	0	poli_8sides 11_whiteLine3.jpg	Medium_e21_stereo_44KHz.wav
2	96	2	2	1	C	2	0	809	0	poli_8sides 18_whiteLine3.jpg	MediumLong_e04_stereo_44KHz.wav
2	97	4	4	2	I	2	0	497	0	poli_8sides 11_whiteLine3.jpg	Medium_e21_stereo_44KHz.wav
2	98	3	4	2	I	2	0	874	1	poli_8sides 4_whiteLine3.jpg	Medium_e21_stereo_44KHz.wav
2	99	1	2	0	C	2	1	685	1	poli_8sides 13_whiteLine3.jpg	MediumLong_e04_stereo_44KHz.wav
2	100	2	2	1	C	1	1	1067	1	poli_8sides 18_whiteLine3.jpg	MediumLong_e04_stereo_44KHz.wav
2	101	4	3	2	I	2	0	619	0	poli_8sides 11_whiteLine3.jpg	Medium_e13_stereo_44KHz.wav
2	102	2	1	0	C	1	0	1804	0	poli_8sides 18_whiteLine3.jpg	MediumLong_e17_cut2_stereo_44KHz.wav
2	103	3	3	2	I	2	0	744	0	poli_8sides 4_whiteLine3.jpg	Medium_e13_stereo_44KHz.wav
2	104	1	1	1	C	2	0	565	0	poli_8sides 13_whiteLine3.jpg	MediumLong_e17_cut2_stereo_44KHz.wav
2	105	3	4	2	I	2	0	472	0	poli_8sides 4_whiteLine3.jpg	Medium_e21_stereo_44KHz.wav
2	106	2	1	0	C	2	1	627	1	poli_8sides 18_whiteLine3.jpg	MediumLong_e17_cut2_stereo_44KHz.wav
2	107	4	4	2	I	2	0	699	1	poli_8sides 11_whiteLine3.jpg	Medium_e21_stereo_44KHz.wav
2	108	1	2	0	C	2	1	1163	1	poli_8sides 13_whiteLine3.jpg	MediumLong_e04_stereo_44KHz.wav
2	109	2	2	1	C	2	0	357	0	poli_8sides 18_whiteLine3.jpg	MediumLong_e04_stereo_44KHz.wav
2	110	4	3	2	I	2	0	621	0	poli_8sides 11_whiteLine3.jpg	Medium_e13_stereo_44KHz.wav
2	111	1	1	1	C	2	0	624	0	poli_8sides 13_whiteLine3.jpg	MediumLong_e17_cut2_stereo_44KHz.wav
2	112	3	3	2	I	2	0	1503	1	poli_8sides 4_whiteLine3.jpg	Medium_e13_stereo_44KHz.wav
2	113	2	2	1	C	2	0	1121	0	poli_8sides 18_whiteLine3.jpg	MediumLong_e04_stereo_44KHz.wav
2	114	1	2	0	C	1	0	1519	0	poli_8sides 13_whiteLine3.jpg	MediumLong_e04_stereo_44KHz.wav
2	115	3	4	2	I	2	0	715	0	poli_8sides 4_whiteLine3.jpg	Medium_e21_stereo_44KHz.wav
2	116	4	3	2	I	2	0	577	1	poli_8sides 11_whiteLine3.jpg	Medium_e13_stereo_44KHz.wav
2	117	1	1	1	C	2	0	1636	0	poli_8sides 13_whiteLine3.jpg	MediumLong_e17_cut2_stereo_44KHz.wav
2	118	2	1	0	C	2	1	1085	1	poli_8sides 18_whiteLine3.jpg	MediumLong_e17_cut2_stereo_44KHz.wav
2	119	4	4	2	I	2	0	1898	1	poli_8sides 11_whiteLine3.jpg	Medium_e21_stereo_44KHz.wav
2	120	3	3	2	I	2	0	1707	0	poli_8sides 4_whiteLine3.jpg	Medium_e13_stereo_44KHz.wav
2	121	1	1	1	C	2	0	1080	0	poli_8sides 13_whiteLine3.jpg	MediumLong_e17_cut2_stereo_44KHz.wav
2	122	4	4	2	I	0	0	0	0	poli_8sides 11_whiteLine3.jpg	Medium_e21_stereo_44KHz.wav
2	123	2	2	1	C	2	0	853	0	poli_8sides 18_whiteLine3.jpg	MediumLong_e04_stereo_44KHz.wav
2	124	3	4	2	I	2	0	592	1	poli_8sides 4_whiteLine3.jpg	Medium_e21_stereo_44KHz.wav
2	125	1	2	0	C	0	0	0	0	poli_8sides 13_whiteLine3.jpg	MediumLong_e04_stereo_44KHz.wav
2	126	3	3	2	I	2	0	272	1	poli_8sides 4_whiteLine3.jpg	Medium_e13_stereo_44KHz.wav
2	127	2	1	0	C	2	1	590	1	poli_8sides 18_whiteLine3.jpg	MediumLong_e17_cut2_stereo_44KHz.wav
2	128	4	3	2	I	2	0	913	1	poli_8sides 11_whiteLine3.jpg	Medium_e13_stereo_44KHz.wav
2	129	2	1	0	C	2	1	721	1	poli_8sides 18_whiteLine3.jpg	MediumLong_e17_cut2_stereo_44KHz.wav
2	130	4	4	2	I	1	0	1163	0	poli_8sides 11_whiteLine3.jpg	Medium_e21_stereo_44KHz.wav
2	131	3	3	2	I	2	0	887	1	poli_8sides 4_whiteLine3.jpg	Medium_e13_stereo_44KHz.wav
2	132	1	1	1	C	2	0	915	0	poli_8sides 13_whiteLine3.jpg	MediumLong_e17_cut2_stereo_44KHz.wav
2	133	3	4	2	I	2	0	710	1	poli_8sides 4_whiteLine3.jpg	Medium_e21_stereo_44KHz.wav
2	134	4	3	2	I	2	0	766	0	poli_8sides 11_whiteLine3.jpg	Medium_e13_stereo_44KHz.wav
2	135	2	2	1	C	2	0	1099	0	poli_8sides 18_whiteLine3.jpg	MediumLong_e04_stereo_44KHz.wav
2	136	1	2	0	C	2	1	938	1	poli_8sides 13_whiteLine3.jpg	MediumLong_e04_stereo_44KHz.wav
2	137	3	4	2	I	2	0	871	0	poli_8sides 4_whiteLine3.jpg	Medium_e21_stereo_44KHz.wav
2	138	2	1	0	C	1	0	1598	0	poli_8sides 18_whiteLine3.jpg	MediumLong_e17_cut2_stereo_44KHz.wav
2	139	4	4	2	I	2	0	565	1	poli_8sides 11_whiteLine3.jpg	Medium_e21_stereo_44KHz.wav
2	140	1	2	0	C	2	1	742	1	poli_8sides 13_whiteLine3.jpg	MediumLong_e04_stereo_44KHz.wav
2	141	4	3	2	I	2	0	654	0	poli_8sides 11_whiteLine3.jpg	Medium_e13_stereo_44KHz.wav
2	142	2	2	1	C	2	0	674	0	poli_8sides 18_whiteLine3.jpg	MediumLong_e04_stereo_44KHz.wav
2	143	1	1	1	C	2	0	1161	0	poli_8sides 13_whiteLine3.jpg	MediumLong_e17_cut2_stereo_44KHz.wav
2	144	3	3	2	I	2	0	709	1	poli_8sides 4_whiteLine3.jpg	Medium_e13_stereo_44KHz.wav
2	145	2	2	1	C	2	0	760	0	poli_8sides 18_whiteLine3.jpg	MediumLong_e04_stereo_44KHz.wav
2	146	1	1	1	C	2	0	1523	0	poli_8sides 13_whiteLine3.jpg	MediumLong_e17_cut2_stereo_44KHz.wav
2	147	3	4	2	I	2	0	737	0	poli_8sides 4_whiteLine3.jpg	Medium_e21_stereo_44KHz.wav
2	148	4	4	2	I	2	0	637	1	poli_8sides 11_whiteLine3.jpg	Medium_e21_stereo_44KHz.wav
2	149	3	3	2	I	2	0	784	0	poli_8sides 4_whiteLine3.jpg	Medium_e13_stereo_44KHz.wav
2	150	1	2	0	C	2	1	994	1	poli_8sides 13_whiteLine3.jpg	MediumLong_e04_stereo_44KHz.wav
2	151	4	3	2	I	2	0	726	1	poli_8sides 11_whiteLine3.jpg	Medium_e13_stereo_44KHz.wav
2	152	2	1	0	C	1	0	1033	0	poli_8sides 18_whiteLine3.jpg	MediumLong_e17_cut2_stereo_44KHz.wav
2	153	4	4	2	I	2	0	597	0	poli_8sides 11_whiteLine3.jpg	Medium_e21_stereo_44KHz.wav
2	154	1	2	0	C	2	1	746	1	poli_8sides 13_whiteLine3.jpg	MediumLong_e04_stereo_44KHz.wav
2	155	2	2	1	C	1	1	998	1	poli_8sides 18_whiteLine3.jpg	MediumLong_e04_stereo_44KHz.wav
2	156	3	3	2	I	2	0	667	1	poli_8sides 4_whiteLine3.jpg	Medium_e13_stereo_44KHz.wav
2	157	4	3	2	I	2	0	583	1	poli_8sides 11_whiteLine3.jpg	Medium_e13_stereo_44KHz.wav
2	158	3	4	2	I	2	0	540	1	poli_8sides 4_whiteLine3.jpg	Medium_e21_stereo_44KHz.wav
2	159	1	1	1	C	2	0	510	0	poli_8sides 13_whiteLine3.jpg	MediumLong_e17_cut2_stereo_44KHz.wav
2	160	2	1	0	C	2	1	985	1	poli_8sides 18_whiteLine3.jpg	MediumLong_e17_cut2_stereo_44KHz.wav
2	161	4	3	2	I	2	0	709	0	poli_8sides 11_whiteLine3.jpg	Medium_e13_stereo_44KHz.wav
2	162	2	1	0	C	2	1	655	1	poli_8sides 18_whiteLine3.jpg	MediumLong_e17_cut2_stereo_44KHz.wav
2	163	1	2	0	C	2	1	758	1	poli_8sides 13_whiteLine3.jpg	MediumLong_e04_stereo_44KHz.wav
2	164	3	3	2	I	2	0	881	0	poli_8sides 4_whiteLine3.jpg	Medium_e13_stereo_44KHz.wav
2	165	4	4	2	I	2	0	475	0	poli_8sides 11_whiteLine3.jpg	Medium_e21_stereo_44KHz.wav
2	166	3	4	2	I	2	0	380	0	poli_8sides 4_whiteLine3.jpg	Medium_e21_stereo_44KHz.wav
2	167	1	1	1	C	2	0	1096	0	poli_8sides 13_whiteLine3.jpg	MediumLong_e17_cut2_stereo_44KHz.wav
2	168	2	2	1	C	1	1	1135	1	poli_8sides 18_whiteLine3.jpg	MediumLong_e04_stereo_44KHz.wav
2	169	4	4	2	I	2	0	597	1	poli_8sides 11_whiteLine3.jpg	Medium_e21_stereo_44KHz.wav
2	170	3	3	2	I	2	0	666	0	poli_8sides 4_whiteLine3.jpg	Medium_e13_stereo_44KHz.wav
2	171	1	1	1	C	2	0	675	0	poli_8sides 13_whiteLine3.jpg	MediumLong_e17_cut2_stereo_44KHz.wav
2	172	2	2	1	C	1	1	1349	1	poli_8sides 18_whiteLine3.jpg	MediumLong_e04_stereo_44KHz.wav
2	173	3	4	2	I	2	0	635	1	poli_8sides 4_whiteLine3.jpg	Medium_e21_stereo_44KHz.wav
2	174	2	1	0	C	2	1	688	1	poli_8sides 18_whiteLine3.jpg	MediumLong_e17_cut2_stereo_44KHz.wav
2	175	1	2	0	C	2	1	771	1	poli_8sides 13_whiteLine3.jpg	MediumLong_e04_stereo_44KHz.wav
2	176	4	3	2	I	2	0	755	1	poli_8sides 11_whiteLine3.jpg	Medium_e13_stereo_44KHz.wav
2	177	3	4	2	I	2	0	864	1	poli_8sides 4_whiteLine3.jpg	Medium_e21_stereo_44KHz.wav
2	178	1	2	0	C	2	1	1088	1	poli_8sides 13_whiteLine3.jpg	MediumLong_e04_stereo_44KHz.wav
2	179	2	1	0	C	1	0	1089	0	poli_8sides 18_whiteLine3.jpg	MediumLong_e17_cut2_stereo_44KHz.wav
2	180	4	4	2	I	2	0	737	0	poli_8sides 11_whiteLine3.jpg	Medium_e21_stereo_44KHz.wav
2	181	2	2	1	C	2	0	983	0	poli_8sides 18_whiteLine3.jpg	MediumLong_e04_stereo_44KHz.wav
2	182	1	1	1	C	2	0	563	0	poli_8sides 13_whiteLine3.jpg	MediumLong_e17_cut2_stereo_44KHz.wav
2	183	3	3	2	I	2	0	762	1	poli_8sides 4_whiteLine3.jpg	Medium_e13_stereo_44KHz.wav
2	184	4	3	2	I	1	0	1370	1	poli_8sides 11_whiteLine3.jpg	Medium_e13_stereo_44KHz.wav
2	185	1	2	0	C	2	1	1005	1	poli_8sides 13_whiteLine3.jpg	MediumLong_e04_stereo_44KHz.wav
2	186	3	3	2	I	2	0	687	1	poli_8sides 4_whiteLine3.jpg	Medium_e13_stereo_44KHz.wav
2	187	2	2	1	C	1	1	1426	1	poli_8sides 18_whiteLine3.jpg	MediumLong_e04_stereo_44KHz.wav
2	188	4	3	2	I	2	0	635	0	poli_8sides 11_whiteLine3.jpg	Medium_e13_stereo_44KHz.wav
2	189	2	1	0	C	1	0	1448	0	poli_8sides 18_whiteLine3.jpg	MediumLong_e17_cut2_stereo_44KHz.wav
2	190	1	1	1	C	1	1	982	1	poli_8sides 13_whiteLine3.jpg	MediumLong_e17_cut2_stereo_44KHz.wav
2	191	3	4	2	I	2	0	648	1	poli_8sides 4_whiteLine3.jpg	Medium_e21_stereo_44KHz.wav
2	192	4	4	2	I	2	0	552	1	poli_8sides 11_whiteLine3.jpg	Medium_e21_stereo_44KHz.wav
2	193	3	4	2	I	2	0	765	0	poli_8sides 4_whiteLine3.jpg	Medium_e21_stereo_44KHz.wav
2	194	2	2	1	C	0	0	0	0	poli_8sides 18_whiteLine3.jpg	MediumLong_e04_stereo_44KHz.wav
2	195	1	1	1	C	1	1	1238	1	poli_8sides 13_whiteLine3.jpg	MediumLong_e17_cut2_stereo_44KHz.wav
2	196	4	4	2	I	2	0	713	1	poli_8sides 11_whiteLine3.jpg	Medium_e21_stereo_44KHz.wav
2	197	1	2	0	C	2	1	1186	1	poli_8sides 13_whiteLine3.jpg	MediumLong_e04_stereo_44KHz.wav
2	198	3	3	2	I	2	0	687	0	poli_8sides 4_whiteLine3.jpg	Medium_e13_stereo_44KHz.wav
2	199	4	3	2	I	2	0	498	1	poli_8sides 11_whiteLine3.jpg	Medium_e13_stereo_44KHz.wav
2	200	2	1	0	C	1	0	1029	0	poli_8sides 18_whiteLine3.jpg	MediumLong_e17_cut2_stereo_44KHz.wav
3	1	1	1	1	C	2	0	1325	0	poli_8sides 7_whiteLine3.jpg	MediumShort_b16_cut3_MS_stereo_44KHz.wav
3	2	3	4	2	I	2	0	983	0	poli_8sides 1_whiteLine3.jpg	MediumShort_e22_cut1_stereo_44KHz.wav
3	3	2	2	1	C	2	0	949	0	poli_8sides 8_whiteLine3.jpg	MediumShort_b10_cut1_MS_stereo_44KHz.wav
3	4	4	3	2	I	1	0	1083	0	poli_8sides 6_whiteLine3.jpg	MediumShort_e16_cut1_stereo_44KHz.wav
3	5	3	3	2	I	1	0	1232	0	poli_8sides 1_whiteLine3.jpg	MediumShort_e16_cut1_stereo_44KHz.wav
3	6	4	4	2	I	2	0	912	1	poli_8sides 6_whiteLine3.jpg	MediumShort_e22_cut1_stereo_44KHz.wav
3	7	1	2	0	C	2	1	769	1	poli_8sides 7_whiteLine3.jpg	MediumShort_b10_cut1_MS_stereo_44KHz.wav
3	8	2	1	0	C	2	1	669	1	poli_8sides 8_whiteLine3.jpg	MediumShort_b16_cut3_MS_stereo_44KHz.wav
3	9	4	4	2	I	2	0	444	1	poli_8sides 6_whiteLine3.jpg	MediumShort_e22_cut1_stereo_44KHz.wav
3	10	1	1	1	C	2	0	712	0	poli_8sides 7_whiteLine3.jpg	MediumShort_b16_cut3_MS_stereo_44KHz.wav
3	11	2	1	0	C	2	1	511	1	poli_8sides 8_whiteLine3.jpg	MediumShort_b16_cut3_MS_stereo_44KHz.wav
3	12	3	3	2	I	1	0	1317	1	poli_8sides 1_whiteLine3.jpg	MediumShort_e16_cut1_stereo_44KHz.wav
3	13	4	3	2	I	2	0	912	0	poli_8sides 6_whiteLine3.jpg	MediumShort_e16_cut1_stereo_44KHz.wav
3	14	3	4	2	I	2	0	851	1	poli_8sides 1_whiteLine3.jpg	MediumShort_e22_cut1_stereo_44KHz.wav
3	15	1	2	0	C	2	1	1017	1	poli_8sides 7_whiteLine3.jpg	MediumShort_b10_cut1_MS_stereo_44KHz.wav
3	16	2	2	1	C	1	1	1003	1	poli_8sides 8_whiteLine3.jpg	MediumShort_b10_cut1_MS_stereo_44KHz.wav
3	17	3	4	2	I	2	0	853	0	poli_8sides 1_whiteLine3.jpg	MediumShort_e22_cut1_stereo_44KHz.wav
3	18	4	3	2	I	1	0	872	0	poli_8sides 6_whiteLine3.jpg	MediumShort_e16_cut1_stereo_44KHz.wav
3	19	2	1	0	C	1	0	911	0	poli_8sides 8_whiteLine3.jpg	MediumShort_b16_cut3_MS_stereo_44KHz.wav
3	20	1	1	1	C	2	0	548	0	poli_8sides 7_whiteLine3.jpg	MediumShort_b16_cut3_MS_stereo_44KHz.wav
3	21	4	4	2	I	2	0	759	1	poli_8sides 6_whiteLine3.jpg	MediumShort_e22_cut1_stereo_44KHz.wav
3	22	2	2	1	C	2	0	1229	0	poli_8sides 8_whiteLine3.jpg	MediumShort_b10_cut1_MS_stereo_44KHz.wav
3	23	3	3	2	I	2	0	862	1	poli_8sides 1_whiteLine3.jpg	MediumShort_e16_cut1_stereo_44KHz.wav
3	24	1	2	0	C	2	1	944	1	poli_8sides 7_whiteLine3.jpg	MediumShort_b10_cut1_MS_stereo_44KHz.wav
3	25	3	3	2	I	2	0	849	1	poli_8sides 1_whiteLine3.jpg	MediumShort_e16_cut1_stereo_44KHz.wav
3	26	1	2	0	C	2	1	597	1	poli_8sides 7_whiteLine3.jpg	MediumShort_b10_cut1_MS_stereo_44KHz.wav
3	27	4	3	2	I	1	0	1288	1	poli_8sides 6_whiteLine3.jpg	MediumShort_e16_cut1_stereo_44KHz.wav
3	28	2	2	1	C	1	1	814	1	poli_8sides 8_whiteLine3.jpg	MediumShort_b10_cut1_MS_stereo_44KHz.wav
3	29	4	4	2	I	2	0	775	0	poli_8sides 6_whiteLine3.jpg	MediumShort_e22_cut1_stereo_44KHz.wav
3	30	3	4	2	I	2	0	642	0	poli_8sides 1_whiteLine3.jpg	MediumShort_e22_cut1_stereo_44KHz.wav
3	31	2	1	0	C	2	1	1082	1	poli_8sides 8_whiteLine3.jpg	MediumShort_b16_cut3_MS_stereo_44KHz.wav
3	32	1	1	1	C	2	0	696	0	poli_8sides 7_whiteLine3.jpg	MediumShort_b16_cut3_MS_stereo_44KHz.wav
3	33	4	3	2	I	2	0	967	0	poli_8sides 6_whiteLine3.jpg	MediumShort_e16_cut1_stereo_44KHz.wav
3	34	3	4	2	I	2	0	480	1	poli_8sides 1_whiteLine3.jpg	MediumShort_e22_cut1_stereo_44KHz.wav
3	35	1	2	0	C	2	1	739	1	poli_8sides 7_whiteLine3.jpg	MediumShort_b10_cut1_MS_stereo_44KHz.wav
3	36	2	2	1	C	1	1	841	1	poli_8sides 8_whiteLine3.jpg	MediumShort_b10_cut1_MS_stereo_44KHz.wav
3	37	4	4	2	I	2	0	957	1	poli_8sides 6_whiteLine3.jpg	MediumShort_e22_cut1_stereo_44KHz.wav
3	38	2	1	0	C	1	0	1119	0	poli_8sides 8_whiteLine3.jpg	MediumShort_b16_cut3_MS_stereo_44KHz.wav
3	39	3	3	2	I	1	0	909	0	poli_8sides 1_whiteLine3.jpg	MediumShort_e16_cut1_stereo_44KHz.wav
3	40	1	1	1	C	2	0	693	0	poli_8sides 7_whiteLine3.jpg	MediumShort_b16_cut3_MS_stereo_44KHz.wav
3	41	4	4	2	I	2	0	906	0	poli_8sides 6_whiteLine3.jpg	MediumShort_e22_cut1_stereo_44KHz.wav
3	42	1	1	1	C	2	0	558	0	poli_8sides 7_whiteLine3.jpg	MediumShort_b16_cut3_MS_stereo_44KHz.wav
3	43	3	3	2	I	1	0	878	0	poli_8sides 1_whiteLine3.jpg	MediumShort_e16_cut1_stereo_44KHz.wav
3	44	2	2	1	C	2	0	1590	0	poli_8sides 8_whiteLine3.jpg	MediumShort_b10_cut1_MS_stereo_44KHz.wav
3	45	3	4	2	I	2	0	972	1	poli_8sides 1_whiteLine3.jpg	MediumShort_e22_cut1_stereo_44KHz.wav
3	46	1	2	0	C	2	1	510	1	poli_8sides 7_whiteLine3.jpg	MediumShort_b10_cut1_MS_stereo_44KHz.wav
3	47	4	3	2	I	1	0	714	0	poli_8sides 6_whiteLine3.jpg	MediumShort_e16_cut1_stereo_44KHz.wav
3	48	2	1	0	C	2	1	765	1	poli_8sides 8_whiteLine3.jpg	MediumShort_b16_cut3_MS_stereo_44KHz.wav
3	49	3	4	2	I	1	0	800	0	poli_8sides 1_whiteLine3.jpg	MediumShort_e22_cut1_stereo_44KHz.wav
3	50	2	2	1	C	2	0	653	0	poli_8sides 8_whiteLine3.jpg	MediumShort_b10_cut1_MS_stereo_44KHz.wav
3	51	4	4	2	I	2	0	897	1	poli_8sides 6_whiteLine3.jpg	MediumShort_e22_cut1_stereo_44KHz.wav
3	52	1	1	1	C	2	0	768	0	poli_8sides 7_whiteLine3.jpg	MediumShort_b16_cut3_MS_stereo_44KHz.wav
3	53	3	3	2	I	2	0	928	0	poli_8sides 1_whiteLine3.jpg	MediumShort_e16_cut1_stereo_44KHz.wav
3	54	2	1	0	C	1	0	929	0	poli_8sides 8_whiteLine3.jpg	MediumShort_b16_cut3_MS_stereo_44KHz.wav
3	55	4	3	2	I	2	0	1209	1	poli_8sides 6_whiteLine3.jpg	MediumShort_e16_cut1_stereo_44KHz.wav
3	56	1	2	0	C	2	1	737	1	poli_8sides 7_whiteLine3.jpg	MediumShort_b10_cut1_MS_stereo_44KHz.wav
3	57	4	3	2	I	1	0	1101	0	poli_8sides 6_whiteLine3.jpg	MediumShort_e16_cut1_stereo_44KHz.wav
3	58	3	3	2	I	2	0	235	0	poli_8sides 1_whiteLine3.jpg	MediumShort_e16_cut1_stereo_44KHz.wav
3	59	1	2	0	C	2	1	615	1	poli_8sides 7_whiteLine3.jpg	MediumShort_b10_cut1_MS_stereo_44KHz.wav
3	60	2	2	1	C	1	1	640	1	poli_8sides 8_whiteLine3.jpg	MediumShort_b10_cut1_MS_stereo_44KHz.wav
3	61	1	1	1	C	1	1	1083	1	poli_8sides 7_whiteLine3.jpg	MediumShort_b16_cut3_MS_stereo_44KHz.wav
3	62	2	1	0	C	1	0	952	0	poli_8sides 8_whiteLine3.jpg	MediumShort_b16_cut3_MS_stereo_44KHz.wav
3	63	4	4	2	I	2	0	905	1	poli_8sides 6_whiteLine3.jpg	MediumShort_e22_cut1_stereo_44KHz.wav
3	64	3	4	2	I	2	0	1900	0	poli_8sides 1_whiteLine3.jpg	MediumShort_e22_cut1_stereo_44KHz.wav
3	65	2	1	0	C	1	0	763	0	poli_8sides 8_whiteLine3.jpg	MediumShort_b16_cut3_MS_stereo_44KHz.wav
3	66	4	4	2	I	2	0	715	0	poli_8sides 6_whiteLine3.jpg	MediumShort_e22_cut1_stereo_44KHz.wav
3	67	3	4	2	I	2	0	698	0	poli_8sides 1_whiteLine3.jpg	MediumShort_e22_cut1_stereo_44KHz.wav
3	68	1	1	1	C	2	0	647	0	poli_8sides 7_whiteLine3.jpg	MediumShort_b16_cut3_MS_stereo_44KHz.wav
3	69	3	3	2	I	2	0	791	1	poli_8sides 1_whiteLine3.jpg	MediumShort_e16_cut1_stereo_44KHz.wav
3	70	2	2	1	C	2	0	942	0	poli_8sides 8_whiteLine3.jpg	MediumShort_b10_cut1_MS_stereo_44KHz.wav
3	71	4	3	2	I	2	0	730	0	poli_8sides 6_whiteLine3.jpg	MediumShort_e16_cut1_stereo_44KHz.wav
3	72	1	2	0	C	2	1	503	1	poli_8sides 7_whiteLine3.jpg	MediumShort_b10_cut1_MS_stereo_44KHz.wav
3	73	3	4	2	I	2	0	626	1	poli_8sides 1_whiteLine3.jpg	MediumShort_e22_cut1_stereo_44KHz.wav
3	74	1	2	0	C	2	1	541	1	poli_8sides 7_whiteLine3.jpg	MediumShort_b10_cut1_MS_stereo_44KHz.wav
3	75	4	4	2	I	2	0	661	0	poli_8sides 6_whiteLine3.jpg	MediumShort_e22_cut1_stereo_44KHz.wav
3	76	2	1	0	C	2	1	806	1	poli_8sides 8_whiteLine3.jpg	MediumShort_b16_cut3_MS_stereo_44KHz.wav
3	77	1	1	1	C	1	1	954	1	poli_8sides 7_whiteLine3.jpg	MediumShort_b16_cut3_MS_stereo_44KHz.wav
3	78	4	3	2	I	2	0	744	0	poli_8sides 6_whiteLine3.jpg	MediumShort_e16_cut1_stereo_44KHz.wav
3	79	3	3	2	I	2	0	939	0	poli_8sides 1_whiteLine3.jpg	MediumShort_e16_cut1_stereo_44KHz.wav
3	80	2	2	1	C	2	0	1008	0	poli_8sides 8_whiteLine3.jpg	MediumShort_b10_cut1_MS_stereo_44KHz.wav
3	81	4	4	2	I	2	0	904	0	poli_8sides 6_whiteLine3.jpg	MediumShort_e22_cut1_stereo_44KHz.wav
3	82	2	1	0	C	2	1	1233	1	poli_8sides 8_whiteLine3.jpg	MediumShort_b16_cut3_MS_stereo_44KHz.wav
3	83	1	2	0	C	2	1	635	1	poli_8sides 7_whiteLine3.jpg	MediumShort_b10_cut1_MS_stereo_44KHz.wav
3	84	3	3	2	I	1	0	890	1	poli_8sides 1_whiteLine3.jpg	MediumShort_e16_cut1_stereo_44KHz.wav
3	85	1	1	1	C	2	0	1209	0	poli_8sides 7_whiteLine3.jpg	MediumShort_b16_cut3_MS_stereo_44KHz.wav
3	86	2	2	1	C	2	0	747	0	poli_8sides 8_whiteLine3.jpg	MediumShort_b10_cut1_MS_stereo_44KHz.wav
3	87	4	3	2	I	2	0	1374	0	poli_8sides 6_whiteLine3.jpg	MediumShort_e16_cut1_stereo_44KHz.wav
3	88	3	4	2	I	0	0	0	0	poli_8sides 1_whiteLine3.jpg	MediumShort_e22_cut1_stereo_44KHz.wav
3	89	2	1	0	C	2	1	716	1	poli_8sides 8_whiteLine3.jpg	MediumShort_b16_cut3_MS_stereo_44KHz.wav
3	90	4	3	2	I	1	0	863	1	poli_8sides 6_whiteLine3.jpg	MediumShort_e16_cut1_stereo_44KHz.wav
3	91	3	4	2	I	2	0	553	1	poli_8sides 1_whiteLine3.jpg	MediumShort_e22_cut1_stereo_44KHz.wav
3	92	1	1	1	C	2	0	532	0	poli_8sides 7_whiteLine3.jpg	MediumShort_b16_cut3_MS_stereo_44KHz.wav
3	93	4	4	2	I	2	0	1138	0	poli_8sides 6_whiteLine3.jpg	MediumShort_e22_cut1_stereo_44KHz.wav
3	94	1	2	0	C	2	1	575	1	poli_8sides 7_whiteLine3.jpg	MediumShort_b10_cut1_MS_stereo_44KHz.wav
3	95	3	3	2	I	1	0	837	0	poli_8sides 1_whiteLine3.jpg	MediumShort_e16_cut1_stereo_44KHz.wav
3	96	2	2	1	C	2	0	632	0	poli_8sides 8_whiteLine3.jpg	MediumShort_b10_cut1_MS_stereo_44KHz.wav
3	97	4	3	2	I	2	0	764	1	poli_8sides 6_whiteLine3.jpg	MediumShort_e16_cut1_stereo_44KHz.wav
3	98	3	3	2	I	2	0	1001	1	poli_8sides 1_whiteLine3.jpg	MediumShort_e16_cut1_stereo_44KHz.wav
3	99	1	1	1	C	2	0	828	0	poli_8sides 7_whiteLine3.jpg	MediumShort_b16_cut3_MS_stereo_44KHz.wav
3	100	2	1	0	C	2	1	1009	1	poli_8sides 8_whiteLine3.jpg	MediumShort_b16_cut3_MS_stereo_44KHz.wav
3	101	3	4	2	I	2	0	885	1	poli_8sides 1_whiteLine3.jpg	MediumShort_e22_cut1_stereo_44KHz.wav
3	102	2	2	1	C	2	0	848	0	poli_8sides 8_whiteLine3.jpg	MediumShort_b10_cut1_MS_stereo_44KHz.wav
3	103	4	4	2	I	2	0	643	1	poli_8sides 6_whiteLine3.jpg	MediumShort_e22_cut1_stereo_44KHz.wav
3	104	1	2	0	C	2	1	544	1	poli_8sides 7_whiteLine3.jpg	MediumShort_b10_cut1_MS_stereo_44KHz.wav
3	105	3	4	2	I	2	0	1059	1	poli_8sides 1_whiteLine3.jpg	MediumShort_e22_cut1_stereo_44KHz.wav
3	106	4	3	2	I	1	0	860	1	poli_8sides 6_whiteLine3.jpg	MediumShort_e16_cut1_stereo_44KHz.wav
3	107	2	1	0	C	2	1	744	1	poli_8sides 8_whiteLine3.jpg	MediumShort_b16_cut3_MS_stereo_44KHz.wav
3	108	1	2	0	C	2	1	567	1	poli_8sides 7_whiteLine3.jpg	MediumShort_b10_cut1_MS_stereo_44KHz.wav
3	109	2	2	1	C	2	0	873	0	poli_8sides 8_whiteLine3.jpg	MediumShort_b10_cut1_MS_stereo_44KHz.wav
3	110	3	3	2	I	2	0	809	1	poli_8sides 1_whiteLine3.jpg	MediumShort_e16_cut1_stereo_44KHz.wav
3	111	4	4	2	I	2	0	972	1	poli_8sides 6_whiteLine3.jpg	MediumShort_e22_cut1_stereo_44KHz.wav
3	112	1	1	1	C	2	0	853	0	poli_8sides 7_whiteLine3.jpg	MediumShort_b16_cut3_MS_stereo_44KHz.wav
3	113	3	4	2	I	2	0	1312	1	poli_8sides 1_whiteLine3.jpg	MediumShort_e22_cut1_stereo_44KHz.wav
3	114	2	1	0	C	2	1	1111	1	poli_8sides 8_whiteLine3.jpg	MediumShort_b16_cut3_MS_stereo_44KHz.wav
3	115	1	1	1	C	1	1	1026	1	poli_8sides 7_whiteLine3.jpg	MediumShort_b16_cut3_MS_stereo_44KHz.wav
3	116	4	3	2	I	1	0	836	0	poli_8sides 6_whiteLine3.jpg	MediumShort_e16_cut1_stereo_44KHz.wav
3	117	2	2	1	C	2	0	951	0	poli_8sides 8_whiteLine3.jpg	MediumShort_b10_cut1_MS_stereo_44KHz.wav
3	118	3	3	2	I	1	0	1048	0	poli_8sides 1_whiteLine3.jpg	MediumShort_e16_cut1_stereo_44KHz.wav
3	119	4	4	2	I	2	0	836	0	poli_8sides 6_whiteLine3.jpg	MediumShort_e22_cut1_stereo_44KHz.wav
3	120	1	2	0	C	2	1	868	1	poli_8sides 7_whiteLine3.jpg	MediumShort_b10_cut1_MS_stereo_44KHz.wav
3	121	2	2	1	C	2	0	678	0	poli_8sides 8_whiteLine3.jpg	MediumShort_b10_cut1_MS_stereo_44KHz.wav
3	122	1	2	0	C	2	1	665	1	poli_8sides 7_whiteLine3.jpg	MediumShort_b10_cut1_MS_stereo_44KHz.wav
3	123	4	3	2	I	1	0	937	1	poli_8sides 6_whiteLine3.jpg	MediumShort_e16_cut1_stereo_44KHz.wav
3	124	3	3	2	I	1	0	1188	1	poli_8sides 1_whiteLine3.jpg	MediumShort_e16_cut1_stereo_44KHz.wav
3	125	4	4	2	I	0	0	0	0	poli_8sides 6_whiteLine3.jpg	MediumShort_e22_cut1_stereo_44KHz.wav
3	126	3	4	2	I	2	0	674	1	poli_8sides 1_whiteLine3.jpg	MediumShort_e22_cut1_stereo_44KHz.wav
3	127	2	1	0	C	2	1	717	1	poli_8sides 8_whiteLine3.jpg	MediumShort_b16_cut3_MS_stereo_44KHz.wav
3	128	1	1	1	C	2	0	552	0	poli_8sides 7_whiteLine3.jpg	MediumShort_b16_cut3_MS_stereo_44KHz.wav
3	129	3	4	2	I	2	0	578	0	poli_8sides 1_whiteLine3.jpg	MediumShort_e22_cut1_stereo_44KHz.wav
3	130	2	2	1	C	2	0	312	0	poli_8sides 8_whiteLine3.jpg	MediumShort_b10_cut1_MS_stereo_44KHz.wav
3	131	1	1	1	C	2	0	253	0	poli_8sides 7_whiteLine3.jpg	MediumShort_b16_cut3_MS_stereo_44KHz.wav
3	132	4	4	2	I	2	0	871	0	poli_8sides 6_whiteLine3.jpg	MediumShort_e22_cut1_stereo_44KHz.wav
3	133	2	1	0	C	2	1	845	1	poli_8sides 8_whiteLine3.jpg	MediumShort_b16_cut3_MS_stereo_44KHz.wav
3	134	1	2	0	C	2	1	626	1	poli_8sides 7_whiteLine3.jpg	MediumShort_b10_cut1_MS_stereo_44KHz.wav
3	135	3	3	2	I	2	0	782	1	poli_8sides 1_whiteLine3.jpg	MediumShort_e16_cut1_stereo_44KHz.wav
3	136	4	3	2	I	1	0	850	0	poli_8sides 6_whiteLine3.jpg	MediumShort_e16_cut1_stereo_44KHz.wav
3	137	3	4	2	I	2	0	396	0	poli_8sides 1_whiteLine3.jpg	MediumShort_e22_cut1_stereo_44KHz.wav
3	138	2	1	0	C	2	1	530	1	poli_8sides 8_whiteLine3.jpg	MediumShort_b16_cut3_MS_stereo_44KHz.wav
3	139	1	1	1	C	2	0	567	0	poli_8sides 7_whiteLine3.jpg	MediumShort_b16_cut3_MS_stereo_44KHz.wav
3	140	4	3	2	I	2	0	663	1	poli_8sides 6_whiteLine3.jpg	MediumShort_e16_cut1_stereo_44KHz.wav
3	141	2	2	1	C	2	0	338	0	poli_8sides 8_whiteLine3.jpg	MediumShort_b10_cut1_MS_stereo_44KHz.wav
3	142	4	4	2	I	2	0	837	1	poli_8sides 6_whiteLine3.jpg	MediumShort_e22_cut1_stereo_44KHz.wav
3	143	3	3	2	I	2	0	1390	0	poli_8sides 1_whiteLine3.jpg	MediumShort_e16_cut1_stereo_44KHz.wav
3	144	1	2	0	C	2	1	820	1	poli_8sides 7_whiteLine3.jpg	MediumShort_b10_cut1_MS_stereo_44KHz.wav
3	145	3	4	2	I	2	0	1797	0	poli_8sides 1_whiteLine3.jpg	MediumShort_e22_cut1_stereo_44KHz.wav
3	146	1	2	0	C	2	1	584	1	poli_8sides 7_whiteLine3.jpg	MediumShort_b10_cut1_MS_stereo_44KHz.wav
3	147	2	2	1	C	2	0	947	0	poli_8sides 8_whiteLine3.jpg	MediumShort_b10_cut1_MS_stereo_44KHz.wav
3	148	4	4	2	I	1	0	900	0	poli_8sides 6_whiteLine3.jpg	MediumShort_e22_cut1_stereo_44KHz.wav
3	149	1	1	1	C	2	0	913	0	poli_8sides 7_whiteLine3.jpg	MediumShort_b16_cut3_MS_stereo_44KHz.wav
3	150	4	3	2	I	2	0	1139	0	poli_8sides 6_whiteLine3.jpg	MediumShort_e16_cut1_stereo_44KHz.wav
3	151	3	3	2	I	2	0	1007	1	poli_8sides 1_whiteLine3.jpg	MediumShort_e16_cut1_stereo_44KHz.wav
3	152	2	1	0	C	2	1	1236	1	poli_8sides 8_whiteLine3.jpg	MediumShort_b16_cut3_MS_stereo_44KHz.wav
3	153	1	1	1	C	1	1	1137	1	poli_8sides 7_whiteLine3.jpg	MediumShort_b16_cut3_MS_stereo_44KHz.wav
3	154	4	3	2	I	2	0	815	1	poli_8sides 6_whiteLine3.jpg	MediumShort_e16_cut1_stereo_44KHz.wav
3	155	2	2	1	C	2	0	1044	0	poli_8sides 8_whiteLine3.jpg	MediumShort_b10_cut1_MS_stereo_44KHz.wav
3	156	3	4	2	I	1	0	1018	1	poli_8sides 1_whiteLine3.jpg	MediumShort_e22_cut1_stereo_44KHz.wav
3	157	1	2	0	C	2	1	794	1	poli_8sides 7_whiteLine3.jpg	MediumShort_b10_cut1_MS_stereo_44KHz.wav
3	158	3	3	2	I	2	0	920	1	poli_8sides 1_whiteLine3.jpg	MediumShort_e16_cut1_stereo_44KHz.wav
3	159	2	1	0	C	2	1	619	1	poli_8sides 8_whiteLine3.jpg	MediumShort_b16_cut3_MS_stereo_44KHz.wav
3	160	4	4	2	I	2	0	460	1	poli_8sides 6_whiteLine3.jpg	MediumShort_e22_cut1_stereo_44KHz.wav
3	161	2	2	1	C	2	0	933	0	poli_8sides 8_whiteLine3.jpg	MediumShort_b10_cut1_MS_stereo_44KHz.wav
3	162	3	4	2	I	2	0	773	0	poli_8sides 1_whiteLine3.jpg	MediumShort_e22_cut1_stereo_44KHz.wav
3	163	4	4	2	I	2	0	559	0	poli_8sides 6_whiteLine3.jpg	MediumShort_e22_cut1_stereo_44KHz.wav
3	164	1	1	1	C	2	0	553	0	poli_8sides 7_whiteLine3.jpg	MediumShort_b16_cut3_MS_stereo_44KHz.wav
3	165	2	1	0	C	2	1	731	1	poli_8sides 8_whiteLine3.jpg	MediumShort_b16_cut3_MS_stereo_44KHz.wav
3	166	1	2	0	C	2	1	549	1	poli_8sides 7_whiteLine3.jpg	MediumShort_b10_cut1_MS_stereo_44KHz.wav
3	167	3	3	2	I	1	0	848	0	poli_8sides 1_whiteLine3.jpg	MediumShort_e16_cut1_stereo_44KHz.wav
3	168	4	3	2	I	2	0	251	1	poli_8sides 6_whiteLine3.jpg	MediumShort_e16_cut1_stereo_44KHz.wav
3	169	1	2	0	C	2	1	683	1	poli_8sides 7_whiteLine3.jpg	MediumShort_b10_cut1_MS_stereo_44KHz.wav
3	170	3	3	2	I	2	0	884	1	poli_8sides 1_whiteLine3.jpg	MediumShort_e16_cut1_stereo_44KHz.wav
3	171	2	2	1	C	2	0	67	0	poli_8sides 8_whiteLine3.jpg	MediumShort_b10_cut1_MS_stereo_44KHz.wav
3	172	4	4	2	I	2	0	976	1	poli_8sides 6_whiteLine3.jpg	MediumShort_e22_cut1_stereo_44KHz.wav
3	173	1	1	1	C	2	0	876	0	poli_8sides 7_whiteLine3.jpg	MediumShort_b16_cut3_MS_stereo_44KHz.wav
3	174	3	4	2	I	2	0	550	0	poli_8sides 1_whiteLine3.jpg	MediumShort_e22_cut1_stereo_44KHz.wav
3	175	2	1	0	C	2	1	626	1	poli_8sides 8_whiteLine3.jpg	MediumShort_b16_cut3_MS_stereo_44KHz.wav
3	176	4	3	2	I	2	0	740	1	poli_8sides 6_whiteLine3.jpg	MediumShort_e16_cut1_stereo_44KHz.wav
3	177	1	1	1	C	2	0	817	0	poli_8sides 7_whiteLine3.jpg	MediumShort_b16_cut3_MS_stereo_44KHz.wav
3	178	3	4	2	I	1	0	1145	0	poli_8sides 1_whiteLine3.jpg	MediumShort_e22_cut1_stereo_44KHz.wav
3	179	2	2	1	C	2	0	606	0	poli_8sides 8_whiteLine3.jpg	MediumShort_b10_cut1_MS_stereo_44KHz.wav
3	180	4	3	2	I	2	0	692	1	poli_8sides 6_whiteLine3.jpg	MediumShort_e16_cut1_stereo_44KHz.wav
3	181	3	3	2	I	1	0	998	0	poli_8sides 1_whiteLine3.jpg	MediumShort_e16_cut1_stereo_44KHz.wav
3	182	4	4	2	I	2	0	592	0	poli_8sides 6_whiteLine3.jpg	MediumShort_e22_cut1_stereo_44KHz.wav
3	183	1	2	0	C	2	1	659	1	poli_8sides 7_whiteLine3.jpg	MediumShort_b10_cut1_MS_stereo_44KHz.wav
3	184	2	1	0	C	2	1	571	1	poli_8sides 8_whiteLine3.jpg	MediumShort_b16_cut3_MS_stereo_44KHz.wav
3	185	3	3	2	I	1	0	706	1	poli_8sides 1_whiteLine3.jpg	MediumShort_e16_cut1_stereo_44KHz.wav
3	186	1	1	1	C	2	0	640	0	poli_8sides 7_whiteLine3.jpg	MediumShort_b16_cut3_MS_stereo_44KHz.wav
3	187	4	3	2	I	2	0	699	1	poli_8sides 6_whiteLine3.jpg	MediumShort_e16_cut1_stereo_44KHz.wav
3	188	2	1	0	C	2	1	823	1	poli_8sides 8_whiteLine3.jpg	MediumShort_b16_cut3_MS_stereo_44KHz.wav
3	189	3	4	2	I	2	0	503	0	poli_8sides 1_whiteLine3.jpg	MediumShort_e22_cut1_stereo_44KHz.wav
3	190	2	2	1	C	2	0	577	0	poli_8sides 8_whiteLine3.jpg	MediumShort_b10_cut1_MS_stereo_44KHz.wav
3	191	1	2	0	C	2	1	514	1	poli_8sides 7_whiteLine3.jpg	MediumShort_b10_cut1_MS_stereo_44KHz.wav
3	192	4	4	2	I	2	0	719	1	poli_8sides 6_whiteLine3.jpg	MediumShort_e22_cut1_stereo_44KHz.wav
3	193	1	2	0	C	2	1	598	1	poli_8sides 7_whiteLine3.jpg	MediumShort_b10_cut1_MS_stereo_44KHz.wav
3	194	3	4	2	I	1	0	850	0	poli_8sides 1_whiteLine3.jpg	MediumShort_e22_cut1_stereo_44KHz.wav
3	195	4	4	2	I	2	0	624	0	poli_8sides 6_whiteLine3.jpg	MediumShort_e22_cut1_stereo_44KHz.wav
3	196	2	1	0	C	2	1	909	1	poli_8sides 8_whiteLine3.jpg	MediumShort_b16_cut3_MS_stereo_44KHz.wav
3	197	3	3	2	I	1	0	780	1	poli_8sides 1_whiteLine3.jpg	MediumShort_e16_cut1_stereo_44KHz.wav
3	198	4	3	2	I	2	0	552	1	poli_8sides 6_whiteLine3.jpg	MediumShort_e16_cut1_stereo_44KHz.wav
3	199	1	1	1	C	2	0	563	0	poli_8sides 7_whiteLine3.jpg	MediumShort_b16_cut3_MS_stereo_44KHz.wav
3	200	2	2	1	C	2	0	678	0	poli_8sides 8_whiteLine3.jpg	MediumShort_b10_cut1_MS_stereo_44KHz.wav
4	1	2	1	0	C	0	0	0	0	poli_8sides 3_whiteLine3.jpg	Short_b20_cut1_stereo_44KHz.wav
4	2	3	3	2	I	2	0	900	1	poli_8sides 10_whiteLine3.jpg	Short_b22_cut1_stereo_44KHz.wav
4	3	4	4	2	I	1	0	852	0	poli_8sides 16_whiteLine3.jpg	Short_b23_cut1_stereo_44KHz.wav
4	4	1	2	0	C	1	0	854	0	poli_8sides 9_whiteLine3.jpg	Short_b09_cut1_stereo_44KHz.wav
4	5	3	4	2	I	2	0	713	0	poli_8sides 10_whiteLine3.jpg	Short_b23_cut1_stereo_44KHz.wav
4	6	2	2	1	C	1	1	876	1	poli_8sides 3_whiteLine3.jpg	Short_b09_cut1_stereo_44KHz.wav
4	7	4	3	2	I	2	0	813	1	poli_8sides 16_whiteLine3.jpg	Short_b22_cut1_stereo_44KHz.wav
4	8	1	1	1	C	2	0	1270	0	poli_8sides 9_whiteLine3.jpg	Short_b20_cut1_stereo_44KHz.wav
4	9	4	4	2	I	2	0	473	1	poli_8sides 16_whiteLine3.jpg	Short_b23_cut1_stereo_44KHz.wav
4	10	3	4	2	I	2	0	512	1	poli_8sides 10_whiteLine3.jpg	Short_b23_cut1_stereo_44KHz.wav
4	11	2	2	1	C	2	0	714	0	poli_8sides 3_whiteLine3.jpg	Short_b09_cut1_stereo_44KHz.wav
4	12	1	1	1	C	2	0	657	0	poli_8sides 9_whiteLine3.jpg	Short_b20_cut1_stereo_44KHz.wav
4	13	4	3	2	I	2	0	427	0	poli_8sides 16_whiteLine3.jpg	Short_b22_cut1_stereo_44KHz.wav
4	14	3	3	2	I	2	0	762	0	poli_8sides 10_whiteLine3.jpg	Short_b22_cut1_stereo_44KHz.wav
4	15	2	1	0	C	1	0	754	0	poli_8sides 3_whiteLine3.jpg	Short_b20_cut1_stereo_44KHz.wav
4	16	1	2	0	C	2	1	926	1	poli_8sides 9_whiteLine3.jpg	Short_b09_cut1_stereo_44KHz.wav
4	17	2	1	0	C	2	1	872	1	poli_8sides 3_whiteLine3.jpg	Short_b20_cut1_stereo_44KHz.wav
4	18	4	4	2	I	1	0	758	0	poli_8sides 16_whiteLine3.jpg	Short_b23_cut1_stereo_44KHz.wav
4	19	3	3	2	I	2	0	1220	1	poli_8sides 10_whiteLine3.jpg	Short_b22_cut1_stereo_44KHz.wav
4	20	1	1	1	C	2	0	659	0	poli_8sides 9_whiteLine3.jpg	Short_b20_cut1_stereo_44KHz.wav
4	21	2	2	1	C	2	0	504	0	poli_8sides 3_whiteLine3.jpg	Short_b09_cut1_stereo_44KHz.wav
4	22	1	2	0	C	2	1	1109	1	poli_8sides 9_whiteLine3.jpg	Short_b09_cut1_stereo_44KHz.wav
4	23	3	4	2	I	2	0	880	0	poli_8sides 10_whiteLine3.jpg	Short_b23_cut1_stereo_44KHz.wav
4	24	4	3	2	I	2	0	800	0	poli_8sides 16_whiteLine3.jpg	Short_b22_cut1_stereo_44KHz.wav
4	25	1	1	1	C	2	0	777	0	poli_8sides 9_whiteLine3.jpg	Short_b20_cut1_stereo_44KHz.wav
4	26	4	4	2	I	2	0	575	1	poli_8sides 16_whiteLine3.jpg	Short_b23_cut1_stereo_44KHz.wav
4	27	3	3	2	I	2	0	611	1	poli_8sides 10_whiteLine3.jpg	Short_b22_cut1_stereo_44KHz.wav
4	28	2	2	1	C	2	0	861	0	poli_8sides 3_whiteLine3.jpg	Short_b09_cut1_stereo_44KHz.wav
4	29	4	3	2	I	2	0	806	1	poli_8sides 16_whiteLine3.jpg	Short_b22_cut1_stereo_44KHz.wav
4	30	1	2	0	C	2	1	1006	1	poli_8sides 9_whiteLine3.jpg	Short_b09_cut1_stereo_44KHz.wav
4	31	2	1	0	C	2	1	578	1	poli_8sides 3_whiteLine3.jpg	Short_b20_cut1_stereo_44KHz.wav
4	32	3	4	2	I	2	0	627	1	poli_8sides 10_whiteLine3.jpg	Short_b23_cut1_stereo_44KHz.wav
4	33	1	2	0	C	2	1	915	1	poli_8sides 9_whiteLine3.jpg	Short_b09_cut1_stereo_44KHz.wav
4	34	3	3	2	I	2	0	617	0	poli_8sides 10_whiteLine3.jpg	Short_b22_cut1_stereo_44KHz.wav
4	35	4	4	2	I	2	0	1522	0	poli_8sides 16_whiteLine3.jpg	Short_b23_cut1_stereo_44KHz.wav
4	36	2	2	1	C	2	0	666	0	poli_8sides 3_whiteLine3.jpg	Short_b09_cut1_stereo_44KHz.wav
4	37	4	3	2	I	2	0	732	0	poli_8sides 16_whiteLine3.jpg	Short_b22_cut1_stereo_44KHz.wav
4	38	2	1	0	C	2	1	693	1	poli_8sides 3_whiteLine3.jpg	Short_b20_cut1_stereo_44KHz.wav
4	39	1	1	1	C	2	0	920	0	poli_8sides 9_whiteLine3.jpg	Short_b20_cut1_stereo_44KHz.wav
4	40	3	4	2	I	2	0	773	1	poli_8sides 10_whiteLine3.jpg	Short_b23_cut1_stereo_44KHz.wav
4	41	2	1	0	C	2	1	660	1	poli_8sides 3_whiteLine3.jpg	Short_b20_cut1_stereo_44KHz.wav
4	42	4	3	2	I	2	0	1266	1	poli_8sides 16_whiteLine3.jpg	Short_b22_cut1_stereo_44KHz.wav
4	43	3	3	2	I	2	0	1450	0	poli_8sides 10_whiteLine3.jpg	Short_b22_cut1_stereo_44KHz.wav
4	44	1	2	0	C	2	1	692	1	poli_8sides 9_whiteLine3.jpg	Short_b09_cut1_stereo_44KHz.wav
4	45	2	2	1	C	2	0	542	0	poli_8sides 3_whiteLine3.jpg	Short_b09_cut1_stereo_44KHz.wav
4	46	4	4	2	I	2	0	749	0	poli_8sides 16_whiteLine3.jpg	Short_b23_cut1_stereo_44KHz.wav
4	47	3	4	2	I	2	0	731	1	poli_8sides 10_whiteLine3.jpg	Short_b23_cut1_stereo_44KHz.wav
4	48	1	1	1	C	2	0	948	0	poli_8sides 9_whiteLine3.jpg	Short_b20_cut1_stereo_44KHz.wav
4	49	4	4	2	I	2	0	1038	1	poli_8sides 16_whiteLine3.jpg	Short_b23_cut1_stereo_44KHz.wav
4	50	1	2	0	C	2	1	986	1	poli_8sides 9_whiteLine3.jpg	Short_b09_cut1_stereo_44KHz.wav
4	51	2	1	0	C	1	0	898	0	poli_8sides 3_whiteLine3.jpg	Short_b20_cut1_stereo_44KHz.wav
4	52	3	3	2	I	2	0	567	1	poli_8sides 10_whiteLine3.jpg	Short_b22_cut1_stereo_44KHz.wav
4	53	4	3	2	I	1	0	950	1	poli_8sides 16_whiteLine3.jpg	Short_b22_cut1_stereo_44KHz.wav
4	54	2	2	1	C	2	0	671	0	poli_8sides 3_whiteLine3.jpg	Short_b09_cut1_stereo_44KHz.wav
4	55	3	4	2	I	2	0	421	1	poli_8sides 10_whiteLine3.jpg	Short_b23_cut1_stereo_44KHz.wav
4	56	1	1	1	C	2	0	979	0	poli_8sides 9_whiteLine3.jpg	Short_b20_cut1_stereo_44KHz.wav
4	57	4	3	2	I	2	0	945	1	poli_8sides 16_whiteLine3.jpg	Short_b22_cut1_stereo_44KHz.wav
4	58	1	2	0	C	2	1	624	1	poli_8sides 9_whiteLine3.jpg	Short_b09_cut1_stereo_44KHz.wav
4	59	2	2	1	C	2	0	506	0	poli_8sides 3_whiteLine3.jpg	Short_b09_cut1_stereo_44KHz.wav
4	60	3	3	2	I	2	0	558	1	poli_8sides 10_whiteLine3.jpg	Short_b22_cut1_stereo_44KHz.wav
4	61	4	4	2	I	1	0	980	1	poli_8sides 16_whiteLine3.jpg	Short_b23_cut1_stereo_44KHz.wav
4	62	1	1	1	C	2	0	663	0	poli_8sides 9_whiteLine3.jpg	Short_b20_cut1_stereo_44KHz.wav
4	63	3	4	2	I	2	0	805	0	poli_8sides 10_whiteLine3.jpg	Short_b23_cut1_stereo_44KHz.wav
4	64	2	1	0	C	2	1	919	1	poli_8sides 3_whiteLine3.jpg	Short_b20_cut1_stereo_44KHz.wav
4	65	3	4	2	I	2	0	792	0	poli_8sides 10_whiteLine3.jpg	Short_b23_cut1_stereo_44KHz.wav
4	66	4	4	2	I	2	0	1028	0	poli_8sides 16_whiteLine3.jpg	Short_b23_cut1_stereo_44KHz.wav
4	67	1	2	0	C	2	1	710	1	poli_8sides 9_whiteLine3.jpg	Short_b09_cut1_stereo_44KHz.wav
4	68	2	2	1	C	1	1	864	1	poli_8sides 3_whiteLine3.jpg	Short_b09_cut1_stereo_44KHz.wav
4	69	3	3	2	I	2	0	699	1	poli_8sides 10_whiteLine3.jpg	Short_b22_cut1_stereo_44KHz.wav
4	70	1	1	1	C	1	1	998	1	poli_8sides 9_whiteLine3.jpg	Short_b20_cut1_stereo_44KHz.wav
4	71	4	3	2	I	2	0	575	0	poli_8sides 16_whiteLine3.jpg	Short_b22_cut1_stereo_44KHz.wav
4	72	2	1	0	C	2	1	739	1	poli_8sides 3_whiteLine3.jpg	Short_b20_cut1_stereo_44KHz.wav
4	73	1	2	0	C	2	1	1125	1	poli_8sides 9_whiteLine3.jpg	Short_b09_cut1_stereo_44KHz.wav
4	74	3	3	2	I	2	0	542	0	poli_8sides 10_whiteLine3.jpg	Short_b22_cut1_stereo_44KHz.wav
4	75	2	2	1	C	1	1	694	1	poli_8sides 3_whiteLine3.jpg	Short_b09_cut1_stereo_44KHz.wav
4	76	4	4	2	I	1	0	642	0	poli_8sides 16_whiteLine3.jpg	Short_b23_cut1_stereo_44KHz.wav
4	77	1	1	1	C	1	1	755	1	poli_8sides 9_whiteLine3.jpg	Short_b20_cut1_stereo_44KHz.wav
4	78	4	3	2	I	2	0	942	0	poli_8sides 16_whiteLine3.jpg	Short_b22_cut1_stereo_44KHz.wav
4	79	2	1	0	C	2	1	770	1	poli_8sides 3_whiteLine3.jpg	Short_b20_cut1_stereo_44KHz.wav
4	80	3	4	2	I	1	0	1133	0	poli_8sides 10_whiteLine3.jpg	Short_b23_cut1_stereo_44KHz.wav
4	81	1	1	1	C	1	1	704	1	poli_8sides 9_whiteLine3.jpg	Short_b20_cut1_stereo_44KHz.wav
4	82	3	3	2	I	2	0	585	0	poli_8sides 10_whiteLine3.jpg	Short_b22_cut1_stereo_44KHz.wav
4	83	2	2	1	C	1	1	779	1	poli_8sides 3_whiteLine3.jpg	Short_b09_cut1_stereo_44KHz.wav
4	84	4	4	2	I	1	0	1049	0	poli_8sides 16_whiteLine3.jpg	Short_b23_cut1_stereo_44KHz.wav
4	85	2	1	0	C	2	1	916	1	poli_8sides 3_whiteLine3.jpg	Short_b20_cut1_stereo_44KHz.wav
4	86	3	4	2	I	2	0	1405	0	poli_8sides 10_whiteLine3.jpg	Short_b23_cut1_stereo_44KHz.wav
4	87	1	2	0	C	1	0	851	0	poli_8sides 9_whiteLine3.jpg	Short_b09_cut1_stereo_44KHz.wav
4	88	4	3	2	I	2	0	1521	1	poli_8sides 16_whiteLine3.jpg	Short_b22_cut1_stereo_44KHz.wav
4	89	1	2	0	C	1	0	772	0	poli_8sides 9_whiteLine3.jpg	Short_b09_cut1_stereo_44KHz.wav
4	90	2	2	1	C	1	1	793	1	poli_8sides 3_whiteLine3.jpg	Short_b09_cut1_stereo_44KHz.wav
4	91	3	4	2	I	2	0	951	0	poli_8sides 10_whiteLine3.jpg	Short_b23_cut1_stereo_44KHz.wav
4	92	4	3	2	I	2	0	736	0	poli_8sides 16_whiteLine3.jpg	Short_b22_cut1_stereo_44KHz.wav
4	93	2	1	0	C	2	1	896	1	poli_8sides 3_whiteLine3.jpg	Short_b20_cut1_stereo_44KHz.wav
4	94	3	3	2	I	2	0	857	0	poli_8sides 10_whiteLine3.jpg	Short_b22_cut1_stereo_44KHz.wav
4	95	4	4	2	I	2	0	792	1	poli_8sides 16_whiteLine3.jpg	Short_b23_cut1_stereo_44KHz.wav
4	96	1	1	1	C	2	0	1169	0	poli_8sides 9_whiteLine3.jpg	Short_b20_cut1_stereo_44KHz.wav
4	97	4	4	2	I	2	0	401	1	poli_8sides 16_whiteLine3.jpg	Short_b23_cut1_stereo_44KHz.wav
4	98	1	2	0	C	2	1	936	1	poli_8sides 9_whiteLine3.jpg	Short_b09_cut1_stereo_44KHz.wav
4	99	2	1	0	C	2	1	976	1	poli_8sides 3_whiteLine3.jpg	Short_b20_cut1_stereo_44KHz.wav
4	100	3	3	2	I	2	0	1501	1	poli_8sides 10_whiteLine3.jpg	Short_b22_cut1_stereo_44KHz.wav
4	101	2	2	1	C	1	1	687	1	poli_8sides 3_whiteLine3.jpg	Short_b09_cut1_stereo_44KHz.wav
4	102	3	4	2	I	2	0	1464	1	poli_8sides 10_whiteLine3.jpg	Short_b23_cut1_stereo_44KHz.wav
4	103	4	3	2	I	2	0	882	1	poli_8sides 16_whiteLine3.jpg	Short_b22_cut1_stereo_44KHz.wav
4	104	1	1	1	C	1	1	1570	1	poli_8sides 9_whiteLine3.jpg	Short_b20_cut1_stereo_44KHz.wav
4	105	3	3	2	I	1	0	944	0	poli_8sides 10_whiteLine3.jpg	Short_b22_cut1_stereo_44KHz.wav
4	106	2	2	1	C	2	0	994	0	poli_8sides 3_whiteLine3.jpg	Short_b09_cut1_stereo_44KHz.wav
4	107	4	4	2	I	0	0	0	0	poli_8sides 16_whiteLine3.jpg	Short_b23_cut1_stereo_44KHz.wav
4	108	1	1	1	C	2	0	1643	0	poli_8sides 9_whiteLine3.jpg	Short_b20_cut1_stereo_44KHz.wav
4	109	2	1	0	C	2	1	918	1	poli_8sides 3_whiteLine3.jpg	Short_b20_cut1_stereo_44KHz.wav
4	110	1	2	0	C	2	1	864	1	poli_8sides 9_whiteLine3.jpg	Short_b09_cut1_stereo_44KHz.wav
4	111	4	3	2	I	1	0	722	0	poli_8sides 16_whiteLine3.jpg	Short_b22_cut1_stereo_44KHz.wav
4	112	3	4	2	I	2	0	515	1	poli_8sides 10_whiteLine3.jpg	Short_b23_cut1_stereo_44KHz.wav
4	113	1	1	1	C	1	1	746	1	poli_8sides 9_whiteLine3.jpg	Short_b20_cut1_stereo_44KHz.wav
4	114	4	4	2	I	2	0	701	1	poli_8sides 16_whiteLine3.jpg	Short_b23_cut1_stereo_44KHz.wav
4	115	3	3	2	I	2	0	654	0	poli_8sides 10_whiteLine3.jpg	Short_b22_cut1_stereo_44KHz.wav
4	116	2	2	1	C	2	0	719	0	poli_8sides 3_whiteLine3.jpg	Short_b09_cut1_stereo_44KHz.wav
4	117	1	2	0	C	2	1	953	1	poli_8sides 9_whiteLine3.jpg	Short_b09_cut1_stereo_44KHz.wav
4	118	2	1	0	C	2	1	1317	1	poli_8sides 3_whiteLine3.jpg	Short_b20_cut1_stereo_44KHz.wav
4	119	4	3	2	I	2	0	627	0	poli_8sides 16_whiteLine3.jpg	Short_b22_cut1_stereo_44KHz.wav
4	120	3	4	2	I	0	0	0	0	poli_8sides 10_whiteLine3.jpg	Short_b23_cut1_stereo_44KHz.wav
4	121	1	1	1	C	2	0	323	0	poli_8sides 9_whiteLine3.jpg	Short_b20_cut1_stereo_44KHz.wav
4	122	2	1	0	C	2	1	303	1	poli_8sides 3_whiteLine3.jpg	Short_b20_cut1_stereo_44KHz.wav
4	123	4	3	2	I	2	0	625	1	poli_8sides 16_whiteLine3.jpg	Short_b22_cut1_stereo_44KHz.wav
4	124	3	4	2	I	2	0	550	1	poli_8sides 10_whiteLine3.jpg	Short_b23_cut1_stereo_44KHz.wav
4	125	2	2	1	C	1	1	792	1	poli_8sides 3_whiteLine3.jpg	Short_b09_cut1_stereo_44KHz.wav
4	126	3	3	2	I	2	0	481	0	poli_8sides 10_whiteLine3.jpg	Short_b22_cut1_stereo_44KHz.wav
4	127	4	4	2	I	2	0	725	0	poli_8sides 16_whiteLine3.jpg	Short_b23_cut1_stereo_44KHz.wav
4	128	1	2	0	C	2	1	728	1	poli_8sides 9_whiteLine3.jpg	Short_b09_cut1_stereo_44KHz.wav
4	129	4	3	2	I	2	0	731	1	poli_8sides 16_whiteLine3.jpg	Short_b22_cut1_stereo_44KHz.wav
4	130	2	2	1	C	2	0	1033	0	poli_8sides 3_whiteLine3.jpg	Short_b09_cut1_stereo_44KHz.wav
4	131	3	4	2	I	2	0	592	1	poli_8sides 10_whiteLine3.jpg	Short_b23_cut1_stereo_44KHz.wav
4	132	1	2	0	C	2	1	783	1	poli_8sides 9_whiteLine3.jpg	Short_b09_cut1_stereo_44KHz.wav
4	133	3	3	2	I	2	0	507	1	poli_8sides 10_whiteLine3.jpg	Short_b22_cut1_stereo_44KHz.wav
4	134	2	1	0	C	2	1	751	1	poli_8sides 3_whiteLine3.jpg	Short_b20_cut1_stereo_44KHz.wav
4	135	1	1	1	C	1	1	862	1	poli_8sides 9_whiteLine3.jpg	Short_b20_cut1_stereo_44KHz.wav
4	136	4	4	2	I	2	0	857	1	poli_8sides 16_whiteLine3.jpg	Short_b23_cut1_stereo_44KHz.wav
4	137	2	1	0	C	2	1	922	1	poli_8sides 3_whiteLine3.jpg	Short_b20_cut1_stereo_44KHz.wav
4	138	1	1	1	C	1	1	1234	1	poli_8sides 9_whiteLine3.jpg	Short_b20_cut1_stereo_44KHz.wav
4	139	3	3	2	I	2	0	385	1	poli_8sides 10_whiteLine3.jpg	Short_b22_cut1_stereo_44KHz.wav
4	140	4	3	2	I	0	0	0	0	poli_8sides 16_whiteLine3.jpg	Short_b22_cut1_stereo_44KHz.wav
4	141	1	2	0	C	1	0	981	0	poli_8sides 9_whiteLine3.jpg	Short_b09_cut1_stereo_44KHz.wav
4	142	4	4	2	I	2	0	498	0	poli_8sides 16_whiteLine3.jpg	Short_b23_cut1_stereo_44KHz.wav
4	143	2	2	1	C	2	0	288	0	poli_8sides 3_whiteLine3.jpg	Short_b09_cut1_stereo_44KHz.wav
4	144	3	4	2	I	2	0	180	0	poli_8sides 10_whiteLine3.jpg	Short_b23_cut1_stereo_44KHz.wav
4	145	4	3	2	I	2	0	640	0	poli_8sides 16_whiteLine3.jpg	Short_b22_cut1_stereo_44KHz.wav
4	146	1	1	1	C	2	0	639	0	poli_8sides 9_whiteLine3.jpg	Short_b20_cut1_stereo_44KHz.wav
4	147	2	1	0	C	2	1	763	1	poli_8sides 3_whiteLine3.jpg	Short_b20_cut1_stereo_44KHz.wav
4	148	3	3	2	I	2	0	628	0	poli_8sides 10_whiteLine3.jpg	Short_b22_cut1_stereo_44KHz.wav
4	149	4	4	2	I	2	0	539	1	poli_8sides 16_whiteLine3.jpg	Short_b23_cut1_stereo_44KHz.wav
4	150	2	2	1	C	2	0	678	0	poli_8sides 3_whiteLine3.jpg	Short_b09_cut1_stereo_44KHz.wav
4	151	3	4	2	I	2	0	566	1	poli_8sides 10_whiteLine3.jpg	Short_b23_cut1_stereo_44KHz.wav
4	152	1	2	0	C	2	1	796	1	poli_8sides 9_whiteLine3.jpg	Short_b09_cut1_stereo_44KHz.wav
4	153	2	2	1	C	1	1	917	1	poli_8sides 3_whiteLine3.jpg	Short_b09_cut1_stereo_44KHz.wav
4	154	1	2	0	C	2	1	814	1	poli_8sides 9_whiteLine3.jpg	Short_b09_cut1_stereo_44KHz.wav
4	155	3	3	2	I	2	0	587	0	poli_8sides 10_whiteLine3.jpg	Short_b22_cut1_stereo_44KHz.wav
4	156	4	3	2	I	2	0	1151	1	poli_8sides 16_whiteLine3.jpg	Short_b22_cut1_stereo_44KHz.wav
4	157	2	1	0	C	1	0	1143	0	poli_8sides 3_whiteLine3.jpg	Short_b20_cut1_stereo_44KHz.wav
4	158	1	1	1	C	0	0	0	0	poli_8sides 9_whiteLine3.jpg	Short_b20_cut1_stereo_44KHz.wav
4	159	4	4	2	I	2	0	505	0	poli_8sides 16_whiteLine3.jpg	Short_b23_cut1_stereo_44KHz.wav
4	160	3	4	2	I	0	0	0	0	poli_8sides 10_whiteLine3.jpg	Short_b23_cut1_stereo_44KHz.wav
4	161	4	4	2	I	2	0	806	0	poli_8sides 16_whiteLine3.jpg	Short_b23_cut1_stereo_44KHz.wav
4	162	2	2	1	C	2	0	586	0	poli_8sides 3_whiteLine3.jpg	Short_b09_cut1_stereo_44KHz.wav
4	163	1	2	0	C	2	1	188	1	poli_8sides 9_whiteLine3.jpg	Short_b09_cut1_stereo_44KHz.wav
4	164	3	3	2	I	2	0	680	0	poli_8sides 10_whiteLine3.jpg	Short_b22_cut1_stereo_44KHz.wav
4	165	1	1	1	C	1	1	957	1	poli_8sides 9_whiteLine3.jpg	Short_b20_cut1_stereo_44KHz.wav
4	166	2	1	0	C	2	1	777	1	poli_8sides 3_whiteLine3.jpg	Short_b20_cut1_stereo_44KHz.wav
4	167	4	3	2	I	2	0	598	1	poli_8sides 16_whiteLine3.jpg	Short_b22_cut1_stereo_44KHz.wav
4	168	3	4	2	I	2	0	554	0	poli_8sides 10_whiteLine3.jpg	Short_b23_cut1_stereo_44KHz.wav
4	169	4	4	2	I	2	0	760	1	poli_8sides 16_whiteLine3.jpg	Short_b23_cut1_stereo_44KHz.wav
4	170	3	4	2	I	2	0	843	0	poli_8sides 10_whiteLine3.jpg	Short_b23_cut1_stereo_44KHz.wav
4	171	2	2	1	C	1	1	1606	1	poli_8sides 3_whiteLine3.jpg	Short_b09_cut1_stereo_44KHz.wav
4	172	1	2	0	C	1	0	1235	0	poli_8sides 9_whiteLine3.jpg	Short_b09_cut1_stereo_44KHz.wav
4	173	4	3	2	I	2	0	793	0	poli_8sides 16_whiteLine3.jpg	Short_b22_cut1_stereo_44KHz.wav
4	174	3	3	2	I	2	0	770	0	poli_8sides 10_whiteLine3.jpg	Short_b22_cut1_stereo_44KHz.wav
4	175	1	1	1	C	1	1	751	1	poli_8sides 9_whiteLine3.jpg	Short_b20_cut1_stereo_44KHz.wav
4	176	2	1	0	C	2	1	504	1	poli_8sides 3_whiteLine3.jpg	Short_b20_cut1_stereo_44KHz.wav
4	177	1	1	1	C	1	1	908	1	poli_8sides 9_whiteLine3.jpg	Short_b20_cut1_stereo_44KHz.wav
4	178	3	4	2	I	2	0	621	0	poli_8sides 10_whiteLine3.jpg	Short_b23_cut1_stereo_44KHz.wav
4	179	2	2	1	C	2	0	583	0	poli_8sides 3_whiteLine3.jpg	Short_b09_cut1_stereo_44KHz.wav
4	180	4	4	2	I	2	0	441	0	poli_8sides 16_whiteLine3.jpg	Short_b23_cut1_stereo_44KHz.wav
4	181	2	1	0	C	2	1	665	1	poli_8sides 3_whiteLine3.jpg	Short_b20_cut1_stereo_44KHz.wav
4	182	1	2	0	C	1	0	862	0	poli_8sides 9_whiteLine3.jpg	Short_b09_cut1_stereo_44KHz.wav
4	183	4	3	2	I	2	0	620	1	poli_8sides 16_whiteLine3.jpg	Short_b22_cut1_stereo_44KHz.wav
4	184	3	3	2	I	2	0	1151	1	poli_8sides 10_whiteLine3.jpg	Short_b22_cut1_stereo_44KHz.wav
4	185	1	2	0	C	2	1	1210	1	poli_8sides 9_whiteLine3.jpg	Short_b09_cut1_stereo_44KHz.wav
4	186	2	2	1	C	2	0	1513	0	poli_8sides 3_whiteLine3.jpg	Short_b09_cut1_stereo_44KHz.wav
4	187	3	3	2	I	2	0	837	1	poli_8sides 10_whiteLine3.jpg	Short_b22_cut1_stereo_44KHz.wav
4	188	4	4	2	I	2	0	662	1	poli_8sides 16_whiteLine3.jpg	Short_b23_cut1_stereo_44KHz.wav
4	189	2	1	0	C	1	0	688	0	poli_8sides 3_whiteLine3.jpg	Short_b20_cut1_stereo_44KHz.wav
4	190	4	3	2	I	2	0	716	1	poli_8sides 16_whiteLine3.jpg	Short_b22_cut1_stereo_44KHz.wav
4	191	3	4	2	I	2	0	845	1	poli_8sides 10_whiteLine3.jpg	Short_b23_cut1_stereo_44KHz.wav
4	192	1	1	1	C	1	1	824	1	poli_8sides 9_whiteLine3.jpg	Short_b20_cut1_stereo_44KHz.wav
4	193	3	3	2	I	2	0	899	1	poli_8sides 10_whiteLine3.jpg	Short_b22_cut1_stereo_44KHz.wav
4	194	2	1	0	C	2	1	749	1	poli_8sides 3_whiteLine3.jpg	Short_b20_cut1_stereo_44KHz.wav
4	195	1	2	0	C	2	1	769	1	poli_8sides 9_whiteLine3.jpg	Short_b09_cut1_stereo_44KHz.wav
4	196	4	3	2	I	2	0	838	0	poli_8sides 16_whiteLine3.jpg	Short_b22_cut1_stereo_44KHz.wav
4	197	3	4	2	I	0	0	0	0	poli_8sides 10_whiteLine3.jpg	Short_b23_cut1_stereo_44KHz.wav
4	198	1	1	1	C	2	0	444	0	poli_8sides 9_whiteLine3.jpg	Short_b20_cut1_stereo_44KHz.wav
4	199	4	4	2	I	2	0	492	0	poli_8sides 16_whiteLine3.jpg	Short_b23_cut1_stereo_44KHz.wav
4	200	2	2	1	C	2	0	319	0	poli_8sides 3_whiteLine3.jpg	Short_b09_cut1_stereo_44KHz.wav
