block	trial	Vstim	Astim	match	C/I	resp	result	RT	fb	V-file	A-file
RL

0	1	1	1	1	C	2	0	1130	0	poli_8sides 22_whiteLine3.jpg	Practice2_b27_cut2_stereo_44KHz.wav
0	2	1	2	0	C	2	1	1088	1	poli_8sides 22_whiteLine3.jpg	Practice3_b26_cut1_stereo_44KHz.wav
0	3	2	4	0	C	2	1	1430	1	poli_8sides 24_whiteLine3.jpg	Practice1_b27_cut1_stereo_44KHz.wav
0	4	2	3	1	C	1	1	768	1	poli_8sides 24_whiteLine3.jpg	Practice4_b26_stereo_44KHz.wav
0	5	2	3	1	C	2	0	1170	0	poli_8sides 24_whiteLine3.jpg	Practice4_b26_stereo_44KHz.wav
0	6	1	2	0	C	2	1	888	1	poli_8sides 22_whiteLine3.jpg	Practice3_b26_cut1_stereo_44KHz.wav
0	7	1	1	1	C	1	1	789	1	poli_8sides 22_whiteLine3.jpg	Practice2_b27_cut2_stereo_44KHz.wav
0	8	2	4	0	C	2	1	998	1	poli_8sides 24_whiteLine3.jpg	Practice1_b27_cut1_stereo_44KHz.wav
0	9	1	2	0	C	2	1	879	1	poli_8sides 22_whiteLine3.jpg	Practice3_b26_cut1_stereo_44KHz.wav
0	10	2	3	1	C	2	0	1063	0	poli_8sides 24_whiteLine3.jpg	Practice4_b26_stereo_44KHz.wav
0	11	1	1	1	C	1	1	1054	1	poli_8sides 22_whiteLine3.jpg	Practice2_b27_cut2_stereo_44KHz.wav
0	12	2	4	0	C	1	0	1085	0	poli_8sides 24_whiteLine3.jpg	Practice1_b27_cut1_stereo_44KHz.wav
0	13	2	3	1	C	2	0	879	0	poli_8sides 24_whiteLine3.jpg	Practice4_b26_stereo_44KHz.wav
0	14	1	1	1	C	2	0	1223	0	poli_8sides 22_whiteLine3.jpg	Practice2_b27_cut2_stereo_44KHz.wav
0	15	2	4	0	C	2	1	1770	1	poli_8sides 24_whiteLine3.jpg	Practice1_b27_cut1_stereo_44KHz.wav
0	16	1	2	0	C	2	1	810	1	poli_8sides 22_whiteLine3.jpg	Practice3_b26_cut1_stereo_44KHz.wav
0	17	1	1	1	C	1	1	930	1	poli_8sides 22_whiteLine3.jpg	Practice2_b27_cut2_stereo_44KHz.wav
0	18	1	2	0	C	2	1	916	1	poli_8sides 22_whiteLine3.jpg	Practice3_b26_cut1_stereo_44KHz.wav
0	19	2	4	0	C	2	1	826	1	poli_8sides 24_whiteLine3.jpg	Practice1_b27_cut1_stereo_44KHz.wav
0	20	2	3	1	C	1	1	1049	1	poli_8sides 24_whiteLine3.jpg	Practice4_b26_stereo_44KHz.wav
0	21	2	4	0	C	2	1	759	1	poli_8sides 24_whiteLine3.jpg	Practice1_b27_cut1_stereo_44KHz.wav
0	22	1	1	1	C	1	1	936	1	poli_8sides 22_whiteLine3.jpg	Practice2_b27_cut2_stereo_44KHz.wav
0	23	2	3	1	C	1	1	999	1	poli_8sides 24_whiteLine3.jpg	Practice4_b26_stereo_44KHz.wav
0	24	1	2	0	C	2	1	988	1	poli_8sides 22_whiteLine3.jpg	Practice3_b26_cut1_stereo_44KHz.wav
0	25	2	3	1	C	1	1	1085	1	poli_8sides 24_whiteLine3.jpg	Practice4_b26_stereo_44KHz.wav
0	26	1	2	0	C	2	1	942	1	poli_8sides 22_whiteLine3.jpg	Practice3_b26_cut1_stereo_44KHz.wav
0	27	2	4	0	C	2	1	767	1	poli_8sides 24_whiteLine3.jpg	Practice1_b27_cut1_stereo_44KHz.wav
0	28	1	1	1	C	1	1	901	1	poli_8sides 22_whiteLine3.jpg	Practice2_b27_cut2_stereo_44KHz.wav
0	29	1	1	1	C	1	1	1195	1	poli_8sides 22_whiteLine3.jpg	Practice2_b27_cut2_stereo_44KHz.wav
0	30	1	2	0	C	2	1	1254	1	poli_8sides 22_whiteLine3.jpg	Practice3_b26_cut1_stereo_44KHz.wav
avg_resp = 1001
1	1	4	3	2	I	2	0	769	0	poli_8sides 11_whiteLine3.jpg	Short_b09_cut1_stereo_44KHz.wav
1	2	3	3	2	I	2	0	1002	1	poli_8sides 2_whiteLine3.jpg	Short_b09_cut1_stereo_44KHz.wav
1	3	2	2	1	C	2	0	1130	0	poli_8sides 9_whiteLine3.jpg	Short_b23_cut1_stereo_44KHz.wav
1	4	1	1	1	C	2	0	986	0	poli_8sides 3_whiteLine3.jpg	Short_b22_cut1_stereo_44KHz.wav
1	5	2	1	0	C	2	1	993	1	poli_8sides 9_whiteLine3.jpg	Short_b22_cut1_stereo_44KHz.wav
1	6	1	2	0	C	1	0	867	0	poli_8sides 3_whiteLine3.jpg	Short_b23_cut1_stereo_44KHz.wav
1	7	4	4	2	I	2	0	1345	1	poli_8sides 11_whiteLine3.jpg	Short_b20_cut1_stereo_44KHz.wav
1	8	3	4	2	I	1	0	923	0	poli_8sides 2_whiteLine3.jpg	Short_b20_cut1_stereo_44KHz.wav
1	9	1	1	1	C	2	0	980	0	poli_8sides 3_whiteLine3.jpg	Short_b22_cut1_stereo_44KHz.wav
1	10	4	3	2	I	2	0	821	1	poli_8sides 11_whiteLine3.jpg	Short_b09_cut1_stereo_44KHz.wav
1	11	2	1	0	C	2	1	1210	1	poli_8sides 9_whiteLine3.jpg	Short_b22_cut1_stereo_44KHz.wav
1	12	3	3	2	I	2	0	759	0	poli_8sides 2_whiteLine3.jpg	Short_b09_cut1_stereo_44KHz.wav
1	13	4	4	2	I	2	0	1057	1	poli_8sides 11_whiteLine3.jpg	Short_b20_cut1_stereo_44KHz.wav
1	14	1	2	0	C	1	0	940	0	poli_8sides 3_whiteLine3.jpg	Short_b23_cut1_stereo_44KHz.wav
1	15	2	2	1	C	1	1	1067	1	poli_8sides 9_whiteLine3.jpg	Short_b23_cut1_stereo_44KHz.wav
1	16	3	4	2	I	2	0	1000	1	poli_8sides 2_whiteLine3.jpg	Short_b20_cut1_stereo_44KHz.wav
1	17	1	2	0	C	2	1	1031	1	poli_8sides 3_whiteLine3.jpg	Short_b23_cut1_stereo_44KHz.wav
1	18	4	3	2	I	2	0	1205	0	poli_8sides 11_whiteLine3.jpg	Short_b09_cut1_stereo_44KHz.wav
1	19	3	3	2	I	1	0	820	1	poli_8sides 2_whiteLine3.jpg	Short_b09_cut1_stereo_44KHz.wav
1	20	2	2	1	C	2	0	1075	0	poli_8sides 9_whiteLine3.jpg	Short_b23_cut1_stereo_44KHz.wav
1	21	3	4	2	I	2	0	600	1	poli_8sides 2_whiteLine3.jpg	Short_b20_cut1_stereo_44KHz.wav
1	22	1	1	1	C	1	1	658	1	poli_8sides 3_whiteLine3.jpg	Short_b22_cut1_stereo_44KHz.wav
1	23	2	1	0	C	1	0	1346	0	poli_8sides 9_whiteLine3.jpg	Short_b22_cut1_stereo_44KHz.wav
1	24	4	4	2	I	2	0	990	0	poli_8sides 11_whiteLine3.jpg	Short_b20_cut1_stereo_44KHz.wav
1	25	1	1	1	C	1	1	1064	1	poli_8sides 3_whiteLine3.jpg	Short_b22_cut1_stereo_44KHz.wav
1	26	2	2	1	C	1	1	1093	1	poli_8sides 9_whiteLine3.jpg	Short_b23_cut1_stereo_44KHz.wav
1	27	3	3	2	I	2	0	1103	0	poli_8sides 2_whiteLine3.jpg	Short_b09_cut1_stereo_44KHz.wav
1	28	4	4	2	I	2	0	866	0	poli_8sides 11_whiteLine3.jpg	Short_b20_cut1_stereo_44KHz.wav
1	29	1	2	0	C	2	1	1076	1	poli_8sides 3_whiteLine3.jpg	Short_b23_cut1_stereo_44KHz.wav
1	30	2	1	0	C	1	0	868	0	poli_8sides 9_whiteLine3.jpg	Short_b22_cut1_stereo_44KHz.wav
1	31	3	4	2	I	2	0	1306	1	poli_8sides 2_whiteLine3.jpg	Short_b20_cut1_stereo_44KHz.wav
1	32	4	3	2	I	1	0	1144	1	poli_8sides 11_whiteLine3.jpg	Short_b09_cut1_stereo_44KHz.wav
1	33	1	2	0	C	2	1	1215	1	poli_8sides 3_whiteLine3.jpg	Short_b23_cut1_stereo_44KHz.wav
1	34	2	1	0	C	1	0	735	0	poli_8sides 9_whiteLine3.jpg	Short_b22_cut1_stereo_44KHz.wav
1	35	4	4	2	I	1	0	960	1	poli_8sides 11_whiteLine3.jpg	Short_b20_cut1_stereo_44KHz.wav
1	36	3	4	2	I	2	0	973	0	poli_8sides 2_whiteLine3.jpg	Short_b20_cut1_stereo_44KHz.wav
1	37	2	2	1	C	2	0	718	0	poli_8sides 9_whiteLine3.jpg	Short_b23_cut1_stereo_44KHz.wav
1	38	1	1	1	C	2	0	727	0	poli_8sides 3_whiteLine3.jpg	Short_b22_cut1_stereo_44KHz.wav
1	39	4	3	2	I	1	0	886	1	poli_8sides 11_whiteLine3.jpg	Short_b09_cut1_stereo_44KHz.wav
1	40	3	3	2	I	2	0	730	0	poli_8sides 2_whiteLine3.jpg	Short_b09_cut1_stereo_44KHz.wav
1	41	2	2	1	C	2	0	863	0	poli_8sides 9_whiteLine3.jpg	Short_b23_cut1_stereo_44KHz.wav
1	42	3	4	2	I	2	0	1167	0	poli_8sides 2_whiteLine3.jpg	Short_b20_cut1_stereo_44KHz.wav
1	43	1	2	0	C	2	1	730	1	poli_8sides 3_whiteLine3.jpg	Short_b23_cut1_stereo_44KHz.wav
1	44	4	3	2	I	1	0	799	1	poli_8sides 11_whiteLine3.jpg	Short_b09_cut1_stereo_44KHz.wav
1	45	1	1	1	C	2	0	793	0	poli_8sides 3_whiteLine3.jpg	Short_b22_cut1_stereo_44KHz.wav
1	46	4	4	2	I	1	0	1046	1	poli_8sides 11_whiteLine3.jpg	Short_b20_cut1_stereo_44KHz.wav
1	47	2	1	0	C	2	1	763	1	poli_8sides 9_whiteLine3.jpg	Short_b22_cut1_stereo_44KHz.wav
1	48	3	3	2	I	1	0	899	1	poli_8sides 2_whiteLine3.jpg	Short_b09_cut1_stereo_44KHz.wav
1	49	1	1	1	C	2	0	1089	0	poli_8sides 3_whiteLine3.jpg	Short_b22_cut1_stereo_44KHz.wav
1	50	4	3	2	I	1	0	790	0	poli_8sides 11_whiteLine3.jpg	Short_b09_cut1_stereo_44KHz.wav
1	51	2	1	0	C	1	0	850	0	poli_8sides 9_whiteLine3.jpg	Short_b22_cut1_stereo_44KHz.wav
1	52	3	3	2	I	2	0	587	1	poli_8sides 2_whiteLine3.jpg	Short_b09_cut1_stereo_44KHz.wav
1	53	2	2	1	C	1	1	663	1	poli_8sides 9_whiteLine3.jpg	Short_b23_cut1_stereo_44KHz.wav
1	54	1	2	0	C	2	1	554	1	poli_8sides 3_whiteLine3.jpg	Short_b23_cut1_stereo_44KHz.wav
1	55	4	4	2	I	1	0	762	0	poli_8sides 11_whiteLine3.jpg	Short_b20_cut1_stereo_44KHz.wav
1	56	3	4	2	I	1	0	863	0	poli_8sides 2_whiteLine3.jpg	Short_b20_cut1_stereo_44KHz.wav
1	57	4	4	2	I	2	0	536	1	poli_8sides 11_whiteLine3.jpg	Short_b20_cut1_stereo_44KHz.wav
1	58	3	4	2	I	2	0	462	1	poli_8sides 2_whiteLine3.jpg	Short_b20_cut1_stereo_44KHz.wav
1	59	1	1	1	C	2	0	884	0	poli_8sides 3_whiteLine3.jpg	Short_b22_cut1_stereo_44KHz.wav
1	60	2	1	0	C	2	1	592	1	poli_8sides 9_whiteLine3.jpg	Short_b22_cut1_stereo_44KHz.wav
1	61	3	3	2	I	1	0	804	0	poli_8sides 2_whiteLine3.jpg	Short_b09_cut1_stereo_44KHz.wav
1	62	4	3	2	I	2	0	488	1	poli_8sides 11_whiteLine3.jpg	Short_b09_cut1_stereo_44KHz.wav
1	63	1	2	0	C	2	1	862	1	poli_8sides 3_whiteLine3.jpg	Short_b23_cut1_stereo_44KHz.wav
1	64	2	2	1	C	1	1	894	1	poli_8sides 9_whiteLine3.jpg	Short_b23_cut1_stereo_44KHz.wav
1	65	3	3	2	I	2	0	611	0	poli_8sides 2_whiteLine3.jpg	Short_b09_cut1_stereo_44KHz.wav
1	66	1	2	0	C	1	0	965	0	poli_8sides 3_whiteLine3.jpg	Short_b23_cut1_stereo_44KHz.wav
1	67	4	3	2	I	2	0	913	1	poli_8sides 11_whiteLine3.jpg	Short_b09_cut1_stereo_44KHz.wav
1	68	2	2	1	C	1	1	796	1	poli_8sides 9_whiteLine3.jpg	Short_b23_cut1_stereo_44KHz.wav
1	69	3	4	2	I	2	0	1156	0	poli_8sides 2_whiteLine3.jpg	Short_b20_cut1_stereo_44KHz.wav
1	70	2	1	0	C	1	0	824	0	poli_8sides 9_whiteLine3.jpg	Short_b22_cut1_stereo_44KHz.wav
1	71	1	1	1	C	2	0	866	0	poli_8sides 3_whiteLine3.jpg	Short_b22_cut1_stereo_44KHz.wav
1	72	4	4	2	I	2	0	732	1	poli_8sides 11_whiteLine3.jpg	Short_b20_cut1_stereo_44KHz.wav
1	73	1	2	0	C	1	0	885	0	poli_8sides 3_whiteLine3.jpg	Short_b23_cut1_stereo_44KHz.wav
1	74	4	3	2	I	1	0	994	0	poli_8sides 11_whiteLine3.jpg	Short_b09_cut1_stereo_44KHz.wav
1	75	3	3	2	I	2	0	654	1	poli_8sides 2_whiteLine3.jpg	Short_b09_cut1_stereo_44KHz.wav
1	76	2	2	1	C	1	1	872	1	poli_8sides 9_whiteLine3.jpg	Short_b23_cut1_stereo_44KHz.wav
1	77	3	4	2	I	2	0	830	0	poli_8sides 2_whiteLine3.jpg	Short_b20_cut1_stereo_44KHz.wav
1	78	1	1	1	C	2	0	874	0	poli_8sides 3_whiteLine3.jpg	Short_b22_cut1_stereo_44KHz.wav
1	79	2	1	0	C	2	1	913	1	poli_8sides 9_whiteLine3.jpg	Short_b22_cut1_stereo_44KHz.wav
1	80	4	4	2	I	2	0	501	1	poli_8sides 11_whiteLine3.jpg	Short_b20_cut1_stereo_44KHz.wav
1	81	1	1	1	C	1	1	874	1	poli_8sides 3_whiteLine3.jpg	Short_b22_cut1_stereo_44KHz.wav
1	82	4	4	2	I	2	0	491	1	poli_8sides 11_whiteLine3.jpg	Short_b20_cut1_stereo_44KHz.wav
1	83	2	2	1	C	1	1	868	1	poli_8sides 9_whiteLine3.jpg	Short_b23_cut1_stereo_44KHz.wav
1	84	3	4	2	I	2	0	714	1	poli_8sides 2_whiteLine3.jpg	Short_b20_cut1_stereo_44KHz.wav
1	85	1	2	0	C	2	1	912	1	poli_8sides 3_whiteLine3.jpg	Short_b23_cut1_stereo_44KHz.wav
1	86	4	3	2	I	1	0	667	0	poli_8sides 11_whiteLine3.jpg	Short_b09_cut1_stereo_44KHz.wav
1	87	3	3	2	I	2	0	568	0	poli_8sides 2_whiteLine3.jpg	Short_b09_cut1_stereo_44KHz.wav
1	88	2	1	0	C	1	0	1071	0	poli_8sides 9_whiteLine3.jpg	Short_b22_cut1_stereo_44KHz.wav
1	89	4	4	2	I	2	0	655	0	poli_8sides 11_whiteLine3.jpg	Short_b20_cut1_stereo_44KHz.wav
1	90	3	4	2	I	1	0	547	1	poli_8sides 2_whiteLine3.jpg	Short_b20_cut1_stereo_44KHz.wav
1	91	2	1	0	C	2	1	984	1	poli_8sides 9_whiteLine3.jpg	Short_b22_cut1_stereo_44KHz.wav
1	92	1	1	1	C	2	0	647	0	poli_8sides 3_whiteLine3.jpg	Short_b22_cut1_stereo_44KHz.wav
1	93	4	3	2	I	2	0	1244	0	poli_8sides 11_whiteLine3.jpg	Short_b09_cut1_stereo_44KHz.wav
1	94	1	2	0	C	2	1	726	1	poli_8sides 3_whiteLine3.jpg	Short_b23_cut1_stereo_44KHz.wav
1	95	3	3	2	I	2	0	835	1	poli_8sides 2_whiteLine3.jpg	Short_b09_cut1_stereo_44KHz.wav
1	96	2	2	1	C	1	1	1027	1	poli_8sides 9_whiteLine3.jpg	Short_b23_cut1_stereo_44KHz.wav
1	97	3	3	2	I	2	0	611	1	poli_8sides 2_whiteLine3.jpg	Short_b09_cut1_stereo_44KHz.wav
1	98	2	1	0	C	2	1	911	1	poli_8sides 9_whiteLine3.jpg	Short_b22_cut1_stereo_44KHz.wav
1	99	4	4	2	I	2	0	670	1	poli_8sides 11_whiteLine3.jpg	Short_b20_cut1_stereo_44KHz.wav
1	100	1	2	0	C	2	1	844	1	poli_8sides 3_whiteLine3.jpg	Short_b23_cut1_stereo_44KHz.wav
1	101	4	3	2	I	2	0	974	0	poli_8sides 11_whiteLine3.jpg	Short_b09_cut1_stereo_44KHz.wav
1	102	2	2	1	C	2	0	1009	0	poli_8sides 9_whiteLine3.jpg	Short_b23_cut1_stereo_44KHz.wav
1	103	1	1	1	C	2	0	802	0	poli_8sides 3_whiteLine3.jpg	Short_b22_cut1_stereo_44KHz.wav
1	104	3	4	2	I	2	0	969	1	poli_8sides 2_whiteLine3.jpg	Short_b20_cut1_stereo_44KHz.wav
1	105	2	1	0	C	2	1	906	1	poli_8sides 9_whiteLine3.jpg	Short_b22_cut1_stereo_44KHz.wav
1	106	4	3	2	I	1	0	920	0	poli_8sides 11_whiteLine3.jpg	Short_b09_cut1_stereo_44KHz.wav
1	107	1	2	0	C	2	1	799	1	poli_8sides 3_whiteLine3.jpg	Short_b23_cut1_stereo_44KHz.wav
1	108	3	3	2	I	2	0	1004	1	poli_8sides 2_whiteLine3.jpg	Short_b09_cut1_stereo_44KHz.wav
1	109	4	4	2	I	2	0	910	0	poli_8sides 11_whiteLine3.jpg	Short_b20_cut1_stereo_44KHz.wav
1	110	2	2	1	C	2	0	1151	0	poli_8sides 9_whiteLine3.jpg	Short_b23_cut1_stereo_44KHz.wav
1	111	1	1	1	C	2	0	805	0	poli_8sides 3_whiteLine3.jpg	Short_b22_cut1_stereo_44KHz.wav
1	112	3	4	2	I	2	0	983	0	poli_8sides 2_whiteLine3.jpg	Short_b20_cut1_stereo_44KHz.wav
1	113	1	1	1	C	2	0	733	0	poli_8sides 3_whiteLine3.jpg	Short_b22_cut1_stereo_44KHz.wav
1	114	2	1	0	C	2	1	726	1	poli_8sides 9_whiteLine3.jpg	Short_b22_cut1_stereo_44KHz.wav
1	115	3	4	2	I	2	0	1088	0	poli_8sides 2_whiteLine3.jpg	Short_b20_cut1_stereo_44KHz.wav
1	116	4	3	2	I	2	0	680	0	poli_8sides 11_whiteLine3.jpg	Short_b09_cut1_stereo_44KHz.wav
1	117	3	3	2	I	2	0	703	1	poli_8sides 2_whiteLine3.jpg	Short_b09_cut1_stereo_44KHz.wav
1	118	2	2	1	C	2	0	1119	0	poli_8sides 9_whiteLine3.jpg	Short_b23_cut1_stereo_44KHz.wav
1	119	4	4	2	I	2	0	819	0	poli_8sides 11_whiteLine3.jpg	Short_b20_cut1_stereo_44KHz.wav
1	120	1	2	0	C	2	1	972	1	poli_8sides 3_whiteLine3.jpg	Short_b23_cut1_stereo_44KHz.wav
1	121	4	4	2	I	2	0	822	0	poli_8sides 11_whiteLine3.jpg	Short_b20_cut1_stereo_44KHz.wav
1	122	2	1	0	C	2	1	1097	1	poli_8sides 9_whiteLine3.jpg	Short_b22_cut1_stereo_44KHz.wav
1	123	1	2	0	C	2	1	709	1	poli_8sides 3_whiteLine3.jpg	Short_b23_cut1_stereo_44KHz.wav
1	124	3	3	2	I	2	0	790	1	poli_8sides 2_whiteLine3.jpg	Short_b09_cut1_stereo_44KHz.wav
1	125	1	1	1	C	1	1	1059	1	poli_8sides 3_whiteLine3.jpg	Short_b22_cut1_stereo_44KHz.wav
1	126	2	2	1	C	2	0	851	0	poli_8sides 9_whiteLine3.jpg	Short_b23_cut1_stereo_44KHz.wav
1	127	4	3	2	I	2	0	904	0	poli_8sides 11_whiteLine3.jpg	Short_b09_cut1_stereo_44KHz.wav
1	128	3	4	2	I	2	0	690	1	poli_8sides 2_whiteLine3.jpg	Short_b20_cut1_stereo_44KHz.wav
1	129	2	1	0	C	2	1	941	1	poli_8sides 9_whiteLine3.jpg	Short_b22_cut1_stereo_44KHz.wav
1	130	3	4	2	I	2	0	784	0	poli_8sides 2_whiteLine3.jpg	Short_b20_cut1_stereo_44KHz.wav
1	131	1	2	0	C	2	1	780	1	poli_8sides 3_whiteLine3.jpg	Short_b23_cut1_stereo_44KHz.wav
1	132	4	4	2	I	1	0	816	1	poli_8sides 11_whiteLine3.jpg	Short_b20_cut1_stereo_44KHz.wav
1	133	1	1	1	C	1	1	1251	1	poli_8sides 3_whiteLine3.jpg	Short_b22_cut1_stereo_44KHz.wav
1	134	3	3	2	I	2	0	958	0	poli_8sides 2_whiteLine3.jpg	Short_b09_cut1_stereo_44KHz.wav
1	135	2	2	1	C	2	0	1219	0	poli_8sides 9_whiteLine3.jpg	Short_b23_cut1_stereo_44KHz.wav
1	136	4	3	2	I	2	0	875	1	poli_8sides 11_whiteLine3.jpg	Short_b09_cut1_stereo_44KHz.wav
1	137	1	1	1	C	2	0	1052	0	poli_8sides 3_whiteLine3.jpg	Short_b22_cut1_stereo_44KHz.wav
1	138	3	3	2	I	2	0	1081	0	poli_8sides 2_whiteLine3.jpg	Short_b09_cut1_stereo_44KHz.wav
1	139	4	3	2	I	1	0	868	1	poli_8sides 11_whiteLine3.jpg	Short_b09_cut1_stereo_44KHz.wav
1	140	2	1	0	C	2	1	1128	1	poli_8sides 9_whiteLine3.jpg	Short_b22_cut1_stereo_44KHz.wav
1	141	1	2	0	C	2	1	901	1	poli_8sides 3_whiteLine3.jpg	Short_b23_cut1_stereo_44KHz.wav
1	142	4	4	2	I	2	0	799	0	poli_8sides 11_whiteLine3.jpg	Short_b20_cut1_stereo_44KHz.wav
1	143	2	2	1	C	2	0	847	0	poli_8sides 9_whiteLine3.jpg	Short_b23_cut1_stereo_44KHz.wav
1	144	3	4	2	I	1	0	1463	1	poli_8sides 2_whiteLine3.jpg	Short_b20_cut1_stereo_44KHz.wav
1	145	1	2	0	C	2	1	810	1	poli_8sides 3_whiteLine3.jpg	Short_b23_cut1_stereo_44KHz.wav
1	146	4	3	2	I	2	0	825	0	poli_8sides 11_whiteLine3.jpg	Short_b09_cut1_stereo_44KHz.wav
1	147	2	1	0	C	2	1	944	1	poli_8sides 9_whiteLine3.jpg	Short_b22_cut1_stereo_44KHz.wav
1	148	3	3	2	I	1	0	1239	1	poli_8sides 2_whiteLine3.jpg	Short_b09_cut1_stereo_44KHz.wav
1	149	1	1	1	C	2	0	883	0	poli_8sides 3_whiteLine3.jpg	Short_b22_cut1_stereo_44KHz.wav
1	150	2	2	1	C	2	0	844	0	poli_8sides 9_whiteLine3.jpg	Short_b23_cut1_stereo_44KHz.wav
1	151	3	4	2	I	1	0	984	0	poli_8sides 2_whiteLine3.jpg	Short_b20_cut1_stereo_44KHz.wav
1	152	4	4	2	I	1	0	1241	1	poli_8sides 11_whiteLine3.jpg	Short_b20_cut1_stereo_44KHz.wav
1	153	2	1	0	C	2	1	887	1	poli_8sides 9_whiteLine3.jpg	Short_b22_cut1_stereo_44KHz.wav
1	154	3	3	2	I	2	0	1560	1	poli_8sides 2_whiteLine3.jpg	Short_b09_cut1_stereo_44KHz.wav
1	155	4	4	2	I	2	0	1362	0	poli_8sides 11_whiteLine3.jpg	Short_b20_cut1_stereo_44KHz.wav
1	156	1	2	0	C	2	1	754	1	poli_8sides 3_whiteLine3.jpg	Short_b23_cut1_stereo_44KHz.wav
1	157	2	2	1	C	1	1	1355	1	poli_8sides 9_whiteLine3.jpg	Short_b23_cut1_stereo_44KHz.wav
1	158	1	1	1	C	1	1	961	1	poli_8sides 3_whiteLine3.jpg	Short_b22_cut1_stereo_44KHz.wav
1	159	3	4	2	I	2	0	1444	0	poli_8sides 2_whiteLine3.jpg	Short_b20_cut1_stereo_44KHz.wav
1	160	4	3	2	I	1	0	1268	0	poli_8sides 11_whiteLine3.jpg	Short_b09_cut1_stereo_44KHz.wav
1	161	1	1	1	C	1	1	956	1	poli_8sides 3_whiteLine3.jpg	Short_b22_cut1_stereo_44KHz.wav
1	162	4	4	2	I	1	0	1066	1	poli_8sides 11_whiteLine3.jpg	Short_b20_cut1_stereo_44KHz.wav
1	163	2	1	0	C	2	1	881	1	poli_8sides 9_whiteLine3.jpg	Short_b22_cut1_stereo_44KHz.wav
1	164	3	4	2	I	2	0	1183	0	poli_8sides 2_whiteLine3.jpg	Short_b20_cut1_stereo_44KHz.wav
1	165	4	3	2	I	2	0	1045	1	poli_8sides 11_whiteLine3.jpg	Short_b09_cut1_stereo_44KHz.wav
1	166	1	2	0	C	2	1	713	1	poli_8sides 3_whiteLine3.jpg	Short_b23_cut1_stereo_44KHz.wav
1	167	2	2	1	C	1	1	1041	1	poli_8sides 9_whiteLine3.jpg	Short_b23_cut1_stereo_44KHz.wav
1	168	3	3	2	I	2	0	1112	1	poli_8sides 2_whiteLine3.jpg	Short_b09_cut1_stereo_44KHz.wav
1	169	4	3	2	I	1	0	777	1	poli_8sides 11_whiteLine3.jpg	Short_b09_cut1_stereo_44KHz.wav
1	170	2	1	0	C	2	1	967	1	poli_8sides 9_whiteLine3.jpg	Short_b22_cut1_stereo_44KHz.wav
1	171	3	3	2	I	2	0	960	0	poli_8sides 2_whiteLine3.jpg	Short_b09_cut1_stereo_44KHz.wav
1	172	1	1	1	C	1	1	1089	1	poli_8sides 3_whiteLine3.jpg	Short_b22_cut1_stereo_44KHz.wav
1	173	3	4	2	I	2	0	1263	0	poli_8sides 2_whiteLine3.jpg	Short_b20_cut1_stereo_44KHz.wav
1	174	2	2	1	C	2	0	979	0	poli_8sides 9_whiteLine3.jpg	Short_b23_cut1_stereo_44KHz.wav
1	175	4	4	2	I	1	0	1284	1	poli_8sides 11_whiteLine3.jpg	Short_b20_cut1_stereo_44KHz.wav
1	176	1	2	0	C	2	1	878	1	poli_8sides 3_whiteLine3.jpg	Short_b23_cut1_stereo_44KHz.wav
1	177	2	2	1	C	1	1	800	1	poli_8sides 9_whiteLine3.jpg	Short_b23_cut1_stereo_44KHz.wav
1	178	4	4	2	I	1	0	1315	0	poli_8sides 11_whiteLine3.jpg	Short_b20_cut1_stereo_44KHz.wav
1	179	1	1	1	C	2	0	854	0	poli_8sides 3_whiteLine3.jpg	Short_b22_cut1_stereo_44KHz.wav
1	180	3	4	2	I	1	0	999	1	poli_8sides 2_whiteLine3.jpg	Short_b20_cut1_stereo_44KHz.wav
1	181	1	2	0	C	2	1	755	1	poli_8sides 3_whiteLine3.jpg	Short_b23_cut1_stereo_44KHz.wav
1	182	2	1	0	C	2	1	1237	1	poli_8sides 9_whiteLine3.jpg	Short_b22_cut1_stereo_44KHz.wav
1	183	3	3	2	I	2	0	887	0	poli_8sides 2_whiteLine3.jpg	Short_b09_cut1_stereo_44KHz.wav
1	184	4	3	2	I	2	0	560	1	poli_8sides 11_whiteLine3.jpg	Short_b09_cut1_stereo_44KHz.wav
1	185	1	1	1	C	2	0	1125	0	poli_8sides 3_whiteLine3.jpg	Short_b22_cut1_stereo_44KHz.wav
1	186	2	2	1	C	2	0	896	0	poli_8sides 9_whiteLine3.jpg	Short_b23_cut1_stereo_44KHz.wav
1	187	4	3	2	I	2	0	963	0	poli_8sides 11_whiteLine3.jpg	Short_b09_cut1_stereo_44KHz.wav
1	188	3	3	2	I	2	0	988	0	poli_8sides 2_whiteLine3.jpg	Short_b09_cut1_stereo_44KHz.wav
1	189	4	4	2	I	1	0	1131	0	poli_8sides 11_whiteLine3.jpg	Short_b20_cut1_stereo_44KHz.wav
1	190	3	4	2	I	1	0	1337	1	poli_8sides 2_whiteLine3.jpg	Short_b20_cut1_stereo_44KHz.wav
1	191	2	1	0	C	2	1	764	1	poli_8sides 9_whiteLine3.jpg	Short_b22_cut1_stereo_44KHz.wav
1	192	1	2	0	C	2	1	476	1	poli_8sides 3_whiteLine3.jpg	Short_b23_cut1_stereo_44KHz.wav
1	193	2	1	0	C	2	1	971	1	poli_8sides 9_whiteLine3.jpg	Short_b22_cut1_stereo_44KHz.wav
1	194	1	2	0	C	2	1	697	1	poli_8sides 3_whiteLine3.jpg	Short_b23_cut1_stereo_44KHz.wav
1	195	4	4	2	I	2	0	1074	0	poli_8sides 11_whiteLine3.jpg	Short_b20_cut1_stereo_44KHz.wav
1	196	3	3	2	I	2	0	1273	1	poli_8sides 2_whiteLine3.jpg	Short_b09_cut1_stereo_44KHz.wav
1	197	2	2	1	C	2	0	1009	0	poli_8sides 9_whiteLine3.jpg	Short_b23_cut1_stereo_44KHz.wav
1	198	4	3	2	I	2	0	1021	1	poli_8sides 11_whiteLine3.jpg	Short_b09_cut1_stereo_44KHz.wav
1	199	3	4	2	I	1	0	1293	0	poli_8sides 2_whiteLine3.jpg	Short_b20_cut1_stereo_44KHz.wav
1	200	1	1	1	C	2	0	740	0	poli_8sides 3_whiteLine3.jpg	Short_b22_cut1_stereo_44KHz.wav
2	1	2	1	0	C	2	1	1283	1	poli_8sides 5_whiteLine3.jpg	Medium_e21_stereo_44KHz.wav
2	2	3	4	2	I	2	0	1520	1	poli_8sides 16_whiteLine3.jpg	Medium_e01_cut1_stereo_44KHz.wav
2	3	1	1	1	C	1	1	791	1	poli_8sides 18_whiteLine3.jpg	Medium_e21_stereo_44KHz.wav
2	4	4	4	2	I	1	0	1219	1	poli_8sides 4_whiteLine3.jpg	Medium_e01_cut1_stereo_44KHz.wav
2	5	1	2	0	C	1	0	1248	0	poli_8sides 18_whiteLine3.jpg	Medium_e13_stereo_44KHz.wav
2	6	3	3	2	I	2	0	1315	0	poli_8sides 16_whiteLine3.jpg	MediumLong_e17_cut2_stereo_44KHz.wav
2	7	4	3	2	I	2	0	1289	1	poli_8sides 4_whiteLine3.jpg	MediumLong_e17_cut2_stereo_44KHz.wav
2	8	2	2	1	C	2	0	1233	0	poli_8sides 5_whiteLine3.jpg	Medium_e13_stereo_44KHz.wav
2	9	4	3	2	I	2	0	734	1	poli_8sides 4_whiteLine3.jpg	MediumLong_e17_cut2_stereo_44KHz.wav
2	10	2	1	0	C	2	1	759	1	poli_8sides 5_whiteLine3.jpg	Medium_e21_stereo_44KHz.wav
2	11	1	2	0	C	2	1	1576	1	poli_8sides 18_whiteLine3.jpg	Medium_e13_stereo_44KHz.wav
2	12	3	4	2	I	2	0	1882	1	poli_8sides 16_whiteLine3.jpg	Medium_e01_cut1_stereo_44KHz.wav
2	13	1	1	1	C	2	0	853	0	poli_8sides 18_whiteLine3.jpg	Medium_e21_stereo_44KHz.wav
2	14	4	4	2	I	2	0	1023	1	poli_8sides 4_whiteLine3.jpg	Medium_e01_cut1_stereo_44KHz.wav
2	15	2	2	1	C	2	0	941	0	poli_8sides 5_whiteLine3.jpg	Medium_e13_stereo_44KHz.wav
2	16	3	3	2	I	1	0	1855	0	poli_8sides 16_whiteLine3.jpg	MediumLong_e17_cut2_stereo_44KHz.wav
2	17	4	4	2	I	2	0	1012	0	poli_8sides 4_whiteLine3.jpg	Medium_e01_cut1_stereo_44KHz.wav
2	18	2	2	1	C	2	0	671	0	poli_8sides 5_whiteLine3.jpg	Medium_e13_stereo_44KHz.wav
2	19	1	1	1	C	2	0	985	0	poli_8sides 18_whiteLine3.jpg	Medium_e21_stereo_44KHz.wav
2	20	3	3	2	I	1	0	1463	0	poli_8sides 16_whiteLine3.jpg	MediumLong_e17_cut2_stereo_44KHz.wav
2	21	1	2	0	C	1	0	1115	0	poli_8sides 18_whiteLine3.jpg	Medium_e13_stereo_44KHz.wav
2	22	2	1	0	C	2	1	808	1	poli_8sides 5_whiteLine3.jpg	Medium_e21_stereo_44KHz.wav
2	23	3	4	2	I	2	0	1198	0	poli_8sides 16_whiteLine3.jpg	Medium_e01_cut1_stereo_44KHz.wav
2	24	4	3	2	I	2	0	730	0	poli_8sides 4_whiteLine3.jpg	MediumLong_e17_cut2_stereo_44KHz.wav
2	25	3	3	2	I	2	0	1124	1	poli_8sides 16_whiteLine3.jpg	MediumLong_e17_cut2_stereo_44KHz.wav
2	26	1	2	0	C	2	1	798	1	poli_8sides 18_whiteLine3.jpg	Medium_e13_stereo_44KHz.wav
2	27	2	2	1	C	1	1	1014	1	poli_8sides 5_whiteLine3.jpg	Medium_e13_stereo_44KHz.wav
2	28	4	4	2	I	2	0	861	0	poli_8sides 4_whiteLine3.jpg	Medium_e01_cut1_stereo_44KHz.wav
2	29	2	1	0	C	2	1	1106	1	poli_8sides 5_whiteLine3.jpg	Medium_e21_stereo_44KHz.wav
2	30	4	3	2	I	2	0	736	0	poli_8sides 4_whiteLine3.jpg	MediumLong_e17_cut2_stereo_44KHz.wav
2	31	1	1	1	C	1	1	1068	1	poli_8sides 18_whiteLine3.jpg	Medium_e21_stereo_44KHz.wav
2	32	3	4	2	I	2	0	699	0	poli_8sides 16_whiteLine3.jpg	Medium_e01_cut1_stereo_44KHz.wav
2	33	1	1	1	C	2	0	899	0	poli_8sides 18_whiteLine3.jpg	Medium_e21_stereo_44KHz.wav
2	34	4	3	2	I	1	0	878	0	poli_8sides 4_whiteLine3.jpg	MediumLong_e17_cut2_stereo_44KHz.wav
2	35	2	2	1	C	2	0	789	0	poli_8sides 5_whiteLine3.jpg	Medium_e13_stereo_44KHz.wav
2	36	3	4	2	I	2	0	1081	0	poli_8sides 16_whiteLine3.jpg	Medium_e01_cut1_stereo_44KHz.wav
2	37	4	4	2	I	2	0	523	0	poli_8sides 4_whiteLine3.jpg	Medium_e01_cut1_stereo_44KHz.wav
2	38	3	3	2	I	2	0	937	1	poli_8sides 16_whiteLine3.jpg	MediumLong_e17_cut2_stereo_44KHz.wav
2	39	2	1	0	C	1	0	966	0	poli_8sides 5_whiteLine3.jpg	Medium_e21_stereo_44KHz.wav
2	40	1	2	0	C	2	1	921	1	poli_8sides 18_whiteLine3.jpg	Medium_e13_stereo_44KHz.wav
2	41	3	4	2	I	2	0	1156	1	poli_8sides 16_whiteLine3.jpg	Medium_e01_cut1_stereo_44KHz.wav
2	42	2	2	1	C	1	1	1435	1	poli_8sides 5_whiteLine3.jpg	Medium_e13_stereo_44KHz.wav
2	43	1	1	1	C	2	0	1029	0	poli_8sides 18_whiteLine3.jpg	Medium_e21_stereo_44KHz.wav
2	44	4	3	2	I	2	0	651	0	poli_8sides 4_whiteLine3.jpg	MediumLong_e17_cut2_stereo_44KHz.wav
2	45	1	2	0	C	1	0	1156	0	poli_8sides 18_whiteLine3.jpg	Medium_e13_stereo_44KHz.wav
2	46	2	1	0	C	2	1	817	1	poli_8sides 5_whiteLine3.jpg	Medium_e21_stereo_44KHz.wav
2	47	4	4	2	I	1	0	1197	0	poli_8sides 4_whiteLine3.jpg	Medium_e01_cut1_stereo_44KHz.wav
2	48	3	3	2	I	2	0	1079	1	poli_8sides 16_whiteLine3.jpg	MediumLong_e17_cut2_stereo_44KHz.wav
2	49	1	1	1	C	2	0	972	0	poli_8sides 18_whiteLine3.jpg	Medium_e21_stereo_44KHz.wav
2	50	3	4	2	I	2	0	1106	0	poli_8sides 16_whiteLine3.jpg	Medium_e01_cut1_stereo_44KHz.wav
2	51	4	3	2	I	1	0	1154	0	poli_8sides 4_whiteLine3.jpg	MediumLong_e17_cut2_stereo_44KHz.wav
2	52	2	2	1	C	2	0	813	0	poli_8sides 5_whiteLine3.jpg	Medium_e13_stereo_44KHz.wav
2	53	1	2	0	C	2	1	669	1	poli_8sides 18_whiteLine3.jpg	Medium_e13_stereo_44KHz.wav
2	54	3	3	2	I	2	0	996	0	poli_8sides 16_whiteLine3.jpg	MediumLong_e17_cut2_stereo_44KHz.wav
2	55	2	1	0	C	2	1	797	1	poli_8sides 5_whiteLine3.jpg	Medium_e21_stereo_44KHz.wav
2	56	4	4	2	I	1	0	1169	0	poli_8sides 4_whiteLine3.jpg	Medium_e01_cut1_stereo_44KHz.wav
2	57	1	1	1	C	2	0	961	0	poli_8sides 18_whiteLine3.jpg	Medium_e21_stereo_44KHz.wav
2	58	4	4	2	I	2	0	704	0	poli_8sides 4_whiteLine3.jpg	Medium_e01_cut1_stereo_44KHz.wav
2	59	2	2	1	C	2	0	889	0	poli_8sides 5_whiteLine3.jpg	Medium_e13_stereo_44KHz.wav
2	60	3	4	2	I	2	0	1357	1	poli_8sides 16_whiteLine3.jpg	Medium_e01_cut1_stereo_44KHz.wav
2	61	4	3	2	I	2	0	689	1	poli_8sides 4_whiteLine3.jpg	MediumLong_e17_cut2_stereo_44KHz.wav
2	62	2	1	0	C	2	1	903	1	poli_8sides 5_whiteLine3.jpg	Medium_e21_stereo_44KHz.wav
2	63	1	2	0	C	2	1	975	1	poli_8sides 18_whiteLine3.jpg	Medium_e13_stereo_44KHz.wav
2	64	3	3	2	I	2	0	1122	1	poli_8sides 16_whiteLine3.jpg	MediumLong_e17_cut2_stereo_44KHz.wav
2	65	1	1	1	C	2	0	1245	0	poli_8sides 18_whiteLine3.jpg	Medium_e21_stereo_44KHz.wav
2	66	3	4	2	I	1	0	1156	0	poli_8sides 16_whiteLine3.jpg	Medium_e01_cut1_stereo_44KHz.wav
2	67	2	2	1	C	2	0	963	0	poli_8sides 5_whiteLine3.jpg	Medium_e13_stereo_44KHz.wav
2	68	4	4	2	I	2	0	759	1	poli_8sides 4_whiteLine3.jpg	Medium_e01_cut1_stereo_44KHz.wav
2	69	3	3	2	I	2	0	1070	1	poli_8sides 16_whiteLine3.jpg	MediumLong_e17_cut2_stereo_44KHz.wav
2	70	1	2	0	C	2	1	1516	1	poli_8sides 18_whiteLine3.jpg	Medium_e13_stereo_44KHz.wav
2	71	4	3	2	I	2	0	1071	1	poli_8sides 4_whiteLine3.jpg	MediumLong_e17_cut2_stereo_44KHz.wav
2	72	2	1	0	C	1	0	1029	0	poli_8sides 5_whiteLine3.jpg	Medium_e21_stereo_44KHz.wav
2	73	4	4	2	I	1	0	977	1	poli_8sides 4_whiteLine3.jpg	Medium_e01_cut1_stereo_44KHz.wav
2	74	2	2	1	C	2	0	823	0	poli_8sides 5_whiteLine3.jpg	Medium_e13_stereo_44KHz.wav
2	75	1	2	0	C	2	1	688	1	poli_8sides 18_whiteLine3.jpg	Medium_e13_stereo_44KHz.wav
2	76	3	4	2	I	2	0	1053	0	poli_8sides 16_whiteLine3.jpg	Medium_e01_cut1_stereo_44KHz.wav
2	77	2	1	0	C	2	1	1001	1	poli_8sides 5_whiteLine3.jpg	Medium_e21_stereo_44KHz.wav
2	78	4	3	2	I	2	0	1206	1	poli_8sides 4_whiteLine3.jpg	MediumLong_e17_cut2_stereo_44KHz.wav
2	79	1	1	1	C	2	0	1514	0	poli_8sides 18_whiteLine3.jpg	Medium_e21_stereo_44KHz.wav
2	80	3	3	2	I	2	0	1012	1	poli_8sides 16_whiteLine3.jpg	MediumLong_e17_cut2_stereo_44KHz.wav
2	81	2	1	0	C	2	1	968	1	poli_8sides 5_whiteLine3.jpg	Medium_e21_stereo_44KHz.wav
2	82	4	3	2	I	1	0	1242	1	poli_8sides 4_whiteLine3.jpg	MediumLong_e17_cut2_stereo_44KHz.wav
2	83	3	3	2	I	2	0	948	1	poli_8sides 16_whiteLine3.jpg	MediumLong_e17_cut2_stereo_44KHz.wav
2	84	1	2	0	C	2	1	977	1	poli_8sides 18_whiteLine3.jpg	Medium_e13_stereo_44KHz.wav
2	85	2	2	1	C	1	1	787	1	poli_8sides 5_whiteLine3.jpg	Medium_e13_stereo_44KHz.wav
2	86	4	4	2	I	2	0	1140	0	poli_8sides 4_whiteLine3.jpg	Medium_e01_cut1_stereo_44KHz.wav
2	87	3	4	2	I	2	0	620	1	poli_8sides 16_whiteLine3.jpg	Medium_e01_cut1_stereo_44KHz.wav
2	88	1	1	1	C	2	0	976	0	poli_8sides 18_whiteLine3.jpg	Medium_e21_stereo_44KHz.wav
2	89	3	3	2	I	2	0	847	0	poli_8sides 16_whiteLine3.jpg	MediumLong_e17_cut2_stereo_44KHz.wav
2	90	4	4	2	I	1	0	657	0	poli_8sides 4_whiteLine3.jpg	Medium_e01_cut1_stereo_44KHz.wav
2	91	2	1	0	C	2	1	639	1	poli_8sides 5_whiteLine3.jpg	Medium_e21_stereo_44KHz.wav
2	92	1	1	1	C	1	1	931	1	poli_8sides 18_whiteLine3.jpg	Medium_e21_stereo_44KHz.wav
2	93	4	3	2	I	1	0	1343	1	poli_8sides 4_whiteLine3.jpg	MediumLong_e17_cut2_stereo_44KHz.wav
2	94	1	2	0	C	2	1	886	1	poli_8sides 18_whiteLine3.jpg	Medium_e13_stereo_44KHz.wav
2	95	3	4	2	I	2	0	1030	0	poli_8sides 16_whiteLine3.jpg	Medium_e01_cut1_stereo_44KHz.wav
2	96	2	2	1	C	2	0	753	0	poli_8sides 5_whiteLine3.jpg	Medium_e13_stereo_44KHz.wav
2	97	1	2	0	C	2	1	664	1	poli_8sides 18_whiteLine3.jpg	Medium_e13_stereo_44KHz.wav
2	98	4	4	2	I	2	0	837	0	poli_8sides 4_whiteLine3.jpg	Medium_e01_cut1_stereo_44KHz.wav
2	99	3	3	2	I	2	0	1742	0	poli_8sides 16_whiteLine3.jpg	MediumLong_e17_cut2_stereo_44KHz.wav
2	100	2	1	0	C	2	1	687	1	poli_8sides 5_whiteLine3.jpg	Medium_e21_stereo_44KHz.wav
2	101	4	3	2	I	2	0	879	0	poli_8sides 4_whiteLine3.jpg	MediumLong_e17_cut2_stereo_44KHz.wav
2	102	3	4	2	I	1	0	755	1	poli_8sides 16_whiteLine3.jpg	Medium_e01_cut1_stereo_44KHz.wav
2	103	1	1	1	C	2	0	721	0	poli_8sides 18_whiteLine3.jpg	Medium_e21_stereo_44KHz.wav
2	104	2	2	1	C	2	0	1828	0	poli_8sides 5_whiteLine3.jpg	Medium_e13_stereo_44KHz.wav
2	105	3	4	2	I	2	0	1270	1	poli_8sides 16_whiteLine3.jpg	Medium_e01_cut1_stereo_44KHz.wav
2	106	4	4	2	I	1	0	957	0	poli_8sides 4_whiteLine3.jpg	Medium_e01_cut1_stereo_44KHz.wav
2	107	1	2	0	C	2	1	1580	1	poli_8sides 18_whiteLine3.jpg	Medium_e13_stereo_44KHz.wav
2	108	2	1	0	C	1	0	1205	0	poli_8sides 5_whiteLine3.jpg	Medium_e21_stereo_44KHz.wav
2	109	1	1	1	C	1	1	920	1	poli_8sides 18_whiteLine3.jpg	Medium_e21_stereo_44KHz.wav
2	110	3	3	2	I	2	0	945	1	poli_8sides 16_whiteLine3.jpg	MediumLong_e17_cut2_stereo_44KHz.wav
2	111	2	2	1	C	1	1	1167	1	poli_8sides 5_whiteLine3.jpg	Medium_e13_stereo_44KHz.wav
2	112	4	3	2	I	2	0	1226	0	poli_8sides 4_whiteLine3.jpg	MediumLong_e17_cut2_stereo_44KHz.wav
2	113	2	1	0	C	1	0	1341	0	poli_8sides 5_whiteLine3.jpg	Medium_e21_stereo_44KHz.wav
2	114	4	3	2	I	1	0	1021	1	poli_8sides 4_whiteLine3.jpg	MediumLong_e17_cut2_stereo_44KHz.wav
2	115	1	2	0	C	2	1	816	1	poli_8sides 18_whiteLine3.jpg	Medium_e13_stereo_44KHz.wav
2	116	3	4	2	I	2	0	892	0	poli_8sides 16_whiteLine3.jpg	Medium_e01_cut1_stereo_44KHz.wav
2	117	2	2	1	C	1	1	1047	1	poli_8sides 5_whiteLine3.jpg	Medium_e13_stereo_44KHz.wav
2	118	3	3	2	I	2	0	1968	0	poli_8sides 16_whiteLine3.jpg	MediumLong_e17_cut2_stereo_44KHz.wav
2	119	4	4	2	I	1	0	1186	0	poli_8sides 4_whiteLine3.jpg	Medium_e01_cut1_stereo_44KHz.wav
2	120	1	1	1	C	2	0	824	0	poli_8sides 18_whiteLine3.jpg	Medium_e21_stereo_44KHz.wav
2	121	4	4	2	I	2	0	1668	0	poli_8sides 4_whiteLine3.jpg	Medium_e01_cut1_stereo_44KHz.wav
2	122	3	3	2	I	2	0	1175	1	poli_8sides 16_whiteLine3.jpg	MediumLong_e17_cut2_stereo_44KHz.wav
2	123	2	1	0	C	1	0	1305	0	poli_8sides 5_whiteLine3.jpg	Medium_e21_stereo_44KHz.wav
2	124	1	2	0	C	2	1	720	1	poli_8sides 18_whiteLine3.jpg	Medium_e13_stereo_44KHz.wav
2	125	2	2	1	C	1	1	819	1	poli_8sides 5_whiteLine3.jpg	Medium_e13_stereo_44KHz.wav
2	126	1	1	1	C	2	0	1043	0	poli_8sides 18_whiteLine3.jpg	Medium_e21_stereo_44KHz.wav
2	127	3	4	2	I	2	0	1287	0	poli_8sides 16_whiteLine3.jpg	Medium_e01_cut1_stereo_44KHz.wav
2	128	4	3	2	I	0	0	0	0	poli_8sides 4_whiteLine3.jpg	MediumLong_e17_cut2_stereo_44KHz.wav
2	129	2	2	1	C	1	1	1151	1	poli_8sides 5_whiteLine3.jpg	Medium_e13_stereo_44KHz.wav
2	130	1	2	0	C	2	1	1204	1	poli_8sides 18_whiteLine3.jpg	Medium_e13_stereo_44KHz.wav
2	131	3	4	2	I	2	0	943	1	poli_8sides 16_whiteLine3.jpg	Medium_e01_cut1_stereo_44KHz.wav
2	132	4	4	2	I	1	0	721	1	poli_8sides 4_whiteLine3.jpg	Medium_e01_cut1_stereo_44KHz.wav
2	133	1	1	1	C	1	1	1162	1	poli_8sides 18_whiteLine3.jpg	Medium_e21_stereo_44KHz.wav
2	134	2	1	0	C	2	1	854	1	poli_8sides 5_whiteLine3.jpg	Medium_e21_stereo_44KHz.wav
2	135	3	3	2	I	1	0	776	1	poli_8sides 16_whiteLine3.jpg	MediumLong_e17_cut2_stereo_44KHz.wav
2	136	4	3	2	I	2	0	746	1	poli_8sides 4_whiteLine3.jpg	MediumLong_e17_cut2_stereo_44KHz.wav
2	137	2	2	1	C	1	1	821	1	poli_8sides 5_whiteLine3.jpg	Medium_e13_stereo_44KHz.wav
2	138	4	3	2	I	2	0	1053	0	poli_8sides 4_whiteLine3.jpg	MediumLong_e17_cut2_stereo_44KHz.wav
2	139	3	3	2	I	1	0	1295	0	poli_8sides 16_whiteLine3.jpg	MediumLong_e17_cut2_stereo_44KHz.wav
2	140	1	1	1	C	1	1	1295	1	poli_8sides 18_whiteLine3.jpg	Medium_e21_stereo_44KHz.wav
2	141	2	1	0	C	2	1	896	1	poli_8sides 5_whiteLine3.jpg	Medium_e21_stereo_44KHz.wav
2	142	3	4	2	I	2	0	861	1	poli_8sides 16_whiteLine3.jpg	Medium_e01_cut1_stereo_44KHz.wav
2	143	4	4	2	I	1	0	666	0	poli_8sides 4_whiteLine3.jpg	Medium_e01_cut1_stereo_44KHz.wav
2	144	1	2	0	C	1	0	1474	0	poli_8sides 18_whiteLine3.jpg	Medium_e13_stereo_44KHz.wav
2	145	3	4	2	I	2	0	1151	1	poli_8sides 16_whiteLine3.jpg	Medium_e01_cut1_stereo_44KHz.wav
2	146	1	1	1	C	1	1	1150	1	poli_8sides 18_whiteLine3.jpg	Medium_e21_stereo_44KHz.wav
2	147	2	1	0	C	2	1	588	1	poli_8sides 5_whiteLine3.jpg	Medium_e21_stereo_44KHz.wav
2	148	4	3	2	I	2	0	501	1	poli_8sides 4_whiteLine3.jpg	MediumLong_e17_cut2_stereo_44KHz.wav
2	149	3	3	2	I	1	0	863	0	poli_8sides 16_whiteLine3.jpg	MediumLong_e17_cut2_stereo_44KHz.wav
2	150	4	4	2	I	1	0	1035	1	poli_8sides 4_whiteLine3.jpg	Medium_e01_cut1_stereo_44KHz.wav
2	151	1	2	0	C	1	0	916	0	poli_8sides 18_whiteLine3.jpg	Medium_e13_stereo_44KHz.wav
2	152	2	2	1	C	1	1	857	1	poli_8sides 5_whiteLine3.jpg	Medium_e13_stereo_44KHz.wav
2	153	3	4	2	I	2	0	707	1	poli_8sides 16_whiteLine3.jpg	Medium_e01_cut1_stereo_44KHz.wav
2	154	1	1	1	C	1	1	1168	1	poli_8sides 18_whiteLine3.jpg	Medium_e21_stereo_44KHz.wav
2	155	4	4	2	I	1	0	1054	1	poli_8sides 4_whiteLine3.jpg	Medium_e01_cut1_stereo_44KHz.wav
2	156	2	1	0	C	2	1	1446	1	poli_8sides 5_whiteLine3.jpg	Medium_e21_stereo_44KHz.wav
2	157	1	2	0	C	2	1	957	1	poli_8sides 18_whiteLine3.jpg	Medium_e13_stereo_44KHz.wav
2	158	4	3	2	I	2	0	857	1	poli_8sides 4_whiteLine3.jpg	MediumLong_e17_cut2_stereo_44KHz.wav
2	159	3	3	2	I	1	0	628	0	poli_8sides 16_whiteLine3.jpg	MediumLong_e17_cut2_stereo_44KHz.wav
2	160	2	2	1	C	1	1	1179	1	poli_8sides 5_whiteLine3.jpg	Medium_e13_stereo_44KHz.wav
2	161	4	3	2	I	2	0	773	1	poli_8sides 4_whiteLine3.jpg	MediumLong_e17_cut2_stereo_44KHz.wav
2	162	1	1	1	C	1	1	991	1	poli_8sides 18_whiteLine3.jpg	Medium_e21_stereo_44KHz.wav
2	163	3	4	2	I	1	0	1352	0	poli_8sides 16_whiteLine3.jpg	Medium_e01_cut1_stereo_44KHz.wav
2	164	2	1	0	C	2	1	916	1	poli_8sides 5_whiteLine3.jpg	Medium_e21_stereo_44KHz.wav
2	165	3	3	2	I	1	0	943	0	poli_8sides 16_whiteLine3.jpg	MediumLong_e17_cut2_stereo_44KHz.wav
2	166	1	2	0	C	2	1	975	1	poli_8sides 18_whiteLine3.jpg	Medium_e13_stereo_44KHz.wav
2	167	4	4	2	I	1	0	1164	0	poli_8sides 4_whiteLine3.jpg	Medium_e01_cut1_stereo_44KHz.wav
2	168	2	2	1	C	1	1	1130	1	poli_8sides 5_whiteLine3.jpg	Medium_e13_stereo_44KHz.wav
2	169	4	4	2	I	2	0	928	0	poli_8sides 4_whiteLine3.jpg	Medium_e01_cut1_stereo_44KHz.wav
2	170	2	2	1	C	1	1	1178	1	poli_8sides 5_whiteLine3.jpg	Medium_e13_stereo_44KHz.wav
2	171	3	4	2	I	2	0	1280	0	poli_8sides 16_whiteLine3.jpg	Medium_e01_cut1_stereo_44KHz.wav
2	172	1	2	0	C	2	1	1493	1	poli_8sides 18_whiteLine3.jpg	Medium_e13_stereo_44KHz.wav
2	173	2	1	0	C	2	1	1207	1	poli_8sides 5_whiteLine3.jpg	Medium_e21_stereo_44KHz.wav
2	174	4	3	2	I	2	0	930	1	poli_8sides 4_whiteLine3.jpg	MediumLong_e17_cut2_stereo_44KHz.wav
2	175	3	3	2	I	1	0	816	0	poli_8sides 16_whiteLine3.jpg	MediumLong_e17_cut2_stereo_44KHz.wav
2	176	1	1	1	C	2	0	969	0	poli_8sides 18_whiteLine3.jpg	Medium_e21_stereo_44KHz.wav
2	177	3	3	2	I	2	0	1206	1	poli_8sides 16_whiteLine3.jpg	MediumLong_e17_cut2_stereo_44KHz.wav
2	178	2	2	1	C	1	1	1374	1	poli_8sides 5_whiteLine3.jpg	Medium_e13_stereo_44KHz.wav
2	179	4	3	2	I	2	0	1076	1	poli_8sides 4_whiteLine3.jpg	MediumLong_e17_cut2_stereo_44KHz.wav
2	180	1	2	0	C	2	1	931	1	poli_8sides 18_whiteLine3.jpg	Medium_e13_stereo_44KHz.wav
2	181	4	4	2	I	1	0	1032	1	poli_8sides 4_whiteLine3.jpg	Medium_e01_cut1_stereo_44KHz.wav
2	182	3	4	2	I	2	0	565	1	poli_8sides 16_whiteLine3.jpg	Medium_e01_cut1_stereo_44KHz.wav
2	183	1	1	1	C	2	0	938	0	poli_8sides 18_whiteLine3.jpg	Medium_e21_stereo_44KHz.wav
2	184	2	1	0	C	2	1	798	1	poli_8sides 5_whiteLine3.jpg	Medium_e21_stereo_44KHz.wav
2	185	4	4	2	I	1	0	877	1	poli_8sides 4_whiteLine3.jpg	Medium_e01_cut1_stereo_44KHz.wav
2	186	2	2	1	C	1	1	1101	1	poli_8sides 5_whiteLine3.jpg	Medium_e13_stereo_44KHz.wav
2	187	1	1	1	C	1	1	1306	1	poli_8sides 18_whiteLine3.jpg	Medium_e21_stereo_44KHz.wav
2	188	3	4	2	I	2	0	700	0	poli_8sides 16_whiteLine3.jpg	Medium_e01_cut1_stereo_44KHz.wav
2	189	1	2	0	C	2	1	1109	1	poli_8sides 18_whiteLine3.jpg	Medium_e13_stereo_44KHz.wav
2	190	2	1	0	C	2	1	1223	1	poli_8sides 5_whiteLine3.jpg	Medium_e21_stereo_44KHz.wav
2	191	4	3	2	I	2	0	698	0	poli_8sides 4_whiteLine3.jpg	MediumLong_e17_cut2_stereo_44KHz.wav
2	192	3	3	2	I	1	0	852	1	poli_8sides 16_whiteLine3.jpg	MediumLong_e17_cut2_stereo_44KHz.wav
2	193	4	4	2	I	1	0	1158	1	poli_8sides 4_whiteLine3.jpg	Medium_e01_cut1_stereo_44KHz.wav
2	194	2	2	1	C	1	1	1660	1	poli_8sides 5_whiteLine3.jpg	Medium_e13_stereo_44KHz.wav
2	195	1	2	0	C	2	1	669	1	poli_8sides 18_whiteLine3.jpg	Medium_e13_stereo_44KHz.wav
2	196	3	4	2	I	2	0	1212	1	poli_8sides 16_whiteLine3.jpg	Medium_e01_cut1_stereo_44KHz.wav
2	197	4	3	2	I	2	0	669	0	poli_8sides 4_whiteLine3.jpg	MediumLong_e17_cut2_stereo_44KHz.wav
2	198	2	1	0	C	1	0	1162	0	poli_8sides 5_whiteLine3.jpg	Medium_e21_stereo_44KHz.wav
2	199	1	1	1	C	1	1	1038	1	poli_8sides 18_whiteLine3.jpg	Medium_e21_stereo_44KHz.wav
2	200	3	3	2	I	2	0	1481	0	poli_8sides 16_whiteLine3.jpg	MediumLong_e17_cut2_stereo_44KHz.wav
3	1	3	4	2	I	2	0	1333	1	poli_8sides 10_whiteLine3.jpg	MediumShort_b10_cut1_MS_stereo_44KHz.wav
3	2	4	3	2	I	2	0	1398	0	poli_8sides 1_whiteLine3.jpg	MediumShort_e16_cut1_stereo_44KHz.wav
3	3	1	1	1	C	2	0	1206	0	poli_8sides 13_whiteLine3.jpg	MediumShort_e22_cut1_stereo_44KHz.wav
3	4	2	2	1	C	1	1	1116	1	poli_8sides 12_whiteLine3.jpg	MediumShort_b16_cut3_MS_stereo_44KHz.wav
3	5	4	4	2	I	1	0	1137	1	poli_8sides 1_whiteLine3.jpg	MediumShort_b10_cut1_MS_stereo_44KHz.wav
3	6	1	2	0	C	1	0	1044	0	poli_8sides 13_whiteLine3.jpg	MediumShort_b16_cut3_MS_stereo_44KHz.wav
3	7	2	1	0	C	2	1	922	1	poli_8sides 12_whiteLine3.jpg	MediumShort_e22_cut1_stereo_44KHz.wav
3	8	3	3	2	I	2	0	830	1	poli_8sides 10_whiteLine3.jpg	MediumShort_e16_cut1_stereo_44KHz.wav
3	9	2	1	0	C	2	1	815	1	poli_8sides 12_whiteLine3.jpg	MediumShort_e22_cut1_stereo_44KHz.wav
3	10	4	4	2	I	1	0	1140	0	poli_8sides 1_whiteLine3.jpg	MediumShort_b10_cut1_MS_stereo_44KHz.wav
3	11	1	1	1	C	1	1	1008	1	poli_8sides 13_whiteLine3.jpg	MediumShort_e22_cut1_stereo_44KHz.wav
3	12	3	3	2	I	2	0	900	0	poli_8sides 10_whiteLine3.jpg	MediumShort_e16_cut1_stereo_44KHz.wav
3	13	4	3	2	I	1	0	817	1	poli_8sides 1_whiteLine3.jpg	MediumShort_e16_cut1_stereo_44KHz.wav
3	14	3	4	2	I	1	0	1125	1	poli_8sides 10_whiteLine3.jpg	MediumShort_b10_cut1_MS_stereo_44KHz.wav
3	15	1	2	0	C	2	1	910	1	poli_8sides 13_whiteLine3.jpg	MediumShort_b16_cut3_MS_stereo_44KHz.wav
3	16	2	2	1	C	1	1	732	1	poli_8sides 12_whiteLine3.jpg	MediumShort_b16_cut3_MS_stereo_44KHz.wav
3	17	1	2	0	C	2	1	691	1	poli_8sides 13_whiteLine3.jpg	MediumShort_b16_cut3_MS_stereo_44KHz.wav
3	18	2	1	0	C	2	1	609	1	poli_8sides 12_whiteLine3.jpg	MediumShort_e22_cut1_stereo_44KHz.wav
3	19	4	3	2	I	2	0	1094	0	poli_8sides 1_whiteLine3.jpg	MediumShort_e16_cut1_stereo_44KHz.wav
3	20	3	3	2	I	2	0	804	0	poli_8sides 10_whiteLine3.jpg	MediumShort_e16_cut1_stereo_44KHz.wav
3	21	2	2	1	C	1	1	755	1	poli_8sides 12_whiteLine3.jpg	MediumShort_b16_cut3_MS_stereo_44KHz.wav
3	22	3	4	2	I	1	0	1227	1	poli_8sides 10_whiteLine3.jpg	MediumShort_b10_cut1_MS_stereo_44KHz.wav
3	23	4	4	2	I	2	0	702	1	poli_8sides 1_whiteLine3.jpg	MediumShort_b10_cut1_MS_stereo_44KHz.wav
3	24	1	1	1	C	1	1	969	1	poli_8sides 13_whiteLine3.jpg	MediumShort_e22_cut1_stereo_44KHz.wav
3	25	2	1	0	C	2	1	592	1	poli_8sides 12_whiteLine3.jpg	MediumShort_e22_cut1_stereo_44KHz.wav
3	26	4	3	2	I	1	0	890	0	poli_8sides 1_whiteLine3.jpg	MediumShort_e16_cut1_stereo_44KHz.wav
3	27	3	4	2	I	1	0	866	1	poli_8sides 10_whiteLine3.jpg	MediumShort_b10_cut1_MS_stereo_44KHz.wav
3	28	1	1	1	C	1	1	891	1	poli_8sides 13_whiteLine3.jpg	MediumShort_e22_cut1_stereo_44KHz.wav
3	29	3	3	2	I	2	0	1179	1	poli_8sides 10_whiteLine3.jpg	MediumShort_e16_cut1_stereo_44KHz.wav
3	30	4	4	2	I	2	0	539	0	poli_8sides 1_whiteLine3.jpg	MediumShort_b10_cut1_MS_stereo_44KHz.wav
3	31	2	2	1	C	2	0	937	0	poli_8sides 12_whiteLine3.jpg	MediumShort_b16_cut3_MS_stereo_44KHz.wav
3	32	1	2	0	C	2	1	653	1	poli_8sides 13_whiteLine3.jpg	MediumShort_b16_cut3_MS_stereo_44KHz.wav
3	33	2	2	1	C	2	0	577	0	poli_8sides 12_whiteLine3.jpg	MediumShort_b16_cut3_MS_stereo_44KHz.wav
3	34	3	3	2	I	2	0	1234	1	poli_8sides 10_whiteLine3.jpg	MediumShort_e16_cut1_stereo_44KHz.wav
3	35	1	2	0	C	2	1	589	1	poli_8sides 13_whiteLine3.jpg	MediumShort_b16_cut3_MS_stereo_44KHz.wav
3	36	4	3	2	I	1	0	995	0	poli_8sides 1_whiteLine3.jpg	MediumShort_e16_cut1_stereo_44KHz.wav
3	37	3	4	2	I	1	0	916	0	poli_8sides 10_whiteLine3.jpg	MediumShort_b10_cut1_MS_stereo_44KHz.wav
3	38	2	1	0	C	2	1	584	1	poli_8sides 12_whiteLine3.jpg	MediumShort_e22_cut1_stereo_44KHz.wav
3	39	1	1	1	C	1	1	1104	1	poli_8sides 13_whiteLine3.jpg	MediumShort_e22_cut1_stereo_44KHz.wav
3	40	4	4	2	I	2	0	776	1	poli_8sides 1_whiteLine3.jpg	MediumShort_b10_cut1_MS_stereo_44KHz.wav
3	41	1	1	1	C	1	1	1090	1	poli_8sides 13_whiteLine3.jpg	MediumShort_e22_cut1_stereo_44KHz.wav
3	42	4	3	2	I	1	0	999	1	poli_8sides 1_whiteLine3.jpg	MediumShort_e16_cut1_stereo_44KHz.wav
3	43	2	2	1	C	1	1	1038	1	poli_8sides 12_whiteLine3.jpg	MediumShort_b16_cut3_MS_stereo_44KHz.wav
3	44	3	4	2	I	1	0	902	1	poli_8sides 10_whiteLine3.jpg	MediumShort_b10_cut1_MS_stereo_44KHz.wav
3	45	4	4	2	I	2	0	672	0	poli_8sides 1_whiteLine3.jpg	MediumShort_b10_cut1_MS_stereo_44KHz.wav
3	46	1	2	0	C	2	1	989	1	poli_8sides 13_whiteLine3.jpg	MediumShort_b16_cut3_MS_stereo_44KHz.wav
3	47	3	3	2	I	2	0	979	1	poli_8sides 10_whiteLine3.jpg	MediumShort_e16_cut1_stereo_44KHz.wav
3	48	2	1	0	C	2	1	815	1	poli_8sides 12_whiteLine3.jpg	MediumShort_e22_cut1_stereo_44KHz.wav
3	49	1	2	0	C	2	1	770	1	poli_8sides 13_whiteLine3.jpg	MediumShort_b16_cut3_MS_stereo_44KHz.wav
3	50	2	2	1	C	1	1	673	1	poli_8sides 12_whiteLine3.jpg	MediumShort_b16_cut3_MS_stereo_44KHz.wav
3	51	3	3	2	I	2	0	787	1	poli_8sides 10_whiteLine3.jpg	MediumShort_e16_cut1_stereo_44KHz.wav
3	52	4	4	2	I	2	0	702	0	poli_8sides 1_whiteLine3.jpg	MediumShort_b10_cut1_MS_stereo_44KHz.wav
3	53	2	1	0	C	2	1	700	1	poli_8sides 12_whiteLine3.jpg	MediumShort_e22_cut1_stereo_44KHz.wav
3	54	1	1	1	C	1	1	999	1	poli_8sides 13_whiteLine3.jpg	MediumShort_e22_cut1_stereo_44KHz.wav
3	55	4	3	2	I	1	0	958	1	poli_8sides 1_whiteLine3.jpg	MediumShort_e16_cut1_stereo_44KHz.wav
3	56	3	4	2	I	1	0	1164	0	poli_8sides 10_whiteLine3.jpg	MediumShort_b10_cut1_MS_stereo_44KHz.wav
3	57	4	3	2	I	2	0	784	1	poli_8sides 1_whiteLine3.jpg	MediumShort_e16_cut1_stereo_44KHz.wav
3	58	1	1	1	C	1	1	971	1	poli_8sides 13_whiteLine3.jpg	MediumShort_e22_cut1_stereo_44KHz.wav
3	59	2	1	0	C	2	1	860	1	poli_8sides 12_whiteLine3.jpg	MediumShort_e22_cut1_stereo_44KHz.wav
3	60	3	4	2	I	2	0	1026	0	poli_8sides 10_whiteLine3.jpg	MediumShort_b10_cut1_MS_stereo_44KHz.wav
3	61	2	2	1	C	2	0	519	0	poli_8sides 12_whiteLine3.jpg	MediumShort_b16_cut3_MS_stereo_44KHz.wav
3	62	1	2	0	C	2	1	696	1	poli_8sides 13_whiteLine3.jpg	MediumShort_b16_cut3_MS_stereo_44KHz.wav
3	63	3	3	2	I	2	0	1172	0	poli_8sides 10_whiteLine3.jpg	MediumShort_e16_cut1_stereo_44KHz.wav
3	64	4	4	2	I	1	0	846	1	poli_8sides 1_whiteLine3.jpg	MediumShort_b10_cut1_MS_stereo_44KHz.wav
3	65	2	2	1	C	1	1	944	1	poli_8sides 12_whiteLine3.jpg	MediumShort_b16_cut3_MS_stereo_44KHz.wav
3	66	4	4	2	I	1	0	971	0	poli_8sides 1_whiteLine3.jpg	MediumShort_b10_cut1_MS_stereo_44KHz.wav
3	67	3	3	2	I	2	0	938	1	poli_8sides 10_whiteLine3.jpg	MediumShort_e16_cut1_stereo_44KHz.wav
3	68	1	2	0	C	2	1	708	1	poli_8sides 13_whiteLine3.jpg	MediumShort_b16_cut3_MS_stereo_44KHz.wav
3	69	3	4	2	I	1	0	923	1	poli_8sides 10_whiteLine3.jpg	MediumShort_b10_cut1_MS_stereo_44KHz.wav
3	70	1	1	1	C	1	1	813	1	poli_8sides 13_whiteLine3.jpg	MediumShort_e22_cut1_stereo_44KHz.wav
3	71	4	3	2	I	2	0	1357	1	poli_8sides 1_whiteLine3.jpg	MediumShort_e16_cut1_stereo_44KHz.wav
3	72	2	1	0	C	2	1	720	1	poli_8sides 12_whiteLine3.jpg	MediumShort_e22_cut1_stereo_44KHz.wav
3	73	3	4	2	I	1	0	768	1	poli_8sides 10_whiteLine3.jpg	MediumShort_b10_cut1_MS_stereo_44KHz.wav
3	74	1	2	0	C	2	1	634	1	poli_8sides 13_whiteLine3.jpg	MediumShort_b16_cut3_MS_stereo_44KHz.wav
3	75	4	3	2	I	2	0	1310	1	poli_8sides 1_whiteLine3.jpg	MediumShort_e16_cut1_stereo_44KHz.wav
3	76	2	1	0	C	2	1	679	1	poli_8sides 12_whiteLine3.jpg	MediumShort_e22_cut1_stereo_44KHz.wav
3	77	3	3	2	I	1	0	1110	0	poli_8sides 10_whiteLine3.jpg	MediumShort_e16_cut1_stereo_44KHz.wav
3	78	4	4	2	I	1	0	876	1	poli_8sides 1_whiteLine3.jpg	MediumShort_b10_cut1_MS_stereo_44KHz.wav
3	79	1	1	1	C	1	1	859	1	poli_8sides 13_whiteLine3.jpg	MediumShort_e22_cut1_stereo_44KHz.wav
3	80	2	2	1	C	2	0	572	0	poli_8sides 12_whiteLine3.jpg	MediumShort_b16_cut3_MS_stereo_44KHz.wav
3	81	3	3	2	I	1	0	981	1	poli_8sides 10_whiteLine3.jpg	MediumShort_e16_cut1_stereo_44KHz.wav
3	82	2	1	0	C	2	1	591	1	poli_8sides 12_whiteLine3.jpg	MediumShort_e22_cut1_stereo_44KHz.wav
3	83	4	3	2	I	2	0	1130	0	poli_8sides 1_whiteLine3.jpg	MediumShort_e16_cut1_stereo_44KHz.wav
3	84	1	1	1	C	1	1	975	1	poli_8sides 13_whiteLine3.jpg	MediumShort_e22_cut1_stereo_44KHz.wav
3	85	2	2	1	C	1	1	1048	1	poli_8sides 12_whiteLine3.jpg	MediumShort_b16_cut3_MS_stereo_44KHz.wav
3	86	3	4	2	I	1	0	816	0	poli_8sides 10_whiteLine3.jpg	MediumShort_b10_cut1_MS_stereo_44KHz.wav
3	87	4	4	2	I	1	0	858	0	poli_8sides 1_whiteLine3.jpg	MediumShort_b10_cut1_MS_stereo_44KHz.wav
3	88	1	2	0	C	2	1	880	1	poli_8sides 13_whiteLine3.jpg	MediumShort_b16_cut3_MS_stereo_44KHz.wav
3	89	4	3	2	I	2	0	1436	0	poli_8sides 1_whiteLine3.jpg	MediumShort_e16_cut1_stereo_44KHz.wav
3	90	2	2	1	C	1	1	1104	1	poli_8sides 12_whiteLine3.jpg	MediumShort_b16_cut3_MS_stereo_44KHz.wav
3	91	1	2	0	C	2	1	640	1	poli_8sides 13_whiteLine3.jpg	MediumShort_b16_cut3_MS_stereo_44KHz.wav
3	92	3	4	2	I	1	0	1291	0	poli_8sides 10_whiteLine3.jpg	MediumShort_b10_cut1_MS_stereo_44KHz.wav
3	93	2	1	0	C	2	1	703	1	poli_8sides 12_whiteLine3.jpg	MediumShort_e22_cut1_stereo_44KHz.wav
3	94	3	3	2	I	1	0	1061	0	poli_8sides 10_whiteLine3.jpg	MediumShort_e16_cut1_stereo_44KHz.wav
3	95	1	1	1	C	1	1	1246	1	poli_8sides 13_whiteLine3.jpg	MediumShort_e22_cut1_stereo_44KHz.wav
3	96	4	4	2	I	1	0	1024	1	poli_8sides 1_whiteLine3.jpg	MediumShort_b10_cut1_MS_stereo_44KHz.wav
3	97	2	2	1	C	1	1	822	1	poli_8sides 12_whiteLine3.jpg	MediumShort_b16_cut3_MS_stereo_44KHz.wav
3	98	1	2	0	C	2	1	1122	1	poli_8sides 13_whiteLine3.jpg	MediumShort_b16_cut3_MS_stereo_44KHz.wav
3	99	4	3	2	I	2	0	1164	1	poli_8sides 1_whiteLine3.jpg	MediumShort_e16_cut1_stereo_44KHz.wav
3	100	3	4	2	I	2	0	1149	0	poli_8sides 10_whiteLine3.jpg	MediumShort_b10_cut1_MS_stereo_44KHz.wav
3	101	2	1	0	C	2	1	679	1	poli_8sides 12_whiteLine3.jpg	MediumShort_e22_cut1_stereo_44KHz.wav
3	102	3	3	2	I	1	0	1113	0	poli_8sides 10_whiteLine3.jpg	MediumShort_e16_cut1_stereo_44KHz.wav
3	103	4	4	2	I	1	0	855	1	poli_8sides 1_whiteLine3.jpg	MediumShort_b10_cut1_MS_stereo_44KHz.wav
3	104	1	1	1	C	1	1	1157	1	poli_8sides 13_whiteLine3.jpg	MediumShort_e22_cut1_stereo_44KHz.wav
3	105	4	3	2	I	2	0	1375	1	poli_8sides 1_whiteLine3.jpg	MediumShort_e16_cut1_stereo_44KHz.wav
3	106	1	2	0	C	1	0	694	0	poli_8sides 13_whiteLine3.jpg	MediumShort_b16_cut3_MS_stereo_44KHz.wav
3	107	3	3	2	I	2	0	649	1	poli_8sides 10_whiteLine3.jpg	MediumShort_e16_cut1_stereo_44KHz.wav
3	108	2	1	0	C	2	1	687	1	poli_8sides 12_whiteLine3.jpg	MediumShort_e22_cut1_stereo_44KHz.wav
3	109	4	4	2	I	1	0	1010	0	poli_8sides 1_whiteLine3.jpg	MediumShort_b10_cut1_MS_stereo_44KHz.wav
3	110	1	1	1	C	1	1	994	1	poli_8sides 13_whiteLine3.jpg	MediumShort_e22_cut1_stereo_44KHz.wav
3	111	3	4	2	I	1	0	1034	1	poli_8sides 10_whiteLine3.jpg	MediumShort_b10_cut1_MS_stereo_44KHz.wav
3	112	2	2	1	C	1	1	833	1	poli_8sides 12_whiteLine3.jpg	MediumShort_b16_cut3_MS_stereo_44KHz.wav
3	113	3	4	2	I	2	0	976	1	poli_8sides 10_whiteLine3.jpg	MediumShort_b10_cut1_MS_stereo_44KHz.wav
3	114	1	2	0	C	2	1	933	1	poli_8sides 13_whiteLine3.jpg	MediumShort_b16_cut3_MS_stereo_44KHz.wav
3	115	4	3	2	I	2	0	1125	1	poli_8sides 1_whiteLine3.jpg	MediumShort_e16_cut1_stereo_44KHz.wav
3	116	2	2	1	C	1	1	790	1	poli_8sides 12_whiteLine3.jpg	MediumShort_b16_cut3_MS_stereo_44KHz.wav
3	117	4	4	2	I	1	0	1201	0	poli_8sides 1_whiteLine3.jpg	MediumShort_b10_cut1_MS_stereo_44KHz.wav
3	118	2	1	0	C	2	1	712	1	poli_8sides 12_whiteLine3.jpg	MediumShort_e22_cut1_stereo_44KHz.wav
3	119	3	3	2	I	2	0	1018	0	poli_8sides 10_whiteLine3.jpg	MediumShort_e16_cut1_stereo_44KHz.wav
3	120	1	1	1	C	1	1	973	1	poli_8sides 13_whiteLine3.jpg	MediumShort_e22_cut1_stereo_44KHz.wav
3	121	4	3	2	I	2	0	1401	0	poli_8sides 1_whiteLine3.jpg	MediumShort_e16_cut1_stereo_44KHz.wav
3	122	2	1	0	C	2	1	753	1	poli_8sides 12_whiteLine3.jpg	MediumShort_e22_cut1_stereo_44KHz.wav
3	123	1	2	0	C	2	1	921	1	poli_8sides 13_whiteLine3.jpg	MediumShort_b16_cut3_MS_stereo_44KHz.wav
3	124	3	4	2	I	2	0	1180	0	poli_8sides 10_whiteLine3.jpg	MediumShort_b10_cut1_MS_stereo_44KHz.wav
3	125	2	2	1	C	1	1	975	1	poli_8sides 12_whiteLine3.jpg	MediumShort_b16_cut3_MS_stereo_44KHz.wav
3	126	3	3	2	I	1	0	1252	0	poli_8sides 10_whiteLine3.jpg	MediumShort_e16_cut1_stereo_44KHz.wav
3	127	1	1	1	C	1	1	852	1	poli_8sides 13_whiteLine3.jpg	MediumShort_e22_cut1_stereo_44KHz.wav
3	128	4	4	2	I	1	0	1126	0	poli_8sides 1_whiteLine3.jpg	MediumShort_b10_cut1_MS_stereo_44KHz.wav
3	129	2	1	0	C	2	1	637	1	poli_8sides 12_whiteLine3.jpg	MediumShort_e22_cut1_stereo_44KHz.wav
3	130	1	1	1	C	1	1	740	1	poli_8sides 13_whiteLine3.jpg	MediumShort_e22_cut1_stereo_44KHz.wav
3	131	3	3	2	I	1	0	1335	0	poli_8sides 10_whiteLine3.jpg	MediumShort_e16_cut1_stereo_44KHz.wav
3	132	4	4	2	I	1	0	658	0	poli_8sides 1_whiteLine3.jpg	MediumShort_b10_cut1_MS_stereo_44KHz.wav
3	133	1	2	0	C	2	1	1242	1	poli_8sides 13_whiteLine3.jpg	MediumShort_b16_cut3_MS_stereo_44KHz.wav
3	134	4	3	2	I	2	0	1423	1	poli_8sides 1_whiteLine3.jpg	MediumShort_e16_cut1_stereo_44KHz.wav
3	135	2	2	1	C	1	1	1444	1	poli_8sides 12_whiteLine3.jpg	MediumShort_b16_cut3_MS_stereo_44KHz.wav
3	136	3	4	2	I	2	0	1106	0	poli_8sides 10_whiteLine3.jpg	MediumShort_b10_cut1_MS_stereo_44KHz.wav
3	137	2	1	0	C	2	1	808	1	poli_8sides 12_whiteLine3.jpg	MediumShort_e22_cut1_stereo_44KHz.wav
3	138	4	3	2	I	2	0	1356	0	poli_8sides 1_whiteLine3.jpg	MediumShort_e16_cut1_stereo_44KHz.wav
3	139	1	1	1	C	1	1	848	1	poli_8sides 13_whiteLine3.jpg	MediumShort_e22_cut1_stereo_44KHz.wav
3	140	3	4	2	I	1	0	1476	0	poli_8sides 10_whiteLine3.jpg	MediumShort_b10_cut1_MS_stereo_44KHz.wav
3	141	1	2	0	C	0	0	0	0	poli_8sides 13_whiteLine3.jpg	MediumShort_b16_cut3_MS_stereo_44KHz.wav
3	142	3	3	2	I	1	0	1264	0	poli_8sides 10_whiteLine3.jpg	MediumShort_e16_cut1_stereo_44KHz.wav
3	143	2	2	1	C	1	1	1104	1	poli_8sides 12_whiteLine3.jpg	MediumShort_b16_cut3_MS_stereo_44KHz.wav
3	144	4	4	2	I	1	0	1311	0	poli_8sides 1_whiteLine3.jpg	MediumShort_b10_cut1_MS_stereo_44KHz.wav
3	145	2	1	0	C	2	1	946	1	poli_8sides 12_whiteLine3.jpg	MediumShort_e22_cut1_stereo_44KHz.wav
3	146	4	3	2	I	1	0	1170	0	poli_8sides 1_whiteLine3.jpg	MediumShort_e16_cut1_stereo_44KHz.wav
3	147	3	4	2	I	2	0	1180	1	poli_8sides 10_whiteLine3.jpg	MediumShort_b10_cut1_MS_stereo_44KHz.wav
3	148	1	2	0	C	2	1	879	1	poli_8sides 13_whiteLine3.jpg	MediumShort_b16_cut3_MS_stereo_44KHz.wav
3	149	3	3	2	I	2	0	1351	0	poli_8sides 10_whiteLine3.jpg	MediumShort_e16_cut1_stereo_44KHz.wav
3	150	4	4	2	I	1	0	957	1	poli_8sides 1_whiteLine3.jpg	MediumShort_b10_cut1_MS_stereo_44KHz.wav
3	151	1	1	1	C	1	1	1291	1	poli_8sides 13_whiteLine3.jpg	MediumShort_e22_cut1_stereo_44KHz.wav
3	152	2	2	1	C	2	0	392	0	poli_8sides 12_whiteLine3.jpg	MediumShort_b16_cut3_MS_stereo_44KHz.wav
3	153	4	4	2	I	2	0	1350	1	poli_8sides 1_whiteLine3.jpg	MediumShort_b10_cut1_MS_stereo_44KHz.wav
3	154	1	2	0	C	2	1	794	1	poli_8sides 13_whiteLine3.jpg	MediumShort_b16_cut3_MS_stereo_44KHz.wav
3	155	3	4	2	I	1	0	1074	1	poli_8sides 10_whiteLine3.jpg	MediumShort_b10_cut1_MS_stereo_44KHz.wav
3	156	2	1	0	C	2	1	654	1	poli_8sides 12_whiteLine3.jpg	MediumShort_e22_cut1_stereo_44KHz.wav
3	157	4	3	2	I	2	0	799	1	poli_8sides 1_whiteLine3.jpg	MediumShort_e16_cut1_stereo_44KHz.wav
3	158	1	1	1	C	1	1	1096	1	poli_8sides 13_whiteLine3.jpg	MediumShort_e22_cut1_stereo_44KHz.wav
3	159	3	3	2	I	2	0	834	1	poli_8sides 10_whiteLine3.jpg	MediumShort_e16_cut1_stereo_44KHz.wav
3	160	2	2	1	C	1	1	1033	1	poli_8sides 12_whiteLine3.jpg	MediumShort_b16_cut3_MS_stereo_44KHz.wav
3	161	1	1	1	C	1	1	1235	1	poli_8sides 13_whiteLine3.jpg	MediumShort_e22_cut1_stereo_44KHz.wav
3	162	2	1	0	C	2	1	699	1	poli_8sides 12_whiteLine3.jpg	MediumShort_e22_cut1_stereo_44KHz.wav
3	163	4	3	2	I	1	0	1106	1	poli_8sides 1_whiteLine3.jpg	MediumShort_e16_cut1_stereo_44KHz.wav
3	164	3	4	2	I	2	0	648	0	poli_8sides 10_whiteLine3.jpg	MediumShort_b10_cut1_MS_stereo_44KHz.wav
3	165	2	2	1	C	1	1	830	1	poli_8sides 12_whiteLine3.jpg	MediumShort_b16_cut3_MS_stereo_44KHz.wav
3	166	1	2	0	C	2	1	888	1	poli_8sides 13_whiteLine3.jpg	MediumShort_b16_cut3_MS_stereo_44KHz.wav
3	167	4	4	2	I	2	0	871	0	poli_8sides 1_whiteLine3.jpg	MediumShort_b10_cut1_MS_stereo_44KHz.wav
3	168	3	3	2	I	2	0	967	1	poli_8sides 10_whiteLine3.jpg	MediumShort_e16_cut1_stereo_44KHz.wav
3	169	1	2	0	C	2	1	1042	1	poli_8sides 13_whiteLine3.jpg	MediumShort_b16_cut3_MS_stereo_44KHz.wav
3	170	2	2	1	C	1	1	1300	1	poli_8sides 12_whiteLine3.jpg	MediumShort_b16_cut3_MS_stereo_44KHz.wav
3	171	3	4	2	I	2	0	1462	0	poli_8sides 10_whiteLine3.jpg	MediumShort_b10_cut1_MS_stereo_44KHz.wav
3	172	4	3	2	I	2	0	663	0	poli_8sides 1_whiteLine3.jpg	MediumShort_e16_cut1_stereo_44KHz.wav
3	173	1	1	1	C	1	1	981	1	poli_8sides 13_whiteLine3.jpg	MediumShort_e22_cut1_stereo_44KHz.wav
3	174	4	4	2	I	1	0	1072	1	poli_8sides 1_whiteLine3.jpg	MediumShort_b10_cut1_MS_stereo_44KHz.wav
3	175	3	3	2	I	2	0	923	1	poli_8sides 10_whiteLine3.jpg	MediumShort_e16_cut1_stereo_44KHz.wav
3	176	2	1	0	C	2	1	1172	1	poli_8sides 12_whiteLine3.jpg	MediumShort_e22_cut1_stereo_44KHz.wav
3	177	1	1	1	C	1	1	1713	1	poli_8sides 13_whiteLine3.jpg	MediumShort_e22_cut1_stereo_44KHz.wav
3	178	2	1	0	C	2	1	975	1	poli_8sides 12_whiteLine3.jpg	MediumShort_e22_cut1_stereo_44KHz.wav
3	179	4	4	2	I	1	0	921	1	poli_8sides 1_whiteLine3.jpg	MediumShort_b10_cut1_MS_stereo_44KHz.wav
3	180	3	4	2	I	2	0	904	1	poli_8sides 10_whiteLine3.jpg	MediumShort_b10_cut1_MS_stereo_44KHz.wav
3	181	1	2	0	C	2	1	754	1	poli_8sides 13_whiteLine3.jpg	MediumShort_b16_cut3_MS_stereo_44KHz.wav
3	182	3	3	2	I	1	0	1310	0	poli_8sides 10_whiteLine3.jpg	MediumShort_e16_cut1_stereo_44KHz.wav
3	183	2	2	1	C	2	0	696	0	poli_8sides 12_whiteLine3.jpg	MediumShort_b16_cut3_MS_stereo_44KHz.wav
3	184	4	3	2	I	2	0	1169	1	poli_8sides 1_whiteLine3.jpg	MediumShort_e16_cut1_stereo_44KHz.wav
3	185	1	1	1	C	1	1	982	1	poli_8sides 13_whiteLine3.jpg	MediumShort_e22_cut1_stereo_44KHz.wav
3	186	4	4	2	I	1	0	1258	0	poli_8sides 1_whiteLine3.jpg	MediumShort_b10_cut1_MS_stereo_44KHz.wav
3	187	2	1	0	C	2	1	878	1	poli_8sides 12_whiteLine3.jpg	MediumShort_e22_cut1_stereo_44KHz.wav
3	188	3	3	2	I	2	0	1028	1	poli_8sides 10_whiteLine3.jpg	MediumShort_e16_cut1_stereo_44KHz.wav
3	189	2	2	1	C	1	1	888	1	poli_8sides 12_whiteLine3.jpg	MediumShort_b16_cut3_MS_stereo_44KHz.wav
3	190	1	2	0	C	2	1	927	1	poli_8sides 13_whiteLine3.jpg	MediumShort_b16_cut3_MS_stereo_44KHz.wav
3	191	3	4	2	I	1	0	1146	1	poli_8sides 10_whiteLine3.jpg	MediumShort_b10_cut1_MS_stereo_44KHz.wav
3	192	4	3	2	I	1	0	1049	0	poli_8sides 1_whiteLine3.jpg	MediumShort_e16_cut1_stereo_44KHz.wav
3	193	1	2	0	C	2	1	920	1	poli_8sides 13_whiteLine3.jpg	MediumShort_b16_cut3_MS_stereo_44KHz.wav
3	194	4	4	2	I	2	0	1233	1	poli_8sides 1_whiteLine3.jpg	MediumShort_b10_cut1_MS_stereo_44KHz.wav
3	195	3	3	2	I	2	0	670	0	poli_8sides 10_whiteLine3.jpg	MediumShort_e16_cut1_stereo_44KHz.wav
3	196	2	1	0	C	2	1	1035	1	poli_8sides 12_whiteLine3.jpg	MediumShort_e22_cut1_stereo_44KHz.wav
3	197	1	1	1	C	1	1	745	1	poli_8sides 13_whiteLine3.jpg	MediumShort_e22_cut1_stereo_44KHz.wav
3	198	3	4	2	I	1	0	756	0	poli_8sides 10_whiteLine3.jpg	MediumShort_b10_cut1_MS_stereo_44KHz.wav
3	199	4	3	2	I	2	0	816	0	poli_8sides 1_whiteLine3.jpg	MediumShort_e16_cut1_stereo_44KHz.wav
3	200	2	2	1	C	1	1	1322	1	poli_8sides 12_whiteLine3.jpg	MediumShort_b16_cut3_MS_stereo_44KHz.wav
4	1	2	2	1	C	2	0	1137	0	poli_8sides 8_whiteLine3.jpg	MediumLong_e19_stereo_44KHz.wav
4	2	4	3	2	I	2	0	1574	0	poli_8sides 7_whiteLine3.jpg	MediumLong_e04_stereo_44KHz.wav
4	3	1	2	0	C	2	1	1135	1	poli_8sides 6_whiteLine3.jpg	MediumLong_e19_stereo_44KHz.wav
4	4	3	4	2	I	2	0	1009	0	poli_8sides 15_whiteLine3.jpg	MediumLong_b10_cut2_L_stereo_44KHz.wav
4	5	4	4	2	I	2	0	863	1	poli_8sides 7_whiteLine3.jpg	MediumLong_b10_cut2_L_stereo_44KHz.wav
4	6	3	3	2	I	2	0	1329	0	poli_8sides 15_whiteLine3.jpg	MediumLong_e04_stereo_44KHz.wav
4	7	2	1	0	C	2	1	1553	1	poli_8sides 8_whiteLine3.jpg	Medium_e26_stereo_44KHz.wav
4	8	1	1	1	C	1	1	887	1	poli_8sides 6_whiteLine3.jpg	Medium_e26_stereo_44KHz.wav
4	9	3	4	2	I	1	0	1614	1	poli_8sides 15_whiteLine3.jpg	MediumLong_b10_cut2_L_stereo_44KHz.wav
4	10	4	3	2	I	1	0	1525	1	poli_8sides 7_whiteLine3.jpg	MediumLong_e04_stereo_44KHz.wav
4	11	2	2	1	C	1	1	1087	1	poli_8sides 8_whiteLine3.jpg	MediumLong_e19_stereo_44KHz.wav
4	12	1	1	1	C	1	1	904	1	poli_8sides 6_whiteLine3.jpg	Medium_e26_stereo_44KHz.wav
4	13	4	4	2	I	2	0	995	0	poli_8sides 7_whiteLine3.jpg	MediumLong_b10_cut2_L_stereo_44KHz.wav
4	14	2	1	0	C	1	0	1330	0	poli_8sides 8_whiteLine3.jpg	Medium_e26_stereo_44KHz.wav
4	15	3	3	2	I	2	0	1277	1	poli_8sides 15_whiteLine3.jpg	MediumLong_e04_stereo_44KHz.wav
4	16	1	2	0	C	2	1	795	1	poli_8sides 6_whiteLine3.jpg	MediumLong_e19_stereo_44KHz.wav
4	17	2	2	1	C	1	1	844	1	poli_8sides 8_whiteLine3.jpg	MediumLong_e19_stereo_44KHz.wav
4	18	3	3	2	I	2	0	853	1	poli_8sides 15_whiteLine3.jpg	MediumLong_e04_stereo_44KHz.wav
4	19	4	3	2	I	1	0	1141	1	poli_8sides 7_whiteLine3.jpg	MediumLong_e04_stereo_44KHz.wav
4	20	1	2	0	C	2	1	1013	1	poli_8sides 6_whiteLine3.jpg	MediumLong_e19_stereo_44KHz.wav
4	21	2	1	0	C	2	1	945	1	poli_8sides 8_whiteLine3.jpg	Medium_e26_stereo_44KHz.wav
4	22	3	4	2	I	1	0	998	1	poli_8sides 15_whiteLine3.jpg	MediumLong_b10_cut2_L_stereo_44KHz.wav
4	23	1	1	1	C	1	1	882	1	poli_8sides 6_whiteLine3.jpg	Medium_e26_stereo_44KHz.wav
4	24	4	4	2	I	2	0	856	0	poli_8sides 7_whiteLine3.jpg	MediumLong_b10_cut2_L_stereo_44KHz.wav
4	25	2	2	1	C	1	1	899	1	poli_8sides 8_whiteLine3.jpg	MediumLong_e19_stereo_44KHz.wav
4	26	4	4	2	I	1	0	1439	1	poli_8sides 7_whiteLine3.jpg	MediumLong_b10_cut2_L_stereo_44KHz.wav
4	27	1	1	1	C	1	1	1022	1	poli_8sides 6_whiteLine3.jpg	Medium_e26_stereo_44KHz.wav
4	28	3	4	2	I	2	0	959	1	poli_8sides 15_whiteLine3.jpg	MediumLong_b10_cut2_L_stereo_44KHz.wav
4	29	1	2	0	C	2	1	854	1	poli_8sides 6_whiteLine3.jpg	MediumLong_e19_stereo_44KHz.wav
4	30	4	3	2	I	1	0	876	0	poli_8sides 7_whiteLine3.jpg	MediumLong_e04_stereo_44KHz.wav
4	31	2	1	0	C	2	1	975	1	poli_8sides 8_whiteLine3.jpg	Medium_e26_stereo_44KHz.wav
4	32	3	3	2	I	1	0	953	0	poli_8sides 15_whiteLine3.jpg	MediumLong_e04_stereo_44KHz.wav
4	33	1	2	0	C	2	1	1113	1	poli_8sides 6_whiteLine3.jpg	MediumLong_e19_stereo_44KHz.wav
4	34	2	2	1	C	1	1	1039	1	poli_8sides 8_whiteLine3.jpg	MediumLong_e19_stereo_44KHz.wav
4	35	3	4	2	I	2	0	1888	0	poli_8sides 15_whiteLine3.jpg	MediumLong_b10_cut2_L_stereo_44KHz.wav
4	36	4	3	2	I	2	0	881	0	poli_8sides 7_whiteLine3.jpg	MediumLong_e04_stereo_44KHz.wav
4	37	1	1	1	C	1	1	1293	1	poli_8sides 6_whiteLine3.jpg	Medium_e26_stereo_44KHz.wav
4	38	4	4	2	I	1	0	1844	1	poli_8sides 7_whiteLine3.jpg	MediumLong_b10_cut2_L_stereo_44KHz.wav
4	39	3	3	2	I	1	0	1266	1	poli_8sides 15_whiteLine3.jpg	MediumLong_e04_stereo_44KHz.wav
4	40	2	1	0	C	2	1	795	1	poli_8sides 8_whiteLine3.jpg	Medium_e26_stereo_44KHz.wav
4	41	1	1	1	C	1	1	895	1	poli_8sides 6_whiteLine3.jpg	Medium_e26_stereo_44KHz.wav
4	42	3	3	2	I	1	0	1101	0	poli_8sides 15_whiteLine3.jpg	MediumLong_e04_stereo_44KHz.wav
4	43	2	2	1	C	1	1	1159	1	poli_8sides 8_whiteLine3.jpg	MediumLong_e19_stereo_44KHz.wav
4	44	4	4	2	I	2	0	1180	1	poli_8sides 7_whiteLine3.jpg	MediumLong_b10_cut2_L_stereo_44KHz.wav
4	45	3	4	2	I	1	0	926	1	poli_8sides 15_whiteLine3.jpg	MediumLong_b10_cut2_L_stereo_44KHz.wav
4	46	4	3	2	I	2	0	1153	0	poli_8sides 7_whiteLine3.jpg	MediumLong_e04_stereo_44KHz.wav
4	47	1	2	0	C	2	1	782	1	poli_8sides 6_whiteLine3.jpg	MediumLong_e19_stereo_44KHz.wav
4	48	2	1	0	C	2	1	938	1	poli_8sides 8_whiteLine3.jpg	Medium_e26_stereo_44KHz.wav
4	49	1	2	0	C	2	1	956	1	poli_8sides 6_whiteLine3.jpg	MediumLong_e19_stereo_44KHz.wav
4	50	3	3	2	I	1	0	1453	0	poli_8sides 15_whiteLine3.jpg	MediumLong_e04_stereo_44KHz.wav
4	51	4	3	2	I	1	0	1204	1	poli_8sides 7_whiteLine3.jpg	MediumLong_e04_stereo_44KHz.wav
4	52	2	1	0	C	2	1	637	1	poli_8sides 8_whiteLine3.jpg	Medium_e26_stereo_44KHz.wav
4	53	4	4	2	I	2	0	1278	1	poli_8sides 7_whiteLine3.jpg	MediumLong_b10_cut2_L_stereo_44KHz.wav
4	54	3	4	2	I	1	0	946	1	poli_8sides 15_whiteLine3.jpg	MediumLong_b10_cut2_L_stereo_44KHz.wav
4	55	2	2	1	C	1	1	968	1	poli_8sides 8_whiteLine3.jpg	MediumLong_e19_stereo_44KHz.wav
4	56	1	1	1	C	1	1	1109	1	poli_8sides 6_whiteLine3.jpg	Medium_e26_stereo_44KHz.wav
4	57	2	2	1	C	1	1	883	1	poli_8sides 8_whiteLine3.jpg	MediumLong_e19_stereo_44KHz.wav
4	58	3	3	2	I	1	0	1467	1	poli_8sides 15_whiteLine3.jpg	MediumLong_e04_stereo_44KHz.wav
4	59	1	1	1	C	1	1	991	1	poli_8sides 6_whiteLine3.jpg	Medium_e26_stereo_44KHz.wav
4	60	4	4	2	I	2	0	933	0	poli_8sides 7_whiteLine3.jpg	MediumLong_b10_cut2_L_stereo_44KHz.wav
4	61	2	1	0	C	2	1	810	1	poli_8sides 8_whiteLine3.jpg	Medium_e26_stereo_44KHz.wav
4	62	1	2	0	C	2	1	957	1	poli_8sides 6_whiteLine3.jpg	MediumLong_e19_stereo_44KHz.wav
4	63	4	3	2	I	1	0	1133	0	poli_8sides 7_whiteLine3.jpg	MediumLong_e04_stereo_44KHz.wav
4	64	3	4	2	I	2	0	1236	0	poli_8sides 15_whiteLine3.jpg	MediumLong_b10_cut2_L_stereo_44KHz.wav
4	65	1	1	1	C	1	1	936	1	poli_8sides 6_whiteLine3.jpg	Medium_e26_stereo_44KHz.wav
4	66	2	2	1	C	1	1	901	1	poli_8sides 8_whiteLine3.jpg	MediumLong_e19_stereo_44KHz.wav
4	67	3	3	2	I	2	0	997	0	poli_8sides 15_whiteLine3.jpg	MediumLong_e04_stereo_44KHz.wav
4	68	4	3	2	I	1	0	1255	0	poli_8sides 7_whiteLine3.jpg	MediumLong_e04_stereo_44KHz.wav
4	69	1	2	0	C	2	1	989	1	poli_8sides 6_whiteLine3.jpg	MediumLong_e19_stereo_44KHz.wav
4	70	4	4	2	I	2	0	1777	0	poli_8sides 7_whiteLine3.jpg	MediumLong_b10_cut2_L_stereo_44KHz.wav
4	71	2	1	0	C	2	1	861	1	poli_8sides 8_whiteLine3.jpg	Medium_e26_stereo_44KHz.wav
4	72	3	4	2	I	1	0	1899	1	poli_8sides 15_whiteLine3.jpg	MediumLong_b10_cut2_L_stereo_44KHz.wav
4	73	4	3	2	I	2	0	1360	0	poli_8sides 7_whiteLine3.jpg	MediumLong_e04_stereo_44KHz.wav
4	74	3	4	2	I	1	0	1084	0	poli_8sides 15_whiteLine3.jpg	MediumLong_b10_cut2_L_stereo_44KHz.wav
4	75	1	2	0	C	2	1	810	1	poli_8sides 6_whiteLine3.jpg	MediumLong_e19_stereo_44KHz.wav
4	76	2	2	1	C	1	1	802	1	poli_8sides 8_whiteLine3.jpg	MediumLong_e19_stereo_44KHz.wav
4	77	4	4	2	I	2	0	1140	0	poli_8sides 7_whiteLine3.jpg	MediumLong_b10_cut2_L_stereo_44KHz.wav
4	78	1	1	1	C	1	1	1196	1	poli_8sides 6_whiteLine3.jpg	Medium_e26_stereo_44KHz.wav
4	79	3	3	2	I	2	0	1041	1	poli_8sides 15_whiteLine3.jpg	MediumLong_e04_stereo_44KHz.wav
4	80	2	1	0	C	2	1	846	1	poli_8sides 8_whiteLine3.jpg	Medium_e26_stereo_44KHz.wav
4	81	4	3	2	I	1	0	1158	1	poli_8sides 7_whiteLine3.jpg	MediumLong_e04_stereo_44KHz.wav
4	82	1	1	1	C	1	1	1153	1	poli_8sides 6_whiteLine3.jpg	Medium_e26_stereo_44KHz.wav
4	83	2	2	1	C	1	1	1059	1	poli_8sides 8_whiteLine3.jpg	MediumLong_e19_stereo_44KHz.wav
4	84	3	3	2	I	1	0	1400	0	poli_8sides 15_whiteLine3.jpg	MediumLong_e04_stereo_44KHz.wav
4	85	2	1	0	C	2	1	912	1	poli_8sides 8_whiteLine3.jpg	Medium_e26_stereo_44KHz.wav
4	86	4	4	2	I	2	0	1272	0	poli_8sides 7_whiteLine3.jpg	MediumLong_b10_cut2_L_stereo_44KHz.wav
4	87	3	4	2	I	1	0	1317	1	poli_8sides 15_whiteLine3.jpg	MediumLong_b10_cut2_L_stereo_44KHz.wav
4	88	1	2	0	C	2	1	1057	1	poli_8sides 6_whiteLine3.jpg	MediumLong_e19_stereo_44KHz.wav
4	89	4	3	2	I	2	0	1259	0	poli_8sides 7_whiteLine3.jpg	MediumLong_e04_stereo_44KHz.wav
4	90	2	1	0	C	2	1	868	1	poli_8sides 8_whiteLine3.jpg	Medium_e26_stereo_44KHz.wav
4	91	3	4	2	I	1	0	1207	1	poli_8sides 15_whiteLine3.jpg	MediumLong_b10_cut2_L_stereo_44KHz.wav
4	92	1	1	1	C	1	1	1190	1	poli_8sides 6_whiteLine3.jpg	Medium_e26_stereo_44KHz.wav
4	93	4	4	2	I	2	0	933	0	poli_8sides 7_whiteLine3.jpg	MediumLong_b10_cut2_L_stereo_44KHz.wav
4	94	3	3	2	I	2	0	1104	1	poli_8sides 15_whiteLine3.jpg	MediumLong_e04_stereo_44KHz.wav
4	95	1	2	0	C	2	1	524	1	poli_8sides 6_whiteLine3.jpg	MediumLong_e19_stereo_44KHz.wav
4	96	2	2	1	C	1	1	762	1	poli_8sides 8_whiteLine3.jpg	MediumLong_e19_stereo_44KHz.wav
4	97	3	3	2	I	2	0	739	1	poli_8sides 15_whiteLine3.jpg	MediumLong_e04_stereo_44KHz.wav
4	98	2	1	0	C	2	1	797	1	poli_8sides 8_whiteLine3.jpg	Medium_e26_stereo_44KHz.wav
4	99	1	2	0	C	2	1	791	1	poli_8sides 6_whiteLine3.jpg	MediumLong_e19_stereo_44KHz.wav
4	100	4	4	2	I	2	0	777	1	poli_8sides 7_whiteLine3.jpg	MediumLong_b10_cut2_L_stereo_44KHz.wav
4	101	3	4	2	I	1	0	766	1	poli_8sides 15_whiteLine3.jpg	MediumLong_b10_cut2_L_stereo_44KHz.wav
4	102	4	3	2	I	1	0	897	0	poli_8sides 7_whiteLine3.jpg	MediumLong_e04_stereo_44KHz.wav
4	103	1	1	1	C	1	1	1277	1	poli_8sides 6_whiteLine3.jpg	Medium_e26_stereo_44KHz.wav
4	104	2	2	1	C	1	1	803	1	poli_8sides 8_whiteLine3.jpg	MediumLong_e19_stereo_44KHz.wav
4	105	3	3	2	I	2	0	1146	0	poli_8sides 15_whiteLine3.jpg	MediumLong_e04_stereo_44KHz.wav
4	106	4	4	2	I	2	0	1451	0	poli_8sides 7_whiteLine3.jpg	MediumLong_b10_cut2_L_stereo_44KHz.wav
4	107	2	1	0	C	1	0	1266	0	poli_8sides 8_whiteLine3.jpg	Medium_e26_stereo_44KHz.wav
4	108	1	2	0	C	1	0	916	0	poli_8sides 6_whiteLine3.jpg	MediumLong_e19_stereo_44KHz.wav
4	109	3	4	2	I	1	0	1183	0	poli_8sides 15_whiteLine3.jpg	MediumLong_b10_cut2_L_stereo_44KHz.wav
4	110	4	3	2	I	2	0	1461	0	poli_8sides 7_whiteLine3.jpg	MediumLong_e04_stereo_44KHz.wav
4	111	1	1	1	C	1	1	1396	1	poli_8sides 6_whiteLine3.jpg	Medium_e26_stereo_44KHz.wav
4	112	2	2	1	C	1	1	765	1	poli_8sides 8_whiteLine3.jpg	MediumLong_e19_stereo_44KHz.wav
4	113	3	4	2	I	1	0	1138	0	poli_8sides 15_whiteLine3.jpg	MediumLong_b10_cut2_L_stereo_44KHz.wav
4	114	1	1	1	C	1	1	895	1	poli_8sides 6_whiteLine3.jpg	Medium_e26_stereo_44KHz.wav
4	115	2	2	1	C	2	0	818	0	poli_8sides 8_whiteLine3.jpg	MediumLong_e19_stereo_44KHz.wav
4	116	4	3	2	I	2	0	1094	1	poli_8sides 7_whiteLine3.jpg	MediumLong_e04_stereo_44KHz.wav
4	117	3	3	2	I	1	0	862	0	poli_8sides 15_whiteLine3.jpg	MediumLong_e04_stereo_44KHz.wav
4	118	2	1	0	C	2	1	841	1	poli_8sides 8_whiteLine3.jpg	Medium_e26_stereo_44KHz.wav
4	119	4	4	2	I	1	0	1419	0	poli_8sides 7_whiteLine3.jpg	MediumLong_b10_cut2_L_stereo_44KHz.wav
4	120	1	2	0	C	1	0	1063	0	poli_8sides 6_whiteLine3.jpg	MediumLong_e19_stereo_44KHz.wav
4	121	2	2	1	C	2	0	1313	0	poli_8sides 8_whiteLine3.jpg	MediumLong_e19_stereo_44KHz.wav
4	122	1	2	0	C	2	1	607	1	poli_8sides 6_whiteLine3.jpg	MediumLong_e19_stereo_44KHz.wav
4	123	4	4	2	I	2	0	948	1	poli_8sides 7_whiteLine3.jpg	MediumLong_b10_cut2_L_stereo_44KHz.wav
4	124	3	4	2	I	1	0	853	0	poli_8sides 15_whiteLine3.jpg	MediumLong_b10_cut2_L_stereo_44KHz.wav
4	125	4	3	2	I	2	0	1317	1	poli_8sides 7_whiteLine3.jpg	MediumLong_e04_stereo_44KHz.wav
4	126	1	1	1	C	1	1	906	1	poli_8sides 6_whiteLine3.jpg	Medium_e26_stereo_44KHz.wav
4	127	2	1	0	C	2	1	479	1	poli_8sides 8_whiteLine3.jpg	Medium_e26_stereo_44KHz.wav
4	128	3	3	2	I	2	0	1252	0	poli_8sides 15_whiteLine3.jpg	MediumLong_e04_stereo_44KHz.wav
4	129	4	4	2	I	2	0	938	0	poli_8sides 7_whiteLine3.jpg	MediumLong_b10_cut2_L_stereo_44KHz.wav
4	130	3	4	2	I	2	0	925	0	poli_8sides 15_whiteLine3.jpg	MediumLong_b10_cut2_L_stereo_44KHz.wav
4	131	2	1	0	C	2	1	793	1	poli_8sides 8_whiteLine3.jpg	Medium_e26_stereo_44KHz.wav
4	132	1	1	1	C	1	1	1445	1	poli_8sides 6_whiteLine3.jpg	Medium_e26_stereo_44KHz.wav
4	133	2	2	1	C	1	1	1161	1	poli_8sides 8_whiteLine3.jpg	MediumLong_e19_stereo_44KHz.wav
4	134	1	2	0	C	2	1	1156	1	poli_8sides 6_whiteLine3.jpg	MediumLong_e19_stereo_44KHz.wav
4	135	4	3	2	I	2	0	1170	1	poli_8sides 7_whiteLine3.jpg	MediumLong_e04_stereo_44KHz.wav
4	136	3	3	2	I	2	0	1183	1	poli_8sides 15_whiteLine3.jpg	MediumLong_e04_stereo_44KHz.wav
4	137	1	2	0	C	2	1	845	1	poli_8sides 6_whiteLine3.jpg	MediumLong_e19_stereo_44KHz.wav
4	138	2	2	1	C	1	1	834	1	poli_8sides 8_whiteLine3.jpg	MediumLong_e19_stereo_44KHz.wav
4	139	3	3	2	I	2	0	1300	0	poli_8sides 15_whiteLine3.jpg	MediumLong_e04_stereo_44KHz.wav
4	140	4	3	2	I	2	0	864	1	poli_8sides 7_whiteLine3.jpg	MediumLong_e04_stereo_44KHz.wav
4	141	2	1	0	C	2	1	840	1	poli_8sides 8_whiteLine3.jpg	Medium_e26_stereo_44KHz.wav
4	142	3	4	2	I	2	0	1221	0	poli_8sides 15_whiteLine3.jpg	MediumLong_b10_cut2_L_stereo_44KHz.wav
4	143	4	4	2	I	1	0	885	1	poli_8sides 7_whiteLine3.jpg	MediumLong_b10_cut2_L_stereo_44KHz.wav
4	144	1	1	1	C	1	1	1218	1	poli_8sides 6_whiteLine3.jpg	Medium_e26_stereo_44KHz.wav
4	145	2	2	1	C	1	1	851	1	poli_8sides 8_whiteLine3.jpg	MediumLong_e19_stereo_44KHz.wav
4	146	1	2	0	C	2	1	1266	1	poli_8sides 6_whiteLine3.jpg	MediumLong_e19_stereo_44KHz.wav
4	147	4	3	2	I	2	0	930	0	poli_8sides 7_whiteLine3.jpg	MediumLong_e04_stereo_44KHz.wav
4	148	3	4	2	I	2	0	1442	1	poli_8sides 15_whiteLine3.jpg	MediumLong_b10_cut2_L_stereo_44KHz.wav
4	149	1	1	1	C	1	1	847	1	poli_8sides 6_whiteLine3.jpg	Medium_e26_stereo_44KHz.wav
4	150	3	3	2	I	2	0	1698	1	poli_8sides 15_whiteLine3.jpg	MediumLong_e04_stereo_44KHz.wav
4	151	4	4	2	I	1	0	1214	1	poli_8sides 7_whiteLine3.jpg	MediumLong_b10_cut2_L_stereo_44KHz.wav
4	152	2	1	0	C	2	1	774	1	poli_8sides 8_whiteLine3.jpg	Medium_e26_stereo_44KHz.wav
4	153	3	3	2	I	1	0	1651	1	poli_8sides 15_whiteLine3.jpg	MediumLong_e04_stereo_44KHz.wav
4	154	1	1	1	C	1	1	1115	1	poli_8sides 6_whiteLine3.jpg	Medium_e26_stereo_44KHz.wav
4	155	2	1	0	C	2	1	834	1	poli_8sides 8_whiteLine3.jpg	Medium_e26_stereo_44KHz.wav
4	156	4	4	2	I	1	0	1241	1	poli_8sides 7_whiteLine3.jpg	MediumLong_b10_cut2_L_stereo_44KHz.wav
4	157	3	4	2	I	1	0	1254	0	poli_8sides 15_whiteLine3.jpg	MediumLong_b10_cut2_L_stereo_44KHz.wav
4	158	4	3	2	I	2	0	845	0	poli_8sides 7_whiteLine3.jpg	MediumLong_e04_stereo_44KHz.wav
4	159	2	2	1	C	1	1	1276	1	poli_8sides 8_whiteLine3.jpg	MediumLong_e19_stereo_44KHz.wav
4	160	1	2	0	C	2	1	1230	1	poli_8sides 6_whiteLine3.jpg	MediumLong_e19_stereo_44KHz.wav
4	161	4	4	2	I	1	0	1907	0	poli_8sides 7_whiteLine3.jpg	MediumLong_b10_cut2_L_stereo_44KHz.wav
4	162	3	3	2	I	2	0	1541	1	poli_8sides 15_whiteLine3.jpg	MediumLong_e04_stereo_44KHz.wav
4	163	1	2	0	C	2	1	839	1	poli_8sides 6_whiteLine3.jpg	MediumLong_e19_stereo_44KHz.wav
4	164	2	1	0	C	2	1	740	1	poli_8sides 8_whiteLine3.jpg	Medium_e26_stereo_44KHz.wav
4	165	3	4	2	I	1	0	998	0	poli_8sides 15_whiteLine3.jpg	MediumLong_b10_cut2_L_stereo_44KHz.wav
4	166	4	3	2	I	1	0	1166	1	poli_8sides 7_whiteLine3.jpg	MediumLong_e04_stereo_44KHz.wav
4	167	1	1	1	C	1	1	1500	1	poli_8sides 6_whiteLine3.jpg	Medium_e26_stereo_44KHz.wav
4	168	2	2	1	C	1	1	722	1	poli_8sides 8_whiteLine3.jpg	MediumLong_e19_stereo_44KHz.wav
4	169	3	4	2	I	2	0	1253	1	poli_8sides 15_whiteLine3.jpg	MediumLong_b10_cut2_L_stereo_44KHz.wav
4	170	1	1	1	C	2	0	908	0	poli_8sides 6_whiteLine3.jpg	Medium_e26_stereo_44KHz.wav
4	171	4	4	2	I	1	0	1132	1	poli_8sides 7_whiteLine3.jpg	MediumLong_b10_cut2_L_stereo_44KHz.wav
4	172	2	1	0	C	2	1	799	1	poli_8sides 8_whiteLine3.jpg	Medium_e26_stereo_44KHz.wav
4	173	1	2	0	C	2	1	989	1	poli_8sides 6_whiteLine3.jpg	MediumLong_e19_stereo_44KHz.wav
4	174	4	3	2	I	1	0	1233	1	poli_8sides 7_whiteLine3.jpg	MediumLong_e04_stereo_44KHz.wav
4	175	3	3	2	I	2	0	773	1	poli_8sides 15_whiteLine3.jpg	MediumLong_e04_stereo_44KHz.wav
4	176	2	2	1	C	1	1	969	1	poli_8sides 8_whiteLine3.jpg	MediumLong_e19_stereo_44KHz.wav
4	177	3	3	2	I	2	0	949	1	poli_8sides 15_whiteLine3.jpg	MediumLong_e04_stereo_44KHz.wav
4	178	2	1	0	C	2	1	746	1	poli_8sides 8_whiteLine3.jpg	Medium_e26_stereo_44KHz.wav
4	179	4	4	2	I	1	0	1014	1	poli_8sides 7_whiteLine3.jpg	MediumLong_b10_cut2_L_stereo_44KHz.wav
4	180	1	2	0	C	2	1	748	1	poli_8sides 6_whiteLine3.jpg	MediumLong_e19_stereo_44KHz.wav
4	181	3	4	2	I	1	0	996	1	poli_8sides 15_whiteLine3.jpg	MediumLong_b10_cut2_L_stereo_44KHz.wav
4	182	2	2	1	C	1	1	787	1	poli_8sides 8_whiteLine3.jpg	MediumLong_e19_stereo_44KHz.wav
4	183	4	3	2	I	1	0	1663	0	poli_8sides 7_whiteLine3.jpg	MediumLong_e04_stereo_44KHz.wav
4	184	1	1	1	C	2	0	991	0	poli_8sides 6_whiteLine3.jpg	Medium_e26_stereo_44KHz.wav
4	185	4	3	2	I	2	0	989	1	poli_8sides 7_whiteLine3.jpg	MediumLong_e04_stereo_44KHz.wav
4	186	2	1	0	C	2	1	801	1	poli_8sides 8_whiteLine3.jpg	Medium_e26_stereo_44KHz.wav
4	187	3	4	2	I	2	0	1182	0	poli_8sides 15_whiteLine3.jpg	MediumLong_b10_cut2_L_stereo_44KHz.wav
4	188	1	2	0	C	2	1	1065	1	poli_8sides 6_whiteLine3.jpg	MediumLong_e19_stereo_44KHz.wav
4	189	2	2	1	C	1	1	911	1	poli_8sides 8_whiteLine3.jpg	MediumLong_e19_stereo_44KHz.wav
4	190	1	1	1	C	1	1	1202	1	poli_8sides 6_whiteLine3.jpg	Medium_e26_stereo_44KHz.wav
4	191	4	4	2	I	1	0	1147	0	poli_8sides 7_whiteLine3.jpg	MediumLong_b10_cut2_L_stereo_44KHz.wav
4	192	3	3	2	I	2	0	754	0	poli_8sides 15_whiteLine3.jpg	MediumLong_e04_stereo_44KHz.wav
4	193	2	2	1	C	1	1	1113	1	poli_8sides 8_whiteLine3.jpg	MediumLong_e19_stereo_44KHz.wav
4	194	4	3	2	I	2	0	860	1	poli_8sides 7_whiteLine3.jpg	MediumLong_e04_stereo_44KHz.wav
4	195	3	4	2	I	2	0	1309	0	poli_8sides 15_whiteLine3.jpg	MediumLong_b10_cut2_L_stereo_44KHz.wav
4	196	1	1	1	C	1	1	667	1	poli_8sides 6_whiteLine3.jpg	Medium_e26_stereo_44KHz.wav
4	197	3	3	2	I	2	0	1677	0	poli_8sides 15_whiteLine3.jpg	MediumLong_e04_stereo_44KHz.wav
4	198	2	1	0	C	2	1	785	1	poli_8sides 8_whiteLine3.jpg	Medium_e26_stereo_44KHz.wav
4	199	4	4	2	I	2	0	1376	1	poli_8sides 7_whiteLine3.jpg	MediumLong_b10_cut2_L_stereo_44KHz.wav
4	200	1	2	0	C	2	1	746	1	poli_8sides 6_whiteLine3.jpg	MediumLong_e19_stereo_44KHz.wav
