block	trial	Vstim	Astim	match	C/I	resp	result	RT	fb	V-file	A-file
LR

0	1	1	1	1	C	2	1	1936	1	poli_8sides 22_whiteLine3.jpg	Practice2_b27_cut2_stereo_44KHz.wav
0	2	1	2	0	C	2	0	1235	0	poli_8sides 22_whiteLine3.jpg	Practice4_b26_stereo_44KHz.wav
0	3	2	4	0	C	1	1	884	1	poli_8sides 23_whiteLine3.jpg	Practice1_b27_cut1_stereo_44KHz.wav
0	4	2	3	1	C	2	1	751	1	poli_8sides 23_whiteLine3.jpg	Practice3_b26_cut1_stereo_44KHz.wav
0	5	1	2	0	C	1	1	725	1	poli_8sides 22_whiteLine3.jpg	Practice4_b26_stereo_44KHz.wav
0	6	2	3	1	C	2	1	810	1	poli_8sides 23_whiteLine3.jpg	Practice3_b26_cut1_stereo_44KHz.wav
0	7	2	4	0	C	1	1	735	1	poli_8sides 23_whiteLine3.jpg	Practice1_b27_cut1_stereo_44KHz.wav
0	8	1	1	1	C	2	1	981	1	poli_8sides 22_whiteLine3.jpg	Practice2_b27_cut2_stereo_44KHz.wav
0	9	1	2	0	C	1	1	894	1	poli_8sides 22_whiteLine3.jpg	Practice4_b26_stereo_44KHz.wav
0	10	1	1	1	C	2	1	738	1	poli_8sides 22_whiteLine3.jpg	Practice2_b27_cut2_stereo_44KHz.wav
0	11	2	3	1	C	1	0	664	0	poli_8sides 23_whiteLine3.jpg	Practice3_b26_cut1_stereo_44KHz.wav
0	12	2	4	0	C	2	0	1053	0	poli_8sides 23_whiteLine3.jpg	Practice1_b27_cut1_stereo_44KHz.wav
0	13	2	3	1	C	2	1	764	1	poli_8sides 23_whiteLine3.jpg	Practice3_b26_cut1_stereo_44KHz.wav
0	14	1	2	0	C	1	1	961	1	poli_8sides 22_whiteLine3.jpg	Practice4_b26_stereo_44KHz.wav
0	15	2	4	0	C	1	1	460	1	poli_8sides 23_whiteLine3.jpg	Practice1_b27_cut1_stereo_44KHz.wav
0	16	1	1	1	C	2	1	649	1	poli_8sides 22_whiteLine3.jpg	Practice2_b27_cut2_stereo_44KHz.wav
0	17	1	2	0	C	1	1	859	1	poli_8sides 22_whiteLine3.jpg	Practice4_b26_stereo_44KHz.wav
0	18	1	1	1	C	2	1	892	1	poli_8sides 22_whiteLine3.jpg	Practice2_b27_cut2_stereo_44KHz.wav
0	19	2	3	1	C	1	0	722	0	poli_8sides 23_whiteLine3.jpg	Practice3_b26_cut1_stereo_44KHz.wav
0	20	2	4	0	C	2	0	772	0	poli_8sides 23_whiteLine3.jpg	Practice1_b27_cut1_stereo_44KHz.wav
0	21	2	4	0	C	1	1	641	1	poli_8sides 23_whiteLine3.jpg	Practice1_b27_cut1_stereo_44KHz.wav
0	22	1	2	0	C	1	1	846	1	poli_8sides 22_whiteLine3.jpg	Practice4_b26_stereo_44KHz.wav
0	23	1	1	1	C	2	1	1125	1	poli_8sides 22_whiteLine3.jpg	Practice2_b27_cut2_stereo_44KHz.wav
0	24	2	3	1	C	2	1	855	1	poli_8sides 23_whiteLine3.jpg	Practice3_b26_cut1_stereo_44KHz.wav
0	25	2	3	1	C	2	1	977	1	poli_8sides 23_whiteLine3.jpg	Practice3_b26_cut1_stereo_44KHz.wav
0	26	2	4	0	C	1	1	790	1	poli_8sides 23_whiteLine3.jpg	Practice1_b27_cut1_stereo_44KHz.wav
0	27	1	1	1	C	2	1	1149	1	poli_8sides 22_whiteLine3.jpg	Practice2_b27_cut2_stereo_44KHz.wav
0	28	1	2	0	C	1	1	685	1	poli_8sides 22_whiteLine3.jpg	Practice4_b26_stereo_44KHz.wav
0	29	2	4	0	C	1	1	1612	1	poli_8sides 23_whiteLine3.jpg	Practice1_b27_cut1_stereo_44KHz.wav
0	30	1	2	0	C	1	1	822	1	poli_8sides 22_whiteLine3.jpg	Practice4_b26_stereo_44KHz.wav
avg_resp = 902
1	1	4	4	2	I	2	0	1158	0	poli_8sides 4_whiteLine3.jpg	Short_b20_cut1_stereo_44KHz.wav
1	2	2	1	0	C	1	1	842	1	poli_8sides 1_whiteLine3.jpg	Short_b09_cut1_stereo_44KHz.wav
1	3	1	2	0	C	2	0	1154	0	poli_8sides 6_whiteLine3.jpg	Short_b22_cut1_stereo_44KHz.wav
1	4	3	4	2	I	1	0	1198	0	poli_8sides 7_whiteLine3.jpg	Short_b20_cut1_stereo_44KHz.wav
1	5	2	2	1	C	1	0	917	0	poli_8sides 1_whiteLine3.jpg	Short_b22_cut1_stereo_44KHz.wav
1	6	3	3	2	I	2	0	1231	0	poli_8sides 7_whiteLine3.jpg	Short_b23_cut1_stereo_44KHz.wav
1	7	4	3	2	I	2	0	1285	1	poli_8sides 4_whiteLine3.jpg	Short_b23_cut1_stereo_44KHz.wav
1	8	1	1	1	C	1	0	1002	0	poli_8sides 6_whiteLine3.jpg	Short_b09_cut1_stereo_44KHz.wav
1	9	2	1	0	C	2	0	1186	0	poli_8sides 1_whiteLine3.jpg	Short_b09_cut1_stereo_44KHz.wav
1	10	1	2	0	C	2	0	1476	0	poli_8sides 6_whiteLine3.jpg	Short_b22_cut1_stereo_44KHz.wav
1	11	4	3	2	I	2	0	1026	1	poli_8sides 4_whiteLine3.jpg	Short_b23_cut1_stereo_44KHz.wav
1	12	3	3	2	I	1	0	861	1	poli_8sides 7_whiteLine3.jpg	Short_b23_cut1_stereo_44KHz.wav
1	13	1	1	1	C	1	0	860	0	poli_8sides 6_whiteLine3.jpg	Short_b09_cut1_stereo_44KHz.wav
1	14	3	4	2	I	2	0	1005	1	poli_8sides 7_whiteLine3.jpg	Short_b20_cut1_stereo_44KHz.wav
1	15	2	2	1	C	1	0	776	0	poli_8sides 1_whiteLine3.jpg	Short_b22_cut1_stereo_44KHz.wav
1	16	4	4	2	I	1	0	1011	1	poli_8sides 4_whiteLine3.jpg	Short_b20_cut1_stereo_44KHz.wav
1	17	2	2	1	C	1	0	1884	0	poli_8sides 1_whiteLine3.jpg	Short_b22_cut1_stereo_44KHz.wav
1	18	3	3	2	I	1	0	1145	1	poli_8sides 7_whiteLine3.jpg	Short_b23_cut1_stereo_44KHz.wav
1	19	1	1	1	C	1	0	1969	0	poli_8sides 6_whiteLine3.jpg	Short_b09_cut1_stereo_44KHz.wav
1	20	4	4	2	I	1	0	924	1	poli_8sides 4_whiteLine3.jpg	Short_b20_cut1_stereo_44KHz.wav
1	21	1	2	0	C	1	1	895	1	poli_8sides 6_whiteLine3.jpg	Short_b22_cut1_stereo_44KHz.wav
1	22	3	4	2	I	2	0	978	1	poli_8sides 7_whiteLine3.jpg	Short_b20_cut1_stereo_44KHz.wav
1	23	2	1	0	C	1	1	1903	1	poli_8sides 1_whiteLine3.jpg	Short_b09_cut1_stereo_44KHz.wav
1	24	4	3	2	I	2	0	1516	1	poli_8sides 4_whiteLine3.jpg	Short_b23_cut1_stereo_44KHz.wav
1	25	3	3	2	I	1	0	911	0	poli_8sides 7_whiteLine3.jpg	Short_b23_cut1_stereo_44KHz.wav
1	26	4	4	2	I	2	0	673	1	poli_8sides 4_whiteLine3.jpg	Short_b20_cut1_stereo_44KHz.wav
1	27	1	2	0	C	1	1	1602	1	poli_8sides 6_whiteLine3.jpg	Short_b22_cut1_stereo_44KHz.wav
1	28	2	1	0	C	1	1	1109	1	poli_8sides 1_whiteLine3.jpg	Short_b09_cut1_stereo_44KHz.wav
1	29	3	4	2	I	2	0	1284	1	poli_8sides 7_whiteLine3.jpg	Short_b20_cut1_stereo_44KHz.wav
1	30	2	2	1	C	1	0	851	0	poli_8sides 1_whiteLine3.jpg	Short_b22_cut1_stereo_44KHz.wav
1	31	1	1	1	C	2	1	1719	1	poli_8sides 6_whiteLine3.jpg	Short_b09_cut1_stereo_44KHz.wav
1	32	4	3	2	I	2	0	898	1	poli_8sides 4_whiteLine3.jpg	Short_b23_cut1_stereo_44KHz.wav
1	33	2	1	0	C	1	1	1137	1	poli_8sides 1_whiteLine3.jpg	Short_b09_cut1_stereo_44KHz.wav
1	34	1	2	0	C	1	1	798	1	poli_8sides 6_whiteLine3.jpg	Short_b22_cut1_stereo_44KHz.wav
1	35	4	3	2	I	2	0	834	0	poli_8sides 4_whiteLine3.jpg	Short_b23_cut1_stereo_44KHz.wav
1	36	3	4	2	I	2	0	948	0	poli_8sides 7_whiteLine3.jpg	Short_b20_cut1_stereo_44KHz.wav
1	37	1	1	1	C	1	0	1031	0	poli_8sides 6_whiteLine3.jpg	Short_b09_cut1_stereo_44KHz.wav
1	38	3	3	2	I	1	0	818	0	poli_8sides 7_whiteLine3.jpg	Short_b23_cut1_stereo_44KHz.wav
1	39	2	2	1	C	2	1	1455	1	poli_8sides 1_whiteLine3.jpg	Short_b22_cut1_stereo_44KHz.wav
1	40	4	4	2	I	1	0	816	1	poli_8sides 4_whiteLine3.jpg	Short_b20_cut1_stereo_44KHz.wav
1	41	2	2	1	C	1	0	1127	0	poli_8sides 1_whiteLine3.jpg	Short_b22_cut1_stereo_44KHz.wav
1	42	3	4	2	I	2	0	1234	0	poli_8sides 7_whiteLine3.jpg	Short_b20_cut1_stereo_44KHz.wav
1	43	1	1	1	C	1	0	1015	0	poli_8sides 6_whiteLine3.jpg	Short_b09_cut1_stereo_44KHz.wav
1	44	4	3	2	I	2	0	905	1	poli_8sides 4_whiteLine3.jpg	Short_b23_cut1_stereo_44KHz.wav
1	45	2	1	0	C	1	1	1734	1	poli_8sides 1_whiteLine3.jpg	Short_b09_cut1_stereo_44KHz.wav
1	46	3	3	2	I	2	0	1120	1	poli_8sides 7_whiteLine3.jpg	Short_b23_cut1_stereo_44KHz.wav
1	47	1	2	0	C	2	0	1829	0	poli_8sides 6_whiteLine3.jpg	Short_b22_cut1_stereo_44KHz.wav
1	48	4	4	2	I	1	0	1732	0	poli_8sides 4_whiteLine3.jpg	Short_b20_cut1_stereo_44KHz.wav
1	49	2	2	1	C	2	1	1217	1	poli_8sides 1_whiteLine3.jpg	Short_b22_cut1_stereo_44KHz.wav
1	50	4	3	2	I	2	0	1214	1	poli_8sides 4_whiteLine3.jpg	Short_b23_cut1_stereo_44KHz.wav
1	51	3	3	2	I	1	0	1096	1	poli_8sides 7_whiteLine3.jpg	Short_b23_cut1_stereo_44KHz.wav
1	52	1	1	1	C	0	0	0	0	poli_8sides 6_whiteLine3.jpg	Short_b09_cut1_stereo_44KHz.wav
1	53	3	4	2	I	2	0	810	1	poli_8sides 7_whiteLine3.jpg	Short_b20_cut1_stereo_44KHz.wav
1	54	2	1	0	C	1	1	856	1	poli_8sides 1_whiteLine3.jpg	Short_b09_cut1_stereo_44KHz.wav
1	55	1	2	0	C	1	1	1686	1	poli_8sides 6_whiteLine3.jpg	Short_b22_cut1_stereo_44KHz.wav
1	56	4	4	2	I	1	0	794	0	poli_8sides 4_whiteLine3.jpg	Short_b20_cut1_stereo_44KHz.wav
1	57	2	2	1	C	2	1	861	1	poli_8sides 1_whiteLine3.jpg	Short_b22_cut1_stereo_44KHz.wav
1	58	4	4	2	I	1	0	785	1	poli_8sides 4_whiteLine3.jpg	Short_b20_cut1_stereo_44KHz.wav
1	59	3	4	2	I	2	0	801	0	poli_8sides 7_whiteLine3.jpg	Short_b20_cut1_stereo_44KHz.wav
1	60	1	1	1	C	2	1	1477	1	poli_8sides 6_whiteLine3.jpg	Short_b09_cut1_stereo_44KHz.wav
1	61	2	1	0	C	1	1	869	1	poli_8sides 1_whiteLine3.jpg	Short_b09_cut1_stereo_44KHz.wav
1	62	1	2	0	C	1	1	879	1	poli_8sides 6_whiteLine3.jpg	Short_b22_cut1_stereo_44KHz.wav
1	63	4	3	2	I	2	0	913	1	poli_8sides 4_whiteLine3.jpg	Short_b23_cut1_stereo_44KHz.wav
1	64	3	3	2	I	1	0	1147	1	poli_8sides 7_whiteLine3.jpg	Short_b23_cut1_stereo_44KHz.wav
1	65	1	1	1	C	2	1	763	1	poli_8sides 6_whiteLine3.jpg	Short_b09_cut1_stereo_44KHz.wav
1	66	3	4	2	I	2	0	1006	0	poli_8sides 7_whiteLine3.jpg	Short_b20_cut1_stereo_44KHz.wav
1	67	2	2	1	C	2	1	847	1	poli_8sides 1_whiteLine3.jpg	Short_b22_cut1_stereo_44KHz.wav
1	68	4	4	2	I	1	0	1276	0	poli_8sides 4_whiteLine3.jpg	Short_b20_cut1_stereo_44KHz.wav
1	69	2	1	0	C	1	1	889	1	poli_8sides 1_whiteLine3.jpg	Short_b09_cut1_stereo_44KHz.wav
1	70	3	3	2	I	1	0	929	0	poli_8sides 7_whiteLine3.jpg	Short_b23_cut1_stereo_44KHz.wav
1	71	4	3	2	I	1	0	896	0	poli_8sides 4_whiteLine3.jpg	Short_b23_cut1_stereo_44KHz.wav
1	72	1	2	0	C	1	1	866	1	poli_8sides 6_whiteLine3.jpg	Short_b22_cut1_stereo_44KHz.wav
1	73	4	4	2	I	1	0	804	1	poli_8sides 4_whiteLine3.jpg	Short_b20_cut1_stereo_44KHz.wav
1	74	1	1	1	C	2	1	1425	1	poli_8sides 6_whiteLine3.jpg	Short_b09_cut1_stereo_44KHz.wav
1	75	3	3	2	I	1	0	926	1	poli_8sides 7_whiteLine3.jpg	Short_b23_cut1_stereo_44KHz.wav
1	76	2	2	1	C	2	1	1133	1	poli_8sides 1_whiteLine3.jpg	Short_b22_cut1_stereo_44KHz.wav
1	77	4	3	2	I	2	0	1228	0	poli_8sides 4_whiteLine3.jpg	Short_b23_cut1_stereo_44KHz.wav
1	78	3	4	2	I	1	0	1228	1	poli_8sides 7_whiteLine3.jpg	Short_b20_cut1_stereo_44KHz.wav
1	79	1	2	0	C	2	0	762	0	poli_8sides 6_whiteLine3.jpg	Short_b22_cut1_stereo_44KHz.wav
1	80	2	1	0	C	1	1	866	1	poli_8sides 1_whiteLine3.jpg	Short_b09_cut1_stereo_44KHz.wav
1	81	3	4	2	I	1	0	881	0	poli_8sides 7_whiteLine3.jpg	Short_b20_cut1_stereo_44KHz.wav
1	82	1	1	1	C	2	1	1071	1	poli_8sides 6_whiteLine3.jpg	Short_b09_cut1_stereo_44KHz.wav
1	83	2	1	0	C	1	1	754	1	poli_8sides 1_whiteLine3.jpg	Short_b09_cut1_stereo_44KHz.wav
1	84	4	4	2	I	1	0	885	1	poli_8sides 4_whiteLine3.jpg	Short_b20_cut1_stereo_44KHz.wav
1	85	3	3	2	I	1	0	1341	1	poli_8sides 7_whiteLine3.jpg	Short_b23_cut1_stereo_44KHz.wav
1	86	4	3	2	I	2	0	1414	0	poli_8sides 4_whiteLine3.jpg	Short_b23_cut1_stereo_44KHz.wav
1	87	2	2	1	C	2	1	948	1	poli_8sides 1_whiteLine3.jpg	Short_b22_cut1_stereo_44KHz.wav
1	88	1	2	0	C	2	0	1240	0	poli_8sides 6_whiteLine3.jpg	Short_b22_cut1_stereo_44KHz.wav
1	89	3	4	2	I	1	0	1161	1	poli_8sides 7_whiteLine3.jpg	Short_b20_cut1_stereo_44KHz.wav
1	90	1	1	1	C	2	1	1642	1	poli_8sides 6_whiteLine3.jpg	Short_b09_cut1_stereo_44KHz.wav
1	91	2	2	1	C	2	1	1396	1	poli_8sides 1_whiteLine3.jpg	Short_b22_cut1_stereo_44KHz.wav
1	92	4	3	2	I	1	0	733	0	poli_8sides 4_whiteLine3.jpg	Short_b23_cut1_stereo_44KHz.wav
1	93	1	2	0	C	2	0	920	0	poli_8sides 6_whiteLine3.jpg	Short_b22_cut1_stereo_44KHz.wav
1	94	3	3	2	I	1	0	885	0	poli_8sides 7_whiteLine3.jpg	Short_b23_cut1_stereo_44KHz.wav
1	95	4	4	2	I	1	0	1228	1	poli_8sides 4_whiteLine3.jpg	Short_b20_cut1_stereo_44KHz.wav
1	96	2	1	0	C	1	1	932	1	poli_8sides 1_whiteLine3.jpg	Short_b09_cut1_stereo_44KHz.wav
1	97	1	2	0	C	1	1	856	1	poli_8sides 6_whiteLine3.jpg	Short_b22_cut1_stereo_44KHz.wav
1	98	2	1	0	C	1	1	1046	1	poli_8sides 1_whiteLine3.jpg	Short_b09_cut1_stereo_44KHz.wav
1	99	4	4	2	I	1	0	815	0	poli_8sides 4_whiteLine3.jpg	Short_b20_cut1_stereo_44KHz.wav
1	100	3	4	2	I	1	0	816	1	poli_8sides 7_whiteLine3.jpg	Short_b20_cut1_stereo_44KHz.wav
1	101	4	3	2	I	2	0	1531	0	poli_8sides 4_whiteLine3.jpg	Short_b23_cut1_stereo_44KHz.wav
1	102	1	1	1	C	2	1	949	1	poli_8sides 6_whiteLine3.jpg	Short_b09_cut1_stereo_44KHz.wav
1	103	3	3	2	I	1	0	1383	1	poli_8sides 7_whiteLine3.jpg	Short_b23_cut1_stereo_44KHz.wav
1	104	2	2	1	C	2	1	1011	1	poli_8sides 1_whiteLine3.jpg	Short_b22_cut1_stereo_44KHz.wav
1	105	4	3	2	I	1	0	858	1	poli_8sides 4_whiteLine3.jpg	Short_b23_cut1_stereo_44KHz.wav
1	106	1	2	0	C	2	0	1708	0	poli_8sides 6_whiteLine3.jpg	Short_b22_cut1_stereo_44KHz.wav
1	107	2	1	0	C	1	1	807	1	poli_8sides 1_whiteLine3.jpg	Short_b09_cut1_stereo_44KHz.wav
1	108	3	4	2	I	1	0	1401	0	poli_8sides 7_whiteLine3.jpg	Short_b20_cut1_stereo_44KHz.wav
1	109	2	2	1	C	2	1	1578	1	poli_8sides 1_whiteLine3.jpg	Short_b22_cut1_stereo_44KHz.wav
1	110	1	1	1	C	1	0	677	0	poli_8sides 6_whiteLine3.jpg	Short_b09_cut1_stereo_44KHz.wav
1	111	3	3	2	I	1	0	1029	1	poli_8sides 7_whiteLine3.jpg	Short_b23_cut1_stereo_44KHz.wav
1	112	4	4	2	I	1	0	964	0	poli_8sides 4_whiteLine3.jpg	Short_b20_cut1_stereo_44KHz.wav
1	113	3	3	2	I	1	0	1011	0	poli_8sides 7_whiteLine3.jpg	Short_b23_cut1_stereo_44KHz.wav
1	114	2	2	1	C	0	0	0	0	poli_8sides 1_whiteLine3.jpg	Short_b22_cut1_stereo_44KHz.wav
1	115	1	2	0	C	1	1	994	1	poli_8sides 6_whiteLine3.jpg	Short_b22_cut1_stereo_44KHz.wav
1	116	4	4	2	I	1	0	900	0	poli_8sides 4_whiteLine3.jpg	Short_b20_cut1_stereo_44KHz.wav
1	117	2	1	0	C	2	0	17	0	poli_8sides 1_whiteLine3.jpg	Short_b09_cut1_stereo_44KHz.wav
1	118	3	4	2	I	2	0	1527	0	poli_8sides 7_whiteLine3.jpg	Short_b20_cut1_stereo_44KHz.wav
1	119	1	1	1	C	2	1	1199	1	poli_8sides 6_whiteLine3.jpg	Short_b09_cut1_stereo_44KHz.wav
1	120	4	3	2	I	0	0	0	0	poli_8sides 4_whiteLine3.jpg	Short_b23_cut1_stereo_44KHz.wav
1	121	2	1	0	C	1	1	973	1	poli_8sides 1_whiteLine3.jpg	Short_b09_cut1_stereo_44KHz.wav
1	122	3	4	2	I	1	0	944	1	poli_8sides 7_whiteLine3.jpg	Short_b20_cut1_stereo_44KHz.wav
1	123	4	3	2	I	2	0	1255	1	poli_8sides 4_whiteLine3.jpg	Short_b23_cut1_stereo_44KHz.wav
1	124	1	2	0	C	1	1	926	1	poli_8sides 6_whiteLine3.jpg	Short_b22_cut1_stereo_44KHz.wav
1	125	3	3	2	I	1	0	1514	0	poli_8sides 7_whiteLine3.jpg	Short_b23_cut1_stereo_44KHz.wav
1	126	4	4	2	I	1	0	846	0	poli_8sides 4_whiteLine3.jpg	Short_b20_cut1_stereo_44KHz.wav
1	127	1	1	1	C	2	1	1178	1	poli_8sides 6_whiteLine3.jpg	Short_b09_cut1_stereo_44KHz.wav
1	128	2	2	1	C	1	0	506	0	poli_8sides 1_whiteLine3.jpg	Short_b22_cut1_stereo_44KHz.wav
1	129	3	4	2	I	1	0	1304	0	poli_8sides 7_whiteLine3.jpg	Short_b20_cut1_stereo_44KHz.wav
1	130	1	2	0	C	1	1	1409	1	poli_8sides 6_whiteLine3.jpg	Short_b22_cut1_stereo_44KHz.wav
1	131	2	1	0	C	2	0	671	0	poli_8sides 1_whiteLine3.jpg	Short_b09_cut1_stereo_44KHz.wav
1	132	4	3	2	I	1	0	1143	1	poli_8sides 4_whiteLine3.jpg	Short_b23_cut1_stereo_44KHz.wav
1	133	1	1	1	C	1	0	1483	0	poli_8sides 6_whiteLine3.jpg	Short_b09_cut1_stereo_44KHz.wav
1	134	3	3	2	I	1	0	1090	1	poli_8sides 7_whiteLine3.jpg	Short_b23_cut1_stereo_44KHz.wav
1	135	4	4	2	I	1	0	999	0	poli_8sides 4_whiteLine3.jpg	Short_b20_cut1_stereo_44KHz.wav
1	136	2	2	1	C	2	1	1154	1	poli_8sides 1_whiteLine3.jpg	Short_b22_cut1_stereo_44KHz.wav
1	137	4	3	2	I	1	0	950	1	poli_8sides 4_whiteLine3.jpg	Short_b23_cut1_stereo_44KHz.wav
1	138	1	1	1	C	2	1	1404	1	poli_8sides 6_whiteLine3.jpg	Short_b09_cut1_stereo_44KHz.wav
1	139	3	3	2	I	1	0	889	0	poli_8sides 7_whiteLine3.jpg	Short_b23_cut1_stereo_44KHz.wav
1	140	2	2	1	C	2	1	1891	1	poli_8sides 1_whiteLine3.jpg	Short_b22_cut1_stereo_44KHz.wav
1	141	3	4	2	I	1	0	903	0	poli_8sides 7_whiteLine3.jpg	Short_b20_cut1_stereo_44KHz.wav
1	142	1	2	0	C	2	0	1550	0	poli_8sides 6_whiteLine3.jpg	Short_b22_cut1_stereo_44KHz.wav
1	143	4	4	2	I	1	0	1048	0	poli_8sides 4_whiteLine3.jpg	Short_b20_cut1_stereo_44KHz.wav
1	144	2	1	0	C	1	1	1000	1	poli_8sides 1_whiteLine3.jpg	Short_b09_cut1_stereo_44KHz.wav
1	145	4	3	2	I	1	0	893	1	poli_8sides 4_whiteLine3.jpg	Short_b23_cut1_stereo_44KHz.wav
1	146	1	2	0	C	1	1	825	1	poli_8sides 6_whiteLine3.jpg	Short_b22_cut1_stereo_44KHz.wav
1	147	2	1	0	C	1	1	1676	1	poli_8sides 1_whiteLine3.jpg	Short_b09_cut1_stereo_44KHz.wav
1	148	3	4	2	I	1	0	1927	1	poli_8sides 7_whiteLine3.jpg	Short_b20_cut1_stereo_44KHz.wav
1	149	2	2	1	C	2	1	1040	1	poli_8sides 1_whiteLine3.jpg	Short_b22_cut1_stereo_44KHz.wav
1	150	3	3	2	I	1	0	1197	1	poli_8sides 7_whiteLine3.jpg	Short_b23_cut1_stereo_44KHz.wav
1	151	1	1	1	C	1	0	1611	0	poli_8sides 6_whiteLine3.jpg	Short_b09_cut1_stereo_44KHz.wav
1	152	4	4	2	I	1	0	1083	1	poli_8sides 4_whiteLine3.jpg	Short_b20_cut1_stereo_44KHz.wav
1	153	3	3	2	I	1	0	865	1	poli_8sides 7_whiteLine3.jpg	Short_b23_cut1_stereo_44KHz.wav
1	154	4	3	2	I	1	0	1414	0	poli_8sides 4_whiteLine3.jpg	Short_b23_cut1_stereo_44KHz.wav
1	155	1	2	0	C	0	0	0	0	poli_8sides 6_whiteLine3.jpg	Short_b22_cut1_stereo_44KHz.wav
1	156	2	1	0	C	1	1	1069	1	poli_8sides 1_whiteLine3.jpg	Short_b09_cut1_stereo_44KHz.wav
1	157	3	4	2	I	1	0	920	1	poli_8sides 7_whiteLine3.jpg	Short_b20_cut1_stereo_44KHz.wav
1	158	2	2	1	C	2	1	1400	1	poli_8sides 1_whiteLine3.jpg	Short_b22_cut1_stereo_44KHz.wav
1	159	1	1	1	C	1	0	1483	0	poli_8sides 6_whiteLine3.jpg	Short_b09_cut1_stereo_44KHz.wav
1	160	4	4	2	I	1	0	811	1	poli_8sides 4_whiteLine3.jpg	Short_b20_cut1_stereo_44KHz.wav
1	161	2	1	0	C	1	1	1575	1	poli_8sides 1_whiteLine3.jpg	Short_b09_cut1_stereo_44KHz.wav
1	162	1	1	1	C	1	0	1719	0	poli_8sides 6_whiteLine3.jpg	Short_b09_cut1_stereo_44KHz.wav
1	163	4	4	2	I	1	0	819	0	poli_8sides 4_whiteLine3.jpg	Short_b20_cut1_stereo_44KHz.wav
1	164	3	3	2	I	1	0	1080	0	poli_8sides 7_whiteLine3.jpg	Short_b23_cut1_stereo_44KHz.wav
1	165	1	2	0	C	2	0	945	0	poli_8sides 6_whiteLine3.jpg	Short_b22_cut1_stereo_44KHz.wav
1	166	2	2	1	C	2	1	951	1	poli_8sides 1_whiteLine3.jpg	Short_b22_cut1_stereo_44KHz.wav
1	167	4	3	2	I	1	0	1230	0	poli_8sides 4_whiteLine3.jpg	Short_b23_cut1_stereo_44KHz.wav
1	168	3	4	2	I	1	0	1008	1	poli_8sides 7_whiteLine3.jpg	Short_b20_cut1_stereo_44KHz.wav
1	169	4	4	2	I	1	0	919	1	poli_8sides 4_whiteLine3.jpg	Short_b20_cut1_stereo_44KHz.wav
1	170	3	4	2	I	1	0	754	0	poli_8sides 7_whiteLine3.jpg	Short_b20_cut1_stereo_44KHz.wav
1	171	2	2	1	C	2	1	1644	1	poli_8sides 1_whiteLine3.jpg	Short_b22_cut1_stereo_44KHz.wav
1	172	1	2	0	C	1	1	1457	1	poli_8sides 6_whiteLine3.jpg	Short_b22_cut1_stereo_44KHz.wav
1	173	3	3	2	I	0	0	0	0	poli_8sides 7_whiteLine3.jpg	Short_b23_cut1_stereo_44KHz.wav
1	174	2	1	0	C	1	1	1233	1	poli_8sides 1_whiteLine3.jpg	Short_b09_cut1_stereo_44KHz.wav
1	175	4	3	2	I	1	0	887	0	poli_8sides 4_whiteLine3.jpg	Short_b23_cut1_stereo_44KHz.wav
1	176	1	1	1	C	2	1	1286	1	poli_8sides 6_whiteLine3.jpg	Short_b09_cut1_stereo_44KHz.wav
1	177	3	3	2	I	1	0	718	0	poli_8sides 7_whiteLine3.jpg	Short_b23_cut1_stereo_44KHz.wav
1	178	2	1	0	C	0	0	0	0	poli_8sides 1_whiteLine3.jpg	Short_b09_cut1_stereo_44KHz.wav
1	179	4	3	2	I	2	0	1596	1	poli_8sides 4_whiteLine3.jpg	Short_b23_cut1_stereo_44KHz.wav
1	180	1	1	1	C	2	1	1007	1	poli_8sides 6_whiteLine3.jpg	Short_b09_cut1_stereo_44KHz.wav
1	181	3	4	2	I	1	0	737	1	poli_8sides 7_whiteLine3.jpg	Short_b20_cut1_stereo_44KHz.wav
1	182	4	4	2	I	1	0	1115	0	poli_8sides 4_whiteLine3.jpg	Short_b20_cut1_stereo_44KHz.wav
1	183	1	2	0	C	1	1	1412	1	poli_8sides 6_whiteLine3.jpg	Short_b22_cut1_stereo_44KHz.wav
1	184	2	2	1	C	2	1	930	1	poli_8sides 1_whiteLine3.jpg	Short_b22_cut1_stereo_44KHz.wav
1	185	1	1	1	C	2	1	919	1	poli_8sides 6_whiteLine3.jpg	Short_b09_cut1_stereo_44KHz.wav
1	186	2	1	0	C	1	1	770	1	poli_8sides 1_whiteLine3.jpg	Short_b09_cut1_stereo_44KHz.wav
1	187	4	3	2	I	1	0	1572	1	poli_8sides 4_whiteLine3.jpg	Short_b23_cut1_stereo_44KHz.wav
1	188	3	4	2	I	1	0	1235	0	poli_8sides 7_whiteLine3.jpg	Short_b20_cut1_stereo_44KHz.wav
1	189	1	2	0	C	0	0	0	0	poli_8sides 6_whiteLine3.jpg	Short_b22_cut1_stereo_44KHz.wav
1	190	3	3	2	I	1	0	1160	0	poli_8sides 7_whiteLine3.jpg	Short_b23_cut1_stereo_44KHz.wav
1	191	2	2	1	C	2	1	1155	1	poli_8sides 1_whiteLine3.jpg	Short_b22_cut1_stereo_44KHz.wav
1	192	4	4	2	I	1	0	831	0	poli_8sides 4_whiteLine3.jpg	Short_b20_cut1_stereo_44KHz.wav
1	193	1	2	0	C	1	1	1072	1	poli_8sides 6_whiteLine3.jpg	Short_b22_cut1_stereo_44KHz.wav
1	194	3	3	2	I	1	0	898	0	poli_8sides 7_whiteLine3.jpg	Short_b23_cut1_stereo_44KHz.wav
1	195	4	3	2	I	1	0	1938	0	poli_8sides 4_whiteLine3.jpg	Short_b23_cut1_stereo_44KHz.wav
1	196	2	1	0	C	1	1	791	1	poli_8sides 1_whiteLine3.jpg	Short_b09_cut1_stereo_44KHz.wav
1	197	3	4	2	I	2	0	1066	0	poli_8sides 7_whiteLine3.jpg	Short_b20_cut1_stereo_44KHz.wav
1	198	2	2	1	C	2	1	973	1	poli_8sides 1_whiteLine3.jpg	Short_b22_cut1_stereo_44KHz.wav
1	199	1	1	1	C	2	1	1612	1	poli_8sides 6_whiteLine3.jpg	Short_b09_cut1_stereo_44KHz.wav
1	200	4	4	2	I	1	0	1396	0	poli_8sides 4_whiteLine3.jpg	Short_b20_cut1_stereo_44KHz.wav
2	1	1	1	1	C	0	0	0	0	poli_8sides 10_whiteLine3.jpg	MediumLong_e17_cut2_stereo_44KHz.wav
2	2	3	3	2	I	1	0	726	0	poli_8sides 13_whiteLine3.jpg	Medium_e21_stereo_44KHz.wav
2	3	2	2	1	C	1	0	1027	0	poli_8sides 9_whiteLine3.jpg	MediumLong_e04_stereo_44KHz.wav
2	4	4	4	2	I	2	0	805	0	poli_8sides 18_whiteLine3.jpg	MediumLong_b10_cut2_L_stereo_44KHz.wav
2	5	1	2	0	C	1	1	877	1	poli_8sides 10_whiteLine3.jpg	MediumLong_e04_stereo_44KHz.wav
2	6	4	3	2	I	1	0	1263	1	poli_8sides 18_whiteLine3.jpg	Medium_e21_stereo_44KHz.wav
2	7	3	4	2	I	1	0	978	0	poli_8sides 13_whiteLine3.jpg	MediumLong_b10_cut2_L_stereo_44KHz.wav
2	8	2	1	0	C	1	1	1168	1	poli_8sides 9_whiteLine3.jpg	MediumLong_e17_cut2_stereo_44KHz.wav
2	9	3	4	2	I	2	0	1084	0	poli_8sides 13_whiteLine3.jpg	MediumLong_b10_cut2_L_stereo_44KHz.wav
2	10	1	1	1	C	2	1	1019	1	poli_8sides 10_whiteLine3.jpg	MediumLong_e17_cut2_stereo_44KHz.wav
2	11	4	3	2	I	2	0	1481	1	poli_8sides 18_whiteLine3.jpg	Medium_e21_stereo_44KHz.wav
2	12	2	2	1	C	2	1	953	1	poli_8sides 9_whiteLine3.jpg	MediumLong_e04_stereo_44KHz.wav
2	13	1	2	0	C	1	1	518	1	poli_8sides 10_whiteLine3.jpg	MediumLong_e04_stereo_44KHz.wav
2	14	3	3	2	I	1	0	1199	0	poli_8sides 13_whiteLine3.jpg	Medium_e21_stereo_44KHz.wav
2	15	2	1	0	C	1	1	1279	1	poli_8sides 9_whiteLine3.jpg	MediumLong_e17_cut2_stereo_44KHz.wav
2	16	4	4	2	I	1	0	931	0	poli_8sides 18_whiteLine3.jpg	MediumLong_b10_cut2_L_stereo_44KHz.wav
2	17	3	4	2	I	1	0	705	0	poli_8sides 13_whiteLine3.jpg	MediumLong_b10_cut2_L_stereo_44KHz.wav
2	18	2	2	1	C	2	1	750	1	poli_8sides 9_whiteLine3.jpg	MediumLong_e04_stereo_44KHz.wav
2	19	1	1	1	C	2	1	1189	1	poli_8sides 10_whiteLine3.jpg	MediumLong_e17_cut2_stereo_44KHz.wav
2	20	4	3	2	I	1	0	1087	1	poli_8sides 18_whiteLine3.jpg	Medium_e21_stereo_44KHz.wav
2	21	3	3	2	I	2	0	701	0	poli_8sides 13_whiteLine3.jpg	Medium_e21_stereo_44KHz.wav
2	22	2	1	0	C	1	1	897	1	poli_8sides 9_whiteLine3.jpg	MediumLong_e17_cut2_stereo_44KHz.wav
2	23	1	2	0	C	1	1	709	1	poli_8sides 10_whiteLine3.jpg	MediumLong_e04_stereo_44KHz.wav
2	24	4	4	2	I	2	0	1049	0	poli_8sides 18_whiteLine3.jpg	MediumLong_b10_cut2_L_stereo_44KHz.wav
2	25	3	3	2	I	2	0	1183	1	poli_8sides 13_whiteLine3.jpg	Medium_e21_stereo_44KHz.wav
2	26	1	1	1	C	2	1	979	1	poli_8sides 10_whiteLine3.jpg	MediumLong_e17_cut2_stereo_44KHz.wav
2	27	2	1	0	C	1	1	818	1	poli_8sides 9_whiteLine3.jpg	MediumLong_e17_cut2_stereo_44KHz.wav
2	28	4	4	2	I	2	0	1012	1	poli_8sides 18_whiteLine3.jpg	MediumLong_b10_cut2_L_stereo_44KHz.wav
2	29	2	2	1	C	2	1	955	1	poli_8sides 9_whiteLine3.jpg	MediumLong_e04_stereo_44KHz.wav
2	30	4	3	2	I	2	0	936	0	poli_8sides 18_whiteLine3.jpg	Medium_e21_stereo_44KHz.wav
2	31	3	4	2	I	1	0	1155	1	poli_8sides 13_whiteLine3.jpg	MediumLong_b10_cut2_L_stereo_44KHz.wav
2	32	1	2	0	C	1	1	623	1	poli_8sides 10_whiteLine3.jpg	MediumLong_e04_stereo_44KHz.wav
2	33	3	3	2	I	2	0	1081	1	poli_8sides 13_whiteLine3.jpg	Medium_e21_stereo_44KHz.wav
2	34	1	2	0	C	1	1	576	1	poli_8sides 10_whiteLine3.jpg	MediumLong_e04_stereo_44KHz.wav
2	35	2	2	1	C	2	1	721	1	poli_8sides 9_whiteLine3.jpg	MediumLong_e04_stereo_44KHz.wav
2	36	4	4	2	I	2	0	1094	1	poli_8sides 18_whiteLine3.jpg	MediumLong_b10_cut2_L_stereo_44KHz.wav
2	37	2	1	0	C	1	1	726	1	poli_8sides 9_whiteLine3.jpg	MediumLong_e17_cut2_stereo_44KHz.wav
2	38	4	3	2	I	1	0	1124	1	poli_8sides 18_whiteLine3.jpg	Medium_e21_stereo_44KHz.wav
2	39	3	4	2	I	2	0	1307	1	poli_8sides 13_whiteLine3.jpg	MediumLong_b10_cut2_L_stereo_44KHz.wav
2	40	1	1	1	C	2	1	954	1	poli_8sides 10_whiteLine3.jpg	MediumLong_e17_cut2_stereo_44KHz.wav
2	41	3	3	2	I	1	0	1529	0	poli_8sides 13_whiteLine3.jpg	Medium_e21_stereo_44KHz.wav
2	42	2	2	1	C	2	1	749	1	poli_8sides 9_whiteLine3.jpg	MediumLong_e04_stereo_44KHz.wav
2	43	4	3	2	I	1	0	767	1	poli_8sides 18_whiteLine3.jpg	Medium_e21_stereo_44KHz.wav
2	44	1	1	1	C	2	1	779	1	poli_8sides 10_whiteLine3.jpg	MediumLong_e17_cut2_stereo_44KHz.wav
2	45	2	1	0	C	1	1	714	1	poli_8sides 9_whiteLine3.jpg	MediumLong_e17_cut2_stereo_44KHz.wav
2	46	1	2	0	C	1	1	691	1	poli_8sides 10_whiteLine3.jpg	MediumLong_e04_stereo_44KHz.wav
2	47	4	4	2	I	2	0	926	1	poli_8sides 18_whiteLine3.jpg	MediumLong_b10_cut2_L_stereo_44KHz.wav
2	48	3	4	2	I	1	0	605	0	poli_8sides 13_whiteLine3.jpg	MediumLong_b10_cut2_L_stereo_44KHz.wav
2	49	1	1	1	C	2	1	760	1	poli_8sides 10_whiteLine3.jpg	MediumLong_e17_cut2_stereo_44KHz.wav
2	50	2	1	0	C	1	1	755	1	poli_8sides 9_whiteLine3.jpg	MediumLong_e17_cut2_stereo_44KHz.wav
2	51	4	4	2	I	2	0	750	0	poli_8sides 18_whiteLine3.jpg	MediumLong_b10_cut2_L_stereo_44KHz.wav
2	52	3	4	2	I	2	0	883	1	poli_8sides 13_whiteLine3.jpg	MediumLong_b10_cut2_L_stereo_44KHz.wav
2	53	1	2	0	C	1	1	670	1	poli_8sides 10_whiteLine3.jpg	MediumLong_e04_stereo_44KHz.wav
2	54	2	2	1	C	2	1	918	1	poli_8sides 9_whiteLine3.jpg	MediumLong_e04_stereo_44KHz.wav
2	55	3	3	2	I	1	0	741	1	poli_8sides 13_whiteLine3.jpg	Medium_e21_stereo_44KHz.wav
2	56	4	3	2	I	2	0	654	1	poli_8sides 18_whiteLine3.jpg	Medium_e21_stereo_44KHz.wav
2	57	1	1	1	C	2	1	828	1	poli_8sides 10_whiteLine3.jpg	MediumLong_e17_cut2_stereo_44KHz.wav
2	58	3	3	2	I	1	0	1009	1	poli_8sides 13_whiteLine3.jpg	Medium_e21_stereo_44KHz.wav
2	59	4	4	2	I	2	0	972	0	poli_8sides 18_whiteLine3.jpg	MediumLong_b10_cut2_L_stereo_44KHz.wav
2	60	2	2	1	C	2	1	940	1	poli_8sides 9_whiteLine3.jpg	MediumLong_e04_stereo_44KHz.wav
2	61	3	4	2	I	2	0	940	0	poli_8sides 13_whiteLine3.jpg	MediumLong_b10_cut2_L_stereo_44KHz.wav
2	62	1	2	0	C	1	1	674	1	poli_8sides 10_whiteLine3.jpg	MediumLong_e04_stereo_44KHz.wav
2	63	2	1	0	C	1	1	788	1	poli_8sides 9_whiteLine3.jpg	MediumLong_e17_cut2_stereo_44KHz.wav
2	64	4	3	2	I	1	0	1105	0	poli_8sides 18_whiteLine3.jpg	Medium_e21_stereo_44KHz.wav
2	65	1	2	0	C	1	1	788	1	poli_8sides 10_whiteLine3.jpg	MediumLong_e04_stereo_44KHz.wav
2	66	3	4	2	I	1	0	990	1	poli_8sides 13_whiteLine3.jpg	MediumLong_b10_cut2_L_stereo_44KHz.wav
2	67	2	1	0	C	1	1	808	1	poli_8sides 9_whiteLine3.jpg	MediumLong_e17_cut2_stereo_44KHz.wav
2	68	4	3	2	I	1	0	1224	1	poli_8sides 18_whiteLine3.jpg	Medium_e21_stereo_44KHz.wav
2	69	3	3	2	I	1	0	870	0	poli_8sides 13_whiteLine3.jpg	Medium_e21_stereo_44KHz.wav
2	70	2	2	1	C	1	0	632	0	poli_8sides 9_whiteLine3.jpg	MediumLong_e04_stereo_44KHz.wav
2	71	1	1	1	C	2	1	941	1	poli_8sides 10_whiteLine3.jpg	MediumLong_e17_cut2_stereo_44KHz.wav
2	72	4	4	2	I	2	0	1160	1	poli_8sides 18_whiteLine3.jpg	MediumLong_b10_cut2_L_stereo_44KHz.wav
2	73	1	1	1	C	2	1	882	1	poli_8sides 10_whiteLine3.jpg	MediumLong_e17_cut2_stereo_44KHz.wav
2	74	2	2	1	C	2	1	867	1	poli_8sides 9_whiteLine3.jpg	MediumLong_e04_stereo_44KHz.wav
2	75	4	3	2	I	1	0	985	0	poli_8sides 18_whiteLine3.jpg	Medium_e21_stereo_44KHz.wav
2	76	3	3	2	I	1	0	1099	0	poli_8sides 13_whiteLine3.jpg	Medium_e21_stereo_44KHz.wav
2	77	2	1	0	C	1	1	802	1	poli_8sides 9_whiteLine3.jpg	MediumLong_e17_cut2_stereo_44KHz.wav
2	78	1	2	0	C	1	1	707	1	poli_8sides 10_whiteLine3.jpg	MediumLong_e04_stereo_44KHz.wav
2	79	3	4	2	I	2	0	1034	0	poli_8sides 13_whiteLine3.jpg	MediumLong_b10_cut2_L_stereo_44KHz.wav
2	80	4	4	2	I	2	0	1430	0	poli_8sides 18_whiteLine3.jpg	MediumLong_b10_cut2_L_stereo_44KHz.wav
2	81	3	3	2	I	1	0	636	1	poli_8sides 13_whiteLine3.jpg	Medium_e21_stereo_44KHz.wav
2	82	2	1	0	C	1	1	898	1	poli_8sides 9_whiteLine3.jpg	MediumLong_e17_cut2_stereo_44KHz.wav
2	83	4	3	2	I	2	0	1206	1	poli_8sides 18_whiteLine3.jpg	Medium_e21_stereo_44KHz.wav
2	84	1	2	0	C	1	1	644	1	poli_8sides 10_whiteLine3.jpg	MediumLong_e04_stereo_44KHz.wav
2	85	2	2	1	C	1	0	620	0	poli_8sides 9_whiteLine3.jpg	MediumLong_e04_stereo_44KHz.wav
2	86	4	4	2	I	2	0	1168	0	poli_8sides 18_whiteLine3.jpg	MediumLong_b10_cut2_L_stereo_44KHz.wav
2	87	3	4	2	I	1	0	1014	0	poli_8sides 13_whiteLine3.jpg	MediumLong_b10_cut2_L_stereo_44KHz.wav
2	88	1	1	1	C	2	1	983	1	poli_8sides 10_whiteLine3.jpg	MediumLong_e17_cut2_stereo_44KHz.wav
2	89	2	1	0	C	1	1	698	1	poli_8sides 9_whiteLine3.jpg	MediumLong_e17_cut2_stereo_44KHz.wav
2	90	4	4	2	I	1	0	1144	0	poli_8sides 18_whiteLine3.jpg	MediumLong_b10_cut2_L_stereo_44KHz.wav
2	91	1	1	1	C	2	1	808	1	poli_8sides 10_whiteLine3.jpg	MediumLong_e17_cut2_stereo_44KHz.wav
2	92	3	4	2	I	2	0	1393	0	poli_8sides 13_whiteLine3.jpg	MediumLong_b10_cut2_L_stereo_44KHz.wav
2	93	4	3	2	I	1	0	1228	1	poli_8sides 18_whiteLine3.jpg	Medium_e21_stereo_44KHz.wav
2	94	1	2	0	C	1	1	762	1	poli_8sides 10_whiteLine3.jpg	MediumLong_e04_stereo_44KHz.wav
2	95	3	3	2	I	1	0	1451	1	poli_8sides 13_whiteLine3.jpg	Medium_e21_stereo_44KHz.wav
2	96	2	2	1	C	2	1	853	1	poli_8sides 9_whiteLine3.jpg	MediumLong_e04_stereo_44KHz.wav
2	97	4	3	2	I	1	0	873	0	poli_8sides 18_whiteLine3.jpg	Medium_e21_stereo_44KHz.wav
2	98	1	2	0	C	1	1	915	1	poli_8sides 10_whiteLine3.jpg	MediumLong_e04_stereo_44KHz.wav
2	99	2	1	0	C	1	1	1413	1	poli_8sides 9_whiteLine3.jpg	MediumLong_e17_cut2_stereo_44KHz.wav
2	100	3	3	2	I	1	0	1040	1	poli_8sides 13_whiteLine3.jpg	Medium_e21_stereo_44KHz.wav
2	101	1	1	1	C	2	1	1070	1	poli_8sides 10_whiteLine3.jpg	MediumLong_e17_cut2_stereo_44KHz.wav
2	102	4	4	2	I	2	0	1381	0	poli_8sides 18_whiteLine3.jpg	MediumLong_b10_cut2_L_stereo_44KHz.wav
2	103	3	4	2	I	2	0	997	0	poli_8sides 13_whiteLine3.jpg	MediumLong_b10_cut2_L_stereo_44KHz.wav
2	104	2	2	1	C	2	1	1106	1	poli_8sides 9_whiteLine3.jpg	MediumLong_e04_stereo_44KHz.wav
2	105	4	4	2	I	1	0	1740	0	poli_8sides 18_whiteLine3.jpg	MediumLong_b10_cut2_L_stereo_44KHz.wav
2	106	2	2	1	C	2	1	989	1	poli_8sides 9_whiteLine3.jpg	MediumLong_e04_stereo_44KHz.wav
2	107	1	1	1	C	2	1	1103	1	poli_8sides 10_whiteLine3.jpg	MediumLong_e17_cut2_stereo_44KHz.wav
2	108	3	4	2	I	1	0	1850	1	poli_8sides 13_whiteLine3.jpg	MediumLong_b10_cut2_L_stereo_44KHz.wav
2	109	1	2	0	C	1	1	899	1	poli_8sides 10_whiteLine3.jpg	MediumLong_e04_stereo_44KHz.wav
2	110	3	3	2	I	1	0	1788	1	poli_8sides 13_whiteLine3.jpg	Medium_e21_stereo_44KHz.wav
2	111	2	1	0	C	1	1	1054	1	poli_8sides 9_whiteLine3.jpg	MediumLong_e17_cut2_stereo_44KHz.wav
2	112	4	3	2	I	1	0	1846	1	poli_8sides 18_whiteLine3.jpg	Medium_e21_stereo_44KHz.wav
2	113	1	2	0	C	1	1	771	1	poli_8sides 10_whiteLine3.jpg	MediumLong_e04_stereo_44KHz.wav
2	114	2	2	1	C	2	1	934	1	poli_8sides 9_whiteLine3.jpg	MediumLong_e04_stereo_44KHz.wav
2	115	4	4	2	I	2	0	1154	1	poli_8sides 18_whiteLine3.jpg	MediumLong_b10_cut2_L_stereo_44KHz.wav
2	116	3	3	2	I	1	0	995	1	poli_8sides 13_whiteLine3.jpg	Medium_e21_stereo_44KHz.wav
2	117	1	1	1	C	2	1	1013	1	poli_8sides 10_whiteLine3.jpg	MediumLong_e17_cut2_stereo_44KHz.wav
2	118	4	3	2	I	1	0	1151	1	poli_8sides 18_whiteLine3.jpg	Medium_e21_stereo_44KHz.wav
2	119	3	4	2	I	2	0	814	0	poli_8sides 13_whiteLine3.jpg	MediumLong_b10_cut2_L_stereo_44KHz.wav
2	120	2	1	0	C	1	1	951	1	poli_8sides 9_whiteLine3.jpg	MediumLong_e17_cut2_stereo_44KHz.wav
2	121	1	1	1	C	2	1	996	1	poli_8sides 10_whiteLine3.jpg	MediumLong_e17_cut2_stereo_44KHz.wav
2	122	3	3	2	I	1	0	1416	1	poli_8sides 13_whiteLine3.jpg	Medium_e21_stereo_44KHz.wav
2	123	4	3	2	I	2	0	906	0	poli_8sides 18_whiteLine3.jpg	Medium_e21_stereo_44KHz.wav
2	124	2	1	0	C	1	1	863	1	poli_8sides 9_whiteLine3.jpg	MediumLong_e17_cut2_stereo_44KHz.wav
2	125	4	4	2	I	2	0	1179	1	poli_8sides 18_whiteLine3.jpg	MediumLong_b10_cut2_L_stereo_44KHz.wav
2	126	3	4	2	I	1	0	911	0	poli_8sides 13_whiteLine3.jpg	MediumLong_b10_cut2_L_stereo_44KHz.wav
2	127	1	2	0	C	1	1	813	1	poli_8sides 10_whiteLine3.jpg	MediumLong_e04_stereo_44KHz.wav
2	128	2	2	1	C	2	1	1231	1	poli_8sides 9_whiteLine3.jpg	MediumLong_e04_stereo_44KHz.wav
2	129	1	2	0	C	1	1	802	1	poli_8sides 10_whiteLine3.jpg	MediumLong_e04_stereo_44KHz.wav
2	130	4	4	2	I	2	0	1288	0	poli_8sides 18_whiteLine3.jpg	MediumLong_b10_cut2_L_stereo_44KHz.wav
2	131	2	1	0	C	1	1	1046	1	poli_8sides 9_whiteLine3.jpg	MediumLong_e17_cut2_stereo_44KHz.wav
2	132	3	3	2	I	2	0	1448	0	poli_8sides 13_whiteLine3.jpg	Medium_e21_stereo_44KHz.wav
2	133	1	1	1	C	2	1	1433	1	poli_8sides 10_whiteLine3.jpg	MediumLong_e17_cut2_stereo_44KHz.wav
2	134	2	2	1	C	2	1	813	1	poli_8sides 9_whiteLine3.jpg	MediumLong_e04_stereo_44KHz.wav
2	135	4	3	2	I	1	0	1777	1	poli_8sides 18_whiteLine3.jpg	Medium_e21_stereo_44KHz.wav
2	136	3	4	2	I	2	0	1064	0	poli_8sides 13_whiteLine3.jpg	MediumLong_b10_cut2_L_stereo_44KHz.wav
2	137	4	3	2	I	2	0	1250	1	poli_8sides 18_whiteLine3.jpg	Medium_e21_stereo_44KHz.wav
2	138	1	2	0	C	1	1	709	1	poli_8sides 10_whiteLine3.jpg	MediumLong_e04_stereo_44KHz.wav
2	139	2	1	0	C	1	1	700	1	poli_8sides 9_whiteLine3.jpg	MediumLong_e17_cut2_stereo_44KHz.wav
2	140	3	3	2	I	1	0	1287	0	poli_8sides 13_whiteLine3.jpg	Medium_e21_stereo_44KHz.wav
2	141	4	4	2	I	1	0	1928	0	poli_8sides 18_whiteLine3.jpg	MediumLong_b10_cut2_L_stereo_44KHz.wav
2	142	3	4	2	I	1	0	1810	0	poli_8sides 13_whiteLine3.jpg	MediumLong_b10_cut2_L_stereo_44KHz.wav
2	143	1	1	1	C	2	1	1067	1	poli_8sides 10_whiteLine3.jpg	MediumLong_e17_cut2_stereo_44KHz.wav
2	144	2	2	1	C	2	1	1251	1	poli_8sides 9_whiteLine3.jpg	MediumLong_e04_stereo_44KHz.wav
2	145	3	3	2	I	1	0	1440	1	poli_8sides 13_whiteLine3.jpg	Medium_e21_stereo_44KHz.wav
2	146	1	2	0	C	1	1	985	1	poli_8sides 10_whiteLine3.jpg	MediumLong_e04_stereo_44KHz.wav
2	147	2	1	0	C	0	0	0	0	poli_8sides 9_whiteLine3.jpg	MediumLong_e17_cut2_stereo_44KHz.wav
2	148	4	3	2	I	1	0	1501	0	poli_8sides 18_whiteLine3.jpg	Medium_e21_stereo_44KHz.wav
2	149	1	1	1	C	2	1	923	1	poli_8sides 10_whiteLine3.jpg	MediumLong_e17_cut2_stereo_44KHz.wav
2	150	4	4	2	I	1	0	1088	1	poli_8sides 18_whiteLine3.jpg	MediumLong_b10_cut2_L_stereo_44KHz.wav
2	151	3	4	2	I	2	0	1070	1	poli_8sides 13_whiteLine3.jpg	MediumLong_b10_cut2_L_stereo_44KHz.wav
2	152	2	2	1	C	2	1	1205	1	poli_8sides 9_whiteLine3.jpg	MediumLong_e04_stereo_44KHz.wav
2	153	1	1	1	C	2	1	878	1	poli_8sides 10_whiteLine3.jpg	MediumLong_e17_cut2_stereo_44KHz.wav
2	154	3	3	2	I	2	0	1562	1	poli_8sides 13_whiteLine3.jpg	Medium_e21_stereo_44KHz.wav
2	155	2	1	0	C	1	1	1129	1	poli_8sides 9_whiteLine3.jpg	MediumLong_e17_cut2_stereo_44KHz.wav
2	156	4	3	2	I	1	0	1348	0	poli_8sides 18_whiteLine3.jpg	Medium_e21_stereo_44KHz.wav
2	157	3	4	2	I	1	0	1341	1	poli_8sides 13_whiteLine3.jpg	MediumLong_b10_cut2_L_stereo_44KHz.wav
2	158	1	2	0	C	1	1	794	1	poli_8sides 10_whiteLine3.jpg	MediumLong_e04_stereo_44KHz.wav
2	159	2	2	1	C	2	1	879	1	poli_8sides 9_whiteLine3.jpg	MediumLong_e04_stereo_44KHz.wav
2	160	4	4	2	I	1	0	1317	1	poli_8sides 18_whiteLine3.jpg	MediumLong_b10_cut2_L_stereo_44KHz.wav
2	161	2	1	0	C	1	1	1372	1	poli_8sides 9_whiteLine3.jpg	MediumLong_e17_cut2_stereo_44KHz.wav
2	162	1	2	0	C	1	1	754	1	poli_8sides 10_whiteLine3.jpg	MediumLong_e04_stereo_44KHz.wav
2	163	4	4	2	I	2	0	1415	0	poli_8sides 18_whiteLine3.jpg	MediumLong_b10_cut2_L_stereo_44KHz.wav
2	164	3	3	2	I	1	0	1428	1	poli_8sides 13_whiteLine3.jpg	Medium_e21_stereo_44KHz.wav
2	165	2	2	1	C	2	1	1109	1	poli_8sides 9_whiteLine3.jpg	MediumLong_e04_stereo_44KHz.wav
2	166	4	3	2	I	1	0	1340	0	poli_8sides 18_whiteLine3.jpg	Medium_e21_stereo_44KHz.wav
2	167	3	4	2	I	1	0	1574	1	poli_8sides 13_whiteLine3.jpg	MediumLong_b10_cut2_L_stereo_44KHz.wav
2	168	1	1	1	C	2	1	1310	1	poli_8sides 10_whiteLine3.jpg	MediumLong_e17_cut2_stereo_44KHz.wav
2	169	3	3	2	I	1	0	1018	1	poli_8sides 13_whiteLine3.jpg	Medium_e21_stereo_44KHz.wav
2	170	4	4	2	I	2	0	1659	0	poli_8sides 18_whiteLine3.jpg	MediumLong_b10_cut2_L_stereo_44KHz.wav
2	171	1	1	1	C	2	1	1284	1	poli_8sides 10_whiteLine3.jpg	MediumLong_e17_cut2_stereo_44KHz.wav
2	172	2	1	0	C	1	1	1203	1	poli_8sides 9_whiteLine3.jpg	MediumLong_e17_cut2_stereo_44KHz.wav
2	173	1	2	0	C	1	1	860	1	poli_8sides 10_whiteLine3.jpg	MediumLong_e04_stereo_44KHz.wav
2	174	2	2	1	C	2	1	891	1	poli_8sides 9_whiteLine3.jpg	MediumLong_e04_stereo_44KHz.wav
2	175	3	4	2	I	1	0	1265	1	poli_8sides 13_whiteLine3.jpg	MediumLong_b10_cut2_L_stereo_44KHz.wav
2	176	4	3	2	I	2	0	1056	0	poli_8sides 18_whiteLine3.jpg	Medium_e21_stereo_44KHz.wav
2	177	1	2	0	C	1	1	731	1	poli_8sides 10_whiteLine3.jpg	MediumLong_e04_stereo_44KHz.wav
2	178	4	3	2	I	2	0	1608	0	poli_8sides 18_whiteLine3.jpg	Medium_e21_stereo_44KHz.wav
2	179	3	4	2	I	1	0	1699	0	poli_8sides 13_whiteLine3.jpg	MediumLong_b10_cut2_L_stereo_44KHz.wav
2	180	2	2	1	C	2	1	1080	1	poli_8sides 9_whiteLine3.jpg	MediumLong_e04_stereo_44KHz.wav
2	181	1	1	1	C	2	1	949	1	poli_8sides 10_whiteLine3.jpg	MediumLong_e17_cut2_stereo_44KHz.wav
2	182	2	1	0	C	1	1	1799	1	poli_8sides 9_whiteLine3.jpg	MediumLong_e17_cut2_stereo_44KHz.wav
2	183	4	4	2	I	1	0	1374	1	poli_8sides 18_whiteLine3.jpg	MediumLong_b10_cut2_L_stereo_44KHz.wav
2	184	3	3	2	I	1	0	1593	0	poli_8sides 13_whiteLine3.jpg	Medium_e21_stereo_44KHz.wav
2	185	4	3	2	I	2	0	834	1	poli_8sides 18_whiteLine3.jpg	Medium_e21_stereo_44KHz.wav
2	186	2	1	0	C	1	1	1857	1	poli_8sides 9_whiteLine3.jpg	MediumLong_e17_cut2_stereo_44KHz.wav
2	187	1	2	0	C	1	1	807	1	poli_8sides 10_whiteLine3.jpg	MediumLong_e04_stereo_44KHz.wav
2	188	3	4	2	I	2	0	1503	1	poli_8sides 13_whiteLine3.jpg	MediumLong_b10_cut2_L_stereo_44KHz.wav
2	189	2	2	1	C	1	0	591	0	poli_8sides 9_whiteLine3.jpg	MediumLong_e04_stereo_44KHz.wav
2	190	1	1	1	C	2	1	1000	1	poli_8sides 10_whiteLine3.jpg	MediumLong_e17_cut2_stereo_44KHz.wav
2	191	4	4	2	I	1	0	1203	1	poli_8sides 18_whiteLine3.jpg	MediumLong_b10_cut2_L_stereo_44KHz.wav
2	192	3	3	2	I	1	0	1127	1	poli_8sides 13_whiteLine3.jpg	Medium_e21_stereo_44KHz.wav
2	193	2	1	0	C	1	1	1027	1	poli_8sides 9_whiteLine3.jpg	MediumLong_e17_cut2_stereo_44KHz.wav
2	194	1	1	1	C	2	1	776	1	poli_8sides 10_whiteLine3.jpg	MediumLong_e17_cut2_stereo_44KHz.wav
2	195	3	4	2	I	1	0	1640	0	poli_8sides 13_whiteLine3.jpg	MediumLong_b10_cut2_L_stereo_44KHz.wav
2	196	4	4	2	I	2	0	1024	1	poli_8sides 18_whiteLine3.jpg	MediumLong_b10_cut2_L_stereo_44KHz.wav
2	197	3	3	2	I	1	0	864	0	poli_8sides 13_whiteLine3.jpg	Medium_e21_stereo_44KHz.wav
2	198	2	2	1	C	2	1	1273	1	poli_8sides 9_whiteLine3.jpg	MediumLong_e04_stereo_44KHz.wav
2	199	4	3	2	I	1	0	1665	0	poli_8sides 18_whiteLine3.jpg	Medium_e21_stereo_44KHz.wav
2	200	1	2	0	C	2	0	1212	0	poli_8sides 10_whiteLine3.jpg	MediumLong_e04_stereo_44KHz.wav
3	1	4	3	2	I	1	0	1368	1	poli_8sides 8_whiteLine3.jpg	Medium_e26_stereo_44KHz.wav
3	2	3	4	2	I	2	0	1347	0	poli_8sides 2_whiteLine3.jpg	MediumLong_e19_stereo_44KHz.wav
3	3	2	1	0	C	1	1	813	1	poli_8sides 12_whiteLine3.jpg	Medium_e13_stereo_44KHz.wav
3	4	1	2	0	C	1	1	1040	1	poli_8sides 5_whiteLine3.jpg	Medium_e01_cut1_stereo_44KHz.wav
3	5	4	4	2	I	1	0	878	1	poli_8sides 8_whiteLine3.jpg	MediumLong_e19_stereo_44KHz.wav
3	6	2	2	1	C	1	0	1028	0	poli_8sides 12_whiteLine3.jpg	Medium_e01_cut1_stereo_44KHz.wav
3	7	3	3	2	I	1	0	909	0	poli_8sides 2_whiteLine3.jpg	Medium_e26_stereo_44KHz.wav
3	8	1	1	1	C	1	0	990	0	poli_8sides 5_whiteLine3.jpg	Medium_e13_stereo_44KHz.wav
3	9	3	4	2	I	1	0	862	1	poli_8sides 2_whiteLine3.jpg	MediumLong_e19_stereo_44KHz.wav
3	10	2	1	0	C	2	0	1700	0	poli_8sides 12_whiteLine3.jpg	Medium_e13_stereo_44KHz.wav
3	11	4	4	2	I	2	0	1791	0	poli_8sides 8_whiteLine3.jpg	MediumLong_e19_stereo_44KHz.wav
3	12	1	2	0	C	1	1	1488	1	poli_8sides 5_whiteLine3.jpg	Medium_e01_cut1_stereo_44KHz.wav
3	13	3	3	2	I	2	0	1328	1	poli_8sides 2_whiteLine3.jpg	Medium_e26_stereo_44KHz.wav
3	14	4	3	2	I	1	0	1120	0	poli_8sides 8_whiteLine3.jpg	Medium_e26_stereo_44KHz.wav
3	15	2	2	1	C	1	0	1015	0	poli_8sides 12_whiteLine3.jpg	Medium_e01_cut1_stereo_44KHz.wav
3	16	1	1	1	C	1	0	1327	0	poli_8sides 5_whiteLine3.jpg	Medium_e13_stereo_44KHz.wav
3	17	3	4	2	I	1	0	1612	0	poli_8sides 2_whiteLine3.jpg	MediumLong_e19_stereo_44KHz.wav
3	18	4	3	2	I	1	0	1056	1	poli_8sides 8_whiteLine3.jpg	Medium_e26_stereo_44KHz.wav
3	19	2	1	0	C	1	1	1106	1	poli_8sides 12_whiteLine3.jpg	Medium_e13_stereo_44KHz.wav
3	20	1	2	0	C	1	1	1331	1	poli_8sides 5_whiteLine3.jpg	Medium_e01_cut1_stereo_44KHz.wav
3	21	4	4	2	I	1	0	1023	0	poli_8sides 8_whiteLine3.jpg	MediumLong_e19_stereo_44KHz.wav
3	22	2	2	1	C	2	1	1610	1	poli_8sides 12_whiteLine3.jpg	Medium_e01_cut1_stereo_44KHz.wav
3	23	3	3	2	I	1	0	1367	1	poli_8sides 2_whiteLine3.jpg	Medium_e26_stereo_44KHz.wav
3	24	1	1	1	C	1	0	1148	0	poli_8sides 5_whiteLine3.jpg	Medium_e13_stereo_44KHz.wav
3	25	2	1	0	C	1	1	1053	1	poli_8sides 12_whiteLine3.jpg	Medium_e13_stereo_44KHz.wav
3	26	1	1	1	C	2	1	795	1	poli_8sides 5_whiteLine3.jpg	Medium_e13_stereo_44KHz.wav
3	27	4	4	2	I	2	0	1351	0	poli_8sides 8_whiteLine3.jpg	MediumLong_e19_stereo_44KHz.wav
3	28	3	3	2	I	1	0	1427	0	poli_8sides 2_whiteLine3.jpg	Medium_e26_stereo_44KHz.wav
3	29	1	2	0	C	0	0	0	0	poli_8sides 5_whiteLine3.jpg	Medium_e01_cut1_stereo_44KHz.wav
3	30	2	2	1	C	2	1	1091	1	poli_8sides 12_whiteLine3.jpg	Medium_e01_cut1_stereo_44KHz.wav
3	31	4	3	2	I	1	0	1051	0	poli_8sides 8_whiteLine3.jpg	Medium_e26_stereo_44KHz.wav
3	32	3	4	2	I	2	0	1126	1	poli_8sides 2_whiteLine3.jpg	MediumLong_e19_stereo_44KHz.wav
3	33	4	4	2	I	1	0	1429	0	poli_8sides 8_whiteLine3.jpg	MediumLong_e19_stereo_44KHz.wav
3	34	2	2	1	C	2	1	1219	1	poli_8sides 12_whiteLine3.jpg	Medium_e01_cut1_stereo_44KHz.wav
3	35	1	1	1	C	2	1	909	1	poli_8sides 5_whiteLine3.jpg	Medium_e13_stereo_44KHz.wav
3	36	3	3	2	I	1	0	1267	0	poli_8sides 2_whiteLine3.jpg	Medium_e26_stereo_44KHz.wav
3	37	2	1	0	C	1	1	1516	1	poli_8sides 12_whiteLine3.jpg	Medium_e13_stereo_44KHz.wav
3	38	1	2	0	C	1	1	1645	1	poli_8sides 5_whiteLine3.jpg	Medium_e01_cut1_stereo_44KHz.wav
3	39	3	4	2	I	2	0	1407	0	poli_8sides 2_whiteLine3.jpg	MediumLong_e19_stereo_44KHz.wav
3	40	4	3	2	I	1	0	1327	0	poli_8sides 8_whiteLine3.jpg	Medium_e26_stereo_44KHz.wav
3	41	2	1	0	C	1	1	1343	1	poli_8sides 12_whiteLine3.jpg	Medium_e13_stereo_44KHz.wav
3	42	1	2	0	C	1	1	884	1	poli_8sides 5_whiteLine3.jpg	Medium_e01_cut1_stereo_44KHz.wav
3	43	4	4	2	I	0	0	0	0	poli_8sides 8_whiteLine3.jpg	MediumLong_e19_stereo_44KHz.wav
3	44	3	3	2	I	1	0	1630	1	poli_8sides 2_whiteLine3.jpg	Medium_e26_stereo_44KHz.wav
3	45	1	1	1	C	2	1	1614	1	poli_8sides 5_whiteLine3.jpg	Medium_e13_stereo_44KHz.wav
3	46	2	2	1	C	2	1	1220	1	poli_8sides 12_whiteLine3.jpg	Medium_e01_cut1_stereo_44KHz.wav
3	47	3	4	2	I	1	0	1509	1	poli_8sides 2_whiteLine3.jpg	MediumLong_e19_stereo_44KHz.wav
3	48	4	3	2	I	2	0	1397	1	poli_8sides 8_whiteLine3.jpg	Medium_e26_stereo_44KHz.wav
3	49	2	1	0	C	1	1	1182	1	poli_8sides 12_whiteLine3.jpg	Medium_e13_stereo_44KHz.wav
3	50	4	4	2	I	1	0	1590	0	poli_8sides 8_whiteLine3.jpg	MediumLong_e19_stereo_44KHz.wav
3	51	1	1	1	C	2	1	1417	1	poli_8sides 5_whiteLine3.jpg	Medium_e13_stereo_44KHz.wav
3	52	3	4	2	I	0	0	0	0	poli_8sides 2_whiteLine3.jpg	MediumLong_e19_stereo_44KHz.wav
3	53	4	3	2	I	1	0	1786	1	poli_8sides 8_whiteLine3.jpg	Medium_e26_stereo_44KHz.wav
3	54	1	2	0	C	1	1	1382	1	poli_8sides 5_whiteLine3.jpg	Medium_e01_cut1_stereo_44KHz.wav
3	55	3	3	2	I	1	0	1222	1	poli_8sides 2_whiteLine3.jpg	Medium_e26_stereo_44KHz.wav
3	56	2	2	1	C	2	1	851	1	poli_8sides 12_whiteLine3.jpg	Medium_e01_cut1_stereo_44KHz.wav
3	57	1	1	1	C	2	1	900	1	poli_8sides 5_whiteLine3.jpg	Medium_e13_stereo_44KHz.wav
3	58	2	1	0	C	1	1	948	1	poli_8sides 12_whiteLine3.jpg	Medium_e13_stereo_44KHz.wav
3	59	4	3	2	I	2	0	1729	1	poli_8sides 8_whiteLine3.jpg	Medium_e26_stereo_44KHz.wav
3	60	3	4	2	I	2	0	1035	0	poli_8sides 2_whiteLine3.jpg	MediumLong_e19_stereo_44KHz.wav
3	61	4	4	2	I	1	0	1227	1	poli_8sides 8_whiteLine3.jpg	MediumLong_e19_stereo_44KHz.wav
3	62	1	2	0	C	1	1	1544	1	poli_8sides 5_whiteLine3.jpg	Medium_e01_cut1_stereo_44KHz.wav
3	63	3	3	2	I	1	0	1108	0	poli_8sides 2_whiteLine3.jpg	Medium_e26_stereo_44KHz.wav
3	64	2	2	1	C	2	1	1103	1	poli_8sides 12_whiteLine3.jpg	Medium_e01_cut1_stereo_44KHz.wav
3	65	3	4	2	I	2	0	1085	1	poli_8sides 2_whiteLine3.jpg	MediumLong_e19_stereo_44KHz.wav
3	66	4	3	2	I	2	0	1879	1	poli_8sides 8_whiteLine3.jpg	Medium_e26_stereo_44KHz.wav
3	67	1	2	0	C	1	1	927	1	poli_8sides 5_whiteLine3.jpg	Medium_e01_cut1_stereo_44KHz.wav
3	68	2	1	0	C	1	1	902	1	poli_8sides 12_whiteLine3.jpg	Medium_e13_stereo_44KHz.wav
3	69	3	3	2	I	1	0	872	1	poli_8sides 2_whiteLine3.jpg	Medium_e26_stereo_44KHz.wav
3	70	2	2	1	C	2	1	887	1	poli_8sides 12_whiteLine3.jpg	Medium_e01_cut1_stereo_44KHz.wav
3	71	1	1	1	C	2	1	1141	1	poli_8sides 5_whiteLine3.jpg	Medium_e13_stereo_44KHz.wav
3	72	4	4	2	I	2	0	1327	0	poli_8sides 8_whiteLine3.jpg	MediumLong_e19_stereo_44KHz.wav
3	73	2	2	1	C	2	1	982	1	poli_8sides 12_whiteLine3.jpg	Medium_e01_cut1_stereo_44KHz.wav
3	74	3	4	2	I	0	0	0	0	poli_8sides 2_whiteLine3.jpg	MediumLong_e19_stereo_44KHz.wav
3	75	1	1	1	C	2	1	1043	1	poli_8sides 5_whiteLine3.jpg	Medium_e13_stereo_44KHz.wav
3	76	4	3	2	I	2	0	1313	0	poli_8sides 8_whiteLine3.jpg	Medium_e26_stereo_44KHz.wav
3	77	2	1	0	C	1	1	1154	1	poli_8sides 12_whiteLine3.jpg	Medium_e13_stereo_44KHz.wav
3	78	4	4	2	I	1	0	1575	0	poli_8sides 8_whiteLine3.jpg	MediumLong_e19_stereo_44KHz.wav
3	79	1	2	0	C	1	1	1534	1	poli_8sides 5_whiteLine3.jpg	Medium_e01_cut1_stereo_44KHz.wav
3	80	3	3	2	I	1	0	1349	0	poli_8sides 2_whiteLine3.jpg	Medium_e26_stereo_44KHz.wav
3	81	1	1	1	C	2	1	1745	1	poli_8sides 5_whiteLine3.jpg	Medium_e13_stereo_44KHz.wav
3	82	4	4	2	I	1	0	1190	0	poli_8sides 8_whiteLine3.jpg	MediumLong_e19_stereo_44KHz.wav
3	83	2	1	0	C	1	1	802	1	poli_8sides 12_whiteLine3.jpg	Medium_e13_stereo_44KHz.wav
3	84	3	4	2	I	2	0	950	1	poli_8sides 2_whiteLine3.jpg	MediumLong_e19_stereo_44KHz.wav
3	85	1	2	0	C	1	1	1188	1	poli_8sides 5_whiteLine3.jpg	Medium_e01_cut1_stereo_44KHz.wav
3	86	3	3	2	I	2	0	1400	1	poli_8sides 2_whiteLine3.jpg	Medium_e26_stereo_44KHz.wav
3	87	4	3	2	I	1	0	1157	0	poli_8sides 8_whiteLine3.jpg	Medium_e26_stereo_44KHz.wav
3	88	2	2	1	C	2	1	777	1	poli_8sides 12_whiteLine3.jpg	Medium_e01_cut1_stereo_44KHz.wav
3	89	1	1	1	C	2	1	998	1	poli_8sides 5_whiteLine3.jpg	Medium_e13_stereo_44KHz.wav
3	90	2	1	0	C	1	1	1666	1	poli_8sides 12_whiteLine3.jpg	Medium_e13_stereo_44KHz.wav
3	91	4	3	2	I	2	0	1139	0	poli_8sides 8_whiteLine3.jpg	Medium_e26_stereo_44KHz.wav
3	92	3	3	2	I	2	0	794	1	poli_8sides 2_whiteLine3.jpg	Medium_e26_stereo_44KHz.wav
3	93	4	4	2	I	2	0	1279	1	poli_8sides 8_whiteLine3.jpg	MediumLong_e19_stereo_44KHz.wav
3	94	1	2	0	C	1	1	1093	1	poli_8sides 5_whiteLine3.jpg	Medium_e01_cut1_stereo_44KHz.wav
3	95	3	4	2	I	2	0	1072	0	poli_8sides 2_whiteLine3.jpg	MediumLong_e19_stereo_44KHz.wav
3	96	2	2	1	C	2	1	1028	1	poli_8sides 12_whiteLine3.jpg	Medium_e01_cut1_stereo_44KHz.wav
3	97	4	4	2	I	1	0	1592	0	poli_8sides 8_whiteLine3.jpg	MediumLong_e19_stereo_44KHz.wav
3	98	2	2	1	C	2	1	811	1	poli_8sides 12_whiteLine3.jpg	Medium_e01_cut1_stereo_44KHz.wav
3	99	3	3	2	I	1	0	1274	0	poli_8sides 2_whiteLine3.jpg	Medium_e26_stereo_44KHz.wav
3	100	1	1	1	C	2	1	1260	1	poli_8sides 5_whiteLine3.jpg	Medium_e13_stereo_44KHz.wav
3	101	4	3	2	I	1	0	1260	1	poli_8sides 8_whiteLine3.jpg	Medium_e26_stereo_44KHz.wav
3	102	2	1	0	C	1	1	802	1	poli_8sides 12_whiteLine3.jpg	Medium_e13_stereo_44KHz.wav
3	103	1	2	0	C	1	1	824	1	poli_8sides 5_whiteLine3.jpg	Medium_e01_cut1_stereo_44KHz.wav
3	104	3	4	2	I	1	0	1105	0	poli_8sides 2_whiteLine3.jpg	MediumLong_e19_stereo_44KHz.wav
3	105	4	4	2	I	2	0	1430	0	poli_8sides 8_whiteLine3.jpg	MediumLong_e19_stereo_44KHz.wav
3	106	2	2	1	C	2	1	1196	1	poli_8sides 12_whiteLine3.jpg	Medium_e01_cut1_stereo_44KHz.wav
3	107	1	1	1	C	2	1	1302	1	poli_8sides 5_whiteLine3.jpg	Medium_e13_stereo_44KHz.wav
3	108	3	3	2	I	1	0	1327	1	poli_8sides 2_whiteLine3.jpg	Medium_e26_stereo_44KHz.wav
3	109	2	1	0	C	1	1	1362	1	poli_8sides 12_whiteLine3.jpg	Medium_e13_stereo_44KHz.wav
3	110	1	2	0	C	1	1	1487	1	poli_8sides 5_whiteLine3.jpg	Medium_e01_cut1_stereo_44KHz.wav
3	111	4	3	2	I	1	0	1098	1	poli_8sides 8_whiteLine3.jpg	Medium_e26_stereo_44KHz.wav
3	112	3	4	2	I	1	0	951	0	poli_8sides 2_whiteLine3.jpg	MediumLong_e19_stereo_44KHz.wav
3	113	1	1	1	C	0	0	0	0	poli_8sides 5_whiteLine3.jpg	Medium_e13_stereo_44KHz.wav
3	114	2	2	1	C	2	1	934	1	poli_8sides 12_whiteLine3.jpg	Medium_e01_cut1_stereo_44KHz.wav
3	115	4	3	2	I	1	0	1153	0	poli_8sides 8_whiteLine3.jpg	Medium_e26_stereo_44KHz.wav
3	116	3	3	2	I	1	0	1696	1	poli_8sides 2_whiteLine3.jpg	Medium_e26_stereo_44KHz.wav
3	117	4	4	2	I	1	0	1293	0	poli_8sides 8_whiteLine3.jpg	MediumLong_e19_stereo_44KHz.wav
3	118	2	1	0	C	1	1	1002	1	poli_8sides 12_whiteLine3.jpg	Medium_e13_stereo_44KHz.wav
3	119	1	2	0	C	0	0	0	0	poli_8sides 5_whiteLine3.jpg	Medium_e01_cut1_stereo_44KHz.wav
3	120	3	4	2	I	1	0	1688	0	poli_8sides 2_whiteLine3.jpg	MediumLong_e19_stereo_44KHz.wav
3	121	4	3	2	I	1	0	864	1	poli_8sides 8_whiteLine3.jpg	Medium_e26_stereo_44KHz.wav
3	122	2	2	1	C	2	1	1050	1	poli_8sides 12_whiteLine3.jpg	Medium_e01_cut1_stereo_44KHz.wav
3	123	3	3	2	I	1	0	1345	1	poli_8sides 2_whiteLine3.jpg	Medium_e26_stereo_44KHz.wav
3	124	1	2	0	C	1	1	1275	1	poli_8sides 5_whiteLine3.jpg	Medium_e01_cut1_stereo_44KHz.wav
3	125	4	4	2	I	1	0	1036	1	poli_8sides 8_whiteLine3.jpg	MediumLong_e19_stereo_44KHz.wav
3	126	2	1	0	C	1	1	809	1	poli_8sides 12_whiteLine3.jpg	Medium_e13_stereo_44KHz.wav
3	127	1	1	1	C	2	1	1430	1	poli_8sides 5_whiteLine3.jpg	Medium_e13_stereo_44KHz.wav
3	128	3	4	2	I	1	0	1328	1	poli_8sides 2_whiteLine3.jpg	MediumLong_e19_stereo_44KHz.wav
3	129	2	1	0	C	1	1	1026	1	poli_8sides 12_whiteLine3.jpg	Medium_e13_stereo_44KHz.wav
3	130	3	4	2	I	2	0	1249	0	poli_8sides 2_whiteLine3.jpg	MediumLong_e19_stereo_44KHz.wav
3	131	4	3	2	I	1	0	1451	1	poli_8sides 8_whiteLine3.jpg	Medium_e26_stereo_44KHz.wav
3	132	1	1	1	C	1	0	1758	0	poli_8sides 5_whiteLine3.jpg	Medium_e13_stereo_44KHz.wav
3	133	2	2	1	C	2	1	1102	1	poli_8sides 12_whiteLine3.jpg	Medium_e01_cut1_stereo_44KHz.wav
3	134	3	3	2	I	1	0	1151	1	poli_8sides 2_whiteLine3.jpg	Medium_e26_stereo_44KHz.wav
3	135	4	4	2	I	1	0	1819	1	poli_8sides 8_whiteLine3.jpg	MediumLong_e19_stereo_44KHz.wav
3	136	1	2	0	C	1	1	1256	1	poli_8sides 5_whiteLine3.jpg	Medium_e01_cut1_stereo_44KHz.wav
3	137	3	4	2	I	2	0	1529	0	poli_8sides 2_whiteLine3.jpg	MediumLong_e19_stereo_44KHz.wav
3	138	4	4	2	I	1	0	1261	1	poli_8sides 8_whiteLine3.jpg	MediumLong_e19_stereo_44KHz.wav
3	139	1	1	1	C	2	1	1572	1	poli_8sides 5_whiteLine3.jpg	Medium_e13_stereo_44KHz.wav
3	140	2	2	1	C	2	1	699	1	poli_8sides 12_whiteLine3.jpg	Medium_e01_cut1_stereo_44KHz.wav
3	141	4	3	2	I	1	0	1224	1	poli_8sides 8_whiteLine3.jpg	Medium_e26_stereo_44KHz.wav
3	142	1	2	0	C	1	1	855	1	poli_8sides 5_whiteLine3.jpg	Medium_e01_cut1_stereo_44KHz.wav
3	143	3	3	2	I	1	0	1366	1	poli_8sides 2_whiteLine3.jpg	Medium_e26_stereo_44KHz.wav
3	144	2	1	0	C	1	1	1090	1	poli_8sides 12_whiteLine3.jpg	Medium_e13_stereo_44KHz.wav
3	145	3	3	2	I	0	0	0	0	poli_8sides 2_whiteLine3.jpg	Medium_e26_stereo_44KHz.wav
3	146	4	3	2	I	1	0	948	0	poli_8sides 8_whiteLine3.jpg	Medium_e26_stereo_44KHz.wav
3	147	1	2	0	C	1	1	700	1	poli_8sides 5_whiteLine3.jpg	Medium_e01_cut1_stereo_44KHz.wav
3	148	2	2	1	C	2	1	1007	1	poli_8sides 12_whiteLine3.jpg	Medium_e01_cut1_stereo_44KHz.wav
3	149	3	4	2	I	2	0	1048	1	poli_8sides 2_whiteLine3.jpg	MediumLong_e19_stereo_44KHz.wav
3	150	4	4	2	I	2	0	1046	0	poli_8sides 8_whiteLine3.jpg	MediumLong_e19_stereo_44KHz.wav
3	151	1	1	1	C	2	1	1245	1	poli_8sides 5_whiteLine3.jpg	Medium_e13_stereo_44KHz.wav
3	152	2	1	0	C	1	1	1279	1	poli_8sides 12_whiteLine3.jpg	Medium_e13_stereo_44KHz.wav
3	153	1	1	1	C	2	1	1161	1	poli_8sides 5_whiteLine3.jpg	Medium_e13_stereo_44KHz.wav
3	154	4	4	2	I	1	0	907	0	poli_8sides 8_whiteLine3.jpg	MediumLong_e19_stereo_44KHz.wav
3	155	3	3	2	I	1	0	1015	1	poli_8sides 2_whiteLine3.jpg	Medium_e26_stereo_44KHz.wav
3	156	2	1	0	C	1	1	733	1	poli_8sides 12_whiteLine3.jpg	Medium_e13_stereo_44KHz.wav
3	157	4	3	2	I	1	0	932	1	poli_8sides 8_whiteLine3.jpg	Medium_e26_stereo_44KHz.wav
3	158	1	2	0	C	1	1	1669	1	poli_8sides 5_whiteLine3.jpg	Medium_e01_cut1_stereo_44KHz.wav
3	159	2	2	1	C	1	0	782	0	poli_8sides 12_whiteLine3.jpg	Medium_e01_cut1_stereo_44KHz.wav
3	160	3	4	2	I	1	0	1403	0	poli_8sides 2_whiteLine3.jpg	MediumLong_e19_stereo_44KHz.wav
3	161	1	1	1	C	2	1	903	1	poli_8sides 5_whiteLine3.jpg	Medium_e13_stereo_44KHz.wav
3	162	4	4	2	I	1	0	968	0	poli_8sides 8_whiteLine3.jpg	MediumLong_e19_stereo_44KHz.wav
3	163	2	1	0	C	1	1	901	1	poli_8sides 12_whiteLine3.jpg	Medium_e13_stereo_44KHz.wav
3	164	3	4	2	I	1	0	769	0	poli_8sides 2_whiteLine3.jpg	MediumLong_e19_stereo_44KHz.wav
3	165	2	2	1	C	2	1	874	1	poli_8sides 12_whiteLine3.jpg	Medium_e01_cut1_stereo_44KHz.wav
3	166	4	3	2	I	1	0	1415	1	poli_8sides 8_whiteLine3.jpg	Medium_e26_stereo_44KHz.wav
3	167	1	2	0	C	1	1	1675	1	poli_8sides 5_whiteLine3.jpg	Medium_e01_cut1_stereo_44KHz.wav
3	168	3	3	2	I	1	0	1180	1	poli_8sides 2_whiteLine3.jpg	Medium_e26_stereo_44KHz.wav
3	169	1	2	0	C	1	1	826	1	poli_8sides 5_whiteLine3.jpg	Medium_e01_cut1_stereo_44KHz.wav
3	170	4	3	2	I	1	0	928	1	poli_8sides 8_whiteLine3.jpg	Medium_e26_stereo_44KHz.wav
3	171	2	2	1	C	2	1	1168	1	poli_8sides 12_whiteLine3.jpg	Medium_e01_cut1_stereo_44KHz.wav
3	172	3	3	2	I	1	0	1381	0	poli_8sides 2_whiteLine3.jpg	Medium_e26_stereo_44KHz.wav
3	173	2	1	0	C	1	1	1103	1	poli_8sides 12_whiteLine3.jpg	Medium_e13_stereo_44KHz.wav
3	174	3	4	2	I	2	0	1384	0	poli_8sides 2_whiteLine3.jpg	MediumLong_e19_stereo_44KHz.wav
3	175	1	1	1	C	2	1	1154	1	poli_8sides 5_whiteLine3.jpg	Medium_e13_stereo_44KHz.wav
3	176	4	4	2	I	2	0	1395	0	poli_8sides 8_whiteLine3.jpg	MediumLong_e19_stereo_44KHz.wav
3	177	2	2	1	C	2	1	1476	1	poli_8sides 12_whiteLine3.jpg	Medium_e01_cut1_stereo_44KHz.wav
3	178	1	2	0	C	2	0	1232	0	poli_8sides 5_whiteLine3.jpg	Medium_e01_cut1_stereo_44KHz.wav
3	179	3	3	2	I	1	0	751	0	poli_8sides 2_whiteLine3.jpg	Medium_e26_stereo_44KHz.wav
3	180	4	4	2	I	1	0	1065	1	poli_8sides 8_whiteLine3.jpg	MediumLong_e19_stereo_44KHz.wav
3	181	3	4	2	I	1	0	1007	1	poli_8sides 2_whiteLine3.jpg	MediumLong_e19_stereo_44KHz.wav
3	182	1	1	1	C	2	1	862	1	poli_8sides 5_whiteLine3.jpg	Medium_e13_stereo_44KHz.wav
3	183	4	3	2	I	1	0	855	1	poli_8sides 8_whiteLine3.jpg	Medium_e26_stereo_44KHz.wav
3	184	2	1	0	C	1	1	838	1	poli_8sides 12_whiteLine3.jpg	Medium_e13_stereo_44KHz.wav
3	185	4	3	2	I	1	0	1407	0	poli_8sides 8_whiteLine3.jpg	Medium_e26_stereo_44KHz.wav
3	186	3	4	2	I	1	0	1216	1	poli_8sides 2_whiteLine3.jpg	MediumLong_e19_stereo_44KHz.wav
3	187	1	1	1	C	2	1	1057	1	poli_8sides 5_whiteLine3.jpg	Medium_e13_stereo_44KHz.wav
3	188	2	2	1	C	2	1	792	1	poli_8sides 12_whiteLine3.jpg	Medium_e01_cut1_stereo_44KHz.wav
3	189	4	4	2	I	1	0	879	0	poli_8sides 8_whiteLine3.jpg	MediumLong_e19_stereo_44KHz.wav
3	190	2	1	0	C	1	1	1092	1	poli_8sides 12_whiteLine3.jpg	Medium_e13_stereo_44KHz.wav
3	191	1	2	0	C	1	1	1075	1	poli_8sides 5_whiteLine3.jpg	Medium_e01_cut1_stereo_44KHz.wav
3	192	3	3	2	I	1	0	1059	0	poli_8sides 2_whiteLine3.jpg	Medium_e26_stereo_44KHz.wav
3	193	4	4	2	I	1	0	881	1	poli_8sides 8_whiteLine3.jpg	MediumLong_e19_stereo_44KHz.wav
3	194	2	2	1	C	2	1	1069	1	poli_8sides 12_whiteLine3.jpg	Medium_e01_cut1_stereo_44KHz.wav
3	195	1	1	1	C	1	0	1182	0	poli_8sides 5_whiteLine3.jpg	Medium_e13_stereo_44KHz.wav
3	196	3	3	2	I	2	0	1079	0	poli_8sides 2_whiteLine3.jpg	Medium_e26_stereo_44KHz.wav
3	197	4	3	2	I	1	0	1069	1	poli_8sides 8_whiteLine3.jpg	Medium_e26_stereo_44KHz.wav
3	198	2	1	0	C	1	1	899	1	poli_8sides 12_whiteLine3.jpg	Medium_e13_stereo_44KHz.wav
3	199	1	2	0	C	1	1	1064	1	poli_8sides 5_whiteLine3.jpg	Medium_e01_cut1_stereo_44KHz.wav
3	200	3	4	2	I	2	0	976	1	poli_8sides 2_whiteLine3.jpg	MediumLong_e19_stereo_44KHz.wav
4	1	4	4	2	I	1	0	1248	1	poli_8sides 15_whiteLine3.jpg	MediumShort_e22_cut1_stereo_44KHz.wav
4	2	3	4	2	I	2	0	1456	1	poli_8sides 3_whiteLine3.jpg	MediumShort_e22_cut1_stereo_44KHz.wav
4	3	2	2	1	C	1	0	873	0	poli_8sides 11_whiteLine3.jpg	MediumShort_b10_cut1_MS_stereo_44KHz.wav
4	4	1	2	0	C	1	1	1877	1	poli_8sides 16_whiteLine3.jpg	MediumShort_b10_cut1_MS_stereo_44KHz.wav
4	5	3	3	2	I	1	0	925	1	poli_8sides 3_whiteLine3.jpg	MediumShort_b16_cut3_MS_stereo_44KHz.wav
4	6	4	3	2	I	2	0	1273	1	poli_8sides 15_whiteLine3.jpg	MediumShort_b16_cut3_MS_stereo_44KHz.wav
4	7	1	1	1	C	2	1	1741	1	poli_8sides 16_whiteLine3.jpg	MediumShort_e16_cut1_stereo_44KHz.wav
4	8	2	1	0	C	1	1	1836	1	poli_8sides 11_whiteLine3.jpg	MediumShort_e16_cut1_stereo_44KHz.wav
4	9	1	2	0	C	1	1	1304	1	poli_8sides 16_whiteLine3.jpg	MediumShort_b10_cut1_MS_stereo_44KHz.wav
4	10	2	2	1	C	2	1	1712	1	poli_8sides 11_whiteLine3.jpg	MediumShort_b10_cut1_MS_stereo_44KHz.wav
4	11	4	4	2	I	1	0	1552	0	poli_8sides 15_whiteLine3.jpg	MediumShort_e22_cut1_stereo_44KHz.wav
4	12	3	4	2	I	2	0	1454	0	poli_8sides 3_whiteLine3.jpg	MediumShort_e22_cut1_stereo_44KHz.wav
4	13	4	3	2	I	1	0	1427	1	poli_8sides 15_whiteLine3.jpg	MediumShort_b16_cut3_MS_stereo_44KHz.wav
4	14	2	1	0	C	1	1	1450	1	poli_8sides 11_whiteLine3.jpg	MediumShort_e16_cut1_stereo_44KHz.wav
4	15	3	3	2	I	1	0	1031	0	poli_8sides 3_whiteLine3.jpg	MediumShort_b16_cut3_MS_stereo_44KHz.wav
4	16	1	1	1	C	1	0	1857	0	poli_8sides 16_whiteLine3.jpg	MediumShort_e16_cut1_stereo_44KHz.wav
4	17	3	4	2	I	1	0	845	0	poli_8sides 3_whiteLine3.jpg	MediumShort_e22_cut1_stereo_44KHz.wav
4	18	1	2	0	C	1	1	1121	1	poli_8sides 16_whiteLine3.jpg	MediumShort_b10_cut1_MS_stereo_44KHz.wav
4	19	4	3	2	I	1	0	872	1	poli_8sides 15_whiteLine3.jpg	MediumShort_b16_cut3_MS_stereo_44KHz.wav
4	20	2	1	0	C	1	1	852	1	poli_8sides 11_whiteLine3.jpg	MediumShort_e16_cut1_stereo_44KHz.wav
4	21	3	3	2	I	0	0	0	0	poli_8sides 3_whiteLine3.jpg	MediumShort_b16_cut3_MS_stereo_44KHz.wav
4	22	1	1	1	C	1	0	1210	0	poli_8sides 16_whiteLine3.jpg	MediumShort_e16_cut1_stereo_44KHz.wav
4	23	2	2	1	C	2	1	1540	1	poli_8sides 11_whiteLine3.jpg	MediumShort_b10_cut1_MS_stereo_44KHz.wav
4	24	4	4	2	I	1	0	1295	1	poli_8sides 15_whiteLine3.jpg	MediumShort_e22_cut1_stereo_44KHz.wav
4	25	1	1	1	C	1	0	1137	0	poli_8sides 16_whiteLine3.jpg	MediumShort_e16_cut1_stereo_44KHz.wav
4	26	4	3	2	I	1	0	860	1	poli_8sides 15_whiteLine3.jpg	MediumShort_b16_cut3_MS_stereo_44KHz.wav
4	27	3	3	2	I	1	0	855	0	poli_8sides 3_whiteLine3.jpg	MediumShort_b16_cut3_MS_stereo_44KHz.wav
4	28	2	1	0	C	2	0	1098	0	poli_8sides 11_whiteLine3.jpg	MediumShort_e16_cut1_stereo_44KHz.wav
4	29	4	4	2	I	1	0	706	1	poli_8sides 15_whiteLine3.jpg	MediumShort_e22_cut1_stereo_44KHz.wav
4	30	1	2	0	C	1	1	722	1	poli_8sides 16_whiteLine3.jpg	MediumShort_b10_cut1_MS_stereo_44KHz.wav
4	31	2	2	1	C	2	1	1019	1	poli_8sides 11_whiteLine3.jpg	MediumShort_b10_cut1_MS_stereo_44KHz.wav
4	32	3	4	2	I	1	0	759	0	poli_8sides 3_whiteLine3.jpg	MediumShort_e22_cut1_stereo_44KHz.wav
4	33	2	1	0	C	1	1	1020	1	poli_8sides 11_whiteLine3.jpg	MediumShort_e16_cut1_stereo_44KHz.wav
4	34	4	3	2	I	1	0	623	0	poli_8sides 15_whiteLine3.jpg	MediumShort_b16_cut3_MS_stereo_44KHz.wav
4	35	3	3	2	I	2	0	1050	1	poli_8sides 3_whiteLine3.jpg	MediumShort_b16_cut3_MS_stereo_44KHz.wav
4	36	1	2	0	C	1	1	690	1	poli_8sides 16_whiteLine3.jpg	MediumShort_b10_cut1_MS_stereo_44KHz.wav
4	37	3	4	2	I	1	0	803	0	poli_8sides 3_whiteLine3.jpg	MediumShort_e22_cut1_stereo_44KHz.wav
4	38	1	1	1	C	1	0	1926	0	poli_8sides 16_whiteLine3.jpg	MediumShort_e16_cut1_stereo_44KHz.wav
4	39	2	2	1	C	2	1	842	1	poli_8sides 11_whiteLine3.jpg	MediumShort_b10_cut1_MS_stereo_44KHz.wav
4	40	4	4	2	I	1	0	787	1	poli_8sides 15_whiteLine3.jpg	MediumShort_e22_cut1_stereo_44KHz.wav
4	41	2	1	0	C	1	1	1194	1	poli_8sides 11_whiteLine3.jpg	MediumShort_e16_cut1_stereo_44KHz.wav
4	42	4	4	2	I	1	0	1216	1	poli_8sides 15_whiteLine3.jpg	MediumShort_e22_cut1_stereo_44KHz.wav
4	43	3	4	2	I	2	0	806	0	poli_8sides 3_whiteLine3.jpg	MediumShort_e22_cut1_stereo_44KHz.wav
4	44	1	1	1	C	2	1	1283	1	poli_8sides 16_whiteLine3.jpg	MediumShort_e16_cut1_stereo_44KHz.wav
4	45	3	3	2	I	2	0	1361	0	poli_8sides 3_whiteLine3.jpg	MediumShort_b16_cut3_MS_stereo_44KHz.wav
4	46	4	3	2	I	1	0	1586	0	poli_8sides 15_whiteLine3.jpg	MediumShort_b16_cut3_MS_stereo_44KHz.wav
4	47	1	2	0	C	1	1	985	1	poli_8sides 16_whiteLine3.jpg	MediumShort_b10_cut1_MS_stereo_44KHz.wav
4	48	2	2	1	C	2	1	938	1	poli_8sides 11_whiteLine3.jpg	MediumShort_b10_cut1_MS_stereo_44KHz.wav
4	49	4	3	2	I	1	0	1702	0	poli_8sides 15_whiteLine3.jpg	MediumShort_b16_cut3_MS_stereo_44KHz.wav
4	50	2	1	0	C	1	1	1417	1	poli_8sides 11_whiteLine3.jpg	MediumShort_e16_cut1_stereo_44KHz.wav
4	51	3	4	2	I	1	0	900	0	poli_8sides 3_whiteLine3.jpg	MediumShort_e22_cut1_stereo_44KHz.wav
4	52	1	2	0	C	1	1	1071	1	poli_8sides 16_whiteLine3.jpg	MediumShort_b10_cut1_MS_stereo_44KHz.wav
4	53	4	4	2	I	1	0	746	1	poli_8sides 15_whiteLine3.jpg	MediumShort_e22_cut1_stereo_44KHz.wav
4	54	3	3	2	I	2	0	996	1	poli_8sides 3_whiteLine3.jpg	MediumShort_b16_cut3_MS_stereo_44KHz.wav
4	55	1	1	1	C	2	1	1793	1	poli_8sides 16_whiteLine3.jpg	MediumShort_e16_cut1_stereo_44KHz.wav
4	56	2	2	1	C	2	1	1213	1	poli_8sides 11_whiteLine3.jpg	MediumShort_b10_cut1_MS_stereo_44KHz.wav
4	57	1	1	1	C	2	1	1270	1	poli_8sides 16_whiteLine3.jpg	MediumShort_e16_cut1_stereo_44KHz.wav
4	58	4	4	2	I	1	0	963	1	poli_8sides 15_whiteLine3.jpg	MediumShort_e22_cut1_stereo_44KHz.wav
4	59	2	2	1	C	2	1	1052	1	poli_8sides 11_whiteLine3.jpg	MediumShort_b10_cut1_MS_stereo_44KHz.wav
4	60	3	3	2	I	2	0	990	1	poli_8sides 3_whiteLine3.jpg	MediumShort_b16_cut3_MS_stereo_44KHz.wav
4	61	1	2	0	C	1	1	1057	1	poli_8sides 16_whiteLine3.jpg	MediumShort_b10_cut1_MS_stereo_44KHz.wav
4	62	3	4	2	I	1	0	878	1	poli_8sides 3_whiteLine3.jpg	MediumShort_e22_cut1_stereo_44KHz.wav
4	63	4	3	2	I	1	0	752	0	poli_8sides 15_whiteLine3.jpg	MediumShort_b16_cut3_MS_stereo_44KHz.wav
4	64	2	1	0	C	2	0	1174	0	poli_8sides 11_whiteLine3.jpg	MediumShort_e16_cut1_stereo_44KHz.wav
4	65	3	3	2	I	1	0	1681	0	poli_8sides 3_whiteLine3.jpg	MediumShort_b16_cut3_MS_stereo_44KHz.wav
4	66	2	1	0	C	2	0	776	0	poli_8sides 11_whiteLine3.jpg	MediumShort_e16_cut1_stereo_44KHz.wav
4	67	4	4	2	I	1	0	1161	0	poli_8sides 15_whiteLine3.jpg	MediumShort_e22_cut1_stereo_44KHz.wav
4	68	1	2	0	C	1	1	997	1	poli_8sides 16_whiteLine3.jpg	MediumShort_b10_cut1_MS_stereo_44KHz.wav
4	69	2	2	1	C	2	1	1181	1	poli_8sides 11_whiteLine3.jpg	MediumShort_b10_cut1_MS_stereo_44KHz.wav
4	70	3	4	2	I	0	0	0	0	poli_8sides 3_whiteLine3.jpg	MediumShort_e22_cut1_stereo_44KHz.wav
4	71	4	3	2	I	1	0	845	1	poli_8sides 15_whiteLine3.jpg	MediumShort_b16_cut3_MS_stereo_44KHz.wav
4	72	1	1	1	C	2	1	918	1	poli_8sides 16_whiteLine3.jpg	MediumShort_e16_cut1_stereo_44KHz.wav
4	73	2	2	1	C	2	1	902	1	poli_8sides 11_whiteLine3.jpg	MediumShort_b10_cut1_MS_stereo_44KHz.wav
4	74	4	3	2	I	1	0	910	0	poli_8sides 15_whiteLine3.jpg	MediumShort_b16_cut3_MS_stereo_44KHz.wav
4	75	1	1	1	C	2	1	1322	1	poli_8sides 16_whiteLine3.jpg	MediumShort_e16_cut1_stereo_44KHz.wav
4	76	3	4	2	I	1	0	1086	0	poli_8sides 3_whiteLine3.jpg	MediumShort_e22_cut1_stereo_44KHz.wav
4	77	4	4	2	I	1	0	1107	0	poli_8sides 15_whiteLine3.jpg	MediumShort_e22_cut1_stereo_44KHz.wav
4	78	2	1	0	C	1	1	1560	1	poli_8sides 11_whiteLine3.jpg	MediumShort_e16_cut1_stereo_44KHz.wav
4	79	3	3	2	I	1	0	1022	0	poli_8sides 3_whiteLine3.jpg	MediumShort_b16_cut3_MS_stereo_44KHz.wav
4	80	1	2	0	C	1	1	773	1	poli_8sides 16_whiteLine3.jpg	MediumShort_b10_cut1_MS_stereo_44KHz.wav
4	81	4	3	2	I	1	0	787	0	poli_8sides 15_whiteLine3.jpg	MediumShort_b16_cut3_MS_stereo_44KHz.wav
4	82	2	2	1	C	2	1	894	1	poli_8sides 11_whiteLine3.jpg	MediumShort_b10_cut1_MS_stereo_44KHz.wav
4	83	1	2	0	C	1	1	923	1	poli_8sides 16_whiteLine3.jpg	MediumShort_b10_cut1_MS_stereo_44KHz.wav
4	84	3	4	2	I	2	0	1053	1	poli_8sides 3_whiteLine3.jpg	MediumShort_e22_cut1_stereo_44KHz.wav
4	85	2	1	0	C	1	1	1567	1	poli_8sides 11_whiteLine3.jpg	MediumShort_e16_cut1_stereo_44KHz.wav
4	86	4	4	2	I	1	0	1307	0	poli_8sides 15_whiteLine3.jpg	MediumShort_e22_cut1_stereo_44KHz.wav
4	87	1	1	1	C	1	0	1011	0	poli_8sides 16_whiteLine3.jpg	MediumShort_e16_cut1_stereo_44KHz.wav
4	88	3	3	2	I	1	0	1295	1	poli_8sides 3_whiteLine3.jpg	MediumShort_b16_cut3_MS_stereo_44KHz.wav
4	89	1	1	1	C	2	1	1292	1	poli_8sides 16_whiteLine3.jpg	MediumShort_e16_cut1_stereo_44KHz.wav
4	90	3	4	2	I	2	0	1802	1	poli_8sides 3_whiteLine3.jpg	MediumShort_e22_cut1_stereo_44KHz.wav
4	91	4	4	2	I	1	0	1784	0	poli_8sides 15_whiteLine3.jpg	MediumShort_e22_cut1_stereo_44KHz.wav
4	92	2	2	1	C	2	1	1362	1	poli_8sides 11_whiteLine3.jpg	MediumShort_b10_cut1_MS_stereo_44KHz.wav
4	93	3	3	2	I	1	0	1750	0	poli_8sides 3_whiteLine3.jpg	MediumShort_b16_cut3_MS_stereo_44KHz.wav
4	94	2	1	0	C	1	1	1520	1	poli_8sides 11_whiteLine3.jpg	MediumShort_e16_cut1_stereo_44KHz.wav
4	95	4	3	2	I	1	0	767	0	poli_8sides 15_whiteLine3.jpg	MediumShort_b16_cut3_MS_stereo_44KHz.wav
4	96	1	2	0	C	1	1	1402	1	poli_8sides 16_whiteLine3.jpg	MediumShort_b10_cut1_MS_stereo_44KHz.wav
4	97	3	3	2	I	1	0	1719	0	poli_8sides 3_whiteLine3.jpg	MediumShort_b16_cut3_MS_stereo_44KHz.wav
4	98	2	1	0	C	1	1	849	1	poli_8sides 11_whiteLine3.jpg	MediumShort_e16_cut1_stereo_44KHz.wav
4	99	4	3	2	I	1	0	649	0	poli_8sides 15_whiteLine3.jpg	MediumShort_b16_cut3_MS_stereo_44KHz.wav
4	100	1	1	1	C	2	1	993	1	poli_8sides 16_whiteLine3.jpg	MediumShort_e16_cut1_stereo_44KHz.wav
4	101	3	4	2	I	1	0	1363	0	poli_8sides 3_whiteLine3.jpg	MediumShort_e22_cut1_stereo_44KHz.wav
4	102	2	2	1	C	2	1	1446	1	poli_8sides 11_whiteLine3.jpg	MediumShort_b10_cut1_MS_stereo_44KHz.wav
4	103	4	4	2	I	1	0	1161	0	poli_8sides 15_whiteLine3.jpg	MediumShort_e22_cut1_stereo_44KHz.wav
4	104	1	2	0	C	1	1	1563	1	poli_8sides 16_whiteLine3.jpg	MediumShort_b10_cut1_MS_stereo_44KHz.wav
4	105	3	4	2	I	2	0	775	1	poli_8sides 3_whiteLine3.jpg	MediumShort_e22_cut1_stereo_44KHz.wav
4	106	4	4	2	I	1	0	980	0	poli_8sides 15_whiteLine3.jpg	MediumShort_e22_cut1_stereo_44KHz.wav
4	107	1	1	1	C	2	1	1141	1	poli_8sides 16_whiteLine3.jpg	MediumShort_e16_cut1_stereo_44KHz.wav
4	108	2	2	1	C	2	1	1375	1	poli_8sides 11_whiteLine3.jpg	MediumShort_b10_cut1_MS_stereo_44KHz.wav
4	109	4	3	2	I	1	0	1167	1	poli_8sides 15_whiteLine3.jpg	MediumShort_b16_cut3_MS_stereo_44KHz.wav
4	110	2	1	0	C	1	1	1369	1	poli_8sides 11_whiteLine3.jpg	MediumShort_e16_cut1_stereo_44KHz.wav
4	111	1	2	0	C	1	1	798	1	poli_8sides 16_whiteLine3.jpg	MediumShort_b10_cut1_MS_stereo_44KHz.wav
4	112	3	3	2	I	2	0	827	1	poli_8sides 3_whiteLine3.jpg	MediumShort_b16_cut3_MS_stereo_44KHz.wav
4	113	1	2	0	C	2	0	1605	0	poli_8sides 16_whiteLine3.jpg	MediumShort_b10_cut1_MS_stereo_44KHz.wav
4	114	4	4	2	I	1	0	830	0	poli_8sides 15_whiteLine3.jpg	MediumShort_e22_cut1_stereo_44KHz.wav
4	115	2	1	0	C	1	1	814	1	poli_8sides 11_whiteLine3.jpg	MediumShort_e16_cut1_stereo_44KHz.wav
4	116	3	4	2	I	1	0	1348	1	poli_8sides 3_whiteLine3.jpg	MediumShort_e22_cut1_stereo_44KHz.wav
4	117	4	3	2	I	2	0	1125	1	poli_8sides 15_whiteLine3.jpg	MediumShort_b16_cut3_MS_stereo_44KHz.wav
4	118	3	3	2	I	1	0	1361	0	poli_8sides 3_whiteLine3.jpg	MediumShort_b16_cut3_MS_stereo_44KHz.wav
4	119	2	2	1	C	2	1	1269	1	poli_8sides 11_whiteLine3.jpg	MediumShort_b10_cut1_MS_stereo_44KHz.wav
4	120	1	1	1	C	2	1	950	1	poli_8sides 16_whiteLine3.jpg	MediumShort_e16_cut1_stereo_44KHz.wav
4	121	4	3	2	I	0	0	0	0	poli_8sides 15_whiteLine3.jpg	MediumShort_b16_cut3_MS_stereo_44KHz.wav
4	122	1	1	1	C	2	1	786	1	poli_8sides 16_whiteLine3.jpg	MediumShort_e16_cut1_stereo_44KHz.wav
4	123	2	1	0	C	2	0	741	0	poli_8sides 11_whiteLine3.jpg	MediumShort_e16_cut1_stereo_44KHz.wav
4	124	3	3	2	I	2	0	1192	1	poli_8sides 3_whiteLine3.jpg	MediumShort_b16_cut3_MS_stereo_44KHz.wav
4	125	4	4	2	I	0	0	0	0	poli_8sides 15_whiteLine3.jpg	MediumShort_e22_cut1_stereo_44KHz.wav
4	126	1	2	0	C	1	1	1599	1	poli_8sides 16_whiteLine3.jpg	MediumShort_b10_cut1_MS_stereo_44KHz.wav
4	127	3	4	2	I	2	0	744	0	poli_8sides 3_whiteLine3.jpg	MediumShort_e22_cut1_stereo_44KHz.wav
4	128	2	2	1	C	2	1	998	1	poli_8sides 11_whiteLine3.jpg	MediumShort_b10_cut1_MS_stereo_44KHz.wav
4	129	3	4	2	I	1	0	546	0	poli_8sides 3_whiteLine3.jpg	MediumShort_e22_cut1_stereo_44KHz.wav
4	130	2	1	0	C	1	1	975	1	poli_8sides 11_whiteLine3.jpg	MediumShort_e16_cut1_stereo_44KHz.wav
4	131	1	1	1	C	2	1	1195	1	poli_8sides 16_whiteLine3.jpg	MediumShort_e16_cut1_stereo_44KHz.wav
4	132	4	3	2	I	1	0	713	0	poli_8sides 15_whiteLine3.jpg	MediumShort_b16_cut3_MS_stereo_44KHz.wav
4	133	1	2	0	C	1	1	1035	1	poli_8sides 16_whiteLine3.jpg	MediumShort_b10_cut1_MS_stereo_44KHz.wav
4	134	2	2	1	C	2	1	1076	1	poli_8sides 11_whiteLine3.jpg	MediumShort_b10_cut1_MS_stereo_44KHz.wav
4	135	4	4	2	I	2	0	1085	0	poli_8sides 15_whiteLine3.jpg	MediumShort_e22_cut1_stereo_44KHz.wav
4	136	3	3	2	I	2	0	1022	0	poli_8sides 3_whiteLine3.jpg	MediumShort_b16_cut3_MS_stereo_44KHz.wav
4	137	2	1	0	C	1	1	1216	1	poli_8sides 11_whiteLine3.jpg	MediumShort_e16_cut1_stereo_44KHz.wav
4	138	1	2	0	C	1	1	1104	1	poli_8sides 16_whiteLine3.jpg	MediumShort_b10_cut1_MS_stereo_44KHz.wav
4	139	4	3	2	I	1	0	1113	0	poli_8sides 15_whiteLine3.jpg	MediumShort_b16_cut3_MS_stereo_44KHz.wav
4	140	3	4	2	I	1	0	223	1	poli_8sides 3_whiteLine3.jpg	MediumShort_e22_cut1_stereo_44KHz.wav
4	141	4	4	2	I	2	0	1043	1	poli_8sides 15_whiteLine3.jpg	MediumShort_e22_cut1_stereo_44KHz.wav
4	142	2	2	1	C	2	1	1073	1	poli_8sides 11_whiteLine3.jpg	MediumShort_b10_cut1_MS_stereo_44KHz.wav
4	143	1	1	1	C	1	0	964	0	poli_8sides 16_whiteLine3.jpg	MediumShort_e16_cut1_stereo_44KHz.wav
4	144	3	3	2	I	1	0	1345	0	poli_8sides 3_whiteLine3.jpg	MediumShort_b16_cut3_MS_stereo_44KHz.wav
4	145	1	2	0	C	1	1	726	1	poli_8sides 16_whiteLine3.jpg	MediumShort_b10_cut1_MS_stereo_44KHz.wav
4	146	3	4	2	I	1	0	1124	1	poli_8sides 3_whiteLine3.jpg	MediumShort_e22_cut1_stereo_44KHz.wav
4	147	2	1	0	C	1	1	1453	1	poli_8sides 11_whiteLine3.jpg	MediumShort_e16_cut1_stereo_44KHz.wav
4	148	4	4	2	I	1	0	1268	0	poli_8sides 15_whiteLine3.jpg	MediumShort_e22_cut1_stereo_44KHz.wav
4	149	2	2	1	C	1	0	820	0	poli_8sides 11_whiteLine3.jpg	MediumShort_b10_cut1_MS_stereo_44KHz.wav
4	150	1	1	1	C	2	1	1259	1	poli_8sides 16_whiteLine3.jpg	MediumShort_e16_cut1_stereo_44KHz.wav
4	151	4	3	2	I	2	0	1468	0	poli_8sides 15_whiteLine3.jpg	MediumShort_b16_cut3_MS_stereo_44KHz.wav
4	152	3	3	2	I	2	0	1777	1	poli_8sides 3_whiteLine3.jpg	MediumShort_b16_cut3_MS_stereo_44KHz.wav
4	153	1	2	0	C	1	1	1309	1	poli_8sides 16_whiteLine3.jpg	MediumShort_b10_cut1_MS_stereo_44KHz.wav
4	154	2	2	1	C	2	1	1582	1	poli_8sides 11_whiteLine3.jpg	MediumShort_b10_cut1_MS_stereo_44KHz.wav
4	155	4	3	2	I	1	0	920	1	poli_8sides 15_whiteLine3.jpg	MediumShort_b16_cut3_MS_stereo_44KHz.wav
4	156	3	4	2	I	1	0	985	0	poli_8sides 3_whiteLine3.jpg	MediumShort_e22_cut1_stereo_44KHz.wav
4	157	2	1	0	C	2	0	912	0	poli_8sides 11_whiteLine3.jpg	MediumShort_e16_cut1_stereo_44KHz.wav
4	158	4	4	2	I	1	0	841	1	poli_8sides 15_whiteLine3.jpg	MediumShort_e22_cut1_stereo_44KHz.wav
4	159	1	1	1	C	0	0	0	0	poli_8sides 16_whiteLine3.jpg	MediumShort_e16_cut1_stereo_44KHz.wav
4	160	3	3	2	I	2	0	996	1	poli_8sides 3_whiteLine3.jpg	MediumShort_b16_cut3_MS_stereo_44KHz.wav
4	161	2	1	0	C	1	1	1152	1	poli_8sides 11_whiteLine3.jpg	MediumShort_e16_cut1_stereo_44KHz.wav
4	162	4	3	2	I	1	0	930	1	poli_8sides 15_whiteLine3.jpg	MediumShort_b16_cut3_MS_stereo_44KHz.wav
4	163	1	2	0	C	2	0	805	0	poli_8sides 16_whiteLine3.jpg	MediumShort_b10_cut1_MS_stereo_44KHz.wav
4	164	3	4	2	I	1	0	930	0	poli_8sides 3_whiteLine3.jpg	MediumShort_e22_cut1_stereo_44KHz.wav
4	165	1	1	1	C	2	1	1021	1	poli_8sides 16_whiteLine3.jpg	MediumShort_e16_cut1_stereo_44KHz.wav
4	166	3	3	2	I	2	0	907	0	poli_8sides 3_whiteLine3.jpg	MediumShort_b16_cut3_MS_stereo_44KHz.wav
4	167	4	4	2	I	1	0	1413	0	poli_8sides 15_whiteLine3.jpg	MediumShort_e22_cut1_stereo_44KHz.wav
4	168	2	2	1	C	2	1	1187	1	poli_8sides 11_whiteLine3.jpg	MediumShort_b10_cut1_MS_stereo_44KHz.wav
4	169	1	1	1	C	1	0	704	0	poli_8sides 16_whiteLine3.jpg	MediumShort_e16_cut1_stereo_44KHz.wav
4	170	2	1	0	C	1	1	1584	1	poli_8sides 11_whiteLine3.jpg	MediumShort_e16_cut1_stereo_44KHz.wav
4	171	3	3	2	I	1	0	976	1	poli_8sides 3_whiteLine3.jpg	MediumShort_b16_cut3_MS_stereo_44KHz.wav
4	172	4	4	2	I	1	0	1056	0	poli_8sides 15_whiteLine3.jpg	MediumShort_e22_cut1_stereo_44KHz.wav
4	173	1	2	0	C	1	1	1534	1	poli_8sides 16_whiteLine3.jpg	MediumShort_b10_cut1_MS_stereo_44KHz.wav
4	174	4	3	2	I	2	0	1596	1	poli_8sides 15_whiteLine3.jpg	MediumShort_b16_cut3_MS_stereo_44KHz.wav
4	175	3	4	2	I	1	0	1018	1	poli_8sides 3_whiteLine3.jpg	MediumShort_e22_cut1_stereo_44KHz.wav
4	176	2	2	1	C	1	0	1454	0	poli_8sides 11_whiteLine3.jpg	MediumShort_b10_cut1_MS_stereo_44KHz.wav
4	177	1	2	0	C	1	1	810	1	poli_8sides 16_whiteLine3.jpg	MediumShort_b10_cut1_MS_stereo_44KHz.wav
4	178	2	2	1	C	1	0	1538	0	poli_8sides 11_whiteLine3.jpg	MediumShort_b10_cut1_MS_stereo_44KHz.wav
4	179	3	4	2	I	1	0	1019	1	poli_8sides 3_whiteLine3.jpg	MediumShort_e22_cut1_stereo_44KHz.wav
4	180	4	4	2	I	2	0	984	1	poli_8sides 15_whiteLine3.jpg	MediumShort_e22_cut1_stereo_44KHz.wav
4	181	2	1	0	C	1	1	1381	1	poli_8sides 11_whiteLine3.jpg	MediumShort_e16_cut1_stereo_44KHz.wav
4	182	1	1	1	C	2	1	766	1	poli_8sides 16_whiteLine3.jpg	MediumShort_e16_cut1_stereo_44KHz.wav
4	183	4	3	2	I	1	0	962	1	poli_8sides 15_whiteLine3.jpg	MediumShort_b16_cut3_MS_stereo_44KHz.wav
4	184	3	3	2	I	2	0	1011	1	poli_8sides 3_whiteLine3.jpg	MediumShort_b16_cut3_MS_stereo_44KHz.wav
4	185	4	3	2	I	2	0	924	1	poli_8sides 15_whiteLine3.jpg	MediumShort_b16_cut3_MS_stereo_44KHz.wav
4	186	1	1	1	C	2	1	1250	1	poli_8sides 16_whiteLine3.jpg	MediumShort_e16_cut1_stereo_44KHz.wav
4	187	2	1	0	C	1	1	1155	1	poli_8sides 11_whiteLine3.jpg	MediumShort_e16_cut1_stereo_44KHz.wav
4	188	3	3	2	I	2	0	1530	1	poli_8sides 3_whiteLine3.jpg	MediumShort_b16_cut3_MS_stereo_44KHz.wav
4	189	1	2	0	C	1	1	800	1	poli_8sides 16_whiteLine3.jpg	MediumShort_b10_cut1_MS_stereo_44KHz.wav
4	190	2	2	1	C	2	1	1112	1	poli_8sides 11_whiteLine3.jpg	MediumShort_b10_cut1_MS_stereo_44KHz.wav
4	191	4	4	2	I	1	0	1350	1	poli_8sides 15_whiteLine3.jpg	MediumShort_e22_cut1_stereo_44KHz.wav
4	192	3	4	2	I	2	0	1324	0	poli_8sides 3_whiteLine3.jpg	MediumShort_e22_cut1_stereo_44KHz.wav
4	193	1	1	1	C	2	1	903	1	poli_8sides 16_whiteLine3.jpg	MediumShort_e16_cut1_stereo_44KHz.wav
4	194	2	2	1	C	1	0	826	0	poli_8sides 11_whiteLine3.jpg	MediumShort_b10_cut1_MS_stereo_44KHz.wav
4	195	4	4	2	I	2	0	1749	1	poli_8sides 15_whiteLine3.jpg	MediumShort_e22_cut1_stereo_44KHz.wav
4	196	3	4	2	I	2	0	858	1	poli_8sides 3_whiteLine3.jpg	MediumShort_e22_cut1_stereo_44KHz.wav
4	197	1	2	0	C	1	1	714	1	poli_8sides 16_whiteLine3.jpg	MediumShort_b10_cut1_MS_stereo_44KHz.wav
4	198	4	3	2	I	0	0	0	0	poli_8sides 15_whiteLine3.jpg	MediumShort_b16_cut3_MS_stereo_44KHz.wav
4	199	3	3	2	I	2	0	755	1	poli_8sides 3_whiteLine3.jpg	MediumShort_b16_cut3_MS_stereo_44KHz.wav
4	200	2	1	0	C	1	1	1303	1	poli_8sides 11_whiteLine3.jpg	MediumShort_e16_cut1_stereo_44KHz.wav
