block	trial	Vstim	Astim	match	C/I	resp	result	RT	fb	V-file	A-file
LR

0	1	1	2	0	C	0	0	0	0	Ⴉ	cut_eeuw_stereo_44KHz.wav
0	2	1	1	1	C	2	1	820	1	Ⴉ	cut_oo_stereo_44KHz.wav
0	3	2	4	0	C	1	1	731	1	Ⴋ	cut_g_stereo_44KHz.wav
0	4	2	3	1	C	1	0	1253	0	Ⴋ	cut_ee_stereo_44KHz.wav
0	5	1	2	0	C	0	0	0	0	Ⴉ	cut_eeuw_stereo_44KHz.wav
0	6	2	3	1	C	1	0	575	0	Ⴋ	cut_ee_stereo_44KHz.wav
0	7	2	4	0	C	2	0	817	0	Ⴋ	cut_g_stereo_44KHz.wav
0	8	1	1	1	C	2	1	783	1	Ⴉ	cut_oo_stereo_44KHz.wav
0	9	2	4	0	C	1	1	503	1	Ⴋ	cut_g_stereo_44KHz.wav
0	10	2	3	1	C	2	1	1111	1	Ⴋ	cut_ee_stereo_44KHz.wav
0	11	1	1	1	C	2	1	858	1	Ⴉ	cut_oo_stereo_44KHz.wav
0	12	1	2	0	C	1	1	662	1	Ⴉ	cut_eeuw_stereo_44KHz.wav
0	13	2	3	1	C	1	0	912	0	Ⴋ	cut_ee_stereo_44KHz.wav
0	14	1	2	0	C	1	1	1139	1	Ⴉ	cut_eeuw_stereo_44KHz.wav
0	15	1	1	1	C	2	1	1155	1	Ⴉ	cut_oo_stereo_44KHz.wav
0	16	2	4	0	C	1	1	1144	1	Ⴋ	cut_g_stereo_44KHz.wav
0	17	1	1	1	C	2	1	883	1	Ⴉ	cut_oo_stereo_44KHz.wav
0	18	2	3	1	C	2	1	836	1	Ⴋ	cut_ee_stereo_44KHz.wav
0	19	1	2	0	C	1	1	1025	1	Ⴉ	cut_eeuw_stereo_44KHz.wav
0	20	2	4	0	C	1	1	918	1	Ⴋ	cut_g_stereo_44KHz.wav
0	21	2	4	0	C	1	1	822	1	Ⴋ	cut_g_stereo_44KHz.wav
0	22	1	2	0	C	1	1	783	1	Ⴉ	cut_eeuw_stereo_44KHz.wav
0	23	2	3	1	C	2	1	919	1	Ⴋ	cut_ee_stereo_44KHz.wav
0	24	1	1	1	C	2	1	916	1	Ⴉ	cut_oo_stereo_44KHz.wav
0	25	2	3	1	C	2	1	1240	1	Ⴋ	cut_ee_stereo_44KHz.wav
0	26	1	2	0	C	1	1	1407	1	Ⴉ	cut_eeuw_stereo_44KHz.wav
0	27	2	4	0	C	1	1	477	1	Ⴋ	cut_g_stereo_44KHz.wav
0	28	1	1	1	C	2	1	1092	1	Ⴉ	cut_oo_stereo_44KHz.wav
0	29	2	3	1	C	1	0	830	0	Ⴋ	cut_ee_stereo_44KHz.wav
0	30	1	2	0	C	1	1	1696	1	Ⴉ	cut_eeuw_stereo_44KHz.wav
avg_resp = 953
1	1	1	1	1	C	1	0	1143	0	Ⴂ	cut_ei_stereo_44KHz.wav
1	2	3	4	2	I	1	0	855	1	Ⴜ	cut_oei_stereo_44KHz.wav
1	3	4	3	2	I	1	0	902	0	Ⴇ	cut_s_stereo_44KHz.wav
1	4	2	2	1	C	2	1	925	1	Ⴃ	cut_ui_stereo_44KHz.wav
1	5	3	3	2	I	2	0	1182	1	Ⴜ	cut_s_stereo_44KHz.wav
1	6	1	2	0	C	2	0	1014	0	Ⴂ	cut_ui_stereo_44KHz.wav
1	7	4	4	2	I	2	0	1211	0	Ⴇ	cut_oei_stereo_44KHz.wav
1	8	2	1	0	C	2	0	1459	0	Ⴃ	cut_ei_stereo_44KHz.wav
1	9	3	4	2	I	1	0	850	0	Ⴜ	cut_oei_stereo_44KHz.wav
1	10	1	2	0	C	1	1	977	1	Ⴂ	cut_ui_stereo_44KHz.wav
1	11	4	3	2	I	1	0	920	1	Ⴇ	cut_s_stereo_44KHz.wav
1	12	2	1	0	C	1	1	1640	1	Ⴃ	cut_ei_stereo_44KHz.wav
1	13	3	3	2	I	2	0	1178	1	Ⴜ	cut_s_stereo_44KHz.wav
1	14	1	1	1	C	1	0	1081	0	Ⴂ	cut_ei_stereo_44KHz.wav
1	15	4	4	2	I	1	0	1322	0	Ⴇ	cut_oei_stereo_44KHz.wav
1	16	2	2	1	C	1	0	655	0	Ⴃ	cut_ui_stereo_44KHz.wav
1	17	1	1	1	C	2	1	831	1	Ⴂ	cut_ei_stereo_44KHz.wav
1	18	3	4	2	I	1	0	901	0	Ⴜ	cut_oei_stereo_44KHz.wav
1	19	4	3	2	I	1	0	1130	0	Ⴇ	cut_s_stereo_44KHz.wav
1	20	2	1	0	C	2	0	661	0	Ⴃ	cut_ei_stereo_44KHz.wav
1	21	4	4	2	I	2	0	1055	0	Ⴇ	cut_oei_stereo_44KHz.wav
1	22	2	2	1	C	2	1	1142	1	Ⴃ	cut_ui_stereo_44KHz.wav
1	23	1	2	0	C	0	0	0	0	Ⴂ	cut_ui_stereo_44KHz.wav
1	24	3	3	2	I	1	0	885	0	Ⴜ	cut_s_stereo_44KHz.wav
1	25	2	2	1	C	2	1	1102	1	Ⴃ	cut_ui_stereo_44KHz.wav
1	26	1	2	0	C	1	1	679	1	Ⴂ	cut_ui_stereo_44KHz.wav
1	27	4	4	2	I	1	0	996	1	Ⴇ	cut_oei_stereo_44KHz.wav
1	28	3	4	2	I	2	0	1198	0	Ⴜ	cut_oei_stereo_44KHz.wav
1	29	4	3	2	I	0	0	0	0	Ⴇ	cut_s_stereo_44KHz.wav
1	30	3	3	2	I	2	0	1811	0	Ⴜ	cut_s_stereo_44KHz.wav
1	31	2	1	0	C	1	1	1129	1	Ⴃ	cut_ei_stereo_44KHz.wav
1	32	1	1	1	C	1	0	1417	0	Ⴂ	cut_ei_stereo_44KHz.wav
1	33	3	3	2	I	2	0	794	1	Ⴜ	cut_s_stereo_44KHz.wav
1	34	4	4	2	I	1	0	854	0	Ⴇ	cut_oei_stereo_44KHz.wav
1	35	1	1	1	C	2	1	761	1	Ⴂ	cut_ei_stereo_44KHz.wav
1	36	2	1	0	C	1	1	1495	1	Ⴃ	cut_ei_stereo_44KHz.wav
1	37	3	4	2	I	2	0	1222	1	Ⴜ	cut_oei_stereo_44KHz.wav
1	38	1	2	0	C	1	1	1249	1	Ⴂ	cut_ui_stereo_44KHz.wav
1	39	2	2	1	C	2	1	1031	1	Ⴃ	cut_ui_stereo_44KHz.wav
1	40	4	3	2	I	2	0	933	1	Ⴇ	cut_s_stereo_44KHz.wav
1	41	2	2	1	C	2	1	1323	1	Ⴃ	cut_ui_stereo_44KHz.wav
1	42	1	2	0	C	1	1	1003	1	Ⴂ	cut_ui_stereo_44KHz.wav
1	43	4	3	2	I	2	0	988	1	Ⴇ	cut_s_stereo_44KHz.wav
1	44	3	4	2	I	2	0	686	0	Ⴜ	cut_oei_stereo_44KHz.wav
1	45	2	1	0	C	1	1	906	1	Ⴃ	cut_ei_stereo_44KHz.wav
1	46	3	3	2	I	2	0	1051	1	Ⴜ	cut_s_stereo_44KHz.wav
1	47	4	4	2	I	2	0	947	1	Ⴇ	cut_oei_stereo_44KHz.wav
1	48	1	1	1	C	2	1	1224	1	Ⴂ	cut_ei_stereo_44KHz.wav
1	49	4	3	2	I	2	0	1397	0	Ⴇ	cut_s_stereo_44KHz.wav
1	50	2	1	0	C	1	1	1050	1	Ⴃ	cut_ei_stereo_44KHz.wav
1	51	1	2	0	C	1	1	1306	1	Ⴂ	cut_ui_stereo_44KHz.wav
1	52	3	4	2	I	1	0	1285	0	Ⴜ	cut_oei_stereo_44KHz.wav
1	53	1	1	1	C	2	1	1336	1	Ⴂ	cut_ei_stereo_44KHz.wav
1	54	3	3	2	I	1	0	1632	0	Ⴜ	cut_s_stereo_44KHz.wav
1	55	2	2	1	C	2	1	942	1	Ⴃ	cut_ui_stereo_44KHz.wav
1	56	4	4	2	I	2	0	1389	1	Ⴇ	cut_oei_stereo_44KHz.wav
1	57	2	2	1	C	2	1	1361	1	Ⴃ	cut_ui_stereo_44KHz.wav
1	58	3	3	2	I	0	0	0	0	Ⴜ	cut_s_stereo_44KHz.wav
1	59	4	4	2	I	1	0	1196	1	Ⴇ	cut_oei_stereo_44KHz.wav
1	60	1	2	0	C	2	0	1506	0	Ⴂ	cut_ui_stereo_44KHz.wav
1	61	4	3	2	I	1	0	875	0	Ⴇ	cut_s_stereo_44KHz.wav
1	62	2	1	0	C	1	1	1360	1	Ⴃ	cut_ei_stereo_44KHz.wav
1	63	1	1	1	C	1	0	1222	0	Ⴂ	cut_ei_stereo_44KHz.wav
1	64	3	4	2	I	1	0	1393	1	Ⴜ	cut_oei_stereo_44KHz.wav
1	65	2	2	1	C	2	1	1397	1	Ⴃ	cut_ui_stereo_44KHz.wav
1	66	1	1	1	C	2	1	976	1	Ⴂ	cut_ei_stereo_44KHz.wav
1	67	4	3	2	I	1	0	1187	1	Ⴇ	cut_s_stereo_44KHz.wav
1	68	3	3	2	I	2	0	1561	1	Ⴜ	cut_s_stereo_44KHz.wav
1	69	2	1	0	C	1	1	1074	1	Ⴃ	cut_ei_stereo_44KHz.wav
1	70	3	4	2	I	2	0	1455	0	Ⴜ	cut_oei_stereo_44KHz.wav
1	71	4	4	2	I	2	0	1188	1	Ⴇ	cut_oei_stereo_44KHz.wav
1	72	1	2	0	C	2	0	1330	0	Ⴂ	cut_ui_stereo_44KHz.wav
1	73	2	1	0	C	1	1	815	1	Ⴃ	cut_ei_stereo_44KHz.wav
1	74	4	3	2	I	1	0	1375	1	Ⴇ	cut_s_stereo_44KHz.wav
1	75	3	4	2	I	1	0	915	1	Ⴜ	cut_oei_stereo_44KHz.wav
1	76	1	2	0	C	1	1	1186	1	Ⴂ	cut_ui_stereo_44KHz.wav
1	77	4	4	2	I	2	0	1460	1	Ⴇ	cut_oei_stereo_44KHz.wav
1	78	1	1	1	C	2	1	1424	1	Ⴂ	cut_ei_stereo_44KHz.wav
1	79	3	3	2	I	2	0	1320	1	Ⴜ	cut_s_stereo_44KHz.wav
1	80	2	2	1	C	2	1	1838	1	Ⴃ	cut_ui_stereo_44KHz.wav
1	81	4	3	2	I	1	0	1072	1	Ⴇ	cut_s_stereo_44KHz.wav
1	82	2	1	0	C	1	1	1550	1	Ⴃ	cut_ei_stereo_44KHz.wav
1	83	1	2	0	C	1	1	935	1	Ⴂ	cut_ui_stereo_44KHz.wav
1	84	3	4	2	I	1	0	994	0	Ⴜ	cut_oei_stereo_44KHz.wav
1	85	4	4	2	I	2	0	967	0	Ⴇ	cut_oei_stereo_44KHz.wav
1	86	3	3	2	I	2	0	982	1	Ⴜ	cut_s_stereo_44KHz.wav
1	87	2	2	1	C	2	1	1016	1	Ⴃ	cut_ui_stereo_44KHz.wav
1	88	1	1	1	C	2	1	1439	1	Ⴂ	cut_ei_stereo_44KHz.wav
1	89	2	2	1	C	2	1	1370	1	Ⴃ	cut_ui_stereo_44KHz.wav
1	90	1	2	0	C	1	1	1550	1	Ⴂ	cut_ui_stereo_44KHz.wav
1	91	4	3	2	I	1	0	1158	0	Ⴇ	cut_s_stereo_44KHz.wav
1	92	3	4	2	I	2	0	1593	0	Ⴜ	cut_oei_stereo_44KHz.wav
1	93	2	1	0	C	1	1	1297	1	Ⴃ	cut_ei_stereo_44KHz.wav
1	94	4	4	2	I	2	0	1539	0	Ⴇ	cut_oei_stereo_44KHz.wav
1	95	3	3	2	I	2	0	1495	1	Ⴜ	cut_s_stereo_44KHz.wav
1	96	1	1	1	C	1	0	1174	0	Ⴂ	cut_ei_stereo_44KHz.wav
1	97	4	4	2	I	2	0	1227	0	Ⴇ	cut_oei_stereo_44KHz.wav
1	98	2	2	1	C	2	1	1657	1	Ⴃ	cut_ui_stereo_44KHz.wav
1	99	1	2	0	C	1	1	1198	1	Ⴂ	cut_ui_stereo_44KHz.wav
1	100	3	4	2	I	2	0	1359	1	Ⴜ	cut_oei_stereo_44KHz.wav
1	101	2	1	0	C	1	1	1596	1	Ⴃ	cut_ei_stereo_44KHz.wav
1	102	1	1	1	C	2	1	1757	1	Ⴂ	cut_ei_stereo_44KHz.wav
1	103	3	3	2	I	2	0	1614	1	Ⴜ	cut_s_stereo_44KHz.wav
1	104	4	3	2	I	1	0	1269	0	Ⴇ	cut_s_stereo_44KHz.wav
1	105	1	1	1	C	2	1	1668	1	Ⴂ	cut_ei_stereo_44KHz.wav
1	106	3	3	2	I	2	0	1905	1	Ⴜ	cut_s_stereo_44KHz.wav
1	107	2	2	1	C	2	1	1260	1	Ⴃ	cut_ui_stereo_44KHz.wav
1	108	4	3	2	I	1	0	1952	0	Ⴇ	cut_s_stereo_44KHz.wav
1	109	3	4	2	I	1	0	1669	1	Ⴜ	cut_oei_stereo_44KHz.wav
1	110	2	1	0	C	1	1	1809	1	Ⴃ	cut_ei_stereo_44KHz.wav
1	111	1	2	0	C	1	1	1746	1	Ⴂ	cut_ui_stereo_44KHz.wav
1	112	4	4	2	I	2	0	1463	1	Ⴇ	cut_oei_stereo_44KHz.wav
1	113	1	1	1	C	2	1	1563	1	Ⴂ	cut_ei_stereo_44KHz.wav
1	114	4	4	2	I	2	0	1481	0	Ⴇ	cut_oei_stereo_44KHz.wav
1	115	2	1	0	C	1	1	1961	1	Ⴃ	cut_ei_stereo_44KHz.wav
1	116	3	3	2	I	2	0	1571	0	Ⴜ	cut_s_stereo_44KHz.wav
1	117	1	2	0	C	1	1	1672	1	Ⴂ	cut_ui_stereo_44KHz.wav
1	118	4	3	2	I	1	0	1740	1	Ⴇ	cut_s_stereo_44KHz.wav
1	119	3	4	2	I	1	0	1467	0	Ⴜ	cut_oei_stereo_44KHz.wav
1	120	2	2	1	C	2	1	1290	1	Ⴃ	cut_ui_stereo_44KHz.wav
1	121	3	3	2	I	1	0	1271	0	Ⴜ	cut_s_stereo_44KHz.wav
1	122	2	2	1	C	2	1	1272	1	Ⴃ	cut_ui_stereo_44KHz.wav
1	123	1	2	0	C	1	1	1369	1	Ⴂ	cut_ui_stereo_44KHz.wav
1	124	4	3	2	I	1	0	1080	1	Ⴇ	cut_s_stereo_44KHz.wav
1	125	2	1	0	C	1	1	1179	1	Ⴃ	cut_ei_stereo_44KHz.wav
1	126	3	4	2	I	1	0	1543	1	Ⴜ	cut_oei_stereo_44KHz.wav
1	127	1	1	1	C	2	1	1402	1	Ⴂ	cut_ei_stereo_44KHz.wav
1	128	4	4	2	I	0	0	0	0	Ⴇ	cut_oei_stereo_44KHz.wav
1	129	2	2	1	C	2	1	1750	1	Ⴃ	cut_ui_stereo_44KHz.wav
1	130	1	2	0	C	1	1	1255	1	Ⴂ	cut_ui_stereo_44KHz.wav
1	131	3	4	2	I	1	0	1503	0	Ⴜ	cut_oei_stereo_44KHz.wav
1	132	4	3	2	I	2	0	1120	0	Ⴇ	cut_s_stereo_44KHz.wav
1	133	1	1	1	C	2	1	1694	1	Ⴂ	cut_ei_stereo_44KHz.wav
1	134	2	1	0	C	1	1	1095	1	Ⴃ	cut_ei_stereo_44KHz.wav
1	135	3	3	2	I	2	0	1571	1	Ⴜ	cut_s_stereo_44KHz.wav
1	136	4	4	2	I	1	0	1346	1	Ⴇ	cut_oei_stereo_44KHz.wav
1	137	3	3	2	I	2	0	1500	0	Ⴜ	cut_s_stereo_44KHz.wav
1	138	4	4	2	I	1	0	1657	0	Ⴇ	cut_oei_stereo_44KHz.wav
1	139	2	2	1	C	2	1	1023	1	Ⴃ	cut_ui_stereo_44KHz.wav
1	140	1	1	1	C	1	0	787	0	Ⴂ	cut_ei_stereo_44KHz.wav
1	141	4	3	2	I	1	0	1255	1	Ⴇ	cut_s_stereo_44KHz.wav
1	142	2	1	0	C	1	1	849	1	Ⴃ	cut_ei_stereo_44KHz.wav
1	143	1	2	0	C	1	1	1271	1	Ⴂ	cut_ui_stereo_44KHz.wav
1	144	3	4	2	I	2	0	1063	1	Ⴜ	cut_oei_stereo_44KHz.wav
1	145	1	2	0	C	1	1	1147	1	Ⴂ	cut_ui_stereo_44KHz.wav
1	146	4	3	2	I	2	0	1330	1	Ⴇ	cut_s_stereo_44KHz.wav
1	147	3	3	2	I	1	0	1803	0	Ⴜ	cut_s_stereo_44KHz.wav
1	148	2	2	1	C	2	1	1296	1	Ⴃ	cut_ui_stereo_44KHz.wav
1	149	1	1	1	C	2	1	1461	1	Ⴂ	cut_ei_stereo_44KHz.wav
1	150	3	4	2	I	1	0	1142	1	Ⴜ	cut_oei_stereo_44KHz.wav
1	151	4	4	2	I	2	0	1344	1	Ⴇ	cut_oei_stereo_44KHz.wav
1	152	2	1	0	C	1	1	896	1	Ⴃ	cut_ei_stereo_44KHz.wav
1	153	1	1	1	C	2	1	980	1	Ⴂ	cut_ei_stereo_44KHz.wav
1	154	3	3	2	I	2	0	1094	0	Ⴜ	cut_s_stereo_44KHz.wav
1	155	4	4	2	I	2	0	1118	1	Ⴇ	cut_oei_stereo_44KHz.wav
1	156	2	1	0	C	1	1	1029	1	Ⴃ	cut_ei_stereo_44KHz.wav
1	157	4	3	2	I	1	0	1702	0	Ⴇ	cut_s_stereo_44KHz.wav
1	158	2	2	1	C	2	1	1173	1	Ⴃ	cut_ui_stereo_44KHz.wav
1	159	1	2	0	C	2	0	795	0	Ⴂ	cut_ui_stereo_44KHz.wav
1	160	3	4	2	I	2	0	1068	0	Ⴜ	cut_oei_stereo_44KHz.wav
1	161	4	3	2	I	1	0	1210	1	Ⴇ	cut_s_stereo_44KHz.wav
1	162	2	1	0	C	1	1	1004	1	Ⴃ	cut_ei_stereo_44KHz.wav
1	163	1	1	1	C	2	1	1176	1	Ⴂ	cut_ei_stereo_44KHz.wav
1	164	3	3	2	I	1	0	1539	0	Ⴜ	cut_s_stereo_44KHz.wav
1	165	4	4	2	I	2	0	1550	0	Ⴇ	cut_oei_stereo_44KHz.wav
1	166	2	2	1	C	2	1	1341	1	Ⴃ	cut_ui_stereo_44KHz.wav
1	167	3	4	2	I	1	0	1822	0	Ⴜ	cut_oei_stereo_44KHz.wav
1	168	1	2	0	C	1	1	1512	1	Ⴂ	cut_ui_stereo_44KHz.wav
1	169	2	1	0	C	1	1	1275	1	Ⴃ	cut_ei_stereo_44KHz.wav
1	170	3	4	2	I	1	0	1551	1	Ⴜ	cut_oei_stereo_44KHz.wav
1	171	1	2	0	C	0	0	0	0	Ⴂ	cut_ui_stereo_44KHz.wav
1	172	4	4	2	I	2	0	1274	1	Ⴇ	cut_oei_stereo_44KHz.wav
1	173	2	2	1	C	2	1	1578	1	Ⴃ	cut_ui_stereo_44KHz.wav
1	174	3	3	2	I	2	0	1481	1	Ⴜ	cut_s_stereo_44KHz.wav
1	175	4	3	2	I	1	0	1121	1	Ⴇ	cut_s_stereo_44KHz.wav
1	176	1	1	1	C	2	1	1455	1	Ⴂ	cut_ei_stereo_44KHz.wav
1	177	2	1	0	C	1	1	1653	1	Ⴃ	cut_ei_stereo_44KHz.wav
1	178	4	4	2	I	0	0	0	0	Ⴇ	cut_oei_stereo_44KHz.wav
1	179	3	4	2	I	2	0	924	1	Ⴜ	cut_oei_stereo_44KHz.wav
1	180	1	1	1	C	2	1	1438	1	Ⴂ	cut_ei_stereo_44KHz.wav
1	181	3	3	2	I	2	0	1155	0	Ⴜ	cut_s_stereo_44KHz.wav
1	182	1	2	0	C	1	1	985	1	Ⴂ	cut_ui_stereo_44KHz.wav
1	183	2	2	1	C	2	1	1247	1	Ⴃ	cut_ui_stereo_44KHz.wav
1	184	4	3	2	I	1	0	1222	0	Ⴇ	cut_s_stereo_44KHz.wav
1	185	2	1	0	C	1	1	1260	1	Ⴃ	cut_ei_stereo_44KHz.wav
1	186	3	4	2	I	1	0	1104	0	Ⴜ	cut_oei_stereo_44KHz.wav
1	187	4	3	2	I	1	0	1136	0	Ⴇ	cut_s_stereo_44KHz.wav
1	188	1	2	0	C	1	1	1356	1	Ⴂ	cut_ui_stereo_44KHz.wav
1	189	2	2	1	C	2	1	1214	1	Ⴃ	cut_ui_stereo_44KHz.wav
1	190	1	1	1	C	0	0	0	0	Ⴂ	cut_ei_stereo_44KHz.wav
1	191	4	4	2	I	2	0	1297	0	Ⴇ	cut_oei_stereo_44KHz.wav
1	192	3	3	2	I	1	0	1563	1	Ⴜ	cut_s_stereo_44KHz.wav
1	193	2	2	1	C	2	1	1143	1	Ⴃ	cut_ui_stereo_44KHz.wav
1	194	1	1	1	C	1	0	1207	0	Ⴂ	cut_ei_stereo_44KHz.wav
1	195	4	3	2	I	1	0	1067	0	Ⴇ	cut_s_stereo_44KHz.wav
1	196	3	4	2	I	2	0	1070	1	Ⴜ	cut_oei_stereo_44KHz.wav
1	197	2	1	0	C	1	1	973	1	Ⴃ	cut_ei_stereo_44KHz.wav
1	198	3	3	2	I	1	0	1293	0	Ⴜ	cut_s_stereo_44KHz.wav
1	199	1	2	0	C	1	1	1277	1	Ⴂ	cut_ui_stereo_44KHz.wav
1	200	4	4	2	I	2	0	853	0	Ⴇ	cut_oei_stereo_44KHz.wav
2	1	3	3	2	I	1	0	1457	0	Ⴐ	cut_u_stereo_44KHz.wav
2	2	1	1	1	C	1	0	1402	0	Ⴌ	cut_o_stereo_44KHz.wav
2	3	4	4	2	I	1	0	1239	0	Ⴉ	cut_a_stereo_44KHz.wav
2	4	2	1	0	C	1	1	993	1	Ⴏ	cut_o_stereo_44KHz.wav
2	5	1	2	0	C	2	0	1547	0	Ⴌ	cut_k_stereo_44KHz.wav
2	6	3	4	2	I	1	0	1114	0	Ⴐ	cut_a_stereo_44KHz.wav
2	7	4	3	2	I	1	0	1446	1	Ⴉ	cut_u_stereo_44KHz.wav
2	8	2	2	1	C	2	1	954	1	Ⴏ	cut_k_stereo_44KHz.wav
2	9	3	4	2	I	1	0	1437	1	Ⴐ	cut_a_stereo_44KHz.wav
2	10	4	3	2	I	2	0	759	1	Ⴉ	cut_u_stereo_44KHz.wav
2	11	2	1	0	C	2	0	764	0	Ⴏ	cut_o_stereo_44KHz.wav
2	12	1	2	0	C	1	1	654	1	Ⴌ	cut_k_stereo_44KHz.wav
2	13	2	2	1	C	1	0	678	0	Ⴏ	cut_k_stereo_44KHz.wav
2	14	1	1	1	C	2	1	801	1	Ⴌ	cut_o_stereo_44KHz.wav
2	15	3	3	2	I	2	0	866	1	Ⴐ	cut_u_stereo_44KHz.wav
2	16	4	4	2	I	1	0	1092	0	Ⴉ	cut_a_stereo_44KHz.wav
2	17	3	3	2	I	1	0	777	0	Ⴐ	cut_u_stereo_44KHz.wav
2	18	1	1	1	C	2	1	1075	1	Ⴌ	cut_o_stereo_44KHz.wav
2	19	2	1	0	C	1	1	1150	1	Ⴏ	cut_o_stereo_44KHz.wav
2	20	4	3	2	I	2	0	765	0	Ⴉ	cut_u_stereo_44KHz.wav
2	21	3	4	2	I	1	0	900	1	Ⴐ	cut_a_stereo_44KHz.wav
2	22	4	4	2	I	2	0	739	0	Ⴉ	cut_a_stereo_44KHz.wav
2	23	1	2	0	C	1	1	1316	1	Ⴌ	cut_k_stereo_44KHz.wav
2	24	2	2	1	C	2	1	1019	1	Ⴏ	cut_k_stereo_44KHz.wav
2	25	1	2	0	C	1	1	766	1	Ⴌ	cut_k_stereo_44KHz.wav
2	26	4	3	2	I	1	0	1077	0	Ⴉ	cut_u_stereo_44KHz.wav
2	27	2	1	0	C	1	1	1091	1	Ⴏ	cut_o_stereo_44KHz.wav
2	28	3	4	2	I	1	0	984	0	Ⴐ	cut_a_stereo_44KHz.wav
2	29	4	4	2	I	1	0	746	1	Ⴉ	cut_a_stereo_44KHz.wav
2	30	2	2	1	C	2	1	1047	1	Ⴏ	cut_k_stereo_44KHz.wav
2	31	1	1	1	C	2	1	1165	1	Ⴌ	cut_o_stereo_44KHz.wav
2	32	3	3	2	I	1	0	961	0	Ⴐ	cut_u_stereo_44KHz.wav
2	33	1	1	1	C	2	1	1180	1	Ⴌ	cut_o_stereo_44KHz.wav
2	34	3	4	2	I	2	0	1351	1	Ⴐ	cut_a_stereo_44KHz.wav
2	35	2	1	0	C	1	1	998	1	Ⴏ	cut_o_stereo_44KHz.wav
2	36	4	3	2	I	2	0	1059	1	Ⴉ	cut_u_stereo_44KHz.wav
2	37	2	2	1	C	2	1	988	1	Ⴏ	cut_k_stereo_44KHz.wav
2	38	4	4	2	I	1	0	961	1	Ⴉ	cut_a_stereo_44KHz.wav
2	39	1	2	0	C	1	1	1195	1	Ⴌ	cut_k_stereo_44KHz.wav
2	40	3	3	2	I	1	0	1577	0	Ⴐ	cut_u_stereo_44KHz.wav
2	41	2	1	0	C	1	1	1358	1	Ⴏ	cut_o_stereo_44KHz.wav
2	42	1	1	1	C	2	1	1815	1	Ⴌ	cut_o_stereo_44KHz.wav
2	43	3	3	2	I	0	0	0	0	Ⴐ	cut_u_stereo_44KHz.wav
2	44	4	4	2	I	1	0	908	1	Ⴉ	cut_a_stereo_44KHz.wav
2	45	3	4	2	I	2	0	1142	1	Ⴐ	cut_a_stereo_44KHz.wav
2	46	4	3	2	I	1	0	1328	0	Ⴉ	cut_u_stereo_44KHz.wav
2	47	2	2	1	C	2	1	1279	1	Ⴏ	cut_k_stereo_44KHz.wav
2	48	1	2	0	C	1	1	1424	1	Ⴌ	cut_k_stereo_44KHz.wav
2	49	3	3	2	I	1	0	1627	0	Ⴐ	cut_u_stereo_44KHz.wav
2	50	2	2	1	C	2	1	859	1	Ⴏ	cut_k_stereo_44KHz.wav
2	51	4	3	2	I	2	0	844	1	Ⴉ	cut_u_stereo_44KHz.wav
2	52	1	1	1	C	2	1	968	1	Ⴌ	cut_o_stereo_44KHz.wav
2	53	3	4	2	I	2	0	1443	1	Ⴐ	cut_a_stereo_44KHz.wav
2	54	2	1	0	C	2	0	904	0	Ⴏ	cut_o_stereo_44KHz.wav
2	55	1	2	0	C	1	1	790	1	Ⴌ	cut_k_stereo_44KHz.wav
2	56	4	4	2	I	1	0	729	0	Ⴉ	cut_a_stereo_44KHz.wav
2	57	2	2	1	C	2	1	1083	1	Ⴏ	cut_k_stereo_44KHz.wav
2	58	4	3	2	I	2	0	1058	0	Ⴉ	cut_u_stereo_44KHz.wav
2	59	1	2	0	C	1	1	773	1	Ⴌ	cut_k_stereo_44KHz.wav
2	60	3	3	2	I	1	0	843	0	Ⴐ	cut_u_stereo_44KHz.wav
2	61	1	1	1	C	1	0	1114	0	Ⴌ	cut_o_stereo_44KHz.wav
2	62	4	4	2	I	1	0	658	1	Ⴉ	cut_a_stereo_44KHz.wav
2	63	2	1	0	C	1	1	1049	1	Ⴏ	cut_o_stereo_44KHz.wav
2	64	3	4	2	I	2	0	729	0	Ⴐ	cut_a_stereo_44KHz.wav
2	65	2	1	0	C	1	1	924	1	Ⴏ	cut_o_stereo_44KHz.wav
2	66	3	3	2	I	1	0	578	1	Ⴐ	cut_u_stereo_44KHz.wav
2	67	1	1	1	C	2	1	1007	1	Ⴌ	cut_o_stereo_44KHz.wav
2	68	4	4	2	I	1	0	874	1	Ⴉ	cut_a_stereo_44KHz.wav
2	69	1	2	0	C	1	1	1475	1	Ⴌ	cut_k_stereo_44KHz.wav
2	70	4	3	2	I	2	0	1362	1	Ⴉ	cut_u_stereo_44KHz.wav
2	71	2	2	1	C	2	1	1645	1	Ⴏ	cut_k_stereo_44KHz.wav
2	72	3	4	2	I	2	0	955	1	Ⴐ	cut_a_stereo_44KHz.wav
2	73	1	2	0	C	1	1	678	1	Ⴌ	cut_k_stereo_44KHz.wav
2	74	4	4	2	I	1	0	1394	1	Ⴉ	cut_a_stereo_44KHz.wav
2	75	2	2	1	C	2	1	805	1	Ⴏ	cut_k_stereo_44KHz.wav
2	76	3	4	2	I	2	0	859	0	Ⴐ	cut_a_stereo_44KHz.wav
2	77	4	3	2	I	2	0	1121	1	Ⴉ	cut_u_stereo_44KHz.wav
2	78	3	3	2	I	1	0	960	0	Ⴐ	cut_u_stereo_44KHz.wav
2	79	1	1	1	C	2	1	1161	1	Ⴌ	cut_o_stereo_44KHz.wav
2	80	2	1	0	C	1	1	1000	1	Ⴏ	cut_o_stereo_44KHz.wav
2	81	4	3	2	I	2	0	1580	1	Ⴉ	cut_u_stereo_44KHz.wav
2	82	1	2	0	C	1	1	742	1	Ⴌ	cut_k_stereo_44KHz.wav
2	83	3	4	2	I	0	0	0	0	Ⴐ	cut_a_stereo_44KHz.wav
2	84	2	2	1	C	2	1	830	1	Ⴏ	cut_k_stereo_44KHz.wav
2	85	4	4	2	I	1	0	619	1	Ⴉ	cut_a_stereo_44KHz.wav
2	86	3	3	2	I	2	0	1195	1	Ⴐ	cut_u_stereo_44KHz.wav
2	87	2	1	0	C	1	1	1671	1	Ⴏ	cut_o_stereo_44KHz.wav
2	88	1	1	1	C	2	1	1263	1	Ⴌ	cut_o_stereo_44KHz.wav
2	89	4	4	2	I	1	0	907	1	Ⴉ	cut_a_stereo_44KHz.wav
2	90	3	3	2	I	2	0	1610	0	Ⴐ	cut_u_stereo_44KHz.wav
2	91	2	1	0	C	2	0	1102	0	Ⴏ	cut_o_stereo_44KHz.wav
2	92	1	2	0	C	1	1	1383	1	Ⴌ	cut_k_stereo_44KHz.wav
2	93	2	2	1	C	2	1	1084	1	Ⴏ	cut_k_stereo_44KHz.wav
2	94	3	4	2	I	1	0	1081	1	Ⴐ	cut_a_stereo_44KHz.wav
2	95	4	3	2	I	2	0	1359	0	Ⴉ	cut_u_stereo_44KHz.wav
2	96	1	1	1	C	2	1	1504	1	Ⴌ	cut_o_stereo_44KHz.wav
2	97	2	2	1	C	2	1	1553	1	Ⴏ	cut_k_stereo_44KHz.wav
2	98	1	1	1	C	2	1	1464	1	Ⴌ	cut_o_stereo_44KHz.wav
2	99	3	3	2	I	2	0	1825	0	Ⴐ	cut_u_stereo_44KHz.wav
2	100	4	4	2	I	1	0	1304	0	Ⴉ	cut_a_stereo_44KHz.wav
2	101	3	4	2	I	1	0	1526	0	Ⴐ	cut_a_stereo_44KHz.wav
2	102	4	3	2	I	2	0	1572	1	Ⴉ	cut_u_stereo_44KHz.wav
2	103	2	1	0	C	1	1	1829	1	Ⴏ	cut_o_stereo_44KHz.wav
2	104	1	2	0	C	1	1	1724	1	Ⴌ	cut_k_stereo_44KHz.wav
2	105	2	2	1	C	2	1	1331	1	Ⴏ	cut_k_stereo_44KHz.wav
2	106	1	1	1	C	2	1	1802	1	Ⴌ	cut_o_stereo_44KHz.wav
2	107	4	3	2	I	2	0	1301	1	Ⴉ	cut_u_stereo_44KHz.wav
2	108	3	3	2	I	1	0	1893	1	Ⴐ	cut_u_stereo_44KHz.wav
2	109	4	4	2	I	1	0	1384	0	Ⴉ	cut_a_stereo_44KHz.wav
2	110	2	1	0	C	1	1	1813	1	Ⴏ	cut_o_stereo_44KHz.wav
2	111	3	4	2	I	0	0	0	0	Ⴐ	cut_a_stereo_44KHz.wav
2	112	1	2	0	C	1	1	1558	1	Ⴌ	cut_k_stereo_44KHz.wav
2	113	3	4	2	I	2	0	996	0	Ⴐ	cut_a_stereo_44KHz.wav
2	114	4	3	2	I	2	0	1328	0	Ⴉ	cut_u_stereo_44KHz.wav
2	115	2	1	0	C	0	0	0	0	Ⴏ	cut_o_stereo_44KHz.wav
2	116	1	1	1	C	0	0	0	0	Ⴌ	cut_o_stereo_44KHz.wav
2	117	4	4	2	I	1	0	1457	0	Ⴉ	cut_a_stereo_44KHz.wav
2	118	3	3	2	I	1	0	965	1	Ⴐ	cut_u_stereo_44KHz.wav
2	119	1	2	0	C	1	1	899	1	Ⴌ	cut_k_stereo_44KHz.wav
2	120	2	2	1	C	2	1	1164	1	Ⴏ	cut_k_stereo_44KHz.wav
2	121	4	4	2	I	1	0	828	1	Ⴉ	cut_a_stereo_44KHz.wav
2	122	2	1	0	C	1	1	938	1	Ⴏ	cut_o_stereo_44KHz.wav
2	123	1	2	0	C	1	1	1259	1	Ⴌ	cut_k_stereo_44KHz.wav
2	124	3	4	2	I	1	0	1058	0	Ⴐ	cut_a_stereo_44KHz.wav
2	125	4	3	2	I	1	0	1511	0	Ⴉ	cut_u_stereo_44KHz.wav
2	126	3	3	2	I	1	0	1681	1	Ⴐ	cut_u_stereo_44KHz.wav
2	127	1	1	1	C	2	1	1531	1	Ⴌ	cut_o_stereo_44KHz.wav
2	128	2	2	1	C	2	1	1335	1	Ⴏ	cut_k_stereo_44KHz.wav
2	129	4	4	2	I	1	0	1146	1	Ⴉ	cut_a_stereo_44KHz.wav
2	130	2	1	0	C	1	1	1398	1	Ⴏ	cut_o_stereo_44KHz.wav
2	131	1	1	1	C	2	1	1464	1	Ⴌ	cut_o_stereo_44KHz.wav
2	132	3	3	2	I	2	0	1538	0	Ⴐ	cut_u_stereo_44KHz.wav
2	133	4	3	2	I	2	0	1507	0	Ⴉ	cut_u_stereo_44KHz.wav
2	134	3	4	2	I	2	0	1302	1	Ⴐ	cut_a_stereo_44KHz.wav
2	135	1	2	0	C	1	1	1199	1	Ⴌ	cut_k_stereo_44KHz.wav
2	136	2	2	1	C	2	1	1105	1	Ⴏ	cut_k_stereo_44KHz.wav
2	137	3	3	2	I	0	0	0	0	Ⴐ	cut_u_stereo_44KHz.wav
2	138	2	1	0	C	1	1	1049	1	Ⴏ	cut_o_stereo_44KHz.wav
2	139	4	4	2	I	1	0	1102	0	Ⴉ	cut_a_stereo_44KHz.wav
2	140	1	2	0	C	1	1	1006	1	Ⴌ	cut_k_stereo_44KHz.wav
2	141	2	2	1	C	2	1	1427	1	Ⴏ	cut_k_stereo_44KHz.wav
2	142	3	4	2	I	2	0	1584	0	Ⴐ	cut_a_stereo_44KHz.wav
2	143	1	1	1	C	2	1	1413	1	Ⴌ	cut_o_stereo_44KHz.wav
2	144	4	3	2	I	1	0	1476	0	Ⴉ	cut_u_stereo_44KHz.wav
2	145	3	4	2	I	1	0	1171	1	Ⴐ	cut_a_stereo_44KHz.wav
2	146	2	2	1	C	2	1	1201	1	Ⴏ	cut_k_stereo_44KHz.wav
2	147	4	4	2	I	1	0	1759	0	Ⴉ	cut_a_stereo_44KHz.wav
2	148	1	1	1	C	2	1	1531	1	Ⴌ	cut_o_stereo_44KHz.wav
2	149	4	3	2	I	1	0	1815	0	Ⴉ	cut_u_stereo_44KHz.wav
2	150	2	1	0	C	2	0	1011	0	Ⴏ	cut_o_stereo_44KHz.wav
2	151	3	3	2	I	2	0	789	0	Ⴐ	cut_u_stereo_44KHz.wav
2	152	1	2	0	C	1	1	1181	1	Ⴌ	cut_k_stereo_44KHz.wav
2	153	4	4	2	I	1	0	1050	0	Ⴉ	cut_a_stereo_44KHz.wav
2	154	3	3	2	I	2	0	979	1	Ⴐ	cut_u_stereo_44KHz.wav
2	155	2	1	0	C	1	1	1795	1	Ⴏ	cut_o_stereo_44KHz.wav
2	156	1	1	1	C	2	1	1089	1	Ⴌ	cut_o_stereo_44KHz.wav
2	157	3	4	2	I	1	0	1844	0	Ⴐ	cut_a_stereo_44KHz.wav
2	158	2	2	1	C	2	1	853	1	Ⴏ	cut_k_stereo_44KHz.wav
2	159	1	2	0	C	1	1	1105	1	Ⴌ	cut_k_stereo_44KHz.wav
2	160	4	3	2	I	1	0	989	1	Ⴉ	cut_u_stereo_44KHz.wav
2	161	1	2	0	C	1	1	1297	1	Ⴌ	cut_k_stereo_44KHz.wav
2	162	2	2	1	C	2	1	803	1	Ⴏ	cut_k_stereo_44KHz.wav
2	163	4	3	2	I	2	0	899	1	Ⴉ	cut_u_stereo_44KHz.wav
2	164	3	3	2	I	2	0	1026	1	Ⴐ	cut_u_stereo_44KHz.wav
2	165	1	1	1	C	2	1	1036	1	Ⴌ	cut_o_stereo_44KHz.wav
2	166	2	1	0	C	1	1	1483	1	Ⴏ	cut_o_stereo_44KHz.wav
2	167	3	4	2	I	2	0	1141	0	Ⴐ	cut_a_stereo_44KHz.wav
2	168	4	4	2	I	1	0	1117	0	Ⴉ	cut_a_stereo_44KHz.wav
2	169	3	4	2	I	2	0	1067	1	Ⴐ	cut_a_stereo_44KHz.wav
2	170	1	2	0	C	1	1	1189	1	Ⴌ	cut_k_stereo_44KHz.wav
2	171	4	3	2	I	2	0	1354	1	Ⴉ	cut_u_stereo_44KHz.wav
2	172	2	1	0	C	1	1	1185	1	Ⴏ	cut_o_stereo_44KHz.wav
2	173	4	4	2	I	1	0	1274	1	Ⴉ	cut_a_stereo_44KHz.wav
2	174	2	2	1	C	2	1	1291	1	Ⴏ	cut_k_stereo_44KHz.wav
2	175	3	3	2	I	2	0	1664	1	Ⴐ	cut_u_stereo_44KHz.wav
2	176	1	1	1	C	1	0	1618	0	Ⴌ	cut_o_stereo_44KHz.wav
2	177	3	4	2	I	2	0	1082	1	Ⴐ	cut_a_stereo_44KHz.wav
2	178	2	2	1	C	2	1	1503	1	Ⴏ	cut_k_stereo_44KHz.wav
2	179	1	2	0	C	2	0	1260	0	Ⴌ	cut_k_stereo_44KHz.wav
2	180	4	3	2	I	2	0	1327	0	Ⴉ	cut_u_stereo_44KHz.wav
2	181	1	1	1	C	2	1	1522	1	Ⴌ	cut_o_stereo_44KHz.wav
2	182	2	1	0	C	1	1	1165	1	Ⴏ	cut_o_stereo_44KHz.wav
2	183	4	4	2	I	2	0	1407	0	Ⴉ	cut_a_stereo_44KHz.wav
2	184	3	3	2	I	1	0	1264	0	Ⴐ	cut_u_stereo_44KHz.wav
2	185	1	1	1	C	2	1	1027	1	Ⴌ	cut_o_stereo_44KHz.wav
2	186	3	4	2	I	1	0	1111	0	Ⴐ	cut_a_stereo_44KHz.wav
2	187	4	4	2	I	1	0	916	0	Ⴉ	cut_a_stereo_44KHz.wav
2	188	2	1	0	C	1	1	1391	1	Ⴏ	cut_o_stereo_44KHz.wav
2	189	1	2	0	C	1	1	1138	1	Ⴌ	cut_k_stereo_44KHz.wav
2	190	2	2	1	C	1	0	581	0	Ⴏ	cut_k_stereo_44KHz.wav
2	191	4	3	2	I	1	0	871	1	Ⴉ	cut_u_stereo_44KHz.wav
2	192	3	3	2	I	2	0	1525	1	Ⴐ	cut_u_stereo_44KHz.wav
2	193	4	4	2	I	1	0	1156	0	Ⴉ	cut_a_stereo_44KHz.wav
2	194	2	2	1	C	1	0	1700	0	Ⴏ	cut_k_stereo_44KHz.wav
2	195	3	3	2	I	2	0	1347	0	Ⴐ	cut_u_stereo_44KHz.wav
2	196	1	2	0	C	1	1	958	1	Ⴌ	cut_k_stereo_44KHz.wav
2	197	2	1	0	C	1	1	1225	1	Ⴏ	cut_o_stereo_44KHz.wav
2	198	4	3	2	I	2	0	1000	1	Ⴉ	cut_u_stereo_44KHz.wav
2	199	3	4	2	I	2	0	1283	1	Ⴐ	cut_a_stereo_44KHz.wav
2	200	1	1	1	C	2	1	1122	1	Ⴌ	cut_o_stereo_44KHz.wav
3	1	3	3	2	I	0	0	0	0	Ⴡ	cut_f_stereo_44KHz.wav
3	2	4	4	2	I	1	0	866	1	Ⴁ	cut_j_stereo_44KHz.wav
3	3	1	1	1	C	2	1	1609	1	Ⴊ	cut_r_stereo_44KHz.wav
3	4	2	1	0	C	1	1	1239	1	Ⴟ	cut_r_stereo_44KHz.wav
3	5	3	4	2	I	1	0	1278	1	Ⴡ	cut_j_stereo_44KHz.wav
3	6	1	2	0	C	2	0	1482	0	Ⴊ	cut_n_stereo_44KHz.wav
3	7	2	2	1	C	2	1	1161	1	Ⴟ	cut_n_stereo_44KHz.wav
3	8	4	3	2	I	1	0	992	1	Ⴁ	cut_f_stereo_44KHz.wav
3	9	1	2	0	C	1	1	1253	1	Ⴊ	cut_n_stereo_44KHz.wav
3	10	4	4	2	I	1	0	1016	1	Ⴁ	cut_j_stereo_44KHz.wav
3	11	3	4	2	I	1	0	1312	1	Ⴡ	cut_j_stereo_44KHz.wav
3	12	2	1	0	C	1	1	1019	1	Ⴟ	cut_r_stereo_44KHz.wav
3	13	3	3	2	I	1	0	1161	0	Ⴡ	cut_f_stereo_44KHz.wav
3	14	1	1	1	C	2	1	1465	1	Ⴊ	cut_r_stereo_44KHz.wav
3	15	2	2	1	C	2	1	1339	1	Ⴟ	cut_n_stereo_44KHz.wav
3	16	4	3	2	I	1	0	1186	1	Ⴁ	cut_f_stereo_44KHz.wav
3	17	3	4	2	I	1	0	1137	0	Ⴡ	cut_j_stereo_44KHz.wav
3	18	4	3	2	I	1	0	1222	0	Ⴁ	cut_f_stereo_44KHz.wav
3	19	1	1	1	C	2	1	1555	1	Ⴊ	cut_r_stereo_44KHz.wav
3	20	2	2	1	C	2	1	1223	1	Ⴟ	cut_n_stereo_44KHz.wav
3	21	3	3	2	I	2	0	1652	1	Ⴡ	cut_f_stereo_44KHz.wav
3	22	2	1	0	C	1	1	1927	1	Ⴟ	cut_r_stereo_44KHz.wav
3	23	1	2	0	C	1	1	1091	1	Ⴊ	cut_n_stereo_44KHz.wav
3	24	4	4	2	I	2	0	1588	1	Ⴁ	cut_j_stereo_44KHz.wav
3	25	1	1	1	C	2	1	1413	1	Ⴊ	cut_r_stereo_44KHz.wav
3	26	4	4	2	I	2	0	1418	1	Ⴁ	cut_j_stereo_44KHz.wav
3	27	3	3	2	I	1	0	1118	0	Ⴡ	cut_f_stereo_44KHz.wav
3	28	2	1	0	C	1	1	1510	1	Ⴟ	cut_r_stereo_44KHz.wav
3	29	1	2	0	C	1	1	1267	1	Ⴊ	cut_n_stereo_44KHz.wav
3	30	3	4	2	I	1	0	1160	0	Ⴡ	cut_j_stereo_44KHz.wav
3	31	2	2	1	C	2	1	1361	1	Ⴟ	cut_n_stereo_44KHz.wav
3	32	4	3	2	I	1	0	1157	1	Ⴁ	cut_f_stereo_44KHz.wav
3	33	1	2	0	C	1	1	1255	1	Ⴊ	cut_n_stereo_44KHz.wav
3	34	4	3	2	I	1	0	1719	1	Ⴁ	cut_f_stereo_44KHz.wav
3	35	3	3	2	I	2	0	862	1	Ⴡ	cut_f_stereo_44KHz.wav
3	36	2	1	0	C	1	1	883	1	Ⴟ	cut_r_stereo_44KHz.wav
3	37	3	4	2	I	2	0	1067	1	Ⴡ	cut_j_stereo_44KHz.wav
3	38	4	4	2	I	2	0	894	1	Ⴁ	cut_j_stereo_44KHz.wav
3	39	1	1	1	C	2	1	1542	1	Ⴊ	cut_r_stereo_44KHz.wav
3	40	2	2	1	C	2	1	1048	1	Ⴟ	cut_n_stereo_44KHz.wav
3	41	3	4	2	I	2	0	899	1	Ⴡ	cut_j_stereo_44KHz.wav
3	42	4	4	2	I	2	0	1073	0	Ⴁ	cut_j_stereo_44KHz.wav
3	43	1	1	1	C	2	1	1123	1	Ⴊ	cut_r_stereo_44KHz.wav
3	44	2	2	1	C	2	1	902	1	Ⴟ	cut_n_stereo_44KHz.wav
3	45	3	3	2	I	2	0	802	1	Ⴡ	cut_f_stereo_44KHz.wav
3	46	2	1	0	C	1	1	1076	1	Ⴟ	cut_r_stereo_44KHz.wav
3	47	1	2	0	C	1	1	986	1	Ⴊ	cut_n_stereo_44KHz.wav
3	48	4	3	2	I	1	0	864	0	Ⴁ	cut_f_stereo_44KHz.wav
3	49	1	1	1	C	2	1	1059	1	Ⴊ	cut_r_stereo_44KHz.wav
3	50	3	4	2	I	2	0	1287	1	Ⴡ	cut_j_stereo_44KHz.wav
3	51	4	4	2	I	1	0	1020	1	Ⴁ	cut_j_stereo_44KHz.wav
3	52	2	2	1	C	2	1	1422	1	Ⴟ	cut_n_stereo_44KHz.wav
3	53	1	2	0	C	1	1	1237	1	Ⴊ	cut_n_stereo_44KHz.wav
3	54	2	1	0	C	1	1	1435	1	Ⴟ	cut_r_stereo_44KHz.wav
3	55	3	3	2	I	2	0	1115	1	Ⴡ	cut_f_stereo_44KHz.wav
3	56	4	3	2	I	1	0	1157	0	Ⴁ	cut_f_stereo_44KHz.wav
3	57	2	1	0	C	1	1	1129	1	Ⴟ	cut_r_stereo_44KHz.wav
3	58	4	4	2	I	1	0	1452	1	Ⴁ	cut_j_stereo_44KHz.wav
3	59	1	1	1	C	2	1	1770	1	Ⴊ	cut_r_stereo_44KHz.wav
3	60	3	3	2	I	2	0	1694	1	Ⴡ	cut_f_stereo_44KHz.wav
3	61	1	2	0	C	2	0	1541	0	Ⴊ	cut_n_stereo_44KHz.wav
3	62	3	4	2	I	2	0	796	0	Ⴡ	cut_j_stereo_44KHz.wav
3	63	2	2	1	C	2	1	939	1	Ⴟ	cut_n_stereo_44KHz.wav
3	64	4	3	2	I	1	0	1240	0	Ⴁ	cut_f_stereo_44KHz.wav
3	65	3	4	2	I	1	0	1018	0	Ⴡ	cut_j_stereo_44KHz.wav
3	66	2	2	1	C	2	1	1000	1	Ⴟ	cut_n_stereo_44KHz.wav
3	67	1	1	1	C	2	1	1447	1	Ⴊ	cut_r_stereo_44KHz.wav
3	68	4	3	2	I	1	0	1331	1	Ⴁ	cut_f_stereo_44KHz.wav
3	69	1	2	0	C	1	1	1786	1	Ⴊ	cut_n_stereo_44KHz.wav
3	70	4	4	2	I	2	0	1573	1	Ⴁ	cut_j_stereo_44KHz.wav
3	71	3	3	2	I	2	0	1356	0	Ⴡ	cut_f_stereo_44KHz.wav
3	72	2	1	0	C	1	1	1612	1	Ⴟ	cut_r_stereo_44KHz.wav
3	73	4	3	2	I	2	0	1295	0	Ⴁ	cut_f_stereo_44KHz.wav
3	74	3	3	2	I	1	0	1436	0	Ⴡ	cut_f_stereo_44KHz.wav
3	75	1	2	0	C	1	1	1188	1	Ⴊ	cut_n_stereo_44KHz.wav
3	76	2	1	0	C	1	1	1158	1	Ⴟ	cut_r_stereo_44KHz.wav
3	77	4	4	2	I	1	0	1749	1	Ⴁ	cut_j_stereo_44KHz.wav
3	78	3	4	2	I	2	0	1241	1	Ⴡ	cut_j_stereo_44KHz.wav
3	79	2	2	1	C	2	1	1675	1	Ⴟ	cut_n_stereo_44KHz.wav
3	80	1	1	1	C	2	1	1464	1	Ⴊ	cut_r_stereo_44KHz.wav
3	81	4	3	2	I	1	0	1863	1	Ⴁ	cut_f_stereo_44KHz.wav
3	82	1	2	0	C	2	0	1456	0	Ⴊ	cut_n_stereo_44KHz.wav
3	83	3	3	2	I	2	0	1148	1	Ⴡ	cut_f_stereo_44KHz.wav
3	84	2	1	0	C	1	1	1047	1	Ⴟ	cut_r_stereo_44KHz.wav
3	85	1	1	1	C	2	1	1258	1	Ⴊ	cut_r_stereo_44KHz.wav
3	86	4	4	2	I	1	0	1580	1	Ⴁ	cut_j_stereo_44KHz.wav
3	87	2	2	1	C	2	1	1261	1	Ⴟ	cut_n_stereo_44KHz.wav
3	88	3	4	2	I	2	0	895	0	Ⴡ	cut_j_stereo_44KHz.wav
3	89	1	2	0	C	1	1	1279	1	Ⴊ	cut_n_stereo_44KHz.wav
3	90	3	4	2	I	2	0	923	1	Ⴡ	cut_j_stereo_44KHz.wav
3	91	2	1	0	C	1	1	1277	1	Ⴟ	cut_r_stereo_44KHz.wav
3	92	4	3	2	I	1	0	1327	1	Ⴁ	cut_f_stereo_44KHz.wav
3	93	2	2	1	C	2	1	1397	1	Ⴟ	cut_n_stereo_44KHz.wav
3	94	1	1	1	C	2	1	1699	1	Ⴊ	cut_r_stereo_44KHz.wav
3	95	4	4	2	I	1	0	1258	0	Ⴁ	cut_j_stereo_44KHz.wav
3	96	3	3	2	I	2	0	1416	0	Ⴡ	cut_f_stereo_44KHz.wav
3	97	2	1	0	C	1	1	1362	1	Ⴟ	cut_r_stereo_44KHz.wav
3	98	1	2	0	C	1	1	1327	1	Ⴊ	cut_n_stereo_44KHz.wav
3	99	4	3	2	I	2	0	1063	0	Ⴁ	cut_f_stereo_44KHz.wav
3	100	3	3	2	I	2	0	1531	0	Ⴡ	cut_f_stereo_44KHz.wav
3	101	2	2	1	C	1	0	1301	0	Ⴟ	cut_n_stereo_44KHz.wav
3	102	4	4	2	I	2	0	1497	0	Ⴁ	cut_j_stereo_44KHz.wav
3	103	3	4	2	I	2	0	735	1	Ⴡ	cut_j_stereo_44KHz.wav
3	104	1	1	1	C	2	1	1097	1	Ⴊ	cut_r_stereo_44KHz.wav
3	105	2	2	1	C	2	1	844	1	Ⴟ	cut_n_stereo_44KHz.wav
3	106	3	4	2	I	2	0	987	1	Ⴡ	cut_j_stereo_44KHz.wav
3	107	1	2	0	C	1	1	1162	1	Ⴊ	cut_n_stereo_44KHz.wav
3	108	4	3	2	I	1	0	780	1	Ⴁ	cut_f_stereo_44KHz.wav
3	109	1	1	1	C	2	1	1035	1	Ⴊ	cut_r_stereo_44KHz.wav
3	110	4	4	2	I	0	0	0	0	Ⴁ	cut_j_stereo_44KHz.wav
3	111	2	1	0	C	1	1	1439	1	Ⴟ	cut_r_stereo_44KHz.wav
3	112	3	3	2	I	2	0	803	0	Ⴡ	cut_f_stereo_44KHz.wav
3	113	4	4	2	I	1	0	1487	1	Ⴁ	cut_j_stereo_44KHz.wav
3	114	1	1	1	C	2	1	1143	1	Ⴊ	cut_r_stereo_44KHz.wav
3	115	2	2	1	C	2	1	894	1	Ⴟ	cut_n_stereo_44KHz.wav
3	116	3	4	2	I	2	0	860	1	Ⴡ	cut_j_stereo_44KHz.wav
3	117	1	2	0	C	2	0	831	0	Ⴊ	cut_n_stereo_44KHz.wav
3	118	2	1	0	C	1	1	825	1	Ⴟ	cut_r_stereo_44KHz.wav
3	119	3	3	2	I	2	0	613	0	Ⴡ	cut_f_stereo_44KHz.wav
3	120	4	3	2	I	1	0	600	1	Ⴁ	cut_f_stereo_44KHz.wav
3	121	3	3	2	I	1	0	858	0	Ⴡ	cut_f_stereo_44KHz.wav
3	122	4	4	2	I	1	0	1331	0	Ⴁ	cut_j_stereo_44KHz.wav
3	123	1	1	1	C	2	1	1633	1	Ⴊ	cut_r_stereo_44KHz.wav
3	124	2	2	1	C	2	1	954	1	Ⴟ	cut_n_stereo_44KHz.wav
3	125	1	2	0	C	1	1	1712	1	Ⴊ	cut_n_stereo_44KHz.wav
3	126	3	4	2	I	2	0	1394	1	Ⴡ	cut_j_stereo_44KHz.wav
3	127	4	3	2	I	1	0	1273	0	Ⴁ	cut_f_stereo_44KHz.wav
3	128	2	1	0	C	1	1	1086	1	Ⴟ	cut_r_stereo_44KHz.wav
3	129	4	4	2	I	1	0	1176	1	Ⴁ	cut_j_stereo_44KHz.wav
3	130	2	2	1	C	2	1	1467	1	Ⴟ	cut_n_stereo_44KHz.wav
3	131	3	3	2	I	1	0	1431	0	Ⴡ	cut_f_stereo_44KHz.wav
3	132	1	2	0	C	1	1	1376	1	Ⴊ	cut_n_stereo_44KHz.wav
3	133	3	4	2	I	2	0	1211	1	Ⴡ	cut_j_stereo_44KHz.wav
3	134	4	3	2	I	1	0	1182	0	Ⴁ	cut_f_stereo_44KHz.wav
3	135	2	1	0	C	1	1	1142	1	Ⴟ	cut_r_stereo_44KHz.wav
3	136	1	1	1	C	2	1	1698	1	Ⴊ	cut_r_stereo_44KHz.wav
3	137	3	3	2	I	2	0	1353	0	Ⴡ	cut_f_stereo_44KHz.wav
3	138	1	1	1	C	2	1	1834	1	Ⴊ	cut_r_stereo_44KHz.wav
3	139	4	4	2	I	2	0	1293	1	Ⴁ	cut_j_stereo_44KHz.wav
3	140	2	1	0	C	1	1	1229	1	Ⴟ	cut_r_stereo_44KHz.wav
3	141	3	4	2	I	2	0	1500	0	Ⴡ	cut_j_stereo_44KHz.wav
3	142	1	2	0	C	1	1	1857	1	Ⴊ	cut_n_stereo_44KHz.wav
3	143	2	2	1	C	2	1	1144	1	Ⴟ	cut_n_stereo_44KHz.wav
3	144	4	3	2	I	2	0	1162	0	Ⴁ	cut_f_stereo_44KHz.wav
3	145	2	1	0	C	1	1	1344	1	Ⴟ	cut_r_stereo_44KHz.wav
3	146	4	4	2	I	0	0	0	0	Ⴁ	cut_j_stereo_44KHz.wav
3	147	1	2	0	C	1	1	1426	1	Ⴊ	cut_n_stereo_44KHz.wav
3	148	3	4	2	I	1	0	1319	1	Ⴡ	cut_j_stereo_44KHz.wav
3	149	1	1	1	C	2	1	1265	1	Ⴊ	cut_r_stereo_44KHz.wav
3	150	3	3	2	I	2	0	1194	1	Ⴡ	cut_f_stereo_44KHz.wav
3	151	2	2	1	C	2	1	845	1	Ⴟ	cut_n_stereo_44KHz.wav
3	152	4	3	2	I	1	0	1129	0	Ⴁ	cut_f_stereo_44KHz.wav
3	153	3	3	2	I	2	0	804	0	Ⴡ	cut_f_stereo_44KHz.wav
3	154	2	1	0	C	1	1	1304	1	Ⴟ	cut_r_stereo_44KHz.wav
3	155	1	1	1	C	2	1	1334	1	Ⴊ	cut_r_stereo_44KHz.wav
3	156	4	4	2	I	2	0	1029	0	Ⴁ	cut_j_stereo_44KHz.wav
3	157	3	4	2	I	2	0	768	1	Ⴡ	cut_j_stereo_44KHz.wav
3	158	2	2	1	C	1	0	1633	0	Ⴟ	cut_n_stereo_44KHz.wav
3	159	4	3	2	I	2	0	743	0	Ⴁ	cut_f_stereo_44KHz.wav
3	160	1	2	0	C	1	1	1192	1	Ⴊ	cut_n_stereo_44KHz.wav
3	161	3	4	2	I	2	0	781	0	Ⴡ	cut_j_stereo_44KHz.wav
3	162	4	3	2	I	2	0	1318	0	Ⴁ	cut_f_stereo_44KHz.wav
3	163	2	1	0	C	1	1	1499	1	Ⴟ	cut_r_stereo_44KHz.wav
3	164	1	1	1	C	2	1	1440	1	Ⴊ	cut_r_stereo_44KHz.wav
3	165	4	4	2	I	1	0	1387	1	Ⴁ	cut_j_stereo_44KHz.wav
3	166	1	2	0	C	1	1	882	1	Ⴊ	cut_n_stereo_44KHz.wav
3	167	2	2	1	C	2	1	1250	1	Ⴟ	cut_n_stereo_44KHz.wav
3	168	3	3	2	I	2	0	1526	1	Ⴡ	cut_f_stereo_44KHz.wav
3	169	1	1	1	C	2	1	1001	1	Ⴊ	cut_r_stereo_44KHz.wav
3	170	2	2	1	C	2	1	1475	1	Ⴟ	cut_n_stereo_44KHz.wav
3	171	3	4	2	I	2	0	666	1	Ⴡ	cut_j_stereo_44KHz.wav
3	172	4	4	2	I	1	0	1499	0	Ⴁ	cut_j_stereo_44KHz.wav
3	173	3	3	2	I	2	0	1378	1	Ⴡ	cut_f_stereo_44KHz.wav
3	174	1	2	0	C	1	1	1567	1	Ⴊ	cut_n_stereo_44KHz.wav
3	175	2	1	0	C	1	1	1122	1	Ⴟ	cut_r_stereo_44KHz.wav
3	176	4	3	2	I	2	0	1261	0	Ⴁ	cut_f_stereo_44KHz.wav
3	177	2	2	1	C	2	1	1565	1	Ⴟ	cut_n_stereo_44KHz.wav
3	178	3	3	2	I	2	0	1131	0	Ⴡ	cut_f_stereo_44KHz.wav
3	179	4	4	2	I	1	0	1409	1	Ⴁ	cut_j_stereo_44KHz.wav
3	180	1	1	1	C	0	0	0	0	Ⴊ	cut_r_stereo_44KHz.wav
3	181	3	4	2	I	2	0	1066	0	Ⴡ	cut_j_stereo_44KHz.wav
3	182	2	1	0	C	1	1	1451	1	Ⴟ	cut_r_stereo_44KHz.wav
3	183	4	3	2	I	1	0	955	0	Ⴁ	cut_f_stereo_44KHz.wav
3	184	1	2	0	C	1	1	1615	1	Ⴊ	cut_n_stereo_44KHz.wav
3	185	3	4	2	I	2	0	1202	0	Ⴡ	cut_j_stereo_44KHz.wav
3	186	4	4	2	I	1	0	1352	0	Ⴁ	cut_j_stereo_44KHz.wav
3	187	2	1	0	C	1	1	984	1	Ⴟ	cut_r_stereo_44KHz.wav
3	188	1	1	1	C	2	1	1424	1	Ⴊ	cut_r_stereo_44KHz.wav
3	189	2	2	1	C	2	1	1183	1	Ⴟ	cut_n_stereo_44KHz.wav
3	190	3	3	2	I	2	0	1396	0	Ⴡ	cut_f_stereo_44KHz.wav
3	191	1	2	0	C	0	0	0	0	Ⴊ	cut_n_stereo_44KHz.wav
3	192	4	3	2	I	2	0	988	0	Ⴁ	cut_f_stereo_44KHz.wav
3	193	2	1	0	C	1	1	683	1	Ⴟ	cut_r_stereo_44KHz.wav
3	194	3	4	2	I	2	0	871	0	Ⴡ	cut_j_stereo_44KHz.wav
3	195	1	2	0	C	1	1	1060	1	Ⴊ	cut_n_stereo_44KHz.wav
3	196	4	3	2	I	2	0	1206	0	Ⴁ	cut_f_stereo_44KHz.wav
3	197	3	3	2	I	1	0	1147	0	Ⴡ	cut_f_stereo_44KHz.wav
3	198	2	2	1	C	2	1	862	1	Ⴟ	cut_n_stereo_44KHz.wav
3	199	1	1	1	C	2	1	1288	1	Ⴊ	cut_r_stereo_44KHz.wav
3	200	4	4	2	I	1	0	1564	0	Ⴁ	cut_j_stereo_44KHz.wav
4	1	2	1	0	C	1	1	1623	1	Ⴔ	cut_g_stereo_44KHz.wav
4	2	4	4	2	I	2	0	1185	0	Ⴖ	cut_h_stereo_44KHz.wav
4	3	1	2	0	C	2	0	934	0	Ⴒ	cut_w_stereo_44KHz.wav
4	4	3	4	2	I	2	0	1177	0	Ⴕ	cut_h_stereo_44KHz.wav
4	5	1	1	1	C	1	0	1115	0	Ⴒ	cut_g_stereo_44KHz.wav
4	6	2	2	1	C	1	0	634	0	Ⴔ	cut_w_stereo_44KHz.wav
4	7	3	3	2	I	1	0	1019	0	Ⴕ	cut_l_stereo_44KHz.wav
4	8	4	3	2	I	2	0	894	0	Ⴖ	cut_l_stereo_44KHz.wav
4	9	1	2	0	C	1	1	872	1	Ⴒ	cut_w_stereo_44KHz.wav
4	10	2	1	0	C	1	1	685	1	Ⴔ	cut_g_stereo_44KHz.wav
4	11	3	4	2	I	2	0	890	0	Ⴕ	cut_h_stereo_44KHz.wav
4	12	4	3	2	I	1	0	974	0	Ⴖ	cut_l_stereo_44KHz.wav
4	13	1	1	1	C	1	0	1123	0	Ⴒ	cut_g_stereo_44KHz.wav
4	14	3	3	2	I	1	0	1115	0	Ⴕ	cut_l_stereo_44KHz.wav
4	15	4	4	2	I	1	0	944	1	Ⴖ	cut_h_stereo_44KHz.wav
4	16	2	2	1	C	2	1	1177	1	Ⴔ	cut_w_stereo_44KHz.wav
4	17	3	4	2	I	1	0	1251	1	Ⴕ	cut_h_stereo_44KHz.wav
4	18	1	2	0	C	1	1	1180	1	Ⴒ	cut_w_stereo_44KHz.wav
4	19	4	3	2	I	2	0	1372	0	Ⴖ	cut_l_stereo_44KHz.wav
4	20	2	2	1	C	2	1	1371	1	Ⴔ	cut_w_stereo_44KHz.wav
4	21	1	1	1	C	1	0	1156	0	Ⴒ	cut_g_stereo_44KHz.wav
4	22	2	1	0	C	1	1	1042	1	Ⴔ	cut_g_stereo_44KHz.wav
4	23	3	3	2	I	1	0	1032	1	Ⴕ	cut_l_stereo_44KHz.wav
4	24	4	4	2	I	1	0	1193	1	Ⴖ	cut_h_stereo_44KHz.wav
4	25	2	1	0	C	1	1	1015	1	Ⴔ	cut_g_stereo_44KHz.wav
4	26	4	4	2	I	1	0	863	1	Ⴖ	cut_h_stereo_44KHz.wav
4	27	3	4	2	I	1	0	903	0	Ⴕ	cut_h_stereo_44KHz.wav
4	28	1	1	1	C	2	1	1736	1	Ⴒ	cut_g_stereo_44KHz.wav
4	29	4	3	2	I	1	0	1311	0	Ⴖ	cut_l_stereo_44KHz.wav
4	30	2	2	1	C	2	1	1416	1	Ⴔ	cut_w_stereo_44KHz.wav
4	31	1	2	0	C	1	1	1364	1	Ⴒ	cut_w_stereo_44KHz.wav
4	32	3	3	2	I	2	0	1625	0	Ⴕ	cut_l_stereo_44KHz.wav
4	33	4	3	2	I	2	0	1331	1	Ⴖ	cut_l_stereo_44KHz.wav
4	34	3	4	2	I	1	0	830	0	Ⴕ	cut_h_stereo_44KHz.wav
4	35	2	2	1	C	2	1	1427	1	Ⴔ	cut_w_stereo_44KHz.wav
4	36	1	1	1	C	2	1	1015	1	Ⴒ	cut_g_stereo_44KHz.wav
4	37	3	3	2	I	2	0	1007	0	Ⴕ	cut_l_stereo_44KHz.wav
4	38	1	2	0	C	1	1	1534	1	Ⴒ	cut_w_stereo_44KHz.wav
4	39	2	1	0	C	1	1	1506	1	Ⴔ	cut_g_stereo_44KHz.wav
4	40	4	4	2	I	1	0	1276	1	Ⴖ	cut_h_stereo_44KHz.wav
4	41	1	1	1	C	1	0	882	0	Ⴒ	cut_g_stereo_44KHz.wav
4	42	2	1	0	C	1	1	629	1	Ⴔ	cut_g_stereo_44KHz.wav
4	43	4	3	2	I	2	0	837	0	Ⴖ	cut_l_stereo_44KHz.wav
4	44	3	3	2	I	2	0	1079	0	Ⴕ	cut_l_stereo_44KHz.wav
4	45	4	4	2	I	1	0	733	1	Ⴖ	cut_h_stereo_44KHz.wav
4	46	1	2	0	C	1	1	950	1	Ⴒ	cut_w_stereo_44KHz.wav
4	47	3	4	2	I	1	0	1067	0	Ⴕ	cut_h_stereo_44KHz.wav
4	48	2	2	1	C	2	1	1127	1	Ⴔ	cut_w_stereo_44KHz.wav
4	49	3	3	2	I	1	0	1158	0	Ⴕ	cut_l_stereo_44KHz.wav
4	50	1	2	0	C	1	1	1292	1	Ⴒ	cut_w_stereo_44KHz.wav
4	51	2	2	1	C	2	1	1736	1	Ⴔ	cut_w_stereo_44KHz.wav
4	52	4	3	2	I	2	0	1980	0	Ⴖ	cut_l_stereo_44KHz.wav
4	53	2	1	0	C	1	1	1264	1	Ⴔ	cut_g_stereo_44KHz.wav
4	54	3	4	2	I	1	0	871	0	Ⴕ	cut_h_stereo_44KHz.wav
4	55	1	1	1	C	2	1	1218	1	Ⴒ	cut_g_stereo_44KHz.wav
4	56	4	4	2	I	1	0	1186	0	Ⴖ	cut_h_stereo_44KHz.wav
4	57	2	1	0	C	1	1	643	1	Ⴔ	cut_g_stereo_44KHz.wav
4	58	1	2	0	C	2	0	1815	0	Ⴒ	cut_w_stereo_44KHz.wav
4	59	4	4	2	I	2	0	1028	1	Ⴖ	cut_h_stereo_44KHz.wav
4	60	3	3	2	I	2	0	1438	1	Ⴕ	cut_l_stereo_44KHz.wav
4	61	1	1	1	C	2	1	1039	1	Ⴒ	cut_g_stereo_44KHz.wav
4	62	2	2	1	C	2	1	1565	1	Ⴔ	cut_w_stereo_44KHz.wav
4	63	3	4	2	I	2	0	1035	1	Ⴕ	cut_h_stereo_44KHz.wav
4	64	4	3	2	I	2	0	1067	1	Ⴖ	cut_l_stereo_44KHz.wav
4	65	2	2	1	C	2	1	1895	1	Ⴔ	cut_w_stereo_44KHz.wav
4	66	3	4	2	I	2	0	948	1	Ⴕ	cut_h_stereo_44KHz.wav
4	67	1	1	1	C	0	0	0	0	Ⴒ	cut_g_stereo_44KHz.wav
4	68	4	3	2	I	2	0	976	0	Ⴖ	cut_l_stereo_44KHz.wav
4	69	1	2	0	C	1	1	1549	1	Ⴒ	cut_w_stereo_44KHz.wav
4	70	3	3	2	I	1	0	1007	1	Ⴕ	cut_l_stereo_44KHz.wav
4	71	2	1	0	C	1	1	829	1	Ⴔ	cut_g_stereo_44KHz.wav
4	72	4	4	2	I	1	0	1116	0	Ⴖ	cut_h_stereo_44KHz.wav
4	73	2	1	0	C	1	1	858	1	Ⴔ	cut_g_stereo_44KHz.wav
4	74	4	3	2	I	1	0	1324	1	Ⴖ	cut_l_stereo_44KHz.wav
4	75	3	4	2	I	1	0	971	1	Ⴕ	cut_h_stereo_44KHz.wav
4	76	1	2	0	C	0	0	0	0	Ⴒ	cut_w_stereo_44KHz.wav
4	77	4	4	2	I	1	0	1384	0	Ⴖ	cut_h_stereo_44KHz.wav
4	78	2	2	1	C	2	1	1815	1	Ⴔ	cut_w_stereo_44KHz.wav
4	79	1	1	1	C	2	1	1605	1	Ⴒ	cut_g_stereo_44KHz.wav
4	80	3	3	2	I	1	0	1509	1	Ⴕ	cut_l_stereo_44KHz.wav
4	81	1	2	0	C	1	1	1110	1	Ⴒ	cut_w_stereo_44KHz.wav
4	82	4	3	2	I	2	0	1545	0	Ⴖ	cut_l_stereo_44KHz.wav
4	83	3	3	2	I	1	0	1565	1	Ⴕ	cut_l_stereo_44KHz.wav
4	84	2	2	1	C	2	1	1251	1	Ⴔ	cut_w_stereo_44KHz.wav
4	85	1	1	1	C	2	1	1241	1	Ⴒ	cut_g_stereo_44KHz.wav
4	86	3	4	2	I	2	0	1258	0	Ⴕ	cut_h_stereo_44KHz.wav
4	87	4	4	2	I	1	0	687	0	Ⴖ	cut_h_stereo_44KHz.wav
4	88	2	1	0	C	1	1	746	1	Ⴔ	cut_g_stereo_44KHz.wav
4	89	1	1	1	C	2	1	861	1	Ⴒ	cut_g_stereo_44KHz.wav
4	90	4	4	2	I	1	0	755	1	Ⴖ	cut_h_stereo_44KHz.wav
4	91	2	1	0	C	1	1	1003	1	Ⴔ	cut_g_stereo_44KHz.wav
4	92	3	3	2	I	1	0	1393	0	Ⴕ	cut_l_stereo_44KHz.wav
4	93	1	2	0	C	1	1	825	1	Ⴒ	cut_w_stereo_44KHz.wav
4	94	4	3	2	I	1	0	1058	0	Ⴖ	cut_l_stereo_44KHz.wav
4	95	3	4	2	I	2	0	895	1	Ⴕ	cut_h_stereo_44KHz.wav
4	96	2	2	1	C	2	1	1024	1	Ⴔ	cut_w_stereo_44KHz.wav
4	97	1	1	1	C	2	1	1101	1	Ⴒ	cut_g_stereo_44KHz.wav
4	98	4	4	2	I	1	0	946	0	Ⴖ	cut_h_stereo_44KHz.wav
4	99	2	2	1	C	2	1	770	1	Ⴔ	cut_w_stereo_44KHz.wav
4	100	3	3	2	I	1	0	938	0	Ⴕ	cut_l_stereo_44KHz.wav
4	101	4	3	2	I	1	0	1216	1	Ⴖ	cut_l_stereo_44KHz.wav
4	102	2	1	0	C	1	1	1011	1	Ⴔ	cut_g_stereo_44KHz.wav
4	103	3	4	2	I	2	0	812	1	Ⴕ	cut_h_stereo_44KHz.wav
4	104	1	2	0	C	1	1	1186	1	Ⴒ	cut_w_stereo_44KHz.wav
4	105	2	2	1	C	2	1	1106	1	Ⴔ	cut_w_stereo_44KHz.wav
4	106	1	1	1	C	1	0	1439	0	Ⴒ	cut_g_stereo_44KHz.wav
4	107	3	3	2	I	2	0	941	1	Ⴕ	cut_l_stereo_44KHz.wav
4	108	4	3	2	I	2	0	663	0	Ⴖ	cut_l_stereo_44KHz.wav
4	109	2	1	0	C	1	1	899	1	Ⴔ	cut_g_stereo_44KHz.wav
4	110	1	2	0	C	1	1	733	1	Ⴒ	cut_w_stereo_44KHz.wav
4	111	3	4	2	I	1	0	688	0	Ⴕ	cut_h_stereo_44KHz.wav
4	112	4	4	2	I	1	0	889	0	Ⴖ	cut_h_stereo_44KHz.wav
4	113	3	3	2	I	2	0	1118	1	Ⴕ	cut_l_stereo_44KHz.wav
4	114	2	1	0	C	1	1	1052	1	Ⴔ	cut_g_stereo_44KHz.wav
4	115	1	2	0	C	2	0	984	0	Ⴒ	cut_w_stereo_44KHz.wav
4	116	4	4	2	I	2	0	991	1	Ⴖ	cut_h_stereo_44KHz.wav
4	117	2	2	1	C	2	1	964	1	Ⴔ	cut_w_stereo_44KHz.wav
4	118	3	4	2	I	2	0	670	0	Ⴕ	cut_h_stereo_44KHz.wav
4	119	1	1	1	C	2	1	1058	1	Ⴒ	cut_g_stereo_44KHz.wav
4	120	4	3	2	I	2	0	963	1	Ⴖ	cut_l_stereo_44KHz.wav
4	121	3	4	2	I	1	0	831	1	Ⴕ	cut_h_stereo_44KHz.wav
4	122	2	2	1	C	2	1	1284	1	Ⴔ	cut_w_stereo_44KHz.wav
4	123	4	4	2	I	1	0	960	0	Ⴖ	cut_h_stereo_44KHz.wav
4	124	1	2	0	C	1	1	842	1	Ⴒ	cut_w_stereo_44KHz.wav
4	125	2	1	0	C	1	1	1077	1	Ⴔ	cut_g_stereo_44KHz.wav
4	126	1	1	1	C	2	1	813	1	Ⴒ	cut_g_stereo_44KHz.wav
4	127	4	3	2	I	2	0	1043	0	Ⴖ	cut_l_stereo_44KHz.wav
4	128	3	3	2	I	2	0	1485	0	Ⴕ	cut_l_stereo_44KHz.wav
4	129	4	4	2	I	1	0	1212	0	Ⴖ	cut_h_stereo_44KHz.wav
4	130	1	2	0	C	1	1	847	1	Ⴒ	cut_w_stereo_44KHz.wav
4	131	2	1	0	C	1	1	792	1	Ⴔ	cut_g_stereo_44KHz.wav
4	132	3	3	2	I	2	0	1027	1	Ⴕ	cut_l_stereo_44KHz.wav
4	133	2	2	1	C	1	0	718	0	Ⴔ	cut_w_stereo_44KHz.wav
4	134	3	4	2	I	2	0	965	1	Ⴕ	cut_h_stereo_44KHz.wav
4	135	4	3	2	I	1	0	1498	1	Ⴖ	cut_l_stereo_44KHz.wav
4	136	1	1	1	C	2	1	957	1	Ⴒ	cut_g_stereo_44KHz.wav
4	137	2	1	0	C	1	1	1128	1	Ⴔ	cut_g_stereo_44KHz.wav
4	138	1	2	0	C	1	1	1023	1	Ⴒ	cut_w_stereo_44KHz.wav
4	139	3	3	2	I	2	0	1389	1	Ⴕ	cut_l_stereo_44KHz.wav
4	140	4	3	2	I	2	0	1293	1	Ⴖ	cut_l_stereo_44KHz.wav
4	141	2	2	1	C	2	1	1432	1	Ⴔ	cut_w_stereo_44KHz.wav
4	142	1	1	1	C	2	1	1930	1	Ⴒ	cut_g_stereo_44KHz.wav
4	143	4	4	2	I	1	0	1241	0	Ⴖ	cut_h_stereo_44KHz.wav
4	144	3	4	2	I	2	0	1682	0	Ⴕ	cut_h_stereo_44KHz.wav
4	145	1	1	1	C	2	1	1797	1	Ⴒ	cut_g_stereo_44KHz.wav
4	146	2	1	0	C	1	1	1175	1	Ⴔ	cut_g_stereo_44KHz.wav
4	147	4	4	2	I	2	0	1279	0	Ⴖ	cut_h_stereo_44KHz.wav
4	148	3	3	2	I	2	0	1556	1	Ⴕ	cut_l_stereo_44KHz.wav
4	149	4	3	2	I	2	0	1153	1	Ⴖ	cut_l_stereo_44KHz.wav
4	150	3	4	2	I	1	0	1184	0	Ⴕ	cut_h_stereo_44KHz.wav
4	151	2	2	1	C	2	1	1348	1	Ⴔ	cut_w_stereo_44KHz.wav
4	152	1	2	0	C	1	1	1567	1	Ⴒ	cut_w_stereo_44KHz.wav
4	153	2	2	1	C	0	0	0	0	Ⴔ	cut_w_stereo_44KHz.wav
4	154	4	3	2	I	1	0	1461	1	Ⴖ	cut_l_stereo_44KHz.wav
4	155	3	4	2	I	1	0	1896	0	Ⴕ	cut_h_stereo_44KHz.wav
4	156	1	2	0	C	1	1	1606	1	Ⴒ	cut_w_stereo_44KHz.wav
4	157	2	1	0	C	1	1	798	1	Ⴔ	cut_g_stereo_44KHz.wav
4	158	4	4	2	I	2	0	1092	0	Ⴖ	cut_h_stereo_44KHz.wav
4	159	3	3	2	I	2	0	1163	0	Ⴕ	cut_l_stereo_44KHz.wav
4	160	1	1	1	C	1	0	686	0	Ⴒ	cut_g_stereo_44KHz.wav
4	161	2	2	1	C	2	1	851	1	Ⴔ	cut_w_stereo_44KHz.wav
4	162	4	4	2	I	1	0	788	1	Ⴖ	cut_h_stereo_44KHz.wav
4	163	1	1	1	C	2	1	917	1	Ⴒ	cut_g_stereo_44KHz.wav
4	164	3	4	2	I	1	0	827	0	Ⴕ	cut_h_stereo_44KHz.wav
4	165	2	1	0	C	1	1	626	1	Ⴔ	cut_g_stereo_44KHz.wav
4	166	3	3	2	I	2	0	707	1	Ⴕ	cut_l_stereo_44KHz.wav
4	167	4	3	2	I	2	0	693	1	Ⴖ	cut_l_stereo_44KHz.wav
4	168	1	2	0	C	1	1	864	1	Ⴒ	cut_w_stereo_44KHz.wav
4	169	2	2	1	C	0	0	0	0	Ⴔ	cut_w_stereo_44KHz.wav
4	170	4	4	2	I	1	0	1166	1	Ⴖ	cut_h_stereo_44KHz.wav
4	171	3	3	2	I	2	0	1102	0	Ⴕ	cut_l_stereo_44KHz.wav
4	172	1	1	1	C	2	1	840	1	Ⴒ	cut_g_stereo_44KHz.wav
4	173	3	4	2	I	1	0	1249	1	Ⴕ	cut_h_stereo_44KHz.wav
4	174	2	1	0	C	1	1	782	1	Ⴔ	cut_g_stereo_44KHz.wav
4	175	1	2	0	C	1	1	1395	1	Ⴒ	cut_w_stereo_44KHz.wav
4	176	4	3	2	I	2	0	840	1	Ⴖ	cut_l_stereo_44KHz.wav
4	177	1	2	0	C	1	1	715	1	Ⴒ	cut_w_stereo_44KHz.wav
4	178	4	4	2	I	1	0	1223	1	Ⴖ	cut_h_stereo_44KHz.wav
4	179	3	3	2	I	2	0	756	0	Ⴕ	cut_l_stereo_44KHz.wav
4	180	2	2	1	C	2	1	1385	1	Ⴔ	cut_w_stereo_44KHz.wav
4	181	4	3	2	I	1	0	1110	0	Ⴖ	cut_l_stereo_44KHz.wav
4	182	1	1	1	C	2	1	883	1	Ⴒ	cut_g_stereo_44KHz.wav
4	183	2	1	0	C	1	1	753	1	Ⴔ	cut_g_stereo_44KHz.wav
4	184	3	4	2	I	2	0	923	1	Ⴕ	cut_h_stereo_44KHz.wav
4	185	4	4	2	I	1	0	657	1	Ⴖ	cut_h_stereo_44KHz.wav
4	186	2	2	1	C	2	1	915	1	Ⴔ	cut_w_stereo_44KHz.wav
4	187	1	2	0	C	1	1	1230	1	Ⴒ	cut_w_stereo_44KHz.wav
4	188	3	3	2	I	2	0	787	1	Ⴕ	cut_l_stereo_44KHz.wav
4	189	4	3	2	I	2	0	651	0	Ⴖ	cut_l_stereo_44KHz.wav
4	190	1	1	1	C	1	0	1665	0	Ⴒ	cut_g_stereo_44KHz.wav
4	191	3	4	2	I	2	0	1079	1	Ⴕ	cut_h_stereo_44KHz.wav
4	192	2	1	0	C	1	1	737	1	Ⴔ	cut_g_stereo_44KHz.wav
4	193	3	4	2	I	2	0	825	1	Ⴕ	cut_h_stereo_44KHz.wav
4	194	2	2	1	C	2	1	1010	1	Ⴔ	cut_w_stereo_44KHz.wav
4	195	4	4	2	I	2	0	858	1	Ⴖ	cut_h_stereo_44KHz.wav
4	196	1	2	0	C	1	1	1157	1	Ⴒ	cut_w_stereo_44KHz.wav
4	197	4	3	2	I	2	0	777	1	Ⴖ	cut_l_stereo_44KHz.wav
4	198	2	1	0	C	1	1	569	1	Ⴔ	cut_g_stereo_44KHz.wav
4	199	3	3	2	I	2	0	1407	1	Ⴕ	cut_l_stereo_44KHz.wav
4	200	1	1	1	C	2	1	962	1	Ⴒ	cut_g_stereo_44KHz.wav
