block	trial	Vstim	Astim	match	C/I	resp	result	RT	fb	V-file	A-file
RL

0	1	2	3	1	C	2	0	1213	0	poli_8sides 22_whiteLine3.jpg	Practice1_b27_cut1_stereo_44KHz.wav
0	2	1	1	1	C	1	1	1438	1	poli_8sides 24_whiteLine3.jpg	Practice2_b27_cut2_stereo_44KHz.wav
0	3	1	2	0	C	1	0	1430	0	poli_8sides 24_whiteLine3.jpg	Practice3_b26_cut1_stereo_44KHz.wav
0	4	2	4	0	C	1	0	1208	0	poli_8sides 22_whiteLine3.jpg	Practice4_b26_stereo_44KHz.wav
0	5	1	2	0	C	1	0	997	0	poli_8sides 24_whiteLine3.jpg	Practice3_b26_cut1_stereo_44KHz.wav
0	6	2	4	0	C	2	1	1059	1	poli_8sides 22_whiteLine3.jpg	Practice4_b26_stereo_44KHz.wav
0	7	1	1	1	C	1	1	989	1	poli_8sides 24_whiteLine3.jpg	Practice2_b27_cut2_stereo_44KHz.wav
0	8	2	3	1	C	1	1	1369	1	poli_8sides 22_whiteLine3.jpg	Practice1_b27_cut1_stereo_44KHz.wav
0	9	2	4	0	C	2	1	842	1	poli_8sides 22_whiteLine3.jpg	Practice4_b26_stereo_44KHz.wav
0	10	1	2	0	C	2	1	932	1	poli_8sides 24_whiteLine3.jpg	Practice3_b26_cut1_stereo_44KHz.wav
0	11	2	3	1	C	2	0	923	0	poli_8sides 22_whiteLine3.jpg	Practice1_b27_cut1_stereo_44KHz.wav
0	12	1	1	1	C	2	0	1073	0	poli_8sides 24_whiteLine3.jpg	Practice2_b27_cut2_stereo_44KHz.wav
0	13	1	2	0	C	2	1	965	1	poli_8sides 24_whiteLine3.jpg	Practice3_b26_cut1_stereo_44KHz.wav
0	14	2	3	1	C	2	0	599	0	poli_8sides 22_whiteLine3.jpg	Practice1_b27_cut1_stereo_44KHz.wav
0	15	2	4	0	C	1	0	787	0	poli_8sides 22_whiteLine3.jpg	Practice4_b26_stereo_44KHz.wav
0	16	1	1	1	C	2	0	850	0	poli_8sides 24_whiteLine3.jpg	Practice2_b27_cut2_stereo_44KHz.wav
0	17	1	1	1	C	2	0	1346	0	poli_8sides 24_whiteLine3.jpg	Practice2_b27_cut2_stereo_44KHz.wav
0	18	2	3	1	C	2	0	715	0	poli_8sides 22_whiteLine3.jpg	Practice1_b27_cut1_stereo_44KHz.wav
0	19	2	4	0	C	2	1	883	1	poli_8sides 22_whiteLine3.jpg	Practice4_b26_stereo_44KHz.wav
0	20	1	2	0	C	2	1	1047	1	poli_8sides 24_whiteLine3.jpg	Practice3_b26_cut1_stereo_44KHz.wav
0	21	2	3	1	C	1	1	839	1	poli_8sides 22_whiteLine3.jpg	Practice1_b27_cut1_stereo_44KHz.wav
0	22	1	1	1	C	1	1	1258	1	poli_8sides 24_whiteLine3.jpg	Practice2_b27_cut2_stereo_44KHz.wav
0	23	2	4	0	C	2	1	854	1	poli_8sides 22_whiteLine3.jpg	Practice4_b26_stereo_44KHz.wav
0	24	1	2	0	C	2	1	1584	1	poli_8sides 24_whiteLine3.jpg	Practice3_b26_cut1_stereo_44KHz.wav
0	25	1	2	0	C	1	0	1204	0	poli_8sides 24_whiteLine3.jpg	Practice3_b26_cut1_stereo_44KHz.wav
0	26	2	4	0	C	2	1	1246	1	poli_8sides 22_whiteLine3.jpg	Practice4_b26_stereo_44KHz.wav
0	27	2	3	1	C	1	1	983	1	poli_8sides 22_whiteLine3.jpg	Practice1_b27_cut1_stereo_44KHz.wav
0	28	1	1	1	C	2	0	916	0	poli_8sides 24_whiteLine3.jpg	Practice2_b27_cut2_stereo_44KHz.wav
0	29	2	4	0	C	2	1	742	1	poli_8sides 22_whiteLine3.jpg	Practice4_b26_stereo_44KHz.wav
0	30	1	2	0	C	2	1	1014	1	poli_8sides 24_whiteLine3.jpg	Practice3_b26_cut1_stereo_44KHz.wav
avg_resp = 1061
1	1	3	3	2	I	1	0	1398	0	poli_8sides 4_whiteLine3.jpg	Short_b23_cut1_stereo_44KHz.wav
1	2	2	2	1	C	2	0	1005	0	poli_8sides 11_whiteLine3.jpg	Short_b22_cut1_stereo_44KHz.wav
1	3	4	3	2	I	1	0	1181	1	poli_8sides 2_whiteLine3.jpg	Short_b23_cut1_stereo_44KHz.wav
1	4	1	2	0	C	2	1	1015	1	poli_8sides 1_whiteLine3.jpg	Short_b22_cut1_stereo_44KHz.wav
1	5	4	4	2	I	2	0	1356	0	poli_8sides 2_whiteLine3.jpg	Short_b20_cut1_stereo_44KHz.wav
1	6	2	1	0	C	1	0	996	0	poli_8sides 11_whiteLine3.jpg	Short_b09_cut1_stereo_44KHz.wav
1	7	3	4	2	I	2	0	872	0	poli_8sides 4_whiteLine3.jpg	Short_b20_cut1_stereo_44KHz.wav
1	8	1	1	1	C	2	0	798	0	poli_8sides 1_whiteLine3.jpg	Short_b09_cut1_stereo_44KHz.wav
1	9	4	3	2	I	2	0	840	1	poli_8sides 2_whiteLine3.jpg	Short_b23_cut1_stereo_44KHz.wav
1	10	1	2	0	C	1	0	965	0	poli_8sides 1_whiteLine3.jpg	Short_b22_cut1_stereo_44KHz.wav
1	11	2	2	1	C	2	0	666	0	poli_8sides 11_whiteLine3.jpg	Short_b22_cut1_stereo_44KHz.wav
1	12	3	4	2	I	2	0	716	0	poli_8sides 4_whiteLine3.jpg	Short_b20_cut1_stereo_44KHz.wav
1	13	2	1	0	C	2	1	758	1	poli_8sides 11_whiteLine3.jpg	Short_b09_cut1_stereo_44KHz.wav
1	14	4	4	2	I	1	0	822	1	poli_8sides 2_whiteLine3.jpg	Short_b20_cut1_stereo_44KHz.wav
1	15	1	1	1	C	1	1	573	1	poli_8sides 1_whiteLine3.jpg	Short_b09_cut1_stereo_44KHz.wav
1	16	3	3	2	I	2	0	1121	1	poli_8sides 4_whiteLine3.jpg	Short_b23_cut1_stereo_44KHz.wav
1	17	4	3	2	I	1	0	909	1	poli_8sides 2_whiteLine3.jpg	Short_b23_cut1_stereo_44KHz.wav
1	18	2	2	1	C	2	0	595	0	poli_8sides 11_whiteLine3.jpg	Short_b22_cut1_stereo_44KHz.wav
1	19	3	4	2	I	1	0	433	1	poli_8sides 4_whiteLine3.jpg	Short_b20_cut1_stereo_44KHz.wav
1	20	1	1	1	C	2	0	670	0	poli_8sides 1_whiteLine3.jpg	Short_b09_cut1_stereo_44KHz.wav
1	21	4	4	2	I	2	0	953	1	poli_8sides 2_whiteLine3.jpg	Short_b20_cut1_stereo_44KHz.wav
1	22	1	2	0	C	1	0	847	0	poli_8sides 1_whiteLine3.jpg	Short_b22_cut1_stereo_44KHz.wav
1	23	3	3	2	I	1	0	410	0	poli_8sides 4_whiteLine3.jpg	Short_b23_cut1_stereo_44KHz.wav
1	24	2	1	0	C	2	1	669	1	poli_8sides 11_whiteLine3.jpg	Short_b09_cut1_stereo_44KHz.wav
1	25	4	4	2	I	1	0	458	0	poli_8sides 2_whiteLine3.jpg	Short_b20_cut1_stereo_44KHz.wav
1	26	1	2	0	C	1	0	741	0	poli_8sides 1_whiteLine3.jpg	Short_b22_cut1_stereo_44KHz.wav
1	27	3	4	2	I	2	0	428	0	poli_8sides 4_whiteLine3.jpg	Short_b20_cut1_stereo_44KHz.wav
1	28	2	2	1	C	2	0	675	0	poli_8sides 11_whiteLine3.jpg	Short_b22_cut1_stereo_44KHz.wav
1	29	1	1	1	C	2	0	573	0	poli_8sides 1_whiteLine3.jpg	Short_b09_cut1_stereo_44KHz.wav
1	30	3	3	2	I	2	0	406	1	poli_8sides 4_whiteLine3.jpg	Short_b23_cut1_stereo_44KHz.wav
1	31	2	1	0	C	1	0	603	0	poli_8sides 11_whiteLine3.jpg	Short_b09_cut1_stereo_44KHz.wav
1	32	4	3	2	I	2	0	642	1	poli_8sides 2_whiteLine3.jpg	Short_b23_cut1_stereo_44KHz.wav
1	33	1	1	1	C	2	0	822	0	poli_8sides 1_whiteLine3.jpg	Short_b09_cut1_stereo_44KHz.wav
1	34	4	3	2	I	2	0	498	1	poli_8sides 2_whiteLine3.jpg	Short_b23_cut1_stereo_44KHz.wav
1	35	3	3	2	I	2	0	494	1	poli_8sides 4_whiteLine3.jpg	Short_b23_cut1_stereo_44KHz.wav
1	36	2	1	0	C	1	0	713	0	poli_8sides 11_whiteLine3.jpg	Short_b09_cut1_stereo_44KHz.wav
1	37	4	4	2	I	2	0	588	1	poli_8sides 2_whiteLine3.jpg	Short_b20_cut1_stereo_44KHz.wav
1	38	2	2	1	C	1	1	957	1	poli_8sides 11_whiteLine3.jpg	Short_b22_cut1_stereo_44KHz.wav
1	39	3	4	2	I	2	0	466	0	poli_8sides 4_whiteLine3.jpg	Short_b20_cut1_stereo_44KHz.wav
1	40	1	2	0	C	1	0	464	0	poli_8sides 1_whiteLine3.jpg	Short_b22_cut1_stereo_44KHz.wav
1	41	3	3	2	I	2	0	329	1	poli_8sides 4_whiteLine3.jpg	Short_b23_cut1_stereo_44KHz.wav
1	42	1	2	0	C	1	0	482	0	poli_8sides 1_whiteLine3.jpg	Short_b22_cut1_stereo_44KHz.wav
1	43	4	3	2	I	2	0	680	0	poli_8sides 2_whiteLine3.jpg	Short_b23_cut1_stereo_44KHz.wav
1	44	2	1	0	C	1	0	649	0	poli_8sides 11_whiteLine3.jpg	Short_b09_cut1_stereo_44KHz.wav
1	45	4	4	2	I	2	0	589	0	poli_8sides 2_whiteLine3.jpg	Short_b20_cut1_stereo_44KHz.wav
1	46	1	1	1	C	1	1	332	1	poli_8sides 1_whiteLine3.jpg	Short_b09_cut1_stereo_44KHz.wav
1	47	2	2	1	C	2	0	697	0	poli_8sides 11_whiteLine3.jpg	Short_b22_cut1_stereo_44KHz.wav
1	48	3	4	2	I	1	0	780	0	poli_8sides 4_whiteLine3.jpg	Short_b20_cut1_stereo_44KHz.wav
1	49	2	1	0	C	1	0	745	0	poli_8sides 11_whiteLine3.jpg	Short_b09_cut1_stereo_44KHz.wav
1	50	1	1	1	C	2	0	686	0	poli_8sides 1_whiteLine3.jpg	Short_b09_cut1_stereo_44KHz.wav
1	51	3	4	2	I	1	0	1014	0	poli_8sides 4_whiteLine3.jpg	Short_b20_cut1_stereo_44KHz.wav
1	52	4	3	2	I	2	0	688	1	poli_8sides 2_whiteLine3.jpg	Short_b23_cut1_stereo_44KHz.wav
1	53	2	2	1	C	2	0	752	0	poli_8sides 11_whiteLine3.jpg	Short_b22_cut1_stereo_44KHz.wav
1	54	1	2	0	C	2	1	839	1	poli_8sides 1_whiteLine3.jpg	Short_b22_cut1_stereo_44KHz.wav
1	55	4	4	2	I	2	0	831	0	poli_8sides 2_whiteLine3.jpg	Short_b20_cut1_stereo_44KHz.wav
1	56	3	3	2	I	2	0	969	1	poli_8sides 4_whiteLine3.jpg	Short_b23_cut1_stereo_44KHz.wav
1	57	4	4	2	I	2	0	905	0	poli_8sides 2_whiteLine3.jpg	Short_b20_cut1_stereo_44KHz.wav
1	58	3	4	2	I	2	0	808	1	poli_8sides 4_whiteLine3.jpg	Short_b20_cut1_stereo_44KHz.wav
1	59	2	1	0	C	2	1	771	1	poli_8sides 11_whiteLine3.jpg	Short_b09_cut1_stereo_44KHz.wav
1	60	1	1	1	C	2	0	671	0	poli_8sides 1_whiteLine3.jpg	Short_b09_cut1_stereo_44KHz.wav
1	61	2	2	1	C	2	0	785	0	poli_8sides 11_whiteLine3.jpg	Short_b22_cut1_stereo_44KHz.wav
1	62	4	3	2	I	2	0	549	0	poli_8sides 2_whiteLine3.jpg	Short_b23_cut1_stereo_44KHz.wav
1	63	3	3	2	I	2	0	902	1	poli_8sides 4_whiteLine3.jpg	Short_b23_cut1_stereo_44KHz.wav
1	64	1	2	0	C	1	0	602	0	poli_8sides 1_whiteLine3.jpg	Short_b22_cut1_stereo_44KHz.wav
1	65	3	3	2	I	2	0	573	1	poli_8sides 4_whiteLine3.jpg	Short_b23_cut1_stereo_44KHz.wav
1	66	2	2	1	C	2	0	443	0	poli_8sides 11_whiteLine3.jpg	Short_b22_cut1_stereo_44KHz.wav
1	67	1	1	1	C	2	0	601	0	poli_8sides 1_whiteLine3.jpg	Short_b09_cut1_stereo_44KHz.wav
1	68	4	4	2	I	2	0	816	1	poli_8sides 2_whiteLine3.jpg	Short_b20_cut1_stereo_44KHz.wav
1	69	1	2	0	C	2	1	905	1	poli_8sides 1_whiteLine3.jpg	Short_b22_cut1_stereo_44KHz.wav
1	70	3	4	2	I	2	0	567	0	poli_8sides 4_whiteLine3.jpg	Short_b20_cut1_stereo_44KHz.wav
1	71	4	3	2	I	2	0	403	0	poli_8sides 2_whiteLine3.jpg	Short_b23_cut1_stereo_44KHz.wav
1	72	2	1	0	C	2	1	712	1	poli_8sides 11_whiteLine3.jpg	Short_b09_cut1_stereo_44KHz.wav
1	73	1	2	0	C	2	1	654	1	poli_8sides 1_whiteLine3.jpg	Short_b22_cut1_stereo_44KHz.wav
1	74	4	4	2	I	1	0	706	0	poli_8sides 2_whiteLine3.jpg	Short_b20_cut1_stereo_44KHz.wav
1	75	2	1	0	C	1	0	819	0	poli_8sides 11_whiteLine3.jpg	Short_b09_cut1_stereo_44KHz.wav
1	76	3	3	2	I	2	0	673	0	poli_8sides 4_whiteLine3.jpg	Short_b23_cut1_stereo_44KHz.wav
1	77	2	2	1	C	1	1	849	1	poli_8sides 11_whiteLine3.jpg	Short_b22_cut1_stereo_44KHz.wav
1	78	4	3	2	I	1	0	1501	0	poli_8sides 2_whiteLine3.jpg	Short_b23_cut1_stereo_44KHz.wav
1	79	1	1	1	C	1	1	940	1	poli_8sides 1_whiteLine3.jpg	Short_b09_cut1_stereo_44KHz.wav
1	80	3	4	2	I	2	0	854	1	poli_8sides 4_whiteLine3.jpg	Short_b20_cut1_stereo_44KHz.wav
1	81	1	2	0	C	2	1	914	1	poli_8sides 1_whiteLine3.jpg	Short_b22_cut1_stereo_44KHz.wav
1	82	2	2	1	C	1	1	789	1	poli_8sides 11_whiteLine3.jpg	Short_b22_cut1_stereo_44KHz.wav
1	83	3	4	2	I	1	0	633	1	poli_8sides 4_whiteLine3.jpg	Short_b20_cut1_stereo_44KHz.wav
1	84	4	4	2	I	2	0	1126	1	poli_8sides 2_whiteLine3.jpg	Short_b20_cut1_stereo_44KHz.wav
1	85	2	1	0	C	2	1	1097	1	poli_8sides 11_whiteLine3.jpg	Short_b09_cut1_stereo_44KHz.wav
1	86	1	1	1	C	1	1	806	1	poli_8sides 1_whiteLine3.jpg	Short_b09_cut1_stereo_44KHz.wav
1	87	3	3	2	I	2	0	896	1	poli_8sides 4_whiteLine3.jpg	Short_b23_cut1_stereo_44KHz.wav
1	88	4	3	2	I	1	0	923	0	poli_8sides 2_whiteLine3.jpg	Short_b23_cut1_stereo_44KHz.wav
1	89	3	4	2	I	1	0	831	1	poli_8sides 4_whiteLine3.jpg	Short_b20_cut1_stereo_44KHz.wav
1	90	1	2	0	C	2	1	1336	1	poli_8sides 1_whiteLine3.jpg	Short_b22_cut1_stereo_44KHz.wav
1	91	2	2	1	C	1	1	895	1	poli_8sides 11_whiteLine3.jpg	Short_b22_cut1_stereo_44KHz.wav
1	92	4	3	2	I	2	0	938	1	poli_8sides 2_whiteLine3.jpg	Short_b23_cut1_stereo_44KHz.wav
1	93	1	1	1	C	2	0	840	0	poli_8sides 1_whiteLine3.jpg	Short_b09_cut1_stereo_44KHz.wav
1	94	4	4	2	I	1	0	860	1	poli_8sides 2_whiteLine3.jpg	Short_b20_cut1_stereo_44KHz.wav
1	95	2	1	0	C	1	0	674	0	poli_8sides 11_whiteLine3.jpg	Short_b09_cut1_stereo_44KHz.wav
1	96	3	3	2	I	2	0	740	0	poli_8sides 4_whiteLine3.jpg	Short_b23_cut1_stereo_44KHz.wav
1	97	2	1	0	C	1	0	798	0	poli_8sides 11_whiteLine3.jpg	Short_b09_cut1_stereo_44KHz.wav
1	98	4	4	2	I	2	0	489	0	poli_8sides 2_whiteLine3.jpg	Short_b20_cut1_stereo_44KHz.wav
1	99	3	4	2	I	2	0	783	0	poli_8sides 4_whiteLine3.jpg	Short_b20_cut1_stereo_44KHz.wav
1	100	1	2	0	C	1	0	479	0	poli_8sides 1_whiteLine3.jpg	Short_b22_cut1_stereo_44KHz.wav
1	101	2	2	1	C	2	0	838	0	poli_8sides 11_whiteLine3.jpg	Short_b22_cut1_stereo_44KHz.wav
1	102	3	3	2	I	2	0	697	0	poli_8sides 4_whiteLine3.jpg	Short_b23_cut1_stereo_44KHz.wav
1	103	1	1	1	C	2	0	629	0	poli_8sides 1_whiteLine3.jpg	Short_b09_cut1_stereo_44KHz.wav
1	104	4	3	2	I	2	0	627	0	poli_8sides 2_whiteLine3.jpg	Short_b23_cut1_stereo_44KHz.wav
1	105	2	2	1	C	2	0	929	0	poli_8sides 11_whiteLine3.jpg	Short_b22_cut1_stereo_44KHz.wav
1	106	1	2	0	C	2	1	774	1	poli_8sides 1_whiteLine3.jpg	Short_b22_cut1_stereo_44KHz.wav
1	107	3	4	2	I	1	0	975	1	poli_8sides 4_whiteLine3.jpg	Short_b20_cut1_stereo_44KHz.wav
1	108	4	3	2	I	1	0	780	1	poli_8sides 2_whiteLine3.jpg	Short_b23_cut1_stereo_44KHz.wav
1	109	1	1	1	C	2	0	992	0	poli_8sides 1_whiteLine3.jpg	Short_b09_cut1_stereo_44KHz.wav
1	110	2	1	0	C	2	1	567	1	poli_8sides 11_whiteLine3.jpg	Short_b09_cut1_stereo_44KHz.wav
1	111	4	4	2	I	1	0	771	0	poli_8sides 2_whiteLine3.jpg	Short_b20_cut1_stereo_44KHz.wav
1	112	3	3	2	I	1	0	779	1	poli_8sides 4_whiteLine3.jpg	Short_b23_cut1_stereo_44KHz.wav
1	113	2	1	0	C	1	0	608	0	poli_8sides 11_whiteLine3.jpg	Short_b09_cut1_stereo_44KHz.wav
1	114	1	1	1	C	1	1	336	1	poli_8sides 1_whiteLine3.jpg	Short_b09_cut1_stereo_44KHz.wav
1	115	4	3	2	I	2	0	1009	1	poli_8sides 2_whiteLine3.jpg	Short_b23_cut1_stereo_44KHz.wav
1	116	3	3	2	I	1	0	665	0	poli_8sides 4_whiteLine3.jpg	Short_b23_cut1_stereo_44KHz.wav
1	117	4	4	2	I	1	0	742	0	poli_8sides 2_whiteLine3.jpg	Short_b20_cut1_stereo_44KHz.wav
1	118	2	2	1	C	1	1	688	1	poli_8sides 11_whiteLine3.jpg	Short_b22_cut1_stereo_44KHz.wav
1	119	3	4	2	I	2	0	726	0	poli_8sides 4_whiteLine3.jpg	Short_b20_cut1_stereo_44KHz.wav
1	120	1	2	0	C	1	0	463	0	poli_8sides 1_whiteLine3.jpg	Short_b22_cut1_stereo_44KHz.wav
1	121	2	2	1	C	2	0	559	0	poli_8sides 11_whiteLine3.jpg	Short_b22_cut1_stereo_44KHz.wav
1	122	3	3	2	I	1	0	895	1	poli_8sides 4_whiteLine3.jpg	Short_b23_cut1_stereo_44KHz.wav
1	123	1	1	1	C	2	0	939	0	poli_8sides 1_whiteLine3.jpg	Short_b09_cut1_stereo_44KHz.wav
1	124	4	4	2	I	2	0	820	1	poli_8sides 2_whiteLine3.jpg	Short_b20_cut1_stereo_44KHz.wav
1	125	3	4	2	I	1	0	607	1	poli_8sides 4_whiteLine3.jpg	Short_b20_cut1_stereo_44KHz.wav
1	126	4	3	2	I	1	0	433	0	poli_8sides 2_whiteLine3.jpg	Short_b23_cut1_stereo_44KHz.wav
1	127	1	2	0	C	2	1	707	1	poli_8sides 1_whiteLine3.jpg	Short_b22_cut1_stereo_44KHz.wav
1	128	2	1	0	C	2	1	396	1	poli_8sides 11_whiteLine3.jpg	Short_b09_cut1_stereo_44KHz.wav
1	129	4	3	2	I	2	0	679	1	poli_8sides 2_whiteLine3.jpg	Short_b23_cut1_stereo_44KHz.wav
1	130	2	2	1	C	2	0	766	0	poli_8sides 11_whiteLine3.jpg	Short_b22_cut1_stereo_44KHz.wav
1	131	3	4	2	I	1	0	321	1	poli_8sides 4_whiteLine3.jpg	Short_b20_cut1_stereo_44KHz.wav
1	132	1	2	0	C	2	1	383	1	poli_8sides 1_whiteLine3.jpg	Short_b22_cut1_stereo_44KHz.wav
1	133	2	1	0	C	2	1	435	1	poli_8sides 11_whiteLine3.jpg	Short_b09_cut1_stereo_44KHz.wav
1	134	1	1	1	C	2	0	496	0	poli_8sides 1_whiteLine3.jpg	Short_b09_cut1_stereo_44KHz.wav
1	135	3	3	2	I	1	0	767	1	poli_8sides 4_whiteLine3.jpg	Short_b23_cut1_stereo_44KHz.wav
1	136	4	4	2	I	2	0	792	1	poli_8sides 2_whiteLine3.jpg	Short_b20_cut1_stereo_44KHz.wav
1	137	2	2	1	C	2	0	485	0	poli_8sides 11_whiteLine3.jpg	Short_b22_cut1_stereo_44KHz.wav
1	138	1	1	1	C	1	1	514	1	poli_8sides 1_whiteLine3.jpg	Short_b09_cut1_stereo_44KHz.wav
1	139	4	3	2	I	2	0	1082	0	poli_8sides 2_whiteLine3.jpg	Short_b23_cut1_stereo_44KHz.wav
1	140	3	4	2	I	2	0	747	0	poli_8sides 4_whiteLine3.jpg	Short_b20_cut1_stereo_44KHz.wav
1	141	1	2	0	C	1	0	870	0	poli_8sides 1_whiteLine3.jpg	Short_b22_cut1_stereo_44KHz.wav
1	142	4	4	2	I	1	0	1023	0	poli_8sides 2_whiteLine3.jpg	Short_b20_cut1_stereo_44KHz.wav
1	143	2	1	0	C	1	0	804	0	poli_8sides 11_whiteLine3.jpg	Short_b09_cut1_stereo_44KHz.wav
1	144	3	3	2	I	1	0	420	1	poli_8sides 4_whiteLine3.jpg	Short_b23_cut1_stereo_44KHz.wav
1	145	1	2	0	C	1	0	980	0	poli_8sides 1_whiteLine3.jpg	Short_b22_cut1_stereo_44KHz.wav
1	146	3	3	2	I	1	0	834	0	poli_8sides 4_whiteLine3.jpg	Short_b23_cut1_stereo_44KHz.wav
1	147	2	1	0	C	2	1	766	1	poli_8sides 11_whiteLine3.jpg	Short_b09_cut1_stereo_44KHz.wav
1	148	4	4	2	I	2	0	859	0	poli_8sides 2_whiteLine3.jpg	Short_b20_cut1_stereo_44KHz.wav
1	149	1	1	1	C	1	1	615	1	poli_8sides 1_whiteLine3.jpg	Short_b09_cut1_stereo_44KHz.wav
1	150	2	2	1	C	1	1	752	1	poli_8sides 11_whiteLine3.jpg	Short_b22_cut1_stereo_44KHz.wav
1	151	4	3	2	I	1	0	684	0	poli_8sides 2_whiteLine3.jpg	Short_b23_cut1_stereo_44KHz.wav
1	152	3	4	2	I	2	0	804	0	poli_8sides 4_whiteLine3.jpg	Short_b20_cut1_stereo_44KHz.wav
1	153	1	2	0	C	2	1	905	1	poli_8sides 1_whiteLine3.jpg	Short_b22_cut1_stereo_44KHz.wav
1	154	4	4	2	I	1	0	1031	1	poli_8sides 2_whiteLine3.jpg	Short_b20_cut1_stereo_44KHz.wav
1	155	3	4	2	I	2	0	685	0	poli_8sides 4_whiteLine3.jpg	Short_b20_cut1_stereo_44KHz.wav
1	156	2	1	0	C	2	1	826	1	poli_8sides 11_whiteLine3.jpg	Short_b09_cut1_stereo_44KHz.wav
1	157	4	3	2	I	1	0	834	0	poli_8sides 2_whiteLine3.jpg	Short_b23_cut1_stereo_44KHz.wav
1	158	2	2	1	C	2	0	490	0	poli_8sides 11_whiteLine3.jpg	Short_b22_cut1_stereo_44KHz.wav
1	159	3	3	2	I	1	0	526	1	poli_8sides 4_whiteLine3.jpg	Short_b23_cut1_stereo_44KHz.wav
1	160	1	1	1	C	2	0	744	0	poli_8sides 1_whiteLine3.jpg	Short_b09_cut1_stereo_44KHz.wav
1	161	2	2	1	C	2	0	703	0	poli_8sides 11_whiteLine3.jpg	Short_b22_cut1_stereo_44KHz.wav
1	162	3	4	2	I	2	0	767	0	poli_8sides 4_whiteLine3.jpg	Short_b20_cut1_stereo_44KHz.wav
1	163	1	1	1	C	2	0	668	0	poli_8sides 1_whiteLine3.jpg	Short_b09_cut1_stereo_44KHz.wav
1	164	4	4	2	I	2	0	793	1	poli_8sides 2_whiteLine3.jpg	Short_b20_cut1_stereo_44KHz.wav
1	165	3	3	2	I	1	0	954	1	poli_8sides 4_whiteLine3.jpg	Short_b23_cut1_stereo_44KHz.wav
1	166	2	1	0	C	2	1	922	1	poli_8sides 11_whiteLine3.jpg	Short_b09_cut1_stereo_44KHz.wav
1	167	4	3	2	I	2	0	1126	1	poli_8sides 2_whiteLine3.jpg	Short_b23_cut1_stereo_44KHz.wav
1	168	1	2	0	C	2	1	995	1	poli_8sides 1_whiteLine3.jpg	Short_b22_cut1_stereo_44KHz.wav
1	169	4	4	2	I	2	0	1125	1	poli_8sides 2_whiteLine3.jpg	Short_b20_cut1_stereo_44KHz.wav
1	170	2	1	0	C	2	1	973	1	poli_8sides 11_whiteLine3.jpg	Short_b09_cut1_stereo_44KHz.wav
1	171	3	3	2	I	1	0	814	1	poli_8sides 4_whiteLine3.jpg	Short_b23_cut1_stereo_44KHz.wav
1	172	1	1	1	C	2	0	920	0	poli_8sides 1_whiteLine3.jpg	Short_b09_cut1_stereo_44KHz.wav
1	173	2	2	1	C	1	1	1036	1	poli_8sides 11_whiteLine3.jpg	Short_b22_cut1_stereo_44KHz.wav
1	174	3	4	2	I	2	0	919	0	poli_8sides 4_whiteLine3.jpg	Short_b20_cut1_stereo_44KHz.wav
1	175	1	2	0	C	2	1	741	1	poli_8sides 1_whiteLine3.jpg	Short_b22_cut1_stereo_44KHz.wav
1	176	4	3	2	I	1	0	784	1	poli_8sides 2_whiteLine3.jpg	Short_b23_cut1_stereo_44KHz.wav
1	177	2	2	1	C	1	1	727	1	poli_8sides 11_whiteLine3.jpg	Short_b22_cut1_stereo_44KHz.wav
1	178	4	3	2	I	1	0	785	0	poli_8sides 2_whiteLine3.jpg	Short_b23_cut1_stereo_44KHz.wav
1	179	3	4	2	I	1	0	1063	0	poli_8sides 4_whiteLine3.jpg	Short_b20_cut1_stereo_44KHz.wav
1	180	1	1	1	C	2	0	961	0	poli_8sides 1_whiteLine3.jpg	Short_b09_cut1_stereo_44KHz.wav
1	181	2	1	0	C	2	1	817	1	poli_8sides 11_whiteLine3.jpg	Short_b09_cut1_stereo_44KHz.wav
1	182	4	4	2	I	1	0	1309	1	poli_8sides 2_whiteLine3.jpg	Short_b20_cut1_stereo_44KHz.wav
1	183	1	2	0	C	2	1	888	1	poli_8sides 1_whiteLine3.jpg	Short_b22_cut1_stereo_44KHz.wav
1	184	3	3	2	I	1	0	1096	1	poli_8sides 4_whiteLine3.jpg	Short_b23_cut1_stereo_44KHz.wav
1	185	2	2	1	C	1	1	923	1	poli_8sides 11_whiteLine3.jpg	Short_b22_cut1_stereo_44KHz.wav
1	186	1	1	1	C	1	1	991	1	poli_8sides 1_whiteLine3.jpg	Short_b09_cut1_stereo_44KHz.wav
1	187	4	4	2	I	1	0	963	0	poli_8sides 2_whiteLine3.jpg	Short_b20_cut1_stereo_44KHz.wav
1	188	3	3	2	I	2	0	1292	0	poli_8sides 4_whiteLine3.jpg	Short_b23_cut1_stereo_44KHz.wav
1	189	1	2	0	C	2	1	878	1	poli_8sides 1_whiteLine3.jpg	Short_b22_cut1_stereo_44KHz.wav
1	190	4	3	2	I	1	0	723	1	poli_8sides 2_whiteLine3.jpg	Short_b23_cut1_stereo_44KHz.wav
1	191	3	4	2	I	1	0	1090	1	poli_8sides 4_whiteLine3.jpg	Short_b20_cut1_stereo_44KHz.wav
1	192	2	1	0	C	2	1	1455	1	poli_8sides 11_whiteLine3.jpg	Short_b09_cut1_stereo_44KHz.wav
1	193	1	2	0	C	2	1	1053	1	poli_8sides 1_whiteLine3.jpg	Short_b22_cut1_stereo_44KHz.wav
1	194	3	3	2	I	1	0	836	0	poli_8sides 4_whiteLine3.jpg	Short_b23_cut1_stereo_44KHz.wav
1	195	2	1	0	C	1	0	1091	0	poli_8sides 11_whiteLine3.jpg	Short_b09_cut1_stereo_44KHz.wav
1	196	4	4	2	I	2	0	813	0	poli_8sides 2_whiteLine3.jpg	Short_b20_cut1_stereo_44KHz.wav
1	197	2	2	1	C	1	1	1210	1	poli_8sides 11_whiteLine3.jpg	Short_b22_cut1_stereo_44KHz.wav
1	198	3	4	2	I	1	0	814	0	poli_8sides 4_whiteLine3.jpg	Short_b20_cut1_stereo_44KHz.wav
1	199	1	1	1	C	1	1	1149	1	poli_8sides 1_whiteLine3.jpg	Short_b09_cut1_stereo_44KHz.wav
1	200	4	3	2	I	2	0	1203	0	poli_8sides 2_whiteLine3.jpg	Short_b23_cut1_stereo_44KHz.wav
2	1	4	3	2	I	2	0	901	1	poli_8sides 15_whiteLine3.jpg	Medium_e26_stereo_44KHz.wav
2	2	2	1	0	C	2	1	1584	1	poli_8sides 5_whiteLine3.jpg	MediumLong_b10_cut2_L_stereo_44KHz.wav
2	3	3	3	2	I	1	0	666	0	poli_8sides 6_whiteLine3.jpg	Medium_e26_stereo_44KHz.wav
2	4	1	1	1	C	2	0	905	0	poli_8sides 16_whiteLine3.jpg	MediumLong_b10_cut2_L_stereo_44KHz.wav
2	5	3	4	2	I	2	0	774	0	poli_8sides 6_whiteLine3.jpg	Medium_e21_stereo_44KHz.wav
2	6	4	4	2	I	2	0	939	0	poli_8sides 15_whiteLine3.jpg	Medium_e21_stereo_44KHz.wav
2	7	1	2	0	C	2	1	1735	1	poli_8sides 16_whiteLine3.jpg	Medium_e01_cut1_stereo_44KHz.wav
2	8	2	2	1	C	2	0	1115	0	poli_8sides 5_whiteLine3.jpg	Medium_e01_cut1_stereo_44KHz.wav
2	9	1	1	1	C	2	0	748	0	poli_8sides 16_whiteLine3.jpg	MediumLong_b10_cut2_L_stereo_44KHz.wav
2	10	4	3	2	I	2	0	974	0	poli_8sides 15_whiteLine3.jpg	Medium_e26_stereo_44KHz.wav
2	11	2	1	0	C	1	0	967	0	poli_8sides 5_whiteLine3.jpg	MediumLong_b10_cut2_L_stereo_44KHz.wav
2	12	3	3	2	I	1	0	925	1	poli_8sides 6_whiteLine3.jpg	Medium_e26_stereo_44KHz.wav
2	13	4	4	2	I	2	0	935	1	poli_8sides 15_whiteLine3.jpg	Medium_e21_stereo_44KHz.wav
2	14	3	4	2	I	1	0	1065	0	poli_8sides 6_whiteLine3.jpg	Medium_e21_stereo_44KHz.wav
2	15	1	2	0	C	2	1	1453	1	poli_8sides 16_whiteLine3.jpg	Medium_e01_cut1_stereo_44KHz.wav
2	16	2	2	1	C	1	1	738	1	poli_8sides 5_whiteLine3.jpg	Medium_e01_cut1_stereo_44KHz.wav
2	17	3	3	2	I	1	0	964	1	poli_8sides 6_whiteLine3.jpg	Medium_e26_stereo_44KHz.wav
2	18	4	4	2	I	2	0	924	0	poli_8sides 15_whiteLine3.jpg	Medium_e21_stereo_44KHz.wav
2	19	1	2	0	C	2	1	845	1	poli_8sides 16_whiteLine3.jpg	Medium_e01_cut1_stereo_44KHz.wav
2	20	2	2	1	C	1	1	672	1	poli_8sides 5_whiteLine3.jpg	Medium_e01_cut1_stereo_44KHz.wav
2	21	4	3	2	I	2	0	829	0	poli_8sides 15_whiteLine3.jpg	Medium_e26_stereo_44KHz.wav
2	22	1	1	1	C	1	1	861	1	poli_8sides 16_whiteLine3.jpg	MediumLong_b10_cut2_L_stereo_44KHz.wav
2	23	2	1	0	C	1	0	534	0	poli_8sides 5_whiteLine3.jpg	MediumLong_b10_cut2_L_stereo_44KHz.wav
2	24	3	4	2	I	1	0	1023	0	poli_8sides 6_whiteLine3.jpg	Medium_e21_stereo_44KHz.wav
2	25	4	4	2	I	2	0	837	0	poli_8sides 15_whiteLine3.jpg	Medium_e21_stereo_44KHz.wav
2	26	2	1	0	C	1	0	923	0	poli_8sides 5_whiteLine3.jpg	MediumLong_b10_cut2_L_stereo_44KHz.wav
2	27	3	3	2	I	1	0	830	1	poli_8sides 6_whiteLine3.jpg	Medium_e26_stereo_44KHz.wav
2	28	1	1	1	C	1	1	541	1	poli_8sides 16_whiteLine3.jpg	MediumLong_b10_cut2_L_stereo_44KHz.wav
2	29	2	2	1	C	2	0	1579	0	poli_8sides 5_whiteLine3.jpg	Medium_e01_cut1_stereo_44KHz.wav
2	30	4	3	2	I	1	0	1279	0	poli_8sides 15_whiteLine3.jpg	Medium_e26_stereo_44KHz.wav
2	31	3	4	2	I	2	0	1284	1	poli_8sides 6_whiteLine3.jpg	Medium_e21_stereo_44KHz.wav
2	32	1	2	0	C	2	1	766	1	poli_8sides 16_whiteLine3.jpg	Medium_e01_cut1_stereo_44KHz.wav
2	33	4	4	2	I	2	0	1268	1	poli_8sides 15_whiteLine3.jpg	Medium_e21_stereo_44KHz.wav
2	34	3	4	2	I	2	0	1220	1	poli_8sides 6_whiteLine3.jpg	Medium_e21_stereo_44KHz.wav
2	35	2	1	0	C	1	0	1574	0	poli_8sides 5_whiteLine3.jpg	MediumLong_b10_cut2_L_stereo_44KHz.wav
2	36	1	2	0	C	2	1	719	1	poli_8sides 16_whiteLine3.jpg	Medium_e01_cut1_stereo_44KHz.wav
2	37	4	3	2	I	1	0	1132	1	poli_8sides 15_whiteLine3.jpg	Medium_e26_stereo_44KHz.wav
2	38	3	3	2	I	1	0	1223	1	poli_8sides 6_whiteLine3.jpg	Medium_e26_stereo_44KHz.wav
2	39	2	2	1	C	1	1	1033	1	poli_8sides 5_whiteLine3.jpg	Medium_e01_cut1_stereo_44KHz.wav
2	40	1	1	1	C	1	1	1308	1	poli_8sides 16_whiteLine3.jpg	MediumLong_b10_cut2_L_stereo_44KHz.wav
2	41	3	3	2	I	2	0	1392	1	poli_8sides 6_whiteLine3.jpg	Medium_e26_stereo_44KHz.wav
2	42	4	3	2	I	1	0	1415	0	poli_8sides 15_whiteLine3.jpg	Medium_e26_stereo_44KHz.wav
2	43	2	2	1	C	1	1	898	1	poli_8sides 5_whiteLine3.jpg	Medium_e01_cut1_stereo_44KHz.wav
2	44	1	1	1	C	1	1	803	1	poli_8sides 16_whiteLine3.jpg	MediumLong_b10_cut2_L_stereo_44KHz.wav
2	45	3	4	2	I	1	0	705	0	poli_8sides 6_whiteLine3.jpg	Medium_e21_stereo_44KHz.wav
2	46	2	1	0	C	1	0	876	0	poli_8sides 5_whiteLine3.jpg	MediumLong_b10_cut2_L_stereo_44KHz.wav
2	47	4	4	2	I	2	0	867	1	poli_8sides 15_whiteLine3.jpg	Medium_e21_stereo_44KHz.wav
2	48	1	2	0	C	2	1	1196	1	poli_8sides 16_whiteLine3.jpg	Medium_e01_cut1_stereo_44KHz.wav
2	49	2	2	1	C	1	1	1011	1	poli_8sides 5_whiteLine3.jpg	Medium_e01_cut1_stereo_44KHz.wav
2	50	4	4	2	I	2	0	906	0	poli_8sides 15_whiteLine3.jpg	Medium_e21_stereo_44KHz.wav
2	51	1	2	0	C	2	1	730	1	poli_8sides 16_whiteLine3.jpg	Medium_e01_cut1_stereo_44KHz.wav
2	52	3	4	2	I	1	0	1287	0	poli_8sides 6_whiteLine3.jpg	Medium_e21_stereo_44KHz.wav
2	53	4	3	2	I	1	0	1001	1	poli_8sides 15_whiteLine3.jpg	Medium_e26_stereo_44KHz.wav
2	54	1	1	1	C	1	1	1018	1	poli_8sides 16_whiteLine3.jpg	MediumLong_b10_cut2_L_stereo_44KHz.wav
2	55	3	3	2	I	1	0	826	0	poli_8sides 6_whiteLine3.jpg	Medium_e26_stereo_44KHz.wav
2	56	2	1	0	C	1	0	951	0	poli_8sides 5_whiteLine3.jpg	MediumLong_b10_cut2_L_stereo_44KHz.wav
2	57	4	3	2	I	2	0	677	1	poli_8sides 15_whiteLine3.jpg	Medium_e26_stereo_44KHz.wav
2	58	2	2	1	C	1	1	1060	1	poli_8sides 5_whiteLine3.jpg	Medium_e01_cut1_stereo_44KHz.wav
2	59	3	3	2	I	2	0	865	1	poli_8sides 6_whiteLine3.jpg	Medium_e26_stereo_44KHz.wav
2	60	1	1	1	C	2	0	1189	0	poli_8sides 16_whiteLine3.jpg	MediumLong_b10_cut2_L_stereo_44KHz.wav
2	61	4	4	2	I	2	0	937	0	poli_8sides 15_whiteLine3.jpg	Medium_e21_stereo_44KHz.wav
2	62	2	1	0	C	1	0	881	0	poli_8sides 5_whiteLine3.jpg	MediumLong_b10_cut2_L_stereo_44KHz.wav
2	63	3	4	2	I	2	0	700	1	poli_8sides 6_whiteLine3.jpg	Medium_e21_stereo_44KHz.wav
2	64	1	2	0	C	2	1	973	1	poli_8sides 16_whiteLine3.jpg	Medium_e01_cut1_stereo_44KHz.wav
2	65	2	1	0	C	2	1	891	1	poli_8sides 5_whiteLine3.jpg	MediumLong_b10_cut2_L_stereo_44KHz.wav
2	66	4	4	2	I	2	0	650	0	poli_8sides 15_whiteLine3.jpg	Medium_e21_stereo_44KHz.wav
2	67	3	3	2	I	1	0	855	1	poli_8sides 6_whiteLine3.jpg	Medium_e26_stereo_44KHz.wav
2	68	1	1	1	C	2	0	1162	0	poli_8sides 16_whiteLine3.jpg	MediumLong_b10_cut2_L_stereo_44KHz.wav
2	69	3	4	2	I	2	0	792	1	poli_8sides 6_whiteLine3.jpg	Medium_e21_stereo_44KHz.wav
2	70	2	2	1	C	2	0	1109	0	poli_8sides 5_whiteLine3.jpg	Medium_e01_cut1_stereo_44KHz.wav
2	71	4	3	2	I	2	0	1137	0	poli_8sides 15_whiteLine3.jpg	Medium_e26_stereo_44KHz.wav
2	72	1	2	0	C	2	1	674	1	poli_8sides 16_whiteLine3.jpg	Medium_e01_cut1_stereo_44KHz.wav
2	73	3	4	2	I	2	0	1084	1	poli_8sides 6_whiteLine3.jpg	Medium_e21_stereo_44KHz.wav
2	74	4	3	2	I	2	0	1194	1	poli_8sides 15_whiteLine3.jpg	Medium_e26_stereo_44KHz.wav
2	75	1	2	0	C	2	1	1041	1	poli_8sides 16_whiteLine3.jpg	Medium_e01_cut1_stereo_44KHz.wav
2	76	2	2	1	C	1	1	796	1	poli_8sides 5_whiteLine3.jpg	Medium_e01_cut1_stereo_44KHz.wav
2	77	4	4	2	I	2	0	914	1	poli_8sides 15_whiteLine3.jpg	Medium_e21_stereo_44KHz.wav
2	78	2	1	0	C	1	0	1489	0	poli_8sides 5_whiteLine3.jpg	MediumLong_b10_cut2_L_stereo_44KHz.wav
2	79	1	1	1	C	1	1	1091	1	poli_8sides 16_whiteLine3.jpg	MediumLong_b10_cut2_L_stereo_44KHz.wav
2	80	3	3	2	I	2	0	1082	0	poli_8sides 6_whiteLine3.jpg	Medium_e26_stereo_44KHz.wav
2	81	4	4	2	I	2	0	731	1	poli_8sides 15_whiteLine3.jpg	Medium_e21_stereo_44KHz.wav
2	82	3	3	2	I	2	0	1010	0	poli_8sides 6_whiteLine3.jpg	Medium_e26_stereo_44KHz.wav
2	83	1	1	1	C	1	1	1395	1	poli_8sides 16_whiteLine3.jpg	MediumLong_b10_cut2_L_stereo_44KHz.wav
2	84	2	1	0	C	2	1	1257	1	poli_8sides 5_whiteLine3.jpg	MediumLong_b10_cut2_L_stereo_44KHz.wav
2	85	1	2	0	C	1	0	1293	0	poli_8sides 16_whiteLine3.jpg	Medium_e01_cut1_stereo_44KHz.wav
2	86	2	2	1	C	1	1	1203	1	poli_8sides 5_whiteLine3.jpg	Medium_e01_cut1_stereo_44KHz.wav
2	87	3	4	2	I	2	0	849	0	poli_8sides 6_whiteLine3.jpg	Medium_e21_stereo_44KHz.wav
2	88	4	3	2	I	2	0	1788	1	poli_8sides 15_whiteLine3.jpg	Medium_e26_stereo_44KHz.wav
2	89	2	1	0	C	1	0	1295	0	poli_8sides 5_whiteLine3.jpg	MediumLong_b10_cut2_L_stereo_44KHz.wav
2	90	4	4	2	I	2	0	1186	1	poli_8sides 15_whiteLine3.jpg	Medium_e21_stereo_44KHz.wav
2	91	1	1	1	C	2	0	732	0	poli_8sides 16_whiteLine3.jpg	MediumLong_b10_cut2_L_stereo_44KHz.wav
2	92	3	4	2	I	2	0	704	1	poli_8sides 6_whiteLine3.jpg	Medium_e21_stereo_44KHz.wav
2	93	4	3	2	I	2	0	696	0	poli_8sides 15_whiteLine3.jpg	Medium_e26_stereo_44KHz.wav
2	94	2	2	1	C	2	0	1041	0	poli_8sides 5_whiteLine3.jpg	Medium_e01_cut1_stereo_44KHz.wav
2	95	1	2	0	C	2	1	460	1	poli_8sides 16_whiteLine3.jpg	Medium_e01_cut1_stereo_44KHz.wav
2	96	3	3	2	I	2	0	928	0	poli_8sides 6_whiteLine3.jpg	Medium_e26_stereo_44KHz.wav
2	97	4	4	2	I	2	0	963	1	poli_8sides 15_whiteLine3.jpg	Medium_e21_stereo_44KHz.wav
2	98	2	1	0	C	1	0	1957	0	poli_8sides 5_whiteLine3.jpg	MediumLong_b10_cut2_L_stereo_44KHz.wav
2	99	1	1	1	C	2	0	1021	0	poli_8sides 16_whiteLine3.jpg	MediumLong_b10_cut2_L_stereo_44KHz.wav
2	100	3	3	2	I	2	0	585	1	poli_8sides 6_whiteLine3.jpg	Medium_e26_stereo_44KHz.wav
2	101	2	2	1	C	1	1	1066	1	poli_8sides 5_whiteLine3.jpg	Medium_e01_cut1_stereo_44KHz.wav
2	102	3	4	2	I	2	0	1179	1	poli_8sides 6_whiteLine3.jpg	Medium_e21_stereo_44KHz.wav
2	103	4	3	2	I	1	0	1188	0	poli_8sides 15_whiteLine3.jpg	Medium_e26_stereo_44KHz.wav
2	104	1	2	0	C	2	1	1205	1	poli_8sides 16_whiteLine3.jpg	Medium_e01_cut1_stereo_44KHz.wav
2	105	4	4	2	I	2	0	976	1	poli_8sides 15_whiteLine3.jpg	Medium_e21_stereo_44KHz.wav
2	106	3	4	2	I	1	0	1195	1	poli_8sides 6_whiteLine3.jpg	Medium_e21_stereo_44KHz.wav
2	107	2	1	0	C	2	1	767	1	poli_8sides 5_whiteLine3.jpg	MediumLong_b10_cut2_L_stereo_44KHz.wav
2	108	1	2	0	C	2	1	1153	1	poli_8sides 16_whiteLine3.jpg	Medium_e01_cut1_stereo_44KHz.wav
2	109	3	3	2	I	2	0	1083	0	poli_8sides 6_whiteLine3.jpg	Medium_e26_stereo_44KHz.wav
2	110	4	3	2	I	2	0	582	1	poli_8sides 15_whiteLine3.jpg	Medium_e26_stereo_44KHz.wav
2	111	2	2	1	C	1	1	1409	1	poli_8sides 5_whiteLine3.jpg	Medium_e01_cut1_stereo_44KHz.wav
2	112	1	1	1	C	0	0	0	0	poli_8sides 16_whiteLine3.jpg	MediumLong_b10_cut2_L_stereo_44KHz.wav
2	113	2	2	1	C	1	1	1393	1	poli_8sides 5_whiteLine3.jpg	Medium_e01_cut1_stereo_44KHz.wav
2	114	3	3	2	I	1	0	1070	1	poli_8sides 6_whiteLine3.jpg	Medium_e26_stereo_44KHz.wav
2	115	4	4	2	I	2	0	973	1	poli_8sides 15_whiteLine3.jpg	Medium_e21_stereo_44KHz.wav
2	116	1	1	1	C	2	0	995	0	poli_8sides 16_whiteLine3.jpg	MediumLong_b10_cut2_L_stereo_44KHz.wav
2	117	4	3	2	I	1	0	1060	0	poli_8sides 15_whiteLine3.jpg	Medium_e26_stereo_44KHz.wav
2	118	1	2	0	C	2	1	749	1	poli_8sides 16_whiteLine3.jpg	Medium_e01_cut1_stereo_44KHz.wav
2	119	3	4	2	I	1	0	1351	0	poli_8sides 6_whiteLine3.jpg	Medium_e21_stereo_44KHz.wav
2	120	2	1	0	C	2	1	1067	1	poli_8sides 5_whiteLine3.jpg	MediumLong_b10_cut2_L_stereo_44KHz.wav
2	121	3	4	2	I	2	0	799	1	poli_8sides 6_whiteLine3.jpg	Medium_e21_stereo_44KHz.wav
2	122	1	1	1	C	1	1	1502	1	poli_8sides 16_whiteLine3.jpg	MediumLong_b10_cut2_L_stereo_44KHz.wav
2	123	4	3	2	I	1	0	1209	1	poli_8sides 15_whiteLine3.jpg	Medium_e26_stereo_44KHz.wav
2	124	2	2	1	C	2	0	1349	0	poli_8sides 5_whiteLine3.jpg	Medium_e01_cut1_stereo_44KHz.wav
2	125	3	3	2	I	2	0	787	0	poli_8sides 6_whiteLine3.jpg	Medium_e26_stereo_44KHz.wav
2	126	4	4	2	I	2	0	850	0	poli_8sides 15_whiteLine3.jpg	Medium_e21_stereo_44KHz.wav
2	127	2	1	0	C	2	1	1157	1	poli_8sides 5_whiteLine3.jpg	MediumLong_b10_cut2_L_stereo_44KHz.wav
2	128	1	2	0	C	2	1	696	1	poli_8sides 16_whiteLine3.jpg	Medium_e01_cut1_stereo_44KHz.wav
2	129	3	3	2	I	2	0	1230	0	poli_8sides 6_whiteLine3.jpg	Medium_e26_stereo_44KHz.wav
2	130	4	3	2	I	2	0	959	1	poli_8sides 15_whiteLine3.jpg	Medium_e26_stereo_44KHz.wav
2	131	1	2	0	C	0	0	0	0	poli_8sides 16_whiteLine3.jpg	Medium_e01_cut1_stereo_44KHz.wav
2	132	2	2	1	C	1	1	769	1	poli_8sides 5_whiteLine3.jpg	Medium_e01_cut1_stereo_44KHz.wav
2	133	1	1	1	C	1	1	836	1	poli_8sides 16_whiteLine3.jpg	MediumLong_b10_cut2_L_stereo_44KHz.wav
2	134	4	4	2	I	2	0	737	0	poli_8sides 15_whiteLine3.jpg	Medium_e21_stereo_44KHz.wav
2	135	2	1	0	C	1	0	1166	0	poli_8sides 5_whiteLine3.jpg	MediumLong_b10_cut2_L_stereo_44KHz.wav
2	136	3	4	2	I	1	0	1060	0	poli_8sides 6_whiteLine3.jpg	Medium_e21_stereo_44KHz.wav
2	137	1	1	1	C	2	0	1067	0	poli_8sides 16_whiteLine3.jpg	MediumLong_b10_cut2_L_stereo_44KHz.wav
2	138	3	3	2	I	2	0	798	0	poli_8sides 6_whiteLine3.jpg	Medium_e26_stereo_44KHz.wav
2	139	2	2	1	C	2	0	971	0	poli_8sides 5_whiteLine3.jpg	Medium_e01_cut1_stereo_44KHz.wav
2	140	4	4	2	I	2	0	681	0	poli_8sides 15_whiteLine3.jpg	Medium_e21_stereo_44KHz.wav
2	141	1	2	0	C	2	1	748	1	poli_8sides 16_whiteLine3.jpg	Medium_e01_cut1_stereo_44KHz.wav
2	142	2	1	0	C	2	1	1260	1	poli_8sides 5_whiteLine3.jpg	MediumLong_b10_cut2_L_stereo_44KHz.wav
2	143	4	3	2	I	1	0	865	0	poli_8sides 15_whiteLine3.jpg	Medium_e26_stereo_44KHz.wav
2	144	3	4	2	I	2	0	897	1	poli_8sides 6_whiteLine3.jpg	Medium_e21_stereo_44KHz.wav
2	145	4	3	2	I	2	0	645	1	poli_8sides 15_whiteLine3.jpg	Medium_e26_stereo_44KHz.wav
2	146	1	2	0	C	2	1	876	1	poli_8sides 16_whiteLine3.jpg	Medium_e01_cut1_stereo_44KHz.wav
2	147	2	2	1	C	1	1	842	1	poli_8sides 5_whiteLine3.jpg	Medium_e01_cut1_stereo_44KHz.wav
2	148	3	3	2	I	1	0	1978	1	poli_8sides 6_whiteLine3.jpg	Medium_e26_stereo_44KHz.wav
2	149	2	1	0	C	2	1	1954	1	poli_8sides 5_whiteLine3.jpg	MediumLong_b10_cut2_L_stereo_44KHz.wav
2	150	1	1	1	C	1	1	783	1	poli_8sides 16_whiteLine3.jpg	MediumLong_b10_cut2_L_stereo_44KHz.wav
2	151	4	4	2	I	1	0	1119	0	poli_8sides 15_whiteLine3.jpg	Medium_e21_stereo_44KHz.wav
2	152	3	4	2	I	2	0	965	1	poli_8sides 6_whiteLine3.jpg	Medium_e21_stereo_44KHz.wav
2	153	2	1	0	C	2	1	1500	1	poli_8sides 5_whiteLine3.jpg	MediumLong_b10_cut2_L_stereo_44KHz.wav
2	154	1	2	0	C	2	1	663	1	poli_8sides 16_whiteLine3.jpg	Medium_e01_cut1_stereo_44KHz.wav
2	155	4	3	2	I	2	0	730	0	poli_8sides 15_whiteLine3.jpg	Medium_e26_stereo_44KHz.wav
2	156	3	4	2	I	2	0	690	0	poli_8sides 6_whiteLine3.jpg	Medium_e21_stereo_44KHz.wav
2	157	4	4	2	I	1	0	939	0	poli_8sides 15_whiteLine3.jpg	Medium_e21_stereo_44KHz.wav
2	158	1	1	1	C	1	1	1183	1	poli_8sides 16_whiteLine3.jpg	MediumLong_b10_cut2_L_stereo_44KHz.wav
2	159	2	2	1	C	1	1	1061	1	poli_8sides 5_whiteLine3.jpg	Medium_e01_cut1_stereo_44KHz.wav
2	160	3	3	2	I	2	0	1858	0	poli_8sides 6_whiteLine3.jpg	Medium_e26_stereo_44KHz.wav
2	161	1	1	1	C	1	1	1393	1	poli_8sides 16_whiteLine3.jpg	MediumLong_b10_cut2_L_stereo_44KHz.wav
2	162	4	4	2	I	1	0	844	0	poli_8sides 15_whiteLine3.jpg	Medium_e21_stereo_44KHz.wav
2	163	3	4	2	I	2	0	1530	0	poli_8sides 6_whiteLine3.jpg	Medium_e21_stereo_44KHz.wav
2	164	2	2	1	C	1	1	1069	1	poli_8sides 5_whiteLine3.jpg	Medium_e01_cut1_stereo_44KHz.wav
2	165	4	3	2	I	2	0	748	1	poli_8sides 15_whiteLine3.jpg	Medium_e26_stereo_44KHz.wav
2	166	2	1	0	C	1	0	984	0	poli_8sides 5_whiteLine3.jpg	MediumLong_b10_cut2_L_stereo_44KHz.wav
2	167	1	2	0	C	2	1	838	1	poli_8sides 16_whiteLine3.jpg	Medium_e01_cut1_stereo_44KHz.wav
2	168	3	3	2	I	1	0	912	1	poli_8sides 6_whiteLine3.jpg	Medium_e26_stereo_44KHz.wav
2	169	4	4	2	I	2	0	1042	1	poli_8sides 15_whiteLine3.jpg	Medium_e21_stereo_44KHz.wav
2	170	1	2	0	C	2	1	1067	1	poli_8sides 16_whiteLine3.jpg	Medium_e01_cut1_stereo_44KHz.wav
2	171	3	4	2	I	2	0	884	1	poli_8sides 6_whiteLine3.jpg	Medium_e21_stereo_44KHz.wav
2	172	2	2	1	C	1	1	1047	1	poli_8sides 5_whiteLine3.jpg	Medium_e01_cut1_stereo_44KHz.wav
2	173	1	1	1	C	1	1	854	1	poli_8sides 16_whiteLine3.jpg	MediumLong_b10_cut2_L_stereo_44KHz.wav
2	174	4	3	2	I	2	0	866	0	poli_8sides 15_whiteLine3.jpg	Medium_e26_stereo_44KHz.wav
2	175	2	1	0	C	1	0	994	0	poli_8sides 5_whiteLine3.jpg	MediumLong_b10_cut2_L_stereo_44KHz.wav
2	176	3	3	2	I	2	0	1242	1	poli_8sides 6_whiteLine3.jpg	Medium_e26_stereo_44KHz.wav
2	177	4	3	2	I	2	0	762	1	poli_8sides 15_whiteLine3.jpg	Medium_e26_stereo_44KHz.wav
2	178	1	2	0	C	2	1	923	1	poli_8sides 16_whiteLine3.jpg	Medium_e01_cut1_stereo_44KHz.wav
2	179	3	3	2	I	2	0	873	0	poli_8sides 6_whiteLine3.jpg	Medium_e26_stereo_44KHz.wav
2	180	2	1	0	C	2	1	1167	1	poli_8sides 5_whiteLine3.jpg	MediumLong_b10_cut2_L_stereo_44KHz.wav
2	181	3	4	2	I	1	0	1174	1	poli_8sides 6_whiteLine3.jpg	Medium_e21_stereo_44KHz.wav
2	182	4	4	2	I	1	0	1316	0	poli_8sides 15_whiteLine3.jpg	Medium_e21_stereo_44KHz.wav
2	183	1	1	1	C	1	1	1014	1	poli_8sides 16_whiteLine3.jpg	MediumLong_b10_cut2_L_stereo_44KHz.wav
2	184	2	2	1	C	1	1	1006	1	poli_8sides 5_whiteLine3.jpg	Medium_e01_cut1_stereo_44KHz.wav
2	185	3	3	2	I	2	0	725	0	poli_8sides 6_whiteLine3.jpg	Medium_e26_stereo_44KHz.wav
2	186	1	1	1	C	1	1	973	1	poli_8sides 16_whiteLine3.jpg	MediumLong_b10_cut2_L_stereo_44KHz.wav
2	187	2	1	0	C	1	0	1208	0	poli_8sides 5_whiteLine3.jpg	MediumLong_b10_cut2_L_stereo_44KHz.wav
2	188	4	4	2	I	2	0	1036	1	poli_8sides 15_whiteLine3.jpg	Medium_e21_stereo_44KHz.wav
2	189	1	2	0	C	2	1	650	1	poli_8sides 16_whiteLine3.jpg	Medium_e01_cut1_stereo_44KHz.wav
2	190	4	3	2	I	2	0	659	1	poli_8sides 15_whiteLine3.jpg	Medium_e26_stereo_44KHz.wav
2	191	3	4	2	I	1	0	1255	0	poli_8sides 6_whiteLine3.jpg	Medium_e21_stereo_44KHz.wav
2	192	2	2	1	C	2	0	223	0	poli_8sides 5_whiteLine3.jpg	Medium_e01_cut1_stereo_44KHz.wav
2	193	1	2	0	C	2	1	1248	1	poli_8sides 16_whiteLine3.jpg	Medium_e01_cut1_stereo_44KHz.wav
2	194	4	3	2	I	2	0	1024	1	poli_8sides 15_whiteLine3.jpg	Medium_e26_stereo_44KHz.wav
2	195	2	1	0	C	2	1	1074	1	poli_8sides 5_whiteLine3.jpg	MediumLong_b10_cut2_L_stereo_44KHz.wav
2	196	3	3	2	I	2	0	706	0	poli_8sides 6_whiteLine3.jpg	Medium_e26_stereo_44KHz.wav
2	197	4	4	2	I	2	0	1168	0	poli_8sides 15_whiteLine3.jpg	Medium_e21_stereo_44KHz.wav
2	198	3	4	2	I	2	0	1006	0	poli_8sides 6_whiteLine3.jpg	Medium_e21_stereo_44KHz.wav
2	199	2	2	1	C	2	0	847	0	poli_8sides 5_whiteLine3.jpg	Medium_e01_cut1_stereo_44KHz.wav
2	200	1	1	1	C	1	1	1083	1	poli_8sides 16_whiteLine3.jpg	MediumLong_b10_cut2_L_stereo_44KHz.wav
3	1	3	4	2	I	2	0	965	0	poli_8sides 12_whiteLine3.jpg	MediumShort_e16_cut1_stereo_44KHz.wav
3	2	4	4	2	I	2	0	751	0	poli_8sides 9_whiteLine3.jpg	MediumShort_e16_cut1_stereo_44KHz.wav
3	3	1	1	1	C	1	1	1166	1	poli_8sides 18_whiteLine3.jpg	MediumShort_e22_cut1_stereo_44KHz.wav
3	4	2	1	0	C	2	1	1335	1	poli_8sides 7_whiteLine3.jpg	MediumShort_e22_cut1_stereo_44KHz.wav
3	5	1	2	0	C	2	1	957	1	poli_8sides 18_whiteLine3.jpg	MediumShort_b16_cut3_MS_stereo_44KHz.wav
3	6	3	3	2	I	2	0	1081	1	poli_8sides 12_whiteLine3.jpg	MediumShort_b10_cut1_MS_stereo_44KHz.wav
3	7	4	3	2	I	1	0	915	0	poli_8sides 9_whiteLine3.jpg	MediumShort_b10_cut1_MS_stereo_44KHz.wav
3	8	2	2	1	C	1	1	970	1	poli_8sides 7_whiteLine3.jpg	MediumShort_b16_cut3_MS_stereo_44KHz.wav
3	9	3	3	2	I	2	0	989	1	poli_8sides 12_whiteLine3.jpg	MediumShort_b10_cut1_MS_stereo_44KHz.wav
3	10	1	2	0	C	2	1	865	1	poli_8sides 18_whiteLine3.jpg	MediumShort_b16_cut3_MS_stereo_44KHz.wav
3	11	2	1	0	C	2	1	976	1	poli_8sides 7_whiteLine3.jpg	MediumShort_e22_cut1_stereo_44KHz.wav
3	12	4	4	2	I	2	0	1248	1	poli_8sides 9_whiteLine3.jpg	MediumShort_e16_cut1_stereo_44KHz.wav
3	13	1	1	1	C	1	1	1306	1	poli_8sides 18_whiteLine3.jpg	MediumShort_e22_cut1_stereo_44KHz.wav
3	14	4	3	2	I	2	0	965	0	poli_8sides 9_whiteLine3.jpg	MediumShort_b10_cut1_MS_stereo_44KHz.wav
3	15	3	4	2	I	1	0	1613	0	poli_8sides 12_whiteLine3.jpg	MediumShort_e16_cut1_stereo_44KHz.wav
3	16	2	2	1	C	1	1	783	1	poli_8sides 7_whiteLine3.jpg	MediumShort_b16_cut3_MS_stereo_44KHz.wav
3	17	4	4	2	I	1	0	883	0	poli_8sides 9_whiteLine3.jpg	MediumShort_e16_cut1_stereo_44KHz.wav
3	18	2	2	1	C	1	1	795	1	poli_8sides 7_whiteLine3.jpg	MediumShort_b16_cut3_MS_stereo_44KHz.wav
3	19	1	1	1	C	1	1	853	1	poli_8sides 18_whiteLine3.jpg	MediumShort_e22_cut1_stereo_44KHz.wav
3	20	3	3	2	I	2	0	728	1	poli_8sides 12_whiteLine3.jpg	MediumShort_b10_cut1_MS_stereo_44KHz.wav
3	21	4	3	2	I	2	0	934	1	poli_8sides 9_whiteLine3.jpg	MediumShort_b10_cut1_MS_stereo_44KHz.wav
3	22	1	2	0	C	2	1	1195	1	poli_8sides 18_whiteLine3.jpg	MediumShort_b16_cut3_MS_stereo_44KHz.wav
3	23	3	4	2	I	2	0	973	1	poli_8sides 12_whiteLine3.jpg	MediumShort_e16_cut1_stereo_44KHz.wav
3	24	2	1	0	C	2	1	742	1	poli_8sides 7_whiteLine3.jpg	MediumShort_e22_cut1_stereo_44KHz.wav
3	25	1	2	0	C	2	1	770	1	poli_8sides 18_whiteLine3.jpg	MediumShort_b16_cut3_MS_stereo_44KHz.wav
3	26	4	4	2	I	2	0	883	0	poli_8sides 9_whiteLine3.jpg	MediumShort_e16_cut1_stereo_44KHz.wav
3	27	3	3	2	I	2	0	1105	0	poli_8sides 12_whiteLine3.jpg	MediumShort_b10_cut1_MS_stereo_44KHz.wav
3	28	2	1	0	C	2	1	592	1	poli_8sides 7_whiteLine3.jpg	MediumShort_e22_cut1_stereo_44KHz.wav
3	29	1	1	1	C	2	0	587	0	poli_8sides 18_whiteLine3.jpg	MediumShort_e22_cut1_stereo_44KHz.wav
3	30	3	4	2	I	2	0	655	0	poli_8sides 12_whiteLine3.jpg	MediumShort_e16_cut1_stereo_44KHz.wav
3	31	2	2	1	C	1	1	825	1	poli_8sides 7_whiteLine3.jpg	MediumShort_b16_cut3_MS_stereo_44KHz.wav
3	32	4	3	2	I	2	0	1089	0	poli_8sides 9_whiteLine3.jpg	MediumShort_b10_cut1_MS_stereo_44KHz.wav
3	33	2	1	0	C	2	1	675	1	poli_8sides 7_whiteLine3.jpg	MediumShort_e22_cut1_stereo_44KHz.wav
3	34	3	4	2	I	2	0	981	1	poli_8sides 12_whiteLine3.jpg	MediumShort_e16_cut1_stereo_44KHz.wav
3	35	4	4	2	I	1	0	638	0	poli_8sides 9_whiteLine3.jpg	MediumShort_e16_cut1_stereo_44KHz.wav
3	36	1	1	1	C	2	0	558	0	poli_8sides 18_whiteLine3.jpg	MediumShort_e22_cut1_stereo_44KHz.wav
3	37	2	2	1	C	1	1	693	1	poli_8sides 7_whiteLine3.jpg	MediumShort_b16_cut3_MS_stereo_44KHz.wav
3	38	1	2	0	C	2	1	1063	1	poli_8sides 18_whiteLine3.jpg	MediumShort_b16_cut3_MS_stereo_44KHz.wav
3	39	4	3	2	I	2	0	971	1	poli_8sides 9_whiteLine3.jpg	MediumShort_b10_cut1_MS_stereo_44KHz.wav
3	40	3	3	2	I	2	0	1203	1	poli_8sides 12_whiteLine3.jpg	MediumShort_b10_cut1_MS_stereo_44KHz.wav
3	41	1	2	0	C	2	1	781	1	poli_8sides 18_whiteLine3.jpg	MediumShort_b16_cut3_MS_stereo_44KHz.wav
3	42	3	3	2	I	2	0	780	1	poli_8sides 12_whiteLine3.jpg	MediumShort_b10_cut1_MS_stereo_44KHz.wav
3	43	4	4	2	I	2	0	434	1	poli_8sides 9_whiteLine3.jpg	MediumShort_e16_cut1_stereo_44KHz.wav
3	44	2	1	0	C	2	1	746	1	poli_8sides 7_whiteLine3.jpg	MediumShort_e22_cut1_stereo_44KHz.wav
3	45	3	4	2	I	2	0	945	1	poli_8sides 12_whiteLine3.jpg	MediumShort_e16_cut1_stereo_44KHz.wav
3	46	1	1	1	C	2	0	498	0	poli_8sides 18_whiteLine3.jpg	MediumShort_e22_cut1_stereo_44KHz.wav
3	47	4	3	2	I	2	0	806	0	poli_8sides 9_whiteLine3.jpg	MediumShort_b10_cut1_MS_stereo_44KHz.wav
3	48	2	2	1	C	1	1	760	1	poli_8sides 7_whiteLine3.jpg	MediumShort_b16_cut3_MS_stereo_44KHz.wav
3	49	3	3	2	I	2	0	588	0	poli_8sides 12_whiteLine3.jpg	MediumShort_b10_cut1_MS_stereo_44KHz.wav
3	50	1	2	0	C	2	1	807	1	poli_8sides 18_whiteLine3.jpg	MediumShort_b16_cut3_MS_stereo_44KHz.wav
3	51	4	4	2	I	2	0	538	0	poli_8sides 9_whiteLine3.jpg	MediumShort_e16_cut1_stereo_44KHz.wav
3	52	2	1	0	C	2	1	604	1	poli_8sides 7_whiteLine3.jpg	MediumShort_e22_cut1_stereo_44KHz.wav
3	53	3	4	2	I	2	0	711	0	poli_8sides 12_whiteLine3.jpg	MediumShort_e16_cut1_stereo_44KHz.wav
3	54	1	1	1	C	1	1	1024	1	poli_8sides 18_whiteLine3.jpg	MediumShort_e22_cut1_stereo_44KHz.wav
3	55	2	2	1	C	1	1	792	1	poli_8sides 7_whiteLine3.jpg	MediumShort_b16_cut3_MS_stereo_44KHz.wav
3	56	4	3	2	I	2	0	784	0	poli_8sides 9_whiteLine3.jpg	MediumShort_b10_cut1_MS_stereo_44KHz.wav
3	57	1	1	1	C	1	1	836	1	poli_8sides 18_whiteLine3.jpg	MediumShort_e22_cut1_stereo_44KHz.wav
3	58	2	1	0	C	2	1	699	1	poli_8sides 7_whiteLine3.jpg	MediumShort_e22_cut1_stereo_44KHz.wav
3	59	3	4	2	I	2	0	1108	0	poli_8sides 12_whiteLine3.jpg	MediumShort_e16_cut1_stereo_44KHz.wav
3	60	4	4	2	I	2	0	392	1	poli_8sides 9_whiteLine3.jpg	MediumShort_e16_cut1_stereo_44KHz.wav
3	61	3	3	2	I	2	0	974	0	poli_8sides 12_whiteLine3.jpg	MediumShort_b10_cut1_MS_stereo_44KHz.wav
3	62	2	2	1	C	1	1	1055	1	poli_8sides 7_whiteLine3.jpg	MediumShort_b16_cut3_MS_stereo_44KHz.wav
3	63	1	2	0	C	2	1	1214	1	poli_8sides 18_whiteLine3.jpg	MediumShort_b16_cut3_MS_stereo_44KHz.wav
3	64	4	3	2	I	1	0	904	1	poli_8sides 9_whiteLine3.jpg	MediumShort_b10_cut1_MS_stereo_44KHz.wav
3	65	2	1	0	C	2	1	665	1	poli_8sides 7_whiteLine3.jpg	MediumShort_e22_cut1_stereo_44KHz.wav
3	66	1	2	0	C	2	1	506	1	poli_8sides 18_whiteLine3.jpg	MediumShort_b16_cut3_MS_stereo_44KHz.wav
3	67	3	3	2	I	2	0	774	0	poli_8sides 12_whiteLine3.jpg	MediumShort_b10_cut1_MS_stereo_44KHz.wav
3	68	4	3	2	I	1	0	910	0	poli_8sides 9_whiteLine3.jpg	MediumShort_b10_cut1_MS_stereo_44KHz.wav
3	69	1	1	1	C	1	1	830	1	poli_8sides 18_whiteLine3.jpg	MediumShort_e22_cut1_stereo_44KHz.wav
3	70	3	4	2	I	2	0	809	1	poli_8sides 12_whiteLine3.jpg	MediumShort_e16_cut1_stereo_44KHz.wav
3	71	4	4	2	I	2	0	371	0	poli_8sides 9_whiteLine3.jpg	MediumShort_e16_cut1_stereo_44KHz.wav
3	72	2	2	1	C	1	1	1795	1	poli_8sides 7_whiteLine3.jpg	MediumShort_b16_cut3_MS_stereo_44KHz.wav
3	73	1	2	0	C	2	1	1155	1	poli_8sides 18_whiteLine3.jpg	MediumShort_b16_cut3_MS_stereo_44KHz.wav
3	74	2	1	0	C	2	1	870	1	poli_8sides 7_whiteLine3.jpg	MediumShort_e22_cut1_stereo_44KHz.wav
3	75	4	3	2	I	1	0	764	0	poli_8sides 9_whiteLine3.jpg	MediumShort_b10_cut1_MS_stereo_44KHz.wav
3	76	3	3	2	I	1	0	1065	1	poli_8sides 12_whiteLine3.jpg	MediumShort_b10_cut1_MS_stereo_44KHz.wav
3	77	2	2	1	C	1	1	917	1	poli_8sides 7_whiteLine3.jpg	MediumShort_b16_cut3_MS_stereo_44KHz.wav
3	78	1	1	1	C	1	1	802	1	poli_8sides 18_whiteLine3.jpg	MediumShort_e22_cut1_stereo_44KHz.wav
3	79	4	4	2	I	2	0	748	0	poli_8sides 9_whiteLine3.jpg	MediumShort_e16_cut1_stereo_44KHz.wav
3	80	3	4	2	I	2	0	803	1	poli_8sides 12_whiteLine3.jpg	MediumShort_e16_cut1_stereo_44KHz.wav
3	81	4	3	2	I	1	0	747	1	poli_8sides 9_whiteLine3.jpg	MediumShort_b10_cut1_MS_stereo_44KHz.wav
3	82	2	1	0	C	2	1	786	1	poli_8sides 7_whiteLine3.jpg	MediumShort_e22_cut1_stereo_44KHz.wav
3	83	1	2	0	C	2	1	739	1	poli_8sides 18_whiteLine3.jpg	MediumShort_b16_cut3_MS_stereo_44KHz.wav
3	84	3	4	2	I	2	0	774	0	poli_8sides 12_whiteLine3.jpg	MediumShort_e16_cut1_stereo_44KHz.wav
3	85	1	1	1	C	1	1	966	1	poli_8sides 18_whiteLine3.jpg	MediumShort_e22_cut1_stereo_44KHz.wav
3	86	2	2	1	C	1	1	696	1	poli_8sides 7_whiteLine3.jpg	MediumShort_b16_cut3_MS_stereo_44KHz.wav
3	87	3	3	2	I	2	0	764	1	poli_8sides 12_whiteLine3.jpg	MediumShort_b10_cut1_MS_stereo_44KHz.wav
3	88	4	4	2	I	1	0	758	1	poli_8sides 9_whiteLine3.jpg	MediumShort_e16_cut1_stereo_44KHz.wav
3	89	3	3	2	I	1	0	778	1	poli_8sides 12_whiteLine3.jpg	MediumShort_b10_cut1_MS_stereo_44KHz.wav
3	90	2	1	0	C	2	1	761	1	poli_8sides 7_whiteLine3.jpg	MediumShort_e22_cut1_stereo_44KHz.wav
3	91	1	2	0	C	2	1	865	1	poli_8sides 18_whiteLine3.jpg	MediumShort_b16_cut3_MS_stereo_44KHz.wav
3	92	4	3	2	I	1	0	849	1	poli_8sides 9_whiteLine3.jpg	MediumShort_b10_cut1_MS_stereo_44KHz.wav
3	93	2	2	1	C	1	1	885	1	poli_8sides 7_whiteLine3.jpg	MediumShort_b16_cut3_MS_stereo_44KHz.wav
3	94	3	4	2	I	2	0	727	0	poli_8sides 12_whiteLine3.jpg	MediumShort_e16_cut1_stereo_44KHz.wav
3	95	1	1	1	C	1	1	995	1	poli_8sides 18_whiteLine3.jpg	MediumShort_e22_cut1_stereo_44KHz.wav
3	96	4	4	2	I	1	0	827	1	poli_8sides 9_whiteLine3.jpg	MediumShort_e16_cut1_stereo_44KHz.wav
3	97	2	1	0	C	2	1	594	1	poli_8sides 7_whiteLine3.jpg	MediumShort_e22_cut1_stereo_44KHz.wav
3	98	3	4	2	I	2	0	1000	1	poli_8sides 12_whiteLine3.jpg	MediumShort_e16_cut1_stereo_44KHz.wav
3	99	4	3	2	I	2	0	818	0	poli_8sides 9_whiteLine3.jpg	MediumShort_b10_cut1_MS_stereo_44KHz.wav
3	100	1	2	0	C	2	1	661	1	poli_8sides 18_whiteLine3.jpg	MediumShort_b16_cut3_MS_stereo_44KHz.wav
3	101	2	2	1	C	1	1	842	1	poli_8sides 7_whiteLine3.jpg	MediumShort_b16_cut3_MS_stereo_44KHz.wav
3	102	1	1	1	C	1	1	688	1	poli_8sides 18_whiteLine3.jpg	MediumShort_e22_cut1_stereo_44KHz.wav
3	103	4	4	2	I	1	0	1205	0	poli_8sides 9_whiteLine3.jpg	MediumShort_e16_cut1_stereo_44KHz.wav
3	104	3	3	2	I	2	0	799	0	poli_8sides 12_whiteLine3.jpg	MediumShort_b10_cut1_MS_stereo_44KHz.wav
3	105	4	3	2	I	2	0	765	1	poli_8sides 9_whiteLine3.jpg	MediumShort_b10_cut1_MS_stereo_44KHz.wav
3	106	1	1	1	C	1	1	822	1	poli_8sides 18_whiteLine3.jpg	MediumShort_e22_cut1_stereo_44KHz.wav
3	107	2	1	0	C	2	1	567	1	poli_8sides 7_whiteLine3.jpg	MediumShort_e22_cut1_stereo_44KHz.wav
3	108	3	3	2	I	1	0	1007	1	poli_8sides 12_whiteLine3.jpg	MediumShort_b10_cut1_MS_stereo_44KHz.wav
3	109	2	2	1	C	1	1	739	1	poli_8sides 7_whiteLine3.jpg	MediumShort_b16_cut3_MS_stereo_44KHz.wav
3	110	4	4	2	I	2	0	721	1	poli_8sides 9_whiteLine3.jpg	MediumShort_e16_cut1_stereo_44KHz.wav
3	111	1	2	0	C	2	1	639	1	poli_8sides 18_whiteLine3.jpg	MediumShort_b16_cut3_MS_stereo_44KHz.wav
3	112	3	4	2	I	1	0	866	1	poli_8sides 12_whiteLine3.jpg	MediumShort_e16_cut1_stereo_44KHz.wav
3	113	1	1	1	C	2	0	492	0	poli_8sides 18_whiteLine3.jpg	MediumShort_e22_cut1_stereo_44KHz.wav
3	114	3	3	2	I	1	0	777	1	poli_8sides 12_whiteLine3.jpg	MediumShort_b10_cut1_MS_stereo_44KHz.wav
3	115	4	4	2	I	2	0	669	1	poli_8sides 9_whiteLine3.jpg	MediumShort_e16_cut1_stereo_44KHz.wav
3	116	2	1	0	C	2	1	757	1	poli_8sides 7_whiteLine3.jpg	MediumShort_e22_cut1_stereo_44KHz.wav
3	117	1	2	0	C	2	1	828	1	poli_8sides 18_whiteLine3.jpg	MediumShort_b16_cut3_MS_stereo_44KHz.wav
3	118	4	3	2	I	2	0	1498	1	poli_8sides 9_whiteLine3.jpg	MediumShort_b10_cut1_MS_stereo_44KHz.wav
3	119	3	4	2	I	1	0	699	0	poli_8sides 12_whiteLine3.jpg	MediumShort_e16_cut1_stereo_44KHz.wav
3	120	2	2	1	C	1	1	686	1	poli_8sides 7_whiteLine3.jpg	MediumShort_b16_cut3_MS_stereo_44KHz.wav
3	121	1	1	1	C	1	1	898	1	poli_8sides 18_whiteLine3.jpg	MediumShort_e22_cut1_stereo_44KHz.wav
3	122	4	3	2	I	2	0	661	0	poli_8sides 9_whiteLine3.jpg	MediumShort_b10_cut1_MS_stereo_44KHz.wav
3	123	3	4	2	I	2	0	939	0	poli_8sides 12_whiteLine3.jpg	MediumShort_e16_cut1_stereo_44KHz.wav
3	124	2	1	0	C	1	0	821	0	poli_8sides 7_whiteLine3.jpg	MediumShort_e22_cut1_stereo_44KHz.wav
3	125	1	2	0	C	2	1	815	1	poli_8sides 18_whiteLine3.jpg	MediumShort_b16_cut3_MS_stereo_44KHz.wav
3	126	3	3	2	I	1	0	1233	0	poli_8sides 12_whiteLine3.jpg	MediumShort_b10_cut1_MS_stereo_44KHz.wav
3	127	4	4	2	I	2	0	828	0	poli_8sides 9_whiteLine3.jpg	MediumShort_e16_cut1_stereo_44KHz.wav
3	128	2	2	1	C	1	1	1465	1	poli_8sides 7_whiteLine3.jpg	MediumShort_b16_cut3_MS_stereo_44KHz.wav
3	129	3	3	2	I	2	0	670	0	poli_8sides 12_whiteLine3.jpg	MediumShort_b10_cut1_MS_stereo_44KHz.wav
3	130	4	3	2	I	2	0	912	0	poli_8sides 9_whiteLine3.jpg	MediumShort_b10_cut1_MS_stereo_44KHz.wav
3	131	1	2	0	C	2	1	644	1	poli_8sides 18_whiteLine3.jpg	MediumShort_b16_cut3_MS_stereo_44KHz.wav
3	132	2	1	0	C	2	1	995	1	poli_8sides 7_whiteLine3.jpg	MediumShort_e22_cut1_stereo_44KHz.wav
3	133	4	4	2	I	1	0	966	0	poli_8sides 9_whiteLine3.jpg	MediumShort_e16_cut1_stereo_44KHz.wav
3	134	2	2	1	C	1	1	780	1	poli_8sides 7_whiteLine3.jpg	MediumShort_b16_cut3_MS_stereo_44KHz.wav
3	135	3	4	2	I	1	0	904	0	poli_8sides 12_whiteLine3.jpg	MediumShort_e16_cut1_stereo_44KHz.wav
3	136	1	1	1	C	1	1	831	1	poli_8sides 18_whiteLine3.jpg	MediumShort_e22_cut1_stereo_44KHz.wav
3	137	4	3	2	I	2	0	762	1	poli_8sides 9_whiteLine3.jpg	MediumShort_b10_cut1_MS_stereo_44KHz.wav
3	138	2	2	1	C	1	1	692	1	poli_8sides 7_whiteLine3.jpg	MediumShort_b16_cut3_MS_stereo_44KHz.wav
3	139	3	3	2	I	2	0	754	1	poli_8sides 12_whiteLine3.jpg	MediumShort_b10_cut1_MS_stereo_44KHz.wav
3	140	1	2	0	C	2	1	995	1	poli_8sides 18_whiteLine3.jpg	MediumShort_b16_cut3_MS_stereo_44KHz.wav
3	141	3	4	2	I	2	0	1112	1	poli_8sides 12_whiteLine3.jpg	MediumShort_e16_cut1_stereo_44KHz.wav
3	142	2	1	0	C	1	0	470	0	poli_8sides 7_whiteLine3.jpg	MediumShort_e22_cut1_stereo_44KHz.wav
3	143	4	4	2	I	2	0	682	1	poli_8sides 9_whiteLine3.jpg	MediumShort_e16_cut1_stereo_44KHz.wav
3	144	1	1	1	C	1	1	709	1	poli_8sides 18_whiteLine3.jpg	MediumShort_e22_cut1_stereo_44KHz.wav
3	145	2	2	1	C	1	1	824	1	poli_8sides 7_whiteLine3.jpg	MediumShort_b16_cut3_MS_stereo_44KHz.wav
3	146	4	3	2	I	2	0	954	1	poli_8sides 9_whiteLine3.jpg	MediumShort_b10_cut1_MS_stereo_44KHz.wav
3	147	3	3	2	I	2	0	674	0	poli_8sides 12_whiteLine3.jpg	MediumShort_b10_cut1_MS_stereo_44KHz.wav
3	148	1	2	0	C	2	1	733	1	poli_8sides 18_whiteLine3.jpg	MediumShort_b16_cut3_MS_stereo_44KHz.wav
3	149	4	4	2	I	2	0	637	1	poli_8sides 9_whiteLine3.jpg	MediumShort_e16_cut1_stereo_44KHz.wav
3	150	3	4	2	I	2	0	714	1	poli_8sides 12_whiteLine3.jpg	MediumShort_e16_cut1_stereo_44KHz.wav
3	151	1	1	1	C	1	1	696	1	poli_8sides 18_whiteLine3.jpg	MediumShort_e22_cut1_stereo_44KHz.wav
3	152	2	1	0	C	2	1	650	1	poli_8sides 7_whiteLine3.jpg	MediumShort_e22_cut1_stereo_44KHz.wav
3	153	3	3	2	I	2	0	737	1	poli_8sides 12_whiteLine3.jpg	MediumShort_b10_cut1_MS_stereo_44KHz.wav
3	154	2	2	1	C	1	1	655	1	poli_8sides 7_whiteLine3.jpg	MediumShort_b16_cut3_MS_stereo_44KHz.wav
3	155	4	3	2	I	2	0	644	1	poli_8sides 9_whiteLine3.jpg	MediumShort_b10_cut1_MS_stereo_44KHz.wav
3	156	1	2	0	C	2	1	952	1	poli_8sides 18_whiteLine3.jpg	MediumShort_b16_cut3_MS_stereo_44KHz.wav
3	157	3	4	2	I	2	0	722	0	poli_8sides 12_whiteLine3.jpg	MediumShort_e16_cut1_stereo_44KHz.wav
3	158	2	1	0	C	2	1	625	1	poli_8sides 7_whiteLine3.jpg	MediumShort_e22_cut1_stereo_44KHz.wav
3	159	4	4	2	I	2	0	982	1	poli_8sides 9_whiteLine3.jpg	MediumShort_e16_cut1_stereo_44KHz.wav
3	160	1	1	1	C	1	1	867	1	poli_8sides 18_whiteLine3.jpg	MediumShort_e22_cut1_stereo_44KHz.wav
3	161	4	4	2	I	2	0	593	0	poli_8sides 9_whiteLine3.jpg	MediumShort_e16_cut1_stereo_44KHz.wav
3	162	2	1	0	C	2	1	939	1	poli_8sides 7_whiteLine3.jpg	MediumShort_e22_cut1_stereo_44KHz.wav
3	163	1	2	0	C	2	1	1013	1	poli_8sides 18_whiteLine3.jpg	MediumShort_b16_cut3_MS_stereo_44KHz.wav
3	164	3	4	2	I	1	0	820	0	poli_8sides 12_whiteLine3.jpg	MediumShort_e16_cut1_stereo_44KHz.wav
3	165	2	2	1	C	1	1	738	1	poli_8sides 7_whiteLine3.jpg	MediumShort_b16_cut3_MS_stereo_44KHz.wav
3	166	1	1	1	C	1	1	662	1	poli_8sides 18_whiteLine3.jpg	MediumShort_e22_cut1_stereo_44KHz.wav
3	167	4	3	2	I	2	0	921	0	poli_8sides 9_whiteLine3.jpg	MediumShort_b10_cut1_MS_stereo_44KHz.wav
3	168	3	3	2	I	2	0	703	1	poli_8sides 12_whiteLine3.jpg	MediumShort_b10_cut1_MS_stereo_44KHz.wav
3	169	4	3	2	I	2	0	668	0	poli_8sides 9_whiteLine3.jpg	MediumShort_b10_cut1_MS_stereo_44KHz.wav
3	170	1	2	0	C	2	1	483	1	poli_8sides 18_whiteLine3.jpg	MediumShort_b16_cut3_MS_stereo_44KHz.wav
3	171	2	2	1	C	1	1	907	1	poli_8sides 7_whiteLine3.jpg	MediumShort_b16_cut3_MS_stereo_44KHz.wav
3	172	3	4	2	I	2	0	1028	1	poli_8sides 12_whiteLine3.jpg	MediumShort_e16_cut1_stereo_44KHz.wav
3	173	2	1	0	C	1	0	711	0	poli_8sides 7_whiteLine3.jpg	MediumShort_e22_cut1_stereo_44KHz.wav
3	174	1	1	1	C	1	1	1040	1	poli_8sides 18_whiteLine3.jpg	MediumShort_e22_cut1_stereo_44KHz.wav
3	175	4	4	2	I	2	0	657	1	poli_8sides 9_whiteLine3.jpg	MediumShort_e16_cut1_stereo_44KHz.wav
3	176	3	3	2	I	2	0	1078	0	poli_8sides 12_whiteLine3.jpg	MediumShort_b10_cut1_MS_stereo_44KHz.wav
3	177	2	1	0	C	2	1	693	1	poli_8sides 7_whiteLine3.jpg	MediumShort_e22_cut1_stereo_44KHz.wav
3	178	4	3	2	I	1	0	826	0	poli_8sides 9_whiteLine3.jpg	MediumShort_b10_cut1_MS_stereo_44KHz.wav
3	179	3	4	2	I	1	0	898	1	poli_8sides 12_whiteLine3.jpg	MediumShort_e16_cut1_stereo_44KHz.wav
3	180	1	2	0	C	2	1	749	1	poli_8sides 18_whiteLine3.jpg	MediumShort_b16_cut3_MS_stereo_44KHz.wav
3	181	2	2	1	C	1	1	1196	1	poli_8sides 7_whiteLine3.jpg	MediumShort_b16_cut3_MS_stereo_44KHz.wav
3	182	4	4	2	I	2	0	809	1	poli_8sides 9_whiteLine3.jpg	MediumShort_e16_cut1_stereo_44KHz.wav
3	183	3	3	2	I	2	0	549	0	poli_8sides 12_whiteLine3.jpg	MediumShort_b10_cut1_MS_stereo_44KHz.wav
3	184	1	1	1	C	1	1	886	1	poli_8sides 18_whiteLine3.jpg	MediumShort_e22_cut1_stereo_44KHz.wav
3	185	3	4	2	I	2	0	701	0	poli_8sides 12_whiteLine3.jpg	MediumShort_e16_cut1_stereo_44KHz.wav
3	186	4	3	2	I	2	0	1038	1	poli_8sides 9_whiteLine3.jpg	MediumShort_b10_cut1_MS_stereo_44KHz.wav
3	187	1	2	0	C	2	1	616	1	poli_8sides 18_whiteLine3.jpg	MediumShort_b16_cut3_MS_stereo_44KHz.wav
3	188	2	2	1	C	1	1	743	1	poli_8sides 7_whiteLine3.jpg	MediumShort_b16_cut3_MS_stereo_44KHz.wav
3	189	1	1	1	C	1	1	747	1	poli_8sides 18_whiteLine3.jpg	MediumShort_e22_cut1_stereo_44KHz.wav
3	190	4	4	2	I	2	0	1117	1	poli_8sides 9_whiteLine3.jpg	MediumShort_e16_cut1_stereo_44KHz.wav
3	191	3	3	2	I	1	0	653	0	poli_8sides 12_whiteLine3.jpg	MediumShort_b10_cut1_MS_stereo_44KHz.wav
3	192	2	1	0	C	2	1	790	1	poli_8sides 7_whiteLine3.jpg	MediumShort_e22_cut1_stereo_44KHz.wav
3	193	4	4	2	I	2	0	665	1	poli_8sides 9_whiteLine3.jpg	MediumShort_e16_cut1_stereo_44KHz.wav
3	194	1	2	0	C	2	1	878	1	poli_8sides 18_whiteLine3.jpg	MediumShort_b16_cut3_MS_stereo_44KHz.wav
3	195	2	1	0	C	2	1	697	1	poli_8sides 7_whiteLine3.jpg	MediumShort_e22_cut1_stereo_44KHz.wav
3	196	3	3	2	I	2	0	529	1	poli_8sides 12_whiteLine3.jpg	MediumShort_b10_cut1_MS_stereo_44KHz.wav
3	197	1	1	1	C	1	1	750	1	poli_8sides 18_whiteLine3.jpg	MediumShort_e22_cut1_stereo_44KHz.wav
3	198	4	3	2	I	2	0	1178	0	poli_8sides 9_whiteLine3.jpg	MediumShort_b10_cut1_MS_stereo_44KHz.wav
3	199	3	4	2	I	2	0	1067	0	poli_8sides 12_whiteLine3.jpg	MediumShort_e16_cut1_stereo_44KHz.wav
3	200	2	2	1	C	1	1	721	1	poli_8sides 7_whiteLine3.jpg	MediumShort_b16_cut3_MS_stereo_44KHz.wav
4	1	2	2	1	C	1	1	1428	1	poli_8sides 8_whiteLine3.jpg	Medium_e13_stereo_44KHz.wav
4	2	1	2	0	C	2	1	808	1	poli_8sides 13_whiteLine3.jpg	Medium_e13_stereo_44KHz.wav
4	3	3	4	2	I	1	0	1393	1	poli_8sides 10_whiteLine3.jpg	MediumLong_e17_cut2_stereo_44KHz.wav
4	4	4	3	2	I	0	0	0	0	poli_8sides 3_whiteLine3.jpg	MediumLong_e04_stereo_44KHz.wav
4	5	1	1	1	C	2	0	1365	0	poli_8sides 13_whiteLine3.jpg	MediumLong_e19_stereo_44KHz.wav
4	6	4	4	2	I	2	0	869	1	poli_8sides 3_whiteLine3.jpg	MediumLong_e17_cut2_stereo_44KHz.wav
4	7	2	1	0	C	2	1	1073	1	poli_8sides 8_whiteLine3.jpg	MediumLong_e19_stereo_44KHz.wav
4	8	3	3	2	I	2	0	1334	0	poli_8sides 10_whiteLine3.jpg	MediumLong_e04_stereo_44KHz.wav
4	9	1	1	1	C	2	0	1210	0	poli_8sides 13_whiteLine3.jpg	MediumLong_e19_stereo_44KHz.wav
4	10	4	3	2	I	2	0	712	0	poli_8sides 3_whiteLine3.jpg	MediumLong_e04_stereo_44KHz.wav
4	11	2	1	0	C	2	1	1266	1	poli_8sides 8_whiteLine3.jpg	MediumLong_e19_stereo_44KHz.wav
4	12	3	4	2	I	1	0	1106	1	poli_8sides 10_whiteLine3.jpg	MediumLong_e17_cut2_stereo_44KHz.wav
4	13	2	2	1	C	2	0	1069	0	poli_8sides 8_whiteLine3.jpg	Medium_e13_stereo_44KHz.wav
4	14	3	3	2	I	2	0	1109	1	poli_8sides 10_whiteLine3.jpg	MediumLong_e04_stereo_44KHz.wav
4	15	1	2	0	C	1	0	807	0	poli_8sides 13_whiteLine3.jpg	Medium_e13_stereo_44KHz.wav
4	16	4	4	2	I	1	0	1682	1	poli_8sides 3_whiteLine3.jpg	MediumLong_e17_cut2_stereo_44KHz.wav
4	17	2	1	0	C	1	0	817	0	poli_8sides 8_whiteLine3.jpg	MediumLong_e19_stereo_44KHz.wav
4	18	1	2	0	C	2	1	803	1	poli_8sides 13_whiteLine3.jpg	Medium_e13_stereo_44KHz.wav
4	19	3	3	2	I	1	0	1233	1	poli_8sides 10_whiteLine3.jpg	MediumLong_e04_stereo_44KHz.wav
4	20	4	3	2	I	2	0	805	1	poli_8sides 3_whiteLine3.jpg	MediumLong_e04_stereo_44KHz.wav
4	21	3	4	2	I	2	0	1322	0	poli_8sides 10_whiteLine3.jpg	MediumLong_e17_cut2_stereo_44KHz.wav
4	22	2	2	1	C	1	1	823	1	poli_8sides 8_whiteLine3.jpg	Medium_e13_stereo_44KHz.wav
4	23	4	4	2	I	1	0	1041	1	poli_8sides 3_whiteLine3.jpg	MediumLong_e17_cut2_stereo_44KHz.wav
4	24	1	1	1	C	2	0	1199	0	poli_8sides 13_whiteLine3.jpg	MediumLong_e19_stereo_44KHz.wav
4	25	2	2	1	C	1	1	1185	1	poli_8sides 8_whiteLine3.jpg	Medium_e13_stereo_44KHz.wav
4	26	3	4	2	I	1	0	1644	1	poli_8sides 10_whiteLine3.jpg	MediumLong_e17_cut2_stereo_44KHz.wav
4	27	1	2	0	C	1	0	1082	0	poli_8sides 13_whiteLine3.jpg	Medium_e13_stereo_44KHz.wav
4	28	4	3	2	I	2	0	1395	0	poli_8sides 3_whiteLine3.jpg	MediumLong_e04_stereo_44KHz.wav
4	29	3	3	2	I	2	0	827	0	poli_8sides 10_whiteLine3.jpg	MediumLong_e04_stereo_44KHz.wav
4	30	2	1	0	C	2	1	1458	1	poli_8sides 8_whiteLine3.jpg	MediumLong_e19_stereo_44KHz.wav
4	31	1	1	1	C	1	1	782	1	poli_8sides 13_whiteLine3.jpg	MediumLong_e19_stereo_44KHz.wav
4	32	4	4	2	I	1	0	1023	0	poli_8sides 3_whiteLine3.jpg	MediumLong_e17_cut2_stereo_44KHz.wav
4	33	3	4	2	I	1	0	763	0	poli_8sides 10_whiteLine3.jpg	MediumLong_e17_cut2_stereo_44KHz.wav
4	34	4	4	2	I	2	0	1019	0	poli_8sides 3_whiteLine3.jpg	MediumLong_e17_cut2_stereo_44KHz.wav
4	35	1	2	0	C	1	0	1039	0	poli_8sides 13_whiteLine3.jpg	Medium_e13_stereo_44KHz.wav
4	36	2	2	1	C	2	0	1081	0	poli_8sides 8_whiteLine3.jpg	Medium_e13_stereo_44KHz.wav
4	37	4	3	2	I	2	0	824	1	poli_8sides 3_whiteLine3.jpg	MediumLong_e04_stereo_44KHz.wav
4	38	1	1	1	C	2	0	1357	0	poli_8sides 13_whiteLine3.jpg	MediumLong_e19_stereo_44KHz.wav
4	39	2	1	0	C	2	1	1747	1	poli_8sides 8_whiteLine3.jpg	MediumLong_e19_stereo_44KHz.wav
4	40	3	3	2	I	2	0	761	0	poli_8sides 10_whiteLine3.jpg	MediumLong_e04_stereo_44KHz.wav
4	41	4	3	2	I	2	0	740	0	poli_8sides 3_whiteLine3.jpg	MediumLong_e04_stereo_44KHz.wav
4	42	2	2	1	C	1	1	1166	1	poli_8sides 8_whiteLine3.jpg	Medium_e13_stereo_44KHz.wav
4	43	3	3	2	I	2	0	719	1	poli_8sides 10_whiteLine3.jpg	MediumLong_e04_stereo_44KHz.wav
4	44	1	1	1	C	1	1	1555	1	poli_8sides 13_whiteLine3.jpg	MediumLong_e19_stereo_44KHz.wav
4	45	2	1	0	C	2	1	1794	1	poli_8sides 8_whiteLine3.jpg	MediumLong_e19_stereo_44KHz.wav
4	46	3	4	2	I	1	0	1423	0	poli_8sides 10_whiteLine3.jpg	MediumLong_e17_cut2_stereo_44KHz.wav
4	47	4	4	2	I	1	0	1772	0	poli_8sides 3_whiteLine3.jpg	MediumLong_e17_cut2_stereo_44KHz.wav
4	48	1	2	0	C	2	1	1075	1	poli_8sides 13_whiteLine3.jpg	Medium_e13_stereo_44KHz.wav
4	49	2	1	0	C	1	0	1430	0	poli_8sides 8_whiteLine3.jpg	MediumLong_e19_stereo_44KHz.wav
4	50	1	1	1	C	2	0	918	0	poli_8sides 13_whiteLine3.jpg	MediumLong_e19_stereo_44KHz.wav
4	51	4	3	2	I	2	0	660	1	poli_8sides 3_whiteLine3.jpg	MediumLong_e04_stereo_44KHz.wav
4	52	3	3	2	I	1	0	1342	0	poli_8sides 10_whiteLine3.jpg	MediumLong_e04_stereo_44KHz.wav
4	53	1	2	0	C	2	1	754	1	poli_8sides 13_whiteLine3.jpg	Medium_e13_stereo_44KHz.wav
4	54	4	4	2	I	2	0	985	0	poli_8sides 3_whiteLine3.jpg	MediumLong_e17_cut2_stereo_44KHz.wav
4	55	3	4	2	I	2	0	683	0	poli_8sides 10_whiteLine3.jpg	MediumLong_e17_cut2_stereo_44KHz.wav
4	56	2	2	1	C	1	1	1009	1	poli_8sides 8_whiteLine3.jpg	Medium_e13_stereo_44KHz.wav
4	57	3	4	2	I	1	0	838	1	poli_8sides 10_whiteLine3.jpg	MediumLong_e17_cut2_stereo_44KHz.wav
4	58	4	4	2	I	1	0	1016	0	poli_8sides 3_whiteLine3.jpg	MediumLong_e17_cut2_stereo_44KHz.wav
4	59	2	2	1	C	1	1	805	1	poli_8sides 8_whiteLine3.jpg	Medium_e13_stereo_44KHz.wav
4	60	1	2	0	C	2	1	1191	1	poli_8sides 13_whiteLine3.jpg	Medium_e13_stereo_44KHz.wav
4	61	3	3	2	I	2	0	1035	1	poli_8sides 10_whiteLine3.jpg	MediumLong_e04_stereo_44KHz.wav
4	62	4	3	2	I	2	0	1081	0	poli_8sides 3_whiteLine3.jpg	MediumLong_e04_stereo_44KHz.wav
4	63	2	1	0	C	2	1	1102	1	poli_8sides 8_whiteLine3.jpg	MediumLong_e19_stereo_44KHz.wav
4	64	1	1	1	C	1	1	1056	1	poli_8sides 13_whiteLine3.jpg	MediumLong_e19_stereo_44KHz.wav
4	65	4	3	2	I	1	0	898	1	poli_8sides 3_whiteLine3.jpg	MediumLong_e04_stereo_44KHz.wav
4	66	1	1	1	C	2	0	1053	0	poli_8sides 13_whiteLine3.jpg	MediumLong_e19_stereo_44KHz.wav
4	67	3	3	2	I	1	0	1672	0	poli_8sides 10_whiteLine3.jpg	MediumLong_e04_stereo_44KHz.wav
4	68	2	2	1	C	1	1	1692	1	poli_8sides 8_whiteLine3.jpg	Medium_e13_stereo_44KHz.wav
4	69	4	4	2	I	2	0	931	0	poli_8sides 3_whiteLine3.jpg	MediumLong_e17_cut2_stereo_44KHz.wav
4	70	3	4	2	I	1	0	924	1	poli_8sides 10_whiteLine3.jpg	MediumLong_e17_cut2_stereo_44KHz.wav
4	71	2	1	0	C	0	0	0	0	poli_8sides 8_whiteLine3.jpg	MediumLong_e19_stereo_44KHz.wav
4	72	1	2	0	C	2	1	839	1	poli_8sides 13_whiteLine3.jpg	Medium_e13_stereo_44KHz.wav
4	73	2	2	1	C	1	1	616	1	poli_8sides 8_whiteLine3.jpg	Medium_e13_stereo_44KHz.wav
4	74	3	4	2	I	1	0	934	1	poli_8sides 10_whiteLine3.jpg	MediumLong_e17_cut2_stereo_44KHz.wav
4	75	1	2	0	C	2	1	1334	1	poli_8sides 13_whiteLine3.jpg	Medium_e13_stereo_44KHz.wav
4	76	4	3	2	I	2	0	768	1	poli_8sides 3_whiteLine3.jpg	MediumLong_e04_stereo_44KHz.wav
4	77	1	1	1	C	1	1	1806	1	poli_8sides 13_whiteLine3.jpg	MediumLong_e19_stereo_44KHz.wav
4	78	4	4	2	I	1	0	1664	0	poli_8sides 3_whiteLine3.jpg	MediumLong_e17_cut2_stereo_44KHz.wav
4	79	2	1	0	C	0	0	0	0	poli_8sides 8_whiteLine3.jpg	MediumLong_e19_stereo_44KHz.wav
4	80	3	3	2	I	2	0	834	1	poli_8sides 10_whiteLine3.jpg	MediumLong_e04_stereo_44KHz.wav
4	81	4	3	2	I	2	0	505	0	poli_8sides 3_whiteLine3.jpg	MediumLong_e04_stereo_44KHz.wav
4	82	2	1	0	C	1	0	1462	0	poli_8sides 8_whiteLine3.jpg	MediumLong_e19_stereo_44KHz.wav
4	83	1	1	1	C	1	1	849	1	poli_8sides 13_whiteLine3.jpg	MediumLong_e19_stereo_44KHz.wav
4	84	3	4	2	I	1	0	1086	0	poli_8sides 10_whiteLine3.jpg	MediumLong_e17_cut2_stereo_44KHz.wav
4	85	4	4	2	I	2	0	867	1	poli_8sides 3_whiteLine3.jpg	MediumLong_e17_cut2_stereo_44KHz.wav
4	86	2	2	1	C	2	0	1630	0	poli_8sides 8_whiteLine3.jpg	Medium_e13_stereo_44KHz.wav
4	87	3	3	2	I	2	0	931	1	poli_8sides 10_whiteLine3.jpg	MediumLong_e04_stereo_44KHz.wav
4	88	1	2	0	C	2	1	631	1	poli_8sides 13_whiteLine3.jpg	Medium_e13_stereo_44KHz.wav
4	89	2	1	0	C	2	1	800	1	poli_8sides 8_whiteLine3.jpg	MediumLong_e19_stereo_44KHz.wav
4	90	1	1	1	C	1	1	1123	1	poli_8sides 13_whiteLine3.jpg	MediumLong_e19_stereo_44KHz.wav
4	91	4	3	2	I	1	0	1694	0	poli_8sides 3_whiteLine3.jpg	MediumLong_e04_stereo_44KHz.wav
4	92	3	3	2	I	2	0	695	1	poli_8sides 10_whiteLine3.jpg	MediumLong_e04_stereo_44KHz.wav
4	93	2	2	1	C	2	0	1160	0	poli_8sides 8_whiteLine3.jpg	Medium_e13_stereo_44KHz.wav
4	94	1	2	0	C	2	1	540	1	poli_8sides 13_whiteLine3.jpg	Medium_e13_stereo_44KHz.wav
4	95	4	4	2	I	2	0	991	1	poli_8sides 3_whiteLine3.jpg	MediumLong_e17_cut2_stereo_44KHz.wav
4	96	3	4	2	I	2	0	865	1	poli_8sides 10_whiteLine3.jpg	MediumLong_e17_cut2_stereo_44KHz.wav
4	97	2	1	0	C	2	1	1052	1	poli_8sides 8_whiteLine3.jpg	MediumLong_e19_stereo_44KHz.wav
4	98	1	1	1	C	1	1	993	1	poli_8sides 13_whiteLine3.jpg	MediumLong_e19_stereo_44KHz.wav
4	99	3	4	2	I	2	0	760	0	poli_8sides 10_whiteLine3.jpg	MediumLong_e17_cut2_stereo_44KHz.wav
4	100	4	3	2	I	2	0	663	1	poli_8sides 3_whiteLine3.jpg	MediumLong_e04_stereo_44KHz.wav
4	101	3	3	2	I	2	0	789	1	poli_8sides 10_whiteLine3.jpg	MediumLong_e04_stereo_44KHz.wav
4	102	2	2	1	C	1	1	1519	1	poli_8sides 8_whiteLine3.jpg	Medium_e13_stereo_44KHz.wav
4	103	1	2	0	C	2	1	612	1	poli_8sides 13_whiteLine3.jpg	Medium_e13_stereo_44KHz.wav
4	104	4	4	2	I	1	0	1212	1	poli_8sides 3_whiteLine3.jpg	MediumLong_e17_cut2_stereo_44KHz.wav
4	105	3	3	2	I	2	0	927	1	poli_8sides 10_whiteLine3.jpg	MediumLong_e04_stereo_44KHz.wav
4	106	1	1	1	C	1	1	999	1	poli_8sides 13_whiteLine3.jpg	MediumLong_e19_stereo_44KHz.wav
4	107	4	4	2	I	1	0	1106	1	poli_8sides 3_whiteLine3.jpg	MediumLong_e17_cut2_stereo_44KHz.wav
4	108	2	1	0	C	2	1	891	1	poli_8sides 8_whiteLine3.jpg	MediumLong_e19_stereo_44KHz.wav
4	109	1	2	0	C	2	1	1517	1	poli_8sides 13_whiteLine3.jpg	Medium_e13_stereo_44KHz.wav
4	110	4	3	2	I	1	0	959	1	poli_8sides 3_whiteLine3.jpg	MediumLong_e04_stereo_44KHz.wav
4	111	2	2	1	C	1	1	1260	1	poli_8sides 8_whiteLine3.jpg	Medium_e13_stereo_44KHz.wav
4	112	3	4	2	I	1	0	1193	0	poli_8sides 10_whiteLine3.jpg	MediumLong_e17_cut2_stereo_44KHz.wav
4	113	4	3	2	I	2	0	705	1	poli_8sides 3_whiteLine3.jpg	MediumLong_e04_stereo_44KHz.wav
4	114	1	2	0	C	2	1	1213	1	poli_8sides 13_whiteLine3.jpg	Medium_e13_stereo_44KHz.wav
4	115	2	1	0	C	2	1	975	1	poli_8sides 8_whiteLine3.jpg	MediumLong_e19_stereo_44KHz.wav
4	116	3	4	2	I	1	0	1041	0	poli_8sides 10_whiteLine3.jpg	MediumLong_e17_cut2_stereo_44KHz.wav
4	117	2	2	1	C	1	1	1821	1	poli_8sides 8_whiteLine3.jpg	Medium_e13_stereo_44KHz.wav
4	118	1	1	1	C	1	1	1439	1	poli_8sides 13_whiteLine3.jpg	MediumLong_e19_stereo_44KHz.wav
4	119	3	3	2	I	2	0	636	0	poli_8sides 10_whiteLine3.jpg	MediumLong_e04_stereo_44KHz.wav
4	120	4	4	2	I	1	0	963	1	poli_8sides 3_whiteLine3.jpg	MediumLong_e17_cut2_stereo_44KHz.wav
4	121	1	1	1	C	1	1	1355	1	poli_8sides 13_whiteLine3.jpg	MediumLong_e19_stereo_44KHz.wav
4	122	4	3	2	I	2	0	1226	0	poli_8sides 3_whiteLine3.jpg	MediumLong_e04_stereo_44KHz.wav
4	123	2	1	0	C	2	1	1115	1	poli_8sides 8_whiteLine3.jpg	MediumLong_e19_stereo_44KHz.wav
4	124	3	3	2	I	2	0	651	1	poli_8sides 10_whiteLine3.jpg	MediumLong_e04_stereo_44KHz.wav
4	125	4	4	2	I	2	0	1300	1	poli_8sides 3_whiteLine3.jpg	MediumLong_e17_cut2_stereo_44KHz.wav
4	126	1	2	0	C	2	1	1117	1	poli_8sides 13_whiteLine3.jpg	Medium_e13_stereo_44KHz.wav
4	127	2	2	1	C	1	1	706	1	poli_8sides 8_whiteLine3.jpg	Medium_e13_stereo_44KHz.wav
4	128	3	4	2	I	2	0	997	0	poli_8sides 10_whiteLine3.jpg	MediumLong_e17_cut2_stereo_44KHz.wav
4	129	1	1	1	C	1	1	1167	1	poli_8sides 13_whiteLine3.jpg	MediumLong_e19_stereo_44KHz.wav
4	130	2	2	1	C	1	1	1162	1	poli_8sides 8_whiteLine3.jpg	Medium_e13_stereo_44KHz.wav
4	131	4	3	2	I	2	0	710	0	poli_8sides 3_whiteLine3.jpg	MediumLong_e04_stereo_44KHz.wav
4	132	3	3	2	I	2	0	716	0	poli_8sides 10_whiteLine3.jpg	MediumLong_e04_stereo_44KHz.wav
4	133	2	1	0	C	2	1	1042	1	poli_8sides 8_whiteLine3.jpg	MediumLong_e19_stereo_44KHz.wav
4	134	3	4	2	I	2	0	784	0	poli_8sides 10_whiteLine3.jpg	MediumLong_e17_cut2_stereo_44KHz.wav
4	135	1	2	0	C	2	1	1448	1	poli_8sides 13_whiteLine3.jpg	Medium_e13_stereo_44KHz.wav
4	136	4	4	2	I	2	0	822	0	poli_8sides 3_whiteLine3.jpg	MediumLong_e17_cut2_stereo_44KHz.wav
4	137	2	1	0	C	2	1	1552	1	poli_8sides 8_whiteLine3.jpg	MediumLong_e19_stereo_44KHz.wav
4	138	4	3	2	I	2	0	791	1	poli_8sides 3_whiteLine3.jpg	MediumLong_e04_stereo_44KHz.wav
4	139	3	3	2	I	2	0	415	1	poli_8sides 10_whiteLine3.jpg	MediumLong_e04_stereo_44KHz.wav
4	140	1	1	1	C	1	1	1317	1	poli_8sides 13_whiteLine3.jpg	MediumLong_e19_stereo_44KHz.wav
4	141	4	4	2	I	1	0	909	0	poli_8sides 3_whiteLine3.jpg	MediumLong_e17_cut2_stereo_44KHz.wav
4	142	1	2	0	C	2	1	1006	1	poli_8sides 13_whiteLine3.jpg	Medium_e13_stereo_44KHz.wav
4	143	2	2	1	C	1	1	742	1	poli_8sides 8_whiteLine3.jpg	Medium_e13_stereo_44KHz.wav
4	144	3	4	2	I	2	0	1177	1	poli_8sides 10_whiteLine3.jpg	MediumLong_e17_cut2_stereo_44KHz.wav
4	145	4	4	2	I	1	0	1247	1	poli_8sides 3_whiteLine3.jpg	MediumLong_e17_cut2_stereo_44KHz.wav
4	146	1	2	0	C	2	1	959	1	poli_8sides 13_whiteLine3.jpg	Medium_e13_stereo_44KHz.wav
4	147	2	2	1	C	1	1	541	1	poli_8sides 8_whiteLine3.jpg	Medium_e13_stereo_44KHz.wav
4	148	3	3	2	I	2	0	822	1	poli_8sides 10_whiteLine3.jpg	MediumLong_e04_stereo_44KHz.wav
4	149	4	3	2	I	2	0	757	1	poli_8sides 3_whiteLine3.jpg	MediumLong_e04_stereo_44KHz.wav
4	150	2	1	0	C	2	1	1215	1	poli_8sides 8_whiteLine3.jpg	MediumLong_e19_stereo_44KHz.wav
4	151	3	4	2	I	2	0	1036	1	poli_8sides 10_whiteLine3.jpg	MediumLong_e17_cut2_stereo_44KHz.wav
4	152	1	1	1	C	1	1	1132	1	poli_8sides 13_whiteLine3.jpg	MediumLong_e19_stereo_44KHz.wav
4	153	3	3	2	I	2	0	581	0	poli_8sides 10_whiteLine3.jpg	MediumLong_e04_stereo_44KHz.wav
4	154	4	4	2	I	1	0	1040	0	poli_8sides 3_whiteLine3.jpg	MediumLong_e17_cut2_stereo_44KHz.wav
4	155	1	1	1	C	1	1	1009	1	poli_8sides 13_whiteLine3.jpg	MediumLong_e19_stereo_44KHz.wav
4	156	2	2	1	C	1	1	1350	1	poli_8sides 8_whiteLine3.jpg	Medium_e13_stereo_44KHz.wav
4	157	4	3	2	I	2	0	1675	1	poli_8sides 3_whiteLine3.jpg	MediumLong_e04_stereo_44KHz.wav
4	158	1	2	0	C	2	1	1160	1	poli_8sides 13_whiteLine3.jpg	Medium_e13_stereo_44KHz.wav
4	159	2	1	0	C	2	1	1089	1	poli_8sides 8_whiteLine3.jpg	MediumLong_e19_stereo_44KHz.wav
4	160	3	4	2	I	2	0	861	0	poli_8sides 10_whiteLine3.jpg	MediumLong_e17_cut2_stereo_44KHz.wav
4	161	1	2	0	C	2	1	897	1	poli_8sides 13_whiteLine3.jpg	Medium_e13_stereo_44KHz.wav
4	162	2	1	0	C	2	1	822	1	poli_8sides 8_whiteLine3.jpg	MediumLong_e19_stereo_44KHz.wav
4	163	4	3	2	I	2	0	683	0	poli_8sides 3_whiteLine3.jpg	MediumLong_e04_stereo_44KHz.wav
4	164	3	3	2	I	2	0	1144	1	poli_8sides 10_whiteLine3.jpg	MediumLong_e04_stereo_44KHz.wav
4	165	1	1	1	C	1	1	1177	1	poli_8sides 13_whiteLine3.jpg	MediumLong_e19_stereo_44KHz.wav
4	166	4	4	2	I	2	0	1797	1	poli_8sides 3_whiteLine3.jpg	MediumLong_e17_cut2_stereo_44KHz.wav
4	167	2	2	1	C	1	1	1370	1	poli_8sides 8_whiteLine3.jpg	Medium_e13_stereo_44KHz.wav
4	168	3	4	2	I	2	0	970	0	poli_8sides 10_whiteLine3.jpg	MediumLong_e17_cut2_stereo_44KHz.wav
4	169	1	1	1	C	1	1	1205	1	poli_8sides 13_whiteLine3.jpg	MediumLong_e19_stereo_44KHz.wav
4	170	3	3	2	I	2	0	741	0	poli_8sides 10_whiteLine3.jpg	MediumLong_e04_stereo_44KHz.wav
4	171	2	2	1	C	1	1	1262	1	poli_8sides 8_whiteLine3.jpg	Medium_e13_stereo_44KHz.wav
4	172	4	3	2	I	1	0	1505	0	poli_8sides 3_whiteLine3.jpg	MediumLong_e04_stereo_44KHz.wav
4	173	3	4	2	I	2	0	845	1	poli_8sides 10_whiteLine3.jpg	MediumLong_e17_cut2_stereo_44KHz.wav
4	174	2	1	0	C	1	0	798	0	poli_8sides 8_whiteLine3.jpg	MediumLong_e19_stereo_44KHz.wav
4	175	4	4	2	I	2	0	887	0	poli_8sides 3_whiteLine3.jpg	MediumLong_e17_cut2_stereo_44KHz.wav
4	176	1	2	0	C	2	1	962	1	poli_8sides 13_whiteLine3.jpg	Medium_e13_stereo_44KHz.wav
4	177	3	3	2	I	2	0	744	0	poli_8sides 10_whiteLine3.jpg	MediumLong_e04_stereo_44KHz.wav
4	178	2	1	0	C	2	1	933	1	poli_8sides 8_whiteLine3.jpg	MediumLong_e19_stereo_44KHz.wav
4	179	1	2	0	C	2	1	792	1	poli_8sides 13_whiteLine3.jpg	Medium_e13_stereo_44KHz.wav
4	180	4	4	2	I	2	0	1191	1	poli_8sides 3_whiteLine3.jpg	MediumLong_e17_cut2_stereo_44KHz.wav
4	181	3	4	2	I	2	0	729	0	poli_8sides 10_whiteLine3.jpg	MediumLong_e17_cut2_stereo_44KHz.wav
4	182	4	3	2	I	1	0	1141	0	poli_8sides 3_whiteLine3.jpg	MediumLong_e04_stereo_44KHz.wav
4	183	2	2	1	C	1	1	1816	1	poli_8sides 8_whiteLine3.jpg	Medium_e13_stereo_44KHz.wav
4	184	1	1	1	C	2	0	678	0	poli_8sides 13_whiteLine3.jpg	MediumLong_e19_stereo_44KHz.wav
4	185	4	3	2	I	1	0	1436	1	poli_8sides 3_whiteLine3.jpg	MediumLong_e04_stereo_44KHz.wav
4	186	1	2	0	C	2	1	1604	1	poli_8sides 13_whiteLine3.jpg	Medium_e13_stereo_44KHz.wav
4	187	2	2	1	C	1	1	974	1	poli_8sides 8_whiteLine3.jpg	Medium_e13_stereo_44KHz.wav
4	188	3	3	2	I	2	0	884	0	poli_8sides 10_whiteLine3.jpg	MediumLong_e04_stereo_44KHz.wav
4	189	4	4	2	I	2	0	968	1	poli_8sides 3_whiteLine3.jpg	MediumLong_e17_cut2_stereo_44KHz.wav
4	190	1	1	1	C	1	1	992	1	poli_8sides 13_whiteLine3.jpg	MediumLong_e19_stereo_44KHz.wav
4	191	3	4	2	I	2	0	1543	1	poli_8sides 10_whiteLine3.jpg	MediumLong_e17_cut2_stereo_44KHz.wav
4	192	2	1	0	C	2	1	1061	1	poli_8sides 8_whiteLine3.jpg	MediumLong_e19_stereo_44KHz.wav
4	193	4	4	2	I	2	0	894	0	poli_8sides 3_whiteLine3.jpg	MediumLong_e17_cut2_stereo_44KHz.wav
4	194	2	2	1	C	1	1	1003	1	poli_8sides 8_whiteLine3.jpg	Medium_e13_stereo_44KHz.wav
4	195	3	3	2	I	2	0	734	0	poli_8sides 10_whiteLine3.jpg	MediumLong_e04_stereo_44KHz.wav
4	196	1	2	0	C	2	1	1070	1	poli_8sides 13_whiteLine3.jpg	Medium_e13_stereo_44KHz.wav
4	197	3	4	2	I	2	0	857	1	poli_8sides 10_whiteLine3.jpg	MediumLong_e17_cut2_stereo_44KHz.wav
4	198	4	3	2	I	0	0	0	0	poli_8sides 3_whiteLine3.jpg	MediumLong_e04_stereo_44KHz.wav
4	199	1	1	1	C	1	1	778	1	poli_8sides 13_whiteLine3.jpg	MediumLong_e19_stereo_44KHz.wav
4	200	2	1	0	C	1	0	797	0	poli_8sides 8_whiteLine3.jpg	MediumLong_e19_stereo_44KHz.wav
