block	trial	Vstim	Astim	match	C/I	resp	result	RT	fb	V-file	A-file
RL

0	1	1	2	0	C	1	0	1457	0	Ⴉ	cut_ee_stereo_44KHz.wav
0	2	1	1	1	C	2	0	958	0	Ⴉ	cut_g_stereo_44KHz.wav
0	3	2	4	0	C	2	1	1157	1	Ⴋ	cut_eeuw_stereo_44KHz.wav
0	4	2	3	1	C	1	1	965	1	Ⴋ	cut_oo_stereo_44KHz.wav
0	5	1	2	0	C	2	1	1441	1	Ⴉ	cut_ee_stereo_44KHz.wav
0	6	2	4	0	C	2	1	645	1	Ⴋ	cut_eeuw_stereo_44KHz.wav
0	7	1	1	1	C	1	1	1552	1	Ⴉ	cut_g_stereo_44KHz.wav
0	8	2	3	1	C	1	1	835	1	Ⴋ	cut_oo_stereo_44KHz.wav
0	9	1	2	0	C	2	1	1231	1	Ⴉ	cut_ee_stereo_44KHz.wav
0	10	1	1	1	C	1	1	964	1	Ⴉ	cut_g_stereo_44KHz.wav
0	11	2	3	1	C	1	1	904	1	Ⴋ	cut_oo_stereo_44KHz.wav
0	12	2	4	0	C	2	1	693	1	Ⴋ	cut_eeuw_stereo_44KHz.wav
0	13	2	4	0	C	2	1	632	1	Ⴋ	cut_eeuw_stereo_44KHz.wav
0	14	1	2	0	C	2	1	1033	1	Ⴉ	cut_ee_stereo_44KHz.wav
0	15	1	1	1	C	1	1	887	1	Ⴉ	cut_g_stereo_44KHz.wav
0	16	2	3	1	C	1	1	795	1	Ⴋ	cut_oo_stereo_44KHz.wav
0	17	2	3	1	C	1	1	694	1	Ⴋ	cut_oo_stereo_44KHz.wav
0	18	1	2	0	C	2	1	728	1	Ⴉ	cut_ee_stereo_44KHz.wav
0	19	1	1	1	C	1	1	713	1	Ⴉ	cut_g_stereo_44KHz.wav
0	20	2	4	0	C	2	1	705	1	Ⴋ	cut_eeuw_stereo_44KHz.wav
0	21	2	3	1	C	1	1	847	1	Ⴋ	cut_oo_stereo_44KHz.wav
0	22	1	2	0	C	2	1	1113	1	Ⴉ	cut_ee_stereo_44KHz.wav
0	23	2	4	0	C	2	1	632	1	Ⴋ	cut_eeuw_stereo_44KHz.wav
0	24	1	1	1	C	1	1	695	1	Ⴉ	cut_g_stereo_44KHz.wav
0	25	2	3	1	C	1	1	808	1	Ⴋ	cut_oo_stereo_44KHz.wav
0	26	1	2	0	C	2	1	708	1	Ⴉ	cut_ee_stereo_44KHz.wav
0	27	1	1	1	C	1	1	717	1	Ⴉ	cut_g_stereo_44KHz.wav
0	28	2	4	0	C	2	1	705	1	Ⴋ	cut_eeuw_stereo_44KHz.wav
0	29	1	1	1	C	1	1	1163	1	Ⴉ	cut_g_stereo_44KHz.wav
0	30	2	4	0	C	2	1	529	1	Ⴋ	cut_eeuw_stereo_44KHz.wav
avg_resp = 875
1	1	4	4	2	I	2	0	623	0	Ⴜ	cut_g_stereo_44KHz.wav
1	2	2	1	0	C	2	1	991	1	Ⴁ	cut_h_stereo_44KHz.wav
1	3	1	2	0	C	2	1	1274	1	Ⴂ	cut_w_stereo_44KHz.wav
1	4	3	4	2	I	1	0	1432	0	Ⴃ	cut_g_stereo_44KHz.wav
1	5	1	1	1	C	1	1	1002	1	Ⴂ	cut_h_stereo_44KHz.wav
1	6	3	3	2	I	1	0	912	0	Ⴃ	cut_l_stereo_44KHz.wav
1	7	2	2	1	C	2	0	967	0	Ⴁ	cut_w_stereo_44KHz.wav
1	8	4	3	2	I	2	0	1056	1	Ⴜ	cut_l_stereo_44KHz.wav
1	9	3	4	2	I	1	0	879	0	Ⴃ	cut_g_stereo_44KHz.wav
1	10	1	2	0	C	2	1	884	1	Ⴂ	cut_w_stereo_44KHz.wav
1	11	2	1	0	C	2	1	769	1	Ⴁ	cut_h_stereo_44KHz.wav
1	12	4	3	2	I	2	0	795	1	Ⴜ	cut_l_stereo_44KHz.wav
1	13	2	2	1	C	1	1	911	1	Ⴁ	cut_w_stereo_44KHz.wav
1	14	4	4	2	I	1	0	878	0	Ⴜ	cut_g_stereo_44KHz.wav
1	15	1	1	1	C	2	0	1043	0	Ⴂ	cut_h_stereo_44KHz.wav
1	16	3	3	2	I	1	0	1302	1	Ⴃ	cut_l_stereo_44KHz.wav
1	17	4	3	2	I	2	0	876	0	Ⴜ	cut_l_stereo_44KHz.wav
1	18	2	2	1	C	1	1	1725	1	Ⴁ	cut_w_stereo_44KHz.wav
1	19	1	2	0	C	2	1	946	1	Ⴂ	cut_w_stereo_44KHz.wav
1	20	3	4	2	I	2	0	732	0	Ⴃ	cut_g_stereo_44KHz.wav
1	21	2	1	0	C	2	1	708	1	Ⴁ	cut_h_stereo_44KHz.wav
1	22	3	3	2	I	2	0	834	0	Ⴃ	cut_l_stereo_44KHz.wav
1	23	1	1	1	C	1	1	1060	1	Ⴂ	cut_h_stereo_44KHz.wav
1	24	4	4	2	I	2	0	1180	1	Ⴜ	cut_g_stereo_44KHz.wav
1	25	1	2	0	C	2	1	814	1	Ⴂ	cut_w_stereo_44KHz.wav
1	26	4	4	2	I	2	0	958	0	Ⴜ	cut_g_stereo_44KHz.wav
1	27	2	2	1	C	1	1	867	1	Ⴁ	cut_w_stereo_44KHz.wav
1	28	3	4	2	I	2	0	733	1	Ⴃ	cut_g_stereo_44KHz.wav
1	29	1	1	1	C	1	1	1476	1	Ⴂ	cut_h_stereo_44KHz.wav
1	30	3	3	2	I	2	0	856	1	Ⴃ	cut_l_stereo_44KHz.wav
1	31	2	1	0	C	2	1	800	1	Ⴁ	cut_h_stereo_44KHz.wav
1	32	4	3	2	I	2	0	886	0	Ⴜ	cut_l_stereo_44KHz.wav
1	33	2	1	0	C	2	1	553	1	Ⴁ	cut_h_stereo_44KHz.wav
1	34	4	3	2	I	2	0	1128	1	Ⴜ	cut_l_stereo_44KHz.wav
1	35	3	3	2	I	2	0	643	1	Ⴃ	cut_l_stereo_44KHz.wav
1	36	1	2	0	C	2	1	689	1	Ⴂ	cut_w_stereo_44KHz.wav
1	37	4	4	2	I	2	0	865	1	Ⴜ	cut_g_stereo_44KHz.wav
1	38	2	2	1	C	1	1	918	1	Ⴁ	cut_w_stereo_44KHz.wav
1	39	3	4	2	I	2	0	694	0	Ⴃ	cut_g_stereo_44KHz.wav
1	40	1	1	1	C	1	1	1021	1	Ⴂ	cut_h_stereo_44KHz.wav
1	41	4	4	2	I	2	0	624	0	Ⴜ	cut_g_stereo_44KHz.wav
1	42	3	3	2	I	2	0	815	1	Ⴃ	cut_l_stereo_44KHz.wav
1	43	2	1	0	C	2	1	700	1	Ⴁ	cut_h_stereo_44KHz.wav
1	44	1	1	1	C	1	1	861	1	Ⴂ	cut_h_stereo_44KHz.wav
1	45	2	2	1	C	1	1	715	1	Ⴁ	cut_w_stereo_44KHz.wav
1	46	1	2	0	C	2	1	895	1	Ⴂ	cut_w_stereo_44KHz.wav
1	47	3	4	2	I	1	0	1077	1	Ⴃ	cut_g_stereo_44KHz.wav
1	48	4	3	2	I	2	0	761	0	Ⴜ	cut_l_stereo_44KHz.wav
1	49	2	2	1	C	1	1	771	1	Ⴁ	cut_w_stereo_44KHz.wav
1	50	4	4	2	I	2	0	797	0	Ⴜ	cut_g_stereo_44KHz.wav
1	51	1	1	1	C	1	1	1100	1	Ⴂ	cut_h_stereo_44KHz.wav
1	52	3	3	2	I	2	0	712	1	Ⴃ	cut_l_stereo_44KHz.wav
1	53	2	1	0	C	2	1	635	1	Ⴁ	cut_h_stereo_44KHz.wav
1	54	1	2	0	C	2	1	831	1	Ⴂ	cut_w_stereo_44KHz.wav
1	55	3	4	2	I	1	0	1161	1	Ⴃ	cut_g_stereo_44KHz.wav
1	56	4	3	2	I	1	0	455	1	Ⴜ	cut_l_stereo_44KHz.wav
1	57	3	4	2	I	1	0	856	1	Ⴃ	cut_g_stereo_44KHz.wav
1	58	1	1	1	C	1	1	859	1	Ⴂ	cut_h_stereo_44KHz.wav
1	59	4	3	2	I	1	0	739	0	Ⴜ	cut_l_stereo_44KHz.wav
1	60	2	1	0	C	2	1	688	1	Ⴁ	cut_h_stereo_44KHz.wav
1	61	4	4	2	I	1	0	883	0	Ⴜ	cut_g_stereo_44KHz.wav
1	62	2	2	1	C	1	1	739	1	Ⴁ	cut_w_stereo_44KHz.wav
1	63	1	2	0	C	2	1	874	1	Ⴂ	cut_w_stereo_44KHz.wav
1	64	3	3	2	I	2	0	920	0	Ⴃ	cut_l_stereo_44KHz.wav
1	65	1	1	1	C	1	1	733	1	Ⴂ	cut_h_stereo_44KHz.wav
1	66	2	1	0	C	2	1	692	1	Ⴁ	cut_h_stereo_44KHz.wav
1	67	3	4	2	I	1	0	785	0	Ⴃ	cut_g_stereo_44KHz.wav
1	68	4	3	2	I	2	0	636	1	Ⴜ	cut_l_stereo_44KHz.wav
1	69	3	3	2	I	2	0	723	1	Ⴃ	cut_l_stereo_44KHz.wav
1	70	2	2	1	C	1	1	733	1	Ⴁ	cut_w_stereo_44KHz.wav
1	71	1	2	0	C	2	1	934	1	Ⴂ	cut_w_stereo_44KHz.wav
1	72	4	4	2	I	2	0	1012	0	Ⴜ	cut_g_stereo_44KHz.wav
1	73	1	1	1	C	1	1	770	1	Ⴂ	cut_h_stereo_44KHz.wav
1	74	3	3	2	I	2	0	829	1	Ⴃ	cut_l_stereo_44KHz.wav
1	75	4	4	2	I	2	0	787	0	Ⴜ	cut_g_stereo_44KHz.wav
1	76	2	2	1	C	1	1	1048	1	Ⴁ	cut_w_stereo_44KHz.wav
1	77	3	4	2	I	1	0	1112	1	Ⴃ	cut_g_stereo_44KHz.wav
1	78	1	2	0	C	2	1	1039	1	Ⴂ	cut_w_stereo_44KHz.wav
1	79	4	3	2	I	2	0	772	1	Ⴜ	cut_l_stereo_44KHz.wav
1	80	2	1	0	C	2	1	723	1	Ⴁ	cut_h_stereo_44KHz.wav
1	81	4	4	2	I	2	0	1173	1	Ⴜ	cut_g_stereo_44KHz.wav
1	82	3	3	2	I	1	0	881	0	Ⴃ	cut_l_stereo_44KHz.wav
1	83	1	1	1	C	1	1	1095	1	Ⴂ	cut_h_stereo_44KHz.wav
1	84	2	1	0	C	2	1	636	1	Ⴁ	cut_h_stereo_44KHz.wav
1	85	1	2	0	C	2	1	1405	1	Ⴂ	cut_w_stereo_44KHz.wav
1	86	4	3	2	I	2	0	717	1	Ⴜ	cut_l_stereo_44KHz.wav
1	87	3	4	2	I	1	0	1223	0	Ⴃ	cut_g_stereo_44KHz.wav
1	88	2	2	1	C	1	1	752	1	Ⴁ	cut_w_stereo_44KHz.wav
1	89	3	4	2	I	1	0	1033	1	Ⴃ	cut_g_stereo_44KHz.wav
1	90	1	1	1	C	1	1	769	1	Ⴂ	cut_h_stereo_44KHz.wav
1	91	2	1	0	C	2	1	748	1	Ⴁ	cut_h_stereo_44KHz.wav
1	92	4	3	2	I	2	0	802	0	Ⴜ	cut_l_stereo_44KHz.wav
1	93	3	3	2	I	2	0	572	1	Ⴃ	cut_l_stereo_44KHz.wav
1	94	4	4	2	I	2	0	736	0	Ⴜ	cut_g_stereo_44KHz.wav
1	95	2	2	1	C	1	1	724	1	Ⴁ	cut_w_stereo_44KHz.wav
1	96	1	2	0	C	2	1	714	1	Ⴂ	cut_w_stereo_44KHz.wav
1	97	2	2	1	C	2	0	681	0	Ⴁ	cut_w_stereo_44KHz.wav
1	98	3	3	2	I	2	0	1164	0	Ⴃ	cut_l_stereo_44KHz.wav
1	99	1	2	0	C	2	1	1020	1	Ⴂ	cut_w_stereo_44KHz.wav
1	100	4	4	2	I	1	0	925	0	Ⴜ	cut_g_stereo_44KHz.wav
1	101	3	4	2	I	1	0	942	1	Ⴃ	cut_g_stereo_44KHz.wav
1	102	4	3	2	I	2	0	545	0	Ⴜ	cut_l_stereo_44KHz.wav
1	103	2	1	0	C	2	1	851	1	Ⴁ	cut_h_stereo_44KHz.wav
1	104	1	1	1	C	1	1	1106	1	Ⴂ	cut_h_stereo_44KHz.wav
1	105	2	1	0	C	2	1	689	1	Ⴁ	cut_h_stereo_44KHz.wav
1	106	1	2	0	C	2	1	1142	1	Ⴂ	cut_w_stereo_44KHz.wav
1	107	4	3	2	I	2	0	791	1	Ⴜ	cut_l_stereo_44KHz.wav
1	108	3	3	2	I	2	0	629	0	Ⴃ	cut_l_stereo_44KHz.wav
1	109	1	1	1	C	1	1	908	1	Ⴂ	cut_h_stereo_44KHz.wav
1	110	2	2	1	C	1	1	1011	1	Ⴁ	cut_w_stereo_44KHz.wav
1	111	4	4	2	I	2	0	1320	0	Ⴜ	cut_g_stereo_44KHz.wav
1	112	3	4	2	I	0	0	0	0	Ⴃ	cut_g_stereo_44KHz.wav
1	113	1	1	1	C	1	1	1403	1	Ⴂ	cut_h_stereo_44KHz.wav
1	114	3	3	2	I	1	0	1349	1	Ⴃ	cut_l_stereo_44KHz.wav
1	115	4	4	2	I	2	0	738	0	Ⴜ	cut_g_stereo_44KHz.wav
1	116	2	2	1	C	1	1	1041	1	Ⴁ	cut_w_stereo_44KHz.wav
1	117	1	2	0	C	2	1	911	1	Ⴂ	cut_w_stereo_44KHz.wav
1	118	4	3	2	I	2	0	984	1	Ⴜ	cut_l_stereo_44KHz.wav
1	119	2	1	0	C	2	1	769	1	Ⴁ	cut_h_stereo_44KHz.wav
1	120	3	4	2	I	1	0	1068	0	Ⴃ	cut_g_stereo_44KHz.wav
1	121	2	2	1	C	1	1	971	1	Ⴁ	cut_w_stereo_44KHz.wav
1	122	4	4	2	I	1	0	1124	1	Ⴜ	cut_g_stereo_44KHz.wav
1	123	3	3	2	I	1	0	969	1	Ⴃ	cut_l_stereo_44KHz.wav
1	124	1	2	0	C	2	1	1023	1	Ⴂ	cut_w_stereo_44KHz.wav
1	125	4	3	2	I	2	0	814	0	Ⴜ	cut_l_stereo_44KHz.wav
1	126	3	4	2	I	1	0	1337	1	Ⴃ	cut_g_stereo_44KHz.wav
1	127	2	1	0	C	2	1	635	1	Ⴁ	cut_h_stereo_44KHz.wav
1	128	1	1	1	C	1	1	887	1	Ⴂ	cut_h_stereo_44KHz.wav
1	129	2	1	0	C	2	1	694	1	Ⴁ	cut_h_stereo_44KHz.wav
1	130	3	3	2	I	2	0	749	0	Ⴃ	cut_l_stereo_44KHz.wav
1	131	4	4	2	I	1	0	1409	1	Ⴜ	cut_g_stereo_44KHz.wav
1	132	1	2	0	C	2	1	826	1	Ⴂ	cut_w_stereo_44KHz.wav
1	133	4	3	2	I	2	0	1235	0	Ⴜ	cut_l_stereo_44KHz.wav
1	134	2	2	1	C	1	1	958	1	Ⴁ	cut_w_stereo_44KHz.wav
1	135	3	4	2	I	1	0	818	0	Ⴃ	cut_g_stereo_44KHz.wav
1	136	1	1	1	C	1	1	1090	1	Ⴂ	cut_h_stereo_44KHz.wav
1	137	4	3	2	I	0	0	0	0	Ⴜ	cut_l_stereo_44KHz.wav
1	138	1	2	0	C	2	1	1077	1	Ⴂ	cut_w_stereo_44KHz.wav
1	139	2	1	0	C	2	1	1005	1	Ⴁ	cut_h_stereo_44KHz.wav
1	140	3	3	2	I	2	0	820	0	Ⴃ	cut_l_stereo_44KHz.wav
1	141	4	4	2	I	2	0	813	1	Ⴜ	cut_g_stereo_44KHz.wav
1	142	1	1	1	C	1	1	1185	1	Ⴂ	cut_h_stereo_44KHz.wav
1	143	2	2	1	C	1	1	789	1	Ⴁ	cut_w_stereo_44KHz.wav
1	144	3	4	2	I	2	0	980	1	Ⴃ	cut_g_stereo_44KHz.wav
1	145	4	4	2	I	2	0	1132	1	Ⴜ	cut_g_stereo_44KHz.wav
1	146	2	1	0	C	2	1	579	1	Ⴁ	cut_h_stereo_44KHz.wav
1	147	1	1	1	C	2	0	808	0	Ⴂ	cut_h_stereo_44KHz.wav
1	148	3	4	2	I	2	0	625	0	Ⴃ	cut_g_stereo_44KHz.wav
1	149	2	2	1	C	1	1	804	1	Ⴁ	cut_w_stereo_44KHz.wav
1	150	3	3	2	I	2	0	639	1	Ⴃ	cut_l_stereo_44KHz.wav
1	151	1	2	0	C	1	0	848	0	Ⴂ	cut_w_stereo_44KHz.wav
1	152	4	3	2	I	2	0	1046	1	Ⴜ	cut_l_stereo_44KHz.wav
1	153	3	4	2	I	2	0	771	0	Ⴃ	cut_g_stereo_44KHz.wav
1	154	4	4	2	I	2	0	872	1	Ⴜ	cut_g_stereo_44KHz.wav
1	155	2	1	0	C	2	1	740	1	Ⴁ	cut_h_stereo_44KHz.wav
1	156	1	2	0	C	2	1	863	1	Ⴂ	cut_w_stereo_44KHz.wav
1	157	3	3	2	I	2	0	699	0	Ⴃ	cut_l_stereo_44KHz.wav
1	158	2	2	1	C	1	1	776	1	Ⴁ	cut_w_stereo_44KHz.wav
1	159	4	3	2	I	2	0	919	1	Ⴜ	cut_l_stereo_44KHz.wav
1	160	1	1	1	C	1	1	1229	1	Ⴂ	cut_h_stereo_44KHz.wav
1	161	4	4	2	I	2	0	753	0	Ⴜ	cut_g_stereo_44KHz.wav
1	162	2	1	0	C	2	1	645	1	Ⴁ	cut_h_stereo_44KHz.wav
1	163	3	3	2	I	2	0	651	0	Ⴃ	cut_l_stereo_44KHz.wav
1	164	1	1	1	C	1	1	918	1	Ⴂ	cut_h_stereo_44KHz.wav
1	165	3	4	2	I	2	0	716	1	Ⴃ	cut_g_stereo_44KHz.wav
1	166	1	2	0	C	2	1	1210	1	Ⴂ	cut_w_stereo_44KHz.wav
1	167	4	3	2	I	2	0	825	1	Ⴜ	cut_l_stereo_44KHz.wav
1	168	2	2	1	C	1	1	936	1	Ⴁ	cut_w_stereo_44KHz.wav
1	169	4	3	2	I	2	0	715	1	Ⴜ	cut_l_stereo_44KHz.wav
1	170	2	1	0	C	2	1	569	1	Ⴁ	cut_h_stereo_44KHz.wav
1	171	3	3	2	I	2	0	774	0	Ⴃ	cut_l_stereo_44KHz.wav
1	172	1	2	0	C	2	1	888	1	Ⴂ	cut_w_stereo_44KHz.wav
1	173	2	2	1	C	1	1	717	1	Ⴁ	cut_w_stereo_44KHz.wav
1	174	1	1	1	C	0	0	0	0	Ⴂ	cut_h_stereo_44KHz.wav
1	175	4	4	2	I	2	0	980	1	Ⴜ	cut_g_stereo_44KHz.wav
1	176	3	4	2	I	1	0	796	0	Ⴃ	cut_g_stereo_44KHz.wav
1	177	2	1	0	C	2	1	609	1	Ⴁ	cut_h_stereo_44KHz.wav
1	178	1	2	0	C	2	1	786	1	Ⴂ	cut_w_stereo_44KHz.wav
1	179	3	4	2	I	2	0	652	0	Ⴃ	cut_g_stereo_44KHz.wav
1	180	4	4	2	I	2	0	1188	0	Ⴜ	cut_g_stereo_44KHz.wav
1	181	2	2	1	C	1	1	811	1	Ⴁ	cut_w_stereo_44KHz.wav
1	182	4	3	2	I	2	0	767	0	Ⴜ	cut_l_stereo_44KHz.wav
1	183	3	3	2	I	1	0	1153	1	Ⴃ	cut_l_stereo_44KHz.wav
1	184	1	1	1	C	1	1	928	1	Ⴂ	cut_h_stereo_44KHz.wav
1	185	3	3	2	I	1	0	1222	1	Ⴃ	cut_l_stereo_44KHz.wav
1	186	1	1	1	C	1	1	892	1	Ⴂ	cut_h_stereo_44KHz.wav
1	187	2	1	0	C	2	1	1531	1	Ⴁ	cut_h_stereo_44KHz.wav
1	188	4	4	2	I	1	0	913	0	Ⴜ	cut_g_stereo_44KHz.wav
1	189	3	4	2	I	1	0	872	1	Ⴃ	cut_g_stereo_44KHz.wav
1	190	2	2	1	C	1	1	723	1	Ⴁ	cut_w_stereo_44KHz.wav
1	191	4	3	2	I	2	0	1164	1	Ⴜ	cut_l_stereo_44KHz.wav
1	192	1	2	0	C	2	1	823	1	Ⴂ	cut_w_stereo_44KHz.wav
1	193	4	4	2	I	2	0	771	0	Ⴜ	cut_g_stereo_44KHz.wav
1	194	1	1	1	C	1	1	1379	1	Ⴂ	cut_h_stereo_44KHz.wav
1	195	2	2	1	C	1	1	1419	1	Ⴁ	cut_w_stereo_44KHz.wav
1	196	3	3	2	I	1	0	964	1	Ⴃ	cut_l_stereo_44KHz.wav
1	197	2	1	0	C	2	1	739	1	Ⴁ	cut_h_stereo_44KHz.wav
1	198	3	4	2	I	1	0	800	0	Ⴃ	cut_g_stereo_44KHz.wav
1	199	1	2	0	C	2	1	811	1	Ⴂ	cut_w_stereo_44KHz.wav
1	200	4	3	2	I	2	0	757	1	Ⴜ	cut_l_stereo_44KHz.wav
2	1	2	2	1	C	1	1	1467	1	Ⴇ	cut_f_stereo_44KHz.wav
2	2	4	4	2	I	2	0	1461	0	Ⴊ	cut_s_stereo_44KHz.wav
2	3	1	2	0	C	1	0	868	0	Ⴟ	cut_f_stereo_44KHz.wav
2	4	3	3	2	I	2	0	1467	1	Ⴡ	cut_ui_stereo_44KHz.wav
2	5	4	3	2	I	1	0	770	1	Ⴊ	cut_ui_stereo_44KHz.wav
2	6	3	4	2	I	1	0	1138	0	Ⴡ	cut_s_stereo_44KHz.wav
2	7	1	1	1	C	1	1	1069	1	Ⴟ	cut_n_stereo_44KHz.wav
2	8	2	1	0	C	1	0	779	0	Ⴇ	cut_n_stereo_44KHz.wav
2	9	4	4	2	I	2	0	1229	1	Ⴊ	cut_s_stereo_44KHz.wav
2	10	1	2	0	C	2	1	1018	1	Ⴟ	cut_f_stereo_44KHz.wav
2	11	2	2	1	C	1	1	723	1	Ⴇ	cut_f_stereo_44KHz.wav
2	12	3	3	2	I	2	0	1105	1	Ⴡ	cut_ui_stereo_44KHz.wav
2	13	1	1	1	C	1	1	937	1	Ⴟ	cut_n_stereo_44KHz.wav
2	14	4	3	2	I	2	0	1062	1	Ⴊ	cut_ui_stereo_44KHz.wav
2	15	2	1	0	C	1	0	987	0	Ⴇ	cut_n_stereo_44KHz.wav
2	16	3	4	2	I	1	0	1073	0	Ⴡ	cut_s_stereo_44KHz.wav
2	17	1	1	1	C	2	0	798	0	Ⴟ	cut_n_stereo_44KHz.wav
2	18	4	3	2	I	2	0	678	0	Ⴊ	cut_ui_stereo_44KHz.wav
2	19	3	3	2	I	2	0	712	1	Ⴡ	cut_ui_stereo_44KHz.wav
2	20	2	1	0	C	2	1	737	1	Ⴇ	cut_n_stereo_44KHz.wav
2	21	3	4	2	I	2	0	1246	0	Ⴡ	cut_s_stereo_44KHz.wav
2	22	2	2	1	C	2	0	755	0	Ⴇ	cut_f_stereo_44KHz.wav
2	23	1	2	0	C	2	1	606	1	Ⴟ	cut_f_stereo_44KHz.wav
2	24	4	4	2	I	2	0	1132	0	Ⴊ	cut_s_stereo_44KHz.wav
2	25	1	1	1	C	1	1	947	1	Ⴟ	cut_n_stereo_44KHz.wav
2	26	4	3	2	I	2	0	672	1	Ⴊ	cut_ui_stereo_44KHz.wav
2	27	2	2	1	C	2	0	608	0	Ⴇ	cut_f_stereo_44KHz.wav
2	28	3	4	2	I	1	0	906	0	Ⴡ	cut_s_stereo_44KHz.wav
2	29	1	2	0	C	2	1	888	1	Ⴟ	cut_f_stereo_44KHz.wav
2	30	2	1	0	C	2	1	717	1	Ⴇ	cut_n_stereo_44KHz.wav
2	31	3	3	2	I	2	0	971	1	Ⴡ	cut_ui_stereo_44KHz.wav
2	32	4	4	2	I	1	0	1274	1	Ⴊ	cut_s_stereo_44KHz.wav
2	33	1	1	1	C	1	1	981	1	Ⴟ	cut_n_stereo_44KHz.wav
2	34	2	1	0	C	2	1	1300	1	Ⴇ	cut_n_stereo_44KHz.wav
2	35	4	3	2	I	2	0	955	0	Ⴊ	cut_ui_stereo_44KHz.wav
2	36	3	4	2	I	2	0	582	0	Ⴡ	cut_s_stereo_44KHz.wav
2	37	2	2	1	C	1	1	1111	1	Ⴇ	cut_f_stereo_44KHz.wav
2	38	3	3	2	I	2	0	652	1	Ⴡ	cut_ui_stereo_44KHz.wav
2	39	4	4	2	I	1	0	898	1	Ⴊ	cut_s_stereo_44KHz.wav
2	40	1	2	0	C	2	1	837	1	Ⴟ	cut_f_stereo_44KHz.wav
2	41	2	1	0	C	2	1	1109	1	Ⴇ	cut_n_stereo_44KHz.wav
2	42	4	4	2	I	2	0	1419	1	Ⴊ	cut_s_stereo_44KHz.wav
2	43	3	4	2	I	1	0	1276	0	Ⴡ	cut_s_stereo_44KHz.wav
2	44	1	2	0	C	2	1	827	1	Ⴟ	cut_f_stereo_44KHz.wav
2	45	2	2	1	C	2	0	876	0	Ⴇ	cut_f_stereo_44KHz.wav
2	46	4	3	2	I	2	0	576	1	Ⴊ	cut_ui_stereo_44KHz.wav
2	47	1	1	1	C	1	1	1410	1	Ⴟ	cut_n_stereo_44KHz.wav
2	48	3	3	2	I	2	0	758	1	Ⴡ	cut_ui_stereo_44KHz.wav
2	49	1	1	1	C	1	1	1016	1	Ⴟ	cut_n_stereo_44KHz.wav
2	50	2	2	1	C	2	0	1298	0	Ⴇ	cut_f_stereo_44KHz.wav
2	51	3	3	2	I	2	0	1234	0	Ⴡ	cut_ui_stereo_44KHz.wav
2	52	4	4	2	I	2	0	1163	1	Ⴊ	cut_s_stereo_44KHz.wav
2	53	1	2	0	C	2	1	1132	1	Ⴟ	cut_f_stereo_44KHz.wav
2	54	4	3	2	I	2	0	833	1	Ⴊ	cut_ui_stereo_44KHz.wav
2	55	2	1	0	C	1	0	1191	0	Ⴇ	cut_n_stereo_44KHz.wav
2	56	3	4	2	I	2	0	1150	0	Ⴡ	cut_s_stereo_44KHz.wav
2	57	4	3	2	I	2	0	647	1	Ⴊ	cut_ui_stereo_44KHz.wav
2	58	3	3	2	I	2	0	854	0	Ⴡ	cut_ui_stereo_44KHz.wav
2	59	1	1	1	C	1	1	989	1	Ⴟ	cut_n_stereo_44KHz.wav
2	60	2	2	1	C	2	0	856	0	Ⴇ	cut_f_stereo_44KHz.wav
2	61	3	4	2	I	2	0	785	1	Ⴡ	cut_s_stereo_44KHz.wav
2	62	1	2	0	C	2	1	765	1	Ⴟ	cut_f_stereo_44KHz.wav
2	63	4	4	2	I	1	0	1190	1	Ⴊ	cut_s_stereo_44KHz.wav
2	64	2	1	0	C	1	0	909	0	Ⴇ	cut_n_stereo_44KHz.wav
2	65	4	3	2	I	2	0	888	1	Ⴊ	cut_ui_stereo_44KHz.wav
2	66	2	2	1	C	1	1	478	1	Ⴇ	cut_f_stereo_44KHz.wav
2	67	1	1	1	C	1	1	970	1	Ⴟ	cut_n_stereo_44KHz.wav
2	68	3	4	2	I	2	0	1221	0	Ⴡ	cut_s_stereo_44KHz.wav
2	69	4	4	2	I	1	0	728	0	Ⴊ	cut_s_stereo_44KHz.wav
2	70	3	3	2	I	2	0	692	0	Ⴡ	cut_ui_stereo_44KHz.wav
2	71	1	2	0	C	2	1	742	1	Ⴟ	cut_f_stereo_44KHz.wav
2	72	2	1	0	C	1	0	962	0	Ⴇ	cut_n_stereo_44KHz.wav
2	73	4	3	2	I	2	0	1103	0	Ⴊ	cut_ui_stereo_44KHz.wav
2	74	2	2	1	C	1	1	1609	1	Ⴇ	cut_f_stereo_44KHz.wav
2	75	3	4	2	I	2	0	650	1	Ⴡ	cut_s_stereo_44KHz.wav
2	76	1	1	1	C	1	1	844	1	Ⴟ	cut_n_stereo_44KHz.wav
2	77	4	4	2	I	2	0	1066	0	Ⴊ	cut_s_stereo_44KHz.wav
2	78	2	1	0	C	2	1	1008	1	Ⴇ	cut_n_stereo_44KHz.wav
2	79	3	3	2	I	1	0	927	1	Ⴡ	cut_ui_stereo_44KHz.wav
2	80	1	2	0	C	1	0	1003	0	Ⴟ	cut_f_stereo_44KHz.wav
2	81	3	4	2	I	2	0	797	1	Ⴡ	cut_s_stereo_44KHz.wav
2	82	2	2	1	C	1	1	1607	1	Ⴇ	cut_f_stereo_44KHz.wav
2	83	4	3	2	I	2	0	744	0	Ⴊ	cut_ui_stereo_44KHz.wav
2	84	1	1	1	C	1	1	781	1	Ⴟ	cut_n_stereo_44KHz.wav
2	85	2	1	0	C	1	0	649	0	Ⴇ	cut_n_stereo_44KHz.wav
2	86	1	2	0	C	2	1	741	1	Ⴟ	cut_f_stereo_44KHz.wav
2	87	4	4	2	I	1	0	1224	0	Ⴊ	cut_s_stereo_44KHz.wav
2	88	3	3	2	I	1	0	775	1	Ⴡ	cut_ui_stereo_44KHz.wav
2	89	1	2	0	C	2	1	875	1	Ⴟ	cut_f_stereo_44KHz.wav
2	90	4	4	2	I	2	0	933	1	Ⴊ	cut_s_stereo_44KHz.wav
2	91	3	3	2	I	1	0	635	0	Ⴡ	cut_ui_stereo_44KHz.wav
2	92	2	1	0	C	1	0	1334	0	Ⴇ	cut_n_stereo_44KHz.wav
2	93	3	4	2	I	2	0	987	1	Ⴡ	cut_s_stereo_44KHz.wav
2	94	2	2	1	C	1	1	1559	1	Ⴇ	cut_f_stereo_44KHz.wav
2	95	4	3	2	I	1	0	1039	0	Ⴊ	cut_ui_stereo_44KHz.wav
2	96	1	1	1	C	1	1	822	1	Ⴟ	cut_n_stereo_44KHz.wav
2	97	3	3	2	I	1	0	887	0	Ⴡ	cut_ui_stereo_44KHz.wav
2	98	4	3	2	I	1	0	780	0	Ⴊ	cut_ui_stereo_44KHz.wav
2	99	2	2	1	C	1	1	1474	1	Ⴇ	cut_f_stereo_44KHz.wav
2	100	1	1	1	C	2	0	464	0	Ⴟ	cut_n_stereo_44KHz.wav
2	101	4	4	2	I	2	0	1052	0	Ⴊ	cut_s_stereo_44KHz.wav
2	102	1	2	0	C	2	1	837	1	Ⴟ	cut_f_stereo_44KHz.wav
2	103	2	1	0	C	2	1	817	1	Ⴇ	cut_n_stereo_44KHz.wav
2	104	3	4	2	I	2	0	1176	0	Ⴡ	cut_s_stereo_44KHz.wav
2	105	1	2	0	C	2	1	782	1	Ⴟ	cut_f_stereo_44KHz.wav
2	106	3	3	2	I	1	0	808	0	Ⴡ	cut_ui_stereo_44KHz.wav
2	107	2	1	0	C	1	0	1006	0	Ⴇ	cut_n_stereo_44KHz.wav
2	108	4	3	2	I	2	0	751	1	Ⴊ	cut_ui_stereo_44KHz.wav
2	109	3	4	2	I	2	0	881	0	Ⴡ	cut_s_stereo_44KHz.wav
2	110	4	4	2	I	1	0	857	0	Ⴊ	cut_s_stereo_44KHz.wav
2	111	1	1	1	C	1	1	770	1	Ⴟ	cut_n_stereo_44KHz.wav
2	112	2	2	1	C	2	0	748	0	Ⴇ	cut_f_stereo_44KHz.wav
2	113	3	4	2	I	1	0	1228	1	Ⴡ	cut_s_stereo_44KHz.wav
2	114	2	1	0	C	2	1	781	1	Ⴇ	cut_n_stereo_44KHz.wav
2	115	4	3	2	I	2	0	769	0	Ⴊ	cut_ui_stereo_44KHz.wav
2	116	1	1	1	C	1	1	1084	1	Ⴟ	cut_n_stereo_44KHz.wav
2	117	3	3	2	I	2	0	1054	1	Ⴡ	cut_ui_stereo_44KHz.wav
2	118	1	2	0	C	2	1	1056	1	Ⴟ	cut_f_stereo_44KHz.wav
2	119	4	4	2	I	2	0	1618	1	Ⴊ	cut_s_stereo_44KHz.wav
2	120	2	2	1	C	2	0	1265	0	Ⴇ	cut_f_stereo_44KHz.wav
2	121	4	4	2	I	2	0	916	0	Ⴊ	cut_s_stereo_44KHz.wav
2	122	1	1	1	C	1	1	715	1	Ⴟ	cut_n_stereo_44KHz.wav
2	123	3	3	2	I	2	0	877	0	Ⴡ	cut_ui_stereo_44KHz.wav
2	124	2	1	0	C	2	1	1458	1	Ⴇ	cut_n_stereo_44KHz.wav
2	125	1	2	0	C	2	1	1255	1	Ⴟ	cut_f_stereo_44KHz.wav
2	126	2	2	1	C	1	1	834	1	Ⴇ	cut_f_stereo_44KHz.wav
2	127	4	3	2	I	2	0	1099	0	Ⴊ	cut_ui_stereo_44KHz.wav
2	128	3	4	2	I	1	0	952	1	Ⴡ	cut_s_stereo_44KHz.wav
2	129	2	1	0	C	2	1	714	1	Ⴇ	cut_n_stereo_44KHz.wav
2	130	1	1	1	C	1	1	976	1	Ⴟ	cut_n_stereo_44KHz.wav
2	131	3	3	2	I	2	0	1180	0	Ⴡ	cut_ui_stereo_44KHz.wav
2	132	4	3	2	I	2	0	742	1	Ⴊ	cut_ui_stereo_44KHz.wav
2	133	1	2	0	C	2	1	1053	1	Ⴟ	cut_f_stereo_44KHz.wav
2	134	4	4	2	I	2	0	1190	1	Ⴊ	cut_s_stereo_44KHz.wav
2	135	3	4	2	I	2	0	945	0	Ⴡ	cut_s_stereo_44KHz.wav
2	136	2	2	1	C	1	1	1226	1	Ⴇ	cut_f_stereo_44KHz.wav
2	137	4	4	2	I	2	0	732	0	Ⴊ	cut_s_stereo_44KHz.wav
2	138	3	4	2	I	1	0	726	1	Ⴡ	cut_s_stereo_44KHz.wav
2	139	1	2	0	C	2	1	884	1	Ⴟ	cut_f_stereo_44KHz.wav
2	140	2	2	1	C	2	0	731	0	Ⴇ	cut_f_stereo_44KHz.wav
2	141	4	3	2	I	2	0	905	0	Ⴊ	cut_ui_stereo_44KHz.wav
2	142	2	1	0	C	1	0	679	0	Ⴇ	cut_n_stereo_44KHz.wav
2	143	1	1	1	C	1	1	1196	1	Ⴟ	cut_n_stereo_44KHz.wav
2	144	3	3	2	I	1	0	758	0	Ⴡ	cut_ui_stereo_44KHz.wav
2	145	2	1	0	C	1	0	784	0	Ⴇ	cut_n_stereo_44KHz.wav
2	146	1	1	1	C	1	1	717	1	Ⴟ	cut_n_stereo_44KHz.wav
2	147	4	3	2	I	1	0	1162	1	Ⴊ	cut_ui_stereo_44KHz.wav
2	148	3	3	2	I	1	0	964	0	Ⴡ	cut_ui_stereo_44KHz.wav
2	149	4	4	2	I	1	0	1018	1	Ⴊ	cut_s_stereo_44KHz.wav
2	150	2	2	1	C	1	1	1094	1	Ⴇ	cut_f_stereo_44KHz.wav
2	151	3	4	2	I	1	0	720	1	Ⴡ	cut_s_stereo_44KHz.wav
2	152	1	2	0	C	2	1	665	1	Ⴟ	cut_f_stereo_44KHz.wav
2	153	3	4	2	I	1	0	785	0	Ⴡ	cut_s_stereo_44KHz.wav
2	154	2	1	0	C	1	0	1374	0	Ⴇ	cut_n_stereo_44KHz.wav
2	155	1	1	1	C	1	1	711	1	Ⴟ	cut_n_stereo_44KHz.wav
2	156	4	3	2	I	1	0	966	0	Ⴊ	cut_ui_stereo_44KHz.wav
2	157	3	3	2	I	2	0	1260	1	Ⴡ	cut_ui_stereo_44KHz.wav
2	158	4	4	2	I	1	0	1175	0	Ⴊ	cut_s_stereo_44KHz.wav
2	159	2	2	1	C	2	0	896	0	Ⴇ	cut_f_stereo_44KHz.wav
2	160	1	2	0	C	2	1	751	1	Ⴟ	cut_f_stereo_44KHz.wav
2	161	3	3	2	I	2	0	987	0	Ⴡ	cut_ui_stereo_44KHz.wav
2	162	1	1	1	C	1	1	778	1	Ⴟ	cut_n_stereo_44KHz.wav
2	163	2	2	1	C	1	1	708	1	Ⴇ	cut_f_stereo_44KHz.wav
2	164	4	4	2	I	2	0	695	1	Ⴊ	cut_s_stereo_44KHz.wav
2	165	3	4	2	I	1	0	800	1	Ⴡ	cut_s_stereo_44KHz.wav
2	166	2	1	0	C	2	1	1464	1	Ⴇ	cut_n_stereo_44KHz.wav
2	167	1	2	0	C	2	1	1079	1	Ⴟ	cut_f_stereo_44KHz.wav
2	168	4	3	2	I	2	0	889	1	Ⴊ	cut_ui_stereo_44KHz.wav
2	169	2	1	0	C	2	1	1333	1	Ⴇ	cut_n_stereo_44KHz.wav
2	170	4	4	2	I	1	0	924	0	Ⴊ	cut_s_stereo_44KHz.wav
2	171	1	1	1	C	1	1	835	1	Ⴟ	cut_n_stereo_44KHz.wav
2	172	3	4	2	I	1	0	1220	1	Ⴡ	cut_s_stereo_44KHz.wav
2	173	2	2	1	C	1	1	1165	1	Ⴇ	cut_f_stereo_44KHz.wav
2	174	1	2	0	C	1	0	696	0	Ⴟ	cut_f_stereo_44KHz.wav
2	175	3	3	2	I	2	0	1266	1	Ⴡ	cut_ui_stereo_44KHz.wav
2	176	4	3	2	I	2	0	814	0	Ⴊ	cut_ui_stereo_44KHz.wav
2	177	2	1	0	C	1	0	681	0	Ⴇ	cut_n_stereo_44KHz.wav
2	178	3	3	2	I	2	0	812	1	Ⴡ	cut_ui_stereo_44KHz.wav
2	179	1	2	0	C	2	1	629	1	Ⴟ	cut_f_stereo_44KHz.wav
2	180	4	4	2	I	2	0	1734	0	Ⴊ	cut_s_stereo_44KHz.wav
2	181	2	2	1	C	1	1	978	1	Ⴇ	cut_f_stereo_44KHz.wav
2	182	1	1	1	C	1	1	913	1	Ⴟ	cut_n_stereo_44KHz.wav
2	183	3	4	2	I	1	0	972	1	Ⴡ	cut_s_stereo_44KHz.wav
2	184	4	3	2	I	2	0	731	1	Ⴊ	cut_ui_stereo_44KHz.wav
2	185	3	4	2	I	1	0	846	0	Ⴡ	cut_s_stereo_44KHz.wav
2	186	4	4	2	I	1	0	1419	1	Ⴊ	cut_s_stereo_44KHz.wav
2	187	2	2	1	C	1	1	743	1	Ⴇ	cut_f_stereo_44KHz.wav
2	188	1	2	0	C	2	1	607	1	Ⴟ	cut_f_stereo_44KHz.wav
2	189	4	3	2	I	2	0	721	0	Ⴊ	cut_ui_stereo_44KHz.wav
2	190	2	1	0	C	1	0	1218	0	Ⴇ	cut_n_stereo_44KHz.wav
2	191	1	1	1	C	1	1	826	1	Ⴟ	cut_n_stereo_44KHz.wav
2	192	3	3	2	I	2	0	870	0	Ⴡ	cut_ui_stereo_44KHz.wav
2	193	1	1	1	C	1	1	1023	1	Ⴟ	cut_n_stereo_44KHz.wav
2	194	3	3	2	I	2	0	931	1	Ⴡ	cut_ui_stereo_44KHz.wav
2	195	4	3	2	I	1	0	1261	0	Ⴊ	cut_ui_stereo_44KHz.wav
2	196	2	2	1	C	1	1	1092	1	Ⴇ	cut_f_stereo_44KHz.wav
2	197	4	4	2	I	2	0	1363	1	Ⴊ	cut_s_stereo_44KHz.wav
2	198	1	2	0	C	2	1	794	1	Ⴟ	cut_f_stereo_44KHz.wav
2	199	3	4	2	I	1	0	811	1	Ⴡ	cut_s_stereo_44KHz.wav
2	200	2	1	0	C	2	1	1259	1	Ⴇ	cut_n_stereo_44KHz.wav
3	1	3	3	2	I	2	0	1091	1	Ⴐ	cut_o_stereo_44KHz.wav
3	2	2	2	1	C	2	0	1087	0	Ⴕ	cut_k_stereo_44KHz.wav
3	3	1	1	1	C	2	0	888	0	Ⴖ	cut_a_stereo_44KHz.wav
3	4	4	4	2	I	2	0	1038	0	Ⴏ	cut_u_stereo_44KHz.wav
3	5	1	2	0	C	2	1	912	1	Ⴖ	cut_k_stereo_44KHz.wav
3	6	3	4	2	I	2	0	994	0	Ⴐ	cut_u_stereo_44KHz.wav
3	7	4	3	2	I	1	0	714	1	Ⴏ	cut_o_stereo_44KHz.wav
3	8	2	1	0	C	2	1	1101	1	Ⴕ	cut_a_stereo_44KHz.wav
3	9	3	4	2	I	1	0	875	1	Ⴐ	cut_u_stereo_44KHz.wav
3	10	4	4	2	I	2	0	915	1	Ⴏ	cut_u_stereo_44KHz.wav
3	11	2	2	1	C	1	1	1047	1	Ⴕ	cut_k_stereo_44KHz.wav
3	12	1	1	1	C	1	1	980	1	Ⴖ	cut_a_stereo_44KHz.wav
3	13	2	1	0	C	2	1	852	1	Ⴕ	cut_a_stereo_44KHz.wav
3	14	1	2	0	C	2	1	978	1	Ⴖ	cut_k_stereo_44KHz.wav
3	15	3	3	2	I	1	0	969	0	Ⴐ	cut_o_stereo_44KHz.wav
3	16	4	3	2	I	1	0	834	0	Ⴏ	cut_o_stereo_44KHz.wav
3	17	1	1	1	C	1	1	793	1	Ⴖ	cut_a_stereo_44KHz.wav
3	18	3	4	2	I	1	0	1114	1	Ⴐ	cut_u_stereo_44KHz.wav
3	19	4	4	2	I	2	0	597	1	Ⴏ	cut_u_stereo_44KHz.wav
3	20	2	2	1	C	1	1	894	1	Ⴕ	cut_k_stereo_44KHz.wav
3	21	1	2	0	C	2	1	906	1	Ⴖ	cut_k_stereo_44KHz.wav
3	22	3	3	2	I	2	0	773	0	Ⴐ	cut_o_stereo_44KHz.wav
3	23	4	3	2	I	2	0	463	1	Ⴏ	cut_o_stereo_44KHz.wav
3	24	2	1	0	C	2	1	934	1	Ⴕ	cut_a_stereo_44KHz.wav
3	25	1	2	0	C	2	1	728	1	Ⴖ	cut_k_stereo_44KHz.wav
3	26	2	1	0	C	2	1	979	1	Ⴕ	cut_a_stereo_44KHz.wav
3	27	4	4	2	I	2	0	1038	0	Ⴏ	cut_u_stereo_44KHz.wav
3	28	3	4	2	I	2	0	911	1	Ⴐ	cut_u_stereo_44KHz.wav
3	29	4	3	2	I	2	0	835	0	Ⴏ	cut_o_stereo_44KHz.wav
3	30	1	1	1	C	1	1	883	1	Ⴖ	cut_a_stereo_44KHz.wav
3	31	3	3	2	I	2	0	961	0	Ⴐ	cut_o_stereo_44KHz.wav
3	32	2	2	1	C	1	1	1381	1	Ⴕ	cut_k_stereo_44KHz.wav
3	33	3	3	2	I	2	0	791	0	Ⴐ	cut_o_stereo_44KHz.wav
3	34	2	2	1	C	1	1	987	1	Ⴕ	cut_k_stereo_44KHz.wav
3	35	4	3	2	I	2	0	1019	0	Ⴏ	cut_o_stereo_44KHz.wav
3	36	1	1	1	C	1	1	1145	1	Ⴖ	cut_a_stereo_44KHz.wav
3	37	4	4	2	I	2	0	1040	1	Ⴏ	cut_u_stereo_44KHz.wav
3	38	2	1	0	C	2	1	1178	1	Ⴕ	cut_a_stereo_44KHz.wav
3	39	1	2	0	C	2	1	1531	1	Ⴖ	cut_k_stereo_44KHz.wav
3	40	3	4	2	I	2	0	1002	1	Ⴐ	cut_u_stereo_44KHz.wav
3	41	1	2	0	C	2	1	1044	1	Ⴖ	cut_k_stereo_44KHz.wav
3	42	3	3	2	I	1	0	1127	0	Ⴐ	cut_o_stereo_44KHz.wav
3	43	4	4	2	I	2	0	1021	0	Ⴏ	cut_u_stereo_44KHz.wav
3	44	2	2	1	C	1	1	1110	1	Ⴕ	cut_k_stereo_44KHz.wav
3	45	3	4	2	I	2	0	1580	1	Ⴐ	cut_u_stereo_44KHz.wav
3	46	1	1	1	C	1	1	1231	1	Ⴖ	cut_a_stereo_44KHz.wav
3	47	4	3	2	I	2	0	1218	0	Ⴏ	cut_o_stereo_44KHz.wav
3	48	2	1	0	C	2	1	1106	1	Ⴕ	cut_a_stereo_44KHz.wav
3	49	3	4	2	I	2	0	1002	1	Ⴐ	cut_u_stereo_44KHz.wav
3	50	4	3	2	I	2	0	413	1	Ⴏ	cut_o_stereo_44KHz.wav
3	51	2	2	1	C	1	1	926	1	Ⴕ	cut_k_stereo_44KHz.wav
3	52	1	2	0	C	2	1	916	1	Ⴖ	cut_k_stereo_44KHz.wav
3	53	3	3	2	I	2	0	961	1	Ⴐ	cut_o_stereo_44KHz.wav
3	54	2	1	0	C	2	1	1134	1	Ⴕ	cut_a_stereo_44KHz.wav
3	55	1	1	1	C	1	1	1048	1	Ⴖ	cut_a_stereo_44KHz.wav
3	56	4	4	2	I	2	0	989	1	Ⴏ	cut_u_stereo_44KHz.wav
3	57	1	2	0	C	2	1	1037	1	Ⴖ	cut_k_stereo_44KHz.wav
3	58	3	4	2	I	2	0	1157	0	Ⴐ	cut_u_stereo_44KHz.wav
3	59	4	3	2	I	2	0	694	0	Ⴏ	cut_o_stereo_44KHz.wav
3	60	2	1	0	C	2	1	842	1	Ⴕ	cut_a_stereo_44KHz.wav
3	61	1	1	1	C	1	1	796	1	Ⴖ	cut_a_stereo_44KHz.wav
3	62	3	3	2	I	2	0	745	0	Ⴐ	cut_o_stereo_44KHz.wav
3	63	2	2	1	C	1	1	948	1	Ⴕ	cut_k_stereo_44KHz.wav
3	64	4	4	2	I	2	0	944	1	Ⴏ	cut_u_stereo_44KHz.wav
3	65	2	1	0	C	2	1	1071	1	Ⴕ	cut_a_stereo_44KHz.wav
3	66	1	2	0	C	2	1	960	1	Ⴖ	cut_k_stereo_44KHz.wav
3	67	4	3	2	I	2	0	1095	1	Ⴏ	cut_o_stereo_44KHz.wav
3	68	3	3	2	I	1	0	1050	0	Ⴐ	cut_o_stereo_44KHz.wav
3	69	2	2	1	C	1	1	1066	1	Ⴕ	cut_k_stereo_44KHz.wav
3	70	1	1	1	C	1	1	1225	1	Ⴖ	cut_a_stereo_44KHz.wav
3	71	4	4	2	I	2	0	1038	0	Ⴏ	cut_u_stereo_44KHz.wav
3	72	3	4	2	I	2	0	625	1	Ⴐ	cut_u_stereo_44KHz.wav
3	73	4	4	2	I	1	0	1196	0	Ⴏ	cut_u_stereo_44KHz.wav
3	74	2	1	0	C	2	1	1061	1	Ⴕ	cut_a_stereo_44KHz.wav
3	75	1	2	0	C	2	1	1051	1	Ⴖ	cut_k_stereo_44KHz.wav
3	76	3	4	2	I	2	0	1003	0	Ⴐ	cut_u_stereo_44KHz.wav
3	77	4	3	2	I	2	0	1016	1	Ⴏ	cut_o_stereo_44KHz.wav
3	78	3	3	2	I	2	0	723	1	Ⴐ	cut_o_stereo_44KHz.wav
3	79	2	2	1	C	1	1	995	1	Ⴕ	cut_k_stereo_44KHz.wav
3	80	1	1	1	C	1	1	1149	1	Ⴖ	cut_a_stereo_44KHz.wav
3	81	2	2	1	C	1	1	1042	1	Ⴕ	cut_k_stereo_44KHz.wav
3	82	1	1	1	C	1	1	1038	1	Ⴖ	cut_a_stereo_44KHz.wav
3	83	4	4	2	I	1	0	1373	1	Ⴏ	cut_u_stereo_44KHz.wav
3	84	3	4	2	I	1	0	606	0	Ⴐ	cut_u_stereo_44KHz.wav
3	85	4	3	2	I	2	0	753	0	Ⴏ	cut_o_stereo_44KHz.wav
3	86	1	2	0	C	2	1	854	1	Ⴖ	cut_k_stereo_44KHz.wav
3	87	3	3	2	I	2	0	761	0	Ⴐ	cut_o_stereo_44KHz.wav
3	88	2	1	0	C	2	1	1224	1	Ⴕ	cut_a_stereo_44KHz.wav
3	89	1	1	1	C	1	1	1036	1	Ⴖ	cut_a_stereo_44KHz.wav
3	90	2	2	1	C	1	1	1318	1	Ⴕ	cut_k_stereo_44KHz.wav
3	91	3	4	2	I	2	0	1021	1	Ⴐ	cut_u_stereo_44KHz.wav
3	92	4	4	2	I	2	0	392	0	Ⴏ	cut_u_stereo_44KHz.wav
3	93	3	3	2	I	2	0	888	0	Ⴐ	cut_o_stereo_44KHz.wav
3	94	1	2	0	C	2	1	1093	1	Ⴖ	cut_k_stereo_44KHz.wav
3	95	2	1	0	C	2	1	1304	1	Ⴕ	cut_a_stereo_44KHz.wav
3	96	4	3	2	I	2	0	1300	1	Ⴏ	cut_o_stereo_44KHz.wav
3	97	3	4	2	I	2	0	424	0	Ⴐ	cut_u_stereo_44KHz.wav
3	98	2	1	0	C	2	1	1133	1	Ⴕ	cut_a_stereo_44KHz.wav
3	99	4	4	2	I	2	0	764	1	Ⴏ	cut_u_stereo_44KHz.wav
3	100	1	1	1	C	1	1	1291	1	Ⴖ	cut_a_stereo_44KHz.wav
3	101	2	2	1	C	1	1	915	1	Ⴕ	cut_k_stereo_44KHz.wav
3	102	4	3	2	I	2	0	974	1	Ⴏ	cut_o_stereo_44KHz.wav
3	103	3	3	2	I	2	0	1603	0	Ⴐ	cut_o_stereo_44KHz.wav
3	104	1	2	0	C	1	0	569	0	Ⴖ	cut_k_stereo_44KHz.wav
3	105	4	3	2	I	2	0	882	1	Ⴏ	cut_o_stereo_44KHz.wav
3	106	3	3	2	I	1	0	912	1	Ⴐ	cut_o_stereo_44KHz.wav
3	107	1	2	0	C	2	1	929	1	Ⴖ	cut_k_stereo_44KHz.wav
3	108	2	2	1	C	1	1	1116	1	Ⴕ	cut_k_stereo_44KHz.wav
3	109	3	4	2	I	2	0	958	1	Ⴐ	cut_u_stereo_44KHz.wav
3	110	1	1	1	C	1	1	705	1	Ⴖ	cut_a_stereo_44KHz.wav
3	111	4	4	2	I	2	0	715	1	Ⴏ	cut_u_stereo_44KHz.wav
3	112	2	1	0	C	2	1	1084	1	Ⴕ	cut_a_stereo_44KHz.wav
3	113	1	2	0	C	2	1	1348	1	Ⴖ	cut_k_stereo_44KHz.wav
3	114	4	4	2	I	2	0	833	1	Ⴏ	cut_u_stereo_44KHz.wav
3	115	2	2	1	C	1	1	1115	1	Ⴕ	cut_k_stereo_44KHz.wav
3	116	3	3	2	I	1	0	1109	0	Ⴐ	cut_o_stereo_44KHz.wav
3	117	4	3	2	I	2	0	592	0	Ⴏ	cut_o_stereo_44KHz.wav
3	118	3	4	2	I	1	0	1010	0	Ⴐ	cut_u_stereo_44KHz.wav
3	119	1	1	1	C	1	1	980	1	Ⴖ	cut_a_stereo_44KHz.wav
3	120	2	1	0	C	2	1	929	1	Ⴕ	cut_a_stereo_44KHz.wav
3	121	1	2	0	C	2	1	863	1	Ⴖ	cut_k_stereo_44KHz.wav
3	122	2	1	0	C	2	1	769	1	Ⴕ	cut_a_stereo_44KHz.wav
3	123	4	3	2	I	2	0	730	0	Ⴏ	cut_o_stereo_44KHz.wav
3	124	3	3	2	I	2	0	418	0	Ⴐ	cut_o_stereo_44KHz.wav
3	125	4	4	2	I	2	0	675	1	Ⴏ	cut_u_stereo_44KHz.wav
3	126	3	4	2	I	2	0	476	1	Ⴐ	cut_u_stereo_44KHz.wav
3	127	2	2	1	C	1	1	1206	1	Ⴕ	cut_k_stereo_44KHz.wav
3	128	1	1	1	C	1	1	765	1	Ⴖ	cut_a_stereo_44KHz.wav
3	129	3	4	2	I	2	0	698	1	Ⴐ	cut_u_stereo_44KHz.wav
3	130	4	3	2	I	1	0	813	1	Ⴏ	cut_o_stereo_44KHz.wav
3	131	1	2	0	C	2	1	871	1	Ⴖ	cut_k_stereo_44KHz.wav
3	132	2	1	0	C	2	1	730	1	Ⴕ	cut_a_stereo_44KHz.wav
3	133	1	1	1	C	1	1	751	1	Ⴖ	cut_a_stereo_44KHz.wav
3	134	4	4	2	I	2	0	786	1	Ⴏ	cut_u_stereo_44KHz.wav
3	135	2	2	1	C	1	1	1248	1	Ⴕ	cut_k_stereo_44KHz.wav
3	136	3	3	2	I	1	0	983	1	Ⴐ	cut_o_stereo_44KHz.wav
3	137	2	2	1	C	1	1	790	1	Ⴕ	cut_k_stereo_44KHz.wav
3	138	1	1	1	C	1	1	675	1	Ⴖ	cut_a_stereo_44KHz.wav
3	139	3	3	2	I	1	0	1372	1	Ⴐ	cut_o_stereo_44KHz.wav
3	140	4	4	2	I	2	0	747	0	Ⴏ	cut_u_stereo_44KHz.wav
3	141	3	4	2	I	2	0	588	1	Ⴐ	cut_u_stereo_44KHz.wav
3	142	4	3	2	I	1	0	1474	0	Ⴏ	cut_o_stereo_44KHz.wav
3	143	1	2	0	C	2	1	806	1	Ⴖ	cut_k_stereo_44KHz.wav
3	144	2	1	0	C	2	1	725	1	Ⴕ	cut_a_stereo_44KHz.wav
3	145	4	4	2	I	2	0	792	0	Ⴏ	cut_u_stereo_44KHz.wav
3	146	2	1	0	C	2	1	1073	1	Ⴕ	cut_a_stereo_44KHz.wav
3	147	1	1	1	C	1	1	666	1	Ⴖ	cut_a_stereo_44KHz.wav
3	148	3	4	2	I	2	0	774	0	Ⴐ	cut_u_stereo_44KHz.wav
3	149	2	2	1	C	1	1	896	1	Ⴕ	cut_k_stereo_44KHz.wav
3	150	1	2	0	C	2	1	758	1	Ⴖ	cut_k_stereo_44KHz.wav
3	151	4	3	2	I	1	0	1122	0	Ⴏ	cut_o_stereo_44KHz.wav
3	152	3	3	2	I	2	0	375	1	Ⴐ	cut_o_stereo_44KHz.wav
3	153	2	1	0	C	2	1	673	1	Ⴕ	cut_a_stereo_44KHz.wav
3	154	1	2	0	C	2	1	690	1	Ⴖ	cut_k_stereo_44KHz.wav
3	155	4	3	2	I	2	0	1351	0	Ⴏ	cut_o_stereo_44KHz.wav
3	156	3	4	2	I	1	0	814	0	Ⴐ	cut_u_stereo_44KHz.wav
3	157	2	2	1	C	1	1	974	1	Ⴕ	cut_k_stereo_44KHz.wav
3	158	4	4	2	I	2	0	670	0	Ⴏ	cut_u_stereo_44KHz.wav
3	159	3	3	2	I	2	0	1353	1	Ⴐ	cut_o_stereo_44KHz.wav
3	160	1	1	1	C	1	1	1125	1	Ⴖ	cut_a_stereo_44KHz.wav
3	161	4	4	2	I	2	0	1165	1	Ⴏ	cut_u_stereo_44KHz.wav
3	162	2	2	1	C	1	1	1042	1	Ⴕ	cut_k_stereo_44KHz.wav
3	163	1	2	0	C	2	1	828	1	Ⴖ	cut_k_stereo_44KHz.wav
3	164	3	4	2	I	2	0	1149	1	Ⴐ	cut_u_stereo_44KHz.wav
3	165	2	1	0	C	2	1	964	1	Ⴕ	cut_a_stereo_44KHz.wav
3	166	4	3	2	I	2	0	1007	1	Ⴏ	cut_o_stereo_44KHz.wav
3	167	3	3	2	I	1	0	600	0	Ⴐ	cut_o_stereo_44KHz.wav
3	168	1	1	1	C	1	1	945	1	Ⴖ	cut_a_stereo_44KHz.wav
3	169	3	3	2	I	2	0	759	1	Ⴐ	cut_o_stereo_44KHz.wav
3	170	4	4	2	I	2	0	815	1	Ⴏ	cut_u_stereo_44KHz.wav
3	171	1	2	0	C	2	1	612	1	Ⴖ	cut_k_stereo_44KHz.wav
3	172	2	2	1	C	1	1	1294	1	Ⴕ	cut_k_stereo_44KHz.wav
3	173	4	3	2	I	1	0	693	1	Ⴏ	cut_o_stereo_44KHz.wav
3	174	1	1	1	C	1	1	1472	1	Ⴖ	cut_a_stereo_44KHz.wav
3	175	2	1	0	C	2	1	614	1	Ⴕ	cut_a_stereo_44KHz.wav
3	176	3	4	2	I	2	0	774	1	Ⴐ	cut_u_stereo_44KHz.wav
3	177	4	4	2	I	2	0	769	0	Ⴏ	cut_u_stereo_44KHz.wav
3	178	2	2	1	C	1	1	914	1	Ⴕ	cut_k_stereo_44KHz.wav
3	179	3	4	2	I	1	0	696	0	Ⴐ	cut_u_stereo_44KHz.wav
3	180	1	1	1	C	1	1	795	1	Ⴖ	cut_a_stereo_44KHz.wav
3	181	3	3	2	I	2	0	709	0	Ⴐ	cut_o_stereo_44KHz.wav
3	182	2	1	0	C	2	1	809	1	Ⴕ	cut_a_stereo_44KHz.wav
3	183	4	3	2	I	2	0	1204	0	Ⴏ	cut_o_stereo_44KHz.wav
3	184	1	2	0	C	2	1	676	1	Ⴖ	cut_k_stereo_44KHz.wav
3	185	4	4	2	I	2	0	734	0	Ⴏ	cut_u_stereo_44KHz.wav
3	186	1	2	0	C	2	1	1000	1	Ⴖ	cut_k_stereo_44KHz.wav
3	187	2	2	1	C	1	1	935	1	Ⴕ	cut_k_stereo_44KHz.wav
3	188	3	4	2	I	2	0	936	0	Ⴐ	cut_u_stereo_44KHz.wav
3	189	2	1	0	C	2	1	800	1	Ⴕ	cut_a_stereo_44KHz.wav
3	190	1	1	1	C	1	1	856	1	Ⴖ	cut_a_stereo_44KHz.wav
3	191	4	3	2	I	2	0	1029	0	Ⴏ	cut_o_stereo_44KHz.wav
3	192	3	3	2	I	2	0	390	1	Ⴐ	cut_o_stereo_44KHz.wav
3	193	2	1	0	C	2	1	645	1	Ⴕ	cut_a_stereo_44KHz.wav
3	194	1	2	0	C	2	1	641	1	Ⴖ	cut_k_stereo_44KHz.wav
3	195	3	3	2	I	2	0	984	1	Ⴐ	cut_o_stereo_44KHz.wav
3	196	4	4	2	I	1	0	431	0	Ⴏ	cut_u_stereo_44KHz.wav
3	197	3	4	2	I	2	0	694	0	Ⴐ	cut_u_stereo_44KHz.wav
3	198	1	1	1	C	1	1	1173	1	Ⴖ	cut_a_stereo_44KHz.wav
3	199	4	3	2	I	2	0	1512	1	Ⴏ	cut_o_stereo_44KHz.wav
3	200	2	2	1	C	1	1	771	1	Ⴕ	cut_k_stereo_44KHz.wav
4	1	1	1	1	C	1	1	1423	1	Ⴒ	cut_oei_stereo_44KHz.wav
4	2	4	4	2	I	2	0	1257	1	Ⴉ	cut_r_stereo_44KHz.wav
4	3	3	4	2	I	2	0	1457	1	Ⴌ	cut_r_stereo_44KHz.wav
4	4	2	2	1	C	2	0	1509	0	Ⴔ	cut_j_stereo_44KHz.wav
4	5	4	3	2	I	1	0	1037	0	Ⴉ	cut_ei_stereo_44KHz.wav
4	6	3	3	2	I	2	0	873	1	Ⴌ	cut_ei_stereo_44KHz.wav
4	7	2	1	0	C	2	1	1023	1	Ⴔ	cut_oei_stereo_44KHz.wav
4	8	1	2	0	C	2	1	1304	1	Ⴒ	cut_j_stereo_44KHz.wav
4	9	3	4	2	I	1	0	1628	1	Ⴌ	cut_r_stereo_44KHz.wav
4	10	4	3	2	I	2	0	638	1	Ⴉ	cut_ei_stereo_44KHz.wav
4	11	1	1	1	C	2	0	919	0	Ⴒ	cut_oei_stereo_44KHz.wav
4	12	2	1	0	C	2	1	728	1	Ⴔ	cut_oei_stereo_44KHz.wav
4	13	3	3	2	I	2	0	640	0	Ⴌ	cut_ei_stereo_44KHz.wav
4	14	1	2	0	C	2	1	1040	1	Ⴒ	cut_j_stereo_44KHz.wav
4	15	2	2	1	C	1	1	707	1	Ⴔ	cut_j_stereo_44KHz.wav
4	16	4	4	2	I	2	0	1015	1	Ⴉ	cut_r_stereo_44KHz.wav
4	17	2	2	1	C	2	0	1114	0	Ⴔ	cut_j_stereo_44KHz.wav
4	18	1	1	1	C	2	0	1462	0	Ⴒ	cut_oei_stereo_44KHz.wav
4	19	3	3	2	I	1	0	1192	1	Ⴌ	cut_ei_stereo_44KHz.wav
4	20	4	3	2	I	2	0	737	1	Ⴉ	cut_ei_stereo_44KHz.wav
4	21	2	1	0	C	2	1	558	1	Ⴔ	cut_oei_stereo_44KHz.wav
4	22	1	2	0	C	2	1	915	1	Ⴒ	cut_j_stereo_44KHz.wav
4	23	4	4	2	I	2	0	757	0	Ⴉ	cut_r_stereo_44KHz.wav
4	24	3	4	2	I	2	0	1170	0	Ⴌ	cut_r_stereo_44KHz.wav
4	25	2	2	1	C	1	1	1086	1	Ⴔ	cut_j_stereo_44KHz.wav
4	26	3	3	2	I	1	0	849	0	Ⴌ	cut_ei_stereo_44KHz.wav
4	27	1	2	0	C	2	1	718	1	Ⴒ	cut_j_stereo_44KHz.wav
4	28	4	4	2	I	2	0	642	1	Ⴉ	cut_r_stereo_44KHz.wav
4	29	2	1	0	C	2	1	695	1	Ⴔ	cut_oei_stereo_44KHz.wav
4	30	3	4	2	I	1	0	755	0	Ⴌ	cut_r_stereo_44KHz.wav
4	31	4	3	2	I	2	0	1511	1	Ⴉ	cut_ei_stereo_44KHz.wav
4	32	1	1	1	C	2	0	1222	0	Ⴒ	cut_oei_stereo_44KHz.wav
4	33	3	4	2	I	2	0	858	1	Ⴌ	cut_r_stereo_44KHz.wav
4	34	4	4	2	I	2	0	549	0	Ⴉ	cut_r_stereo_44KHz.wav
4	35	1	2	0	C	2	1	682	1	Ⴒ	cut_j_stereo_44KHz.wav
4	36	2	1	0	C	2	1	1098	1	Ⴔ	cut_oei_stereo_44KHz.wav
4	37	1	1	1	C	1	1	1424	1	Ⴒ	cut_oei_stereo_44KHz.wav
4	38	4	3	2	I	2	0	543	0	Ⴉ	cut_ei_stereo_44KHz.wav
4	39	2	2	1	C	1	1	811	1	Ⴔ	cut_j_stereo_44KHz.wav
4	40	3	3	2	I	1	0	770	0	Ⴌ	cut_ei_stereo_44KHz.wav
4	41	1	2	0	C	2	1	810	1	Ⴒ	cut_j_stereo_44KHz.wav
4	42	2	2	1	C	2	0	641	0	Ⴔ	cut_j_stereo_44KHz.wav
4	43	3	3	2	I	2	0	628	0	Ⴌ	cut_ei_stereo_44KHz.wav
4	44	4	4	2	I	2	0	763	0	Ⴉ	cut_r_stereo_44KHz.wav
4	45	3	4	2	I	2	0	1171	0	Ⴌ	cut_r_stereo_44KHz.wav
4	46	2	1	0	C	2	1	892	1	Ⴔ	cut_oei_stereo_44KHz.wav
4	47	1	1	1	C	2	0	1360	0	Ⴒ	cut_oei_stereo_44KHz.wav
4	48	4	3	2	I	2	0	628	1	Ⴉ	cut_ei_stereo_44KHz.wav
4	49	2	2	1	C	1	1	740	1	Ⴔ	cut_j_stereo_44KHz.wav
4	50	1	2	0	C	2	1	697	1	Ⴒ	cut_j_stereo_44KHz.wav
4	51	4	4	2	I	2	0	1203	0	Ⴉ	cut_r_stereo_44KHz.wav
4	52	3	4	2	I	2	0	1034	0	Ⴌ	cut_r_stereo_44KHz.wav
4	53	2	1	0	C	2	1	585	1	Ⴔ	cut_oei_stereo_44KHz.wav
4	54	1	1	1	C	1	1	1291	1	Ⴒ	cut_oei_stereo_44KHz.wav
4	55	3	3	2	I	2	0	735	1	Ⴌ	cut_ei_stereo_44KHz.wav
4	56	4	3	2	I	2	0	1400	1	Ⴉ	cut_ei_stereo_44KHz.wav
4	57	2	1	0	C	2	1	614	1	Ⴔ	cut_oei_stereo_44KHz.wav
4	58	1	2	0	C	2	1	861	1	Ⴒ	cut_j_stereo_44KHz.wav
4	59	4	3	2	I	2	0	689	0	Ⴉ	cut_ei_stereo_44KHz.wav
4	60	3	4	2	I	1	0	1192	1	Ⴌ	cut_r_stereo_44KHz.wav
4	61	4	4	2	I	2	0	1037	0	Ⴉ	cut_r_stereo_44KHz.wav
4	62	1	1	1	C	1	1	1404	1	Ⴒ	cut_oei_stereo_44KHz.wav
4	63	3	3	2	I	2	0	666	1	Ⴌ	cut_ei_stereo_44KHz.wav
4	64	2	2	1	C	1	1	1126	1	Ⴔ	cut_j_stereo_44KHz.wav
4	65	3	4	2	I	2	0	930	0	Ⴌ	cut_r_stereo_44KHz.wav
4	66	1	2	0	C	2	1	1076	1	Ⴒ	cut_j_stereo_44KHz.wav
4	67	2	2	1	C	1	1	822	1	Ⴔ	cut_j_stereo_44KHz.wav
4	68	4	4	2	I	1	0	1369	1	Ⴉ	cut_r_stereo_44KHz.wav
4	69	3	3	2	I	2	0	679	0	Ⴌ	cut_ei_stereo_44KHz.wav
4	70	1	1	1	C	1	1	728	1	Ⴒ	cut_oei_stereo_44KHz.wav
4	71	4	3	2	I	1	0	1771	0	Ⴉ	cut_ei_stereo_44KHz.wav
4	72	2	1	0	C	2	1	817	1	Ⴔ	cut_oei_stereo_44KHz.wav
4	73	4	3	2	I	2	0	776	0	Ⴉ	cut_ei_stereo_44KHz.wav
4	74	3	3	2	I	2	0	655	1	Ⴌ	cut_ei_stereo_44KHz.wav
4	75	1	2	0	C	2	1	851	1	Ⴒ	cut_j_stereo_44KHz.wav
4	76	2	1	0	C	2	1	585	1	Ⴔ	cut_oei_stereo_44KHz.wav
4	77	1	1	1	C	1	1	1312	1	Ⴒ	cut_oei_stereo_44KHz.wav
4	78	4	4	2	I	2	0	1131	0	Ⴉ	cut_r_stereo_44KHz.wav
4	79	3	4	2	I	1	0	1105	1	Ⴌ	cut_r_stereo_44KHz.wav
4	80	2	2	1	C	1	1	731	1	Ⴔ	cut_j_stereo_44KHz.wav
4	81	1	1	1	C	1	1	829	1	Ⴒ	cut_oei_stereo_44KHz.wav
4	82	2	2	1	C	1	1	1940	1	Ⴔ	cut_j_stereo_44KHz.wav
4	83	3	4	2	I	1	0	1088	0	Ⴌ	cut_r_stereo_44KHz.wav
4	84	4	4	2	I	1	0	803	1	Ⴉ	cut_r_stereo_44KHz.wav
4	85	2	1	0	C	2	1	644	1	Ⴔ	cut_oei_stereo_44KHz.wav
4	86	4	3	2	I	2	0	771	1	Ⴉ	cut_ei_stereo_44KHz.wav
4	87	3	3	2	I	2	0	604	0	Ⴌ	cut_ei_stereo_44KHz.wav
4	88	1	2	0	C	2	1	1173	1	Ⴒ	cut_j_stereo_44KHz.wav
4	89	4	3	2	I	2	0	837	0	Ⴉ	cut_ei_stereo_44KHz.wav
4	90	3	4	2	I	2	0	1124	1	Ⴌ	cut_r_stereo_44KHz.wav
4	91	1	1	1	C	1	1	1355	1	Ⴒ	cut_oei_stereo_44KHz.wav
4	92	2	1	0	C	2	1	1287	1	Ⴔ	cut_oei_stereo_44KHz.wav
4	93	4	4	2	I	1	0	760	1	Ⴉ	cut_r_stereo_44KHz.wav
4	94	3	3	2	I	1	0	791	0	Ⴌ	cut_ei_stereo_44KHz.wav
4	95	1	2	0	C	2	1	1162	1	Ⴒ	cut_j_stereo_44KHz.wav
4	96	2	2	1	C	1	1	989	1	Ⴔ	cut_j_stereo_44KHz.wav
4	97	1	1	1	C	1	1	858	1	Ⴒ	cut_oei_stereo_44KHz.wav
4	98	2	1	0	C	2	1	709	1	Ⴔ	cut_oei_stereo_44KHz.wav
4	99	4	4	2	I	2	0	882	0	Ⴉ	cut_r_stereo_44KHz.wav
4	100	3	4	2	I	1	0	1171	1	Ⴌ	cut_r_stereo_44KHz.wav
4	101	1	2	0	C	2	1	897	1	Ⴒ	cut_j_stereo_44KHz.wav
4	102	3	3	2	I	2	0	864	1	Ⴌ	cut_ei_stereo_44KHz.wav
4	103	4	3	2	I	1	0	1160	1	Ⴉ	cut_ei_stereo_44KHz.wav
4	104	2	2	1	C	1	1	1049	1	Ⴔ	cut_j_stereo_44KHz.wav
4	105	4	4	2	I	1	0	917	1	Ⴉ	cut_r_stereo_44KHz.wav
4	106	1	2	0	C	2	1	824	1	Ⴒ	cut_j_stereo_44KHz.wav
4	107	2	1	0	C	2	1	660	1	Ⴔ	cut_oei_stereo_44KHz.wav
4	108	3	3	2	I	2	0	739	1	Ⴌ	cut_ei_stereo_44KHz.wav
4	109	4	3	2	I	1	0	824	1	Ⴉ	cut_ei_stereo_44KHz.wav
4	110	2	2	1	C	1	1	646	1	Ⴔ	cut_j_stereo_44KHz.wav
4	111	3	4	2	I	2	0	1150	0	Ⴌ	cut_r_stereo_44KHz.wav
4	112	1	1	1	C	1	1	887	1	Ⴒ	cut_oei_stereo_44KHz.wav
4	113	2	2	1	C	1	1	763	1	Ⴔ	cut_j_stereo_44KHz.wav
4	114	4	3	2	I	0	0	0	0	Ⴉ	cut_ei_stereo_44KHz.wav
4	115	3	4	2	I	1	0	802	1	Ⴌ	cut_r_stereo_44KHz.wav
4	116	1	2	0	C	2	1	1109	1	Ⴒ	cut_j_stereo_44KHz.wav
4	117	2	1	0	C	2	1	795	1	Ⴔ	cut_oei_stereo_44KHz.wav
4	118	1	1	1	C	1	1	766	1	Ⴒ	cut_oei_stereo_44KHz.wav
4	119	4	4	2	I	1	0	1029	0	Ⴉ	cut_r_stereo_44KHz.wav
4	120	3	3	2	I	2	0	752	1	Ⴌ	cut_ei_stereo_44KHz.wav
4	121	1	1	1	C	1	1	695	1	Ⴒ	cut_oei_stereo_44KHz.wav
4	122	4	3	2	I	1	0	1183	0	Ⴉ	cut_ei_stereo_44KHz.wav
4	123	3	4	2	I	1	0	1480	1	Ⴌ	cut_r_stereo_44KHz.wav
4	124	2	2	1	C	1	1	812	1	Ⴔ	cut_j_stereo_44KHz.wav
4	125	1	2	0	C	1	0	1815	0	Ⴒ	cut_j_stereo_44KHz.wav
4	126	3	3	2	I	2	0	589	1	Ⴌ	cut_ei_stereo_44KHz.wav
4	127	2	1	0	C	2	1	903	1	Ⴔ	cut_oei_stereo_44KHz.wav
4	128	4	4	2	I	1	0	945	1	Ⴉ	cut_r_stereo_44KHz.wav
4	129	1	2	0	C	2	1	1129	1	Ⴒ	cut_j_stereo_44KHz.wav
4	130	4	4	2	I	1	0	1849	1	Ⴉ	cut_r_stereo_44KHz.wav
4	131	3	4	2	I	1	0	1058	0	Ⴌ	cut_r_stereo_44KHz.wav
4	132	2	1	0	C	2	1	523	1	Ⴔ	cut_oei_stereo_44KHz.wav
4	133	4	3	2	I	2	0	1243	1	Ⴉ	cut_ei_stereo_44KHz.wav
4	134	1	1	1	C	1	1	825	1	Ⴒ	cut_oei_stereo_44KHz.wav
4	135	3	3	2	I	2	0	646	0	Ⴌ	cut_ei_stereo_44KHz.wav
4	136	2	2	1	C	1	1	688	1	Ⴔ	cut_j_stereo_44KHz.wav
4	137	1	1	1	C	1	1	1116	1	Ⴒ	cut_oei_stereo_44KHz.wav
4	138	2	2	1	C	1	1	1346	1	Ⴔ	cut_j_stereo_44KHz.wav
4	139	3	4	2	I	1	0	1908	0	Ⴌ	cut_r_stereo_44KHz.wav
4	140	4	4	2	I	1	0	1386	0	Ⴉ	cut_r_stereo_44KHz.wav
4	141	2	1	0	C	2	1	649	1	Ⴔ	cut_oei_stereo_44KHz.wav
4	142	3	3	2	I	2	0	1160	0	Ⴌ	cut_ei_stereo_44KHz.wav
4	143	4	3	2	I	2	0	1114	0	Ⴉ	cut_ei_stereo_44KHz.wav
4	144	1	2	0	C	2	1	779	1	Ⴒ	cut_j_stereo_44KHz.wav
4	145	3	3	2	I	1	0	734	1	Ⴌ	cut_ei_stereo_44KHz.wav
4	146	2	1	0	C	2	1	635	1	Ⴔ	cut_oei_stereo_44KHz.wav
4	147	1	2	0	C	2	1	780	1	Ⴒ	cut_j_stereo_44KHz.wav
4	148	4	3	2	I	1	0	660	0	Ⴉ	cut_ei_stereo_44KHz.wav
4	149	1	1	1	C	1	1	766	1	Ⴒ	cut_oei_stereo_44KHz.wav
4	150	2	2	1	C	1	1	1006	1	Ⴔ	cut_j_stereo_44KHz.wav
4	151	3	4	2	I	0	0	0	0	Ⴌ	cut_r_stereo_44KHz.wav
4	152	4	4	2	I	1	0	999	0	Ⴉ	cut_r_stereo_44KHz.wav
4	153	2	1	0	C	2	1	705	1	Ⴔ	cut_oei_stereo_44KHz.wav
4	154	3	4	2	I	2	0	617	1	Ⴌ	cut_r_stereo_44KHz.wav
4	155	1	2	0	C	2	1	775	1	Ⴒ	cut_j_stereo_44KHz.wav
4	156	4	4	2	I	1	0	1406	1	Ⴉ	cut_r_stereo_44KHz.wav
4	157	3	3	2	I	2	0	1161	0	Ⴌ	cut_ei_stereo_44KHz.wav
4	158	1	1	1	C	1	1	1217	1	Ⴒ	cut_oei_stereo_44KHz.wav
4	159	2	2	1	C	1	1	662	1	Ⴔ	cut_j_stereo_44KHz.wav
4	160	4	3	2	I	2	0	706	0	Ⴉ	cut_ei_stereo_44KHz.wav
4	161	2	2	1	C	1	1	1333	1	Ⴔ	cut_j_stereo_44KHz.wav
4	162	3	3	2	I	1	0	1076	0	Ⴌ	cut_ei_stereo_44KHz.wav
4	163	4	3	2	I	1	0	974	1	Ⴉ	cut_ei_stereo_44KHz.wav
4	164	1	1	1	C	1	1	923	1	Ⴒ	cut_oei_stereo_44KHz.wav
4	165	2	1	0	C	2	1	882	1	Ⴔ	cut_oei_stereo_44KHz.wav
4	166	3	4	2	I	2	0	1140	1	Ⴌ	cut_r_stereo_44KHz.wav
4	167	1	2	0	C	2	1	809	1	Ⴒ	cut_j_stereo_44KHz.wav
4	168	4	4	2	I	1	0	756	1	Ⴉ	cut_r_stereo_44KHz.wav
4	169	3	4	2	I	1	0	1146	0	Ⴌ	cut_r_stereo_44KHz.wav
4	170	2	2	1	C	2	0	869	0	Ⴔ	cut_j_stereo_44KHz.wav
4	171	4	3	2	I	2	0	1456	1	Ⴉ	cut_ei_stereo_44KHz.wav
4	172	1	2	0	C	2	1	709	1	Ⴒ	cut_j_stereo_44KHz.wav
4	173	2	1	0	C	2	1	665	1	Ⴔ	cut_oei_stereo_44KHz.wav
4	174	4	4	2	I	1	0	1606	0	Ⴉ	cut_r_stereo_44KHz.wav
4	175	3	3	2	I	2	0	542	0	Ⴌ	cut_ei_stereo_44KHz.wav
4	176	1	1	1	C	1	1	762	1	Ⴒ	cut_oei_stereo_44KHz.wav
4	177	4	4	2	I	1	0	823	0	Ⴉ	cut_r_stereo_44KHz.wav
4	178	2	1	0	C	2	1	529	1	Ⴔ	cut_oei_stereo_44KHz.wav
4	179	1	1	1	C	1	1	702	1	Ⴒ	cut_oei_stereo_44KHz.wav
4	180	3	3	2	I	1	0	741	0	Ⴌ	cut_ei_stereo_44KHz.wav
4	181	1	2	0	C	2	1	781	1	Ⴒ	cut_j_stereo_44KHz.wav
4	182	4	3	2	I	2	0	749	1	Ⴉ	cut_ei_stereo_44KHz.wav
4	183	3	4	2	I	2	0	1223	1	Ⴌ	cut_r_stereo_44KHz.wav
4	184	2	2	1	C	2	0	526	0	Ⴔ	cut_j_stereo_44KHz.wav
4	185	1	1	1	C	1	1	1206	1	Ⴒ	cut_oei_stereo_44KHz.wav
4	186	3	4	2	I	2	0	1130	1	Ⴌ	cut_r_stereo_44KHz.wav
4	187	2	2	1	C	1	1	765	1	Ⴔ	cut_j_stereo_44KHz.wav
4	188	4	4	2	I	2	0	837	0	Ⴉ	cut_r_stereo_44KHz.wav
4	189	1	2	0	C	2	1	780	1	Ⴒ	cut_j_stereo_44KHz.wav
4	190	2	1	0	C	2	1	622	1	Ⴔ	cut_oei_stereo_44KHz.wav
4	191	3	3	2	I	2	0	529	1	Ⴌ	cut_ei_stereo_44KHz.wav
4	192	4	3	2	I	2	0	923	1	Ⴉ	cut_ei_stereo_44KHz.wav
4	193	3	3	2	I	2	0	669	1	Ⴌ	cut_ei_stereo_44KHz.wav
4	194	4	3	2	I	1	0	809	0	Ⴉ	cut_ei_stereo_44KHz.wav
4	195	2	1	0	C	2	1	563	1	Ⴔ	cut_oei_stereo_44KHz.wav
4	196	1	1	1	C	1	1	1167	1	Ⴒ	cut_oei_stereo_44KHz.wav
4	197	3	4	2	I	2	0	919	0	Ⴌ	cut_r_stereo_44KHz.wav
4	198	4	4	2	I	1	0	1118	1	Ⴉ	cut_r_stereo_44KHz.wav
4	199	1	2	0	C	2	1	1454	1	Ⴒ	cut_j_stereo_44KHz.wav
4	200	2	2	1	C	1	1	628	1	Ⴔ	cut_j_stereo_44KHz.wav
