block	trial	Vstim	Astim	match	C/I	resp	result	RT	fb	V-file	A-file
RL

0	1	1	1	1	C	2	0	1268	0	poli_8sides 23_whiteLine3.jpg	Practice3_b26_cut1_mono_resampled.wav
0	2	1	2	0	C	2	1	764	1	poli_8sides 23_whiteLine3.jpg	Practice2_b27_cut2_mono_resampled.wav
0	3	2	3	1	C	1	1	837	1	poli_8sides 21_whiteLine3.jpg	Practice1_b27_cut1_mono_resampled.wav
0	4	2	4	0	C	2	1	904	1	poli_8sides 21_whiteLine3.jpg	Practice4_b26_mono_resampled.wav
0	5	1	2	0	C	2	1	493	1	poli_8sides 23_whiteLine3.jpg	Practice2_b27_cut2_mono_resampled.wav
0	6	1	1	1	C	2	0	586	0	poli_8sides 23_whiteLine3.jpg	Practice3_b26_cut1_mono_resampled.wav
0	7	2	4	0	C	2	1	760	1	poli_8sides 21_whiteLine3.jpg	Practice4_b26_mono_resampled.wav
0	8	2	3	1	C	1	1	1012	1	poli_8sides 21_whiteLine3.jpg	Practice1_b27_cut1_mono_resampled.wav
0	9	1	1	1	C	2	0	453	0	poli_8sides 23_whiteLine3.jpg	Practice3_b26_cut1_mono_resampled.wav
0	10	2	4	0	C	2	1	715	1	poli_8sides 21_whiteLine3.jpg	Practice4_b26_mono_resampled.wav
0	11	2	3	1	C	1	1	669	1	poli_8sides 21_whiteLine3.jpg	Practice1_b27_cut1_mono_resampled.wav
0	12	1	2	0	C	2	1	711	1	poli_8sides 23_whiteLine3.jpg	Practice2_b27_cut2_mono_resampled.wav
0	13	2	4	0	C	2	1	507	1	poli_8sides 21_whiteLine3.jpg	Practice4_b26_mono_resampled.wav
0	14	1	1	1	C	1	1	854	1	poli_8sides 23_whiteLine3.jpg	Practice3_b26_cut1_mono_resampled.wav
0	15	1	2	0	C	2	1	787	1	poli_8sides 23_whiteLine3.jpg	Practice2_b27_cut2_mono_resampled.wav
0	16	2	3	1	C	1	1	1065	1	poli_8sides 21_whiteLine3.jpg	Practice1_b27_cut1_mono_resampled.wav
0	17	1	2	0	C	2	1	588	1	poli_8sides 23_whiteLine3.jpg	Practice2_b27_cut2_mono_resampled.wav
0	18	1	1	1	C	1	1	934	1	poli_8sides 23_whiteLine3.jpg	Practice3_b26_cut1_mono_resampled.wav
0	19	2	3	1	C	1	1	787	1	poli_8sides 21_whiteLine3.jpg	Practice1_b27_cut1_mono_resampled.wav
0	20	2	4	0	C	2	1	643	1	poli_8sides 21_whiteLine3.jpg	Practice4_b26_mono_resampled.wav
0	21	1	2	0	C	2	1	440	1	poli_8sides 23_whiteLine3.jpg	Practice2_b27_cut2_mono_resampled.wav
0	22	2	3	1	C	1	1	925	1	poli_8sides 21_whiteLine3.jpg	Practice1_b27_cut1_mono_resampled.wav
0	23	2	4	0	C	2	1	903	1	poli_8sides 21_whiteLine3.jpg	Practice4_b26_mono_resampled.wav
0	24	1	1	1	C	1	1	728	1	poli_8sides 23_whiteLine3.jpg	Practice3_b26_cut1_mono_resampled.wav
0	25	1	1	1	C	1	1	814	1	poli_8sides 23_whiteLine3.jpg	Practice3_b26_cut1_mono_resampled.wav
0	26	1	2	0	C	2	1	727	1	poli_8sides 23_whiteLine3.jpg	Practice2_b27_cut2_mono_resampled.wav
0	27	2	3	1	C	1	1	1173	1	poli_8sides 21_whiteLine3.jpg	Practice1_b27_cut1_mono_resampled.wav
0	28	2	4	0	C	2	1	679	1	poli_8sides 21_whiteLine3.jpg	Practice4_b26_mono_resampled.wav
0	29	1	2	0	C	2	1	729	1	poli_8sides 23_whiteLine3.jpg	Practice2_b27_cut2_mono_resampled.wav
0	30	1	1	1	C	1	1	702	1	poli_8sides 23_whiteLine3.jpg	Practice3_b26_cut1_mono_resampled.wav
avg_resp = 772
1	1	1	1	1	C	2	0	1565	0	poli_8sides 2_whiteLine3.jpg	Long_b01_cut2_L_mono_resampled.wav
1	2	4	3	2	I	2	0	713	0	poli_8sides 13_whiteLine3.jpg	Long_e17_cut2_mono_resampled.wav
1	3	3	3	2	I	2	0	478	0	poli_8sides 7_whiteLine3.jpg	Long_e17_cut2_mono_resampled.wav
1	4	2	1	0	C	2	1	596	1	poli_8sides 18_whiteLine3.jpg	Long_b01_cut2_L_mono_resampled.wav
1	5	3	4	2	I	2	0	748	0	poli_8sides 7_whiteLine3.jpg	Long_s10_cut2_l_mono_resampled.wav
1	6	2	2	1	C	1	1	603	1	poli_8sides 18_whiteLine3.jpg	Long_e24_cut1_mono_resampled.wav
1	7	1	2	0	C	2	1	1035	1	poli_8sides 2_whiteLine3.jpg	Long_e24_cut1_mono_resampled.wav
1	8	4	4	2	I	2	0	710	1	poli_8sides 13_whiteLine3.jpg	Long_s10_cut2_l_mono_resampled.wav
1	9	1	2	0	C	1	0	872	0	poli_8sides 2_whiteLine3.jpg	Long_e24_cut1_mono_resampled.wav
1	10	3	3	2	I	2	0	692	0	poli_8sides 7_whiteLine3.jpg	Long_e17_cut2_mono_resampled.wav
1	11	4	4	2	I	1	0	825	1	poli_8sides 13_whiteLine3.jpg	Long_s10_cut2_l_mono_resampled.wav
1	12	2	2	1	C	1	1	734	1	poli_8sides 18_whiteLine3.jpg	Long_e24_cut1_mono_resampled.wav
1	13	3	4	2	I	2	0	907	1	poli_8sides 7_whiteLine3.jpg	Long_s10_cut2_l_mono_resampled.wav
1	14	1	1	1	C	1	1	896	1	poli_8sides 2_whiteLine3.jpg	Long_b01_cut2_L_mono_resampled.wav
1	15	2	1	0	C	1	0	653	0	poli_8sides 18_whiteLine3.jpg	Long_b01_cut2_L_mono_resampled.wav
1	16	4	3	2	I	2	0	612	0	poli_8sides 13_whiteLine3.jpg	Long_e17_cut2_mono_resampled.wav
1	17	1	1	1	C	2	0	1146	0	poli_8sides 2_whiteLine3.jpg	Long_b01_cut2_L_mono_resampled.wav
1	18	2	1	0	C	2	1	685	1	poli_8sides 18_whiteLine3.jpg	Long_b01_cut2_L_mono_resampled.wav
1	19	3	3	2	I	2	0	747	0	poli_8sides 7_whiteLine3.jpg	Long_e17_cut2_mono_resampled.wav
1	20	4	4	2	I	1	0	1123	0	poli_8sides 13_whiteLine3.jpg	Long_s10_cut2_l_mono_resampled.wav
1	21	1	2	0	C	0	0	0	0	poli_8sides 2_whiteLine3.jpg	Long_e24_cut1_mono_resampled.wav
1	22	4	3	2	I	2	0	527	1	poli_8sides 13_whiteLine3.jpg	Long_e17_cut2_mono_resampled.wav
1	23	2	2	1	C	2	0	574	0	poli_8sides 18_whiteLine3.jpg	Long_e24_cut1_mono_resampled.wav
1	24	3	4	2	I	1	0	794	1	poli_8sides 7_whiteLine3.jpg	Long_s10_cut2_l_mono_resampled.wav
1	25	2	1	0	C	2	1	692	1	poli_8sides 18_whiteLine3.jpg	Long_b01_cut2_L_mono_resampled.wav
1	26	3	4	2	I	2	0	686	1	poli_8sides 7_whiteLine3.jpg	Long_s10_cut2_l_mono_resampled.wav
1	27	4	4	2	I	1	0	650	1	poli_8sides 13_whiteLine3.jpg	Long_s10_cut2_l_mono_resampled.wav
1	28	1	1	1	C	2	0	724	0	poli_8sides 2_whiteLine3.jpg	Long_b01_cut2_L_mono_resampled.wav
1	29	2	2	1	C	2	0	617	0	poli_8sides 18_whiteLine3.jpg	Long_e24_cut1_mono_resampled.wav
1	30	3	3	2	I	2	0	554	1	poli_8sides 7_whiteLine3.jpg	Long_e17_cut2_mono_resampled.wav
1	31	1	2	0	C	2	1	955	1	poli_8sides 2_whiteLine3.jpg	Long_e24_cut1_mono_resampled.wav
1	32	4	3	2	I	2	0	731	0	poli_8sides 13_whiteLine3.jpg	Long_e17_cut2_mono_resampled.wav
1	33	2	2	1	C	1	1	976	1	poli_8sides 18_whiteLine3.jpg	Long_e24_cut1_mono_resampled.wav
1	34	1	1	1	C	2	0	810	0	poli_8sides 2_whiteLine3.jpg	Long_b01_cut2_L_mono_resampled.wav
1	35	3	3	2	I	2	0	762	0	poli_8sides 7_whiteLine3.jpg	Long_e17_cut2_mono_resampled.wav
1	36	4	4	2	I	2	0	620	1	poli_8sides 13_whiteLine3.jpg	Long_s10_cut2_l_mono_resampled.wav
1	37	3	4	2	I	1	0	977	1	poli_8sides 7_whiteLine3.jpg	Long_s10_cut2_l_mono_resampled.wav
1	38	2	1	0	C	2	1	772	1	poli_8sides 18_whiteLine3.jpg	Long_b01_cut2_L_mono_resampled.wav
1	39	1	2	0	C	2	1	867	1	poli_8sides 2_whiteLine3.jpg	Long_e24_cut1_mono_resampled.wav
1	40	4	3	2	I	2	0	766	0	poli_8sides 13_whiteLine3.jpg	Long_e17_cut2_mono_resampled.wav
1	41	3	3	2	I	2	0	553	0	poli_8sides 7_whiteLine3.jpg	Long_e17_cut2_mono_resampled.wav
1	42	4	4	2	I	2	0	726	0	poli_8sides 13_whiteLine3.jpg	Long_s10_cut2_l_mono_resampled.wav
1	43	1	1	1	C	2	0	525	0	poli_8sides 2_whiteLine3.jpg	Long_b01_cut2_L_mono_resampled.wav
1	44	2	1	0	C	2	1	783	1	poli_8sides 18_whiteLine3.jpg	Long_b01_cut2_L_mono_resampled.wav
1	45	3	4	2	I	2	0	622	0	poli_8sides 7_whiteLine3.jpg	Long_s10_cut2_l_mono_resampled.wav
1	46	2	2	1	C	2	0	622	0	poli_8sides 18_whiteLine3.jpg	Long_e24_cut1_mono_resampled.wav
1	47	4	3	2	I	1	0	989	1	poli_8sides 13_whiteLine3.jpg	Long_e17_cut2_mono_resampled.wav
1	48	1	2	0	C	2	1	557	1	poli_8sides 2_whiteLine3.jpg	Long_e24_cut1_mono_resampled.wav
1	49	4	3	2	I	1	0	490	1	poli_8sides 13_whiteLine3.jpg	Long_e17_cut2_mono_resampled.wav
1	50	2	1	0	C	1	0	620	0	poli_8sides 18_whiteLine3.jpg	Long_b01_cut2_L_mono_resampled.wav
1	51	1	1	1	C	2	0	292	0	poli_8sides 2_whiteLine3.jpg	Long_b01_cut2_L_mono_resampled.wav
1	52	3	3	2	I	2	0	643	1	poli_8sides 7_whiteLine3.jpg	Long_e17_cut2_mono_resampled.wav
1	53	4	4	2	I	2	0	499	0	poli_8sides 13_whiteLine3.jpg	Long_s10_cut2_l_mono_resampled.wav
1	54	1	2	0	C	2	1	672	1	poli_8sides 2_whiteLine3.jpg	Long_e24_cut1_mono_resampled.wav
1	55	3	4	2	I	2	0	578	0	poli_8sides 7_whiteLine3.jpg	Long_s10_cut2_l_mono_resampled.wav
1	56	2	2	1	C	2	0	427	0	poli_8sides 18_whiteLine3.jpg	Long_e24_cut1_mono_resampled.wav
1	57	3	4	2	I	2	0	446	1	poli_8sides 7_whiteLine3.jpg	Long_s10_cut2_l_mono_resampled.wav
1	58	4	3	2	I	1	0	959	1	poli_8sides 13_whiteLine3.jpg	Long_e17_cut2_mono_resampled.wav
1	59	2	2	1	C	2	0	646	0	poli_8sides 18_whiteLine3.jpg	Long_e24_cut1_mono_resampled.wav
1	60	1	2	0	C	1	0	743	0	poli_8sides 2_whiteLine3.jpg	Long_e24_cut1_mono_resampled.wav
1	61	3	3	2	I	2	0	632	1	poli_8sides 7_whiteLine3.jpg	Long_e17_cut2_mono_resampled.wav
1	62	1	1	1	C	2	0	636	0	poli_8sides 2_whiteLine3.jpg	Long_b01_cut2_L_mono_resampled.wav
1	63	2	1	0	C	2	1	1099	1	poli_8sides 18_whiteLine3.jpg	Long_b01_cut2_L_mono_resampled.wav
1	64	4	4	2	I	2	0	914	0	poli_8sides 13_whiteLine3.jpg	Long_s10_cut2_l_mono_resampled.wav
1	65	3	4	2	I	1	0	914	1	poli_8sides 7_whiteLine3.jpg	Long_s10_cut2_l_mono_resampled.wav
1	66	4	4	2	I	2	0	743	0	poli_8sides 13_whiteLine3.jpg	Long_s10_cut2_l_mono_resampled.wav
1	67	1	2	0	C	2	1	694	1	poli_8sides 2_whiteLine3.jpg	Long_e24_cut1_mono_resampled.wav
1	68	2	1	0	C	2	1	784	1	poli_8sides 18_whiteLine3.jpg	Long_b01_cut2_L_mono_resampled.wav
1	69	4	3	2	I	0	0	0	0	poli_8sides 13_whiteLine3.jpg	Long_e17_cut2_mono_resampled.wav
1	70	1	1	1	C	2	0	669	0	poli_8sides 2_whiteLine3.jpg	Long_b01_cut2_L_mono_resampled.wav
1	71	3	3	2	I	2	0	604	1	poli_8sides 7_whiteLine3.jpg	Long_e17_cut2_mono_resampled.wav
1	72	2	2	1	C	2	0	814	0	poli_8sides 18_whiteLine3.jpg	Long_e24_cut1_mono_resampled.wav
1	73	4	3	2	I	2	0	650	1	poli_8sides 13_whiteLine3.jpg	Long_e17_cut2_mono_resampled.wav
1	74	3	3	2	I	1	0	1437	0	poli_8sides 7_whiteLine3.jpg	Long_e17_cut2_mono_resampled.wav
1	75	2	1	0	C	1	0	867	0	poli_8sides 18_whiteLine3.jpg	Long_b01_cut2_L_mono_resampled.wav
1	76	1	2	0	C	2	1	697	1	poli_8sides 2_whiteLine3.jpg	Long_e24_cut1_mono_resampled.wav
1	77	4	4	2	I	2	0	783	1	poli_8sides 13_whiteLine3.jpg	Long_s10_cut2_l_mono_resampled.wav
1	78	3	4	2	I	1	0	745	0	poli_8sides 7_whiteLine3.jpg	Long_s10_cut2_l_mono_resampled.wav
1	79	1	1	1	C	1	1	1241	1	poli_8sides 2_whiteLine3.jpg	Long_b01_cut2_L_mono_resampled.wav
1	80	2	2	1	C	1	1	819	1	poli_8sides 18_whiteLine3.jpg	Long_e24_cut1_mono_resampled.wav
1	81	3	3	2	I	2	0	883	1	poli_8sides 7_whiteLine3.jpg	Long_e17_cut2_mono_resampled.wav
1	82	1	1	1	C	2	0	595	0	poli_8sides 2_whiteLine3.jpg	Long_b01_cut2_L_mono_resampled.wav
1	83	2	1	0	C	2	1	397	1	poli_8sides 18_whiteLine3.jpg	Long_b01_cut2_L_mono_resampled.wav
1	84	4	4	2	I	1	0	751	0	poli_8sides 13_whiteLine3.jpg	Long_s10_cut2_l_mono_resampled.wav
1	85	1	2	0	C	2	1	601	1	poli_8sides 2_whiteLine3.jpg	Long_e24_cut1_mono_resampled.wav
1	86	4	3	2	I	1	0	798	0	poli_8sides 13_whiteLine3.jpg	Long_e17_cut2_mono_resampled.wav
1	87	3	4	2	I	1	0	957	0	poli_8sides 7_whiteLine3.jpg	Long_s10_cut2_l_mono_resampled.wav
1	88	2	2	1	C	2	0	607	0	poli_8sides 18_whiteLine3.jpg	Long_e24_cut1_mono_resampled.wav
1	89	3	4	2	I	2	0	382	0	poli_8sides 7_whiteLine3.jpg	Long_s10_cut2_l_mono_resampled.wav
1	90	1	1	1	C	2	0	708	0	poli_8sides 2_whiteLine3.jpg	Long_b01_cut2_L_mono_resampled.wav
1	91	2	2	1	C	2	0	730	0	poli_8sides 18_whiteLine3.jpg	Long_e24_cut1_mono_resampled.wav
1	92	4	4	2	I	1	0	104	0	poli_8sides 13_whiteLine3.jpg	Long_s10_cut2_l_mono_resampled.wav
1	93	2	1	0	C	2	1	781	1	poli_8sides 18_whiteLine3.jpg	Long_b01_cut2_L_mono_resampled.wav
1	94	1	2	0	C	2	1	819	1	poli_8sides 2_whiteLine3.jpg	Long_e24_cut1_mono_resampled.wav
1	95	4	3	2	I	2	0	596	1	poli_8sides 13_whiteLine3.jpg	Long_e17_cut2_mono_resampled.wav
1	96	3	3	2	I	2	0	504	0	poli_8sides 7_whiteLine3.jpg	Long_e17_cut2_mono_resampled.wav
1	97	4	4	2	I	2	0	935	0	poli_8sides 13_whiteLine3.jpg	Long_s10_cut2_l_mono_resampled.wav
1	98	1	2	0	C	2	1	1249	1	poli_8sides 2_whiteLine3.jpg	Long_e24_cut1_mono_resampled.wav
1	99	2	2	1	C	1	1	594	1	poli_8sides 18_whiteLine3.jpg	Long_e24_cut1_mono_resampled.wav
1	100	3	3	2	I	2	0	621	1	poli_8sides 7_whiteLine3.jpg	Long_e17_cut2_mono_resampled.wav
1	101	1	1	1	C	2	0	509	0	poli_8sides 2_whiteLine3.jpg	Long_b01_cut2_L_mono_resampled.wav
1	102	3	4	2	I	2	0	567	1	poli_8sides 7_whiteLine3.jpg	Long_s10_cut2_l_mono_resampled.wav
1	103	2	1	0	C	2	1	631	1	poli_8sides 18_whiteLine3.jpg	Long_b01_cut2_L_mono_resampled.wav
1	104	4	3	2	I	2	0	500	1	poli_8sides 13_whiteLine3.jpg	Long_e17_cut2_mono_resampled.wav
1	105	2	2	1	C	2	0	410	0	poli_8sides 18_whiteLine3.jpg	Long_e24_cut1_mono_resampled.wav
1	106	3	4	2	I	1	0	433	0	poli_8sides 7_whiteLine3.jpg	Long_s10_cut2_l_mono_resampled.wav
1	107	4	3	2	I	2	0	618	0	poli_8sides 13_whiteLine3.jpg	Long_e17_cut2_mono_resampled.wav
1	108	1	2	0	C	2	1	747	1	poli_8sides 2_whiteLine3.jpg	Long_e24_cut1_mono_resampled.wav
1	109	3	3	2	I	2	0	539	0	poli_8sides 7_whiteLine3.jpg	Long_e17_cut2_mono_resampled.wav
1	110	4	4	2	I	2	0	766	0	poli_8sides 13_whiteLine3.jpg	Long_s10_cut2_l_mono_resampled.wav
1	111	1	1	1	C	2	0	798	0	poli_8sides 2_whiteLine3.jpg	Long_b01_cut2_L_mono_resampled.wav
1	112	2	1	0	C	1	0	913	0	poli_8sides 18_whiteLine3.jpg	Long_b01_cut2_L_mono_resampled.wav
1	113	3	3	2	I	2	0	678	0	poli_8sides 7_whiteLine3.jpg	Long_e17_cut2_mono_resampled.wav
1	114	4	3	2	I	2	0	1377	0	poli_8sides 13_whiteLine3.jpg	Long_e17_cut2_mono_resampled.wav
1	115	1	2	0	C	2	1	625	1	poli_8sides 2_whiteLine3.jpg	Long_e24_cut1_mono_resampled.wav
1	116	2	2	1	C	1	1	804	1	poli_8sides 18_whiteLine3.jpg	Long_e24_cut1_mono_resampled.wav
1	117	3	4	2	I	1	0	855	0	poli_8sides 7_whiteLine3.jpg	Long_s10_cut2_l_mono_resampled.wav
1	118	1	1	1	C	1	1	1069	1	poli_8sides 2_whiteLine3.jpg	Long_b01_cut2_L_mono_resampled.wav
1	119	2	1	0	C	2	1	741	1	poli_8sides 18_whiteLine3.jpg	Long_b01_cut2_L_mono_resampled.wav
1	120	4	4	2	I	2	0	863	0	poli_8sides 13_whiteLine3.jpg	Long_s10_cut2_l_mono_resampled.wav
1	121	3	3	2	I	1	0	1015	0	poli_8sides 7_whiteLine3.jpg	Long_e17_cut2_mono_resampled.wav
1	122	1	1	1	C	1	1	1146	1	poli_8sides 2_whiteLine3.jpg	Long_b01_cut2_L_mono_resampled.wav
1	123	4	3	2	I	2	0	684	1	poli_8sides 13_whiteLine3.jpg	Long_e17_cut2_mono_resampled.wav
1	124	2	1	0	C	2	1	587	1	poli_8sides 18_whiteLine3.jpg	Long_b01_cut2_L_mono_resampled.wav
1	125	4	4	2	I	2	0	752	1	poli_8sides 13_whiteLine3.jpg	Long_s10_cut2_l_mono_resampled.wav
1	126	1	2	0	C	2	1	961	1	poli_8sides 2_whiteLine3.jpg	Long_e24_cut1_mono_resampled.wav
1	127	3	4	2	I	2	0	471	1	poli_8sides 7_whiteLine3.jpg	Long_s10_cut2_l_mono_resampled.wav
1	128	2	2	1	C	1	1	648	1	poli_8sides 18_whiteLine3.jpg	Long_e24_cut1_mono_resampled.wav
1	129	1	1	1	C	2	0	751	0	poli_8sides 2_whiteLine3.jpg	Long_b01_cut2_L_mono_resampled.wav
1	130	4	4	2	I	2	0	778	0	poli_8sides 13_whiteLine3.jpg	Long_s10_cut2_l_mono_resampled.wav
1	131	2	2	1	C	1	1	712	1	poli_8sides 18_whiteLine3.jpg	Long_e24_cut1_mono_resampled.wav
1	132	3	4	2	I	2	0	781	0	poli_8sides 7_whiteLine3.jpg	Long_s10_cut2_l_mono_resampled.wav
1	133	2	1	0	C	2	1	651	1	poli_8sides 18_whiteLine3.jpg	Long_b01_cut2_L_mono_resampled.wav
1	134	4	3	2	I	2	0	607	1	poli_8sides 13_whiteLine3.jpg	Long_e17_cut2_mono_resampled.wav
1	135	1	2	0	C	2	1	836	1	poli_8sides 2_whiteLine3.jpg	Long_e24_cut1_mono_resampled.wav
1	136	3	3	2	I	2	0	415	1	poli_8sides 7_whiteLine3.jpg	Long_e17_cut2_mono_resampled.wav
1	137	4	3	2	I	2	0	491	1	poli_8sides 13_whiteLine3.jpg	Long_e17_cut2_mono_resampled.wav
1	138	1	1	1	C	2	0	236	0	poli_8sides 2_whiteLine3.jpg	Long_b01_cut2_L_mono_resampled.wav
1	139	3	3	2	I	2	0	660	1	poli_8sides 7_whiteLine3.jpg	Long_e17_cut2_mono_resampled.wav
1	140	2	2	1	C	2	0	658	0	poli_8sides 18_whiteLine3.jpg	Long_e24_cut1_mono_resampled.wav
1	141	4	4	2	I	1	0	1002	0	poli_8sides 13_whiteLine3.jpg	Long_s10_cut2_l_mono_resampled.wav
1	142	2	1	0	C	2	1	734	1	poli_8sides 18_whiteLine3.jpg	Long_b01_cut2_L_mono_resampled.wav
1	143	3	4	2	I	2	0	854	0	poli_8sides 7_whiteLine3.jpg	Long_s10_cut2_l_mono_resampled.wav
1	144	1	2	0	C	2	1	713	1	poli_8sides 2_whiteLine3.jpg	Long_e24_cut1_mono_resampled.wav
1	145	4	3	2	I	1	0	938	0	poli_8sides 13_whiteLine3.jpg	Long_e17_cut2_mono_resampled.wav
1	146	2	2	1	C	2	0	674	0	poli_8sides 18_whiteLine3.jpg	Long_e24_cut1_mono_resampled.wav
1	147	3	3	2	I	2	0	338	0	poli_8sides 7_whiteLine3.jpg	Long_e17_cut2_mono_resampled.wav
1	148	1	1	1	C	2	0	593	0	poli_8sides 2_whiteLine3.jpg	Long_b01_cut2_L_mono_resampled.wav
1	149	3	4	2	I	2	0	796	1	poli_8sides 7_whiteLine3.jpg	Long_s10_cut2_l_mono_resampled.wav
1	150	2	1	0	C	2	1	806	1	poli_8sides 18_whiteLine3.jpg	Long_b01_cut2_L_mono_resampled.wav
1	151	1	2	0	C	2	1	478	1	poli_8sides 2_whiteLine3.jpg	Long_e24_cut1_mono_resampled.wav
1	152	4	4	2	I	2	0	769	1	poli_8sides 13_whiteLine3.jpg	Long_s10_cut2_l_mono_resampled.wav
1	153	3	4	2	I	1	0	889	1	poli_8sides 7_whiteLine3.jpg	Long_s10_cut2_l_mono_resampled.wav
1	154	4	4	2	I	2	0	1071	0	poli_8sides 13_whiteLine3.jpg	Long_s10_cut2_l_mono_resampled.wav
1	155	2	1	0	C	2	1	795	1	poli_8sides 18_whiteLine3.jpg	Long_b01_cut2_L_mono_resampled.wav
1	156	1	1	1	C	1	1	807	1	poli_8sides 2_whiteLine3.jpg	Long_b01_cut2_L_mono_resampled.wav
1	157	3	3	2	I	2	0	758	1	poli_8sides 7_whiteLine3.jpg	Long_e17_cut2_mono_resampled.wav
1	158	1	2	0	C	2	1	903	1	poli_8sides 2_whiteLine3.jpg	Long_e24_cut1_mono_resampled.wav
1	159	2	2	1	C	1	1	699	1	poli_8sides 18_whiteLine3.jpg	Long_e24_cut1_mono_resampled.wav
1	160	4	3	2	I	1	0	1066	0	poli_8sides 13_whiteLine3.jpg	Long_e17_cut2_mono_resampled.wav
1	161	2	1	0	C	2	1	556	1	poli_8sides 18_whiteLine3.jpg	Long_b01_cut2_L_mono_resampled.wav
1	162	1	1	1	C	1	1	793	1	poli_8sides 2_whiteLine3.jpg	Long_b01_cut2_L_mono_resampled.wav
1	163	4	4	2	I	2	0	624	1	poli_8sides 13_whiteLine3.jpg	Long_s10_cut2_l_mono_resampled.wav
1	164	3	4	2	I	1	0	629	1	poli_8sides 7_whiteLine3.jpg	Long_s10_cut2_l_mono_resampled.wav
1	165	4	3	2	I	2	0	1034	1	poli_8sides 13_whiteLine3.jpg	Long_e17_cut2_mono_resampled.wav
1	166	3	3	2	I	1	0	817	0	poli_8sides 7_whiteLine3.jpg	Long_e17_cut2_mono_resampled.wav
1	167	2	2	1	C	2	0	888	0	poli_8sides 18_whiteLine3.jpg	Long_e24_cut1_mono_resampled.wav
1	168	1	2	0	C	2	1	827	1	poli_8sides 2_whiteLine3.jpg	Long_e24_cut1_mono_resampled.wav
1	169	3	3	2	I	2	0	735	0	poli_8sides 7_whiteLine3.jpg	Long_e17_cut2_mono_resampled.wav
1	170	2	1	0	C	2	1	774	1	poli_8sides 18_whiteLine3.jpg	Long_b01_cut2_L_mono_resampled.wav
1	171	1	2	0	C	2	1	598	1	poli_8sides 2_whiteLine3.jpg	Long_e24_cut1_mono_resampled.wav
1	172	4	4	2	I	2	0	753	1	poli_8sides 13_whiteLine3.jpg	Long_s10_cut2_l_mono_resampled.wav
1	173	3	4	2	I	2	0	602	1	poli_8sides 7_whiteLine3.jpg	Long_s10_cut2_l_mono_resampled.wav
1	174	1	1	1	C	1	1	1084	1	poli_8sides 2_whiteLine3.jpg	Long_b01_cut2_L_mono_resampled.wav
1	175	2	2	1	C	2	0	668	0	poli_8sides 18_whiteLine3.jpg	Long_e24_cut1_mono_resampled.wav
1	176	4	3	2	I	2	0	551	1	poli_8sides 13_whiteLine3.jpg	Long_e17_cut2_mono_resampled.wav
1	177	1	2	0	C	2	1	605	1	poli_8sides 2_whiteLine3.jpg	Long_e24_cut1_mono_resampled.wav
1	178	3	3	2	I	1	0	1277	1	poli_8sides 7_whiteLine3.jpg	Long_e17_cut2_mono_resampled.wav
1	179	4	4	2	I	2	0	654	1	poli_8sides 13_whiteLine3.jpg	Long_s10_cut2_l_mono_resampled.wav
1	180	2	1	0	C	2	1	696	1	poli_8sides 18_whiteLine3.jpg	Long_b01_cut2_L_mono_resampled.wav
1	181	4	3	2	I	1	0	701	0	poli_8sides 13_whiteLine3.jpg	Long_e17_cut2_mono_resampled.wav
1	182	1	1	1	C	2	0	485	0	poli_8sides 2_whiteLine3.jpg	Long_b01_cut2_L_mono_resampled.wav
1	183	3	4	2	I	2	0	724	1	poli_8sides 7_whiteLine3.jpg	Long_s10_cut2_l_mono_resampled.wav
1	184	2	2	1	C	2	0	658	0	poli_8sides 18_whiteLine3.jpg	Long_e24_cut1_mono_resampled.wav
1	185	3	3	2	I	2	0	450	1	poli_8sides 7_whiteLine3.jpg	Long_e17_cut2_mono_resampled.wav
1	186	1	1	1	C	1	1	814	1	poli_8sides 2_whiteLine3.jpg	Long_b01_cut2_L_mono_resampled.wav
1	187	2	1	0	C	2	1	637	1	poli_8sides 18_whiteLine3.jpg	Long_b01_cut2_L_mono_resampled.wav
1	188	4	3	2	I	1	0	884	1	poli_8sides 13_whiteLine3.jpg	Long_e17_cut2_mono_resampled.wav
1	189	2	2	1	C	2	0	594	0	poli_8sides 18_whiteLine3.jpg	Long_e24_cut1_mono_resampled.wav
1	190	1	2	0	C	2	1	1018	1	poli_8sides 2_whiteLine3.jpg	Long_e24_cut1_mono_resampled.wav
1	191	3	4	2	I	2	0	701	0	poli_8sides 7_whiteLine3.jpg	Long_s10_cut2_l_mono_resampled.wav
1	192	4	4	2	I	2	0	653	0	poli_8sides 13_whiteLine3.jpg	Long_s10_cut2_l_mono_resampled.wav
1	193	2	2	1	C	2	0	573	0	poli_8sides 18_whiteLine3.jpg	Long_e24_cut1_mono_resampled.wav
1	194	1	1	1	C	1	1	875	1	poli_8sides 2_whiteLine3.jpg	Long_b01_cut2_L_mono_resampled.wav
1	195	4	4	2	I	1	0	263	1	poli_8sides 13_whiteLine3.jpg	Long_s10_cut2_l_mono_resampled.wav
1	196	3	3	2	I	1	0	813	0	poli_8sides 7_whiteLine3.jpg	Long_e17_cut2_mono_resampled.wav
1	197	4	3	2	I	2	0	651	1	poli_8sides 13_whiteLine3.jpg	Long_e17_cut2_mono_resampled.wav
1	198	3	4	2	I	2	0	923	1	poli_8sides 7_whiteLine3.jpg	Long_s10_cut2_l_mono_resampled.wav
1	199	1	2	0	C	2	1	669	1	poli_8sides 2_whiteLine3.jpg	Long_e24_cut1_mono_resampled.wav
1	200	2	1	0	C	1	0	542	0	poli_8sides 18_whiteLine3.jpg	Long_b01_cut2_L_mono_resampled.wav
2	1	3	3	2	I	2	0	812	1	poli_8sides 14_whiteLine3.jpg	MediumLong_b10_cut2_L_mono_resampled.wav
2	2	1	2	0	C	2	1	721	1	poli_8sides 3_whiteLine3.jpg	Medium_e26_mono_resampled.wav
2	3	2	2	1	C	1	1	596	1	poli_8sides 12_whiteLine3.jpg	Medium_e26_mono_resampled.wav
2	4	4	3	2	I	2	0	852	1	poli_8sides 6_whiteLine3.jpg	MediumLong_b10_cut2_L_mono_resampled.wav
2	5	1	1	1	C	1	1	757	1	poli_8sides 3_whiteLine3.jpg	MediumLong_e19_mono_resampled.wav
2	6	3	4	2	I	1	0	988	0	poli_8sides 14_whiteLine3.jpg	MediumLong_e04_mono_resampled.wav
2	7	2	1	0	C	1	0	745	0	poli_8sides 12_whiteLine3.jpg	MediumLong_e19_mono_resampled.wav
2	8	4	4	2	I	2	0	677	1	poli_8sides 6_whiteLine3.jpg	MediumLong_e04_mono_resampled.wav
2	9	3	4	2	I	1	0	870	0	poli_8sides 14_whiteLine3.jpg	MediumLong_e04_mono_resampled.wav
2	10	2	1	0	C	2	1	814	1	poli_8sides 12_whiteLine3.jpg	MediumLong_e19_mono_resampled.wav
2	11	1	1	1	C	1	1	1175	1	poli_8sides 3_whiteLine3.jpg	MediumLong_e19_mono_resampled.wav
2	12	4	3	2	I	2	0	928	0	poli_8sides 6_whiteLine3.jpg	MediumLong_b10_cut2_L_mono_resampled.wav
2	13	3	3	2	I	1	0	789	0	poli_8sides 14_whiteLine3.jpg	MediumLong_b10_cut2_L_mono_resampled.wav
2	14	2	2	1	C	1	1	787	1	poli_8sides 12_whiteLine3.jpg	Medium_e26_mono_resampled.wav
2	15	4	4	2	I	2	0	721	0	poli_8sides 6_whiteLine3.jpg	MediumLong_e04_mono_resampled.wav
2	16	1	2	0	C	2	1	569	1	poli_8sides 3_whiteLine3.jpg	Medium_e26_mono_resampled.wav
2	17	3	3	2	I	1	0	1520	1	poli_8sides 14_whiteLine3.jpg	MediumLong_b10_cut2_L_mono_resampled.wav
2	18	2	1	0	C	1	0	721	0	poli_8sides 12_whiteLine3.jpg	MediumLong_e19_mono_resampled.wav
2	19	4	3	2	I	2	0	826	1	poli_8sides 6_whiteLine3.jpg	MediumLong_b10_cut2_L_mono_resampled.wav
2	20	1	1	1	C	1	1	907	1	poli_8sides 3_whiteLine3.jpg	MediumLong_e19_mono_resampled.wav
2	21	3	4	2	I	2	0	780	0	poli_8sides 14_whiteLine3.jpg	MediumLong_e04_mono_resampled.wav
2	22	4	4	2	I	2	0	716	1	poli_8sides 6_whiteLine3.jpg	MediumLong_e04_mono_resampled.wav
2	23	1	2	0	C	2	1	671	1	poli_8sides 3_whiteLine3.jpg	Medium_e26_mono_resampled.wav
2	24	2	2	1	C	1	1	825	1	poli_8sides 12_whiteLine3.jpg	Medium_e26_mono_resampled.wav
2	25	4	4	2	I	2	0	875	1	poli_8sides 6_whiteLine3.jpg	MediumLong_e04_mono_resampled.wav
2	26	3	4	2	I	1	0	709	0	poli_8sides 14_whiteLine3.jpg	MediumLong_e04_mono_resampled.wav
2	27	2	2	1	C	1	1	798	1	poli_8sides 12_whiteLine3.jpg	Medium_e26_mono_resampled.wav
2	28	1	1	1	C	1	1	810	1	poli_8sides 3_whiteLine3.jpg	MediumLong_e19_mono_resampled.wav
2	29	3	3	2	I	1	0	1290	1	poli_8sides 14_whiteLine3.jpg	MediumLong_b10_cut2_L_mono_resampled.wav
2	30	4	3	2	I	1	0	1270	0	poli_8sides 6_whiteLine3.jpg	MediumLong_b10_cut2_L_mono_resampled.wav
2	31	1	2	0	C	2	1	875	1	poli_8sides 3_whiteLine3.jpg	Medium_e26_mono_resampled.wav
2	32	2	1	0	C	2	1	1230	1	poli_8sides 12_whiteLine3.jpg	MediumLong_e19_mono_resampled.wav
2	33	4	4	2	I	2	0	675	1	poli_8sides 6_whiteLine3.jpg	MediumLong_e04_mono_resampled.wav
2	34	1	2	0	C	2	1	580	1	poli_8sides 3_whiteLine3.jpg	Medium_e26_mono_resampled.wav
2	35	3	3	2	I	1	0	1102	1	poli_8sides 14_whiteLine3.jpg	MediumLong_b10_cut2_L_mono_resampled.wav
2	36	2	1	0	C	2	1	1095	1	poli_8sides 12_whiteLine3.jpg	MediumLong_e19_mono_resampled.wav
2	37	4	3	2	I	2	0	1659	0	poli_8sides 6_whiteLine3.jpg	MediumLong_b10_cut2_L_mono_resampled.wav
2	38	1	1	1	C	1	1	759	1	poli_8sides 3_whiteLine3.jpg	MediumLong_e19_mono_resampled.wav
2	39	2	2	1	C	1	1	876	1	poli_8sides 12_whiteLine3.jpg	Medium_e26_mono_resampled.wav
2	40	3	4	2	I	2	0	1199	0	poli_8sides 14_whiteLine3.jpg	MediumLong_e04_mono_resampled.wav
2	41	2	2	1	C	1	1	1012	1	poli_8sides 12_whiteLine3.jpg	Medium_e26_mono_resampled.wav
2	42	4	4	2	I	2	0	705	0	poli_8sides 6_whiteLine3.jpg	MediumLong_e04_mono_resampled.wav
2	43	3	4	2	I	2	0	560	1	poli_8sides 14_whiteLine3.jpg	MediumLong_e04_mono_resampled.wav
2	44	1	2	0	C	2	1	591	1	poli_8sides 3_whiteLine3.jpg	Medium_e26_mono_resampled.wav
2	45	3	3	2	I	1	0	924	1	poli_8sides 14_whiteLine3.jpg	MediumLong_b10_cut2_L_mono_resampled.wav
2	46	2	1	0	C	1	0	751	0	poli_8sides 12_whiteLine3.jpg	MediumLong_e19_mono_resampled.wav
2	47	1	1	1	C	1	1	732	1	poli_8sides 3_whiteLine3.jpg	MediumLong_e19_mono_resampled.wav
2	48	4	3	2	I	2	0	1922	1	poli_8sides 6_whiteLine3.jpg	MediumLong_b10_cut2_L_mono_resampled.wav
2	49	2	1	0	C	1	0	1010	0	poli_8sides 12_whiteLine3.jpg	MediumLong_e19_mono_resampled.wav
2	50	1	1	1	C	1	1	782	1	poli_8sides 3_whiteLine3.jpg	MediumLong_e19_mono_resampled.wav
2	51	3	4	2	I	2	0	1165	0	poli_8sides 14_whiteLine3.jpg	MediumLong_e04_mono_resampled.wav
2	52	4	3	2	I	2	0	1718	0	poli_8sides 6_whiteLine3.jpg	MediumLong_b10_cut2_L_mono_resampled.wav
2	53	2	2	1	C	1	1	1856	1	poli_8sides 12_whiteLine3.jpg	Medium_e26_mono_resampled.wav
2	54	4	4	2	I	2	0	739	1	poli_8sides 6_whiteLine3.jpg	MediumLong_e04_mono_resampled.wav
2	55	3	3	2	I	2	0	1457	1	poli_8sides 14_whiteLine3.jpg	MediumLong_b10_cut2_L_mono_resampled.wav
2	56	1	2	0	C	2	1	589	1	poli_8sides 3_whiteLine3.jpg	Medium_e26_mono_resampled.wav
2	57	4	3	2	I	2	0	673	1	poli_8sides 6_whiteLine3.jpg	MediumLong_b10_cut2_L_mono_resampled.wav
2	58	1	2	0	C	2	1	568	1	poli_8sides 3_whiteLine3.jpg	Medium_e26_mono_resampled.wav
2	59	3	4	2	I	2	0	729	1	poli_8sides 14_whiteLine3.jpg	MediumLong_e04_mono_resampled.wav
2	60	2	2	1	C	1	1	1036	1	poli_8sides 12_whiteLine3.jpg	Medium_e26_mono_resampled.wav
2	61	1	1	1	C	1	1	783	1	poli_8sides 3_whiteLine3.jpg	MediumLong_e19_mono_resampled.wav
2	62	2	1	0	C	1	0	910	0	poli_8sides 12_whiteLine3.jpg	MediumLong_e19_mono_resampled.wav
2	63	3	3	2	I	2	0	888	1	poli_8sides 14_whiteLine3.jpg	MediumLong_b10_cut2_L_mono_resampled.wav
2	64	4	4	2	I	2	0	936	0	poli_8sides 6_whiteLine3.jpg	MediumLong_e04_mono_resampled.wav
2	65	1	1	1	C	1	1	1005	1	poli_8sides 3_whiteLine3.jpg	MediumLong_e19_mono_resampled.wav
2	66	2	1	0	C	1	0	1023	0	poli_8sides 12_whiteLine3.jpg	MediumLong_e19_mono_resampled.wav
2	67	4	3	2	I	2	0	789	1	poli_8sides 6_whiteLine3.jpg	MediumLong_b10_cut2_L_mono_resampled.wav
2	68	3	3	2	I	1	0	865	1	poli_8sides 14_whiteLine3.jpg	MediumLong_b10_cut2_L_mono_resampled.wav
2	69	2	2	1	C	1	1	751	1	poli_8sides 12_whiteLine3.jpg	Medium_e26_mono_resampled.wav
2	70	4	4	2	I	1	0	755	1	poli_8sides 6_whiteLine3.jpg	MediumLong_e04_mono_resampled.wav
2	71	1	2	0	C	2	1	745	1	poli_8sides 3_whiteLine3.jpg	Medium_e26_mono_resampled.wav
2	72	3	4	2	I	2	0	747	1	poli_8sides 14_whiteLine3.jpg	MediumLong_e04_mono_resampled.wav
2	73	2	2	1	C	1	1	633	1	poli_8sides 12_whiteLine3.jpg	Medium_e26_mono_resampled.wav
2	74	1	2	0	C	2	1	644	1	poli_8sides 3_whiteLine3.jpg	Medium_e26_mono_resampled.wav
2	75	3	4	2	I	2	0	809	1	poli_8sides 14_whiteLine3.jpg	MediumLong_e04_mono_resampled.wav
2	76	4	4	2	I	1	0	985	1	poli_8sides 6_whiteLine3.jpg	MediumLong_e04_mono_resampled.wav
2	77	1	1	1	C	1	1	688	1	poli_8sides 3_whiteLine3.jpg	MediumLong_e19_mono_resampled.wav
2	78	2	1	0	C	2	1	571	1	poli_8sides 12_whiteLine3.jpg	MediumLong_e19_mono_resampled.wav
2	79	4	3	2	I	2	0	802	1	poli_8sides 6_whiteLine3.jpg	MediumLong_b10_cut2_L_mono_resampled.wav
2	80	3	3	2	I	1	0	818	0	poli_8sides 14_whiteLine3.jpg	MediumLong_b10_cut2_L_mono_resampled.wav
2	81	1	2	0	C	2	1	543	1	poli_8sides 3_whiteLine3.jpg	Medium_e26_mono_resampled.wav
2	82	4	3	2	I	2	0	730	1	poli_8sides 6_whiteLine3.jpg	MediumLong_b10_cut2_L_mono_resampled.wav
2	83	2	2	1	C	1	1	810	1	poli_8sides 12_whiteLine3.jpg	Medium_e26_mono_resampled.wav
2	84	3	3	2	I	2	0	575	1	poli_8sides 14_whiteLine3.jpg	MediumLong_b10_cut2_L_mono_resampled.wav
2	85	1	1	1	C	1	1	742	1	poli_8sides 3_whiteLine3.jpg	MediumLong_e19_mono_resampled.wav
2	86	4	4	2	I	2	0	697	1	poli_8sides 6_whiteLine3.jpg	MediumLong_e04_mono_resampled.wav
2	87	2	1	0	C	2	1	1204	1	poli_8sides 12_whiteLine3.jpg	MediumLong_e19_mono_resampled.wav
2	88	3	4	2	I	2	0	691	1	poli_8sides 14_whiteLine3.jpg	MediumLong_e04_mono_resampled.wav
2	89	1	2	0	C	2	1	465	1	poli_8sides 3_whiteLine3.jpg	Medium_e26_mono_resampled.wav
2	90	2	1	0	C	2	1	681	1	poli_8sides 12_whiteLine3.jpg	MediumLong_e19_mono_resampled.wav
2	91	3	4	2	I	2	0	676	1	poli_8sides 14_whiteLine3.jpg	MediumLong_e04_mono_resampled.wav
2	92	4	4	2	I	1	0	651	0	poli_8sides 6_whiteLine3.jpg	MediumLong_e04_mono_resampled.wav
2	93	1	1	1	C	1	1	825	1	poli_8sides 3_whiteLine3.jpg	MediumLong_e19_mono_resampled.wav
2	94	4	3	2	I	2	0	769	1	poli_8sides 6_whiteLine3.jpg	MediumLong_b10_cut2_L_mono_resampled.wav
2	95	2	2	1	C	1	1	856	1	poli_8sides 12_whiteLine3.jpg	Medium_e26_mono_resampled.wav
2	96	3	3	2	I	1	0	1556	0	poli_8sides 14_whiteLine3.jpg	MediumLong_b10_cut2_L_mono_resampled.wav
2	97	4	4	2	I	2	0	967	0	poli_8sides 6_whiteLine3.jpg	MediumLong_e04_mono_resampled.wav
2	98	3	4	2	I	2	0	672	0	poli_8sides 14_whiteLine3.jpg	MediumLong_e04_mono_resampled.wav
2	99	2	2	1	C	1	1	1014	1	poli_8sides 12_whiteLine3.jpg	Medium_e26_mono_resampled.wav
2	100	1	1	1	C	1	1	799	1	poli_8sides 3_whiteLine3.jpg	MediumLong_e19_mono_resampled.wav
2	101	4	3	2	I	2	0	1002	1	poli_8sides 6_whiteLine3.jpg	MediumLong_b10_cut2_L_mono_resampled.wav
2	102	3	3	2	I	1	0	1265	0	poli_8sides 14_whiteLine3.jpg	MediumLong_b10_cut2_L_mono_resampled.wav
2	103	2	1	0	C	2	1	1018	1	poli_8sides 12_whiteLine3.jpg	MediumLong_e19_mono_resampled.wav
2	104	1	2	0	C	2	1	584	1	poli_8sides 3_whiteLine3.jpg	Medium_e26_mono_resampled.wav
2	105	4	3	2	I	2	0	725	1	poli_8sides 6_whiteLine3.jpg	MediumLong_b10_cut2_L_mono_resampled.wav
2	106	2	2	1	C	1	1	564	1	poli_8sides 12_whiteLine3.jpg	Medium_e26_mono_resampled.wav
2	107	3	3	2	I	2	0	879	0	poli_8sides 14_whiteLine3.jpg	MediumLong_b10_cut2_L_mono_resampled.wav
2	108	1	1	1	C	1	1	687	1	poli_8sides 3_whiteLine3.jpg	MediumLong_e19_mono_resampled.wav
2	109	3	4	2	I	2	0	835	1	poli_8sides 14_whiteLine3.jpg	MediumLong_e04_mono_resampled.wav
2	110	2	1	0	C	2	1	1034	1	poli_8sides 12_whiteLine3.jpg	MediumLong_e19_mono_resampled.wav
2	111	1	2	0	C	2	1	462	1	poli_8sides 3_whiteLine3.jpg	Medium_e26_mono_resampled.wav
2	112	4	4	2	I	2	0	759	0	poli_8sides 6_whiteLine3.jpg	MediumLong_e04_mono_resampled.wav
2	113	1	2	0	C	2	1	529	1	poli_8sides 3_whiteLine3.jpg	Medium_e26_mono_resampled.wav
2	114	4	3	2	I	2	0	681	0	poli_8sides 6_whiteLine3.jpg	MediumLong_b10_cut2_L_mono_resampled.wav
2	115	3	3	2	I	2	0	742	1	poli_8sides 14_whiteLine3.jpg	MediumLong_b10_cut2_L_mono_resampled.wav
2	116	2	2	1	C	1	1	835	1	poli_8sides 12_whiteLine3.jpg	Medium_e26_mono_resampled.wav
2	117	1	1	1	C	1	1	695	1	poli_8sides 3_whiteLine3.jpg	MediumLong_e19_mono_resampled.wav
2	118	4	4	2	I	2	0	1009	0	poli_8sides 6_whiteLine3.jpg	MediumLong_e04_mono_resampled.wav
2	119	3	4	2	I	2	0	591	1	poli_8sides 14_whiteLine3.jpg	MediumLong_e04_mono_resampled.wav
2	120	2	1	0	C	2	1	926	1	poli_8sides 12_whiteLine3.jpg	MediumLong_e19_mono_resampled.wav
2	121	1	2	0	C	2	1	591	1	poli_8sides 3_whiteLine3.jpg	Medium_e26_mono_resampled.wav
2	122	2	2	1	C	1	1	735	1	poli_8sides 12_whiteLine3.jpg	Medium_e26_mono_resampled.wav
2	123	3	3	2	I	2	0	852	0	poli_8sides 14_whiteLine3.jpg	MediumLong_b10_cut2_L_mono_resampled.wav
2	124	4	3	2	I	2	0	1061	0	poli_8sides 6_whiteLine3.jpg	MediumLong_b10_cut2_L_mono_resampled.wav
2	125	1	1	1	C	1	1	782	1	poli_8sides 3_whiteLine3.jpg	MediumLong_e19_mono_resampled.wav
2	126	2	1	0	C	2	1	1110	1	poli_8sides 12_whiteLine3.jpg	MediumLong_e19_mono_resampled.wav
2	127	4	4	2	I	1	0	449	0	poli_8sides 6_whiteLine3.jpg	MediumLong_e04_mono_resampled.wav
2	128	3	4	2	I	2	0	1162	1	poli_8sides 14_whiteLine3.jpg	MediumLong_e04_mono_resampled.wav
2	129	1	2	0	C	2	1	615	1	poli_8sides 3_whiteLine3.jpg	Medium_e26_mono_resampled.wav
2	130	2	1	0	C	2	1	1457	1	poli_8sides 12_whiteLine3.jpg	MediumLong_e19_mono_resampled.wav
2	131	3	3	2	I	2	0	1064	1	poli_8sides 14_whiteLine3.jpg	MediumLong_b10_cut2_L_mono_resampled.wav
2	132	4	4	2	I	2	0	1470	0	poli_8sides 6_whiteLine3.jpg	MediumLong_e04_mono_resampled.wav
2	133	3	4	2	I	2	0	725	1	poli_8sides 14_whiteLine3.jpg	MediumLong_e04_mono_resampled.wav
2	134	2	2	1	C	1	1	867	1	poli_8sides 12_whiteLine3.jpg	Medium_e26_mono_resampled.wav
2	135	1	1	1	C	1	1	778	1	poli_8sides 3_whiteLine3.jpg	MediumLong_e19_mono_resampled.wav
2	136	4	3	2	I	2	0	863	0	poli_8sides 6_whiteLine3.jpg	MediumLong_b10_cut2_L_mono_resampled.wav
2	137	2	2	1	C	1	1	877	1	poli_8sides 12_whiteLine3.jpg	Medium_e26_mono_resampled.wav
2	138	3	3	2	I	2	0	802	1	poli_8sides 14_whiteLine3.jpg	MediumLong_b10_cut2_L_mono_resampled.wav
2	139	1	1	1	C	1	1	760	1	poli_8sides 3_whiteLine3.jpg	MediumLong_e19_mono_resampled.wav
2	140	4	4	2	I	2	0	700	0	poli_8sides 6_whiteLine3.jpg	MediumLong_e04_mono_resampled.wav
2	141	2	1	0	C	2	1	971	1	poli_8sides 12_whiteLine3.jpg	MediumLong_e19_mono_resampled.wav
2	142	3	4	2	I	2	0	895	1	poli_8sides 14_whiteLine3.jpg	MediumLong_e04_mono_resampled.wav
2	143	1	2	0	C	2	1	580	1	poli_8sides 3_whiteLine3.jpg	Medium_e26_mono_resampled.wav
2	144	4	3	2	I	2	0	939	0	poli_8sides 6_whiteLine3.jpg	MediumLong_b10_cut2_L_mono_resampled.wav
2	145	2	2	1	C	1	1	960	1	poli_8sides 12_whiteLine3.jpg	Medium_e26_mono_resampled.wav
2	146	4	4	2	I	2	0	1282	1	poli_8sides 6_whiteLine3.jpg	MediumLong_e04_mono_resampled.wav
2	147	3	3	2	I	2	0	1313	0	poli_8sides 14_whiteLine3.jpg	MediumLong_b10_cut2_L_mono_resampled.wav
2	148	1	1	1	C	1	1	738	1	poli_8sides 3_whiteLine3.jpg	MediumLong_e19_mono_resampled.wav
2	149	3	4	2	I	2	0	762	0	poli_8sides 14_whiteLine3.jpg	MediumLong_e04_mono_resampled.wav
2	150	4	3	2	I	2	0	1273	0	poli_8sides 6_whiteLine3.jpg	MediumLong_b10_cut2_L_mono_resampled.wav
2	151	1	2	0	C	2	1	602	1	poli_8sides 3_whiteLine3.jpg	Medium_e26_mono_resampled.wav
2	152	2	1	0	C	2	1	977	1	poli_8sides 12_whiteLine3.jpg	MediumLong_e19_mono_resampled.wav
2	153	4	3	2	I	2	0	971	0	poli_8sides 6_whiteLine3.jpg	MediumLong_b10_cut2_L_mono_resampled.wav
2	154	2	2	1	C	1	1	1373	1	poli_8sides 12_whiteLine3.jpg	Medium_e26_mono_resampled.wav
2	155	1	2	0	C	2	1	662	1	poli_8sides 3_whiteLine3.jpg	Medium_e26_mono_resampled.wav
2	156	3	4	2	I	2	0	895	1	poli_8sides 14_whiteLine3.jpg	MediumLong_e04_mono_resampled.wav
2	157	4	4	2	I	2	0	670	1	poli_8sides 6_whiteLine3.jpg	MediumLong_e04_mono_resampled.wav
2	158	3	3	2	I	2	0	1361	0	poli_8sides 14_whiteLine3.jpg	MediumLong_b10_cut2_L_mono_resampled.wav
2	159	2	1	0	C	2	1	1132	1	poli_8sides 12_whiteLine3.jpg	MediumLong_e19_mono_resampled.wav
2	160	1	1	1	C	1	1	1122	1	poli_8sides 3_whiteLine3.jpg	MediumLong_e19_mono_resampled.wav
2	161	3	3	2	I	1	0	983	0	poli_8sides 14_whiteLine3.jpg	MediumLong_b10_cut2_L_mono_resampled.wav
2	162	1	2	0	C	2	1	636	1	poli_8sides 3_whiteLine3.jpg	Medium_e26_mono_resampled.wav
2	163	2	1	0	C	2	1	1474	1	poli_8sides 12_whiteLine3.jpg	MediumLong_e19_mono_resampled.wav
2	164	4	4	2	I	2	0	701	1	poli_8sides 6_whiteLine3.jpg	MediumLong_e04_mono_resampled.wav
2	165	2	2	1	C	1	1	846	1	poli_8sides 12_whiteLine3.jpg	Medium_e26_mono_resampled.wav
2	166	3	4	2	I	2	0	703	0	poli_8sides 14_whiteLine3.jpg	MediumLong_e04_mono_resampled.wav
2	167	4	3	2	I	2	0	610	0	poli_8sides 6_whiteLine3.jpg	MediumLong_b10_cut2_L_mono_resampled.wav
2	168	1	1	1	C	1	1	1369	1	poli_8sides 3_whiteLine3.jpg	MediumLong_e19_mono_resampled.wav
2	169	4	3	2	I	2	0	808	0	poli_8sides 6_whiteLine3.jpg	MediumLong_b10_cut2_L_mono_resampled.wav
2	170	3	3	2	I	2	0	653	0	poli_8sides 14_whiteLine3.jpg	MediumLong_b10_cut2_L_mono_resampled.wav
2	171	1	2	0	C	2	1	554	1	poli_8sides 3_whiteLine3.jpg	Medium_e26_mono_resampled.wav
2	172	2	2	1	C	1	1	1402	1	poli_8sides 12_whiteLine3.jpg	Medium_e26_mono_resampled.wav
2	173	1	1	1	C	1	1	762	1	poli_8sides 3_whiteLine3.jpg	MediumLong_e19_mono_resampled.wav
2	174	3	4	2	I	2	0	776	0	poli_8sides 14_whiteLine3.jpg	MediumLong_e04_mono_resampled.wav
2	175	2	1	0	C	1	0	736	0	poli_8sides 12_whiteLine3.jpg	MediumLong_e19_mono_resampled.wav
2	176	4	4	2	I	2	0	1099	1	poli_8sides 6_whiteLine3.jpg	MediumLong_e04_mono_resampled.wav
2	177	2	1	0	C	2	1	1002	1	poli_8sides 12_whiteLine3.jpg	MediumLong_e19_mono_resampled.wav
2	178	4	3	2	I	2	0	1090	1	poli_8sides 6_whiteLine3.jpg	MediumLong_b10_cut2_L_mono_resampled.wav
2	179	1	1	1	C	1	1	750	1	poli_8sides 3_whiteLine3.jpg	MediumLong_e19_mono_resampled.wav
2	180	3	3	2	I	1	0	1014	0	poli_8sides 14_whiteLine3.jpg	MediumLong_b10_cut2_L_mono_resampled.wav
2	181	4	4	2	I	2	0	791	1	poli_8sides 6_whiteLine3.jpg	MediumLong_e04_mono_resampled.wav
2	182	2	2	1	C	1	1	785	1	poli_8sides 12_whiteLine3.jpg	Medium_e26_mono_resampled.wav
2	183	1	2	0	C	2	1	567	1	poli_8sides 3_whiteLine3.jpg	Medium_e26_mono_resampled.wav
2	184	3	4	2	I	2	0	671	0	poli_8sides 14_whiteLine3.jpg	MediumLong_e04_mono_resampled.wav
2	185	2	2	1	C	1	1	716	1	poli_8sides 12_whiteLine3.jpg	Medium_e26_mono_resampled.wav
2	186	4	4	2	I	2	0	697	0	poli_8sides 6_whiteLine3.jpg	MediumLong_e04_mono_resampled.wav
2	187	1	1	1	C	1	1	795	1	poli_8sides 3_whiteLine3.jpg	MediumLong_e19_mono_resampled.wav
2	188	3	4	2	I	2	0	650	1	poli_8sides 14_whiteLine3.jpg	MediumLong_e04_mono_resampled.wav
2	189	4	3	2	I	2	0	815	1	poli_8sides 6_whiteLine3.jpg	MediumLong_b10_cut2_L_mono_resampled.wav
2	190	2	1	0	C	2	1	1156	1	poli_8sides 12_whiteLine3.jpg	MediumLong_e19_mono_resampled.wav
2	191	3	3	2	I	2	0	791	0	poli_8sides 14_whiteLine3.jpg	MediumLong_b10_cut2_L_mono_resampled.wav
2	192	1	2	0	C	2	1	692	1	poli_8sides 3_whiteLine3.jpg	Medium_e26_mono_resampled.wav
2	193	2	2	1	C	1	1	709	1	poli_8sides 12_whiteLine3.jpg	Medium_e26_mono_resampled.wav
2	194	4	3	2	I	2	0	693	0	poli_8sides 6_whiteLine3.jpg	MediumLong_b10_cut2_L_mono_resampled.wav
2	195	1	2	0	C	2	1	660	1	poli_8sides 3_whiteLine3.jpg	Medium_e26_mono_resampled.wav
2	196	3	4	2	I	2	0	840	0	poli_8sides 14_whiteLine3.jpg	MediumLong_e04_mono_resampled.wav
2	197	2	1	0	C	2	1	932	1	poli_8sides 12_whiteLine3.jpg	MediumLong_e19_mono_resampled.wav
2	198	4	4	2	I	2	0	1174	0	poli_8sides 6_whiteLine3.jpg	MediumLong_e04_mono_resampled.wav
2	199	3	3	2	I	1	0	1225	0	poli_8sides 14_whiteLine3.jpg	MediumLong_b10_cut2_L_mono_resampled.wav
2	200	1	1	1	C	1	1	793	1	poli_8sides 3_whiteLine3.jpg	MediumLong_e19_mono_resampled.wav
3	1	4	3	2	I	2	0	1034	1	poli_8sides 1_whiteLine3.jpg	Medium_e01_cut1_mono_resampled.wav
3	2	3	4	2	I	2	0	786	0	poli_8sides 11_whiteLine3.jpg	Medium_e13_mono_resampled.wav
3	3	2	1	0	C	2	1	913	1	poli_8sides 8_whiteLine3.jpg	MediumLong_b23_cut4_ML_mono_resampled.wav
3	4	1	2	0	C	1	0	892	0	poli_8sides 16_whiteLine3.jpg	Medium_e21_mono_resampled.wav
3	5	2	2	1	C	1	1	908	1	poli_8sides 8_whiteLine3.jpg	Medium_e21_mono_resampled.wav
3	6	4	4	2	I	2	0	703	0	poli_8sides 1_whiteLine3.jpg	Medium_e13_mono_resampled.wav
3	7	3	3	2	I	2	0	910	1	poli_8sides 11_whiteLine3.jpg	Medium_e01_cut1_mono_resampled.wav
3	8	1	1	1	C	1	1	1051	1	poli_8sides 16_whiteLine3.jpg	MediumLong_b23_cut4_ML_mono_resampled.wav
3	9	4	3	2	I	1	0	862	1	poli_8sides 1_whiteLine3.jpg	Medium_e01_cut1_mono_resampled.wav
3	10	3	4	2	I	2	0	958	0	poli_8sides 11_whiteLine3.jpg	Medium_e13_mono_resampled.wav
3	11	1	1	1	C	1	1	895	1	poli_8sides 16_whiteLine3.jpg	MediumLong_b23_cut4_ML_mono_resampled.wav
3	12	2	1	0	C	2	1	692	1	poli_8sides 8_whiteLine3.jpg	MediumLong_b23_cut4_ML_mono_resampled.wav
3	13	4	4	2	I	2	0	803	1	poli_8sides 1_whiteLine3.jpg	Medium_e13_mono_resampled.wav
3	14	1	2	0	C	2	1	894	1	poli_8sides 16_whiteLine3.jpg	Medium_e21_mono_resampled.wav
3	15	2	2	1	C	1	1	996	1	poli_8sides 8_whiteLine3.jpg	Medium_e21_mono_resampled.wav
3	16	3	3	2	I	2	0	653	1	poli_8sides 11_whiteLine3.jpg	Medium_e01_cut1_mono_resampled.wav
3	17	1	1	1	C	1	1	881	1	poli_8sides 16_whiteLine3.jpg	MediumLong_b23_cut4_ML_mono_resampled.wav
3	18	2	2	1	C	2	0	963	0	poli_8sides 8_whiteLine3.jpg	Medium_e21_mono_resampled.wav
3	19	3	3	2	I	2	0	667	0	poli_8sides 11_whiteLine3.jpg	Medium_e01_cut1_mono_resampled.wav
3	20	4	4	2	I	2	0	690	0	poli_8sides 1_whiteLine3.jpg	Medium_e13_mono_resampled.wav
3	21	3	4	2	I	1	0	866	0	poli_8sides 11_whiteLine3.jpg	Medium_e13_mono_resampled.wav
3	22	2	1	0	C	2	1	704	1	poli_8sides 8_whiteLine3.jpg	MediumLong_b23_cut4_ML_mono_resampled.wav
3	23	1	2	0	C	2	1	840	1	poli_8sides 16_whiteLine3.jpg	Medium_e21_mono_resampled.wav
3	24	4	3	2	I	1	0	953	0	poli_8sides 1_whiteLine3.jpg	Medium_e01_cut1_mono_resampled.wav
3	25	3	4	2	I	2	0	749	1	poli_8sides 11_whiteLine3.jpg	Medium_e13_mono_resampled.wav
3	26	1	1	1	C	2	0	904	0	poli_8sides 16_whiteLine3.jpg	MediumLong_b23_cut4_ML_mono_resampled.wav
3	27	2	2	1	C	2	0	668	0	poli_8sides 8_whiteLine3.jpg	Medium_e21_mono_resampled.wav
3	28	4	3	2	I	2	0	714	0	poli_8sides 1_whiteLine3.jpg	Medium_e01_cut1_mono_resampled.wav
3	29	1	2	0	C	2	1	712	1	poli_8sides 16_whiteLine3.jpg	Medium_e21_mono_resampled.wav
3	30	2	1	0	C	2	1	795	1	poli_8sides 8_whiteLine3.jpg	MediumLong_b23_cut4_ML_mono_resampled.wav
3	31	3	3	2	I	2	0	750	1	poli_8sides 11_whiteLine3.jpg	Medium_e01_cut1_mono_resampled.wav
3	32	4	4	2	I	2	0	749	1	poli_8sides 1_whiteLine3.jpg	Medium_e13_mono_resampled.wav
3	33	2	2	1	C	2	0	627	0	poli_8sides 8_whiteLine3.jpg	Medium_e21_mono_resampled.wav
3	34	1	2	0	C	2	1	881	1	poli_8sides 16_whiteLine3.jpg	Medium_e21_mono_resampled.wav
3	35	3	3	2	I	2	0	628	0	poli_8sides 11_whiteLine3.jpg	Medium_e01_cut1_mono_resampled.wav
3	36	4	3	2	I	2	0	742	0	poli_8sides 1_whiteLine3.jpg	Medium_e01_cut1_mono_resampled.wav
3	37	2	1	0	C	1	0	943	0	poli_8sides 8_whiteLine3.jpg	MediumLong_b23_cut4_ML_mono_resampled.wav
3	38	1	1	1	C	1	1	752	1	poli_8sides 16_whiteLine3.jpg	MediumLong_b23_cut4_ML_mono_resampled.wav
3	39	4	4	2	I	2	0	815	1	poli_8sides 1_whiteLine3.jpg	Medium_e13_mono_resampled.wav
3	40	3	4	2	I	1	0	763	1	poli_8sides 11_whiteLine3.jpg	Medium_e13_mono_resampled.wav
3	41	1	2	0	C	2	1	768	1	poli_8sides 16_whiteLine3.jpg	Medium_e21_mono_resampled.wav
3	42	2	1	0	C	2	1	1551	1	poli_8sides 8_whiteLine3.jpg	MediumLong_b23_cut4_ML_mono_resampled.wav
3	43	4	3	2	I	2	0	989	1	poli_8sides 1_whiteLine3.jpg	Medium_e01_cut1_mono_resampled.wav
3	44	3	3	2	I	2	0	712	1	poli_8sides 11_whiteLine3.jpg	Medium_e01_cut1_mono_resampled.wav
3	45	1	1	1	C	1	1	811	1	poli_8sides 16_whiteLine3.jpg	MediumLong_b23_cut4_ML_mono_resampled.wav
3	46	2	2	1	C	1	1	729	1	poli_8sides 8_whiteLine3.jpg	Medium_e21_mono_resampled.wav
3	47	3	4	2	I	1	0	935	0	poli_8sides 11_whiteLine3.jpg	Medium_e13_mono_resampled.wav
3	48	4	4	2	I	2	0	851	0	poli_8sides 1_whiteLine3.jpg	Medium_e13_mono_resampled.wav
3	49	2	1	0	C	2	1	691	1	poli_8sides 8_whiteLine3.jpg	MediumLong_b23_cut4_ML_mono_resampled.wav
3	50	1	1	1	C	1	1	767	1	poli_8sides 16_whiteLine3.jpg	MediumLong_b23_cut4_ML_mono_resampled.wav
3	51	4	4	2	I	2	0	855	0	poli_8sides 1_whiteLine3.jpg	Medium_e13_mono_resampled.wav
3	52	3	3	2	I	2	0	668	1	poli_8sides 11_whiteLine3.jpg	Medium_e01_cut1_mono_resampled.wav
3	53	1	2	0	C	2	1	756	1	poli_8sides 16_whiteLine3.jpg	Medium_e21_mono_resampled.wav
3	54	4	3	2	I	2	0	690	0	poli_8sides 1_whiteLine3.jpg	Medium_e01_cut1_mono_resampled.wav
3	55	3	4	2	I	2	0	1046	0	poli_8sides 11_whiteLine3.jpg	Medium_e13_mono_resampled.wav
3	56	2	2	1	C	1	1	791	1	poli_8sides 8_whiteLine3.jpg	Medium_e21_mono_resampled.wav
3	57	1	2	0	C	2	1	855	1	poli_8sides 16_whiteLine3.jpg	Medium_e21_mono_resampled.wav
3	58	3	3	2	I	2	0	502	1	poli_8sides 11_whiteLine3.jpg	Medium_e01_cut1_mono_resampled.wav
3	59	2	1	0	C	2	1	856	1	poli_8sides 8_whiteLine3.jpg	MediumLong_b23_cut4_ML_mono_resampled.wav
3	60	4	4	2	I	2	0	766	1	poli_8sides 1_whiteLine3.jpg	Medium_e13_mono_resampled.wav
3	61	3	4	2	I	1	0	808	1	poli_8sides 11_whiteLine3.jpg	Medium_e13_mono_resampled.wav
3	62	1	1	1	C	1	1	848	1	poli_8sides 16_whiteLine3.jpg	MediumLong_b23_cut4_ML_mono_resampled.wav
3	63	4	3	2	I	2	0	650	1	poli_8sides 1_whiteLine3.jpg	Medium_e01_cut1_mono_resampled.wav
3	64	2	2	1	C	1	1	1164	1	poli_8sides 8_whiteLine3.jpg	Medium_e21_mono_resampled.wav
3	65	4	3	2	I	2	0	889	1	poli_8sides 1_whiteLine3.jpg	Medium_e01_cut1_mono_resampled.wav
3	66	3	3	2	I	2	0	712	1	poli_8sides 11_whiteLine3.jpg	Medium_e01_cut1_mono_resampled.wav
3	67	2	2	1	C	1	1	693	1	poli_8sides 8_whiteLine3.jpg	Medium_e21_mono_resampled.wav
3	68	1	2	0	C	2	1	893	1	poli_8sides 16_whiteLine3.jpg	Medium_e21_mono_resampled.wav
3	69	3	4	2	I	1	0	876	0	poli_8sides 11_whiteLine3.jpg	Medium_e13_mono_resampled.wav
3	70	4	4	2	I	2	0	1019	1	poli_8sides 1_whiteLine3.jpg	Medium_e13_mono_resampled.wav
3	71	2	1	0	C	2	1	740	1	poli_8sides 8_whiteLine3.jpg	MediumLong_b23_cut4_ML_mono_resampled.wav
3	72	1	1	1	C	1	1	913	1	poli_8sides 16_whiteLine3.jpg	MediumLong_b23_cut4_ML_mono_resampled.wav
3	73	4	4	2	I	2	0	621	1	poli_8sides 1_whiteLine3.jpg	Medium_e13_mono_resampled.wav
3	74	3	4	2	I	2	0	587	0	poli_8sides 11_whiteLine3.jpg	Medium_e13_mono_resampled.wav
3	75	1	1	1	C	1	1	816	1	poli_8sides 16_whiteLine3.jpg	MediumLong_b23_cut4_ML_mono_resampled.wav
3	76	2	2	1	C	1	1	1112	1	poli_8sides 8_whiteLine3.jpg	Medium_e21_mono_resampled.wav
3	77	4	3	2	I	2	0	763	0	poli_8sides 1_whiteLine3.jpg	Medium_e01_cut1_mono_resampled.wav
3	78	1	2	0	C	2	1	798	1	poli_8sides 16_whiteLine3.jpg	Medium_e21_mono_resampled.wav
3	79	2	1	0	C	2	1	727	1	poli_8sides 8_whiteLine3.jpg	MediumLong_b23_cut4_ML_mono_resampled.wav
3	80	3	3	2	I	2	0	528	0	poli_8sides 11_whiteLine3.jpg	Medium_e01_cut1_mono_resampled.wav
3	81	2	1	0	C	2	1	637	1	poli_8sides 8_whiteLine3.jpg	MediumLong_b23_cut4_ML_mono_resampled.wav
3	82	1	1	1	C	1	1	731	1	poli_8sides 16_whiteLine3.jpg	MediumLong_b23_cut4_ML_mono_resampled.wav
3	83	4	3	2	I	2	0	724	0	poli_8sides 1_whiteLine3.jpg	Medium_e01_cut1_mono_resampled.wav
3	84	3	3	2	I	2	0	515	0	poli_8sides 11_whiteLine3.jpg	Medium_e01_cut1_mono_resampled.wav
3	85	2	2	1	C	1	1	760	1	poli_8sides 8_whiteLine3.jpg	Medium_e21_mono_resampled.wav
3	86	1	2	0	C	2	1	926	1	poli_8sides 16_whiteLine3.jpg	Medium_e21_mono_resampled.wav
3	87	4	4	2	I	2	0	859	1	poli_8sides 1_whiteLine3.jpg	Medium_e13_mono_resampled.wav
3	88	3	4	2	I	2	0	823	1	poli_8sides 11_whiteLine3.jpg	Medium_e13_mono_resampled.wav
3	89	2	2	1	C	1	1	873	1	poli_8sides 8_whiteLine3.jpg	Medium_e21_mono_resampled.wav
3	90	1	1	1	C	1	1	1127	1	poli_8sides 16_whiteLine3.jpg	MediumLong_b23_cut4_ML_mono_resampled.wav
3	91	4	3	2	I	1	0	644	0	poli_8sides 1_whiteLine3.jpg	Medium_e01_cut1_mono_resampled.wav
3	92	3	3	2	I	1	0	715	0	poli_8sides 11_whiteLine3.jpg	Medium_e01_cut1_mono_resampled.wav
3	93	2	1	0	C	2	1	787	1	poli_8sides 8_whiteLine3.jpg	MediumLong_b23_cut4_ML_mono_resampled.wav
3	94	4	4	2	I	2	0	957	1	poli_8sides 1_whiteLine3.jpg	Medium_e13_mono_resampled.wav
3	95	1	2	0	C	2	1	804	1	poli_8sides 16_whiteLine3.jpg	Medium_e21_mono_resampled.wav
3	96	3	4	2	I	2	0	1030	0	poli_8sides 11_whiteLine3.jpg	Medium_e13_mono_resampled.wav
3	97	2	1	0	C	2	1	1605	1	poli_8sides 8_whiteLine3.jpg	MediumLong_b23_cut4_ML_mono_resampled.wav
3	98	4	4	2	I	2	0	844	0	poli_8sides 1_whiteLine3.jpg	Medium_e13_mono_resampled.wav
3	99	1	1	1	C	1	1	1291	1	poli_8sides 16_whiteLine3.jpg	MediumLong_b23_cut4_ML_mono_resampled.wav
3	100	3	3	2	I	2	0	991	1	poli_8sides 11_whiteLine3.jpg	Medium_e01_cut1_mono_resampled.wav
3	101	2	2	1	C	1	1	899	1	poli_8sides 8_whiteLine3.jpg	Medium_e21_mono_resampled.wav
3	102	1	2	0	C	2	1	977	1	poli_8sides 16_whiteLine3.jpg	Medium_e21_mono_resampled.wav
3	103	3	4	2	I	1	0	1303	0	poli_8sides 11_whiteLine3.jpg	Medium_e13_mono_resampled.wav
3	104	4	3	2	I	2	0	552	1	poli_8sides 1_whiteLine3.jpg	Medium_e01_cut1_mono_resampled.wav
3	105	1	2	0	C	2	1	815	1	poli_8sides 16_whiteLine3.jpg	Medium_e21_mono_resampled.wav
3	106	2	2	1	C	1	1	792	1	poli_8sides 8_whiteLine3.jpg	Medium_e21_mono_resampled.wav
3	107	4	4	2	I	2	0	1012	1	poli_8sides 1_whiteLine3.jpg	Medium_e13_mono_resampled.wav
3	108	3	4	2	I	2	0	799	0	poli_8sides 11_whiteLine3.jpg	Medium_e13_mono_resampled.wav
3	109	1	1	1	C	1	1	921	1	poli_8sides 16_whiteLine3.jpg	MediumLong_b23_cut4_ML_mono_resampled.wav
3	110	3	3	2	I	2	0	724	0	poli_8sides 11_whiteLine3.jpg	Medium_e01_cut1_mono_resampled.wav
3	111	4	3	2	I	1	0	928	0	poli_8sides 1_whiteLine3.jpg	Medium_e01_cut1_mono_resampled.wav
3	112	2	1	0	C	2	1	1085	1	poli_8sides 8_whiteLine3.jpg	MediumLong_b23_cut4_ML_mono_resampled.wav
3	113	4	4	2	I	2	0	747	1	poli_8sides 1_whiteLine3.jpg	Medium_e13_mono_resampled.wav
3	114	3	3	2	I	2	0	626	1	poli_8sides 11_whiteLine3.jpg	Medium_e01_cut1_mono_resampled.wav
3	115	2	1	0	C	2	1	586	1	poli_8sides 8_whiteLine3.jpg	MediumLong_b23_cut4_ML_mono_resampled.wav
3	116	1	2	0	C	2	1	765	1	poli_8sides 16_whiteLine3.jpg	Medium_e21_mono_resampled.wav
3	117	3	4	2	I	2	0	670	1	poli_8sides 11_whiteLine3.jpg	Medium_e13_mono_resampled.wav
3	118	2	2	1	C	1	1	976	1	poli_8sides 8_whiteLine3.jpg	Medium_e21_mono_resampled.wav
3	119	1	1	1	C	1	1	997	1	poli_8sides 16_whiteLine3.jpg	MediumLong_b23_cut4_ML_mono_resampled.wav
3	120	4	3	2	I	2	0	446	1	poli_8sides 1_whiteLine3.jpg	Medium_e01_cut1_mono_resampled.wav
3	121	2	2	1	C	1	1	730	1	poli_8sides 8_whiteLine3.jpg	Medium_e21_mono_resampled.wav
3	122	1	2	0	C	2	1	708	1	poli_8sides 16_whiteLine3.jpg	Medium_e21_mono_resampled.wav
3	123	4	3	2	I	2	0	602	1	poli_8sides 1_whiteLine3.jpg	Medium_e01_cut1_mono_resampled.wav
3	124	3	4	2	I	2	0	737	0	poli_8sides 11_whiteLine3.jpg	Medium_e13_mono_resampled.wav
3	125	4	4	2	I	2	0	871	1	poli_8sides 1_whiteLine3.jpg	Medium_e13_mono_resampled.wav
3	126	1	1	1	C	1	1	924	1	poli_8sides 16_whiteLine3.jpg	MediumLong_b23_cut4_ML_mono_resampled.wav
3	127	2	1	0	C	2	1	745	1	poli_8sides 8_whiteLine3.jpg	MediumLong_b23_cut4_ML_mono_resampled.wav
3	128	3	3	2	I	1	0	771	0	poli_8sides 11_whiteLine3.jpg	Medium_e01_cut1_mono_resampled.wav
3	129	4	3	2	I	2	0	645	0	poli_8sides 1_whiteLine3.jpg	Medium_e01_cut1_mono_resampled.wav
3	130	1	2	0	C	2	1	810	1	poli_8sides 16_whiteLine3.jpg	Medium_e21_mono_resampled.wav
3	131	2	1	0	C	2	1	687	1	poli_8sides 8_whiteLine3.jpg	MediumLong_b23_cut4_ML_mono_resampled.wav
3	132	3	3	2	I	2	0	558	0	poli_8sides 11_whiteLine3.jpg	Medium_e01_cut1_mono_resampled.wav
3	133	2	2	1	C	1	1	845	1	poli_8sides 8_whiteLine3.jpg	Medium_e21_mono_resampled.wav
3	134	1	1	1	C	1	1	1039	1	poli_8sides 16_whiteLine3.jpg	MediumLong_b23_cut4_ML_mono_resampled.wav
3	135	3	4	2	I	2	0	772	0	poli_8sides 11_whiteLine3.jpg	Medium_e13_mono_resampled.wav
3	136	4	4	2	I	2	0	686	0	poli_8sides 1_whiteLine3.jpg	Medium_e13_mono_resampled.wav
3	137	1	1	1	C	1	1	877	1	poli_8sides 16_whiteLine3.jpg	MediumLong_b23_cut4_ML_mono_resampled.wav
3	138	4	4	2	I	2	0	723	0	poli_8sides 1_whiteLine3.jpg	Medium_e13_mono_resampled.wav
3	139	3	4	2	I	1	0	819	1	poli_8sides 11_whiteLine3.jpg	Medium_e13_mono_resampled.wav
3	140	2	1	0	C	2	1	690	1	poli_8sides 8_whiteLine3.jpg	MediumLong_b23_cut4_ML_mono_resampled.wav
3	141	4	3	2	I	2	0	743	0	poli_8sides 1_whiteLine3.jpg	Medium_e01_cut1_mono_resampled.wav
3	142	1	2	0	C	2	1	816	1	poli_8sides 16_whiteLine3.jpg	Medium_e21_mono_resampled.wav
3	143	3	3	2	I	1	0	341	0	poli_8sides 11_whiteLine3.jpg	Medium_e01_cut1_mono_resampled.wav
3	144	2	2	1	C	1	1	822	1	poli_8sides 8_whiteLine3.jpg	Medium_e21_mono_resampled.wav
3	145	3	4	2	I	2	0	713	1	poli_8sides 11_whiteLine3.jpg	Medium_e13_mono_resampled.wav
3	146	2	2	1	C	2	0	1150	0	poli_8sides 8_whiteLine3.jpg	Medium_e21_mono_resampled.wav
3	147	4	3	2	I	2	0	566	0	poli_8sides 1_whiteLine3.jpg	Medium_e01_cut1_mono_resampled.wav
3	148	1	1	1	C	1	1	1027	1	poli_8sides 16_whiteLine3.jpg	MediumLong_b23_cut4_ML_mono_resampled.wav
3	149	4	4	2	I	2	0	944	0	poli_8sides 1_whiteLine3.jpg	Medium_e13_mono_resampled.wav
3	150	2	1	0	C	2	1	737	1	poli_8sides 8_whiteLine3.jpg	MediumLong_b23_cut4_ML_mono_resampled.wav
3	151	3	3	2	I	2	0	607	1	poli_8sides 11_whiteLine3.jpg	Medium_e01_cut1_mono_resampled.wav
3	152	1	2	0	C	2	1	904	1	poli_8sides 16_whiteLine3.jpg	Medium_e21_mono_resampled.wav
3	153	2	1	0	C	2	1	741	1	poli_8sides 8_whiteLine3.jpg	MediumLong_b23_cut4_ML_mono_resampled.wav
3	154	1	2	0	C	2	1	741	1	poli_8sides 16_whiteLine3.jpg	Medium_e21_mono_resampled.wav
3	155	3	3	2	I	2	0	656	1	poli_8sides 11_whiteLine3.jpg	Medium_e01_cut1_mono_resampled.wav
3	156	4	4	2	I	1	0	1018	0	poli_8sides 1_whiteLine3.jpg	Medium_e13_mono_resampled.wav
3	157	2	2	1	C	1	1	811	1	poli_8sides 8_whiteLine3.jpg	Medium_e21_mono_resampled.wav
3	158	1	1	1	C	1	1	866	1	poli_8sides 16_whiteLine3.jpg	MediumLong_b23_cut4_ML_mono_resampled.wav
3	159	4	3	2	I	2	0	884	1	poli_8sides 1_whiteLine3.jpg	Medium_e01_cut1_mono_resampled.wav
3	160	3	4	2	I	2	0	827	0	poli_8sides 11_whiteLine3.jpg	Medium_e13_mono_resampled.wav
3	161	4	3	2	I	2	0	591	1	poli_8sides 1_whiteLine3.jpg	Medium_e01_cut1_mono_resampled.wav
3	162	3	3	2	I	2	0	534	1	poli_8sides 11_whiteLine3.jpg	Medium_e01_cut1_mono_resampled.wav
3	163	2	1	0	C	2	1	808	1	poli_8sides 8_whiteLine3.jpg	MediumLong_b23_cut4_ML_mono_resampled.wav
3	164	1	2	0	C	2	1	789	1	poli_8sides 16_whiteLine3.jpg	Medium_e21_mono_resampled.wav
3	165	3	4	2	I	1	0	954	0	poli_8sides 11_whiteLine3.jpg	Medium_e13_mono_resampled.wav
3	166	4	4	2	I	1	0	1003	1	poli_8sides 1_whiteLine3.jpg	Medium_e13_mono_resampled.wav
3	167	1	1	1	C	1	1	1321	1	poli_8sides 16_whiteLine3.jpg	MediumLong_b23_cut4_ML_mono_resampled.wav
3	168	2	2	1	C	1	1	790	1	poli_8sides 8_whiteLine3.jpg	Medium_e21_mono_resampled.wav
3	169	3	3	2	I	1	0	918	1	poli_8sides 11_whiteLine3.jpg	Medium_e01_cut1_mono_resampled.wav
3	170	1	2	0	C	2	1	888	1	poli_8sides 16_whiteLine3.jpg	Medium_e21_mono_resampled.wav
3	171	2	2	1	C	1	1	852	1	poli_8sides 8_whiteLine3.jpg	Medium_e21_mono_resampled.wav
3	172	4	3	2	I	2	0	473	1	poli_8sides 1_whiteLine3.jpg	Medium_e01_cut1_mono_resampled.wav
3	173	1	1	1	C	1	1	947	1	poli_8sides 16_whiteLine3.jpg	MediumLong_b23_cut4_ML_mono_resampled.wav
3	174	3	4	2	I	2	0	1222	0	poli_8sides 11_whiteLine3.jpg	Medium_e13_mono_resampled.wav
3	175	2	1	0	C	2	1	736	1	poli_8sides 8_whiteLine3.jpg	MediumLong_b23_cut4_ML_mono_resampled.wav
3	176	4	4	2	I	2	0	681	0	poli_8sides 1_whiteLine3.jpg	Medium_e13_mono_resampled.wav
3	177	1	2	0	C	2	1	1167	1	poli_8sides 16_whiteLine3.jpg	Medium_e21_mono_resampled.wav
3	178	3	3	2	I	2	0	635	1	poli_8sides 11_whiteLine3.jpg	Medium_e01_cut1_mono_resampled.wav
3	179	4	3	2	I	1	0	645	1	poli_8sides 1_whiteLine3.jpg	Medium_e01_cut1_mono_resampled.wav
3	180	2	2	1	C	1	1	824	1	poli_8sides 8_whiteLine3.jpg	Medium_e21_mono_resampled.wav
3	181	1	1	1	C	1	1	937	1	poli_8sides 16_whiteLine3.jpg	MediumLong_b23_cut4_ML_mono_resampled.wav
3	182	3	4	2	I	2	0	1018	1	poli_8sides 11_whiteLine3.jpg	Medium_e13_mono_resampled.wav
3	183	2	1	0	C	2	1	797	1	poli_8sides 8_whiteLine3.jpg	MediumLong_b23_cut4_ML_mono_resampled.wav
3	184	4	4	2	I	2	0	901	0	poli_8sides 1_whiteLine3.jpg	Medium_e13_mono_resampled.wav
3	185	3	3	2	I	1	0	683	1	poli_8sides 11_whiteLine3.jpg	Medium_e01_cut1_mono_resampled.wav
3	186	1	1	1	C	1	1	871	1	poli_8sides 16_whiteLine3.jpg	MediumLong_b23_cut4_ML_mono_resampled.wav
3	187	4	4	2	I	2	0	679	0	poli_8sides 1_whiteLine3.jpg	Medium_e13_mono_resampled.wav
3	188	2	1	0	C	2	1	862	1	poli_8sides 8_whiteLine3.jpg	MediumLong_b23_cut4_ML_mono_resampled.wav
3	189	4	3	2	I	2	0	852	0	poli_8sides 1_whiteLine3.jpg	Medium_e01_cut1_mono_resampled.wav
3	190	2	2	1	C	1	1	830	1	poli_8sides 8_whiteLine3.jpg	Medium_e21_mono_resampled.wav
3	191	3	4	2	I	2	0	853	1	poli_8sides 11_whiteLine3.jpg	Medium_e13_mono_resampled.wav
3	192	1	2	0	C	2	1	876	1	poli_8sides 16_whiteLine3.jpg	Medium_e21_mono_resampled.wav
3	193	2	1	0	C	2	1	804	1	poli_8sides 8_whiteLine3.jpg	MediumLong_b23_cut4_ML_mono_resampled.wav
3	194	4	3	2	I	2	0	931	0	poli_8sides 1_whiteLine3.jpg	Medium_e01_cut1_mono_resampled.wav
3	195	3	4	2	I	2	0	557	1	poli_8sides 11_whiteLine3.jpg	Medium_e13_mono_resampled.wav
3	196	1	2	0	C	2	1	822	1	poli_8sides 16_whiteLine3.jpg	Medium_e21_mono_resampled.wav
3	197	2	2	1	C	1	1	889	1	poli_8sides 8_whiteLine3.jpg	Medium_e21_mono_resampled.wav
3	198	4	4	2	I	2	0	598	1	poli_8sides 1_whiteLine3.jpg	Medium_e13_mono_resampled.wav
3	199	3	3	2	I	1	0	768	0	poli_8sides 11_whiteLine3.jpg	Medium_e01_cut1_mono_resampled.wav
3	200	1	1	1	C	1	1	1018	1	poli_8sides 16_whiteLine3.jpg	MediumLong_b23_cut4_ML_mono_resampled.wav
4	1	3	3	2	I	2	0	707	1	poli_8sides 5_whiteLine3.jpg	MediumShort_b16_cut3_MS_mono_resampled.wav
4	2	1	1	1	C	2	0	651	0	poli_8sides 4_whiteLine3.jpg	MediumShort_e16_cut1_mono_resampled.wav
4	3	2	1	0	C	2	1	657	1	poli_8sides 19_whiteLine3.jpg	MediumShort_e16_cut1_mono_resampled.wav
4	4	4	4	2	I	1	0	874	0	poli_8sides 20_whiteLine3.jpg	MediumShort_b10_cut1_MS_mono_resampled.wav
4	5	2	2	1	C	1	1	901	1	poli_8sides 19_whiteLine3.jpg	MediumShort_e22_cut1_mono_resampled.wav
4	6	3	4	2	I	2	0	446	0	poli_8sides 5_whiteLine3.jpg	MediumShort_b10_cut1_MS_mono_resampled.wav
4	7	1	2	0	C	2	1	663	1	poli_8sides 4_whiteLine3.jpg	MediumShort_e22_cut1_mono_resampled.wav
4	8	4	3	2	I	2	0	660	1	poli_8sides 20_whiteLine3.jpg	MediumShort_b16_cut3_MS_mono_resampled.wav
4	9	2	1	0	C	2	1	839	1	poli_8sides 19_whiteLine3.jpg	MediumShort_e16_cut1_mono_resampled.wav
4	10	1	2	0	C	2	1	622	1	poli_8sides 4_whiteLine3.jpg	MediumShort_e22_cut1_mono_resampled.wav
4	11	3	4	2	I	2	0	742	0	poli_8sides 5_whiteLine3.jpg	MediumShort_b10_cut1_MS_mono_resampled.wav
4	12	4	3	2	I	2	0	756	0	poli_8sides 20_whiteLine3.jpg	MediumShort_b16_cut3_MS_mono_resampled.wav
4	13	1	1	1	C	1	1	1154	1	poli_8sides 4_whiteLine3.jpg	MediumShort_e16_cut1_mono_resampled.wav
4	14	2	2	1	C	1	1	781	1	poli_8sides 19_whiteLine3.jpg	MediumShort_e22_cut1_mono_resampled.wav
4	15	4	4	2	I	2	0	838	1	poli_8sides 20_whiteLine3.jpg	MediumShort_b10_cut1_MS_mono_resampled.wav
4	16	3	3	2	I	2	0	1147	1	poli_8sides 5_whiteLine3.jpg	MediumShort_b16_cut3_MS_mono_resampled.wav
4	17	2	2	1	C	1	1	797	1	poli_8sides 19_whiteLine3.jpg	MediumShort_e22_cut1_mono_resampled.wav
4	18	4	4	2	I	2	0	722	0	poli_8sides 20_whiteLine3.jpg	MediumShort_b10_cut1_MS_mono_resampled.wav
4	19	3	3	2	I	1	0	1194	1	poli_8sides 5_whiteLine3.jpg	MediumShort_b16_cut3_MS_mono_resampled.wav
4	20	1	1	1	C	1	1	815	1	poli_8sides 4_whiteLine3.jpg	MediumShort_e16_cut1_mono_resampled.wav
4	21	2	1	0	C	2	1	845	1	poli_8sides 19_whiteLine3.jpg	MediumShort_e16_cut1_mono_resampled.wav
4	22	4	3	2	I	2	0	764	0	poli_8sides 20_whiteLine3.jpg	MediumShort_b16_cut3_MS_mono_resampled.wav
4	23	3	4	2	I	2	0	769	0	poli_8sides 5_whiteLine3.jpg	MediumShort_b10_cut1_MS_mono_resampled.wav
4	24	1	2	0	C	2	1	801	1	poli_8sides 4_whiteLine3.jpg	MediumShort_e22_cut1_mono_resampled.wav
4	25	4	3	2	I	2	0	746	0	poli_8sides 20_whiteLine3.jpg	MediumShort_b16_cut3_MS_mono_resampled.wav
4	26	2	1	0	C	2	1	571	1	poli_8sides 19_whiteLine3.jpg	MediumShort_e16_cut1_mono_resampled.wav
4	27	3	4	2	I	2	0	971	0	poli_8sides 5_whiteLine3.jpg	MediumShort_b10_cut1_MS_mono_resampled.wav
4	28	1	2	0	C	2	1	650	1	poli_8sides 4_whiteLine3.jpg	MediumShort_e22_cut1_mono_resampled.wav
4	29	4	4	2	I	1	0	832	0	poli_8sides 20_whiteLine3.jpg	MediumShort_b10_cut1_MS_mono_resampled.wav
4	30	3	3	2	I	2	0	645	1	poli_8sides 5_whiteLine3.jpg	MediumShort_b16_cut3_MS_mono_resampled.wav
4	31	1	1	1	C	2	0	680	0	poli_8sides 4_whiteLine3.jpg	MediumShort_e16_cut1_mono_resampled.wav
4	32	2	2	1	C	2	0	536	0	poli_8sides 19_whiteLine3.jpg	MediumShort_e22_cut1_mono_resampled.wav
4	33	3	4	2	I	1	0	1109	0	poli_8sides 5_whiteLine3.jpg	MediumShort_b10_cut1_MS_mono_resampled.wav
4	34	4	4	2	I	2	0	712	1	poli_8sides 20_whiteLine3.jpg	MediumShort_b10_cut1_MS_mono_resampled.wav
4	35	1	1	1	C	1	1	722	1	poli_8sides 4_whiteLine3.jpg	MediumShort_e16_cut1_mono_resampled.wav
4	36	2	2	1	C	1	1	736	1	poli_8sides 19_whiteLine3.jpg	MediumShort_e22_cut1_mono_resampled.wav
4	37	4	3	2	I	2	0	793	1	poli_8sides 20_whiteLine3.jpg	MediumShort_b16_cut3_MS_mono_resampled.wav
4	38	1	2	0	C	1	0	699	0	poli_8sides 4_whiteLine3.jpg	MediumShort_e22_cut1_mono_resampled.wav
4	39	2	1	0	C	2	1	497	1	poli_8sides 19_whiteLine3.jpg	MediumShort_e16_cut1_mono_resampled.wav
4	40	3	3	2	I	2	0	991	0	poli_8sides 5_whiteLine3.jpg	MediumShort_b16_cut3_MS_mono_resampled.wav
4	41	2	1	0	C	2	1	719	1	poli_8sides 19_whiteLine3.jpg	MediumShort_e16_cut1_mono_resampled.wav
4	42	3	4	2	I	2	0	729	1	poli_8sides 5_whiteLine3.jpg	MediumShort_b10_cut1_MS_mono_resampled.wav
4	43	1	2	0	C	2	1	877	1	poli_8sides 4_whiteLine3.jpg	MediumShort_e22_cut1_mono_resampled.wav
4	44	4	4	2	I	2	0	1295	0	poli_8sides 20_whiteLine3.jpg	MediumShort_b10_cut1_MS_mono_resampled.wav
4	45	1	1	1	C	1	1	913	1	poli_8sides 4_whiteLine3.jpg	MediumShort_e16_cut1_mono_resampled.wav
4	46	4	3	2	I	1	0	1172	1	poli_8sides 20_whiteLine3.jpg	MediumShort_b16_cut3_MS_mono_resampled.wav
4	47	2	2	1	C	1	1	803	1	poli_8sides 19_whiteLine3.jpg	MediumShort_e22_cut1_mono_resampled.wav
4	48	3	3	2	I	2	0	1017	0	poli_8sides 5_whiteLine3.jpg	MediumShort_b16_cut3_MS_mono_resampled.wav
4	49	2	2	1	C	1	1	792	1	poli_8sides 19_whiteLine3.jpg	MediumShort_e22_cut1_mono_resampled.wav
4	50	3	3	2	I	2	0	805	1	poli_8sides 5_whiteLine3.jpg	MediumShort_b16_cut3_MS_mono_resampled.wav
4	51	4	4	2	I	1	0	1269	1	poli_8sides 20_whiteLine3.jpg	MediumShort_b10_cut1_MS_mono_resampled.wav
4	52	1	2	0	C	2	1	763	1	poli_8sides 4_whiteLine3.jpg	MediumShort_e22_cut1_mono_resampled.wav
4	53	4	3	2	I	1	0	542	0	poli_8sides 20_whiteLine3.jpg	MediumShort_b16_cut3_MS_mono_resampled.wav
4	54	2	1	0	C	2	1	760	1	poli_8sides 19_whiteLine3.jpg	MediumShort_e16_cut1_mono_resampled.wav
4	55	3	4	2	I	2	0	1260	0	poli_8sides 5_whiteLine3.jpg	MediumShort_b10_cut1_MS_mono_resampled.wav
4	56	1	1	1	C	1	1	774	1	poli_8sides 4_whiteLine3.jpg	MediumShort_e16_cut1_mono_resampled.wav
4	57	4	3	2	I	2	0	906	1	poli_8sides 20_whiteLine3.jpg	MediumShort_b16_cut3_MS_mono_resampled.wav
4	58	3	3	2	I	1	0	867	1	poli_8sides 5_whiteLine3.jpg	MediumShort_b16_cut3_MS_mono_resampled.wav
4	59	2	1	0	C	2	1	1236	1	poli_8sides 19_whiteLine3.jpg	MediumShort_e16_cut1_mono_resampled.wav
4	60	1	1	1	C	1	1	668	1	poli_8sides 4_whiteLine3.jpg	MediumShort_e16_cut1_mono_resampled.wav
4	61	2	2	1	C	1	1	777	1	poli_8sides 19_whiteLine3.jpg	MediumShort_e22_cut1_mono_resampled.wav
4	62	3	4	2	I	2	0	831	0	poli_8sides 5_whiteLine3.jpg	MediumShort_b10_cut1_MS_mono_resampled.wav
4	63	1	2	0	C	2	1	870	1	poli_8sides 4_whiteLine3.jpg	MediumShort_e22_cut1_mono_resampled.wav
4	64	4	4	2	I	1	0	986	0	poli_8sides 20_whiteLine3.jpg	MediumShort_b10_cut1_MS_mono_resampled.wav
4	65	1	1	1	C	1	1	810	1	poli_8sides 4_whiteLine3.jpg	MediumShort_e16_cut1_mono_resampled.wav
4	66	2	1	0	C	2	1	848	1	poli_8sides 19_whiteLine3.jpg	MediumShort_e16_cut1_mono_resampled.wav
4	67	3	4	2	I	2	0	628	1	poli_8sides 5_whiteLine3.jpg	MediumShort_b10_cut1_MS_mono_resampled.wav
4	68	4	4	2	I	2	0	1045	1	poli_8sides 20_whiteLine3.jpg	MediumShort_b10_cut1_MS_mono_resampled.wav
4	69	1	2	0	C	2	1	872	1	poli_8sides 4_whiteLine3.jpg	MediumShort_e22_cut1_mono_resampled.wav
4	70	3	3	2	I	2	0	818	0	poli_8sides 5_whiteLine3.jpg	MediumShort_b16_cut3_MS_mono_resampled.wav
4	71	4	3	2	I	1	0	1200	0	poli_8sides 20_whiteLine3.jpg	MediumShort_b16_cut3_MS_mono_resampled.wav
4	72	2	2	1	C	1	1	1805	1	poli_8sides 19_whiteLine3.jpg	MediumShort_e22_cut1_mono_resampled.wav
4	73	4	4	2	I	2	0	1182	1	poli_8sides 20_whiteLine3.jpg	MediumShort_b10_cut1_MS_mono_resampled.wav
4	74	2	2	1	C	1	1	1176	1	poli_8sides 19_whiteLine3.jpg	MediumShort_e22_cut1_mono_resampled.wav
4	75	3	4	2	I	2	0	969	0	poli_8sides 5_whiteLine3.jpg	MediumShort_b10_cut1_MS_mono_resampled.wav
4	76	1	2	0	C	2	1	1407	1	poli_8sides 4_whiteLine3.jpg	MediumShort_e22_cut1_mono_resampled.wav
4	77	4	3	2	I	2	0	919	1	poli_8sides 20_whiteLine3.jpg	MediumShort_b16_cut3_MS_mono_resampled.wav
4	78	3	3	2	I	1	0	1004	1	poli_8sides 5_whiteLine3.jpg	MediumShort_b16_cut3_MS_mono_resampled.wav
4	79	2	1	0	C	2	1	960	1	poli_8sides 19_whiteLine3.jpg	MediumShort_e16_cut1_mono_resampled.wav
4	80	1	1	1	C	1	1	721	1	poli_8sides 4_whiteLine3.jpg	MediumShort_e16_cut1_mono_resampled.wav
4	81	3	4	2	I	2	0	838	0	poli_8sides 5_whiteLine3.jpg	MediumShort_b10_cut1_MS_mono_resampled.wav
4	82	1	1	1	C	1	1	718	1	poli_8sides 4_whiteLine3.jpg	MediumShort_e16_cut1_mono_resampled.wav
4	83	4	3	2	I	2	0	667	0	poli_8sides 20_whiteLine3.jpg	MediumShort_b16_cut3_MS_mono_resampled.wav
4	84	2	1	0	C	2	1	683	1	poli_8sides 19_whiteLine3.jpg	MediumShort_e16_cut1_mono_resampled.wav
4	85	3	3	2	I	2	0	717	1	poli_8sides 5_whiteLine3.jpg	MediumShort_b16_cut3_MS_mono_resampled.wav
4	86	1	2	0	C	2	1	606	1	poli_8sides 4_whiteLine3.jpg	MediumShort_e22_cut1_mono_resampled.wav
4	87	2	2	1	C	1	1	691	1	poli_8sides 19_whiteLine3.jpg	MediumShort_e22_cut1_mono_resampled.wav
4	88	4	4	2	I	2	0	1138	0	poli_8sides 20_whiteLine3.jpg	MediumShort_b10_cut1_MS_mono_resampled.wav
4	89	3	3	2	I	2	0	734	1	poli_8sides 5_whiteLine3.jpg	MediumShort_b16_cut3_MS_mono_resampled.wav
4	90	4	3	2	I	2	0	812	0	poli_8sides 20_whiteLine3.jpg	MediumShort_b16_cut3_MS_mono_resampled.wav
4	91	1	1	1	C	1	1	1077	1	poli_8sides 4_whiteLine3.jpg	MediumShort_e16_cut1_mono_resampled.wav
4	92	2	1	0	C	2	1	550	1	poli_8sides 19_whiteLine3.jpg	MediumShort_e16_cut1_mono_resampled.wav
4	93	4	4	2	I	1	0	1165	0	poli_8sides 20_whiteLine3.jpg	MediumShort_b10_cut1_MS_mono_resampled.wav
4	94	2	2	1	C	1	1	1011	1	poli_8sides 19_whiteLine3.jpg	MediumShort_e22_cut1_mono_resampled.wav
4	95	1	2	0	C	2	1	1137	1	poli_8sides 4_whiteLine3.jpg	MediumShort_e22_cut1_mono_resampled.wav
4	96	3	4	2	I	2	0	1080	1	poli_8sides 5_whiteLine3.jpg	MediumShort_b10_cut1_MS_mono_resampled.wav
4	97	1	2	0	C	2	1	718	1	poli_8sides 4_whiteLine3.jpg	MediumShort_e22_cut1_mono_resampled.wav
4	98	3	4	2	I	2	0	1130	1	poli_8sides 5_whiteLine3.jpg	MediumShort_b10_cut1_MS_mono_resampled.wav
4	99	4	3	2	I	2	0	920	1	poli_8sides 20_whiteLine3.jpg	MediumShort_b16_cut3_MS_mono_resampled.wav
4	100	2	2	1	C	1	1	1032	1	poli_8sides 19_whiteLine3.jpg	MediumShort_e22_cut1_mono_resampled.wav
4	101	1	1	1	C	2	0	1058	0	poli_8sides 4_whiteLine3.jpg	MediumShort_e16_cut1_mono_resampled.wav
4	102	3	3	2	I	2	0	723	1	poli_8sides 5_whiteLine3.jpg	MediumShort_b16_cut3_MS_mono_resampled.wav
4	103	4	4	2	I	2	0	1114	1	poli_8sides 20_whiteLine3.jpg	MediumShort_b10_cut1_MS_mono_resampled.wav
4	104	2	1	0	C	2	1	791	1	poli_8sides 19_whiteLine3.jpg	MediumShort_e16_cut1_mono_resampled.wav
4	105	4	3	2	I	2	0	778	0	poli_8sides 20_whiteLine3.jpg	MediumShort_b16_cut3_MS_mono_resampled.wav
4	106	2	1	0	C	2	1	729	1	poli_8sides 19_whiteLine3.jpg	MediumShort_e16_cut1_mono_resampled.wav
4	107	1	1	1	C	1	1	904	1	poli_8sides 4_whiteLine3.jpg	MediumShort_e16_cut1_mono_resampled.wav
4	108	3	4	2	I	2	0	789	1	poli_8sides 5_whiteLine3.jpg	MediumShort_b10_cut1_MS_mono_resampled.wav
4	109	1	2	0	C	2	1	815	1	poli_8sides 4_whiteLine3.jpg	MediumShort_e22_cut1_mono_resampled.wav
4	110	3	3	2	I	1	0	1217	1	poli_8sides 5_whiteLine3.jpg	MediumShort_b16_cut3_MS_mono_resampled.wav
4	111	4	4	2	I	2	0	1104	1	poli_8sides 20_whiteLine3.jpg	MediumShort_b10_cut1_MS_mono_resampled.wav
4	112	2	2	1	C	1	1	1042	1	poli_8sides 19_whiteLine3.jpg	MediumShort_e22_cut1_mono_resampled.wav
4	113	3	3	2	I	2	0	812	1	poli_8sides 5_whiteLine3.jpg	MediumShort_b16_cut3_MS_mono_resampled.wav
4	114	1	2	0	C	2	1	759	1	poli_8sides 4_whiteLine3.jpg	MediumShort_e22_cut1_mono_resampled.wav
4	115	2	2	1	C	1	1	791	1	poli_8sides 19_whiteLine3.jpg	MediumShort_e22_cut1_mono_resampled.wav
4	116	4	3	2	I	2	0	815	1	poli_8sides 20_whiteLine3.jpg	MediumShort_b16_cut3_MS_mono_resampled.wav
4	117	3	4	2	I	1	0	1250	1	poli_8sides 5_whiteLine3.jpg	MediumShort_b10_cut1_MS_mono_resampled.wav
4	118	2	1	0	C	2	1	800	1	poli_8sides 19_whiteLine3.jpg	MediumShort_e16_cut1_mono_resampled.wav
4	119	1	1	1	C	1	1	804	1	poli_8sides 4_whiteLine3.jpg	MediumShort_e16_cut1_mono_resampled.wav
4	120	4	4	2	I	1	0	1055	1	poli_8sides 20_whiteLine3.jpg	MediumShort_b10_cut1_MS_mono_resampled.wav
4	121	1	1	1	C	1	1	881	1	poli_8sides 4_whiteLine3.jpg	MediumShort_e16_cut1_mono_resampled.wav
4	122	3	3	2	I	2	0	764	0	poli_8sides 5_whiteLine3.jpg	MediumShort_b16_cut3_MS_mono_resampled.wav
4	123	4	3	2	I	2	0	578	0	poli_8sides 20_whiteLine3.jpg	MediumShort_b16_cut3_MS_mono_resampled.wav
4	124	2	2	1	C	1	1	1486	1	poli_8sides 19_whiteLine3.jpg	MediumShort_e22_cut1_mono_resampled.wav
4	125	1	2	0	C	2	1	713	1	poli_8sides 4_whiteLine3.jpg	MediumShort_e22_cut1_mono_resampled.wav
4	126	2	1	0	C	2	1	898	1	poli_8sides 19_whiteLine3.jpg	MediumShort_e16_cut1_mono_resampled.wav
4	127	4	4	2	I	2	0	1049	0	poli_8sides 20_whiteLine3.jpg	MediumShort_b10_cut1_MS_mono_resampled.wav
4	128	3	4	2	I	2	0	763	1	poli_8sides 5_whiteLine3.jpg	MediumShort_b10_cut1_MS_mono_resampled.wav
4	129	1	2	0	C	2	1	638	1	poli_8sides 4_whiteLine3.jpg	MediumShort_e22_cut1_mono_resampled.wav
4	130	2	1	0	C	2	1	707	1	poli_8sides 19_whiteLine3.jpg	MediumShort_e16_cut1_mono_resampled.wav
4	131	4	4	2	I	2	0	894	1	poli_8sides 20_whiteLine3.jpg	MediumShort_b10_cut1_MS_mono_resampled.wav
4	132	3	4	2	I	2	0	789	1	poli_8sides 5_whiteLine3.jpg	MediumShort_b10_cut1_MS_mono_resampled.wav
4	133	4	3	2	I	2	0	682	1	poli_8sides 20_whiteLine3.jpg	MediumShort_b16_cut3_MS_mono_resampled.wav
4	134	2	2	1	C	1	1	891	1	poli_8sides 19_whiteLine3.jpg	MediumShort_e22_cut1_mono_resampled.wav
4	135	1	1	1	C	1	1	826	1	poli_8sides 4_whiteLine3.jpg	MediumShort_e16_cut1_mono_resampled.wav
4	136	3	3	2	I	2	0	726	0	poli_8sides 5_whiteLine3.jpg	MediumShort_b16_cut3_MS_mono_resampled.wav
4	137	1	1	1	C	1	1	748	1	poli_8sides 4_whiteLine3.jpg	MediumShort_e16_cut1_mono_resampled.wav
4	138	2	1	0	C	2	1	738	1	poli_8sides 19_whiteLine3.jpg	MediumShort_e16_cut1_mono_resampled.wav
4	139	3	3	2	I	2	0	769	1	poli_8sides 5_whiteLine3.jpg	MediumShort_b16_cut3_MS_mono_resampled.wav
4	140	4	4	2	I	2	0	701	1	poli_8sides 20_whiteLine3.jpg	MediumShort_b10_cut1_MS_mono_resampled.wav
4	141	3	4	2	I	1	0	855	0	poli_8sides 5_whiteLine3.jpg	MediumShort_b10_cut1_MS_mono_resampled.wav
4	142	2	2	1	C	1	1	1050	1	poli_8sides 19_whiteLine3.jpg	MediumShort_e22_cut1_mono_resampled.wav
4	143	4	3	2	I	1	0	1132	1	poli_8sides 20_whiteLine3.jpg	MediumShort_b16_cut3_MS_mono_resampled.wav
4	144	1	2	0	C	2	1	719	1	poli_8sides 4_whiteLine3.jpg	MediumShort_e22_cut1_mono_resampled.wav
4	145	4	4	2	I	2	0	739	0	poli_8sides 20_whiteLine3.jpg	MediumShort_b10_cut1_MS_mono_resampled.wav
4	146	1	1	1	C	1	1	873	1	poli_8sides 4_whiteLine3.jpg	MediumShort_e16_cut1_mono_resampled.wav
4	147	2	2	1	C	1	1	995	1	poli_8sides 19_whiteLine3.jpg	MediumShort_e22_cut1_mono_resampled.wav
4	148	3	3	2	I	2	0	888	1	poli_8sides 5_whiteLine3.jpg	MediumShort_b16_cut3_MS_mono_resampled.wav
4	149	2	1	0	C	2	1	979	1	poli_8sides 19_whiteLine3.jpg	MediumShort_e16_cut1_mono_resampled.wav
4	150	3	4	2	I	1	0	912	0	poli_8sides 5_whiteLine3.jpg	MediumShort_b10_cut1_MS_mono_resampled.wav
4	151	1	2	0	C	2	1	757	1	poli_8sides 4_whiteLine3.jpg	MediumShort_e22_cut1_mono_resampled.wav
4	152	4	3	2	I	2	0	694	0	poli_8sides 20_whiteLine3.jpg	MediumShort_b16_cut3_MS_mono_resampled.wav
4	153	1	1	1	C	1	1	724	1	poli_8sides 4_whiteLine3.jpg	MediumShort_e16_cut1_mono_resampled.wav
4	154	4	3	2	I	2	0	717	0	poli_8sides 20_whiteLine3.jpg	MediumShort_b16_cut3_MS_mono_resampled.wav
4	155	2	2	1	C	1	1	1046	1	poli_8sides 19_whiteLine3.jpg	MediumShort_e22_cut1_mono_resampled.wav
4	156	3	4	2	I	2	0	908	0	poli_8sides 5_whiteLine3.jpg	MediumShort_b10_cut1_MS_mono_resampled.wav
4	157	1	2	0	C	2	1	743	1	poli_8sides 4_whiteLine3.jpg	MediumShort_e22_cut1_mono_resampled.wav
4	158	3	3	2	I	2	0	857	0	poli_8sides 5_whiteLine3.jpg	MediumShort_b16_cut3_MS_mono_resampled.wav
4	159	4	4	2	I	2	0	914	1	poli_8sides 20_whiteLine3.jpg	MediumShort_b10_cut1_MS_mono_resampled.wav
4	160	2	1	0	C	2	1	770	1	poli_8sides 19_whiteLine3.jpg	MediumShort_e16_cut1_mono_resampled.wav
4	161	3	3	2	I	2	0	692	0	poli_8sides 5_whiteLine3.jpg	MediumShort_b16_cut3_MS_mono_resampled.wav
4	162	1	1	1	C	1	1	835	1	poli_8sides 4_whiteLine3.jpg	MediumShort_e16_cut1_mono_resampled.wav
4	163	2	1	0	C	2	1	731	1	poli_8sides 19_whiteLine3.jpg	MediumShort_e16_cut1_mono_resampled.wav
4	164	4	4	2	I	2	0	1369	0	poli_8sides 20_whiteLine3.jpg	MediumShort_b10_cut1_MS_mono_resampled.wav
4	165	3	4	2	I	2	0	867	1	poli_8sides 5_whiteLine3.jpg	MediumShort_b10_cut1_MS_mono_resampled.wav
4	166	4	3	2	I	2	0	696	1	poli_8sides 20_whiteLine3.jpg	MediumShort_b16_cut3_MS_mono_resampled.wav
4	167	2	2	1	C	1	1	864	1	poli_8sides 19_whiteLine3.jpg	MediumShort_e22_cut1_mono_resampled.wav
4	168	1	2	0	C	2	1	807	1	poli_8sides 4_whiteLine3.jpg	MediumShort_e22_cut1_mono_resampled.wav
4	169	3	4	2	I	2	0	840	1	poli_8sides 5_whiteLine3.jpg	MediumShort_b10_cut1_MS_mono_resampled.wav
4	170	1	1	1	C	1	1	1137	1	poli_8sides 4_whiteLine3.jpg	MediumShort_e16_cut1_mono_resampled.wav
4	171	2	2	1	C	1	1	1075	1	poli_8sides 19_whiteLine3.jpg	MediumShort_e22_cut1_mono_resampled.wav
4	172	4	4	2	I	2	0	1051	1	poli_8sides 20_whiteLine3.jpg	MediumShort_b10_cut1_MS_mono_resampled.wav
4	173	2	1	0	C	2	1	787	1	poli_8sides 19_whiteLine3.jpg	MediumShort_e16_cut1_mono_resampled.wav
4	174	1	2	0	C	2	1	719	1	poli_8sides 4_whiteLine3.jpg	MediumShort_e22_cut1_mono_resampled.wav
4	175	3	3	2	I	2	0	797	0	poli_8sides 5_whiteLine3.jpg	MediumShort_b16_cut3_MS_mono_resampled.wav
4	176	4	3	2	I	2	0	666	0	poli_8sides 20_whiteLine3.jpg	MediumShort_b16_cut3_MS_mono_resampled.wav
4	177	3	4	2	I	2	0	865	1	poli_8sides 5_whiteLine3.jpg	MediumShort_b10_cut1_MS_mono_resampled.wav
4	178	1	2	0	C	2	1	584	1	poli_8sides 4_whiteLine3.jpg	MediumShort_e22_cut1_mono_resampled.wav
4	179	4	3	2	I	2	0	633	1	poli_8sides 20_whiteLine3.jpg	MediumShort_b16_cut3_MS_mono_resampled.wav
4	180	2	1	0	C	2	1	732	1	poli_8sides 19_whiteLine3.jpg	MediumShort_e16_cut1_mono_resampled.wav
4	181	4	4	2	I	2	0	714	0	poli_8sides 20_whiteLine3.jpg	MediumShort_b10_cut1_MS_mono_resampled.wav
4	182	3	3	2	I	2	0	704	0	poli_8sides 5_whiteLine3.jpg	MediumShort_b16_cut3_MS_mono_resampled.wav
4	183	1	1	1	C	1	1	926	1	poli_8sides 4_whiteLine3.jpg	MediumShort_e16_cut1_mono_resampled.wav
4	184	2	2	1	C	1	1	904	1	poli_8sides 19_whiteLine3.jpg	MediumShort_e22_cut1_mono_resampled.wav
4	185	3	3	2	I	2	0	895	0	poli_8sides 5_whiteLine3.jpg	MediumShort_b16_cut3_MS_mono_resampled.wav
4	186	1	2	0	C	2	1	728	1	poli_8sides 4_whiteLine3.jpg	MediumShort_e22_cut1_mono_resampled.wav
4	187	4	3	2	I	2	0	1195	0	poli_8sides 20_whiteLine3.jpg	MediumShort_b16_cut3_MS_mono_resampled.wav
4	188	2	1	0	C	2	1	790	1	poli_8sides 19_whiteLine3.jpg	MediumShort_e16_cut1_mono_resampled.wav
4	189	4	4	2	I	2	0	632	0	poli_8sides 20_whiteLine3.jpg	MediumShort_b10_cut1_MS_mono_resampled.wav
4	190	3	4	2	I	2	0	755	0	poli_8sides 5_whiteLine3.jpg	MediumShort_b10_cut1_MS_mono_resampled.wav
4	191	2	2	1	C	1	1	1366	1	poli_8sides 19_whiteLine3.jpg	MediumShort_e22_cut1_mono_resampled.wav
4	192	1	1	1	C	1	1	794	1	poli_8sides 4_whiteLine3.jpg	MediumShort_e16_cut1_mono_resampled.wav
4	193	3	4	2	I	1	0	662	0	poli_8sides 5_whiteLine3.jpg	MediumShort_b10_cut1_MS_mono_resampled.wav
4	194	2	1	0	C	2	1	720	1	poli_8sides 19_whiteLine3.jpg	MediumShort_e16_cut1_mono_resampled.wav
4	195	1	2	0	C	2	1	688	1	poli_8sides 4_whiteLine3.jpg	MediumShort_e22_cut1_mono_resampled.wav
4	196	4	4	2	I	2	0	786	1	poli_8sides 20_whiteLine3.jpg	MediumShort_b10_cut1_MS_mono_resampled.wav
4	197	1	1	1	C	1	1	756	1	poli_8sides 4_whiteLine3.jpg	MediumShort_e16_cut1_mono_resampled.wav
4	198	4	3	2	I	2	0	625	1	poli_8sides 20_whiteLine3.jpg	MediumShort_b16_cut3_MS_mono_resampled.wav
4	199	3	3	2	I	2	0	706	0	poli_8sides 5_whiteLine3.jpg	MediumShort_b16_cut3_MS_mono_resampled.wav
4	200	2	2	1	C	1	1	817	1	poli_8sides 19_whiteLine3.jpg	MediumShort_e22_cut1_mono_resampled.wav
