block	trial	Vstim	Astim	match	C/I	resp	result	RT	fb	V-file	A-file
LR

0	1	1	1	1	C	2	1	1243	1	poli_8sides 21_whiteLine3.jpg	Practice3_b26_cut1_mono_resampled.wav
0	2	2	3	1	C	2	1	891	1	poli_8sides 22_whiteLine3.jpg	Practice2_b27_cut2_mono_resampled.wav
0	3	2	4	0	C	1	1	955	1	poli_8sides 22_whiteLine3.jpg	Practice1_b27_cut1_mono_resampled.wav
0	4	1	2	0	C	1	1	788	1	poli_8sides 21_whiteLine3.jpg	Practice4_b26_mono_resampled.wav
0	5	2	4	0	C	1	1	715	1	poli_8sides 22_whiteLine3.jpg	Practice1_b27_cut1_mono_resampled.wav
0	6	1	2	0	C	1	1	475	1	poli_8sides 21_whiteLine3.jpg	Practice4_b26_mono_resampled.wav
0	7	2	3	1	C	2	1	709	1	poli_8sides 22_whiteLine3.jpg	Practice2_b27_cut2_mono_resampled.wav
0	8	1	1	1	C	2	1	1116	1	poli_8sides 21_whiteLine3.jpg	Practice3_b26_cut1_mono_resampled.wav
0	9	1	2	0	C	1	1	887	1	poli_8sides 21_whiteLine3.jpg	Practice4_b26_mono_resampled.wav
0	10	1	1	1	C	2	1	888	1	poli_8sides 21_whiteLine3.jpg	Practice3_b26_cut1_mono_resampled.wav
0	11	2	4	0	C	1	1	761	1	poli_8sides 22_whiteLine3.jpg	Practice1_b27_cut1_mono_resampled.wav
0	12	2	3	1	C	2	1	877	1	poli_8sides 22_whiteLine3.jpg	Practice2_b27_cut2_mono_resampled.wav
0	13	1	2	0	C	1	1	955	1	poli_8sides 21_whiteLine3.jpg	Practice4_b26_mono_resampled.wav
0	14	1	1	1	C	2	1	1323	1	poli_8sides 21_whiteLine3.jpg	Practice3_b26_cut1_mono_resampled.wav
0	15	2	4	0	C	1	1	640	1	poli_8sides 22_whiteLine3.jpg	Practice1_b27_cut1_mono_resampled.wav
0	16	2	3	1	C	2	1	1255	1	poli_8sides 22_whiteLine3.jpg	Practice2_b27_cut2_mono_resampled.wav
0	17	1	1	1	C	2	1	1017	1	poli_8sides 21_whiteLine3.jpg	Practice3_b26_cut1_mono_resampled.wav
0	18	2	3	1	C	2	1	812	1	poli_8sides 22_whiteLine3.jpg	Practice2_b27_cut2_mono_resampled.wav
0	19	2	4	0	C	1	1	614	1	poli_8sides 22_whiteLine3.jpg	Practice1_b27_cut1_mono_resampled.wav
0	20	1	2	0	C	1	1	894	1	poli_8sides 21_whiteLine3.jpg	Practice4_b26_mono_resampled.wav
0	21	2	3	1	C	2	1	685	1	poli_8sides 22_whiteLine3.jpg	Practice2_b27_cut2_mono_resampled.wav
0	22	1	1	1	C	2	1	1277	1	poli_8sides 21_whiteLine3.jpg	Practice3_b26_cut1_mono_resampled.wav
0	23	2	4	0	C	1	1	581	1	poli_8sides 22_whiteLine3.jpg	Practice1_b27_cut1_mono_resampled.wav
0	24	1	2	0	C	1	1	767	1	poli_8sides 21_whiteLine3.jpg	Practice4_b26_mono_resampled.wav
0	25	2	3	1	C	2	1	1014	1	poli_8sides 22_whiteLine3.jpg	Practice2_b27_cut2_mono_resampled.wav
0	26	1	1	1	C	2	1	1155	1	poli_8sides 21_whiteLine3.jpg	Practice3_b26_cut1_mono_resampled.wav
0	27	2	4	0	C	1	1	653	1	poli_8sides 22_whiteLine3.jpg	Practice1_b27_cut1_mono_resampled.wav
0	28	1	2	0	C	1	1	613	1	poli_8sides 21_whiteLine3.jpg	Practice4_b26_mono_resampled.wav
0	29	1	1	1	C	2	1	847	1	poli_8sides 21_whiteLine3.jpg	Practice3_b26_cut1_mono_resampled.wav
0	30	1	2	0	C	1	1	923	1	poli_8sides 21_whiteLine3.jpg	Practice4_b26_mono_resampled.wav
avg_resp = 878
1	1	1	2	0	C	2	0	1347	0	poli_8sides 9_whiteLine3.jpg	MediumShort_b16_cut3_MS_mono_resampled.wav
1	2	2	2	1	C	1	0	891	0	poli_8sides 20_whiteLine3.jpg	MediumShort_b16_cut3_MS_mono_resampled.wav
1	3	3	3	2	I	1	0	802	1	poli_8sides 14_whiteLine3.jpg	MediumShort_b10_cut1_MS_mono_resampled.wav
1	4	4	4	2	I	1	0	827	1	poli_8sides 4_whiteLine3.jpg	MediumShort_e22_cut1_mono_resampled.wav
1	5	3	4	2	I	2	0	1002	0	poli_8sides 14_whiteLine3.jpg	MediumShort_e22_cut1_mono_resampled.wav
1	6	1	1	1	C	2	1	1259	1	poli_8sides 9_whiteLine3.jpg	MediumShort_e16_cut1_mono_resampled.wav
1	7	2	1	0	C	1	1	646	1	poli_8sides 20_whiteLine3.jpg	MediumShort_e16_cut1_mono_resampled.wav
1	8	4	3	2	I	2	0	1262	0	poli_8sides 4_whiteLine3.jpg	MediumShort_b10_cut1_MS_mono_resampled.wav
1	9	3	4	2	I	1	0	1361	0	poli_8sides 14_whiteLine3.jpg	MediumShort_e22_cut1_mono_resampled.wav
1	10	4	3	2	I	2	0	1105	0	poli_8sides 4_whiteLine3.jpg	MediumShort_b10_cut1_MS_mono_resampled.wav
1	11	2	1	0	C	1	1	1237	1	poli_8sides 20_whiteLine3.jpg	MediumShort_e16_cut1_mono_resampled.wav
1	12	1	2	0	C	1	1	926	1	poli_8sides 9_whiteLine3.jpg	MediumShort_b16_cut3_MS_mono_resampled.wav
1	13	2	2	1	C	2	1	721	1	poli_8sides 20_whiteLine3.jpg	MediumShort_b16_cut3_MS_mono_resampled.wav
1	14	4	4	2	I	1	0	1254	1	poli_8sides 4_whiteLine3.jpg	MediumShort_e22_cut1_mono_resampled.wav
1	15	3	3	2	I	1	0	1482	0	poli_8sides 14_whiteLine3.jpg	MediumShort_b10_cut1_MS_mono_resampled.wav
1	16	1	1	1	C	2	1	1163	1	poli_8sides 9_whiteLine3.jpg	MediumShort_e16_cut1_mono_resampled.wav
1	17	4	3	2	I	1	0	1378	0	poli_8sides 4_whiteLine3.jpg	MediumShort_b10_cut1_MS_mono_resampled.wav
1	18	1	1	1	C	2	1	935	1	poli_8sides 9_whiteLine3.jpg	MediumShort_e16_cut1_mono_resampled.wav
1	19	3	3	2	I	1	0	1334	1	poli_8sides 14_whiteLine3.jpg	MediumShort_b10_cut1_MS_mono_resampled.wav
1	20	2	1	0	C	1	1	758	1	poli_8sides 20_whiteLine3.jpg	MediumShort_e16_cut1_mono_resampled.wav
1	21	1	2	0	C	1	1	841	1	poli_8sides 9_whiteLine3.jpg	MediumShort_b16_cut3_MS_mono_resampled.wav
1	22	3	4	2	I	1	0	1092	0	poli_8sides 14_whiteLine3.jpg	MediumShort_e22_cut1_mono_resampled.wav
1	23	2	2	1	C	2	1	855	1	poli_8sides 20_whiteLine3.jpg	MediumShort_b16_cut3_MS_mono_resampled.wav
1	24	4	4	2	I	1	0	915	0	poli_8sides 4_whiteLine3.jpg	MediumShort_e22_cut1_mono_resampled.wav
1	25	1	2	0	C	1	1	853	1	poli_8sides 9_whiteLine3.jpg	MediumShort_b16_cut3_MS_mono_resampled.wav
1	26	3	4	2	I	2	0	1315	0	poli_8sides 14_whiteLine3.jpg	MediumShort_e22_cut1_mono_resampled.wav
1	27	2	1	0	C	1	1	801	1	poli_8sides 20_whiteLine3.jpg	MediumShort_e16_cut1_mono_resampled.wav
1	28	4	3	2	I	1	0	1471	0	poli_8sides 4_whiteLine3.jpg	MediumShort_b10_cut1_MS_mono_resampled.wav
1	29	1	1	1	C	2	1	1268	1	poli_8sides 9_whiteLine3.jpg	MediumShort_e16_cut1_mono_resampled.wav
1	30	3	3	2	I	1	0	1058	1	poli_8sides 14_whiteLine3.jpg	MediumShort_b10_cut1_MS_mono_resampled.wav
1	31	4	4	2	I	1	0	1085	0	poli_8sides 4_whiteLine3.jpg	MediumShort_e22_cut1_mono_resampled.wav
1	32	2	2	1	C	2	1	823	1	poli_8sides 20_whiteLine3.jpg	MediumShort_b16_cut3_MS_mono_resampled.wav
1	33	1	2	0	C	1	1	1056	1	poli_8sides 9_whiteLine3.jpg	MediumShort_b16_cut3_MS_mono_resampled.wav
1	34	2	2	1	C	2	1	633	1	poli_8sides 20_whiteLine3.jpg	MediumShort_b16_cut3_MS_mono_resampled.wav
1	35	3	4	2	I	1	0	1564	1	poli_8sides 14_whiteLine3.jpg	MediumShort_e22_cut1_mono_resampled.wav
1	36	4	4	2	I	2	0	901	1	poli_8sides 4_whiteLine3.jpg	MediumShort_e22_cut1_mono_resampled.wav
1	37	3	3	2	I	2	0	1282	1	poli_8sides 14_whiteLine3.jpg	MediumShort_b10_cut1_MS_mono_resampled.wav
1	38	4	3	2	I	1	0	986	1	poli_8sides 4_whiteLine3.jpg	MediumShort_b10_cut1_MS_mono_resampled.wav
1	39	2	1	0	C	1	1	827	1	poli_8sides 20_whiteLine3.jpg	MediumShort_e16_cut1_mono_resampled.wav
1	40	1	1	1	C	2	1	816	1	poli_8sides 9_whiteLine3.jpg	MediumShort_e16_cut1_mono_resampled.wav
1	41	3	3	2	I	2	0	1345	1	poli_8sides 14_whiteLine3.jpg	MediumShort_b10_cut1_MS_mono_resampled.wav
1	42	2	2	1	C	2	1	800	1	poli_8sides 20_whiteLine3.jpg	MediumShort_b16_cut3_MS_mono_resampled.wav
1	43	4	4	2	I	2	0	1056	0	poli_8sides 4_whiteLine3.jpg	MediumShort_e22_cut1_mono_resampled.wav
1	44	1	1	1	C	2	1	1089	1	poli_8sides 9_whiteLine3.jpg	MediumShort_e16_cut1_mono_resampled.wav
1	45	2	1	0	C	1	1	1359	1	poli_8sides 20_whiteLine3.jpg	MediumShort_e16_cut1_mono_resampled.wav
1	46	3	4	2	I	1	0	855	0	poli_8sides 14_whiteLine3.jpg	MediumShort_e22_cut1_mono_resampled.wav
1	47	1	2	0	C	2	0	1026	0	poli_8sides 9_whiteLine3.jpg	MediumShort_b16_cut3_MS_mono_resampled.wav
1	48	4	3	2	I	1	0	1250	1	poli_8sides 4_whiteLine3.jpg	MediumShort_b10_cut1_MS_mono_resampled.wav
1	49	2	2	1	C	2	1	655	1	poli_8sides 20_whiteLine3.jpg	MediumShort_b16_cut3_MS_mono_resampled.wav
1	50	3	3	2	I	2	0	1619	1	poli_8sides 14_whiteLine3.jpg	MediumShort_b10_cut1_MS_mono_resampled.wav
1	51	4	3	2	I	1	0	1787	1	poli_8sides 4_whiteLine3.jpg	MediumShort_b10_cut1_MS_mono_resampled.wav
1	52	1	2	0	C	2	0	1474	0	poli_8sides 9_whiteLine3.jpg	MediumShort_b16_cut3_MS_mono_resampled.wav
1	53	2	1	0	C	1	1	779	1	poli_8sides 20_whiteLine3.jpg	MediumShort_e16_cut1_mono_resampled.wav
1	54	3	4	2	I	1	0	1198	0	poli_8sides 14_whiteLine3.jpg	MediumShort_e22_cut1_mono_resampled.wav
1	55	4	4	2	I	2	0	1239	1	poli_8sides 4_whiteLine3.jpg	MediumShort_e22_cut1_mono_resampled.wav
1	56	1	1	1	C	2	1	796	1	poli_8sides 9_whiteLine3.jpg	MediumShort_e16_cut1_mono_resampled.wav
1	57	4	4	2	I	2	0	1588	1	poli_8sides 4_whiteLine3.jpg	MediumShort_e22_cut1_mono_resampled.wav
1	58	3	3	2	I	2	0	1466	0	poli_8sides 14_whiteLine3.jpg	MediumShort_b10_cut1_MS_mono_resampled.wav
1	59	2	1	0	C	1	1	833	1	poli_8sides 20_whiteLine3.jpg	MediumShort_e16_cut1_mono_resampled.wav
1	60	1	2	0	C	1	1	1383	1	poli_8sides 9_whiteLine3.jpg	MediumShort_b16_cut3_MS_mono_resampled.wav
1	61	3	4	2	I	1	0	652	1	poli_8sides 14_whiteLine3.jpg	MediumShort_e22_cut1_mono_resampled.wav
1	62	1	1	1	C	2	1	849	1	poli_8sides 9_whiteLine3.jpg	MediumShort_e16_cut1_mono_resampled.wav
1	63	2	2	1	C	2	1	807	1	poli_8sides 20_whiteLine3.jpg	MediumShort_b16_cut3_MS_mono_resampled.wav
1	64	4	3	2	I	1	0	730	0	poli_8sides 4_whiteLine3.jpg	MediumShort_b10_cut1_MS_mono_resampled.wav
1	65	1	1	1	C	2	1	1116	1	poli_8sides 9_whiteLine3.jpg	MediumShort_e16_cut1_mono_resampled.wav
1	66	2	1	0	C	1	1	744	1	poli_8sides 20_whiteLine3.jpg	MediumShort_e16_cut1_mono_resampled.wav
1	67	4	3	2	I	1	0	822	1	poli_8sides 4_whiteLine3.jpg	MediumShort_b10_cut1_MS_mono_resampled.wav
1	68	3	4	2	I	1	0	1475	1	poli_8sides 14_whiteLine3.jpg	MediumShort_e22_cut1_mono_resampled.wav
1	69	1	2	0	C	0	0	0	0	poli_8sides 9_whiteLine3.jpg	MediumShort_b16_cut3_MS_mono_resampled.wav
1	70	2	2	1	C	2	1	768	1	poli_8sides 20_whiteLine3.jpg	MediumShort_b16_cut3_MS_mono_resampled.wav
1	71	3	3	2	I	1	0	849	1	poli_8sides 14_whiteLine3.jpg	MediumShort_b10_cut1_MS_mono_resampled.wav
1	72	4	4	2	I	2	0	894	1	poli_8sides 4_whiteLine3.jpg	MediumShort_e22_cut1_mono_resampled.wav
1	73	2	2	1	C	2	1	669	1	poli_8sides 20_whiteLine3.jpg	MediumShort_b16_cut3_MS_mono_resampled.wav
1	74	3	4	2	I	2	0	1560	0	poli_8sides 14_whiteLine3.jpg	MediumShort_e22_cut1_mono_resampled.wav
1	75	1	1	1	C	2	1	747	1	poli_8sides 9_whiteLine3.jpg	MediumShort_e16_cut1_mono_resampled.wav
1	76	4	4	2	I	2	0	1318	1	poli_8sides 4_whiteLine3.jpg	MediumShort_e22_cut1_mono_resampled.wav
1	77	2	1	0	C	1	1	966	1	poli_8sides 20_whiteLine3.jpg	MediumShort_e16_cut1_mono_resampled.wav
1	78	1	2	0	C	2	0	1436	0	poli_8sides 9_whiteLine3.jpg	MediumShort_b16_cut3_MS_mono_resampled.wav
1	79	4	3	2	I	1	0	814	0	poli_8sides 4_whiteLine3.jpg	MediumShort_b10_cut1_MS_mono_resampled.wav
1	80	3	3	2	I	2	0	763	1	poli_8sides 14_whiteLine3.jpg	MediumShort_b10_cut1_MS_mono_resampled.wav
1	81	1	2	0	C	2	0	692	0	poli_8sides 9_whiteLine3.jpg	MediumShort_b16_cut3_MS_mono_resampled.wav
1	82	4	4	2	I	2	0	961	1	poli_8sides 4_whiteLine3.jpg	MediumShort_e22_cut1_mono_resampled.wav
1	83	2	1	0	C	1	1	748	1	poli_8sides 20_whiteLine3.jpg	MediumShort_e16_cut1_mono_resampled.wav
1	84	3	4	2	I	2	0	1201	0	poli_8sides 14_whiteLine3.jpg	MediumShort_e22_cut1_mono_resampled.wav
1	85	1	1	1	C	2	1	824	1	poli_8sides 9_whiteLine3.jpg	MediumShort_e16_cut1_mono_resampled.wav
1	86	2	2	1	C	2	1	974	1	poli_8sides 20_whiteLine3.jpg	MediumShort_b16_cut3_MS_mono_resampled.wav
1	87	3	3	2	I	2	0	1071	1	poli_8sides 14_whiteLine3.jpg	MediumShort_b10_cut1_MS_mono_resampled.wav
1	88	4	3	2	I	1	0	801	1	poli_8sides 4_whiteLine3.jpg	MediumShort_b10_cut1_MS_mono_resampled.wav
1	89	1	1	1	C	2	1	870	1	poli_8sides 9_whiteLine3.jpg	MediumShort_e16_cut1_mono_resampled.wav
1	90	2	2	1	C	2	1	703	1	poli_8sides 20_whiteLine3.jpg	MediumShort_b16_cut3_MS_mono_resampled.wav
1	91	3	3	2	I	2	0	996	1	poli_8sides 14_whiteLine3.jpg	MediumShort_b10_cut1_MS_mono_resampled.wav
1	92	4	3	2	I	1	0	885	0	poli_8sides 4_whiteLine3.jpg	MediumShort_b10_cut1_MS_mono_resampled.wav
1	93	1	2	0	C	2	0	1600	0	poli_8sides 9_whiteLine3.jpg	MediumShort_b16_cut3_MS_mono_resampled.wav
1	94	2	1	0	C	1	1	850	1	poli_8sides 20_whiteLine3.jpg	MediumShort_e16_cut1_mono_resampled.wav
1	95	3	4	2	I	1	0	897	0	poli_8sides 14_whiteLine3.jpg	MediumShort_e22_cut1_mono_resampled.wav
1	96	4	4	2	I	2	0	819	1	poli_8sides 4_whiteLine3.jpg	MediumShort_e22_cut1_mono_resampled.wav
1	97	1	2	0	C	1	1	1432	1	poli_8sides 9_whiteLine3.jpg	MediumShort_b16_cut3_MS_mono_resampled.wav
1	98	4	3	2	I	1	0	1102	1	poli_8sides 4_whiteLine3.jpg	MediumShort_b10_cut1_MS_mono_resampled.wav
1	99	2	1	0	C	1	1	839	1	poli_8sides 20_whiteLine3.jpg	MediumShort_e16_cut1_mono_resampled.wav
1	100	3	3	2	I	1	0	1611	1	poli_8sides 14_whiteLine3.jpg	MediumShort_b10_cut1_MS_mono_resampled.wav
1	101	1	1	1	C	2	1	824	1	poli_8sides 9_whiteLine3.jpg	MediumShort_e16_cut1_mono_resampled.wav
1	102	2	2	1	C	2	1	798	1	poli_8sides 20_whiteLine3.jpg	MediumShort_b16_cut3_MS_mono_resampled.wav
1	103	4	4	2	I	2	0	1109	0	poli_8sides 4_whiteLine3.jpg	MediumShort_e22_cut1_mono_resampled.wav
1	104	3	4	2	I	1	0	1336	0	poli_8sides 14_whiteLine3.jpg	MediumShort_e22_cut1_mono_resampled.wav
1	105	4	4	2	I	2	0	1464	0	poli_8sides 4_whiteLine3.jpg	MediumShort_e22_cut1_mono_resampled.wav
1	106	2	2	1	C	2	1	882	1	poli_8sides 20_whiteLine3.jpg	MediumShort_b16_cut3_MS_mono_resampled.wav
1	107	1	1	1	C	2	1	1275	1	poli_8sides 9_whiteLine3.jpg	MediumShort_e16_cut1_mono_resampled.wav
1	108	3	3	2	I	2	0	1116	1	poli_8sides 14_whiteLine3.jpg	MediumShort_b10_cut1_MS_mono_resampled.wav
1	109	4	3	2	I	1	0	839	1	poli_8sides 4_whiteLine3.jpg	MediumShort_b10_cut1_MS_mono_resampled.wav
1	110	3	4	2	I	1	0	1188	0	poli_8sides 14_whiteLine3.jpg	MediumShort_e22_cut1_mono_resampled.wav
1	111	2	1	0	C	1	1	1098	1	poli_8sides 20_whiteLine3.jpg	MediumShort_e16_cut1_mono_resampled.wav
1	112	1	2	0	C	2	0	834	0	poli_8sides 9_whiteLine3.jpg	MediumShort_b16_cut3_MS_mono_resampled.wav
1	113	2	2	1	C	2	1	828	1	poli_8sides 20_whiteLine3.jpg	MediumShort_b16_cut3_MS_mono_resampled.wav
1	114	4	4	2	I	2	0	1236	0	poli_8sides 4_whiteLine3.jpg	MediumShort_e22_cut1_mono_resampled.wav
1	115	1	2	0	C	1	1	1031	1	poli_8sides 9_whiteLine3.jpg	MediumShort_b16_cut3_MS_mono_resampled.wav
1	116	3	4	2	I	2	0	1216	0	poli_8sides 14_whiteLine3.jpg	MediumShort_e22_cut1_mono_resampled.wav
1	117	1	1	1	C	2	1	837	1	poli_8sides 9_whiteLine3.jpg	MediumShort_e16_cut1_mono_resampled.wav
1	118	4	3	2	I	1	0	1020	1	poli_8sides 4_whiteLine3.jpg	MediumShort_b10_cut1_MS_mono_resampled.wav
1	119	2	1	0	C	1	1	801	1	poli_8sides 20_whiteLine3.jpg	MediumShort_e16_cut1_mono_resampled.wav
1	120	3	3	2	I	2	0	1778	0	poli_8sides 14_whiteLine3.jpg	MediumShort_b10_cut1_MS_mono_resampled.wav
1	121	4	4	2	I	2	0	984	0	poli_8sides 4_whiteLine3.jpg	MediumShort_e22_cut1_mono_resampled.wav
1	122	3	3	2	I	2	0	963	1	poli_8sides 14_whiteLine3.jpg	MediumShort_b10_cut1_MS_mono_resampled.wav
1	123	2	1	0	C	1	1	715	1	poli_8sides 20_whiteLine3.jpg	MediumShort_e16_cut1_mono_resampled.wav
1	124	1	1	1	C	2	1	841	1	poli_8sides 9_whiteLine3.jpg	MediumShort_e16_cut1_mono_resampled.wav
1	125	2	2	1	C	2	1	802	1	poli_8sides 20_whiteLine3.jpg	MediumShort_b16_cut3_MS_mono_resampled.wav
1	126	4	3	2	I	2	0	1630	0	poli_8sides 4_whiteLine3.jpg	MediumShort_b10_cut1_MS_mono_resampled.wav
1	127	1	2	0	C	2	0	1765	0	poli_8sides 9_whiteLine3.jpg	MediumShort_b16_cut3_MS_mono_resampled.wav
1	128	3	4	2	I	1	0	778	0	poli_8sides 14_whiteLine3.jpg	MediumShort_e22_cut1_mono_resampled.wav
1	129	2	1	0	C	1	1	1216	1	poli_8sides 20_whiteLine3.jpg	MediumShort_e16_cut1_mono_resampled.wav
1	130	3	4	2	I	1	0	867	1	poli_8sides 14_whiteLine3.jpg	MediumShort_e22_cut1_mono_resampled.wav
1	131	1	2	0	C	2	0	1037	0	poli_8sides 9_whiteLine3.jpg	MediumShort_b16_cut3_MS_mono_resampled.wav
1	132	4	4	2	I	2	0	891	0	poli_8sides 4_whiteLine3.jpg	MediumShort_e22_cut1_mono_resampled.wav
1	133	2	2	1	C	2	1	741	1	poli_8sides 20_whiteLine3.jpg	MediumShort_b16_cut3_MS_mono_resampled.wav
1	134	4	3	2	I	1	0	1271	1	poli_8sides 4_whiteLine3.jpg	MediumShort_b10_cut1_MS_mono_resampled.wav
1	135	3	3	2	I	2	0	1120	0	poli_8sides 14_whiteLine3.jpg	MediumShort_b10_cut1_MS_mono_resampled.wav
1	136	1	1	1	C	2	1	812	1	poli_8sides 9_whiteLine3.jpg	MediumShort_e16_cut1_mono_resampled.wav
1	137	3	4	2	I	1	0	841	1	poli_8sides 14_whiteLine3.jpg	MediumShort_e22_cut1_mono_resampled.wav
1	138	4	3	2	I	1	0	919	0	poli_8sides 4_whiteLine3.jpg	MediumShort_b10_cut1_MS_mono_resampled.wav
1	139	2	1	0	C	1	1	783	1	poli_8sides 20_whiteLine3.jpg	MediumShort_e16_cut1_mono_resampled.wav
1	140	1	2	0	C	1	1	919	1	poli_8sides 9_whiteLine3.jpg	MediumShort_b16_cut3_MS_mono_resampled.wav
1	141	3	3	2	I	2	0	1276	0	poli_8sides 14_whiteLine3.jpg	MediumShort_b10_cut1_MS_mono_resampled.wav
1	142	4	4	2	I	2	0	866	0	poli_8sides 4_whiteLine3.jpg	MediumShort_e22_cut1_mono_resampled.wav
1	143	2	2	1	C	2	1	1081	1	poli_8sides 20_whiteLine3.jpg	MediumShort_b16_cut3_MS_mono_resampled.wav
1	144	1	1	1	C	2	1	823	1	poli_8sides 9_whiteLine3.jpg	MediumShort_e16_cut1_mono_resampled.wav
1	145	2	2	1	C	2	1	1114	1	poli_8sides 20_whiteLine3.jpg	MediumShort_b16_cut3_MS_mono_resampled.wav
1	146	3	4	2	I	1	0	952	1	poli_8sides 14_whiteLine3.jpg	MediumShort_e22_cut1_mono_resampled.wav
1	147	4	4	2	I	2	0	768	0	poli_8sides 4_whiteLine3.jpg	MediumShort_e22_cut1_mono_resampled.wav
1	148	1	1	1	C	0	0	0	0	poli_8sides 9_whiteLine3.jpg	MediumShort_e16_cut1_mono_resampled.wav
1	149	3	3	2	I	2	0	1066	1	poli_8sides 14_whiteLine3.jpg	MediumShort_b10_cut1_MS_mono_resampled.wav
1	150	4	3	2	I	1	0	865	1	poli_8sides 4_whiteLine3.jpg	MediumShort_b10_cut1_MS_mono_resampled.wav
1	151	1	2	0	C	2	0	1253	0	poli_8sides 9_whiteLine3.jpg	MediumShort_b16_cut3_MS_mono_resampled.wav
1	152	2	1	0	C	1	1	803	1	poli_8sides 20_whiteLine3.jpg	MediumShort_e16_cut1_mono_resampled.wav
1	153	4	3	2	I	1	0	640	1	poli_8sides 4_whiteLine3.jpg	MediumShort_b10_cut1_MS_mono_resampled.wav
1	154	1	2	0	C	2	0	1041	0	poli_8sides 9_whiteLine3.jpg	MediumShort_b16_cut3_MS_mono_resampled.wav
1	155	3	4	2	I	1	0	864	0	poli_8sides 14_whiteLine3.jpg	MediumShort_e22_cut1_mono_resampled.wav
1	156	2	2	1	C	2	1	738	1	poli_8sides 20_whiteLine3.jpg	MediumShort_b16_cut3_MS_mono_resampled.wav
1	157	1	1	1	C	2	1	884	1	poli_8sides 9_whiteLine3.jpg	MediumShort_e16_cut1_mono_resampled.wav
1	158	3	3	2	I	2	0	1454	1	poli_8sides 14_whiteLine3.jpg	MediumShort_b10_cut1_MS_mono_resampled.wav
1	159	4	4	2	I	2	0	1146	0	poli_8sides 4_whiteLine3.jpg	MediumShort_e22_cut1_mono_resampled.wav
1	160	2	1	0	C	1	1	838	1	poli_8sides 20_whiteLine3.jpg	MediumShort_e16_cut1_mono_resampled.wav
1	161	1	1	1	C	2	1	980	1	poli_8sides 9_whiteLine3.jpg	MediumShort_e16_cut1_mono_resampled.wav
1	162	2	1	0	C	1	1	728	1	poli_8sides 20_whiteLine3.jpg	MediumShort_e16_cut1_mono_resampled.wav
1	163	3	3	2	I	2	0	965	1	poli_8sides 14_whiteLine3.jpg	MediumShort_b10_cut1_MS_mono_resampled.wav
1	164	4	3	2	I	1	0	874	0	poli_8sides 4_whiteLine3.jpg	MediumShort_b10_cut1_MS_mono_resampled.wav
1	165	1	2	0	C	0	0	0	0	poli_8sides 9_whiteLine3.jpg	MediumShort_b16_cut3_MS_mono_resampled.wav
1	166	3	4	2	I	1	0	1218	0	poli_8sides 14_whiteLine3.jpg	MediumShort_e22_cut1_mono_resampled.wav
1	167	4	4	2	I	2	0	718	1	poli_8sides 4_whiteLine3.jpg	MediumShort_e22_cut1_mono_resampled.wav
1	168	2	2	1	C	2	1	1440	1	poli_8sides 20_whiteLine3.jpg	MediumShort_b16_cut3_MS_mono_resampled.wav
1	169	3	4	2	I	1	0	770	0	poli_8sides 14_whiteLine3.jpg	MediumShort_e22_cut1_mono_resampled.wav
1	170	4	4	2	I	2	0	824	1	poli_8sides 4_whiteLine3.jpg	MediumShort_e22_cut1_mono_resampled.wav
1	171	1	2	0	C	1	1	1020	1	poli_8sides 9_whiteLine3.jpg	MediumShort_b16_cut3_MS_mono_resampled.wav
1	172	2	2	1	C	2	1	858	1	poli_8sides 20_whiteLine3.jpg	MediumShort_b16_cut3_MS_mono_resampled.wav
1	173	1	1	1	C	2	1	760	1	poli_8sides 9_whiteLine3.jpg	MediumShort_e16_cut1_mono_resampled.wav
1	174	4	3	2	I	1	0	1267	1	poli_8sides 4_whiteLine3.jpg	MediumShort_b10_cut1_MS_mono_resampled.wav
1	175	2	1	0	C	1	1	834	1	poli_8sides 20_whiteLine3.jpg	MediumShort_e16_cut1_mono_resampled.wav
1	176	3	3	2	I	2	0	1318	1	poli_8sides 14_whiteLine3.jpg	MediumShort_b10_cut1_MS_mono_resampled.wav
1	177	2	1	0	C	1	1	788	1	poli_8sides 20_whiteLine3.jpg	MediumShort_e16_cut1_mono_resampled.wav
1	178	3	4	2	I	1	0	711	1	poli_8sides 14_whiteLine3.jpg	MediumShort_e22_cut1_mono_resampled.wav
1	179	4	4	2	I	2	0	860	0	poli_8sides 4_whiteLine3.jpg	MediumShort_e22_cut1_mono_resampled.wav
1	180	1	1	1	C	0	0	0	0	poli_8sides 9_whiteLine3.jpg	MediumShort_e16_cut1_mono_resampled.wav
1	181	2	2	1	C	2	1	1231	1	poli_8sides 20_whiteLine3.jpg	MediumShort_b16_cut3_MS_mono_resampled.wav
1	182	3	3	2	I	2	0	978	0	poli_8sides 14_whiteLine3.jpg	MediumShort_b10_cut1_MS_mono_resampled.wav
1	183	4	3	2	I	1	0	802	1	poli_8sides 4_whiteLine3.jpg	MediumShort_b10_cut1_MS_mono_resampled.wav
1	184	1	2	0	C	2	0	1470	0	poli_8sides 9_whiteLine3.jpg	MediumShort_b16_cut3_MS_mono_resampled.wav
1	185	2	2	1	C	2	1	798	1	poli_8sides 20_whiteLine3.jpg	MediumShort_b16_cut3_MS_mono_resampled.wav
1	186	4	3	2	I	2	0	1810	0	poli_8sides 4_whiteLine3.jpg	MediumShort_b10_cut1_MS_mono_resampled.wav
1	187	3	3	2	I	2	0	928	0	poli_8sides 14_whiteLine3.jpg	MediumShort_b10_cut1_MS_mono_resampled.wav
1	188	1	1	1	C	2	1	1127	1	poli_8sides 9_whiteLine3.jpg	MediumShort_e16_cut1_mono_resampled.wav
1	189	2	1	0	C	1	1	712	1	poli_8sides 20_whiteLine3.jpg	MediumShort_e16_cut1_mono_resampled.wav
1	190	3	4	2	I	2	0	1381	0	poli_8sides 14_whiteLine3.jpg	MediumShort_e22_cut1_mono_resampled.wav
1	191	1	2	0	C	1	1	1369	1	poli_8sides 9_whiteLine3.jpg	MediumShort_b16_cut3_MS_mono_resampled.wav
1	192	4	4	2	I	2	0	904	1	poli_8sides 4_whiteLine3.jpg	MediumShort_e22_cut1_mono_resampled.wav
1	193	3	3	2	I	2	0	1053	0	poli_8sides 14_whiteLine3.jpg	MediumShort_b10_cut1_MS_mono_resampled.wav
1	194	2	2	1	C	2	1	784	1	poli_8sides 20_whiteLine3.jpg	MediumShort_b16_cut3_MS_mono_resampled.wav
1	195	4	4	2	I	2	0	1078	0	poli_8sides 4_whiteLine3.jpg	MediumShort_e22_cut1_mono_resampled.wav
1	196	1	2	0	C	1	1	1004	1	poli_8sides 9_whiteLine3.jpg	MediumShort_b16_cut3_MS_mono_resampled.wav
1	197	2	1	0	C	1	1	1107	1	poli_8sides 20_whiteLine3.jpg	MediumShort_e16_cut1_mono_resampled.wav
1	198	1	1	1	C	2	1	841	1	poli_8sides 9_whiteLine3.jpg	MediumShort_e16_cut1_mono_resampled.wav
1	199	3	4	2	I	1	0	1288	1	poli_8sides 14_whiteLine3.jpg	MediumShort_e22_cut1_mono_resampled.wav
1	200	4	3	2	I	1	0	1207	0	poli_8sides 4_whiteLine3.jpg	MediumShort_b10_cut1_MS_mono_resampled.wav
2	1	3	4	2	I	1	0	1240	1	poli_8sides 3_whiteLine3.jpg	Medium_e01_cut1_mono_resampled.wav
2	2	1	1	1	C	2	1	752	1	poli_8sides 7_whiteLine3.jpg	MediumLong_e19_mono_resampled.wav
2	3	4	4	2	I	2	0	1035	0	poli_8sides 18_whiteLine3.jpg	Medium_e01_cut1_mono_resampled.wav
2	4	2	2	1	C	2	1	1219	1	poli_8sides 15_whiteLine3.jpg	MediumLong_e04_mono_resampled.wav
2	5	3	3	2	I	2	0	862	1	poli_8sides 3_whiteLine3.jpg	Medium_e13_mono_resampled.wav
2	6	2	1	0	C	1	1	791	1	poli_8sides 15_whiteLine3.jpg	MediumLong_e19_mono_resampled.wav
2	7	4	3	2	I	2	0	916	1	poli_8sides 18_whiteLine3.jpg	Medium_e13_mono_resampled.wav
2	8	1	2	0	C	1	1	773	1	poli_8sides 7_whiteLine3.jpg	MediumLong_e04_mono_resampled.wav
2	9	4	4	2	I	2	0	493	0	poli_8sides 18_whiteLine3.jpg	Medium_e01_cut1_mono_resampled.wav
2	10	1	1	1	C	1	0	663	0	poli_8sides 7_whiteLine3.jpg	MediumLong_e19_mono_resampled.wav
2	11	3	3	2	I	2	0	710	0	poli_8sides 3_whiteLine3.jpg	Medium_e13_mono_resampled.wav
2	12	2	1	0	C	1	1	665	1	poli_8sides 15_whiteLine3.jpg	MediumLong_e19_mono_resampled.wav
2	13	3	4	2	I	1	0	846	0	poli_8sides 3_whiteLine3.jpg	Medium_e01_cut1_mono_resampled.wav
2	14	2	2	1	C	2	1	754	1	poli_8sides 15_whiteLine3.jpg	MediumLong_e04_mono_resampled.wav
2	15	4	3	2	I	2	0	871	1	poli_8sides 18_whiteLine3.jpg	Medium_e13_mono_resampled.wav
2	16	1	2	0	C	1	1	981	1	poli_8sides 7_whiteLine3.jpg	MediumLong_e04_mono_resampled.wav
2	17	3	4	2	I	1	0	955	0	poli_8sides 3_whiteLine3.jpg	Medium_e01_cut1_mono_resampled.wav
2	18	1	1	1	C	2	1	868	1	poli_8sides 7_whiteLine3.jpg	MediumLong_e19_mono_resampled.wav
2	19	2	1	0	C	1	1	656	1	poli_8sides 15_whiteLine3.jpg	MediumLong_e19_mono_resampled.wav
2	20	4	4	2	I	1	0	1449	1	poli_8sides 18_whiteLine3.jpg	Medium_e01_cut1_mono_resampled.wav
2	21	2	2	1	C	2	1	722	1	poli_8sides 15_whiteLine3.jpg	MediumLong_e04_mono_resampled.wav
2	22	1	2	0	C	1	1	697	1	poli_8sides 7_whiteLine3.jpg	MediumLong_e04_mono_resampled.wav
2	23	3	3	2	I	1	0	1257	0	poli_8sides 3_whiteLine3.jpg	Medium_e13_mono_resampled.wav
2	24	4	3	2	I	1	0	914	1	poli_8sides 18_whiteLine3.jpg	Medium_e13_mono_resampled.wav
2	25	2	1	0	C	1	1	686	1	poli_8sides 15_whiteLine3.jpg	MediumLong_e19_mono_resampled.wav
2	26	1	2	0	C	1	1	754	1	poli_8sides 7_whiteLine3.jpg	MediumLong_e04_mono_resampled.wav
2	27	3	3	2	I	2	0	1314	0	poli_8sides 3_whiteLine3.jpg	Medium_e13_mono_resampled.wav
2	28	4	4	2	I	1	0	1285	0	poli_8sides 18_whiteLine3.jpg	Medium_e01_cut1_mono_resampled.wav
2	29	1	1	1	C	2	1	1017	1	poli_8sides 7_whiteLine3.jpg	MediumLong_e19_mono_resampled.wav
2	30	2	2	1	C	2	1	741	1	poli_8sides 15_whiteLine3.jpg	MediumLong_e04_mono_resampled.wav
2	31	4	3	2	I	2	0	818	0	poli_8sides 18_whiteLine3.jpg	Medium_e13_mono_resampled.wav
2	32	3	4	2	I	1	0	937	1	poli_8sides 3_whiteLine3.jpg	Medium_e01_cut1_mono_resampled.wav
2	33	2	2	1	C	2	1	744	1	poli_8sides 15_whiteLine3.jpg	MediumLong_e04_mono_resampled.wav
2	34	1	2	0	C	1	1	723	1	poli_8sides 7_whiteLine3.jpg	MediumLong_e04_mono_resampled.wav
2	35	4	4	2	I	1	0	1011	1	poli_8sides 18_whiteLine3.jpg	Medium_e01_cut1_mono_resampled.wav
2	36	3	4	2	I	2	0	800	1	poli_8sides 3_whiteLine3.jpg	Medium_e01_cut1_mono_resampled.wav
2	37	4	3	2	I	2	0	1036	1	poli_8sides 18_whiteLine3.jpg	Medium_e13_mono_resampled.wav
2	38	3	3	2	I	1	0	704	0	poli_8sides 3_whiteLine3.jpg	Medium_e13_mono_resampled.wav
2	39	1	1	1	C	2	1	865	1	poli_8sides 7_whiteLine3.jpg	MediumLong_e19_mono_resampled.wav
2	40	2	1	0	C	1	1	617	1	poli_8sides 15_whiteLine3.jpg	MediumLong_e19_mono_resampled.wav
2	41	1	2	0	C	1	1	663	1	poli_8sides 7_whiteLine3.jpg	MediumLong_e04_mono_resampled.wav
2	42	3	3	2	I	1	0	903	0	poli_8sides 3_whiteLine3.jpg	Medium_e13_mono_resampled.wav
2	43	4	3	2	I	2	0	840	1	poli_8sides 18_whiteLine3.jpg	Medium_e13_mono_resampled.wav
2	44	2	2	1	C	2	1	775	1	poli_8sides 15_whiteLine3.jpg	MediumLong_e04_mono_resampled.wav
2	45	1	1	1	C	2	1	757	1	poli_8sides 7_whiteLine3.jpg	MediumLong_e19_mono_resampled.wav
2	46	3	4	2	I	1	0	1309	1	poli_8sides 3_whiteLine3.jpg	Medium_e01_cut1_mono_resampled.wav
2	47	2	1	0	C	1	1	816	1	poli_8sides 15_whiteLine3.jpg	MediumLong_e19_mono_resampled.wav
2	48	4	4	2	I	1	0	906	1	poli_8sides 18_whiteLine3.jpg	Medium_e01_cut1_mono_resampled.wav
2	49	2	2	1	C	2	1	647	1	poli_8sides 15_whiteLine3.jpg	MediumLong_e04_mono_resampled.wav
2	50	4	4	2	I	1	0	910	1	poli_8sides 18_whiteLine3.jpg	Medium_e01_cut1_mono_resampled.wav
2	51	1	2	0	C	2	0	1054	0	poli_8sides 7_whiteLine3.jpg	MediumLong_e04_mono_resampled.wav
2	52	3	4	2	I	2	0	756	1	poli_8sides 3_whiteLine3.jpg	Medium_e01_cut1_mono_resampled.wav
2	53	4	3	2	I	2	0	956	0	poli_8sides 18_whiteLine3.jpg	Medium_e13_mono_resampled.wav
2	54	3	3	2	I	1	0	718	0	poli_8sides 3_whiteLine3.jpg	Medium_e13_mono_resampled.wav
2	55	1	1	1	C	2	1	859	1	poli_8sides 7_whiteLine3.jpg	MediumLong_e19_mono_resampled.wav
2	56	2	1	0	C	1	1	632	1	poli_8sides 15_whiteLine3.jpg	MediumLong_e19_mono_resampled.wav
2	57	3	4	2	I	1	0	1032	1	poli_8sides 3_whiteLine3.jpg	Medium_e01_cut1_mono_resampled.wav
2	58	2	1	0	C	1	1	842	1	poli_8sides 15_whiteLine3.jpg	MediumLong_e19_mono_resampled.wav
2	59	1	1	1	C	2	1	665	1	poli_8sides 7_whiteLine3.jpg	MediumLong_e19_mono_resampled.wav
2	60	4	3	2	I	2	0	768	1	poli_8sides 18_whiteLine3.jpg	Medium_e13_mono_resampled.wav
2	61	3	3	2	I	1	0	1129	0	poli_8sides 3_whiteLine3.jpg	Medium_e13_mono_resampled.wav
2	62	4	4	2	I	2	0	947	0	poli_8sides 18_whiteLine3.jpg	Medium_e01_cut1_mono_resampled.wav
2	63	1	2	0	C	1	1	863	1	poli_8sides 7_whiteLine3.jpg	MediumLong_e04_mono_resampled.wav
2	64	2	2	1	C	2	1	721	1	poli_8sides 15_whiteLine3.jpg	MediumLong_e04_mono_resampled.wav
2	65	1	2	0	C	1	1	809	1	poli_8sides 7_whiteLine3.jpg	MediumLong_e04_mono_resampled.wav
2	66	2	2	1	C	2	1	676	1	poli_8sides 15_whiteLine3.jpg	MediumLong_e04_mono_resampled.wav
2	67	3	3	2	I	1	0	944	1	poli_8sides 3_whiteLine3.jpg	Medium_e13_mono_resampled.wav
2	68	4	3	2	I	2	0	718	1	poli_8sides 18_whiteLine3.jpg	Medium_e13_mono_resampled.wav
2	69	2	1	0	C	1	1	726	1	poli_8sides 15_whiteLine3.jpg	MediumLong_e19_mono_resampled.wav
2	70	4	4	2	I	1	0	1116	0	poli_8sides 18_whiteLine3.jpg	Medium_e01_cut1_mono_resampled.wav
2	71	1	1	1	C	2	1	924	1	poli_8sides 7_whiteLine3.jpg	MediumLong_e19_mono_resampled.wav
2	72	3	4	2	I	1	0	779	1	poli_8sides 3_whiteLine3.jpg	Medium_e01_cut1_mono_resampled.wav
2	73	1	1	1	C	2	1	622	1	poli_8sides 7_whiteLine3.jpg	MediumLong_e19_mono_resampled.wav
2	74	4	3	2	I	2	0	1250	1	poli_8sides 18_whiteLine3.jpg	Medium_e13_mono_resampled.wav
2	75	2	1	0	C	1	1	515	1	poli_8sides 15_whiteLine3.jpg	MediumLong_e19_mono_resampled.wav
2	76	3	3	2	I	2	0	546	1	poli_8sides 3_whiteLine3.jpg	Medium_e13_mono_resampled.wav
2	77	4	4	2	I	1	0	902	0	poli_8sides 18_whiteLine3.jpg	Medium_e01_cut1_mono_resampled.wav
2	78	2	2	1	C	2	1	1295	1	poli_8sides 15_whiteLine3.jpg	MediumLong_e04_mono_resampled.wav
2	79	1	2	0	C	1	1	628	1	poli_8sides 7_whiteLine3.jpg	MediumLong_e04_mono_resampled.wav
2	80	3	4	2	I	2	0	959	0	poli_8sides 3_whiteLine3.jpg	Medium_e01_cut1_mono_resampled.wav
2	81	2	2	1	C	2	1	765	1	poli_8sides 15_whiteLine3.jpg	MediumLong_e04_mono_resampled.wav
2	82	3	3	2	I	1	0	873	1	poli_8sides 3_whiteLine3.jpg	Medium_e13_mono_resampled.wav
2	83	4	3	2	I	2	0	676	0	poli_8sides 18_whiteLine3.jpg	Medium_e13_mono_resampled.wav
2	84	1	2	0	C	1	1	674	1	poli_8sides 7_whiteLine3.jpg	MediumLong_e04_mono_resampled.wav
2	85	3	4	2	I	2	0	1065	0	poli_8sides 3_whiteLine3.jpg	Medium_e01_cut1_mono_resampled.wav
2	86	4	4	2	I	2	0	902	1	poli_8sides 18_whiteLine3.jpg	Medium_e01_cut1_mono_resampled.wav
2	87	1	1	1	C	2	1	1018	1	poli_8sides 7_whiteLine3.jpg	MediumLong_e19_mono_resampled.wav
2	88	2	1	0	C	1	1	637	1	poli_8sides 15_whiteLine3.jpg	MediumLong_e19_mono_resampled.wav
2	89	3	3	2	I	2	0	1209	0	poli_8sides 3_whiteLine3.jpg	Medium_e13_mono_resampled.wav
2	90	4	3	2	I	2	0	1158	0	poli_8sides 18_whiteLine3.jpg	Medium_e13_mono_resampled.wav
2	91	2	1	0	C	1	1	649	1	poli_8sides 15_whiteLine3.jpg	MediumLong_e19_mono_resampled.wav
2	92	1	2	0	C	1	1	1098	1	poli_8sides 7_whiteLine3.jpg	MediumLong_e04_mono_resampled.wav
2	93	4	4	2	I	1	0	995	0	poli_8sides 18_whiteLine3.jpg	Medium_e01_cut1_mono_resampled.wav
2	94	1	1	1	C	2	1	1070	1	poli_8sides 7_whiteLine3.jpg	MediumLong_e19_mono_resampled.wav
2	95	2	2	1	C	2	1	789	1	poli_8sides 15_whiteLine3.jpg	MediumLong_e04_mono_resampled.wav
2	96	3	4	2	I	1	0	921	1	poli_8sides 3_whiteLine3.jpg	Medium_e01_cut1_mono_resampled.wav
2	97	2	2	1	C	2	1	784	1	poli_8sides 15_whiteLine3.jpg	MediumLong_e04_mono_resampled.wav
2	98	3	4	2	I	1	0	1043	1	poli_8sides 3_whiteLine3.jpg	Medium_e01_cut1_mono_resampled.wav
2	99	1	2	0	C	1	1	814	1	poli_8sides 7_whiteLine3.jpg	MediumLong_e04_mono_resampled.wav
2	100	4	4	2	I	2	0	1531	0	poli_8sides 18_whiteLine3.jpg	Medium_e01_cut1_mono_resampled.wav
2	101	2	1	0	C	1	1	999	1	poli_8sides 15_whiteLine3.jpg	MediumLong_e19_mono_resampled.wav
2	102	1	1	1	C	2	1	691	1	poli_8sides 7_whiteLine3.jpg	MediumLong_e19_mono_resampled.wav
2	103	3	3	2	I	1	0	1210	1	poli_8sides 3_whiteLine3.jpg	Medium_e13_mono_resampled.wav
2	104	4	3	2	I	2	0	1003	0	poli_8sides 18_whiteLine3.jpg	Medium_e13_mono_resampled.wav
2	105	3	3	2	I	1	0	624	0	poli_8sides 3_whiteLine3.jpg	Medium_e13_mono_resampled.wav
2	106	1	2	0	C	1	1	861	1	poli_8sides 7_whiteLine3.jpg	MediumLong_e04_mono_resampled.wav
2	107	4	4	2	I	2	0	968	0	poli_8sides 18_whiteLine3.jpg	Medium_e01_cut1_mono_resampled.wav
2	108	2	1	0	C	1	1	691	1	poli_8sides 15_whiteLine3.jpg	MediumLong_e19_mono_resampled.wav
2	109	3	4	2	I	1	0	505	0	poli_8sides 3_whiteLine3.jpg	Medium_e01_cut1_mono_resampled.wav
2	110	2	2	1	C	2	1	708	1	poli_8sides 15_whiteLine3.jpg	MediumLong_e04_mono_resampled.wav
2	111	1	1	1	C	2	1	630	1	poli_8sides 7_whiteLine3.jpg	MediumLong_e19_mono_resampled.wav
2	112	4	3	2	I	2	0	1127	1	poli_8sides 18_whiteLine3.jpg	Medium_e13_mono_resampled.wav
2	113	3	4	2	I	1	0	698	1	poli_8sides 3_whiteLine3.jpg	Medium_e01_cut1_mono_resampled.wav
2	114	1	1	1	C	2	1	760	1	poli_8sides 7_whiteLine3.jpg	MediumLong_e19_mono_resampled.wav
2	115	2	1	0	C	1	1	692	1	poli_8sides 15_whiteLine3.jpg	MediumLong_e19_mono_resampled.wav
2	116	4	3	2	I	2	0	727	1	poli_8sides 18_whiteLine3.jpg	Medium_e13_mono_resampled.wav
2	117	1	2	0	C	1	1	965	1	poli_8sides 7_whiteLine3.jpg	MediumLong_e04_mono_resampled.wav
2	118	3	3	2	I	1	0	1283	0	poli_8sides 3_whiteLine3.jpg	Medium_e13_mono_resampled.wav
2	119	4	4	2	I	1	0	1622	1	poli_8sides 18_whiteLine3.jpg	Medium_e01_cut1_mono_resampled.wav
2	120	2	2	1	C	2	1	847	1	poli_8sides 15_whiteLine3.jpg	MediumLong_e04_mono_resampled.wav
2	121	1	2	0	C	1	1	645	1	poli_8sides 7_whiteLine3.jpg	MediumLong_e04_mono_resampled.wav
2	122	4	4	2	I	1	0	1261	1	poli_8sides 18_whiteLine3.jpg	Medium_e01_cut1_mono_resampled.wav
2	123	2	1	0	C	1	1	626	1	poli_8sides 15_whiteLine3.jpg	MediumLong_e19_mono_resampled.wav
2	124	3	3	2	I	1	0	1220	0	poli_8sides 3_whiteLine3.jpg	Medium_e13_mono_resampled.wav
2	125	1	1	1	C	2	1	963	1	poli_8sides 7_whiteLine3.jpg	MediumLong_e19_mono_resampled.wav
2	126	3	4	2	I	2	0	1021	0	poli_8sides 3_whiteLine3.jpg	Medium_e01_cut1_mono_resampled.wav
2	127	2	2	1	C	2	1	710	1	poli_8sides 15_whiteLine3.jpg	MediumLong_e04_mono_resampled.wav
2	128	4	3	2	I	2	0	909	0	poli_8sides 18_whiteLine3.jpg	Medium_e13_mono_resampled.wav
2	129	3	3	2	I	1	0	1452	1	poli_8sides 3_whiteLine3.jpg	Medium_e13_mono_resampled.wav
2	130	1	2	0	C	1	1	1028	1	poli_8sides 7_whiteLine3.jpg	MediumLong_e04_mono_resampled.wav
2	131	2	1	0	C	1	1	659	1	poli_8sides 15_whiteLine3.jpg	MediumLong_e19_mono_resampled.wav
2	132	4	4	2	I	2	0	1097	1	poli_8sides 18_whiteLine3.jpg	Medium_e01_cut1_mono_resampled.wav
2	133	1	1	1	C	2	1	1193	1	poli_8sides 7_whiteLine3.jpg	MediumLong_e19_mono_resampled.wav
2	134	4	3	2	I	2	0	878	0	poli_8sides 18_whiteLine3.jpg	Medium_e13_mono_resampled.wav
2	135	3	4	2	I	1	0	766	0	poli_8sides 3_whiteLine3.jpg	Medium_e01_cut1_mono_resampled.wav
2	136	2	2	1	C	2	1	664	1	poli_8sides 15_whiteLine3.jpg	MediumLong_e04_mono_resampled.wav
2	137	1	1	1	C	1	0	814	0	poli_8sides 7_whiteLine3.jpg	MediumLong_e19_mono_resampled.wav
2	138	2	1	0	C	1	1	749	1	poli_8sides 15_whiteLine3.jpg	MediumLong_e19_mono_resampled.wav
2	139	3	4	2	I	2	0	1092	0	poli_8sides 3_whiteLine3.jpg	Medium_e01_cut1_mono_resampled.wav
2	140	4	4	2	I	2	0	928	0	poli_8sides 18_whiteLine3.jpg	Medium_e01_cut1_mono_resampled.wav
2	141	3	3	2	I	1	0	841	1	poli_8sides 3_whiteLine3.jpg	Medium_e13_mono_resampled.wav
2	142	1	2	0	C	1	1	866	1	poli_8sides 7_whiteLine3.jpg	MediumLong_e04_mono_resampled.wav
2	143	2	2	1	C	2	1	693	1	poli_8sides 15_whiteLine3.jpg	MediumLong_e04_mono_resampled.wav
2	144	4	3	2	I	1	0	1179	1	poli_8sides 18_whiteLine3.jpg	Medium_e13_mono_resampled.wav
2	145	1	2	0	C	1	1	915	1	poli_8sides 7_whiteLine3.jpg	MediumLong_e04_mono_resampled.wav
2	146	4	4	2	I	2	0	1234	1	poli_8sides 18_whiteLine3.jpg	Medium_e01_cut1_mono_resampled.wav
2	147	2	1	0	C	1	1	677	1	poli_8sides 15_whiteLine3.jpg	MediumLong_e19_mono_resampled.wav
2	148	3	3	2	I	1	0	979	1	poli_8sides 3_whiteLine3.jpg	Medium_e13_mono_resampled.wav
2	149	2	2	1	C	2	1	752	1	poli_8sides 15_whiteLine3.jpg	MediumLong_e04_mono_resampled.wav
2	150	3	4	2	I	1	0	1008	1	poli_8sides 3_whiteLine3.jpg	Medium_e01_cut1_mono_resampled.wav
2	151	4	3	2	I	2	0	1127	0	poli_8sides 18_whiteLine3.jpg	Medium_e13_mono_resampled.wav
2	152	1	1	1	C	2	1	862	1	poli_8sides 7_whiteLine3.jpg	MediumLong_e19_mono_resampled.wav
2	153	3	4	2	I	1	0	1112	0	poli_8sides 3_whiteLine3.jpg	Medium_e01_cut1_mono_resampled.wav
2	154	4	4	2	I	2	0	1152	1	poli_8sides 18_whiteLine3.jpg	Medium_e01_cut1_mono_resampled.wav
2	155	2	1	0	C	1	1	656	1	poli_8sides 15_whiteLine3.jpg	MediumLong_e19_mono_resampled.wav
2	156	1	1	1	C	2	1	689	1	poli_8sides 7_whiteLine3.jpg	MediumLong_e19_mono_resampled.wav
2	157	3	3	2	I	1	0	991	0	poli_8sides 3_whiteLine3.jpg	Medium_e13_mono_resampled.wav
2	158	2	2	1	C	2	1	1351	1	poli_8sides 15_whiteLine3.jpg	MediumLong_e04_mono_resampled.wav
2	159	4	3	2	I	2	0	1224	0	poli_8sides 18_whiteLine3.jpg	Medium_e13_mono_resampled.wav
2	160	1	2	0	C	1	1	1201	1	poli_8sides 7_whiteLine3.jpg	MediumLong_e04_mono_resampled.wav
2	161	4	4	2	I	1	0	1258	1	poli_8sides 18_whiteLine3.jpg	Medium_e01_cut1_mono_resampled.wav
2	162	3	4	2	I	2	0	627	0	poli_8sides 3_whiteLine3.jpg	Medium_e01_cut1_mono_resampled.wav
2	163	2	1	0	C	1	1	656	1	poli_8sides 15_whiteLine3.jpg	MediumLong_e19_mono_resampled.wav
2	164	1	1	1	C	2	1	765	1	poli_8sides 7_whiteLine3.jpg	MediumLong_e19_mono_resampled.wav
2	165	2	2	1	C	2	1	796	1	poli_8sides 15_whiteLine3.jpg	MediumLong_e04_mono_resampled.wav
2	166	4	3	2	I	1	0	1944	1	poli_8sides 18_whiteLine3.jpg	Medium_e13_mono_resampled.wav
2	167	3	3	2	I	2	0	1064	1	poli_8sides 3_whiteLine3.jpg	Medium_e13_mono_resampled.wav
2	168	1	2	0	C	1	1	1335	1	poli_8sides 7_whiteLine3.jpg	MediumLong_e04_mono_resampled.wav
2	169	4	4	2	I	1	0	1195	0	poli_8sides 18_whiteLine3.jpg	Medium_e01_cut1_mono_resampled.wav
2	170	3	4	2	I	1	0	920	1	poli_8sides 3_whiteLine3.jpg	Medium_e01_cut1_mono_resampled.wav
2	171	2	2	1	C	2	1	1207	1	poli_8sides 15_whiteLine3.jpg	MediumLong_e04_mono_resampled.wav
2	172	1	2	0	C	1	1	1519	1	poli_8sides 7_whiteLine3.jpg	MediumLong_e04_mono_resampled.wav
2	173	4	3	2	I	2	0	1265	0	poli_8sides 18_whiteLine3.jpg	Medium_e13_mono_resampled.wav
2	174	3	3	2	I	1	0	632	0	poli_8sides 3_whiteLine3.jpg	Medium_e13_mono_resampled.wav
2	175	2	1	0	C	0	0	0	0	poli_8sides 15_whiteLine3.jpg	MediumLong_e19_mono_resampled.wav
2	176	1	1	1	C	2	1	687	1	poli_8sides 7_whiteLine3.jpg	MediumLong_e19_mono_resampled.wav
2	177	2	1	0	C	1	1	522	1	poli_8sides 15_whiteLine3.jpg	MediumLong_e19_mono_resampled.wav
2	178	1	2	0	C	2	0	1773	0	poli_8sides 7_whiteLine3.jpg	MediumLong_e04_mono_resampled.wav
2	179	4	4	2	I	1	0	1324	0	poli_8sides 18_whiteLine3.jpg	Medium_e01_cut1_mono_resampled.wav
2	180	3	4	2	I	1	0	832	1	poli_8sides 3_whiteLine3.jpg	Medium_e01_cut1_mono_resampled.wav
2	181	2	2	1	C	2	1	971	1	poli_8sides 15_whiteLine3.jpg	MediumLong_e04_mono_resampled.wav
2	182	3	3	2	I	2	0	971	0	poli_8sides 3_whiteLine3.jpg	Medium_e13_mono_resampled.wav
2	183	1	1	1	C	2	1	811	1	poli_8sides 7_whiteLine3.jpg	MediumLong_e19_mono_resampled.wav
2	184	4	3	2	I	1	0	816	1	poli_8sides 18_whiteLine3.jpg	Medium_e13_mono_resampled.wav
2	185	3	4	2	I	1	0	1135	1	poli_8sides 3_whiteLine3.jpg	Medium_e01_cut1_mono_resampled.wav
2	186	4	4	2	I	2	0	1182	1	poli_8sides 18_whiteLine3.jpg	Medium_e01_cut1_mono_resampled.wav
2	187	2	1	0	C	1	1	675	1	poli_8sides 15_whiteLine3.jpg	MediumLong_e19_mono_resampled.wav
2	188	1	1	1	C	2	1	676	1	poli_8sides 7_whiteLine3.jpg	MediumLong_e19_mono_resampled.wav
2	189	4	3	2	I	2	0	755	0	poli_8sides 18_whiteLine3.jpg	Medium_e13_mono_resampled.wav
2	190	3	3	2	I	2	0	761	1	poli_8sides 3_whiteLine3.jpg	Medium_e13_mono_resampled.wav
2	191	2	2	1	C	2	1	894	1	poli_8sides 15_whiteLine3.jpg	MediumLong_e04_mono_resampled.wav
2	192	1	2	0	C	1	1	1001	1	poli_8sides 7_whiteLine3.jpg	MediumLong_e04_mono_resampled.wav
2	193	2	1	0	C	1	1	1193	1	poli_8sides 15_whiteLine3.jpg	MediumLong_e19_mono_resampled.wav
2	194	3	3	2	I	1	0	1142	1	poli_8sides 3_whiteLine3.jpg	Medium_e13_mono_resampled.wav
2	195	4	3	2	I	2	0	979	0	poli_8sides 18_whiteLine3.jpg	Medium_e13_mono_resampled.wav
2	196	1	2	0	C	1	1	715	1	poli_8sides 7_whiteLine3.jpg	MediumLong_e04_mono_resampled.wav
2	197	3	4	2	I	1	0	869	0	poli_8sides 3_whiteLine3.jpg	Medium_e01_cut1_mono_resampled.wav
2	198	4	4	2	I	2	0	1473	0	poli_8sides 18_whiteLine3.jpg	Medium_e01_cut1_mono_resampled.wav
2	199	1	1	1	C	2	1	983	1	poli_8sides 7_whiteLine3.jpg	MediumLong_e19_mono_resampled.wav
2	200	2	2	1	C	2	1	863	1	poli_8sides 15_whiteLine3.jpg	MediumLong_e04_mono_resampled.wav
3	1	4	4	2	I	1	0	1111	1	poli_8sides 19_whiteLine3.jpg	Short_b23_cut1_mono_resampled.wav
3	2	1	2	0	C	2	0	978	0	poli_8sides 8_whiteLine3.jpg	Short_b22_cut1_mono_resampled.wav
3	3	3	4	2	I	1	0	748	0	poli_8sides 6_whiteLine3.jpg	Short_b23_cut1_mono_resampled.wav
3	4	2	1	0	C	1	1	1088	1	poli_8sides 16_whiteLine3.jpg	Short_b09_cut1_mono_resampled.wav
3	5	3	3	2	I	2	0	620	1	poli_8sides 6_whiteLine3.jpg	Short_b20_cut1_mono_resampled.wav
3	6	2	2	1	C	2	1	924	1	poli_8sides 16_whiteLine3.jpg	Short_b22_cut1_mono_resampled.wav
3	7	4	3	2	I	2	0	652	1	poli_8sides 19_whiteLine3.jpg	Short_b20_cut1_mono_resampled.wav
3	8	1	1	1	C	1	0	656	0	poli_8sides 8_whiteLine3.jpg	Short_b09_cut1_mono_resampled.wav
3	9	3	4	2	I	1	0	894	0	poli_8sides 6_whiteLine3.jpg	Short_b23_cut1_mono_resampled.wav
3	10	2	1	0	C	1	1	1001	1	poli_8sides 16_whiteLine3.jpg	Short_b09_cut1_mono_resampled.wav
3	11	4	4	2	I	2	0	987	0	poli_8sides 19_whiteLine3.jpg	Short_b23_cut1_mono_resampled.wav
3	12	1	1	1	C	1	0	777	0	poli_8sides 8_whiteLine3.jpg	Short_b09_cut1_mono_resampled.wav
3	13	3	3	2	I	1	0	977	1	poli_8sides 6_whiteLine3.jpg	Short_b20_cut1_mono_resampled.wav
3	14	1	2	0	C	2	0	1358	0	poli_8sides 8_whiteLine3.jpg	Short_b22_cut1_mono_resampled.wav
3	15	4	3	2	I	2	0	1143	0	poli_8sides 19_whiteLine3.jpg	Short_b20_cut1_mono_resampled.wav
3	16	2	2	1	C	1	0	963	0	poli_8sides 16_whiteLine3.jpg	Short_b22_cut1_mono_resampled.wav
3	17	3	4	2	I	2	0	1151	0	poli_8sides 6_whiteLine3.jpg	Short_b23_cut1_mono_resampled.wav
3	18	2	1	0	C	2	0	1333	0	poli_8sides 16_whiteLine3.jpg	Short_b09_cut1_mono_resampled.wav
3	19	4	4	2	I	2	0	1557	1	poli_8sides 19_whiteLine3.jpg	Short_b23_cut1_mono_resampled.wav
3	20	1	2	0	C	1	1	1548	1	poli_8sides 8_whiteLine3.jpg	Short_b22_cut1_mono_resampled.wav
3	21	2	2	1	C	2	1	1213	1	poli_8sides 16_whiteLine3.jpg	Short_b22_cut1_mono_resampled.wav
3	22	4	3	2	I	2	0	1273	1	poli_8sides 19_whiteLine3.jpg	Short_b20_cut1_mono_resampled.wav
3	23	3	3	2	I	1	0	762	0	poli_8sides 6_whiteLine3.jpg	Short_b20_cut1_mono_resampled.wav
3	24	1	1	1	C	2	1	1370	1	poli_8sides 8_whiteLine3.jpg	Short_b09_cut1_mono_resampled.wav
3	25	2	2	1	C	1	0	1265	0	poli_8sides 16_whiteLine3.jpg	Short_b22_cut1_mono_resampled.wav
3	26	3	3	2	I	1	0	1370	0	poli_8sides 6_whiteLine3.jpg	Short_b20_cut1_mono_resampled.wav
3	27	4	3	2	I	0	0	0	0	poli_8sides 19_whiteLine3.jpg	Short_b20_cut1_mono_resampled.wav
3	28	1	1	1	C	1	0	1733	0	poli_8sides 8_whiteLine3.jpg	Short_b09_cut1_mono_resampled.wav
3	29	3	4	2	I	1	0	1540	1	poli_8sides 6_whiteLine3.jpg	Short_b23_cut1_mono_resampled.wav
3	30	2	1	0	C	2	0	1379	0	poli_8sides 16_whiteLine3.jpg	Short_b09_cut1_mono_resampled.wav
3	31	4	4	2	I	1	0	1454	1	poli_8sides 19_whiteLine3.jpg	Short_b23_cut1_mono_resampled.wav
3	32	1	2	0	C	2	0	1564	0	poli_8sides 8_whiteLine3.jpg	Short_b22_cut1_mono_resampled.wav
3	33	3	3	2	I	1	0	1275	0	poli_8sides 6_whiteLine3.jpg	Short_b20_cut1_mono_resampled.wav
3	34	2	1	0	C	2	0	1736	0	poli_8sides 16_whiteLine3.jpg	Short_b09_cut1_mono_resampled.wav
3	35	1	1	1	C	2	1	1283	1	poli_8sides 8_whiteLine3.jpg	Short_b09_cut1_mono_resampled.wav
3	36	4	4	2	I	1	0	1320	0	poli_8sides 19_whiteLine3.jpg	Short_b23_cut1_mono_resampled.wav
3	37	2	2	1	C	2	1	1966	1	poli_8sides 16_whiteLine3.jpg	Short_b22_cut1_mono_resampled.wav
3	38	4	3	2	I	1	0	1526	1	poli_8sides 19_whiteLine3.jpg	Short_b20_cut1_mono_resampled.wav
3	39	3	4	2	I	2	0	1362	1	poli_8sides 6_whiteLine3.jpg	Short_b23_cut1_mono_resampled.wav
3	40	1	2	0	C	2	0	1062	0	poli_8sides 8_whiteLine3.jpg	Short_b22_cut1_mono_resampled.wav
3	41	3	3	2	I	1	0	1245	0	poli_8sides 6_whiteLine3.jpg	Short_b20_cut1_mono_resampled.wav
3	42	2	2	1	C	1	0	1850	0	poli_8sides 16_whiteLine3.jpg	Short_b22_cut1_mono_resampled.wav
3	43	1	1	1	C	2	1	1967	1	poli_8sides 8_whiteLine3.jpg	Short_b09_cut1_mono_resampled.wav
3	44	4	3	2	I	0	0	0	0	poli_8sides 19_whiteLine3.jpg	Short_b20_cut1_mono_resampled.wav
3	45	3	4	2	I	2	0	1091	0	poli_8sides 6_whiteLine3.jpg	Short_b23_cut1_mono_resampled.wav
3	46	1	2	0	C	1	1	566	1	poli_8sides 8_whiteLine3.jpg	Short_b22_cut1_mono_resampled.wav
3	47	2	1	0	C	1	1	951	1	poli_8sides 16_whiteLine3.jpg	Short_b09_cut1_mono_resampled.wav
3	48	4	4	2	I	2	0	1327	0	poli_8sides 19_whiteLine3.jpg	Short_b23_cut1_mono_resampled.wav
3	49	3	4	2	I	1	0	740	1	poli_8sides 6_whiteLine3.jpg	Short_b23_cut1_mono_resampled.wav
3	50	4	3	2	I	2	0	918	0	poli_8sides 19_whiteLine3.jpg	Short_b20_cut1_mono_resampled.wav
3	51	2	1	0	C	1	1	1167	1	poli_8sides 16_whiteLine3.jpg	Short_b09_cut1_mono_resampled.wav
3	52	1	2	0	C	1	1	1335	1	poli_8sides 8_whiteLine3.jpg	Short_b22_cut1_mono_resampled.wav
3	53	2	2	1	C	2	1	1084	1	poli_8sides 16_whiteLine3.jpg	Short_b22_cut1_mono_resampled.wav
3	54	3	3	2	I	2	0	936	0	poli_8sides 6_whiteLine3.jpg	Short_b20_cut1_mono_resampled.wav
3	55	4	4	2	I	2	0	907	0	poli_8sides 19_whiteLine3.jpg	Short_b23_cut1_mono_resampled.wav
3	56	1	1	1	C	1	0	1390	0	poli_8sides 8_whiteLine3.jpg	Short_b09_cut1_mono_resampled.wav
3	57	4	3	2	I	2	0	1546	1	poli_8sides 19_whiteLine3.jpg	Short_b20_cut1_mono_resampled.wav
3	58	2	2	1	C	1	0	1320	0	poli_8sides 16_whiteLine3.jpg	Short_b22_cut1_mono_resampled.wav
3	59	3	3	2	I	1	0	1193	1	poli_8sides 6_whiteLine3.jpg	Short_b20_cut1_mono_resampled.wav
3	60	1	2	0	C	2	0	1046	0	poli_8sides 8_whiteLine3.jpg	Short_b22_cut1_mono_resampled.wav
3	61	3	4	2	I	1	0	742	1	poli_8sides 6_whiteLine3.jpg	Short_b23_cut1_mono_resampled.wav
3	62	1	1	1	C	2	1	1273	1	poli_8sides 8_whiteLine3.jpg	Short_b09_cut1_mono_resampled.wav
3	63	2	1	0	C	1	1	670	1	poli_8sides 16_whiteLine3.jpg	Short_b09_cut1_mono_resampled.wav
3	64	4	4	2	I	2	0	921	1	poli_8sides 19_whiteLine3.jpg	Short_b23_cut1_mono_resampled.wav
3	65	3	3	2	I	2	0	1338	0	poli_8sides 6_whiteLine3.jpg	Short_b20_cut1_mono_resampled.wav
3	66	2	1	0	C	1	1	1189	1	poli_8sides 16_whiteLine3.jpg	Short_b09_cut1_mono_resampled.wav
3	67	1	1	1	C	2	1	691	1	poli_8sides 8_whiteLine3.jpg	Short_b09_cut1_mono_resampled.wav
3	68	4	4	2	I	2	0	1306	0	poli_8sides 19_whiteLine3.jpg	Short_b23_cut1_mono_resampled.wav
3	69	1	2	0	C	1	1	777	1	poli_8sides 8_whiteLine3.jpg	Short_b22_cut1_mono_resampled.wav
3	70	2	2	1	C	2	1	1488	1	poli_8sides 16_whiteLine3.jpg	Short_b22_cut1_mono_resampled.wav
3	71	4	3	2	I	1	0	1137	0	poli_8sides 19_whiteLine3.jpg	Short_b20_cut1_mono_resampled.wav
3	72	3	4	2	I	2	0	765	0	poli_8sides 6_whiteLine3.jpg	Short_b23_cut1_mono_resampled.wav
3	73	2	1	0	C	2	0	1297	0	poli_8sides 16_whiteLine3.jpg	Short_b09_cut1_mono_resampled.wav
3	74	3	4	2	I	1	0	1111	1	poli_8sides 6_whiteLine3.jpg	Short_b23_cut1_mono_resampled.wav
3	75	4	3	2	I	2	0	1528	0	poli_8sides 19_whiteLine3.jpg	Short_b20_cut1_mono_resampled.wav
3	76	1	1	1	C	1	0	1270	0	poli_8sides 8_whiteLine3.jpg	Short_b09_cut1_mono_resampled.wav
3	77	3	3	2	I	1	0	1831	0	poli_8sides 6_whiteLine3.jpg	Short_b20_cut1_mono_resampled.wav
3	78	1	2	0	C	2	0	979	0	poli_8sides 8_whiteLine3.jpg	Short_b22_cut1_mono_resampled.wav
3	79	2	2	1	C	2	1	1150	1	poli_8sides 16_whiteLine3.jpg	Short_b22_cut1_mono_resampled.wav
3	80	4	4	2	I	1	0	1093	0	poli_8sides 19_whiteLine3.jpg	Short_b23_cut1_mono_resampled.wav
3	81	3	4	2	I	1	0	838	1	poli_8sides 6_whiteLine3.jpg	Short_b23_cut1_mono_resampled.wav
3	82	2	2	1	C	1	0	1215	0	poli_8sides 16_whiteLine3.jpg	Short_b22_cut1_mono_resampled.wav
3	83	4	3	2	I	2	0	1542	0	poli_8sides 19_whiteLine3.jpg	Short_b20_cut1_mono_resampled.wav
3	84	1	2	0	C	1	1	1240	1	poli_8sides 8_whiteLine3.jpg	Short_b22_cut1_mono_resampled.wav
3	85	3	3	2	I	2	0	768	1	poli_8sides 6_whiteLine3.jpg	Short_b20_cut1_mono_resampled.wav
3	86	1	1	1	C	2	1	825	1	poli_8sides 8_whiteLine3.jpg	Short_b09_cut1_mono_resampled.wav
3	87	2	1	0	C	1	1	1523	1	poli_8sides 16_whiteLine3.jpg	Short_b09_cut1_mono_resampled.wav
3	88	4	4	2	I	2	0	1396	0	poli_8sides 19_whiteLine3.jpg	Short_b23_cut1_mono_resampled.wav
3	89	3	3	2	I	1	0	1434	0	poli_8sides 6_whiteLine3.jpg	Short_b20_cut1_mono_resampled.wav
3	90	4	3	2	I	1	0	1098	0	poli_8sides 19_whiteLine3.jpg	Short_b20_cut1_mono_resampled.wav
3	91	2	2	1	C	2	1	1000	1	poli_8sides 16_whiteLine3.jpg	Short_b22_cut1_mono_resampled.wav
3	92	1	1	1	C	1	0	888	0	poli_8sides 8_whiteLine3.jpg	Short_b09_cut1_mono_resampled.wav
3	93	2	1	0	C	1	1	1110	1	poli_8sides 16_whiteLine3.jpg	Short_b09_cut1_mono_resampled.wav
3	94	4	4	2	I	1	0	1665	1	poli_8sides 19_whiteLine3.jpg	Short_b23_cut1_mono_resampled.wav
3	95	3	4	2	I	2	0	814	1	poli_8sides 6_whiteLine3.jpg	Short_b23_cut1_mono_resampled.wav
3	96	1	2	0	C	2	0	1244	0	poli_8sides 8_whiteLine3.jpg	Short_b22_cut1_mono_resampled.wav
3	97	4	4	2	I	1	0	1561	1	poli_8sides 19_whiteLine3.jpg	Short_b23_cut1_mono_resampled.wav
3	98	3	4	2	I	2	0	1265	0	poli_8sides 6_whiteLine3.jpg	Short_b23_cut1_mono_resampled.wav
3	99	1	1	1	C	1	0	971	0	poli_8sides 8_whiteLine3.jpg	Short_b09_cut1_mono_resampled.wav
3	100	2	1	0	C	1	1	1623	1	poli_8sides 16_whiteLine3.jpg	Short_b09_cut1_mono_resampled.wav
3	101	4	3	2	I	1	0	1229	0	poli_8sides 19_whiteLine3.jpg	Short_b20_cut1_mono_resampled.wav
3	102	1	2	0	C	2	0	1118	0	poli_8sides 8_whiteLine3.jpg	Short_b22_cut1_mono_resampled.wav
3	103	2	2	1	C	2	1	1451	1	poli_8sides 16_whiteLine3.jpg	Short_b22_cut1_mono_resampled.wav
3	104	3	3	2	I	1	0	1509	1	poli_8sides 6_whiteLine3.jpg	Short_b20_cut1_mono_resampled.wav
3	105	1	1	1	C	2	1	908	1	poli_8sides 8_whiteLine3.jpg	Short_b09_cut1_mono_resampled.wav
3	106	4	4	2	I	1	0	1556	1	poli_8sides 19_whiteLine3.jpg	Short_b23_cut1_mono_resampled.wav
3	107	2	1	0	C	2	0	1787	0	poli_8sides 16_whiteLine3.jpg	Short_b09_cut1_mono_resampled.wav
3	108	3	4	2	I	2	0	911	0	poli_8sides 6_whiteLine3.jpg	Short_b23_cut1_mono_resampled.wav
3	109	2	2	1	C	2	1	1341	1	poli_8sides 16_whiteLine3.jpg	Short_b22_cut1_mono_resampled.wav
3	110	4	3	2	I	2	0	1591	1	poli_8sides 19_whiteLine3.jpg	Short_b20_cut1_mono_resampled.wav
3	111	3	3	2	I	1	0	872	0	poli_8sides 6_whiteLine3.jpg	Short_b20_cut1_mono_resampled.wav
3	112	1	2	0	C	1	1	1860	1	poli_8sides 8_whiteLine3.jpg	Short_b22_cut1_mono_resampled.wav
3	113	2	1	0	C	1	1	1323	1	poli_8sides 16_whiteLine3.jpg	Short_b09_cut1_mono_resampled.wav
3	114	4	4	2	I	2	0	1507	1	poli_8sides 19_whiteLine3.jpg	Short_b23_cut1_mono_resampled.wav
3	115	3	3	2	I	1	0	884	1	poli_8sides 6_whiteLine3.jpg	Short_b20_cut1_mono_resampled.wav
3	116	1	2	0	C	1	1	1427	1	poli_8sides 8_whiteLine3.jpg	Short_b22_cut1_mono_resampled.wav
3	117	3	4	2	I	1	0	1632	1	poli_8sides 6_whiteLine3.jpg	Short_b23_cut1_mono_resampled.wav
3	118	2	2	1	C	2	1	902	1	poli_8sides 16_whiteLine3.jpg	Short_b22_cut1_mono_resampled.wav
3	119	1	1	1	C	1	0	1247	0	poli_8sides 8_whiteLine3.jpg	Short_b09_cut1_mono_resampled.wav
3	120	4	3	2	I	2	0	1563	0	poli_8sides 19_whiteLine3.jpg	Short_b20_cut1_mono_resampled.wav
3	121	1	2	0	C	2	0	1023	0	poli_8sides 8_whiteLine3.jpg	Short_b22_cut1_mono_resampled.wav
3	122	3	3	2	I	1	0	1039	0	poli_8sides 6_whiteLine3.jpg	Short_b20_cut1_mono_resampled.wav
3	123	4	3	2	I	1	0	1341	0	poli_8sides 19_whiteLine3.jpg	Short_b20_cut1_mono_resampled.wav
3	124	2	2	1	C	2	1	1258	1	poli_8sides 16_whiteLine3.jpg	Short_b22_cut1_mono_resampled.wav
3	125	4	4	2	I	2	0	1314	0	poli_8sides 19_whiteLine3.jpg	Short_b23_cut1_mono_resampled.wav
3	126	1	1	1	C	1	0	1113	0	poli_8sides 8_whiteLine3.jpg	Short_b09_cut1_mono_resampled.wav
3	127	2	1	0	C	1	1	1107	1	poli_8sides 16_whiteLine3.jpg	Short_b09_cut1_mono_resampled.wav
3	128	3	4	2	I	2	0	1423	1	poli_8sides 6_whiteLine3.jpg	Short_b23_cut1_mono_resampled.wav
3	129	4	3	2	I	1	0	1592	0	poli_8sides 19_whiteLine3.jpg	Short_b20_cut1_mono_resampled.wav
3	130	1	2	0	C	1	1	984	1	poli_8sides 8_whiteLine3.jpg	Short_b22_cut1_mono_resampled.wav
3	131	2	1	0	C	1	1	751	1	poli_8sides 16_whiteLine3.jpg	Short_b09_cut1_mono_resampled.wav
3	132	3	4	2	I	1	0	1325	0	poli_8sides 6_whiteLine3.jpg	Short_b23_cut1_mono_resampled.wav
3	133	1	1	1	C	2	1	1742	1	poli_8sides 8_whiteLine3.jpg	Short_b09_cut1_mono_resampled.wav
3	134	2	2	1	C	2	1	1399	1	poli_8sides 16_whiteLine3.jpg	Short_b22_cut1_mono_resampled.wav
3	135	3	3	2	I	2	0	1102	0	poli_8sides 6_whiteLine3.jpg	Short_b20_cut1_mono_resampled.wav
3	136	4	4	2	I	1	0	1417	0	poli_8sides 19_whiteLine3.jpg	Short_b23_cut1_mono_resampled.wav
3	137	2	1	0	C	1	1	1518	1	poli_8sides 16_whiteLine3.jpg	Short_b09_cut1_mono_resampled.wav
3	138	1	1	1	C	1	0	1614	0	poli_8sides 8_whiteLine3.jpg	Short_b09_cut1_mono_resampled.wav
3	139	4	3	2	I	2	0	1738	1	poli_8sides 19_whiteLine3.jpg	Short_b20_cut1_mono_resampled.wav
3	140	3	4	2	I	2	0	987	1	poli_8sides 6_whiteLine3.jpg	Short_b23_cut1_mono_resampled.wav
3	141	4	4	2	I	2	0	1276	1	poli_8sides 19_whiteLine3.jpg	Short_b23_cut1_mono_resampled.wav
3	142	3	3	2	I	1	0	976	0	poli_8sides 6_whiteLine3.jpg	Short_b20_cut1_mono_resampled.wav
3	143	2	2	1	C	1	0	980	0	poli_8sides 16_whiteLine3.jpg	Short_b22_cut1_mono_resampled.wav
3	144	1	2	0	C	1	1	1342	1	poli_8sides 8_whiteLine3.jpg	Short_b22_cut1_mono_resampled.wav
3	145	4	3	2	I	2	0	805	0	poli_8sides 19_whiteLine3.jpg	Short_b20_cut1_mono_resampled.wav
3	146	1	1	1	C	1	0	1418	0	poli_8sides 8_whiteLine3.jpg	Short_b09_cut1_mono_resampled.wav
3	147	2	2	1	C	2	1	1089	1	poli_8sides 16_whiteLine3.jpg	Short_b22_cut1_mono_resampled.wav
3	148	3	3	2	I	2	0	912	0	poli_8sides 6_whiteLine3.jpg	Short_b20_cut1_mono_resampled.wav
3	149	2	1	0	C	1	1	1147	1	poli_8sides 16_whiteLine3.jpg	Short_b09_cut1_mono_resampled.wav
3	150	4	4	2	I	2	0	1322	1	poli_8sides 19_whiteLine3.jpg	Short_b23_cut1_mono_resampled.wav
3	151	1	2	0	C	1	1	809	1	poli_8sides 8_whiteLine3.jpg	Short_b22_cut1_mono_resampled.wav
3	152	3	4	2	I	1	0	1527	1	poli_8sides 6_whiteLine3.jpg	Short_b23_cut1_mono_resampled.wav
3	153	4	3	2	I	2	0	1156	0	poli_8sides 19_whiteLine3.jpg	Short_b20_cut1_mono_resampled.wav
3	154	2	1	0	C	1	1	1014	1	poli_8sides 16_whiteLine3.jpg	Short_b09_cut1_mono_resampled.wav
3	155	3	3	2	I	2	0	1159	0	poli_8sides 6_whiteLine3.jpg	Short_b20_cut1_mono_resampled.wav
3	156	1	2	0	C	1	1	1198	1	poli_8sides 8_whiteLine3.jpg	Short_b22_cut1_mono_resampled.wav
3	157	4	4	2	I	1	0	923	1	poli_8sides 19_whiteLine3.jpg	Short_b23_cut1_mono_resampled.wav
3	158	2	2	1	C	2	1	792	1	poli_8sides 16_whiteLine3.jpg	Short_b22_cut1_mono_resampled.wav
3	159	3	4	2	I	2	0	1145	1	poli_8sides 6_whiteLine3.jpg	Short_b23_cut1_mono_resampled.wav
3	160	1	1	1	C	1	0	1130	0	poli_8sides 8_whiteLine3.jpg	Short_b09_cut1_mono_resampled.wav
3	161	3	3	2	I	2	0	1104	1	poli_8sides 6_whiteLine3.jpg	Short_b20_cut1_mono_resampled.wav
3	162	2	2	1	C	1	0	1431	0	poli_8sides 16_whiteLine3.jpg	Short_b22_cut1_mono_resampled.wav
3	163	4	3	2	I	2	0	1765	1	poli_8sides 19_whiteLine3.jpg	Short_b20_cut1_mono_resampled.wav
3	164	1	2	0	C	1	1	1241	1	poli_8sides 8_whiteLine3.jpg	Short_b22_cut1_mono_resampled.wav
3	165	2	1	0	C	1	1	979	1	poli_8sides 16_whiteLine3.jpg	Short_b09_cut1_mono_resampled.wav
3	166	4	4	2	I	2	0	1448	1	poli_8sides 19_whiteLine3.jpg	Short_b23_cut1_mono_resampled.wav
3	167	1	1	1	C	1	0	876	0	poli_8sides 8_whiteLine3.jpg	Short_b09_cut1_mono_resampled.wav
3	168	3	4	2	I	2	0	1493	1	poli_8sides 6_whiteLine3.jpg	Short_b23_cut1_mono_resampled.wav
3	169	2	1	0	C	1	1	927	1	poli_8sides 16_whiteLine3.jpg	Short_b09_cut1_mono_resampled.wav
3	170	3	3	2	I	2	0	1540	1	poli_8sides 6_whiteLine3.jpg	Short_b20_cut1_mono_resampled.wav
3	171	4	3	2	I	2	0	1232	1	poli_8sides 19_whiteLine3.jpg	Short_b20_cut1_mono_resampled.wav
3	172	1	1	1	C	1	0	1011	0	poli_8sides 8_whiteLine3.jpg	Short_b09_cut1_mono_resampled.wav
3	173	3	4	2	I	2	0	813	1	poli_8sides 6_whiteLine3.jpg	Short_b23_cut1_mono_resampled.wav
3	174	1	2	0	C	2	0	1651	0	poli_8sides 8_whiteLine3.jpg	Short_b22_cut1_mono_resampled.wav
3	175	2	2	1	C	2	1	1095	1	poli_8sides 16_whiteLine3.jpg	Short_b22_cut1_mono_resampled.wav
3	176	4	4	2	I	1	0	1434	0	poli_8sides 19_whiteLine3.jpg	Short_b23_cut1_mono_resampled.wav
3	177	3	4	2	I	2	0	1853	0	poli_8sides 6_whiteLine3.jpg	Short_b23_cut1_mono_resampled.wav
3	178	1	1	1	C	2	1	854	1	poli_8sides 8_whiteLine3.jpg	Short_b09_cut1_mono_resampled.wav
3	179	4	3	2	I	1	0	1350	0	poli_8sides 19_whiteLine3.jpg	Short_b20_cut1_mono_resampled.wav
3	180	2	1	0	C	1	1	905	1	poli_8sides 16_whiteLine3.jpg	Short_b09_cut1_mono_resampled.wav
3	181	4	4	2	I	1	0	1538	1	poli_8sides 19_whiteLine3.jpg	Short_b23_cut1_mono_resampled.wav
3	182	1	2	0	C	1	1	788	1	poli_8sides 8_whiteLine3.jpg	Short_b22_cut1_mono_resampled.wav
3	183	2	2	1	C	2	1	811	1	poli_8sides 16_whiteLine3.jpg	Short_b22_cut1_mono_resampled.wav
3	184	3	3	2	I	2	0	959	1	poli_8sides 6_whiteLine3.jpg	Short_b20_cut1_mono_resampled.wav
3	185	4	3	2	I	1	0	561	0	poli_8sides 19_whiteLine3.jpg	Short_b20_cut1_mono_resampled.wav
3	186	3	4	2	I	1	0	1573	0	poli_8sides 6_whiteLine3.jpg	Short_b23_cut1_mono_resampled.wav
3	187	1	2	0	C	2	0	1869	0	poli_8sides 8_whiteLine3.jpg	Short_b22_cut1_mono_resampled.wav
3	188	2	2	1	C	2	1	1169	1	poli_8sides 16_whiteLine3.jpg	Short_b22_cut1_mono_resampled.wav
3	189	1	1	1	C	2	1	911	1	poli_8sides 8_whiteLine3.jpg	Short_b09_cut1_mono_resampled.wav
3	190	2	1	0	C	1	1	607	1	poli_8sides 16_whiteLine3.jpg	Short_b09_cut1_mono_resampled.wav
3	191	4	4	2	I	1	0	1225	0	poli_8sides 19_whiteLine3.jpg	Short_b23_cut1_mono_resampled.wav
3	192	3	3	2	I	1	0	1475	1	poli_8sides 6_whiteLine3.jpg	Short_b20_cut1_mono_resampled.wav
3	193	2	2	1	C	2	1	790	1	poli_8sides 16_whiteLine3.jpg	Short_b22_cut1_mono_resampled.wav
3	194	1	2	0	C	1	1	1490	1	poli_8sides 8_whiteLine3.jpg	Short_b22_cut1_mono_resampled.wav
3	195	4	3	2	I	2	0	1398	1	poli_8sides 19_whiteLine3.jpg	Short_b20_cut1_mono_resampled.wav
3	196	3	3	2	I	1	0	1237	1	poli_8sides 6_whiteLine3.jpg	Short_b20_cut1_mono_resampled.wav
3	197	2	1	0	C	1	1	711	1	poli_8sides 16_whiteLine3.jpg	Short_b09_cut1_mono_resampled.wav
3	198	4	4	2	I	2	0	976	1	poli_8sides 19_whiteLine3.jpg	Short_b23_cut1_mono_resampled.wav
3	199	3	4	2	I	2	0	645	0	poli_8sides 6_whiteLine3.jpg	Short_b23_cut1_mono_resampled.wav
3	200	1	1	1	C	0	0	0	0	poli_8sides 8_whiteLine3.jpg	Short_b09_cut1_mono_resampled.wav
4	1	4	3	2	I	1	0	1316	0	poli_8sides 10_whiteLine3.jpg	Long_e17_cut2_mono_resampled.wav
4	2	1	2	0	C	2	0	839	0	poli_8sides 5_whiteLine3.jpg	Long_s10_cut2_l_mono_resampled.wav
4	3	3	4	2	I	1	0	848	0	poli_8sides 11_whiteLine3.jpg	Long_b01_cut2_L_mono_resampled.wav
4	4	2	2	1	C	1	0	882	0	poli_8sides 17_whiteLine3.jpg	Long_s10_cut2_l_mono_resampled.wav
4	5	4	4	2	I	1	0	925	1	poli_8sides 10_whiteLine3.jpg	Long_b01_cut2_L_mono_resampled.wav
4	6	3	3	2	I	2	0	898	0	poli_8sides 11_whiteLine3.jpg	Long_e17_cut2_mono_resampled.wav
4	7	1	1	1	C	1	0	810	0	poli_8sides 5_whiteLine3.jpg	Long_e24_cut1_mono_resampled.wav
4	8	2	1	0	C	1	1	729	1	poli_8sides 17_whiteLine3.jpg	Long_e24_cut1_mono_resampled.wav
4	9	4	3	2	I	2	0	1143	0	poli_8sides 10_whiteLine3.jpg	Long_e17_cut2_mono_resampled.wav
4	10	2	2	1	C	1	0	1067	0	poli_8sides 17_whiteLine3.jpg	Long_s10_cut2_l_mono_resampled.wav
4	11	3	4	2	I	2	0	1120	0	poli_8sides 11_whiteLine3.jpg	Long_b01_cut2_L_mono_resampled.wav
4	12	1	1	1	C	1	0	1344	0	poli_8sides 5_whiteLine3.jpg	Long_e24_cut1_mono_resampled.wav
4	13	4	4	2	I	1	0	1288	0	poli_8sides 10_whiteLine3.jpg	Long_b01_cut2_L_mono_resampled.wav
4	14	2	1	0	C	2	0	1096	0	poli_8sides 17_whiteLine3.jpg	Long_e24_cut1_mono_resampled.wav
4	15	1	2	0	C	1	1	970	1	poli_8sides 5_whiteLine3.jpg	Long_s10_cut2_l_mono_resampled.wav
4	16	3	3	2	I	2	0	1249	1	poli_8sides 11_whiteLine3.jpg	Long_e17_cut2_mono_resampled.wav
4	17	4	4	2	I	1	0	970	1	poli_8sides 10_whiteLine3.jpg	Long_b01_cut2_L_mono_resampled.wav
4	18	3	3	2	I	2	0	1161	0	poli_8sides 11_whiteLine3.jpg	Long_e17_cut2_mono_resampled.wav
4	19	1	2	0	C	1	1	833	1	poli_8sides 5_whiteLine3.jpg	Long_s10_cut2_l_mono_resampled.wav
4	20	2	1	0	C	1	1	1061	1	poli_8sides 17_whiteLine3.jpg	Long_e24_cut1_mono_resampled.wav
4	21	1	1	1	C	2	1	956	1	poli_8sides 5_whiteLine3.jpg	Long_e24_cut1_mono_resampled.wav
4	22	3	4	2	I	1	0	1086	1	poli_8sides 11_whiteLine3.jpg	Long_b01_cut2_L_mono_resampled.wav
4	23	4	3	2	I	2	0	1113	1	poli_8sides 10_whiteLine3.jpg	Long_e17_cut2_mono_resampled.wav
4	24	2	2	1	C	1	0	1198	0	poli_8sides 17_whiteLine3.jpg	Long_s10_cut2_l_mono_resampled.wav
4	25	1	1	1	C	2	1	769	1	poli_8sides 5_whiteLine3.jpg	Long_e24_cut1_mono_resampled.wav
4	26	3	4	2	I	1	0	855	0	poli_8sides 11_whiteLine3.jpg	Long_b01_cut2_L_mono_resampled.wav
4	27	4	4	2	I	2	0	1971	1	poli_8sides 10_whiteLine3.jpg	Long_b01_cut2_L_mono_resampled.wav
4	28	2	2	1	C	1	0	895	0	poli_8sides 17_whiteLine3.jpg	Long_s10_cut2_l_mono_resampled.wav
4	29	4	3	2	I	2	0	958	1	poli_8sides 10_whiteLine3.jpg	Long_e17_cut2_mono_resampled.wav
4	30	1	2	0	C	1	1	1032	1	poli_8sides 5_whiteLine3.jpg	Long_s10_cut2_l_mono_resampled.wav
4	31	2	1	0	C	2	0	902	0	poli_8sides 17_whiteLine3.jpg	Long_e24_cut1_mono_resampled.wav
4	32	3	3	2	I	2	0	1381	1	poli_8sides 11_whiteLine3.jpg	Long_e17_cut2_mono_resampled.wav
4	33	1	2	0	C	1	1	872	1	poli_8sides 5_whiteLine3.jpg	Long_s10_cut2_l_mono_resampled.wav
4	34	2	2	1	C	2	1	871	1	poli_8sides 17_whiteLine3.jpg	Long_s10_cut2_l_mono_resampled.wav
4	35	4	4	2	I	2	0	1516	0	poli_8sides 10_whiteLine3.jpg	Long_b01_cut2_L_mono_resampled.wav
4	36	3	3	2	I	1	0	1470	0	poli_8sides 11_whiteLine3.jpg	Long_e17_cut2_mono_resampled.wav
4	37	1	1	1	C	1	0	1042	0	poli_8sides 5_whiteLine3.jpg	Long_e24_cut1_mono_resampled.wav
4	38	2	1	0	C	1	1	745	1	poli_8sides 17_whiteLine3.jpg	Long_e24_cut1_mono_resampled.wav
4	39	4	3	2	I	1	0	956	0	poli_8sides 10_whiteLine3.jpg	Long_e17_cut2_mono_resampled.wav
4	40	3	4	2	I	2	0	1271	1	poli_8sides 11_whiteLine3.jpg	Long_b01_cut2_L_mono_resampled.wav
4	41	2	2	1	C	2	1	1056	1	poli_8sides 17_whiteLine3.jpg	Long_s10_cut2_l_mono_resampled.wav
4	42	1	1	1	C	2	1	952	1	poli_8sides 5_whiteLine3.jpg	Long_e24_cut1_mono_resampled.wav
4	43	3	3	2	I	1	0	1201	0	poli_8sides 11_whiteLine3.jpg	Long_e17_cut2_mono_resampled.wav
4	44	4	3	2	I	2	0	1039	0	poli_8sides 10_whiteLine3.jpg	Long_e17_cut2_mono_resampled.wav
4	45	2	1	0	C	1	1	1030	1	poli_8sides 17_whiteLine3.jpg	Long_e24_cut1_mono_resampled.wav
4	46	1	2	0	C	1	1	915	1	poli_8sides 5_whiteLine3.jpg	Long_s10_cut2_l_mono_resampled.wav
4	47	4	4	2	I	2	0	1046	1	poli_8sides 10_whiteLine3.jpg	Long_b01_cut2_L_mono_resampled.wav
4	48	3	4	2	I	1	0	730	1	poli_8sides 11_whiteLine3.jpg	Long_b01_cut2_L_mono_resampled.wav
4	49	1	1	1	C	1	0	1000	0	poli_8sides 5_whiteLine3.jpg	Long_e24_cut1_mono_resampled.wav
4	50	3	3	2	I	2	0	1121	0	poli_8sides 11_whiteLine3.jpg	Long_e17_cut2_mono_resampled.wav
4	51	4	4	2	I	2	0	1272	1	poli_8sides 10_whiteLine3.jpg	Long_b01_cut2_L_mono_resampled.wav
4	52	2	1	0	C	1	1	836	1	poli_8sides 17_whiteLine3.jpg	Long_e24_cut1_mono_resampled.wav
4	53	3	4	2	I	1	0	1081	1	poli_8sides 11_whiteLine3.jpg	Long_b01_cut2_L_mono_resampled.wav
4	54	2	2	1	C	2	1	1284	1	poli_8sides 17_whiteLine3.jpg	Long_s10_cut2_l_mono_resampled.wav
4	55	4	3	2	I	2	0	825	0	poli_8sides 10_whiteLine3.jpg	Long_e17_cut2_mono_resampled.wav
4	56	1	2	0	C	1	1	788	1	poli_8sides 5_whiteLine3.jpg	Long_s10_cut2_l_mono_resampled.wav
4	57	2	1	0	C	1	1	744	1	poli_8sides 17_whiteLine3.jpg	Long_e24_cut1_mono_resampled.wav
4	58	4	3	2	I	2	0	1134	0	poli_8sides 10_whiteLine3.jpg	Long_e17_cut2_mono_resampled.wav
4	59	3	3	2	I	2	0	1159	0	poli_8sides 11_whiteLine3.jpg	Long_e17_cut2_mono_resampled.wav
4	60	1	2	0	C	1	1	1101	1	poli_8sides 5_whiteLine3.jpg	Long_s10_cut2_l_mono_resampled.wav
4	61	2	2	1	C	2	1	1101	1	poli_8sides 17_whiteLine3.jpg	Long_s10_cut2_l_mono_resampled.wav
4	62	1	1	1	C	2	1	966	1	poli_8sides 5_whiteLine3.jpg	Long_e24_cut1_mono_resampled.wav
4	63	4	4	2	I	2	0	1134	1	poli_8sides 10_whiteLine3.jpg	Long_b01_cut2_L_mono_resampled.wav
4	64	3	4	2	I	1	0	810	0	poli_8sides 11_whiteLine3.jpg	Long_b01_cut2_L_mono_resampled.wav
4	65	4	4	2	I	2	0	966	0	poli_8sides 10_whiteLine3.jpg	Long_b01_cut2_L_mono_resampled.wav
4	66	3	4	2	I	1	0	1025	1	poli_8sides 11_whiteLine3.jpg	Long_b01_cut2_L_mono_resampled.wav
4	67	1	1	1	C	2	1	1059	1	poli_8sides 5_whiteLine3.jpg	Long_e24_cut1_mono_resampled.wav
4	68	2	2	1	C	2	1	997	1	poli_8sides 17_whiteLine3.jpg	Long_s10_cut2_l_mono_resampled.wav
4	69	3	3	2	I	1	0	1496	1	poli_8sides 11_whiteLine3.jpg	Long_e17_cut2_mono_resampled.wav
4	70	1	2	0	C	2	0	1353	0	poli_8sides 5_whiteLine3.jpg	Long_s10_cut2_l_mono_resampled.wav
4	71	2	1	0	C	1	1	887	1	poli_8sides 17_whiteLine3.jpg	Long_e24_cut1_mono_resampled.wav
4	72	4	3	2	I	2	0	1498	1	poli_8sides 10_whiteLine3.jpg	Long_e17_cut2_mono_resampled.wav
4	73	1	1	1	C	2	1	1226	1	poli_8sides 5_whiteLine3.jpg	Long_e24_cut1_mono_resampled.wav
4	74	2	2	1	C	2	1	985	1	poli_8sides 17_whiteLine3.jpg	Long_s10_cut2_l_mono_resampled.wav
4	75	3	3	2	I	1	0	813	0	poli_8sides 11_whiteLine3.jpg	Long_e17_cut2_mono_resampled.wav
4	76	4	4	2	I	2	0	1900	0	poli_8sides 10_whiteLine3.jpg	Long_b01_cut2_L_mono_resampled.wav
4	77	3	4	2	I	1	0	788	1	poli_8sides 11_whiteLine3.jpg	Long_b01_cut2_L_mono_resampled.wav
4	78	4	3	2	I	2	0	1758	1	poli_8sides 10_whiteLine3.jpg	Long_e17_cut2_mono_resampled.wav
4	79	1	2	0	C	1	1	1290	1	poli_8sides 5_whiteLine3.jpg	Long_s10_cut2_l_mono_resampled.wav
4	80	2	1	0	C	1	1	1024	1	poli_8sides 17_whiteLine3.jpg	Long_e24_cut1_mono_resampled.wav
4	81	4	3	2	I	2	0	1285	1	poli_8sides 10_whiteLine3.jpg	Long_e17_cut2_mono_resampled.wav
4	82	2	1	0	C	1	1	666	1	poli_8sides 17_whiteLine3.jpg	Long_e24_cut1_mono_resampled.wav
4	83	1	1	1	C	2	1	688	1	poli_8sides 5_whiteLine3.jpg	Long_e24_cut1_mono_resampled.wav
4	84	3	3	2	I	1	0	734	1	poli_8sides 11_whiteLine3.jpg	Long_e17_cut2_mono_resampled.wav
4	85	1	2	0	C	1	1	1167	1	poli_8sides 5_whiteLine3.jpg	Long_s10_cut2_l_mono_resampled.wav
4	86	4	4	2	I	2	0	845	1	poli_8sides 10_whiteLine3.jpg	Long_b01_cut2_L_mono_resampled.wav
4	87	3	4	2	I	1	0	794	0	poli_8sides 11_whiteLine3.jpg	Long_b01_cut2_L_mono_resampled.wav
4	88	2	2	1	C	1	0	1428	0	poli_8sides 17_whiteLine3.jpg	Long_s10_cut2_l_mono_resampled.wav
4	89	4	3	2	I	2	0	1290	1	poli_8sides 10_whiteLine3.jpg	Long_e17_cut2_mono_resampled.wav
4	90	2	2	1	C	2	1	1030	1	poli_8sides 17_whiteLine3.jpg	Long_s10_cut2_l_mono_resampled.wav
4	91	1	2	0	C	1	1	1183	1	poli_8sides 5_whiteLine3.jpg	Long_s10_cut2_l_mono_resampled.wav
4	92	3	3	2	I	1	0	975	0	poli_8sides 11_whiteLine3.jpg	Long_e17_cut2_mono_resampled.wav
4	93	4	4	2	I	2	0	825	0	poli_8sides 10_whiteLine3.jpg	Long_b01_cut2_L_mono_resampled.wav
4	94	3	4	2	I	1	0	690	0	poli_8sides 11_whiteLine3.jpg	Long_b01_cut2_L_mono_resampled.wav
4	95	1	1	1	C	1	0	1446	0	poli_8sides 5_whiteLine3.jpg	Long_e24_cut1_mono_resampled.wav
4	96	2	1	0	C	1	1	666	1	poli_8sides 17_whiteLine3.jpg	Long_e24_cut1_mono_resampled.wav
4	97	4	4	2	I	2	0	896	0	poli_8sides 10_whiteLine3.jpg	Long_b01_cut2_L_mono_resampled.wav
4	98	1	2	0	C	1	1	1056	1	poli_8sides 5_whiteLine3.jpg	Long_s10_cut2_l_mono_resampled.wav
4	99	3	4	2	I	2	0	1860	1	poli_8sides 11_whiteLine3.jpg	Long_b01_cut2_L_mono_resampled.wav
4	100	2	1	0	C	1	1	692	1	poli_8sides 17_whiteLine3.jpg	Long_e24_cut1_mono_resampled.wav
4	101	1	1	1	C	2	1	712	1	poli_8sides 5_whiteLine3.jpg	Long_e24_cut1_mono_resampled.wav
4	102	2	2	1	C	2	1	963	1	poli_8sides 17_whiteLine3.jpg	Long_s10_cut2_l_mono_resampled.wav
4	103	4	3	2	I	2	0	813	1	poli_8sides 10_whiteLine3.jpg	Long_e17_cut2_mono_resampled.wav
4	104	3	3	2	I	1	0	820	1	poli_8sides 11_whiteLine3.jpg	Long_e17_cut2_mono_resampled.wav
4	105	4	3	2	I	2	0	786	1	poli_8sides 10_whiteLine3.jpg	Long_e17_cut2_mono_resampled.wav
4	106	1	2	0	C	1	1	1047	1	poli_8sides 5_whiteLine3.jpg	Long_s10_cut2_l_mono_resampled.wav
4	107	3	3	2	I	1	0	1284	1	poli_8sides 11_whiteLine3.jpg	Long_e17_cut2_mono_resampled.wav
4	108	2	2	1	C	1	0	982	0	poli_8sides 17_whiteLine3.jpg	Long_s10_cut2_l_mono_resampled.wav
4	109	3	4	2	I	1	0	851	0	poli_8sides 11_whiteLine3.jpg	Long_b01_cut2_L_mono_resampled.wav
4	110	2	1	0	C	1	1	779	1	poli_8sides 17_whiteLine3.jpg	Long_e24_cut1_mono_resampled.wav
4	111	4	4	2	I	2	0	988	0	poli_8sides 10_whiteLine3.jpg	Long_b01_cut2_L_mono_resampled.wav
4	112	1	1	1	C	2	1	1367	1	poli_8sides 5_whiteLine3.jpg	Long_e24_cut1_mono_resampled.wav
4	113	2	1	0	C	1	1	925	1	poli_8sides 17_whiteLine3.jpg	Long_e24_cut1_mono_resampled.wav
4	114	4	4	2	I	2	0	1099	0	poli_8sides 10_whiteLine3.jpg	Long_b01_cut2_L_mono_resampled.wav
4	115	3	4	2	I	1	0	707	1	poli_8sides 11_whiteLine3.jpg	Long_b01_cut2_L_mono_resampled.wav
4	116	1	2	0	C	1	1	1366	1	poli_8sides 5_whiteLine3.jpg	Long_s10_cut2_l_mono_resampled.wav
4	117	4	3	2	I	2	0	1348	1	poli_8sides 10_whiteLine3.jpg	Long_e17_cut2_mono_resampled.wav
4	118	2	2	1	C	2	1	1868	1	poli_8sides 17_whiteLine3.jpg	Long_s10_cut2_l_mono_resampled.wav
4	119	3	3	2	I	1	0	1335	0	poli_8sides 11_whiteLine3.jpg	Long_e17_cut2_mono_resampled.wav
4	120	1	1	1	C	2	1	1533	1	poli_8sides 5_whiteLine3.jpg	Long_e24_cut1_mono_resampled.wav
4	121	3	3	2	I	1	0	1663	1	poli_8sides 11_whiteLine3.jpg	Long_e17_cut2_mono_resampled.wav
4	122	4	3	2	I	1	0	650	0	poli_8sides 10_whiteLine3.jpg	Long_e17_cut2_mono_resampled.wav
4	123	1	1	1	C	0	0	0	0	poli_8sides 5_whiteLine3.jpg	Long_e24_cut1_mono_resampled.wav
4	124	2	2	1	C	2	1	937	1	poli_8sides 17_whiteLine3.jpg	Long_s10_cut2_l_mono_resampled.wav
4	125	4	4	2	I	2	0	1345	0	poli_8sides 10_whiteLine3.jpg	Long_b01_cut2_L_mono_resampled.wav
4	126	3	4	2	I	1	0	1352	1	poli_8sides 11_whiteLine3.jpg	Long_b01_cut2_L_mono_resampled.wav
4	127	1	2	0	C	1	1	1477	1	poli_8sides 5_whiteLine3.jpg	Long_s10_cut2_l_mono_resampled.wav
4	128	2	1	0	C	1	1	966	1	poli_8sides 17_whiteLine3.jpg	Long_e24_cut1_mono_resampled.wav
4	129	3	3	2	I	1	0	827	1	poli_8sides 11_whiteLine3.jpg	Long_e17_cut2_mono_resampled.wav
4	130	2	1	0	C	1	1	1693	1	poli_8sides 17_whiteLine3.jpg	Long_e24_cut1_mono_resampled.wav
4	131	1	2	0	C	2	0	1798	0	poli_8sides 5_whiteLine3.jpg	Long_s10_cut2_l_mono_resampled.wav
4	132	4	3	2	I	2	0	1016	0	poli_8sides 10_whiteLine3.jpg	Long_e17_cut2_mono_resampled.wav
4	133	1	1	1	C	2	1	1246	1	poli_8sides 5_whiteLine3.jpg	Long_e24_cut1_mono_resampled.wav
4	134	4	4	2	I	2	0	1013	0	poli_8sides 10_whiteLine3.jpg	Long_b01_cut2_L_mono_resampled.wav
4	135	2	2	1	C	2	1	887	1	poli_8sides 17_whiteLine3.jpg	Long_s10_cut2_l_mono_resampled.wav
4	136	3	4	2	I	1	0	1099	0	poli_8sides 11_whiteLine3.jpg	Long_b01_cut2_L_mono_resampled.wav
4	137	4	4	2	I	2	0	835	0	poli_8sides 10_whiteLine3.jpg	Long_b01_cut2_L_mono_resampled.wav
4	138	2	1	0	C	2	0	950	0	poli_8sides 17_whiteLine3.jpg	Long_e24_cut1_mono_resampled.wav
4	139	1	1	1	C	2	1	836	1	poli_8sides 5_whiteLine3.jpg	Long_e24_cut1_mono_resampled.wav
4	140	3	4	2	I	1	0	674	0	poli_8sides 11_whiteLine3.jpg	Long_b01_cut2_L_mono_resampled.wav
4	141	2	2	1	C	2	1	920	1	poli_8sides 17_whiteLine3.jpg	Long_s10_cut2_l_mono_resampled.wav
4	142	3	3	2	I	1	0	1150	0	poli_8sides 11_whiteLine3.jpg	Long_e17_cut2_mono_resampled.wav
4	143	1	2	0	C	1	1	823	1	poli_8sides 5_whiteLine3.jpg	Long_s10_cut2_l_mono_resampled.wav
4	144	4	3	2	I	2	0	893	1	poli_8sides 10_whiteLine3.jpg	Long_e17_cut2_mono_resampled.wav
4	145	3	3	2	I	1	0	795	1	poli_8sides 11_whiteLine3.jpg	Long_e17_cut2_mono_resampled.wav
4	146	2	1	0	C	1	1	804	1	poli_8sides 17_whiteLine3.jpg	Long_e24_cut1_mono_resampled.wav
4	147	1	1	1	C	2	1	659	1	poli_8sides 5_whiteLine3.jpg	Long_e24_cut1_mono_resampled.wav
4	148	4	3	2	I	2	0	865	1	poli_8sides 10_whiteLine3.jpg	Long_e17_cut2_mono_resampled.wav
4	149	1	2	0	C	2	0	1074	0	poli_8sides 5_whiteLine3.jpg	Long_s10_cut2_l_mono_resampled.wav
4	150	4	4	2	I	2	0	743	0	poli_8sides 10_whiteLine3.jpg	Long_b01_cut2_L_mono_resampled.wav
4	151	3	4	2	I	1	0	1093	1	poli_8sides 11_whiteLine3.jpg	Long_b01_cut2_L_mono_resampled.wav
4	152	2	2	1	C	1	0	829	0	poli_8sides 17_whiteLine3.jpg	Long_s10_cut2_l_mono_resampled.wav
4	153	3	3	2	I	1	0	1060	0	poli_8sides 11_whiteLine3.jpg	Long_e17_cut2_mono_resampled.wav
4	154	2	1	0	C	2	0	600	0	poli_8sides 17_whiteLine3.jpg	Long_e24_cut1_mono_resampled.wav
4	155	4	4	2	I	2	0	1148	0	poli_8sides 10_whiteLine3.jpg	Long_b01_cut2_L_mono_resampled.wav
4	156	1	1	1	C	2	1	878	1	poli_8sides 5_whiteLine3.jpg	Long_e24_cut1_mono_resampled.wav
4	157	3	4	2	I	1	0	1056	0	poli_8sides 11_whiteLine3.jpg	Long_b01_cut2_L_mono_resampled.wav
4	158	2	2	1	C	2	1	1243	1	poli_8sides 17_whiteLine3.jpg	Long_s10_cut2_l_mono_resampled.wav
4	159	1	2	0	C	1	1	1141	1	poli_8sides 5_whiteLine3.jpg	Long_s10_cut2_l_mono_resampled.wav
4	160	4	3	2	I	2	0	835	1	poli_8sides 10_whiteLine3.jpg	Long_e17_cut2_mono_resampled.wav
4	161	2	2	1	C	2	1	1074	1	poli_8sides 17_whiteLine3.jpg	Long_s10_cut2_l_mono_resampled.wav
4	162	4	3	2	I	2	0	1144	0	poli_8sides 10_whiteLine3.jpg	Long_e17_cut2_mono_resampled.wav
4	163	3	4	2	I	1	0	779	1	poli_8sides 11_whiteLine3.jpg	Long_b01_cut2_L_mono_resampled.wav
4	164	1	1	1	C	2	1	1062	1	poli_8sides 5_whiteLine3.jpg	Long_e24_cut1_mono_resampled.wav
4	165	2	1	0	C	1	1	780	1	poli_8sides 17_whiteLine3.jpg	Long_e24_cut1_mono_resampled.wav
4	166	4	4	2	I	2	0	932	0	poli_8sides 10_whiteLine3.jpg	Long_b01_cut2_L_mono_resampled.wav
4	167	1	2	0	C	1	1	1070	1	poli_8sides 5_whiteLine3.jpg	Long_s10_cut2_l_mono_resampled.wav
4	168	3	3	2	I	1	0	1042	0	poli_8sides 11_whiteLine3.jpg	Long_e17_cut2_mono_resampled.wav
4	169	2	1	0	C	1	1	1555	1	poli_8sides 17_whiteLine3.jpg	Long_e24_cut1_mono_resampled.wav
4	170	1	1	1	C	2	1	950	1	poli_8sides 5_whiteLine3.jpg	Long_e24_cut1_mono_resampled.wav
4	171	4	4	2	I	2	0	1036	1	poli_8sides 10_whiteLine3.jpg	Long_b01_cut2_L_mono_resampled.wav
4	172	3	3	2	I	2	0	951	1	poli_8sides 11_whiteLine3.jpg	Long_e17_cut2_mono_resampled.wav
4	173	2	2	1	C	1	0	810	0	poli_8sides 17_whiteLine3.jpg	Long_s10_cut2_l_mono_resampled.wav
4	174	4	3	2	I	2	0	1068	1	poli_8sides 10_whiteLine3.jpg	Long_e17_cut2_mono_resampled.wav
4	175	3	4	2	I	2	0	1071	1	poli_8sides 11_whiteLine3.jpg	Long_b01_cut2_L_mono_resampled.wav
4	176	1	2	0	C	1	1	1009	1	poli_8sides 5_whiteLine3.jpg	Long_s10_cut2_l_mono_resampled.wav
4	177	3	4	2	I	2	0	969	1	poli_8sides 11_whiteLine3.jpg	Long_b01_cut2_L_mono_resampled.wav
4	178	1	1	1	C	2	1	1620	1	poli_8sides 5_whiteLine3.jpg	Long_e24_cut1_mono_resampled.wav
4	179	2	1	0	C	1	1	1274	1	poli_8sides 17_whiteLine3.jpg	Long_e24_cut1_mono_resampled.wav
4	180	4	4	2	I	2	0	1741	1	poli_8sides 10_whiteLine3.jpg	Long_b01_cut2_L_mono_resampled.wav
4	181	1	2	0	C	1	1	1024	1	poli_8sides 5_whiteLine3.jpg	Long_s10_cut2_l_mono_resampled.wav
4	182	2	2	1	C	2	1	906	1	poli_8sides 17_whiteLine3.jpg	Long_s10_cut2_l_mono_resampled.wav
4	183	4	3	2	I	2	0	1092	1	poli_8sides 10_whiteLine3.jpg	Long_e17_cut2_mono_resampled.wav
4	184	3	3	2	I	2	0	775	1	poli_8sides 11_whiteLine3.jpg	Long_e17_cut2_mono_resampled.wav
4	185	1	2	0	C	1	1	1199	1	poli_8sides 5_whiteLine3.jpg	Long_s10_cut2_l_mono_resampled.wav
4	186	3	4	2	I	2	0	1617	0	poli_8sides 11_whiteLine3.jpg	Long_b01_cut2_L_mono_resampled.wav
4	187	4	3	2	I	2	0	818	1	poli_8sides 10_whiteLine3.jpg	Long_e17_cut2_mono_resampled.wav
4	188	2	2	1	C	1	0	826	0	poli_8sides 17_whiteLine3.jpg	Long_s10_cut2_l_mono_resampled.wav
4	189	3	3	2	I	1	0	919	0	poli_8sides 11_whiteLine3.jpg	Long_e17_cut2_mono_resampled.wav
4	190	4	4	2	I	2	0	1285	0	poli_8sides 10_whiteLine3.jpg	Long_b01_cut2_L_mono_resampled.wav
4	191	1	1	1	C	1	0	1219	0	poli_8sides 5_whiteLine3.jpg	Long_e24_cut1_mono_resampled.wav
4	192	2	1	0	C	1	1	661	1	poli_8sides 17_whiteLine3.jpg	Long_e24_cut1_mono_resampled.wav
4	193	1	1	1	C	1	0	771	0	poli_8sides 5_whiteLine3.jpg	Long_e24_cut1_mono_resampled.wav
4	194	3	3	2	I	1	0	979	1	poli_8sides 11_whiteLine3.jpg	Long_e17_cut2_mono_resampled.wav
4	195	4	4	2	I	2	0	1970	0	poli_8sides 10_whiteLine3.jpg	Long_b01_cut2_L_mono_resampled.wav
4	196	2	1	0	C	1	1	1449	1	poli_8sides 17_whiteLine3.jpg	Long_e24_cut1_mono_resampled.wav
4	197	1	2	0	C	1	1	891	1	poli_8sides 5_whiteLine3.jpg	Long_s10_cut2_l_mono_resampled.wav
4	198	4	3	2	I	2	0	846	1	poli_8sides 10_whiteLine3.jpg	Long_e17_cut2_mono_resampled.wav
4	199	3	4	2	I	1	0	923	0	poli_8sides 11_whiteLine3.jpg	Long_b01_cut2_L_mono_resampled.wav
4	200	2	2	1	C	2	1	1348	1	poli_8sides 17_whiteLine3.jpg	Long_s10_cut2_l_mono_resampled.wav
