block	trial	Vstim	Astim	match	C/I	resp	result	RT	fb	V-file	A-file
RL

0	1	2	3	1	C	1	1	1487	1	poli_8sides 23_whiteLine3.jpg	Practice1_b27_cut1_mono_resampled.wav
0	2	1	2	0	C	1	0	876	0	poli_8sides 21_whiteLine3.jpg	Practice3_b26_cut1_mono_resampled.wav
0	3	2	4	0	C	1	0	1511	0	poli_8sides 23_whiteLine3.jpg	Practice4_b26_mono_resampled.wav
0	4	1	1	1	C	1	1	1121	1	poli_8sides 21_whiteLine3.jpg	Practice2_b27_cut2_mono_resampled.wav
0	5	2	3	1	C	0	0	0	0	poli_8sides 23_whiteLine3.jpg	Practice1_b27_cut1_mono_resampled.wav
0	6	2	4	0	C	1	0	862	0	poli_8sides 23_whiteLine3.jpg	Practice4_b26_mono_resampled.wav
0	7	1	2	0	C	1	0	1489	0	poli_8sides 21_whiteLine3.jpg	Practice3_b26_cut1_mono_resampled.wav
0	8	1	1	1	C	1	1	1185	1	poli_8sides 21_whiteLine3.jpg	Practice2_b27_cut2_mono_resampled.wav
0	9	2	4	0	C	1	0	1336	0	poli_8sides 23_whiteLine3.jpg	Practice4_b26_mono_resampled.wav
0	10	1	2	0	C	2	1	1621	1	poli_8sides 21_whiteLine3.jpg	Practice3_b26_cut1_mono_resampled.wav
0	11	2	3	1	C	1	1	910	1	poli_8sides 23_whiteLine3.jpg	Practice1_b27_cut1_mono_resampled.wav
0	12	1	1	1	C	1	1	1028	1	poli_8sides 21_whiteLine3.jpg	Practice2_b27_cut2_mono_resampled.wav
0	13	2	3	1	C	2	0	675	0	poli_8sides 23_whiteLine3.jpg	Practice1_b27_cut1_mono_resampled.wav
0	14	1	2	0	C	1	0	807	0	poli_8sides 21_whiteLine3.jpg	Practice3_b26_cut1_mono_resampled.wav
0	15	2	4	0	C	1	0	812	0	poli_8sides 23_whiteLine3.jpg	Practice4_b26_mono_resampled.wav
0	16	1	1	1	C	1	1	881	1	poli_8sides 21_whiteLine3.jpg	Practice2_b27_cut2_mono_resampled.wav
0	17	2	4	0	C	1	0	794	0	poli_8sides 23_whiteLine3.jpg	Practice4_b26_mono_resampled.wav
0	18	1	2	0	C	1	0	765	0	poli_8sides 21_whiteLine3.jpg	Practice3_b26_cut1_mono_resampled.wav
0	19	2	3	1	C	2	0	896	0	poli_8sides 23_whiteLine3.jpg	Practice1_b27_cut1_mono_resampled.wav
0	20	1	1	1	C	1	1	1090	1	poli_8sides 21_whiteLine3.jpg	Practice2_b27_cut2_mono_resampled.wav
0	21	2	3	1	C	2	0	651	0	poli_8sides 23_whiteLine3.jpg	Practice1_b27_cut1_mono_resampled.wav
0	22	2	4	0	C	1	0	884	0	poli_8sides 23_whiteLine3.jpg	Practice4_b26_mono_resampled.wav
0	23	1	2	0	C	2	1	725	1	poli_8sides 21_whiteLine3.jpg	Practice3_b26_cut1_mono_resampled.wav
0	24	1	1	1	C	1	1	662	1	poli_8sides 21_whiteLine3.jpg	Practice2_b27_cut2_mono_resampled.wav
0	25	2	3	1	C	2	0	501	0	poli_8sides 23_whiteLine3.jpg	Practice1_b27_cut1_mono_resampled.wav
0	26	1	1	1	C	1	1	724	1	poli_8sides 21_whiteLine3.jpg	Practice2_b27_cut2_mono_resampled.wav
0	27	1	2	0	C	2	1	495	1	poli_8sides 21_whiteLine3.jpg	Practice3_b26_cut1_mono_resampled.wav
0	28	2	4	0	C	1	0	700	0	poli_8sides 23_whiteLine3.jpg	Practice4_b26_mono_resampled.wav
0	29	2	4	0	C	1	0	771	0	poli_8sides 23_whiteLine3.jpg	Practice4_b26_mono_resampled.wav
0	30	1	1	1	C	1	1	644	1	poli_8sides 21_whiteLine3.jpg	Practice2_b27_cut2_mono_resampled.wav
avg_resp = 967
1	1	2	1	0	C	1	0	1253	0	poli_8sides 18_whiteLine3.jpg	MediumShort_b10_cut1_MS_mono_resampled.wav
1	2	4	3	2	I	1	0	1158	1	poli_8sides 16_whiteLine3.jpg	MediumShort_e22_cut1_mono_resampled.wav
1	3	1	2	0	C	1	0	1086	0	poli_8sides 9_whiteLine3.jpg	MediumShort_e16_cut1_mono_resampled.wav
1	4	3	4	2	I	1	0	927	1	poli_8sides 13_whiteLine3.jpg	MediumShort_b16_cut3_MS_mono_resampled.wav
1	5	4	4	2	I	1	0	966	1	poli_8sides 16_whiteLine3.jpg	MediumShort_b16_cut3_MS_mono_resampled.wav
1	6	3	3	2	I	1	0	848	0	poli_8sides 13_whiteLine3.jpg	MediumShort_e22_cut1_mono_resampled.wav
1	7	2	2	1	C	1	1	752	1	poli_8sides 18_whiteLine3.jpg	MediumShort_e16_cut1_mono_resampled.wav
1	8	1	1	1	C	1	1	772	1	poli_8sides 9_whiteLine3.jpg	MediumShort_b10_cut1_MS_mono_resampled.wav
1	9	4	3	2	I	1	0	1036	0	poli_8sides 16_whiteLine3.jpg	MediumShort_e22_cut1_mono_resampled.wav
1	10	3	3	2	I	1	0	831	1	poli_8sides 13_whiteLine3.jpg	MediumShort_e22_cut1_mono_resampled.wav
1	11	2	1	0	C	1	0	994	0	poli_8sides 18_whiteLine3.jpg	MediumShort_b10_cut1_MS_mono_resampled.wav
1	12	1	1	1	C	2	0	945	0	poli_8sides 9_whiteLine3.jpg	MediumShort_b10_cut1_MS_mono_resampled.wav
1	13	2	2	1	C	1	1	825	1	poli_8sides 18_whiteLine3.jpg	MediumShort_e16_cut1_mono_resampled.wav
1	14	1	2	0	C	1	0	704	0	poli_8sides 9_whiteLine3.jpg	MediumShort_e16_cut1_mono_resampled.wav
1	15	4	4	2	I	1	0	767	0	poli_8sides 16_whiteLine3.jpg	MediumShort_b16_cut3_MS_mono_resampled.wav
1	16	3	4	2	I	1	0	881	1	poli_8sides 13_whiteLine3.jpg	MediumShort_b16_cut3_MS_mono_resampled.wav
1	17	4	3	2	I	1	0	1168	0	poli_8sides 16_whiteLine3.jpg	MediumShort_e22_cut1_mono_resampled.wav
1	18	3	4	2	I	2	0	1137	0	poli_8sides 13_whiteLine3.jpg	MediumShort_b16_cut3_MS_mono_resampled.wav
1	19	2	1	0	C	2	1	1118	1	poli_8sides 18_whiteLine3.jpg	MediumShort_b10_cut1_MS_mono_resampled.wav
1	20	1	2	0	C	1	0	668	0	poli_8sides 9_whiteLine3.jpg	MediumShort_e16_cut1_mono_resampled.wav
1	21	4	4	2	I	1	0	788	1	poli_8sides 16_whiteLine3.jpg	MediumShort_b16_cut3_MS_mono_resampled.wav
1	22	1	1	1	C	2	0	745	0	poli_8sides 9_whiteLine3.jpg	MediumShort_b10_cut1_MS_mono_resampled.wav
1	23	3	3	2	I	1	0	1197	0	poli_8sides 13_whiteLine3.jpg	MediumShort_e22_cut1_mono_resampled.wav
1	24	2	2	1	C	2	0	635	0	poli_8sides 18_whiteLine3.jpg	MediumShort_e16_cut1_mono_resampled.wav
1	25	4	3	2	I	1	0	1209	0	poli_8sides 16_whiteLine3.jpg	MediumShort_e22_cut1_mono_resampled.wav
1	26	2	1	0	C	2	1	610	1	poli_8sides 18_whiteLine3.jpg	MediumShort_b10_cut1_MS_mono_resampled.wav
1	27	1	2	0	C	1	0	955	0	poli_8sides 9_whiteLine3.jpg	MediumShort_e16_cut1_mono_resampled.wav
1	28	3	4	2	I	2	0	1010	1	poli_8sides 13_whiteLine3.jpg	MediumShort_b16_cut3_MS_mono_resampled.wav
1	29	1	1	1	C	2	0	849	0	poli_8sides 9_whiteLine3.jpg	MediumShort_b10_cut1_MS_mono_resampled.wav
1	30	3	3	2	I	1	0	868	0	poli_8sides 13_whiteLine3.jpg	MediumShort_e22_cut1_mono_resampled.wav
1	31	2	2	1	C	1	1	1016	1	poli_8sides 18_whiteLine3.jpg	MediumShort_e16_cut1_mono_resampled.wav
1	32	4	4	2	I	2	0	835	0	poli_8sides 16_whiteLine3.jpg	MediumShort_b16_cut3_MS_mono_resampled.wav
1	33	1	1	1	C	1	1	822	1	poli_8sides 9_whiteLine3.jpg	MediumShort_b10_cut1_MS_mono_resampled.wav
1	34	2	2	1	C	2	0	633	0	poli_8sides 18_whiteLine3.jpg	MediumShort_e16_cut1_mono_resampled.wav
1	35	3	4	2	I	1	0	841	0	poli_8sides 13_whiteLine3.jpg	MediumShort_b16_cut3_MS_mono_resampled.wav
1	36	4	4	2	I	2	0	950	1	poli_8sides 16_whiteLine3.jpg	MediumShort_b16_cut3_MS_mono_resampled.wav
1	37	1	2	0	C	1	0	1004	0	poli_8sides 9_whiteLine3.jpg	MediumShort_e16_cut1_mono_resampled.wav
1	38	2	1	0	C	2	1	603	1	poli_8sides 18_whiteLine3.jpg	MediumShort_b10_cut1_MS_mono_resampled.wav
1	39	4	3	2	I	2	0	1173	0	poli_8sides 16_whiteLine3.jpg	MediumShort_e22_cut1_mono_resampled.wav
1	40	3	3	2	I	1	0	759	1	poli_8sides 13_whiteLine3.jpg	MediumShort_e22_cut1_mono_resampled.wav
1	41	1	2	0	C	1	0	1005	0	poli_8sides 9_whiteLine3.jpg	MediumShort_e16_cut1_mono_resampled.wav
1	42	4	3	2	I	2	0	899	0	poli_8sides 16_whiteLine3.jpg	MediumShort_e22_cut1_mono_resampled.wav
1	43	3	4	2	I	1	0	954	0	poli_8sides 13_whiteLine3.jpg	MediumShort_b16_cut3_MS_mono_resampled.wav
1	44	2	2	1	C	1	1	1329	1	poli_8sides 18_whiteLine3.jpg	MediumShort_e16_cut1_mono_resampled.wav
1	45	3	3	2	I	2	0	1402	1	poli_8sides 13_whiteLine3.jpg	MediumShort_e22_cut1_mono_resampled.wav
1	46	4	4	2	I	1	0	1276	0	poli_8sides 16_whiteLine3.jpg	MediumShort_b16_cut3_MS_mono_resampled.wav
1	47	2	1	0	C	2	1	812	1	poli_8sides 18_whiteLine3.jpg	MediumShort_b10_cut1_MS_mono_resampled.wav
1	48	1	1	1	C	1	1	714	1	poli_8sides 9_whiteLine3.jpg	MediumShort_b10_cut1_MS_mono_resampled.wav
1	49	2	2	1	C	1	1	766	1	poli_8sides 18_whiteLine3.jpg	MediumShort_e16_cut1_mono_resampled.wav
1	50	3	3	2	I	2	0	961	1	poli_8sides 13_whiteLine3.jpg	MediumShort_e22_cut1_mono_resampled.wav
1	51	4	4	2	I	2	0	932	1	poli_8sides 16_whiteLine3.jpg	MediumShort_b16_cut3_MS_mono_resampled.wav
1	52	1	1	1	C	2	0	820	0	poli_8sides 9_whiteLine3.jpg	MediumShort_b10_cut1_MS_mono_resampled.wav
1	53	3	4	2	I	2	0	1270	1	poli_8sides 13_whiteLine3.jpg	MediumShort_b16_cut3_MS_mono_resampled.wav
1	54	4	3	2	I	2	0	1003	0	poli_8sides 16_whiteLine3.jpg	MediumShort_e22_cut1_mono_resampled.wav
1	55	1	2	0	C	2	1	1259	1	poli_8sides 9_whiteLine3.jpg	MediumShort_e16_cut1_mono_resampled.wav
1	56	2	1	0	C	2	1	587	1	poli_8sides 18_whiteLine3.jpg	MediumShort_b10_cut1_MS_mono_resampled.wav
1	57	4	3	2	I	2	0	940	0	poli_8sides 16_whiteLine3.jpg	MediumShort_e22_cut1_mono_resampled.wav
1	58	1	2	0	C	2	1	929	1	poli_8sides 9_whiteLine3.jpg	MediumShort_e16_cut1_mono_resampled.wav
1	59	3	4	2	I	1	0	799	0	poli_8sides 13_whiteLine3.jpg	MediumShort_b16_cut3_MS_mono_resampled.wav
1	60	2	2	1	C	2	0	676	0	poli_8sides 18_whiteLine3.jpg	MediumShort_e16_cut1_mono_resampled.wav
1	61	1	1	1	C	1	1	1113	1	poli_8sides 9_whiteLine3.jpg	MediumShort_b10_cut1_MS_mono_resampled.wav
1	62	2	1	0	C	2	1	1066	1	poli_8sides 18_whiteLine3.jpg	MediumShort_b10_cut1_MS_mono_resampled.wav
1	63	4	4	2	I	1	0	1198	1	poli_8sides 16_whiteLine3.jpg	MediumShort_b16_cut3_MS_mono_resampled.wav
1	64	3	3	2	I	1	0	940	1	poli_8sides 13_whiteLine3.jpg	MediumShort_e22_cut1_mono_resampled.wav
1	65	1	2	0	C	1	0	886	0	poli_8sides 9_whiteLine3.jpg	MediumShort_e16_cut1_mono_resampled.wav
1	66	3	4	2	I	1	0	731	1	poli_8sides 13_whiteLine3.jpg	MediumShort_b16_cut3_MS_mono_resampled.wav
1	67	2	1	0	C	2	1	524	1	poli_8sides 18_whiteLine3.jpg	MediumShort_b10_cut1_MS_mono_resampled.wav
1	68	4	4	2	I	1	0	982	1	poli_8sides 16_whiteLine3.jpg	MediumShort_b16_cut3_MS_mono_resampled.wav
1	69	2	2	1	C	2	0	526	0	poli_8sides 18_whiteLine3.jpg	MediumShort_e16_cut1_mono_resampled.wav
1	70	4	3	2	I	2	0	1216	0	poli_8sides 16_whiteLine3.jpg	MediumShort_e22_cut1_mono_resampled.wav
1	71	3	3	2	I	1	0	1217	0	poli_8sides 13_whiteLine3.jpg	MediumShort_e22_cut1_mono_resampled.wav
1	72	1	1	1	C	1	1	924	1	poli_8sides 9_whiteLine3.jpg	MediumShort_b10_cut1_MS_mono_resampled.wav
1	73	2	2	1	C	1	1	707	1	poli_8sides 18_whiteLine3.jpg	MediumShort_e16_cut1_mono_resampled.wav
1	74	1	1	1	C	1	1	1259	1	poli_8sides 9_whiteLine3.jpg	MediumShort_b10_cut1_MS_mono_resampled.wav
1	75	4	3	2	I	2	0	902	1	poli_8sides 16_whiteLine3.jpg	MediumShort_e22_cut1_mono_resampled.wav
1	76	3	4	2	I	1	0	893	1	poli_8sides 13_whiteLine3.jpg	MediumShort_b16_cut3_MS_mono_resampled.wav
1	77	2	1	0	C	2	1	620	1	poli_8sides 18_whiteLine3.jpg	MediumShort_b10_cut1_MS_mono_resampled.wav
1	78	3	3	2	I	1	0	1472	0	poli_8sides 13_whiteLine3.jpg	MediumShort_e22_cut1_mono_resampled.wav
1	79	1	2	0	C	1	0	1299	0	poli_8sides 9_whiteLine3.jpg	MediumShort_e16_cut1_mono_resampled.wav
1	80	4	4	2	I	1	0	834	1	poli_8sides 16_whiteLine3.jpg	MediumShort_b16_cut3_MS_mono_resampled.wav
1	81	1	2	0	C	2	1	828	1	poli_8sides 9_whiteLine3.jpg	MediumShort_e16_cut1_mono_resampled.wav
1	82	4	4	2	I	1	0	1140	1	poli_8sides 16_whiteLine3.jpg	MediumShort_b16_cut3_MS_mono_resampled.wav
1	83	2	1	0	C	2	1	619	1	poli_8sides 18_whiteLine3.jpg	MediumShort_b10_cut1_MS_mono_resampled.wav
1	84	3	4	2	I	2	0	1258	0	poli_8sides 13_whiteLine3.jpg	MediumShort_b16_cut3_MS_mono_resampled.wav
1	85	2	2	1	C	2	0	618	0	poli_8sides 18_whiteLine3.jpg	MediumShort_e16_cut1_mono_resampled.wav
1	86	1	1	1	C	1	1	911	1	poli_8sides 9_whiteLine3.jpg	MediumShort_b10_cut1_MS_mono_resampled.wav
1	87	3	3	2	I	2	0	1332	0	poli_8sides 13_whiteLine3.jpg	MediumShort_e22_cut1_mono_resampled.wav
1	88	4	3	2	I	2	0	919	1	poli_8sides 16_whiteLine3.jpg	MediumShort_e22_cut1_mono_resampled.wav
1	89	1	1	1	C	1	1	1816	1	poli_8sides 9_whiteLine3.jpg	MediumShort_b10_cut1_MS_mono_resampled.wav
1	90	2	1	0	C	2	1	786	1	poli_8sides 18_whiteLine3.jpg	MediumShort_b10_cut1_MS_mono_resampled.wav
1	91	4	3	2	I	2	0	1314	0	poli_8sides 16_whiteLine3.jpg	MediumShort_e22_cut1_mono_resampled.wav
1	92	3	4	2	I	1	0	820	0	poli_8sides 13_whiteLine3.jpg	MediumShort_b16_cut3_MS_mono_resampled.wav
1	93	1	2	0	C	1	0	1260	0	poli_8sides 9_whiteLine3.jpg	MediumShort_e16_cut1_mono_resampled.wav
1	94	4	4	2	I	1	0	1223	1	poli_8sides 16_whiteLine3.jpg	MediumShort_b16_cut3_MS_mono_resampled.wav
1	95	2	2	1	C	1	1	1091	1	poli_8sides 18_whiteLine3.jpg	MediumShort_e16_cut1_mono_resampled.wav
1	96	3	3	2	I	1	0	1557	0	poli_8sides 13_whiteLine3.jpg	MediumShort_e22_cut1_mono_resampled.wav
1	97	2	1	0	C	2	1	854	1	poli_8sides 18_whiteLine3.jpg	MediumShort_b10_cut1_MS_mono_resampled.wav
1	98	3	3	2	I	2	0	1386	1	poli_8sides 13_whiteLine3.jpg	MediumShort_e22_cut1_mono_resampled.wav
1	99	1	2	0	C	1	0	1675	0	poli_8sides 9_whiteLine3.jpg	MediumShort_e16_cut1_mono_resampled.wav
1	100	4	3	2	I	1	0	1733	0	poli_8sides 16_whiteLine3.jpg	MediumShort_e22_cut1_mono_resampled.wav
1	101	2	2	1	C	1	1	1384	1	poli_8sides 18_whiteLine3.jpg	MediumShort_e16_cut1_mono_resampled.wav
1	102	4	4	2	I	1	0	833	0	poli_8sides 16_whiteLine3.jpg	MediumShort_b16_cut3_MS_mono_resampled.wav
1	103	1	1	1	C	1	1	1149	1	poli_8sides 9_whiteLine3.jpg	MediumShort_b10_cut1_MS_mono_resampled.wav
1	104	3	4	2	I	1	0	1346	0	poli_8sides 13_whiteLine3.jpg	MediumShort_b16_cut3_MS_mono_resampled.wav
1	105	4	4	2	I	2	0	1483	1	poli_8sides 16_whiteLine3.jpg	MediumShort_b16_cut3_MS_mono_resampled.wav
1	106	1	2	0	C	1	0	1499	0	poli_8sides 9_whiteLine3.jpg	MediumShort_e16_cut1_mono_resampled.wav
1	107	2	1	0	C	2	1	547	1	poli_8sides 18_whiteLine3.jpg	MediumShort_b10_cut1_MS_mono_resampled.wav
1	108	3	3	2	I	1	0	1300	1	poli_8sides 13_whiteLine3.jpg	MediumShort_e22_cut1_mono_resampled.wav
1	109	1	1	1	C	1	1	874	1	poli_8sides 9_whiteLine3.jpg	MediumShort_b10_cut1_MS_mono_resampled.wav
1	110	3	4	2	I	1	0	1604	0	poli_8sides 13_whiteLine3.jpg	MediumShort_b16_cut3_MS_mono_resampled.wav
1	111	2	2	1	C	1	1	832	1	poli_8sides 18_whiteLine3.jpg	MediumShort_e16_cut1_mono_resampled.wav
1	112	4	3	2	I	2	0	757	1	poli_8sides 16_whiteLine3.jpg	MediumShort_e22_cut1_mono_resampled.wav
1	113	3	3	2	I	1	0	1182	0	poli_8sides 13_whiteLine3.jpg	MediumShort_e22_cut1_mono_resampled.wav
1	114	1	2	0	C	1	0	922	0	poli_8sides 9_whiteLine3.jpg	MediumShort_e16_cut1_mono_resampled.wav
1	115	2	2	1	C	1	1	734	1	poli_8sides 18_whiteLine3.jpg	MediumShort_e16_cut1_mono_resampled.wav
1	116	4	4	2	I	2	0	794	1	poli_8sides 16_whiteLine3.jpg	MediumShort_b16_cut3_MS_mono_resampled.wav
1	117	3	4	2	I	1	0	824	0	poli_8sides 13_whiteLine3.jpg	MediumShort_b16_cut3_MS_mono_resampled.wav
1	118	4	3	2	I	2	0	799	1	poli_8sides 16_whiteLine3.jpg	MediumShort_e22_cut1_mono_resampled.wav
1	119	2	1	0	C	2	1	832	1	poli_8sides 18_whiteLine3.jpg	MediumShort_b10_cut1_MS_mono_resampled.wav
1	120	1	1	1	C	1	1	754	1	poli_8sides 9_whiteLine3.jpg	MediumShort_b10_cut1_MS_mono_resampled.wav
1	121	2	1	0	C	1	0	1182	0	poli_8sides 18_whiteLine3.jpg	MediumShort_b10_cut1_MS_mono_resampled.wav
1	122	3	3	2	I	1	0	1464	1	poli_8sides 13_whiteLine3.jpg	MediumShort_e22_cut1_mono_resampled.wav
1	123	1	1	1	C	1	1	997	1	poli_8sides 9_whiteLine3.jpg	MediumShort_b10_cut1_MS_mono_resampled.wav
1	124	4	4	2	I	1	0	1346	0	poli_8sides 16_whiteLine3.jpg	MediumShort_b16_cut3_MS_mono_resampled.wav
1	125	2	2	1	C	1	1	865	1	poli_8sides 18_whiteLine3.jpg	MediumShort_e16_cut1_mono_resampled.wav
1	126	1	2	0	C	1	0	1230	0	poli_8sides 9_whiteLine3.jpg	MediumShort_e16_cut1_mono_resampled.wav
1	127	4	3	2	I	2	0	974	1	poli_8sides 16_whiteLine3.jpg	MediumShort_e22_cut1_mono_resampled.wav
1	128	3	4	2	I	1	0	1363	1	poli_8sides 13_whiteLine3.jpg	MediumShort_b16_cut3_MS_mono_resampled.wav
1	129	1	1	1	C	1	1	906	1	poli_8sides 9_whiteLine3.jpg	MediumShort_b10_cut1_MS_mono_resampled.wav
1	130	4	4	2	I	2	0	1030	0	poli_8sides 16_whiteLine3.jpg	MediumShort_b16_cut3_MS_mono_resampled.wav
1	131	3	4	2	I	2	0	1001	1	poli_8sides 13_whiteLine3.jpg	MediumShort_b16_cut3_MS_mono_resampled.wav
1	132	2	2	1	C	1	1	1037	1	poli_8sides 18_whiteLine3.jpg	MediumShort_e16_cut1_mono_resampled.wav
1	133	4	3	2	I	2	0	759	1	poli_8sides 16_whiteLine3.jpg	MediumShort_e22_cut1_mono_resampled.wav
1	134	3	3	2	I	1	0	694	1	poli_8sides 13_whiteLine3.jpg	MediumShort_e22_cut1_mono_resampled.wav
1	135	2	1	0	C	2	1	707	1	poli_8sides 18_whiteLine3.jpg	MediumShort_b10_cut1_MS_mono_resampled.wav
1	136	1	2	0	C	2	1	977	1	poli_8sides 9_whiteLine3.jpg	MediumShort_e16_cut1_mono_resampled.wav
1	137	3	3	2	I	1	0	1455	0	poli_8sides 13_whiteLine3.jpg	MediumShort_e22_cut1_mono_resampled.wav
1	138	4	3	2	I	2	0	914	0	poli_8sides 16_whiteLine3.jpg	MediumShort_e22_cut1_mono_resampled.wav
1	139	1	2	0	C	1	0	1392	0	poli_8sides 9_whiteLine3.jpg	MediumShort_e16_cut1_mono_resampled.wav
1	140	2	2	1	C	1	1	1019	1	poli_8sides 18_whiteLine3.jpg	MediumShort_e16_cut1_mono_resampled.wav
1	141	3	4	2	I	2	0	1191	1	poli_8sides 13_whiteLine3.jpg	MediumShort_b16_cut3_MS_mono_resampled.wav
1	142	1	1	1	C	1	1	1174	1	poli_8sides 9_whiteLine3.jpg	MediumShort_b10_cut1_MS_mono_resampled.wav
1	143	2	1	0	C	2	1	721	1	poli_8sides 18_whiteLine3.jpg	MediumShort_b10_cut1_MS_mono_resampled.wav
1	144	4	4	2	I	2	0	620	0	poli_8sides 16_whiteLine3.jpg	MediumShort_b16_cut3_MS_mono_resampled.wav
1	145	3	4	2	I	2	0	1116	1	poli_8sides 13_whiteLine3.jpg	MediumShort_b16_cut3_MS_mono_resampled.wav
1	146	1	1	1	C	1	1	1115	1	poli_8sides 9_whiteLine3.jpg	MediumShort_b10_cut1_MS_mono_resampled.wav
1	147	4	4	2	I	2	0	1116	1	poli_8sides 16_whiteLine3.jpg	MediumShort_b16_cut3_MS_mono_resampled.wav
1	148	2	2	1	C	1	1	1167	1	poli_8sides 18_whiteLine3.jpg	MediumShort_e16_cut1_mono_resampled.wav
1	149	1	2	0	C	1	0	916	0	poli_8sides 9_whiteLine3.jpg	MediumShort_e16_cut1_mono_resampled.wav
1	150	4	3	2	I	2	0	923	0	poli_8sides 16_whiteLine3.jpg	MediumShort_e22_cut1_mono_resampled.wav
1	151	3	3	2	I	2	0	1200	0	poli_8sides 13_whiteLine3.jpg	MediumShort_e22_cut1_mono_resampled.wav
1	152	2	1	0	C	2	1	694	1	poli_8sides 18_whiteLine3.jpg	MediumShort_b10_cut1_MS_mono_resampled.wav
1	153	1	2	0	C	1	0	1306	0	poli_8sides 9_whiteLine3.jpg	MediumShort_e16_cut1_mono_resampled.wav
1	154	2	2	1	C	1	1	883	1	poli_8sides 18_whiteLine3.jpg	MediumShort_e16_cut1_mono_resampled.wav
1	155	4	4	2	I	2	0	820	0	poli_8sides 16_whiteLine3.jpg	MediumShort_b16_cut3_MS_mono_resampled.wav
1	156	3	3	2	I	1	0	1279	0	poli_8sides 13_whiteLine3.jpg	MediumShort_e22_cut1_mono_resampled.wav
1	157	2	1	0	C	2	1	914	1	poli_8sides 18_whiteLine3.jpg	MediumShort_b10_cut1_MS_mono_resampled.wav
1	158	1	1	1	C	1	1	1182	1	poli_8sides 9_whiteLine3.jpg	MediumShort_b10_cut1_MS_mono_resampled.wav
1	159	3	4	2	I	2	0	1119	0	poli_8sides 13_whiteLine3.jpg	MediumShort_b16_cut3_MS_mono_resampled.wav
1	160	4	3	2	I	2	0	1052	1	poli_8sides 16_whiteLine3.jpg	MediumShort_e22_cut1_mono_resampled.wav
1	161	2	2	1	C	2	0	759	0	poli_8sides 18_whiteLine3.jpg	MediumShort_e16_cut1_mono_resampled.wav
1	162	3	4	2	I	2	0	1703	1	poli_8sides 13_whiteLine3.jpg	MediumShort_b16_cut3_MS_mono_resampled.wav
1	163	4	4	2	I	1	0	873	1	poli_8sides 16_whiteLine3.jpg	MediumShort_b16_cut3_MS_mono_resampled.wav
1	164	1	1	1	C	1	1	1340	1	poli_8sides 9_whiteLine3.jpg	MediumShort_b10_cut1_MS_mono_resampled.wav
1	165	2	1	0	C	2	1	836	1	poli_8sides 18_whiteLine3.jpg	MediumShort_b10_cut1_MS_mono_resampled.wav
1	166	3	3	2	I	0	0	0	0	poli_8sides 13_whiteLine3.jpg	MediumShort_e22_cut1_mono_resampled.wav
1	167	1	2	0	C	1	0	895	0	poli_8sides 9_whiteLine3.jpg	MediumShort_e16_cut1_mono_resampled.wav
1	168	4	3	2	I	2	0	1094	0	poli_8sides 16_whiteLine3.jpg	MediumShort_e22_cut1_mono_resampled.wav
1	169	3	3	2	I	1	0	1414	1	poli_8sides 13_whiteLine3.jpg	MediumShort_e22_cut1_mono_resampled.wav
1	170	4	3	2	I	2	0	997	1	poli_8sides 16_whiteLine3.jpg	MediumShort_e22_cut1_mono_resampled.wav
1	171	1	2	0	C	2	1	892	1	poli_8sides 9_whiteLine3.jpg	MediumShort_e16_cut1_mono_resampled.wav
1	172	2	1	0	C	2	1	671	1	poli_8sides 18_whiteLine3.jpg	MediumShort_b10_cut1_MS_mono_resampled.wav
1	173	4	4	2	I	2	0	1210	1	poli_8sides 16_whiteLine3.jpg	MediumShort_b16_cut3_MS_mono_resampled.wav
1	174	2	2	1	C	2	0	724	0	poli_8sides 18_whiteLine3.jpg	MediumShort_e16_cut1_mono_resampled.wav
1	175	1	1	1	C	1	1	1072	1	poli_8sides 9_whiteLine3.jpg	MediumShort_b10_cut1_MS_mono_resampled.wav
1	176	3	4	2	I	1	0	1241	1	poli_8sides 13_whiteLine3.jpg	MediumShort_b16_cut3_MS_mono_resampled.wav
1	177	4	4	2	I	1	0	1119	1	poli_8sides 16_whiteLine3.jpg	MediumShort_b16_cut3_MS_mono_resampled.wav
1	178	1	2	0	C	2	1	1404	1	poli_8sides 9_whiteLine3.jpg	MediumShort_e16_cut1_mono_resampled.wav
1	179	3	4	2	I	1	0	1250	0	poli_8sides 13_whiteLine3.jpg	MediumShort_b16_cut3_MS_mono_resampled.wav
1	180	2	1	0	C	2	1	874	1	poli_8sides 18_whiteLine3.jpg	MediumShort_b10_cut1_MS_mono_resampled.wav
1	181	1	1	1	C	1	1	921	1	poli_8sides 9_whiteLine3.jpg	MediumShort_b10_cut1_MS_mono_resampled.wav
1	182	3	3	2	I	1	0	1256	1	poli_8sides 13_whiteLine3.jpg	MediumShort_e22_cut1_mono_resampled.wav
1	183	4	3	2	I	2	0	1367	0	poli_8sides 16_whiteLine3.jpg	MediumShort_e22_cut1_mono_resampled.wav
1	184	2	2	1	C	1	1	808	1	poli_8sides 18_whiteLine3.jpg	MediumShort_e16_cut1_mono_resampled.wav
1	185	4	4	2	I	2	0	1017	0	poli_8sides 16_whiteLine3.jpg	MediumShort_b16_cut3_MS_mono_resampled.wav
1	186	2	1	0	C	2	1	657	1	poli_8sides 18_whiteLine3.jpg	MediumShort_b10_cut1_MS_mono_resampled.wav
1	187	1	1	1	C	1	1	723	1	poli_8sides 9_whiteLine3.jpg	MediumShort_b10_cut1_MS_mono_resampled.wav
1	188	3	3	2	I	1	0	1267	0	poli_8sides 13_whiteLine3.jpg	MediumShort_e22_cut1_mono_resampled.wav
1	189	4	3	2	I	2	0	810	0	poli_8sides 16_whiteLine3.jpg	MediumShort_e22_cut1_mono_resampled.wav
1	190	1	2	0	C	1	0	1546	0	poli_8sides 9_whiteLine3.jpg	MediumShort_e16_cut1_mono_resampled.wav
1	191	3	4	2	I	2	0	904	0	poli_8sides 13_whiteLine3.jpg	MediumShort_b16_cut3_MS_mono_resampled.wav
1	192	2	2	1	C	1	1	738	1	poli_8sides 18_whiteLine3.jpg	MediumShort_e16_cut1_mono_resampled.wav
1	193	4	4	2	I	2	0	700	1	poli_8sides 16_whiteLine3.jpg	MediumShort_b16_cut3_MS_mono_resampled.wav
1	194	1	2	0	C	2	1	1045	1	poli_8sides 9_whiteLine3.jpg	MediumShort_e16_cut1_mono_resampled.wav
1	195	3	3	2	I	1	0	1139	0	poli_8sides 13_whiteLine3.jpg	MediumShort_e22_cut1_mono_resampled.wav
1	196	2	2	1	C	1	1	1369	1	poli_8sides 18_whiteLine3.jpg	MediumShort_e16_cut1_mono_resampled.wav
1	197	4	3	2	I	2	0	781	0	poli_8sides 16_whiteLine3.jpg	MediumShort_e22_cut1_mono_resampled.wav
1	198	3	4	2	I	1	0	1236	1	poli_8sides 13_whiteLine3.jpg	MediumShort_b16_cut3_MS_mono_resampled.wav
1	199	1	1	1	C	1	1	836	1	poli_8sides 9_whiteLine3.jpg	MediumShort_b10_cut1_MS_mono_resampled.wav
1	200	2	1	0	C	1	0	596	0	poli_8sides 18_whiteLine3.jpg	MediumShort_b10_cut1_MS_mono_resampled.wav
2	1	2	2	1	C	0	0	0	0	poli_8sides 11_whiteLine3.jpg	MediumLong_b23_cut4_ML_mono_resampled.wav
2	2	3	3	2	I	2	0	1652	0	poli_8sides 10_whiteLine3.jpg	Medium_e01_cut1_mono_resampled.wav
2	3	1	2	0	C	1	0	1025	0	poli_8sides 5_whiteLine3.jpg	MediumLong_b23_cut4_ML_mono_resampled.wav
2	4	4	4	2	I	2	0	784	0	poli_8sides 19_whiteLine3.jpg	MediumLong_e04_mono_resampled.wav
2	5	2	1	0	C	2	1	1268	1	poli_8sides 11_whiteLine3.jpg	Medium_e26_mono_resampled.wav
2	6	1	1	1	C	1	1	789	1	poli_8sides 5_whiteLine3.jpg	Medium_e26_mono_resampled.wav
2	7	3	4	2	I	1	0	822	0	poli_8sides 10_whiteLine3.jpg	MediumLong_e04_mono_resampled.wav
2	8	4	3	2	I	1	0	1371	1	poli_8sides 19_whiteLine3.jpg	Medium_e01_cut1_mono_resampled.wav
2	9	3	4	2	I	1	0	1228	0	poli_8sides 10_whiteLine3.jpg	MediumLong_e04_mono_resampled.wav
2	10	2	2	1	C	2	0	686	0	poli_8sides 11_whiteLine3.jpg	MediumLong_b23_cut4_ML_mono_resampled.wav
2	11	1	2	0	C	1	0	1065	0	poli_8sides 5_whiteLine3.jpg	MediumLong_b23_cut4_ML_mono_resampled.wav
2	12	4	3	2	I	2	0	1608	0	poli_8sides 19_whiteLine3.jpg	Medium_e01_cut1_mono_resampled.wav
2	13	2	1	0	C	2	1	617	1	poli_8sides 11_whiteLine3.jpg	Medium_e26_mono_resampled.wav
2	14	3	3	2	I	2	0	1132	0	poli_8sides 10_whiteLine3.jpg	Medium_e01_cut1_mono_resampled.wav
2	15	4	4	2	I	1	0	1007	0	poli_8sides 19_whiteLine3.jpg	MediumLong_e04_mono_resampled.wav
2	16	1	1	1	C	1	1	1247	1	poli_8sides 5_whiteLine3.jpg	Medium_e26_mono_resampled.wav
2	17	2	2	1	C	2	0	836	0	poli_8sides 11_whiteLine3.jpg	MediumLong_b23_cut4_ML_mono_resampled.wav
2	18	1	1	1	C	2	0	1016	0	poli_8sides 5_whiteLine3.jpg	Medium_e26_mono_resampled.wav
2	19	4	4	2	I	2	0	1609	0	poli_8sides 19_whiteLine3.jpg	MediumLong_e04_mono_resampled.wav
2	20	3	3	2	I	1	0	1060	0	poli_8sides 10_whiteLine3.jpg	Medium_e01_cut1_mono_resampled.wav
2	21	4	3	2	I	2	0	897	1	poli_8sides 19_whiteLine3.jpg	Medium_e01_cut1_mono_resampled.wav
2	22	2	1	0	C	2	1	976	1	poli_8sides 11_whiteLine3.jpg	Medium_e26_mono_resampled.wav
2	23	1	2	0	C	1	0	912	0	poli_8sides 5_whiteLine3.jpg	MediumLong_b23_cut4_ML_mono_resampled.wav
2	24	3	4	2	I	1	0	1308	0	poli_8sides 10_whiteLine3.jpg	MediumLong_e04_mono_resampled.wav
2	25	1	1	1	C	1	1	966	1	poli_8sides 5_whiteLine3.jpg	Medium_e26_mono_resampled.wav
2	26	4	3	2	I	2	0	788	1	poli_8sides 19_whiteLine3.jpg	Medium_e01_cut1_mono_resampled.wav
2	27	3	3	2	I	1	0	1215	0	poli_8sides 10_whiteLine3.jpg	Medium_e01_cut1_mono_resampled.wav
2	28	2	2	1	C	1	1	1350	1	poli_8sides 11_whiteLine3.jpg	MediumLong_b23_cut4_ML_mono_resampled.wav
2	29	3	4	2	I	2	0	914	0	poli_8sides 10_whiteLine3.jpg	MediumLong_e04_mono_resampled.wav
2	30	1	2	0	C	1	0	851	0	poli_8sides 5_whiteLine3.jpg	MediumLong_b23_cut4_ML_mono_resampled.wav
2	31	2	1	0	C	2	1	687	1	poli_8sides 11_whiteLine3.jpg	Medium_e26_mono_resampled.wav
2	32	4	4	2	I	1	0	1124	0	poli_8sides 19_whiteLine3.jpg	MediumLong_e04_mono_resampled.wav
2	33	2	1	0	C	1	0	1449	0	poli_8sides 11_whiteLine3.jpg	Medium_e26_mono_resampled.wav
2	34	3	3	2	I	0	0	0	0	poli_8sides 10_whiteLine3.jpg	Medium_e01_cut1_mono_resampled.wav
2	35	1	1	1	C	1	1	1738	1	poli_8sides 5_whiteLine3.jpg	Medium_e26_mono_resampled.wav
2	36	4	4	2	I	1	0	973	1	poli_8sides 19_whiteLine3.jpg	MediumLong_e04_mono_resampled.wav
2	37	1	2	0	C	1	0	1304	0	poli_8sides 5_whiteLine3.jpg	MediumLong_b23_cut4_ML_mono_resampled.wav
2	38	3	4	2	I	2	0	1381	1	poli_8sides 10_whiteLine3.jpg	MediumLong_e04_mono_resampled.wav
2	39	4	3	2	I	1	0	1328	0	poli_8sides 19_whiteLine3.jpg	Medium_e01_cut1_mono_resampled.wav
2	40	2	2	1	C	1	1	1125	1	poli_8sides 11_whiteLine3.jpg	MediumLong_b23_cut4_ML_mono_resampled.wav
2	41	4	4	2	I	1	0	1238	1	poli_8sides 19_whiteLine3.jpg	MediumLong_e04_mono_resampled.wav
2	42	1	2	0	C	2	1	842	1	poli_8sides 5_whiteLine3.jpg	MediumLong_b23_cut4_ML_mono_resampled.wav
2	43	3	3	2	I	1	0	972	1	poli_8sides 10_whiteLine3.jpg	Medium_e01_cut1_mono_resampled.wav
2	44	2	2	1	C	2	0	1304	0	poli_8sides 11_whiteLine3.jpg	MediumLong_b23_cut4_ML_mono_resampled.wav
2	45	1	1	1	C	2	0	682	0	poli_8sides 5_whiteLine3.jpg	Medium_e26_mono_resampled.wav
2	46	2	1	0	C	1	0	897	0	poli_8sides 11_whiteLine3.jpg	Medium_e26_mono_resampled.wav
2	47	4	3	2	I	1	0	1703	1	poli_8sides 19_whiteLine3.jpg	Medium_e01_cut1_mono_resampled.wav
2	48	3	4	2	I	2	0	824	1	poli_8sides 10_whiteLine3.jpg	MediumLong_e04_mono_resampled.wav
2	49	1	1	1	C	2	0	759	0	poli_8sides 5_whiteLine3.jpg	Medium_e26_mono_resampled.wav
2	50	4	4	2	I	2	0	1212	0	poli_8sides 19_whiteLine3.jpg	MediumLong_e04_mono_resampled.wav
2	51	2	1	0	C	2	1	1240	1	poli_8sides 11_whiteLine3.jpg	Medium_e26_mono_resampled.wav
2	52	3	3	2	I	1	0	1319	0	poli_8sides 10_whiteLine3.jpg	Medium_e01_cut1_mono_resampled.wav
2	53	2	2	1	C	1	1	1139	1	poli_8sides 11_whiteLine3.jpg	MediumLong_b23_cut4_ML_mono_resampled.wav
2	54	4	3	2	I	2	0	931	1	poli_8sides 19_whiteLine3.jpg	Medium_e01_cut1_mono_resampled.wav
2	55	3	4	2	I	2	0	1064	0	poli_8sides 10_whiteLine3.jpg	MediumLong_e04_mono_resampled.wav
2	56	1	2	0	C	2	1	951	1	poli_8sides 5_whiteLine3.jpg	MediumLong_b23_cut4_ML_mono_resampled.wav
2	57	3	4	2	I	2	0	1009	1	poli_8sides 10_whiteLine3.jpg	MediumLong_e04_mono_resampled.wav
2	58	4	4	2	I	1	0	832	1	poli_8sides 19_whiteLine3.jpg	MediumLong_e04_mono_resampled.wav
2	59	2	2	1	C	2	0	834	0	poli_8sides 11_whiteLine3.jpg	MediumLong_b23_cut4_ML_mono_resampled.wav
2	60	1	2	0	C	2	1	1013	1	poli_8sides 5_whiteLine3.jpg	MediumLong_b23_cut4_ML_mono_resampled.wav
2	61	4	3	2	I	1	0	1353	0	poli_8sides 19_whiteLine3.jpg	Medium_e01_cut1_mono_resampled.wav
2	62	1	1	1	C	2	0	770	0	poli_8sides 5_whiteLine3.jpg	Medium_e26_mono_resampled.wav
2	63	3	3	2	I	2	0	1151	1	poli_8sides 10_whiteLine3.jpg	Medium_e01_cut1_mono_resampled.wav
2	64	2	1	0	C	1	0	419	0	poli_8sides 11_whiteLine3.jpg	Medium_e26_mono_resampled.wav
2	65	4	3	2	I	1	0	1096	0	poli_8sides 19_whiteLine3.jpg	Medium_e01_cut1_mono_resampled.wav
2	66	2	1	0	C	1	0	1445	0	poli_8sides 11_whiteLine3.jpg	Medium_e26_mono_resampled.wav
2	67	1	1	1	C	2	0	794	0	poli_8sides 5_whiteLine3.jpg	Medium_e26_mono_resampled.wav
2	68	3	4	2	I	2	0	776	0	poli_8sides 10_whiteLine3.jpg	MediumLong_e04_mono_resampled.wav
2	69	4	4	2	I	2	0	996	0	poli_8sides 19_whiteLine3.jpg	MediumLong_e04_mono_resampled.wav
2	70	2	2	1	C	1	1	1186	1	poli_8sides 11_whiteLine3.jpg	MediumLong_b23_cut4_ML_mono_resampled.wav
2	71	1	2	0	C	2	1	801	1	poli_8sides 5_whiteLine3.jpg	MediumLong_b23_cut4_ML_mono_resampled.wav
2	72	3	3	2	I	2	0	1078	0	poli_8sides 10_whiteLine3.jpg	Medium_e01_cut1_mono_resampled.wav
2	73	4	3	2	I	1	0	885	1	poli_8sides 19_whiteLine3.jpg	Medium_e01_cut1_mono_resampled.wav
2	74	2	1	0	C	1	0	908	0	poli_8sides 11_whiteLine3.jpg	Medium_e26_mono_resampled.wav
2	75	1	1	1	C	1	1	1178	1	poli_8sides 5_whiteLine3.jpg	Medium_e26_mono_resampled.wav
2	76	3	3	2	I	1	0	1337	1	poli_8sides 10_whiteLine3.jpg	Medium_e01_cut1_mono_resampled.wav
2	77	4	4	2	I	1	0	1193	0	poli_8sides 19_whiteLine3.jpg	MediumLong_e04_mono_resampled.wav
2	78	2	2	1	C	2	0	1110	0	poli_8sides 11_whiteLine3.jpg	MediumLong_b23_cut4_ML_mono_resampled.wav
2	79	1	2	0	C	2	1	1317	1	poli_8sides 5_whiteLine3.jpg	MediumLong_b23_cut4_ML_mono_resampled.wav
2	80	3	4	2	I	2	0	1135	1	poli_8sides 10_whiteLine3.jpg	MediumLong_e04_mono_resampled.wav
2	81	1	1	1	C	2	0	725	0	poli_8sides 5_whiteLine3.jpg	Medium_e26_mono_resampled.wav
2	82	2	1	0	C	2	1	998	1	poli_8sides 11_whiteLine3.jpg	Medium_e26_mono_resampled.wav
2	83	3	4	2	I	1	0	1151	1	poli_8sides 10_whiteLine3.jpg	MediumLong_e04_mono_resampled.wav
2	84	4	4	2	I	1	0	1192	1	poli_8sides 19_whiteLine3.jpg	MediumLong_e04_mono_resampled.wav
2	85	2	2	1	C	2	0	929	0	poli_8sides 11_whiteLine3.jpg	MediumLong_b23_cut4_ML_mono_resampled.wav
2	86	1	2	0	C	2	1	630	1	poli_8sides 5_whiteLine3.jpg	MediumLong_b23_cut4_ML_mono_resampled.wav
2	87	3	3	2	I	1	0	991	0	poli_8sides 10_whiteLine3.jpg	Medium_e01_cut1_mono_resampled.wav
2	88	4	3	2	I	2	0	1706	0	poli_8sides 19_whiteLine3.jpg	Medium_e01_cut1_mono_resampled.wav
2	89	1	1	1	C	2	0	808	0	poli_8sides 5_whiteLine3.jpg	Medium_e26_mono_resampled.wav
2	90	2	2	1	C	1	1	1127	1	poli_8sides 11_whiteLine3.jpg	MediumLong_b23_cut4_ML_mono_resampled.wav
2	91	4	3	2	I	1	0	791	0	poli_8sides 19_whiteLine3.jpg	Medium_e01_cut1_mono_resampled.wav
2	92	3	4	2	I	2	0	1494	1	poli_8sides 10_whiteLine3.jpg	MediumLong_e04_mono_resampled.wav
2	93	2	1	0	C	2	1	750	1	poli_8sides 11_whiteLine3.jpg	Medium_e26_mono_resampled.wav
2	94	4	4	2	I	1	0	789	1	poli_8sides 19_whiteLine3.jpg	MediumLong_e04_mono_resampled.wav
2	95	3	3	2	I	1	0	1073	1	poli_8sides 10_whiteLine3.jpg	Medium_e01_cut1_mono_resampled.wav
2	96	1	2	0	C	2	1	956	1	poli_8sides 5_whiteLine3.jpg	MediumLong_b23_cut4_ML_mono_resampled.wav
2	97	3	3	2	I	1	0	1276	1	poli_8sides 10_whiteLine3.jpg	Medium_e01_cut1_mono_resampled.wav
2	98	2	1	0	C	1	0	1075	0	poli_8sides 11_whiteLine3.jpg	Medium_e26_mono_resampled.wav
2	99	4	4	2	I	1	0	848	0	poli_8sides 19_whiteLine3.jpg	MediumLong_e04_mono_resampled.wav
2	100	1	2	0	C	2	1	896	1	poli_8sides 5_whiteLine3.jpg	MediumLong_b23_cut4_ML_mono_resampled.wav
2	101	4	3	2	I	2	0	1243	1	poli_8sides 19_whiteLine3.jpg	Medium_e01_cut1_mono_resampled.wav
2	102	1	1	1	C	2	0	1190	0	poli_8sides 5_whiteLine3.jpg	Medium_e26_mono_resampled.wav
2	103	2	2	1	C	2	0	695	0	poli_8sides 11_whiteLine3.jpg	MediumLong_b23_cut4_ML_mono_resampled.wav
2	104	3	4	2	I	2	0	912	1	poli_8sides 10_whiteLine3.jpg	MediumLong_e04_mono_resampled.wav
2	105	1	1	1	C	2	0	894	0	poli_8sides 5_whiteLine3.jpg	Medium_e26_mono_resampled.wav
2	106	3	4	2	I	2	0	897	0	poli_8sides 10_whiteLine3.jpg	MediumLong_e04_mono_resampled.wav
2	107	2	2	1	C	2	0	756	0	poli_8sides 11_whiteLine3.jpg	MediumLong_b23_cut4_ML_mono_resampled.wav
2	108	4	4	2	I	1	0	1622	0	poli_8sides 19_whiteLine3.jpg	MediumLong_e04_mono_resampled.wav
2	109	1	2	0	C	2	1	1025	1	poli_8sides 5_whiteLine3.jpg	MediumLong_b23_cut4_ML_mono_resampled.wav
2	110	2	1	0	C	2	1	743	1	poli_8sides 11_whiteLine3.jpg	Medium_e26_mono_resampled.wav
2	111	4	3	2	I	2	0	1065	1	poli_8sides 19_whiteLine3.jpg	Medium_e01_cut1_mono_resampled.wav
2	112	3	3	2	I	1	0	855	0	poli_8sides 10_whiteLine3.jpg	Medium_e01_cut1_mono_resampled.wav
2	113	4	3	2	I	2	0	915	1	poli_8sides 19_whiteLine3.jpg	Medium_e01_cut1_mono_resampled.wav
2	114	2	2	1	C	2	0	976	0	poli_8sides 11_whiteLine3.jpg	MediumLong_b23_cut4_ML_mono_resampled.wav
2	115	1	2	0	C	2	1	692	1	poli_8sides 5_whiteLine3.jpg	MediumLong_b23_cut4_ML_mono_resampled.wav
2	116	3	4	2	I	2	0	1160	1	poli_8sides 10_whiteLine3.jpg	MediumLong_e04_mono_resampled.wav
2	117	4	4	2	I	1	0	1222	1	poli_8sides 19_whiteLine3.jpg	MediumLong_e04_mono_resampled.wav
2	118	1	1	1	C	1	1	1742	1	poli_8sides 5_whiteLine3.jpg	Medium_e26_mono_resampled.wav
2	119	2	1	0	C	2	1	985	1	poli_8sides 11_whiteLine3.jpg	Medium_e26_mono_resampled.wav
2	120	3	3	2	I	1	0	1604	0	poli_8sides 10_whiteLine3.jpg	Medium_e01_cut1_mono_resampled.wav
2	121	2	2	1	C	2	0	1599	0	poli_8sides 11_whiteLine3.jpg	MediumLong_b23_cut4_ML_mono_resampled.wav
2	122	4	4	2	I	1	0	1595	1	poli_8sides 19_whiteLine3.jpg	MediumLong_e04_mono_resampled.wav
2	123	1	2	0	C	2	1	1118	1	poli_8sides 5_whiteLine3.jpg	MediumLong_b23_cut4_ML_mono_resampled.wav
2	124	3	4	2	I	2	0	837	1	poli_8sides 10_whiteLine3.jpg	MediumLong_e04_mono_resampled.wav
2	125	1	1	1	C	2	0	834	0	poli_8sides 5_whiteLine3.jpg	Medium_e26_mono_resampled.wav
2	126	3	3	2	I	1	0	1370	1	poli_8sides 10_whiteLine3.jpg	Medium_e01_cut1_mono_resampled.wav
2	127	4	3	2	I	1	0	1218	0	poli_8sides 19_whiteLine3.jpg	Medium_e01_cut1_mono_resampled.wav
2	128	2	1	0	C	2	1	809	1	poli_8sides 11_whiteLine3.jpg	Medium_e26_mono_resampled.wav
2	129	4	4	2	I	1	0	863	0	poli_8sides 19_whiteLine3.jpg	MediumLong_e04_mono_resampled.wav
2	130	2	2	1	C	2	0	792	0	poli_8sides 11_whiteLine3.jpg	MediumLong_b23_cut4_ML_mono_resampled.wav
2	131	1	2	0	C	2	1	676	1	poli_8sides 5_whiteLine3.jpg	MediumLong_b23_cut4_ML_mono_resampled.wav
2	132	3	4	2	I	2	0	907	0	poli_8sides 10_whiteLine3.jpg	MediumLong_e04_mono_resampled.wav
2	133	2	1	0	C	2	1	1443	1	poli_8sides 11_whiteLine3.jpg	Medium_e26_mono_resampled.wav
2	134	1	1	1	C	1	1	1114	1	poli_8sides 5_whiteLine3.jpg	Medium_e26_mono_resampled.wav
2	135	3	3	2	I	2	0	1072	1	poli_8sides 10_whiteLine3.jpg	Medium_e01_cut1_mono_resampled.wav
2	136	4	3	2	I	1	0	1289	1	poli_8sides 19_whiteLine3.jpg	Medium_e01_cut1_mono_resampled.wav
2	137	2	2	1	C	1	1	1553	1	poli_8sides 11_whiteLine3.jpg	MediumLong_b23_cut4_ML_mono_resampled.wav
2	138	4	4	2	I	1	0	1122	1	poli_8sides 19_whiteLine3.jpg	MediumLong_e04_mono_resampled.wav
2	139	1	1	1	C	2	0	770	0	poli_8sides 5_whiteLine3.jpg	Medium_e26_mono_resampled.wav
2	140	3	4	2	I	2	0	1192	0	poli_8sides 10_whiteLine3.jpg	MediumLong_e04_mono_resampled.wav
2	141	4	3	2	I	2	0	988	1	poli_8sides 19_whiteLine3.jpg	Medium_e01_cut1_mono_resampled.wav
2	142	2	1	0	C	2	1	843	1	poli_8sides 11_whiteLine3.jpg	Medium_e26_mono_resampled.wav
2	143	1	2	0	C	1	0	829	0	poli_8sides 5_whiteLine3.jpg	MediumLong_b23_cut4_ML_mono_resampled.wav
2	144	3	3	2	I	1	0	1032	1	poli_8sides 10_whiteLine3.jpg	Medium_e01_cut1_mono_resampled.wav
2	145	4	4	2	I	1	0	1078	1	poli_8sides 19_whiteLine3.jpg	MediumLong_e04_mono_resampled.wav
2	146	2	2	1	C	2	0	944	0	poli_8sides 11_whiteLine3.jpg	MediumLong_b23_cut4_ML_mono_resampled.wav
2	147	3	4	2	I	2	0	1106	1	poli_8sides 10_whiteLine3.jpg	MediumLong_e04_mono_resampled.wav
2	148	1	2	0	C	2	1	840	1	poli_8sides 5_whiteLine3.jpg	MediumLong_b23_cut4_ML_mono_resampled.wav
2	149	3	3	2	I	1	0	1070	1	poli_8sides 10_whiteLine3.jpg	Medium_e01_cut1_mono_resampled.wav
2	150	1	1	1	C	2	0	714	0	poli_8sides 5_whiteLine3.jpg	Medium_e26_mono_resampled.wav
2	151	4	3	2	I	2	0	1070	0	poli_8sides 19_whiteLine3.jpg	Medium_e01_cut1_mono_resampled.wav
2	152	2	1	0	C	2	1	1440	1	poli_8sides 11_whiteLine3.jpg	Medium_e26_mono_resampled.wav
2	153	1	1	1	C	1	1	1048	1	poli_8sides 5_whiteLine3.jpg	Medium_e26_mono_resampled.wav
2	154	4	3	2	I	2	0	894	0	poli_8sides 19_whiteLine3.jpg	Medium_e01_cut1_mono_resampled.wav
2	155	3	4	2	I	2	0	957	1	poli_8sides 10_whiteLine3.jpg	MediumLong_e04_mono_resampled.wav
2	156	2	2	1	C	2	0	1522	0	poli_8sides 11_whiteLine3.jpg	MediumLong_b23_cut4_ML_mono_resampled.wav
2	157	3	3	2	I	1	0	1228	1	poli_8sides 10_whiteLine3.jpg	Medium_e01_cut1_mono_resampled.wav
2	158	4	4	2	I	1	0	1257	1	poli_8sides 19_whiteLine3.jpg	MediumLong_e04_mono_resampled.wav
2	159	2	1	0	C	1	0	1445	0	poli_8sides 11_whiteLine3.jpg	Medium_e26_mono_resampled.wav
2	160	1	2	0	C	2	1	652	1	poli_8sides 5_whiteLine3.jpg	MediumLong_b23_cut4_ML_mono_resampled.wav
2	161	2	1	0	C	1	0	908	0	poli_8sides 11_whiteLine3.jpg	Medium_e26_mono_resampled.wav
2	162	3	4	2	I	2	0	1080	0	poli_8sides 10_whiteLine3.jpg	MediumLong_e04_mono_resampled.wav
2	163	4	4	2	I	1	0	1412	0	poli_8sides 19_whiteLine3.jpg	MediumLong_e04_mono_resampled.wav
2	164	1	2	0	C	2	1	593	1	poli_8sides 5_whiteLine3.jpg	MediumLong_b23_cut4_ML_mono_resampled.wav
2	165	4	3	2	I	2	0	1095	0	poli_8sides 19_whiteLine3.jpg	Medium_e01_cut1_mono_resampled.wav
2	166	1	1	1	C	2	0	680	0	poli_8sides 5_whiteLine3.jpg	Medium_e26_mono_resampled.wav
2	167	3	3	2	I	2	0	1588	0	poli_8sides 10_whiteLine3.jpg	Medium_e01_cut1_mono_resampled.wav
2	168	2	2	1	C	2	0	940	0	poli_8sides 11_whiteLine3.jpg	MediumLong_b23_cut4_ML_mono_resampled.wav
2	169	1	2	0	C	2	1	785	1	poli_8sides 5_whiteLine3.jpg	MediumLong_b23_cut4_ML_mono_resampled.wav
2	170	4	4	2	I	1	0	1093	1	poli_8sides 19_whiteLine3.jpg	MediumLong_e04_mono_resampled.wav
2	171	3	3	2	I	1	0	914	1	poli_8sides 10_whiteLine3.jpg	Medium_e01_cut1_mono_resampled.wav
2	172	2	2	1	C	1	1	1108	1	poli_8sides 11_whiteLine3.jpg	MediumLong_b23_cut4_ML_mono_resampled.wav
2	173	1	1	1	C	2	0	830	0	poli_8sides 5_whiteLine3.jpg	Medium_e26_mono_resampled.wav
2	174	3	4	2	I	2	0	1103	0	poli_8sides 10_whiteLine3.jpg	MediumLong_e04_mono_resampled.wav
2	175	4	3	2	I	1	0	1595	1	poli_8sides 19_whiteLine3.jpg	Medium_e01_cut1_mono_resampled.wav
2	176	2	1	0	C	1	0	1165	0	poli_8sides 11_whiteLine3.jpg	Medium_e26_mono_resampled.wav
2	177	3	3	2	I	0	0	0	0	poli_8sides 10_whiteLine3.jpg	Medium_e01_cut1_mono_resampled.wav
2	178	4	3	2	I	1	0	1657	0	poli_8sides 19_whiteLine3.jpg	Medium_e01_cut1_mono_resampled.wav
2	179	1	1	1	C	2	0	880	0	poli_8sides 5_whiteLine3.jpg	Medium_e26_mono_resampled.wav
2	180	2	2	1	C	1	1	1078	1	poli_8sides 11_whiteLine3.jpg	MediumLong_b23_cut4_ML_mono_resampled.wav
2	181	4	4	2	I	1	0	1353	1	poli_8sides 19_whiteLine3.jpg	MediumLong_e04_mono_resampled.wav
2	182	3	4	2	I	1	0	1073	0	poli_8sides 10_whiteLine3.jpg	MediumLong_e04_mono_resampled.wav
2	183	2	1	0	C	1	0	1114	0	poli_8sides 11_whiteLine3.jpg	Medium_e26_mono_resampled.wav
2	184	1	2	0	C	1	0	1145	0	poli_8sides 5_whiteLine3.jpg	MediumLong_b23_cut4_ML_mono_resampled.wav
2	185	3	4	2	I	2	0	1418	0	poli_8sides 10_whiteLine3.jpg	MediumLong_e04_mono_resampled.wav
2	186	2	1	0	C	1	0	1163	0	poli_8sides 11_whiteLine3.jpg	Medium_e26_mono_resampled.wav
2	187	4	3	2	I	2	0	1099	0	poli_8sides 19_whiteLine3.jpg	Medium_e01_cut1_mono_resampled.wav
2	188	1	2	0	C	1	0	1108	0	poli_8sides 5_whiteLine3.jpg	MediumLong_b23_cut4_ML_mono_resampled.wav
2	189	4	4	2	I	1	0	1425	1	poli_8sides 19_whiteLine3.jpg	MediumLong_e04_mono_resampled.wav
2	190	1	1	1	C	2	0	995	0	poli_8sides 5_whiteLine3.jpg	Medium_e26_mono_resampled.wav
2	191	3	3	2	I	1	0	1193	0	poli_8sides 10_whiteLine3.jpg	Medium_e01_cut1_mono_resampled.wav
2	192	2	2	1	C	1	1	1186	1	poli_8sides 11_whiteLine3.jpg	MediumLong_b23_cut4_ML_mono_resampled.wav
2	193	4	4	2	I	1	0	1002	0	poli_8sides 19_whiteLine3.jpg	MediumLong_e04_mono_resampled.wav
2	194	2	1	0	C	1	0	1189	0	poli_8sides 11_whiteLine3.jpg	Medium_e26_mono_resampled.wav
2	195	3	3	2	I	1	0	1221	1	poli_8sides 10_whiteLine3.jpg	Medium_e01_cut1_mono_resampled.wav
2	196	1	2	0	C	1	0	1054	0	poli_8sides 5_whiteLine3.jpg	MediumLong_b23_cut4_ML_mono_resampled.wav
2	197	4	3	2	I	1	0	1284	0	poli_8sides 19_whiteLine3.jpg	Medium_e01_cut1_mono_resampled.wav
2	198	2	2	1	C	1	1	1193	1	poli_8sides 11_whiteLine3.jpg	MediumLong_b23_cut4_ML_mono_resampled.wav
2	199	1	1	1	C	2	0	868	0	poli_8sides 5_whiteLine3.jpg	Medium_e26_mono_resampled.wav
2	200	3	4	2	I	2	0	1274	1	poli_8sides 10_whiteLine3.jpg	MediumLong_e04_mono_resampled.wav
3	1	1	1	1	C	0	0	0	0	poli_8sides 7_whiteLine3.jpg	Short_b20_cut1_mono_resampled.wav
3	2	2	1	0	C	1	0	1006	0	poli_8sides 14_whiteLine3.jpg	Short_b20_cut1_mono_resampled.wav
3	3	3	4	2	I	1	0	1161	1	poli_8sides 15_whiteLine3.jpg	Short_b23_cut1_mono_resampled.wav
3	4	4	3	2	I	2	0	811	0	poli_8sides 17_whiteLine3.jpg	Short_b22_cut1_mono_resampled.wav
3	5	1	2	0	C	1	0	1500	0	poli_8sides 7_whiteLine3.jpg	Short_b09_cut1_mono_resampled.wav
3	6	4	4	2	I	1	0	916	1	poli_8sides 17_whiteLine3.jpg	Short_b23_cut1_mono_resampled.wav
3	7	2	2	1	C	1	1	698	1	poli_8sides 14_whiteLine3.jpg	Short_b09_cut1_mono_resampled.wav
3	8	3	3	2	I	1	0	876	1	poli_8sides 15_whiteLine3.jpg	Short_b22_cut1_mono_resampled.wav
3	9	4	4	2	I	2	0	1030	0	poli_8sides 17_whiteLine3.jpg	Short_b23_cut1_mono_resampled.wav
3	10	1	2	0	C	1	0	802	0	poli_8sides 7_whiteLine3.jpg	Short_b09_cut1_mono_resampled.wav
3	11	2	1	0	C	2	1	1306	1	poli_8sides 14_whiteLine3.jpg	Short_b20_cut1_mono_resampled.wav
3	12	3	3	2	I	1	0	1146	1	poli_8sides 15_whiteLine3.jpg	Short_b22_cut1_mono_resampled.wav
3	13	4	3	2	I	2	0	1041	0	poli_8sides 17_whiteLine3.jpg	Short_b22_cut1_mono_resampled.wav
3	14	1	1	1	C	1	1	647	1	poli_8sides 7_whiteLine3.jpg	Short_b20_cut1_mono_resampled.wav
3	15	2	2	1	C	1	1	792	1	poli_8sides 14_whiteLine3.jpg	Short_b09_cut1_mono_resampled.wav
3	16	3	4	2	I	1	0	1139	0	poli_8sides 15_whiteLine3.jpg	Short_b23_cut1_mono_resampled.wav
3	17	2	1	0	C	2	1	1026	1	poli_8sides 14_whiteLine3.jpg	Short_b20_cut1_mono_resampled.wav
3	18	4	3	2	I	2	0	992	0	poli_8sides 17_whiteLine3.jpg	Short_b22_cut1_mono_resampled.wav
3	19	3	3	2	I	1	0	738	0	poli_8sides 15_whiteLine3.jpg	Short_b22_cut1_mono_resampled.wav
3	20	1	2	0	C	1	0	959	0	poli_8sides 7_whiteLine3.jpg	Short_b09_cut1_mono_resampled.wav
3	21	2	2	1	C	1	1	1231	1	poli_8sides 14_whiteLine3.jpg	Short_b09_cut1_mono_resampled.wav
3	22	4	4	2	I	2	0	930	0	poli_8sides 17_whiteLine3.jpg	Short_b23_cut1_mono_resampled.wav
3	23	1	1	1	C	1	1	855	1	poli_8sides 7_whiteLine3.jpg	Short_b20_cut1_mono_resampled.wav
3	24	3	4	2	I	2	0	1004	0	poli_8sides 15_whiteLine3.jpg	Short_b23_cut1_mono_resampled.wav
3	25	1	1	1	C	2	0	991	0	poli_8sides 7_whiteLine3.jpg	Short_b20_cut1_mono_resampled.wav
3	26	2	2	1	C	1	1	712	1	poli_8sides 14_whiteLine3.jpg	Short_b09_cut1_mono_resampled.wav
3	27	4	3	2	I	1	0	892	1	poli_8sides 17_whiteLine3.jpg	Short_b22_cut1_mono_resampled.wav
3	28	3	3	2	I	1	0	827	1	poli_8sides 15_whiteLine3.jpg	Short_b22_cut1_mono_resampled.wav
3	29	2	1	0	C	2	1	900	1	poli_8sides 14_whiteLine3.jpg	Short_b20_cut1_mono_resampled.wav
3	30	3	4	2	I	1	0	1279	0	poli_8sides 15_whiteLine3.jpg	Short_b23_cut1_mono_resampled.wav
3	31	1	2	0	C	1	0	986	0	poli_8sides 7_whiteLine3.jpg	Short_b09_cut1_mono_resampled.wav
3	32	4	4	2	I	1	0	875	0	poli_8sides 17_whiteLine3.jpg	Short_b23_cut1_mono_resampled.wav
3	33	3	3	2	I	1	0	727	0	poli_8sides 15_whiteLine3.jpg	Short_b22_cut1_mono_resampled.wav
3	34	1	2	0	C	2	1	917	1	poli_8sides 7_whiteLine3.jpg	Short_b09_cut1_mono_resampled.wav
3	35	4	3	2	I	1	0	1352	0	poli_8sides 17_whiteLine3.jpg	Short_b22_cut1_mono_resampled.wav
3	36	2	2	1	C	1	1	806	1	poli_8sides 14_whiteLine3.jpg	Short_b09_cut1_mono_resampled.wav
3	37	1	1	1	C	1	1	1229	1	poli_8sides 7_whiteLine3.jpg	Short_b20_cut1_mono_resampled.wav
3	38	2	1	0	C	1	0	835	0	poli_8sides 14_whiteLine3.jpg	Short_b20_cut1_mono_resampled.wav
3	39	3	4	2	I	2	0	748	0	poli_8sides 15_whiteLine3.jpg	Short_b23_cut1_mono_resampled.wav
3	40	4	4	2	I	2	0	628	0	poli_8sides 17_whiteLine3.jpg	Short_b23_cut1_mono_resampled.wav
3	41	2	2	1	C	1	1	737	1	poli_8sides 14_whiteLine3.jpg	Short_b09_cut1_mono_resampled.wav
3	42	1	2	0	C	1	0	1126	0	poli_8sides 7_whiteLine3.jpg	Short_b09_cut1_mono_resampled.wav
3	43	4	3	2	I	2	0	686	0	poli_8sides 17_whiteLine3.jpg	Short_b22_cut1_mono_resampled.wav
3	44	3	4	2	I	1	0	1205	0	poli_8sides 15_whiteLine3.jpg	Short_b23_cut1_mono_resampled.wav
3	45	4	4	2	I	2	0	649	0	poli_8sides 17_whiteLine3.jpg	Short_b23_cut1_mono_resampled.wav
3	46	2	1	0	C	1	0	944	0	poli_8sides 14_whiteLine3.jpg	Short_b20_cut1_mono_resampled.wav
3	47	1	1	1	C	1	1	1151	1	poli_8sides 7_whiteLine3.jpg	Short_b20_cut1_mono_resampled.wav
3	48	3	3	2	I	1	0	1069	0	poli_8sides 15_whiteLine3.jpg	Short_b22_cut1_mono_resampled.wav
3	49	1	2	0	C	1	0	755	0	poli_8sides 7_whiteLine3.jpg	Short_b09_cut1_mono_resampled.wav
3	50	2	1	0	C	2	1	868	1	poli_8sides 14_whiteLine3.jpg	Short_b20_cut1_mono_resampled.wav
3	51	3	4	2	I	1	0	944	1	poli_8sides 15_whiteLine3.jpg	Short_b23_cut1_mono_resampled.wav
3	52	4	3	2	I	1	0	981	1	poli_8sides 17_whiteLine3.jpg	Short_b22_cut1_mono_resampled.wav
3	53	2	2	1	C	1	1	1014	1	poli_8sides 14_whiteLine3.jpg	Short_b09_cut1_mono_resampled.wav
3	54	4	4	2	I	2	0	829	1	poli_8sides 17_whiteLine3.jpg	Short_b23_cut1_mono_resampled.wav
3	55	3	3	2	I	1	0	977	1	poli_8sides 15_whiteLine3.jpg	Short_b22_cut1_mono_resampled.wav
3	56	1	1	1	C	1	1	803	1	poli_8sides 7_whiteLine3.jpg	Short_b20_cut1_mono_resampled.wav
3	57	4	4	2	I	2	0	626	1	poli_8sides 17_whiteLine3.jpg	Short_b23_cut1_mono_resampled.wav
3	58	1	1	1	C	1	1	949	1	poli_8sides 7_whiteLine3.jpg	Short_b20_cut1_mono_resampled.wav
3	59	2	2	1	C	2	0	843	0	poli_8sides 14_whiteLine3.jpg	Short_b09_cut1_mono_resampled.wav
3	60	3	4	2	I	1	0	825	1	poli_8sides 15_whiteLine3.jpg	Short_b23_cut1_mono_resampled.wav
3	61	1	2	0	C	1	0	1196	0	poli_8sides 7_whiteLine3.jpg	Short_b09_cut1_mono_resampled.wav
3	62	3	3	2	I	1	0	866	1	poli_8sides 15_whiteLine3.jpg	Short_b22_cut1_mono_resampled.wav
3	63	4	3	2	I	1	0	1110	0	poli_8sides 17_whiteLine3.jpg	Short_b22_cut1_mono_resampled.wav
3	64	2	1	0	C	2	1	889	1	poli_8sides 14_whiteLine3.jpg	Short_b20_cut1_mono_resampled.wav
3	65	4	3	2	I	2	0	671	1	poli_8sides 17_whiteLine3.jpg	Short_b22_cut1_mono_resampled.wav
3	66	3	4	2	I	1	0	764	1	poli_8sides 15_whiteLine3.jpg	Short_b23_cut1_mono_resampled.wav
3	67	2	2	1	C	1	1	942	1	poli_8sides 14_whiteLine3.jpg	Short_b09_cut1_mono_resampled.wav
3	68	1	2	0	C	1	0	913	0	poli_8sides 7_whiteLine3.jpg	Short_b09_cut1_mono_resampled.wav
3	69	4	4	2	I	2	0	684	1	poli_8sides 17_whiteLine3.jpg	Short_b23_cut1_mono_resampled.wav
3	70	1	1	1	C	1	1	1036	1	poli_8sides 7_whiteLine3.jpg	Short_b20_cut1_mono_resampled.wav
3	71	2	1	0	C	1	0	658	0	poli_8sides 14_whiteLine3.jpg	Short_b20_cut1_mono_resampled.wav
3	72	3	3	2	I	2	0	856	1	poli_8sides 15_whiteLine3.jpg	Short_b22_cut1_mono_resampled.wav
3	73	4	3	2	I	2	0	773	0	poli_8sides 17_whiteLine3.jpg	Short_b22_cut1_mono_resampled.wav
3	74	2	2	1	C	1	1	744	1	poli_8sides 14_whiteLine3.jpg	Short_b09_cut1_mono_resampled.wav
3	75	1	2	0	C	1	0	1193	0	poli_8sides 7_whiteLine3.jpg	Short_b09_cut1_mono_resampled.wav
3	76	3	3	2	I	1	0	945	1	poli_8sides 15_whiteLine3.jpg	Short_b22_cut1_mono_resampled.wav
3	77	4	4	2	I	2	0	706	0	poli_8sides 17_whiteLine3.jpg	Short_b23_cut1_mono_resampled.wav
3	78	2	1	0	C	2	1	1207	1	poli_8sides 14_whiteLine3.jpg	Short_b20_cut1_mono_resampled.wav
3	79	3	4	2	I	1	0	871	1	poli_8sides 15_whiteLine3.jpg	Short_b23_cut1_mono_resampled.wav
3	80	1	1	1	C	1	1	624	1	poli_8sides 7_whiteLine3.jpg	Short_b20_cut1_mono_resampled.wav
3	81	4	4	2	I	2	0	656	0	poli_8sides 17_whiteLine3.jpg	Short_b23_cut1_mono_resampled.wav
3	82	1	1	1	C	1	1	912	1	poli_8sides 7_whiteLine3.jpg	Short_b20_cut1_mono_resampled.wav
3	83	3	3	2	I	2	0	686	0	poli_8sides 15_whiteLine3.jpg	Short_b22_cut1_mono_resampled.wav
3	84	2	2	1	C	1	1	1104	1	poli_8sides 14_whiteLine3.jpg	Short_b09_cut1_mono_resampled.wav
3	85	3	4	2	I	1	0	848	1	poli_8sides 15_whiteLine3.jpg	Short_b23_cut1_mono_resampled.wav
3	86	1	2	0	C	1	0	833	0	poli_8sides 7_whiteLine3.jpg	Short_b09_cut1_mono_resampled.wav
3	87	4	3	2	I	2	0	1078	0	poli_8sides 17_whiteLine3.jpg	Short_b22_cut1_mono_resampled.wav
3	88	2	1	0	C	1	0	1712	0	poli_8sides 14_whiteLine3.jpg	Short_b20_cut1_mono_resampled.wav
3	89	1	1	1	C	2	0	1163	0	poli_8sides 7_whiteLine3.jpg	Short_b20_cut1_mono_resampled.wav
3	90	4	3	2	I	2	0	1023	0	poli_8sides 17_whiteLine3.jpg	Short_b22_cut1_mono_resampled.wav
3	91	3	4	2	I	1	0	1150	0	poli_8sides 15_whiteLine3.jpg	Short_b23_cut1_mono_resampled.wav
3	92	2	1	0	C	2	1	891	1	poli_8sides 14_whiteLine3.jpg	Short_b20_cut1_mono_resampled.wav
3	93	3	3	2	I	2	0	838	1	poli_8sides 15_whiteLine3.jpg	Short_b22_cut1_mono_resampled.wav
3	94	2	2	1	C	1	1	946	1	poli_8sides 14_whiteLine3.jpg	Short_b09_cut1_mono_resampled.wav
3	95	1	2	0	C	1	0	1515	0	poli_8sides 7_whiteLine3.jpg	Short_b09_cut1_mono_resampled.wav
3	96	4	4	2	I	2	0	693	0	poli_8sides 17_whiteLine3.jpg	Short_b23_cut1_mono_resampled.wav
3	97	2	2	1	C	1	1	1115	1	poli_8sides 14_whiteLine3.jpg	Short_b09_cut1_mono_resampled.wav
3	98	4	3	2	I	2	0	610	1	poli_8sides 17_whiteLine3.jpg	Short_b22_cut1_mono_resampled.wav
3	99	1	1	1	C	1	1	855	1	poli_8sides 7_whiteLine3.jpg	Short_b20_cut1_mono_resampled.wav
3	100	3	3	2	I	1	0	994	1	poli_8sides 15_whiteLine3.jpg	Short_b22_cut1_mono_resampled.wav
3	101	1	2	0	C	1	0	805	0	poli_8sides 7_whiteLine3.jpg	Short_b09_cut1_mono_resampled.wav
3	102	2	1	0	C	2	1	1145	1	poli_8sides 14_whiteLine3.jpg	Short_b20_cut1_mono_resampled.wav
3	103	3	4	2	I	1	0	966	0	poli_8sides 15_whiteLine3.jpg	Short_b23_cut1_mono_resampled.wav
3	104	4	4	2	I	2	0	576	0	poli_8sides 17_whiteLine3.jpg	Short_b23_cut1_mono_resampled.wav
3	105	1	2	0	C	1	0	798	0	poli_8sides 7_whiteLine3.jpg	Short_b09_cut1_mono_resampled.wav
3	106	3	3	2	I	1	0	1086	0	poli_8sides 15_whiteLine3.jpg	Short_b22_cut1_mono_resampled.wav
3	107	2	1	0	C	2	1	884	1	poli_8sides 14_whiteLine3.jpg	Short_b20_cut1_mono_resampled.wav
3	108	4	4	2	I	2	0	843	1	poli_8sides 17_whiteLine3.jpg	Short_b23_cut1_mono_resampled.wav
3	109	2	2	1	C	1	1	811	1	poli_8sides 14_whiteLine3.jpg	Short_b09_cut1_mono_resampled.wav
3	110	3	4	2	I	1	0	852	1	poli_8sides 15_whiteLine3.jpg	Short_b23_cut1_mono_resampled.wav
3	111	1	1	1	C	1	1	1200	1	poli_8sides 7_whiteLine3.jpg	Short_b20_cut1_mono_resampled.wav
3	112	4	3	2	I	1	0	1248	0	poli_8sides 17_whiteLine3.jpg	Short_b22_cut1_mono_resampled.wav
3	113	3	3	2	I	2	0	1054	0	poli_8sides 15_whiteLine3.jpg	Short_b22_cut1_mono_resampled.wav
3	114	2	2	1	C	1	1	916	1	poli_8sides 14_whiteLine3.jpg	Short_b09_cut1_mono_resampled.wav
3	115	4	4	2	I	2	0	1045	0	poli_8sides 17_whiteLine3.jpg	Short_b23_cut1_mono_resampled.wav
3	116	1	1	1	C	1	1	892	1	poli_8sides 7_whiteLine3.jpg	Short_b20_cut1_mono_resampled.wav
3	117	3	4	2	I	2	0	661	0	poli_8sides 15_whiteLine3.jpg	Short_b23_cut1_mono_resampled.wav
3	118	1	2	0	C	1	0	514	0	poli_8sides 7_whiteLine3.jpg	Short_b09_cut1_mono_resampled.wav
3	119	4	3	2	I	2	0	457	1	poli_8sides 17_whiteLine3.jpg	Short_b22_cut1_mono_resampled.wav
3	120	2	1	0	C	1	0	719	0	poli_8sides 14_whiteLine3.jpg	Short_b20_cut1_mono_resampled.wav
3	121	4	4	2	I	2	0	841	1	poli_8sides 17_whiteLine3.jpg	Short_b23_cut1_mono_resampled.wav
3	122	3	3	2	I	1	0	1067	0	poli_8sides 15_whiteLine3.jpg	Short_b22_cut1_mono_resampled.wav
3	123	1	2	0	C	1	0	1428	0	poli_8sides 7_whiteLine3.jpg	Short_b09_cut1_mono_resampled.wav
3	124	2	1	0	C	2	1	1107	1	poli_8sides 14_whiteLine3.jpg	Short_b20_cut1_mono_resampled.wav
3	125	4	3	2	I	1	0	1080	1	poli_8sides 17_whiteLine3.jpg	Short_b22_cut1_mono_resampled.wav
3	126	1	1	1	C	2	0	961	0	poli_8sides 7_whiteLine3.jpg	Short_b20_cut1_mono_resampled.wav
3	127	2	2	1	C	1	1	1007	1	poli_8sides 14_whiteLine3.jpg	Short_b09_cut1_mono_resampled.wav
3	128	3	4	2	I	1	0	1789	0	poli_8sides 15_whiteLine3.jpg	Short_b23_cut1_mono_resampled.wav
3	129	2	1	0	C	1	0	873	0	poli_8sides 14_whiteLine3.jpg	Short_b20_cut1_mono_resampled.wav
3	130	3	3	2	I	1	0	949	0	poli_8sides 15_whiteLine3.jpg	Short_b22_cut1_mono_resampled.wav
3	131	4	4	2	I	2	0	742	1	poli_8sides 17_whiteLine3.jpg	Short_b23_cut1_mono_resampled.wav
3	132	1	2	0	C	1	0	1509	0	poli_8sides 7_whiteLine3.jpg	Short_b09_cut1_mono_resampled.wav
3	133	2	2	1	C	1	1	1143	1	poli_8sides 14_whiteLine3.jpg	Short_b09_cut1_mono_resampled.wav
3	134	4	3	2	I	2	0	1131	1	poli_8sides 17_whiteLine3.jpg	Short_b22_cut1_mono_resampled.wav
3	135	1	1	1	C	1	1	1152	1	poli_8sides 7_whiteLine3.jpg	Short_b20_cut1_mono_resampled.wav
3	136	3	4	2	I	2	0	976	0	poli_8sides 15_whiteLine3.jpg	Short_b23_cut1_mono_resampled.wav
3	137	2	2	1	C	1	1	870	1	poli_8sides 14_whiteLine3.jpg	Short_b09_cut1_mono_resampled.wav
3	138	3	4	2	I	2	0	627	1	poli_8sides 15_whiteLine3.jpg	Short_b23_cut1_mono_resampled.wav
3	139	4	4	2	I	2	0	858	1	poli_8sides 17_whiteLine3.jpg	Short_b23_cut1_mono_resampled.wav
3	140	1	1	1	C	1	1	1352	1	poli_8sides 7_whiteLine3.jpg	Short_b20_cut1_mono_resampled.wav
3	141	3	3	2	I	1	0	846	0	poli_8sides 15_whiteLine3.jpg	Short_b22_cut1_mono_resampled.wav
3	142	2	1	0	C	1	0	1111	0	poli_8sides 14_whiteLine3.jpg	Short_b20_cut1_mono_resampled.wav
3	143	1	2	0	C	2	1	722	1	poli_8sides 7_whiteLine3.jpg	Short_b09_cut1_mono_resampled.wav
3	144	4	3	2	I	2	0	1035	1	poli_8sides 17_whiteLine3.jpg	Short_b22_cut1_mono_resampled.wav
3	145	2	1	0	C	2	1	860	1	poli_8sides 14_whiteLine3.jpg	Short_b20_cut1_mono_resampled.wav
3	146	3	3	2	I	2	0	936	0	poli_8sides 15_whiteLine3.jpg	Short_b22_cut1_mono_resampled.wav
3	147	4	3	2	I	2	0	734	0	poli_8sides 17_whiteLine3.jpg	Short_b22_cut1_mono_resampled.wav
3	148	1	2	0	C	1	0	1200	0	poli_8sides 7_whiteLine3.jpg	Short_b09_cut1_mono_resampled.wav
3	149	3	4	2	I	2	0	815	0	poli_8sides 15_whiteLine3.jpg	Short_b23_cut1_mono_resampled.wav
3	150	2	2	1	C	2	0	704	0	poli_8sides 14_whiteLine3.jpg	Short_b09_cut1_mono_resampled.wav
3	151	1	1	1	C	1	1	1786	1	poli_8sides 7_whiteLine3.jpg	Short_b20_cut1_mono_resampled.wav
3	152	4	4	2	I	2	0	847	1	poli_8sides 17_whiteLine3.jpg	Short_b23_cut1_mono_resampled.wav
3	153	2	1	0	C	2	1	908	1	poli_8sides 14_whiteLine3.jpg	Short_b20_cut1_mono_resampled.wav
3	154	4	4	2	I	2	0	852	1	poli_8sides 17_whiteLine3.jpg	Short_b23_cut1_mono_resampled.wav
3	155	3	3	2	I	1	0	1239	0	poli_8sides 15_whiteLine3.jpg	Short_b22_cut1_mono_resampled.wav
3	156	1	2	0	C	2	1	1110	1	poli_8sides 7_whiteLine3.jpg	Short_b09_cut1_mono_resampled.wav
3	157	3	4	2	I	1	0	1109	0	poli_8sides 15_whiteLine3.jpg	Short_b23_cut1_mono_resampled.wav
3	158	1	1	1	C	1	1	1175	1	poli_8sides 7_whiteLine3.jpg	Short_b20_cut1_mono_resampled.wav
3	159	4	3	2	I	1	0	939	0	poli_8sides 17_whiteLine3.jpg	Short_b22_cut1_mono_resampled.wav
3	160	2	2	1	C	1	1	1026	1	poli_8sides 14_whiteLine3.jpg	Short_b09_cut1_mono_resampled.wav
3	161	4	4	2	I	2	0	840	1	poli_8sides 17_whiteLine3.jpg	Short_b23_cut1_mono_resampled.wav
3	162	2	1	0	C	2	1	565	1	poli_8sides 14_whiteLine3.jpg	Short_b20_cut1_mono_resampled.wav
3	163	3	3	2	I	2	0	657	1	poli_8sides 15_whiteLine3.jpg	Short_b22_cut1_mono_resampled.wav
3	164	1	1	1	C	1	1	1228	1	poli_8sides 7_whiteLine3.jpg	Short_b20_cut1_mono_resampled.wav
3	165	4	3	2	I	2	0	936	1	poli_8sides 17_whiteLine3.jpg	Short_b22_cut1_mono_resampled.wav
3	166	2	2	1	C	1	1	1054	1	poli_8sides 14_whiteLine3.jpg	Short_b09_cut1_mono_resampled.wav
3	167	1	2	0	C	1	0	763	0	poli_8sides 7_whiteLine3.jpg	Short_b09_cut1_mono_resampled.wav
3	168	3	4	2	I	2	0	960	1	poli_8sides 15_whiteLine3.jpg	Short_b23_cut1_mono_resampled.wav
3	169	4	3	2	I	1	0	969	1	poli_8sides 17_whiteLine3.jpg	Short_b22_cut1_mono_resampled.wav
3	170	2	2	1	C	1	1	980	1	poli_8sides 14_whiteLine3.jpg	Short_b09_cut1_mono_resampled.wav
3	171	1	1	1	C	1	1	1130	1	poli_8sides 7_whiteLine3.jpg	Short_b20_cut1_mono_resampled.wav
3	172	3	4	2	I	1	0	1016	1	poli_8sides 15_whiteLine3.jpg	Short_b23_cut1_mono_resampled.wav
3	173	1	2	0	C	2	1	1321	1	poli_8sides 7_whiteLine3.jpg	Short_b09_cut1_mono_resampled.wav
3	174	2	1	0	C	2	1	988	1	poli_8sides 14_whiteLine3.jpg	Short_b20_cut1_mono_resampled.wav
3	175	4	4	2	I	2	0	778	1	poli_8sides 17_whiteLine3.jpg	Short_b23_cut1_mono_resampled.wav
3	176	3	3	2	I	2	0	844	1	poli_8sides 15_whiteLine3.jpg	Short_b22_cut1_mono_resampled.wav
3	177	2	2	1	C	1	1	894	1	poli_8sides 14_whiteLine3.jpg	Short_b09_cut1_mono_resampled.wav
3	178	4	3	2	I	2	0	711	0	poli_8sides 17_whiteLine3.jpg	Short_b22_cut1_mono_resampled.wav
3	179	3	3	2	I	2	0	1024	1	poli_8sides 15_whiteLine3.jpg	Short_b22_cut1_mono_resampled.wav
3	180	1	1	1	C	1	1	1130	1	poli_8sides 7_whiteLine3.jpg	Short_b20_cut1_mono_resampled.wav
3	181	2	1	0	C	2	1	1319	1	poli_8sides 14_whiteLine3.jpg	Short_b20_cut1_mono_resampled.wav
3	182	3	4	2	I	1	0	1204	1	poli_8sides 15_whiteLine3.jpg	Short_b23_cut1_mono_resampled.wav
3	183	1	2	0	C	1	0	1213	0	poli_8sides 7_whiteLine3.jpg	Short_b09_cut1_mono_resampled.wav
3	184	4	4	2	I	2	0	747	1	poli_8sides 17_whiteLine3.jpg	Short_b23_cut1_mono_resampled.wav
3	185	3	4	2	I	1	0	1028	1	poli_8sides 15_whiteLine3.jpg	Short_b23_cut1_mono_resampled.wav
3	186	4	3	2	I	2	0	959	0	poli_8sides 17_whiteLine3.jpg	Short_b22_cut1_mono_resampled.wav
3	187	1	2	0	C	1	0	956	0	poli_8sides 7_whiteLine3.jpg	Short_b09_cut1_mono_resampled.wav
3	188	2	2	1	C	1	1	946	1	poli_8sides 14_whiteLine3.jpg	Short_b09_cut1_mono_resampled.wav
3	189	1	1	1	C	1	1	1302	1	poli_8sides 7_whiteLine3.jpg	Short_b20_cut1_mono_resampled.wav
3	190	3	3	2	I	2	0	1068	1	poli_8sides 15_whiteLine3.jpg	Short_b22_cut1_mono_resampled.wav
3	191	2	1	0	C	2	1	1108	1	poli_8sides 14_whiteLine3.jpg	Short_b20_cut1_mono_resampled.wav
3	192	4	4	2	I	2	0	902	1	poli_8sides 17_whiteLine3.jpg	Short_b23_cut1_mono_resampled.wav
3	193	1	2	0	C	1	0	1231	0	poli_8sides 7_whiteLine3.jpg	Short_b09_cut1_mono_resampled.wav
3	194	3	3	2	I	2	0	795	0	poli_8sides 15_whiteLine3.jpg	Short_b22_cut1_mono_resampled.wav
3	195	4	4	2	I	2	0	788	0	poli_8sides 17_whiteLine3.jpg	Short_b23_cut1_mono_resampled.wav
3	196	2	2	1	C	1	1	950	1	poli_8sides 14_whiteLine3.jpg	Short_b09_cut1_mono_resampled.wav
3	197	4	3	2	I	2	0	687	1	poli_8sides 17_whiteLine3.jpg	Short_b22_cut1_mono_resampled.wav
3	198	3	4	2	I	1	0	793	0	poli_8sides 15_whiteLine3.jpg	Short_b23_cut1_mono_resampled.wav
3	199	1	1	1	C	1	1	814	1	poli_8sides 7_whiteLine3.jpg	Short_b20_cut1_mono_resampled.wav
3	200	2	1	0	C	2	1	723	1	poli_8sides 14_whiteLine3.jpg	Short_b20_cut1_mono_resampled.wav
4	1	2	1	0	C	0	0	0	0	poli_8sides 20_whiteLine3.jpg	Long_b01_cut2_L_mono_resampled.wav
4	2	3	4	2	I	2	0	1019	1	poli_8sides 6_whiteLine3.jpg	Long_e24_cut1_mono_resampled.wav
4	3	4	3	2	I	2	0	1543	1	poli_8sides 1_whiteLine3.jpg	Long_s10_cut2_l_mono_resampled.wav
4	4	1	2	0	C	2	1	1607	1	poli_8sides 12_whiteLine3.jpg	Long_e17_cut2_mono_resampled.wav
4	5	4	4	2	I	2	0	1592	1	poli_8sides 1_whiteLine3.jpg	Long_e24_cut1_mono_resampled.wav
4	6	2	2	1	C	2	0	1072	0	poli_8sides 20_whiteLine3.jpg	Long_e17_cut2_mono_resampled.wav
4	7	3	3	2	I	1	0	1666	0	poli_8sides 6_whiteLine3.jpg	Long_s10_cut2_l_mono_resampled.wav
4	8	1	1	1	C	2	0	1250	0	poli_8sides 12_whiteLine3.jpg	Long_b01_cut2_L_mono_resampled.wav
4	9	3	4	2	I	2	0	834	0	poli_8sides 6_whiteLine3.jpg	Long_e24_cut1_mono_resampled.wav
4	10	2	1	0	C	1	0	1070	0	poli_8sides 20_whiteLine3.jpg	Long_b01_cut2_L_mono_resampled.wav
4	11	4	3	2	I	2	0	1483	1	poli_8sides 1_whiteLine3.jpg	Long_s10_cut2_l_mono_resampled.wav
4	12	1	2	0	C	2	1	1305	1	poli_8sides 12_whiteLine3.jpg	Long_e17_cut2_mono_resampled.wav
4	13	4	4	2	I	1	0	987	0	poli_8sides 1_whiteLine3.jpg	Long_e24_cut1_mono_resampled.wav
4	14	1	1	1	C	2	0	1510	0	poli_8sides 12_whiteLine3.jpg	Long_b01_cut2_L_mono_resampled.wav
4	15	2	2	1	C	1	1	1365	1	poli_8sides 20_whiteLine3.jpg	Long_e17_cut2_mono_resampled.wav
4	16	3	3	2	I	1	0	1114	0	poli_8sides 6_whiteLine3.jpg	Long_s10_cut2_l_mono_resampled.wav
4	17	1	1	1	C	2	0	769	0	poli_8sides 12_whiteLine3.jpg	Long_b01_cut2_L_mono_resampled.wav
4	18	2	2	1	C	2	0	1096	0	poli_8sides 20_whiteLine3.jpg	Long_e17_cut2_mono_resampled.wav
4	19	4	3	2	I	1	0	1152	1	poli_8sides 1_whiteLine3.jpg	Long_s10_cut2_l_mono_resampled.wav
4	20	3	3	2	I	2	0	1161	0	poli_8sides 6_whiteLine3.jpg	Long_s10_cut2_l_mono_resampled.wav
4	21	2	1	0	C	1	0	874	0	poli_8sides 20_whiteLine3.jpg	Long_b01_cut2_L_mono_resampled.wav
4	22	4	4	2	I	2	0	954	0	poli_8sides 1_whiteLine3.jpg	Long_e24_cut1_mono_resampled.wav
4	23	1	2	0	C	2	1	1152	1	poli_8sides 12_whiteLine3.jpg	Long_e17_cut2_mono_resampled.wav
4	24	3	4	2	I	1	0	1086	1	poli_8sides 6_whiteLine3.jpg	Long_e24_cut1_mono_resampled.wav
4	25	1	1	1	C	1	1	988	1	poli_8sides 12_whiteLine3.jpg	Long_b01_cut2_L_mono_resampled.wav
4	26	4	4	2	I	2	0	1114	0	poli_8sides 1_whiteLine3.jpg	Long_e24_cut1_mono_resampled.wav
4	27	2	2	1	C	1	1	1068	1	poli_8sides 20_whiteLine3.jpg	Long_e17_cut2_mono_resampled.wav
4	28	3	4	2	I	1	0	1149	0	poli_8sides 6_whiteLine3.jpg	Long_e24_cut1_mono_resampled.wav
4	29	1	2	0	C	1	0	999	0	poli_8sides 12_whiteLine3.jpg	Long_e17_cut2_mono_resampled.wav
4	30	2	1	0	C	1	0	955	0	poli_8sides 20_whiteLine3.jpg	Long_b01_cut2_L_mono_resampled.wav
4	31	4	3	2	I	1	0	1305	0	poli_8sides 1_whiteLine3.jpg	Long_s10_cut2_l_mono_resampled.wav
4	32	3	3	2	I	1	0	1126	1	poli_8sides 6_whiteLine3.jpg	Long_s10_cut2_l_mono_resampled.wav
4	33	2	1	0	C	1	0	866	0	poli_8sides 20_whiteLine3.jpg	Long_b01_cut2_L_mono_resampled.wav
4	34	3	4	2	I	1	0	984	1	poli_8sides 6_whiteLine3.jpg	Long_e24_cut1_mono_resampled.wav
4	35	1	1	1	C	1	1	986	1	poli_8sides 12_whiteLine3.jpg	Long_b01_cut2_L_mono_resampled.wav
4	36	4	4	2	I	2	0	1135	0	poli_8sides 1_whiteLine3.jpg	Long_e24_cut1_mono_resampled.wav
4	37	3	3	2	I	1	0	1278	0	poli_8sides 6_whiteLine3.jpg	Long_s10_cut2_l_mono_resampled.wav
4	38	2	2	1	C	1	1	1381	1	poli_8sides 20_whiteLine3.jpg	Long_e17_cut2_mono_resampled.wav
4	39	4	3	2	I	2	0	1150	0	poli_8sides 1_whiteLine3.jpg	Long_s10_cut2_l_mono_resampled.wav
4	40	1	2	0	C	2	1	1010	1	poli_8sides 12_whiteLine3.jpg	Long_e17_cut2_mono_resampled.wav
4	41	4	4	2	I	1	0	865	0	poli_8sides 1_whiteLine3.jpg	Long_e24_cut1_mono_resampled.wav
4	42	1	2	0	C	1	0	992	0	poli_8sides 12_whiteLine3.jpg	Long_e17_cut2_mono_resampled.wav
4	43	3	3	2	I	1	0	1004	1	poli_8sides 6_whiteLine3.jpg	Long_s10_cut2_l_mono_resampled.wav
4	44	2	1	0	C	1	0	1288	0	poli_8sides 20_whiteLine3.jpg	Long_b01_cut2_L_mono_resampled.wav
4	45	4	3	2	I	1	0	1514	1	poli_8sides 1_whiteLine3.jpg	Long_s10_cut2_l_mono_resampled.wav
4	46	2	2	1	C	2	0	1279	0	poli_8sides 20_whiteLine3.jpg	Long_e17_cut2_mono_resampled.wav
4	47	3	4	2	I	1	0	1112	0	poli_8sides 6_whiteLine3.jpg	Long_e24_cut1_mono_resampled.wav
4	48	1	1	1	C	1	1	1039	1	poli_8sides 12_whiteLine3.jpg	Long_b01_cut2_L_mono_resampled.wav
4	49	4	4	2	I	2	0	994	1	poli_8sides 1_whiteLine3.jpg	Long_e24_cut1_mono_resampled.wav
4	50	1	1	1	C	1	1	1119	1	poli_8sides 12_whiteLine3.jpg	Long_b01_cut2_L_mono_resampled.wav
4	51	3	4	2	I	1	0	1374	1	poli_8sides 6_whiteLine3.jpg	Long_e24_cut1_mono_resampled.wav
4	52	2	1	0	C	1	0	1267	0	poli_8sides 20_whiteLine3.jpg	Long_b01_cut2_L_mono_resampled.wav
4	53	1	2	0	C	1	0	1396	0	poli_8sides 12_whiteLine3.jpg	Long_e17_cut2_mono_resampled.wav
4	54	3	3	2	I	2	0	1078	0	poli_8sides 6_whiteLine3.jpg	Long_s10_cut2_l_mono_resampled.wav
4	55	2	2	1	C	2	0	1852	0	poli_8sides 20_whiteLine3.jpg	Long_e17_cut2_mono_resampled.wav
4	56	4	3	2	I	2	0	1368	0	poli_8sides 1_whiteLine3.jpg	Long_s10_cut2_l_mono_resampled.wav
4	57	2	1	0	C	1	0	1229	0	poli_8sides 20_whiteLine3.jpg	Long_b01_cut2_L_mono_resampled.wav
4	58	1	2	0	C	1	0	1006	0	poli_8sides 12_whiteLine3.jpg	Long_e17_cut2_mono_resampled.wav
4	59	4	4	2	I	1	0	1310	0	poli_8sides 1_whiteLine3.jpg	Long_e24_cut1_mono_resampled.wav
4	60	3	3	2	I	2	0	1080	1	poli_8sides 6_whiteLine3.jpg	Long_s10_cut2_l_mono_resampled.wav
4	61	2	2	1	C	2	0	1027	0	poli_8sides 20_whiteLine3.jpg	Long_e17_cut2_mono_resampled.wav
4	62	4	3	2	I	1	0	921	1	poli_8sides 1_whiteLine3.jpg	Long_s10_cut2_l_mono_resampled.wav
4	63	3	4	2	I	1	0	977	1	poli_8sides 6_whiteLine3.jpg	Long_e24_cut1_mono_resampled.wav
4	64	1	1	1	C	1	1	994	1	poli_8sides 12_whiteLine3.jpg	Long_b01_cut2_L_mono_resampled.wav
4	65	2	1	0	C	1	0	1097	0	poli_8sides 20_whiteLine3.jpg	Long_b01_cut2_L_mono_resampled.wav
4	66	3	3	2	I	1	0	1217	1	poli_8sides 6_whiteLine3.jpg	Long_s10_cut2_l_mono_resampled.wav
4	67	4	3	2	I	2	0	1122	1	poli_8sides 1_whiteLine3.jpg	Long_s10_cut2_l_mono_resampled.wav
4	68	1	1	1	C	1	1	976	1	poli_8sides 12_whiteLine3.jpg	Long_b01_cut2_L_mono_resampled.wav
4	69	2	2	1	C	2	0	810	0	poli_8sides 20_whiteLine3.jpg	Long_e17_cut2_mono_resampled.wav
4	70	1	2	0	C	1	0	1042	0	poli_8sides 12_whiteLine3.jpg	Long_e17_cut2_mono_resampled.wav
4	71	3	4	2	I	1	0	1106	0	poli_8sides 6_whiteLine3.jpg	Long_e24_cut1_mono_resampled.wav
4	72	4	4	2	I	2	0	917	1	poli_8sides 1_whiteLine3.jpg	Long_e24_cut1_mono_resampled.wav
4	73	3	4	2	I	1	0	1139	1	poli_8sides 6_whiteLine3.jpg	Long_e24_cut1_mono_resampled.wav
4	74	2	2	1	C	1	1	1409	1	poli_8sides 20_whiteLine3.jpg	Long_e17_cut2_mono_resampled.wav
4	75	1	2	0	C	1	0	1194	0	poli_8sides 12_whiteLine3.jpg	Long_e17_cut2_mono_resampled.wav
4	76	4	3	2	I	1	0	1477	1	poli_8sides 1_whiteLine3.jpg	Long_s10_cut2_l_mono_resampled.wav
4	77	1	1	1	C	2	0	908	0	poli_8sides 12_whiteLine3.jpg	Long_b01_cut2_L_mono_resampled.wav
4	78	3	3	2	I	1	0	1135	0	poli_8sides 6_whiteLine3.jpg	Long_s10_cut2_l_mono_resampled.wav
4	79	2	1	0	C	2	1	1472	1	poli_8sides 20_whiteLine3.jpg	Long_b01_cut2_L_mono_resampled.wav
4	80	4	4	2	I	2	0	1262	0	poli_8sides 1_whiteLine3.jpg	Long_e24_cut1_mono_resampled.wav
4	81	1	1	1	C	2	0	1441	0	poli_8sides 12_whiteLine3.jpg	Long_b01_cut2_L_mono_resampled.wav
4	82	3	4	2	I	1	0	937	1	poli_8sides 6_whiteLine3.jpg	Long_e24_cut1_mono_resampled.wav
4	83	2	2	1	C	1	1	1309	1	poli_8sides 20_whiteLine3.jpg	Long_e17_cut2_mono_resampled.wav
4	84	4	3	2	I	1	0	1159	0	poli_8sides 1_whiteLine3.jpg	Long_s10_cut2_l_mono_resampled.wav
4	85	3	3	2	I	2	0	849	1	poli_8sides 6_whiteLine3.jpg	Long_s10_cut2_l_mono_resampled.wav
4	86	4	4	2	I	1	0	1497	1	poli_8sides 1_whiteLine3.jpg	Long_e24_cut1_mono_resampled.wav
4	87	2	1	0	C	2	1	1110	1	poli_8sides 20_whiteLine3.jpg	Long_b01_cut2_L_mono_resampled.wav
4	88	1	2	0	C	2	1	1156	1	poli_8sides 12_whiteLine3.jpg	Long_e17_cut2_mono_resampled.wav
4	89	4	3	2	I	1	0	1727	1	poli_8sides 1_whiteLine3.jpg	Long_s10_cut2_l_mono_resampled.wav
4	90	2	1	0	C	1	0	1268	0	poli_8sides 20_whiteLine3.jpg	Long_b01_cut2_L_mono_resampled.wav
4	91	3	4	2	I	1	0	1026	1	poli_8sides 6_whiteLine3.jpg	Long_e24_cut1_mono_resampled.wav
4	92	1	2	0	C	2	1	950	1	poli_8sides 12_whiteLine3.jpg	Long_e17_cut2_mono_resampled.wav
4	93	2	2	1	C	1	1	1083	1	poli_8sides 20_whiteLine3.jpg	Long_e17_cut2_mono_resampled.wav
4	94	1	1	1	C	2	0	1389	0	poli_8sides 12_whiteLine3.jpg	Long_b01_cut2_L_mono_resampled.wav
4	95	3	3	2	I	1	0	1482	1	poli_8sides 6_whiteLine3.jpg	Long_s10_cut2_l_mono_resampled.wav
4	96	4	4	2	I	2	0	1012	1	poli_8sides 1_whiteLine3.jpg	Long_e24_cut1_mono_resampled.wav
4	97	3	3	2	I	1	0	871	1	poli_8sides 6_whiteLine3.jpg	Long_s10_cut2_l_mono_resampled.wav
4	98	2	1	0	C	2	1	843	1	poli_8sides 20_whiteLine3.jpg	Long_b01_cut2_L_mono_resampled.wav
4	99	4	3	2	I	1	0	1717	1	poli_8sides 1_whiteLine3.jpg	Long_s10_cut2_l_mono_resampled.wav
4	100	1	1	1	C	1	1	996	1	poli_8sides 12_whiteLine3.jpg	Long_b01_cut2_L_mono_resampled.wav
4	101	3	4	2	I	1	0	1039	0	poli_8sides 6_whiteLine3.jpg	Long_e24_cut1_mono_resampled.wav
4	102	4	4	2	I	2	0	1330	1	poli_8sides 1_whiteLine3.jpg	Long_e24_cut1_mono_resampled.wav
4	103	2	2	1	C	2	0	1164	0	poli_8sides 20_whiteLine3.jpg	Long_e17_cut2_mono_resampled.wav
4	104	1	2	0	C	1	0	1373	0	poli_8sides 12_whiteLine3.jpg	Long_e17_cut2_mono_resampled.wav
4	105	3	3	2	I	1	0	1588	0	poli_8sides 6_whiteLine3.jpg	Long_s10_cut2_l_mono_resampled.wav
4	106	1	2	0	C	2	1	953	1	poli_8sides 12_whiteLine3.jpg	Long_e17_cut2_mono_resampled.wav
4	107	2	2	1	C	1	1	1107	1	poli_8sides 20_whiteLine3.jpg	Long_e17_cut2_mono_resampled.wav
4	108	4	4	2	I	2	0	1123	0	poli_8sides 1_whiteLine3.jpg	Long_e24_cut1_mono_resampled.wav
4	109	3	4	2	I	2	0	1057	1	poli_8sides 6_whiteLine3.jpg	Long_e24_cut1_mono_resampled.wav
4	110	4	3	2	I	1	0	1194	1	poli_8sides 1_whiteLine3.jpg	Long_s10_cut2_l_mono_resampled.wav
4	111	2	1	0	C	1	0	950	0	poli_8sides 20_whiteLine3.jpg	Long_b01_cut2_L_mono_resampled.wav
4	112	1	1	1	C	1	1	1346	1	poli_8sides 12_whiteLine3.jpg	Long_b01_cut2_L_mono_resampled.wav
4	113	3	4	2	I	1	0	1634	0	poli_8sides 6_whiteLine3.jpg	Long_e24_cut1_mono_resampled.wav
4	114	2	1	0	C	1	0	1449	0	poli_8sides 20_whiteLine3.jpg	Long_b01_cut2_L_mono_resampled.wav
4	115	1	2	0	C	1	0	1375	0	poli_8sides 12_whiteLine3.jpg	Long_e17_cut2_mono_resampled.wav
4	116	4	4	2	I	1	0	933	1	poli_8sides 1_whiteLine3.jpg	Long_e24_cut1_mono_resampled.wav
4	117	3	3	2	I	2	0	800	0	poli_8sides 6_whiteLine3.jpg	Long_s10_cut2_l_mono_resampled.wav
4	118	1	1	1	C	1	1	1565	1	poli_8sides 12_whiteLine3.jpg	Long_b01_cut2_L_mono_resampled.wav
4	119	2	2	1	C	2	0	1253	0	poli_8sides 20_whiteLine3.jpg	Long_e17_cut2_mono_resampled.wav
4	120	4	3	2	I	1	0	1568	1	poli_8sides 1_whiteLine3.jpg	Long_s10_cut2_l_mono_resampled.wav
4	121	2	1	0	C	1	0	1138	0	poli_8sides 20_whiteLine3.jpg	Long_b01_cut2_L_mono_resampled.wav
4	122	4	4	2	I	2	0	809	1	poli_8sides 1_whiteLine3.jpg	Long_e24_cut1_mono_resampled.wav
4	123	3	4	2	I	1	0	803	1	poli_8sides 6_whiteLine3.jpg	Long_e24_cut1_mono_resampled.wav
4	124	1	2	0	C	1	0	1339	0	poli_8sides 12_whiteLine3.jpg	Long_e17_cut2_mono_resampled.wav
4	125	2	2	1	C	1	1	1349	1	poli_8sides 20_whiteLine3.jpg	Long_e17_cut2_mono_resampled.wav
4	126	1	1	1	C	1	1	1236	1	poli_8sides 12_whiteLine3.jpg	Long_b01_cut2_L_mono_resampled.wav
4	127	3	3	2	I	2	0	1309	0	poli_8sides 6_whiteLine3.jpg	Long_s10_cut2_l_mono_resampled.wav
4	128	4	3	2	I	1	0	818	1	poli_8sides 1_whiteLine3.jpg	Long_s10_cut2_l_mono_resampled.wav
4	129	3	3	2	I	1	0	1142	1	poli_8sides 6_whiteLine3.jpg	Long_s10_cut2_l_mono_resampled.wav
4	130	2	1	0	C	2	1	1006	1	poli_8sides 20_whiteLine3.jpg	Long_b01_cut2_L_mono_resampled.wav
4	131	4	4	2	I	1	0	977	0	poli_8sides 1_whiteLine3.jpg	Long_e24_cut1_mono_resampled.wav
4	132	1	1	1	C	1	1	1246	1	poli_8sides 12_whiteLine3.jpg	Long_b01_cut2_L_mono_resampled.wav
4	133	3	4	2	I	1	0	1362	0	poli_8sides 6_whiteLine3.jpg	Long_e24_cut1_mono_resampled.wav
4	134	1	2	0	C	1	0	981	0	poli_8sides 12_whiteLine3.jpg	Long_e17_cut2_mono_resampled.wav
4	135	4	3	2	I	1	0	1601	0	poli_8sides 1_whiteLine3.jpg	Long_s10_cut2_l_mono_resampled.wav
4	136	2	2	1	C	2	0	1004	0	poli_8sides 20_whiteLine3.jpg	Long_e17_cut2_mono_resampled.wav
4	137	1	2	0	C	1	0	1749	0	poli_8sides 12_whiteLine3.jpg	Long_e17_cut2_mono_resampled.wav
4	138	4	4	2	I	2	0	1354	0	poli_8sides 1_whiteLine3.jpg	Long_e24_cut1_mono_resampled.wav
4	139	3	3	2	I	1	0	1042	0	poli_8sides 6_whiteLine3.jpg	Long_s10_cut2_l_mono_resampled.wav
4	140	2	2	1	C	2	0	1051	0	poli_8sides 20_whiteLine3.jpg	Long_e17_cut2_mono_resampled.wav
4	141	4	3	2	I	1	0	1770	1	poli_8sides 1_whiteLine3.jpg	Long_s10_cut2_l_mono_resampled.wav
4	142	2	1	0	C	1	0	1668	0	poli_8sides 20_whiteLine3.jpg	Long_b01_cut2_L_mono_resampled.wav
4	143	1	1	1	C	2	0	978	0	poli_8sides 12_whiteLine3.jpg	Long_b01_cut2_L_mono_resampled.wav
4	144	3	4	2	I	1	0	853	1	poli_8sides 6_whiteLine3.jpg	Long_e24_cut1_mono_resampled.wav
4	145	4	3	2	I	1	0	1615	1	poli_8sides 1_whiteLine3.jpg	Long_s10_cut2_l_mono_resampled.wav
4	146	1	1	1	C	1	1	1408	1	poli_8sides 12_whiteLine3.jpg	Long_b01_cut2_L_mono_resampled.wav
4	147	2	1	0	C	1	0	1155	0	poli_8sides 20_whiteLine3.jpg	Long_b01_cut2_L_mono_resampled.wav
4	148	3	3	2	I	2	0	1219	1	poli_8sides 6_whiteLine3.jpg	Long_s10_cut2_l_mono_resampled.wav
4	149	4	4	2	I	1	0	1806	0	poli_8sides 1_whiteLine3.jpg	Long_e24_cut1_mono_resampled.wav
4	150	3	4	2	I	1	0	1409	0	poli_8sides 6_whiteLine3.jpg	Long_e24_cut1_mono_resampled.wav
4	151	2	2	1	C	2	0	842	0	poli_8sides 20_whiteLine3.jpg	Long_e17_cut2_mono_resampled.wav
4	152	1	2	0	C	1	0	1043	0	poli_8sides 12_whiteLine3.jpg	Long_e17_cut2_mono_resampled.wav
4	153	4	4	2	I	1	0	987	0	poli_8sides 1_whiteLine3.jpg	Long_e24_cut1_mono_resampled.wav
4	154	2	2	1	C	2	0	672	0	poli_8sides 20_whiteLine3.jpg	Long_e17_cut2_mono_resampled.wav
4	155	3	4	2	I	1	0	956	0	poli_8sides 6_whiteLine3.jpg	Long_e24_cut1_mono_resampled.wav
4	156	1	1	1	C	2	0	1170	0	poli_8sides 12_whiteLine3.jpg	Long_b01_cut2_L_mono_resampled.wav
4	157	3	3	2	I	2	0	1728	1	poli_8sides 6_whiteLine3.jpg	Long_s10_cut2_l_mono_resampled.wav
4	158	1	2	0	C	1	0	1687	0	poli_8sides 12_whiteLine3.jpg	Long_e17_cut2_mono_resampled.wav
4	159	4	3	2	I	1	0	964	1	poli_8sides 1_whiteLine3.jpg	Long_s10_cut2_l_mono_resampled.wav
4	160	2	1	0	C	2	1	1653	1	poli_8sides 20_whiteLine3.jpg	Long_b01_cut2_L_mono_resampled.wav
4	161	1	1	1	C	1	1	1238	1	poli_8sides 12_whiteLine3.jpg	Long_b01_cut2_L_mono_resampled.wav
4	162	2	2	1	C	2	0	1179	0	poli_8sides 20_whiteLine3.jpg	Long_e17_cut2_mono_resampled.wav
4	163	4	3	2	I	1	0	1091	0	poli_8sides 1_whiteLine3.jpg	Long_s10_cut2_l_mono_resampled.wav
4	164	3	4	2	I	2	0	1252	1	poli_8sides 6_whiteLine3.jpg	Long_e24_cut1_mono_resampled.wav
4	165	1	2	0	C	2	1	1117	1	poli_8sides 12_whiteLine3.jpg	Long_e17_cut2_mono_resampled.wav
4	166	2	1	0	C	1	0	1097	0	poli_8sides 20_whiteLine3.jpg	Long_b01_cut2_L_mono_resampled.wav
4	167	3	3	2	I	2	0	956	1	poli_8sides 6_whiteLine3.jpg	Long_s10_cut2_l_mono_resampled.wav
4	168	4	4	2	I	1	0	1076	0	poli_8sides 1_whiteLine3.jpg	Long_e24_cut1_mono_resampled.wav
4	169	1	2	0	C	1	0	909	0	poli_8sides 12_whiteLine3.jpg	Long_e17_cut2_mono_resampled.wav
4	170	2	2	1	C	2	0	1297	0	poli_8sides 20_whiteLine3.jpg	Long_e17_cut2_mono_resampled.wav
4	171	3	4	2	I	1	0	1248	1	poli_8sides 6_whiteLine3.jpg	Long_e24_cut1_mono_resampled.wav
4	172	4	3	2	I	1	0	1684	0	poli_8sides 1_whiteLine3.jpg	Long_s10_cut2_l_mono_resampled.wav
4	173	1	1	1	C	1	1	1189	1	poli_8sides 12_whiteLine3.jpg	Long_b01_cut2_L_mono_resampled.wav
4	174	4	4	2	I	1	0	978	1	poli_8sides 1_whiteLine3.jpg	Long_e24_cut1_mono_resampled.wav
4	175	2	1	0	C	1	0	1276	0	poli_8sides 20_whiteLine3.jpg	Long_b01_cut2_L_mono_resampled.wav
4	176	3	3	2	I	1	0	1481	0	poli_8sides 6_whiteLine3.jpg	Long_s10_cut2_l_mono_resampled.wav
4	177	2	1	0	C	1	0	1446	0	poli_8sides 20_whiteLine3.jpg	Long_b01_cut2_L_mono_resampled.wav
4	178	1	1	1	C	1	1	834	1	poli_8sides 12_whiteLine3.jpg	Long_b01_cut2_L_mono_resampled.wav
4	179	3	3	2	I	1	0	1500	0	poli_8sides 6_whiteLine3.jpg	Long_s10_cut2_l_mono_resampled.wav
4	180	4	4	2	I	1	0	1608	0	poli_8sides 1_whiteLine3.jpg	Long_e24_cut1_mono_resampled.wav
4	181	2	2	1	C	2	0	1033	0	poli_8sides 20_whiteLine3.jpg	Long_e17_cut2_mono_resampled.wav
4	182	1	2	0	C	1	0	847	0	poli_8sides 12_whiteLine3.jpg	Long_e17_cut2_mono_resampled.wav
4	183	4	3	2	I	1	0	1149	1	poli_8sides 1_whiteLine3.jpg	Long_s10_cut2_l_mono_resampled.wav
4	184	3	4	2	I	1	0	1614	0	poli_8sides 6_whiteLine3.jpg	Long_e24_cut1_mono_resampled.wav
4	185	4	3	2	I	1	0	1319	0	poli_8sides 1_whiteLine3.jpg	Long_s10_cut2_l_mono_resampled.wav
4	186	1	2	0	C	2	1	880	1	poli_8sides 12_whiteLine3.jpg	Long_e17_cut2_mono_resampled.wav
4	187	2	1	0	C	2	1	1217	1	poli_8sides 20_whiteLine3.jpg	Long_b01_cut2_L_mono_resampled.wav
4	188	3	3	2	I	1	0	1339	0	poli_8sides 6_whiteLine3.jpg	Long_s10_cut2_l_mono_resampled.wav
4	189	4	4	2	I	1	0	839	0	poli_8sides 1_whiteLine3.jpg	Long_e24_cut1_mono_resampled.wav
4	190	1	1	1	C	1	1	1396	1	poli_8sides 12_whiteLine3.jpg	Long_b01_cut2_L_mono_resampled.wav
4	191	3	4	2	I	1	0	1001	1	poli_8sides 6_whiteLine3.jpg	Long_e24_cut1_mono_resampled.wav
4	192	2	2	1	C	2	0	1657	0	poli_8sides 20_whiteLine3.jpg	Long_e17_cut2_mono_resampled.wav
4	193	4	4	2	I	1	0	1439	0	poli_8sides 1_whiteLine3.jpg	Long_e24_cut1_mono_resampled.wav
4	194	3	3	2	I	2	0	1208	0	poli_8sides 6_whiteLine3.jpg	Long_s10_cut2_l_mono_resampled.wav
4	195	2	1	0	C	1	0	1322	0	poli_8sides 20_whiteLine3.jpg	Long_b01_cut2_L_mono_resampled.wav
4	196	1	1	1	C	2	0	1086	0	poli_8sides 12_whiteLine3.jpg	Long_b01_cut2_L_mono_resampled.wav
4	197	2	2	1	C	1	1	1433	1	poli_8sides 20_whiteLine3.jpg	Long_e17_cut2_mono_resampled.wav
4	198	4	3	2	I	1	0	1423	0	poli_8sides 1_whiteLine3.jpg	Long_s10_cut2_l_mono_resampled.wav
4	199	1	2	0	C	2	1	1097	1	poli_8sides 12_whiteLine3.jpg	Long_e17_cut2_mono_resampled.wav
4	200	3	4	2	I	1	0	1158	0	poli_8sides 6_whiteLine3.jpg	Long_e24_cut1_mono_resampled.wav
