block	trial	Vstim	Astim	match	C/I	resp	result	RT	fb	V-file	A-file
LR

0	1	1	1	1	C	1	0	1857	0	poli_8sides 21_whiteLine3.jpg	Practice2_b27_cut2_stereo_44KHz.wav
0	2	2	4	0	C	1	1	955	1	poli_8sides 22_whiteLine3.jpg	Practice1_b27_cut1_stereo_44KHz.wav
0	3	1	2	0	C	2	0	1006	0	poli_8sides 21_whiteLine3.jpg	Practice3_b26_cut1_stereo_44KHz.wav
0	4	2	3	1	C	1	0	314	0	poli_8sides 22_whiteLine3.jpg	Practice4_b26_stereo_44KHz.wav
0	5	2	3	1	C	1	0	372	0	poli_8sides 22_whiteLine3.jpg	Practice4_b26_stereo_44KHz.wav
0	6	1	2	0	C	2	0	935	0	poli_8sides 21_whiteLine3.jpg	Practice3_b26_cut1_stereo_44KHz.wav
0	7	2	4	0	C	1	1	752	1	poli_8sides 22_whiteLine3.jpg	Practice1_b27_cut1_stereo_44KHz.wav
0	8	1	1	1	C	1	0	387	0	poli_8sides 21_whiteLine3.jpg	Practice2_b27_cut2_stereo_44KHz.wav
0	9	1	1	1	C	2	1	1260	1	poli_8sides 21_whiteLine3.jpg	Practice2_b27_cut2_stereo_44KHz.wav
0	10	1	2	0	C	1	1	1167	1	poli_8sides 21_whiteLine3.jpg	Practice3_b26_cut1_stereo_44KHz.wav
0	11	2	3	1	C	2	1	958	1	poli_8sides 22_whiteLine3.jpg	Practice4_b26_stereo_44KHz.wav
0	12	2	4	0	C	1	1	645	1	poli_8sides 22_whiteLine3.jpg	Practice1_b27_cut1_stereo_44KHz.wav
0	13	1	2	0	C	2	0	799	0	poli_8sides 21_whiteLine3.jpg	Practice3_b26_cut1_stereo_44KHz.wav
0	14	1	1	1	C	2	1	1281	1	poli_8sides 21_whiteLine3.jpg	Practice2_b27_cut2_stereo_44KHz.wav
0	15	2	4	0	C	1	1	563	1	poli_8sides 22_whiteLine3.jpg	Practice1_b27_cut1_stereo_44KHz.wav
0	16	2	3	1	C	2	1	1056	1	poli_8sides 22_whiteLine3.jpg	Practice4_b26_stereo_44KHz.wav
0	17	2	3	1	C	1	0	643	0	poli_8sides 22_whiteLine3.jpg	Practice4_b26_stereo_44KHz.wav
0	18	1	1	1	C	1	0	779	0	poli_8sides 21_whiteLine3.jpg	Practice2_b27_cut2_stereo_44KHz.wav
0	19	2	4	0	C	1	1	931	1	poli_8sides 22_whiteLine3.jpg	Practice1_b27_cut1_stereo_44KHz.wav
0	20	1	2	0	C	2	0	611	0	poli_8sides 21_whiteLine3.jpg	Practice3_b26_cut1_stereo_44KHz.wav
0	21	2	3	1	C	1	0	733	0	poli_8sides 22_whiteLine3.jpg	Practice4_b26_stereo_44KHz.wav
0	22	2	4	0	C	1	1	675	1	poli_8sides 22_whiteLine3.jpg	Practice1_b27_cut1_stereo_44KHz.wav
0	23	1	2	0	C	1	1	1076	1	poli_8sides 21_whiteLine3.jpg	Practice3_b26_cut1_stereo_44KHz.wav
0	24	1	1	1	C	2	1	845	1	poli_8sides 21_whiteLine3.jpg	Practice2_b27_cut2_stereo_44KHz.wav
0	25	2	4	0	C	1	1	728	1	poli_8sides 22_whiteLine3.jpg	Practice1_b27_cut1_stereo_44KHz.wav
0	26	1	2	0	C	1	1	846	1	poli_8sides 21_whiteLine3.jpg	Practice3_b26_cut1_stereo_44KHz.wav
0	27	2	3	1	C	1	0	863	0	poli_8sides 22_whiteLine3.jpg	Practice4_b26_stereo_44KHz.wav
0	28	1	1	1	C	2	1	1298	1	poli_8sides 21_whiteLine3.jpg	Practice2_b27_cut2_stereo_44KHz.wav
0	29	1	1	1	C	1	0	930	0	poli_8sides 21_whiteLine3.jpg	Practice2_b27_cut2_stereo_44KHz.wav
0	30	1	2	0	C	1	1	773	1	poli_8sides 21_whiteLine3.jpg	Practice3_b26_cut1_stereo_44KHz.wav
avg_resp = 930
1	1	3	3	2	I	1	0	1481	0	poli_8sides 13_whiteLine3.jpg	Short_b22_cut1_stereo_44KHz.wav
1	2	4	3	2	I	1	0	883	1	poli_8sides 10_whiteLine3.jpg	Short_b22_cut1_stereo_44KHz.wav
1	3	2	1	0	C	2	0	912	0	poli_8sides 7_whiteLine3.jpg	Short_b09_cut1_stereo_44KHz.wav
1	4	1	1	1	C	2	1	1436	1	poli_8sides 2_whiteLine3.jpg	Short_b09_cut1_stereo_44KHz.wav
1	5	2	2	1	C	1	0	796	0	poli_8sides 7_whiteLine3.jpg	Short_b23_cut1_stereo_44KHz.wav
1	6	3	4	2	I	2	0	958	0	poli_8sides 13_whiteLine3.jpg	Short_b20_cut1_stereo_44KHz.wav
1	7	4	4	2	I	1	0	557	1	poli_8sides 10_whiteLine3.jpg	Short_b20_cut1_stereo_44KHz.wav
1	8	1	2	0	C	1	1	626	1	poli_8sides 2_whiteLine3.jpg	Short_b23_cut1_stereo_44KHz.wav
1	9	3	3	2	I	2	0	848	0	poli_8sides 13_whiteLine3.jpg	Short_b22_cut1_stereo_44KHz.wav
1	10	4	3	2	I	1	0	817	1	poli_8sides 10_whiteLine3.jpg	Short_b22_cut1_stereo_44KHz.wav
1	11	2	2	1	C	1	0	683	0	poli_8sides 7_whiteLine3.jpg	Short_b23_cut1_stereo_44KHz.wav
1	12	1	2	0	C	1	1	653	1	poli_8sides 2_whiteLine3.jpg	Short_b23_cut1_stereo_44KHz.wav
1	13	4	4	2	I	2	0	840	1	poli_8sides 10_whiteLine3.jpg	Short_b20_cut1_stereo_44KHz.wav
1	14	3	4	2	I	2	0	875	0	poli_8sides 13_whiteLine3.jpg	Short_b20_cut1_stereo_44KHz.wav
1	15	2	1	0	C	2	0	1104	0	poli_8sides 7_whiteLine3.jpg	Short_b09_cut1_stereo_44KHz.wav
1	16	1	1	1	C	2	1	1032	1	poli_8sides 2_whiteLine3.jpg	Short_b09_cut1_stereo_44KHz.wav
1	17	3	4	2	I	1	0	799	1	poli_8sides 13_whiteLine3.jpg	Short_b20_cut1_stereo_44KHz.wav
1	18	1	1	1	C	1	0	861	0	poli_8sides 2_whiteLine3.jpg	Short_b09_cut1_stereo_44KHz.wav
1	19	2	2	1	C	1	0	938	0	poli_8sides 7_whiteLine3.jpg	Short_b23_cut1_stereo_44KHz.wav
1	20	4	4	2	I	2	0	1344	1	poli_8sides 10_whiteLine3.jpg	Short_b20_cut1_stereo_44KHz.wav
1	21	3	3	2	I	1	0	966	0	poli_8sides 13_whiteLine3.jpg	Short_b22_cut1_stereo_44KHz.wav
1	22	4	3	2	I	1	0	874	0	poli_8sides 10_whiteLine3.jpg	Short_b22_cut1_stereo_44KHz.wav
1	23	1	2	0	C	1	1	1201	1	poli_8sides 2_whiteLine3.jpg	Short_b23_cut1_stereo_44KHz.wav
1	24	2	1	0	C	1	1	1229	1	poli_8sides 7_whiteLine3.jpg	Short_b09_cut1_stereo_44KHz.wav
1	25	1	1	1	C	2	1	693	1	poli_8sides 2_whiteLine3.jpg	Short_b09_cut1_stereo_44KHz.wav
1	26	3	4	2	I	1	0	1025	1	poli_8sides 13_whiteLine3.jpg	Short_b20_cut1_stereo_44KHz.wav
1	27	2	2	1	C	2	1	1035	1	poli_8sides 7_whiteLine3.jpg	Short_b23_cut1_stereo_44KHz.wav
1	28	4	3	2	I	2	0	1430	1	poli_8sides 10_whiteLine3.jpg	Short_b22_cut1_stereo_44KHz.wav
1	29	1	2	0	C	2	0	1053	0	poli_8sides 2_whiteLine3.jpg	Short_b23_cut1_stereo_44KHz.wav
1	30	4	4	2	I	2	0	1846	0	poli_8sides 10_whiteLine3.jpg	Short_b20_cut1_stereo_44KHz.wav
1	31	2	1	0	C	2	0	1077	0	poli_8sides 7_whiteLine3.jpg	Short_b09_cut1_stereo_44KHz.wav
1	32	3	3	2	I	1	0	387	0	poli_8sides 13_whiteLine3.jpg	Short_b22_cut1_stereo_44KHz.wav
1	33	2	2	1	C	1	0	549	0	poli_8sides 7_whiteLine3.jpg	Short_b23_cut1_stereo_44KHz.wav
1	34	4	4	2	I	1	0	1047	0	poli_8sides 10_whiteLine3.jpg	Short_b20_cut1_stereo_44KHz.wav
1	35	3	4	2	I	2	0	1321	0	poli_8sides 13_whiteLine3.jpg	Short_b20_cut1_stereo_44KHz.wav
1	36	1	1	1	C	1	0	1042	0	poli_8sides 2_whiteLine3.jpg	Short_b09_cut1_stereo_44KHz.wav
1	37	2	1	0	C	1	1	873	1	poli_8sides 7_whiteLine3.jpg	Short_b09_cut1_stereo_44KHz.wav
1	38	4	3	2	I	2	0	1332	0	poli_8sides 10_whiteLine3.jpg	Short_b22_cut1_stereo_44KHz.wav
1	39	1	2	0	C	2	0	1424	0	poli_8sides 2_whiteLine3.jpg	Short_b23_cut1_stereo_44KHz.wav
1	40	3	3	2	I	1	0	533	0	poli_8sides 13_whiteLine3.jpg	Short_b22_cut1_stereo_44KHz.wav
1	41	4	3	2	I	1	0	770	1	poli_8sides 10_whiteLine3.jpg	Short_b22_cut1_stereo_44KHz.wav
1	42	3	4	2	I	1	0	590	0	poli_8sides 13_whiteLine3.jpg	Short_b20_cut1_stereo_44KHz.wav
1	43	1	2	0	C	1	1	846	1	poli_8sides 2_whiteLine3.jpg	Short_b23_cut1_stereo_44KHz.wav
1	44	2	1	0	C	2	0	883	0	poli_8sides 7_whiteLine3.jpg	Short_b09_cut1_stereo_44KHz.wav
1	45	4	4	2	I	1	0	570	0	poli_8sides 10_whiteLine3.jpg	Short_b20_cut1_stereo_44KHz.wav
1	46	1	1	1	C	1	0	496	0	poli_8sides 2_whiteLine3.jpg	Short_b09_cut1_stereo_44KHz.wav
1	47	2	2	1	C	2	1	412	1	poli_8sides 7_whiteLine3.jpg	Short_b23_cut1_stereo_44KHz.wav
1	48	3	3	2	I	2	0	431	0	poli_8sides 13_whiteLine3.jpg	Short_b22_cut1_stereo_44KHz.wav
1	49	4	4	2	I	1	0	999	0	poli_8sides 10_whiteLine3.jpg	Short_b20_cut1_stereo_44KHz.wav
1	50	1	2	0	C	2	0	599	0	poli_8sides 2_whiteLine3.jpg	Short_b23_cut1_stereo_44KHz.wav
1	51	3	4	2	I	1	0	581	0	poli_8sides 13_whiteLine3.jpg	Short_b20_cut1_stereo_44KHz.wav
1	52	2	2	1	C	2	1	844	1	poli_8sides 7_whiteLine3.jpg	Short_b23_cut1_stereo_44KHz.wav
1	53	4	3	2	I	1	0	738	1	poli_8sides 10_whiteLine3.jpg	Short_b22_cut1_stereo_44KHz.wav
1	54	1	1	1	C	1	0	817	0	poli_8sides 2_whiteLine3.jpg	Short_b09_cut1_stereo_44KHz.wav
1	55	3	3	2	I	2	0	1029	1	poli_8sides 13_whiteLine3.jpg	Short_b22_cut1_stereo_44KHz.wav
1	56	2	1	0	C	2	0	1004	0	poli_8sides 7_whiteLine3.jpg	Short_b09_cut1_stereo_44KHz.wav
1	57	1	1	1	C	2	1	873	1	poli_8sides 2_whiteLine3.jpg	Short_b09_cut1_stereo_44KHz.wav
1	58	3	4	2	I	2	0	1056	0	poli_8sides 13_whiteLine3.jpg	Short_b20_cut1_stereo_44KHz.wav
1	59	2	2	1	C	1	0	974	0	poli_8sides 7_whiteLine3.jpg	Short_b23_cut1_stereo_44KHz.wav
1	60	4	3	2	I	2	0	1249	1	poli_8sides 10_whiteLine3.jpg	Short_b22_cut1_stereo_44KHz.wav
1	61	3	3	2	I	2	0	1465	1	poli_8sides 13_whiteLine3.jpg	Short_b22_cut1_stereo_44KHz.wav
1	62	4	4	2	I	1	0	663	1	poli_8sides 10_whiteLine3.jpg	Short_b20_cut1_stereo_44KHz.wav
1	63	1	2	0	C	2	0	842	0	poli_8sides 2_whiteLine3.jpg	Short_b23_cut1_stereo_44KHz.wav
1	64	2	1	0	C	2	0	907	0	poli_8sides 7_whiteLine3.jpg	Short_b09_cut1_stereo_44KHz.wav
1	65	1	2	0	C	1	1	438	1	poli_8sides 2_whiteLine3.jpg	Short_b23_cut1_stereo_44KHz.wav
1	66	3	4	2	I	2	0	935	1	poli_8sides 13_whiteLine3.jpg	Short_b20_cut1_stereo_44KHz.wav
1	67	4	4	2	I	2	0	809	0	poli_8sides 10_whiteLine3.jpg	Short_b20_cut1_stereo_44KHz.wav
1	68	2	2	1	C	1	0	697	0	poli_8sides 7_whiteLine3.jpg	Short_b23_cut1_stereo_44KHz.wav
1	69	1	1	1	C	2	1	935	1	poli_8sides 2_whiteLine3.jpg	Short_b09_cut1_stereo_44KHz.wav
1	70	4	3	2	I	1	0	679	1	poli_8sides 10_whiteLine3.jpg	Short_b22_cut1_stereo_44KHz.wav
1	71	3	3	2	I	2	0	817	0	poli_8sides 13_whiteLine3.jpg	Short_b22_cut1_stereo_44KHz.wav
1	72	2	1	0	C	1	1	486	1	poli_8sides 7_whiteLine3.jpg	Short_b09_cut1_stereo_44KHz.wav
1	73	1	1	1	C	2	1	917	1	poli_8sides 2_whiteLine3.jpg	Short_b09_cut1_stereo_44KHz.wav
1	74	2	2	1	C	1	0	816	0	poli_8sides 7_whiteLine3.jpg	Short_b23_cut1_stereo_44KHz.wav
1	75	3	4	2	I	2	0	571	1	poli_8sides 13_whiteLine3.jpg	Short_b20_cut1_stereo_44KHz.wav
1	76	4	3	2	I	1	0	850	0	poli_8sides 10_whiteLine3.jpg	Short_b22_cut1_stereo_44KHz.wav
1	77	2	1	0	C	1	1	804	1	poli_8sides 7_whiteLine3.jpg	Short_b09_cut1_stereo_44KHz.wav
1	78	1	2	0	C	1	1	819	1	poli_8sides 2_whiteLine3.jpg	Short_b23_cut1_stereo_44KHz.wav
1	79	3	3	2	I	2	0	490	1	poli_8sides 13_whiteLine3.jpg	Short_b22_cut1_stereo_44KHz.wav
1	80	4	4	2	I	1	0	404	1	poli_8sides 10_whiteLine3.jpg	Short_b20_cut1_stereo_44KHz.wav
1	81	3	3	2	I	1	0	811	1	poli_8sides 13_whiteLine3.jpg	Short_b22_cut1_stereo_44KHz.wav
1	82	1	1	1	C	2	1	1031	1	poli_8sides 2_whiteLine3.jpg	Short_b09_cut1_stereo_44KHz.wav
1	83	4	3	2	I	1	0	828	1	poli_8sides 10_whiteLine3.jpg	Short_b22_cut1_stereo_44KHz.wav
1	84	2	1	0	C	1	1	693	1	poli_8sides 7_whiteLine3.jpg	Short_b09_cut1_stereo_44KHz.wav
1	85	3	4	2	I	2	0	793	0	poli_8sides 13_whiteLine3.jpg	Short_b20_cut1_stereo_44KHz.wav
1	86	1	2	0	C	1	1	621	1	poli_8sides 2_whiteLine3.jpg	Short_b23_cut1_stereo_44KHz.wav
1	87	4	4	2	I	2	0	976	1	poli_8sides 10_whiteLine3.jpg	Short_b20_cut1_stereo_44KHz.wav
1	88	2	2	1	C	1	0	778	0	poli_8sides 7_whiteLine3.jpg	Short_b23_cut1_stereo_44KHz.wav
1	89	1	1	1	C	2	1	1011	1	poli_8sides 2_whiteLine3.jpg	Short_b09_cut1_stereo_44KHz.wav
1	90	3	3	2	I	1	0	706	1	poli_8sides 13_whiteLine3.jpg	Short_b22_cut1_stereo_44KHz.wav
1	91	4	4	2	I	2	0	847	1	poli_8sides 10_whiteLine3.jpg	Short_b20_cut1_stereo_44KHz.wav
1	92	2	1	0	C	1	1	761	1	poli_8sides 7_whiteLine3.jpg	Short_b09_cut1_stereo_44KHz.wav
1	93	1	2	0	C	1	1	592	1	poli_8sides 2_whiteLine3.jpg	Short_b23_cut1_stereo_44KHz.wav
1	94	3	4	2	I	2	0	727	1	poli_8sides 13_whiteLine3.jpg	Short_b20_cut1_stereo_44KHz.wav
1	95	2	2	1	C	1	0	589	0	poli_8sides 7_whiteLine3.jpg	Short_b23_cut1_stereo_44KHz.wav
1	96	4	3	2	I	1	0	447	1	poli_8sides 10_whiteLine3.jpg	Short_b22_cut1_stereo_44KHz.wav
1	97	1	1	1	C	2	1	385	1	poli_8sides 2_whiteLine3.jpg	Short_b09_cut1_stereo_44KHz.wav
1	98	2	1	0	C	1	1	632	1	poli_8sides 7_whiteLine3.jpg	Short_b09_cut1_stereo_44KHz.wav
1	99	4	3	2	I	1	0	622	0	poli_8sides 10_whiteLine3.jpg	Short_b22_cut1_stereo_44KHz.wav
1	100	3	3	2	I	2	0	473	1	poli_8sides 13_whiteLine3.jpg	Short_b22_cut1_stereo_44KHz.wav
1	101	1	2	0	C	2	0	553	0	poli_8sides 2_whiteLine3.jpg	Short_b23_cut1_stereo_44KHz.wav
1	102	2	2	1	C	1	0	535	0	poli_8sides 7_whiteLine3.jpg	Short_b23_cut1_stereo_44KHz.wav
1	103	4	4	2	I	2	0	911	0	poli_8sides 10_whiteLine3.jpg	Short_b20_cut1_stereo_44KHz.wav
1	104	3	4	2	I	2	0	681	0	poli_8sides 13_whiteLine3.jpg	Short_b20_cut1_stereo_44KHz.wav
1	105	4	4	2	I	1	0	486	0	poli_8sides 10_whiteLine3.jpg	Short_b20_cut1_stereo_44KHz.wav
1	106	1	1	1	C	1	0	730	0	poli_8sides 2_whiteLine3.jpg	Short_b09_cut1_stereo_44KHz.wav
1	107	3	4	2	I	2	0	1357	1	poli_8sides 13_whiteLine3.jpg	Short_b20_cut1_stereo_44KHz.wav
1	108	2	2	1	C	1	0	741	0	poli_8sides 7_whiteLine3.jpg	Short_b23_cut1_stereo_44KHz.wav
1	109	1	2	0	C	1	1	503	1	poli_8sides 2_whiteLine3.jpg	Short_b23_cut1_stereo_44KHz.wav
1	110	4	3	2	I	1	0	621	1	poli_8sides 10_whiteLine3.jpg	Short_b22_cut1_stereo_44KHz.wav
1	111	2	1	0	C	1	1	594	1	poli_8sides 7_whiteLine3.jpg	Short_b09_cut1_stereo_44KHz.wav
1	112	3	3	2	I	2	0	832	0	poli_8sides 13_whiteLine3.jpg	Short_b22_cut1_stereo_44KHz.wav
1	113	1	1	1	C	1	0	460	0	poli_8sides 2_whiteLine3.jpg	Short_b09_cut1_stereo_44KHz.wav
1	114	2	2	1	C	1	0	535	0	poli_8sides 7_whiteLine3.jpg	Short_b23_cut1_stereo_44KHz.wav
1	115	3	4	2	I	2	0	668	0	poli_8sides 13_whiteLine3.jpg	Short_b20_cut1_stereo_44KHz.wav
1	116	4	4	2	I	2	0	865	0	poli_8sides 10_whiteLine3.jpg	Short_b20_cut1_stereo_44KHz.wav
1	117	3	3	2	I	1	0	609	1	poli_8sides 13_whiteLine3.jpg	Short_b22_cut1_stereo_44KHz.wav
1	118	4	3	2	I	1	0	532	0	poli_8sides 10_whiteLine3.jpg	Short_b22_cut1_stereo_44KHz.wav
1	119	2	1	0	C	2	0	850	0	poli_8sides 7_whiteLine3.jpg	Short_b09_cut1_stereo_44KHz.wav
1	120	1	2	0	C	1	1	1540	1	poli_8sides 2_whiteLine3.jpg	Short_b23_cut1_stereo_44KHz.wav
1	121	3	3	2	I	2	0	844	0	poli_8sides 13_whiteLine3.jpg	Short_b22_cut1_stereo_44KHz.wav
1	122	4	3	2	I	1	0	680	0	poli_8sides 10_whiteLine3.jpg	Short_b22_cut1_stereo_44KHz.wav
1	123	2	1	0	C	1	1	554	1	poli_8sides 7_whiteLine3.jpg	Short_b09_cut1_stereo_44KHz.wav
1	124	1	2	0	C	2	0	1000	0	poli_8sides 2_whiteLine3.jpg	Short_b23_cut1_stereo_44KHz.wav
1	125	3	4	2	I	1	0	511	1	poli_8sides 13_whiteLine3.jpg	Short_b20_cut1_stereo_44KHz.wav
1	126	2	2	1	C	1	0	495	0	poli_8sides 7_whiteLine3.jpg	Short_b23_cut1_stereo_44KHz.wav
1	127	4	4	2	I	2	0	811	1	poli_8sides 10_whiteLine3.jpg	Short_b20_cut1_stereo_44KHz.wav
1	128	1	1	1	C	1	0	870	0	poli_8sides 2_whiteLine3.jpg	Short_b09_cut1_stereo_44KHz.wav
1	129	4	3	2	I	2	0	467	0	poli_8sides 10_whiteLine3.jpg	Short_b22_cut1_stereo_44KHz.wav
1	130	2	2	1	C	1	0	384	0	poli_8sides 7_whiteLine3.jpg	Short_b23_cut1_stereo_44KHz.wav
1	131	3	3	2	I	2	0	501	0	poli_8sides 13_whiteLine3.jpg	Short_b22_cut1_stereo_44KHz.wav
1	132	1	2	0	C	1	1	805	1	poli_8sides 2_whiteLine3.jpg	Short_b23_cut1_stereo_44KHz.wav
1	133	3	4	2	I	2	0	1025	0	poli_8sides 13_whiteLine3.jpg	Short_b20_cut1_stereo_44KHz.wav
1	134	2	1	0	C	1	1	384	1	poli_8sides 7_whiteLine3.jpg	Short_b09_cut1_stereo_44KHz.wav
1	135	4	4	2	I	2	0	928	0	poli_8sides 10_whiteLine3.jpg	Short_b20_cut1_stereo_44KHz.wav
1	136	1	1	1	C	1	0	770	0	poli_8sides 2_whiteLine3.jpg	Short_b09_cut1_stereo_44KHz.wav
1	137	4	4	2	I	1	0	811	0	poli_8sides 10_whiteLine3.jpg	Short_b20_cut1_stereo_44KHz.wav
1	138	3	4	2	I	1	0	776	1	poli_8sides 13_whiteLine3.jpg	Short_b20_cut1_stereo_44KHz.wav
1	139	2	1	0	C	2	0	802	0	poli_8sides 7_whiteLine3.jpg	Short_b09_cut1_stereo_44KHz.wav
1	140	1	2	0	C	2	0	981	0	poli_8sides 2_whiteLine3.jpg	Short_b23_cut1_stereo_44KHz.wav
1	141	4	3	2	I	1	0	510	1	poli_8sides 10_whiteLine3.jpg	Short_b22_cut1_stereo_44KHz.wav
1	142	1	1	1	C	1	0	583	0	poli_8sides 2_whiteLine3.jpg	Short_b09_cut1_stereo_44KHz.wav
1	143	3	3	2	I	1	0	395	1	poli_8sides 13_whiteLine3.jpg	Short_b22_cut1_stereo_44KHz.wav
1	144	2	2	1	C	1	0	969	0	poli_8sides 7_whiteLine3.jpg	Short_b23_cut1_stereo_44KHz.wav
1	145	3	4	2	I	2	0	871	1	poli_8sides 13_whiteLine3.jpg	Short_b20_cut1_stereo_44KHz.wav
1	146	4	3	2	I	1	0	654	0	poli_8sides 10_whiteLine3.jpg	Short_b22_cut1_stereo_44KHz.wav
1	147	1	1	1	C	2	1	863	1	poli_8sides 2_whiteLine3.jpg	Short_b09_cut1_stereo_44KHz.wav
1	148	2	2	1	C	1	0	807	0	poli_8sides 7_whiteLine3.jpg	Short_b23_cut1_stereo_44KHz.wav
1	149	1	2	0	C	1	1	909	1	poli_8sides 2_whiteLine3.jpg	Short_b23_cut1_stereo_44KHz.wav
1	150	2	1	0	C	2	0	935	0	poli_8sides 7_whiteLine3.jpg	Short_b09_cut1_stereo_44KHz.wav
1	151	3	3	2	I	1	0	1019	1	poli_8sides 13_whiteLine3.jpg	Short_b22_cut1_stereo_44KHz.wav
1	152	4	4	2	I	2	0	1152	1	poli_8sides 10_whiteLine3.jpg	Short_b20_cut1_stereo_44KHz.wav
1	153	1	1	1	C	2	1	808	1	poli_8sides 2_whiteLine3.jpg	Short_b09_cut1_stereo_44KHz.wav
1	154	4	4	2	I	2	0	809	0	poli_8sides 10_whiteLine3.jpg	Short_b20_cut1_stereo_44KHz.wav
1	155	2	1	0	C	1	1	1230	1	poli_8sides 7_whiteLine3.jpg	Short_b09_cut1_stereo_44KHz.wav
1	156	3	3	2	I	2	0	835	1	poli_8sides 13_whiteLine3.jpg	Short_b22_cut1_stereo_44KHz.wav
1	157	2	2	1	C	1	0	808	0	poli_8sides 7_whiteLine3.jpg	Short_b23_cut1_stereo_44KHz.wav
1	158	3	4	2	I	2	0	628	1	poli_8sides 13_whiteLine3.jpg	Short_b20_cut1_stereo_44KHz.wav
1	159	1	2	0	C	2	0	781	0	poli_8sides 2_whiteLine3.jpg	Short_b23_cut1_stereo_44KHz.wav
1	160	4	3	2	I	1	0	931	1	poli_8sides 10_whiteLine3.jpg	Short_b22_cut1_stereo_44KHz.wav
1	161	3	3	2	I	2	0	652	0	poli_8sides 13_whiteLine3.jpg	Short_b22_cut1_stereo_44KHz.wav
1	162	4	3	2	I	1	0	644	1	poli_8sides 10_whiteLine3.jpg	Short_b22_cut1_stereo_44KHz.wav
1	163	2	2	1	C	1	0	897	0	poli_8sides 7_whiteLine3.jpg	Short_b23_cut1_stereo_44KHz.wav
1	164	1	2	0	C	1	1	588	1	poli_8sides 2_whiteLine3.jpg	Short_b23_cut1_stereo_44KHz.wav
1	165	3	4	2	I	2	0	782	1	poli_8sides 13_whiteLine3.jpg	Short_b20_cut1_stereo_44KHz.wav
1	166	4	4	2	I	2	0	738	0	poli_8sides 10_whiteLine3.jpg	Short_b20_cut1_stereo_44KHz.wav
1	167	1	1	1	C	1	0	751	0	poli_8sides 2_whiteLine3.jpg	Short_b09_cut1_stereo_44KHz.wav
1	168	2	1	0	C	1	1	666	1	poli_8sides 7_whiteLine3.jpg	Short_b09_cut1_stereo_44KHz.wav
1	169	3	3	2	I	2	0	922	0	poli_8sides 13_whiteLine3.jpg	Short_b22_cut1_stereo_44KHz.wav
1	170	4	4	2	I	2	0	467	0	poli_8sides 10_whiteLine3.jpg	Short_b20_cut1_stereo_44KHz.wav
1	171	1	1	1	C	2	1	610	1	poli_8sides 2_whiteLine3.jpg	Short_b09_cut1_stereo_44KHz.wav
1	172	2	1	0	C	1	1	761	1	poli_8sides 7_whiteLine3.jpg	Short_b09_cut1_stereo_44KHz.wav
1	173	3	4	2	I	1	0	1194	1	poli_8sides 13_whiteLine3.jpg	Short_b20_cut1_stereo_44KHz.wav
1	174	2	2	1	C	2	1	642	1	poli_8sides 7_whiteLine3.jpg	Short_b23_cut1_stereo_44KHz.wav
1	175	4	3	2	I	1	0	648	0	poli_8sides 10_whiteLine3.jpg	Short_b22_cut1_stereo_44KHz.wav
1	176	1	2	0	C	2	0	723	0	poli_8sides 2_whiteLine3.jpg	Short_b23_cut1_stereo_44KHz.wav
1	177	4	3	2	I	1	0	579	0	poli_8sides 10_whiteLine3.jpg	Short_b22_cut1_stereo_44KHz.wav
1	178	1	2	0	C	1	1	763	1	poli_8sides 2_whiteLine3.jpg	Short_b23_cut1_stereo_44KHz.wav
1	179	2	2	1	C	2	1	807	1	poli_8sides 7_whiteLine3.jpg	Short_b23_cut1_stereo_44KHz.wav
1	180	3	3	2	I	1	0	905	0	poli_8sides 13_whiteLine3.jpg	Short_b22_cut1_stereo_44KHz.wav
1	181	4	4	2	I	2	0	1196	1	poli_8sides 10_whiteLine3.jpg	Short_b20_cut1_stereo_44KHz.wav
1	182	1	1	1	C	1	0	653	0	poli_8sides 2_whiteLine3.jpg	Short_b09_cut1_stereo_44KHz.wav
1	183	3	4	2	I	1	0	1228	1	poli_8sides 13_whiteLine3.jpg	Short_b20_cut1_stereo_44KHz.wav
1	184	2	1	0	C	1	1	1173	1	poli_8sides 7_whiteLine3.jpg	Short_b09_cut1_stereo_44KHz.wav
1	185	1	2	0	C	1	1	908	1	poli_8sides 2_whiteLine3.jpg	Short_b23_cut1_stereo_44KHz.wav
1	186	4	4	2	I	1	0	851	0	poli_8sides 10_whiteLine3.jpg	Short_b20_cut1_stereo_44KHz.wav
1	187	3	3	2	I	1	0	662	0	poli_8sides 13_whiteLine3.jpg	Short_b22_cut1_stereo_44KHz.wav
1	188	2	2	1	C	1	0	969	0	poli_8sides 7_whiteLine3.jpg	Short_b23_cut1_stereo_44KHz.wav
1	189	4	3	2	I	1	0	985	1	poli_8sides 10_whiteLine3.jpg	Short_b22_cut1_stereo_44KHz.wav
1	190	3	4	2	I	1	0	963	1	poli_8sides 13_whiteLine3.jpg	Short_b20_cut1_stereo_44KHz.wav
1	191	1	1	1	C	1	0	640	0	poli_8sides 2_whiteLine3.jpg	Short_b09_cut1_stereo_44KHz.wav
1	192	2	1	0	C	1	1	922	1	poli_8sides 7_whiteLine3.jpg	Short_b09_cut1_stereo_44KHz.wav
1	193	1	2	0	C	1	1	701	1	poli_8sides 2_whiteLine3.jpg	Short_b23_cut1_stereo_44KHz.wav
1	194	4	3	2	I	1	0	751	1	poli_8sides 10_whiteLine3.jpg	Short_b22_cut1_stereo_44KHz.wav
1	195	2	2	1	C	2	1	1207	1	poli_8sides 7_whiteLine3.jpg	Short_b23_cut1_stereo_44KHz.wav
1	196	3	4	2	I	1	0	861	1	poli_8sides 13_whiteLine3.jpg	Short_b20_cut1_stereo_44KHz.wav
1	197	2	1	0	C	1	1	868	1	poli_8sides 7_whiteLine3.jpg	Short_b09_cut1_stereo_44KHz.wav
1	198	3	3	2	I	1	0	731	0	poli_8sides 13_whiteLine3.jpg	Short_b22_cut1_stereo_44KHz.wav
1	199	1	1	1	C	1	0	734	0	poli_8sides 2_whiteLine3.jpg	Short_b09_cut1_stereo_44KHz.wav
1	200	4	4	2	I	1	0	870	0	poli_8sides 10_whiteLine3.jpg	Short_b20_cut1_stereo_44KHz.wav
2	1	2	1	0	C	0	0	0	0	poli_8sides 12_whiteLine3.jpg	Medium_e01_cut1_stereo_44KHz.wav
2	2	3	4	2	I	1	0	673	1	poli_8sides 5_whiteLine3.jpg	Medium_e13_stereo_44KHz.wav
2	3	1	2	0	C	2	0	847	0	poli_8sides 8_whiteLine3.jpg	Medium_e26_stereo_44KHz.wav
2	4	4	4	2	I	2	0	790	1	poli_8sides 16_whiteLine3.jpg	Medium_e13_stereo_44KHz.wav
2	5	1	1	1	C	1	0	623	0	poli_8sides 8_whiteLine3.jpg	Medium_e01_cut1_stereo_44KHz.wav
2	6	4	3	2	I	2	0	882	0	poli_8sides 16_whiteLine3.jpg	MediumLong_e04_stereo_44KHz.wav
2	7	3	3	2	I	2	0	984	1	poli_8sides 5_whiteLine3.jpg	MediumLong_e04_stereo_44KHz.wav
2	8	2	2	1	C	1	0	980	0	poli_8sides 12_whiteLine3.jpg	Medium_e26_stereo_44KHz.wav
2	9	3	3	2	I	2	0	826	0	poli_8sides 5_whiteLine3.jpg	MediumLong_e04_stereo_44KHz.wav
2	10	1	2	0	C	1	1	900	1	poli_8sides 8_whiteLine3.jpg	Medium_e26_stereo_44KHz.wav
2	11	4	4	2	I	1	0	862	0	poli_8sides 16_whiteLine3.jpg	Medium_e13_stereo_44KHz.wav
2	12	2	2	1	C	1	0	809	0	poli_8sides 12_whiteLine3.jpg	Medium_e26_stereo_44KHz.wav
2	13	1	1	1	C	2	1	976	1	poli_8sides 8_whiteLine3.jpg	Medium_e01_cut1_stereo_44KHz.wav
2	14	4	3	2	I	1	0	768	0	poli_8sides 16_whiteLine3.jpg	MediumLong_e04_stereo_44KHz.wav
2	15	3	4	2	I	2	0	1441	1	poli_8sides 5_whiteLine3.jpg	Medium_e13_stereo_44KHz.wav
2	16	2	1	0	C	1	1	721	1	poli_8sides 12_whiteLine3.jpg	Medium_e01_cut1_stereo_44KHz.wav
2	17	1	2	0	C	2	0	936	0	poli_8sides 8_whiteLine3.jpg	Medium_e26_stereo_44KHz.wav
2	18	4	4	2	I	1	0	914	1	poli_8sides 16_whiteLine3.jpg	Medium_e13_stereo_44KHz.wav
2	19	3	4	2	I	2	0	1120	1	poli_8sides 5_whiteLine3.jpg	Medium_e13_stereo_44KHz.wav
2	20	2	2	1	C	1	0	940	0	poli_8sides 12_whiteLine3.jpg	Medium_e26_stereo_44KHz.wav
2	21	3	3	2	I	1	0	896	1	poli_8sides 5_whiteLine3.jpg	MediumLong_e04_stereo_44KHz.wav
2	22	2	1	0	C	1	1	707	1	poli_8sides 12_whiteLine3.jpg	Medium_e01_cut1_stereo_44KHz.wav
2	23	1	1	1	C	2	1	829	1	poli_8sides 8_whiteLine3.jpg	Medium_e01_cut1_stereo_44KHz.wav
2	24	4	3	2	I	2	0	918	0	poli_8sides 16_whiteLine3.jpg	MediumLong_e04_stereo_44KHz.wav
2	25	2	2	1	C	1	0	775	0	poli_8sides 12_whiteLine3.jpg	Medium_e26_stereo_44KHz.wav
2	26	3	4	2	I	2	0	801	1	poli_8sides 5_whiteLine3.jpg	Medium_e13_stereo_44KHz.wav
2	27	4	3	2	I	1	0	753	1	poli_8sides 16_whiteLine3.jpg	MediumLong_e04_stereo_44KHz.wav
2	28	1	2	0	C	2	0	1012	0	poli_8sides 8_whiteLine3.jpg	Medium_e26_stereo_44KHz.wav
2	29	4	4	2	I	1	0	765	0	poli_8sides 16_whiteLine3.jpg	Medium_e13_stereo_44KHz.wav
2	30	3	3	2	I	1	0	565	0	poli_8sides 5_whiteLine3.jpg	MediumLong_e04_stereo_44KHz.wav
2	31	1	1	1	C	1	0	1005	0	poli_8sides 8_whiteLine3.jpg	Medium_e01_cut1_stereo_44KHz.wav
2	32	2	1	0	C	1	1	493	1	poli_8sides 12_whiteLine3.jpg	Medium_e01_cut1_stereo_44KHz.wav
2	33	1	1	1	C	2	1	586	1	poli_8sides 8_whiteLine3.jpg	Medium_e01_cut1_stereo_44KHz.wav
2	34	2	1	0	C	1	1	496	1	poli_8sides 12_whiteLine3.jpg	Medium_e01_cut1_stereo_44KHz.wav
2	35	3	3	2	I	1	0	678	1	poli_8sides 5_whiteLine3.jpg	MediumLong_e04_stereo_44KHz.wav
2	36	4	3	2	I	1	0	652	0	poli_8sides 16_whiteLine3.jpg	MediumLong_e04_stereo_44KHz.wav
2	37	1	2	0	C	1	1	1096	1	poli_8sides 8_whiteLine3.jpg	Medium_e26_stereo_44KHz.wav
2	38	4	4	2	I	1	0	617	0	poli_8sides 16_whiteLine3.jpg	Medium_e13_stereo_44KHz.wav
2	39	3	4	2	I	2	0	855	0	poli_8sides 5_whiteLine3.jpg	Medium_e13_stereo_44KHz.wav
2	40	2	2	1	C	2	1	1181	1	poli_8sides 12_whiteLine3.jpg	Medium_e26_stereo_44KHz.wav
2	41	1	1	1	C	1	0	574	0	poli_8sides 8_whiteLine3.jpg	Medium_e01_cut1_stereo_44KHz.wav
2	42	4	4	2	I	2	0	1186	0	poli_8sides 16_whiteLine3.jpg	Medium_e13_stereo_44KHz.wav
2	43	2	1	0	C	1	1	583	1	poli_8sides 12_whiteLine3.jpg	Medium_e01_cut1_stereo_44KHz.wav
2	44	3	4	2	I	1	0	653	0	poli_8sides 5_whiteLine3.jpg	Medium_e13_stereo_44KHz.wav
2	45	2	2	1	C	1	0	1139	0	poli_8sides 12_whiteLine3.jpg	Medium_e26_stereo_44KHz.wav
2	46	1	2	0	C	1	1	716	1	poli_8sides 8_whiteLine3.jpg	Medium_e26_stereo_44KHz.wav
2	47	3	3	2	I	2	0	615	1	poli_8sides 5_whiteLine3.jpg	MediumLong_e04_stereo_44KHz.wav
2	48	4	3	2	I	1	0	520	1	poli_8sides 16_whiteLine3.jpg	MediumLong_e04_stereo_44KHz.wav
2	49	1	1	1	C	1	0	584	0	poli_8sides 8_whiteLine3.jpg	Medium_e01_cut1_stereo_44KHz.wav
2	50	4	3	2	I	1	0	1064	1	poli_8sides 16_whiteLine3.jpg	MediumLong_e04_stereo_44KHz.wav
2	51	2	2	1	C	1	0	626	0	poli_8sides 12_whiteLine3.jpg	Medium_e26_stereo_44KHz.wav
2	52	3	4	2	I	2	0	1134	0	poli_8sides 5_whiteLine3.jpg	Medium_e13_stereo_44KHz.wav
2	53	1	2	0	C	1	1	619	1	poli_8sides 8_whiteLine3.jpg	Medium_e26_stereo_44KHz.wav
2	54	4	4	2	I	1	0	591	1	poli_8sides 16_whiteLine3.jpg	Medium_e13_stereo_44KHz.wav
2	55	3	3	2	I	1	0	766	0	poli_8sides 5_whiteLine3.jpg	MediumLong_e04_stereo_44KHz.wav
2	56	2	1	0	C	1	1	555	1	poli_8sides 12_whiteLine3.jpg	Medium_e01_cut1_stereo_44KHz.wav
2	57	1	2	0	C	1	1	691	1	poli_8sides 8_whiteLine3.jpg	Medium_e26_stereo_44KHz.wav
2	58	4	3	2	I	1	0	545	0	poli_8sides 16_whiteLine3.jpg	MediumLong_e04_stereo_44KHz.wav
2	59	2	2	1	C	1	0	809	0	poli_8sides 12_whiteLine3.jpg	Medium_e26_stereo_44KHz.wav
2	60	3	4	2	I	2	0	846	0	poli_8sides 5_whiteLine3.jpg	Medium_e13_stereo_44KHz.wav
2	61	2	1	0	C	1	1	658	1	poli_8sides 12_whiteLine3.jpg	Medium_e01_cut1_stereo_44KHz.wav
2	62	3	3	2	I	1	0	649	1	poli_8sides 5_whiteLine3.jpg	MediumLong_e04_stereo_44KHz.wav
2	63	1	1	1	C	1	0	695	0	poli_8sides 8_whiteLine3.jpg	Medium_e01_cut1_stereo_44KHz.wav
2	64	4	4	2	I	2	0	959	1	poli_8sides 16_whiteLine3.jpg	Medium_e13_stereo_44KHz.wav
2	65	2	2	1	C	1	0	844	0	poli_8sides 12_whiteLine3.jpg	Medium_e26_stereo_44KHz.wav
2	66	4	4	2	I	2	0	876	0	poli_8sides 16_whiteLine3.jpg	Medium_e13_stereo_44KHz.wav
2	67	1	1	1	C	2	1	1209	1	poli_8sides 8_whiteLine3.jpg	Medium_e01_cut1_stereo_44KHz.wav
2	68	3	4	2	I	2	0	715	1	poli_8sides 5_whiteLine3.jpg	Medium_e13_stereo_44KHz.wav
2	69	1	2	0	C	1	1	940	1	poli_8sides 8_whiteLine3.jpg	Medium_e26_stereo_44KHz.wav
2	70	3	3	2	I	2	0	1041	1	poli_8sides 5_whiteLine3.jpg	MediumLong_e04_stereo_44KHz.wav
2	71	4	3	2	I	1	0	476	0	poli_8sides 16_whiteLine3.jpg	MediumLong_e04_stereo_44KHz.wav
2	72	2	1	0	C	1	1	650	1	poli_8sides 12_whiteLine3.jpg	Medium_e01_cut1_stereo_44KHz.wav
2	73	1	2	0	C	1	1	722	1	poli_8sides 8_whiteLine3.jpg	Medium_e26_stereo_44KHz.wav
2	74	3	3	2	I	1	0	1114	0	poli_8sides 5_whiteLine3.jpg	MediumLong_e04_stereo_44KHz.wav
2	75	4	3	2	I	1	0	850	1	poli_8sides 16_whiteLine3.jpg	MediumLong_e04_stereo_44KHz.wav
2	76	2	1	0	C	1	1	999	1	poli_8sides 12_whiteLine3.jpg	Medium_e01_cut1_stereo_44KHz.wav
2	77	3	4	2	I	1	0	1322	1	poli_8sides 5_whiteLine3.jpg	Medium_e13_stereo_44KHz.wav
2	78	2	2	1	C	2	1	1347	1	poli_8sides 12_whiteLine3.jpg	Medium_e26_stereo_44KHz.wav
2	79	1	1	1	C	2	1	1097	1	poli_8sides 8_whiteLine3.jpg	Medium_e01_cut1_stereo_44KHz.wav
2	80	4	4	2	I	1	0	1061	0	poli_8sides 16_whiteLine3.jpg	Medium_e13_stereo_44KHz.wav
2	81	2	2	1	C	2	1	1301	1	poli_8sides 12_whiteLine3.jpg	Medium_e26_stereo_44KHz.wav
2	82	3	4	2	I	1	0	1030	0	poli_8sides 5_whiteLine3.jpg	Medium_e13_stereo_44KHz.wav
2	83	1	2	0	C	1	1	902	1	poli_8sides 8_whiteLine3.jpg	Medium_e26_stereo_44KHz.wav
2	84	4	4	2	I	1	0	788	1	poli_8sides 16_whiteLine3.jpg	Medium_e13_stereo_44KHz.wav
2	85	1	1	1	C	2	1	1284	1	poli_8sides 8_whiteLine3.jpg	Medium_e01_cut1_stereo_44KHz.wav
2	86	3	3	2	I	1	0	707	1	poli_8sides 5_whiteLine3.jpg	MediumLong_e04_stereo_44KHz.wav
2	87	4	3	2	I	2	0	803	1	poli_8sides 16_whiteLine3.jpg	MediumLong_e04_stereo_44KHz.wav
2	88	2	1	0	C	2	0	953	0	poli_8sides 12_whiteLine3.jpg	Medium_e01_cut1_stereo_44KHz.wav
2	89	3	4	2	I	2	0	864	0	poli_8sides 5_whiteLine3.jpg	Medium_e13_stereo_44KHz.wav
2	90	1	1	1	C	1	0	754	0	poli_8sides 8_whiteLine3.jpg	Medium_e01_cut1_stereo_44KHz.wav
2	91	4	4	2	I	2	0	916	1	poli_8sides 16_whiteLine3.jpg	Medium_e13_stereo_44KHz.wav
2	92	2	1	0	C	1	1	1333	1	poli_8sides 12_whiteLine3.jpg	Medium_e01_cut1_stereo_44KHz.wav
2	93	1	2	0	C	1	1	771	1	poli_8sides 8_whiteLine3.jpg	Medium_e26_stereo_44KHz.wav
2	94	3	3	2	I	1	0	719	1	poli_8sides 5_whiteLine3.jpg	MediumLong_e04_stereo_44KHz.wav
2	95	2	2	1	C	2	1	1150	1	poli_8sides 12_whiteLine3.jpg	Medium_e26_stereo_44KHz.wav
2	96	4	3	2	I	1	0	733	0	poli_8sides 16_whiteLine3.jpg	MediumLong_e04_stereo_44KHz.wav
2	97	1	1	1	C	1	0	728	0	poli_8sides 8_whiteLine3.jpg	Medium_e01_cut1_stereo_44KHz.wav
2	98	2	1	0	C	1	1	862	1	poli_8sides 12_whiteLine3.jpg	Medium_e01_cut1_stereo_44KHz.wav
2	99	4	4	2	I	1	0	756	0	poli_8sides 16_whiteLine3.jpg	Medium_e13_stereo_44KHz.wav
2	100	3	4	2	I	1	0	1412	0	poli_8sides 5_whiteLine3.jpg	Medium_e13_stereo_44KHz.wav
2	101	4	3	2	I	2	0	994	1	poli_8sides 16_whiteLine3.jpg	MediumLong_e04_stereo_44KHz.wav
2	102	1	2	0	C	1	1	743	1	poli_8sides 8_whiteLine3.jpg	Medium_e26_stereo_44KHz.wav
2	103	2	2	1	C	2	1	778	1	poli_8sides 12_whiteLine3.jpg	Medium_e26_stereo_44KHz.wav
2	104	3	3	2	I	1	0	659	0	poli_8sides 5_whiteLine3.jpg	MediumLong_e04_stereo_44KHz.wav
2	105	1	1	1	C	1	0	1401	0	poli_8sides 8_whiteLine3.jpg	Medium_e01_cut1_stereo_44KHz.wav
2	106	3	3	2	I	1	0	676	1	poli_8sides 5_whiteLine3.jpg	MediumLong_e04_stereo_44KHz.wav
2	107	4	3	2	I	2	0	733	1	poli_8sides 16_whiteLine3.jpg	MediumLong_e04_stereo_44KHz.wav
2	108	2	1	0	C	1	1	713	1	poli_8sides 12_whiteLine3.jpg	Medium_e01_cut1_stereo_44KHz.wav
2	109	1	2	0	C	1	1	660	1	poli_8sides 8_whiteLine3.jpg	Medium_e26_stereo_44KHz.wav
2	110	4	4	2	I	1	0	623	0	poli_8sides 16_whiteLine3.jpg	Medium_e13_stereo_44KHz.wav
2	111	3	4	2	I	1	0	752	1	poli_8sides 5_whiteLine3.jpg	Medium_e13_stereo_44KHz.wav
2	112	2	2	1	C	2	1	1151	1	poli_8sides 12_whiteLine3.jpg	Medium_e26_stereo_44KHz.wav
2	113	3	4	2	I	1	0	790	0	poli_8sides 5_whiteLine3.jpg	Medium_e13_stereo_44KHz.wav
2	114	4	3	2	I	2	0	1060	0	poli_8sides 16_whiteLine3.jpg	MediumLong_e04_stereo_44KHz.wav
2	115	1	1	1	C	2	1	1154	1	poli_8sides 8_whiteLine3.jpg	Medium_e01_cut1_stereo_44KHz.wav
2	116	2	1	0	C	1	1	714	1	poli_8sides 12_whiteLine3.jpg	Medium_e01_cut1_stereo_44KHz.wav
2	117	1	2	0	C	1	1	538	1	poli_8sides 8_whiteLine3.jpg	Medium_e26_stereo_44KHz.wav
2	118	3	3	2	I	1	0	483	0	poli_8sides 5_whiteLine3.jpg	MediumLong_e04_stereo_44KHz.wav
2	119	2	2	1	C	1	0	842	0	poli_8sides 12_whiteLine3.jpg	Medium_e26_stereo_44KHz.wav
2	120	4	4	2	I	1	0	830	1	poli_8sides 16_whiteLine3.jpg	Medium_e13_stereo_44KHz.wav
2	121	2	2	1	C	1	0	694	0	poli_8sides 12_whiteLine3.jpg	Medium_e26_stereo_44KHz.wav
2	122	3	4	2	I	2	0	973	0	poli_8sides 5_whiteLine3.jpg	Medium_e13_stereo_44KHz.wav
2	123	1	1	1	C	1	0	747	0	poli_8sides 8_whiteLine3.jpg	Medium_e01_cut1_stereo_44KHz.wav
2	124	4	3	2	I	1	0	922	0	poli_8sides 16_whiteLine3.jpg	MediumLong_e04_stereo_44KHz.wav
2	125	3	3	2	I	1	0	464	1	poli_8sides 5_whiteLine3.jpg	MediumLong_e04_stereo_44KHz.wav
2	126	2	1	0	C	1	1	669	1	poli_8sides 12_whiteLine3.jpg	Medium_e01_cut1_stereo_44KHz.wav
2	127	1	2	0	C	2	0	489	0	poli_8sides 8_whiteLine3.jpg	Medium_e26_stereo_44KHz.wav
2	128	4	4	2	I	1	0	800	0	poli_8sides 16_whiteLine3.jpg	Medium_e13_stereo_44KHz.wav
2	129	1	2	0	C	1	1	658	1	poli_8sides 8_whiteLine3.jpg	Medium_e26_stereo_44KHz.wav
2	130	2	2	1	C	1	0	765	0	poli_8sides 12_whiteLine3.jpg	Medium_e26_stereo_44KHz.wav
2	131	4	3	2	I	2	0	1332	0	poli_8sides 16_whiteLine3.jpg	MediumLong_e04_stereo_44KHz.wav
2	132	3	4	2	I	2	0	1055	0	poli_8sides 5_whiteLine3.jpg	Medium_e13_stereo_44KHz.wav
2	133	2	1	0	C	1	1	693	1	poli_8sides 12_whiteLine3.jpg	Medium_e01_cut1_stereo_44KHz.wav
2	134	1	1	1	C	2	1	933	1	poli_8sides 8_whiteLine3.jpg	Medium_e01_cut1_stereo_44KHz.wav
2	135	4	4	2	I	1	0	883	1	poli_8sides 16_whiteLine3.jpg	Medium_e13_stereo_44KHz.wav
2	136	3	3	2	I	1	0	470	0	poli_8sides 5_whiteLine3.jpg	MediumLong_e04_stereo_44KHz.wav
2	137	2	1	0	C	2	0	1040	0	poli_8sides 12_whiteLine3.jpg	Medium_e01_cut1_stereo_44KHz.wav
2	138	4	4	2	I	1	0	773	0	poli_8sides 16_whiteLine3.jpg	Medium_e13_stereo_44KHz.wav
2	139	3	3	2	I	1	0	831	0	poli_8sides 5_whiteLine3.jpg	MediumLong_e04_stereo_44KHz.wav
2	140	1	1	1	C	1	0	1120	0	poli_8sides 8_whiteLine3.jpg	Medium_e01_cut1_stereo_44KHz.wav
2	141	4	3	2	I	2	0	949	1	poli_8sides 16_whiteLine3.jpg	MediumLong_e04_stereo_44KHz.wav
2	142	3	4	2	I	2	0	771	1	poli_8sides 5_whiteLine3.jpg	Medium_e13_stereo_44KHz.wav
2	143	2	2	1	C	1	0	671	0	poli_8sides 12_whiteLine3.jpg	Medium_e26_stereo_44KHz.wav
2	144	1	2	0	C	1	1	899	1	poli_8sides 8_whiteLine3.jpg	Medium_e26_stereo_44KHz.wav
2	145	3	4	2	I	2	0	870	1	poli_8sides 5_whiteLine3.jpg	Medium_e13_stereo_44KHz.wav
2	146	4	3	2	I	1	0	623	1	poli_8sides 16_whiteLine3.jpg	MediumLong_e04_stereo_44KHz.wav
2	147	2	2	1	C	1	0	667	0	poli_8sides 12_whiteLine3.jpg	Medium_e26_stereo_44KHz.wav
2	148	1	2	0	C	1	1	719	1	poli_8sides 8_whiteLine3.jpg	Medium_e26_stereo_44KHz.wav
2	149	3	3	2	I	1	0	599	1	poli_8sides 5_whiteLine3.jpg	MediumLong_e04_stereo_44KHz.wav
2	150	4	4	2	I	1	0	472	0	poli_8sides 16_whiteLine3.jpg	Medium_e13_stereo_44KHz.wav
2	151	2	1	0	C	1	1	651	1	poli_8sides 12_whiteLine3.jpg	Medium_e01_cut1_stereo_44KHz.wav
2	152	1	1	1	C	1	0	714	0	poli_8sides 8_whiteLine3.jpg	Medium_e01_cut1_stereo_44KHz.wav
2	153	4	4	2	I	1	0	556	0	poli_8sides 16_whiteLine3.jpg	Medium_e13_stereo_44KHz.wav
2	154	3	3	2	I	2	0	1103	0	poli_8sides 5_whiteLine3.jpg	MediumLong_e04_stereo_44KHz.wav
2	155	1	1	1	C	1	0	525	0	poli_8sides 8_whiteLine3.jpg	Medium_e01_cut1_stereo_44KHz.wav
2	156	2	2	1	C	2	1	1046	1	poli_8sides 12_whiteLine3.jpg	Medium_e26_stereo_44KHz.wav
2	157	4	3	2	I	1	0	1319	1	poli_8sides 16_whiteLine3.jpg	MediumLong_e04_stereo_44KHz.wav
2	158	2	1	0	C	1	1	669	1	poli_8sides 12_whiteLine3.jpg	Medium_e01_cut1_stereo_44KHz.wav
2	159	3	4	2	I	2	0	1449	0	poli_8sides 5_whiteLine3.jpg	Medium_e13_stereo_44KHz.wav
2	160	1	2	0	C	2	0	1320	0	poli_8sides 8_whiteLine3.jpg	Medium_e26_stereo_44KHz.wav
2	161	4	3	2	I	1	0	916	0	poli_8sides 16_whiteLine3.jpg	MediumLong_e04_stereo_44KHz.wav
2	162	2	2	1	C	1	0	560	0	poli_8sides 12_whiteLine3.jpg	Medium_e26_stereo_44KHz.wav
2	163	1	2	0	C	1	1	857	1	poli_8sides 8_whiteLine3.jpg	Medium_e26_stereo_44KHz.wav
2	164	3	4	2	I	2	0	1213	0	poli_8sides 5_whiteLine3.jpg	Medium_e13_stereo_44KHz.wav
2	165	4	4	2	I	1	0	796	1	poli_8sides 16_whiteLine3.jpg	Medium_e13_stereo_44KHz.wav
2	166	1	1	1	C	2	1	1358	1	poli_8sides 8_whiteLine3.jpg	Medium_e01_cut1_stereo_44KHz.wav
2	167	3	3	2	I	1	0	808	1	poli_8sides 5_whiteLine3.jpg	MediumLong_e04_stereo_44KHz.wav
2	168	2	1	0	C	1	1	656	1	poli_8sides 12_whiteLine3.jpg	Medium_e01_cut1_stereo_44KHz.wav
2	169	1	2	0	C	1	1	579	1	poli_8sides 8_whiteLine3.jpg	Medium_e26_stereo_44KHz.wav
2	170	4	4	2	I	1	0	580	0	poli_8sides 16_whiteLine3.jpg	Medium_e13_stereo_44KHz.wav
2	171	2	1	0	C	1	1	787	1	poli_8sides 12_whiteLine3.jpg	Medium_e01_cut1_stereo_44KHz.wav
2	172	3	3	2	I	2	0	898	1	poli_8sides 5_whiteLine3.jpg	MediumLong_e04_stereo_44KHz.wav
2	173	1	1	1	C	1	0	849	0	poli_8sides 8_whiteLine3.jpg	Medium_e01_cut1_stereo_44KHz.wav
2	174	3	4	2	I	2	0	794	1	poli_8sides 5_whiteLine3.jpg	Medium_e13_stereo_44KHz.wav
2	175	4	3	2	I	1	0	558	1	poli_8sides 16_whiteLine3.jpg	MediumLong_e04_stereo_44KHz.wav
2	176	2	2	1	C	2	1	1023	1	poli_8sides 12_whiteLine3.jpg	Medium_e26_stereo_44KHz.wav
2	177	3	3	2	I	2	0	790	0	poli_8sides 5_whiteLine3.jpg	MediumLong_e04_stereo_44KHz.wav
2	178	4	4	2	I	1	0	764	1	poli_8sides 16_whiteLine3.jpg	Medium_e13_stereo_44KHz.wav
2	179	2	1	0	C	1	1	653	1	poli_8sides 12_whiteLine3.jpg	Medium_e01_cut1_stereo_44KHz.wav
2	180	1	2	0	C	1	1	764	1	poli_8sides 8_whiteLine3.jpg	Medium_e26_stereo_44KHz.wav
2	181	3	4	2	I	2	0	996	0	poli_8sides 5_whiteLine3.jpg	Medium_e13_stereo_44KHz.wav
2	182	1	1	1	C	2	1	1144	1	poli_8sides 8_whiteLine3.jpg	Medium_e01_cut1_stereo_44KHz.wav
2	183	2	2	1	C	1	0	671	0	poli_8sides 12_whiteLine3.jpg	Medium_e26_stereo_44KHz.wav
2	184	4	3	2	I	1	0	961	1	poli_8sides 16_whiteLine3.jpg	MediumLong_e04_stereo_44KHz.wav
2	185	3	4	2	I	1	0	925	1	poli_8sides 5_whiteLine3.jpg	Medium_e13_stereo_44KHz.wav
2	186	2	2	1	C	2	1	1048	1	poli_8sides 12_whiteLine3.jpg	Medium_e26_stereo_44KHz.wav
2	187	1	2	0	C	1	1	688	1	poli_8sides 8_whiteLine3.jpg	Medium_e26_stereo_44KHz.wav
2	188	4	3	2	I	1	0	683	0	poli_8sides 16_whiteLine3.jpg	MediumLong_e04_stereo_44KHz.wav
2	189	3	3	2	I	1	0	604	0	poli_8sides 5_whiteLine3.jpg	MediumLong_e04_stereo_44KHz.wav
2	190	4	4	2	I	1	0	1945	1	poli_8sides 16_whiteLine3.jpg	Medium_e13_stereo_44KHz.wav
2	191	2	1	0	C	2	0	875	0	poli_8sides 12_whiteLine3.jpg	Medium_e01_cut1_stereo_44KHz.wav
2	192	1	1	1	C	2	1	1006	1	poli_8sides 8_whiteLine3.jpg	Medium_e01_cut1_stereo_44KHz.wav
2	193	4	4	2	I	1	0	729	1	poli_8sides 16_whiteLine3.jpg	Medium_e13_stereo_44KHz.wav
2	194	2	1	0	C	1	1	917	1	poli_8sides 12_whiteLine3.jpg	Medium_e01_cut1_stereo_44KHz.wav
2	195	1	1	1	C	2	1	619	1	poli_8sides 8_whiteLine3.jpg	Medium_e01_cut1_stereo_44KHz.wav
2	196	3	4	2	I	1	0	1031	1	poli_8sides 5_whiteLine3.jpg	Medium_e13_stereo_44KHz.wav
2	197	4	3	2	I	1	0	533	1	poli_8sides 16_whiteLine3.jpg	MediumLong_e04_stereo_44KHz.wav
2	198	2	2	1	C	2	1	787	1	poli_8sides 12_whiteLine3.jpg	Medium_e26_stereo_44KHz.wav
2	199	1	2	0	C	2	0	612	0	poli_8sides 8_whiteLine3.jpg	Medium_e26_stereo_44KHz.wav
2	200	3	3	2	I	1	0	1166	0	poli_8sides 5_whiteLine3.jpg	MediumLong_e04_stereo_44KHz.wav
3	1	3	3	2	I	0	0	0	0	poli_8sides 18_whiteLine3.jpg	Medium_e21_stereo_44KHz.wav
3	2	4	4	2	I	1	0	554	0	poli_8sides 4_whiteLine3.jpg	MediumLong_e19_stereo_44KHz.wav
3	3	2	2	1	C	2	1	632	1	poli_8sides 3_whiteLine3.jpg	MediumLong_e17_cut2_stereo_44KHz.wav
3	4	1	1	1	C	1	0	763	0	poli_8sides 11_whiteLine3.jpg	MediumLong_b10_cut2_L_stereo_44KHz.wav
3	5	4	3	2	I	1	0	793	0	poli_8sides 4_whiteLine3.jpg	Medium_e21_stereo_44KHz.wav
3	6	3	4	2	I	1	0	864	0	poli_8sides 18_whiteLine3.jpg	MediumLong_e19_stereo_44KHz.wav
3	7	2	1	0	C	1	1	924	1	poli_8sides 3_whiteLine3.jpg	MediumLong_b10_cut2_L_stereo_44KHz.wav
3	8	1	2	0	C	1	1	1064	1	poli_8sides 11_whiteLine3.jpg	MediumLong_e17_cut2_stereo_44KHz.wav
3	9	4	3	2	I	2	0	621	0	poli_8sides 4_whiteLine3.jpg	Medium_e21_stereo_44KHz.wav
3	10	3	4	2	I	2	0	1068	1	poli_8sides 18_whiteLine3.jpg	MediumLong_e19_stereo_44KHz.wav
3	11	1	2	0	C	1	1	1250	1	poli_8sides 11_whiteLine3.jpg	MediumLong_e17_cut2_stereo_44KHz.wav
3	12	2	1	0	C	1	1	649	1	poli_8sides 3_whiteLine3.jpg	MediumLong_b10_cut2_L_stereo_44KHz.wav
3	13	3	3	2	I	2	0	793	0	poli_8sides 18_whiteLine3.jpg	Medium_e21_stereo_44KHz.wav
3	14	4	4	2	I	1	0	1075	1	poli_8sides 4_whiteLine3.jpg	MediumLong_e19_stereo_44KHz.wav
3	15	2	2	1	C	2	1	986	1	poli_8sides 3_whiteLine3.jpg	MediumLong_e17_cut2_stereo_44KHz.wav
3	16	1	1	1	C	2	1	878	1	poli_8sides 11_whiteLine3.jpg	MediumLong_b10_cut2_L_stereo_44KHz.wav
3	17	3	4	2	I	2	0	1184	1	poli_8sides 18_whiteLine3.jpg	MediumLong_e19_stereo_44KHz.wav
3	18	4	4	2	I	1	0	758	0	poli_8sides 4_whiteLine3.jpg	MediumLong_e19_stereo_44KHz.wav
3	19	2	1	0	C	1	1	719	1	poli_8sides 3_whiteLine3.jpg	MediumLong_b10_cut2_L_stereo_44KHz.wav
3	20	1	2	0	C	2	0	995	0	poli_8sides 11_whiteLine3.jpg	MediumLong_e17_cut2_stereo_44KHz.wav
3	21	2	2	1	C	1	0	728	0	poli_8sides 3_whiteLine3.jpg	MediumLong_e17_cut2_stereo_44KHz.wav
3	22	1	1	1	C	2	1	783	1	poli_8sides 11_whiteLine3.jpg	MediumLong_b10_cut2_L_stereo_44KHz.wav
3	23	4	3	2	I	1	0	948	1	poli_8sides 4_whiteLine3.jpg	Medium_e21_stereo_44KHz.wav
3	24	3	3	2	I	2	0	744	1	poli_8sides 18_whiteLine3.jpg	Medium_e21_stereo_44KHz.wav
3	25	4	3	2	I	1	0	801	0	poli_8sides 4_whiteLine3.jpg	Medium_e21_stereo_44KHz.wav
3	26	1	2	0	C	1	1	1242	1	poli_8sides 11_whiteLine3.jpg	MediumLong_e17_cut2_stereo_44KHz.wav
3	27	2	2	1	C	2	1	738	1	poli_8sides 3_whiteLine3.jpg	MediumLong_e17_cut2_stereo_44KHz.wav
3	28	3	3	2	I	1	0	934	1	poli_8sides 18_whiteLine3.jpg	Medium_e21_stereo_44KHz.wav
3	29	4	4	2	I	1	0	923	0	poli_8sides 4_whiteLine3.jpg	MediumLong_e19_stereo_44KHz.wav
3	30	1	1	1	C	2	1	752	1	poli_8sides 11_whiteLine3.jpg	MediumLong_b10_cut2_L_stereo_44KHz.wav
3	31	2	1	0	C	1	1	703	1	poli_8sides 3_whiteLine3.jpg	MediumLong_b10_cut2_L_stereo_44KHz.wav
3	32	3	4	2	I	1	0	941	1	poli_8sides 18_whiteLine3.jpg	MediumLong_e19_stereo_44KHz.wav
3	33	1	2	0	C	1	1	1460	1	poli_8sides 11_whiteLine3.jpg	MediumLong_e17_cut2_stereo_44KHz.wav
3	34	4	3	2	I	1	0	869	1	poli_8sides 4_whiteLine3.jpg	Medium_e21_stereo_44KHz.wav
3	35	3	4	2	I	1	0	790	0	poli_8sides 18_whiteLine3.jpg	MediumLong_e19_stereo_44KHz.wav
3	36	2	2	1	C	2	1	697	1	poli_8sides 3_whiteLine3.jpg	MediumLong_e17_cut2_stereo_44KHz.wav
3	37	1	1	1	C	2	1	883	1	poli_8sides 11_whiteLine3.jpg	MediumLong_b10_cut2_L_stereo_44KHz.wav
3	38	4	4	2	I	1	0	738	0	poli_8sides 4_whiteLine3.jpg	MediumLong_e19_stereo_44KHz.wav
3	39	2	1	0	C	1	1	622	1	poli_8sides 3_whiteLine3.jpg	MediumLong_b10_cut2_L_stereo_44KHz.wav
3	40	3	3	2	I	1	0	639	0	poli_8sides 18_whiteLine3.jpg	Medium_e21_stereo_44KHz.wav
3	41	2	2	1	C	2	1	768	1	poli_8sides 3_whiteLine3.jpg	MediumLong_e17_cut2_stereo_44KHz.wav
3	42	3	4	2	I	1	0	571	1	poli_8sides 18_whiteLine3.jpg	MediumLong_e19_stereo_44KHz.wav
3	43	4	3	2	I	1	0	628	1	poli_8sides 4_whiteLine3.jpg	Medium_e21_stereo_44KHz.wav
3	44	1	1	1	C	1	0	1049	0	poli_8sides 11_whiteLine3.jpg	MediumLong_b10_cut2_L_stereo_44KHz.wav
3	45	2	1	0	C	1	1	482	1	poli_8sides 3_whiteLine3.jpg	MediumLong_b10_cut2_L_stereo_44KHz.wav
3	46	3	3	2	I	1	0	645	0	poli_8sides 18_whiteLine3.jpg	Medium_e21_stereo_44KHz.wav
3	47	4	4	2	I	1	0	784	1	poli_8sides 4_whiteLine3.jpg	MediumLong_e19_stereo_44KHz.wav
3	48	1	2	0	C	1	1	645	1	poli_8sides 11_whiteLine3.jpg	MediumLong_e17_cut2_stereo_44KHz.wav
3	49	4	4	2	I	2	0	1065	0	poli_8sides 4_whiteLine3.jpg	MediumLong_e19_stereo_44KHz.wav
3	50	2	1	0	C	1	1	734	1	poli_8sides 3_whiteLine3.jpg	MediumLong_b10_cut2_L_stereo_44KHz.wav
3	51	3	4	2	I	2	0	664	0	poli_8sides 18_whiteLine3.jpg	MediumLong_e19_stereo_44KHz.wav
3	52	1	1	1	C	2	1	1349	1	poli_8sides 11_whiteLine3.jpg	MediumLong_b10_cut2_L_stereo_44KHz.wav
3	53	2	2	1	C	1	0	669	0	poli_8sides 3_whiteLine3.jpg	MediumLong_e17_cut2_stereo_44KHz.wav
3	54	1	2	0	C	1	1	817	1	poli_8sides 11_whiteLine3.jpg	MediumLong_e17_cut2_stereo_44KHz.wav
3	55	4	3	2	I	1	0	798	1	poli_8sides 4_whiteLine3.jpg	Medium_e21_stereo_44KHz.wav
3	56	3	3	2	I	2	0	764	0	poli_8sides 18_whiteLine3.jpg	Medium_e21_stereo_44KHz.wav
3	57	4	3	2	I	1	0	582	0	poli_8sides 4_whiteLine3.jpg	Medium_e21_stereo_44KHz.wav
3	58	3	4	2	I	1	0	737	0	poli_8sides 18_whiteLine3.jpg	MediumLong_e19_stereo_44KHz.wav
3	59	1	2	0	C	1	1	1116	1	poli_8sides 11_whiteLine3.jpg	MediumLong_e17_cut2_stereo_44KHz.wav
3	60	2	1	0	C	1	1	588	1	poli_8sides 3_whiteLine3.jpg	MediumLong_b10_cut2_L_stereo_44KHz.wav
3	61	3	3	2	I	2	0	1119	1	poli_8sides 18_whiteLine3.jpg	Medium_e21_stereo_44KHz.wav
3	62	4	4	2	I	2	0	975	1	poli_8sides 4_whiteLine3.jpg	MediumLong_e19_stereo_44KHz.wav
3	63	1	1	1	C	2	1	1073	1	poli_8sides 11_whiteLine3.jpg	MediumLong_b10_cut2_L_stereo_44KHz.wav
3	64	2	2	1	C	2	1	746	1	poli_8sides 3_whiteLine3.jpg	MediumLong_e17_cut2_stereo_44KHz.wav
3	65	1	2	0	C	1	1	845	1	poli_8sides 11_whiteLine3.jpg	MediumLong_e17_cut2_stereo_44KHz.wav
3	66	3	3	2	I	1	0	1010	1	poli_8sides 18_whiteLine3.jpg	Medium_e21_stereo_44KHz.wav
3	67	4	4	2	I	2	0	1195	0	poli_8sides 4_whiteLine3.jpg	MediumLong_e19_stereo_44KHz.wav
3	68	2	1	0	C	1	1	794	1	poli_8sides 3_whiteLine3.jpg	MediumLong_b10_cut2_L_stereo_44KHz.wav
3	69	4	3	2	I	1	0	739	1	poli_8sides 4_whiteLine3.jpg	Medium_e21_stereo_44KHz.wav
3	70	1	1	1	C	2	1	844	1	poli_8sides 11_whiteLine3.jpg	MediumLong_b10_cut2_L_stereo_44KHz.wav
3	71	2	2	1	C	2	1	760	1	poli_8sides 3_whiteLine3.jpg	MediumLong_e17_cut2_stereo_44KHz.wav
3	72	3	4	2	I	1	0	1320	0	poli_8sides 18_whiteLine3.jpg	MediumLong_e19_stereo_44KHz.wav
3	73	1	1	1	C	2	1	862	1	poli_8sides 11_whiteLine3.jpg	MediumLong_b10_cut2_L_stereo_44KHz.wav
3	74	4	3	2	I	1	0	915	1	poli_8sides 4_whiteLine3.jpg	Medium_e21_stereo_44KHz.wav
3	75	2	1	0	C	1	1	775	1	poli_8sides 3_whiteLine3.jpg	MediumLong_b10_cut2_L_stereo_44KHz.wav
3	76	3	4	2	I	1	0	1334	0	poli_8sides 18_whiteLine3.jpg	MediumLong_e19_stereo_44KHz.wav
3	77	2	2	1	C	2	1	1083	1	poli_8sides 3_whiteLine3.jpg	MediumLong_e17_cut2_stereo_44KHz.wav
3	78	3	3	2	I	1	0	898	0	poli_8sides 18_whiteLine3.jpg	Medium_e21_stereo_44KHz.wav
3	79	1	2	0	C	1	1	1291	1	poli_8sides 11_whiteLine3.jpg	MediumLong_e17_cut2_stereo_44KHz.wav
3	80	4	4	2	I	2	0	1354	0	poli_8sides 4_whiteLine3.jpg	MediumLong_e19_stereo_44KHz.wav
3	81	2	2	1	C	2	1	833	1	poli_8sides 3_whiteLine3.jpg	MediumLong_e17_cut2_stereo_44KHz.wav
3	82	1	2	0	C	1	1	1307	1	poli_8sides 11_whiteLine3.jpg	MediumLong_e17_cut2_stereo_44KHz.wav
3	83	3	4	2	I	1	0	919	0	poli_8sides 18_whiteLine3.jpg	MediumLong_e19_stereo_44KHz.wav
3	84	4	3	2	I	1	0	710	1	poli_8sides 4_whiteLine3.jpg	Medium_e21_stereo_44KHz.wav
3	85	2	1	0	C	1	1	628	1	poli_8sides 3_whiteLine3.jpg	MediumLong_b10_cut2_L_stereo_44KHz.wav
3	86	4	4	2	I	2	0	1088	0	poli_8sides 4_whiteLine3.jpg	MediumLong_e19_stereo_44KHz.wav
3	87	1	1	1	C	2	1	985	1	poli_8sides 11_whiteLine3.jpg	MediumLong_b10_cut2_L_stereo_44KHz.wav
3	88	3	3	2	I	2	0	1069	1	poli_8sides 18_whiteLine3.jpg	Medium_e21_stereo_44KHz.wav
3	89	4	4	2	I	1	0	672	0	poli_8sides 4_whiteLine3.jpg	MediumLong_e19_stereo_44KHz.wav
3	90	3	4	2	I	1	0	795	0	poli_8sides 18_whiteLine3.jpg	MediumLong_e19_stereo_44KHz.wav
3	91	1	1	1	C	2	1	806	1	poli_8sides 11_whiteLine3.jpg	MediumLong_b10_cut2_L_stereo_44KHz.wav
3	92	2	2	1	C	2	1	773	1	poli_8sides 3_whiteLine3.jpg	MediumLong_e17_cut2_stereo_44KHz.wav
3	93	1	2	0	C	1	1	814	1	poli_8sides 11_whiteLine3.jpg	MediumLong_e17_cut2_stereo_44KHz.wav
3	94	4	3	2	I	1	0	666	1	poli_8sides 4_whiteLine3.jpg	Medium_e21_stereo_44KHz.wav
3	95	2	1	0	C	1	1	953	1	poli_8sides 3_whiteLine3.jpg	MediumLong_b10_cut2_L_stereo_44KHz.wav
3	96	3	3	2	I	1	0	1341	0	poli_8sides 18_whiteLine3.jpg	Medium_e21_stereo_44KHz.wav
3	97	4	3	2	I	1	0	800	1	poli_8sides 4_whiteLine3.jpg	Medium_e21_stereo_44KHz.wav
3	98	2	2	1	C	2	1	822	1	poli_8sides 3_whiteLine3.jpg	MediumLong_e17_cut2_stereo_44KHz.wav
3	99	3	3	2	I	2	0	1057	0	poli_8sides 18_whiteLine3.jpg	Medium_e21_stereo_44KHz.wav
3	100	1	1	1	C	2	1	930	1	poli_8sides 11_whiteLine3.jpg	MediumLong_b10_cut2_L_stereo_44KHz.wav
3	101	3	4	2	I	1	0	932	1	poli_8sides 18_whiteLine3.jpg	MediumLong_e19_stereo_44KHz.wav
3	102	4	4	2	I	2	0	1120	1	poli_8sides 4_whiteLine3.jpg	MediumLong_e19_stereo_44KHz.wav
3	103	1	2	0	C	1	1	885	1	poli_8sides 11_whiteLine3.jpg	MediumLong_e17_cut2_stereo_44KHz.wav
3	104	2	1	0	C	1	1	641	1	poli_8sides 3_whiteLine3.jpg	MediumLong_b10_cut2_L_stereo_44KHz.wav
3	105	4	3	2	I	2	0	1143	0	poli_8sides 4_whiteLine3.jpg	Medium_e21_stereo_44KHz.wav
3	106	2	2	1	C	2	1	753	1	poli_8sides 3_whiteLine3.jpg	MediumLong_e17_cut2_stereo_44KHz.wav
3	107	1	1	1	C	1	0	1064	0	poli_8sides 11_whiteLine3.jpg	MediumLong_b10_cut2_L_stereo_44KHz.wav
3	108	3	4	2	I	2	0	1191	1	poli_8sides 18_whiteLine3.jpg	MediumLong_e19_stereo_44KHz.wav
3	109	1	2	0	C	1	1	804	1	poli_8sides 11_whiteLine3.jpg	MediumLong_e17_cut2_stereo_44KHz.wav
3	110	2	1	0	C	1	1	709	1	poli_8sides 3_whiteLine3.jpg	MediumLong_b10_cut2_L_stereo_44KHz.wav
3	111	3	3	2	I	1	0	874	1	poli_8sides 18_whiteLine3.jpg	Medium_e21_stereo_44KHz.wav
3	112	4	4	2	I	2	0	1034	0	poli_8sides 4_whiteLine3.jpg	MediumLong_e19_stereo_44KHz.wav
3	113	2	1	0	C	1	1	586	1	poli_8sides 3_whiteLine3.jpg	MediumLong_b10_cut2_L_stereo_44KHz.wav
3	114	1	1	1	C	2	1	743	1	poli_8sides 11_whiteLine3.jpg	MediumLong_b10_cut2_L_stereo_44KHz.wav
3	115	3	3	2	I	1	0	652	1	poli_8sides 18_whiteLine3.jpg	Medium_e21_stereo_44KHz.wav
3	116	4	4	2	I	2	0	1006	1	poli_8sides 4_whiteLine3.jpg	MediumLong_e19_stereo_44KHz.wav
3	117	2	2	1	C	2	1	812	1	poli_8sides 3_whiteLine3.jpg	MediumLong_e17_cut2_stereo_44KHz.wav
3	118	4	3	2	I	1	0	1233	0	poli_8sides 4_whiteLine3.jpg	Medium_e21_stereo_44KHz.wav
3	119	1	2	0	C	1	1	795	1	poli_8sides 11_whiteLine3.jpg	MediumLong_e17_cut2_stereo_44KHz.wav
3	120	3	4	2	I	2	0	1499	1	poli_8sides 18_whiteLine3.jpg	MediumLong_e19_stereo_44KHz.wav
3	121	2	2	1	C	2	1	918	1	poli_8sides 3_whiteLine3.jpg	MediumLong_e17_cut2_stereo_44KHz.wav
3	122	4	3	2	I	1	0	710	1	poli_8sides 4_whiteLine3.jpg	Medium_e21_stereo_44KHz.wav
3	123	1	1	1	C	2	1	898	1	poli_8sides 11_whiteLine3.jpg	MediumLong_b10_cut2_L_stereo_44KHz.wav
3	124	3	3	2	I	2	0	794	0	poli_8sides 18_whiteLine3.jpg	Medium_e21_stereo_44KHz.wav
3	125	1	2	0	C	1	1	1026	1	poli_8sides 11_whiteLine3.jpg	MediumLong_e17_cut2_stereo_44KHz.wav
3	126	2	1	0	C	1	1	776	1	poli_8sides 3_whiteLine3.jpg	MediumLong_b10_cut2_L_stereo_44KHz.wav
3	127	4	4	2	I	1	0	1148	1	poli_8sides 4_whiteLine3.jpg	MediumLong_e19_stereo_44KHz.wav
3	128	3	4	2	I	1	0	933	1	poli_8sides 18_whiteLine3.jpg	MediumLong_e19_stereo_44KHz.wav
3	129	1	2	0	C	1	1	772	1	poli_8sides 11_whiteLine3.jpg	MediumLong_e17_cut2_stereo_44KHz.wav
3	130	2	1	0	C	1	1	661	1	poli_8sides 3_whiteLine3.jpg	MediumLong_b10_cut2_L_stereo_44KHz.wav
3	131	3	4	2	I	1	0	745	0	poli_8sides 18_whiteLine3.jpg	MediumLong_e19_stereo_44KHz.wav
3	132	4	3	2	I	1	0	704	1	poli_8sides 4_whiteLine3.jpg	Medium_e21_stereo_44KHz.wav
3	133	1	1	1	C	2	1	779	1	poli_8sides 11_whiteLine3.jpg	MediumLong_b10_cut2_L_stereo_44KHz.wav
3	134	2	2	1	C	2	1	816	1	poli_8sides 3_whiteLine3.jpg	MediumLong_e17_cut2_stereo_44KHz.wav
3	135	4	4	2	I	2	0	927	0	poli_8sides 4_whiteLine3.jpg	MediumLong_e19_stereo_44KHz.wav
3	136	3	3	2	I	1	0	952	1	poli_8sides 18_whiteLine3.jpg	Medium_e21_stereo_44KHz.wav
3	137	4	3	2	I	1	0	720	0	poli_8sides 4_whiteLine3.jpg	Medium_e21_stereo_44KHz.wav
3	138	1	1	1	C	2	1	872	1	poli_8sides 11_whiteLine3.jpg	MediumLong_b10_cut2_L_stereo_44KHz.wav
3	139	2	1	0	C	1	1	655	1	poli_8sides 3_whiteLine3.jpg	MediumLong_b10_cut2_L_stereo_44KHz.wav
3	140	3	3	2	I	1	0	868	1	poli_8sides 18_whiteLine3.jpg	Medium_e21_stereo_44KHz.wav
3	141	2	2	1	C	2	1	767	1	poli_8sides 3_whiteLine3.jpg	MediumLong_e17_cut2_stereo_44KHz.wav
3	142	3	4	2	I	1	0	1127	1	poli_8sides 18_whiteLine3.jpg	MediumLong_e19_stereo_44KHz.wav
3	143	1	2	0	C	1	1	1023	1	poli_8sides 11_whiteLine3.jpg	MediumLong_e17_cut2_stereo_44KHz.wav
3	144	4	4	2	I	2	0	1237	0	poli_8sides 4_whiteLine3.jpg	MediumLong_e19_stereo_44KHz.wav
3	145	2	1	0	C	1	1	1011	1	poli_8sides 3_whiteLine3.jpg	MediumLong_b10_cut2_L_stereo_44KHz.wav
3	146	3	4	2	I	1	0	946	1	poli_8sides 18_whiteLine3.jpg	MediumLong_e19_stereo_44KHz.wav
3	147	1	1	1	C	2	1	1418	1	poli_8sides 11_whiteLine3.jpg	MediumLong_b10_cut2_L_stereo_44KHz.wav
3	148	4	3	2	I	1	0	829	1	poli_8sides 4_whiteLine3.jpg	Medium_e21_stereo_44KHz.wav
3	149	3	3	2	I	2	0	813	1	poli_8sides 18_whiteLine3.jpg	Medium_e21_stereo_44KHz.wav
3	150	1	2	0	C	1	1	955	1	poli_8sides 11_whiteLine3.jpg	MediumLong_e17_cut2_stereo_44KHz.wav
3	151	2	2	1	C	2	1	1094	1	poli_8sides 3_whiteLine3.jpg	MediumLong_e17_cut2_stereo_44KHz.wav
3	152	4	4	2	I	2	0	1061	0	poli_8sides 4_whiteLine3.jpg	MediumLong_e19_stereo_44KHz.wav
3	153	2	2	1	C	1	0	643	0	poli_8sides 3_whiteLine3.jpg	MediumLong_e17_cut2_stereo_44KHz.wav
3	154	1	2	0	C	1	1	844	1	poli_8sides 11_whiteLine3.jpg	MediumLong_e17_cut2_stereo_44KHz.wav
3	155	4	4	2	I	2	0	1331	0	poli_8sides 4_whiteLine3.jpg	MediumLong_e19_stereo_44KHz.wav
3	156	3	3	2	I	1	0	641	0	poli_8sides 18_whiteLine3.jpg	Medium_e21_stereo_44KHz.wav
3	157	2	1	0	C	1	1	554	1	poli_8sides 3_whiteLine3.jpg	MediumLong_b10_cut2_L_stereo_44KHz.wav
3	158	1	1	1	C	1	0	553	0	poli_8sides 11_whiteLine3.jpg	MediumLong_b10_cut2_L_stereo_44KHz.wav
3	159	3	4	2	I	1	0	1308	0	poli_8sides 18_whiteLine3.jpg	MediumLong_e19_stereo_44KHz.wav
3	160	4	3	2	I	1	0	793	1	poli_8sides 4_whiteLine3.jpg	Medium_e21_stereo_44KHz.wav
3	161	3	4	2	I	2	0	1039	0	poli_8sides 18_whiteLine3.jpg	MediumLong_e19_stereo_44KHz.wav
3	162	4	4	2	I	1	0	830	0	poli_8sides 4_whiteLine3.jpg	MediumLong_e19_stereo_44KHz.wav
3	163	1	2	0	C	1	1	926	1	poli_8sides 11_whiteLine3.jpg	MediumLong_e17_cut2_stereo_44KHz.wav
3	164	2	2	1	C	2	1	918	1	poli_8sides 3_whiteLine3.jpg	MediumLong_e17_cut2_stereo_44KHz.wav
3	165	4	3	2	I	1	0	758	0	poli_8sides 4_whiteLine3.jpg	Medium_e21_stereo_44KHz.wav
3	166	1	1	1	C	2	1	955	1	poli_8sides 11_whiteLine3.jpg	MediumLong_b10_cut2_L_stereo_44KHz.wav
3	167	2	1	0	C	1	1	619	1	poli_8sides 3_whiteLine3.jpg	MediumLong_b10_cut2_L_stereo_44KHz.wav
3	168	3	3	2	I	1	0	847	1	poli_8sides 18_whiteLine3.jpg	Medium_e21_stereo_44KHz.wav
3	169	1	1	1	C	1	0	986	0	poli_8sides 11_whiteLine3.jpg	MediumLong_b10_cut2_L_stereo_44KHz.wav
3	170	3	3	2	I	1	0	639	1	poli_8sides 18_whiteLine3.jpg	Medium_e21_stereo_44KHz.wav
3	171	2	2	1	C	2	1	1083	1	poli_8sides 3_whiteLine3.jpg	MediumLong_e17_cut2_stereo_44KHz.wav
3	172	4	3	2	I	1	0	803	1	poli_8sides 4_whiteLine3.jpg	Medium_e21_stereo_44KHz.wav
3	173	2	1	0	C	2	0	944	0	poli_8sides 3_whiteLine3.jpg	MediumLong_b10_cut2_L_stereo_44KHz.wav
3	174	1	2	0	C	1	1	800	1	poli_8sides 11_whiteLine3.jpg	MediumLong_e17_cut2_stereo_44KHz.wav
3	175	4	4	2	I	2	0	1077	1	poli_8sides 4_whiteLine3.jpg	MediumLong_e19_stereo_44KHz.wav
3	176	3	4	2	I	1	0	448	0	poli_8sides 18_whiteLine3.jpg	MediumLong_e19_stereo_44KHz.wav
3	177	4	3	2	I	2	0	1170	1	poli_8sides 4_whiteLine3.jpg	Medium_e21_stereo_44KHz.wav
3	178	1	1	1	C	1	0	670	0	poli_8sides 11_whiteLine3.jpg	MediumLong_b10_cut2_L_stereo_44KHz.wav
3	179	2	2	1	C	2	1	841	1	poli_8sides 3_whiteLine3.jpg	MediumLong_e17_cut2_stereo_44KHz.wav
3	180	3	4	2	I	1	0	1149	0	poli_8sides 18_whiteLine3.jpg	MediumLong_e19_stereo_44KHz.wav
3	181	4	4	2	I	1	0	1346	1	poli_8sides 4_whiteLine3.jpg	MediumLong_e19_stereo_44KHz.wav
3	182	3	3	2	I	1	0	886	0	poli_8sides 18_whiteLine3.jpg	Medium_e21_stereo_44KHz.wav
3	183	2	1	0	C	1	1	1443	1	poli_8sides 3_whiteLine3.jpg	MediumLong_b10_cut2_L_stereo_44KHz.wav
3	184	1	2	0	C	2	0	1742	0	poli_8sides 11_whiteLine3.jpg	MediumLong_e17_cut2_stereo_44KHz.wav
3	185	3	4	2	I	1	0	1428	0	poli_8sides 18_whiteLine3.jpg	MediumLong_e19_stereo_44KHz.wav
3	186	2	2	1	C	2	1	753	1	poli_8sides 3_whiteLine3.jpg	MediumLong_e17_cut2_stereo_44KHz.wav
3	187	1	2	0	C	1	1	805	1	poli_8sides 11_whiteLine3.jpg	MediumLong_e17_cut2_stereo_44KHz.wav
3	188	4	4	2	I	1	0	1393	1	poli_8sides 4_whiteLine3.jpg	MediumLong_e19_stereo_44KHz.wav
3	189	3	3	2	I	1	0	801	1	poli_8sides 18_whiteLine3.jpg	Medium_e21_stereo_44KHz.wav
3	190	1	1	1	C	2	1	823	1	poli_8sides 11_whiteLine3.jpg	MediumLong_b10_cut2_L_stereo_44KHz.wav
3	191	4	3	2	I	1	0	734	0	poli_8sides 4_whiteLine3.jpg	Medium_e21_stereo_44KHz.wav
3	192	2	1	0	C	1	1	539	1	poli_8sides 3_whiteLine3.jpg	MediumLong_b10_cut2_L_stereo_44KHz.wav
3	193	3	3	2	I	1	0	609	1	poli_8sides 18_whiteLine3.jpg	Medium_e21_stereo_44KHz.wav
3	194	2	2	1	C	2	1	797	1	poli_8sides 3_whiteLine3.jpg	MediumLong_e17_cut2_stereo_44KHz.wav
3	195	4	4	2	I	2	0	1324	0	poli_8sides 4_whiteLine3.jpg	MediumLong_e19_stereo_44KHz.wav
3	196	1	1	1	C	2	1	1033	1	poli_8sides 11_whiteLine3.jpg	MediumLong_b10_cut2_L_stereo_44KHz.wav
3	197	3	4	2	I	1	0	614	0	poli_8sides 18_whiteLine3.jpg	MediumLong_e19_stereo_44KHz.wav
3	198	2	1	0	C	1	1	703	1	poli_8sides 3_whiteLine3.jpg	MediumLong_b10_cut2_L_stereo_44KHz.wav
3	199	1	2	0	C	1	1	799	1	poli_8sides 11_whiteLine3.jpg	MediumLong_e17_cut2_stereo_44KHz.wav
3	200	4	3	2	I	2	0	1525	1	poli_8sides 4_whiteLine3.jpg	Medium_e21_stereo_44KHz.wav
4	1	1	2	0	C	2	0	1383	0	poli_8sides 15_whiteLine3.jpg	MediumShort_b10_cut1_MS_stereo_44KHz.wav
4	2	4	3	2	I	2	0	698	0	poli_8sides 9_whiteLine3.jpg	MediumShort_e22_cut1_stereo_44KHz.wav
4	3	2	1	0	C	1	1	878	1	poli_8sides 6_whiteLine3.jpg	MediumShort_e16_cut1_stereo_44KHz.wav
4	4	3	3	2	I	2	0	953	0	poli_8sides 1_whiteLine3.jpg	MediumShort_e22_cut1_stereo_44KHz.wav
4	5	4	4	2	I	2	0	773	1	poli_8sides 9_whiteLine3.jpg	MediumShort_b16_cut3_MS_stereo_44KHz.wav
4	6	1	1	1	C	1	0	733	0	poli_8sides 15_whiteLine3.jpg	MediumShort_e16_cut1_stereo_44KHz.wav
4	7	3	4	2	I	2	0	908	0	poli_8sides 1_whiteLine3.jpg	MediumShort_b16_cut3_MS_stereo_44KHz.wav
4	8	2	2	1	C	1	0	862	0	poli_8sides 6_whiteLine3.jpg	MediumShort_b10_cut1_MS_stereo_44KHz.wav
4	9	1	2	0	C	1	1	695	1	poli_8sides 15_whiteLine3.jpg	MediumShort_b10_cut1_MS_stereo_44KHz.wav
4	10	2	2	1	C	2	1	804	1	poli_8sides 6_whiteLine3.jpg	MediumShort_b10_cut1_MS_stereo_44KHz.wav
4	11	4	3	2	I	1	0	912	1	poli_8sides 9_whiteLine3.jpg	MediumShort_e22_cut1_stereo_44KHz.wav
4	12	3	3	2	I	2	0	621	1	poli_8sides 1_whiteLine3.jpg	MediumShort_e22_cut1_stereo_44KHz.wav
4	13	4	4	2	I	1	0	781	1	poli_8sides 9_whiteLine3.jpg	MediumShort_b16_cut3_MS_stereo_44KHz.wav
4	14	2	1	0	C	2	0	1138	0	poli_8sides 6_whiteLine3.jpg	MediumShort_e16_cut1_stereo_44KHz.wav
4	15	3	4	2	I	1	0	1456	0	poli_8sides 1_whiteLine3.jpg	MediumShort_b16_cut3_MS_stereo_44KHz.wav
4	16	1	1	1	C	1	0	671	0	poli_8sides 15_whiteLine3.jpg	MediumShort_e16_cut1_stereo_44KHz.wav
4	17	4	4	2	I	1	0	723	1	poli_8sides 9_whiteLine3.jpg	MediumShort_b16_cut3_MS_stereo_44KHz.wav
4	18	3	3	2	I	1	0	715	1	poli_8sides 1_whiteLine3.jpg	MediumShort_e22_cut1_stereo_44KHz.wav
4	19	2	2	1	C	1	0	1093	0	poli_8sides 6_whiteLine3.jpg	MediumShort_b10_cut1_MS_stereo_44KHz.wav
4	20	1	2	0	C	1	1	705	1	poli_8sides 15_whiteLine3.jpg	MediumShort_b10_cut1_MS_stereo_44KHz.wav
4	21	3	4	2	I	1	0	647	1	poli_8sides 1_whiteLine3.jpg	MediumShort_b16_cut3_MS_stereo_44KHz.wav
4	22	2	1	0	C	1	1	747	1	poli_8sides 6_whiteLine3.jpg	MediumShort_e16_cut1_stereo_44KHz.wav
4	23	1	1	1	C	2	1	967	1	poli_8sides 15_whiteLine3.jpg	MediumShort_e16_cut1_stereo_44KHz.wav
4	24	4	3	2	I	1	0	738	0	poli_8sides 9_whiteLine3.jpg	MediumShort_e22_cut1_stereo_44KHz.wav
4	25	1	2	0	C	1	1	615	1	poli_8sides 15_whiteLine3.jpg	MediumShort_b10_cut1_MS_stereo_44KHz.wav
4	26	2	2	1	C	2	1	884	1	poli_8sides 6_whiteLine3.jpg	MediumShort_b10_cut1_MS_stereo_44KHz.wav
4	27	4	4	2	I	1	0	872	1	poli_8sides 9_whiteLine3.jpg	MediumShort_b16_cut3_MS_stereo_44KHz.wav
4	28	3	3	2	I	1	0	610	1	poli_8sides 1_whiteLine3.jpg	MediumShort_e22_cut1_stereo_44KHz.wav
4	29	1	1	1	C	1	0	995	0	poli_8sides 15_whiteLine3.jpg	MediumShort_e16_cut1_stereo_44KHz.wav
4	30	2	1	0	C	1	1	484	1	poli_8sides 6_whiteLine3.jpg	MediumShort_e16_cut1_stereo_44KHz.wav
4	31	4	3	2	I	1	0	826	0	poli_8sides 9_whiteLine3.jpg	MediumShort_e22_cut1_stereo_44KHz.wav
4	32	3	4	2	I	2	0	1020	1	poli_8sides 1_whiteLine3.jpg	MediumShort_b16_cut3_MS_stereo_44KHz.wav
4	33	1	1	1	C	2	1	998	1	poli_8sides 15_whiteLine3.jpg	MediumShort_e16_cut1_stereo_44KHz.wav
4	34	4	3	2	I	1	0	1063	1	poli_8sides 9_whiteLine3.jpg	MediumShort_e22_cut1_stereo_44KHz.wav
4	35	3	3	2	I	1	0	676	0	poli_8sides 1_whiteLine3.jpg	MediumShort_e22_cut1_stereo_44KHz.wav
4	36	2	2	1	C	2	1	1065	1	poli_8sides 6_whiteLine3.jpg	MediumShort_b10_cut1_MS_stereo_44KHz.wav
4	37	4	4	2	I	1	0	832	1	poli_8sides 9_whiteLine3.jpg	MediumShort_b16_cut3_MS_stereo_44KHz.wav
4	38	2	1	0	C	1	1	709	1	poli_8sides 6_whiteLine3.jpg	MediumShort_e16_cut1_stereo_44KHz.wav
4	39	1	2	0	C	1	1	596	1	poli_8sides 15_whiteLine3.jpg	MediumShort_b10_cut1_MS_stereo_44KHz.wav
4	40	3	4	2	I	1	0	537	1	poli_8sides 1_whiteLine3.jpg	MediumShort_b16_cut3_MS_stereo_44KHz.wav
4	41	1	2	0	C	1	1	644	1	poli_8sides 15_whiteLine3.jpg	MediumShort_b10_cut1_MS_stereo_44KHz.wav
4	42	2	2	1	C	2	1	765	1	poli_8sides 6_whiteLine3.jpg	MediumShort_b10_cut1_MS_stereo_44KHz.wav
4	43	3	4	2	I	1	0	622	0	poli_8sides 1_whiteLine3.jpg	MediumShort_b16_cut3_MS_stereo_44KHz.wav
4	44	4	3	2	I	1	0	703	0	poli_8sides 9_whiteLine3.jpg	MediumShort_e22_cut1_stereo_44KHz.wav
4	45	1	1	1	C	1	0	646	0	poli_8sides 15_whiteLine3.jpg	MediumShort_e16_cut1_stereo_44KHz.wav
4	46	4	4	2	I	1	0	824	1	poli_8sides 9_whiteLine3.jpg	MediumShort_b16_cut3_MS_stereo_44KHz.wav
4	47	3	3	2	I	1	0	599	0	poli_8sides 1_whiteLine3.jpg	MediumShort_e22_cut1_stereo_44KHz.wav
4	48	2	1	0	C	1	1	721	1	poli_8sides 6_whiteLine3.jpg	MediumShort_e16_cut1_stereo_44KHz.wav
4	49	1	1	1	C	1	0	664	0	poli_8sides 15_whiteLine3.jpg	MediumShort_e16_cut1_stereo_44KHz.wav
4	50	2	2	1	C	2	1	822	1	poli_8sides 6_whiteLine3.jpg	MediumShort_b10_cut1_MS_stereo_44KHz.wav
4	51	4	4	2	I	2	0	844	1	poli_8sides 9_whiteLine3.jpg	MediumShort_b16_cut3_MS_stereo_44KHz.wav
4	52	3	3	2	I	1	0	744	1	poli_8sides 1_whiteLine3.jpg	MediumShort_e22_cut1_stereo_44KHz.wav
4	53	2	1	0	C	1	1	638	1	poli_8sides 6_whiteLine3.jpg	MediumShort_e16_cut1_stereo_44KHz.wav
4	54	1	2	0	C	1	1	827	1	poli_8sides 15_whiteLine3.jpg	MediumShort_b10_cut1_MS_stereo_44KHz.wav
4	55	3	4	2	I	1	0	581	1	poli_8sides 1_whiteLine3.jpg	MediumShort_b16_cut3_MS_stereo_44KHz.wav
4	56	4	3	2	I	1	0	493	1	poli_8sides 9_whiteLine3.jpg	MediumShort_e22_cut1_stereo_44KHz.wav
4	57	3	4	2	I	1	0	599	0	poli_8sides 1_whiteLine3.jpg	MediumShort_b16_cut3_MS_stereo_44KHz.wav
4	58	2	1	0	C	1	1	616	1	poli_8sides 6_whiteLine3.jpg	MediumShort_e16_cut1_stereo_44KHz.wav
4	59	4	4	2	I	1	0	633	0	poli_8sides 9_whiteLine3.jpg	MediumShort_b16_cut3_MS_stereo_44KHz.wav
4	60	1	2	0	C	1	1	728	1	poli_8sides 15_whiteLine3.jpg	MediumShort_b10_cut1_MS_stereo_44KHz.wav
4	61	2	2	1	C	2	1	578	1	poli_8sides 6_whiteLine3.jpg	MediumShort_b10_cut1_MS_stereo_44KHz.wav
4	62	4	3	2	I	1	0	690	1	poli_8sides 9_whiteLine3.jpg	MediumShort_e22_cut1_stereo_44KHz.wav
4	63	1	1	1	C	2	1	876	1	poli_8sides 15_whiteLine3.jpg	MediumShort_e16_cut1_stereo_44KHz.wav
4	64	3	3	2	I	1	0	679	1	poli_8sides 1_whiteLine3.jpg	MediumShort_e22_cut1_stereo_44KHz.wav
4	65	4	4	2	I	2	0	972	0	poli_8sides 9_whiteLine3.jpg	MediumShort_b16_cut3_MS_stereo_44KHz.wav
4	66	1	1	1	C	1	0	642	0	poli_8sides 15_whiteLine3.jpg	MediumShort_e16_cut1_stereo_44KHz.wav
4	67	2	2	1	C	2	1	766	1	poli_8sides 6_whiteLine3.jpg	MediumShort_b10_cut1_MS_stereo_44KHz.wav
4	68	3	4	2	I	1	0	548	0	poli_8sides 1_whiteLine3.jpg	MediumShort_b16_cut3_MS_stereo_44KHz.wav
4	69	2	1	0	C	1	1	1369	1	poli_8sides 6_whiteLine3.jpg	MediumShort_e16_cut1_stereo_44KHz.wav
4	70	4	3	2	I	1	0	696	0	poli_8sides 9_whiteLine3.jpg	MediumShort_e22_cut1_stereo_44KHz.wav
4	71	1	2	0	C	1	1	1542	1	poli_8sides 15_whiteLine3.jpg	MediumShort_b10_cut1_MS_stereo_44KHz.wav
4	72	3	3	2	I	1	0	628	1	poli_8sides 1_whiteLine3.jpg	MediumShort_e22_cut1_stereo_44KHz.wav
4	73	4	4	2	I	1	0	446	0	poli_8sides 9_whiteLine3.jpg	MediumShort_b16_cut3_MS_stereo_44KHz.wav
4	74	2	2	1	C	1	0	724	0	poli_8sides 6_whiteLine3.jpg	MediumShort_b10_cut1_MS_stereo_44KHz.wav
4	75	3	4	2	I	1	0	1768	0	poli_8sides 1_whiteLine3.jpg	MediumShort_b16_cut3_MS_stereo_44KHz.wav
4	76	1	1	1	C	2	1	1102	1	poli_8sides 15_whiteLine3.jpg	MediumShort_e16_cut1_stereo_44KHz.wav
4	77	3	3	2	I	1	0	743	1	poli_8sides 1_whiteLine3.jpg	MediumShort_e22_cut1_stereo_44KHz.wav
4	78	2	1	0	C	1	1	657	1	poli_8sides 6_whiteLine3.jpg	MediumShort_e16_cut1_stereo_44KHz.wav
4	79	4	3	2	I	1	0	750	0	poli_8sides 9_whiteLine3.jpg	MediumShort_e22_cut1_stereo_44KHz.wav
4	80	1	2	0	C	1	1	728	1	poli_8sides 15_whiteLine3.jpg	MediumShort_b10_cut1_MS_stereo_44KHz.wav
4	81	2	2	1	C	2	1	778	1	poli_8sides 6_whiteLine3.jpg	MediumShort_b10_cut1_MS_stereo_44KHz.wav
4	82	1	1	1	C	2	1	1140	1	poli_8sides 15_whiteLine3.jpg	MediumShort_e16_cut1_stereo_44KHz.wav
4	83	3	3	2	I	1	0	534	0	poli_8sides 1_whiteLine3.jpg	MediumShort_e22_cut1_stereo_44KHz.wav
4	84	4	3	2	I	1	0	1139	1	poli_8sides 9_whiteLine3.jpg	MediumShort_e22_cut1_stereo_44KHz.wav
4	85	3	4	2	I	1	0	619	0	poli_8sides 1_whiteLine3.jpg	MediumShort_b16_cut3_MS_stereo_44KHz.wav
4	86	2	1	0	C	1	1	792	1	poli_8sides 6_whiteLine3.jpg	MediumShort_e16_cut1_stereo_44KHz.wav
4	87	4	4	2	I	1	0	1082	0	poli_8sides 9_whiteLine3.jpg	MediumShort_b16_cut3_MS_stereo_44KHz.wav
4	88	1	2	0	C	1	1	557	1	poli_8sides 15_whiteLine3.jpg	MediumShort_b10_cut1_MS_stereo_44KHz.wav
4	89	2	1	0	C	1	1	697	1	poli_8sides 6_whiteLine3.jpg	MediumShort_e16_cut1_stereo_44KHz.wav
4	90	4	4	2	I	1	0	709	0	poli_8sides 9_whiteLine3.jpg	MediumShort_b16_cut3_MS_stereo_44KHz.wav
4	91	1	1	1	C	1	0	809	0	poli_8sides 15_whiteLine3.jpg	MediumShort_e16_cut1_stereo_44KHz.wav
4	92	3	3	2	I	1	0	713	0	poli_8sides 1_whiteLine3.jpg	MediumShort_e22_cut1_stereo_44KHz.wav
4	93	2	2	1	C	1	0	642	0	poli_8sides 6_whiteLine3.jpg	MediumShort_b10_cut1_MS_stereo_44KHz.wav
4	94	3	4	2	I	2	0	1191	1	poli_8sides 1_whiteLine3.jpg	MediumShort_b16_cut3_MS_stereo_44KHz.wav
4	95	4	3	2	I	1	0	824	1	poli_8sides 9_whiteLine3.jpg	MediumShort_e22_cut1_stereo_44KHz.wav
4	96	1	2	0	C	1	1	582	1	poli_8sides 15_whiteLine3.jpg	MediumShort_b10_cut1_MS_stereo_44KHz.wav
4	97	2	2	1	C	2	1	680	1	poli_8sides 6_whiteLine3.jpg	MediumShort_b10_cut1_MS_stereo_44KHz.wav
4	98	1	1	1	C	1	0	865	0	poli_8sides 15_whiteLine3.jpg	MediumShort_e16_cut1_stereo_44KHz.wav
4	99	3	3	2	I	1	0	973	0	poli_8sides 1_whiteLine3.jpg	MediumShort_e22_cut1_stereo_44KHz.wav
4	100	4	3	2	I	1	0	1133	1	poli_8sides 9_whiteLine3.jpg	MediumShort_e22_cut1_stereo_44KHz.wav
4	101	3	4	2	I	2	0	821	1	poli_8sides 1_whiteLine3.jpg	MediumShort_b16_cut3_MS_stereo_44KHz.wav
4	102	2	1	0	C	1	1	1148	1	poli_8sides 6_whiteLine3.jpg	MediumShort_e16_cut1_stereo_44KHz.wav
4	103	4	4	2	I	2	0	1306	1	poli_8sides 9_whiteLine3.jpg	MediumShort_b16_cut3_MS_stereo_44KHz.wav
4	104	1	2	0	C	1	1	763	1	poli_8sides 15_whiteLine3.jpg	MediumShort_b10_cut1_MS_stereo_44KHz.wav
4	105	3	4	2	I	2	0	767	0	poli_8sides 1_whiteLine3.jpg	MediumShort_b16_cut3_MS_stereo_44KHz.wav
4	106	2	1	0	C	1	1	905	1	poli_8sides 6_whiteLine3.jpg	MediumShort_e16_cut1_stereo_44KHz.wav
4	107	1	1	1	C	1	0	749	0	poli_8sides 15_whiteLine3.jpg	MediumShort_e16_cut1_stereo_44KHz.wav
4	108	4	4	2	I	1	0	1156	1	poli_8sides 9_whiteLine3.jpg	MediumShort_b16_cut3_MS_stereo_44KHz.wav
4	109	1	2	0	C	1	1	854	1	poli_8sides 15_whiteLine3.jpg	MediumShort_b10_cut1_MS_stereo_44KHz.wav
4	110	3	3	2	I	1	0	818	1	poli_8sides 1_whiteLine3.jpg	MediumShort_e22_cut1_stereo_44KHz.wav
4	111	4	3	2	I	2	0	1149	1	poli_8sides 9_whiteLine3.jpg	MediumShort_e22_cut1_stereo_44KHz.wav
4	112	2	2	1	C	2	1	1248	1	poli_8sides 6_whiteLine3.jpg	MediumShort_b10_cut1_MS_stereo_44KHz.wav
4	113	4	4	2	I	1	0	869	0	poli_8sides 9_whiteLine3.jpg	MediumShort_b16_cut3_MS_stereo_44KHz.wav
4	114	3	3	2	I	1	0	832	1	poli_8sides 1_whiteLine3.jpg	MediumShort_e22_cut1_stereo_44KHz.wav
4	115	2	2	1	C	2	1	1034	1	poli_8sides 6_whiteLine3.jpg	MediumShort_b10_cut1_MS_stereo_44KHz.wav
4	116	1	1	1	C	1	0	614	0	poli_8sides 15_whiteLine3.jpg	MediumShort_e16_cut1_stereo_44KHz.wav
4	117	2	1	0	C	1	1	1431	1	poli_8sides 6_whiteLine3.jpg	MediumShort_e16_cut1_stereo_44KHz.wav
4	118	1	2	0	C	1	1	527	1	poli_8sides 15_whiteLine3.jpg	MediumShort_b10_cut1_MS_stereo_44KHz.wav
4	119	4	3	2	I	1	0	1087	0	poli_8sides 9_whiteLine3.jpg	MediumShort_e22_cut1_stereo_44KHz.wav
4	120	3	4	2	I	2	0	1281	0	poli_8sides 1_whiteLine3.jpg	MediumShort_b16_cut3_MS_stereo_44KHz.wav
4	121	4	4	2	I	1	0	786	0	poli_8sides 9_whiteLine3.jpg	MediumShort_b16_cut3_MS_stereo_44KHz.wav
4	122	1	2	0	C	1	1	619	1	poli_8sides 15_whiteLine3.jpg	MediumShort_b10_cut1_MS_stereo_44KHz.wav
4	123	3	4	2	I	1	0	833	0	poli_8sides 1_whiteLine3.jpg	MediumShort_b16_cut3_MS_stereo_44KHz.wav
4	124	2	1	0	C	1	1	757	1	poli_8sides 6_whiteLine3.jpg	MediumShort_e16_cut1_stereo_44KHz.wav
4	125	1	1	1	C	1	0	823	0	poli_8sides 15_whiteLine3.jpg	MediumShort_e16_cut1_stereo_44KHz.wav
4	126	3	3	2	I	1	0	703	0	poli_8sides 1_whiteLine3.jpg	MediumShort_e22_cut1_stereo_44KHz.wav
4	127	2	2	1	C	2	1	1127	1	poli_8sides 6_whiteLine3.jpg	MediumShort_b10_cut1_MS_stereo_44KHz.wav
4	128	4	3	2	I	1	0	879	1	poli_8sides 9_whiteLine3.jpg	MediumShort_e22_cut1_stereo_44KHz.wav
4	129	1	2	0	C	1	1	914	1	poli_8sides 15_whiteLine3.jpg	MediumShort_b10_cut1_MS_stereo_44KHz.wav
4	130	2	2	1	C	2	1	954	1	poli_8sides 6_whiteLine3.jpg	MediumShort_b10_cut1_MS_stereo_44KHz.wav
4	131	3	4	2	I	2	0	1054	1	poli_8sides 1_whiteLine3.jpg	MediumShort_b16_cut3_MS_stereo_44KHz.wav
4	132	4	4	2	I	1	0	1265	0	poli_8sides 9_whiteLine3.jpg	MediumShort_b16_cut3_MS_stereo_44KHz.wav
4	133	1	1	1	C	1	0	899	0	poli_8sides 15_whiteLine3.jpg	MediumShort_e16_cut1_stereo_44KHz.wav
4	134	3	3	2	I	1	0	833	0	poli_8sides 1_whiteLine3.jpg	MediumShort_e22_cut1_stereo_44KHz.wav
4	135	4	3	2	I	1	0	648	1	poli_8sides 9_whiteLine3.jpg	MediumShort_e22_cut1_stereo_44KHz.wav
4	136	2	1	0	C	1	1	673	1	poli_8sides 6_whiteLine3.jpg	MediumShort_e16_cut1_stereo_44KHz.wav
4	137	3	3	2	I	2	0	837	0	poli_8sides 1_whiteLine3.jpg	MediumShort_e22_cut1_stereo_44KHz.wav
4	138	1	2	0	C	1	1	608	1	poli_8sides 15_whiteLine3.jpg	MediumShort_b10_cut1_MS_stereo_44KHz.wav
4	139	4	3	2	I	1	0	882	1	poli_8sides 9_whiteLine3.jpg	MediumShort_e22_cut1_stereo_44KHz.wav
4	140	2	2	1	C	2	1	807	1	poli_8sides 6_whiteLine3.jpg	MediumShort_b10_cut1_MS_stereo_44KHz.wav
4	141	3	4	2	I	2	0	840	0	poli_8sides 1_whiteLine3.jpg	MediumShort_b16_cut3_MS_stereo_44KHz.wav
4	142	2	1	0	C	0	0	0	0	poli_8sides 6_whiteLine3.jpg	MediumShort_e16_cut1_stereo_44KHz.wav
4	143	4	4	2	I	2	0	1684	0	poli_8sides 9_whiteLine3.jpg	MediumShort_b16_cut3_MS_stereo_44KHz.wav
4	144	1	1	1	C	1	0	712	0	poli_8sides 15_whiteLine3.jpg	MediumShort_e16_cut1_stereo_44KHz.wav
4	145	4	4	2	I	2	0	1030	1	poli_8sides 9_whiteLine3.jpg	MediumShort_b16_cut3_MS_stereo_44KHz.wav
4	146	2	1	0	C	1	1	595	1	poli_8sides 6_whiteLine3.jpg	MediumShort_e16_cut1_stereo_44KHz.wav
4	147	3	4	2	I	2	0	736	1	poli_8sides 1_whiteLine3.jpg	MediumShort_b16_cut3_MS_stereo_44KHz.wav
4	148	1	2	0	C	1	1	591	1	poli_8sides 15_whiteLine3.jpg	MediumShort_b10_cut1_MS_stereo_44KHz.wav
4	149	2	2	1	C	2	1	697	1	poli_8sides 6_whiteLine3.jpg	MediumShort_b10_cut1_MS_stereo_44KHz.wav
4	150	1	1	1	C	2	1	1002	1	poli_8sides 15_whiteLine3.jpg	MediumShort_e16_cut1_stereo_44KHz.wav
4	151	3	3	2	I	1	0	900	1	poli_8sides 1_whiteLine3.jpg	MediumShort_e22_cut1_stereo_44KHz.wav
4	152	4	3	2	I	2	0	753	0	poli_8sides 9_whiteLine3.jpg	MediumShort_e22_cut1_stereo_44KHz.wav
4	153	2	2	1	C	2	1	1331	1	poli_8sides 6_whiteLine3.jpg	MediumShort_b10_cut1_MS_stereo_44KHz.wav
4	154	4	3	2	I	1	0	867	0	poli_8sides 9_whiteLine3.jpg	MediumShort_e22_cut1_stereo_44KHz.wav
4	155	3	3	2	I	1	0	603	1	poli_8sides 1_whiteLine3.jpg	MediumShort_e22_cut1_stereo_44KHz.wav
4	156	1	2	0	C	1	1	933	1	poli_8sides 15_whiteLine3.jpg	MediumShort_b10_cut1_MS_stereo_44KHz.wav
4	157	4	4	2	I	0	0	0	0	poli_8sides 9_whiteLine3.jpg	MediumShort_b16_cut3_MS_stereo_44KHz.wav
4	158	2	1	0	C	1	1	657	1	poli_8sides 6_whiteLine3.jpg	MediumShort_e16_cut1_stereo_44KHz.wav
4	159	3	4	2	I	2	0	1091	1	poli_8sides 1_whiteLine3.jpg	MediumShort_b16_cut3_MS_stereo_44KHz.wav
4	160	1	1	1	C	1	0	602	0	poli_8sides 15_whiteLine3.jpg	MediumShort_e16_cut1_stereo_44KHz.wav
4	161	4	3	2	I	1	0	902	0	poli_8sides 9_whiteLine3.jpg	MediumShort_e22_cut1_stereo_44KHz.wav
4	162	2	1	0	C	1	1	1002	1	poli_8sides 6_whiteLine3.jpg	MediumShort_e16_cut1_stereo_44KHz.wav
4	163	1	2	0	C	1	1	551	1	poli_8sides 15_whiteLine3.jpg	MediumShort_b10_cut1_MS_stereo_44KHz.wav
4	164	3	4	2	I	1	0	517	1	poli_8sides 1_whiteLine3.jpg	MediumShort_b16_cut3_MS_stereo_44KHz.wav
4	165	4	4	2	I	1	0	521	1	poli_8sides 9_whiteLine3.jpg	MediumShort_b16_cut3_MS_stereo_44KHz.wav
4	166	2	2	1	C	2	1	1039	1	poli_8sides 6_whiteLine3.jpg	MediumShort_b10_cut1_MS_stereo_44KHz.wav
4	167	3	3	2	I	1	0	709	0	poli_8sides 1_whiteLine3.jpg	MediumShort_e22_cut1_stereo_44KHz.wav
4	168	1	1	1	C	1	0	694	0	poli_8sides 15_whiteLine3.jpg	MediumShort_e16_cut1_stereo_44KHz.wav
4	169	3	4	2	I	1	0	1012	1	poli_8sides 1_whiteLine3.jpg	MediumShort_b16_cut3_MS_stereo_44KHz.wav
4	170	2	2	1	C	2	1	1093	1	poli_8sides 6_whiteLine3.jpg	MediumShort_b10_cut1_MS_stereo_44KHz.wav
4	171	4	3	2	I	2	0	1206	1	poli_8sides 9_whiteLine3.jpg	MediumShort_e22_cut1_stereo_44KHz.wav
4	172	1	2	0	C	1	1	550	1	poli_8sides 15_whiteLine3.jpg	MediumShort_b10_cut1_MS_stereo_44KHz.wav
4	173	2	1	0	C	1	1	704	1	poli_8sides 6_whiteLine3.jpg	MediumShort_e16_cut1_stereo_44KHz.wav
4	174	4	4	2	I	1	0	1123	0	poli_8sides 9_whiteLine3.jpg	MediumShort_b16_cut3_MS_stereo_44KHz.wav
4	175	3	3	2	I	1	0	453	0	poli_8sides 1_whiteLine3.jpg	MediumShort_e22_cut1_stereo_44KHz.wav
4	176	1	1	1	C	1	0	595	0	poli_8sides 15_whiteLine3.jpg	MediumShort_e16_cut1_stereo_44KHz.wav
4	177	3	4	2	I	1	0	683	0	poli_8sides 1_whiteLine3.jpg	MediumShort_b16_cut3_MS_stereo_44KHz.wav
4	178	2	2	1	C	2	1	817	1	poli_8sides 6_whiteLine3.jpg	MediumShort_b10_cut1_MS_stereo_44KHz.wav
4	179	4	3	2	I	1	0	891	0	poli_8sides 9_whiteLine3.jpg	MediumShort_e22_cut1_stereo_44KHz.wav
4	180	1	2	0	C	1	1	529	1	poli_8sides 15_whiteLine3.jpg	MediumShort_b10_cut1_MS_stereo_44KHz.wav
4	181	4	4	2	I	2	0	1194	0	poli_8sides 9_whiteLine3.jpg	MediumShort_b16_cut3_MS_stereo_44KHz.wav
4	182	1	1	1	C	1	0	1187	0	poli_8sides 15_whiteLine3.jpg	MediumShort_e16_cut1_stereo_44KHz.wav
4	183	3	3	2	I	1	0	732	1	poli_8sides 1_whiteLine3.jpg	MediumShort_e22_cut1_stereo_44KHz.wav
4	184	2	1	0	C	1	1	773	1	poli_8sides 6_whiteLine3.jpg	MediumShort_e16_cut1_stereo_44KHz.wav
4	185	3	3	2	I	1	0	586	1	poli_8sides 1_whiteLine3.jpg	MediumShort_e22_cut1_stereo_44KHz.wav
4	186	2	1	0	C	1	1	605	1	poli_8sides 6_whiteLine3.jpg	MediumShort_e16_cut1_stereo_44KHz.wav
4	187	4	4	2	I	1	0	938	1	poli_8sides 9_whiteLine3.jpg	MediumShort_b16_cut3_MS_stereo_44KHz.wav
4	188	1	1	1	C	1	0	676	0	poli_8sides 15_whiteLine3.jpg	MediumShort_e16_cut1_stereo_44KHz.wav
4	189	3	4	2	I	2	0	1288	0	poli_8sides 1_whiteLine3.jpg	MediumShort_b16_cut3_MS_stereo_44KHz.wav
4	190	1	2	0	C	1	1	836	1	poli_8sides 15_whiteLine3.jpg	MediumShort_b10_cut1_MS_stereo_44KHz.wav
4	191	4	3	2	I	2	0	1187	0	poli_8sides 9_whiteLine3.jpg	MediumShort_e22_cut1_stereo_44KHz.wav
4	192	2	2	1	C	1	0	659	0	poli_8sides 6_whiteLine3.jpg	MediumShort_b10_cut1_MS_stereo_44KHz.wav
4	193	3	4	2	I	2	0	911	0	poli_8sides 1_whiteLine3.jpg	MediumShort_b16_cut3_MS_stereo_44KHz.wav
4	194	2	2	1	C	2	1	976	1	poli_8sides 6_whiteLine3.jpg	MediumShort_b10_cut1_MS_stereo_44KHz.wav
4	195	1	1	1	C	2	1	792	1	poli_8sides 15_whiteLine3.jpg	MediumShort_e16_cut1_stereo_44KHz.wav
4	196	4	3	2	I	1	0	1241	0	poli_8sides 9_whiteLine3.jpg	MediumShort_e22_cut1_stereo_44KHz.wav
4	197	3	3	2	I	1	0	514	1	poli_8sides 1_whiteLine3.jpg	MediumShort_e22_cut1_stereo_44KHz.wav
4	198	2	1	0	C	1	1	828	1	poli_8sides 6_whiteLine3.jpg	MediumShort_e16_cut1_stereo_44KHz.wav
4	199	4	4	2	I	1	0	1118	1	poli_8sides 9_whiteLine3.jpg	MediumShort_b16_cut3_MS_stereo_44KHz.wav
4	200	1	2	0	C	1	1	720	1	poli_8sides 15_whiteLine3.jpg	MediumShort_b10_cut1_MS_stereo_44KHz.wav
