block	trial	Vstim	Astim	match	C/I	resp	result	RT	fb	V-file	A-file
RL

0	1	1	2	0	C	1	0	1573	0	poli_8sides 23_whiteLine3.jpg	Practice4_b26_stereo_44KHz.wav
0	2	2	3	1	C	2	0	1292	0	poli_8sides 21_whiteLine3.jpg	Practice1_b27_cut1_stereo_44KHz.wav
0	3	2	4	0	C	2	1	1624	1	poli_8sides 21_whiteLine3.jpg	Practice2_b27_cut2_stereo_44KHz.wav
0	4	1	1	1	C	2	0	1732	0	poli_8sides 23_whiteLine3.jpg	Practice3_b26_cut1_stereo_44KHz.wav
0	5	2	4	0	C	1	0	1558	0	poli_8sides 21_whiteLine3.jpg	Practice2_b27_cut2_stereo_44KHz.wav
0	6	1	1	1	C	2	0	1050	0	poli_8sides 23_whiteLine3.jpg	Practice3_b26_cut1_stereo_44KHz.wav
0	7	2	3	1	C	0	0	0	0	poli_8sides 21_whiteLine3.jpg	Practice1_b27_cut1_stereo_44KHz.wav
0	8	1	2	0	C	2	1	776	1	poli_8sides 23_whiteLine3.jpg	Practice4_b26_stereo_44KHz.wav
0	9	1	1	1	C	1	1	1040	1	poli_8sides 23_whiteLine3.jpg	Practice3_b26_cut1_stereo_44KHz.wav
0	10	2	4	0	C	2	1	993	1	poli_8sides 21_whiteLine3.jpg	Practice2_b27_cut2_stereo_44KHz.wav
0	11	1	2	0	C	2	1	1135	1	poli_8sides 23_whiteLine3.jpg	Practice4_b26_stereo_44KHz.wav
0	12	2	3	1	C	1	1	1059	1	poli_8sides 21_whiteLine3.jpg	Practice1_b27_cut1_stereo_44KHz.wav
0	13	2	4	0	C	2	1	934	1	poli_8sides 21_whiteLine3.jpg	Practice2_b27_cut2_stereo_44KHz.wav
0	14	2	3	1	C	2	0	788	0	poli_8sides 21_whiteLine3.jpg	Practice1_b27_cut1_stereo_44KHz.wav
0	15	1	1	1	C	2	0	917	0	poli_8sides 23_whiteLine3.jpg	Practice3_b26_cut1_stereo_44KHz.wav
0	16	1	2	0	C	2	1	683	1	poli_8sides 23_whiteLine3.jpg	Practice4_b26_stereo_44KHz.wav
0	17	2	3	1	C	2	0	764	0	poli_8sides 21_whiteLine3.jpg	Practice1_b27_cut1_stereo_44KHz.wav
0	18	1	1	1	C	2	0	1146	0	poli_8sides 23_whiteLine3.jpg	Practice3_b26_cut1_stereo_44KHz.wav
0	19	1	2	0	C	1	0	1012	0	poli_8sides 23_whiteLine3.jpg	Practice4_b26_stereo_44KHz.wav
0	20	2	4	0	C	2	1	1083	1	poli_8sides 21_whiteLine3.jpg	Practice2_b27_cut2_stereo_44KHz.wav
0	21	2	4	0	C	2	1	890	1	poli_8sides 21_whiteLine3.jpg	Practice2_b27_cut2_stereo_44KHz.wav
0	22	2	3	1	C	2	0	1378	0	poli_8sides 21_whiteLine3.jpg	Practice1_b27_cut1_stereo_44KHz.wav
0	23	1	2	0	C	1	0	1628	0	poli_8sides 23_whiteLine3.jpg	Practice4_b26_stereo_44KHz.wav
0	24	1	1	1	C	2	0	813	0	poli_8sides 23_whiteLine3.jpg	Practice3_b26_cut1_stereo_44KHz.wav
0	25	1	1	1	C	2	0	917	0	poli_8sides 23_whiteLine3.jpg	Practice3_b26_cut1_stereo_44KHz.wav
0	26	2	4	0	C	1	0	1649	0	poli_8sides 21_whiteLine3.jpg	Practice2_b27_cut2_stereo_44KHz.wav
0	27	2	3	1	C	2	0	889	0	poli_8sides 21_whiteLine3.jpg	Practice1_b27_cut1_stereo_44KHz.wav
0	28	1	2	0	C	1	0	888	0	poli_8sides 23_whiteLine3.jpg	Practice4_b26_stereo_44KHz.wav
0	29	1	2	0	C	2	1	831	1	poli_8sides 23_whiteLine3.jpg	Practice4_b26_stereo_44KHz.wav
0	30	1	1	1	C	1	1	1099	1	poli_8sides 23_whiteLine3.jpg	Practice3_b26_cut1_stereo_44KHz.wav
avg_resp = 1012
1	1	3	4	2	I	1	0	1086	0	poli_8sides 9_whiteLine3.jpg	Short_b09_cut1_stereo_44KHz.wav
1	2	1	2	0	C	2	1	810	1	poli_8sides 11_whiteLine3.jpg	Short_b23_cut1_stereo_44KHz.wav
1	3	4	3	2	I	1	0	975	1	poli_8sides 10_whiteLine3.jpg	Short_b22_cut1_stereo_44KHz.wav
1	4	2	2	1	C	2	0	850	0	poli_8sides 6_whiteLine3.jpg	Short_b23_cut1_stereo_44KHz.wav
1	5	1	1	1	C	1	1	917	1	poli_8sides 11_whiteLine3.jpg	Short_b20_cut1_stereo_44KHz.wav
1	6	3	3	2	I	2	0	1035	0	poli_8sides 9_whiteLine3.jpg	Short_b22_cut1_stereo_44KHz.wav
1	7	2	1	0	C	1	0	832	0	poli_8sides 6_whiteLine3.jpg	Short_b20_cut1_stereo_44KHz.wav
1	8	4	4	2	I	1	0	1134	1	poli_8sides 10_whiteLine3.jpg	Short_b09_cut1_stereo_44KHz.wav
1	9	2	1	0	C	2	1	722	1	poli_8sides 6_whiteLine3.jpg	Short_b20_cut1_stereo_44KHz.wav
1	10	3	3	2	I	1	0	757	1	poli_8sides 9_whiteLine3.jpg	Short_b22_cut1_stereo_44KHz.wav
1	11	4	4	2	I	2	0	1077	0	poli_8sides 10_whiteLine3.jpg	Short_b09_cut1_stereo_44KHz.wav
1	12	1	2	0	C	2	1	917	1	poli_8sides 11_whiteLine3.jpg	Short_b23_cut1_stereo_44KHz.wav
1	13	4	3	2	I	1	0	1024	1	poli_8sides 10_whiteLine3.jpg	Short_b22_cut1_stereo_44KHz.wav
1	14	3	4	2	I	2	0	932	0	poli_8sides 9_whiteLine3.jpg	Short_b09_cut1_stereo_44KHz.wav
1	15	1	1	1	C	2	0	804	0	poli_8sides 11_whiteLine3.jpg	Short_b20_cut1_stereo_44KHz.wav
1	16	2	2	1	C	2	0	766	0	poli_8sides 6_whiteLine3.jpg	Short_b23_cut1_stereo_44KHz.wav
1	17	4	4	2	I	1	0	732	0	poli_8sides 10_whiteLine3.jpg	Short_b09_cut1_stereo_44KHz.wav
1	18	3	3	2	I	2	0	738	0	poli_8sides 9_whiteLine3.jpg	Short_b22_cut1_stereo_44KHz.wav
1	19	1	2	0	C	2	1	746	1	poli_8sides 11_whiteLine3.jpg	Short_b23_cut1_stereo_44KHz.wav
1	20	2	2	1	C	1	1	705	1	poli_8sides 6_whiteLine3.jpg	Short_b23_cut1_stereo_44KHz.wav
1	21	3	4	2	I	1	0	1172	1	poli_8sides 9_whiteLine3.jpg	Short_b09_cut1_stereo_44KHz.wav
1	22	1	1	1	C	2	0	666	0	poli_8sides 11_whiteLine3.jpg	Short_b20_cut1_stereo_44KHz.wav
1	23	2	1	0	C	1	0	802	0	poli_8sides 6_whiteLine3.jpg	Short_b20_cut1_stereo_44KHz.wav
1	24	4	3	2	I	1	0	1059	1	poli_8sides 10_whiteLine3.jpg	Short_b22_cut1_stereo_44KHz.wav
1	25	2	1	0	C	2	1	1095	1	poli_8sides 6_whiteLine3.jpg	Short_b20_cut1_stereo_44KHz.wav
1	26	1	2	0	C	2	1	921	1	poli_8sides 11_whiteLine3.jpg	Short_b23_cut1_stereo_44KHz.wav
1	27	3	4	2	I	1	0	646	0	poli_8sides 9_whiteLine3.jpg	Short_b09_cut1_stereo_44KHz.wav
1	28	4	4	2	I	1	0	1311	1	poli_8sides 10_whiteLine3.jpg	Short_b09_cut1_stereo_44KHz.wav
1	29	2	2	1	C	2	0	836	0	poli_8sides 6_whiteLine3.jpg	Short_b23_cut1_stereo_44KHz.wav
1	30	4	3	2	I	1	0	922	0	poli_8sides 10_whiteLine3.jpg	Short_b22_cut1_stereo_44KHz.wav
1	31	3	3	2	I	1	0	712	1	poli_8sides 9_whiteLine3.jpg	Short_b22_cut1_stereo_44KHz.wav
1	32	1	1	1	C	2	0	877	0	poli_8sides 11_whiteLine3.jpg	Short_b20_cut1_stereo_44KHz.wav
1	33	4	3	2	I	1	0	961	0	poli_8sides 10_whiteLine3.jpg	Short_b22_cut1_stereo_44KHz.wav
1	34	3	4	2	I	2	0	973	0	poli_8sides 9_whiteLine3.jpg	Short_b09_cut1_stereo_44KHz.wav
1	35	2	1	0	C	2	1	614	1	poli_8sides 6_whiteLine3.jpg	Short_b20_cut1_stereo_44KHz.wav
1	36	1	2	0	C	2	1	953	1	poli_8sides 11_whiteLine3.jpg	Short_b23_cut1_stereo_44KHz.wav
1	37	2	2	1	C	1	1	692	1	poli_8sides 6_whiteLine3.jpg	Short_b23_cut1_stereo_44KHz.wav
1	38	4	4	2	I	1	0	743	0	poli_8sides 10_whiteLine3.jpg	Short_b09_cut1_stereo_44KHz.wav
1	39	1	1	1	C	1	1	1072	1	poli_8sides 11_whiteLine3.jpg	Short_b20_cut1_stereo_44KHz.wav
1	40	3	3	2	I	1	0	923	1	poli_8sides 9_whiteLine3.jpg	Short_b22_cut1_stereo_44KHz.wav
1	41	1	1	1	C	2	0	697	0	poli_8sides 11_whiteLine3.jpg	Short_b20_cut1_stereo_44KHz.wav
1	42	2	1	0	C	2	1	802	1	poli_8sides 6_whiteLine3.jpg	Short_b20_cut1_stereo_44KHz.wav
1	43	3	3	2	I	1	0	794	0	poli_8sides 9_whiteLine3.jpg	Short_b22_cut1_stereo_44KHz.wav
1	44	4	4	2	I	2	0	588	0	poli_8sides 10_whiteLine3.jpg	Short_b09_cut1_stereo_44KHz.wav
1	45	3	4	2	I	2	0	766	1	poli_8sides 9_whiteLine3.jpg	Short_b09_cut1_stereo_44KHz.wav
1	46	4	3	2	I	1	0	853	0	poli_8sides 10_whiteLine3.jpg	Short_b22_cut1_stereo_44KHz.wav
1	47	2	2	1	C	2	0	508	0	poli_8sides 6_whiteLine3.jpg	Short_b23_cut1_stereo_44KHz.wav
1	48	1	2	0	C	2	1	685	1	poli_8sides 11_whiteLine3.jpg	Short_b23_cut1_stereo_44KHz.wav
1	49	2	2	1	C	1	1	654	1	poli_8sides 6_whiteLine3.jpg	Short_b23_cut1_stereo_44KHz.wav
1	50	4	3	2	I	2	0	1149	1	poli_8sides 10_whiteLine3.jpg	Short_b22_cut1_stereo_44KHz.wav
1	51	1	2	0	C	1	0	834	0	poli_8sides 11_whiteLine3.jpg	Short_b23_cut1_stereo_44KHz.wav
1	52	3	3	2	I	1	0	973	1	poli_8sides 9_whiteLine3.jpg	Short_b22_cut1_stereo_44KHz.wav
1	53	4	4	2	I	2	0	927	1	poli_8sides 10_whiteLine3.jpg	Short_b09_cut1_stereo_44KHz.wav
1	54	2	1	0	C	2	1	881	1	poli_8sides 6_whiteLine3.jpg	Short_b20_cut1_stereo_44KHz.wav
1	55	1	1	1	C	1	1	654	1	poli_8sides 11_whiteLine3.jpg	Short_b20_cut1_stereo_44KHz.wav
1	56	3	4	2	I	2	0	820	1	poli_8sides 9_whiteLine3.jpg	Short_b09_cut1_stereo_44KHz.wav
1	57	1	1	1	C	1	1	774	1	poli_8sides 11_whiteLine3.jpg	Short_b20_cut1_stereo_44KHz.wav
1	58	2	2	1	C	2	0	605	0	poli_8sides 6_whiteLine3.jpg	Short_b23_cut1_stereo_44KHz.wav
1	59	3	4	2	I	2	0	686	0	poli_8sides 9_whiteLine3.jpg	Short_b09_cut1_stereo_44KHz.wav
1	60	4	4	2	I	2	0	594	1	poli_8sides 10_whiteLine3.jpg	Short_b09_cut1_stereo_44KHz.wav
1	61	2	1	0	C	2	1	817	1	poli_8sides 6_whiteLine3.jpg	Short_b20_cut1_stereo_44KHz.wav
1	62	4	3	2	I	2	0	814	0	poli_8sides 10_whiteLine3.jpg	Short_b22_cut1_stereo_44KHz.wav
1	63	3	3	2	I	2	0	1057	0	poli_8sides 9_whiteLine3.jpg	Short_b22_cut1_stereo_44KHz.wav
1	64	1	2	0	C	2	1	750	1	poli_8sides 11_whiteLine3.jpg	Short_b23_cut1_stereo_44KHz.wav
1	65	4	4	2	I	2	0	708	1	poli_8sides 10_whiteLine3.jpg	Short_b09_cut1_stereo_44KHz.wav
1	66	3	4	2	I	1	0	713	1	poli_8sides 9_whiteLine3.jpg	Short_b09_cut1_stereo_44KHz.wav
1	67	2	1	0	C	1	0	1428	0	poli_8sides 6_whiteLine3.jpg	Short_b20_cut1_stereo_44KHz.wav
1	68	1	2	0	C	1	0	776	0	poli_8sides 11_whiteLine3.jpg	Short_b23_cut1_stereo_44KHz.wav
1	69	4	3	2	I	2	0	493	1	poli_8sides 10_whiteLine3.jpg	Short_b22_cut1_stereo_44KHz.wav
1	70	1	1	1	C	1	1	757	1	poli_8sides 11_whiteLine3.jpg	Short_b20_cut1_stereo_44KHz.wav
1	71	3	3	2	I	2	0	577	0	poli_8sides 9_whiteLine3.jpg	Short_b22_cut1_stereo_44KHz.wav
1	72	2	2	1	C	2	0	574	0	poli_8sides 6_whiteLine3.jpg	Short_b23_cut1_stereo_44KHz.wav
1	73	3	3	2	I	2	0	542	1	poli_8sides 9_whiteLine3.jpg	Short_b22_cut1_stereo_44KHz.wav
1	74	2	2	1	C	1	1	640	1	poli_8sides 6_whiteLine3.jpg	Short_b23_cut1_stereo_44KHz.wav
1	75	4	3	2	I	1	0	894	0	poli_8sides 10_whiteLine3.jpg	Short_b22_cut1_stereo_44KHz.wav
1	76	1	2	0	C	2	1	580	1	poli_8sides 11_whiteLine3.jpg	Short_b23_cut1_stereo_44KHz.wav
1	77	2	1	0	C	1	0	781	0	poli_8sides 6_whiteLine3.jpg	Short_b20_cut1_stereo_44KHz.wav
1	78	1	1	1	C	2	0	734	0	poli_8sides 11_whiteLine3.jpg	Short_b20_cut1_stereo_44KHz.wav
1	79	3	4	2	I	1	0	893	1	poli_8sides 9_whiteLine3.jpg	Short_b09_cut1_stereo_44KHz.wav
1	80	4	4	2	I	2	0	691	1	poli_8sides 10_whiteLine3.jpg	Short_b09_cut1_stereo_44KHz.wav
1	81	2	2	1	C	1	1	800	1	poli_8sides 6_whiteLine3.jpg	Short_b23_cut1_stereo_44KHz.wav
1	82	1	1	1	C	2	0	628	0	poli_8sides 11_whiteLine3.jpg	Short_b20_cut1_stereo_44KHz.wav
1	83	4	4	2	I	2	0	839	1	poli_8sides 10_whiteLine3.jpg	Short_b09_cut1_stereo_44KHz.wav
1	84	3	4	2	I	1	0	588	1	poli_8sides 9_whiteLine3.jpg	Short_b09_cut1_stereo_44KHz.wav
1	85	2	1	0	C	1	0	664	0	poli_8sides 6_whiteLine3.jpg	Short_b20_cut1_stereo_44KHz.wav
1	86	3	3	2	I	2	0	757	0	poli_8sides 9_whiteLine3.jpg	Short_b22_cut1_stereo_44KHz.wav
1	87	4	3	2	I	1	0	649	1	poli_8sides 10_whiteLine3.jpg	Short_b22_cut1_stereo_44KHz.wav
1	88	1	2	0	C	2	1	828	1	poli_8sides 11_whiteLine3.jpg	Short_b23_cut1_stereo_44KHz.wav
1	89	4	4	2	I	2	0	932	0	poli_8sides 10_whiteLine3.jpg	Short_b09_cut1_stereo_44KHz.wav
1	90	1	1	1	C	2	0	790	0	poli_8sides 11_whiteLine3.jpg	Short_b20_cut1_stereo_44KHz.wav
1	91	3	4	2	I	2	0	632	1	poli_8sides 9_whiteLine3.jpg	Short_b09_cut1_stereo_44KHz.wav
1	92	2	2	1	C	1	1	838	1	poli_8sides 6_whiteLine3.jpg	Short_b23_cut1_stereo_44KHz.wav
1	93	1	2	0	C	2	1	900	1	poli_8sides 11_whiteLine3.jpg	Short_b23_cut1_stereo_44KHz.wav
1	94	4	3	2	I	1	0	853	1	poli_8sides 10_whiteLine3.jpg	Short_b22_cut1_stereo_44KHz.wav
1	95	3	3	2	I	1	0	861	0	poli_8sides 9_whiteLine3.jpg	Short_b22_cut1_stereo_44KHz.wav
1	96	2	1	0	C	2	1	595	1	poli_8sides 6_whiteLine3.jpg	Short_b20_cut1_stereo_44KHz.wav
1	97	1	1	1	C	1	1	620	1	poli_8sides 11_whiteLine3.jpg	Short_b20_cut1_stereo_44KHz.wav
1	98	3	4	2	I	2	0	712	0	poli_8sides 9_whiteLine3.jpg	Short_b09_cut1_stereo_44KHz.wav
1	99	2	2	1	C	1	1	581	1	poli_8sides 6_whiteLine3.jpg	Short_b23_cut1_stereo_44KHz.wav
1	100	4	3	2	I	1	0	691	1	poli_8sides 10_whiteLine3.jpg	Short_b22_cut1_stereo_44KHz.wav
1	101	3	3	2	I	1	0	718	1	poli_8sides 9_whiteLine3.jpg	Short_b22_cut1_stereo_44KHz.wav
1	102	2	1	0	C	2	1	546	1	poli_8sides 6_whiteLine3.jpg	Short_b20_cut1_stereo_44KHz.wav
1	103	4	4	2	I	1	0	733	0	poli_8sides 10_whiteLine3.jpg	Short_b09_cut1_stereo_44KHz.wav
1	104	1	2	0	C	2	1	1318	1	poli_8sides 11_whiteLine3.jpg	Short_b23_cut1_stereo_44KHz.wav
1	105	4	3	2	I	2	0	489	1	poli_8sides 10_whiteLine3.jpg	Short_b22_cut1_stereo_44KHz.wav
1	106	1	2	0	C	2	1	444	1	poli_8sides 11_whiteLine3.jpg	Short_b23_cut1_stereo_44KHz.wav
1	107	2	1	0	C	1	0	488	0	poli_8sides 6_whiteLine3.jpg	Short_b20_cut1_stereo_44KHz.wav
1	108	3	3	2	I	1	0	872	0	poli_8sides 9_whiteLine3.jpg	Short_b22_cut1_stereo_44KHz.wav
1	109	2	2	1	C	2	0	639	0	poli_8sides 6_whiteLine3.jpg	Short_b23_cut1_stereo_44KHz.wav
1	110	4	4	2	I	2	0	940	1	poli_8sides 10_whiteLine3.jpg	Short_b09_cut1_stereo_44KHz.wav
1	111	3	4	2	I	1	0	806	1	poli_8sides 9_whiteLine3.jpg	Short_b09_cut1_stereo_44KHz.wav
1	112	1	1	1	C	1	1	942	1	poli_8sides 11_whiteLine3.jpg	Short_b20_cut1_stereo_44KHz.wav
1	113	3	4	2	I	2	0	933	1	poli_8sides 9_whiteLine3.jpg	Short_b09_cut1_stereo_44KHz.wav
1	114	1	1	1	C	1	1	725	1	poli_8sides 11_whiteLine3.jpg	Short_b20_cut1_stereo_44KHz.wav
1	115	2	1	0	C	2	1	1054	1	poli_8sides 6_whiteLine3.jpg	Short_b20_cut1_stereo_44KHz.wav
1	116	4	3	2	I	1	0	901	0	poli_8sides 10_whiteLine3.jpg	Short_b22_cut1_stereo_44KHz.wav
1	117	3	3	2	I	2	0	746	1	poli_8sides 9_whiteLine3.jpg	Short_b22_cut1_stereo_44KHz.wav
1	118	1	2	0	C	1	0	650	0	poli_8sides 11_whiteLine3.jpg	Short_b23_cut1_stereo_44KHz.wav
1	119	2	2	1	C	1	1	968	1	poli_8sides 6_whiteLine3.jpg	Short_b23_cut1_stereo_44KHz.wav
1	120	4	4	2	I	2	0	1004	1	poli_8sides 10_whiteLine3.jpg	Short_b09_cut1_stereo_44KHz.wav
1	121	1	2	0	C	2	1	1156	1	poli_8sides 11_whiteLine3.jpg	Short_b23_cut1_stereo_44KHz.wav
1	122	4	3	2	I	1	0	971	1	poli_8sides 10_whiteLine3.jpg	Short_b22_cut1_stereo_44KHz.wav
1	123	2	1	0	C	2	1	981	1	poli_8sides 6_whiteLine3.jpg	Short_b20_cut1_stereo_44KHz.wav
1	124	3	4	2	I	1	0	618	0	poli_8sides 9_whiteLine3.jpg	Short_b09_cut1_stereo_44KHz.wav
1	125	1	1	1	C	2	0	849	0	poli_8sides 11_whiteLine3.jpg	Short_b20_cut1_stereo_44KHz.wav
1	126	3	3	2	I	2	0	1073	1	poli_8sides 9_whiteLine3.jpg	Short_b22_cut1_stereo_44KHz.wav
1	127	4	4	2	I	1	0	915	0	poli_8sides 10_whiteLine3.jpg	Short_b09_cut1_stereo_44KHz.wav
1	128	2	2	1	C	1	1	757	1	poli_8sides 6_whiteLine3.jpg	Short_b23_cut1_stereo_44KHz.wav
1	129	4	4	2	I	2	0	817	0	poli_8sides 10_whiteLine3.jpg	Short_b09_cut1_stereo_44KHz.wav
1	130	1	2	0	C	1	0	815	0	poli_8sides 11_whiteLine3.jpg	Short_b23_cut1_stereo_44KHz.wav
1	131	3	3	2	I	1	0	924	1	poli_8sides 9_whiteLine3.jpg	Short_b22_cut1_stereo_44KHz.wav
1	132	2	2	1	C	2	0	658	0	poli_8sides 6_whiteLine3.jpg	Short_b23_cut1_stereo_44KHz.wav
1	133	3	4	2	I	1	0	778	0	poli_8sides 9_whiteLine3.jpg	Short_b09_cut1_stereo_44KHz.wav
1	134	1	1	1	C	2	0	786	0	poli_8sides 11_whiteLine3.jpg	Short_b20_cut1_stereo_44KHz.wav
1	135	2	1	0	C	1	0	738	0	poli_8sides 6_whiteLine3.jpg	Short_b20_cut1_stereo_44KHz.wav
1	136	4	3	2	I	2	0	972	0	poli_8sides 10_whiteLine3.jpg	Short_b22_cut1_stereo_44KHz.wav
1	137	1	2	0	C	2	1	893	1	poli_8sides 11_whiteLine3.jpg	Short_b23_cut1_stereo_44KHz.wav
1	138	3	4	2	I	1	0	603	1	poli_8sides 9_whiteLine3.jpg	Short_b09_cut1_stereo_44KHz.wav
1	139	2	2	1	C	2	0	747	0	poli_8sides 6_whiteLine3.jpg	Short_b23_cut1_stereo_44KHz.wav
1	140	4	4	2	I	2	0	758	1	poli_8sides 10_whiteLine3.jpg	Short_b09_cut1_stereo_44KHz.wav
1	141	3	3	2	I	1	0	820	1	poli_8sides 9_whiteLine3.jpg	Short_b22_cut1_stereo_44KHz.wav
1	142	4	3	2	I	2	0	634	1	poli_8sides 10_whiteLine3.jpg	Short_b22_cut1_stereo_44KHz.wav
1	143	1	1	1	C	1	1	699	1	poli_8sides 11_whiteLine3.jpg	Short_b20_cut1_stereo_44KHz.wav
1	144	2	1	0	C	2	1	598	1	poli_8sides 6_whiteLine3.jpg	Short_b20_cut1_stereo_44KHz.wav
1	145	3	4	2	I	2	0	975	0	poli_8sides 9_whiteLine3.jpg	Short_b09_cut1_stereo_44KHz.wav
1	146	4	4	2	I	2	0	863	1	poli_8sides 10_whiteLine3.jpg	Short_b09_cut1_stereo_44KHz.wav
1	147	1	1	1	C	1	1	772	1	poli_8sides 11_whiteLine3.jpg	Short_b20_cut1_stereo_44KHz.wav
1	148	2	2	1	C	1	1	927	1	poli_8sides 6_whiteLine3.jpg	Short_b23_cut1_stereo_44KHz.wav
1	149	3	3	2	I	2	0	735	0	poli_8sides 9_whiteLine3.jpg	Short_b22_cut1_stereo_44KHz.wav
1	150	1	2	0	C	2	1	880	1	poli_8sides 11_whiteLine3.jpg	Short_b23_cut1_stereo_44KHz.wav
1	151	4	3	2	I	1	0	745	0	poli_8sides 10_whiteLine3.jpg	Short_b22_cut1_stereo_44KHz.wav
1	152	2	1	0	C	2	1	799	1	poli_8sides 6_whiteLine3.jpg	Short_b20_cut1_stereo_44KHz.wav
1	153	3	3	2	I	1	0	1023	0	poli_8sides 9_whiteLine3.jpg	Short_b22_cut1_stereo_44KHz.wav
1	154	2	1	0	C	2	1	647	1	poli_8sides 6_whiteLine3.jpg	Short_b20_cut1_stereo_44KHz.wav
1	155	1	1	1	C	1	1	781	1	poli_8sides 11_whiteLine3.jpg	Short_b20_cut1_stereo_44KHz.wav
1	156	4	4	2	I	1	0	1006	1	poli_8sides 10_whiteLine3.jpg	Short_b09_cut1_stereo_44KHz.wav
1	157	2	2	1	C	1	1	783	1	poli_8sides 6_whiteLine3.jpg	Short_b23_cut1_stereo_44KHz.wav
1	158	4	3	2	I	2	0	746	0	poli_8sides 10_whiteLine3.jpg	Short_b22_cut1_stereo_44KHz.wav
1	159	3	4	2	I	1	0	810	1	poli_8sides 9_whiteLine3.jpg	Short_b09_cut1_stereo_44KHz.wav
1	160	1	2	0	C	2	1	1051	1	poli_8sides 11_whiteLine3.jpg	Short_b23_cut1_stereo_44KHz.wav
1	161	2	2	1	C	1	1	766	1	poli_8sides 6_whiteLine3.jpg	Short_b23_cut1_stereo_44KHz.wav
1	162	1	2	0	C	2	1	840	1	poli_8sides 11_whiteLine3.jpg	Short_b23_cut1_stereo_44KHz.wav
1	163	3	4	2	I	2	0	914	1	poli_8sides 9_whiteLine3.jpg	Short_b09_cut1_stereo_44KHz.wav
1	164	4	3	2	I	2	0	1044	0	poli_8sides 10_whiteLine3.jpg	Short_b22_cut1_stereo_44KHz.wav
1	165	1	1	1	C	1	1	998	1	poli_8sides 11_whiteLine3.jpg	Short_b20_cut1_stereo_44KHz.wav
1	166	2	1	0	C	1	0	612	0	poli_8sides 6_whiteLine3.jpg	Short_b20_cut1_stereo_44KHz.wav
1	167	4	4	2	I	2	0	992	0	poli_8sides 10_whiteLine3.jpg	Short_b09_cut1_stereo_44KHz.wav
1	168	3	3	2	I	2	0	600	1	poli_8sides 9_whiteLine3.jpg	Short_b22_cut1_stereo_44KHz.wav
1	169	1	2	0	C	2	1	880	1	poli_8sides 11_whiteLine3.jpg	Short_b23_cut1_stereo_44KHz.wav
1	170	3	3	2	I	1	0	673	0	poli_8sides 9_whiteLine3.jpg	Short_b22_cut1_stereo_44KHz.wav
1	171	4	4	2	I	2	0	701	0	poli_8sides 10_whiteLine3.jpg	Short_b09_cut1_stereo_44KHz.wav
1	172	2	1	0	C	2	1	949	1	poli_8sides 6_whiteLine3.jpg	Short_b20_cut1_stereo_44KHz.wav
1	173	3	4	2	I	2	0	1109	0	poli_8sides 9_whiteLine3.jpg	Short_b09_cut1_stereo_44KHz.wav
1	174	4	3	2	I	1	0	1090	0	poli_8sides 10_whiteLine3.jpg	Short_b22_cut1_stereo_44KHz.wav
1	175	2	2	1	C	1	1	1054	1	poli_8sides 6_whiteLine3.jpg	Short_b23_cut1_stereo_44KHz.wav
1	176	1	1	1	C	2	0	957	0	poli_8sides 11_whiteLine3.jpg	Short_b20_cut1_stereo_44KHz.wav
1	177	3	4	2	I	2	0	843	0	poli_8sides 9_whiteLine3.jpg	Short_b09_cut1_stereo_44KHz.wav
1	178	1	2	0	C	2	1	999	1	poli_8sides 11_whiteLine3.jpg	Short_b23_cut1_stereo_44KHz.wav
1	179	2	1	0	C	2	1	899	1	poli_8sides 6_whiteLine3.jpg	Short_b20_cut1_stereo_44KHz.wav
1	180	4	4	2	I	1	0	948	1	poli_8sides 10_whiteLine3.jpg	Short_b09_cut1_stereo_44KHz.wav
1	181	2	2	1	C	1	1	910	1	poli_8sides 6_whiteLine3.jpg	Short_b23_cut1_stereo_44KHz.wav
1	182	3	3	2	I	1	0	891	1	poli_8sides 9_whiteLine3.jpg	Short_b22_cut1_stereo_44KHz.wav
1	183	1	1	1	C	2	0	885	0	poli_8sides 11_whiteLine3.jpg	Short_b20_cut1_stereo_44KHz.wav
1	184	4	3	2	I	1	0	871	0	poli_8sides 10_whiteLine3.jpg	Short_b22_cut1_stereo_44KHz.wav
1	185	2	2	1	C	1	1	786	1	poli_8sides 6_whiteLine3.jpg	Short_b23_cut1_stereo_44KHz.wav
1	186	4	4	2	I	2	0	737	0	poli_8sides 10_whiteLine3.jpg	Short_b09_cut1_stereo_44KHz.wav
1	187	3	3	2	I	2	0	961	0	poli_8sides 9_whiteLine3.jpg	Short_b22_cut1_stereo_44KHz.wav
1	188	1	2	0	C	2	1	1037	1	poli_8sides 11_whiteLine3.jpg	Short_b23_cut1_stereo_44KHz.wav
1	189	2	1	0	C	2	1	964	1	poli_8sides 6_whiteLine3.jpg	Short_b20_cut1_stereo_44KHz.wav
1	190	4	3	2	I	1	0	1016	0	poli_8sides 10_whiteLine3.jpg	Short_b22_cut1_stereo_44KHz.wav
1	191	3	4	2	I	2	0	804	0	poli_8sides 9_whiteLine3.jpg	Short_b09_cut1_stereo_44KHz.wav
1	192	1	1	1	C	1	1	1009	1	poli_8sides 11_whiteLine3.jpg	Short_b20_cut1_stereo_44KHz.wav
1	193	4	4	2	I	1	0	1052	0	poli_8sides 10_whiteLine3.jpg	Short_b09_cut1_stereo_44KHz.wav
1	194	1	1	1	C	1	1	1197	1	poli_8sides 11_whiteLine3.jpg	Short_b20_cut1_stereo_44KHz.wav
1	195	2	2	1	C	1	1	885	1	poli_8sides 6_whiteLine3.jpg	Short_b23_cut1_stereo_44KHz.wav
1	196	3	3	2	I	2	0	972	1	poli_8sides 9_whiteLine3.jpg	Short_b22_cut1_stereo_44KHz.wav
1	197	2	1	0	C	2	1	1188	1	poli_8sides 6_whiteLine3.jpg	Short_b20_cut1_stereo_44KHz.wav
1	198	3	4	2	I	1	0	849	0	poli_8sides 9_whiteLine3.jpg	Short_b09_cut1_stereo_44KHz.wav
1	199	1	2	0	C	1	0	808	0	poli_8sides 11_whiteLine3.jpg	Short_b23_cut1_stereo_44KHz.wav
1	200	4	3	2	I	2	0	842	1	poli_8sides 10_whiteLine3.jpg	Short_b22_cut1_stereo_44KHz.wav
2	1	2	2	1	C	1	1	1358	1	poli_8sides 5_whiteLine3.jpg	MediumShort_b16_cut3_MS_stereo_44KHz.wav
2	2	3	3	2	I	2	0	763	0	poli_8sides 1_whiteLine3.jpg	MediumShort_e22_cut1_stereo_44KHz.wav
2	3	1	1	1	C	2	0	874	0	poli_8sides 16_whiteLine3.jpg	MediumShort_b10_cut1_MS_stereo_44KHz.wav
2	4	4	4	2	I	2	0	1030	1	poli_8sides 18_whiteLine3.jpg	MediumShort_e16_cut1_stereo_44KHz.wav
2	5	2	1	0	C	2	1	826	1	poli_8sides 5_whiteLine3.jpg	MediumShort_b10_cut1_MS_stereo_44KHz.wav
2	6	1	2	0	C	1	0	704	0	poli_8sides 16_whiteLine3.jpg	MediumShort_b16_cut3_MS_stereo_44KHz.wav
2	7	4	3	2	I	1	0	1040	0	poli_8sides 18_whiteLine3.jpg	MediumShort_e22_cut1_stereo_44KHz.wav
2	8	3	4	2	I	2	0	778	1	poli_8sides 1_whiteLine3.jpg	MediumShort_e16_cut1_stereo_44KHz.wav
2	9	4	3	2	I	2	0	836	1	poli_8sides 18_whiteLine3.jpg	MediumShort_e22_cut1_stereo_44KHz.wav
2	10	1	1	1	C	1	1	1025	1	poli_8sides 16_whiteLine3.jpg	MediumShort_b10_cut1_MS_stereo_44KHz.wav
2	11	2	2	1	C	1	1	916	1	poli_8sides 5_whiteLine3.jpg	MediumShort_b16_cut3_MS_stereo_44KHz.wav
2	12	3	3	2	I	1	0	1072	0	poli_8sides 1_whiteLine3.jpg	MediumShort_e22_cut1_stereo_44KHz.wav
2	13	2	1	0	C	2	1	889	1	poli_8sides 5_whiteLine3.jpg	MediumShort_b10_cut1_MS_stereo_44KHz.wav
2	14	3	4	2	I	2	0	889	1	poli_8sides 1_whiteLine3.jpg	MediumShort_e16_cut1_stereo_44KHz.wav
2	15	1	2	0	C	2	1	872	1	poli_8sides 16_whiteLine3.jpg	MediumShort_b16_cut3_MS_stereo_44KHz.wav
2	16	4	4	2	I	1	0	903	0	poli_8sides 18_whiteLine3.jpg	MediumShort_e16_cut1_stereo_44KHz.wav
2	17	2	1	0	C	2	1	765	1	poli_8sides 5_whiteLine3.jpg	MediumShort_b10_cut1_MS_stereo_44KHz.wav
2	18	1	2	0	C	2	1	1126	1	poli_8sides 16_whiteLine3.jpg	MediumShort_b16_cut3_MS_stereo_44KHz.wav
2	19	3	4	2	I	1	0	946	1	poli_8sides 1_whiteLine3.jpg	MediumShort_e16_cut1_stereo_44KHz.wav
2	20	4	3	2	I	1	0	899	1	poli_8sides 18_whiteLine3.jpg	MediumShort_e22_cut1_stereo_44KHz.wav
2	21	3	3	2	I	1	0	968	1	poli_8sides 1_whiteLine3.jpg	MediumShort_e22_cut1_stereo_44KHz.wav
2	22	1	1	1	C	2	0	1124	0	poli_8sides 16_whiteLine3.jpg	MediumShort_b10_cut1_MS_stereo_44KHz.wav
2	23	2	2	1	C	1	1	757	1	poli_8sides 5_whiteLine3.jpg	MediumShort_b16_cut3_MS_stereo_44KHz.wav
2	24	4	4	2	I	2	0	1143	1	poli_8sides 18_whiteLine3.jpg	MediumShort_e16_cut1_stereo_44KHz.wav
2	25	1	1	1	C	1	1	1231	1	poli_8sides 16_whiteLine3.jpg	MediumShort_b10_cut1_MS_stereo_44KHz.wav
2	26	2	2	1	C	1	1	817	1	poli_8sides 5_whiteLine3.jpg	MediumShort_b16_cut3_MS_stereo_44KHz.wav
2	27	4	3	2	I	2	0	928	1	poli_8sides 18_whiteLine3.jpg	MediumShort_e22_cut1_stereo_44KHz.wav
2	28	3	4	2	I	1	0	826	0	poli_8sides 1_whiteLine3.jpg	MediumShort_e16_cut1_stereo_44KHz.wav
2	29	2	1	0	C	2	1	913	1	poli_8sides 5_whiteLine3.jpg	MediumShort_b10_cut1_MS_stereo_44KHz.wav
2	30	3	3	2	I	2	0	1125	0	poli_8sides 1_whiteLine3.jpg	MediumShort_e22_cut1_stereo_44KHz.wav
2	31	4	4	2	I	2	0	976	0	poli_8sides 18_whiteLine3.jpg	MediumShort_e16_cut1_stereo_44KHz.wav
2	32	1	2	0	C	1	0	797	0	poli_8sides 16_whiteLine3.jpg	MediumShort_b16_cut3_MS_stereo_44KHz.wav
2	33	3	4	2	I	2	0	1270	1	poli_8sides 1_whiteLine3.jpg	MediumShort_e16_cut1_stereo_44KHz.wav
2	34	1	1	1	C	1	1	961	1	poli_8sides 16_whiteLine3.jpg	MediumShort_b10_cut1_MS_stereo_44KHz.wav
2	35	4	4	2	I	2	0	817	0	poli_8sides 18_whiteLine3.jpg	MediumShort_e16_cut1_stereo_44KHz.wav
2	36	2	1	0	C	2	1	714	1	poli_8sides 5_whiteLine3.jpg	MediumShort_b10_cut1_MS_stereo_44KHz.wav
2	37	3	3	2	I	1	0	1176	1	poli_8sides 1_whiteLine3.jpg	MediumShort_e22_cut1_stereo_44KHz.wav
2	38	4	3	2	I	2	0	1064	1	poli_8sides 18_whiteLine3.jpg	MediumShort_e22_cut1_stereo_44KHz.wav
2	39	2	2	1	C	1	1	789	1	poli_8sides 5_whiteLine3.jpg	MediumShort_b16_cut3_MS_stereo_44KHz.wav
2	40	1	2	0	C	2	1	896	1	poli_8sides 16_whiteLine3.jpg	MediumShort_b16_cut3_MS_stereo_44KHz.wav
2	41	4	4	2	I	2	0	991	1	poli_8sides 18_whiteLine3.jpg	MediumShort_e16_cut1_stereo_44KHz.wav
2	42	2	2	1	C	1	1	785	1	poli_8sides 5_whiteLine3.jpg	MediumShort_b16_cut3_MS_stereo_44KHz.wav
2	43	1	1	1	C	1	1	1164	1	poli_8sides 16_whiteLine3.jpg	MediumShort_b10_cut1_MS_stereo_44KHz.wav
2	44	3	3	2	I	1	0	988	1	poli_8sides 1_whiteLine3.jpg	MediumShort_e22_cut1_stereo_44KHz.wav
2	45	2	1	0	C	2	1	944	1	poli_8sides 5_whiteLine3.jpg	MediumShort_b10_cut1_MS_stereo_44KHz.wav
2	46	4	3	2	I	2	0	1130	1	poli_8sides 18_whiteLine3.jpg	MediumShort_e22_cut1_stereo_44KHz.wav
2	47	3	4	2	I	1	0	895	1	poli_8sides 1_whiteLine3.jpg	MediumShort_e16_cut1_stereo_44KHz.wav
2	48	1	2	0	C	2	1	809	1	poli_8sides 16_whiteLine3.jpg	MediumShort_b16_cut3_MS_stereo_44KHz.wav
2	49	3	4	2	I	2	0	974	1	poli_8sides 1_whiteLine3.jpg	MediumShort_e16_cut1_stereo_44KHz.wav
2	50	1	2	0	C	2	1	761	1	poli_8sides 16_whiteLine3.jpg	MediumShort_b16_cut3_MS_stereo_44KHz.wav
2	51	2	1	0	C	2	1	851	1	poli_8sides 5_whiteLine3.jpg	MediumShort_b10_cut1_MS_stereo_44KHz.wav
2	52	4	3	2	I	1	0	1377	0	poli_8sides 18_whiteLine3.jpg	MediumShort_e22_cut1_stereo_44KHz.wav
2	53	2	2	1	C	1	1	791	1	poli_8sides 5_whiteLine3.jpg	MediumShort_b16_cut3_MS_stereo_44KHz.wav
2	54	4	4	2	I	2	0	932	0	poli_8sides 18_whiteLine3.jpg	MediumShort_e16_cut1_stereo_44KHz.wav
2	55	3	3	2	I	1	0	970	0	poli_8sides 1_whiteLine3.jpg	MediumShort_e22_cut1_stereo_44KHz.wav
2	56	1	1	1	C	1	1	1207	1	poli_8sides 16_whiteLine3.jpg	MediumShort_b10_cut1_MS_stereo_44KHz.wav
2	57	4	4	2	I	1	0	1511	1	poli_8sides 18_whiteLine3.jpg	MediumShort_e16_cut1_stereo_44KHz.wav
2	58	3	3	2	I	1	0	829	1	poli_8sides 1_whiteLine3.jpg	MediumShort_e22_cut1_stereo_44KHz.wav
2	59	2	2	1	C	1	1	777	1	poli_8sides 5_whiteLine3.jpg	MediumShort_b16_cut3_MS_stereo_44KHz.wav
2	60	1	1	1	C	2	0	1106	0	poli_8sides 16_whiteLine3.jpg	MediumShort_b10_cut1_MS_stereo_44KHz.wav
2	61	2	1	0	C	2	1	867	1	poli_8sides 5_whiteLine3.jpg	MediumShort_b10_cut1_MS_stereo_44KHz.wav
2	62	3	4	2	I	1	0	1121	1	poli_8sides 1_whiteLine3.jpg	MediumShort_e16_cut1_stereo_44KHz.wav
2	63	4	3	2	I	2	0	1024	1	poli_8sides 18_whiteLine3.jpg	MediumShort_e22_cut1_stereo_44KHz.wav
2	64	1	2	0	C	2	1	866	1	poli_8sides 16_whiteLine3.jpg	MediumShort_b16_cut3_MS_stereo_44KHz.wav
2	65	4	4	2	I	2	0	891	0	poli_8sides 18_whiteLine3.jpg	MediumShort_e16_cut1_stereo_44KHz.wav
2	66	1	2	0	C	2	1	778	1	poli_8sides 16_whiteLine3.jpg	MediumShort_b16_cut3_MS_stereo_44KHz.wav
2	67	2	2	1	C	1	1	738	1	poli_8sides 5_whiteLine3.jpg	MediumShort_b16_cut3_MS_stereo_44KHz.wav
2	68	3	3	2	I	1	0	805	0	poli_8sides 1_whiteLine3.jpg	MediumShort_e22_cut1_stereo_44KHz.wav
2	69	1	1	1	C	1	1	1430	1	poli_8sides 16_whiteLine3.jpg	MediumShort_b10_cut1_MS_stereo_44KHz.wav
2	70	3	4	2	I	1	0	885	0	poli_8sides 1_whiteLine3.jpg	MediumShort_e16_cut1_stereo_44KHz.wav
2	71	4	3	2	I	1	0	1315	1	poli_8sides 18_whiteLine3.jpg	MediumShort_e22_cut1_stereo_44KHz.wav
2	72	2	1	0	C	2	1	876	1	poli_8sides 5_whiteLine3.jpg	MediumShort_b10_cut1_MS_stereo_44KHz.wav
2	73	1	2	0	C	2	1	964	1	poli_8sides 16_whiteLine3.jpg	MediumShort_b16_cut3_MS_stereo_44KHz.wav
2	74	4	3	2	I	2	0	1244	0	poli_8sides 18_whiteLine3.jpg	MediumShort_e22_cut1_stereo_44KHz.wav
2	75	2	2	1	C	1	1	837	1	poli_8sides 5_whiteLine3.jpg	MediumShort_b16_cut3_MS_stereo_44KHz.wav
2	76	3	4	2	I	2	0	1276	0	poli_8sides 1_whiteLine3.jpg	MediumShort_e16_cut1_stereo_44KHz.wav
2	77	4	4	2	I	2	0	1317	1	poli_8sides 18_whiteLine3.jpg	MediumShort_e16_cut1_stereo_44KHz.wav
2	78	1	1	1	C	1	1	1074	1	poli_8sides 16_whiteLine3.jpg	MediumShort_b10_cut1_MS_stereo_44KHz.wav
2	79	3	3	2	I	1	0	1471	0	poli_8sides 1_whiteLine3.jpg	MediumShort_e22_cut1_stereo_44KHz.wav
2	80	2	1	0	C	2	1	1177	1	poli_8sides 5_whiteLine3.jpg	MediumShort_b10_cut1_MS_stereo_44KHz.wav
2	81	4	3	2	I	2	0	1212	0	poli_8sides 18_whiteLine3.jpg	MediumShort_e22_cut1_stereo_44KHz.wav
2	82	1	1	1	C	1	1	1052	1	poli_8sides 16_whiteLine3.jpg	MediumShort_b10_cut1_MS_stereo_44KHz.wav
2	83	3	3	2	I	1	0	1259	0	poli_8sides 1_whiteLine3.jpg	MediumShort_e22_cut1_stereo_44KHz.wav
2	84	2	1	0	C	2	1	1072	1	poli_8sides 5_whiteLine3.jpg	MediumShort_b10_cut1_MS_stereo_44KHz.wav
2	85	4	4	2	I	2	0	1381	1	poli_8sides 18_whiteLine3.jpg	MediumShort_e16_cut1_stereo_44KHz.wav
2	86	1	2	0	C	2	1	1029	1	poli_8sides 16_whiteLine3.jpg	MediumShort_b16_cut3_MS_stereo_44KHz.wav
2	87	2	2	1	C	1	1	658	1	poli_8sides 5_whiteLine3.jpg	MediumShort_b16_cut3_MS_stereo_44KHz.wav
2	88	3	4	2	I	2	0	1172	0	poli_8sides 1_whiteLine3.jpg	MediumShort_e16_cut1_stereo_44KHz.wav
2	89	1	2	0	C	2	1	860	1	poli_8sides 16_whiteLine3.jpg	MediumShort_b16_cut3_MS_stereo_44KHz.wav
2	90	3	3	2	I	2	0	1083	1	poli_8sides 1_whiteLine3.jpg	MediumShort_e22_cut1_stereo_44KHz.wav
2	91	4	4	2	I	2	0	1056	1	poli_8sides 18_whiteLine3.jpg	MediumShort_e16_cut1_stereo_44KHz.wav
2	92	2	1	0	C	2	1	1119	1	poli_8sides 5_whiteLine3.jpg	MediumShort_b10_cut1_MS_stereo_44KHz.wav
2	93	3	4	2	I	2	0	1324	1	poli_8sides 1_whiteLine3.jpg	MediumShort_e16_cut1_stereo_44KHz.wav
2	94	1	1	1	C	1	1	1217	1	poli_8sides 16_whiteLine3.jpg	MediumShort_b10_cut1_MS_stereo_44KHz.wav
2	95	4	3	2	I	1	0	1196	1	poli_8sides 18_whiteLine3.jpg	MediumShort_e22_cut1_stereo_44KHz.wav
2	96	2	2	1	C	1	1	826	1	poli_8sides 5_whiteLine3.jpg	MediumShort_b16_cut3_MS_stereo_44KHz.wav
2	97	4	3	2	I	2	0	1020	0	poli_8sides 18_whiteLine3.jpg	MediumShort_e22_cut1_stereo_44KHz.wav
2	98	1	1	1	C	1	1	1342	1	poli_8sides 16_whiteLine3.jpg	MediumShort_b10_cut1_MS_stereo_44KHz.wav
2	99	2	2	1	C	1	1	879	1	poli_8sides 5_whiteLine3.jpg	MediumShort_b16_cut3_MS_stereo_44KHz.wav
2	100	3	4	2	I	2	0	917	0	poli_8sides 1_whiteLine3.jpg	MediumShort_e16_cut1_stereo_44KHz.wav
2	101	1	2	0	C	2	1	985	1	poli_8sides 16_whiteLine3.jpg	MediumShort_b16_cut3_MS_stereo_44KHz.wav
2	102	2	1	0	C	2	1	867	1	poli_8sides 5_whiteLine3.jpg	MediumShort_b10_cut1_MS_stereo_44KHz.wav
2	103	4	4	2	I	2	0	1277	0	poli_8sides 18_whiteLine3.jpg	MediumShort_e16_cut1_stereo_44KHz.wav
2	104	3	3	2	I	2	0	864	0	poli_8sides 1_whiteLine3.jpg	MediumShort_e22_cut1_stereo_44KHz.wav
2	105	2	2	1	C	1	1	727	1	poli_8sides 5_whiteLine3.jpg	MediumShort_b16_cut3_MS_stereo_44KHz.wav
2	106	1	1	1	C	1	1	1393	1	poli_8sides 16_whiteLine3.jpg	MediumShort_b10_cut1_MS_stereo_44KHz.wav
2	107	3	4	2	I	1	0	1321	0	poli_8sides 1_whiteLine3.jpg	MediumShort_e16_cut1_stereo_44KHz.wav
2	108	4	4	2	I	2	0	964	1	poli_8sides 18_whiteLine3.jpg	MediumShort_e16_cut1_stereo_44KHz.wav
2	109	1	2	0	C	2	1	1232	1	poli_8sides 16_whiteLine3.jpg	MediumShort_b16_cut3_MS_stereo_44KHz.wav
2	110	4	3	2	I	2	0	1462	0	poli_8sides 18_whiteLine3.jpg	MediumShort_e22_cut1_stereo_44KHz.wav
2	111	2	1	0	C	2	1	1064	1	poli_8sides 5_whiteLine3.jpg	MediumShort_b10_cut1_MS_stereo_44KHz.wav
2	112	3	3	2	I	2	0	771	0	poli_8sides 1_whiteLine3.jpg	MediumShort_e22_cut1_stereo_44KHz.wav
2	113	1	1	1	C	2	0	980	0	poli_8sides 16_whiteLine3.jpg	MediumShort_b10_cut1_MS_stereo_44KHz.wav
2	114	3	3	2	I	1	0	1008	1	poli_8sides 1_whiteLine3.jpg	MediumShort_e22_cut1_stereo_44KHz.wav
2	115	2	1	0	C	2	1	860	1	poli_8sides 5_whiteLine3.jpg	MediumShort_b10_cut1_MS_stereo_44KHz.wav
2	116	4	4	2	I	2	0	944	1	poli_8sides 18_whiteLine3.jpg	MediumShort_e16_cut1_stereo_44KHz.wav
2	117	3	4	2	I	1	0	858	0	poli_8sides 1_whiteLine3.jpg	MediumShort_e16_cut1_stereo_44KHz.wav
2	118	2	2	1	C	1	1	863	1	poli_8sides 5_whiteLine3.jpg	MediumShort_b16_cut3_MS_stereo_44KHz.wav
2	119	1	2	0	C	2	1	900	1	poli_8sides 16_whiteLine3.jpg	MediumShort_b16_cut3_MS_stereo_44KHz.wav
2	120	4	3	2	I	2	0	1309	1	poli_8sides 18_whiteLine3.jpg	MediumShort_e22_cut1_stereo_44KHz.wav
2	121	3	4	2	I	1	0	1366	1	poli_8sides 1_whiteLine3.jpg	MediumShort_e16_cut1_stereo_44KHz.wav
2	122	2	1	0	C	2	1	675	1	poli_8sides 5_whiteLine3.jpg	MediumShort_b10_cut1_MS_stereo_44KHz.wav
2	123	1	2	0	C	2	1	798	1	poli_8sides 16_whiteLine3.jpg	MediumShort_b16_cut3_MS_stereo_44KHz.wav
2	124	4	4	2	I	2	0	1159	1	poli_8sides 18_whiteLine3.jpg	MediumShort_e16_cut1_stereo_44KHz.wav
2	125	3	3	2	I	1	0	1079	0	poli_8sides 1_whiteLine3.jpg	MediumShort_e22_cut1_stereo_44KHz.wav
2	126	1	1	1	C	1	1	1304	1	poli_8sides 16_whiteLine3.jpg	MediumShort_b10_cut1_MS_stereo_44KHz.wav
2	127	2	2	1	C	1	1	835	1	poli_8sides 5_whiteLine3.jpg	MediumShort_b16_cut3_MS_stereo_44KHz.wav
2	128	4	3	2	I	2	0	1304	1	poli_8sides 18_whiteLine3.jpg	MediumShort_e22_cut1_stereo_44KHz.wav
2	129	2	1	0	C	2	1	1126	1	poli_8sides 5_whiteLine3.jpg	MediumShort_b10_cut1_MS_stereo_44KHz.wav
2	130	4	3	2	I	1	0	1188	0	poli_8sides 18_whiteLine3.jpg	MediumShort_e22_cut1_stereo_44KHz.wav
2	131	3	4	2	I	2	0	1017	0	poli_8sides 1_whiteLine3.jpg	MediumShort_e16_cut1_stereo_44KHz.wav
2	132	1	1	1	C	1	1	1359	1	poli_8sides 16_whiteLine3.jpg	MediumShort_b10_cut1_MS_stereo_44KHz.wav
2	133	4	4	2	I	1	0	1391	1	poli_8sides 18_whiteLine3.jpg	MediumShort_e16_cut1_stereo_44KHz.wav
2	134	1	2	0	C	2	1	967	1	poli_8sides 16_whiteLine3.jpg	MediumShort_b16_cut3_MS_stereo_44KHz.wav
2	135	3	3	2	I	2	0	1109	1	poli_8sides 1_whiteLine3.jpg	MediumShort_e22_cut1_stereo_44KHz.wav
2	136	2	2	1	C	1	1	974	1	poli_8sides 5_whiteLine3.jpg	MediumShort_b16_cut3_MS_stereo_44KHz.wav
2	137	4	4	2	I	2	0	1154	0	poli_8sides 18_whiteLine3.jpg	MediumShort_e16_cut1_stereo_44KHz.wav
2	138	3	3	2	I	2	0	885	1	poli_8sides 1_whiteLine3.jpg	MediumShort_e22_cut1_stereo_44KHz.wav
2	139	2	1	0	C	2	1	943	1	poli_8sides 5_whiteLine3.jpg	MediumShort_b10_cut1_MS_stereo_44KHz.wav
2	140	1	2	0	C	1	0	756	0	poli_8sides 16_whiteLine3.jpg	MediumShort_b16_cut3_MS_stereo_44KHz.wav
2	141	4	3	2	I	2	0	808	1	poli_8sides 18_whiteLine3.jpg	MediumShort_e22_cut1_stereo_44KHz.wav
2	142	3	4	2	I	1	0	1121	1	poli_8sides 1_whiteLine3.jpg	MediumShort_e16_cut1_stereo_44KHz.wav
2	143	2	2	1	C	1	1	779	1	poli_8sides 5_whiteLine3.jpg	MediumShort_b16_cut3_MS_stereo_44KHz.wav
2	144	1	1	1	C	1	1	841	1	poli_8sides 16_whiteLine3.jpg	MediumShort_b10_cut1_MS_stereo_44KHz.wav
2	145	2	2	1	C	1	1	790	1	poli_8sides 5_whiteLine3.jpg	MediumShort_b16_cut3_MS_stereo_44KHz.wav
2	146	4	4	2	I	2	0	822	1	poli_8sides 18_whiteLine3.jpg	MediumShort_e16_cut1_stereo_44KHz.wav
2	147	1	1	1	C	1	1	1111	1	poli_8sides 16_whiteLine3.jpg	MediumShort_b10_cut1_MS_stereo_44KHz.wav
2	148	3	3	2	I	2	0	1001	0	poli_8sides 1_whiteLine3.jpg	MediumShort_e22_cut1_stereo_44KHz.wav
2	149	2	1	0	C	2	1	844	1	poli_8sides 5_whiteLine3.jpg	MediumShort_b10_cut1_MS_stereo_44KHz.wav
2	150	3	4	2	I	2	0	773	0	poli_8sides 1_whiteLine3.jpg	MediumShort_e16_cut1_stereo_44KHz.wav
2	151	1	2	0	C	2	1	839	1	poli_8sides 16_whiteLine3.jpg	MediumShort_b16_cut3_MS_stereo_44KHz.wav
2	152	4	3	2	I	2	0	1030	0	poli_8sides 18_whiteLine3.jpg	MediumShort_e22_cut1_stereo_44KHz.wav
2	153	3	3	2	I	2	0	708	0	poli_8sides 1_whiteLine3.jpg	MediumShort_e22_cut1_stereo_44KHz.wav
2	154	4	3	2	I	2	0	708	0	poli_8sides 18_whiteLine3.jpg	MediumShort_e22_cut1_stereo_44KHz.wav
2	155	1	1	1	C	1	1	1036	1	poli_8sides 16_whiteLine3.jpg	MediumShort_b10_cut1_MS_stereo_44KHz.wav
2	156	2	1	0	C	2	1	1305	1	poli_8sides 5_whiteLine3.jpg	MediumShort_b10_cut1_MS_stereo_44KHz.wav
2	157	4	4	2	I	2	0	1129	0	poli_8sides 18_whiteLine3.jpg	MediumShort_e16_cut1_stereo_44KHz.wav
2	158	1	2	0	C	2	1	870	1	poli_8sides 16_whiteLine3.jpg	MediumShort_b16_cut3_MS_stereo_44KHz.wav
2	159	3	4	2	I	2	0	1280	1	poli_8sides 1_whiteLine3.jpg	MediumShort_e16_cut1_stereo_44KHz.wav
2	160	2	2	1	C	1	1	747	1	poli_8sides 5_whiteLine3.jpg	MediumShort_b16_cut3_MS_stereo_44KHz.wav
2	161	1	2	0	C	2	1	933	1	poli_8sides 16_whiteLine3.jpg	MediumShort_b16_cut3_MS_stereo_44KHz.wav
2	162	2	1	0	C	2	1	1049	1	poli_8sides 5_whiteLine3.jpg	MediumShort_b10_cut1_MS_stereo_44KHz.wav
2	163	3	3	2	I	2	0	976	0	poli_8sides 1_whiteLine3.jpg	MediumShort_e22_cut1_stereo_44KHz.wav
2	164	4	3	2	I	2	0	1252	1	poli_8sides 18_whiteLine3.jpg	MediumShort_e22_cut1_stereo_44KHz.wav
2	165	1	1	1	C	1	1	856	1	poli_8sides 16_whiteLine3.jpg	MediumShort_b10_cut1_MS_stereo_44KHz.wav
2	166	4	4	2	I	2	0	1268	0	poli_8sides 18_whiteLine3.jpg	MediumShort_e16_cut1_stereo_44KHz.wav
2	167	3	4	2	I	2	0	1119	0	poli_8sides 1_whiteLine3.jpg	MediumShort_e16_cut1_stereo_44KHz.wav
2	168	2	2	1	C	1	1	890	1	poli_8sides 5_whiteLine3.jpg	MediumShort_b16_cut3_MS_stereo_44KHz.wav
2	169	4	4	2	I	2	0	1011	0	poli_8sides 18_whiteLine3.jpg	MediumShort_e16_cut1_stereo_44KHz.wav
2	170	1	2	0	C	2	1	1145	1	poli_8sides 16_whiteLine3.jpg	MediumShort_b16_cut3_MS_stereo_44KHz.wav
2	171	3	3	2	I	2	0	1392	0	poli_8sides 1_whiteLine3.jpg	MediumShort_e22_cut1_stereo_44KHz.wav
2	172	2	1	0	C	2	1	876	1	poli_8sides 5_whiteLine3.jpg	MediumShort_b10_cut1_MS_stereo_44KHz.wav
2	173	4	3	2	I	2	0	1251	0	poli_8sides 18_whiteLine3.jpg	MediumShort_e22_cut1_stereo_44KHz.wav
2	174	2	2	1	C	1	1	753	1	poli_8sides 5_whiteLine3.jpg	MediumShort_b16_cut3_MS_stereo_44KHz.wav
2	175	1	1	1	C	1	1	996	1	poli_8sides 16_whiteLine3.jpg	MediumShort_b10_cut1_MS_stereo_44KHz.wav
2	176	3	4	2	I	1	0	1073	1	poli_8sides 1_whiteLine3.jpg	MediumShort_e16_cut1_stereo_44KHz.wav
2	177	2	2	1	C	1	1	760	1	poli_8sides 5_whiteLine3.jpg	MediumShort_b16_cut3_MS_stereo_44KHz.wav
2	178	1	1	1	C	1	1	1413	1	poli_8sides 16_whiteLine3.jpg	MediumShort_b10_cut1_MS_stereo_44KHz.wav
2	179	3	3	2	I	2	0	1041	1	poli_8sides 1_whiteLine3.jpg	MediumShort_e22_cut1_stereo_44KHz.wav
2	180	4	4	2	I	2	0	1157	0	poli_8sides 18_whiteLine3.jpg	MediumShort_e16_cut1_stereo_44KHz.wav
2	181	1	2	0	C	2	1	996	1	poli_8sides 16_whiteLine3.jpg	MediumShort_b16_cut3_MS_stereo_44KHz.wav
2	182	2	1	0	C	2	1	767	1	poli_8sides 5_whiteLine3.jpg	MediumShort_b10_cut1_MS_stereo_44KHz.wav
2	183	4	3	2	I	1	0	1609	1	poli_8sides 18_whiteLine3.jpg	MediumShort_e22_cut1_stereo_44KHz.wav
2	184	3	4	2	I	1	0	1409	1	poli_8sides 1_whiteLine3.jpg	MediumShort_e16_cut1_stereo_44KHz.wav
2	185	2	2	1	C	1	1	817	1	poli_8sides 5_whiteLine3.jpg	MediumShort_b16_cut3_MS_stereo_44KHz.wav
2	186	4	3	2	I	2	0	1258	0	poli_8sides 18_whiteLine3.jpg	MediumShort_e22_cut1_stereo_44KHz.wav
2	187	3	3	2	I	2	0	747	1	poli_8sides 1_whiteLine3.jpg	MediumShort_e22_cut1_stereo_44KHz.wav
2	188	1	1	1	C	1	1	1192	1	poli_8sides 16_whiteLine3.jpg	MediumShort_b10_cut1_MS_stereo_44KHz.wav
2	189	3	4	2	I	2	0	1016	1	poli_8sides 1_whiteLine3.jpg	MediumShort_e16_cut1_stereo_44KHz.wav
2	190	4	4	2	I	2	0	1129	0	poli_8sides 18_whiteLine3.jpg	MediumShort_e16_cut1_stereo_44KHz.wav
2	191	2	1	0	C	2	1	828	1	poli_8sides 5_whiteLine3.jpg	MediumShort_b10_cut1_MS_stereo_44KHz.wav
2	192	1	2	0	C	2	1	1110	1	poli_8sides 16_whiteLine3.jpg	MediumShort_b16_cut3_MS_stereo_44KHz.wav
2	193	3	4	2	I	2	0	853	1	poli_8sides 1_whiteLine3.jpg	MediumShort_e16_cut1_stereo_44KHz.wav
2	194	2	1	0	C	2	1	705	1	poli_8sides 5_whiteLine3.jpg	MediumShort_b10_cut1_MS_stereo_44KHz.wav
2	195	1	2	0	C	1	0	803	0	poli_8sides 16_whiteLine3.jpg	MediumShort_b16_cut3_MS_stereo_44KHz.wav
2	196	4	3	2	I	2	0	687	0	poli_8sides 18_whiteLine3.jpg	MediumShort_e22_cut1_stereo_44KHz.wav
2	197	3	3	2	I	2	0	1401	0	poli_8sides 1_whiteLine3.jpg	MediumShort_e22_cut1_stereo_44KHz.wav
2	198	1	1	1	C	1	1	1113	1	poli_8sides 16_whiteLine3.jpg	MediumShort_b10_cut1_MS_stereo_44KHz.wav
2	199	2	2	1	C	1	1	845	1	poli_8sides 5_whiteLine3.jpg	MediumShort_b16_cut3_MS_stereo_44KHz.wav
2	200	4	4	2	I	2	0	1040	0	poli_8sides 18_whiteLine3.jpg	MediumShort_e16_cut1_stereo_44KHz.wav
3	1	2	2	1	C	2	0	1219	0	poli_8sides 12_whiteLine3.jpg	Medium_e26_stereo_44KHz.wav
3	2	1	2	0	C	2	1	772	1	poli_8sides 2_whiteLine3.jpg	Medium_e26_stereo_44KHz.wav
3	3	3	4	2	I	2	0	1276	1	poli_8sides 15_whiteLine3.jpg	Medium_e01_cut1_stereo_44KHz.wav
3	4	4	3	2	I	2	0	1036	0	poli_8sides 8_whiteLine3.jpg	Medium_e13_stereo_44KHz.wav
3	5	3	3	2	I	2	0	824	0	poli_8sides 15_whiteLine3.jpg	Medium_e13_stereo_44KHz.wav
3	6	2	1	0	C	1	0	1179	0	poli_8sides 12_whiteLine3.jpg	MediumLong_e17_cut2_stereo_44KHz.wav
3	7	1	1	1	C	2	0	942	0	poli_8sides 2_whiteLine3.jpg	MediumLong_e17_cut2_stereo_44KHz.wav
3	8	4	4	2	I	2	0	864	1	poli_8sides 8_whiteLine3.jpg	Medium_e01_cut1_stereo_44KHz.wav
3	9	3	4	2	I	1	0	829	1	poli_8sides 15_whiteLine3.jpg	Medium_e01_cut1_stereo_44KHz.wav
3	10	4	3	2	I	2	0	826	0	poli_8sides 8_whiteLine3.jpg	Medium_e13_stereo_44KHz.wav
3	11	2	2	1	C	1	1	1108	1	poli_8sides 12_whiteLine3.jpg	Medium_e26_stereo_44KHz.wav
3	12	1	1	1	C	2	0	1121	0	poli_8sides 2_whiteLine3.jpg	MediumLong_e17_cut2_stereo_44KHz.wav
3	13	4	4	2	I	1	0	1191	0	poli_8sides 8_whiteLine3.jpg	Medium_e01_cut1_stereo_44KHz.wav
3	14	2	1	0	C	2	1	1027	1	poli_8sides 12_whiteLine3.jpg	MediumLong_e17_cut2_stereo_44KHz.wav
3	15	1	2	0	C	2	1	701	1	poli_8sides 2_whiteLine3.jpg	Medium_e26_stereo_44KHz.wav
3	16	3	3	2	I	2	0	1036	1	poli_8sides 15_whiteLine3.jpg	Medium_e13_stereo_44KHz.wav
3	17	4	3	2	I	1	0	1219	1	poli_8sides 8_whiteLine3.jpg	Medium_e13_stereo_44KHz.wav
3	18	2	2	1	C	1	1	1087	1	poli_8sides 12_whiteLine3.jpg	Medium_e26_stereo_44KHz.wav
3	19	1	1	1	C	2	0	993	0	poli_8sides 2_whiteLine3.jpg	MediumLong_e17_cut2_stereo_44KHz.wav
3	20	3	4	2	I	2	0	1295	1	poli_8sides 15_whiteLine3.jpg	Medium_e01_cut1_stereo_44KHz.wav
3	21	1	2	0	C	2	1	685	1	poli_8sides 2_whiteLine3.jpg	Medium_e26_stereo_44KHz.wav
3	22	4	4	2	I	2	0	888	0	poli_8sides 8_whiteLine3.jpg	Medium_e01_cut1_stereo_44KHz.wav
3	23	2	1	0	C	2	1	880	1	poli_8sides 12_whiteLine3.jpg	MediumLong_e17_cut2_stereo_44KHz.wav
3	24	3	3	2	I	1	0	1004	1	poli_8sides 15_whiteLine3.jpg	Medium_e13_stereo_44KHz.wav
3	25	4	3	2	I	2	0	854	1	poli_8sides 8_whiteLine3.jpg	Medium_e13_stereo_44KHz.wav
3	26	1	1	1	C	2	0	787	0	poli_8sides 2_whiteLine3.jpg	MediumLong_e17_cut2_stereo_44KHz.wav
3	27	2	2	1	C	2	0	947	0	poli_8sides 12_whiteLine3.jpg	Medium_e26_stereo_44KHz.wav
3	28	3	3	2	I	2	0	789	0	poli_8sides 15_whiteLine3.jpg	Medium_e13_stereo_44KHz.wav
3	29	4	4	2	I	2	0	863	1	poli_8sides 8_whiteLine3.jpg	Medium_e01_cut1_stereo_44KHz.wav
3	30	1	2	0	C	2	1	679	1	poli_8sides 2_whiteLine3.jpg	Medium_e26_stereo_44KHz.wav
3	31	2	1	0	C	1	0	916	0	poli_8sides 12_whiteLine3.jpg	MediumLong_e17_cut2_stereo_44KHz.wav
3	32	3	4	2	I	2	0	962	0	poli_8sides 15_whiteLine3.jpg	Medium_e01_cut1_stereo_44KHz.wav
3	33	1	1	1	C	2	0	670	0	poli_8sides 2_whiteLine3.jpg	MediumLong_e17_cut2_stereo_44KHz.wav
3	34	4	4	2	I	2	0	739	1	poli_8sides 8_whiteLine3.jpg	Medium_e01_cut1_stereo_44KHz.wav
3	35	3	3	2	I	2	0	1209	1	poli_8sides 15_whiteLine3.jpg	Medium_e13_stereo_44KHz.wav
3	36	2	2	1	C	1	1	1006	1	poli_8sides 12_whiteLine3.jpg	Medium_e26_stereo_44KHz.wav
3	37	1	2	0	C	2	1	878	1	poli_8sides 2_whiteLine3.jpg	Medium_e26_stereo_44KHz.wav
3	38	4	3	2	I	2	0	929	1	poli_8sides 8_whiteLine3.jpg	Medium_e13_stereo_44KHz.wav
3	39	2	1	0	C	2	1	948	1	poli_8sides 12_whiteLine3.jpg	MediumLong_e17_cut2_stereo_44KHz.wav
3	40	3	4	2	I	1	0	1092	1	poli_8sides 15_whiteLine3.jpg	Medium_e01_cut1_stereo_44KHz.wav
3	41	2	2	1	C	1	1	1029	1	poli_8sides 12_whiteLine3.jpg	Medium_e26_stereo_44KHz.wav
3	42	3	4	2	I	2	0	1221	1	poli_8sides 15_whiteLine3.jpg	Medium_e01_cut1_stereo_44KHz.wav
3	43	1	2	0	C	2	1	787	1	poli_8sides 2_whiteLine3.jpg	Medium_e26_stereo_44KHz.wav
3	44	4	4	2	I	2	0	1237	0	poli_8sides 8_whiteLine3.jpg	Medium_e01_cut1_stereo_44KHz.wav
3	45	2	1	0	C	2	1	1693	1	poli_8sides 12_whiteLine3.jpg	MediumLong_e17_cut2_stereo_44KHz.wav
3	46	3	3	2	I	1	0	1517	0	poli_8sides 15_whiteLine3.jpg	Medium_e13_stereo_44KHz.wav
3	47	1	1	1	C	1	1	1161	1	poli_8sides 2_whiteLine3.jpg	MediumLong_e17_cut2_stereo_44KHz.wav
3	48	4	3	2	I	2	0	1023	0	poli_8sides 8_whiteLine3.jpg	Medium_e13_stereo_44KHz.wav
3	49	1	2	0	C	2	1	813	1	poli_8sides 2_whiteLine3.jpg	Medium_e26_stereo_44KHz.wav
3	50	3	4	2	I	2	0	821	0	poli_8sides 15_whiteLine3.jpg	Medium_e01_cut1_stereo_44KHz.wav
3	51	4	3	2	I	2	0	941	0	poli_8sides 8_whiteLine3.jpg	Medium_e13_stereo_44KHz.wav
3	52	2	2	1	C	1	1	1105	1	poli_8sides 12_whiteLine3.jpg	Medium_e26_stereo_44KHz.wav
3	53	3	3	2	I	1	0	1085	1	poli_8sides 15_whiteLine3.jpg	Medium_e13_stereo_44KHz.wav
3	54	1	1	1	C	1	1	1400	1	poli_8sides 2_whiteLine3.jpg	MediumLong_e17_cut2_stereo_44KHz.wav
3	55	4	4	2	I	2	0	1013	1	poli_8sides 8_whiteLine3.jpg	Medium_e01_cut1_stereo_44KHz.wav
3	56	2	1	0	C	1	0	1329	0	poli_8sides 12_whiteLine3.jpg	MediumLong_e17_cut2_stereo_44KHz.wav
3	57	3	4	2	I	1	0	1124	0	poli_8sides 15_whiteLine3.jpg	Medium_e01_cut1_stereo_44KHz.wav
3	58	4	4	2	I	1	0	1023	0	poli_8sides 8_whiteLine3.jpg	Medium_e01_cut1_stereo_44KHz.wav
3	59	2	1	0	C	2	1	804	1	poli_8sides 12_whiteLine3.jpg	MediumLong_e17_cut2_stereo_44KHz.wav
3	60	1	1	1	C	1	1	958	1	poli_8sides 2_whiteLine3.jpg	MediumLong_e17_cut2_stereo_44KHz.wav
3	61	2	2	1	C	1	1	972	1	poli_8sides 12_whiteLine3.jpg	Medium_e26_stereo_44KHz.wav
3	62	1	2	0	C	2	1	935	1	poli_8sides 2_whiteLine3.jpg	Medium_e26_stereo_44KHz.wav
3	63	3	3	2	I	1	0	1106	0	poli_8sides 15_whiteLine3.jpg	Medium_e13_stereo_44KHz.wav
3	64	4	3	2	I	2	0	1303	0	poli_8sides 8_whiteLine3.jpg	Medium_e13_stereo_44KHz.wav
3	65	3	4	2	I	2	0	1069	1	poli_8sides 15_whiteLine3.jpg	Medium_e01_cut1_stereo_44KHz.wav
3	66	4	3	2	I	2	0	1156	0	poli_8sides 8_whiteLine3.jpg	Medium_e13_stereo_44KHz.wav
3	67	1	1	1	C	1	1	859	1	poli_8sides 2_whiteLine3.jpg	MediumLong_e17_cut2_stereo_44KHz.wav
3	68	2	2	1	C	2	0	960	0	poli_8sides 12_whiteLine3.jpg	Medium_e26_stereo_44KHz.wav
3	69	3	3	2	I	2	0	1060	1	poli_8sides 15_whiteLine3.jpg	Medium_e13_stereo_44KHz.wav
3	70	2	1	0	C	2	1	1026	1	poli_8sides 12_whiteLine3.jpg	MediumLong_e17_cut2_stereo_44KHz.wav
3	71	4	4	2	I	1	0	1323	1	poli_8sides 8_whiteLine3.jpg	Medium_e01_cut1_stereo_44KHz.wav
3	72	1	2	0	C	2	1	859	1	poli_8sides 2_whiteLine3.jpg	Medium_e26_stereo_44KHz.wav
3	73	3	3	2	I	1	0	1123	0	poli_8sides 15_whiteLine3.jpg	Medium_e13_stereo_44KHz.wav
3	74	1	2	0	C	2	1	963	1	poli_8sides 2_whiteLine3.jpg	Medium_e26_stereo_44KHz.wav
3	75	2	1	0	C	2	1	1477	1	poli_8sides 12_whiteLine3.jpg	MediumLong_e17_cut2_stereo_44KHz.wav
3	76	4	4	2	I	2	0	1001	1	poli_8sides 8_whiteLine3.jpg	Medium_e01_cut1_stereo_44KHz.wav
3	77	2	2	1	C	1	1	1043	1	poli_8sides 12_whiteLine3.jpg	Medium_e26_stereo_44KHz.wav
3	78	3	4	2	I	2	0	1085	1	poli_8sides 15_whiteLine3.jpg	Medium_e01_cut1_stereo_44KHz.wav
3	79	4	3	2	I	2	0	899	1	poli_8sides 8_whiteLine3.jpg	Medium_e13_stereo_44KHz.wav
3	80	1	1	1	C	1	1	909	1	poli_8sides 2_whiteLine3.jpg	MediumLong_e17_cut2_stereo_44KHz.wav
3	81	4	4	2	I	2	0	927	0	poli_8sides 8_whiteLine3.jpg	Medium_e01_cut1_stereo_44KHz.wav
3	82	2	2	1	C	1	1	1097	1	poli_8sides 12_whiteLine3.jpg	Medium_e26_stereo_44KHz.wav
3	83	3	4	2	I	2	0	986	0	poli_8sides 15_whiteLine3.jpg	Medium_e01_cut1_stereo_44KHz.wav
3	84	1	1	1	C	1	1	847	1	poli_8sides 2_whiteLine3.jpg	MediumLong_e17_cut2_stereo_44KHz.wav
3	85	2	1	0	C	2	1	830	1	poli_8sides 12_whiteLine3.jpg	MediumLong_e17_cut2_stereo_44KHz.wav
3	86	4	3	2	I	2	0	895	0	poli_8sides 8_whiteLine3.jpg	Medium_e13_stereo_44KHz.wav
3	87	3	3	2	I	2	0	620	1	poli_8sides 15_whiteLine3.jpg	Medium_e13_stereo_44KHz.wav
3	88	1	2	0	C	2	1	884	1	poli_8sides 2_whiteLine3.jpg	Medium_e26_stereo_44KHz.wav
3	89	2	2	1	C	1	1	972	1	poli_8sides 12_whiteLine3.jpg	Medium_e26_stereo_44KHz.wav
3	90	1	2	0	C	2	1	816	1	poli_8sides 2_whiteLine3.jpg	Medium_e26_stereo_44KHz.wav
3	91	3	4	2	I	2	0	1183	0	poli_8sides 15_whiteLine3.jpg	Medium_e01_cut1_stereo_44KHz.wav
3	92	4	3	2	I	1	0	1091	0	poli_8sides 8_whiteLine3.jpg	Medium_e13_stereo_44KHz.wav
3	93	2	1	0	C	2	1	1035	1	poli_8sides 12_whiteLine3.jpg	MediumLong_e17_cut2_stereo_44KHz.wav
3	94	3	3	2	I	2	0	852	1	poli_8sides 15_whiteLine3.jpg	Medium_e13_stereo_44KHz.wav
3	95	1	1	1	C	1	1	1078	1	poli_8sides 2_whiteLine3.jpg	MediumLong_e17_cut2_stereo_44KHz.wav
3	96	4	4	2	I	2	0	1154	1	poli_8sides 8_whiteLine3.jpg	Medium_e01_cut1_stereo_44KHz.wav
3	97	3	4	2	I	1	0	910	0	poli_8sides 15_whiteLine3.jpg	Medium_e01_cut1_stereo_44KHz.wav
3	98	1	1	1	C	1	1	900	1	poli_8sides 2_whiteLine3.jpg	MediumLong_e17_cut2_stereo_44KHz.wav
3	99	4	3	2	I	2	0	921	0	poli_8sides 8_whiteLine3.jpg	Medium_e13_stereo_44KHz.wav
3	100	2	1	0	C	2	1	924	1	poli_8sides 12_whiteLine3.jpg	MediumLong_e17_cut2_stereo_44KHz.wav
3	101	1	2	0	C	2	1	859	1	poli_8sides 2_whiteLine3.jpg	Medium_e26_stereo_44KHz.wav
3	102	3	3	2	I	2	0	873	0	poli_8sides 15_whiteLine3.jpg	Medium_e13_stereo_44KHz.wav
3	103	4	4	2	I	1	0	858	0	poli_8sides 8_whiteLine3.jpg	Medium_e01_cut1_stereo_44KHz.wav
3	104	2	2	1	C	2	0	1036	0	poli_8sides 12_whiteLine3.jpg	Medium_e26_stereo_44KHz.wav
3	105	4	3	2	I	2	0	934	1	poli_8sides 8_whiteLine3.jpg	Medium_e13_stereo_44KHz.wav
3	106	2	2	1	C	1	1	884	1	poli_8sides 12_whiteLine3.jpg	Medium_e26_stereo_44KHz.wav
3	107	1	1	1	C	1	1	914	1	poli_8sides 2_whiteLine3.jpg	MediumLong_e17_cut2_stereo_44KHz.wav
3	108	3	4	2	I	1	0	1100	1	poli_8sides 15_whiteLine3.jpg	Medium_e01_cut1_stereo_44KHz.wav
3	109	4	4	2	I	1	0	1154	1	poli_8sides 8_whiteLine3.jpg	Medium_e01_cut1_stereo_44KHz.wav
3	110	1	2	0	C	2	1	1084	1	poli_8sides 2_whiteLine3.jpg	Medium_e26_stereo_44KHz.wav
3	111	2	1	0	C	2	1	1092	1	poli_8sides 12_whiteLine3.jpg	MediumLong_e17_cut2_stereo_44KHz.wav
3	112	3	3	2	I	2	0	1137	1	poli_8sides 15_whiteLine3.jpg	Medium_e13_stereo_44KHz.wav
3	113	2	2	1	C	1	1	939	1	poli_8sides 12_whiteLine3.jpg	Medium_e26_stereo_44KHz.wav
3	114	3	3	2	I	2	0	1029	1	poli_8sides 15_whiteLine3.jpg	Medium_e13_stereo_44KHz.wav
3	115	1	1	1	C	1	1	917	1	poli_8sides 2_whiteLine3.jpg	MediumLong_e17_cut2_stereo_44KHz.wav
3	116	4	3	2	I	2	0	1005	1	poli_8sides 8_whiteLine3.jpg	Medium_e13_stereo_44KHz.wav
3	117	1	2	0	C	2	1	966	1	poli_8sides 2_whiteLine3.jpg	Medium_e26_stereo_44KHz.wav
3	118	3	4	2	I	2	0	957	0	poli_8sides 15_whiteLine3.jpg	Medium_e01_cut1_stereo_44KHz.wav
3	119	4	4	2	I	2	0	793	0	poli_8sides 8_whiteLine3.jpg	Medium_e01_cut1_stereo_44KHz.wav
3	120	2	1	0	C	2	1	1138	1	poli_8sides 12_whiteLine3.jpg	MediumLong_e17_cut2_stereo_44KHz.wav
3	121	1	2	0	C	2	1	828	1	poli_8sides 2_whiteLine3.jpg	Medium_e26_stereo_44KHz.wav
3	122	2	1	0	C	2	1	960	1	poli_8sides 12_whiteLine3.jpg	MediumLong_e17_cut2_stereo_44KHz.wav
3	123	3	3	2	I	2	0	1194	0	poli_8sides 15_whiteLine3.jpg	Medium_e13_stereo_44KHz.wav
3	124	4	4	2	I	1	0	1839	1	poli_8sides 8_whiteLine3.jpg	Medium_e01_cut1_stereo_44KHz.wav
3	125	3	4	2	I	1	0	1001	0	poli_8sides 15_whiteLine3.jpg	Medium_e01_cut1_stereo_44KHz.wav
3	126	4	3	2	I	2	0	935	1	poli_8sides 8_whiteLine3.jpg	Medium_e13_stereo_44KHz.wav
3	127	1	1	1	C	1	1	843	1	poli_8sides 2_whiteLine3.jpg	MediumLong_e17_cut2_stereo_44KHz.wav
3	128	2	2	1	C	1	1	996	1	poli_8sides 12_whiteLine3.jpg	Medium_e26_stereo_44KHz.wav
3	129	4	3	2	I	2	0	1120	1	poli_8sides 8_whiteLine3.jpg	Medium_e13_stereo_44KHz.wav
3	130	2	1	0	C	2	1	909	1	poli_8sides 12_whiteLine3.jpg	MediumLong_e17_cut2_stereo_44KHz.wav
3	131	3	4	2	I	1	0	1016	0	poli_8sides 15_whiteLine3.jpg	Medium_e01_cut1_stereo_44KHz.wav
3	132	1	2	0	C	2	1	807	1	poli_8sides 2_whiteLine3.jpg	Medium_e26_stereo_44KHz.wav
3	133	3	3	2	I	1	0	1106	1	poli_8sides 15_whiteLine3.jpg	Medium_e13_stereo_44KHz.wav
3	134	2	2	1	C	1	1	956	1	poli_8sides 12_whiteLine3.jpg	Medium_e26_stereo_44KHz.wav
3	135	4	4	2	I	1	0	1061	1	poli_8sides 8_whiteLine3.jpg	Medium_e01_cut1_stereo_44KHz.wav
3	136	1	1	1	C	1	1	908	1	poli_8sides 2_whiteLine3.jpg	MediumLong_e17_cut2_stereo_44KHz.wav
3	137	4	3	2	I	2	0	1157	1	poli_8sides 8_whiteLine3.jpg	Medium_e13_stereo_44KHz.wav
3	138	3	4	2	I	1	0	745	1	poli_8sides 15_whiteLine3.jpg	Medium_e01_cut1_stereo_44KHz.wav
3	139	1	1	1	C	1	1	875	1	poli_8sides 2_whiteLine3.jpg	MediumLong_e17_cut2_stereo_44KHz.wav
3	140	2	2	1	C	1	1	858	1	poli_8sides 12_whiteLine3.jpg	Medium_e26_stereo_44KHz.wav
3	141	4	4	2	I	2	0	1051	0	poli_8sides 8_whiteLine3.jpg	Medium_e01_cut1_stereo_44KHz.wav
3	142	2	1	0	C	2	1	1352	1	poli_8sides 12_whiteLine3.jpg	MediumLong_e17_cut2_stereo_44KHz.wav
3	143	3	3	2	I	2	0	1309	1	poli_8sides 15_whiteLine3.jpg	Medium_e13_stereo_44KHz.wav
3	144	1	2	0	C	2	1	851	1	poli_8sides 2_whiteLine3.jpg	Medium_e26_stereo_44KHz.wav
3	145	3	4	2	I	2	0	1008	0	poli_8sides 15_whiteLine3.jpg	Medium_e01_cut1_stereo_44KHz.wav
3	146	2	2	1	C	1	1	1169	1	poli_8sides 12_whiteLine3.jpg	Medium_e26_stereo_44KHz.wav
3	147	1	1	1	C	1	1	926	1	poli_8sides 2_whiteLine3.jpg	MediumLong_e17_cut2_stereo_44KHz.wav
3	148	4	3	2	I	2	0	941	1	poli_8sides 8_whiteLine3.jpg	Medium_e13_stereo_44KHz.wav
3	149	2	1	0	C	2	1	984	1	poli_8sides 12_whiteLine3.jpg	MediumLong_e17_cut2_stereo_44KHz.wav
3	150	3	3	2	I	2	0	1113	0	poli_8sides 15_whiteLine3.jpg	Medium_e13_stereo_44KHz.wav
3	151	4	4	2	I	1	0	1011	1	poli_8sides 8_whiteLine3.jpg	Medium_e01_cut1_stereo_44KHz.wav
3	152	1	2	0	C	2	1	804	1	poli_8sides 2_whiteLine3.jpg	Medium_e26_stereo_44KHz.wav
3	153	4	3	2	I	2	0	848	0	poli_8sides 8_whiteLine3.jpg	Medium_e13_stereo_44KHz.wav
3	154	2	1	0	C	2	1	1067	1	poli_8sides 12_whiteLine3.jpg	MediumLong_e17_cut2_stereo_44KHz.wav
3	155	1	1	1	C	1	1	768	1	poli_8sides 2_whiteLine3.jpg	MediumLong_e17_cut2_stereo_44KHz.wav
3	156	3	4	2	I	1	0	1234	1	poli_8sides 15_whiteLine3.jpg	Medium_e01_cut1_stereo_44KHz.wav
3	157	4	4	2	I	2	0	955	1	poli_8sides 8_whiteLine3.jpg	Medium_e01_cut1_stereo_44KHz.wav
3	158	2	2	1	C	1	1	1098	1	poli_8sides 12_whiteLine3.jpg	Medium_e26_stereo_44KHz.wav
3	159	1	2	0	C	2	1	733	1	poli_8sides 2_whiteLine3.jpg	Medium_e26_stereo_44KHz.wav
3	160	3	3	2	I	1	0	1248	1	poli_8sides 15_whiteLine3.jpg	Medium_e13_stereo_44KHz.wav
3	161	4	4	2	I	1	0	830	0	poli_8sides 8_whiteLine3.jpg	Medium_e01_cut1_stereo_44KHz.wav
3	162	1	1	1	C	1	1	970	1	poli_8sides 2_whiteLine3.jpg	MediumLong_e17_cut2_stereo_44KHz.wav
3	163	2	2	1	C	1	1	1046	1	poli_8sides 12_whiteLine3.jpg	Medium_e26_stereo_44KHz.wav
3	164	3	4	2	I	2	0	1356	0	poli_8sides 15_whiteLine3.jpg	Medium_e01_cut1_stereo_44KHz.wav
3	165	1	2	0	C	2	1	730	1	poli_8sides 2_whiteLine3.jpg	Medium_e26_stereo_44KHz.wav
3	166	2	1	0	C	2	1	1150	1	poli_8sides 12_whiteLine3.jpg	MediumLong_e17_cut2_stereo_44KHz.wav
3	167	4	3	2	I	2	0	924	0	poli_8sides 8_whiteLine3.jpg	Medium_e13_stereo_44KHz.wav
3	168	3	3	2	I	2	0	929	0	poli_8sides 15_whiteLine3.jpg	Medium_e13_stereo_44KHz.wav
3	169	1	1	1	C	1	1	860	1	poli_8sides 2_whiteLine3.jpg	MediumLong_e17_cut2_stereo_44KHz.wav
3	170	2	1	0	C	1	0	803	0	poli_8sides 12_whiteLine3.jpg	MediumLong_e17_cut2_stereo_44KHz.wav
3	171	4	3	2	I	2	0	1396	0	poli_8sides 8_whiteLine3.jpg	Medium_e13_stereo_44KHz.wav
3	172	3	3	2	I	2	0	736	1	poli_8sides 15_whiteLine3.jpg	Medium_e13_stereo_44KHz.wav
3	173	4	4	2	I	2	0	1185	0	poli_8sides 8_whiteLine3.jpg	Medium_e01_cut1_stereo_44KHz.wav
3	174	1	2	0	C	2	1	725	1	poli_8sides 2_whiteLine3.jpg	Medium_e26_stereo_44KHz.wav
3	175	3	4	2	I	2	0	1284	0	poli_8sides 15_whiteLine3.jpg	Medium_e01_cut1_stereo_44KHz.wav
3	176	2	2	1	C	1	1	922	1	poli_8sides 12_whiteLine3.jpg	Medium_e26_stereo_44KHz.wav
3	177	3	3	2	I	2	0	1011	0	poli_8sides 15_whiteLine3.jpg	Medium_e13_stereo_44KHz.wav
3	178	1	2	0	C	2	1	863	1	poli_8sides 2_whiteLine3.jpg	Medium_e26_stereo_44KHz.wav
3	179	2	2	1	C	1	1	806	1	poli_8sides 12_whiteLine3.jpg	Medium_e26_stereo_44KHz.wav
3	180	4	3	2	I	2	0	1041	1	poli_8sides 8_whiteLine3.jpg	Medium_e13_stereo_44KHz.wav
3	181	1	1	1	C	1	1	951	1	poli_8sides 2_whiteLine3.jpg	MediumLong_e17_cut2_stereo_44KHz.wav
3	182	3	4	2	I	1	0	1130	0	poli_8sides 15_whiteLine3.jpg	Medium_e01_cut1_stereo_44KHz.wav
3	183	2	1	0	C	2	1	917	1	poli_8sides 12_whiteLine3.jpg	MediumLong_e17_cut2_stereo_44KHz.wav
3	184	4	4	2	I	1	0	1049	1	poli_8sides 8_whiteLine3.jpg	Medium_e01_cut1_stereo_44KHz.wav
3	185	3	3	2	I	2	0	787	0	poli_8sides 15_whiteLine3.jpg	Medium_e13_stereo_44KHz.wav
3	186	4	4	2	I	2	0	982	0	poli_8sides 8_whiteLine3.jpg	Medium_e01_cut1_stereo_44KHz.wav
3	187	2	1	0	C	2	1	1032	1	poli_8sides 12_whiteLine3.jpg	MediumLong_e17_cut2_stereo_44KHz.wav
3	188	1	2	0	C	2	1	721	1	poli_8sides 2_whiteLine3.jpg	Medium_e26_stereo_44KHz.wav
3	189	4	3	2	I	2	0	694	0	poli_8sides 8_whiteLine3.jpg	Medium_e13_stereo_44KHz.wav
3	190	2	2	1	C	1	1	905	1	poli_8sides 12_whiteLine3.jpg	Medium_e26_stereo_44KHz.wav
3	191	1	1	1	C	1	1	794	1	poli_8sides 2_whiteLine3.jpg	MediumLong_e17_cut2_stereo_44KHz.wav
3	192	3	4	2	I	1	0	1186	0	poli_8sides 15_whiteLine3.jpg	Medium_e01_cut1_stereo_44KHz.wav
3	193	1	2	0	C	2	1	821	1	poli_8sides 2_whiteLine3.jpg	Medium_e26_stereo_44KHz.wav
3	194	2	2	1	C	1	1	971	1	poli_8sides 12_whiteLine3.jpg	Medium_e26_stereo_44KHz.wav
3	195	3	3	2	I	2	0	922	1	poli_8sides 15_whiteLine3.jpg	Medium_e13_stereo_44KHz.wav
3	196	4	3	2	I	2	0	1094	1	poli_8sides 8_whiteLine3.jpg	Medium_e13_stereo_44KHz.wav
3	197	2	1	0	C	2	1	1280	1	poli_8sides 12_whiteLine3.jpg	MediumLong_e17_cut2_stereo_44KHz.wav
3	198	4	4	2	I	1	0	1056	0	poli_8sides 8_whiteLine3.jpg	Medium_e01_cut1_stereo_44KHz.wav
3	199	1	1	1	C	1	1	1218	1	poli_8sides 2_whiteLine3.jpg	MediumLong_e17_cut2_stereo_44KHz.wav
3	200	3	4	2	I	2	0	974	1	poli_8sides 15_whiteLine3.jpg	Medium_e01_cut1_stereo_44KHz.wav
4	1	1	2	0	C	2	1	1229	1	poli_8sides 4_whiteLine3.jpg	MediumLong_e04_stereo_44KHz.wav
4	2	3	4	2	I	1	0	1043	0	poli_8sides 13_whiteLine3.jpg	MediumLong_e19_stereo_44KHz.wav
4	3	2	1	0	C	2	1	924	1	poli_8sides 7_whiteLine3.jpg	MediumLong_b10_cut2_L_stereo_44KHz.wav
4	4	4	3	2	I	2	0	1078	1	poli_8sides 3_whiteLine3.jpg	Medium_e21_stereo_44KHz.wav
4	5	2	2	1	C	2	0	1107	0	poli_8sides 7_whiteLine3.jpg	MediumLong_e04_stereo_44KHz.wav
4	6	4	4	2	I	2	0	1029	1	poli_8sides 3_whiteLine3.jpg	MediumLong_e19_stereo_44KHz.wav
4	7	3	3	2	I	2	0	997	0	poli_8sides 13_whiteLine3.jpg	Medium_e21_stereo_44KHz.wav
4	8	1	1	1	C	1	1	1220	1	poli_8sides 4_whiteLine3.jpg	MediumLong_b10_cut2_L_stereo_44KHz.wav
4	9	2	1	0	C	2	1	1032	1	poli_8sides 7_whiteLine3.jpg	MediumLong_b10_cut2_L_stereo_44KHz.wav
4	10	1	2	0	C	1	0	1229	0	poli_8sides 4_whiteLine3.jpg	MediumLong_e04_stereo_44KHz.wav
4	11	3	4	2	I	2	0	863	1	poli_8sides 13_whiteLine3.jpg	MediumLong_e19_stereo_44KHz.wav
4	12	4	3	2	I	2	0	1028	0	poli_8sides 3_whiteLine3.jpg	Medium_e21_stereo_44KHz.wav
4	13	2	2	1	C	2	0	874	0	poli_8sides 7_whiteLine3.jpg	MediumLong_e04_stereo_44KHz.wav
4	14	1	1	1	C	2	0	1268	0	poli_8sides 4_whiteLine3.jpg	MediumLong_b10_cut2_L_stereo_44KHz.wav
4	15	3	3	2	I	2	0	758	1	poli_8sides 13_whiteLine3.jpg	Medium_e21_stereo_44KHz.wav
4	16	4	4	2	I	2	0	978	1	poli_8sides 3_whiteLine3.jpg	MediumLong_e19_stereo_44KHz.wav
4	17	3	4	2	I	2	0	808	0	poli_8sides 13_whiteLine3.jpg	MediumLong_e19_stereo_44KHz.wav
4	18	4	3	2	I	1	0	903	1	poli_8sides 3_whiteLine3.jpg	Medium_e21_stereo_44KHz.wav
4	19	1	2	0	C	2	1	995	1	poli_8sides 4_whiteLine3.jpg	MediumLong_e04_stereo_44KHz.wav
4	20	2	2	1	C	1	1	924	1	poli_8sides 7_whiteLine3.jpg	MediumLong_e04_stereo_44KHz.wav
4	21	1	1	1	C	2	0	973	0	poli_8sides 4_whiteLine3.jpg	MediumLong_b10_cut2_L_stereo_44KHz.wav
4	22	4	4	2	I	2	0	1169	0	poli_8sides 3_whiteLine3.jpg	MediumLong_e19_stereo_44KHz.wav
4	23	3	3	2	I	2	0	926	1	poli_8sides 13_whiteLine3.jpg	Medium_e21_stereo_44KHz.wav
4	24	2	1	0	C	2	1	975	1	poli_8sides 7_whiteLine3.jpg	MediumLong_b10_cut2_L_stereo_44KHz.wav
4	25	3	3	2	I	2	0	965	0	poli_8sides 13_whiteLine3.jpg	Medium_e21_stereo_44KHz.wav
4	26	1	1	1	C	1	1	1182	1	poli_8sides 4_whiteLine3.jpg	MediumLong_b10_cut2_L_stereo_44KHz.wav
4	27	2	2	1	C	2	0	1130	0	poli_8sides 7_whiteLine3.jpg	MediumLong_e04_stereo_44KHz.wav
4	28	4	4	2	I	2	0	1063	0	poli_8sides 3_whiteLine3.jpg	MediumLong_e19_stereo_44KHz.wav
4	29	2	1	0	C	2	1	716	1	poli_8sides 7_whiteLine3.jpg	MediumLong_b10_cut2_L_stereo_44KHz.wav
4	30	3	4	2	I	2	0	1071	1	poli_8sides 13_whiteLine3.jpg	MediumLong_e19_stereo_44KHz.wav
4	31	1	2	0	C	1	0	1070	0	poli_8sides 4_whiteLine3.jpg	MediumLong_e04_stereo_44KHz.wav
4	32	4	3	2	I	2	0	868	0	poli_8sides 3_whiteLine3.jpg	Medium_e21_stereo_44KHz.wav
4	33	2	1	0	C	2	1	1076	1	poli_8sides 7_whiteLine3.jpg	MediumLong_b10_cut2_L_stereo_44KHz.wav
4	34	1	2	0	C	1	0	1061	0	poli_8sides 4_whiteLine3.jpg	MediumLong_e04_stereo_44KHz.wav
4	35	3	3	2	I	2	0	875	0	poli_8sides 13_whiteLine3.jpg	Medium_e21_stereo_44KHz.wav
4	36	4	4	2	I	2	0	1107	1	poli_8sides 3_whiteLine3.jpg	MediumLong_e19_stereo_44KHz.wav
4	37	2	2	1	C	1	1	1261	1	poli_8sides 7_whiteLine3.jpg	MediumLong_e04_stereo_44KHz.wav
4	38	4	3	2	I	2	0	1166	1	poli_8sides 3_whiteLine3.jpg	Medium_e21_stereo_44KHz.wav
4	39	1	1	1	C	2	0	1156	0	poli_8sides 4_whiteLine3.jpg	MediumLong_b10_cut2_L_stereo_44KHz.wav
4	40	3	4	2	I	1	0	1098	0	poli_8sides 13_whiteLine3.jpg	MediumLong_e19_stereo_44KHz.wav
4	41	1	2	0	C	2	1	1046	1	poli_8sides 4_whiteLine3.jpg	MediumLong_e04_stereo_44KHz.wav
4	42	4	3	2	I	2	0	925	1	poli_8sides 3_whiteLine3.jpg	Medium_e21_stereo_44KHz.wav
4	43	2	1	0	C	2	1	1284	1	poli_8sides 7_whiteLine3.jpg	MediumLong_b10_cut2_L_stereo_44KHz.wav
4	44	3	4	2	I	2	0	954	0	poli_8sides 13_whiteLine3.jpg	MediumLong_e19_stereo_44KHz.wav
4	45	2	2	1	C	2	0	845	0	poli_8sides 7_whiteLine3.jpg	MediumLong_e04_stereo_44KHz.wav
4	46	4	4	2	I	2	0	781	1	poli_8sides 3_whiteLine3.jpg	MediumLong_e19_stereo_44KHz.wav
4	47	3	3	2	I	2	0	786	0	poli_8sides 13_whiteLine3.jpg	Medium_e21_stereo_44KHz.wav
4	48	1	1	1	C	2	0	649	0	poli_8sides 4_whiteLine3.jpg	MediumLong_b10_cut2_L_stereo_44KHz.wav
4	49	3	4	2	I	2	0	731	1	poli_8sides 13_whiteLine3.jpg	MediumLong_e19_stereo_44KHz.wav
4	50	1	1	1	C	1	1	964	1	poli_8sides 4_whiteLine3.jpg	MediumLong_b10_cut2_L_stereo_44KHz.wav
4	51	4	3	2	I	2	0	814	1	poli_8sides 3_whiteLine3.jpg	Medium_e21_stereo_44KHz.wav
4	52	2	2	1	C	2	0	855	0	poli_8sides 7_whiteLine3.jpg	MediumLong_e04_stereo_44KHz.wav
4	53	4	4	2	I	1	0	995	1	poli_8sides 3_whiteLine3.jpg	MediumLong_e19_stereo_44KHz.wav
4	54	1	2	0	C	1	0	1308	0	poli_8sides 4_whiteLine3.jpg	MediumLong_e04_stereo_44KHz.wav
4	55	2	1	0	C	2	1	836	1	poli_8sides 7_whiteLine3.jpg	MediumLong_b10_cut2_L_stereo_44KHz.wav
4	56	3	3	2	I	2	0	920	1	poli_8sides 13_whiteLine3.jpg	Medium_e21_stereo_44KHz.wav
4	57	1	2	0	C	2	1	1163	1	poli_8sides 4_whiteLine3.jpg	MediumLong_e04_stereo_44KHz.wav
4	58	3	4	2	I	2	0	1033	1	poli_8sides 13_whiteLine3.jpg	MediumLong_e19_stereo_44KHz.wav
4	59	4	3	2	I	2	0	867	0	poli_8sides 3_whiteLine3.jpg	Medium_e21_stereo_44KHz.wav
4	60	2	1	0	C	1	0	1210	0	poli_8sides 7_whiteLine3.jpg	MediumLong_b10_cut2_L_stereo_44KHz.wav
4	61	3	3	2	I	2	0	920	1	poli_8sides 13_whiteLine3.jpg	Medium_e21_stereo_44KHz.wav
4	62	1	1	1	C	2	0	912	0	poli_8sides 4_whiteLine3.jpg	MediumLong_b10_cut2_L_stereo_44KHz.wav
4	63	4	4	2	I	2	0	619	1	poli_8sides 3_whiteLine3.jpg	MediumLong_e19_stereo_44KHz.wav
4	64	2	2	1	C	2	0	809	0	poli_8sides 7_whiteLine3.jpg	MediumLong_e04_stereo_44KHz.wav
4	65	3	3	2	I	2	0	657	1	poli_8sides 13_whiteLine3.jpg	Medium_e21_stereo_44KHz.wav
4	66	2	1	0	C	2	1	1322	1	poli_8sides 7_whiteLine3.jpg	MediumLong_b10_cut2_L_stereo_44KHz.wav
4	67	4	3	2	I	2	0	959	0	poli_8sides 3_whiteLine3.jpg	Medium_e21_stereo_44KHz.wav
4	68	1	1	1	C	2	0	1001	0	poli_8sides 4_whiteLine3.jpg	MediumLong_b10_cut2_L_stereo_44KHz.wav
4	69	4	4	2	I	2	0	831	1	poli_8sides 3_whiteLine3.jpg	MediumLong_e19_stereo_44KHz.wav
4	70	2	2	1	C	2	0	1347	0	poli_8sides 7_whiteLine3.jpg	MediumLong_e04_stereo_44KHz.wav
4	71	3	4	2	I	2	0	796	0	poli_8sides 13_whiteLine3.jpg	MediumLong_e19_stereo_44KHz.wav
4	72	1	2	0	C	2	1	958	1	poli_8sides 4_whiteLine3.jpg	MediumLong_e04_stereo_44KHz.wav
4	73	3	3	2	I	2	0	1066	0	poli_8sides 13_whiteLine3.jpg	Medium_e21_stereo_44KHz.wav
4	74	4	3	2	I	2	0	838	0	poli_8sides 3_whiteLine3.jpg	Medium_e21_stereo_44KHz.wav
4	75	1	1	1	C	2	0	947	0	poli_8sides 4_whiteLine3.jpg	MediumLong_b10_cut2_L_stereo_44KHz.wav
4	76	2	2	1	C	1	1	1002	1	poli_8sides 7_whiteLine3.jpg	MediumLong_e04_stereo_44KHz.wav
4	77	3	4	2	I	2	0	853	1	poli_8sides 13_whiteLine3.jpg	MediumLong_e19_stereo_44KHz.wav
4	78	2	1	0	C	1	0	1158	0	poli_8sides 7_whiteLine3.jpg	MediumLong_b10_cut2_L_stereo_44KHz.wav
4	79	1	2	0	C	2	1	752	1	poli_8sides 4_whiteLine3.jpg	MediumLong_e04_stereo_44KHz.wav
4	80	4	4	2	I	2	0	1076	0	poli_8sides 3_whiteLine3.jpg	MediumLong_e19_stereo_44KHz.wav
4	81	2	1	0	C	2	1	973	1	poli_8sides 7_whiteLine3.jpg	MediumLong_b10_cut2_L_stereo_44KHz.wav
4	82	3	4	2	I	2	0	1114	1	poli_8sides 13_whiteLine3.jpg	MediumLong_e19_stereo_44KHz.wav
4	83	1	1	1	C	2	0	977	0	poli_8sides 4_whiteLine3.jpg	MediumLong_b10_cut2_L_stereo_44KHz.wav
4	84	4	4	2	I	2	0	815	1	poli_8sides 3_whiteLine3.jpg	MediumLong_e19_stereo_44KHz.wav
4	85	3	3	2	I	1	0	920	0	poli_8sides 13_whiteLine3.jpg	Medium_e21_stereo_44KHz.wav
4	86	2	2	1	C	2	0	1720	0	poli_8sides 7_whiteLine3.jpg	MediumLong_e04_stereo_44KHz.wav
4	87	4	3	2	I	2	0	958	0	poli_8sides 3_whiteLine3.jpg	Medium_e21_stereo_44KHz.wav
4	88	1	2	0	C	2	1	1029	1	poli_8sides 4_whiteLine3.jpg	MediumLong_e04_stereo_44KHz.wav
4	89	3	4	2	I	2	0	935	1	poli_8sides 13_whiteLine3.jpg	MediumLong_e19_stereo_44KHz.wav
4	90	4	4	2	I	2	0	802	1	poli_8sides 3_whiteLine3.jpg	MediumLong_e19_stereo_44KHz.wav
4	91	1	1	1	C	2	0	920	0	poli_8sides 4_whiteLine3.jpg	MediumLong_b10_cut2_L_stereo_44KHz.wav
4	92	2	2	1	C	2	0	678	0	poli_8sides 7_whiteLine3.jpg	MediumLong_e04_stereo_44KHz.wav
4	93	3	3	2	I	2	0	691	0	poli_8sides 13_whiteLine3.jpg	Medium_e21_stereo_44KHz.wav
4	94	4	3	2	I	2	0	673	0	poli_8sides 3_whiteLine3.jpg	Medium_e21_stereo_44KHz.wav
4	95	2	1	0	C	2	1	908	1	poli_8sides 7_whiteLine3.jpg	MediumLong_b10_cut2_L_stereo_44KHz.wav
4	96	1	2	0	C	1	0	949	0	poli_8sides 4_whiteLine3.jpg	MediumLong_e04_stereo_44KHz.wav
4	97	4	3	2	I	2	0	750	0	poli_8sides 3_whiteLine3.jpg	Medium_e21_stereo_44KHz.wav
4	98	3	3	2	I	2	0	869	0	poli_8sides 13_whiteLine3.jpg	Medium_e21_stereo_44KHz.wav
4	99	1	2	0	C	1	0	1425	0	poli_8sides 4_whiteLine3.jpg	MediumLong_e04_stereo_44KHz.wav
4	100	2	2	1	C	1	1	1091	1	poli_8sides 7_whiteLine3.jpg	MediumLong_e04_stereo_44KHz.wav
4	101	4	4	2	I	2	0	887	1	poli_8sides 3_whiteLine3.jpg	MediumLong_e19_stereo_44KHz.wav
4	102	1	1	1	C	1	1	916	1	poli_8sides 4_whiteLine3.jpg	MediumLong_b10_cut2_L_stereo_44KHz.wav
4	103	3	4	2	I	2	0	1356	1	poli_8sides 13_whiteLine3.jpg	MediumLong_e19_stereo_44KHz.wav
4	104	2	1	0	C	1	0	982	0	poli_8sides 7_whiteLine3.jpg	MediumLong_b10_cut2_L_stereo_44KHz.wav
4	105	3	4	2	I	2	0	945	0	poli_8sides 13_whiteLine3.jpg	MediumLong_e19_stereo_44KHz.wav
4	106	1	2	0	C	2	1	1013	1	poli_8sides 4_whiteLine3.jpg	MediumLong_e04_stereo_44KHz.wav
4	107	4	3	2	I	2	0	845	0	poli_8sides 3_whiteLine3.jpg	Medium_e21_stereo_44KHz.wav
4	108	2	1	0	C	2	1	1013	1	poli_8sides 7_whiteLine3.jpg	MediumLong_b10_cut2_L_stereo_44KHz.wav
4	109	1	1	1	C	1	1	799	1	poli_8sides 4_whiteLine3.jpg	MediumLong_b10_cut2_L_stereo_44KHz.wav
4	110	4	4	2	I	2	0	1029	0	poli_8sides 3_whiteLine3.jpg	MediumLong_e19_stereo_44KHz.wav
4	111	2	2	1	C	1	1	1053	1	poli_8sides 7_whiteLine3.jpg	MediumLong_e04_stereo_44KHz.wav
4	112	3	3	2	I	2	0	1015	1	poli_8sides 13_whiteLine3.jpg	Medium_e21_stereo_44KHz.wav
4	113	2	1	0	C	1	0	1072	0	poli_8sides 7_whiteLine3.jpg	MediumLong_b10_cut2_L_stereo_44KHz.wav
4	114	1	1	1	C	1	1	1083	1	poli_8sides 4_whiteLine3.jpg	MediumLong_b10_cut2_L_stereo_44KHz.wav
4	115	4	3	2	I	2	0	811	1	poli_8sides 3_whiteLine3.jpg	Medium_e21_stereo_44KHz.wav
4	116	3	3	2	I	1	0	927	0	poli_8sides 13_whiteLine3.jpg	Medium_e21_stereo_44KHz.wav
4	117	4	4	2	I	1	0	1120	0	poli_8sides 3_whiteLine3.jpg	MediumLong_e19_stereo_44KHz.wav
4	118	3	4	2	I	2	0	807	1	poli_8sides 13_whiteLine3.jpg	MediumLong_e19_stereo_44KHz.wav
4	119	2	2	1	C	2	0	1233	0	poli_8sides 7_whiteLine3.jpg	MediumLong_e04_stereo_44KHz.wav
4	120	1	2	0	C	2	1	1296	1	poli_8sides 4_whiteLine3.jpg	MediumLong_e04_stereo_44KHz.wav
4	121	3	4	2	I	2	0	933	0	poli_8sides 13_whiteLine3.jpg	MediumLong_e19_stereo_44KHz.wav
4	122	4	4	2	I	2	0	648	0	poli_8sides 3_whiteLine3.jpg	MediumLong_e19_stereo_44KHz.wav
4	123	1	1	1	C	1	1	972	1	poli_8sides 4_whiteLine3.jpg	MediumLong_b10_cut2_L_stereo_44KHz.wav
4	124	2	1	0	C	2	1	1137	1	poli_8sides 7_whiteLine3.jpg	MediumLong_b10_cut2_L_stereo_44KHz.wav
4	125	3	3	2	I	1	0	1258	0	poli_8sides 13_whiteLine3.jpg	Medium_e21_stereo_44KHz.wav
4	126	4	3	2	I	2	0	1371	0	poli_8sides 3_whiteLine3.jpg	Medium_e21_stereo_44KHz.wav
4	127	1	2	0	C	1	0	1255	0	poli_8sides 4_whiteLine3.jpg	MediumLong_e04_stereo_44KHz.wav
4	128	2	2	1	C	2	0	1133	0	poli_8sides 7_whiteLine3.jpg	MediumLong_e04_stereo_44KHz.wav
4	129	1	2	0	C	1	0	1547	0	poli_8sides 4_whiteLine3.jpg	MediumLong_e04_stereo_44KHz.wav
4	130	2	2	1	C	2	0	991	0	poli_8sides 7_whiteLine3.jpg	MediumLong_e04_stereo_44KHz.wav
4	131	3	4	2	I	2	0	838	1	poli_8sides 13_whiteLine3.jpg	MediumLong_e19_stereo_44KHz.wav
4	132	4	4	2	I	2	0	999	0	poli_8sides 3_whiteLine3.jpg	MediumLong_e19_stereo_44KHz.wav
4	133	2	1	0	C	2	1	994	1	poli_8sides 7_whiteLine3.jpg	MediumLong_b10_cut2_L_stereo_44KHz.wav
4	134	4	3	2	I	2	0	914	1	poli_8sides 3_whiteLine3.jpg	Medium_e21_stereo_44KHz.wav
4	135	1	1	1	C	2	0	1405	0	poli_8sides 4_whiteLine3.jpg	MediumLong_b10_cut2_L_stereo_44KHz.wav
4	136	3	3	2	I	1	0	1318	1	poli_8sides 13_whiteLine3.jpg	Medium_e21_stereo_44KHz.wav
4	137	2	1	0	C	2	1	1424	1	poli_8sides 7_whiteLine3.jpg	MediumLong_b10_cut2_L_stereo_44KHz.wav
4	138	4	3	2	I	2	0	906	1	poli_8sides 3_whiteLine3.jpg	Medium_e21_stereo_44KHz.wav
4	139	1	1	1	C	1	1	804	1	poli_8sides 4_whiteLine3.jpg	MediumLong_b10_cut2_L_stereo_44KHz.wav
4	140	3	4	2	I	1	0	949	0	poli_8sides 13_whiteLine3.jpg	MediumLong_e19_stereo_44KHz.wav
4	141	4	4	2	I	1	0	1184	0	poli_8sides 3_whiteLine3.jpg	MediumLong_e19_stereo_44KHz.wav
4	142	3	3	2	I	2	0	1231	1	poli_8sides 13_whiteLine3.jpg	Medium_e21_stereo_44KHz.wav
4	143	1	2	0	C	1	0	1532	0	poli_8sides 4_whiteLine3.jpg	MediumLong_e04_stereo_44KHz.wav
4	144	2	2	1	C	1	1	1291	1	poli_8sides 7_whiteLine3.jpg	MediumLong_e04_stereo_44KHz.wav
4	145	1	1	1	C	1	1	1680	1	poli_8sides 4_whiteLine3.jpg	MediumLong_b10_cut2_L_stereo_44KHz.wav
4	146	4	4	2	I	2	0	1173	1	poli_8sides 3_whiteLine3.jpg	MediumLong_e19_stereo_44KHz.wav
4	147	2	2	1	C	1	1	1035	1	poli_8sides 7_whiteLine3.jpg	MediumLong_e04_stereo_44KHz.wav
4	148	3	3	2	I	2	0	1042	0	poli_8sides 13_whiteLine3.jpg	Medium_e21_stereo_44KHz.wav
4	149	1	2	0	C	1	0	734	0	poli_8sides 4_whiteLine3.jpg	MediumLong_e04_stereo_44KHz.wav
4	150	3	4	2	I	2	0	773	1	poli_8sides 13_whiteLine3.jpg	MediumLong_e19_stereo_44KHz.wav
4	151	4	3	2	I	1	0	863	1	poli_8sides 3_whiteLine3.jpg	Medium_e21_stereo_44KHz.wav
4	152	2	1	0	C	2	1	872	1	poli_8sides 7_whiteLine3.jpg	MediumLong_b10_cut2_L_stereo_44KHz.wav
4	153	4	3	2	I	2	0	720	0	poli_8sides 3_whiteLine3.jpg	Medium_e21_stereo_44KHz.wav
4	154	1	2	0	C	1	0	788	0	poli_8sides 4_whiteLine3.jpg	MediumLong_e04_stereo_44KHz.wav
4	155	3	4	2	I	2	0	1193	1	poli_8sides 13_whiteLine3.jpg	MediumLong_e19_stereo_44KHz.wav
4	156	2	1	0	C	2	1	1021	1	poli_8sides 7_whiteLine3.jpg	MediumLong_b10_cut2_L_stereo_44KHz.wav
4	157	1	1	1	C	2	0	1434	0	poli_8sides 4_whiteLine3.jpg	MediumLong_b10_cut2_L_stereo_44KHz.wav
4	158	3	3	2	I	1	0	1011	1	poli_8sides 13_whiteLine3.jpg	Medium_e21_stereo_44KHz.wav
4	159	2	2	1	C	2	0	1180	0	poli_8sides 7_whiteLine3.jpg	MediumLong_e04_stereo_44KHz.wav
4	160	4	4	2	I	1	0	922	1	poli_8sides 3_whiteLine3.jpg	MediumLong_e19_stereo_44KHz.wav
4	161	1	2	0	C	1	0	967	0	poli_8sides 4_whiteLine3.jpg	MediumLong_e04_stereo_44KHz.wav
4	162	3	3	2	I	2	0	901	1	poli_8sides 13_whiteLine3.jpg	Medium_e21_stereo_44KHz.wav
4	163	2	2	1	C	2	0	1090	0	poli_8sides 7_whiteLine3.jpg	MediumLong_e04_stereo_44KHz.wav
4	164	4	4	2	I	1	0	833	0	poli_8sides 3_whiteLine3.jpg	MediumLong_e19_stereo_44KHz.wav
4	165	2	1	0	C	2	1	842	1	poli_8sides 7_whiteLine3.jpg	MediumLong_b10_cut2_L_stereo_44KHz.wav
4	166	3	4	2	I	1	0	810	1	poli_8sides 13_whiteLine3.jpg	MediumLong_e19_stereo_44KHz.wav
4	167	1	1	1	C	1	1	879	1	poli_8sides 4_whiteLine3.jpg	MediumLong_b10_cut2_L_stereo_44KHz.wav
4	168	4	3	2	I	2	0	1464	1	poli_8sides 3_whiteLine3.jpg	Medium_e21_stereo_44KHz.wav
4	169	1	1	1	C	1	1	970	1	poli_8sides 4_whiteLine3.jpg	MediumLong_b10_cut2_L_stereo_44KHz.wav
4	170	2	1	0	C	2	1	949	1	poli_8sides 7_whiteLine3.jpg	MediumLong_b10_cut2_L_stereo_44KHz.wav
4	171	3	4	2	I	2	0	1557	0	poli_8sides 13_whiteLine3.jpg	MediumLong_e19_stereo_44KHz.wav
4	172	4	4	2	I	2	0	902	1	poli_8sides 3_whiteLine3.jpg	MediumLong_e19_stereo_44KHz.wav
4	173	2	2	1	C	1	1	941	1	poli_8sides 7_whiteLine3.jpg	MediumLong_e04_stereo_44KHz.wav
4	174	3	3	2	I	2	0	968	0	poli_8sides 13_whiteLine3.jpg	Medium_e21_stereo_44KHz.wav
4	175	4	3	2	I	2	0	695	0	poli_8sides 3_whiteLine3.jpg	Medium_e21_stereo_44KHz.wav
4	176	1	2	0	C	1	0	718	0	poli_8sides 4_whiteLine3.jpg	MediumLong_e04_stereo_44KHz.wav
4	177	2	1	0	C	2	1	974	1	poli_8sides 7_whiteLine3.jpg	MediumLong_b10_cut2_L_stereo_44KHz.wav
4	178	1	2	0	C	1	0	1060	0	poli_8sides 4_whiteLine3.jpg	MediumLong_e04_stereo_44KHz.wav
4	179	3	4	2	I	2	0	789	0	poli_8sides 13_whiteLine3.jpg	MediumLong_e19_stereo_44KHz.wav
4	180	4	3	2	I	2	0	995	0	poli_8sides 3_whiteLine3.jpg	Medium_e21_stereo_44KHz.wav
4	181	2	2	1	C	2	0	1154	0	poli_8sides 7_whiteLine3.jpg	MediumLong_e04_stereo_44KHz.wav
4	182	4	4	2	I	1	0	1369	0	poli_8sides 3_whiteLine3.jpg	MediumLong_e19_stereo_44KHz.wav
4	183	3	3	2	I	2	0	1056	0	poli_8sides 13_whiteLine3.jpg	Medium_e21_stereo_44KHz.wav
4	184	1	1	1	C	1	1	1328	1	poli_8sides 4_whiteLine3.jpg	MediumLong_b10_cut2_L_stereo_44KHz.wav
4	185	3	4	2	I	2	0	1195	1	poli_8sides 13_whiteLine3.jpg	MediumLong_e19_stereo_44KHz.wav
4	186	4	4	2	I	1	0	1009	1	poli_8sides 3_whiteLine3.jpg	MediumLong_e19_stereo_44KHz.wav
4	187	1	2	0	C	2	1	1501	1	poli_8sides 4_whiteLine3.jpg	MediumLong_e04_stereo_44KHz.wav
4	188	2	1	0	C	2	1	991	1	poli_8sides 7_whiteLine3.jpg	MediumLong_b10_cut2_L_stereo_44KHz.wav
4	189	1	1	1	C	1	1	1259	1	poli_8sides 4_whiteLine3.jpg	MediumLong_b10_cut2_L_stereo_44KHz.wav
4	190	3	3	2	I	1	0	996	0	poli_8sides 13_whiteLine3.jpg	Medium_e21_stereo_44KHz.wav
4	191	4	3	2	I	2	0	846	1	poli_8sides 3_whiteLine3.jpg	Medium_e21_stereo_44KHz.wav
4	192	2	2	1	C	2	0	1276	0	poli_8sides 7_whiteLine3.jpg	MediumLong_e04_stereo_44KHz.wav
4	193	1	2	0	C	1	0	699	0	poli_8sides 4_whiteLine3.jpg	MediumLong_e04_stereo_44KHz.wav
4	194	2	1	0	C	2	1	1000	1	poli_8sides 7_whiteLine3.jpg	MediumLong_b10_cut2_L_stereo_44KHz.wav
4	195	4	4	2	I	2	0	1101	0	poli_8sides 3_whiteLine3.jpg	MediumLong_e19_stereo_44KHz.wav
4	196	3	4	2	I	2	0	1147	1	poli_8sides 13_whiteLine3.jpg	MediumLong_e19_stereo_44KHz.wav
4	197	4	3	2	I	2	0	728	0	poli_8sides 3_whiteLine3.jpg	Medium_e21_stereo_44KHz.wav
4	198	1	1	1	C	1	1	898	1	poli_8sides 4_whiteLine3.jpg	MediumLong_b10_cut2_L_stereo_44KHz.wav
4	199	2	2	1	C	2	0	909	0	poli_8sides 7_whiteLine3.jpg	MediumLong_e04_stereo_44KHz.wav
4	200	3	3	2	I	2	0	909	0	poli_8sides 13_whiteLine3.jpg	Medium_e21_stereo_44KHz.wav
