block	trial	Vstim	Astim	match	C/I	resp	.result	RT	fb	V-file	A-file
RL

0	1	1	2	0	C	1	0	1289	0	Ⴉ	cut_oo_stereo_44KHz.wav
0	2	2	3	1	C	1	1	848	1	Ⴞ	cut_ee_stereo_44KHz.wav
0	3	2	4	0	C	1	0	1314	0	Ⴞ	cut_eeuw_stereo_44KHz.wav
0	4	1	1	1	C	1	1	1010	1	Ⴉ	cut_g_stereo_44KHz.wav
0	5	1	2	0	C	2	1	611	1	Ⴉ	cut_oo_stereo_44KHz.wav
0	6	1	1	1	C	1	1	787	1	Ⴉ	cut_g_stereo_44KHz.wav
0	7	2	4	0	C	2	1	737	1	Ⴞ	cut_eeuw_stereo_44KHz.wav
0	8	2	3	1	C	1	1	707	1	Ⴞ	cut_ee_stereo_44KHz.wav
0	9	1	1	1	C	2	0	817	0	Ⴉ	cut_g_stereo_44KHz.wav
0	10	2	3	1	C	1	1	1111	1	Ⴞ	cut_ee_stereo_44KHz.wav
0	11	1	2	0	C	2	1	727	1	Ⴉ	cut_oo_stereo_44KHz.wav
0	12	2	4	0	C	1	0	502	0	Ⴞ	cut_eeuw_stereo_44KHz.wav
0	13	1	1	1	C	1	1	1142	1	Ⴉ	cut_g_stereo_44KHz.wav
0	14	2	3	1	C	1	1	837	1	Ⴞ	cut_ee_stereo_44KHz.wav
0	15	2	4	0	C	2	1	824	1	Ⴞ	cut_eeuw_stereo_44KHz.wav
0	16	1	2	0	C	2	1	629	1	Ⴉ	cut_oo_stereo_44KHz.wav
0	17	1	1	1	C	1	1	712	1	Ⴉ	cut_g_stereo_44KHz.wav
0	18	1	2	0	C	2	1	692	1	Ⴉ	cut_oo_stereo_44KHz.wav
0	19	2	4	0	C	2	1	1031	1	Ⴞ	cut_eeuw_stereo_44KHz.wav
0	20	2	3	1	C	1	1	985	1	Ⴞ	cut_ee_stereo_44KHz.wav
0	21	1	2	0	C	2	1	849	1	Ⴉ	cut_oo_stereo_44KHz.wav
0	22	1	1	1	C	1	1	1087	1	Ⴉ	cut_g_stereo_44KHz.wav
0	23	2	3	1	C	1	1	1186	1	Ⴞ	cut_ee_stereo_44KHz.wav
0	24	2	4	0	C	2	1	1115	1	Ⴞ	cut_eeuw_stereo_44KHz.wav
0	25	2	4	0	C	2	1	813	1	Ⴞ	cut_eeuw_stereo_44KHz.wav
0	26	2	3	1	C	1	1	766	1	Ⴞ	cut_ee_stereo_44KHz.wav
0	27	1	2	0	C	2	1	774	1	Ⴉ	cut_oo_stereo_44KHz.wav
0	28	1	1	1	C	1	1	704	1	Ⴉ	cut_g_stereo_44KHz.wav
0	29	1	1	1	C	1	1	1310	1	Ⴉ	cut_g_stereo_44KHz.wav
0	30	2	3	1	C	1	1	872	1	Ⴞ	cut_ee_stereo_44KHz.wav
avg_resp = 879
1	1	4	4	2	I	1	0	1015	1	Ⴊ	cut_k_stereo_44KHz.wav
1	2	1	1	1	C	2	0	882	0	Ⴃ	cut_a_stereo_44KHz.wav
1	3	3	3	2	I	1	0	808	1	Ⴟ	cut_o_stereo_44KHz.wav
1	4	2	2	1	C	2	0	1012	0	Ⴇ	cut_u_stereo_44KHz.wav
1	5	4	3	2	I	2	0	754	1	Ⴊ	cut_o_stereo_44KHz.wav
1	6	2	1	0	C	2	1	913	1	Ⴇ	cut_a_stereo_44KHz.wav
1	7	3	4	2	I	2	0	902	1	Ⴟ	cut_k_stereo_44KHz.wav
1	8	1	2	0	C	1	0	984	0	Ⴃ	cut_u_stereo_44KHz.wav
1	9	3	4	2	I	2	0	697	0	Ⴟ	cut_k_stereo_44KHz.wav
1	10	4	4	2	I	1	0	1147	1	Ⴊ	cut_k_stereo_44KHz.wav
1	11	2	2	1	C	1	1	1074	1	Ⴇ	cut_u_stereo_44KHz.wav
1	12	1	2	0	C	2	1	798	1	Ⴃ	cut_u_stereo_44KHz.wav
1	13	4	3	2	I	2	0	702	1	Ⴊ	cut_o_stereo_44KHz.wav
1	14	2	1	0	C	2	1	886	1	Ⴇ	cut_a_stereo_44KHz.wav
1	15	3	3	2	I	1	0	837	1	Ⴟ	cut_o_stereo_44KHz.wav
1	16	1	1	1	C	1	1	1119	1	Ⴃ	cut_a_stereo_44KHz.wav
1	17	2	1	0	C	1	0	663	0	Ⴇ	cut_a_stereo_44KHz.wav
1	18	3	3	2	I	1	0	908	0	Ⴟ	cut_o_stereo_44KHz.wav
1	19	1	1	1	C	1	1	1193	1	Ⴃ	cut_a_stereo_44KHz.wav
1	20	4	4	2	I	1	0	976	0	Ⴊ	cut_k_stereo_44KHz.wav
1	21	1	2	0	C	2	1	774	1	Ⴃ	cut_u_stereo_44KHz.wav
1	22	2	2	1	C	1	1	1271	1	Ⴇ	cut_u_stereo_44KHz.wav
1	23	3	4	2	I	2	0	975	1	Ⴟ	cut_k_stereo_44KHz.wav
1	24	4	3	2	I	1	0	1268	1	Ⴊ	cut_o_stereo_44KHz.wav
1	25	3	3	2	I	1	0	898	0	Ⴟ	cut_o_stereo_44KHz.wav
1	26	4	4	2	I	1	0	877	0	Ⴊ	cut_k_stereo_44KHz.wav
1	27	2	2	1	C	1	1	964	1	Ⴇ	cut_u_stereo_44KHz.wav
1	28	1	1	1	C	1	1	1034	1	Ⴃ	cut_a_stereo_44KHz.wav
1	29	3	4	2	I	2	0	938	1	Ⴟ	cut_k_stereo_44KHz.wav
1	30	4	3	2	I	2	0	1020	0	Ⴊ	cut_o_stereo_44KHz.wav
1	31	1	2	0	C	1	0	811	0	Ⴃ	cut_u_stereo_44KHz.wav
1	32	2	1	0	C	2	1	1032	1	Ⴇ	cut_a_stereo_44KHz.wav
1	33	3	3	2	I	2	0	862	0	Ⴟ	cut_o_stereo_44KHz.wav
1	34	4	4	2	I	1	0	1087	1	Ⴊ	cut_k_stereo_44KHz.wav
1	35	2	2	1	C	1	1	1082	1	Ⴇ	cut_u_stereo_44KHz.wav
1	36	1	2	0	C	2	1	788	1	Ⴃ	cut_u_stereo_44KHz.wav
1	37	4	3	2	I	2	0	850	1	Ⴊ	cut_o_stereo_44KHz.wav
1	38	1	1	1	C	1	1	1056	1	Ⴃ	cut_a_stereo_44KHz.wav
1	39	2	1	0	C	2	1	1011	1	Ⴇ	cut_a_stereo_44KHz.wav
1	40	3	4	2	I	2	0	918	1	Ⴟ	cut_k_stereo_44KHz.wav
1	41	4	3	2	I	2	0	781	1	Ⴊ	cut_o_stereo_44KHz.wav
1	42	1	2	0	C	2	1	971	1	Ⴃ	cut_u_stereo_44KHz.wav
1	43	3	3	2	I	1	0	918	1	Ⴟ	cut_o_stereo_44KHz.wav
1	44	2	2	1	C	1	1	1027	1	Ⴇ	cut_u_stereo_44KHz.wav
1	45	4	4	2	I	1	0	1053	0	Ⴊ	cut_k_stereo_44KHz.wav
1	46	3	4	2	I	1	0	1257	1	Ⴟ	cut_k_stereo_44KHz.wav
1	47	1	1	1	C	1	1	955	1	Ⴃ	cut_a_stereo_44KHz.wav
1	48	2	1	0	C	2	1	695	1	Ⴇ	cut_a_stereo_44KHz.wav
1	49	1	2	0	C	2	1	740	1	Ⴃ	cut_u_stereo_44KHz.wav
1	50	2	1	0	C	2	1	898	1	Ⴇ	cut_a_stereo_44KHz.wav
1	51	3	3	2	I	1	0	1059	0	Ⴟ	cut_o_stereo_44KHz.wav
1	52	4	4	2	I	1	0	1374	0	Ⴊ	cut_k_stereo_44KHz.wav
1	53	2	2	1	C	1	1	1038	1	Ⴇ	cut_u_stereo_44KHz.wav
1	54	1	1	1	C	1	1	1372	1	Ⴃ	cut_a_stereo_44KHz.wav
1	55	4	3	2	I	1	0	1122	1	Ⴊ	cut_o_stereo_44KHz.wav
1	56	3	4	2	I	2	0	1385	0	Ⴟ	cut_k_stereo_44KHz.wav
1	57	4	4	2	I	2	0	655	1	Ⴊ	cut_k_stereo_44KHz.wav
1	58	1	1	1	C	1	1	890	1	Ⴃ	cut_a_stereo_44KHz.wav
1	59	3	3	2	I	1	0	1330	0	Ⴟ	cut_o_stereo_44KHz.wav
1	60	2	1	0	C	2	1	733	1	Ⴇ	cut_a_stereo_44KHz.wav
1	61	1	2	0	C	2	1	864	1	Ⴃ	cut_u_stereo_44KHz.wav
1	62	4	3	2	I	2	0	717	0	Ⴊ	cut_o_stereo_44KHz.wav
1	63	2	2	1	C	1	1	1046	1	Ⴇ	cut_u_stereo_44KHz.wav
1	64	3	4	2	I	2	0	1238	0	Ⴟ	cut_k_stereo_44KHz.wav
1	65	4	3	2	I	1	0	928	1	Ⴊ	cut_o_stereo_44KHz.wav
1	66	2	1	0	C	2	1	945	1	Ⴇ	cut_a_stereo_44KHz.wav
1	67	1	2	0	C	2	1	738	1	Ⴃ	cut_u_stereo_44KHz.wav
1	68	3	3	2	I	1	0	1112	1	Ⴟ	cut_o_stereo_44KHz.wav
1	69	4	4	2	I	2	0	1099	0	Ⴊ	cut_k_stereo_44KHz.wav
1	70	3	4	2	I	2	0	819	0	Ⴟ	cut_k_stereo_44KHz.wav
1	71	1	1	1	C	1	1	869	1	Ⴃ	cut_a_stereo_44KHz.wav
1	72	2	2	1	C	1	1	877	1	Ⴇ	cut_u_stereo_44KHz.wav
1	73	3	3	2	I	2	0	989	0	Ⴟ	cut_o_stereo_44KHz.wav
1	74	4	3	2	I	1	0	859	0	Ⴊ	cut_o_stereo_44KHz.wav
1	75	2	1	0	C	2	1	964	1	Ⴇ	cut_a_stereo_44KHz.wav
1	76	1	2	0	C	2	1	1006	1	Ⴃ	cut_u_stereo_44KHz.wav
1	77	3	4	2	I	2	0	783	1	Ⴟ	cut_k_stereo_44KHz.wav
1	78	1	1	1	C	1	1	1133	1	Ⴃ	cut_a_stereo_44KHz.wav
1	79	4	4	2	I	2	0	1156	1	Ⴊ	cut_k_stereo_44KHz.wav
1	80	2	2	1	C	1	1	894	1	Ⴇ	cut_u_stereo_44KHz.wav
1	81	3	4	2	I	2	0	849	0	Ⴟ	cut_k_stereo_44KHz.wav
1	82	4	4	2	I	2	0	838	0	Ⴊ	cut_k_stereo_44KHz.wav
1	83	1	2	0	C	2	1	862	1	Ⴃ	cut_u_stereo_44KHz.wav
1	84	2	1	0	C	2	1	813	1	Ⴇ	cut_a_stereo_44KHz.wav
1	85	4	3	2	I	1	0	1864	0	Ⴊ	cut_o_stereo_44KHz.wav
1	86	3	3	2	I	2	0	1032	0	Ⴟ	cut_o_stereo_44KHz.wav
1	87	1	1	1	C	1	1	754	1	Ⴃ	cut_a_stereo_44KHz.wav
1	88	2	2	1	C	2	0	940	0	Ⴇ	cut_u_stereo_44KHz.wav
1	89	1	1	1	C	1	1	963	1	Ⴃ	cut_a_stereo_44KHz.wav
1	90	2	1	0	C	1	0	918	0	Ⴇ	cut_a_stereo_44KHz.wav
1	91	4	3	2	I	1	0	1046	0	Ⴊ	cut_o_stereo_44KHz.wav
1	92	3	4	2	I	2	0	756	1	Ⴟ	cut_k_stereo_44KHz.wav
1	93	1	2	0	C	2	1	1034	1	Ⴃ	cut_u_stereo_44KHz.wav
1	94	3	3	2	I	1	0	756	1	Ⴟ	cut_o_stereo_44KHz.wav
1	95	4	4	2	I	1	0	1092	0	Ⴊ	cut_k_stereo_44KHz.wav
1	96	2	2	1	C	1	1	1035	1	Ⴇ	cut_u_stereo_44KHz.wav
1	97	3	4	2	I	2	0	1047	0	Ⴟ	cut_k_stereo_44KHz.wav
1	98	2	1	0	C	2	1	1022	1	Ⴇ	cut_a_stereo_44KHz.wav
1	99	1	2	0	C	2	1	865	1	Ⴃ	cut_u_stereo_44KHz.wav
1	100	4	4	2	I	2	0	836	0	Ⴊ	cut_k_stereo_44KHz.wav
1	101	1	1	1	C	1	1	973	1	Ⴃ	cut_a_stereo_44KHz.wav
1	102	2	2	1	C	1	1	1016	1	Ⴇ	cut_u_stereo_44KHz.wav
1	103	4	3	2	I	2	0	850	1	Ⴊ	cut_o_stereo_44KHz.wav
1	104	3	3	2	I	1	0	745	1	Ⴟ	cut_o_stereo_44KHz.wav
1	105	2	1	0	C	2	1	751	1	Ⴇ	cut_a_stereo_44KHz.wav
1	106	1	1	1	C	1	1	775	1	Ⴃ	cut_a_stereo_44KHz.wav
1	107	4	3	2	I	2	0	859	1	Ⴊ	cut_o_stereo_44KHz.wav
1	108	3	3	2	I	1	0	727	0	Ⴟ	cut_o_stereo_44KHz.wav
1	109	1	2	0	C	2	1	960	1	Ⴃ	cut_u_stereo_44KHz.wav
1	110	2	2	1	C	1	1	779	1	Ⴇ	cut_u_stereo_44KHz.wav
1	111	3	4	2	I	2	0	720	1	Ⴟ	cut_k_stereo_44KHz.wav
1	112	4	4	2	I	1	0	745	1	Ⴊ	cut_k_stereo_44KHz.wav
1	113	1	1	1	C	1	1	830	1	Ⴃ	cut_a_stereo_44KHz.wav
1	114	4	3	2	I	2	0	940	0	Ⴊ	cut_o_stereo_44KHz.wav
1	115	3	4	2	I	2	0	857	0	Ⴟ	cut_k_stereo_44KHz.wav
1	116	2	1	0	C	2	1	934	1	Ⴇ	cut_a_stereo_44KHz.wav
1	117	3	3	2	I	1	0	1105	0	Ⴟ	cut_o_stereo_44KHz.wav
1	118	4	4	2	I	2	0	1132	1	Ⴊ	cut_k_stereo_44KHz.wav
1	119	2	2	1	C	1	1	901	1	Ⴇ	cut_u_stereo_44KHz.wav
1	120	1	2	0	C	2	1	1008	1	Ⴃ	cut_u_stereo_44KHz.wav
1	121	2	1	0	C	2	1	795	1	Ⴇ	cut_a_stereo_44KHz.wav
1	122	3	4	2	I	2	0	1160	1	Ⴟ	cut_k_stereo_44KHz.wav
1	123	1	1	1	C	1	1	842	1	Ⴃ	cut_a_stereo_44KHz.wav
1	124	4	4	2	I	2	0	915	1	Ⴊ	cut_k_stereo_44KHz.wav
1	125	1	2	0	C	2	1	696	1	Ⴃ	cut_u_stereo_44KHz.wav
1	126	2	2	1	C	1	1	832	1	Ⴇ	cut_u_stereo_44KHz.wav
1	127	4	3	2	I	2	0	912	1	Ⴊ	cut_o_stereo_44KHz.wav
1	128	3	3	2	I	1	0	701	1	Ⴟ	cut_o_stereo_44KHz.wav
1	129	4	3	2	I	1	0	926	0	Ⴊ	cut_o_stereo_44KHz.wav
1	130	1	2	0	C	2	1	868	1	Ⴃ	cut_u_stereo_44KHz.wav
1	131	2	2	1	C	1	1	790	1	Ⴇ	cut_u_stereo_44KHz.wav
1	132	3	3	2	I	1	0	744	0	Ⴟ	cut_o_stereo_44KHz.wav
1	133	2	1	0	C	2	1	1017	1	Ⴇ	cut_a_stereo_44KHz.wav
1	134	4	4	2	I	2	0	929	1	Ⴊ	cut_k_stereo_44KHz.wav
1	135	3	4	2	I	1	0	986	0	Ⴟ	cut_k_stereo_44KHz.wav
1	136	1	1	1	C	1	1	913	1	Ⴃ	cut_a_stereo_44KHz.wav
1	137	4	3	2	I	2	0	1004	0	Ⴊ	cut_o_stereo_44KHz.wav
1	138	2	2	1	C	1	1	1236	1	Ⴇ	cut_u_stereo_44KHz.wav
1	139	1	2	0	C	2	1	808	1	Ⴃ	cut_u_stereo_44KHz.wav
1	140	3	4	2	I	2	0	1044	1	Ⴟ	cut_k_stereo_44KHz.wav
1	141	1	1	1	C	1	1	1012	1	Ⴃ	cut_a_stereo_44KHz.wav
1	142	3	3	2	I	1	0	1104	1	Ⴟ	cut_o_stereo_44KHz.wav
1	143	2	1	0	C	2	1	961	1	Ⴇ	cut_a_stereo_44KHz.wav
1	144	4	4	2	I	1	0	903	0	Ⴊ	cut_k_stereo_44KHz.wav
1	145	2	2	1	C	1	1	1057	1	Ⴇ	cut_u_stereo_44KHz.wav
1	146	1	2	0	C	2	1	859	1	Ⴃ	cut_u_stereo_44KHz.wav
1	147	4	4	2	I	2	0	1014	1	Ⴊ	cut_k_stereo_44KHz.wav
1	148	3	4	2	I	2	0	856	0	Ⴟ	cut_k_stereo_44KHz.wav
1	149	2	1	0	C	2	1	967	1	Ⴇ	cut_a_stereo_44KHz.wav
1	150	3	3	2	I	2	0	896	1	Ⴟ	cut_o_stereo_44KHz.wav
1	151	4	3	2	I	1	0	1116	0	Ⴊ	cut_o_stereo_44KHz.wav
1	152	1	1	1	C	1	1	1028	1	Ⴃ	cut_a_stereo_44KHz.wav
1	153	3	3	2	I	2	0	819	1	Ⴟ	cut_o_stereo_44KHz.wav
1	154	2	2	1	C	1	1	957	1	Ⴇ	cut_u_stereo_44KHz.wav
1	155	1	1	1	C	1	1	889	1	Ⴃ	cut_a_stereo_44KHz.wav
1	156	4	3	2	I	2	0	932	0	Ⴊ	cut_o_stereo_44KHz.wav
1	157	1	2	0	C	2	1	993	1	Ⴃ	cut_u_stereo_44KHz.wav
1	158	2	1	0	C	2	1	895	1	Ⴇ	cut_a_stereo_44KHz.wav
1	159	3	4	2	I	1	0	1020	1	Ⴟ	cut_k_stereo_44KHz.wav
1	160	4	4	2	I	2	0	815	1	Ⴊ	cut_k_stereo_44KHz.wav
1	161	2	2	1	C	1	1	873	1	Ⴇ	cut_u_stereo_44KHz.wav
1	162	1	2	0	C	2	1	740	1	Ⴃ	cut_u_stereo_44KHz.wav
1	163	3	4	2	I	1	0	868	0	Ⴟ	cut_k_stereo_44KHz.wav
1	164	4	4	2	I	2	0	778	1	Ⴊ	cut_k_stereo_44KHz.wav
1	165	1	1	1	C	1	1	833	1	Ⴃ	cut_a_stereo_44KHz.wav
1	166	3	3	2	I	2	0	937	1	Ⴟ	cut_o_stereo_44KHz.wav
1	167	2	1	0	C	2	1	916	1	Ⴇ	cut_a_stereo_44KHz.wav
1	168	4	3	2	I	2	0	929	1	Ⴊ	cut_o_stereo_44KHz.wav
1	169	2	1	0	C	2	1	737	1	Ⴇ	cut_a_stereo_44KHz.wav
1	170	1	1	1	C	1	1	833	1	Ⴃ	cut_a_stereo_44KHz.wav
1	171	3	3	2	I	2	0	827	0	Ⴟ	cut_o_stereo_44KHz.wav
1	172	4	3	2	I	2	0	772	1	Ⴊ	cut_o_stereo_44KHz.wav
1	173	3	4	2	I	2	0	1299	1	Ⴟ	cut_k_stereo_44KHz.wav
1	174	2	2	1	C	1	1	891	1	Ⴇ	cut_u_stereo_44KHz.wav
1	175	4	4	2	I	2	0	869	0	Ⴊ	cut_k_stereo_44KHz.wav
1	176	1	2	0	C	2	1	1009	1	Ⴃ	cut_u_stereo_44KHz.wav
1	177	4	3	2	I	2	0	896	0	Ⴊ	cut_o_stereo_44KHz.wav
1	178	1	2	0	C	2	1	660	1	Ⴃ	cut_u_stereo_44KHz.wav
1	179	2	1	0	C	1	0	970	0	Ⴇ	cut_a_stereo_44KHz.wav
1	180	3	4	2	I	2	0	875	0	Ⴟ	cut_k_stereo_44KHz.wav
1	181	1	1	1	C	1	1	932	1	Ⴃ	cut_a_stereo_44KHz.wav
1	182	4	4	2	I	2	0	783	0	Ⴊ	cut_k_stereo_44KHz.wav
1	183	2	2	1	C	1	1	869	1	Ⴇ	cut_u_stereo_44KHz.wav
1	184	3	3	2	I	2	0	840	0	Ⴟ	cut_o_stereo_44KHz.wav
1	185	2	1	0	C	2	1	955	1	Ⴇ	cut_a_stereo_44KHz.wav
1	186	1	2	0	C	2	1	860	1	Ⴃ	cut_u_stereo_44KHz.wav
1	187	3	4	2	I	2	0	839	1	Ⴟ	cut_k_stereo_44KHz.wav
1	188	4	4	2	I	2	0	916	1	Ⴊ	cut_k_stereo_44KHz.wav
1	189	2	2	1	C	1	1	886	1	Ⴇ	cut_u_stereo_44KHz.wav
1	190	3	3	2	I	2	0	876	1	Ⴟ	cut_o_stereo_44KHz.wav
1	191	4	3	2	I	2	0	900	0	Ⴊ	cut_o_stereo_44KHz.wav
1	192	1	1	1	C	1	1	846	1	Ⴃ	cut_a_stereo_44KHz.wav
1	193	2	2	1	C	1	1	982	1	Ⴇ	cut_u_stereo_44KHz.wav
1	194	1	1	1	C	1	1	1085	1	Ⴃ	cut_a_stereo_44KHz.wav
1	195	4	3	2	I	2	0	879	0	Ⴊ	cut_o_stereo_44KHz.wav
1	196	3	4	2	I	2	0	784	0	Ⴟ	cut_k_stereo_44KHz.wav
1	197	2	1	0	C	2	1	934	1	Ⴇ	cut_a_stereo_44KHz.wav
1	198	1	2	0	C	2	1	984	1	Ⴃ	cut_u_stereo_44KHz.wav
1	199	3	3	2	I	2	0	776	0	Ⴟ	cut_o_stereo_44KHz.wav
1	200	4	4	2	I	2	0	1337	0	Ⴊ	cut_k_stereo_44KHz.wav
2	1	1	1	1	C	1	1	1219	1	Ⴉ	cut_s_stereo_44KHz.wav
2	2	3	4	2	I	2	0	1015	1	Ⴏ	cut_ei_stereo_44KHz.wav
2	3	4	4	2	I	2	0	939	0	Ⴐ	cut_ei_stereo_44KHz.wav
2	4	2	1	0	C	1	0	924	0	Ⴔ	cut_s_stereo_44KHz.wav
2	5	3	3	2	I	2	0	851	0	Ⴏ	cut_j_stereo_44KHz.wav
2	6	2	2	1	C	2	0	660	0	Ⴔ	cut_oei_stereo_44KHz.wav
2	7	1	2	0	C	2	1	680	1	Ⴉ	cut_oei_stereo_44KHz.wav
2	8	4	3	2	I	2	0	750	0	Ⴐ	cut_j_stereo_44KHz.wav
2	9	1	2	0	C	2	1	857	1	Ⴉ	cut_oei_stereo_44KHz.wav
2	10	3	3	2	I	2	0	983	1	Ⴏ	cut_j_stereo_44KHz.wav
2	11	4	3	2	I	1	0	760	0	Ⴐ	cut_j_stereo_44KHz.wav
2	12	2	2	1	C	2	0	874	0	Ⴔ	cut_oei_stereo_44KHz.wav
2	13	4	4	2	I	1	0	950	1	Ⴐ	cut_ei_stereo_44KHz.wav
2	14	2	1	0	C	2	1	1027	1	Ⴔ	cut_s_stereo_44KHz.wav
2	15	1	1	1	C	1	1	926	1	Ⴉ	cut_s_stereo_44KHz.wav
2	16	3	4	2	I	2	0	856	0	Ⴏ	cut_ei_stereo_44KHz.wav
2	17	4	3	2	I	2	0	627	1	Ⴐ	cut_j_stereo_44KHz.wav
2	18	1	1	1	C	1	1	824	1	Ⴉ	cut_s_stereo_44KHz.wav
2	19	2	2	1	C	2	0	843	0	Ⴔ	cut_oei_stereo_44KHz.wav
2	20	3	4	2	I	2	0	567	0	Ⴏ	cut_ei_stereo_44KHz.wav
2	21	4	4	2	I	1	0	1065	1	Ⴐ	cut_ei_stereo_44KHz.wav
2	22	1	2	0	C	2	1	1035	1	Ⴉ	cut_oei_stereo_44KHz.wav
2	23	2	1	0	C	1	0	640	0	Ⴔ	cut_s_stereo_44KHz.wav
2	24	3	3	2	I	2	0	664	1	Ⴏ	cut_j_stereo_44KHz.wav
2	25	4	3	2	I	2	0	610	0	Ⴐ	cut_j_stereo_44KHz.wav
2	26	1	2	0	C	2	1	584	1	Ⴉ	cut_oei_stereo_44KHz.wav
2	27	2	2	1	C	2	0	392	0	Ⴔ	cut_oei_stereo_44KHz.wav
2	28	3	4	2	I	2	0	481	0	Ⴏ	cut_ei_stereo_44KHz.wav
2	29	1	1	1	C	1	1	851	1	Ⴉ	cut_s_stereo_44KHz.wav
2	30	3	3	2	I	1	0	1136	0	Ⴏ	cut_j_stereo_44KHz.wav
2	31	2	1	0	C	2	1	766	1	Ⴔ	cut_s_stereo_44KHz.wav
2	32	4	4	2	I	1	0	787	0	Ⴐ	cut_ei_stereo_44KHz.wav
2	33	2	2	1	C	2	0	754	0	Ⴔ	cut_oei_stereo_44KHz.wav
2	34	3	4	2	I	1	0	580	1	Ⴏ	cut_ei_stereo_44KHz.wav
2	35	1	2	0	C	2	1	711	1	Ⴉ	cut_oei_stereo_44KHz.wav
2	36	4	3	2	I	1	0	605	1	Ⴐ	cut_j_stereo_44KHz.wav
2	37	3	3	2	I	2	0	689	1	Ⴏ	cut_j_stereo_44KHz.wav
2	38	1	1	1	C	1	1	759	1	Ⴉ	cut_s_stereo_44KHz.wav
2	39	4	4	2	I	2	0	946	1	Ⴐ	cut_ei_stereo_44KHz.wav
2	40	2	1	0	C	1	0	1168	0	Ⴔ	cut_s_stereo_44KHz.wav
2	41	4	4	2	I	2	0	761	1	Ⴐ	cut_ei_stereo_44KHz.wav
2	42	2	2	1	C	1	1	750	1	Ⴔ	cut_oei_stereo_44KHz.wav
2	43	3	3	2	I	2	0	1166	0	Ⴏ	cut_j_stereo_44KHz.wav
2	44	1	2	0	C	2	1	989	1	Ⴉ	cut_oei_stereo_44KHz.wav
2	45	2	1	0	C	2	1	1043	1	Ⴔ	cut_s_stereo_44KHz.wav
2	46	1	1	1	C	1	1	960	1	Ⴉ	cut_s_stereo_44KHz.wav
2	47	4	3	2	I	1	0	1180	0	Ⴐ	cut_j_stereo_44KHz.wav
2	48	3	4	2	I	1	0	973	1	Ⴏ	cut_ei_stereo_44KHz.wav
2	49	2	1	0	C	2	1	937	1	Ⴔ	cut_s_stereo_44KHz.wav
2	50	3	3	2	I	2	0	945	0	Ⴏ	cut_j_stereo_44KHz.wav
2	51	1	1	1	C	1	1	1007	1	Ⴉ	cut_s_stereo_44KHz.wav
2	52	4	4	2	I	2	0	707	1	Ⴐ	cut_ei_stereo_44KHz.wav
2	53	1	2	0	C	1	0	708	0	Ⴉ	cut_oei_stereo_44KHz.wav
2	54	2	2	1	C	1	1	812	1	Ⴔ	cut_oei_stereo_44KHz.wav
2	55	4	3	2	I	2	0	755	0	Ⴐ	cut_j_stereo_44KHz.wav
2	56	3	4	2	I	1	0	941	0	Ⴏ	cut_ei_stereo_44KHz.wav
2	57	1	2	0	C	2	1	1087	1	Ⴉ	cut_oei_stereo_44KHz.wav
2	58	3	4	2	I	1	0	838	1	Ⴏ	cut_ei_stereo_44KHz.wav
2	59	4	3	2	I	2	0	850	1	Ⴐ	cut_j_stereo_44KHz.wav
2	60	2	1	0	C	2	1	488	1	Ⴔ	cut_s_stereo_44KHz.wav
2	61	4	4	2	I	1	0	1141	0	Ⴐ	cut_ei_stereo_44KHz.wav
2	62	2	2	1	C	2	0	933	0	Ⴔ	cut_oei_stereo_44KHz.wav
2	63	3	3	2	I	1	0	882	0	Ⴏ	cut_j_stereo_44KHz.wav
2	64	1	1	1	C	1	1	1080	1	Ⴉ	cut_s_stereo_44KHz.wav
2	65	3	4	2	I	2	0	746	0	Ⴏ	cut_ei_stereo_44KHz.wav
2	66	1	1	1	C	1	1	813	1	Ⴉ	cut_s_stereo_44KHz.wav
2	67	4	3	2	I	2	0	442	0	Ⴐ	cut_j_stereo_44KHz.wav
2	68	2	1	0	C	2	1	1151	1	Ⴔ	cut_s_stereo_44KHz.wav
2	69	1	2	0	C	2	1	850	1	Ⴉ	cut_oei_stereo_44KHz.wav
2	70	2	2	1	C	1	1	1196	1	Ⴔ	cut_oei_stereo_44KHz.wav
2	71	4	4	2	I	2	0	1005	1	Ⴐ	cut_ei_stereo_44KHz.wav
2	72	3	3	2	I	1	0	717	0	Ⴏ	cut_j_stereo_44KHz.wav
2	73	1	2	0	C	2	1	624	1	Ⴉ	cut_oei_stereo_44KHz.wav
2	74	3	4	2	I	2	0	645	0	Ⴏ	cut_ei_stereo_44KHz.wav
2	75	4	3	2	I	2	0	1324	0	Ⴐ	cut_j_stereo_44KHz.wav
2	76	2	1	0	C	2	1	763	1	Ⴔ	cut_s_stereo_44KHz.wav
2	77	3	3	2	I	2	0	893	1	Ⴏ	cut_j_stereo_44KHz.wav
2	78	4	4	2	I	1	0	1094	1	Ⴐ	cut_ei_stereo_44KHz.wav
2	79	1	1	1	C	1	1	1122	1	Ⴉ	cut_s_stereo_44KHz.wav
2	80	2	2	1	C	2	0	984	0	Ⴔ	cut_oei_stereo_44KHz.wav
2	81	1	2	0	C	2	1	821	1	Ⴉ	cut_oei_stereo_44KHz.wav
2	82	4	4	2	I	2	0	1315	1	Ⴐ	cut_ei_stereo_44KHz.wav
2	83	3	4	2	I	1	0	772	0	Ⴏ	cut_ei_stereo_44KHz.wav
2	84	2	2	1	C	2	0	1082	0	Ⴔ	cut_oei_stereo_44KHz.wav
2	85	4	3	2	I	2	0	931	0	Ⴐ	cut_j_stereo_44KHz.wav
2	86	3	3	2	I	2	0	661	0	Ⴏ	cut_j_stereo_44KHz.wav
2	87	1	1	1	C	2	0	625	0	Ⴉ	cut_s_stereo_44KHz.wav
2	88	2	1	0	C	2	1	679	1	Ⴔ	cut_s_stereo_44KHz.wav
2	89	4	4	2	I	2	0	834	0	Ⴐ	cut_ei_stereo_44KHz.wav
2	90	2	2	1	C	2	0	633	0	Ⴔ	cut_oei_stereo_44KHz.wav
2	91	1	2	0	C	2	1	754	1	Ⴉ	cut_oei_stereo_44KHz.wav
2	92	3	3	2	I	2	0	1076	1	Ⴏ	cut_j_stereo_44KHz.wav
2	93	1	1	1	C	2	0	1247	0	Ⴉ	cut_s_stereo_44KHz.wav
2	94	3	4	2	I	2	0	740	0	Ⴏ	cut_ei_stereo_44KHz.wav
2	95	4	3	2	I	2	0	808	0	Ⴐ	cut_j_stereo_44KHz.wav
2	96	2	1	0	C	1	0	1040	0	Ⴔ	cut_s_stereo_44KHz.wav
2	97	4	3	2	I	2	0	757	1	Ⴐ	cut_j_stereo_44KHz.wav
2	98	3	4	2	I	2	0	828	1	Ⴏ	cut_ei_stereo_44KHz.wav
2	99	1	1	1	C	1	1	1033	1	Ⴉ	cut_s_stereo_44KHz.wav
2	100	2	1	0	C	2	1	624	1	Ⴔ	cut_s_stereo_44KHz.wav
2	101	1	2	0	C	2	1	927	1	Ⴉ	cut_oei_stereo_44KHz.wav
2	102	3	3	2	I	2	0	919	1	Ⴏ	cut_j_stereo_44KHz.wav
2	103	4	4	2	I	1	0	1005	1	Ⴐ	cut_ei_stereo_44KHz.wav
2	104	2	2	1	C	1	1	1017	1	Ⴔ	cut_oei_stereo_44KHz.wav
2	105	3	4	2	I	2	0	736	1	Ⴏ	cut_ei_stereo_44KHz.wav
2	106	1	1	1	C	1	1	1048	1	Ⴉ	cut_s_stereo_44KHz.wav
2	107	2	1	0	C	2	1	870	1	Ⴔ	cut_s_stereo_44KHz.wav
2	108	4	4	2	I	2	0	813	0	Ⴐ	cut_ei_stereo_44KHz.wav
2	109	2	2	1	C	2	0	602	0	Ⴔ	cut_oei_stereo_44KHz.wav
2	110	1	2	0	C	2	1	676	1	Ⴉ	cut_oei_stereo_44KHz.wav
2	111	4	3	2	I	2	0	989	0	Ⴐ	cut_j_stereo_44KHz.wav
2	112	3	3	2	I	2	0	670	1	Ⴏ	cut_j_stereo_44KHz.wav
2	113	2	2	1	C	1	1	918	1	Ⴔ	cut_oei_stereo_44KHz.wav
2	114	4	3	2	I	2	0	721	1	Ⴐ	cut_j_stereo_44KHz.wav
2	115	1	1	1	C	1	1	888	1	Ⴉ	cut_s_stereo_44KHz.wav
2	116	3	3	2	I	2	0	900	1	Ⴏ	cut_j_stereo_44KHz.wav
2	117	4	4	2	I	2	0	928	0	Ⴐ	cut_ei_stereo_44KHz.wav
2	118	2	1	0	C	2	1	718	1	Ⴔ	cut_s_stereo_44KHz.wav
2	119	3	4	2	I	2	0	598	1	Ⴏ	cut_ei_stereo_44KHz.wav
2	120	1	2	0	C	2	1	1129	1	Ⴉ	cut_oei_stereo_44KHz.wav
2	121	2	2	1	C	1	1	786	1	Ⴔ	cut_oei_stereo_44KHz.wav
2	122	1	2	0	C	2	1	933	1	Ⴉ	cut_oei_stereo_44KHz.wav
2	123	4	4	2	I	1	0	886	1	Ⴐ	cut_ei_stereo_44KHz.wav
2	124	3	4	2	I	2	0	800	1	Ⴏ	cut_ei_stereo_44KHz.wav
2	125	1	1	1	C	2	0	1399	0	Ⴉ	cut_s_stereo_44KHz.wav
2	126	3	3	2	I	2	0	1250	1	Ⴏ	cut_j_stereo_44KHz.wav
2	127	2	1	0	C	2	1	1032	1	Ⴔ	cut_s_stereo_44KHz.wav
2	128	4	3	2	I	2	0	727	0	Ⴐ	cut_j_stereo_44KHz.wav
2	129	3	4	2	I	2	0	678	1	Ⴏ	cut_ei_stereo_44KHz.wav
2	130	4	4	2	I	1	0	751	1	Ⴐ	cut_ei_stereo_44KHz.wav
2	131	2	2	1	C	2	0	653	0	Ⴔ	cut_oei_stereo_44KHz.wav
2	132	1	1	1	C	1	1	931	1	Ⴉ	cut_s_stereo_44KHz.wav
2	133	2	1	0	C	2	1	722	1	Ⴔ	cut_s_stereo_44KHz.wav
2	134	1	2	0	C	2	1	1197	1	Ⴉ	cut_oei_stereo_44KHz.wav
2	135	3	3	2	I	1	0	1420	0	Ⴏ	cut_j_stereo_44KHz.wav
2	136	4	3	2	I	2	0	702	1	Ⴐ	cut_j_stereo_44KHz.wav
2	137	1	2	0	C	2	1	630	1	Ⴉ	cut_oei_stereo_44KHz.wav
2	138	4	3	2	I	2	0	724	0	Ⴐ	cut_j_stereo_44KHz.wav
2	139	3	4	2	I	2	0	891	0	Ⴏ	cut_ei_stereo_44KHz.wav
2	140	2	1	0	C	2	1	839	1	Ⴔ	cut_s_stereo_44KHz.wav
2	141	1	1	1	C	1	1	770	1	Ⴉ	cut_s_stereo_44KHz.wav
2	142	3	3	2	I	2	0	1017	0	Ⴏ	cut_j_stereo_44KHz.wav
2	143	4	4	2	I	2	0	705	0	Ⴐ	cut_ei_stereo_44KHz.wav
2	144	2	2	1	C	1	1	917	1	Ⴔ	cut_oei_stereo_44KHz.wav
2	145	1	2	0	C	2	1	872	1	Ⴉ	cut_oei_stereo_44KHz.wav
2	146	4	4	2	I	1	0	864	1	Ⴐ	cut_ei_stereo_44KHz.wav
2	147	2	2	1	C	2	0	752	0	Ⴔ	cut_oei_stereo_44KHz.wav
2	148	3	3	2	I	1	0	949	1	Ⴏ	cut_j_stereo_44KHz.wav
2	149	2	1	0	C	2	1	801	1	Ⴔ	cut_s_stereo_44KHz.wav
2	150	1	1	1	C	1	1	715	1	Ⴉ	cut_s_stereo_44KHz.wav
2	151	3	4	2	I	2	0	955	1	Ⴏ	cut_ei_stereo_44KHz.wav
2	152	4	3	2	I	1	0	998	1	Ⴐ	cut_j_stereo_44KHz.wav
2	153	3	3	2	I	2	0	763	1	Ⴏ	cut_j_stereo_44KHz.wav
2	154	2	1	0	C	2	1	1118	1	Ⴔ	cut_s_stereo_44KHz.wav
2	155	4	4	2	I	2	0	964	1	Ⴐ	cut_ei_stereo_44KHz.wav
2	156	1	1	1	C	1	1	1261	1	Ⴉ	cut_s_stereo_44KHz.wav
2	157	2	2	1	C	1	1	954	1	Ⴔ	cut_oei_stereo_44KHz.wav
2	158	3	4	2	I	1	0	1149	1	Ⴏ	cut_ei_stereo_44KHz.wav
2	159	4	3	2	I	1	0	1437	0	Ⴐ	cut_j_stereo_44KHz.wav
2	160	1	2	0	C	2	1	920	1	Ⴉ	cut_oei_stereo_44KHz.wav
2	161	4	4	2	I	2	0	795	1	Ⴐ	cut_ei_stereo_44KHz.wav
2	162	3	3	2	I	1	0	1128	0	Ⴏ	cut_j_stereo_44KHz.wav
2	163	1	2	0	C	2	1	866	1	Ⴉ	cut_oei_stereo_44KHz.wav
2	164	2	2	1	C	1	1	732	1	Ⴔ	cut_oei_stereo_44KHz.wav
2	165	3	4	2	I	1	0	973	0	Ⴏ	cut_ei_stereo_44KHz.wav
2	166	2	1	0	C	2	1	806	1	Ⴔ	cut_s_stereo_44KHz.wav
2	167	4	3	2	I	2	0	944	0	Ⴐ	cut_j_stereo_44KHz.wav
2	168	1	1	1	C	1	1	723	1	Ⴉ	cut_s_stereo_44KHz.wav
2	169	3	3	2	I	2	0	716	0	Ⴏ	cut_j_stereo_44KHz.wav
2	170	1	2	0	C	2	1	880	1	Ⴉ	cut_oei_stereo_44KHz.wav
2	171	2	1	0	C	2	1	972	1	Ⴔ	cut_s_stereo_44KHz.wav
2	172	4	4	2	I	2	0	819	1	Ⴐ	cut_ei_stereo_44KHz.wav
2	173	2	2	1	C	1	1	850	1	Ⴔ	cut_oei_stereo_44KHz.wav
2	174	1	1	1	C	2	0	864	0	Ⴉ	cut_s_stereo_44KHz.wav
2	175	4	3	2	I	2	0	779	0	Ⴐ	cut_j_stereo_44KHz.wav
2	176	3	4	2	I	2	0	971	0	Ⴏ	cut_ei_stereo_44KHz.wav
2	177	1	2	0	C	2	1	1058	1	Ⴉ	cut_oei_stereo_44KHz.wav
2	178	4	4	2	I	2	0	924	0	Ⴐ	cut_ei_stereo_44KHz.wav
2	179	3	4	2	I	2	0	789	0	Ⴏ	cut_ei_stereo_44KHz.wav
2	180	2	2	1	C	2	0	752	0	Ⴔ	cut_oei_stereo_44KHz.wav
2	181	1	1	1	C	1	1	1147	1	Ⴉ	cut_s_stereo_44KHz.wav
2	182	3	3	2	I	2	0	984	1	Ⴏ	cut_j_stereo_44KHz.wav
2	183	4	3	2	I	2	0	818	0	Ⴐ	cut_j_stereo_44KHz.wav
2	184	2	1	0	C	2	1	660	1	Ⴔ	cut_s_stereo_44KHz.wav
2	185	1	2	0	C	2	1	697	1	Ⴉ	cut_oei_stereo_44KHz.wav
2	186	3	4	2	I	2	0	735	1	Ⴏ	cut_ei_stereo_44KHz.wav
2	187	2	2	1	C	1	1	1112	1	Ⴔ	cut_oei_stereo_44KHz.wav
2	188	4	4	2	I	2	0	972	1	Ⴐ	cut_ei_stereo_44KHz.wav
2	189	1	1	1	C	1	1	912	1	Ⴉ	cut_s_stereo_44KHz.wav
2	190	4	3	2	I	1	0	1070	1	Ⴐ	cut_j_stereo_44KHz.wav
2	191	3	3	2	I	1	0	1004	0	Ⴏ	cut_j_stereo_44KHz.wav
2	192	2	1	0	C	2	1	1393	1	Ⴔ	cut_s_stereo_44KHz.wav
2	193	1	2	0	C	2	1	976	1	Ⴉ	cut_oei_stereo_44KHz.wav
2	194	3	4	2	I	1	0	1086	1	Ⴏ	cut_ei_stereo_44KHz.wav
2	195	2	1	0	C	2	1	1036	1	Ⴔ	cut_s_stereo_44KHz.wav
2	196	4	3	2	I	2	0	794	0	Ⴐ	cut_j_stereo_44KHz.wav
2	197	3	3	2	I	1	0	633	0	Ⴏ	cut_j_stereo_44KHz.wav
2	198	4	4	2	I	2	0	882	1	Ⴐ	cut_ei_stereo_44KHz.wav
2	199	1	1	1	C	1	1	964	1	Ⴉ	cut_s_stereo_44KHz.wav
2	200	2	2	1	C	1	1	1039	1	Ⴔ	cut_oei_stereo_44KHz.wav
3	1	4	3	2	I	2	0	1303	0	Ⴌ	cut_g_stereo_44KHz.wav
3	2	2	2	1	C	2	0	819	0	Ⴕ	cut_l_stereo_44KHz.wav
3	3	1	1	1	C	2	0	1561	0	Ⴒ	cut_h_stereo_44KHz.wav
3	4	3	3	2	I	2	0	963	1	Ⴖ	cut_g_stereo_44KHz.wav
3	5	4	4	2	I	1	0	894	1	Ⴌ	cut_w_stereo_44KHz.wav
3	6	2	1	0	C	1	0	1159	0	Ⴕ	cut_h_stereo_44KHz.wav
3	7	1	2	0	C	2	1	823	1	Ⴒ	cut_l_stereo_44KHz.wav
3	8	3	4	2	I	2	0	1108	0	Ⴖ	cut_w_stereo_44KHz.wav
3	9	2	2	1	C	2	0	974	0	Ⴕ	cut_l_stereo_44KHz.wav
3	10	3	3	2	I	1	0	718	0	Ⴖ	cut_g_stereo_44KHz.wav
3	11	1	2	0	C	2	1	732	1	Ⴒ	cut_l_stereo_44KHz.wav
3	12	4	3	2	I	1	0	947	1	Ⴌ	cut_g_stereo_44KHz.wav
3	13	3	4	2	I	2	0	986	0	Ⴖ	cut_w_stereo_44KHz.wav
3	14	2	1	0	C	1	0	821	0	Ⴕ	cut_h_stereo_44KHz.wav
3	15	4	4	2	I	1	0	1210	1	Ⴌ	cut_w_stereo_44KHz.wav
3	16	1	1	1	C	1	1	1281	1	Ⴒ	cut_h_stereo_44KHz.wav
3	17	2	1	0	C	2	1	950	1	Ⴕ	cut_h_stereo_44KHz.wav
3	18	1	1	1	C	1	1	898	1	Ⴒ	cut_h_stereo_44KHz.wav
3	19	3	3	2	I	1	0	1146	0	Ⴖ	cut_g_stereo_44KHz.wav
3	20	4	4	2	I	1	0	1625	1	Ⴌ	cut_w_stereo_44KHz.wav
3	21	2	2	1	C	1	1	999	1	Ⴕ	cut_l_stereo_44KHz.wav
3	22	1	2	0	C	2	1	1110	1	Ⴒ	cut_l_stereo_44KHz.wav
3	23	4	3	2	I	1	0	985	1	Ⴌ	cut_g_stereo_44KHz.wav
3	24	3	4	2	I	1	0	861	0	Ⴖ	cut_w_stereo_44KHz.wav
3	25	1	2	0	C	2	1	987	1	Ⴒ	cut_l_stereo_44KHz.wav
3	26	3	4	2	I	2	0	965	1	Ⴖ	cut_w_stereo_44KHz.wav
3	27	2	2	1	C	1	1	1308	1	Ⴕ	cut_l_stereo_44KHz.wav
3	28	4	4	2	I	1	0	1157	0	Ⴌ	cut_w_stereo_44KHz.wav
3	29	3	3	2	I	1	0	946	0	Ⴖ	cut_g_stereo_44KHz.wav
3	30	4	3	2	I	2	0	1065	1	Ⴌ	cut_g_stereo_44KHz.wav
3	31	2	1	0	C	2	1	923	1	Ⴕ	cut_h_stereo_44KHz.wav
3	32	1	1	1	C	1	1	886	1	Ⴒ	cut_h_stereo_44KHz.wav
3	33	3	3	2	I	1	0	1084	1	Ⴖ	cut_g_stereo_44KHz.wav
3	34	4	4	2	I	1	0	953	1	Ⴌ	cut_w_stereo_44KHz.wav
3	35	1	1	1	C	1	1	1001	1	Ⴒ	cut_h_stereo_44KHz.wav
3	36	2	2	1	C	1	1	1007	1	Ⴕ	cut_l_stereo_44KHz.wav
3	37	1	2	0	C	2	1	736	1	Ⴒ	cut_l_stereo_44KHz.wav
3	38	4	3	2	I	1	0	1221	0	Ⴌ	cut_g_stereo_44KHz.wav
3	39	3	4	2	I	2	0	699	1	Ⴖ	cut_w_stereo_44KHz.wav
3	40	2	1	0	C	2	1	1150	1	Ⴕ	cut_h_stereo_44KHz.wav
3	41	4	4	2	I	1	0	827	0	Ⴌ	cut_w_stereo_44KHz.wav
3	42	3	4	2	I	2	0	708	0	Ⴖ	cut_w_stereo_44KHz.wav
3	43	2	1	0	C	2	1	1047	1	Ⴕ	cut_h_stereo_44KHz.wav
3	44	1	2	0	C	2	1	819	1	Ⴒ	cut_l_stereo_44KHz.wav
3	45	2	2	1	C	1	1	1666	1	Ⴕ	cut_l_stereo_44KHz.wav
3	46	4	3	2	I	2	0	903	0	Ⴌ	cut_g_stereo_44KHz.wav
3	47	3	3	2	I	1	0	1039	1	Ⴖ	cut_g_stereo_44KHz.wav
3	48	1	1	1	C	1	1	939	1	Ⴒ	cut_h_stereo_44KHz.wav
3	49	4	3	2	I	1	0	1048	1	Ⴌ	cut_g_stereo_44KHz.wav
3	50	3	4	2	I	2	0	974	0	Ⴖ	cut_w_stereo_44KHz.wav
3	51	1	2	0	C	2	1	1176	1	Ⴒ	cut_l_stereo_44KHz.wav
3	52	2	2	1	C	1	1	826	1	Ⴕ	cut_l_stereo_44KHz.wav
3	53	4	4	2	I	1	0	891	0	Ⴌ	cut_w_stereo_44KHz.wav
3	54	1	1	1	C	1	1	1005	1	Ⴒ	cut_h_stereo_44KHz.wav
3	55	3	3	2	I	1	0	900	0	Ⴖ	cut_g_stereo_44KHz.wav
3	56	2	1	0	C	2	1	1106	1	Ⴕ	cut_h_stereo_44KHz.wav
3	57	4	3	2	I	2	0	740	0	Ⴌ	cut_g_stereo_44KHz.wav
3	58	2	2	1	C	1	1	811	1	Ⴕ	cut_l_stereo_44KHz.wav
3	59	3	4	2	I	2	0	859	0	Ⴖ	cut_w_stereo_44KHz.wav
3	60	1	2	0	C	2	1	721	1	Ⴒ	cut_l_stereo_44KHz.wav
3	61	4	4	2	I	1	0	685	0	Ⴌ	cut_w_stereo_44KHz.wav
3	62	2	1	0	C	1	0	728	0	Ⴕ	cut_h_stereo_44KHz.wav
3	63	3	3	2	I	2	0	1165	0	Ⴖ	cut_g_stereo_44KHz.wav
3	64	1	1	1	C	1	1	926	1	Ⴒ	cut_h_stereo_44KHz.wav
3	65	3	3	2	I	2	0	1032	1	Ⴖ	cut_g_stereo_44KHz.wav
3	66	4	4	2	I	1	0	1230	1	Ⴌ	cut_w_stereo_44KHz.wav
3	67	1	2	0	C	2	1	765	1	Ⴒ	cut_l_stereo_44KHz.wav
3	68	2	2	1	C	1	1	819	1	Ⴕ	cut_l_stereo_44KHz.wav
3	69	3	4	2	I	1	0	891	1	Ⴖ	cut_w_stereo_44KHz.wav
3	70	2	1	0	C	2	1	1074	1	Ⴕ	cut_h_stereo_44KHz.wav
3	71	4	3	2	I	2	0	1284	1	Ⴌ	cut_g_stereo_44KHz.wav
3	72	1	1	1	C	1	1	788	1	Ⴒ	cut_h_stereo_44KHz.wav
3	73	2	2	1	C	1	1	1098	1	Ⴕ	cut_l_stereo_44KHz.wav
3	74	3	3	2	I	1	0	842	1	Ⴖ	cut_g_stereo_44KHz.wav
3	75	1	1	1	C	1	1	879	1	Ⴒ	cut_h_stereo_44KHz.wav
3	76	4	3	2	I	1	0	1299	0	Ⴌ	cut_g_stereo_44KHz.wav
3	77	3	4	2	I	1	0	925	1	Ⴖ	cut_w_stereo_44KHz.wav
3	78	2	1	0	C	1	0	934	0	Ⴕ	cut_h_stereo_44KHz.wav
3	79	1	2	0	C	2	1	730	1	Ⴒ	cut_l_stereo_44KHz.wav
3	80	4	4	2	I	1	0	873	0	Ⴌ	cut_w_stereo_44KHz.wav
3	81	3	4	2	I	1	0	901	0	Ⴖ	cut_w_stereo_44KHz.wav
3	82	4	3	2	I	2	0	1043	0	Ⴌ	cut_g_stereo_44KHz.wav
3	83	1	1	1	C	1	1	1150	1	Ⴒ	cut_h_stereo_44KHz.wav
3	84	2	1	0	C	1	0	905	0	Ⴕ	cut_h_stereo_44KHz.wav
3	85	1	2	0	C	2	1	753	1	Ⴒ	cut_l_stereo_44KHz.wav
3	86	4	4	2	I	1	0	1038	1	Ⴌ	cut_w_stereo_44KHz.wav
3	87	3	3	2	I	1	0	835	1	Ⴖ	cut_g_stereo_44KHz.wav
3	88	2	2	1	C	2	0	740	0	Ⴕ	cut_l_stereo_44KHz.wav
3	89	1	2	0	C	2	1	607	1	Ⴒ	cut_l_stereo_44KHz.wav
3	90	4	3	2	I	1	0	800	0	Ⴌ	cut_g_stereo_44KHz.wav
3	91	3	3	2	I	1	0	1341	0	Ⴖ	cut_g_stereo_44KHz.wav
3	92	2	1	0	C	2	1	803	1	Ⴕ	cut_h_stereo_44KHz.wav
3	93	1	1	1	C	1	1	781	1	Ⴒ	cut_h_stereo_44KHz.wav
3	94	2	2	1	C	1	1	867	1	Ⴕ	cut_l_stereo_44KHz.wav
3	95	4	4	2	I	2	0	851	1	Ⴌ	cut_w_stereo_44KHz.wav
3	96	3	4	2	I	1	0	559	1	Ⴖ	cut_w_stereo_44KHz.wav
3	97	1	2	0	C	2	1	391	1	Ⴒ	cut_l_stereo_44KHz.wav
3	98	2	1	0	C	2	1	897	1	Ⴕ	cut_h_stereo_44KHz.wav
3	99	4	3	2	I	1	0	736	0	Ⴌ	cut_g_stereo_44KHz.wav
3	100	3	3	2	I	2	0	950	1	Ⴖ	cut_g_stereo_44KHz.wav
3	101	4	4	2	I	1	0	855	1	Ⴌ	cut_w_stereo_44KHz.wav
3	102	1	1	1	C	1	1	1006	1	Ⴒ	cut_h_stereo_44KHz.wav
3	103	2	2	1	C	1	1	1031	1	Ⴕ	cut_l_stereo_44KHz.wav
3	104	3	4	2	I	1	0	934	0	Ⴖ	cut_w_stereo_44KHz.wav
3	105	4	4	2	I	1	0	809	0	Ⴌ	cut_w_stereo_44KHz.wav
3	106	3	3	2	I	1	0	787	0	Ⴖ	cut_g_stereo_44KHz.wav
3	107	1	1	1	C	1	1	979	1	Ⴒ	cut_h_stereo_44KHz.wav
3	108	2	2	1	C	1	1	889	1	Ⴕ	cut_l_stereo_44KHz.wav
3	109	4	3	2	I	1	0	923	0	Ⴌ	cut_g_stereo_44KHz.wav
3	110	1	2	0	C	2	1	617	1	Ⴒ	cut_l_stereo_44KHz.wav
3	111	3	4	2	I	1	0	918	1	Ⴖ	cut_w_stereo_44KHz.wav
3	112	2	1	0	C	1	0	733	0	Ⴕ	cut_h_stereo_44KHz.wav
3	113	4	3	2	I	1	0	750	0	Ⴌ	cut_g_stereo_44KHz.wav
3	114	1	2	0	C	2	1	733	1	Ⴒ	cut_l_stereo_44KHz.wav
3	115	2	1	0	C	1	0	580	0	Ⴕ	cut_h_stereo_44KHz.wav
3	116	3	3	2	I	2	0	661	1	Ⴖ	cut_g_stereo_44KHz.wav
3	117	1	1	1	C	1	1	466	1	Ⴒ	cut_h_stereo_44KHz.wav
3	118	3	4	2	I	1	0	795	1	Ⴖ	cut_w_stereo_44KHz.wav
3	119	2	2	1	C	1	1	733	1	Ⴕ	cut_l_stereo_44KHz.wav
3	120	4	4	2	I	1	0	1019	1	Ⴌ	cut_w_stereo_44KHz.wav
3	121	3	4	2	I	1	0	538	1	Ⴖ	cut_w_stereo_44KHz.wav
3	122	2	2	1	C	1	1	922	1	Ⴕ	cut_l_stereo_44KHz.wav
3	123	1	2	0	C	2	1	478	1	Ⴒ	cut_l_stereo_44KHz.wav
3	124	4	4	2	I	1	0	599	1	Ⴌ	cut_w_stereo_44KHz.wav
3	125	1	1	1	C	1	1	757	1	Ⴒ	cut_h_stereo_44KHz.wav
3	126	3	3	2	I	1	0	799	1	Ⴖ	cut_g_stereo_44KHz.wav
3	127	4	3	2	I	2	0	911	1	Ⴌ	cut_g_stereo_44KHz.wav
3	128	2	1	0	C	1	0	741	0	Ⴕ	cut_h_stereo_44KHz.wav
3	129	4	4	2	I	1	0	869	0	Ⴌ	cut_w_stereo_44KHz.wav
3	130	3	3	2	I	2	0	1064	0	Ⴖ	cut_g_stereo_44KHz.wav
3	131	2	1	0	C	2	1	937	1	Ⴕ	cut_h_stereo_44KHz.wav
3	132	1	1	1	C	1	1	688	1	Ⴒ	cut_h_stereo_44KHz.wav
3	133	2	2	1	C	1	1	713	1	Ⴕ	cut_l_stereo_44KHz.wav
3	134	1	2	0	C	1	0	802	0	Ⴒ	cut_l_stereo_44KHz.wav
3	135	4	3	2	I	1	0	1025	1	Ⴌ	cut_g_stereo_44KHz.wav
3	136	3	4	2	I	2	0	1074	1	Ⴖ	cut_w_stereo_44KHz.wav
3	137	2	2	1	C	1	1	815	1	Ⴕ	cut_l_stereo_44KHz.wav
3	138	1	2	0	C	2	1	1086	1	Ⴒ	cut_l_stereo_44KHz.wav
3	139	3	3	2	I	1	0	645	1	Ⴖ	cut_g_stereo_44KHz.wav
3	140	4	4	2	I	1	0	773	0	Ⴌ	cut_w_stereo_44KHz.wav
3	141	2	1	0	C	1	0	669	0	Ⴕ	cut_h_stereo_44KHz.wav
3	142	3	4	2	I	2	0	296	1	Ⴖ	cut_w_stereo_44KHz.wav
3	143	1	1	1	C	1	1	743	1	Ⴒ	cut_h_stereo_44KHz.wav
3	144	4	3	2	I	2	0	1457	1	Ⴌ	cut_g_stereo_44KHz.wav
3	145	3	3	2	I	1	0	669	0	Ⴖ	cut_g_stereo_44KHz.wav
3	146	2	1	0	C	1	0	897	0	Ⴕ	cut_h_stereo_44KHz.wav
3	147	4	4	2	I	2	0	967	0	Ⴌ	cut_w_stereo_44KHz.wav
3	148	1	1	1	C	1	1	722	1	Ⴒ	cut_h_stereo_44KHz.wav
3	149	4	3	2	I	1	0	862	1	Ⴌ	cut_g_stereo_44KHz.wav
3	150	2	2	1	C	1	1	891	1	Ⴕ	cut_l_stereo_44KHz.wav
3	151	3	4	2	I	2	0	1005	1	Ⴖ	cut_w_stereo_44KHz.wav
3	152	1	2	0	C	2	1	1027	1	Ⴒ	cut_l_stereo_44KHz.wav
3	153	2	2	1	C	1	1	790	1	Ⴕ	cut_l_stereo_44KHz.wav
3	154	4	3	2	I	2	0	1106	0	Ⴌ	cut_g_stereo_44KHz.wav
3	155	1	2	0	C	2	1	1353	1	Ⴒ	cut_l_stereo_44KHz.wav
3	156	3	3	2	I	1	0	746	0	Ⴖ	cut_g_stereo_44KHz.wav
3	157	4	4	2	I	1	0	892	1	Ⴌ	cut_w_stereo_44KHz.wav
3	158	2	1	0	C	1	0	788	0	Ⴕ	cut_h_stereo_44KHz.wav
3	159	3	4	2	I	1	0	601	0	Ⴖ	cut_w_stereo_44KHz.wav
3	160	1	1	1	C	1	1	860	1	Ⴒ	cut_h_stereo_44KHz.wav
3	161	4	4	2	I	1	0	837	1	Ⴌ	cut_w_stereo_44KHz.wav
3	162	2	2	1	C	1	1	1105	1	Ⴕ	cut_l_stereo_44KHz.wav
3	163	1	2	0	C	2	1	696	1	Ⴒ	cut_l_stereo_44KHz.wav
3	164	3	4	2	I	1	0	721	0	Ⴖ	cut_w_stereo_44KHz.wav
3	165	4	3	2	I	1	0	1530	1	Ⴌ	cut_g_stereo_44KHz.wav
3	166	1	1	1	C	1	1	836	1	Ⴒ	cut_h_stereo_44KHz.wav
3	167	3	3	2	I	1	0	855	0	Ⴖ	cut_g_stereo_44KHz.wav
3	168	2	1	0	C	1	0	625	0	Ⴕ	cut_h_stereo_44KHz.wav
3	169	4	3	2	I	1	0	907	0	Ⴌ	cut_g_stereo_44KHz.wav
3	170	1	2	0	C	2	1	638	1	Ⴒ	cut_l_stereo_44KHz.wav
3	171	3	3	2	I	1	0	661	1	Ⴖ	cut_g_stereo_44KHz.wav
3	172	2	2	1	C	1	1	819	1	Ⴕ	cut_l_stereo_44KHz.wav
3	173	4	4	2	I	1	0	923	1	Ⴌ	cut_w_stereo_44KHz.wav
3	174	3	4	2	I	1	0	707	0	Ⴖ	cut_w_stereo_44KHz.wav
3	175	1	1	1	C	1	1	807	1	Ⴒ	cut_h_stereo_44KHz.wav
3	176	2	1	0	C	1	0	639	0	Ⴕ	cut_h_stereo_44KHz.wav
3	177	3	4	2	I	2	0	732	0	Ⴖ	cut_w_stereo_44KHz.wav
3	178	2	1	0	C	1	0	740	0	Ⴕ	cut_h_stereo_44KHz.wav
3	179	1	1	1	C	1	1	980	1	Ⴒ	cut_h_stereo_44KHz.wav
3	180	4	4	2	I	1	0	1285	0	Ⴌ	cut_w_stereo_44KHz.wav
3	181	1	2	0	C	2	1	778	1	Ⴒ	cut_l_stereo_44KHz.wav
3	182	3	3	2	I	1	0	640	1	Ⴖ	cut_g_stereo_44KHz.wav
3	183	4	3	2	I	1	0	864	0	Ⴌ	cut_g_stereo_44KHz.wav
3	184	2	2	1	C	1	1	940	1	Ⴕ	cut_l_stereo_44KHz.wav
3	185	1	2	0	C	2	1	981	1	Ⴒ	cut_l_stereo_44KHz.wav
3	186	3	4	2	I	2	0	1196	1	Ⴖ	cut_w_stereo_44KHz.wav
3	187	2	2	1	C	1	1	890	1	Ⴕ	cut_l_stereo_44KHz.wav
3	188	4	3	2	I	1	0	1121	0	Ⴌ	cut_g_stereo_44KHz.wav
3	189	1	1	1	C	1	1	970	1	Ⴒ	cut_h_stereo_44KHz.wav
3	190	2	1	0	C	2	1	1143	1	Ⴕ	cut_h_stereo_44KHz.wav
3	191	4	4	2	I	1	0	976	1	Ⴌ	cut_w_stereo_44KHz.wav
3	192	3	3	2	I	1	0	1016	0	Ⴖ	cut_g_stereo_44KHz.wav
3	193	1	2	0	C	2	1	599	1	Ⴒ	cut_l_stereo_44KHz.wav
3	194	2	1	0	C	1	0	944	0	Ⴕ	cut_h_stereo_44KHz.wav
3	195	3	3	2	I	2	0	903	1	Ⴖ	cut_g_stereo_44KHz.wav
3	196	4	4	2	I	1	0	1082	0	Ⴌ	cut_w_stereo_44KHz.wav
3	197	1	1	1	C	1	1	944	1	Ⴒ	cut_h_stereo_44KHz.wav
3	198	4	3	2	I	1	0	1464	1	Ⴌ	cut_g_stereo_44KHz.wav
3	199	2	2	1	C	1	1	951	1	Ⴕ	cut_l_stereo_44KHz.wav
3	200	3	4	2	I	1	0	1272	0	Ⴖ	cut_w_stereo_44KHz.wav
4	1	2	1	0	C	2	1	1378	1	Ⴡ	cut_r_stereo_44KHz.wav
4	2	4	3	2	I	1	0	897	0	Ⴜ	cut_ui_stereo_44KHz.wav
4	3	3	3	2	I	2	0	861	0	Ⴁ	cut_ui_stereo_44KHz.wav
4	4	1	2	0	C	1	0	753	0	Ⴂ	cut_f_stereo_44KHz.wav
4	5	4	4	2	I	2	0	559	1	Ⴜ	cut_n_stereo_44KHz.wav
4	6	1	1	1	C	1	1	509	1	Ⴂ	cut_r_stereo_44KHz.wav
4	7	3	4	2	I	2	0	505	0	Ⴁ	cut_n_stereo_44KHz.wav
4	8	2	2	1	C	1	1	519	1	Ⴡ	cut_f_stereo_44KHz.wav
4	9	3	4	2	I	2	0	432	0	Ⴁ	cut_n_stereo_44KHz.wav
4	10	1	2	0	C	2	1	923	1	Ⴂ	cut_f_stereo_44KHz.wav
4	11	4	4	2	I	1	0	784	0	Ⴜ	cut_n_stereo_44KHz.wav
4	12	2	1	0	C	2	1	695	1	Ⴡ	cut_r_stereo_44KHz.wav
4	13	1	1	1	C	1	1	802	1	Ⴂ	cut_r_stereo_44KHz.wav
4	14	3	3	2	I	2	0	802	1	Ⴁ	cut_ui_stereo_44KHz.wav
4	15	4	3	2	I	1	0	705	0	Ⴜ	cut_ui_stereo_44KHz.wav
4	16	2	2	1	C	1	1	920	1	Ⴡ	cut_f_stereo_44KHz.wav
4	17	3	3	2	I	2	0	839	1	Ⴁ	cut_ui_stereo_44KHz.wav
4	18	4	4	2	I	1	0	942	0	Ⴜ	cut_n_stereo_44KHz.wav
4	19	1	1	1	C	1	1	899	1	Ⴂ	cut_r_stereo_44KHz.wav
4	20	2	1	0	C	2	1	1065	1	Ⴡ	cut_r_stereo_44KHz.wav
4	21	4	3	2	I	2	0	874	1	Ⴜ	cut_ui_stereo_44KHz.wav
4	22	2	2	1	C	1	1	707	1	Ⴡ	cut_f_stereo_44KHz.wav
4	23	3	4	2	I	1	0	1834	1	Ⴁ	cut_n_stereo_44KHz.wav
4	24	1	2	0	C	1	0	845	0	Ⴂ	cut_f_stereo_44KHz.wav
4	25	4	3	2	I	2	0	803	1	Ⴜ	cut_ui_stereo_44KHz.wav
4	26	2	2	1	C	1	1	888	1	Ⴡ	cut_f_stereo_44KHz.wav
4	27	1	1	1	C	1	1	1139	1	Ⴂ	cut_r_stereo_44KHz.wav
4	28	3	3	2	I	1	0	1025	0	Ⴁ	cut_ui_stereo_44KHz.wav
4	29	4	4	2	I	2	0	1034	1	Ⴜ	cut_n_stereo_44KHz.wav
4	30	3	4	2	I	2	0	1115	1	Ⴁ	cut_n_stereo_44KHz.wav
4	31	2	1	0	C	2	1	782	1	Ⴡ	cut_r_stereo_44KHz.wav
4	32	1	2	0	C	1	0	666	0	Ⴂ	cut_f_stereo_44KHz.wav
4	33	4	3	2	I	2	0	811	0	Ⴜ	cut_ui_stereo_44KHz.wav
4	34	3	3	2	I	1	0	1014	1	Ⴁ	cut_ui_stereo_44KHz.wav
4	35	1	1	1	C	1	1	912	1	Ⴂ	cut_r_stereo_44KHz.wav
4	36	2	2	1	C	1	1	1009	1	Ⴡ	cut_f_stereo_44KHz.wav
4	37	1	2	0	C	1	0	784	0	Ⴂ	cut_f_stereo_44KHz.wav
4	38	3	4	2	I	1	0	1925	0	Ⴁ	cut_n_stereo_44KHz.wav
4	39	2	1	0	C	2	1	697	1	Ⴡ	cut_r_stereo_44KHz.wav
4	40	4	4	2	I	1	0	948	1	Ⴜ	cut_n_stereo_44KHz.wav
4	41	1	2	0	C	1	0	858	0	Ⴂ	cut_f_stereo_44KHz.wav
4	42	2	2	1	C	1	1	823	1	Ⴡ	cut_f_stereo_44KHz.wav
4	43	4	4	2	I	2	0	870	0	Ⴜ	cut_n_stereo_44KHz.wav
4	44	3	4	2	I	2	0	782	1	Ⴁ	cut_n_stereo_44KHz.wav
4	45	1	1	1	C	1	1	736	1	Ⴂ	cut_r_stereo_44KHz.wav
4	46	2	1	0	C	2	1	1285	1	Ⴡ	cut_r_stereo_44KHz.wav
4	47	3	3	2	I	2	0	1007	1	Ⴁ	cut_ui_stereo_44KHz.wav
4	48	4	3	2	I	2	0	846	1	Ⴜ	cut_ui_stereo_44KHz.wav
4	49	2	2	1	C	1	1	703	1	Ⴡ	cut_f_stereo_44KHz.wav
4	50	4	4	2	I	2	0	1353	1	Ⴜ	cut_n_stereo_44KHz.wav
4	51	3	3	2	I	2	0	868	0	Ⴁ	cut_ui_stereo_44KHz.wav
4	52	1	1	1	C	1	1	1168	1	Ⴂ	cut_r_stereo_44KHz.wav
4	53	2	1	0	C	2	1	864	1	Ⴡ	cut_r_stereo_44KHz.wav
4	54	4	3	2	I	2	0	1067	1	Ⴜ	cut_ui_stereo_44KHz.wav
4	55	3	4	2	I	1	0	1653	1	Ⴁ	cut_n_stereo_44KHz.wav
4	56	1	2	0	C	1	0	798	0	Ⴂ	cut_f_stereo_44KHz.wav
4	57	4	3	2	I	2	0	864	1	Ⴜ	cut_ui_stereo_44KHz.wav
4	58	1	1	1	C	1	1	784	1	Ⴂ	cut_r_stereo_44KHz.wav
4	59	3	4	2	I	2	0	1211	0	Ⴁ	cut_n_stereo_44KHz.wav
4	60	2	2	1	C	1	1	742	1	Ⴡ	cut_f_stereo_44KHz.wav
4	61	4	4	2	I	2	0	794	0	Ⴜ	cut_n_stereo_44KHz.wav
4	62	1	2	0	C	1	0	513	0	Ⴂ	cut_f_stereo_44KHz.wav
4	63	2	1	0	C	2	1	558	1	Ⴡ	cut_r_stereo_44KHz.wav
4	64	3	3	2	I	2	0	871	0	Ⴁ	cut_ui_stereo_44KHz.wav
4	65	2	2	1	C	1	1	788	1	Ⴡ	cut_f_stereo_44KHz.wav
4	66	3	3	2	I	2	0	578	0	Ⴁ	cut_ui_stereo_44KHz.wav
4	67	4	4	2	I	2	0	888	1	Ⴜ	cut_n_stereo_44KHz.wav
4	68	1	1	1	C	2	0	720	0	Ⴂ	cut_r_stereo_44KHz.wav
4	69	2	1	0	C	1	0	674	0	Ⴡ	cut_r_stereo_44KHz.wav
4	70	4	3	2	I	2	0	923	0	Ⴜ	cut_ui_stereo_44KHz.wav
4	71	1	2	0	C	1	0	998	0	Ⴂ	cut_f_stereo_44KHz.wav
4	72	3	4	2	I	2	0	1016	0	Ⴁ	cut_n_stereo_44KHz.wav
4	73	2	2	1	C	1	1	1305	1	Ⴡ	cut_f_stereo_44KHz.wav
4	74	4	4	2	I	1	0	1016	1	Ⴜ	cut_n_stereo_44KHz.wav
4	75	1	2	0	C	1	0	1388	0	Ⴂ	cut_f_stereo_44KHz.wav
4	76	3	4	2	I	1	0	892	1	Ⴁ	cut_n_stereo_44KHz.wav
4	77	1	1	1	C	1	1	1315	1	Ⴂ	cut_r_stereo_44KHz.wav
4	78	3	3	2	I	1	0	1262	1	Ⴁ	cut_ui_stereo_44KHz.wav
4	79	4	3	2	I	2	0	1090	1	Ⴜ	cut_ui_stereo_44KHz.wav
4	80	2	1	0	C	2	1	919	1	Ⴡ	cut_r_stereo_44KHz.wav
4	81	3	4	2	I	1	0	828	0	Ⴁ	cut_n_stereo_44KHz.wav
4	82	4	3	2	I	2	0	901	1	Ⴜ	cut_ui_stereo_44KHz.wav
4	83	1	2	0	C	1	0	696	0	Ⴂ	cut_f_stereo_44KHz.wav
4	84	2	2	1	C	1	1	861	1	Ⴡ	cut_f_stereo_44KHz.wav
4	85	4	4	2	I	2	0	1337	0	Ⴜ	cut_n_stereo_44KHz.wav
4	86	1	1	1	C	1	1	799	1	Ⴂ	cut_r_stereo_44KHz.wav
4	87	2	1	0	C	2	1	853	1	Ⴡ	cut_r_stereo_44KHz.wav
4	88	3	3	2	I	1	0	890	0	Ⴁ	cut_ui_stereo_44KHz.wav
4	89	4	3	2	I	1	0	1163	0	Ⴜ	cut_ui_stereo_44KHz.wav
4	90	1	2	0	C	2	1	1040	1	Ⴂ	cut_f_stereo_44KHz.wav
4	91	2	1	0	C	2	1	844	1	Ⴡ	cut_r_stereo_44KHz.wav
4	92	3	4	2	I	2	0	988	1	Ⴁ	cut_n_stereo_44KHz.wav
4	93	2	2	1	C	1	1	904	1	Ⴡ	cut_f_stereo_44KHz.wav
4	94	3	3	2	I	1	0	1010	1	Ⴁ	cut_ui_stereo_44KHz.wav
4	95	1	1	1	C	1	1	1518	1	Ⴂ	cut_r_stereo_44KHz.wav
4	96	4	4	2	I	2	0	1099	0	Ⴜ	cut_n_stereo_44KHz.wav
4	97	3	3	2	I	1	0	1766	0	Ⴁ	cut_ui_stereo_44KHz.wav
4	98	4	3	2	I	2	0	783	1	Ⴜ	cut_ui_stereo_44KHz.wav
4	99	2	1	0	C	2	1	1342	1	Ⴡ	cut_r_stereo_44KHz.wav
4	100	1	1	1	C	1	1	1149	1	Ⴂ	cut_r_stereo_44KHz.wav
4	101	2	2	1	C	1	1	1012	1	Ⴡ	cut_f_stereo_44KHz.wav
4	102	1	2	0	C	2	1	1493	1	Ⴂ	cut_f_stereo_44KHz.wav
4	103	3	4	2	I	2	0	951	1	Ⴁ	cut_n_stereo_44KHz.wav
4	104	4	4	2	I	2	0	745	1	Ⴜ	cut_n_stereo_44KHz.wav
4	105	3	3	2	I	1	0	1157	1	Ⴁ	cut_ui_stereo_44KHz.wav
4	106	2	2	1	C	1	1	1385	1	Ⴡ	cut_f_stereo_44KHz.wav
4	107	1	1	1	C	1	1	1409	1	Ⴂ	cut_r_stereo_44KHz.wav
4	108	4	3	2	I	1	0	1337	0	Ⴜ	cut_ui_stereo_44KHz.wav
4	109	2	1	0	C	2	1	1006	1	Ⴡ	cut_r_stereo_44KHz.wav
4	110	3	4	2	I	2	0	961	0	Ⴁ	cut_n_stereo_44KHz.wav
4	111	1	2	0	C	2	1	1126	1	Ⴂ	cut_f_stereo_44KHz.wav
4	112	4	4	2	I	2	0	829	1	Ⴜ	cut_n_stereo_44KHz.wav
4	113	2	2	1	C	1	1	972	1	Ⴡ	cut_f_stereo_44KHz.wav
4	114	3	3	2	I	1	0	1125	0	Ⴁ	cut_ui_stereo_44KHz.wav
4	115	1	2	0	C	2	1	1485	1	Ⴂ	cut_f_stereo_44KHz.wav
4	116	4	3	2	I	1	0	868	0	Ⴜ	cut_ui_stereo_44KHz.wav
4	117	2	1	0	C	2	1	929	1	Ⴡ	cut_r_stereo_44KHz.wav
4	118	3	4	2	I	1	0	1071	0	Ⴁ	cut_n_stereo_44KHz.wav
4	119	1	1	1	C	1	1	924	1	Ⴂ	cut_r_stereo_44KHz.wav
4	120	4	4	2	I	2	0	765	0	Ⴜ	cut_n_stereo_44KHz.wav
4	121	2	1	0	C	2	1	726	1	Ⴡ	cut_r_stereo_44KHz.wav
4	122	3	4	2	I	1	0	1000	0	Ⴁ	cut_n_stereo_44KHz.wav
4	123	1	2	0	C	2	1	908	1	Ⴂ	cut_f_stereo_44KHz.wav
4	124	4	4	2	I	2	0	1204	1	Ⴜ	cut_n_stereo_44KHz.wav
4	125	2	2	1	C	1	1	1023	1	Ⴡ	cut_f_stereo_44KHz.wav
4	126	4	3	2	I	2	0	1399	0	Ⴜ	cut_ui_stereo_44KHz.wav
4	127	1	1	1	C	1	1	1537	1	Ⴂ	cut_r_stereo_44KHz.wav
4	128	3	3	2	I	1	0	1058	1	Ⴁ	cut_ui_stereo_44KHz.wav
4	129	1	1	1	C	1	1	899	1	Ⴂ	cut_r_stereo_44KHz.wav
4	130	2	1	0	C	2	1	895	1	Ⴡ	cut_r_stereo_44KHz.wav
4	131	4	4	2	I	2	0	987	0	Ⴜ	cut_n_stereo_44KHz.wav
4	132	3	4	2	I	1	0	1061	1	Ⴁ	cut_n_stereo_44KHz.wav
4	133	4	3	2	I	2	0	1311	1	Ⴜ	cut_ui_stereo_44KHz.wav
4	134	1	2	0	C	2	1	1239	1	Ⴂ	cut_f_stereo_44KHz.wav
4	135	3	3	2	I	1	0	1588	0	Ⴁ	cut_ui_stereo_44KHz.wav
4	136	2	2	1	C	1	1	1051	1	Ⴡ	cut_f_stereo_44KHz.wav
4	137	3	4	2	I	2	0	1030	0	Ⴁ	cut_n_stereo_44KHz.wav
4	138	4	4	2	I	2	0	1823	0	Ⴜ	cut_n_stereo_44KHz.wav
4	139	2	2	1	C	1	1	1055	1	Ⴡ	cut_f_stereo_44KHz.wav
4	140	1	2	0	C	2	1	1684	1	Ⴂ	cut_f_stereo_44KHz.wav
4	141	3	3	2	I	1	0	994	1	Ⴁ	cut_ui_stereo_44KHz.wav
4	142	4	3	2	I	1	0	559	1	Ⴜ	cut_ui_stereo_44KHz.wav
4	143	1	1	1	C	1	1	899	1	Ⴂ	cut_r_stereo_44KHz.wav
4	144	2	1	0	C	2	1	722	1	Ⴡ	cut_r_stereo_44KHz.wav
4	145	1	1	1	C	1	1	926	1	Ⴂ	cut_r_stereo_44KHz.wav
4	146	2	2	1	C	1	1	1169	1	Ⴡ	cut_f_stereo_44KHz.wav
4	147	4	3	2	I	2	0	1173	0	Ⴜ	cut_ui_stereo_44KHz.wav
4	148	3	3	2	I	1	0	1166	1	Ⴁ	cut_ui_stereo_44KHz.wav
4	149	4	4	2	I	2	0	1008	0	Ⴜ	cut_n_stereo_44KHz.wav
4	150	3	4	2	I	1	0	1068	0	Ⴁ	cut_n_stereo_44KHz.wav
4	151	2	1	0	C	2	1	997	1	Ⴡ	cut_r_stereo_44KHz.wav
4	152	1	2	0	C	2	1	1276	1	Ⴂ	cut_f_stereo_44KHz.wav
4	153	3	4	2	I	2	0	953	0	Ⴁ	cut_n_stereo_44KHz.wav
4	154	1	2	0	C	2	1	829	1	Ⴂ	cut_f_stereo_44KHz.wav
4	155	4	3	2	I	2	0	615	0	Ⴜ	cut_ui_stereo_44KHz.wav
4	156	2	1	0	C	2	1	728	1	Ⴡ	cut_r_stereo_44KHz.wav
4	157	3	3	2	I	2	0	842	1	Ⴁ	cut_ui_stereo_44KHz.wav
4	158	1	1	1	C	1	1	865	1	Ⴂ	cut_r_stereo_44KHz.wav
4	159	4	4	2	I	1	0	1011	0	Ⴜ	cut_n_stereo_44KHz.wav
4	160	2	2	1	C	1	1	974	1	Ⴡ	cut_f_stereo_44KHz.wav
4	161	3	3	2	I	1	0	1001	1	Ⴁ	cut_ui_stereo_44KHz.wav
4	162	4	4	2	I	2	0	874	0	Ⴜ	cut_n_stereo_44KHz.wav
4	163	2	1	0	C	2	1	788	1	Ⴡ	cut_r_stereo_44KHz.wav
4	164	1	2	0	C	1	0	1482	0	Ⴂ	cut_f_stereo_44KHz.wav
4	165	4	3	2	I	2	0	852	1	Ⴜ	cut_ui_stereo_44KHz.wav
4	166	1	1	1	C	1	1	859	1	Ⴂ	cut_r_stereo_44KHz.wav
4	167	2	2	1	C	1	1	997	1	Ⴡ	cut_f_stereo_44KHz.wav
4	168	3	4	2	I	2	0	1031	0	Ⴁ	cut_n_stereo_44KHz.wav
4	169	2	2	1	C	1	1	873	1	Ⴡ	cut_f_stereo_44KHz.wav
4	170	1	1	1	C	1	1	1395	1	Ⴂ	cut_r_stereo_44KHz.wav
4	171	4	3	2	I	1	0	976	0	Ⴜ	cut_ui_stereo_44KHz.wav
4	172	3	3	2	I	1	0	945	1	Ⴁ	cut_ui_stereo_44KHz.wav
4	173	4	4	2	I	1	0	1316	1	Ⴜ	cut_n_stereo_44KHz.wav
4	174	2	1	0	C	2	1	1000	1	Ⴡ	cut_r_stereo_44KHz.wav
4	175	1	2	0	C	0	0	0	0	Ⴂ	cut_f_stereo_44KHz.wav
4	176	3	4	2	I	1	0	1066	1	Ⴁ	cut_n_stereo_44KHz.wav
4	177	4	3	2	I	2	0	824	1	Ⴜ	cut_ui_stereo_44KHz.wav
4	178	3	3	2	I	1	0	463	0	Ⴁ	cut_ui_stereo_44KHz.wav
4	179	2	2	1	C	1	1	1014	1	Ⴡ	cut_f_stereo_44KHz.wav
4	180	1	2	0	C	2	1	1255	1	Ⴂ	cut_f_stereo_44KHz.wav
4	181	3	4	2	I	2	0	956	1	Ⴁ	cut_n_stereo_44KHz.wav
4	182	4	4	2	I	1	0	743	0	Ⴜ	cut_n_stereo_44KHz.wav
4	183	2	1	0	C	1	0	958	0	Ⴡ	cut_r_stereo_44KHz.wav
4	184	1	1	1	C	2	0	759	0	Ⴂ	cut_r_stereo_44KHz.wav
4	185	3	3	2	I	2	0	789	1	Ⴁ	cut_ui_stereo_44KHz.wav
4	186	1	1	1	C	1	1	1269	1	Ⴂ	cut_r_stereo_44KHz.wav
4	187	4	4	2	I	2	0	905	1	Ⴜ	cut_n_stereo_44KHz.wav
4	188	2	1	0	C	2	1	875	1	Ⴡ	cut_r_stereo_44KHz.wav
4	189	4	3	2	I	1	0	1271	0	Ⴜ	cut_ui_stereo_44KHz.wav
4	190	2	2	1	C	1	1	971	1	Ⴡ	cut_f_stereo_44KHz.wav
4	191	3	4	2	I	2	0	1066	1	Ⴁ	cut_n_stereo_44KHz.wav
4	192	1	2	0	C	1	0	775	0	Ⴂ	cut_f_stereo_44KHz.wav
4	193	4	3	2	I	1	0	742	1	Ⴜ	cut_ui_stereo_44KHz.wav
4	194	3	4	2	I	2	0	706	0	Ⴁ	cut_n_stereo_44KHz.wav
4	195	1	2	0	C	1	0	655	0	Ⴂ	cut_f_stereo_44KHz.wav
4	196	2	2	1	C	2	0	580	0	Ⴡ	cut_f_stereo_44KHz.wav
4	197	4	4	2	I	2	0	816	1	Ⴜ	cut_n_stereo_44KHz.wav
4	198	1	1	1	C	1	1	1166	1	Ⴂ	cut_r_stereo_44KHz.wav
4	199	2	1	0	C	2	1	964	1	Ⴡ	cut_r_stereo_44KHz.wav
4	200	3	3	2	I	1	0	1073	0	Ⴁ	cut_ui_stereo_44KHz.wav
