block	trial	Vstim	Astim	match	C/I	resp	.result	RT	fb	V-file	A-file
RL

0	1	1	1	1	C	0	0	0	0	Ⴞ	cut_ee_stereo_44KHz.wav
0	2	1	2	0	C	1	0	1746	0	Ⴞ	cut_eeuw_stereo_44KHz.wav
0	3	2	4	0	C	1	0	1247	0	Ⴉ	cut_g_stereo_44KHz.wav
0	4	2	3	1	C	1	1	1353	1	Ⴉ	cut_oo_stereo_44KHz.wav
0	5	1	2	0	C	1	0	1883	0	Ⴞ	cut_eeuw_stereo_44KHz.wav
0	6	2	4	0	C	1	0	1117	0	Ⴉ	cut_g_stereo_44KHz.wav
0	7	1	1	1	C	1	1	879	1	Ⴞ	cut_ee_stereo_44KHz.wav
0	8	2	3	1	C	2	0	1677	0	Ⴉ	cut_oo_stereo_44KHz.wav
0	9	2	3	1	C	2	0	1302	0	Ⴉ	cut_oo_stereo_44KHz.wav
0	10	1	2	0	C	1	0	1640	0	Ⴞ	cut_eeuw_stereo_44KHz.wav
0	11	2	4	0	C	1	0	1500	0	Ⴉ	cut_g_stereo_44KHz.wav
0	12	1	1	1	C	1	1	1349	1	Ⴞ	cut_ee_stereo_44KHz.wav
0	13	1	2	0	C	1	0	1079	0	Ⴞ	cut_eeuw_stereo_44KHz.wav
0	14	1	1	1	C	2	0	624	0	Ⴞ	cut_ee_stereo_44KHz.wav
0	15	2	3	1	C	2	0	1306	0	Ⴉ	cut_oo_stereo_44KHz.wav
0	16	2	4	0	C	1	0	1199	0	Ⴉ	cut_g_stereo_44KHz.wav
0	17	2	3	1	C	2	0	1179	0	Ⴉ	cut_oo_stereo_44KHz.wav
0	18	1	2	0	C	1	0	1701	0	Ⴞ	cut_eeuw_stereo_44KHz.wav
0	19	1	1	1	C	1	1	1107	1	Ⴞ	cut_ee_stereo_44KHz.wav
0	20	2	4	0	C	1	0	1076	0	Ⴉ	cut_g_stereo_44KHz.wav
0	21	2	4	0	C	1	0	889	0	Ⴉ	cut_g_stereo_44KHz.wav
0	22	1	1	1	C	2	0	445	0	Ⴞ	cut_ee_stereo_44KHz.wav
0	23	1	2	0	C	1	0	1166	0	Ⴞ	cut_eeuw_stereo_44KHz.wav
0	24	2	3	1	C	2	0	1271	0	Ⴉ	cut_oo_stereo_44KHz.wav
0	25	2	4	0	C	1	0	1561	0	Ⴉ	cut_g_stereo_44KHz.wav
0	26	2	3	1	C	0	0	0	0	Ⴉ	cut_oo_stereo_44KHz.wav
0	27	1	2	0	C	2	1	1307	1	Ⴞ	cut_eeuw_stereo_44KHz.wav
0	28	1	1	1	C	2	0	1243	0	Ⴞ	cut_ee_stereo_44KHz.wav
0	29	1	1	1	C	1	1	865	1	Ⴞ	cut_ee_stereo_44KHz.wav
0	30	2	4	0	C	1	0	915	0	Ⴉ	cut_g_stereo_44KHz.wav
avg_resp = 1143
1	1	1	1	1	C	1	1	1746	1	Ⴉ	cut_r_stereo_44KHz.wav
1	2	2	2	1	C	2	0	1100	0	Ⴌ	cut_oei_stereo_44KHz.wav
1	3	3	4	2	I	2	0	1133	0	Ⴕ	cut_j_stereo_44KHz.wav
1	4	4	4	2	I	1	0	1144	1	Ⴐ	cut_j_stereo_44KHz.wav
1	5	1	2	0	C	1	0	895	0	Ⴉ	cut_oei_stereo_44KHz.wav
1	6	3	3	2	I	2	0	1008	0	Ⴕ	cut_s_stereo_44KHz.wav
1	7	4	3	2	I	2	0	890	0	Ⴐ	cut_s_stereo_44KHz.wav
1	8	2	1	0	C	2	1	1022	1	Ⴌ	cut_r_stereo_44KHz.wav
1	9	1	2	0	C	2	1	1017	1	Ⴉ	cut_oei_stereo_44KHz.wav
1	10	4	4	2	I	1	0	1920	0	Ⴐ	cut_j_stereo_44KHz.wav
1	11	3	4	2	I	2	0	1188	1	Ⴕ	cut_j_stereo_44KHz.wav
1	12	2	2	1	C	1	1	1182	1	Ⴌ	cut_oei_stereo_44KHz.wav
1	13	4	3	2	I	2	0	1361	1	Ⴐ	cut_s_stereo_44KHz.wav
1	14	2	1	0	C	1	0	1106	0	Ⴌ	cut_r_stereo_44KHz.wav
1	15	1	1	1	C	2	0	915	0	Ⴉ	cut_r_stereo_44KHz.wav
1	16	3	3	2	I	1	0	1413	1	Ⴕ	cut_s_stereo_44KHz.wav
1	17	2	2	1	C	1	1	889	1	Ⴌ	cut_oei_stereo_44KHz.wav
1	18	1	1	1	C	1	1	1069	1	Ⴉ	cut_r_stereo_44KHz.wav
1	19	4	3	2	I	2	0	1321	0	Ⴐ	cut_s_stereo_44KHz.wav
1	20	3	4	2	I	1	0	1226	1	Ⴕ	cut_j_stereo_44KHz.wav
1	21	4	4	2	I	1	0	1200	0	Ⴐ	cut_j_stereo_44KHz.wav
1	22	1	2	0	C	2	1	1489	1	Ⴉ	cut_oei_stereo_44KHz.wav
1	23	2	1	0	C	2	1	1490	1	Ⴌ	cut_r_stereo_44KHz.wav
1	24	3	3	2	I	1	0	1662	0	Ⴕ	cut_s_stereo_44KHz.wav
1	25	1	2	0	C	2	1	838	1	Ⴉ	cut_oei_stereo_44KHz.wav
1	26	2	1	0	C	1	0	1625	0	Ⴌ	cut_r_stereo_44KHz.wav
1	27	3	3	2	I	2	0	1405	0	Ⴕ	cut_s_stereo_44KHz.wav
1	28	4	4	2	I	1	0	1274	1	Ⴐ	cut_j_stereo_44KHz.wav
1	29	2	2	1	C	1	1	1042	1	Ⴌ	cut_oei_stereo_44KHz.wav
1	30	3	4	2	I	2	0	1876	0	Ⴕ	cut_j_stereo_44KHz.wav
1	31	4	3	2	I	1	0	1497	1	Ⴐ	cut_s_stereo_44KHz.wav
1	32	1	1	1	C	2	0	1459	0	Ⴉ	cut_r_stereo_44KHz.wav
1	33	4	4	2	I	2	0	1833	0	Ⴐ	cut_j_stereo_44KHz.wav
1	34	1	2	0	C	1	0	1637	0	Ⴉ	cut_oei_stereo_44KHz.wav
1	35	2	1	0	C	1	0	1146	0	Ⴌ	cut_r_stereo_44KHz.wav
1	36	3	4	2	I	1	0	1380	0	Ⴕ	cut_j_stereo_44KHz.wav
1	37	1	1	1	C	2	0	1669	0	Ⴉ	cut_r_stereo_44KHz.wav
1	38	2	2	1	C	1	1	971	1	Ⴌ	cut_oei_stereo_44KHz.wav
1	39	3	3	2	I	2	0	1218	0	Ⴕ	cut_s_stereo_44KHz.wav
1	40	4	3	2	I	1	0	1300	1	Ⴐ	cut_s_stereo_44KHz.wav
1	41	3	3	2	I	1	0	1313	1	Ⴕ	cut_s_stereo_44KHz.wav
1	42	4	4	2	I	1	0	1468	1	Ⴐ	cut_j_stereo_44KHz.wav
1	43	1	1	1	C	0	0	0	0	Ⴉ	cut_r_stereo_44KHz.wav
1	44	2	2	1	C	2	0	849	0	Ⴌ	cut_oei_stereo_44KHz.wav
1	45	1	2	0	C	1	0	884	0	Ⴉ	cut_oei_stereo_44KHz.wav
1	46	3	4	2	I	2	0	1891	0	Ⴕ	cut_j_stereo_44KHz.wav
1	47	2	1	0	C	1	0	1094	0	Ⴌ	cut_r_stereo_44KHz.wav
1	48	4	3	2	I	1	0	1181	0	Ⴐ	cut_s_stereo_44KHz.wav
1	49	2	1	0	C	1	0	1213	0	Ⴌ	cut_r_stereo_44KHz.wav
1	50	3	3	2	I	1	0	1310	0	Ⴕ	cut_s_stereo_44KHz.wav
1	51	4	4	2	I	2	0	802	0	Ⴐ	cut_j_stereo_44KHz.wav
1	52	1	1	1	C	1	1	1214	1	Ⴉ	cut_r_stereo_44KHz.wav
1	53	4	3	2	I	1	0	1445	1	Ⴐ	cut_s_stereo_44KHz.wav
1	54	3	4	2	I	1	0	1714	0	Ⴕ	cut_j_stereo_44KHz.wav
1	55	1	2	0	C	2	1	1256	1	Ⴉ	cut_oei_stereo_44KHz.wav
1	56	2	2	1	C	1	1	863	1	Ⴌ	cut_oei_stereo_44KHz.wav
1	57	1	2	0	C	1	0	974	0	Ⴉ	cut_oei_stereo_44KHz.wav
1	58	4	3	2	I	1	0	1664	1	Ⴐ	cut_s_stereo_44KHz.wav
1	59	2	1	0	C	1	0	1286	0	Ⴌ	cut_r_stereo_44KHz.wav
1	60	3	3	2	I	0	0	0	0	Ⴕ	cut_s_stereo_44KHz.wav
1	61	1	1	1	C	1	1	1452	1	Ⴉ	cut_r_stereo_44KHz.wav
1	62	3	4	2	I	1	0	1359	1	Ⴕ	cut_j_stereo_44KHz.wav
1	63	2	2	1	C	2	0	1459	0	Ⴌ	cut_oei_stereo_44KHz.wav
1	64	4	4	2	I	2	0	1243	0	Ⴐ	cut_j_stereo_44KHz.wav
1	65	2	1	0	C	2	1	1353	1	Ⴌ	cut_r_stereo_44KHz.wav
1	66	1	2	0	C	2	1	1000	1	Ⴉ	cut_oei_stereo_44KHz.wav
1	67	3	4	2	I	2	0	1176	1	Ⴕ	cut_j_stereo_44KHz.wav
1	68	4	3	2	I	2	0	1562	1	Ⴐ	cut_s_stereo_44KHz.wav
1	69	1	1	1	C	1	1	1344	1	Ⴉ	cut_r_stereo_44KHz.wav
1	70	3	3	2	I	2	0	1859	1	Ⴕ	cut_s_stereo_44KHz.wav
1	71	2	2	1	C	2	0	1442	0	Ⴌ	cut_oei_stereo_44KHz.wav
1	72	4	4	2	I	2	0	926	1	Ⴐ	cut_j_stereo_44KHz.wav
1	73	2	1	0	C	1	0	461	0	Ⴌ	cut_r_stereo_44KHz.wav
1	74	1	2	0	C	1	0	1375	0	Ⴉ	cut_oei_stereo_44KHz.wav
1	75	4	3	2	I	2	0	1014	0	Ⴐ	cut_s_stereo_44KHz.wav
1	76	3	3	2	I	2	0	764	1	Ⴕ	cut_s_stereo_44KHz.wav
1	77	4	4	2	I	2	0	1134	1	Ⴐ	cut_j_stereo_44KHz.wav
1	78	2	2	1	C	2	0	1005	0	Ⴌ	cut_oei_stereo_44KHz.wav
1	79	3	4	2	I	2	0	1465	0	Ⴕ	cut_j_stereo_44KHz.wav
1	80	1	1	1	C	0	0	0	0	Ⴉ	cut_r_stereo_44KHz.wav
1	81	3	4	2	I	1	0	1654	1	Ⴕ	cut_j_stereo_44KHz.wav
1	82	2	1	0	C	1	0	1364	0	Ⴌ	cut_r_stereo_44KHz.wav
1	83	1	1	1	C	2	0	928	0	Ⴉ	cut_r_stereo_44KHz.wav
1	84	4	3	2	I	1	0	1484	1	Ⴐ	cut_s_stereo_44KHz.wav
1	85	2	2	1	C	2	0	1043	0	Ⴌ	cut_oei_stereo_44KHz.wav
1	86	4	4	2	I	2	0	908	1	Ⴐ	cut_j_stereo_44KHz.wav
1	87	1	2	0	C	1	0	1644	0	Ⴉ	cut_oei_stereo_44KHz.wav
1	88	3	3	2	I	2	0	1747	0	Ⴕ	cut_s_stereo_44KHz.wav
1	89	1	2	0	C	1	0	1181	0	Ⴉ	cut_oei_stereo_44KHz.wav
1	90	3	3	2	I	2	0	1374	1	Ⴕ	cut_s_stereo_44KHz.wav
1	91	4	4	2	I	2	0	1059	0	Ⴐ	cut_j_stereo_44KHz.wav
1	92	2	1	0	C	1	0	883	0	Ⴌ	cut_r_stereo_44KHz.wav
1	93	4	3	2	I	2	0	1400	0	Ⴐ	cut_s_stereo_44KHz.wav
1	94	1	1	1	C	1	1	1340	1	Ⴉ	cut_r_stereo_44KHz.wav
1	95	3	4	2	I	2	0	769	0	Ⴕ	cut_j_stereo_44KHz.wav
1	96	2	2	1	C	2	0	1425	0	Ⴌ	cut_oei_stereo_44KHz.wav
1	97	3	4	2	I	1	0	1199	0	Ⴕ	cut_j_stereo_44KHz.wav
1	98	2	1	0	C	2	1	1440	1	Ⴌ	cut_r_stereo_44KHz.wav
1	99	1	1	1	C	1	1	788	1	Ⴉ	cut_r_stereo_44KHz.wav
1	100	4	3	2	I	1	0	1063	0	Ⴐ	cut_s_stereo_44KHz.wav
1	101	2	2	1	C	2	0	999	0	Ⴌ	cut_oei_stereo_44KHz.wav
1	102	4	4	2	I	2	0	923	0	Ⴐ	cut_j_stereo_44KHz.wav
1	103	1	2	0	C	1	0	979	0	Ⴉ	cut_oei_stereo_44KHz.wav
1	104	3	3	2	I	2	0	1708	0	Ⴕ	cut_s_stereo_44KHz.wav
1	105	1	1	1	C	2	0	1594	0	Ⴉ	cut_r_stereo_44KHz.wav
1	106	3	3	2	I	2	0	1378	1	Ⴕ	cut_s_stereo_44KHz.wav
1	107	4	4	2	I	2	0	906	0	Ⴐ	cut_j_stereo_44KHz.wav
1	108	2	2	1	C	1	1	1380	1	Ⴌ	cut_oei_stereo_44KHz.wav
1	109	3	4	2	I	0	0	0	0	Ⴕ	cut_j_stereo_44KHz.wav
1	110	2	1	0	C	2	1	1100	1	Ⴌ	cut_r_stereo_44KHz.wav
1	111	4	3	2	I	2	0	1113	1	Ⴐ	cut_s_stereo_44KHz.wav
1	112	1	2	0	C	1	0	1127	0	Ⴉ	cut_oei_stereo_44KHz.wav
1	113	2	1	0	C	2	1	641	1	Ⴌ	cut_r_stereo_44KHz.wav
1	114	3	4	2	I	1	0	1369	0	Ⴕ	cut_j_stereo_44KHz.wav
1	115	4	4	2	I	1	0	972	0	Ⴐ	cut_j_stereo_44KHz.wav
1	116	1	1	1	C	2	0	1159	0	Ⴉ	cut_r_stereo_44KHz.wav
1	117	3	3	2	I	2	0	1036	0	Ⴕ	cut_s_stereo_44KHz.wav
1	118	4	3	2	I	1	0	776	0	Ⴐ	cut_s_stereo_44KHz.wav
1	119	2	2	1	C	0	0	0	0	Ⴌ	cut_oei_stereo_44KHz.wav
1	120	1	2	0	C	2	1	840	1	Ⴉ	cut_oei_stereo_44KHz.wav
1	121	4	3	2	I	2	0	1722	1	Ⴐ	cut_s_stereo_44KHz.wav
1	122	1	2	0	C	2	1	1375	1	Ⴉ	cut_oei_stereo_44KHz.wav
1	123	2	1	0	C	1	0	1255	0	Ⴌ	cut_r_stereo_44KHz.wav
1	124	3	3	2	I	2	0	682	1	Ⴕ	cut_s_stereo_44KHz.wav
1	125	4	4	2	I	1	0	1195	0	Ⴐ	cut_j_stereo_44KHz.wav
1	126	1	1	1	C	2	0	788	0	Ⴉ	cut_r_stereo_44KHz.wav
1	127	2	2	1	C	1	1	1403	1	Ⴌ	cut_oei_stereo_44KHz.wav
1	128	3	4	2	I	2	0	800	1	Ⴕ	cut_j_stereo_44KHz.wav
1	129	1	2	0	C	2	1	1266	1	Ⴉ	cut_oei_stereo_44KHz.wav
1	130	4	4	2	I	2	0	1615	1	Ⴐ	cut_j_stereo_44KHz.wav
1	131	2	2	1	C	2	0	1154	0	Ⴌ	cut_oei_stereo_44KHz.wav
1	132	3	4	2	I	2	0	1169	1	Ⴕ	cut_j_stereo_44KHz.wav
1	133	2	1	0	C	2	1	1128	1	Ⴌ	cut_r_stereo_44KHz.wav
1	134	3	3	2	I	2	0	1201	0	Ⴕ	cut_s_stereo_44KHz.wav
1	135	1	1	1	C	1	1	1724	1	Ⴉ	cut_r_stereo_44KHz.wav
1	136	4	3	2	I	2	0	1193	0	Ⴐ	cut_s_stereo_44KHz.wav
1	137	1	2	0	C	1	0	1227	0	Ⴉ	cut_oei_stereo_44KHz.wav
1	138	2	1	0	C	2	1	889	1	Ⴌ	cut_r_stereo_44KHz.wav
1	139	4	4	2	I	1	0	1504	1	Ⴐ	cut_j_stereo_44KHz.wav
1	140	3	3	2	I	2	0	747	0	Ⴕ	cut_s_stereo_44KHz.wav
1	141	2	2	1	C	1	1	854	1	Ⴌ	cut_oei_stereo_44KHz.wav
1	142	3	4	2	I	2	0	995	1	Ⴕ	cut_j_stereo_44KHz.wav
1	143	1	1	1	C	2	0	974	0	Ⴉ	cut_r_stereo_44KHz.wav
1	144	4	3	2	I	2	0	1127	0	Ⴐ	cut_s_stereo_44KHz.wav
1	145	2	1	0	C	2	1	1421	1	Ⴌ	cut_r_stereo_44KHz.wav
1	146	3	4	2	I	2	0	1148	0	Ⴕ	cut_j_stereo_44KHz.wav
1	147	1	2	0	C	2	1	1221	1	Ⴉ	cut_oei_stereo_44KHz.wav
1	148	4	4	2	I	1	0	1191	1	Ⴐ	cut_j_stereo_44KHz.wav
1	149	1	1	1	C	1	1	925	1	Ⴉ	cut_r_stereo_44KHz.wav
1	150	3	3	2	I	2	0	947	0	Ⴕ	cut_s_stereo_44KHz.wav
1	151	2	2	1	C	1	1	1148	1	Ⴌ	cut_oei_stereo_44KHz.wav
1	152	4	3	2	I	2	0	865	0	Ⴐ	cut_s_stereo_44KHz.wav
1	153	1	1	1	C	1	1	1011	1	Ⴉ	cut_r_stereo_44KHz.wav
1	154	4	3	2	I	1	0	1277	0	Ⴐ	cut_s_stereo_44KHz.wav
1	155	2	2	1	C	2	0	1203	0	Ⴌ	cut_oei_stereo_44KHz.wav
1	156	3	3	2	I	2	0	1009	1	Ⴕ	cut_s_stereo_44KHz.wav
1	157	4	4	2	I	1	0	992	0	Ⴐ	cut_j_stereo_44KHz.wav
1	158	2	1	0	C	2	1	1257	1	Ⴌ	cut_r_stereo_44KHz.wav
1	159	1	2	0	C	2	1	991	1	Ⴉ	cut_oei_stereo_44KHz.wav
1	160	3	4	2	I	1	0	1243	1	Ⴕ	cut_j_stereo_44KHz.wav
1	161	2	1	0	C	2	1	1029	1	Ⴌ	cut_r_stereo_44KHz.wav
1	162	3	4	2	I	2	0	1342	1	Ⴕ	cut_j_stereo_44KHz.wav
1	163	4	4	2	I	1	0	803	1	Ⴐ	cut_j_stereo_44KHz.wav
1	164	1	2	0	C	2	1	772	1	Ⴉ	cut_oei_stereo_44KHz.wav
1	165	3	3	2	I	2	0	1382	1	Ⴕ	cut_s_stereo_44KHz.wav
1	166	2	2	1	C	1	1	1113	1	Ⴌ	cut_oei_stereo_44KHz.wav
1	167	4	3	2	I	2	0	1354	1	Ⴐ	cut_s_stereo_44KHz.wav
1	168	1	1	1	C	1	1	1104	1	Ⴉ	cut_r_stereo_44KHz.wav
1	169	3	4	2	I	2	0	1287	0	Ⴕ	cut_j_stereo_44KHz.wav
1	170	1	1	1	C	1	1	993	1	Ⴉ	cut_r_stereo_44KHz.wav
1	171	4	4	2	I	2	0	876	1	Ⴐ	cut_j_stereo_44KHz.wav
1	172	2	1	0	C	2	1	1270	1	Ⴌ	cut_r_stereo_44KHz.wav
1	173	1	2	0	C	2	1	964	1	Ⴉ	cut_oei_stereo_44KHz.wav
1	174	2	2	1	C	1	1	775	1	Ⴌ	cut_oei_stereo_44KHz.wav
1	175	3	3	2	I	2	0	1268	1	Ⴕ	cut_s_stereo_44KHz.wav
1	176	4	3	2	I	1	0	930	1	Ⴐ	cut_s_stereo_44KHz.wav
1	177	2	2	1	C	1	1	748	1	Ⴌ	cut_oei_stereo_44KHz.wav
1	178	4	4	2	I	2	0	937	1	Ⴐ	cut_j_stereo_44KHz.wav
1	179	1	2	0	C	2	1	1102	1	Ⴉ	cut_oei_stereo_44KHz.wav
1	180	3	3	2	I	2	0	1531	1	Ⴕ	cut_s_stereo_44KHz.wav
1	181	4	3	2	I	1	0	1032	0	Ⴐ	cut_s_stereo_44KHz.wav
1	182	1	1	1	C	1	1	1156	1	Ⴉ	cut_r_stereo_44KHz.wav
1	183	3	4	2	I	1	0	1842	0	Ⴕ	cut_j_stereo_44KHz.wav
1	184	2	1	0	C	2	1	1132	1	Ⴌ	cut_r_stereo_44KHz.wav
1	185	4	4	2	I	2	0	798	1	Ⴐ	cut_j_stereo_44KHz.wav
1	186	2	1	0	C	2	1	1817	1	Ⴌ	cut_r_stereo_44KHz.wav
1	187	3	4	2	I	1	0	1261	0	Ⴕ	cut_j_stereo_44KHz.wav
1	188	1	1	1	C	1	1	1575	1	Ⴉ	cut_r_stereo_44KHz.wav
1	189	4	3	2	I	1	0	1559	0	Ⴐ	cut_s_stereo_44KHz.wav
1	190	2	2	1	C	1	1	1455	1	Ⴌ	cut_oei_stereo_44KHz.wav
1	191	1	2	0	C	2	1	1172	1	Ⴉ	cut_oei_stereo_44KHz.wav
1	192	3	3	2	I	2	0	1121	1	Ⴕ	cut_s_stereo_44KHz.wav
1	193	1	2	0	C	2	1	1135	1	Ⴉ	cut_oei_stereo_44KHz.wav
1	194	3	4	2	I	1	0	1292	1	Ⴕ	cut_j_stereo_44KHz.wav
1	195	4	3	2	I	2	0	1705	1	Ⴐ	cut_s_stereo_44KHz.wav
1	196	2	2	1	C	1	1	1201	1	Ⴌ	cut_oei_stereo_44KHz.wav
1	197	1	1	1	C	1	1	1378	1	Ⴉ	cut_r_stereo_44KHz.wav
1	198	3	3	2	I	2	0	1140	1	Ⴕ	cut_s_stereo_44KHz.wav
1	199	2	1	0	C	2	1	1426	1	Ⴌ	cut_r_stereo_44KHz.wav
1	200	4	4	2	I	1	0	1737	0	Ⴐ	cut_j_stereo_44KHz.wav
2	1	2	1	0	C	0	0	0	0	Ⴇ	cut_l_stereo_44KHz.wav
2	2	4	4	2	I	1	0	1142	1	Ⴟ	cut_g_stereo_44KHz.wav
2	3	3	3	2	I	2	0	1220	0	Ⴂ	cut_h_stereo_44KHz.wav
2	4	1	2	0	C	1	0	1388	0	Ⴡ	cut_w_stereo_44KHz.wav
2	5	4	3	2	I	2	0	409	1	Ⴟ	cut_h_stereo_44KHz.wav
2	6	1	1	1	C	2	0	1155	0	Ⴡ	cut_l_stereo_44KHz.wav
2	7	3	4	2	I	2	0	1017	1	Ⴂ	cut_g_stereo_44KHz.wav
2	8	2	2	1	C	2	0	1132	0	Ⴇ	cut_w_stereo_44KHz.wav
2	9	3	3	2	I	2	0	897	0	Ⴂ	cut_h_stereo_44KHz.wav
2	10	1	2	0	C	2	1	1046	1	Ⴡ	cut_w_stereo_44KHz.wav
2	11	4	4	2	I	2	0	1076	0	Ⴟ	cut_g_stereo_44KHz.wav
2	12	2	2	1	C	1	1	1088	1	Ⴇ	cut_w_stereo_44KHz.wav
2	13	3	4	2	I	2	0	793	0	Ⴂ	cut_g_stereo_44KHz.wav
2	14	2	1	0	C	1	0	1190	0	Ⴇ	cut_l_stereo_44KHz.wav
2	15	4	3	2	I	1	0	1564	0	Ⴟ	cut_h_stereo_44KHz.wav
2	16	1	1	1	C	1	1	1809	1	Ⴡ	cut_l_stereo_44KHz.wav
2	17	4	4	2	I	1	0	840	1	Ⴟ	cut_g_stereo_44KHz.wav
2	18	3	3	2	I	1	0	1545	0	Ⴂ	cut_h_stereo_44KHz.wav
2	19	2	2	1	C	2	0	1231	0	Ⴇ	cut_w_stereo_44KHz.wav
2	20	1	1	1	C	1	1	1562	1	Ⴡ	cut_l_stereo_44KHz.wav
2	21	4	3	2	I	2	0	1314	0	Ⴟ	cut_h_stereo_44KHz.wav
2	22	3	4	2	I	1	0	1599	0	Ⴂ	cut_g_stereo_44KHz.wav
2	23	1	2	0	C	2	1	1537	1	Ⴡ	cut_w_stereo_44KHz.wav
2	24	2	1	0	C	2	1	1308	1	Ⴇ	cut_l_stereo_44KHz.wav
2	25	3	3	2	I	0	0	0	0	Ⴂ	cut_h_stereo_44KHz.wav
2	26	4	4	2	I	1	0	1364	0	Ⴟ	cut_g_stereo_44KHz.wav
2	27	1	1	1	C	1	1	1034	1	Ⴡ	cut_l_stereo_44KHz.wav
2	28	2	1	0	C	2	1	1233	1	Ⴇ	cut_l_stereo_44KHz.wav
2	29	3	4	2	I	1	0	1539	1	Ⴂ	cut_g_stereo_44KHz.wav
2	30	4	3	2	I	2	0	1336	0	Ⴟ	cut_h_stereo_44KHz.wav
2	31	2	2	1	C	1	1	1706	1	Ⴇ	cut_w_stereo_44KHz.wav
2	32	1	2	0	C	2	1	1498	1	Ⴡ	cut_w_stereo_44KHz.wav
2	33	4	4	2	I	2	0	1609	0	Ⴟ	cut_g_stereo_44KHz.wav
2	34	2	1	0	C	2	1	1383	1	Ⴇ	cut_l_stereo_44KHz.wav
2	35	1	2	0	C	1	0	1368	0	Ⴡ	cut_w_stereo_44KHz.wav
2	36	3	4	2	I	2	0	1226	1	Ⴂ	cut_g_stereo_44KHz.wav
2	37	1	1	1	C	1	1	1356	1	Ⴡ	cut_l_stereo_44KHz.wav
2	38	2	2	1	C	2	0	1486	0	Ⴇ	cut_w_stereo_44KHz.wav
2	39	3	3	2	I	1	0	1213	0	Ⴂ	cut_h_stereo_44KHz.wav
2	40	4	3	2	I	2	0	994	1	Ⴟ	cut_h_stereo_44KHz.wav
2	41	2	2	1	C	2	0	1451	0	Ⴇ	cut_w_stereo_44KHz.wav
2	42	3	4	2	I	2	0	1124	0	Ⴂ	cut_g_stereo_44KHz.wav
2	43	4	3	2	I	2	0	1287	1	Ⴟ	cut_h_stereo_44KHz.wav
2	44	1	2	0	C	1	0	786	0	Ⴡ	cut_w_stereo_44KHz.wav
2	45	3	3	2	I	1	0	1582	1	Ⴂ	cut_h_stereo_44KHz.wav
2	46	1	1	1	C	1	1	1041	1	Ⴡ	cut_l_stereo_44KHz.wav
2	47	2	1	0	C	2	1	1397	1	Ⴇ	cut_l_stereo_44KHz.wav
2	48	4	4	2	I	1	0	1516	0	Ⴟ	cut_g_stereo_44KHz.wav
2	49	2	2	1	C	1	1	1613	1	Ⴇ	cut_w_stereo_44KHz.wav
2	50	4	4	2	I	2	0	1360	1	Ⴟ	cut_g_stereo_44KHz.wav
2	51	3	4	2	I	1	0	1073	0	Ⴂ	cut_g_stereo_44KHz.wav
2	52	1	1	1	C	1	1	1020	1	Ⴡ	cut_l_stereo_44KHz.wav
2	53	3	3	2	I	2	0	1250	1	Ⴂ	cut_h_stereo_44KHz.wav
2	54	4	3	2	I	1	0	1376	0	Ⴟ	cut_h_stereo_44KHz.wav
2	55	2	1	0	C	2	1	1431	1	Ⴇ	cut_l_stereo_44KHz.wav
2	56	1	2	0	C	2	1	1281	1	Ⴡ	cut_w_stereo_44KHz.wav
2	57	4	3	2	I	1	0	1634	0	Ⴟ	cut_h_stereo_44KHz.wav
2	58	2	1	0	C	2	1	1657	1	Ⴇ	cut_l_stereo_44KHz.wav
2	59	3	3	2	I	2	0	1547	0	Ⴂ	cut_h_stereo_44KHz.wav
2	60	1	2	0	C	2	1	1216	1	Ⴡ	cut_w_stereo_44KHz.wav
2	61	3	4	2	I	2	0	1782	1	Ⴂ	cut_g_stereo_44KHz.wav
2	62	2	2	1	C	2	0	1105	0	Ⴇ	cut_w_stereo_44KHz.wav
2	63	1	1	1	C	1	1	1075	1	Ⴡ	cut_l_stereo_44KHz.wav
2	64	4	4	2	I	1	0	1345	1	Ⴟ	cut_g_stereo_44KHz.wav
2	65	1	2	0	C	2	1	1440	1	Ⴡ	cut_w_stereo_44KHz.wav
2	66	2	1	0	C	2	1	1016	1	Ⴇ	cut_l_stereo_44KHz.wav
2	67	4	4	2	I	1	0	1061	0	Ⴟ	cut_g_stereo_44KHz.wav
2	68	3	4	2	I	2	0	705	1	Ⴂ	cut_g_stereo_44KHz.wav
2	69	4	3	2	I	2	0	914	1	Ⴟ	cut_h_stereo_44KHz.wav
2	70	1	1	1	C	1	1	947	1	Ⴡ	cut_l_stereo_44KHz.wav
2	71	2	2	1	C	2	0	1155	0	Ⴇ	cut_w_stereo_44KHz.wav
2	72	3	3	2	I	2	0	753	0	Ⴂ	cut_h_stereo_44KHz.wav
2	73	4	4	2	I	1	0	1032	1	Ⴟ	cut_g_stereo_44KHz.wav
2	74	1	1	1	C	1	1	1253	1	Ⴡ	cut_l_stereo_44KHz.wav
2	75	3	3	2	I	1	0	1594	0	Ⴂ	cut_h_stereo_44KHz.wav
2	76	2	2	1	C	2	0	1106	0	Ⴇ	cut_w_stereo_44KHz.wav
2	77	4	3	2	I	2	0	1020	1	Ⴟ	cut_h_stereo_44KHz.wav
2	78	3	4	2	I	2	0	809	1	Ⴂ	cut_g_stereo_44KHz.wav
2	79	2	1	0	C	2	1	1258	1	Ⴇ	cut_l_stereo_44KHz.wav
2	80	1	2	0	C	2	1	1322	1	Ⴡ	cut_w_stereo_44KHz.wav
2	81	4	3	2	I	2	0	742	1	Ⴟ	cut_h_stereo_44KHz.wav
2	82	2	2	1	C	1	1	1390	1	Ⴇ	cut_w_stereo_44KHz.wav
2	83	1	2	0	C	2	1	1007	1	Ⴡ	cut_w_stereo_44KHz.wav
2	84	3	4	2	I	2	0	618	0	Ⴂ	cut_g_stereo_44KHz.wav
2	85	1	1	1	C	1	1	1881	1	Ⴡ	cut_l_stereo_44KHz.wav
2	86	2	1	0	C	2	1	1178	1	Ⴇ	cut_l_stereo_44KHz.wav
2	87	3	3	2	I	2	0	844	0	Ⴂ	cut_h_stereo_44KHz.wav
2	88	4	4	2	I	1	0	1404	0	Ⴟ	cut_g_stereo_44KHz.wav
2	89	3	3	2	I	2	0	1373	0	Ⴂ	cut_h_stereo_44KHz.wav
2	90	4	4	2	I	1	0	1321	0	Ⴟ	cut_g_stereo_44KHz.wav
2	91	1	1	1	C	1	1	1414	1	Ⴡ	cut_l_stereo_44KHz.wav
2	92	2	1	0	C	2	1	934	1	Ⴇ	cut_l_stereo_44KHz.wav
2	93	4	3	2	I	2	0	1378	1	Ⴟ	cut_h_stereo_44KHz.wav
2	94	2	2	1	C	1	1	1670	1	Ⴇ	cut_w_stereo_44KHz.wav
2	95	1	2	0	C	0	0	0	0	Ⴡ	cut_w_stereo_44KHz.wav
2	96	3	4	2	I	2	0	1005	1	Ⴂ	cut_g_stereo_44KHz.wav
2	97	2	2	1	C	1	1	1264	1	Ⴇ	cut_w_stereo_44KHz.wav
2	98	4	4	2	I	1	0	1110	0	Ⴟ	cut_g_stereo_44KHz.wav
2	99	3	4	2	I	2	0	855	1	Ⴂ	cut_g_stereo_44KHz.wav
2	100	1	1	1	C	1	1	1446	1	Ⴡ	cut_l_stereo_44KHz.wav
2	101	4	3	2	I	2	0	1162	0	Ⴟ	cut_h_stereo_44KHz.wav
2	102	1	2	0	C	2	1	1723	1	Ⴡ	cut_w_stereo_44KHz.wav
2	103	3	3	2	I	2	0	1583	1	Ⴂ	cut_h_stereo_44KHz.wav
2	104	2	1	0	C	2	1	1819	1	Ⴇ	cut_l_stereo_44KHz.wav
2	105	1	1	1	C	1	1	1171	1	Ⴡ	cut_l_stereo_44KHz.wav
2	106	4	4	2	I	2	0	1219	1	Ⴟ	cut_g_stereo_44KHz.wav
2	107	3	4	2	I	1	0	1026	0	Ⴂ	cut_g_stereo_44KHz.wav
2	108	2	2	1	C	1	1	1403	1	Ⴇ	cut_w_stereo_44KHz.wav
2	109	4	3	2	I	2	0	1142	1	Ⴟ	cut_h_stereo_44KHz.wav
2	110	2	1	0	C	2	1	1277	1	Ⴇ	cut_l_stereo_44KHz.wav
2	111	1	2	0	C	2	1	1161	1	Ⴡ	cut_w_stereo_44KHz.wav
2	112	3	3	2	I	2	0	1861	0	Ⴂ	cut_h_stereo_44KHz.wav
2	113	4	4	2	I	1	0	1862	1	Ⴟ	cut_g_stereo_44KHz.wav
2	114	2	2	1	C	1	1	1149	1	Ⴇ	cut_w_stereo_44KHz.wav
2	115	3	4	2	I	2	0	1851	0	Ⴂ	cut_g_stereo_44KHz.wav
2	116	1	2	0	C	2	1	1557	1	Ⴡ	cut_w_stereo_44KHz.wav
2	117	2	1	0	C	2	1	1692	1	Ⴇ	cut_l_stereo_44KHz.wav
2	118	3	3	2	I	1	0	1624	1	Ⴂ	cut_h_stereo_44KHz.wav
2	119	1	1	1	C	1	1	1755	1	Ⴡ	cut_l_stereo_44KHz.wav
2	120	4	3	2	I	2	0	1252	0	Ⴟ	cut_h_stereo_44KHz.wav
2	121	1	1	1	C	1	1	1272	1	Ⴡ	cut_l_stereo_44KHz.wav
2	122	3	4	2	I	2	0	1708	0	Ⴂ	cut_g_stereo_44KHz.wav
2	123	2	2	1	C	0	0	0	0	Ⴇ	cut_w_stereo_44KHz.wav
2	124	4	3	2	I	2	0	1814	0	Ⴟ	cut_h_stereo_44KHz.wav
2	125	3	3	2	I	2	0	987	0	Ⴂ	cut_h_stereo_44KHz.wav
2	126	4	4	2	I	1	0	1366	0	Ⴟ	cut_g_stereo_44KHz.wav
2	127	2	1	0	C	2	1	867	1	Ⴇ	cut_l_stereo_44KHz.wav
2	128	1	2	0	C	2	1	1217	1	Ⴡ	cut_w_stereo_44KHz.wav
2	129	4	3	2	I	2	0	1463	1	Ⴟ	cut_h_stereo_44KHz.wav
2	130	3	4	2	I	1	0	1540	1	Ⴂ	cut_g_stereo_44KHz.wav
2	131	1	2	0	C	2	1	1208	1	Ⴡ	cut_w_stereo_44KHz.wav
2	132	2	1	0	C	2	1	962	1	Ⴇ	cut_l_stereo_44KHz.wav
2	133	1	1	1	C	1	1	967	1	Ⴡ	cut_l_stereo_44KHz.wav
2	134	2	2	1	C	1	1	1678	1	Ⴇ	cut_w_stereo_44KHz.wav
2	135	3	3	2	I	2	0	1569	1	Ⴂ	cut_h_stereo_44KHz.wav
2	136	4	4	2	I	2	0	966	0	Ⴟ	cut_g_stereo_44KHz.wav
2	137	1	1	1	C	1	1	1268	1	Ⴡ	cut_l_stereo_44KHz.wav
2	138	2	1	0	C	2	1	1401	1	Ⴇ	cut_l_stereo_44KHz.wav
2	139	3	3	2	I	0	0	0	0	Ⴂ	cut_h_stereo_44KHz.wav
2	140	4	3	2	I	2	0	707	1	Ⴟ	cut_h_stereo_44KHz.wav
2	141	2	2	1	C	1	1	1652	1	Ⴇ	cut_w_stereo_44KHz.wav
2	142	1	2	0	C	2	1	1051	1	Ⴡ	cut_w_stereo_44KHz.wav
2	143	4	4	2	I	2	0	1090	1	Ⴟ	cut_g_stereo_44KHz.wav
2	144	3	4	2	I	1	0	792	0	Ⴂ	cut_g_stereo_44KHz.wav
2	145	1	1	1	C	1	1	1626	1	Ⴡ	cut_l_stereo_44KHz.wav
2	146	4	4	2	I	1	0	1231	1	Ⴟ	cut_g_stereo_44KHz.wav
2	147	2	1	0	C	2	1	927	1	Ⴇ	cut_l_stereo_44KHz.wav
2	148	3	3	2	I	1	0	1280	1	Ⴂ	cut_h_stereo_44KHz.wav
2	149	1	2	0	C	2	1	1213	1	Ⴡ	cut_w_stereo_44KHz.wav
2	150	2	2	1	C	1	1	957	1	Ⴇ	cut_w_stereo_44KHz.wav
2	151	4	3	2	I	2	0	1287	1	Ⴟ	cut_h_stereo_44KHz.wav
2	152	3	4	2	I	1	0	1603	1	Ⴂ	cut_g_stereo_44KHz.wav
2	153	1	1	1	C	1	1	1418	1	Ⴡ	cut_l_stereo_44KHz.wav
2	154	2	1	0	C	2	1	977	1	Ⴇ	cut_l_stereo_44KHz.wav
2	155	3	3	2	I	1	0	1774	1	Ⴂ	cut_h_stereo_44KHz.wav
2	156	4	4	2	I	1	0	958	0	Ⴟ	cut_g_stereo_44KHz.wav
2	157	1	2	0	C	2	1	1074	1	Ⴡ	cut_w_stereo_44KHz.wav
2	158	3	4	2	I	1	0	1249	0	Ⴂ	cut_g_stereo_44KHz.wav
2	159	2	2	1	C	2	0	1450	0	Ⴇ	cut_w_stereo_44KHz.wav
2	160	4	3	2	I	2	0	1454	1	Ⴟ	cut_h_stereo_44KHz.wav
2	161	1	2	0	C	2	1	1799	1	Ⴡ	cut_w_stereo_44KHz.wav
2	162	2	1	0	C	2	1	1832	1	Ⴇ	cut_l_stereo_44KHz.wav
2	163	4	4	2	I	2	0	1623	1	Ⴟ	cut_g_stereo_44KHz.wav
2	164	3	3	2	I	1	0	1435	1	Ⴂ	cut_h_stereo_44KHz.wav
2	165	4	3	2	I	0	0	0	0	Ⴟ	cut_h_stereo_44KHz.wav
2	166	3	4	2	I	2	0	1442	1	Ⴂ	cut_g_stereo_44KHz.wav
2	167	1	1	1	C	1	1	1287	1	Ⴡ	cut_l_stereo_44KHz.wav
2	168	2	2	1	C	1	1	1541	1	Ⴇ	cut_w_stereo_44KHz.wav
2	169	3	4	2	I	2	0	908	1	Ⴂ	cut_g_stereo_44KHz.wav
2	170	2	2	1	C	1	1	1157	1	Ⴇ	cut_w_stereo_44KHz.wav
2	171	1	1	1	C	1	1	1204	1	Ⴡ	cut_l_stereo_44KHz.wav
2	172	4	4	2	I	0	0	0	0	Ⴟ	cut_g_stereo_44KHz.wav
2	173	2	1	0	C	2	1	1564	1	Ⴇ	cut_l_stereo_44KHz.wav
2	174	4	3	2	I	2	0	846	0	Ⴟ	cut_h_stereo_44KHz.wav
2	175	3	3	2	I	1	0	834	1	Ⴂ	cut_h_stereo_44KHz.wav
2	176	1	2	0	C	1	0	1052	0	Ⴡ	cut_w_stereo_44KHz.wav
2	177	3	3	2	I	2	0	751	0	Ⴂ	cut_h_stereo_44KHz.wav
2	178	4	3	2	I	2	0	809	1	Ⴟ	cut_h_stereo_44KHz.wav
2	179	1	2	0	C	2	1	1132	1	Ⴡ	cut_w_stereo_44KHz.wav
2	180	2	2	1	C	1	1	946	1	Ⴇ	cut_w_stereo_44KHz.wav
2	181	3	4	2	I	2	0	757	1	Ⴂ	cut_g_stereo_44KHz.wav
2	182	4	4	2	I	1	0	1274	1	Ⴟ	cut_g_stereo_44KHz.wav
2	183	2	1	0	C	2	1	1156	1	Ⴇ	cut_l_stereo_44KHz.wav
2	184	1	1	1	C	1	1	791	1	Ⴡ	cut_l_stereo_44KHz.wav
2	185	3	4	2	I	2	0	847	0	Ⴂ	cut_g_stereo_44KHz.wav
2	186	4	3	2	I	2	0	1461	1	Ⴟ	cut_h_stereo_44KHz.wav
2	187	1	2	0	C	2	1	1539	1	Ⴡ	cut_w_stereo_44KHz.wav
2	188	2	1	0	C	2	1	966	1	Ⴇ	cut_l_stereo_44KHz.wav
2	189	1	1	1	C	1	1	752	1	Ⴡ	cut_l_stereo_44KHz.wav
2	190	4	4	2	I	2	0	1177	0	Ⴟ	cut_g_stereo_44KHz.wav
2	191	3	3	2	I	2	0	1609	1	Ⴂ	cut_h_stereo_44KHz.wav
2	192	2	2	1	C	1	1	1228	1	Ⴇ	cut_w_stereo_44KHz.wav
2	193	1	1	1	C	2	0	802	0	Ⴡ	cut_l_stereo_44KHz.wav
2	194	3	3	2	I	2	0	875	1	Ⴂ	cut_h_stereo_44KHz.wav
2	195	2	2	1	C	2	0	1247	0	Ⴇ	cut_w_stereo_44KHz.wav
2	196	4	3	2	I	2	0	1007	0	Ⴟ	cut_h_stereo_44KHz.wav
2	197	3	4	2	I	2	0	1152	0	Ⴂ	cut_g_stereo_44KHz.wav
2	198	1	2	0	C	1	0	1513	0	Ⴡ	cut_w_stereo_44KHz.wav
2	199	2	1	0	C	2	1	1207	1	Ⴇ	cut_l_stereo_44KHz.wav
2	200	4	4	2	I	2	0	952	0	Ⴟ	cut_g_stereo_44KHz.wav
3	1	4	4	2	I	2	0	1890	0	Ⴁ	cut_n_stereo_44KHz.wav
3	2	3	3	2	I	2	0	1389	1	Ⴜ	cut_f_stereo_44KHz.wav
3	3	2	1	0	C	2	1	1137	1	Ⴃ	cut_ui_stereo_44KHz.wav
3	4	1	2	0	C	1	0	930	0	Ⴊ	cut_ei_stereo_44KHz.wav
3	5	4	3	2	I	1	0	1214	1	Ⴁ	cut_f_stereo_44KHz.wav
3	6	2	2	1	C	2	0	773	0	Ⴃ	cut_ei_stereo_44KHz.wav
3	7	3	4	2	I	1	0	1003	1	Ⴜ	cut_n_stereo_44KHz.wav
3	8	1	1	1	C	1	1	1456	1	Ⴊ	cut_ui_stereo_44KHz.wav
3	9	4	3	2	I	1	0	1470	1	Ⴁ	cut_f_stereo_44KHz.wav
3	10	2	1	0	C	2	1	1082	1	Ⴃ	cut_ui_stereo_44KHz.wav
3	11	1	1	1	C	1	1	1056	1	Ⴊ	cut_ui_stereo_44KHz.wav
3	12	3	4	2	I	1	0	1006	0	Ⴜ	cut_n_stereo_44KHz.wav
3	13	1	2	0	C	1	0	1150	0	Ⴊ	cut_ei_stereo_44KHz.wav
3	14	3	3	2	I	2	0	725	1	Ⴜ	cut_f_stereo_44KHz.wav
3	15	2	2	1	C	1	1	1296	1	Ⴃ	cut_ei_stereo_44KHz.wav
3	16	4	4	2	I	2	0	1620	1	Ⴁ	cut_n_stereo_44KHz.wav
3	17	1	1	1	C	1	1	1642	1	Ⴊ	cut_ui_stereo_44KHz.wav
3	18	2	1	0	C	2	1	960	1	Ⴃ	cut_ui_stereo_44KHz.wav
3	19	3	3	2	I	2	0	865	0	Ⴜ	cut_f_stereo_44KHz.wav
3	20	4	4	2	I	2	0	990	1	Ⴁ	cut_n_stereo_44KHz.wav
3	21	2	2	1	C	2	0	933	0	Ⴃ	cut_ei_stereo_44KHz.wav
3	22	4	3	2	I	1	0	1610	1	Ⴁ	cut_f_stereo_44KHz.wav
3	23	3	4	2	I	1	0	1454	1	Ⴜ	cut_n_stereo_44KHz.wav
3	24	1	2	0	C	2	1	1861	1	Ⴊ	cut_ei_stereo_44KHz.wav
3	25	3	4	2	I	1	0	987	1	Ⴜ	cut_n_stereo_44KHz.wav
3	26	1	2	0	C	2	1	1956	1	Ⴊ	cut_ei_stereo_44KHz.wav
3	27	2	1	0	C	2	1	824	1	Ⴃ	cut_ui_stereo_44KHz.wav
3	28	4	4	2	I	2	0	957	1	Ⴁ	cut_n_stereo_44KHz.wav
3	29	2	2	1	C	1	1	1602	1	Ⴃ	cut_ei_stereo_44KHz.wav
3	30	1	1	1	C	1	1	1375	1	Ⴊ	cut_ui_stereo_44KHz.wav
3	31	3	3	2	I	1	0	1350	0	Ⴜ	cut_f_stereo_44KHz.wav
3	32	4	3	2	I	1	0	1086	0	Ⴁ	cut_f_stereo_44KHz.wav
3	33	3	3	2	I	2	0	1081	0	Ⴜ	cut_f_stereo_44KHz.wav
3	34	2	2	1	C	1	1	1275	1	Ⴃ	cut_ei_stereo_44KHz.wav
3	35	4	4	2	I	2	0	907	0	Ⴁ	cut_n_stereo_44KHz.wav
3	36	1	2	0	C	2	1	1315	1	Ⴊ	cut_ei_stereo_44KHz.wav
3	37	2	1	0	C	2	1	1287	1	Ⴃ	cut_ui_stereo_44KHz.wav
3	38	3	4	2	I	1	0	1468	1	Ⴜ	cut_n_stereo_44KHz.wav
3	39	1	1	1	C	1	1	1544	1	Ⴊ	cut_ui_stereo_44KHz.wav
3	40	4	3	2	I	0	0	0	0	Ⴁ	cut_f_stereo_44KHz.wav
3	41	3	3	2	I	1	0	1164	0	Ⴜ	cut_f_stereo_44KHz.wav
3	42	4	3	2	I	1	0	1609	1	Ⴁ	cut_f_stereo_44KHz.wav
3	43	2	2	1	C	1	1	1142	1	Ⴃ	cut_ei_stereo_44KHz.wav
3	44	1	1	1	C	1	1	1281	1	Ⴊ	cut_ui_stereo_44KHz.wav
3	45	2	1	0	C	2	1	820	1	Ⴃ	cut_ui_stereo_44KHz.wav
3	46	1	2	0	C	2	1	1041	1	Ⴊ	cut_ei_stereo_44KHz.wav
3	47	3	4	2	I	1	0	1055	1	Ⴜ	cut_n_stereo_44KHz.wav
3	48	4	4	2	I	2	0	806	0	Ⴁ	cut_n_stereo_44KHz.wav
3	49	1	2	0	C	2	1	1605	1	Ⴊ	cut_ei_stereo_44KHz.wav
3	50	4	4	2	I	2	0	976	0	Ⴁ	cut_n_stereo_44KHz.wav
3	51	3	3	2	I	2	0	1064	0	Ⴜ	cut_f_stereo_44KHz.wav
3	52	2	1	0	C	2	1	1351	1	Ⴃ	cut_ui_stereo_44KHz.wav
3	53	3	4	2	I	1	0	1058	1	Ⴜ	cut_n_stereo_44KHz.wav
3	54	2	2	1	C	1	1	1034	1	Ⴃ	cut_ei_stereo_44KHz.wav
3	55	1	1	1	C	1	1	1327	1	Ⴊ	cut_ui_stereo_44KHz.wav
3	56	4	3	2	I	2	0	1515	1	Ⴁ	cut_f_stereo_44KHz.wav
3	57	1	1	1	C	1	1	1775	1	Ⴊ	cut_ui_stereo_44KHz.wav
3	58	3	4	2	I	2	0	1197	0	Ⴜ	cut_n_stereo_44KHz.wav
3	59	4	3	2	I	2	0	1589	0	Ⴁ	cut_f_stereo_44KHz.wav
3	60	2	2	1	C	1	1	1291	1	Ⴃ	cut_ei_stereo_44KHz.wav
3	61	3	3	2	I	2	0	1787	1	Ⴜ	cut_f_stereo_44KHz.wav
3	62	4	4	2	I	2	0	1107	1	Ⴁ	cut_n_stereo_44KHz.wav
3	63	2	1	0	C	2	1	1213	1	Ⴃ	cut_ui_stereo_44KHz.wav
3	64	1	2	0	C	1	0	926	0	Ⴊ	cut_ei_stereo_44KHz.wav
3	65	3	3	2	I	1	0	1718	1	Ⴜ	cut_f_stereo_44KHz.wav
3	66	2	1	0	C	2	1	757	1	Ⴃ	cut_ui_stereo_44KHz.wav
3	67	4	3	2	I	2	0	1249	1	Ⴁ	cut_f_stereo_44KHz.wav
3	68	1	1	1	C	1	1	1047	1	Ⴊ	cut_ui_stereo_44KHz.wav
3	69	3	4	2	I	1	0	1675	1	Ⴜ	cut_n_stereo_44KHz.wav
3	70	2	2	1	C	1	1	1150	1	Ⴃ	cut_ei_stereo_44KHz.wav
3	71	4	4	2	I	2	0	1144	0	Ⴁ	cut_n_stereo_44KHz.wav
3	72	1	2	0	C	2	1	1937	1	Ⴊ	cut_ei_stereo_44KHz.wav
3	73	2	1	0	C	2	1	874	1	Ⴃ	cut_ui_stereo_44KHz.wav
3	74	1	1	1	C	2	0	1437	0	Ⴊ	cut_ui_stereo_44KHz.wav
3	75	4	3	2	I	0	0	0	0	Ⴁ	cut_f_stereo_44KHz.wav
3	76	3	4	2	I	1	0	1952	1	Ⴜ	cut_n_stereo_44KHz.wav
3	77	4	4	2	I	2	0	1273	0	Ⴁ	cut_n_stereo_44KHz.wav
3	78	2	2	1	C	1	1	1100	1	Ⴃ	cut_ei_stereo_44KHz.wav
3	79	1	2	0	C	2	1	1208	1	Ⴊ	cut_ei_stereo_44KHz.wav
3	80	3	3	2	I	2	0	1341	0	Ⴜ	cut_f_stereo_44KHz.wav
3	81	2	2	1	C	1	1	1497	1	Ⴃ	cut_ei_stereo_44KHz.wav
3	82	4	3	2	I	1	0	1716	1	Ⴁ	cut_f_stereo_44KHz.wav
3	83	3	4	2	I	1	0	1164	1	Ⴜ	cut_n_stereo_44KHz.wav
3	84	1	2	0	C	2	1	1529	1	Ⴊ	cut_ei_stereo_44KHz.wav
3	85	4	4	2	I	2	0	1752	1	Ⴁ	cut_n_stereo_44KHz.wav
3	86	3	3	2	I	2	0	1134	0	Ⴜ	cut_f_stereo_44KHz.wav
3	87	2	1	0	C	0	0	0	0	Ⴃ	cut_ui_stereo_44KHz.wav
3	88	1	1	1	C	1	1	934	1	Ⴊ	cut_ui_stereo_44KHz.wav
3	89	4	4	2	I	2	0	1696	0	Ⴁ	cut_n_stereo_44KHz.wav
3	90	1	2	0	C	2	1	1233	1	Ⴊ	cut_ei_stereo_44KHz.wav
3	91	3	4	2	I	1	0	1316	1	Ⴜ	cut_n_stereo_44KHz.wav
3	92	2	2	1	C	1	1	1747	1	Ⴃ	cut_ei_stereo_44KHz.wav
3	93	3	3	2	I	2	0	1566	0	Ⴜ	cut_f_stereo_44KHz.wav
3	94	4	3	2	I	1	0	1181	0	Ⴁ	cut_f_stereo_44KHz.wav
3	95	1	1	1	C	2	0	920	0	Ⴊ	cut_ui_stereo_44KHz.wav
3	96	2	1	0	C	2	1	767	1	Ⴃ	cut_ui_stereo_44KHz.wav
3	97	4	3	2	I	2	0	1141	1	Ⴁ	cut_f_stereo_44KHz.wav
3	98	1	1	1	C	2	0	1424	0	Ⴊ	cut_ui_stereo_44KHz.wav
3	99	3	4	2	I	2	0	1636	0	Ⴜ	cut_n_stereo_44KHz.wav
3	100	2	2	1	C	1	1	1222	1	Ⴃ	cut_ei_stereo_44KHz.wav
3	101	4	4	2	I	2	0	1074	1	Ⴁ	cut_n_stereo_44KHz.wav
3	102	2	1	0	C	2	1	1587	1	Ⴃ	cut_ui_stereo_44KHz.wav
3	103	3	3	2	I	1	0	1647	1	Ⴜ	cut_f_stereo_44KHz.wav
3	104	1	2	0	C	1	0	1795	0	Ⴊ	cut_ei_stereo_44KHz.wav
3	105	3	3	2	I	1	0	1118	0	Ⴜ	cut_f_stereo_44KHz.wav
3	106	1	2	0	C	0	0	0	0	Ⴊ	cut_ei_stereo_44KHz.wav
3	107	4	3	2	I	2	0	1513	0	Ⴁ	cut_f_stereo_44KHz.wav
3	108	2	2	1	C	1	1	1210	1	Ⴃ	cut_ei_stereo_44KHz.wav
3	109	3	4	2	I	1	0	1240	1	Ⴜ	cut_n_stereo_44KHz.wav
3	110	1	1	1	C	1	1	1227	1	Ⴊ	cut_ui_stereo_44KHz.wav
3	111	4	4	2	I	2	0	1095	0	Ⴁ	cut_n_stereo_44KHz.wav
3	112	2	1	0	C	2	1	1160	1	Ⴃ	cut_ui_stereo_44KHz.wav
3	113	4	3	2	I	1	0	1131	1	Ⴁ	cut_f_stereo_44KHz.wav
3	114	1	2	0	C	1	0	1962	0	Ⴊ	cut_ei_stereo_44KHz.wav
3	115	2	2	1	C	1	1	1085	1	Ⴃ	cut_ei_stereo_44KHz.wav
3	116	3	3	2	I	1	0	1635	0	Ⴜ	cut_f_stereo_44KHz.wav
3	117	2	1	0	C	2	1	1570	1	Ⴃ	cut_ui_stereo_44KHz.wav
3	118	3	4	2	I	1	0	988	1	Ⴜ	cut_n_stereo_44KHz.wav
3	119	1	1	1	C	1	1	1353	1	Ⴊ	cut_ui_stereo_44KHz.wav
3	120	4	4	2	I	2	0	998	0	Ⴁ	cut_n_stereo_44KHz.wav
3	121	2	1	0	C	2	1	1348	1	Ⴃ	cut_ui_stereo_44KHz.wav
3	122	3	3	2	I	1	0	1668	1	Ⴜ	cut_f_stereo_44KHz.wav
3	123	4	4	2	I	1	0	1416	1	Ⴁ	cut_n_stereo_44KHz.wav
3	124	1	2	0	C	2	1	1610	1	Ⴊ	cut_ei_stereo_44KHz.wav
3	125	2	2	1	C	1	1	1034	1	Ⴃ	cut_ei_stereo_44KHz.wav
3	126	3	4	2	I	2	0	1651	0	Ⴜ	cut_n_stereo_44KHz.wav
3	127	4	3	2	I	0	0	0	0	Ⴁ	cut_f_stereo_44KHz.wav
3	128	1	1	1	C	1	1	1777	1	Ⴊ	cut_ui_stereo_44KHz.wav
3	129	3	3	2	I	1	0	1261	0	Ⴜ	cut_f_stereo_44KHz.wav
3	130	1	1	1	C	2	0	1831	0	Ⴊ	cut_ui_stereo_44KHz.wav
3	131	2	2	1	C	1	1	892	1	Ⴃ	cut_ei_stereo_44KHz.wav
3	132	4	3	2	I	2	0	998	1	Ⴁ	cut_f_stereo_44KHz.wav
3	133	3	4	2	I	1	0	1484	0	Ⴜ	cut_n_stereo_44KHz.wav
3	134	4	4	2	I	1	0	1166	0	Ⴁ	cut_n_stereo_44KHz.wav
3	135	1	2	0	C	2	1	1517	1	Ⴊ	cut_ei_stereo_44KHz.wav
3	136	2	1	0	C	2	1	1272	1	Ⴃ	cut_ui_stereo_44KHz.wav
3	137	3	4	2	I	1	0	803	0	Ⴜ	cut_n_stereo_44KHz.wav
3	138	4	4	2	I	2	0	758	0	Ⴁ	cut_n_stereo_44KHz.wav
3	139	2	2	1	C	1	1	1233	1	Ⴃ	cut_ei_stereo_44KHz.wav
3	140	1	2	0	C	2	1	1193	1	Ⴊ	cut_ei_stereo_44KHz.wav
3	141	4	3	2	I	2	0	960	0	Ⴁ	cut_f_stereo_44KHz.wav
3	142	3	3	2	I	2	0	570	1	Ⴜ	cut_f_stereo_44KHz.wav
3	143	1	1	1	C	2	0	889	0	Ⴊ	cut_ui_stereo_44KHz.wav
3	144	2	1	0	C	2	1	1043	1	Ⴃ	cut_ui_stereo_44KHz.wav
3	145	4	4	2	I	2	0	1085	1	Ⴁ	cut_n_stereo_44KHz.wav
3	146	3	3	2	I	2	0	979	0	Ⴜ	cut_f_stereo_44KHz.wav
3	147	1	1	1	C	1	1	1492	1	Ⴊ	cut_ui_stereo_44KHz.wav
3	148	2	2	1	C	1	1	1509	1	Ⴃ	cut_ei_stereo_44KHz.wav
3	149	4	3	2	I	2	0	1055	1	Ⴁ	cut_f_stereo_44KHz.wav
3	150	2	1	0	C	2	1	915	1	Ⴃ	cut_ui_stereo_44KHz.wav
3	151	1	2	0	C	2	1	1302	1	Ⴊ	cut_ei_stereo_44KHz.wav
3	152	3	4	2	I	2	0	1196	0	Ⴜ	cut_n_stereo_44KHz.wav
3	153	2	2	1	C	2	0	1101	0	Ⴃ	cut_ei_stereo_44KHz.wav
3	154	1	2	0	C	2	1	723	1	Ⴊ	cut_ei_stereo_44KHz.wav
3	155	4	4	2	I	1	0	1711	1	Ⴁ	cut_n_stereo_44KHz.wav
3	156	3	4	2	I	2	0	894	1	Ⴜ	cut_n_stereo_44KHz.wav
3	157	2	1	0	C	2	1	896	1	Ⴃ	cut_ui_stereo_44KHz.wav
3	158	3	3	2	I	1	0	1647	0	Ⴜ	cut_f_stereo_44KHz.wav
3	159	1	1	1	C	2	0	783	0	Ⴊ	cut_ui_stereo_44KHz.wav
3	160	4	3	2	I	2	0	1124	0	Ⴁ	cut_f_stereo_44KHz.wav
3	161	2	2	1	C	2	0	1165	0	Ⴃ	cut_ei_stereo_44KHz.wav
3	162	3	4	2	I	2	0	972	1	Ⴜ	cut_n_stereo_44KHz.wav
3	163	1	2	0	C	2	1	1952	1	Ⴊ	cut_ei_stereo_44KHz.wav
3	164	4	4	2	I	1	0	1352	0	Ⴁ	cut_n_stereo_44KHz.wav
3	165	1	1	1	C	1	1	1443	1	Ⴊ	cut_ui_stereo_44KHz.wav
3	166	2	1	0	C	2	1	1112	1	Ⴃ	cut_ui_stereo_44KHz.wav
3	167	3	3	2	I	1	0	1234	0	Ⴜ	cut_f_stereo_44KHz.wav
3	168	4	3	2	I	2	0	1030	0	Ⴁ	cut_f_stereo_44KHz.wav
3	169	3	3	2	I	1	0	1117	0	Ⴜ	cut_f_stereo_44KHz.wav
3	170	4	3	2	I	2	0	1204	0	Ⴁ	cut_f_stereo_44KHz.wav
3	171	1	1	1	C	1	1	1536	1	Ⴊ	cut_ui_stereo_44KHz.wav
3	172	2	1	0	C	2	1	1007	1	Ⴃ	cut_ui_stereo_44KHz.wav
3	173	3	4	2	I	2	0	1166	1	Ⴜ	cut_n_stereo_44KHz.wav
3	174	2	2	1	C	2	0	1119	0	Ⴃ	cut_ei_stereo_44KHz.wav
3	175	1	2	0	C	2	1	548	1	Ⴊ	cut_ei_stereo_44KHz.wav
3	176	4	4	2	I	1	0	1240	1	Ⴁ	cut_n_stereo_44KHz.wav
3	177	3	4	2	I	2	0	771	1	Ⴜ	cut_n_stereo_44KHz.wav
3	178	1	2	0	C	2	1	1587	1	Ⴊ	cut_ei_stereo_44KHz.wav
3	179	2	1	0	C	2	1	873	1	Ⴃ	cut_ui_stereo_44KHz.wav
3	180	4	3	2	I	2	0	1189	0	Ⴁ	cut_f_stereo_44KHz.wav
3	181	3	3	2	I	2	0	539	0	Ⴜ	cut_f_stereo_44KHz.wav
3	182	4	4	2	I	2	0	622	0	Ⴁ	cut_n_stereo_44KHz.wav
3	183	2	2	1	C	1	1	1356	1	Ⴃ	cut_ei_stereo_44KHz.wav
3	184	1	1	1	C	2	0	879	0	Ⴊ	cut_ui_stereo_44KHz.wav
3	185	2	1	0	C	2	1	1125	1	Ⴃ	cut_ui_stereo_44KHz.wav
3	186	4	3	2	I	1	0	1131	1	Ⴁ	cut_f_stereo_44KHz.wav
3	187	3	3	2	I	2	0	976	1	Ⴜ	cut_f_stereo_44KHz.wav
3	188	1	2	0	C	2	1	1591	1	Ⴊ	cut_ei_stereo_44KHz.wav
3	189	4	4	2	I	2	0	1295	0	Ⴁ	cut_n_stereo_44KHz.wav
3	190	3	4	2	I	2	0	1047	1	Ⴜ	cut_n_stereo_44KHz.wav
3	191	2	2	1	C	1	1	1702	1	Ⴃ	cut_ei_stereo_44KHz.wav
3	192	1	1	1	C	1	1	1508	1	Ⴊ	cut_ui_stereo_44KHz.wav
3	193	2	2	1	C	2	0	736	0	Ⴃ	cut_ei_stereo_44KHz.wav
3	194	3	3	2	I	1	0	1045	0	Ⴜ	cut_f_stereo_44KHz.wav
3	195	1	1	1	C	2	0	1478	0	Ⴊ	cut_ui_stereo_44KHz.wav
3	196	4	3	2	I	2	0	1023	1	Ⴁ	cut_f_stereo_44KHz.wav
3	197	3	4	2	I	2	0	872	0	Ⴜ	cut_n_stereo_44KHz.wav
3	198	2	1	0	C	2	1	458	1	Ⴃ	cut_ui_stereo_44KHz.wav
3	199	1	2	0	C	2	1	1516	1	Ⴊ	cut_ei_stereo_44KHz.wav
3	200	4	4	2	I	2	0	1385	0	Ⴁ	cut_n_stereo_44KHz.wav
4	1	1	2	0	C	2	1	1766	1	Ⴒ	cut_o_stereo_44KHz.wav
4	2	3	3	2	I	1	0	817	1	Ⴖ	cut_a_stereo_44KHz.wav
4	3	2	2	1	C	1	1	887	1	Ⴔ	cut_o_stereo_44KHz.wav
4	4	4	4	2	I	2	0	868	1	Ⴏ	cut_u_stereo_44KHz.wav
4	5	1	1	1	C	1	1	860	1	Ⴒ	cut_k_stereo_44KHz.wav
4	6	2	1	0	C	2	1	865	1	Ⴔ	cut_k_stereo_44KHz.wav
4	7	3	4	2	I	2	0	891	0	Ⴖ	cut_u_stereo_44KHz.wav
4	8	4	3	2	I	1	0	1266	0	Ⴏ	cut_a_stereo_44KHz.wav
4	9	2	1	0	C	2	1	753	1	Ⴔ	cut_k_stereo_44KHz.wav
4	10	1	1	1	C	1	1	823	1	Ⴒ	cut_k_stereo_44KHz.wav
4	11	3	4	2	I	1	0	982	1	Ⴖ	cut_u_stereo_44KHz.wav
4	12	4	3	2	I	1	0	1192	0	Ⴏ	cut_a_stereo_44KHz.wav
4	13	1	2	0	C	1	0	1176	0	Ⴒ	cut_o_stereo_44KHz.wav
4	14	3	3	2	I	1	0	1695	1	Ⴖ	cut_a_stereo_44KHz.wav
4	15	2	2	1	C	1	1	1485	1	Ⴔ	cut_o_stereo_44KHz.wav
4	16	4	4	2	I	2	0	1182	0	Ⴏ	cut_u_stereo_44KHz.wav
4	17	3	3	2	I	2	0	1184	0	Ⴖ	cut_a_stereo_44KHz.wav
4	18	4	4	2	I	1	0	1342	0	Ⴏ	cut_u_stereo_44KHz.wav
4	19	1	2	0	C	2	1	1115	1	Ⴒ	cut_o_stereo_44KHz.wav
4	20	2	2	1	C	1	1	782	1	Ⴔ	cut_o_stereo_44KHz.wav
4	21	4	3	2	I	2	0	1150	1	Ⴏ	cut_a_stereo_44KHz.wav
4	22	1	1	1	C	1	1	1102	1	Ⴒ	cut_k_stereo_44KHz.wav
4	23	3	4	2	I	2	0	1223	0	Ⴖ	cut_u_stereo_44KHz.wav
4	24	2	1	0	C	2	1	769	1	Ⴔ	cut_k_stereo_44KHz.wav
4	25	3	3	2	I	2	0	942	0	Ⴖ	cut_a_stereo_44KHz.wav
4	26	2	2	1	C	1	1	893	1	Ⴔ	cut_o_stereo_44KHz.wav
4	27	1	2	0	C	2	1	906	1	Ⴒ	cut_o_stereo_44KHz.wav
4	28	4	3	2	I	2	0	1282	1	Ⴏ	cut_a_stereo_44KHz.wav
4	29	2	1	0	C	2	1	781	1	Ⴔ	cut_k_stereo_44KHz.wav
4	30	3	4	2	I	1	0	1058	0	Ⴖ	cut_u_stereo_44KHz.wav
4	31	4	4	2	I	1	0	1262	0	Ⴏ	cut_u_stereo_44KHz.wav
4	32	1	1	1	C	1	1	1586	1	Ⴒ	cut_k_stereo_44KHz.wav
4	33	2	1	0	C	2	1	454	1	Ⴔ	cut_k_stereo_44KHz.wav
4	34	4	3	2	I	2	0	1514	0	Ⴏ	cut_a_stereo_44KHz.wav
4	35	3	4	2	I	2	0	1613	1	Ⴖ	cut_u_stereo_44KHz.wav
4	36	1	2	0	C	2	1	1033	1	Ⴒ	cut_o_stereo_44KHz.wav
4	37	4	4	2	I	2	0	1092	0	Ⴏ	cut_u_stereo_44KHz.wav
4	38	3	3	2	I	1	0	836	0	Ⴖ	cut_a_stereo_44KHz.wav
4	39	1	1	1	C	1	1	1060	1	Ⴒ	cut_k_stereo_44KHz.wav
4	40	2	2	1	C	1	1	1029	1	Ⴔ	cut_o_stereo_44KHz.wav
4	41	4	3	2	I	1	0	1183	1	Ⴏ	cut_a_stereo_44KHz.wav
4	42	3	3	2	I	1	0	1164	1	Ⴖ	cut_a_stereo_44KHz.wav
4	43	2	1	0	C	2	1	628	1	Ⴔ	cut_k_stereo_44KHz.wav
4	44	1	2	0	C	1	0	952	0	Ⴒ	cut_o_stereo_44KHz.wav
4	45	2	2	1	C	1	1	784	1	Ⴔ	cut_o_stereo_44KHz.wav
4	46	1	1	1	C	1	1	897	1	Ⴒ	cut_k_stereo_44KHz.wav
4	47	3	4	2	I	2	0	1077	1	Ⴖ	cut_u_stereo_44KHz.wav
4	48	4	4	2	I	1	0	1149	0	Ⴏ	cut_u_stereo_44KHz.wav
4	49	3	3	2	I	1	0	1213	0	Ⴖ	cut_a_stereo_44KHz.wav
4	50	4	4	2	I	2	0	1054	1	Ⴏ	cut_u_stereo_44KHz.wav
4	51	1	2	0	C	2	1	1244	1	Ⴒ	cut_o_stereo_44KHz.wav
4	52	2	1	0	C	2	1	910	1	Ⴔ	cut_k_stereo_44KHz.wav
4	53	1	1	1	C	1	1	1929	1	Ⴒ	cut_k_stereo_44KHz.wav
4	54	2	2	1	C	1	1	873	1	Ⴔ	cut_o_stereo_44KHz.wav
4	55	4	3	2	I	1	0	1501	1	Ⴏ	cut_a_stereo_44KHz.wav
4	56	3	4	2	I	2	0	819	1	Ⴖ	cut_u_stereo_44KHz.wav
4	57	2	2	1	C	1	1	825	1	Ⴔ	cut_o_stereo_44KHz.wav
4	58	3	4	2	I	2	0	870	0	Ⴖ	cut_u_stereo_44KHz.wav
4	59	4	3	2	I	1	0	1198	0	Ⴏ	cut_a_stereo_44KHz.wav
4	60	1	1	1	C	1	1	962	1	Ⴒ	cut_k_stereo_44KHz.wav
4	61	3	3	2	I	1	0	1401	0	Ⴖ	cut_a_stereo_44KHz.wav
4	62	1	2	0	C	1	0	1187	0	Ⴒ	cut_o_stereo_44KHz.wav
4	63	4	4	2	I	2	0	1676	1	Ⴏ	cut_u_stereo_44KHz.wav
4	64	2	1	0	C	2	1	890	1	Ⴔ	cut_k_stereo_44KHz.wav
4	65	1	1	1	C	1	1	865	1	Ⴒ	cut_k_stereo_44KHz.wav
4	66	2	2	1	C	1	1	1040	1	Ⴔ	cut_o_stereo_44KHz.wav
4	67	3	4	2	I	2	0	999	1	Ⴖ	cut_u_stereo_44KHz.wav
4	68	4	3	2	I	2	0	1419	0	Ⴏ	cut_a_stereo_44KHz.wav
4	69	1	2	0	C	2	1	1174	1	Ⴒ	cut_o_stereo_44KHz.wav
4	70	2	1	0	C	2	1	719	1	Ⴔ	cut_k_stereo_44KHz.wav
4	71	3	3	2	I	2	0	1314	1	Ⴖ	cut_a_stereo_44KHz.wav
4	72	4	4	2	I	2	0	1301	0	Ⴏ	cut_u_stereo_44KHz.wav
4	73	2	2	1	C	1	1	1614	1	Ⴔ	cut_o_stereo_44KHz.wav
4	74	4	4	2	I	2	0	1114	1	Ⴏ	cut_u_stereo_44KHz.wav
4	75	3	4	2	I	1	0	1023	1	Ⴖ	cut_u_stereo_44KHz.wav
4	76	1	1	1	C	1	1	1665	1	Ⴒ	cut_k_stereo_44KHz.wav
4	77	4	3	2	I	2	0	875	1	Ⴏ	cut_a_stereo_44KHz.wav
4	78	3	3	2	I	1	0	917	1	Ⴖ	cut_a_stereo_44KHz.wav
4	79	2	1	0	C	2	1	739	1	Ⴔ	cut_k_stereo_44KHz.wav
4	80	1	2	0	C	2	1	1041	1	Ⴒ	cut_o_stereo_44KHz.wav
4	81	4	4	2	I	2	0	1047	1	Ⴏ	cut_u_stereo_44KHz.wav
4	82	1	1	1	C	1	1	993	1	Ⴒ	cut_k_stereo_44KHz.wav
4	83	3	4	2	I	2	0	1026	1	Ⴖ	cut_u_stereo_44KHz.wav
4	84	2	2	1	C	2	0	920	0	Ⴔ	cut_o_stereo_44KHz.wav
4	85	3	3	2	I	2	0	970	1	Ⴖ	cut_a_stereo_44KHz.wav
4	86	4	3	2	I	2	0	1518	1	Ⴏ	cut_a_stereo_44KHz.wav
4	87	2	1	0	C	2	1	705	1	Ⴔ	cut_k_stereo_44KHz.wav
4	88	1	2	0	C	1	0	645	0	Ⴒ	cut_o_stereo_44KHz.wav
4	89	3	3	2	I	2	0	933	0	Ⴖ	cut_a_stereo_44KHz.wav
4	90	1	2	0	C	1	0	1568	0	Ⴒ	cut_o_stereo_44KHz.wav
4	91	2	2	1	C	1	1	1245	1	Ⴔ	cut_o_stereo_44KHz.wav
4	92	4	4	2	I	2	0	759	1	Ⴏ	cut_u_stereo_44KHz.wav
4	93	1	1	1	C	1	1	1357	1	Ⴒ	cut_k_stereo_44KHz.wav
4	94	3	4	2	I	2	0	1007	0	Ⴖ	cut_u_stereo_44KHz.wav
4	95	4	3	2	I	2	0	1178	1	Ⴏ	cut_a_stereo_44KHz.wav
4	96	2	1	0	C	2	1	691	1	Ⴔ	cut_k_stereo_44KHz.wav
4	97	3	3	2	I	1	0	986	0	Ⴖ	cut_a_stereo_44KHz.wav
4	98	4	4	2	I	2	0	634	0	Ⴏ	cut_u_stereo_44KHz.wav
4	99	1	2	0	C	2	1	985	1	Ⴒ	cut_o_stereo_44KHz.wav
4	100	2	1	0	C	2	1	643	1	Ⴔ	cut_k_stereo_44KHz.wav
4	101	4	3	2	I	1	0	1491	0	Ⴏ	cut_a_stereo_44KHz.wav
4	102	2	2	1	C	2	0	1046	0	Ⴔ	cut_o_stereo_44KHz.wav
4	103	1	1	1	C	1	1	1811	1	Ⴒ	cut_k_stereo_44KHz.wav
4	104	3	4	2	I	2	0	787	1	Ⴖ	cut_u_stereo_44KHz.wav
4	105	4	4	2	I	2	0	775	1	Ⴏ	cut_u_stereo_44KHz.wav
4	106	1	2	0	C	2	1	1366	1	Ⴒ	cut_o_stereo_44KHz.wav
4	107	2	2	1	C	1	1	1583	1	Ⴔ	cut_o_stereo_44KHz.wav
4	108	3	4	2	I	2	0	886	0	Ⴖ	cut_u_stereo_44KHz.wav
4	109	4	3	2	I	2	0	1230	0	Ⴏ	cut_a_stereo_44KHz.wav
4	110	1	1	1	C	2	0	1007	0	Ⴒ	cut_k_stereo_44KHz.wav
4	111	3	3	2	I	2	0	825	0	Ⴖ	cut_a_stereo_44KHz.wav
4	112	2	1	0	C	2	1	1677	1	Ⴔ	cut_k_stereo_44KHz.wav
4	113	4	4	2	I	1	0	965	1	Ⴏ	cut_u_stereo_44KHz.wav
4	114	2	2	1	C	1	1	1809	1	Ⴔ	cut_o_stereo_44KHz.wav
4	115	3	3	2	I	2	0	923	1	Ⴖ	cut_a_stereo_44KHz.wav
4	116	1	1	1	C	1	1	1638	1	Ⴒ	cut_k_stereo_44KHz.wav
4	117	3	4	2	I	1	0	919	0	Ⴖ	cut_u_stereo_44KHz.wav
4	118	1	2	0	C	2	1	927	1	Ⴒ	cut_o_stereo_44KHz.wav
4	119	4	3	2	I	2	0	959	0	Ⴏ	cut_a_stereo_44KHz.wav
4	120	2	1	0	C	2	1	1607	1	Ⴔ	cut_k_stereo_44KHz.wav
4	121	3	4	2	I	2	0	886	0	Ⴖ	cut_u_stereo_44KHz.wav
4	122	1	1	1	C	1	1	1380	1	Ⴒ	cut_k_stereo_44KHz.wav
4	123	2	1	0	C	2	1	686	1	Ⴔ	cut_k_stereo_44KHz.wav
4	124	4	4	2	I	1	0	1057	0	Ⴏ	cut_u_stereo_44KHz.wav
4	125	1	2	0	C	2	1	1546	1	Ⴒ	cut_o_stereo_44KHz.wav
4	126	4	3	2	I	2	0	1070	1	Ⴏ	cut_a_stereo_44KHz.wav
4	127	2	2	1	C	0	0	0	0	Ⴔ	cut_o_stereo_44KHz.wav
4	128	3	3	2	I	2	0	779	1	Ⴖ	cut_a_stereo_44KHz.wav
4	129	1	1	1	C	1	1	915	1	Ⴒ	cut_k_stereo_44KHz.wav
4	130	3	3	2	I	2	0	967	0	Ⴖ	cut_a_stereo_44KHz.wav
4	131	2	1	0	C	2	1	679	1	Ⴔ	cut_k_stereo_44KHz.wav
4	132	4	4	2	I	1	0	951	0	Ⴏ	cut_u_stereo_44KHz.wav
4	133	2	2	1	C	1	1	841	1	Ⴔ	cut_o_stereo_44KHz.wav
4	134	1	2	0	C	2	1	954	1	Ⴒ	cut_o_stereo_44KHz.wav
4	135	4	3	2	I	2	0	1001	0	Ⴏ	cut_a_stereo_44KHz.wav
4	136	3	4	2	I	2	0	1153	0	Ⴖ	cut_u_stereo_44KHz.wav
4	137	4	3	2	I	2	0	770	0	Ⴏ	cut_a_stereo_44KHz.wav
4	138	3	4	2	I	2	0	957	0	Ⴖ	cut_u_stereo_44KHz.wav
4	139	1	1	1	C	1	1	1225	1	Ⴒ	cut_k_stereo_44KHz.wav
4	140	2	1	0	C	2	1	308	1	Ⴔ	cut_k_stereo_44KHz.wav
4	141	4	4	2	I	2	0	277	1	Ⴏ	cut_u_stereo_44KHz.wav
4	142	2	2	1	C	1	1	1017	1	Ⴔ	cut_o_stereo_44KHz.wav
4	143	3	3	2	I	2	0	705	1	Ⴖ	cut_a_stereo_44KHz.wav
4	144	1	2	0	C	1	0	1148	0	Ⴒ	cut_o_stereo_44KHz.wav
4	145	4	4	2	I	2	0	867	0	Ⴏ	cut_u_stereo_44KHz.wav
4	146	3	3	2	I	2	0	1141	0	Ⴖ	cut_a_stereo_44KHz.wav
4	147	2	2	1	C	1	1	1290	1	Ⴔ	cut_o_stereo_44KHz.wav
4	148	1	1	1	C	1	1	1159	1	Ⴒ	cut_k_stereo_44KHz.wav
4	149	4	3	2	I	2	0	607	0	Ⴏ	cut_a_stereo_44KHz.wav
4	150	2	1	0	C	2	1	35	1	Ⴔ	cut_k_stereo_44KHz.wav
4	151	3	4	2	I	2	0	785	1	Ⴖ	cut_u_stereo_44KHz.wav
4	152	1	2	0	C	2	1	1303	1	Ⴒ	cut_o_stereo_44KHz.wav
4	153	2	2	1	C	1	1	836	1	Ⴔ	cut_o_stereo_44KHz.wav
4	154	1	1	1	C	1	1	1053	1	Ⴒ	cut_k_stereo_44KHz.wav
4	155	3	4	2	I	2	0	1129	0	Ⴖ	cut_u_stereo_44KHz.wav
4	156	4	3	2	I	2	0	1083	1	Ⴏ	cut_a_stereo_44KHz.wav
4	157	1	2	0	C	1	0	1229	0	Ⴒ	cut_o_stereo_44KHz.wav
4	158	4	4	2	I	2	0	741	0	Ⴏ	cut_u_stereo_44KHz.wav
4	159	3	3	2	I	2	0	994	1	Ⴖ	cut_a_stereo_44KHz.wav
4	160	2	1	0	C	2	1	1564	1	Ⴔ	cut_k_stereo_44KHz.wav
4	161	1	1	1	C	1	1	901	1	Ⴒ	cut_k_stereo_44KHz.wav
4	162	4	4	2	I	2	0	690	0	Ⴏ	cut_u_stereo_44KHz.wav
4	163	2	2	1	C	2	0	785	0	Ⴔ	cut_o_stereo_44KHz.wav
4	164	3	3	2	I	1	0	1024	0	Ⴖ	cut_a_stereo_44KHz.wav
4	165	1	2	0	C	2	1	1360	1	Ⴒ	cut_o_stereo_44KHz.wav
4	166	2	1	0	C	2	1	818	1	Ⴔ	cut_k_stereo_44KHz.wav
4	167	3	4	2	I	2	0	948	1	Ⴖ	cut_u_stereo_44KHz.wav
4	168	4	3	2	I	2	0	1591	1	Ⴏ	cut_a_stereo_44KHz.wav
4	169	2	2	1	C	2	0	1860	0	Ⴔ	cut_o_stereo_44KHz.wav
4	170	1	2	0	C	2	1	963	1	Ⴒ	cut_o_stereo_44KHz.wav
4	171	4	4	2	I	2	0	838	1	Ⴏ	cut_u_stereo_44KHz.wav
4	172	3	3	2	I	1	0	1443	1	Ⴖ	cut_a_stereo_44KHz.wav
4	173	1	1	1	C	1	1	1698	1	Ⴒ	cut_k_stereo_44KHz.wav
4	174	4	3	2	I	2	0	872	1	Ⴏ	cut_a_stereo_44KHz.wav
4	175	3	4	2	I	2	0	717	0	Ⴖ	cut_u_stereo_44KHz.wav
4	176	2	1	0	C	2	1	1398	1	Ⴔ	cut_k_stereo_44KHz.wav
4	177	3	4	2	I	2	0	1330	1	Ⴖ	cut_u_stereo_44KHz.wav
4	178	1	1	1	C	1	1	952	1	Ⴒ	cut_k_stereo_44KHz.wav
4	179	2	2	1	C	1	1	1161	1	Ⴔ	cut_o_stereo_44KHz.wav
4	180	4	3	2	I	2	0	878	0	Ⴏ	cut_a_stereo_44KHz.wav
4	181	3	3	2	I	2	0	683	0	Ⴖ	cut_a_stereo_44KHz.wav
4	182	4	4	2	I	2	0	728	1	Ⴏ	cut_u_stereo_44KHz.wav
4	183	1	2	0	C	2	1	1059	1	Ⴒ	cut_o_stereo_44KHz.wav
4	184	2	1	0	C	2	1	925	1	Ⴔ	cut_k_stereo_44KHz.wav
4	185	3	3	2	I	1	0	665	1	Ⴖ	cut_a_stereo_44KHz.wav
4	186	2	1	0	C	2	1	873	1	Ⴔ	cut_k_stereo_44KHz.wav
4	187	1	1	1	C	1	1	1149	1	Ⴒ	cut_k_stereo_44KHz.wav
4	188	4	4	2	I	2	0	749	0	Ⴏ	cut_u_stereo_44KHz.wav
4	189	1	2	0	C	2	1	979	1	Ⴒ	cut_o_stereo_44KHz.wav
4	190	4	3	2	I	2	0	651	1	Ⴏ	cut_a_stereo_44KHz.wav
4	191	2	2	1	C	2	0	886	0	Ⴔ	cut_o_stereo_44KHz.wav
4	192	3	4	2	I	2	0	719	0	Ⴖ	cut_u_stereo_44KHz.wav
4	193	4	4	2	I	2	0	787	1	Ⴏ	cut_u_stereo_44KHz.wav
4	194	3	3	2	I	2	0	1400	1	Ⴖ	cut_a_stereo_44KHz.wav
4	195	1	2	0	C	2	1	1509	1	Ⴒ	cut_o_stereo_44KHz.wav
4	196	2	2	1	C	1	1	1934	1	Ⴔ	cut_o_stereo_44KHz.wav
4	197	4	3	2	I	1	0	1139	1	Ⴏ	cut_a_stereo_44KHz.wav
4	198	1	1	1	C	1	1	1025	1	Ⴒ	cut_k_stereo_44KHz.wav
4	199	2	1	0	C	2	1	1178	1	Ⴔ	cut_k_stereo_44KHz.wav
4	200	3	4	2	I	1	0	1411	1	Ⴖ	cut_u_stereo_44KHz.wav
