block	trial	Vstim	Astim	match	C/I	resp	result	RT	fb	V-file	A-file
LR

0	1	2	3	1	C	2	1	1313	1	Ⴉ	cut_eeuw_stereo_44KHz.wav
0	2	1	1	1	C	1	0	1056	0	Ⴋ	cut_g_stereo_44KHz.wav
0	3	2	4	0	C	2	0	1089	0	Ⴉ	cut_ee_stereo_44KHz.wav
0	4	1	2	0	C	1	1	1170	1	Ⴋ	cut_oo_stereo_44KHz.wav
0	5	2	3	1	C	2	1	1200	1	Ⴉ	cut_eeuw_stereo_44KHz.wav
0	6	2	4	0	C	2	0	1364	0	Ⴉ	cut_ee_stereo_44KHz.wav
0	7	1	1	1	C	2	1	1057	1	Ⴋ	cut_g_stereo_44KHz.wav
0	8	1	2	0	C	1	1	864	1	Ⴋ	cut_oo_stereo_44KHz.wav
0	9	1	1	1	C	2	1	869	1	Ⴋ	cut_g_stereo_44KHz.wav
0	10	1	2	0	C	1	1	676	1	Ⴋ	cut_oo_stereo_44KHz.wav
0	11	2	4	0	C	2	0	928	0	Ⴉ	cut_ee_stereo_44KHz.wav
0	12	2	3	1	C	1	0	1231	0	Ⴉ	cut_eeuw_stereo_44KHz.wav
0	13	1	2	0	C	2	0	1002	0	Ⴋ	cut_oo_stereo_44KHz.wav
0	14	2	4	0	C	0	0	0	0	Ⴉ	cut_ee_stereo_44KHz.wav
0	15	2	3	1	C	1	0	1386	0	Ⴉ	cut_eeuw_stereo_44KHz.wav
0	16	1	1	1	C	1	0	1663	0	Ⴋ	cut_g_stereo_44KHz.wav
0	17	2	4	0	C	1	1	1338	1	Ⴉ	cut_ee_stereo_44KHz.wav
0	18	1	1	1	C	2	1	885	1	Ⴋ	cut_g_stereo_44KHz.wav
0	19	1	2	0	C	1	1	730	1	Ⴋ	cut_oo_stereo_44KHz.wav
0	20	2	3	1	C	2	1	1112	1	Ⴉ	cut_eeuw_stereo_44KHz.wav
0	21	2	3	1	C	2	1	1259	1	Ⴉ	cut_eeuw_stereo_44KHz.wav
0	22	2	4	0	C	1	1	1367	1	Ⴉ	cut_ee_stereo_44KHz.wav
0	23	1	2	0	C	1	1	1378	1	Ⴋ	cut_oo_stereo_44KHz.wav
0	24	1	1	1	C	2	1	760	1	Ⴋ	cut_g_stereo_44KHz.wav
0	25	1	1	1	C	1	0	1118	0	Ⴋ	cut_g_stereo_44KHz.wav
0	26	1	2	0	C	1	1	687	1	Ⴋ	cut_oo_stereo_44KHz.wav
0	27	2	3	1	C	2	1	868	1	Ⴉ	cut_eeuw_stereo_44KHz.wav
0	28	2	4	0	C	1	1	789	1	Ⴉ	cut_ee_stereo_44KHz.wav
0	29	1	2	0	C	1	1	680	1	Ⴋ	cut_oo_stereo_44KHz.wav
0	30	2	4	0	C	1	1	590	1	Ⴉ	cut_ee_stereo_44KHz.wav
avg_resp = 980
1	1	3	3	2	I	1	0	1056	0	Ⴁ	cut_l_stereo_44KHz.wav
1	2	1	2	0	C	1	1	899	1	Ⴃ	cut_g_stereo_44KHz.wav
1	3	4	3	2	I	0	0	0	0	Ⴂ	cut_l_stereo_44KHz.wav
1	4	2	2	1	C	2	1	929	1	Ⴡ	cut_g_stereo_44KHz.wav
1	5	1	1	1	C	2	1	944	1	Ⴃ	cut_w_stereo_44KHz.wav
1	6	3	4	2	I	2	0	896	1	Ⴁ	cut_h_stereo_44KHz.wav
1	7	2	1	0	C	2	0	897	0	Ⴡ	cut_w_stereo_44KHz.wav
1	8	4	4	2	I	1	0	1069	0	Ⴂ	cut_h_stereo_44KHz.wav
1	9	1	1	1	C	2	1	1130	1	Ⴃ	cut_w_stereo_44KHz.wav
1	10	3	4	2	I	2	0	921	0	Ⴁ	cut_h_stereo_44KHz.wav
1	11	2	2	1	C	1	0	857	0	Ⴡ	cut_g_stereo_44KHz.wav
1	12	4	4	2	I	1	0	901	1	Ⴂ	cut_h_stereo_44KHz.wav
1	13	3	3	2	I	2	0	894	0	Ⴁ	cut_l_stereo_44KHz.wav
1	14	4	3	2	I	2	0	1234	1	Ⴂ	cut_l_stereo_44KHz.wav
1	15	2	1	0	C	1	1	1077	1	Ⴡ	cut_w_stereo_44KHz.wav
1	16	1	2	0	C	1	1	1196	1	Ⴃ	cut_g_stereo_44KHz.wav
1	17	3	4	2	I	1	0	1072	1	Ⴁ	cut_h_stereo_44KHz.wav
1	18	2	1	0	C	1	1	915	1	Ⴡ	cut_w_stereo_44KHz.wav
1	19	1	1	1	C	2	1	1205	1	Ⴃ	cut_w_stereo_44KHz.wav
1	20	4	3	2	I	1	0	883	0	Ⴂ	cut_l_stereo_44KHz.wav
1	21	3	3	2	I	1	0	878	0	Ⴁ	cut_l_stereo_44KHz.wav
1	22	2	2	1	C	2	1	1156	1	Ⴡ	cut_g_stereo_44KHz.wav
1	23	1	2	0	C	1	1	990	1	Ⴃ	cut_g_stereo_44KHz.wav
1	24	4	4	2	I	1	0	859	0	Ⴂ	cut_h_stereo_44KHz.wav
1	25	3	3	2	I	2	0	1373	1	Ⴁ	cut_l_stereo_44KHz.wav
1	26	1	2	0	C	1	1	858	1	Ⴃ	cut_g_stereo_44KHz.wav
1	27	2	1	0	C	1	1	753	1	Ⴡ	cut_w_stereo_44KHz.wav
1	28	4	4	2	I	1	0	1123	0	Ⴂ	cut_h_stereo_44KHz.wav
1	29	2	2	1	C	2	1	956	1	Ⴡ	cut_g_stereo_44KHz.wav
1	30	4	3	2	I	1	0	1110	0	Ⴂ	cut_l_stereo_44KHz.wav
1	31	1	1	1	C	2	1	854	1	Ⴃ	cut_w_stereo_44KHz.wav
1	32	3	4	2	I	1	0	968	0	Ⴁ	cut_h_stereo_44KHz.wav
1	33	4	3	2	I	2	0	1058	0	Ⴂ	cut_l_stereo_44KHz.wav
1	34	3	4	2	I	2	0	1213	0	Ⴁ	cut_h_stereo_44KHz.wav
1	35	2	1	0	C	1	1	940	1	Ⴡ	cut_w_stereo_44KHz.wav
1	36	1	2	0	C	1	1	744	1	Ⴃ	cut_g_stereo_44KHz.wav
1	37	4	4	2	I	2	0	1180	0	Ⴂ	cut_h_stereo_44KHz.wav
1	38	1	1	1	C	1	0	825	0	Ⴃ	cut_w_stereo_44KHz.wav
1	39	3	3	2	I	1	0	1126	0	Ⴁ	cut_l_stereo_44KHz.wav
1	40	2	2	1	C	2	1	958	1	Ⴡ	cut_g_stereo_44KHz.wav
1	41	4	3	2	I	1	0	836	0	Ⴂ	cut_l_stereo_44KHz.wav
1	42	1	1	1	C	2	1	1077	1	Ⴃ	cut_w_stereo_44KHz.wav
1	43	2	2	1	C	2	1	707	1	Ⴡ	cut_g_stereo_44KHz.wav
1	44	3	3	2	I	1	0	1008	1	Ⴁ	cut_l_stereo_44KHz.wav
1	45	2	1	0	C	2	0	829	0	Ⴡ	cut_w_stereo_44KHz.wav
1	46	3	4	2	I	1	0	1137	1	Ⴁ	cut_h_stereo_44KHz.wav
1	47	4	4	2	I	2	0	973	1	Ⴂ	cut_h_stereo_44KHz.wav
1	48	1	2	0	C	1	1	714	1	Ⴃ	cut_g_stereo_44KHz.wav
1	49	3	4	2	I	1	0	1071	0	Ⴁ	cut_h_stereo_44KHz.wav
1	50	2	2	1	C	2	1	911	1	Ⴡ	cut_g_stereo_44KHz.wav
1	51	4	3	2	I	1	0	769	1	Ⴂ	cut_l_stereo_44KHz.wav
1	52	1	2	0	C	1	1	913	1	Ⴃ	cut_g_stereo_44KHz.wav
1	53	4	4	2	I	1	0	966	1	Ⴂ	cut_h_stereo_44KHz.wav
1	54	2	1	0	C	1	1	840	1	Ⴡ	cut_w_stereo_44KHz.wav
1	55	1	1	1	C	2	1	769	1	Ⴃ	cut_w_stereo_44KHz.wav
1	56	3	3	2	I	1	0	767	0	Ⴁ	cut_l_stereo_44KHz.wav
1	57	2	2	1	C	2	1	1116	1	Ⴡ	cut_g_stereo_44KHz.wav
1	58	4	3	2	I	1	0	940	1	Ⴂ	cut_l_stereo_44KHz.wav
1	59	3	3	2	I	1	0	959	1	Ⴁ	cut_l_stereo_44KHz.wav
1	60	1	1	1	C	2	1	819	1	Ⴃ	cut_w_stereo_44KHz.wav
1	61	3	4	2	I	1	0	878	1	Ⴁ	cut_h_stereo_44KHz.wav
1	62	4	4	2	I	2	0	980	1	Ⴂ	cut_h_stereo_44KHz.wav
1	63	1	2	0	C	1	1	701	1	Ⴃ	cut_g_stereo_44KHz.wav
1	64	2	1	0	C	1	1	705	1	Ⴡ	cut_w_stereo_44KHz.wav
1	65	1	1	1	C	2	1	688	1	Ⴃ	cut_w_stereo_44KHz.wav
1	66	3	3	2	I	1	0	1059	1	Ⴁ	cut_l_stereo_44KHz.wav
1	67	2	2	1	C	2	1	854	1	Ⴡ	cut_g_stereo_44KHz.wav
1	68	4	4	2	I	1	0	1005	1	Ⴂ	cut_h_stereo_44KHz.wav
1	69	3	4	2	I	1	0	870	1	Ⴁ	cut_h_stereo_44KHz.wav
1	70	4	3	2	I	1	0	1013	0	Ⴂ	cut_l_stereo_44KHz.wav
1	71	1	2	0	C	1	1	707	1	Ⴃ	cut_g_stereo_44KHz.wav
1	72	2	1	0	C	1	1	835	1	Ⴡ	cut_w_stereo_44KHz.wav
1	73	4	3	2	I	1	0	815	0	Ⴂ	cut_l_stereo_44KHz.wav
1	74	2	2	1	C	2	1	768	1	Ⴡ	cut_g_stereo_44KHz.wav
1	75	3	3	2	I	1	0	967	1	Ⴁ	cut_l_stereo_44KHz.wav
1	76	1	1	1	C	2	1	769	1	Ⴃ	cut_w_stereo_44KHz.wav
1	77	2	1	0	C	1	1	1250	1	Ⴡ	cut_w_stereo_44KHz.wav
1	78	3	4	2	I	1	0	819	1	Ⴁ	cut_h_stereo_44KHz.wav
1	79	4	4	2	I	1	0	1132	1	Ⴂ	cut_h_stereo_44KHz.wav
1	80	1	2	0	C	1	1	776	1	Ⴃ	cut_g_stereo_44KHz.wav
1	81	2	2	1	C	2	1	759	1	Ⴡ	cut_g_stereo_44KHz.wav
1	82	1	1	1	C	2	1	1485	1	Ⴃ	cut_w_stereo_44KHz.wav
1	83	4	3	2	I	1	0	850	1	Ⴂ	cut_l_stereo_44KHz.wav
1	84	3	3	2	I	2	0	850	0	Ⴁ	cut_l_stereo_44KHz.wav
1	85	1	2	0	C	1	1	813	1	Ⴃ	cut_g_stereo_44KHz.wav
1	86	4	4	2	I	2	0	857	0	Ⴂ	cut_h_stereo_44KHz.wav
1	87	2	1	0	C	1	1	736	1	Ⴡ	cut_w_stereo_44KHz.wav
1	88	3	4	2	I	1	0	782	1	Ⴁ	cut_h_stereo_44KHz.wav
1	89	1	1	1	C	2	1	766	1	Ⴃ	cut_w_stereo_44KHz.wav
1	90	2	1	0	C	1	1	761	1	Ⴡ	cut_w_stereo_44KHz.wav
1	91	4	4	2	I	1	0	822	0	Ⴂ	cut_h_stereo_44KHz.wav
1	92	3	4	2	I	1	0	800	1	Ⴁ	cut_h_stereo_44KHz.wav
1	93	1	2	0	C	1	1	1177	1	Ⴃ	cut_g_stereo_44KHz.wav
1	94	3	3	2	I	2	0	1021	1	Ⴁ	cut_l_stereo_44KHz.wav
1	95	2	2	1	C	2	1	914	1	Ⴡ	cut_g_stereo_44KHz.wav
1	96	4	3	2	I	1	0	1065	1	Ⴂ	cut_l_stereo_44KHz.wav
1	97	2	2	1	C	2	1	788	1	Ⴡ	cut_g_stereo_44KHz.wav
1	98	3	4	2	I	1	0	1199	1	Ⴁ	cut_h_stereo_44KHz.wav
1	99	4	4	2	I	2	0	778	0	Ⴂ	cut_h_stereo_44KHz.wav
1	100	1	2	0	C	1	1	998	1	Ⴃ	cut_g_stereo_44KHz.wav
1	101	2	1	0	C	1	1	656	1	Ⴡ	cut_w_stereo_44KHz.wav
1	102	1	1	1	C	2	1	860	1	Ⴃ	cut_w_stereo_44KHz.wav
1	103	4	3	2	I	1	0	893	1	Ⴂ	cut_l_stereo_44KHz.wav
1	104	3	3	2	I	1	0	847	0	Ⴁ	cut_l_stereo_44KHz.wav
1	105	2	1	0	C	1	1	754	1	Ⴡ	cut_w_stereo_44KHz.wav
1	106	3	3	2	I	2	0	1060	1	Ⴁ	cut_l_stereo_44KHz.wav
1	107	4	4	2	I	1	0	832	0	Ⴂ	cut_h_stereo_44KHz.wav
1	108	1	1	1	C	2	1	875	1	Ⴃ	cut_w_stereo_44KHz.wav
1	109	2	2	1	C	2	1	778	1	Ⴡ	cut_g_stereo_44KHz.wav
1	110	3	4	2	I	1	0	806	0	Ⴁ	cut_h_stereo_44KHz.wav
1	111	1	2	0	C	1	1	679	1	Ⴃ	cut_g_stereo_44KHz.wav
1	112	4	3	2	I	1	0	766	0	Ⴂ	cut_l_stereo_44KHz.wav
1	113	1	2	0	C	1	1	811	1	Ⴃ	cut_g_stereo_44KHz.wav
1	114	4	3	2	I	2	0	1199	0	Ⴂ	cut_l_stereo_44KHz.wav
1	115	3	3	2	I	2	0	1019	0	Ⴁ	cut_l_stereo_44KHz.wav
1	116	2	1	0	C	1	1	755	1	Ⴡ	cut_w_stereo_44KHz.wav
1	117	4	4	2	I	2	0	963	0	Ⴂ	cut_h_stereo_44KHz.wav
1	118	3	4	2	I	1	0	933	0	Ⴁ	cut_h_stereo_44KHz.wav
1	119	1	1	1	C	2	1	1431	1	Ⴃ	cut_w_stereo_44KHz.wav
1	120	2	2	1	C	2	1	666	1	Ⴡ	cut_g_stereo_44KHz.wav
1	121	1	1	1	C	2	1	637	1	Ⴃ	cut_w_stereo_44KHz.wav
1	122	4	4	2	I	1	0	1032	1	Ⴂ	cut_h_stereo_44KHz.wav
1	123	3	3	2	I	1	0	985	1	Ⴁ	cut_l_stereo_44KHz.wav
1	124	2	1	0	C	1	1	918	1	Ⴡ	cut_w_stereo_44KHz.wav
1	125	1	2	0	C	1	1	729	1	Ⴃ	cut_g_stereo_44KHz.wav
1	126	2	2	1	C	2	1	736	1	Ⴡ	cut_g_stereo_44KHz.wav
1	127	3	4	2	I	1	0	741	1	Ⴁ	cut_h_stereo_44KHz.wav
1	128	4	3	2	I	1	0	762	1	Ⴂ	cut_l_stereo_44KHz.wav
1	129	2	1	0	C	1	1	872	1	Ⴡ	cut_w_stereo_44KHz.wav
1	130	1	1	1	C	2	1	830	1	Ⴃ	cut_w_stereo_44KHz.wav
1	131	4	3	2	I	1	0	753	0	Ⴂ	cut_l_stereo_44KHz.wav
1	132	3	4	2	I	1	0	785	1	Ⴁ	cut_h_stereo_44KHz.wav
1	133	4	4	2	I	2	0	1262	1	Ⴂ	cut_h_stereo_44KHz.wav
1	134	2	2	1	C	2	1	746	1	Ⴡ	cut_g_stereo_44KHz.wav
1	135	3	3	2	I	2	0	1164	0	Ⴁ	cut_l_stereo_44KHz.wav
1	136	1	2	0	C	1	1	714	1	Ⴃ	cut_g_stereo_44KHz.wav
1	137	2	1	0	C	1	1	981	1	Ⴡ	cut_w_stereo_44KHz.wav
1	138	1	2	0	C	1	1	637	1	Ⴃ	cut_g_stereo_44KHz.wav
1	139	3	3	2	I	2	0	1304	0	Ⴁ	cut_l_stereo_44KHz.wav
1	140	4	4	2	I	2	0	1514	0	Ⴂ	cut_h_stereo_44KHz.wav
1	141	1	1	1	C	2	1	1585	1	Ⴃ	cut_w_stereo_44KHz.wav
1	142	2	2	1	C	2	1	817	1	Ⴡ	cut_g_stereo_44KHz.wav
1	143	4	3	2	I	1	0	838	1	Ⴂ	cut_l_stereo_44KHz.wav
1	144	3	4	2	I	1	0	722	0	Ⴁ	cut_h_stereo_44KHz.wav
1	145	4	4	2	I	2	0	1362	1	Ⴂ	cut_h_stereo_44KHz.wav
1	146	2	2	1	C	2	1	788	1	Ⴡ	cut_g_stereo_44KHz.wav
1	147	3	4	2	I	1	0	750	0	Ⴁ	cut_h_stereo_44KHz.wav
1	148	1	2	0	C	1	1	798	1	Ⴃ	cut_g_stereo_44KHz.wav
1	149	3	3	2	I	2	0	1194	0	Ⴁ	cut_l_stereo_44KHz.wav
1	150	4	3	2	I	1	0	1144	0	Ⴂ	cut_l_stereo_44KHz.wav
1	151	2	1	0	C	1	1	785	1	Ⴡ	cut_w_stereo_44KHz.wav
1	152	1	1	1	C	2	1	674	1	Ⴃ	cut_w_stereo_44KHz.wav
1	153	4	4	2	I	2	0	1195	0	Ⴂ	cut_h_stereo_44KHz.wav
1	154	2	1	0	C	1	1	939	1	Ⴡ	cut_w_stereo_44KHz.wav
1	155	1	1	1	C	2	1	669	1	Ⴃ	cut_w_stereo_44KHz.wav
1	156	3	3	2	I	1	0	825	0	Ⴁ	cut_l_stereo_44KHz.wav
1	157	1	2	0	C	1	1	889	1	Ⴃ	cut_g_stereo_44KHz.wav
1	158	4	3	2	I	1	0	752	1	Ⴂ	cut_l_stereo_44KHz.wav
1	159	3	4	2	I	1	0	693	0	Ⴁ	cut_h_stereo_44KHz.wav
1	160	2	2	1	C	2	1	743	1	Ⴡ	cut_g_stereo_44KHz.wav
1	161	1	1	1	C	2	1	855	1	Ⴃ	cut_w_stereo_44KHz.wav
1	162	3	3	2	I	1	0	843	0	Ⴁ	cut_l_stereo_44KHz.wav
1	163	4	4	2	I	2	0	961	0	Ⴂ	cut_h_stereo_44KHz.wav
1	164	2	1	0	C	1	1	636	1	Ⴡ	cut_w_stereo_44KHz.wav
1	165	1	2	0	C	1	1	669	1	Ⴃ	cut_g_stereo_44KHz.wav
1	166	2	2	1	C	2	1	824	1	Ⴡ	cut_g_stereo_44KHz.wav
1	167	4	3	2	I	1	0	1267	1	Ⴂ	cut_l_stereo_44KHz.wav
1	168	3	4	2	I	1	0	1172	1	Ⴁ	cut_h_stereo_44KHz.wav
1	169	2	2	1	C	2	1	790	1	Ⴡ	cut_g_stereo_44KHz.wav
1	170	1	2	0	C	1	1	805	1	Ⴃ	cut_g_stereo_44KHz.wav
1	171	4	3	2	I	1	0	1081	1	Ⴂ	cut_l_stereo_44KHz.wav
1	172	3	3	2	I	2	0	799	0	Ⴁ	cut_l_stereo_44KHz.wav
1	173	2	1	0	C	1	1	819	1	Ⴡ	cut_w_stereo_44KHz.wav
1	174	3	4	2	I	1	0	1131	1	Ⴁ	cut_h_stereo_44KHz.wav
1	175	1	1	1	C	2	1	737	1	Ⴃ	cut_w_stereo_44KHz.wav
1	176	4	4	2	I	1	0	938	1	Ⴂ	cut_h_stereo_44KHz.wav
1	177	1	1	1	C	2	1	697	1	Ⴃ	cut_w_stereo_44KHz.wav
1	178	2	1	0	C	1	1	652	1	Ⴡ	cut_w_stereo_44KHz.wav
1	179	4	3	2	I	1	0	649	0	Ⴂ	cut_l_stereo_44KHz.wav
1	180	3	3	2	I	1	0	987	1	Ⴁ	cut_l_stereo_44KHz.wav
1	181	4	4	2	I	1	0	845	0	Ⴂ	cut_h_stereo_44KHz.wav
1	182	3	4	2	I	1	0	844	1	Ⴁ	cut_h_stereo_44KHz.wav
1	183	2	2	1	C	2	1	773	1	Ⴡ	cut_g_stereo_44KHz.wav
1	184	1	2	0	C	1	1	776	1	Ⴃ	cut_g_stereo_44KHz.wav
1	185	4	4	2	I	1	0	850	1	Ⴂ	cut_h_stereo_44KHz.wav
1	186	1	2	0	C	1	1	925	1	Ⴃ	cut_g_stereo_44KHz.wav
1	187	3	4	2	I	1	0	793	0	Ⴁ	cut_h_stereo_44KHz.wav
1	188	2	1	0	C	1	1	810	1	Ⴡ	cut_w_stereo_44KHz.wav
1	189	4	3	2	I	1	0	979	1	Ⴂ	cut_l_stereo_44KHz.wav
1	190	2	2	1	C	2	1	934	1	Ⴡ	cut_g_stereo_44KHz.wav
1	191	1	1	1	C	2	1	784	1	Ⴃ	cut_w_stereo_44KHz.wav
1	192	3	3	2	I	1	0	1085	0	Ⴁ	cut_l_stereo_44KHz.wav
1	193	2	2	1	C	2	1	782	1	Ⴡ	cut_g_stereo_44KHz.wav
1	194	3	3	2	I	1	0	1059	1	Ⴁ	cut_l_stereo_44KHz.wav
1	195	1	2	0	C	1	1	712	1	Ⴃ	cut_g_stereo_44KHz.wav
1	196	4	3	2	I	2	0	962	0	Ⴂ	cut_l_stereo_44KHz.wav
1	197	3	4	2	I	1	0	746	1	Ⴁ	cut_h_stereo_44KHz.wav
1	198	1	1	1	C	2	1	941	1	Ⴃ	cut_w_stereo_44KHz.wav
1	199	2	1	0	C	2	0	793	0	Ⴡ	cut_w_stereo_44KHz.wav
1	200	4	4	2	I	1	0	753	1	Ⴂ	cut_h_stereo_44KHz.wav
2	1	3	3	2	I	2	0	1373	1	Ⴒ	cut_j_stereo_44KHz.wav
2	2	1	2	0	C	2	0	1037	0	Ⴌ	cut_ei_stereo_44KHz.wav
2	3	4	3	2	I	1	0	1053	0	Ⴔ	cut_j_stereo_44KHz.wav
2	4	2	2	1	C	2	1	846	1	Ⴐ	cut_ei_stereo_44KHz.wav
2	5	4	4	2	I	1	0	842	0	Ⴔ	cut_f_stereo_44KHz.wav
2	6	1	1	1	C	2	1	922	1	Ⴌ	cut_oei_stereo_44KHz.wav
2	7	3	4	2	I	2	0	705	1	Ⴒ	cut_f_stereo_44KHz.wav
2	8	2	1	0	C	2	0	728	0	Ⴐ	cut_oei_stereo_44KHz.wav
2	9	3	3	2	I	2	0	944	0	Ⴒ	cut_j_stereo_44KHz.wav
2	10	4	3	2	I	2	0	755	1	Ⴔ	cut_j_stereo_44KHz.wav
2	11	2	2	1	C	2	1	1001	1	Ⴐ	cut_ei_stereo_44KHz.wav
2	12	1	2	0	C	1	1	1027	1	Ⴌ	cut_ei_stereo_44KHz.wav
2	13	3	4	2	I	1	0	1338	0	Ⴒ	cut_f_stereo_44KHz.wav
2	14	1	1	1	C	2	1	793	1	Ⴌ	cut_oei_stereo_44KHz.wav
2	15	4	4	2	I	1	0	1014	0	Ⴔ	cut_f_stereo_44KHz.wav
2	16	2	1	0	C	2	0	744	0	Ⴐ	cut_oei_stereo_44KHz.wav
2	17	1	2	0	C	1	1	735	1	Ⴌ	cut_ei_stereo_44KHz.wav
2	18	3	4	2	I	1	0	1038	1	Ⴒ	cut_f_stereo_44KHz.wav
2	19	2	1	0	C	1	1	785	1	Ⴐ	cut_oei_stereo_44KHz.wav
2	20	4	4	2	I	2	0	834	1	Ⴔ	cut_f_stereo_44KHz.wav
2	21	3	3	2	I	1	0	813	0	Ⴒ	cut_j_stereo_44KHz.wav
2	22	4	3	2	I	2	0	1343	0	Ⴔ	cut_j_stereo_44KHz.wav
2	23	2	2	1	C	2	1	811	1	Ⴐ	cut_ei_stereo_44KHz.wav
2	24	1	1	1	C	2	1	777	1	Ⴌ	cut_oei_stereo_44KHz.wav
2	25	2	2	1	C	2	1	571	1	Ⴐ	cut_ei_stereo_44KHz.wav
2	26	1	2	0	C	1	1	712	1	Ⴌ	cut_ei_stereo_44KHz.wav
2	27	3	4	2	I	1	0	1029	0	Ⴒ	cut_f_stereo_44KHz.wav
2	28	4	4	2	I	1	0	868	0	Ⴔ	cut_f_stereo_44KHz.wav
2	29	3	3	2	I	1	0	1109	0	Ⴒ	cut_j_stereo_44KHz.wav
2	30	1	1	1	C	2	1	720	1	Ⴌ	cut_oei_stereo_44KHz.wav
2	31	4	3	2	I	1	0	1222	1	Ⴔ	cut_j_stereo_44KHz.wav
2	32	2	1	0	C	1	1	1287	1	Ⴐ	cut_oei_stereo_44KHz.wav
2	33	4	4	2	I	2	0	1105	0	Ⴔ	cut_f_stereo_44KHz.wav
2	34	1	2	0	C	1	1	702	1	Ⴌ	cut_ei_stereo_44KHz.wav
2	35	2	2	1	C	2	1	838	1	Ⴐ	cut_ei_stereo_44KHz.wav
2	36	3	4	2	I	1	0	989	1	Ⴒ	cut_f_stereo_44KHz.wav
2	37	4	3	2	I	1	0	916	1	Ⴔ	cut_j_stereo_44KHz.wav
2	38	2	1	0	C	1	1	855	1	Ⴐ	cut_oei_stereo_44KHz.wav
2	39	3	3	2	I	1	0	1593	0	Ⴒ	cut_j_stereo_44KHz.wav
2	40	1	1	1	C	2	1	755	1	Ⴌ	cut_oei_stereo_44KHz.wav
2	41	4	4	2	I	1	0	805	1	Ⴔ	cut_f_stereo_44KHz.wav
2	42	3	3	2	I	2	0	1044	0	Ⴒ	cut_j_stereo_44KHz.wav
2	43	2	2	1	C	2	1	1041	1	Ⴐ	cut_ei_stereo_44KHz.wav
2	44	1	2	0	C	1	1	649	1	Ⴌ	cut_ei_stereo_44KHz.wav
2	45	4	3	2	I	1	0	944	0	Ⴔ	cut_j_stereo_44KHz.wav
2	46	3	4	2	I	1	0	838	1	Ⴒ	cut_f_stereo_44KHz.wav
2	47	1	1	1	C	2	1	647	1	Ⴌ	cut_oei_stereo_44KHz.wav
2	48	2	1	0	C	1	1	896	1	Ⴐ	cut_oei_stereo_44KHz.wav
2	49	4	4	2	I	1	0	964	1	Ⴔ	cut_f_stereo_44KHz.wav
2	50	3	4	2	I	1	0	803	1	Ⴒ	cut_f_stereo_44KHz.wav
2	51	2	2	1	C	2	1	852	1	Ⴐ	cut_ei_stereo_44KHz.wav
2	52	1	2	0	C	1	1	673	1	Ⴌ	cut_ei_stereo_44KHz.wav
2	53	4	3	2	I	1	0	1033	1	Ⴔ	cut_j_stereo_44KHz.wav
2	54	2	1	0	C	1	1	1066	1	Ⴐ	cut_oei_stereo_44KHz.wav
2	55	3	3	2	I	2	0	1654	1	Ⴒ	cut_j_stereo_44KHz.wav
2	56	1	1	1	C	2	1	1555	1	Ⴌ	cut_oei_stereo_44KHz.wav
2	57	4	4	2	I	1	0	780	1	Ⴔ	cut_f_stereo_44KHz.wav
2	58	3	3	2	I	2	0	1132	0	Ⴒ	cut_j_stereo_44KHz.wav
2	59	2	2	1	C	1	0	1077	0	Ⴐ	cut_ei_stereo_44KHz.wav
2	60	1	2	0	C	1	1	684	1	Ⴌ	cut_ei_stereo_44KHz.wav
2	61	4	3	2	I	1	0	756	1	Ⴔ	cut_j_stereo_44KHz.wav
2	62	3	4	2	I	1	0	1156	1	Ⴒ	cut_f_stereo_44KHz.wav
2	63	2	1	0	C	1	1	1028	1	Ⴐ	cut_oei_stereo_44KHz.wav
2	64	1	1	1	C	2	1	685	1	Ⴌ	cut_oei_stereo_44KHz.wav
2	65	4	3	2	I	1	0	925	0	Ⴔ	cut_j_stereo_44KHz.wav
2	66	2	2	1	C	2	1	897	1	Ⴐ	cut_ei_stereo_44KHz.wav
2	67	1	2	0	C	1	1	787	1	Ⴌ	cut_ei_stereo_44KHz.wav
2	68	3	4	2	I	1	0	790	0	Ⴒ	cut_f_stereo_44KHz.wav
2	69	2	1	0	C	1	1	890	1	Ⴐ	cut_oei_stereo_44KHz.wav
2	70	1	1	1	C	2	1	776	1	Ⴌ	cut_oei_stereo_44KHz.wav
2	71	3	3	2	I	1	0	1003	1	Ⴒ	cut_j_stereo_44KHz.wav
2	72	4	4	2	I	1	0	1015	1	Ⴔ	cut_f_stereo_44KHz.wav
2	73	1	1	1	C	2	1	732	1	Ⴌ	cut_oei_stereo_44KHz.wav
2	74	4	4	2	I	1	0	749	0	Ⴔ	cut_f_stereo_44KHz.wav
2	75	2	2	1	C	2	1	791	1	Ⴐ	cut_ei_stereo_44KHz.wav
2	76	3	3	2	I	1	0	948	0	Ⴒ	cut_j_stereo_44KHz.wav
2	77	1	2	0	C	1	1	1357	1	Ⴌ	cut_ei_stereo_44KHz.wav
2	78	4	3	2	I	1	0	1500	1	Ⴔ	cut_j_stereo_44KHz.wav
2	79	3	4	2	I	1	0	729	0	Ⴒ	cut_f_stereo_44KHz.wav
2	80	2	1	0	C	1	1	839	1	Ⴐ	cut_oei_stereo_44KHz.wav
2	81	3	4	2	I	1	0	688	1	Ⴒ	cut_f_stereo_44KHz.wav
2	82	2	2	1	C	2	1	1468	1	Ⴐ	cut_ei_stereo_44KHz.wav
2	83	4	3	2	I	1	0	733	0	Ⴔ	cut_j_stereo_44KHz.wav
2	84	1	1	1	C	2	1	704	1	Ⴌ	cut_oei_stereo_44KHz.wav
2	85	4	4	2	I	1	0	962	1	Ⴔ	cut_f_stereo_44KHz.wav
2	86	3	3	2	I	1	0	694	0	Ⴒ	cut_j_stereo_44KHz.wav
2	87	2	1	0	C	1	1	967	1	Ⴐ	cut_oei_stereo_44KHz.wav
2	88	1	2	0	C	1	1	773	1	Ⴌ	cut_ei_stereo_44KHz.wav
2	89	2	1	0	C	1	1	820	1	Ⴐ	cut_oei_stereo_44KHz.wav
2	90	1	1	1	C	2	1	795	1	Ⴌ	cut_oei_stereo_44KHz.wav
2	91	3	3	2	I	1	0	1038	1	Ⴒ	cut_j_stereo_44KHz.wav
2	92	4	4	2	I	1	0	904	1	Ⴔ	cut_f_stereo_44KHz.wav
2	93	2	2	1	C	2	1	880	1	Ⴐ	cut_ei_stereo_44KHz.wav
2	94	3	4	2	I	1	0	956	1	Ⴒ	cut_f_stereo_44KHz.wav
2	95	1	2	0	C	1	1	690	1	Ⴌ	cut_ei_stereo_44KHz.wav
2	96	4	3	2	I	1	0	833	1	Ⴔ	cut_j_stereo_44KHz.wav
2	97	2	2	1	C	2	1	771	1	Ⴐ	cut_ei_stereo_44KHz.wav
2	98	4	4	2	I	1	0	732	0	Ⴔ	cut_f_stereo_44KHz.wav
2	99	3	4	2	I	1	0	758	1	Ⴒ	cut_f_stereo_44KHz.wav
2	100	1	1	1	C	2	1	810	1	Ⴌ	cut_oei_stereo_44KHz.wav
2	101	4	3	2	I	1	0	1119	1	Ⴔ	cut_j_stereo_44KHz.wav
2	102	3	3	2	I	1	0	1172	0	Ⴒ	cut_j_stereo_44KHz.wav
2	103	2	1	0	C	1	1	742	1	Ⴐ	cut_oei_stereo_44KHz.wav
2	104	1	2	0	C	1	1	818	1	Ⴌ	cut_ei_stereo_44KHz.wav
2	105	4	4	2	I	2	0	1021	1	Ⴔ	cut_f_stereo_44KHz.wav
2	106	3	3	2	I	2	0	1067	1	Ⴒ	cut_j_stereo_44KHz.wav
2	107	2	2	1	C	2	1	875	1	Ⴐ	cut_ei_stereo_44KHz.wav
2	108	1	2	0	C	1	1	864	1	Ⴌ	cut_ei_stereo_44KHz.wav
2	109	4	3	2	I	1	0	1036	0	Ⴔ	cut_j_stereo_44KHz.wav
2	110	1	1	1	C	2	1	775	1	Ⴌ	cut_oei_stereo_44KHz.wav
2	111	3	4	2	I	1	0	752	1	Ⴒ	cut_f_stereo_44KHz.wav
2	112	2	1	0	C	1	1	858	1	Ⴐ	cut_oei_stereo_44KHz.wav
2	113	1	1	1	C	2	1	652	1	Ⴌ	cut_oei_stereo_44KHz.wav
2	114	2	1	0	C	1	1	764	1	Ⴐ	cut_oei_stereo_44KHz.wav
2	115	3	4	2	I	1	0	675	1	Ⴒ	cut_f_stereo_44KHz.wav
2	116	4	4	2	I	2	0	815	0	Ⴔ	cut_f_stereo_44KHz.wav
2	117	3	3	2	I	2	0	1205	0	Ⴒ	cut_j_stereo_44KHz.wav
2	118	1	2	0	C	1	1	819	1	Ⴌ	cut_ei_stereo_44KHz.wav
2	119	4	3	2	I	1	0	886	0	Ⴔ	cut_j_stereo_44KHz.wav
2	120	2	2	1	C	1	0	1101	0	Ⴐ	cut_ei_stereo_44KHz.wav
2	121	1	1	1	C	2	1	771	1	Ⴌ	cut_oei_stereo_44KHz.wav
2	122	3	3	2	I	2	0	1058	0	Ⴒ	cut_j_stereo_44KHz.wav
2	123	2	2	1	C	2	1	1090	1	Ⴐ	cut_ei_stereo_44KHz.wav
2	124	4	4	2	I	2	0	757	0	Ⴔ	cut_f_stereo_44KHz.wav
2	125	1	2	0	C	1	1	644	1	Ⴌ	cut_ei_stereo_44KHz.wav
2	126	4	3	2	I	1	0	848	0	Ⴔ	cut_j_stereo_44KHz.wav
2	127	2	1	0	C	1	1	877	1	Ⴐ	cut_oei_stereo_44KHz.wav
2	128	3	4	2	I	1	0	797	0	Ⴒ	cut_f_stereo_44KHz.wav
2	129	4	3	2	I	1	0	843	1	Ⴔ	cut_j_stereo_44KHz.wav
2	130	2	2	1	C	2	1	771	1	Ⴐ	cut_ei_stereo_44KHz.wav
2	131	3	4	2	I	1	0	1321	0	Ⴒ	cut_f_stereo_44KHz.wav
2	132	1	2	0	C	1	1	972	1	Ⴌ	cut_ei_stereo_44KHz.wav
2	133	3	3	2	I	1	0	717	1	Ⴒ	cut_j_stereo_44KHz.wav
2	134	4	4	2	I	2	0	943	0	Ⴔ	cut_f_stereo_44KHz.wav
2	135	1	1	1	C	2	1	736	1	Ⴌ	cut_oei_stereo_44KHz.wav
2	136	2	1	0	C	1	1	842	1	Ⴐ	cut_oei_stereo_44KHz.wav
2	137	4	3	2	I	1	0	817	0	Ⴔ	cut_j_stereo_44KHz.wav
2	138	1	1	1	C	2	1	780	1	Ⴌ	cut_oei_stereo_44KHz.wav
2	139	3	3	2	I	2	0	1119	1	Ⴒ	cut_j_stereo_44KHz.wav
2	140	2	1	0	C	1	1	808	1	Ⴐ	cut_oei_stereo_44KHz.wav
2	141	4	4	2	I	1	0	793	0	Ⴔ	cut_f_stereo_44KHz.wav
2	142	1	2	0	C	1	1	790	1	Ⴌ	cut_ei_stereo_44KHz.wav
2	143	3	4	2	I	2	0	1398	0	Ⴒ	cut_f_stereo_44KHz.wav
2	144	2	2	1	C	2	1	804	1	Ⴐ	cut_ei_stereo_44KHz.wav
2	145	1	1	1	C	2	1	772	1	Ⴌ	cut_oei_stereo_44KHz.wav
2	146	2	1	0	C	2	0	987	0	Ⴐ	cut_oei_stereo_44KHz.wav
2	147	4	4	2	I	1	0	986	0	Ⴔ	cut_f_stereo_44KHz.wav
2	148	3	4	2	I	1	0	905	0	Ⴒ	cut_f_stereo_44KHz.wav
2	149	4	3	2	I	2	0	880	0	Ⴔ	cut_j_stereo_44KHz.wav
2	150	2	2	1	C	2	1	1014	1	Ⴐ	cut_ei_stereo_44KHz.wav
2	151	1	2	0	C	1	1	812	1	Ⴌ	cut_ei_stereo_44KHz.wav
2	152	3	3	2	I	2	0	1045	0	Ⴒ	cut_j_stereo_44KHz.wav
2	153	2	1	0	C	1	1	726	1	Ⴐ	cut_oei_stereo_44KHz.wav
2	154	1	2	0	C	1	1	641	1	Ⴌ	cut_ei_stereo_44KHz.wav
2	155	3	3	2	I	1	0	1178	1	Ⴒ	cut_j_stereo_44KHz.wav
2	156	4	3	2	I	1	0	944	1	Ⴔ	cut_j_stereo_44KHz.wav
2	157	2	2	1	C	2	1	1165	1	Ⴐ	cut_ei_stereo_44KHz.wav
2	158	4	4	2	I	1	0	1190	1	Ⴔ	cut_f_stereo_44KHz.wav
2	159	3	4	2	I	1	0	580	0	Ⴒ	cut_f_stereo_44KHz.wav
2	160	1	1	1	C	1	0	1859	0	Ⴌ	cut_oei_stereo_44KHz.wav
2	161	3	3	2	I	1	0	1028	1	Ⴒ	cut_j_stereo_44KHz.wav
2	162	2	2	1	C	2	1	968	1	Ⴐ	cut_ei_stereo_44KHz.wav
2	163	4	3	2	I	1	0	796	1	Ⴔ	cut_j_stereo_44KHz.wav
2	164	1	2	0	C	1	1	964	1	Ⴌ	cut_ei_stereo_44KHz.wav
2	165	4	4	2	I	1	0	724	0	Ⴔ	cut_f_stereo_44KHz.wav
2	166	2	1	0	C	1	1	854	1	Ⴐ	cut_oei_stereo_44KHz.wav
2	167	3	4	2	I	1	0	1001	1	Ⴒ	cut_f_stereo_44KHz.wav
2	168	1	1	1	C	2	1	746	1	Ⴌ	cut_oei_stereo_44KHz.wav
2	169	2	1	0	C	1	1	717	1	Ⴐ	cut_oei_stereo_44KHz.wav
2	170	4	4	2	I	1	0	630	1	Ⴔ	cut_f_stereo_44KHz.wav
2	171	1	1	1	C	2	1	796	1	Ⴌ	cut_oei_stereo_44KHz.wav
2	172	3	4	2	I	1	0	762	1	Ⴒ	cut_f_stereo_44KHz.wav
2	173	2	2	1	C	2	1	1483	1	Ⴐ	cut_ei_stereo_44KHz.wav
2	174	1	2	0	C	1	1	798	1	Ⴌ	cut_ei_stereo_44KHz.wav
2	175	4	3	2	I	1	0	617	1	Ⴔ	cut_j_stereo_44KHz.wav
2	176	3	3	2	I	2	0	898	1	Ⴒ	cut_j_stereo_44KHz.wav
2	177	1	1	1	C	2	1	676	1	Ⴌ	cut_oei_stereo_44KHz.wav
2	178	2	1	0	C	1	1	751	1	Ⴐ	cut_oei_stereo_44KHz.wav
2	179	4	3	2	I	1	0	811	0	Ⴔ	cut_j_stereo_44KHz.wav
2	180	3	4	2	I	1	0	971	0	Ⴒ	cut_f_stereo_44KHz.wav
2	181	4	4	2	I	1	0	980	1	Ⴔ	cut_f_stereo_44KHz.wav
2	182	3	3	2	I	1	0	851	0	Ⴒ	cut_j_stereo_44KHz.wav
2	183	2	2	1	C	2	1	764	1	Ⴐ	cut_ei_stereo_44KHz.wav
2	184	1	2	0	C	1	1	856	1	Ⴌ	cut_ei_stereo_44KHz.wav
2	185	2	2	1	C	2	1	684	1	Ⴐ	cut_ei_stereo_44KHz.wav
2	186	4	4	2	I	1	0	681	0	Ⴔ	cut_f_stereo_44KHz.wav
2	187	1	2	0	C	1	1	642	1	Ⴌ	cut_ei_stereo_44KHz.wav
2	188	3	3	2	I	1	0	602	1	Ⴒ	cut_j_stereo_44KHz.wav
2	189	4	3	2	I	1	0	710	1	Ⴔ	cut_j_stereo_44KHz.wav
2	190	1	1	1	C	2	1	768	1	Ⴌ	cut_oei_stereo_44KHz.wav
2	191	2	1	0	C	1	1	644	1	Ⴐ	cut_oei_stereo_44KHz.wav
2	192	3	4	2	I	1	0	823	0	Ⴒ	cut_f_stereo_44KHz.wav
2	193	1	2	0	C	2	0	622	0	Ⴌ	cut_ei_stereo_44KHz.wav
2	194	4	3	2	I	1	0	903	0	Ⴔ	cut_j_stereo_44KHz.wav
2	195	2	1	0	C	1	1	878	1	Ⴐ	cut_oei_stereo_44KHz.wav
2	196	3	3	2	I	1	0	783	0	Ⴒ	cut_j_stereo_44KHz.wav
2	197	4	4	2	I	1	0	666	1	Ⴔ	cut_f_stereo_44KHz.wav
2	198	2	2	1	C	2	1	853	1	Ⴐ	cut_ei_stereo_44KHz.wav
2	199	1	1	1	C	2	1	1317	1	Ⴌ	cut_oei_stereo_44KHz.wav
2	200	3	4	2	I	1	0	743	1	Ⴒ	cut_f_stereo_44KHz.wav
3	1	3	3	2	I	2	0	1074	1	Ⴉ	cut_k_stereo_44KHz.wav
3	2	1	2	0	C	2	0	547	0	Ⴖ	cut_o_stereo_44KHz.wav
3	3	4	4	2	I	2	0	665	0	Ⴏ	cut_a_stereo_44KHz.wav
3	4	2	2	1	C	2	1	603	1	Ⴕ	cut_o_stereo_44KHz.wav
3	5	1	1	1	C	2	1	636	1	Ⴖ	cut_u_stereo_44KHz.wav
3	6	3	4	2	I	2	0	1149	1	Ⴉ	cut_a_stereo_44KHz.wav
3	7	4	3	2	I	1	0	577	0	Ⴏ	cut_k_stereo_44KHz.wav
3	8	2	1	0	C	2	0	639	0	Ⴕ	cut_u_stereo_44KHz.wav
3	9	1	2	0	C	2	0	844	0	Ⴖ	cut_o_stereo_44KHz.wav
3	10	3	3	2	I	1	0	1099	1	Ⴉ	cut_k_stereo_44KHz.wav
3	11	2	2	1	C	1	0	769	0	Ⴕ	cut_o_stereo_44KHz.wav
3	12	4	3	2	I	1	0	930	1	Ⴏ	cut_k_stereo_44KHz.wav
3	13	1	1	1	C	1	0	679	0	Ⴖ	cut_u_stereo_44KHz.wav
3	14	2	1	0	C	1	1	814	1	Ⴕ	cut_u_stereo_44KHz.wav
3	15	4	4	2	I	2	0	883	1	Ⴏ	cut_a_stereo_44KHz.wav
3	16	3	4	2	I	1	0	676	0	Ⴉ	cut_a_stereo_44KHz.wav
3	17	1	1	1	C	2	1	745	1	Ⴖ	cut_u_stereo_44KHz.wav
3	18	3	4	2	I	2	0	806	1	Ⴉ	cut_a_stereo_44KHz.wav
3	19	2	1	0	C	1	1	952	1	Ⴕ	cut_u_stereo_44KHz.wav
3	20	4	4	2	I	2	0	915	0	Ⴏ	cut_a_stereo_44KHz.wav
3	21	3	3	2	I	2	0	1110	1	Ⴉ	cut_k_stereo_44KHz.wav
3	22	4	3	2	I	1	0	817	1	Ⴏ	cut_k_stereo_44KHz.wav
3	23	1	2	0	C	1	1	887	1	Ⴖ	cut_o_stereo_44KHz.wav
3	24	2	2	1	C	2	1	886	1	Ⴕ	cut_o_stereo_44KHz.wav
3	25	1	1	1	C	2	1	1343	1	Ⴖ	cut_u_stereo_44KHz.wav
3	26	3	4	2	I	2	0	717	0	Ⴉ	cut_a_stereo_44KHz.wav
3	27	4	3	2	I	1	0	737	0	Ⴏ	cut_k_stereo_44KHz.wav
3	28	2	2	1	C	2	1	786	1	Ⴕ	cut_o_stereo_44KHz.wav
3	29	1	2	0	C	2	0	603	0	Ⴖ	cut_o_stereo_44KHz.wav
3	30	2	1	0	C	2	0	796	0	Ⴕ	cut_u_stereo_44KHz.wav
3	31	3	3	2	I	2	0	638	1	Ⴉ	cut_k_stereo_44KHz.wav
3	32	4	4	2	I	2	0	704	0	Ⴏ	cut_a_stereo_44KHz.wav
3	33	1	2	0	C	1	1	650	1	Ⴖ	cut_o_stereo_44KHz.wav
3	34	3	3	2	I	1	0	926	0	Ⴉ	cut_k_stereo_44KHz.wav
3	35	4	3	2	I	1	0	899	0	Ⴏ	cut_k_stereo_44KHz.wav
3	36	2	2	1	C	2	1	1613	1	Ⴕ	cut_o_stereo_44KHz.wav
3	37	4	4	2	I	1	0	1051	0	Ⴏ	cut_a_stereo_44KHz.wav
3	38	1	1	1	C	2	1	787	1	Ⴖ	cut_u_stereo_44KHz.wav
3	39	2	1	0	C	1	1	784	1	Ⴕ	cut_u_stereo_44KHz.wav
3	40	3	4	2	I	2	0	798	1	Ⴉ	cut_a_stereo_44KHz.wav
3	41	1	2	0	C	1	1	640	1	Ⴖ	cut_o_stereo_44KHz.wav
3	42	4	4	2	I	1	0	869	1	Ⴏ	cut_a_stereo_44KHz.wav
3	43	3	3	2	I	2	0	858	0	Ⴉ	cut_k_stereo_44KHz.wav
3	44	2	2	1	C	2	1	1702	1	Ⴕ	cut_o_stereo_44KHz.wav
3	45	1	1	1	C	2	1	712	1	Ⴖ	cut_u_stereo_44KHz.wav
3	46	2	1	0	C	1	1	744	1	Ⴕ	cut_u_stereo_44KHz.wav
3	47	4	3	2	I	1	0	949	0	Ⴏ	cut_k_stereo_44KHz.wav
3	48	3	4	2	I	2	0	720	1	Ⴉ	cut_a_stereo_44KHz.wav
3	49	2	1	0	C	1	1	747	1	Ⴕ	cut_u_stereo_44KHz.wav
3	50	3	3	2	I	1	0	1324	0	Ⴉ	cut_k_stereo_44KHz.wav
3	51	1	2	0	C	1	1	871	1	Ⴖ	cut_o_stereo_44KHz.wav
3	52	4	4	2	I	1	0	898	1	Ⴏ	cut_a_stereo_44KHz.wav
3	53	2	2	1	C	1	0	961	0	Ⴕ	cut_o_stereo_44KHz.wav
3	54	3	4	2	I	2	0	836	0	Ⴉ	cut_a_stereo_44KHz.wav
3	55	1	1	1	C	2	1	913	1	Ⴖ	cut_u_stereo_44KHz.wav
3	56	4	3	2	I	1	0	801	0	Ⴏ	cut_k_stereo_44KHz.wav
3	57	2	1	0	C	2	0	1172	0	Ⴕ	cut_u_stereo_44KHz.wav
3	58	3	3	2	I	1	0	1130	1	Ⴉ	cut_k_stereo_44KHz.wav
3	59	4	4	2	I	1	0	867	1	Ⴏ	cut_a_stereo_44KHz.wav
3	60	1	2	0	C	1	1	934	1	Ⴖ	cut_o_stereo_44KHz.wav
3	61	3	4	2	I	2	0	913	1	Ⴉ	cut_a_stereo_44KHz.wav
3	62	1	1	1	C	2	1	927	1	Ⴖ	cut_u_stereo_44KHz.wav
3	63	2	2	1	C	2	1	1547	1	Ⴕ	cut_o_stereo_44KHz.wav
3	64	4	3	2	I	2	0	1093	0	Ⴏ	cut_k_stereo_44KHz.wav
3	65	1	1	1	C	2	1	852	1	Ⴖ	cut_u_stereo_44KHz.wav
3	66	2	2	1	C	2	1	1045	1	Ⴕ	cut_o_stereo_44KHz.wav
3	67	3	4	2	I	1	0	1099	0	Ⴉ	cut_a_stereo_44KHz.wav
3	68	4	3	2	I	2	0	764	1	Ⴏ	cut_k_stereo_44KHz.wav
3	69	1	2	0	C	1	1	1172	1	Ⴖ	cut_o_stereo_44KHz.wav
3	70	4	4	2	I	1	0	909	1	Ⴏ	cut_a_stereo_44KHz.wav
3	71	2	1	0	C	1	1	891	1	Ⴕ	cut_u_stereo_44KHz.wav
3	72	3	3	2	I	1	0	922	1	Ⴉ	cut_k_stereo_44KHz.wav
3	73	1	2	0	C	1	1	814	1	Ⴖ	cut_o_stereo_44KHz.wav
3	74	4	4	2	I	1	0	787	0	Ⴏ	cut_a_stereo_44KHz.wav
3	75	2	1	0	C	1	1	818	1	Ⴕ	cut_u_stereo_44KHz.wav
3	76	3	3	2	I	1	0	1070	1	Ⴉ	cut_k_stereo_44KHz.wav
3	77	4	3	2	I	1	0	758	1	Ⴏ	cut_k_stereo_44KHz.wav
3	78	2	2	1	C	2	1	705	1	Ⴕ	cut_o_stereo_44KHz.wav
3	79	1	1	1	C	2	1	790	1	Ⴖ	cut_u_stereo_44KHz.wav
3	80	3	4	2	I	2	0	895	0	Ⴉ	cut_a_stereo_44KHz.wav
3	81	1	2	0	C	1	1	1330	1	Ⴖ	cut_o_stereo_44KHz.wav
3	82	2	2	1	C	2	1	752	1	Ⴕ	cut_o_stereo_44KHz.wav
3	83	4	4	2	I	1	0	713	0	Ⴏ	cut_a_stereo_44KHz.wav
3	84	3	3	2	I	2	0	817	0	Ⴉ	cut_k_stereo_44KHz.wav
3	85	4	3	2	I	2	0	555	1	Ⴏ	cut_k_stereo_44KHz.wav
3	86	1	1	1	C	2	1	1181	1	Ⴖ	cut_u_stereo_44KHz.wav
3	87	2	1	0	C	1	1	816	1	Ⴕ	cut_u_stereo_44KHz.wav
3	88	3	4	2	I	2	0	610	1	Ⴉ	cut_a_stereo_44KHz.wav
3	89	1	2	0	C	1	1	804	1	Ⴖ	cut_o_stereo_44KHz.wav
3	90	3	4	2	I	1	0	766	1	Ⴉ	cut_a_stereo_44KHz.wav
3	91	2	1	0	C	1	1	714	1	Ⴕ	cut_u_stereo_44KHz.wav
3	92	4	4	2	I	1	0	799	1	Ⴏ	cut_a_stereo_44KHz.wav
3	93	2	2	1	C	2	1	787	1	Ⴕ	cut_o_stereo_44KHz.wav
3	94	1	1	1	C	2	1	781	1	Ⴖ	cut_u_stereo_44KHz.wav
3	95	3	3	2	I	2	0	706	0	Ⴉ	cut_k_stereo_44KHz.wav
3	96	4	3	2	I	1	0	898	1	Ⴏ	cut_k_stereo_44KHz.wav
3	97	1	1	1	C	2	1	736	1	Ⴖ	cut_u_stereo_44KHz.wav
3	98	2	1	0	C	1	1	849	1	Ⴕ	cut_u_stereo_44KHz.wav
3	99	3	3	2	I	1	0	909	0	Ⴉ	cut_k_stereo_44KHz.wav
3	100	4	3	2	I	1	0	747	1	Ⴏ	cut_k_stereo_44KHz.wav
3	101	3	4	2	I	1	0	781	0	Ⴉ	cut_a_stereo_44KHz.wav
3	102	1	2	0	C	1	1	871	1	Ⴖ	cut_o_stereo_44KHz.wav
3	103	2	2	1	C	2	1	1582	1	Ⴕ	cut_o_stereo_44KHz.wav
3	104	4	4	2	I	2	0	893	0	Ⴏ	cut_a_stereo_44KHz.wav
3	105	2	2	1	C	2	1	843	1	Ⴕ	cut_o_stereo_44KHz.wav
3	106	4	4	2	I	1	0	981	1	Ⴏ	cut_a_stereo_44KHz.wav
3	107	3	4	2	I	1	0	684	1	Ⴉ	cut_a_stereo_44KHz.wav
3	108	1	2	0	C	2	0	1409	0	Ⴖ	cut_o_stereo_44KHz.wav
3	109	3	3	2	I	1	0	886	0	Ⴉ	cut_k_stereo_44KHz.wav
3	110	2	1	0	C	1	1	947	1	Ⴕ	cut_u_stereo_44KHz.wav
3	111	4	3	2	I	1	0	1212	1	Ⴏ	cut_k_stereo_44KHz.wav
3	112	1	1	1	C	2	1	743	1	Ⴖ	cut_u_stereo_44KHz.wav
3	113	4	4	2	I	1	0	752	0	Ⴏ	cut_a_stereo_44KHz.wav
3	114	2	2	1	C	2	1	851	1	Ⴕ	cut_o_stereo_44KHz.wav
3	115	1	2	0	C	1	1	798	1	Ⴖ	cut_o_stereo_44KHz.wav
3	116	3	3	2	I	1	0	808	0	Ⴉ	cut_k_stereo_44KHz.wav
3	117	2	1	0	C	1	1	778	1	Ⴕ	cut_u_stereo_44KHz.wav
3	118	4	3	2	I	1	0	746	1	Ⴏ	cut_k_stereo_44KHz.wav
3	119	3	4	2	I	1	0	751	0	Ⴉ	cut_a_stereo_44KHz.wav
3	120	1	1	1	C	2	1	889	1	Ⴖ	cut_u_stereo_44KHz.wav
3	121	2	2	1	C	2	1	913	1	Ⴕ	cut_o_stereo_44KHz.wav
3	122	4	3	2	I	2	0	1012	1	Ⴏ	cut_k_stereo_44KHz.wav
3	123	3	3	2	I	1	0	1120	0	Ⴉ	cut_k_stereo_44KHz.wav
3	124	1	1	1	C	2	1	745	1	Ⴖ	cut_u_stereo_44KHz.wav
3	125	2	1	0	C	1	1	1020	1	Ⴕ	cut_u_stereo_44KHz.wav
3	126	1	2	0	C	1	1	1203	1	Ⴖ	cut_o_stereo_44KHz.wav
3	127	4	4	2	I	1	0	826	0	Ⴏ	cut_a_stereo_44KHz.wav
3	128	3	4	2	I	1	0	675	0	Ⴉ	cut_a_stereo_44KHz.wav
3	129	4	4	2	I	1	0	804	1	Ⴏ	cut_a_stereo_44KHz.wav
3	130	1	2	0	C	1	1	932	1	Ⴖ	cut_o_stereo_44KHz.wav
3	131	3	3	2	I	2	0	1101	1	Ⴉ	cut_k_stereo_44KHz.wav
3	132	2	2	1	C	2	1	1024	1	Ⴕ	cut_o_stereo_44KHz.wav
3	133	4	3	2	I	1	0	705	0	Ⴏ	cut_k_stereo_44KHz.wav
3	134	1	1	1	C	2	1	1122	1	Ⴖ	cut_u_stereo_44KHz.wav
3	135	3	4	2	I	2	0	679	0	Ⴉ	cut_a_stereo_44KHz.wav
3	136	2	1	0	C	1	1	1075	1	Ⴕ	cut_u_stereo_44KHz.wav
3	137	1	2	0	C	1	1	1004	1	Ⴖ	cut_o_stereo_44KHz.wav
3	138	3	3	2	I	1	0	1077	0	Ⴉ	cut_k_stereo_44KHz.wav
3	139	4	3	2	I	1	0	1019	1	Ⴏ	cut_k_stereo_44KHz.wav
3	140	2	2	1	C	2	1	926	1	Ⴕ	cut_o_stereo_44KHz.wav
3	141	3	4	2	I	1	0	720	1	Ⴉ	cut_a_stereo_44KHz.wav
3	142	4	4	2	I	2	0	597	0	Ⴏ	cut_a_stereo_44KHz.wav
3	143	2	1	0	C	1	1	699	1	Ⴕ	cut_u_stereo_44KHz.wav
3	144	1	1	1	C	2	1	664	1	Ⴖ	cut_u_stereo_44KHz.wav
3	145	3	4	2	I	2	0	881	0	Ⴉ	cut_a_stereo_44KHz.wav
3	146	1	2	0	C	1	1	778	1	Ⴖ	cut_o_stereo_44KHz.wav
3	147	4	4	2	I	2	0	599	0	Ⴏ	cut_a_stereo_44KHz.wav
3	148	2	1	0	C	1	1	569	1	Ⴕ	cut_u_stereo_44KHz.wav
3	149	1	1	1	C	2	1	812	1	Ⴖ	cut_u_stereo_44KHz.wav
3	150	3	3	2	I	1	0	789	1	Ⴉ	cut_k_stereo_44KHz.wav
3	151	2	2	1	C	2	1	751	1	Ⴕ	cut_o_stereo_44KHz.wav
3	152	4	3	2	I	1	0	844	0	Ⴏ	cut_k_stereo_44KHz.wav
3	153	3	3	2	I	1	0	674	0	Ⴉ	cut_k_stereo_44KHz.wav
3	154	1	2	0	C	1	1	909	1	Ⴖ	cut_o_stereo_44KHz.wav
3	155	4	3	2	I	1	0	1257	1	Ⴏ	cut_k_stereo_44KHz.wav
3	156	2	2	1	C	2	1	1253	1	Ⴕ	cut_o_stereo_44KHz.wav
3	157	3	4	2	I	1	0	730	1	Ⴉ	cut_a_stereo_44KHz.wav
3	158	1	1	1	C	2	1	701	1	Ⴖ	cut_u_stereo_44KHz.wav
3	159	2	1	0	C	1	1	939	1	Ⴕ	cut_u_stereo_44KHz.wav
3	160	4	4	2	I	1	0	874	1	Ⴏ	cut_a_stereo_44KHz.wav
3	161	2	1	0	C	1	1	887	1	Ⴕ	cut_u_stereo_44KHz.wav
3	162	3	4	2	I	2	0	701	1	Ⴉ	cut_a_stereo_44KHz.wav
3	163	4	3	2	I	1	0	943	1	Ⴏ	cut_k_stereo_44KHz.wav
3	164	1	1	1	C	2	1	993	1	Ⴖ	cut_u_stereo_44KHz.wav
3	165	2	2	1	C	2	1	1110	1	Ⴕ	cut_o_stereo_44KHz.wav
3	166	1	2	0	C	1	1	1294	1	Ⴖ	cut_o_stereo_44KHz.wav
3	167	4	4	2	I	1	0	884	1	Ⴏ	cut_a_stereo_44KHz.wav
3	168	3	3	2	I	1	0	956	1	Ⴉ	cut_k_stereo_44KHz.wav
3	169	4	4	2	I	1	0	579	0	Ⴏ	cut_a_stereo_44KHz.wav
3	170	3	4	2	I	1	0	843	1	Ⴉ	cut_a_stereo_44KHz.wav
3	171	2	1	0	C	1	1	1050	1	Ⴕ	cut_u_stereo_44KHz.wav
3	172	1	2	0	C	1	1	895	1	Ⴖ	cut_o_stereo_44KHz.wav
3	173	3	3	2	I	2	0	917	1	Ⴉ	cut_k_stereo_44KHz.wav
3	174	1	1	1	C	2	1	832	1	Ⴖ	cut_u_stereo_44KHz.wav
3	175	2	2	1	C	2	1	711	1	Ⴕ	cut_o_stereo_44KHz.wav
3	176	4	3	2	I	2	0	807	0	Ⴏ	cut_k_stereo_44KHz.wav
3	177	1	1	1	C	2	1	724	1	Ⴖ	cut_u_stereo_44KHz.wav
3	178	2	1	0	C	2	0	584	0	Ⴕ	cut_u_stereo_44KHz.wav
3	179	3	3	2	I	2	0	983	0	Ⴉ	cut_k_stereo_44KHz.wav
3	180	4	4	2	I	1	0	852	0	Ⴏ	cut_a_stereo_44KHz.wav
3	181	2	2	1	C	2	1	781	1	Ⴕ	cut_o_stereo_44KHz.wav
3	182	1	2	0	C	1	1	868	1	Ⴖ	cut_o_stereo_44KHz.wav
3	183	3	4	2	I	1	0	911	1	Ⴉ	cut_a_stereo_44KHz.wav
3	184	4	3	2	I	2	0	950	0	Ⴏ	cut_k_stereo_44KHz.wav
3	185	3	4	2	I	1	0	637	1	Ⴉ	cut_a_stereo_44KHz.wav
3	186	4	3	2	I	1	0	915	0	Ⴏ	cut_k_stereo_44KHz.wav
3	187	2	1	0	C	1	1	746	1	Ⴕ	cut_u_stereo_44KHz.wav
3	188	1	1	1	C	2	1	697	1	Ⴖ	cut_u_stereo_44KHz.wav
3	189	2	2	1	C	2	1	884	1	Ⴕ	cut_o_stereo_44KHz.wav
3	190	1	2	0	C	1	1	911	1	Ⴖ	cut_o_stereo_44KHz.wav
3	191	4	4	2	I	1	0	778	1	Ⴏ	cut_a_stereo_44KHz.wav
3	192	3	3	2	I	2	0	744	0	Ⴉ	cut_k_stereo_44KHz.wav
3	193	4	4	2	I	1	0	609	0	Ⴏ	cut_a_stereo_44KHz.wav
3	194	2	2	1	C	2	1	754	1	Ⴕ	cut_o_stereo_44KHz.wav
3	195	1	1	1	C	2	1	748	1	Ⴖ	cut_u_stereo_44KHz.wav
3	196	3	3	2	I	2	0	944	0	Ⴉ	cut_k_stereo_44KHz.wav
3	197	2	1	0	C	1	1	706	1	Ⴕ	cut_u_stereo_44KHz.wav
3	198	3	4	2	I	1	0	885	0	Ⴉ	cut_a_stereo_44KHz.wav
3	199	1	2	0	C	1	1	1041	1	Ⴖ	cut_o_stereo_44KHz.wav
3	200	4	3	2	I	2	0	947	1	Ⴏ	cut_k_stereo_44KHz.wav
4	1	2	2	1	C	2	1	1089	1	Ⴇ	cut_ui_stereo_44KHz.wav
4	2	3	3	2	I	2	0	856	0	Ⴜ	cut_n_stereo_44KHz.wav
4	3	4	4	2	I	2	0	682	1	Ⴊ	cut_s_stereo_44KHz.wav
4	4	1	1	1	C	2	1	870	1	Ⴟ	cut_r_stereo_44KHz.wav
4	5	2	1	0	C	2	0	413	0	Ⴇ	cut_r_stereo_44KHz.wav
4	6	3	4	2	I	2	0	1435	0	Ⴜ	cut_s_stereo_44KHz.wav
4	7	4	3	2	I	2	0	767	0	Ⴊ	cut_n_stereo_44KHz.wav
4	8	1	2	0	C	2	0	889	0	Ⴟ	cut_ui_stereo_44KHz.wav
4	9	3	3	2	I	2	0	1486	1	Ⴜ	cut_n_stereo_44KHz.wav
4	10	4	3	2	I	2	0	1152	0	Ⴊ	cut_n_stereo_44KHz.wav
4	11	2	2	1	C	1	0	1400	0	Ⴇ	cut_ui_stereo_44KHz.wav
4	12	1	2	0	C	1	1	1181	1	Ⴟ	cut_ui_stereo_44KHz.wav
4	13	4	4	2	I	2	0	1246	0	Ⴊ	cut_s_stereo_44KHz.wav
4	14	2	1	0	C	2	0	936	0	Ⴇ	cut_r_stereo_44KHz.wav
4	15	1	1	1	C	2	1	1334	1	Ⴟ	cut_r_stereo_44KHz.wav
4	16	3	4	2	I	2	0	1055	0	Ⴜ	cut_s_stereo_44KHz.wav
4	17	2	1	0	C	1	1	1140	1	Ⴇ	cut_r_stereo_44KHz.wav
4	18	3	3	2	I	2	0	756	1	Ⴜ	cut_n_stereo_44KHz.wav
4	19	4	3	2	I	1	0	1124	1	Ⴊ	cut_n_stereo_44KHz.wav
4	20	1	2	0	C	1	1	1152	1	Ⴟ	cut_ui_stereo_44KHz.wav
4	21	2	2	1	C	2	1	833	1	Ⴇ	cut_ui_stereo_44KHz.wav
4	22	4	4	2	I	2	0	1149	1	Ⴊ	cut_s_stereo_44KHz.wav
4	23	3	4	2	I	1	0	842	1	Ⴜ	cut_s_stereo_44KHz.wav
4	24	1	1	1	C	2	1	752	1	Ⴟ	cut_r_stereo_44KHz.wav
4	25	4	3	2	I	1	0	1570	0	Ⴊ	cut_n_stereo_44KHz.wav
4	26	1	1	1	C	2	1	1345	1	Ⴟ	cut_r_stereo_44KHz.wav
4	27	3	4	2	I	1	0	736	1	Ⴜ	cut_s_stereo_44KHz.wav
4	28	2	1	0	C	2	0	1026	0	Ⴇ	cut_r_stereo_44KHz.wav
4	29	4	4	2	I	1	0	1007	1	Ⴊ	cut_s_stereo_44KHz.wav
4	30	1	2	0	C	1	1	736	1	Ⴟ	cut_ui_stereo_44KHz.wav
4	31	3	3	2	I	2	0	1166	0	Ⴜ	cut_n_stereo_44KHz.wav
4	32	2	2	1	C	1	0	840	0	Ⴇ	cut_ui_stereo_44KHz.wav
4	33	4	3	2	I	1	0	1078	0	Ⴊ	cut_n_stereo_44KHz.wav
4	34	2	2	1	C	2	1	991	1	Ⴇ	cut_ui_stereo_44KHz.wav
4	35	3	4	2	I	1	0	899	1	Ⴜ	cut_s_stereo_44KHz.wav
4	36	1	1	1	C	2	1	916	1	Ⴟ	cut_r_stereo_44KHz.wav
4	37	4	4	2	I	2	0	1051	0	Ⴊ	cut_s_stereo_44KHz.wav
4	38	1	2	0	C	1	1	814	1	Ⴟ	cut_ui_stereo_44KHz.wav
4	39	3	3	2	I	2	0	980	1	Ⴜ	cut_n_stereo_44KHz.wav
4	40	2	1	0	C	2	0	885	0	Ⴇ	cut_r_stereo_44KHz.wav
4	41	1	1	1	C	2	1	654	1	Ⴟ	cut_r_stereo_44KHz.wav
4	42	2	1	0	C	1	1	1264	1	Ⴇ	cut_r_stereo_44KHz.wav
4	43	4	3	2	I	1	0	893	1	Ⴊ	cut_n_stereo_44KHz.wav
4	44	3	3	2	I	2	0	733	1	Ⴜ	cut_n_stereo_44KHz.wav
4	45	1	2	0	C	1	1	924	1	Ⴟ	cut_ui_stereo_44KHz.wav
4	46	4	4	2	I	2	0	875	1	Ⴊ	cut_s_stereo_44KHz.wav
4	47	3	4	2	I	2	0	1027	1	Ⴜ	cut_s_stereo_44KHz.wav
4	48	2	2	1	C	2	1	1044	1	Ⴇ	cut_ui_stereo_44KHz.wav
4	49	4	3	2	I	1	0	882	1	Ⴊ	cut_n_stereo_44KHz.wav
4	50	1	2	0	C	1	1	695	1	Ⴟ	cut_ui_stereo_44KHz.wav
4	51	2	2	1	C	2	1	923	1	Ⴇ	cut_ui_stereo_44KHz.wav
4	52	3	3	2	I	1	0	1107	1	Ⴜ	cut_n_stereo_44KHz.wav
4	53	2	1	0	C	1	1	844	1	Ⴇ	cut_r_stereo_44KHz.wav
4	54	1	1	1	C	2	1	766	1	Ⴟ	cut_r_stereo_44KHz.wav
4	55	3	4	2	I	2	0	847	1	Ⴜ	cut_s_stereo_44KHz.wav
4	56	4	4	2	I	1	0	918	0	Ⴊ	cut_s_stereo_44KHz.wav
4	57	3	4	2	I	2	0	1003	1	Ⴜ	cut_s_stereo_44KHz.wav
4	58	1	1	1	C	2	1	897	1	Ⴟ	cut_r_stereo_44KHz.wav
4	59	4	3	2	I	1	0	893	1	Ⴊ	cut_n_stereo_44KHz.wav
4	60	2	1	0	C	1	1	687	1	Ⴇ	cut_r_stereo_44KHz.wav
4	61	1	2	0	C	1	1	950	1	Ⴟ	cut_ui_stereo_44KHz.wav
4	62	3	3	2	I	2	0	760	0	Ⴜ	cut_n_stereo_44KHz.wav
4	63	2	2	1	C	2	1	1291	1	Ⴇ	cut_ui_stereo_44KHz.wav
4	64	4	4	2	I	2	0	1140	0	Ⴊ	cut_s_stereo_44KHz.wav
4	65	2	2	1	C	2	1	923	1	Ⴇ	cut_ui_stereo_44KHz.wav
4	66	1	2	0	C	1	1	922	1	Ⴟ	cut_ui_stereo_44KHz.wav
4	67	3	3	2	I	1	0	782	0	Ⴜ	cut_n_stereo_44KHz.wav
4	68	4	3	2	I	1	0	758	0	Ⴊ	cut_n_stereo_44KHz.wav
4	69	3	4	2	I	2	0	1030	0	Ⴜ	cut_s_stereo_44KHz.wav
4	70	1	1	1	C	2	1	982	1	Ⴟ	cut_r_stereo_44KHz.wav
4	71	4	4	2	I	2	0	1062	0	Ⴊ	cut_s_stereo_44KHz.wav
4	72	2	1	0	C	1	1	1403	1	Ⴇ	cut_r_stereo_44KHz.wav
4	73	1	1	1	C	2	1	758	1	Ⴟ	cut_r_stereo_44KHz.wav
4	74	2	1	0	C	2	0	1607	0	Ⴇ	cut_r_stereo_44KHz.wav
4	75	4	3	2	I	2	0	1060	0	Ⴊ	cut_n_stereo_44KHz.wav
4	76	3	3	2	I	2	0	928	0	Ⴜ	cut_n_stereo_44KHz.wav
4	77	2	2	1	C	2	1	850	1	Ⴇ	cut_ui_stereo_44KHz.wav
4	78	4	4	2	I	2	0	1076	1	Ⴊ	cut_s_stereo_44KHz.wav
4	79	1	2	0	C	1	1	1430	1	Ⴟ	cut_ui_stereo_44KHz.wav
4	80	3	4	2	I	1	0	1226	0	Ⴜ	cut_s_stereo_44KHz.wav
4	81	1	1	1	C	2	1	858	1	Ⴟ	cut_r_stereo_44KHz.wav
4	82	2	1	0	C	1	1	1244	1	Ⴇ	cut_r_stereo_44KHz.wav
4	83	3	3	2	I	1	0	906	1	Ⴜ	cut_n_stereo_44KHz.wav
4	84	4	3	2	I	1	0	707	0	Ⴊ	cut_n_stereo_44KHz.wav
4	85	3	4	2	I	1	0	1104	0	Ⴜ	cut_s_stereo_44KHz.wav
4	86	2	2	1	C	2	1	1179	1	Ⴇ	cut_ui_stereo_44KHz.wav
4	87	1	2	0	C	1	1	953	1	Ⴟ	cut_ui_stereo_44KHz.wav
4	88	4	4	2	I	2	0	1382	0	Ⴊ	cut_s_stereo_44KHz.wav
4	89	1	2	0	C	1	1	770	1	Ⴟ	cut_ui_stereo_44KHz.wav
4	90	4	4	2	I	1	0	849	0	Ⴊ	cut_s_stereo_44KHz.wav
4	91	2	1	0	C	2	0	885	0	Ⴇ	cut_r_stereo_44KHz.wav
4	92	3	4	2	I	2	0	858	1	Ⴜ	cut_s_stereo_44KHz.wav
4	93	1	1	1	C	2	1	1458	1	Ⴟ	cut_r_stereo_44KHz.wav
4	94	2	2	1	C	2	1	807	1	Ⴇ	cut_ui_stereo_44KHz.wav
4	95	4	3	2	I	2	0	884	0	Ⴊ	cut_n_stereo_44KHz.wav
4	96	3	3	2	I	1	0	790	0	Ⴜ	cut_n_stereo_44KHz.wav
4	97	1	2	0	C	1	1	814	1	Ⴟ	cut_ui_stereo_44KHz.wav
4	98	3	4	2	I	2	0	970	1	Ⴜ	cut_s_stereo_44KHz.wav
4	99	2	2	1	C	2	1	848	1	Ⴇ	cut_ui_stereo_44KHz.wav
4	100	4	3	2	I	1	0	890	1	Ⴊ	cut_n_stereo_44KHz.wav
4	101	2	1	0	C	1	1	896	1	Ⴇ	cut_r_stereo_44KHz.wav
4	102	4	4	2	I	2	0	818	1	Ⴊ	cut_s_stereo_44KHz.wav
4	103	3	3	2	I	1	0	817	0	Ⴜ	cut_n_stereo_44KHz.wav
4	104	1	1	1	C	1	0	836	0	Ⴟ	cut_r_stereo_44KHz.wav
4	105	2	1	0	C	1	1	794	1	Ⴇ	cut_r_stereo_44KHz.wav
4	106	3	4	2	I	1	0	1003	1	Ⴜ	cut_s_stereo_44KHz.wav
4	107	4	4	2	I	1	0	583	0	Ⴊ	cut_s_stereo_44KHz.wav
4	108	1	1	1	C	2	1	1080	1	Ⴟ	cut_r_stereo_44KHz.wav
4	109	2	2	1	C	2	1	1068	1	Ⴇ	cut_ui_stereo_44KHz.wav
4	110	3	3	2	I	2	0	774	1	Ⴜ	cut_n_stereo_44KHz.wav
4	111	4	3	2	I	1	0	836	1	Ⴊ	cut_n_stereo_44KHz.wav
4	112	1	2	0	C	1	1	1037	1	Ⴟ	cut_ui_stereo_44KHz.wav
4	113	2	2	1	C	2	1	810	1	Ⴇ	cut_ui_stereo_44KHz.wav
4	114	4	3	2	I	1	0	818	0	Ⴊ	cut_n_stereo_44KHz.wav
4	115	3	4	2	I	2	0	909	0	Ⴜ	cut_s_stereo_44KHz.wav
4	116	1	1	1	C	2	1	782	1	Ⴟ	cut_r_stereo_44KHz.wav
4	117	2	1	0	C	1	1	843	1	Ⴇ	cut_r_stereo_44KHz.wav
4	118	1	2	0	C	1	1	987	1	Ⴟ	cut_ui_stereo_44KHz.wav
4	119	3	3	2	I	1	0	1074	0	Ⴜ	cut_n_stereo_44KHz.wav
4	120	4	4	2	I	1	0	935	1	Ⴊ	cut_s_stereo_44KHz.wav
4	121	3	3	2	I	2	0	762	1	Ⴜ	cut_n_stereo_44KHz.wav
4	122	2	2	1	C	2	1	900	1	Ⴇ	cut_ui_stereo_44KHz.wav
4	123	4	4	2	I	2	0	853	0	Ⴊ	cut_s_stereo_44KHz.wav
4	124	1	2	0	C	1	1	1185	1	Ⴟ	cut_ui_stereo_44KHz.wav
4	125	3	4	2	I	2	0	922	1	Ⴜ	cut_s_stereo_44KHz.wav
4	126	4	3	2	I	1	0	906	1	Ⴊ	cut_n_stereo_44KHz.wav
4	127	2	1	0	C	1	1	955	1	Ⴇ	cut_r_stereo_44KHz.wav
4	128	1	1	1	C	2	1	960	1	Ⴟ	cut_r_stereo_44KHz.wav
4	129	3	4	2	I	2	0	885	1	Ⴜ	cut_s_stereo_44KHz.wav
4	130	1	1	1	C	2	1	869	1	Ⴟ	cut_r_stereo_44KHz.wav
4	131	4	3	2	I	1	0	713	1	Ⴊ	cut_n_stereo_44KHz.wav
4	132	2	2	1	C	2	1	894	1	Ⴇ	cut_ui_stereo_44KHz.wav
4	133	1	2	0	C	1	1	855	1	Ⴟ	cut_ui_stereo_44KHz.wav
4	134	4	4	2	I	2	0	1338	1	Ⴊ	cut_s_stereo_44KHz.wav
4	135	2	1	0	C	1	1	632	1	Ⴇ	cut_r_stereo_44KHz.wav
4	136	3	3	2	I	2	0	854	0	Ⴜ	cut_n_stereo_44KHz.wav
4	137	4	4	2	I	2	0	856	0	Ⴊ	cut_s_stereo_44KHz.wav
4	138	2	1	0	C	1	1	1389	1	Ⴇ	cut_r_stereo_44KHz.wav
4	139	3	3	2	I	2	0	908	1	Ⴜ	cut_n_stereo_44KHz.wav
4	140	1	1	1	C	2	1	854	1	Ⴟ	cut_r_stereo_44KHz.wav
4	141	4	3	2	I	2	0	1395	1	Ⴊ	cut_n_stereo_44KHz.wav
4	142	1	2	0	C	1	1	1231	1	Ⴟ	cut_ui_stereo_44KHz.wav
4	143	3	4	2	I	2	0	1047	0	Ⴜ	cut_s_stereo_44KHz.wav
4	144	2	2	1	C	2	1	1237	1	Ⴇ	cut_ui_stereo_44KHz.wav
4	145	3	4	2	I	2	0	976	0	Ⴜ	cut_s_stereo_44KHz.wav
4	146	4	4	2	I	1	0	763	1	Ⴊ	cut_s_stereo_44KHz.wav
4	147	1	2	0	C	1	1	772	1	Ⴟ	cut_ui_stereo_44KHz.wav
4	148	2	2	1	C	2	1	880	1	Ⴇ	cut_ui_stereo_44KHz.wav
4	149	3	3	2	I	1	0	879	1	Ⴜ	cut_n_stereo_44KHz.wav
4	150	2	1	0	C	1	1	1223	1	Ⴇ	cut_r_stereo_44KHz.wav
4	151	1	1	1	C	2	1	1056	1	Ⴟ	cut_r_stereo_44KHz.wav
4	152	4	3	2	I	1	0	968	0	Ⴊ	cut_n_stereo_44KHz.wav
4	153	3	4	2	I	1	0	728	0	Ⴜ	cut_s_stereo_44KHz.wav
4	154	4	4	2	I	1	0	705	0	Ⴊ	cut_s_stereo_44KHz.wav
4	155	1	1	1	C	2	1	905	1	Ⴟ	cut_r_stereo_44KHz.wav
4	156	2	1	0	C	1	1	1748	1	Ⴇ	cut_r_stereo_44KHz.wav
4	157	1	2	0	C	1	1	716	1	Ⴟ	cut_ui_stereo_44KHz.wav
4	158	4	3	2	I	2	0	1795	1	Ⴊ	cut_n_stereo_44KHz.wav
4	159	2	2	1	C	2	1	963	1	Ⴇ	cut_ui_stereo_44KHz.wav
4	160	3	3	2	I	1	0	907	0	Ⴜ	cut_n_stereo_44KHz.wav
4	161	4	4	2	I	2	0	799	0	Ⴊ	cut_s_stereo_44KHz.wav
4	162	2	1	0	C	1	1	738	1	Ⴇ	cut_r_stereo_44KHz.wav
4	163	1	2	0	C	1	1	669	1	Ⴟ	cut_ui_stereo_44KHz.wav
4	164	3	4	2	I	2	0	811	0	Ⴜ	cut_s_stereo_44KHz.wav
4	165	1	1	1	C	2	1	841	1	Ⴟ	cut_r_stereo_44KHz.wav
4	166	4	3	2	I	1	0	842	1	Ⴊ	cut_n_stereo_44KHz.wav
4	167	3	3	2	I	1	0	966	1	Ⴜ	cut_n_stereo_44KHz.wav
4	168	2	2	1	C	2	1	942	1	Ⴇ	cut_ui_stereo_44KHz.wav
4	169	1	2	0	C	1	1	725	1	Ⴟ	cut_ui_stereo_44KHz.wav
4	170	2	2	1	C	2	1	894	1	Ⴇ	cut_ui_stereo_44KHz.wav
4	171	4	4	2	I	1	0	788	1	Ⴊ	cut_s_stereo_44KHz.wav
4	172	3	4	2	I	1	0	595	1	Ⴜ	cut_s_stereo_44KHz.wav
4	173	1	1	1	C	2	1	902	1	Ⴟ	cut_r_stereo_44KHz.wav
4	174	4	3	2	I	1	0	693	0	Ⴊ	cut_n_stereo_44KHz.wav
4	175	2	1	0	C	1	1	1638	1	Ⴇ	cut_r_stereo_44KHz.wav
4	176	3	3	2	I	2	0	876	0	Ⴜ	cut_n_stereo_44KHz.wav
4	177	2	1	0	C	1	1	877	1	Ⴇ	cut_r_stereo_44KHz.wav
4	178	3	4	2	I	2	0	602	0	Ⴜ	cut_s_stereo_44KHz.wav
4	179	1	2	0	C	2	0	1375	0	Ⴟ	cut_ui_stereo_44KHz.wav
4	180	4	3	2	I	1	0	1108	0	Ⴊ	cut_n_stereo_44KHz.wav
4	181	1	1	1	C	2	1	816	1	Ⴟ	cut_r_stereo_44KHz.wav
4	182	2	2	1	C	2	1	979	1	Ⴇ	cut_ui_stereo_44KHz.wav
4	183	3	3	2	I	1	0	854	0	Ⴜ	cut_n_stereo_44KHz.wav
4	184	4	4	2	I	1	0	793	0	Ⴊ	cut_s_stereo_44KHz.wav
4	185	3	4	2	I	1	0	759	1	Ⴜ	cut_s_stereo_44KHz.wav
4	186	1	1	1	C	2	1	1218	1	Ⴟ	cut_r_stereo_44KHz.wav
4	187	2	1	0	C	1	1	693	1	Ⴇ	cut_r_stereo_44KHz.wav
4	188	4	4	2	I	1	0	683	1	Ⴊ	cut_s_stereo_44KHz.wav
4	189	1	2	0	C	2	0	748	0	Ⴟ	cut_ui_stereo_44KHz.wav
4	190	4	3	2	I	1	0	747	1	Ⴊ	cut_n_stereo_44KHz.wav
4	191	3	3	2	I	1	0	840	1	Ⴜ	cut_n_stereo_44KHz.wav
4	192	2	2	1	C	2	1	986	1	Ⴇ	cut_ui_stereo_44KHz.wav
4	193	4	4	2	I	1	0	713	1	Ⴊ	cut_s_stereo_44KHz.wav
4	194	2	2	1	C	2	1	1293	1	Ⴇ	cut_ui_stereo_44KHz.wav
4	195	3	4	2	I	1	0	783	0	Ⴜ	cut_s_stereo_44KHz.wav
4	196	1	2	0	C	1	1	1046	1	Ⴟ	cut_ui_stereo_44KHz.wav
4	197	3	3	2	I	2	0	847	0	Ⴜ	cut_n_stereo_44KHz.wav
4	198	2	1	0	C	1	1	1583	1	Ⴇ	cut_r_stereo_44KHz.wav
4	199	4	3	2	I	2	0	1188	1	Ⴊ	cut_n_stereo_44KHz.wav
4	200	1	1	1	C	2	1	751	1	Ⴟ	cut_r_stereo_44KHz.wav
