block	trial	Vstim	Astim	match	C/I	resp	result	RT	fb	V-file	A-file
LR

0	1	2	3	1	C	0	0	0	0	poli_8sides 21_whiteLine3.jpg	Practice2_b27_cut2_stereo_44KHz.wav
0	2	1	2	0	C	2	0	1090	0	poli_8sides 22_whiteLine3.jpg	Practice1_b27_cut1_stereo_44KHz.wav
0	3	2	4	0	C	1	1	761	1	poli_8sides 21_whiteLine3.jpg	Practice4_b26_stereo_44KHz.wav
0	4	1	1	1	C	2	1	920	1	poli_8sides 22_whiteLine3.jpg	Practice3_b26_cut1_stereo_44KHz.wav
0	5	1	2	0	C	1	1	526	1	poli_8sides 22_whiteLine3.jpg	Practice1_b27_cut1_stereo_44KHz.wav
0	6	1	1	1	C	1	0	952	0	poli_8sides 22_whiteLine3.jpg	Practice3_b26_cut1_stereo_44KHz.wav
0	7	2	4	0	C	1	1	850	1	poli_8sides 21_whiteLine3.jpg	Practice4_b26_stereo_44KHz.wav
0	8	2	3	1	C	1	0	763	0	poli_8sides 21_whiteLine3.jpg	Practice2_b27_cut2_stereo_44KHz.wav
0	9	2	4	0	C	1	1	1568	1	poli_8sides 21_whiteLine3.jpg	Practice4_b26_stereo_44KHz.wav
0	10	2	3	1	C	1	0	1181	0	poli_8sides 21_whiteLine3.jpg	Practice2_b27_cut2_stereo_44KHz.wav
0	11	1	2	0	C	2	0	951	0	poli_8sides 22_whiteLine3.jpg	Practice1_b27_cut1_stereo_44KHz.wav
0	12	1	1	1	C	1	0	1176	0	poli_8sides 22_whiteLine3.jpg	Practice3_b26_cut1_stereo_44KHz.wav
0	13	1	1	1	C	2	1	868	1	poli_8sides 22_whiteLine3.jpg	Practice3_b26_cut1_stereo_44KHz.wav
0	14	1	2	0	C	2	0	846	0	poli_8sides 22_whiteLine3.jpg	Practice1_b27_cut1_stereo_44KHz.wav
0	15	2	4	0	C	1	1	749	1	poli_8sides 21_whiteLine3.jpg	Practice4_b26_stereo_44KHz.wav
0	16	2	3	1	C	1	0	875	0	poli_8sides 21_whiteLine3.jpg	Practice2_b27_cut2_stereo_44KHz.wav
0	17	2	4	0	C	2	0	1217	0	poli_8sides 21_whiteLine3.jpg	Practice4_b26_stereo_44KHz.wav
0	18	1	2	0	C	1	1	1245	1	poli_8sides 22_whiteLine3.jpg	Practice1_b27_cut1_stereo_44KHz.wav
0	19	2	3	1	C	1	0	986	0	poli_8sides 21_whiteLine3.jpg	Practice2_b27_cut2_stereo_44KHz.wav
0	20	1	1	1	C	2	1	1234	1	poli_8sides 22_whiteLine3.jpg	Practice3_b26_cut1_stereo_44KHz.wav
0	21	1	2	0	C	2	0	887	0	poli_8sides 22_whiteLine3.jpg	Practice1_b27_cut1_stereo_44KHz.wav
0	22	2	3	1	C	1	0	999	0	poli_8sides 21_whiteLine3.jpg	Practice2_b27_cut2_stereo_44KHz.wav
0	23	2	4	0	C	2	0	885	0	poli_8sides 21_whiteLine3.jpg	Practice4_b26_stereo_44KHz.wav
0	24	1	1	1	C	1	0	1073	0	poli_8sides 22_whiteLine3.jpg	Practice3_b26_cut1_stereo_44KHz.wav
0	25	1	2	0	C	2	0	1232	0	poli_8sides 22_whiteLine3.jpg	Practice1_b27_cut1_stereo_44KHz.wav
0	26	1	1	1	C	2	1	1160	1	poli_8sides 22_whiteLine3.jpg	Practice3_b26_cut1_stereo_44KHz.wav
0	27	2	3	1	C	2	1	931	1	poli_8sides 21_whiteLine3.jpg	Practice2_b27_cut2_stereo_44KHz.wav
0	28	2	4	0	C	2	0	1072	0	poli_8sides 21_whiteLine3.jpg	Practice4_b26_stereo_44KHz.wav
0	29	1	1	1	C	2	1	1110	1	poli_8sides 22_whiteLine3.jpg	Practice3_b26_cut1_stereo_44KHz.wav
0	30	2	3	1	C	1	0	832	0	poli_8sides 21_whiteLine3.jpg	Practice2_b27_cut2_stereo_44KHz.wav
avg_resp = 994
1	1	1	2	0	C	2	0	1787	0	poli_8sides 15_whiteLine3.jpg	Medium_e21_stereo_44KHz.wav
1	2	3	3	2	I	2	0	1112	1	poli_8sides 3_whiteLine3.jpg	MediumLong_e17_cut2_stereo_44KHz.wav
1	3	4	4	2	I	1	0	1226	1	poli_8sides 10_whiteLine3.jpg	Medium_e01_cut1_stereo_44KHz.wav
1	4	2	1	0	C	2	0	1171	0	poli_8sides 16_whiteLine3.jpg	MediumLong_e04_stereo_44KHz.wav
1	5	3	4	2	I	2	0	907	0	poli_8sides 3_whiteLine3.jpg	Medium_e01_cut1_stereo_44KHz.wav
1	6	4	3	2	I	1	0	1063	1	poli_8sides 10_whiteLine3.jpg	MediumLong_e17_cut2_stereo_44KHz.wav
1	7	1	1	1	C	1	0	1012	0	poli_8sides 15_whiteLine3.jpg	MediumLong_e04_stereo_44KHz.wav
1	8	2	2	1	C	1	0	1615	0	poli_8sides 16_whiteLine3.jpg	Medium_e21_stereo_44KHz.wav
1	9	1	2	0	C	2	0	1252	0	poli_8sides 15_whiteLine3.jpg	Medium_e21_stereo_44KHz.wav
1	10	3	3	2	I	2	0	888	1	poli_8sides 3_whiteLine3.jpg	MediumLong_e17_cut2_stereo_44KHz.wav
1	11	4	4	2	I	1	0	1035	1	poli_8sides 10_whiteLine3.jpg	Medium_e01_cut1_stereo_44KHz.wav
1	12	2	1	0	C	1	1	1134	1	poli_8sides 16_whiteLine3.jpg	MediumLong_e04_stereo_44KHz.wav
1	13	4	3	2	I	1	0	1264	1	poli_8sides 10_whiteLine3.jpg	MediumLong_e17_cut2_stereo_44KHz.wav
1	14	3	4	2	I	2	0	1061	0	poli_8sides 3_whiteLine3.jpg	Medium_e01_cut1_stereo_44KHz.wav
1	15	2	2	1	C	1	0	927	0	poli_8sides 16_whiteLine3.jpg	Medium_e21_stereo_44KHz.wav
1	16	1	1	1	C	1	0	1169	0	poli_8sides 15_whiteLine3.jpg	MediumLong_e04_stereo_44KHz.wav
1	17	3	4	2	I	1	0	1104	0	poli_8sides 3_whiteLine3.jpg	Medium_e01_cut1_stereo_44KHz.wav
1	18	4	3	2	I	2	0	981	1	poli_8sides 10_whiteLine3.jpg	MediumLong_e17_cut2_stereo_44KHz.wav
1	19	1	2	0	C	1	1	724	1	poli_8sides 15_whiteLine3.jpg	Medium_e21_stereo_44KHz.wav
1	20	2	2	1	C	2	1	1195	1	poli_8sides 16_whiteLine3.jpg	Medium_e21_stereo_44KHz.wav
1	21	4	4	2	I	1	0	883	1	poli_8sides 10_whiteLine3.jpg	Medium_e01_cut1_stereo_44KHz.wav
1	22	1	1	1	C	2	1	1347	1	poli_8sides 15_whiteLine3.jpg	MediumLong_e04_stereo_44KHz.wav
1	23	3	3	2	I	2	0	1161	1	poli_8sides 3_whiteLine3.jpg	MediumLong_e17_cut2_stereo_44KHz.wav
1	24	2	1	0	C	2	0	1188	0	poli_8sides 16_whiteLine3.jpg	MediumLong_e04_stereo_44KHz.wav
1	25	4	4	2	I	1	0	1596	1	poli_8sides 10_whiteLine3.jpg	Medium_e01_cut1_stereo_44KHz.wav
1	26	2	2	1	C	1	0	1154	0	poli_8sides 16_whiteLine3.jpg	Medium_e21_stereo_44KHz.wav
1	27	1	2	0	C	2	0	1338	0	poli_8sides 15_whiteLine3.jpg	Medium_e21_stereo_44KHz.wav
1	28	3	4	2	I	1	0	1216	0	poli_8sides 3_whiteLine3.jpg	Medium_e01_cut1_stereo_44KHz.wav
1	29	4	3	2	I	1	0	973	0	poli_8sides 10_whiteLine3.jpg	MediumLong_e17_cut2_stereo_44KHz.wav
1	30	3	3	2	I	2	0	808	1	poli_8sides 3_whiteLine3.jpg	MediumLong_e17_cut2_stereo_44KHz.wav
1	31	1	1	1	C	2	1	1543	1	poli_8sides 15_whiteLine3.jpg	MediumLong_e04_stereo_44KHz.wav
1	32	2	1	0	C	1	1	952	1	poli_8sides 16_whiteLine3.jpg	MediumLong_e04_stereo_44KHz.wav
1	33	1	2	0	C	1	1	893	1	poli_8sides 15_whiteLine3.jpg	Medium_e21_stereo_44KHz.wav
1	34	3	3	2	I	2	0	753	0	poli_8sides 3_whiteLine3.jpg	MediumLong_e17_cut2_stereo_44KHz.wav
1	35	4	4	2	I	2	0	1163	0	poli_8sides 10_whiteLine3.jpg	Medium_e01_cut1_stereo_44KHz.wav
1	36	2	1	0	C	1	1	1312	1	poli_8sides 16_whiteLine3.jpg	MediumLong_e04_stereo_44KHz.wav
1	37	4	3	2	I	1	0	1096	1	poli_8sides 10_whiteLine3.jpg	MediumLong_e17_cut2_stereo_44KHz.wav
1	38	2	2	1	C	2	1	1323	1	poli_8sides 16_whiteLine3.jpg	Medium_e21_stereo_44KHz.wav
1	39	1	1	1	C	2	1	1291	1	poli_8sides 15_whiteLine3.jpg	MediumLong_e04_stereo_44KHz.wav
1	40	3	4	2	I	1	0	1378	0	poli_8sides 3_whiteLine3.jpg	Medium_e01_cut1_stereo_44KHz.wav
1	41	4	3	2	I	1	0	1220	0	poli_8sides 10_whiteLine3.jpg	MediumLong_e17_cut2_stereo_44KHz.wav
1	42	1	1	1	C	2	1	1266	1	poli_8sides 15_whiteLine3.jpg	MediumLong_e04_stereo_44KHz.wav
1	43	3	3	2	I	2	0	1089	0	poli_8sides 3_whiteLine3.jpg	MediumLong_e17_cut2_stereo_44KHz.wav
1	44	2	2	1	C	1	0	1232	0	poli_8sides 16_whiteLine3.jpg	Medium_e21_stereo_44KHz.wav
1	45	1	2	0	C	1	1	1497	1	poli_8sides 15_whiteLine3.jpg	Medium_e21_stereo_44KHz.wav
1	46	3	4	2	I	1	0	1717	0	poli_8sides 3_whiteLine3.jpg	Medium_e01_cut1_stereo_44KHz.wav
1	47	2	1	0	C	1	1	1214	1	poli_8sides 16_whiteLine3.jpg	MediumLong_e04_stereo_44KHz.wav
1	48	4	4	2	I	0	0	0	0	poli_8sides 10_whiteLine3.jpg	Medium_e01_cut1_stereo_44KHz.wav
1	49	2	2	1	C	1	0	1317	0	poli_8sides 16_whiteLine3.jpg	Medium_e21_stereo_44KHz.wav
1	50	3	3	2	I	2	0	1020	1	poli_8sides 3_whiteLine3.jpg	MediumLong_e17_cut2_stereo_44KHz.wav
1	51	1	2	0	C	1	1	926	1	poli_8sides 15_whiteLine3.jpg	Medium_e21_stereo_44KHz.wav
1	52	4	4	2	I	2	0	1680	1	poli_8sides 10_whiteLine3.jpg	Medium_e01_cut1_stereo_44KHz.wav
1	53	1	1	1	C	2	1	1389	1	poli_8sides 15_whiteLine3.jpg	MediumLong_e04_stereo_44KHz.wav
1	54	2	1	0	C	1	1	1009	1	poli_8sides 16_whiteLine3.jpg	MediumLong_e04_stereo_44KHz.wav
1	55	3	4	2	I	1	0	1379	1	poli_8sides 3_whiteLine3.jpg	Medium_e01_cut1_stereo_44KHz.wav
1	56	4	3	2	I	1	0	1123	0	poli_8sides 10_whiteLine3.jpg	MediumLong_e17_cut2_stereo_44KHz.wav
1	57	2	1	0	C	1	1	1522	1	poli_8sides 16_whiteLine3.jpg	MediumLong_e04_stereo_44KHz.wav
1	58	4	3	2	I	1	0	875	1	poli_8sides 10_whiteLine3.jpg	MediumLong_e17_cut2_stereo_44KHz.wav
1	59	3	3	2	I	2	0	844	1	poli_8sides 3_whiteLine3.jpg	MediumLong_e17_cut2_stereo_44KHz.wav
1	60	1	2	0	C	1	1	1060	1	poli_8sides 15_whiteLine3.jpg	Medium_e21_stereo_44KHz.wav
1	61	2	2	1	C	2	1	983	1	poli_8sides 16_whiteLine3.jpg	Medium_e21_stereo_44KHz.wav
1	62	1	1	1	C	2	1	998	1	poli_8sides 15_whiteLine3.jpg	MediumLong_e04_stereo_44KHz.wav
1	63	3	4	2	I	1	0	746	0	poli_8sides 3_whiteLine3.jpg	Medium_e01_cut1_stereo_44KHz.wav
1	64	4	4	2	I	1	0	1099	0	poli_8sides 10_whiteLine3.jpg	Medium_e01_cut1_stereo_44KHz.wav
1	65	3	3	2	I	2	0	1303	0	poli_8sides 3_whiteLine3.jpg	MediumLong_e17_cut2_stereo_44KHz.wav
1	66	1	2	0	C	1	1	1012	1	poli_8sides 15_whiteLine3.jpg	Medium_e21_stereo_44KHz.wav
1	67	4	4	2	I	1	0	1615	0	poli_8sides 10_whiteLine3.jpg	Medium_e01_cut1_stereo_44KHz.wav
1	68	2	1	0	C	1	1	1371	1	poli_8sides 16_whiteLine3.jpg	MediumLong_e04_stereo_44KHz.wav
1	69	3	4	2	I	2	0	1494	1	poli_8sides 3_whiteLine3.jpg	Medium_e01_cut1_stereo_44KHz.wav
1	70	2	2	1	C	2	1	1440	1	poli_8sides 16_whiteLine3.jpg	Medium_e21_stereo_44KHz.wav
1	71	1	1	1	C	1	0	1313	0	poli_8sides 15_whiteLine3.jpg	MediumLong_e04_stereo_44KHz.wav
1	72	4	3	2	I	1	0	1273	1	poli_8sides 10_whiteLine3.jpg	MediumLong_e17_cut2_stereo_44KHz.wav
1	73	1	2	0	C	1	1	1069	1	poli_8sides 15_whiteLine3.jpg	Medium_e21_stereo_44KHz.wav
1	74	2	1	0	C	1	1	1547	1	poli_8sides 16_whiteLine3.jpg	MediumLong_e04_stereo_44KHz.wav
1	75	4	4	2	I	2	0	916	0	poli_8sides 10_whiteLine3.jpg	Medium_e01_cut1_stereo_44KHz.wav
1	76	3	3	2	I	1	0	1778	1	poli_8sides 3_whiteLine3.jpg	MediumLong_e17_cut2_stereo_44KHz.wav
1	77	2	2	1	C	2	1	1291	1	poli_8sides 16_whiteLine3.jpg	Medium_e21_stereo_44KHz.wav
1	78	1	1	1	C	2	1	1222	1	poli_8sides 15_whiteLine3.jpg	MediumLong_e04_stereo_44KHz.wav
1	79	3	4	2	I	1	0	924	0	poli_8sides 3_whiteLine3.jpg	Medium_e01_cut1_stereo_44KHz.wav
1	80	4	3	2	I	1	0	1376	0	poli_8sides 10_whiteLine3.jpg	MediumLong_e17_cut2_stereo_44KHz.wav
1	81	1	1	1	C	2	1	1013	1	poli_8sides 15_whiteLine3.jpg	MediumLong_e04_stereo_44KHz.wav
1	82	4	3	2	I	1	0	1060	1	poli_8sides 10_whiteLine3.jpg	MediumLong_e17_cut2_stereo_44KHz.wav
1	83	3	3	2	I	2	0	934	1	poli_8sides 3_whiteLine3.jpg	MediumLong_e17_cut2_stereo_44KHz.wav
1	84	2	2	1	C	2	1	1122	1	poli_8sides 16_whiteLine3.jpg	Medium_e21_stereo_44KHz.wav
1	85	4	4	2	I	2	0	829	0	poli_8sides 10_whiteLine3.jpg	Medium_e01_cut1_stereo_44KHz.wav
1	86	1	2	0	C	1	1	932	1	poli_8sides 15_whiteLine3.jpg	Medium_e21_stereo_44KHz.wav
1	87	2	1	0	C	1	1	1455	1	poli_8sides 16_whiteLine3.jpg	MediumLong_e04_stereo_44KHz.wav
1	88	3	4	2	I	1	0	1131	1	poli_8sides 3_whiteLine3.jpg	Medium_e01_cut1_stereo_44KHz.wav
1	89	1	2	0	C	1	1	987	1	poli_8sides 15_whiteLine3.jpg	Medium_e21_stereo_44KHz.wav
1	90	4	4	2	I	2	0	897	0	poli_8sides 10_whiteLine3.jpg	Medium_e01_cut1_stereo_44KHz.wav
1	91	3	4	2	I	2	0	1295	1	poli_8sides 3_whiteLine3.jpg	Medium_e01_cut1_stereo_44KHz.wav
1	92	2	1	0	C	1	1	1163	1	poli_8sides 16_whiteLine3.jpg	MediumLong_e04_stereo_44KHz.wav
1	93	3	3	2	I	1	0	1531	0	poli_8sides 3_whiteLine3.jpg	MediumLong_e17_cut2_stereo_44KHz.wav
1	94	4	3	2	I	1	0	1142	1	poli_8sides 10_whiteLine3.jpg	MediumLong_e17_cut2_stereo_44KHz.wav
1	95	1	1	1	C	2	1	1280	1	poli_8sides 15_whiteLine3.jpg	MediumLong_e04_stereo_44KHz.wav
1	96	2	2	1	C	2	1	1074	1	poli_8sides 16_whiteLine3.jpg	Medium_e21_stereo_44KHz.wav
1	97	3	3	2	I	2	0	917	0	poli_8sides 3_whiteLine3.jpg	MediumLong_e17_cut2_stereo_44KHz.wav
1	98	1	1	1	C	2	1	1489	1	poli_8sides 15_whiteLine3.jpg	MediumLong_e04_stereo_44KHz.wav
1	99	4	4	2	I	2	0	889	1	poli_8sides 10_whiteLine3.jpg	Medium_e01_cut1_stereo_44KHz.wav
1	100	2	2	1	C	2	1	1003	1	poli_8sides 16_whiteLine3.jpg	Medium_e21_stereo_44KHz.wav
1	101	3	4	2	I	1	0	1283	0	poli_8sides 3_whiteLine3.jpg	Medium_e01_cut1_stereo_44KHz.wav
1	102	4	3	2	I	1	0	1079	1	poli_8sides 10_whiteLine3.jpg	MediumLong_e17_cut2_stereo_44KHz.wav
1	103	1	2	0	C	1	1	1000	1	poli_8sides 15_whiteLine3.jpg	Medium_e21_stereo_44KHz.wav
1	104	2	1	0	C	1	1	1116	1	poli_8sides 16_whiteLine3.jpg	MediumLong_e04_stereo_44KHz.wav
1	105	4	4	2	I	2	0	1417	1	poli_8sides 10_whiteLine3.jpg	Medium_e01_cut1_stereo_44KHz.wav
1	106	2	1	0	C	1	1	1030	1	poli_8sides 16_whiteLine3.jpg	MediumLong_e04_stereo_44KHz.wav
1	107	3	3	2	I	2	0	1506	1	poli_8sides 3_whiteLine3.jpg	MediumLong_e17_cut2_stereo_44KHz.wav
1	108	1	1	1	C	2	1	1163	1	poli_8sides 15_whiteLine3.jpg	MediumLong_e04_stereo_44KHz.wav
1	109	4	3	2	I	1	0	1130	1	poli_8sides 10_whiteLine3.jpg	MediumLong_e17_cut2_stereo_44KHz.wav
1	110	1	2	0	C	1	1	1053	1	poli_8sides 15_whiteLine3.jpg	Medium_e21_stereo_44KHz.wav
1	111	2	2	1	C	2	1	748	1	poli_8sides 16_whiteLine3.jpg	Medium_e21_stereo_44KHz.wav
1	112	3	4	2	I	1	0	1303	0	poli_8sides 3_whiteLine3.jpg	Medium_e01_cut1_stereo_44KHz.wav
1	113	2	1	0	C	1	1	959	1	poli_8sides 16_whiteLine3.jpg	MediumLong_e04_stereo_44KHz.wav
1	114	3	4	2	I	2	0	1040	0	poli_8sides 3_whiteLine3.jpg	Medium_e01_cut1_stereo_44KHz.wav
1	115	1	1	1	C	2	1	1175	1	poli_8sides 15_whiteLine3.jpg	MediumLong_e04_stereo_44KHz.wav
1	116	4	4	2	I	2	0	1287	0	poli_8sides 10_whiteLine3.jpg	Medium_e01_cut1_stereo_44KHz.wav
1	117	2	2	1	C	2	1	1172	1	poli_8sides 16_whiteLine3.jpg	Medium_e21_stereo_44KHz.wav
1	118	4	3	2	I	1	0	1139	0	poli_8sides 10_whiteLine3.jpg	MediumLong_e17_cut2_stereo_44KHz.wav
1	119	3	3	2	I	1	0	1236	1	poli_8sides 3_whiteLine3.jpg	MediumLong_e17_cut2_stereo_44KHz.wav
1	120	1	2	0	C	1	1	1456	1	poli_8sides 15_whiteLine3.jpg	Medium_e21_stereo_44KHz.wav
1	121	3	3	2	I	2	0	926	1	poli_8sides 3_whiteLine3.jpg	MediumLong_e17_cut2_stereo_44KHz.wav
1	122	2	2	1	C	2	1	986	1	poli_8sides 16_whiteLine3.jpg	Medium_e21_stereo_44KHz.wav
1	123	1	1	1	C	2	1	958	1	poli_8sides 15_whiteLine3.jpg	MediumLong_e04_stereo_44KHz.wav
1	124	4	4	2	I	2	0	1161	1	poli_8sides 10_whiteLine3.jpg	Medium_e01_cut1_stereo_44KHz.wav
1	125	3	4	2	I	1	0	778	0	poli_8sides 3_whiteLine3.jpg	Medium_e01_cut1_stereo_44KHz.wav
1	126	1	2	0	C	1	1	1400	1	poli_8sides 15_whiteLine3.jpg	Medium_e21_stereo_44KHz.wav
1	127	4	3	2	I	1	0	1351	0	poli_8sides 10_whiteLine3.jpg	MediumLong_e17_cut2_stereo_44KHz.wav
1	128	2	1	0	C	1	1	969	1	poli_8sides 16_whiteLine3.jpg	MediumLong_e04_stereo_44KHz.wav
1	129	4	4	2	I	2	0	1120	1	poli_8sides 10_whiteLine3.jpg	Medium_e01_cut1_stereo_44KHz.wav
1	130	3	4	2	I	1	0	1076	1	poli_8sides 3_whiteLine3.jpg	Medium_e01_cut1_stereo_44KHz.wav
1	131	2	2	1	C	2	1	890	1	poli_8sides 16_whiteLine3.jpg	Medium_e21_stereo_44KHz.wav
1	132	1	1	1	C	2	1	1077	1	poli_8sides 15_whiteLine3.jpg	MediumLong_e04_stereo_44KHz.wav
1	133	4	3	2	I	1	0	932	0	poli_8sides 10_whiteLine3.jpg	MediumLong_e17_cut2_stereo_44KHz.wav
1	134	2	1	0	C	1	1	1325	1	poli_8sides 16_whiteLine3.jpg	MediumLong_e04_stereo_44KHz.wav
1	135	3	3	2	I	2	0	843	1	poli_8sides 3_whiteLine3.jpg	MediumLong_e17_cut2_stereo_44KHz.wav
1	136	1	2	0	C	1	1	1415	1	poli_8sides 15_whiteLine3.jpg	Medium_e21_stereo_44KHz.wav
1	137	2	2	1	C	2	1	965	1	poli_8sides 16_whiteLine3.jpg	Medium_e21_stereo_44KHz.wav
1	138	4	3	2	I	1	0	997	1	poli_8sides 10_whiteLine3.jpg	MediumLong_e17_cut2_stereo_44KHz.wav
1	139	1	1	1	C	2	1	833	1	poli_8sides 15_whiteLine3.jpg	MediumLong_e04_stereo_44KHz.wav
1	140	3	3	2	I	2	0	722	0	poli_8sides 3_whiteLine3.jpg	MediumLong_e17_cut2_stereo_44KHz.wav
1	141	1	2	0	C	1	1	1488	1	poli_8sides 15_whiteLine3.jpg	Medium_e21_stereo_44KHz.wav
1	142	4	4	2	I	2	0	1057	0	poli_8sides 10_whiteLine3.jpg	Medium_e01_cut1_stereo_44KHz.wav
1	143	3	4	2	I	1	0	1192	1	poli_8sides 3_whiteLine3.jpg	Medium_e01_cut1_stereo_44KHz.wav
1	144	2	1	0	C	1	1	1090	1	poli_8sides 16_whiteLine3.jpg	MediumLong_e04_stereo_44KHz.wav
1	145	4	3	2	I	1	0	1015	0	poli_8sides 10_whiteLine3.jpg	MediumLong_e17_cut2_stereo_44KHz.wav
1	146	1	1	1	C	2	1	868	1	poli_8sides 15_whiteLine3.jpg	MediumLong_e04_stereo_44KHz.wav
1	147	2	1	0	C	1	1	889	1	poli_8sides 16_whiteLine3.jpg	MediumLong_e04_stereo_44KHz.wav
1	148	3	4	2	I	2	0	1454	0	poli_8sides 3_whiteLine3.jpg	Medium_e01_cut1_stereo_44KHz.wav
1	149	2	2	1	C	2	1	962	1	poli_8sides 16_whiteLine3.jpg	Medium_e21_stereo_44KHz.wav
1	150	1	2	0	C	2	0	1122	0	poli_8sides 15_whiteLine3.jpg	Medium_e21_stereo_44KHz.wav
1	151	4	4	2	I	2	0	1126	1	poli_8sides 10_whiteLine3.jpg	Medium_e01_cut1_stereo_44KHz.wav
1	152	3	3	2	I	2	0	1434	0	poli_8sides 3_whiteLine3.jpg	MediumLong_e17_cut2_stereo_44KHz.wav
1	153	4	4	2	I	2	0	1740	0	poli_8sides 10_whiteLine3.jpg	Medium_e01_cut1_stereo_44KHz.wav
1	154	3	3	2	I	1	0	1186	1	poli_8sides 3_whiteLine3.jpg	MediumLong_e17_cut2_stereo_44KHz.wav
1	155	2	1	0	C	1	1	938	1	poli_8sides 16_whiteLine3.jpg	MediumLong_e04_stereo_44KHz.wav
1	156	1	1	1	C	2	1	754	1	poli_8sides 15_whiteLine3.jpg	MediumLong_e04_stereo_44KHz.wav
1	157	4	3	2	I	1	0	1020	1	poli_8sides 10_whiteLine3.jpg	MediumLong_e17_cut2_stereo_44KHz.wav
1	158	1	2	0	C	1	1	1055	1	poli_8sides 15_whiteLine3.jpg	Medium_e21_stereo_44KHz.wav
1	159	2	2	1	C	2	1	690	1	poli_8sides 16_whiteLine3.jpg	Medium_e21_stereo_44KHz.wav
1	160	3	4	2	I	1	0	889	0	poli_8sides 3_whiteLine3.jpg	Medium_e01_cut1_stereo_44KHz.wav
1	161	4	4	2	I	1	0	1218	0	poli_8sides 10_whiteLine3.jpg	Medium_e01_cut1_stereo_44KHz.wav
1	162	2	2	1	C	2	1	889	1	poli_8sides 16_whiteLine3.jpg	Medium_e21_stereo_44KHz.wav
1	163	1	2	0	C	2	0	1139	0	poli_8sides 15_whiteLine3.jpg	Medium_e21_stereo_44KHz.wav
1	164	3	4	2	I	1	0	1417	1	poli_8sides 3_whiteLine3.jpg	Medium_e01_cut1_stereo_44KHz.wav
1	165	1	1	1	C	1	0	1755	0	poli_8sides 15_whiteLine3.jpg	MediumLong_e04_stereo_44KHz.wav
1	166	4	3	2	I	2	0	1012	0	poli_8sides 10_whiteLine3.jpg	MediumLong_e17_cut2_stereo_44KHz.wav
1	167	3	3	2	I	2	0	1422	1	poli_8sides 3_whiteLine3.jpg	MediumLong_e17_cut2_stereo_44KHz.wav
1	168	2	1	0	C	1	1	792	1	poli_8sides 16_whiteLine3.jpg	MediumLong_e04_stereo_44KHz.wav
1	169	4	3	2	I	1	0	1132	0	poli_8sides 10_whiteLine3.jpg	MediumLong_e17_cut2_stereo_44KHz.wav
1	170	3	3	2	I	2	0	712	1	poli_8sides 3_whiteLine3.jpg	MediumLong_e17_cut2_stereo_44KHz.wav
1	171	2	2	1	C	2	1	1045	1	poli_8sides 16_whiteLine3.jpg	Medium_e21_stereo_44KHz.wav
1	172	1	2	0	C	1	1	1153	1	poli_8sides 15_whiteLine3.jpg	Medium_e21_stereo_44KHz.wav
1	173	3	4	2	I	1	0	1020	0	poli_8sides 3_whiteLine3.jpg	Medium_e01_cut1_stereo_44KHz.wav
1	174	1	1	1	C	2	1	1186	1	poli_8sides 15_whiteLine3.jpg	MediumLong_e04_stereo_44KHz.wav
1	175	4	4	2	I	2	0	1262	0	poli_8sides 10_whiteLine3.jpg	Medium_e01_cut1_stereo_44KHz.wav
1	176	2	1	0	C	1	1	967	1	poli_8sides 16_whiteLine3.jpg	MediumLong_e04_stereo_44KHz.wav
1	177	4	3	2	I	1	0	1138	0	poli_8sides 10_whiteLine3.jpg	MediumLong_e17_cut2_stereo_44KHz.wav
1	178	1	1	1	C	2	1	777	1	poli_8sides 15_whiteLine3.jpg	MediumLong_e04_stereo_44KHz.wav
1	179	3	4	2	I	2	0	1077	0	poli_8sides 3_whiteLine3.jpg	Medium_e01_cut1_stereo_44KHz.wav
1	180	2	2	1	C	2	1	1053	1	poli_8sides 16_whiteLine3.jpg	Medium_e21_stereo_44KHz.wav
1	181	1	2	0	C	1	1	1050	1	poli_8sides 15_whiteLine3.jpg	Medium_e21_stereo_44KHz.wav
1	182	4	4	2	I	2	0	927	1	poli_8sides 10_whiteLine3.jpg	Medium_e01_cut1_stereo_44KHz.wav
1	183	2	1	0	C	1	1	1128	1	poli_8sides 16_whiteLine3.jpg	MediumLong_e04_stereo_44KHz.wav
1	184	3	3	2	I	2	0	1037	1	poli_8sides 3_whiteLine3.jpg	MediumLong_e17_cut2_stereo_44KHz.wav
1	185	2	2	1	C	2	1	1131	1	poli_8sides 16_whiteLine3.jpg	Medium_e21_stereo_44KHz.wav
1	186	3	3	2	I	2	0	1065	0	poli_8sides 3_whiteLine3.jpg	MediumLong_e17_cut2_stereo_44KHz.wav
1	187	4	4	2	I	2	0	1392	0	poli_8sides 10_whiteLine3.jpg	Medium_e01_cut1_stereo_44KHz.wav
1	188	1	2	0	C	1	1	1215	1	poli_8sides 15_whiteLine3.jpg	Medium_e21_stereo_44KHz.wav
1	189	3	4	2	I	1	0	975	0	poli_8sides 3_whiteLine3.jpg	Medium_e01_cut1_stereo_44KHz.wav
1	190	4	3	2	I	1	0	1351	1	poli_8sides 10_whiteLine3.jpg	MediumLong_e17_cut2_stereo_44KHz.wav
1	191	2	1	0	C	1	1	991	1	poli_8sides 16_whiteLine3.jpg	MediumLong_e04_stereo_44KHz.wav
1	192	1	1	1	C	2	1	1049	1	poli_8sides 15_whiteLine3.jpg	MediumLong_e04_stereo_44KHz.wav
1	193	2	2	1	C	2	1	868	1	poli_8sides 16_whiteLine3.jpg	Medium_e21_stereo_44KHz.wav
1	194	4	3	2	I	2	0	762	1	poli_8sides 10_whiteLine3.jpg	MediumLong_e17_cut2_stereo_44KHz.wav
1	195	3	4	2	I	1	0	1183	1	poli_8sides 3_whiteLine3.jpg	Medium_e01_cut1_stereo_44KHz.wav
1	196	1	1	1	C	2	1	853	1	poli_8sides 15_whiteLine3.jpg	MediumLong_e04_stereo_44KHz.wav
1	197	2	1	0	C	1	1	893	1	poli_8sides 16_whiteLine3.jpg	MediumLong_e04_stereo_44KHz.wav
1	198	1	2	0	C	1	1	1136	1	poli_8sides 15_whiteLine3.jpg	Medium_e21_stereo_44KHz.wav
1	199	3	3	2	I	1	0	1452	1	poli_8sides 3_whiteLine3.jpg	MediumLong_e17_cut2_stereo_44KHz.wav
1	200	4	4	2	I	1	0	1108	0	poli_8sides 10_whiteLine3.jpg	Medium_e01_cut1_stereo_44KHz.wav
2	1	2	1	0	C	1	1	1777	1	poli_8sides 8_whiteLine3.jpg	Short_b09_cut1_stereo_44KHz.wav
2	2	3	3	2	I	1	0	1310	1	poli_8sides 5_whiteLine3.jpg	Short_b20_cut1_stereo_44KHz.wav
2	3	4	3	2	I	2	0	810	1	poli_8sides 1_whiteLine3.jpg	Short_b20_cut1_stereo_44KHz.wav
2	4	1	1	1	C	2	1	869	1	poli_8sides 12_whiteLine3.jpg	Short_b09_cut1_stereo_44KHz.wav
2	5	2	2	1	C	2	1	660	1	poli_8sides 8_whiteLine3.jpg	Short_b22_cut1_stereo_44KHz.wav
2	6	1	2	0	C	2	0	907	0	poli_8sides 12_whiteLine3.jpg	Short_b22_cut1_stereo_44KHz.wav
2	7	4	4	2	I	1	0	976	0	poli_8sides 1_whiteLine3.jpg	Short_b23_cut1_stereo_44KHz.wav
2	8	3	4	2	I	1	0	1462	1	poli_8sides 5_whiteLine3.jpg	Short_b23_cut1_stereo_44KHz.wav
2	9	2	1	0	C	1	1	1082	1	poli_8sides 8_whiteLine3.jpg	Short_b09_cut1_stereo_44KHz.wav
2	10	1	1	1	C	2	1	1505	1	poli_8sides 12_whiteLine3.jpg	Short_b09_cut1_stereo_44KHz.wav
2	11	3	3	2	I	1	0	1260	1	poli_8sides 5_whiteLine3.jpg	Short_b20_cut1_stereo_44KHz.wav
2	12	4	3	2	I	2	0	800	0	poli_8sides 1_whiteLine3.jpg	Short_b20_cut1_stereo_44KHz.wav
2	13	1	2	0	C	1	1	1419	1	poli_8sides 12_whiteLine3.jpg	Short_b22_cut1_stereo_44KHz.wav
2	14	4	4	2	I	2	0	1039	1	poli_8sides 1_whiteLine3.jpg	Short_b23_cut1_stereo_44KHz.wav
2	15	3	4	2	I	1	0	1169	0	poli_8sides 5_whiteLine3.jpg	Short_b23_cut1_stereo_44KHz.wav
2	16	2	2	1	C	1	0	1021	0	poli_8sides 8_whiteLine3.jpg	Short_b22_cut1_stereo_44KHz.wav
2	17	1	1	1	C	1	0	1092	0	poli_8sides 12_whiteLine3.jpg	Short_b09_cut1_stereo_44KHz.wav
2	18	2	1	0	C	2	0	964	0	poli_8sides 8_whiteLine3.jpg	Short_b09_cut1_stereo_44KHz.wav
2	19	4	4	2	I	1	0	1013	0	poli_8sides 1_whiteLine3.jpg	Short_b23_cut1_stereo_44KHz.wav
2	20	3	3	2	I	2	0	965	0	poli_8sides 5_whiteLine3.jpg	Short_b20_cut1_stereo_44KHz.wav
2	21	1	2	0	C	1	1	1015	1	poli_8sides 12_whiteLine3.jpg	Short_b22_cut1_stereo_44KHz.wav
2	22	2	2	1	C	2	1	1237	1	poli_8sides 8_whiteLine3.jpg	Short_b22_cut1_stereo_44KHz.wav
2	23	3	4	2	I	1	0	660	1	poli_8sides 5_whiteLine3.jpg	Short_b23_cut1_stereo_44KHz.wav
2	24	4	3	2	I	1	0	1158	1	poli_8sides 1_whiteLine3.jpg	Short_b20_cut1_stereo_44KHz.wav
2	25	3	4	2	I	1	0	894	0	poli_8sides 5_whiteLine3.jpg	Short_b23_cut1_stereo_44KHz.wav
2	26	2	2	1	C	1	0	779	0	poli_8sides 8_whiteLine3.jpg	Short_b22_cut1_stereo_44KHz.wav
2	27	1	1	1	C	1	0	975	0	poli_8sides 12_whiteLine3.jpg	Short_b09_cut1_stereo_44KHz.wav
2	28	4	3	2	I	1	0	1101	1	poli_8sides 1_whiteLine3.jpg	Short_b20_cut1_stereo_44KHz.wav
2	29	2	1	0	C	2	0	1475	0	poli_8sides 8_whiteLine3.jpg	Short_b09_cut1_stereo_44KHz.wav
2	30	3	3	2	I	2	0	1231	0	poli_8sides 5_whiteLine3.jpg	Short_b20_cut1_stereo_44KHz.wav
2	31	4	4	2	I	2	0	1165	0	poli_8sides 1_whiteLine3.jpg	Short_b23_cut1_stereo_44KHz.wav
2	32	1	2	0	C	2	0	1426	0	poli_8sides 12_whiteLine3.jpg	Short_b22_cut1_stereo_44KHz.wav
2	33	2	2	1	C	1	0	1062	0	poli_8sides 8_whiteLine3.jpg	Short_b22_cut1_stereo_44KHz.wav
2	34	1	2	0	C	2	0	1351	0	poli_8sides 12_whiteLine3.jpg	Short_b22_cut1_stereo_44KHz.wav
2	35	3	3	2	I	1	0	1157	1	poli_8sides 5_whiteLine3.jpg	Short_b20_cut1_stereo_44KHz.wav
2	36	4	3	2	I	2	0	1205	0	poli_8sides 1_whiteLine3.jpg	Short_b20_cut1_stereo_44KHz.wav
2	37	2	1	0	C	1	1	1045	1	poli_8sides 8_whiteLine3.jpg	Short_b09_cut1_stereo_44KHz.wav
2	38	1	1	1	C	2	1	878	1	poli_8sides 12_whiteLine3.jpg	Short_b09_cut1_stereo_44KHz.wav
2	39	3	4	2	I	1	0	925	1	poli_8sides 5_whiteLine3.jpg	Short_b23_cut1_stereo_44KHz.wav
2	40	4	4	2	I	2	0	995	1	poli_8sides 1_whiteLine3.jpg	Short_b23_cut1_stereo_44KHz.wav
2	41	3	3	2	I	1	0	1217	0	poli_8sides 5_whiteLine3.jpg	Short_b20_cut1_stereo_44KHz.wav
2	42	4	3	2	I	1	0	994	1	poli_8sides 1_whiteLine3.jpg	Short_b20_cut1_stereo_44KHz.wav
2	43	1	1	1	C	2	1	1593	1	poli_8sides 12_whiteLine3.jpg	Short_b09_cut1_stereo_44KHz.wav
2	44	2	2	1	C	2	1	1269	1	poli_8sides 8_whiteLine3.jpg	Short_b22_cut1_stereo_44KHz.wav
2	45	1	2	0	C	1	1	730	1	poli_8sides 12_whiteLine3.jpg	Short_b22_cut1_stereo_44KHz.wav
2	46	2	1	0	C	1	1	968	1	poli_8sides 8_whiteLine3.jpg	Short_b09_cut1_stereo_44KHz.wav
2	47	3	4	2	I	1	0	1067	1	poli_8sides 5_whiteLine3.jpg	Short_b23_cut1_stereo_44KHz.wav
2	48	4	4	2	I	2	0	906	1	poli_8sides 1_whiteLine3.jpg	Short_b23_cut1_stereo_44KHz.wav
2	49	1	1	1	C	2	1	1931	1	poli_8sides 12_whiteLine3.jpg	Short_b09_cut1_stereo_44KHz.wav
2	50	2	2	1	C	2	1	1123	1	poli_8sides 8_whiteLine3.jpg	Short_b22_cut1_stereo_44KHz.wav
2	51	4	3	2	I	1	0	1027	0	poli_8sides 1_whiteLine3.jpg	Short_b20_cut1_stereo_44KHz.wav
2	52	3	4	2	I	1	0	1056	0	poli_8sides 5_whiteLine3.jpg	Short_b23_cut1_stereo_44KHz.wav
2	53	4	4	2	I	2	0	1281	0	poli_8sides 1_whiteLine3.jpg	Short_b23_cut1_stereo_44KHz.wav
2	54	2	1	0	C	1	1	846	1	poli_8sides 8_whiteLine3.jpg	Short_b09_cut1_stereo_44KHz.wav
2	55	1	2	0	C	1	1	1266	1	poli_8sides 12_whiteLine3.jpg	Short_b22_cut1_stereo_44KHz.wav
2	56	3	3	2	I	1	0	916	1	poli_8sides 5_whiteLine3.jpg	Short_b20_cut1_stereo_44KHz.wav
2	57	4	4	2	I	1	0	1450	1	poli_8sides 1_whiteLine3.jpg	Short_b23_cut1_stereo_44KHz.wav
2	58	3	3	2	I	1	0	1355	0	poli_8sides 5_whiteLine3.jpg	Short_b20_cut1_stereo_44KHz.wav
2	59	2	1	0	C	1	1	833	1	poli_8sides 8_whiteLine3.jpg	Short_b09_cut1_stereo_44KHz.wav
2	60	1	1	1	C	2	1	1366	1	poli_8sides 12_whiteLine3.jpg	Short_b09_cut1_stereo_44KHz.wav
2	61	3	4	2	I	1	0	1140	0	poli_8sides 5_whiteLine3.jpg	Short_b23_cut1_stereo_44KHz.wav
2	62	1	2	0	C	1	1	1194	1	poli_8sides 12_whiteLine3.jpg	Short_b22_cut1_stereo_44KHz.wav
2	63	2	2	1	C	2	1	1687	1	poli_8sides 8_whiteLine3.jpg	Short_b22_cut1_stereo_44KHz.wav
2	64	4	3	2	I	2	0	1583	1	poli_8sides 1_whiteLine3.jpg	Short_b20_cut1_stereo_44KHz.wav
2	65	2	1	0	C	1	1	1827	1	poli_8sides 8_whiteLine3.jpg	Short_b09_cut1_stereo_44KHz.wav
2	66	3	3	2	I	1	0	1540	0	poli_8sides 5_whiteLine3.jpg	Short_b20_cut1_stereo_44KHz.wav
2	67	4	3	2	I	1	0	1104	0	poli_8sides 1_whiteLine3.jpg	Short_b20_cut1_stereo_44KHz.wav
2	68	1	2	0	C	1	1	1127	1	poli_8sides 12_whiteLine3.jpg	Short_b22_cut1_stereo_44KHz.wav
2	69	2	2	1	C	2	1	1189	1	poli_8sides 8_whiteLine3.jpg	Short_b22_cut1_stereo_44KHz.wav
2	70	3	4	2	I	2	0	1432	1	poli_8sides 5_whiteLine3.jpg	Short_b23_cut1_stereo_44KHz.wav
2	71	1	1	1	C	2	1	1405	1	poli_8sides 12_whiteLine3.jpg	Short_b09_cut1_stereo_44KHz.wav
2	72	4	4	2	I	1	0	1461	0	poli_8sides 1_whiteLine3.jpg	Short_b23_cut1_stereo_44KHz.wav
2	73	3	3	2	I	1	0	1826	1	poli_8sides 5_whiteLine3.jpg	Short_b20_cut1_stereo_44KHz.wav
2	74	4	3	2	I	2	0	946	0	poli_8sides 1_whiteLine3.jpg	Short_b20_cut1_stereo_44KHz.wav
2	75	2	1	0	C	1	1	875	1	poli_8sides 8_whiteLine3.jpg	Short_b09_cut1_stereo_44KHz.wav
2	76	1	1	1	C	2	1	891	1	poli_8sides 12_whiteLine3.jpg	Short_b09_cut1_stereo_44KHz.wav
2	77	4	4	2	I	1	0	1346	1	poli_8sides 1_whiteLine3.jpg	Short_b23_cut1_stereo_44KHz.wav
2	78	1	2	0	C	1	1	1477	1	poli_8sides 12_whiteLine3.jpg	Short_b22_cut1_stereo_44KHz.wav
2	79	2	2	1	C	2	1	889	1	poli_8sides 8_whiteLine3.jpg	Short_b22_cut1_stereo_44KHz.wav
2	80	3	4	2	I	2	0	1552	0	poli_8sides 5_whiteLine3.jpg	Short_b23_cut1_stereo_44KHz.wav
2	81	4	4	2	I	2	0	1522	1	poli_8sides 1_whiteLine3.jpg	Short_b23_cut1_stereo_44KHz.wav
2	82	1	2	0	C	1	1	1116	1	poli_8sides 12_whiteLine3.jpg	Short_b22_cut1_stereo_44KHz.wav
2	83	3	4	2	I	2	0	1139	0	poli_8sides 5_whiteLine3.jpg	Short_b23_cut1_stereo_44KHz.wav
2	84	2	2	1	C	2	1	1263	1	poli_8sides 8_whiteLine3.jpg	Short_b22_cut1_stereo_44KHz.wav
2	85	4	3	2	I	2	0	970	1	poli_8sides 1_whiteLine3.jpg	Short_b20_cut1_stereo_44KHz.wav
2	86	2	1	0	C	1	1	1236	1	poli_8sides 8_whiteLine3.jpg	Short_b09_cut1_stereo_44KHz.wav
2	87	3	3	2	I	1	0	1053	1	poli_8sides 5_whiteLine3.jpg	Short_b20_cut1_stereo_44KHz.wav
2	88	1	1	1	C	1	0	860	0	poli_8sides 12_whiteLine3.jpg	Short_b09_cut1_stereo_44KHz.wav
2	89	2	1	0	C	1	1	773	1	poli_8sides 8_whiteLine3.jpg	Short_b09_cut1_stereo_44KHz.wav
2	90	3	4	2	I	2	0	1250	1	poli_8sides 5_whiteLine3.jpg	Short_b23_cut1_stereo_44KHz.wav
2	91	4	3	2	I	2	0	1186	0	poli_8sides 1_whiteLine3.jpg	Short_b20_cut1_stereo_44KHz.wav
2	92	1	2	0	C	1	1	1137	1	poli_8sides 12_whiteLine3.jpg	Short_b22_cut1_stereo_44KHz.wav
2	93	2	2	1	C	2	1	1219	1	poli_8sides 8_whiteLine3.jpg	Short_b22_cut1_stereo_44KHz.wav
2	94	1	1	1	C	2	1	1169	1	poli_8sides 12_whiteLine3.jpg	Short_b09_cut1_stereo_44KHz.wav
2	95	4	4	2	I	1	0	1450	0	poli_8sides 1_whiteLine3.jpg	Short_b23_cut1_stereo_44KHz.wav
2	96	3	3	2	I	1	0	1336	1	poli_8sides 5_whiteLine3.jpg	Short_b20_cut1_stereo_44KHz.wav
2	97	4	3	2	I	2	0	1151	1	poli_8sides 1_whiteLine3.jpg	Short_b20_cut1_stereo_44KHz.wav
2	98	2	2	1	C	2	1	1352	1	poli_8sides 8_whiteLine3.jpg	Short_b22_cut1_stereo_44KHz.wav
2	99	3	4	2	I	1	0	1390	1	poli_8sides 5_whiteLine3.jpg	Short_b23_cut1_stereo_44KHz.wav
2	100	1	1	1	C	2	1	1123	1	poli_8sides 12_whiteLine3.jpg	Short_b09_cut1_stereo_44KHz.wav
2	101	2	1	0	C	1	1	1005	1	poli_8sides 8_whiteLine3.jpg	Short_b09_cut1_stereo_44KHz.wav
2	102	4	4	2	I	1	0	1235	0	poli_8sides 1_whiteLine3.jpg	Short_b23_cut1_stereo_44KHz.wav
2	103	3	3	2	I	1	0	1449	0	poli_8sides 5_whiteLine3.jpg	Short_b20_cut1_stereo_44KHz.wav
2	104	1	2	0	C	1	1	1401	1	poli_8sides 12_whiteLine3.jpg	Short_b22_cut1_stereo_44KHz.wav
2	105	4	4	2	I	1	0	1169	0	poli_8sides 1_whiteLine3.jpg	Short_b23_cut1_stereo_44KHz.wav
2	106	1	2	0	C	1	1	1575	1	poli_8sides 12_whiteLine3.jpg	Short_b22_cut1_stereo_44KHz.wav
2	107	2	2	1	C	2	1	1250	1	poli_8sides 8_whiteLine3.jpg	Short_b22_cut1_stereo_44KHz.wav
2	108	3	4	2	I	1	0	1241	1	poli_8sides 5_whiteLine3.jpg	Short_b23_cut1_stereo_44KHz.wav
2	109	4	3	2	I	1	0	820	1	poli_8sides 1_whiteLine3.jpg	Short_b20_cut1_stereo_44KHz.wav
2	110	2	1	0	C	1	1	1144	1	poli_8sides 8_whiteLine3.jpg	Short_b09_cut1_stereo_44KHz.wav
2	111	3	3	2	I	2	0	875	1	poli_8sides 5_whiteLine3.jpg	Short_b20_cut1_stereo_44KHz.wav
2	112	1	1	1	C	2	1	1038	1	poli_8sides 12_whiteLine3.jpg	Short_b09_cut1_stereo_44KHz.wav
2	113	3	4	2	I	1	0	1407	0	poli_8sides 5_whiteLine3.jpg	Short_b23_cut1_stereo_44KHz.wav
2	114	2	2	1	C	2	1	930	1	poli_8sides 8_whiteLine3.jpg	Short_b22_cut1_stereo_44KHz.wav
2	115	1	1	1	C	2	1	1099	1	poli_8sides 12_whiteLine3.jpg	Short_b09_cut1_stereo_44KHz.wav
2	116	4	3	2	I	1	0	1007	0	poli_8sides 1_whiteLine3.jpg	Short_b20_cut1_stereo_44KHz.wav
2	117	2	1	0	C	1	1	1330	1	poli_8sides 8_whiteLine3.jpg	Short_b09_cut1_stereo_44KHz.wav
2	118	4	4	2	I	1	0	1330	1	poli_8sides 1_whiteLine3.jpg	Short_b23_cut1_stereo_44KHz.wav
2	119	1	2	0	C	1	1	1021	1	poli_8sides 12_whiteLine3.jpg	Short_b22_cut1_stereo_44KHz.wav
2	120	3	3	2	I	1	0	945	0	poli_8sides 5_whiteLine3.jpg	Short_b20_cut1_stereo_44KHz.wav
2	121	4	3	2	I	2	0	1433	1	poli_8sides 1_whiteLine3.jpg	Short_b20_cut1_stereo_44KHz.wav
2	122	3	4	2	I	1	0	1252	0	poli_8sides 5_whiteLine3.jpg	Short_b23_cut1_stereo_44KHz.wav
2	123	1	1	1	C	2	1	928	1	poli_8sides 12_whiteLine3.jpg	Short_b09_cut1_stereo_44KHz.wav
2	124	2	1	0	C	1	1	854	1	poli_8sides 8_whiteLine3.jpg	Short_b09_cut1_stereo_44KHz.wav
2	125	3	3	2	I	1	0	1594	0	poli_8sides 5_whiteLine3.jpg	Short_b20_cut1_stereo_44KHz.wav
2	126	1	2	0	C	1	1	1103	1	poli_8sides 12_whiteLine3.jpg	Short_b22_cut1_stereo_44KHz.wav
2	127	4	4	2	I	1	0	903	0	poli_8sides 1_whiteLine3.jpg	Short_b23_cut1_stereo_44KHz.wav
2	128	2	2	1	C	2	1	1109	1	poli_8sides 8_whiteLine3.jpg	Short_b22_cut1_stereo_44KHz.wav
2	129	4	3	2	I	2	0	1966	1	poli_8sides 1_whiteLine3.jpg	Short_b20_cut1_stereo_44KHz.wav
2	130	2	1	0	C	1	1	1033	1	poli_8sides 8_whiteLine3.jpg	Short_b09_cut1_stereo_44KHz.wav
2	131	1	1	1	C	2	1	983	1	poli_8sides 12_whiteLine3.jpg	Short_b09_cut1_stereo_44KHz.wav
2	132	3	4	2	I	2	0	1052	0	poli_8sides 5_whiteLine3.jpg	Short_b23_cut1_stereo_44KHz.wav
2	133	4	4	2	I	1	0	1418	1	poli_8sides 1_whiteLine3.jpg	Short_b23_cut1_stereo_44KHz.wav
2	134	2	2	1	C	2	1	1015	1	poli_8sides 8_whiteLine3.jpg	Short_b22_cut1_stereo_44KHz.wav
2	135	3	3	2	I	0	0	0	0	poli_8sides 5_whiteLine3.jpg	Short_b20_cut1_stereo_44KHz.wav
2	136	1	2	0	C	1	1	1025	1	poli_8sides 12_whiteLine3.jpg	Short_b22_cut1_stereo_44KHz.wav
2	137	4	4	2	I	2	0	1094	0	poli_8sides 1_whiteLine3.jpg	Short_b23_cut1_stereo_44KHz.wav
2	138	2	2	1	C	2	1	933	1	poli_8sides 8_whiteLine3.jpg	Short_b22_cut1_stereo_44KHz.wav
2	139	3	4	2	I	1	0	1111	1	poli_8sides 5_whiteLine3.jpg	Short_b23_cut1_stereo_44KHz.wav
2	140	1	1	1	C	1	0	768	0	poli_8sides 12_whiteLine3.jpg	Short_b09_cut1_stereo_44KHz.wav
2	141	2	1	0	C	1	1	986	1	poli_8sides 8_whiteLine3.jpg	Short_b09_cut1_stereo_44KHz.wav
2	142	1	2	0	C	1	1	1061	1	poli_8sides 12_whiteLine3.jpg	Short_b22_cut1_stereo_44KHz.wav
2	143	3	3	2	I	1	0	1295	1	poli_8sides 5_whiteLine3.jpg	Short_b20_cut1_stereo_44KHz.wav
2	144	4	3	2	I	2	0	1151	0	poli_8sides 1_whiteLine3.jpg	Short_b20_cut1_stereo_44KHz.wav
2	145	1	2	0	C	1	1	1052	1	poli_8sides 12_whiteLine3.jpg	Short_b22_cut1_stereo_44KHz.wav
2	146	2	2	1	C	2	1	932	1	poli_8sides 8_whiteLine3.jpg	Short_b22_cut1_stereo_44KHz.wav
2	147	3	3	2	I	2	0	1456	0	poli_8sides 5_whiteLine3.jpg	Short_b20_cut1_stereo_44KHz.wav
2	148	4	4	2	I	2	0	1817	1	poli_8sides 1_whiteLine3.jpg	Short_b23_cut1_stereo_44KHz.wav
2	149	1	1	1	C	2	1	1129	1	poli_8sides 12_whiteLine3.jpg	Short_b09_cut1_stereo_44KHz.wav
2	150	2	1	0	C	2	0	850	0	poli_8sides 8_whiteLine3.jpg	Short_b09_cut1_stereo_44KHz.wav
2	151	4	3	2	I	1	0	1597	0	poli_8sides 1_whiteLine3.jpg	Short_b20_cut1_stereo_44KHz.wav
2	152	3	4	2	I	0	0	0	0	poli_8sides 5_whiteLine3.jpg	Short_b23_cut1_stereo_44KHz.wav
2	153	1	1	1	C	2	1	1038	1	poli_8sides 12_whiteLine3.jpg	Short_b09_cut1_stereo_44KHz.wav
2	154	2	1	0	C	1	1	643	1	poli_8sides 8_whiteLine3.jpg	Short_b09_cut1_stereo_44KHz.wav
2	155	4	4	2	I	1	0	1243	1	poli_8sides 1_whiteLine3.jpg	Short_b23_cut1_stereo_44KHz.wav
2	156	3	3	2	I	2	0	847	0	poli_8sides 5_whiteLine3.jpg	Short_b20_cut1_stereo_44KHz.wav
2	157	4	3	2	I	1	0	1033	0	poli_8sides 1_whiteLine3.jpg	Short_b20_cut1_stereo_44KHz.wav
2	158	1	2	0	C	1	1	867	1	poli_8sides 12_whiteLine3.jpg	Short_b22_cut1_stereo_44KHz.wav
2	159	2	2	1	C	2	1	908	1	poli_8sides 8_whiteLine3.jpg	Short_b22_cut1_stereo_44KHz.wav
2	160	3	4	2	I	1	0	1009	1	poli_8sides 5_whiteLine3.jpg	Short_b23_cut1_stereo_44KHz.wav
2	161	1	1	1	C	1	0	802	0	poli_8sides 12_whiteLine3.jpg	Short_b09_cut1_stereo_44KHz.wav
2	162	4	3	2	I	2	0	1117	0	poli_8sides 1_whiteLine3.jpg	Short_b20_cut1_stereo_44KHz.wav
2	163	3	3	2	I	2	0	1069	0	poli_8sides 5_whiteLine3.jpg	Short_b20_cut1_stereo_44KHz.wav
2	164	2	1	0	C	1	1	912	1	poli_8sides 8_whiteLine3.jpg	Short_b09_cut1_stereo_44KHz.wav
2	165	1	2	0	C	1	1	918	1	poli_8sides 12_whiteLine3.jpg	Short_b22_cut1_stereo_44KHz.wav
2	166	4	4	2	I	1	0	892	0	poli_8sides 1_whiteLine3.jpg	Short_b23_cut1_stereo_44KHz.wav
2	167	2	2	1	C	2	1	1113	1	poli_8sides 8_whiteLine3.jpg	Short_b22_cut1_stereo_44KHz.wav
2	168	3	4	2	I	1	0	880	1	poli_8sides 5_whiteLine3.jpg	Short_b23_cut1_stereo_44KHz.wav
2	169	4	4	2	I	2	0	959	0	poli_8sides 1_whiteLine3.jpg	Short_b23_cut1_stereo_44KHz.wav
2	170	1	2	0	C	1	1	859	1	poli_8sides 12_whiteLine3.jpg	Short_b22_cut1_stereo_44KHz.wav
2	171	2	2	1	C	2	1	963	1	poli_8sides 8_whiteLine3.jpg	Short_b22_cut1_stereo_44KHz.wav
2	172	3	4	2	I	2	0	1201	0	poli_8sides 5_whiteLine3.jpg	Short_b23_cut1_stereo_44KHz.wav
2	173	2	1	0	C	1	1	1144	1	poli_8sides 8_whiteLine3.jpg	Short_b09_cut1_stereo_44KHz.wav
2	174	3	3	2	I	1	0	1158	0	poli_8sides 5_whiteLine3.jpg	Short_b20_cut1_stereo_44KHz.wav
2	175	4	3	2	I	1	0	1428	1	poli_8sides 1_whiteLine3.jpg	Short_b20_cut1_stereo_44KHz.wav
2	176	1	1	1	C	2	1	922	1	poli_8sides 12_whiteLine3.jpg	Short_b09_cut1_stereo_44KHz.wav
2	177	2	2	1	C	2	1	1380	1	poli_8sides 8_whiteLine3.jpg	Short_b22_cut1_stereo_44KHz.wav
2	178	3	3	2	I	1	0	1113	1	poli_8sides 5_whiteLine3.jpg	Short_b20_cut1_stereo_44KHz.wav
2	179	1	1	1	C	2	1	912	1	poli_8sides 12_whiteLine3.jpg	Short_b09_cut1_stereo_44KHz.wav
2	180	4	3	2	I	2	0	967	1	poli_8sides 1_whiteLine3.jpg	Short_b20_cut1_stereo_44KHz.wav
2	181	2	1	0	C	1	1	1159	1	poli_8sides 8_whiteLine3.jpg	Short_b09_cut1_stereo_44KHz.wav
2	182	1	2	0	C	1	1	889	1	poli_8sides 12_whiteLine3.jpg	Short_b22_cut1_stereo_44KHz.wav
2	183	3	4	2	I	1	0	789	1	poli_8sides 5_whiteLine3.jpg	Short_b23_cut1_stereo_44KHz.wav
2	184	4	4	2	I	1	0	659	1	poli_8sides 1_whiteLine3.jpg	Short_b23_cut1_stereo_44KHz.wav
2	185	2	1	0	C	1	1	866	1	poli_8sides 8_whiteLine3.jpg	Short_b09_cut1_stereo_44KHz.wav
2	186	4	3	2	I	2	0	1919	0	poli_8sides 1_whiteLine3.jpg	Short_b20_cut1_stereo_44KHz.wav
2	187	1	2	0	C	1	1	812	1	poli_8sides 12_whiteLine3.jpg	Short_b22_cut1_stereo_44KHz.wav
2	188	3	4	2	I	1	0	619	0	poli_8sides 5_whiteLine3.jpg	Short_b23_cut1_stereo_44KHz.wav
2	189	2	2	1	C	2	1	1027	1	poli_8sides 8_whiteLine3.jpg	Short_b22_cut1_stereo_44KHz.wav
2	190	1	1	1	C	2	1	933	1	poli_8sides 12_whiteLine3.jpg	Short_b09_cut1_stereo_44KHz.wav
2	191	4	4	2	I	1	0	886	1	poli_8sides 1_whiteLine3.jpg	Short_b23_cut1_stereo_44KHz.wav
2	192	3	3	2	I	1	0	948	1	poli_8sides 5_whiteLine3.jpg	Short_b20_cut1_stereo_44KHz.wav
2	193	4	3	2	I	1	0	1364	1	poli_8sides 1_whiteLine3.jpg	Short_b20_cut1_stereo_44KHz.wav
2	194	2	1	0	C	1	1	839	1	poli_8sides 8_whiteLine3.jpg	Short_b09_cut1_stereo_44KHz.wav
2	195	3	3	2	I	2	0	1127	1	poli_8sides 5_whiteLine3.jpg	Short_b20_cut1_stereo_44KHz.wav
2	196	1	2	0	C	1	1	936	1	poli_8sides 12_whiteLine3.jpg	Short_b22_cut1_stereo_44KHz.wav
2	197	3	4	2	I	2	0	1206	0	poli_8sides 5_whiteLine3.jpg	Short_b23_cut1_stereo_44KHz.wav
2	198	4	4	2	I	2	0	1236	0	poli_8sides 1_whiteLine3.jpg	Short_b23_cut1_stereo_44KHz.wav
2	199	2	2	1	C	2	1	969	1	poli_8sides 8_whiteLine3.jpg	Short_b22_cut1_stereo_44KHz.wav
2	200	1	1	1	C	2	1	870	1	poli_8sides 12_whiteLine3.jpg	Short_b09_cut1_stereo_44KHz.wav
3	1	2	2	1	C	1	0	1319	0	poli_8sides 6_whiteLine3.jpg	Medium_e26_stereo_44KHz.wav
3	2	3	4	2	I	1	0	1304	0	poli_8sides 11_whiteLine3.jpg	MediumLong_b10_cut2_L_stereo_44KHz.wav
3	3	1	1	1	C	1	0	734	0	poli_8sides 2_whiteLine3.jpg	Medium_e13_stereo_44KHz.wav
3	4	4	4	2	I	1	0	907	0	poli_8sides 18_whiteLine3.jpg	MediumLong_b10_cut2_L_stereo_44KHz.wav
3	5	3	3	2	I	1	0	1233	1	poli_8sides 11_whiteLine3.jpg	MediumLong_e19_stereo_44KHz.wav
3	6	1	2	0	C	1	1	1007	1	poli_8sides 2_whiteLine3.jpg	Medium_e26_stereo_44KHz.wav
3	7	4	3	2	I	2	0	945	0	poli_8sides 18_whiteLine3.jpg	MediumLong_e19_stereo_44KHz.wav
3	8	2	1	0	C	1	1	1284	1	poli_8sides 6_whiteLine3.jpg	Medium_e13_stereo_44KHz.wav
3	9	4	4	2	I	1	0	1482	0	poli_8sides 18_whiteLine3.jpg	MediumLong_b10_cut2_L_stereo_44KHz.wav
3	10	3	3	2	I	1	0	857	0	poli_8sides 11_whiteLine3.jpg	MediumLong_e19_stereo_44KHz.wav
3	11	1	2	0	C	1	1	961	1	poli_8sides 2_whiteLine3.jpg	Medium_e26_stereo_44KHz.wav
3	12	2	1	0	C	2	0	1021	0	poli_8sides 6_whiteLine3.jpg	Medium_e13_stereo_44KHz.wav
3	13	4	3	2	I	1	0	1653	1	poli_8sides 18_whiteLine3.jpg	MediumLong_e19_stereo_44KHz.wav
3	14	3	4	2	I	2	0	992	1	poli_8sides 11_whiteLine3.jpg	MediumLong_b10_cut2_L_stereo_44KHz.wav
3	15	1	1	1	C	2	1	1261	1	poli_8sides 2_whiteLine3.jpg	Medium_e13_stereo_44KHz.wav
3	16	2	2	1	C	2	1	1220	1	poli_8sides 6_whiteLine3.jpg	Medium_e26_stereo_44KHz.wav
3	17	3	3	2	I	1	0	1110	0	poli_8sides 11_whiteLine3.jpg	MediumLong_e19_stereo_44KHz.wav
3	18	2	2	1	C	2	1	963	1	poli_8sides 6_whiteLine3.jpg	Medium_e26_stereo_44KHz.wav
3	19	4	3	2	I	1	0	1358	0	poli_8sides 18_whiteLine3.jpg	MediumLong_e19_stereo_44KHz.wav
3	20	1	1	1	C	1	0	995	0	poli_8sides 2_whiteLine3.jpg	Medium_e13_stereo_44KHz.wav
3	21	4	4	2	I	1	0	1471	1	poli_8sides 18_whiteLine3.jpg	MediumLong_b10_cut2_L_stereo_44KHz.wav
3	22	2	1	0	C	1	1	1389	1	poli_8sides 6_whiteLine3.jpg	Medium_e13_stereo_44KHz.wav
3	23	1	2	0	C	1	1	993	1	poli_8sides 2_whiteLine3.jpg	Medium_e26_stereo_44KHz.wav
3	24	3	4	2	I	2	0	1433	0	poli_8sides 11_whiteLine3.jpg	MediumLong_b10_cut2_L_stereo_44KHz.wav
3	25	2	1	0	C	1	1	1131	1	poli_8sides 6_whiteLine3.jpg	Medium_e13_stereo_44KHz.wav
3	26	3	3	2	I	1	0	1270	1	poli_8sides 11_whiteLine3.jpg	MediumLong_e19_stereo_44KHz.wav
3	27	1	1	1	C	1	0	1765	0	poli_8sides 2_whiteLine3.jpg	Medium_e13_stereo_44KHz.wav
3	28	4	4	2	I	1	0	895	1	poli_8sides 18_whiteLine3.jpg	MediumLong_b10_cut2_L_stereo_44KHz.wav
3	29	1	2	0	C	1	1	1027	1	poli_8sides 2_whiteLine3.jpg	Medium_e26_stereo_44KHz.wav
3	30	4	3	2	I	2	0	1436	1	poli_8sides 18_whiteLine3.jpg	MediumLong_e19_stereo_44KHz.wav
3	31	3	4	2	I	1	0	1289	0	poli_8sides 11_whiteLine3.jpg	MediumLong_b10_cut2_L_stereo_44KHz.wav
3	32	2	2	1	C	2	1	1035	1	poli_8sides 6_whiteLine3.jpg	Medium_e26_stereo_44KHz.wav
3	33	3	4	2	I	2	0	1463	1	poli_8sides 11_whiteLine3.jpg	MediumLong_b10_cut2_L_stereo_44KHz.wav
3	34	1	2	0	C	1	1	915	1	poli_8sides 2_whiteLine3.jpg	Medium_e26_stereo_44KHz.wav
3	35	4	3	2	I	2	0	1005	0	poli_8sides 18_whiteLine3.jpg	MediumLong_e19_stereo_44KHz.wav
3	36	2	2	1	C	2	1	1385	1	poli_8sides 6_whiteLine3.jpg	Medium_e26_stereo_44KHz.wav
3	37	1	1	1	C	2	1	1579	1	poli_8sides 2_whiteLine3.jpg	Medium_e13_stereo_44KHz.wav
3	38	3	3	2	I	1	0	1257	0	poli_8sides 11_whiteLine3.jpg	MediumLong_e19_stereo_44KHz.wav
3	39	2	1	0	C	1	1	981	1	poli_8sides 6_whiteLine3.jpg	Medium_e13_stereo_44KHz.wav
3	40	4	4	2	I	1	0	900	1	poli_8sides 18_whiteLine3.jpg	MediumLong_b10_cut2_L_stereo_44KHz.wav
3	41	2	1	0	C	1	1	1101	1	poli_8sides 6_whiteLine3.jpg	Medium_e13_stereo_44KHz.wav
3	42	3	3	2	I	2	0	1273	1	poli_8sides 11_whiteLine3.jpg	MediumLong_e19_stereo_44KHz.wav
3	43	1	1	1	C	2	1	1032	1	poli_8sides 2_whiteLine3.jpg	Medium_e13_stereo_44KHz.wav
3	44	4	3	2	I	1	0	941	0	poli_8sides 18_whiteLine3.jpg	MediumLong_e19_stereo_44KHz.wav
3	45	1	2	0	C	1	1	855	1	poli_8sides 2_whiteLine3.jpg	Medium_e26_stereo_44KHz.wav
3	46	4	4	2	I	1	0	869	1	poli_8sides 18_whiteLine3.jpg	MediumLong_b10_cut2_L_stereo_44KHz.wav
3	47	3	4	2	I	2	0	842	1	poli_8sides 11_whiteLine3.jpg	MediumLong_b10_cut2_L_stereo_44KHz.wav
3	48	2	2	1	C	2	1	826	1	poli_8sides 6_whiteLine3.jpg	Medium_e26_stereo_44KHz.wav
3	49	3	4	2	I	2	0	995	0	poli_8sides 11_whiteLine3.jpg	MediumLong_b10_cut2_L_stereo_44KHz.wav
3	50	1	1	1	C	2	1	1467	1	poli_8sides 2_whiteLine3.jpg	Medium_e13_stereo_44KHz.wav
3	51	2	1	0	C	1	1	1058	1	poli_8sides 6_whiteLine3.jpg	Medium_e13_stereo_44KHz.wav
3	52	4	4	2	I	1	0	1145	1	poli_8sides 18_whiteLine3.jpg	MediumLong_b10_cut2_L_stereo_44KHz.wav
3	53	1	2	0	C	1	1	785	1	poli_8sides 2_whiteLine3.jpg	Medium_e26_stereo_44KHz.wav
3	54	3	3	2	I	2	0	1013	0	poli_8sides 11_whiteLine3.jpg	MediumLong_e19_stereo_44KHz.wav
3	55	4	3	2	I	2	0	1034	1	poli_8sides 18_whiteLine3.jpg	MediumLong_e19_stereo_44KHz.wav
3	56	2	2	1	C	2	1	1051	1	poli_8sides 6_whiteLine3.jpg	Medium_e26_stereo_44KHz.wav
3	57	1	1	1	C	2	1	1513	1	poli_8sides 2_whiteLine3.jpg	Medium_e13_stereo_44KHz.wav
3	58	2	1	0	C	1	1	798	1	poli_8sides 6_whiteLine3.jpg	Medium_e13_stereo_44KHz.wav
3	59	4	3	2	I	2	0	1196	1	poli_8sides 18_whiteLine3.jpg	MediumLong_e19_stereo_44KHz.wav
3	60	3	3	2	I	1	0	1010	1	poli_8sides 11_whiteLine3.jpg	MediumLong_e19_stereo_44KHz.wav
3	61	4	4	2	I	1	0	1058	1	poli_8sides 18_whiteLine3.jpg	MediumLong_b10_cut2_L_stereo_44KHz.wav
3	62	3	4	2	I	2	0	1240	0	poli_8sides 11_whiteLine3.jpg	MediumLong_b10_cut2_L_stereo_44KHz.wav
3	63	2	2	1	C	2	1	1614	1	poli_8sides 6_whiteLine3.jpg	Medium_e26_stereo_44KHz.wav
3	64	1	2	0	C	1	1	1016	1	poli_8sides 2_whiteLine3.jpg	Medium_e26_stereo_44KHz.wav
3	65	3	4	2	I	2	0	1574	1	poli_8sides 11_whiteLine3.jpg	MediumLong_b10_cut2_L_stereo_44KHz.wav
3	66	1	2	0	C	1	1	1110	1	poli_8sides 2_whiteLine3.jpg	Medium_e26_stereo_44KHz.wav
3	67	4	4	2	I	1	0	1111	0	poli_8sides 18_whiteLine3.jpg	MediumLong_b10_cut2_L_stereo_44KHz.wav
3	68	2	2	1	C	2	1	1065	1	poli_8sides 6_whiteLine3.jpg	Medium_e26_stereo_44KHz.wav
3	69	3	3	2	I	1	0	957	0	poli_8sides 11_whiteLine3.jpg	MediumLong_e19_stereo_44KHz.wav
3	70	1	1	1	C	2	1	1255	1	poli_8sides 2_whiteLine3.jpg	Medium_e13_stereo_44KHz.wav
3	71	4	3	2	I	2	0	1297	0	poli_8sides 18_whiteLine3.jpg	MediumLong_e19_stereo_44KHz.wav
3	72	2	1	0	C	1	1	916	1	poli_8sides 6_whiteLine3.jpg	Medium_e13_stereo_44KHz.wav
3	73	1	1	1	C	2	1	953	1	poli_8sides 2_whiteLine3.jpg	Medium_e13_stereo_44KHz.wav
3	74	4	3	2	I	1	0	1386	0	poli_8sides 18_whiteLine3.jpg	MediumLong_e19_stereo_44KHz.wav
3	75	2	2	1	C	2	1	1043	1	poli_8sides 6_whiteLine3.jpg	Medium_e26_stereo_44KHz.wav
3	76	3	3	2	I	2	0	1494	1	poli_8sides 11_whiteLine3.jpg	MediumLong_e19_stereo_44KHz.wav
3	77	4	4	2	I	1	0	1063	0	poli_8sides 18_whiteLine3.jpg	MediumLong_b10_cut2_L_stereo_44KHz.wav
3	78	3	4	2	I	2	0	1432	0	poli_8sides 11_whiteLine3.jpg	MediumLong_b10_cut2_L_stereo_44KHz.wav
3	79	1	2	0	C	1	1	966	1	poli_8sides 2_whiteLine3.jpg	Medium_e26_stereo_44KHz.wav
3	80	2	1	0	C	1	1	1035	1	poli_8sides 6_whiteLine3.jpg	Medium_e13_stereo_44KHz.wav
3	81	1	2	0	C	1	1	971	1	poli_8sides 2_whiteLine3.jpg	Medium_e26_stereo_44KHz.wav
3	82	3	4	2	I	1	0	1113	1	poli_8sides 11_whiteLine3.jpg	MediumLong_b10_cut2_L_stereo_44KHz.wav
3	83	2	1	0	C	1	1	790	1	poli_8sides 6_whiteLine3.jpg	Medium_e13_stereo_44KHz.wav
3	84	4	3	2	I	1	0	1335	0	poli_8sides 18_whiteLine3.jpg	MediumLong_e19_stereo_44KHz.wav
3	85	2	2	1	C	2	1	1210	1	poli_8sides 6_whiteLine3.jpg	Medium_e26_stereo_44KHz.wav
3	86	1	1	1	C	2	1	1159	1	poli_8sides 2_whiteLine3.jpg	Medium_e13_stereo_44KHz.wav
3	87	4	4	2	I	1	0	1046	1	poli_8sides 18_whiteLine3.jpg	MediumLong_b10_cut2_L_stereo_44KHz.wav
3	88	3	3	2	I	2	0	1454	0	poli_8sides 11_whiteLine3.jpg	MediumLong_e19_stereo_44KHz.wav
3	89	4	3	2	I	2	0	1438	0	poli_8sides 18_whiteLine3.jpg	MediumLong_e19_stereo_44KHz.wav
3	90	2	2	1	C	1	0	1434	0	poli_8sides 6_whiteLine3.jpg	Medium_e26_stereo_44KHz.wav
3	91	1	2	0	C	1	1	829	1	poli_8sides 2_whiteLine3.jpg	Medium_e26_stereo_44KHz.wav
3	92	3	4	2	I	1	0	1407	0	poli_8sides 11_whiteLine3.jpg	MediumLong_b10_cut2_L_stereo_44KHz.wav
3	93	2	1	0	C	1	1	1219	1	poli_8sides 6_whiteLine3.jpg	Medium_e13_stereo_44KHz.wav
3	94	1	1	1	C	2	1	1182	1	poli_8sides 2_whiteLine3.jpg	Medium_e13_stereo_44KHz.wav
3	95	3	3	2	I	1	0	1571	1	poli_8sides 11_whiteLine3.jpg	MediumLong_e19_stereo_44KHz.wav
3	96	4	4	2	I	2	0	1132	1	poli_8sides 18_whiteLine3.jpg	MediumLong_b10_cut2_L_stereo_44KHz.wav
3	97	3	3	2	I	2	0	1119	1	poli_8sides 11_whiteLine3.jpg	MediumLong_e19_stereo_44KHz.wav
3	98	4	3	2	I	2	0	1944	1	poli_8sides 18_whiteLine3.jpg	MediumLong_e19_stereo_44KHz.wav
3	99	2	2	1	C	2	1	1098	1	poli_8sides 6_whiteLine3.jpg	Medium_e26_stereo_44KHz.wav
3	100	1	1	1	C	0	0	0	0	poli_8sides 2_whiteLine3.jpg	Medium_e13_stereo_44KHz.wav
3	101	4	4	2	I	1	0	1055	1	poli_8sides 18_whiteLine3.jpg	MediumLong_b10_cut2_L_stereo_44KHz.wav
3	102	1	2	0	C	1	1	983	1	poli_8sides 2_whiteLine3.jpg	Medium_e26_stereo_44KHz.wav
3	103	2	1	0	C	1	1	711	1	poli_8sides 6_whiteLine3.jpg	Medium_e13_stereo_44KHz.wav
3	104	3	4	2	I	2	0	1420	0	poli_8sides 11_whiteLine3.jpg	MediumLong_b10_cut2_L_stereo_44KHz.wav
3	105	4	3	2	I	2	0	1553	0	poli_8sides 18_whiteLine3.jpg	MediumLong_e19_stereo_44KHz.wav
3	106	3	4	2	I	1	0	1616	0	poli_8sides 11_whiteLine3.jpg	MediumLong_b10_cut2_L_stereo_44KHz.wav
3	107	1	2	0	C	1	1	1460	1	poli_8sides 2_whiteLine3.jpg	Medium_e26_stereo_44KHz.wav
3	108	2	2	1	C	2	1	865	1	poli_8sides 6_whiteLine3.jpg	Medium_e26_stereo_44KHz.wav
3	109	1	1	1	C	2	1	954	1	poli_8sides 2_whiteLine3.jpg	Medium_e13_stereo_44KHz.wav
3	110	4	4	2	I	1	0	1281	0	poli_8sides 18_whiteLine3.jpg	MediumLong_b10_cut2_L_stereo_44KHz.wav
3	111	2	1	0	C	1	1	789	1	poli_8sides 6_whiteLine3.jpg	Medium_e13_stereo_44KHz.wav
3	112	3	3	2	I	1	0	1489	1	poli_8sides 11_whiteLine3.jpg	MediumLong_e19_stereo_44KHz.wav
3	113	2	2	1	C	2	1	980	1	poli_8sides 6_whiteLine3.jpg	Medium_e26_stereo_44KHz.wav
3	114	4	3	2	I	2	0	1563	0	poli_8sides 18_whiteLine3.jpg	MediumLong_e19_stereo_44KHz.wav
3	115	3	3	2	I	2	0	1115	0	poli_8sides 11_whiteLine3.jpg	MediumLong_e19_stereo_44KHz.wav
3	116	1	1	1	C	2	1	1600	1	poli_8sides 2_whiteLine3.jpg	Medium_e13_stereo_44KHz.wav
3	117	2	1	0	C	1	1	849	1	poli_8sides 6_whiteLine3.jpg	Medium_e13_stereo_44KHz.wav
3	118	3	4	2	I	1	0	917	1	poli_8sides 11_whiteLine3.jpg	MediumLong_b10_cut2_L_stereo_44KHz.wav
3	119	1	2	0	C	1	1	1443	1	poli_8sides 2_whiteLine3.jpg	Medium_e26_stereo_44KHz.wav
3	120	4	4	2	I	1	0	1519	1	poli_8sides 18_whiteLine3.jpg	MediumLong_b10_cut2_L_stereo_44KHz.wav
3	121	3	4	2	I	1	0	780	0	poli_8sides 11_whiteLine3.jpg	MediumLong_b10_cut2_L_stereo_44KHz.wav
3	122	2	2	1	C	2	1	1653	1	poli_8sides 6_whiteLine3.jpg	Medium_e26_stereo_44KHz.wav
3	123	4	4	2	I	1	0	816	0	poli_8sides 18_whiteLine3.jpg	MediumLong_b10_cut2_L_stereo_44KHz.wav
3	124	1	2	0	C	1	1	1022	1	poli_8sides 2_whiteLine3.jpg	Medium_e26_stereo_44KHz.wav
3	125	3	3	2	I	1	0	637	1	poli_8sides 11_whiteLine3.jpg	MediumLong_e19_stereo_44KHz.wav
3	126	1	1	1	C	2	1	1055	1	poli_8sides 2_whiteLine3.jpg	Medium_e13_stereo_44KHz.wav
3	127	2	1	0	C	1	1	790	1	poli_8sides 6_whiteLine3.jpg	Medium_e13_stereo_44KHz.wav
3	128	4	3	2	I	1	0	1201	0	poli_8sides 18_whiteLine3.jpg	MediumLong_e19_stereo_44KHz.wav
3	129	3	3	2	I	2	0	1204	0	poli_8sides 11_whiteLine3.jpg	MediumLong_e19_stereo_44KHz.wav
3	130	4	4	2	I	1	0	1489	1	poli_8sides 18_whiteLine3.jpg	MediumLong_b10_cut2_L_stereo_44KHz.wav
3	131	1	2	0	C	1	1	1191	1	poli_8sides 2_whiteLine3.jpg	Medium_e26_stereo_44KHz.wav
3	132	2	1	0	C	1	1	742	1	poli_8sides 6_whiteLine3.jpg	Medium_e13_stereo_44KHz.wav
3	133	4	3	2	I	2	0	1108	0	poli_8sides 18_whiteLine3.jpg	MediumLong_e19_stereo_44KHz.wav
3	134	3	4	2	I	1	0	1168	1	poli_8sides 11_whiteLine3.jpg	MediumLong_b10_cut2_L_stereo_44KHz.wav
3	135	2	2	1	C	2	1	1366	1	poli_8sides 6_whiteLine3.jpg	Medium_e26_stereo_44KHz.wav
3	136	1	1	1	C	2	1	901	1	poli_8sides 2_whiteLine3.jpg	Medium_e13_stereo_44KHz.wav
3	137	4	3	2	I	2	0	1658	1	poli_8sides 18_whiteLine3.jpg	MediumLong_e19_stereo_44KHz.wav
3	138	2	2	1	C	2	1	1886	1	poli_8sides 6_whiteLine3.jpg	Medium_e26_stereo_44KHz.wav
3	139	3	4	2	I	1	0	1182	1	poli_8sides 11_whiteLine3.jpg	MediumLong_b10_cut2_L_stereo_44KHz.wav
3	140	1	1	1	C	2	1	920	1	poli_8sides 2_whiteLine3.jpg	Medium_e13_stereo_44KHz.wav
3	141	3	3	2	I	2	0	1117	1	poli_8sides 11_whiteLine3.jpg	MediumLong_e19_stereo_44KHz.wav
3	142	2	1	0	C	1	1	1383	1	poli_8sides 6_whiteLine3.jpg	Medium_e13_stereo_44KHz.wav
3	143	4	4	2	I	1	0	810	1	poli_8sides 18_whiteLine3.jpg	MediumLong_b10_cut2_L_stereo_44KHz.wav
3	144	1	2	0	C	1	1	1047	1	poli_8sides 2_whiteLine3.jpg	Medium_e26_stereo_44KHz.wav
3	145	4	4	2	I	2	0	1376	1	poli_8sides 18_whiteLine3.jpg	MediumLong_b10_cut2_L_stereo_44KHz.wav
3	146	1	1	1	C	2	1	1157	1	poli_8sides 2_whiteLine3.jpg	Medium_e13_stereo_44KHz.wav
3	147	3	3	2	I	1	0	1106	0	poli_8sides 11_whiteLine3.jpg	MediumLong_e19_stereo_44KHz.wav
3	148	2	1	0	C	1	1	1231	1	poli_8sides 6_whiteLine3.jpg	Medium_e13_stereo_44KHz.wav
3	149	1	2	0	C	1	1	954	1	poli_8sides 2_whiteLine3.jpg	Medium_e26_stereo_44KHz.wav
3	150	2	2	1	C	2	1	1308	1	poli_8sides 6_whiteLine3.jpg	Medium_e26_stereo_44KHz.wav
3	151	4	3	2	I	1	0	1532	0	poli_8sides 18_whiteLine3.jpg	MediumLong_e19_stereo_44KHz.wav
3	152	3	4	2	I	1	0	1484	1	poli_8sides 11_whiteLine3.jpg	MediumLong_b10_cut2_L_stereo_44KHz.wav
3	153	4	3	2	I	1	0	1722	0	poli_8sides 18_whiteLine3.jpg	MediumLong_e19_stereo_44KHz.wav
3	154	3	3	2	I	2	0	1747	0	poli_8sides 11_whiteLine3.jpg	MediumLong_e19_stereo_44KHz.wav
3	155	1	1	1	C	2	1	1085	1	poli_8sides 2_whiteLine3.jpg	Medium_e13_stereo_44KHz.wav
3	156	2	1	0	C	1	1	795	1	poli_8sides 6_whiteLine3.jpg	Medium_e13_stereo_44KHz.wav
3	157	4	4	2	I	1	0	1101	0	poli_8sides 18_whiteLine3.jpg	MediumLong_b10_cut2_L_stereo_44KHz.wav
3	158	3	4	2	I	2	0	1490	0	poli_8sides 11_whiteLine3.jpg	MediumLong_b10_cut2_L_stereo_44KHz.wav
3	159	1	2	0	C	1	1	1172	1	poli_8sides 2_whiteLine3.jpg	Medium_e26_stereo_44KHz.wav
3	160	2	2	1	C	2	1	1208	1	poli_8sides 6_whiteLine3.jpg	Medium_e26_stereo_44KHz.wav
3	161	4	3	2	I	1	0	1409	0	poli_8sides 18_whiteLine3.jpg	MediumLong_e19_stereo_44KHz.wav
3	162	3	4	2	I	2	0	1148	1	poli_8sides 11_whiteLine3.jpg	MediumLong_b10_cut2_L_stereo_44KHz.wav
3	163	1	2	0	C	1	1	787	1	poli_8sides 2_whiteLine3.jpg	Medium_e26_stereo_44KHz.wav
3	164	2	1	0	C	1	1	1011	1	poli_8sides 6_whiteLine3.jpg	Medium_e13_stereo_44KHz.wav
3	165	4	4	2	I	1	0	1107	0	poli_8sides 18_whiteLine3.jpg	MediumLong_b10_cut2_L_stereo_44KHz.wav
3	166	2	2	1	C	2	1	935	1	poli_8sides 6_whiteLine3.jpg	Medium_e26_stereo_44KHz.wav
3	167	3	3	2	I	1	0	1244	0	poli_8sides 11_whiteLine3.jpg	MediumLong_e19_stereo_44KHz.wav
3	168	1	1	1	C	2	1	1225	1	poli_8sides 2_whiteLine3.jpg	Medium_e13_stereo_44KHz.wav
3	169	2	1	0	C	1	1	810	1	poli_8sides 6_whiteLine3.jpg	Medium_e13_stereo_44KHz.wav
3	170	4	4	2	I	1	0	873	1	poli_8sides 18_whiteLine3.jpg	MediumLong_b10_cut2_L_stereo_44KHz.wav
3	171	3	3	2	I	2	0	1042	0	poli_8sides 11_whiteLine3.jpg	MediumLong_e19_stereo_44KHz.wav
3	172	1	2	0	C	1	1	908	1	poli_8sides 2_whiteLine3.jpg	Medium_e26_stereo_44KHz.wav
3	173	3	4	2	I	2	0	1552	1	poli_8sides 11_whiteLine3.jpg	MediumLong_b10_cut2_L_stereo_44KHz.wav
3	174	1	1	1	C	2	1	1247	1	poli_8sides 2_whiteLine3.jpg	Medium_e13_stereo_44KHz.wav
3	175	4	3	2	I	1	0	1511	1	poli_8sides 18_whiteLine3.jpg	MediumLong_e19_stereo_44KHz.wav
3	176	2	2	1	C	2	1	1159	1	poli_8sides 6_whiteLine3.jpg	Medium_e26_stereo_44KHz.wav
3	177	3	3	2	I	1	0	1374	1	poli_8sides 11_whiteLine3.jpg	MediumLong_e19_stereo_44KHz.wav
3	178	1	2	0	C	1	1	1051	1	poli_8sides 2_whiteLine3.jpg	Medium_e26_stereo_44KHz.wav
3	179	4	3	2	I	1	0	929	0	poli_8sides 18_whiteLine3.jpg	MediumLong_e19_stereo_44KHz.wav
3	180	2	2	1	C	2	1	953	1	poli_8sides 6_whiteLine3.jpg	Medium_e26_stereo_44KHz.wav
3	181	1	1	1	C	2	1	956	1	poli_8sides 2_whiteLine3.jpg	Medium_e13_stereo_44KHz.wav
3	182	2	1	0	C	2	0	925	0	poli_8sides 6_whiteLine3.jpg	Medium_e13_stereo_44KHz.wav
3	183	3	4	2	I	1	0	1466	1	poli_8sides 11_whiteLine3.jpg	MediumLong_b10_cut2_L_stereo_44KHz.wav
3	184	4	4	2	I	1	0	1032	0	poli_8sides 18_whiteLine3.jpg	MediumLong_b10_cut2_L_stereo_44KHz.wav
3	185	2	2	1	C	2	1	864	1	poli_8sides 6_whiteLine3.jpg	Medium_e26_stereo_44KHz.wav
3	186	1	1	1	C	2	1	1058	1	poli_8sides 2_whiteLine3.jpg	Medium_e13_stereo_44KHz.wav
3	187	3	3	2	I	2	0	1372	0	poli_8sides 11_whiteLine3.jpg	MediumLong_e19_stereo_44KHz.wav
3	188	4	4	2	I	1	0	1332	1	poli_8sides 18_whiteLine3.jpg	MediumLong_b10_cut2_L_stereo_44KHz.wav
3	189	2	1	0	C	1	1	797	1	poli_8sides 6_whiteLine3.jpg	Medium_e13_stereo_44KHz.wav
3	190	4	3	2	I	2	0	1334	1	poli_8sides 18_whiteLine3.jpg	MediumLong_e19_stereo_44KHz.wav
3	191	3	4	2	I	1	0	1248	1	poli_8sides 11_whiteLine3.jpg	MediumLong_b10_cut2_L_stereo_44KHz.wav
3	192	1	2	0	C	1	1	893	1	poli_8sides 2_whiteLine3.jpg	Medium_e26_stereo_44KHz.wav
3	193	2	1	0	C	1	1	684	1	poli_8sides 6_whiteLine3.jpg	Medium_e13_stereo_44KHz.wav
3	194	3	4	2	I	1	0	1476	1	poli_8sides 11_whiteLine3.jpg	MediumLong_b10_cut2_L_stereo_44KHz.wav
3	195	1	2	0	C	1	1	922	1	poli_8sides 2_whiteLine3.jpg	Medium_e26_stereo_44KHz.wav
3	196	4	4	2	I	2	0	1597	1	poli_8sides 18_whiteLine3.jpg	MediumLong_b10_cut2_L_stereo_44KHz.wav
3	197	1	1	1	C	1	0	1876	0	poli_8sides 2_whiteLine3.jpg	Medium_e13_stereo_44KHz.wav
3	198	4	3	2	I	1	0	1885	1	poli_8sides 18_whiteLine3.jpg	MediumLong_e19_stereo_44KHz.wav
3	199	2	2	1	C	2	1	785	1	poli_8sides 6_whiteLine3.jpg	Medium_e26_stereo_44KHz.wav
3	200	3	3	2	I	1	0	1227	0	poli_8sides 11_whiteLine3.jpg	MediumLong_e19_stereo_44KHz.wav
4	1	4	3	2	I	1	0	1227	0	poli_8sides 4_whiteLine3.jpg	MediumShort_b10_cut1_MS_stereo_44KHz.wav
4	2	2	2	1	C	1	0	1021	0	poli_8sides 7_whiteLine3.jpg	MediumShort_e16_cut1_stereo_44KHz.wav
4	3	1	1	1	C	1	0	968	0	poli_8sides 9_whiteLine3.jpg	MediumShort_b16_cut3_MS_stereo_44KHz.wav
4	4	3	3	2	I	1	0	1055	1	poli_8sides 13_whiteLine3.jpg	MediumShort_b10_cut1_MS_stereo_44KHz.wav
4	5	4	4	2	I	1	0	1175	0	poli_8sides 4_whiteLine3.jpg	MediumShort_e22_cut1_stereo_44KHz.wav
4	6	1	2	0	C	2	0	1016	0	poli_8sides 9_whiteLine3.jpg	MediumShort_e16_cut1_stereo_44KHz.wav
4	7	3	4	2	I	2	0	1301	1	poli_8sides 13_whiteLine3.jpg	MediumShort_e22_cut1_stereo_44KHz.wav
4	8	2	1	0	C	2	0	1153	0	poli_8sides 7_whiteLine3.jpg	MediumShort_b16_cut3_MS_stereo_44KHz.wav
4	9	3	4	2	I	2	0	1070	0	poli_8sides 13_whiteLine3.jpg	MediumShort_e22_cut1_stereo_44KHz.wav
4	10	4	4	2	I	1	0	951	0	poli_8sides 4_whiteLine3.jpg	MediumShort_e22_cut1_stereo_44KHz.wav
4	11	2	1	0	C	1	1	1101	1	poli_8sides 7_whiteLine3.jpg	MediumShort_b16_cut3_MS_stereo_44KHz.wav
4	12	1	2	0	C	1	1	1082	1	poli_8sides 9_whiteLine3.jpg	MediumShort_e16_cut1_stereo_44KHz.wav
4	13	3	3	2	I	1	0	1667	0	poli_8sides 13_whiteLine3.jpg	MediumShort_b10_cut1_MS_stereo_44KHz.wav
4	14	1	1	1	C	1	0	1938	0	poli_8sides 9_whiteLine3.jpg	MediumShort_b16_cut3_MS_stereo_44KHz.wav
4	15	4	3	2	I	2	0	1484	1	poli_8sides 4_whiteLine3.jpg	MediumShort_b10_cut1_MS_stereo_44KHz.wav
4	16	2	2	1	C	2	1	1626	1	poli_8sides 7_whiteLine3.jpg	MediumShort_e16_cut1_stereo_44KHz.wav
4	17	3	4	2	I	1	0	1824	1	poli_8sides 13_whiteLine3.jpg	MediumShort_e22_cut1_stereo_44KHz.wav
4	18	1	1	1	C	2	1	1256	1	poli_8sides 9_whiteLine3.jpg	MediumShort_b16_cut3_MS_stereo_44KHz.wav
4	19	4	3	2	I	1	0	1630	1	poli_8sides 4_whiteLine3.jpg	MediumShort_b10_cut1_MS_stereo_44KHz.wav
4	20	2	2	1	C	2	1	1515	1	poli_8sides 7_whiteLine3.jpg	MediumShort_e16_cut1_stereo_44KHz.wav
4	21	4	4	2	I	1	0	1744	0	poli_8sides 4_whiteLine3.jpg	MediumShort_e22_cut1_stereo_44KHz.wav
4	22	1	2	0	C	2	0	1369	0	poli_8sides 9_whiteLine3.jpg	MediumShort_e16_cut1_stereo_44KHz.wav
4	23	2	1	0	C	1	1	1131	1	poli_8sides 7_whiteLine3.jpg	MediumShort_b16_cut3_MS_stereo_44KHz.wav
4	24	3	3	2	I	2	0	1503	0	poli_8sides 13_whiteLine3.jpg	MediumShort_b10_cut1_MS_stereo_44KHz.wav
4	25	2	1	0	C	1	1	1719	1	poli_8sides 7_whiteLine3.jpg	MediumShort_b16_cut3_MS_stereo_44KHz.wav
4	26	4	4	2	I	1	0	1519	0	poli_8sides 4_whiteLine3.jpg	MediumShort_e22_cut1_stereo_44KHz.wav
4	27	1	1	1	C	2	1	1571	1	poli_8sides 9_whiteLine3.jpg	MediumShort_b16_cut3_MS_stereo_44KHz.wav
4	28	3	4	2	I	1	0	1321	1	poli_8sides 13_whiteLine3.jpg	MediumShort_e22_cut1_stereo_44KHz.wav
4	29	1	2	0	C	2	0	1492	0	poli_8sides 9_whiteLine3.jpg	MediumShort_e16_cut1_stereo_44KHz.wav
4	30	3	3	2	I	2	0	1515	0	poli_8sides 13_whiteLine3.jpg	MediumShort_b10_cut1_MS_stereo_44KHz.wav
4	31	2	2	1	C	1	0	1385	0	poli_8sides 7_whiteLine3.jpg	MediumShort_e16_cut1_stereo_44KHz.wav
4	32	4	3	2	I	1	0	1177	0	poli_8sides 4_whiteLine3.jpg	MediumShort_b10_cut1_MS_stereo_44KHz.wav
4	33	3	3	2	I	1	0	1266	0	poli_8sides 13_whiteLine3.jpg	MediumShort_b10_cut1_MS_stereo_44KHz.wav
4	34	1	1	1	C	2	1	1337	1	poli_8sides 9_whiteLine3.jpg	MediumShort_b16_cut3_MS_stereo_44KHz.wav
4	35	4	3	2	I	2	0	1568	1	poli_8sides 4_whiteLine3.jpg	MediumShort_b10_cut1_MS_stereo_44KHz.wav
4	36	2	2	1	C	2	1	1342	1	poli_8sides 7_whiteLine3.jpg	MediumShort_e16_cut1_stereo_44KHz.wav
4	37	3	4	2	I	1	0	1392	1	poli_8sides 13_whiteLine3.jpg	MediumShort_e22_cut1_stereo_44KHz.wav
4	38	4	4	2	I	2	0	757	1	poli_8sides 4_whiteLine3.jpg	MediumShort_e22_cut1_stereo_44KHz.wav
4	39	1	2	0	C	1	1	1436	1	poli_8sides 9_whiteLine3.jpg	MediumShort_e16_cut1_stereo_44KHz.wav
4	40	2	1	0	C	1	1	1478	1	poli_8sides 7_whiteLine3.jpg	MediumShort_b16_cut3_MS_stereo_44KHz.wav
4	41	4	3	2	I	1	0	1489	0	poli_8sides 4_whiteLine3.jpg	MediumShort_b10_cut1_MS_stereo_44KHz.wav
4	42	1	1	1	C	2	1	1578	1	poli_8sides 9_whiteLine3.jpg	MediumShort_b16_cut3_MS_stereo_44KHz.wav
4	43	3	4	2	I	1	0	1508	0	poli_8sides 13_whiteLine3.jpg	MediumShort_e22_cut1_stereo_44KHz.wav
4	44	2	1	0	C	1	1	1369	1	poli_8sides 7_whiteLine3.jpg	MediumShort_b16_cut3_MS_stereo_44KHz.wav
4	45	4	4	2	I	2	0	1163	1	poli_8sides 4_whiteLine3.jpg	MediumShort_e22_cut1_stereo_44KHz.wav
4	46	1	2	0	C	1	1	995	1	poli_8sides 9_whiteLine3.jpg	MediumShort_e16_cut1_stereo_44KHz.wav
4	47	3	3	2	I	1	0	1524	0	poli_8sides 13_whiteLine3.jpg	MediumShort_b10_cut1_MS_stereo_44KHz.wav
4	48	2	2	1	C	2	1	1909	1	poli_8sides 7_whiteLine3.jpg	MediumShort_e16_cut1_stereo_44KHz.wav
4	49	4	4	2	I	2	0	1224	1	poli_8sides 4_whiteLine3.jpg	MediumShort_e22_cut1_stereo_44KHz.wav
4	50	3	4	2	I	1	0	890	1	poli_8sides 13_whiteLine3.jpg	MediumShort_e22_cut1_stereo_44KHz.wav
4	51	1	1	1	C	2	1	1449	1	poli_8sides 9_whiteLine3.jpg	MediumShort_b16_cut3_MS_stereo_44KHz.wav
4	52	2	2	1	C	2	1	969	1	poli_8sides 7_whiteLine3.jpg	MediumShort_e16_cut1_stereo_44KHz.wav
4	53	1	2	0	C	1	1	1078	1	poli_8sides 9_whiteLine3.jpg	MediumShort_e16_cut1_stereo_44KHz.wav
4	54	4	3	2	I	1	0	1131	0	poli_8sides 4_whiteLine3.jpg	MediumShort_b10_cut1_MS_stereo_44KHz.wav
4	55	3	3	2	I	1	0	1699	0	poli_8sides 13_whiteLine3.jpg	MediumShort_b10_cut1_MS_stereo_44KHz.wav
4	56	2	1	0	C	1	1	1018	1	poli_8sides 7_whiteLine3.jpg	MediumShort_b16_cut3_MS_stereo_44KHz.wav
4	57	4	4	2	I	1	0	1482	1	poli_8sides 4_whiteLine3.jpg	MediumShort_e22_cut1_stereo_44KHz.wav
4	58	1	2	0	C	1	1	917	1	poli_8sides 9_whiteLine3.jpg	MediumShort_e16_cut1_stereo_44KHz.wav
4	59	3	4	2	I	2	0	1457	1	poli_8sides 13_whiteLine3.jpg	MediumShort_e22_cut1_stereo_44KHz.wav
4	60	2	1	0	C	1	1	1428	1	poli_8sides 7_whiteLine3.jpg	MediumShort_b16_cut3_MS_stereo_44KHz.wav
4	61	4	3	2	I	1	0	1277	0	poli_8sides 4_whiteLine3.jpg	MediumShort_b10_cut1_MS_stereo_44KHz.wav
4	62	3	3	2	I	1	0	1714	1	poli_8sides 13_whiteLine3.jpg	MediumShort_b10_cut1_MS_stereo_44KHz.wav
4	63	2	2	1	C	2	1	1400	1	poli_8sides 7_whiteLine3.jpg	MediumShort_e16_cut1_stereo_44KHz.wav
4	64	1	1	1	C	2	1	1168	1	poli_8sides 9_whiteLine3.jpg	MediumShort_b16_cut3_MS_stereo_44KHz.wav
4	65	3	3	2	I	2	0	1155	1	poli_8sides 13_whiteLine3.jpg	MediumShort_b10_cut1_MS_stereo_44KHz.wav
4	66	1	1	1	C	2	1	1165	1	poli_8sides 9_whiteLine3.jpg	MediumShort_b16_cut3_MS_stereo_44KHz.wav
4	67	2	2	1	C	2	1	996	1	poli_8sides 7_whiteLine3.jpg	MediumShort_e16_cut1_stereo_44KHz.wav
4	68	4	4	2	I	2	0	1669	0	poli_8sides 4_whiteLine3.jpg	MediumShort_e22_cut1_stereo_44KHz.wav
4	69	3	4	2	I	1	0	1049	1	poli_8sides 13_whiteLine3.jpg	MediumShort_e22_cut1_stereo_44KHz.wav
4	70	1	2	0	C	1	1	960	1	poli_8sides 9_whiteLine3.jpg	MediumShort_e16_cut1_stereo_44KHz.wav
4	71	2	1	0	C	1	1	1238	1	poli_8sides 7_whiteLine3.jpg	MediumShort_b16_cut3_MS_stereo_44KHz.wav
4	72	4	3	2	I	2	0	706	1	poli_8sides 4_whiteLine3.jpg	MediumShort_b10_cut1_MS_stereo_44KHz.wav
4	73	2	1	0	C	1	1	1434	1	poli_8sides 7_whiteLine3.jpg	MediumShort_b16_cut3_MS_stereo_44KHz.wav
4	74	4	3	2	I	1	0	1173	0	poli_8sides 4_whiteLine3.jpg	MediumShort_b10_cut1_MS_stereo_44KHz.wav
4	75	3	4	2	I	1	0	1332	0	poli_8sides 13_whiteLine3.jpg	MediumShort_e22_cut1_stereo_44KHz.wav
4	76	1	2	0	C	1	1	851	1	poli_8sides 9_whiteLine3.jpg	MediumShort_e16_cut1_stereo_44KHz.wav
4	77	3	3	2	I	1	0	1548	1	poli_8sides 13_whiteLine3.jpg	MediumShort_b10_cut1_MS_stereo_44KHz.wav
4	78	4	4	2	I	1	0	1597	0	poli_8sides 4_whiteLine3.jpg	MediumShort_e22_cut1_stereo_44KHz.wav
4	79	1	1	1	C	2	1	1949	1	poli_8sides 9_whiteLine3.jpg	MediumShort_b16_cut3_MS_stereo_44KHz.wav
4	80	2	2	1	C	2	1	1202	1	poli_8sides 7_whiteLine3.jpg	MediumShort_e16_cut1_stereo_44KHz.wav
4	81	4	4	2	I	1	0	1631	1	poli_8sides 4_whiteLine3.jpg	MediumShort_e22_cut1_stereo_44KHz.wav
4	82	3	4	2	I	1	0	734	1	poli_8sides 13_whiteLine3.jpg	MediumShort_e22_cut1_stereo_44KHz.wav
4	83	1	1	1	C	2	1	1206	1	poli_8sides 9_whiteLine3.jpg	MediumShort_b16_cut3_MS_stereo_44KHz.wav
4	84	2	1	0	C	1	1	1584	1	poli_8sides 7_whiteLine3.jpg	MediumShort_b16_cut3_MS_stereo_44KHz.wav
4	85	1	2	0	C	1	1	1255	1	poli_8sides 9_whiteLine3.jpg	MediumShort_e16_cut1_stereo_44KHz.wav
4	86	2	2	1	C	2	1	943	1	poli_8sides 7_whiteLine3.jpg	MediumShort_e16_cut1_stereo_44KHz.wav
4	87	4	3	2	I	1	0	1290	1	poli_8sides 4_whiteLine3.jpg	MediumShort_b10_cut1_MS_stereo_44KHz.wav
4	88	3	3	2	I	1	0	756	0	poli_8sides 13_whiteLine3.jpg	MediumShort_b10_cut1_MS_stereo_44KHz.wav
4	89	1	2	0	C	1	1	880	1	poli_8sides 9_whiteLine3.jpg	MediumShort_e16_cut1_stereo_44KHz.wav
4	90	2	1	0	C	1	1	1123	1	poli_8sides 7_whiteLine3.jpg	MediumShort_b16_cut3_MS_stereo_44KHz.wav
4	91	3	4	2	I	1	0	1196	0	poli_8sides 13_whiteLine3.jpg	MediumShort_e22_cut1_stereo_44KHz.wav
4	92	4	3	2	I	1	0	729	0	poli_8sides 4_whiteLine3.jpg	MediumShort_b10_cut1_MS_stereo_44KHz.wav
4	93	3	3	2	I	2	0	1089	1	poli_8sides 13_whiteLine3.jpg	MediumShort_b10_cut1_MS_stereo_44KHz.wav
4	94	1	1	1	C	2	1	1328	1	poli_8sides 9_whiteLine3.jpg	MediumShort_b16_cut3_MS_stereo_44KHz.wav
4	95	4	4	2	I	2	0	1523	0	poli_8sides 4_whiteLine3.jpg	MediumShort_e22_cut1_stereo_44KHz.wav
4	96	2	2	1	C	2	1	1251	1	poli_8sides 7_whiteLine3.jpg	MediumShort_e16_cut1_stereo_44KHz.wav
4	97	1	2	0	C	1	1	764	1	poli_8sides 9_whiteLine3.jpg	MediumShort_e16_cut1_stereo_44KHz.wav
4	98	4	3	2	I	1	0	967	1	poli_8sides 4_whiteLine3.jpg	MediumShort_b10_cut1_MS_stereo_44KHz.wav
4	99	2	1	0	C	1	1	1441	1	poli_8sides 7_whiteLine3.jpg	MediumShort_b16_cut3_MS_stereo_44KHz.wav
4	100	3	4	2	I	1	0	1843	1	poli_8sides 13_whiteLine3.jpg	MediumShort_e22_cut1_stereo_44KHz.wav
4	101	1	1	1	C	2	1	1458	1	poli_8sides 9_whiteLine3.jpg	MediumShort_b16_cut3_MS_stereo_44KHz.wav
4	102	4	4	2	I	1	0	1747	0	poli_8sides 4_whiteLine3.jpg	MediumShort_e22_cut1_stereo_44KHz.wav
4	103	3	3	2	I	1	0	1330	0	poli_8sides 13_whiteLine3.jpg	MediumShort_b10_cut1_MS_stereo_44KHz.wav
4	104	2	2	1	C	2	1	1104	1	poli_8sides 7_whiteLine3.jpg	MediumShort_e16_cut1_stereo_44KHz.wav
4	105	4	4	2	I	1	0	1246	0	poli_8sides 4_whiteLine3.jpg	MediumShort_e22_cut1_stereo_44KHz.wav
4	106	2	1	0	C	1	1	1005	1	poli_8sides 7_whiteLine3.jpg	MediumShort_b16_cut3_MS_stereo_44KHz.wav
4	107	1	1	1	C	2	1	1359	1	poli_8sides 9_whiteLine3.jpg	MediumShort_b16_cut3_MS_stereo_44KHz.wav
4	108	3	4	2	I	1	0	1179	0	poli_8sides 13_whiteLine3.jpg	MediumShort_e22_cut1_stereo_44KHz.wav
4	109	1	2	0	C	1	1	800	1	poli_8sides 9_whiteLine3.jpg	MediumShort_e16_cut1_stereo_44KHz.wav
4	110	3	3	2	I	1	0	1530	0	poli_8sides 13_whiteLine3.jpg	MediumShort_b10_cut1_MS_stereo_44KHz.wav
4	111	4	3	2	I	1	0	704	0	poli_8sides 4_whiteLine3.jpg	MediumShort_b10_cut1_MS_stereo_44KHz.wav
4	112	2	2	1	C	2	1	1261	1	poli_8sides 7_whiteLine3.jpg	MediumShort_e16_cut1_stereo_44KHz.wav
4	113	1	1	1	C	2	1	1434	1	poli_8sides 9_whiteLine3.jpg	MediumShort_b16_cut3_MS_stereo_44KHz.wav
4	114	3	3	2	I	1	0	1609	0	poli_8sides 13_whiteLine3.jpg	MediumShort_b10_cut1_MS_stereo_44KHz.wav
4	115	2	1	0	C	1	1	1013	1	poli_8sides 7_whiteLine3.jpg	MediumShort_b16_cut3_MS_stereo_44KHz.wav
4	116	4	4	2	I	1	0	1022	1	poli_8sides 4_whiteLine3.jpg	MediumShort_e22_cut1_stereo_44KHz.wav
4	117	2	2	1	C	2	1	1149	1	poli_8sides 7_whiteLine3.jpg	MediumShort_e16_cut1_stereo_44KHz.wav
4	118	3	4	2	I	2	0	1610	1	poli_8sides 13_whiteLine3.jpg	MediumShort_e22_cut1_stereo_44KHz.wav
4	119	1	2	0	C	1	1	860	1	poli_8sides 9_whiteLine3.jpg	MediumShort_e16_cut1_stereo_44KHz.wav
4	120	4	3	2	I	2	0	1302	1	poli_8sides 4_whiteLine3.jpg	MediumShort_b10_cut1_MS_stereo_44KHz.wav
4	121	1	1	1	C	2	1	1735	1	poli_8sides 9_whiteLine3.jpg	MediumShort_b16_cut3_MS_stereo_44KHz.wav
4	122	2	1	0	C	1	1	657	1	poli_8sides 7_whiteLine3.jpg	MediumShort_b16_cut3_MS_stereo_44KHz.wav
4	123	3	3	2	I	2	0	1809	0	poli_8sides 13_whiteLine3.jpg	MediumShort_b10_cut1_MS_stereo_44KHz.wav
4	124	4	4	2	I	1	0	778	1	poli_8sides 4_whiteLine3.jpg	MediumShort_e22_cut1_stereo_44KHz.wav
4	125	2	2	1	C	2	1	1037	1	poli_8sides 7_whiteLine3.jpg	MediumShort_e16_cut1_stereo_44KHz.wav
4	126	3	4	2	I	2	0	1735	1	poli_8sides 13_whiteLine3.jpg	MediumShort_e22_cut1_stereo_44KHz.wav
4	127	4	3	2	I	1	0	978	1	poli_8sides 4_whiteLine3.jpg	MediumShort_b10_cut1_MS_stereo_44KHz.wav
4	128	1	2	0	C	1	1	1031	1	poli_8sides 9_whiteLine3.jpg	MediumShort_e16_cut1_stereo_44KHz.wav
4	129	4	3	2	I	1	0	1318	0	poli_8sides 4_whiteLine3.jpg	MediumShort_b10_cut1_MS_stereo_44KHz.wav
4	130	2	2	1	C	2	1	1160	1	poli_8sides 7_whiteLine3.jpg	MediumShort_e16_cut1_stereo_44KHz.wav
4	131	1	2	0	C	1	1	811	1	poli_8sides 9_whiteLine3.jpg	MediumShort_e16_cut1_stereo_44KHz.wav
4	132	3	3	2	I	2	0	1802	0	poli_8sides 13_whiteLine3.jpg	MediumShort_b10_cut1_MS_stereo_44KHz.wav
4	133	4	4	2	I	1	0	828	1	poli_8sides 4_whiteLine3.jpg	MediumShort_e22_cut1_stereo_44KHz.wav
4	134	1	1	1	C	2	1	1113	1	poli_8sides 9_whiteLine3.jpg	MediumShort_b16_cut3_MS_stereo_44KHz.wav
4	135	3	4	2	I	2	0	1760	0	poli_8sides 13_whiteLine3.jpg	MediumShort_e22_cut1_stereo_44KHz.wav
4	136	2	1	0	C	1	1	1291	1	poli_8sides 7_whiteLine3.jpg	MediumShort_b16_cut3_MS_stereo_44KHz.wav
4	137	4	4	2	I	1	0	1259	0	poli_8sides 4_whiteLine3.jpg	MediumShort_e22_cut1_stereo_44KHz.wav
4	138	2	1	0	C	1	1	815	1	poli_8sides 7_whiteLine3.jpg	MediumShort_b16_cut3_MS_stereo_44KHz.wav
4	139	3	4	2	I	0	0	0	0	poli_8sides 13_whiteLine3.jpg	MediumShort_e22_cut1_stereo_44KHz.wav
4	140	1	2	0	C	1	1	818	1	poli_8sides 9_whiteLine3.jpg	MediumShort_e16_cut1_stereo_44KHz.wav
4	141	4	3	2	I	1	0	1081	1	poli_8sides 4_whiteLine3.jpg	MediumShort_b10_cut1_MS_stereo_44KHz.wav
4	142	1	1	1	C	2	1	1225	1	poli_8sides 9_whiteLine3.jpg	MediumShort_b16_cut3_MS_stereo_44KHz.wav
4	143	2	2	1	C	2	1	1069	1	poli_8sides 7_whiteLine3.jpg	MediumShort_e16_cut1_stereo_44KHz.wav
4	144	3	3	2	I	1	0	1466	0	poli_8sides 13_whiteLine3.jpg	MediumShort_b10_cut1_MS_stereo_44KHz.wav
4	145	1	1	1	C	2	1	1390	1	poli_8sides 9_whiteLine3.jpg	MediumShort_b16_cut3_MS_stereo_44KHz.wav
4	146	3	4	2	I	1	0	1376	1	poli_8sides 13_whiteLine3.jpg	MediumShort_e22_cut1_stereo_44KHz.wav
4	147	2	2	1	C	2	1	1189	1	poli_8sides 7_whiteLine3.jpg	MediumShort_e16_cut1_stereo_44KHz.wav
4	148	4	3	2	I	2	0	1272	1	poli_8sides 4_whiteLine3.jpg	MediumShort_b10_cut1_MS_stereo_44KHz.wav
4	149	1	2	0	C	1	1	1114	1	poli_8sides 9_whiteLine3.jpg	MediumShort_e16_cut1_stereo_44KHz.wav
4	150	3	3	2	I	0	0	0	0	poli_8sides 13_whiteLine3.jpg	MediumShort_b10_cut1_MS_stereo_44KHz.wav
4	151	4	4	2	I	1	0	1060	0	poli_8sides 4_whiteLine3.jpg	MediumShort_e22_cut1_stereo_44KHz.wav
4	152	2	1	0	C	1	1	1448	1	poli_8sides 7_whiteLine3.jpg	MediumShort_b16_cut3_MS_stereo_44KHz.wav
4	153	4	3	2	I	1	0	1174	0	poli_8sides 4_whiteLine3.jpg	MediumShort_b10_cut1_MS_stereo_44KHz.wav
4	154	2	2	1	C	2	1	1001	1	poli_8sides 7_whiteLine3.jpg	MediumShort_e16_cut1_stereo_44KHz.wav
4	155	3	3	2	I	1	0	1544	0	poli_8sides 13_whiteLine3.jpg	MediumShort_b10_cut1_MS_stereo_44KHz.wav
4	156	1	1	1	C	2	1	1173	1	poli_8sides 9_whiteLine3.jpg	MediumShort_b16_cut3_MS_stereo_44KHz.wav
4	157	4	4	2	I	2	0	1580	0	poli_8sides 4_whiteLine3.jpg	MediumShort_e22_cut1_stereo_44KHz.wav
4	158	2	1	0	C	1	1	1291	1	poli_8sides 7_whiteLine3.jpg	MediumShort_b16_cut3_MS_stereo_44KHz.wav
4	159	3	4	2	I	1	0	1653	1	poli_8sides 13_whiteLine3.jpg	MediumShort_e22_cut1_stereo_44KHz.wav
4	160	1	2	0	C	1	1	829	1	poli_8sides 9_whiteLine3.jpg	MediumShort_e16_cut1_stereo_44KHz.wav
4	161	4	3	2	I	1	0	1174	0	poli_8sides 4_whiteLine3.jpg	MediumShort_b10_cut1_MS_stereo_44KHz.wav
4	162	2	1	0	C	1	1	884	1	poli_8sides 7_whiteLine3.jpg	MediumShort_b16_cut3_MS_stereo_44KHz.wav
4	163	1	2	0	C	1	1	758	1	poli_8sides 9_whiteLine3.jpg	MediumShort_e16_cut1_stereo_44KHz.wav
4	164	3	4	2	I	1	0	800	0	poli_8sides 13_whiteLine3.jpg	MediumShort_e22_cut1_stereo_44KHz.wav
4	165	1	1	1	C	2	1	1020	1	poli_8sides 9_whiteLine3.jpg	MediumShort_b16_cut3_MS_stereo_44KHz.wav
4	166	3	3	2	I	1	0	1228	1	poli_8sides 13_whiteLine3.jpg	MediumShort_b10_cut1_MS_stereo_44KHz.wav
4	167	4	4	2	I	1	0	1462	1	poli_8sides 4_whiteLine3.jpg	MediumShort_e22_cut1_stereo_44KHz.wav
4	168	2	2	1	C	2	1	909	1	poli_8sides 7_whiteLine3.jpg	MediumShort_e16_cut1_stereo_44KHz.wav
4	169	4	4	2	I	1	0	1047	0	poli_8sides 4_whiteLine3.jpg	MediumShort_e22_cut1_stereo_44KHz.wav
4	170	2	2	1	C	2	1	953	1	poli_8sides 7_whiteLine3.jpg	MediumShort_e16_cut1_stereo_44KHz.wav
4	171	1	2	0	C	1	1	949	1	poli_8sides 9_whiteLine3.jpg	MediumShort_e16_cut1_stereo_44KHz.wav
4	172	3	4	2	I	1	0	1680	1	poli_8sides 13_whiteLine3.jpg	MediumShort_e22_cut1_stereo_44KHz.wav
4	173	4	3	2	I	1	0	1751	1	poli_8sides 4_whiteLine3.jpg	MediumShort_b10_cut1_MS_stereo_44KHz.wav
4	174	3	3	2	I	1	0	1357	0	poli_8sides 13_whiteLine3.jpg	MediumShort_b10_cut1_MS_stereo_44KHz.wav
4	175	2	1	0	C	1	1	1050	1	poli_8sides 7_whiteLine3.jpg	MediumShort_b16_cut3_MS_stereo_44KHz.wav
4	176	1	1	1	C	2	1	698	1	poli_8sides 9_whiteLine3.jpg	MediumShort_b16_cut3_MS_stereo_44KHz.wav
4	177	2	1	0	C	1	1	799	1	poli_8sides 7_whiteLine3.jpg	MediumShort_b16_cut3_MS_stereo_44KHz.wav
4	178	4	4	2	I	1	0	1205	1	poli_8sides 4_whiteLine3.jpg	MediumShort_e22_cut1_stereo_44KHz.wav
4	179	3	4	2	I	1	0	1091	1	poli_8sides 13_whiteLine3.jpg	MediumShort_e22_cut1_stereo_44KHz.wav
4	180	1	2	0	C	1	1	922	1	poli_8sides 9_whiteLine3.jpg	MediumShort_e16_cut1_stereo_44KHz.wav
4	181	2	2	1	C	2	1	1190	1	poli_8sides 7_whiteLine3.jpg	MediumShort_e16_cut1_stereo_44KHz.wav
4	182	1	1	1	C	2	1	1088	1	poli_8sides 9_whiteLine3.jpg	MediumShort_b16_cut3_MS_stereo_44KHz.wav
4	183	3	3	2	I	1	0	963	0	poli_8sides 13_whiteLine3.jpg	MediumShort_b10_cut1_MS_stereo_44KHz.wav
4	184	4	3	2	I	1	0	1105	0	poli_8sides 4_whiteLine3.jpg	MediumShort_b10_cut1_MS_stereo_44KHz.wav
4	185	3	3	2	I	1	0	1643	0	poli_8sides 13_whiteLine3.jpg	MediumShort_b10_cut1_MS_stereo_44KHz.wav
4	186	2	1	0	C	1	1	1054	1	poli_8sides 7_whiteLine3.jpg	MediumShort_b16_cut3_MS_stereo_44KHz.wav
4	187	1	1	1	C	2	1	945	1	poli_8sides 9_whiteLine3.jpg	MediumShort_b16_cut3_MS_stereo_44KHz.wav
4	188	4	4	2	I	1	0	1184	1	poli_8sides 4_whiteLine3.jpg	MediumShort_e22_cut1_stereo_44KHz.wav
4	189	3	4	2	I	1	0	1457	0	poli_8sides 13_whiteLine3.jpg	MediumShort_e22_cut1_stereo_44KHz.wav
4	190	4	3	2	I	1	0	1783	1	poli_8sides 4_whiteLine3.jpg	MediumShort_b10_cut1_MS_stereo_44KHz.wav
4	191	1	2	0	C	1	1	1308	1	poli_8sides 9_whiteLine3.jpg	MediumShort_e16_cut1_stereo_44KHz.wav
4	192	2	2	1	C	2	1	908	1	poli_8sides 7_whiteLine3.jpg	MediumShort_e16_cut1_stereo_44KHz.wav
4	193	3	4	2	I	1	0	1364	1	poli_8sides 13_whiteLine3.jpg	MediumShort_e22_cut1_stereo_44KHz.wav
4	194	2	2	1	C	2	1	1157	1	poli_8sides 7_whiteLine3.jpg	MediumShort_e16_cut1_stereo_44KHz.wav
4	195	4	4	2	I	2	0	1291	1	poli_8sides 4_whiteLine3.jpg	MediumShort_e22_cut1_stereo_44KHz.wav
4	196	1	2	0	C	1	1	1013	1	poli_8sides 9_whiteLine3.jpg	MediumShort_e16_cut1_stereo_44KHz.wav
4	197	4	3	2	I	1	0	1251	1	poli_8sides 4_whiteLine3.jpg	MediumShort_b10_cut1_MS_stereo_44KHz.wav
4	198	2	1	0	C	1	1	1118	1	poli_8sides 7_whiteLine3.jpg	MediumShort_b16_cut3_MS_stereo_44KHz.wav
4	199	1	1	1	C	2	1	967	1	poli_8sides 9_whiteLine3.jpg	MediumShort_b16_cut3_MS_stereo_44KHz.wav
4	200	3	3	2	I	2	0	1852	1	poli_8sides 13_whiteLine3.jpg	MediumShort_b10_cut1_MS_stereo_44KHz.wav
