block	trial	Vstim	Astim	match	C/I	resp	result	RT	fb	V-file	A-file
LR

0	1	1	1	1	C	2	1	1680	1	Ⴞ	cut_eeuw_stereo_44KHz.wav
0	2	1	2	0	C	2	0	1158	0	Ⴞ	cut_ee_stereo_44KHz.wav
0	3	2	3	1	C	2	1	1436	1	Ⴉ	cut_oo_stereo_44KHz.wav
0	4	2	4	0	C	1	1	1479	1	Ⴉ	cut_g_stereo_44KHz.wav
0	5	1	2	0	C	2	0	1340	0	Ⴞ	cut_ee_stereo_44KHz.wav
0	6	2	3	1	C	2	1	1070	1	Ⴉ	cut_oo_stereo_44KHz.wav
0	7	1	1	1	C	2	1	1606	1	Ⴞ	cut_eeuw_stereo_44KHz.wav
0	8	2	4	0	C	1	1	1352	1	Ⴉ	cut_g_stereo_44KHz.wav
0	9	1	1	1	C	2	1	1050	1	Ⴞ	cut_eeuw_stereo_44KHz.wav
0	10	1	2	0	C	1	1	978	1	Ⴞ	cut_ee_stereo_44KHz.wav
0	11	2	3	1	C	2	1	831	1	Ⴉ	cut_oo_stereo_44KHz.wav
0	12	2	4	0	C	1	1	1549	1	Ⴉ	cut_g_stereo_44KHz.wav
0	13	1	1	1	C	2	1	974	1	Ⴞ	cut_eeuw_stereo_44KHz.wav
0	14	2	3	1	C	2	1	1073	1	Ⴉ	cut_oo_stereo_44KHz.wav
0	15	1	2	0	C	1	1	736	1	Ⴞ	cut_ee_stereo_44KHz.wav
0	16	2	4	0	C	1	1	934	1	Ⴉ	cut_g_stereo_44KHz.wav
0	17	2	3	1	C	2	1	1040	1	Ⴉ	cut_oo_stereo_44KHz.wav
0	18	1	2	0	C	1	1	1356	1	Ⴞ	cut_ee_stereo_44KHz.wav
0	19	2	4	0	C	1	1	1173	1	Ⴉ	cut_g_stereo_44KHz.wav
0	20	1	1	1	C	2	1	1556	1	Ⴞ	cut_eeuw_stereo_44KHz.wav
0	21	2	3	1	C	2	1	882	1	Ⴉ	cut_oo_stereo_44KHz.wav
0	22	1	2	0	C	1	1	821	1	Ⴞ	cut_ee_stereo_44KHz.wav
0	23	1	1	1	C	2	1	915	1	Ⴞ	cut_eeuw_stereo_44KHz.wav
0	24	2	4	0	C	1	1	1426	1	Ⴉ	cut_g_stereo_44KHz.wav
0	25	2	3	1	C	2	1	894	1	Ⴉ	cut_oo_stereo_44KHz.wav
0	26	1	2	0	C	1	1	798	1	Ⴞ	cut_ee_stereo_44KHz.wav
0	27	1	1	1	C	2	1	840	1	Ⴞ	cut_eeuw_stereo_44KHz.wav
0	28	2	4	0	C	1	1	1169	1	Ⴉ	cut_g_stereo_44KHz.wav
0	29	2	4	0	C	1	1	1154	1	Ⴉ	cut_g_stereo_44KHz.wav
0	30	1	2	0	C	1	1	835	1	Ⴞ	cut_ee_stereo_44KHz.wav
avg_resp = 1129
1	1	4	4	2	I	0	0	0	0	Ⴁ	cut_k_stereo_44KHz.wav
1	2	2	1	0	C	2	0	1374	0	Ⴇ	cut_a_stereo_44KHz.wav
1	3	1	1	1	C	2	1	1515	1	Ⴟ	cut_a_stereo_44KHz.wav
1	4	3	4	2	I	2	0	1344	0	Ⴜ	cut_k_stereo_44KHz.wav
1	5	2	2	1	C	1	0	1015	0	Ⴇ	cut_o_stereo_44KHz.wav
1	6	3	3	2	I	1	0	1203	0	Ⴜ	cut_u_stereo_44KHz.wav
1	7	4	3	2	I	1	0	883	1	Ⴁ	cut_u_stereo_44KHz.wav
1	8	1	2	0	C	2	0	1489	0	Ⴟ	cut_o_stereo_44KHz.wav
1	9	3	4	2	I	1	0	1426	1	Ⴜ	cut_k_stereo_44KHz.wav
1	10	4	4	2	I	2	0	993	1	Ⴁ	cut_k_stereo_44KHz.wav
1	11	1	1	1	C	1	0	1169	0	Ⴟ	cut_a_stereo_44KHz.wav
1	12	2	1	0	C	1	1	917	1	Ⴇ	cut_a_stereo_44KHz.wav
1	13	4	3	2	I	2	0	1068	1	Ⴁ	cut_u_stereo_44KHz.wav
1	14	3	3	2	I	2	0	1212	1	Ⴜ	cut_u_stereo_44KHz.wav
1	15	1	2	0	C	2	0	1576	0	Ⴟ	cut_o_stereo_44KHz.wav
1	16	2	2	1	C	1	0	1035	0	Ⴇ	cut_o_stereo_44KHz.wav
1	17	1	2	0	C	2	0	1352	0	Ⴟ	cut_o_stereo_44KHz.wav
1	18	4	3	2	I	1	0	1552	1	Ⴁ	cut_u_stereo_44KHz.wav
1	19	3	4	2	I	1	0	1024	1	Ⴜ	cut_k_stereo_44KHz.wav
1	20	2	1	0	C	2	0	1558	0	Ⴇ	cut_a_stereo_44KHz.wav
1	21	1	1	1	C	1	0	1473	0	Ⴟ	cut_a_stereo_44KHz.wav
1	22	4	4	2	I	2	0	1224	0	Ⴁ	cut_k_stereo_44KHz.wav
1	23	2	2	1	C	1	0	1186	0	Ⴇ	cut_o_stereo_44KHz.wav
1	24	3	3	2	I	1	0	1581	1	Ⴜ	cut_u_stereo_44KHz.wav
1	25	2	2	1	C	2	1	1377	1	Ⴇ	cut_o_stereo_44KHz.wav
1	26	3	3	2	I	1	0	959	0	Ⴜ	cut_u_stereo_44KHz.wav
1	27	1	1	1	C	1	0	1018	0	Ⴟ	cut_a_stereo_44KHz.wav
1	28	4	3	2	I	2	0	785	1	Ⴁ	cut_u_stereo_44KHz.wav
1	29	3	4	2	I	1	0	947	1	Ⴜ	cut_k_stereo_44KHz.wav
1	30	4	4	2	I	1	0	1555	0	Ⴁ	cut_k_stereo_44KHz.wav
1	31	1	2	0	C	2	0	1477	0	Ⴟ	cut_o_stereo_44KHz.wav
1	32	2	1	0	C	1	1	1696	1	Ⴇ	cut_a_stereo_44KHz.wav
1	33	1	1	1	C	1	0	1414	0	Ⴟ	cut_a_stereo_44KHz.wav
1	34	2	1	0	C	1	1	1551	1	Ⴇ	cut_a_stereo_44KHz.wav
1	35	3	3	2	I	1	0	1844	0	Ⴜ	cut_u_stereo_44KHz.wav
1	36	4	4	2	I	2	0	1156	1	Ⴁ	cut_k_stereo_44KHz.wav
1	37	2	2	1	C	1	0	1894	0	Ⴇ	cut_o_stereo_44KHz.wav
1	38	3	4	2	I	2	0	1311	0	Ⴜ	cut_k_stereo_44KHz.wav
1	39	1	2	0	C	1	1	1089	1	Ⴟ	cut_o_stereo_44KHz.wav
1	40	4	3	2	I	1	0	1374	0	Ⴁ	cut_u_stereo_44KHz.wav
1	41	2	2	1	C	1	0	1866	0	Ⴇ	cut_o_stereo_44KHz.wav
1	42	3	4	2	I	1	0	902	0	Ⴜ	cut_k_stereo_44KHz.wav
1	43	4	4	2	I	1	0	989	0	Ⴁ	cut_k_stereo_44KHz.wav
1	44	1	1	1	C	2	1	930	1	Ⴟ	cut_a_stereo_44KHz.wav
1	45	2	1	0	C	1	1	1715	1	Ⴇ	cut_a_stereo_44KHz.wav
1	46	1	2	0	C	0	0	0	0	Ⴟ	cut_o_stereo_44KHz.wav
1	47	3	3	2	I	1	0	1080	0	Ⴜ	cut_u_stereo_44KHz.wav
1	48	4	3	2	I	1	0	1042	0	Ⴁ	cut_u_stereo_44KHz.wav
1	49	2	1	0	C	2	0	1079	0	Ⴇ	cut_a_stereo_44KHz.wav
1	50	1	1	1	C	2	1	1096	1	Ⴟ	cut_a_stereo_44KHz.wav
1	51	3	4	2	I	1	0	1407	0	Ⴜ	cut_k_stereo_44KHz.wav
1	52	4	3	2	I	2	0	1036	0	Ⴁ	cut_u_stereo_44KHz.wav
1	53	1	2	0	C	2	0	1413	0	Ⴟ	cut_o_stereo_44KHz.wav
1	54	2	2	1	C	2	1	1412	1	Ⴇ	cut_o_stereo_44KHz.wav
1	55	3	3	2	I	1	0	922	0	Ⴜ	cut_u_stereo_44KHz.wav
1	56	4	4	2	I	2	0	1489	0	Ⴁ	cut_k_stereo_44KHz.wav
1	57	3	3	2	I	1	0	905	0	Ⴜ	cut_u_stereo_44KHz.wav
1	58	4	3	2	I	1	0	981	0	Ⴁ	cut_u_stereo_44KHz.wav
1	59	2	2	1	C	1	0	1018	0	Ⴇ	cut_o_stereo_44KHz.wav
1	60	1	1	1	C	1	0	1326	0	Ⴟ	cut_a_stereo_44KHz.wav
1	61	4	4	2	I	1	0	814	1	Ⴁ	cut_k_stereo_44KHz.wav
1	62	2	1	0	C	1	1	1450	1	Ⴇ	cut_a_stereo_44KHz.wav
1	63	1	2	0	C	2	0	1416	0	Ⴟ	cut_o_stereo_44KHz.wav
1	64	3	4	2	I	1	0	943	0	Ⴜ	cut_k_stereo_44KHz.wav
1	65	1	1	1	C	1	0	1069	0	Ⴟ	cut_a_stereo_44KHz.wav
1	66	2	1	0	C	1	1	697	1	Ⴇ	cut_a_stereo_44KHz.wav
1	67	3	4	2	I	1	0	1238	1	Ⴜ	cut_k_stereo_44KHz.wav
1	68	4	4	2	I	1	0	1156	0	Ⴁ	cut_k_stereo_44KHz.wav
1	69	3	3	2	I	2	0	1360	1	Ⴜ	cut_u_stereo_44KHz.wav
1	70	2	2	1	C	1	0	1445	0	Ⴇ	cut_o_stereo_44KHz.wav
1	71	1	2	0	C	1	1	1465	1	Ⴟ	cut_o_stereo_44KHz.wav
1	72	4	3	2	I	1	0	1557	1	Ⴁ	cut_u_stereo_44KHz.wav
1	73	1	1	1	C	1	0	967	0	Ⴟ	cut_a_stereo_44KHz.wav
1	74	2	2	1	C	1	0	1631	0	Ⴇ	cut_o_stereo_44KHz.wav
1	75	3	4	2	I	1	0	1584	0	Ⴜ	cut_k_stereo_44KHz.wav
1	76	4	4	2	I	2	0	993	0	Ⴁ	cut_k_stereo_44KHz.wav
1	77	3	3	2	I	1	0	501	0	Ⴜ	cut_u_stereo_44KHz.wav
1	78	1	2	0	C	1	1	1007	1	Ⴟ	cut_o_stereo_44KHz.wav
1	79	2	1	0	C	1	1	914	1	Ⴇ	cut_a_stereo_44KHz.wav
1	80	4	3	2	I	1	0	1066	0	Ⴁ	cut_u_stereo_44KHz.wav
1	81	3	4	2	I	1	0	672	1	Ⴜ	cut_k_stereo_44KHz.wav
1	82	4	4	2	I	1	0	947	1	Ⴁ	cut_k_stereo_44KHz.wav
1	83	2	2	1	C	1	0	752	0	Ⴇ	cut_o_stereo_44KHz.wav
1	84	1	2	0	C	2	0	1011	0	Ⴟ	cut_o_stereo_44KHz.wav
1	85	3	3	2	I	1	0	443	0	Ⴜ	cut_u_stereo_44KHz.wav
1	86	4	3	2	I	1	0	824	0	Ⴁ	cut_u_stereo_44KHz.wav
1	87	1	1	1	C	1	0	587	0	Ⴟ	cut_a_stereo_44KHz.wav
1	88	2	1	0	C	1	1	1110	1	Ⴇ	cut_a_stereo_44KHz.wav
1	89	4	3	2	I	1	0	1277	1	Ⴁ	cut_u_stereo_44KHz.wav
1	90	1	1	1	C	2	1	1031	1	Ⴟ	cut_a_stereo_44KHz.wav
1	91	2	1	0	C	1	1	993	1	Ⴇ	cut_a_stereo_44KHz.wav
1	92	3	3	2	I	1	0	1274	0	Ⴜ	cut_u_stereo_44KHz.wav
1	93	4	4	2	I	1	0	1348	1	Ⴁ	cut_k_stereo_44KHz.wav
1	94	1	2	0	C	1	1	1295	1	Ⴟ	cut_o_stereo_44KHz.wav
1	95	3	4	2	I	2	0	972	0	Ⴜ	cut_k_stereo_44KHz.wav
1	96	2	2	1	C	1	0	561	0	Ⴇ	cut_o_stereo_44KHz.wav
1	97	3	3	2	I	1	0	1092	1	Ⴜ	cut_u_stereo_44KHz.wav
1	98	2	2	1	C	2	1	1369	1	Ⴇ	cut_o_stereo_44KHz.wav
1	99	1	1	1	C	1	0	1375	0	Ⴟ	cut_a_stereo_44KHz.wav
1	100	4	4	2	I	1	0	1191	1	Ⴁ	cut_k_stereo_44KHz.wav
1	101	2	1	0	C	1	1	1356	1	Ⴇ	cut_a_stereo_44KHz.wav
1	102	4	3	2	I	1	0	1125	0	Ⴁ	cut_u_stereo_44KHz.wav
1	103	3	4	2	I	1	0	1470	0	Ⴜ	cut_k_stereo_44KHz.wav
1	104	1	2	0	C	1	1	1183	1	Ⴟ	cut_o_stereo_44KHz.wav
1	105	3	3	2	I	1	0	1402	0	Ⴜ	cut_u_stereo_44KHz.wav
1	106	1	2	0	C	1	1	1396	1	Ⴟ	cut_o_stereo_44KHz.wav
1	107	4	4	2	I	2	0	1253	1	Ⴁ	cut_k_stereo_44KHz.wav
1	108	2	1	0	C	1	1	1193	1	Ⴇ	cut_a_stereo_44KHz.wav
1	109	4	3	2	I	1	0	1412	0	Ⴁ	cut_u_stereo_44KHz.wav
1	110	3	4	2	I	1	0	1246	1	Ⴜ	cut_k_stereo_44KHz.wav
1	111	2	2	1	C	1	0	737	0	Ⴇ	cut_o_stereo_44KHz.wav
1	112	1	1	1	C	1	0	1001	0	Ⴟ	cut_a_stereo_44KHz.wav
1	113	4	4	2	I	2	0	783	1	Ⴁ	cut_k_stereo_44KHz.wav
1	114	2	1	0	C	1	1	1313	1	Ⴇ	cut_a_stereo_44KHz.wav
1	115	1	1	1	C	1	0	1239	0	Ⴟ	cut_a_stereo_44KHz.wav
1	116	3	4	2	I	1	0	913	1	Ⴜ	cut_k_stereo_44KHz.wav
1	117	4	3	2	I	1	0	1041	0	Ⴁ	cut_u_stereo_44KHz.wav
1	118	1	2	0	C	1	1	1607	1	Ⴟ	cut_o_stereo_44KHz.wav
1	119	2	2	1	C	1	0	1549	0	Ⴇ	cut_o_stereo_44KHz.wav
1	120	3	3	2	I	2	0	963	1	Ⴜ	cut_u_stereo_44KHz.wav
1	121	2	1	0	C	1	1	823	1	Ⴇ	cut_a_stereo_44KHz.wav
1	122	3	4	2	I	2	0	1005	1	Ⴜ	cut_k_stereo_44KHz.wav
1	123	1	1	1	C	1	0	501	0	Ⴟ	cut_a_stereo_44KHz.wav
1	124	4	4	2	I	2	0	529	0	Ⴁ	cut_k_stereo_44KHz.wav
1	125	3	3	2	I	1	0	963	1	Ⴜ	cut_u_stereo_44KHz.wav
1	126	1	2	0	C	1	1	878	1	Ⴟ	cut_o_stereo_44KHz.wav
1	127	4	3	2	I	1	0	994	1	Ⴁ	cut_u_stereo_44KHz.wav
1	128	2	2	1	C	1	0	797	0	Ⴇ	cut_o_stereo_44KHz.wav
1	129	3	3	2	I	1	0	1124	1	Ⴜ	cut_u_stereo_44KHz.wav
1	130	4	4	2	I	1	0	797	1	Ⴁ	cut_k_stereo_44KHz.wav
1	131	2	1	0	C	1	1	696	1	Ⴇ	cut_a_stereo_44KHz.wav
1	132	1	2	0	C	1	1	984	1	Ⴟ	cut_o_stereo_44KHz.wav
1	133	4	3	2	I	1	0	618	0	Ⴁ	cut_u_stereo_44KHz.wav
1	134	2	2	1	C	2	1	862	1	Ⴇ	cut_o_stereo_44KHz.wav
1	135	3	4	2	I	1	0	1207	0	Ⴜ	cut_k_stereo_44KHz.wav
1	136	1	1	1	C	1	0	993	0	Ⴟ	cut_a_stereo_44KHz.wav
1	137	4	3	2	I	1	0	1009	1	Ⴁ	cut_u_stereo_44KHz.wav
1	138	3	4	2	I	1	0	713	1	Ⴜ	cut_k_stereo_44KHz.wav
1	139	1	1	1	C	1	0	886	0	Ⴟ	cut_a_stereo_44KHz.wav
1	140	2	1	0	C	1	1	810	1	Ⴇ	cut_a_stereo_44KHz.wav
1	141	1	2	0	C	1	1	486	1	Ⴟ	cut_o_stereo_44KHz.wav
1	142	2	2	1	C	1	0	525	0	Ⴇ	cut_o_stereo_44KHz.wav
1	143	4	4	2	I	2	0	1037	1	Ⴁ	cut_k_stereo_44KHz.wav
1	144	3	3	2	I	2	0	1185	0	Ⴜ	cut_u_stereo_44KHz.wav
1	145	1	2	0	C	1	1	981	1	Ⴟ	cut_o_stereo_44KHz.wav
1	146	4	3	2	I	1	0	1049	1	Ⴁ	cut_u_stereo_44KHz.wav
1	147	2	1	0	C	2	0	899	0	Ⴇ	cut_a_stereo_44KHz.wav
1	148	3	4	2	I	1	0	1062	0	Ⴜ	cut_k_stereo_44KHz.wav
1	149	1	1	1	C	1	0	1314	0	Ⴟ	cut_a_stereo_44KHz.wav
1	150	2	2	1	C	1	0	1228	0	Ⴇ	cut_o_stereo_44KHz.wav
1	151	4	4	2	I	1	0	1484	1	Ⴁ	cut_k_stereo_44KHz.wav
1	152	3	3	2	I	1	0	1366	0	Ⴜ	cut_u_stereo_44KHz.wav
1	153	4	4	2	I	1	0	1634	1	Ⴁ	cut_k_stereo_44KHz.wav
1	154	3	3	2	I	1	0	1470	1	Ⴜ	cut_u_stereo_44KHz.wav
1	155	2	2	1	C	1	0	969	0	Ⴇ	cut_o_stereo_44KHz.wav
1	156	1	2	0	C	1	1	862	1	Ⴟ	cut_o_stereo_44KHz.wav
1	157	3	4	2	I	1	0	1198	1	Ⴜ	cut_k_stereo_44KHz.wav
1	158	1	1	1	C	2	1	1308	1	Ⴟ	cut_a_stereo_44KHz.wav
1	159	2	1	0	C	1	1	1480	1	Ⴇ	cut_a_stereo_44KHz.wav
1	160	4	3	2	I	1	0	897	0	Ⴁ	cut_u_stereo_44KHz.wav
1	161	1	2	0	C	0	0	0	0	Ⴟ	cut_o_stereo_44KHz.wav
1	162	4	4	2	I	1	0	677	1	Ⴁ	cut_k_stereo_44KHz.wav
1	163	3	3	2	I	1	0	627	1	Ⴜ	cut_u_stereo_44KHz.wav
1	164	2	1	0	C	1	1	664	1	Ⴇ	cut_a_stereo_44KHz.wav
1	165	4	3	2	I	1	0	723	0	Ⴁ	cut_u_stereo_44KHz.wav
1	166	3	4	2	I	1	0	929	0	Ⴜ	cut_k_stereo_44KHz.wav
1	167	1	1	1	C	2	1	1189	1	Ⴟ	cut_a_stereo_44KHz.wav
1	168	2	2	1	C	1	0	1103	0	Ⴇ	cut_o_stereo_44KHz.wav
1	169	4	4	2	I	2	0	762	1	Ⴁ	cut_k_stereo_44KHz.wav
1	170	3	4	2	I	1	0	1334	1	Ⴜ	cut_k_stereo_44KHz.wav
1	171	1	2	0	C	1	1	1246	1	Ⴟ	cut_o_stereo_44KHz.wav
1	172	2	1	0	C	1	1	971	1	Ⴇ	cut_a_stereo_44KHz.wav
1	173	3	3	2	I	1	0	664	1	Ⴜ	cut_u_stereo_44KHz.wav
1	174	4	3	2	I	1	0	1135	0	Ⴁ	cut_u_stereo_44KHz.wav
1	175	2	2	1	C	2	1	1755	1	Ⴇ	cut_o_stereo_44KHz.wav
1	176	1	1	1	C	1	0	1058	0	Ⴟ	cut_a_stereo_44KHz.wav
1	177	4	4	2	I	1	0	1517	1	Ⴁ	cut_k_stereo_44KHz.wav
1	178	2	2	1	C	1	0	1545	0	Ⴇ	cut_o_stereo_44KHz.wav
1	179	1	1	1	C	2	1	1543	1	Ⴟ	cut_a_stereo_44KHz.wav
1	180	3	3	2	I	1	0	1450	1	Ⴜ	cut_u_stereo_44KHz.wav
1	181	2	1	0	C	1	1	1738	1	Ⴇ	cut_a_stereo_44KHz.wav
1	182	1	2	0	C	1	1	1257	1	Ⴟ	cut_o_stereo_44KHz.wav
1	183	3	4	2	I	1	0	731	1	Ⴜ	cut_k_stereo_44KHz.wav
1	184	4	3	2	I	1	0	301	0	Ⴁ	cut_u_stereo_44KHz.wav
1	185	2	1	0	C	1	1	1241	1	Ⴇ	cut_a_stereo_44KHz.wav
1	186	3	3	2	I	2	0	1568	1	Ⴜ	cut_u_stereo_44KHz.wav
1	187	1	2	0	C	2	0	1543	0	Ⴟ	cut_o_stereo_44KHz.wav
1	188	4	4	2	I	1	0	1255	0	Ⴁ	cut_k_stereo_44KHz.wav
1	189	1	1	1	C	0	0	0	0	Ⴟ	cut_a_stereo_44KHz.wav
1	190	2	2	1	C	1	0	1264	0	Ⴇ	cut_o_stereo_44KHz.wav
1	191	4	3	2	I	1	0	868	1	Ⴁ	cut_u_stereo_44KHz.wav
1	192	3	4	2	I	2	0	1239	0	Ⴜ	cut_k_stereo_44KHz.wav
1	193	1	2	0	C	2	0	1113	0	Ⴟ	cut_o_stereo_44KHz.wav
1	194	3	4	2	I	1	0	928	1	Ⴜ	cut_k_stereo_44KHz.wav
1	195	2	1	0	C	1	1	756	1	Ⴇ	cut_a_stereo_44KHz.wav
1	196	4	4	2	I	1	0	875	0	Ⴁ	cut_k_stereo_44KHz.wav
1	197	2	2	1	C	2	1	1003	1	Ⴇ	cut_o_stereo_44KHz.wav
1	198	3	3	2	I	1	0	757	0	Ⴜ	cut_u_stereo_44KHz.wav
1	199	4	3	2	I	1	0	752	0	Ⴁ	cut_u_stereo_44KHz.wav
1	200	1	1	1	C	2	1	955	1	Ⴟ	cut_a_stereo_44KHz.wav
2	1	3	4	2	I	1	0	1786	0	Ⴊ	cut_l_stereo_44KHz.wav
2	2	2	1	0	C	2	0	1551	0	Ⴂ	cut_h_stereo_44KHz.wav
2	3	4	3	2	I	2	0	1463	1	Ⴡ	cut_g_stereo_44KHz.wav
2	4	1	2	0	C	1	1	1284	1	Ⴃ	cut_w_stereo_44KHz.wav
2	5	2	2	1	C	1	0	1182	0	Ⴂ	cut_w_stereo_44KHz.wav
2	6	4	4	2	I	2	0	898	0	Ⴡ	cut_l_stereo_44KHz.wav
2	7	3	3	2	I	2	0	861	0	Ⴊ	cut_g_stereo_44KHz.wav
2	8	1	1	1	C	1	0	1032	0	Ⴃ	cut_h_stereo_44KHz.wav
2	9	2	2	1	C	2	1	999	1	Ⴂ	cut_w_stereo_44KHz.wav
2	10	3	4	2	I	1	0	1286	1	Ⴊ	cut_l_stereo_44KHz.wav
2	11	1	2	0	C	1	1	1523	1	Ⴃ	cut_w_stereo_44KHz.wav
2	12	4	3	2	I	1	0	1220	0	Ⴡ	cut_g_stereo_44KHz.wav
2	13	2	1	0	C	2	0	727	0	Ⴂ	cut_h_stereo_44KHz.wav
2	14	3	3	2	I	1	0	752	0	Ⴊ	cut_g_stereo_44KHz.wav
2	15	1	1	1	C	1	0	1074	0	Ⴃ	cut_h_stereo_44KHz.wav
2	16	4	4	2	I	1	0	1467	1	Ⴡ	cut_l_stereo_44KHz.wav
2	17	2	1	0	C	1	1	1376	1	Ⴂ	cut_h_stereo_44KHz.wav
2	18	3	4	2	I	1	0	874	0	Ⴊ	cut_l_stereo_44KHz.wav
2	19	1	2	0	C	2	0	1232	0	Ⴃ	cut_w_stereo_44KHz.wav
2	20	4	4	2	I	2	0	1189	1	Ⴡ	cut_l_stereo_44KHz.wav
2	21	1	1	1	C	1	0	969	0	Ⴃ	cut_h_stereo_44KHz.wav
2	22	2	2	1	C	1	0	1379	0	Ⴂ	cut_w_stereo_44KHz.wav
2	23	4	3	2	I	1	0	1148	0	Ⴡ	cut_g_stereo_44KHz.wav
2	24	3	3	2	I	1	0	1103	0	Ⴊ	cut_g_stereo_44KHz.wav
2	25	1	1	1	C	2	1	1640	1	Ⴃ	cut_h_stereo_44KHz.wav
2	26	3	4	2	I	2	0	1080	0	Ⴊ	cut_l_stereo_44KHz.wav
2	27	4	4	2	I	1	0	692	0	Ⴡ	cut_l_stereo_44KHz.wav
2	28	2	2	1	C	1	0	1050	0	Ⴂ	cut_w_stereo_44KHz.wav
2	29	4	3	2	I	1	0	601	0	Ⴡ	cut_g_stereo_44KHz.wav
2	30	3	3	2	I	1	0	1317	0	Ⴊ	cut_g_stereo_44KHz.wav
2	31	1	2	0	C	1	1	983	1	Ⴃ	cut_w_stereo_44KHz.wav
2	32	2	1	0	C	1	1	1271	1	Ⴂ	cut_h_stereo_44KHz.wav
2	33	3	4	2	I	2	0	1331	1	Ⴊ	cut_l_stereo_44KHz.wav
2	34	1	2	0	C	1	1	833	1	Ⴃ	cut_w_stereo_44KHz.wav
2	35	2	2	1	C	2	1	869	1	Ⴂ	cut_w_stereo_44KHz.wav
2	36	4	3	2	I	1	0	1525	0	Ⴡ	cut_g_stereo_44KHz.wav
2	37	2	1	0	C	0	0	0	0	Ⴂ	cut_h_stereo_44KHz.wav
2	38	3	3	2	I	2	0	1386	1	Ⴊ	cut_g_stereo_44KHz.wav
2	39	1	1	1	C	1	0	993	0	Ⴃ	cut_h_stereo_44KHz.wav
2	40	4	4	2	I	2	0	992	0	Ⴡ	cut_l_stereo_44KHz.wav
2	41	2	2	1	C	1	0	905	0	Ⴂ	cut_w_stereo_44KHz.wav
2	42	4	3	2	I	2	0	1114	1	Ⴡ	cut_g_stereo_44KHz.wav
2	43	3	4	2	I	2	0	1146	0	Ⴊ	cut_l_stereo_44KHz.wav
2	44	1	2	0	C	1	1	870	1	Ⴃ	cut_w_stereo_44KHz.wav
2	45	3	3	2	I	2	0	1177	1	Ⴊ	cut_g_stereo_44KHz.wav
2	46	4	4	2	I	1	0	976	1	Ⴡ	cut_l_stereo_44KHz.wav
2	47	1	1	1	C	1	0	1163	0	Ⴃ	cut_h_stereo_44KHz.wav
2	48	2	1	0	C	2	0	1474	0	Ⴂ	cut_h_stereo_44KHz.wav
2	49	3	4	2	I	1	0	1479	1	Ⴊ	cut_l_stereo_44KHz.wav
2	50	4	3	2	I	1	0	918	0	Ⴡ	cut_g_stereo_44KHz.wav
2	51	1	2	0	C	1	1	1184	1	Ⴃ	cut_w_stereo_44KHz.wav
2	52	2	1	0	C	1	1	1226	1	Ⴂ	cut_h_stereo_44KHz.wav
2	53	1	1	1	C	1	0	1080	0	Ⴃ	cut_h_stereo_44KHz.wav
2	54	3	3	2	I	2	0	1272	1	Ⴊ	cut_g_stereo_44KHz.wav
2	55	4	4	2	I	1	0	1177	1	Ⴡ	cut_l_stereo_44KHz.wav
2	56	2	2	1	C	2	1	1193	1	Ⴂ	cut_w_stereo_44KHz.wav
2	57	4	3	2	I	2	0	1578	1	Ⴡ	cut_g_stereo_44KHz.wav
2	58	1	1	1	C	1	0	1281	0	Ⴃ	cut_h_stereo_44KHz.wav
2	59	3	4	2	I	2	0	1337	1	Ⴊ	cut_l_stereo_44KHz.wav
2	60	2	2	1	C	2	1	1068	1	Ⴂ	cut_w_stereo_44KHz.wav
2	61	3	3	2	I	2	0	871	0	Ⴊ	cut_g_stereo_44KHz.wav
2	62	4	4	2	I	1	0	1066	0	Ⴡ	cut_l_stereo_44KHz.wav
2	63	1	2	0	C	1	1	1003	1	Ⴃ	cut_w_stereo_44KHz.wav
2	64	2	1	0	C	2	0	1262	0	Ⴂ	cut_h_stereo_44KHz.wav
2	65	1	2	0	C	1	1	1179	1	Ⴃ	cut_w_stereo_44KHz.wav
2	66	3	4	2	I	2	0	1155	1	Ⴊ	cut_l_stereo_44KHz.wav
2	67	2	2	1	C	1	0	1390	0	Ⴂ	cut_w_stereo_44KHz.wav
2	68	4	3	2	I	2	0	1164	1	Ⴡ	cut_g_stereo_44KHz.wav
2	69	2	1	0	C	1	1	1583	1	Ⴂ	cut_h_stereo_44KHz.wav
2	70	4	4	2	I	1	0	1559	1	Ⴡ	cut_l_stereo_44KHz.wav
2	71	3	3	2	I	2	0	1092	0	Ⴊ	cut_g_stereo_44KHz.wav
2	72	1	1	1	C	2	1	1485	1	Ⴃ	cut_h_stereo_44KHz.wav
2	73	4	4	2	I	1	0	1465	1	Ⴡ	cut_l_stereo_44KHz.wav
2	74	2	2	1	C	2	1	930	1	Ⴂ	cut_w_stereo_44KHz.wav
2	75	1	1	1	C	2	1	924	1	Ⴃ	cut_h_stereo_44KHz.wav
2	76	3	3	2	I	2	0	876	1	Ⴊ	cut_g_stereo_44KHz.wav
2	77	1	2	0	C	1	1	1347	1	Ⴃ	cut_w_stereo_44KHz.wav
2	78	4	3	2	I	1	0	1648	1	Ⴡ	cut_g_stereo_44KHz.wav
2	79	2	1	0	C	1	1	1562	1	Ⴂ	cut_h_stereo_44KHz.wav
2	80	3	4	2	I	1	0	1831	1	Ⴊ	cut_l_stereo_44KHz.wav
2	81	1	1	1	C	2	1	1717	1	Ⴃ	cut_h_stereo_44KHz.wav
2	82	2	2	1	C	2	1	1472	1	Ⴂ	cut_w_stereo_44KHz.wav
2	83	4	4	2	I	2	0	1141	0	Ⴡ	cut_l_stereo_44KHz.wav
2	84	3	3	2	I	2	0	1549	0	Ⴊ	cut_g_stereo_44KHz.wav
2	85	4	3	2	I	1	0	973	0	Ⴡ	cut_g_stereo_44KHz.wav
2	86	3	4	2	I	1	0	1552	0	Ⴊ	cut_l_stereo_44KHz.wav
2	87	1	2	0	C	1	1	1625	1	Ⴃ	cut_w_stereo_44KHz.wav
2	88	2	1	0	C	1	1	1631	1	Ⴂ	cut_h_stereo_44KHz.wav
2	89	4	3	2	I	1	0	1310	1	Ⴡ	cut_g_stereo_44KHz.wav
2	90	2	2	1	C	2	1	1354	1	Ⴂ	cut_w_stereo_44KHz.wav
2	91	1	2	0	C	1	1	1222	1	Ⴃ	cut_w_stereo_44KHz.wav
2	92	3	3	2	I	1	0	1491	0	Ⴊ	cut_g_stereo_44KHz.wav
2	93	2	1	0	C	1	1	1525	1	Ⴂ	cut_h_stereo_44KHz.wav
2	94	4	4	2	I	1	0	1719	0	Ⴡ	cut_l_stereo_44KHz.wav
2	95	1	1	1	C	2	1	946	1	Ⴃ	cut_h_stereo_44KHz.wav
2	96	3	4	2	I	1	0	1533	0	Ⴊ	cut_l_stereo_44KHz.wav
2	97	1	1	1	C	2	1	1654	1	Ⴃ	cut_h_stereo_44KHz.wav
2	98	3	3	2	I	0	0	0	0	Ⴊ	cut_g_stereo_44KHz.wav
2	99	4	4	2	I	1	0	1098	1	Ⴡ	cut_l_stereo_44KHz.wav
2	100	2	2	1	C	2	1	1603	1	Ⴂ	cut_w_stereo_44KHz.wav
2	101	1	2	0	C	1	1	743	1	Ⴃ	cut_w_stereo_44KHz.wav
2	102	3	4	2	I	2	0	202	1	Ⴊ	cut_l_stereo_44KHz.wav
2	103	2	1	0	C	1	1	939	1	Ⴂ	cut_h_stereo_44KHz.wav
2	104	4	3	2	I	1	0	1375	0	Ⴡ	cut_g_stereo_44KHz.wav
2	105	1	2	0	C	1	1	1141	1	Ⴃ	cut_w_stereo_44KHz.wav
2	106	3	3	2	I	1	0	1469	0	Ⴊ	cut_g_stereo_44KHz.wav
2	107	2	1	0	C	1	1	1116	1	Ⴂ	cut_h_stereo_44KHz.wav
2	108	4	4	2	I	1	0	1089	0	Ⴡ	cut_l_stereo_44KHz.wav
2	109	3	4	2	I	1	0	979	0	Ⴊ	cut_l_stereo_44KHz.wav
2	110	2	2	1	C	1	0	1044	0	Ⴂ	cut_w_stereo_44KHz.wav
2	111	1	1	1	C	2	1	1415	1	Ⴃ	cut_h_stereo_44KHz.wav
2	112	4	3	2	I	1	0	1013	1	Ⴡ	cut_g_stereo_44KHz.wav
2	113	2	2	1	C	2	1	1321	1	Ⴂ	cut_w_stereo_44KHz.wav
2	114	1	2	0	C	1	1	1139	1	Ⴃ	cut_w_stereo_44KHz.wav
2	115	3	4	2	I	1	0	1614	0	Ⴊ	cut_l_stereo_44KHz.wav
2	116	4	3	2	I	2	0	1266	1	Ⴡ	cut_g_stereo_44KHz.wav
2	117	2	1	0	C	1	1	1703	1	Ⴂ	cut_h_stereo_44KHz.wav
2	118	3	3	2	I	1	0	1545	1	Ⴊ	cut_g_stereo_44KHz.wav
2	119	4	4	2	I	1	0	836	1	Ⴡ	cut_l_stereo_44KHz.wav
2	120	1	1	1	C	2	1	1306	1	Ⴃ	cut_h_stereo_44KHz.wav
2	121	2	1	0	C	1	1	1334	1	Ⴂ	cut_h_stereo_44KHz.wav
2	122	4	3	2	I	2	0	1492	0	Ⴡ	cut_g_stereo_44KHz.wav
2	123	3	4	2	I	2	0	1740	0	Ⴊ	cut_l_stereo_44KHz.wav
2	124	1	1	1	C	1	0	1420	0	Ⴃ	cut_h_stereo_44KHz.wav
2	125	4	4	2	I	2	0	1378	0	Ⴡ	cut_l_stereo_44KHz.wav
2	126	2	2	1	C	2	1	291	1	Ⴂ	cut_w_stereo_44KHz.wav
2	127	1	2	0	C	1	1	952	1	Ⴃ	cut_w_stereo_44KHz.wav
2	128	3	3	2	I	1	0	1512	1	Ⴊ	cut_g_stereo_44KHz.wav
2	129	1	1	1	C	2	1	1708	1	Ⴃ	cut_h_stereo_44KHz.wav
2	130	3	3	2	I	1	0	1598	0	Ⴊ	cut_g_stereo_44KHz.wav
2	131	2	1	0	C	1	1	1692	1	Ⴂ	cut_h_stereo_44KHz.wav
2	132	4	4	2	I	1	0	1451	1	Ⴡ	cut_l_stereo_44KHz.wav
2	133	2	2	1	C	2	1	1301	1	Ⴂ	cut_w_stereo_44KHz.wav
2	134	4	3	2	I	2	0	1410	0	Ⴡ	cut_g_stereo_44KHz.wav
2	135	1	2	0	C	2	0	1407	0	Ⴃ	cut_w_stereo_44KHz.wav
2	136	3	4	2	I	2	0	1859	1	Ⴊ	cut_l_stereo_44KHz.wav
2	137	2	1	0	C	1	1	1407	1	Ⴂ	cut_h_stereo_44KHz.wav
2	138	4	3	2	I	2	0	1441	1	Ⴡ	cut_g_stereo_44KHz.wav
2	139	1	1	1	C	2	1	1238	1	Ⴃ	cut_h_stereo_44KHz.wav
2	140	3	3	2	I	1	0	1274	1	Ⴊ	cut_g_stereo_44KHz.wav
2	141	1	2	0	C	1	1	1123	1	Ⴃ	cut_w_stereo_44KHz.wav
2	142	4	4	2	I	1	0	1479	1	Ⴡ	cut_l_stereo_44KHz.wav
2	143	3	4	2	I	2	0	848	1	Ⴊ	cut_l_stereo_44KHz.wav
2	144	2	2	1	C	2	1	1085	1	Ⴂ	cut_w_stereo_44KHz.wav
2	145	1	1	1	C	2	1	1400	1	Ⴃ	cut_h_stereo_44KHz.wav
2	146	2	1	0	C	1	1	1492	1	Ⴂ	cut_h_stereo_44KHz.wav
2	147	3	3	2	I	1	0	1411	1	Ⴊ	cut_g_stereo_44KHz.wav
2	148	4	3	2	I	1	0	1740	0	Ⴡ	cut_g_stereo_44KHz.wav
2	149	3	4	2	I	1	0	1938	1	Ⴊ	cut_l_stereo_44KHz.wav
2	150	2	2	1	C	2	1	1178	1	Ⴂ	cut_w_stereo_44KHz.wav
2	151	4	4	2	I	1	0	1726	1	Ⴡ	cut_l_stereo_44KHz.wav
2	152	1	2	0	C	1	1	1620	1	Ⴃ	cut_w_stereo_44KHz.wav
2	153	2	1	0	C	1	1	1009	1	Ⴂ	cut_h_stereo_44KHz.wav
2	154	4	3	2	I	1	0	1788	0	Ⴡ	cut_g_stereo_44KHz.wav
2	155	3	3	2	I	1	0	671	1	Ⴊ	cut_g_stereo_44KHz.wav
2	156	1	1	1	C	2	1	1171	1	Ⴃ	cut_h_stereo_44KHz.wav
2	157	2	2	1	C	2	1	1475	1	Ⴂ	cut_w_stereo_44KHz.wav
2	158	1	2	0	C	1	1	1120	1	Ⴃ	cut_w_stereo_44KHz.wav
2	159	4	4	2	I	1	0	1710	0	Ⴡ	cut_l_stereo_44KHz.wav
2	160	3	4	2	I	1	0	1277	0	Ⴊ	cut_l_stereo_44KHz.wav
2	161	2	1	0	C	1	1	1232	1	Ⴂ	cut_h_stereo_44KHz.wav
2	162	1	1	1	C	2	1	1387	1	Ⴃ	cut_h_stereo_44KHz.wav
2	163	3	4	2	I	1	0	1199	0	Ⴊ	cut_l_stereo_44KHz.wav
2	164	4	4	2	I	2	0	976	0	Ⴡ	cut_l_stereo_44KHz.wav
2	165	3	3	2	I	1	0	1151	1	Ⴊ	cut_g_stereo_44KHz.wav
2	166	2	2	1	C	2	1	1618	1	Ⴂ	cut_w_stereo_44KHz.wav
2	167	1	2	0	C	1	1	1702	1	Ⴃ	cut_w_stereo_44KHz.wav
2	168	4	3	2	I	2	0	1120	1	Ⴡ	cut_g_stereo_44KHz.wav
2	169	1	1	1	C	2	1	921	1	Ⴃ	cut_h_stereo_44KHz.wav
2	170	3	3	2	I	1	0	1380	0	Ⴊ	cut_g_stereo_44KHz.wav
2	171	4	3	2	I	2	0	1380	0	Ⴡ	cut_g_stereo_44KHz.wav
2	172	2	1	0	C	1	1	1447	1	Ⴂ	cut_h_stereo_44KHz.wav
2	173	1	2	0	C	1	1	947	1	Ⴃ	cut_w_stereo_44KHz.wav
2	174	4	4	2	I	1	0	892	1	Ⴡ	cut_l_stereo_44KHz.wav
2	175	2	2	1	C	2	1	1112	1	Ⴂ	cut_w_stereo_44KHz.wav
2	176	3	4	2	I	1	0	1402	0	Ⴊ	cut_l_stereo_44KHz.wav
2	177	1	2	0	C	1	1	1939	1	Ⴃ	cut_w_stereo_44KHz.wav
2	178	4	4	2	I	1	0	1187	0	Ⴡ	cut_l_stereo_44KHz.wav
2	179	2	2	1	C	2	1	1086	1	Ⴂ	cut_w_stereo_44KHz.wav
2	180	3	3	2	I	1	0	1692	0	Ⴊ	cut_g_stereo_44KHz.wav
2	181	2	1	0	C	1	1	1267	1	Ⴂ	cut_h_stereo_44KHz.wav
2	182	1	1	1	C	2	1	915	1	Ⴃ	cut_h_stereo_44KHz.wav
2	183	3	4	2	I	2	0	1051	0	Ⴊ	cut_l_stereo_44KHz.wav
2	184	4	3	2	I	1	0	935	0	Ⴡ	cut_g_stereo_44KHz.wav
2	185	3	3	2	I	1	0	1078	1	Ⴊ	cut_g_stereo_44KHz.wav
2	186	1	2	0	C	2	0	1514	0	Ⴃ	cut_w_stereo_44KHz.wav
2	187	4	3	2	I	1	0	1500	1	Ⴡ	cut_g_stereo_44KHz.wav
2	188	2	1	0	C	1	1	997	1	Ⴂ	cut_h_stereo_44KHz.wav
2	189	1	1	1	C	2	1	821	1	Ⴃ	cut_h_stereo_44KHz.wav
2	190	3	4	2	I	1	0	1118	1	Ⴊ	cut_l_stereo_44KHz.wav
2	191	2	2	1	C	2	1	1443	1	Ⴂ	cut_w_stereo_44KHz.wav
2	192	4	4	2	I	1	0	1161	0	Ⴡ	cut_l_stereo_44KHz.wav
2	193	2	2	1	C	2	1	1218	1	Ⴂ	cut_w_stereo_44KHz.wav
2	194	4	3	2	I	1	0	1399	1	Ⴡ	cut_g_stereo_44KHz.wav
2	195	3	3	2	I	2	0	1174	1	Ⴊ	cut_g_stereo_44KHz.wav
2	196	1	1	1	C	2	1	1210	1	Ⴃ	cut_h_stereo_44KHz.wav
2	197	2	1	0	C	1	1	1486	1	Ⴂ	cut_h_stereo_44KHz.wav
2	198	1	2	0	C	1	1	1119	1	Ⴃ	cut_w_stereo_44KHz.wav
2	199	4	4	2	I	1	0	1190	1	Ⴡ	cut_l_stereo_44KHz.wav
2	200	3	4	2	I	2	0	985	1	Ⴊ	cut_l_stereo_44KHz.wav
3	1	4	3	2	I	1	0	1516	0	Ⴏ	cut_r_stereo_44KHz.wav
3	2	1	2	0	C	2	0	1342	0	Ⴌ	cut_ei_stereo_44KHz.wav
3	3	3	4	2	I	2	0	1533	1	Ⴖ	cut_f_stereo_44KHz.wav
3	4	2	2	1	C	2	1	1315	1	Ⴉ	cut_ei_stereo_44KHz.wav
3	5	3	3	2	I	2	0	1264	0	Ⴖ	cut_r_stereo_44KHz.wav
3	6	2	1	0	C	2	0	1306	0	Ⴉ	cut_n_stereo_44KHz.wav
3	7	1	1	1	C	2	1	907	1	Ⴌ	cut_n_stereo_44KHz.wav
3	8	4	4	2	I	2	0	1034	1	Ⴏ	cut_f_stereo_44KHz.wav
3	9	3	4	2	I	1	0	1150	0	Ⴖ	cut_f_stereo_44KHz.wav
3	10	2	2	1	C	2	1	1134	1	Ⴉ	cut_ei_stereo_44KHz.wav
3	11	4	3	2	I	1	0	1230	1	Ⴏ	cut_r_stereo_44KHz.wav
3	12	1	1	1	C	2	1	1188	1	Ⴌ	cut_n_stereo_44KHz.wav
3	13	4	4	2	I	2	0	1486	0	Ⴏ	cut_f_stereo_44KHz.wav
3	14	2	1	0	C	2	0	1210	0	Ⴉ	cut_n_stereo_44KHz.wav
3	15	3	3	2	I	2	0	944	1	Ⴖ	cut_r_stereo_44KHz.wav
3	16	1	2	0	C	1	1	926	1	Ⴌ	cut_ei_stereo_44KHz.wav
3	17	2	1	0	C	2	0	1180	0	Ⴉ	cut_n_stereo_44KHz.wav
3	18	4	3	2	I	1	0	969	1	Ⴏ	cut_r_stereo_44KHz.wav
3	19	3	4	2	I	1	0	1094	1	Ⴖ	cut_f_stereo_44KHz.wav
3	20	1	2	0	C	1	1	837	1	Ⴌ	cut_ei_stereo_44KHz.wav
3	21	2	2	1	C	2	1	877	1	Ⴉ	cut_ei_stereo_44KHz.wav
3	22	1	1	1	C	2	1	1125	1	Ⴌ	cut_n_stereo_44KHz.wav
3	23	3	3	2	I	2	0	890	1	Ⴖ	cut_r_stereo_44KHz.wav
3	24	4	4	2	I	1	0	1269	0	Ⴏ	cut_f_stereo_44KHz.wav
3	25	1	1	1	C	2	1	954	1	Ⴌ	cut_n_stereo_44KHz.wav
3	26	2	1	0	C	2	0	929	0	Ⴉ	cut_n_stereo_44KHz.wav
3	27	3	3	2	I	2	0	1071	0	Ⴖ	cut_r_stereo_44KHz.wav
3	28	4	4	2	I	1	0	1002	0	Ⴏ	cut_f_stereo_44KHz.wav
3	29	3	4	2	I	1	0	740	1	Ⴖ	cut_f_stereo_44KHz.wav
3	30	1	2	0	C	1	1	711	1	Ⴌ	cut_ei_stereo_44KHz.wav
3	31	4	3	2	I	1	0	873	1	Ⴏ	cut_r_stereo_44KHz.wav
3	32	2	2	1	C	2	1	826	1	Ⴉ	cut_ei_stereo_44KHz.wav
3	33	3	4	2	I	1	0	1050	1	Ⴖ	cut_f_stereo_44KHz.wav
3	34	4	3	2	I	1	0	965	0	Ⴏ	cut_r_stereo_44KHz.wav
3	35	2	1	0	C	1	1	1522	1	Ⴉ	cut_n_stereo_44KHz.wav
3	36	1	1	1	C	2	1	888	1	Ⴌ	cut_n_stereo_44KHz.wav
3	37	3	3	2	I	2	0	834	1	Ⴖ	cut_r_stereo_44KHz.wav
3	38	1	2	0	C	1	1	823	1	Ⴌ	cut_ei_stereo_44KHz.wav
3	39	4	4	2	I	2	0	1222	0	Ⴏ	cut_f_stereo_44KHz.wav
3	40	2	2	1	C	2	1	868	1	Ⴉ	cut_ei_stereo_44KHz.wav
3	41	4	3	2	I	1	0	1140	1	Ⴏ	cut_r_stereo_44KHz.wav
3	42	1	1	1	C	2	1	721	1	Ⴌ	cut_n_stereo_44KHz.wav
3	43	2	2	1	C	2	1	929	1	Ⴉ	cut_ei_stereo_44KHz.wav
3	44	3	4	2	I	1	0	796	1	Ⴖ	cut_f_stereo_44KHz.wav
3	45	1	2	0	C	1	1	606	1	Ⴌ	cut_ei_stereo_44KHz.wav
3	46	2	1	0	C	2	0	989	0	Ⴉ	cut_n_stereo_44KHz.wav
3	47	3	3	2	I	2	0	1299	0	Ⴖ	cut_r_stereo_44KHz.wav
3	48	4	4	2	I	1	0	1527	1	Ⴏ	cut_f_stereo_44KHz.wav
3	49	2	2	1	C	2	1	815	1	Ⴉ	cut_ei_stereo_44KHz.wav
3	50	1	2	0	C	1	1	692	1	Ⴌ	cut_ei_stereo_44KHz.wav
3	51	4	3	2	I	1	0	1032	1	Ⴏ	cut_r_stereo_44KHz.wav
3	52	3	4	2	I	1	0	1084	1	Ⴖ	cut_f_stereo_44KHz.wav
3	53	1	1	1	C	2	1	902	1	Ⴌ	cut_n_stereo_44KHz.wav
3	54	2	1	0	C	1	1	1059	1	Ⴉ	cut_n_stereo_44KHz.wav
3	55	4	4	2	I	2	0	1667	0	Ⴏ	cut_f_stereo_44KHz.wav
3	56	3	3	2	I	1	0	892	1	Ⴖ	cut_r_stereo_44KHz.wav
3	57	1	1	1	C	2	1	961	1	Ⴌ	cut_n_stereo_44KHz.wav
3	58	2	2	1	C	2	1	828	1	Ⴉ	cut_ei_stereo_44KHz.wav
3	59	3	3	2	I	2	0	1572	1	Ⴖ	cut_r_stereo_44KHz.wav
3	60	4	3	2	I	1	0	1106	0	Ⴏ	cut_r_stereo_44KHz.wav
3	61	3	4	2	I	1	0	1575	0	Ⴖ	cut_f_stereo_44KHz.wav
3	62	4	4	2	I	1	0	1101	1	Ⴏ	cut_f_stereo_44KHz.wav
3	63	2	1	0	C	2	0	1553	0	Ⴉ	cut_n_stereo_44KHz.wav
3	64	1	2	0	C	1	1	928	1	Ⴌ	cut_ei_stereo_44KHz.wav
3	65	3	4	2	I	1	0	1033	1	Ⴖ	cut_f_stereo_44KHz.wav
3	66	4	4	2	I	1	0	1352	0	Ⴏ	cut_f_stereo_44KHz.wav
3	67	2	1	0	C	1	1	897	1	Ⴉ	cut_n_stereo_44KHz.wav
3	68	1	2	0	C	1	1	989	1	Ⴌ	cut_ei_stereo_44KHz.wav
3	69	2	2	1	C	2	1	1254	1	Ⴉ	cut_ei_stereo_44KHz.wav
3	70	3	3	2	I	1	0	1478	1	Ⴖ	cut_r_stereo_44KHz.wav
3	71	4	3	2	I	2	0	1391	0	Ⴏ	cut_r_stereo_44KHz.wav
3	72	1	1	1	C	2	1	1066	1	Ⴌ	cut_n_stereo_44KHz.wav
3	73	3	3	2	I	2	0	1300	1	Ⴖ	cut_r_stereo_44KHz.wav
3	74	1	1	1	C	2	1	783	1	Ⴌ	cut_n_stereo_44KHz.wav
3	75	2	2	1	C	2	1	909	1	Ⴉ	cut_ei_stereo_44KHz.wav
3	76	4	4	2	I	1	0	1102	1	Ⴏ	cut_f_stereo_44KHz.wav
3	77	2	1	0	C	1	1	969	1	Ⴉ	cut_n_stereo_44KHz.wav
3	78	4	3	2	I	1	0	1171	1	Ⴏ	cut_r_stereo_44KHz.wav
3	79	3	4	2	I	1	0	807	1	Ⴖ	cut_f_stereo_44KHz.wav
3	80	1	2	0	C	1	1	845	1	Ⴌ	cut_ei_stereo_44KHz.wav
3	81	4	3	2	I	1	0	1466	0	Ⴏ	cut_r_stereo_44KHz.wav
3	82	1	2	0	C	1	1	1051	1	Ⴌ	cut_ei_stereo_44KHz.wav
3	83	3	3	2	I	1	0	1448	0	Ⴖ	cut_r_stereo_44KHz.wav
3	84	2	1	0	C	1	1	831	1	Ⴉ	cut_n_stereo_44KHz.wav
3	85	4	4	2	I	1	0	1283	0	Ⴏ	cut_f_stereo_44KHz.wav
3	86	3	4	2	I	1	0	879	0	Ⴖ	cut_f_stereo_44KHz.wav
3	87	2	2	1	C	2	1	973	1	Ⴉ	cut_ei_stereo_44KHz.wav
3	88	1	1	1	C	2	1	985	1	Ⴌ	cut_n_stereo_44KHz.wav
3	89	3	4	2	I	1	0	1010	1	Ⴖ	cut_f_stereo_44KHz.wav
3	90	1	2	0	C	1	1	746	1	Ⴌ	cut_ei_stereo_44KHz.wav
3	91	4	3	2	I	1	0	1104	0	Ⴏ	cut_r_stereo_44KHz.wav
3	92	2	2	1	C	2	1	897	1	Ⴉ	cut_ei_stereo_44KHz.wav
3	93	1	1	1	C	2	1	826	1	Ⴌ	cut_n_stereo_44KHz.wav
3	94	4	4	2	I	2	0	1551	1	Ⴏ	cut_f_stereo_44KHz.wav
3	95	3	3	2	I	2	0	1785	1	Ⴖ	cut_r_stereo_44KHz.wav
3	96	2	1	0	C	1	1	1253	1	Ⴉ	cut_n_stereo_44KHz.wav
3	97	4	4	2	I	2	0	1459	1	Ⴏ	cut_f_stereo_44KHz.wav
3	98	2	1	0	C	1	1	811	1	Ⴉ	cut_n_stereo_44KHz.wav
3	99	1	1	1	C	2	1	1243	1	Ⴌ	cut_n_stereo_44KHz.wav
3	100	3	4	2	I	1	0	913	1	Ⴖ	cut_f_stereo_44KHz.wav
3	101	4	3	2	I	2	0	1050	1	Ⴏ	cut_r_stereo_44KHz.wav
3	102	1	2	0	C	1	1	680	1	Ⴌ	cut_ei_stereo_44KHz.wav
3	103	2	2	1	C	2	1	1127	1	Ⴉ	cut_ei_stereo_44KHz.wav
3	104	3	3	2	I	1	0	1210	0	Ⴖ	cut_r_stereo_44KHz.wav
3	105	1	1	1	C	2	1	811	1	Ⴌ	cut_n_stereo_44KHz.wav
3	106	2	1	0	C	1	1	829	1	Ⴉ	cut_n_stereo_44KHz.wav
3	107	4	4	2	I	2	0	1783	0	Ⴏ	cut_f_stereo_44KHz.wav
3	108	3	3	2	I	2	0	1750	1	Ⴖ	cut_r_stereo_44KHz.wav
3	109	2	2	1	C	2	1	822	1	Ⴉ	cut_ei_stereo_44KHz.wav
3	110	1	2	0	C	1	1	691	1	Ⴌ	cut_ei_stereo_44KHz.wav
3	111	3	4	2	I	1	0	974	0	Ⴖ	cut_f_stereo_44KHz.wav
3	112	4	3	2	I	1	0	1013	1	Ⴏ	cut_r_stereo_44KHz.wav
3	113	1	1	1	C	2	1	1227	1	Ⴌ	cut_n_stereo_44KHz.wav
3	114	4	3	2	I	1	0	841	1	Ⴏ	cut_r_stereo_44KHz.wav
3	115	3	3	2	I	1	0	832	1	Ⴖ	cut_r_stereo_44KHz.wav
3	116	2	2	1	C	2	1	972	1	Ⴉ	cut_ei_stereo_44KHz.wav
3	117	1	2	0	C	1	1	982	1	Ⴌ	cut_ei_stereo_44KHz.wav
3	118	3	4	2	I	1	0	1029	0	Ⴖ	cut_f_stereo_44KHz.wav
3	119	2	1	0	C	1	1	1713	1	Ⴉ	cut_n_stereo_44KHz.wav
3	120	4	4	2	I	1	0	1071	0	Ⴏ	cut_f_stereo_44KHz.wav
3	121	3	4	2	I	1	0	791	0	Ⴖ	cut_f_stereo_44KHz.wav
3	122	1	1	1	C	1	0	991	0	Ⴌ	cut_n_stereo_44KHz.wav
3	123	4	4	2	I	1	0	863	0	Ⴏ	cut_f_stereo_44KHz.wav
3	124	2	1	0	C	1	1	929	1	Ⴉ	cut_n_stereo_44KHz.wav
3	125	4	3	2	I	1	0	1235	0	Ⴏ	cut_r_stereo_44KHz.wav
3	126	2	2	1	C	2	1	1071	1	Ⴉ	cut_ei_stereo_44KHz.wav
3	127	1	2	0	C	1	1	644	1	Ⴌ	cut_ei_stereo_44KHz.wav
3	128	3	3	2	I	2	0	1069	0	Ⴖ	cut_r_stereo_44KHz.wav
3	129	4	3	2	I	2	0	991	1	Ⴏ	cut_r_stereo_44KHz.wav
3	130	2	2	1	C	2	1	841	1	Ⴉ	cut_ei_stereo_44KHz.wav
3	131	1	2	0	C	1	1	640	1	Ⴌ	cut_ei_stereo_44KHz.wav
3	132	3	3	2	I	1	0	1258	0	Ⴖ	cut_r_stereo_44KHz.wav
3	133	1	1	1	C	2	1	894	1	Ⴌ	cut_n_stereo_44KHz.wav
3	134	2	1	0	C	1	1	1270	1	Ⴉ	cut_n_stereo_44KHz.wav
3	135	4	4	2	I	1	0	1232	1	Ⴏ	cut_f_stereo_44KHz.wav
3	136	3	4	2	I	2	0	1348	1	Ⴖ	cut_f_stereo_44KHz.wav
3	137	1	2	0	C	1	1	800	1	Ⴌ	cut_ei_stereo_44KHz.wav
3	138	3	3	2	I	1	0	1436	0	Ⴖ	cut_r_stereo_44KHz.wav
3	139	2	2	1	C	2	1	899	1	Ⴉ	cut_ei_stereo_44KHz.wav
3	140	4	4	2	I	2	0	1671	0	Ⴏ	cut_f_stereo_44KHz.wav
3	141	3	4	2	I	1	0	931	0	Ⴖ	cut_f_stereo_44KHz.wav
3	142	1	1	1	C	2	1	915	1	Ⴌ	cut_n_stereo_44KHz.wav
3	143	4	3	2	I	1	0	1311	0	Ⴏ	cut_r_stereo_44KHz.wav
3	144	2	1	0	C	1	1	851	1	Ⴉ	cut_n_stereo_44KHz.wav
3	145	4	3	2	I	1	0	1732	1	Ⴏ	cut_r_stereo_44KHz.wav
3	146	1	2	0	C	1	1	1233	1	Ⴌ	cut_ei_stereo_44KHz.wav
3	147	2	1	0	C	1	1	1509	1	Ⴉ	cut_n_stereo_44KHz.wav
3	148	3	3	2	I	2	0	1427	0	Ⴖ	cut_r_stereo_44KHz.wav
3	149	2	2	1	C	2	1	1179	1	Ⴉ	cut_ei_stereo_44KHz.wav
3	150	4	4	2	I	1	0	974	1	Ⴏ	cut_f_stereo_44KHz.wav
3	151	3	4	2	I	2	0	1421	0	Ⴖ	cut_f_stereo_44KHz.wav
3	152	1	1	1	C	2	1	912	1	Ⴌ	cut_n_stereo_44KHz.wav
3	153	4	3	2	I	1	0	1416	1	Ⴏ	cut_r_stereo_44KHz.wav
3	154	3	3	2	I	2	0	1090	0	Ⴖ	cut_r_stereo_44KHz.wav
3	155	2	2	1	C	2	1	1007	1	Ⴉ	cut_ei_stereo_44KHz.wav
3	156	1	2	0	C	1	1	1243	1	Ⴌ	cut_ei_stereo_44KHz.wav
3	157	4	4	2	I	1	0	1206	1	Ⴏ	cut_f_stereo_44KHz.wav
3	158	3	4	2	I	1	0	947	0	Ⴖ	cut_f_stereo_44KHz.wav
3	159	1	1	1	C	2	1	845	1	Ⴌ	cut_n_stereo_44KHz.wav
3	160	2	1	0	C	1	1	900	1	Ⴉ	cut_n_stereo_44KHz.wav
3	161	1	2	0	C	1	1	1037	1	Ⴌ	cut_ei_stereo_44KHz.wav
3	162	3	4	2	I	2	0	74	1	Ⴖ	cut_f_stereo_44KHz.wav
3	163	2	2	1	C	2	1	980	1	Ⴉ	cut_ei_stereo_44KHz.wav
3	164	4	3	2	I	1	0	1071	0	Ⴏ	cut_r_stereo_44KHz.wav
3	165	1	1	1	C	2	1	686	1	Ⴌ	cut_n_stereo_44KHz.wav
3	166	4	4	2	I	1	0	1108	0	Ⴏ	cut_f_stereo_44KHz.wav
3	167	2	1	0	C	1	1	958	1	Ⴉ	cut_n_stereo_44KHz.wav
3	168	3	3	2	I	2	0	1262	1	Ⴖ	cut_r_stereo_44KHz.wav
3	169	1	1	1	C	2	1	815	1	Ⴌ	cut_n_stereo_44KHz.wav
3	170	4	3	2	I	1	0	1275	0	Ⴏ	cut_r_stereo_44KHz.wav
3	171	3	4	2	I	1	0	877	0	Ⴖ	cut_f_stereo_44KHz.wav
3	172	2	2	1	C	2	1	838	1	Ⴉ	cut_ei_stereo_44KHz.wav
3	173	3	3	2	I	1	0	1371	1	Ⴖ	cut_r_stereo_44KHz.wav
3	174	2	1	0	C	1	1	843	1	Ⴉ	cut_n_stereo_44KHz.wav
3	175	4	4	2	I	1	0	729	0	Ⴏ	cut_f_stereo_44KHz.wav
3	176	1	2	0	C	1	1	644	1	Ⴌ	cut_ei_stereo_44KHz.wav
3	177	2	1	0	C	1	1	832	1	Ⴉ	cut_n_stereo_44KHz.wav
3	178	4	4	2	I	1	0	1041	0	Ⴏ	cut_f_stereo_44KHz.wav
3	179	1	2	0	C	1	1	617	1	Ⴌ	cut_ei_stereo_44KHz.wav
3	180	3	3	2	I	1	0	1267	0	Ⴖ	cut_r_stereo_44KHz.wav
3	181	4	3	2	I	2	0	1021	1	Ⴏ	cut_r_stereo_44KHz.wav
3	182	3	4	2	I	1	0	1141	1	Ⴖ	cut_f_stereo_44KHz.wav
3	183	2	2	1	C	2	1	851	1	Ⴉ	cut_ei_stereo_44KHz.wav
3	184	1	1	1	C	2	1	782	1	Ⴌ	cut_n_stereo_44KHz.wav
3	185	4	4	2	I	1	0	1406	0	Ⴏ	cut_f_stereo_44KHz.wav
3	186	2	1	0	C	1	1	950	1	Ⴉ	cut_n_stereo_44KHz.wav
3	187	1	2	0	C	1	1	924	1	Ⴌ	cut_ei_stereo_44KHz.wav
3	188	3	4	2	I	1	0	1305	0	Ⴖ	cut_f_stereo_44KHz.wav
3	189	4	3	2	I	2	0	980	1	Ⴏ	cut_r_stereo_44KHz.wav
3	190	3	3	2	I	1	0	1185	0	Ⴖ	cut_r_stereo_44KHz.wav
3	191	1	1	1	C	2	1	922	1	Ⴌ	cut_n_stereo_44KHz.wav
3	192	2	2	1	C	2	1	792	1	Ⴉ	cut_ei_stereo_44KHz.wav
3	193	1	2	0	C	1	1	812	1	Ⴌ	cut_ei_stereo_44KHz.wav
3	194	4	4	2	I	2	0	1244	1	Ⴏ	cut_f_stereo_44KHz.wav
3	195	2	2	1	C	2	1	1116	1	Ⴉ	cut_ei_stereo_44KHz.wav
3	196	3	4	2	I	2	0	1059	0	Ⴖ	cut_f_stereo_44KHz.wav
3	197	4	3	2	I	2	0	1498	1	Ⴏ	cut_r_stereo_44KHz.wav
3	198	3	3	2	I	1	0	1431	0	Ⴖ	cut_r_stereo_44KHz.wav
3	199	2	1	0	C	1	1	1240	1	Ⴉ	cut_n_stereo_44KHz.wav
3	200	1	1	1	C	2	1	858	1	Ⴌ	cut_n_stereo_44KHz.wav
4	1	2	1	0	C	0	0	0	0	Ⴕ	cut_j_stereo_44KHz.wav
4	2	3	3	2	I	2	0	1665	0	Ⴒ	cut_ui_stereo_44KHz.wav
4	3	4	4	2	I	1	0	1305	0	Ⴔ	cut_oei_stereo_44KHz.wav
4	4	1	2	0	C	2	0	1402	0	Ⴐ	cut_s_stereo_44KHz.wav
4	5	3	4	2	I	2	0	999	0	Ⴒ	cut_oei_stereo_44KHz.wav
4	6	2	2	1	C	2	1	1174	1	Ⴕ	cut_s_stereo_44KHz.wav
4	7	1	1	1	C	1	0	825	0	Ⴐ	cut_j_stereo_44KHz.wav
4	8	4	3	2	I	2	0	930	1	Ⴔ	cut_ui_stereo_44KHz.wav
4	9	2	2	1	C	1	0	1236	0	Ⴕ	cut_s_stereo_44KHz.wav
4	10	4	4	2	I	1	0	1455	0	Ⴔ	cut_oei_stereo_44KHz.wav
4	11	3	3	2	I	2	0	1234	1	Ⴒ	cut_ui_stereo_44KHz.wav
4	12	1	2	0	C	1	1	1475	1	Ⴐ	cut_s_stereo_44KHz.wav
4	13	3	4	2	I	1	0	1705	0	Ⴒ	cut_oei_stereo_44KHz.wav
4	14	4	3	2	I	2	0	1382	1	Ⴔ	cut_ui_stereo_44KHz.wav
4	15	1	1	1	C	1	0	1131	0	Ⴐ	cut_j_stereo_44KHz.wav
4	16	2	1	0	C	1	1	1623	1	Ⴕ	cut_j_stereo_44KHz.wav
4	17	3	4	2	I	1	0	853	0	Ⴒ	cut_oei_stereo_44KHz.wav
4	18	2	2	1	C	2	1	959	1	Ⴕ	cut_s_stereo_44KHz.wav
4	19	4	4	2	I	1	0	1185	1	Ⴔ	cut_oei_stereo_44KHz.wav
4	20	1	1	1	C	1	0	1035	0	Ⴐ	cut_j_stereo_44KHz.wav
4	21	4	3	2	I	2	0	836	1	Ⴔ	cut_ui_stereo_44KHz.wav
4	22	3	3	2	I	1	0	1283	1	Ⴒ	cut_ui_stereo_44KHz.wav
4	23	1	2	0	C	1	1	1007	1	Ⴐ	cut_s_stereo_44KHz.wav
4	24	2	1	0	C	1	1	992	1	Ⴕ	cut_j_stereo_44KHz.wav
4	25	3	3	2	I	2	0	1109	1	Ⴒ	cut_ui_stereo_44KHz.wav
4	26	4	4	2	I	1	0	1054	1	Ⴔ	cut_oei_stereo_44KHz.wav
4	27	2	2	1	C	1	0	1442	0	Ⴕ	cut_s_stereo_44KHz.wav
4	28	1	1	1	C	2	1	1060	1	Ⴐ	cut_j_stereo_44KHz.wav
4	29	4	3	2	I	1	0	1314	1	Ⴔ	cut_ui_stereo_44KHz.wav
4	30	1	2	0	C	1	1	1347	1	Ⴐ	cut_s_stereo_44KHz.wav
4	31	2	1	0	C	2	0	1136	0	Ⴕ	cut_j_stereo_44KHz.wav
4	32	3	4	2	I	1	0	1509	1	Ⴒ	cut_oei_stereo_44KHz.wav
4	33	4	3	2	I	1	0	1540	0	Ⴔ	cut_ui_stereo_44KHz.wav
4	34	3	3	2	I	1	0	1742	0	Ⴒ	cut_ui_stereo_44KHz.wav
4	35	2	2	1	C	1	0	1008	0	Ⴕ	cut_s_stereo_44KHz.wav
4	36	1	1	1	C	2	1	1197	1	Ⴐ	cut_j_stereo_44KHz.wav
4	37	2	1	0	C	1	1	1192	1	Ⴕ	cut_j_stereo_44KHz.wav
4	38	3	4	2	I	2	0	784	1	Ⴒ	cut_oei_stereo_44KHz.wav
4	39	4	4	2	I	2	0	1135	1	Ⴔ	cut_oei_stereo_44KHz.wav
4	40	1	2	0	C	1	1	863	1	Ⴐ	cut_s_stereo_44KHz.wav
4	41	2	1	0	C	1	1	762	1	Ⴕ	cut_j_stereo_44KHz.wav
4	42	1	2	0	C	1	1	924	1	Ⴐ	cut_s_stereo_44KHz.wav
4	43	4	3	2	I	2	0	965	1	Ⴔ	cut_ui_stereo_44KHz.wav
4	44	3	4	2	I	1	0	626	0	Ⴒ	cut_oei_stereo_44KHz.wav
4	45	2	2	1	C	2	1	886	1	Ⴕ	cut_s_stereo_44KHz.wav
4	46	4	4	2	I	1	0	857	1	Ⴔ	cut_oei_stereo_44KHz.wav
4	47	1	1	1	C	2	1	764	1	Ⴐ	cut_j_stereo_44KHz.wav
4	48	3	3	2	I	2	0	1161	1	Ⴒ	cut_ui_stereo_44KHz.wav
4	49	1	1	1	C	2	1	716	1	Ⴐ	cut_j_stereo_44KHz.wav
4	50	2	2	1	C	1	0	1293	0	Ⴕ	cut_s_stereo_44KHz.wav
4	51	3	4	2	I	2	0	683	1	Ⴒ	cut_oei_stereo_44KHz.wav
4	52	4	4	2	I	2	0	955	1	Ⴔ	cut_oei_stereo_44KHz.wav
4	53	3	3	2	I	1	0	934	1	Ⴒ	cut_ui_stereo_44KHz.wav
4	54	4	3	2	I	2	0	928	1	Ⴔ	cut_ui_stereo_44KHz.wav
4	55	2	1	0	C	1	1	1148	1	Ⴕ	cut_j_stereo_44KHz.wav
4	56	1	2	0	C	1	1	1401	1	Ⴐ	cut_s_stereo_44KHz.wav
4	57	4	3	2	I	2	0	1071	1	Ⴔ	cut_ui_stereo_44KHz.wav
4	58	3	4	2	I	2	0	1170	1	Ⴒ	cut_oei_stereo_44KHz.wav
4	59	2	2	1	C	2	1	1653	1	Ⴕ	cut_s_stereo_44KHz.wav
4	60	1	1	1	C	1	0	1472	0	Ⴐ	cut_j_stereo_44KHz.wav
4	61	3	3	2	I	1	0	1400	1	Ⴒ	cut_ui_stereo_44KHz.wav
4	62	4	4	2	I	2	0	1529	1	Ⴔ	cut_oei_stereo_44KHz.wav
4	63	2	1	0	C	1	1	1673	1	Ⴕ	cut_j_stereo_44KHz.wav
4	64	1	2	0	C	1	1	1322	1	Ⴐ	cut_s_stereo_44KHz.wav
4	65	4	4	2	I	2	0	1322	1	Ⴔ	cut_oei_stereo_44KHz.wav
4	66	2	2	1	C	1	0	1418	0	Ⴕ	cut_s_stereo_44KHz.wav
4	67	1	2	0	C	1	1	1029	1	Ⴐ	cut_s_stereo_44KHz.wav
4	68	3	3	2	I	1	0	1129	0	Ⴒ	cut_ui_stereo_44KHz.wav
4	69	2	1	0	C	1	1	1411	1	Ⴕ	cut_j_stereo_44KHz.wav
4	70	3	4	2	I	2	0	1374	1	Ⴒ	cut_oei_stereo_44KHz.wav
4	71	1	1	1	C	2	1	1323	1	Ⴐ	cut_j_stereo_44KHz.wav
4	72	4	3	2	I	1	0	1422	1	Ⴔ	cut_ui_stereo_44KHz.wav
4	73	1	2	0	C	2	0	1116	0	Ⴐ	cut_s_stereo_44KHz.wav
4	74	4	3	2	I	2	0	1128	1	Ⴔ	cut_ui_stereo_44KHz.wav
4	75	3	4	2	I	2	0	1237	1	Ⴒ	cut_oei_stereo_44KHz.wav
4	76	2	1	0	C	0	0	0	0	Ⴕ	cut_j_stereo_44KHz.wav
4	77	1	1	1	C	1	0	1716	0	Ⴐ	cut_j_stereo_44KHz.wav
4	78	3	3	2	I	1	0	1312	1	Ⴒ	cut_ui_stereo_44KHz.wav
4	79	4	4	2	I	2	0	1087	0	Ⴔ	cut_oei_stereo_44KHz.wav
4	80	2	2	1	C	1	0	1358	0	Ⴕ	cut_s_stereo_44KHz.wav
4	81	4	3	2	I	2	0	872	1	Ⴔ	cut_ui_stereo_44KHz.wav
4	82	2	2	1	C	1	0	1273	0	Ⴕ	cut_s_stereo_44KHz.wav
4	83	1	1	1	C	2	1	847	1	Ⴐ	cut_j_stereo_44KHz.wav
4	84	3	4	2	I	2	0	1152	1	Ⴒ	cut_oei_stereo_44KHz.wav
4	85	4	4	2	I	1	0	1004	1	Ⴔ	cut_oei_stereo_44KHz.wav
4	86	2	1	0	C	1	1	1337	1	Ⴕ	cut_j_stereo_44KHz.wav
4	87	1	2	0	C	1	1	1083	1	Ⴐ	cut_s_stereo_44KHz.wav
4	88	3	3	2	I	1	0	1034	0	Ⴒ	cut_ui_stereo_44KHz.wav
4	89	4	3	2	I	2	0	940	1	Ⴔ	cut_ui_stereo_44KHz.wav
4	90	3	4	2	I	2	0	1422	0	Ⴒ	cut_oei_stereo_44KHz.wav
4	91	2	1	0	C	1	1	1067	1	Ⴕ	cut_j_stereo_44KHz.wav
4	92	1	2	0	C	2	0	1272	0	Ⴐ	cut_s_stereo_44KHz.wav
4	93	4	4	2	I	1	0	1417	1	Ⴔ	cut_oei_stereo_44KHz.wav
4	94	1	1	1	C	1	0	1927	0	Ⴐ	cut_j_stereo_44KHz.wav
4	95	3	3	2	I	1	0	1056	1	Ⴒ	cut_ui_stereo_44KHz.wav
4	96	2	2	1	C	1	0	1197	0	Ⴕ	cut_s_stereo_44KHz.wav
4	97	1	1	1	C	2	1	1118	1	Ⴐ	cut_j_stereo_44KHz.wav
4	98	4	4	2	I	1	0	1101	0	Ⴔ	cut_oei_stereo_44KHz.wav
4	99	3	3	2	I	1	0	835	0	Ⴒ	cut_ui_stereo_44KHz.wav
4	100	2	1	0	C	1	1	1683	1	Ⴕ	cut_j_stereo_44KHz.wav
4	101	3	4	2	I	2	0	1546	1	Ⴒ	cut_oei_stereo_44KHz.wav
4	102	2	2	1	C	1	0	1387	0	Ⴕ	cut_s_stereo_44KHz.wav
4	103	4	3	2	I	2	0	1250	1	Ⴔ	cut_ui_stereo_44KHz.wav
4	104	1	2	0	C	1	1	1120	1	Ⴐ	cut_s_stereo_44KHz.wav
4	105	4	4	2	I	2	0	1185	0	Ⴔ	cut_oei_stereo_44KHz.wav
4	106	1	1	1	C	1	0	1629	0	Ⴐ	cut_j_stereo_44KHz.wav
4	107	3	4	2	I	2	0	1161	0	Ⴒ	cut_oei_stereo_44KHz.wav
4	108	2	1	0	C	1	1	1300	1	Ⴕ	cut_j_stereo_44KHz.wav
4	109	1	2	0	C	1	1	1710	1	Ⴐ	cut_s_stereo_44KHz.wav
4	110	2	2	1	C	1	0	1750	0	Ⴕ	cut_s_stereo_44KHz.wav
4	111	3	3	2	I	1	0	1242	1	Ⴒ	cut_ui_stereo_44KHz.wav
4	112	4	3	2	I	2	0	742	0	Ⴔ	cut_ui_stereo_44KHz.wav
4	113	2	1	0	C	1	1	1446	1	Ⴕ	cut_j_stereo_44KHz.wav
4	114	4	3	2	I	2	0	891	0	Ⴔ	cut_ui_stereo_44KHz.wav
4	115	3	4	2	I	2	0	1317	1	Ⴒ	cut_oei_stereo_44KHz.wav
4	116	1	2	0	C	1	1	1109	1	Ⴐ	cut_s_stereo_44KHz.wav
4	117	2	2	1	C	2	1	1023	1	Ⴕ	cut_s_stereo_44KHz.wav
4	118	4	4	2	I	1	0	837	0	Ⴔ	cut_oei_stereo_44KHz.wav
4	119	1	1	1	C	2	1	912	1	Ⴐ	cut_j_stereo_44KHz.wav
4	120	3	3	2	I	1	0	919	0	Ⴒ	cut_ui_stereo_44KHz.wav
4	121	1	1	1	C	1	0	1199	0	Ⴐ	cut_j_stereo_44KHz.wav
4	122	2	2	1	C	2	1	728	1	Ⴕ	cut_s_stereo_44KHz.wav
4	123	4	4	2	I	2	0	1077	0	Ⴔ	cut_oei_stereo_44KHz.wav
4	124	3	3	2	I	1	0	847	0	Ⴒ	cut_ui_stereo_44KHz.wav
4	125	1	2	0	C	2	0	1348	0	Ⴐ	cut_s_stereo_44KHz.wav
4	126	2	1	0	C	1	1	681	1	Ⴕ	cut_j_stereo_44KHz.wav
4	127	4	3	2	I	2	0	1314	0	Ⴔ	cut_ui_stereo_44KHz.wav
4	128	3	4	2	I	1	0	960	0	Ⴒ	cut_oei_stereo_44KHz.wav
4	129	1	2	0	C	1	1	1220	1	Ⴐ	cut_s_stereo_44KHz.wav
4	130	2	2	1	C	2	1	854	1	Ⴕ	cut_s_stereo_44KHz.wav
4	131	3	4	2	I	2	0	1426	0	Ⴒ	cut_oei_stereo_44KHz.wav
4	132	4	3	2	I	1	0	911	0	Ⴔ	cut_ui_stereo_44KHz.wav
4	133	3	3	2	I	1	0	855	0	Ⴒ	cut_ui_stereo_44KHz.wav
4	134	1	1	1	C	1	0	1479	0	Ⴐ	cut_j_stereo_44KHz.wav
4	135	4	4	2	I	1	0	1369	1	Ⴔ	cut_oei_stereo_44KHz.wav
4	136	2	1	0	C	1	1	1156	1	Ⴕ	cut_j_stereo_44KHz.wav
4	137	3	3	2	I	1	0	1225	0	Ⴒ	cut_ui_stereo_44KHz.wav
4	138	4	4	2	I	1	0	1122	0	Ⴔ	cut_oei_stereo_44KHz.wav
4	139	1	2	0	C	2	0	1552	0	Ⴐ	cut_s_stereo_44KHz.wav
4	140	2	2	1	C	1	0	951	0	Ⴕ	cut_s_stereo_44KHz.wav
4	141	3	4	2	I	2	0	1129	1	Ⴒ	cut_oei_stereo_44KHz.wav
4	142	2	1	0	C	1	1	1347	1	Ⴕ	cut_j_stereo_44KHz.wav
4	143	4	3	2	I	2	0	1455	0	Ⴔ	cut_ui_stereo_44KHz.wav
4	144	1	1	1	C	1	0	1107	0	Ⴐ	cut_j_stereo_44KHz.wav
4	145	3	4	2	I	2	0	1141	1	Ⴒ	cut_oei_stereo_44KHz.wav
4	146	1	2	0	C	1	1	1016	1	Ⴐ	cut_s_stereo_44KHz.wav
4	147	2	1	0	C	1	1	929	1	Ⴕ	cut_j_stereo_44KHz.wav
4	148	4	4	2	I	1	0	1089	0	Ⴔ	cut_oei_stereo_44KHz.wav
4	149	3	3	2	I	1	0	1285	1	Ⴒ	cut_ui_stereo_44KHz.wav
4	150	4	3	2	I	2	0	1150	1	Ⴔ	cut_ui_stereo_44KHz.wav
4	151	1	1	1	C	1	0	1059	0	Ⴐ	cut_j_stereo_44KHz.wav
4	152	2	2	1	C	2	1	938	1	Ⴕ	cut_s_stereo_44KHz.wav
4	153	3	4	2	I	2	0	1227	0	Ⴒ	cut_oei_stereo_44KHz.wav
4	154	2	1	0	C	1	1	1148	1	Ⴕ	cut_j_stereo_44KHz.wav
4	155	4	3	2	I	1	0	1286	1	Ⴔ	cut_ui_stereo_44KHz.wav
4	156	1	2	0	C	1	1	1272	1	Ⴐ	cut_s_stereo_44KHz.wav
4	157	2	2	1	C	2	1	1574	1	Ⴕ	cut_s_stereo_44KHz.wav
4	158	1	1	1	C	1	0	1153	0	Ⴐ	cut_j_stereo_44KHz.wav
4	159	3	3	2	I	2	0	1931	0	Ⴒ	cut_ui_stereo_44KHz.wav
4	160	4	4	2	I	1	0	751	1	Ⴔ	cut_oei_stereo_44KHz.wav
4	161	1	2	0	C	1	1	909	1	Ⴐ	cut_s_stereo_44KHz.wav
4	162	3	4	2	I	2	0	1080	0	Ⴒ	cut_oei_stereo_44KHz.wav
4	163	2	2	1	C	1	0	1241	0	Ⴕ	cut_s_stereo_44KHz.wav
4	164	4	3	2	I	1	0	1249	0	Ⴔ	cut_ui_stereo_44KHz.wav
4	165	3	3	2	I	1	0	1137	1	Ⴒ	cut_ui_stereo_44KHz.wav
4	166	2	1	0	C	1	1	1526	1	Ⴕ	cut_j_stereo_44KHz.wav
4	167	1	1	1	C	2	1	841	1	Ⴐ	cut_j_stereo_44KHz.wav
4	168	4	4	2	I	1	0	1037	0	Ⴔ	cut_oei_stereo_44KHz.wav
4	169	2	1	0	C	1	1	1323	1	Ⴕ	cut_j_stereo_44KHz.wav
4	170	1	1	1	C	2	1	1489	1	Ⴐ	cut_j_stereo_44KHz.wav
4	171	3	4	2	I	1	0	1223	1	Ⴒ	cut_oei_stereo_44KHz.wav
4	172	4	3	2	I	1	0	1438	0	Ⴔ	cut_ui_stereo_44KHz.wav
4	173	2	2	1	C	2	1	1559	1	Ⴕ	cut_s_stereo_44KHz.wav
4	174	4	4	2	I	1	0	1441	0	Ⴔ	cut_oei_stereo_44KHz.wav
4	175	1	2	0	C	1	1	1166	1	Ⴐ	cut_s_stereo_44KHz.wav
4	176	3	3	2	I	1	0	755	1	Ⴒ	cut_ui_stereo_44KHz.wav
4	177	2	1	0	C	1	1	751	1	Ⴕ	cut_j_stereo_44KHz.wav
4	178	3	4	2	I	2	0	1548	0	Ⴒ	cut_oei_stereo_44KHz.wav
4	179	4	3	2	I	1	0	1509	0	Ⴔ	cut_ui_stereo_44KHz.wav
4	180	1	2	0	C	1	1	1039	1	Ⴐ	cut_s_stereo_44KHz.wav
4	181	2	2	1	C	2	1	925	1	Ⴕ	cut_s_stereo_44KHz.wav
4	182	3	3	2	I	1	0	1060	0	Ⴒ	cut_ui_stereo_44KHz.wav
4	183	4	4	2	I	2	0	1414	0	Ⴔ	cut_oei_stereo_44KHz.wav
4	184	1	1	1	C	2	1	1055	1	Ⴐ	cut_j_stereo_44KHz.wav
4	185	2	2	1	C	2	1	1157	1	Ⴕ	cut_s_stereo_44KHz.wav
4	186	3	4	2	I	1	0	1501	0	Ⴒ	cut_oei_stereo_44KHz.wav
4	187	4	4	2	I	2	0	931	0	Ⴔ	cut_oei_stereo_44KHz.wav
4	188	1	2	0	C	1	1	1511	1	Ⴐ	cut_s_stereo_44KHz.wav
4	189	2	1	0	C	1	1	1301	1	Ⴕ	cut_j_stereo_44KHz.wav
4	190	4	3	2	I	2	0	1417	0	Ⴔ	cut_ui_stereo_44KHz.wav
4	191	3	3	2	I	2	0	1974	0	Ⴒ	cut_ui_stereo_44KHz.wav
4	192	1	1	1	C	2	1	1824	1	Ⴐ	cut_j_stereo_44KHz.wav
4	193	2	1	0	C	1	1	785	1	Ⴕ	cut_j_stereo_44KHz.wav
4	194	4	4	2	I	1	0	882	0	Ⴔ	cut_oei_stereo_44KHz.wav
4	195	3	3	2	I	1	0	677	1	Ⴒ	cut_ui_stereo_44KHz.wav
4	196	1	1	1	C	2	1	1193	1	Ⴐ	cut_j_stereo_44KHz.wav
4	197	3	4	2	I	1	0	1619	0	Ⴒ	cut_oei_stereo_44KHz.wav
4	198	4	3	2	I	0	0	0	0	Ⴔ	cut_ui_stereo_44KHz.wav
4	199	2	2	1	C	2	1	1116	1	Ⴕ	cut_s_stereo_44KHz.wav
4	200	1	2	0	C	1	1	946	1	Ⴐ	cut_s_stereo_44KHz.wav
