block	trial	Vstim	Astim	match	C/I	resp	result	RT	fb	V-file	A-file
RL

0	1	1	1	1	C	1	1	1303	1	poli_8sides 22_whiteLine3.jpg	Practice2_b27_cut2_stereo_44KHz.wav
0	2	1	2	0	C	1	0	658	0	poli_8sides 22_whiteLine3.jpg	Practice1_b27_cut1_stereo_44KHz.wav
0	3	2	4	0	C	2	1	1065	1	poli_8sides 23_whiteLine3.jpg	Practice3_b26_cut1_stereo_44KHz.wav
0	4	2	3	1	C	2	0	870	0	poli_8sides 23_whiteLine3.jpg	Practice4_b26_stereo_44KHz.wav
0	5	1	1	1	C	1	1	726	1	poli_8sides 22_whiteLine3.jpg	Practice2_b27_cut2_stereo_44KHz.wav
0	6	2	4	0	C	1	0	913	0	poli_8sides 23_whiteLine3.jpg	Practice3_b26_cut1_stereo_44KHz.wav
0	7	1	2	0	C	2	1	800	1	poli_8sides 22_whiteLine3.jpg	Practice1_b27_cut1_stereo_44KHz.wav
0	8	2	3	1	C	1	1	1026	1	poli_8sides 23_whiteLine3.jpg	Practice4_b26_stereo_44KHz.wav
0	9	2	3	1	C	2	0	1044	0	poli_8sides 23_whiteLine3.jpg	Practice4_b26_stereo_44KHz.wav
0	10	2	4	0	C	2	1	1065	1	poli_8sides 23_whiteLine3.jpg	Practice3_b26_cut1_stereo_44KHz.wav
0	11	1	2	0	C	1	0	844	0	poli_8sides 22_whiteLine3.jpg	Practice1_b27_cut1_stereo_44KHz.wav
0	12	1	1	1	C	1	1	817	1	poli_8sides 22_whiteLine3.jpg	Practice2_b27_cut2_stereo_44KHz.wav
0	13	1	1	1	C	1	1	910	1	poli_8sides 22_whiteLine3.jpg	Practice2_b27_cut2_stereo_44KHz.wav
0	14	2	4	0	C	2	1	941	1	poli_8sides 23_whiteLine3.jpg	Practice3_b26_cut1_stereo_44KHz.wav
0	15	1	2	0	C	2	1	981	1	poli_8sides 22_whiteLine3.jpg	Practice1_b27_cut1_stereo_44KHz.wav
0	16	2	3	1	C	1	1	882	1	poli_8sides 23_whiteLine3.jpg	Practice4_b26_stereo_44KHz.wav
0	17	2	3	1	C	1	1	743	1	poli_8sides 23_whiteLine3.jpg	Practice4_b26_stereo_44KHz.wav
0	18	1	2	0	C	2	1	819	1	poli_8sides 22_whiteLine3.jpg	Practice1_b27_cut1_stereo_44KHz.wav
0	19	1	1	1	C	1	1	973	1	poli_8sides 22_whiteLine3.jpg	Practice2_b27_cut2_stereo_44KHz.wav
0	20	2	4	0	C	2	1	802	1	poli_8sides 23_whiteLine3.jpg	Practice3_b26_cut1_stereo_44KHz.wav
0	21	2	4	0	C	2	1	802	1	poli_8sides 23_whiteLine3.jpg	Practice3_b26_cut1_stereo_44KHz.wav
0	22	2	3	1	C	1	1	937	1	poli_8sides 23_whiteLine3.jpg	Practice4_b26_stereo_44KHz.wav
0	23	1	2	0	C	2	1	684	1	poli_8sides 22_whiteLine3.jpg	Practice1_b27_cut1_stereo_44KHz.wav
0	24	1	1	1	C	1	1	726	1	poli_8sides 22_whiteLine3.jpg	Practice2_b27_cut2_stereo_44KHz.wav
0	25	1	1	1	C	1	1	947	1	poli_8sides 22_whiteLine3.jpg	Practice2_b27_cut2_stereo_44KHz.wav
0	26	2	3	1	C	2	0	656	0	poli_8sides 23_whiteLine3.jpg	Practice4_b26_stereo_44KHz.wav
0	27	1	2	0	C	2	1	1108	1	poli_8sides 22_whiteLine3.jpg	Practice1_b27_cut1_stereo_44KHz.wav
0	28	2	4	0	C	1	0	735	0	poli_8sides 23_whiteLine3.jpg	Practice3_b26_cut1_stereo_44KHz.wav
0	29	2	3	1	C	1	1	780	1	poli_8sides 23_whiteLine3.jpg	Practice4_b26_stereo_44KHz.wav
0	30	1	2	0	C	2	1	812	1	poli_8sides 22_whiteLine3.jpg	Practice1_b27_cut1_stereo_44KHz.wav
avg_resp = 898
1	1	2	1	0	C	2	1	1115	1	poli_8sides 13_whiteLine3.jpg	MediumLong_e19_stereo_44KHz.wav
1	2	1	1	1	C	1	1	607	1	poli_8sides 8_whiteLine3.jpg	MediumLong_e19_stereo_44KHz.wav
1	3	3	4	2	I	2	0	774	1	poli_8sides 12_whiteLine3.jpg	Medium_e26_stereo_44KHz.wav
1	4	4	3	2	I	1	0	910	1	poli_8sides 18_whiteLine3.jpg	Medium_e13_stereo_44KHz.wav
1	5	3	3	2	I	1	0	953	1	poli_8sides 12_whiteLine3.jpg	Medium_e13_stereo_44KHz.wav
1	6	4	4	2	I	2	0	739	0	poli_8sides 18_whiteLine3.jpg	Medium_e26_stereo_44KHz.wav
1	7	1	2	0	C	2	1	1006	1	poli_8sides 8_whiteLine3.jpg	MediumLong_e17_cut2_stereo_44KHz.wav
1	8	2	2	1	C	1	1	681	1	poli_8sides 13_whiteLine3.jpg	MediumLong_e17_cut2_stereo_44KHz.wav
1	9	1	1	1	C	1	1	994	1	poli_8sides 8_whiteLine3.jpg	MediumLong_e19_stereo_44KHz.wav
1	10	3	4	2	I	2	0	773	1	poli_8sides 12_whiteLine3.jpg	Medium_e26_stereo_44KHz.wav
1	11	4	4	2	I	1	0	729	1	poli_8sides 18_whiteLine3.jpg	Medium_e26_stereo_44KHz.wav
1	12	2	1	0	C	1	0	893	0	poli_8sides 13_whiteLine3.jpg	MediumLong_e19_stereo_44KHz.wav
1	13	1	2	0	C	2	1	905	1	poli_8sides 8_whiteLine3.jpg	MediumLong_e17_cut2_stereo_44KHz.wav
1	14	3	3	2	I	2	0	929	0	poli_8sides 12_whiteLine3.jpg	Medium_e13_stereo_44KHz.wav
1	15	2	2	1	C	1	1	712	1	poli_8sides 13_whiteLine3.jpg	MediumLong_e17_cut2_stereo_44KHz.wav
1	16	4	3	2	I	2	0	620	1	poli_8sides 18_whiteLine3.jpg	Medium_e13_stereo_44KHz.wav
1	17	3	3	2	I	1	0	825	1	poli_8sides 12_whiteLine3.jpg	Medium_e13_stereo_44KHz.wav
1	18	1	1	1	C	2	0	1088	0	poli_8sides 8_whiteLine3.jpg	MediumLong_e19_stereo_44KHz.wav
1	19	2	2	1	C	1	1	1052	1	poli_8sides 13_whiteLine3.jpg	MediumLong_e17_cut2_stereo_44KHz.wav
1	20	4	3	2	I	2	0	724	0	poli_8sides 18_whiteLine3.jpg	Medium_e13_stereo_44KHz.wav
1	21	1	2	0	C	2	1	867	1	poli_8sides 8_whiteLine3.jpg	MediumLong_e17_cut2_stereo_44KHz.wav
1	22	3	4	2	I	1	0	987	0	poli_8sides 12_whiteLine3.jpg	Medium_e26_stereo_44KHz.wav
1	23	2	1	0	C	2	1	792	1	poli_8sides 13_whiteLine3.jpg	MediumLong_e19_stereo_44KHz.wav
1	24	4	4	2	I	2	0	696	0	poli_8sides 18_whiteLine3.jpg	Medium_e26_stereo_44KHz.wav
1	25	2	1	0	C	2	1	769	1	poli_8sides 13_whiteLine3.jpg	MediumLong_e19_stereo_44KHz.wav
1	26	4	4	2	I	2	0	688	1	poli_8sides 18_whiteLine3.jpg	Medium_e26_stereo_44KHz.wav
1	27	3	3	2	I	1	0	850	0	poli_8sides 12_whiteLine3.jpg	Medium_e13_stereo_44KHz.wav
1	28	1	1	1	C	2	0	725	0	poli_8sides 8_whiteLine3.jpg	MediumLong_e19_stereo_44KHz.wav
1	29	4	3	2	I	2	0	640	1	poli_8sides 18_whiteLine3.jpg	Medium_e13_stereo_44KHz.wav
1	30	2	2	1	C	2	0	738	0	poli_8sides 13_whiteLine3.jpg	MediumLong_e17_cut2_stereo_44KHz.wav
1	31	3	4	2	I	2	0	784	0	poli_8sides 12_whiteLine3.jpg	Medium_e26_stereo_44KHz.wav
1	32	1	2	0	C	2	1	1060	1	poli_8sides 8_whiteLine3.jpg	MediumLong_e17_cut2_stereo_44KHz.wav
1	33	4	3	2	I	2	0	789	1	poli_8sides 18_whiteLine3.jpg	Medium_e13_stereo_44KHz.wav
1	34	3	3	2	I	1	0	708	0	poli_8sides 12_whiteLine3.jpg	Medium_e13_stereo_44KHz.wav
1	35	2	1	0	C	2	1	1088	1	poli_8sides 13_whiteLine3.jpg	MediumLong_e19_stereo_44KHz.wav
1	36	1	2	0	C	2	1	769	1	poli_8sides 8_whiteLine3.jpg	MediumLong_e17_cut2_stereo_44KHz.wav
1	37	2	2	1	C	1	1	577	1	poli_8sides 13_whiteLine3.jpg	MediumLong_e17_cut2_stereo_44KHz.wav
1	38	4	4	2	I	2	0	893	0	poli_8sides 18_whiteLine3.jpg	Medium_e26_stereo_44KHz.wav
1	39	3	4	2	I	2	0	994	1	poli_8sides 12_whiteLine3.jpg	Medium_e26_stereo_44KHz.wav
1	40	1	1	1	C	2	0	1519	0	poli_8sides 8_whiteLine3.jpg	MediumLong_e19_stereo_44KHz.wav
1	41	2	2	1	C	2	0	1026	0	poli_8sides 13_whiteLine3.jpg	MediumLong_e17_cut2_stereo_44KHz.wav
1	42	3	4	2	I	2	0	909	1	poli_8sides 12_whiteLine3.jpg	Medium_e26_stereo_44KHz.wav
1	43	4	4	2	I	1	0	736	0	poli_8sides 18_whiteLine3.jpg	Medium_e26_stereo_44KHz.wav
1	44	1	1	1	C	2	0	981	0	poli_8sides 8_whiteLine3.jpg	MediumLong_e19_stereo_44KHz.wav
1	45	4	3	2	I	1	0	796	1	poli_8sides 18_whiteLine3.jpg	Medium_e13_stereo_44KHz.wav
1	46	3	3	2	I	2	0	841	1	poli_8sides 12_whiteLine3.jpg	Medium_e13_stereo_44KHz.wav
1	47	1	2	0	C	2	1	838	1	poli_8sides 8_whiteLine3.jpg	MediumLong_e17_cut2_stereo_44KHz.wav
1	48	2	1	0	C	1	0	1014	0	poli_8sides 13_whiteLine3.jpg	MediumLong_e19_stereo_44KHz.wav
1	49	3	3	2	I	2	0	908	1	poli_8sides 12_whiteLine3.jpg	Medium_e13_stereo_44KHz.wav
1	50	4	3	2	I	2	0	823	1	poli_8sides 18_whiteLine3.jpg	Medium_e13_stereo_44KHz.wav
1	51	1	2	0	C	1	0	846	0	poli_8sides 8_whiteLine3.jpg	MediumLong_e17_cut2_stereo_44KHz.wav
1	52	2	1	0	C	1	0	1179	0	poli_8sides 13_whiteLine3.jpg	MediumLong_e19_stereo_44KHz.wav
1	53	3	4	2	I	1	0	994	1	poli_8sides 12_whiteLine3.jpg	Medium_e26_stereo_44KHz.wav
1	54	4	4	2	I	1	0	887	1	poli_8sides 18_whiteLine3.jpg	Medium_e26_stereo_44KHz.wav
1	55	2	2	1	C	2	0	689	0	poli_8sides 13_whiteLine3.jpg	MediumLong_e17_cut2_stereo_44KHz.wav
1	56	1	1	1	C	2	0	863	0	poli_8sides 8_whiteLine3.jpg	MediumLong_e19_stereo_44KHz.wav
1	57	2	2	1	C	2	0	886	0	poli_8sides 13_whiteLine3.jpg	MediumLong_e17_cut2_stereo_44KHz.wav
1	58	4	4	2	I	1	0	741	1	poli_8sides 18_whiteLine3.jpg	Medium_e26_stereo_44KHz.wav
1	59	1	2	0	C	1	0	1023	0	poli_8sides 8_whiteLine3.jpg	MediumLong_e17_cut2_stereo_44KHz.wav
1	60	3	4	2	I	2	0	1136	1	poli_8sides 12_whiteLine3.jpg	Medium_e26_stereo_44KHz.wav
1	61	2	1	0	C	1	0	1035	0	poli_8sides 13_whiteLine3.jpg	MediumLong_e19_stereo_44KHz.wav
1	62	4	3	2	I	2	0	945	1	poli_8sides 18_whiteLine3.jpg	Medium_e13_stereo_44KHz.wav
1	63	3	3	2	I	2	0	607	0	poli_8sides 12_whiteLine3.jpg	Medium_e13_stereo_44KHz.wav
1	64	1	1	1	C	1	1	912	1	poli_8sides 8_whiteLine3.jpg	MediumLong_e19_stereo_44KHz.wav
1	65	3	4	2	I	2	0	1016	1	poli_8sides 12_whiteLine3.jpg	Medium_e26_stereo_44KHz.wav
1	66	2	2	1	C	2	0	1162	0	poli_8sides 13_whiteLine3.jpg	MediumLong_e17_cut2_stereo_44KHz.wav
1	67	1	2	0	C	2	1	799	1	poli_8sides 8_whiteLine3.jpg	MediumLong_e17_cut2_stereo_44KHz.wav
1	68	4	3	2	I	2	0	1070	0	poli_8sides 18_whiteLine3.jpg	Medium_e13_stereo_44KHz.wav
1	69	2	1	0	C	1	0	963	0	poli_8sides 13_whiteLine3.jpg	MediumLong_e19_stereo_44KHz.wav
1	70	1	1	1	C	2	0	908	0	poli_8sides 8_whiteLine3.jpg	MediumLong_e19_stereo_44KHz.wav
1	71	3	3	2	I	2	0	958	0	poli_8sides 12_whiteLine3.jpg	Medium_e13_stereo_44KHz.wav
1	72	4	4	2	I	1	0	868	0	poli_8sides 18_whiteLine3.jpg	Medium_e26_stereo_44KHz.wav
1	73	2	2	1	C	2	0	1211	0	poli_8sides 13_whiteLine3.jpg	MediumLong_e17_cut2_stereo_44KHz.wav
1	74	4	4	2	I	2	0	722	1	poli_8sides 18_whiteLine3.jpg	Medium_e26_stereo_44KHz.wav
1	75	1	2	0	C	2	1	1029	1	poli_8sides 8_whiteLine3.jpg	MediumLong_e17_cut2_stereo_44KHz.wav
1	76	3	4	2	I	1	0	1041	0	poli_8sides 12_whiteLine3.jpg	Medium_e26_stereo_44KHz.wav
1	77	1	1	1	C	2	0	1537	0	poli_8sides 8_whiteLine3.jpg	MediumLong_e19_stereo_44KHz.wav
1	78	4	3	2	I	2	0	1642	0	poli_8sides 18_whiteLine3.jpg	Medium_e13_stereo_44KHz.wav
1	79	2	1	0	C	2	1	1556	1	poli_8sides 13_whiteLine3.jpg	MediumLong_e19_stereo_44KHz.wav
1	80	3	3	2	I	1	0	1220	1	poli_8sides 12_whiteLine3.jpg	Medium_e13_stereo_44KHz.wav
1	81	4	3	2	I	2	0	1449	0	poli_8sides 18_whiteLine3.jpg	Medium_e13_stereo_44KHz.wav
1	82	3	4	2	I	2	0	1650	1	poli_8sides 12_whiteLine3.jpg	Medium_e26_stereo_44KHz.wav
1	83	1	2	0	C	2	1	1290	1	poli_8sides 8_whiteLine3.jpg	MediumLong_e17_cut2_stereo_44KHz.wav
1	84	2	2	1	C	1	1	830	1	poli_8sides 13_whiteLine3.jpg	MediumLong_e17_cut2_stereo_44KHz.wav
1	85	1	1	1	C	1	1	1120	1	poli_8sides 8_whiteLine3.jpg	MediumLong_e19_stereo_44KHz.wav
1	86	2	1	0	C	2	1	1062	1	poli_8sides 13_whiteLine3.jpg	MediumLong_e19_stereo_44KHz.wav
1	87	3	3	2	I	1	0	1302	1	poli_8sides 12_whiteLine3.jpg	Medium_e13_stereo_44KHz.wav
1	88	4	4	2	I	1	0	978	1	poli_8sides 18_whiteLine3.jpg	Medium_e26_stereo_44KHz.wav
1	89	3	3	2	I	1	0	1037	0	poli_8sides 12_whiteLine3.jpg	Medium_e13_stereo_44KHz.wav
1	90	2	1	0	C	1	0	1603	0	poli_8sides 13_whiteLine3.jpg	MediumLong_e19_stereo_44KHz.wav
1	91	1	2	0	C	2	1	1017	1	poli_8sides 8_whiteLine3.jpg	MediumLong_e17_cut2_stereo_44KHz.wav
1	92	4	3	2	I	1	0	1436	1	poli_8sides 18_whiteLine3.jpg	Medium_e13_stereo_44KHz.wav
1	93	2	2	1	C	1	1	1711	1	poli_8sides 13_whiteLine3.jpg	MediumLong_e17_cut2_stereo_44KHz.wav
1	94	3	4	2	I	2	0	825	0	poli_8sides 12_whiteLine3.jpg	Medium_e26_stereo_44KHz.wav
1	95	1	1	1	C	1	1	1098	1	poli_8sides 8_whiteLine3.jpg	MediumLong_e19_stereo_44KHz.wav
1	96	4	4	2	I	2	0	1247	1	poli_8sides 18_whiteLine3.jpg	Medium_e26_stereo_44KHz.wav
1	97	3	4	2	I	2	0	1240	0	poli_8sides 12_whiteLine3.jpg	Medium_e26_stereo_44KHz.wav
1	98	4	4	2	I	2	0	905	1	poli_8sides 18_whiteLine3.jpg	Medium_e26_stereo_44KHz.wav
1	99	1	2	0	C	2	1	1015	1	poli_8sides 8_whiteLine3.jpg	MediumLong_e17_cut2_stereo_44KHz.wav
1	100	2	2	1	C	1	1	770	1	poli_8sides 13_whiteLine3.jpg	MediumLong_e17_cut2_stereo_44KHz.wav
1	101	1	1	1	C	1	1	1324	1	poli_8sides 8_whiteLine3.jpg	MediumLong_e19_stereo_44KHz.wav
1	102	4	3	2	I	1	0	1111	0	poli_8sides 18_whiteLine3.jpg	Medium_e13_stereo_44KHz.wav
1	103	3	3	2	I	2	0	1509	1	poli_8sides 12_whiteLine3.jpg	Medium_e13_stereo_44KHz.wav
1	104	2	1	0	C	1	0	1761	0	poli_8sides 13_whiteLine3.jpg	MediumLong_e19_stereo_44KHz.wav
1	105	4	3	2	I	2	0	854	0	poli_8sides 18_whiteLine3.jpg	Medium_e13_stereo_44KHz.wav
1	106	1	1	1	C	2	0	1961	0	poli_8sides 8_whiteLine3.jpg	MediumLong_e19_stereo_44KHz.wav
1	107	2	2	1	C	0	0	0	0	poli_8sides 13_whiteLine3.jpg	MediumLong_e17_cut2_stereo_44KHz.wav
1	108	3	4	2	I	2	0	961	1	poli_8sides 12_whiteLine3.jpg	Medium_e26_stereo_44KHz.wav
1	109	4	4	2	I	1	0	1000	0	poli_8sides 18_whiteLine3.jpg	Medium_e26_stereo_44KHz.wav
1	110	3	3	2	I	1	0	1519	0	poli_8sides 12_whiteLine3.jpg	Medium_e13_stereo_44KHz.wav
1	111	1	2	0	C	2	1	1522	1	poli_8sides 8_whiteLine3.jpg	MediumLong_e17_cut2_stereo_44KHz.wav
1	112	2	1	0	C	1	0	1563	0	poli_8sides 13_whiteLine3.jpg	MediumLong_e19_stereo_44KHz.wav
1	113	1	2	0	C	2	1	1713	1	poli_8sides 8_whiteLine3.jpg	MediumLong_e17_cut2_stereo_44KHz.wav
1	114	4	3	2	I	1	0	1498	1	poli_8sides 18_whiteLine3.jpg	Medium_e13_stereo_44KHz.wav
1	115	3	4	2	I	2	0	1071	0	poli_8sides 12_whiteLine3.jpg	Medium_e26_stereo_44KHz.wav
1	116	2	1	0	C	2	1	1892	1	poli_8sides 13_whiteLine3.jpg	MediumLong_e19_stereo_44KHz.wav
1	117	4	4	2	I	2	0	1165	0	poli_8sides 18_whiteLine3.jpg	Medium_e26_stereo_44KHz.wav
1	118	3	3	2	I	1	0	1283	0	poli_8sides 12_whiteLine3.jpg	Medium_e13_stereo_44KHz.wav
1	119	2	2	1	C	2	0	1724	0	poli_8sides 13_whiteLine3.jpg	MediumLong_e17_cut2_stereo_44KHz.wav
1	120	1	1	1	C	1	1	1190	1	poli_8sides 8_whiteLine3.jpg	MediumLong_e19_stereo_44KHz.wav
1	121	4	4	2	I	2	0	927	1	poli_8sides 18_whiteLine3.jpg	Medium_e26_stereo_44KHz.wav
1	122	1	1	1	C	2	0	1258	0	poli_8sides 8_whiteLine3.jpg	MediumLong_e19_stereo_44KHz.wav
1	123	3	4	2	I	1	0	1418	0	poli_8sides 12_whiteLine3.jpg	Medium_e26_stereo_44KHz.wav
1	124	2	2	1	C	0	0	0	0	poli_8sides 13_whiteLine3.jpg	MediumLong_e17_cut2_stereo_44KHz.wav
1	125	1	2	0	C	2	1	908	1	poli_8sides 8_whiteLine3.jpg	MediumLong_e17_cut2_stereo_44KHz.wav
1	126	2	1	0	C	1	0	1031	0	poli_8sides 13_whiteLine3.jpg	MediumLong_e19_stereo_44KHz.wav
1	127	4	3	2	I	2	0	1091	1	poli_8sides 18_whiteLine3.jpg	Medium_e13_stereo_44KHz.wav
1	128	3	3	2	I	2	0	621	1	poli_8sides 12_whiteLine3.jpg	Medium_e13_stereo_44KHz.wav
1	129	1	1	1	C	2	0	1090	0	poli_8sides 8_whiteLine3.jpg	MediumLong_e19_stereo_44KHz.wav
1	130	4	4	2	I	2	0	1023	1	poli_8sides 18_whiteLine3.jpg	Medium_e26_stereo_44KHz.wav
1	131	3	3	2	I	2	0	1369	0	poli_8sides 12_whiteLine3.jpg	Medium_e13_stereo_44KHz.wav
1	132	2	2	1	C	2	0	1415	0	poli_8sides 13_whiteLine3.jpg	MediumLong_e17_cut2_stereo_44KHz.wav
1	133	3	4	2	I	1	0	1058	1	poli_8sides 12_whiteLine3.jpg	Medium_e26_stereo_44KHz.wav
1	134	4	3	2	I	2	0	1280	0	poli_8sides 18_whiteLine3.jpg	Medium_e13_stereo_44KHz.wav
1	135	2	1	0	C	1	0	890	0	poli_8sides 13_whiteLine3.jpg	MediumLong_e19_stereo_44KHz.wav
1	136	1	2	0	C	1	0	1599	0	poli_8sides 8_whiteLine3.jpg	MediumLong_e17_cut2_stereo_44KHz.wav
1	137	3	4	2	I	1	0	1168	0	poli_8sides 12_whiteLine3.jpg	Medium_e26_stereo_44KHz.wav
1	138	4	4	2	I	2	0	966	1	poli_8sides 18_whiteLine3.jpg	Medium_e26_stereo_44KHz.wav
1	139	2	2	1	C	1	1	993	1	poli_8sides 13_whiteLine3.jpg	MediumLong_e17_cut2_stereo_44KHz.wav
1	140	1	2	0	C	1	0	1316	0	poli_8sides 8_whiteLine3.jpg	MediumLong_e17_cut2_stereo_44KHz.wav
1	141	3	3	2	I	2	0	1613	1	poli_8sides 12_whiteLine3.jpg	Medium_e13_stereo_44KHz.wav
1	142	2	1	0	C	1	0	894	0	poli_8sides 13_whiteLine3.jpg	MediumLong_e19_stereo_44KHz.wav
1	143	4	3	2	I	2	0	662	0	poli_8sides 18_whiteLine3.jpg	Medium_e13_stereo_44KHz.wav
1	144	1	1	1	C	2	0	1642	0	poli_8sides 8_whiteLine3.jpg	MediumLong_e19_stereo_44KHz.wav
1	145	4	4	2	I	2	0	1373	0	poli_8sides 18_whiteLine3.jpg	Medium_e26_stereo_44KHz.wav
1	146	3	3	2	I	2	0	1285	1	poli_8sides 12_whiteLine3.jpg	Medium_e13_stereo_44KHz.wav
1	147	1	2	0	C	2	1	872	1	poli_8sides 8_whiteLine3.jpg	MediumLong_e17_cut2_stereo_44KHz.wav
1	148	2	1	0	C	2	1	1605	1	poli_8sides 13_whiteLine3.jpg	MediumLong_e19_stereo_44KHz.wav
1	149	1	1	1	C	1	1	970	1	poli_8sides 8_whiteLine3.jpg	MediumLong_e19_stereo_44KHz.wav
1	150	4	3	2	I	2	0	1266	1	poli_8sides 18_whiteLine3.jpg	Medium_e13_stereo_44KHz.wav
1	151	3	4	2	I	2	0	731	0	poli_8sides 12_whiteLine3.jpg	Medium_e26_stereo_44KHz.wav
1	152	2	2	1	C	0	0	0	0	poli_8sides 13_whiteLine3.jpg	MediumLong_e17_cut2_stereo_44KHz.wav
1	153	4	4	2	I	2	0	1193	0	poli_8sides 18_whiteLine3.jpg	Medium_e26_stereo_44KHz.wav
1	154	1	2	0	C	1	0	1116	0	poli_8sides 8_whiteLine3.jpg	MediumLong_e17_cut2_stereo_44KHz.wav
1	155	2	2	1	C	2	0	851	0	poli_8sides 13_whiteLine3.jpg	MediumLong_e17_cut2_stereo_44KHz.wav
1	156	3	3	2	I	2	0	1024	0	poli_8sides 12_whiteLine3.jpg	Medium_e13_stereo_44KHz.wav
1	157	1	1	1	C	2	0	890	0	poli_8sides 8_whiteLine3.jpg	MediumLong_e19_stereo_44KHz.wav
1	158	2	1	0	C	2	1	1205	1	poli_8sides 13_whiteLine3.jpg	MediumLong_e19_stereo_44KHz.wav
1	159	4	3	2	I	1	0	895	0	poli_8sides 18_whiteLine3.jpg	Medium_e13_stereo_44KHz.wav
1	160	3	4	2	I	2	0	1071	0	poli_8sides 12_whiteLine3.jpg	Medium_e26_stereo_44KHz.wav
1	161	1	1	1	C	1	1	1267	1	poli_8sides 8_whiteLine3.jpg	MediumLong_e19_stereo_44KHz.wav
1	162	4	3	2	I	2	0	1336	0	poli_8sides 18_whiteLine3.jpg	Medium_e13_stereo_44KHz.wav
1	163	2	2	1	C	2	0	910	0	poli_8sides 13_whiteLine3.jpg	MediumLong_e17_cut2_stereo_44KHz.wav
1	164	3	4	2	I	1	0	1504	0	poli_8sides 12_whiteLine3.jpg	Medium_e26_stereo_44KHz.wav
1	165	2	1	0	C	2	1	1481	1	poli_8sides 13_whiteLine3.jpg	MediumLong_e19_stereo_44KHz.wav
1	166	1	2	0	C	1	0	1098	0	poli_8sides 8_whiteLine3.jpg	MediumLong_e17_cut2_stereo_44KHz.wav
1	167	4	4	2	I	2	0	1201	1	poli_8sides 18_whiteLine3.jpg	Medium_e26_stereo_44KHz.wav
1	168	3	3	2	I	2	0	1157	1	poli_8sides 12_whiteLine3.jpg	Medium_e13_stereo_44KHz.wav
1	169	4	3	2	I	2	0	1125	0	poli_8sides 18_whiteLine3.jpg	Medium_e13_stereo_44KHz.wav
1	170	1	1	1	C	2	0	1336	0	poli_8sides 8_whiteLine3.jpg	MediumLong_e19_stereo_44KHz.wav
1	171	3	3	2	I	2	0	1603	0	poli_8sides 12_whiteLine3.jpg	Medium_e13_stereo_44KHz.wav
1	172	2	2	1	C	0	0	0	0	poli_8sides 13_whiteLine3.jpg	MediumLong_e17_cut2_stereo_44KHz.wav
1	173	3	4	2	I	2	0	1436	0	poli_8sides 12_whiteLine3.jpg	Medium_e26_stereo_44KHz.wav
1	174	2	1	0	C	1	0	869	0	poli_8sides 13_whiteLine3.jpg	MediumLong_e19_stereo_44KHz.wav
1	175	1	2	0	C	2	1	996	1	poli_8sides 8_whiteLine3.jpg	MediumLong_e17_cut2_stereo_44KHz.wav
1	176	4	4	2	I	2	0	833	0	poli_8sides 18_whiteLine3.jpg	Medium_e26_stereo_44KHz.wav
1	177	3	4	2	I	2	0	684	1	poli_8sides 12_whiteLine3.jpg	Medium_e26_stereo_44KHz.wav
1	178	4	3	2	I	2	0	976	0	poli_8sides 18_whiteLine3.jpg	Medium_e13_stereo_44KHz.wav
1	179	2	2	1	C	2	0	1242	0	poli_8sides 13_whiteLine3.jpg	MediumLong_e17_cut2_stereo_44KHz.wav
1	180	1	1	1	C	2	0	975	0	poli_8sides 8_whiteLine3.jpg	MediumLong_e19_stereo_44KHz.wav
1	181	2	1	0	C	2	1	897	1	poli_8sides 13_whiteLine3.jpg	MediumLong_e19_stereo_44KHz.wav
1	182	3	3	2	I	2	0	1034	0	poli_8sides 12_whiteLine3.jpg	Medium_e13_stereo_44KHz.wav
1	183	4	4	2	I	1	0	1406	0	poli_8sides 18_whiteLine3.jpg	Medium_e26_stereo_44KHz.wav
1	184	1	2	0	C	2	1	797	1	poli_8sides 8_whiteLine3.jpg	MediumLong_e17_cut2_stereo_44KHz.wav
1	185	4	3	2	I	2	0	1403	1	poli_8sides 18_whiteLine3.jpg	Medium_e13_stereo_44KHz.wav
1	186	2	1	0	C	1	0	1685	0	poli_8sides 13_whiteLine3.jpg	MediumLong_e19_stereo_44KHz.wav
1	187	3	4	2	I	2	0	1318	1	poli_8sides 12_whiteLine3.jpg	Medium_e26_stereo_44KHz.wav
1	188	1	2	0	C	2	1	1649	1	poli_8sides 8_whiteLine3.jpg	MediumLong_e17_cut2_stereo_44KHz.wav
1	189	2	2	1	C	1	1	1093	1	poli_8sides 13_whiteLine3.jpg	MediumLong_e17_cut2_stereo_44KHz.wav
1	190	1	1	1	C	1	1	1348	1	poli_8sides 8_whiteLine3.jpg	MediumLong_e19_stereo_44KHz.wav
1	191	3	3	2	I	1	0	1068	1	poli_8sides 12_whiteLine3.jpg	Medium_e13_stereo_44KHz.wav
1	192	4	4	2	I	1	0	1517	0	poli_8sides 18_whiteLine3.jpg	Medium_e26_stereo_44KHz.wav
1	193	3	4	2	I	2	0	1066	1	poli_8sides 12_whiteLine3.jpg	Medium_e26_stereo_44KHz.wav
1	194	1	1	1	C	1	1	1389	1	poli_8sides 8_whiteLine3.jpg	MediumLong_e19_stereo_44KHz.wav
1	195	2	1	0	C	1	0	1534	0	poli_8sides 13_whiteLine3.jpg	MediumLong_e19_stereo_44KHz.wav
1	196	4	3	2	I	2	0	994	0	poli_8sides 18_whiteLine3.jpg	Medium_e13_stereo_44KHz.wav
1	197	3	3	2	I	1	0	1352	0	poli_8sides 12_whiteLine3.jpg	Medium_e13_stereo_44KHz.wav
1	198	2	2	1	C	1	1	1428	1	poli_8sides 13_whiteLine3.jpg	MediumLong_e17_cut2_stereo_44KHz.wav
1	199	4	4	2	I	1	0	1025	1	poli_8sides 18_whiteLine3.jpg	Medium_e26_stereo_44KHz.wav
1	200	1	2	0	C	2	1	1724	1	poli_8sides 8_whiteLine3.jpg	MediumLong_e17_cut2_stereo_44KHz.wav
2	1	2	1	0	C	2	1	1243	1	poli_8sides 4_whiteLine3.jpg	Short_b23_cut1_stereo_44KHz.wav
2	2	1	1	1	C	1	1	713	1	poli_8sides 1_whiteLine3.jpg	Short_b23_cut1_stereo_44KHz.wav
2	3	3	3	2	I	1	0	714	1	poli_8sides 15_whiteLine3.jpg	Short_b22_cut1_stereo_44KHz.wav
2	4	4	4	2	I	1	0	1089	1	poli_8sides 16_whiteLine3.jpg	Short_b09_cut1_stereo_44KHz.wav
2	5	3	4	2	I	1	0	1214	1	poli_8sides 15_whiteLine3.jpg	Short_b09_cut1_stereo_44KHz.wav
2	6	2	2	1	C	1	1	813	1	poli_8sides 4_whiteLine3.jpg	Short_b20_cut1_stereo_44KHz.wav
2	7	4	3	2	I	1	0	907	1	poli_8sides 16_whiteLine3.jpg	Short_b22_cut1_stereo_44KHz.wav
2	8	1	2	0	C	1	0	772	0	poli_8sides 1_whiteLine3.jpg	Short_b20_cut1_stereo_44KHz.wav
2	9	3	4	2	I	2	0	1088	1	poli_8sides 15_whiteLine3.jpg	Short_b09_cut1_stereo_44KHz.wav
2	10	4	3	2	I	1	0	1103	1	poli_8sides 16_whiteLine3.jpg	Short_b22_cut1_stereo_44KHz.wav
2	11	2	1	0	C	2	1	1016	1	poli_8sides 4_whiteLine3.jpg	Short_b23_cut1_stereo_44KHz.wav
2	12	1	2	0	C	1	0	1249	0	poli_8sides 1_whiteLine3.jpg	Short_b20_cut1_stereo_44KHz.wav
2	13	3	3	2	I	1	0	1265	1	poli_8sides 15_whiteLine3.jpg	Short_b22_cut1_stereo_44KHz.wav
2	14	1	1	1	C	2	0	1046	0	poli_8sides 1_whiteLine3.jpg	Short_b23_cut1_stereo_44KHz.wav
2	15	4	4	2	I	1	0	919	1	poli_8sides 16_whiteLine3.jpg	Short_b09_cut1_stereo_44KHz.wav
2	16	2	2	1	C	1	1	1038	1	poli_8sides 4_whiteLine3.jpg	Short_b20_cut1_stereo_44KHz.wav
2	17	3	3	2	I	1	0	1174	1	poli_8sides 15_whiteLine3.jpg	Short_b22_cut1_stereo_44KHz.wav
2	18	2	1	0	C	2	1	650	1	poli_8sides 4_whiteLine3.jpg	Short_b23_cut1_stereo_44KHz.wav
2	19	1	1	1	C	1	1	953	1	poli_8sides 1_whiteLine3.jpg	Short_b23_cut1_stereo_44KHz.wav
2	20	4	4	2	I	2	0	1429	1	poli_8sides 16_whiteLine3.jpg	Short_b09_cut1_stereo_44KHz.wav
2	21	3	4	2	I	1	0	726	1	poli_8sides 15_whiteLine3.jpg	Short_b09_cut1_stereo_44KHz.wav
2	22	4	3	2	I	1	0	997	0	poli_8sides 16_whiteLine3.jpg	Short_b22_cut1_stereo_44KHz.wav
2	23	2	2	1	C	2	0	1457	0	poli_8sides 4_whiteLine3.jpg	Short_b20_cut1_stereo_44KHz.wav
2	24	1	2	0	C	2	1	1705	1	poli_8sides 1_whiteLine3.jpg	Short_b20_cut1_stereo_44KHz.wav
2	25	3	4	2	I	2	0	1553	1	poli_8sides 15_whiteLine3.jpg	Short_b09_cut1_stereo_44KHz.wav
2	26	2	2	1	C	1	1	875	1	poli_8sides 4_whiteLine3.jpg	Short_b20_cut1_stereo_44KHz.wav
2	27	1	1	1	C	1	1	1093	1	poli_8sides 1_whiteLine3.jpg	Short_b23_cut1_stereo_44KHz.wav
2	28	4	4	2	I	1	0	1626	1	poli_8sides 16_whiteLine3.jpg	Short_b09_cut1_stereo_44KHz.wav
2	29	1	2	0	C	2	1	1054	1	poli_8sides 1_whiteLine3.jpg	Short_b20_cut1_stereo_44KHz.wav
2	30	3	3	2	I	2	0	1387	1	poli_8sides 15_whiteLine3.jpg	Short_b22_cut1_stereo_44KHz.wav
2	31	2	1	0	C	2	1	984	1	poli_8sides 4_whiteLine3.jpg	Short_b23_cut1_stereo_44KHz.wav
2	32	4	3	2	I	1	0	1252	0	poli_8sides 16_whiteLine3.jpg	Short_b22_cut1_stereo_44KHz.wav
2	33	1	1	1	C	2	0	978	0	poli_8sides 1_whiteLine3.jpg	Short_b23_cut1_stereo_44KHz.wav
2	34	2	1	0	C	1	0	1325	0	poli_8sides 4_whiteLine3.jpg	Short_b23_cut1_stereo_44KHz.wav
2	35	4	4	2	I	1	0	925	1	poli_8sides 16_whiteLine3.jpg	Short_b09_cut1_stereo_44KHz.wav
2	36	3	4	2	I	1	0	1801	1	poli_8sides 15_whiteLine3.jpg	Short_b09_cut1_stereo_44KHz.wav
2	37	2	2	1	C	2	0	954	0	poli_8sides 4_whiteLine3.jpg	Short_b20_cut1_stereo_44KHz.wav
2	38	4	3	2	I	2	0	1206	0	poli_8sides 16_whiteLine3.jpg	Short_b22_cut1_stereo_44KHz.wav
2	39	3	3	2	I	2	0	1339	0	poli_8sides 15_whiteLine3.jpg	Short_b22_cut1_stereo_44KHz.wav
2	40	1	2	0	C	1	0	1544	0	poli_8sides 1_whiteLine3.jpg	Short_b20_cut1_stereo_44KHz.wav
2	41	4	4	2	I	2	0	1540	0	poli_8sides 16_whiteLine3.jpg	Short_b09_cut1_stereo_44KHz.wav
2	42	3	4	2	I	2	0	1024	0	poli_8sides 15_whiteLine3.jpg	Short_b09_cut1_stereo_44KHz.wav
2	43	2	2	1	C	1	1	1143	1	poli_8sides 4_whiteLine3.jpg	Short_b20_cut1_stereo_44KHz.wav
2	44	1	1	1	C	2	0	1139	0	poli_8sides 1_whiteLine3.jpg	Short_b23_cut1_stereo_44KHz.wav
2	45	3	3	2	I	2	0	1183	0	poli_8sides 15_whiteLine3.jpg	Short_b22_cut1_stereo_44KHz.wav
2	46	4	3	2	I	1	0	1670	0	poli_8sides 16_whiteLine3.jpg	Short_b22_cut1_stereo_44KHz.wav
2	47	2	1	0	C	2	1	986	1	poli_8sides 4_whiteLine3.jpg	Short_b23_cut1_stereo_44KHz.wav
2	48	1	2	0	C	1	0	1278	0	poli_8sides 1_whiteLine3.jpg	Short_b20_cut1_stereo_44KHz.wav
2	49	3	4	2	I	1	0	1275	1	poli_8sides 15_whiteLine3.jpg	Short_b09_cut1_stereo_44KHz.wav
2	50	2	1	0	C	2	1	925	1	poli_8sides 4_whiteLine3.jpg	Short_b23_cut1_stereo_44KHz.wav
2	51	4	3	2	I	1	0	1220	0	poli_8sides 16_whiteLine3.jpg	Short_b22_cut1_stereo_44KHz.wav
2	52	1	2	0	C	2	1	1103	1	poli_8sides 1_whiteLine3.jpg	Short_b20_cut1_stereo_44KHz.wav
2	53	3	3	2	I	2	0	1319	0	poli_8sides 15_whiteLine3.jpg	Short_b22_cut1_stereo_44KHz.wav
2	54	2	2	1	C	2	0	1909	0	poli_8sides 4_whiteLine3.jpg	Short_b20_cut1_stereo_44KHz.wav
2	55	1	1	1	C	1	1	1257	1	poli_8sides 1_whiteLine3.jpg	Short_b23_cut1_stereo_44KHz.wav
2	56	4	4	2	I	2	0	1323	0	poli_8sides 16_whiteLine3.jpg	Short_b09_cut1_stereo_44KHz.wav
2	57	2	1	0	C	1	0	1151	0	poli_8sides 4_whiteLine3.jpg	Short_b23_cut1_stereo_44KHz.wav
2	58	3	3	2	I	2	0	1297	0	poli_8sides 15_whiteLine3.jpg	Short_b22_cut1_stereo_44KHz.wav
2	59	1	1	1	C	2	0	1294	0	poli_8sides 1_whiteLine3.jpg	Short_b23_cut1_stereo_44KHz.wav
2	60	4	4	2	I	2	0	1496	0	poli_8sides 16_whiteLine3.jpg	Short_b09_cut1_stereo_44KHz.wav
2	61	2	2	1	C	2	0	1437	0	poli_8sides 4_whiteLine3.jpg	Short_b20_cut1_stereo_44KHz.wav
2	62	3	4	2	I	2	0	1286	1	poli_8sides 15_whiteLine3.jpg	Short_b09_cut1_stereo_44KHz.wav
2	63	1	2	0	C	2	1	953	1	poli_8sides 1_whiteLine3.jpg	Short_b20_cut1_stereo_44KHz.wav
2	64	4	3	2	I	2	0	1354	0	poli_8sides 16_whiteLine3.jpg	Short_b22_cut1_stereo_44KHz.wav
2	65	2	1	0	C	2	1	974	1	poli_8sides 4_whiteLine3.jpg	Short_b23_cut1_stereo_44KHz.wav
2	66	4	3	2	I	2	0	1439	0	poli_8sides 16_whiteLine3.jpg	Short_b22_cut1_stereo_44KHz.wav
2	67	3	4	2	I	2	0	1012	1	poli_8sides 15_whiteLine3.jpg	Short_b09_cut1_stereo_44KHz.wav
2	68	1	2	0	C	2	1	1376	1	poli_8sides 1_whiteLine3.jpg	Short_b20_cut1_stereo_44KHz.wav
2	69	2	2	1	C	1	1	768	1	poli_8sides 4_whiteLine3.jpg	Short_b20_cut1_stereo_44KHz.wav
2	70	3	3	2	I	1	0	1555	1	poli_8sides 15_whiteLine3.jpg	Short_b22_cut1_stereo_44KHz.wav
2	71	4	4	2	I	1	0	1441	0	poli_8sides 16_whiteLine3.jpg	Short_b09_cut1_stereo_44KHz.wav
2	72	1	1	1	C	2	0	1358	0	poli_8sides 1_whiteLine3.jpg	Short_b23_cut1_stereo_44KHz.wav
2	73	4	4	2	I	2	0	1176	1	poli_8sides 16_whiteLine3.jpg	Short_b09_cut1_stereo_44KHz.wav
2	74	1	1	1	C	2	0	1374	0	poli_8sides 1_whiteLine3.jpg	Short_b23_cut1_stereo_44KHz.wav
2	75	2	2	1	C	1	1	1148	1	poli_8sides 4_whiteLine3.jpg	Short_b20_cut1_stereo_44KHz.wav
2	76	3	4	2	I	1	0	1404	0	poli_8sides 15_whiteLine3.jpg	Short_b09_cut1_stereo_44KHz.wav
2	77	4	3	2	I	1	0	1824	1	poli_8sides 16_whiteLine3.jpg	Short_b22_cut1_stereo_44KHz.wav
2	78	2	1	0	C	2	1	1016	1	poli_8sides 4_whiteLine3.jpg	Short_b23_cut1_stereo_44KHz.wav
2	79	3	3	2	I	2	0	1840	1	poli_8sides 15_whiteLine3.jpg	Short_b22_cut1_stereo_44KHz.wav
2	80	1	2	0	C	2	1	1294	1	poli_8sides 1_whiteLine3.jpg	Short_b20_cut1_stereo_44KHz.wav
2	81	2	2	1	C	1	1	1025	1	poli_8sides 4_whiteLine3.jpg	Short_b20_cut1_stereo_44KHz.wav
2	82	1	1	1	C	1	1	1078	1	poli_8sides 1_whiteLine3.jpg	Short_b23_cut1_stereo_44KHz.wav
2	83	3	3	2	I	2	0	1332	0	poli_8sides 15_whiteLine3.jpg	Short_b22_cut1_stereo_44KHz.wav
2	84	4	4	2	I	1	0	1187	1	poli_8sides 16_whiteLine3.jpg	Short_b09_cut1_stereo_44KHz.wav
2	85	1	2	0	C	2	1	1707	1	poli_8sides 1_whiteLine3.jpg	Short_b20_cut1_stereo_44KHz.wav
2	86	4	3	2	I	1	0	1024	1	poli_8sides 16_whiteLine3.jpg	Short_b22_cut1_stereo_44KHz.wav
2	87	2	1	0	C	2	1	820	1	poli_8sides 4_whiteLine3.jpg	Short_b23_cut1_stereo_44KHz.wav
2	88	3	4	2	I	1	0	1318	1	poli_8sides 15_whiteLine3.jpg	Short_b09_cut1_stereo_44KHz.wav
2	89	4	4	2	I	2	0	1655	0	poli_8sides 16_whiteLine3.jpg	Short_b09_cut1_stereo_44KHz.wav
2	90	3	4	2	I	2	0	1254	1	poli_8sides 15_whiteLine3.jpg	Short_b09_cut1_stereo_44KHz.wav
2	91	2	2	1	C	1	1	1338	1	poli_8sides 4_whiteLine3.jpg	Short_b20_cut1_stereo_44KHz.wav
2	92	1	1	1	C	1	1	1513	1	poli_8sides 1_whiteLine3.jpg	Short_b23_cut1_stereo_44KHz.wav
2	93	3	3	2	I	2	0	936	0	poli_8sides 15_whiteLine3.jpg	Short_b22_cut1_stereo_44KHz.wav
2	94	2	1	0	C	2	1	668	1	poli_8sides 4_whiteLine3.jpg	Short_b23_cut1_stereo_44KHz.wav
2	95	4	3	2	I	1	0	951	0	poli_8sides 16_whiteLine3.jpg	Short_b22_cut1_stereo_44KHz.wav
2	96	1	2	0	C	2	1	1312	1	poli_8sides 1_whiteLine3.jpg	Short_b20_cut1_stereo_44KHz.wav
2	97	4	3	2	I	1	0	1571	1	poli_8sides 16_whiteLine3.jpg	Short_b22_cut1_stereo_44KHz.wav
2	98	2	1	0	C	2	1	760	1	poli_8sides 4_whiteLine3.jpg	Short_b23_cut1_stereo_44KHz.wav
2	99	1	2	0	C	1	0	1078	0	poli_8sides 1_whiteLine3.jpg	Short_b20_cut1_stereo_44KHz.wav
2	100	3	4	2	I	1	0	1163	0	poli_8sides 15_whiteLine3.jpg	Short_b09_cut1_stereo_44KHz.wav
2	101	2	2	1	C	1	1	906	1	poli_8sides 4_whiteLine3.jpg	Short_b20_cut1_stereo_44KHz.wav
2	102	1	1	1	C	1	1	1176	1	poli_8sides 1_whiteLine3.jpg	Short_b23_cut1_stereo_44KHz.wav
2	103	4	4	2	I	1	0	1384	0	poli_8sides 16_whiteLine3.jpg	Short_b09_cut1_stereo_44KHz.wav
2	104	3	3	2	I	2	0	1061	0	poli_8sides 15_whiteLine3.jpg	Short_b22_cut1_stereo_44KHz.wav
2	105	4	4	2	I	1	0	1148	1	poli_8sides 16_whiteLine3.jpg	Short_b09_cut1_stereo_44KHz.wav
2	106	1	2	0	C	1	0	1023	0	poli_8sides 1_whiteLine3.jpg	Short_b20_cut1_stereo_44KHz.wav
2	107	3	3	2	I	2	0	1785	0	poli_8sides 15_whiteLine3.jpg	Short_b22_cut1_stereo_44KHz.wav
2	108	2	1	0	C	2	1	735	1	poli_8sides 4_whiteLine3.jpg	Short_b23_cut1_stereo_44KHz.wav
2	109	3	4	2	I	2	0	1775	0	poli_8sides 15_whiteLine3.jpg	Short_b09_cut1_stereo_44KHz.wav
2	110	4	3	2	I	1	0	919	0	poli_8sides 16_whiteLine3.jpg	Short_b22_cut1_stereo_44KHz.wav
2	111	2	2	1	C	1	1	872	1	poli_8sides 4_whiteLine3.jpg	Short_b20_cut1_stereo_44KHz.wav
2	112	1	1	1	C	1	1	1157	1	poli_8sides 1_whiteLine3.jpg	Short_b23_cut1_stereo_44KHz.wav
2	113	3	4	2	I	2	0	1636	0	poli_8sides 15_whiteLine3.jpg	Short_b09_cut1_stereo_44KHz.wav
2	114	1	1	1	C	1	1	1512	1	poli_8sides 1_whiteLine3.jpg	Short_b23_cut1_stereo_44KHz.wav
2	115	4	4	2	I	1	0	1890	0	poli_8sides 16_whiteLine3.jpg	Short_b09_cut1_stereo_44KHz.wav
2	116	2	1	0	C	2	1	1059	1	poli_8sides 4_whiteLine3.jpg	Short_b23_cut1_stereo_44KHz.wav
2	117	4	3	2	I	2	0	1247	1	poli_8sides 16_whiteLine3.jpg	Short_b22_cut1_stereo_44KHz.wav
2	118	3	3	2	I	1	0	1255	1	poli_8sides 15_whiteLine3.jpg	Short_b22_cut1_stereo_44KHz.wav
2	119	1	2	0	C	2	1	1098	1	poli_8sides 1_whiteLine3.jpg	Short_b20_cut1_stereo_44KHz.wav
2	120	2	2	1	C	1	1	984	1	poli_8sides 4_whiteLine3.jpg	Short_b20_cut1_stereo_44KHz.wav
2	121	4	4	2	I	1	0	1691	0	poli_8sides 16_whiteLine3.jpg	Short_b09_cut1_stereo_44KHz.wav
2	122	2	2	1	C	1	1	1024	1	poli_8sides 4_whiteLine3.jpg	Short_b20_cut1_stereo_44KHz.wav
2	123	1	2	0	C	2	1	1378	1	poli_8sides 1_whiteLine3.jpg	Short_b20_cut1_stereo_44KHz.wav
2	124	3	3	2	I	1	0	1670	1	poli_8sides 15_whiteLine3.jpg	Short_b22_cut1_stereo_44KHz.wav
2	125	2	1	0	C	2	1	842	1	poli_8sides 4_whiteLine3.jpg	Short_b23_cut1_stereo_44KHz.wav
2	126	3	4	2	I	1	0	1466	1	poli_8sides 15_whiteLine3.jpg	Short_b09_cut1_stereo_44KHz.wav
2	127	1	1	1	C	1	1	1290	1	poli_8sides 1_whiteLine3.jpg	Short_b23_cut1_stereo_44KHz.wav
2	128	4	3	2	I	1	0	1210	0	poli_8sides 16_whiteLine3.jpg	Short_b22_cut1_stereo_44KHz.wav
2	129	1	1	1	C	1	1	1367	1	poli_8sides 1_whiteLine3.jpg	Short_b23_cut1_stereo_44KHz.wav
2	130	2	2	1	C	1	1	1281	1	poli_8sides 4_whiteLine3.jpg	Short_b20_cut1_stereo_44KHz.wav
2	131	4	3	2	I	2	0	1250	1	poli_8sides 16_whiteLine3.jpg	Short_b22_cut1_stereo_44KHz.wav
2	132	3	4	2	I	1	0	1764	1	poli_8sides 15_whiteLine3.jpg	Short_b09_cut1_stereo_44KHz.wav
2	133	4	4	2	I	1	0	1237	1	poli_8sides 16_whiteLine3.jpg	Short_b09_cut1_stereo_44KHz.wav
2	134	2	1	0	C	2	1	884	1	poli_8sides 4_whiteLine3.jpg	Short_b23_cut1_stereo_44KHz.wav
2	135	3	3	2	I	2	0	1631	1	poli_8sides 15_whiteLine3.jpg	Short_b22_cut1_stereo_44KHz.wav
2	136	1	2	0	C	2	1	973	1	poli_8sides 1_whiteLine3.jpg	Short_b20_cut1_stereo_44KHz.wav
2	137	3	4	2	I	1	0	1009	0	poli_8sides 15_whiteLine3.jpg	Short_b09_cut1_stereo_44KHz.wav
2	138	2	1	0	C	2	1	893	1	poli_8sides 4_whiteLine3.jpg	Short_b23_cut1_stereo_44KHz.wav
2	139	4	4	2	I	1	0	1434	0	poli_8sides 16_whiteLine3.jpg	Short_b09_cut1_stereo_44KHz.wav
2	140	1	1	1	C	1	1	1035	1	poli_8sides 1_whiteLine3.jpg	Short_b23_cut1_stereo_44KHz.wav
2	141	2	2	1	C	1	1	1583	1	poli_8sides 4_whiteLine3.jpg	Short_b20_cut1_stereo_44KHz.wav
2	142	4	3	2	I	2	0	985	1	poli_8sides 16_whiteLine3.jpg	Short_b22_cut1_stereo_44KHz.wav
2	143	1	2	0	C	2	1	888	1	poli_8sides 1_whiteLine3.jpg	Short_b20_cut1_stereo_44KHz.wav
2	144	3	3	2	I	1	0	1272	0	poli_8sides 15_whiteLine3.jpg	Short_b22_cut1_stereo_44KHz.wav
2	145	4	4	2	I	1	0	901	0	poli_8sides 16_whiteLine3.jpg	Short_b09_cut1_stereo_44KHz.wav
2	146	1	2	0	C	2	1	1087	1	poli_8sides 1_whiteLine3.jpg	Short_b20_cut1_stereo_44KHz.wav
2	147	3	3	2	I	1	0	1116	0	poli_8sides 15_whiteLine3.jpg	Short_b22_cut1_stereo_44KHz.wav
2	148	2	1	0	C	2	1	770	1	poli_8sides 4_whiteLine3.jpg	Short_b23_cut1_stereo_44KHz.wav
2	149	1	1	1	C	1	1	696	1	poli_8sides 1_whiteLine3.jpg	Short_b23_cut1_stereo_44KHz.wav
2	150	2	2	1	C	1	1	763	1	poli_8sides 4_whiteLine3.jpg	Short_b20_cut1_stereo_44KHz.wav
2	151	3	4	2	I	1	0	1542	0	poli_8sides 15_whiteLine3.jpg	Short_b09_cut1_stereo_44KHz.wav
2	152	4	3	2	I	2	0	926	1	poli_8sides 16_whiteLine3.jpg	Short_b22_cut1_stereo_44KHz.wav
2	153	2	2	1	C	1	1	997	1	poli_8sides 4_whiteLine3.jpg	Short_b20_cut1_stereo_44KHz.wav
2	154	4	4	2	I	1	0	1733	1	poli_8sides 16_whiteLine3.jpg	Short_b09_cut1_stereo_44KHz.wav
2	155	3	4	2	I	2	0	664	0	poli_8sides 15_whiteLine3.jpg	Short_b09_cut1_stereo_44KHz.wav
2	156	1	1	1	C	1	1	925	1	poli_8sides 1_whiteLine3.jpg	Short_b23_cut1_stereo_44KHz.wav
2	157	3	3	2	I	2	0	1101	1	poli_8sides 15_whiteLine3.jpg	Short_b22_cut1_stereo_44KHz.wav
2	158	1	2	0	C	2	1	1108	1	poli_8sides 1_whiteLine3.jpg	Short_b20_cut1_stereo_44KHz.wav
2	159	4	3	2	I	2	0	1429	0	poli_8sides 16_whiteLine3.jpg	Short_b22_cut1_stereo_44KHz.wav
2	160	2	1	0	C	2	1	818	1	poli_8sides 4_whiteLine3.jpg	Short_b23_cut1_stereo_44KHz.wav
2	161	3	3	2	I	2	0	1118	1	poli_8sides 15_whiteLine3.jpg	Short_b22_cut1_stereo_44KHz.wav
2	162	4	4	2	I	2	0	1289	0	poli_8sides 16_whiteLine3.jpg	Short_b09_cut1_stereo_44KHz.wav
2	163	1	1	1	C	2	0	1384	0	poli_8sides 1_whiteLine3.jpg	Short_b23_cut1_stereo_44KHz.wav
2	164	2	1	0	C	2	1	1147	1	poli_8sides 4_whiteLine3.jpg	Short_b23_cut1_stereo_44KHz.wav
2	165	3	4	2	I	1	0	788	0	poli_8sides 15_whiteLine3.jpg	Short_b09_cut1_stereo_44KHz.wav
2	166	2	2	1	C	1	1	971	1	poli_8sides 4_whiteLine3.jpg	Short_b20_cut1_stereo_44KHz.wav
2	167	4	3	2	I	2	0	959	1	poli_8sides 16_whiteLine3.jpg	Short_b22_cut1_stereo_44KHz.wav
2	168	1	2	0	C	2	1	720	1	poli_8sides 1_whiteLine3.jpg	Short_b20_cut1_stereo_44KHz.wav
2	169	3	4	2	I	1	0	1389	1	poli_8sides 15_whiteLine3.jpg	Short_b09_cut1_stereo_44KHz.wav
2	170	1	1	1	C	1	1	1132	1	poli_8sides 1_whiteLine3.jpg	Short_b23_cut1_stereo_44KHz.wav
2	171	4	4	2	I	1	0	959	0	poli_8sides 16_whiteLine3.jpg	Short_b09_cut1_stereo_44KHz.wav
2	172	2	2	1	C	1	1	899	1	poli_8sides 4_whiteLine3.jpg	Short_b20_cut1_stereo_44KHz.wav
2	173	1	2	0	C	2	1	1026	1	poli_8sides 1_whiteLine3.jpg	Short_b20_cut1_stereo_44KHz.wav
2	174	4	3	2	I	2	0	1220	1	poli_8sides 16_whiteLine3.jpg	Short_b22_cut1_stereo_44KHz.wav
2	175	2	1	0	C	2	1	1215	1	poli_8sides 4_whiteLine3.jpg	Short_b23_cut1_stereo_44KHz.wav
2	176	3	3	2	I	2	0	1184	0	poli_8sides 15_whiteLine3.jpg	Short_b22_cut1_stereo_44KHz.wav
2	177	2	2	1	C	1	1	914	1	poli_8sides 4_whiteLine3.jpg	Short_b20_cut1_stereo_44KHz.wav
2	178	4	4	2	I	1	0	1379	1	poli_8sides 16_whiteLine3.jpg	Short_b09_cut1_stereo_44KHz.wav
2	179	3	4	2	I	2	0	971	0	poli_8sides 15_whiteLine3.jpg	Short_b09_cut1_stereo_44KHz.wav
2	180	1	2	0	C	2	1	1269	1	poli_8sides 1_whiteLine3.jpg	Short_b20_cut1_stereo_44KHz.wav
2	181	2	1	0	C	2	1	825	1	poli_8sides 4_whiteLine3.jpg	Short_b23_cut1_stereo_44KHz.wav
2	182	3	3	2	I	2	0	729	1	poli_8sides 15_whiteLine3.jpg	Short_b22_cut1_stereo_44KHz.wav
2	183	1	1	1	C	1	1	936	1	poli_8sides 1_whiteLine3.jpg	Short_b23_cut1_stereo_44KHz.wav
2	184	4	3	2	I	2	0	1330	1	poli_8sides 16_whiteLine3.jpg	Short_b22_cut1_stereo_44KHz.wav
2	185	1	2	0	C	2	1	1024	1	poli_8sides 1_whiteLine3.jpg	Short_b20_cut1_stereo_44KHz.wav
2	186	4	3	2	I	2	0	1147	1	poli_8sides 16_whiteLine3.jpg	Short_b22_cut1_stereo_44KHz.wav
2	187	2	2	1	C	1	1	1005	1	poli_8sides 4_whiteLine3.jpg	Short_b20_cut1_stereo_44KHz.wav
2	188	3	4	2	I	1	0	1359	0	poli_8sides 15_whiteLine3.jpg	Short_b09_cut1_stereo_44KHz.wav
2	189	2	1	0	C	2	1	829	1	poli_8sides 4_whiteLine3.jpg	Short_b23_cut1_stereo_44KHz.wav
2	190	1	1	1	C	1	1	1095	1	poli_8sides 1_whiteLine3.jpg	Short_b23_cut1_stereo_44KHz.wav
2	191	4	4	2	I	1	0	1098	0	poli_8sides 16_whiteLine3.jpg	Short_b09_cut1_stereo_44KHz.wav
2	192	3	3	2	I	2	0	760	0	poli_8sides 15_whiteLine3.jpg	Short_b22_cut1_stereo_44KHz.wav
2	193	4	3	2	I	2	0	697	0	poli_8sides 16_whiteLine3.jpg	Short_b22_cut1_stereo_44KHz.wav
2	194	1	2	0	C	2	1	1403	1	poli_8sides 1_whiteLine3.jpg	Short_b20_cut1_stereo_44KHz.wav
2	195	3	4	2	I	2	0	1373	0	poli_8sides 15_whiteLine3.jpg	Short_b09_cut1_stereo_44KHz.wav
2	196	2	1	0	C	2	1	820	1	poli_8sides 4_whiteLine3.jpg	Short_b23_cut1_stereo_44KHz.wav
2	197	4	4	2	I	1	0	1176	1	poli_8sides 16_whiteLine3.jpg	Short_b09_cut1_stereo_44KHz.wav
2	198	3	3	2	I	2	0	997	0	poli_8sides 15_whiteLine3.jpg	Short_b22_cut1_stereo_44KHz.wav
2	199	1	1	1	C	1	1	1363	1	poli_8sides 1_whiteLine3.jpg	Short_b23_cut1_stereo_44KHz.wav
2	200	2	2	1	C	1	1	1192	1	poli_8sides 4_whiteLine3.jpg	Short_b20_cut1_stereo_44KHz.wav
3	1	1	2	0	C	2	1	1343	1	poli_8sides 2_whiteLine3.jpg	MediumLong_b10_cut2_L_stereo_44KHz.wav
3	2	3	4	2	I	2	0	1013	1	poli_8sides 7_whiteLine3.jpg	Medium_e21_stereo_44KHz.wav
3	3	2	1	0	C	2	1	997	1	poli_8sides 11_whiteLine3.jpg	Medium_e01_cut1_stereo_44KHz.wav
3	4	4	4	2	I	1	0	1279	0	poli_8sides 6_whiteLine3.jpg	Medium_e21_stereo_44KHz.wav
3	5	1	1	1	C	1	1	990	1	poli_8sides 2_whiteLine3.jpg	Medium_e01_cut1_stereo_44KHz.wav
3	6	2	2	1	C	1	1	1286	1	poli_8sides 11_whiteLine3.jpg	MediumLong_b10_cut2_L_stereo_44KHz.wav
3	7	3	3	2	I	2	0	1476	1	poli_8sides 7_whiteLine3.jpg	MediumLong_e04_stereo_44KHz.wav
3	8	4	3	2	I	1	0	779	0	poli_8sides 6_whiteLine3.jpg	MediumLong_e04_stereo_44KHz.wav
3	9	2	1	0	C	1	0	1405	0	poli_8sides 11_whiteLine3.jpg	Medium_e01_cut1_stereo_44KHz.wav
3	10	3	4	2	I	2	0	1222	0	poli_8sides 7_whiteLine3.jpg	Medium_e21_stereo_44KHz.wav
3	11	4	3	2	I	1	0	984	0	poli_8sides 6_whiteLine3.jpg	MediumLong_e04_stereo_44KHz.wav
3	12	1	2	0	C	2	1	1270	1	poli_8sides 2_whiteLine3.jpg	MediumLong_b10_cut2_L_stereo_44KHz.wav
3	13	3	3	2	I	2	0	885	0	poli_8sides 7_whiteLine3.jpg	MediumLong_e04_stereo_44KHz.wav
3	14	4	4	2	I	1	0	1900	1	poli_8sides 6_whiteLine3.jpg	Medium_e21_stereo_44KHz.wav
3	15	2	2	1	C	1	1	1399	1	poli_8sides 11_whiteLine3.jpg	MediumLong_b10_cut2_L_stereo_44KHz.wav
3	16	1	1	1	C	2	0	1638	0	poli_8sides 2_whiteLine3.jpg	Medium_e01_cut1_stereo_44KHz.wav
3	17	4	4	2	I	2	0	1772	0	poli_8sides 6_whiteLine3.jpg	Medium_e21_stereo_44KHz.wav
3	18	3	3	2	I	2	0	910	0	poli_8sides 7_whiteLine3.jpg	MediumLong_e04_stereo_44KHz.wav
3	19	1	1	1	C	2	0	974	0	poli_8sides 2_whiteLine3.jpg	Medium_e01_cut1_stereo_44KHz.wav
3	20	2	1	0	C	2	1	965	1	poli_8sides 11_whiteLine3.jpg	Medium_e01_cut1_stereo_44KHz.wav
3	21	3	4	2	I	2	0	1118	1	poli_8sides 7_whiteLine3.jpg	Medium_e21_stereo_44KHz.wav
3	22	2	2	1	C	1	1	1688	1	poli_8sides 11_whiteLine3.jpg	MediumLong_b10_cut2_L_stereo_44KHz.wav
3	23	1	2	0	C	2	1	990	1	poli_8sides 2_whiteLine3.jpg	MediumLong_b10_cut2_L_stereo_44KHz.wav
3	24	4	3	2	I	1	0	1663	0	poli_8sides 6_whiteLine3.jpg	MediumLong_e04_stereo_44KHz.wav
3	25	3	3	2	I	1	0	1026	1	poli_8sides 7_whiteLine3.jpg	MediumLong_e04_stereo_44KHz.wav
3	26	1	2	0	C	2	1	1173	1	poli_8sides 2_whiteLine3.jpg	MediumLong_b10_cut2_L_stereo_44KHz.wav
3	27	2	1	0	C	2	1	1852	1	poli_8sides 11_whiteLine3.jpg	Medium_e01_cut1_stereo_44KHz.wav
3	28	4	3	2	I	2	0	1427	1	poli_8sides 6_whiteLine3.jpg	MediumLong_e04_stereo_44KHz.wav
3	29	3	4	2	I	2	0	1278	0	poli_8sides 7_whiteLine3.jpg	Medium_e21_stereo_44KHz.wav
3	30	2	2	1	C	2	0	1339	0	poli_8sides 11_whiteLine3.jpg	MediumLong_b10_cut2_L_stereo_44KHz.wav
3	31	1	1	1	C	2	0	952	0	poli_8sides 2_whiteLine3.jpg	Medium_e01_cut1_stereo_44KHz.wav
3	32	4	4	2	I	1	0	1255	0	poli_8sides 6_whiteLine3.jpg	Medium_e21_stereo_44KHz.wav
3	33	1	1	1	C	0	0	0	0	poli_8sides 2_whiteLine3.jpg	Medium_e01_cut1_stereo_44KHz.wav
3	34	3	4	2	I	2	0	1268	1	poli_8sides 7_whiteLine3.jpg	Medium_e21_stereo_44KHz.wav
3	35	2	2	1	C	2	0	1297	0	poli_8sides 11_whiteLine3.jpg	MediumLong_b10_cut2_L_stereo_44KHz.wav
3	36	4	4	2	I	1	0	1972	1	poli_8sides 6_whiteLine3.jpg	Medium_e21_stereo_44KHz.wav
3	37	3	3	2	I	1	0	841	1	poli_8sides 7_whiteLine3.jpg	MediumLong_e04_stereo_44KHz.wav
3	38	4	3	2	I	2	0	893	0	poli_8sides 6_whiteLine3.jpg	MediumLong_e04_stereo_44KHz.wav
3	39	2	1	0	C	1	0	1189	0	poli_8sides 11_whiteLine3.jpg	Medium_e01_cut1_stereo_44KHz.wav
3	40	1	2	0	C	2	1	1279	1	poli_8sides 2_whiteLine3.jpg	MediumLong_b10_cut2_L_stereo_44KHz.wav
3	41	4	4	2	I	1	0	1203	0	poli_8sides 6_whiteLine3.jpg	Medium_e21_stereo_44KHz.wav
3	42	2	2	1	C	1	1	1306	1	poli_8sides 11_whiteLine3.jpg	MediumLong_b10_cut2_L_stereo_44KHz.wav
3	43	3	3	2	I	1	0	1229	1	poli_8sides 7_whiteLine3.jpg	MediumLong_e04_stereo_44KHz.wav
3	44	1	2	0	C	1	0	1303	0	poli_8sides 2_whiteLine3.jpg	MediumLong_b10_cut2_L_stereo_44KHz.wav
3	45	2	1	0	C	2	1	1085	1	poli_8sides 11_whiteLine3.jpg	Medium_e01_cut1_stereo_44KHz.wav
3	46	3	4	2	I	2	0	928	1	poli_8sides 7_whiteLine3.jpg	Medium_e21_stereo_44KHz.wav
3	47	4	3	2	I	2	0	812	1	poli_8sides 6_whiteLine3.jpg	MediumLong_e04_stereo_44KHz.wav
3	48	1	1	1	C	2	0	1300	0	poli_8sides 2_whiteLine3.jpg	Medium_e01_cut1_stereo_44KHz.wav
3	49	3	3	2	I	1	0	1095	1	poli_8sides 7_whiteLine3.jpg	MediumLong_e04_stereo_44KHz.wav
3	50	1	1	1	C	2	0	815	0	poli_8sides 2_whiteLine3.jpg	Medium_e01_cut1_stereo_44KHz.wav
3	51	4	3	2	I	2	0	1048	1	poli_8sides 6_whiteLine3.jpg	MediumLong_e04_stereo_44KHz.wav
3	52	2	2	1	C	2	0	1304	0	poli_8sides 11_whiteLine3.jpg	MediumLong_b10_cut2_L_stereo_44KHz.wav
3	53	4	4	2	I	1	0	1659	1	poli_8sides 6_whiteLine3.jpg	Medium_e21_stereo_44KHz.wav
3	54	3	4	2	I	2	0	729	0	poli_8sides 7_whiteLine3.jpg	Medium_e21_stereo_44KHz.wav
3	55	2	1	0	C	2	1	1442	1	poli_8sides 11_whiteLine3.jpg	Medium_e01_cut1_stereo_44KHz.wav
3	56	1	2	0	C	2	1	895	1	poli_8sides 2_whiteLine3.jpg	MediumLong_b10_cut2_L_stereo_44KHz.wav
3	57	4	4	2	I	1	0	847	1	poli_8sides 6_whiteLine3.jpg	Medium_e21_stereo_44KHz.wav
3	58	3	4	2	I	2	0	1084	0	poli_8sides 7_whiteLine3.jpg	Medium_e21_stereo_44KHz.wav
3	59	2	1	0	C	2	1	1834	1	poli_8sides 11_whiteLine3.jpg	Medium_e01_cut1_stereo_44KHz.wav
3	60	1	1	1	C	1	1	879	1	poli_8sides 2_whiteLine3.jpg	Medium_e01_cut1_stereo_44KHz.wav
3	61	2	2	1	C	1	1	1339	1	poli_8sides 11_whiteLine3.jpg	MediumLong_b10_cut2_L_stereo_44KHz.wav
3	62	1	2	0	C	2	1	829	1	poli_8sides 2_whiteLine3.jpg	MediumLong_b10_cut2_L_stereo_44KHz.wav
3	63	3	3	2	I	1	0	1082	0	poli_8sides 7_whiteLine3.jpg	MediumLong_e04_stereo_44KHz.wav
3	64	4	3	2	I	2	0	909	0	poli_8sides 6_whiteLine3.jpg	MediumLong_e04_stereo_44KHz.wav
3	65	1	1	1	C	0	0	0	0	poli_8sides 2_whiteLine3.jpg	Medium_e01_cut1_stereo_44KHz.wav
3	66	3	3	2	I	1	0	1165	0	poli_8sides 7_whiteLine3.jpg	MediumLong_e04_stereo_44KHz.wav
3	67	2	1	0	C	2	1	1718	1	poli_8sides 11_whiteLine3.jpg	Medium_e01_cut1_stereo_44KHz.wav
3	68	4	4	2	I	1	0	898	0	poli_8sides 6_whiteLine3.jpg	Medium_e21_stereo_44KHz.wav
3	69	2	2	1	C	1	1	1191	1	poli_8sides 11_whiteLine3.jpg	MediumLong_b10_cut2_L_stereo_44KHz.wav
3	70	1	2	0	C	2	1	760	1	poli_8sides 2_whiteLine3.jpg	MediumLong_b10_cut2_L_stereo_44KHz.wav
3	71	4	3	2	I	2	0	669	1	poli_8sides 6_whiteLine3.jpg	MediumLong_e04_stereo_44KHz.wav
3	72	3	4	2	I	2	0	1002	1	poli_8sides 7_whiteLine3.jpg	Medium_e21_stereo_44KHz.wav
3	73	4	4	2	I	1	0	835	0	poli_8sides 6_whiteLine3.jpg	Medium_e21_stereo_44KHz.wav
3	74	2	2	1	C	1	1	1364	1	poli_8sides 11_whiteLine3.jpg	MediumLong_b10_cut2_L_stereo_44KHz.wav
3	75	1	1	1	C	2	0	1584	0	poli_8sides 2_whiteLine3.jpg	Medium_e01_cut1_stereo_44KHz.wav
3	76	3	4	2	I	2	0	909	0	poli_8sides 7_whiteLine3.jpg	Medium_e21_stereo_44KHz.wav
3	77	4	3	2	I	2	0	742	0	poli_8sides 6_whiteLine3.jpg	MediumLong_e04_stereo_44KHz.wav
3	78	1	2	0	C	2	1	1152	1	poli_8sides 2_whiteLine3.jpg	MediumLong_b10_cut2_L_stereo_44KHz.wav
3	79	3	3	2	I	1	0	975	1	poli_8sides 7_whiteLine3.jpg	MediumLong_e04_stereo_44KHz.wav
3	80	2	1	0	C	2	1	1725	1	poli_8sides 11_whiteLine3.jpg	Medium_e01_cut1_stereo_44KHz.wav
3	81	3	4	2	I	2	0	961	1	poli_8sides 7_whiteLine3.jpg	Medium_e21_stereo_44KHz.wav
3	82	4	4	2	I	1	0	933	1	poli_8sides 6_whiteLine3.jpg	Medium_e21_stereo_44KHz.wav
3	83	1	2	0	C	2	1	1147	1	poli_8sides 2_whiteLine3.jpg	MediumLong_b10_cut2_L_stereo_44KHz.wav
3	84	2	1	0	C	2	1	1183	1	poli_8sides 11_whiteLine3.jpg	Medium_e01_cut1_stereo_44KHz.wav
3	85	1	1	1	C	1	1	891	1	poli_8sides 2_whiteLine3.jpg	Medium_e01_cut1_stereo_44KHz.wav
3	86	2	2	1	C	1	1	1448	1	poli_8sides 11_whiteLine3.jpg	MediumLong_b10_cut2_L_stereo_44KHz.wav
3	87	4	3	2	I	2	0	899	0	poli_8sides 6_whiteLine3.jpg	MediumLong_e04_stereo_44KHz.wav
3	88	3	3	2	I	1	0	854	0	poli_8sides 7_whiteLine3.jpg	MediumLong_e04_stereo_44KHz.wav
3	89	4	4	2	I	1	0	1294	0	poli_8sides 6_whiteLine3.jpg	Medium_e21_stereo_44KHz.wav
3	90	1	1	1	C	2	0	1252	0	poli_8sides 2_whiteLine3.jpg	Medium_e01_cut1_stereo_44KHz.wav
3	91	3	3	2	I	1	0	1199	1	poli_8sides 7_whiteLine3.jpg	MediumLong_e04_stereo_44KHz.wav
3	92	2	1	0	C	2	1	1776	1	poli_8sides 11_whiteLine3.jpg	Medium_e01_cut1_stereo_44KHz.wav
3	93	3	4	2	I	2	0	1979	0	poli_8sides 7_whiteLine3.jpg	Medium_e21_stereo_44KHz.wav
3	94	2	2	1	C	1	1	1838	1	poli_8sides 11_whiteLine3.jpg	MediumLong_b10_cut2_L_stereo_44KHz.wav
3	95	1	2	0	C	2	1	1029	1	poli_8sides 2_whiteLine3.jpg	MediumLong_b10_cut2_L_stereo_44KHz.wav
3	96	4	3	2	I	2	0	1220	1	poli_8sides 6_whiteLine3.jpg	MediumLong_e04_stereo_44KHz.wav
3	97	1	1	1	C	1	1	1283	1	poli_8sides 2_whiteLine3.jpg	Medium_e01_cut1_stereo_44KHz.wav
3	98	4	4	2	I	0	0	0	0	poli_8sides 6_whiteLine3.jpg	Medium_e21_stereo_44KHz.wav
3	99	2	1	0	C	2	1	1579	1	poli_8sides 11_whiteLine3.jpg	Medium_e01_cut1_stereo_44KHz.wav
3	100	3	4	2	I	1	0	985	1	poli_8sides 7_whiteLine3.jpg	Medium_e21_stereo_44KHz.wav
3	101	4	3	2	I	2	0	990	0	poli_8sides 6_whiteLine3.jpg	MediumLong_e04_stereo_44KHz.wav
3	102	2	2	1	C	1	1	1164	1	poli_8sides 11_whiteLine3.jpg	MediumLong_b10_cut2_L_stereo_44KHz.wav
3	103	3	3	2	I	2	0	1118	1	poli_8sides 7_whiteLine3.jpg	MediumLong_e04_stereo_44KHz.wav
3	104	1	2	0	C	2	1	982	1	poli_8sides 2_whiteLine3.jpg	MediumLong_b10_cut2_L_stereo_44KHz.wav
3	105	3	3	2	I	1	0	986	0	poli_8sides 7_whiteLine3.jpg	MediumLong_e04_stereo_44KHz.wav
3	106	1	2	0	C	2	1	758	1	poli_8sides 2_whiteLine3.jpg	MediumLong_b10_cut2_L_stereo_44KHz.wav
3	107	4	3	2	I	2	0	844	1	poli_8sides 6_whiteLine3.jpg	MediumLong_e04_stereo_44KHz.wav
3	108	2	1	0	C	2	1	1833	1	poli_8sides 11_whiteLine3.jpg	Medium_e01_cut1_stereo_44KHz.wav
3	109	3	4	2	I	2	0	855	1	poli_8sides 7_whiteLine3.jpg	Medium_e21_stereo_44KHz.wav
3	110	1	1	1	C	1	1	1427	1	poli_8sides 2_whiteLine3.jpg	Medium_e01_cut1_stereo_44KHz.wav
3	111	2	2	1	C	1	1	1756	1	poli_8sides 11_whiteLine3.jpg	MediumLong_b10_cut2_L_stereo_44KHz.wav
3	112	4	4	2	I	1	0	1162	1	poli_8sides 6_whiteLine3.jpg	Medium_e21_stereo_44KHz.wav
3	113	3	4	2	I	2	0	941	0	poli_8sides 7_whiteLine3.jpg	Medium_e21_stereo_44KHz.wav
3	114	1	2	0	C	2	1	1709	1	poli_8sides 2_whiteLine3.jpg	MediumLong_b10_cut2_L_stereo_44KHz.wav
3	115	2	1	0	C	2	1	1564	1	poli_8sides 11_whiteLine3.jpg	Medium_e01_cut1_stereo_44KHz.wav
3	116	4	3	2	I	2	0	925	0	poli_8sides 6_whiteLine3.jpg	MediumLong_e04_stereo_44KHz.wav
3	117	3	3	2	I	2	0	1178	1	poli_8sides 7_whiteLine3.jpg	MediumLong_e04_stereo_44KHz.wav
3	118	4	4	2	I	2	0	1470	0	poli_8sides 6_whiteLine3.jpg	Medium_e21_stereo_44KHz.wav
3	119	2	2	1	C	0	0	0	0	poli_8sides 11_whiteLine3.jpg	MediumLong_b10_cut2_L_stereo_44KHz.wav
3	120	1	1	1	C	1	1	1315	1	poli_8sides 2_whiteLine3.jpg	Medium_e01_cut1_stereo_44KHz.wav
3	121	3	3	2	I	2	0	1025	1	poli_8sides 7_whiteLine3.jpg	MediumLong_e04_stereo_44KHz.wav
3	122	1	1	1	C	1	1	1146	1	poli_8sides 2_whiteLine3.jpg	Medium_e01_cut1_stereo_44KHz.wav
3	123	2	1	0	C	2	1	861	1	poli_8sides 11_whiteLine3.jpg	Medium_e01_cut1_stereo_44KHz.wav
3	124	4	3	2	I	2	0	949	1	poli_8sides 6_whiteLine3.jpg	MediumLong_e04_stereo_44KHz.wav
3	125	2	2	1	C	1	1	1294	1	poli_8sides 11_whiteLine3.jpg	MediumLong_b10_cut2_L_stereo_44KHz.wav
3	126	3	4	2	I	2	0	908	0	poli_8sides 7_whiteLine3.jpg	Medium_e21_stereo_44KHz.wav
3	127	1	2	0	C	2	1	1271	1	poli_8sides 2_whiteLine3.jpg	MediumLong_b10_cut2_L_stereo_44KHz.wav
3	128	4	4	2	I	1	0	998	1	poli_8sides 6_whiteLine3.jpg	Medium_e21_stereo_44KHz.wav
3	129	1	1	1	C	1	1	1815	1	poli_8sides 2_whiteLine3.jpg	Medium_e01_cut1_stereo_44KHz.wav
3	130	4	3	2	I	1	0	1289	1	poli_8sides 6_whiteLine3.jpg	MediumLong_e04_stereo_44KHz.wav
3	131	3	3	2	I	2	0	1064	0	poli_8sides 7_whiteLine3.jpg	MediumLong_e04_stereo_44KHz.wav
3	132	2	2	1	C	1	1	1504	1	poli_8sides 11_whiteLine3.jpg	MediumLong_b10_cut2_L_stereo_44KHz.wav
3	133	4	4	2	I	1	0	1955	1	poli_8sides 6_whiteLine3.jpg	Medium_e21_stereo_44KHz.wav
3	134	2	1	0	C	2	1	1532	1	poli_8sides 11_whiteLine3.jpg	Medium_e01_cut1_stereo_44KHz.wav
3	135	1	2	0	C	2	1	1267	1	poli_8sides 2_whiteLine3.jpg	MediumLong_b10_cut2_L_stereo_44KHz.wav
3	136	3	4	2	I	2	0	1309	1	poli_8sides 7_whiteLine3.jpg	Medium_e21_stereo_44KHz.wav
3	137	1	1	1	C	2	0	997	0	poli_8sides 2_whiteLine3.jpg	Medium_e01_cut1_stereo_44KHz.wav
3	138	2	1	0	C	2	1	749	1	poli_8sides 11_whiteLine3.jpg	Medium_e01_cut1_stereo_44KHz.wav
3	139	4	3	2	I	2	0	611	1	poli_8sides 6_whiteLine3.jpg	MediumLong_e04_stereo_44KHz.wav
3	140	3	3	2	I	2	0	1075	0	poli_8sides 7_whiteLine3.jpg	MediumLong_e04_stereo_44KHz.wav
3	141	1	2	0	C	2	1	1456	1	poli_8sides 2_whiteLine3.jpg	MediumLong_b10_cut2_L_stereo_44KHz.wav
3	142	4	4	2	I	2	0	1266	1	poli_8sides 6_whiteLine3.jpg	Medium_e21_stereo_44KHz.wav
3	143	3	4	2	I	2	0	1166	0	poli_8sides 7_whiteLine3.jpg	Medium_e21_stereo_44KHz.wav
3	144	2	2	1	C	1	1	1308	1	poli_8sides 11_whiteLine3.jpg	MediumLong_b10_cut2_L_stereo_44KHz.wav
3	145	4	3	2	I	1	0	1439	1	poli_8sides 6_whiteLine3.jpg	MediumLong_e04_stereo_44KHz.wav
3	146	2	1	0	C	2	1	1832	1	poli_8sides 11_whiteLine3.jpg	Medium_e01_cut1_stereo_44KHz.wav
3	147	3	3	2	I	2	0	991	1	poli_8sides 7_whiteLine3.jpg	MediumLong_e04_stereo_44KHz.wav
3	148	1	2	0	C	2	1	1353	1	poli_8sides 2_whiteLine3.jpg	MediumLong_b10_cut2_L_stereo_44KHz.wav
3	149	4	4	2	I	2	0	1864	0	poli_8sides 6_whiteLine3.jpg	Medium_e21_stereo_44KHz.wav
3	150	2	2	1	C	1	1	1607	1	poli_8sides 11_whiteLine3.jpg	MediumLong_b10_cut2_L_stereo_44KHz.wav
3	151	3	4	2	I	2	0	1275	0	poli_8sides 7_whiteLine3.jpg	Medium_e21_stereo_44KHz.wav
3	152	1	1	1	C	2	0	1234	0	poli_8sides 2_whiteLine3.jpg	Medium_e01_cut1_stereo_44KHz.wav
3	153	3	4	2	I	1	0	1501	0	poli_8sides 7_whiteLine3.jpg	Medium_e21_stereo_44KHz.wav
3	154	1	2	0	C	2	1	1271	1	poli_8sides 2_whiteLine3.jpg	MediumLong_b10_cut2_L_stereo_44KHz.wav
3	155	2	2	1	C	1	1	1526	1	poli_8sides 11_whiteLine3.jpg	MediumLong_b10_cut2_L_stereo_44KHz.wav
3	156	4	4	2	I	2	0	1234	1	poli_8sides 6_whiteLine3.jpg	Medium_e21_stereo_44KHz.wav
3	157	1	1	1	C	1	1	1666	1	poli_8sides 2_whiteLine3.jpg	Medium_e01_cut1_stereo_44KHz.wav
3	158	4	3	2	I	2	0	1256	0	poli_8sides 6_whiteLine3.jpg	MediumLong_e04_stereo_44KHz.wav
3	159	3	3	2	I	2	0	944	1	poli_8sides 7_whiteLine3.jpg	MediumLong_e04_stereo_44KHz.wav
3	160	2	1	0	C	2	1	1252	1	poli_8sides 11_whiteLine3.jpg	Medium_e01_cut1_stereo_44KHz.wav
3	161	3	4	2	I	2	0	1277	1	poli_8sides 7_whiteLine3.jpg	Medium_e21_stereo_44KHz.wav
3	162	4	3	2	I	1	0	1293	0	poli_8sides 6_whiteLine3.jpg	MediumLong_e04_stereo_44KHz.wav
3	163	2	2	1	C	1	1	1190	1	poli_8sides 11_whiteLine3.jpg	MediumLong_b10_cut2_L_stereo_44KHz.wav
3	164	1	1	1	C	1	1	1686	1	poli_8sides 2_whiteLine3.jpg	Medium_e01_cut1_stereo_44KHz.wav
3	165	4	4	2	I	2	0	1367	1	poli_8sides 6_whiteLine3.jpg	Medium_e21_stereo_44KHz.wav
3	166	3	3	2	I	2	0	1156	0	poli_8sides 7_whiteLine3.jpg	MediumLong_e04_stereo_44KHz.wav
3	167	2	1	0	C	1	0	1118	0	poli_8sides 11_whiteLine3.jpg	Medium_e01_cut1_stereo_44KHz.wav
3	168	1	2	0	C	2	1	1478	1	poli_8sides 2_whiteLine3.jpg	MediumLong_b10_cut2_L_stereo_44KHz.wav
3	169	4	4	2	I	1	0	1574	1	poli_8sides 6_whiteLine3.jpg	Medium_e21_stereo_44KHz.wav
3	170	1	2	0	C	2	1	1874	1	poli_8sides 2_whiteLine3.jpg	MediumLong_b10_cut2_L_stereo_44KHz.wav
3	171	2	2	1	C	1	1	1440	1	poli_8sides 11_whiteLine3.jpg	MediumLong_b10_cut2_L_stereo_44KHz.wav
3	172	3	3	2	I	1	0	1283	1	poli_8sides 7_whiteLine3.jpg	MediumLong_e04_stereo_44KHz.wav
3	173	2	1	0	C	2	1	1151	1	poli_8sides 11_whiteLine3.jpg	Medium_e01_cut1_stereo_44KHz.wav
3	174	4	3	2	I	1	0	1147	0	poli_8sides 6_whiteLine3.jpg	MediumLong_e04_stereo_44KHz.wav
3	175	3	4	2	I	2	0	855	0	poli_8sides 7_whiteLine3.jpg	Medium_e21_stereo_44KHz.wav
3	176	1	1	1	C	1	1	1902	1	poli_8sides 2_whiteLine3.jpg	Medium_e01_cut1_stereo_44KHz.wav
3	177	2	1	0	C	0	0	0	0	poli_8sides 11_whiteLine3.jpg	Medium_e01_cut1_stereo_44KHz.wav
3	178	4	3	2	I	2	0	1390	0	poli_8sides 6_whiteLine3.jpg	MediumLong_e04_stereo_44KHz.wav
3	179	1	1	1	C	1	1	1287	1	poli_8sides 2_whiteLine3.jpg	Medium_e01_cut1_stereo_44KHz.wav
3	180	3	4	2	I	1	0	739	0	poli_8sides 7_whiteLine3.jpg	Medium_e21_stereo_44KHz.wav
3	181	2	2	1	C	1	1	1453	1	poli_8sides 11_whiteLine3.jpg	MediumLong_b10_cut2_L_stereo_44KHz.wav
3	182	4	4	2	I	1	0	728	1	poli_8sides 6_whiteLine3.jpg	Medium_e21_stereo_44KHz.wav
3	183	3	3	2	I	1	0	810	0	poli_8sides 7_whiteLine3.jpg	MediumLong_e04_stereo_44KHz.wav
3	184	1	2	0	C	2	1	1298	1	poli_8sides 2_whiteLine3.jpg	MediumLong_b10_cut2_L_stereo_44KHz.wav
3	185	4	4	2	I	1	0	719	0	poli_8sides 6_whiteLine3.jpg	Medium_e21_stereo_44KHz.wav
3	186	1	1	1	C	1	1	1684	1	poli_8sides 2_whiteLine3.jpg	Medium_e01_cut1_stereo_44KHz.wav
3	187	2	2	1	C	1	1	1422	1	poli_8sides 11_whiteLine3.jpg	MediumLong_b10_cut2_L_stereo_44KHz.wav
3	188	3	4	2	I	1	0	975	1	poli_8sides 7_whiteLine3.jpg	Medium_e21_stereo_44KHz.wav
3	189	4	3	2	I	1	0	858	0	poli_8sides 6_whiteLine3.jpg	MediumLong_e04_stereo_44KHz.wav
3	190	2	1	0	C	2	1	902	1	poli_8sides 11_whiteLine3.jpg	Medium_e01_cut1_stereo_44KHz.wav
3	191	1	2	0	C	2	1	976	1	poli_8sides 2_whiteLine3.jpg	MediumLong_b10_cut2_L_stereo_44KHz.wav
3	192	3	3	2	I	1	0	856	1	poli_8sides 7_whiteLine3.jpg	MediumLong_e04_stereo_44KHz.wav
3	193	4	3	2	I	2	0	693	1	poli_8sides 6_whiteLine3.jpg	MediumLong_e04_stereo_44KHz.wav
3	194	3	3	2	I	1	0	690	0	poli_8sides 7_whiteLine3.jpg	MediumLong_e04_stereo_44KHz.wav
3	195	1	1	1	C	1	1	1226	1	poli_8sides 2_whiteLine3.jpg	Medium_e01_cut1_stereo_44KHz.wav
3	196	2	1	0	C	2	1	1002	1	poli_8sides 11_whiteLine3.jpg	Medium_e01_cut1_stereo_44KHz.wav
3	197	1	2	0	C	1	0	1081	0	poli_8sides 2_whiteLine3.jpg	MediumLong_b10_cut2_L_stereo_44KHz.wav
3	198	4	4	2	I	1	0	1556	1	poli_8sides 6_whiteLine3.jpg	Medium_e21_stereo_44KHz.wav
3	199	2	2	1	C	1	1	1490	1	poli_8sides 11_whiteLine3.jpg	MediumLong_b10_cut2_L_stereo_44KHz.wav
3	200	3	4	2	I	1	0	915	0	poli_8sides 7_whiteLine3.jpg	Medium_e21_stereo_44KHz.wav
4	1	2	1	0	C	2	1	1267	1	poli_8sides 10_whiteLine3.jpg	MediumShort_b16_cut3_MS_stereo_44KHz.wav
4	2	1	2	0	C	2	1	1239	1	poli_8sides 5_whiteLine3.jpg	MediumShort_e16_cut1_stereo_44KHz.wav
4	3	3	3	2	I	2	0	939	0	poli_8sides 3_whiteLine3.jpg	MediumShort_e22_cut1_stereo_44KHz.wav
4	4	4	4	2	I	1	0	1557	1	poli_8sides 9_whiteLine3.jpg	MediumShort_b10_cut1_MS_stereo_44KHz.wav
4	5	2	2	1	C	1	1	990	1	poli_8sides 10_whiteLine3.jpg	MediumShort_e16_cut1_stereo_44KHz.wav
4	6	4	3	2	I	2	0	993	1	poli_8sides 9_whiteLine3.jpg	MediumShort_e22_cut1_stereo_44KHz.wav
4	7	1	1	1	C	1	1	1141	1	poli_8sides 5_whiteLine3.jpg	MediumShort_b16_cut3_MS_stereo_44KHz.wav
4	8	3	4	2	I	2	0	1195	0	poli_8sides 3_whiteLine3.jpg	MediumShort_b10_cut1_MS_stereo_44KHz.wav
4	9	4	4	2	I	1	0	1249	0	poli_8sides 9_whiteLine3.jpg	MediumShort_b10_cut1_MS_stereo_44KHz.wav
4	10	2	2	1	C	1	1	1363	1	poli_8sides 10_whiteLine3.jpg	MediumShort_e16_cut1_stereo_44KHz.wav
4	11	3	3	2	I	1	0	1333	1	poli_8sides 3_whiteLine3.jpg	MediumShort_e22_cut1_stereo_44KHz.wav
4	12	1	1	1	C	1	1	987	1	poli_8sides 5_whiteLine3.jpg	MediumShort_b16_cut3_MS_stereo_44KHz.wav
4	13	2	1	0	C	1	0	1580	0	poli_8sides 10_whiteLine3.jpg	MediumShort_b16_cut3_MS_stereo_44KHz.wav
4	14	4	3	2	I	2	0	1552	0	poli_8sides 9_whiteLine3.jpg	MediumShort_e22_cut1_stereo_44KHz.wav
4	15	1	2	0	C	2	1	1465	1	poli_8sides 5_whiteLine3.jpg	MediumShort_e16_cut1_stereo_44KHz.wav
4	16	3	4	2	I	2	0	1039	1	poli_8sides 3_whiteLine3.jpg	MediumShort_b10_cut1_MS_stereo_44KHz.wav
4	17	1	1	1	C	1	1	1059	1	poli_8sides 5_whiteLine3.jpg	MediumShort_b16_cut3_MS_stereo_44KHz.wav
4	18	2	2	1	C	1	1	1075	1	poli_8sides 10_whiteLine3.jpg	MediumShort_e16_cut1_stereo_44KHz.wav
4	19	4	4	2	I	1	0	1794	1	poli_8sides 9_whiteLine3.jpg	MediumShort_b10_cut1_MS_stereo_44KHz.wav
4	20	3	4	2	I	2	0	983	1	poli_8sides 3_whiteLine3.jpg	MediumShort_b10_cut1_MS_stereo_44KHz.wav
4	21	2	1	0	C	2	1	1026	1	poli_8sides 10_whiteLine3.jpg	MediumShort_b16_cut3_MS_stereo_44KHz.wav
4	22	1	2	0	C	2	1	1108	1	poli_8sides 5_whiteLine3.jpg	MediumShort_e16_cut1_stereo_44KHz.wav
4	23	4	3	2	I	2	0	1550	1	poli_8sides 9_whiteLine3.jpg	MediumShort_e22_cut1_stereo_44KHz.wav
4	24	3	3	2	I	1	0	1169	1	poli_8sides 3_whiteLine3.jpg	MediumShort_e22_cut1_stereo_44KHz.wav
4	25	2	1	0	C	2	1	848	1	poli_8sides 10_whiteLine3.jpg	MediumShort_b16_cut3_MS_stereo_44KHz.wav
4	26	3	3	2	I	2	0	1808	0	poli_8sides 3_whiteLine3.jpg	MediumShort_e22_cut1_stereo_44KHz.wav
4	27	1	2	0	C	2	1	1660	1	poli_8sides 5_whiteLine3.jpg	MediumShort_e16_cut1_stereo_44KHz.wav
4	28	4	4	2	I	2	0	890	0	poli_8sides 9_whiteLine3.jpg	MediumShort_b10_cut1_MS_stereo_44KHz.wav
4	29	3	4	2	I	1	0	1371	0	poli_8sides 3_whiteLine3.jpg	MediumShort_b10_cut1_MS_stereo_44KHz.wav
4	30	4	3	2	I	2	0	994	0	poli_8sides 9_whiteLine3.jpg	MediumShort_e22_cut1_stereo_44KHz.wav
4	31	1	1	1	C	1	1	1051	1	poli_8sides 5_whiteLine3.jpg	MediumShort_b16_cut3_MS_stereo_44KHz.wav
4	32	2	2	1	C	1	1	922	1	poli_8sides 10_whiteLine3.jpg	MediumShort_e16_cut1_stereo_44KHz.wav
4	33	3	3	2	I	2	0	965	1	poli_8sides 3_whiteLine3.jpg	MediumShort_e22_cut1_stereo_44KHz.wav
4	34	1	1	1	C	1	1	892	1	poli_8sides 5_whiteLine3.jpg	MediumShort_b16_cut3_MS_stereo_44KHz.wav
4	35	4	3	2	I	2	0	1674	1	poli_8sides 9_whiteLine3.jpg	MediumShort_e22_cut1_stereo_44KHz.wav
4	36	2	1	0	C	2	1	815	1	poli_8sides 10_whiteLine3.jpg	MediumShort_b16_cut3_MS_stereo_44KHz.wav
4	37	4	4	2	I	1	0	910	0	poli_8sides 9_whiteLine3.jpg	MediumShort_b10_cut1_MS_stereo_44KHz.wav
4	38	3	4	2	I	2	0	1062	1	poli_8sides 3_whiteLine3.jpg	MediumShort_b10_cut1_MS_stereo_44KHz.wav
4	39	1	2	0	C	2	1	1927	1	poli_8sides 5_whiteLine3.jpg	MediumShort_e16_cut1_stereo_44KHz.wav
4	40	2	2	1	C	1	1	704	1	poli_8sides 10_whiteLine3.jpg	MediumShort_e16_cut1_stereo_44KHz.wav
4	41	3	4	2	I	2	0	858	0	poli_8sides 3_whiteLine3.jpg	MediumShort_b10_cut1_MS_stereo_44KHz.wav
4	42	2	2	1	C	1	1	1001	1	poli_8sides 10_whiteLine3.jpg	MediumShort_e16_cut1_stereo_44KHz.wav
4	43	1	1	1	C	1	1	1016	1	poli_8sides 5_whiteLine3.jpg	MediumShort_b16_cut3_MS_stereo_44KHz.wav
4	44	4	3	2	I	2	0	1166	1	poli_8sides 9_whiteLine3.jpg	MediumShort_e22_cut1_stereo_44KHz.wav
4	45	2	1	0	C	2	1	1028	1	poli_8sides 10_whiteLine3.jpg	MediumShort_b16_cut3_MS_stereo_44KHz.wav
4	46	4	4	2	I	2	0	1137	1	poli_8sides 9_whiteLine3.jpg	MediumShort_b10_cut1_MS_stereo_44KHz.wav
4	47	1	2	0	C	2	1	1005	1	poli_8sides 5_whiteLine3.jpg	MediumShort_e16_cut1_stereo_44KHz.wav
4	48	3	3	2	I	2	0	973	0	poli_8sides 3_whiteLine3.jpg	MediumShort_e22_cut1_stereo_44KHz.wav
4	49	4	3	2	I	2	0	1355	1	poli_8sides 9_whiteLine3.jpg	MediumShort_e22_cut1_stereo_44KHz.wav
4	50	3	3	2	I	2	0	793	1	poli_8sides 3_whiteLine3.jpg	MediumShort_e22_cut1_stereo_44KHz.wav
4	51	1	2	0	C	2	1	959	1	poli_8sides 5_whiteLine3.jpg	MediumShort_e16_cut1_stereo_44KHz.wav
4	52	2	2	1	C	1	1	755	1	poli_8sides 10_whiteLine3.jpg	MediumShort_e16_cut1_stereo_44KHz.wav
4	53	1	1	1	C	1	1	987	1	poli_8sides 5_whiteLine3.jpg	MediumShort_b16_cut3_MS_stereo_44KHz.wav
4	54	4	4	2	I	2	0	827	1	poli_8sides 9_whiteLine3.jpg	MediumShort_b10_cut1_MS_stereo_44KHz.wav
4	55	2	1	0	C	2	1	1239	1	poli_8sides 10_whiteLine3.jpg	MediumShort_b16_cut3_MS_stereo_44KHz.wav
4	56	3	4	2	I	1	0	1044	1	poli_8sides 3_whiteLine3.jpg	MediumShort_b10_cut1_MS_stereo_44KHz.wav
4	57	2	2	1	C	1	1	970	1	poli_8sides 10_whiteLine3.jpg	MediumShort_e16_cut1_stereo_44KHz.wav
4	58	4	3	2	I	2	0	1555	1	poli_8sides 9_whiteLine3.jpg	MediumShort_e22_cut1_stereo_44KHz.wav
4	59	3	3	2	I	2	0	729	0	poli_8sides 3_whiteLine3.jpg	MediumShort_e22_cut1_stereo_44KHz.wav
4	60	1	2	0	C	2	1	1277	1	poli_8sides 5_whiteLine3.jpg	MediumShort_e16_cut1_stereo_44KHz.wav
4	61	3	4	2	I	2	0	1417	0	poli_8sides 3_whiteLine3.jpg	MediumShort_b10_cut1_MS_stereo_44KHz.wav
4	62	2	1	0	C	2	1	745	1	poli_8sides 10_whiteLine3.jpg	MediumShort_b16_cut3_MS_stereo_44KHz.wav
4	63	1	1	1	C	1	1	895	1	poli_8sides 5_whiteLine3.jpg	MediumShort_b16_cut3_MS_stereo_44KHz.wav
4	64	4	4	2	I	2	0	725	0	poli_8sides 9_whiteLine3.jpg	MediumShort_b10_cut1_MS_stereo_44KHz.wav
4	65	2	1	0	C	2	1	987	1	poli_8sides 10_whiteLine3.jpg	MediumShort_b16_cut3_MS_stereo_44KHz.wav
4	66	3	3	2	I	2	0	1697	1	poli_8sides 3_whiteLine3.jpg	MediumShort_e22_cut1_stereo_44KHz.wav
4	67	1	2	0	C	2	1	1074	1	poli_8sides 5_whiteLine3.jpg	MediumShort_e16_cut1_stereo_44KHz.wav
4	68	4	3	2	I	1	0	1626	0	poli_8sides 9_whiteLine3.jpg	MediumShort_e22_cut1_stereo_44KHz.wav
4	69	3	4	2	I	2	0	1463	0	poli_8sides 3_whiteLine3.jpg	MediumShort_b10_cut1_MS_stereo_44KHz.wav
4	70	2	2	1	C	1	1	863	1	poli_8sides 10_whiteLine3.jpg	MediumShort_e16_cut1_stereo_44KHz.wav
4	71	4	4	2	I	2	0	824	1	poli_8sides 9_whiteLine3.jpg	MediumShort_b10_cut1_MS_stereo_44KHz.wav
4	72	1	1	1	C	1	1	1236	1	poli_8sides 5_whiteLine3.jpg	MediumShort_b16_cut3_MS_stereo_44KHz.wav
4	73	2	1	0	C	2	1	719	1	poli_8sides 10_whiteLine3.jpg	MediumShort_b16_cut3_MS_stereo_44KHz.wav
4	74	4	4	2	I	2	0	721	1	poli_8sides 9_whiteLine3.jpg	MediumShort_b10_cut1_MS_stereo_44KHz.wav
4	75	3	3	2	I	2	0	620	0	poli_8sides 3_whiteLine3.jpg	MediumShort_e22_cut1_stereo_44KHz.wav
4	76	1	2	0	C	2	1	1696	1	poli_8sides 5_whiteLine3.jpg	MediumShort_e16_cut1_stereo_44KHz.wav
4	77	3	4	2	I	2	0	707	1	poli_8sides 3_whiteLine3.jpg	MediumShort_b10_cut1_MS_stereo_44KHz.wav
4	78	4	3	2	I	2	0	768	0	poli_8sides 9_whiteLine3.jpg	MediumShort_e22_cut1_stereo_44KHz.wav
4	79	1	1	1	C	1	1	904	1	poli_8sides 5_whiteLine3.jpg	MediumShort_b16_cut3_MS_stereo_44KHz.wav
4	80	2	2	1	C	2	0	763	0	poli_8sides 10_whiteLine3.jpg	MediumShort_e16_cut1_stereo_44KHz.wav
4	81	3	4	2	I	1	0	1382	1	poli_8sides 3_whiteLine3.jpg	MediumShort_b10_cut1_MS_stereo_44KHz.wav
4	82	1	1	1	C	1	1	888	1	poli_8sides 5_whiteLine3.jpg	MediumShort_b16_cut3_MS_stereo_44KHz.wav
4	83	2	2	1	C	1	1	1036	1	poli_8sides 10_whiteLine3.jpg	MediumShort_e16_cut1_stereo_44KHz.wav
4	84	4	3	2	I	2	0	1716	1	poli_8sides 9_whiteLine3.jpg	MediumShort_e22_cut1_stereo_44KHz.wav
4	85	1	2	0	C	1	0	736	0	poli_8sides 5_whiteLine3.jpg	MediumShort_e16_cut1_stereo_44KHz.wav
4	86	3	3	2	I	2	0	1027	0	poli_8sides 3_whiteLine3.jpg	MediumShort_e22_cut1_stereo_44KHz.wav
4	87	2	1	0	C	2	1	638	1	poli_8sides 10_whiteLine3.jpg	MediumShort_b16_cut3_MS_stereo_44KHz.wav
4	88	4	4	2	I	2	0	1174	0	poli_8sides 9_whiteLine3.jpg	MediumShort_b10_cut1_MS_stereo_44KHz.wav
4	89	1	2	0	C	2	1	1024	1	poli_8sides 5_whiteLine3.jpg	MediumShort_e16_cut1_stereo_44KHz.wav
4	90	4	4	2	I	2	0	601	1	poli_8sides 9_whiteLine3.jpg	MediumShort_b10_cut1_MS_stereo_44KHz.wav
4	91	3	3	2	I	2	0	689	1	poli_8sides 3_whiteLine3.jpg	MediumShort_e22_cut1_stereo_44KHz.wav
4	92	2	1	0	C	2	1	734	1	poli_8sides 10_whiteLine3.jpg	MediumShort_b16_cut3_MS_stereo_44KHz.wav
4	93	1	1	1	C	1	1	819	1	poli_8sides 5_whiteLine3.jpg	MediumShort_b16_cut3_MS_stereo_44KHz.wav
4	94	4	3	2	I	2	0	860	1	poli_8sides 9_whiteLine3.jpg	MediumShort_e22_cut1_stereo_44KHz.wav
4	95	2	2	1	C	1	1	850	1	poli_8sides 10_whiteLine3.jpg	MediumShort_e16_cut1_stereo_44KHz.wav
4	96	3	4	2	I	2	0	1343	0	poli_8sides 3_whiteLine3.jpg	MediumShort_b10_cut1_MS_stereo_44KHz.wav
4	97	4	3	2	I	2	0	795	0	poli_8sides 9_whiteLine3.jpg	MediumShort_e22_cut1_stereo_44KHz.wav
4	98	2	1	0	C	2	1	1202	1	poli_8sides 10_whiteLine3.jpg	MediumShort_b16_cut3_MS_stereo_44KHz.wav
4	99	1	1	1	C	1	1	716	1	poli_8sides 5_whiteLine3.jpg	MediumShort_b16_cut3_MS_stereo_44KHz.wav
4	100	3	4	2	I	1	0	1456	0	poli_8sides 3_whiteLine3.jpg	MediumShort_b10_cut1_MS_stereo_44KHz.wav
4	101	1	2	0	C	2	1	1341	1	poli_8sides 5_whiteLine3.jpg	MediumShort_e16_cut1_stereo_44KHz.wav
4	102	4	4	2	I	2	0	777	1	poli_8sides 9_whiteLine3.jpg	MediumShort_b10_cut1_MS_stereo_44KHz.wav
4	103	2	2	1	C	1	1	844	1	poli_8sides 10_whiteLine3.jpg	MediumShort_e16_cut1_stereo_44KHz.wav
4	104	3	3	2	I	2	0	1300	0	poli_8sides 3_whiteLine3.jpg	MediumShort_e22_cut1_stereo_44KHz.wav
4	105	1	1	1	C	1	1	1292	1	poli_8sides 5_whiteLine3.jpg	MediumShort_b16_cut3_MS_stereo_44KHz.wav
4	106	3	4	2	I	2	0	1113	0	poli_8sides 3_whiteLine3.jpg	MediumShort_b10_cut1_MS_stereo_44KHz.wav
4	107	2	2	1	C	1	1	941	1	poli_8sides 10_whiteLine3.jpg	MediumShort_e16_cut1_stereo_44KHz.wav
4	108	4	4	2	I	2	0	1284	1	poli_8sides 9_whiteLine3.jpg	MediumShort_b10_cut1_MS_stereo_44KHz.wav
4	109	3	3	2	I	2	0	1232	1	poli_8sides 3_whiteLine3.jpg	MediumShort_e22_cut1_stereo_44KHz.wav
4	110	4	3	2	I	1	0	1576	1	poli_8sides 9_whiteLine3.jpg	MediumShort_e22_cut1_stereo_44KHz.wav
4	111	1	2	0	C	1	0	777	0	poli_8sides 5_whiteLine3.jpg	MediumShort_e16_cut1_stereo_44KHz.wav
4	112	2	1	0	C	2	1	882	1	poli_8sides 10_whiteLine3.jpg	MediumShort_b16_cut3_MS_stereo_44KHz.wav
4	113	4	4	2	I	2	0	1223	1	poli_8sides 9_whiteLine3.jpg	MediumShort_b10_cut1_MS_stereo_44KHz.wav
4	114	1	2	0	C	2	1	977	1	poli_8sides 5_whiteLine3.jpg	MediumShort_e16_cut1_stereo_44KHz.wav
4	115	3	4	2	I	1	0	1166	1	poli_8sides 3_whiteLine3.jpg	MediumShort_b10_cut1_MS_stereo_44KHz.wav
4	116	2	2	1	C	1	1	899	1	poli_8sides 10_whiteLine3.jpg	MediumShort_e16_cut1_stereo_44KHz.wav
4	117	3	3	2	I	2	0	1043	1	poli_8sides 3_whiteLine3.jpg	MediumShort_e22_cut1_stereo_44KHz.wav
4	118	4	3	2	I	1	0	1315	0	poli_8sides 9_whiteLine3.jpg	MediumShort_e22_cut1_stereo_44KHz.wav
4	119	2	1	0	C	2	1	845	1	poli_8sides 10_whiteLine3.jpg	MediumShort_b16_cut3_MS_stereo_44KHz.wav
4	120	1	1	1	C	1	1	928	1	poli_8sides 5_whiteLine3.jpg	MediumShort_b16_cut3_MS_stereo_44KHz.wav
4	121	2	1	0	C	2	1	1100	1	poli_8sides 10_whiteLine3.jpg	MediumShort_b16_cut3_MS_stereo_44KHz.wav
4	122	4	3	2	I	2	0	1932	0	poli_8sides 9_whiteLine3.jpg	MediumShort_e22_cut1_stereo_44KHz.wav
4	123	1	2	0	C	2	1	1037	1	poli_8sides 5_whiteLine3.jpg	MediumShort_e16_cut1_stereo_44KHz.wav
4	124	3	3	2	I	2	0	882	0	poli_8sides 3_whiteLine3.jpg	MediumShort_e22_cut1_stereo_44KHz.wav
4	125	1	1	1	C	1	1	1220	1	poli_8sides 5_whiteLine3.jpg	MediumShort_b16_cut3_MS_stereo_44KHz.wav
4	126	4	4	2	I	2	0	965	0	poli_8sides 9_whiteLine3.jpg	MediumShort_b10_cut1_MS_stereo_44KHz.wav
4	127	2	2	1	C	1	1	833	1	poli_8sides 10_whiteLine3.jpg	MediumShort_e16_cut1_stereo_44KHz.wav
4	128	3	4	2	I	2	0	876	1	poli_8sides 3_whiteLine3.jpg	MediumShort_b10_cut1_MS_stereo_44KHz.wav
4	129	1	2	0	C	2	1	857	1	poli_8sides 5_whiteLine3.jpg	MediumShort_e16_cut1_stereo_44KHz.wav
4	130	3	4	2	I	1	0	1512	1	poli_8sides 3_whiteLine3.jpg	MediumShort_b10_cut1_MS_stereo_44KHz.wav
4	131	2	2	1	C	1	1	1331	1	poli_8sides 10_whiteLine3.jpg	MediumShort_e16_cut1_stereo_44KHz.wav
4	132	4	4	2	I	2	0	869	0	poli_8sides 9_whiteLine3.jpg	MediumShort_b10_cut1_MS_stereo_44KHz.wav
4	133	2	1	0	C	2	1	762	1	poli_8sides 10_whiteLine3.jpg	MediumShort_b16_cut3_MS_stereo_44KHz.wav
4	134	1	1	1	C	1	1	723	1	poli_8sides 5_whiteLine3.jpg	MediumShort_b16_cut3_MS_stereo_44KHz.wav
4	135	4	3	2	I	2	0	1631	0	poli_8sides 9_whiteLine3.jpg	MediumShort_e22_cut1_stereo_44KHz.wav
4	136	3	3	2	I	2	0	1019	1	poli_8sides 3_whiteLine3.jpg	MediumShort_e22_cut1_stereo_44KHz.wav
4	137	2	1	0	C	2	1	712	1	poli_8sides 10_whiteLine3.jpg	MediumShort_b16_cut3_MS_stereo_44KHz.wav
4	138	4	4	2	I	2	0	825	0	poli_8sides 9_whiteLine3.jpg	MediumShort_b10_cut1_MS_stereo_44KHz.wav
4	139	1	2	0	C	2	1	625	1	poli_8sides 5_whiteLine3.jpg	MediumShort_e16_cut1_stereo_44KHz.wav
4	140	3	3	2	I	2	0	686	1	poli_8sides 3_whiteLine3.jpg	MediumShort_e22_cut1_stereo_44KHz.wav
4	141	2	2	1	C	1	1	962	1	poli_8sides 10_whiteLine3.jpg	MediumShort_e16_cut1_stereo_44KHz.wav
4	142	1	1	1	C	1	1	1169	1	poli_8sides 5_whiteLine3.jpg	MediumShort_b16_cut3_MS_stereo_44KHz.wav
4	143	3	4	2	I	2	0	909	1	poli_8sides 3_whiteLine3.jpg	MediumShort_b10_cut1_MS_stereo_44KHz.wav
4	144	4	3	2	I	2	0	780	0	poli_8sides 9_whiteLine3.jpg	MediumShort_e22_cut1_stereo_44KHz.wav
4	145	3	3	2	I	2	0	826	1	poli_8sides 3_whiteLine3.jpg	MediumShort_e22_cut1_stereo_44KHz.wav
4	146	4	4	2	I	2	0	949	1	poli_8sides 9_whiteLine3.jpg	MediumShort_b10_cut1_MS_stereo_44KHz.wav
4	147	2	1	0	C	2	1	779	1	poli_8sides 10_whiteLine3.jpg	MediumShort_b16_cut3_MS_stereo_44KHz.wav
4	148	1	1	1	C	1	1	672	1	poli_8sides 5_whiteLine3.jpg	MediumShort_b16_cut3_MS_stereo_44KHz.wav
4	149	2	2	1	C	1	1	1170	1	poli_8sides 10_whiteLine3.jpg	MediumShort_e16_cut1_stereo_44KHz.wav
4	150	4	3	2	I	2	0	786	0	poli_8sides 9_whiteLine3.jpg	MediumShort_e22_cut1_stereo_44KHz.wav
4	151	1	2	0	C	2	1	926	1	poli_8sides 5_whiteLine3.jpg	MediumShort_e16_cut1_stereo_44KHz.wav
4	152	3	4	2	I	2	0	820	0	poli_8sides 3_whiteLine3.jpg	MediumShort_b10_cut1_MS_stereo_44KHz.wav
4	153	1	1	1	C	1	1	1310	1	poli_8sides 5_whiteLine3.jpg	MediumShort_b16_cut3_MS_stereo_44KHz.wav
4	154	4	4	2	I	2	0	830	0	poli_8sides 9_whiteLine3.jpg	MediumShort_b10_cut1_MS_stereo_44KHz.wav
4	155	3	4	2	I	2	0	613	0	poli_8sides 3_whiteLine3.jpg	MediumShort_b10_cut1_MS_stereo_44KHz.wav
4	156	2	2	1	C	1	1	855	1	poli_8sides 10_whiteLine3.jpg	MediumShort_e16_cut1_stereo_44KHz.wav
4	157	1	2	0	C	1	0	1447	0	poli_8sides 5_whiteLine3.jpg	MediumShort_e16_cut1_stereo_44KHz.wav
4	158	2	1	0	C	2	1	944	1	poli_8sides 10_whiteLine3.jpg	MediumShort_b16_cut3_MS_stereo_44KHz.wav
4	159	4	3	2	I	1	0	1808	0	poli_8sides 9_whiteLine3.jpg	MediumShort_e22_cut1_stereo_44KHz.wav
4	160	3	3	2	I	2	0	1920	0	poli_8sides 3_whiteLine3.jpg	MediumShort_e22_cut1_stereo_44KHz.wav
4	161	2	1	0	C	2	1	518	1	poli_8sides 10_whiteLine3.jpg	MediumShort_b16_cut3_MS_stereo_44KHz.wav
4	162	4	4	2	I	2	0	707	1	poli_8sides 9_whiteLine3.jpg	MediumShort_b10_cut1_MS_stereo_44KHz.wav
4	163	1	2	0	C	2	1	570	1	poli_8sides 5_whiteLine3.jpg	MediumShort_e16_cut1_stereo_44KHz.wav
4	164	3	4	2	I	2	0	540	1	poli_8sides 3_whiteLine3.jpg	MediumShort_b10_cut1_MS_stereo_44KHz.wav
4	165	4	3	2	I	2	0	571	0	poli_8sides 9_whiteLine3.jpg	MediumShort_e22_cut1_stereo_44KHz.wav
4	166	3	3	2	I	2	0	422	0	poli_8sides 3_whiteLine3.jpg	MediumShort_e22_cut1_stereo_44KHz.wav
4	167	2	2	1	C	2	0	693	0	poli_8sides 10_whiteLine3.jpg	MediumShort_e16_cut1_stereo_44KHz.wav
4	168	1	1	1	C	1	1	1116	1	poli_8sides 5_whiteLine3.jpg	MediumShort_b16_cut3_MS_stereo_44KHz.wav
4	169	3	3	2	I	2	0	851	1	poli_8sides 3_whiteLine3.jpg	MediumShort_e22_cut1_stereo_44KHz.wav
4	170	2	2	1	C	1	1	963	1	poli_8sides 10_whiteLine3.jpg	MediumShort_e16_cut1_stereo_44KHz.wav
4	171	1	2	0	C	2	1	999	1	poli_8sides 5_whiteLine3.jpg	MediumShort_e16_cut1_stereo_44KHz.wav
4	172	4	4	2	I	2	0	591	1	poli_8sides 9_whiteLine3.jpg	MediumShort_b10_cut1_MS_stereo_44KHz.wav
4	173	2	1	0	C	2	1	686	1	poli_8sides 10_whiteLine3.jpg	MediumShort_b16_cut3_MS_stereo_44KHz.wav
4	174	1	1	1	C	1	1	726	1	poli_8sides 5_whiteLine3.jpg	MediumShort_b16_cut3_MS_stereo_44KHz.wav
4	175	4	3	2	I	2	0	1039	0	poli_8sides 9_whiteLine3.jpg	MediumShort_e22_cut1_stereo_44KHz.wav
4	176	3	4	2	I	2	0	495	0	poli_8sides 3_whiteLine3.jpg	MediumShort_b10_cut1_MS_stereo_44KHz.wav
4	177	1	1	1	C	1	1	797	1	poli_8sides 5_whiteLine3.jpg	MediumShort_b16_cut3_MS_stereo_44KHz.wav
4	178	4	4	2	I	2	0	654	1	poli_8sides 9_whiteLine3.jpg	MediumShort_b10_cut1_MS_stereo_44KHz.wav
4	179	3	3	2	I	2	0	653	0	poli_8sides 3_whiteLine3.jpg	MediumShort_e22_cut1_stereo_44KHz.wav
4	180	2	1	0	C	1	0	942	0	poli_8sides 10_whiteLine3.jpg	MediumShort_b16_cut3_MS_stereo_44KHz.wav
4	181	4	3	2	I	2	0	767	1	poli_8sides 9_whiteLine3.jpg	MediumShort_e22_cut1_stereo_44KHz.wav
4	182	2	2	1	C	1	1	1329	1	poli_8sides 10_whiteLine3.jpg	MediumShort_e16_cut1_stereo_44KHz.wav
4	183	1	2	0	C	2	1	616	1	poli_8sides 5_whiteLine3.jpg	MediumShort_e16_cut1_stereo_44KHz.wav
4	184	3	4	2	I	2	0	750	0	poli_8sides 3_whiteLine3.jpg	MediumShort_b10_cut1_MS_stereo_44KHz.wav
4	185	4	3	2	I	2	0	699	0	poli_8sides 9_whiteLine3.jpg	MediumShort_e22_cut1_stereo_44KHz.wav
4	186	3	3	2	I	2	0	522	1	poli_8sides 3_whiteLine3.jpg	MediumShort_e22_cut1_stereo_44KHz.wav
4	187	2	1	0	C	2	1	621	1	poli_8sides 10_whiteLine3.jpg	MediumShort_b16_cut3_MS_stereo_44KHz.wav
4	188	1	2	0	C	2	1	557	1	poli_8sides 5_whiteLine3.jpg	MediumShort_e16_cut1_stereo_44KHz.wav
4	189	3	4	2	I	1	0	1179	0	poli_8sides 3_whiteLine3.jpg	MediumShort_b10_cut1_MS_stereo_44KHz.wav
4	190	4	4	2	I	2	0	936	0	poli_8sides 9_whiteLine3.jpg	MediumShort_b10_cut1_MS_stereo_44KHz.wav
4	191	1	1	1	C	1	1	1542	1	poli_8sides 5_whiteLine3.jpg	MediumShort_b16_cut3_MS_stereo_44KHz.wav
4	192	2	2	1	C	1	1	1048	1	poli_8sides 10_whiteLine3.jpg	MediumShort_e16_cut1_stereo_44KHz.wav
4	193	1	1	1	C	1	1	976	1	poli_8sides 5_whiteLine3.jpg	MediumShort_b16_cut3_MS_stereo_44KHz.wav
4	194	4	3	2	I	2	0	911	1	poli_8sides 9_whiteLine3.jpg	MediumShort_e22_cut1_stereo_44KHz.wav
4	195	2	2	1	C	1	1	1007	1	poli_8sides 10_whiteLine3.jpg	MediumShort_e16_cut1_stereo_44KHz.wav
4	196	3	3	2	I	2	0	867	0	poli_8sides 3_whiteLine3.jpg	MediumShort_e22_cut1_stereo_44KHz.wav
4	197	4	4	2	I	2	0	1225	0	poli_8sides 9_whiteLine3.jpg	MediumShort_b10_cut1_MS_stereo_44KHz.wav
4	198	2	1	0	C	2	1	813	1	poli_8sides 10_whiteLine3.jpg	MediumShort_b16_cut3_MS_stereo_44KHz.wav
4	199	3	4	2	I	2	0	790	1	poli_8sides 3_whiteLine3.jpg	MediumShort_b10_cut1_MS_stereo_44KHz.wav
4	200	1	2	0	C	2	1	617	1	poli_8sides 5_whiteLine3.jpg	MediumShort_e16_cut1_stereo_44KHz.wav
