block	trial	Vstim	Astim	match	C/I	resp	result	RT	fb	V-file	A-file
LR

0	1	1	1	1	C	0	0	0	0	Ⴢ	cut_eeuw_stereo_44KHz.wav
0	2	2	3	1	C	2	1	777	1	Ⴉ	cut_oo_stereo_44KHz.wav
0	3	1	2	0	C	1	1	967	1	Ⴢ	cut_g_stereo_44KHz.wav
0	4	2	4	0	C	2	0	860	0	Ⴉ	cut_ee_stereo_44KHz.wav
0	5	2	3	1	C	2	1	790	1	Ⴉ	cut_oo_stereo_44KHz.wav
0	6	2	4	0	C	2	0	963	0	Ⴉ	cut_ee_stereo_44KHz.wav
0	7	1	2	0	C	1	1	509	1	Ⴢ	cut_g_stereo_44KHz.wav
0	8	1	1	1	C	2	1	892	1	Ⴢ	cut_eeuw_stereo_44KHz.wav
0	9	2	4	0	C	1	1	811	1	Ⴉ	cut_ee_stereo_44KHz.wav
0	10	2	3	1	C	2	1	864	1	Ⴉ	cut_oo_stereo_44KHz.wav
0	11	1	2	0	C	1	1	455	1	Ⴢ	cut_g_stereo_44KHz.wav
0	12	1	1	1	C	2	1	773	1	Ⴢ	cut_eeuw_stereo_44KHz.wav
0	13	1	1	1	C	2	1	989	1	Ⴢ	cut_eeuw_stereo_44KHz.wav
0	14	2	4	0	C	1	1	623	1	Ⴉ	cut_ee_stereo_44KHz.wav
0	15	1	2	0	C	1	1	729	1	Ⴢ	cut_g_stereo_44KHz.wav
0	16	2	3	1	C	1	0	973	0	Ⴉ	cut_oo_stereo_44KHz.wav
0	17	1	1	1	C	2	1	915	1	Ⴢ	cut_eeuw_stereo_44KHz.wav
0	18	1	2	0	C	1	1	615	1	Ⴢ	cut_g_stereo_44KHz.wav
0	19	2	4	0	C	1	1	1431	1	Ⴉ	cut_ee_stereo_44KHz.wav
0	20	2	3	1	C	2	1	848	1	Ⴉ	cut_oo_stereo_44KHz.wav
0	21	1	1	1	C	2	1	909	1	Ⴢ	cut_eeuw_stereo_44KHz.wav
0	22	2	4	0	C	1	1	736	1	Ⴉ	cut_ee_stereo_44KHz.wav
0	23	1	2	0	C	1	1	711	1	Ⴢ	cut_g_stereo_44KHz.wav
0	24	2	3	1	C	2	1	1072	1	Ⴉ	cut_oo_stereo_44KHz.wav
0	25	1	2	0	C	1	1	672	1	Ⴢ	cut_g_stereo_44KHz.wav
0	26	1	1	1	C	2	1	827	1	Ⴢ	cut_eeuw_stereo_44KHz.wav
0	27	2	4	0	C	1	1	854	1	Ⴉ	cut_ee_stereo_44KHz.wav
0	28	2	3	1	C	2	1	701	1	Ⴉ	cut_oo_stereo_44KHz.wav
0	29	1	1	1	C	2	1	899	1	Ⴢ	cut_eeuw_stereo_44KHz.wav
0	30	1	2	0	C	1	1	974	1	Ⴢ	cut_g_stereo_44KHz.wav
avg_resp = 821
1	1	3	3	2	I	2	0	1234	1	Ⴌ	cut_u_stereo_44KHz.wav
1	2	1	2	0	C	2	0	869	0	Ⴕ	cut_a_stereo_44KHz.wav
1	3	2	2	1	C	2	1	747	1	Ⴒ	cut_a_stereo_44KHz.wav
1	4	4	4	2	I	1	0	993	0	Ⴐ	cut_k_stereo_44KHz.wav
1	5	2	1	0	C	1	1	1050	1	Ⴒ	cut_o_stereo_44KHz.wav
1	6	1	1	1	C	2	1	712	1	Ⴕ	cut_o_stereo_44KHz.wav
1	7	3	4	2	I	2	0	911	0	Ⴌ	cut_k_stereo_44KHz.wav
1	8	4	3	2	I	1	0	1210	1	Ⴐ	cut_u_stereo_44KHz.wav
1	9	2	1	0	C	1	1	658	1	Ⴒ	cut_o_stereo_44KHz.wav
1	10	4	4	2	I	2	0	887	0	Ⴐ	cut_k_stereo_44KHz.wav
1	11	3	4	2	I	2	0	924	0	Ⴌ	cut_k_stereo_44KHz.wav
1	12	1	2	0	C	1	1	1064	1	Ⴕ	cut_a_stereo_44KHz.wav
1	13	2	2	1	C	2	1	1143	1	Ⴒ	cut_a_stereo_44KHz.wav
1	14	3	3	2	I	2	0	1093	0	Ⴌ	cut_u_stereo_44KHz.wav
1	15	4	3	2	I	2	0	975	0	Ⴐ	cut_u_stereo_44KHz.wav
1	16	1	1	1	C	2	1	1134	1	Ⴕ	cut_o_stereo_44KHz.wav
1	17	4	4	2	I	1	0	954	0	Ⴐ	cut_k_stereo_44KHz.wav
1	18	1	1	1	C	2	1	810	1	Ⴕ	cut_o_stereo_44KHz.wav
1	19	3	3	2	I	2	0	942	1	Ⴌ	cut_u_stereo_44KHz.wav
1	20	2	2	1	C	2	1	1178	1	Ⴒ	cut_a_stereo_44KHz.wav
1	21	1	2	0	C	1	1	1031	1	Ⴕ	cut_a_stereo_44KHz.wav
1	22	4	3	2	I	1	0	982	1	Ⴐ	cut_u_stereo_44KHz.wav
1	23	3	4	2	I	2	0	934	1	Ⴌ	cut_k_stereo_44KHz.wav
1	24	2	1	0	C	1	1	782	1	Ⴒ	cut_o_stereo_44KHz.wav
1	25	1	2	0	C	1	1	770	1	Ⴕ	cut_a_stereo_44KHz.wav
1	26	4	3	2	I	2	0	777	1	Ⴐ	cut_u_stereo_44KHz.wav
1	27	2	1	0	C	1	1	794	1	Ⴒ	cut_o_stereo_44KHz.wav
1	28	3	3	2	I	2	0	737	1	Ⴌ	cut_u_stereo_44KHz.wav
1	29	2	2	1	C	2	1	748	1	Ⴒ	cut_a_stereo_44KHz.wav
1	30	1	1	1	C	2	1	698	1	Ⴕ	cut_o_stereo_44KHz.wav
1	31	4	4	2	I	2	0	777	0	Ⴐ	cut_k_stereo_44KHz.wav
1	32	3	4	2	I	2	0	752	1	Ⴌ	cut_k_stereo_44KHz.wav
1	33	4	4	2	I	2	0	1168	0	Ⴐ	cut_k_stereo_44KHz.wav
1	34	2	2	1	C	2	1	769	1	Ⴒ	cut_a_stereo_44KHz.wav
1	35	1	2	0	C	1	1	820	1	Ⴕ	cut_a_stereo_44KHz.wav
1	36	3	4	2	I	2	0	828	1	Ⴌ	cut_k_stereo_44KHz.wav
1	37	1	1	1	C	2	1	669	1	Ⴕ	cut_o_stereo_44KHz.wav
1	38	4	3	2	I	2	0	743	0	Ⴐ	cut_u_stereo_44KHz.wav
1	39	2	1	0	C	1	1	1267	1	Ⴒ	cut_o_stereo_44KHz.wav
1	40	3	3	2	I	2	0	699	1	Ⴌ	cut_u_stereo_44KHz.wav
1	41	2	2	1	C	2	1	947	1	Ⴒ	cut_a_stereo_44KHz.wav
1	42	3	3	2	I	2	0	833	0	Ⴌ	cut_u_stereo_44KHz.wav
1	43	4	4	2	I	1	0	926	0	Ⴐ	cut_k_stereo_44KHz.wav
1	44	1	2	0	C	1	1	827	1	Ⴕ	cut_a_stereo_44KHz.wav
1	45	4	3	2	I	1	0	946	1	Ⴐ	cut_u_stereo_44KHz.wav
1	46	1	1	1	C	2	1	803	1	Ⴕ	cut_o_stereo_44KHz.wav
1	47	3	4	2	I	2	0	780	1	Ⴌ	cut_k_stereo_44KHz.wav
1	48	2	1	0	C	1	1	830	1	Ⴒ	cut_o_stereo_44KHz.wav
1	49	3	3	2	I	2	0	785	0	Ⴌ	cut_u_stereo_44KHz.wav
1	50	4	4	2	I	2	0	1004	0	Ⴐ	cut_k_stereo_44KHz.wav
1	51	1	2	0	C	2	0	740	0	Ⴕ	cut_a_stereo_44KHz.wav
1	52	2	1	0	C	1	1	926	1	Ⴒ	cut_o_stereo_44KHz.wav
1	53	1	1	1	C	2	1	765	1	Ⴕ	cut_o_stereo_44KHz.wav
1	54	4	3	2	I	1	0	1048	1	Ⴐ	cut_u_stereo_44KHz.wav
1	55	3	4	2	I	2	0	1219	0	Ⴌ	cut_k_stereo_44KHz.wav
1	56	2	2	1	C	2	1	898	1	Ⴒ	cut_a_stereo_44KHz.wav
1	57	4	4	2	I	1	0	908	0	Ⴐ	cut_k_stereo_44KHz.wav
1	58	2	1	0	C	1	1	902	1	Ⴒ	cut_o_stereo_44KHz.wav
1	59	3	3	2	I	2	0	1022	1	Ⴌ	cut_u_stereo_44KHz.wav
1	60	1	1	1	C	2	1	978	1	Ⴕ	cut_o_stereo_44KHz.wav
1	61	4	3	2	I	2	0	860	1	Ⴐ	cut_u_stereo_44KHz.wav
1	62	2	2	1	C	2	1	743	1	Ⴒ	cut_a_stereo_44KHz.wav
1	63	3	4	2	I	1	0	764	0	Ⴌ	cut_k_stereo_44KHz.wav
1	64	1	2	0	C	1	1	961	1	Ⴕ	cut_a_stereo_44KHz.wav
1	65	3	3	2	I	1	0	1040	0	Ⴌ	cut_u_stereo_44KHz.wav
1	66	2	1	0	C	1	1	781	1	Ⴒ	cut_o_stereo_44KHz.wav
1	67	4	4	2	I	2	0	797	1	Ⴐ	cut_k_stereo_44KHz.wav
1	68	1	2	0	C	1	1	624	1	Ⴕ	cut_a_stereo_44KHz.wav
1	69	4	3	2	I	2	0	759	1	Ⴐ	cut_u_stereo_44KHz.wav
1	70	3	4	2	I	2	0	858	1	Ⴌ	cut_k_stereo_44KHz.wav
1	71	2	2	1	C	2	1	664	1	Ⴒ	cut_a_stereo_44KHz.wav
1	72	1	1	1	C	2	1	534	1	Ⴕ	cut_o_stereo_44KHz.wav
1	73	4	4	2	I	2	0	677	1	Ⴐ	cut_k_stereo_44KHz.wav
1	74	1	2	0	C	1	1	569	1	Ⴕ	cut_a_stereo_44KHz.wav
1	75	3	3	2	I	2	0	992	1	Ⴌ	cut_u_stereo_44KHz.wav
1	76	2	1	0	C	1	1	650	1	Ⴒ	cut_o_stereo_44KHz.wav
1	77	4	3	2	I	2	0	617	0	Ⴐ	cut_u_stereo_44KHz.wav
1	78	2	2	1	C	2	1	970	1	Ⴒ	cut_a_stereo_44KHz.wav
1	79	1	1	1	C	2	1	743	1	Ⴕ	cut_o_stereo_44KHz.wav
1	80	3	4	2	I	2	0	682	1	Ⴌ	cut_k_stereo_44KHz.wav
1	81	4	4	2	I	2	0	811	0	Ⴐ	cut_k_stereo_44KHz.wav
1	82	2	1	0	C	1	1	917	1	Ⴒ	cut_o_stereo_44KHz.wav
1	83	1	1	1	C	2	1	947	1	Ⴕ	cut_o_stereo_44KHz.wav
1	84	3	4	2	I	1	0	939	0	Ⴌ	cut_k_stereo_44KHz.wav
1	85	2	2	1	C	2	1	764	1	Ⴒ	cut_a_stereo_44KHz.wav
1	86	3	3	2	I	2	0	740	0	Ⴌ	cut_u_stereo_44KHz.wav
1	87	1	2	0	C	1	1	636	1	Ⴕ	cut_a_stereo_44KHz.wav
1	88	4	3	2	I	2	0	1167	0	Ⴐ	cut_u_stereo_44KHz.wav
1	89	1	2	0	C	1	1	743	1	Ⴕ	cut_a_stereo_44KHz.wav
1	90	4	3	2	I	2	0	941	0	Ⴐ	cut_u_stereo_44KHz.wav
1	91	3	4	2	I	2	0	1065	1	Ⴌ	cut_k_stereo_44KHz.wav
1	92	2	2	1	C	2	1	748	1	Ⴒ	cut_a_stereo_44KHz.wav
1	93	3	3	2	I	2	0	953	0	Ⴌ	cut_u_stereo_44KHz.wav
1	94	1	1	1	C	2	1	656	1	Ⴕ	cut_o_stereo_44KHz.wav
1	95	4	4	2	I	1	0	1175	1	Ⴐ	cut_k_stereo_44KHz.wav
1	96	2	1	0	C	1	1	895	1	Ⴒ	cut_o_stereo_44KHz.wav
1	97	1	2	0	C	1	1	847	1	Ⴕ	cut_a_stereo_44KHz.wav
1	98	4	3	2	I	2	0	881	1	Ⴐ	cut_u_stereo_44KHz.wav
1	99	3	4	2	I	1	0	722	0	Ⴌ	cut_k_stereo_44KHz.wav
1	100	2	2	1	C	2	1	756	1	Ⴒ	cut_a_stereo_44KHz.wav
1	101	1	1	1	C	2	1	781	1	Ⴕ	cut_o_stereo_44KHz.wav
1	102	4	4	2	I	1	0	843	0	Ⴐ	cut_k_stereo_44KHz.wav
1	103	2	1	0	C	1	1	1090	1	Ⴒ	cut_o_stereo_44KHz.wav
1	104	3	3	2	I	2	0	879	0	Ⴌ	cut_u_stereo_44KHz.wav
1	105	2	2	1	C	2	1	1419	1	Ⴒ	cut_a_stereo_44KHz.wav
1	106	3	3	2	I	2	0	1065	1	Ⴌ	cut_u_stereo_44KHz.wav
1	107	1	1	1	C	2	1	957	1	Ⴕ	cut_o_stereo_44KHz.wav
1	108	4	4	2	I	1	0	906	1	Ⴐ	cut_k_stereo_44KHz.wav
1	109	1	2	0	C	1	1	910	1	Ⴕ	cut_a_stereo_44KHz.wav
1	110	2	1	0	C	1	1	831	1	Ⴒ	cut_o_stereo_44KHz.wav
1	111	4	3	2	I	2	0	771	0	Ⴐ	cut_u_stereo_44KHz.wav
1	112	3	4	2	I	2	0	1622	0	Ⴌ	cut_k_stereo_44KHz.wav
1	113	1	1	1	C	2	1	1280	1	Ⴕ	cut_o_stereo_44KHz.wav
1	114	2	2	1	C	2	1	982	1	Ⴒ	cut_a_stereo_44KHz.wav
1	115	4	3	2	I	2	0	741	0	Ⴐ	cut_u_stereo_44KHz.wav
1	116	3	4	2	I	1	0	656	1	Ⴌ	cut_k_stereo_44KHz.wav
1	117	2	1	0	C	1	1	791	1	Ⴒ	cut_o_stereo_44KHz.wav
1	118	1	2	0	C	1	1	787	1	Ⴕ	cut_a_stereo_44KHz.wav
1	119	3	3	2	I	2	0	674	1	Ⴌ	cut_u_stereo_44KHz.wav
1	120	4	4	2	I	1	0	791	1	Ⴐ	cut_k_stereo_44KHz.wav
1	121	2	2	1	C	2	1	963	1	Ⴒ	cut_a_stereo_44KHz.wav
1	122	1	1	1	C	2	1	1098	1	Ⴕ	cut_o_stereo_44KHz.wav
1	123	4	3	2	I	1	0	531	1	Ⴐ	cut_u_stereo_44KHz.wav
1	124	3	4	2	I	2	0	636	1	Ⴌ	cut_k_stereo_44KHz.wav
1	125	4	4	2	I	2	0	648	0	Ⴐ	cut_k_stereo_44KHz.wav
1	126	1	2	0	C	1	1	958	1	Ⴕ	cut_a_stereo_44KHz.wav
1	127	3	3	2	I	1	0	624	0	Ⴌ	cut_u_stereo_44KHz.wav
1	128	2	1	0	C	1	1	714	1	Ⴒ	cut_o_stereo_44KHz.wav
1	129	3	3	2	I	2	0	479	1	Ⴌ	cut_u_stereo_44KHz.wav
1	130	1	2	0	C	1	1	631	1	Ⴕ	cut_a_stereo_44KHz.wav
1	131	2	2	1	C	2	1	894	1	Ⴒ	cut_a_stereo_44KHz.wav
1	132	4	3	2	I	2	0	619	1	Ⴐ	cut_u_stereo_44KHz.wav
1	133	2	1	0	C	2	0	623	0	Ⴒ	cut_o_stereo_44KHz.wav
1	134	4	4	2	I	2	0	681	1	Ⴐ	cut_k_stereo_44KHz.wav
1	135	3	4	2	I	2	0	741	1	Ⴌ	cut_k_stereo_44KHz.wav
1	136	1	1	1	C	2	1	640	1	Ⴕ	cut_o_stereo_44KHz.wav
1	137	2	1	0	C	1	1	621	1	Ⴒ	cut_o_stereo_44KHz.wav
1	138	3	3	2	I	2	0	425	0	Ⴌ	cut_u_stereo_44KHz.wav
1	139	4	4	2	I	2	0	506	1	Ⴐ	cut_k_stereo_44KHz.wav
1	140	1	1	1	C	2	1	689	1	Ⴕ	cut_o_stereo_44KHz.wav
1	141	2	2	1	C	2	1	1249	1	Ⴒ	cut_a_stereo_44KHz.wav
1	142	3	4	2	I	2	0	648	0	Ⴌ	cut_k_stereo_44KHz.wav
1	143	4	3	2	I	2	0	547	0	Ⴐ	cut_u_stereo_44KHz.wav
1	144	1	2	0	C	1	1	715	1	Ⴕ	cut_a_stereo_44KHz.wav
1	145	4	3	2	I	2	0	432	0	Ⴐ	cut_u_stereo_44KHz.wav
1	146	1	1	1	C	2	1	633	1	Ⴕ	cut_o_stereo_44KHz.wav
1	147	3	4	2	I	2	0	600	0	Ⴌ	cut_k_stereo_44KHz.wav
1	148	2	2	1	C	2	1	777	1	Ⴒ	cut_a_stereo_44KHz.wav
1	149	1	2	0	C	1	1	642	1	Ⴕ	cut_a_stereo_44KHz.wav
1	150	2	1	0	C	1	1	565	1	Ⴒ	cut_o_stereo_44KHz.wav
1	151	4	4	2	I	2	0	861	1	Ⴐ	cut_k_stereo_44KHz.wav
1	152	3	3	2	I	2	0	559	1	Ⴌ	cut_u_stereo_44KHz.wav
1	153	4	4	2	I	1	0	455	1	Ⴐ	cut_k_stereo_44KHz.wav
1	154	2	2	1	C	2	1	851	1	Ⴒ	cut_a_stereo_44KHz.wav
1	155	1	2	0	C	1	1	630	1	Ⴕ	cut_a_stereo_44KHz.wav
1	156	3	4	2	I	2	0	514	0	Ⴌ	cut_k_stereo_44KHz.wav
1	157	4	3	2	I	2	0	523	1	Ⴐ	cut_u_stereo_44KHz.wav
1	158	1	1	1	C	2	1	703	1	Ⴕ	cut_o_stereo_44KHz.wav
1	159	3	3	2	I	1	0	530	1	Ⴌ	cut_u_stereo_44KHz.wav
1	160	2	1	0	C	1	1	727	1	Ⴒ	cut_o_stereo_44KHz.wav
1	161	4	4	2	I	1	0	534	1	Ⴐ	cut_k_stereo_44KHz.wav
1	162	3	3	2	I	2	0	513	1	Ⴌ	cut_u_stereo_44KHz.wav
1	163	1	2	0	C	1	1	676	1	Ⴕ	cut_a_stereo_44KHz.wav
1	164	2	1	0	C	2	0	651	0	Ⴒ	cut_o_stereo_44KHz.wav
1	165	4	3	2	I	1	0	526	0	Ⴐ	cut_u_stereo_44KHz.wav
1	166	1	1	1	C	2	1	684	1	Ⴕ	cut_o_stereo_44KHz.wav
1	167	2	2	1	C	2	1	592	1	Ⴒ	cut_a_stereo_44KHz.wav
1	168	3	4	2	I	1	0	616	0	Ⴌ	cut_k_stereo_44KHz.wav
1	169	2	1	0	C	1	1	683	1	Ⴒ	cut_o_stereo_44KHz.wav
1	170	4	4	2	I	1	0	706	1	Ⴐ	cut_k_stereo_44KHz.wav
1	171	3	4	2	I	2	0	540	0	Ⴌ	cut_k_stereo_44KHz.wav
1	172	1	1	1	C	2	1	737	1	Ⴕ	cut_o_stereo_44KHz.wav
1	173	4	3	2	I	1	0	627	1	Ⴐ	cut_u_stereo_44KHz.wav
1	174	2	2	1	C	2	1	701	1	Ⴒ	cut_a_stereo_44KHz.wav
1	175	3	3	2	I	2	0	526	0	Ⴌ	cut_u_stereo_44KHz.wav
1	176	1	2	0	C	1	1	687	1	Ⴕ	cut_a_stereo_44KHz.wav
1	177	2	1	0	C	1	1	633	1	Ⴒ	cut_o_stereo_44KHz.wav
1	178	1	2	0	C	1	1	515	1	Ⴕ	cut_a_stereo_44KHz.wav
1	179	4	3	2	I	1	0	582	1	Ⴐ	cut_u_stereo_44KHz.wav
1	180	3	3	2	I	2	0	429	0	Ⴌ	cut_u_stereo_44KHz.wav
1	181	2	2	1	C	2	1	1150	1	Ⴒ	cut_a_stereo_44KHz.wav
1	182	1	1	1	C	2	1	654	1	Ⴕ	cut_o_stereo_44KHz.wav
1	183	3	4	2	I	2	0	541	1	Ⴌ	cut_k_stereo_44KHz.wav
1	184	4	4	2	I	1	0	680	0	Ⴐ	cut_k_stereo_44KHz.wav
1	185	3	4	2	I	2	0	640	0	Ⴌ	cut_k_stereo_44KHz.wav
1	186	4	4	2	I	2	0	576	0	Ⴐ	cut_k_stereo_44KHz.wav
1	187	1	1	1	C	2	1	710	1	Ⴕ	cut_o_stereo_44KHz.wav
1	188	2	1	0	C	1	1	802	1	Ⴒ	cut_o_stereo_44KHz.wav
1	189	3	3	2	I	1	0	604	1	Ⴌ	cut_u_stereo_44KHz.wav
1	190	2	2	1	C	2	1	1103	1	Ⴒ	cut_a_stereo_44KHz.wav
1	191	4	3	2	I	1	0	481	0	Ⴐ	cut_u_stereo_44KHz.wav
1	192	1	2	0	C	1	1	668	1	Ⴕ	cut_a_stereo_44KHz.wav
1	193	2	1	0	C	2	0	1034	0	Ⴒ	cut_o_stereo_44KHz.wav
1	194	3	4	2	I	2	0	830	0	Ⴌ	cut_k_stereo_44KHz.wav
1	195	1	1	1	C	2	1	709	1	Ⴕ	cut_o_stereo_44KHz.wav
1	196	4	3	2	I	2	0	544	1	Ⴐ	cut_u_stereo_44KHz.wav
1	197	3	3	2	I	2	0	1110	1	Ⴌ	cut_u_stereo_44KHz.wav
1	198	1	2	0	C	1	1	581	1	Ⴕ	cut_a_stereo_44KHz.wav
1	199	4	4	2	I	1	0	491	0	Ⴐ	cut_k_stereo_44KHz.wav
1	200	2	2	1	C	2	1	1091	1	Ⴒ	cut_a_stereo_44KHz.wav
2	1	4	3	2	I	2	0	1052	1	Ⴁ	cut_n_stereo_44KHz.wav
2	2	1	2	0	C	2	0	740	0	Ⴃ	cut_r_stereo_44KHz.wav
2	3	3	3	2	I	1	0	1030	1	Ⴡ	cut_n_stereo_44KHz.wav
2	4	2	2	1	C	2	1	577	1	Ⴜ	cut_r_stereo_44KHz.wav
2	5	1	1	1	C	2	1	848	1	Ⴃ	cut_s_stereo_44KHz.wav
2	6	4	4	2	I	2	0	989	0	Ⴁ	cut_f_stereo_44KHz.wav
2	7	2	1	0	C	2	0	946	0	Ⴜ	cut_s_stereo_44KHz.wav
2	8	3	4	2	I	1	0	758	0	Ⴡ	cut_f_stereo_44KHz.wav
2	9	1	2	0	C	1	1	764	1	Ⴃ	cut_r_stereo_44KHz.wav
2	10	4	4	2	I	2	0	1044	1	Ⴁ	cut_f_stereo_44KHz.wav
2	11	2	1	0	C	1	1	743	1	Ⴜ	cut_s_stereo_44KHz.wav
2	12	3	3	2	I	1	0	1463	0	Ⴡ	cut_n_stereo_44KHz.wav
2	13	4	3	2	I	2	0	1229	0	Ⴁ	cut_n_stereo_44KHz.wav
2	14	1	1	1	C	2	1	957	1	Ⴃ	cut_s_stereo_44KHz.wav
2	15	2	2	1	C	2	1	1105	1	Ⴜ	cut_r_stereo_44KHz.wav
2	16	3	4	2	I	2	0	857	1	Ⴡ	cut_f_stereo_44KHz.wav
2	17	1	2	0	C	1	1	763	1	Ⴃ	cut_r_stereo_44KHz.wav
2	18	2	2	1	C	2	1	933	1	Ⴜ	cut_r_stereo_44KHz.wav
2	19	4	3	2	I	2	0	1124	0	Ⴁ	cut_n_stereo_44KHz.wav
2	20	3	4	2	I	2	0	811	0	Ⴡ	cut_f_stereo_44KHz.wav
2	21	4	4	2	I	2	0	1226	0	Ⴁ	cut_f_stereo_44KHz.wav
2	22	3	3	2	I	2	0	883	1	Ⴡ	cut_n_stereo_44KHz.wav
2	23	1	1	1	C	2	1	1075	1	Ⴃ	cut_s_stereo_44KHz.wav
2	24	2	1	0	C	1	1	952	1	Ⴜ	cut_s_stereo_44KHz.wav
2	25	4	4	2	I	2	0	995	1	Ⴁ	cut_f_stereo_44KHz.wav
2	26	2	2	1	C	2	1	756	1	Ⴜ	cut_r_stereo_44KHz.wav
2	27	3	3	2	I	2	0	742	0	Ⴡ	cut_n_stereo_44KHz.wav
2	28	1	2	0	C	1	1	700	1	Ⴃ	cut_r_stereo_44KHz.wav
2	29	2	1	0	C	1	1	775	1	Ⴜ	cut_s_stereo_44KHz.wav
2	30	4	3	2	I	1	0	1080	1	Ⴁ	cut_n_stereo_44KHz.wav
2	31	3	4	2	I	1	0	1124	0	Ⴡ	cut_f_stereo_44KHz.wav
2	32	1	1	1	C	2	1	770	1	Ⴃ	cut_s_stereo_44KHz.wav
2	33	2	2	1	C	2	1	781	1	Ⴜ	cut_r_stereo_44KHz.wav
2	34	4	4	2	I	1	0	1222	0	Ⴁ	cut_f_stereo_44KHz.wav
2	35	1	1	1	C	2	1	779	1	Ⴃ	cut_s_stereo_44KHz.wav
2	36	3	3	2	I	2	0	645	0	Ⴡ	cut_n_stereo_44KHz.wav
2	37	1	2	0	C	1	1	647	1	Ⴃ	cut_r_stereo_44KHz.wav
2	38	4	3	2	I	2	0	710	1	Ⴁ	cut_n_stereo_44KHz.wav
2	39	2	1	0	C	1	1	830	1	Ⴜ	cut_s_stereo_44KHz.wav
2	40	3	4	2	I	2	0	723	1	Ⴡ	cut_f_stereo_44KHz.wav
2	41	1	2	0	C	1	1	900	1	Ⴃ	cut_r_stereo_44KHz.wav
2	42	3	4	2	I	2	0	742	0	Ⴡ	cut_f_stereo_44KHz.wav
2	43	4	4	2	I	1	0	839	0	Ⴁ	cut_f_stereo_44KHz.wav
2	44	2	1	0	C	1	1	719	1	Ⴜ	cut_s_stereo_44KHz.wav
2	45	3	3	2	I	1	0	808	1	Ⴡ	cut_n_stereo_44KHz.wav
2	46	1	1	1	C	2	1	820	1	Ⴃ	cut_s_stereo_44KHz.wav
2	47	4	3	2	I	2	0	846	0	Ⴁ	cut_n_stereo_44KHz.wav
2	48	2	2	1	C	2	1	731	1	Ⴜ	cut_r_stereo_44KHz.wav
2	49	3	3	2	I	1	0	1112	1	Ⴡ	cut_n_stereo_44KHz.wav
2	50	2	1	0	C	1	1	805	1	Ⴜ	cut_s_stereo_44KHz.wav
2	51	4	4	2	I	1	0	954	1	Ⴁ	cut_f_stereo_44KHz.wav
2	52	1	1	1	C	2	1	790	1	Ⴃ	cut_s_stereo_44KHz.wav
2	53	3	4	2	I	2	0	1062	1	Ⴡ	cut_f_stereo_44KHz.wav
2	54	2	2	1	C	2	1	879	1	Ⴜ	cut_r_stereo_44KHz.wav
2	55	4	3	2	I	2	0	1741	0	Ⴁ	cut_n_stereo_44KHz.wav
2	56	1	2	0	C	1	1	954	1	Ⴃ	cut_r_stereo_44KHz.wav
2	57	3	3	2	I	2	0	647	1	Ⴡ	cut_n_stereo_44KHz.wav
2	58	2	1	0	C	2	0	1011	0	Ⴜ	cut_s_stereo_44KHz.wav
2	59	1	1	1	C	2	1	729	1	Ⴃ	cut_s_stereo_44KHz.wav
2	60	4	4	2	I	2	0	1154	0	Ⴁ	cut_f_stereo_44KHz.wav
2	61	1	2	0	C	1	1	678	1	Ⴃ	cut_r_stereo_44KHz.wav
2	62	3	4	2	I	2	0	909	0	Ⴡ	cut_f_stereo_44KHz.wav
2	63	2	2	1	C	2	1	730	1	Ⴜ	cut_r_stereo_44KHz.wav
2	64	4	3	2	I	2	0	914	0	Ⴁ	cut_n_stereo_44KHz.wav
2	65	2	2	1	C	2	1	767	1	Ⴜ	cut_r_stereo_44KHz.wav
2	66	4	4	2	I	1	0	803	1	Ⴁ	cut_f_stereo_44KHz.wav
2	67	3	3	2	I	2	0	559	0	Ⴡ	cut_n_stereo_44KHz.wav
2	68	1	2	0	C	1	1	1196	1	Ⴃ	cut_r_stereo_44KHz.wav
2	69	3	4	2	I	2	0	655	0	Ⴡ	cut_f_stereo_44KHz.wav
2	70	4	3	2	I	2	0	592	1	Ⴁ	cut_n_stereo_44KHz.wav
2	71	1	1	1	C	2	1	769	1	Ⴃ	cut_s_stereo_44KHz.wav
2	72	2	1	0	C	1	1	888	1	Ⴜ	cut_s_stereo_44KHz.wav
2	73	4	4	2	I	1	0	881	0	Ⴁ	cut_f_stereo_44KHz.wav
2	74	2	1	0	C	1	1	1241	1	Ⴜ	cut_s_stereo_44KHz.wav
2	75	1	2	0	C	1	1	830	1	Ⴃ	cut_r_stereo_44KHz.wav
2	76	3	3	2	I	2	0	959	1	Ⴡ	cut_n_stereo_44KHz.wav
2	77	2	2	1	C	2	1	907	1	Ⴜ	cut_r_stereo_44KHz.wav
2	78	3	4	2	I	1	0	868	0	Ⴡ	cut_f_stereo_44KHz.wav
2	79	4	3	2	I	1	0	1270	0	Ⴁ	cut_n_stereo_44KHz.wav
2	80	1	1	1	C	2	1	738	1	Ⴃ	cut_s_stereo_44KHz.wav
2	81	2	2	1	C	2	1	885	1	Ⴜ	cut_r_stereo_44KHz.wav
2	82	4	3	2	I	1	0	820	0	Ⴁ	cut_n_stereo_44KHz.wav
2	83	1	1	1	C	2	1	1347	1	Ⴃ	cut_s_stereo_44KHz.wav
2	84	3	4	2	I	2	0	1131	0	Ⴡ	cut_f_stereo_44KHz.wav
2	85	1	2	0	C	1	1	822	1	Ⴃ	cut_r_stereo_44KHz.wav
2	86	4	4	2	I	1	0	865	1	Ⴁ	cut_f_stereo_44KHz.wav
2	87	2	1	0	C	1	1	1014	1	Ⴜ	cut_s_stereo_44KHz.wav
2	88	3	3	2	I	2	0	715	1	Ⴡ	cut_n_stereo_44KHz.wav
2	89	2	2	1	C	2	1	1470	1	Ⴜ	cut_r_stereo_44KHz.wav
2	90	4	3	2	I	1	0	711	1	Ⴁ	cut_n_stereo_44KHz.wav
2	91	1	1	1	C	2	1	693	1	Ⴃ	cut_s_stereo_44KHz.wav
2	92	3	3	2	I	2	0	1277	1	Ⴡ	cut_n_stereo_44KHz.wav
2	93	2	1	0	C	1	1	729	1	Ⴜ	cut_s_stereo_44KHz.wav
2	94	3	4	2	I	2	0	915	1	Ⴡ	cut_f_stereo_44KHz.wav
2	95	4	4	2	I	1	0	954	1	Ⴁ	cut_f_stereo_44KHz.wav
2	96	1	2	0	C	1	1	764	1	Ⴃ	cut_r_stereo_44KHz.wav
2	97	4	3	2	I	2	0	907	0	Ⴁ	cut_n_stereo_44KHz.wav
2	98	3	3	2	I	2	0	832	0	Ⴡ	cut_n_stereo_44KHz.wav
2	99	1	1	1	C	2	1	848	1	Ⴃ	cut_s_stereo_44KHz.wav
2	100	2	2	1	C	2	1	1160	1	Ⴜ	cut_r_stereo_44KHz.wav
2	101	3	4	2	I	1	0	710	0	Ⴡ	cut_f_stereo_44KHz.wav
2	102	2	1	0	C	2	0	1044	0	Ⴜ	cut_s_stereo_44KHz.wav
2	103	4	4	2	I	2	0	1332	1	Ⴁ	cut_f_stereo_44KHz.wav
2	104	1	2	0	C	1	1	715	1	Ⴃ	cut_r_stereo_44KHz.wav
2	105	4	3	2	I	1	0	912	1	Ⴁ	cut_n_stereo_44KHz.wav
2	106	3	3	2	I	2	0	810	1	Ⴡ	cut_n_stereo_44KHz.wav
2	107	2	2	1	C	2	1	977	1	Ⴜ	cut_r_stereo_44KHz.wav
2	108	1	1	1	C	2	1	830	1	Ⴃ	cut_s_stereo_44KHz.wav
2	109	2	1	0	C	1	1	920	1	Ⴜ	cut_s_stereo_44KHz.wav
2	110	3	4	2	I	2	0	900	1	Ⴡ	cut_f_stereo_44KHz.wav
2	111	1	2	0	C	1	1	1053	1	Ⴃ	cut_r_stereo_44KHz.wav
2	112	4	4	2	I	2	0	1108	0	Ⴁ	cut_f_stereo_44KHz.wav
2	113	3	3	2	I	2	0	1157	1	Ⴡ	cut_n_stereo_44KHz.wav
2	114	4	3	2	I	1	0	1285	1	Ⴁ	cut_n_stereo_44KHz.wav
2	115	2	2	1	C	2	1	974	1	Ⴜ	cut_r_stereo_44KHz.wav
2	116	1	2	0	C	1	1	624	1	Ⴃ	cut_r_stereo_44KHz.wav
2	117	2	1	0	C	2	0	879	0	Ⴜ	cut_s_stereo_44KHz.wav
2	118	4	4	2	I	2	0	943	1	Ⴁ	cut_f_stereo_44KHz.wav
2	119	1	1	1	C	2	1	750	1	Ⴃ	cut_s_stereo_44KHz.wav
2	120	3	4	2	I	2	0	910	1	Ⴡ	cut_f_stereo_44KHz.wav
2	121	2	1	0	C	1	1	1022	1	Ⴜ	cut_s_stereo_44KHz.wav
2	122	4	4	2	I	1	0	924	1	Ⴁ	cut_f_stereo_44KHz.wav
2	123	3	3	2	I	2	0	839	0	Ⴡ	cut_n_stereo_44KHz.wav
2	124	1	1	1	C	2	1	1132	1	Ⴃ	cut_s_stereo_44KHz.wav
2	125	3	4	2	I	1	0	868	0	Ⴡ	cut_f_stereo_44KHz.wav
2	126	2	2	1	C	2	1	767	1	Ⴜ	cut_r_stereo_44KHz.wav
2	127	4	3	2	I	1	0	1010	1	Ⴁ	cut_n_stereo_44KHz.wav
2	128	1	2	0	C	1	1	777	1	Ⴃ	cut_r_stereo_44KHz.wav
2	129	2	2	1	C	2	1	828	1	Ⴜ	cut_r_stereo_44KHz.wav
2	130	1	1	1	C	2	1	648	1	Ⴃ	cut_s_stereo_44KHz.wav
2	131	3	4	2	I	2	0	926	1	Ⴡ	cut_f_stereo_44KHz.wav
2	132	4	4	2	I	2	0	906	0	Ⴁ	cut_f_stereo_44KHz.wav
2	133	1	2	0	C	1	1	721	1	Ⴃ	cut_r_stereo_44KHz.wav
2	134	2	1	0	C	1	1	937	1	Ⴜ	cut_s_stereo_44KHz.wav
2	135	4	3	2	I	1	0	1156	1	Ⴁ	cut_n_stereo_44KHz.wav
2	136	3	3	2	I	2	0	1184	1	Ⴡ	cut_n_stereo_44KHz.wav
2	137	1	1	1	C	2	1	1119	1	Ⴃ	cut_s_stereo_44KHz.wav
2	138	3	4	2	I	2	0	1032	1	Ⴡ	cut_f_stereo_44KHz.wav
2	139	2	1	0	C	1	1	1356	1	Ⴜ	cut_s_stereo_44KHz.wav
2	140	4	3	2	I	1	0	1776	1	Ⴁ	cut_n_stereo_44KHz.wav
2	141	2	2	1	C	2	1	1719	1	Ⴜ	cut_r_stereo_44KHz.wav
2	142	3	3	2	I	2	0	1165	0	Ⴡ	cut_n_stereo_44KHz.wav
2	143	1	2	0	C	1	1	1123	1	Ⴃ	cut_r_stereo_44KHz.wav
2	144	4	4	2	I	2	0	1311	1	Ⴁ	cut_f_stereo_44KHz.wav
2	145	2	2	1	C	2	1	1340	1	Ⴜ	cut_r_stereo_44KHz.wav
2	146	1	2	0	C	1	1	742	1	Ⴃ	cut_r_stereo_44KHz.wav
2	147	4	4	2	I	2	0	934	0	Ⴁ	cut_f_stereo_44KHz.wav
2	148	3	3	2	I	2	0	1363	1	Ⴡ	cut_n_stereo_44KHz.wav
2	149	2	1	0	C	1	1	1582	1	Ⴜ	cut_s_stereo_44KHz.wav
2	150	3	4	2	I	2	0	1123	0	Ⴡ	cut_f_stereo_44KHz.wav
2	151	1	1	1	C	2	1	1256	1	Ⴃ	cut_s_stereo_44KHz.wav
2	152	4	3	2	I	1	0	834	1	Ⴁ	cut_n_stereo_44KHz.wav
2	153	3	4	2	I	2	0	986	0	Ⴡ	cut_f_stereo_44KHz.wav
2	154	2	2	1	C	2	1	818	1	Ⴜ	cut_r_stereo_44KHz.wav
2	155	1	1	1	C	2	1	1005	1	Ⴃ	cut_s_stereo_44KHz.wav
2	156	4	4	2	I	2	0	871	0	Ⴁ	cut_f_stereo_44KHz.wav
2	157	1	2	0	C	1	1	1038	1	Ⴃ	cut_r_stereo_44KHz.wav
2	158	4	3	2	I	2	0	1175	0	Ⴁ	cut_n_stereo_44KHz.wav
2	159	2	1	0	C	1	1	1158	1	Ⴜ	cut_s_stereo_44KHz.wav
2	160	3	3	2	I	2	0	908	0	Ⴡ	cut_n_stereo_44KHz.wav
2	161	1	2	0	C	1	1	752	1	Ⴃ	cut_r_stereo_44KHz.wav
2	162	2	1	0	C	1	1	697	1	Ⴜ	cut_s_stereo_44KHz.wav
2	163	4	3	2	I	2	0	972	0	Ⴁ	cut_n_stereo_44KHz.wav
2	164	3	3	2	I	2	0	700	1	Ⴡ	cut_n_stereo_44KHz.wav
2	165	2	2	1	C	2	1	780	1	Ⴜ	cut_r_stereo_44KHz.wav
2	166	1	1	1	C	2	1	783	1	Ⴃ	cut_s_stereo_44KHz.wav
2	167	4	4	2	I	1	0	949	0	Ⴁ	cut_f_stereo_44KHz.wav
2	168	3	4	2	I	2	0	623	0	Ⴡ	cut_f_stereo_44KHz.wav
2	169	2	1	0	C	1	1	882	1	Ⴜ	cut_s_stereo_44KHz.wav
2	170	3	4	2	I	2	0	982	1	Ⴡ	cut_f_stereo_44KHz.wav
2	171	1	2	0	C	1	1	1302	1	Ⴃ	cut_r_stereo_44KHz.wav
2	172	4	3	2	I	1	0	914	0	Ⴁ	cut_n_stereo_44KHz.wav
2	173	3	3	2	I	1	0	837	0	Ⴡ	cut_n_stereo_44KHz.wav
2	174	1	1	1	C	2	1	1510	1	Ⴃ	cut_s_stereo_44KHz.wav
2	175	2	2	1	C	2	1	948	1	Ⴜ	cut_r_stereo_44KHz.wav
2	176	4	4	2	I	1	0	798	0	Ⴁ	cut_f_stereo_44KHz.wav
2	177	1	1	1	C	2	1	829	1	Ⴃ	cut_s_stereo_44KHz.wav
2	178	2	1	0	C	1	1	755	1	Ⴜ	cut_s_stereo_44KHz.wav
2	179	3	4	2	I	2	0	1249	1	Ⴡ	cut_f_stereo_44KHz.wav
2	180	4	3	2	I	2	0	1297	1	Ⴁ	cut_n_stereo_44KHz.wav
2	181	1	2	0	C	1	1	621	1	Ⴃ	cut_r_stereo_44KHz.wav
2	182	3	3	2	I	2	0	625	0	Ⴡ	cut_n_stereo_44KHz.wav
2	183	2	2	1	C	2	1	1857	1	Ⴜ	cut_r_stereo_44KHz.wav
2	184	4	4	2	I	2	0	760	1	Ⴁ	cut_f_stereo_44KHz.wav
2	185	2	1	0	C	1	1	1446	1	Ⴜ	cut_s_stereo_44KHz.wav
2	186	4	4	2	I	2	0	938	0	Ⴁ	cut_f_stereo_44KHz.wav
2	187	3	4	2	I	2	0	539	1	Ⴡ	cut_f_stereo_44KHz.wav
2	188	1	2	0	C	1	1	1376	1	Ⴃ	cut_r_stereo_44KHz.wav
2	189	2	2	1	C	2	1	1082	1	Ⴜ	cut_r_stereo_44KHz.wav
2	190	3	3	2	I	2	0	1172	0	Ⴡ	cut_n_stereo_44KHz.wav
2	191	4	3	2	I	2	0	1087	1	Ⴁ	cut_n_stereo_44KHz.wav
2	192	1	1	1	C	2	1	1143	1	Ⴃ	cut_s_stereo_44KHz.wav
2	193	2	2	1	C	2	1	1140	1	Ⴜ	cut_r_stereo_44KHz.wav
2	194	4	4	2	I	2	0	1216	0	Ⴁ	cut_f_stereo_44KHz.wav
2	195	1	2	0	C	1	1	902	1	Ⴃ	cut_r_stereo_44KHz.wav
2	196	3	4	2	I	2	0	807	1	Ⴡ	cut_f_stereo_44KHz.wav
2	197	2	1	0	C	2	0	969	0	Ⴜ	cut_s_stereo_44KHz.wav
2	198	4	3	2	I	2	0	600	1	Ⴁ	cut_n_stereo_44KHz.wav
2	199	3	3	2	I	2	0	1489	0	Ⴡ	cut_n_stereo_44KHz.wav
2	200	1	1	1	C	2	1	977	1	Ⴃ	cut_s_stereo_44KHz.wav
3	1	2	1	0	C	2	0	1116	0	Ⴏ	cut_h_stereo_44KHz.wav
3	2	1	2	0	C	2	0	676	0	Ⴔ	cut_g_stereo_44KHz.wav
3	3	4	3	2	I	2	0	523	1	Ⴖ	cut_w_stereo_44KHz.wav
3	4	3	3	2	I	2	0	792	0	Ⴉ	cut_w_stereo_44KHz.wav
3	5	2	2	1	C	1	0	783	0	Ⴏ	cut_g_stereo_44KHz.wav
3	6	4	4	2	I	2	0	945	1	Ⴖ	cut_l_stereo_44KHz.wav
3	7	3	4	2	I	2	0	757	1	Ⴉ	cut_l_stereo_44KHz.wav
3	8	1	1	1	C	1	0	1222	0	Ⴔ	cut_h_stereo_44KHz.wav
3	9	3	4	2	I	2	0	1122	0	Ⴉ	cut_l_stereo_44KHz.wav
3	10	2	1	0	C	2	0	1302	0	Ⴏ	cut_h_stereo_44KHz.wav
3	11	4	3	2	I	2	0	986	1	Ⴖ	cut_w_stereo_44KHz.wav
3	12	1	1	1	C	1	0	1055	0	Ⴔ	cut_h_stereo_44KHz.wav
3	13	3	3	2	I	2	0	1064	0	Ⴉ	cut_w_stereo_44KHz.wav
3	14	1	2	0	C	2	0	1107	0	Ⴔ	cut_g_stereo_44KHz.wav
3	15	2	2	1	C	2	1	623	1	Ⴏ	cut_g_stereo_44KHz.wav
3	16	4	4	2	I	2	0	661	0	Ⴖ	cut_l_stereo_44KHz.wav
3	17	3	4	2	I	2	0	1126	0	Ⴉ	cut_l_stereo_44KHz.wav
3	18	1	1	1	C	2	1	1212	1	Ⴔ	cut_h_stereo_44KHz.wav
3	19	4	3	2	I	2	0	749	0	Ⴖ	cut_w_stereo_44KHz.wav
3	20	2	1	0	C	2	0	754	0	Ⴏ	cut_h_stereo_44KHz.wav
3	21	1	2	0	C	1	1	920	1	Ⴔ	cut_g_stereo_44KHz.wav
3	22	4	4	2	I	0	0	0	0	Ⴖ	cut_l_stereo_44KHz.wav
3	23	2	2	1	C	2	1	428	1	Ⴏ	cut_g_stereo_44KHz.wav
3	24	3	3	2	I	1	0	630	0	Ⴉ	cut_w_stereo_44KHz.wav
3	25	4	4	2	I	2	0	480	0	Ⴖ	cut_l_stereo_44KHz.wav
3	26	3	3	2	I	2	0	520	1	Ⴉ	cut_w_stereo_44KHz.wav
3	27	2	2	1	C	2	1	511	1	Ⴏ	cut_g_stereo_44KHz.wav
3	28	1	2	0	C	1	1	339	1	Ⴔ	cut_g_stereo_44KHz.wav
3	29	4	3	2	I	2	0	603	0	Ⴖ	cut_w_stereo_44KHz.wav
3	30	2	1	0	C	2	0	654	0	Ⴏ	cut_h_stereo_44KHz.wav
3	31	1	1	1	C	1	0	694	0	Ⴔ	cut_h_stereo_44KHz.wav
3	32	3	4	2	I	2	0	407	0	Ⴉ	cut_l_stereo_44KHz.wav
3	33	1	2	0	C	2	0	981	0	Ⴔ	cut_g_stereo_44KHz.wav
3	34	3	3	2	I	1	0	808	0	Ⴉ	cut_w_stereo_44KHz.wav
3	35	2	2	1	C	1	0	858	0	Ⴏ	cut_g_stereo_44KHz.wav
3	36	4	3	2	I	2	0	945	1	Ⴖ	cut_w_stereo_44KHz.wav
3	37	2	1	0	C	1	1	908	1	Ⴏ	cut_h_stereo_44KHz.wav
3	38	4	4	2	I	1	0	1192	1	Ⴖ	cut_l_stereo_44KHz.wav
3	39	3	4	2	I	2	0	844	0	Ⴉ	cut_l_stereo_44KHz.wav
3	40	1	1	1	C	1	0	1060	0	Ⴔ	cut_h_stereo_44KHz.wav
3	41	4	4	2	I	2	0	441	1	Ⴖ	cut_l_stereo_44KHz.wav
3	42	3	4	2	I	1	0	1144	1	Ⴉ	cut_l_stereo_44KHz.wav
3	43	1	1	1	C	1	0	1287	0	Ⴔ	cut_h_stereo_44KHz.wav
3	44	2	1	0	C	1	1	767	1	Ⴏ	cut_h_stereo_44KHz.wav
3	45	4	3	2	I	1	0	854	0	Ⴖ	cut_w_stereo_44KHz.wav
3	46	3	3	2	I	1	0	1090	1	Ⴉ	cut_w_stereo_44KHz.wav
3	47	1	2	0	C	2	0	1153	0	Ⴔ	cut_g_stereo_44KHz.wav
3	48	2	2	1	C	1	0	766	0	Ⴏ	cut_g_stereo_44KHz.wav
3	49	3	3	2	I	2	0	1002	1	Ⴉ	cut_w_stereo_44KHz.wav
3	50	2	2	1	C	2	1	863	1	Ⴏ	cut_g_stereo_44KHz.wav
3	51	1	1	1	C	2	1	712	1	Ⴔ	cut_h_stereo_44KHz.wav
3	52	4	4	2	I	1	0	1138	1	Ⴖ	cut_l_stereo_44KHz.wav
3	53	2	1	0	C	2	0	710	0	Ⴏ	cut_h_stereo_44KHz.wav
3	54	1	2	0	C	2	0	994	0	Ⴔ	cut_g_stereo_44KHz.wav
3	55	3	4	2	I	2	0	868	0	Ⴉ	cut_l_stereo_44KHz.wav
3	56	4	3	2	I	2	0	850	1	Ⴖ	cut_w_stereo_44KHz.wav
3	57	2	2	1	C	2	1	1000	1	Ⴏ	cut_g_stereo_44KHz.wav
3	58	1	2	0	C	2	0	725	0	Ⴔ	cut_g_stereo_44KHz.wav
3	59	3	4	2	I	1	0	639	1	Ⴉ	cut_l_stereo_44KHz.wav
3	60	4	4	2	I	1	0	900	1	Ⴖ	cut_l_stereo_44KHz.wav
3	61	3	3	2	I	2	0	726	0	Ⴉ	cut_w_stereo_44KHz.wav
3	62	1	1	1	C	2	1	1060	1	Ⴔ	cut_h_stereo_44KHz.wav
3	63	4	3	2	I	2	0	1058	0	Ⴖ	cut_w_stereo_44KHz.wav
3	64	2	1	0	C	2	0	818	0	Ⴏ	cut_h_stereo_44KHz.wav
3	65	1	2	0	C	2	0	727	0	Ⴔ	cut_g_stereo_44KHz.wav
3	66	2	2	1	C	1	0	1137	0	Ⴏ	cut_g_stereo_44KHz.wav
3	67	4	4	2	I	1	0	734	0	Ⴖ	cut_l_stereo_44KHz.wav
3	68	3	3	2	I	2	0	660	1	Ⴉ	cut_w_stereo_44KHz.wav
3	69	4	3	2	I	2	0	737	1	Ⴖ	cut_w_stereo_44KHz.wav
3	70	2	1	0	C	1	1	1107	1	Ⴏ	cut_h_stereo_44KHz.wav
3	71	1	1	1	C	2	1	684	1	Ⴔ	cut_h_stereo_44KHz.wav
3	72	3	4	2	I	2	0	747	1	Ⴉ	cut_l_stereo_44KHz.wav
3	73	1	1	1	C	2	1	753	1	Ⴔ	cut_h_stereo_44KHz.wav
3	74	4	4	2	I	1	0	1011	0	Ⴖ	cut_l_stereo_44KHz.wav
3	75	3	3	2	I	1	0	830	0	Ⴉ	cut_w_stereo_44KHz.wav
3	76	2	1	0	C	1	1	1056	1	Ⴏ	cut_h_stereo_44KHz.wav
3	77	4	3	2	I	2	0	737	1	Ⴖ	cut_w_stereo_44KHz.wav
3	78	2	2	1	C	2	1	1045	1	Ⴏ	cut_g_stereo_44KHz.wav
3	79	3	4	2	I	1	0	592	1	Ⴉ	cut_l_stereo_44KHz.wav
3	80	1	2	0	C	2	0	835	0	Ⴔ	cut_g_stereo_44KHz.wav
3	81	4	4	2	I	1	0	620	0	Ⴖ	cut_l_stereo_44KHz.wav
3	82	3	4	2	I	2	0	1099	0	Ⴉ	cut_l_stereo_44KHz.wav
3	83	1	1	1	C	1	0	741	0	Ⴔ	cut_h_stereo_44KHz.wav
3	84	2	1	0	C	1	1	1077	1	Ⴏ	cut_h_stereo_44KHz.wav
3	85	1	2	0	C	2	0	712	0	Ⴔ	cut_g_stereo_44KHz.wav
3	86	2	2	1	C	1	0	630	0	Ⴏ	cut_g_stereo_44KHz.wav
3	87	4	3	2	I	2	0	618	0	Ⴖ	cut_w_stereo_44KHz.wav
3	88	3	3	2	I	2	0	595	1	Ⴉ	cut_w_stereo_44KHz.wav
3	89	1	1	1	C	1	0	838	0	Ⴔ	cut_h_stereo_44KHz.wav
3	90	3	4	2	I	1	0	710	0	Ⴉ	cut_l_stereo_44KHz.wav
3	91	2	2	1	C	2	1	807	1	Ⴏ	cut_g_stereo_44KHz.wav
3	92	4	4	2	I	1	0	939	0	Ⴖ	cut_l_stereo_44KHz.wav
3	93	2	1	0	C	2	0	1006	0	Ⴏ	cut_h_stereo_44KHz.wav
3	94	1	2	0	C	1	1	738	1	Ⴔ	cut_g_stereo_44KHz.wav
3	95	4	3	2	I	2	0	967	0	Ⴖ	cut_w_stereo_44KHz.wav
3	96	3	3	2	I	2	0	790	0	Ⴉ	cut_w_stereo_44KHz.wav
3	97	1	1	1	C	2	1	768	1	Ⴔ	cut_h_stereo_44KHz.wav
3	98	3	3	2	I	2	0	857	1	Ⴉ	cut_w_stereo_44KHz.wav
3	99	4	4	2	I	2	0	1616	1	Ⴖ	cut_l_stereo_44KHz.wav
3	100	2	2	1	C	2	1	1015	1	Ⴏ	cut_g_stereo_44KHz.wav
3	101	3	4	2	I	2	0	997	1	Ⴉ	cut_l_stereo_44KHz.wav
3	102	2	1	0	C	1	1	799	1	Ⴏ	cut_h_stereo_44KHz.wav
3	103	1	2	0	C	2	0	806	0	Ⴔ	cut_g_stereo_44KHz.wav
3	104	4	3	2	I	1	0	610	0	Ⴖ	cut_w_stereo_44KHz.wav
3	105	2	2	1	C	2	1	738	1	Ⴏ	cut_g_stereo_44KHz.wav
3	106	1	1	1	C	2	1	897	1	Ⴔ	cut_h_stereo_44KHz.wav
3	107	3	4	2	I	1	0	1176	1	Ⴉ	cut_l_stereo_44KHz.wav
3	108	4	3	2	I	2	0	829	1	Ⴖ	cut_w_stereo_44KHz.wav
3	109	3	3	2	I	1	0	759	1	Ⴉ	cut_w_stereo_44KHz.wav
3	110	4	4	2	I	2	0	625	1	Ⴖ	cut_l_stereo_44KHz.wav
3	111	2	1	0	C	1	1	718	1	Ⴏ	cut_h_stereo_44KHz.wav
3	112	1	2	0	C	2	0	887	0	Ⴔ	cut_g_stereo_44KHz.wav
3	113	2	2	1	C	1	0	513	0	Ⴏ	cut_g_stereo_44KHz.wav
3	114	3	3	2	I	2	0	602	1	Ⴉ	cut_w_stereo_44KHz.wav
3	115	4	3	2	I	2	0	968	1	Ⴖ	cut_w_stereo_44KHz.wav
3	116	1	2	0	C	2	0	992	0	Ⴔ	cut_g_stereo_44KHz.wav
3	117	3	4	2	I	2	0	625	1	Ⴉ	cut_l_stereo_44KHz.wav
3	118	2	1	0	C	1	1	662	1	Ⴏ	cut_h_stereo_44KHz.wav
3	119	4	4	2	I	2	0	1004	0	Ⴖ	cut_l_stereo_44KHz.wav
3	120	1	1	1	C	1	0	776	0	Ⴔ	cut_h_stereo_44KHz.wav
3	121	4	3	2	I	2	0	877	0	Ⴖ	cut_w_stereo_44KHz.wav
3	122	3	4	2	I	1	0	766	0	Ⴉ	cut_l_stereo_44KHz.wav
3	123	2	2	1	C	1	0	1171	0	Ⴏ	cut_g_stereo_44KHz.wav
3	124	1	2	0	C	2	0	595	0	Ⴔ	cut_g_stereo_44KHz.wav
3	125	2	1	0	C	1	1	1065	1	Ⴏ	cut_h_stereo_44KHz.wav
3	126	1	1	1	C	2	1	663	1	Ⴔ	cut_h_stereo_44KHz.wav
3	127	4	4	2	I	1	0	1237	1	Ⴖ	cut_l_stereo_44KHz.wav
3	128	3	3	2	I	2	0	941	1	Ⴉ	cut_w_stereo_44KHz.wav
3	129	1	1	1	C	2	1	890	1	Ⴔ	cut_h_stereo_44KHz.wav
3	130	4	3	2	I	2	0	746	1	Ⴖ	cut_w_stereo_44KHz.wav
3	131	2	2	1	C	1	0	542	0	Ⴏ	cut_g_stereo_44KHz.wav
3	132	3	3	2	I	2	0	773	1	Ⴉ	cut_w_stereo_44KHz.wav
3	133	4	4	2	I	2	0	918	0	Ⴖ	cut_l_stereo_44KHz.wav
3	134	2	1	0	C	2	0	958	0	Ⴏ	cut_h_stereo_44KHz.wav
3	135	3	4	2	I	2	0	1674	1	Ⴉ	cut_l_stereo_44KHz.wav
3	136	1	2	0	C	1	1	790	1	Ⴔ	cut_g_stereo_44KHz.wav
3	137	3	4	2	I	2	0	627	0	Ⴉ	cut_l_stereo_44KHz.wav
3	138	4	4	2	I	1	0	618	0	Ⴖ	cut_l_stereo_44KHz.wav
3	139	1	2	0	C	1	1	818	1	Ⴔ	cut_g_stereo_44KHz.wav
3	140	2	1	0	C	1	1	654	1	Ⴏ	cut_h_stereo_44KHz.wav
3	141	1	1	1	C	2	1	639	1	Ⴔ	cut_h_stereo_44KHz.wav
3	142	2	2	1	C	1	0	685	0	Ⴏ	cut_g_stereo_44KHz.wav
3	143	3	3	2	I	2	0	1014	0	Ⴉ	cut_w_stereo_44KHz.wav
3	144	4	3	2	I	1	0	1212	1	Ⴖ	cut_w_stereo_44KHz.wav
3	145	1	2	0	C	1	1	773	1	Ⴔ	cut_g_stereo_44KHz.wav
3	146	4	3	2	I	2	0	625	1	Ⴖ	cut_w_stereo_44KHz.wav
3	147	3	3	2	I	1	0	794	0	Ⴉ	cut_w_stereo_44KHz.wav
3	148	2	2	1	C	1	0	616	0	Ⴏ	cut_g_stereo_44KHz.wav
3	149	4	4	2	I	2	0	856	0	Ⴖ	cut_l_stereo_44KHz.wav
3	150	1	1	1	C	2	1	642	1	Ⴔ	cut_h_stereo_44KHz.wav
3	151	3	4	2	I	1	0	724	0	Ⴉ	cut_l_stereo_44KHz.wav
3	152	2	1	0	C	2	0	726	0	Ⴏ	cut_h_stereo_44KHz.wav
3	153	3	4	2	I	2	0	1038	0	Ⴉ	cut_l_stereo_44KHz.wav
3	154	2	2	1	C	2	1	687	1	Ⴏ	cut_g_stereo_44KHz.wav
3	155	4	3	2	I	1	0	710	0	Ⴖ	cut_w_stereo_44KHz.wav
3	156	1	2	0	C	1	1	674	1	Ⴔ	cut_g_stereo_44KHz.wav
3	157	2	1	0	C	1	1	798	1	Ⴏ	cut_h_stereo_44KHz.wav
3	158	1	1	1	C	2	1	822	1	Ⴔ	cut_h_stereo_44KHz.wav
3	159	4	4	2	I	2	0	790	1	Ⴖ	cut_l_stereo_44KHz.wav
3	160	3	3	2	I	2	0	676	1	Ⴉ	cut_w_stereo_44KHz.wav
3	161	1	2	0	C	2	0	1015	0	Ⴔ	cut_g_stereo_44KHz.wav
3	162	4	3	2	I	1	0	1099	1	Ⴖ	cut_w_stereo_44KHz.wav
3	163	2	2	1	C	2	1	744	1	Ⴏ	cut_g_stereo_44KHz.wav
3	164	3	3	2	I	2	0	699	1	Ⴉ	cut_w_stereo_44KHz.wav
3	165	2	1	0	C	2	0	1241	0	Ⴏ	cut_h_stereo_44KHz.wav
3	166	3	4	2	I	1	0	1404	1	Ⴉ	cut_l_stereo_44KHz.wav
3	167	4	4	2	I	2	0	1253	1	Ⴖ	cut_l_stereo_44KHz.wav
3	168	1	1	1	C	2	1	941	1	Ⴔ	cut_h_stereo_44KHz.wav
3	169	2	1	0	C	1	1	1305	1	Ⴏ	cut_h_stereo_44KHz.wav
3	170	1	2	0	C	1	1	887	1	Ⴔ	cut_g_stereo_44KHz.wav
3	171	3	4	2	I	2	0	923	0	Ⴉ	cut_l_stereo_44KHz.wav
3	172	4	3	2	I	2	0	879	0	Ⴖ	cut_w_stereo_44KHz.wav
3	173	2	2	1	C	2	1	899	1	Ⴏ	cut_g_stereo_44KHz.wav
3	174	3	3	2	I	2	0	1155	1	Ⴉ	cut_w_stereo_44KHz.wav
3	175	4	4	2	I	1	0	1336	0	Ⴖ	cut_l_stereo_44KHz.wav
3	176	1	1	1	C	2	1	864	1	Ⴔ	cut_h_stereo_44KHz.wav
3	177	4	4	2	I	2	0	1178	0	Ⴖ	cut_l_stereo_44KHz.wav
3	178	2	1	0	C	1	1	701	1	Ⴏ	cut_h_stereo_44KHz.wav
3	179	1	2	0	C	2	0	1384	0	Ⴔ	cut_g_stereo_44KHz.wav
3	180	3	4	2	I	1	0	664	1	Ⴉ	cut_l_stereo_44KHz.wav
3	181	1	1	1	C	2	1	615	1	Ⴔ	cut_h_stereo_44KHz.wav
3	182	3	3	2	I	2	0	771	1	Ⴉ	cut_w_stereo_44KHz.wav
3	183	4	3	2	I	2	0	1407	1	Ⴖ	cut_w_stereo_44KHz.wav
3	184	2	2	1	C	2	1	924	1	Ⴏ	cut_g_stereo_44KHz.wav
3	185	4	4	2	I	2	0	1035	0	Ⴖ	cut_l_stereo_44KHz.wav
3	186	3	4	2	I	2	0	540	0	Ⴉ	cut_l_stereo_44KHz.wav
3	187	2	2	1	C	1	0	720	0	Ⴏ	cut_g_stereo_44KHz.wav
3	188	1	2	0	C	2	0	684	0	Ⴔ	cut_g_stereo_44KHz.wav
3	189	3	3	2	I	2	0	743	0	Ⴉ	cut_w_stereo_44KHz.wav
3	190	4	3	2	I	2	0	867	1	Ⴖ	cut_w_stereo_44KHz.wav
3	191	1	1	1	C	2	1	716	1	Ⴔ	cut_h_stereo_44KHz.wav
3	192	2	1	0	C	2	0	818	0	Ⴏ	cut_h_stereo_44KHz.wav
3	193	3	4	2	I	2	0	1014	0	Ⴉ	cut_l_stereo_44KHz.wav
3	194	1	1	1	C	2	1	796	1	Ⴔ	cut_h_stereo_44KHz.wav
3	195	4	3	2	I	2	0	1244	0	Ⴖ	cut_w_stereo_44KHz.wav
3	196	2	2	1	C	2	1	651	1	Ⴏ	cut_g_stereo_44KHz.wav
3	197	4	4	2	I	2	0	1156	0	Ⴖ	cut_l_stereo_44KHz.wav
3	198	2	1	0	C	1	1	783	1	Ⴏ	cut_h_stereo_44KHz.wav
3	199	3	3	2	I	2	0	648	0	Ⴉ	cut_w_stereo_44KHz.wav
3	200	1	2	0	C	1	1	1144	1	Ⴔ	cut_g_stereo_44KHz.wav
4	1	3	4	2	I	2	0	807	1	Ⴇ	cut_ei_stereo_44KHz.wav
4	2	4	3	2	I	1	0	711	0	Ⴂ	cut_oei_stereo_44KHz.wav
4	3	2	1	0	C	2	0	957	0	Ⴟ	cut_ui_stereo_44KHz.wav
4	4	1	2	0	C	1	1	882	1	Ⴊ	cut_j_stereo_44KHz.wav
4	5	4	4	2	I	1	0	732	0	Ⴂ	cut_ei_stereo_44KHz.wav
4	6	2	2	1	C	2	1	541	1	Ⴟ	cut_j_stereo_44KHz.wav
4	7	3	3	2	I	1	0	779	0	Ⴇ	cut_oei_stereo_44KHz.wav
4	8	1	1	1	C	1	0	1034	0	Ⴊ	cut_ui_stereo_44KHz.wav
4	9	2	1	0	C	2	0	911	0	Ⴟ	cut_ui_stereo_44KHz.wav
4	10	4	3	2	I	1	0	673	1	Ⴂ	cut_oei_stereo_44KHz.wav
4	11	3	4	2	I	2	0	842	0	Ⴇ	cut_ei_stereo_44KHz.wav
4	12	1	2	0	C	1	1	805	1	Ⴊ	cut_j_stereo_44KHz.wav
4	13	3	3	2	I	1	0	792	0	Ⴇ	cut_oei_stereo_44KHz.wav
4	14	2	2	1	C	1	0	709	0	Ⴟ	cut_j_stereo_44KHz.wav
4	15	1	1	1	C	2	1	708	1	Ⴊ	cut_ui_stereo_44KHz.wav
4	16	4	4	2	I	1	0	504	0	Ⴂ	cut_ei_stereo_44KHz.wav
4	17	1	2	0	C	2	0	559	0	Ⴊ	cut_j_stereo_44KHz.wav
4	18	4	4	2	I	2	0	523	0	Ⴂ	cut_ei_stereo_44KHz.wav
4	19	3	4	2	I	1	0	390	1	Ⴇ	cut_ei_stereo_44KHz.wav
4	20	2	1	0	C	1	1	970	1	Ⴟ	cut_ui_stereo_44KHz.wav
4	21	4	3	2	I	2	0	879	0	Ⴂ	cut_oei_stereo_44KHz.wav
4	22	2	2	1	C	1	0	583	0	Ⴟ	cut_j_stereo_44KHz.wav
4	23	3	3	2	I	2	0	477	0	Ⴇ	cut_oei_stereo_44KHz.wav
4	24	1	1	1	C	1	0	304	0	Ⴊ	cut_ui_stereo_44KHz.wav
4	25	3	3	2	I	2	0	1337	0	Ⴇ	cut_oei_stereo_44KHz.wav
4	26	4	3	2	I	2	0	632	0	Ⴂ	cut_oei_stereo_44KHz.wav
4	27	1	2	0	C	1	1	982	1	Ⴊ	cut_j_stereo_44KHz.wav
4	28	2	2	1	C	2	1	792	1	Ⴟ	cut_j_stereo_44KHz.wav
4	29	1	1	1	C	2	1	945	1	Ⴊ	cut_ui_stereo_44KHz.wav
4	30	2	1	0	C	2	0	867	0	Ⴟ	cut_ui_stereo_44KHz.wav
4	31	3	4	2	I	1	0	1237	1	Ⴇ	cut_ei_stereo_44KHz.wav
4	32	4	4	2	I	2	0	1101	0	Ⴂ	cut_ei_stereo_44KHz.wav
4	33	2	2	1	C	1	0	833	0	Ⴟ	cut_j_stereo_44KHz.wav
4	34	3	3	2	I	2	0	785	1	Ⴇ	cut_oei_stereo_44KHz.wav
4	35	4	4	2	I	1	0	809	0	Ⴂ	cut_ei_stereo_44KHz.wav
4	36	1	1	1	C	2	1	636	1	Ⴊ	cut_ui_stereo_44KHz.wav
4	37	3	4	2	I	2	0	800	1	Ⴇ	cut_ei_stereo_44KHz.wav
4	38	4	3	2	I	2	0	680	1	Ⴂ	cut_oei_stereo_44KHz.wav
4	39	1	2	0	C	1	1	679	1	Ⴊ	cut_j_stereo_44KHz.wav
4	40	2	1	0	C	1	1	602	1	Ⴟ	cut_ui_stereo_44KHz.wav
4	41	1	2	0	C	2	0	485	0	Ⴊ	cut_j_stereo_44KHz.wav
4	42	2	1	0	C	1	1	735	1	Ⴟ	cut_ui_stereo_44KHz.wav
4	43	4	3	2	I	2	0	873	1	Ⴂ	cut_oei_stereo_44KHz.wav
4	44	3	3	2	I	2	0	595	0	Ⴇ	cut_oei_stereo_44KHz.wav
4	45	1	1	1	C	1	0	554	0	Ⴊ	cut_ui_stereo_44KHz.wav
4	46	3	4	2	I	2	0	441	1	Ⴇ	cut_ei_stereo_44KHz.wav
4	47	4	4	2	I	1	0	1243	1	Ⴂ	cut_ei_stereo_44KHz.wav
4	48	2	2	1	C	1	0	1211	0	Ⴟ	cut_j_stereo_44KHz.wav
4	49	1	1	1	C	2	1	618	1	Ⴊ	cut_ui_stereo_44KHz.wav
4	50	3	4	2	I	1	0	718	0	Ⴇ	cut_ei_stereo_44KHz.wav
4	51	2	1	0	C	2	0	836	0	Ⴟ	cut_ui_stereo_44KHz.wav
4	52	4	3	2	I	2	0	847	1	Ⴂ	cut_oei_stereo_44KHz.wav
4	53	1	2	0	C	1	1	888	1	Ⴊ	cut_j_stereo_44KHz.wav
4	54	4	4	2	I	1	0	885	0	Ⴂ	cut_ei_stereo_44KHz.wav
4	55	3	3	2	I	2	0	580	0	Ⴇ	cut_oei_stereo_44KHz.wav
4	56	2	2	1	C	1	0	980	0	Ⴟ	cut_j_stereo_44KHz.wav
4	57	4	4	2	I	2	0	855	1	Ⴂ	cut_ei_stereo_44KHz.wav
4	58	1	2	0	C	2	0	1276	0	Ⴊ	cut_j_stereo_44KHz.wav
4	59	3	3	2	I	1	0	600	1	Ⴇ	cut_oei_stereo_44KHz.wav
4	60	2	1	0	C	2	0	914	0	Ⴟ	cut_ui_stereo_44KHz.wav
4	61	4	3	2	I	1	0	561	1	Ⴂ	cut_oei_stereo_44KHz.wav
4	62	3	4	2	I	2	0	693	1	Ⴇ	cut_ei_stereo_44KHz.wav
4	63	2	2	1	C	1	0	908	0	Ⴟ	cut_j_stereo_44KHz.wav
4	64	1	1	1	C	1	0	1151	0	Ⴊ	cut_ui_stereo_44KHz.wav
4	65	3	3	2	I	2	0	1009	1	Ⴇ	cut_oei_stereo_44KHz.wav
4	66	2	2	1	C	2	1	1202	1	Ⴟ	cut_j_stereo_44KHz.wav
4	67	4	3	2	I	2	0	593	1	Ⴂ	cut_oei_stereo_44KHz.wav
4	68	1	2	0	C	2	0	766	0	Ⴊ	cut_j_stereo_44KHz.wav
4	69	4	4	2	I	2	0	811	0	Ⴂ	cut_ei_stereo_44KHz.wav
4	70	1	1	1	C	2	1	545	1	Ⴊ	cut_ui_stereo_44KHz.wav
4	71	3	4	2	I	0	0	0	0	Ⴇ	cut_ei_stereo_44KHz.wav
4	72	2	1	0	C	2	0	1094	0	Ⴟ	cut_ui_stereo_44KHz.wav
4	73	1	1	1	C	1	0	1269	0	Ⴊ	cut_ui_stereo_44KHz.wav
4	74	3	4	2	I	2	0	769	0	Ⴇ	cut_ei_stereo_44KHz.wav
4	75	2	2	1	C	2	1	1056	1	Ⴟ	cut_j_stereo_44KHz.wav
4	76	4	4	2	I	2	0	1082	1	Ⴂ	cut_ei_stereo_44KHz.wav
4	77	3	3	2	I	1	0	1282	0	Ⴇ	cut_oei_stereo_44KHz.wav
4	78	1	2	0	C	2	0	897	0	Ⴊ	cut_j_stereo_44KHz.wav
4	79	4	3	2	I	2	0	741	0	Ⴂ	cut_oei_stereo_44KHz.wav
4	80	2	1	0	C	1	1	793	1	Ⴟ	cut_ui_stereo_44KHz.wav
4	81	1	2	0	C	1	1	715	1	Ⴊ	cut_j_stereo_44KHz.wav
4	82	4	3	2	I	1	0	973	1	Ⴂ	cut_oei_stereo_44KHz.wav
4	83	3	4	2	I	2	0	815	1	Ⴇ	cut_ei_stereo_44KHz.wav
4	84	2	2	1	C	2	1	806	1	Ⴟ	cut_j_stereo_44KHz.wav
4	85	3	3	2	I	2	0	1265	1	Ⴇ	cut_oei_stereo_44KHz.wav
4	86	2	1	0	C	1	1	1075	1	Ⴟ	cut_ui_stereo_44KHz.wav
4	87	4	4	2	I	2	0	1080	0	Ⴂ	cut_ei_stereo_44KHz.wav
4	88	1	1	1	C	2	1	969	1	Ⴊ	cut_ui_stereo_44KHz.wav
4	89	3	3	2	I	2	0	949	0	Ⴇ	cut_oei_stereo_44KHz.wav
4	90	1	2	0	C	1	1	1139	1	Ⴊ	cut_j_stereo_44KHz.wav
4	91	2	2	1	C	2	1	662	1	Ⴟ	cut_j_stereo_44KHz.wav
4	92	4	4	2	I	1	0	693	0	Ⴂ	cut_ei_stereo_44KHz.wav
4	93	1	1	1	C	2	1	970	1	Ⴊ	cut_ui_stereo_44KHz.wav
4	94	3	4	2	I	2	0	772	0	Ⴇ	cut_ei_stereo_44KHz.wav
4	95	4	3	2	I	2	0	732	0	Ⴂ	cut_oei_stereo_44KHz.wav
4	96	2	1	0	C	1	1	971	1	Ⴟ	cut_ui_stereo_44KHz.wav
4	97	4	4	2	I	2	0	883	1	Ⴂ	cut_ei_stereo_44KHz.wav
4	98	1	1	1	C	2	1	1149	1	Ⴊ	cut_ui_stereo_44KHz.wav
4	99	3	4	2	I	1	0	875	1	Ⴇ	cut_ei_stereo_44KHz.wav
4	100	2	2	1	C	2	1	818	1	Ⴟ	cut_j_stereo_44KHz.wav
4	101	1	2	0	C	1	1	883	1	Ⴊ	cut_j_stereo_44KHz.wav
4	102	4	3	2	I	2	0	886	1	Ⴂ	cut_oei_stereo_44KHz.wav
4	103	3	3	2	I	2	0	700	0	Ⴇ	cut_oei_stereo_44KHz.wav
4	104	2	1	0	C	2	0	551	0	Ⴟ	cut_ui_stereo_44KHz.wav
4	105	4	3	2	I	2	0	696	1	Ⴂ	cut_oei_stereo_44KHz.wav
4	106	3	3	2	I	2	0	1021	0	Ⴇ	cut_oei_stereo_44KHz.wav
4	107	2	1	0	C	1	1	856	1	Ⴟ	cut_ui_stereo_44KHz.wav
4	108	1	2	0	C	1	1	578	1	Ⴊ	cut_j_stereo_44KHz.wav
4	109	3	4	2	I	2	0	1133	1	Ⴇ	cut_ei_stereo_44KHz.wav
4	110	1	1	1	C	2	1	783	1	Ⴊ	cut_ui_stereo_44KHz.wav
4	111	2	2	1	C	2	1	1003	1	Ⴟ	cut_j_stereo_44KHz.wav
4	112	4	4	2	I	1	0	1192	0	Ⴂ	cut_ei_stereo_44KHz.wav
4	113	1	2	0	C	1	1	629	1	Ⴊ	cut_j_stereo_44KHz.wav
4	114	2	2	1	C	2	1	969	1	Ⴟ	cut_j_stereo_44KHz.wav
4	115	3	4	2	I	2	0	777	0	Ⴇ	cut_ei_stereo_44KHz.wav
4	116	4	4	2	I	2	0	836	1	Ⴂ	cut_ei_stereo_44KHz.wav
4	117	2	1	0	C	2	0	706	0	Ⴟ	cut_ui_stereo_44KHz.wav
4	118	1	1	1	C	1	0	1111	0	Ⴊ	cut_ui_stereo_44KHz.wav
4	119	3	3	2	I	1	0	1050	0	Ⴇ	cut_oei_stereo_44KHz.wav
4	120	4	3	2	I	2	0	875	0	Ⴂ	cut_oei_stereo_44KHz.wav
4	121	3	3	2	I	2	0	946	0	Ⴇ	cut_oei_stereo_44KHz.wav
4	122	1	2	0	C	1	1	783	1	Ⴊ	cut_j_stereo_44KHz.wav
4	123	2	2	1	C	2	1	1055	1	Ⴟ	cut_j_stereo_44KHz.wav
4	124	4	3	2	I	2	0	655	1	Ⴂ	cut_oei_stereo_44KHz.wav
4	125	1	1	1	C	1	0	841	0	Ⴊ	cut_ui_stereo_44KHz.wav
4	126	4	4	2	I	2	0	1484	1	Ⴂ	cut_ei_stereo_44KHz.wav
4	127	2	1	0	C	1	1	994	1	Ⴟ	cut_ui_stereo_44KHz.wav
4	128	3	4	2	I	1	0	908	1	Ⴇ	cut_ei_stereo_44KHz.wav
4	129	1	1	1	C	2	1	958	1	Ⴊ	cut_ui_stereo_44KHz.wav
4	130	3	3	2	I	2	0	1763	1	Ⴇ	cut_oei_stereo_44KHz.wav
4	131	2	1	0	C	2	0	815	0	Ⴟ	cut_ui_stereo_44KHz.wav
4	132	4	3	2	I	2	0	1091	1	Ⴂ	cut_oei_stereo_44KHz.wav
4	133	1	2	0	C	1	1	896	1	Ⴊ	cut_j_stereo_44KHz.wav
4	134	2	2	1	C	2	1	556	1	Ⴟ	cut_j_stereo_44KHz.wav
4	135	3	4	2	I	2	0	850	0	Ⴇ	cut_ei_stereo_44KHz.wav
4	136	4	4	2	I	1	0	1356	1	Ⴂ	cut_ei_stereo_44KHz.wav
4	137	2	2	1	C	2	1	715	1	Ⴟ	cut_j_stereo_44KHz.wav
4	138	1	1	1	C	2	1	1008	1	Ⴊ	cut_ui_stereo_44KHz.wav
4	139	4	4	2	I	2	0	1165	0	Ⴂ	cut_ei_stereo_44KHz.wav
4	140	3	3	2	I	2	0	941	0	Ⴇ	cut_oei_stereo_44KHz.wav
4	141	1	2	0	C	1	1	1010	1	Ⴊ	cut_j_stereo_44KHz.wav
4	142	4	3	2	I	2	0	1111	0	Ⴂ	cut_oei_stereo_44KHz.wav
4	143	3	4	2	I	2	0	876	1	Ⴇ	cut_ei_stereo_44KHz.wav
4	144	2	1	0	C	2	0	935	0	Ⴟ	cut_ui_stereo_44KHz.wav
4	145	1	1	1	C	1	0	1563	0	Ⴊ	cut_ui_stereo_44KHz.wav
4	146	2	2	1	C	2	1	700	1	Ⴟ	cut_j_stereo_44KHz.wav
4	147	3	3	2	I	2	0	1517	1	Ⴇ	cut_oei_stereo_44KHz.wav
4	148	4	3	2	I	2	0	950	0	Ⴂ	cut_oei_stereo_44KHz.wav
4	149	3	4	2	I	2	0	754	0	Ⴇ	cut_ei_stereo_44KHz.wav
4	150	4	4	2	I	2	0	999	1	Ⴂ	cut_ei_stereo_44KHz.wav
4	151	2	1	0	C	2	0	521	0	Ⴟ	cut_ui_stereo_44KHz.wav
4	152	1	2	0	C	1	1	637	1	Ⴊ	cut_j_stereo_44KHz.wav
4	153	4	3	2	I	2	0	759	0	Ⴂ	cut_oei_stereo_44KHz.wav
4	154	3	4	2	I	2	0	629	1	Ⴇ	cut_ei_stereo_44KHz.wav
4	155	1	2	0	C	1	1	695	1	Ⴊ	cut_j_stereo_44KHz.wav
4	156	2	2	1	C	2	1	847	1	Ⴟ	cut_j_stereo_44KHz.wav
4	157	3	3	2	I	2	0	741	1	Ⴇ	cut_oei_stereo_44KHz.wav
4	158	1	1	1	C	2	1	1360	1	Ⴊ	cut_ui_stereo_44KHz.wav
4	159	2	1	0	C	2	0	1794	0	Ⴟ	cut_ui_stereo_44KHz.wav
4	160	4	4	2	I	2	0	827	1	Ⴂ	cut_ei_stereo_44KHz.wav
4	161	2	1	0	C	0	0	0	0	Ⴟ	cut_ui_stereo_44KHz.wav
4	162	4	4	2	I	2	0	643	0	Ⴂ	cut_ei_stereo_44KHz.wav
4	163	1	1	1	C	2	1	867	1	Ⴊ	cut_ui_stereo_44KHz.wav
4	164	3	3	2	I	2	0	699	0	Ⴇ	cut_oei_stereo_44KHz.wav
4	165	1	2	0	C	1	1	698	1	Ⴊ	cut_j_stereo_44KHz.wav
4	166	3	4	2	I	2	0	647	0	Ⴇ	cut_ei_stereo_44KHz.wav
4	167	4	3	2	I	2	0	594	1	Ⴂ	cut_oei_stereo_44KHz.wav
4	168	2	2	1	C	2	1	626	1	Ⴟ	cut_j_stereo_44KHz.wav
4	169	3	3	2	I	2	0	522	1	Ⴇ	cut_oei_stereo_44KHz.wav
4	170	1	2	0	C	1	1	933	1	Ⴊ	cut_j_stereo_44KHz.wav
4	171	4	3	2	I	1	0	907	1	Ⴂ	cut_oei_stereo_44KHz.wav
4	172	2	1	0	C	1	1	1042	1	Ⴟ	cut_ui_stereo_44KHz.wav
4	173	1	1	1	C	2	1	1115	1	Ⴊ	cut_ui_stereo_44KHz.wav
4	174	2	2	1	C	2	1	1336	1	Ⴟ	cut_j_stereo_44KHz.wav
4	175	3	4	2	I	2	0	1012	0	Ⴇ	cut_ei_stereo_44KHz.wav
4	176	4	4	2	I	2	0	1387	0	Ⴂ	cut_ei_stereo_44KHz.wav
4	177	1	1	1	C	2	1	1014	1	Ⴊ	cut_ui_stereo_44KHz.wav
4	178	2	1	0	C	1	1	1320	1	Ⴟ	cut_ui_stereo_44KHz.wav
4	179	3	4	2	I	0	0	0	0	Ⴇ	cut_ei_stereo_44KHz.wav
4	180	4	4	2	I	2	0	630	1	Ⴂ	cut_ei_stereo_44KHz.wav
4	181	2	2	1	C	1	0	1119	0	Ⴟ	cut_j_stereo_44KHz.wav
4	182	1	2	0	C	1	1	1199	1	Ⴊ	cut_j_stereo_44KHz.wav
4	183	4	3	2	I	2	0	1210	1	Ⴂ	cut_oei_stereo_44KHz.wav
4	184	3	3	2	I	2	0	635	1	Ⴇ	cut_oei_stereo_44KHz.wav
4	185	2	2	1	C	2	1	585	1	Ⴟ	cut_j_stereo_44KHz.wav
4	186	3	4	2	I	2	0	577	1	Ⴇ	cut_ei_stereo_44KHz.wav
4	187	4	3	2	I	2	0	534	0	Ⴂ	cut_oei_stereo_44KHz.wav
4	188	1	2	0	C	2	0	1150	0	Ⴊ	cut_j_stereo_44KHz.wav
4	189	2	1	0	C	1	1	1657	1	Ⴟ	cut_ui_stereo_44KHz.wav
4	190	1	1	1	C	2	1	926	1	Ⴊ	cut_ui_stereo_44KHz.wav
4	191	3	3	2	I	2	0	735	0	Ⴇ	cut_oei_stereo_44KHz.wav
4	192	4	4	2	I	2	0	1313	1	Ⴂ	cut_ei_stereo_44KHz.wav
4	193	1	1	1	C	2	1	930	1	Ⴊ	cut_ui_stereo_44KHz.wav
4	194	2	2	1	C	2	1	844	1	Ⴟ	cut_j_stereo_44KHz.wav
4	195	3	3	2	I	1	0	956	1	Ⴇ	cut_oei_stereo_44KHz.wav
4	196	4	4	2	I	2	0	987	0	Ⴂ	cut_ei_stereo_44KHz.wav
4	197	1	2	0	C	1	1	1066	1	Ⴊ	cut_j_stereo_44KHz.wav
4	198	4	3	2	I	1	0	1390	0	Ⴂ	cut_oei_stereo_44KHz.wav
4	199	3	4	2	I	2	0	839	1	Ⴇ	cut_ei_stereo_44KHz.wav
4	200	2	1	0	C	1	1	1119	1	Ⴟ	cut_ui_stereo_44KHz.wav
