block	trial	Vstim	Astim	match	C/I	resp	result	RT	fb	V-file	A-file
LR

0	1	1	1	1	C	0	0	0	0	poli_8sides 24_whiteLine3.jpg	Practice4_b26_stereo_44KHz.wav
0	2	1	2	0	C	2	0	1356	0	poli_8sides 24_whiteLine3.jpg	Practice3_b26_cut1_stereo_44KHz.wav
0	3	2	3	1	C	0	0	0	0	poli_8sides 23_whiteLine3.jpg	Practice1_b27_cut1_stereo_44KHz.wav
0	4	2	4	0	C	2	0	1114	0	poli_8sides 23_whiteLine3.jpg	Practice2_b27_cut2_stereo_44KHz.wav
0	5	2	4	0	C	1	1	1271	1	poli_8sides 23_whiteLine3.jpg	Practice2_b27_cut2_stereo_44KHz.wav
0	6	1	2	0	C	1	1	1708	1	poli_8sides 24_whiteLine3.jpg	Practice3_b26_cut1_stereo_44KHz.wav
0	7	2	3	1	C	2	1	1126	1	poli_8sides 23_whiteLine3.jpg	Practice1_b27_cut1_stereo_44KHz.wav
0	8	1	1	1	C	1	0	699	0	poli_8sides 24_whiteLine3.jpg	Practice4_b26_stereo_44KHz.wav
0	9	1	2	0	C	1	1	1239	1	poli_8sides 24_whiteLine3.jpg	Practice3_b26_cut1_stereo_44KHz.wav
0	10	2	3	1	C	2	1	1311	1	poli_8sides 23_whiteLine3.jpg	Practice1_b27_cut1_stereo_44KHz.wav
0	11	1	1	1	C	2	1	1320	1	poli_8sides 24_whiteLine3.jpg	Practice4_b26_stereo_44KHz.wav
0	12	2	4	0	C	1	1	1248	1	poli_8sides 23_whiteLine3.jpg	Practice2_b27_cut2_stereo_44KHz.wav
0	13	2	4	0	C	1	1	1676	1	poli_8sides 23_whiteLine3.jpg	Practice2_b27_cut2_stereo_44KHz.wav
0	14	2	3	1	C	2	1	832	1	poli_8sides 23_whiteLine3.jpg	Practice1_b27_cut1_stereo_44KHz.wav
0	15	1	2	0	C	1	1	538	1	poli_8sides 24_whiteLine3.jpg	Practice3_b26_cut1_stereo_44KHz.wav
0	16	1	1	1	C	2	1	929	1	poli_8sides 24_whiteLine3.jpg	Practice4_b26_stereo_44KHz.wav
0	17	1	2	0	C	1	1	780	1	poli_8sides 24_whiteLine3.jpg	Practice3_b26_cut1_stereo_44KHz.wav
0	18	2	4	0	C	1	1	1183	1	poli_8sides 23_whiteLine3.jpg	Practice2_b27_cut2_stereo_44KHz.wav
0	19	2	3	1	C	2	1	1299	1	poli_8sides 23_whiteLine3.jpg	Practice1_b27_cut1_stereo_44KHz.wav
0	20	1	1	1	C	2	1	803	1	poli_8sides 24_whiteLine3.jpg	Practice4_b26_stereo_44KHz.wav
0	21	1	1	1	C	2	1	761	1	poli_8sides 24_whiteLine3.jpg	Practice4_b26_stereo_44KHz.wav
0	22	2	3	1	C	2	1	829	1	poli_8sides 23_whiteLine3.jpg	Practice1_b27_cut1_stereo_44KHz.wav
0	23	2	4	0	C	1	1	1120	1	poli_8sides 23_whiteLine3.jpg	Practice2_b27_cut2_stereo_44KHz.wav
0	24	1	2	0	C	1	1	1246	1	poli_8sides 24_whiteLine3.jpg	Practice3_b26_cut1_stereo_44KHz.wav
0	25	1	1	1	C	2	1	1478	1	poli_8sides 24_whiteLine3.jpg	Practice4_b26_stereo_44KHz.wav
0	26	2	4	0	C	1	1	1069	1	poli_8sides 23_whiteLine3.jpg	Practice2_b27_cut2_stereo_44KHz.wav
0	27	1	2	0	C	2	0	1195	0	poli_8sides 24_whiteLine3.jpg	Practice3_b26_cut1_stereo_44KHz.wav
0	28	2	3	1	C	2	1	1310	1	poli_8sides 23_whiteLine3.jpg	Practice1_b27_cut1_stereo_44KHz.wav
0	29	1	1	1	C	1	0	763	0	poli_8sides 24_whiteLine3.jpg	Practice4_b26_stereo_44KHz.wav
0	30	2	4	0	C	1	1	963	1	poli_8sides 23_whiteLine3.jpg	Practice2_b27_cut2_stereo_44KHz.wav
avg_resp = 1132
1	1	4	4	2	I	0	0	0	0	poli_8sides 13_whiteLine3.jpg	Short_b09_cut1_stereo_44KHz.wav
1	2	2	2	1	C	1	0	1422	0	poli_8sides 15_whiteLine3.jpg	Short_b20_cut1_stereo_44KHz.wav
1	3	3	3	2	I	0	0	0	0	poli_8sides 1_whiteLine3.jpg	Short_b23_cut1_stereo_44KHz.wav
1	4	1	2	0	C	2	0	1080	0	poli_8sides 10_whiteLine3.jpg	Short_b20_cut1_stereo_44KHz.wav
1	5	2	1	0	C	1	1	1480	1	poli_8sides 15_whiteLine3.jpg	Short_b22_cut1_stereo_44KHz.wav
1	6	1	1	1	C	2	1	911	1	poli_8sides 10_whiteLine3.jpg	Short_b22_cut1_stereo_44KHz.wav
1	7	3	4	2	I	1	0	1288	0	poli_8sides 1_whiteLine3.jpg	Short_b09_cut1_stereo_44KHz.wav
1	8	4	3	2	I	2	0	1061	0	poli_8sides 13_whiteLine3.jpg	Short_b23_cut1_stereo_44KHz.wav
1	9	3	4	2	I	2	0	1164	1	poli_8sides 1_whiteLine3.jpg	Short_b09_cut1_stereo_44KHz.wav
1	10	4	4	2	I	1	0	1387	1	poli_8sides 13_whiteLine3.jpg	Short_b09_cut1_stereo_44KHz.wav
1	11	1	2	0	C	2	0	1113	0	poli_8sides 10_whiteLine3.jpg	Short_b20_cut1_stereo_44KHz.wav
1	12	2	1	0	C	1	1	1150	1	poli_8sides 15_whiteLine3.jpg	Short_b22_cut1_stereo_44KHz.wav
1	13	1	1	1	C	2	1	1436	1	poli_8sides 10_whiteLine3.jpg	Short_b22_cut1_stereo_44KHz.wav
1	14	4	3	2	I	2	0	1307	1	poli_8sides 13_whiteLine3.jpg	Short_b23_cut1_stereo_44KHz.wav
1	15	3	3	2	I	2	0	1726	1	poli_8sides 1_whiteLine3.jpg	Short_b23_cut1_stereo_44KHz.wav
1	16	2	2	1	C	2	1	1002	1	poli_8sides 15_whiteLine3.jpg	Short_b20_cut1_stereo_44KHz.wav
1	17	1	2	0	C	1	1	1045	1	poli_8sides 10_whiteLine3.jpg	Short_b20_cut1_stereo_44KHz.wav
1	18	3	3	2	I	2	0	1202	1	poli_8sides 1_whiteLine3.jpg	Short_b23_cut1_stereo_44KHz.wav
1	19	2	1	0	C	1	1	905	1	poli_8sides 15_whiteLine3.jpg	Short_b22_cut1_stereo_44KHz.wav
1	20	4	4	2	I	1	0	1385	1	poli_8sides 13_whiteLine3.jpg	Short_b09_cut1_stereo_44KHz.wav
1	21	3	4	2	I	2	0	690	0	poli_8sides 1_whiteLine3.jpg	Short_b09_cut1_stereo_44KHz.wav
1	22	1	1	1	C	1	0	1382	0	poli_8sides 10_whiteLine3.jpg	Short_b22_cut1_stereo_44KHz.wav
1	23	2	2	1	C	2	1	1189	1	poli_8sides 15_whiteLine3.jpg	Short_b20_cut1_stereo_44KHz.wav
1	24	4	3	2	I	2	0	1217	0	poli_8sides 13_whiteLine3.jpg	Short_b23_cut1_stereo_44KHz.wav
1	25	3	3	2	I	2	0	1140	1	poli_8sides 1_whiteLine3.jpg	Short_b23_cut1_stereo_44KHz.wav
1	26	2	2	1	C	2	1	853	1	poli_8sides 15_whiteLine3.jpg	Short_b20_cut1_stereo_44KHz.wav
1	27	4	3	2	I	2	0	812	1	poli_8sides 13_whiteLine3.jpg	Short_b23_cut1_stereo_44KHz.wav
1	28	1	1	1	C	2	1	1002	1	poli_8sides 10_whiteLine3.jpg	Short_b22_cut1_stereo_44KHz.wav
1	29	3	4	2	I	1	0	1398	1	poli_8sides 1_whiteLine3.jpg	Short_b09_cut1_stereo_44KHz.wav
1	30	4	4	2	I	2	0	892	0	poli_8sides 13_whiteLine3.jpg	Short_b09_cut1_stereo_44KHz.wav
1	31	1	2	0	C	2	0	780	0	poli_8sides 10_whiteLine3.jpg	Short_b20_cut1_stereo_44KHz.wav
1	32	2	1	0	C	1	1	1128	1	poli_8sides 15_whiteLine3.jpg	Short_b22_cut1_stereo_44KHz.wav
1	33	4	3	2	I	2	0	925	0	poli_8sides 13_whiteLine3.jpg	Short_b23_cut1_stereo_44KHz.wav
1	34	2	2	1	C	1	0	1501	0	poli_8sides 15_whiteLine3.jpg	Short_b20_cut1_stereo_44KHz.wav
1	35	3	3	2	I	2	0	1981	0	poli_8sides 1_whiteLine3.jpg	Short_b23_cut1_stereo_44KHz.wav
1	36	1	2	0	C	2	0	1501	0	poli_8sides 10_whiteLine3.jpg	Short_b20_cut1_stereo_44KHz.wav
1	37	4	4	2	I	1	0	1410	0	poli_8sides 13_whiteLine3.jpg	Short_b09_cut1_stereo_44KHz.wav
1	38	1	1	1	C	1	0	1011	0	poli_8sides 10_whiteLine3.jpg	Short_b22_cut1_stereo_44KHz.wav
1	39	2	1	0	C	1	1	1198	1	poli_8sides 15_whiteLine3.jpg	Short_b22_cut1_stereo_44KHz.wav
1	40	3	4	2	I	1	0	1580	1	poli_8sides 1_whiteLine3.jpg	Short_b09_cut1_stereo_44KHz.wav
1	41	4	4	2	I	2	0	1441	0	poli_8sides 13_whiteLine3.jpg	Short_b09_cut1_stereo_44KHz.wav
1	42	3	3	2	I	2	0	1129	0	poli_8sides 1_whiteLine3.jpg	Short_b23_cut1_stereo_44KHz.wav
1	43	1	1	1	C	1	0	1411	0	poli_8sides 10_whiteLine3.jpg	Short_b22_cut1_stereo_44KHz.wav
1	44	2	2	1	C	2	1	1481	1	poli_8sides 15_whiteLine3.jpg	Short_b20_cut1_stereo_44KHz.wav
1	45	4	3	2	I	2	0	1808	1	poli_8sides 13_whiteLine3.jpg	Short_b23_cut1_stereo_44KHz.wav
1	46	3	4	2	I	2	0	1032	0	poli_8sides 1_whiteLine3.jpg	Short_b09_cut1_stereo_44KHz.wav
1	47	1	2	0	C	1	1	1294	1	poli_8sides 10_whiteLine3.jpg	Short_b20_cut1_stereo_44KHz.wav
1	48	2	1	0	C	1	1	1371	1	poli_8sides 15_whiteLine3.jpg	Short_b22_cut1_stereo_44KHz.wav
1	49	4	4	2	I	1	0	1066	0	poli_8sides 13_whiteLine3.jpg	Short_b09_cut1_stereo_44KHz.wav
1	50	2	2	1	C	2	1	974	1	poli_8sides 15_whiteLine3.jpg	Short_b20_cut1_stereo_44KHz.wav
1	51	1	1	1	C	1	0	1398	0	poli_8sides 10_whiteLine3.jpg	Short_b22_cut1_stereo_44KHz.wav
1	52	3	4	2	I	1	0	932	0	poli_8sides 1_whiteLine3.jpg	Short_b09_cut1_stereo_44KHz.wav
1	53	1	2	0	C	2	0	1234	0	poli_8sides 10_whiteLine3.jpg	Short_b20_cut1_stereo_44KHz.wav
1	54	3	3	2	I	1	0	1315	1	poli_8sides 1_whiteLine3.jpg	Short_b23_cut1_stereo_44KHz.wav
1	55	2	1	0	C	1	1	1262	1	poli_8sides 15_whiteLine3.jpg	Short_b22_cut1_stereo_44KHz.wav
1	56	4	3	2	I	2	0	1084	1	poli_8sides 13_whiteLine3.jpg	Short_b23_cut1_stereo_44KHz.wav
1	57	3	3	2	I	1	0	1302	1	poli_8sides 1_whiteLine3.jpg	Short_b23_cut1_stereo_44KHz.wav
1	58	1	2	0	C	2	0	823	0	poli_8sides 10_whiteLine3.jpg	Short_b20_cut1_stereo_44KHz.wav
1	59	4	4	2	I	1	0	1435	1	poli_8sides 13_whiteLine3.jpg	Short_b09_cut1_stereo_44KHz.wav
1	60	2	1	0	C	1	1	922	1	poli_8sides 15_whiteLine3.jpg	Short_b22_cut1_stereo_44KHz.wav
1	61	4	3	2	I	2	0	1203	0	poli_8sides 13_whiteLine3.jpg	Short_b23_cut1_stereo_44KHz.wav
1	62	1	1	1	C	1	0	786	0	poli_8sides 10_whiteLine3.jpg	Short_b22_cut1_stereo_44KHz.wav
1	63	3	4	2	I	2	0	1329	0	poli_8sides 1_whiteLine3.jpg	Short_b09_cut1_stereo_44KHz.wav
1	64	2	2	1	C	1	0	1650	0	poli_8sides 15_whiteLine3.jpg	Short_b20_cut1_stereo_44KHz.wav
1	65	4	4	2	I	1	0	1069	1	poli_8sides 13_whiteLine3.jpg	Short_b09_cut1_stereo_44KHz.wav
1	66	3	4	2	I	2	0	1323	0	poli_8sides 1_whiteLine3.jpg	Short_b09_cut1_stereo_44KHz.wav
1	67	2	2	1	C	2	1	910	1	poli_8sides 15_whiteLine3.jpg	Short_b20_cut1_stereo_44KHz.wav
1	68	1	1	1	C	1	0	1637	0	poli_8sides 10_whiteLine3.jpg	Short_b22_cut1_stereo_44KHz.wav
1	69	2	1	0	C	2	0	1836	0	poli_8sides 15_whiteLine3.jpg	Short_b22_cut1_stereo_44KHz.wav
1	70	3	3	2	I	1	0	1055	0	poli_8sides 1_whiteLine3.jpg	Short_b23_cut1_stereo_44KHz.wav
1	71	4	3	2	I	2	0	1270	1	poli_8sides 13_whiteLine3.jpg	Short_b23_cut1_stereo_44KHz.wav
1	72	1	2	0	C	2	0	1100	0	poli_8sides 10_whiteLine3.jpg	Short_b20_cut1_stereo_44KHz.wav
1	73	2	2	1	C	1	0	1498	0	poli_8sides 15_whiteLine3.jpg	Short_b20_cut1_stereo_44KHz.wav
1	74	4	4	2	I	1	0	939	1	poli_8sides 13_whiteLine3.jpg	Short_b09_cut1_stereo_44KHz.wav
1	75	1	2	0	C	1	1	982	1	poli_8sides 10_whiteLine3.jpg	Short_b20_cut1_stereo_44KHz.wav
1	76	3	4	2	I	1	0	1047	1	poli_8sides 1_whiteLine3.jpg	Short_b09_cut1_stereo_44KHz.wav
1	77	1	1	1	C	2	1	956	1	poli_8sides 10_whiteLine3.jpg	Short_b22_cut1_stereo_44KHz.wav
1	78	2	1	0	C	1	1	1562	1	poli_8sides 15_whiteLine3.jpg	Short_b22_cut1_stereo_44KHz.wav
1	79	3	3	2	I	2	0	999	1	poli_8sides 1_whiteLine3.jpg	Short_b23_cut1_stereo_44KHz.wav
1	80	4	3	2	I	2	0	856	1	poli_8sides 13_whiteLine3.jpg	Short_b23_cut1_stereo_44KHz.wav
1	81	1	2	0	C	1	1	916	1	poli_8sides 10_whiteLine3.jpg	Short_b20_cut1_stereo_44KHz.wav
1	82	3	4	2	I	1	0	1262	0	poli_8sides 1_whiteLine3.jpg	Short_b09_cut1_stereo_44KHz.wav
1	83	4	4	2	I	1	0	760	1	poli_8sides 13_whiteLine3.jpg	Short_b09_cut1_stereo_44KHz.wav
1	84	2	1	0	C	2	0	1157	0	poli_8sides 15_whiteLine3.jpg	Short_b22_cut1_stereo_44KHz.wav
1	85	1	1	1	C	2	1	1008	1	poli_8sides 10_whiteLine3.jpg	Short_b22_cut1_stereo_44KHz.wav
1	86	2	2	1	C	2	1	964	1	poli_8sides 15_whiteLine3.jpg	Short_b20_cut1_stereo_44KHz.wav
1	87	4	3	2	I	2	0	836	1	poli_8sides 13_whiteLine3.jpg	Short_b23_cut1_stereo_44KHz.wav
1	88	3	3	2	I	1	0	1030	0	poli_8sides 1_whiteLine3.jpg	Short_b23_cut1_stereo_44KHz.wav
1	89	4	4	2	I	1	0	954	0	poli_8sides 13_whiteLine3.jpg	Short_b09_cut1_stereo_44KHz.wav
1	90	1	2	0	C	1	1	1264	1	poli_8sides 10_whiteLine3.jpg	Short_b20_cut1_stereo_44KHz.wav
1	91	3	3	2	I	2	0	977	1	poli_8sides 1_whiteLine3.jpg	Short_b23_cut1_stereo_44KHz.wav
1	92	2	2	1	C	2	1	965	1	poli_8sides 15_whiteLine3.jpg	Short_b20_cut1_stereo_44KHz.wav
1	93	3	4	2	I	1	0	984	0	poli_8sides 1_whiteLine3.jpg	Short_b09_cut1_stereo_44KHz.wav
1	94	2	1	0	C	1	1	1336	1	poli_8sides 15_whiteLine3.jpg	Short_b22_cut1_stereo_44KHz.wav
1	95	4	3	2	I	2	0	862	1	poli_8sides 13_whiteLine3.jpg	Short_b23_cut1_stereo_44KHz.wav
1	96	1	1	1	C	2	1	996	1	poli_8sides 10_whiteLine3.jpg	Short_b22_cut1_stereo_44KHz.wav
1	97	3	3	2	I	2	0	937	0	poli_8sides 1_whiteLine3.jpg	Short_b23_cut1_stereo_44KHz.wav
1	98	1	1	1	C	2	1	1147	1	poli_8sides 10_whiteLine3.jpg	Short_b22_cut1_stereo_44KHz.wav
1	99	4	3	2	I	2	0	1209	0	poli_8sides 13_whiteLine3.jpg	Short_b23_cut1_stereo_44KHz.wav
1	100	2	1	0	C	1	1	1288	1	poli_8sides 15_whiteLine3.jpg	Short_b22_cut1_stereo_44KHz.wav
1	101	1	2	0	C	1	1	1037	1	poli_8sides 10_whiteLine3.jpg	Short_b20_cut1_stereo_44KHz.wav
1	102	4	4	2	I	1	0	1231	0	poli_8sides 13_whiteLine3.jpg	Short_b09_cut1_stereo_44KHz.wav
1	103	2	2	1	C	2	1	1057	1	poli_8sides 15_whiteLine3.jpg	Short_b20_cut1_stereo_44KHz.wav
1	104	3	4	2	I	1	0	1292	1	poli_8sides 1_whiteLine3.jpg	Short_b09_cut1_stereo_44KHz.wav
1	105	1	2	0	C	2	0	1082	0	poli_8sides 10_whiteLine3.jpg	Short_b20_cut1_stereo_44KHz.wav
1	106	3	3	2	I	1	0	1031	1	poli_8sides 1_whiteLine3.jpg	Short_b23_cut1_stereo_44KHz.wav
1	107	2	2	1	C	2	1	1042	1	poli_8sides 15_whiteLine3.jpg	Short_b20_cut1_stereo_44KHz.wav
1	108	4	3	2	I	1	0	1553	0	poli_8sides 13_whiteLine3.jpg	Short_b23_cut1_stereo_44KHz.wav
1	109	1	1	1	C	2	1	1790	1	poli_8sides 10_whiteLine3.jpg	Short_b22_cut1_stereo_44KHz.wav
1	110	2	1	0	C	1	1	1422	1	poli_8sides 15_whiteLine3.jpg	Short_b22_cut1_stereo_44KHz.wav
1	111	3	4	2	I	2	0	1363	1	poli_8sides 1_whiteLine3.jpg	Short_b09_cut1_stereo_44KHz.wav
1	112	4	4	2	I	1	0	1013	0	poli_8sides 13_whiteLine3.jpg	Short_b09_cut1_stereo_44KHz.wav
1	113	2	2	1	C	2	1	891	1	poli_8sides 15_whiteLine3.jpg	Short_b20_cut1_stereo_44KHz.wav
1	114	1	2	0	C	1	1	1190	1	poli_8sides 10_whiteLine3.jpg	Short_b20_cut1_stereo_44KHz.wav
1	115	4	4	2	I	2	0	858	1	poli_8sides 13_whiteLine3.jpg	Short_b09_cut1_stereo_44KHz.wav
1	116	3	3	2	I	2	0	1479	0	poli_8sides 1_whiteLine3.jpg	Short_b23_cut1_stereo_44KHz.wav
1	117	2	1	0	C	1	1	852	1	poli_8sides 15_whiteLine3.jpg	Short_b22_cut1_stereo_44KHz.wav
1	118	1	1	1	C	2	1	981	1	poli_8sides 10_whiteLine3.jpg	Short_b22_cut1_stereo_44KHz.wav
1	119	3	4	2	I	1	0	1020	1	poli_8sides 1_whiteLine3.jpg	Short_b09_cut1_stereo_44KHz.wav
1	120	4	3	2	I	2	0	919	0	poli_8sides 13_whiteLine3.jpg	Short_b23_cut1_stereo_44KHz.wav
1	121	2	1	0	C	1	1	1444	1	poli_8sides 15_whiteLine3.jpg	Short_b22_cut1_stereo_44KHz.wav
1	122	3	4	2	I	1	0	1197	1	poli_8sides 1_whiteLine3.jpg	Short_b09_cut1_stereo_44KHz.wav
1	123	4	4	2	I	2	0	688	0	poli_8sides 13_whiteLine3.jpg	Short_b09_cut1_stereo_44KHz.wav
1	124	1	1	1	C	2	1	1214	1	poli_8sides 10_whiteLine3.jpg	Short_b22_cut1_stereo_44KHz.wav
1	125	2	2	1	C	2	1	747	1	poli_8sides 15_whiteLine3.jpg	Short_b20_cut1_stereo_44KHz.wav
1	126	1	2	0	C	1	1	1288	1	poli_8sides 10_whiteLine3.jpg	Short_b20_cut1_stereo_44KHz.wav
1	127	3	3	2	I	2	0	1209	0	poli_8sides 1_whiteLine3.jpg	Short_b23_cut1_stereo_44KHz.wav
1	128	4	3	2	I	1	0	1511	0	poli_8sides 13_whiteLine3.jpg	Short_b23_cut1_stereo_44KHz.wav
1	129	1	2	0	C	2	0	968	0	poli_8sides 10_whiteLine3.jpg	Short_b20_cut1_stereo_44KHz.wav
1	130	4	3	2	I	1	0	1196	1	poli_8sides 13_whiteLine3.jpg	Short_b23_cut1_stereo_44KHz.wav
1	131	3	4	2	I	1	0	1181	0	poli_8sides 1_whiteLine3.jpg	Short_b09_cut1_stereo_44KHz.wav
1	132	2	2	1	C	2	1	1098	1	poli_8sides 15_whiteLine3.jpg	Short_b20_cut1_stereo_44KHz.wav
1	133	4	4	2	I	0	0	0	0	poli_8sides 13_whiteLine3.jpg	Short_b09_cut1_stereo_44KHz.wav
1	134	1	1	1	C	2	1	1104	1	poli_8sides 10_whiteLine3.jpg	Short_b22_cut1_stereo_44KHz.wav
1	135	2	1	0	C	1	1	887	1	poli_8sides 15_whiteLine3.jpg	Short_b22_cut1_stereo_44KHz.wav
1	136	3	3	2	I	2	0	1033	1	poli_8sides 1_whiteLine3.jpg	Short_b23_cut1_stereo_44KHz.wav
1	137	1	2	0	C	1	1	1188	1	poli_8sides 10_whiteLine3.jpg	Short_b20_cut1_stereo_44KHz.wav
1	138	2	1	0	C	1	1	1100	1	poli_8sides 15_whiteLine3.jpg	Short_b22_cut1_stereo_44KHz.wav
1	139	4	4	2	I	2	0	915	1	poli_8sides 13_whiteLine3.jpg	Short_b09_cut1_stereo_44KHz.wav
1	140	3	4	2	I	1	0	772	0	poli_8sides 1_whiteLine3.jpg	Short_b09_cut1_stereo_44KHz.wav
1	141	1	1	1	C	2	1	930	1	poli_8sides 10_whiteLine3.jpg	Short_b22_cut1_stereo_44KHz.wav
1	142	2	2	1	C	2	1	970	1	poli_8sides 15_whiteLine3.jpg	Short_b20_cut1_stereo_44KHz.wav
1	143	3	3	2	I	2	0	1408	0	poli_8sides 1_whiteLine3.jpg	Short_b23_cut1_stereo_44KHz.wav
1	144	4	3	2	I	2	0	1008	1	poli_8sides 13_whiteLine3.jpg	Short_b23_cut1_stereo_44KHz.wav
1	145	1	2	0	C	1	1	1073	1	poli_8sides 10_whiteLine3.jpg	Short_b20_cut1_stereo_44KHz.wav
1	146	4	3	2	I	1	0	1130	1	poli_8sides 13_whiteLine3.jpg	Short_b23_cut1_stereo_44KHz.wav
1	147	3	4	2	I	1	0	781	0	poli_8sides 1_whiteLine3.jpg	Short_b09_cut1_stereo_44KHz.wav
1	148	2	2	1	C	2	1	977	1	poli_8sides 15_whiteLine3.jpg	Short_b20_cut1_stereo_44KHz.wav
1	149	1	1	1	C	2	1	972	1	poli_8sides 10_whiteLine3.jpg	Short_b22_cut1_stereo_44KHz.wav
1	150	3	3	2	I	1	0	1232	0	poli_8sides 1_whiteLine3.jpg	Short_b23_cut1_stereo_44KHz.wav
1	151	4	4	2	I	2	0	910	0	poli_8sides 13_whiteLine3.jpg	Short_b09_cut1_stereo_44KHz.wav
1	152	2	1	0	C	1	1	1097	1	poli_8sides 15_whiteLine3.jpg	Short_b22_cut1_stereo_44KHz.wav
1	153	3	3	2	I	2	0	924	0	poli_8sides 1_whiteLine3.jpg	Short_b23_cut1_stereo_44KHz.wav
1	154	4	4	2	I	1	0	995	1	poli_8sides 13_whiteLine3.jpg	Short_b09_cut1_stereo_44KHz.wav
1	155	1	1	1	C	2	1	1002	1	poli_8sides 10_whiteLine3.jpg	Short_b22_cut1_stereo_44KHz.wav
1	156	2	1	0	C	1	1	1049	1	poli_8sides 15_whiteLine3.jpg	Short_b22_cut1_stereo_44KHz.wav
1	157	1	2	0	C	1	1	1173	1	poli_8sides 10_whiteLine3.jpg	Short_b20_cut1_stereo_44KHz.wav
1	158	3	4	2	I	1	0	1360	0	poli_8sides 1_whiteLine3.jpg	Short_b09_cut1_stereo_44KHz.wav
1	159	2	2	1	C	2	1	920	1	poli_8sides 15_whiteLine3.jpg	Short_b20_cut1_stereo_44KHz.wav
1	160	4	3	2	I	2	0	1111	0	poli_8sides 13_whiteLine3.jpg	Short_b23_cut1_stereo_44KHz.wav
1	161	2	1	0	C	1	1	920	1	poli_8sides 15_whiteLine3.jpg	Short_b22_cut1_stereo_44KHz.wav
1	162	1	2	0	C	2	0	690	0	poli_8sides 10_whiteLine3.jpg	Short_b20_cut1_stereo_44KHz.wav
1	163	4	3	2	I	1	0	992	0	poli_8sides 13_whiteLine3.jpg	Short_b23_cut1_stereo_44KHz.wav
1	164	3	4	2	I	2	0	1387	0	poli_8sides 1_whiteLine3.jpg	Short_b09_cut1_stereo_44KHz.wav
1	165	2	2	1	C	2	1	1003	1	poli_8sides 15_whiteLine3.jpg	Short_b20_cut1_stereo_44KHz.wav
1	166	4	4	2	I	1	0	1127	0	poli_8sides 13_whiteLine3.jpg	Short_b09_cut1_stereo_44KHz.wav
1	167	3	3	2	I	2	0	938	0	poli_8sides 1_whiteLine3.jpg	Short_b23_cut1_stereo_44KHz.wav
1	168	1	1	1	C	2	1	1047	1	poli_8sides 10_whiteLine3.jpg	Short_b22_cut1_stereo_44KHz.wav
1	169	3	3	2	I	2	0	1191	1	poli_8sides 1_whiteLine3.jpg	Short_b23_cut1_stereo_44KHz.wav
1	170	4	4	2	I	2	0	1435	1	poli_8sides 13_whiteLine3.jpg	Short_b09_cut1_stereo_44KHz.wav
1	171	1	2	0	C	1	1	1065	1	poli_8sides 10_whiteLine3.jpg	Short_b20_cut1_stereo_44KHz.wav
1	172	2	1	0	C	1	1	1360	1	poli_8sides 15_whiteLine3.jpg	Short_b22_cut1_stereo_44KHz.wav
1	173	4	3	2	I	2	0	1225	1	poli_8sides 13_whiteLine3.jpg	Short_b23_cut1_stereo_44KHz.wav
1	174	3	4	2	I	2	0	1285	1	poli_8sides 1_whiteLine3.jpg	Short_b09_cut1_stereo_44KHz.wav
1	175	1	1	1	C	2	1	943	1	poli_8sides 10_whiteLine3.jpg	Short_b22_cut1_stereo_44KHz.wav
1	176	2	2	1	C	2	1	1232	1	poli_8sides 15_whiteLine3.jpg	Short_b20_cut1_stereo_44KHz.wav
1	177	1	1	1	C	2	1	887	1	poli_8sides 10_whiteLine3.jpg	Short_b22_cut1_stereo_44KHz.wav
1	178	3	3	2	I	1	0	1443	1	poli_8sides 1_whiteLine3.jpg	Short_b23_cut1_stereo_44KHz.wav
1	179	4	3	2	I	2	0	855	0	poli_8sides 13_whiteLine3.jpg	Short_b23_cut1_stereo_44KHz.wav
1	180	2	1	0	C	1	1	1138	1	poli_8sides 15_whiteLine3.jpg	Short_b22_cut1_stereo_44KHz.wav
1	181	3	4	2	I	2	0	1031	0	poli_8sides 1_whiteLine3.jpg	Short_b09_cut1_stereo_44KHz.wav
1	182	1	2	0	C	1	1	1250	1	poli_8sides 10_whiteLine3.jpg	Short_b20_cut1_stereo_44KHz.wav
1	183	4	4	2	I	2	0	1334	1	poli_8sides 13_whiteLine3.jpg	Short_b09_cut1_stereo_44KHz.wav
1	184	2	2	1	C	2	1	1482	1	poli_8sides 15_whiteLine3.jpg	Short_b20_cut1_stereo_44KHz.wav
1	185	1	2	0	C	1	1	816	1	poli_8sides 10_whiteLine3.jpg	Short_b20_cut1_stereo_44KHz.wav
1	186	4	4	2	I	1	0	1398	0	poli_8sides 13_whiteLine3.jpg	Short_b09_cut1_stereo_44KHz.wav
1	187	3	3	2	I	2	0	1870	1	poli_8sides 1_whiteLine3.jpg	Short_b23_cut1_stereo_44KHz.wav
1	188	2	2	1	C	2	1	1362	1	poli_8sides 15_whiteLine3.jpg	Short_b20_cut1_stereo_44KHz.wav
1	189	1	1	1	C	2	1	870	1	poli_8sides 10_whiteLine3.jpg	Short_b22_cut1_stereo_44KHz.wav
1	190	2	1	0	C	2	0	1295	0	poli_8sides 15_whiteLine3.jpg	Short_b22_cut1_stereo_44KHz.wav
1	191	4	3	2	I	1	0	1122	0	poli_8sides 13_whiteLine3.jpg	Short_b23_cut1_stereo_44KHz.wav
1	192	3	4	2	I	1	0	1082	1	poli_8sides 1_whiteLine3.jpg	Short_b09_cut1_stereo_44KHz.wav
1	193	2	1	0	C	1	1	1151	1	poli_8sides 15_whiteLine3.jpg	Short_b22_cut1_stereo_44KHz.wav
1	194	3	3	2	I	2	0	875	1	poli_8sides 1_whiteLine3.jpg	Short_b23_cut1_stereo_44KHz.wav
1	195	1	1	1	C	2	1	728	1	poli_8sides 10_whiteLine3.jpg	Short_b22_cut1_stereo_44KHz.wav
1	196	4	4	2	I	2	0	820	1	poli_8sides 13_whiteLine3.jpg	Short_b09_cut1_stereo_44KHz.wav
1	197	3	4	2	I	1	0	553	1	poli_8sides 1_whiteLine3.jpg	Short_b09_cut1_stereo_44KHz.wav
1	198	2	2	1	C	2	1	1029	1	poli_8sides 15_whiteLine3.jpg	Short_b20_cut1_stereo_44KHz.wav
1	199	1	2	0	C	1	1	619	1	poli_8sides 10_whiteLine3.jpg	Short_b20_cut1_stereo_44KHz.wav
1	200	4	3	2	I	2	0	1213	1	poli_8sides 13_whiteLine3.jpg	Short_b23_cut1_stereo_44KHz.wav
2	1	2	2	1	C	0	0	0	0	poli_8sides 2_whiteLine3.jpg	MediumShort_e16_cut1_stereo_44KHz.wav
2	2	1	2	0	C	2	0	804	0	poli_8sides 8_whiteLine3.jpg	MediumShort_e16_cut1_stereo_44KHz.wav
2	3	3	4	2	I	2	0	1462	1	poli_8sides 6_whiteLine3.jpg	MediumShort_b10_cut1_MS_stereo_44KHz.wav
2	4	4	4	2	I	1	0	921	0	poli_8sides 12_whiteLine3.jpg	MediumShort_b10_cut1_MS_stereo_44KHz.wav
2	5	2	1	0	C	1	1	936	1	poli_8sides 2_whiteLine3.jpg	MediumShort_e22_cut1_stereo_44KHz.wav
2	6	3	3	2	I	2	0	678	0	poli_8sides 6_whiteLine3.jpg	MediumShort_b16_cut3_MS_stereo_44KHz.wav
2	7	1	1	1	C	1	0	849	0	poli_8sides 8_whiteLine3.jpg	MediumShort_e22_cut1_stereo_44KHz.wav
2	8	4	3	2	I	2	0	846	0	poli_8sides 12_whiteLine3.jpg	MediumShort_b16_cut3_MS_stereo_44KHz.wav
2	9	2	1	0	C	1	1	734	1	poli_8sides 2_whiteLine3.jpg	MediumShort_e22_cut1_stereo_44KHz.wav
2	10	4	3	2	I	1	0	1110	1	poli_8sides 12_whiteLine3.jpg	MediumShort_b16_cut3_MS_stereo_44KHz.wav
2	11	1	1	1	C	2	1	637	1	poli_8sides 8_whiteLine3.jpg	MediumShort_e22_cut1_stereo_44KHz.wav
2	12	3	3	2	I	2	0	1076	0	poli_8sides 6_whiteLine3.jpg	MediumShort_b16_cut3_MS_stereo_44KHz.wav
2	13	2	2	1	C	2	1	742	1	poli_8sides 2_whiteLine3.jpg	MediumShort_e16_cut1_stereo_44KHz.wav
2	14	1	2	0	C	1	1	934	1	poli_8sides 8_whiteLine3.jpg	MediumShort_e16_cut1_stereo_44KHz.wav
2	15	3	4	2	I	1	0	807	1	poli_8sides 6_whiteLine3.jpg	MediumShort_b10_cut1_MS_stereo_44KHz.wav
2	16	4	4	2	I	2	0	771	1	poli_8sides 12_whiteLine3.jpg	MediumShort_b10_cut1_MS_stereo_44KHz.wav
2	17	3	4	2	I	1	0	638	0	poli_8sides 6_whiteLine3.jpg	MediumShort_b10_cut1_MS_stereo_44KHz.wav
2	18	2	1	0	C	1	1	719	1	poli_8sides 2_whiteLine3.jpg	MediumShort_e22_cut1_stereo_44KHz.wav
2	19	1	2	0	C	1	1	1006	1	poli_8sides 8_whiteLine3.jpg	MediumShort_e16_cut1_stereo_44KHz.wav
2	20	4	3	2	I	1	0	1111	1	poli_8sides 12_whiteLine3.jpg	MediumShort_b16_cut3_MS_stereo_44KHz.wav
2	21	3	3	2	I	2	0	785	1	poli_8sides 6_whiteLine3.jpg	MediumShort_b16_cut3_MS_stereo_44KHz.wav
2	22	2	2	1	C	2	1	958	1	poli_8sides 2_whiteLine3.jpg	MediumShort_e16_cut1_stereo_44KHz.wav
2	23	1	1	1	C	2	1	622	1	poli_8sides 8_whiteLine3.jpg	MediumShort_e22_cut1_stereo_44KHz.wav
2	24	4	4	2	I	2	0	1044	0	poli_8sides 12_whiteLine3.jpg	MediumShort_b10_cut1_MS_stereo_44KHz.wav
2	25	2	1	0	C	1	1	716	1	poli_8sides 2_whiteLine3.jpg	MediumShort_e22_cut1_stereo_44KHz.wav
2	26	1	2	0	C	1	1	729	1	poli_8sides 8_whiteLine3.jpg	MediumShort_e16_cut1_stereo_44KHz.wav
2	27	3	4	2	I	1	0	818	1	poli_8sides 6_whiteLine3.jpg	MediumShort_b10_cut1_MS_stereo_44KHz.wav
2	28	4	3	2	I	1	0	946	0	poli_8sides 12_whiteLine3.jpg	MediumShort_b16_cut3_MS_stereo_44KHz.wav
2	29	3	3	2	I	2	0	1234	0	poli_8sides 6_whiteLine3.jpg	MediumShort_b16_cut3_MS_stereo_44KHz.wav
2	30	2	2	1	C	2	1	924	1	poli_8sides 2_whiteLine3.jpg	MediumShort_e16_cut1_stereo_44KHz.wav
2	31	4	4	2	I	1	0	873	1	poli_8sides 12_whiteLine3.jpg	MediumShort_b10_cut1_MS_stereo_44KHz.wav
2	32	1	1	1	C	2	1	827	1	poli_8sides 8_whiteLine3.jpg	MediumShort_e22_cut1_stereo_44KHz.wav
2	33	4	4	2	I	2	0	1070	1	poli_8sides 12_whiteLine3.jpg	MediumShort_b10_cut1_MS_stereo_44KHz.wav
2	34	1	2	0	C	1	1	854	1	poli_8sides 8_whiteLine3.jpg	MediumShort_e16_cut1_stereo_44KHz.wav
2	35	2	1	0	C	1	1	595	1	poli_8sides 2_whiteLine3.jpg	MediumShort_e22_cut1_stereo_44KHz.wav
2	36	3	4	2	I	1	0	1103	0	poli_8sides 6_whiteLine3.jpg	MediumShort_b10_cut1_MS_stereo_44KHz.wav
2	37	1	1	1	C	2	1	891	1	poli_8sides 8_whiteLine3.jpg	MediumShort_e22_cut1_stereo_44KHz.wav
2	38	4	3	2	I	1	0	1213	0	poli_8sides 12_whiteLine3.jpg	MediumShort_b16_cut3_MS_stereo_44KHz.wav
2	39	2	2	1	C	2	1	758	1	poli_8sides 2_whiteLine3.jpg	MediumShort_e16_cut1_stereo_44KHz.wav
2	40	3	3	2	I	2	0	1039	0	poli_8sides 6_whiteLine3.jpg	MediumShort_b16_cut3_MS_stereo_44KHz.wav
2	41	4	4	2	I	2	0	1193	0	poli_8sides 12_whiteLine3.jpg	MediumShort_b10_cut1_MS_stereo_44KHz.wav
2	42	1	2	0	C	1	1	692	1	poli_8sides 8_whiteLine3.jpg	MediumShort_e16_cut1_stereo_44KHz.wav
2	43	2	2	1	C	2	1	789	1	poli_8sides 2_whiteLine3.jpg	MediumShort_e16_cut1_stereo_44KHz.wav
2	44	3	4	2	I	2	0	1093	0	poli_8sides 6_whiteLine3.jpg	MediumShort_b10_cut1_MS_stereo_44KHz.wav
2	45	2	1	0	C	1	1	637	1	poli_8sides 2_whiteLine3.jpg	MediumShort_e22_cut1_stereo_44KHz.wav
2	46	3	3	2	I	2	0	959	1	poli_8sides 6_whiteLine3.jpg	MediumShort_b16_cut3_MS_stereo_44KHz.wav
2	47	1	1	1	C	2	1	868	1	poli_8sides 8_whiteLine3.jpg	MediumShort_e22_cut1_stereo_44KHz.wav
2	48	4	3	2	I	2	0	1057	0	poli_8sides 12_whiteLine3.jpg	MediumShort_b16_cut3_MS_stereo_44KHz.wav
2	49	2	2	1	C	2	1	761	1	poli_8sides 2_whiteLine3.jpg	MediumShort_e16_cut1_stereo_44KHz.wav
2	50	3	4	2	I	1	0	1433	0	poli_8sides 6_whiteLine3.jpg	MediumShort_b10_cut1_MS_stereo_44KHz.wav
2	51	1	2	0	C	1	1	825	1	poli_8sides 8_whiteLine3.jpg	MediumShort_e16_cut1_stereo_44KHz.wav
2	52	4	4	2	I	2	0	1046	0	poli_8sides 12_whiteLine3.jpg	MediumShort_b10_cut1_MS_stereo_44KHz.wav
2	53	1	1	1	C	2	1	889	1	poli_8sides 8_whiteLine3.jpg	MediumShort_e22_cut1_stereo_44KHz.wav
2	54	4	3	2	I	1	0	1316	1	poli_8sides 12_whiteLine3.jpg	MediumShort_b16_cut3_MS_stereo_44KHz.wav
2	55	2	1	0	C	1	1	529	1	poli_8sides 2_whiteLine3.jpg	MediumShort_e22_cut1_stereo_44KHz.wav
2	56	3	3	2	I	1	0	931	0	poli_8sides 6_whiteLine3.jpg	MediumShort_b16_cut3_MS_stereo_44KHz.wav
2	57	1	2	0	C	1	1	637	1	poli_8sides 8_whiteLine3.jpg	MediumShort_e16_cut1_stereo_44KHz.wav
2	58	4	3	2	I	2	0	1045	1	poli_8sides 12_whiteLine3.jpg	MediumShort_b16_cut3_MS_stereo_44KHz.wav
2	59	2	2	1	C	2	1	762	1	poli_8sides 2_whiteLine3.jpg	MediumShort_e16_cut1_stereo_44KHz.wav
2	60	3	4	2	I	2	0	908	1	poli_8sides 6_whiteLine3.jpg	MediumShort_b10_cut1_MS_stereo_44KHz.wav
2	61	1	1	1	C	2	1	784	1	poli_8sides 8_whiteLine3.jpg	MediumShort_e22_cut1_stereo_44KHz.wav
2	62	2	1	0	C	1	1	889	1	poli_8sides 2_whiteLine3.jpg	MediumShort_e22_cut1_stereo_44KHz.wav
2	63	4	4	2	I	1	0	928	0	poli_8sides 12_whiteLine3.jpg	MediumShort_b10_cut1_MS_stereo_44KHz.wav
2	64	3	3	2	I	2	0	1932	0	poli_8sides 6_whiteLine3.jpg	MediumShort_b16_cut3_MS_stereo_44KHz.wav
2	65	4	3	2	I	1	0	1212	0	poli_8sides 12_whiteLine3.jpg	MediumShort_b16_cut3_MS_stereo_44KHz.wav
2	66	2	1	0	C	1	1	625	1	poli_8sides 2_whiteLine3.jpg	MediumShort_e22_cut1_stereo_44KHz.wav
2	67	3	3	2	I	1	0	1131	0	poli_8sides 6_whiteLine3.jpg	MediumShort_b16_cut3_MS_stereo_44KHz.wav
2	68	1	1	1	C	2	1	698	1	poli_8sides 8_whiteLine3.jpg	MediumShort_e22_cut1_stereo_44KHz.wav
2	69	2	2	1	C	2	1	889	1	poli_8sides 2_whiteLine3.jpg	MediumShort_e16_cut1_stereo_44KHz.wav
2	70	1	2	0	C	1	1	933	1	poli_8sides 8_whiteLine3.jpg	MediumShort_e16_cut1_stereo_44KHz.wav
2	71	4	4	2	I	1	0	1375	0	poli_8sides 12_whiteLine3.jpg	MediumShort_b10_cut1_MS_stereo_44KHz.wav
2	72	3	4	2	I	2	0	1093	1	poli_8sides 6_whiteLine3.jpg	MediumShort_b10_cut1_MS_stereo_44KHz.wav
2	73	1	2	0	C	1	1	517	1	poli_8sides 8_whiteLine3.jpg	MediumShort_e16_cut1_stereo_44KHz.wav
2	74	2	1	0	C	1	1	404	1	poli_8sides 2_whiteLine3.jpg	MediumShort_e22_cut1_stereo_44KHz.wav
2	75	3	3	2	I	2	0	1093	1	poli_8sides 6_whiteLine3.jpg	MediumShort_b16_cut3_MS_stereo_44KHz.wav
2	76	4	3	2	I	1	0	648	0	poli_8sides 12_whiteLine3.jpg	MediumShort_b16_cut3_MS_stereo_44KHz.wav
2	77	2	2	1	C	2	1	1132	1	poli_8sides 2_whiteLine3.jpg	MediumShort_e16_cut1_stereo_44KHz.wav
2	78	4	4	2	I	2	0	1563	1	poli_8sides 12_whiteLine3.jpg	MediumShort_b10_cut1_MS_stereo_44KHz.wav
2	79	3	4	2	I	1	0	1278	0	poli_8sides 6_whiteLine3.jpg	MediumShort_b10_cut1_MS_stereo_44KHz.wav
2	80	1	1	1	C	2	1	1150	1	poli_8sides 8_whiteLine3.jpg	MediumShort_e22_cut1_stereo_44KHz.wav
2	81	4	3	2	I	2	0	1534	1	poli_8sides 12_whiteLine3.jpg	MediumShort_b16_cut3_MS_stereo_44KHz.wav
2	82	2	1	0	C	1	1	804	1	poli_8sides 2_whiteLine3.jpg	MediumShort_e22_cut1_stereo_44KHz.wav
2	83	3	4	2	I	1	0	1008	0	poli_8sides 6_whiteLine3.jpg	MediumShort_b10_cut1_MS_stereo_44KHz.wav
2	84	1	1	1	C	2	1	1010	1	poli_8sides 8_whiteLine3.jpg	MediumShort_e22_cut1_stereo_44KHz.wav
2	85	2	2	1	C	2	1	739	1	poli_8sides 2_whiteLine3.jpg	MediumShort_e16_cut1_stereo_44KHz.wav
2	86	3	3	2	I	1	0	1337	1	poli_8sides 6_whiteLine3.jpg	MediumShort_b16_cut3_MS_stereo_44KHz.wav
2	87	4	4	2	I	1	0	1128	1	poli_8sides 12_whiteLine3.jpg	MediumShort_b10_cut1_MS_stereo_44KHz.wav
2	88	1	2	0	C	1	1	658	1	poli_8sides 8_whiteLine3.jpg	MediumShort_e16_cut1_stereo_44KHz.wav
2	89	4	4	2	I	1	0	977	1	poli_8sides 12_whiteLine3.jpg	MediumShort_b10_cut1_MS_stereo_44KHz.wav
2	90	1	2	0	C	1	1	766	1	poli_8sides 8_whiteLine3.jpg	MediumShort_e16_cut1_stereo_44KHz.wav
2	91	3	4	2	I	1	0	1035	0	poli_8sides 6_whiteLine3.jpg	MediumShort_b10_cut1_MS_stereo_44KHz.wav
2	92	2	2	1	C	2	1	818	1	poli_8sides 2_whiteLine3.jpg	MediumShort_e16_cut1_stereo_44KHz.wav
2	93	1	1	1	C	2	1	822	1	poli_8sides 8_whiteLine3.jpg	MediumShort_e22_cut1_stereo_44KHz.wav
2	94	2	1	0	C	1	1	903	1	poli_8sides 2_whiteLine3.jpg	MediumShort_e22_cut1_stereo_44KHz.wav
2	95	3	3	2	I	1	0	842	1	poli_8sides 6_whiteLine3.jpg	MediumShort_b16_cut3_MS_stereo_44KHz.wav
2	96	4	3	2	I	2	0	805	1	poli_8sides 12_whiteLine3.jpg	MediumShort_b16_cut3_MS_stereo_44KHz.wav
2	97	2	1	0	C	1	1	672	1	poli_8sides 2_whiteLine3.jpg	MediumShort_e22_cut1_stereo_44KHz.wav
2	98	1	1	1	C	2	1	680	1	poli_8sides 8_whiteLine3.jpg	MediumShort_e22_cut1_stereo_44KHz.wav
2	99	3	3	2	I	2	0	1028	1	poli_8sides 6_whiteLine3.jpg	MediumShort_b16_cut3_MS_stereo_44KHz.wav
2	100	4	3	2	I	2	0	1220	1	poli_8sides 12_whiteLine3.jpg	MediumShort_b16_cut3_MS_stereo_44KHz.wav
2	101	1	2	0	C	1	1	752	1	poli_8sides 8_whiteLine3.jpg	MediumShort_e16_cut1_stereo_44KHz.wav
2	102	4	4	2	I	1	0	1135	1	poli_8sides 12_whiteLine3.jpg	MediumShort_b10_cut1_MS_stereo_44KHz.wav
2	103	3	4	2	I	1	0	1661	1	poli_8sides 6_whiteLine3.jpg	MediumShort_b10_cut1_MS_stereo_44KHz.wav
2	104	2	2	1	C	2	1	756	1	poli_8sides 2_whiteLine3.jpg	MediumShort_e16_cut1_stereo_44KHz.wav
2	105	1	2	0	C	1	1	701	1	poli_8sides 8_whiteLine3.jpg	MediumShort_e16_cut1_stereo_44KHz.wav
2	106	2	1	0	C	1	1	783	1	poli_8sides 2_whiteLine3.jpg	MediumShort_e22_cut1_stereo_44KHz.wav
2	107	3	4	2	I	2	0	994	0	poli_8sides 6_whiteLine3.jpg	MediumShort_b10_cut1_MS_stereo_44KHz.wav
2	108	4	3	2	I	2	0	1230	1	poli_8sides 12_whiteLine3.jpg	MediumShort_b16_cut3_MS_stereo_44KHz.wav
2	109	3	3	2	I	1	0	1124	0	poli_8sides 6_whiteLine3.jpg	MediumShort_b16_cut3_MS_stereo_44KHz.wav
2	110	4	4	2	I	1	0	1890	0	poli_8sides 12_whiteLine3.jpg	MediumShort_b10_cut1_MS_stereo_44KHz.wav
2	111	2	2	1	C	2	1	748	1	poli_8sides 2_whiteLine3.jpg	MediumShort_e16_cut1_stereo_44KHz.wav
2	112	1	1	1	C	2	1	1201	1	poli_8sides 8_whiteLine3.jpg	MediumShort_e22_cut1_stereo_44KHz.wav
2	113	4	4	2	I	1	0	1203	0	poli_8sides 12_whiteLine3.jpg	MediumShort_b10_cut1_MS_stereo_44KHz.wav
2	114	3	3	2	I	2	0	1459	0	poli_8sides 6_whiteLine3.jpg	MediumShort_b16_cut3_MS_stereo_44KHz.wav
2	115	1	1	1	C	2	1	825	1	poli_8sides 8_whiteLine3.jpg	MediumShort_e22_cut1_stereo_44KHz.wav
2	116	2	1	0	C	1	1	1088	1	poli_8sides 2_whiteLine3.jpg	MediumShort_e22_cut1_stereo_44KHz.wav
2	117	4	3	2	I	2	0	1546	0	poli_8sides 12_whiteLine3.jpg	MediumShort_b16_cut3_MS_stereo_44KHz.wav
2	118	2	2	1	C	2	1	1631	1	poli_8sides 2_whiteLine3.jpg	MediumShort_e16_cut1_stereo_44KHz.wav
2	119	1	2	0	C	1	1	679	1	poli_8sides 8_whiteLine3.jpg	MediumShort_e16_cut1_stereo_44KHz.wav
2	120	3	4	2	I	2	0	1212	1	poli_8sides 6_whiteLine3.jpg	MediumShort_b10_cut1_MS_stereo_44KHz.wav
2	121	2	1	0	C	1	1	693	1	poli_8sides 2_whiteLine3.jpg	MediumShort_e22_cut1_stereo_44KHz.wav
2	122	3	3	2	I	2	0	788	1	poli_8sides 6_whiteLine3.jpg	MediumShort_b16_cut3_MS_stereo_44KHz.wav
2	123	1	1	1	C	2	1	895	1	poli_8sides 8_whiteLine3.jpg	MediumShort_e22_cut1_stereo_44KHz.wav
2	124	4	4	2	I	1	0	1216	1	poli_8sides 12_whiteLine3.jpg	MediumShort_b10_cut1_MS_stereo_44KHz.wav
2	125	1	2	0	C	1	1	781	1	poli_8sides 8_whiteLine3.jpg	MediumShort_e16_cut1_stereo_44KHz.wav
2	126	4	3	2	I	2	0	1331	0	poli_8sides 12_whiteLine3.jpg	MediumShort_b16_cut3_MS_stereo_44KHz.wav
2	127	2	2	1	C	2	1	863	1	poli_8sides 2_whiteLine3.jpg	MediumShort_e16_cut1_stereo_44KHz.wav
2	128	3	4	2	I	2	0	1294	0	poli_8sides 6_whiteLine3.jpg	MediumShort_b10_cut1_MS_stereo_44KHz.wav
2	129	4	3	2	I	1	0	1079	1	poli_8sides 12_whiteLine3.jpg	MediumShort_b16_cut3_MS_stereo_44KHz.wav
2	130	2	2	1	C	2	1	960	1	poli_8sides 2_whiteLine3.jpg	MediumShort_e16_cut1_stereo_44KHz.wav
2	131	3	3	2	I	1	0	735	1	poli_8sides 6_whiteLine3.jpg	MediumShort_b16_cut3_MS_stereo_44KHz.wav
2	132	1	2	0	C	1	1	832	1	poli_8sides 8_whiteLine3.jpg	MediumShort_e16_cut1_stereo_44KHz.wav
2	133	3	4	2	I	1	0	854	0	poli_8sides 6_whiteLine3.jpg	MediumShort_b10_cut1_MS_stereo_44KHz.wav
2	134	1	1	1	C	2	1	864	1	poli_8sides 8_whiteLine3.jpg	MediumShort_e22_cut1_stereo_44KHz.wav
2	135	4	4	2	I	1	0	1266	0	poli_8sides 12_whiteLine3.jpg	MediumShort_b10_cut1_MS_stereo_44KHz.wav
2	136	2	1	0	C	1	1	759	1	poli_8sides 2_whiteLine3.jpg	MediumShort_e22_cut1_stereo_44KHz.wav
2	137	3	3	2	I	1	0	1403	0	poli_8sides 6_whiteLine3.jpg	MediumShort_b16_cut3_MS_stereo_44KHz.wav
2	138	1	2	0	C	1	1	729	1	poli_8sides 8_whiteLine3.jpg	MediumShort_e16_cut1_stereo_44KHz.wav
2	139	4	4	2	I	1	0	1235	0	poli_8sides 12_whiteLine3.jpg	MediumShort_b10_cut1_MS_stereo_44KHz.wav
2	140	2	2	1	C	2	1	777	1	poli_8sides 2_whiteLine3.jpg	MediumShort_e16_cut1_stereo_44KHz.wav
2	141	4	3	2	I	2	0	936	1	poli_8sides 12_whiteLine3.jpg	MediumShort_b16_cut3_MS_stereo_44KHz.wav
2	142	1	1	1	C	2	1	817	1	poli_8sides 8_whiteLine3.jpg	MediumShort_e22_cut1_stereo_44KHz.wav
2	143	2	1	0	C	1	1	745	1	poli_8sides 2_whiteLine3.jpg	MediumShort_e22_cut1_stereo_44KHz.wav
2	144	3	4	2	I	2	0	1021	1	poli_8sides 6_whiteLine3.jpg	MediumShort_b10_cut1_MS_stereo_44KHz.wav
2	145	2	2	1	C	2	1	1092	1	poli_8sides 2_whiteLine3.jpg	MediumShort_e16_cut1_stereo_44KHz.wav
2	146	3	3	2	I	2	0	937	1	poli_8sides 6_whiteLine3.jpg	MediumShort_b16_cut3_MS_stereo_44KHz.wav
2	147	4	3	2	I	2	0	1219	0	poli_8sides 12_whiteLine3.jpg	MediumShort_b16_cut3_MS_stereo_44KHz.wav
2	148	1	2	0	C	1	1	921	1	poli_8sides 8_whiteLine3.jpg	MediumShort_e16_cut1_stereo_44KHz.wav
2	149	4	4	2	I	2	0	962	1	poli_8sides 12_whiteLine3.jpg	MediumShort_b10_cut1_MS_stereo_44KHz.wav
2	150	2	1	0	C	1	1	688	1	poli_8sides 2_whiteLine3.jpg	MediumShort_e22_cut1_stereo_44KHz.wav
2	151	1	1	1	C	2	1	738	1	poli_8sides 8_whiteLine3.jpg	MediumShort_e22_cut1_stereo_44KHz.wav
2	152	3	4	2	I	1	0	1468	1	poli_8sides 6_whiteLine3.jpg	MediumShort_b10_cut1_MS_stereo_44KHz.wav
2	153	2	1	0	C	1	1	1048	1	poli_8sides 2_whiteLine3.jpg	MediumShort_e22_cut1_stereo_44KHz.wav
2	154	4	3	2	I	2	0	1756	0	poli_8sides 12_whiteLine3.jpg	MediumShort_b16_cut3_MS_stereo_44KHz.wav
2	155	1	1	1	C	2	1	824	1	poli_8sides 8_whiteLine3.jpg	MediumShort_e22_cut1_stereo_44KHz.wav
2	156	3	4	2	I	2	0	939	1	poli_8sides 6_whiteLine3.jpg	MediumShort_b10_cut1_MS_stereo_44KHz.wav
2	157	4	4	2	I	1	0	578	0	poli_8sides 12_whiteLine3.jpg	MediumShort_b10_cut1_MS_stereo_44KHz.wav
2	158	3	3	2	I	1	0	1556	1	poli_8sides 6_whiteLine3.jpg	MediumShort_b16_cut3_MS_stereo_44KHz.wav
2	159	1	2	0	C	1	1	803	1	poli_8sides 8_whiteLine3.jpg	MediumShort_e16_cut1_stereo_44KHz.wav
2	160	2	2	1	C	2	1	846	1	poli_8sides 2_whiteLine3.jpg	MediumShort_e16_cut1_stereo_44KHz.wav
2	161	4	3	2	I	2	0	1087	0	poli_8sides 12_whiteLine3.jpg	MediumShort_b16_cut3_MS_stereo_44KHz.wav
2	162	1	1	1	C	2	1	763	1	poli_8sides 8_whiteLine3.jpg	MediumShort_e22_cut1_stereo_44KHz.wav
2	163	2	2	1	C	2	1	926	1	poli_8sides 2_whiteLine3.jpg	MediumShort_e16_cut1_stereo_44KHz.wav
2	164	3	4	2	I	1	0	1613	1	poli_8sides 6_whiteLine3.jpg	MediumShort_b10_cut1_MS_stereo_44KHz.wav
2	165	4	4	2	I	2	0	972	1	poli_8sides 12_whiteLine3.jpg	MediumShort_b10_cut1_MS_stereo_44KHz.wav
2	166	2	1	0	C	1	1	732	1	poli_8sides 2_whiteLine3.jpg	MediumShort_e22_cut1_stereo_44KHz.wav
2	167	1	2	0	C	1	1	660	1	poli_8sides 8_whiteLine3.jpg	MediumShort_e16_cut1_stereo_44KHz.wav
2	168	3	3	2	I	1	0	768	1	poli_8sides 6_whiteLine3.jpg	MediumShort_b16_cut3_MS_stereo_44KHz.wav
2	169	1	1	1	C	2	1	726	1	poli_8sides 8_whiteLine3.jpg	MediumShort_e22_cut1_stereo_44KHz.wav
2	170	3	4	2	I	2	0	1837	0	poli_8sides 6_whiteLine3.jpg	MediumShort_b10_cut1_MS_stereo_44KHz.wav
2	171	4	4	2	I	2	0	848	1	poli_8sides 12_whiteLine3.jpg	MediumShort_b10_cut1_MS_stereo_44KHz.wav
2	172	2	2	1	C	2	1	1026	1	poli_8sides 2_whiteLine3.jpg	MediumShort_e16_cut1_stereo_44KHz.wav
2	173	1	2	0	C	1	1	647	1	poli_8sides 8_whiteLine3.jpg	MediumShort_e16_cut1_stereo_44KHz.wav
2	174	3	3	2	I	1	0	793	1	poli_8sides 6_whiteLine3.jpg	MediumShort_b16_cut3_MS_stereo_44KHz.wav
2	175	2	1	0	C	1	1	867	1	poli_8sides 2_whiteLine3.jpg	MediumShort_e22_cut1_stereo_44KHz.wav
2	176	4	3	2	I	1	0	1257	1	poli_8sides 12_whiteLine3.jpg	MediumShort_b16_cut3_MS_stereo_44KHz.wav
2	177	2	2	1	C	2	1	714	1	poli_8sides 2_whiteLine3.jpg	MediumShort_e16_cut1_stereo_44KHz.wav
2	178	1	2	0	C	1	1	617	1	poli_8sides 8_whiteLine3.jpg	MediumShort_e16_cut1_stereo_44KHz.wav
2	179	4	3	2	I	1	0	904	0	poli_8sides 12_whiteLine3.jpg	MediumShort_b16_cut3_MS_stereo_44KHz.wav
2	180	3	3	2	I	1	0	756	0	poli_8sides 6_whiteLine3.jpg	MediumShort_b16_cut3_MS_stereo_44KHz.wav
2	181	2	1	0	C	1	1	728	1	poli_8sides 2_whiteLine3.jpg	MediumShort_e22_cut1_stereo_44KHz.wav
2	182	3	4	2	I	2	0	797	0	poli_8sides 6_whiteLine3.jpg	MediumShort_b10_cut1_MS_stereo_44KHz.wav
2	183	4	4	2	I	2	0	755	0	poli_8sides 12_whiteLine3.jpg	MediumShort_b10_cut1_MS_stereo_44KHz.wav
2	184	1	1	1	C	2	1	779	1	poli_8sides 8_whiteLine3.jpg	MediumShort_e22_cut1_stereo_44KHz.wav
2	185	4	3	2	I	1	0	1234	0	poli_8sides 12_whiteLine3.jpg	MediumShort_b16_cut3_MS_stereo_44KHz.wav
2	186	2	2	1	C	2	1	832	1	poli_8sides 2_whiteLine3.jpg	MediumShort_e16_cut1_stereo_44KHz.wav
2	187	1	1	1	C	2	1	823	1	poli_8sides 8_whiteLine3.jpg	MediumShort_e22_cut1_stereo_44KHz.wav
2	188	3	4	2	I	2	0	1059	0	poli_8sides 6_whiteLine3.jpg	MediumShort_b10_cut1_MS_stereo_44KHz.wav
2	189	4	4	2	I	1	0	740	1	poli_8sides 12_whiteLine3.jpg	MediumShort_b10_cut1_MS_stereo_44KHz.wav
2	190	2	1	0	C	1	1	677	1	poli_8sides 2_whiteLine3.jpg	MediumShort_e22_cut1_stereo_44KHz.wav
2	191	1	2	0	C	1	1	601	1	poli_8sides 8_whiteLine3.jpg	MediumShort_e16_cut1_stereo_44KHz.wav
2	192	3	3	2	I	1	0	709	1	poli_8sides 6_whiteLine3.jpg	MediumShort_b16_cut3_MS_stereo_44KHz.wav
2	193	4	4	2	I	2	0	1070	1	poli_8sides 12_whiteLine3.jpg	MediumShort_b10_cut1_MS_stereo_44KHz.wav
2	194	3	4	2	I	2	0	573	0	poli_8sides 6_whiteLine3.jpg	MediumShort_b10_cut1_MS_stereo_44KHz.wav
2	195	1	2	0	C	1	1	925	1	poli_8sides 8_whiteLine3.jpg	MediumShort_e16_cut1_stereo_44KHz.wav
2	196	2	2	1	C	2	1	750	1	poli_8sides 2_whiteLine3.jpg	MediumShort_e16_cut1_stereo_44KHz.wav
2	197	3	3	2	I	2	0	1378	1	poli_8sides 6_whiteLine3.jpg	MediumShort_b16_cut3_MS_stereo_44KHz.wav
2	198	1	1	1	C	2	1	880	1	poli_8sides 8_whiteLine3.jpg	MediumShort_e22_cut1_stereo_44KHz.wav
2	199	2	1	0	C	1	1	714	1	poli_8sides 2_whiteLine3.jpg	MediumShort_e22_cut1_stereo_44KHz.wav
2	200	4	3	2	I	1	0	1054	1	poli_8sides 12_whiteLine3.jpg	MediumShort_b16_cut3_MS_stereo_44KHz.wav
3	1	1	1	1	C	2	1	1281	1	poli_8sides 16_whiteLine3.jpg	Medium_e26_stereo_44KHz.wav
3	2	2	1	0	C	1	1	971	1	poli_8sides 18_whiteLine3.jpg	Medium_e26_stereo_44KHz.wav
3	3	3	3	2	I	1	0	852	0	poli_8sides 3_whiteLine3.jpg	MediumLong_e04_stereo_44KHz.wav
3	4	4	4	2	I	2	0	1162	1	poli_8sides 7_whiteLine3.jpg	MediumLong_b10_cut2_L_stereo_44KHz.wav
3	5	3	4	2	I	1	0	895	0	poli_8sides 3_whiteLine3.jpg	MediumLong_b10_cut2_L_stereo_44KHz.wav
3	6	4	3	2	I	2	0	1129	0	poli_8sides 7_whiteLine3.jpg	MediumLong_e04_stereo_44KHz.wav
3	7	1	2	0	C	2	0	912	0	poli_8sides 16_whiteLine3.jpg	Medium_e13_stereo_44KHz.wav
3	8	2	2	1	C	2	1	873	1	poli_8sides 18_whiteLine3.jpg	Medium_e13_stereo_44KHz.wav
3	9	4	3	2	I	1	0	1049	1	poli_8sides 7_whiteLine3.jpg	MediumLong_e04_stereo_44KHz.wav
3	10	2	2	1	C	2	1	919	1	poli_8sides 18_whiteLine3.jpg	Medium_e13_stereo_44KHz.wav
3	11	1	2	0	C	1	1	541	1	poli_8sides 16_whiteLine3.jpg	Medium_e13_stereo_44KHz.wav
3	12	3	4	2	I	1	0	1112	0	poli_8sides 3_whiteLine3.jpg	MediumLong_b10_cut2_L_stereo_44KHz.wav
3	13	4	4	2	I	2	0	733	0	poli_8sides 7_whiteLine3.jpg	MediumLong_b10_cut2_L_stereo_44KHz.wav
3	14	3	3	2	I	2	0	942	1	poli_8sides 3_whiteLine3.jpg	MediumLong_e04_stereo_44KHz.wav
3	15	1	1	1	C	2	1	919	1	poli_8sides 16_whiteLine3.jpg	Medium_e26_stereo_44KHz.wav
3	16	2	1	0	C	2	0	856	0	poli_8sides 18_whiteLine3.jpg	Medium_e26_stereo_44KHz.wav
3	17	3	3	2	I	2	0	851	1	poli_8sides 3_whiteLine3.jpg	MediumLong_e04_stereo_44KHz.wav
3	18	4	4	2	I	1	0	921	0	poli_8sides 7_whiteLine3.jpg	MediumLong_b10_cut2_L_stereo_44KHz.wav
3	19	2	1	0	C	2	0	724	0	poli_8sides 18_whiteLine3.jpg	Medium_e26_stereo_44KHz.wav
3	20	1	1	1	C	2	1	1009	1	poli_8sides 16_whiteLine3.jpg	Medium_e26_stereo_44KHz.wav
3	21	4	3	2	I	2	0	830	0	poli_8sides 7_whiteLine3.jpg	MediumLong_e04_stereo_44KHz.wav
3	22	2	2	1	C	2	1	1120	1	poli_8sides 18_whiteLine3.jpg	Medium_e13_stereo_44KHz.wav
3	23	3	4	2	I	2	0	677	1	poli_8sides 3_whiteLine3.jpg	MediumLong_b10_cut2_L_stereo_44KHz.wav
3	24	1	2	0	C	1	1	678	1	poli_8sides 16_whiteLine3.jpg	Medium_e13_stereo_44KHz.wav
3	25	2	1	0	C	2	0	801	0	poli_8sides 18_whiteLine3.jpg	Medium_e26_stereo_44KHz.wav
3	26	1	1	1	C	2	1	801	1	poli_8sides 16_whiteLine3.jpg	Medium_e26_stereo_44KHz.wav
3	27	4	3	2	I	1	0	1022	1	poli_8sides 7_whiteLine3.jpg	MediumLong_e04_stereo_44KHz.wav
3	28	3	3	2	I	2	0	798	1	poli_8sides 3_whiteLine3.jpg	MediumLong_e04_stereo_44KHz.wav
3	29	2	2	1	C	1	0	812	0	poli_8sides 18_whiteLine3.jpg	Medium_e13_stereo_44KHz.wav
3	30	1	2	0	C	1	1	557	1	poli_8sides 16_whiteLine3.jpg	Medium_e13_stereo_44KHz.wav
3	31	4	4	2	I	2	0	1091	0	poli_8sides 7_whiteLine3.jpg	MediumLong_b10_cut2_L_stereo_44KHz.wav
3	32	3	4	2	I	2	0	1337	0	poli_8sides 3_whiteLine3.jpg	MediumLong_b10_cut2_L_stereo_44KHz.wav
3	33	1	1	1	C	1	0	1639	0	poli_8sides 16_whiteLine3.jpg	Medium_e26_stereo_44KHz.wav
3	34	3	4	2	I	2	0	981	0	poli_8sides 3_whiteLine3.jpg	MediumLong_b10_cut2_L_stereo_44KHz.wav
3	35	4	4	2	I	2	0	956	0	poli_8sides 7_whiteLine3.jpg	MediumLong_b10_cut2_L_stereo_44KHz.wav
3	36	2	2	1	C	2	1	1394	1	poli_8sides 18_whiteLine3.jpg	Medium_e13_stereo_44KHz.wav
3	37	3	3	2	I	2	0	852	1	poli_8sides 3_whiteLine3.jpg	MediumLong_e04_stereo_44KHz.wav
3	38	1	2	0	C	1	1	950	1	poli_8sides 16_whiteLine3.jpg	Medium_e13_stereo_44KHz.wav
3	39	2	1	0	C	1	1	1434	1	poli_8sides 18_whiteLine3.jpg	Medium_e26_stereo_44KHz.wav
3	40	4	3	2	I	1	0	1252	0	poli_8sides 7_whiteLine3.jpg	MediumLong_e04_stereo_44KHz.wav
3	41	1	1	1	C	1	0	734	0	poli_8sides 16_whiteLine3.jpg	Medium_e26_stereo_44KHz.wav
3	42	2	1	0	C	1	1	896	1	poli_8sides 18_whiteLine3.jpg	Medium_e26_stereo_44KHz.wav
3	43	4	4	2	I	1	0	983	0	poli_8sides 7_whiteLine3.jpg	MediumLong_b10_cut2_L_stereo_44KHz.wav
3	44	3	3	2	I	2	0	653	0	poli_8sides 3_whiteLine3.jpg	MediumLong_e04_stereo_44KHz.wav
3	45	4	3	2	I	1	0	1719	0	poli_8sides 7_whiteLine3.jpg	MediumLong_e04_stereo_44KHz.wav
3	46	1	2	0	C	2	0	1472	0	poli_8sides 16_whiteLine3.jpg	Medium_e13_stereo_44KHz.wav
3	47	2	2	1	C	2	1	1175	1	poli_8sides 18_whiteLine3.jpg	Medium_e13_stereo_44KHz.wav
3	48	3	4	2	I	2	0	1063	1	poli_8sides 3_whiteLine3.jpg	MediumLong_b10_cut2_L_stereo_44KHz.wav
3	49	4	4	2	I	1	0	914	1	poli_8sides 7_whiteLine3.jpg	MediumLong_b10_cut2_L_stereo_44KHz.wav
3	50	3	4	2	I	2	0	717	0	poli_8sides 3_whiteLine3.jpg	MediumLong_b10_cut2_L_stereo_44KHz.wav
3	51	1	2	0	C	1	1	1174	1	poli_8sides 16_whiteLine3.jpg	Medium_e13_stereo_44KHz.wav
3	52	2	2	1	C	0	0	0	0	poli_8sides 18_whiteLine3.jpg	Medium_e13_stereo_44KHz.wav
3	53	3	3	2	I	1	0	921	1	poli_8sides 3_whiteLine3.jpg	MediumLong_e04_stereo_44KHz.wav
3	54	2	1	0	C	1	1	1237	1	poli_8sides 18_whiteLine3.jpg	Medium_e26_stereo_44KHz.wav
3	55	1	1	1	C	2	1	867	1	poli_8sides 16_whiteLine3.jpg	Medium_e26_stereo_44KHz.wav
3	56	4	3	2	I	2	0	1076	0	poli_8sides 7_whiteLine3.jpg	MediumLong_e04_stereo_44KHz.wav
3	57	1	1	1	C	2	1	1076	1	poli_8sides 16_whiteLine3.jpg	Medium_e26_stereo_44KHz.wav
3	58	2	2	1	C	2	1	1037	1	poli_8sides 18_whiteLine3.jpg	Medium_e13_stereo_44KHz.wav
3	59	3	4	2	I	2	0	829	0	poli_8sides 3_whiteLine3.jpg	MediumLong_b10_cut2_L_stereo_44KHz.wav
3	60	4	3	2	I	1	0	1794	1	poli_8sides 7_whiteLine3.jpg	MediumLong_e04_stereo_44KHz.wav
3	61	1	2	0	C	1	1	1523	1	poli_8sides 16_whiteLine3.jpg	Medium_e13_stereo_44KHz.wav
3	62	3	3	2	I	1	0	928	0	poli_8sides 3_whiteLine3.jpg	MediumLong_e04_stereo_44KHz.wav
3	63	4	4	2	I	1	0	1843	1	poli_8sides 7_whiteLine3.jpg	MediumLong_b10_cut2_L_stereo_44KHz.wav
3	64	2	1	0	C	1	1	1813	1	poli_8sides 18_whiteLine3.jpg	Medium_e26_stereo_44KHz.wav
3	65	3	3	2	I	2	0	1357	1	poli_8sides 3_whiteLine3.jpg	MediumLong_e04_stereo_44KHz.wav
3	66	2	2	1	C	2	1	1219	1	poli_8sides 18_whiteLine3.jpg	Medium_e13_stereo_44KHz.wav
3	67	4	3	2	I	2	0	1282	1	poli_8sides 7_whiteLine3.jpg	MediumLong_e04_stereo_44KHz.wav
3	68	1	2	0	C	1	1	544	1	poli_8sides 16_whiteLine3.jpg	Medium_e13_stereo_44KHz.wav
3	69	3	4	2	I	1	0	1152	1	poli_8sides 3_whiteLine3.jpg	MediumLong_b10_cut2_L_stereo_44KHz.wav
3	70	2	1	0	C	1	1	970	1	poli_8sides 18_whiteLine3.jpg	Medium_e26_stereo_44KHz.wav
3	71	1	1	1	C	2	1	1149	1	poli_8sides 16_whiteLine3.jpg	Medium_e26_stereo_44KHz.wav
3	72	4	4	2	I	2	0	1523	1	poli_8sides 7_whiteLine3.jpg	MediumLong_b10_cut2_L_stereo_44KHz.wav
3	73	1	1	1	C	2	1	921	1	poli_8sides 16_whiteLine3.jpg	Medium_e26_stereo_44KHz.wav
3	74	2	2	1	C	2	1	982	1	poli_8sides 18_whiteLine3.jpg	Medium_e13_stereo_44KHz.wav
3	75	3	4	2	I	1	0	1015	1	poli_8sides 3_whiteLine3.jpg	MediumLong_b10_cut2_L_stereo_44KHz.wav
3	76	4	3	2	I	1	0	780	0	poli_8sides 7_whiteLine3.jpg	MediumLong_e04_stereo_44KHz.wav
3	77	2	1	0	C	1	1	995	1	poli_8sides 18_whiteLine3.jpg	Medium_e26_stereo_44KHz.wav
3	78	4	4	2	I	1	0	1482	1	poli_8sides 7_whiteLine3.jpg	MediumLong_b10_cut2_L_stereo_44KHz.wav
3	79	3	3	2	I	2	0	956	1	poli_8sides 3_whiteLine3.jpg	MediumLong_e04_stereo_44KHz.wav
3	80	1	2	0	C	0	0	0	0	poli_8sides 16_whiteLine3.jpg	Medium_e13_stereo_44KHz.wav
3	81	2	2	1	C	2	1	795	1	poli_8sides 18_whiteLine3.jpg	Medium_e13_stereo_44KHz.wav
3	82	4	3	2	I	2	0	739	0	poli_8sides 7_whiteLine3.jpg	MediumLong_e04_stereo_44KHz.wav
3	83	3	4	2	I	1	0	978	1	poli_8sides 3_whiteLine3.jpg	MediumLong_b10_cut2_L_stereo_44KHz.wav
3	84	1	1	1	C	2	1	990	1	poli_8sides 16_whiteLine3.jpg	Medium_e26_stereo_44KHz.wav
3	85	4	4	2	I	2	0	1062	1	poli_8sides 7_whiteLine3.jpg	MediumLong_b10_cut2_L_stereo_44KHz.wav
3	86	3	3	2	I	2	0	802	0	poli_8sides 3_whiteLine3.jpg	MediumLong_e04_stereo_44KHz.wav
3	87	1	2	0	C	1	1	1295	1	poli_8sides 16_whiteLine3.jpg	Medium_e13_stereo_44KHz.wav
3	88	2	1	0	C	2	0	1552	0	poli_8sides 18_whiteLine3.jpg	Medium_e26_stereo_44KHz.wav
3	89	4	4	2	I	0	0	0	0	poli_8sides 7_whiteLine3.jpg	MediumLong_b10_cut2_L_stereo_44KHz.wav
3	90	1	1	1	C	2	1	891	1	poli_8sides 16_whiteLine3.jpg	Medium_e26_stereo_44KHz.wav
3	91	3	3	2	I	1	0	766	0	poli_8sides 3_whiteLine3.jpg	MediumLong_e04_stereo_44KHz.wav
3	92	2	1	0	C	1	1	780	1	poli_8sides 18_whiteLine3.jpg	Medium_e26_stereo_44KHz.wav
3	93	4	3	2	I	1	0	859	1	poli_8sides 7_whiteLine3.jpg	MediumLong_e04_stereo_44KHz.wav
3	94	2	2	1	C	0	0	0	0	poli_8sides 18_whiteLine3.jpg	Medium_e13_stereo_44KHz.wav
3	95	1	2	0	C	1	1	836	1	poli_8sides 16_whiteLine3.jpg	Medium_e13_stereo_44KHz.wav
3	96	3	4	2	I	1	0	925	0	poli_8sides 3_whiteLine3.jpg	MediumLong_b10_cut2_L_stereo_44KHz.wav
3	97	4	3	2	I	2	0	1070	1	poli_8sides 7_whiteLine3.jpg	MediumLong_e04_stereo_44KHz.wav
3	98	1	1	1	C	2	1	1171	1	poli_8sides 16_whiteLine3.jpg	Medium_e26_stereo_44KHz.wav
3	99	2	1	0	C	1	1	841	1	poli_8sides 18_whiteLine3.jpg	Medium_e26_stereo_44KHz.wav
3	100	3	4	2	I	1	0	781	1	poli_8sides 3_whiteLine3.jpg	MediumLong_b10_cut2_L_stereo_44KHz.wav
3	101	1	2	0	C	2	0	1287	0	poli_8sides 16_whiteLine3.jpg	Medium_e13_stereo_44KHz.wav
3	102	3	3	2	I	2	0	1257	0	poli_8sides 3_whiteLine3.jpg	MediumLong_e04_stereo_44KHz.wav
3	103	2	2	1	C	1	0	1726	0	poli_8sides 18_whiteLine3.jpg	Medium_e13_stereo_44KHz.wav
3	104	4	4	2	I	2	0	1277	0	poli_8sides 7_whiteLine3.jpg	MediumLong_b10_cut2_L_stereo_44KHz.wav
3	105	1	2	0	C	1	1	685	1	poli_8sides 16_whiteLine3.jpg	Medium_e13_stereo_44KHz.wav
3	106	3	3	2	I	1	0	942	1	poli_8sides 3_whiteLine3.jpg	MediumLong_e04_stereo_44KHz.wav
3	107	2	1	0	C	1	1	940	1	poli_8sides 18_whiteLine3.jpg	Medium_e26_stereo_44KHz.wav
3	108	4	3	2	I	2	0	885	1	poli_8sides 7_whiteLine3.jpg	MediumLong_e04_stereo_44KHz.wav
3	109	3	4	2	I	2	0	819	1	poli_8sides 3_whiteLine3.jpg	MediumLong_b10_cut2_L_stereo_44KHz.wav
3	110	1	1	1	C	2	1	997	1	poli_8sides 16_whiteLine3.jpg	Medium_e26_stereo_44KHz.wav
3	111	2	2	1	C	2	1	1030	1	poli_8sides 18_whiteLine3.jpg	Medium_e13_stereo_44KHz.wav
3	112	4	4	2	I	2	0	949	1	poli_8sides 7_whiteLine3.jpg	MediumLong_b10_cut2_L_stereo_44KHz.wav
3	113	2	2	1	C	2	1	1083	1	poli_8sides 18_whiteLine3.jpg	Medium_e13_stereo_44KHz.wav
3	114	1	1	1	C	2	1	733	1	poli_8sides 16_whiteLine3.jpg	Medium_e26_stereo_44KHz.wav
3	115	3	4	2	I	2	0	902	0	poli_8sides 3_whiteLine3.jpg	MediumLong_b10_cut2_L_stereo_44KHz.wav
3	116	4	4	2	I	2	0	1043	1	poli_8sides 7_whiteLine3.jpg	MediumLong_b10_cut2_L_stereo_44KHz.wav
3	117	3	3	2	I	2	0	1152	1	poli_8sides 3_whiteLine3.jpg	MediumLong_e04_stereo_44KHz.wav
3	118	2	1	0	C	1	1	1157	1	poli_8sides 18_whiteLine3.jpg	Medium_e26_stereo_44KHz.wav
3	119	1	2	0	C	2	0	1104	0	poli_8sides 16_whiteLine3.jpg	Medium_e13_stereo_44KHz.wav
3	120	4	3	2	I	2	0	965	0	poli_8sides 7_whiteLine3.jpg	MediumLong_e04_stereo_44KHz.wav
3	121	2	1	0	C	1	1	874	1	poli_8sides 18_whiteLine3.jpg	Medium_e26_stereo_44KHz.wav
3	122	3	3	2	I	2	0	1432	0	poli_8sides 3_whiteLine3.jpg	MediumLong_e04_stereo_44KHz.wav
3	123	4	3	2	I	2	0	1062	1	poli_8sides 7_whiteLine3.jpg	MediumLong_e04_stereo_44KHz.wav
3	124	1	1	1	C	1	0	807	0	poli_8sides 16_whiteLine3.jpg	Medium_e26_stereo_44KHz.wav
3	125	3	4	2	I	2	0	1390	0	poli_8sides 3_whiteLine3.jpg	MediumLong_b10_cut2_L_stereo_44KHz.wav
3	126	1	2	0	C	1	1	1178	1	poli_8sides 16_whiteLine3.jpg	Medium_e13_stereo_44KHz.wav
3	127	4	4	2	I	2	0	1004	0	poli_8sides 7_whiteLine3.jpg	MediumLong_b10_cut2_L_stereo_44KHz.wav
3	128	2	2	1	C	1	0	730	0	poli_8sides 18_whiteLine3.jpg	Medium_e13_stereo_44KHz.wav
3	129	3	3	2	I	1	0	1030	1	poli_8sides 3_whiteLine3.jpg	MediumLong_e04_stereo_44KHz.wav
3	130	4	4	2	I	2	0	1501	0	poli_8sides 7_whiteLine3.jpg	MediumLong_b10_cut2_L_stereo_44KHz.wav
3	131	2	2	1	C	2	1	1026	1	poli_8sides 18_whiteLine3.jpg	Medium_e13_stereo_44KHz.wav
3	132	1	1	1	C	2	1	520	1	poli_8sides 16_whiteLine3.jpg	Medium_e26_stereo_44KHz.wav
3	133	3	4	2	I	2	0	1052	1	poli_8sides 3_whiteLine3.jpg	MediumLong_b10_cut2_L_stereo_44KHz.wav
3	134	4	3	2	I	2	0	769	0	poli_8sides 7_whiteLine3.jpg	MediumLong_e04_stereo_44KHz.wav
3	135	1	2	0	C	1	1	1078	1	poli_8sides 16_whiteLine3.jpg	Medium_e13_stereo_44KHz.wav
3	136	2	1	0	C	1	1	920	1	poli_8sides 18_whiteLine3.jpg	Medium_e26_stereo_44KHz.wav
3	137	4	4	2	I	1	0	1036	1	poli_8sides 7_whiteLine3.jpg	MediumLong_b10_cut2_L_stereo_44KHz.wav
3	138	3	3	2	I	1	0	668	1	poli_8sides 3_whiteLine3.jpg	MediumLong_e04_stereo_44KHz.wav
3	139	1	1	1	C	2	1	811	1	poli_8sides 16_whiteLine3.jpg	Medium_e26_stereo_44KHz.wav
3	140	2	1	0	C	1	1	920	1	poli_8sides 18_whiteLine3.jpg	Medium_e26_stereo_44KHz.wav
3	141	3	4	2	I	2	0	855	0	poli_8sides 3_whiteLine3.jpg	MediumLong_b10_cut2_L_stereo_44KHz.wav
3	142	4	3	2	I	2	0	1960	0	poli_8sides 7_whiteLine3.jpg	MediumLong_e04_stereo_44KHz.wav
3	143	1	2	0	C	1	1	1214	1	poli_8sides 16_whiteLine3.jpg	Medium_e13_stereo_44KHz.wav
3	144	2	2	1	C	2	1	819	1	poli_8sides 18_whiteLine3.jpg	Medium_e13_stereo_44KHz.wav
3	145	4	3	2	I	2	0	976	0	poli_8sides 7_whiteLine3.jpg	MediumLong_e04_stereo_44KHz.wav
3	146	2	2	1	C	2	1	1112	1	poli_8sides 18_whiteLine3.jpg	Medium_e13_stereo_44KHz.wav
3	147	3	3	2	I	2	0	1282	0	poli_8sides 3_whiteLine3.jpg	MediumLong_e04_stereo_44KHz.wav
3	148	1	1	1	C	2	1	930	1	poli_8sides 16_whiteLine3.jpg	Medium_e26_stereo_44KHz.wav
3	149	4	4	2	I	2	0	1647	1	poli_8sides 7_whiteLine3.jpg	MediumLong_b10_cut2_L_stereo_44KHz.wav
3	150	1	2	0	C	1	1	999	1	poli_8sides 16_whiteLine3.jpg	Medium_e13_stereo_44KHz.wav
3	151	2	1	0	C	1	1	1248	1	poli_8sides 18_whiteLine3.jpg	Medium_e26_stereo_44KHz.wav
3	152	3	4	2	I	2	0	1278	0	poli_8sides 3_whiteLine3.jpg	MediumLong_b10_cut2_L_stereo_44KHz.wav
3	153	4	4	2	I	1	0	1476	1	poli_8sides 7_whiteLine3.jpg	MediumLong_b10_cut2_L_stereo_44KHz.wav
3	154	1	2	0	C	1	1	865	1	poli_8sides 16_whiteLine3.jpg	Medium_e13_stereo_44KHz.wav
3	155	3	4	2	I	2	0	968	1	poli_8sides 3_whiteLine3.jpg	MediumLong_b10_cut2_L_stereo_44KHz.wav
3	156	2	1	0	C	1	1	700	1	poli_8sides 18_whiteLine3.jpg	Medium_e26_stereo_44KHz.wav
3	157	1	1	1	C	2	1	987	1	poli_8sides 16_whiteLine3.jpg	Medium_e26_stereo_44KHz.wav
3	158	3	3	2	I	2	0	853	1	poli_8sides 3_whiteLine3.jpg	MediumLong_e04_stereo_44KHz.wav
3	159	2	2	1	C	2	1	919	1	poli_8sides 18_whiteLine3.jpg	Medium_e13_stereo_44KHz.wav
3	160	4	3	2	I	2	0	959	0	poli_8sides 7_whiteLine3.jpg	MediumLong_e04_stereo_44KHz.wav
3	161	1	1	1	C	2	1	1016	1	poli_8sides 16_whiteLine3.jpg	Medium_e26_stereo_44KHz.wav
3	162	3	4	2	I	2	0	1250	1	poli_8sides 3_whiteLine3.jpg	MediumLong_b10_cut2_L_stereo_44KHz.wav
3	163	2	1	0	C	1	1	965	1	poli_8sides 18_whiteLine3.jpg	Medium_e26_stereo_44KHz.wav
3	164	4	4	2	I	1	0	1036	0	poli_8sides 7_whiteLine3.jpg	MediumLong_b10_cut2_L_stereo_44KHz.wav
3	165	2	2	1	C	2	1	746	1	poli_8sides 18_whiteLine3.jpg	Medium_e13_stereo_44KHz.wav
3	166	1	2	0	C	1	1	732	1	poli_8sides 16_whiteLine3.jpg	Medium_e13_stereo_44KHz.wav
3	167	3	3	2	I	1	0	735	0	poli_8sides 3_whiteLine3.jpg	MediumLong_e04_stereo_44KHz.wav
3	168	4	3	2	I	1	0	974	1	poli_8sides 7_whiteLine3.jpg	MediumLong_e04_stereo_44KHz.wav
3	169	2	1	0	C	1	1	706	1	poli_8sides 18_whiteLine3.jpg	Medium_e26_stereo_44KHz.wav
3	170	1	2	0	C	1	1	861	1	poli_8sides 16_whiteLine3.jpg	Medium_e13_stereo_44KHz.wav
3	171	3	3	2	I	1	0	1264	0	poli_8sides 3_whiteLine3.jpg	MediumLong_e04_stereo_44KHz.wav
3	172	4	4	2	I	2	0	1398	1	poli_8sides 7_whiteLine3.jpg	MediumLong_b10_cut2_L_stereo_44KHz.wav
3	173	1	1	1	C	2	1	923	1	poli_8sides 16_whiteLine3.jpg	Medium_e26_stereo_44KHz.wav
3	174	2	2	1	C	2	1	906	1	poli_8sides 18_whiteLine3.jpg	Medium_e13_stereo_44KHz.wav
3	175	3	4	2	I	1	0	1143	0	poli_8sides 3_whiteLine3.jpg	MediumLong_b10_cut2_L_stereo_44KHz.wav
3	176	4	3	2	I	2	0	873	1	poli_8sides 7_whiteLine3.jpg	MediumLong_e04_stereo_44KHz.wav
3	177	3	3	2	I	1	0	935	1	poli_8sides 3_whiteLine3.jpg	MediumLong_e04_stereo_44KHz.wav
3	178	1	2	0	C	1	1	1387	1	poli_8sides 16_whiteLine3.jpg	Medium_e13_stereo_44KHz.wav
3	179	4	4	2	I	1	0	950	1	poli_8sides 7_whiteLine3.jpg	MediumLong_b10_cut2_L_stereo_44KHz.wav
3	180	2	2	1	C	2	1	1070	1	poli_8sides 18_whiteLine3.jpg	Medium_e13_stereo_44KHz.wav
3	181	1	1	1	C	2	1	762	1	poli_8sides 16_whiteLine3.jpg	Medium_e26_stereo_44KHz.wav
3	182	4	3	2	I	2	0	683	0	poli_8sides 7_whiteLine3.jpg	MediumLong_e04_stereo_44KHz.wav
3	183	3	4	2	I	2	0	945	1	poli_8sides 3_whiteLine3.jpg	MediumLong_b10_cut2_L_stereo_44KHz.wav
3	184	2	1	0	C	1	1	1044	1	poli_8sides 18_whiteLine3.jpg	Medium_e26_stereo_44KHz.wav
3	185	1	1	1	C	2	1	856	1	poli_8sides 16_whiteLine3.jpg	Medium_e26_stereo_44KHz.wav
3	186	2	1	0	C	1	1	924	1	poli_8sides 18_whiteLine3.jpg	Medium_e26_stereo_44KHz.wav
3	187	4	3	2	I	2	0	922	0	poli_8sides 7_whiteLine3.jpg	MediumLong_e04_stereo_44KHz.wav
3	188	3	4	2	I	1	0	1134	0	poli_8sides 3_whiteLine3.jpg	MediumLong_b10_cut2_L_stereo_44KHz.wav
3	189	4	4	2	I	2	0	1329	0	poli_8sides 7_whiteLine3.jpg	MediumLong_b10_cut2_L_stereo_44KHz.wav
3	190	2	2	1	C	2	1	922	1	poli_8sides 18_whiteLine3.jpg	Medium_e13_stereo_44KHz.wav
3	191	1	2	0	C	1	1	1210	1	poli_8sides 16_whiteLine3.jpg	Medium_e13_stereo_44KHz.wav
3	192	3	3	2	I	1	0	842	1	poli_8sides 3_whiteLine3.jpg	MediumLong_e04_stereo_44KHz.wav
3	193	4	4	2	I	1	0	812	0	poli_8sides 7_whiteLine3.jpg	MediumLong_b10_cut2_L_stereo_44KHz.wav
3	194	2	1	0	C	1	1	818	1	poli_8sides 18_whiteLine3.jpg	Medium_e26_stereo_44KHz.wav
3	195	3	4	2	I	2	0	1075	0	poli_8sides 3_whiteLine3.jpg	MediumLong_b10_cut2_L_stereo_44KHz.wav
3	196	1	1	1	C	1	0	892	0	poli_8sides 16_whiteLine3.jpg	Medium_e26_stereo_44KHz.wav
3	197	2	2	1	C	2	1	1584	1	poli_8sides 18_whiteLine3.jpg	Medium_e13_stereo_44KHz.wav
3	198	1	2	0	C	2	0	1115	0	poli_8sides 16_whiteLine3.jpg	Medium_e13_stereo_44KHz.wav
3	199	3	3	2	I	2	0	913	0	poli_8sides 3_whiteLine3.jpg	MediumLong_e04_stereo_44KHz.wav
3	200	4	3	2	I	2	0	1014	1	poli_8sides 7_whiteLine3.jpg	MediumLong_e04_stereo_44KHz.wav
4	1	2	1	0	C	2	0	1225	0	poli_8sides 9_whiteLine3.jpg	Medium_e21_stereo_44KHz.wav
4	2	4	4	2	I	2	0	1092	0	poli_8sides 5_whiteLine3.jpg	Medium_e01_cut1_stereo_44KHz.wav
4	3	3	3	2	I	2	0	640	1	poli_8sides 11_whiteLine3.jpg	MediumLong_e17_cut2_stereo_44KHz.wav
4	4	1	1	1	C	2	1	776	1	poli_8sides 4_whiteLine3.jpg	Medium_e21_stereo_44KHz.wav
4	5	2	2	1	C	2	1	722	1	poli_8sides 9_whiteLine3.jpg	MediumLong_e19_stereo_44KHz.wav
4	6	1	2	0	C	1	1	706	1	poli_8sides 4_whiteLine3.jpg	MediumLong_e19_stereo_44KHz.wav
4	7	4	3	2	I	2	0	885	1	poli_8sides 5_whiteLine3.jpg	MediumLong_e17_cut2_stereo_44KHz.wav
4	8	3	4	2	I	2	0	842	0	poli_8sides 11_whiteLine3.jpg	Medium_e01_cut1_stereo_44KHz.wav
4	9	2	2	1	C	1	0	800	0	poli_8sides 9_whiteLine3.jpg	MediumLong_e19_stereo_44KHz.wav
4	10	3	4	2	I	1	0	788	0	poli_8sides 11_whiteLine3.jpg	Medium_e01_cut1_stereo_44KHz.wav
4	11	4	3	2	I	1	0	1143	0	poli_8sides 5_whiteLine3.jpg	MediumLong_e17_cut2_stereo_44KHz.wav
4	12	1	1	1	C	1	0	858	0	poli_8sides 4_whiteLine3.jpg	Medium_e21_stereo_44KHz.wav
4	13	2	1	0	C	1	1	962	1	poli_8sides 9_whiteLine3.jpg	Medium_e21_stereo_44KHz.wav
4	14	4	4	2	I	2	0	963	0	poli_8sides 5_whiteLine3.jpg	Medium_e01_cut1_stereo_44KHz.wav
4	15	1	2	0	C	2	0	894	0	poli_8sides 4_whiteLine3.jpg	MediumLong_e19_stereo_44KHz.wav
4	16	3	3	2	I	2	0	1186	0	poli_8sides 11_whiteLine3.jpg	MediumLong_e17_cut2_stereo_44KHz.wav
4	17	4	4	2	I	1	0	753	1	poli_8sides 5_whiteLine3.jpg	Medium_e01_cut1_stereo_44KHz.wav
4	18	1	1	1	C	2	1	924	1	poli_8sides 4_whiteLine3.jpg	Medium_e21_stereo_44KHz.wav
4	19	3	4	2	I	2	0	869	1	poli_8sides 11_whiteLine3.jpg	Medium_e01_cut1_stereo_44KHz.wav
4	20	2	1	0	C	1	1	795	1	poli_8sides 9_whiteLine3.jpg	Medium_e21_stereo_44KHz.wav
4	21	4	3	2	I	2	0	939	1	poli_8sides 5_whiteLine3.jpg	MediumLong_e17_cut2_stereo_44KHz.wav
4	22	3	3	2	I	2	0	992	0	poli_8sides 11_whiteLine3.jpg	MediumLong_e17_cut2_stereo_44KHz.wav
4	23	1	2	0	C	2	0	716	0	poli_8sides 4_whiteLine3.jpg	MediumLong_e19_stereo_44KHz.wav
4	24	2	2	1	C	2	1	770	1	poli_8sides 9_whiteLine3.jpg	MediumLong_e19_stereo_44KHz.wav
4	25	1	1	1	C	1	0	1035	0	poli_8sides 4_whiteLine3.jpg	Medium_e21_stereo_44KHz.wav
4	26	4	3	2	I	2	0	852	1	poli_8sides 5_whiteLine3.jpg	MediumLong_e17_cut2_stereo_44KHz.wav
4	27	3	3	2	I	2	0	874	1	poli_8sides 11_whiteLine3.jpg	MediumLong_e17_cut2_stereo_44KHz.wav
4	28	2	1	0	C	1	1	778	1	poli_8sides 9_whiteLine3.jpg	Medium_e21_stereo_44KHz.wav
4	29	3	4	2	I	2	0	1132	0	poli_8sides 11_whiteLine3.jpg	Medium_e01_cut1_stereo_44KHz.wav
4	30	1	2	0	C	1	1	1124	1	poli_8sides 4_whiteLine3.jpg	MediumLong_e19_stereo_44KHz.wav
4	31	4	4	2	I	2	0	918	0	poli_8sides 5_whiteLine3.jpg	Medium_e01_cut1_stereo_44KHz.wav
4	32	2	2	1	C	2	1	1175	1	poli_8sides 9_whiteLine3.jpg	MediumLong_e19_stereo_44KHz.wav
4	33	1	1	1	C	1	0	1204	0	poli_8sides 4_whiteLine3.jpg	Medium_e21_stereo_44KHz.wav
4	34	4	3	2	I	2	0	1244	1	poli_8sides 5_whiteLine3.jpg	MediumLong_e17_cut2_stereo_44KHz.wav
4	35	2	1	0	C	1	1	919	1	poli_8sides 9_whiteLine3.jpg	Medium_e21_stereo_44KHz.wav
4	36	3	3	2	I	1	0	996	1	poli_8sides 11_whiteLine3.jpg	MediumLong_e17_cut2_stereo_44KHz.wav
4	37	1	2	0	C	1	1	745	1	poli_8sides 4_whiteLine3.jpg	MediumLong_e19_stereo_44KHz.wav
4	38	2	2	1	C	2	1	808	1	poli_8sides 9_whiteLine3.jpg	MediumLong_e19_stereo_44KHz.wav
4	39	4	4	2	I	1	0	1254	0	poli_8sides 5_whiteLine3.jpg	Medium_e01_cut1_stereo_44KHz.wav
4	40	3	4	2	I	1	0	824	1	poli_8sides 11_whiteLine3.jpg	Medium_e01_cut1_stereo_44KHz.wav
4	41	4	4	2	I	2	0	802	0	poli_8sides 5_whiteLine3.jpg	Medium_e01_cut1_stereo_44KHz.wav
4	42	1	2	0	C	1	1	933	1	poli_8sides 4_whiteLine3.jpg	MediumLong_e19_stereo_44KHz.wav
4	43	2	2	1	C	2	1	1896	1	poli_8sides 9_whiteLine3.jpg	MediumLong_e19_stereo_44KHz.wav
4	44	3	3	2	I	2	0	1070	1	poli_8sides 11_whiteLine3.jpg	MediumLong_e17_cut2_stereo_44KHz.wav
4	45	1	1	1	C	2	1	1053	1	poli_8sides 4_whiteLine3.jpg	Medium_e21_stereo_44KHz.wav
4	46	4	3	2	I	2	0	984	0	poli_8sides 5_whiteLine3.jpg	MediumLong_e17_cut2_stereo_44KHz.wav
4	47	3	4	2	I	2	0	921	0	poli_8sides 11_whiteLine3.jpg	Medium_e01_cut1_stereo_44KHz.wav
4	48	2	1	0	C	1	1	812	1	poli_8sides 9_whiteLine3.jpg	Medium_e21_stereo_44KHz.wav
4	49	3	3	2	I	2	0	1118	0	poli_8sides 11_whiteLine3.jpg	MediumLong_e17_cut2_stereo_44KHz.wav
4	50	1	1	1	C	2	1	925	1	poli_8sides 4_whiteLine3.jpg	Medium_e21_stereo_44KHz.wav
4	51	4	4	2	I	2	0	1024	1	poli_8sides 5_whiteLine3.jpg	Medium_e01_cut1_stereo_44KHz.wav
4	52	2	1	0	C	1	1	866	1	poli_8sides 9_whiteLine3.jpg	Medium_e21_stereo_44KHz.wav
4	53	1	2	0	C	1	1	817	1	poli_8sides 4_whiteLine3.jpg	MediumLong_e19_stereo_44KHz.wav
4	54	3	4	2	I	1	0	875	1	poli_8sides 11_whiteLine3.jpg	Medium_e01_cut1_stereo_44KHz.wav
4	55	2	2	1	C	2	1	822	1	poli_8sides 9_whiteLine3.jpg	MediumLong_e19_stereo_44KHz.wav
4	56	4	3	2	I	1	0	1184	1	poli_8sides 5_whiteLine3.jpg	MediumLong_e17_cut2_stereo_44KHz.wav
4	57	3	4	2	I	2	0	1178	0	poli_8sides 11_whiteLine3.jpg	Medium_e01_cut1_stereo_44KHz.wav
4	58	1	1	1	C	2	1	1019	1	poli_8sides 4_whiteLine3.jpg	Medium_e21_stereo_44KHz.wav
4	59	2	2	1	C	2	1	614	1	poli_8sides 9_whiteLine3.jpg	MediumLong_e19_stereo_44KHz.wav
4	60	4	4	2	I	2	0	869	0	poli_8sides 5_whiteLine3.jpg	Medium_e01_cut1_stereo_44KHz.wav
4	61	3	3	2	I	2	0	1100	0	poli_8sides 11_whiteLine3.jpg	MediumLong_e17_cut2_stereo_44KHz.wav
4	62	1	2	0	C	1	1	1129	1	poli_8sides 4_whiteLine3.jpg	MediumLong_e19_stereo_44KHz.wav
4	63	2	1	0	C	1	1	830	1	poli_8sides 9_whiteLine3.jpg	Medium_e21_stereo_44KHz.wav
4	64	4	3	2	I	1	0	937	0	poli_8sides 5_whiteLine3.jpg	MediumLong_e17_cut2_stereo_44KHz.wav
4	65	1	2	0	C	1	1	1208	1	poli_8sides 4_whiteLine3.jpg	MediumLong_e19_stereo_44KHz.wav
4	66	2	2	1	C	2	1	956	1	poli_8sides 9_whiteLine3.jpg	MediumLong_e19_stereo_44KHz.wav
4	67	3	4	2	I	2	0	1043	0	poli_8sides 11_whiteLine3.jpg	Medium_e01_cut1_stereo_44KHz.wav
4	68	4	3	2	I	1	0	1178	1	poli_8sides 5_whiteLine3.jpg	MediumLong_e17_cut2_stereo_44KHz.wav
4	69	2	1	0	C	1	1	834	1	poli_8sides 9_whiteLine3.jpg	Medium_e21_stereo_44KHz.wav
4	70	1	1	1	C	2	1	917	1	poli_8sides 4_whiteLine3.jpg	Medium_e21_stereo_44KHz.wav
4	71	4	4	2	I	2	0	1052	1	poli_8sides 5_whiteLine3.jpg	Medium_e01_cut1_stereo_44KHz.wav
4	72	3	3	2	I	2	0	881	0	poli_8sides 11_whiteLine3.jpg	MediumLong_e17_cut2_stereo_44KHz.wav
4	73	4	3	2	I	2	0	1653	0	poli_8sides 5_whiteLine3.jpg	MediumLong_e17_cut2_stereo_44KHz.wav
4	74	2	1	0	C	1	1	1319	1	poli_8sides 9_whiteLine3.jpg	Medium_e21_stereo_44KHz.wav
4	75	3	4	2	I	1	0	820	1	poli_8sides 11_whiteLine3.jpg	Medium_e01_cut1_stereo_44KHz.wav
4	76	1	2	0	C	1	1	870	1	poli_8sides 4_whiteLine3.jpg	MediumLong_e19_stereo_44KHz.wav
4	77	3	3	2	I	1	0	1057	0	poli_8sides 11_whiteLine3.jpg	MediumLong_e17_cut2_stereo_44KHz.wav
4	78	1	1	1	C	2	1	793	1	poli_8sides 4_whiteLine3.jpg	Medium_e21_stereo_44KHz.wav
4	79	2	2	1	C	1	0	1363	0	poli_8sides 9_whiteLine3.jpg	MediumLong_e19_stereo_44KHz.wav
4	80	4	4	2	I	2	0	919	1	poli_8sides 5_whiteLine3.jpg	Medium_e01_cut1_stereo_44KHz.wav
4	81	3	3	2	I	2	0	643	1	poli_8sides 11_whiteLine3.jpg	MediumLong_e17_cut2_stereo_44KHz.wav
4	82	1	1	1	C	2	1	943	1	poli_8sides 4_whiteLine3.jpg	Medium_e21_stereo_44KHz.wav
4	83	2	1	0	C	1	1	877	1	poli_8sides 9_whiteLine3.jpg	Medium_e21_stereo_44KHz.wav
4	84	4	3	2	I	1	0	1007	0	poli_8sides 5_whiteLine3.jpg	MediumLong_e17_cut2_stereo_44KHz.wav
4	85	1	2	0	C	1	1	1118	1	poli_8sides 4_whiteLine3.jpg	MediumLong_e19_stereo_44KHz.wav
4	86	3	4	2	I	1	0	1069	0	poli_8sides 11_whiteLine3.jpg	Medium_e01_cut1_stereo_44KHz.wav
4	87	2	2	1	C	2	1	1088	1	poli_8sides 9_whiteLine3.jpg	MediumLong_e19_stereo_44KHz.wav
4	88	4	4	2	I	2	0	871	1	poli_8sides 5_whiteLine3.jpg	Medium_e01_cut1_stereo_44KHz.wav
4	89	3	4	2	I	1	0	873	1	poli_8sides 11_whiteLine3.jpg	Medium_e01_cut1_stereo_44KHz.wav
4	90	1	1	1	C	2	1	827	1	poli_8sides 4_whiteLine3.jpg	Medium_e21_stereo_44KHz.wav
4	91	2	2	1	C	2	1	740	1	poli_8sides 9_whiteLine3.jpg	MediumLong_e19_stereo_44KHz.wav
4	92	4	3	2	I	2	0	1037	0	poli_8sides 5_whiteLine3.jpg	MediumLong_e17_cut2_stereo_44KHz.wav
4	93	2	1	0	C	1	1	981	1	poli_8sides 9_whiteLine3.jpg	Medium_e21_stereo_44KHz.wav
4	94	3	3	2	I	2	0	926	0	poli_8sides 11_whiteLine3.jpg	MediumLong_e17_cut2_stereo_44KHz.wav
4	95	1	2	0	C	1	1	934	1	poli_8sides 4_whiteLine3.jpg	MediumLong_e19_stereo_44KHz.wav
4	96	4	4	2	I	2	0	1283	0	poli_8sides 5_whiteLine3.jpg	Medium_e01_cut1_stereo_44KHz.wav
4	97	3	3	2	I	1	0	1575	0	poli_8sides 11_whiteLine3.jpg	MediumLong_e17_cut2_stereo_44KHz.wav
4	98	2	2	1	C	2	1	1300	1	poli_8sides 9_whiteLine3.jpg	MediumLong_e19_stereo_44KHz.wav
4	99	1	2	0	C	1	1	1175	1	poli_8sides 4_whiteLine3.jpg	MediumLong_e19_stereo_44KHz.wav
4	100	4	3	2	I	1	0	1246	1	poli_8sides 5_whiteLine3.jpg	MediumLong_e17_cut2_stereo_44KHz.wav
4	101	3	4	2	I	1	0	983	1	poli_8sides 11_whiteLine3.jpg	Medium_e01_cut1_stereo_44KHz.wav
4	102	2	1	0	C	1	1	817	1	poli_8sides 9_whiteLine3.jpg	Medium_e21_stereo_44KHz.wav
4	103	1	1	1	C	2	1	993	1	poli_8sides 4_whiteLine3.jpg	Medium_e21_stereo_44KHz.wav
4	104	4	4	2	I	1	0	913	0	poli_8sides 5_whiteLine3.jpg	Medium_e01_cut1_stereo_44KHz.wav
4	105	1	1	1	C	2	1	1079	1	poli_8sides 4_whiteLine3.jpg	Medium_e21_stereo_44KHz.wav
4	106	2	1	0	C	1	1	1133	1	poli_8sides 9_whiteLine3.jpg	Medium_e21_stereo_44KHz.wav
4	107	3	4	2	I	1	0	835	0	poli_8sides 11_whiteLine3.jpg	Medium_e01_cut1_stereo_44KHz.wav
4	108	4	4	2	I	2	0	1220	1	poli_8sides 5_whiteLine3.jpg	Medium_e01_cut1_stereo_44KHz.wav
4	109	3	3	2	I	1	0	919	1	poli_8sides 11_whiteLine3.jpg	MediumLong_e17_cut2_stereo_44KHz.wav
4	110	1	2	0	C	1	1	931	1	poli_8sides 4_whiteLine3.jpg	MediumLong_e19_stereo_44KHz.wav
4	111	2	2	1	C	2	1	1130	1	poli_8sides 9_whiteLine3.jpg	MediumLong_e19_stereo_44KHz.wav
4	112	4	3	2	I	2	0	943	1	poli_8sides 5_whiteLine3.jpg	MediumLong_e17_cut2_stereo_44KHz.wav
4	113	1	2	0	C	1	1	1155	1	poli_8sides 4_whiteLine3.jpg	MediumLong_e19_stereo_44KHz.wav
4	114	4	4	2	I	0	0	0	0	poli_8sides 5_whiteLine3.jpg	Medium_e01_cut1_stereo_44KHz.wav
4	115	3	4	2	I	2	0	1766	0	poli_8sides 11_whiteLine3.jpg	Medium_e01_cut1_stereo_44KHz.wav
4	116	2	2	1	C	2	1	731	1	poli_8sides 9_whiteLine3.jpg	MediumLong_e19_stereo_44KHz.wav
4	117	1	1	1	C	2	1	771	1	poli_8sides 4_whiteLine3.jpg	Medium_e21_stereo_44KHz.wav
4	118	3	3	2	I	1	0	877	0	poli_8sides 11_whiteLine3.jpg	MediumLong_e17_cut2_stereo_44KHz.wav
4	119	2	1	0	C	1	1	1373	1	poli_8sides 9_whiteLine3.jpg	Medium_e21_stereo_44KHz.wav
4	120	4	3	2	I	2	0	1338	0	poli_8sides 5_whiteLine3.jpg	MediumLong_e17_cut2_stereo_44KHz.wav
4	121	1	1	1	C	2	1	815	1	poli_8sides 4_whiteLine3.jpg	Medium_e21_stereo_44KHz.wav
4	122	4	3	2	I	2	0	886	1	poli_8sides 5_whiteLine3.jpg	MediumLong_e17_cut2_stereo_44KHz.wav
4	123	3	3	2	I	2	0	1098	1	poli_8sides 11_whiteLine3.jpg	MediumLong_e17_cut2_stereo_44KHz.wav
4	124	2	1	0	C	1	1	752	1	poli_8sides 9_whiteLine3.jpg	Medium_e21_stereo_44KHz.wav
4	125	1	2	0	C	1	1	1022	1	poli_8sides 4_whiteLine3.jpg	MediumLong_e19_stereo_44KHz.wav
4	126	2	2	1	C	2	1	900	1	poli_8sides 9_whiteLine3.jpg	MediumLong_e19_stereo_44KHz.wav
4	127	3	4	2	I	2	0	965	1	poli_8sides 11_whiteLine3.jpg	Medium_e01_cut1_stereo_44KHz.wav
4	128	4	4	2	I	1	0	644	0	poli_8sides 5_whiteLine3.jpg	Medium_e01_cut1_stereo_44KHz.wav
4	129	1	1	1	C	2	1	1206	1	poli_8sides 4_whiteLine3.jpg	Medium_e21_stereo_44KHz.wav
4	130	2	2	1	C	1	0	901	0	poli_8sides 9_whiteLine3.jpg	MediumLong_e19_stereo_44KHz.wav
4	131	3	3	2	I	2	0	1154	1	poli_8sides 11_whiteLine3.jpg	MediumLong_e17_cut2_stereo_44KHz.wav
4	132	4	4	2	I	2	0	1121	1	poli_8sides 5_whiteLine3.jpg	Medium_e01_cut1_stereo_44KHz.wav
4	133	2	1	0	C	1	1	1013	1	poli_8sides 9_whiteLine3.jpg	Medium_e21_stereo_44KHz.wav
4	134	4	3	2	I	2	0	1088	1	poli_8sides 5_whiteLine3.jpg	MediumLong_e17_cut2_stereo_44KHz.wav
4	135	3	4	2	I	2	0	707	0	poli_8sides 11_whiteLine3.jpg	Medium_e01_cut1_stereo_44KHz.wav
4	136	1	2	0	C	1	1	1365	1	poli_8sides 4_whiteLine3.jpg	MediumLong_e19_stereo_44KHz.wav
4	137	2	1	0	C	1	1	1000	1	poli_8sides 9_whiteLine3.jpg	Medium_e21_stereo_44KHz.wav
4	138	4	4	2	I	2	0	983	1	poli_8sides 5_whiteLine3.jpg	Medium_e01_cut1_stereo_44KHz.wav
4	139	1	2	0	C	1	1	861	1	poli_8sides 4_whiteLine3.jpg	MediumLong_e19_stereo_44KHz.wav
4	140	3	3	2	I	2	0	947	0	poli_8sides 11_whiteLine3.jpg	MediumLong_e17_cut2_stereo_44KHz.wav
4	141	1	1	1	C	2	1	1024	1	poli_8sides 4_whiteLine3.jpg	Medium_e21_stereo_44KHz.wav
4	142	4	3	2	I	2	0	1023	0	poli_8sides 5_whiteLine3.jpg	MediumLong_e17_cut2_stereo_44KHz.wav
4	143	2	2	1	C	2	1	999	1	poli_8sides 9_whiteLine3.jpg	MediumLong_e19_stereo_44KHz.wav
4	144	3	4	2	I	2	0	1136	0	poli_8sides 11_whiteLine3.jpg	Medium_e01_cut1_stereo_44KHz.wav
4	145	4	4	2	I	2	0	831	0	poli_8sides 5_whiteLine3.jpg	Medium_e01_cut1_stereo_44KHz.wav
4	146	1	2	0	C	1	1	932	1	poli_8sides 4_whiteLine3.jpg	MediumLong_e19_stereo_44KHz.wav
4	147	2	2	1	C	2	1	878	1	poli_8sides 9_whiteLine3.jpg	MediumLong_e19_stereo_44KHz.wav
4	148	3	4	2	I	1	0	1050	1	poli_8sides 11_whiteLine3.jpg	Medium_e01_cut1_stereo_44KHz.wav
4	149	1	1	1	C	2	1	875	1	poli_8sides 4_whiteLine3.jpg	Medium_e21_stereo_44KHz.wav
4	150	3	3	2	I	2	0	1171	1	poli_8sides 11_whiteLine3.jpg	MediumLong_e17_cut2_stereo_44KHz.wav
4	151	4	3	2	I	2	0	1173	1	poli_8sides 5_whiteLine3.jpg	MediumLong_e17_cut2_stereo_44KHz.wav
4	152	2	1	0	C	1	1	917	1	poli_8sides 9_whiteLine3.jpg	Medium_e21_stereo_44KHz.wav
4	153	1	2	0	C	1	1	1188	1	poli_8sides 4_whiteLine3.jpg	MediumLong_e19_stereo_44KHz.wav
4	154	4	3	2	I	2	0	922	0	poli_8sides 5_whiteLine3.jpg	MediumLong_e17_cut2_stereo_44KHz.wav
4	155	2	2	1	C	2	1	1059	1	poli_8sides 9_whiteLine3.jpg	MediumLong_e19_stereo_44KHz.wav
4	156	3	4	2	I	1	0	1011	0	poli_8sides 11_whiteLine3.jpg	Medium_e01_cut1_stereo_44KHz.wav
4	157	2	1	0	C	1	1	1129	1	poli_8sides 9_whiteLine3.jpg	Medium_e21_stereo_44KHz.wav
4	158	4	4	2	I	2	0	773	1	poli_8sides 5_whiteLine3.jpg	Medium_e01_cut1_stereo_44KHz.wav
4	159	1	1	1	C	2	1	1043	1	poli_8sides 4_whiteLine3.jpg	Medium_e21_stereo_44KHz.wav
4	160	3	3	2	I	2	0	896	1	poli_8sides 11_whiteLine3.jpg	MediumLong_e17_cut2_stereo_44KHz.wav
4	161	1	2	0	C	2	0	1436	0	poli_8sides 4_whiteLine3.jpg	MediumLong_e19_stereo_44KHz.wav
4	162	3	4	2	I	2	0	617	0	poli_8sides 11_whiteLine3.jpg	Medium_e01_cut1_stereo_44KHz.wav
4	163	4	3	2	I	2	0	1136	0	poli_8sides 5_whiteLine3.jpg	MediumLong_e17_cut2_stereo_44KHz.wav
4	164	2	2	1	C	2	1	1319	1	poli_8sides 9_whiteLine3.jpg	MediumLong_e19_stereo_44KHz.wav
4	165	3	3	2	I	2	0	1039	1	poli_8sides 11_whiteLine3.jpg	MediumLong_e17_cut2_stereo_44KHz.wav
4	166	4	4	2	I	2	0	763	0	poli_8sides 5_whiteLine3.jpg	Medium_e01_cut1_stereo_44KHz.wav
4	167	2	1	0	C	1	1	1293	1	poli_8sides 9_whiteLine3.jpg	Medium_e21_stereo_44KHz.wav
4	168	1	1	1	C	2	1	833	1	poli_8sides 4_whiteLine3.jpg	Medium_e21_stereo_44KHz.wav
4	169	3	4	2	I	2	0	1031	0	poli_8sides 11_whiteLine3.jpg	Medium_e01_cut1_stereo_44KHz.wav
4	170	2	1	0	C	1	1	1058	1	poli_8sides 9_whiteLine3.jpg	Medium_e21_stereo_44KHz.wav
4	171	4	3	2	I	1	0	1798	1	poli_8sides 5_whiteLine3.jpg	MediumLong_e17_cut2_stereo_44KHz.wav
4	172	1	2	0	C	1	1	818	1	poli_8sides 4_whiteLine3.jpg	MediumLong_e19_stereo_44KHz.wav
4	173	2	2	1	C	2	1	966	1	poli_8sides 9_whiteLine3.jpg	MediumLong_e19_stereo_44KHz.wav
4	174	3	3	2	I	2	0	1365	1	poli_8sides 11_whiteLine3.jpg	MediumLong_e17_cut2_stereo_44KHz.wav
4	175	1	1	1	C	2	1	1083	1	poli_8sides 4_whiteLine3.jpg	Medium_e21_stereo_44KHz.wav
4	176	4	4	2	I	2	0	843	1	poli_8sides 5_whiteLine3.jpg	Medium_e01_cut1_stereo_44KHz.wav
4	177	1	2	0	C	1	1	919	1	poli_8sides 4_whiteLine3.jpg	MediumLong_e19_stereo_44KHz.wav
4	178	2	1	0	C	1	1	930	1	poli_8sides 9_whiteLine3.jpg	Medium_e21_stereo_44KHz.wav
4	179	3	3	2	I	2	0	1215	0	poli_8sides 11_whiteLine3.jpg	MediumLong_e17_cut2_stereo_44KHz.wav
4	180	4	3	2	I	1	0	1084	0	poli_8sides 5_whiteLine3.jpg	MediumLong_e17_cut2_stereo_44KHz.wav
4	181	3	4	2	I	1	0	1058	1	poli_8sides 11_whiteLine3.jpg	Medium_e01_cut1_stereo_44KHz.wav
4	182	1	1	1	C	2	1	832	1	poli_8sides 4_whiteLine3.jpg	Medium_e21_stereo_44KHz.wav
4	183	2	2	1	C	2	1	803	1	poli_8sides 9_whiteLine3.jpg	MediumLong_e19_stereo_44KHz.wav
4	184	4	4	2	I	2	0	919	0	poli_8sides 5_whiteLine3.jpg	Medium_e01_cut1_stereo_44KHz.wav
4	185	1	2	0	C	1	1	921	1	poli_8sides 4_whiteLine3.jpg	MediumLong_e19_stereo_44KHz.wav
4	186	2	2	1	C	2	1	769	1	poli_8sides 9_whiteLine3.jpg	MediumLong_e19_stereo_44KHz.wav
4	187	3	3	2	I	2	0	871	1	poli_8sides 11_whiteLine3.jpg	MediumLong_e17_cut2_stereo_44KHz.wav
4	188	4	3	2	I	2	0	973	1	poli_8sides 5_whiteLine3.jpg	MediumLong_e17_cut2_stereo_44KHz.wav
4	189	3	4	2	I	1	0	1013	1	poli_8sides 11_whiteLine3.jpg	Medium_e01_cut1_stereo_44KHz.wav
4	190	1	1	1	C	2	1	947	1	poli_8sides 4_whiteLine3.jpg	Medium_e21_stereo_44KHz.wav
4	191	4	4	2	I	2	0	1055	1	poli_8sides 5_whiteLine3.jpg	Medium_e01_cut1_stereo_44KHz.wav
4	192	2	1	0	C	1	1	910	1	poli_8sides 9_whiteLine3.jpg	Medium_e21_stereo_44KHz.wav
4	193	3	4	2	I	1	0	933	1	poli_8sides 11_whiteLine3.jpg	Medium_e01_cut1_stereo_44KHz.wav
4	194	4	4	2	I	2	0	625	0	poli_8sides 5_whiteLine3.jpg	Medium_e01_cut1_stereo_44KHz.wav
4	195	1	1	1	C	2	1	912	1	poli_8sides 4_whiteLine3.jpg	Medium_e21_stereo_44KHz.wav
4	196	2	2	1	C	2	1	1021	1	poli_8sides 9_whiteLine3.jpg	MediumLong_e19_stereo_44KHz.wav
4	197	1	2	0	C	1	1	1060	1	poli_8sides 4_whiteLine3.jpg	MediumLong_e19_stereo_44KHz.wav
4	198	3	3	2	I	2	0	1237	1	poli_8sides 11_whiteLine3.jpg	MediumLong_e17_cut2_stereo_44KHz.wav
4	199	2	1	0	C	1	1	783	1	poli_8sides 9_whiteLine3.jpg	Medium_e21_stereo_44KHz.wav
4	200	4	3	2	I	2	0	1403	1	poli_8sides 5_whiteLine3.jpg	MediumLong_e17_cut2_stereo_44KHz.wav
