block	trial	Vstim	Astim	match	C/I	resp	result	RT	fb	V-file	A-file
RL

0	1	1	2	0	C	0	0	0	0	poli_8sides 22_whiteLine3.jpg	Practice1_b27_cut1_stereo_44KHz.wav
0	2	1	1	1	C	2	0	779	0	poli_8sides 22_whiteLine3.jpg	Practice3_b26_cut1_stereo_44KHz.wav
0	3	2	4	0	C	2	1	980	1	poli_8sides 24_whiteLine3.jpg	Practice2_b27_cut2_stereo_44KHz.wav
0	4	2	3	1	C	2	0	636	0	poli_8sides 24_whiteLine3.jpg	Practice4_b26_stereo_44KHz.wav
0	5	2	4	0	C	2	1	739	1	poli_8sides 24_whiteLine3.jpg	Practice2_b27_cut2_stereo_44KHz.wav
0	6	1	2	0	C	1	0	698	0	poli_8sides 22_whiteLine3.jpg	Practice1_b27_cut1_stereo_44KHz.wav
0	7	2	3	1	C	1	1	943	1	poli_8sides 24_whiteLine3.jpg	Practice4_b26_stereo_44KHz.wav
0	8	1	1	1	C	2	0	509	0	poli_8sides 22_whiteLine3.jpg	Practice3_b26_cut1_stereo_44KHz.wav
0	9	1	2	0	C	2	1	597	1	poli_8sides 22_whiteLine3.jpg	Practice1_b27_cut1_stereo_44KHz.wav
0	10	2	4	0	C	2	1	497	1	poli_8sides 24_whiteLine3.jpg	Practice2_b27_cut2_stereo_44KHz.wav
0	11	2	3	1	C	2	0	688	0	poli_8sides 24_whiteLine3.jpg	Practice4_b26_stereo_44KHz.wav
0	12	1	1	1	C	1	1	1149	1	poli_8sides 22_whiteLine3.jpg	Practice3_b26_cut1_stereo_44KHz.wav
0	13	2	4	0	C	2	1	697	1	poli_8sides 24_whiteLine3.jpg	Practice2_b27_cut2_stereo_44KHz.wav
0	14	2	3	1	C	1	1	601	1	poli_8sides 24_whiteLine3.jpg	Practice4_b26_stereo_44KHz.wav
0	15	1	1	1	C	1	1	849	1	poli_8sides 22_whiteLine3.jpg	Practice3_b26_cut1_stereo_44KHz.wav
0	16	1	2	0	C	2	1	706	1	poli_8sides 22_whiteLine3.jpg	Practice1_b27_cut1_stereo_44KHz.wav
0	17	2	4	0	C	2	1	720	1	poli_8sides 24_whiteLine3.jpg	Practice2_b27_cut2_stereo_44KHz.wav
0	18	1	2	0	C	2	1	1282	1	poli_8sides 22_whiteLine3.jpg	Practice1_b27_cut1_stereo_44KHz.wav
0	19	2	3	1	C	1	1	979	1	poli_8sides 24_whiteLine3.jpg	Practice4_b26_stereo_44KHz.wav
0	20	1	1	1	C	1	1	1290	1	poli_8sides 22_whiteLine3.jpg	Practice3_b26_cut1_stereo_44KHz.wav
0	21	1	2	0	C	2	1	1736	1	poli_8sides 22_whiteLine3.jpg	Practice1_b27_cut1_stereo_44KHz.wav
0	22	1	1	1	C	1	1	1618	1	poli_8sides 22_whiteLine3.jpg	Practice3_b26_cut1_stereo_44KHz.wav
0	23	2	3	1	C	2	0	715	0	poli_8sides 24_whiteLine3.jpg	Practice4_b26_stereo_44KHz.wav
0	24	2	4	0	C	2	1	691	1	poli_8sides 24_whiteLine3.jpg	Practice2_b27_cut2_stereo_44KHz.wav
0	25	1	1	1	C	1	1	659	1	poli_8sides 22_whiteLine3.jpg	Practice3_b26_cut1_stereo_44KHz.wav
0	26	1	2	0	C	2	1	765	1	poli_8sides 22_whiteLine3.jpg	Practice1_b27_cut1_stereo_44KHz.wav
0	27	2	4	0	C	2	1	935	1	poli_8sides 24_whiteLine3.jpg	Practice2_b27_cut2_stereo_44KHz.wav
0	28	2	3	1	C	1	1	639	1	poli_8sides 24_whiteLine3.jpg	Practice4_b26_stereo_44KHz.wav
0	29	1	1	1	C	1	1	1389	1	poli_8sides 22_whiteLine3.jpg	Practice3_b26_cut1_stereo_44KHz.wav
0	30	2	4	0	C	2	1	1516	1	poli_8sides 24_whiteLine3.jpg	Practice2_b27_cut2_stereo_44KHz.wav
avg_resp = 956
1	1	1	1	1	C	2	0	1453	0	poli_8sides 10_whiteLine3.jpg	Medium_e26_stereo_44KHz.wav
1	2	2	2	1	C	2	0	981	0	poli_8sides 11_whiteLine3.jpg	Medium_e01_cut1_stereo_44KHz.wav
1	3	3	3	2	I	1	0	842	1	poli_8sides 13_whiteLine3.jpg	Medium_e21_stereo_44KHz.wav
1	4	4	3	2	I	1	0	587	1	poli_8sides 2_whiteLine3.jpg	Medium_e21_stereo_44KHz.wav
1	5	3	4	2	I	2	0	678	1	poli_8sides 13_whiteLine3.jpg	MediumLong_e04_stereo_44KHz.wav
1	6	1	2	0	C	1	0	851	0	poli_8sides 10_whiteLine3.jpg	Medium_e01_cut1_stereo_44KHz.wav
1	7	2	1	0	C	1	0	797	0	poli_8sides 11_whiteLine3.jpg	Medium_e26_stereo_44KHz.wav
1	8	4	4	2	I	1	0	1026	0	poli_8sides 2_whiteLine3.jpg	MediumLong_e04_stereo_44KHz.wav
1	9	2	1	0	C	2	1	966	1	poli_8sides 11_whiteLine3.jpg	Medium_e26_stereo_44KHz.wav
1	10	1	1	1	C	2	0	674	0	poli_8sides 10_whiteLine3.jpg	Medium_e26_stereo_44KHz.wav
1	11	4	4	2	I	2	0	650	1	poli_8sides 2_whiteLine3.jpg	MediumLong_e04_stereo_44KHz.wav
1	12	3	4	2	I	1	0	945	0	poli_8sides 13_whiteLine3.jpg	MediumLong_e04_stereo_44KHz.wav
1	13	2	2	1	C	2	0	710	0	poli_8sides 11_whiteLine3.jpg	Medium_e01_cut1_stereo_44KHz.wav
1	14	1	2	0	C	2	1	751	1	poli_8sides 10_whiteLine3.jpg	Medium_e01_cut1_stereo_44KHz.wav
1	15	3	3	2	I	1	0	861	1	poli_8sides 13_whiteLine3.jpg	Medium_e21_stereo_44KHz.wav
1	16	4	3	2	I	1	0	920	1	poli_8sides 2_whiteLine3.jpg	Medium_e21_stereo_44KHz.wav
1	17	2	2	1	C	2	0	1141	0	poli_8sides 11_whiteLine3.jpg	Medium_e01_cut1_stereo_44KHz.wav
1	18	4	3	2	I	2	0	738	0	poli_8sides 2_whiteLine3.jpg	Medium_e21_stereo_44KHz.wav
1	19	3	3	2	I	2	0	644	0	poli_8sides 13_whiteLine3.jpg	Medium_e21_stereo_44KHz.wav
1	20	1	1	1	C	1	1	1095	1	poli_8sides 10_whiteLine3.jpg	Medium_e26_stereo_44KHz.wav
1	21	3	4	2	I	2	0	550	0	poli_8sides 13_whiteLine3.jpg	MediumLong_e04_stereo_44KHz.wav
1	22	1	2	0	C	1	0	787	0	poli_8sides 10_whiteLine3.jpg	Medium_e01_cut1_stereo_44KHz.wav
1	23	2	1	0	C	2	1	954	1	poli_8sides 11_whiteLine3.jpg	Medium_e26_stereo_44KHz.wav
1	24	4	4	2	I	2	0	803	1	poli_8sides 2_whiteLine3.jpg	MediumLong_e04_stereo_44KHz.wav
1	25	3	3	2	I	1	0	822	1	poli_8sides 13_whiteLine3.jpg	Medium_e21_stereo_44KHz.wav
1	26	4	3	2	I	1	0	1054	1	poli_8sides 2_whiteLine3.jpg	Medium_e21_stereo_44KHz.wav
1	27	1	2	0	C	2	1	1040	1	poli_8sides 10_whiteLine3.jpg	Medium_e01_cut1_stereo_44KHz.wav
1	28	2	1	0	C	2	1	886	1	poli_8sides 11_whiteLine3.jpg	Medium_e26_stereo_44KHz.wav
1	29	3	4	2	I	2	0	679	0	poli_8sides 13_whiteLine3.jpg	MediumLong_e04_stereo_44KHz.wav
1	30	4	4	2	I	2	0	514	0	poli_8sides 2_whiteLine3.jpg	MediumLong_e04_stereo_44KHz.wav
1	31	2	2	1	C	1	1	1459	1	poli_8sides 11_whiteLine3.jpg	Medium_e01_cut1_stereo_44KHz.wav
1	32	1	1	1	C	1	1	817	1	poli_8sides 10_whiteLine3.jpg	Medium_e26_stereo_44KHz.wav
1	33	2	2	1	C	1	1	1067	1	poli_8sides 11_whiteLine3.jpg	Medium_e01_cut1_stereo_44KHz.wav
1	34	3	4	2	I	2	0	723	1	poli_8sides 13_whiteLine3.jpg	MediumLong_e04_stereo_44KHz.wav
1	35	4	4	2	I	2	0	493	0	poli_8sides 2_whiteLine3.jpg	MediumLong_e04_stereo_44KHz.wav
1	36	1	1	1	C	1	1	997	1	poli_8sides 10_whiteLine3.jpg	Medium_e26_stereo_44KHz.wav
1	37	3	3	2	I	2	0	663	1	poli_8sides 13_whiteLine3.jpg	Medium_e21_stereo_44KHz.wav
1	38	1	2	0	C	2	1	855	1	poli_8sides 10_whiteLine3.jpg	Medium_e01_cut1_stereo_44KHz.wav
1	39	2	1	0	C	2	1	1006	1	poli_8sides 11_whiteLine3.jpg	Medium_e26_stereo_44KHz.wav
1	40	4	3	2	I	1	0	959	0	poli_8sides 2_whiteLine3.jpg	Medium_e21_stereo_44KHz.wav
1	41	3	3	2	I	1	0	1232	1	poli_8sides 13_whiteLine3.jpg	Medium_e21_stereo_44KHz.wav
1	42	2	2	1	C	1	1	1124	1	poli_8sides 11_whiteLine3.jpg	Medium_e01_cut1_stereo_44KHz.wav
1	43	4	3	2	I	1	0	916	1	poli_8sides 2_whiteLine3.jpg	Medium_e21_stereo_44KHz.wav
1	44	1	1	1	C	1	1	1297	1	poli_8sides 10_whiteLine3.jpg	Medium_e26_stereo_44KHz.wav
1	45	3	4	2	I	2	0	768	1	poli_8sides 13_whiteLine3.jpg	MediumLong_e04_stereo_44KHz.wav
1	46	2	1	0	C	1	0	685	0	poli_8sides 11_whiteLine3.jpg	Medium_e26_stereo_44KHz.wav
1	47	1	2	0	C	2	1	855	1	poli_8sides 10_whiteLine3.jpg	Medium_e01_cut1_stereo_44KHz.wav
1	48	4	4	2	I	2	0	584	0	poli_8sides 2_whiteLine3.jpg	MediumLong_e04_stereo_44KHz.wav
1	49	1	1	1	C	1	1	657	1	poli_8sides 10_whiteLine3.jpg	Medium_e26_stereo_44KHz.wav
1	50	2	2	1	C	1	1	1057	1	poli_8sides 11_whiteLine3.jpg	Medium_e01_cut1_stereo_44KHz.wav
1	51	3	4	2	I	2	0	660	0	poli_8sides 13_whiteLine3.jpg	MediumLong_e04_stereo_44KHz.wav
1	52	4	3	2	I	2	0	674	0	poli_8sides 2_whiteLine3.jpg	Medium_e21_stereo_44KHz.wav
1	53	1	2	0	C	2	1	805	1	poli_8sides 10_whiteLine3.jpg	Medium_e01_cut1_stereo_44KHz.wav
1	54	4	4	2	I	2	0	703	1	poli_8sides 2_whiteLine3.jpg	MediumLong_e04_stereo_44KHz.wav
1	55	2	1	0	C	2	1	1006	1	poli_8sides 11_whiteLine3.jpg	Medium_e26_stereo_44KHz.wav
1	56	3	3	2	I	2	0	1201	0	poli_8sides 13_whiteLine3.jpg	Medium_e21_stereo_44KHz.wav
1	57	4	4	2	I	2	0	743	1	poli_8sides 2_whiteLine3.jpg	MediumLong_e04_stereo_44KHz.wav
1	58	3	4	2	I	2	0	715	1	poli_8sides 13_whiteLine3.jpg	MediumLong_e04_stereo_44KHz.wav
1	59	2	2	1	C	2	0	663	0	poli_8sides 11_whiteLine3.jpg	Medium_e01_cut1_stereo_44KHz.wav
1	60	1	2	0	C	2	1	777	1	poli_8sides 10_whiteLine3.jpg	Medium_e01_cut1_stereo_44KHz.wav
1	61	4	3	2	I	2	0	832	1	poli_8sides 2_whiteLine3.jpg	Medium_e21_stereo_44KHz.wav
1	62	1	1	1	C	1	1	1137	1	poli_8sides 10_whiteLine3.jpg	Medium_e26_stereo_44KHz.wav
1	63	3	3	2	I	1	0	1214	0	poli_8sides 13_whiteLine3.jpg	Medium_e21_stereo_44KHz.wav
1	64	2	1	0	C	2	1	1243	1	poli_8sides 11_whiteLine3.jpg	Medium_e26_stereo_44KHz.wav
1	65	1	1	1	C	1	1	1077	1	poli_8sides 10_whiteLine3.jpg	Medium_e26_stereo_44KHz.wav
1	66	2	1	0	C	2	1	735	1	poli_8sides 11_whiteLine3.jpg	Medium_e26_stereo_44KHz.wav
1	67	4	4	2	I	2	0	646	1	poli_8sides 2_whiteLine3.jpg	MediumLong_e04_stereo_44KHz.wav
1	68	3	4	2	I	2	0	741	0	poli_8sides 13_whiteLine3.jpg	MediumLong_e04_stereo_44KHz.wav
1	69	2	2	1	C	1	1	992	1	poli_8sides 11_whiteLine3.jpg	Medium_e01_cut1_stereo_44KHz.wav
1	70	1	2	0	C	1	0	1126	0	poli_8sides 10_whiteLine3.jpg	Medium_e01_cut1_stereo_44KHz.wav
1	71	4	3	2	I	2	0	741	1	poli_8sides 2_whiteLine3.jpg	Medium_e21_stereo_44KHz.wav
1	72	3	3	2	I	1	0	1036	0	poli_8sides 13_whiteLine3.jpg	Medium_e21_stereo_44KHz.wav
1	73	4	3	2	I	1	0	871	0	poli_8sides 2_whiteLine3.jpg	Medium_e21_stereo_44KHz.wav
1	74	1	2	0	C	2	1	800	1	poli_8sides 10_whiteLine3.jpg	Medium_e01_cut1_stereo_44KHz.wav
1	75	2	2	1	C	1	1	967	1	poli_8sides 11_whiteLine3.jpg	Medium_e01_cut1_stereo_44KHz.wav
1	76	3	4	2	I	2	0	854	1	poli_8sides 13_whiteLine3.jpg	MediumLong_e04_stereo_44KHz.wav
1	77	4	4	2	I	2	0	377	0	poli_8sides 2_whiteLine3.jpg	MediumLong_e04_stereo_44KHz.wav
1	78	2	1	0	C	2	1	798	1	poli_8sides 11_whiteLine3.jpg	Medium_e26_stereo_44KHz.wav
1	79	3	3	2	I	0	0	0	0	poli_8sides 13_whiteLine3.jpg	Medium_e21_stereo_44KHz.wav
1	80	1	1	1	C	1	1	1156	1	poli_8sides 10_whiteLine3.jpg	Medium_e26_stereo_44KHz.wav
1	81	4	4	2	I	2	0	726	0	poli_8sides 2_whiteLine3.jpg	MediumLong_e04_stereo_44KHz.wav
1	82	3	4	2	I	2	0	611	0	poli_8sides 13_whiteLine3.jpg	MediumLong_e04_stereo_44KHz.wav
1	83	2	1	0	C	2	1	837	1	poli_8sides 11_whiteLine3.jpg	Medium_e26_stereo_44KHz.wav
1	84	1	1	1	C	2	0	883	0	poli_8sides 10_whiteLine3.jpg	Medium_e26_stereo_44KHz.wav
1	85	2	2	1	C	1	1	845	1	poli_8sides 11_whiteLine3.jpg	Medium_e01_cut1_stereo_44KHz.wav
1	86	1	2	0	C	1	0	716	0	poli_8sides 10_whiteLine3.jpg	Medium_e01_cut1_stereo_44KHz.wav
1	87	3	3	2	I	1	0	1247	1	poli_8sides 13_whiteLine3.jpg	Medium_e21_stereo_44KHz.wav
1	88	4	3	2	I	2	0	886	0	poli_8sides 2_whiteLine3.jpg	Medium_e21_stereo_44KHz.wav
1	89	1	2	0	C	1	0	1566	0	poli_8sides 10_whiteLine3.jpg	Medium_e01_cut1_stereo_44KHz.wav
1	90	4	4	2	I	2	0	605	0	poli_8sides 2_whiteLine3.jpg	MediumLong_e04_stereo_44KHz.wav
1	91	3	4	2	I	2	0	385	1	poli_8sides 13_whiteLine3.jpg	MediumLong_e04_stereo_44KHz.wav
1	92	2	2	1	C	2	0	1132	0	poli_8sides 11_whiteLine3.jpg	Medium_e01_cut1_stereo_44KHz.wav
1	93	4	3	2	I	2	0	645	0	poli_8sides 2_whiteLine3.jpg	Medium_e21_stereo_44KHz.wav
1	94	2	1	0	C	2	1	1150	1	poli_8sides 11_whiteLine3.jpg	Medium_e26_stereo_44KHz.wav
1	95	3	3	2	I	1	0	1050	0	poli_8sides 13_whiteLine3.jpg	Medium_e21_stereo_44KHz.wav
1	96	1	1	1	C	1	1	1110	1	poli_8sides 10_whiteLine3.jpg	Medium_e26_stereo_44KHz.wav
1	97	4	3	2	I	1	0	909	1	poli_8sides 2_whiteLine3.jpg	Medium_e21_stereo_44KHz.wav
1	98	1	1	1	C	1	1	1136	1	poli_8sides 10_whiteLine3.jpg	Medium_e26_stereo_44KHz.wav
1	99	2	1	0	C	2	1	945	1	poli_8sides 11_whiteLine3.jpg	Medium_e26_stereo_44KHz.wav
1	100	3	4	2	I	2	0	1053	0	poli_8sides 13_whiteLine3.jpg	MediumLong_e04_stereo_44KHz.wav
1	101	4	4	2	I	2	0	600	0	poli_8sides 2_whiteLine3.jpg	MediumLong_e04_stereo_44KHz.wav
1	102	1	2	0	C	1	0	906	0	poli_8sides 10_whiteLine3.jpg	Medium_e01_cut1_stereo_44KHz.wav
1	103	2	2	1	C	1	1	1167	1	poli_8sides 11_whiteLine3.jpg	Medium_e01_cut1_stereo_44KHz.wav
1	104	3	3	2	I	2	0	662	1	poli_8sides 13_whiteLine3.jpg	Medium_e21_stereo_44KHz.wav
1	105	2	2	1	C	1	1	1260	1	poli_8sides 11_whiteLine3.jpg	Medium_e01_cut1_stereo_44KHz.wav
1	106	1	1	1	C	1	1	1120	1	poli_8sides 10_whiteLine3.jpg	Medium_e26_stereo_44KHz.wav
1	107	4	3	2	I	1	0	1521	0	poli_8sides 2_whiteLine3.jpg	Medium_e21_stereo_44KHz.wav
1	108	3	3	2	I	2	0	1021	0	poli_8sides 13_whiteLine3.jpg	Medium_e21_stereo_44KHz.wav
1	109	2	1	0	C	2	1	873	1	poli_8sides 11_whiteLine3.jpg	Medium_e26_stereo_44KHz.wav
1	110	4	4	2	I	2	0	907	0	poli_8sides 2_whiteLine3.jpg	MediumLong_e04_stereo_44KHz.wav
1	111	1	2	0	C	2	1	1338	1	poli_8sides 10_whiteLine3.jpg	Medium_e01_cut1_stereo_44KHz.wav
1	112	3	4	2	I	2	0	916	1	poli_8sides 13_whiteLine3.jpg	MediumLong_e04_stereo_44KHz.wav
1	113	1	2	0	C	2	1	1022	1	poli_8sides 10_whiteLine3.jpg	Medium_e01_cut1_stereo_44KHz.wav
1	114	2	2	1	C	1	1	1205	1	poli_8sides 11_whiteLine3.jpg	Medium_e01_cut1_stereo_44KHz.wav
1	115	4	4	2	I	2	0	594	0	poli_8sides 2_whiteLine3.jpg	MediumLong_e04_stereo_44KHz.wav
1	116	3	4	2	I	2	0	642	0	poli_8sides 13_whiteLine3.jpg	MediumLong_e04_stereo_44KHz.wav
1	117	4	3	2	I	1	0	1035	0	poli_8sides 2_whiteLine3.jpg	Medium_e21_stereo_44KHz.wav
1	118	1	1	1	C	1	1	1316	1	poli_8sides 10_whiteLine3.jpg	Medium_e26_stereo_44KHz.wav
1	119	2	1	0	C	2	1	1311	1	poli_8sides 11_whiteLine3.jpg	Medium_e26_stereo_44KHz.wav
1	120	3	3	2	I	1	0	1213	0	poli_8sides 13_whiteLine3.jpg	Medium_e21_stereo_44KHz.wav
1	121	1	1	1	C	1	1	1335	1	poli_8sides 10_whiteLine3.jpg	Medium_e26_stereo_44KHz.wav
1	122	2	2	1	C	0	0	0	0	poli_8sides 11_whiteLine3.jpg	Medium_e01_cut1_stereo_44KHz.wav
1	123	3	4	2	I	2	0	705	0	poli_8sides 13_whiteLine3.jpg	MediumLong_e04_stereo_44KHz.wav
1	124	4	4	2	I	2	0	533	1	poli_8sides 2_whiteLine3.jpg	MediumLong_e04_stereo_44KHz.wav
1	125	1	2	0	C	2	1	914	1	poli_8sides 10_whiteLine3.jpg	Medium_e01_cut1_stereo_44KHz.wav
1	126	3	3	2	I	1	0	1040	1	poli_8sides 13_whiteLine3.jpg	Medium_e21_stereo_44KHz.wav
1	127	2	1	0	C	2	1	891	1	poli_8sides 11_whiteLine3.jpg	Medium_e26_stereo_44KHz.wav
1	128	4	3	2	I	1	0	1219	1	poli_8sides 2_whiteLine3.jpg	Medium_e21_stereo_44KHz.wav
1	129	1	2	0	C	2	1	1385	1	poli_8sides 10_whiteLine3.jpg	Medium_e01_cut1_stereo_44KHz.wav
1	130	3	4	2	I	2	0	967	0	poli_8sides 13_whiteLine3.jpg	MediumLong_e04_stereo_44KHz.wav
1	131	4	4	2	I	2	0	733	1	poli_8sides 2_whiteLine3.jpg	MediumLong_e04_stereo_44KHz.wav
1	132	2	1	0	C	2	1	954	1	poli_8sides 11_whiteLine3.jpg	Medium_e26_stereo_44KHz.wav
1	133	3	3	2	I	2	0	856	1	poli_8sides 13_whiteLine3.jpg	Medium_e21_stereo_44KHz.wav
1	134	2	2	1	C	1	1	790	1	poli_8sides 11_whiteLine3.jpg	Medium_e01_cut1_stereo_44KHz.wav
1	135	4	3	2	I	1	0	1465	0	poli_8sides 2_whiteLine3.jpg	Medium_e21_stereo_44KHz.wav
1	136	1	1	1	C	1	1	1225	1	poli_8sides 10_whiteLine3.jpg	Medium_e26_stereo_44KHz.wav
1	137	2	2	1	C	1	1	1440	1	poli_8sides 11_whiteLine3.jpg	Medium_e01_cut1_stereo_44KHz.wav
1	138	4	3	2	I	2	0	1053	0	poli_8sides 2_whiteLine3.jpg	Medium_e21_stereo_44KHz.wav
1	139	1	2	0	C	1	0	625	0	poli_8sides 10_whiteLine3.jpg	Medium_e01_cut1_stereo_44KHz.wav
1	140	3	4	2	I	2	0	695	1	poli_8sides 13_whiteLine3.jpg	MediumLong_e04_stereo_44KHz.wav
1	141	4	4	2	I	2	0	429	1	poli_8sides 2_whiteLine3.jpg	MediumLong_e04_stereo_44KHz.wav
1	142	1	1	1	C	1	1	1008	1	poli_8sides 10_whiteLine3.jpg	Medium_e26_stereo_44KHz.wav
1	143	3	3	2	I	2	0	1382	1	poli_8sides 13_whiteLine3.jpg	Medium_e21_stereo_44KHz.wav
1	144	2	1	0	C	2	1	1138	1	poli_8sides 11_whiteLine3.jpg	Medium_e26_stereo_44KHz.wav
1	145	1	2	0	C	2	1	794	1	poli_8sides 10_whiteLine3.jpg	Medium_e01_cut1_stereo_44KHz.wav
1	146	3	4	2	I	2	0	767	0	poli_8sides 13_whiteLine3.jpg	MediumLong_e04_stereo_44KHz.wav
1	147	2	1	0	C	2	1	562	1	poli_8sides 11_whiteLine3.jpg	Medium_e26_stereo_44KHz.wav
1	148	4	3	2	I	2	0	801	1	poli_8sides 2_whiteLine3.jpg	Medium_e21_stereo_44KHz.wav
1	149	1	1	1	C	1	1	1014	1	poli_8sides 10_whiteLine3.jpg	Medium_e26_stereo_44KHz.wav
1	150	3	3	2	I	2	0	1207	1	poli_8sides 13_whiteLine3.jpg	Medium_e21_stereo_44KHz.wav
1	151	2	2	1	C	1	1	1248	1	poli_8sides 11_whiteLine3.jpg	Medium_e01_cut1_stereo_44KHz.wav
1	152	4	4	2	I	2	0	909	0	poli_8sides 2_whiteLine3.jpg	MediumLong_e04_stereo_44KHz.wav
1	153	1	1	1	C	1	1	934	1	poli_8sides 10_whiteLine3.jpg	Medium_e26_stereo_44KHz.wav
1	154	3	3	2	I	2	0	1047	1	poli_8sides 13_whiteLine3.jpg	Medium_e21_stereo_44KHz.wav
1	155	4	4	2	I	2	0	688	1	poli_8sides 2_whiteLine3.jpg	MediumLong_e04_stereo_44KHz.wav
1	156	2	2	1	C	1	1	1008	1	poli_8sides 11_whiteLine3.jpg	Medium_e01_cut1_stereo_44KHz.wav
1	157	3	4	2	I	2	0	877	1	poli_8sides 13_whiteLine3.jpg	MediumLong_e04_stereo_44KHz.wav
1	158	2	1	0	C	1	0	928	0	poli_8sides 11_whiteLine3.jpg	Medium_e26_stereo_44KHz.wav
1	159	4	3	2	I	2	0	974	0	poli_8sides 2_whiteLine3.jpg	Medium_e21_stereo_44KHz.wav
1	160	1	2	0	C	2	1	1349	1	poli_8sides 10_whiteLine3.jpg	Medium_e01_cut1_stereo_44KHz.wav
1	161	4	3	2	I	2	0	1512	1	poli_8sides 2_whiteLine3.jpg	Medium_e21_stereo_44KHz.wav
1	162	2	2	1	C	1	1	1098	1	poli_8sides 11_whiteLine3.jpg	Medium_e01_cut1_stereo_44KHz.wav
1	163	3	4	2	I	2	0	801	1	poli_8sides 13_whiteLine3.jpg	MediumLong_e04_stereo_44KHz.wav
1	164	1	1	1	C	1	1	825	1	poli_8sides 10_whiteLine3.jpg	Medium_e26_stereo_44KHz.wav
1	165	4	4	2	I	1	0	910	0	poli_8sides 2_whiteLine3.jpg	MediumLong_e04_stereo_44KHz.wav
1	166	3	3	2	I	2	0	1063	0	poli_8sides 13_whiteLine3.jpg	Medium_e21_stereo_44KHz.wav
1	167	2	1	0	C	2	1	751	1	poli_8sides 11_whiteLine3.jpg	Medium_e26_stereo_44KHz.wav
1	168	1	2	0	C	1	0	1267	0	poli_8sides 10_whiteLine3.jpg	Medium_e01_cut1_stereo_44KHz.wav
1	169	3	4	2	I	2	0	1423	0	poli_8sides 13_whiteLine3.jpg	MediumLong_e04_stereo_44KHz.wav
1	170	4	4	2	I	2	0	766	1	poli_8sides 2_whiteLine3.jpg	MediumLong_e04_stereo_44KHz.wav
1	171	1	2	0	C	2	1	1488	1	poli_8sides 10_whiteLine3.jpg	Medium_e01_cut1_stereo_44KHz.wav
1	172	2	1	0	C	2	1	1237	1	poli_8sides 11_whiteLine3.jpg	Medium_e26_stereo_44KHz.wav
1	173	3	3	2	I	2	0	847	0	poli_8sides 13_whiteLine3.jpg	Medium_e21_stereo_44KHz.wav
1	174	1	1	1	C	1	1	987	1	poli_8sides 10_whiteLine3.jpg	Medium_e26_stereo_44KHz.wav
1	175	2	2	1	C	1	1	1564	1	poli_8sides 11_whiteLine3.jpg	Medium_e01_cut1_stereo_44KHz.wav
1	176	4	3	2	I	1	0	1783	1	poli_8sides 2_whiteLine3.jpg	Medium_e21_stereo_44KHz.wav
1	177	2	2	1	C	1	1	890	1	poli_8sides 11_whiteLine3.jpg	Medium_e01_cut1_stereo_44KHz.wav
1	178	3	3	2	I	2	0	1410	1	poli_8sides 13_whiteLine3.jpg	Medium_e21_stereo_44KHz.wav
1	179	1	1	1	C	1	1	898	1	poli_8sides 10_whiteLine3.jpg	Medium_e26_stereo_44KHz.wav
1	180	4	4	2	I	2	0	748	1	poli_8sides 2_whiteLine3.jpg	MediumLong_e04_stereo_44KHz.wav
1	181	3	4	2	I	2	0	819	0	poli_8sides 13_whiteLine3.jpg	MediumLong_e04_stereo_44KHz.wav
1	182	1	2	0	C	2	1	669	1	poli_8sides 10_whiteLine3.jpg	Medium_e01_cut1_stereo_44KHz.wav
1	183	4	3	2	I	2	0	738	0	poli_8sides 2_whiteLine3.jpg	Medium_e21_stereo_44KHz.wav
1	184	2	1	0	C	2	1	1133	1	poli_8sides 11_whiteLine3.jpg	Medium_e26_stereo_44KHz.wav
1	185	4	3	2	I	2	0	1604	1	poli_8sides 2_whiteLine3.jpg	Medium_e21_stereo_44KHz.wav
1	186	1	1	1	C	1	1	884	1	poli_8sides 10_whiteLine3.jpg	Medium_e26_stereo_44KHz.wav
1	187	3	4	2	I	2	0	991	0	poli_8sides 13_whiteLine3.jpg	MediumLong_e04_stereo_44KHz.wav
1	188	2	1	0	C	2	1	1057	1	poli_8sides 11_whiteLine3.jpg	Medium_e26_stereo_44KHz.wav
1	189	1	2	0	C	2	1	1109	1	poli_8sides 10_whiteLine3.jpg	Medium_e01_cut1_stereo_44KHz.wav
1	190	4	4	2	I	2	0	1183	1	poli_8sides 2_whiteLine3.jpg	MediumLong_e04_stereo_44KHz.wav
1	191	3	3	2	I	1	0	1105	0	poli_8sides 13_whiteLine3.jpg	Medium_e21_stereo_44KHz.wav
1	192	2	2	1	C	1	1	977	1	poli_8sides 11_whiteLine3.jpg	Medium_e01_cut1_stereo_44KHz.wav
1	193	1	1	1	C	1	1	1292	1	poli_8sides 10_whiteLine3.jpg	Medium_e26_stereo_44KHz.wav
1	194	3	4	2	I	2	0	772	0	poli_8sides 13_whiteLine3.jpg	MediumLong_e04_stereo_44KHz.wav
1	195	2	2	1	C	1	1	887	1	poli_8sides 11_whiteLine3.jpg	Medium_e01_cut1_stereo_44KHz.wav
1	196	4	4	2	I	2	0	775	0	poli_8sides 2_whiteLine3.jpg	MediumLong_e04_stereo_44KHz.wav
1	197	1	2	0	C	2	1	1207	1	poli_8sides 10_whiteLine3.jpg	Medium_e01_cut1_stereo_44KHz.wav
1	198	4	3	2	I	2	0	1519	1	poli_8sides 2_whiteLine3.jpg	Medium_e21_stereo_44KHz.wav
1	199	2	1	0	C	2	1	1118	1	poli_8sides 11_whiteLine3.jpg	Medium_e26_stereo_44KHz.wav
1	200	3	3	2	I	2	0	822	1	poli_8sides 13_whiteLine3.jpg	Medium_e21_stereo_44KHz.wav
2	1	3	3	2	I	0	0	0	0	poli_8sides 16_whiteLine3.jpg	Short_b22_cut1_stereo_44KHz.wav
2	2	2	2	1	C	1	1	1003	1	poli_8sides 8_whiteLine3.jpg	Short_b09_cut1_stereo_44KHz.wav
2	3	4	3	2	I	1	0	633	0	poli_8sides 18_whiteLine3.jpg	Short_b22_cut1_stereo_44KHz.wav
2	4	1	1	1	C	1	1	844	1	poli_8sides 5_whiteLine3.jpg	Short_b20_cut1_stereo_44KHz.wav
2	5	2	1	0	C	1	0	900	0	poli_8sides 8_whiteLine3.jpg	Short_b20_cut1_stereo_44KHz.wav
2	6	4	4	2	I	1	0	885	1	poli_8sides 18_whiteLine3.jpg	Short_b23_cut1_stereo_44KHz.wav
2	7	1	2	0	C	1	0	594	0	poli_8sides 5_whiteLine3.jpg	Short_b09_cut1_stereo_44KHz.wav
2	8	3	4	2	I	1	0	913	1	poli_8sides 16_whiteLine3.jpg	Short_b23_cut1_stereo_44KHz.wav
2	9	2	2	1	C	2	0	621	0	poli_8sides 8_whiteLine3.jpg	Short_b09_cut1_stereo_44KHz.wav
2	10	1	1	1	C	2	0	779	0	poli_8sides 5_whiteLine3.jpg	Short_b20_cut1_stereo_44KHz.wav
2	11	4	4	2	I	2	0	445	0	poli_8sides 18_whiteLine3.jpg	Short_b23_cut1_stereo_44KHz.wav
2	12	3	4	2	I	2	0	709	1	poli_8sides 16_whiteLine3.jpg	Short_b23_cut1_stereo_44KHz.wav
2	13	1	2	0	C	2	1	866	1	poli_8sides 5_whiteLine3.jpg	Short_b09_cut1_stereo_44KHz.wav
2	14	3	3	2	I	2	0	750	1	poli_8sides 16_whiteLine3.jpg	Short_b22_cut1_stereo_44KHz.wav
2	15	4	3	2	I	1	0	703	0	poli_8sides 18_whiteLine3.jpg	Short_b22_cut1_stereo_44KHz.wav
2	16	2	1	0	C	1	0	949	0	poli_8sides 8_whiteLine3.jpg	Short_b20_cut1_stereo_44KHz.wav
2	17	1	2	0	C	2	1	940	1	poli_8sides 5_whiteLine3.jpg	Short_b09_cut1_stereo_44KHz.wav
2	18	3	3	2	I	2	0	1107	0	poli_8sides 16_whiteLine3.jpg	Short_b22_cut1_stereo_44KHz.wav
2	19	4	4	2	I	2	0	885	1	poli_8sides 18_whiteLine3.jpg	Short_b23_cut1_stereo_44KHz.wav
2	20	2	2	1	C	1	1	1195	1	poli_8sides 8_whiteLine3.jpg	Short_b09_cut1_stereo_44KHz.wav
2	21	3	4	2	I	2	0	839	1	poli_8sides 16_whiteLine3.jpg	Short_b23_cut1_stereo_44KHz.wav
2	22	4	3	2	I	2	0	751	1	poli_8sides 18_whiteLine3.jpg	Short_b22_cut1_stereo_44KHz.wav
2	23	2	1	0	C	1	0	1141	0	poli_8sides 8_whiteLine3.jpg	Short_b20_cut1_stereo_44KHz.wav
2	24	1	1	1	C	2	0	552	0	poli_8sides 5_whiteLine3.jpg	Short_b20_cut1_stereo_44KHz.wav
2	25	4	4	2	I	1	0	716	0	poli_8sides 18_whiteLine3.jpg	Short_b23_cut1_stereo_44KHz.wav
2	26	3	4	2	I	2	0	465	1	poli_8sides 16_whiteLine3.jpg	Short_b23_cut1_stereo_44KHz.wav
2	27	1	1	1	C	1	1	716	1	poli_8sides 5_whiteLine3.jpg	Short_b20_cut1_stereo_44KHz.wav
2	28	2	1	0	C	1	0	986	0	poli_8sides 8_whiteLine3.jpg	Short_b20_cut1_stereo_44KHz.wav
2	29	4	3	2	I	2	0	685	1	poli_8sides 18_whiteLine3.jpg	Short_b22_cut1_stereo_44KHz.wav
2	30	3	3	2	I	1	0	673	1	poli_8sides 16_whiteLine3.jpg	Short_b22_cut1_stereo_44KHz.wav
2	31	1	2	0	C	2	1	1010	1	poli_8sides 5_whiteLine3.jpg	Short_b09_cut1_stereo_44KHz.wav
2	32	2	2	1	C	1	1	1051	1	poli_8sides 8_whiteLine3.jpg	Short_b09_cut1_stereo_44KHz.wav
2	33	3	4	2	I	2	0	685	1	poli_8sides 16_whiteLine3.jpg	Short_b23_cut1_stereo_44KHz.wav
2	34	4	3	2	I	2	0	1043	0	poli_8sides 18_whiteLine3.jpg	Short_b22_cut1_stereo_44KHz.wav
2	35	2	1	0	C	2	1	781	1	poli_8sides 8_whiteLine3.jpg	Short_b20_cut1_stereo_44KHz.wav
2	36	1	2	0	C	1	0	988	0	poli_8sides 5_whiteLine3.jpg	Short_b09_cut1_stereo_44KHz.wav
2	37	3	3	2	I	2	0	816	0	poli_8sides 16_whiteLine3.jpg	Short_b22_cut1_stereo_44KHz.wav
2	38	4	4	2	I	2	0	1262	0	poli_8sides 18_whiteLine3.jpg	Short_b23_cut1_stereo_44KHz.wav
2	39	2	2	1	C	1	1	839	1	poli_8sides 8_whiteLine3.jpg	Short_b09_cut1_stereo_44KHz.wav
2	40	1	1	1	C	2	0	1248	0	poli_8sides 5_whiteLine3.jpg	Short_b20_cut1_stereo_44KHz.wav
2	41	4	3	2	I	2	0	1352	1	poli_8sides 18_whiteLine3.jpg	Short_b22_cut1_stereo_44KHz.wav
2	42	2	1	0	C	2	1	1074	1	poli_8sides 8_whiteLine3.jpg	Short_b20_cut1_stereo_44KHz.wav
2	43	1	1	1	C	1	1	971	1	poli_8sides 5_whiteLine3.jpg	Short_b20_cut1_stereo_44KHz.wav
2	44	3	3	2	I	2	0	968	1	poli_8sides 16_whiteLine3.jpg	Short_b22_cut1_stereo_44KHz.wav
2	45	1	2	0	C	2	1	663	1	poli_8sides 5_whiteLine3.jpg	Short_b09_cut1_stereo_44KHz.wav
2	46	4	4	2	I	2	0	913	1	poli_8sides 18_whiteLine3.jpg	Short_b23_cut1_stereo_44KHz.wav
2	47	3	4	2	I	2	0	854	0	poli_8sides 16_whiteLine3.jpg	Short_b23_cut1_stereo_44KHz.wav
2	48	2	2	1	C	2	0	737	0	poli_8sides 8_whiteLine3.jpg	Short_b09_cut1_stereo_44KHz.wav
2	49	1	2	0	C	2	1	666	1	poli_8sides 5_whiteLine3.jpg	Short_b09_cut1_stereo_44KHz.wav
2	50	4	3	2	I	2	0	1266	0	poli_8sides 18_whiteLine3.jpg	Short_b22_cut1_stereo_44KHz.wav
2	51	3	4	2	I	2	0	674	1	poli_8sides 16_whiteLine3.jpg	Short_b23_cut1_stereo_44KHz.wav
2	52	2	1	0	C	2	1	906	1	poli_8sides 8_whiteLine3.jpg	Short_b20_cut1_stereo_44KHz.wav
2	53	4	4	2	I	1	0	892	1	poli_8sides 18_whiteLine3.jpg	Short_b23_cut1_stereo_44KHz.wav
2	54	1	1	1	C	1	1	1114	1	poli_8sides 5_whiteLine3.jpg	Short_b20_cut1_stereo_44KHz.wav
2	55	2	2	1	C	1	1	1181	1	poli_8sides 8_whiteLine3.jpg	Short_b09_cut1_stereo_44KHz.wav
2	56	3	3	2	I	2	0	861	0	poli_8sides 16_whiteLine3.jpg	Short_b22_cut1_stereo_44KHz.wav
2	57	2	2	1	C	1	1	981	1	poli_8sides 8_whiteLine3.jpg	Short_b09_cut1_stereo_44KHz.wav
2	58	1	2	0	C	2	1	812	1	poli_8sides 5_whiteLine3.jpg	Short_b09_cut1_stereo_44KHz.wav
2	59	4	4	2	I	2	0	1313	0	poli_8sides 18_whiteLine3.jpg	Short_b23_cut1_stereo_44KHz.wav
2	60	3	4	2	I	2	0	902	1	poli_8sides 16_whiteLine3.jpg	Short_b23_cut1_stereo_44KHz.wav
2	61	1	1	1	C	1	1	1795	1	poli_8sides 5_whiteLine3.jpg	Short_b20_cut1_stereo_44KHz.wav
2	62	2	1	0	C	2	1	557	1	poli_8sides 8_whiteLine3.jpg	Short_b20_cut1_stereo_44KHz.wav
2	63	3	3	2	I	2	0	876	1	poli_8sides 16_whiteLine3.jpg	Short_b22_cut1_stereo_44KHz.wav
2	64	4	3	2	I	1	0	1228	0	poli_8sides 18_whiteLine3.jpg	Short_b22_cut1_stereo_44KHz.wav
2	65	3	4	2	I	2	0	733	0	poli_8sides 16_whiteLine3.jpg	Short_b23_cut1_stereo_44KHz.wav
2	66	4	3	2	I	1	0	1059	1	poli_8sides 18_whiteLine3.jpg	Short_b22_cut1_stereo_44KHz.wav
2	67	1	2	0	C	2	1	731	1	poli_8sides 5_whiteLine3.jpg	Short_b09_cut1_stereo_44KHz.wav
2	68	2	2	1	C	1	1	978	1	poli_8sides 8_whiteLine3.jpg	Short_b09_cut1_stereo_44KHz.wav
2	69	3	3	2	I	2	0	1116	0	poli_8sides 16_whiteLine3.jpg	Short_b22_cut1_stereo_44KHz.wav
2	70	4	4	2	I	1	0	685	0	poli_8sides 18_whiteLine3.jpg	Short_b23_cut1_stereo_44KHz.wav
2	71	1	1	1	C	1	1	892	1	poli_8sides 5_whiteLine3.jpg	Short_b20_cut1_stereo_44KHz.wav
2	72	2	1	0	C	2	1	824	1	poli_8sides 8_whiteLine3.jpg	Short_b20_cut1_stereo_44KHz.wav
2	73	3	4	2	I	2	0	796	0	poli_8sides 16_whiteLine3.jpg	Short_b23_cut1_stereo_44KHz.wav
2	74	4	3	2	I	2	0	937	0	poli_8sides 18_whiteLine3.jpg	Short_b22_cut1_stereo_44KHz.wav
2	75	1	2	0	C	2	1	1147	1	poli_8sides 5_whiteLine3.jpg	Short_b09_cut1_stereo_44KHz.wav
2	76	2	2	1	C	1	1	794	1	poli_8sides 8_whiteLine3.jpg	Short_b09_cut1_stereo_44KHz.wav
2	77	3	3	2	I	2	0	842	1	poli_8sides 16_whiteLine3.jpg	Short_b22_cut1_stereo_44KHz.wav
2	78	4	4	2	I	1	0	1119	1	poli_8sides 18_whiteLine3.jpg	Short_b23_cut1_stereo_44KHz.wav
2	79	2	1	0	C	2	1	1098	1	poli_8sides 8_whiteLine3.jpg	Short_b20_cut1_stereo_44KHz.wav
2	80	1	1	1	C	1	1	1056	1	poli_8sides 5_whiteLine3.jpg	Short_b20_cut1_stereo_44KHz.wav
2	81	2	1	0	C	1	0	875	0	poli_8sides 8_whiteLine3.jpg	Short_b20_cut1_stereo_44KHz.wav
2	82	1	1	1	C	1	1	693	1	poli_8sides 5_whiteLine3.jpg	Short_b20_cut1_stereo_44KHz.wav
2	83	3	4	2	I	2	0	1172	0	poli_8sides 16_whiteLine3.jpg	Short_b23_cut1_stereo_44KHz.wav
2	84	4	3	2	I	1	0	933	0	poli_8sides 18_whiteLine3.jpg	Short_b22_cut1_stereo_44KHz.wav
2	85	2	2	1	C	1	1	832	1	poli_8sides 8_whiteLine3.jpg	Short_b09_cut1_stereo_44KHz.wav
2	86	4	4	2	I	2	0	814	0	poli_8sides 18_whiteLine3.jpg	Short_b23_cut1_stereo_44KHz.wav
2	87	3	3	2	I	2	0	547	1	poli_8sides 16_whiteLine3.jpg	Short_b22_cut1_stereo_44KHz.wav
2	88	1	2	0	C	2	1	812	1	poli_8sides 5_whiteLine3.jpg	Short_b09_cut1_stereo_44KHz.wav
2	89	4	3	2	I	2	0	814	1	poli_8sides 18_whiteLine3.jpg	Short_b22_cut1_stereo_44KHz.wav
2	90	2	2	1	C	1	1	937	1	poli_8sides 8_whiteLine3.jpg	Short_b09_cut1_stereo_44KHz.wav
2	91	3	4	2	I	2	0	736	0	poli_8sides 16_whiteLine3.jpg	Short_b23_cut1_stereo_44KHz.wav
2	92	1	2	0	C	2	1	843	1	poli_8sides 5_whiteLine3.jpg	Short_b09_cut1_stereo_44KHz.wav
2	93	2	1	0	C	2	1	791	1	poli_8sides 8_whiteLine3.jpg	Short_b20_cut1_stereo_44KHz.wav
2	94	3	3	2	I	2	0	908	0	poli_8sides 16_whiteLine3.jpg	Short_b22_cut1_stereo_44KHz.wav
2	95	4	4	2	I	1	0	1082	0	poli_8sides 18_whiteLine3.jpg	Short_b23_cut1_stereo_44KHz.wav
2	96	1	1	1	C	1	1	1076	1	poli_8sides 5_whiteLine3.jpg	Short_b20_cut1_stereo_44KHz.wav
2	97	4	4	2	I	2	0	832	0	poli_8sides 18_whiteLine3.jpg	Short_b23_cut1_stereo_44KHz.wav
2	98	3	3	2	I	2	0	805	0	poli_8sides 16_whiteLine3.jpg	Short_b22_cut1_stereo_44KHz.wav
2	99	1	1	1	C	2	0	764	0	poli_8sides 5_whiteLine3.jpg	Short_b20_cut1_stereo_44KHz.wav
2	100	2	2	1	C	1	1	1021	1	poli_8sides 8_whiteLine3.jpg	Short_b09_cut1_stereo_44KHz.wav
2	101	1	2	0	C	2	1	926	1	poli_8sides 5_whiteLine3.jpg	Short_b09_cut1_stereo_44KHz.wav
2	102	3	4	2	I	2	0	804	0	poli_8sides 16_whiteLine3.jpg	Short_b23_cut1_stereo_44KHz.wav
2	103	4	3	2	I	2	0	824	1	poli_8sides 18_whiteLine3.jpg	Short_b22_cut1_stereo_44KHz.wav
2	104	2	1	0	C	1	0	938	0	poli_8sides 8_whiteLine3.jpg	Short_b20_cut1_stereo_44KHz.wav
2	105	3	3	2	I	2	0	703	0	poli_8sides 16_whiteLine3.jpg	Short_b22_cut1_stereo_44KHz.wav
2	106	2	2	1	C	1	1	1822	1	poli_8sides 8_whiteLine3.jpg	Short_b09_cut1_stereo_44KHz.wav
2	107	1	1	1	C	2	0	675	0	poli_8sides 5_whiteLine3.jpg	Short_b20_cut1_stereo_44KHz.wav
2	108	4	4	2	I	1	0	1278	0	poli_8sides 18_whiteLine3.jpg	Short_b23_cut1_stereo_44KHz.wav
2	109	2	1	0	C	2	1	1769	1	poli_8sides 8_whiteLine3.jpg	Short_b20_cut1_stereo_44KHz.wav
2	110	1	2	0	C	2	1	842	1	poli_8sides 5_whiteLine3.jpg	Short_b09_cut1_stereo_44KHz.wav
2	111	4	3	2	I	2	0	969	0	poli_8sides 18_whiteLine3.jpg	Short_b22_cut1_stereo_44KHz.wav
2	112	3	4	2	I	2	0	633	0	poli_8sides 16_whiteLine3.jpg	Short_b23_cut1_stereo_44KHz.wav
2	113	4	3	2	I	2	0	1271	1	poli_8sides 18_whiteLine3.jpg	Short_b22_cut1_stereo_44KHz.wav
2	114	2	2	1	C	1	1	920	1	poli_8sides 8_whiteLine3.jpg	Short_b09_cut1_stereo_44KHz.wav
2	115	3	4	2	I	2	0	862	1	poli_8sides 16_whiteLine3.jpg	Short_b23_cut1_stereo_44KHz.wav
2	116	1	2	0	C	2	1	827	1	poli_8sides 5_whiteLine3.jpg	Short_b09_cut1_stereo_44KHz.wav
2	117	3	3	2	I	2	0	1674	0	poli_8sides 16_whiteLine3.jpg	Short_b22_cut1_stereo_44KHz.wav
2	118	1	1	1	C	2	0	1233	0	poli_8sides 5_whiteLine3.jpg	Short_b20_cut1_stereo_44KHz.wav
2	119	4	4	2	I	2	0	1109	1	poli_8sides 18_whiteLine3.jpg	Short_b23_cut1_stereo_44KHz.wav
2	120	2	1	0	C	1	0	1000	0	poli_8sides 8_whiteLine3.jpg	Short_b20_cut1_stereo_44KHz.wav
2	121	1	2	0	C	2	1	1891	1	poli_8sides 5_whiteLine3.jpg	Short_b09_cut1_stereo_44KHz.wav
2	122	4	4	2	I	2	0	712	1	poli_8sides 18_whiteLine3.jpg	Short_b23_cut1_stereo_44KHz.wav
2	123	2	1	0	C	2	1	977	1	poli_8sides 8_whiteLine3.jpg	Short_b20_cut1_stereo_44KHz.wav
2	124	3	3	2	I	2	0	786	1	poli_8sides 16_whiteLine3.jpg	Short_b22_cut1_stereo_44KHz.wav
2	125	4	3	2	I	1	0	1001	0	poli_8sides 18_whiteLine3.jpg	Short_b22_cut1_stereo_44KHz.wav
2	126	2	2	1	C	1	1	1269	1	poli_8sides 8_whiteLine3.jpg	Short_b09_cut1_stereo_44KHz.wav
2	127	1	1	1	C	1	1	1244	1	poli_8sides 5_whiteLine3.jpg	Short_b20_cut1_stereo_44KHz.wav
2	128	3	4	2	I	2	0	897	0	poli_8sides 16_whiteLine3.jpg	Short_b23_cut1_stereo_44KHz.wav
2	129	4	4	2	I	2	0	755	0	poli_8sides 18_whiteLine3.jpg	Short_b23_cut1_stereo_44KHz.wav
2	130	2	1	0	C	2	1	876	1	poli_8sides 8_whiteLine3.jpg	Short_b20_cut1_stereo_44KHz.wav
2	131	3	4	2	I	2	0	722	1	poli_8sides 16_whiteLine3.jpg	Short_b23_cut1_stereo_44KHz.wav
2	132	1	2	0	C	2	1	1139	1	poli_8sides 5_whiteLine3.jpg	Short_b09_cut1_stereo_44KHz.wav
2	133	3	3	2	I	2	0	688	0	poli_8sides 16_whiteLine3.jpg	Short_b22_cut1_stereo_44KHz.wav
2	134	2	2	1	C	0	0	0	0	poli_8sides 8_whiteLine3.jpg	Short_b09_cut1_stereo_44KHz.wav
2	135	4	3	2	I	2	0	1074	0	poli_8sides 18_whiteLine3.jpg	Short_b22_cut1_stereo_44KHz.wav
2	136	1	1	1	C	1	1	924	1	poli_8sides 5_whiteLine3.jpg	Short_b20_cut1_stereo_44KHz.wav
2	137	2	1	0	C	2	1	1970	1	poli_8sides 8_whiteLine3.jpg	Short_b20_cut1_stereo_44KHz.wav
2	138	3	3	2	I	2	0	758	1	poli_8sides 16_whiteLine3.jpg	Short_b22_cut1_stereo_44KHz.wav
2	139	1	1	1	C	1	1	993	1	poli_8sides 5_whiteLine3.jpg	Short_b20_cut1_stereo_44KHz.wav
2	140	4	4	2	I	2	0	850	1	poli_8sides 18_whiteLine3.jpg	Short_b23_cut1_stereo_44KHz.wav
2	141	3	4	2	I	1	0	1101	0	poli_8sides 16_whiteLine3.jpg	Short_b23_cut1_stereo_44KHz.wav
2	142	2	2	1	C	2	0	1380	0	poli_8sides 8_whiteLine3.jpg	Short_b09_cut1_stereo_44KHz.wav
2	143	4	3	2	I	2	0	998	0	poli_8sides 18_whiteLine3.jpg	Short_b22_cut1_stereo_44KHz.wav
2	144	1	2	0	C	2	1	798	1	poli_8sides 5_whiteLine3.jpg	Short_b09_cut1_stereo_44KHz.wav
2	145	3	4	2	I	2	0	992	0	poli_8sides 16_whiteLine3.jpg	Short_b23_cut1_stereo_44KHz.wav
2	146	1	2	0	C	2	1	1208	1	poli_8sides 5_whiteLine3.jpg	Short_b09_cut1_stereo_44KHz.wav
2	147	2	1	0	C	2	1	1001	1	poli_8sides 8_whiteLine3.jpg	Short_b20_cut1_stereo_44KHz.wav
2	148	4	3	2	I	2	0	809	0	poli_8sides 18_whiteLine3.jpg	Short_b22_cut1_stereo_44KHz.wav
2	149	1	1	1	C	1	1	1085	1	poli_8sides 5_whiteLine3.jpg	Short_b20_cut1_stereo_44KHz.wav
2	150	2	2	1	C	2	0	1178	0	poli_8sides 8_whiteLine3.jpg	Short_b09_cut1_stereo_44KHz.wav
2	151	3	3	2	I	2	0	1361	0	poli_8sides 16_whiteLine3.jpg	Short_b22_cut1_stereo_44KHz.wav
2	152	4	4	2	I	1	0	1377	1	poli_8sides 18_whiteLine3.jpg	Short_b23_cut1_stereo_44KHz.wav
2	153	1	1	1	C	1	1	929	1	poli_8sides 5_whiteLine3.jpg	Short_b20_cut1_stereo_44KHz.wav
2	154	3	3	2	I	2	0	810	1	poli_8sides 16_whiteLine3.jpg	Short_b22_cut1_stereo_44KHz.wav
2	155	2	2	1	C	2	0	1691	0	poli_8sides 8_whiteLine3.jpg	Short_b09_cut1_stereo_44KHz.wav
2	156	4	4	2	I	2	0	1033	0	poli_8sides 18_whiteLine3.jpg	Short_b23_cut1_stereo_44KHz.wav
2	157	1	2	0	C	2	1	819	1	poli_8sides 5_whiteLine3.jpg	Short_b09_cut1_stereo_44KHz.wav
2	158	4	3	2	I	2	0	839	1	poli_8sides 18_whiteLine3.jpg	Short_b22_cut1_stereo_44KHz.wav
2	159	3	4	2	I	2	0	1006	0	poli_8sides 16_whiteLine3.jpg	Short_b23_cut1_stereo_44KHz.wav
2	160	2	1	0	C	2	1	1694	1	poli_8sides 8_whiteLine3.jpg	Short_b20_cut1_stereo_44KHz.wav
2	161	4	4	2	I	2	0	972	1	poli_8sides 18_whiteLine3.jpg	Short_b23_cut1_stereo_44KHz.wav
2	162	1	2	0	C	2	1	1105	1	poli_8sides 5_whiteLine3.jpg	Short_b09_cut1_stereo_44KHz.wav
2	163	2	2	1	C	1	1	1179	1	poli_8sides 8_whiteLine3.jpg	Short_b09_cut1_stereo_44KHz.wav
2	164	3	3	2	I	2	0	865	1	poli_8sides 16_whiteLine3.jpg	Short_b22_cut1_stereo_44KHz.wav
2	165	2	1	0	C	2	1	1288	1	poli_8sides 8_whiteLine3.jpg	Short_b20_cut1_stereo_44KHz.wav
2	166	4	3	2	I	2	0	970	1	poli_8sides 18_whiteLine3.jpg	Short_b22_cut1_stereo_44KHz.wav
2	167	3	4	2	I	1	0	1171	1	poli_8sides 16_whiteLine3.jpg	Short_b23_cut1_stereo_44KHz.wav
2	168	1	1	1	C	1	1	1094	1	poli_8sides 5_whiteLine3.jpg	Short_b20_cut1_stereo_44KHz.wav
2	169	3	3	2	I	2	0	1081	1	poli_8sides 16_whiteLine3.jpg	Short_b22_cut1_stereo_44KHz.wav
2	170	4	4	2	I	2	0	973	1	poli_8sides 18_whiteLine3.jpg	Short_b23_cut1_stereo_44KHz.wav
2	171	2	2	1	C	1	1	1709	1	poli_8sides 8_whiteLine3.jpg	Short_b09_cut1_stereo_44KHz.wav
2	172	1	2	0	C	2	1	538	1	poli_8sides 5_whiteLine3.jpg	Short_b09_cut1_stereo_44KHz.wav
2	173	2	1	0	C	2	1	838	1	poli_8sides 8_whiteLine3.jpg	Short_b20_cut1_stereo_44KHz.wav
2	174	3	4	2	I	2	0	1110	0	poli_8sides 16_whiteLine3.jpg	Short_b23_cut1_stereo_44KHz.wav
2	175	4	3	2	I	2	0	1566	0	poli_8sides 18_whiteLine3.jpg	Short_b22_cut1_stereo_44KHz.wav
2	176	1	1	1	C	1	1	1118	1	poli_8sides 5_whiteLine3.jpg	Short_b20_cut1_stereo_44KHz.wav
2	177	2	1	0	C	2	1	1615	1	poli_8sides 8_whiteLine3.jpg	Short_b20_cut1_stereo_44KHz.wav
2	178	3	4	2	I	2	0	1129	0	poli_8sides 16_whiteLine3.jpg	Short_b23_cut1_stereo_44KHz.wav
2	179	1	2	0	C	2	1	948	1	poli_8sides 5_whiteLine3.jpg	Short_b09_cut1_stereo_44KHz.wav
2	180	4	4	2	I	2	0	1034	1	poli_8sides 18_whiteLine3.jpg	Short_b23_cut1_stereo_44KHz.wav
2	181	2	2	1	C	1	1	740	1	poli_8sides 8_whiteLine3.jpg	Short_b09_cut1_stereo_44KHz.wav
2	182	4	3	2	I	1	0	1186	1	poli_8sides 18_whiteLine3.jpg	Short_b22_cut1_stereo_44KHz.wav
2	183	1	1	1	C	1	1	906	1	poli_8sides 5_whiteLine3.jpg	Short_b20_cut1_stereo_44KHz.wav
2	184	3	3	2	I	2	0	1071	1	poli_8sides 16_whiteLine3.jpg	Short_b22_cut1_stereo_44KHz.wav
2	185	4	3	2	I	1	0	1189	0	poli_8sides 18_whiteLine3.jpg	Short_b22_cut1_stereo_44KHz.wav
2	186	3	3	2	I	2	0	1379	1	poli_8sides 16_whiteLine3.jpg	Short_b22_cut1_stereo_44KHz.wav
2	187	2	2	1	C	1	1	889	1	poli_8sides 8_whiteLine3.jpg	Short_b09_cut1_stereo_44KHz.wav
2	188	1	1	1	C	1	1	955	1	poli_8sides 5_whiteLine3.jpg	Short_b20_cut1_stereo_44KHz.wav
2	189	2	1	0	C	2	1	595	1	poli_8sides 8_whiteLine3.jpg	Short_b20_cut1_stereo_44KHz.wav
2	190	4	4	2	I	2	0	1426	1	poli_8sides 18_whiteLine3.jpg	Short_b23_cut1_stereo_44KHz.wav
2	191	1	2	0	C	2	1	964	1	poli_8sides 5_whiteLine3.jpg	Short_b09_cut1_stereo_44KHz.wav
2	192	3	4	2	I	2	0	1559	0	poli_8sides 16_whiteLine3.jpg	Short_b23_cut1_stereo_44KHz.wav
2	193	2	2	1	C	2	0	936	0	poli_8sides 8_whiteLine3.jpg	Short_b09_cut1_stereo_44KHz.wav
2	194	4	3	2	I	2	0	714	1	poli_8sides 18_whiteLine3.jpg	Short_b22_cut1_stereo_44KHz.wav
2	195	3	4	2	I	2	0	873	0	poli_8sides 16_whiteLine3.jpg	Short_b23_cut1_stereo_44KHz.wav
2	196	1	1	1	C	1	1	816	1	poli_8sides 5_whiteLine3.jpg	Short_b20_cut1_stereo_44KHz.wav
2	197	4	4	2	I	1	0	1286	1	poli_8sides 18_whiteLine3.jpg	Short_b23_cut1_stereo_44KHz.wav
2	198	2	1	0	C	1	0	967	0	poli_8sides 8_whiteLine3.jpg	Short_b20_cut1_stereo_44KHz.wav
2	199	3	3	2	I	2	0	887	1	poli_8sides 16_whiteLine3.jpg	Short_b22_cut1_stereo_44KHz.wav
2	200	1	2	0	C	2	1	924	1	poli_8sides 5_whiteLine3.jpg	Short_b09_cut1_stereo_44KHz.wav
3	1	2	1	0	C	1	0	762	0	poli_8sides 15_whiteLine3.jpg	MediumShort_e16_cut1_stereo_44KHz.wav
3	2	4	3	2	I	2	0	1368	0	poli_8sides 6_whiteLine3.jpg	MediumShort_e22_cut1_stereo_44KHz.wav
3	3	1	2	0	C	2	1	1378	1	poli_8sides 12_whiteLine3.jpg	MediumShort_b16_cut3_MS_stereo_44KHz.wav
3	4	3	3	2	I	2	0	1024	0	poli_8sides 1_whiteLine3.jpg	MediumShort_e22_cut1_stereo_44KHz.wav
3	5	1	1	1	C	1	1	722	1	poli_8sides 12_whiteLine3.jpg	MediumShort_e16_cut1_stereo_44KHz.wav
3	6	2	2	1	C	2	0	1020	0	poli_8sides 15_whiteLine3.jpg	MediumShort_b16_cut3_MS_stereo_44KHz.wav
3	7	4	4	2	I	2	0	964	0	poli_8sides 6_whiteLine3.jpg	MediumShort_b10_cut1_MS_stereo_44KHz.wav
3	8	3	4	2	I	2	0	1077	0	poli_8sides 1_whiteLine3.jpg	MediumShort_b10_cut1_MS_stereo_44KHz.wav
3	9	4	3	2	I	2	0	927	1	poli_8sides 6_whiteLine3.jpg	MediumShort_e22_cut1_stereo_44KHz.wav
3	10	3	3	2	I	1	0	817	0	poli_8sides 1_whiteLine3.jpg	MediumShort_e22_cut1_stereo_44KHz.wav
3	11	2	1	0	C	2	1	918	1	poli_8sides 15_whiteLine3.jpg	MediumShort_e16_cut1_stereo_44KHz.wav
3	12	1	2	0	C	2	1	974	1	poli_8sides 12_whiteLine3.jpg	MediumShort_b16_cut3_MS_stereo_44KHz.wav
3	13	2	2	1	C	1	1	890	1	poli_8sides 15_whiteLine3.jpg	MediumShort_b16_cut3_MS_stereo_44KHz.wav
3	14	3	4	2	I	1	0	1118	0	poli_8sides 1_whiteLine3.jpg	MediumShort_b10_cut1_MS_stereo_44KHz.wav
3	15	4	4	2	I	1	0	1193	0	poli_8sides 6_whiteLine3.jpg	MediumShort_b10_cut1_MS_stereo_44KHz.wav
3	16	1	1	1	C	2	0	1389	0	poli_8sides 12_whiteLine3.jpg	MediumShort_e16_cut1_stereo_44KHz.wav
3	17	2	2	1	C	1	1	1620	1	poli_8sides 15_whiteLine3.jpg	MediumShort_b16_cut3_MS_stereo_44KHz.wav
3	18	4	4	2	I	1	0	1104	0	poli_8sides 6_whiteLine3.jpg	MediumShort_b10_cut1_MS_stereo_44KHz.wav
3	19	1	2	0	C	1	0	1147	0	poli_8sides 12_whiteLine3.jpg	MediumShort_b16_cut3_MS_stereo_44KHz.wav
3	20	3	3	2	I	2	0	614	1	poli_8sides 1_whiteLine3.jpg	MediumShort_e22_cut1_stereo_44KHz.wav
3	21	1	1	1	C	1	1	752	1	poli_8sides 12_whiteLine3.jpg	MediumShort_e16_cut1_stereo_44KHz.wav
3	22	2	1	0	C	2	1	545	1	poli_8sides 15_whiteLine3.jpg	MediumShort_e16_cut1_stereo_44KHz.wav
3	23	4	3	2	I	2	0	1184	1	poli_8sides 6_whiteLine3.jpg	MediumShort_e22_cut1_stereo_44KHz.wav
3	24	3	4	2	I	1	0	1049	1	poli_8sides 1_whiteLine3.jpg	MediumShort_b10_cut1_MS_stereo_44KHz.wav
3	25	2	2	1	C	1	1	722	1	poli_8sides 15_whiteLine3.jpg	MediumShort_b16_cut3_MS_stereo_44KHz.wav
3	26	4	3	2	I	2	0	911	0	poli_8sides 6_whiteLine3.jpg	MediumShort_e22_cut1_stereo_44KHz.wav
3	27	3	4	2	I	1	0	1102	0	poli_8sides 1_whiteLine3.jpg	MediumShort_b10_cut1_MS_stereo_44KHz.wav
3	28	1	1	1	C	1	1	1458	1	poli_8sides 12_whiteLine3.jpg	MediumShort_e16_cut1_stereo_44KHz.wav
3	29	2	1	0	C	2	1	923	1	poli_8sides 15_whiteLine3.jpg	MediumShort_e16_cut1_stereo_44KHz.wav
3	30	4	4	2	I	1	0	1061	1	poli_8sides 6_whiteLine3.jpg	MediumShort_b10_cut1_MS_stereo_44KHz.wav
3	31	1	2	0	C	1	0	885	0	poli_8sides 12_whiteLine3.jpg	MediumShort_b16_cut3_MS_stereo_44KHz.wav
3	32	3	3	2	I	1	0	871	1	poli_8sides 1_whiteLine3.jpg	MediumShort_e22_cut1_stereo_44KHz.wav
3	33	2	2	1	C	1	1	1081	1	poli_8sides 15_whiteLine3.jpg	MediumShort_b16_cut3_MS_stereo_44KHz.wav
3	34	1	2	0	C	2	1	870	1	poli_8sides 12_whiteLine3.jpg	MediumShort_b16_cut3_MS_stereo_44KHz.wav
3	35	4	3	2	I	2	0	900	1	poli_8sides 6_whiteLine3.jpg	MediumShort_e22_cut1_stereo_44KHz.wav
3	36	3	4	2	I	2	0	1087	0	poli_8sides 1_whiteLine3.jpg	MediumShort_b10_cut1_MS_stereo_44KHz.wav
3	37	1	1	1	C	1	1	906	1	poli_8sides 12_whiteLine3.jpg	MediumShort_e16_cut1_stereo_44KHz.wav
3	38	4	4	2	I	1	0	1006	1	poli_8sides 6_whiteLine3.jpg	MediumShort_b10_cut1_MS_stereo_44KHz.wav
3	39	2	1	0	C	2	1	1147	1	poli_8sides 15_whiteLine3.jpg	MediumShort_e16_cut1_stereo_44KHz.wav
3	40	3	3	2	I	2	0	1021	1	poli_8sides 1_whiteLine3.jpg	MediumShort_e22_cut1_stereo_44KHz.wav
3	41	2	2	1	C	2	0	814	0	poli_8sides 15_whiteLine3.jpg	MediumShort_b16_cut3_MS_stereo_44KHz.wav
3	42	4	3	2	I	2	0	779	1	poli_8sides 6_whiteLine3.jpg	MediumShort_e22_cut1_stereo_44KHz.wav
3	43	3	3	2	I	1	0	764	0	poli_8sides 1_whiteLine3.jpg	MediumShort_e22_cut1_stereo_44KHz.wav
3	44	1	2	0	C	2	1	1214	1	poli_8sides 12_whiteLine3.jpg	MediumShort_b16_cut3_MS_stereo_44KHz.wav
3	45	3	4	2	I	1	0	744	0	poli_8sides 1_whiteLine3.jpg	MediumShort_b10_cut1_MS_stereo_44KHz.wav
3	46	1	1	1	C	1	1	1232	1	poli_8sides 12_whiteLine3.jpg	MediumShort_e16_cut1_stereo_44KHz.wav
3	47	2	1	0	C	2	1	694	1	poli_8sides 15_whiteLine3.jpg	MediumShort_e16_cut1_stereo_44KHz.wav
3	48	4	4	2	I	2	0	1057	1	poli_8sides 6_whiteLine3.jpg	MediumShort_b10_cut1_MS_stereo_44KHz.wav
3	49	2	1	0	C	2	1	956	1	poli_8sides 15_whiteLine3.jpg	MediumShort_e16_cut1_stereo_44KHz.wav
3	50	1	1	1	C	1	1	1115	1	poli_8sides 12_whiteLine3.jpg	MediumShort_e16_cut1_stereo_44KHz.wav
3	51	3	3	2	I	1	0	938	0	poli_8sides 1_whiteLine3.jpg	MediumShort_e22_cut1_stereo_44KHz.wav
3	52	4	3	2	I	2	0	580	1	poli_8sides 6_whiteLine3.jpg	MediumShort_e22_cut1_stereo_44KHz.wav
3	53	2	2	1	C	2	0	1396	0	poli_8sides 15_whiteLine3.jpg	MediumShort_b16_cut3_MS_stereo_44KHz.wav
3	54	4	4	2	I	2	0	803	0	poli_8sides 6_whiteLine3.jpg	MediumShort_b10_cut1_MS_stereo_44KHz.wav
3	55	3	4	2	I	1	0	753	0	poli_8sides 1_whiteLine3.jpg	MediumShort_b10_cut1_MS_stereo_44KHz.wav
3	56	1	2	0	C	1	0	1409	0	poli_8sides 12_whiteLine3.jpg	MediumShort_b16_cut3_MS_stereo_44KHz.wav
3	57	3	3	2	I	2	0	691	1	poli_8sides 1_whiteLine3.jpg	MediumShort_e22_cut1_stereo_44KHz.wav
3	58	2	1	0	C	2	1	874	1	poli_8sides 15_whiteLine3.jpg	MediumShort_e16_cut1_stereo_44KHz.wav
3	59	4	4	2	I	2	0	1467	1	poli_8sides 6_whiteLine3.jpg	MediumShort_b10_cut1_MS_stereo_44KHz.wav
3	60	1	2	0	C	1	0	1089	0	poli_8sides 12_whiteLine3.jpg	MediumShort_b16_cut3_MS_stereo_44KHz.wav
3	61	3	4	2	I	2	0	861	0	poli_8sides 1_whiteLine3.jpg	MediumShort_b10_cut1_MS_stereo_44KHz.wav
3	62	1	1	1	C	1	1	901	1	poli_8sides 12_whiteLine3.jpg	MediumShort_e16_cut1_stereo_44KHz.wav
3	63	4	3	2	I	2	0	557	0	poli_8sides 6_whiteLine3.jpg	MediumShort_e22_cut1_stereo_44KHz.wav
3	64	2	2	1	C	2	0	967	0	poli_8sides 15_whiteLine3.jpg	MediumShort_b16_cut3_MS_stereo_44KHz.wav
3	65	3	3	2	I	2	0	900	1	poli_8sides 1_whiteLine3.jpg	MediumShort_e22_cut1_stereo_44KHz.wav
3	66	4	3	2	I	2	0	583	0	poli_8sides 6_whiteLine3.jpg	MediumShort_e22_cut1_stereo_44KHz.wav
3	67	1	1	1	C	1	1	1130	1	poli_8sides 12_whiteLine3.jpg	MediumShort_e16_cut1_stereo_44KHz.wav
3	68	2	2	1	C	2	0	955	0	poli_8sides 15_whiteLine3.jpg	MediumShort_b16_cut3_MS_stereo_44KHz.wav
3	69	3	4	2	I	2	0	811	1	poli_8sides 1_whiteLine3.jpg	MediumShort_b10_cut1_MS_stereo_44KHz.wav
3	70	2	1	0	C	2	1	944	1	poli_8sides 15_whiteLine3.jpg	MediumShort_e16_cut1_stereo_44KHz.wav
3	71	1	2	0	C	1	0	853	0	poli_8sides 12_whiteLine3.jpg	MediumShort_b16_cut3_MS_stereo_44KHz.wav
3	72	4	4	2	I	2	0	1029	1	poli_8sides 6_whiteLine3.jpg	MediumShort_b10_cut1_MS_stereo_44KHz.wav
3	73	3	4	2	I	2	0	984	1	poli_8sides 1_whiteLine3.jpg	MediumShort_b10_cut1_MS_stereo_44KHz.wav
3	74	4	4	2	I	2	0	954	0	poli_8sides 6_whiteLine3.jpg	MediumShort_b10_cut1_MS_stereo_44KHz.wav
3	75	1	2	0	C	1	0	945	0	poli_8sides 12_whiteLine3.jpg	MediumShort_b16_cut3_MS_stereo_44KHz.wav
3	76	2	1	0	C	2	1	595	1	poli_8sides 15_whiteLine3.jpg	MediumShort_e16_cut1_stereo_44KHz.wav
3	77	1	1	1	C	1	1	1077	1	poli_8sides 12_whiteLine3.jpg	MediumShort_e16_cut1_stereo_44KHz.wav
3	78	3	3	2	I	2	0	640	0	poli_8sides 1_whiteLine3.jpg	MediumShort_e22_cut1_stereo_44KHz.wav
3	79	4	3	2	I	2	0	509	0	poli_8sides 6_whiteLine3.jpg	MediumShort_e22_cut1_stereo_44KHz.wav
3	80	2	2	1	C	2	0	1188	0	poli_8sides 15_whiteLine3.jpg	MediumShort_b16_cut3_MS_stereo_44KHz.wav
3	81	4	3	2	I	2	0	660	0	poli_8sides 6_whiteLine3.jpg	MediumShort_e22_cut1_stereo_44KHz.wav
3	82	2	1	0	C	2	1	765	1	poli_8sides 15_whiteLine3.jpg	MediumShort_e16_cut1_stereo_44KHz.wav
3	83	1	1	1	C	1	1	862	1	poli_8sides 12_whiteLine3.jpg	MediumShort_e16_cut1_stereo_44KHz.wav
3	84	3	3	2	I	2	0	727	1	poli_8sides 1_whiteLine3.jpg	MediumShort_e22_cut1_stereo_44KHz.wav
3	85	2	2	1	C	1	1	862	1	poli_8sides 15_whiteLine3.jpg	MediumShort_b16_cut3_MS_stereo_44KHz.wav
3	86	4	4	2	I	1	0	1036	1	poli_8sides 6_whiteLine3.jpg	MediumShort_b10_cut1_MS_stereo_44KHz.wav
3	87	3	4	2	I	2	0	679	1	poli_8sides 1_whiteLine3.jpg	MediumShort_b10_cut1_MS_stereo_44KHz.wav
3	88	1	2	0	C	1	0	727	0	poli_8sides 12_whiteLine3.jpg	MediumShort_b16_cut3_MS_stereo_44KHz.wav
3	89	3	3	2	I	2	0	899	0	poli_8sides 1_whiteLine3.jpg	MediumShort_e22_cut1_stereo_44KHz.wav
3	90	4	4	2	I	2	0	528	1	poli_8sides 6_whiteLine3.jpg	MediumShort_b10_cut1_MS_stereo_44KHz.wav
3	91	2	2	1	C	2	0	1106	0	poli_8sides 15_whiteLine3.jpg	MediumShort_b16_cut3_MS_stereo_44KHz.wav
3	92	1	2	0	C	2	1	541	1	poli_8sides 12_whiteLine3.jpg	MediumShort_b16_cut3_MS_stereo_44KHz.wav
3	93	4	3	2	I	2	0	616	1	poli_8sides 6_whiteLine3.jpg	MediumShort_e22_cut1_stereo_44KHz.wav
3	94	2	1	0	C	2	1	949	1	poli_8sides 15_whiteLine3.jpg	MediumShort_e16_cut1_stereo_44KHz.wav
3	95	3	4	2	I	2	0	819	0	poli_8sides 1_whiteLine3.jpg	MediumShort_b10_cut1_MS_stereo_44KHz.wav
3	96	1	1	1	C	2	0	768	0	poli_8sides 12_whiteLine3.jpg	MediumShort_e16_cut1_stereo_44KHz.wav
3	97	2	1	0	C	2	1	613	1	poli_8sides 15_whiteLine3.jpg	MediumShort_e16_cut1_stereo_44KHz.wav
3	98	4	3	2	I	2	0	907	1	poli_8sides 6_whiteLine3.jpg	MediumShort_e22_cut1_stereo_44KHz.wav
3	99	1	2	0	C	2	1	1049	1	poli_8sides 12_whiteLine3.jpg	MediumShort_b16_cut3_MS_stereo_44KHz.wav
3	100	3	4	2	I	2	0	925	0	poli_8sides 1_whiteLine3.jpg	MediumShort_b10_cut1_MS_stereo_44KHz.wav
3	101	2	2	1	C	2	0	1143	0	poli_8sides 15_whiteLine3.jpg	MediumShort_b16_cut3_MS_stereo_44KHz.wav
3	102	1	1	1	C	2	0	1070	0	poli_8sides 12_whiteLine3.jpg	MediumShort_e16_cut1_stereo_44KHz.wav
3	103	4	4	2	I	1	0	1688	1	poli_8sides 6_whiteLine3.jpg	MediumShort_b10_cut1_MS_stereo_44KHz.wav
3	104	3	3	2	I	2	0	950	1	poli_8sides 1_whiteLine3.jpg	MediumShort_e22_cut1_stereo_44KHz.wav
3	105	4	4	2	I	1	0	892	0	poli_8sides 6_whiteLine3.jpg	MediumShort_b10_cut1_MS_stereo_44KHz.wav
3	106	2	2	1	C	1	1	1368	1	poli_8sides 15_whiteLine3.jpg	MediumShort_b16_cut3_MS_stereo_44KHz.wav
3	107	3	4	2	I	1	0	1535	1	poli_8sides 1_whiteLine3.jpg	MediumShort_b10_cut1_MS_stereo_44KHz.wav
3	108	1	1	1	C	1	1	1376	1	poli_8sides 12_whiteLine3.jpg	MediumShort_e16_cut1_stereo_44KHz.wav
3	109	3	3	2	I	2	0	894	0	poli_8sides 1_whiteLine3.jpg	MediumShort_e22_cut1_stereo_44KHz.wav
3	110	2	1	0	C	2	1	668	1	poli_8sides 15_whiteLine3.jpg	MediumShort_e16_cut1_stereo_44KHz.wav
3	111	1	2	0	C	2	1	855	1	poli_8sides 12_whiteLine3.jpg	MediumShort_b16_cut3_MS_stereo_44KHz.wav
3	112	4	3	2	I	2	0	1065	0	poli_8sides 6_whiteLine3.jpg	MediumShort_e22_cut1_stereo_44KHz.wav
3	113	2	2	1	C	2	0	708	0	poli_8sides 15_whiteLine3.jpg	MediumShort_b16_cut3_MS_stereo_44KHz.wav
3	114	4	4	2	I	1	0	1225	1	poli_8sides 6_whiteLine3.jpg	MediumShort_b10_cut1_MS_stereo_44KHz.wav
3	115	1	2	0	C	2	1	860	1	poli_8sides 12_whiteLine3.jpg	MediumShort_b16_cut3_MS_stereo_44KHz.wav
3	116	3	4	2	I	2	0	730	0	poli_8sides 1_whiteLine3.jpg	MediumShort_b10_cut1_MS_stereo_44KHz.wav
3	117	2	1	0	C	2	1	1349	1	poli_8sides 15_whiteLine3.jpg	MediumShort_e16_cut1_stereo_44KHz.wav
3	118	3	3	2	I	2	0	861	0	poli_8sides 1_whiteLine3.jpg	MediumShort_e22_cut1_stereo_44KHz.wav
3	119	4	3	2	I	2	0	755	0	poli_8sides 6_whiteLine3.jpg	MediumShort_e22_cut1_stereo_44KHz.wav
3	120	1	1	1	C	2	0	713	0	poli_8sides 12_whiteLine3.jpg	MediumShort_e16_cut1_stereo_44KHz.wav
3	121	2	1	0	C	2	1	738	1	poli_8sides 15_whiteLine3.jpg	MediumShort_e16_cut1_stereo_44KHz.wav
3	122	3	4	2	I	2	0	837	1	poli_8sides 1_whiteLine3.jpg	MediumShort_b10_cut1_MS_stereo_44KHz.wav
3	123	1	2	0	C	2	1	875	1	poli_8sides 12_whiteLine3.jpg	MediumShort_b16_cut3_MS_stereo_44KHz.wav
3	124	4	4	2	I	2	0	1351	0	poli_8sides 6_whiteLine3.jpg	MediumShort_b10_cut1_MS_stereo_44KHz.wav
3	125	3	3	2	I	2	0	1867	0	poli_8sides 1_whiteLine3.jpg	MediumShort_e22_cut1_stereo_44KHz.wav
3	126	4	3	2	I	2	0	635	1	poli_8sides 6_whiteLine3.jpg	MediumShort_e22_cut1_stereo_44KHz.wav
3	127	1	1	1	C	1	1	1452	1	poli_8sides 12_whiteLine3.jpg	MediumShort_e16_cut1_stereo_44KHz.wav
3	128	2	2	1	C	1	1	1105	1	poli_8sides 15_whiteLine3.jpg	MediumShort_b16_cut3_MS_stereo_44KHz.wav
3	129	1	2	0	C	2	1	618	1	poli_8sides 12_whiteLine3.jpg	MediumShort_b16_cut3_MS_stereo_44KHz.wav
3	130	2	2	1	C	1	1	1415	1	poli_8sides 15_whiteLine3.jpg	MediumShort_b16_cut3_MS_stereo_44KHz.wav
3	131	3	3	2	I	2	0	745	1	poli_8sides 1_whiteLine3.jpg	MediumShort_e22_cut1_stereo_44KHz.wav
3	132	4	3	2	I	2	0	1055	1	poli_8sides 6_whiteLine3.jpg	MediumShort_e22_cut1_stereo_44KHz.wav
3	133	3	4	2	I	1	0	743	1	poli_8sides 1_whiteLine3.jpg	MediumShort_b10_cut1_MS_stereo_44KHz.wav
3	134	2	1	0	C	2	1	1449	1	poli_8sides 15_whiteLine3.jpg	MediumShort_e16_cut1_stereo_44KHz.wav
3	135	1	1	1	C	1	1	883	1	poli_8sides 12_whiteLine3.jpg	MediumShort_e16_cut1_stereo_44KHz.wav
3	136	4	4	2	I	2	0	974	1	poli_8sides 6_whiteLine3.jpg	MediumShort_b10_cut1_MS_stereo_44KHz.wav
3	137	1	2	0	C	2	1	1138	1	poli_8sides 12_whiteLine3.jpg	MediumShort_b16_cut3_MS_stereo_44KHz.wav
3	138	3	3	2	I	2	0	1203	0	poli_8sides 1_whiteLine3.jpg	MediumShort_e22_cut1_stereo_44KHz.wav
3	139	4	3	2	I	2	0	587	1	poli_8sides 6_whiteLine3.jpg	MediumShort_e22_cut1_stereo_44KHz.wav
3	140	2	2	1	C	1	1	1204	1	poli_8sides 15_whiteLine3.jpg	MediumShort_b16_cut3_MS_stereo_44KHz.wav
3	141	3	4	2	I	2	0	1011	0	poli_8sides 1_whiteLine3.jpg	MediumShort_b10_cut1_MS_stereo_44KHz.wav
3	142	4	4	2	I	2	0	793	0	poli_8sides 6_whiteLine3.jpg	MediumShort_b10_cut1_MS_stereo_44KHz.wav
3	143	2	1	0	C	2	1	1591	1	poli_8sides 15_whiteLine3.jpg	MediumShort_e16_cut1_stereo_44KHz.wav
3	144	1	1	1	C	1	1	1751	1	poli_8sides 12_whiteLine3.jpg	MediumShort_e16_cut1_stereo_44KHz.wav
3	145	2	1	0	C	2	1	1738	1	poli_8sides 15_whiteLine3.jpg	MediumShort_e16_cut1_stereo_44KHz.wav
3	146	3	3	2	I	2	0	956	1	poli_8sides 1_whiteLine3.jpg	MediumShort_e22_cut1_stereo_44KHz.wav
3	147	4	3	2	I	2	0	615	1	poli_8sides 6_whiteLine3.jpg	MediumShort_e22_cut1_stereo_44KHz.wav
3	148	1	1	1	C	1	1	942	1	poli_8sides 12_whiteLine3.jpg	MediumShort_e16_cut1_stereo_44KHz.wav
3	149	2	2	1	C	1	1	1088	1	poli_8sides 15_whiteLine3.jpg	MediumShort_b16_cut3_MS_stereo_44KHz.wav
3	150	4	4	2	I	2	0	1021	0	poli_8sides 6_whiteLine3.jpg	MediumShort_b10_cut1_MS_stereo_44KHz.wav
3	151	3	4	2	I	2	0	658	1	poli_8sides 1_whiteLine3.jpg	MediumShort_b10_cut1_MS_stereo_44KHz.wav
3	152	1	2	0	C	2	1	893	1	poli_8sides 12_whiteLine3.jpg	MediumShort_b16_cut3_MS_stereo_44KHz.wav
3	153	3	3	2	I	2	0	1458	0	poli_8sides 1_whiteLine3.jpg	MediumShort_e22_cut1_stereo_44KHz.wav
3	154	4	3	2	I	2	0	429	0	poli_8sides 6_whiteLine3.jpg	MediumShort_e22_cut1_stereo_44KHz.wav
3	155	2	1	0	C	2	1	887	1	poli_8sides 15_whiteLine3.jpg	MediumShort_e16_cut1_stereo_44KHz.wav
3	156	1	1	1	C	1	1	1449	1	poli_8sides 12_whiteLine3.jpg	MediumShort_e16_cut1_stereo_44KHz.wav
3	157	3	4	2	I	2	0	968	1	poli_8sides 1_whiteLine3.jpg	MediumShort_b10_cut1_MS_stereo_44KHz.wav
3	158	2	2	1	C	1	1	1218	1	poli_8sides 15_whiteLine3.jpg	MediumShort_b16_cut3_MS_stereo_44KHz.wav
3	159	4	4	2	I	2	0	1222	0	poli_8sides 6_whiteLine3.jpg	MediumShort_b10_cut1_MS_stereo_44KHz.wav
3	160	1	2	0	C	2	1	800	1	poli_8sides 12_whiteLine3.jpg	MediumShort_b16_cut3_MS_stereo_44KHz.wav
3	161	4	3	2	I	2	0	808	0	poli_8sides 6_whiteLine3.jpg	MediumShort_e22_cut1_stereo_44KHz.wav
3	162	3	3	2	I	2	0	714	0	poli_8sides 1_whiteLine3.jpg	MediumShort_e22_cut1_stereo_44KHz.wav
3	163	2	1	0	C	2	1	742	1	poli_8sides 15_whiteLine3.jpg	MediumShort_e16_cut1_stereo_44KHz.wav
3	164	1	2	0	C	2	1	987	1	poli_8sides 12_whiteLine3.jpg	MediumShort_b16_cut3_MS_stereo_44KHz.wav
3	165	4	4	2	I	2	0	1145	0	poli_8sides 6_whiteLine3.jpg	MediumShort_b10_cut1_MS_stereo_44KHz.wav
3	166	1	1	1	C	1	1	1007	1	poli_8sides 12_whiteLine3.jpg	MediumShort_e16_cut1_stereo_44KHz.wav
3	167	3	4	2	I	2	0	1140	1	poli_8sides 1_whiteLine3.jpg	MediumShort_b10_cut1_MS_stereo_44KHz.wav
3	168	2	2	1	C	1	1	1442	1	poli_8sides 15_whiteLine3.jpg	MediumShort_b16_cut3_MS_stereo_44KHz.wav
3	169	3	3	2	I	1	0	772	1	poli_8sides 1_whiteLine3.jpg	MediumShort_e22_cut1_stereo_44KHz.wav
3	170	2	1	0	C	2	1	786	1	poli_8sides 15_whiteLine3.jpg	MediumShort_e16_cut1_stereo_44KHz.wav
3	171	1	1	1	C	2	0	1015	0	poli_8sides 12_whiteLine3.jpg	MediumShort_e16_cut1_stereo_44KHz.wav
3	172	4	4	2	I	2	0	969	1	poli_8sides 6_whiteLine3.jpg	MediumShort_b10_cut1_MS_stereo_44KHz.wav
3	173	1	2	0	C	2	1	956	1	poli_8sides 12_whiteLine3.jpg	MediumShort_b16_cut3_MS_stereo_44KHz.wav
3	174	2	2	1	C	2	0	949	0	poli_8sides 15_whiteLine3.jpg	MediumShort_b16_cut3_MS_stereo_44KHz.wav
3	175	3	4	2	I	2	0	1007	1	poli_8sides 1_whiteLine3.jpg	MediumShort_b10_cut1_MS_stereo_44KHz.wav
3	176	4	3	2	I	2	0	915	0	poli_8sides 6_whiteLine3.jpg	MediumShort_e22_cut1_stereo_44KHz.wav
3	177	2	2	1	C	2	0	630	0	poli_8sides 15_whiteLine3.jpg	MediumShort_b16_cut3_MS_stereo_44KHz.wav
3	178	3	3	2	I	1	0	1545	1	poli_8sides 1_whiteLine3.jpg	MediumShort_e22_cut1_stereo_44KHz.wav
3	179	4	3	2	I	2	0	762	0	poli_8sides 6_whiteLine3.jpg	MediumShort_e22_cut1_stereo_44KHz.wav
3	180	1	1	1	C	1	1	1020	1	poli_8sides 12_whiteLine3.jpg	MediumShort_e16_cut1_stereo_44KHz.wav
3	181	4	4	2	I	1	0	1286	0	poli_8sides 6_whiteLine3.jpg	MediumShort_b10_cut1_MS_stereo_44KHz.wav
3	182	3	4	2	I	2	0	676	1	poli_8sides 1_whiteLine3.jpg	MediumShort_b10_cut1_MS_stereo_44KHz.wav
3	183	1	2	0	C	2	1	786	1	poli_8sides 12_whiteLine3.jpg	MediumShort_b16_cut3_MS_stereo_44KHz.wav
3	184	2	1	0	C	2	1	1488	1	poli_8sides 15_whiteLine3.jpg	MediumShort_e16_cut1_stereo_44KHz.wav
3	185	4	3	2	I	2	0	1090	1	poli_8sides 6_whiteLine3.jpg	MediumShort_e22_cut1_stereo_44KHz.wav
3	186	2	1	0	C	2	1	977	1	poli_8sides 15_whiteLine3.jpg	MediumShort_e16_cut1_stereo_44KHz.wav
3	187	3	3	2	I	1	0	1269	0	poli_8sides 1_whiteLine3.jpg	MediumShort_e22_cut1_stereo_44KHz.wav
3	188	1	1	1	C	1	1	1135	1	poli_8sides 12_whiteLine3.jpg	MediumShort_e16_cut1_stereo_44KHz.wav
3	189	2	2	1	C	1	1	1192	1	poli_8sides 15_whiteLine3.jpg	MediumShort_b16_cut3_MS_stereo_44KHz.wav
3	190	1	2	0	C	2	1	1265	1	poli_8sides 12_whiteLine3.jpg	MediumShort_b16_cut3_MS_stereo_44KHz.wav
3	191	3	4	2	I	2	0	661	1	poli_8sides 1_whiteLine3.jpg	MediumShort_b10_cut1_MS_stereo_44KHz.wav
3	192	4	4	2	I	2	0	783	1	poli_8sides 6_whiteLine3.jpg	MediumShort_b10_cut1_MS_stereo_44KHz.wav
3	193	1	2	0	C	2	1	1221	1	poli_8sides 12_whiteLine3.jpg	MediumShort_b16_cut3_MS_stereo_44KHz.wav
3	194	4	4	2	I	1	0	1382	1	poli_8sides 6_whiteLine3.jpg	MediumShort_b10_cut1_MS_stereo_44KHz.wav
3	195	2	2	1	C	1	1	1412	1	poli_8sides 15_whiteLine3.jpg	MediumShort_b16_cut3_MS_stereo_44KHz.wav
3	196	3	4	2	I	2	0	890	0	poli_8sides 1_whiteLine3.jpg	MediumShort_b10_cut1_MS_stereo_44KHz.wav
3	197	4	3	2	I	2	0	795	0	poli_8sides 6_whiteLine3.jpg	MediumShort_e22_cut1_stereo_44KHz.wav
3	198	2	1	0	C	2	1	1282	1	poli_8sides 15_whiteLine3.jpg	MediumShort_e16_cut1_stereo_44KHz.wav
3	199	3	3	2	I	2	0	875	1	poli_8sides 1_whiteLine3.jpg	MediumShort_e22_cut1_stereo_44KHz.wav
3	200	1	1	1	C	1	1	953	1	poli_8sides 12_whiteLine3.jpg	MediumShort_e16_cut1_stereo_44KHz.wav
4	1	3	4	2	I	1	0	1611	1	poli_8sides 9_whiteLine3.jpg	Medium_e13_stereo_44KHz.wav
4	2	2	1	0	C	1	0	1106	0	poli_8sides 7_whiteLine3.jpg	MediumLong_b10_cut2_L_stereo_44KHz.wav
4	3	4	4	2	I	2	0	1100	1	poli_8sides 4_whiteLine3.jpg	Medium_e13_stereo_44KHz.wav
4	4	1	1	1	C	1	1	880	1	poli_8sides 3_whiteLine3.jpg	MediumLong_b10_cut2_L_stereo_44KHz.wav
4	5	3	3	2	I	2	0	700	1	poli_8sides 9_whiteLine3.jpg	MediumLong_e17_cut2_stereo_44KHz.wav
4	6	1	2	0	C	1	0	723	0	poli_8sides 3_whiteLine3.jpg	MediumLong_e19_stereo_44KHz.wav
4	7	4	3	2	I	1	0	1002	0	poli_8sides 4_whiteLine3.jpg	MediumLong_e17_cut2_stereo_44KHz.wav
4	8	2	2	1	C	2	0	789	0	poli_8sides 7_whiteLine3.jpg	MediumLong_e19_stereo_44KHz.wav
4	9	3	4	2	I	1	0	1352	1	poli_8sides 9_whiteLine3.jpg	Medium_e13_stereo_44KHz.wav
4	10	2	1	0	C	1	0	1096	0	poli_8sides 7_whiteLine3.jpg	MediumLong_b10_cut2_L_stereo_44KHz.wav
4	11	4	3	2	I	2	0	900	1	poli_8sides 4_whiteLine3.jpg	MediumLong_e17_cut2_stereo_44KHz.wav
4	12	1	2	0	C	2	1	1122	1	poli_8sides 3_whiteLine3.jpg	MediumLong_e19_stereo_44KHz.wav
4	13	4	4	2	I	2	0	1713	1	poli_8sides 4_whiteLine3.jpg	Medium_e13_stereo_44KHz.wav
4	14	3	3	2	I	2	0	1242	0	poli_8sides 9_whiteLine3.jpg	MediumLong_e17_cut2_stereo_44KHz.wav
4	15	2	2	1	C	2	0	1483	0	poli_8sides 7_whiteLine3.jpg	MediumLong_e19_stereo_44KHz.wav
4	16	1	1	1	C	2	0	828	0	poli_8sides 3_whiteLine3.jpg	MediumLong_b10_cut2_L_stereo_44KHz.wav
4	17	2	1	0	C	2	1	1292	1	poli_8sides 7_whiteLine3.jpg	MediumLong_b10_cut2_L_stereo_44KHz.wav
4	18	3	3	2	I	2	0	1042	1	poli_8sides 9_whiteLine3.jpg	MediumLong_e17_cut2_stereo_44KHz.wav
4	19	1	1	1	C	1	1	894	1	poli_8sides 3_whiteLine3.jpg	MediumLong_b10_cut2_L_stereo_44KHz.wav
4	20	4	4	2	I	2	0	880	0	poli_8sides 4_whiteLine3.jpg	Medium_e13_stereo_44KHz.wav
4	21	3	4	2	I	2	0	737	1	poli_8sides 9_whiteLine3.jpg	Medium_e13_stereo_44KHz.wav
4	22	4	3	2	I	2	0	824	0	poli_8sides 4_whiteLine3.jpg	MediumLong_e17_cut2_stereo_44KHz.wav
4	23	2	2	1	C	1	1	961	1	poli_8sides 7_whiteLine3.jpg	MediumLong_e19_stereo_44KHz.wav
4	24	1	2	0	C	2	1	1181	1	poli_8sides 3_whiteLine3.jpg	MediumLong_e19_stereo_44KHz.wav
4	25	2	1	0	C	2	1	1180	1	poli_8sides 7_whiteLine3.jpg	MediumLong_b10_cut2_L_stereo_44KHz.wav
4	26	1	2	0	C	2	1	1018	1	poli_8sides 3_whiteLine3.jpg	MediumLong_e19_stereo_44KHz.wav
4	27	4	3	2	I	2	0	926	0	poli_8sides 4_whiteLine3.jpg	MediumLong_e17_cut2_stereo_44KHz.wav
4	28	3	4	2	I	2	0	784	0	poli_8sides 9_whiteLine3.jpg	Medium_e13_stereo_44KHz.wav
4	29	4	4	2	I	2	0	989	1	poli_8sides 4_whiteLine3.jpg	Medium_e13_stereo_44KHz.wav
4	30	2	2	1	C	2	0	1197	0	poli_8sides 7_whiteLine3.jpg	MediumLong_e19_stereo_44KHz.wav
4	31	3	3	2	I	2	0	612	0	poli_8sides 9_whiteLine3.jpg	MediumLong_e17_cut2_stereo_44KHz.wav
4	32	1	1	1	C	1	1	1137	1	poli_8sides 3_whiteLine3.jpg	MediumLong_b10_cut2_L_stereo_44KHz.wav
4	33	3	3	2	I	2	0	739	1	poli_8sides 9_whiteLine3.jpg	MediumLong_e17_cut2_stereo_44KHz.wav
4	34	2	2	1	C	2	0	809	0	poli_8sides 7_whiteLine3.jpg	MediumLong_e19_stereo_44KHz.wav
4	35	1	2	0	C	2	1	797	1	poli_8sides 3_whiteLine3.jpg	MediumLong_e19_stereo_44KHz.wav
4	36	4	3	2	I	1	0	691	0	poli_8sides 4_whiteLine3.jpg	MediumLong_e17_cut2_stereo_44KHz.wav
4	37	2	1	0	C	2	1	863	1	poli_8sides 7_whiteLine3.jpg	MediumLong_b10_cut2_L_stereo_44KHz.wav
4	38	3	4	2	I	2	0	734	1	poli_8sides 9_whiteLine3.jpg	Medium_e13_stereo_44KHz.wav
4	39	1	1	1	C	1	1	969	1	poli_8sides 3_whiteLine3.jpg	MediumLong_b10_cut2_L_stereo_44KHz.wav
4	40	4	4	2	I	1	0	941	1	poli_8sides 4_whiteLine3.jpg	Medium_e13_stereo_44KHz.wav
4	41	2	1	0	C	2	1	834	1	poli_8sides 7_whiteLine3.jpg	MediumLong_b10_cut2_L_stereo_44KHz.wav
4	42	3	4	2	I	2	0	721	0	poli_8sides 9_whiteLine3.jpg	Medium_e13_stereo_44KHz.wav
4	43	1	1	1	C	1	1	891	1	poli_8sides 3_whiteLine3.jpg	MediumLong_b10_cut2_L_stereo_44KHz.wav
4	44	4	3	2	I	2	0	948	0	poli_8sides 4_whiteLine3.jpg	MediumLong_e17_cut2_stereo_44KHz.wav
4	45	1	2	0	C	2	1	967	1	poli_8sides 3_whiteLine3.jpg	MediumLong_e19_stereo_44KHz.wav
4	46	2	2	1	C	1	1	760	1	poli_8sides 7_whiteLine3.jpg	MediumLong_e19_stereo_44KHz.wav
4	47	4	4	2	I	1	0	942	1	poli_8sides 4_whiteLine3.jpg	Medium_e13_stereo_44KHz.wav
4	48	3	3	2	I	2	0	1559	1	poli_8sides 9_whiteLine3.jpg	MediumLong_e17_cut2_stereo_44KHz.wav
4	49	2	1	0	C	2	1	919	1	poli_8sides 7_whiteLine3.jpg	MediumLong_b10_cut2_L_stereo_44KHz.wav
4	50	4	4	2	I	2	0	900	1	poli_8sides 4_whiteLine3.jpg	Medium_e13_stereo_44KHz.wav
4	51	1	2	0	C	1	0	1321	0	poli_8sides 3_whiteLine3.jpg	MediumLong_e19_stereo_44KHz.wav
4	52	3	4	2	I	2	0	923	1	poli_8sides 9_whiteLine3.jpg	Medium_e13_stereo_44KHz.wav
4	53	2	2	1	C	2	0	1955	0	poli_8sides 7_whiteLine3.jpg	MediumLong_e19_stereo_44KHz.wav
4	54	1	1	1	C	1	1	930	1	poli_8sides 3_whiteLine3.jpg	MediumLong_b10_cut2_L_stereo_44KHz.wav
4	55	4	3	2	I	2	0	886	1	poli_8sides 4_whiteLine3.jpg	MediumLong_e17_cut2_stereo_44KHz.wav
4	56	3	3	2	I	1	0	712	1	poli_8sides 9_whiteLine3.jpg	MediumLong_e17_cut2_stereo_44KHz.wav
4	57	1	1	1	C	1	1	775	1	poli_8sides 3_whiteLine3.jpg	MediumLong_b10_cut2_L_stereo_44KHz.wav
4	58	2	1	0	C	2	1	984	1	poli_8sides 7_whiteLine3.jpg	MediumLong_b10_cut2_L_stereo_44KHz.wav
4	59	3	4	2	I	2	0	661	0	poli_8sides 9_whiteLine3.jpg	Medium_e13_stereo_44KHz.wav
4	60	4	3	2	I	2	0	626	0	poli_8sides 4_whiteLine3.jpg	MediumLong_e17_cut2_stereo_44KHz.wav
4	61	2	2	1	C	1	1	736	1	poli_8sides 7_whiteLine3.jpg	MediumLong_e19_stereo_44KHz.wav
4	62	4	4	2	I	2	0	775	0	poli_8sides 4_whiteLine3.jpg	Medium_e13_stereo_44KHz.wav
4	63	1	2	0	C	2	1	831	1	poli_8sides 3_whiteLine3.jpg	MediumLong_e19_stereo_44KHz.wav
4	64	3	3	2	I	1	0	944	0	poli_8sides 9_whiteLine3.jpg	MediumLong_e17_cut2_stereo_44KHz.wav
4	65	4	4	2	I	2	0	509	0	poli_8sides 4_whiteLine3.jpg	Medium_e13_stereo_44KHz.wav
4	66	2	1	0	C	2	1	997	1	poli_8sides 7_whiteLine3.jpg	MediumLong_b10_cut2_L_stereo_44KHz.wav
4	67	1	2	0	C	2	1	676	1	poli_8sides 3_whiteLine3.jpg	MediumLong_e19_stereo_44KHz.wav
4	68	3	3	2	I	1	0	899	1	poli_8sides 9_whiteLine3.jpg	MediumLong_e17_cut2_stereo_44KHz.wav
4	69	1	1	1	C	1	1	961	1	poli_8sides 3_whiteLine3.jpg	MediumLong_b10_cut2_L_stereo_44KHz.wav
4	70	2	2	1	C	1	1	793	1	poli_8sides 7_whiteLine3.jpg	MediumLong_e19_stereo_44KHz.wav
4	71	4	3	2	I	2	0	1052	1	poli_8sides 4_whiteLine3.jpg	MediumLong_e17_cut2_stereo_44KHz.wav
4	72	3	4	2	I	2	0	732	0	poli_8sides 9_whiteLine3.jpg	Medium_e13_stereo_44KHz.wav
4	73	4	4	2	I	1	0	1563	0	poli_8sides 4_whiteLine3.jpg	Medium_e13_stereo_44KHz.wav
4	74	3	4	2	I	1	0	668	0	poli_8sides 9_whiteLine3.jpg	Medium_e13_stereo_44KHz.wav
4	75	2	2	1	C	2	0	853	0	poli_8sides 7_whiteLine3.jpg	MediumLong_e19_stereo_44KHz.wav
4	76	1	2	0	C	2	1	469	1	poli_8sides 3_whiteLine3.jpg	MediumLong_e19_stereo_44KHz.wav
4	77	3	3	2	I	1	0	1119	0	poli_8sides 9_whiteLine3.jpg	MediumLong_e17_cut2_stereo_44KHz.wav
4	78	4	3	2	I	2	0	676	0	poli_8sides 4_whiteLine3.jpg	MediumLong_e17_cut2_stereo_44KHz.wav
4	79	1	1	1	C	1	1	788	1	poli_8sides 3_whiteLine3.jpg	MediumLong_b10_cut2_L_stereo_44KHz.wav
4	80	2	1	0	C	2	1	740	1	poli_8sides 7_whiteLine3.jpg	MediumLong_b10_cut2_L_stereo_44KHz.wav
4	81	1	1	1	C	1	1	1221	1	poli_8sides 3_whiteLine3.jpg	MediumLong_b10_cut2_L_stereo_44KHz.wav
4	82	2	2	1	C	1	1	692	1	poli_8sides 7_whiteLine3.jpg	MediumLong_e19_stereo_44KHz.wav
4	83	4	3	2	I	2	0	784	1	poli_8sides 4_whiteLine3.jpg	MediumLong_e17_cut2_stereo_44KHz.wav
4	84	3	3	2	I	1	0	947	0	poli_8sides 9_whiteLine3.jpg	MediumLong_e17_cut2_stereo_44KHz.wav
4	85	1	2	0	C	2	1	1269	1	poli_8sides 3_whiteLine3.jpg	MediumLong_e19_stereo_44KHz.wav
4	86	3	4	2	I	2	0	779	1	poli_8sides 9_whiteLine3.jpg	Medium_e13_stereo_44KHz.wav
4	87	2	1	0	C	2	1	932	1	poli_8sides 7_whiteLine3.jpg	MediumLong_b10_cut2_L_stereo_44KHz.wav
4	88	4	4	2	I	1	0	1201	1	poli_8sides 4_whiteLine3.jpg	Medium_e13_stereo_44KHz.wav
4	89	1	2	0	C	2	1	955	1	poli_8sides 3_whiteLine3.jpg	MediumLong_e19_stereo_44KHz.wav
4	90	2	2	1	C	1	1	838	1	poli_8sides 7_whiteLine3.jpg	MediumLong_e19_stereo_44KHz.wav
4	91	3	4	2	I	2	0	738	0	poli_8sides 9_whiteLine3.jpg	Medium_e13_stereo_44KHz.wav
4	92	4	3	2	I	2	0	738	1	poli_8sides 4_whiteLine3.jpg	MediumLong_e17_cut2_stereo_44KHz.wav
4	93	3	3	2	I	2	0	603	1	poli_8sides 9_whiteLine3.jpg	MediumLong_e17_cut2_stereo_44KHz.wav
4	94	2	1	0	C	2	1	919	1	poli_8sides 7_whiteLine3.jpg	MediumLong_b10_cut2_L_stereo_44KHz.wav
4	95	4	4	2	I	2	0	777	0	poli_8sides 4_whiteLine3.jpg	Medium_e13_stereo_44KHz.wav
4	96	1	1	1	C	2	0	1405	0	poli_8sides 3_whiteLine3.jpg	MediumLong_b10_cut2_L_stereo_44KHz.wav
4	97	2	1	0	C	2	1	720	1	poli_8sides 7_whiteLine3.jpg	MediumLong_b10_cut2_L_stereo_44KHz.wav
4	98	3	4	2	I	2	0	679	0	poli_8sides 9_whiteLine3.jpg	Medium_e13_stereo_44KHz.wav
4	99	1	2	0	C	2	1	992	1	poli_8sides 3_whiteLine3.jpg	MediumLong_e19_stereo_44KHz.wav
4	100	4	4	2	I	2	0	1313	1	poli_8sides 4_whiteLine3.jpg	Medium_e13_stereo_44KHz.wav
4	101	1	1	1	C	1	1	1671	1	poli_8sides 3_whiteLine3.jpg	MediumLong_b10_cut2_L_stereo_44KHz.wav
4	102	3	3	2	I	2	0	757	0	poli_8sides 9_whiteLine3.jpg	MediumLong_e17_cut2_stereo_44KHz.wav
4	103	2	2	1	C	1	1	1168	1	poli_8sides 7_whiteLine3.jpg	MediumLong_e19_stereo_44KHz.wav
4	104	4	3	2	I	2	0	936	0	poli_8sides 4_whiteLine3.jpg	MediumLong_e17_cut2_stereo_44KHz.wav
4	105	2	1	0	C	1	0	1637	0	poli_8sides 7_whiteLine3.jpg	MediumLong_b10_cut2_L_stereo_44KHz.wav
4	106	3	3	2	I	1	0	1152	0	poli_8sides 9_whiteLine3.jpg	MediumLong_e17_cut2_stereo_44KHz.wav
4	107	1	1	1	C	1	1	1703	1	poli_8sides 3_whiteLine3.jpg	MediumLong_b10_cut2_L_stereo_44KHz.wav
4	108	4	3	2	I	2	0	882	1	poli_8sides 4_whiteLine3.jpg	MediumLong_e17_cut2_stereo_44KHz.wav
4	109	2	2	1	C	0	0	0	0	poli_8sides 7_whiteLine3.jpg	MediumLong_e19_stereo_44KHz.wav
4	110	1	2	0	C	2	1	1044	1	poli_8sides 3_whiteLine3.jpg	MediumLong_e19_stereo_44KHz.wav
4	111	3	4	2	I	2	0	808	1	poli_8sides 9_whiteLine3.jpg	Medium_e13_stereo_44KHz.wav
4	112	4	4	2	I	2	0	1063	1	poli_8sides 4_whiteLine3.jpg	Medium_e13_stereo_44KHz.wav
4	113	3	4	2	I	1	0	1087	0	poli_8sides 9_whiteLine3.jpg	Medium_e13_stereo_44KHz.wav
4	114	1	2	0	C	2	1	1103	1	poli_8sides 3_whiteLine3.jpg	MediumLong_e19_stereo_44KHz.wav
4	115	2	1	0	C	2	1	672	1	poli_8sides 7_whiteLine3.jpg	MediumLong_b10_cut2_L_stereo_44KHz.wav
4	116	4	4	2	I	2	0	733	0	poli_8sides 4_whiteLine3.jpg	Medium_e13_stereo_44KHz.wav
4	117	3	3	2	I	2	0	737	1	poli_8sides 9_whiteLine3.jpg	MediumLong_e17_cut2_stereo_44KHz.wav
4	118	4	3	2	I	2	0	924	1	poli_8sides 4_whiteLine3.jpg	MediumLong_e17_cut2_stereo_44KHz.wav
4	119	1	1	1	C	2	0	841	0	poli_8sides 3_whiteLine3.jpg	MediumLong_b10_cut2_L_stereo_44KHz.wav
4	120	2	2	1	C	1	1	658	1	poli_8sides 7_whiteLine3.jpg	MediumLong_e19_stereo_44KHz.wav
4	121	4	4	2	I	2	0	730	1	poli_8sides 4_whiteLine3.jpg	Medium_e13_stereo_44KHz.wav
4	122	3	3	2	I	2	0	760	0	poli_8sides 9_whiteLine3.jpg	MediumLong_e17_cut2_stereo_44KHz.wav
4	123	1	2	0	C	2	1	1105	1	poli_8sides 3_whiteLine3.jpg	MediumLong_e19_stereo_44KHz.wav
4	124	2	1	0	C	2	1	831	1	poli_8sides 7_whiteLine3.jpg	MediumLong_b10_cut2_L_stereo_44KHz.wav
4	125	3	4	2	I	2	0	697	1	poli_8sides 9_whiteLine3.jpg	Medium_e13_stereo_44KHz.wav
4	126	1	1	1	C	2	0	1510	0	poli_8sides 3_whiteLine3.jpg	MediumLong_b10_cut2_L_stereo_44KHz.wav
4	127	4	3	2	I	2	0	832	1	poli_8sides 4_whiteLine3.jpg	MediumLong_e17_cut2_stereo_44KHz.wav
4	128	2	2	1	C	2	0	941	0	poli_8sides 7_whiteLine3.jpg	MediumLong_e19_stereo_44KHz.wav
4	129	3	3	2	I	2	0	686	0	poli_8sides 9_whiteLine3.jpg	MediumLong_e17_cut2_stereo_44KHz.wav
4	130	1	1	1	C	1	1	1535	1	poli_8sides 3_whiteLine3.jpg	MediumLong_b10_cut2_L_stereo_44KHz.wav
4	131	2	1	0	C	2	1	728	1	poli_8sides 7_whiteLine3.jpg	MediumLong_b10_cut2_L_stereo_44KHz.wav
4	132	4	3	2	I	2	0	1148	1	poli_8sides 4_whiteLine3.jpg	MediumLong_e17_cut2_stereo_44KHz.wav
4	133	3	4	2	I	2	0	702	1	poli_8sides 9_whiteLine3.jpg	Medium_e13_stereo_44KHz.wav
4	134	1	2	0	C	2	1	932	1	poli_8sides 3_whiteLine3.jpg	MediumLong_e19_stereo_44KHz.wav
4	135	4	4	2	I	1	0	990	0	poli_8sides 4_whiteLine3.jpg	Medium_e13_stereo_44KHz.wav
4	136	2	2	1	C	1	1	780	1	poli_8sides 7_whiteLine3.jpg	MediumLong_e19_stereo_44KHz.wav
4	137	3	4	2	I	2	0	1079	0	poli_8sides 9_whiteLine3.jpg	Medium_e13_stereo_44KHz.wav
4	138	4	3	2	I	2	0	834	1	poli_8sides 4_whiteLine3.jpg	MediumLong_e17_cut2_stereo_44KHz.wav
4	139	2	1	0	C	2	1	1506	1	poli_8sides 7_whiteLine3.jpg	MediumLong_b10_cut2_L_stereo_44KHz.wav
4	140	1	2	0	C	2	1	539	1	poli_8sides 3_whiteLine3.jpg	MediumLong_e19_stereo_44KHz.wav
4	141	2	2	1	C	1	1	774	1	poli_8sides 7_whiteLine3.jpg	MediumLong_e19_stereo_44KHz.wav
4	142	4	4	2	I	2	0	796	0	poli_8sides 4_whiteLine3.jpg	Medium_e13_stereo_44KHz.wav
4	143	1	1	1	C	1	1	1102	1	poli_8sides 3_whiteLine3.jpg	MediumLong_b10_cut2_L_stereo_44KHz.wav
4	144	3	3	2	I	2	0	916	1	poli_8sides 9_whiteLine3.jpg	MediumLong_e17_cut2_stereo_44KHz.wav
4	145	1	2	0	C	2	1	1377	1	poli_8sides 3_whiteLine3.jpg	MediumLong_e19_stereo_44KHz.wav
4	146	2	1	0	C	2	1	1549	1	poli_8sides 7_whiteLine3.jpg	MediumLong_b10_cut2_L_stereo_44KHz.wav
4	147	3	3	2	I	2	0	657	1	poli_8sides 9_whiteLine3.jpg	MediumLong_e17_cut2_stereo_44KHz.wav
4	148	4	3	2	I	2	0	885	0	poli_8sides 4_whiteLine3.jpg	MediumLong_e17_cut2_stereo_44KHz.wav
4	149	2	2	1	C	1	1	1579	1	poli_8sides 7_whiteLine3.jpg	MediumLong_e19_stereo_44KHz.wav
4	150	3	4	2	I	2	0	597	0	poli_8sides 9_whiteLine3.jpg	Medium_e13_stereo_44KHz.wav
4	151	4	4	2	I	2	0	534	0	poli_8sides 4_whiteLine3.jpg	Medium_e13_stereo_44KHz.wav
4	152	1	1	1	C	2	0	827	0	poli_8sides 3_whiteLine3.jpg	MediumLong_b10_cut2_L_stereo_44KHz.wav
4	153	4	4	2	I	2	0	899	0	poli_8sides 4_whiteLine3.jpg	Medium_e13_stereo_44KHz.wav
4	154	3	4	2	I	2	0	519	0	poli_8sides 9_whiteLine3.jpg	Medium_e13_stereo_44KHz.wav
4	155	2	1	0	C	2	1	1234	1	poli_8sides 7_whiteLine3.jpg	MediumLong_b10_cut2_L_stereo_44KHz.wav
4	156	1	2	0	C	2	1	387	1	poli_8sides 3_whiteLine3.jpg	MediumLong_e19_stereo_44KHz.wav
4	157	3	3	2	I	2	0	634	0	poli_8sides 9_whiteLine3.jpg	MediumLong_e17_cut2_stereo_44KHz.wav
4	158	4	3	2	I	2	0	746	0	poli_8sides 4_whiteLine3.jpg	MediumLong_e17_cut2_stereo_44KHz.wav
4	159	1	1	1	C	1	1	1530	1	poli_8sides 3_whiteLine3.jpg	MediumLong_b10_cut2_L_stereo_44KHz.wav
4	160	2	2	1	C	1	1	1680	1	poli_8sides 7_whiteLine3.jpg	MediumLong_e19_stereo_44KHz.wav
4	161	3	3	2	I	1	0	1207	1	poli_8sides 9_whiteLine3.jpg	MediumLong_e17_cut2_stereo_44KHz.wav
4	162	4	3	2	I	1	0	478	0	poli_8sides 4_whiteLine3.jpg	MediumLong_e17_cut2_stereo_44KHz.wav
4	163	1	2	0	C	2	1	1266	1	poli_8sides 3_whiteLine3.jpg	MediumLong_e19_stereo_44KHz.wav
4	164	2	2	1	C	1	1	814	1	poli_8sides 7_whiteLine3.jpg	MediumLong_e19_stereo_44KHz.wav
4	165	1	1	1	C	1	1	1489	1	poli_8sides 3_whiteLine3.jpg	MediumLong_b10_cut2_L_stereo_44KHz.wav
4	166	4	4	2	I	2	0	860	1	poli_8sides 4_whiteLine3.jpg	Medium_e13_stereo_44KHz.wav
4	167	3	4	2	I	2	0	1135	0	poli_8sides 9_whiteLine3.jpg	Medium_e13_stereo_44KHz.wav
4	168	2	1	0	C	2	1	1154	1	poli_8sides 7_whiteLine3.jpg	MediumLong_b10_cut2_L_stereo_44KHz.wav
4	169	3	3	2	I	2	0	1554	1	poli_8sides 9_whiteLine3.jpg	MediumLong_e17_cut2_stereo_44KHz.wav
4	170	2	1	0	C	2	1	1337	1	poli_8sides 7_whiteLine3.jpg	MediumLong_b10_cut2_L_stereo_44KHz.wav
4	171	4	4	2	I	2	0	1336	0	poli_8sides 4_whiteLine3.jpg	Medium_e13_stereo_44KHz.wav
4	172	1	2	0	C	2	1	1042	1	poli_8sides 3_whiteLine3.jpg	MediumLong_e19_stereo_44KHz.wav
4	173	4	3	2	I	2	0	1558	1	poli_8sides 4_whiteLine3.jpg	MediumLong_e17_cut2_stereo_44KHz.wav
4	174	1	1	1	C	1	1	1743	1	poli_8sides 3_whiteLine3.jpg	MediumLong_b10_cut2_L_stereo_44KHz.wav
4	175	2	2	1	C	1	1	1037	1	poli_8sides 7_whiteLine3.jpg	MediumLong_e19_stereo_44KHz.wav
4	176	3	4	2	I	2	0	840	1	poli_8sides 9_whiteLine3.jpg	Medium_e13_stereo_44KHz.wav
4	177	1	1	1	C	1	1	1051	1	poli_8sides 3_whiteLine3.jpg	MediumLong_b10_cut2_L_stereo_44KHz.wav
4	178	3	4	2	I	2	0	757	0	poli_8sides 9_whiteLine3.jpg	Medium_e13_stereo_44KHz.wav
4	179	2	2	1	C	2	0	1482	0	poli_8sides 7_whiteLine3.jpg	MediumLong_e19_stereo_44KHz.wav
4	180	4	4	2	I	2	0	1015	0	poli_8sides 4_whiteLine3.jpg	Medium_e13_stereo_44KHz.wav
4	181	2	1	0	C	1	0	887	0	poli_8sides 7_whiteLine3.jpg	MediumLong_b10_cut2_L_stereo_44KHz.wav
4	182	4	3	2	I	2	0	922	1	poli_8sides 4_whiteLine3.jpg	MediumLong_e17_cut2_stereo_44KHz.wav
4	183	3	3	2	I	1	0	799	1	poli_8sides 9_whiteLine3.jpg	MediumLong_e17_cut2_stereo_44KHz.wav
4	184	1	2	0	C	2	1	823	1	poli_8sides 3_whiteLine3.jpg	MediumLong_e19_stereo_44KHz.wav
4	185	3	4	2	I	2	0	842	1	poli_8sides 9_whiteLine3.jpg	Medium_e13_stereo_44KHz.wav
4	186	2	2	1	C	2	0	848	0	poli_8sides 7_whiteLine3.jpg	MediumLong_e19_stereo_44KHz.wav
4	187	4	3	2	I	2	0	1275	1	poli_8sides 4_whiteLine3.jpg	MediumLong_e17_cut2_stereo_44KHz.wav
4	188	1	1	1	C	1	1	1068	1	poli_8sides 3_whiteLine3.jpg	MediumLong_b10_cut2_L_stereo_44KHz.wav
4	189	2	1	0	C	1	0	1236	0	poli_8sides 7_whiteLine3.jpg	MediumLong_b10_cut2_L_stereo_44KHz.wav
4	190	3	3	2	I	2	0	903	1	poli_8sides 9_whiteLine3.jpg	MediumLong_e17_cut2_stereo_44KHz.wav
4	191	1	2	0	C	2	1	1372	1	poli_8sides 3_whiteLine3.jpg	MediumLong_e19_stereo_44KHz.wav
4	192	4	4	2	I	2	0	1847	1	poli_8sides 4_whiteLine3.jpg	Medium_e13_stereo_44KHz.wav
4	193	3	4	2	I	1	0	903	0	poli_8sides 9_whiteLine3.jpg	Medium_e13_stereo_44KHz.wav
4	194	2	1	0	C	2	1	1307	1	poli_8sides 7_whiteLine3.jpg	MediumLong_b10_cut2_L_stereo_44KHz.wav
4	195	4	3	2	I	2	0	1717	0	poli_8sides 4_whiteLine3.jpg	MediumLong_e17_cut2_stereo_44KHz.wav
4	196	1	2	0	C	2	1	1265	1	poli_8sides 3_whiteLine3.jpg	MediumLong_e19_stereo_44KHz.wav
4	197	2	2	1	C	0	0	0	0	poli_8sides 7_whiteLine3.jpg	MediumLong_e19_stereo_44KHz.wav
4	198	3	3	2	I	2	0	1135	0	poli_8sides 9_whiteLine3.jpg	MediumLong_e17_cut2_stereo_44KHz.wav
4	199	1	1	1	C	1	1	1715	1	poli_8sides 3_whiteLine3.jpg	MediumLong_b10_cut2_L_stereo_44KHz.wav
4	200	4	4	2	I	2	0	1344	0	poli_8sides 4_whiteLine3.jpg	Medium_e13_stereo_44KHz.wav
