block	trial	Vstim	Astim	match	C/I	resp	result	RT	fb	V-file	A-file
LR

0	1	1	2	0	C	0	0	0	0	Ⴋ	cut_oo_stereo_44KHz.wav
0	2	2	4	0	C	1	1	858	1	Ⴢ	cut_ee_stereo_44KHz.wav
0	3	1	1	1	C	1	0	898	0	Ⴋ	cut_eeuw_stereo_44KHz.wav
0	4	2	3	1	C	2	1	1270	1	Ⴢ	cut_g_stereo_44KHz.wav
0	5	2	3	1	C	2	1	910	1	Ⴢ	cut_g_stereo_44KHz.wav
0	6	1	2	0	C	1	1	1058	1	Ⴋ	cut_oo_stereo_44KHz.wav
0	7	1	1	1	C	1	0	1515	0	Ⴋ	cut_eeuw_stereo_44KHz.wav
0	8	2	4	0	C	1	1	643	1	Ⴢ	cut_ee_stereo_44KHz.wav
0	9	2	4	0	C	1	1	1084	1	Ⴢ	cut_ee_stereo_44KHz.wav
0	10	2	3	1	C	2	1	1175	1	Ⴢ	cut_g_stereo_44KHz.wav
0	11	1	1	1	C	2	1	1538	1	Ⴋ	cut_eeuw_stereo_44KHz.wav
0	12	1	2	0	C	1	1	1013	1	Ⴋ	cut_oo_stereo_44KHz.wav
0	13	1	2	0	C	1	1	862	1	Ⴋ	cut_oo_stereo_44KHz.wav
0	14	2	4	0	C	1	1	823	1	Ⴢ	cut_ee_stereo_44KHz.wav
0	15	1	1	1	C	2	1	1197	1	Ⴋ	cut_eeuw_stereo_44KHz.wav
0	16	2	3	1	C	2	1	1477	1	Ⴢ	cut_g_stereo_44KHz.wav
0	17	2	4	0	C	1	1	958	1	Ⴢ	cut_ee_stereo_44KHz.wav
0	18	2	3	1	C	2	1	1064	1	Ⴢ	cut_g_stereo_44KHz.wav
0	19	1	2	0	C	1	1	1231	1	Ⴋ	cut_oo_stereo_44KHz.wav
0	20	1	1	1	C	2	1	1286	1	Ⴋ	cut_eeuw_stereo_44KHz.wav
0	21	1	1	1	C	2	1	1070	1	Ⴋ	cut_eeuw_stereo_44KHz.wav
0	22	2	4	0	C	1	1	876	1	Ⴢ	cut_ee_stereo_44KHz.wav
0	23	1	2	0	C	1	1	845	1	Ⴋ	cut_oo_stereo_44KHz.wav
0	24	2	3	1	C	2	1	1203	1	Ⴢ	cut_g_stereo_44KHz.wav
0	25	2	4	0	C	1	1	1129	1	Ⴢ	cut_ee_stereo_44KHz.wav
0	26	2	3	1	C	2	1	1034	1	Ⴢ	cut_g_stereo_44KHz.wav
0	27	1	1	1	C	2	1	1331	1	Ⴋ	cut_eeuw_stereo_44KHz.wav
0	28	1	2	0	C	1	1	1042	1	Ⴋ	cut_oo_stereo_44KHz.wav
0	29	1	2	0	C	1	1	999	1	Ⴋ	cut_oo_stereo_44KHz.wav
0	30	2	3	1	C	2	1	850	1	Ⴢ	cut_g_stereo_44KHz.wav
avg_resp = 1068
1	1	2	2	1	C	1	0	1134	0	Ⴕ	cut_u_stereo_44KHz.wav
1	2	4	4	2	I	1	0	717	0	Ⴒ	cut_a_stereo_44KHz.wav
1	3	3	4	2	I	1	0	523	0	Ⴐ	cut_a_stereo_44KHz.wav
1	4	1	1	1	C	1	0	937	0	Ⴖ	cut_k_stereo_44KHz.wav
1	5	3	3	2	I	1	0	370	1	Ⴐ	cut_o_stereo_44KHz.wav
1	6	1	2	0	C	1	1	873	1	Ⴖ	cut_u_stereo_44KHz.wav
1	7	4	3	2	I	1	0	946	0	Ⴒ	cut_o_stereo_44KHz.wav
1	8	2	1	0	C	1	1	741	1	Ⴕ	cut_k_stereo_44KHz.wav
1	9	1	1	1	C	2	1	631	1	Ⴖ	cut_k_stereo_44KHz.wav
1	10	4	4	2	I	2	0	767	0	Ⴒ	cut_a_stereo_44KHz.wav
1	11	3	4	2	I	2	0	1113	0	Ⴐ	cut_a_stereo_44KHz.wav
1	12	2	1	0	C	1	1	630	1	Ⴕ	cut_k_stereo_44KHz.wav
1	13	1	2	0	C	1	1	966	1	Ⴖ	cut_u_stereo_44KHz.wav
1	14	2	2	1	C	2	1	1168	1	Ⴕ	cut_u_stereo_44KHz.wav
1	15	4	3	2	I	1	0	1460	1	Ⴒ	cut_o_stereo_44KHz.wav
1	16	3	3	2	I	2	0	780	0	Ⴐ	cut_o_stereo_44KHz.wav
1	17	4	3	2	I	1	0	951	1	Ⴒ	cut_o_stereo_44KHz.wav
1	18	2	1	0	C	1	1	806	1	Ⴕ	cut_k_stereo_44KHz.wav
1	19	1	2	0	C	1	1	730	1	Ⴖ	cut_u_stereo_44KHz.wav
1	20	3	4	2	I	1	0	1227	1	Ⴐ	cut_a_stereo_44KHz.wav
1	21	1	1	1	C	2	1	1115	1	Ⴖ	cut_k_stereo_44KHz.wav
1	22	2	2	1	C	2	1	981	1	Ⴕ	cut_u_stereo_44KHz.wav
1	23	4	4	2	I	1	0	1002	1	Ⴒ	cut_a_stereo_44KHz.wav
1	24	3	3	2	I	2	0	1119	0	Ⴐ	cut_o_stereo_44KHz.wav
1	25	1	2	0	C	1	1	876	1	Ⴖ	cut_u_stereo_44KHz.wav
1	26	4	3	2	I	1	0	870	0	Ⴒ	cut_o_stereo_44KHz.wav
1	27	2	2	1	C	2	1	880	1	Ⴕ	cut_u_stereo_44KHz.wav
1	28	3	4	2	I	1	0	823	0	Ⴐ	cut_a_stereo_44KHz.wav
1	29	2	1	0	C	1	1	699	1	Ⴕ	cut_k_stereo_44KHz.wav
1	30	4	4	2	I	1	0	1344	1	Ⴒ	cut_a_stereo_44KHz.wav
1	31	3	3	2	I	1	0	1282	1	Ⴐ	cut_o_stereo_44KHz.wav
1	32	1	1	1	C	2	1	1106	1	Ⴖ	cut_k_stereo_44KHz.wav
1	33	2	1	0	C	1	1	850	1	Ⴕ	cut_k_stereo_44KHz.wav
1	34	1	1	1	C	2	1	978	1	Ⴖ	cut_k_stereo_44KHz.wav
1	35	4	4	2	I	1	0	820	0	Ⴒ	cut_a_stereo_44KHz.wav
1	36	3	3	2	I	1	0	804	0	Ⴐ	cut_o_stereo_44KHz.wav
1	37	4	3	2	I	1	0	793	0	Ⴒ	cut_o_stereo_44KHz.wav
1	38	1	2	0	C	1	1	1125	1	Ⴖ	cut_u_stereo_44KHz.wav
1	39	2	2	1	C	2	1	1006	1	Ⴕ	cut_u_stereo_44KHz.wav
1	40	3	4	2	I	1	0	1009	1	Ⴐ	cut_a_stereo_44KHz.wav
1	41	1	2	0	C	1	1	1050	1	Ⴖ	cut_u_stereo_44KHz.wav
1	42	3	3	2	I	2	0	1686	0	Ⴐ	cut_o_stereo_44KHz.wav
1	43	4	4	2	I	1	0	1427	1	Ⴒ	cut_a_stereo_44KHz.wav
1	44	2	1	0	C	1	1	800	1	Ⴕ	cut_k_stereo_44KHz.wav
1	45	3	4	2	I	1	0	1053	1	Ⴐ	cut_a_stereo_44KHz.wav
1	46	4	3	2	I	1	0	1132	0	Ⴒ	cut_o_stereo_44KHz.wav
1	47	1	1	1	C	2	1	978	1	Ⴖ	cut_k_stereo_44KHz.wav
1	48	2	2	1	C	2	1	1138	1	Ⴕ	cut_u_stereo_44KHz.wav
1	49	1	1	1	C	2	1	947	1	Ⴖ	cut_k_stereo_44KHz.wav
1	50	4	4	2	I	1	0	1265	1	Ⴒ	cut_a_stereo_44KHz.wav
1	51	3	4	2	I	2	0	1462	0	Ⴐ	cut_a_stereo_44KHz.wav
1	52	2	1	0	C	1	1	710	1	Ⴕ	cut_k_stereo_44KHz.wav
1	53	4	3	2	I	2	0	1536	0	Ⴒ	cut_o_stereo_44KHz.wav
1	54	3	3	2	I	1	0	1019	0	Ⴐ	cut_o_stereo_44KHz.wav
1	55	1	2	0	C	1	1	1243	1	Ⴖ	cut_u_stereo_44KHz.wav
1	56	2	2	1	C	2	1	944	1	Ⴕ	cut_u_stereo_44KHz.wav
1	57	3	4	2	I	1	0	1273	0	Ⴐ	cut_a_stereo_44KHz.wav
1	58	1	1	1	C	2	1	1031	1	Ⴖ	cut_k_stereo_44KHz.wav
1	59	4	4	2	I	1	0	1659	1	Ⴒ	cut_a_stereo_44KHz.wav
1	60	2	2	1	C	2	1	887	1	Ⴕ	cut_u_stereo_44KHz.wav
1	61	3	3	2	I	2	0	1640	1	Ⴐ	cut_o_stereo_44KHz.wav
1	62	1	2	0	C	1	1	887	1	Ⴖ	cut_u_stereo_44KHz.wav
1	63	2	1	0	C	1	1	826	1	Ⴕ	cut_k_stereo_44KHz.wav
1	64	4	3	2	I	1	0	1786	1	Ⴒ	cut_o_stereo_44KHz.wav
1	65	2	2	1	C	2	1	989	1	Ⴕ	cut_u_stereo_44KHz.wav
1	66	4	4	2	I	0	0	0	0	Ⴒ	cut_a_stereo_44KHz.wav
1	67	1	2	0	C	1	1	740	1	Ⴖ	cut_u_stereo_44KHz.wav
1	68	3	3	2	I	2	0	1591	1	Ⴐ	cut_o_stereo_44KHz.wav
1	69	4	3	2	I	1	0	936	0	Ⴒ	cut_o_stereo_44KHz.wav
1	70	3	4	2	I	1	0	1051	1	Ⴐ	cut_a_stereo_44KHz.wav
1	71	2	1	0	C	1	1	743	1	Ⴕ	cut_k_stereo_44KHz.wav
1	72	1	1	1	C	2	1	806	1	Ⴖ	cut_k_stereo_44KHz.wav
1	73	4	4	2	I	2	0	1575	0	Ⴒ	cut_a_stereo_44KHz.wav
1	74	2	1	0	C	1	1	614	1	Ⴕ	cut_k_stereo_44KHz.wav
1	75	3	4	2	I	1	0	889	0	Ⴐ	cut_a_stereo_44KHz.wav
1	76	1	2	0	C	1	1	749	1	Ⴖ	cut_u_stereo_44KHz.wav
1	77	4	3	2	I	2	0	1840	0	Ⴒ	cut_o_stereo_44KHz.wav
1	78	3	3	2	I	1	0	1009	0	Ⴐ	cut_o_stereo_44KHz.wav
1	79	2	2	1	C	2	1	852	1	Ⴕ	cut_u_stereo_44KHz.wav
1	80	1	1	1	C	2	1	1437	1	Ⴖ	cut_k_stereo_44KHz.wav
1	81	4	4	2	I	1	0	815	1	Ⴒ	cut_a_stereo_44KHz.wav
1	82	3	3	2	I	2	0	814	1	Ⴐ	cut_o_stereo_44KHz.wav
1	83	2	1	0	C	1	1	673	1	Ⴕ	cut_k_stereo_44KHz.wav
1	84	1	1	1	C	2	1	750	1	Ⴖ	cut_k_stereo_44KHz.wav
1	85	4	3	2	I	1	0	1392	0	Ⴒ	cut_o_stereo_44KHz.wav
1	86	1	2	0	C	1	1	809	1	Ⴖ	cut_u_stereo_44KHz.wav
1	87	3	4	2	I	1	0	1649	0	Ⴐ	cut_a_stereo_44KHz.wav
1	88	2	2	1	C	2	1	872	1	Ⴕ	cut_u_stereo_44KHz.wav
1	89	3	3	2	I	2	0	1365	1	Ⴐ	cut_o_stereo_44KHz.wav
1	90	4	4	2	I	2	0	1134	0	Ⴒ	cut_a_stereo_44KHz.wav
1	91	1	1	1	C	2	1	862	1	Ⴖ	cut_k_stereo_44KHz.wav
1	92	2	2	1	C	2	1	910	1	Ⴕ	cut_u_stereo_44KHz.wav
1	93	4	3	2	I	2	0	920	0	Ⴒ	cut_o_stereo_44KHz.wav
1	94	1	2	0	C	1	1	842	1	Ⴖ	cut_u_stereo_44KHz.wav
1	95	3	4	2	I	1	0	1219	1	Ⴐ	cut_a_stereo_44KHz.wav
1	96	2	1	0	C	1	1	695	1	Ⴕ	cut_k_stereo_44KHz.wav
1	97	4	4	2	I	1	0	724	1	Ⴒ	cut_a_stereo_44KHz.wav
1	98	1	2	0	C	1	1	693	1	Ⴖ	cut_u_stereo_44KHz.wav
1	99	3	3	2	I	1	0	920	0	Ⴐ	cut_o_stereo_44KHz.wav
1	100	2	1	0	C	1	1	633	1	Ⴕ	cut_k_stereo_44KHz.wav
1	101	4	3	2	I	1	0	1565	1	Ⴒ	cut_o_stereo_44KHz.wav
1	102	2	2	1	C	2	1	756	1	Ⴕ	cut_u_stereo_44KHz.wav
1	103	3	4	2	I	1	0	841	0	Ⴐ	cut_a_stereo_44KHz.wav
1	104	1	1	1	C	2	1	761	1	Ⴖ	cut_k_stereo_44KHz.wav
1	105	4	4	2	I	1	0	1245	1	Ⴒ	cut_a_stereo_44KHz.wav
1	106	3	4	2	I	2	0	896	0	Ⴐ	cut_a_stereo_44KHz.wav
1	107	1	1	1	C	2	1	878	1	Ⴖ	cut_k_stereo_44KHz.wav
1	108	2	2	1	C	2	1	907	1	Ⴕ	cut_u_stereo_44KHz.wav
1	109	4	3	2	I	2	0	1586	0	Ⴒ	cut_o_stereo_44KHz.wav
1	110	3	3	2	I	1	0	1599	1	Ⴐ	cut_o_stereo_44KHz.wav
1	111	2	1	0	C	1	1	805	1	Ⴕ	cut_k_stereo_44KHz.wav
1	112	1	2	0	C	1	1	683	1	Ⴖ	cut_u_stereo_44KHz.wav
1	113	4	3	2	I	1	0	1596	1	Ⴒ	cut_o_stereo_44KHz.wav
1	114	1	1	1	C	2	1	917	1	Ⴖ	cut_k_stereo_44KHz.wav
1	115	2	2	1	C	2	1	1015	1	Ⴕ	cut_u_stereo_44KHz.wav
1	116	3	3	2	I	1	0	1908	1	Ⴐ	cut_o_stereo_44KHz.wav
1	117	1	2	0	C	1	1	1047	1	Ⴖ	cut_u_stereo_44KHz.wav
1	118	2	1	0	C	1	1	845	1	Ⴕ	cut_k_stereo_44KHz.wav
1	119	3	4	2	I	2	0	945	1	Ⴐ	cut_a_stereo_44KHz.wav
1	120	4	4	2	I	1	0	841	0	Ⴒ	cut_a_stereo_44KHz.wav
1	121	2	1	0	C	1	1	811	1	Ⴕ	cut_k_stereo_44KHz.wav
1	122	1	2	0	C	1	1	692	1	Ⴖ	cut_u_stereo_44KHz.wav
1	123	3	4	2	I	2	0	1570	1	Ⴐ	cut_a_stereo_44KHz.wav
1	124	4	3	2	I	1	0	1263	1	Ⴒ	cut_o_stereo_44KHz.wav
1	125	3	3	2	I	1	0	590	1	Ⴐ	cut_o_stereo_44KHz.wav
1	126	4	4	2	I	2	0	1070	1	Ⴒ	cut_a_stereo_44KHz.wav
1	127	2	2	1	C	2	1	942	1	Ⴕ	cut_u_stereo_44KHz.wav
1	128	1	1	1	C	2	1	849	1	Ⴖ	cut_k_stereo_44KHz.wav
1	129	3	3	2	I	1	0	1116	0	Ⴐ	cut_o_stereo_44KHz.wav
1	130	2	2	1	C	2	1	982	1	Ⴕ	cut_u_stereo_44KHz.wav
1	131	4	3	2	I	1	0	1443	1	Ⴒ	cut_o_stereo_44KHz.wav
1	132	1	1	1	C	2	1	957	1	Ⴖ	cut_k_stereo_44KHz.wav
1	133	4	4	2	I	2	0	892	1	Ⴒ	cut_a_stereo_44KHz.wav
1	134	3	4	2	I	2	0	1221	0	Ⴐ	cut_a_stereo_44KHz.wav
1	135	1	2	0	C	1	1	1321	1	Ⴖ	cut_u_stereo_44KHz.wav
1	136	2	1	0	C	1	1	750	1	Ⴕ	cut_k_stereo_44KHz.wav
1	137	3	3	2	I	1	0	973	0	Ⴐ	cut_o_stereo_44KHz.wav
1	138	1	1	1	C	2	1	909	1	Ⴖ	cut_k_stereo_44KHz.wav
1	139	4	3	2	I	2	0	1179	1	Ⴒ	cut_o_stereo_44KHz.wav
1	140	2	2	1	C	2	1	890	1	Ⴕ	cut_u_stereo_44KHz.wav
1	141	1	2	0	C	1	1	695	1	Ⴖ	cut_u_stereo_44KHz.wav
1	142	4	4	2	I	2	0	1307	0	Ⴒ	cut_a_stereo_44KHz.wav
1	143	2	1	0	C	1	1	1176	1	Ⴕ	cut_k_stereo_44KHz.wav
1	144	3	4	2	I	1	0	1626	1	Ⴐ	cut_a_stereo_44KHz.wav
1	145	1	1	1	C	2	1	868	1	Ⴖ	cut_k_stereo_44KHz.wav
1	146	4	4	2	I	2	0	1093	0	Ⴒ	cut_a_stereo_44KHz.wav
1	147	2	1	0	C	1	1	617	1	Ⴕ	cut_k_stereo_44KHz.wav
1	148	3	4	2	I	1	0	990	1	Ⴐ	cut_a_stereo_44KHz.wav
1	149	4	3	2	I	0	0	0	0	Ⴒ	cut_o_stereo_44KHz.wav
1	150	3	3	2	I	1	0	558	0	Ⴐ	cut_o_stereo_44KHz.wav
1	151	2	2	1	C	2	1	844	1	Ⴕ	cut_u_stereo_44KHz.wav
1	152	1	2	0	C	1	1	685	1	Ⴖ	cut_u_stereo_44KHz.wav
1	153	3	4	2	I	1	0	1264	1	Ⴐ	cut_a_stereo_44KHz.wav
1	154	4	3	2	I	1	0	827	0	Ⴒ	cut_o_stereo_44KHz.wav
1	155	2	2	1	C	2	1	829	1	Ⴕ	cut_u_stereo_44KHz.wav
1	156	1	2	0	C	1	1	950	1	Ⴖ	cut_u_stereo_44KHz.wav
1	157	3	3	2	I	2	0	1163	1	Ⴐ	cut_o_stereo_44KHz.wav
1	158	4	4	2	I	2	0	1091	1	Ⴒ	cut_a_stereo_44KHz.wav
1	159	1	1	1	C	2	1	886	1	Ⴖ	cut_k_stereo_44KHz.wav
1	160	2	1	0	C	1	1	601	1	Ⴕ	cut_k_stereo_44KHz.wav
1	161	1	2	0	C	1	1	696	1	Ⴖ	cut_u_stereo_44KHz.wav
1	162	4	4	2	I	2	0	1018	0	Ⴒ	cut_a_stereo_44KHz.wav
1	163	3	3	2	I	2	0	1305	0	Ⴐ	cut_o_stereo_44KHz.wav
1	164	2	2	1	C	2	1	1045	1	Ⴕ	cut_u_stereo_44KHz.wav
1	165	4	3	2	I	1	0	1375	0	Ⴒ	cut_o_stereo_44KHz.wav
1	166	2	1	0	C	1	1	619	1	Ⴕ	cut_k_stereo_44KHz.wav
1	167	1	1	1	C	1	0	648	0	Ⴖ	cut_k_stereo_44KHz.wav
1	168	3	4	2	I	1	0	833	1	Ⴐ	cut_a_stereo_44KHz.wav
1	169	1	2	0	C	1	1	765	1	Ⴖ	cut_u_stereo_44KHz.wav
1	170	2	1	0	C	1	1	654	1	Ⴕ	cut_k_stereo_44KHz.wav
1	171	3	4	2	I	1	0	661	0	Ⴐ	cut_a_stereo_44KHz.wav
1	172	4	3	2	I	1	0	1251	1	Ⴒ	cut_o_stereo_44KHz.wav
1	173	2	2	1	C	2	1	746	1	Ⴕ	cut_u_stereo_44KHz.wav
1	174	1	1	1	C	2	1	867	1	Ⴖ	cut_k_stereo_44KHz.wav
1	175	3	3	2	I	1	0	828	1	Ⴐ	cut_o_stereo_44KHz.wav
1	176	4	4	2	I	1	0	868	0	Ⴒ	cut_a_stereo_44KHz.wav
1	177	3	3	2	I	1	0	917	0	Ⴐ	cut_o_stereo_44KHz.wav
1	178	2	1	0	C	1	1	639	1	Ⴕ	cut_k_stereo_44KHz.wav
1	179	4	3	2	I	1	0	711	1	Ⴒ	cut_o_stereo_44KHz.wav
1	180	1	2	0	C	1	1	800	1	Ⴖ	cut_u_stereo_44KHz.wav
1	181	2	2	1	C	2	1	704	1	Ⴕ	cut_u_stereo_44KHz.wav
1	182	3	4	2	I	1	0	887	1	Ⴐ	cut_a_stereo_44KHz.wav
1	183	1	1	1	C	2	1	623	1	Ⴖ	cut_k_stereo_44KHz.wav
1	184	4	4	2	I	1	0	863	1	Ⴒ	cut_a_stereo_44KHz.wav
1	185	2	1	0	C	1	1	717	1	Ⴕ	cut_k_stereo_44KHz.wav
1	186	1	1	1	C	2	1	569	1	Ⴖ	cut_k_stereo_44KHz.wav
1	187	4	3	2	I	2	0	668	1	Ⴒ	cut_o_stereo_44KHz.wav
1	188	3	4	2	I	1	0	672	1	Ⴐ	cut_a_stereo_44KHz.wav
1	189	2	2	1	C	2	1	823	1	Ⴕ	cut_u_stereo_44KHz.wav
1	190	4	4	2	I	1	0	840	1	Ⴒ	cut_a_stereo_44KHz.wav
1	191	1	2	0	C	1	1	1265	1	Ⴖ	cut_u_stereo_44KHz.wav
1	192	3	3	2	I	1	0	993	0	Ⴐ	cut_o_stereo_44KHz.wav
1	193	1	1	1	C	2	1	746	1	Ⴖ	cut_k_stereo_44KHz.wav
1	194	3	4	2	I	1	0	693	0	Ⴐ	cut_a_stereo_44KHz.wav
1	195	2	2	1	C	2	1	797	1	Ⴕ	cut_u_stereo_44KHz.wav
1	196	4	3	2	I	1	0	1028	0	Ⴒ	cut_o_stereo_44KHz.wav
1	197	2	1	0	C	1	1	768	1	Ⴕ	cut_k_stereo_44KHz.wav
1	198	1	2	0	C	1	1	744	1	Ⴖ	cut_u_stereo_44KHz.wav
1	199	4	4	2	I	1	0	858	1	Ⴒ	cut_a_stereo_44KHz.wav
1	200	3	3	2	I	1	0	1000	1	Ⴐ	cut_o_stereo_44KHz.wav
2	1	1	1	1	C	0	0	0	0	Ⴟ	cut_s_stereo_44KHz.wav
2	2	4	3	2	I	2	0	546	1	Ⴜ	cut_f_stereo_44KHz.wav
2	3	3	3	2	I	2	0	410	1	Ⴊ	cut_f_stereo_44KHz.wav
2	4	2	1	0	C	2	0	266	0	Ⴃ	cut_s_stereo_44KHz.wav
2	5	4	4	2	I	2	0	879	1	Ⴜ	cut_oei_stereo_44KHz.wav
2	6	3	4	2	I	2	0	574	1	Ⴊ	cut_oei_stereo_44KHz.wav
2	7	1	2	0	C	2	0	455	0	Ⴟ	cut_r_stereo_44KHz.wav
2	8	2	2	1	C	2	1	873	1	Ⴃ	cut_r_stereo_44KHz.wav
2	9	4	3	2	I	2	0	939	0	Ⴜ	cut_f_stereo_44KHz.wav
2	10	2	1	0	C	1	1	956	1	Ⴃ	cut_s_stereo_44KHz.wav
2	11	3	4	2	I	2	0	866	1	Ⴊ	cut_oei_stereo_44KHz.wav
2	12	1	1	1	C	2	1	764	1	Ⴟ	cut_s_stereo_44KHz.wav
2	13	2	2	1	C	1	0	953	0	Ⴃ	cut_r_stereo_44KHz.wav
2	14	3	3	2	I	2	0	874	0	Ⴊ	cut_f_stereo_44KHz.wav
2	15	4	4	2	I	1	0	768	1	Ⴜ	cut_oei_stereo_44KHz.wav
2	16	1	2	0	C	2	0	788	0	Ⴟ	cut_r_stereo_44KHz.wav
2	17	2	1	0	C	1	1	792	1	Ⴃ	cut_s_stereo_44KHz.wav
2	18	1	1	1	C	1	0	835	0	Ⴟ	cut_s_stereo_44KHz.wav
2	19	3	4	2	I	2	0	1020	1	Ⴊ	cut_oei_stereo_44KHz.wav
2	20	4	4	2	I	1	0	781	1	Ⴜ	cut_oei_stereo_44KHz.wav
2	21	1	2	0	C	1	1	1261	1	Ⴟ	cut_r_stereo_44KHz.wav
2	22	3	3	2	I	2	0	926	0	Ⴊ	cut_f_stereo_44KHz.wav
2	23	4	3	2	I	2	0	766	1	Ⴜ	cut_f_stereo_44KHz.wav
2	24	2	2	1	C	2	1	924	1	Ⴃ	cut_r_stereo_44KHz.wav
2	25	4	4	2	I	1	0	1014	1	Ⴜ	cut_oei_stereo_44KHz.wav
2	26	3	4	2	I	2	0	878	0	Ⴊ	cut_oei_stereo_44KHz.wav
2	27	2	2	1	C	2	1	930	1	Ⴃ	cut_r_stereo_44KHz.wav
2	28	1	1	1	C	2	1	1142	1	Ⴟ	cut_s_stereo_44KHz.wav
2	29	3	3	2	I	1	0	1037	1	Ⴊ	cut_f_stereo_44KHz.wav
2	30	1	2	0	C	1	1	686	1	Ⴟ	cut_r_stereo_44KHz.wav
2	31	4	3	2	I	2	0	811	0	Ⴜ	cut_f_stereo_44KHz.wav
2	32	2	1	0	C	1	1	1267	1	Ⴃ	cut_s_stereo_44KHz.wav
2	33	4	3	2	I	2	0	1008	1	Ⴜ	cut_f_stereo_44KHz.wav
2	34	2	2	1	C	2	1	913	1	Ⴃ	cut_r_stereo_44KHz.wav
2	35	3	4	2	I	1	0	805	0	Ⴊ	cut_oei_stereo_44KHz.wav
2	36	1	2	0	C	1	1	846	1	Ⴟ	cut_r_stereo_44KHz.wav
2	37	4	4	2	I	1	0	750	0	Ⴜ	cut_oei_stereo_44KHz.wav
2	38	1	1	1	C	2	1	1035	1	Ⴟ	cut_s_stereo_44KHz.wav
2	39	3	3	2	I	1	0	989	0	Ⴊ	cut_f_stereo_44KHz.wav
2	40	2	1	0	C	1	1	993	1	Ⴃ	cut_s_stereo_44KHz.wav
2	41	3	3	2	I	1	0	1365	1	Ⴊ	cut_f_stereo_44KHz.wav
2	42	1	2	0	C	1	1	767	1	Ⴟ	cut_r_stereo_44KHz.wav
2	43	2	1	0	C	1	1	1138	1	Ⴃ	cut_s_stereo_44KHz.wav
2	44	4	4	2	I	1	0	839	1	Ⴜ	cut_oei_stereo_44KHz.wav
2	45	1	1	1	C	2	1	1144	1	Ⴟ	cut_s_stereo_44KHz.wav
2	46	3	4	2	I	1	0	768	0	Ⴊ	cut_oei_stereo_44KHz.wav
2	47	2	2	1	C	2	1	959	1	Ⴃ	cut_r_stereo_44KHz.wav
2	48	4	3	2	I	2	0	1377	1	Ⴜ	cut_f_stereo_44KHz.wav
2	49	3	3	2	I	1	0	1111	0	Ⴊ	cut_f_stereo_44KHz.wav
2	50	4	3	2	I	2	0	864	0	Ⴜ	cut_f_stereo_44KHz.wav
2	51	2	2	1	C	2	1	808	1	Ⴃ	cut_r_stereo_44KHz.wav
2	52	1	2	0	C	1	1	784	1	Ⴟ	cut_r_stereo_44KHz.wav
2	53	2	1	0	C	2	0	1434	0	Ⴃ	cut_s_stereo_44KHz.wav
2	54	4	4	2	I	2	0	714	0	Ⴜ	cut_oei_stereo_44KHz.wav
2	55	1	1	1	C	2	1	869	1	Ⴟ	cut_s_stereo_44KHz.wav
2	56	3	4	2	I	2	0	1083	1	Ⴊ	cut_oei_stereo_44KHz.wav
2	57	1	2	0	C	1	1	785	1	Ⴟ	cut_r_stereo_44KHz.wav
2	58	4	4	2	I	1	0	909	1	Ⴜ	cut_oei_stereo_44KHz.wav
2	59	2	2	1	C	2	1	863	1	Ⴃ	cut_r_stereo_44KHz.wav
2	60	3	3	2	I	1	0	776	1	Ⴊ	cut_f_stereo_44KHz.wav
2	61	2	1	0	C	1	1	890	1	Ⴃ	cut_s_stereo_44KHz.wav
2	62	3	4	2	I	2	0	1138	0	Ⴊ	cut_oei_stereo_44KHz.wav
2	63	4	3	2	I	2	0	1352	0	Ⴜ	cut_f_stereo_44KHz.wav
2	64	1	1	1	C	0	0	0	0	Ⴟ	cut_s_stereo_44KHz.wav
2	65	2	1	0	C	1	1	1002	1	Ⴃ	cut_s_stereo_44KHz.wav
2	66	1	1	1	C	2	1	680	1	Ⴟ	cut_s_stereo_44KHz.wav
2	67	4	4	2	I	1	0	805	0	Ⴜ	cut_oei_stereo_44KHz.wav
2	68	3	3	2	I	1	0	946	1	Ⴊ	cut_f_stereo_44KHz.wav
2	69	2	2	1	C	1	0	1276	0	Ⴃ	cut_r_stereo_44KHz.wav
2	70	3	4	2	I	2	0	1122	0	Ⴊ	cut_oei_stereo_44KHz.wav
2	71	4	3	2	I	2	0	886	1	Ⴜ	cut_f_stereo_44KHz.wav
2	72	1	2	0	C	1	1	767	1	Ⴟ	cut_r_stereo_44KHz.wav
2	73	4	3	2	I	2	0	848	0	Ⴜ	cut_f_stereo_44KHz.wav
2	74	2	2	1	C	2	1	886	1	Ⴃ	cut_r_stereo_44KHz.wav
2	75	1	2	0	C	1	1	654	1	Ⴟ	cut_r_stereo_44KHz.wav
2	76	3	4	2	I	2	0	996	1	Ⴊ	cut_oei_stereo_44KHz.wav
2	77	2	1	0	C	1	1	1110	1	Ⴃ	cut_s_stereo_44KHz.wav
2	78	4	4	2	I	1	0	943	1	Ⴜ	cut_oei_stereo_44KHz.wav
2	79	1	1	1	C	2	1	927	1	Ⴟ	cut_s_stereo_44KHz.wav
2	80	3	3	2	I	1	0	680	1	Ⴊ	cut_f_stereo_44KHz.wav
2	81	1	1	1	C	2	1	804	1	Ⴟ	cut_s_stereo_44KHz.wav
2	82	4	4	2	I	1	0	727	0	Ⴜ	cut_oei_stereo_44KHz.wav
2	83	3	4	2	I	1	0	929	1	Ⴊ	cut_oei_stereo_44KHz.wav
2	84	2	2	1	C	2	1	827	1	Ⴃ	cut_r_stereo_44KHz.wav
2	85	4	3	2	I	2	0	943	0	Ⴜ	cut_f_stereo_44KHz.wav
2	86	3	3	2	I	1	0	915	0	Ⴊ	cut_f_stereo_44KHz.wav
2	87	2	1	0	C	1	1	1013	1	Ⴃ	cut_s_stereo_44KHz.wav
2	88	1	2	0	C	1	1	823	1	Ⴟ	cut_r_stereo_44KHz.wav
2	89	4	4	2	I	1	0	957	1	Ⴜ	cut_oei_stereo_44KHz.wav
2	90	1	2	0	C	1	1	749	1	Ⴟ	cut_r_stereo_44KHz.wav
2	91	2	1	0	C	1	1	930	1	Ⴃ	cut_s_stereo_44KHz.wav
2	92	3	4	2	I	1	0	793	0	Ⴊ	cut_oei_stereo_44KHz.wav
2	93	1	1	1	C	2	1	972	1	Ⴟ	cut_s_stereo_44KHz.wav
2	94	2	2	1	C	2	1	921	1	Ⴃ	cut_r_stereo_44KHz.wav
2	95	4	3	2	I	1	0	951	0	Ⴜ	cut_f_stereo_44KHz.wav
2	96	3	3	2	I	1	0	882	1	Ⴊ	cut_f_stereo_44KHz.wav
2	97	4	4	2	I	1	0	773	0	Ⴜ	cut_oei_stereo_44KHz.wav
2	98	3	3	2	I	1	0	1226	1	Ⴊ	cut_f_stereo_44KHz.wav
2	99	1	2	0	C	1	1	734	1	Ⴟ	cut_r_stereo_44KHz.wav
2	100	2	2	1	C	2	1	1249	1	Ⴃ	cut_r_stereo_44KHz.wav
2	101	3	4	2	I	2	0	1183	1	Ⴊ	cut_oei_stereo_44KHz.wav
2	102	2	1	0	C	1	1	937	1	Ⴃ	cut_s_stereo_44KHz.wav
2	103	4	3	2	I	1	0	953	0	Ⴜ	cut_f_stereo_44KHz.wav
2	104	1	1	1	C	2	1	1059	1	Ⴟ	cut_s_stereo_44KHz.wav
2	105	3	4	2	I	1	0	743	1	Ⴊ	cut_oei_stereo_44KHz.wav
2	106	2	2	1	C	2	1	804	1	Ⴃ	cut_r_stereo_44KHz.wav
2	107	1	1	1	C	2	1	764	1	Ⴟ	cut_s_stereo_44KHz.wav
2	108	4	4	2	I	1	0	866	1	Ⴜ	cut_oei_stereo_44KHz.wav
2	109	3	3	2	I	1	0	855	1	Ⴊ	cut_f_stereo_44KHz.wav
2	110	1	2	0	C	1	1	769	1	Ⴟ	cut_r_stereo_44KHz.wav
2	111	4	3	2	I	1	0	957	0	Ⴜ	cut_f_stereo_44KHz.wav
2	112	2	1	0	C	1	1	1007	1	Ⴃ	cut_s_stereo_44KHz.wav
2	113	4	4	2	I	1	0	778	1	Ⴜ	cut_oei_stereo_44KHz.wav
2	114	3	4	2	I	1	0	719	1	Ⴊ	cut_oei_stereo_44KHz.wav
2	115	1	2	0	C	1	1	623	1	Ⴟ	cut_r_stereo_44KHz.wav
2	116	2	1	0	C	1	1	742	1	Ⴃ	cut_s_stereo_44KHz.wav
2	117	1	1	1	C	2	1	816	1	Ⴟ	cut_s_stereo_44KHz.wav
2	118	2	2	1	C	2	1	1236	1	Ⴃ	cut_r_stereo_44KHz.wav
2	119	3	3	2	I	1	0	991	0	Ⴊ	cut_f_stereo_44KHz.wav
2	120	4	3	2	I	1	0	653	1	Ⴜ	cut_f_stereo_44KHz.wav
2	121	1	2	0	C	1	1	632	1	Ⴟ	cut_r_stereo_44KHz.wav
2	122	4	3	2	I	1	0	804	1	Ⴜ	cut_f_stereo_44KHz.wav
2	123	2	2	1	C	2	1	960	1	Ⴃ	cut_r_stereo_44KHz.wav
2	124	3	4	2	I	2	0	1014	0	Ⴊ	cut_oei_stereo_44KHz.wav
2	125	2	1	0	C	1	1	1223	1	Ⴃ	cut_s_stereo_44KHz.wav
2	126	4	4	2	I	1	0	744	0	Ⴜ	cut_oei_stereo_44KHz.wav
2	127	1	1	1	C	2	1	735	1	Ⴟ	cut_s_stereo_44KHz.wav
2	128	3	3	2	I	1	0	875	1	Ⴊ	cut_f_stereo_44KHz.wav
2	129	2	1	0	C	1	1	834	1	Ⴃ	cut_s_stereo_44KHz.wav
2	130	1	1	1	C	2	1	716	1	Ⴟ	cut_s_stereo_44KHz.wav
2	131	3	3	2	I	1	0	690	1	Ⴊ	cut_f_stereo_44KHz.wav
2	132	4	4	2	I	1	0	697	1	Ⴜ	cut_oei_stereo_44KHz.wav
2	133	2	2	1	C	2	1	831	1	Ⴃ	cut_r_stereo_44KHz.wav
2	134	4	3	2	I	2	0	1187	0	Ⴜ	cut_f_stereo_44KHz.wav
2	135	3	4	2	I	1	0	761	0	Ⴊ	cut_oei_stereo_44KHz.wav
2	136	1	2	0	C	1	1	812	1	Ⴟ	cut_r_stereo_44KHz.wav
2	137	4	3	2	I	1	0	756	0	Ⴜ	cut_f_stereo_44KHz.wav
2	138	3	3	2	I	1	0	897	0	Ⴊ	cut_f_stereo_44KHz.wav
2	139	1	1	1	C	2	1	895	1	Ⴟ	cut_s_stereo_44KHz.wav
2	140	2	2	1	C	2	1	801	1	Ⴃ	cut_r_stereo_44KHz.wav
2	141	3	4	2	I	1	0	1005	0	Ⴊ	cut_oei_stereo_44KHz.wav
2	142	2	1	0	C	1	1	1249	1	Ⴃ	cut_s_stereo_44KHz.wav
2	143	1	2	0	C	1	1	752	1	Ⴟ	cut_r_stereo_44KHz.wav
2	144	4	4	2	I	1	0	833	1	Ⴜ	cut_oei_stereo_44KHz.wav
2	145	2	1	0	C	1	1	914	1	Ⴃ	cut_s_stereo_44KHz.wav
2	146	3	4	2	I	1	0	1437	1	Ⴊ	cut_oei_stereo_44KHz.wav
2	147	1	2	0	C	1	1	947	1	Ⴟ	cut_r_stereo_44KHz.wav
2	148	4	3	2	I	1	0	999	1	Ⴜ	cut_f_stereo_44KHz.wav
2	149	1	1	1	C	2	1	896	1	Ⴟ	cut_s_stereo_44KHz.wav
2	150	3	3	2	I	1	0	1179	1	Ⴊ	cut_f_stereo_44KHz.wav
2	151	4	4	2	I	1	0	995	1	Ⴜ	cut_oei_stereo_44KHz.wav
2	152	2	2	1	C	2	1	690	1	Ⴃ	cut_r_stereo_44KHz.wav
2	153	4	3	2	I	1	0	756	0	Ⴜ	cut_f_stereo_44KHz.wav
2	154	3	3	2	I	1	0	811	1	Ⴊ	cut_f_stereo_44KHz.wav
2	155	1	2	0	C	1	1	1001	1	Ⴟ	cut_r_stereo_44KHz.wav
2	156	2	1	0	C	1	1	1258	1	Ⴃ	cut_s_stereo_44KHz.wav
2	157	3	4	2	I	1	0	1356	1	Ⴊ	cut_oei_stereo_44KHz.wav
2	158	4	4	2	I	1	0	739	0	Ⴜ	cut_oei_stereo_44KHz.wav
2	159	2	2	1	C	2	1	877	1	Ⴃ	cut_r_stereo_44KHz.wav
2	160	1	1	1	C	2	1	863	1	Ⴟ	cut_s_stereo_44KHz.wav
2	161	3	3	2	I	1	0	1066	0	Ⴊ	cut_f_stereo_44KHz.wav
2	162	4	4	2	I	1	0	839	0	Ⴜ	cut_oei_stereo_44KHz.wav
2	163	1	2	0	C	1	1	785	1	Ⴟ	cut_r_stereo_44KHz.wav
2	164	2	1	0	C	1	1	786	1	Ⴃ	cut_s_stereo_44KHz.wav
2	165	3	4	2	I	1	0	1187	0	Ⴊ	cut_oei_stereo_44KHz.wav
2	166	2	2	1	C	2	1	842	1	Ⴃ	cut_r_stereo_44KHz.wav
2	167	1	1	1	C	2	1	1242	1	Ⴟ	cut_s_stereo_44KHz.wav
2	168	4	3	2	I	1	0	1102	0	Ⴜ	cut_f_stereo_44KHz.wav
2	169	2	2	1	C	2	1	1271	1	Ⴃ	cut_r_stereo_44KHz.wav
2	170	3	4	2	I	1	0	1097	0	Ⴊ	cut_oei_stereo_44KHz.wav
2	171	4	4	2	I	1	0	733	1	Ⴜ	cut_oei_stereo_44KHz.wav
2	172	1	1	1	C	2	1	809	1	Ⴟ	cut_s_stereo_44KHz.wav
2	173	2	1	0	C	1	1	955	1	Ⴃ	cut_s_stereo_44KHz.wav
2	174	1	2	0	C	1	1	806	1	Ⴟ	cut_r_stereo_44KHz.wav
2	175	4	3	2	I	1	0	892	1	Ⴜ	cut_f_stereo_44KHz.wav
2	176	3	3	2	I	1	0	829	0	Ⴊ	cut_f_stereo_44KHz.wav
2	177	1	2	0	C	1	1	966	1	Ⴟ	cut_r_stereo_44KHz.wav
2	178	4	4	2	I	1	0	716	0	Ⴜ	cut_oei_stereo_44KHz.wav
2	179	3	4	2	I	1	0	676	0	Ⴊ	cut_oei_stereo_44KHz.wav
2	180	2	2	1	C	2	1	973	1	Ⴃ	cut_r_stereo_44KHz.wav
2	181	3	3	2	I	1	0	777	0	Ⴊ	cut_f_stereo_44KHz.wav
2	182	2	1	0	C	1	1	850	1	Ⴃ	cut_s_stereo_44KHz.wav
2	183	1	1	1	C	2	1	908	1	Ⴟ	cut_s_stereo_44KHz.wav
2	184	4	3	2	I	1	0	791	1	Ⴜ	cut_f_stereo_44KHz.wav
2	185	3	3	2	I	2	0	1197	0	Ⴊ	cut_f_stereo_44KHz.wav
2	186	1	1	1	C	2	1	1093	1	Ⴟ	cut_s_stereo_44KHz.wav
2	187	4	4	2	I	1	0	840	0	Ⴜ	cut_oei_stereo_44KHz.wav
2	188	2	1	0	C	1	1	909	1	Ⴃ	cut_s_stereo_44KHz.wav
2	189	1	2	0	C	1	1	762	1	Ⴟ	cut_r_stereo_44KHz.wav
2	190	2	2	1	C	2	1	891	1	Ⴃ	cut_r_stereo_44KHz.wav
2	191	4	3	2	I	1	0	999	0	Ⴜ	cut_f_stereo_44KHz.wav
2	192	3	4	2	I	2	0	965	0	Ⴊ	cut_oei_stereo_44KHz.wav
2	193	1	2	0	C	1	1	807	1	Ⴟ	cut_r_stereo_44KHz.wav
2	194	3	4	2	I	1	0	946	0	Ⴊ	cut_oei_stereo_44KHz.wav
2	195	4	3	2	I	1	0	838	1	Ⴜ	cut_f_stereo_44KHz.wav
2	196	2	1	0	C	1	1	765	1	Ⴃ	cut_s_stereo_44KHz.wav
2	197	3	3	2	I	1	0	947	1	Ⴊ	cut_f_stereo_44KHz.wav
2	198	2	2	1	C	2	1	1135	1	Ⴃ	cut_r_stereo_44KHz.wav
2	199	4	4	2	I	1	0	1013	0	Ⴜ	cut_oei_stereo_44KHz.wav
2	200	1	1	1	C	2	1	868	1	Ⴟ	cut_s_stereo_44KHz.wav
3	1	3	3	2	I	2	0	1149	1	Ⴉ	cut_w_stereo_44KHz.wav
3	2	4	3	2	I	2	0	465	1	Ⴌ	cut_w_stereo_44KHz.wav
3	3	1	1	1	C	2	1	396	1	Ⴏ	cut_l_stereo_44KHz.wav
3	4	2	1	0	C	2	0	370	0	Ⴔ	cut_l_stereo_44KHz.wav
3	5	4	4	2	I	2	0	566	1	Ⴌ	cut_g_stereo_44KHz.wav
3	6	2	2	1	C	2	1	564	1	Ⴔ	cut_h_stereo_44KHz.wav
3	7	1	2	0	C	2	0	672	0	Ⴏ	cut_h_stereo_44KHz.wav
3	8	3	4	2	I	2	0	784	1	Ⴉ	cut_g_stereo_44KHz.wav
3	9	1	2	0	C	1	1	955	1	Ⴏ	cut_h_stereo_44KHz.wav
3	10	3	3	2	I	2	0	908	1	Ⴉ	cut_w_stereo_44KHz.wav
3	11	2	1	0	C	1	1	658	1	Ⴔ	cut_l_stereo_44KHz.wav
3	12	4	3	2	I	2	0	749	1	Ⴌ	cut_w_stereo_44KHz.wav
3	13	3	4	2	I	2	0	878	1	Ⴉ	cut_g_stereo_44KHz.wav
3	14	1	1	1	C	2	1	854	1	Ⴏ	cut_l_stereo_44KHz.wav
3	15	4	4	2	I	2	0	650	0	Ⴌ	cut_g_stereo_44KHz.wav
3	16	2	2	1	C	2	1	851	1	Ⴔ	cut_h_stereo_44KHz.wav
3	17	1	1	1	C	2	1	901	1	Ⴏ	cut_l_stereo_44KHz.wav
3	18	4	4	2	I	2	0	706	0	Ⴌ	cut_g_stereo_44KHz.wav
3	19	3	3	2	I	2	0	900	1	Ⴉ	cut_w_stereo_44KHz.wav
3	20	2	1	0	C	1	1	708	1	Ⴔ	cut_l_stereo_44KHz.wav
3	21	3	4	2	I	2	0	862	0	Ⴉ	cut_g_stereo_44KHz.wav
3	22	4	3	2	I	2	0	861	0	Ⴌ	cut_w_stereo_44KHz.wav
3	23	1	2	0	C	1	1	816	1	Ⴏ	cut_h_stereo_44KHz.wav
3	24	2	2	1	C	2	1	829	1	Ⴔ	cut_h_stereo_44KHz.wav
3	25	4	3	2	I	1	0	792	1	Ⴌ	cut_w_stereo_44KHz.wav
3	26	1	1	1	C	2	1	797	1	Ⴏ	cut_l_stereo_44KHz.wav
3	27	3	4	2	I	2	0	990	0	Ⴉ	cut_g_stereo_44KHz.wav
3	28	2	2	1	C	2	1	707	1	Ⴔ	cut_h_stereo_44KHz.wav
3	29	3	3	2	I	1	0	688	0	Ⴉ	cut_w_stereo_44KHz.wav
3	30	1	2	0	C	1	1	960	1	Ⴏ	cut_h_stereo_44KHz.wav
3	31	2	1	0	C	1	1	754	1	Ⴔ	cut_l_stereo_44KHz.wav
3	32	4	4	2	I	1	0	963	1	Ⴌ	cut_g_stereo_44KHz.wav
3	33	3	3	2	I	1	0	824	1	Ⴉ	cut_w_stereo_44KHz.wav
3	34	2	1	0	C	1	1	643	1	Ⴔ	cut_l_stereo_44KHz.wav
3	35	1	2	0	C	1	1	687	1	Ⴏ	cut_h_stereo_44KHz.wav
3	36	4	3	2	I	1	0	658	0	Ⴌ	cut_w_stereo_44KHz.wav
3	37	1	1	1	C	2	1	938	1	Ⴏ	cut_l_stereo_44KHz.wav
3	38	3	4	2	I	1	0	977	0	Ⴉ	cut_g_stereo_44KHz.wav
3	39	2	2	1	C	2	1	814	1	Ⴔ	cut_h_stereo_44KHz.wav
3	40	4	4	2	I	1	0	1166	0	Ⴌ	cut_g_stereo_44KHz.wav
3	41	3	4	2	I	1	0	791	1	Ⴉ	cut_g_stereo_44KHz.wav
3	42	1	1	1	C	2	1	759	1	Ⴏ	cut_l_stereo_44KHz.wav
3	43	4	3	2	I	1	0	941	0	Ⴌ	cut_w_stereo_44KHz.wav
3	44	2	1	0	C	1	1	727	1	Ⴔ	cut_l_stereo_44KHz.wav
3	45	3	3	2	I	2	0	1032	0	Ⴉ	cut_w_stereo_44KHz.wav
3	46	4	4	2	I	1	0	1148	1	Ⴌ	cut_g_stereo_44KHz.wav
3	47	2	2	1	C	2	1	795	1	Ⴔ	cut_h_stereo_44KHz.wav
3	48	1	2	0	C	1	1	694	1	Ⴏ	cut_h_stereo_44KHz.wav
3	49	4	3	2	I	2	0	1037	0	Ⴌ	cut_w_stereo_44KHz.wav
3	50	1	1	1	C	2	1	861	1	Ⴏ	cut_l_stereo_44KHz.wav
3	51	2	1	0	C	1	1	730	1	Ⴔ	cut_l_stereo_44KHz.wav
3	52	3	3	2	I	2	0	932	1	Ⴉ	cut_w_stereo_44KHz.wav
3	53	2	2	1	C	2	1	764	1	Ⴔ	cut_h_stereo_44KHz.wav
3	54	4	4	2	I	1	0	1006	1	Ⴌ	cut_g_stereo_44KHz.wav
3	55	3	4	2	I	2	0	858	0	Ⴉ	cut_g_stereo_44KHz.wav
3	56	1	2	0	C	1	1	942	1	Ⴏ	cut_h_stereo_44KHz.wav
3	57	3	3	2	I	1	0	903	0	Ⴉ	cut_w_stereo_44KHz.wav
3	58	4	4	2	I	1	0	1160	1	Ⴌ	cut_g_stereo_44KHz.wav
3	59	1	1	1	C	2	1	718	1	Ⴏ	cut_l_stereo_44KHz.wav
3	60	2	1	0	C	1	1	639	1	Ⴔ	cut_l_stereo_44KHz.wav
3	61	1	2	0	C	1	1	784	1	Ⴏ	cut_h_stereo_44KHz.wav
3	62	2	2	1	C	2	1	779	1	Ⴔ	cut_h_stereo_44KHz.wav
3	63	4	3	2	I	1	0	950	1	Ⴌ	cut_w_stereo_44KHz.wav
3	64	3	4	2	I	1	0	884	1	Ⴉ	cut_g_stereo_44KHz.wav
3	65	1	2	0	C	1	1	604	1	Ⴏ	cut_h_stereo_44KHz.wav
3	66	2	2	1	C	2	1	817	1	Ⴔ	cut_h_stereo_44KHz.wav
3	67	3	4	2	I	1	0	936	0	Ⴉ	cut_g_stereo_44KHz.wav
3	68	4	3	2	I	1	0	1545	0	Ⴌ	cut_w_stereo_44KHz.wav
3	69	1	1	1	C	2	1	899	1	Ⴏ	cut_l_stereo_44KHz.wav
3	70	4	4	2	I	1	0	1253	1	Ⴌ	cut_g_stereo_44KHz.wav
3	71	3	3	2	I	1	0	1012	0	Ⴉ	cut_w_stereo_44KHz.wav
3	72	2	1	0	C	1	1	1183	1	Ⴔ	cut_l_stereo_44KHz.wav
3	73	4	4	2	I	1	0	939	1	Ⴌ	cut_g_stereo_44KHz.wav
3	74	1	1	1	C	2	1	728	1	Ⴏ	cut_l_stereo_44KHz.wav
3	75	2	1	0	C	1	1	612	1	Ⴔ	cut_l_stereo_44KHz.wav
3	76	3	3	2	I	2	0	968	0	Ⴉ	cut_w_stereo_44KHz.wav
3	77	1	2	0	C	1	1	711	1	Ⴏ	cut_h_stereo_44KHz.wav
3	78	2	2	1	C	2	1	709	1	Ⴔ	cut_h_stereo_44KHz.wav
3	79	4	3	2	I	1	0	878	0	Ⴌ	cut_w_stereo_44KHz.wav
3	80	3	4	2	I	1	0	778	1	Ⴉ	cut_g_stereo_44KHz.wav
3	81	1	1	1	C	2	1	1087	1	Ⴏ	cut_l_stereo_44KHz.wav
3	82	4	3	2	I	1	0	956	1	Ⴌ	cut_w_stereo_44KHz.wav
3	83	3	3	2	I	1	0	901	1	Ⴉ	cut_w_stereo_44KHz.wav
3	84	2	2	1	C	2	1	963	1	Ⴔ	cut_h_stereo_44KHz.wav
3	85	3	4	2	I	1	0	713	0	Ⴉ	cut_g_stereo_44KHz.wav
3	86	4	4	2	I	1	0	777	1	Ⴌ	cut_g_stereo_44KHz.wav
3	87	2	1	0	C	1	1	916	1	Ⴔ	cut_l_stereo_44KHz.wav
3	88	1	2	0	C	1	1	657	1	Ⴏ	cut_h_stereo_44KHz.wav
3	89	2	1	0	C	1	1	746	1	Ⴔ	cut_l_stereo_44KHz.wav
3	90	3	3	2	I	1	0	1025	1	Ⴉ	cut_w_stereo_44KHz.wav
3	91	4	4	2	I	1	0	906	0	Ⴌ	cut_g_stereo_44KHz.wav
3	92	1	1	1	C	2	1	1071	1	Ⴏ	cut_l_stereo_44KHz.wav
3	93	4	3	2	I	1	0	1007	0	Ⴌ	cut_w_stereo_44KHz.wav
3	94	3	4	2	I	1	0	1094	1	Ⴉ	cut_g_stereo_44KHz.wav
3	95	1	2	0	C	1	1	1165	1	Ⴏ	cut_h_stereo_44KHz.wav
3	96	2	2	1	C	2	1	828	1	Ⴔ	cut_h_stereo_44KHz.wav
3	97	1	2	0	C	1	1	1293	1	Ⴏ	cut_h_stereo_44KHz.wav
3	98	3	3	2	I	1	0	1143	0	Ⴉ	cut_w_stereo_44KHz.wav
3	99	2	2	1	C	2	1	835	1	Ⴔ	cut_h_stereo_44KHz.wav
3	100	4	3	2	I	1	0	875	0	Ⴌ	cut_w_stereo_44KHz.wav
3	101	1	1	1	C	2	1	797	1	Ⴏ	cut_l_stereo_44KHz.wav
3	102	2	1	0	C	1	1	785	1	Ⴔ	cut_l_stereo_44KHz.wav
3	103	3	4	2	I	1	0	866	1	Ⴉ	cut_g_stereo_44KHz.wav
3	104	4	4	2	I	1	0	1105	0	Ⴌ	cut_g_stereo_44KHz.wav
3	105	1	1	1	C	2	1	1780	1	Ⴏ	cut_l_stereo_44KHz.wav
3	106	4	3	2	I	1	0	1623	1	Ⴌ	cut_w_stereo_44KHz.wav
3	107	3	4	2	I	1	0	786	0	Ⴉ	cut_g_stereo_44KHz.wav
3	108	2	2	1	C	2	1	975	1	Ⴔ	cut_h_stereo_44KHz.wav
3	109	1	2	0	C	1	1	745	1	Ⴏ	cut_h_stereo_44KHz.wav
3	110	3	3	2	I	1	0	865	0	Ⴉ	cut_w_stereo_44KHz.wav
3	111	4	4	2	I	1	0	786	0	Ⴌ	cut_g_stereo_44KHz.wav
3	112	2	1	0	C	1	1	639	1	Ⴔ	cut_l_stereo_44KHz.wav
3	113	3	4	2	I	1	0	1061	0	Ⴉ	cut_g_stereo_44KHz.wav
3	114	4	4	2	I	2	0	941	1	Ⴌ	cut_g_stereo_44KHz.wav
3	115	2	1	0	C	1	1	642	1	Ⴔ	cut_l_stereo_44KHz.wav
3	116	1	2	0	C	1	1	667	1	Ⴏ	cut_h_stereo_44KHz.wav
3	117	4	3	2	I	2	0	1175	0	Ⴌ	cut_w_stereo_44KHz.wav
3	118	1	1	1	C	2	1	792	1	Ⴏ	cut_l_stereo_44KHz.wav
3	119	3	3	2	I	1	0	801	0	Ⴉ	cut_w_stereo_44KHz.wav
3	120	2	2	1	C	2	1	779	1	Ⴔ	cut_h_stereo_44KHz.wav
3	121	1	1	1	C	2	1	948	1	Ⴏ	cut_l_stereo_44KHz.wav
3	122	4	3	2	I	1	0	1200	0	Ⴌ	cut_w_stereo_44KHz.wav
3	123	3	4	2	I	1	0	977	1	Ⴉ	cut_g_stereo_44KHz.wav
3	124	2	1	0	C	1	1	720	1	Ⴔ	cut_l_stereo_44KHz.wav
3	125	4	4	2	I	1	0	1404	1	Ⴌ	cut_g_stereo_44KHz.wav
3	126	3	3	2	I	1	0	1504	1	Ⴉ	cut_w_stereo_44KHz.wav
3	127	1	2	0	C	0	0	0	0	Ⴏ	cut_h_stereo_44KHz.wav
3	128	2	2	1	C	2	1	773	1	Ⴔ	cut_h_stereo_44KHz.wav
3	129	3	4	2	I	1	0	1396	1	Ⴉ	cut_g_stereo_44KHz.wav
3	130	4	3	2	I	1	0	978	1	Ⴌ	cut_w_stereo_44KHz.wav
3	131	1	1	1	C	2	1	749	1	Ⴏ	cut_l_stereo_44KHz.wav
3	132	2	2	1	C	2	1	761	1	Ⴔ	cut_h_stereo_44KHz.wav
3	133	4	4	2	I	1	0	942	1	Ⴌ	cut_g_stereo_44KHz.wav
3	134	3	3	2	I	2	0	1022	0	Ⴉ	cut_w_stereo_44KHz.wav
3	135	1	2	0	C	1	1	740	1	Ⴏ	cut_h_stereo_44KHz.wav
3	136	2	1	0	C	1	1	764	1	Ⴔ	cut_l_stereo_44KHz.wav
3	137	3	3	2	I	2	0	1317	1	Ⴉ	cut_w_stereo_44KHz.wav
3	138	1	1	1	C	2	1	913	1	Ⴏ	cut_l_stereo_44KHz.wav
3	139	2	1	0	C	1	1	798	1	Ⴔ	cut_l_stereo_44KHz.wav
3	140	4	3	2	I	1	0	926	0	Ⴌ	cut_w_stereo_44KHz.wav
3	141	1	2	0	C	1	1	705	1	Ⴏ	cut_h_stereo_44KHz.wav
3	142	4	4	2	I	1	0	893	1	Ⴌ	cut_g_stereo_44KHz.wav
3	143	3	4	2	I	1	0	866	1	Ⴉ	cut_g_stereo_44KHz.wav
3	144	2	2	1	C	2	1	1153	1	Ⴔ	cut_h_stereo_44KHz.wav
3	145	4	4	2	I	1	0	912	0	Ⴌ	cut_g_stereo_44KHz.wav
3	146	3	3	2	I	1	0	1022	1	Ⴉ	cut_w_stereo_44KHz.wav
3	147	1	2	0	C	1	1	968	1	Ⴏ	cut_h_stereo_44KHz.wav
3	148	2	2	1	C	2	1	744	1	Ⴔ	cut_h_stereo_44KHz.wav
3	149	3	4	2	I	1	0	1464	1	Ⴉ	cut_g_stereo_44KHz.wav
3	150	2	1	0	C	1	1	719	1	Ⴔ	cut_l_stereo_44KHz.wav
3	151	1	1	1	C	2	1	1295	1	Ⴏ	cut_l_stereo_44KHz.wav
3	152	4	3	2	I	1	0	1242	1	Ⴌ	cut_w_stereo_44KHz.wav
3	153	2	1	0	C	1	1	969	1	Ⴔ	cut_l_stereo_44KHz.wav
3	154	3	3	2	I	1	0	1460	0	Ⴉ	cut_w_stereo_44KHz.wav
3	155	1	2	0	C	1	1	1159	1	Ⴏ	cut_h_stereo_44KHz.wav
3	156	4	4	2	I	1	0	1473	0	Ⴌ	cut_g_stereo_44KHz.wav
3	157	2	2	1	C	2	1	1605	1	Ⴔ	cut_h_stereo_44KHz.wav
3	158	3	4	2	I	1	0	959	1	Ⴉ	cut_g_stereo_44KHz.wav
3	159	1	1	1	C	2	1	770	1	Ⴏ	cut_l_stereo_44KHz.wav
3	160	4	3	2	I	2	0	975	0	Ⴌ	cut_w_stereo_44KHz.wav
3	161	1	2	0	C	1	1	871	1	Ⴏ	cut_h_stereo_44KHz.wav
3	162	4	3	2	I	1	0	1303	0	Ⴌ	cut_w_stereo_44KHz.wav
3	163	2	2	1	C	2	1	1850	1	Ⴔ	cut_h_stereo_44KHz.wav
3	164	3	4	2	I	1	0	1783	0	Ⴉ	cut_g_stereo_44KHz.wav
3	165	1	1	1	C	0	0	0	0	Ⴏ	cut_l_stereo_44KHz.wav
3	166	3	3	2	I	1	0	1001	0	Ⴉ	cut_w_stereo_44KHz.wav
3	167	4	4	2	I	1	0	1034	1	Ⴌ	cut_g_stereo_44KHz.wav
3	168	2	1	0	C	1	1	724	1	Ⴔ	cut_l_stereo_44KHz.wav
3	169	3	3	2	I	1	0	786	1	Ⴉ	cut_w_stereo_44KHz.wav
3	170	2	1	0	C	1	1	607	1	Ⴔ	cut_l_stereo_44KHz.wav
3	171	1	1	1	C	2	1	780	1	Ⴏ	cut_l_stereo_44KHz.wav
3	172	4	3	2	I	2	0	992	0	Ⴌ	cut_w_stereo_44KHz.wav
3	173	2	2	1	C	2	1	791	1	Ⴔ	cut_h_stereo_44KHz.wav
3	174	3	4	2	I	1	0	868	0	Ⴉ	cut_g_stereo_44KHz.wav
3	175	4	4	2	I	1	0	875	0	Ⴌ	cut_g_stereo_44KHz.wav
3	176	1	2	0	C	1	1	1242	1	Ⴏ	cut_h_stereo_44KHz.wav
3	177	4	3	2	I	1	0	1290	1	Ⴌ	cut_w_stereo_44KHz.wav
3	178	2	2	1	C	2	1	1270	1	Ⴔ	cut_h_stereo_44KHz.wav
3	179	3	3	2	I	1	0	1750	1	Ⴉ	cut_w_stereo_44KHz.wav
3	180	1	1	1	C	0	0	0	0	Ⴏ	cut_l_stereo_44KHz.wav
3	181	2	1	0	C	1	1	567	1	Ⴔ	cut_l_stereo_44KHz.wav
3	182	1	2	0	C	1	1	726	1	Ⴏ	cut_h_stereo_44KHz.wav
3	183	4	4	2	I	1	0	1127	1	Ⴌ	cut_g_stereo_44KHz.wav
3	184	3	4	2	I	1	0	691	0	Ⴉ	cut_g_stereo_44KHz.wav
3	185	2	2	1	C	2	1	893	1	Ⴔ	cut_h_stereo_44KHz.wav
3	186	1	2	0	C	1	1	988	1	Ⴏ	cut_h_stereo_44KHz.wav
3	187	4	4	2	I	1	0	988	1	Ⴌ	cut_g_stereo_44KHz.wav
3	188	3	4	2	I	1	0	856	0	Ⴉ	cut_g_stereo_44KHz.wav
3	189	2	1	0	C	1	1	709	1	Ⴔ	cut_l_stereo_44KHz.wav
3	190	4	3	2	I	1	0	774	1	Ⴌ	cut_w_stereo_44KHz.wav
3	191	1	1	1	C	2	1	828	1	Ⴏ	cut_l_stereo_44KHz.wav
3	192	3	3	2	I	1	0	1015	0	Ⴉ	cut_w_stereo_44KHz.wav
3	193	4	4	2	I	1	0	1329	0	Ⴌ	cut_g_stereo_44KHz.wav
3	194	2	2	1	C	2	1	1400	1	Ⴔ	cut_h_stereo_44KHz.wav
3	195	3	3	2	I	2	0	1009	0	Ⴉ	cut_w_stereo_44KHz.wav
3	196	1	1	1	C	2	1	847	1	Ⴏ	cut_l_stereo_44KHz.wav
3	197	3	4	2	I	1	0	1234	1	Ⴉ	cut_g_stereo_44KHz.wav
3	198	2	1	0	C	1	1	743	1	Ⴔ	cut_l_stereo_44KHz.wav
3	199	1	2	0	C	1	1	713	1	Ⴏ	cut_h_stereo_44KHz.wav
3	200	4	3	2	I	1	0	1459	0	Ⴌ	cut_w_stereo_44KHz.wav
4	1	2	1	0	C	2	0	1154	0	Ⴁ	cut_j_stereo_44KHz.wav
4	2	4	3	2	I	2	0	845	1	Ⴡ	cut_n_stereo_44KHz.wav
4	3	3	4	2	I	2	0	506	1	Ⴇ	cut_ui_stereo_44KHz.wav
4	4	1	1	1	C	2	1	546	1	Ⴂ	cut_j_stereo_44KHz.wav
4	5	3	3	2	I	2	0	658	0	Ⴇ	cut_n_stereo_44KHz.wav
4	6	2	2	1	C	2	1	695	1	Ⴁ	cut_ei_stereo_44KHz.wav
4	7	1	2	0	C	2	0	723	0	Ⴂ	cut_ei_stereo_44KHz.wav
4	8	4	4	2	I	2	0	624	0	Ⴡ	cut_ui_stereo_44KHz.wav
4	9	1	1	1	C	2	1	688	1	Ⴂ	cut_j_stereo_44KHz.wav
4	10	4	4	2	I	2	0	486	0	Ⴡ	cut_ui_stereo_44KHz.wav
4	11	2	1	0	C	1	1	717	1	Ⴁ	cut_j_stereo_44KHz.wav
4	12	3	3	2	I	1	0	783	0	Ⴇ	cut_n_stereo_44KHz.wav
4	13	2	2	1	C	1	0	891	0	Ⴁ	cut_ei_stereo_44KHz.wav
4	14	4	3	2	I	1	0	840	1	Ⴡ	cut_n_stereo_44KHz.wav
4	15	3	4	2	I	2	0	595	0	Ⴇ	cut_ui_stereo_44KHz.wav
4	16	1	2	0	C	1	1	1053	1	Ⴂ	cut_ei_stereo_44KHz.wav
4	17	4	4	2	I	2	0	697	0	Ⴡ	cut_ui_stereo_44KHz.wav
4	18	3	4	2	I	1	0	831	1	Ⴇ	cut_ui_stereo_44KHz.wav
4	19	2	2	1	C	1	0	890	0	Ⴁ	cut_ei_stereo_44KHz.wav
4	20	1	2	0	C	1	1	761	1	Ⴂ	cut_ei_stereo_44KHz.wav
4	21	2	1	0	C	1	1	1173	1	Ⴁ	cut_j_stereo_44KHz.wav
4	22	3	3	2	I	2	0	1117	0	Ⴇ	cut_n_stereo_44KHz.wav
4	23	4	3	2	I	1	0	838	0	Ⴡ	cut_n_stereo_44KHz.wav
4	24	1	1	1	C	2	1	999	1	Ⴂ	cut_j_stereo_44KHz.wav
4	25	4	3	2	I	2	0	1060	0	Ⴡ	cut_n_stereo_44KHz.wav
4	26	1	1	1	C	1	0	1243	0	Ⴂ	cut_j_stereo_44KHz.wav
4	27	3	4	2	I	1	0	952	1	Ⴇ	cut_ui_stereo_44KHz.wav
4	28	2	1	0	C	1	1	993	1	Ⴁ	cut_j_stereo_44KHz.wav
4	29	1	2	0	C	1	1	778	1	Ⴂ	cut_ei_stereo_44KHz.wav
4	30	2	2	1	C	1	0	806	0	Ⴁ	cut_ei_stereo_44KHz.wav
4	31	4	4	2	I	2	0	855	0	Ⴡ	cut_ui_stereo_44KHz.wav
4	32	3	3	2	I	2	0	850	0	Ⴇ	cut_n_stereo_44KHz.wav
4	33	1	2	0	C	1	1	1468	1	Ⴂ	cut_ei_stereo_44KHz.wav
4	34	2	2	1	C	2	1	1027	1	Ⴁ	cut_ei_stereo_44KHz.wav
4	35	3	3	2	I	2	0	833	0	Ⴇ	cut_n_stereo_44KHz.wav
4	36	4	3	2	I	2	0	1190	0	Ⴡ	cut_n_stereo_44KHz.wav
4	37	2	1	0	C	2	0	1280	0	Ⴁ	cut_j_stereo_44KHz.wav
4	38	4	4	2	I	2	0	967	0	Ⴡ	cut_ui_stereo_44KHz.wav
4	39	3	4	2	I	1	0	702	0	Ⴇ	cut_ui_stereo_44KHz.wav
4	40	1	1	1	C	2	1	1063	1	Ⴂ	cut_j_stereo_44KHz.wav
4	41	3	4	2	I	1	0	798	0	Ⴇ	cut_ui_stereo_44KHz.wav
4	42	1	2	0	C	1	1	785	1	Ⴂ	cut_ei_stereo_44KHz.wav
4	43	4	4	2	I	1	0	962	1	Ⴡ	cut_ui_stereo_44KHz.wav
4	44	2	2	1	C	1	0	1069	0	Ⴁ	cut_ei_stereo_44KHz.wav
4	45	1	1	1	C	2	1	993	1	Ⴂ	cut_j_stereo_44KHz.wav
4	46	4	3	2	I	1	0	1047	1	Ⴡ	cut_n_stereo_44KHz.wav
4	47	2	1	0	C	1	1	1294	1	Ⴁ	cut_j_stereo_44KHz.wav
4	48	3	3	2	I	2	0	1088	0	Ⴇ	cut_n_stereo_44KHz.wav
4	49	2	2	1	C	2	1	899	1	Ⴁ	cut_ei_stereo_44KHz.wav
4	50	3	4	2	I	1	0	775	1	Ⴇ	cut_ui_stereo_44KHz.wav
4	51	4	4	2	I	1	0	848	1	Ⴡ	cut_ui_stereo_44KHz.wav
4	52	1	1	1	C	2	1	903	1	Ⴂ	cut_j_stereo_44KHz.wav
4	53	3	3	2	I	1	0	1306	1	Ⴇ	cut_n_stereo_44KHz.wav
4	54	2	1	0	C	1	1	1121	1	Ⴁ	cut_j_stereo_44KHz.wav
4	55	1	2	0	C	1	1	760	1	Ⴂ	cut_ei_stereo_44KHz.wav
4	56	4	3	2	I	1	0	886	1	Ⴡ	cut_n_stereo_44KHz.wav
4	57	3	4	2	I	1	0	732	0	Ⴇ	cut_ui_stereo_44KHz.wav
4	58	4	4	2	I	1	0	686	1	Ⴡ	cut_ui_stereo_44KHz.wav
4	59	2	1	0	C	1	1	929	1	Ⴁ	cut_j_stereo_44KHz.wav
4	60	1	1	1	C	2	1	778	1	Ⴂ	cut_j_stereo_44KHz.wav
4	61	4	3	2	I	1	0	880	1	Ⴡ	cut_n_stereo_44KHz.wav
4	62	3	3	2	I	1	0	735	1	Ⴇ	cut_n_stereo_44KHz.wav
4	63	2	2	1	C	2	1	884	1	Ⴁ	cut_ei_stereo_44KHz.wav
4	64	1	2	0	C	1	1	630	1	Ⴂ	cut_ei_stereo_44KHz.wav
4	65	3	4	2	I	1	0	677	1	Ⴇ	cut_ui_stereo_44KHz.wav
4	66	2	2	1	C	2	1	930	1	Ⴁ	cut_ei_stereo_44KHz.wav
4	67	4	3	2	I	1	0	674	1	Ⴡ	cut_n_stereo_44KHz.wav
4	68	1	1	1	C	2	1	937	1	Ⴂ	cut_j_stereo_44KHz.wav
4	69	3	3	2	I	1	0	766	0	Ⴇ	cut_n_stereo_44KHz.wav
4	70	2	1	0	C	1	1	1003	1	Ⴁ	cut_j_stereo_44KHz.wav
4	71	4	4	2	I	1	0	758	0	Ⴡ	cut_ui_stereo_44KHz.wav
4	72	1	2	0	C	1	1	568	1	Ⴂ	cut_ei_stereo_44KHz.wav
4	73	3	3	2	I	1	0	785	1	Ⴇ	cut_n_stereo_44KHz.wav
4	74	2	1	0	C	1	1	841	1	Ⴁ	cut_j_stereo_44KHz.wav
4	75	4	4	2	I	1	0	648	1	Ⴡ	cut_ui_stereo_44KHz.wav
4	76	1	1	1	C	2	1	837	1	Ⴂ	cut_j_stereo_44KHz.wav
4	77	3	4	2	I	1	0	853	1	Ⴇ	cut_ui_stereo_44KHz.wav
4	78	2	2	1	C	2	1	1018	1	Ⴁ	cut_ei_stereo_44KHz.wav
4	79	4	3	2	I	1	0	632	0	Ⴡ	cut_n_stereo_44KHz.wav
4	80	1	2	0	C	1	1	1101	1	Ⴂ	cut_ei_stereo_44KHz.wav
4	81	3	4	2	I	1	0	627	0	Ⴇ	cut_ui_stereo_44KHz.wav
4	82	1	2	0	C	1	1	800	1	Ⴂ	cut_ei_stereo_44KHz.wav
4	83	2	2	1	C	2	1	1067	1	Ⴁ	cut_ei_stereo_44KHz.wav
4	84	4	3	2	I	1	0	718	1	Ⴡ	cut_n_stereo_44KHz.wav
4	85	3	3	2	I	1	0	851	0	Ⴇ	cut_n_stereo_44KHz.wav
4	86	4	4	2	I	1	0	809	0	Ⴡ	cut_ui_stereo_44KHz.wav
4	87	1	1	1	C	2	1	1071	1	Ⴂ	cut_j_stereo_44KHz.wav
4	88	2	1	0	C	1	1	916	1	Ⴁ	cut_j_stereo_44KHz.wav
4	89	4	4	2	I	1	0	761	1	Ⴡ	cut_ui_stereo_44KHz.wav
4	90	2	2	1	C	2	1	878	1	Ⴁ	cut_ei_stereo_44KHz.wav
4	91	1	1	1	C	2	1	851	1	Ⴂ	cut_j_stereo_44KHz.wav
4	92	3	3	2	I	1	0	843	1	Ⴇ	cut_n_stereo_44KHz.wav
4	93	1	2	0	C	1	1	1021	1	Ⴂ	cut_ei_stereo_44KHz.wav
4	94	4	3	2	I	1	0	792	1	Ⴡ	cut_n_stereo_44KHz.wav
4	95	2	1	0	C	1	1	1127	1	Ⴁ	cut_j_stereo_44KHz.wav
4	96	3	4	2	I	1	0	1336	0	Ⴇ	cut_ui_stereo_44KHz.wav
4	97	1	2	0	C	1	1	639	1	Ⴂ	cut_ei_stereo_44KHz.wav
4	98	2	1	0	C	1	1	1171	1	Ⴁ	cut_j_stereo_44KHz.wav
4	99	4	3	2	I	1	0	729	1	Ⴡ	cut_n_stereo_44KHz.wav
4	100	3	3	2	I	1	0	795	1	Ⴇ	cut_n_stereo_44KHz.wav
4	101	1	1	1	C	1	0	627	0	Ⴂ	cut_j_stereo_44KHz.wav
4	102	4	4	2	I	1	0	694	1	Ⴡ	cut_ui_stereo_44KHz.wav
4	103	3	4	2	I	1	0	606	1	Ⴇ	cut_ui_stereo_44KHz.wav
4	104	2	2	1	C	2	1	1460	1	Ⴁ	cut_ei_stereo_44KHz.wav
4	105	4	3	2	I	1	0	604	1	Ⴡ	cut_n_stereo_44KHz.wav
4	106	1	1	1	C	2	1	966	1	Ⴂ	cut_j_stereo_44KHz.wav
4	107	2	1	0	C	1	1	697	1	Ⴁ	cut_j_stereo_44KHz.wav
4	108	3	4	2	I	1	0	824	1	Ⴇ	cut_ui_stereo_44KHz.wav
4	109	4	4	2	I	1	0	695	0	Ⴡ	cut_ui_stereo_44KHz.wav
4	110	3	3	2	I	1	0	1205	0	Ⴇ	cut_n_stereo_44KHz.wav
4	111	2	2	1	C	2	1	1046	1	Ⴁ	cut_ei_stereo_44KHz.wav
4	112	1	2	0	C	1	1	711	1	Ⴂ	cut_ei_stereo_44KHz.wav
4	113	3	4	2	I	1	0	812	1	Ⴇ	cut_ui_stereo_44KHz.wav
4	114	2	2	1	C	2	1	829	1	Ⴁ	cut_ei_stereo_44KHz.wav
4	115	4	4	2	I	1	0	645	1	Ⴡ	cut_ui_stereo_44KHz.wav
4	116	1	1	1	C	1	0	1060	0	Ⴂ	cut_j_stereo_44KHz.wav
4	117	3	3	2	I	1	0	814	1	Ⴇ	cut_n_stereo_44KHz.wav
4	118	2	1	0	C	1	1	663	1	Ⴁ	cut_j_stereo_44KHz.wav
4	119	1	2	0	C	2	0	686	0	Ⴂ	cut_ei_stereo_44KHz.wav
4	120	4	3	2	I	1	0	780	1	Ⴡ	cut_n_stereo_44KHz.wav
4	121	3	3	2	I	1	0	823	0	Ⴇ	cut_n_stereo_44KHz.wav
4	122	1	1	1	C	2	1	1243	1	Ⴂ	cut_j_stereo_44KHz.wav
4	123	4	4	2	I	1	0	640	0	Ⴡ	cut_ui_stereo_44KHz.wav
4	124	2	2	1	C	2	1	979	1	Ⴁ	cut_ei_stereo_44KHz.wav
4	125	4	3	2	I	1	0	1113	0	Ⴡ	cut_n_stereo_44KHz.wav
4	126	3	4	2	I	1	0	663	0	Ⴇ	cut_ui_stereo_44KHz.wav
4	127	1	2	0	C	1	1	1101	1	Ⴂ	cut_ei_stereo_44KHz.wav
4	128	2	1	0	C	1	1	992	1	Ⴁ	cut_j_stereo_44KHz.wav
4	129	4	3	2	I	1	0	675	1	Ⴡ	cut_n_stereo_44KHz.wav
4	130	1	2	0	C	1	1	526	1	Ⴂ	cut_ei_stereo_44KHz.wav
4	131	2	2	1	C	2	1	1206	1	Ⴁ	cut_ei_stereo_44KHz.wav
4	132	3	4	2	I	1	0	696	1	Ⴇ	cut_ui_stereo_44KHz.wav
4	133	4	4	2	I	1	0	1158	0	Ⴡ	cut_ui_stereo_44KHz.wav
4	134	2	1	0	C	1	1	1039	1	Ⴁ	cut_j_stereo_44KHz.wav
4	135	1	1	1	C	2	1	746	1	Ⴂ	cut_j_stereo_44KHz.wav
4	136	3	3	2	I	1	0	849	0	Ⴇ	cut_n_stereo_44KHz.wav
4	137	4	4	2	I	1	0	907	0	Ⴡ	cut_ui_stereo_44KHz.wav
4	138	1	2	0	C	1	1	871	1	Ⴂ	cut_ei_stereo_44KHz.wav
4	139	3	3	2	I	1	0	782	1	Ⴇ	cut_n_stereo_44KHz.wav
4	140	2	1	0	C	1	1	957	1	Ⴁ	cut_j_stereo_44KHz.wav
4	141	1	1	1	C	2	1	952	1	Ⴂ	cut_j_stereo_44KHz.wav
4	142	2	2	1	C	2	1	1013	1	Ⴁ	cut_ei_stereo_44KHz.wav
4	143	3	4	2	I	2	0	236	1	Ⴇ	cut_ui_stereo_44KHz.wav
4	144	4	3	2	I	1	0	736	0	Ⴡ	cut_n_stereo_44KHz.wav
4	145	1	2	0	C	1	1	776	1	Ⴂ	cut_ei_stereo_44KHz.wav
4	146	3	3	2	I	1	0	828	1	Ⴇ	cut_n_stereo_44KHz.wav
4	147	4	3	2	I	1	0	717	1	Ⴡ	cut_n_stereo_44KHz.wav
4	148	2	1	0	C	1	1	1455	1	Ⴁ	cut_j_stereo_44KHz.wav
4	149	4	4	2	I	1	0	772	0	Ⴡ	cut_ui_stereo_44KHz.wav
4	150	3	4	2	I	1	0	620	0	Ⴇ	cut_ui_stereo_44KHz.wav
4	151	2	2	1	C	2	1	992	1	Ⴁ	cut_ei_stereo_44KHz.wav
4	152	1	1	1	C	2	1	1264	1	Ⴂ	cut_j_stereo_44KHz.wav
4	153	3	3	2	I	1	0	898	0	Ⴇ	cut_n_stereo_44KHz.wav
4	154	2	1	0	C	1	1	793	1	Ⴁ	cut_j_stereo_44KHz.wav
4	155	4	3	2	I	1	0	820	0	Ⴡ	cut_n_stereo_44KHz.wav
4	156	1	1	1	C	2	1	1136	1	Ⴂ	cut_j_stereo_44KHz.wav
4	157	3	4	2	I	1	0	709	1	Ⴇ	cut_ui_stereo_44KHz.wav
4	158	2	2	1	C	2	1	955	1	Ⴁ	cut_ei_stereo_44KHz.wav
4	159	1	2	0	C	1	1	881	1	Ⴂ	cut_ei_stereo_44KHz.wav
4	160	4	4	2	I	1	0	791	0	Ⴡ	cut_ui_stereo_44KHz.wav
4	161	3	4	2	I	1	0	574	0	Ⴇ	cut_ui_stereo_44KHz.wav
4	162	2	2	1	C	2	1	1063	1	Ⴁ	cut_ei_stereo_44KHz.wav
4	163	4	4	2	I	1	0	709	0	Ⴡ	cut_ui_stereo_44KHz.wav
4	164	1	1	1	C	2	1	881	1	Ⴂ	cut_j_stereo_44KHz.wav
4	165	2	1	0	C	1	1	795	1	Ⴁ	cut_j_stereo_44KHz.wav
4	166	1	2	0	C	1	1	883	1	Ⴂ	cut_ei_stereo_44KHz.wav
4	167	4	3	2	I	1	0	1157	0	Ⴡ	cut_n_stereo_44KHz.wav
4	168	3	3	2	I	2	0	667	1	Ⴇ	cut_n_stereo_44KHz.wav
4	169	2	1	0	C	1	1	830	1	Ⴁ	cut_j_stereo_44KHz.wav
4	170	1	2	0	C	1	1	700	1	Ⴂ	cut_ei_stereo_44KHz.wav
4	171	3	4	2	I	1	0	672	1	Ⴇ	cut_ui_stereo_44KHz.wav
4	172	4	4	2	I	1	0	716	1	Ⴡ	cut_ui_stereo_44KHz.wav
4	173	2	2	1	C	2	1	1158	1	Ⴁ	cut_ei_stereo_44KHz.wav
4	174	4	3	2	I	1	0	783	1	Ⴡ	cut_n_stereo_44KHz.wav
4	175	3	3	2	I	1	0	1177	0	Ⴇ	cut_n_stereo_44KHz.wav
4	176	1	1	1	C	2	1	1338	1	Ⴂ	cut_j_stereo_44KHz.wav
4	177	4	3	2	I	1	0	648	1	Ⴡ	cut_n_stereo_44KHz.wav
4	178	3	4	2	I	1	0	1156	0	Ⴇ	cut_ui_stereo_44KHz.wav
4	179	2	2	1	C	2	1	894	1	Ⴁ	cut_ei_stereo_44KHz.wav
4	180	1	2	0	C	1	1	635	1	Ⴂ	cut_ei_stereo_44KHz.wav
4	181	2	1	0	C	1	1	1034	1	Ⴁ	cut_j_stereo_44KHz.wav
4	182	3	3	2	I	1	0	933	1	Ⴇ	cut_n_stereo_44KHz.wav
4	183	4	4	2	I	1	0	695	0	Ⴡ	cut_ui_stereo_44KHz.wav
4	184	1	1	1	C	2	1	1427	1	Ⴂ	cut_j_stereo_44KHz.wav
4	185	2	2	1	C	2	1	1224	1	Ⴁ	cut_ei_stereo_44KHz.wav
4	186	3	3	2	I	1	0	1310	1	Ⴇ	cut_n_stereo_44KHz.wav
4	187	4	3	2	I	1	0	1265	0	Ⴡ	cut_n_stereo_44KHz.wav
4	188	1	1	1	C	2	1	1501	1	Ⴂ	cut_j_stereo_44KHz.wav
4	189	3	4	2	I	1	0	690	1	Ⴇ	cut_ui_stereo_44KHz.wav
4	190	4	4	2	I	1	0	602	1	Ⴡ	cut_ui_stereo_44KHz.wav
4	191	1	2	0	C	1	1	884	1	Ⴂ	cut_ei_stereo_44KHz.wav
4	192	2	1	0	C	1	1	945	1	Ⴁ	cut_j_stereo_44KHz.wav
4	193	1	2	0	C	1	1	1169	1	Ⴂ	cut_ei_stereo_44KHz.wav
4	194	2	2	1	C	2	1	838	1	Ⴁ	cut_ei_stereo_44KHz.wav
4	195	4	3	2	I	1	0	683	1	Ⴡ	cut_n_stereo_44KHz.wav
4	196	3	3	2	I	1	0	699	0	Ⴇ	cut_n_stereo_44KHz.wav
4	197	1	1	1	C	2	1	1063	1	Ⴂ	cut_j_stereo_44KHz.wav
4	198	2	1	0	C	1	1	834	1	Ⴁ	cut_j_stereo_44KHz.wav
4	199	3	4	2	I	1	0	643	0	Ⴇ	cut_ui_stereo_44KHz.wav
4	200	4	4	2	I	1	0	547	0	Ⴡ	cut_ui_stereo_44KHz.wav
