block	trial	Vstim	Astim	match	C/I	resp	result	RT	fb	V-file	A-file
LR

0	1	1	1	1	C	0	0	0	0	Ⴋ	cut_ee_stereo_44KHz.wav
0	2	1	2	0	C	0	0	0	0	Ⴋ	cut_g_stereo_44KHz.wav
0	3	2	3	1	C	0	0	0	0	Ⴉ	cut_eeuw_stereo_44KHz.wav
0	4	2	4	0	C	0	0	0	0	Ⴉ	cut_oo_stereo_44KHz.wav
0	5	2	3	1	C	0	0	0	0	Ⴉ	cut_eeuw_stereo_44KHz.wav
0	6	1	2	0	C	0	0	0	0	Ⴋ	cut_g_stereo_44KHz.wav
0	7	2	4	0	C	2	0	1813	0	Ⴉ	cut_oo_stereo_44KHz.wav
0	8	1	1	1	C	2	1	867	1	Ⴋ	cut_ee_stereo_44KHz.wav
0	9	1	2	0	C	1	1	1269	1	Ⴋ	cut_g_stereo_44KHz.wav
0	10	1	1	1	C	2	1	949	1	Ⴋ	cut_ee_stereo_44KHz.wav
0	11	2	4	0	C	1	1	1012	1	Ⴉ	cut_oo_stereo_44KHz.wav
0	12	2	3	1	C	2	1	911	1	Ⴉ	cut_eeuw_stereo_44KHz.wav
0	13	1	2	0	C	1	1	978	1	Ⴋ	cut_g_stereo_44KHz.wav
0	14	1	1	1	C	2	1	521	1	Ⴋ	cut_ee_stereo_44KHz.wav
0	15	2	3	1	C	1	0	785	0	Ⴉ	cut_eeuw_stereo_44KHz.wav
0	16	2	4	0	C	2	0	469	0	Ⴉ	cut_oo_stereo_44KHz.wav
0	17	2	4	0	C	1	1	787	1	Ⴉ	cut_oo_stereo_44KHz.wav
0	18	1	2	0	C	1	1	1944	1	Ⴋ	cut_g_stereo_44KHz.wav
0	19	2	3	1	C	1	0	779	0	Ⴉ	cut_eeuw_stereo_44KHz.wav
0	20	1	1	1	C	2	1	639	1	Ⴋ	cut_ee_stereo_44KHz.wav
0	21	2	3	1	C	1	0	1082	0	Ⴉ	cut_eeuw_stereo_44KHz.wav
0	22	1	1	1	C	2	1	350	1	Ⴋ	cut_ee_stereo_44KHz.wav
0	23	1	2	0	C	1	1	1055	1	Ⴋ	cut_g_stereo_44KHz.wav
0	24	2	4	0	C	2	0	1113	0	Ⴉ	cut_oo_stereo_44KHz.wav
0	25	2	3	1	C	2	1	1414	1	Ⴉ	cut_eeuw_stereo_44KHz.wav
0	26	1	1	1	C	2	1	1022	1	Ⴋ	cut_ee_stereo_44KHz.wav
0	27	2	4	0	C	1	1	964	1	Ⴉ	cut_oo_stereo_44KHz.wav
0	28	1	2	0	C	1	1	1092	1	Ⴋ	cut_g_stereo_44KHz.wav
0	29	2	3	1	C	2	1	983	1	Ⴉ	cut_eeuw_stereo_44KHz.wav
0	30	1	1	1	C	2	1	790	1	Ⴋ	cut_ee_stereo_44KHz.wav
avg_resp = 975
1	1	4	3	2	I	1	0	1934	1	Ⴔ	cut_g_stereo_44KHz.wav
1	2	1	2	0	C	2	0	1201	0	Ⴖ	cut_h_stereo_44KHz.wav
1	3	3	3	2	I	2	0	740	1	Ⴌ	cut_g_stereo_44KHz.wav
1	4	2	2	1	C	1	0	984	0	Ⴏ	cut_h_stereo_44KHz.wav
1	5	3	4	2	I	2	0	810	0	Ⴌ	cut_l_stereo_44KHz.wav
1	6	4	4	2	I	2	0	1138	0	Ⴔ	cut_l_stereo_44KHz.wav
1	7	2	1	0	C	1	1	779	1	Ⴏ	cut_w_stereo_44KHz.wav
1	8	1	1	1	C	2	1	472	1	Ⴖ	cut_w_stereo_44KHz.wav
1	9	4	4	2	I	1	0	565	0	Ⴔ	cut_l_stereo_44KHz.wav
1	10	1	2	0	C	2	0	472	0	Ⴖ	cut_h_stereo_44KHz.wav
1	11	2	2	1	C	1	0	298	0	Ⴏ	cut_h_stereo_44KHz.wav
1	12	3	3	2	I	2	0	525	1	Ⴌ	cut_g_stereo_44KHz.wav
1	13	4	3	2	I	2	0	343	0	Ⴔ	cut_g_stereo_44KHz.wav
1	14	2	1	0	C	1	1	302	1	Ⴏ	cut_w_stereo_44KHz.wav
1	15	3	4	2	I	2	0	592	0	Ⴌ	cut_l_stereo_44KHz.wav
1	16	1	1	1	C	2	1	1081	1	Ⴖ	cut_w_stereo_44KHz.wav
1	17	2	2	1	C	2	1	873	1	Ⴏ	cut_h_stereo_44KHz.wav
1	18	3	4	2	I	1	0	689	0	Ⴌ	cut_l_stereo_44KHz.wav
1	19	1	2	0	C	2	0	709	0	Ⴖ	cut_h_stereo_44KHz.wav
1	20	4	4	2	I	1	0	926	0	Ⴔ	cut_l_stereo_44KHz.wav
1	21	2	1	0	C	2	0	400	0	Ⴏ	cut_w_stereo_44KHz.wav
1	22	3	3	2	I	1	0	304	0	Ⴌ	cut_g_stereo_44KHz.wav
1	23	1	1	1	C	2	1	603	1	Ⴖ	cut_w_stereo_44KHz.wav
1	24	4	3	2	I	1	0	1009	1	Ⴔ	cut_g_stereo_44KHz.wav
1	25	2	1	0	C	2	0	602	0	Ⴏ	cut_w_stereo_44KHz.wav
1	26	3	4	2	I	1	0	680	0	Ⴌ	cut_l_stereo_44KHz.wav
1	27	4	4	2	I	2	0	129	0	Ⴔ	cut_l_stereo_44KHz.wav
1	28	1	2	0	C	1	1	802	1	Ⴖ	cut_h_stereo_44KHz.wav
1	29	4	3	2	I	1	0	1251	0	Ⴔ	cut_g_stereo_44KHz.wav
1	30	3	3	2	I	2	0	423	1	Ⴌ	cut_g_stereo_44KHz.wav
1	31	1	1	1	C	1	0	1082	0	Ⴖ	cut_w_stereo_44KHz.wav
1	32	2	2	1	C	2	1	687	1	Ⴏ	cut_h_stereo_44KHz.wav
1	33	4	3	2	I	1	0	1436	1	Ⴔ	cut_g_stereo_44KHz.wav
1	34	3	3	2	I	2	0	1142	0	Ⴌ	cut_g_stereo_44KHz.wav
1	35	2	1	0	C	2	0	840	0	Ⴏ	cut_w_stereo_44KHz.wav
1	36	1	1	1	C	1	0	282	0	Ⴖ	cut_w_stereo_44KHz.wav
1	37	3	4	2	I	2	0	506	1	Ⴌ	cut_l_stereo_44KHz.wav
1	38	4	4	2	I	2	0	383	1	Ⴔ	cut_l_stereo_44KHz.wav
1	39	2	2	1	C	1	0	717	0	Ⴏ	cut_h_stereo_44KHz.wav
1	40	1	2	0	C	2	0	391	0	Ⴖ	cut_h_stereo_44KHz.wav
1	41	2	2	1	C	1	0	591	0	Ⴏ	cut_h_stereo_44KHz.wav
1	42	4	3	2	I	2	0	444	1	Ⴔ	cut_g_stereo_44KHz.wav
1	43	1	1	1	C	2	1	427	1	Ⴖ	cut_w_stereo_44KHz.wav
1	44	3	4	2	I	2	0	506	0	Ⴌ	cut_l_stereo_44KHz.wav
1	45	4	4	2	I	2	0	516	1	Ⴔ	cut_l_stereo_44KHz.wav
1	46	3	3	2	I	1	0	292	1	Ⴌ	cut_g_stereo_44KHz.wav
1	47	1	2	0	C	2	0	465	0	Ⴖ	cut_h_stereo_44KHz.wav
1	48	2	1	0	C	1	1	311	1	Ⴏ	cut_w_stereo_44KHz.wav
1	49	4	4	2	I	2	0	348	0	Ⴔ	cut_l_stereo_44KHz.wav
1	50	2	2	1	C	2	1	563	1	Ⴏ	cut_h_stereo_44KHz.wav
1	51	3	3	2	I	2	0	516	1	Ⴌ	cut_g_stereo_44KHz.wav
1	52	1	1	1	C	2	1	949	1	Ⴖ	cut_w_stereo_44KHz.wav
1	53	4	3	2	I	1	0	451	0	Ⴔ	cut_g_stereo_44KHz.wav
1	54	2	1	0	C	2	0	270	0	Ⴏ	cut_w_stereo_44KHz.wav
1	55	3	4	2	I	1	0	377	1	Ⴌ	cut_l_stereo_44KHz.wav
1	56	1	2	0	C	2	0	699	0	Ⴖ	cut_h_stereo_44KHz.wav
1	57	2	1	0	C	1	1	206	1	Ⴏ	cut_w_stereo_44KHz.wav
1	58	1	1	1	C	2	1	270	1	Ⴖ	cut_w_stereo_44KHz.wav
1	59	4	4	2	I	2	0	337	0	Ⴔ	cut_l_stereo_44KHz.wav
1	60	3	3	2	I	1	0	220	1	Ⴌ	cut_g_stereo_44KHz.wav
1	61	1	2	0	C	2	0	679	0	Ⴖ	cut_h_stereo_44KHz.wav
1	62	4	3	2	I	1	0	328	1	Ⴔ	cut_g_stereo_44KHz.wav
1	63	2	2	1	C	1	0	687	0	Ⴏ	cut_h_stereo_44KHz.wav
1	64	3	4	2	I	2	0	93	1	Ⴌ	cut_l_stereo_44KHz.wav
1	65	2	1	0	C	1	1	318	1	Ⴏ	cut_w_stereo_44KHz.wav
1	66	1	2	0	C	2	0	306	0	Ⴖ	cut_h_stereo_44KHz.wav
1	67	3	4	2	I	1	0	216	1	Ⴌ	cut_l_stereo_44KHz.wav
1	68	4	4	2	I	2	0	390	0	Ⴔ	cut_l_stereo_44KHz.wav
1	69	1	1	1	C	1	0	192	0	Ⴖ	cut_w_stereo_44KHz.wav
1	70	3	3	2	I	2	0	321	0	Ⴌ	cut_g_stereo_44KHz.wav
1	71	2	2	1	C	2	1	1235	1	Ⴏ	cut_h_stereo_44KHz.wav
1	72	4	3	2	I	1	0	510	0	Ⴔ	cut_g_stereo_44KHz.wav
1	73	3	4	2	I	2	0	259	1	Ⴌ	cut_l_stereo_44KHz.wav
1	74	1	1	1	C	2	1	288	1	Ⴖ	cut_w_stereo_44KHz.wav
1	75	4	4	2	I	1	0	335	0	Ⴔ	cut_l_stereo_44KHz.wav
1	76	2	1	0	C	2	0	633	0	Ⴏ	cut_w_stereo_44KHz.wav
1	77	4	3	2	I	1	0	794	1	Ⴔ	cut_g_stereo_44KHz.wav
1	78	1	2	0	C	2	0	296	0	Ⴖ	cut_h_stereo_44KHz.wav
1	79	3	3	2	I	2	0	169	0	Ⴌ	cut_g_stereo_44KHz.wav
1	80	2	2	1	C	1	0	50	0	Ⴏ	cut_h_stereo_44KHz.wav
1	81	3	3	2	I	2	0	431	0	Ⴌ	cut_g_stereo_44KHz.wav
1	82	4	4	2	I	2	0	180	1	Ⴔ	cut_l_stereo_44KHz.wav
1	83	1	2	0	C	2	0	299	0	Ⴖ	cut_h_stereo_44KHz.wav
1	84	2	2	1	C	2	1	247	1	Ⴏ	cut_h_stereo_44KHz.wav
1	85	1	1	1	C	1	0	344	0	Ⴖ	cut_w_stereo_44KHz.wav
1	86	4	3	2	I	2	0	606	1	Ⴔ	cut_g_stereo_44KHz.wav
1	87	2	1	0	C	2	0	996	0	Ⴏ	cut_w_stereo_44KHz.wav
1	88	3	4	2	I	1	0	748	1	Ⴌ	cut_l_stereo_44KHz.wav
1	89	4	4	2	I	2	0	121	1	Ⴔ	cut_l_stereo_44KHz.wav
1	90	3	3	2	I	2	0	253	0	Ⴌ	cut_g_stereo_44KHz.wav
1	91	1	2	0	C	1	1	298	1	Ⴖ	cut_h_stereo_44KHz.wav
1	92	2	2	1	C	2	1	178	1	Ⴏ	cut_h_stereo_44KHz.wav
1	93	4	3	2	I	2	0	340	0	Ⴔ	cut_g_stereo_44KHz.wav
1	94	2	1	0	C	1	1	396	1	Ⴏ	cut_w_stereo_44KHz.wav
1	95	3	4	2	I	2	0	748	0	Ⴌ	cut_l_stereo_44KHz.wav
1	96	1	1	1	C	2	1	299	1	Ⴖ	cut_w_stereo_44KHz.wav
1	97	3	3	2	I	2	0	1005	0	Ⴌ	cut_g_stereo_44KHz.wav
1	98	1	1	1	C	1	0	522	0	Ⴖ	cut_w_stereo_44KHz.wav
1	99	4	4	2	I	2	0	853	0	Ⴔ	cut_l_stereo_44KHz.wav
1	100	2	1	0	C	2	0	336	0	Ⴏ	cut_w_stereo_44KHz.wav
1	101	1	2	0	C	1	1	1143	1	Ⴖ	cut_h_stereo_44KHz.wav
1	102	2	2	1	C	1	0	235	0	Ⴏ	cut_h_stereo_44KHz.wav
1	103	3	4	2	I	2	0	104	1	Ⴌ	cut_l_stereo_44KHz.wav
1	104	4	3	2	I	2	0	275	1	Ⴔ	cut_g_stereo_44KHz.wav
1	105	1	2	0	C	2	0	358	0	Ⴖ	cut_h_stereo_44KHz.wav
1	106	3	3	2	I	1	0	329	1	Ⴌ	cut_g_stereo_44KHz.wav
1	107	2	1	0	C	1	1	257	1	Ⴏ	cut_w_stereo_44KHz.wav
1	108	4	4	2	I	2	0	314	0	Ⴔ	cut_l_stereo_44KHz.wav
1	109	2	2	1	C	1	0	306	0	Ⴏ	cut_h_stereo_44KHz.wav
1	110	4	3	2	I	2	0	637	0	Ⴔ	cut_g_stereo_44KHz.wav
1	111	3	4	2	I	2	0	192	0	Ⴌ	cut_l_stereo_44KHz.wav
1	112	1	1	1	C	2	1	504	1	Ⴖ	cut_w_stereo_44KHz.wav
1	113	4	4	2	I	2	0	756	1	Ⴔ	cut_l_stereo_44KHz.wav
1	114	3	4	2	I	1	0	737	1	Ⴌ	cut_l_stereo_44KHz.wav
1	115	1	1	1	C	2	1	583	1	Ⴖ	cut_w_stereo_44KHz.wav
1	116	2	2	1	C	2	1	1253	1	Ⴏ	cut_h_stereo_44KHz.wav
1	117	4	3	2	I	2	0	1333	1	Ⴔ	cut_g_stereo_44KHz.wav
1	118	2	1	0	C	1	1	1596	1	Ⴏ	cut_w_stereo_44KHz.wav
1	119	3	3	2	I	1	0	1048	0	Ⴌ	cut_g_stereo_44KHz.wav
1	120	1	2	0	C	1	1	1026	1	Ⴖ	cut_h_stereo_44KHz.wav
1	121	3	3	2	I	2	0	1095	0	Ⴌ	cut_g_stereo_44KHz.wav
1	122	1	1	1	C	2	1	800	1	Ⴖ	cut_w_stereo_44KHz.wav
1	123	4	4	2	I	1	0	1477	1	Ⴔ	cut_l_stereo_44KHz.wav
1	124	2	1	0	C	1	1	1498	1	Ⴏ	cut_w_stereo_44KHz.wav
1	125	3	4	2	I	2	0	846	1	Ⴌ	cut_l_stereo_44KHz.wav
1	126	1	2	0	C	1	1	1404	1	Ⴖ	cut_h_stereo_44KHz.wav
1	127	2	2	1	C	2	1	751	1	Ⴏ	cut_h_stereo_44KHz.wav
1	128	4	3	2	I	2	0	1080	0	Ⴔ	cut_g_stereo_44KHz.wav
1	129	3	3	2	I	2	0	778	0	Ⴌ	cut_g_stereo_44KHz.wav
1	130	4	4	2	I	0	0	0	0	Ⴔ	cut_l_stereo_44KHz.wav
1	131	2	1	0	C	2	0	690	0	Ⴏ	cut_w_stereo_44KHz.wav
1	132	1	2	0	C	1	1	392	1	Ⴖ	cut_h_stereo_44KHz.wav
1	133	3	4	2	I	2	0	516	1	Ⴌ	cut_l_stereo_44KHz.wav
1	134	4	3	2	I	2	0	918	1	Ⴔ	cut_g_stereo_44KHz.wav
1	135	1	1	1	C	2	1	709	1	Ⴖ	cut_w_stereo_44KHz.wav
1	136	2	2	1	C	2	1	795	1	Ⴏ	cut_h_stereo_44KHz.wav
1	137	4	4	2	I	1	0	854	0	Ⴔ	cut_l_stereo_44KHz.wav
1	138	3	4	2	I	2	0	974	0	Ⴌ	cut_l_stereo_44KHz.wav
1	139	2	2	1	C	2	1	1044	1	Ⴏ	cut_h_stereo_44KHz.wav
1	140	1	1	1	C	1	0	1167	0	Ⴖ	cut_w_stereo_44KHz.wav
1	141	4	3	2	I	2	0	724	1	Ⴔ	cut_g_stereo_44KHz.wav
1	142	2	1	0	C	2	0	885	0	Ⴏ	cut_w_stereo_44KHz.wav
1	143	3	3	2	I	1	0	1204	1	Ⴌ	cut_g_stereo_44KHz.wav
1	144	1	2	0	C	1	1	1136	1	Ⴖ	cut_h_stereo_44KHz.wav
1	145	2	2	1	C	2	1	1493	1	Ⴏ	cut_h_stereo_44KHz.wav
1	146	1	1	1	C	2	1	1116	1	Ⴖ	cut_w_stereo_44KHz.wav
1	147	4	3	2	I	2	0	799	1	Ⴔ	cut_g_stereo_44KHz.wav
1	148	3	4	2	I	2	0	884	1	Ⴌ	cut_l_stereo_44KHz.wav
1	149	2	1	0	C	1	1	1109	1	Ⴏ	cut_w_stereo_44KHz.wav
1	150	4	4	2	I	1	0	1238	0	Ⴔ	cut_l_stereo_44KHz.wav
1	151	1	2	0	C	1	1	1012	1	Ⴖ	cut_h_stereo_44KHz.wav
1	152	3	3	2	I	1	0	1103	0	Ⴌ	cut_g_stereo_44KHz.wav
1	153	2	2	1	C	2	1	1361	1	Ⴏ	cut_h_stereo_44KHz.wav
1	154	3	4	2	I	2	0	1300	1	Ⴌ	cut_l_stereo_44KHz.wav
1	155	1	2	0	C	1	1	1383	1	Ⴖ	cut_h_stereo_44KHz.wav
1	156	4	4	2	I	2	0	1218	0	Ⴔ	cut_l_stereo_44KHz.wav
1	157	2	1	0	C	2	0	799	0	Ⴏ	cut_w_stereo_44KHz.wav
1	158	3	3	2	I	2	0	879	0	Ⴌ	cut_g_stereo_44KHz.wav
1	159	1	1	1	C	2	1	1101	1	Ⴖ	cut_w_stereo_44KHz.wav
1	160	4	3	2	I	2	0	1158	1	Ⴔ	cut_g_stereo_44KHz.wav
1	161	1	1	1	C	2	1	971	1	Ⴖ	cut_w_stereo_44KHz.wav
1	162	4	3	2	I	1	0	1239	0	Ⴔ	cut_g_stereo_44KHz.wav
1	163	3	4	2	I	2	0	750	0	Ⴌ	cut_l_stereo_44KHz.wav
1	164	2	2	1	C	2	1	1189	1	Ⴏ	cut_h_stereo_44KHz.wav
1	165	1	2	0	C	2	0	510	0	Ⴖ	cut_h_stereo_44KHz.wav
1	166	3	3	2	I	2	0	667	0	Ⴌ	cut_g_stereo_44KHz.wav
1	167	2	1	0	C	2	0	571	0	Ⴏ	cut_w_stereo_44KHz.wav
1	168	4	4	2	I	1	0	347	1	Ⴔ	cut_l_stereo_44KHz.wav
1	169	3	3	2	I	2	0	619	0	Ⴌ	cut_g_stereo_44KHz.wav
1	170	2	2	1	C	1	0	390	0	Ⴏ	cut_h_stereo_44KHz.wav
1	171	4	3	2	I	2	0	739	0	Ⴔ	cut_g_stereo_44KHz.wav
1	172	1	2	0	C	2	0	356	0	Ⴖ	cut_h_stereo_44KHz.wav
1	173	3	4	2	I	2	0	395	0	Ⴌ	cut_l_stereo_44KHz.wav
1	174	1	1	1	C	2	1	966	1	Ⴖ	cut_w_stereo_44KHz.wav
1	175	4	4	2	I	2	0	498	1	Ⴔ	cut_l_stereo_44KHz.wav
1	176	2	1	0	C	2	0	286	0	Ⴏ	cut_w_stereo_44KHz.wav
1	177	4	4	2	I	1	0	611	1	Ⴔ	cut_l_stereo_44KHz.wav
1	178	3	3	2	I	2	0	1487	0	Ⴌ	cut_g_stereo_44KHz.wav
1	179	1	1	1	C	2	1	1351	1	Ⴖ	cut_w_stereo_44KHz.wav
1	180	2	1	0	C	2	0	516	0	Ⴏ	cut_w_stereo_44KHz.wav
1	181	4	3	2	I	2	0	749	0	Ⴔ	cut_g_stereo_44KHz.wav
1	182	3	4	2	I	2	0	590	1	Ⴌ	cut_l_stereo_44KHz.wav
1	183	1	2	0	C	1	1	1011	1	Ⴖ	cut_h_stereo_44KHz.wav
1	184	2	2	1	C	2	1	784	1	Ⴏ	cut_h_stereo_44KHz.wav
1	185	4	4	2	I	1	0	1500	0	Ⴔ	cut_l_stereo_44KHz.wav
1	186	1	1	1	C	2	1	887	1	Ⴖ	cut_w_stereo_44KHz.wav
1	187	3	4	2	I	2	0	1656	1	Ⴌ	cut_l_stereo_44KHz.wav
1	188	2	1	0	C	1	1	1273	1	Ⴏ	cut_w_stereo_44KHz.wav
1	189	3	3	2	I	1	0	1752	1	Ⴌ	cut_g_stereo_44KHz.wav
1	190	1	2	0	C	2	0	700	0	Ⴖ	cut_h_stereo_44KHz.wav
1	191	2	2	1	C	2	1	666	1	Ⴏ	cut_h_stereo_44KHz.wav
1	192	4	3	2	I	1	0	1290	0	Ⴔ	cut_g_stereo_44KHz.wav
1	193	3	3	2	I	2	0	1321	1	Ⴌ	cut_g_stereo_44KHz.wav
1	194	4	3	2	I	2	0	1523	1	Ⴔ	cut_g_stereo_44KHz.wav
1	195	1	1	1	C	2	1	749	1	Ⴖ	cut_w_stereo_44KHz.wav
1	196	2	2	1	C	2	1	964	1	Ⴏ	cut_h_stereo_44KHz.wav
1	197	1	2	0	C	1	1	814	1	Ⴖ	cut_h_stereo_44KHz.wav
1	198	3	4	2	I	2	0	1233	1	Ⴌ	cut_l_stereo_44KHz.wav
1	199	4	4	2	I	1	0	863	1	Ⴔ	cut_l_stereo_44KHz.wav
1	200	2	1	0	C	1	1	970	1	Ⴏ	cut_w_stereo_44KHz.wav
2	1	3	3	2	I	0	0	0	0	Ⴒ	cut_j_stereo_44KHz.wav
2	2	2	1	0	C	2	0	1211	0	Ⴉ	cut_s_stereo_44KHz.wav
2	3	4	4	2	I	2	0	793	0	Ⴕ	cut_ui_stereo_44KHz.wav
2	4	1	1	1	C	1	0	289	0	Ⴐ	cut_s_stereo_44KHz.wav
2	5	4	3	2	I	2	0	890	1	Ⴕ	cut_j_stereo_44KHz.wav
2	6	3	4	2	I	2	0	1135	0	Ⴒ	cut_ui_stereo_44KHz.wav
2	7	1	2	0	C	2	0	1211	0	Ⴐ	cut_ei_stereo_44KHz.wav
2	8	2	2	1	C	2	1	562	1	Ⴉ	cut_ei_stereo_44KHz.wav
2	9	3	3	2	I	2	0	898	1	Ⴒ	cut_j_stereo_44KHz.wav
2	10	4	4	2	I	2	0	1151	0	Ⴕ	cut_ui_stereo_44KHz.wav
2	11	2	1	0	C	1	1	1077	1	Ⴉ	cut_s_stereo_44KHz.wav
2	12	1	2	0	C	2	0	811	0	Ⴐ	cut_ei_stereo_44KHz.wav
2	13	4	3	2	I	2	0	868	1	Ⴕ	cut_j_stereo_44KHz.wav
2	14	3	4	2	I	1	0	335	1	Ⴒ	cut_ui_stereo_44KHz.wav
2	15	2	2	1	C	2	1	292	1	Ⴉ	cut_ei_stereo_44KHz.wav
2	16	1	1	1	C	2	1	1589	1	Ⴐ	cut_s_stereo_44KHz.wav
2	17	4	3	2	I	2	0	480	0	Ⴕ	cut_j_stereo_44KHz.wav
2	18	1	1	1	C	2	1	967	1	Ⴐ	cut_s_stereo_44KHz.wav
2	19	3	4	2	I	1	0	972	0	Ⴒ	cut_ui_stereo_44KHz.wav
2	20	2	1	0	C	1	1	1098	1	Ⴉ	cut_s_stereo_44KHz.wav
2	21	3	3	2	I	2	0	895	0	Ⴒ	cut_j_stereo_44KHz.wav
2	22	2	2	1	C	2	1	769	1	Ⴉ	cut_ei_stereo_44KHz.wav
2	23	1	2	0	C	1	1	988	1	Ⴐ	cut_ei_stereo_44KHz.wav
2	24	4	4	2	I	2	0	795	1	Ⴕ	cut_ui_stereo_44KHz.wav
2	25	2	1	0	C	1	1	1153	1	Ⴉ	cut_s_stereo_44KHz.wav
2	26	1	2	0	C	2	0	620	0	Ⴐ	cut_ei_stereo_44KHz.wav
2	27	4	3	2	I	2	0	721	0	Ⴕ	cut_j_stereo_44KHz.wav
2	28	3	4	2	I	1	0	348	0	Ⴒ	cut_ui_stereo_44KHz.wav
2	29	2	2	1	C	2	1	520	1	Ⴉ	cut_ei_stereo_44KHz.wav
2	30	1	1	1	C	2	1	707	1	Ⴐ	cut_s_stereo_44KHz.wav
2	31	3	3	2	I	1	0	626	0	Ⴒ	cut_j_stereo_44KHz.wav
2	32	4	4	2	I	2	0	752	0	Ⴕ	cut_ui_stereo_44KHz.wav
2	33	2	2	1	C	1	0	333	0	Ⴉ	cut_ei_stereo_44KHz.wav
2	34	3	3	2	I	2	0	557	1	Ⴒ	cut_j_stereo_44KHz.wav
2	35	1	1	1	C	2	1	361	1	Ⴐ	cut_s_stereo_44KHz.wav
2	36	4	3	2	I	1	0	898	1	Ⴕ	cut_j_stereo_44KHz.wav
2	37	2	1	0	C	1	1	992	1	Ⴉ	cut_s_stereo_44KHz.wav
2	38	3	4	2	I	2	0	1229	1	Ⴒ	cut_ui_stereo_44KHz.wav
2	39	1	2	0	C	2	0	1113	0	Ⴐ	cut_ei_stereo_44KHz.wav
2	40	4	4	2	I	0	0	0	0	Ⴕ	cut_ui_stereo_44KHz.wav
2	41	3	4	2	I	1	0	1042	0	Ⴒ	cut_ui_stereo_44KHz.wav
2	42	1	1	1	C	2	1	1048	1	Ⴐ	cut_s_stereo_44KHz.wav
2	43	2	1	0	C	1	1	974	1	Ⴉ	cut_s_stereo_44KHz.wav
2	44	4	3	2	I	2	0	970	1	Ⴕ	cut_j_stereo_44KHz.wav
2	45	3	3	2	I	1	0	794	0	Ⴒ	cut_j_stereo_44KHz.wav
2	46	2	2	1	C	1	0	1052	0	Ⴉ	cut_ei_stereo_44KHz.wav
2	47	1	2	0	C	2	0	890	0	Ⴐ	cut_ei_stereo_44KHz.wav
2	48	4	4	2	I	2	0	928	0	Ⴕ	cut_ui_stereo_44KHz.wav
2	49	2	1	0	C	1	1	1004	1	Ⴉ	cut_s_stereo_44KHz.wav
2	50	3	4	2	I	1	0	987	0	Ⴒ	cut_ui_stereo_44KHz.wav
2	51	1	1	1	C	1	0	1439	0	Ⴐ	cut_s_stereo_44KHz.wav
2	52	4	3	2	I	2	0	1227	0	Ⴕ	cut_j_stereo_44KHz.wav
2	53	3	3	2	I	2	0	559	1	Ⴒ	cut_j_stereo_44KHz.wav
2	54	1	2	0	C	1	1	526	1	Ⴐ	cut_ei_stereo_44KHz.wav
2	55	2	2	1	C	1	0	979	0	Ⴉ	cut_ei_stereo_44KHz.wav
2	56	4	4	2	I	2	0	331	0	Ⴕ	cut_ui_stereo_44KHz.wav
2	57	1	1	1	C	2	1	1015	1	Ⴐ	cut_s_stereo_44KHz.wav
2	58	3	3	2	I	2	0	999	1	Ⴒ	cut_j_stereo_44KHz.wav
2	59	4	3	2	I	1	0	780	0	Ⴕ	cut_j_stereo_44KHz.wav
2	60	2	1	0	C	1	1	1002	1	Ⴉ	cut_s_stereo_44KHz.wav
2	61	3	4	2	I	2	0	1600	0	Ⴒ	cut_ui_stereo_44KHz.wav
2	62	2	2	1	C	2	1	952	1	Ⴉ	cut_ei_stereo_44KHz.wav
2	63	1	2	0	C	1	1	829	1	Ⴐ	cut_ei_stereo_44KHz.wav
2	64	4	4	2	I	2	0	998	0	Ⴕ	cut_ui_stereo_44KHz.wav
2	65	3	3	2	I	1	0	1124	0	Ⴒ	cut_j_stereo_44KHz.wav
2	66	4	4	2	I	2	0	237	0	Ⴕ	cut_ui_stereo_44KHz.wav
2	67	1	2	0	C	2	0	687	0	Ⴐ	cut_ei_stereo_44KHz.wav
2	68	2	2	1	C	1	0	1156	0	Ⴉ	cut_ei_stereo_44KHz.wav
2	69	1	1	1	C	2	1	603	1	Ⴐ	cut_s_stereo_44KHz.wav
2	70	4	3	2	I	1	0	694	0	Ⴕ	cut_j_stereo_44KHz.wav
2	71	3	4	2	I	2	0	279	0	Ⴒ	cut_ui_stereo_44KHz.wav
2	72	2	1	0	C	1	1	549	1	Ⴉ	cut_s_stereo_44KHz.wav
2	73	3	4	2	I	2	0	361	1	Ⴒ	cut_ui_stereo_44KHz.wav
2	74	4	3	2	I	2	0	428	0	Ⴕ	cut_j_stereo_44KHz.wav
2	75	2	1	0	C	1	1	459	1	Ⴉ	cut_s_stereo_44KHz.wav
2	76	1	1	1	C	2	1	793	1	Ⴐ	cut_s_stereo_44KHz.wav
2	77	4	4	2	I	1	0	570	0	Ⴕ	cut_ui_stereo_44KHz.wav
2	78	2	2	1	C	2	1	219	1	Ⴉ	cut_ei_stereo_44KHz.wav
2	79	1	2	0	C	2	0	991	0	Ⴐ	cut_ei_stereo_44KHz.wav
2	80	3	3	2	I	1	0	35	0	Ⴒ	cut_j_stereo_44KHz.wav
2	81	4	3	2	I	2	0	728	0	Ⴕ	cut_j_stereo_44KHz.wav
2	82	2	1	0	C	1	1	1049	1	Ⴉ	cut_s_stereo_44KHz.wav
2	83	3	3	2	I	2	0	869	0	Ⴒ	cut_j_stereo_44KHz.wav
2	84	1	1	1	C	1	0	524	0	Ⴐ	cut_s_stereo_44KHz.wav
2	85	2	2	1	C	2	1	328	1	Ⴉ	cut_ei_stereo_44KHz.wav
2	86	1	2	0	C	1	1	920	1	Ⴐ	cut_ei_stereo_44KHz.wav
2	87	4	4	2	I	2	0	1087	1	Ⴕ	cut_ui_stereo_44KHz.wav
2	88	3	4	2	I	2	0	1220	0	Ⴒ	cut_ui_stereo_44KHz.wav
2	89	1	2	0	C	2	0	1421	0	Ⴐ	cut_ei_stereo_44KHz.wav
2	90	4	3	2	I	1	0	721	1	Ⴕ	cut_j_stereo_44KHz.wav
2	91	2	2	1	C	2	1	1450	1	Ⴉ	cut_ei_stereo_44KHz.wav
2	92	3	3	2	I	2	0	911	1	Ⴒ	cut_j_stereo_44KHz.wav
2	93	2	1	0	C	1	1	1061	1	Ⴉ	cut_s_stereo_44KHz.wav
2	94	4	4	2	I	2	0	1292	0	Ⴕ	cut_ui_stereo_44KHz.wav
2	95	1	1	1	C	2	1	1514	1	Ⴐ	cut_s_stereo_44KHz.wav
2	96	3	4	2	I	2	0	685	0	Ⴒ	cut_ui_stereo_44KHz.wav
2	97	2	1	0	C	1	1	1079	1	Ⴉ	cut_s_stereo_44KHz.wav
2	98	1	1	1	C	2	1	936	1	Ⴐ	cut_s_stereo_44KHz.wav
2	99	4	3	2	I	1	0	1514	0	Ⴕ	cut_j_stereo_44KHz.wav
2	100	3	3	2	I	2	0	1390	0	Ⴒ	cut_j_stereo_44KHz.wav
2	101	2	2	1	C	2	1	1311	1	Ⴉ	cut_ei_stereo_44KHz.wav
2	102	1	2	0	C	1	1	1061	1	Ⴐ	cut_ei_stereo_44KHz.wav
2	103	3	4	2	I	2	0	1035	0	Ⴒ	cut_ui_stereo_44KHz.wav
2	104	4	4	2	I	2	0	978	1	Ⴕ	cut_ui_stereo_44KHz.wav
2	105	2	1	0	C	1	1	600	1	Ⴉ	cut_s_stereo_44KHz.wav
2	106	4	3	2	I	2	0	580	0	Ⴕ	cut_j_stereo_44KHz.wav
2	107	1	1	1	C	1	0	310	0	Ⴐ	cut_s_stereo_44KHz.wav
2	108	3	3	2	I	2	0	295	1	Ⴒ	cut_j_stereo_44KHz.wav
2	109	1	2	0	C	1	1	520	1	Ⴐ	cut_ei_stereo_44KHz.wav
2	110	4	4	2	I	2	0	505	0	Ⴕ	cut_ui_stereo_44KHz.wav
2	111	3	4	2	I	1	0	580	0	Ⴒ	cut_ui_stereo_44KHz.wav
2	112	2	2	1	C	2	1	259	1	Ⴉ	cut_ei_stereo_44KHz.wav
2	113	4	3	2	I	2	0	283	1	Ⴕ	cut_j_stereo_44KHz.wav
2	114	2	2	1	C	2	1	517	1	Ⴉ	cut_ei_stereo_44KHz.wav
2	115	3	4	2	I	2	0	1096	1	Ⴒ	cut_ui_stereo_44KHz.wav
2	116	1	1	1	C	2	1	745	1	Ⴐ	cut_s_stereo_44KHz.wav
2	117	2	1	0	C	1	1	652	1	Ⴉ	cut_s_stereo_44KHz.wav
2	118	1	2	0	C	1	1	1166	1	Ⴐ	cut_ei_stereo_44KHz.wav
2	119	3	3	2	I	2	0	930	1	Ⴒ	cut_j_stereo_44KHz.wav
2	120	4	4	2	I	1	0	1041	1	Ⴕ	cut_ui_stereo_44KHz.wav
2	121	3	4	2	I	2	0	1017	1	Ⴒ	cut_ui_stereo_44KHz.wav
2	122	1	1	1	C	2	1	1435	1	Ⴐ	cut_s_stereo_44KHz.wav
2	123	4	3	2	I	2	0	1337	0	Ⴕ	cut_j_stereo_44KHz.wav
2	124	2	2	1	C	2	1	1228	1	Ⴉ	cut_ei_stereo_44KHz.wav
2	125	3	3	2	I	2	0	1168	1	Ⴒ	cut_j_stereo_44KHz.wav
2	126	4	4	2	I	2	0	957	1	Ⴕ	cut_ui_stereo_44KHz.wav
2	127	2	1	0	C	1	1	1564	1	Ⴉ	cut_s_stereo_44KHz.wav
2	128	1	2	0	C	1	1	1510	1	Ⴐ	cut_ei_stereo_44KHz.wav
2	129	4	4	2	I	2	0	1245	1	Ⴕ	cut_ui_stereo_44KHz.wav
2	130	3	3	2	I	2	0	933	1	Ⴒ	cut_j_stereo_44KHz.wav
2	131	2	1	0	C	1	1	987	1	Ⴉ	cut_s_stereo_44KHz.wav
2	132	1	1	1	C	2	1	973	1	Ⴐ	cut_s_stereo_44KHz.wav
2	133	4	3	2	I	2	0	1069	1	Ⴕ	cut_j_stereo_44KHz.wav
2	134	1	2	0	C	1	1	1129	1	Ⴐ	cut_ei_stereo_44KHz.wav
2	135	2	2	1	C	2	1	1101	1	Ⴉ	cut_ei_stereo_44KHz.wav
2	136	3	4	2	I	2	0	1090	0	Ⴒ	cut_ui_stereo_44KHz.wav
2	137	2	2	1	C	2	1	979	1	Ⴉ	cut_ei_stereo_44KHz.wav
2	138	4	3	2	I	2	0	1224	1	Ⴕ	cut_j_stereo_44KHz.wav
2	139	3	4	2	I	2	0	1498	1	Ⴒ	cut_ui_stereo_44KHz.wav
2	140	1	1	1	C	2	1	1273	1	Ⴐ	cut_s_stereo_44KHz.wav
2	141	2	1	0	C	1	1	752	1	Ⴉ	cut_s_stereo_44KHz.wav
2	142	1	2	0	C	2	0	1386	0	Ⴐ	cut_ei_stereo_44KHz.wav
2	143	3	3	2	I	2	0	1070	1	Ⴒ	cut_j_stereo_44KHz.wav
2	144	4	4	2	I	2	0	1435	1	Ⴕ	cut_ui_stereo_44KHz.wav
2	145	2	1	0	C	1	1	841	1	Ⴉ	cut_s_stereo_44KHz.wav
2	146	1	1	1	C	2	1	1030	1	Ⴐ	cut_s_stereo_44KHz.wav
2	147	3	4	2	I	2	0	1497	1	Ⴒ	cut_ui_stereo_44KHz.wav
2	148	4	4	2	I	2	0	1226	1	Ⴕ	cut_ui_stereo_44KHz.wav
2	149	3	3	2	I	2	0	1768	1	Ⴒ	cut_j_stereo_44KHz.wav
2	150	1	2	0	C	1	1	1242	1	Ⴐ	cut_ei_stereo_44KHz.wav
2	151	4	3	2	I	2	0	1261	1	Ⴕ	cut_j_stereo_44KHz.wav
2	152	2	2	1	C	2	1	1342	1	Ⴉ	cut_ei_stereo_44KHz.wav
2	153	3	4	2	I	2	0	1180	1	Ⴒ	cut_ui_stereo_44KHz.wav
2	154	4	4	2	I	2	0	1395	0	Ⴕ	cut_ui_stereo_44KHz.wav
2	155	2	1	0	C	1	1	1011	1	Ⴉ	cut_s_stereo_44KHz.wav
2	156	1	1	1	C	2	1	861	1	Ⴐ	cut_s_stereo_44KHz.wav
2	157	3	3	2	I	2	0	790	0	Ⴒ	cut_j_stereo_44KHz.wav
2	158	4	3	2	I	2	0	535	1	Ⴕ	cut_j_stereo_44KHz.wav
2	159	1	2	0	C	1	1	478	1	Ⴐ	cut_ei_stereo_44KHz.wav
2	160	2	2	1	C	2	1	491	1	Ⴉ	cut_ei_stereo_44KHz.wav
2	161	1	2	0	C	2	0	700	0	Ⴐ	cut_ei_stereo_44KHz.wav
2	162	3	4	2	I	1	0	1546	1	Ⴒ	cut_ui_stereo_44KHz.wav
2	163	4	3	2	I	2	0	1236	0	Ⴕ	cut_j_stereo_44KHz.wav
2	164	2	2	1	C	2	1	1226	1	Ⴉ	cut_ei_stereo_44KHz.wav
2	165	3	3	2	I	1	0	971	0	Ⴒ	cut_j_stereo_44KHz.wav
2	166	4	4	2	I	2	0	661	1	Ⴕ	cut_ui_stereo_44KHz.wav
2	167	1	1	1	C	2	1	623	1	Ⴐ	cut_s_stereo_44KHz.wav
2	168	2	1	0	C	1	1	988	1	Ⴉ	cut_s_stereo_44KHz.wav
2	169	4	3	2	I	2	0	356	1	Ⴕ	cut_j_stereo_44KHz.wav
2	170	2	2	1	C	2	1	1078	1	Ⴉ	cut_ei_stereo_44KHz.wav
2	171	3	4	2	I	1	0	928	1	Ⴒ	cut_ui_stereo_44KHz.wav
2	172	1	1	1	C	2	1	260	1	Ⴐ	cut_s_stereo_44KHz.wav
2	173	3	3	2	I	1	0	413	0	Ⴒ	cut_j_stereo_44KHz.wav
2	174	4	4	2	I	2	0	279	1	Ⴕ	cut_ui_stereo_44KHz.wav
2	175	1	2	0	C	2	0	1088	0	Ⴐ	cut_ei_stereo_44KHz.wav
2	176	2	1	0	C	1	1	889	1	Ⴉ	cut_s_stereo_44KHz.wav
2	177	4	3	2	I	2	0	1340	1	Ⴕ	cut_j_stereo_44KHz.wav
2	178	1	1	1	C	2	1	864	1	Ⴐ	cut_s_stereo_44KHz.wav
2	179	2	1	0	C	1	1	935	1	Ⴉ	cut_s_stereo_44KHz.wav
2	180	3	3	2	I	2	0	1629	1	Ⴒ	cut_j_stereo_44KHz.wav
2	181	1	2	0	C	2	0	1604	0	Ⴐ	cut_ei_stereo_44KHz.wav
2	182	3	4	2	I	2	0	789	1	Ⴒ	cut_ui_stereo_44KHz.wav
2	183	4	4	2	I	1	0	919	1	Ⴕ	cut_ui_stereo_44KHz.wav
2	184	2	2	1	C	2	1	897	1	Ⴉ	cut_ei_stereo_44KHz.wav
2	185	4	4	2	I	2	0	1150	0	Ⴕ	cut_ui_stereo_44KHz.wav
2	186	3	4	2	I	2	0	550	1	Ⴒ	cut_ui_stereo_44KHz.wav
2	187	2	2	1	C	2	1	1088	1	Ⴉ	cut_ei_stereo_44KHz.wav
2	188	1	1	1	C	2	1	1230	1	Ⴐ	cut_s_stereo_44KHz.wav
2	189	2	1	0	C	1	1	694	1	Ⴉ	cut_s_stereo_44KHz.wav
2	190	3	3	2	I	2	0	818	1	Ⴒ	cut_j_stereo_44KHz.wav
2	191	1	2	0	C	2	0	1100	0	Ⴐ	cut_ei_stereo_44KHz.wav
2	192	4	3	2	I	2	0	854	1	Ⴕ	cut_j_stereo_44KHz.wav
2	193	1	1	1	C	2	1	1298	1	Ⴐ	cut_s_stereo_44KHz.wav
2	194	2	2	1	C	2	1	1038	1	Ⴉ	cut_ei_stereo_44KHz.wav
2	195	3	4	2	I	2	0	835	0	Ⴒ	cut_ui_stereo_44KHz.wav
2	196	4	3	2	I	2	0	774	0	Ⴕ	cut_j_stereo_44KHz.wav
2	197	2	1	0	C	1	1	953	1	Ⴉ	cut_s_stereo_44KHz.wav
2	198	4	4	2	I	2	0	822	1	Ⴕ	cut_ui_stereo_44KHz.wav
2	199	1	2	0	C	2	0	810	0	Ⴐ	cut_ei_stereo_44KHz.wav
2	200	3	3	2	I	1	0	235	0	Ⴒ	cut_j_stereo_44KHz.wav
3	1	1	1	1	C	2	1	1018	1	Ⴃ	cut_oei_stereo_44KHz.wav
3	2	4	3	2	I	2	0	756	0	Ⴡ	cut_r_stereo_44KHz.wav
3	3	3	4	2	I	2	0	584	1	Ⴂ	cut_f_stereo_44KHz.wav
3	4	2	1	0	C	1	1	847	1	Ⴇ	cut_oei_stereo_44KHz.wav
3	5	1	2	0	C	2	0	762	0	Ⴃ	cut_n_stereo_44KHz.wav
3	6	4	4	2	I	2	0	1027	1	Ⴡ	cut_f_stereo_44KHz.wav
3	7	3	3	2	I	2	0	887	0	Ⴂ	cut_r_stereo_44KHz.wav
3	8	2	2	1	C	1	0	289	0	Ⴇ	cut_n_stereo_44KHz.wav
3	9	4	4	2	I	2	0	293	1	Ⴡ	cut_f_stereo_44KHz.wav
3	10	2	2	1	C	2	1	1100	1	Ⴇ	cut_n_stereo_44KHz.wav
3	11	3	4	2	I	1	0	258	0	Ⴂ	cut_f_stereo_44KHz.wav
3	12	1	2	0	C	2	0	275	0	Ⴃ	cut_n_stereo_44KHz.wav
3	13	4	3	2	I	2	0	405	1	Ⴡ	cut_r_stereo_44KHz.wav
3	14	2	1	0	C	1	1	765	1	Ⴇ	cut_oei_stereo_44KHz.wav
3	15	3	3	2	I	2	0	446	1	Ⴂ	cut_r_stereo_44KHz.wav
3	16	1	1	1	C	2	1	631	1	Ⴃ	cut_oei_stereo_44KHz.wav
3	17	2	2	1	C	1	0	993	0	Ⴇ	cut_n_stereo_44KHz.wav
3	18	4	3	2	I	2	0	864	0	Ⴡ	cut_r_stereo_44KHz.wav
3	19	1	2	0	C	1	1	180	1	Ⴃ	cut_n_stereo_44KHz.wav
3	20	3	3	2	I	2	0	253	0	Ⴂ	cut_r_stereo_44KHz.wav
3	21	1	1	1	C	2	1	309	1	Ⴃ	cut_oei_stereo_44KHz.wav
3	22	2	1	0	C	1	1	712	1	Ⴇ	cut_oei_stereo_44KHz.wav
3	23	3	4	2	I	2	0	1116	1	Ⴂ	cut_f_stereo_44KHz.wav
3	24	4	4	2	I	1	0	719	1	Ⴡ	cut_f_stereo_44KHz.wav
3	25	3	4	2	I	2	0	581	1	Ⴂ	cut_f_stereo_44KHz.wav
3	26	1	1	1	C	2	1	860	1	Ⴃ	cut_oei_stereo_44KHz.wav
3	27	4	4	2	I	1	0	1485	0	Ⴡ	cut_f_stereo_44KHz.wav
3	28	2	1	0	C	2	0	274	0	Ⴇ	cut_oei_stereo_44KHz.wav
3	29	4	3	2	I	2	0	707	1	Ⴡ	cut_r_stereo_44KHz.wav
3	30	2	2	1	C	2	1	1024	1	Ⴇ	cut_n_stereo_44KHz.wav
3	31	1	2	0	C	1	1	724	1	Ⴃ	cut_n_stereo_44KHz.wav
3	32	3	3	2	I	2	0	441	0	Ⴂ	cut_r_stereo_44KHz.wav
3	33	2	2	1	C	2	1	1334	1	Ⴇ	cut_n_stereo_44KHz.wav
3	34	4	4	2	I	1	0	1194	1	Ⴡ	cut_f_stereo_44KHz.wav
3	35	3	3	2	I	1	0	1670	0	Ⴂ	cut_r_stereo_44KHz.wav
3	36	1	1	1	C	2	1	592	1	Ⴃ	cut_oei_stereo_44KHz.wav
3	37	3	4	2	I	2	0	774	1	Ⴂ	cut_f_stereo_44KHz.wav
3	38	1	2	0	C	1	1	777	1	Ⴃ	cut_n_stereo_44KHz.wav
3	39	2	1	0	C	1	1	875	1	Ⴇ	cut_oei_stereo_44KHz.wav
3	40	4	3	2	I	2	0	553	1	Ⴡ	cut_r_stereo_44KHz.wav
3	41	3	4	2	I	2	0	719	0	Ⴂ	cut_f_stereo_44KHz.wav
3	42	2	1	0	C	1	1	886	1	Ⴇ	cut_oei_stereo_44KHz.wav
3	43	1	2	0	C	1	1	913	1	Ⴃ	cut_n_stereo_44KHz.wav
3	44	4	4	2	I	1	0	856	1	Ⴡ	cut_f_stereo_44KHz.wav
3	45	1	1	1	C	2	1	720	1	Ⴃ	cut_oei_stereo_44KHz.wav
3	46	2	2	1	C	1	0	984	0	Ⴇ	cut_n_stereo_44KHz.wav
3	47	4	3	2	I	2	0	806	0	Ⴡ	cut_r_stereo_44KHz.wav
3	48	3	3	2	I	2	0	569	0	Ⴂ	cut_r_stereo_44KHz.wav
3	49	2	1	0	C	1	1	840	1	Ⴇ	cut_oei_stereo_44KHz.wav
3	50	3	4	2	I	2	0	632	1	Ⴂ	cut_f_stereo_44KHz.wav
3	51	4	4	2	I	1	0	817	0	Ⴡ	cut_f_stereo_44KHz.wav
3	52	1	2	0	C	1	1	781	1	Ⴃ	cut_n_stereo_44KHz.wav
3	53	2	2	1	C	2	1	1068	1	Ⴇ	cut_n_stereo_44KHz.wav
3	54	1	1	1	C	2	1	884	1	Ⴃ	cut_oei_stereo_44KHz.wav
3	55	4	3	2	I	2	0	669	0	Ⴡ	cut_r_stereo_44KHz.wav
3	56	3	3	2	I	1	0	1440	0	Ⴂ	cut_r_stereo_44KHz.wav
3	57	4	4	2	I	1	0	956	0	Ⴡ	cut_f_stereo_44KHz.wav
3	58	3	4	2	I	2	0	703	1	Ⴂ	cut_f_stereo_44KHz.wav
3	59	2	1	0	C	1	1	897	1	Ⴇ	cut_oei_stereo_44KHz.wav
3	60	1	1	1	C	2	1	755	1	Ⴃ	cut_oei_stereo_44KHz.wav
3	61	3	3	2	I	2	0	748	0	Ⴂ	cut_r_stereo_44KHz.wav
3	62	2	2	1	C	2	1	878	1	Ⴇ	cut_n_stereo_44KHz.wav
3	63	4	3	2	I	2	0	565	0	Ⴡ	cut_r_stereo_44KHz.wav
3	64	1	2	0	C	2	0	665	0	Ⴃ	cut_n_stereo_44KHz.wav
3	65	4	3	2	I	2	0	871	0	Ⴡ	cut_r_stereo_44KHz.wav
3	66	1	2	0	C	1	1	809	1	Ⴃ	cut_n_stereo_44KHz.wav
3	67	3	4	2	I	2	0	785	1	Ⴂ	cut_f_stereo_44KHz.wav
3	68	2	2	1	C	2	1	921	1	Ⴇ	cut_n_stereo_44KHz.wav
3	69	1	1	1	C	2	1	986	1	Ⴃ	cut_oei_stereo_44KHz.wav
3	70	4	4	2	I	2	0	685	1	Ⴡ	cut_f_stereo_44KHz.wav
3	71	2	1	0	C	1	1	763	1	Ⴇ	cut_oei_stereo_44KHz.wav
3	72	3	3	2	I	2	0	738	0	Ⴂ	cut_r_stereo_44KHz.wav
3	73	2	1	0	C	1	1	800	1	Ⴇ	cut_oei_stereo_44KHz.wav
3	74	4	3	2	I	2	0	687	0	Ⴡ	cut_r_stereo_44KHz.wav
3	75	3	3	2	I	2	0	687	0	Ⴂ	cut_r_stereo_44KHz.wav
3	76	1	2	0	C	1	1	777	1	Ⴃ	cut_n_stereo_44KHz.wav
3	77	2	2	1	C	2	1	1138	1	Ⴇ	cut_n_stereo_44KHz.wav
3	78	1	1	1	C	2	1	520	1	Ⴃ	cut_oei_stereo_44KHz.wav
3	79	4	4	2	I	2	0	545	0	Ⴡ	cut_f_stereo_44KHz.wav
3	80	3	4	2	I	2	0	464	0	Ⴂ	cut_f_stereo_44KHz.wav
3	81	2	2	1	C	2	1	773	1	Ⴇ	cut_n_stereo_44KHz.wav
3	82	1	1	1	C	2	1	395	1	Ⴃ	cut_oei_stereo_44KHz.wav
3	83	4	4	2	I	2	0	832	0	Ⴡ	cut_f_stereo_44KHz.wav
3	84	3	4	2	I	2	0	662	1	Ⴂ	cut_f_stereo_44KHz.wav
3	85	2	1	0	C	1	1	797	1	Ⴇ	cut_oei_stereo_44KHz.wav
3	86	4	3	2	I	2	0	814	0	Ⴡ	cut_r_stereo_44KHz.wav
3	87	1	2	0	C	1	1	816	1	Ⴃ	cut_n_stereo_44KHz.wav
3	88	3	3	2	I	2	0	904	1	Ⴂ	cut_r_stereo_44KHz.wav
3	89	2	1	0	C	1	1	882	1	Ⴇ	cut_oei_stereo_44KHz.wav
3	90	3	4	2	I	2	0	855	0	Ⴂ	cut_f_stereo_44KHz.wav
3	91	1	1	1	C	2	1	584	1	Ⴃ	cut_oei_stereo_44KHz.wav
3	92	4	4	2	I	2	0	763	1	Ⴡ	cut_f_stereo_44KHz.wav
3	93	1	2	0	C	1	1	662	1	Ⴃ	cut_n_stereo_44KHz.wav
3	94	3	3	2	I	2	0	642	1	Ⴂ	cut_r_stereo_44KHz.wav
3	95	4	3	2	I	1	0	1007	1	Ⴡ	cut_r_stereo_44KHz.wav
3	96	2	2	1	C	2	1	740	1	Ⴇ	cut_n_stereo_44KHz.wav
3	97	4	4	2	I	2	0	967	1	Ⴡ	cut_f_stereo_44KHz.wav
3	98	2	1	0	C	1	1	891	1	Ⴇ	cut_oei_stereo_44KHz.wav
3	99	3	4	2	I	2	0	898	0	Ⴂ	cut_f_stereo_44KHz.wav
3	100	1	1	1	C	2	1	591	1	Ⴃ	cut_oei_stereo_44KHz.wav
3	101	2	2	1	C	2	1	690	1	Ⴇ	cut_n_stereo_44KHz.wav
3	102	4	3	2	I	1	0	1108	1	Ⴡ	cut_r_stereo_44KHz.wav
3	103	3	3	2	I	2	0	810	1	Ⴂ	cut_r_stereo_44KHz.wav
3	104	1	2	0	C	1	1	772	1	Ⴃ	cut_n_stereo_44KHz.wav
3	105	2	2	1	C	2	1	662	1	Ⴇ	cut_n_stereo_44KHz.wav
3	106	3	4	2	I	2	0	860	0	Ⴂ	cut_f_stereo_44KHz.wav
3	107	1	2	0	C	1	1	940	1	Ⴃ	cut_n_stereo_44KHz.wav
3	108	4	3	2	I	1	0	1138	1	Ⴡ	cut_r_stereo_44KHz.wav
3	109	2	1	0	C	1	1	816	1	Ⴇ	cut_oei_stereo_44KHz.wav
3	110	4	4	2	I	2	0	841	0	Ⴡ	cut_f_stereo_44KHz.wav
3	111	1	1	1	C	2	1	677	1	Ⴃ	cut_oei_stereo_44KHz.wav
3	112	3	3	2	I	2	0	1290	0	Ⴂ	cut_r_stereo_44KHz.wav
3	113	4	3	2	I	1	0	733	0	Ⴡ	cut_r_stereo_44KHz.wav
3	114	2	2	1	C	2	1	878	1	Ⴇ	cut_n_stereo_44KHz.wav
3	115	1	1	1	C	2	1	473	1	Ⴃ	cut_oei_stereo_44KHz.wav
3	116	3	3	2	I	2	0	668	0	Ⴂ	cut_r_stereo_44KHz.wav
3	117	2	1	0	C	2	0	425	0	Ⴇ	cut_oei_stereo_44KHz.wav
3	118	4	4	2	I	2	0	832	1	Ⴡ	cut_f_stereo_44KHz.wav
3	119	1	2	0	C	1	1	1042	1	Ⴃ	cut_n_stereo_44KHz.wav
3	120	3	4	2	I	2	0	1013	1	Ⴂ	cut_f_stereo_44KHz.wav
3	121	2	1	0	C	1	1	1096	1	Ⴇ	cut_oei_stereo_44KHz.wav
3	122	4	3	2	I	2	0	1022	0	Ⴡ	cut_r_stereo_44KHz.wav
3	123	3	3	2	I	2	0	708	0	Ⴂ	cut_r_stereo_44KHz.wav
3	124	1	2	0	C	1	1	829	1	Ⴃ	cut_n_stereo_44KHz.wav
3	125	4	4	2	I	2	0	531	0	Ⴡ	cut_f_stereo_44KHz.wav
3	126	1	1	1	C	2	1	632	1	Ⴃ	cut_oei_stereo_44KHz.wav
3	127	2	2	1	C	2	1	700	1	Ⴇ	cut_n_stereo_44KHz.wav
3	128	3	4	2	I	2	0	1008	1	Ⴂ	cut_f_stereo_44KHz.wav
3	129	1	1	1	C	2	1	543	1	Ⴃ	cut_oei_stereo_44KHz.wav
3	130	4	4	2	I	2	0	923	1	Ⴡ	cut_f_stereo_44KHz.wav
3	131	3	3	2	I	2	0	871	1	Ⴂ	cut_r_stereo_44KHz.wav
3	132	2	1	0	C	2	0	554	0	Ⴇ	cut_oei_stereo_44KHz.wav
3	133	4	3	2	I	2	0	815	0	Ⴡ	cut_r_stereo_44KHz.wav
3	134	2	2	1	C	2	1	887	1	Ⴇ	cut_n_stereo_44KHz.wav
3	135	3	4	2	I	2	0	758	1	Ⴂ	cut_f_stereo_44KHz.wav
3	136	1	2	0	C	2	0	443	0	Ⴃ	cut_n_stereo_44KHz.wav
3	137	4	3	2	I	2	0	822	0	Ⴡ	cut_r_stereo_44KHz.wav
3	138	1	1	1	C	2	1	589	1	Ⴃ	cut_oei_stereo_44KHz.wav
3	139	2	2	1	C	2	1	749	1	Ⴇ	cut_n_stereo_44KHz.wav
3	140	3	3	2	I	2	0	908	0	Ⴂ	cut_r_stereo_44KHz.wav
3	141	4	4	2	I	2	0	888	1	Ⴡ	cut_f_stereo_44KHz.wav
3	142	3	4	2	I	1	0	1120	0	Ⴂ	cut_f_stereo_44KHz.wav
3	143	1	2	0	C	2	0	424	0	Ⴃ	cut_n_stereo_44KHz.wav
3	144	2	1	0	C	1	1	1163	1	Ⴇ	cut_oei_stereo_44KHz.wav
3	145	3	4	2	I	2	0	806	1	Ⴂ	cut_f_stereo_44KHz.wav
3	146	4	3	2	I	1	0	1167	0	Ⴡ	cut_r_stereo_44KHz.wav
3	147	1	2	0	C	2	0	766	0	Ⴃ	cut_n_stereo_44KHz.wav
3	148	2	1	0	C	1	1	776	1	Ⴇ	cut_oei_stereo_44KHz.wav
3	149	1	1	1	C	2	1	807	1	Ⴃ	cut_oei_stereo_44KHz.wav
3	150	4	4	2	I	2	0	864	1	Ⴡ	cut_f_stereo_44KHz.wav
3	151	2	2	1	C	2	1	1124	1	Ⴇ	cut_n_stereo_44KHz.wav
3	152	3	3	2	I	2	0	1218	1	Ⴂ	cut_r_stereo_44KHz.wav
3	153	2	2	1	C	2	1	795	1	Ⴇ	cut_n_stereo_44KHz.wav
3	154	1	2	0	C	1	1	1212	1	Ⴃ	cut_n_stereo_44KHz.wav
3	155	4	4	2	I	2	0	656	1	Ⴡ	cut_f_stereo_44KHz.wav
3	156	3	4	2	I	1	0	841	1	Ⴂ	cut_f_stereo_44KHz.wav
3	157	2	1	0	C	2	0	539	0	Ⴇ	cut_oei_stereo_44KHz.wav
3	158	1	1	1	C	2	1	471	1	Ⴃ	cut_oei_stereo_44KHz.wav
3	159	3	3	2	I	2	0	948	0	Ⴂ	cut_r_stereo_44KHz.wav
3	160	4	3	2	I	2	0	740	0	Ⴡ	cut_r_stereo_44KHz.wav
3	161	2	1	0	C	1	1	1018	1	Ⴇ	cut_oei_stereo_44KHz.wav
3	162	1	2	0	C	1	1	835	1	Ⴃ	cut_n_stereo_44KHz.wav
3	163	4	4	2	I	2	0	809	0	Ⴡ	cut_f_stereo_44KHz.wav
3	164	3	4	2	I	2	0	272	0	Ⴂ	cut_f_stereo_44KHz.wav
3	165	4	3	2	I	2	0	272	1	Ⴡ	cut_r_stereo_44KHz.wav
3	166	1	1	1	C	2	1	625	1	Ⴃ	cut_oei_stereo_44KHz.wav
3	167	3	3	2	I	2	0	851	0	Ⴂ	cut_r_stereo_44KHz.wav
3	168	2	2	1	C	2	1	699	1	Ⴇ	cut_n_stereo_44KHz.wav
3	169	1	1	1	C	2	1	526	1	Ⴃ	cut_oei_stereo_44KHz.wav
3	170	3	4	2	I	2	0	971	1	Ⴂ	cut_f_stereo_44KHz.wav
3	171	4	4	2	I	1	0	820	1	Ⴡ	cut_f_stereo_44KHz.wav
3	172	2	1	0	C	2	0	275	0	Ⴇ	cut_oei_stereo_44KHz.wav
3	173	4	3	2	I	1	0	135	1	Ⴡ	cut_r_stereo_44KHz.wav
3	174	3	3	2	I	2	0	425	0	Ⴂ	cut_r_stereo_44KHz.wav
3	175	1	2	0	C	2	0	458	0	Ⴃ	cut_n_stereo_44KHz.wav
3	176	2	2	1	C	2	1	738	1	Ⴇ	cut_n_stereo_44KHz.wav
3	177	1	1	1	C	2	1	570	1	Ⴃ	cut_oei_stereo_44KHz.wav
3	178	3	4	2	I	2	0	857	1	Ⴂ	cut_f_stereo_44KHz.wav
3	179	4	3	2	I	1	0	994	1	Ⴡ	cut_r_stereo_44KHz.wav
3	180	2	1	0	C	2	0	545	0	Ⴇ	cut_oei_stereo_44KHz.wav
3	181	3	3	2	I	2	0	596	1	Ⴂ	cut_r_stereo_44KHz.wav
3	182	4	4	2	I	0	0	0	0	Ⴡ	cut_f_stereo_44KHz.wav
3	183	2	2	1	C	2	1	272	1	Ⴇ	cut_n_stereo_44KHz.wav
3	184	1	2	0	C	1	1	223	1	Ⴃ	cut_n_stereo_44KHz.wav
3	185	3	4	2	I	2	0	119	0	Ⴂ	cut_f_stereo_44KHz.wav
3	186	4	4	2	I	1	0	131	1	Ⴡ	cut_f_stereo_44KHz.wav
3	187	1	2	0	C	2	0	508	0	Ⴃ	cut_n_stereo_44KHz.wav
3	188	2	2	1	C	2	1	188	1	Ⴇ	cut_n_stereo_44KHz.wav
3	189	1	1	1	C	2	1	332	1	Ⴃ	cut_oei_stereo_44KHz.wav
3	190	2	1	0	C	1	1	376	1	Ⴇ	cut_oei_stereo_44KHz.wav
3	191	4	3	2	I	2	0	650	1	Ⴡ	cut_r_stereo_44KHz.wav
3	192	3	3	2	I	2	0	375	1	Ⴂ	cut_r_stereo_44KHz.wav
3	193	4	4	2	I	2	0	402	0	Ⴡ	cut_f_stereo_44KHz.wav
3	194	2	1	0	C	2	0	541	0	Ⴇ	cut_oei_stereo_44KHz.wav
3	195	1	2	0	C	1	1	677	1	Ⴃ	cut_n_stereo_44KHz.wav
3	196	3	3	2	I	2	0	274	1	Ⴂ	cut_r_stereo_44KHz.wav
3	197	1	1	1	C	1	0	161	0	Ⴃ	cut_oei_stereo_44KHz.wav
3	198	2	2	1	C	2	1	107	1	Ⴇ	cut_n_stereo_44KHz.wav
3	199	4	3	2	I	2	0	425	0	Ⴡ	cut_r_stereo_44KHz.wav
3	200	3	4	2	I	1	0	345	1	Ⴂ	cut_f_stereo_44KHz.wav
4	1	3	3	2	I	2	0	1151	1	Ⴊ	cut_o_stereo_44KHz.wav
4	2	4	4	2	I	2	0	459	1	Ⴁ	cut_k_stereo_44KHz.wav
4	3	2	1	0	C	2	0	246	0	Ⴟ	cut_u_stereo_44KHz.wav
4	4	1	2	0	C	1	1	90	1	Ⴜ	cut_a_stereo_44KHz.wav
4	5	2	2	1	C	2	1	196	1	Ⴟ	cut_a_stereo_44KHz.wav
4	6	4	3	2	I	1	0	517	0	Ⴁ	cut_o_stereo_44KHz.wav
4	7	3	4	2	I	2	0	263	1	Ⴊ	cut_k_stereo_44KHz.wav
4	8	1	1	1	C	2	1	277	1	Ⴜ	cut_u_stereo_44KHz.wav
4	9	4	3	2	I	2	0	259	1	Ⴁ	cut_o_stereo_44KHz.wav
4	10	3	3	2	I	1	0	359	1	Ⴊ	cut_o_stereo_44KHz.wav
4	11	1	2	0	C	2	0	219	0	Ⴜ	cut_a_stereo_44KHz.wav
4	12	2	1	0	C	2	0	218	0	Ⴟ	cut_u_stereo_44KHz.wav
4	13	1	1	1	C	1	0	486	0	Ⴜ	cut_u_stereo_44KHz.wav
4	14	2	2	1	C	2	1	297	1	Ⴟ	cut_a_stereo_44KHz.wav
4	15	3	4	2	I	1	0	243	1	Ⴊ	cut_k_stereo_44KHz.wav
4	16	4	4	2	I	2	0	290	1	Ⴁ	cut_k_stereo_44KHz.wav
4	17	1	2	0	C	2	0	229	0	Ⴜ	cut_a_stereo_44KHz.wav
4	18	2	2	1	C	1	0	347	0	Ⴟ	cut_a_stereo_44KHz.wav
4	19	4	4	2	I	2	0	58	0	Ⴁ	cut_k_stereo_44KHz.wav
4	20	3	4	2	I	1	0	202	0	Ⴊ	cut_k_stereo_44KHz.wav
4	21	2	1	0	C	2	0	28	0	Ⴟ	cut_u_stereo_44KHz.wav
4	22	3	3	2	I	2	0	196	0	Ⴊ	cut_o_stereo_44KHz.wav
4	23	4	3	2	I	2	0	178	0	Ⴁ	cut_o_stereo_44KHz.wav
4	24	1	1	1	C	2	1	144	1	Ⴜ	cut_u_stereo_44KHz.wav
4	25	3	3	2	I	2	0	196	1	Ⴊ	cut_o_stereo_44KHz.wav
4	26	4	4	2	I	2	0	318	0	Ⴁ	cut_k_stereo_44KHz.wav
4	27	1	2	0	C	2	0	508	0	Ⴜ	cut_a_stereo_44KHz.wav
4	28	2	2	1	C	1	0	186	0	Ⴟ	cut_a_stereo_44KHz.wav
4	29	3	4	2	I	2	0	409	0	Ⴊ	cut_k_stereo_44KHz.wav
4	30	1	1	1	C	2	1	210	1	Ⴜ	cut_u_stereo_44KHz.wav
4	31	2	1	0	C	1	1	394	1	Ⴟ	cut_u_stereo_44KHz.wav
4	32	4	3	2	I	2	0	183	1	Ⴁ	cut_o_stereo_44KHz.wav
4	33	1	2	0	C	2	0	240	0	Ⴜ	cut_a_stereo_44KHz.wav
4	34	2	1	0	C	2	0	490	0	Ⴟ	cut_u_stereo_44KHz.wav
4	35	4	4	2	I	2	0	407	1	Ⴁ	cut_k_stereo_44KHz.wav
4	36	3	3	2	I	2	0	246	0	Ⴊ	cut_o_stereo_44KHz.wav
4	37	2	2	1	C	1	0	247	0	Ⴟ	cut_a_stereo_44KHz.wav
4	38	4	3	2	I	2	0	117	1	Ⴁ	cut_o_stereo_44KHz.wav
4	39	1	1	1	C	2	1	382	1	Ⴜ	cut_u_stereo_44KHz.wav
4	40	3	4	2	I	2	0	250	1	Ⴊ	cut_k_stereo_44KHz.wav
4	41	4	3	2	I	2	0	35	0	Ⴁ	cut_o_stereo_44KHz.wav
4	42	3	4	2	I	1	0	231	1	Ⴊ	cut_k_stereo_44KHz.wav
4	43	1	1	1	C	2	1	337	1	Ⴜ	cut_u_stereo_44KHz.wav
4	44	2	2	1	C	2	1	584	1	Ⴟ	cut_a_stereo_44KHz.wav
4	45	4	4	2	I	2	0	55	0	Ⴁ	cut_k_stereo_44KHz.wav
4	46	3	3	2	I	1	0	245	0	Ⴊ	cut_o_stereo_44KHz.wav
4	47	2	1	0	C	2	0	201	0	Ⴟ	cut_u_stereo_44KHz.wav
4	48	1	2	0	C	2	0	505	0	Ⴜ	cut_a_stereo_44KHz.wav
4	49	2	1	0	C	1	1	430	1	Ⴟ	cut_u_stereo_44KHz.wav
4	50	4	3	2	I	2	0	205	0	Ⴁ	cut_o_stereo_44KHz.wav
4	51	3	4	2	I	2	0	132	0	Ⴊ	cut_k_stereo_44KHz.wav
4	52	1	2	0	C	1	1	952	1	Ⴜ	cut_a_stereo_44KHz.wav
4	53	3	3	2	I	2	0	138	1	Ⴊ	cut_o_stereo_44KHz.wav
4	54	1	1	1	C	2	1	318	1	Ⴜ	cut_u_stereo_44KHz.wav
4	55	4	4	2	I	1	0	228	0	Ⴁ	cut_k_stereo_44KHz.wav
4	56	2	2	1	C	2	1	283	1	Ⴟ	cut_a_stereo_44KHz.wav
4	57	3	4	2	I	1	0	293	0	Ⴊ	cut_k_stereo_44KHz.wav
4	58	2	2	1	C	2	1	104	1	Ⴟ	cut_a_stereo_44KHz.wav
4	59	1	2	0	C	2	0	275	0	Ⴜ	cut_a_stereo_44KHz.wav
4	60	4	3	2	I	2	0	329	1	Ⴁ	cut_o_stereo_44KHz.wav
4	61	3	3	2	I	1	0	264	1	Ⴊ	cut_o_stereo_44KHz.wav
4	62	2	1	0	C	2	0	237	0	Ⴟ	cut_u_stereo_44KHz.wav
4	63	1	1	1	C	2	1	205	1	Ⴜ	cut_u_stereo_44KHz.wav
4	64	4	4	2	I	2	0	327	0	Ⴁ	cut_k_stereo_44KHz.wav
4	65	2	1	0	C	1	1	300	1	Ⴟ	cut_u_stereo_44KHz.wav
4	66	3	4	2	I	2	0	246	0	Ⴊ	cut_k_stereo_44KHz.wav
4	67	4	3	2	I	2	0	162	0	Ⴁ	cut_o_stereo_44KHz.wav
4	68	1	1	1	C	1	0	410	0	Ⴜ	cut_u_stereo_44KHz.wav
4	69	4	4	2	I	2	0	217	0	Ⴁ	cut_k_stereo_44KHz.wav
4	70	2	2	1	C	2	1	367	1	Ⴟ	cut_a_stereo_44KHz.wav
4	71	3	3	2	I	1	0	264	0	Ⴊ	cut_o_stereo_44KHz.wav
4	72	1	2	0	C	2	0	123	0	Ⴜ	cut_a_stereo_44KHz.wav
4	73	2	2	1	C	1	0	512	0	Ⴟ	cut_a_stereo_44KHz.wav
4	74	4	3	2	I	2	0	125	0	Ⴁ	cut_o_stereo_44KHz.wav
4	75	3	4	2	I	2	0	263	0	Ⴊ	cut_k_stereo_44KHz.wav
4	76	1	1	1	C	1	0	176	0	Ⴜ	cut_u_stereo_44KHz.wav
4	77	4	4	2	I	2	0	255	0	Ⴁ	cut_k_stereo_44KHz.wav
4	78	3	3	2	I	2	0	615	1	Ⴊ	cut_o_stereo_44KHz.wav
4	79	1	2	0	C	1	1	0	1	Ⴜ	cut_a_stereo_44KHz.wav
4	80	2	1	0	C	2	0	230	0	Ⴟ	cut_u_stereo_44KHz.wav
4	81	4	3	2	I	2	0	328	1	Ⴁ	cut_o_stereo_44KHz.wav
4	82	3	3	2	I	1	0	269	1	Ⴊ	cut_o_stereo_44KHz.wav
4	83	1	1	1	C	2	1	244	1	Ⴜ	cut_u_stereo_44KHz.wav
4	84	2	1	0	C	2	0	254	0	Ⴟ	cut_u_stereo_44KHz.wav
4	85	4	4	2	I	2	0	517	1	Ⴁ	cut_k_stereo_44KHz.wav
4	86	2	2	1	C	2	1	302	1	Ⴟ	cut_a_stereo_44KHz.wav
4	87	3	4	2	I	2	0	214	1	Ⴊ	cut_k_stereo_44KHz.wav
4	88	1	2	0	C	2	0	300	0	Ⴜ	cut_a_stereo_44KHz.wav
4	89	4	4	2	I	1	0	375	1	Ⴁ	cut_k_stereo_44KHz.wav
4	90	2	1	0	C	2	0	574	0	Ⴟ	cut_u_stereo_44KHz.wav
4	91	3	4	2	I	1	0	325	0	Ⴊ	cut_k_stereo_44KHz.wav
4	92	1	1	1	C	2	1	322	1	Ⴜ	cut_u_stereo_44KHz.wav
4	93	2	2	1	C	2	1	275	1	Ⴟ	cut_a_stereo_44KHz.wav
4	94	3	3	2	I	2	0	156	0	Ⴊ	cut_o_stereo_44KHz.wav
4	95	4	3	2	I	1	0	279	1	Ⴁ	cut_o_stereo_44KHz.wav
4	96	1	2	0	C	2	0	279	0	Ⴜ	cut_a_stereo_44KHz.wav
4	97	3	3	2	I	2	0	160	0	Ⴊ	cut_o_stereo_44KHz.wav
4	98	4	3	2	I	1	0	282	1	Ⴁ	cut_o_stereo_44KHz.wav
4	99	2	1	0	C	2	0	224	0	Ⴟ	cut_u_stereo_44KHz.wav
4	100	1	2	0	C	1	1	619	1	Ⴜ	cut_a_stereo_44KHz.wav
4	101	2	2	1	C	2	1	242	1	Ⴟ	cut_a_stereo_44KHz.wav
4	102	1	1	1	C	2	1	259	1	Ⴜ	cut_u_stereo_44KHz.wav
4	103	3	4	2	I	1	0	491	0	Ⴊ	cut_k_stereo_44KHz.wav
4	104	4	4	2	I	2	0	383	1	Ⴁ	cut_k_stereo_44KHz.wav
4	105	2	2	1	C	2	1	859	1	Ⴟ	cut_a_stereo_44KHz.wav
4	106	1	2	0	C	2	0	270	0	Ⴜ	cut_a_stereo_44KHz.wav
4	107	3	3	2	I	2	0	453	1	Ⴊ	cut_o_stereo_44KHz.wav
4	108	4	3	2	I	2	0	224	0	Ⴁ	cut_o_stereo_44KHz.wav
4	109	1	1	1	C	2	1	768	1	Ⴜ	cut_u_stereo_44KHz.wav
4	110	4	4	2	I	1	0	365	0	Ⴁ	cut_k_stereo_44KHz.wav
4	111	2	1	0	C	2	0	329	0	Ⴟ	cut_u_stereo_44KHz.wav
4	112	3	4	2	I	2	0	549	1	Ⴊ	cut_k_stereo_44KHz.wav
4	113	4	3	2	I	2	0	278	1	Ⴁ	cut_o_stereo_44KHz.wav
4	114	2	2	1	C	1	0	445	0	Ⴟ	cut_a_stereo_44KHz.wav
4	115	3	4	2	I	2	0	223	1	Ⴊ	cut_k_stereo_44KHz.wav
4	116	1	1	1	C	1	0	737	0	Ⴜ	cut_u_stereo_44KHz.wav
4	117	2	1	0	C	2	0	273	0	Ⴟ	cut_u_stereo_44KHz.wav
4	118	3	3	2	I	2	0	275	1	Ⴊ	cut_o_stereo_44KHz.wav
4	119	1	2	0	C	2	0	349	0	Ⴜ	cut_a_stereo_44KHz.wav
4	120	4	4	2	I	2	0	291	1	Ⴁ	cut_k_stereo_44KHz.wav
4	121	1	2	0	C	2	0	510	0	Ⴜ	cut_a_stereo_44KHz.wav
4	122	4	4	2	I	2	0	450	0	Ⴁ	cut_k_stereo_44KHz.wav
4	123	3	4	2	I	2	0	635	0	Ⴊ	cut_k_stereo_44KHz.wav
4	124	2	1	0	C	2	0	281	0	Ⴟ	cut_u_stereo_44KHz.wav
4	125	3	3	2	I	1	0	312	0	Ⴊ	cut_o_stereo_44KHz.wav
4	126	1	1	1	C	2	1	244	1	Ⴜ	cut_u_stereo_44KHz.wav
4	127	4	3	2	I	2	0	244	1	Ⴁ	cut_o_stereo_44KHz.wav
4	128	2	2	1	C	2	1	432	1	Ⴟ	cut_a_stereo_44KHz.wav
4	129	4	3	2	I	2	0	342	0	Ⴁ	cut_o_stereo_44KHz.wav
4	130	1	1	1	C	2	1	277	1	Ⴜ	cut_u_stereo_44KHz.wav
4	131	2	2	1	C	2	1	431	1	Ⴟ	cut_a_stereo_44KHz.wav
4	132	3	4	2	I	2	0	276	1	Ⴊ	cut_k_stereo_44KHz.wav
4	133	4	4	2	I	2	0	283	1	Ⴁ	cut_k_stereo_44KHz.wav
4	134	3	3	2	I	2	0	291	0	Ⴊ	cut_o_stereo_44KHz.wav
4	135	1	2	0	C	1	1	976	1	Ⴜ	cut_a_stereo_44KHz.wav
4	136	2	1	0	C	2	0	277	0	Ⴟ	cut_u_stereo_44KHz.wav
4	137	4	3	2	I	2	0	581	0	Ⴁ	cut_o_stereo_44KHz.wav
4	138	1	1	1	C	2	1	346	1	Ⴜ	cut_u_stereo_44KHz.wav
4	139	3	4	2	I	1	0	967	1	Ⴊ	cut_k_stereo_44KHz.wav
4	140	2	2	1	C	2	1	543	1	Ⴟ	cut_a_stereo_44KHz.wav
4	141	4	4	2	I	2	0	263	1	Ⴁ	cut_k_stereo_44KHz.wav
4	142	1	2	0	C	2	0	47	0	Ⴜ	cut_a_stereo_44KHz.wav
4	143	2	1	0	C	1	1	297	1	Ⴟ	cut_u_stereo_44KHz.wav
4	144	3	3	2	I	2	0	229	1	Ⴊ	cut_o_stereo_44KHz.wav
4	145	4	3	2	I	2	0	214	0	Ⴁ	cut_o_stereo_44KHz.wav
4	146	1	1	1	C	2	1	105	1	Ⴜ	cut_u_stereo_44KHz.wav
4	147	3	4	2	I	1	0	220	0	Ⴊ	cut_k_stereo_44KHz.wav
4	148	2	1	0	C	2	0	866	0	Ⴟ	cut_u_stereo_44KHz.wav
4	149	4	4	2	I	2	0	182	0	Ⴁ	cut_k_stereo_44KHz.wav
4	150	2	2	1	C	2	1	333	1	Ⴟ	cut_a_stereo_44KHz.wav
4	151	3	3	2	I	1	0	139	1	Ⴊ	cut_o_stereo_44KHz.wav
4	152	1	2	0	C	2	0	185	0	Ⴜ	cut_a_stereo_44KHz.wav
4	153	2	2	1	C	2	1	584	1	Ⴟ	cut_a_stereo_44KHz.wav
4	154	4	3	2	I	2	0	250	0	Ⴁ	cut_o_stereo_44KHz.wav
4	155	3	4	2	I	1	0	981	1	Ⴊ	cut_k_stereo_44KHz.wav
4	156	1	2	0	C	2	0	291	0	Ⴜ	cut_a_stereo_44KHz.wav
4	157	2	1	0	C	2	0	280	0	Ⴟ	cut_u_stereo_44KHz.wav
4	158	3	3	2	I	1	0	516	1	Ⴊ	cut_o_stereo_44KHz.wav
4	159	1	1	1	C	2	1	189	1	Ⴜ	cut_u_stereo_44KHz.wav
4	160	4	4	2	I	2	0	253	1	Ⴁ	cut_k_stereo_44KHz.wav
4	161	3	4	2	I	1	0	187	0	Ⴊ	cut_k_stereo_44KHz.wav
4	162	2	2	1	C	2	1	263	1	Ⴟ	cut_a_stereo_44KHz.wav
4	163	4	4	2	I	2	0	316	1	Ⴁ	cut_k_stereo_44KHz.wav
4	164	1	1	1	C	1	0	360	0	Ⴜ	cut_u_stereo_44KHz.wav
4	165	3	3	2	I	2	0	165	1	Ⴊ	cut_o_stereo_44KHz.wav
4	166	1	2	0	C	2	0	61	0	Ⴜ	cut_a_stereo_44KHz.wav
4	167	4	3	2	I	1	0	170	1	Ⴁ	cut_o_stereo_44KHz.wav
4	168	2	1	0	C	2	0	217	0	Ⴟ	cut_u_stereo_44KHz.wav
4	169	1	2	0	C	2	0	166	0	Ⴜ	cut_a_stereo_44KHz.wav
4	170	4	4	2	I	1	0	486	0	Ⴁ	cut_k_stereo_44KHz.wav
4	171	3	3	2	I	2	0	258	1	Ⴊ	cut_o_stereo_44KHz.wav
4	172	2	1	0	C	2	0	239	0	Ⴟ	cut_u_stereo_44KHz.wav
4	173	1	1	1	C	2	1	55	1	Ⴜ	cut_u_stereo_44KHz.wav
4	174	4	3	2	I	1	0	271	1	Ⴁ	cut_o_stereo_44KHz.wav
4	175	3	4	2	I	2	0	346	1	Ⴊ	cut_k_stereo_44KHz.wav
4	176	2	2	1	C	2	1	410	1	Ⴟ	cut_a_stereo_44KHz.wav
4	177	4	3	2	I	2	0	219	1	Ⴁ	cut_o_stereo_44KHz.wav
4	178	2	1	0	C	1	1	237	1	Ⴟ	cut_u_stereo_44KHz.wav
4	179	3	3	2	I	2	0	240	0	Ⴊ	cut_o_stereo_44KHz.wav
4	180	1	2	0	C	1	1	1221	1	Ⴜ	cut_a_stereo_44KHz.wav
4	181	4	4	2	I	2	0	217	1	Ⴁ	cut_k_stereo_44KHz.wav
4	182	3	4	2	I	2	0	212	0	Ⴊ	cut_k_stereo_44KHz.wav
4	183	2	2	1	C	1	0	507	0	Ⴟ	cut_a_stereo_44KHz.wav
4	184	1	1	1	C	2	1	240	1	Ⴜ	cut_u_stereo_44KHz.wav
4	185	3	3	2	I	2	0	217	0	Ⴊ	cut_o_stereo_44KHz.wav
4	186	1	1	1	C	1	0	168	0	Ⴜ	cut_u_stereo_44KHz.wav
4	187	4	3	2	I	2	0	192	0	Ⴁ	cut_o_stereo_44KHz.wav
4	188	2	1	0	C	1	1	277	1	Ⴟ	cut_u_stereo_44KHz.wav
4	189	3	4	2	I	1	0	193	0	Ⴊ	cut_k_stereo_44KHz.wav
4	190	1	2	0	C	2	0	95	0	Ⴜ	cut_a_stereo_44KHz.wav
4	191	4	4	2	I	2	0	203	0	Ⴁ	cut_k_stereo_44KHz.wav
4	192	2	2	1	C	1	0	182	0	Ⴟ	cut_a_stereo_44KHz.wav
4	193	3	3	2	I	2	0	213	0	Ⴊ	cut_o_stereo_44KHz.wav
4	194	1	1	1	C	1	0	139	0	Ⴜ	cut_u_stereo_44KHz.wav
4	195	4	3	2	I	2	0	242	0	Ⴁ	cut_o_stereo_44KHz.wav
4	196	2	2	1	C	1	0	273	0	Ⴟ	cut_a_stereo_44KHz.wav
4	197	1	2	0	C	2	0	252	0	Ⴜ	cut_a_stereo_44KHz.wav
4	198	2	1	0	C	2	0	421	0	Ⴟ	cut_u_stereo_44KHz.wav
4	199	3	4	2	I	1	0	215	0	Ⴊ	cut_k_stereo_44KHz.wav
4	200	4	4	2	I	2	0	244	1	Ⴁ	cut_k_stereo_44KHz.wav
