block	trial	Vstim	Astim	match	C/I	resp	result	RT	fb	V-file	A-file
RL

0	1	1	2	0	C	2	1	1781	1	poli_8sides 23_whiteLine3.jpg	Practice4_b26_stereo_44KHz.wav
0	2	2	4	0	C	0	0	0	0	poli_8sides 22_whiteLine3.jpg	Practice3_b26_cut1_stereo_44KHz.wav
0	3	1	1	1	C	2	0	217	0	poli_8sides 23_whiteLine3.jpg	Practice1_b27_cut1_stereo_44KHz.wav
0	4	2	3	1	C	2	0	1110	0	poli_8sides 22_whiteLine3.jpg	Practice2_b27_cut2_stereo_44KHz.wav
0	5	1	1	1	C	1	1	392	1	poli_8sides 23_whiteLine3.jpg	Practice1_b27_cut1_stereo_44KHz.wav
0	6	2	3	1	C	2	0	867	0	poli_8sides 22_whiteLine3.jpg	Practice2_b27_cut2_stereo_44KHz.wav
0	7	2	4	0	C	1	0	240	0	poli_8sides 22_whiteLine3.jpg	Practice3_b26_cut1_stereo_44KHz.wav
0	8	1	2	0	C	2	1	128	1	poli_8sides 23_whiteLine3.jpg	Practice4_b26_stereo_44KHz.wav
0	9	2	4	0	C	2	1	240	1	poli_8sides 22_whiteLine3.jpg	Practice3_b26_cut1_stereo_44KHz.wav
0	10	1	2	0	C	2	1	934	1	poli_8sides 23_whiteLine3.jpg	Practice4_b26_stereo_44KHz.wav
0	11	1	1	1	C	1	1	814	1	poli_8sides 23_whiteLine3.jpg	Practice1_b27_cut1_stereo_44KHz.wav
0	12	2	3	1	C	1	1	1381	1	poli_8sides 22_whiteLine3.jpg	Practice2_b27_cut2_stereo_44KHz.wav
0	13	1	1	1	C	1	1	942	1	poli_8sides 23_whiteLine3.jpg	Practice1_b27_cut1_stereo_44KHz.wav
0	14	2	4	0	C	1	0	1300	0	poli_8sides 22_whiteLine3.jpg	Practice3_b26_cut1_stereo_44KHz.wav
0	15	2	3	1	C	1	1	949	1	poli_8sides 22_whiteLine3.jpg	Practice2_b27_cut2_stereo_44KHz.wav
0	16	1	2	0	C	2	1	749	1	poli_8sides 23_whiteLine3.jpg	Practice4_b26_stereo_44KHz.wav
0	17	1	2	0	C	2	1	954	1	poli_8sides 23_whiteLine3.jpg	Practice4_b26_stereo_44KHz.wav
0	18	1	1	1	C	1	1	885	1	poli_8sides 23_whiteLine3.jpg	Practice1_b27_cut1_stereo_44KHz.wav
0	19	2	4	0	C	1	0	1637	0	poli_8sides 22_whiteLine3.jpg	Practice3_b26_cut1_stereo_44KHz.wav
0	20	2	3	1	C	1	1	842	1	poli_8sides 22_whiteLine3.jpg	Practice2_b27_cut2_stereo_44KHz.wav
0	21	1	2	0	C	2	1	577	1	poli_8sides 23_whiteLine3.jpg	Practice4_b26_stereo_44KHz.wav
0	22	1	1	1	C	1	1	871	1	poli_8sides 23_whiteLine3.jpg	Practice1_b27_cut1_stereo_44KHz.wav
0	23	2	4	0	C	2	1	1403	1	poli_8sides 22_whiteLine3.jpg	Practice3_b26_cut1_stereo_44KHz.wav
0	24	2	3	1	C	1	1	1013	1	poli_8sides 22_whiteLine3.jpg	Practice2_b27_cut2_stereo_44KHz.wav
0	25	2	3	1	C	1	1	1043	1	poli_8sides 22_whiteLine3.jpg	Practice2_b27_cut2_stereo_44KHz.wav
0	26	1	2	0	C	2	1	492	1	poli_8sides 23_whiteLine3.jpg	Practice4_b26_stereo_44KHz.wav
0	27	1	1	1	C	1	1	825	1	poli_8sides 23_whiteLine3.jpg	Practice1_b27_cut1_stereo_44KHz.wav
0	28	2	4	0	C	2	1	967	1	poli_8sides 22_whiteLine3.jpg	Practice3_b26_cut1_stereo_44KHz.wav
0	29	2	3	1	C	1	1	733	1	poli_8sides 22_whiteLine3.jpg	Practice2_b27_cut2_stereo_44KHz.wav
0	30	1	1	1	C	1	1	854	1	poli_8sides 23_whiteLine3.jpg	Practice1_b27_cut1_stereo_44KHz.wav
avg_resp = 860
1	1	4	3	2	I	2	0	1151	1	poli_8sides 9_whiteLine3.jpg	MediumLong_e19_stereo_44KHz.wav
1	2	2	2	1	C	0	0	0	0	poli_8sides 18_whiteLine3.jpg	MediumLong_e04_stereo_44KHz.wav
1	3	1	2	0	C	2	1	708	1	poli_8sides 15_whiteLine3.jpg	MediumLong_e04_stereo_44KHz.wav
1	4	3	4	2	I	2	0	770	1	poli_8sides 4_whiteLine3.jpg	Medium_e13_stereo_44KHz.wav
1	5	2	1	0	C	2	1	693	1	poli_8sides 18_whiteLine3.jpg	MediumLong_b10_cut2_L_stereo_44KHz.wav
1	6	1	1	1	C	1	1	819	1	poli_8sides 15_whiteLine3.jpg	MediumLong_b10_cut2_L_stereo_44KHz.wav
1	7	3	3	2	I	2	0	877	0	poli_8sides 4_whiteLine3.jpg	MediumLong_e19_stereo_44KHz.wav
1	8	4	4	2	I	2	0	434	1	poli_8sides 9_whiteLine3.jpg	Medium_e13_stereo_44KHz.wav
1	9	3	3	2	I	2	0	481	0	poli_8sides 4_whiteLine3.jpg	MediumLong_e19_stereo_44KHz.wav
1	10	1	2	0	C	2	1	619	1	poli_8sides 15_whiteLine3.jpg	MediumLong_e04_stereo_44KHz.wav
1	11	4	3	2	I	2	0	764	0	poli_8sides 9_whiteLine3.jpg	MediumLong_e19_stereo_44KHz.wav
1	12	2	1	0	C	2	1	558	1	poli_8sides 18_whiteLine3.jpg	MediumLong_b10_cut2_L_stereo_44KHz.wav
1	13	3	4	2	I	2	0	811	1	poli_8sides 4_whiteLine3.jpg	Medium_e13_stereo_44KHz.wav
1	14	4	4	2	I	1	0	1055	0	poli_8sides 9_whiteLine3.jpg	Medium_e13_stereo_44KHz.wav
1	15	2	2	1	C	1	1	1138	1	poli_8sides 18_whiteLine3.jpg	MediumLong_e04_stereo_44KHz.wav
1	16	1	1	1	C	2	0	369	0	poli_8sides 15_whiteLine3.jpg	MediumLong_b10_cut2_L_stereo_44KHz.wav
1	17	4	3	2	I	2	0	533	0	poli_8sides 9_whiteLine3.jpg	MediumLong_e19_stereo_44KHz.wav
1	18	1	2	0	C	2	1	573	1	poli_8sides 15_whiteLine3.jpg	MediumLong_e04_stereo_44KHz.wav
1	19	2	1	0	C	2	1	934	1	poli_8sides 18_whiteLine3.jpg	MediumLong_b10_cut2_L_stereo_44KHz.wav
1	20	3	4	2	I	1	0	1009	0	poli_8sides 4_whiteLine3.jpg	Medium_e13_stereo_44KHz.wav
1	21	4	4	2	I	2	0	894	0	poli_8sides 9_whiteLine3.jpg	Medium_e13_stereo_44KHz.wav
1	22	3	3	2	I	2	0	741	1	poli_8sides 4_whiteLine3.jpg	MediumLong_e19_stereo_44KHz.wav
1	23	1	1	1	C	2	0	1236	0	poli_8sides 15_whiteLine3.jpg	MediumLong_b10_cut2_L_stereo_44KHz.wav
1	24	2	2	1	C	1	1	1025	1	poli_8sides 18_whiteLine3.jpg	MediumLong_e04_stereo_44KHz.wav
1	25	1	2	0	C	2	1	268	1	poli_8sides 15_whiteLine3.jpg	MediumLong_e04_stereo_44KHz.wav
1	26	3	4	2	I	1	0	795	0	poli_8sides 4_whiteLine3.jpg	Medium_e13_stereo_44KHz.wav
1	27	4	4	2	I	2	0	328	1	poli_8sides 9_whiteLine3.jpg	Medium_e13_stereo_44KHz.wav
1	28	2	1	0	C	2	1	547	1	poli_8sides 18_whiteLine3.jpg	MediumLong_b10_cut2_L_stereo_44KHz.wav
1	29	4	3	2	I	1	0	434	1	poli_8sides 9_whiteLine3.jpg	MediumLong_e19_stereo_44KHz.wav
1	30	2	2	1	C	2	0	191	0	poli_8sides 18_whiteLine3.jpg	MediumLong_e04_stereo_44KHz.wav
1	31	3	3	2	I	1	0	216	1	poli_8sides 4_whiteLine3.jpg	MediumLong_e19_stereo_44KHz.wav
1	32	1	1	1	C	2	0	346	0	poli_8sides 15_whiteLine3.jpg	MediumLong_b10_cut2_L_stereo_44KHz.wav
1	33	2	2	1	C	1	1	395	1	poli_8sides 18_whiteLine3.jpg	MediumLong_e04_stereo_44KHz.wav
1	34	3	3	2	I	2	0	221	0	poli_8sides 4_whiteLine3.jpg	MediumLong_e19_stereo_44KHz.wav
1	35	1	1	1	C	1	1	481	1	poli_8sides 15_whiteLine3.jpg	MediumLong_b10_cut2_L_stereo_44KHz.wav
1	36	4	4	2	I	2	0	363	1	poli_8sides 9_whiteLine3.jpg	Medium_e13_stereo_44KHz.wav
1	37	1	2	0	C	2	1	58	1	poli_8sides 15_whiteLine3.jpg	MediumLong_e04_stereo_44KHz.wav
1	38	4	3	2	I	2	0	443	1	poli_8sides 9_whiteLine3.jpg	MediumLong_e19_stereo_44KHz.wav
1	39	2	1	0	C	1	0	190	0	poli_8sides 18_whiteLine3.jpg	MediumLong_b10_cut2_L_stereo_44KHz.wav
1	40	3	4	2	I	2	0	323	1	poli_8sides 4_whiteLine3.jpg	Medium_e13_stereo_44KHz.wav
1	41	2	2	1	C	2	0	1190	0	poli_8sides 18_whiteLine3.jpg	MediumLong_e04_stereo_44KHz.wav
1	42	1	1	1	C	1	1	198	1	poli_8sides 15_whiteLine3.jpg	MediumLong_b10_cut2_L_stereo_44KHz.wav
1	43	4	3	2	I	2	0	281	1	poli_8sides 9_whiteLine3.jpg	MediumLong_e19_stereo_44KHz.wav
1	44	3	3	2	I	1	0	255	0	poli_8sides 4_whiteLine3.jpg	MediumLong_e19_stereo_44KHz.wav
1	45	1	2	0	C	2	1	218	1	poli_8sides 15_whiteLine3.jpg	MediumLong_e04_stereo_44KHz.wav
1	46	3	4	2	I	1	0	225	1	poli_8sides 4_whiteLine3.jpg	Medium_e13_stereo_44KHz.wav
1	47	2	1	0	C	2	1	75	1	poli_8sides 18_whiteLine3.jpg	MediumLong_b10_cut2_L_stereo_44KHz.wav
1	48	4	4	2	I	1	0	618	1	poli_8sides 9_whiteLine3.jpg	Medium_e13_stereo_44KHz.wav
1	49	2	1	0	C	2	1	387	1	poli_8sides 18_whiteLine3.jpg	MediumLong_b10_cut2_L_stereo_44KHz.wav
1	50	1	2	0	C	2	1	332	1	poli_8sides 15_whiteLine3.jpg	MediumLong_e04_stereo_44KHz.wav
1	51	4	4	2	I	1	0	380	1	poli_8sides 9_whiteLine3.jpg	Medium_e13_stereo_44KHz.wav
1	52	3	3	2	I	2	0	821	0	poli_8sides 4_whiteLine3.jpg	MediumLong_e19_stereo_44KHz.wav
1	53	1	1	1	C	1	1	210	1	poli_8sides 15_whiteLine3.jpg	MediumLong_b10_cut2_L_stereo_44KHz.wav
1	54	4	3	2	I	2	0	124	0	poli_8sides 9_whiteLine3.jpg	MediumLong_e19_stereo_44KHz.wav
1	55	2	2	1	C	2	0	265	0	poli_8sides 18_whiteLine3.jpg	MediumLong_e04_stereo_44KHz.wav
1	56	3	4	2	I	1	0	294	1	poli_8sides 4_whiteLine3.jpg	Medium_e13_stereo_44KHz.wav
1	57	2	1	0	C	2	1	180	1	poli_8sides 18_whiteLine3.jpg	MediumLong_b10_cut2_L_stereo_44KHz.wav
1	58	3	3	2	I	2	0	198	1	poli_8sides 4_whiteLine3.jpg	MediumLong_e19_stereo_44KHz.wav
1	59	4	3	2	I	1	0	624	0	poli_8sides 9_whiteLine3.jpg	MediumLong_e19_stereo_44KHz.wav
1	60	1	1	1	C	2	0	287	0	poli_8sides 15_whiteLine3.jpg	MediumLong_b10_cut2_L_stereo_44KHz.wav
1	61	2	2	1	C	2	0	213	0	poli_8sides 18_whiteLine3.jpg	MediumLong_e04_stereo_44KHz.wav
1	62	3	4	2	I	2	0	215	1	poli_8sides 4_whiteLine3.jpg	Medium_e13_stereo_44KHz.wav
1	63	4	4	2	I	2	0	209	1	poli_8sides 9_whiteLine3.jpg	Medium_e13_stereo_44KHz.wav
1	64	1	2	0	C	2	1	473	1	poli_8sides 15_whiteLine3.jpg	MediumLong_e04_stereo_44KHz.wav
1	65	4	3	2	I	2	0	529	0	poli_8sides 9_whiteLine3.jpg	MediumLong_e19_stereo_44KHz.wav
1	66	1	2	0	C	1	0	329	0	poli_8sides 15_whiteLine3.jpg	MediumLong_e04_stereo_44KHz.wav
1	67	3	3	2	I	2	0	523	1	poli_8sides 4_whiteLine3.jpg	MediumLong_e19_stereo_44KHz.wav
1	68	2	1	0	C	2	1	351	1	poli_8sides 18_whiteLine3.jpg	MediumLong_b10_cut2_L_stereo_44KHz.wav
1	69	1	1	1	C	1	1	286	1	poli_8sides 15_whiteLine3.jpg	MediumLong_b10_cut2_L_stereo_44KHz.wav
1	70	2	2	1	C	2	0	225	0	poli_8sides 18_whiteLine3.jpg	MediumLong_e04_stereo_44KHz.wav
1	71	3	4	2	I	2	0	207	0	poli_8sides 4_whiteLine3.jpg	Medium_e13_stereo_44KHz.wav
1	72	4	4	2	I	1	0	306	1	poli_8sides 9_whiteLine3.jpg	Medium_e13_stereo_44KHz.wav
1	73	1	1	1	C	2	0	343	0	poli_8sides 15_whiteLine3.jpg	MediumLong_b10_cut2_L_stereo_44KHz.wav
1	74	2	2	1	C	2	0	290	0	poli_8sides 18_whiteLine3.jpg	MediumLong_e04_stereo_44KHz.wav
1	75	4	4	2	I	1	0	244	0	poli_8sides 9_whiteLine3.jpg	Medium_e13_stereo_44KHz.wav
1	76	3	3	2	I	2	0	425	1	poli_8sides 4_whiteLine3.jpg	MediumLong_e19_stereo_44KHz.wav
1	77	4	3	2	I	2	0	319	1	poli_8sides 9_whiteLine3.jpg	MediumLong_e19_stereo_44KHz.wav
1	78	1	2	0	C	2	1	248	1	poli_8sides 15_whiteLine3.jpg	MediumLong_e04_stereo_44KHz.wav
1	79	2	1	0	C	2	1	271	1	poli_8sides 18_whiteLine3.jpg	MediumLong_b10_cut2_L_stereo_44KHz.wav
1	80	3	4	2	I	2	0	211	1	poli_8sides 4_whiteLine3.jpg	Medium_e13_stereo_44KHz.wav
1	81	1	2	0	C	2	1	976	1	poli_8sides 15_whiteLine3.jpg	MediumLong_e04_stereo_44KHz.wav
1	82	3	3	2	I	2	0	279	0	poli_8sides 4_whiteLine3.jpg	MediumLong_e19_stereo_44KHz.wav
1	83	4	3	2	I	1	0	965	0	poli_8sides 9_whiteLine3.jpg	MediumLong_e19_stereo_44KHz.wav
1	84	2	1	0	C	2	1	192	1	poli_8sides 18_whiteLine3.jpg	MediumLong_b10_cut2_L_stereo_44KHz.wav
1	85	3	4	2	I	2	0	714	1	poli_8sides 4_whiteLine3.jpg	Medium_e13_stereo_44KHz.wav
1	86	2	2	1	C	2	0	306	0	poli_8sides 18_whiteLine3.jpg	MediumLong_e04_stereo_44KHz.wav
1	87	4	4	2	I	1	0	451	1	poli_8sides 9_whiteLine3.jpg	Medium_e13_stereo_44KHz.wav
1	88	1	1	1	C	2	0	204	0	poli_8sides 15_whiteLine3.jpg	MediumLong_b10_cut2_L_stereo_44KHz.wav
1	89	3	4	2	I	1	0	194	1	poli_8sides 4_whiteLine3.jpg	Medium_e13_stereo_44KHz.wav
1	90	1	2	0	C	2	1	133	1	poli_8sides 15_whiteLine3.jpg	MediumLong_e04_stereo_44KHz.wav
1	91	2	1	0	C	2	1	175	1	poli_8sides 18_whiteLine3.jpg	MediumLong_b10_cut2_L_stereo_44KHz.wav
1	92	4	3	2	I	1	0	412	0	poli_8sides 9_whiteLine3.jpg	MediumLong_e19_stereo_44KHz.wav
1	93	3	3	2	I	2	0	391	0	poli_8sides 4_whiteLine3.jpg	MediumLong_e19_stereo_44KHz.wav
1	94	4	4	2	I	2	0	428	0	poli_8sides 9_whiteLine3.jpg	Medium_e13_stereo_44KHz.wav
1	95	2	2	1	C	1	1	697	1	poli_8sides 18_whiteLine3.jpg	MediumLong_e04_stereo_44KHz.wav
1	96	1	1	1	C	2	0	322	0	poli_8sides 15_whiteLine3.jpg	MediumLong_b10_cut2_L_stereo_44KHz.wav
1	97	2	1	0	C	1	0	147	0	poli_8sides 18_whiteLine3.jpg	MediumLong_b10_cut2_L_stereo_44KHz.wav
1	98	1	2	0	C	2	1	178	1	poli_8sides 15_whiteLine3.jpg	MediumLong_e04_stereo_44KHz.wav
1	99	3	4	2	I	2	0	324	1	poli_8sides 4_whiteLine3.jpg	Medium_e13_stereo_44KHz.wav
1	100	4	4	2	I	2	0	181	0	poli_8sides 9_whiteLine3.jpg	Medium_e13_stereo_44KHz.wav
1	101	3	3	2	I	1	0	536	1	poli_8sides 4_whiteLine3.jpg	MediumLong_e19_stereo_44KHz.wav
1	102	2	2	1	C	2	0	187	0	poli_8sides 18_whiteLine3.jpg	MediumLong_e04_stereo_44KHz.wav
1	103	1	1	1	C	2	0	269	0	poli_8sides 15_whiteLine3.jpg	MediumLong_b10_cut2_L_stereo_44KHz.wav
1	104	4	3	2	I	2	0	1259	1	poli_8sides 9_whiteLine3.jpg	MediumLong_e19_stereo_44KHz.wav
1	105	1	2	0	C	1	0	201	0	poli_8sides 15_whiteLine3.jpg	MediumLong_e04_stereo_44KHz.wav
1	106	2	2	1	C	2	0	181	0	poli_8sides 18_whiteLine3.jpg	MediumLong_e04_stereo_44KHz.wav
1	107	3	4	2	I	2	0	186	0	poli_8sides 4_whiteLine3.jpg	Medium_e13_stereo_44KHz.wav
1	108	4	4	2	I	2	0	131	1	poli_8sides 9_whiteLine3.jpg	Medium_e13_stereo_44KHz.wav
1	109	2	1	0	C	2	1	233	1	poli_8sides 18_whiteLine3.jpg	MediumLong_b10_cut2_L_stereo_44KHz.wav
1	110	4	3	2	I	1	0	757	1	poli_8sides 9_whiteLine3.jpg	MediumLong_e19_stereo_44KHz.wav
1	111	1	1	1	C	2	0	107	0	poli_8sides 15_whiteLine3.jpg	MediumLong_b10_cut2_L_stereo_44KHz.wav
1	112	3	3	2	I	2	0	100	0	poli_8sides 4_whiteLine3.jpg	MediumLong_e19_stereo_44KHz.wav
1	113	1	1	1	C	1	1	292	1	poli_8sides 15_whiteLine3.jpg	MediumLong_b10_cut2_L_stereo_44KHz.wav
1	114	3	4	2	I	2	0	375	0	poli_8sides 4_whiteLine3.jpg	Medium_e13_stereo_44KHz.wav
1	115	4	3	2	I	2	0	233	1	poli_8sides 9_whiteLine3.jpg	MediumLong_e19_stereo_44KHz.wav
1	116	2	1	0	C	2	1	235	1	poli_8sides 18_whiteLine3.jpg	MediumLong_b10_cut2_L_stereo_44KHz.wav
1	117	1	2	0	C	2	1	366	1	poli_8sides 15_whiteLine3.jpg	MediumLong_e04_stereo_44KHz.wav
1	118	3	3	2	I	2	0	536	1	poli_8sides 4_whiteLine3.jpg	MediumLong_e19_stereo_44KHz.wav
1	119	2	2	1	C	2	0	256	0	poli_8sides 18_whiteLine3.jpg	MediumLong_e04_stereo_44KHz.wav
1	120	4	4	2	I	1	0	337	1	poli_8sides 9_whiteLine3.jpg	Medium_e13_stereo_44KHz.wav
1	121	2	1	0	C	2	1	668	1	poli_8sides 18_whiteLine3.jpg	MediumLong_b10_cut2_L_stereo_44KHz.wav
1	122	1	2	0	C	2	1	225	1	poli_8sides 15_whiteLine3.jpg	MediumLong_e04_stereo_44KHz.wav
1	123	4	3	2	I	2	0	333	1	poli_8sides 9_whiteLine3.jpg	MediumLong_e19_stereo_44KHz.wav
1	124	3	4	2	I	2	0	667	0	poli_8sides 4_whiteLine3.jpg	Medium_e13_stereo_44KHz.wav
1	125	4	4	2	I	1	0	381	0	poli_8sides 9_whiteLine3.jpg	Medium_e13_stereo_44KHz.wav
1	126	3	3	2	I	2	0	175	1	poli_8sides 4_whiteLine3.jpg	MediumLong_e19_stereo_44KHz.wav
1	127	1	1	1	C	2	0	117	0	poli_8sides 15_whiteLine3.jpg	MediumLong_b10_cut2_L_stereo_44KHz.wav
1	128	2	2	1	C	2	0	344	0	poli_8sides 18_whiteLine3.jpg	MediumLong_e04_stereo_44KHz.wav
1	129	1	1	1	C	1	1	435	1	poli_8sides 15_whiteLine3.jpg	MediumLong_b10_cut2_L_stereo_44KHz.wav
1	130	2	1	0	C	2	1	272	1	poli_8sides 18_whiteLine3.jpg	MediumLong_b10_cut2_L_stereo_44KHz.wav
1	131	3	3	2	I	1	0	433	0	poli_8sides 4_whiteLine3.jpg	MediumLong_e19_stereo_44KHz.wav
1	132	4	3	2	I	2	0	204	0	poli_8sides 9_whiteLine3.jpg	MediumLong_e19_stereo_44KHz.wav
1	133	1	2	0	C	2	1	206	1	poli_8sides 15_whiteLine3.jpg	MediumLong_e04_stereo_44KHz.wav
1	134	3	4	2	I	2	0	236	1	poli_8sides 4_whiteLine3.jpg	Medium_e13_stereo_44KHz.wav
1	135	4	4	2	I	2	0	325	1	poli_8sides 9_whiteLine3.jpg	Medium_e13_stereo_44KHz.wav
1	136	2	2	1	C	1	1	510	1	poli_8sides 18_whiteLine3.jpg	MediumLong_e04_stereo_44KHz.wav
1	137	3	3	2	I	1	0	485	0	poli_8sides 4_whiteLine3.jpg	MediumLong_e19_stereo_44KHz.wav
1	138	1	1	1	C	2	0	313	0	poli_8sides 15_whiteLine3.jpg	MediumLong_b10_cut2_L_stereo_44KHz.wav
1	139	4	4	2	I	2	0	253	0	poli_8sides 9_whiteLine3.jpg	Medium_e13_stereo_44KHz.wav
1	140	2	2	1	C	2	0	122	0	poli_8sides 18_whiteLine3.jpg	MediumLong_e04_stereo_44KHz.wav
1	141	4	3	2	I	1	0	207	1	poli_8sides 9_whiteLine3.jpg	MediumLong_e19_stereo_44KHz.wav
1	142	2	1	0	C	2	1	238	1	poli_8sides 18_whiteLine3.jpg	MediumLong_b10_cut2_L_stereo_44KHz.wav
1	143	3	4	2	I	1	0	220	0	poli_8sides 4_whiteLine3.jpg	Medium_e13_stereo_44KHz.wav
1	144	1	2	0	C	2	1	408	1	poli_8sides 15_whiteLine3.jpg	MediumLong_e04_stereo_44KHz.wav
1	145	4	3	2	I	2	0	408	0	poli_8sides 9_whiteLine3.jpg	MediumLong_e19_stereo_44KHz.wav
1	146	2	1	0	C	2	1	346	1	poli_8sides 18_whiteLine3.jpg	MediumLong_b10_cut2_L_stereo_44KHz.wav
1	147	1	1	1	C	1	1	234	1	poli_8sides 15_whiteLine3.jpg	MediumLong_b10_cut2_L_stereo_44KHz.wav
1	148	3	3	2	I	2	0	220	0	poli_8sides 4_whiteLine3.jpg	MediumLong_e19_stereo_44KHz.wav
1	149	2	2	1	C	2	0	245	0	poli_8sides 18_whiteLine3.jpg	MediumLong_e04_stereo_44KHz.wav
1	150	3	4	2	I	2	0	250	0	poli_8sides 4_whiteLine3.jpg	Medium_e13_stereo_44KHz.wav
1	151	4	4	2	I	1	0	159	0	poli_8sides 9_whiteLine3.jpg	Medium_e13_stereo_44KHz.wav
1	152	1	2	0	C	2	1	251	1	poli_8sides 15_whiteLine3.jpg	MediumLong_e04_stereo_44KHz.wav
1	153	2	1	0	C	2	1	322	1	poli_8sides 18_whiteLine3.jpg	MediumLong_b10_cut2_L_stereo_44KHz.wav
1	154	1	2	0	C	2	1	302	1	poli_8sides 15_whiteLine3.jpg	MediumLong_e04_stereo_44KHz.wav
1	155	3	3	2	I	2	0	274	0	poli_8sides 4_whiteLine3.jpg	MediumLong_e19_stereo_44KHz.wav
1	156	4	3	2	I	1	0	522	1	poli_8sides 9_whiteLine3.jpg	MediumLong_e19_stereo_44KHz.wav
1	157	2	2	1	C	2	0	413	0	poli_8sides 18_whiteLine3.jpg	MediumLong_e04_stereo_44KHz.wav
1	158	3	4	2	I	2	0	280	0	poli_8sides 4_whiteLine3.jpg	Medium_e13_stereo_44KHz.wav
1	159	4	4	2	I	2	0	284	0	poli_8sides 9_whiteLine3.jpg	Medium_e13_stereo_44KHz.wav
1	160	1	1	1	C	2	0	216	0	poli_8sides 15_whiteLine3.jpg	MediumLong_b10_cut2_L_stereo_44KHz.wav
1	161	4	3	2	I	2	0	343	0	poli_8sides 9_whiteLine3.jpg	MediumLong_e19_stereo_44KHz.wav
1	162	2	2	1	C	1	1	731	1	poli_8sides 18_whiteLine3.jpg	MediumLong_e04_stereo_44KHz.wav
1	163	3	3	2	I	2	0	357	0	poli_8sides 4_whiteLine3.jpg	MediumLong_e19_stereo_44KHz.wav
1	164	1	1	1	C	2	0	481	0	poli_8sides 15_whiteLine3.jpg	MediumLong_b10_cut2_L_stereo_44KHz.wav
1	165	2	1	0	C	1	0	365	0	poli_8sides 18_whiteLine3.jpg	MediumLong_b10_cut2_L_stereo_44KHz.wav
1	166	1	2	0	C	2	1	159	1	poli_8sides 15_whiteLine3.jpg	MediumLong_e04_stereo_44KHz.wav
1	167	3	4	2	I	2	0	564	0	poli_8sides 4_whiteLine3.jpg	Medium_e13_stereo_44KHz.wav
1	168	4	4	2	I	2	0	242	0	poli_8sides 9_whiteLine3.jpg	Medium_e13_stereo_44KHz.wav
1	169	1	1	1	C	2	0	278	0	poli_8sides 15_whiteLine3.jpg	MediumLong_b10_cut2_L_stereo_44KHz.wav
1	170	3	4	2	I	2	0	603	0	poli_8sides 4_whiteLine3.jpg	Medium_e13_stereo_44KHz.wav
1	171	2	2	1	C	1	1	163	1	poli_8sides 18_whiteLine3.jpg	MediumLong_e04_stereo_44KHz.wav
1	172	4	3	2	I	2	0	271	1	poli_8sides 9_whiteLine3.jpg	MediumLong_e19_stereo_44KHz.wav
1	173	1	2	0	C	2	1	295	1	poli_8sides 15_whiteLine3.jpg	MediumLong_e04_stereo_44KHz.wav
1	174	3	3	2	I	2	0	320	1	poli_8sides 4_whiteLine3.jpg	MediumLong_e19_stereo_44KHz.wav
1	175	4	4	2	I	2	0	431	0	poli_8sides 9_whiteLine3.jpg	Medium_e13_stereo_44KHz.wav
1	176	2	1	0	C	1	0	1126	0	poli_8sides 18_whiteLine3.jpg	MediumLong_b10_cut2_L_stereo_44KHz.wav
1	177	4	4	2	I	2	0	248	1	poli_8sides 9_whiteLine3.jpg	Medium_e13_stereo_44KHz.wav
1	178	2	1	0	C	1	0	247	0	poli_8sides 18_whiteLine3.jpg	MediumLong_b10_cut2_L_stereo_44KHz.wav
1	179	3	3	2	I	2	0	54	1	poli_8sides 4_whiteLine3.jpg	MediumLong_e19_stereo_44KHz.wav
1	180	1	1	1	C	2	0	161	0	poli_8sides 15_whiteLine3.jpg	MediumLong_b10_cut2_L_stereo_44KHz.wav
1	181	4	3	2	I	2	0	232	0	poli_8sides 9_whiteLine3.jpg	MediumLong_e19_stereo_44KHz.wav
1	182	3	4	2	I	1	0	112	1	poli_8sides 4_whiteLine3.jpg	Medium_e13_stereo_44KHz.wav
1	183	2	2	1	C	2	0	216	0	poli_8sides 18_whiteLine3.jpg	MediumLong_e04_stereo_44KHz.wav
1	184	1	2	0	C	2	1	887	1	poli_8sides 15_whiteLine3.jpg	MediumLong_e04_stereo_44KHz.wav
1	185	2	1	0	C	1	0	541	0	poli_8sides 18_whiteLine3.jpg	MediumLong_b10_cut2_L_stereo_44KHz.wav
1	186	3	3	2	I	2	0	382	1	poli_8sides 4_whiteLine3.jpg	MediumLong_e19_stereo_44KHz.wav
1	187	1	1	1	C	2	0	209	0	poli_8sides 15_whiteLine3.jpg	MediumLong_b10_cut2_L_stereo_44KHz.wav
1	188	4	4	2	I	1	0	216	1	poli_8sides 9_whiteLine3.jpg	Medium_e13_stereo_44KHz.wav
1	189	3	4	2	I	2	0	562	1	poli_8sides 4_whiteLine3.jpg	Medium_e13_stereo_44KHz.wav
1	190	4	3	2	I	2	0	391	0	poli_8sides 9_whiteLine3.jpg	MediumLong_e19_stereo_44KHz.wav
1	191	1	2	0	C	2	1	350	1	poli_8sides 15_whiteLine3.jpg	MediumLong_e04_stereo_44KHz.wav
1	192	2	2	1	C	2	0	190	0	poli_8sides 18_whiteLine3.jpg	MediumLong_e04_stereo_44KHz.wav
1	193	3	3	2	I	1	0	375	0	poli_8sides 4_whiteLine3.jpg	MediumLong_e19_stereo_44KHz.wav
1	194	1	1	1	C	2	0	268	0	poli_8sides 15_whiteLine3.jpg	MediumLong_b10_cut2_L_stereo_44KHz.wav
1	195	2	2	1	C	2	0	121	0	poli_8sides 18_whiteLine3.jpg	MediumLong_e04_stereo_44KHz.wav
1	196	4	4	2	I	1	0	788	0	poli_8sides 9_whiteLine3.jpg	Medium_e13_stereo_44KHz.wav
1	197	3	4	2	I	2	0	406	1	poli_8sides 4_whiteLine3.jpg	Medium_e13_stereo_44KHz.wav
1	198	4	3	2	I	2	0	85	0	poli_8sides 9_whiteLine3.jpg	MediumLong_e19_stereo_44KHz.wav
1	199	2	1	0	C	1	0	596	0	poli_8sides 18_whiteLine3.jpg	MediumLong_b10_cut2_L_stereo_44KHz.wav
1	200	1	2	0	C	2	1	232	1	poli_8sides 15_whiteLine3.jpg	MediumLong_e04_stereo_44KHz.wav
2	1	1	1	1	C	2	0	1105	0	poli_8sides 12_whiteLine3.jpg	MediumShort_e22_cut1_stereo_44KHz.wav
2	2	3	3	2	I	2	0	620	1	poli_8sides 1_whiteLine3.jpg	MediumShort_b10_cut1_MS_stereo_44KHz.wav
2	3	2	1	0	C	2	1	832	1	poli_8sides 13_whiteLine3.jpg	MediumShort_e22_cut1_stereo_44KHz.wav
2	4	4	4	2	I	2	0	686	0	poli_8sides 7_whiteLine3.jpg	MediumShort_e16_cut1_stereo_44KHz.wav
2	5	1	2	0	C	2	1	880	1	poli_8sides 12_whiteLine3.jpg	MediumShort_b16_cut3_MS_stereo_44KHz.wav
2	6	2	2	1	C	1	1	1098	1	poli_8sides 13_whiteLine3.jpg	MediumShort_b16_cut3_MS_stereo_44KHz.wav
2	7	3	4	2	I	2	0	670	1	poli_8sides 1_whiteLine3.jpg	MediumShort_e16_cut1_stereo_44KHz.wav
2	8	4	3	2	I	2	0	1019	1	poli_8sides 7_whiteLine3.jpg	MediumShort_b10_cut1_MS_stereo_44KHz.wav
2	9	1	1	1	C	1	1	1145	1	poli_8sides 12_whiteLine3.jpg	MediumShort_e22_cut1_stereo_44KHz.wav
2	10	3	4	2	I	2	0	359	0	poli_8sides 1_whiteLine3.jpg	MediumShort_e16_cut1_stereo_44KHz.wav
2	11	4	4	2	I	2	0	290	1	poli_8sides 7_whiteLine3.jpg	MediumShort_e16_cut1_stereo_44KHz.wav
2	12	2	2	1	C	1	1	561	1	poli_8sides 13_whiteLine3.jpg	MediumShort_b16_cut3_MS_stereo_44KHz.wav
2	13	4	3	2	I	2	0	406	1	poli_8sides 7_whiteLine3.jpg	MediumShort_b10_cut1_MS_stereo_44KHz.wav
2	14	3	3	2	I	2	0	193	1	poli_8sides 1_whiteLine3.jpg	MediumShort_b10_cut1_MS_stereo_44KHz.wav
2	15	2	1	0	C	2	1	440	1	poli_8sides 13_whiteLine3.jpg	MediumShort_e22_cut1_stereo_44KHz.wav
2	16	1	2	0	C	1	0	316	0	poli_8sides 12_whiteLine3.jpg	MediumShort_b16_cut3_MS_stereo_44KHz.wav
2	17	3	4	2	I	2	0	594	1	poli_8sides 1_whiteLine3.jpg	MediumShort_e16_cut1_stereo_44KHz.wav
2	18	1	2	0	C	2	1	857	1	poli_8sides 12_whiteLine3.jpg	MediumShort_b16_cut3_MS_stereo_44KHz.wav
2	19	2	1	0	C	2	1	354	1	poli_8sides 13_whiteLine3.jpg	MediumShort_e22_cut1_stereo_44KHz.wav
2	20	4	3	2	I	2	0	649	0	poli_8sides 7_whiteLine3.jpg	MediumShort_b10_cut1_MS_stereo_44KHz.wav
2	21	1	1	1	C	1	1	205	1	poli_8sides 12_whiteLine3.jpg	MediumShort_e22_cut1_stereo_44KHz.wav
2	22	3	3	2	I	2	0	379	1	poli_8sides 1_whiteLine3.jpg	MediumShort_b10_cut1_MS_stereo_44KHz.wav
2	23	2	2	1	C	2	0	15	0	poli_8sides 13_whiteLine3.jpg	MediumShort_b16_cut3_MS_stereo_44KHz.wav
2	24	4	4	2	I	1	0	319	1	poli_8sides 7_whiteLine3.jpg	MediumShort_e16_cut1_stereo_44KHz.wav
2	25	3	4	2	I	2	0	322	1	poli_8sides 1_whiteLine3.jpg	MediumShort_e16_cut1_stereo_44KHz.wav
2	26	1	1	1	C	2	0	883	0	poli_8sides 12_whiteLine3.jpg	MediumShort_e22_cut1_stereo_44KHz.wav
2	27	2	1	0	C	2	1	935	1	poli_8sides 13_whiteLine3.jpg	MediumShort_e22_cut1_stereo_44KHz.wav
2	28	4	3	2	I	1	0	879	1	poli_8sides 7_whiteLine3.jpg	MediumShort_b10_cut1_MS_stereo_44KHz.wav
2	29	1	2	0	C	2	1	528	1	poli_8sides 12_whiteLine3.jpg	MediumShort_b16_cut3_MS_stereo_44KHz.wav
2	30	4	4	2	I	2	0	499	1	poli_8sides 7_whiteLine3.jpg	MediumShort_e16_cut1_stereo_44KHz.wav
2	31	2	2	1	C	1	1	389	1	poli_8sides 13_whiteLine3.jpg	MediumShort_b16_cut3_MS_stereo_44KHz.wav
2	32	3	3	2	I	2	0	853	1	poli_8sides 1_whiteLine3.jpg	MediumShort_b10_cut1_MS_stereo_44KHz.wav
2	33	1	1	1	C	2	0	937	0	poli_8sides 12_whiteLine3.jpg	MediumShort_e22_cut1_stereo_44KHz.wav
2	34	3	3	2	I	2	0	1227	1	poli_8sides 1_whiteLine3.jpg	MediumShort_b10_cut1_MS_stereo_44KHz.wav
2	35	2	2	1	C	2	0	888	0	poli_8sides 13_whiteLine3.jpg	MediumShort_b16_cut3_MS_stereo_44KHz.wav
2	36	4	3	2	I	2	0	1084	0	poli_8sides 7_whiteLine3.jpg	MediumShort_b10_cut1_MS_stereo_44KHz.wav
2	37	2	1	0	C	2	1	571	1	poli_8sides 13_whiteLine3.jpg	MediumShort_e22_cut1_stereo_44KHz.wav
2	38	4	4	2	I	1	0	289	1	poli_8sides 7_whiteLine3.jpg	MediumShort_e16_cut1_stereo_44KHz.wav
2	39	1	2	0	C	2	1	311	1	poli_8sides 12_whiteLine3.jpg	MediumShort_b16_cut3_MS_stereo_44KHz.wav
2	40	3	4	2	I	2	0	353	0	poli_8sides 1_whiteLine3.jpg	MediumShort_e16_cut1_stereo_44KHz.wav
2	41	1	2	0	C	2	1	512	1	poli_8sides 12_whiteLine3.jpg	MediumShort_b16_cut3_MS_stereo_44KHz.wav
2	42	2	2	1	C	1	1	940	1	poli_8sides 13_whiteLine3.jpg	MediumShort_b16_cut3_MS_stereo_44KHz.wav
2	43	3	3	2	I	2	0	372	1	poli_8sides 1_whiteLine3.jpg	MediumShort_b10_cut1_MS_stereo_44KHz.wav
2	44	4	3	2	I	2	0	385	0	poli_8sides 7_whiteLine3.jpg	MediumShort_b10_cut1_MS_stereo_44KHz.wav
2	45	2	1	0	C	1	0	358	0	poli_8sides 13_whiteLine3.jpg	MediumShort_e22_cut1_stereo_44KHz.wav
2	46	4	4	2	I	2	0	636	1	poli_8sides 7_whiteLine3.jpg	MediumShort_e16_cut1_stereo_44KHz.wav
2	47	1	1	1	C	2	0	494	0	poli_8sides 12_whiteLine3.jpg	MediumShort_e22_cut1_stereo_44KHz.wav
2	48	3	4	2	I	2	0	196	0	poli_8sides 1_whiteLine3.jpg	MediumShort_e16_cut1_stereo_44KHz.wav
2	49	2	2	1	C	2	0	317	0	poli_8sides 13_whiteLine3.jpg	MediumShort_b16_cut3_MS_stereo_44KHz.wav
2	50	4	4	2	I	1	0	772	1	poli_8sides 7_whiteLine3.jpg	MediumShort_e16_cut1_stereo_44KHz.wav
2	51	1	1	1	C	2	0	206	0	poli_8sides 12_whiteLine3.jpg	MediumShort_e22_cut1_stereo_44KHz.wav
2	52	3	3	2	I	1	0	251	0	poli_8sides 1_whiteLine3.jpg	MediumShort_b10_cut1_MS_stereo_44KHz.wav
2	53	4	3	2	I	2	0	503	0	poli_8sides 7_whiteLine3.jpg	MediumShort_b10_cut1_MS_stereo_44KHz.wav
2	54	3	4	2	I	1	0	175	1	poli_8sides 1_whiteLine3.jpg	MediumShort_e16_cut1_stereo_44KHz.wav
2	55	2	1	0	C	2	1	247	1	poli_8sides 13_whiteLine3.jpg	MediumShort_e22_cut1_stereo_44KHz.wav
2	56	1	2	0	C	1	0	287	0	poli_8sides 12_whiteLine3.jpg	MediumShort_b16_cut3_MS_stereo_44KHz.wav
2	57	2	1	0	C	2	1	54	1	poli_8sides 13_whiteLine3.jpg	MediumShort_e22_cut1_stereo_44KHz.wav
2	58	1	2	0	C	2	1	779	1	poli_8sides 12_whiteLine3.jpg	MediumShort_b16_cut3_MS_stereo_44KHz.wav
2	59	4	3	2	I	1	0	1009	1	poli_8sides 7_whiteLine3.jpg	MediumShort_b10_cut1_MS_stereo_44KHz.wav
2	60	3	4	2	I	1	0	1183	1	poli_8sides 1_whiteLine3.jpg	MediumShort_e16_cut1_stereo_44KHz.wav
2	61	1	1	1	C	2	0	958	0	poli_8sides 12_whiteLine3.jpg	MediumShort_e22_cut1_stereo_44KHz.wav
2	62	2	2	1	C	2	0	1297	0	poli_8sides 13_whiteLine3.jpg	MediumShort_b16_cut3_MS_stereo_44KHz.wav
2	63	3	3	2	I	1	0	571	1	poli_8sides 1_whiteLine3.jpg	MediumShort_b10_cut1_MS_stereo_44KHz.wav
2	64	4	4	2	I	2	0	459	1	poli_8sides 7_whiteLine3.jpg	MediumShort_e16_cut1_stereo_44KHz.wav
2	65	1	1	1	C	2	0	186	0	poli_8sides 12_whiteLine3.jpg	MediumShort_e22_cut1_stereo_44KHz.wav
2	66	3	3	2	I	2	0	223	1	poli_8sides 1_whiteLine3.jpg	MediumShort_b10_cut1_MS_stereo_44KHz.wav
2	67	2	2	1	C	2	0	243	0	poli_8sides 13_whiteLine3.jpg	MediumShort_b16_cut3_MS_stereo_44KHz.wav
2	68	4	4	2	I	1	0	219	0	poli_8sides 7_whiteLine3.jpg	MediumShort_e16_cut1_stereo_44KHz.wav
2	69	3	4	2	I	2	0	176	0	poli_8sides 1_whiteLine3.jpg	MediumShort_e16_cut1_stereo_44KHz.wav
2	70	1	2	0	C	2	1	476	1	poli_8sides 12_whiteLine3.jpg	MediumShort_b16_cut3_MS_stereo_44KHz.wav
2	71	4	3	2	I	2	0	531	0	poli_8sides 7_whiteLine3.jpg	MediumShort_b10_cut1_MS_stereo_44KHz.wav
2	72	2	1	0	C	2	1	477	1	poli_8sides 13_whiteLine3.jpg	MediumShort_e22_cut1_stereo_44KHz.wav
2	73	1	1	1	C	2	0	612	0	poli_8sides 12_whiteLine3.jpg	MediumShort_e22_cut1_stereo_44KHz.wav
2	74	2	1	0	C	1	0	639	0	poli_8sides 13_whiteLine3.jpg	MediumShort_e22_cut1_stereo_44KHz.wav
2	75	3	4	2	I	2	0	150	1	poli_8sides 1_whiteLine3.jpg	MediumShort_e16_cut1_stereo_44KHz.wav
2	76	4	4	2	I	2	0	403	0	poli_8sides 7_whiteLine3.jpg	MediumShort_e16_cut1_stereo_44KHz.wav
2	77	2	2	1	C	1	1	256	1	poli_8sides 13_whiteLine3.jpg	MediumShort_b16_cut3_MS_stereo_44KHz.wav
2	78	1	2	0	C	2	1	256	1	poli_8sides 12_whiteLine3.jpg	MediumShort_b16_cut3_MS_stereo_44KHz.wav
2	79	3	3	2	I	2	0	264	1	poli_8sides 1_whiteLine3.jpg	MediumShort_b10_cut1_MS_stereo_44KHz.wav
2	80	4	3	2	I	2	0	648	1	poli_8sides 7_whiteLine3.jpg	MediumShort_b10_cut1_MS_stereo_44KHz.wav
2	81	2	2	1	C	2	0	235	0	poli_8sides 13_whiteLine3.jpg	MediumShort_b16_cut3_MS_stereo_44KHz.wav
2	82	3	3	2	I	1	0	244	0	poli_8sides 1_whiteLine3.jpg	MediumShort_b10_cut1_MS_stereo_44KHz.wav
2	83	4	4	2	I	2	0	452	0	poli_8sides 7_whiteLine3.jpg	MediumShort_e16_cut1_stereo_44KHz.wav
2	84	1	2	0	C	2	1	218	1	poli_8sides 12_whiteLine3.jpg	MediumShort_b16_cut3_MS_stereo_44KHz.wav
2	85	2	1	0	C	2	1	506	1	poli_8sides 13_whiteLine3.jpg	MediumShort_e22_cut1_stereo_44KHz.wav
2	86	3	4	2	I	2	0	635	1	poli_8sides 1_whiteLine3.jpg	MediumShort_e16_cut1_stereo_44KHz.wav
2	87	4	3	2	I	2	0	403	1	poli_8sides 7_whiteLine3.jpg	MediumShort_b10_cut1_MS_stereo_44KHz.wav
2	88	1	1	1	C	2	0	634	0	poli_8sides 12_whiteLine3.jpg	MediumShort_e22_cut1_stereo_44KHz.wav
2	89	2	1	0	C	1	0	292	0	poli_8sides 13_whiteLine3.jpg	MediumShort_e22_cut1_stereo_44KHz.wav
2	90	3	3	2	I	2	0	916	0	poli_8sides 1_whiteLine3.jpg	MediumShort_b10_cut1_MS_stereo_44KHz.wav
2	91	1	2	0	C	2	1	884	1	poli_8sides 12_whiteLine3.jpg	MediumShort_b16_cut3_MS_stereo_44KHz.wav
2	92	4	3	2	I	1	0	467	1	poli_8sides 7_whiteLine3.jpg	MediumShort_b10_cut1_MS_stereo_44KHz.wav
2	93	1	1	1	C	2	0	647	0	poli_8sides 12_whiteLine3.jpg	MediumShort_e22_cut1_stereo_44KHz.wav
2	94	3	4	2	I	2	0	365	0	poli_8sides 1_whiteLine3.jpg	MediumShort_e16_cut1_stereo_44KHz.wav
2	95	2	2	1	C	1	1	290	1	poli_8sides 13_whiteLine3.jpg	MediumShort_b16_cut3_MS_stereo_44KHz.wav
2	96	4	4	2	I	2	0	214	1	poli_8sides 7_whiteLine3.jpg	MediumShort_e16_cut1_stereo_44KHz.wav
2	97	3	4	2	I	2	0	263	0	poli_8sides 1_whiteLine3.jpg	MediumShort_e16_cut1_stereo_44KHz.wav
2	98	1	1	1	C	2	0	637	0	poli_8sides 12_whiteLine3.jpg	MediumShort_e22_cut1_stereo_44KHz.wav
2	99	4	3	2	I	1	0	255	1	poli_8sides 7_whiteLine3.jpg	MediumShort_b10_cut1_MS_stereo_44KHz.wav
2	100	2	1	0	C	2	1	282	1	poli_8sides 13_whiteLine3.jpg	MediumShort_e22_cut1_stereo_44KHz.wav
2	101	3	3	2	I	1	0	51	0	poli_8sides 1_whiteLine3.jpg	MediumShort_b10_cut1_MS_stereo_44KHz.wav
2	102	1	2	0	C	2	1	38	1	poli_8sides 12_whiteLine3.jpg	MediumShort_b16_cut3_MS_stereo_44KHz.wav
2	103	4	4	2	I	2	0	205	0	poli_8sides 7_whiteLine3.jpg	MediumShort_e16_cut1_stereo_44KHz.wav
2	104	2	2	1	C	2	0	186	0	poli_8sides 13_whiteLine3.jpg	MediumShort_b16_cut3_MS_stereo_44KHz.wav
2	105	1	2	0	C	2	1	225	1	poli_8sides 12_whiteLine3.jpg	MediumShort_b16_cut3_MS_stereo_44KHz.wav
2	106	4	3	2	I	2	0	197	1	poli_8sides 7_whiteLine3.jpg	MediumShort_b10_cut1_MS_stereo_44KHz.wav
2	107	3	3	2	I	2	0	1257	0	poli_8sides 1_whiteLine3.jpg	MediumShort_b10_cut1_MS_stereo_44KHz.wav
2	108	2	2	1	C	2	0	279	0	poli_8sides 13_whiteLine3.jpg	MediumShort_b16_cut3_MS_stereo_44KHz.wav
2	109	4	4	2	I	1	0	661	0	poli_8sides 7_whiteLine3.jpg	MediumShort_e16_cut1_stereo_44KHz.wav
2	110	3	4	2	I	2	0	510	1	poli_8sides 1_whiteLine3.jpg	MediumShort_e16_cut1_stereo_44KHz.wav
2	111	2	1	0	C	2	1	561	1	poli_8sides 13_whiteLine3.jpg	MediumShort_e22_cut1_stereo_44KHz.wav
2	112	1	1	1	C	2	0	461	0	poli_8sides 12_whiteLine3.jpg	MediumShort_e22_cut1_stereo_44KHz.wav
2	113	4	3	2	I	2	0	189	0	poli_8sides 7_whiteLine3.jpg	MediumShort_b10_cut1_MS_stereo_44KHz.wav
2	114	3	3	2	I	1	0	69	1	poli_8sides 1_whiteLine3.jpg	MediumShort_b10_cut1_MS_stereo_44KHz.wav
2	115	2	1	0	C	2	1	216	1	poli_8sides 13_whiteLine3.jpg	MediumShort_e22_cut1_stereo_44KHz.wav
2	116	1	1	1	C	2	0	267	0	poli_8sides 12_whiteLine3.jpg	MediumShort_e22_cut1_stereo_44KHz.wav
2	117	4	4	2	I	1	0	220	0	poli_8sides 7_whiteLine3.jpg	MediumShort_e16_cut1_stereo_44KHz.wav
2	118	2	2	1	C	2	0	385	0	poli_8sides 13_whiteLine3.jpg	MediumShort_b16_cut3_MS_stereo_44KHz.wav
2	119	3	4	2	I	2	0	706	1	poli_8sides 1_whiteLine3.jpg	MediumShort_e16_cut1_stereo_44KHz.wav
2	120	1	2	0	C	2	1	804	1	poli_8sides 12_whiteLine3.jpg	MediumShort_b16_cut3_MS_stereo_44KHz.wav
2	121	4	4	2	I	1	0	916	0	poli_8sides 7_whiteLine3.jpg	MediumShort_e16_cut1_stereo_44KHz.wav
2	122	1	1	1	C	2	0	349	0	poli_8sides 12_whiteLine3.jpg	MediumShort_e22_cut1_stereo_44KHz.wav
2	123	2	2	1	C	2	0	428	0	poli_8sides 13_whiteLine3.jpg	MediumShort_b16_cut3_MS_stereo_44KHz.wav
2	124	3	4	2	I	1	0	315	0	poli_8sides 1_whiteLine3.jpg	MediumShort_e16_cut1_stereo_44KHz.wav
2	125	4	3	2	I	2	0	372	1	poli_8sides 7_whiteLine3.jpg	MediumShort_b10_cut1_MS_stereo_44KHz.wav
2	126	2	1	0	C	2	1	158	1	poli_8sides 13_whiteLine3.jpg	MediumShort_e22_cut1_stereo_44KHz.wav
2	127	1	2	0	C	2	1	796	1	poli_8sides 12_whiteLine3.jpg	MediumShort_b16_cut3_MS_stereo_44KHz.wav
2	128	3	3	2	I	0	0	0	0	poli_8sides 1_whiteLine3.jpg	MediumShort_b10_cut1_MS_stereo_44KHz.wav
2	129	4	4	2	I	2	0	261	0	poli_8sides 7_whiteLine3.jpg	MediumShort_e16_cut1_stereo_44KHz.wav
2	130	1	1	1	C	2	0	1492	0	poli_8sides 12_whiteLine3.jpg	MediumShort_e22_cut1_stereo_44KHz.wav
2	131	2	2	1	C	2	0	456	0	poli_8sides 13_whiteLine3.jpg	MediumShort_b16_cut3_MS_stereo_44KHz.wav
2	132	3	3	2	I	2	0	1090	0	poli_8sides 1_whiteLine3.jpg	MediumShort_b10_cut1_MS_stereo_44KHz.wav
2	133	4	3	2	I	1	0	235	1	poli_8sides 7_whiteLine3.jpg	MediumShort_b10_cut1_MS_stereo_44KHz.wav
2	134	1	2	0	C	2	1	275	1	poli_8sides 12_whiteLine3.jpg	MediumShort_b16_cut3_MS_stereo_44KHz.wav
2	135	3	4	2	I	2	0	138	0	poli_8sides 1_whiteLine3.jpg	MediumShort_e16_cut1_stereo_44KHz.wav
2	136	2	1	0	C	1	0	333	0	poli_8sides 13_whiteLine3.jpg	MediumShort_e22_cut1_stereo_44KHz.wav
2	137	3	3	2	I	2	0	845	1	poli_8sides 1_whiteLine3.jpg	MediumShort_b10_cut1_MS_stereo_44KHz.wav
2	138	2	2	1	C	1	1	776	1	poli_8sides 13_whiteLine3.jpg	MediumShort_b16_cut3_MS_stereo_44KHz.wav
2	139	4	3	2	I	2	0	776	0	poli_8sides 7_whiteLine3.jpg	MediumShort_b10_cut1_MS_stereo_44KHz.wav
2	140	1	1	1	C	2	0	870	0	poli_8sides 12_whiteLine3.jpg	MediumShort_e22_cut1_stereo_44KHz.wav
2	141	2	1	0	C	2	1	642	1	poli_8sides 13_whiteLine3.jpg	MediumShort_e22_cut1_stereo_44KHz.wav
2	142	4	4	2	I	2	0	596	0	poli_8sides 7_whiteLine3.jpg	MediumShort_e16_cut1_stereo_44KHz.wav
2	143	3	4	2	I	1	0	243	0	poli_8sides 1_whiteLine3.jpg	MediumShort_e16_cut1_stereo_44KHz.wav
2	144	1	2	0	C	2	1	403	1	poli_8sides 12_whiteLine3.jpg	MediumShort_b16_cut3_MS_stereo_44KHz.wav
2	145	4	4	2	I	2	0	260	1	poli_8sides 7_whiteLine3.jpg	MediumShort_e16_cut1_stereo_44KHz.wav
2	146	3	3	2	I	2	0	246	0	poli_8sides 1_whiteLine3.jpg	MediumShort_b10_cut1_MS_stereo_44KHz.wav
2	147	2	2	1	C	2	0	503	0	poli_8sides 13_whiteLine3.jpg	MediumShort_b16_cut3_MS_stereo_44KHz.wav
2	148	1	1	1	C	1	1	72	1	poli_8sides 12_whiteLine3.jpg	MediumShort_e22_cut1_stereo_44KHz.wav
2	149	4	3	2	I	2	0	751	0	poli_8sides 7_whiteLine3.jpg	MediumShort_b10_cut1_MS_stereo_44KHz.wav
2	150	2	1	0	C	2	1	334	1	poli_8sides 13_whiteLine3.jpg	MediumShort_e22_cut1_stereo_44KHz.wav
2	151	3	4	2	I	1	0	394	0	poli_8sides 1_whiteLine3.jpg	MediumShort_e16_cut1_stereo_44KHz.wav
2	152	1	2	0	C	2	1	373	1	poli_8sides 12_whiteLine3.jpg	MediumShort_b16_cut3_MS_stereo_44KHz.wav
2	153	3	3	2	I	2	0	300	1	poli_8sides 1_whiteLine3.jpg	MediumShort_b10_cut1_MS_stereo_44KHz.wav
2	154	2	1	0	C	0	0	0	0	poli_8sides 13_whiteLine3.jpg	MediumShort_e22_cut1_stereo_44KHz.wav
2	155	1	2	0	C	2	1	320	1	poli_8sides 12_whiteLine3.jpg	MediumShort_b16_cut3_MS_stereo_44KHz.wav
2	156	4	3	2	I	1	0	482	1	poli_8sides 7_whiteLine3.jpg	MediumShort_b10_cut1_MS_stereo_44KHz.wav
2	157	1	1	1	C	2	0	464	0	poli_8sides 12_whiteLine3.jpg	MediumShort_e22_cut1_stereo_44KHz.wav
2	158	4	4	2	I	2	0	279	1	poli_8sides 7_whiteLine3.jpg	MediumShort_e16_cut1_stereo_44KHz.wav
2	159	2	2	1	C	1	1	534	1	poli_8sides 13_whiteLine3.jpg	MediumShort_b16_cut3_MS_stereo_44KHz.wav
2	160	3	4	2	I	2	0	279	0	poli_8sides 1_whiteLine3.jpg	MediumShort_e16_cut1_stereo_44KHz.wav
2	161	2	1	0	C	2	1	341	1	poli_8sides 13_whiteLine3.jpg	MediumShort_e22_cut1_stereo_44KHz.wav
2	162	3	3	2	I	2	0	74	1	poli_8sides 1_whiteLine3.jpg	MediumShort_b10_cut1_MS_stereo_44KHz.wav
2	163	1	2	0	C	1	0	325	0	poli_8sides 12_whiteLine3.jpg	MediumShort_b16_cut3_MS_stereo_44KHz.wav
2	164	4	4	2	I	2	0	295	0	poli_8sides 7_whiteLine3.jpg	MediumShort_e16_cut1_stereo_44KHz.wav
2	165	2	2	1	C	2	0	319	0	poli_8sides 13_whiteLine3.jpg	MediumShort_b16_cut3_MS_stereo_44KHz.wav
2	166	4	3	2	I	1	0	320	0	poli_8sides 7_whiteLine3.jpg	MediumShort_b10_cut1_MS_stereo_44KHz.wav
2	167	3	4	2	I	2	0	245	1	poli_8sides 1_whiteLine3.jpg	MediumShort_e16_cut1_stereo_44KHz.wav
2	168	1	1	1	C	1	1	225	1	poli_8sides 12_whiteLine3.jpg	MediumShort_e22_cut1_stereo_44KHz.wav
2	169	2	1	0	C	2	1	44	1	poli_8sides 13_whiteLine3.jpg	MediumShort_e22_cut1_stereo_44KHz.wav
2	170	1	2	0	C	2	1	226	1	poli_8sides 12_whiteLine3.jpg	MediumShort_b16_cut3_MS_stereo_44KHz.wav
2	171	4	4	2	I	2	0	1018	0	poli_8sides 7_whiteLine3.jpg	MediumShort_e16_cut1_stereo_44KHz.wav
2	172	3	4	2	I	2	0	608	0	poli_8sides 1_whiteLine3.jpg	MediumShort_e16_cut1_stereo_44KHz.wav
2	173	4	3	2	I	2	0	798	0	poli_8sides 7_whiteLine3.jpg	MediumShort_b10_cut1_MS_stereo_44KHz.wav
2	174	2	2	1	C	2	0	437	0	poli_8sides 13_whiteLine3.jpg	MediumShort_b16_cut3_MS_stereo_44KHz.wav
2	175	3	3	2	I	1	0	418	0	poli_8sides 1_whiteLine3.jpg	MediumShort_b10_cut1_MS_stereo_44KHz.wav
2	176	1	1	1	C	2	0	223	0	poli_8sides 12_whiteLine3.jpg	MediumShort_e22_cut1_stereo_44KHz.wav
2	177	4	4	2	I	2	0	308	0	poli_8sides 7_whiteLine3.jpg	MediumShort_e16_cut1_stereo_44KHz.wav
2	178	3	3	2	I	2	0	258	1	poli_8sides 1_whiteLine3.jpg	MediumShort_b10_cut1_MS_stereo_44KHz.wav
2	179	1	1	1	C	2	0	377	0	poli_8sides 12_whiteLine3.jpg	MediumShort_e22_cut1_stereo_44KHz.wav
2	180	2	2	1	C	1	1	311	1	poli_8sides 13_whiteLine3.jpg	MediumShort_b16_cut3_MS_stereo_44KHz.wav
2	181	4	3	2	I	2	0	262	1	poli_8sides 7_whiteLine3.jpg	MediumShort_b10_cut1_MS_stereo_44KHz.wav
2	182	3	4	2	I	1	0	151	0	poli_8sides 1_whiteLine3.jpg	MediumShort_e16_cut1_stereo_44KHz.wav
2	183	1	2	0	C	2	1	170	1	poli_8sides 12_whiteLine3.jpg	MediumShort_b16_cut3_MS_stereo_44KHz.wav
2	184	2	1	0	C	2	1	17	1	poli_8sides 13_whiteLine3.jpg	MediumShort_e22_cut1_stereo_44KHz.wav
2	185	4	3	2	I	1	0	159	1	poli_8sides 7_whiteLine3.jpg	MediumShort_b10_cut1_MS_stereo_44KHz.wav
2	186	3	4	2	I	2	0	204	0	poli_8sides 1_whiteLine3.jpg	MediumShort_e16_cut1_stereo_44KHz.wav
2	187	2	2	1	C	2	0	275	0	poli_8sides 13_whiteLine3.jpg	MediumShort_b16_cut3_MS_stereo_44KHz.wav
2	188	1	2	0	C	2	1	205	1	poli_8sides 12_whiteLine3.jpg	MediumShort_b16_cut3_MS_stereo_44KHz.wav
2	189	4	4	2	I	2	0	395	0	poli_8sides 7_whiteLine3.jpg	MediumShort_e16_cut1_stereo_44KHz.wav
2	190	3	3	2	I	1	0	209	0	poli_8sides 1_whiteLine3.jpg	MediumShort_b10_cut1_MS_stereo_44KHz.wav
2	191	2	1	0	C	2	1	216	1	poli_8sides 13_whiteLine3.jpg	MediumShort_e22_cut1_stereo_44KHz.wav
2	192	1	1	1	C	2	0	253	0	poli_8sides 12_whiteLine3.jpg	MediumShort_e22_cut1_stereo_44KHz.wav
2	193	4	4	2	I	1	0	339	0	poli_8sides 7_whiteLine3.jpg	MediumShort_e16_cut1_stereo_44KHz.wav
2	194	1	1	1	C	2	0	213	0	poli_8sides 12_whiteLine3.jpg	MediumShort_e22_cut1_stereo_44KHz.wav
2	195	3	4	2	I	1	0	188	1	poli_8sides 1_whiteLine3.jpg	MediumShort_e16_cut1_stereo_44KHz.wav
2	196	2	1	0	C	2	1	144	1	poli_8sides 13_whiteLine3.jpg	MediumShort_e22_cut1_stereo_44KHz.wav
2	197	1	2	0	C	2	1	243	1	poli_8sides 12_whiteLine3.jpg	MediumShort_b16_cut3_MS_stereo_44KHz.wav
2	198	2	2	1	C	2	0	210	0	poli_8sides 13_whiteLine3.jpg	MediumShort_b16_cut3_MS_stereo_44KHz.wav
2	199	3	3	2	I	2	0	98	0	poli_8sides 1_whiteLine3.jpg	MediumShort_b10_cut1_MS_stereo_44KHz.wav
2	200	4	3	2	I	1	0	233	1	poli_8sides 7_whiteLine3.jpg	MediumShort_b10_cut1_MS_stereo_44KHz.wav
3	1	2	2	1	C	0	0	0	0	poli_8sides 11_whiteLine3.jpg	Short_b23_cut1_stereo_44KHz.wav
3	2	3	3	2	I	2	0	625	1	poli_8sides 8_whiteLine3.jpg	Short_b22_cut1_stereo_44KHz.wav
3	3	4	3	2	I	2	0	943	1	poli_8sides 3_whiteLine3.jpg	Short_b22_cut1_stereo_44KHz.wav
3	4	1	1	1	C	2	0	816	0	poli_8sides 5_whiteLine3.jpg	Short_b09_cut1_stereo_44KHz.wav
3	5	2	1	0	C	2	1	729	1	poli_8sides 11_whiteLine3.jpg	Short_b09_cut1_stereo_44KHz.wav
3	6	1	2	0	C	2	1	632	1	poli_8sides 5_whiteLine3.jpg	Short_b23_cut1_stereo_44KHz.wav
3	7	3	4	2	I	2	0	1088	0	poli_8sides 8_whiteLine3.jpg	Short_b20_cut1_stereo_44KHz.wav
3	8	4	4	2	I	2	0	1394	0	poli_8sides 3_whiteLine3.jpg	Short_b20_cut1_stereo_44KHz.wav
3	9	3	3	2	I	0	0	0	0	poli_8sides 8_whiteLine3.jpg	Short_b22_cut1_stereo_44KHz.wav
3	10	2	2	1	C	2	0	258	0	poli_8sides 11_whiteLine3.jpg	Short_b23_cut1_stereo_44KHz.wav
3	11	1	2	0	C	1	0	770	0	poli_8sides 5_whiteLine3.jpg	Short_b23_cut1_stereo_44KHz.wav
3	12	4	4	2	I	2	0	1408	0	poli_8sides 3_whiteLine3.jpg	Short_b20_cut1_stereo_44KHz.wav
3	13	2	1	0	C	2	1	614	1	poli_8sides 11_whiteLine3.jpg	Short_b09_cut1_stereo_44KHz.wav
3	14	3	4	2	I	2	0	461	0	poli_8sides 8_whiteLine3.jpg	Short_b20_cut1_stereo_44KHz.wav
3	15	4	3	2	I	2	0	284	0	poli_8sides 3_whiteLine3.jpg	Short_b22_cut1_stereo_44KHz.wav
3	16	1	1	1	C	2	0	1164	0	poli_8sides 5_whiteLine3.jpg	Short_b09_cut1_stereo_44KHz.wav
3	17	2	2	1	C	0	0	0	0	poli_8sides 11_whiteLine3.jpg	Short_b23_cut1_stereo_44KHz.wav
3	18	1	1	1	C	2	0	661	0	poli_8sides 5_whiteLine3.jpg	Short_b09_cut1_stereo_44KHz.wav
3	19	3	4	2	I	2	0	1574	1	poli_8sides 8_whiteLine3.jpg	Short_b20_cut1_stereo_44KHz.wav
3	20	4	3	2	I	2	0	1032	1	poli_8sides 3_whiteLine3.jpg	Short_b22_cut1_stereo_44KHz.wav
3	21	1	2	0	C	2	1	793	1	poli_8sides 5_whiteLine3.jpg	Short_b23_cut1_stereo_44KHz.wav
3	22	4	4	2	I	2	0	693	1	poli_8sides 3_whiteLine3.jpg	Short_b20_cut1_stereo_44KHz.wav
3	23	2	1	0	C	1	0	789	0	poli_8sides 11_whiteLine3.jpg	Short_b09_cut1_stereo_44KHz.wav
3	24	3	3	2	I	2	0	462	1	poli_8sides 8_whiteLine3.jpg	Short_b22_cut1_stereo_44KHz.wav
3	25	2	2	1	C	2	0	748	0	poli_8sides 11_whiteLine3.jpg	Short_b23_cut1_stereo_44KHz.wav
3	26	3	4	2	I	2	0	438	1	poli_8sides 8_whiteLine3.jpg	Short_b20_cut1_stereo_44KHz.wav
3	27	4	4	2	I	2	0	537	1	poli_8sides 3_whiteLine3.jpg	Short_b20_cut1_stereo_44KHz.wav
3	28	1	1	1	C	1	1	492	1	poli_8sides 5_whiteLine3.jpg	Short_b09_cut1_stereo_44KHz.wav
3	29	4	3	2	I	2	0	195	0	poli_8sides 3_whiteLine3.jpg	Short_b22_cut1_stereo_44KHz.wav
3	30	2	1	0	C	1	0	333	0	poli_8sides 11_whiteLine3.jpg	Short_b09_cut1_stereo_44KHz.wav
3	31	3	3	2	I	2	0	489	0	poli_8sides 8_whiteLine3.jpg	Short_b22_cut1_stereo_44KHz.wav
3	32	1	2	0	C	2	1	599	1	poli_8sides 5_whiteLine3.jpg	Short_b23_cut1_stereo_44KHz.wav
3	33	2	1	0	C	2	1	382	1	poli_8sides 11_whiteLine3.jpg	Short_b09_cut1_stereo_44KHz.wav
3	34	3	4	2	I	2	0	870	1	poli_8sides 8_whiteLine3.jpg	Short_b20_cut1_stereo_44KHz.wav
3	35	4	4	2	I	2	0	822	1	poli_8sides 3_whiteLine3.jpg	Short_b20_cut1_stereo_44KHz.wav
3	36	1	2	0	C	1	0	633	0	poli_8sides 5_whiteLine3.jpg	Short_b23_cut1_stereo_44KHz.wav
3	37	2	2	1	C	2	0	780	0	poli_8sides 11_whiteLine3.jpg	Short_b23_cut1_stereo_44KHz.wav
3	38	3	3	2	I	2	0	430	0	poli_8sides 8_whiteLine3.jpg	Short_b22_cut1_stereo_44KHz.wav
3	39	1	1	1	C	2	0	754	0	poli_8sides 5_whiteLine3.jpg	Short_b09_cut1_stereo_44KHz.wav
3	40	4	3	2	I	1	0	685	0	poli_8sides 3_whiteLine3.jpg	Short_b22_cut1_stereo_44KHz.wav
3	41	2	1	0	C	2	1	293	1	poli_8sides 11_whiteLine3.jpg	Short_b09_cut1_stereo_44KHz.wav
3	42	1	2	0	C	2	1	401	1	poli_8sides 5_whiteLine3.jpg	Short_b23_cut1_stereo_44KHz.wav
3	43	3	4	2	I	1	0	350	0	poli_8sides 8_whiteLine3.jpg	Short_b20_cut1_stereo_44KHz.wav
3	44	4	4	2	I	2	0	637	0	poli_8sides 3_whiteLine3.jpg	Short_b20_cut1_stereo_44KHz.wav
3	45	3	3	2	I	2	0	392	0	poli_8sides 8_whiteLine3.jpg	Short_b22_cut1_stereo_44KHz.wav
3	46	2	2	1	C	2	0	371	0	poli_8sides 11_whiteLine3.jpg	Short_b23_cut1_stereo_44KHz.wav
3	47	1	1	1	C	2	0	199	0	poli_8sides 5_whiteLine3.jpg	Short_b09_cut1_stereo_44KHz.wav
3	48	4	3	2	I	2	0	612	0	poli_8sides 3_whiteLine3.jpg	Short_b22_cut1_stereo_44KHz.wav
3	49	3	4	2	I	2	0	296	1	poli_8sides 8_whiteLine3.jpg	Short_b20_cut1_stereo_44KHz.wav
3	50	2	1	0	C	2	1	59	1	poli_8sides 11_whiteLine3.jpg	Short_b09_cut1_stereo_44KHz.wav
3	51	1	2	0	C	2	1	684	1	poli_8sides 5_whiteLine3.jpg	Short_b23_cut1_stereo_44KHz.wav
3	52	4	3	2	I	2	0	926	1	poli_8sides 3_whiteLine3.jpg	Short_b22_cut1_stereo_44KHz.wav
3	53	1	1	1	C	1	1	886	1	poli_8sides 5_whiteLine3.jpg	Short_b09_cut1_stereo_44KHz.wav
3	54	2	2	1	C	2	0	328	0	poli_8sides 11_whiteLine3.jpg	Short_b23_cut1_stereo_44KHz.wav
3	55	4	4	2	I	1	0	258	0	poli_8sides 3_whiteLine3.jpg	Short_b20_cut1_stereo_44KHz.wav
3	56	3	3	2	I	2	0	381	0	poli_8sides 8_whiteLine3.jpg	Short_b22_cut1_stereo_44KHz.wav
3	57	2	2	1	C	2	0	830	0	poli_8sides 11_whiteLine3.jpg	Short_b23_cut1_stereo_44KHz.wav
3	58	1	2	0	C	1	0	152	0	poli_8sides 5_whiteLine3.jpg	Short_b23_cut1_stereo_44KHz.wav
3	59	3	3	2	I	2	0	185	0	poli_8sides 8_whiteLine3.jpg	Short_b22_cut1_stereo_44KHz.wav
3	60	4	4	2	I	2	0	577	0	poli_8sides 3_whiteLine3.jpg	Short_b20_cut1_stereo_44KHz.wav
3	61	2	1	0	C	1	0	232	0	poli_8sides 11_whiteLine3.jpg	Short_b09_cut1_stereo_44KHz.wav
3	62	4	3	2	I	2	0	475	1	poli_8sides 3_whiteLine3.jpg	Short_b22_cut1_stereo_44KHz.wav
3	63	1	1	1	C	1	1	247	1	poli_8sides 5_whiteLine3.jpg	Short_b09_cut1_stereo_44KHz.wav
3	64	3	4	2	I	2	0	253	1	poli_8sides 8_whiteLine3.jpg	Short_b20_cut1_stereo_44KHz.wav
3	65	4	4	2	I	2	0	229	0	poli_8sides 3_whiteLine3.jpg	Short_b20_cut1_stereo_44KHz.wav
3	66	3	4	2	I	2	0	172	0	poli_8sides 8_whiteLine3.jpg	Short_b20_cut1_stereo_44KHz.wav
3	67	1	1	1	C	1	1	187	1	poli_8sides 5_whiteLine3.jpg	Short_b09_cut1_stereo_44KHz.wav
3	68	2	2	1	C	2	0	335	0	poli_8sides 11_whiteLine3.jpg	Short_b23_cut1_stereo_44KHz.wav
3	69	4	3	2	I	2	0	562	0	poli_8sides 3_whiteLine3.jpg	Short_b22_cut1_stereo_44KHz.wav
3	70	3	3	2	I	2	0	325	0	poli_8sides 8_whiteLine3.jpg	Short_b22_cut1_stereo_44KHz.wav
3	71	1	2	0	C	1	0	809	0	poli_8sides 5_whiteLine3.jpg	Short_b23_cut1_stereo_44KHz.wav
3	72	2	1	0	C	2	1	329	1	poli_8sides 11_whiteLine3.jpg	Short_b09_cut1_stereo_44KHz.wav
3	73	4	3	2	I	2	0	520	1	poli_8sides 3_whiteLine3.jpg	Short_b22_cut1_stereo_44KHz.wav
3	74	3	3	2	I	1	0	1113	1	poli_8sides 8_whiteLine3.jpg	Short_b22_cut1_stereo_44KHz.wav
3	75	2	1	0	C	2	1	876	1	poli_8sides 11_whiteLine3.jpg	Short_b09_cut1_stereo_44KHz.wav
3	76	1	2	0	C	2	1	831	1	poli_8sides 5_whiteLine3.jpg	Short_b23_cut1_stereo_44KHz.wav
3	77	4	4	2	I	1	0	694	0	poli_8sides 3_whiteLine3.jpg	Short_b20_cut1_stereo_44KHz.wav
3	78	3	4	2	I	2	0	799	1	poli_8sides 8_whiteLine3.jpg	Short_b20_cut1_stereo_44KHz.wav
3	79	2	2	1	C	2	0	428	0	poli_8sides 11_whiteLine3.jpg	Short_b23_cut1_stereo_44KHz.wav
3	80	1	1	1	C	1	1	900	1	poli_8sides 5_whiteLine3.jpg	Short_b09_cut1_stereo_44KHz.wav
3	81	4	3	2	I	2	0	293	0	poli_8sides 3_whiteLine3.jpg	Short_b22_cut1_stereo_44KHz.wav
3	82	3	4	2	I	2	0	399	0	poli_8sides 8_whiteLine3.jpg	Short_b20_cut1_stereo_44KHz.wav
3	83	1	2	0	C	2	1	462	1	poli_8sides 5_whiteLine3.jpg	Short_b23_cut1_stereo_44KHz.wav
3	84	2	1	0	C	2	1	480	1	poli_8sides 11_whiteLine3.jpg	Short_b09_cut1_stereo_44KHz.wav
3	85	4	4	2	I	2	0	267	1	poli_8sides 3_whiteLine3.jpg	Short_b20_cut1_stereo_44KHz.wav
3	86	3	3	2	I	2	0	850	0	poli_8sides 8_whiteLine3.jpg	Short_b22_cut1_stereo_44KHz.wav
3	87	2	2	1	C	2	0	797	0	poli_8sides 11_whiteLine3.jpg	Short_b23_cut1_stereo_44KHz.wav
3	88	1	1	1	C	1	1	697	1	poli_8sides 5_whiteLine3.jpg	Short_b09_cut1_stereo_44KHz.wav
3	89	2	1	0	C	2	1	850	1	poli_8sides 11_whiteLine3.jpg	Short_b09_cut1_stereo_44KHz.wav
3	90	4	3	2	I	2	0	454	1	poli_8sides 3_whiteLine3.jpg	Short_b22_cut1_stereo_44KHz.wav
3	91	1	1	1	C	1	1	563	1	poli_8sides 5_whiteLine3.jpg	Short_b09_cut1_stereo_44KHz.wav
3	92	3	3	2	I	2	0	792	0	poli_8sides 8_whiteLine3.jpg	Short_b22_cut1_stereo_44KHz.wav
3	93	4	4	2	I	2	0	768	0	poli_8sides 3_whiteLine3.jpg	Short_b20_cut1_stereo_44KHz.wav
3	94	2	2	1	C	2	0	265	0	poli_8sides 11_whiteLine3.jpg	Short_b23_cut1_stereo_44KHz.wav
3	95	3	4	2	I	0	0	0	0	poli_8sides 8_whiteLine3.jpg	Short_b20_cut1_stereo_44KHz.wav
3	96	1	2	0	C	2	1	428	1	poli_8sides 5_whiteLine3.jpg	Short_b23_cut1_stereo_44KHz.wav
3	97	3	3	2	I	1	0	666	1	poli_8sides 8_whiteLine3.jpg	Short_b22_cut1_stereo_44KHz.wav
3	98	2	2	1	C	2	0	451	0	poli_8sides 11_whiteLine3.jpg	Short_b23_cut1_stereo_44KHz.wav
3	99	1	1	1	C	2	0	507	0	poli_8sides 5_whiteLine3.jpg	Short_b09_cut1_stereo_44KHz.wav
3	100	4	3	2	I	1	0	336	1	poli_8sides 3_whiteLine3.jpg	Short_b22_cut1_stereo_44KHz.wav
3	101	3	4	2	I	2	0	402	0	poli_8sides 8_whiteLine3.jpg	Short_b20_cut1_stereo_44KHz.wav
3	102	2	1	0	C	1	0	354	0	poli_8sides 11_whiteLine3.jpg	Short_b09_cut1_stereo_44KHz.wav
3	103	4	4	2	I	2	0	315	1	poli_8sides 3_whiteLine3.jpg	Short_b20_cut1_stereo_44KHz.wav
3	104	1	2	0	C	1	0	311	0	poli_8sides 5_whiteLine3.jpg	Short_b23_cut1_stereo_44KHz.wav
3	105	4	3	2	I	2	0	938	1	poli_8sides 3_whiteLine3.jpg	Short_b22_cut1_stereo_44KHz.wav
3	106	3	4	2	I	2	0	812	0	poli_8sides 8_whiteLine3.jpg	Short_b20_cut1_stereo_44KHz.wav
3	107	1	2	0	C	1	0	446	0	poli_8sides 5_whiteLine3.jpg	Short_b23_cut1_stereo_44KHz.wav
3	108	2	1	0	C	2	1	295	1	poli_8sides 11_whiteLine3.jpg	Short_b09_cut1_stereo_44KHz.wav
3	109	3	3	2	I	2	0	621	0	poli_8sides 8_whiteLine3.jpg	Short_b22_cut1_stereo_44KHz.wav
3	110	2	2	1	C	2	0	414	0	poli_8sides 11_whiteLine3.jpg	Short_b23_cut1_stereo_44KHz.wav
3	111	4	4	2	I	2	0	192	1	poli_8sides 3_whiteLine3.jpg	Short_b20_cut1_stereo_44KHz.wav
3	112	1	1	1	C	2	0	194	0	poli_8sides 5_whiteLine3.jpg	Short_b09_cut1_stereo_44KHz.wav
3	113	2	2	1	C	2	0	557	0	poli_8sides 11_whiteLine3.jpg	Short_b23_cut1_stereo_44KHz.wav
3	114	3	4	2	I	2	0	281	0	poli_8sides 8_whiteLine3.jpg	Short_b20_cut1_stereo_44KHz.wav
3	115	4	3	2	I	2	0	736	1	poli_8sides 3_whiteLine3.jpg	Short_b22_cut1_stereo_44KHz.wav
3	116	1	1	1	C	2	0	460	0	poli_8sides 5_whiteLine3.jpg	Short_b09_cut1_stereo_44KHz.wav
3	117	2	1	0	C	2	1	225	1	poli_8sides 11_whiteLine3.jpg	Short_b09_cut1_stereo_44KHz.wav
3	118	1	2	0	C	2	1	694	1	poli_8sides 5_whiteLine3.jpg	Short_b23_cut1_stereo_44KHz.wav
3	119	4	4	2	I	2	0	808	1	poli_8sides 3_whiteLine3.jpg	Short_b20_cut1_stereo_44KHz.wav
3	120	3	3	2	I	2	0	665	1	poli_8sides 8_whiteLine3.jpg	Short_b22_cut1_stereo_44KHz.wav
3	121	2	1	0	C	1	0	702	0	poli_8sides 11_whiteLine3.jpg	Short_b09_cut1_stereo_44KHz.wav
3	122	3	3	2	I	2	0	286	1	poli_8sides 8_whiteLine3.jpg	Short_b22_cut1_stereo_44KHz.wav
3	123	1	1	1	C	2	0	400	0	poli_8sides 5_whiteLine3.jpg	Short_b09_cut1_stereo_44KHz.wav
3	124	4	3	2	I	2	0	1562	0	poli_8sides 3_whiteLine3.jpg	Short_b22_cut1_stereo_44KHz.wav
3	125	1	2	0	C	2	1	522	1	poli_8sides 5_whiteLine3.jpg	Short_b23_cut1_stereo_44KHz.wav
3	126	4	4	2	I	2	0	824	1	poli_8sides 3_whiteLine3.jpg	Short_b20_cut1_stereo_44KHz.wav
3	127	2	2	1	C	2	0	938	0	poli_8sides 11_whiteLine3.jpg	Short_b23_cut1_stereo_44KHz.wav
3	128	3	4	2	I	2	0	775	0	poli_8sides 8_whiteLine3.jpg	Short_b20_cut1_stereo_44KHz.wav
3	129	2	1	0	C	1	0	302	0	poli_8sides 11_whiteLine3.jpg	Short_b09_cut1_stereo_44KHz.wav
3	130	1	1	1	C	2	0	415	0	poli_8sides 5_whiteLine3.jpg	Short_b09_cut1_stereo_44KHz.wav
3	131	4	4	2	I	2	0	1504	0	poli_8sides 3_whiteLine3.jpg	Short_b20_cut1_stereo_44KHz.wav
3	132	3	4	2	I	2	0	584	0	poli_8sides 8_whiteLine3.jpg	Short_b20_cut1_stereo_44KHz.wav
3	133	4	3	2	I	2	0	265	1	poli_8sides 3_whiteLine3.jpg	Short_b22_cut1_stereo_44KHz.wav
3	134	3	3	2	I	2	0	202	1	poli_8sides 8_whiteLine3.jpg	Short_b22_cut1_stereo_44KHz.wav
3	135	1	2	0	C	2	1	212	1	poli_8sides 5_whiteLine3.jpg	Short_b23_cut1_stereo_44KHz.wav
3	136	2	2	1	C	1	1	227	1	poli_8sides 11_whiteLine3.jpg	Short_b23_cut1_stereo_44KHz.wav
3	137	4	4	2	I	2	0	796	1	poli_8sides 3_whiteLine3.jpg	Short_b20_cut1_stereo_44KHz.wav
3	138	1	2	0	C	2	1	236	1	poli_8sides 5_whiteLine3.jpg	Short_b23_cut1_stereo_44KHz.wav
3	139	2	2	1	C	1	1	792	1	poli_8sides 11_whiteLine3.jpg	Short_b23_cut1_stereo_44KHz.wav
3	140	3	3	2	I	2	0	659	1	poli_8sides 8_whiteLine3.jpg	Short_b22_cut1_stereo_44KHz.wav
3	141	2	1	0	C	1	0	518	0	poli_8sides 11_whiteLine3.jpg	Short_b09_cut1_stereo_44KHz.wav
3	142	1	1	1	C	2	0	384	0	poli_8sides 5_whiteLine3.jpg	Short_b09_cut1_stereo_44KHz.wav
3	143	4	3	2	I	2	0	330	0	poli_8sides 3_whiteLine3.jpg	Short_b22_cut1_stereo_44KHz.wav
3	144	3	4	2	I	1	0	1012	1	poli_8sides 8_whiteLine3.jpg	Short_b20_cut1_stereo_44KHz.wav
3	145	2	2	1	C	2	0	349	0	poli_8sides 11_whiteLine3.jpg	Short_b23_cut1_stereo_44KHz.wav
3	146	4	4	2	I	2	0	140	0	poli_8sides 3_whiteLine3.jpg	Short_b20_cut1_stereo_44KHz.wav
3	147	1	1	1	C	2	0	202	0	poli_8sides 5_whiteLine3.jpg	Short_b09_cut1_stereo_44KHz.wav
3	148	3	3	2	I	2	0	261	0	poli_8sides 8_whiteLine3.jpg	Short_b22_cut1_stereo_44KHz.wav
3	149	4	3	2	I	2	0	783	0	poli_8sides 3_whiteLine3.jpg	Short_b22_cut1_stereo_44KHz.wav
3	150	1	2	0	C	2	1	291	1	poli_8sides 5_whiteLine3.jpg	Short_b23_cut1_stereo_44KHz.wav
3	151	2	1	0	C	2	1	571	1	poli_8sides 11_whiteLine3.jpg	Short_b09_cut1_stereo_44KHz.wav
3	152	3	4	2	I	2	0	665	1	poli_8sides 8_whiteLine3.jpg	Short_b20_cut1_stereo_44KHz.wav
3	153	1	1	1	C	2	0	576	0	poli_8sides 5_whiteLine3.jpg	Short_b09_cut1_stereo_44KHz.wav
3	154	3	3	2	I	2	0	795	1	poli_8sides 8_whiteLine3.jpg	Short_b22_cut1_stereo_44KHz.wav
3	155	2	2	1	C	2	0	423	0	poli_8sides 11_whiteLine3.jpg	Short_b23_cut1_stereo_44KHz.wav
3	156	4	4	2	I	2	0	430	0	poli_8sides 3_whiteLine3.jpg	Short_b20_cut1_stereo_44KHz.wav
3	157	2	1	0	C	2	1	441	1	poli_8sides 11_whiteLine3.jpg	Short_b09_cut1_stereo_44KHz.wav
3	158	1	2	0	C	2	1	709	1	poli_8sides 5_whiteLine3.jpg	Short_b23_cut1_stereo_44KHz.wav
3	159	4	3	2	I	0	0	0	0	poli_8sides 3_whiteLine3.jpg	Short_b22_cut1_stereo_44KHz.wav
3	160	3	4	2	I	2	0	583	1	poli_8sides 8_whiteLine3.jpg	Short_b20_cut1_stereo_44KHz.wav
3	161	1	1	1	C	2	0	683	0	poli_8sides 5_whiteLine3.jpg	Short_b09_cut1_stereo_44KHz.wav
3	162	3	4	2	I	1	0	453	1	poli_8sides 8_whiteLine3.jpg	Short_b20_cut1_stereo_44KHz.wav
3	163	2	1	0	C	2	1	519	1	poli_8sides 11_whiteLine3.jpg	Short_b09_cut1_stereo_44KHz.wav
3	164	4	3	2	I	1	0	306	1	poli_8sides 3_whiteLine3.jpg	Short_b22_cut1_stereo_44KHz.wav
3	165	1	2	0	C	2	1	601	1	poli_8sides 5_whiteLine3.jpg	Short_b23_cut1_stereo_44KHz.wav
3	166	4	4	2	I	1	0	1342	0	poli_8sides 3_whiteLine3.jpg	Short_b20_cut1_stereo_44KHz.wav
3	167	2	2	1	C	0	0	0	0	poli_8sides 11_whiteLine3.jpg	Short_b23_cut1_stereo_44KHz.wav
3	168	3	3	2	I	2	0	885	1	poli_8sides 8_whiteLine3.jpg	Short_b22_cut1_stereo_44KHz.wav
3	169	1	2	0	C	2	1	504	1	poli_8sides 5_whiteLine3.jpg	Short_b23_cut1_stereo_44KHz.wav
3	170	4	3	2	I	1	0	1143	1	poli_8sides 3_whiteLine3.jpg	Short_b22_cut1_stereo_44KHz.wav
3	171	2	1	0	C	0	0	0	0	poli_8sides 11_whiteLine3.jpg	Short_b09_cut1_stereo_44KHz.wav
3	172	3	4	2	I	2	0	448	1	poli_8sides 8_whiteLine3.jpg	Short_b20_cut1_stereo_44KHz.wav
3	173	2	2	1	C	2	0	490	0	poli_8sides 11_whiteLine3.jpg	Short_b23_cut1_stereo_44KHz.wav
3	174	1	1	1	C	1	1	235	1	poli_8sides 5_whiteLine3.jpg	Short_b09_cut1_stereo_44KHz.wav
3	175	4	4	2	I	2	0	300	1	poli_8sides 3_whiteLine3.jpg	Short_b20_cut1_stereo_44KHz.wav
3	176	3	3	2	I	2	0	488	0	poli_8sides 8_whiteLine3.jpg	Short_b22_cut1_stereo_44KHz.wav
3	177	4	3	2	I	2	0	280	1	poli_8sides 3_whiteLine3.jpg	Short_b22_cut1_stereo_44KHz.wav
3	178	1	2	0	C	1	0	716	0	poli_8sides 5_whiteLine3.jpg	Short_b23_cut1_stereo_44KHz.wav
3	179	2	1	0	C	2	1	1323	1	poli_8sides 11_whiteLine3.jpg	Short_b09_cut1_stereo_44KHz.wav
3	180	3	3	2	I	1	0	557	0	poli_8sides 8_whiteLine3.jpg	Short_b22_cut1_stereo_44KHz.wav
3	181	1	1	1	C	2	0	467	0	poli_8sides 5_whiteLine3.jpg	Short_b09_cut1_stereo_44KHz.wav
3	182	4	4	2	I	2	0	289	1	poli_8sides 3_whiteLine3.jpg	Short_b20_cut1_stereo_44KHz.wav
3	183	2	2	1	C	1	1	568	1	poli_8sides 11_whiteLine3.jpg	Short_b23_cut1_stereo_44KHz.wav
3	184	3	4	2	I	0	0	0	0	poli_8sides 8_whiteLine3.jpg	Short_b20_cut1_stereo_44KHz.wav
3	185	1	2	0	C	2	1	686	1	poli_8sides 5_whiteLine3.jpg	Short_b23_cut1_stereo_44KHz.wav
3	186	3	3	2	I	2	0	358	1	poli_8sides 8_whiteLine3.jpg	Short_b22_cut1_stereo_44KHz.wav
3	187	2	2	1	C	2	0	637	0	poli_8sides 11_whiteLine3.jpg	Short_b23_cut1_stereo_44KHz.wav
3	188	4	3	2	I	1	0	337	0	poli_8sides 3_whiteLine3.jpg	Short_b22_cut1_stereo_44KHz.wav
3	189	2	1	0	C	2	1	743	1	poli_8sides 11_whiteLine3.jpg	Short_b09_cut1_stereo_44KHz.wav
3	190	3	4	2	I	2	0	873	0	poli_8sides 8_whiteLine3.jpg	Short_b20_cut1_stereo_44KHz.wav
3	191	4	4	2	I	2	0	548	0	poli_8sides 3_whiteLine3.jpg	Short_b20_cut1_stereo_44KHz.wav
3	192	1	1	1	C	1	1	427	1	poli_8sides 5_whiteLine3.jpg	Short_b09_cut1_stereo_44KHz.wav
3	193	2	2	1	C	2	0	297	0	poli_8sides 11_whiteLine3.jpg	Short_b23_cut1_stereo_44KHz.wav
3	194	1	1	1	C	2	0	919	0	poli_8sides 5_whiteLine3.jpg	Short_b09_cut1_stereo_44KHz.wav
3	195	4	3	2	I	2	0	493	1	poli_8sides 3_whiteLine3.jpg	Short_b22_cut1_stereo_44KHz.wav
3	196	3	3	2	I	2	0	521	0	poli_8sides 8_whiteLine3.jpg	Short_b22_cut1_stereo_44KHz.wav
3	197	2	1	0	C	1	0	410	0	poli_8sides 11_whiteLine3.jpg	Short_b09_cut1_stereo_44KHz.wav
3	198	4	4	2	I	2	0	362	0	poli_8sides 3_whiteLine3.jpg	Short_b20_cut1_stereo_44KHz.wav
3	199	1	2	0	C	2	1	310	1	poli_8sides 5_whiteLine3.jpg	Short_b23_cut1_stereo_44KHz.wav
3	200	3	4	2	I	1	0	383	1	poli_8sides 8_whiteLine3.jpg	Short_b20_cut1_stereo_44KHz.wav
4	1	3	3	2	I	2	0	880	0	poli_8sides 16_whiteLine3.jpg	Medium_e21_stereo_44KHz.wav
4	2	4	4	2	I	2	0	927	1	poli_8sides 10_whiteLine3.jpg	Medium_e01_cut1_stereo_44KHz.wav
4	3	1	1	1	C	2	0	894	0	poli_8sides 2_whiteLine3.jpg	Medium_e26_stereo_44KHz.wav
4	4	2	2	1	C	2	0	283	0	poli_8sides 6_whiteLine3.jpg	MediumLong_e17_cut2_stereo_44KHz.wav
4	5	4	3	2	I	2	0	727	0	poli_8sides 10_whiteLine3.jpg	Medium_e21_stereo_44KHz.wav
4	6	3	4	2	I	2	0	809	1	poli_8sides 16_whiteLine3.jpg	Medium_e01_cut1_stereo_44KHz.wav
4	7	2	1	0	C	2	1	801	1	poli_8sides 6_whiteLine3.jpg	Medium_e26_stereo_44KHz.wav
4	8	1	2	0	C	2	1	331	1	poli_8sides 2_whiteLine3.jpg	MediumLong_e17_cut2_stereo_44KHz.wav
4	9	3	4	2	I	2	0	851	1	poli_8sides 16_whiteLine3.jpg	Medium_e01_cut1_stereo_44KHz.wav
4	10	1	1	1	C	2	0	927	0	poli_8sides 2_whiteLine3.jpg	Medium_e26_stereo_44KHz.wav
4	11	4	3	2	I	2	0	863	0	poli_8sides 10_whiteLine3.jpg	Medium_e21_stereo_44KHz.wav
4	12	2	1	0	C	0	0	0	0	poli_8sides 6_whiteLine3.jpg	Medium_e26_stereo_44KHz.wav
4	13	1	2	0	C	2	1	568	1	poli_8sides 2_whiteLine3.jpg	MediumLong_e17_cut2_stereo_44KHz.wav
4	14	4	4	2	I	1	0	1441	0	poli_8sides 10_whiteLine3.jpg	Medium_e01_cut1_stereo_44KHz.wav
4	15	3	3	2	I	1	0	1536	1	poli_8sides 16_whiteLine3.jpg	Medium_e21_stereo_44KHz.wav
4	16	2	2	1	C	1	1	1400	1	poli_8sides 6_whiteLine3.jpg	MediumLong_e17_cut2_stereo_44KHz.wav
4	17	1	2	0	C	2	1	794	1	poli_8sides 2_whiteLine3.jpg	MediumLong_e17_cut2_stereo_44KHz.wav
4	18	3	3	2	I	2	0	1328	1	poli_8sides 16_whiteLine3.jpg	Medium_e21_stereo_44KHz.wav
4	19	2	2	1	C	1	1	1120	1	poli_8sides 6_whiteLine3.jpg	MediumLong_e17_cut2_stereo_44KHz.wav
4	20	4	3	2	I	2	0	905	0	poli_8sides 10_whiteLine3.jpg	Medium_e21_stereo_44KHz.wav
4	21	1	1	1	C	2	0	1020	0	poli_8sides 2_whiteLine3.jpg	Medium_e26_stereo_44KHz.wav
4	22	3	4	2	I	2	0	411	1	poli_8sides 16_whiteLine3.jpg	Medium_e01_cut1_stereo_44KHz.wav
4	23	2	1	0	C	2	1	931	1	poli_8sides 6_whiteLine3.jpg	Medium_e26_stereo_44KHz.wav
4	24	4	4	2	I	2	0	1017	1	poli_8sides 10_whiteLine3.jpg	Medium_e01_cut1_stereo_44KHz.wav
4	25	3	4	2	I	2	0	1002	1	poli_8sides 16_whiteLine3.jpg	Medium_e01_cut1_stereo_44KHz.wav
4	26	4	3	2	I	2	0	919	0	poli_8sides 10_whiteLine3.jpg	Medium_e21_stereo_44KHz.wav
4	27	1	1	1	C	2	0	367	0	poli_8sides 2_whiteLine3.jpg	Medium_e26_stereo_44KHz.wav
4	28	2	1	0	C	1	0	244	0	poli_8sides 6_whiteLine3.jpg	Medium_e26_stereo_44KHz.wav
4	29	3	3	2	I	2	0	1232	0	poli_8sides 16_whiteLine3.jpg	Medium_e21_stereo_44KHz.wav
4	30	2	2	1	C	2	0	900	0	poli_8sides 6_whiteLine3.jpg	MediumLong_e17_cut2_stereo_44KHz.wav
4	31	4	4	2	I	2	0	611	1	poli_8sides 10_whiteLine3.jpg	Medium_e01_cut1_stereo_44KHz.wav
4	32	1	2	0	C	1	0	841	0	poli_8sides 2_whiteLine3.jpg	MediumLong_e17_cut2_stereo_44KHz.wav
4	33	4	4	2	I	0	0	0	0	poli_8sides 10_whiteLine3.jpg	Medium_e01_cut1_stereo_44KHz.wav
4	34	1	2	0	C	2	1	891	1	poli_8sides 2_whiteLine3.jpg	MediumLong_e17_cut2_stereo_44KHz.wav
4	35	3	3	2	I	2	0	634	0	poli_8sides 16_whiteLine3.jpg	Medium_e21_stereo_44KHz.wav
4	36	2	2	1	C	2	0	331	0	poli_8sides 6_whiteLine3.jpg	MediumLong_e17_cut2_stereo_44KHz.wav
4	37	3	4	2	I	1	0	559	1	poli_8sides 16_whiteLine3.jpg	Medium_e01_cut1_stereo_44KHz.wav
4	38	2	1	0	C	2	1	1545	1	poli_8sides 6_whiteLine3.jpg	Medium_e26_stereo_44KHz.wav
4	39	1	1	1	C	2	0	1002	0	poli_8sides 2_whiteLine3.jpg	Medium_e26_stereo_44KHz.wav
4	40	4	3	2	I	2	0	365	1	poli_8sides 10_whiteLine3.jpg	Medium_e21_stereo_44KHz.wav
4	41	2	2	1	C	2	0	921	0	poli_8sides 6_whiteLine3.jpg	MediumLong_e17_cut2_stereo_44KHz.wav
4	42	1	1	1	C	2	0	1403	0	poli_8sides 2_whiteLine3.jpg	Medium_e26_stereo_44KHz.wav
4	43	3	4	2	I	2	0	1181	1	poli_8sides 16_whiteLine3.jpg	Medium_e01_cut1_stereo_44KHz.wav
4	44	4	4	2	I	1	0	1095	0	poli_8sides 10_whiteLine3.jpg	Medium_e01_cut1_stereo_44KHz.wav
4	45	1	2	0	C	2	1	793	1	poli_8sides 2_whiteLine3.jpg	MediumLong_e17_cut2_stereo_44KHz.wav
4	46	4	3	2	I	2	0	1268	1	poli_8sides 10_whiteLine3.jpg	Medium_e21_stereo_44KHz.wav
4	47	3	3	2	I	2	0	1378	0	poli_8sides 16_whiteLine3.jpg	Medium_e21_stereo_44KHz.wav
4	48	2	1	0	C	2	1	880	1	poli_8sides 6_whiteLine3.jpg	Medium_e26_stereo_44KHz.wav
4	49	3	4	2	I	2	0	951	1	poli_8sides 16_whiteLine3.jpg	Medium_e01_cut1_stereo_44KHz.wav
4	50	4	4	2	I	2	0	940	1	poli_8sides 10_whiteLine3.jpg	Medium_e01_cut1_stereo_44KHz.wav
4	51	2	2	1	C	2	0	895	0	poli_8sides 6_whiteLine3.jpg	MediumLong_e17_cut2_stereo_44KHz.wav
4	52	1	2	0	C	2	1	873	1	poli_8sides 2_whiteLine3.jpg	MediumLong_e17_cut2_stereo_44KHz.wav
4	53	3	3	2	I	2	0	646	1	poli_8sides 16_whiteLine3.jpg	Medium_e21_stereo_44KHz.wav
4	54	1	1	1	C	1	1	1585	1	poli_8sides 2_whiteLine3.jpg	Medium_e26_stereo_44KHz.wav
4	55	4	3	2	I	2	0	617	1	poli_8sides 10_whiteLine3.jpg	Medium_e21_stereo_44KHz.wav
4	56	2	1	0	C	2	1	1253	1	poli_8sides 6_whiteLine3.jpg	Medium_e26_stereo_44KHz.wav
4	57	3	3	2	I	2	0	393	0	poli_8sides 16_whiteLine3.jpg	Medium_e21_stereo_44KHz.wav
4	58	2	2	1	C	1	1	1686	1	poli_8sides 6_whiteLine3.jpg	MediumLong_e17_cut2_stereo_44KHz.wav
4	59	4	3	2	I	2	0	1440	0	poli_8sides 10_whiteLine3.jpg	Medium_e21_stereo_44KHz.wav
4	60	1	1	1	C	1	1	364	1	poli_8sides 2_whiteLine3.jpg	Medium_e26_stereo_44KHz.wav
4	61	3	4	2	I	2	0	1079	1	poli_8sides 16_whiteLine3.jpg	Medium_e01_cut1_stereo_44KHz.wav
4	62	4	4	2	I	1	0	311	1	poli_8sides 10_whiteLine3.jpg	Medium_e01_cut1_stereo_44KHz.wav
4	63	1	2	0	C	2	1	408	1	poli_8sides 2_whiteLine3.jpg	MediumLong_e17_cut2_stereo_44KHz.wav
4	64	2	1	0	C	2	1	571	1	poli_8sides 6_whiteLine3.jpg	Medium_e26_stereo_44KHz.wav
4	65	1	1	1	C	2	0	567	0	poli_8sides 2_whiteLine3.jpg	Medium_e26_stereo_44KHz.wav
4	66	2	2	1	C	2	0	333	0	poli_8sides 6_whiteLine3.jpg	MediumLong_e17_cut2_stereo_44KHz.wav
4	67	3	4	2	I	2	0	618	0	poli_8sides 16_whiteLine3.jpg	Medium_e01_cut1_stereo_44KHz.wav
4	68	4	3	2	I	2	0	728	1	poli_8sides 10_whiteLine3.jpg	Medium_e21_stereo_44KHz.wav
4	69	3	3	2	I	2	0	1114	0	poli_8sides 16_whiteLine3.jpg	Medium_e21_stereo_44KHz.wav
4	70	1	2	0	C	2	1	989	1	poli_8sides 2_whiteLine3.jpg	MediumLong_e17_cut2_stereo_44KHz.wav
4	71	4	4	2	I	2	0	862	1	poli_8sides 10_whiteLine3.jpg	Medium_e01_cut1_stereo_44KHz.wav
4	72	2	1	0	C	2	1	884	1	poli_8sides 6_whiteLine3.jpg	Medium_e26_stereo_44KHz.wav
4	73	4	4	2	I	2	0	896	1	poli_8sides 10_whiteLine3.jpg	Medium_e01_cut1_stereo_44KHz.wav
4	74	3	4	2	I	2	0	774	1	poli_8sides 16_whiteLine3.jpg	Medium_e01_cut1_stereo_44KHz.wav
4	75	2	2	1	C	2	0	600	0	poli_8sides 6_whiteLine3.jpg	MediumLong_e17_cut2_stereo_44KHz.wav
4	76	1	1	1	C	2	0	660	0	poli_8sides 2_whiteLine3.jpg	Medium_e26_stereo_44KHz.wav
4	77	4	3	2	I	2	0	783	1	poli_8sides 10_whiteLine3.jpg	Medium_e21_stereo_44KHz.wav
4	78	3	3	2	I	2	0	833	0	poli_8sides 16_whiteLine3.jpg	Medium_e21_stereo_44KHz.wav
4	79	1	2	0	C	2	1	221	1	poli_8sides 2_whiteLine3.jpg	MediumLong_e17_cut2_stereo_44KHz.wav
4	80	2	1	0	C	2	1	685	1	poli_8sides 6_whiteLine3.jpg	Medium_e26_stereo_44KHz.wav
4	81	1	1	1	C	2	0	209	0	poli_8sides 2_whiteLine3.jpg	Medium_e26_stereo_44KHz.wav
4	82	2	2	1	C	2	0	132	0	poli_8sides 6_whiteLine3.jpg	MediumLong_e17_cut2_stereo_44KHz.wav
4	83	3	4	2	I	2	0	259	0	poli_8sides 16_whiteLine3.jpg	Medium_e01_cut1_stereo_44KHz.wav
4	84	4	4	2	I	2	0	1099	0	poli_8sides 10_whiteLine3.jpg	Medium_e01_cut1_stereo_44KHz.wav
4	85	1	2	0	C	2	1	999	1	poli_8sides 2_whiteLine3.jpg	MediumLong_e17_cut2_stereo_44KHz.wav
4	86	4	3	2	I	2	0	831	0	poli_8sides 10_whiteLine3.jpg	Medium_e21_stereo_44KHz.wav
4	87	2	1	0	C	2	1	896	1	poli_8sides 6_whiteLine3.jpg	Medium_e26_stereo_44KHz.wav
4	88	3	3	2	I	2	0	928	0	poli_8sides 16_whiteLine3.jpg	Medium_e21_stereo_44KHz.wav
4	89	4	3	2	I	1	0	386	0	poli_8sides 10_whiteLine3.jpg	Medium_e21_stereo_44KHz.wav
4	90	3	3	2	I	2	0	253	1	poli_8sides 16_whiteLine3.jpg	Medium_e21_stereo_44KHz.wav
4	91	2	2	1	C	2	0	794	0	poli_8sides 6_whiteLine3.jpg	MediumLong_e17_cut2_stereo_44KHz.wav
4	92	1	1	1	C	1	1	1163	1	poli_8sides 2_whiteLine3.jpg	Medium_e26_stereo_44KHz.wav
4	93	3	4	2	I	2	0	1296	0	poli_8sides 16_whiteLine3.jpg	Medium_e01_cut1_stereo_44KHz.wav
4	94	4	4	2	I	2	0	279	1	poli_8sides 10_whiteLine3.jpg	Medium_e01_cut1_stereo_44KHz.wav
4	95	2	1	0	C	0	0	0	0	poli_8sides 6_whiteLine3.jpg	Medium_e26_stereo_44KHz.wav
4	96	1	2	0	C	2	1	1435	1	poli_8sides 2_whiteLine3.jpg	MediumLong_e17_cut2_stereo_44KHz.wav
4	97	3	3	2	I	2	0	792	1	poli_8sides 16_whiteLine3.jpg	Medium_e21_stereo_44KHz.wav
4	98	2	2	1	C	2	0	667	0	poli_8sides 6_whiteLine3.jpg	MediumLong_e17_cut2_stereo_44KHz.wav
4	99	1	2	0	C	2	1	519	1	poli_8sides 2_whiteLine3.jpg	MediumLong_e17_cut2_stereo_44KHz.wav
4	100	4	4	2	I	2	0	1073	0	poli_8sides 10_whiteLine3.jpg	Medium_e01_cut1_stereo_44KHz.wav
4	101	3	4	2	I	2	0	1072	1	poli_8sides 16_whiteLine3.jpg	Medium_e01_cut1_stereo_44KHz.wav
4	102	4	3	2	I	2	0	1066	0	poli_8sides 10_whiteLine3.jpg	Medium_e21_stereo_44KHz.wav
4	103	1	1	1	C	1	1	1457	1	poli_8sides 2_whiteLine3.jpg	Medium_e26_stereo_44KHz.wav
4	104	2	1	0	C	2	1	343	1	poli_8sides 6_whiteLine3.jpg	Medium_e26_stereo_44KHz.wav
4	105	4	4	2	I	2	0	645	0	poli_8sides 10_whiteLine3.jpg	Medium_e01_cut1_stereo_44KHz.wav
4	106	1	1	1	C	2	0	1436	0	poli_8sides 2_whiteLine3.jpg	Medium_e26_stereo_44KHz.wav
4	107	2	1	0	C	1	0	1655	0	poli_8sides 6_whiteLine3.jpg	Medium_e26_stereo_44KHz.wav
4	108	3	4	2	I	2	0	892	1	poli_8sides 16_whiteLine3.jpg	Medium_e01_cut1_stereo_44KHz.wav
4	109	1	2	0	C	2	1	778	1	poli_8sides 2_whiteLine3.jpg	MediumLong_e17_cut2_stereo_44KHz.wav
4	110	3	3	2	I	1	0	1389	0	poli_8sides 16_whiteLine3.jpg	Medium_e21_stereo_44KHz.wav
4	111	4	3	2	I	2	0	1493	1	poli_8sides 10_whiteLine3.jpg	Medium_e21_stereo_44KHz.wav
4	112	2	2	1	C	2	0	525	0	poli_8sides 6_whiteLine3.jpg	MediumLong_e17_cut2_stereo_44KHz.wav
4	113	3	3	2	I	2	0	1328	1	poli_8sides 16_whiteLine3.jpg	Medium_e21_stereo_44KHz.wav
4	114	1	1	1	C	2	0	1243	0	poli_8sides 2_whiteLine3.jpg	Medium_e26_stereo_44KHz.wav
4	115	2	1	0	C	1	0	633	0	poli_8sides 6_whiteLine3.jpg	Medium_e26_stereo_44KHz.wav
4	116	4	3	2	I	2	0	588	1	poli_8sides 10_whiteLine3.jpg	Medium_e21_stereo_44KHz.wav
4	117	1	2	0	C	2	1	650	1	poli_8sides 2_whiteLine3.jpg	MediumLong_e17_cut2_stereo_44KHz.wav
4	118	4	4	2	I	2	0	747	1	poli_8sides 10_whiteLine3.jpg	Medium_e01_cut1_stereo_44KHz.wav
4	119	3	4	2	I	2	0	656	0	poli_8sides 16_whiteLine3.jpg	Medium_e01_cut1_stereo_44KHz.wav
4	120	2	2	1	C	2	0	518	0	poli_8sides 6_whiteLine3.jpg	MediumLong_e17_cut2_stereo_44KHz.wav
4	121	1	2	0	C	1	0	1309	0	poli_8sides 2_whiteLine3.jpg	MediumLong_e17_cut2_stereo_44KHz.wav
4	122	3	4	2	I	2	0	980	0	poli_8sides 16_whiteLine3.jpg	Medium_e01_cut1_stereo_44KHz.wav
4	123	2	1	0	C	2	1	1612	1	poli_8sides 6_whiteLine3.jpg	Medium_e26_stereo_44KHz.wav
4	124	4	3	2	I	2	0	1020	0	poli_8sides 10_whiteLine3.jpg	Medium_e21_stereo_44KHz.wav
4	125	3	3	2	I	2	0	923	1	poli_8sides 16_whiteLine3.jpg	Medium_e21_stereo_44KHz.wav
4	126	4	4	2	I	2	0	956	0	poli_8sides 10_whiteLine3.jpg	Medium_e01_cut1_stereo_44KHz.wav
4	127	1	1	1	C	1	1	460	1	poli_8sides 2_whiteLine3.jpg	Medium_e26_stereo_44KHz.wav
4	128	2	2	1	C	2	0	732	0	poli_8sides 6_whiteLine3.jpg	MediumLong_e17_cut2_stereo_44KHz.wav
4	129	1	1	1	C	2	0	897	0	poli_8sides 2_whiteLine3.jpg	Medium_e26_stereo_44KHz.wav
4	130	4	4	2	I	1	0	509	1	poli_8sides 10_whiteLine3.jpg	Medium_e01_cut1_stereo_44KHz.wav
4	131	2	2	1	C	2	0	759	0	poli_8sides 6_whiteLine3.jpg	MediumLong_e17_cut2_stereo_44KHz.wav
4	132	3	4	2	I	2	0	689	1	poli_8sides 16_whiteLine3.jpg	Medium_e01_cut1_stereo_44KHz.wav
4	133	1	2	0	C	2	1	825	1	poli_8sides 2_whiteLine3.jpg	MediumLong_e17_cut2_stereo_44KHz.wav
4	134	2	1	0	C	1	0	495	0	poli_8sides 6_whiteLine3.jpg	Medium_e26_stereo_44KHz.wav
4	135	3	3	2	I	2	0	727	1	poli_8sides 16_whiteLine3.jpg	Medium_e21_stereo_44KHz.wav
4	136	4	3	2	I	2	0	282	0	poli_8sides 10_whiteLine3.jpg	Medium_e21_stereo_44KHz.wav
4	137	1	2	0	C	2	1	679	1	poli_8sides 2_whiteLine3.jpg	MediumLong_e17_cut2_stereo_44KHz.wav
4	138	4	3	2	I	1	0	804	1	poli_8sides 10_whiteLine3.jpg	Medium_e21_stereo_44KHz.wav
4	139	2	2	1	C	2	0	145	0	poli_8sides 6_whiteLine3.jpg	MediumLong_e17_cut2_stereo_44KHz.wav
4	140	3	3	2	I	2	0	414	1	poli_8sides 16_whiteLine3.jpg	Medium_e21_stereo_44KHz.wav
4	141	1	1	1	C	2	0	204	0	poli_8sides 2_whiteLine3.jpg	Medium_e26_stereo_44KHz.wav
4	142	4	4	2	I	2	0	284	0	poli_8sides 10_whiteLine3.jpg	Medium_e01_cut1_stereo_44KHz.wav
4	143	3	4	2	I	2	0	766	0	poli_8sides 16_whiteLine3.jpg	Medium_e01_cut1_stereo_44KHz.wav
4	144	2	1	0	C	0	0	0	0	poli_8sides 6_whiteLine3.jpg	Medium_e26_stereo_44KHz.wav
4	145	4	4	2	I	2	0	1000	1	poli_8sides 10_whiteLine3.jpg	Medium_e01_cut1_stereo_44KHz.wav
4	146	1	2	0	C	1	0	647	0	poli_8sides 2_whiteLine3.jpg	MediumLong_e17_cut2_stereo_44KHz.wav
4	147	2	2	1	C	2	0	342	0	poli_8sides 6_whiteLine3.jpg	MediumLong_e17_cut2_stereo_44KHz.wav
4	148	3	4	2	I	1	0	379	0	poli_8sides 16_whiteLine3.jpg	Medium_e01_cut1_stereo_44KHz.wav
4	149	2	1	0	C	2	1	562	1	poli_8sides 6_whiteLine3.jpg	Medium_e26_stereo_44KHz.wav
4	150	1	1	1	C	1	1	1076	1	poli_8sides 2_whiteLine3.jpg	Medium_e26_stereo_44KHz.wav
4	151	4	3	2	I	2	0	799	1	poli_8sides 10_whiteLine3.jpg	Medium_e21_stereo_44KHz.wav
4	152	3	3	2	I	2	0	806	1	poli_8sides 16_whiteLine3.jpg	Medium_e21_stereo_44KHz.wav
4	153	4	4	2	I	1	0	914	0	poli_8sides 10_whiteLine3.jpg	Medium_e01_cut1_stereo_44KHz.wav
4	154	1	2	0	C	2	1	1130	1	poli_8sides 2_whiteLine3.jpg	MediumLong_e17_cut2_stereo_44KHz.wav
4	155	2	2	1	C	1	1	1323	1	poli_8sides 6_whiteLine3.jpg	MediumLong_e17_cut2_stereo_44KHz.wav
4	156	3	3	2	I	2	0	1096	1	poli_8sides 16_whiteLine3.jpg	Medium_e21_stereo_44KHz.wav
4	157	2	1	0	C	1	0	822	0	poli_8sides 6_whiteLine3.jpg	Medium_e26_stereo_44KHz.wav
4	158	3	4	2	I	2	0	720	0	poli_8sides 16_whiteLine3.jpg	Medium_e01_cut1_stereo_44KHz.wav
4	159	1	1	1	C	0	0	0	0	poli_8sides 2_whiteLine3.jpg	Medium_e26_stereo_44KHz.wav
4	160	4	3	2	I	2	0	794	0	poli_8sides 10_whiteLine3.jpg	Medium_e21_stereo_44KHz.wav
4	161	3	4	2	I	1	0	403	1	poli_8sides 16_whiteLine3.jpg	Medium_e01_cut1_stereo_44KHz.wav
4	162	2	2	1	C	2	0	898	0	poli_8sides 6_whiteLine3.jpg	MediumLong_e17_cut2_stereo_44KHz.wav
4	163	4	4	2	I	2	0	809	0	poli_8sides 10_whiteLine3.jpg	Medium_e01_cut1_stereo_44KHz.wav
4	164	1	2	0	C	1	0	999	0	poli_8sides 2_whiteLine3.jpg	MediumLong_e17_cut2_stereo_44KHz.wav
4	165	2	1	0	C	2	1	765	1	poli_8sides 6_whiteLine3.jpg	Medium_e26_stereo_44KHz.wav
4	166	4	3	2	I	2	0	398	1	poli_8sides 10_whiteLine3.jpg	Medium_e21_stereo_44KHz.wav
4	167	3	3	2	I	2	0	619	0	poli_8sides 16_whiteLine3.jpg	Medium_e21_stereo_44KHz.wav
4	168	1	1	1	C	2	0	1159	0	poli_8sides 2_whiteLine3.jpg	Medium_e26_stereo_44KHz.wav
4	169	2	1	0	C	2	1	851	1	poli_8sides 6_whiteLine3.jpg	Medium_e26_stereo_44KHz.wav
4	170	1	2	0	C	2	1	1292	1	poli_8sides 2_whiteLine3.jpg	MediumLong_e17_cut2_stereo_44KHz.wav
4	171	3	3	2	I	2	0	470	0	poli_8sides 16_whiteLine3.jpg	Medium_e21_stereo_44KHz.wav
4	172	4	4	2	I	1	0	679	1	poli_8sides 10_whiteLine3.jpg	Medium_e01_cut1_stereo_44KHz.wav
4	173	1	1	1	C	2	0	416	0	poli_8sides 2_whiteLine3.jpg	Medium_e26_stereo_44KHz.wav
4	174	2	2	1	C	1	1	382	1	poli_8sides 6_whiteLine3.jpg	MediumLong_e17_cut2_stereo_44KHz.wav
4	175	4	3	2	I	2	0	411	1	poli_8sides 10_whiteLine3.jpg	Medium_e21_stereo_44KHz.wav
4	176	3	4	2	I	2	0	289	0	poli_8sides 16_whiteLine3.jpg	Medium_e01_cut1_stereo_44KHz.wav
4	177	4	3	2	I	1	0	345	1	poli_8sides 10_whiteLine3.jpg	Medium_e21_stereo_44KHz.wav
4	178	2	1	0	C	2	1	554	1	poli_8sides 6_whiteLine3.jpg	Medium_e26_stereo_44KHz.wav
4	179	3	3	2	I	2	0	463	0	poli_8sides 16_whiteLine3.jpg	Medium_e21_stereo_44KHz.wav
4	180	1	2	0	C	1	0	470	0	poli_8sides 2_whiteLine3.jpg	MediumLong_e17_cut2_stereo_44KHz.wav
4	181	4	4	2	I	2	0	520	0	poli_8sides 10_whiteLine3.jpg	Medium_e01_cut1_stereo_44KHz.wav
4	182	2	2	1	C	2	0	446	0	poli_8sides 6_whiteLine3.jpg	MediumLong_e17_cut2_stereo_44KHz.wav
4	183	3	4	2	I	2	0	679	0	poli_8sides 16_whiteLine3.jpg	Medium_e01_cut1_stereo_44KHz.wav
4	184	1	1	1	C	2	0	1116	0	poli_8sides 2_whiteLine3.jpg	Medium_e26_stereo_44KHz.wav
4	185	2	2	1	C	1	1	1102	1	poli_8sides 6_whiteLine3.jpg	MediumLong_e17_cut2_stereo_44KHz.wav
4	186	4	4	2	I	2	0	614	0	poli_8sides 10_whiteLine3.jpg	Medium_e01_cut1_stereo_44KHz.wav
4	187	3	4	2	I	2	0	28	0	poli_8sides 16_whiteLine3.jpg	Medium_e01_cut1_stereo_44KHz.wav
4	188	1	1	1	C	1	1	1015	1	poli_8sides 2_whiteLine3.jpg	Medium_e26_stereo_44KHz.wav
4	189	2	1	0	C	2	1	580	1	poli_8sides 6_whiteLine3.jpg	Medium_e26_stereo_44KHz.wav
4	190	4	3	2	I	2	0	332	0	poli_8sides 10_whiteLine3.jpg	Medium_e21_stereo_44KHz.wav
4	191	1	2	0	C	2	1	367	1	poli_8sides 2_whiteLine3.jpg	MediumLong_e17_cut2_stereo_44KHz.wav
4	192	3	3	2	I	2	0	1543	1	poli_8sides 16_whiteLine3.jpg	Medium_e21_stereo_44KHz.wav
4	193	2	2	1	C	2	0	786	0	poli_8sides 6_whiteLine3.jpg	MediumLong_e17_cut2_stereo_44KHz.wav
4	194	3	3	2	I	2	0	1088	0	poli_8sides 16_whiteLine3.jpg	Medium_e21_stereo_44KHz.wav
4	195	4	4	2	I	2	0	773	1	poli_8sides 10_whiteLine3.jpg	Medium_e01_cut1_stereo_44KHz.wav
4	196	1	1	1	C	2	0	650	0	poli_8sides 2_whiteLine3.jpg	Medium_e26_stereo_44KHz.wav
4	197	3	4	2	I	2	0	632	0	poli_8sides 16_whiteLine3.jpg	Medium_e01_cut1_stereo_44KHz.wav
4	198	2	1	0	C	2	1	723	1	poli_8sides 6_whiteLine3.jpg	Medium_e26_stereo_44KHz.wav
4	199	4	3	2	I	1	0	209	0	poli_8sides 10_whiteLine3.jpg	Medium_e21_stereo_44KHz.wav
4	200	1	2	0	C	2	1	336	1	poli_8sides 2_whiteLine3.jpg	MediumLong_e17_cut2_stereo_44KHz.wav
