block	trial	Vstim	Astim	match	C/I	resp	result	RT	fb	V-file	A-file
LR

0	1	2	4	0	C	0	0	0	0	Ⴉ	cut_eeuw_stereo_44KHz.wav
0	2	1	2	0	C	0	0	0	0	Ⴢ	cut_g_stereo_44KHz.wav
0	3	1	1	1	C	2	1	844	1	Ⴢ	cut_ee_stereo_44KHz.wav
0	4	2	3	1	C	1	0	1103	0	Ⴉ	cut_oo_stereo_44KHz.wav
0	5	2	4	0	C	2	0	682	0	Ⴉ	cut_eeuw_stereo_44KHz.wav
0	6	1	1	1	C	1	0	812	0	Ⴢ	cut_ee_stereo_44KHz.wav
0	7	2	3	1	C	2	1	820	1	Ⴉ	cut_oo_stereo_44KHz.wav
0	8	1	2	0	C	2	0	905	0	Ⴢ	cut_g_stereo_44KHz.wav
0	9	2	3	1	C	1	0	670	0	Ⴉ	cut_oo_stereo_44KHz.wav
0	10	1	1	1	C	1	0	720	0	Ⴢ	cut_ee_stereo_44KHz.wav
0	11	1	2	0	C	1	1	830	1	Ⴢ	cut_g_stereo_44KHz.wav
0	12	2	4	0	C	1	1	788	1	Ⴉ	cut_eeuw_stereo_44KHz.wav
0	13	2	4	0	C	1	1	791	1	Ⴉ	cut_eeuw_stereo_44KHz.wav
0	14	1	2	0	C	1	1	694	1	Ⴢ	cut_g_stereo_44KHz.wav
0	15	2	3	1	C	1	0	998	0	Ⴉ	cut_oo_stereo_44KHz.wav
0	16	1	1	1	C	1	0	628	0	Ⴢ	cut_ee_stereo_44KHz.wav
0	17	1	1	1	C	1	0	636	0	Ⴢ	cut_ee_stereo_44KHz.wav
0	18	1	2	0	C	1	1	675	1	Ⴢ	cut_g_stereo_44KHz.wav
0	19	2	4	0	C	1	1	585	1	Ⴉ	cut_eeuw_stereo_44KHz.wav
0	20	2	3	1	C	2	1	669	1	Ⴉ	cut_oo_stereo_44KHz.wav
0	21	1	2	0	C	1	1	860	1	Ⴢ	cut_g_stereo_44KHz.wav
0	22	2	3	1	C	2	1	679	1	Ⴉ	cut_oo_stereo_44KHz.wav
0	23	1	1	1	C	1	0	581	0	Ⴢ	cut_ee_stereo_44KHz.wav
0	24	2	4	0	C	1	1	631	1	Ⴉ	cut_eeuw_stereo_44KHz.wav
0	25	2	3	1	C	2	1	1027	1	Ⴉ	cut_oo_stereo_44KHz.wav
0	26	2	4	0	C	1	1	731	1	Ⴉ	cut_eeuw_stereo_44KHz.wav
0	27	1	1	1	C	2	1	725	1	Ⴢ	cut_ee_stereo_44KHz.wav
0	28	1	2	0	C	1	1	573	1	Ⴢ	cut_g_stereo_44KHz.wav
0	29	1	2	0	C	1	1	694	1	Ⴢ	cut_g_stereo_44KHz.wav
0	30	2	3	1	C	2	1	722	1	Ⴉ	cut_oo_stereo_44KHz.wav
avg_resp = 741
1	1	1	2	0	C	2	0	1452	0	Ⴌ	cut_h_stereo_44KHz.wav
1	2	3	3	2	I	2	0	769	0	Ⴐ	cut_l_stereo_44KHz.wav
1	3	2	2	1	C	2	1	753	1	Ⴔ	cut_h_stereo_44KHz.wav
1	4	4	3	2	I	2	0	812	0	Ⴉ	cut_l_stereo_44KHz.wav
1	5	2	1	0	C	2	0	800	0	Ⴔ	cut_w_stereo_44KHz.wav
1	6	4	4	2	I	1	0	832	1	Ⴉ	cut_g_stereo_44KHz.wav
1	7	1	1	1	C	1	0	848	0	Ⴌ	cut_w_stereo_44KHz.wav
1	8	3	4	2	I	2	0	1039	1	Ⴐ	cut_g_stereo_44KHz.wav
1	9	2	2	1	C	1	0	821	0	Ⴔ	cut_h_stereo_44KHz.wav
1	10	4	4	2	I	1	0	777	1	Ⴉ	cut_g_stereo_44KHz.wav
1	11	1	2	0	C	2	0	645	0	Ⴌ	cut_h_stereo_44KHz.wav
1	12	3	3	2	I	1	0	698	0	Ⴐ	cut_l_stereo_44KHz.wav
1	13	4	3	2	I	1	0	693	0	Ⴉ	cut_l_stereo_44KHz.wav
1	14	2	1	0	C	1	1	676	1	Ⴔ	cut_w_stereo_44KHz.wav
1	15	3	4	2	I	1	0	797	1	Ⴐ	cut_g_stereo_44KHz.wav
1	16	1	1	1	C	2	1	885	1	Ⴌ	cut_w_stereo_44KHz.wav
1	17	3	3	2	I	2	0	762	1	Ⴐ	cut_l_stereo_44KHz.wav
1	18	2	1	0	C	1	1	747	1	Ⴔ	cut_w_stereo_44KHz.wav
1	19	4	4	2	I	2	0	1173	0	Ⴉ	cut_g_stereo_44KHz.wav
1	20	1	1	1	C	2	1	741	1	Ⴌ	cut_w_stereo_44KHz.wav
1	21	4	3	2	I	2	0	747	1	Ⴉ	cut_l_stereo_44KHz.wav
1	22	1	2	0	C	1	1	880	1	Ⴌ	cut_h_stereo_44KHz.wav
1	23	3	4	2	I	1	0	792	1	Ⴐ	cut_g_stereo_44KHz.wav
1	24	2	2	1	C	2	1	788	1	Ⴔ	cut_h_stereo_44KHz.wav
1	25	3	3	2	I	2	0	856	1	Ⴐ	cut_l_stereo_44KHz.wav
1	26	2	1	0	C	2	0	1224	0	Ⴔ	cut_w_stereo_44KHz.wav
1	27	1	1	1	C	2	1	867	1	Ⴌ	cut_w_stereo_44KHz.wav
1	28	4	4	2	I	1	0	731	0	Ⴉ	cut_g_stereo_44KHz.wav
1	29	2	2	1	C	2	1	796	1	Ⴔ	cut_h_stereo_44KHz.wav
1	30	3	4	2	I	1	0	758	1	Ⴐ	cut_g_stereo_44KHz.wav
1	31	4	3	2	I	1	0	933	0	Ⴉ	cut_l_stereo_44KHz.wav
1	32	1	2	0	C	1	1	756	1	Ⴌ	cut_h_stereo_44KHz.wav
1	33	4	4	2	I	1	0	772	1	Ⴉ	cut_g_stereo_44KHz.wav
1	34	3	4	2	I	1	0	767	1	Ⴐ	cut_g_stereo_44KHz.wav
1	35	2	1	0	C	1	1	716	1	Ⴔ	cut_w_stereo_44KHz.wav
1	36	1	2	0	C	1	1	764	1	Ⴌ	cut_h_stereo_44KHz.wav
1	37	3	3	2	I	2	0	901	0	Ⴐ	cut_l_stereo_44KHz.wav
1	38	2	2	1	C	2	1	822	1	Ⴔ	cut_h_stereo_44KHz.wav
1	39	4	3	2	I	2	0	984	1	Ⴉ	cut_l_stereo_44KHz.wav
1	40	1	1	1	C	2	1	1005	1	Ⴌ	cut_w_stereo_44KHz.wav
1	41	3	4	2	I	1	0	947	0	Ⴐ	cut_g_stereo_44KHz.wav
1	42	1	2	0	C	1	1	836	1	Ⴌ	cut_h_stereo_44KHz.wav
1	43	2	1	0	C	2	0	814	0	Ⴔ	cut_w_stereo_44KHz.wav
1	44	4	3	2	I	2	0	900	1	Ⴉ	cut_l_stereo_44KHz.wav
1	45	1	1	1	C	2	1	738	1	Ⴌ	cut_w_stereo_44KHz.wav
1	46	4	4	2	I	1	0	847	0	Ⴉ	cut_g_stereo_44KHz.wav
1	47	3	3	2	I	2	0	919	1	Ⴐ	cut_l_stereo_44KHz.wav
1	48	2	2	1	C	2	1	821	1	Ⴔ	cut_h_stereo_44KHz.wav
1	49	3	4	2	I	1	0	780	0	Ⴐ	cut_g_stereo_44KHz.wav
1	50	4	4	2	I	1	0	748	0	Ⴉ	cut_g_stereo_44KHz.wav
1	51	1	1	1	C	2	1	677	1	Ⴌ	cut_w_stereo_44KHz.wav
1	52	2	1	0	C	1	1	924	1	Ⴔ	cut_w_stereo_44KHz.wav
1	53	4	3	2	I	2	0	1029	0	Ⴉ	cut_l_stereo_44KHz.wav
1	54	3	3	2	I	2	0	852	0	Ⴐ	cut_l_stereo_44KHz.wav
1	55	1	2	0	C	1	1	806	1	Ⴌ	cut_h_stereo_44KHz.wav
1	56	2	2	1	C	1	0	741	0	Ⴔ	cut_h_stereo_44KHz.wav
1	57	3	3	2	I	2	0	888	0	Ⴐ	cut_l_stereo_44KHz.wav
1	58	1	2	0	C	1	1	724	1	Ⴌ	cut_h_stereo_44KHz.wav
1	59	4	4	2	I	1	0	747	0	Ⴉ	cut_g_stereo_44KHz.wav
1	60	2	2	1	C	1	0	864	0	Ⴔ	cut_h_stereo_44KHz.wav
1	61	3	4	2	I	1	0	821	1	Ⴐ	cut_g_stereo_44KHz.wav
1	62	4	3	2	I	1	0	931	0	Ⴉ	cut_l_stereo_44KHz.wav
1	63	2	1	0	C	1	1	903	1	Ⴔ	cut_w_stereo_44KHz.wav
1	64	1	1	1	C	2	1	922	1	Ⴌ	cut_w_stereo_44KHz.wav
1	65	2	1	0	C	1	1	869	1	Ⴔ	cut_w_stereo_44KHz.wav
1	66	1	2	0	C	1	1	931	1	Ⴌ	cut_h_stereo_44KHz.wav
1	67	4	3	2	I	1	0	1038	0	Ⴉ	cut_l_stereo_44KHz.wav
1	68	3	3	2	I	1	0	817	0	Ⴐ	cut_l_stereo_44KHz.wav
1	69	1	1	1	C	2	1	1142	1	Ⴌ	cut_w_stereo_44KHz.wav
1	70	4	4	2	I	1	0	821	0	Ⴉ	cut_g_stereo_44KHz.wav
1	71	2	2	1	C	2	1	907	1	Ⴔ	cut_h_stereo_44KHz.wav
1	72	3	4	2	I	1	0	749	0	Ⴐ	cut_g_stereo_44KHz.wav
1	73	2	2	1	C	2	1	1068	1	Ⴔ	cut_h_stereo_44KHz.wav
1	74	3	3	2	I	1	0	892	1	Ⴐ	cut_l_stereo_44KHz.wav
1	75	4	3	2	I	1	0	888	1	Ⴉ	cut_l_stereo_44KHz.wav
1	76	1	2	0	C	1	1	874	1	Ⴌ	cut_h_stereo_44KHz.wav
1	77	2	1	0	C	1	1	916	1	Ⴔ	cut_w_stereo_44KHz.wav
1	78	3	4	2	I	1	0	826	1	Ⴐ	cut_g_stereo_44KHz.wav
1	79	1	1	1	C	1	0	761	0	Ⴌ	cut_w_stereo_44KHz.wav
1	80	4	4	2	I	1	0	771	0	Ⴉ	cut_g_stereo_44KHz.wav
1	81	1	1	1	C	2	1	988	1	Ⴌ	cut_w_stereo_44KHz.wav
1	82	4	4	2	I	1	0	1089	1	Ⴉ	cut_g_stereo_44KHz.wav
1	83	3	4	2	I	1	0	1159	1	Ⴐ	cut_g_stereo_44KHz.wav
1	84	2	1	0	C	1	1	848	1	Ⴔ	cut_w_stereo_44KHz.wav
1	85	4	3	2	I	1	0	717	0	Ⴉ	cut_l_stereo_44KHz.wav
1	86	1	2	0	C	1	1	1141	1	Ⴌ	cut_h_stereo_44KHz.wav
1	87	2	2	1	C	2	1	760	1	Ⴔ	cut_h_stereo_44KHz.wav
1	88	3	3	2	I	1	0	643	1	Ⴐ	cut_l_stereo_44KHz.wav
1	89	4	3	2	I	1	0	768	0	Ⴉ	cut_l_stereo_44KHz.wav
1	90	2	2	1	C	2	1	918	1	Ⴔ	cut_h_stereo_44KHz.wav
1	91	1	2	0	C	1	1	757	1	Ⴌ	cut_h_stereo_44KHz.wav
1	92	3	4	2	I	1	0	740	0	Ⴐ	cut_g_stereo_44KHz.wav
1	93	4	4	2	I	1	0	637	1	Ⴉ	cut_g_stereo_44KHz.wav
1	94	1	1	1	C	2	1	814	1	Ⴌ	cut_w_stereo_44KHz.wav
1	95	3	3	2	I	1	0	710	0	Ⴐ	cut_l_stereo_44KHz.wav
1	96	2	1	0	C	1	1	905	1	Ⴔ	cut_w_stereo_44KHz.wav
1	97	3	3	2	I	1	0	998	0	Ⴐ	cut_l_stereo_44KHz.wav
1	98	2	1	0	C	1	1	803	1	Ⴔ	cut_w_stereo_44KHz.wav
1	99	1	1	1	C	2	1	794	1	Ⴌ	cut_w_stereo_44KHz.wav
1	100	4	4	2	I	1	0	976	1	Ⴉ	cut_g_stereo_44KHz.wav
1	101	2	2	1	C	2	1	759	1	Ⴔ	cut_h_stereo_44KHz.wav
1	102	1	2	0	C	1	1	737	1	Ⴌ	cut_h_stereo_44KHz.wav
1	103	4	3	2	I	2	0	1313	1	Ⴉ	cut_l_stereo_44KHz.wav
1	104	3	4	2	I	1	0	738	1	Ⴐ	cut_g_stereo_44KHz.wav
1	105	4	4	2	I	2	0	1146	0	Ⴉ	cut_g_stereo_44KHz.wav
1	106	1	1	1	C	2	1	676	1	Ⴌ	cut_w_stereo_44KHz.wav
1	107	2	2	1	C	1	0	600	0	Ⴔ	cut_h_stereo_44KHz.wav
1	108	3	3	2	I	2	0	990	1	Ⴐ	cut_l_stereo_44KHz.wav
1	109	1	2	0	C	1	1	653	1	Ⴌ	cut_h_stereo_44KHz.wav
1	110	4	3	2	I	2	0	825	1	Ⴉ	cut_l_stereo_44KHz.wav
1	111	2	1	0	C	1	1	741	1	Ⴔ	cut_w_stereo_44KHz.wav
1	112	3	4	2	I	1	0	770	1	Ⴐ	cut_g_stereo_44KHz.wav
1	113	4	4	2	I	2	0	678	0	Ⴉ	cut_g_stereo_44KHz.wav
1	114	1	1	1	C	2	1	676	1	Ⴌ	cut_w_stereo_44KHz.wav
1	115	3	4	2	I	1	0	646	1	Ⴐ	cut_g_stereo_44KHz.wav
1	116	2	2	1	C	2	1	707	1	Ⴔ	cut_h_stereo_44KHz.wav
1	117	3	3	2	I	1	0	708	0	Ⴐ	cut_l_stereo_44KHz.wav
1	118	2	1	0	C	1	1	726	1	Ⴔ	cut_w_stereo_44KHz.wav
1	119	4	3	2	I	1	0	837	1	Ⴉ	cut_l_stereo_44KHz.wav
1	120	1	2	0	C	1	1	595	1	Ⴌ	cut_h_stereo_44KHz.wav
1	121	3	4	2	I	1	0	800	1	Ⴐ	cut_g_stereo_44KHz.wav
1	122	2	2	1	C	2	1	803	1	Ⴔ	cut_h_stereo_44KHz.wav
1	123	4	3	2	I	2	0	884	1	Ⴉ	cut_l_stereo_44KHz.wav
1	124	1	2	0	C	1	1	830	1	Ⴌ	cut_h_stereo_44KHz.wav
1	125	4	4	2	I	1	0	964	1	Ⴉ	cut_g_stereo_44KHz.wav
1	126	2	1	0	C	2	0	931	0	Ⴔ	cut_w_stereo_44KHz.wav
1	127	3	3	2	I	2	0	903	1	Ⴐ	cut_l_stereo_44KHz.wav
1	128	1	1	1	C	2	1	688	1	Ⴌ	cut_w_stereo_44KHz.wav
1	129	3	4	2	I	1	0	987	0	Ⴐ	cut_g_stereo_44KHz.wav
1	130	4	4	2	I	1	0	810	1	Ⴉ	cut_g_stereo_44KHz.wav
1	131	1	1	1	C	2	1	715	1	Ⴌ	cut_w_stereo_44KHz.wav
1	132	2	2	1	C	2	1	1109	1	Ⴔ	cut_h_stereo_44KHz.wav
1	133	4	3	2	I	2	0	1069	0	Ⴉ	cut_l_stereo_44KHz.wav
1	134	2	1	0	C	1	1	926	1	Ⴔ	cut_w_stereo_44KHz.wav
1	135	3	3	2	I	1	0	1573	1	Ⴐ	cut_l_stereo_44KHz.wav
1	136	1	2	0	C	1	1	756	1	Ⴌ	cut_h_stereo_44KHz.wav
1	137	2	1	0	C	1	1	746	1	Ⴔ	cut_w_stereo_44KHz.wav
1	138	1	1	1	C	2	1	763	1	Ⴌ	cut_w_stereo_44KHz.wav
1	139	4	3	2	I	1	0	1010	0	Ⴉ	cut_l_stereo_44KHz.wav
1	140	3	3	2	I	1	0	683	1	Ⴐ	cut_l_stereo_44KHz.wav
1	141	4	4	2	I	1	0	786	1	Ⴉ	cut_g_stereo_44KHz.wav
1	142	2	2	1	C	2	1	759	1	Ⴔ	cut_h_stereo_44KHz.wav
1	143	1	2	0	C	1	1	730	1	Ⴌ	cut_h_stereo_44KHz.wav
1	144	3	4	2	I	1	0	910	0	Ⴐ	cut_g_stereo_44KHz.wav
1	145	4	4	2	I	1	0	772	0	Ⴉ	cut_g_stereo_44KHz.wav
1	146	3	4	2	I	1	0	600	0	Ⴐ	cut_g_stereo_44KHz.wav
1	147	1	2	0	C	1	1	760	1	Ⴌ	cut_h_stereo_44KHz.wav
1	148	2	2	1	C	2	1	735	1	Ⴔ	cut_h_stereo_44KHz.wav
1	149	3	3	2	I	1	0	859	1	Ⴐ	cut_l_stereo_44KHz.wav
1	150	2	1	0	C	1	1	896	1	Ⴔ	cut_w_stereo_44KHz.wav
1	151	4	3	2	I	1	0	825	1	Ⴉ	cut_l_stereo_44KHz.wav
1	152	1	1	1	C	2	1	827	1	Ⴌ	cut_w_stereo_44KHz.wav
1	153	3	3	2	I	1	0	759	1	Ⴐ	cut_l_stereo_44KHz.wav
1	154	2	2	1	C	2	1	727	1	Ⴔ	cut_h_stereo_44KHz.wav
1	155	1	1	1	C	2	1	802	1	Ⴌ	cut_w_stereo_44KHz.wav
1	156	4	4	2	I	1	0	808	0	Ⴉ	cut_g_stereo_44KHz.wav
1	157	1	2	0	C	1	1	748	1	Ⴌ	cut_h_stereo_44KHz.wav
1	158	2	1	0	C	1	1	697	1	Ⴔ	cut_w_stereo_44KHz.wav
1	159	3	4	2	I	2	0	627	0	Ⴐ	cut_g_stereo_44KHz.wav
1	160	4	3	2	I	1	0	894	0	Ⴉ	cut_l_stereo_44KHz.wav
1	161	2	1	0	C	1	1	907	1	Ⴔ	cut_w_stereo_44KHz.wav
1	162	4	4	2	I	2	0	846	1	Ⴉ	cut_g_stereo_44KHz.wav
1	163	3	4	2	I	1	0	668	0	Ⴐ	cut_g_stereo_44KHz.wav
1	164	1	1	1	C	2	1	818	1	Ⴌ	cut_w_stereo_44KHz.wav
1	165	3	3	2	I	1	0	730	0	Ⴐ	cut_l_stereo_44KHz.wav
1	166	4	3	2	I	1	0	651	1	Ⴉ	cut_l_stereo_44KHz.wav
1	167	2	2	1	C	2	1	785	1	Ⴔ	cut_h_stereo_44KHz.wav
1	168	1	2	0	C	1	1	717	1	Ⴌ	cut_h_stereo_44KHz.wav
1	169	2	1	0	C	2	0	767	0	Ⴔ	cut_w_stereo_44KHz.wav
1	170	3	4	2	I	1	0	712	1	Ⴐ	cut_g_stereo_44KHz.wav
1	171	1	2	0	C	1	1	688	1	Ⴌ	cut_h_stereo_44KHz.wav
1	172	4	3	2	I	1	0	739	1	Ⴉ	cut_l_stereo_44KHz.wav
1	173	2	2	1	C	2	1	804	1	Ⴔ	cut_h_stereo_44KHz.wav
1	174	1	1	1	C	2	1	791	1	Ⴌ	cut_w_stereo_44KHz.wav
1	175	4	4	2	I	1	0	864	1	Ⴉ	cut_g_stereo_44KHz.wav
1	176	3	3	2	I	1	0	1112	0	Ⴐ	cut_l_stereo_44KHz.wav
1	177	4	4	2	I	1	0	839	0	Ⴉ	cut_g_stereo_44KHz.wav
1	178	1	1	1	C	2	1	794	1	Ⴌ	cut_w_stereo_44KHz.wav
1	179	3	4	2	I	1	0	685	1	Ⴐ	cut_g_stereo_44KHz.wav
1	180	2	1	0	C	2	0	898	0	Ⴔ	cut_w_stereo_44KHz.wav
1	181	4	3	2	I	1	0	791	1	Ⴉ	cut_l_stereo_44KHz.wav
1	182	1	2	0	C	1	1	793	1	Ⴌ	cut_h_stereo_44KHz.wav
1	183	2	2	1	C	2	1	770	1	Ⴔ	cut_h_stereo_44KHz.wav
1	184	3	3	2	I	1	0	827	0	Ⴐ	cut_l_stereo_44KHz.wav
1	185	1	2	0	C	1	1	797	1	Ⴌ	cut_h_stereo_44KHz.wav
1	186	2	1	0	C	1	1	776	1	Ⴔ	cut_w_stereo_44KHz.wav
1	187	4	4	2	I	1	0	1073	1	Ⴉ	cut_g_stereo_44KHz.wav
1	188	3	4	2	I	1	0	910	0	Ⴐ	cut_g_stereo_44KHz.wav
1	189	4	3	2	I	1	0	1087	1	Ⴉ	cut_l_stereo_44KHz.wav
1	190	1	1	1	C	2	1	741	1	Ⴌ	cut_w_stereo_44KHz.wav
1	191	3	3	2	I	1	0	804	0	Ⴐ	cut_l_stereo_44KHz.wav
1	192	2	2	1	C	2	1	814	1	Ⴔ	cut_h_stereo_44KHz.wav
1	193	4	4	2	I	1	0	977	0	Ⴉ	cut_g_stereo_44KHz.wav
1	194	3	4	2	I	1	0	778	0	Ⴐ	cut_g_stereo_44KHz.wav
1	195	1	1	1	C	2	1	855	1	Ⴌ	cut_w_stereo_44KHz.wav
1	196	2	1	0	C	1	1	779	1	Ⴔ	cut_w_stereo_44KHz.wav
1	197	3	3	2	I	1	0	851	0	Ⴐ	cut_l_stereo_44KHz.wav
1	198	1	2	0	C	1	1	797	1	Ⴌ	cut_h_stereo_44KHz.wav
1	199	4	3	2	I	1	0	770	0	Ⴉ	cut_l_stereo_44KHz.wav
1	200	2	2	1	C	2	1	1021	1	Ⴔ	cut_h_stereo_44KHz.wav
2	1	4	4	2	I	2	0	1894	0	Ⴕ	cut_r_stereo_44KHz.wav
2	2	1	1	1	C	2	1	921	1	Ⴏ	cut_j_stereo_44KHz.wav
2	3	2	1	0	C	1	1	597	1	Ⴒ	cut_j_stereo_44KHz.wav
2	4	3	3	2	I	1	0	634	1	Ⴖ	cut_oei_stereo_44KHz.wav
2	5	1	2	0	C	1	1	703	1	Ⴏ	cut_n_stereo_44KHz.wav
2	6	4	3	2	I	1	0	504	0	Ⴕ	cut_oei_stereo_44KHz.wav
2	7	2	2	1	C	1	0	546	0	Ⴒ	cut_n_stereo_44KHz.wav
2	8	3	4	2	I	2	0	698	1	Ⴖ	cut_r_stereo_44KHz.wav
2	9	1	2	0	C	1	1	715	1	Ⴏ	cut_n_stereo_44KHz.wav
2	10	4	4	2	I	1	0	840	0	Ⴕ	cut_r_stereo_44KHz.wav
2	11	2	2	1	C	1	0	688	0	Ⴒ	cut_n_stereo_44KHz.wav
2	12	3	3	2	I	1	0	564	0	Ⴖ	cut_oei_stereo_44KHz.wav
2	13	1	1	1	C	2	1	904	1	Ⴏ	cut_j_stereo_44KHz.wav
2	14	3	4	2	I	1	0	893	1	Ⴖ	cut_r_stereo_44KHz.wav
2	15	2	1	0	C	1	1	689	1	Ⴒ	cut_j_stereo_44KHz.wav
2	16	4	3	2	I	1	0	607	1	Ⴕ	cut_oei_stereo_44KHz.wav
2	17	2	1	0	C	1	1	589	1	Ⴒ	cut_j_stereo_44KHz.wav
2	18	4	3	2	I	1	0	483	1	Ⴕ	cut_oei_stereo_44KHz.wav
2	19	1	1	1	C	1	0	694	0	Ⴏ	cut_j_stereo_44KHz.wav
2	20	3	3	2	I	1	0	560	0	Ⴖ	cut_oei_stereo_44KHz.wav
2	21	2	2	1	C	1	0	960	0	Ⴒ	cut_n_stereo_44KHz.wav
2	22	4	4	2	I	1	0	615	0	Ⴕ	cut_r_stereo_44KHz.wav
2	23	1	2	0	C	1	1	859	1	Ⴏ	cut_n_stereo_44KHz.wav
2	24	3	4	2	I	1	0	672	0	Ⴖ	cut_r_stereo_44KHz.wav
2	25	2	2	1	C	1	0	659	0	Ⴒ	cut_n_stereo_44KHz.wav
2	26	4	3	2	I	1	0	567	1	Ⴕ	cut_oei_stereo_44KHz.wav
2	27	1	2	0	C	1	1	618	1	Ⴏ	cut_n_stereo_44KHz.wav
2	28	3	4	2	I	1	0	835	0	Ⴖ	cut_r_stereo_44KHz.wav
2	29	1	1	1	C	2	1	959	1	Ⴏ	cut_j_stereo_44KHz.wav
2	30	2	1	0	C	2	0	588	0	Ⴒ	cut_j_stereo_44KHz.wav
2	31	3	3	2	I	1	0	634	1	Ⴖ	cut_oei_stereo_44KHz.wav
2	32	4	4	2	I	2	0	814	1	Ⴕ	cut_r_stereo_44KHz.wav
2	33	3	3	2	I	1	0	697	0	Ⴖ	cut_oei_stereo_44KHz.wav
2	34	4	3	2	I	1	0	632	0	Ⴕ	cut_oei_stereo_44KHz.wav
2	35	1	1	1	C	1	0	708	0	Ⴏ	cut_j_stereo_44KHz.wav
2	36	2	1	0	C	1	1	599	1	Ⴒ	cut_j_stereo_44KHz.wav
2	37	3	4	2	I	2	0	752	0	Ⴖ	cut_r_stereo_44KHz.wav
2	38	4	4	2	I	1	0	452	1	Ⴕ	cut_r_stereo_44KHz.wav
2	39	1	2	0	C	2	0	825	0	Ⴏ	cut_n_stereo_44KHz.wav
2	40	2	2	1	C	1	0	657	0	Ⴒ	cut_n_stereo_44KHz.wav
2	41	1	1	1	C	2	1	1045	1	Ⴏ	cut_j_stereo_44KHz.wav
2	42	2	2	1	C	2	1	952	1	Ⴒ	cut_n_stereo_44KHz.wav
2	43	4	3	2	I	1	0	578	0	Ⴕ	cut_oei_stereo_44KHz.wav
2	44	3	4	2	I	2	0	1010	0	Ⴖ	cut_r_stereo_44KHz.wav
2	45	1	2	0	C	1	1	650	1	Ⴏ	cut_n_stereo_44KHz.wav
2	46	3	3	2	I	1	0	629	0	Ⴖ	cut_oei_stereo_44KHz.wav
2	47	2	1	0	C	1	1	693	1	Ⴒ	cut_j_stereo_44KHz.wav
2	48	4	4	2	I	2	0	776	1	Ⴕ	cut_r_stereo_44KHz.wav
2	49	3	3	2	I	2	0	865	1	Ⴖ	cut_oei_stereo_44KHz.wav
2	50	2	2	1	C	2	1	885	1	Ⴒ	cut_n_stereo_44KHz.wav
2	51	4	4	2	I	2	0	726	1	Ⴕ	cut_r_stereo_44KHz.wav
2	52	1	1	1	C	2	1	697	1	Ⴏ	cut_j_stereo_44KHz.wav
2	53	2	1	0	C	1	1	727	1	Ⴒ	cut_j_stereo_44KHz.wav
2	54	4	3	2	I	1	0	606	0	Ⴕ	cut_oei_stereo_44KHz.wav
2	55	3	4	2	I	2	0	749	1	Ⴖ	cut_r_stereo_44KHz.wav
2	56	1	2	0	C	1	1	967	1	Ⴏ	cut_n_stereo_44KHz.wav
2	57	4	4	2	I	2	0	742	0	Ⴕ	cut_r_stereo_44KHz.wav
2	58	2	2	1	C	2	1	1028	1	Ⴒ	cut_n_stereo_44KHz.wav
2	59	3	3	2	I	2	0	726	1	Ⴖ	cut_oei_stereo_44KHz.wav
2	60	1	1	1	C	2	1	802	1	Ⴏ	cut_j_stereo_44KHz.wav
2	61	3	4	2	I	2	0	788	1	Ⴖ	cut_r_stereo_44KHz.wav
2	62	4	3	2	I	1	0	641	1	Ⴕ	cut_oei_stereo_44KHz.wav
2	63	1	2	0	C	1	1	876	1	Ⴏ	cut_n_stereo_44KHz.wav
2	64	2	1	0	C	1	1	955	1	Ⴒ	cut_j_stereo_44KHz.wav
2	65	3	3	2	I	2	0	551	0	Ⴖ	cut_oei_stereo_44KHz.wav
2	66	1	1	1	C	1	0	723	0	Ⴏ	cut_j_stereo_44KHz.wav
2	67	4	4	2	I	2	0	599	1	Ⴕ	cut_r_stereo_44KHz.wav
2	68	2	1	0	C	1	1	941	1	Ⴒ	cut_j_stereo_44KHz.wav
2	69	3	4	2	I	2	0	715	1	Ⴖ	cut_r_stereo_44KHz.wav
2	70	4	3	2	I	1	0	518	0	Ⴕ	cut_oei_stereo_44KHz.wav
2	71	2	2	1	C	2	1	892	1	Ⴒ	cut_n_stereo_44KHz.wav
2	72	1	2	0	C	1	1	926	1	Ⴏ	cut_n_stereo_44KHz.wav
2	73	3	4	2	I	1	0	742	1	Ⴖ	cut_r_stereo_44KHz.wav
2	74	2	1	0	C	1	1	872	1	Ⴒ	cut_j_stereo_44KHz.wav
2	75	4	4	2	I	1	0	779	0	Ⴕ	cut_r_stereo_44KHz.wav
2	76	1	2	0	C	1	1	893	1	Ⴏ	cut_n_stereo_44KHz.wav
2	77	2	2	1	C	2	1	761	1	Ⴒ	cut_n_stereo_44KHz.wav
2	78	1	1	1	C	2	1	983	1	Ⴏ	cut_j_stereo_44KHz.wav
2	79	3	3	2	I	1	0	705	1	Ⴖ	cut_oei_stereo_44KHz.wav
2	80	4	3	2	I	1	0	669	1	Ⴕ	cut_oei_stereo_44KHz.wav
2	81	2	1	0	C	1	1	852	1	Ⴒ	cut_j_stereo_44KHz.wav
2	82	1	1	1	C	2	1	727	1	Ⴏ	cut_j_stereo_44KHz.wav
2	83	3	3	2	I	1	0	635	0	Ⴖ	cut_oei_stereo_44KHz.wav
2	84	4	4	2	I	1	0	1160	0	Ⴕ	cut_r_stereo_44KHz.wav
2	85	3	4	2	I	1	0	785	0	Ⴖ	cut_r_stereo_44KHz.wav
2	86	4	3	2	I	1	0	726	1	Ⴕ	cut_oei_stereo_44KHz.wav
2	87	1	2	0	C	1	1	886	1	Ⴏ	cut_n_stereo_44KHz.wav
2	88	2	2	1	C	2	1	654	1	Ⴒ	cut_n_stereo_44KHz.wav
2	89	4	4	2	I	1	0	589	0	Ⴕ	cut_r_stereo_44KHz.wav
2	90	2	2	1	C	2	1	779	1	Ⴒ	cut_n_stereo_44KHz.wav
2	91	1	1	1	C	2	1	774	1	Ⴏ	cut_j_stereo_44KHz.wav
2	92	3	4	2	I	2	0	912	1	Ⴖ	cut_r_stereo_44KHz.wav
2	93	2	1	0	C	2	0	639	0	Ⴒ	cut_j_stereo_44KHz.wav
2	94	4	3	2	I	1	0	646	0	Ⴕ	cut_oei_stereo_44KHz.wav
2	95	1	2	0	C	1	1	913	1	Ⴏ	cut_n_stereo_44KHz.wav
2	96	3	3	2	I	1	0	661	0	Ⴖ	cut_oei_stereo_44KHz.wav
2	97	2	1	0	C	1	1	795	1	Ⴒ	cut_j_stereo_44KHz.wav
2	98	3	4	2	I	1	0	866	1	Ⴖ	cut_r_stereo_44KHz.wav
2	99	4	3	2	I	1	0	633	1	Ⴕ	cut_oei_stereo_44KHz.wav
2	100	1	2	0	C	1	1	687	1	Ⴏ	cut_n_stereo_44KHz.wav
2	101	3	3	2	I	2	0	793	1	Ⴖ	cut_oei_stereo_44KHz.wav
2	102	1	1	1	C	2	1	884	1	Ⴏ	cut_j_stereo_44KHz.wav
2	103	2	2	1	C	2	1	990	1	Ⴒ	cut_n_stereo_44KHz.wav
2	104	4	4	2	I	2	0	950	0	Ⴕ	cut_r_stereo_44KHz.wav
2	105	2	2	1	C	2	1	683	1	Ⴒ	cut_n_stereo_44KHz.wav
2	106	3	3	2	I	2	0	1024	0	Ⴖ	cut_oei_stereo_44KHz.wav
2	107	4	3	2	I	2	0	844	0	Ⴕ	cut_oei_stereo_44KHz.wav
2	108	1	1	1	C	2	1	849	1	Ⴏ	cut_j_stereo_44KHz.wav
2	109	4	4	2	I	1	0	937	1	Ⴕ	cut_r_stereo_44KHz.wav
2	110	1	2	0	C	1	1	1058	1	Ⴏ	cut_n_stereo_44KHz.wav
2	111	2	1	0	C	1	1	711	1	Ⴒ	cut_j_stereo_44KHz.wav
2	112	3	4	2	I	1	0	1244	1	Ⴖ	cut_r_stereo_44KHz.wav
2	113	4	4	2	I	1	0	977	0	Ⴕ	cut_r_stereo_44KHz.wav
2	114	2	1	0	C	1	1	952	1	Ⴒ	cut_j_stereo_44KHz.wav
2	115	3	4	2	I	1	0	885	0	Ⴖ	cut_r_stereo_44KHz.wav
2	116	1	1	1	C	2	1	830	1	Ⴏ	cut_j_stereo_44KHz.wav
2	117	4	3	2	I	1	0	872	0	Ⴕ	cut_oei_stereo_44KHz.wav
2	118	1	2	0	C	1	1	776	1	Ⴏ	cut_n_stereo_44KHz.wav
2	119	3	3	2	I	2	0	902	0	Ⴖ	cut_oei_stereo_44KHz.wav
2	120	2	2	1	C	2	1	867	1	Ⴒ	cut_n_stereo_44KHz.wav
2	121	1	2	0	C	1	1	785	1	Ⴏ	cut_n_stereo_44KHz.wav
2	122	4	3	2	I	1	0	730	0	Ⴕ	cut_oei_stereo_44KHz.wav
2	123	3	4	2	I	1	0	865	0	Ⴖ	cut_r_stereo_44KHz.wav
2	124	2	2	1	C	2	1	890	1	Ⴒ	cut_n_stereo_44KHz.wav
2	125	3	3	2	I	1	0	679	0	Ⴖ	cut_oei_stereo_44KHz.wav
2	126	4	4	2	I	2	0	1030	1	Ⴕ	cut_r_stereo_44KHz.wav
2	127	1	1	1	C	2	1	820	1	Ⴏ	cut_j_stereo_44KHz.wav
2	128	2	1	0	C	1	1	695	1	Ⴒ	cut_j_stereo_44KHz.wav
2	129	4	3	2	I	1	0	750	1	Ⴕ	cut_oei_stereo_44KHz.wav
2	130	1	1	1	C	2	1	966	1	Ⴏ	cut_j_stereo_44KHz.wav
2	131	2	2	1	C	2	1	783	1	Ⴒ	cut_n_stereo_44KHz.wav
2	132	3	4	2	I	1	0	883	0	Ⴖ	cut_r_stereo_44KHz.wav
2	133	2	1	0	C	1	1	944	1	Ⴒ	cut_j_stereo_44KHz.wav
2	134	1	2	0	C	1	1	831	1	Ⴏ	cut_n_stereo_44KHz.wav
2	135	3	3	2	I	1	0	822	1	Ⴖ	cut_oei_stereo_44KHz.wav
2	136	4	4	2	I	1	0	842	1	Ⴕ	cut_r_stereo_44KHz.wav
2	137	1	1	1	C	2	1	797	1	Ⴏ	cut_j_stereo_44KHz.wav
2	138	2	1	0	C	1	1	669	1	Ⴒ	cut_j_stereo_44KHz.wav
2	139	3	3	2	I	1	0	683	1	Ⴖ	cut_oei_stereo_44KHz.wav
2	140	4	3	2	I	1	0	727	0	Ⴕ	cut_oei_stereo_44KHz.wav
2	141	2	2	1	C	2	1	1045	1	Ⴒ	cut_n_stereo_44KHz.wav
2	142	4	4	2	I	1	0	900	1	Ⴕ	cut_r_stereo_44KHz.wav
2	143	1	2	0	C	1	1	805	1	Ⴏ	cut_n_stereo_44KHz.wav
2	144	3	4	2	I	1	0	807	1	Ⴖ	cut_r_stereo_44KHz.wav
2	145	4	3	2	I	1	0	638	0	Ⴕ	cut_oei_stereo_44KHz.wav
2	146	3	3	2	I	1	0	668	0	Ⴖ	cut_oei_stereo_44KHz.wav
2	147	2	1	0	C	1	1	1011	1	Ⴒ	cut_j_stereo_44KHz.wav
2	148	1	2	0	C	1	1	861	1	Ⴏ	cut_n_stereo_44KHz.wav
2	149	2	2	1	C	2	1	1184	1	Ⴒ	cut_n_stereo_44KHz.wav
2	150	1	1	1	C	2	1	847	1	Ⴏ	cut_j_stereo_44KHz.wav
2	151	3	4	2	I	1	0	801	0	Ⴖ	cut_r_stereo_44KHz.wav
2	152	4	4	2	I	1	0	986	1	Ⴕ	cut_r_stereo_44KHz.wav
2	153	2	1	0	C	1	1	751	1	Ⴒ	cut_j_stereo_44KHz.wav
2	154	1	1	1	C	2	1	729	1	Ⴏ	cut_j_stereo_44KHz.wav
2	155	4	3	2	I	1	0	863	0	Ⴕ	cut_oei_stereo_44KHz.wav
2	156	3	3	2	I	1	0	685	1	Ⴖ	cut_oei_stereo_44KHz.wav
2	157	4	4	2	I	2	0	779	1	Ⴕ	cut_r_stereo_44KHz.wav
2	158	3	4	2	I	2	0	762	0	Ⴖ	cut_r_stereo_44KHz.wav
2	159	2	2	1	C	2	1	1002	1	Ⴒ	cut_n_stereo_44KHz.wav
2	160	1	2	0	C	1	1	783	1	Ⴏ	cut_n_stereo_44KHz.wav
2	161	3	3	2	I	1	0	793	0	Ⴖ	cut_oei_stereo_44KHz.wav
2	162	2	1	0	C	1	1	1095	1	Ⴒ	cut_j_stereo_44KHz.wav
2	163	1	2	0	C	1	1	935	1	Ⴏ	cut_n_stereo_44KHz.wav
2	164	4	4	2	I	2	0	1267	0	Ⴕ	cut_r_stereo_44KHz.wav
2	165	2	2	1	C	2	1	941	1	Ⴒ	cut_n_stereo_44KHz.wav
2	166	4	3	2	I	1	0	902	1	Ⴕ	cut_oei_stereo_44KHz.wav
2	167	1	1	1	C	2	1	1103	1	Ⴏ	cut_j_stereo_44KHz.wav
2	168	3	4	2	I	1	0	1044	1	Ⴖ	cut_r_stereo_44KHz.wav
2	169	2	2	1	C	2	1	1271	1	Ⴒ	cut_n_stereo_44KHz.wav
2	170	3	3	2	I	1	0	915	1	Ⴖ	cut_oei_stereo_44KHz.wav
2	171	1	2	0	C	1	1	1028	1	Ⴏ	cut_n_stereo_44KHz.wav
2	172	4	3	2	I	1	0	726	1	Ⴕ	cut_oei_stereo_44KHz.wav
2	173	1	1	1	C	2	1	772	1	Ⴏ	cut_j_stereo_44KHz.wav
2	174	2	1	0	C	1	1	928	1	Ⴒ	cut_j_stereo_44KHz.wav
2	175	4	4	2	I	1	0	1288	1	Ⴕ	cut_r_stereo_44KHz.wav
2	176	3	4	2	I	1	0	849	1	Ⴖ	cut_r_stereo_44KHz.wav
2	177	1	2	0	C	1	1	1298	1	Ⴏ	cut_n_stereo_44KHz.wav
2	178	3	4	2	I	1	0	850	0	Ⴖ	cut_r_stereo_44KHz.wav
2	179	2	2	1	C	2	1	861	1	Ⴒ	cut_n_stereo_44KHz.wav
2	180	4	3	2	I	1	0	663	1	Ⴕ	cut_oei_stereo_44KHz.wav
2	181	3	3	2	I	1	0	689	1	Ⴖ	cut_oei_stereo_44KHz.wav
2	182	2	1	0	C	1	1	1297	1	Ⴒ	cut_j_stereo_44KHz.wav
2	183	1	1	1	C	2	1	871	1	Ⴏ	cut_j_stereo_44KHz.wav
2	184	4	4	2	I	1	0	767	1	Ⴕ	cut_r_stereo_44KHz.wav
2	185	3	4	2	I	1	0	713	0	Ⴖ	cut_r_stereo_44KHz.wav
2	186	1	1	1	C	2	1	780	1	Ⴏ	cut_j_stereo_44KHz.wav
2	187	4	3	2	I	1	0	657	0	Ⴕ	cut_oei_stereo_44KHz.wav
2	188	2	1	0	C	1	1	880	1	Ⴒ	cut_j_stereo_44KHz.wav
2	189	4	4	2	I	1	0	706	0	Ⴕ	cut_r_stereo_44KHz.wav
2	190	1	2	0	C	2	0	822	0	Ⴏ	cut_n_stereo_44KHz.wav
2	191	2	2	1	C	2	1	784	1	Ⴒ	cut_n_stereo_44KHz.wav
2	192	3	3	2	I	1	0	691	1	Ⴖ	cut_oei_stereo_44KHz.wav
2	193	2	1	0	C	1	1	852	1	Ⴒ	cut_j_stereo_44KHz.wav
2	194	4	4	2	I	1	0	1028	1	Ⴕ	cut_r_stereo_44KHz.wav
2	195	3	4	2	I	1	0	671	0	Ⴖ	cut_r_stereo_44KHz.wav
2	196	1	2	0	C	1	1	848	1	Ⴏ	cut_n_stereo_44KHz.wav
2	197	2	2	1	C	2	1	751	1	Ⴒ	cut_n_stereo_44KHz.wav
2	198	3	3	2	I	1	0	807	1	Ⴖ	cut_oei_stereo_44KHz.wav
2	199	4	3	2	I	1	0	557	0	Ⴕ	cut_oei_stereo_44KHz.wav
2	200	1	1	1	C	1	0	1216	0	Ⴏ	cut_j_stereo_44KHz.wav
3	1	2	1	0	C	2	0	1188	0	Ⴡ	cut_ui_stereo_44KHz.wav
3	2	1	1	1	C	2	1	1076	1	Ⴃ	cut_ui_stereo_44KHz.wav
3	3	3	4	2	I	1	0	853	1	Ⴟ	cut_ei_stereo_44KHz.wav
3	4	4	4	2	I	2	0	782	0	Ⴜ	cut_ei_stereo_44KHz.wav
3	5	1	2	0	C	1	1	893	1	Ⴃ	cut_s_stereo_44KHz.wav
3	6	4	3	2	I	1	0	921	0	Ⴜ	cut_f_stereo_44KHz.wav
3	7	3	3	2	I	2	0	944	0	Ⴟ	cut_f_stereo_44KHz.wav
3	8	2	2	1	C	1	0	893	0	Ⴡ	cut_s_stereo_44KHz.wav
3	9	4	4	2	I	1	0	810	0	Ⴜ	cut_ei_stereo_44KHz.wav
3	10	2	1	0	C	2	0	700	0	Ⴡ	cut_ui_stereo_44KHz.wav
3	11	1	1	1	C	2	1	1011	1	Ⴃ	cut_ui_stereo_44KHz.wav
3	12	3	4	2	I	1	0	728	1	Ⴟ	cut_ei_stereo_44KHz.wav
3	13	2	2	1	C	1	0	886	0	Ⴡ	cut_s_stereo_44KHz.wav
3	14	3	3	2	I	2	0	1039	0	Ⴟ	cut_f_stereo_44KHz.wav
3	15	1	2	0	C	1	1	969	1	Ⴃ	cut_s_stereo_44KHz.wav
3	16	4	3	2	I	2	0	859	0	Ⴜ	cut_f_stereo_44KHz.wav
3	17	1	1	1	C	2	1	947	1	Ⴃ	cut_ui_stereo_44KHz.wav
3	18	2	1	0	C	1	1	807	1	Ⴡ	cut_ui_stereo_44KHz.wav
3	19	4	3	2	I	1	0	1182	1	Ⴜ	cut_f_stereo_44KHz.wav
3	20	3	4	2	I	1	0	728	1	Ⴟ	cut_ei_stereo_44KHz.wav
3	21	1	2	0	C	1	1	763	1	Ⴃ	cut_s_stereo_44KHz.wav
3	22	4	4	2	I	1	0	1034	0	Ⴜ	cut_ei_stereo_44KHz.wav
3	23	2	2	1	C	2	1	883	1	Ⴡ	cut_s_stereo_44KHz.wav
3	24	3	3	2	I	2	0	958	0	Ⴟ	cut_f_stereo_44KHz.wav
3	25	1	2	0	C	1	1	995	1	Ⴃ	cut_s_stereo_44KHz.wav
3	26	3	4	2	I	1	0	664	0	Ⴟ	cut_ei_stereo_44KHz.wav
3	27	2	2	1	C	2	1	1111	1	Ⴡ	cut_s_stereo_44KHz.wav
3	28	4	4	2	I	1	0	1010	1	Ⴜ	cut_ei_stereo_44KHz.wav
3	29	3	3	2	I	1	0	1056	0	Ⴟ	cut_f_stereo_44KHz.wav
3	30	2	1	0	C	1	1	803	1	Ⴡ	cut_ui_stereo_44KHz.wav
3	31	1	1	1	C	2	1	889	1	Ⴃ	cut_ui_stereo_44KHz.wav
3	32	4	3	2	I	1	0	802	1	Ⴜ	cut_f_stereo_44KHz.wav
3	33	3	3	2	I	1	0	912	1	Ⴟ	cut_f_stereo_44KHz.wav
3	34	4	3	2	I	1	0	776	0	Ⴜ	cut_f_stereo_44KHz.wav
3	35	1	2	0	C	1	1	1126	1	Ⴃ	cut_s_stereo_44KHz.wav
3	36	2	1	0	C	1	1	645	1	Ⴡ	cut_ui_stereo_44KHz.wav
3	37	4	4	2	I	1	0	920	1	Ⴜ	cut_ei_stereo_44KHz.wav
3	38	3	4	2	I	2	0	925	1	Ⴟ	cut_ei_stereo_44KHz.wav
3	39	1	1	1	C	2	1	1170	1	Ⴃ	cut_ui_stereo_44KHz.wav
3	40	2	2	1	C	2	1	823	1	Ⴡ	cut_s_stereo_44KHz.wav
3	41	4	3	2	I	1	0	787	0	Ⴜ	cut_f_stereo_44KHz.wav
3	42	1	2	0	C	1	1	1051	1	Ⴃ	cut_s_stereo_44KHz.wav
3	43	3	4	2	I	2	0	765	1	Ⴟ	cut_ei_stereo_44KHz.wav
3	44	2	1	0	C	1	1	709	1	Ⴡ	cut_ui_stereo_44KHz.wav
3	45	1	1	1	C	2	1	785	1	Ⴃ	cut_ui_stereo_44KHz.wav
3	46	3	3	2	I	1	0	921	1	Ⴟ	cut_f_stereo_44KHz.wav
3	47	4	4	2	I	1	0	757	1	Ⴜ	cut_ei_stereo_44KHz.wav
3	48	2	2	1	C	2	1	843	1	Ⴡ	cut_s_stereo_44KHz.wav
3	49	4	4	2	I	1	0	775	0	Ⴜ	cut_ei_stereo_44KHz.wav
3	50	2	1	0	C	1	1	848	1	Ⴡ	cut_ui_stereo_44KHz.wav
3	51	1	2	0	C	1	1	1058	1	Ⴃ	cut_s_stereo_44KHz.wav
3	52	3	3	2	I	1	0	893	0	Ⴟ	cut_f_stereo_44KHz.wav
3	53	2	2	1	C	2	1	870	1	Ⴡ	cut_s_stereo_44KHz.wav
3	54	3	4	2	I	2	0	984	0	Ⴟ	cut_ei_stereo_44KHz.wav
3	55	4	3	2	I	1	0	1005	0	Ⴜ	cut_f_stereo_44KHz.wav
3	56	1	1	1	C	2	1	1003	1	Ⴃ	cut_ui_stereo_44KHz.wav
3	57	4	4	2	I	1	0	1029	1	Ⴜ	cut_ei_stereo_44KHz.wav
3	58	3	3	2	I	1	0	995	1	Ⴟ	cut_f_stereo_44KHz.wav
3	59	1	2	0	C	1	1	959	1	Ⴃ	cut_s_stereo_44KHz.wav
3	60	2	1	0	C	1	1	861	1	Ⴡ	cut_ui_stereo_44KHz.wav
3	61	3	4	2	I	1	0	977	1	Ⴟ	cut_ei_stereo_44KHz.wav
3	62	4	3	2	I	1	0	1103	0	Ⴜ	cut_f_stereo_44KHz.wav
3	63	1	1	1	C	2	1	1091	1	Ⴃ	cut_ui_stereo_44KHz.wav
3	64	2	2	1	C	2	1	1215	1	Ⴡ	cut_s_stereo_44KHz.wav
3	65	3	3	2	I	1	0	1135	0	Ⴟ	cut_f_stereo_44KHz.wav
3	66	4	4	2	I	1	0	699	0	Ⴜ	cut_ei_stereo_44KHz.wav
3	67	1	2	0	C	1	1	1409	1	Ⴃ	cut_s_stereo_44KHz.wav
3	68	2	2	1	C	2	1	1301	1	Ⴡ	cut_s_stereo_44KHz.wav
3	69	4	3	2	I	1	0	820	0	Ⴜ	cut_f_stereo_44KHz.wav
3	70	2	1	0	C	1	1	1038	1	Ⴡ	cut_ui_stereo_44KHz.wav
3	71	1	1	1	C	2	1	962	1	Ⴃ	cut_ui_stereo_44KHz.wav
3	72	3	4	2	I	1	0	715	0	Ⴟ	cut_ei_stereo_44KHz.wav
3	73	4	3	2	I	1	0	723	1	Ⴜ	cut_f_stereo_44KHz.wav
3	74	3	3	2	I	1	0	1362	1	Ⴟ	cut_f_stereo_44KHz.wav
3	75	1	2	0	C	1	1	945	1	Ⴃ	cut_s_stereo_44KHz.wav
3	76	2	2	1	C	2	1	855	1	Ⴡ	cut_s_stereo_44KHz.wav
3	77	3	4	2	I	1	0	960	1	Ⴟ	cut_ei_stereo_44KHz.wav
3	78	1	1	1	C	2	1	825	1	Ⴃ	cut_ui_stereo_44KHz.wav
3	79	2	1	0	C	1	1	673	1	Ⴡ	cut_ui_stereo_44KHz.wav
3	80	4	4	2	I	1	0	735	0	Ⴜ	cut_ei_stereo_44KHz.wav
3	81	1	2	0	C	1	1	893	1	Ⴃ	cut_s_stereo_44KHz.wav
3	82	2	1	0	C	1	1	622	1	Ⴡ	cut_ui_stereo_44KHz.wav
3	83	4	3	2	I	1	0	739	0	Ⴜ	cut_f_stereo_44KHz.wav
3	84	3	4	2	I	1	0	721	0	Ⴟ	cut_ei_stereo_44KHz.wav
3	85	1	1	1	C	2	1	819	1	Ⴃ	cut_ui_stereo_44KHz.wav
3	86	4	4	2	I	1	0	699	1	Ⴜ	cut_ei_stereo_44KHz.wav
3	87	2	2	1	C	2	1	753	1	Ⴡ	cut_s_stereo_44KHz.wav
3	88	3	3	2	I	2	0	1047	0	Ⴟ	cut_f_stereo_44KHz.wav
3	89	2	2	1	C	2	1	936	1	Ⴡ	cut_s_stereo_44KHz.wav
3	90	4	3	2	I	1	0	886	1	Ⴜ	cut_f_stereo_44KHz.wav
3	91	3	3	2	I	1	0	717	1	Ⴟ	cut_f_stereo_44KHz.wav
3	92	1	1	1	C	2	1	869	1	Ⴃ	cut_ui_stereo_44KHz.wav
3	93	4	4	2	I	1	0	832	0	Ⴜ	cut_ei_stereo_44KHz.wav
3	94	3	4	2	I	1	0	847	0	Ⴟ	cut_ei_stereo_44KHz.wav
3	95	2	1	0	C	1	1	760	1	Ⴡ	cut_ui_stereo_44KHz.wav
3	96	1	2	0	C	1	1	918	1	Ⴃ	cut_s_stereo_44KHz.wav
3	97	2	1	0	C	1	1	834	1	Ⴡ	cut_ui_stereo_44KHz.wav
3	98	3	3	2	I	1	0	859	0	Ⴟ	cut_f_stereo_44KHz.wav
3	99	1	2	0	C	1	1	874	1	Ⴃ	cut_s_stereo_44KHz.wav
3	100	4	4	2	I	1	0	757	0	Ⴜ	cut_ei_stereo_44KHz.wav
3	101	2	2	1	C	2	1	984	1	Ⴡ	cut_s_stereo_44KHz.wav
3	102	4	3	2	I	1	0	1085	0	Ⴜ	cut_f_stereo_44KHz.wav
3	103	3	4	2	I	1	0	795	0	Ⴟ	cut_ei_stereo_44KHz.wav
3	104	1	1	1	C	2	1	909	1	Ⴃ	cut_ui_stereo_44KHz.wav
3	105	2	1	0	C	1	1	766	1	Ⴡ	cut_ui_stereo_44KHz.wav
3	106	3	3	2	I	1	0	1209	1	Ⴟ	cut_f_stereo_44KHz.wav
3	107	1	2	0	C	1	1	895	1	Ⴃ	cut_s_stereo_44KHz.wav
3	108	4	3	2	I	1	0	773	1	Ⴜ	cut_f_stereo_44KHz.wav
3	109	1	1	1	C	2	1	797	1	Ⴃ	cut_ui_stereo_44KHz.wav
3	110	2	2	1	C	2	1	974	1	Ⴡ	cut_s_stereo_44KHz.wav
3	111	3	4	2	I	1	0	932	1	Ⴟ	cut_ei_stereo_44KHz.wav
3	112	4	4	2	I	2	0	933	1	Ⴜ	cut_ei_stereo_44KHz.wav
3	113	3	4	2	I	1	0	743	1	Ⴟ	cut_ei_stereo_44KHz.wav
3	114	4	4	2	I	2	0	459	1	Ⴜ	cut_ei_stereo_44KHz.wav
3	115	2	1	0	C	2	0	899	0	Ⴡ	cut_ui_stereo_44KHz.wav
3	116	1	1	1	C	2	1	669	1	Ⴃ	cut_ui_stereo_44KHz.wav
3	117	4	3	2	I	1	0	1096	0	Ⴜ	cut_f_stereo_44KHz.wav
3	118	3	3	2	I	1	0	712	0	Ⴟ	cut_f_stereo_44KHz.wav
3	119	1	2	0	C	1	1	1103	1	Ⴃ	cut_s_stereo_44KHz.wav
3	120	2	2	1	C	2	1	844	1	Ⴡ	cut_s_stereo_44KHz.wav
3	121	4	3	2	I	1	0	812	0	Ⴜ	cut_f_stereo_44KHz.wav
3	122	1	1	1	C	2	1	1008	1	Ⴃ	cut_ui_stereo_44KHz.wav
3	123	3	4	2	I	1	0	853	1	Ⴟ	cut_ei_stereo_44KHz.wav
3	124	2	1	0	C	1	1	804	1	Ⴡ	cut_ui_stereo_44KHz.wav
3	125	3	3	2	I	1	0	916	0	Ⴟ	cut_f_stereo_44KHz.wav
3	126	1	2	0	C	1	1	1141	1	Ⴃ	cut_s_stereo_44KHz.wav
3	127	2	2	1	C	2	1	1007	1	Ⴡ	cut_s_stereo_44KHz.wav
3	128	4	4	2	I	2	0	956	1	Ⴜ	cut_ei_stereo_44KHz.wav
3	129	3	4	2	I	1	0	540	1	Ⴟ	cut_ei_stereo_44KHz.wav
3	130	2	1	0	C	1	1	742	1	Ⴡ	cut_ui_stereo_44KHz.wav
3	131	4	3	2	I	1	0	855	0	Ⴜ	cut_f_stereo_44KHz.wav
3	132	1	2	0	C	1	1	861	1	Ⴃ	cut_s_stereo_44KHz.wav
3	133	3	3	2	I	2	0	1182	1	Ⴟ	cut_f_stereo_44KHz.wav
3	134	4	4	2	I	2	0	1192	1	Ⴜ	cut_ei_stereo_44KHz.wav
3	135	1	1	1	C	2	1	888	1	Ⴃ	cut_ui_stereo_44KHz.wav
3	136	2	2	1	C	2	1	1055	1	Ⴡ	cut_s_stereo_44KHz.wav
3	137	3	4	2	I	1	0	1066	0	Ⴟ	cut_ei_stereo_44KHz.wav
3	138	2	1	0	C	1	1	1279	1	Ⴡ	cut_ui_stereo_44KHz.wav
3	139	1	2	0	C	1	1	856	1	Ⴃ	cut_s_stereo_44KHz.wav
3	140	4	4	2	I	1	0	784	0	Ⴜ	cut_ei_stereo_44KHz.wav
3	141	3	3	2	I	1	0	1386	0	Ⴟ	cut_f_stereo_44KHz.wav
3	142	1	1	1	C	2	1	1000	1	Ⴃ	cut_ui_stereo_44KHz.wav
3	143	2	2	1	C	2	1	806	1	Ⴡ	cut_s_stereo_44KHz.wav
3	144	4	3	2	I	1	0	881	1	Ⴜ	cut_f_stereo_44KHz.wav
3	145	2	2	1	C	2	1	996	1	Ⴡ	cut_s_stereo_44KHz.wav
3	146	1	1	1	C	2	1	704	1	Ⴃ	cut_ui_stereo_44KHz.wav
3	147	4	3	2	I	1	0	731	1	Ⴜ	cut_f_stereo_44KHz.wav
3	148	3	4	2	I	1	0	1158	1	Ⴟ	cut_ei_stereo_44KHz.wav
3	149	4	4	2	I	2	0	1221	0	Ⴜ	cut_ei_stereo_44KHz.wav
3	150	2	1	0	C	1	1	756	1	Ⴡ	cut_ui_stereo_44KHz.wav
3	151	3	3	2	I	1	0	877	1	Ⴟ	cut_f_stereo_44KHz.wav
3	152	1	2	0	C	1	1	1037	1	Ⴃ	cut_s_stereo_44KHz.wav
3	153	2	1	0	C	1	1	829	1	Ⴡ	cut_ui_stereo_44KHz.wav
3	154	1	2	0	C	1	1	735	1	Ⴃ	cut_s_stereo_44KHz.wav
3	155	4	3	2	I	1	0	823	1	Ⴜ	cut_f_stereo_44KHz.wav
3	156	3	4	2	I	1	0	730	1	Ⴟ	cut_ei_stereo_44KHz.wav
3	157	1	1	1	C	2	1	805	1	Ⴃ	cut_ui_stereo_44KHz.wav
3	158	3	3	2	I	1	0	715	0	Ⴟ	cut_f_stereo_44KHz.wav
3	159	2	2	1	C	2	1	1006	1	Ⴡ	cut_s_stereo_44KHz.wav
3	160	4	4	2	I	1	0	1316	1	Ⴜ	cut_ei_stereo_44KHz.wav
3	161	2	2	1	C	2	1	971	1	Ⴡ	cut_s_stereo_44KHz.wav
3	162	4	3	2	I	1	0	1305	1	Ⴜ	cut_f_stereo_44KHz.wav
3	163	1	1	1	C	2	1	753	1	Ⴃ	cut_ui_stereo_44KHz.wav
3	164	3	4	2	I	1	0	688	0	Ⴟ	cut_ei_stereo_44KHz.wav
3	165	2	1	0	C	1	1	681	1	Ⴡ	cut_ui_stereo_44KHz.wav
3	166	1	2	0	C	1	1	713	1	Ⴃ	cut_s_stereo_44KHz.wav
3	167	4	4	2	I	1	0	685	1	Ⴜ	cut_ei_stereo_44KHz.wav
3	168	3	3	2	I	1	0	939	0	Ⴟ	cut_f_stereo_44KHz.wav
3	169	2	2	1	C	2	1	830	1	Ⴡ	cut_s_stereo_44KHz.wav
3	170	3	4	2	I	1	0	869	1	Ⴟ	cut_ei_stereo_44KHz.wav
3	171	1	2	0	C	1	1	813	1	Ⴃ	cut_s_stereo_44KHz.wav
3	172	4	3	2	I	1	0	899	1	Ⴜ	cut_f_stereo_44KHz.wav
3	173	2	1	0	C	1	1	921	1	Ⴡ	cut_ui_stereo_44KHz.wav
3	174	4	4	2	I	1	0	751	1	Ⴜ	cut_ei_stereo_44KHz.wav
3	175	3	3	2	I	1	0	887	1	Ⴟ	cut_f_stereo_44KHz.wav
3	176	1	1	1	C	2	1	1032	1	Ⴃ	cut_ui_stereo_44KHz.wav
3	177	3	4	2	I	1	0	747	0	Ⴟ	cut_ei_stereo_44KHz.wav
3	178	2	1	0	C	1	1	742	1	Ⴡ	cut_ui_stereo_44KHz.wav
3	179	4	4	2	I	1	0	786	0	Ⴜ	cut_ei_stereo_44KHz.wav
3	180	1	1	1	C	2	1	697	1	Ⴃ	cut_ui_stereo_44KHz.wav
3	181	3	3	2	I	1	0	1137	1	Ⴟ	cut_f_stereo_44KHz.wav
3	182	4	3	2	I	1	0	654	1	Ⴜ	cut_f_stereo_44KHz.wav
3	183	2	2	1	C	2	1	1045	1	Ⴡ	cut_s_stereo_44KHz.wav
3	184	1	2	0	C	1	1	835	1	Ⴃ	cut_s_stereo_44KHz.wav
3	185	4	3	2	I	1	0	999	0	Ⴜ	cut_f_stereo_44KHz.wav
3	186	1	1	1	C	2	1	990	1	Ⴃ	cut_ui_stereo_44KHz.wav
3	187	2	1	0	C	1	1	931	1	Ⴡ	cut_ui_stereo_44KHz.wav
3	188	3	4	2	I	1	0	1443	0	Ⴟ	cut_ei_stereo_44KHz.wav
3	189	1	2	0	C	1	1	1346	1	Ⴃ	cut_s_stereo_44KHz.wav
3	190	3	3	2	I	1	0	920	0	Ⴟ	cut_f_stereo_44KHz.wav
3	191	2	2	1	C	2	1	1074	1	Ⴡ	cut_s_stereo_44KHz.wav
3	192	4	4	2	I	1	0	790	0	Ⴜ	cut_ei_stereo_44KHz.wav
3	193	3	3	2	I	1	0	958	0	Ⴟ	cut_f_stereo_44KHz.wav
3	194	1	1	1	C	2	1	823	1	Ⴃ	cut_ui_stereo_44KHz.wav
3	195	4	4	2	I	1	0	763	1	Ⴜ	cut_ei_stereo_44KHz.wav
3	196	2	1	0	C	1	1	1029	1	Ⴡ	cut_ui_stereo_44KHz.wav
3	197	1	2	0	C	1	1	843	1	Ⴃ	cut_s_stereo_44KHz.wav
3	198	2	2	1	C	2	1	973	1	Ⴡ	cut_s_stereo_44KHz.wav
3	199	3	4	2	I	1	0	695	1	Ⴟ	cut_ei_stereo_44KHz.wav
3	200	4	3	2	I	1	0	897	1	Ⴜ	cut_f_stereo_44KHz.wav
4	1	1	1	1	C	1	0	1197	0	Ⴇ	cut_a_stereo_44KHz.wav
4	2	3	4	2	I	1	0	1260	1	Ⴊ	cut_k_stereo_44KHz.wav
4	3	4	4	2	I	2	0	786	0	Ⴂ	cut_k_stereo_44KHz.wav
4	4	2	1	0	C	2	0	761	0	Ⴁ	cut_a_stereo_44KHz.wav
4	5	3	3	2	I	1	0	751	1	Ⴊ	cut_u_stereo_44KHz.wav
4	6	4	3	2	I	1	0	565	0	Ⴂ	cut_u_stereo_44KHz.wav
4	7	1	2	0	C	1	1	663	1	Ⴇ	cut_o_stereo_44KHz.wav
4	8	2	2	1	C	2	1	540	1	Ⴁ	cut_o_stereo_44KHz.wav
4	9	4	3	2	I	2	0	700	0	Ⴂ	cut_u_stereo_44KHz.wav
4	10	2	1	0	C	1	1	573	1	Ⴁ	cut_a_stereo_44KHz.wav
4	11	1	1	1	C	1	0	419	0	Ⴇ	cut_a_stereo_44KHz.wav
4	12	3	4	2	I	1	0	873	1	Ⴊ	cut_k_stereo_44KHz.wav
4	13	1	2	0	C	2	0	943	0	Ⴇ	cut_o_stereo_44KHz.wav
4	14	2	2	1	C	2	1	634	1	Ⴁ	cut_o_stereo_44KHz.wav
4	15	4	4	2	I	1	0	989	1	Ⴂ	cut_k_stereo_44KHz.wav
4	16	3	3	2	I	1	0	843	0	Ⴊ	cut_u_stereo_44KHz.wav
4	17	4	3	2	I	1	0	600	0	Ⴂ	cut_u_stereo_44KHz.wav
4	18	3	3	2	I	1	0	943	0	Ⴊ	cut_u_stereo_44KHz.wav
4	19	1	2	0	C	1	1	691	1	Ⴇ	cut_o_stereo_44KHz.wav
4	20	2	2	1	C	2	1	807	1	Ⴁ	cut_o_stereo_44KHz.wav
4	21	3	4	2	I	1	0	886	1	Ⴊ	cut_k_stereo_44KHz.wav
4	22	2	1	0	C	2	0	806	0	Ⴁ	cut_a_stereo_44KHz.wav
4	23	1	1	1	C	2	1	724	1	Ⴇ	cut_a_stereo_44KHz.wav
4	24	4	4	2	I	1	0	814	1	Ⴂ	cut_k_stereo_44KHz.wav
4	25	1	2	0	C	1	1	823	1	Ⴇ	cut_o_stereo_44KHz.wav
4	26	4	4	2	I	1	0	883	1	Ⴂ	cut_k_stereo_44KHz.wav
4	27	3	3	2	I	2	0	791	0	Ⴊ	cut_u_stereo_44KHz.wav
4	28	2	1	0	C	1	1	738	1	Ⴁ	cut_a_stereo_44KHz.wav
4	29	1	1	1	C	2	1	778	1	Ⴇ	cut_a_stereo_44KHz.wav
4	30	2	2	1	C	2	1	891	1	Ⴁ	cut_o_stereo_44KHz.wav
4	31	4	3	2	I	2	0	814	1	Ⴂ	cut_u_stereo_44KHz.wav
4	32	3	4	2	I	1	0	778	0	Ⴊ	cut_k_stereo_44KHz.wav
4	33	2	1	0	C	1	1	841	1	Ⴁ	cut_a_stereo_44KHz.wav
4	34	4	4	2	I	1	0	624	1	Ⴂ	cut_k_stereo_44KHz.wav
4	35	1	1	1	C	2	1	912	1	Ⴇ	cut_a_stereo_44KHz.wav
4	36	3	4	2	I	1	0	712	1	Ⴊ	cut_k_stereo_44KHz.wav
4	37	4	3	2	I	2	0	705	0	Ⴂ	cut_u_stereo_44KHz.wav
4	38	1	2	0	C	1	1	836	1	Ⴇ	cut_o_stereo_44KHz.wav
4	39	2	2	1	C	2	1	908	1	Ⴁ	cut_o_stereo_44KHz.wav
4	40	3	3	2	I	1	0	1198	1	Ⴊ	cut_u_stereo_44KHz.wav
4	41	1	2	0	C	1	1	825	1	Ⴇ	cut_o_stereo_44KHz.wav
4	42	4	4	2	I	1	0	872	0	Ⴂ	cut_k_stereo_44KHz.wav
4	43	3	3	2	I	1	0	1147	1	Ⴊ	cut_u_stereo_44KHz.wav
4	44	2	2	1	C	2	1	1535	1	Ⴁ	cut_o_stereo_44KHz.wav
4	45	3	4	2	I	1	0	927	1	Ⴊ	cut_k_stereo_44KHz.wav
4	46	4	3	2	I	1	0	1069	0	Ⴂ	cut_u_stereo_44KHz.wav
4	47	2	1	0	C	2	0	903	0	Ⴁ	cut_a_stereo_44KHz.wav
4	48	1	1	1	C	2	1	777	1	Ⴇ	cut_a_stereo_44KHz.wav
4	49	3	3	2	I	2	0	1377	1	Ⴊ	cut_u_stereo_44KHz.wav
4	50	1	1	1	C	2	1	1385	1	Ⴇ	cut_a_stereo_44KHz.wav
4	51	2	1	0	C	1	1	994	1	Ⴁ	cut_a_stereo_44KHz.wav
4	52	4	4	2	I	1	0	872	0	Ⴂ	cut_k_stereo_44KHz.wav
4	53	3	4	2	I	1	0	859	0	Ⴊ	cut_k_stereo_44KHz.wav
4	54	2	2	1	C	2	1	1234	1	Ⴁ	cut_o_stereo_44KHz.wav
4	55	4	3	2	I	1	0	942	0	Ⴂ	cut_u_stereo_44KHz.wav
4	56	1	2	0	C	1	1	999	1	Ⴇ	cut_o_stereo_44KHz.wav
4	57	3	4	2	I	1	0	992	0	Ⴊ	cut_k_stereo_44KHz.wav
4	58	2	1	0	C	1	1	919	1	Ⴁ	cut_a_stereo_44KHz.wav
4	59	4	3	2	I	1	0	1028	0	Ⴂ	cut_u_stereo_44KHz.wav
4	60	1	1	1	C	2	1	806	1	Ⴇ	cut_a_stereo_44KHz.wav
4	61	4	4	2	I	1	0	780	1	Ⴂ	cut_k_stereo_44KHz.wav
4	62	3	3	2	I	0	0	0	0	Ⴊ	cut_u_stereo_44KHz.wav
4	63	2	2	1	C	2	1	1049	1	Ⴁ	cut_o_stereo_44KHz.wav
4	64	1	2	0	C	1	1	793	1	Ⴇ	cut_o_stereo_44KHz.wav
4	65	2	2	1	C	2	1	892	1	Ⴁ	cut_o_stereo_44KHz.wav
4	66	3	3	2	I	1	0	1115	1	Ⴊ	cut_u_stereo_44KHz.wav
4	67	1	2	0	C	1	1	717	1	Ⴇ	cut_o_stereo_44KHz.wav
4	68	4	3	2	I	1	0	1072	1	Ⴂ	cut_u_stereo_44KHz.wav
4	69	1	1	1	C	2	1	1013	1	Ⴇ	cut_a_stereo_44KHz.wav
4	70	3	4	2	I	1	0	776	0	Ⴊ	cut_k_stereo_44KHz.wav
4	71	2	1	0	C	1	1	1099	1	Ⴁ	cut_a_stereo_44KHz.wav
4	72	4	4	2	I	1	0	747	1	Ⴂ	cut_k_stereo_44KHz.wav
4	73	1	1	1	C	2	1	884	1	Ⴇ	cut_a_stereo_44KHz.wav
4	74	2	2	1	C	2	1	1155	1	Ⴁ	cut_o_stereo_44KHz.wav
4	75	4	3	2	I	1	0	803	1	Ⴂ	cut_u_stereo_44KHz.wav
4	76	3	3	2	I	1	0	967	0	Ⴊ	cut_u_stereo_44KHz.wav
4	77	1	2	0	C	1	1	1376	1	Ⴇ	cut_o_stereo_44KHz.wav
4	78	3	4	2	I	1	0	760	1	Ⴊ	cut_k_stereo_44KHz.wav
4	79	2	1	0	C	1	1	1372	1	Ⴁ	cut_a_stereo_44KHz.wav
4	80	4	4	2	I	1	0	861	0	Ⴂ	cut_k_stereo_44KHz.wav
4	81	3	4	2	I	1	0	686	1	Ⴊ	cut_k_stereo_44KHz.wav
4	82	1	2	0	C	1	1	895	1	Ⴇ	cut_o_stereo_44KHz.wav
4	83	2	1	0	C	2	0	780	0	Ⴁ	cut_a_stereo_44KHz.wav
4	84	4	3	2	I	1	0	904	0	Ⴂ	cut_u_stereo_44KHz.wav
4	85	3	3	2	I	1	0	694	0	Ⴊ	cut_u_stereo_44KHz.wav
4	86	2	2	1	C	2	1	1278	1	Ⴁ	cut_o_stereo_44KHz.wav
4	87	4	4	2	I	1	0	836	1	Ⴂ	cut_k_stereo_44KHz.wav
4	88	1	1	1	C	2	1	1353	1	Ⴇ	cut_a_stereo_44KHz.wav
4	89	3	3	2	I	1	0	724	1	Ⴊ	cut_u_stereo_44KHz.wav
4	90	4	3	2	I	2	0	1440	1	Ⴂ	cut_u_stereo_44KHz.wav
4	91	2	1	0	C	1	1	1103	1	Ⴁ	cut_a_stereo_44KHz.wav
4	92	1	1	1	C	2	1	1175	1	Ⴇ	cut_a_stereo_44KHz.wav
4	93	2	2	1	C	2	1	1518	1	Ⴁ	cut_o_stereo_44KHz.wav
4	94	4	4	2	I	1	0	977	1	Ⴂ	cut_k_stereo_44KHz.wav
4	95	3	4	2	I	2	0	1075	0	Ⴊ	cut_k_stereo_44KHz.wav
4	96	1	2	0	C	1	1	771	1	Ⴇ	cut_o_stereo_44KHz.wav
4	97	3	4	2	I	2	0	1203	1	Ⴊ	cut_k_stereo_44KHz.wav
4	98	2	1	0	C	2	0	961	0	Ⴁ	cut_a_stereo_44KHz.wav
4	99	1	2	0	C	1	1	768	1	Ⴇ	cut_o_stereo_44KHz.wav
4	100	4	3	2	I	2	0	1060	1	Ⴂ	cut_u_stereo_44KHz.wav
4	101	1	1	1	C	2	1	1006	1	Ⴇ	cut_a_stereo_44KHz.wav
4	102	3	3	2	I	1	0	800	1	Ⴊ	cut_u_stereo_44KHz.wav
4	103	4	4	2	I	2	0	1337	1	Ⴂ	cut_k_stereo_44KHz.wav
4	104	2	2	1	C	2	1	1516	1	Ⴁ	cut_o_stereo_44KHz.wav
4	105	3	3	2	I	1	0	1120	0	Ⴊ	cut_u_stereo_44KHz.wav
4	106	2	1	0	C	1	1	1308	1	Ⴁ	cut_a_stereo_44KHz.wav
4	107	1	1	1	C	2	1	859	1	Ⴇ	cut_a_stereo_44KHz.wav
4	108	4	4	2	I	1	0	835	1	Ⴂ	cut_k_stereo_44KHz.wav
4	109	3	4	2	I	1	0	1078	0	Ⴊ	cut_k_stereo_44KHz.wav
4	110	1	2	0	C	1	1	976	1	Ⴇ	cut_o_stereo_44KHz.wav
4	111	2	2	1	C	2	1	1167	1	Ⴁ	cut_o_stereo_44KHz.wav
4	112	4	3	2	I	1	0	1143	0	Ⴂ	cut_u_stereo_44KHz.wav
4	113	1	2	0	C	1	1	845	1	Ⴇ	cut_o_stereo_44KHz.wav
4	114	2	2	1	C	2	1	1169	1	Ⴁ	cut_o_stereo_44KHz.wav
4	115	4	4	2	I	1	0	1042	0	Ⴂ	cut_k_stereo_44KHz.wav
4	116	3	4	2	I	1	0	1272	0	Ⴊ	cut_k_stereo_44KHz.wav
4	117	2	1	0	C	1	1	1405	1	Ⴁ	cut_a_stereo_44KHz.wav
4	118	4	3	2	I	2	0	860	1	Ⴂ	cut_u_stereo_44KHz.wav
4	119	1	1	1	C	2	1	824	1	Ⴇ	cut_a_stereo_44KHz.wav
4	120	3	3	2	I	1	0	1143	0	Ⴊ	cut_u_stereo_44KHz.wav
4	121	2	2	1	C	2	1	1030	1	Ⴁ	cut_o_stereo_44KHz.wav
4	122	1	2	0	C	1	1	818	1	Ⴇ	cut_o_stereo_44KHz.wav
4	123	4	3	2	I	2	0	827	0	Ⴂ	cut_u_stereo_44KHz.wav
4	124	3	3	2	I	2	0	1008	0	Ⴊ	cut_u_stereo_44KHz.wav
4	125	4	4	2	I	2	0	1571	1	Ⴂ	cut_k_stereo_44KHz.wav
4	126	3	4	2	I	2	0	1011	1	Ⴊ	cut_k_stereo_44KHz.wav
4	127	2	1	0	C	1	1	1163	1	Ⴁ	cut_a_stereo_44KHz.wav
4	128	1	1	1	C	2	1	779	1	Ⴇ	cut_a_stereo_44KHz.wav
4	129	3	3	2	I	2	0	757	0	Ⴊ	cut_u_stereo_44KHz.wav
4	130	4	3	2	I	1	0	647	0	Ⴂ	cut_u_stereo_44KHz.wav
4	131	1	1	1	C	2	1	1053	1	Ⴇ	cut_a_stereo_44KHz.wav
4	132	2	1	0	C	1	1	973	1	Ⴁ	cut_a_stereo_44KHz.wav
4	133	4	4	2	I	2	0	702	0	Ⴂ	cut_k_stereo_44KHz.wav
4	134	2	2	1	C	2	1	1090	1	Ⴁ	cut_o_stereo_44KHz.wav
4	135	3	4	2	I	2	0	668	0	Ⴊ	cut_k_stereo_44KHz.wav
4	136	1	2	0	C	1	1	769	1	Ⴇ	cut_o_stereo_44KHz.wav
4	137	2	2	1	C	2	1	1019	1	Ⴁ	cut_o_stereo_44KHz.wav
4	138	3	3	2	I	2	0	1225	0	Ⴊ	cut_u_stereo_44KHz.wav
4	139	4	4	2	I	1	0	1072	1	Ⴂ	cut_k_stereo_44KHz.wav
4	140	1	2	0	C	1	1	769	1	Ⴇ	cut_o_stereo_44KHz.wav
4	141	4	3	2	I	2	0	1082	0	Ⴂ	cut_u_stereo_44KHz.wav
4	142	1	1	1	C	2	1	971	1	Ⴇ	cut_a_stereo_44KHz.wav
4	143	3	4	2	I	1	0	915	0	Ⴊ	cut_k_stereo_44KHz.wav
4	144	2	1	0	C	2	0	620	0	Ⴁ	cut_a_stereo_44KHz.wav
4	145	3	3	2	I	2	0	1639	0	Ⴊ	cut_u_stereo_44KHz.wav
4	146	1	1	1	C	2	1	780	1	Ⴇ	cut_a_stereo_44KHz.wav
4	147	2	1	0	C	1	1	916	1	Ⴁ	cut_a_stereo_44KHz.wav
4	148	4	4	2	I	1	0	861	0	Ⴂ	cut_k_stereo_44KHz.wav
4	149	3	4	2	I	2	0	1431	1	Ⴊ	cut_k_stereo_44KHz.wav
4	150	4	3	2	I	1	0	1100	1	Ⴂ	cut_u_stereo_44KHz.wav
4	151	2	2	1	C	2	1	1364	1	Ⴁ	cut_o_stereo_44KHz.wav
4	152	1	2	0	C	1	1	619	1	Ⴇ	cut_o_stereo_44KHz.wav
4	153	4	4	2	I	2	0	768	1	Ⴂ	cut_k_stereo_44KHz.wav
4	154	1	1	1	C	2	1	792	1	Ⴇ	cut_a_stereo_44KHz.wav
4	155	3	4	2	I	1	0	650	0	Ⴊ	cut_k_stereo_44KHz.wav
4	156	2	2	1	C	2	1	1073	1	Ⴁ	cut_o_stereo_44KHz.wav
4	157	1	2	0	C	1	1	661	1	Ⴇ	cut_o_stereo_44KHz.wav
4	158	2	1	0	C	2	0	702	0	Ⴁ	cut_a_stereo_44KHz.wav
4	159	4	3	2	I	1	0	786	0	Ⴂ	cut_u_stereo_44KHz.wav
4	160	3	3	2	I	2	0	733	1	Ⴊ	cut_u_stereo_44KHz.wav
4	161	4	3	2	I	2	0	1211	1	Ⴂ	cut_u_stereo_44KHz.wav
4	162	1	2	0	C	1	1	719	1	Ⴇ	cut_o_stereo_44KHz.wav
4	163	3	4	2	I	2	0	1254	0	Ⴊ	cut_k_stereo_44KHz.wav
4	164	2	2	1	C	2	1	1046	1	Ⴁ	cut_o_stereo_44KHz.wav
4	165	4	4	2	I	1	0	1104	1	Ⴂ	cut_k_stereo_44KHz.wav
4	166	1	1	1	C	2	1	1005	1	Ⴇ	cut_a_stereo_44KHz.wav
4	167	3	3	2	I	2	0	1083	1	Ⴊ	cut_u_stereo_44KHz.wav
4	168	2	1	0	C	1	1	1169	1	Ⴁ	cut_a_stereo_44KHz.wav
4	169	1	2	0	C	1	1	862	1	Ⴇ	cut_o_stereo_44KHz.wav
4	170	4	4	2	I	2	0	713	0	Ⴂ	cut_k_stereo_44KHz.wav
4	171	2	2	1	C	2	1	1159	1	Ⴁ	cut_o_stereo_44KHz.wav
4	172	3	3	2	I	1	0	725	1	Ⴊ	cut_u_stereo_44KHz.wav
4	173	1	1	1	C	2	1	947	1	Ⴇ	cut_a_stereo_44KHz.wav
4	174	2	1	0	C	1	1	1167	1	Ⴁ	cut_a_stereo_44KHz.wav
4	175	3	4	2	I	1	0	1101	0	Ⴊ	cut_k_stereo_44KHz.wav
4	176	4	3	2	I	2	0	993	0	Ⴂ	cut_u_stereo_44KHz.wav
4	177	3	3	2	I	1	0	1123	1	Ⴊ	cut_u_stereo_44KHz.wav
4	178	2	2	1	C	2	1	1271	1	Ⴁ	cut_o_stereo_44KHz.wav
4	179	4	3	2	I	1	0	753	0	Ⴂ	cut_u_stereo_44KHz.wav
4	180	1	2	0	C	1	1	840	1	Ⴇ	cut_o_stereo_44KHz.wav
4	181	2	1	0	C	1	1	992	1	Ⴁ	cut_a_stereo_44KHz.wav
4	182	3	4	2	I	2	0	1078	1	Ⴊ	cut_k_stereo_44KHz.wav
4	183	1	1	1	C	2	1	872	1	Ⴇ	cut_a_stereo_44KHz.wav
4	184	4	4	2	I	1	0	931	0	Ⴂ	cut_k_stereo_44KHz.wav
4	185	2	1	0	C	1	1	1001	1	Ⴁ	cut_a_stereo_44KHz.wav
4	186	4	3	2	I	2	0	731	1	Ⴂ	cut_u_stereo_44KHz.wav
4	187	3	3	2	I	2	0	811	0	Ⴊ	cut_u_stereo_44KHz.wav
4	188	1	1	1	C	2	1	829	1	Ⴇ	cut_a_stereo_44KHz.wav
4	189	3	4	2	I	1	0	1169	1	Ⴊ	cut_k_stereo_44KHz.wav
4	190	2	2	1	C	2	1	1172	1	Ⴁ	cut_o_stereo_44KHz.wav
4	191	4	4	2	I	1	0	930	0	Ⴂ	cut_k_stereo_44KHz.wav
4	192	1	2	0	C	1	1	990	1	Ⴇ	cut_o_stereo_44KHz.wav
4	193	4	3	2	I	2	0	1312	1	Ⴂ	cut_u_stereo_44KHz.wav
4	194	1	2	0	C	1	1	1171	1	Ⴇ	cut_o_stereo_44KHz.wav
4	195	3	4	2	I	2	0	674	1	Ⴊ	cut_k_stereo_44KHz.wav
4	196	2	1	0	C	1	1	988	1	Ⴁ	cut_a_stereo_44KHz.wav
4	197	1	1	1	C	2	1	807	1	Ⴇ	cut_a_stereo_44KHz.wav
4	198	3	3	2	I	1	0	1077	0	Ⴊ	cut_u_stereo_44KHz.wav
4	199	4	4	2	I	1	0	1060	1	Ⴂ	cut_k_stereo_44KHz.wav
4	200	2	2	1	C	2	1	1236	1	Ⴁ	cut_o_stereo_44KHz.wav
