block	trial	Vstim	Astim	match	C/I	resp	result	RT	fb	V-file	A-file
RL

0	1	1	1	1	C	2	0	1383	0	poli_8sides 21_whiteLine3.jpg	Practice4_b26_stereo_44KHz.wav
0	2	1	2	0	C	1	0	741	0	poli_8sides 21_whiteLine3.jpg	Practice3_b26_cut1_stereo_44KHz.wav
0	3	2	3	1	C	2	0	1596	0	poli_8sides 24_whiteLine3.jpg	Practice1_b27_cut1_stereo_44KHz.wav
0	4	2	4	0	C	1	0	803	0	poli_8sides 24_whiteLine3.jpg	Practice2_b27_cut2_stereo_44KHz.wav
0	5	1	2	0	C	2	1	1192	1	poli_8sides 21_whiteLine3.jpg	Practice3_b26_cut1_stereo_44KHz.wav
0	6	2	3	1	C	1	1	1216	1	poli_8sides 24_whiteLine3.jpg	Practice1_b27_cut1_stereo_44KHz.wav
0	7	2	4	0	C	2	1	1267	1	poli_8sides 24_whiteLine3.jpg	Practice2_b27_cut2_stereo_44KHz.wav
0	8	1	1	1	C	2	0	1570	0	poli_8sides 21_whiteLine3.jpg	Practice4_b26_stereo_44KHz.wav
0	9	2	3	1	C	1	1	1139	1	poli_8sides 24_whiteLine3.jpg	Practice1_b27_cut1_stereo_44KHz.wav
0	10	1	2	0	C	2	1	1533	1	poli_8sides 21_whiteLine3.jpg	Practice3_b26_cut1_stereo_44KHz.wav
0	11	1	1	1	C	2	0	1724	0	poli_8sides 21_whiteLine3.jpg	Practice4_b26_stereo_44KHz.wav
0	12	2	4	0	C	2	1	849	1	poli_8sides 24_whiteLine3.jpg	Practice2_b27_cut2_stereo_44KHz.wav
0	13	1	1	1	C	1	1	1160	1	poli_8sides 21_whiteLine3.jpg	Practice4_b26_stereo_44KHz.wav
0	14	2	4	0	C	2	1	1176	1	poli_8sides 24_whiteLine3.jpg	Practice2_b27_cut2_stereo_44KHz.wav
0	15	2	3	1	C	1	1	1089	1	poli_8sides 24_whiteLine3.jpg	Practice1_b27_cut1_stereo_44KHz.wav
0	16	1	2	0	C	1	0	1411	0	poli_8sides 21_whiteLine3.jpg	Practice3_b26_cut1_stereo_44KHz.wav
0	17	1	1	1	C	1	1	1108	1	poli_8sides 21_whiteLine3.jpg	Practice4_b26_stereo_44KHz.wav
0	18	2	3	1	C	1	1	1029	1	poli_8sides 24_whiteLine3.jpg	Practice1_b27_cut1_stereo_44KHz.wav
0	19	1	2	0	C	2	1	1065	1	poli_8sides 21_whiteLine3.jpg	Practice3_b26_cut1_stereo_44KHz.wav
0	20	2	4	0	C	2	1	1005	1	poli_8sides 24_whiteLine3.jpg	Practice2_b27_cut2_stereo_44KHz.wav
0	21	1	2	0	C	1	0	566	0	poli_8sides 21_whiteLine3.jpg	Practice3_b26_cut1_stereo_44KHz.wav
0	22	1	1	1	C	1	1	1045	1	poli_8sides 21_whiteLine3.jpg	Practice4_b26_stereo_44KHz.wav
0	23	2	4	0	C	2	1	899	1	poli_8sides 24_whiteLine3.jpg	Practice2_b27_cut2_stereo_44KHz.wav
0	24	2	3	1	C	1	1	1014	1	poli_8sides 24_whiteLine3.jpg	Practice1_b27_cut1_stereo_44KHz.wav
0	25	2	4	0	C	1	0	952	0	poli_8sides 24_whiteLine3.jpg	Practice2_b27_cut2_stereo_44KHz.wav
0	26	2	3	1	C	1	1	803	1	poli_8sides 24_whiteLine3.jpg	Practice1_b27_cut1_stereo_44KHz.wav
0	27	1	2	0	C	2	1	1165	1	poli_8sides 21_whiteLine3.jpg	Practice3_b26_cut1_stereo_44KHz.wav
0	28	1	1	1	C	1	1	1278	1	poli_8sides 21_whiteLine3.jpg	Practice4_b26_stereo_44KHz.wav
0	29	1	2	0	C	2	1	1651	1	poli_8sides 21_whiteLine3.jpg	Practice3_b26_cut1_stereo_44KHz.wav
0	30	2	4	0	C	2	1	673	1	poli_8sides 24_whiteLine3.jpg	Practice2_b27_cut2_stereo_44KHz.wav
avg_resp = 1112
1	1	2	1	0	C	1	0	1077	0	poli_8sides 6_whiteLine3.jpg	Short_b09_cut1_stereo_44KHz.wav
1	2	4	3	2	I	2	0	787	0	poli_8sides 11_whiteLine3.jpg	Short_b23_cut1_stereo_44KHz.wav
1	3	1	2	0	C	1	0	983	0	poli_8sides 16_whiteLine3.jpg	Short_b20_cut1_stereo_44KHz.wav
1	4	3	3	2	I	2	0	907	0	poli_8sides 7_whiteLine3.jpg	Short_b23_cut1_stereo_44KHz.wav
1	5	2	2	1	C	1	1	919	1	poli_8sides 6_whiteLine3.jpg	Short_b20_cut1_stereo_44KHz.wav
1	6	3	4	2	I	2	0	781	1	poli_8sides 7_whiteLine3.jpg	Short_b22_cut1_stereo_44KHz.wav
1	7	4	4	2	I	1	0	1548	0	poli_8sides 11_whiteLine3.jpg	Short_b22_cut1_stereo_44KHz.wav
1	8	1	1	1	C	2	0	903	0	poli_8sides 16_whiteLine3.jpg	Short_b09_cut1_stereo_44KHz.wav
1	9	3	3	2	I	2	0	1007	1	poli_8sides 7_whiteLine3.jpg	Short_b23_cut1_stereo_44KHz.wav
1	10	4	4	2	I	2	0	1322	1	poli_8sides 11_whiteLine3.jpg	Short_b22_cut1_stereo_44KHz.wav
1	11	2	1	0	C	2	1	1447	1	poli_8sides 6_whiteLine3.jpg	Short_b09_cut1_stereo_44KHz.wav
1	12	1	1	1	C	1	1	736	1	poli_8sides 16_whiteLine3.jpg	Short_b09_cut1_stereo_44KHz.wav
1	13	3	4	2	I	2	0	1412	1	poli_8sides 7_whiteLine3.jpg	Short_b22_cut1_stereo_44KHz.wav
1	14	2	2	1	C	1	1	1367	1	poli_8sides 6_whiteLine3.jpg	Short_b20_cut1_stereo_44KHz.wav
1	15	4	3	2	I	1	0	1234	0	poli_8sides 11_whiteLine3.jpg	Short_b23_cut1_stereo_44KHz.wav
1	16	1	2	0	C	1	0	1529	0	poli_8sides 16_whiteLine3.jpg	Short_b20_cut1_stereo_44KHz.wav
1	17	3	4	2	I	2	0	1232	1	poli_8sides 7_whiteLine3.jpg	Short_b22_cut1_stereo_44KHz.wav
1	18	2	2	1	C	2	0	1332	0	poli_8sides 6_whiteLine3.jpg	Short_b20_cut1_stereo_44KHz.wav
1	19	1	1	1	C	2	0	1111	0	poli_8sides 16_whiteLine3.jpg	Short_b09_cut1_stereo_44KHz.wav
1	20	4	3	2	I	2	0	1236	0	poli_8sides 11_whiteLine3.jpg	Short_b23_cut1_stereo_44KHz.wav
1	21	2	1	0	C	2	1	1359	1	poli_8sides 6_whiteLine3.jpg	Short_b09_cut1_stereo_44KHz.wav
1	22	3	3	2	I	1	0	1232	0	poli_8sides 7_whiteLine3.jpg	Short_b23_cut1_stereo_44KHz.wav
1	23	4	4	2	I	2	0	1072	1	poli_8sides 11_whiteLine3.jpg	Short_b22_cut1_stereo_44KHz.wav
1	24	1	2	0	C	2	1	1067	1	poli_8sides 16_whiteLine3.jpg	Short_b20_cut1_stereo_44KHz.wav
1	25	2	2	1	C	1	1	818	1	poli_8sides 6_whiteLine3.jpg	Short_b20_cut1_stereo_44KHz.wav
1	26	1	1	1	C	2	0	959	0	poli_8sides 16_whiteLine3.jpg	Short_b09_cut1_stereo_44KHz.wav
1	27	4	4	2	I	2	0	1546	0	poli_8sides 11_whiteLine3.jpg	Short_b22_cut1_stereo_44KHz.wav
1	28	3	3	2	I	2	0	1129	0	poli_8sides 7_whiteLine3.jpg	Short_b23_cut1_stereo_44KHz.wav
1	29	1	2	0	C	2	1	1045	1	poli_8sides 16_whiteLine3.jpg	Short_b20_cut1_stereo_44KHz.wav
1	30	4	3	2	I	2	0	1092	1	poli_8sides 11_whiteLine3.jpg	Short_b23_cut1_stereo_44KHz.wav
1	31	2	1	0	C	2	1	1293	1	poli_8sides 6_whiteLine3.jpg	Short_b09_cut1_stereo_44KHz.wav
1	32	3	4	2	I	2	0	1157	0	poli_8sides 7_whiteLine3.jpg	Short_b22_cut1_stereo_44KHz.wav
1	33	2	1	0	C	1	0	1131	0	poli_8sides 6_whiteLine3.jpg	Short_b09_cut1_stereo_44KHz.wav
1	34	3	3	2	I	2	0	1425	1	poli_8sides 7_whiteLine3.jpg	Short_b23_cut1_stereo_44KHz.wav
1	35	4	4	2	I	2	0	899	0	poli_8sides 11_whiteLine3.jpg	Short_b22_cut1_stereo_44KHz.wav
1	36	1	2	0	C	1	0	1844	0	poli_8sides 16_whiteLine3.jpg	Short_b20_cut1_stereo_44KHz.wav
1	37	2	2	1	C	2	0	1011	0	poli_8sides 6_whiteLine3.jpg	Short_b20_cut1_stereo_44KHz.wav
1	38	3	4	2	I	2	0	1163	1	poli_8sides 7_whiteLine3.jpg	Short_b22_cut1_stereo_44KHz.wav
1	39	1	1	1	C	2	0	1484	0	poli_8sides 16_whiteLine3.jpg	Short_b09_cut1_stereo_44KHz.wav
1	40	4	3	2	I	1	0	844	0	poli_8sides 11_whiteLine3.jpg	Short_b23_cut1_stereo_44KHz.wav
1	41	1	2	0	C	2	1	1531	1	poli_8sides 16_whiteLine3.jpg	Short_b20_cut1_stereo_44KHz.wav
1	42	4	4	2	I	2	0	959	1	poli_8sides 11_whiteLine3.jpg	Short_b22_cut1_stereo_44KHz.wav
1	43	2	2	1	C	2	0	1335	0	poli_8sides 6_whiteLine3.jpg	Short_b20_cut1_stereo_44KHz.wav
1	44	3	3	2	I	2	0	1034	1	poli_8sides 7_whiteLine3.jpg	Short_b23_cut1_stereo_44KHz.wav
1	45	1	1	1	C	2	0	1790	0	poli_8sides 16_whiteLine3.jpg	Short_b09_cut1_stereo_44KHz.wav
1	46	4	3	2	I	1	0	1363	0	poli_8sides 11_whiteLine3.jpg	Short_b23_cut1_stereo_44KHz.wav
1	47	3	4	2	I	2	0	1301	0	poli_8sides 7_whiteLine3.jpg	Short_b22_cut1_stereo_44KHz.wav
1	48	2	1	0	C	1	0	909	0	poli_8sides 6_whiteLine3.jpg	Short_b09_cut1_stereo_44KHz.wav
1	49	3	3	2	I	1	0	1077	1	poli_8sides 7_whiteLine3.jpg	Short_b23_cut1_stereo_44KHz.wav
1	50	1	2	0	C	1	0	1104	0	poli_8sides 16_whiteLine3.jpg	Short_b20_cut1_stereo_44KHz.wav
1	51	2	1	0	C	2	1	1010	1	poli_8sides 6_whiteLine3.jpg	Short_b09_cut1_stereo_44KHz.wav
1	52	4	4	2	I	2	0	1000	1	poli_8sides 11_whiteLine3.jpg	Short_b22_cut1_stereo_44KHz.wav
1	53	2	2	1	C	0	0	0	0	poli_8sides 6_whiteLine3.jpg	Short_b20_cut1_stereo_44KHz.wav
1	54	4	3	2	I	2	0	1124	1	poli_8sides 11_whiteLine3.jpg	Short_b23_cut1_stereo_44KHz.wav
1	55	3	4	2	I	2	0	996	0	poli_8sides 7_whiteLine3.jpg	Short_b22_cut1_stereo_44KHz.wav
1	56	1	1	1	C	2	0	1331	0	poli_8sides 16_whiteLine3.jpg	Short_b09_cut1_stereo_44KHz.wav
1	57	2	2	1	C	1	1	828	1	poli_8sides 6_whiteLine3.jpg	Short_b20_cut1_stereo_44KHz.wav
1	58	3	4	2	I	2	0	716	1	poli_8sides 7_whiteLine3.jpg	Short_b22_cut1_stereo_44KHz.wav
1	59	1	1	1	C	2	0	1287	0	poli_8sides 16_whiteLine3.jpg	Short_b09_cut1_stereo_44KHz.wav
1	60	4	4	2	I	1	0	764	1	poli_8sides 11_whiteLine3.jpg	Short_b22_cut1_stereo_44KHz.wav
1	61	2	1	0	C	1	0	1067	0	poli_8sides 6_whiteLine3.jpg	Short_b09_cut1_stereo_44KHz.wav
1	62	3	3	2	I	2	0	1079	1	poli_8sides 7_whiteLine3.jpg	Short_b23_cut1_stereo_44KHz.wav
1	63	4	3	2	I	1	0	689	1	poli_8sides 11_whiteLine3.jpg	Short_b23_cut1_stereo_44KHz.wav
1	64	1	2	0	C	2	1	1055	1	poli_8sides 16_whiteLine3.jpg	Short_b20_cut1_stereo_44KHz.wav
1	65	3	3	2	I	2	0	1763	0	poli_8sides 7_whiteLine3.jpg	Short_b23_cut1_stereo_44KHz.wav
1	66	2	1	0	C	2	1	1144	1	poli_8sides 6_whiteLine3.jpg	Short_b09_cut1_stereo_44KHz.wav
1	67	1	1	1	C	1	1	739	1	poli_8sides 16_whiteLine3.jpg	Short_b09_cut1_stereo_44KHz.wav
1	68	4	3	2	I	1	0	1148	1	poli_8sides 11_whiteLine3.jpg	Short_b23_cut1_stereo_44KHz.wav
1	69	3	4	2	I	2	0	838	0	poli_8sides 7_whiteLine3.jpg	Short_b22_cut1_stereo_44KHz.wav
1	70	4	4	2	I	2	0	776	0	poli_8sides 11_whiteLine3.jpg	Short_b22_cut1_stereo_44KHz.wav
1	71	2	2	1	C	2	0	1576	0	poli_8sides 6_whiteLine3.jpg	Short_b20_cut1_stereo_44KHz.wav
1	72	1	2	0	C	2	1	1165	1	poli_8sides 16_whiteLine3.jpg	Short_b20_cut1_stereo_44KHz.wav
1	73	3	3	2	I	2	0	1126	0	poli_8sides 7_whiteLine3.jpg	Short_b23_cut1_stereo_44KHz.wav
1	74	2	1	0	C	2	1	788	1	poli_8sides 6_whiteLine3.jpg	Short_b09_cut1_stereo_44KHz.wav
1	75	4	3	2	I	2	0	1108	0	poli_8sides 11_whiteLine3.jpg	Short_b23_cut1_stereo_44KHz.wav
1	76	1	1	1	C	1	1	1406	1	poli_8sides 16_whiteLine3.jpg	Short_b09_cut1_stereo_44KHz.wav
1	77	3	4	2	I	2	0	854	1	poli_8sides 7_whiteLine3.jpg	Short_b22_cut1_stereo_44KHz.wav
1	78	1	2	0	C	2	1	1079	1	poli_8sides 16_whiteLine3.jpg	Short_b20_cut1_stereo_44KHz.wav
1	79	4	4	2	I	2	0	892	0	poli_8sides 11_whiteLine3.jpg	Short_b22_cut1_stereo_44KHz.wav
1	80	2	2	1	C	2	0	1431	0	poli_8sides 6_whiteLine3.jpg	Short_b20_cut1_stereo_44KHz.wav
1	81	4	4	2	I	1	0	670	1	poli_8sides 11_whiteLine3.jpg	Short_b22_cut1_stereo_44KHz.wav
1	82	3	4	2	I	2	0	950	0	poli_8sides 7_whiteLine3.jpg	Short_b22_cut1_stereo_44KHz.wav
1	83	2	1	0	C	2	1	901	1	poli_8sides 6_whiteLine3.jpg	Short_b09_cut1_stereo_44KHz.wav
1	84	1	2	0	C	2	1	1225	1	poli_8sides 16_whiteLine3.jpg	Short_b20_cut1_stereo_44KHz.wav
1	85	2	2	1	C	1	1	774	1	poli_8sides 6_whiteLine3.jpg	Short_b20_cut1_stereo_44KHz.wav
1	86	1	1	1	C	2	0	966	0	poli_8sides 16_whiteLine3.jpg	Short_b09_cut1_stereo_44KHz.wav
1	87	3	3	2	I	2	0	848	0	poli_8sides 7_whiteLine3.jpg	Short_b23_cut1_stereo_44KHz.wav
1	88	4	3	2	I	2	0	966	0	poli_8sides 11_whiteLine3.jpg	Short_b23_cut1_stereo_44KHz.wav
1	89	1	2	0	C	1	0	980	0	poli_8sides 16_whiteLine3.jpg	Short_b20_cut1_stereo_44KHz.wav
1	90	4	4	2	I	2	0	1696	1	poli_8sides 11_whiteLine3.jpg	Short_b22_cut1_stereo_44KHz.wav
1	91	2	1	0	C	2	1	1037	1	poli_8sides 6_whiteLine3.jpg	Short_b09_cut1_stereo_44KHz.wav
1	92	3	4	2	I	2	0	816	0	poli_8sides 7_whiteLine3.jpg	Short_b22_cut1_stereo_44KHz.wav
1	93	2	2	1	C	2	0	1515	0	poli_8sides 6_whiteLine3.jpg	Short_b20_cut1_stereo_44KHz.wav
1	94	3	3	2	I	2	0	927	1	poli_8sides 7_whiteLine3.jpg	Short_b23_cut1_stereo_44KHz.wav
1	95	1	1	1	C	2	0	1294	0	poli_8sides 16_whiteLine3.jpg	Short_b09_cut1_stereo_44KHz.wav
1	96	4	3	2	I	1	0	663	1	poli_8sides 11_whiteLine3.jpg	Short_b23_cut1_stereo_44KHz.wav
1	97	2	1	0	C	2	1	959	1	poli_8sides 6_whiteLine3.jpg	Short_b09_cut1_stereo_44KHz.wav
1	98	1	2	0	C	1	0	1189	0	poli_8sides 16_whiteLine3.jpg	Short_b20_cut1_stereo_44KHz.wav
1	99	3	3	2	I	2	0	661	1	poli_8sides 7_whiteLine3.jpg	Short_b23_cut1_stereo_44KHz.wav
1	100	4	3	2	I	1	0	861	1	poli_8sides 11_whiteLine3.jpg	Short_b23_cut1_stereo_44KHz.wav
1	101	1	1	1	C	2	0	1048	0	poli_8sides 16_whiteLine3.jpg	Short_b09_cut1_stereo_44KHz.wav
1	102	3	4	2	I	2	0	845	1	poli_8sides 7_whiteLine3.jpg	Short_b22_cut1_stereo_44KHz.wav
1	103	2	2	1	C	2	0	1275	0	poli_8sides 6_whiteLine3.jpg	Short_b20_cut1_stereo_44KHz.wav
1	104	4	4	2	I	1	0	758	0	poli_8sides 11_whiteLine3.jpg	Short_b22_cut1_stereo_44KHz.wav
1	105	3	4	2	I	2	0	867	0	poli_8sides 7_whiteLine3.jpg	Short_b22_cut1_stereo_44KHz.wav
1	106	4	4	2	I	2	0	951	0	poli_8sides 11_whiteLine3.jpg	Short_b22_cut1_stereo_44KHz.wav
1	107	2	2	1	C	2	0	1284	0	poli_8sides 6_whiteLine3.jpg	Short_b20_cut1_stereo_44KHz.wav
1	108	1	1	1	C	2	0	1036	0	poli_8sides 16_whiteLine3.jpg	Short_b09_cut1_stereo_44KHz.wav
1	109	2	1	0	C	2	1	684	1	poli_8sides 6_whiteLine3.jpg	Short_b09_cut1_stereo_44KHz.wav
1	110	3	3	2	I	1	0	849	0	poli_8sides 7_whiteLine3.jpg	Short_b23_cut1_stereo_44KHz.wav
1	111	4	3	2	I	2	0	821	0	poli_8sides 11_whiteLine3.jpg	Short_b23_cut1_stereo_44KHz.wav
1	112	1	2	0	C	2	1	1084	1	poli_8sides 16_whiteLine3.jpg	Short_b20_cut1_stereo_44KHz.wav
1	113	2	2	1	C	1	1	888	1	poli_8sides 6_whiteLine3.jpg	Short_b20_cut1_stereo_44KHz.wav
1	114	3	3	2	I	2	0	988	0	poli_8sides 7_whiteLine3.jpg	Short_b23_cut1_stereo_44KHz.wav
1	115	1	2	0	C	2	1	908	1	poli_8sides 16_whiteLine3.jpg	Short_b20_cut1_stereo_44KHz.wav
1	116	4	3	2	I	2	0	1329	0	poli_8sides 11_whiteLine3.jpg	Short_b23_cut1_stereo_44KHz.wav
1	117	2	1	0	C	2	1	1142	1	poli_8sides 6_whiteLine3.jpg	Short_b09_cut1_stereo_44KHz.wav
1	118	3	4	2	I	2	0	1174	1	poli_8sides 7_whiteLine3.jpg	Short_b22_cut1_stereo_44KHz.wav
1	119	1	1	1	C	2	0	1271	0	poli_8sides 16_whiteLine3.jpg	Short_b09_cut1_stereo_44KHz.wav
1	120	4	4	2	I	1	0	848	0	poli_8sides 11_whiteLine3.jpg	Short_b22_cut1_stereo_44KHz.wav
1	121	2	1	0	C	2	1	607	1	poli_8sides 6_whiteLine3.jpg	Short_b09_cut1_stereo_44KHz.wav
1	122	4	3	2	I	2	0	863	0	poli_8sides 11_whiteLine3.jpg	Short_b23_cut1_stereo_44KHz.wav
1	123	3	4	2	I	2	0	919	1	poli_8sides 7_whiteLine3.jpg	Short_b22_cut1_stereo_44KHz.wav
1	124	1	1	1	C	2	0	1198	0	poli_8sides 16_whiteLine3.jpg	Short_b09_cut1_stereo_44KHz.wav
1	125	2	2	1	C	1	1	790	1	poli_8sides 6_whiteLine3.jpg	Short_b20_cut1_stereo_44KHz.wav
1	126	1	2	0	C	1	0	847	0	poli_8sides 16_whiteLine3.jpg	Short_b20_cut1_stereo_44KHz.wav
1	127	3	3	2	I	2	0	770	0	poli_8sides 7_whiteLine3.jpg	Short_b23_cut1_stereo_44KHz.wav
1	128	4	4	2	I	2	0	878	1	poli_8sides 11_whiteLine3.jpg	Short_b22_cut1_stereo_44KHz.wav
1	129	1	1	1	C	2	0	1289	0	poli_8sides 16_whiteLine3.jpg	Short_b09_cut1_stereo_44KHz.wav
1	130	3	4	2	I	2	0	1300	1	poli_8sides 7_whiteLine3.jpg	Short_b22_cut1_stereo_44KHz.wav
1	131	4	4	2	I	1	0	843	1	poli_8sides 11_whiteLine3.jpg	Short_b22_cut1_stereo_44KHz.wav
1	132	2	2	1	C	2	0	699	0	poli_8sides 6_whiteLine3.jpg	Short_b20_cut1_stereo_44KHz.wav
1	133	3	3	2	I	2	0	1005	0	poli_8sides 7_whiteLine3.jpg	Short_b23_cut1_stereo_44KHz.wav
1	134	2	1	0	C	2	1	989	1	poli_8sides 6_whiteLine3.jpg	Short_b09_cut1_stereo_44KHz.wav
1	135	1	2	0	C	1	0	961	0	poli_8sides 16_whiteLine3.jpg	Short_b20_cut1_stereo_44KHz.wav
1	136	4	3	2	I	2	0	826	0	poli_8sides 11_whiteLine3.jpg	Short_b23_cut1_stereo_44KHz.wav
1	137	2	1	0	C	1	0	597	0	poli_8sides 6_whiteLine3.jpg	Short_b09_cut1_stereo_44KHz.wav
1	138	1	2	0	C	2	1	672	1	poli_8sides 16_whiteLine3.jpg	Short_b20_cut1_stereo_44KHz.wav
1	139	4	4	2	I	2	0	1042	1	poli_8sides 11_whiteLine3.jpg	Short_b22_cut1_stereo_44KHz.wav
1	140	3	4	2	I	1	0	749	1	poli_8sides 7_whiteLine3.jpg	Short_b22_cut1_stereo_44KHz.wav
1	141	4	3	2	I	1	0	693	0	poli_8sides 11_whiteLine3.jpg	Short_b23_cut1_stereo_44KHz.wav
1	142	3	3	2	I	2	0	627	0	poli_8sides 7_whiteLine3.jpg	Short_b23_cut1_stereo_44KHz.wav
1	143	2	2	1	C	2	0	879	0	poli_8sides 6_whiteLine3.jpg	Short_b20_cut1_stereo_44KHz.wav
1	144	1	1	1	C	1	1	678	1	poli_8sides 16_whiteLine3.jpg	Short_b09_cut1_stereo_44KHz.wav
1	145	2	1	0	C	2	1	1043	1	poli_8sides 6_whiteLine3.jpg	Short_b09_cut1_stereo_44KHz.wav
1	146	3	4	2	I	1	0	1062	1	poli_8sides 7_whiteLine3.jpg	Short_b22_cut1_stereo_44KHz.wav
1	147	1	1	1	C	2	0	1187	0	poli_8sides 16_whiteLine3.jpg	Short_b09_cut1_stereo_44KHz.wav
1	148	4	3	2	I	2	0	1168	0	poli_8sides 11_whiteLine3.jpg	Short_b23_cut1_stereo_44KHz.wav
1	149	3	3	2	I	2	0	857	1	poli_8sides 7_whiteLine3.jpg	Short_b23_cut1_stereo_44KHz.wav
1	150	2	2	1	C	2	0	1008	0	poli_8sides 6_whiteLine3.jpg	Short_b20_cut1_stereo_44KHz.wav
1	151	4	4	2	I	2	0	994	1	poli_8sides 11_whiteLine3.jpg	Short_b22_cut1_stereo_44KHz.wav
1	152	1	2	0	C	2	1	1148	1	poli_8sides 16_whiteLine3.jpg	Short_b20_cut1_stereo_44KHz.wav
1	153	2	1	0	C	2	1	1226	1	poli_8sides 6_whiteLine3.jpg	Short_b09_cut1_stereo_44KHz.wav
1	154	4	4	2	I	2	0	1203	1	poli_8sides 11_whiteLine3.jpg	Short_b22_cut1_stereo_44KHz.wav
1	155	3	4	2	I	1	0	757	0	poli_8sides 7_whiteLine3.jpg	Short_b22_cut1_stereo_44KHz.wav
1	156	1	2	0	C	2	1	1148	1	poli_8sides 16_whiteLine3.jpg	Short_b20_cut1_stereo_44KHz.wav
1	157	3	3	2	I	2	0	1179	0	poli_8sides 7_whiteLine3.jpg	Short_b23_cut1_stereo_44KHz.wav
1	158	2	2	1	C	2	0	1029	0	poli_8sides 6_whiteLine3.jpg	Short_b20_cut1_stereo_44KHz.wav
1	159	4	3	2	I	2	0	1264	1	poli_8sides 11_whiteLine3.jpg	Short_b23_cut1_stereo_44KHz.wav
1	160	1	1	1	C	2	0	1088	0	poli_8sides 16_whiteLine3.jpg	Short_b09_cut1_stereo_44KHz.wav
1	161	3	3	2	I	1	0	691	1	poli_8sides 7_whiteLine3.jpg	Short_b23_cut1_stereo_44KHz.wav
1	162	1	2	0	C	2	1	1346	1	poli_8sides 16_whiteLine3.jpg	Short_b20_cut1_stereo_44KHz.wav
1	163	2	1	0	C	2	1	1055	1	poli_8sides 6_whiteLine3.jpg	Short_b09_cut1_stereo_44KHz.wav
1	164	4	4	2	I	2	0	1228	1	poli_8sides 11_whiteLine3.jpg	Short_b22_cut1_stereo_44KHz.wav
1	165	1	1	1	C	0	0	0	0	poli_8sides 16_whiteLine3.jpg	Short_b09_cut1_stereo_44KHz.wav
1	166	2	2	1	C	1	1	1168	1	poli_8sides 6_whiteLine3.jpg	Short_b20_cut1_stereo_44KHz.wav
1	167	4	3	2	I	2	0	710	1	poli_8sides 11_whiteLine3.jpg	Short_b23_cut1_stereo_44KHz.wav
1	168	3	4	2	I	2	0	703	1	poli_8sides 7_whiteLine3.jpg	Short_b22_cut1_stereo_44KHz.wav
1	169	1	2	0	C	2	1	870	1	poli_8sides 16_whiteLine3.jpg	Short_b20_cut1_stereo_44KHz.wav
1	170	2	2	1	C	1	1	612	1	poli_8sides 6_whiteLine3.jpg	Short_b20_cut1_stereo_44KHz.wav
1	171	3	3	2	I	2	0	1361	0	poli_8sides 7_whiteLine3.jpg	Short_b23_cut1_stereo_44KHz.wav
1	172	4	4	2	I	2	0	859	1	poli_8sides 11_whiteLine3.jpg	Short_b22_cut1_stereo_44KHz.wav
1	173	3	4	2	I	1	0	791	0	poli_8sides 7_whiteLine3.jpg	Short_b22_cut1_stereo_44KHz.wav
1	174	2	1	0	C	2	1	837	1	poli_8sides 6_whiteLine3.jpg	Short_b09_cut1_stereo_44KHz.wav
1	175	4	3	2	I	1	0	886	0	poli_8sides 11_whiteLine3.jpg	Short_b23_cut1_stereo_44KHz.wav
1	176	1	1	1	C	1	1	936	1	poli_8sides 16_whiteLine3.jpg	Short_b09_cut1_stereo_44KHz.wav
1	177	4	4	2	I	2	0	812	0	poli_8sides 11_whiteLine3.jpg	Short_b22_cut1_stereo_44KHz.wav
1	178	1	2	0	C	2	1	1128	1	poli_8sides 16_whiteLine3.jpg	Short_b20_cut1_stereo_44KHz.wav
1	179	2	2	1	C	1	1	855	1	poli_8sides 6_whiteLine3.jpg	Short_b20_cut1_stereo_44KHz.wav
1	180	3	4	2	I	1	0	1094	0	poli_8sides 7_whiteLine3.jpg	Short_b22_cut1_stereo_44KHz.wav
1	181	4	3	2	I	2	0	547	1	poli_8sides 11_whiteLine3.jpg	Short_b23_cut1_stereo_44KHz.wav
1	182	3	3	2	I	1	0	610	1	poli_8sides 7_whiteLine3.jpg	Short_b23_cut1_stereo_44KHz.wav
1	183	1	1	1	C	2	0	1131	0	poli_8sides 16_whiteLine3.jpg	Short_b09_cut1_stereo_44KHz.wav
1	184	2	1	0	C	2	1	976	1	poli_8sides 6_whiteLine3.jpg	Short_b09_cut1_stereo_44KHz.wav
1	185	4	3	2	I	2	0	1150	1	poli_8sides 11_whiteLine3.jpg	Short_b23_cut1_stereo_44KHz.wav
1	186	3	4	2	I	2	0	699	0	poli_8sides 7_whiteLine3.jpg	Short_b22_cut1_stereo_44KHz.wav
1	187	1	1	1	C	1	1	863	1	poli_8sides 16_whiteLine3.jpg	Short_b09_cut1_stereo_44KHz.wav
1	188	2	2	1	C	1	1	1090	1	poli_8sides 6_whiteLine3.jpg	Short_b20_cut1_stereo_44KHz.wav
1	189	1	2	0	C	2	1	594	1	poli_8sides 16_whiteLine3.jpg	Short_b20_cut1_stereo_44KHz.wav
1	190	4	4	2	I	2	0	1006	0	poli_8sides 11_whiteLine3.jpg	Short_b22_cut1_stereo_44KHz.wav
1	191	3	3	2	I	1	0	977	1	poli_8sides 7_whiteLine3.jpg	Short_b23_cut1_stereo_44KHz.wav
1	192	2	1	0	C	2	1	1131	1	poli_8sides 6_whiteLine3.jpg	Short_b09_cut1_stereo_44KHz.wav
1	193	1	2	0	C	2	1	985	1	poli_8sides 16_whiteLine3.jpg	Short_b20_cut1_stereo_44KHz.wav
1	194	2	1	0	C	2	1	1216	1	poli_8sides 6_whiteLine3.jpg	Short_b09_cut1_stereo_44KHz.wav
1	195	4	4	2	I	2	0	1024	0	poli_8sides 11_whiteLine3.jpg	Short_b22_cut1_stereo_44KHz.wav
1	196	3	3	2	I	2	0	936	1	poli_8sides 7_whiteLine3.jpg	Short_b23_cut1_stereo_44KHz.wav
1	197	4	3	2	I	2	0	572	1	poli_8sides 11_whiteLine3.jpg	Short_b23_cut1_stereo_44KHz.wav
1	198	1	1	1	C	1	1	599	1	poli_8sides 16_whiteLine3.jpg	Short_b09_cut1_stereo_44KHz.wav
1	199	2	2	1	C	2	0	1090	0	poli_8sides 6_whiteLine3.jpg	Short_b20_cut1_stereo_44KHz.wav
1	200	3	4	2	I	1	0	1229	0	poli_8sides 7_whiteLine3.jpg	Short_b22_cut1_stereo_44KHz.wav
2	1	2	1	0	C	0	0	0	0	poli_8sides 3_whiteLine3.jpg	MediumShort_e16_cut1_stereo_44KHz.wav
2	2	1	2	0	C	1	0	779	0	poli_8sides 9_whiteLine3.jpg	MediumShort_e22_cut1_stereo_44KHz.wav
2	3	3	4	2	I	2	0	649	0	poli_8sides 2_whiteLine3.jpg	MediumShort_b10_cut1_MS_stereo_44KHz.wav
2	4	4	3	2	I	1	0	648	1	poli_8sides 15_whiteLine3.jpg	MediumShort_b16_cut3_MS_stereo_44KHz.wav
2	5	1	1	1	C	2	0	797	0	poli_8sides 9_whiteLine3.jpg	MediumShort_e16_cut1_stereo_44KHz.wav
2	6	4	4	2	I	2	0	671	0	poli_8sides 15_whiteLine3.jpg	MediumShort_b10_cut1_MS_stereo_44KHz.wav
2	7	2	2	1	C	1	1	821	1	poli_8sides 3_whiteLine3.jpg	MediumShort_e22_cut1_stereo_44KHz.wav
2	8	3	3	2	I	2	0	917	0	poli_8sides 2_whiteLine3.jpg	MediumShort_b16_cut3_MS_stereo_44KHz.wav
2	9	4	3	2	I	1	0	819	0	poli_8sides 15_whiteLine3.jpg	MediumShort_b16_cut3_MS_stereo_44KHz.wav
2	10	2	1	0	C	2	1	832	1	poli_8sides 3_whiteLine3.jpg	MediumShort_e16_cut1_stereo_44KHz.wav
2	11	1	1	1	C	1	1	645	1	poli_8sides 9_whiteLine3.jpg	MediumShort_e16_cut1_stereo_44KHz.wav
2	12	3	3	2	I	1	0	1275	1	poli_8sides 2_whiteLine3.jpg	MediumShort_b16_cut3_MS_stereo_44KHz.wav
2	13	4	4	2	I	1	0	880	1	poli_8sides 15_whiteLine3.jpg	MediumShort_b10_cut1_MS_stereo_44KHz.wav
2	14	2	2	1	C	2	0	749	0	poli_8sides 3_whiteLine3.jpg	MediumShort_e22_cut1_stereo_44KHz.wav
2	15	3	4	2	I	2	0	1753	1	poli_8sides 2_whiteLine3.jpg	MediumShort_b10_cut1_MS_stereo_44KHz.wav
2	16	1	2	0	C	1	0	753	0	poli_8sides 9_whiteLine3.jpg	MediumShort_e22_cut1_stereo_44KHz.wav
2	17	2	1	0	C	2	1	838	1	poli_8sides 3_whiteLine3.jpg	MediumShort_e16_cut1_stereo_44KHz.wav
2	18	4	4	2	I	2	0	1315	1	poli_8sides 15_whiteLine3.jpg	MediumShort_b10_cut1_MS_stereo_44KHz.wav
2	19	3	3	2	I	2	0	1079	0	poli_8sides 2_whiteLine3.jpg	MediumShort_b16_cut3_MS_stereo_44KHz.wav
2	20	1	2	0	C	1	0	959	0	poli_8sides 9_whiteLine3.jpg	MediumShort_e22_cut1_stereo_44KHz.wav
2	21	2	2	1	C	1	1	911	1	poli_8sides 3_whiteLine3.jpg	MediumShort_e22_cut1_stereo_44KHz.wav
2	22	1	1	1	C	2	0	655	0	poli_8sides 9_whiteLine3.jpg	MediumShort_e16_cut1_stereo_44KHz.wav
2	23	3	4	2	I	2	0	1063	1	poli_8sides 2_whiteLine3.jpg	MediumShort_b10_cut1_MS_stereo_44KHz.wav
2	24	4	3	2	I	2	0	943	0	poli_8sides 15_whiteLine3.jpg	MediumShort_b16_cut3_MS_stereo_44KHz.wav
2	25	2	2	1	C	2	0	1037	0	poli_8sides 3_whiteLine3.jpg	MediumShort_e22_cut1_stereo_44KHz.wav
2	26	4	4	2	I	2	0	615	1	poli_8sides 15_whiteLine3.jpg	MediumShort_b10_cut1_MS_stereo_44KHz.wav
2	27	1	1	1	C	2	0	1039	0	poli_8sides 9_whiteLine3.jpg	MediumShort_e16_cut1_stereo_44KHz.wav
2	28	3	3	2	I	2	0	1241	1	poli_8sides 2_whiteLine3.jpg	MediumShort_b16_cut3_MS_stereo_44KHz.wav
2	29	4	3	2	I	2	0	884	0	poli_8sides 15_whiteLine3.jpg	MediumShort_b16_cut3_MS_stereo_44KHz.wav
2	30	1	2	0	C	2	1	1300	1	poli_8sides 9_whiteLine3.jpg	MediumShort_e22_cut1_stereo_44KHz.wav
2	31	3	4	2	I	2	0	830	1	poli_8sides 2_whiteLine3.jpg	MediumShort_b10_cut1_MS_stereo_44KHz.wav
2	32	2	1	0	C	2	1	677	1	poli_8sides 3_whiteLine3.jpg	MediumShort_e16_cut1_stereo_44KHz.wav
2	33	1	1	1	C	1	1	781	1	poli_8sides 9_whiteLine3.jpg	MediumShort_e16_cut1_stereo_44KHz.wav
2	34	4	4	2	I	2	0	754	1	poli_8sides 15_whiteLine3.jpg	MediumShort_b10_cut1_MS_stereo_44KHz.wav
2	35	3	4	2	I	1	0	730	0	poli_8sides 2_whiteLine3.jpg	MediumShort_b10_cut1_MS_stereo_44KHz.wav
2	36	2	1	0	C	2	1	906	1	poli_8sides 3_whiteLine3.jpg	MediumShort_e16_cut1_stereo_44KHz.wav
2	37	1	2	0	C	2	1	1627	1	poli_8sides 9_whiteLine3.jpg	MediumShort_e22_cut1_stereo_44KHz.wav
2	38	4	3	2	I	2	0	1121	1	poli_8sides 15_whiteLine3.jpg	MediumShort_b16_cut3_MS_stereo_44KHz.wav
2	39	2	2	1	C	2	0	1484	0	poli_8sides 3_whiteLine3.jpg	MediumShort_e22_cut1_stereo_44KHz.wav
2	40	3	3	2	I	1	0	1080	1	poli_8sides 2_whiteLine3.jpg	MediumShort_b16_cut3_MS_stereo_44KHz.wav
2	41	2	1	0	C	2	1	676	1	poli_8sides 3_whiteLine3.jpg	MediumShort_e16_cut1_stereo_44KHz.wav
2	42	1	2	0	C	2	1	952	1	poli_8sides 9_whiteLine3.jpg	MediumShort_e22_cut1_stereo_44KHz.wav
2	43	4	3	2	I	2	0	1053	0	poli_8sides 15_whiteLine3.jpg	MediumShort_b16_cut3_MS_stereo_44KHz.wav
2	44	3	3	2	I	2	0	845	1	poli_8sides 2_whiteLine3.jpg	MediumShort_b16_cut3_MS_stereo_44KHz.wav
2	45	4	4	2	I	2	0	950	1	poli_8sides 15_whiteLine3.jpg	MediumShort_b10_cut1_MS_stereo_44KHz.wav
2	46	3	4	2	I	1	0	652	0	poli_8sides 2_whiteLine3.jpg	MediumShort_b10_cut1_MS_stereo_44KHz.wav
2	47	1	1	1	C	2	0	1022	0	poli_8sides 9_whiteLine3.jpg	MediumShort_e16_cut1_stereo_44KHz.wav
2	48	2	2	1	C	1	1	1139	1	poli_8sides 3_whiteLine3.jpg	MediumShort_e22_cut1_stereo_44KHz.wav
2	49	4	4	2	I	2	0	633	0	poli_8sides 15_whiteLine3.jpg	MediumShort_b10_cut1_MS_stereo_44KHz.wav
2	50	2	2	1	C	1	1	957	1	poli_8sides 3_whiteLine3.jpg	MediumShort_e22_cut1_stereo_44KHz.wav
2	51	3	3	2	I	2	0	870	0	poli_8sides 2_whiteLine3.jpg	MediumShort_b16_cut3_MS_stereo_44KHz.wav
2	52	1	2	0	C	1	0	843	0	poli_8sides 9_whiteLine3.jpg	MediumShort_e22_cut1_stereo_44KHz.wav
2	53	3	4	2	I	2	0	881	0	poli_8sides 2_whiteLine3.jpg	MediumShort_b10_cut1_MS_stereo_44KHz.wav
2	54	4	3	2	I	1	0	873	1	poli_8sides 15_whiteLine3.jpg	MediumShort_b16_cut3_MS_stereo_44KHz.wav
2	55	1	1	1	C	2	0	992	0	poli_8sides 9_whiteLine3.jpg	MediumShort_e16_cut1_stereo_44KHz.wav
2	56	2	1	0	C	2	1	653	1	poli_8sides 3_whiteLine3.jpg	MediumShort_e16_cut1_stereo_44KHz.wav
2	57	1	1	1	C	1	1	787	1	poli_8sides 9_whiteLine3.jpg	MediumShort_e16_cut1_stereo_44KHz.wav
2	58	2	2	1	C	1	1	882	1	poli_8sides 3_whiteLine3.jpg	MediumShort_e22_cut1_stereo_44KHz.wav
2	59	4	3	2	I	2	0	1515	1	poli_8sides 15_whiteLine3.jpg	MediumShort_b16_cut3_MS_stereo_44KHz.wav
2	60	3	4	2	I	2	0	1041	0	poli_8sides 2_whiteLine3.jpg	MediumShort_b10_cut1_MS_stereo_44KHz.wav
2	61	1	2	0	C	2	1	1383	1	poli_8sides 9_whiteLine3.jpg	MediumShort_e22_cut1_stereo_44KHz.wav
2	62	3	3	2	I	2	0	1003	0	poli_8sides 2_whiteLine3.jpg	MediumShort_b16_cut3_MS_stereo_44KHz.wav
2	63	2	1	0	C	2	1	1073	1	poli_8sides 3_whiteLine3.jpg	MediumShort_e16_cut1_stereo_44KHz.wav
2	64	4	4	2	I	2	0	958	0	poli_8sides 15_whiteLine3.jpg	MediumShort_b10_cut1_MS_stereo_44KHz.wav
2	65	2	2	1	C	2	0	1321	0	poli_8sides 3_whiteLine3.jpg	MediumShort_e22_cut1_stereo_44KHz.wav
2	66	3	3	2	I	2	0	1061	0	poli_8sides 2_whiteLine3.jpg	MediumShort_b16_cut3_MS_stereo_44KHz.wav
2	67	4	4	2	I	1	0	923	1	poli_8sides 15_whiteLine3.jpg	MediumShort_b10_cut1_MS_stereo_44KHz.wav
2	68	1	2	0	C	2	1	1008	1	poli_8sides 9_whiteLine3.jpg	MediumShort_e22_cut1_stereo_44KHz.wav
2	69	3	4	2	I	1	0	1031	1	poli_8sides 2_whiteLine3.jpg	MediumShort_b10_cut1_MS_stereo_44KHz.wav
2	70	4	3	2	I	1	0	959	0	poli_8sides 15_whiteLine3.jpg	MediumShort_b16_cut3_MS_stereo_44KHz.wav
2	71	2	1	0	C	2	1	778	1	poli_8sides 3_whiteLine3.jpg	MediumShort_e16_cut1_stereo_44KHz.wav
2	72	1	1	1	C	1	1	799	1	poli_8sides 9_whiteLine3.jpg	MediumShort_e16_cut1_stereo_44KHz.wav
2	73	3	4	2	I	2	0	1563	0	poli_8sides 2_whiteLine3.jpg	MediumShort_b10_cut1_MS_stereo_44KHz.wav
2	74	1	2	0	C	2	1	1248	1	poli_8sides 9_whiteLine3.jpg	MediumShort_e22_cut1_stereo_44KHz.wav
2	75	4	3	2	I	1	0	1289	0	poli_8sides 15_whiteLine3.jpg	MediumShort_b16_cut3_MS_stereo_44KHz.wav
2	76	2	1	0	C	2	1	904	1	poli_8sides 3_whiteLine3.jpg	MediumShort_e16_cut1_stereo_44KHz.wav
2	77	4	4	2	I	2	0	1199	0	poli_8sides 15_whiteLine3.jpg	MediumShort_b10_cut1_MS_stereo_44KHz.wav
2	78	3	3	2	I	1	0	936	1	poli_8sides 2_whiteLine3.jpg	MediumShort_b16_cut3_MS_stereo_44KHz.wav
2	79	2	2	1	C	1	1	1181	1	poli_8sides 3_whiteLine3.jpg	MediumShort_e22_cut1_stereo_44KHz.wav
2	80	1	1	1	C	1	1	681	1	poli_8sides 9_whiteLine3.jpg	MediumShort_e16_cut1_stereo_44KHz.wav
2	81	2	1	0	C	2	1	767	1	poli_8sides 3_whiteLine3.jpg	MediumShort_e16_cut1_stereo_44KHz.wav
2	82	3	3	2	I	2	0	1392	1	poli_8sides 2_whiteLine3.jpg	MediumShort_b16_cut3_MS_stereo_44KHz.wav
2	83	4	3	2	I	1	0	679	0	poli_8sides 15_whiteLine3.jpg	MediumShort_b16_cut3_MS_stereo_44KHz.wav
2	84	1	2	0	C	2	1	1109	1	poli_8sides 9_whiteLine3.jpg	MediumShort_e22_cut1_stereo_44KHz.wav
2	85	4	4	2	I	1	0	1270	1	poli_8sides 15_whiteLine3.jpg	MediumShort_b10_cut1_MS_stereo_44KHz.wav
2	86	3	4	2	I	1	0	711	0	poli_8sides 2_whiteLine3.jpg	MediumShort_b10_cut1_MS_stereo_44KHz.wav
2	87	1	1	1	C	2	0	1014	0	poli_8sides 9_whiteLine3.jpg	MediumShort_e16_cut1_stereo_44KHz.wav
2	88	2	2	1	C	1	1	614	1	poli_8sides 3_whiteLine3.jpg	MediumShort_e22_cut1_stereo_44KHz.wav
2	89	1	2	0	C	2	1	918	1	poli_8sides 9_whiteLine3.jpg	MediumShort_e22_cut1_stereo_44KHz.wav
2	90	2	2	1	C	1	1	562	1	poli_8sides 3_whiteLine3.jpg	MediumShort_e22_cut1_stereo_44KHz.wav
2	91	4	4	2	I	2	0	776	0	poli_8sides 15_whiteLine3.jpg	MediumShort_b10_cut1_MS_stereo_44KHz.wav
2	92	3	4	2	I	2	0	612	1	poli_8sides 2_whiteLine3.jpg	MediumShort_b10_cut1_MS_stereo_44KHz.wav
2	93	2	1	0	C	2	1	846	1	poli_8sides 3_whiteLine3.jpg	MediumShort_e16_cut1_stereo_44KHz.wav
2	94	4	3	2	I	1	0	1251	1	poli_8sides 15_whiteLine3.jpg	MediumShort_b16_cut3_MS_stereo_44KHz.wav
2	95	3	3	2	I	2	0	778	1	poli_8sides 2_whiteLine3.jpg	MediumShort_b16_cut3_MS_stereo_44KHz.wav
2	96	1	1	1	C	2	0	1228	0	poli_8sides 9_whiteLine3.jpg	MediumShort_e16_cut1_stereo_44KHz.wav
2	97	3	3	2	I	2	0	1036	0	poli_8sides 2_whiteLine3.jpg	MediumShort_b16_cut3_MS_stereo_44KHz.wav
2	98	1	1	1	C	1	1	807	1	poli_8sides 9_whiteLine3.jpg	MediumShort_e16_cut1_stereo_44KHz.wav
2	99	4	3	2	I	1	0	1282	0	poli_8sides 15_whiteLine3.jpg	MediumShort_b16_cut3_MS_stereo_44KHz.wav
2	100	2	1	0	C	2	1	688	1	poli_8sides 3_whiteLine3.jpg	MediumShort_e16_cut1_stereo_44KHz.wav
2	101	3	4	2	I	1	0	1569	0	poli_8sides 2_whiteLine3.jpg	MediumShort_b10_cut1_MS_stereo_44KHz.wav
2	102	2	2	1	C	1	1	1288	1	poli_8sides 3_whiteLine3.jpg	MediumShort_e22_cut1_stereo_44KHz.wav
2	103	4	4	2	I	2	0	806	1	poli_8sides 15_whiteLine3.jpg	MediumShort_b10_cut1_MS_stereo_44KHz.wav
2	104	1	2	0	C	1	0	1067	0	poli_8sides 9_whiteLine3.jpg	MediumShort_e22_cut1_stereo_44KHz.wav
2	105	4	4	2	I	2	0	685	1	poli_8sides 15_whiteLine3.jpg	MediumShort_b10_cut1_MS_stereo_44KHz.wav
2	106	3	3	2	I	2	0	1291	1	poli_8sides 2_whiteLine3.jpg	MediumShort_b16_cut3_MS_stereo_44KHz.wav
2	107	1	2	0	C	2	1	871	1	poli_8sides 9_whiteLine3.jpg	MediumShort_e22_cut1_stereo_44KHz.wav
2	108	2	1	0	C	2	1	835	1	poli_8sides 3_whiteLine3.jpg	MediumShort_e16_cut1_stereo_44KHz.wav
2	109	4	3	2	I	2	0	1458	0	poli_8sides 15_whiteLine3.jpg	MediumShort_b16_cut3_MS_stereo_44KHz.wav
2	110	3	4	2	I	2	0	695	1	poli_8sides 2_whiteLine3.jpg	MediumShort_b10_cut1_MS_stereo_44KHz.wav
2	111	1	1	1	C	1	1	782	1	poli_8sides 9_whiteLine3.jpg	MediumShort_e16_cut1_stereo_44KHz.wav
2	112	2	2	1	C	1	1	1124	1	poli_8sides 3_whiteLine3.jpg	MediumShort_e22_cut1_stereo_44KHz.wav
2	113	3	3	2	I	2	0	1154	1	poli_8sides 2_whiteLine3.jpg	MediumShort_b16_cut3_MS_stereo_44KHz.wav
2	114	4	4	2	I	2	0	1019	1	poli_8sides 15_whiteLine3.jpg	MediumShort_b10_cut1_MS_stereo_44KHz.wav
2	115	2	1	0	C	2	1	1096	1	poli_8sides 3_whiteLine3.jpg	MediumShort_e16_cut1_stereo_44KHz.wav
2	116	1	1	1	C	1	1	692	1	poli_8sides 9_whiteLine3.jpg	MediumShort_e16_cut1_stereo_44KHz.wav
2	117	3	4	2	I	1	0	1239	0	poli_8sides 2_whiteLine3.jpg	MediumShort_b10_cut1_MS_stereo_44KHz.wav
2	118	4	3	2	I	1	0	852	1	poli_8sides 15_whiteLine3.jpg	MediumShort_b16_cut3_MS_stereo_44KHz.wav
2	119	1	2	0	C	2	1	981	1	poli_8sides 9_whiteLine3.jpg	MediumShort_e22_cut1_stereo_44KHz.wav
2	120	2	2	1	C	1	1	787	1	poli_8sides 3_whiteLine3.jpg	MediumShort_e22_cut1_stereo_44KHz.wav
2	121	1	1	1	C	1	1	858	1	poli_8sides 9_whiteLine3.jpg	MediumShort_e16_cut1_stereo_44KHz.wav
2	122	4	3	2	I	1	0	1054	0	poli_8sides 15_whiteLine3.jpg	MediumShort_b16_cut3_MS_stereo_44KHz.wav
2	123	3	3	2	I	2	0	876	0	poli_8sides 2_whiteLine3.jpg	MediumShort_b16_cut3_MS_stereo_44KHz.wav
2	124	2	1	0	C	2	1	963	1	poli_8sides 3_whiteLine3.jpg	MediumShort_e16_cut1_stereo_44KHz.wav
2	125	3	4	2	I	1	0	1427	0	poli_8sides 2_whiteLine3.jpg	MediumShort_b10_cut1_MS_stereo_44KHz.wav
2	126	1	2	0	C	2	1	1126	1	poli_8sides 9_whiteLine3.jpg	MediumShort_e22_cut1_stereo_44KHz.wav
2	127	4	4	2	I	2	0	720	0	poli_8sides 15_whiteLine3.jpg	MediumShort_b10_cut1_MS_stereo_44KHz.wav
2	128	2	2	1	C	1	1	845	1	poli_8sides 3_whiteLine3.jpg	MediumShort_e22_cut1_stereo_44KHz.wav
2	129	4	4	2	I	2	0	550	1	poli_8sides 15_whiteLine3.jpg	MediumShort_b10_cut1_MS_stereo_44KHz.wav
2	130	1	1	1	C	1	1	892	1	poli_8sides 9_whiteLine3.jpg	MediumShort_e16_cut1_stereo_44KHz.wav
2	131	3	3	2	I	2	0	1023	1	poli_8sides 2_whiteLine3.jpg	MediumShort_b16_cut3_MS_stereo_44KHz.wav
2	132	2	1	0	C	2	1	949	1	poli_8sides 3_whiteLine3.jpg	MediumShort_e16_cut1_stereo_44KHz.wav
2	133	4	3	2	I	1	0	961	1	poli_8sides 15_whiteLine3.jpg	MediumShort_b16_cut3_MS_stereo_44KHz.wav
2	134	3	4	2	I	2	0	1191	0	poli_8sides 2_whiteLine3.jpg	MediumShort_b10_cut1_MS_stereo_44KHz.wav
2	135	1	2	0	C	1	0	1164	0	poli_8sides 9_whiteLine3.jpg	MediumShort_e22_cut1_stereo_44KHz.wav
2	136	2	2	1	C	1	1	899	1	poli_8sides 3_whiteLine3.jpg	MediumShort_e22_cut1_stereo_44KHz.wav
2	137	3	4	2	I	1	0	1613	1	poli_8sides 2_whiteLine3.jpg	MediumShort_b10_cut1_MS_stereo_44KHz.wav
2	138	4	4	2	I	2	0	567	1	poli_8sides 15_whiteLine3.jpg	MediumShort_b10_cut1_MS_stereo_44KHz.wav
2	139	1	2	0	C	2	1	1607	1	poli_8sides 9_whiteLine3.jpg	MediumShort_e22_cut1_stereo_44KHz.wav
2	140	2	1	0	C	2	1	1163	1	poli_8sides 3_whiteLine3.jpg	MediumShort_e16_cut1_stereo_44KHz.wav
2	141	1	1	1	C	1	1	844	1	poli_8sides 9_whiteLine3.jpg	MediumShort_e16_cut1_stereo_44KHz.wav
2	142	2	2	1	C	1	1	849	1	poli_8sides 3_whiteLine3.jpg	MediumShort_e22_cut1_stereo_44KHz.wav
2	143	4	3	2	I	1	0	857	0	poli_8sides 15_whiteLine3.jpg	MediumShort_b16_cut3_MS_stereo_44KHz.wav
2	144	3	3	2	I	2	0	1028	0	poli_8sides 2_whiteLine3.jpg	MediumShort_b16_cut3_MS_stereo_44KHz.wav
2	145	2	2	1	C	1	1	900	1	poli_8sides 3_whiteLine3.jpg	MediumShort_e22_cut1_stereo_44KHz.wav
2	146	1	1	1	C	2	0	940	0	poli_8sides 9_whiteLine3.jpg	MediumShort_e16_cut1_stereo_44KHz.wav
2	147	4	4	2	I	2	0	721	0	poli_8sides 15_whiteLine3.jpg	MediumShort_b10_cut1_MS_stereo_44KHz.wav
2	148	3	4	2	I	2	0	885	0	poli_8sides 2_whiteLine3.jpg	MediumShort_b10_cut1_MS_stereo_44KHz.wav
2	149	4	3	2	I	1	0	740	0	poli_8sides 15_whiteLine3.jpg	MediumShort_b16_cut3_MS_stereo_44KHz.wav
2	150	3	3	2	I	2	0	1035	1	poli_8sides 2_whiteLine3.jpg	MediumShort_b16_cut3_MS_stereo_44KHz.wav
2	151	2	1	0	C	2	1	997	1	poli_8sides 3_whiteLine3.jpg	MediumShort_e16_cut1_stereo_44KHz.wav
2	152	1	2	0	C	2	1	1016	1	poli_8sides 9_whiteLine3.jpg	MediumShort_e22_cut1_stereo_44KHz.wav
2	153	4	4	2	I	2	0	757	1	poli_8sides 15_whiteLine3.jpg	MediumShort_b10_cut1_MS_stereo_44KHz.wav
2	154	2	2	1	C	1	1	768	1	poli_8sides 3_whiteLine3.jpg	MediumShort_e22_cut1_stereo_44KHz.wav
2	155	3	4	2	I	2	0	897	0	poli_8sides 2_whiteLine3.jpg	MediumShort_b10_cut1_MS_stereo_44KHz.wav
2	156	1	1	1	C	1	1	1158	1	poli_8sides 9_whiteLine3.jpg	MediumShort_e16_cut1_stereo_44KHz.wav
2	157	4	3	2	I	1	0	960	1	poli_8sides 15_whiteLine3.jpg	MediumShort_b16_cut3_MS_stereo_44KHz.wav
2	158	3	3	2	I	1	0	1115	1	poli_8sides 2_whiteLine3.jpg	MediumShort_b16_cut3_MS_stereo_44KHz.wav
2	159	1	2	0	C	1	0	820	0	poli_8sides 9_whiteLine3.jpg	MediumShort_e22_cut1_stereo_44KHz.wav
2	160	2	1	0	C	2	1	602	1	poli_8sides 3_whiteLine3.jpg	MediumShort_e16_cut1_stereo_44KHz.wav
2	161	4	3	2	I	1	0	1000	1	poli_8sides 15_whiteLine3.jpg	MediumShort_b16_cut3_MS_stereo_44KHz.wav
2	162	3	4	2	I	2	0	1025	0	poli_8sides 2_whiteLine3.jpg	MediumShort_b10_cut1_MS_stereo_44KHz.wav
2	163	1	2	0	C	2	1	1099	1	poli_8sides 9_whiteLine3.jpg	MediumShort_e22_cut1_stereo_44KHz.wav
2	164	2	1	0	C	2	1	742	1	poli_8sides 3_whiteLine3.jpg	MediumShort_e16_cut1_stereo_44KHz.wav
2	165	1	1	1	C	1	1	1489	1	poli_8sides 9_whiteLine3.jpg	MediumShort_e16_cut1_stereo_44KHz.wav
2	166	3	3	2	I	1	0	1404	1	poli_8sides 2_whiteLine3.jpg	MediumShort_b16_cut3_MS_stereo_44KHz.wav
2	167	4	4	2	I	2	0	701	0	poli_8sides 15_whiteLine3.jpg	MediumShort_b10_cut1_MS_stereo_44KHz.wav
2	168	2	2	1	C	1	1	1218	1	poli_8sides 3_whiteLine3.jpg	MediumShort_e22_cut1_stereo_44KHz.wav
2	169	3	3	2	I	2	0	1478	0	poli_8sides 2_whiteLine3.jpg	MediumShort_b16_cut3_MS_stereo_44KHz.wav
2	170	1	1	1	C	1	1	937	1	poli_8sides 9_whiteLine3.jpg	MediumShort_e16_cut1_stereo_44KHz.wav
2	171	2	1	0	C	2	1	630	1	poli_8sides 3_whiteLine3.jpg	MediumShort_e16_cut1_stereo_44KHz.wav
2	172	4	3	2	I	1	0	1165	0	poli_8sides 15_whiteLine3.jpg	MediumShort_b16_cut3_MS_stereo_44KHz.wav
2	173	1	2	0	C	2	1	1184	1	poli_8sides 9_whiteLine3.jpg	MediumShort_e22_cut1_stereo_44KHz.wav
2	174	2	2	1	C	1	1	795	1	poli_8sides 3_whiteLine3.jpg	MediumShort_e22_cut1_stereo_44KHz.wav
2	175	4	4	2	I	1	0	979	0	poli_8sides 15_whiteLine3.jpg	MediumShort_b10_cut1_MS_stereo_44KHz.wav
2	176	3	4	2	I	2	0	674	1	poli_8sides 2_whiteLine3.jpg	MediumShort_b10_cut1_MS_stereo_44KHz.wav
2	177	1	2	0	C	2	1	1735	1	poli_8sides 9_whiteLine3.jpg	MediumShort_e22_cut1_stereo_44KHz.wav
2	178	3	4	2	I	1	0	768	0	poli_8sides 2_whiteLine3.jpg	MediumShort_b10_cut1_MS_stereo_44KHz.wav
2	179	4	3	2	I	1	0	1119	1	poli_8sides 15_whiteLine3.jpg	MediumShort_b16_cut3_MS_stereo_44KHz.wav
2	180	2	1	0	C	2	1	698	1	poli_8sides 3_whiteLine3.jpg	MediumShort_e16_cut1_stereo_44KHz.wav
2	181	1	1	1	C	1	1	891	1	poli_8sides 9_whiteLine3.jpg	MediumShort_e16_cut1_stereo_44KHz.wav
2	182	2	2	1	C	1	1	895	1	poli_8sides 3_whiteLine3.jpg	MediumShort_e22_cut1_stereo_44KHz.wav
2	183	3	3	2	I	1	0	1173	0	poli_8sides 2_whiteLine3.jpg	MediumShort_b16_cut3_MS_stereo_44KHz.wav
2	184	4	4	2	I	2	0	848	1	poli_8sides 15_whiteLine3.jpg	MediumShort_b10_cut1_MS_stereo_44KHz.wav
2	185	2	1	0	C	1	0	887	0	poli_8sides 3_whiteLine3.jpg	MediumShort_e16_cut1_stereo_44KHz.wav
2	186	1	1	1	C	1	1	1076	1	poli_8sides 9_whiteLine3.jpg	MediumShort_e16_cut1_stereo_44KHz.wav
2	187	4	3	2	I	2	0	1086	0	poli_8sides 15_whiteLine3.jpg	MediumShort_b16_cut3_MS_stereo_44KHz.wav
2	188	3	3	2	I	2	0	775	1	poli_8sides 2_whiteLine3.jpg	MediumShort_b16_cut3_MS_stereo_44KHz.wav
2	189	4	4	2	I	2	0	765	1	poli_8sides 15_whiteLine3.jpg	MediumShort_b10_cut1_MS_stereo_44KHz.wav
2	190	1	2	0	C	2	1	973	1	poli_8sides 9_whiteLine3.jpg	MediumShort_e22_cut1_stereo_44KHz.wav
2	191	2	2	1	C	1	1	872	1	poli_8sides 3_whiteLine3.jpg	MediumShort_e22_cut1_stereo_44KHz.wav
2	192	3	4	2	I	2	0	1207	1	poli_8sides 2_whiteLine3.jpg	MediumShort_b10_cut1_MS_stereo_44KHz.wav
2	193	4	3	2	I	1	0	692	0	poli_8sides 15_whiteLine3.jpg	MediumShort_b16_cut3_MS_stereo_44KHz.wav
2	194	1	1	1	C	2	0	1237	0	poli_8sides 9_whiteLine3.jpg	MediumShort_e16_cut1_stereo_44KHz.wav
2	195	2	2	1	C	1	1	628	1	poli_8sides 3_whiteLine3.jpg	MediumShort_e22_cut1_stereo_44KHz.wav
2	196	3	3	2	I	1	0	1247	1	poli_8sides 2_whiteLine3.jpg	MediumShort_b16_cut3_MS_stereo_44KHz.wav
2	197	1	2	0	C	2	1	853	1	poli_8sides 9_whiteLine3.jpg	MediumShort_e22_cut1_stereo_44KHz.wav
2	198	2	1	0	C	2	1	1199	1	poli_8sides 3_whiteLine3.jpg	MediumShort_e16_cut1_stereo_44KHz.wav
2	199	3	4	2	I	2	0	984	1	poli_8sides 2_whiteLine3.jpg	MediumShort_b10_cut1_MS_stereo_44KHz.wav
2	200	4	4	2	I	2	0	520	0	poli_8sides 15_whiteLine3.jpg	MediumShort_b10_cut1_MS_stereo_44KHz.wav
3	1	3	4	2	I	2	0	1351	0	poli_8sides 10_whiteLine3.jpg	MediumLong_e04_stereo_44KHz.wav
3	2	2	2	1	C	2	0	934	0	poli_8sides 1_whiteLine3.jpg	Medium_e26_stereo_44KHz.wav
3	3	1	2	0	C	2	1	663	1	poli_8sides 5_whiteLine3.jpg	Medium_e26_stereo_44KHz.wav
3	4	4	4	2	I	2	0	864	1	poli_8sides 18_whiteLine3.jpg	MediumLong_e04_stereo_44KHz.wav
3	5	3	3	2	I	1	0	1179	1	poli_8sides 10_whiteLine3.jpg	MediumLong_e17_cut2_stereo_44KHz.wav
3	6	1	1	1	C	1	1	802	1	poli_8sides 5_whiteLine3.jpg	Medium_e21_stereo_44KHz.wav
3	7	2	1	0	C	2	1	987	1	poli_8sides 1_whiteLine3.jpg	Medium_e21_stereo_44KHz.wav
3	8	4	3	2	I	1	0	1092	1	poli_8sides 18_whiteLine3.jpg	MediumLong_e17_cut2_stereo_44KHz.wav
3	9	3	3	2	I	2	0	818	0	poli_8sides 10_whiteLine3.jpg	MediumLong_e17_cut2_stereo_44KHz.wav
3	10	2	2	1	C	1	1	669	1	poli_8sides 1_whiteLine3.jpg	Medium_e26_stereo_44KHz.wav
3	11	4	3	2	I	1	0	1209	1	poli_8sides 18_whiteLine3.jpg	MediumLong_e17_cut2_stereo_44KHz.wav
3	12	1	1	1	C	1	1	930	1	poli_8sides 5_whiteLine3.jpg	Medium_e21_stereo_44KHz.wav
3	13	3	4	2	I	1	0	1191	0	poli_8sides 10_whiteLine3.jpg	MediumLong_e04_stereo_44KHz.wav
3	14	1	2	0	C	2	1	711	1	poli_8sides 5_whiteLine3.jpg	Medium_e26_stereo_44KHz.wav
3	15	2	1	0	C	1	0	1084	0	poli_8sides 1_whiteLine3.jpg	Medium_e21_stereo_44KHz.wav
3	16	4	4	2	I	1	0	841	0	poli_8sides 18_whiteLine3.jpg	MediumLong_e04_stereo_44KHz.wav
3	17	1	2	0	C	2	1	684	1	poli_8sides 5_whiteLine3.jpg	Medium_e26_stereo_44KHz.wav
3	18	2	2	1	C	1	1	720	1	poli_8sides 1_whiteLine3.jpg	Medium_e26_stereo_44KHz.wav
3	19	3	4	2	I	2	0	754	1	poli_8sides 10_whiteLine3.jpg	MediumLong_e04_stereo_44KHz.wav
3	20	4	4	2	I	2	0	1025	1	poli_8sides 18_whiteLine3.jpg	MediumLong_e04_stereo_44KHz.wav
3	21	1	1	1	C	1	1	692	1	poli_8sides 5_whiteLine3.jpg	Medium_e21_stereo_44KHz.wav
3	22	4	3	2	I	1	0	1498	0	poli_8sides 18_whiteLine3.jpg	MediumLong_e17_cut2_stereo_44KHz.wav
3	23	2	1	0	C	2	1	727	1	poli_8sides 1_whiteLine3.jpg	Medium_e21_stereo_44KHz.wav
3	24	3	3	2	I	2	0	789	1	poli_8sides 10_whiteLine3.jpg	MediumLong_e17_cut2_stereo_44KHz.wav
3	25	1	1	1	C	1	1	735	1	poli_8sides 5_whiteLine3.jpg	Medium_e21_stereo_44KHz.wav
3	26	4	3	2	I	2	0	781	1	poli_8sides 18_whiteLine3.jpg	MediumLong_e17_cut2_stereo_44KHz.wav
3	27	2	2	1	C	1	1	1162	1	poli_8sides 1_whiteLine3.jpg	Medium_e26_stereo_44KHz.wav
3	28	3	4	2	I	2	0	1053	1	poli_8sides 10_whiteLine3.jpg	MediumLong_e04_stereo_44KHz.wav
3	29	4	4	2	I	2	0	795	1	poli_8sides 18_whiteLine3.jpg	MediumLong_e04_stereo_44KHz.wav
3	30	3	3	2	I	1	0	871	0	poli_8sides 10_whiteLine3.jpg	MediumLong_e17_cut2_stereo_44KHz.wav
3	31	1	2	0	C	2	1	651	1	poli_8sides 5_whiteLine3.jpg	Medium_e26_stereo_44KHz.wav
3	32	2	1	0	C	2	1	788	1	poli_8sides 1_whiteLine3.jpg	Medium_e21_stereo_44KHz.wav
3	33	3	4	2	I	2	0	1282	0	poli_8sides 10_whiteLine3.jpg	MediumLong_e04_stereo_44KHz.wav
3	34	2	1	0	C	1	0	729	0	poli_8sides 1_whiteLine3.jpg	Medium_e21_stereo_44KHz.wav
3	35	1	2	0	C	2	1	602	1	poli_8sides 5_whiteLine3.jpg	Medium_e26_stereo_44KHz.wav
3	36	4	3	2	I	2	0	1328	1	poli_8sides 18_whiteLine3.jpg	MediumLong_e17_cut2_stereo_44KHz.wav
3	37	2	2	1	C	1	1	915	1	poli_8sides 1_whiteLine3.jpg	Medium_e26_stereo_44KHz.wav
3	38	1	1	1	C	1	1	782	1	poli_8sides 5_whiteLine3.jpg	Medium_e21_stereo_44KHz.wav
3	39	3	3	2	I	1	0	1459	1	poli_8sides 10_whiteLine3.jpg	MediumLong_e17_cut2_stereo_44KHz.wav
3	40	4	4	2	I	2	0	703	0	poli_8sides 18_whiteLine3.jpg	MediumLong_e04_stereo_44KHz.wav
3	41	1	2	0	C	2	1	741	1	poli_8sides 5_whiteLine3.jpg	Medium_e26_stereo_44KHz.wav
3	42	2	1	0	C	2	1	708	1	poli_8sides 1_whiteLine3.jpg	Medium_e21_stereo_44KHz.wav
3	43	4	3	2	I	2	0	916	1	poli_8sides 18_whiteLine3.jpg	MediumLong_e17_cut2_stereo_44KHz.wav
3	44	3	3	2	I	1	0	749	1	poli_8sides 10_whiteLine3.jpg	MediumLong_e17_cut2_stereo_44KHz.wav
3	45	1	1	1	C	1	1	701	1	poli_8sides 5_whiteLine3.jpg	Medium_e21_stereo_44KHz.wav
3	46	2	2	1	C	1	1	774	1	poli_8sides 1_whiteLine3.jpg	Medium_e26_stereo_44KHz.wav
3	47	3	4	2	I	2	0	918	0	poli_8sides 10_whiteLine3.jpg	MediumLong_e04_stereo_44KHz.wav
3	48	4	4	2	I	2	0	744	1	poli_8sides 18_whiteLine3.jpg	MediumLong_e04_stereo_44KHz.wav
3	49	3	3	2	I	2	0	813	1	poli_8sides 10_whiteLine3.jpg	MediumLong_e17_cut2_stereo_44KHz.wav
3	50	1	2	0	C	2	1	746	1	poli_8sides 5_whiteLine3.jpg	Medium_e26_stereo_44KHz.wav
3	51	2	1	0	C	2	1	701	1	poli_8sides 1_whiteLine3.jpg	Medium_e21_stereo_44KHz.wav
3	52	4	3	2	I	2	0	1476	0	poli_8sides 18_whiteLine3.jpg	MediumLong_e17_cut2_stereo_44KHz.wav
3	53	3	4	2	I	1	0	896	0	poli_8sides 10_whiteLine3.jpg	MediumLong_e04_stereo_44KHz.wav
3	54	2	2	1	C	1	1	792	1	poli_8sides 1_whiteLine3.jpg	Medium_e26_stereo_44KHz.wav
3	55	1	1	1	C	1	1	905	1	poli_8sides 5_whiteLine3.jpg	Medium_e21_stereo_44KHz.wav
3	56	4	4	2	I	2	0	1187	1	poli_8sides 18_whiteLine3.jpg	MediumLong_e04_stereo_44KHz.wav
3	57	1	2	0	C	2	1	848	1	poli_8sides 5_whiteLine3.jpg	Medium_e26_stereo_44KHz.wav
3	58	3	4	2	I	2	0	771	1	poli_8sides 10_whiteLine3.jpg	MediumLong_e04_stereo_44KHz.wav
3	59	4	4	2	I	1	0	916	1	poli_8sides 18_whiteLine3.jpg	MediumLong_e04_stereo_44KHz.wav
3	60	2	1	0	C	2	1	723	1	poli_8sides 1_whiteLine3.jpg	Medium_e21_stereo_44KHz.wav
3	61	1	1	1	C	1	1	696	1	poli_8sides 5_whiteLine3.jpg	Medium_e21_stereo_44KHz.wav
3	62	4	3	2	I	2	0	1122	0	poli_8sides 18_whiteLine3.jpg	MediumLong_e17_cut2_stereo_44KHz.wav
3	63	3	3	2	I	2	0	775	1	poli_8sides 10_whiteLine3.jpg	MediumLong_e17_cut2_stereo_44KHz.wav
3	64	2	2	1	C	1	1	729	1	poli_8sides 1_whiteLine3.jpg	Medium_e26_stereo_44KHz.wav
3	65	1	2	0	C	2	1	655	1	poli_8sides 5_whiteLine3.jpg	Medium_e26_stereo_44KHz.wav
3	66	3	3	2	I	1	0	791	1	poli_8sides 10_whiteLine3.jpg	MediumLong_e17_cut2_stereo_44KHz.wav
3	67	2	2	1	C	1	1	758	1	poli_8sides 1_whiteLine3.jpg	Medium_e26_stereo_44KHz.wav
3	68	4	4	2	I	2	0	1090	1	poli_8sides 18_whiteLine3.jpg	MediumLong_e04_stereo_44KHz.wav
3	69	2	1	0	C	2	1	1105	1	poli_8sides 1_whiteLine3.jpg	Medium_e21_stereo_44KHz.wav
3	70	4	3	2	I	2	0	1054	1	poli_8sides 18_whiteLine3.jpg	MediumLong_e17_cut2_stereo_44KHz.wav
3	71	3	4	2	I	2	0	677	1	poli_8sides 10_whiteLine3.jpg	MediumLong_e04_stereo_44KHz.wav
3	72	1	1	1	C	1	1	633	1	poli_8sides 5_whiteLine3.jpg	Medium_e21_stereo_44KHz.wav
3	73	2	1	0	C	2	1	592	1	poli_8sides 1_whiteLine3.jpg	Medium_e21_stereo_44KHz.wav
3	74	3	4	2	I	2	0	898	1	poli_8sides 10_whiteLine3.jpg	MediumLong_e04_stereo_44KHz.wav
3	75	1	2	0	C	1	0	627	0	poli_8sides 5_whiteLine3.jpg	Medium_e26_stereo_44KHz.wav
3	76	4	4	2	I	2	0	888	1	poli_8sides 18_whiteLine3.jpg	MediumLong_e04_stereo_44KHz.wav
3	77	3	3	2	I	1	0	829	0	poli_8sides 10_whiteLine3.jpg	MediumLong_e17_cut2_stereo_44KHz.wav
3	78	2	2	1	C	2	0	617	0	poli_8sides 1_whiteLine3.jpg	Medium_e26_stereo_44KHz.wav
3	79	4	3	2	I	2	0	1110	0	poli_8sides 18_whiteLine3.jpg	MediumLong_e17_cut2_stereo_44KHz.wav
3	80	1	1	1	C	1	1	1070	1	poli_8sides 5_whiteLine3.jpg	Medium_e21_stereo_44KHz.wav
3	81	3	3	2	I	2	0	915	0	poli_8sides 10_whiteLine3.jpg	MediumLong_e17_cut2_stereo_44KHz.wav
3	82	2	1	0	C	2	1	838	1	poli_8sides 1_whiteLine3.jpg	Medium_e21_stereo_44KHz.wav
3	83	1	1	1	C	1	1	707	1	poli_8sides 5_whiteLine3.jpg	Medium_e21_stereo_44KHz.wav
3	84	4	4	2	I	2	0	895	0	poli_8sides 18_whiteLine3.jpg	MediumLong_e04_stereo_44KHz.wav
3	85	2	2	1	C	1	1	746	1	poli_8sides 1_whiteLine3.jpg	Medium_e26_stereo_44KHz.wav
3	86	4	3	2	I	2	0	1040	0	poli_8sides 18_whiteLine3.jpg	MediumLong_e17_cut2_stereo_44KHz.wav
3	87	1	2	0	C	2	1	701	1	poli_8sides 5_whiteLine3.jpg	Medium_e26_stereo_44KHz.wav
3	88	3	4	2	I	2	0	821	1	poli_8sides 10_whiteLine3.jpg	MediumLong_e04_stereo_44KHz.wav
3	89	4	4	2	I	2	0	786	1	poli_8sides 18_whiteLine3.jpg	MediumLong_e04_stereo_44KHz.wav
3	90	3	3	2	I	1	0	698	1	poli_8sides 10_whiteLine3.jpg	MediumLong_e17_cut2_stereo_44KHz.wav
3	91	2	2	1	C	1	1	841	1	poli_8sides 1_whiteLine3.jpg	Medium_e26_stereo_44KHz.wav
3	92	1	1	1	C	1	1	962	1	poli_8sides 5_whiteLine3.jpg	Medium_e21_stereo_44KHz.wav
3	93	3	4	2	I	2	0	732	0	poli_8sides 10_whiteLine3.jpg	MediumLong_e04_stereo_44KHz.wav
3	94	4	3	2	I	2	0	1204	1	poli_8sides 18_whiteLine3.jpg	MediumLong_e17_cut2_stereo_44KHz.wav
3	95	1	2	0	C	2	1	811	1	poli_8sides 5_whiteLine3.jpg	Medium_e26_stereo_44KHz.wav
3	96	2	1	0	C	2	1	870	1	poli_8sides 1_whiteLine3.jpg	Medium_e21_stereo_44KHz.wav
3	97	3	3	2	I	1	0	1108	0	poli_8sides 10_whiteLine3.jpg	MediumLong_e17_cut2_stereo_44KHz.wav
3	98	4	4	2	I	2	0	1284	0	poli_8sides 18_whiteLine3.jpg	MediumLong_e04_stereo_44KHz.wav
3	99	1	1	1	C	1	1	672	1	poli_8sides 5_whiteLine3.jpg	Medium_e21_stereo_44KHz.wav
3	100	2	2	1	C	1	1	779	1	poli_8sides 1_whiteLine3.jpg	Medium_e26_stereo_44KHz.wav
3	101	1	2	0	C	2	1	558	1	poli_8sides 5_whiteLine3.jpg	Medium_e26_stereo_44KHz.wav
3	102	3	4	2	I	2	0	1092	1	poli_8sides 10_whiteLine3.jpg	MediumLong_e04_stereo_44KHz.wav
3	103	2	1	0	C	2	1	1655	1	poli_8sides 1_whiteLine3.jpg	Medium_e21_stereo_44KHz.wav
3	104	4	3	2	I	2	0	1113	0	poli_8sides 18_whiteLine3.jpg	MediumLong_e17_cut2_stereo_44KHz.wav
3	105	1	1	1	C	1	1	712	1	poli_8sides 5_whiteLine3.jpg	Medium_e21_stereo_44KHz.wav
3	106	4	4	2	I	2	0	926	0	poli_8sides 18_whiteLine3.jpg	MediumLong_e04_stereo_44KHz.wav
3	107	2	1	0	C	2	1	881	1	poli_8sides 1_whiteLine3.jpg	Medium_e21_stereo_44KHz.wav
3	108	3	3	2	I	2	0	1034	0	poli_8sides 10_whiteLine3.jpg	MediumLong_e17_cut2_stereo_44KHz.wav
3	109	1	2	0	C	2	1	654	1	poli_8sides 5_whiteLine3.jpg	Medium_e26_stereo_44KHz.wav
3	110	4	3	2	I	1	0	1048	0	poli_8sides 18_whiteLine3.jpg	MediumLong_e17_cut2_stereo_44KHz.wav
3	111	2	2	1	C	1	1	746	1	poli_8sides 1_whiteLine3.jpg	Medium_e26_stereo_44KHz.wav
3	112	3	4	2	I	2	0	625	0	poli_8sides 10_whiteLine3.jpg	MediumLong_e04_stereo_44KHz.wav
3	113	1	1	1	C	1	1	794	1	poli_8sides 5_whiteLine3.jpg	Medium_e21_stereo_44KHz.wav
3	114	2	2	1	C	1	1	1260	1	poli_8sides 1_whiteLine3.jpg	Medium_e26_stereo_44KHz.wav
3	115	3	3	2	I	1	0	903	1	poli_8sides 10_whiteLine3.jpg	MediumLong_e17_cut2_stereo_44KHz.wav
3	116	4	3	2	I	2	0	1370	1	poli_8sides 18_whiteLine3.jpg	MediumLong_e17_cut2_stereo_44KHz.wav
3	117	2	1	0	C	2	1	1098	1	poli_8sides 1_whiteLine3.jpg	Medium_e21_stereo_44KHz.wav
3	118	1	2	0	C	2	1	794	1	poli_8sides 5_whiteLine3.jpg	Medium_e26_stereo_44KHz.wav
3	119	3	4	2	I	2	0	860	0	poli_8sides 10_whiteLine3.jpg	MediumLong_e04_stereo_44KHz.wav
3	120	4	4	2	I	2	0	832	0	poli_8sides 18_whiteLine3.jpg	MediumLong_e04_stereo_44KHz.wav
3	121	3	3	2	I	1	0	734	1	poli_8sides 10_whiteLine3.jpg	MediumLong_e17_cut2_stereo_44KHz.wav
3	122	4	4	2	I	2	0	1242	0	poli_8sides 18_whiteLine3.jpg	MediumLong_e04_stereo_44KHz.wav
3	123	2	1	0	C	2	1	736	1	poli_8sides 1_whiteLine3.jpg	Medium_e21_stereo_44KHz.wav
3	124	1	1	1	C	1	1	747	1	poli_8sides 5_whiteLine3.jpg	Medium_e21_stereo_44KHz.wav
3	125	4	3	2	I	2	0	1011	0	poli_8sides 18_whiteLine3.jpg	MediumLong_e17_cut2_stereo_44KHz.wav
3	126	1	2	0	C	2	1	687	1	poli_8sides 5_whiteLine3.jpg	Medium_e26_stereo_44KHz.wav
3	127	3	4	2	I	2	0	850	0	poli_8sides 10_whiteLine3.jpg	MediumLong_e04_stereo_44KHz.wav
3	128	2	2	1	C	1	1	852	1	poli_8sides 1_whiteLine3.jpg	Medium_e26_stereo_44KHz.wav
3	129	1	2	0	C	2	1	704	1	poli_8sides 5_whiteLine3.jpg	Medium_e26_stereo_44KHz.wav
3	130	3	4	2	I	1	0	955	1	poli_8sides 10_whiteLine3.jpg	MediumLong_e04_stereo_44KHz.wav
3	131	2	1	0	C	2	1	661	1	poli_8sides 1_whiteLine3.jpg	Medium_e21_stereo_44KHz.wav
3	132	4	3	2	I	2	0	1118	0	poli_8sides 18_whiteLine3.jpg	MediumLong_e17_cut2_stereo_44KHz.wav
3	133	2	2	1	C	1	1	977	1	poli_8sides 1_whiteLine3.jpg	Medium_e26_stereo_44KHz.wav
3	134	3	3	2	I	1	0	909	0	poli_8sides 10_whiteLine3.jpg	MediumLong_e17_cut2_stereo_44KHz.wav
3	135	1	1	1	C	1	1	862	1	poli_8sides 5_whiteLine3.jpg	Medium_e21_stereo_44KHz.wav
3	136	4	4	2	I	2	0	1005	0	poli_8sides 18_whiteLine3.jpg	MediumLong_e04_stereo_44KHz.wav
3	137	1	1	1	C	1	1	688	1	poli_8sides 5_whiteLine3.jpg	Medium_e21_stereo_44KHz.wav
3	138	2	2	1	C	1	1	713	1	poli_8sides 1_whiteLine3.jpg	Medium_e26_stereo_44KHz.wav
3	139	3	4	2	I	1	0	812	0	poli_8sides 10_whiteLine3.jpg	MediumLong_e04_stereo_44KHz.wav
3	140	4	4	2	I	1	0	1084	0	poli_8sides 18_whiteLine3.jpg	MediumLong_e04_stereo_44KHz.wav
3	141	3	3	2	I	1	0	977	1	poli_8sides 10_whiteLine3.jpg	MediumLong_e17_cut2_stereo_44KHz.wav
3	142	2	1	0	C	2	1	849	1	poli_8sides 1_whiteLine3.jpg	Medium_e21_stereo_44KHz.wav
3	143	4	3	2	I	2	0	1432	0	poli_8sides 18_whiteLine3.jpg	MediumLong_e17_cut2_stereo_44KHz.wav
3	144	1	2	0	C	2	1	1062	1	poli_8sides 5_whiteLine3.jpg	Medium_e26_stereo_44KHz.wav
3	145	4	3	2	I	1	0	1012	0	poli_8sides 18_whiteLine3.jpg	MediumLong_e17_cut2_stereo_44KHz.wav
3	146	3	4	2	I	2	0	850	1	poli_8sides 10_whiteLine3.jpg	MediumLong_e04_stereo_44KHz.wav
3	147	2	1	0	C	2	1	748	1	poli_8sides 1_whiteLine3.jpg	Medium_e21_stereo_44KHz.wav
3	148	1	2	0	C	2	1	796	1	poli_8sides 5_whiteLine3.jpg	Medium_e26_stereo_44KHz.wav
3	149	2	2	1	C	1	1	756	1	poli_8sides 1_whiteLine3.jpg	Medium_e26_stereo_44KHz.wav
3	150	1	1	1	C	1	1	790	1	poli_8sides 5_whiteLine3.jpg	Medium_e21_stereo_44KHz.wav
3	151	3	3	2	I	2	0	1152	1	poli_8sides 10_whiteLine3.jpg	MediumLong_e17_cut2_stereo_44KHz.wav
3	152	4	4	2	I	2	0	939	0	poli_8sides 18_whiteLine3.jpg	MediumLong_e04_stereo_44KHz.wav
3	153	2	1	0	C	2	1	1691	1	poli_8sides 1_whiteLine3.jpg	Medium_e21_stereo_44KHz.wav
3	154	1	2	0	C	2	1	715	1	poli_8sides 5_whiteLine3.jpg	Medium_e26_stereo_44KHz.wav
3	155	3	3	2	I	2	0	1051	0	poli_8sides 10_whiteLine3.jpg	MediumLong_e17_cut2_stereo_44KHz.wav
3	156	4	3	2	I	2	0	886	1	poli_8sides 18_whiteLine3.jpg	MediumLong_e17_cut2_stereo_44KHz.wav
3	157	1	1	1	C	1	1	1503	1	poli_8sides 5_whiteLine3.jpg	Medium_e21_stereo_44KHz.wav
3	158	3	4	2	I	2	0	898	0	poli_8sides 10_whiteLine3.jpg	MediumLong_e04_stereo_44KHz.wav
3	159	4	4	2	I	1	0	1099	0	poli_8sides 18_whiteLine3.jpg	MediumLong_e04_stereo_44KHz.wav
3	160	2	2	1	C	1	1	803	1	poli_8sides 1_whiteLine3.jpg	Medium_e26_stereo_44KHz.wav
3	161	3	4	2	I	2	0	786	1	poli_8sides 10_whiteLine3.jpg	MediumLong_e04_stereo_44KHz.wav
3	162	2	2	1	C	1	1	755	1	poli_8sides 1_whiteLine3.jpg	Medium_e26_stereo_44KHz.wav
3	163	4	3	2	I	1	0	1014	0	poli_8sides 18_whiteLine3.jpg	MediumLong_e17_cut2_stereo_44KHz.wav
3	164	1	1	1	C	1	1	729	1	poli_8sides 5_whiteLine3.jpg	Medium_e21_stereo_44KHz.wav
3	165	2	1	0	C	1	0	736	0	poli_8sides 1_whiteLine3.jpg	Medium_e21_stereo_44KHz.wav
3	166	1	2	0	C	2	1	807	1	poli_8sides 5_whiteLine3.jpg	Medium_e26_stereo_44KHz.wav
3	167	4	4	2	I	2	0	1093	1	poli_8sides 18_whiteLine3.jpg	MediumLong_e04_stereo_44KHz.wav
3	168	3	3	2	I	1	0	1139	0	poli_8sides 10_whiteLine3.jpg	MediumLong_e17_cut2_stereo_44KHz.wav
3	169	1	2	0	C	2	1	764	1	poli_8sides 5_whiteLine3.jpg	Medium_e26_stereo_44KHz.wav
3	170	3	4	2	I	2	0	864	0	poli_8sides 10_whiteLine3.jpg	MediumLong_e04_stereo_44KHz.wav
3	171	4	4	2	I	2	0	881	0	poli_8sides 18_whiteLine3.jpg	MediumLong_e04_stereo_44KHz.wav
3	172	2	1	0	C	2	1	691	1	poli_8sides 1_whiteLine3.jpg	Medium_e21_stereo_44KHz.wav
3	173	3	3	2	I	1	0	1844	1	poli_8sides 10_whiteLine3.jpg	MediumLong_e17_cut2_stereo_44KHz.wav
3	174	2	2	1	C	1	1	861	1	poli_8sides 1_whiteLine3.jpg	Medium_e26_stereo_44KHz.wav
3	175	4	3	2	I	1	0	1190	1	poli_8sides 18_whiteLine3.jpg	MediumLong_e17_cut2_stereo_44KHz.wav
3	176	1	1	1	C	1	1	1862	1	poli_8sides 5_whiteLine3.jpg	Medium_e21_stereo_44KHz.wav
3	177	4	4	2	I	1	0	883	0	poli_8sides 18_whiteLine3.jpg	MediumLong_e04_stereo_44KHz.wav
3	178	2	1	0	C	2	1	1071	1	poli_8sides 1_whiteLine3.jpg	Medium_e21_stereo_44KHz.wav
3	179	1	1	1	C	1	1	774	1	poli_8sides 5_whiteLine3.jpg	Medium_e21_stereo_44KHz.wav
3	180	3	4	2	I	2	0	1318	0	poli_8sides 10_whiteLine3.jpg	MediumLong_e04_stereo_44KHz.wav
3	181	2	2	1	C	1	1	833	1	poli_8sides 1_whiteLine3.jpg	Medium_e26_stereo_44KHz.wav
3	182	4	3	2	I	2	0	957	1	poli_8sides 18_whiteLine3.jpg	MediumLong_e17_cut2_stereo_44KHz.wav
3	183	1	2	0	C	2	1	1018	1	poli_8sides 5_whiteLine3.jpg	Medium_e26_stereo_44KHz.wav
3	184	3	3	2	I	2	0	1000	1	poli_8sides 10_whiteLine3.jpg	MediumLong_e17_cut2_stereo_44KHz.wav
3	185	2	2	1	C	1	1	989	1	poli_8sides 1_whiteLine3.jpg	Medium_e26_stereo_44KHz.wav
3	186	4	3	2	I	1	0	1235	1	poli_8sides 18_whiteLine3.jpg	MediumLong_e17_cut2_stereo_44KHz.wav
3	187	1	2	0	C	2	1	670	1	poli_8sides 5_whiteLine3.jpg	Medium_e26_stereo_44KHz.wav
3	188	3	3	2	I	1	0	1554	0	poli_8sides 10_whiteLine3.jpg	MediumLong_e17_cut2_stereo_44KHz.wav
3	189	2	1	0	C	2	1	1047	1	poli_8sides 1_whiteLine3.jpg	Medium_e21_stereo_44KHz.wav
3	190	3	4	2	I	2	0	934	1	poli_8sides 10_whiteLine3.jpg	MediumLong_e04_stereo_44KHz.wav
3	191	4	4	2	I	2	0	954	1	poli_8sides 18_whiteLine3.jpg	MediumLong_e04_stereo_44KHz.wav
3	192	1	1	1	C	1	1	775	1	poli_8sides 5_whiteLine3.jpg	Medium_e21_stereo_44KHz.wav
3	193	2	2	1	C	1	1	777	1	poli_8sides 1_whiteLine3.jpg	Medium_e26_stereo_44KHz.wav
3	194	1	2	0	C	2	1	808	1	poli_8sides 5_whiteLine3.jpg	Medium_e26_stereo_44KHz.wav
3	195	3	3	2	I	2	0	1092	0	poli_8sides 10_whiteLine3.jpg	MediumLong_e17_cut2_stereo_44KHz.wav
3	196	4	3	2	I	1	0	687	1	poli_8sides 18_whiteLine3.jpg	MediumLong_e17_cut2_stereo_44KHz.wav
3	197	2	1	0	C	2	1	1147	1	poli_8sides 1_whiteLine3.jpg	Medium_e21_stereo_44KHz.wav
3	198	4	4	2	I	1	0	1063	1	poli_8sides 18_whiteLine3.jpg	MediumLong_e04_stereo_44KHz.wav
3	199	3	4	2	I	2	0	757	0	poli_8sides 10_whiteLine3.jpg	MediumLong_e04_stereo_44KHz.wav
3	200	1	1	1	C	1	1	753	1	poli_8sides 5_whiteLine3.jpg	Medium_e21_stereo_44KHz.wav
4	1	3	3	2	I	1	0	1425	0	poli_8sides 12_whiteLine3.jpg	MediumLong_e19_stereo_44KHz.wav
4	2	1	1	1	C	2	0	702	0	poli_8sides 8_whiteLine3.jpg	Medium_e01_cut1_stereo_44KHz.wav
4	3	4	4	2	I	2	0	735	1	poli_8sides 4_whiteLine3.jpg	Medium_e13_stereo_44KHz.wav
4	4	2	1	0	C	1	0	1046	0	poli_8sides 13_whiteLine3.jpg	Medium_e01_cut1_stereo_44KHz.wav
4	5	3	4	2	I	1	0	734	0	poli_8sides 12_whiteLine3.jpg	Medium_e13_stereo_44KHz.wav
4	6	1	2	0	C	2	1	935	1	poli_8sides 8_whiteLine3.jpg	MediumLong_b10_cut2_L_stereo_44KHz.wav
4	7	2	2	1	C	1	1	706	1	poli_8sides 13_whiteLine3.jpg	MediumLong_b10_cut2_L_stereo_44KHz.wav
4	8	4	3	2	I	2	0	1435	0	poli_8sides 4_whiteLine3.jpg	MediumLong_e19_stereo_44KHz.wav
4	9	2	2	1	C	1	1	898	1	poli_8sides 13_whiteLine3.jpg	MediumLong_b10_cut2_L_stereo_44KHz.wav
4	10	4	3	2	I	1	0	1026	0	poli_8sides 4_whiteLine3.jpg	MediumLong_e19_stereo_44KHz.wav
4	11	1	2	0	C	1	0	891	0	poli_8sides 8_whiteLine3.jpg	MediumLong_b10_cut2_L_stereo_44KHz.wav
4	12	3	4	2	I	1	0	1014	1	poli_8sides 12_whiteLine3.jpg	Medium_e13_stereo_44KHz.wav
4	13	4	4	2	I	2	0	611	0	poli_8sides 4_whiteLine3.jpg	Medium_e13_stereo_44KHz.wav
4	14	1	1	1	C	2	0	1079	0	poli_8sides 8_whiteLine3.jpg	Medium_e01_cut1_stereo_44KHz.wav
4	15	2	1	0	C	2	1	763	1	poli_8sides 13_whiteLine3.jpg	Medium_e01_cut1_stereo_44KHz.wav
4	16	3	3	2	I	2	0	1190	0	poli_8sides 12_whiteLine3.jpg	MediumLong_e19_stereo_44KHz.wav
4	17	1	1	1	C	1	1	861	1	poli_8sides 8_whiteLine3.jpg	Medium_e01_cut1_stereo_44KHz.wav
4	18	3	4	2	I	2	0	910	1	poli_8sides 12_whiteLine3.jpg	Medium_e13_stereo_44KHz.wav
4	19	4	4	2	I	1	0	782	0	poli_8sides 4_whiteLine3.jpg	Medium_e13_stereo_44KHz.wav
4	20	2	2	1	C	2	0	1239	0	poli_8sides 13_whiteLine3.jpg	MediumLong_b10_cut2_L_stereo_44KHz.wav
4	21	3	3	2	I	1	0	833	0	poli_8sides 12_whiteLine3.jpg	MediumLong_e19_stereo_44KHz.wav
4	22	4	3	2	I	1	0	1183	0	poli_8sides 4_whiteLine3.jpg	MediumLong_e19_stereo_44KHz.wav
4	23	2	1	0	C	2	1	718	1	poli_8sides 13_whiteLine3.jpg	Medium_e01_cut1_stereo_44KHz.wav
4	24	1	2	0	C	1	0	923	0	poli_8sides 8_whiteLine3.jpg	MediumLong_b10_cut2_L_stereo_44KHz.wav
4	25	4	4	2	I	1	0	917	1	poli_8sides 4_whiteLine3.jpg	Medium_e13_stereo_44KHz.wav
4	26	1	2	0	C	2	1	906	1	poli_8sides 8_whiteLine3.jpg	MediumLong_b10_cut2_L_stereo_44KHz.wav
4	27	2	1	0	C	2	1	541	1	poli_8sides 13_whiteLine3.jpg	Medium_e01_cut1_stereo_44KHz.wav
4	28	3	4	2	I	2	0	929	1	poli_8sides 12_whiteLine3.jpg	Medium_e13_stereo_44KHz.wav
4	29	1	1	1	C	2	0	978	0	poli_8sides 8_whiteLine3.jpg	Medium_e01_cut1_stereo_44KHz.wav
4	30	4	3	2	I	1	0	1306	1	poli_8sides 4_whiteLine3.jpg	MediumLong_e19_stereo_44KHz.wav
4	31	3	3	2	I	1	0	1047	0	poli_8sides 12_whiteLine3.jpg	MediumLong_e19_stereo_44KHz.wav
4	32	2	2	1	C	2	0	1238	0	poli_8sides 13_whiteLine3.jpg	MediumLong_b10_cut2_L_stereo_44KHz.wav
4	33	3	3	2	I	1	0	790	1	poli_8sides 12_whiteLine3.jpg	MediumLong_e19_stereo_44KHz.wav
4	34	4	3	2	I	2	0	999	0	poli_8sides 4_whiteLine3.jpg	MediumLong_e19_stereo_44KHz.wav
4	35	1	2	0	C	1	0	1015	0	poli_8sides 8_whiteLine3.jpg	MediumLong_b10_cut2_L_stereo_44KHz.wav
4	36	2	1	0	C	2	1	689	1	poli_8sides 13_whiteLine3.jpg	Medium_e01_cut1_stereo_44KHz.wav
4	37	4	4	2	I	1	0	1202	1	poli_8sides 4_whiteLine3.jpg	Medium_e13_stereo_44KHz.wav
4	38	3	4	2	I	2	0	613	0	poli_8sides 12_whiteLine3.jpg	Medium_e13_stereo_44KHz.wav
4	39	1	1	1	C	2	0	1400	0	poli_8sides 8_whiteLine3.jpg	Medium_e01_cut1_stereo_44KHz.wav
4	40	2	2	1	C	1	1	1102	1	poli_8sides 13_whiteLine3.jpg	MediumLong_b10_cut2_L_stereo_44KHz.wav
4	41	3	4	2	I	2	0	827	1	poli_8sides 12_whiteLine3.jpg	Medium_e13_stereo_44KHz.wav
4	42	4	4	2	I	1	0	1135	0	poli_8sides 4_whiteLine3.jpg	Medium_e13_stereo_44KHz.wav
4	43	2	2	1	C	1	1	1112	1	poli_8sides 13_whiteLine3.jpg	MediumLong_b10_cut2_L_stereo_44KHz.wav
4	44	1	2	0	C	2	1	549	1	poli_8sides 8_whiteLine3.jpg	MediumLong_b10_cut2_L_stereo_44KHz.wav
4	45	2	1	0	C	2	1	673	1	poli_8sides 13_whiteLine3.jpg	Medium_e01_cut1_stereo_44KHz.wav
4	46	4	3	2	I	2	0	1537	1	poli_8sides 4_whiteLine3.jpg	MediumLong_e19_stereo_44KHz.wav
4	47	1	1	1	C	1	1	1031	1	poli_8sides 8_whiteLine3.jpg	Medium_e01_cut1_stereo_44KHz.wav
4	48	3	3	2	I	1	0	1056	1	poli_8sides 12_whiteLine3.jpg	MediumLong_e19_stereo_44KHz.wav
4	49	1	1	1	C	1	1	879	1	poli_8sides 8_whiteLine3.jpg	Medium_e01_cut1_stereo_44KHz.wav
4	50	4	3	2	I	2	0	922	0	poli_8sides 4_whiteLine3.jpg	MediumLong_e19_stereo_44KHz.wav
4	51	3	4	2	I	2	0	1200	0	poli_8sides 12_whiteLine3.jpg	Medium_e13_stereo_44KHz.wav
4	52	2	2	1	C	1	1	988	1	poli_8sides 13_whiteLine3.jpg	MediumLong_b10_cut2_L_stereo_44KHz.wav
4	53	4	4	2	I	2	0	758	0	poli_8sides 4_whiteLine3.jpg	Medium_e13_stereo_44KHz.wav
4	54	3	3	2	I	1	0	1001	1	poli_8sides 12_whiteLine3.jpg	MediumLong_e19_stereo_44KHz.wav
4	55	2	1	0	C	2	1	855	1	poli_8sides 13_whiteLine3.jpg	Medium_e01_cut1_stereo_44KHz.wav
4	56	1	2	0	C	2	1	1093	1	poli_8sides 8_whiteLine3.jpg	MediumLong_b10_cut2_L_stereo_44KHz.wav
4	57	2	1	0	C	2	1	1205	1	poli_8sides 13_whiteLine3.jpg	Medium_e01_cut1_stereo_44KHz.wav
4	58	3	4	2	I	2	0	1170	0	poli_8sides 12_whiteLine3.jpg	Medium_e13_stereo_44KHz.wav
4	59	4	3	2	I	2	0	1477	1	poli_8sides 4_whiteLine3.jpg	MediumLong_e19_stereo_44KHz.wav
4	60	1	1	1	C	1	1	890	1	poli_8sides 8_whiteLine3.jpg	Medium_e01_cut1_stereo_44KHz.wav
4	61	2	2	1	C	1	1	1082	1	poli_8sides 13_whiteLine3.jpg	MediumLong_b10_cut2_L_stereo_44KHz.wav
4	62	3	3	2	I	1	0	990	0	poli_8sides 12_whiteLine3.jpg	MediumLong_e19_stereo_44KHz.wav
4	63	1	2	0	C	2	1	1444	1	poli_8sides 8_whiteLine3.jpg	MediumLong_b10_cut2_L_stereo_44KHz.wav
4	64	4	4	2	I	2	0	1114	1	poli_8sides 4_whiteLine3.jpg	Medium_e13_stereo_44KHz.wav
4	65	2	1	0	C	2	1	1051	1	poli_8sides 13_whiteLine3.jpg	Medium_e01_cut1_stereo_44KHz.wav
4	66	3	3	2	I	1	0	1135	1	poli_8sides 12_whiteLine3.jpg	MediumLong_e19_stereo_44KHz.wav
4	67	1	2	0	C	2	1	1171	1	poli_8sides 8_whiteLine3.jpg	MediumLong_b10_cut2_L_stereo_44KHz.wav
4	68	4	4	2	I	2	0	795	1	poli_8sides 4_whiteLine3.jpg	Medium_e13_stereo_44KHz.wav
4	69	1	1	1	C	1	1	1034	1	poli_8sides 8_whiteLine3.jpg	Medium_e01_cut1_stereo_44KHz.wav
4	70	3	4	2	I	2	0	1079	1	poli_8sides 12_whiteLine3.jpg	Medium_e13_stereo_44KHz.wav
4	71	2	2	1	C	1	1	1040	1	poli_8sides 13_whiteLine3.jpg	MediumLong_b10_cut2_L_stereo_44KHz.wav
4	72	4	3	2	I	1	0	969	0	poli_8sides 4_whiteLine3.jpg	MediumLong_e19_stereo_44KHz.wav
4	73	1	1	1	C	1	1	855	1	poli_8sides 8_whiteLine3.jpg	Medium_e01_cut1_stereo_44KHz.wav
4	74	2	2	1	C	1	1	1208	1	poli_8sides 13_whiteLine3.jpg	MediumLong_b10_cut2_L_stereo_44KHz.wav
4	75	3	3	2	I	1	0	982	0	poli_8sides 12_whiteLine3.jpg	MediumLong_e19_stereo_44KHz.wav
4	76	4	3	2	I	1	0	700	0	poli_8sides 4_whiteLine3.jpg	MediumLong_e19_stereo_44KHz.wav
4	77	3	4	2	I	2	0	1038	1	poli_8sides 12_whiteLine3.jpg	Medium_e13_stereo_44KHz.wav
4	78	4	4	2	I	2	0	536	0	poli_8sides 4_whiteLine3.jpg	Medium_e13_stereo_44KHz.wav
4	79	2	1	0	C	2	1	1776	1	poli_8sides 13_whiteLine3.jpg	Medium_e01_cut1_stereo_44KHz.wav
4	80	1	2	0	C	2	1	985	1	poli_8sides 8_whiteLine3.jpg	MediumLong_b10_cut2_L_stereo_44KHz.wav
4	81	4	4	2	I	2	0	679	0	poli_8sides 4_whiteLine3.jpg	Medium_e13_stereo_44KHz.wav
4	82	1	2	0	C	2	1	805	1	poli_8sides 8_whiteLine3.jpg	MediumLong_b10_cut2_L_stereo_44KHz.wav
4	83	3	4	2	I	2	0	705	0	poli_8sides 12_whiteLine3.jpg	Medium_e13_stereo_44KHz.wav
4	84	2	2	1	C	1	1	986	1	poli_8sides 13_whiteLine3.jpg	MediumLong_b10_cut2_L_stereo_44KHz.wav
4	85	3	3	2	I	1	0	960	1	poli_8sides 12_whiteLine3.jpg	MediumLong_e19_stereo_44KHz.wav
4	86	1	1	1	C	1	1	814	1	poli_8sides 8_whiteLine3.jpg	Medium_e01_cut1_stereo_44KHz.wav
4	87	2	1	0	C	2	1	680	1	poli_8sides 13_whiteLine3.jpg	Medium_e01_cut1_stereo_44KHz.wav
4	88	4	3	2	I	2	0	1198	0	poli_8sides 4_whiteLine3.jpg	MediumLong_e19_stereo_44KHz.wav
4	89	2	2	1	C	1	1	859	1	poli_8sides 13_whiteLine3.jpg	MediumLong_b10_cut2_L_stereo_44KHz.wav
4	90	1	2	0	C	1	0	1090	0	poli_8sides 8_whiteLine3.jpg	MediumLong_b10_cut2_L_stereo_44KHz.wav
4	91	3	4	2	I	2	0	895	1	poli_8sides 12_whiteLine3.jpg	Medium_e13_stereo_44KHz.wav
4	92	4	3	2	I	2	0	1078	1	poli_8sides 4_whiteLine3.jpg	MediumLong_e19_stereo_44KHz.wav
4	93	1	1	1	C	1	1	834	1	poli_8sides 8_whiteLine3.jpg	Medium_e01_cut1_stereo_44KHz.wav
4	94	2	1	0	C	2	1	620	1	poli_8sides 13_whiteLine3.jpg	Medium_e01_cut1_stereo_44KHz.wav
4	95	3	3	2	I	1	0	1242	0	poli_8sides 12_whiteLine3.jpg	MediumLong_e19_stereo_44KHz.wav
4	96	4	4	2	I	1	0	1218	0	poli_8sides 4_whiteLine3.jpg	Medium_e13_stereo_44KHz.wav
4	97	3	4	2	I	2	0	1088	0	poli_8sides 12_whiteLine3.jpg	Medium_e13_stereo_44KHz.wav
4	98	4	4	2	I	2	0	695	1	poli_8sides 4_whiteLine3.jpg	Medium_e13_stereo_44KHz.wav
4	99	1	1	1	C	1	1	876	1	poli_8sides 8_whiteLine3.jpg	Medium_e01_cut1_stereo_44KHz.wav
4	100	2	2	1	C	1	1	842	1	poli_8sides 13_whiteLine3.jpg	MediumLong_b10_cut2_L_stereo_44KHz.wav
4	101	1	2	0	C	1	0	774	0	poli_8sides 8_whiteLine3.jpg	MediumLong_b10_cut2_L_stereo_44KHz.wav
4	102	3	3	2	I	1	0	1029	0	poli_8sides 12_whiteLine3.jpg	MediumLong_e19_stereo_44KHz.wav
4	103	2	1	0	C	2	1	941	1	poli_8sides 13_whiteLine3.jpg	Medium_e01_cut1_stereo_44KHz.wav
4	104	4	3	2	I	1	0	924	0	poli_8sides 4_whiteLine3.jpg	MediumLong_e19_stereo_44KHz.wav
4	105	2	2	1	C	1	1	1530	1	poli_8sides 13_whiteLine3.jpg	MediumLong_b10_cut2_L_stereo_44KHz.wav
4	106	3	4	2	I	2	0	889	0	poli_8sides 12_whiteLine3.jpg	Medium_e13_stereo_44KHz.wav
4	107	4	3	2	I	1	0	776	1	poli_8sides 4_whiteLine3.jpg	MediumLong_e19_stereo_44KHz.wav
4	108	1	2	0	C	2	1	907	1	poli_8sides 8_whiteLine3.jpg	MediumLong_b10_cut2_L_stereo_44KHz.wav
4	109	3	3	2	I	1	0	1057	1	poli_8sides 12_whiteLine3.jpg	MediumLong_e19_stereo_44KHz.wav
4	110	4	4	2	I	2	0	732	1	poli_8sides 4_whiteLine3.jpg	Medium_e13_stereo_44KHz.wav
4	111	2	1	0	C	2	1	1416	1	poli_8sides 13_whiteLine3.jpg	Medium_e01_cut1_stereo_44KHz.wav
4	112	1	1	1	C	1	1	730	1	poli_8sides 8_whiteLine3.jpg	Medium_e01_cut1_stereo_44KHz.wav
4	113	2	1	0	C	2	1	1091	1	poli_8sides 13_whiteLine3.jpg	Medium_e01_cut1_stereo_44KHz.wav
4	114	1	2	0	C	2	1	1080	1	poli_8sides 8_whiteLine3.jpg	MediumLong_b10_cut2_L_stereo_44KHz.wav
4	115	4	4	2	I	2	0	776	1	poli_8sides 4_whiteLine3.jpg	Medium_e13_stereo_44KHz.wav
4	116	3	3	2	I	1	0	1003	1	poli_8sides 12_whiteLine3.jpg	MediumLong_e19_stereo_44KHz.wav
4	117	4	3	2	I	1	0	845	0	poli_8sides 4_whiteLine3.jpg	MediumLong_e19_stereo_44KHz.wav
4	118	1	1	1	C	1	1	1257	1	poli_8sides 8_whiteLine3.jpg	Medium_e01_cut1_stereo_44KHz.wav
4	119	2	2	1	C	1	1	873	1	poli_8sides 13_whiteLine3.jpg	MediumLong_b10_cut2_L_stereo_44KHz.wav
4	120	3	4	2	I	2	0	730	0	poli_8sides 12_whiteLine3.jpg	Medium_e13_stereo_44KHz.wav
4	121	1	2	0	C	1	0	619	0	poli_8sides 8_whiteLine3.jpg	MediumLong_b10_cut2_L_stereo_44KHz.wav
4	122	2	1	0	C	2	1	652	1	poli_8sides 13_whiteLine3.jpg	Medium_e01_cut1_stereo_44KHz.wav
4	123	3	4	2	I	1	0	976	1	poli_8sides 12_whiteLine3.jpg	Medium_e13_stereo_44KHz.wav
4	124	4	4	2	I	2	0	493	1	poli_8sides 4_whiteLine3.jpg	Medium_e13_stereo_44KHz.wav
4	125	1	1	1	C	1	1	1249	1	poli_8sides 8_whiteLine3.jpg	Medium_e01_cut1_stereo_44KHz.wav
4	126	2	2	1	C	1	1	919	1	poli_8sides 13_whiteLine3.jpg	MediumLong_b10_cut2_L_stereo_44KHz.wav
4	127	4	3	2	I	2	0	1047	1	poli_8sides 4_whiteLine3.jpg	MediumLong_e19_stereo_44KHz.wav
4	128	3	3	2	I	1	0	945	0	poli_8sides 12_whiteLine3.jpg	MediumLong_e19_stereo_44KHz.wav
4	129	2	1	0	C	2	1	841	1	poli_8sides 13_whiteLine3.jpg	Medium_e01_cut1_stereo_44KHz.wav
4	130	1	1	1	C	1	1	1121	1	poli_8sides 8_whiteLine3.jpg	Medium_e01_cut1_stereo_44KHz.wav
4	131	4	4	2	I	2	0	868	1	poli_8sides 4_whiteLine3.jpg	Medium_e13_stereo_44KHz.wav
4	132	3	4	2	I	2	0	1092	1	poli_8sides 12_whiteLine3.jpg	Medium_e13_stereo_44KHz.wav
4	133	4	3	2	I	2	0	938	1	poli_8sides 4_whiteLine3.jpg	MediumLong_e19_stereo_44KHz.wav
4	134	3	3	2	I	1	0	1113	1	poli_8sides 12_whiteLine3.jpg	MediumLong_e19_stereo_44KHz.wav
4	135	2	2	1	C	1	1	1542	1	poli_8sides 13_whiteLine3.jpg	MediumLong_b10_cut2_L_stereo_44KHz.wav
4	136	1	2	0	C	2	1	998	1	poli_8sides 8_whiteLine3.jpg	MediumLong_b10_cut2_L_stereo_44KHz.wav
4	137	4	4	2	I	2	0	729	0	poli_8sides 4_whiteLine3.jpg	Medium_e13_stereo_44KHz.wav
4	138	3	4	2	I	2	0	598	0	poli_8sides 12_whiteLine3.jpg	Medium_e13_stereo_44KHz.wav
4	139	1	2	0	C	2	1	926	1	poli_8sides 8_whiteLine3.jpg	MediumLong_b10_cut2_L_stereo_44KHz.wav
4	140	2	1	0	C	2	1	1132	1	poli_8sides 13_whiteLine3.jpg	Medium_e01_cut1_stereo_44KHz.wav
4	141	3	3	2	I	1	0	1259	1	poli_8sides 12_whiteLine3.jpg	MediumLong_e19_stereo_44KHz.wav
4	142	4	3	2	I	1	0	548	1	poli_8sides 4_whiteLine3.jpg	MediumLong_e19_stereo_44KHz.wav
4	143	1	1	1	C	1	1	1081	1	poli_8sides 8_whiteLine3.jpg	Medium_e01_cut1_stereo_44KHz.wav
4	144	2	2	1	C	1	1	916	1	poli_8sides 13_whiteLine3.jpg	MediumLong_b10_cut2_L_stereo_44KHz.wav
4	145	1	1	1	C	1	1	1537	1	poli_8sides 8_whiteLine3.jpg	Medium_e01_cut1_stereo_44KHz.wav
4	146	4	3	2	I	2	0	889	1	poli_8sides 4_whiteLine3.jpg	MediumLong_e19_stereo_44KHz.wav
4	147	2	2	1	C	1	1	1022	1	poli_8sides 13_whiteLine3.jpg	MediumLong_b10_cut2_L_stereo_44KHz.wav
4	148	3	3	2	I	1	0	1203	0	poli_8sides 12_whiteLine3.jpg	MediumLong_e19_stereo_44KHz.wav
4	149	2	1	0	C	2	1	1396	1	poli_8sides 13_whiteLine3.jpg	Medium_e01_cut1_stereo_44KHz.wav
4	150	3	4	2	I	2	0	1013	0	poli_8sides 12_whiteLine3.jpg	Medium_e13_stereo_44KHz.wav
4	151	1	2	0	C	2	1	1043	1	poli_8sides 8_whiteLine3.jpg	MediumLong_b10_cut2_L_stereo_44KHz.wav
4	152	4	4	2	I	2	0	728	0	poli_8sides 4_whiteLine3.jpg	Medium_e13_stereo_44KHz.wav
4	153	3	3	2	I	1	0	1274	1	poli_8sides 12_whiteLine3.jpg	MediumLong_e19_stereo_44KHz.wav
4	154	1	1	1	C	1	1	913	1	poli_8sides 8_whiteLine3.jpg	Medium_e01_cut1_stereo_44KHz.wav
4	155	2	2	1	C	1	1	1028	1	poli_8sides 13_whiteLine3.jpg	MediumLong_b10_cut2_L_stereo_44KHz.wav
4	156	4	4	2	I	2	0	806	1	poli_8sides 4_whiteLine3.jpg	Medium_e13_stereo_44KHz.wav
4	157	1	2	0	C	2	1	1368	1	poli_8sides 8_whiteLine3.jpg	MediumLong_b10_cut2_L_stereo_44KHz.wav
4	158	2	1	0	C	2	1	763	1	poli_8sides 13_whiteLine3.jpg	Medium_e01_cut1_stereo_44KHz.wav
4	159	3	4	2	I	2	0	1222	0	poli_8sides 12_whiteLine3.jpg	Medium_e13_stereo_44KHz.wav
4	160	4	3	2	I	1	0	997	0	poli_8sides 4_whiteLine3.jpg	MediumLong_e19_stereo_44KHz.wav
4	161	3	3	2	I	1	0	894	0	poli_8sides 12_whiteLine3.jpg	MediumLong_e19_stereo_44KHz.wav
4	162	1	2	0	C	2	1	792	1	poli_8sides 8_whiteLine3.jpg	MediumLong_b10_cut2_L_stereo_44KHz.wav
4	163	2	1	0	C	2	1	690	1	poli_8sides 13_whiteLine3.jpg	Medium_e01_cut1_stereo_44KHz.wav
4	164	4	3	2	I	1	0	902	1	poli_8sides 4_whiteLine3.jpg	MediumLong_e19_stereo_44KHz.wav
4	165	1	1	1	C	1	1	1057	1	poli_8sides 8_whiteLine3.jpg	Medium_e01_cut1_stereo_44KHz.wav
4	166	4	4	2	I	2	0	1172	1	poli_8sides 4_whiteLine3.jpg	Medium_e13_stereo_44KHz.wav
4	167	2	2	1	C	1	1	1378	1	poli_8sides 13_whiteLine3.jpg	MediumLong_b10_cut2_L_stereo_44KHz.wav
4	168	3	4	2	I	2	0	1538	1	poli_8sides 12_whiteLine3.jpg	Medium_e13_stereo_44KHz.wav
4	169	2	2	1	C	1	1	1046	1	poli_8sides 13_whiteLine3.jpg	MediumLong_b10_cut2_L_stereo_44KHz.wav
4	170	4	3	2	I	1	0	1794	0	poli_8sides 4_whiteLine3.jpg	MediumLong_e19_stereo_44KHz.wav
4	171	3	4	2	I	2	0	1261	0	poli_8sides 12_whiteLine3.jpg	Medium_e13_stereo_44KHz.wav
4	172	1	1	1	C	1	1	773	1	poli_8sides 8_whiteLine3.jpg	Medium_e01_cut1_stereo_44KHz.wav
4	173	2	1	0	C	2	1	1707	1	poli_8sides 13_whiteLine3.jpg	Medium_e01_cut1_stereo_44KHz.wav
4	174	3	3	2	I	1	0	945	1	poli_8sides 12_whiteLine3.jpg	MediumLong_e19_stereo_44KHz.wav
4	175	4	4	2	I	1	0	690	0	poli_8sides 4_whiteLine3.jpg	Medium_e13_stereo_44KHz.wav
4	176	1	2	0	C	0	0	0	0	poli_8sides 8_whiteLine3.jpg	MediumLong_b10_cut2_L_stereo_44KHz.wav
4	177	4	4	2	I	2	0	1620	0	poli_8sides 4_whiteLine3.jpg	Medium_e13_stereo_44KHz.wav
4	178	1	1	1	C	1	1	1066	1	poli_8sides 8_whiteLine3.jpg	Medium_e01_cut1_stereo_44KHz.wav
4	179	2	1	0	C	2	1	1201	1	poli_8sides 13_whiteLine3.jpg	Medium_e01_cut1_stereo_44KHz.wav
4	180	3	3	2	I	1	0	1129	0	poli_8sides 12_whiteLine3.jpg	MediumLong_e19_stereo_44KHz.wav
4	181	1	2	0	C	2	1	1426	1	poli_8sides 8_whiteLine3.jpg	MediumLong_b10_cut2_L_stereo_44KHz.wav
4	182	3	4	2	I	2	0	1903	1	poli_8sides 12_whiteLine3.jpg	Medium_e13_stereo_44KHz.wav
4	183	4	3	2	I	1	0	1473	0	poli_8sides 4_whiteLine3.jpg	MediumLong_e19_stereo_44KHz.wav
4	184	2	2	1	C	2	0	1924	0	poli_8sides 13_whiteLine3.jpg	MediumLong_b10_cut2_L_stereo_44KHz.wav
4	185	3	3	2	I	2	0	1436	1	poli_8sides 12_whiteLine3.jpg	MediumLong_e19_stereo_44KHz.wav
4	186	4	3	2	I	2	0	621	1	poli_8sides 4_whiteLine3.jpg	MediumLong_e19_stereo_44KHz.wav
4	187	2	1	0	C	1	0	836	0	poli_8sides 13_whiteLine3.jpg	Medium_e01_cut1_stereo_44KHz.wav
4	188	1	2	0	C	2	1	1187	1	poli_8sides 8_whiteLine3.jpg	MediumLong_b10_cut2_L_stereo_44KHz.wav
4	189	2	2	1	C	1	1	1075	1	poli_8sides 13_whiteLine3.jpg	MediumLong_b10_cut2_L_stereo_44KHz.wav
4	190	3	4	2	I	2	0	823	1	poli_8sides 12_whiteLine3.jpg	Medium_e13_stereo_44KHz.wav
4	191	1	1	1	C	1	1	1202	1	poli_8sides 8_whiteLine3.jpg	Medium_e01_cut1_stereo_44KHz.wav
4	192	4	4	2	I	1	0	1658	1	poli_8sides 4_whiteLine3.jpg	Medium_e13_stereo_44KHz.wav
4	193	1	1	1	C	1	1	1347	1	poli_8sides 8_whiteLine3.jpg	Medium_e01_cut1_stereo_44KHz.wav
4	194	2	2	1	C	1	1	1228	1	poli_8sides 13_whiteLine3.jpg	MediumLong_b10_cut2_L_stereo_44KHz.wav
4	195	3	4	2	I	2	0	1459	1	poli_8sides 12_whiteLine3.jpg	Medium_e13_stereo_44KHz.wav
4	196	4	4	2	I	2	0	648	0	poli_8sides 4_whiteLine3.jpg	Medium_e13_stereo_44KHz.wav
4	197	2	1	0	C	1	0	723	0	poli_8sides 13_whiteLine3.jpg	Medium_e01_cut1_stereo_44KHz.wav
4	198	3	3	2	I	2	0	1110	0	poli_8sides 12_whiteLine3.jpg	MediumLong_e19_stereo_44KHz.wav
4	199	4	3	2	I	2	0	553	1	poli_8sides 4_whiteLine3.jpg	MediumLong_e19_stereo_44KHz.wav
4	200	1	2	0	C	0	0	0	0	poli_8sides 8_whiteLine3.jpg	MediumLong_b10_cut2_L_stereo_44KHz.wav
