block	trial	Vstim	Astim	match	C/I	resp	result	RT	fb	V-file	A-file
LR

0	1	1	2	0	C	1	1	1571	1	Ⴞ	cut_g_stereo_44KHz.wav
0	2	2	4	0	C	2	0	967	0	Ⴋ	cut_eeuw_stereo_44KHz.wav
0	3	1	1	1	C	2	1	799	1	Ⴞ	cut_oo_stereo_44KHz.wav
0	4	2	3	1	C	1	0	630	0	Ⴋ	cut_ee_stereo_44KHz.wav
0	5	1	2	0	C	1	1	647	1	Ⴞ	cut_g_stereo_44KHz.wav
0	6	2	3	1	C	2	1	868	1	Ⴋ	cut_ee_stereo_44KHz.wav
0	7	1	1	1	C	2	1	1003	1	Ⴞ	cut_oo_stereo_44KHz.wav
0	8	2	4	0	C	1	1	424	1	Ⴋ	cut_eeuw_stereo_44KHz.wav
0	9	1	2	0	C	2	0	508	0	Ⴞ	cut_g_stereo_44KHz.wav
0	10	2	4	0	C	1	1	662	1	Ⴋ	cut_eeuw_stereo_44KHz.wav
0	11	1	1	1	C	2	1	703	1	Ⴞ	cut_oo_stereo_44KHz.wav
0	12	2	3	1	C	1	0	1154	0	Ⴋ	cut_ee_stereo_44KHz.wav
0	13	1	1	1	C	2	1	809	1	Ⴞ	cut_oo_stereo_44KHz.wav
0	14	2	4	0	C	1	1	1256	1	Ⴋ	cut_eeuw_stereo_44KHz.wav
0	15	2	3	1	C	2	1	571	1	Ⴋ	cut_ee_stereo_44KHz.wav
0	16	1	2	0	C	1	1	766	1	Ⴞ	cut_g_stereo_44KHz.wav
0	17	2	4	0	C	2	0	631	0	Ⴋ	cut_eeuw_stereo_44KHz.wav
0	18	1	2	0	C	1	1	640	1	Ⴞ	cut_g_stereo_44KHz.wav
0	19	2	3	1	C	2	1	929	1	Ⴋ	cut_ee_stereo_44KHz.wav
0	20	1	1	1	C	1	0	471	0	Ⴞ	cut_oo_stereo_44KHz.wav
0	21	1	1	1	C	2	1	783	1	Ⴞ	cut_oo_stereo_44KHz.wav
0	22	2	4	0	C	1	1	760	1	Ⴋ	cut_eeuw_stereo_44KHz.wav
0	23	1	2	0	C	1	1	671	1	Ⴞ	cut_g_stereo_44KHz.wav
0	24	2	3	1	C	2	1	875	1	Ⴋ	cut_ee_stereo_44KHz.wav
0	25	1	2	0	C	1	1	632	1	Ⴞ	cut_g_stereo_44KHz.wav
0	26	1	1	1	C	2	1	722	1	Ⴞ	cut_oo_stereo_44KHz.wav
0	27	2	4	0	C	1	1	1247	1	Ⴋ	cut_eeuw_stereo_44KHz.wav
0	28	2	3	1	C	2	1	702	1	Ⴋ	cut_ee_stereo_44KHz.wav
0	29	1	1	1	C	2	1	681	1	Ⴞ	cut_oo_stereo_44KHz.wav
0	30	1	2	0	C	1	1	628	1	Ⴞ	cut_g_stereo_44KHz.wav
avg_resp = 806
1	1	1	2	0	C	2	0	957	0	Ⴜ	cut_k_stereo_44KHz.wav
1	2	2	1	0	C	1	1	629	1	Ⴇ	cut_a_stereo_44KHz.wav
1	3	3	3	2	I	1	0	645	0	Ⴟ	cut_u_stereo_44KHz.wav
1	4	4	3	2	I	1	0	708	0	Ⴃ	cut_u_stereo_44KHz.wav
1	5	1	1	1	C	2	1	1017	1	Ⴜ	cut_a_stereo_44KHz.wav
1	6	2	2	1	C	2	1	566	1	Ⴇ	cut_k_stereo_44KHz.wav
1	7	3	4	2	I	2	0	886	1	Ⴟ	cut_o_stereo_44KHz.wav
1	8	4	4	2	I	1	0	601	0	Ⴃ	cut_o_stereo_44KHz.wav
1	9	1	1	1	C	1	0	873	0	Ⴜ	cut_a_stereo_44KHz.wav
1	10	4	3	2	I	1	0	676	1	Ⴃ	cut_u_stereo_44KHz.wav
1	11	2	2	1	C	2	1	950	1	Ⴇ	cut_k_stereo_44KHz.wav
1	12	3	3	2	I	1	0	776	1	Ⴟ	cut_u_stereo_44KHz.wav
1	13	2	1	0	C	1	1	505	1	Ⴇ	cut_a_stereo_44KHz.wav
1	14	1	2	0	C	1	1	614	1	Ⴜ	cut_k_stereo_44KHz.wav
1	15	4	4	2	I	2	0	931	1	Ⴃ	cut_o_stereo_44KHz.wav
1	16	3	4	2	I	2	0	717	1	Ⴟ	cut_o_stereo_44KHz.wav
1	17	4	4	2	I	1	0	624	0	Ⴃ	cut_o_stereo_44KHz.wav
1	18	2	1	0	C	1	1	600	1	Ⴇ	cut_a_stereo_44KHz.wav
1	19	1	2	0	C	1	1	683	1	Ⴜ	cut_k_stereo_44KHz.wav
1	20	3	3	2	I	2	0	992	0	Ⴟ	cut_u_stereo_44KHz.wav
1	21	2	2	1	C	2	1	666	1	Ⴇ	cut_k_stereo_44KHz.wav
1	22	1	1	1	C	2	1	665	1	Ⴜ	cut_a_stereo_44KHz.wav
1	23	3	4	2	I	2	0	737	0	Ⴟ	cut_o_stereo_44KHz.wav
1	24	4	3	2	I	1	0	981	1	Ⴃ	cut_u_stereo_44KHz.wav
1	25	3	3	2	I	2	0	946	1	Ⴟ	cut_u_stereo_44KHz.wav
1	26	1	2	0	C	1	1	708	1	Ⴜ	cut_k_stereo_44KHz.wav
1	27	4	3	2	I	1	0	911	1	Ⴃ	cut_u_stereo_44KHz.wav
1	28	2	1	0	C	1	1	558	1	Ⴇ	cut_a_stereo_44KHz.wav
1	29	4	4	2	I	2	0	1047	0	Ⴃ	cut_o_stereo_44KHz.wav
1	30	3	4	2	I	2	0	781	1	Ⴟ	cut_o_stereo_44KHz.wav
1	31	2	2	1	C	2	1	574	1	Ⴇ	cut_k_stereo_44KHz.wav
1	32	1	1	1	C	2	1	662	1	Ⴜ	cut_a_stereo_44KHz.wav
1	33	2	2	1	C	2	1	724	1	Ⴇ	cut_k_stereo_44KHz.wav
1	34	3	4	2	I	2	0	927	0	Ⴟ	cut_o_stereo_44KHz.wav
1	35	4	4	2	I	2	0	957	1	Ⴃ	cut_o_stereo_44KHz.wav
1	36	1	2	0	C	1	1	574	1	Ⴜ	cut_k_stereo_44KHz.wav
1	37	3	3	2	I	1	0	733	0	Ⴟ	cut_u_stereo_44KHz.wav
1	38	1	1	1	C	2	1	598	1	Ⴜ	cut_a_stereo_44KHz.wav
1	39	2	1	0	C	1	1	407	1	Ⴇ	cut_a_stereo_44KHz.wav
1	40	4	3	2	I	1	0	801	1	Ⴃ	cut_u_stereo_44KHz.wav
1	41	3	4	2	I	1	0	710	0	Ⴟ	cut_o_stereo_44KHz.wav
1	42	4	4	2	I	1	0	700	1	Ⴃ	cut_o_stereo_44KHz.wav
1	43	2	1	0	C	1	1	580	1	Ⴇ	cut_a_stereo_44KHz.wav
1	44	1	1	1	C	2	1	678	1	Ⴜ	cut_a_stereo_44KHz.wav
1	45	2	2	1	C	2	1	719	1	Ⴇ	cut_k_stereo_44KHz.wav
1	46	3	3	2	I	1	0	739	0	Ⴟ	cut_u_stereo_44KHz.wav
1	47	1	2	0	C	1	1	813	1	Ⴜ	cut_k_stereo_44KHz.wav
1	48	4	3	2	I	1	0	782	0	Ⴃ	cut_u_stereo_44KHz.wav
1	49	2	2	1	C	2	1	772	1	Ⴇ	cut_k_stereo_44KHz.wav
1	50	1	1	1	C	2	1	587	1	Ⴜ	cut_a_stereo_44KHz.wav
1	51	4	3	2	I	1	0	702	0	Ⴃ	cut_u_stereo_44KHz.wav
1	52	3	4	2	I	2	0	1112	0	Ⴟ	cut_o_stereo_44KHz.wav
1	53	2	1	0	C	1	1	630	1	Ⴇ	cut_a_stereo_44KHz.wav
1	54	1	2	0	C	1	1	655	1	Ⴜ	cut_k_stereo_44KHz.wav
1	55	4	4	2	I	1	0	621	0	Ⴃ	cut_o_stereo_44KHz.wav
1	56	3	3	2	I	1	0	661	0	Ⴟ	cut_u_stereo_44KHz.wav
1	57	2	1	0	C	1	1	891	1	Ⴇ	cut_a_stereo_44KHz.wav
1	58	4	3	2	I	2	0	1145	0	Ⴃ	cut_u_stereo_44KHz.wav
1	59	1	1	1	C	2	1	711	1	Ⴜ	cut_a_stereo_44KHz.wav
1	60	3	4	2	I	1	0	676	1	Ⴟ	cut_o_stereo_44KHz.wav
1	61	4	4	2	I	1	0	917	1	Ⴃ	cut_o_stereo_44KHz.wav
1	62	3	3	2	I	1	0	681	0	Ⴟ	cut_u_stereo_44KHz.wav
1	63	2	2	1	C	2	1	789	1	Ⴇ	cut_k_stereo_44KHz.wav
1	64	1	2	0	C	1	1	594	1	Ⴜ	cut_k_stereo_44KHz.wav
1	65	3	4	2	I	2	0	636	1	Ⴟ	cut_o_stereo_44KHz.wav
1	66	1	2	0	C	1	1	603	1	Ⴜ	cut_k_stereo_44KHz.wav
1	67	2	2	1	C	2	1	691	1	Ⴇ	cut_k_stereo_44KHz.wav
1	68	4	4	2	I	1	0	738	1	Ⴃ	cut_o_stereo_44KHz.wav
1	69	3	3	2	I	1	0	458	0	Ⴟ	cut_u_stereo_44KHz.wav
1	70	4	3	2	I	1	0	714	1	Ⴃ	cut_u_stereo_44KHz.wav
1	71	2	1	0	C	1	1	645	1	Ⴇ	cut_a_stereo_44KHz.wav
1	72	1	1	1	C	2	1	827	1	Ⴜ	cut_a_stereo_44KHz.wav
1	73	3	3	2	I	1	0	693	0	Ⴟ	cut_u_stereo_44KHz.wav
1	74	2	2	1	C	2	1	835	1	Ⴇ	cut_k_stereo_44KHz.wav
1	75	4	3	2	I	1	0	665	1	Ⴃ	cut_u_stereo_44KHz.wav
1	76	1	1	1	C	2	1	597	1	Ⴜ	cut_a_stereo_44KHz.wav
1	77	2	1	0	C	1	1	717	1	Ⴇ	cut_a_stereo_44KHz.wav
1	78	3	4	2	I	1	0	770	1	Ⴟ	cut_o_stereo_44KHz.wav
1	79	4	4	2	I	2	0	659	0	Ⴃ	cut_o_stereo_44KHz.wav
1	80	1	2	0	C	1	1	595	1	Ⴜ	cut_k_stereo_44KHz.wav
1	81	3	4	2	I	1	0	648	0	Ⴟ	cut_o_stereo_44KHz.wav
1	82	2	2	1	C	2	1	834	1	Ⴇ	cut_k_stereo_44KHz.wav
1	83	1	1	1	C	2	1	650	1	Ⴜ	cut_a_stereo_44KHz.wav
1	84	4	4	2	I	1	0	716	0	Ⴃ	cut_o_stereo_44KHz.wav
1	85	3	3	2	I	2	0	1026	1	Ⴟ	cut_u_stereo_44KHz.wav
1	86	2	1	0	C	1	1	842	1	Ⴇ	cut_a_stereo_44KHz.wav
1	87	1	2	0	C	1	1	668	1	Ⴜ	cut_k_stereo_44KHz.wav
1	88	4	3	2	I	1	0	1110	1	Ⴃ	cut_u_stereo_44KHz.wav
1	89	1	1	1	C	2	1	622	1	Ⴜ	cut_a_stereo_44KHz.wav
1	90	3	4	2	I	1	0	831	0	Ⴟ	cut_o_stereo_44KHz.wav
1	91	4	4	2	I	1	0	794	0	Ⴃ	cut_o_stereo_44KHz.wav
1	92	2	1	0	C	1	1	649	1	Ⴇ	cut_a_stereo_44KHz.wav
1	93	1	2	0	C	1	1	504	1	Ⴜ	cut_k_stereo_44KHz.wav
1	94	4	3	2	I	1	0	875	0	Ⴃ	cut_u_stereo_44KHz.wav
1	95	2	2	1	C	2	1	871	1	Ⴇ	cut_k_stereo_44KHz.wav
1	96	3	3	2	I	1	0	800	0	Ⴟ	cut_u_stereo_44KHz.wav
1	97	4	4	2	I	1	0	754	0	Ⴃ	cut_o_stereo_44KHz.wav
1	98	1	1	1	C	2	1	756	1	Ⴜ	cut_a_stereo_44KHz.wav
1	99	2	1	0	C	1	1	581	1	Ⴇ	cut_a_stereo_44KHz.wav
1	100	3	3	2	I	1	0	965	0	Ⴟ	cut_u_stereo_44KHz.wav
1	101	2	2	1	C	2	1	755	1	Ⴇ	cut_k_stereo_44KHz.wav
1	102	4	3	2	I	1	0	911	1	Ⴃ	cut_u_stereo_44KHz.wav
1	103	3	4	2	I	1	0	805	1	Ⴟ	cut_o_stereo_44KHz.wav
1	104	1	2	0	C	1	1	581	1	Ⴜ	cut_k_stereo_44KHz.wav
1	105	3	4	2	I	1	0	767	1	Ⴟ	cut_o_stereo_44KHz.wav
1	106	1	2	0	C	1	1	626	1	Ⴜ	cut_k_stereo_44KHz.wav
1	107	4	3	2	I	1	0	661	1	Ⴃ	cut_u_stereo_44KHz.wav
1	108	2	2	1	C	2	1	775	1	Ⴇ	cut_k_stereo_44KHz.wav
1	109	3	3	2	I	1	0	733	1	Ⴟ	cut_u_stereo_44KHz.wav
1	110	1	1	1	C	2	1	624	1	Ⴜ	cut_a_stereo_44KHz.wav
1	111	4	4	2	I	1	0	588	1	Ⴃ	cut_o_stereo_44KHz.wav
1	112	2	1	0	C	1	1	796	1	Ⴇ	cut_a_stereo_44KHz.wav
1	113	4	3	2	I	1	0	770	1	Ⴃ	cut_u_stereo_44KHz.wav
1	114	3	4	2	I	1	0	600	0	Ⴟ	cut_o_stereo_44KHz.wav
1	115	2	2	1	C	2	1	753	1	Ⴇ	cut_k_stereo_44KHz.wav
1	116	1	2	0	C	1	1	632	1	Ⴜ	cut_k_stereo_44KHz.wav
1	117	4	4	2	I	1	0	643	0	Ⴃ	cut_o_stereo_44KHz.wav
1	118	1	1	1	C	2	1	825	1	Ⴜ	cut_a_stereo_44KHz.wav
1	119	3	3	2	I	1	0	815	1	Ⴟ	cut_u_stereo_44KHz.wav
1	120	2	1	0	C	1	1	741	1	Ⴇ	cut_a_stereo_44KHz.wav
1	121	4	4	2	I	1	0	725	1	Ⴃ	cut_o_stereo_44KHz.wav
1	122	3	4	2	I	2	0	558	1	Ⴟ	cut_o_stereo_44KHz.wav
1	123	2	1	0	C	1	1	532	1	Ⴇ	cut_a_stereo_44KHz.wav
1	124	1	1	1	C	2	1	808	1	Ⴜ	cut_a_stereo_44KHz.wav
1	125	3	3	2	I	1	0	958	0	Ⴟ	cut_u_stereo_44KHz.wav
1	126	2	2	1	C	2	1	770	1	Ⴇ	cut_k_stereo_44KHz.wav
1	127	1	2	0	C	1	1	794	1	Ⴜ	cut_k_stereo_44KHz.wav
1	128	4	3	2	I	1	0	1066	0	Ⴃ	cut_u_stereo_44KHz.wav
1	129	2	1	0	C	1	1	616	1	Ⴇ	cut_a_stereo_44KHz.wav
1	130	4	4	2	I	2	0	1025	0	Ⴃ	cut_o_stereo_44KHz.wav
1	131	3	4	2	I	2	0	746	1	Ⴟ	cut_o_stereo_44KHz.wav
1	132	1	2	0	C	1	1	654	1	Ⴜ	cut_k_stereo_44KHz.wav
1	133	2	2	1	C	2	1	976	1	Ⴇ	cut_k_stereo_44KHz.wav
1	134	4	3	2	I	1	0	793	0	Ⴃ	cut_u_stereo_44KHz.wav
1	135	1	1	1	C	2	1	718	1	Ⴜ	cut_a_stereo_44KHz.wav
1	136	3	3	2	I	1	0	808	0	Ⴟ	cut_u_stereo_44KHz.wav
1	137	4	4	2	I	1	0	720	1	Ⴃ	cut_o_stereo_44KHz.wav
1	138	2	1	0	C	1	1	690	1	Ⴇ	cut_a_stereo_44KHz.wav
1	139	1	1	1	C	2	1	525	1	Ⴜ	cut_a_stereo_44KHz.wav
1	140	3	3	2	I	1	0	916	1	Ⴟ	cut_u_stereo_44KHz.wav
1	141	1	2	0	C	1	1	574	1	Ⴜ	cut_k_stereo_44KHz.wav
1	142	3	4	2	I	2	0	796	1	Ⴟ	cut_o_stereo_44KHz.wav
1	143	4	3	2	I	1	0	807	0	Ⴃ	cut_u_stereo_44KHz.wav
1	144	2	2	1	C	2	1	961	1	Ⴇ	cut_k_stereo_44KHz.wav
1	145	1	2	0	C	1	1	746	1	Ⴜ	cut_k_stereo_44KHz.wav
1	146	3	3	2	I	1	0	1960	0	Ⴟ	cut_u_stereo_44KHz.wav
1	147	2	1	0	C	1	1	588	1	Ⴇ	cut_a_stereo_44KHz.wav
1	148	4	4	2	I	1	0	644	1	Ⴃ	cut_o_stereo_44KHz.wav
1	149	1	1	1	C	2	1	642	1	Ⴜ	cut_a_stereo_44KHz.wav
1	150	4	3	2	I	1	0	558	0	Ⴃ	cut_u_stereo_44KHz.wav
1	151	3	4	2	I	2	0	691	1	Ⴟ	cut_o_stereo_44KHz.wav
1	152	2	2	1	C	2	1	720	1	Ⴇ	cut_k_stereo_44KHz.wav
1	153	1	1	1	C	2	1	565	1	Ⴜ	cut_a_stereo_44KHz.wav
1	154	3	3	2	I	1	0	779	1	Ⴟ	cut_u_stereo_44KHz.wav
1	155	2	1	0	C	2	0	496	0	Ⴇ	cut_a_stereo_44KHz.wav
1	156	4	3	2	I	2	0	1099	0	Ⴃ	cut_u_stereo_44KHz.wav
1	157	3	4	2	I	1	0	734	1	Ⴟ	cut_o_stereo_44KHz.wav
1	158	4	4	2	I	1	0	841	1	Ⴃ	cut_o_stereo_44KHz.wav
1	159	2	2	1	C	2	1	683	1	Ⴇ	cut_k_stereo_44KHz.wav
1	160	1	2	0	C	1	1	765	1	Ⴜ	cut_k_stereo_44KHz.wav
1	161	4	3	2	I	1	0	1045	1	Ⴃ	cut_u_stereo_44KHz.wav
1	162	2	1	0	C	1	1	851	1	Ⴇ	cut_a_stereo_44KHz.wav
1	163	1	2	0	C	1	1	759	1	Ⴜ	cut_k_stereo_44KHz.wav
1	164	3	4	2	I	2	0	1349	0	Ⴟ	cut_o_stereo_44KHz.wav
1	165	2	2	1	C	2	1	841	1	Ⴇ	cut_k_stereo_44KHz.wav
1	166	1	1	1	C	2	1	616	1	Ⴜ	cut_a_stereo_44KHz.wav
1	167	4	4	2	I	1	0	708	0	Ⴃ	cut_o_stereo_44KHz.wav
1	168	3	3	2	I	1	0	781	1	Ⴟ	cut_u_stereo_44KHz.wav
1	169	4	3	2	I	2	0	867	1	Ⴃ	cut_u_stereo_44KHz.wav
1	170	2	2	1	C	2	1	842	1	Ⴇ	cut_k_stereo_44KHz.wav
1	171	3	4	2	I	1	0	864	1	Ⴟ	cut_o_stereo_44KHz.wav
1	172	1	2	0	C	1	1	750	1	Ⴜ	cut_k_stereo_44KHz.wav
1	173	2	1	0	C	1	1	962	1	Ⴇ	cut_a_stereo_44KHz.wav
1	174	4	4	2	I	1	0	906	0	Ⴃ	cut_o_stereo_44KHz.wav
1	175	1	1	1	C	2	1	718	1	Ⴜ	cut_a_stereo_44KHz.wav
1	176	3	3	2	I	1	0	856	1	Ⴟ	cut_u_stereo_44KHz.wav
1	177	1	2	0	C	1	1	671	1	Ⴜ	cut_k_stereo_44KHz.wav
1	178	4	3	2	I	1	0	692	1	Ⴃ	cut_u_stereo_44KHz.wav
1	179	2	2	1	C	2	1	669	1	Ⴇ	cut_k_stereo_44KHz.wav
1	180	3	3	2	I	1	0	1041	1	Ⴟ	cut_u_stereo_44KHz.wav
1	181	2	1	0	C	1	1	816	1	Ⴇ	cut_a_stereo_44KHz.wav
1	182	4	4	2	I	1	0	1112	0	Ⴃ	cut_o_stereo_44KHz.wav
1	183	1	1	1	C	2	1	620	1	Ⴜ	cut_a_stereo_44KHz.wav
1	184	3	4	2	I	1	0	837	0	Ⴟ	cut_o_stereo_44KHz.wav
1	185	4	3	2	I	1	0	866	0	Ⴃ	cut_u_stereo_44KHz.wav
1	186	2	2	1	C	2	1	767	1	Ⴇ	cut_k_stereo_44KHz.wav
1	187	3	4	2	I	1	0	829	0	Ⴟ	cut_o_stereo_44KHz.wav
1	188	1	2	0	C	1	1	694	1	Ⴜ	cut_k_stereo_44KHz.wav
1	189	2	1	0	C	1	1	627	1	Ⴇ	cut_a_stereo_44KHz.wav
1	190	3	3	2	I	1	0	748	0	Ⴟ	cut_u_stereo_44KHz.wav
1	191	1	1	1	C	2	1	612	1	Ⴜ	cut_a_stereo_44KHz.wav
1	192	4	4	2	I	1	0	737	1	Ⴃ	cut_o_stereo_44KHz.wav
1	193	2	2	1	C	2	1	686	1	Ⴇ	cut_k_stereo_44KHz.wav
1	194	3	3	2	I	1	0	761	1	Ⴟ	cut_u_stereo_44KHz.wav
1	195	4	4	2	I	1	0	549	1	Ⴃ	cut_o_stereo_44KHz.wav
1	196	1	1	1	C	2	1	559	1	Ⴜ	cut_a_stereo_44KHz.wav
1	197	4	3	2	I	1	0	1289	0	Ⴃ	cut_u_stereo_44KHz.wav
1	198	1	2	0	C	1	1	654	1	Ⴜ	cut_k_stereo_44KHz.wav
1	199	2	1	0	C	1	1	589	1	Ⴇ	cut_a_stereo_44KHz.wav
1	200	3	4	2	I	2	0	633	0	Ⴟ	cut_o_stereo_44KHz.wav
2	1	3	3	2	I	1	0	908	1	Ⴏ	cut_l_stereo_44KHz.wav
2	2	2	1	0	C	1	1	633	1	Ⴔ	cut_h_stereo_44KHz.wav
2	3	1	2	0	C	1	1	534	1	Ⴒ	cut_w_stereo_44KHz.wav
2	4	4	3	2	I	1	0	585	0	Ⴉ	cut_l_stereo_44KHz.wav
2	5	3	4	2	I	2	0	687	1	Ⴏ	cut_g_stereo_44KHz.wav
2	6	4	4	2	I	1	0	694	1	Ⴉ	cut_g_stereo_44KHz.wav
2	7	2	2	1	C	1	0	1185	0	Ⴔ	cut_w_stereo_44KHz.wav
2	8	1	1	1	C	1	0	831	0	Ⴒ	cut_h_stereo_44KHz.wav
2	9	2	2	1	C	1	0	608	0	Ⴔ	cut_w_stereo_44KHz.wav
2	10	3	4	2	I	2	0	901	1	Ⴏ	cut_g_stereo_44KHz.wav
2	11	4	3	2	I	1	0	846	1	Ⴉ	cut_l_stereo_44KHz.wav
2	12	1	2	0	C	1	1	893	1	Ⴒ	cut_w_stereo_44KHz.wav
2	13	2	1	0	C	1	1	672	1	Ⴔ	cut_h_stereo_44KHz.wav
2	14	4	4	2	I	2	0	896	0	Ⴉ	cut_g_stereo_44KHz.wav
2	15	3	3	2	I	1	0	872	1	Ⴏ	cut_l_stereo_44KHz.wav
2	16	1	1	1	C	1	0	1067	0	Ⴒ	cut_h_stereo_44KHz.wav
2	17	4	4	2	I	2	0	930	1	Ⴉ	cut_g_stereo_44KHz.wav
2	18	1	2	0	C	1	1	1135	1	Ⴒ	cut_w_stereo_44KHz.wav
2	19	2	2	1	C	1	0	643	0	Ⴔ	cut_w_stereo_44KHz.wav
2	20	3	4	2	I	1	0	1477	0	Ⴏ	cut_g_stereo_44KHz.wav
2	21	2	1	0	C	1	1	723	1	Ⴔ	cut_h_stereo_44KHz.wav
2	22	1	1	1	C	2	1	897	1	Ⴒ	cut_h_stereo_44KHz.wav
2	23	3	3	2	I	1	0	676	0	Ⴏ	cut_l_stereo_44KHz.wav
2	24	4	3	2	I	1	0	494	0	Ⴉ	cut_l_stereo_44KHz.wav
2	25	1	2	0	C	1	1	734	1	Ⴒ	cut_w_stereo_44KHz.wav
2	26	4	4	2	I	2	0	852	0	Ⴉ	cut_g_stereo_44KHz.wav
2	27	2	1	0	C	1	1	626	1	Ⴔ	cut_h_stereo_44KHz.wav
2	28	3	3	2	I	1	0	617	0	Ⴏ	cut_l_stereo_44KHz.wav
2	29	4	3	2	I	1	0	518	0	Ⴉ	cut_l_stereo_44KHz.wav
2	30	2	2	1	C	2	1	1031	1	Ⴔ	cut_w_stereo_44KHz.wav
2	31	1	1	1	C	1	0	558	0	Ⴒ	cut_h_stereo_44KHz.wav
2	32	3	4	2	I	1	0	776	0	Ⴏ	cut_g_stereo_44KHz.wav
2	33	1	1	1	C	2	1	769	1	Ⴒ	cut_h_stereo_44KHz.wav
2	34	3	3	2	I	1	0	706	0	Ⴏ	cut_l_stereo_44KHz.wav
2	35	2	2	1	C	2	1	1036	1	Ⴔ	cut_w_stereo_44KHz.wav
2	36	4	4	2	I	2	0	962	0	Ⴉ	cut_g_stereo_44KHz.wav
2	37	3	4	2	I	2	0	1126	1	Ⴏ	cut_g_stereo_44KHz.wav
2	38	4	3	2	I	2	0	914	0	Ⴉ	cut_l_stereo_44KHz.wav
2	39	1	2	0	C	1	1	785	1	Ⴒ	cut_w_stereo_44KHz.wav
2	40	2	1	0	C	1	1	705	1	Ⴔ	cut_h_stereo_44KHz.wav
2	41	1	1	1	C	1	0	746	0	Ⴒ	cut_h_stereo_44KHz.wav
2	42	4	4	2	I	2	0	921	0	Ⴉ	cut_g_stereo_44KHz.wav
2	43	2	1	0	C	1	1	684	1	Ⴔ	cut_h_stereo_44KHz.wav
2	44	3	3	2	I	1	0	697	0	Ⴏ	cut_l_stereo_44KHz.wav
2	45	2	2	1	C	2	1	825	1	Ⴔ	cut_w_stereo_44KHz.wav
2	46	1	2	0	C	1	1	900	1	Ⴒ	cut_w_stereo_44KHz.wav
2	47	4	3	2	I	1	0	852	0	Ⴉ	cut_l_stereo_44KHz.wav
2	48	3	4	2	I	2	0	870	0	Ⴏ	cut_g_stereo_44KHz.wav
2	49	4	4	2	I	1	0	799	0	Ⴉ	cut_g_stereo_44KHz.wav
2	50	1	1	1	C	2	1	821	1	Ⴒ	cut_h_stereo_44KHz.wav
2	51	2	2	1	C	2	1	616	1	Ⴔ	cut_w_stereo_44KHz.wav
2	52	3	4	2	I	1	0	609	1	Ⴏ	cut_g_stereo_44KHz.wav
2	53	2	1	0	C	2	0	621	0	Ⴔ	cut_h_stereo_44KHz.wav
2	54	1	2	0	C	1	1	926	1	Ⴒ	cut_w_stereo_44KHz.wav
2	55	3	3	2	I	1	0	899	0	Ⴏ	cut_l_stereo_44KHz.wav
2	56	4	3	2	I	1	0	784	0	Ⴉ	cut_l_stereo_44KHz.wav
2	57	1	1	1	C	2	1	1043	1	Ⴒ	cut_h_stereo_44KHz.wav
2	58	4	3	2	I	1	0	646	0	Ⴉ	cut_l_stereo_44KHz.wav
2	59	3	3	2	I	1	0	634	1	Ⴏ	cut_l_stereo_44KHz.wav
2	60	2	2	1	C	2	1	808	1	Ⴔ	cut_w_stereo_44KHz.wav
2	61	4	4	2	I	2	0	871	1	Ⴉ	cut_g_stereo_44KHz.wav
2	62	1	2	0	C	1	1	857	1	Ⴒ	cut_w_stereo_44KHz.wav
2	63	3	4	2	I	1	0	1158	1	Ⴏ	cut_g_stereo_44KHz.wav
2	64	2	1	0	C	1	1	576	1	Ⴔ	cut_h_stereo_44KHz.wav
2	65	1	1	1	C	2	1	686	1	Ⴒ	cut_h_stereo_44KHz.wav
2	66	2	2	1	C	2	1	1051	1	Ⴔ	cut_w_stereo_44KHz.wav
2	67	3	3	2	I	1	0	706	1	Ⴏ	cut_l_stereo_44KHz.wav
2	68	4	4	2	I	1	0	744	0	Ⴉ	cut_g_stereo_44KHz.wav
2	69	2	1	0	C	1	1	614	1	Ⴔ	cut_h_stereo_44KHz.wav
2	70	1	2	0	C	1	1	837	1	Ⴒ	cut_w_stereo_44KHz.wav
2	71	4	3	2	I	1	0	1176	1	Ⴉ	cut_l_stereo_44KHz.wav
2	72	3	4	2	I	1	0	1071	0	Ⴏ	cut_g_stereo_44KHz.wav
2	73	2	1	0	C	1	1	681	1	Ⴔ	cut_h_stereo_44KHz.wav
2	74	3	3	2	I	1	0	1041	1	Ⴏ	cut_l_stereo_44KHz.wav
2	75	4	3	2	I	1	0	786	1	Ⴉ	cut_l_stereo_44KHz.wav
2	76	1	2	0	C	1	1	642	1	Ⴒ	cut_w_stereo_44KHz.wav
2	77	3	4	2	I	1	0	1175	0	Ⴏ	cut_g_stereo_44KHz.wav
2	78	4	4	2	I	2	0	985	1	Ⴉ	cut_g_stereo_44KHz.wav
2	79	2	2	1	C	1	0	843	0	Ⴔ	cut_w_stereo_44KHz.wav
2	80	1	1	1	C	2	1	630	1	Ⴒ	cut_h_stereo_44KHz.wav
2	81	3	4	2	I	1	0	1054	1	Ⴏ	cut_g_stereo_44KHz.wav
2	82	4	3	2	I	1	0	949	1	Ⴉ	cut_l_stereo_44KHz.wav
2	83	1	1	1	C	2	1	866	1	Ⴒ	cut_h_stereo_44KHz.wav
2	84	2	1	0	C	1	1	704	1	Ⴔ	cut_h_stereo_44KHz.wav
2	85	4	4	2	I	2	0	1252	0	Ⴉ	cut_g_stereo_44KHz.wav
2	86	1	2	0	C	1	1	771	1	Ⴒ	cut_w_stereo_44KHz.wav
2	87	2	2	1	C	2	1	1239	1	Ⴔ	cut_w_stereo_44KHz.wav
2	88	3	3	2	I	1	0	806	1	Ⴏ	cut_l_stereo_44KHz.wav
2	89	1	2	0	C	1	1	782	1	Ⴒ	cut_w_stereo_44KHz.wav
2	90	4	4	2	I	2	0	939	0	Ⴉ	cut_g_stereo_44KHz.wav
2	91	3	3	2	I	1	0	682	1	Ⴏ	cut_l_stereo_44KHz.wav
2	92	2	1	0	C	1	1	730	1	Ⴔ	cut_h_stereo_44KHz.wav
2	93	1	1	1	C	2	1	1082	1	Ⴒ	cut_h_stereo_44KHz.wav
2	94	4	3	2	I	1	0	825	0	Ⴉ	cut_l_stereo_44KHz.wav
2	95	3	4	2	I	2	0	910	0	Ⴏ	cut_g_stereo_44KHz.wav
2	96	2	2	1	C	2	1	1393	1	Ⴔ	cut_w_stereo_44KHz.wav
2	97	1	2	0	C	2	0	695	0	Ⴒ	cut_w_stereo_44KHz.wav
2	98	3	4	2	I	1	0	721	1	Ⴏ	cut_g_stereo_44KHz.wav
2	99	4	4	2	I	1	0	1125	1	Ⴉ	cut_g_stereo_44KHz.wav
2	100	2	2	1	C	2	1	784	1	Ⴔ	cut_w_stereo_44KHz.wav
2	101	1	1	1	C	1	0	577	0	Ⴒ	cut_h_stereo_44KHz.wav
2	102	2	1	0	C	1	1	889	1	Ⴔ	cut_h_stereo_44KHz.wav
2	103	3	3	2	I	2	0	1295	0	Ⴏ	cut_l_stereo_44KHz.wav
2	104	4	3	2	I	2	0	719	1	Ⴉ	cut_l_stereo_44KHz.wav
2	105	2	1	0	C	1	1	670	1	Ⴔ	cut_h_stereo_44KHz.wav
2	106	3	3	2	I	1	0	824	1	Ⴏ	cut_l_stereo_44KHz.wav
2	107	1	2	0	C	1	1	660	1	Ⴒ	cut_w_stereo_44KHz.wav
2	108	4	3	2	I	2	0	1069	1	Ⴉ	cut_l_stereo_44KHz.wav
2	109	3	4	2	I	1	0	1152	0	Ⴏ	cut_g_stereo_44KHz.wav
2	110	1	1	1	C	2	1	663	1	Ⴒ	cut_h_stereo_44KHz.wav
2	111	4	4	2	I	1	0	1399	1	Ⴉ	cut_g_stereo_44KHz.wav
2	112	2	2	1	C	2	1	853	1	Ⴔ	cut_w_stereo_44KHz.wav
2	113	4	3	2	I	2	0	843	0	Ⴉ	cut_l_stereo_44KHz.wav
2	114	3	4	2	I	1	0	1305	1	Ⴏ	cut_g_stereo_44KHz.wav
2	115	2	1	0	C	1	1	635	1	Ⴔ	cut_h_stereo_44KHz.wav
2	116	1	1	1	C	2	1	773	1	Ⴒ	cut_h_stereo_44KHz.wav
2	117	2	2	1	C	2	1	1031	1	Ⴔ	cut_w_stereo_44KHz.wav
2	118	3	3	2	I	1	0	970	1	Ⴏ	cut_l_stereo_44KHz.wav
2	119	1	2	0	C	1	1	866	1	Ⴒ	cut_w_stereo_44KHz.wav
2	120	4	4	2	I	2	0	1152	1	Ⴉ	cut_g_stereo_44KHz.wav
2	121	3	3	2	I	1	0	761	0	Ⴏ	cut_l_stereo_44KHz.wav
2	122	4	3	2	I	1	0	1108	1	Ⴉ	cut_l_stereo_44KHz.wav
2	123	1	2	0	C	1	1	745	1	Ⴒ	cut_w_stereo_44KHz.wav
2	124	2	1	0	C	1	1	854	1	Ⴔ	cut_h_stereo_44KHz.wav
2	125	4	4	2	I	2	0	690	0	Ⴉ	cut_g_stereo_44KHz.wav
2	126	1	1	1	C	2	1	860	1	Ⴒ	cut_h_stereo_44KHz.wav
2	127	3	4	2	I	1	0	928	0	Ⴏ	cut_g_stereo_44KHz.wav
2	128	2	2	1	C	2	1	1023	1	Ⴔ	cut_w_stereo_44KHz.wav
2	129	4	3	2	I	1	0	800	0	Ⴉ	cut_l_stereo_44KHz.wav
2	130	3	4	2	I	2	0	1640	0	Ⴏ	cut_g_stereo_44KHz.wav
2	131	2	1	0	C	1	1	1194	1	Ⴔ	cut_h_stereo_44KHz.wav
2	132	1	1	1	C	2	1	715	1	Ⴒ	cut_h_stereo_44KHz.wav
2	133	3	3	2	I	1	0	752	1	Ⴏ	cut_l_stereo_44KHz.wav
2	134	1	2	0	C	2	0	561	0	Ⴒ	cut_w_stereo_44KHz.wav
2	135	4	4	2	I	1	0	917	0	Ⴉ	cut_g_stereo_44KHz.wav
2	136	2	2	1	C	2	1	853	1	Ⴔ	cut_w_stereo_44KHz.wav
2	137	3	4	2	I	1	0	1064	1	Ⴏ	cut_g_stereo_44KHz.wav
2	138	2	2	1	C	2	1	999	1	Ⴔ	cut_w_stereo_44KHz.wav
2	139	4	4	2	I	2	0	1259	1	Ⴉ	cut_g_stereo_44KHz.wav
2	140	1	1	1	C	2	1	964	1	Ⴒ	cut_h_stereo_44KHz.wav
2	141	4	3	2	I	2	0	1194	1	Ⴉ	cut_l_stereo_44KHz.wav
2	142	2	1	0	C	1	1	785	1	Ⴔ	cut_h_stereo_44KHz.wav
2	143	3	3	2	I	1	0	1246	0	Ⴏ	cut_l_stereo_44KHz.wav
2	144	1	2	0	C	1	1	887	1	Ⴒ	cut_w_stereo_44KHz.wav
2	145	4	3	2	I	1	0	893	0	Ⴉ	cut_l_stereo_44KHz.wav
2	146	3	4	2	I	2	0	1738	0	Ⴏ	cut_g_stereo_44KHz.wav
2	147	2	2	1	C	2	1	807	1	Ⴔ	cut_w_stereo_44KHz.wav
2	148	1	2	0	C	1	1	810	1	Ⴒ	cut_w_stereo_44KHz.wav
2	149	2	1	0	C	1	1	760	1	Ⴔ	cut_h_stereo_44KHz.wav
2	150	4	4	2	I	2	0	1039	1	Ⴉ	cut_g_stereo_44KHz.wav
2	151	3	3	2	I	1	0	509	1	Ⴏ	cut_l_stereo_44KHz.wav
2	152	1	1	1	C	2	1	832	1	Ⴒ	cut_h_stereo_44KHz.wav
2	153	3	3	2	I	1	0	1095	1	Ⴏ	cut_l_stereo_44KHz.wav
2	154	4	3	2	I	2	0	954	1	Ⴉ	cut_l_stereo_44KHz.wav
2	155	1	1	1	C	2	1	760	1	Ⴒ	cut_h_stereo_44KHz.wav
2	156	2	2	1	C	1	0	911	0	Ⴔ	cut_w_stereo_44KHz.wav
2	157	3	4	2	I	2	0	740	1	Ⴏ	cut_g_stereo_44KHz.wav
2	158	1	2	0	C	1	1	717	1	Ⴒ	cut_w_stereo_44KHz.wav
2	159	2	1	0	C	1	1	1054	1	Ⴔ	cut_h_stereo_44KHz.wav
2	160	4	4	2	I	1	0	1030	0	Ⴉ	cut_g_stereo_44KHz.wav
2	161	2	2	1	C	2	1	812	1	Ⴔ	cut_w_stereo_44KHz.wav
2	162	4	4	2	I	1	0	818	0	Ⴉ	cut_g_stereo_44KHz.wav
2	163	3	4	2	I	1	0	850	0	Ⴏ	cut_g_stereo_44KHz.wav
2	164	1	2	0	C	1	1	768	1	Ⴒ	cut_w_stereo_44KHz.wav
2	165	2	1	0	C	1	1	846	1	Ⴔ	cut_h_stereo_44KHz.wav
2	166	1	1	1	C	2	1	1252	1	Ⴒ	cut_h_stereo_44KHz.wav
2	167	3	3	2	I	1	0	706	0	Ⴏ	cut_l_stereo_44KHz.wav
2	168	4	3	2	I	1	0	670	1	Ⴉ	cut_l_stereo_44KHz.wav
2	169	2	2	1	C	2	1	837	1	Ⴔ	cut_w_stereo_44KHz.wav
2	170	4	4	2	I	2	0	1608	0	Ⴉ	cut_g_stereo_44KHz.wav
2	171	3	3	2	I	1	0	612	0	Ⴏ	cut_l_stereo_44KHz.wav
2	172	1	2	0	C	1	1	793	1	Ⴒ	cut_w_stereo_44KHz.wav
2	173	4	3	2	I	1	0	822	1	Ⴉ	cut_l_stereo_44KHz.wav
2	174	3	4	2	I	1	0	720	0	Ⴏ	cut_g_stereo_44KHz.wav
2	175	1	1	1	C	1	0	569	0	Ⴒ	cut_h_stereo_44KHz.wav
2	176	2	1	0	C	1	1	668	1	Ⴔ	cut_h_stereo_44KHz.wav
2	177	3	4	2	I	2	0	846	1	Ⴏ	cut_g_stereo_44KHz.wav
2	178	4	3	2	I	2	0	1211	1	Ⴉ	cut_l_stereo_44KHz.wav
2	179	2	2	1	C	2	1	782	1	Ⴔ	cut_w_stereo_44KHz.wav
2	180	1	2	0	C	2	0	760	0	Ⴒ	cut_w_stereo_44KHz.wav
2	181	4	4	2	I	1	0	830	1	Ⴉ	cut_g_stereo_44KHz.wav
2	182	3	3	2	I	1	0	964	1	Ⴏ	cut_l_stereo_44KHz.wav
2	183	2	1	0	C	1	1	707	1	Ⴔ	cut_h_stereo_44KHz.wav
2	184	1	1	1	C	2	1	565	1	Ⴒ	cut_h_stereo_44KHz.wav
2	185	2	1	0	C	1	1	736	1	Ⴔ	cut_h_stereo_44KHz.wav
2	186	1	1	1	C	2	1	789	1	Ⴒ	cut_h_stereo_44KHz.wav
2	187	4	3	2	I	2	0	988	1	Ⴉ	cut_l_stereo_44KHz.wav
2	188	3	3	2	I	1	0	827	0	Ⴏ	cut_l_stereo_44KHz.wav
2	189	1	2	0	C	1	1	868	1	Ⴒ	cut_w_stereo_44KHz.wav
2	190	4	4	2	I	1	0	1177	1	Ⴉ	cut_g_stereo_44KHz.wav
2	191	3	4	2	I	2	0	972	1	Ⴏ	cut_g_stereo_44KHz.wav
2	192	2	2	1	C	2	1	778	1	Ⴔ	cut_w_stereo_44KHz.wav
2	193	4	3	2	I	1	0	873	0	Ⴉ	cut_l_stereo_44KHz.wav
2	194	1	2	0	C	2	0	717	0	Ⴒ	cut_w_stereo_44KHz.wav
2	195	2	2	1	C	2	1	833	1	Ⴔ	cut_w_stereo_44KHz.wav
2	196	3	3	2	I	1	0	735	0	Ⴏ	cut_l_stereo_44KHz.wav
2	197	1	1	1	C	2	1	955	1	Ⴒ	cut_h_stereo_44KHz.wav
2	198	2	1	0	C	1	1	907	1	Ⴔ	cut_h_stereo_44KHz.wav
2	199	4	4	2	I	1	0	854	1	Ⴉ	cut_g_stereo_44KHz.wav
2	200	3	4	2	I	2	0	954	0	Ⴏ	cut_g_stereo_44KHz.wav
3	1	4	4	2	I	1	0	827	0	Ⴁ	cut_oei_stereo_44KHz.wav
3	2	1	2	0	C	1	1	500	1	Ⴂ	cut_f_stereo_44KHz.wav
3	3	2	2	1	C	2	1	753	1	Ⴊ	cut_f_stereo_44KHz.wav
3	4	3	4	2	I	1	0	690	0	Ⴡ	cut_oei_stereo_44KHz.wav
3	5	4	3	2	I	1	0	683	1	Ⴁ	cut_ui_stereo_44KHz.wav
3	6	3	3	2	I	2	0	719	1	Ⴡ	cut_ui_stereo_44KHz.wav
3	7	1	1	1	C	2	1	1048	1	Ⴂ	cut_n_stereo_44KHz.wav
3	8	2	1	0	C	1	1	507	1	Ⴊ	cut_n_stereo_44KHz.wav
3	9	3	3	2	I	2	0	995	1	Ⴡ	cut_ui_stereo_44KHz.wav
3	10	2	2	1	C	2	1	821	1	Ⴊ	cut_f_stereo_44KHz.wav
3	11	1	1	1	C	2	1	867	1	Ⴂ	cut_n_stereo_44KHz.wav
3	12	4	3	2	I	1	0	787	0	Ⴁ	cut_ui_stereo_44KHz.wav
3	13	1	2	0	C	1	1	579	1	Ⴂ	cut_f_stereo_44KHz.wav
3	14	2	1	0	C	2	0	742	0	Ⴊ	cut_n_stereo_44KHz.wav
3	15	4	4	2	I	1	0	941	1	Ⴁ	cut_oei_stereo_44KHz.wav
3	16	3	4	2	I	2	0	838	0	Ⴡ	cut_oei_stereo_44KHz.wav
3	17	4	4	2	I	1	0	645	0	Ⴁ	cut_oei_stereo_44KHz.wav
3	18	3	4	2	I	1	0	654	1	Ⴡ	cut_oei_stereo_44KHz.wav
3	19	1	1	1	C	2	1	662	1	Ⴂ	cut_n_stereo_44KHz.wav
3	20	2	1	0	C	1	1	396	1	Ⴊ	cut_n_stereo_44KHz.wav
3	21	1	2	0	C	1	1	664	1	Ⴂ	cut_f_stereo_44KHz.wav
3	22	3	3	2	I	2	0	796	1	Ⴡ	cut_ui_stereo_44KHz.wav
3	23	2	2	1	C	2	1	768	1	Ⴊ	cut_f_stereo_44KHz.wav
3	24	4	3	2	I	1	0	860	1	Ⴁ	cut_ui_stereo_44KHz.wav
3	25	3	3	2	I	2	0	619	0	Ⴡ	cut_ui_stereo_44KHz.wav
3	26	2	1	0	C	1	1	788	1	Ⴊ	cut_n_stereo_44KHz.wav
3	27	4	3	2	I	1	0	670	0	Ⴁ	cut_ui_stereo_44KHz.wav
3	28	1	1	1	C	1	0	489	0	Ⴂ	cut_n_stereo_44KHz.wav
3	29	3	4	2	I	2	0	965	1	Ⴡ	cut_oei_stereo_44KHz.wav
3	30	4	4	2	I	2	0	1044	1	Ⴁ	cut_oei_stereo_44KHz.wav
3	31	2	2	1	C	2	1	723	1	Ⴊ	cut_f_stereo_44KHz.wav
3	32	1	2	0	C	1	1	786	1	Ⴂ	cut_f_stereo_44KHz.wav
3	33	4	3	2	I	1	0	852	0	Ⴁ	cut_ui_stereo_44KHz.wav
3	34	1	1	1	C	2	1	697	1	Ⴂ	cut_n_stereo_44KHz.wav
3	35	2	1	0	C	1	1	559	1	Ⴊ	cut_n_stereo_44KHz.wav
3	36	3	3	2	I	1	0	679	1	Ⴡ	cut_ui_stereo_44KHz.wav
3	37	2	2	1	C	2	1	682	1	Ⴊ	cut_f_stereo_44KHz.wav
3	38	1	2	0	C	1	1	591	1	Ⴂ	cut_f_stereo_44KHz.wav
3	39	3	4	2	I	2	0	826	1	Ⴡ	cut_oei_stereo_44KHz.wav
3	40	4	4	2	I	1	0	383	1	Ⴁ	cut_oei_stereo_44KHz.wav
3	41	1	1	1	C	2	1	488	1	Ⴂ	cut_n_stereo_44KHz.wav
3	42	3	3	2	I	1	0	871	0	Ⴡ	cut_ui_stereo_44KHz.wav
3	43	4	3	2	I	1	0	907	1	Ⴁ	cut_ui_stereo_44KHz.wav
3	44	2	1	0	C	1	1	402	1	Ⴊ	cut_n_stereo_44KHz.wav
3	45	4	4	2	I	1	0	751	1	Ⴁ	cut_oei_stereo_44KHz.wav
3	46	3	4	2	I	2	0	803	1	Ⴡ	cut_oei_stereo_44KHz.wav
3	47	2	2	1	C	2	1	667	1	Ⴊ	cut_f_stereo_44KHz.wav
3	48	1	2	0	C	1	1	642	1	Ⴂ	cut_f_stereo_44KHz.wav
3	49	2	2	1	C	2	1	641	1	Ⴊ	cut_f_stereo_44KHz.wav
3	50	4	4	2	I	1	0	1880	1	Ⴁ	cut_oei_stereo_44KHz.wav
3	51	1	1	1	C	2	1	835	1	Ⴂ	cut_n_stereo_44KHz.wav
3	52	3	4	2	I	1	0	1247	0	Ⴡ	cut_oei_stereo_44KHz.wav
3	53	1	2	0	C	1	1	715	1	Ⴂ	cut_f_stereo_44KHz.wav
3	54	3	3	2	I	1	0	803	0	Ⴡ	cut_ui_stereo_44KHz.wav
3	55	2	1	0	C	1	1	547	1	Ⴊ	cut_n_stereo_44KHz.wav
3	56	4	3	2	I	1	0	750	0	Ⴁ	cut_ui_stereo_44KHz.wav
3	57	2	1	0	C	1	1	644	1	Ⴊ	cut_n_stereo_44KHz.wav
3	58	1	2	0	C	1	1	746	1	Ⴂ	cut_f_stereo_44KHz.wav
3	59	4	3	2	I	1	0	902	1	Ⴁ	cut_ui_stereo_44KHz.wav
3	60	3	3	2	I	2	0	734	0	Ⴡ	cut_ui_stereo_44KHz.wav
3	61	2	2	1	C	2	1	719	1	Ⴊ	cut_f_stereo_44KHz.wav
3	62	4	4	2	I	1	0	746	1	Ⴁ	cut_oei_stereo_44KHz.wav
3	63	1	1	1	C	2	1	1061	1	Ⴂ	cut_n_stereo_44KHz.wav
3	64	3	4	2	I	2	0	1116	1	Ⴡ	cut_oei_stereo_44KHz.wav
3	65	2	1	0	C	1	1	641	1	Ⴊ	cut_n_stereo_44KHz.wav
3	66	3	3	2	I	1	0	796	1	Ⴡ	cut_ui_stereo_44KHz.wav
3	67	1	1	1	C	2	1	1013	1	Ⴂ	cut_n_stereo_44KHz.wav
3	68	4	4	2	I	1	0	791	1	Ⴁ	cut_oei_stereo_44KHz.wav
3	69	2	2	1	C	2	1	629	1	Ⴊ	cut_f_stereo_44KHz.wav
3	70	1	2	0	C	1	1	1185	1	Ⴂ	cut_f_stereo_44KHz.wav
3	71	4	3	2	I	2	0	1227	0	Ⴁ	cut_ui_stereo_44KHz.wav
3	72	3	4	2	I	2	0	1291	1	Ⴡ	cut_oei_stereo_44KHz.wav
3	73	1	1	1	C	2	1	835	1	Ⴂ	cut_n_stereo_44KHz.wav
3	74	3	4	2	I	1	0	710	1	Ⴡ	cut_oei_stereo_44KHz.wav
3	75	4	3	2	I	1	0	1258	0	Ⴁ	cut_ui_stereo_44KHz.wav
3	76	2	1	0	C	1	1	677	1	Ⴊ	cut_n_stereo_44KHz.wav
3	77	3	3	2	I	2	0	773	1	Ⴡ	cut_ui_stereo_44KHz.wav
3	78	2	2	1	C	2	1	659	1	Ⴊ	cut_f_stereo_44KHz.wav
3	79	4	4	2	I	1	0	709	1	Ⴁ	cut_oei_stereo_44KHz.wav
3	80	1	2	0	C	1	1	1104	1	Ⴂ	cut_f_stereo_44KHz.wav
3	81	3	3	2	I	1	0	1075	0	Ⴡ	cut_ui_stereo_44KHz.wav
3	82	4	4	2	I	1	0	863	1	Ⴁ	cut_oei_stereo_44KHz.wav
3	83	1	2	0	C	1	1	775	1	Ⴂ	cut_f_stereo_44KHz.wav
3	84	2	2	1	C	2	1	920	1	Ⴊ	cut_f_stereo_44KHz.wav
3	85	3	4	2	I	1	0	745	0	Ⴡ	cut_oei_stereo_44KHz.wav
3	86	4	3	2	I	1	0	797	0	Ⴁ	cut_ui_stereo_44KHz.wav
3	87	2	1	0	C	1	1	626	1	Ⴊ	cut_n_stereo_44KHz.wav
3	88	1	1	1	C	2	1	690	1	Ⴂ	cut_n_stereo_44KHz.wav
3	89	2	2	1	C	2	1	753	1	Ⴊ	cut_f_stereo_44KHz.wav
3	90	3	3	2	I	1	0	842	1	Ⴡ	cut_ui_stereo_44KHz.wav
3	91	1	2	0	C	1	1	625	1	Ⴂ	cut_f_stereo_44KHz.wav
3	92	4	4	2	I	1	0	658	0	Ⴁ	cut_oei_stereo_44KHz.wav
3	93	2	1	0	C	1	1	733	1	Ⴊ	cut_n_stereo_44KHz.wav
3	94	4	3	2	I	1	0	700	0	Ⴁ	cut_ui_stereo_44KHz.wav
3	95	3	4	2	I	1	0	962	0	Ⴡ	cut_oei_stereo_44KHz.wav
3	96	1	1	1	C	2	1	831	1	Ⴂ	cut_n_stereo_44KHz.wav
3	97	3	4	2	I	2	0	1293	0	Ⴡ	cut_oei_stereo_44KHz.wav
3	98	4	4	2	I	1	0	657	1	Ⴁ	cut_oei_stereo_44KHz.wav
3	99	1	1	1	C	2	1	787	1	Ⴂ	cut_n_stereo_44KHz.wav
3	100	2	2	1	C	2	1	654	1	Ⴊ	cut_f_stereo_44KHz.wav
3	101	1	2	0	C	1	1	746	1	Ⴂ	cut_f_stereo_44KHz.wav
3	102	3	3	2	I	2	0	897	0	Ⴡ	cut_ui_stereo_44KHz.wav
3	103	2	1	0	C	1	1	521	1	Ⴊ	cut_n_stereo_44KHz.wav
3	104	4	3	2	I	2	0	786	1	Ⴁ	cut_ui_stereo_44KHz.wav
3	105	2	2	1	C	2	1	648	1	Ⴊ	cut_f_stereo_44KHz.wav
3	106	1	2	0	C	1	1	1218	1	Ⴂ	cut_f_stereo_44KHz.wav
3	107	3	4	2	I	2	0	701	0	Ⴡ	cut_oei_stereo_44KHz.wav
3	108	4	4	2	I	1	0	612	0	Ⴁ	cut_oei_stereo_44KHz.wav
3	109	2	1	0	C	1	1	738	1	Ⴊ	cut_n_stereo_44KHz.wav
3	110	1	1	1	C	2	1	608	1	Ⴂ	cut_n_stereo_44KHz.wav
3	111	3	3	2	I	1	0	721	0	Ⴡ	cut_ui_stereo_44KHz.wav
3	112	4	3	2	I	1	0	980	1	Ⴁ	cut_ui_stereo_44KHz.wav
3	113	2	1	0	C	1	1	882	1	Ⴊ	cut_n_stereo_44KHz.wav
3	114	3	3	2	I	2	0	1087	1	Ⴡ	cut_ui_stereo_44KHz.wav
3	115	1	1	1	C	1	0	844	0	Ⴂ	cut_n_stereo_44KHz.wav
3	116	4	3	2	I	1	0	901	0	Ⴁ	cut_ui_stereo_44KHz.wav
3	117	2	2	1	C	2	1	645	1	Ⴊ	cut_f_stereo_44KHz.wav
3	118	3	4	2	I	2	0	928	1	Ⴡ	cut_oei_stereo_44KHz.wav
3	119	1	2	0	C	1	1	784	1	Ⴂ	cut_f_stereo_44KHz.wav
3	120	4	4	2	I	1	0	806	1	Ⴁ	cut_oei_stereo_44KHz.wav
3	121	2	2	1	C	2	1	684	1	Ⴊ	cut_f_stereo_44KHz.wav
3	122	1	2	0	C	1	1	777	1	Ⴂ	cut_f_stereo_44KHz.wav
3	123	4	3	2	I	1	0	761	1	Ⴁ	cut_ui_stereo_44KHz.wav
3	124	3	4	2	I	2	0	661	1	Ⴡ	cut_oei_stereo_44KHz.wav
3	125	4	4	2	I	2	0	828	0	Ⴁ	cut_oei_stereo_44KHz.wav
3	126	3	3	2	I	1	0	1075	0	Ⴡ	cut_ui_stereo_44KHz.wav
3	127	1	1	1	C	2	1	923	1	Ⴂ	cut_n_stereo_44KHz.wav
3	128	2	1	0	C	1	1	697	1	Ⴊ	cut_n_stereo_44KHz.wav
3	129	1	2	0	C	1	1	617	1	Ⴂ	cut_f_stereo_44KHz.wav
3	130	3	4	2	I	2	0	720	1	Ⴡ	cut_oei_stereo_44KHz.wav
3	131	2	2	1	C	2	1	761	1	Ⴊ	cut_f_stereo_44KHz.wav
3	132	4	4	2	I	1	0	759	1	Ⴁ	cut_oei_stereo_44KHz.wav
3	133	2	1	0	C	1	1	553	1	Ⴊ	cut_n_stereo_44KHz.wav
3	134	4	3	2	I	2	0	953	0	Ⴁ	cut_ui_stereo_44KHz.wav
3	135	1	1	1	C	1	0	663	0	Ⴂ	cut_n_stereo_44KHz.wav
3	136	3	3	2	I	1	0	918	0	Ⴡ	cut_ui_stereo_44KHz.wav
3	137	4	3	2	I	1	0	791	1	Ⴁ	cut_ui_stereo_44KHz.wav
3	138	1	2	0	C	1	1	593	1	Ⴂ	cut_f_stereo_44KHz.wav
3	139	2	2	1	C	2	1	711	1	Ⴊ	cut_f_stereo_44KHz.wav
3	140	3	3	2	I	1	0	768	1	Ⴡ	cut_ui_stereo_44KHz.wav
3	141	2	1	0	C	1	1	626	1	Ⴊ	cut_n_stereo_44KHz.wav
3	142	1	1	1	C	2	1	1064	1	Ⴂ	cut_n_stereo_44KHz.wav
3	143	3	4	2	I	1	0	792	1	Ⴡ	cut_oei_stereo_44KHz.wav
3	144	4	4	2	I	2	0	900	0	Ⴁ	cut_oei_stereo_44KHz.wav
3	145	3	4	2	I	1	0	1194	1	Ⴡ	cut_oei_stereo_44KHz.wav
3	146	2	1	0	C	2	0	849	0	Ⴊ	cut_n_stereo_44KHz.wav
3	147	1	1	1	C	2	1	600	1	Ⴂ	cut_n_stereo_44KHz.wav
3	148	4	3	2	I	1	0	817	1	Ⴁ	cut_ui_stereo_44KHz.wav
3	149	2	2	1	C	2	1	653	1	Ⴊ	cut_f_stereo_44KHz.wav
3	150	3	3	2	I	2	0	610	0	Ⴡ	cut_ui_stereo_44KHz.wav
3	151	4	4	2	I	1	0	628	1	Ⴁ	cut_oei_stereo_44KHz.wav
3	152	1	2	0	C	1	1	859	1	Ⴂ	cut_f_stereo_44KHz.wav
3	153	3	4	2	I	2	0	753	1	Ⴡ	cut_oei_stereo_44KHz.wav
3	154	1	1	1	C	2	1	746	1	Ⴂ	cut_n_stereo_44KHz.wav
3	155	4	4	2	I	1	0	612	0	Ⴁ	cut_oei_stereo_44KHz.wav
3	156	2	2	1	C	2	1	783	1	Ⴊ	cut_f_stereo_44KHz.wav
3	157	1	2	0	C	1	1	599	1	Ⴂ	cut_f_stereo_44KHz.wav
3	158	3	3	2	I	2	0	918	0	Ⴡ	cut_ui_stereo_44KHz.wav
3	159	4	3	2	I	1	0	738	0	Ⴁ	cut_ui_stereo_44KHz.wav
3	160	2	1	0	C	1	1	685	1	Ⴊ	cut_n_stereo_44KHz.wav
3	161	1	2	0	C	1	1	559	1	Ⴂ	cut_f_stereo_44KHz.wav
3	162	3	3	2	I	1	0	781	0	Ⴡ	cut_ui_stereo_44KHz.wav
3	163	4	4	2	I	1	0	871	1	Ⴁ	cut_oei_stereo_44KHz.wav
3	164	2	1	0	C	1	1	673	1	Ⴊ	cut_n_stereo_44KHz.wav
3	165	3	4	2	I	2	0	1097	0	Ⴡ	cut_oei_stereo_44KHz.wav
3	166	1	1	1	C	2	1	828	1	Ⴂ	cut_n_stereo_44KHz.wav
3	167	4	3	2	I	1	0	897	0	Ⴁ	cut_ui_stereo_44KHz.wav
3	168	2	2	1	C	2	1	704	1	Ⴊ	cut_f_stereo_44KHz.wav
3	169	1	1	1	C	2	1	893	1	Ⴂ	cut_n_stereo_44KHz.wav
3	170	3	3	2	I	1	0	879	0	Ⴡ	cut_ui_stereo_44KHz.wav
3	171	2	1	0	C	1	1	763	1	Ⴊ	cut_n_stereo_44KHz.wav
3	172	4	4	2	I	1	0	674	0	Ⴁ	cut_oei_stereo_44KHz.wav
3	173	2	2	1	C	2	1	704	1	Ⴊ	cut_f_stereo_44KHz.wav
3	174	4	3	2	I	1	0	935	0	Ⴁ	cut_ui_stereo_44KHz.wav
3	175	3	4	2	I	1	0	977	0	Ⴡ	cut_oei_stereo_44KHz.wav
3	176	1	2	0	C	1	1	701	1	Ⴂ	cut_f_stereo_44KHz.wav
3	177	3	4	2	I	1	0	793	1	Ⴡ	cut_oei_stereo_44KHz.wav
3	178	2	2	1	C	2	1	633	1	Ⴊ	cut_f_stereo_44KHz.wav
3	179	1	2	0	C	1	1	729	1	Ⴂ	cut_f_stereo_44KHz.wav
3	180	4	3	2	I	1	0	757	1	Ⴁ	cut_ui_stereo_44KHz.wav
3	181	2	1	0	C	1	1	734	1	Ⴊ	cut_n_stereo_44KHz.wav
3	182	4	4	2	I	2	0	874	0	Ⴁ	cut_oei_stereo_44KHz.wav
3	183	1	1	1	C	2	1	1654	1	Ⴂ	cut_n_stereo_44KHz.wav
3	184	3	3	2	I	1	0	855	1	Ⴡ	cut_ui_stereo_44KHz.wav
3	185	1	2	0	C	1	1	891	1	Ⴂ	cut_f_stereo_44KHz.wav
3	186	3	3	2	I	2	0	850	1	Ⴡ	cut_ui_stereo_44KHz.wav
3	187	4	4	2	I	2	0	964	1	Ⴁ	cut_oei_stereo_44KHz.wav
3	188	2	2	1	C	2	1	810	1	Ⴊ	cut_f_stereo_44KHz.wav
3	189	3	4	2	I	1	0	909	0	Ⴡ	cut_oei_stereo_44KHz.wav
3	190	2	1	0	C	1	1	687	1	Ⴊ	cut_n_stereo_44KHz.wav
3	191	1	1	1	C	2	1	1010	1	Ⴂ	cut_n_stereo_44KHz.wav
3	192	4	3	2	I	1	0	761	0	Ⴁ	cut_ui_stereo_44KHz.wav
3	193	2	2	1	C	2	1	700	1	Ⴊ	cut_f_stereo_44KHz.wav
3	194	3	4	2	I	1	0	764	0	Ⴡ	cut_oei_stereo_44KHz.wav
3	195	4	4	2	I	1	0	705	0	Ⴁ	cut_oei_stereo_44KHz.wav
3	196	1	1	1	C	2	1	866	1	Ⴂ	cut_n_stereo_44KHz.wav
3	197	4	3	2	I	1	0	1014	0	Ⴁ	cut_ui_stereo_44KHz.wav
3	198	3	3	2	I	1	0	694	0	Ⴡ	cut_ui_stereo_44KHz.wav
3	199	1	2	0	C	1	1	908	1	Ⴂ	cut_f_stereo_44KHz.wav
3	200	2	1	0	C	1	1	732	1	Ⴊ	cut_n_stereo_44KHz.wav
4	1	3	4	2	I	1	0	721	0	Ⴌ	cut_ei_stereo_44KHz.wav
4	2	2	2	1	C	1	0	501	0	Ⴐ	cut_r_stereo_44KHz.wav
4	3	4	4	2	I	1	0	318	1	Ⴖ	cut_ei_stereo_44KHz.wav
4	4	1	1	1	C	1	0	746	0	Ⴕ	cut_j_stereo_44KHz.wav
4	5	2	1	0	C	2	0	705	0	Ⴐ	cut_j_stereo_44KHz.wav
4	6	3	3	2	I	1	0	536	0	Ⴌ	cut_s_stereo_44KHz.wav
4	7	1	2	0	C	1	1	848	1	Ⴕ	cut_r_stereo_44KHz.wav
4	8	4	3	2	I	2	0	1039	0	Ⴖ	cut_s_stereo_44KHz.wav
4	9	2	1	0	C	1	1	495	1	Ⴐ	cut_j_stereo_44KHz.wav
4	10	4	4	2	I	1	0	608	0	Ⴖ	cut_ei_stereo_44KHz.wav
4	11	1	2	0	C	1	1	677	1	Ⴕ	cut_r_stereo_44KHz.wav
4	12	3	3	2	I	1	0	731	1	Ⴌ	cut_s_stereo_44KHz.wav
4	13	1	1	1	C	2	1	841	1	Ⴕ	cut_j_stereo_44KHz.wav
4	14	3	4	2	I	1	0	583	0	Ⴌ	cut_ei_stereo_44KHz.wav
4	15	2	2	1	C	2	1	730	1	Ⴐ	cut_r_stereo_44KHz.wav
4	16	4	3	2	I	2	0	769	0	Ⴖ	cut_s_stereo_44KHz.wav
4	17	2	1	0	C	1	1	601	1	Ⴐ	cut_j_stereo_44KHz.wav
4	18	4	3	2	I	2	0	861	1	Ⴖ	cut_s_stereo_44KHz.wav
4	19	3	4	2	I	1	0	638	1	Ⴌ	cut_ei_stereo_44KHz.wav
4	20	1	2	0	C	1	1	763	1	Ⴕ	cut_r_stereo_44KHz.wav
4	21	2	2	1	C	2	1	713	1	Ⴐ	cut_r_stereo_44KHz.wav
4	22	1	1	1	C	1	0	628	0	Ⴕ	cut_j_stereo_44KHz.wav
4	23	4	4	2	I	1	0	727	1	Ⴖ	cut_ei_stereo_44KHz.wav
4	24	3	3	2	I	1	0	717	0	Ⴌ	cut_s_stereo_44KHz.wav
4	25	4	3	2	I	1	0	976	0	Ⴖ	cut_s_stereo_44KHz.wav
4	26	3	3	2	I	1	0	636	0	Ⴌ	cut_s_stereo_44KHz.wav
4	27	2	1	0	C	1	1	561	1	Ⴐ	cut_j_stereo_44KHz.wav
4	28	1	1	1	C	2	1	632	1	Ⴕ	cut_j_stereo_44KHz.wav
4	29	2	2	1	C	2	1	725	1	Ⴐ	cut_r_stereo_44KHz.wav
4	30	4	4	2	I	1	0	652	0	Ⴖ	cut_ei_stereo_44KHz.wav
4	31	1	2	0	C	1	1	838	1	Ⴕ	cut_r_stereo_44KHz.wav
4	32	3	4	2	I	1	0	582	0	Ⴌ	cut_ei_stereo_44KHz.wav
4	33	1	2	0	C	1	1	639	1	Ⴕ	cut_r_stereo_44KHz.wav
4	34	4	4	2	I	1	0	555	1	Ⴖ	cut_ei_stereo_44KHz.wav
4	35	2	2	1	C	2	1	771	1	Ⴐ	cut_r_stereo_44KHz.wav
4	36	3	3	2	I	1	0	671	1	Ⴌ	cut_s_stereo_44KHz.wav
4	37	2	1	0	C	1	1	578	1	Ⴐ	cut_j_stereo_44KHz.wav
4	38	3	4	2	I	1	0	1129	0	Ⴌ	cut_ei_stereo_44KHz.wav
4	39	1	1	1	C	2	1	805	1	Ⴕ	cut_j_stereo_44KHz.wav
4	40	4	3	2	I	1	0	781	1	Ⴖ	cut_s_stereo_44KHz.wav
4	41	3	4	2	I	1	0	1025	1	Ⴌ	cut_ei_stereo_44KHz.wav
4	42	2	2	1	C	2	1	886	1	Ⴐ	cut_r_stereo_44KHz.wav
4	43	4	3	2	I	1	0	1191	0	Ⴖ	cut_s_stereo_44KHz.wav
4	44	1	1	1	C	2	1	751	1	Ⴕ	cut_j_stereo_44KHz.wav
4	45	3	3	2	I	1	0	556	0	Ⴌ	cut_s_stereo_44KHz.wav
4	46	2	1	0	C	1	1	564	1	Ⴐ	cut_j_stereo_44KHz.wav
4	47	4	4	2	I	1	0	667	1	Ⴖ	cut_ei_stereo_44KHz.wav
4	48	1	2	0	C	1	1	748	1	Ⴕ	cut_r_stereo_44KHz.wav
4	49	4	4	2	I	2	0	888	0	Ⴖ	cut_ei_stereo_44KHz.wav
4	50	3	3	2	I	1	0	688	0	Ⴌ	cut_s_stereo_44KHz.wav
4	51	1	1	1	C	2	1	790	1	Ⴕ	cut_j_stereo_44KHz.wav
4	52	2	1	0	C	1	1	368	1	Ⴐ	cut_j_stereo_44KHz.wav
4	53	4	3	2	I	1	0	544	1	Ⴖ	cut_s_stereo_44KHz.wav
4	54	3	4	2	I	1	0	774	0	Ⴌ	cut_ei_stereo_44KHz.wav
4	55	1	2	0	C	1	1	696	1	Ⴕ	cut_r_stereo_44KHz.wav
4	56	2	2	1	C	2	1	636	1	Ⴐ	cut_r_stereo_44KHz.wav
4	57	1	2	0	C	1	1	1183	1	Ⴕ	cut_r_stereo_44KHz.wav
4	58	3	4	2	I	1	0	1196	1	Ⴌ	cut_ei_stereo_44KHz.wav
4	59	4	3	2	I	1	0	615	1	Ⴖ	cut_s_stereo_44KHz.wav
4	60	2	1	0	C	1	1	578	1	Ⴐ	cut_j_stereo_44KHz.wav
4	61	1	1	1	C	2	1	1000	1	Ⴕ	cut_j_stereo_44KHz.wav
4	62	4	4	2	I	1	0	777	1	Ⴖ	cut_ei_stereo_44KHz.wav
4	63	3	3	2	I	1	0	514	1	Ⴌ	cut_s_stereo_44KHz.wav
4	64	2	2	1	C	2	1	640	1	Ⴐ	cut_r_stereo_44KHz.wav
4	65	3	3	2	I	1	0	964	0	Ⴌ	cut_s_stereo_44KHz.wav
4	66	4	3	2	I	1	0	667	0	Ⴖ	cut_s_stereo_44KHz.wav
4	67	1	2	0	C	1	1	684	1	Ⴕ	cut_r_stereo_44KHz.wav
4	68	2	2	1	C	2	1	989	1	Ⴐ	cut_r_stereo_44KHz.wav
4	69	3	4	2	I	1	0	731	1	Ⴌ	cut_ei_stereo_44KHz.wav
4	70	4	4	2	I	1	0	836	0	Ⴖ	cut_ei_stereo_44KHz.wav
4	71	2	1	0	C	1	1	572	1	Ⴐ	cut_j_stereo_44KHz.wav
4	72	1	1	1	C	2	1	681	1	Ⴕ	cut_j_stereo_44KHz.wav
4	73	2	1	0	C	1	1	658	1	Ⴐ	cut_j_stereo_44KHz.wav
4	74	4	3	2	I	1	0	645	0	Ⴖ	cut_s_stereo_44KHz.wav
4	75	3	3	2	I	1	0	650	0	Ⴌ	cut_s_stereo_44KHz.wav
4	76	1	2	0	C	1	1	714	1	Ⴕ	cut_r_stereo_44KHz.wav
4	77	4	4	2	I	1	0	600	0	Ⴖ	cut_ei_stereo_44KHz.wav
4	78	2	2	1	C	1	0	683	0	Ⴐ	cut_r_stereo_44KHz.wav
4	79	3	4	2	I	1	0	826	1	Ⴌ	cut_ei_stereo_44KHz.wav
4	80	1	1	1	C	2	1	864	1	Ⴕ	cut_j_stereo_44KHz.wav
4	81	3	4	2	I	1	0	1006	1	Ⴌ	cut_ei_stereo_44KHz.wav
4	82	2	2	1	C	2	1	653	1	Ⴐ	cut_r_stereo_44KHz.wav
4	83	4	4	2	I	2	0	948	0	Ⴖ	cut_ei_stereo_44KHz.wav
4	84	1	2	0	C	1	1	816	1	Ⴕ	cut_r_stereo_44KHz.wav
4	85	4	3	2	I	1	0	725	1	Ⴖ	cut_s_stereo_44KHz.wav
4	86	2	1	0	C	1	1	680	1	Ⴐ	cut_j_stereo_44KHz.wav
4	87	3	3	2	I	2	0	607	1	Ⴌ	cut_s_stereo_44KHz.wav
4	88	1	1	1	C	2	1	826	1	Ⴕ	cut_j_stereo_44KHz.wav
4	89	3	3	2	I	1	0	782	1	Ⴌ	cut_s_stereo_44KHz.wav
4	90	4	3	2	I	2	0	770	1	Ⴖ	cut_s_stereo_44KHz.wav
4	91	2	1	0	C	1	1	790	1	Ⴐ	cut_j_stereo_44KHz.wav
4	92	1	2	0	C	1	1	663	1	Ⴕ	cut_r_stereo_44KHz.wav
4	93	2	2	1	C	2	1	638	1	Ⴐ	cut_r_stereo_44KHz.wav
4	94	4	4	2	I	1	0	759	0	Ⴖ	cut_ei_stereo_44KHz.wav
4	95	3	4	2	I	1	0	618	0	Ⴌ	cut_ei_stereo_44KHz.wav
4	96	1	1	1	C	2	1	818	1	Ⴕ	cut_j_stereo_44KHz.wav
4	97	2	2	1	C	2	1	628	1	Ⴐ	cut_r_stereo_44KHz.wav
4	98	1	2	0	C	1	1	872	1	Ⴕ	cut_r_stereo_44KHz.wav
4	99	3	3	2	I	1	0	701	0	Ⴌ	cut_s_stereo_44KHz.wav
4	100	4	3	2	I	2	0	663	0	Ⴖ	cut_s_stereo_44KHz.wav
4	101	3	4	2	I	1	0	840	1	Ⴌ	cut_ei_stereo_44KHz.wav
4	102	1	1	1	C	2	1	710	1	Ⴕ	cut_j_stereo_44KHz.wav
4	103	2	1	0	C	1	1	927	1	Ⴐ	cut_j_stereo_44KHz.wav
4	104	4	4	2	I	1	0	765	1	Ⴖ	cut_ei_stereo_44KHz.wav
4	105	2	1	0	C	2	0	524	0	Ⴐ	cut_j_stereo_44KHz.wav
4	106	3	3	2	I	1	0	712	1	Ⴌ	cut_s_stereo_44KHz.wav
4	107	1	1	1	C	2	1	843	1	Ⴕ	cut_j_stereo_44KHz.wav
4	108	4	3	2	I	2	0	1199	0	Ⴖ	cut_s_stereo_44KHz.wav
4	109	1	2	0	C	1	1	653	1	Ⴕ	cut_r_stereo_44KHz.wav
4	110	3	4	2	I	1	0	818	1	Ⴌ	cut_ei_stereo_44KHz.wav
4	111	4	4	2	I	2	0	716	1	Ⴖ	cut_ei_stereo_44KHz.wav
4	112	2	2	1	C	2	1	806	1	Ⴐ	cut_r_stereo_44KHz.wav
4	113	4	4	2	I	1	0	673	1	Ⴖ	cut_ei_stereo_44KHz.wav
4	114	1	2	0	C	2	0	476	0	Ⴕ	cut_r_stereo_44KHz.wav
4	115	2	1	0	C	1	1	555	1	Ⴐ	cut_j_stereo_44KHz.wav
4	116	3	4	2	I	1	0	867	0	Ⴌ	cut_ei_stereo_44KHz.wav
4	117	2	2	1	C	2	1	801	1	Ⴐ	cut_r_stereo_44KHz.wav
4	118	3	3	2	I	1	0	721	1	Ⴌ	cut_s_stereo_44KHz.wav
4	119	4	3	2	I	2	0	796	1	Ⴖ	cut_s_stereo_44KHz.wav
4	120	1	1	1	C	2	1	744	1	Ⴕ	cut_j_stereo_44KHz.wav
4	121	4	3	2	I	1	0	795	0	Ⴖ	cut_s_stereo_44KHz.wav
4	122	2	1	0	C	1	1	750	1	Ⴐ	cut_j_stereo_44KHz.wav
4	123	1	1	1	C	2	1	900	1	Ⴕ	cut_j_stereo_44KHz.wav
4	124	3	3	2	I	1	0	658	0	Ⴌ	cut_s_stereo_44KHz.wav
4	125	1	2	0	C	1	1	694	1	Ⴕ	cut_r_stereo_44KHz.wav
4	126	3	4	2	I	1	0	854	1	Ⴌ	cut_ei_stereo_44KHz.wav
4	127	2	2	1	C	2	1	808	1	Ⴐ	cut_r_stereo_44KHz.wav
4	128	4	4	2	I	1	0	872	1	Ⴖ	cut_ei_stereo_44KHz.wav
4	129	3	4	2	I	2	0	760	0	Ⴌ	cut_ei_stereo_44KHz.wav
4	130	1	2	0	C	1	1	567	1	Ⴕ	cut_r_stereo_44KHz.wav
4	131	2	2	1	C	2	1	688	1	Ⴐ	cut_r_stereo_44KHz.wav
4	132	4	4	2	I	1	0	642	1	Ⴖ	cut_ei_stereo_44KHz.wav
4	133	2	1	0	C	1	1	577	1	Ⴐ	cut_j_stereo_44KHz.wav
4	134	1	1	1	C	2	1	842	1	Ⴕ	cut_j_stereo_44KHz.wav
4	135	4	3	2	I	1	0	679	0	Ⴖ	cut_s_stereo_44KHz.wav
4	136	3	3	2	I	1	0	587	1	Ⴌ	cut_s_stereo_44KHz.wav
4	137	1	1	1	C	1	0	721	0	Ⴕ	cut_j_stereo_44KHz.wav
4	138	3	4	2	I	1	0	817	1	Ⴌ	cut_ei_stereo_44KHz.wav
4	139	2	2	1	C	2	1	733	1	Ⴐ	cut_r_stereo_44KHz.wav
4	140	4	4	2	I	2	0	935	1	Ⴖ	cut_ei_stereo_44KHz.wav
4	141	2	1	0	C	1	1	588	1	Ⴐ	cut_j_stereo_44KHz.wav
4	142	1	2	0	C	1	1	591	1	Ⴕ	cut_r_stereo_44KHz.wav
4	143	3	3	2	I	1	0	1351	0	Ⴌ	cut_s_stereo_44KHz.wav
4	144	4	3	2	I	1	0	955	1	Ⴖ	cut_s_stereo_44KHz.wav
4	145	3	4	2	I	1	0	601	1	Ⴌ	cut_ei_stereo_44KHz.wav
4	146	2	1	0	C	1	1	590	1	Ⴐ	cut_j_stereo_44KHz.wav
4	147	4	3	2	I	2	0	888	0	Ⴖ	cut_s_stereo_44KHz.wav
4	148	1	1	1	C	2	1	769	1	Ⴕ	cut_j_stereo_44KHz.wav
4	149	4	4	2	I	1	0	644	0	Ⴖ	cut_ei_stereo_44KHz.wav
4	150	1	2	0	C	1	1	648	1	Ⴕ	cut_r_stereo_44KHz.wav
4	151	2	2	1	C	2	1	698	1	Ⴐ	cut_r_stereo_44KHz.wav
4	152	3	3	2	I	1	0	860	0	Ⴌ	cut_s_stereo_44KHz.wav
4	153	4	3	2	I	1	0	431	0	Ⴖ	cut_s_stereo_44KHz.wav
4	154	1	2	0	C	1	1	692	1	Ⴕ	cut_r_stereo_44KHz.wav
4	155	3	4	2	I	1	0	1082	0	Ⴌ	cut_ei_stereo_44KHz.wav
4	156	2	1	0	C	1	1	650	1	Ⴐ	cut_j_stereo_44KHz.wav
4	157	4	4	2	I	1	0	1155	1	Ⴖ	cut_ei_stereo_44KHz.wav
4	158	2	2	1	C	1	0	560	0	Ⴐ	cut_r_stereo_44KHz.wav
4	159	1	1	1	C	2	1	731	1	Ⴕ	cut_j_stereo_44KHz.wav
4	160	3	3	2	I	1	0	713	1	Ⴌ	cut_s_stereo_44KHz.wav
4	161	4	3	2	I	2	0	698	1	Ⴖ	cut_s_stereo_44KHz.wav
4	162	1	1	1	C	2	1	866	1	Ⴕ	cut_j_stereo_44KHz.wav
4	163	2	2	1	C	2	1	729	1	Ⴐ	cut_r_stereo_44KHz.wav
4	164	3	4	2	I	1	0	940	1	Ⴌ	cut_ei_stereo_44KHz.wav
4	165	4	4	2	I	2	0	560	0	Ⴖ	cut_ei_stereo_44KHz.wav
4	166	2	1	0	C	1	1	565	1	Ⴐ	cut_j_stereo_44KHz.wav
4	167	1	2	0	C	1	1	732	1	Ⴕ	cut_r_stereo_44KHz.wav
4	168	3	3	2	I	1	0	758	0	Ⴌ	cut_s_stereo_44KHz.wav
4	169	2	1	0	C	1	1	603	1	Ⴐ	cut_j_stereo_44KHz.wav
4	170	4	3	2	I	1	0	734	1	Ⴖ	cut_s_stereo_44KHz.wav
4	171	3	3	2	I	2	0	778	0	Ⴌ	cut_s_stereo_44KHz.wav
4	172	1	1	1	C	2	1	804	1	Ⴕ	cut_j_stereo_44KHz.wav
4	173	2	2	1	C	2	1	754	1	Ⴐ	cut_r_stereo_44KHz.wav
4	174	4	4	2	I	1	0	977	0	Ⴖ	cut_ei_stereo_44KHz.wav
4	175	1	2	0	C	1	1	650	1	Ⴕ	cut_r_stereo_44KHz.wav
4	176	3	4	2	I	2	0	776	1	Ⴌ	cut_ei_stereo_44KHz.wav
4	177	4	4	2	I	2	0	593	0	Ⴖ	cut_ei_stereo_44KHz.wav
4	178	2	1	0	C	1	1	557	1	Ⴐ	cut_j_stereo_44KHz.wav
4	179	1	1	1	C	2	1	849	1	Ⴕ	cut_j_stereo_44KHz.wav
4	180	3	4	2	I	1	0	515	0	Ⴌ	cut_ei_stereo_44KHz.wav
4	181	2	2	1	C	2	1	882	1	Ⴐ	cut_r_stereo_44KHz.wav
4	182	3	3	2	I	1	0	765	1	Ⴌ	cut_s_stereo_44KHz.wav
4	183	4	3	2	I	1	0	409	1	Ⴖ	cut_s_stereo_44KHz.wav
4	184	1	2	0	C	1	1	744	1	Ⴕ	cut_r_stereo_44KHz.wav
4	185	4	4	2	I	1	0	801	1	Ⴖ	cut_ei_stereo_44KHz.wav
4	186	1	1	1	C	2	1	739	1	Ⴕ	cut_j_stereo_44KHz.wav
4	187	2	2	1	C	2	1	675	1	Ⴐ	cut_r_stereo_44KHz.wav
4	188	3	3	2	I	1	0	697	1	Ⴌ	cut_s_stereo_44KHz.wav
4	189	4	3	2	I	1	0	569	0	Ⴖ	cut_s_stereo_44KHz.wav
4	190	1	2	0	C	1	1	1102	1	Ⴕ	cut_r_stereo_44KHz.wav
4	191	2	1	0	C	1	1	694	1	Ⴐ	cut_j_stereo_44KHz.wav
4	192	3	4	2	I	1	0	689	1	Ⴌ	cut_ei_stereo_44KHz.wav
4	193	4	3	2	I	2	0	423	1	Ⴖ	cut_s_stereo_44KHz.wav
4	194	1	1	1	C	2	1	1107	1	Ⴕ	cut_j_stereo_44KHz.wav
4	195	3	4	2	I	1	0	657	0	Ⴌ	cut_ei_stereo_44KHz.wav
4	196	2	1	0	C	1	1	577	1	Ⴐ	cut_j_stereo_44KHz.wav
4	197	4	4	2	I	1	0	1081	0	Ⴖ	cut_ei_stereo_44KHz.wav
4	198	1	2	0	C	1	1	752	1	Ⴕ	cut_r_stereo_44KHz.wav
4	199	3	3	2	I	1	0	679	0	Ⴌ	cut_s_stereo_44KHz.wav
4	200	2	2	1	C	2	1	823	1	Ⴐ	cut_r_stereo_44KHz.wav
