block	trial	Vstim	Astim	match	C/I	resp	result	RT	fb	V-file	A-file
RL

0	1	2	3	1	C	0	0	0	0	Ⴞ	cut_ee_stereo_44KHz.wav
0	2	1	1	1	C	0	0	0	0	Ⴋ	cut_eeuw_stereo_44KHz.wav
0	3	2	4	0	C	1	0	1266	0	Ⴞ	cut_oo_stereo_44KHz.wav
0	4	1	2	0	C	2	1	1072	1	Ⴋ	cut_g_stereo_44KHz.wav
0	5	1	2	0	C	1	0	1291	0	Ⴋ	cut_g_stereo_44KHz.wav
0	6	2	4	0	C	1	0	894	0	Ⴞ	cut_oo_stereo_44KHz.wav
0	7	1	1	1	C	1	1	1912	1	Ⴋ	cut_eeuw_stereo_44KHz.wav
0	8	2	3	1	C	2	0	819	0	Ⴞ	cut_ee_stereo_44KHz.wav
0	9	1	2	0	C	2	1	849	1	Ⴋ	cut_g_stereo_44KHz.wav
0	10	1	1	1	C	0	0	0	0	Ⴋ	cut_eeuw_stereo_44KHz.wav
0	11	2	3	1	C	2	0	1337	0	Ⴞ	cut_ee_stereo_44KHz.wav
0	12	2	4	0	C	2	1	982	1	Ⴞ	cut_oo_stereo_44KHz.wav
0	13	2	3	1	C	1	1	1068	1	Ⴞ	cut_ee_stereo_44KHz.wav
0	14	1	2	0	C	0	0	0	0	Ⴋ	cut_g_stereo_44KHz.wav
0	15	1	1	1	C	1	1	1336	1	Ⴋ	cut_eeuw_stereo_44KHz.wav
0	16	2	4	0	C	2	1	1792	1	Ⴞ	cut_oo_stereo_44KHz.wav
0	17	1	2	0	C	1	0	670	0	Ⴋ	cut_g_stereo_44KHz.wav
0	18	1	1	1	C	2	0	1178	0	Ⴋ	cut_eeuw_stereo_44KHz.wav
0	19	2	3	1	C	1	1	1086	1	Ⴞ	cut_ee_stereo_44KHz.wav
0	20	2	4	0	C	1	0	1292	0	Ⴞ	cut_oo_stereo_44KHz.wav
0	21	2	3	1	C	1	1	1631	1	Ⴞ	cut_ee_stereo_44KHz.wav
0	22	1	2	0	C	2	1	1089	1	Ⴋ	cut_g_stereo_44KHz.wav
0	23	1	1	1	C	1	1	1449	1	Ⴋ	cut_eeuw_stereo_44KHz.wav
0	24	2	4	0	C	2	1	1555	1	Ⴞ	cut_oo_stereo_44KHz.wav
0	25	1	1	1	C	1	1	1223	1	Ⴋ	cut_eeuw_stereo_44KHz.wav
0	26	2	3	1	C	1	1	1492	1	Ⴞ	cut_ee_stereo_44KHz.wav
0	27	2	4	0	C	2	1	1095	1	Ⴞ	cut_oo_stereo_44KHz.wav
0	28	1	2	0	C	2	1	1323	1	Ⴋ	cut_g_stereo_44KHz.wav
0	29	2	3	1	C	1	1	1504	1	Ⴞ	cut_ee_stereo_44KHz.wav
0	30	1	1	1	C	1	1	1545	1	Ⴋ	cut_eeuw_stereo_44KHz.wav
avg_resp = 1334
1	1	2	1	0	C	2	1	1462	1	Ⴂ	cut_oei_stereo_44KHz.wav
1	2	4	3	2	I	1	0	1476	0	Ⴃ	cut_f_stereo_44KHz.wav
1	3	1	2	0	C	2	1	1159	1	Ⴜ	cut_r_stereo_44KHz.wav
1	4	3	3	2	I	1	0	1232	0	Ⴡ	cut_f_stereo_44KHz.wav
1	5	1	1	1	C	2	0	942	0	Ⴜ	cut_oei_stereo_44KHz.wav
1	6	3	4	2	I	1	0	1800	0	Ⴡ	cut_ei_stereo_44KHz.wav
1	7	2	2	1	C	2	0	1326	0	Ⴂ	cut_r_stereo_44KHz.wav
1	8	4	4	2	I	1	0	1336	1	Ⴃ	cut_ei_stereo_44KHz.wav
1	9	3	3	2	I	1	0	1415	1	Ⴡ	cut_f_stereo_44KHz.wav
1	10	1	2	0	C	2	1	1057	1	Ⴜ	cut_r_stereo_44KHz.wav
1	11	2	1	0	C	2	1	841	1	Ⴂ	cut_oei_stereo_44KHz.wav
1	12	4	4	2	I	1	0	911	1	Ⴃ	cut_ei_stereo_44KHz.wav
1	13	3	4	2	I	2	0	1255	1	Ⴡ	cut_ei_stereo_44KHz.wav
1	14	1	1	1	C	1	1	1141	1	Ⴜ	cut_oei_stereo_44KHz.wav
1	15	4	3	2	I	2	0	736	0	Ⴃ	cut_f_stereo_44KHz.wav
1	16	2	2	1	C	1	1	950	1	Ⴂ	cut_r_stereo_44KHz.wav
1	17	1	1	1	C	1	1	907	1	Ⴜ	cut_oei_stereo_44KHz.wav
1	18	2	2	1	C	1	1	1766	1	Ⴂ	cut_r_stereo_44KHz.wav
1	19	4	3	2	I	1	0	982	0	Ⴃ	cut_f_stereo_44KHz.wav
1	20	3	3	2	I	1	0	991	1	Ⴡ	cut_f_stereo_44KHz.wav
1	21	4	4	2	I	1	0	1057	1	Ⴃ	cut_ei_stereo_44KHz.wav
1	22	1	2	0	C	2	1	1197	1	Ⴜ	cut_r_stereo_44KHz.wav
1	23	2	1	0	C	1	0	1003	0	Ⴂ	cut_oei_stereo_44KHz.wav
1	24	3	4	2	I	2	0	830	0	Ⴡ	cut_ei_stereo_44KHz.wav
1	25	2	2	1	C	2	0	1398	0	Ⴂ	cut_r_stereo_44KHz.wav
1	26	3	3	2	I	1	0	1280	1	Ⴡ	cut_f_stereo_44KHz.wav
1	27	4	4	2	I	1	0	932	0	Ⴃ	cut_ei_stereo_44KHz.wav
1	28	1	2	0	C	2	1	1448	1	Ⴜ	cut_r_stereo_44KHz.wav
1	29	2	1	0	C	2	1	757	1	Ⴂ	cut_oei_stereo_44KHz.wav
1	30	1	1	1	C	1	1	773	1	Ⴜ	cut_oei_stereo_44KHz.wav
1	31	3	4	2	I	2	0	766	1	Ⴡ	cut_ei_stereo_44KHz.wav
1	32	4	3	2	I	2	0	782	0	Ⴃ	cut_f_stereo_44KHz.wav
1	33	3	4	2	I	2	0	549	0	Ⴡ	cut_ei_stereo_44KHz.wav
1	34	2	2	1	C	2	0	920	0	Ⴂ	cut_r_stereo_44KHz.wav
1	35	4	3	2	I	1	0	962	0	Ⴃ	cut_f_stereo_44KHz.wav
1	36	1	1	1	C	2	0	1197	0	Ⴜ	cut_oei_stereo_44KHz.wav
1	37	2	1	0	C	2	1	529	1	Ⴂ	cut_oei_stereo_44KHz.wav
1	38	3	3	2	I	1	0	968	0	Ⴡ	cut_f_stereo_44KHz.wav
1	39	4	4	2	I	2	0	1493	0	Ⴃ	cut_ei_stereo_44KHz.wav
1	40	1	2	0	C	2	1	1049	1	Ⴜ	cut_r_stereo_44KHz.wav
1	41	3	3	2	I	1	0	907	0	Ⴡ	cut_f_stereo_44KHz.wav
1	42	2	1	0	C	2	1	789	1	Ⴂ	cut_oei_stereo_44KHz.wav
1	43	4	4	2	I	2	0	911	1	Ⴃ	cut_ei_stereo_44KHz.wav
1	44	1	1	1	C	1	1	1016	1	Ⴜ	cut_oei_stereo_44KHz.wav
1	45	4	3	2	I	1	0	1516	1	Ⴃ	cut_f_stereo_44KHz.wav
1	46	3	4	2	I	2	0	749	0	Ⴡ	cut_ei_stereo_44KHz.wav
1	47	1	2	0	C	2	1	963	1	Ⴜ	cut_r_stereo_44KHz.wav
1	48	2	2	1	C	1	1	1201	1	Ⴂ	cut_r_stereo_44KHz.wav
1	49	1	2	0	C	2	1	774	1	Ⴜ	cut_r_stereo_44KHz.wav
1	50	3	4	2	I	1	0	820	1	Ⴡ	cut_ei_stereo_44KHz.wav
1	51	2	2	1	C	2	0	1199	0	Ⴂ	cut_r_stereo_44KHz.wav
1	52	4	3	2	I	1	0	1385	0	Ⴃ	cut_f_stereo_44KHz.wav
1	53	1	1	1	C	1	1	1390	1	Ⴜ	cut_oei_stereo_44KHz.wav
1	54	2	1	0	C	2	1	752	1	Ⴂ	cut_oei_stereo_44KHz.wav
1	55	4	4	2	I	1	0	1178	1	Ⴃ	cut_ei_stereo_44KHz.wav
1	56	3	3	2	I	2	0	1044	1	Ⴡ	cut_f_stereo_44KHz.wav
1	57	1	2	0	C	2	1	1070	1	Ⴜ	cut_r_stereo_44KHz.wav
1	58	4	3	2	I	1	0	1257	0	Ⴃ	cut_f_stereo_44KHz.wav
1	59	3	3	2	I	2	0	612	1	Ⴡ	cut_f_stereo_44KHz.wav
1	60	2	1	0	C	2	1	878	1	Ⴂ	cut_oei_stereo_44KHz.wav
1	61	4	4	2	I	1	0	1222	0	Ⴃ	cut_ei_stereo_44KHz.wav
1	62	1	1	1	C	1	1	986	1	Ⴜ	cut_oei_stereo_44KHz.wav
1	63	2	2	1	C	2	0	1027	0	Ⴂ	cut_r_stereo_44KHz.wav
1	64	3	4	2	I	1	0	1209	0	Ⴡ	cut_ei_stereo_44KHz.wav
1	65	4	4	2	I	1	0	1037	0	Ⴃ	cut_ei_stereo_44KHz.wav
1	66	2	2	1	C	1	1	1478	1	Ⴂ	cut_r_stereo_44KHz.wav
1	67	1	1	1	C	2	0	890	0	Ⴜ	cut_oei_stereo_44KHz.wav
1	68	3	3	2	I	1	0	1034	0	Ⴡ	cut_f_stereo_44KHz.wav
1	69	1	2	0	C	2	1	1264	1	Ⴜ	cut_r_stereo_44KHz.wav
1	70	3	4	2	I	2	0	1087	0	Ⴡ	cut_ei_stereo_44KHz.wav
1	71	4	3	2	I	2	0	1303	0	Ⴃ	cut_f_stereo_44KHz.wav
1	72	2	1	0	C	2	1	991	1	Ⴂ	cut_oei_stereo_44KHz.wav
1	73	4	3	2	I	1	0	900	1	Ⴃ	cut_f_stereo_44KHz.wav
1	74	1	1	1	C	2	0	1060	0	Ⴜ	cut_oei_stereo_44KHz.wav
1	75	2	1	0	C	2	1	687	1	Ⴂ	cut_oei_stereo_44KHz.wav
1	76	3	3	2	I	2	0	983	1	Ⴡ	cut_f_stereo_44KHz.wav
1	77	4	4	2	I	1	0	935	0	Ⴃ	cut_ei_stereo_44KHz.wav
1	78	2	2	1	C	1	1	1301	1	Ⴂ	cut_r_stereo_44KHz.wav
1	79	3	4	2	I	1	0	984	0	Ⴡ	cut_ei_stereo_44KHz.wav
1	80	1	2	0	C	2	1	1266	1	Ⴜ	cut_r_stereo_44KHz.wav
1	81	4	4	2	I	1	0	1042	0	Ⴃ	cut_ei_stereo_44KHz.wav
1	82	3	3	2	I	2	0	1047	0	Ⴡ	cut_f_stereo_44KHz.wav
1	83	1	2	0	C	2	1	1427	1	Ⴜ	cut_r_stereo_44KHz.wav
1	84	2	1	0	C	1	0	846	0	Ⴂ	cut_oei_stereo_44KHz.wav
1	85	4	3	2	I	2	0	770	0	Ⴃ	cut_f_stereo_44KHz.wav
1	86	3	4	2	I	2	0	477	0	Ⴡ	cut_ei_stereo_44KHz.wav
1	87	2	2	1	C	1	1	1295	1	Ⴂ	cut_r_stereo_44KHz.wav
1	88	1	1	1	C	2	0	396	0	Ⴜ	cut_oei_stereo_44KHz.wav
1	89	3	3	2	I	1	0	1055	1	Ⴡ	cut_f_stereo_44KHz.wav
1	90	2	2	1	C	1	1	1168	1	Ⴂ	cut_r_stereo_44KHz.wav
1	91	4	3	2	I	1	0	1373	0	Ⴃ	cut_f_stereo_44KHz.wav
1	92	1	2	0	C	2	1	946	1	Ⴜ	cut_r_stereo_44KHz.wav
1	93	3	4	2	I	1	0	872	1	Ⴡ	cut_ei_stereo_44KHz.wav
1	94	2	1	0	C	2	1	1087	1	Ⴂ	cut_oei_stereo_44KHz.wav
1	95	4	4	2	I	2	0	876	0	Ⴃ	cut_ei_stereo_44KHz.wav
1	96	1	1	1	C	2	0	1272	0	Ⴜ	cut_oei_stereo_44KHz.wav
1	97	2	1	0	C	2	1	727	1	Ⴂ	cut_oei_stereo_44KHz.wav
1	98	1	2	0	C	1	0	672	0	Ⴜ	cut_r_stereo_44KHz.wav
1	99	3	3	2	I	2	0	906	0	Ⴡ	cut_f_stereo_44KHz.wav
1	100	4	4	2	I	1	0	839	1	Ⴃ	cut_ei_stereo_44KHz.wav
1	101	1	1	1	C	1	1	1134	1	Ⴜ	cut_oei_stereo_44KHz.wav
1	102	2	2	1	C	2	0	1222	0	Ⴂ	cut_r_stereo_44KHz.wav
1	103	4	3	2	I	2	0	952	1	Ⴃ	cut_f_stereo_44KHz.wav
1	104	3	4	2	I	1	0	725	1	Ⴡ	cut_ei_stereo_44KHz.wav
1	105	1	1	1	C	1	1	1015	1	Ⴜ	cut_oei_stereo_44KHz.wav
1	106	2	1	0	C	2	1	777	1	Ⴂ	cut_oei_stereo_44KHz.wav
1	107	3	4	2	I	2	0	774	0	Ⴡ	cut_ei_stereo_44KHz.wav
1	108	4	4	2	I	2	0	618	1	Ⴃ	cut_ei_stereo_44KHz.wav
1	109	3	3	2	I	1	0	940	1	Ⴡ	cut_f_stereo_44KHz.wav
1	110	1	2	0	C	2	1	929	1	Ⴜ	cut_r_stereo_44KHz.wav
1	111	4	3	2	I	1	0	1297	1	Ⴃ	cut_f_stereo_44KHz.wav
1	112	2	2	1	C	1	1	1411	1	Ⴂ	cut_r_stereo_44KHz.wav
1	113	3	3	2	I	2	0	888	1	Ⴡ	cut_f_stereo_44KHz.wav
1	114	2	1	0	C	2	1	866	1	Ⴂ	cut_oei_stereo_44KHz.wav
1	115	1	1	1	C	1	1	685	1	Ⴜ	cut_oei_stereo_44KHz.wav
1	116	4	4	2	I	1	0	862	0	Ⴃ	cut_ei_stereo_44KHz.wav
1	117	3	4	2	I	2	0	591	1	Ⴡ	cut_ei_stereo_44KHz.wav
1	118	1	2	0	C	2	1	994	1	Ⴜ	cut_r_stereo_44KHz.wav
1	119	4	3	2	I	2	0	998	1	Ⴃ	cut_f_stereo_44KHz.wav
1	120	2	2	1	C	1	1	1168	1	Ⴂ	cut_r_stereo_44KHz.wav
1	121	3	3	2	I	2	0	1056	0	Ⴡ	cut_f_stereo_44KHz.wav
1	122	2	1	0	C	2	1	713	1	Ⴂ	cut_oei_stereo_44KHz.wav
1	123	1	2	0	C	2	1	883	1	Ⴜ	cut_r_stereo_44KHz.wav
1	124	4	4	2	I	2	0	690	1	Ⴃ	cut_ei_stereo_44KHz.wav
1	125	1	1	1	C	1	1	868	1	Ⴜ	cut_oei_stereo_44KHz.wav
1	126	2	2	1	C	1	1	1045	1	Ⴂ	cut_r_stereo_44KHz.wav
1	127	4	3	2	I	2	0	910	0	Ⴃ	cut_f_stereo_44KHz.wav
1	128	3	4	2	I	2	0	721	0	Ⴡ	cut_ei_stereo_44KHz.wav
1	129	1	2	0	C	1	0	911	0	Ⴜ	cut_r_stereo_44KHz.wav
1	130	4	3	2	I	2	0	887	0	Ⴃ	cut_f_stereo_44KHz.wav
1	131	2	2	1	C	1	1	1112	1	Ⴂ	cut_r_stereo_44KHz.wav
1	132	3	3	2	I	2	0	911	1	Ⴡ	cut_f_stereo_44KHz.wav
1	133	4	4	2	I	2	0	831	1	Ⴃ	cut_ei_stereo_44KHz.wav
1	134	3	4	2	I	1	0	888	0	Ⴡ	cut_ei_stereo_44KHz.wav
1	135	2	1	0	C	2	1	900	1	Ⴂ	cut_oei_stereo_44KHz.wav
1	136	1	1	1	C	1	1	718	1	Ⴜ	cut_oei_stereo_44KHz.wav
1	137	2	2	1	C	1	1	1631	1	Ⴂ	cut_r_stereo_44KHz.wav
1	138	3	4	2	I	2	0	716	0	Ⴡ	cut_ei_stereo_44KHz.wav
1	139	1	1	1	C	1	1	1149	1	Ⴜ	cut_oei_stereo_44KHz.wav
1	140	4	3	2	I	2	0	1250	1	Ⴃ	cut_f_stereo_44KHz.wav
1	141	3	3	2	I	1	0	880	1	Ⴡ	cut_f_stereo_44KHz.wav
1	142	4	4	2	I	1	0	1615	1	Ⴃ	cut_ei_stereo_44KHz.wav
1	143	2	1	0	C	2	1	837	1	Ⴂ	cut_oei_stereo_44KHz.wav
1	144	1	2	0	C	1	0	1732	0	Ⴜ	cut_r_stereo_44KHz.wav
1	145	2	1	0	C	2	1	838	1	Ⴂ	cut_oei_stereo_44KHz.wav
1	146	3	3	2	I	1	0	1128	0	Ⴡ	cut_f_stereo_44KHz.wav
1	147	4	4	2	I	2	0	826	0	Ⴃ	cut_ei_stereo_44KHz.wav
1	148	1	2	0	C	2	1	759	1	Ⴜ	cut_r_stereo_44KHz.wav
1	149	2	2	1	C	1	1	681	1	Ⴂ	cut_r_stereo_44KHz.wav
1	150	4	3	2	I	2	0	1278	1	Ⴃ	cut_f_stereo_44KHz.wav
1	151	3	4	2	I	2	0	929	1	Ⴡ	cut_ei_stereo_44KHz.wav
1	152	1	1	1	C	1	1	1807	1	Ⴜ	cut_oei_stereo_44KHz.wav
1	153	4	4	2	I	1	0	1096	1	Ⴃ	cut_ei_stereo_44KHz.wav
1	154	2	1	0	C	2	1	663	1	Ⴂ	cut_oei_stereo_44KHz.wav
1	155	3	4	2	I	2	0	1134	1	Ⴡ	cut_ei_stereo_44KHz.wav
1	156	1	1	1	C	1	1	1033	1	Ⴜ	cut_oei_stereo_44KHz.wav
1	157	3	3	2	I	1	0	903	1	Ⴡ	cut_f_stereo_44KHz.wav
1	158	2	2	1	C	1	1	932	1	Ⴂ	cut_r_stereo_44KHz.wav
1	159	1	2	0	C	2	1	1215	1	Ⴜ	cut_r_stereo_44KHz.wav
1	160	4	3	2	I	2	0	1193	1	Ⴃ	cut_f_stereo_44KHz.wav
1	161	1	1	1	C	1	1	912	1	Ⴜ	cut_oei_stereo_44KHz.wav
1	162	4	4	2	I	1	0	756	1	Ⴃ	cut_ei_stereo_44KHz.wav
1	163	2	2	1	C	1	1	1300	1	Ⴂ	cut_r_stereo_44KHz.wav
1	164	3	3	2	I	1	0	1046	1	Ⴡ	cut_f_stereo_44KHz.wav
1	165	2	1	0	C	2	1	972	1	Ⴂ	cut_oei_stereo_44KHz.wav
1	166	3	4	2	I	1	0	896	1	Ⴡ	cut_ei_stereo_44KHz.wav
1	167	4	3	2	I	2	0	888	1	Ⴃ	cut_f_stereo_44KHz.wav
1	168	1	2	0	C	2	1	870	1	Ⴜ	cut_r_stereo_44KHz.wav
1	169	4	3	2	I	2	0	886	1	Ⴃ	cut_f_stereo_44KHz.wav
1	170	3	4	2	I	2	0	745	0	Ⴡ	cut_ei_stereo_44KHz.wav
1	171	2	1	0	C	2	1	875	1	Ⴂ	cut_oei_stereo_44KHz.wav
1	172	1	2	0	C	2	1	551	1	Ⴜ	cut_r_stereo_44KHz.wav
1	173	4	4	2	I	1	0	832	1	Ⴃ	cut_ei_stereo_44KHz.wav
1	174	2	2	1	C	1	1	1288	1	Ⴂ	cut_r_stereo_44KHz.wav
1	175	1	1	1	C	1	1	1018	1	Ⴜ	cut_oei_stereo_44KHz.wav
1	176	3	3	2	I	1	0	988	1	Ⴡ	cut_f_stereo_44KHz.wav
1	177	2	2	1	C	1	1	1035	1	Ⴂ	cut_r_stereo_44KHz.wav
1	178	3	3	2	I	1	0	1092	1	Ⴡ	cut_f_stereo_44KHz.wav
1	179	4	3	2	I	2	0	705	0	Ⴃ	cut_f_stereo_44KHz.wav
1	180	1	2	0	C	2	1	875	1	Ⴜ	cut_r_stereo_44KHz.wav
1	181	2	1	0	C	2	1	707	1	Ⴂ	cut_oei_stereo_44KHz.wav
1	182	1	1	1	C	1	1	1307	1	Ⴜ	cut_oei_stereo_44KHz.wav
1	183	4	4	2	I	1	0	859	0	Ⴃ	cut_ei_stereo_44KHz.wav
1	184	3	4	2	I	1	0	867	0	Ⴡ	cut_ei_stereo_44KHz.wav
1	185	1	1	1	C	1	1	1696	1	Ⴜ	cut_oei_stereo_44KHz.wav
1	186	2	2	1	C	1	1	1010	1	Ⴂ	cut_r_stereo_44KHz.wav
1	187	4	3	2	I	2	0	1080	1	Ⴃ	cut_f_stereo_44KHz.wav
1	188	3	3	2	I	1	0	715	0	Ⴡ	cut_f_stereo_44KHz.wav
1	189	2	1	0	C	2	1	757	1	Ⴂ	cut_oei_stereo_44KHz.wav
1	190	4	4	2	I	2	0	1241	0	Ⴃ	cut_ei_stereo_44KHz.wav
1	191	3	4	2	I	2	0	638	1	Ⴡ	cut_ei_stereo_44KHz.wav
1	192	1	2	0	C	2	1	1648	1	Ⴜ	cut_r_stereo_44KHz.wav
1	193	2	1	0	C	2	1	681	1	Ⴂ	cut_oei_stereo_44KHz.wav
1	194	3	3	2	I	1	0	1444	0	Ⴡ	cut_f_stereo_44KHz.wav
1	195	1	2	0	C	2	1	975	1	Ⴜ	cut_r_stereo_44KHz.wav
1	196	4	4	2	I	1	0	1173	0	Ⴃ	cut_ei_stereo_44KHz.wav
1	197	2	2	1	C	1	1	1452	1	Ⴂ	cut_r_stereo_44KHz.wav
1	198	3	4	2	I	1	0	1423	0	Ⴡ	cut_ei_stereo_44KHz.wav
1	199	4	3	2	I	2	0	700	1	Ⴃ	cut_f_stereo_44KHz.wav
1	200	1	1	1	C	1	1	1828	1	Ⴜ	cut_oei_stereo_44KHz.wav
2	1	2	1	0	C	1	0	1536	0	Ⴟ	cut_ui_stereo_44KHz.wav
2	2	4	3	2	I	2	0	1114	1	Ⴁ	cut_n_stereo_44KHz.wav
2	3	1	1	1	C	2	0	989	0	Ⴊ	cut_ui_stereo_44KHz.wav
2	4	3	3	2	I	1	0	1185	1	Ⴇ	cut_n_stereo_44KHz.wav
2	5	2	2	1	C	2	0	1183	0	Ⴟ	cut_j_stereo_44KHz.wav
2	6	4	4	2	I	1	0	941	1	Ⴁ	cut_s_stereo_44KHz.wav
2	7	1	2	0	C	2	1	904	1	Ⴊ	cut_j_stereo_44KHz.wav
2	8	3	4	2	I	1	0	1108	0	Ⴇ	cut_s_stereo_44KHz.wav
2	9	4	4	2	I	1	0	910	0	Ⴁ	cut_s_stereo_44KHz.wav
2	10	3	3	2	I	2	0	832	0	Ⴇ	cut_n_stereo_44KHz.wav
2	11	1	2	0	C	2	1	1019	1	Ⴊ	cut_j_stereo_44KHz.wav
2	12	2	2	1	C	2	0	1062	0	Ⴟ	cut_j_stereo_44KHz.wav
2	13	4	3	2	I	2	0	771	0	Ⴁ	cut_n_stereo_44KHz.wav
2	14	1	1	1	C	1	1	1024	1	Ⴊ	cut_ui_stereo_44KHz.wav
2	15	2	1	0	C	2	1	706	1	Ⴟ	cut_ui_stereo_44KHz.wav
2	16	3	4	2	I	2	0	859	1	Ⴇ	cut_s_stereo_44KHz.wav
2	17	2	1	0	C	1	0	1211	0	Ⴟ	cut_ui_stereo_44KHz.wav
2	18	3	4	2	I	2	0	644	0	Ⴇ	cut_s_stereo_44KHz.wav
2	19	4	3	2	I	2	0	652	0	Ⴁ	cut_n_stereo_44KHz.wav
2	20	1	2	0	C	2	1	789	1	Ⴊ	cut_j_stereo_44KHz.wav
2	21	2	2	1	C	1	1	862	1	Ⴟ	cut_j_stereo_44KHz.wav
2	22	3	3	2	I	1	0	930	1	Ⴇ	cut_n_stereo_44KHz.wav
2	23	4	4	2	I	1	0	1071	1	Ⴁ	cut_s_stereo_44KHz.wav
2	24	1	1	1	C	1	1	787	1	Ⴊ	cut_ui_stereo_44KHz.wav
2	25	3	4	2	I	2	0	738	1	Ⴇ	cut_s_stereo_44KHz.wav
2	26	2	1	0	C	2	1	901	1	Ⴟ	cut_ui_stereo_44KHz.wav
2	27	1	2	0	C	2	1	734	1	Ⴊ	cut_j_stereo_44KHz.wav
2	28	4	4	2	I	1	0	795	0	Ⴁ	cut_s_stereo_44KHz.wav
2	29	2	2	1	C	1	1	969	1	Ⴟ	cut_j_stereo_44KHz.wav
2	30	4	3	2	I	2	0	641	0	Ⴁ	cut_n_stereo_44KHz.wav
2	31	3	3	2	I	1	0	804	0	Ⴇ	cut_n_stereo_44KHz.wav
2	32	1	1	1	C	1	1	769	1	Ⴊ	cut_ui_stereo_44KHz.wav
2	33	3	4	2	I	2	0	662	0	Ⴇ	cut_s_stereo_44KHz.wav
2	34	2	2	1	C	2	0	755	0	Ⴟ	cut_j_stereo_44KHz.wav
2	35	1	1	1	C	1	1	688	1	Ⴊ	cut_ui_stereo_44KHz.wav
2	36	4	3	2	I	2	0	784	0	Ⴁ	cut_n_stereo_44KHz.wav
2	37	1	2	0	C	2	1	705	1	Ⴊ	cut_j_stereo_44KHz.wav
2	38	4	4	2	I	1	0	818	1	Ⴁ	cut_s_stereo_44KHz.wav
2	39	2	1	0	C	2	1	674	1	Ⴟ	cut_ui_stereo_44KHz.wav
2	40	3	3	2	I	1	0	833	0	Ⴇ	cut_n_stereo_44KHz.wav
2	41	4	3	2	I	2	0	867	1	Ⴁ	cut_n_stereo_44KHz.wav
2	42	2	2	1	C	2	0	799	0	Ⴟ	cut_j_stereo_44KHz.wav
2	43	3	4	2	I	2	0	780	1	Ⴇ	cut_s_stereo_44KHz.wav
2	44	1	2	0	C	2	1	701	1	Ⴊ	cut_j_stereo_44KHz.wav
2	45	2	1	0	C	2	1	739	1	Ⴟ	cut_ui_stereo_44KHz.wav
2	46	4	4	2	I	1	0	753	0	Ⴁ	cut_s_stereo_44KHz.wav
2	47	1	1	1	C	1	1	723	1	Ⴊ	cut_ui_stereo_44KHz.wav
2	48	3	3	2	I	1	0	963	0	Ⴇ	cut_n_stereo_44KHz.wav
2	49	1	1	1	C	1	1	681	1	Ⴊ	cut_ui_stereo_44KHz.wav
2	50	4	4	2	I	1	0	643	1	Ⴁ	cut_s_stereo_44KHz.wav
2	51	2	2	1	C	2	0	751	0	Ⴟ	cut_j_stereo_44KHz.wav
2	52	3	4	2	I	2	0	671	0	Ⴇ	cut_s_stereo_44KHz.wav
2	53	1	2	0	C	2	1	793	1	Ⴊ	cut_j_stereo_44KHz.wav
2	54	2	1	0	C	2	1	786	1	Ⴟ	cut_ui_stereo_44KHz.wav
2	55	4	3	2	I	2	0	622	0	Ⴁ	cut_n_stereo_44KHz.wav
2	56	3	3	2	I	1	0	759	0	Ⴇ	cut_n_stereo_44KHz.wav
2	57	2	2	1	C	1	1	1014	1	Ⴟ	cut_j_stereo_44KHz.wav
2	58	4	3	2	I	2	0	743	1	Ⴁ	cut_n_stereo_44KHz.wav
2	59	1	1	1	C	1	1	756	1	Ⴊ	cut_ui_stereo_44KHz.wav
2	60	3	3	2	I	1	0	697	0	Ⴇ	cut_n_stereo_44KHz.wav
2	61	4	4	2	I	2	0	1037	1	Ⴁ	cut_s_stereo_44KHz.wav
2	62	2	1	0	C	2	1	779	1	Ⴟ	cut_ui_stereo_44KHz.wav
2	63	3	4	2	I	2	0	735	1	Ⴇ	cut_s_stereo_44KHz.wav
2	64	1	2	0	C	2	1	1088	1	Ⴊ	cut_j_stereo_44KHz.wav
2	65	4	4	2	I	1	0	813	0	Ⴁ	cut_s_stereo_44KHz.wav
2	66	2	1	0	C	2	1	933	1	Ⴟ	cut_ui_stereo_44KHz.wav
2	67	1	1	1	C	1	1	644	1	Ⴊ	cut_ui_stereo_44KHz.wav
2	68	3	4	2	I	2	0	682	1	Ⴇ	cut_s_stereo_44KHz.wav
2	69	1	2	0	C	2	1	739	1	Ⴊ	cut_j_stereo_44KHz.wav
2	70	4	3	2	I	2	0	746	1	Ⴁ	cut_n_stereo_44KHz.wav
2	71	2	2	1	C	1	1	752	1	Ⴟ	cut_j_stereo_44KHz.wav
2	72	3	3	2	I	1	0	682	1	Ⴇ	cut_n_stereo_44KHz.wav
2	73	4	4	2	I	1	0	696	1	Ⴁ	cut_s_stereo_44KHz.wav
2	74	1	2	0	C	2	1	680	1	Ⴊ	cut_j_stereo_44KHz.wav
2	75	3	3	2	I	1	0	782	1	Ⴇ	cut_n_stereo_44KHz.wav
2	76	2	2	1	C	1	1	885	1	Ⴟ	cut_j_stereo_44KHz.wav
2	77	3	4	2	I	1	0	729	0	Ⴇ	cut_s_stereo_44KHz.wav
2	78	4	3	2	I	2	0	626	1	Ⴁ	cut_n_stereo_44KHz.wav
2	79	1	1	1	C	1	1	841	1	Ⴊ	cut_ui_stereo_44KHz.wav
2	80	2	1	0	C	2	1	857	1	Ⴟ	cut_ui_stereo_44KHz.wav
2	81	4	4	2	I	1	0	741	0	Ⴁ	cut_s_stereo_44KHz.wav
2	82	2	1	0	C	2	1	648	1	Ⴟ	cut_ui_stereo_44KHz.wav
2	83	1	1	1	C	1	1	730	1	Ⴊ	cut_ui_stereo_44KHz.wav
2	84	3	3	2	I	1	0	848	1	Ⴇ	cut_n_stereo_44KHz.wav
2	85	1	2	0	C	2	1	655	1	Ⴊ	cut_j_stereo_44KHz.wav
2	86	4	3	2	I	2	0	1071	0	Ⴁ	cut_n_stereo_44KHz.wav
2	87	3	4	2	I	1	0	705	1	Ⴇ	cut_s_stereo_44KHz.wav
2	88	2	2	1	C	1	1	1298	1	Ⴟ	cut_j_stereo_44KHz.wav
2	89	3	4	2	I	2	0	895	1	Ⴇ	cut_s_stereo_44KHz.wav
2	90	4	3	2	I	2	0	647	0	Ⴁ	cut_n_stereo_44KHz.wav
2	91	2	1	0	C	2	1	761	1	Ⴟ	cut_ui_stereo_44KHz.wav
2	92	1	1	1	C	1	1	671	1	Ⴊ	cut_ui_stereo_44KHz.wav
2	93	4	4	2	I	1	0	803	0	Ⴁ	cut_s_stereo_44KHz.wav
2	94	1	2	0	C	2	1	1051	1	Ⴊ	cut_j_stereo_44KHz.wav
2	95	2	2	1	C	1	1	765	1	Ⴟ	cut_j_stereo_44KHz.wav
2	96	3	3	2	I	1	0	1153	1	Ⴇ	cut_n_stereo_44KHz.wav
2	97	1	2	0	C	2	1	702	1	Ⴊ	cut_j_stereo_44KHz.wav
2	98	3	4	2	I	2	0	733	0	Ⴇ	cut_s_stereo_44KHz.wav
2	99	2	1	0	C	2	1	1012	1	Ⴟ	cut_ui_stereo_44KHz.wav
2	100	4	3	2	I	2	0	808	1	Ⴁ	cut_n_stereo_44KHz.wav
2	101	3	3	2	I	1	0	728	0	Ⴇ	cut_n_stereo_44KHz.wav
2	102	1	1	1	C	1	1	758	1	Ⴊ	cut_ui_stereo_44KHz.wav
2	103	2	2	1	C	1	1	785	1	Ⴟ	cut_j_stereo_44KHz.wav
2	104	4	4	2	I	1	0	697	1	Ⴁ	cut_s_stereo_44KHz.wav
2	105	1	2	0	C	2	1	713	1	Ⴊ	cut_j_stereo_44KHz.wav
2	106	4	3	2	I	2	0	952	1	Ⴁ	cut_n_stereo_44KHz.wav
2	107	3	4	2	I	2	0	653	1	Ⴇ	cut_s_stereo_44KHz.wav
2	108	2	2	1	C	2	0	764	0	Ⴟ	cut_j_stereo_44KHz.wav
2	109	1	1	1	C	1	1	1111	1	Ⴊ	cut_ui_stereo_44KHz.wav
2	110	4	4	2	I	1	0	1089	1	Ⴁ	cut_s_stereo_44KHz.wav
2	111	2	1	0	C	2	1	1021	1	Ⴟ	cut_ui_stereo_44KHz.wav
2	112	3	3	2	I	1	0	1299	1	Ⴇ	cut_n_stereo_44KHz.wav
2	113	2	1	0	C	2	1	783	1	Ⴟ	cut_ui_stereo_44KHz.wav
2	114	4	3	2	I	2	0	907	1	Ⴁ	cut_n_stereo_44KHz.wav
2	115	3	3	2	I	1	0	820	1	Ⴇ	cut_n_stereo_44KHz.wav
2	116	1	2	0	C	2	1	746	1	Ⴊ	cut_j_stereo_44KHz.wav
2	117	2	2	1	C	1	1	720	1	Ⴟ	cut_j_stereo_44KHz.wav
2	118	1	1	1	C	1	1	740	1	Ⴊ	cut_ui_stereo_44KHz.wav
2	119	4	4	2	I	1	0	704	1	Ⴁ	cut_s_stereo_44KHz.wav
2	120	3	4	2	I	2	0	1144	1	Ⴇ	cut_s_stereo_44KHz.wav
2	121	2	2	1	C	1	1	787	1	Ⴟ	cut_j_stereo_44KHz.wav
2	122	3	4	2	I	2	0	960	1	Ⴇ	cut_s_stereo_44KHz.wav
2	123	4	3	2	I	2	0	1621	0	Ⴁ	cut_n_stereo_44KHz.wav
2	124	1	2	0	C	2	1	678	1	Ⴊ	cut_j_stereo_44KHz.wav
2	125	3	3	2	I	1	0	811	0	Ⴇ	cut_n_stereo_44KHz.wav
2	126	1	1	1	C	1	1	901	1	Ⴊ	cut_ui_stereo_44KHz.wav
2	127	2	1	0	C	2	1	801	1	Ⴟ	cut_ui_stereo_44KHz.wav
2	128	4	4	2	I	1	0	1689	0	Ⴁ	cut_s_stereo_44KHz.wav
2	129	3	4	2	I	2	0	686	0	Ⴇ	cut_s_stereo_44KHz.wav
2	130	4	3	2	I	2	0	729	0	Ⴁ	cut_n_stereo_44KHz.wav
2	131	1	2	0	C	2	1	764	1	Ⴊ	cut_j_stereo_44KHz.wav
2	132	2	2	1	C	1	1	997	1	Ⴟ	cut_j_stereo_44KHz.wav
2	133	4	4	2	I	1	0	1404	0	Ⴁ	cut_s_stereo_44KHz.wav
2	134	1	1	1	C	1	1	1003	1	Ⴊ	cut_ui_stereo_44KHz.wav
2	135	3	3	2	I	1	0	1184	0	Ⴇ	cut_n_stereo_44KHz.wav
2	136	2	1	0	C	2	1	688	1	Ⴟ	cut_ui_stereo_44KHz.wav
2	137	3	4	2	I	2	0	793	1	Ⴇ	cut_s_stereo_44KHz.wav
2	138	2	1	0	C	2	1	687	1	Ⴟ	cut_ui_stereo_44KHz.wav
2	139	1	1	1	C	1	1	719	1	Ⴊ	cut_ui_stereo_44KHz.wav
2	140	4	3	2	I	2	0	771	0	Ⴁ	cut_n_stereo_44KHz.wav
2	141	1	2	0	C	2	1	886	1	Ⴊ	cut_j_stereo_44KHz.wav
2	142	3	3	2	I	1	0	1121	0	Ⴇ	cut_n_stereo_44KHz.wav
2	143	4	4	2	I	1	0	810	0	Ⴁ	cut_s_stereo_44KHz.wav
2	144	2	2	1	C	1	1	1003	1	Ⴟ	cut_j_stereo_44KHz.wav
2	145	4	3	2	I	2	0	714	1	Ⴁ	cut_n_stereo_44KHz.wav
2	146	3	4	2	I	2	0	681	1	Ⴇ	cut_s_stereo_44KHz.wav
2	147	1	1	1	C	1	1	629	1	Ⴊ	cut_ui_stereo_44KHz.wav
2	148	2	1	0	C	2	1	710	1	Ⴟ	cut_ui_stereo_44KHz.wav
2	149	4	4	2	I	1	0	844	0	Ⴁ	cut_s_stereo_44KHz.wav
2	150	2	2	1	C	1	1	723	1	Ⴟ	cut_j_stereo_44KHz.wav
2	151	1	2	0	C	2	1	653	1	Ⴊ	cut_j_stereo_44KHz.wav
2	152	3	3	2	I	1	0	850	0	Ⴇ	cut_n_stereo_44KHz.wav
2	153	1	2	0	C	2	1	634	1	Ⴊ	cut_j_stereo_44KHz.wav
2	154	4	3	2	I	2	0	728	1	Ⴁ	cut_n_stereo_44KHz.wav
2	155	3	4	2	I	2	0	750	0	Ⴇ	cut_s_stereo_44KHz.wav
2	156	2	2	1	C	1	1	821	1	Ⴟ	cut_j_stereo_44KHz.wav
2	157	1	1	1	C	1	1	968	1	Ⴊ	cut_ui_stereo_44KHz.wav
2	158	4	4	2	I	1	0	761	0	Ⴁ	cut_s_stereo_44KHz.wav
2	159	2	1	0	C	2	1	734	1	Ⴟ	cut_ui_stereo_44KHz.wav
2	160	3	3	2	I	1	0	823	0	Ⴇ	cut_n_stereo_44KHz.wav
2	161	2	1	0	C	2	1	1015	1	Ⴟ	cut_ui_stereo_44KHz.wav
2	162	4	4	2	I	1	0	912	1	Ⴁ	cut_s_stereo_44KHz.wav
2	163	1	1	1	C	1	1	769	1	Ⴊ	cut_ui_stereo_44KHz.wav
2	164	3	4	2	I	2	0	737	0	Ⴇ	cut_s_stereo_44KHz.wav
2	165	4	3	2	I	2	0	932	0	Ⴁ	cut_n_stereo_44KHz.wav
2	166	2	2	1	C	1	1	902	1	Ⴟ	cut_j_stereo_44KHz.wav
2	167	1	2	0	C	2	1	747	1	Ⴊ	cut_j_stereo_44KHz.wav
2	168	3	3	2	I	1	0	824	1	Ⴇ	cut_n_stereo_44KHz.wav
2	169	1	2	0	C	2	1	628	1	Ⴊ	cut_j_stereo_44KHz.wav
2	170	3	4	2	I	2	0	1262	0	Ⴇ	cut_s_stereo_44KHz.wav
2	171	4	4	2	I	1	0	896	0	Ⴁ	cut_s_stereo_44KHz.wav
2	172	2	2	1	C	1	1	780	1	Ⴟ	cut_j_stereo_44KHz.wav
2	173	4	3	2	I	2	0	683	1	Ⴁ	cut_n_stereo_44KHz.wav
2	174	3	3	2	I	1	0	814	0	Ⴇ	cut_n_stereo_44KHz.wav
2	175	2	1	0	C	2	1	662	1	Ⴟ	cut_ui_stereo_44KHz.wav
2	176	1	1	1	C	1	1	693	1	Ⴊ	cut_ui_stereo_44KHz.wav
2	177	4	4	2	I	1	0	989	1	Ⴁ	cut_s_stereo_44KHz.wav
2	178	3	4	2	I	2	0	731	1	Ⴇ	cut_s_stereo_44KHz.wav
2	179	1	2	0	C	2	1	640	1	Ⴊ	cut_j_stereo_44KHz.wav
2	180	2	1	0	C	2	1	615	1	Ⴟ	cut_ui_stereo_44KHz.wav
2	181	3	3	2	I	1	0	748	0	Ⴇ	cut_n_stereo_44KHz.wav
2	182	2	2	1	C	1	1	765	1	Ⴟ	cut_j_stereo_44KHz.wav
2	183	4	3	2	I	2	0	1069	1	Ⴁ	cut_n_stereo_44KHz.wav
2	184	1	1	1	C	1	1	955	1	Ⴊ	cut_ui_stereo_44KHz.wav
2	185	2	1	0	C	2	1	599	1	Ⴟ	cut_ui_stereo_44KHz.wav
2	186	4	4	2	I	1	0	988	0	Ⴁ	cut_s_stereo_44KHz.wav
2	187	3	4	2	I	2	0	807	0	Ⴇ	cut_s_stereo_44KHz.wav
2	188	1	1	1	C	1	1	712	1	Ⴊ	cut_ui_stereo_44KHz.wav
2	189	4	3	2	I	2	0	733	0	Ⴁ	cut_n_stereo_44KHz.wav
2	190	2	2	1	C	1	1	942	1	Ⴟ	cut_j_stereo_44KHz.wav
2	191	3	3	2	I	1	0	789	1	Ⴇ	cut_n_stereo_44KHz.wav
2	192	1	2	0	C	2	1	642	1	Ⴊ	cut_j_stereo_44KHz.wav
2	193	3	4	2	I	2	0	728	1	Ⴇ	cut_s_stereo_44KHz.wav
2	194	4	4	2	I	1	0	706	1	Ⴁ	cut_s_stereo_44KHz.wav
2	195	2	2	1	C	1	1	874	1	Ⴟ	cut_j_stereo_44KHz.wav
2	196	1	2	0	C	2	1	669	1	Ⴊ	cut_j_stereo_44KHz.wav
2	197	4	3	2	I	2	0	651	1	Ⴁ	cut_n_stereo_44KHz.wav
2	198	3	3	2	I	1	0	734	1	Ⴇ	cut_n_stereo_44KHz.wav
2	199	1	1	1	C	1	1	653	1	Ⴊ	cut_ui_stereo_44KHz.wav
2	200	2	1	0	C	2	1	610	1	Ⴟ	cut_ui_stereo_44KHz.wav
3	1	1	1	1	C	2	0	1838	0	Ⴕ	cut_o_stereo_44KHz.wav
3	2	2	1	0	C	2	1	811	1	Ⴉ	cut_o_stereo_44KHz.wav
3	3	4	3	2	I	2	0	667	1	Ⴏ	cut_a_stereo_44KHz.wav
3	4	3	4	2	I	2	0	927	1	Ⴐ	cut_k_stereo_44KHz.wav
3	5	1	2	0	C	2	1	1015	1	Ⴕ	cut_u_stereo_44KHz.wav
3	6	4	4	2	I	1	0	857	0	Ⴏ	cut_k_stereo_44KHz.wav
3	7	2	2	1	C	1	1	823	1	Ⴉ	cut_u_stereo_44KHz.wav
3	8	3	3	2	I	1	0	1365	1	Ⴐ	cut_a_stereo_44KHz.wav
3	9	4	3	2	I	2	0	1057	0	Ⴏ	cut_a_stereo_44KHz.wav
3	10	2	1	0	C	2	1	804	1	Ⴉ	cut_o_stereo_44KHz.wav
3	11	3	4	2	I	2	0	1572	1	Ⴐ	cut_k_stereo_44KHz.wav
3	12	1	1	1	C	1	1	856	1	Ⴕ	cut_o_stereo_44KHz.wav
3	13	4	4	2	I	2	0	1456	0	Ⴏ	cut_k_stereo_44KHz.wav
3	14	2	2	1	C	1	1	942	1	Ⴉ	cut_u_stereo_44KHz.wav
3	15	1	2	0	C	2	1	838	1	Ⴕ	cut_u_stereo_44KHz.wav
3	16	3	3	2	I	1	0	899	0	Ⴐ	cut_a_stereo_44KHz.wav
3	17	4	4	2	I	1	0	982	1	Ⴏ	cut_k_stereo_44KHz.wav
3	18	3	3	2	I	1	0	981	1	Ⴐ	cut_a_stereo_44KHz.wav
3	19	1	2	0	C	2	1	783	1	Ⴕ	cut_u_stereo_44KHz.wav
3	20	2	1	0	C	2	1	561	1	Ⴉ	cut_o_stereo_44KHz.wav
3	21	3	4	2	I	2	0	852	1	Ⴐ	cut_k_stereo_44KHz.wav
3	22	2	2	1	C	1	1	890	1	Ⴉ	cut_u_stereo_44KHz.wav
3	23	1	1	1	C	1	1	1350	1	Ⴕ	cut_o_stereo_44KHz.wav
3	24	4	3	2	I	2	0	1061	1	Ⴏ	cut_a_stereo_44KHz.wav
3	25	1	2	0	C	2	1	900	1	Ⴕ	cut_u_stereo_44KHz.wav
3	26	2	2	1	C	1	1	918	1	Ⴉ	cut_u_stereo_44KHz.wav
3	27	4	4	2	I	1	0	1316	0	Ⴏ	cut_k_stereo_44KHz.wav
3	28	3	4	2	I	2	0	1205	0	Ⴐ	cut_k_stereo_44KHz.wav
3	29	1	1	1	C	1	1	1152	1	Ⴕ	cut_o_stereo_44KHz.wav
3	30	2	1	0	C	2	1	624	1	Ⴉ	cut_o_stereo_44KHz.wav
3	31	4	3	2	I	2	0	709	1	Ⴏ	cut_a_stereo_44KHz.wav
3	32	3	3	2	I	1	0	1083	0	Ⴐ	cut_a_stereo_44KHz.wav
3	33	4	4	2	I	2	0	1879	1	Ⴏ	cut_k_stereo_44KHz.wav
3	34	1	2	0	C	2	1	1551	1	Ⴕ	cut_u_stereo_44KHz.wav
3	35	2	2	1	C	1	1	1092	1	Ⴉ	cut_u_stereo_44KHz.wav
3	36	3	3	2	I	1	0	1490	0	Ⴐ	cut_a_stereo_44KHz.wav
3	37	1	1	1	C	1	1	921	1	Ⴕ	cut_o_stereo_44KHz.wav
3	38	2	1	0	C	2	1	683	1	Ⴉ	cut_o_stereo_44KHz.wav
3	39	3	4	2	I	2	0	883	0	Ⴐ	cut_k_stereo_44KHz.wav
3	40	4	3	2	I	2	0	791	1	Ⴏ	cut_a_stereo_44KHz.wav
3	41	1	2	0	C	2	1	739	1	Ⴕ	cut_u_stereo_44KHz.wav
3	42	3	3	2	I	1	0	1119	0	Ⴐ	cut_a_stereo_44KHz.wav
3	43	2	1	0	C	2	1	578	1	Ⴉ	cut_o_stereo_44KHz.wav
3	44	4	4	2	I	1	0	1664	0	Ⴏ	cut_k_stereo_44KHz.wav
3	45	1	1	1	C	1	1	807	1	Ⴕ	cut_o_stereo_44KHz.wav
3	46	4	3	2	I	2	0	1167	1	Ⴏ	cut_a_stereo_44KHz.wav
3	47	2	2	1	C	1	1	1105	1	Ⴉ	cut_u_stereo_44KHz.wav
3	48	3	4	2	I	2	0	1789	0	Ⴐ	cut_k_stereo_44KHz.wav
3	49	2	1	0	C	2	1	1137	1	Ⴉ	cut_o_stereo_44KHz.wav
3	50	3	4	2	I	2	0	1536	0	Ⴐ	cut_k_stereo_44KHz.wav
3	51	4	3	2	I	2	0	694	0	Ⴏ	cut_a_stereo_44KHz.wav
3	52	1	2	0	C	2	1	937	1	Ⴕ	cut_u_stereo_44KHz.wav
3	53	2	2	1	C	1	1	855	1	Ⴉ	cut_u_stereo_44KHz.wav
3	54	3	3	2	I	1	0	1524	1	Ⴐ	cut_a_stereo_44KHz.wav
3	55	4	4	2	I	1	0	1110	0	Ⴏ	cut_k_stereo_44KHz.wav
3	56	1	1	1	C	1	1	1054	1	Ⴕ	cut_o_stereo_44KHz.wav
3	57	2	2	1	C	1	1	895	1	Ⴉ	cut_u_stereo_44KHz.wav
3	58	4	4	2	I	1	0	953	0	Ⴏ	cut_k_stereo_44KHz.wav
3	59	1	1	1	C	1	1	1589	1	Ⴕ	cut_o_stereo_44KHz.wav
3	60	3	3	2	I	1	0	1445	1	Ⴐ	cut_a_stereo_44KHz.wav
3	61	2	1	0	C	2	1	617	1	Ⴉ	cut_o_stereo_44KHz.wav
3	62	3	4	2	I	2	0	902	1	Ⴐ	cut_k_stereo_44KHz.wav
3	63	4	3	2	I	2	0	1655	0	Ⴏ	cut_a_stereo_44KHz.wav
3	64	1	2	0	C	2	1	811	1	Ⴕ	cut_u_stereo_44KHz.wav
3	65	4	4	2	I	0	0	0	0	Ⴏ	cut_k_stereo_44KHz.wav
3	66	3	3	2	I	1	0	1068	1	Ⴐ	cut_a_stereo_44KHz.wav
3	67	1	1	1	C	1	1	703	1	Ⴕ	cut_o_stereo_44KHz.wav
3	68	2	1	0	C	2	1	519	1	Ⴉ	cut_o_stereo_44KHz.wav
3	69	4	3	2	I	2	0	615	0	Ⴏ	cut_a_stereo_44KHz.wav
3	70	2	2	1	C	1	1	722	1	Ⴉ	cut_u_stereo_44KHz.wav
3	71	1	2	0	C	2	1	705	1	Ⴕ	cut_u_stereo_44KHz.wav
3	72	3	4	2	I	2	0	1122	0	Ⴐ	cut_k_stereo_44KHz.wav
3	73	1	2	0	C	2	1	768	1	Ⴕ	cut_u_stereo_44KHz.wav
3	74	4	3	2	I	2	0	726	1	Ⴏ	cut_a_stereo_44KHz.wav
3	75	3	4	2	I	2	0	606	0	Ⴐ	cut_k_stereo_44KHz.wav
3	76	2	1	0	C	2	1	618	1	Ⴉ	cut_o_stereo_44KHz.wav
3	77	1	1	1	C	1	1	854	1	Ⴕ	cut_o_stereo_44KHz.wav
3	78	2	2	1	C	1	1	798	1	Ⴉ	cut_u_stereo_44KHz.wav
3	79	3	3	2	I	1	0	1190	1	Ⴐ	cut_a_stereo_44KHz.wav
3	80	4	4	2	I	1	0	1143	1	Ⴏ	cut_k_stereo_44KHz.wav
3	81	2	2	1	C	1	1	651	1	Ⴉ	cut_u_stereo_44KHz.wav
3	82	3	4	2	I	2	0	773	1	Ⴐ	cut_k_stereo_44KHz.wav
3	83	1	2	0	C	2	1	843	1	Ⴕ	cut_u_stereo_44KHz.wav
3	84	4	4	2	I	1	0	1718	0	Ⴏ	cut_k_stereo_44KHz.wav
3	85	3	3	2	I	1	0	1215	0	Ⴐ	cut_a_stereo_44KHz.wav
3	86	4	3	2	I	2	0	743	0	Ⴏ	cut_a_stereo_44KHz.wav
3	87	2	1	0	C	2	1	534	1	Ⴉ	cut_o_stereo_44KHz.wav
3	88	1	1	1	C	1	1	1025	1	Ⴕ	cut_o_stereo_44KHz.wav
3	89	3	4	2	I	2	0	1457	1	Ⴐ	cut_k_stereo_44KHz.wav
3	90	2	1	0	C	2	1	487	1	Ⴉ	cut_o_stereo_44KHz.wav
3	91	1	2	0	C	2	1	963	1	Ⴕ	cut_u_stereo_44KHz.wav
3	92	4	3	2	I	2	0	590	0	Ⴏ	cut_a_stereo_44KHz.wav
3	93	2	2	1	C	1	1	678	1	Ⴉ	cut_u_stereo_44KHz.wav
3	94	3	3	2	I	1	0	1094	0	Ⴐ	cut_a_stereo_44KHz.wav
3	95	4	4	2	I	1	0	805	1	Ⴏ	cut_k_stereo_44KHz.wav
3	96	1	1	1	C	1	1	810	1	Ⴕ	cut_o_stereo_44KHz.wav
3	97	2	2	1	C	2	0	787	0	Ⴉ	cut_u_stereo_44KHz.wav
3	98	1	2	0	C	2	1	728	1	Ⴕ	cut_u_stereo_44KHz.wav
3	99	3	3	2	I	1	0	921	1	Ⴐ	cut_a_stereo_44KHz.wav
3	100	4	4	2	I	1	0	662	1	Ⴏ	cut_k_stereo_44KHz.wav
3	101	1	1	1	C	1	1	948	1	Ⴕ	cut_o_stereo_44KHz.wav
3	102	2	1	0	C	2	1	558	1	Ⴉ	cut_o_stereo_44KHz.wav
3	103	3	4	2	I	2	0	1043	1	Ⴐ	cut_k_stereo_44KHz.wav
3	104	4	3	2	I	2	0	636	0	Ⴏ	cut_a_stereo_44KHz.wav
3	105	3	4	2	I	2	0	633	0	Ⴐ	cut_k_stereo_44KHz.wav
3	106	1	1	1	C	1	1	739	1	Ⴕ	cut_o_stereo_44KHz.wav
3	107	2	1	0	C	2	1	684	1	Ⴉ	cut_o_stereo_44KHz.wav
3	108	4	3	2	I	2	0	729	0	Ⴏ	cut_a_stereo_44KHz.wav
3	109	2	2	1	C	1	1	699	1	Ⴉ	cut_u_stereo_44KHz.wav
3	110	4	4	2	I	1	0	992	1	Ⴏ	cut_k_stereo_44KHz.wav
3	111	1	2	0	C	2	1	1098	1	Ⴕ	cut_u_stereo_44KHz.wav
3	112	3	3	2	I	1	0	1383	0	Ⴐ	cut_a_stereo_44KHz.wav
3	113	1	2	0	C	2	1	676	1	Ⴕ	cut_u_stereo_44KHz.wav
3	114	4	3	2	I	2	0	680	1	Ⴏ	cut_a_stereo_44KHz.wav
3	115	2	2	1	C	1	1	633	1	Ⴉ	cut_u_stereo_44KHz.wav
3	116	3	4	2	I	2	0	813	1	Ⴐ	cut_k_stereo_44KHz.wav
3	117	1	1	1	C	1	1	1193	1	Ⴕ	cut_o_stereo_44KHz.wav
3	118	4	4	2	I	1	0	1132	1	Ⴏ	cut_k_stereo_44KHz.wav
3	119	2	1	0	C	2	1	496	1	Ⴉ	cut_o_stereo_44KHz.wav
3	120	3	3	2	I	1	0	679	1	Ⴐ	cut_a_stereo_44KHz.wav
3	121	1	1	1	C	1	1	777	1	Ⴕ	cut_o_stereo_44KHz.wav
3	122	2	2	1	C	1	1	602	1	Ⴉ	cut_u_stereo_44KHz.wav
3	123	3	3	2	I	1	0	523	1	Ⴐ	cut_a_stereo_44KHz.wav
3	124	4	4	2	I	1	0	765	0	Ⴏ	cut_k_stereo_44KHz.wav
3	125	3	4	2	I	2	0	1174	0	Ⴐ	cut_k_stereo_44KHz.wav
3	126	4	3	2	I	2	0	642	1	Ⴏ	cut_a_stereo_44KHz.wav
3	127	2	1	0	C	2	1	607	1	Ⴉ	cut_o_stereo_44KHz.wav
3	128	1	2	0	C	2	1	835	1	Ⴕ	cut_u_stereo_44KHz.wav
3	129	4	4	2	I	1	0	971	1	Ⴏ	cut_k_stereo_44KHz.wav
3	130	1	1	1	C	1	1	677	1	Ⴕ	cut_o_stereo_44KHz.wav
3	131	2	1	0	C	2	1	395	1	Ⴉ	cut_o_stereo_44KHz.wav
3	132	3	4	2	I	2	0	849	0	Ⴐ	cut_k_stereo_44KHz.wav
3	133	1	2	0	C	2	1	1206	1	Ⴕ	cut_u_stereo_44KHz.wav
3	134	2	2	1	C	1	1	1229	1	Ⴉ	cut_u_stereo_44KHz.wav
3	135	4	3	2	I	2	0	918	0	Ⴏ	cut_a_stereo_44KHz.wav
3	136	3	3	2	I	1	0	1227	0	Ⴐ	cut_a_stereo_44KHz.wav
3	137	2	1	0	C	2	1	582	1	Ⴉ	cut_o_stereo_44KHz.wav
3	138	3	3	2	I	1	0	975	0	Ⴐ	cut_a_stereo_44KHz.wav
3	139	1	1	1	C	1	1	766	1	Ⴕ	cut_o_stereo_44KHz.wav
3	140	4	4	2	I	1	0	802	1	Ⴏ	cut_k_stereo_44KHz.wav
3	141	2	2	1	C	1	1	626	1	Ⴉ	cut_u_stereo_44KHz.wav
3	142	4	3	2	I	2	0	626	0	Ⴏ	cut_a_stereo_44KHz.wav
3	143	3	4	2	I	2	0	854	0	Ⴐ	cut_k_stereo_44KHz.wav
3	144	1	2	0	C	2	1	950	1	Ⴕ	cut_u_stereo_44KHz.wav
3	145	2	1	0	C	2	1	614	1	Ⴉ	cut_o_stereo_44KHz.wav
3	146	4	3	2	I	2	0	853	0	Ⴏ	cut_a_stereo_44KHz.wav
3	147	1	1	1	C	1	1	673	1	Ⴕ	cut_o_stereo_44KHz.wav
3	148	3	4	2	I	2	0	1100	0	Ⴐ	cut_k_stereo_44KHz.wav
3	149	2	2	1	C	1	1	933	1	Ⴉ	cut_u_stereo_44KHz.wav
3	150	1	2	0	C	2	1	803	1	Ⴕ	cut_u_stereo_44KHz.wav
3	151	3	3	2	I	1	0	1168	1	Ⴐ	cut_a_stereo_44KHz.wav
3	152	4	4	2	I	1	0	1392	1	Ⴏ	cut_k_stereo_44KHz.wav
3	153	2	1	0	C	2	1	543	1	Ⴉ	cut_o_stereo_44KHz.wav
3	154	1	2	0	C	2	1	839	1	Ⴕ	cut_u_stereo_44KHz.wav
3	155	3	4	2	I	2	0	823	0	Ⴐ	cut_k_stereo_44KHz.wav
3	156	4	4	2	I	1	0	1632	0	Ⴏ	cut_k_stereo_44KHz.wav
3	157	2	2	1	C	1	1	850	1	Ⴉ	cut_u_stereo_44KHz.wav
3	158	4	3	2	I	2	0	788	1	Ⴏ	cut_a_stereo_44KHz.wav
3	159	3	3	2	I	1	0	1145	0	Ⴐ	cut_a_stereo_44KHz.wav
3	160	1	1	1	C	1	1	784	1	Ⴕ	cut_o_stereo_44KHz.wav
3	161	3	3	2	I	1	0	1502	1	Ⴐ	cut_a_stereo_44KHz.wav
3	162	4	3	2	I	2	0	1017	1	Ⴏ	cut_a_stereo_44KHz.wav
3	163	2	1	0	C	2	1	612	1	Ⴉ	cut_o_stereo_44KHz.wav
3	164	1	2	0	C	2	1	668	1	Ⴕ	cut_u_stereo_44KHz.wav
3	165	2	2	1	C	1	1	699	1	Ⴉ	cut_u_stereo_44KHz.wav
3	166	1	1	1	C	1	1	712	1	Ⴕ	cut_o_stereo_44KHz.wav
3	167	3	4	2	I	2	0	871	1	Ⴐ	cut_k_stereo_44KHz.wav
3	168	4	4	2	I	1	0	822	1	Ⴏ	cut_k_stereo_44KHz.wav
3	169	2	1	0	C	2	1	679	1	Ⴉ	cut_o_stereo_44KHz.wav
3	170	3	3	2	I	1	0	1100	0	Ⴐ	cut_a_stereo_44KHz.wav
3	171	1	2	0	C	2	1	813	1	Ⴕ	cut_u_stereo_44KHz.wav
3	172	4	3	2	I	2	0	1041	1	Ⴏ	cut_a_stereo_44KHz.wav
3	173	1	1	1	C	1	1	716	1	Ⴕ	cut_o_stereo_44KHz.wav
3	174	4	4	2	I	1	0	753	0	Ⴏ	cut_k_stereo_44KHz.wav
3	175	2	2	1	C	1	1	669	1	Ⴉ	cut_u_stereo_44KHz.wav
3	176	3	4	2	I	1	0	739	1	Ⴐ	cut_k_stereo_44KHz.wav
3	177	4	4	2	I	1	0	939	0	Ⴏ	cut_k_stereo_44KHz.wav
3	178	2	2	1	C	1	1	795	1	Ⴉ	cut_u_stereo_44KHz.wav
3	179	1	2	0	C	2	1	650	1	Ⴕ	cut_u_stereo_44KHz.wav
3	180	3	4	2	I	2	0	740	1	Ⴐ	cut_k_stereo_44KHz.wav
3	181	4	3	2	I	2	0	818	0	Ⴏ	cut_a_stereo_44KHz.wav
3	182	2	1	0	C	2	1	580	1	Ⴉ	cut_o_stereo_44KHz.wav
3	183	3	3	2	I	2	0	904	1	Ⴐ	cut_a_stereo_44KHz.wav
3	184	1	1	1	C	1	1	1007	1	Ⴕ	cut_o_stereo_44KHz.wav
3	185	2	2	1	C	1	1	1847	1	Ⴉ	cut_u_stereo_44KHz.wav
3	186	4	3	2	I	2	0	681	0	Ⴏ	cut_a_stereo_44KHz.wav
3	187	3	3	2	I	1	0	888	1	Ⴐ	cut_a_stereo_44KHz.wav
3	188	1	2	0	C	1	0	784	0	Ⴕ	cut_u_stereo_44KHz.wav
3	189	3	4	2	I	2	0	967	0	Ⴐ	cut_k_stereo_44KHz.wav
3	190	1	1	1	C	1	1	1020	1	Ⴕ	cut_o_stereo_44KHz.wav
3	191	4	4	2	I	1	0	842	1	Ⴏ	cut_k_stereo_44KHz.wav
3	192	2	1	0	C	2	1	539	1	Ⴉ	cut_o_stereo_44KHz.wav
3	193	4	3	2	I	2	0	594	0	Ⴏ	cut_a_stereo_44KHz.wav
3	194	2	2	1	C	2	0	879	0	Ⴉ	cut_u_stereo_44KHz.wav
3	195	3	3	2	I	1	0	795	0	Ⴐ	cut_a_stereo_44KHz.wav
3	196	1	1	1	C	1	1	841	1	Ⴕ	cut_o_stereo_44KHz.wav
3	197	3	4	2	I	2	0	1524	1	Ⴐ	cut_k_stereo_44KHz.wav
3	198	4	4	2	I	1	0	750	1	Ⴏ	cut_k_stereo_44KHz.wav
3	199	1	2	0	C	2	1	971	1	Ⴕ	cut_u_stereo_44KHz.wav
3	200	2	1	0	C	2	1	528	1	Ⴉ	cut_o_stereo_44KHz.wav
4	1	2	1	0	C	2	1	1244	1	Ⴒ	cut_g_stereo_44KHz.wav
4	2	3	3	2	I	2	0	1057	1	Ⴖ	cut_w_stereo_44KHz.wav
4	3	4	3	2	I	1	0	915	1	Ⴔ	cut_w_stereo_44KHz.wav
4	4	1	2	0	C	2	1	788	1	Ⴌ	cut_l_stereo_44KHz.wav
4	5	4	4	2	I	2	0	758	1	Ⴔ	cut_h_stereo_44KHz.wav
4	6	1	1	1	C	1	1	1122	1	Ⴌ	cut_g_stereo_44KHz.wav
4	7	3	4	2	I	1	0	949	0	Ⴖ	cut_h_stereo_44KHz.wav
4	8	2	2	1	C	2	0	818	0	Ⴒ	cut_l_stereo_44KHz.wav
4	9	3	3	2	I	2	0	919	0	Ⴖ	cut_w_stereo_44KHz.wav
4	10	1	2	0	C	2	1	842	1	Ⴌ	cut_l_stereo_44KHz.wav
4	11	2	1	0	C	2	1	1070	1	Ⴒ	cut_g_stereo_44KHz.wav
4	12	4	4	2	I	2	0	696	0	Ⴔ	cut_h_stereo_44KHz.wav
4	13	2	2	1	C	1	1	878	1	Ⴒ	cut_l_stereo_44KHz.wav
4	14	1	1	1	C	1	1	1171	1	Ⴌ	cut_g_stereo_44KHz.wav
4	15	3	4	2	I	1	0	962	1	Ⴖ	cut_h_stereo_44KHz.wav
4	16	4	3	2	I	1	0	781	1	Ⴔ	cut_w_stereo_44KHz.wav
4	17	3	4	2	I	1	0	710	0	Ⴖ	cut_h_stereo_44KHz.wav
4	18	2	1	0	C	2	1	875	1	Ⴒ	cut_g_stereo_44KHz.wav
4	19	1	2	0	C	2	1	1197	1	Ⴌ	cut_l_stereo_44KHz.wav
4	20	4	3	2	I	1	0	824	1	Ⴔ	cut_w_stereo_44KHz.wav
4	21	2	2	1	C	1	1	850	1	Ⴒ	cut_l_stereo_44KHz.wav
4	22	1	1	1	C	1	1	847	1	Ⴌ	cut_g_stereo_44KHz.wav
4	23	4	4	2	I	2	0	592	0	Ⴔ	cut_h_stereo_44KHz.wav
4	24	3	3	2	I	2	0	883	0	Ⴖ	cut_w_stereo_44KHz.wav
4	25	4	4	2	I	2	0	578	0	Ⴔ	cut_h_stereo_44KHz.wav
4	26	2	2	1	C	1	1	735	1	Ⴒ	cut_l_stereo_44KHz.wav
4	27	3	3	2	I	2	0	712	0	Ⴖ	cut_w_stereo_44KHz.wav
4	28	1	2	0	C	2	1	739	1	Ⴌ	cut_l_stereo_44KHz.wav
4	29	2	1	0	C	2	1	889	1	Ⴒ	cut_g_stereo_44KHz.wav
4	30	1	1	1	C	2	0	658	0	Ⴌ	cut_g_stereo_44KHz.wav
4	31	4	3	2	I	1	0	790	0	Ⴔ	cut_w_stereo_44KHz.wav
4	32	3	4	2	I	1	0	679	0	Ⴖ	cut_h_stereo_44KHz.wav
4	33	1	1	1	C	1	1	887	1	Ⴌ	cut_g_stereo_44KHz.wav
4	34	2	1	0	C	1	0	729	0	Ⴒ	cut_g_stereo_44KHz.wav
4	35	3	4	2	I	1	0	829	0	Ⴖ	cut_h_stereo_44KHz.wav
4	36	4	4	2	I	2	0	739	0	Ⴔ	cut_h_stereo_44KHz.wav
4	37	2	2	1	C	1	1	755	1	Ⴒ	cut_l_stereo_44KHz.wav
4	38	4	3	2	I	1	0	713	0	Ⴔ	cut_w_stereo_44KHz.wav
4	39	3	3	2	I	1	0	613	0	Ⴖ	cut_w_stereo_44KHz.wav
4	40	1	2	0	C	2	1	636	1	Ⴌ	cut_l_stereo_44KHz.wav
4	41	4	4	2	I	2	0	584	0	Ⴔ	cut_h_stereo_44KHz.wav
4	42	1	2	0	C	2	1	595	1	Ⴌ	cut_l_stereo_44KHz.wav
4	43	2	2	1	C	1	1	675	1	Ⴒ	cut_l_stereo_44KHz.wav
4	44	3	4	2	I	1	0	751	1	Ⴖ	cut_h_stereo_44KHz.wav
4	45	2	1	0	C	2	1	763	1	Ⴒ	cut_g_stereo_44KHz.wav
4	46	4	3	2	I	1	0	606	1	Ⴔ	cut_w_stereo_44KHz.wav
4	47	1	1	1	C	1	1	792	1	Ⴌ	cut_g_stereo_44KHz.wav
4	48	3	3	2	I	1	0	945	1	Ⴖ	cut_w_stereo_44KHz.wav
4	49	2	1	0	C	2	1	791	1	Ⴒ	cut_g_stereo_44KHz.wav
4	50	3	3	2	I	2	0	803	0	Ⴖ	cut_w_stereo_44KHz.wav
4	51	4	3	2	I	1	0	972	1	Ⴔ	cut_w_stereo_44KHz.wav
4	52	1	2	0	C	2	1	619	1	Ⴌ	cut_l_stereo_44KHz.wav
4	53	3	4	2	I	1	0	735	1	Ⴖ	cut_h_stereo_44KHz.wav
4	54	4	4	2	I	1	0	829	1	Ⴔ	cut_h_stereo_44KHz.wav
4	55	1	1	1	C	1	1	895	1	Ⴌ	cut_g_stereo_44KHz.wav
4	56	2	2	1	C	1	1	725	1	Ⴒ	cut_l_stereo_44KHz.wav
4	57	4	3	2	I	1	0	680	1	Ⴔ	cut_w_stereo_44KHz.wav
4	58	2	2	1	C	1	1	677	1	Ⴒ	cut_l_stereo_44KHz.wav
4	59	3	4	2	I	1	0	720	0	Ⴖ	cut_h_stereo_44KHz.wav
4	60	1	2	0	C	2	1	620	1	Ⴌ	cut_l_stereo_44KHz.wav
4	61	4	4	2	I	2	0	610	0	Ⴔ	cut_h_stereo_44KHz.wav
4	62	2	1	0	C	2	1	788	1	Ⴒ	cut_g_stereo_44KHz.wav
4	63	1	1	1	C	1	1	916	1	Ⴌ	cut_g_stereo_44KHz.wav
4	64	3	3	2	I	2	0	814	1	Ⴖ	cut_w_stereo_44KHz.wav
4	65	2	2	1	C	1	1	759	1	Ⴒ	cut_l_stereo_44KHz.wav
4	66	3	4	2	I	1	0	677	1	Ⴖ	cut_h_stereo_44KHz.wav
4	67	1	2	0	C	2	1	615	1	Ⴌ	cut_l_stereo_44KHz.wav
4	68	4	4	2	I	2	0	820	1	Ⴔ	cut_h_stereo_44KHz.wav
4	69	3	3	2	I	2	0	877	1	Ⴖ	cut_w_stereo_44KHz.wav
4	70	1	1	1	C	1	1	804	1	Ⴌ	cut_g_stereo_44KHz.wav
4	71	4	3	2	I	1	0	674	0	Ⴔ	cut_w_stereo_44KHz.wav
4	72	2	1	0	C	2	1	631	1	Ⴒ	cut_g_stereo_44KHz.wav
4	73	1	1	1	C	1	1	860	1	Ⴌ	cut_g_stereo_44KHz.wav
4	74	2	2	1	C	1	1	695	1	Ⴒ	cut_l_stereo_44KHz.wav
4	75	4	4	2	I	2	0	584	1	Ⴔ	cut_h_stereo_44KHz.wav
4	76	3	3	2	I	1	0	749	1	Ⴖ	cut_w_stereo_44KHz.wav
4	77	1	2	0	C	2	1	1350	1	Ⴌ	cut_l_stereo_44KHz.wav
4	78	4	3	2	I	1	0	742	1	Ⴔ	cut_w_stereo_44KHz.wav
4	79	3	4	2	I	1	0	655	1	Ⴖ	cut_h_stereo_44KHz.wav
4	80	2	1	0	C	2	1	818	1	Ⴒ	cut_g_stereo_44KHz.wav
4	81	3	3	2	I	2	0	896	1	Ⴖ	cut_w_stereo_44KHz.wav
4	82	2	2	1	C	1	1	1016	1	Ⴒ	cut_l_stereo_44KHz.wav
4	83	1	2	0	C	2	1	550	1	Ⴌ	cut_l_stereo_44KHz.wav
4	84	4	3	2	I	1	0	670	0	Ⴔ	cut_w_stereo_44KHz.wav
4	85	3	4	2	I	2	0	773	0	Ⴖ	cut_h_stereo_44KHz.wav
4	86	4	4	2	I	2	0	554	1	Ⴔ	cut_h_stereo_44KHz.wav
4	87	2	1	0	C	2	1	965	1	Ⴒ	cut_g_stereo_44KHz.wav
4	88	1	1	1	C	1	1	939	1	Ⴌ	cut_g_stereo_44KHz.wav
4	89	2	1	0	C	2	1	708	1	Ⴒ	cut_g_stereo_44KHz.wav
4	90	1	1	1	C	1	1	698	1	Ⴌ	cut_g_stereo_44KHz.wav
4	91	3	4	2	I	1	0	1146	0	Ⴖ	cut_h_stereo_44KHz.wav
4	92	4	3	2	I	1	0	1056	0	Ⴔ	cut_w_stereo_44KHz.wav
4	93	2	2	1	C	1	1	751	1	Ⴒ	cut_l_stereo_44KHz.wav
4	94	4	4	2	I	2	0	647	0	Ⴔ	cut_h_stereo_44KHz.wav
4	95	1	2	0	C	2	1	714	1	Ⴌ	cut_l_stereo_44KHz.wav
4	96	3	3	2	I	2	0	816	0	Ⴖ	cut_w_stereo_44KHz.wav
4	97	2	1	0	C	2	1	642	1	Ⴒ	cut_g_stereo_44KHz.wav
4	98	3	4	2	I	1	0	966	1	Ⴖ	cut_h_stereo_44KHz.wav
4	99	1	1	1	C	1	1	1131	1	Ⴌ	cut_g_stereo_44KHz.wav
4	100	4	4	2	I	2	0	609	0	Ⴔ	cut_h_stereo_44KHz.wav
4	101	3	3	2	I	2	0	813	1	Ⴖ	cut_w_stereo_44KHz.wav
4	102	4	3	2	I	1	0	771	0	Ⴔ	cut_w_stereo_44KHz.wav
4	103	1	2	0	C	2	1	648	1	Ⴌ	cut_l_stereo_44KHz.wav
4	104	2	2	1	C	1	1	695	1	Ⴒ	cut_l_stereo_44KHz.wav
4	105	1	2	0	C	2	1	628	1	Ⴌ	cut_l_stereo_44KHz.wav
4	106	2	2	1	C	1	1	576	1	Ⴒ	cut_l_stereo_44KHz.wav
4	107	4	3	2	I	2	0	625	1	Ⴔ	cut_w_stereo_44KHz.wav
4	108	3	3	2	I	2	0	653	0	Ⴖ	cut_w_stereo_44KHz.wav
4	109	1	1	1	C	1	1	889	1	Ⴌ	cut_g_stereo_44KHz.wav
4	110	3	4	2	I	2	0	1456	0	Ⴖ	cut_h_stereo_44KHz.wav
4	111	4	4	2	I	2	0	499	1	Ⴔ	cut_h_stereo_44KHz.wav
4	112	2	1	0	C	2	1	808	1	Ⴒ	cut_g_stereo_44KHz.wav
4	113	4	4	2	I	2	0	607	0	Ⴔ	cut_h_stereo_44KHz.wav
4	114	2	1	0	C	2	1	687	1	Ⴒ	cut_g_stereo_44KHz.wav
4	115	1	1	1	C	1	1	1271	1	Ⴌ	cut_g_stereo_44KHz.wav
4	116	3	3	2	I	2	0	904	1	Ⴖ	cut_w_stereo_44KHz.wav
4	117	4	3	2	I	1	0	840	0	Ⴔ	cut_w_stereo_44KHz.wav
4	118	2	2	1	C	2	0	528	0	Ⴒ	cut_l_stereo_44KHz.wav
4	119	1	2	0	C	2	1	518	1	Ⴌ	cut_l_stereo_44KHz.wav
4	120	3	4	2	I	1	0	791	0	Ⴖ	cut_h_stereo_44KHz.wav
4	121	2	2	1	C	1	1	744	1	Ⴒ	cut_l_stereo_44KHz.wav
4	122	1	2	0	C	2	1	530	1	Ⴌ	cut_l_stereo_44KHz.wav
4	123	3	3	2	I	2	0	1611	1	Ⴖ	cut_w_stereo_44KHz.wav
4	124	4	4	2	I	2	0	567	0	Ⴔ	cut_h_stereo_44KHz.wav
4	125	1	1	1	C	1	1	724	1	Ⴌ	cut_g_stereo_44KHz.wav
4	126	2	1	0	C	2	1	725	1	Ⴒ	cut_g_stereo_44KHz.wav
4	127	4	3	2	I	1	0	740	0	Ⴔ	cut_w_stereo_44KHz.wav
4	128	3	4	2	I	1	0	628	1	Ⴖ	cut_h_stereo_44KHz.wav
4	129	2	2	1	C	1	1	708	1	Ⴒ	cut_l_stereo_44KHz.wav
4	130	3	4	2	I	1	0	712	0	Ⴖ	cut_h_stereo_44KHz.wav
4	131	1	2	0	C	2	1	602	1	Ⴌ	cut_l_stereo_44KHz.wav
4	132	4	3	2	I	1	0	745	0	Ⴔ	cut_w_stereo_44KHz.wav
4	133	3	3	2	I	2	0	1282	1	Ⴖ	cut_w_stereo_44KHz.wav
4	134	1	1	1	C	1	1	922	1	Ⴌ	cut_g_stereo_44KHz.wav
4	135	2	1	0	C	2	1	751	1	Ⴒ	cut_g_stereo_44KHz.wav
4	136	4	4	2	I	2	0	637	1	Ⴔ	cut_h_stereo_44KHz.wav
4	137	3	4	2	I	1	0	708	0	Ⴖ	cut_h_stereo_44KHz.wav
4	138	1	2	0	C	2	1	801	1	Ⴌ	cut_l_stereo_44KHz.wav
4	139	2	2	1	C	1	1	806	1	Ⴒ	cut_l_stereo_44KHz.wav
4	140	4	4	2	I	2	0	989	1	Ⴔ	cut_h_stereo_44KHz.wav
4	141	1	1	1	C	1	1	1440	1	Ⴌ	cut_g_stereo_44KHz.wav
4	142	4	3	2	I	1	0	729	1	Ⴔ	cut_w_stereo_44KHz.wav
4	143	3	3	2	I	2	0	1020	1	Ⴖ	cut_w_stereo_44KHz.wav
4	144	2	1	0	C	2	1	723	1	Ⴒ	cut_g_stereo_44KHz.wav
4	145	4	4	2	I	2	0	586	0	Ⴔ	cut_h_stereo_44KHz.wav
4	146	3	4	2	I	1	0	586	0	Ⴖ	cut_h_stereo_44KHz.wav
4	147	2	1	0	C	2	1	908	1	Ⴒ	cut_g_stereo_44KHz.wav
4	148	1	2	0	C	1	0	677	0	Ⴌ	cut_l_stereo_44KHz.wav
4	149	3	3	2	I	2	0	1107	0	Ⴖ	cut_w_stereo_44KHz.wav
4	150	4	3	2	I	1	0	1314	1	Ⴔ	cut_w_stereo_44KHz.wav
4	151	1	1	1	C	1	1	970	1	Ⴌ	cut_g_stereo_44KHz.wav
4	152	2	2	1	C	1	1	1263	1	Ⴒ	cut_l_stereo_44KHz.wav
4	153	3	3	2	I	2	0	704	1	Ⴖ	cut_w_stereo_44KHz.wav
4	154	1	2	0	C	2	1	655	1	Ⴌ	cut_l_stereo_44KHz.wav
4	155	2	2	1	C	1	1	818	1	Ⴒ	cut_l_stereo_44KHz.wav
4	156	4	4	2	I	2	0	582	0	Ⴔ	cut_h_stereo_44KHz.wav
4	157	2	1	0	C	2	1	571	1	Ⴒ	cut_g_stereo_44KHz.wav
4	158	1	1	1	C	1	1	707	1	Ⴌ	cut_g_stereo_44KHz.wav
4	159	3	4	2	I	1	0	628	1	Ⴖ	cut_h_stereo_44KHz.wav
4	160	4	3	2	I	1	0	692	1	Ⴔ	cut_w_stereo_44KHz.wav
4	161	3	4	2	I	1	0	708	0	Ⴖ	cut_h_stereo_44KHz.wav
4	162	1	2	0	C	2	1	874	1	Ⴌ	cut_l_stereo_44KHz.wav
4	163	2	2	1	C	1	1	688	1	Ⴒ	cut_l_stereo_44KHz.wav
4	164	4	4	2	I	2	0	569	0	Ⴔ	cut_h_stereo_44KHz.wav
4	165	3	3	2	I	2	0	921	0	Ⴖ	cut_w_stereo_44KHz.wav
4	166	2	1	0	C	2	1	625	1	Ⴒ	cut_g_stereo_44KHz.wav
4	167	1	1	1	C	1	1	778	1	Ⴌ	cut_g_stereo_44KHz.wav
4	168	4	3	2	I	1	0	799	1	Ⴔ	cut_w_stereo_44KHz.wav
4	169	3	4	2	I	1	0	706	1	Ⴖ	cut_h_stereo_44KHz.wav
4	170	4	3	2	I	1	0	708	0	Ⴔ	cut_w_stereo_44KHz.wav
4	171	1	1	1	C	1	1	668	1	Ⴌ	cut_g_stereo_44KHz.wav
4	172	2	2	1	C	1	1	797	1	Ⴒ	cut_l_stereo_44KHz.wav
4	173	4	4	2	I	2	0	730	0	Ⴔ	cut_h_stereo_44KHz.wav
4	174	2	1	0	C	2	1	1095	1	Ⴒ	cut_g_stereo_44KHz.wav
4	175	1	2	0	C	2	1	749	1	Ⴌ	cut_l_stereo_44KHz.wav
4	176	3	3	2	I	2	0	1315	0	Ⴖ	cut_w_stereo_44KHz.wav
4	177	4	4	2	I	2	0	566	1	Ⴔ	cut_h_stereo_44KHz.wav
4	178	1	1	1	C	1	1	951	1	Ⴌ	cut_g_stereo_44KHz.wav
4	179	2	1	0	C	2	1	987	1	Ⴒ	cut_g_stereo_44KHz.wav
4	180	3	3	2	I	2	0	772	1	Ⴖ	cut_w_stereo_44KHz.wav
4	181	2	2	1	C	1	1	864	1	Ⴒ	cut_l_stereo_44KHz.wav
4	182	3	4	2	I	1	0	804	0	Ⴖ	cut_h_stereo_44KHz.wav
4	183	4	3	2	I	1	0	1199	0	Ⴔ	cut_w_stereo_44KHz.wav
4	184	1	2	0	C	2	1	641	1	Ⴌ	cut_l_stereo_44KHz.wav
4	185	2	1	0	C	2	1	657	1	Ⴒ	cut_g_stereo_44KHz.wav
4	186	1	2	0	C	2	1	674	1	Ⴌ	cut_l_stereo_44KHz.wav
4	187	4	3	2	I	1	0	646	1	Ⴔ	cut_w_stereo_44KHz.wav
4	188	3	3	2	I	2	0	777	0	Ⴖ	cut_w_stereo_44KHz.wav
4	189	1	1	1	C	1	1	727	1	Ⴌ	cut_g_stereo_44KHz.wav
4	190	3	4	2	I	1	0	721	1	Ⴖ	cut_h_stereo_44KHz.wav
4	191	2	2	1	C	1	1	1077	1	Ⴒ	cut_l_stereo_44KHz.wav
4	192	4	4	2	I	2	0	725	1	Ⴔ	cut_h_stereo_44KHz.wav
4	193	2	2	1	C	1	1	698	1	Ⴒ	cut_l_stereo_44KHz.wav
4	194	3	4	2	I	1	0	1030	1	Ⴖ	cut_h_stereo_44KHz.wav
4	195	1	1	1	C	1	1	1247	1	Ⴌ	cut_g_stereo_44KHz.wav
4	196	4	3	2	I	1	0	882	1	Ⴔ	cut_w_stereo_44KHz.wav
4	197	2	1	0	C	2	1	1071	1	Ⴒ	cut_g_stereo_44KHz.wav
4	198	1	2	0	C	2	1	833	1	Ⴌ	cut_l_stereo_44KHz.wav
4	199	3	3	2	I	2	0	921	1	Ⴖ	cut_w_stereo_44KHz.wav
4	200	4	4	2	I	2	0	763	1	Ⴔ	cut_h_stereo_44KHz.wav
