block	trial	Vstim	Astim	match	C/I	resp	result	RT	fb	V-file	A-file
RL

0	1	2	4	0	C	0	0	0	0	poli_8sides 22_whiteLine3.jpg	Practice1_b27_cut1_stereo_44KHz.wav
0	2	2	3	1	C	2	0	1225	0	poli_8sides 22_whiteLine3.jpg	Practice3_b26_cut1_stereo_44KHz.wav
0	3	1	1	1	C	1	1	978	1	poli_8sides 23_whiteLine3.jpg	Practice2_b27_cut2_stereo_44KHz.wav
0	4	1	2	0	C	2	1	949	1	poli_8sides 23_whiteLine3.jpg	Practice4_b26_stereo_44KHz.wav
0	5	1	2	0	C	2	1	1080	1	poli_8sides 23_whiteLine3.jpg	Practice4_b26_stereo_44KHz.wav
0	6	2	3	1	C	2	0	753	0	poli_8sides 22_whiteLine3.jpg	Practice3_b26_cut1_stereo_44KHz.wav
0	7	1	1	1	C	1	1	1083	1	poli_8sides 23_whiteLine3.jpg	Practice2_b27_cut2_stereo_44KHz.wav
0	8	2	4	0	C	2	1	574	1	poli_8sides 22_whiteLine3.jpg	Practice1_b27_cut1_stereo_44KHz.wav
0	9	2	4	0	C	2	1	926	1	poli_8sides 22_whiteLine3.jpg	Practice1_b27_cut1_stereo_44KHz.wav
0	10	1	1	1	C	1	1	764	1	poli_8sides 23_whiteLine3.jpg	Practice2_b27_cut2_stereo_44KHz.wav
0	11	1	2	0	C	2	1	833	1	poli_8sides 23_whiteLine3.jpg	Practice4_b26_stereo_44KHz.wav
0	12	2	3	1	C	1	1	831	1	poli_8sides 22_whiteLine3.jpg	Practice3_b26_cut1_stereo_44KHz.wav
0	13	2	4	0	C	2	1	718	1	poli_8sides 22_whiteLine3.jpg	Practice1_b27_cut1_stereo_44KHz.wav
0	14	1	1	1	C	1	1	706	1	poli_8sides 23_whiteLine3.jpg	Practice2_b27_cut2_stereo_44KHz.wav
0	15	1	2	0	C	2	1	905	1	poli_8sides 23_whiteLine3.jpg	Practice4_b26_stereo_44KHz.wav
0	16	2	3	1	C	1	1	955	1	poli_8sides 22_whiteLine3.jpg	Practice3_b26_cut1_stereo_44KHz.wav
0	17	2	4	0	C	2	1	602	1	poli_8sides 22_whiteLine3.jpg	Practice1_b27_cut1_stereo_44KHz.wav
0	18	1	2	0	C	2	1	853	1	poli_8sides 23_whiteLine3.jpg	Practice4_b26_stereo_44KHz.wav
0	19	2	3	1	C	1	1	803	1	poli_8sides 22_whiteLine3.jpg	Practice3_b26_cut1_stereo_44KHz.wav
0	20	1	1	1	C	1	1	968	1	poli_8sides 23_whiteLine3.jpg	Practice2_b27_cut2_stereo_44KHz.wav
0	21	1	1	1	C	1	1	885	1	poli_8sides 23_whiteLine3.jpg	Practice2_b27_cut2_stereo_44KHz.wav
0	22	2	3	1	C	1	1	787	1	poli_8sides 22_whiteLine3.jpg	Practice3_b26_cut1_stereo_44KHz.wav
0	23	1	2	0	C	2	1	762	1	poli_8sides 23_whiteLine3.jpg	Practice4_b26_stereo_44KHz.wav
0	24	2	4	0	C	2	1	603	1	poli_8sides 22_whiteLine3.jpg	Practice1_b27_cut1_stereo_44KHz.wav
0	25	2	4	0	C	2	1	512	1	poli_8sides 22_whiteLine3.jpg	Practice1_b27_cut1_stereo_44KHz.wav
0	26	1	1	1	C	1	1	642	1	poli_8sides 23_whiteLine3.jpg	Practice2_b27_cut2_stereo_44KHz.wav
0	27	1	2	0	C	2	1	715	1	poli_8sides 23_whiteLine3.jpg	Practice4_b26_stereo_44KHz.wav
0	28	2	3	1	C	1	1	814	1	poli_8sides 22_whiteLine3.jpg	Practice3_b26_cut1_stereo_44KHz.wav
0	29	2	4	0	C	2	1	607	1	poli_8sides 22_whiteLine3.jpg	Practice1_b27_cut1_stereo_44KHz.wav
0	30	1	2	0	C	2	1	705	1	poli_8sides 23_whiteLine3.jpg	Practice4_b26_stereo_44KHz.wav
avg_resp = 799
1	1	4	3	2	I	2	0	1202	1	poli_8sides 11_whiteLine3.jpg	Short_b22_cut1_stereo_44KHz.wav
1	2	2	2	1	C	2	0	1216	0	poli_8sides 13_whiteLine3.jpg	Short_b23_cut1_stereo_44KHz.wav
1	3	1	1	1	C	2	0	1148	0	poli_8sides 16_whiteLine3.jpg	Short_b09_cut1_stereo_44KHz.wav
1	4	3	4	2	I	2	0	917	1	poli_8sides 10_whiteLine3.jpg	Short_b20_cut1_stereo_44KHz.wav
1	5	4	4	2	I	1	0	886	0	poli_8sides 11_whiteLine3.jpg	Short_b20_cut1_stereo_44KHz.wav
1	6	1	2	0	C	1	0	1170	0	poli_8sides 16_whiteLine3.jpg	Short_b23_cut1_stereo_44KHz.wav
1	7	3	3	2	I	2	0	1109	1	poli_8sides 10_whiteLine3.jpg	Short_b22_cut1_stereo_44KHz.wav
1	8	2	1	0	C	1	0	954	0	poli_8sides 13_whiteLine3.jpg	Short_b09_cut1_stereo_44KHz.wav
1	9	1	1	1	C	1	1	977	1	poli_8sides 16_whiteLine3.jpg	Short_b09_cut1_stereo_44KHz.wav
1	10	4	4	2	I	2	0	1057	0	poli_8sides 11_whiteLine3.jpg	Short_b20_cut1_stereo_44KHz.wav
1	11	3	4	2	I	1	0	1323	0	poli_8sides 10_whiteLine3.jpg	Short_b20_cut1_stereo_44KHz.wav
1	12	2	1	0	C	2	1	1033	1	poli_8sides 13_whiteLine3.jpg	Short_b09_cut1_stereo_44KHz.wav
1	13	4	3	2	I	1	0	1694	0	poli_8sides 11_whiteLine3.jpg	Short_b22_cut1_stereo_44KHz.wav
1	14	1	2	0	C	2	1	1762	1	poli_8sides 16_whiteLine3.jpg	Short_b23_cut1_stereo_44KHz.wav
1	15	2	2	1	C	1	1	1041	1	poli_8sides 13_whiteLine3.jpg	Short_b23_cut1_stereo_44KHz.wav
1	16	3	3	2	I	1	0	1098	1	poli_8sides 10_whiteLine3.jpg	Short_b22_cut1_stereo_44KHz.wav
1	17	1	1	1	C	1	1	959	1	poli_8sides 16_whiteLine3.jpg	Short_b09_cut1_stereo_44KHz.wav
1	18	4	3	2	I	1	0	961	1	poli_8sides 11_whiteLine3.jpg	Short_b22_cut1_stereo_44KHz.wav
1	19	2	1	0	C	2	1	736	1	poli_8sides 13_whiteLine3.jpg	Short_b09_cut1_stereo_44KHz.wav
1	20	3	4	2	I	2	0	1235	0	poli_8sides 10_whiteLine3.jpg	Short_b20_cut1_stereo_44KHz.wav
1	21	2	2	1	C	1	1	773	1	poli_8sides 13_whiteLine3.jpg	Short_b23_cut1_stereo_44KHz.wav
1	22	4	4	2	I	2	0	1016	1	poli_8sides 11_whiteLine3.jpg	Short_b20_cut1_stereo_44KHz.wav
1	23	3	3	2	I	2	0	1223	1	poli_8sides 10_whiteLine3.jpg	Short_b22_cut1_stereo_44KHz.wav
1	24	1	2	0	C	2	1	841	1	poli_8sides 16_whiteLine3.jpg	Short_b23_cut1_stereo_44KHz.wav
1	25	3	4	2	I	2	0	960	1	poli_8sides 10_whiteLine3.jpg	Short_b20_cut1_stereo_44KHz.wav
1	26	1	1	1	C	1	1	1065	1	poli_8sides 16_whiteLine3.jpg	Short_b09_cut1_stereo_44KHz.wav
1	27	4	3	2	I	1	0	955	1	poli_8sides 11_whiteLine3.jpg	Short_b22_cut1_stereo_44KHz.wav
1	28	2	2	1	C	1	1	922	1	poli_8sides 13_whiteLine3.jpg	Short_b23_cut1_stereo_44KHz.wav
1	29	3	3	2	I	2	0	1237	0	poli_8sides 10_whiteLine3.jpg	Short_b22_cut1_stereo_44KHz.wav
1	30	1	2	0	C	1	0	1056	0	poli_8sides 16_whiteLine3.jpg	Short_b23_cut1_stereo_44KHz.wav
1	31	2	1	0	C	2	1	723	1	poli_8sides 13_whiteLine3.jpg	Short_b09_cut1_stereo_44KHz.wav
1	32	4	4	2	I	2	0	850	1	poli_8sides 11_whiteLine3.jpg	Short_b20_cut1_stereo_44KHz.wav
1	33	2	2	1	C	1	1	775	1	poli_8sides 13_whiteLine3.jpg	Short_b23_cut1_stereo_44KHz.wav
1	34	4	4	2	I	1	0	1083	1	poli_8sides 11_whiteLine3.jpg	Short_b20_cut1_stereo_44KHz.wav
1	35	3	3	2	I	2	0	1085	1	poli_8sides 10_whiteLine3.jpg	Short_b22_cut1_stereo_44KHz.wav
1	36	1	2	0	C	2	1	1295	1	poli_8sides 16_whiteLine3.jpg	Short_b23_cut1_stereo_44KHz.wav
1	37	3	4	2	I	1	0	1499	0	poli_8sides 10_whiteLine3.jpg	Short_b20_cut1_stereo_44KHz.wav
1	38	2	1	0	C	2	1	701	1	poli_8sides 13_whiteLine3.jpg	Short_b09_cut1_stereo_44KHz.wav
1	39	4	3	2	I	2	0	1324	0	poli_8sides 11_whiteLine3.jpg	Short_b22_cut1_stereo_44KHz.wav
1	40	1	1	1	C	1	1	987	1	poli_8sides 16_whiteLine3.jpg	Short_b09_cut1_stereo_44KHz.wav
1	41	2	2	1	C	1	1	763	1	poli_8sides 13_whiteLine3.jpg	Short_b23_cut1_stereo_44KHz.wav
1	42	1	1	1	C	1	1	860	1	poli_8sides 16_whiteLine3.jpg	Short_b09_cut1_stereo_44KHz.wav
1	43	3	3	2	I	1	0	1299	1	poli_8sides 10_whiteLine3.jpg	Short_b22_cut1_stereo_44KHz.wav
1	44	4	3	2	I	1	0	1239	0	poli_8sides 11_whiteLine3.jpg	Short_b22_cut1_stereo_44KHz.wav
1	45	2	1	0	C	2	1	677	1	poli_8sides 13_whiteLine3.jpg	Short_b09_cut1_stereo_44KHz.wav
1	46	1	2	0	C	2	1	921	1	poli_8sides 16_whiteLine3.jpg	Short_b23_cut1_stereo_44KHz.wav
1	47	3	4	2	I	2	0	1255	0	poli_8sides 10_whiteLine3.jpg	Short_b20_cut1_stereo_44KHz.wav
1	48	4	4	2	I	2	0	688	0	poli_8sides 11_whiteLine3.jpg	Short_b20_cut1_stereo_44KHz.wav
1	49	2	1	0	C	2	1	622	1	poli_8sides 13_whiteLine3.jpg	Short_b09_cut1_stereo_44KHz.wav
1	50	4	3	2	I	1	0	1026	0	poli_8sides 11_whiteLine3.jpg	Short_b22_cut1_stereo_44KHz.wav
1	51	3	3	2	I	2	0	1141	0	poli_8sides 10_whiteLine3.jpg	Short_b22_cut1_stereo_44KHz.wav
1	52	1	2	0	C	2	1	719	1	poli_8sides 16_whiteLine3.jpg	Short_b23_cut1_stereo_44KHz.wav
1	53	4	4	2	I	2	0	868	1	poli_8sides 11_whiteLine3.jpg	Short_b20_cut1_stereo_44KHz.wav
1	54	3	4	2	I	1	0	887	1	poli_8sides 10_whiteLine3.jpg	Short_b20_cut1_stereo_44KHz.wav
1	55	1	1	1	C	1	1	920	1	poli_8sides 16_whiteLine3.jpg	Short_b09_cut1_stereo_44KHz.wav
1	56	2	2	1	C	1	1	739	1	poli_8sides 13_whiteLine3.jpg	Short_b23_cut1_stereo_44KHz.wav
1	57	3	4	2	I	1	0	1892	0	poli_8sides 10_whiteLine3.jpg	Short_b20_cut1_stereo_44KHz.wav
1	58	2	2	1	C	1	1	795	1	poli_8sides 13_whiteLine3.jpg	Short_b23_cut1_stereo_44KHz.wav
1	59	4	3	2	I	1	0	986	0	poli_8sides 11_whiteLine3.jpg	Short_b22_cut1_stereo_44KHz.wav
1	60	1	2	0	C	2	1	930	1	poli_8sides 16_whiteLine3.jpg	Short_b23_cut1_stereo_44KHz.wav
1	61	4	4	2	I	2	0	793	0	poli_8sides 11_whiteLine3.jpg	Short_b20_cut1_stereo_44KHz.wav
1	62	2	1	0	C	2	1	704	1	poli_8sides 13_whiteLine3.jpg	Short_b09_cut1_stereo_44KHz.wav
1	63	3	3	2	I	2	0	1665	1	poli_8sides 10_whiteLine3.jpg	Short_b22_cut1_stereo_44KHz.wav
1	64	1	1	1	C	1	1	813	1	poli_8sides 16_whiteLine3.jpg	Short_b09_cut1_stereo_44KHz.wav
1	65	3	3	2	I	2	0	860	0	poli_8sides 10_whiteLine3.jpg	Short_b22_cut1_stereo_44KHz.wav
1	66	4	3	2	I	1	0	760	0	poli_8sides 11_whiteLine3.jpg	Short_b22_cut1_stereo_44KHz.wav
1	67	2	2	1	C	1	1	818	1	poli_8sides 13_whiteLine3.jpg	Short_b23_cut1_stereo_44KHz.wav
1	68	1	1	1	C	1	1	1586	1	poli_8sides 16_whiteLine3.jpg	Short_b09_cut1_stereo_44KHz.wav
1	69	3	4	2	I	1	0	1249	0	poli_8sides 10_whiteLine3.jpg	Short_b20_cut1_stereo_44KHz.wav
1	70	1	2	0	C	2	1	1698	1	poli_8sides 16_whiteLine3.jpg	Short_b23_cut1_stereo_44KHz.wav
1	71	4	4	2	I	2	0	702	0	poli_8sides 11_whiteLine3.jpg	Short_b20_cut1_stereo_44KHz.wav
1	72	2	1	0	C	2	1	625	1	poli_8sides 13_whiteLine3.jpg	Short_b09_cut1_stereo_44KHz.wav
1	73	4	4	2	I	2	0	815	0	poli_8sides 11_whiteLine3.jpg	Short_b20_cut1_stereo_44KHz.wav
1	74	1	1	1	C	1	1	816	1	poli_8sides 16_whiteLine3.jpg	Short_b09_cut1_stereo_44KHz.wav
1	75	3	4	2	I	1	0	1175	0	poli_8sides 10_whiteLine3.jpg	Short_b20_cut1_stereo_44KHz.wav
1	76	2	1	0	C	2	1	597	1	poli_8sides 13_whiteLine3.jpg	Short_b09_cut1_stereo_44KHz.wav
1	77	3	3	2	I	2	0	584	1	poli_8sides 10_whiteLine3.jpg	Short_b22_cut1_stereo_44KHz.wav
1	78	4	3	2	I	1	0	730	1	poli_8sides 11_whiteLine3.jpg	Short_b22_cut1_stereo_44KHz.wav
1	79	1	2	0	C	2	1	798	1	poli_8sides 16_whiteLine3.jpg	Short_b23_cut1_stereo_44KHz.wav
1	80	2	2	1	C	1	1	638	1	poli_8sides 13_whiteLine3.jpg	Short_b23_cut1_stereo_44KHz.wav
1	81	3	4	2	I	1	0	1260	1	poli_8sides 10_whiteLine3.jpg	Short_b20_cut1_stereo_44KHz.wav
1	82	2	1	0	C	2	1	728	1	poli_8sides 13_whiteLine3.jpg	Short_b09_cut1_stereo_44KHz.wav
1	83	1	1	1	C	1	1	1697	1	poli_8sides 16_whiteLine3.jpg	Short_b09_cut1_stereo_44KHz.wav
1	84	4	4	2	I	2	0	583	0	poli_8sides 11_whiteLine3.jpg	Short_b20_cut1_stereo_44KHz.wav
1	85	2	2	1	C	1	1	760	1	poli_8sides 13_whiteLine3.jpg	Short_b23_cut1_stereo_44KHz.wav
1	86	4	3	2	I	1	0	763	1	poli_8sides 11_whiteLine3.jpg	Short_b22_cut1_stereo_44KHz.wav
1	87	1	2	0	C	1	0	948	0	poli_8sides 16_whiteLine3.jpg	Short_b23_cut1_stereo_44KHz.wav
1	88	3	3	2	I	2	0	938	0	poli_8sides 10_whiteLine3.jpg	Short_b22_cut1_stereo_44KHz.wav
1	89	4	4	2	I	2	0	981	1	poli_8sides 11_whiteLine3.jpg	Short_b20_cut1_stereo_44KHz.wav
1	90	1	2	0	C	2	1	1490	1	poli_8sides 16_whiteLine3.jpg	Short_b23_cut1_stereo_44KHz.wav
1	91	3	4	2	I	2	0	774	1	poli_8sides 10_whiteLine3.jpg	Short_b20_cut1_stereo_44KHz.wav
1	92	2	1	0	C	2	1	668	1	poli_8sides 13_whiteLine3.jpg	Short_b09_cut1_stereo_44KHz.wav
1	93	4	3	2	I	1	0	1087	1	poli_8sides 11_whiteLine3.jpg	Short_b22_cut1_stereo_44KHz.wav
1	94	1	1	1	C	1	1	800	1	poli_8sides 16_whiteLine3.jpg	Short_b09_cut1_stereo_44KHz.wav
1	95	3	3	2	I	2	0	748	0	poli_8sides 10_whiteLine3.jpg	Short_b22_cut1_stereo_44KHz.wav
1	96	2	2	1	C	1	1	1181	1	poli_8sides 13_whiteLine3.jpg	Short_b23_cut1_stereo_44KHz.wav
1	97	1	1	1	C	1	1	863	1	poli_8sides 16_whiteLine3.jpg	Short_b09_cut1_stereo_44KHz.wav
1	98	4	3	2	I	1	0	813	0	poli_8sides 11_whiteLine3.jpg	Short_b22_cut1_stereo_44KHz.wav
1	99	3	4	2	I	1	0	1056	0	poli_8sides 10_whiteLine3.jpg	Short_b20_cut1_stereo_44KHz.wav
1	100	2	1	0	C	2	1	486	1	poli_8sides 13_whiteLine3.jpg	Short_b09_cut1_stereo_44KHz.wav
1	101	1	2	0	C	2	1	823	1	poli_8sides 16_whiteLine3.jpg	Short_b23_cut1_stereo_44KHz.wav
1	102	4	4	2	I	2	0	652	1	poli_8sides 11_whiteLine3.jpg	Short_b20_cut1_stereo_44KHz.wav
1	103	2	2	1	C	2	0	681	0	poli_8sides 13_whiteLine3.jpg	Short_b23_cut1_stereo_44KHz.wav
1	104	3	3	2	I	2	0	1291	0	poli_8sides 10_whiteLine3.jpg	Short_b22_cut1_stereo_44KHz.wav
1	105	1	2	0	C	2	1	640	1	poli_8sides 16_whiteLine3.jpg	Short_b23_cut1_stereo_44KHz.wav
1	106	3	4	2	I	1	0	1341	1	poli_8sides 10_whiteLine3.jpg	Short_b20_cut1_stereo_44KHz.wav
1	107	2	1	0	C	2	1	563	1	poli_8sides 13_whiteLine3.jpg	Short_b09_cut1_stereo_44KHz.wav
1	108	4	3	2	I	1	0	1030	1	poli_8sides 11_whiteLine3.jpg	Short_b22_cut1_stereo_44KHz.wav
1	109	1	1	1	C	0	0	0	0	poli_8sides 16_whiteLine3.jpg	Short_b09_cut1_stereo_44KHz.wav
1	110	2	2	1	C	1	1	1536	1	poli_8sides 13_whiteLine3.jpg	Short_b23_cut1_stereo_44KHz.wav
1	111	4	4	2	I	2	0	642	1	poli_8sides 11_whiteLine3.jpg	Short_b20_cut1_stereo_44KHz.wav
1	112	3	3	2	I	2	0	1227	0	poli_8sides 10_whiteLine3.jpg	Short_b22_cut1_stereo_44KHz.wav
1	113	4	3	2	I	1	0	755	0	poli_8sides 11_whiteLine3.jpg	Short_b22_cut1_stereo_44KHz.wav
1	114	1	1	1	C	1	1	760	1	poli_8sides 16_whiteLine3.jpg	Short_b09_cut1_stereo_44KHz.wav
1	115	2	1	0	C	2	1	675	1	poli_8sides 13_whiteLine3.jpg	Short_b09_cut1_stereo_44KHz.wav
1	116	3	3	2	I	2	0	934	1	poli_8sides 10_whiteLine3.jpg	Short_b22_cut1_stereo_44KHz.wav
1	117	2	2	1	C	1	1	679	1	poli_8sides 13_whiteLine3.jpg	Short_b23_cut1_stereo_44KHz.wav
1	118	1	2	0	C	2	1	831	1	poli_8sides 16_whiteLine3.jpg	Short_b23_cut1_stereo_44KHz.wav
1	119	3	4	2	I	1	0	1514	1	poli_8sides 10_whiteLine3.jpg	Short_b20_cut1_stereo_44KHz.wav
1	120	4	4	2	I	2	0	456	0	poli_8sides 11_whiteLine3.jpg	Short_b20_cut1_stereo_44KHz.wav
1	121	1	1	1	C	1	1	1108	1	poli_8sides 16_whiteLine3.jpg	Short_b09_cut1_stereo_44KHz.wav
1	122	2	1	0	C	2	1	641	1	poli_8sides 13_whiteLine3.jpg	Short_b09_cut1_stereo_44KHz.wav
1	123	4	4	2	I	2	0	921	1	poli_8sides 11_whiteLine3.jpg	Short_b20_cut1_stereo_44KHz.wav
1	124	3	4	2	I	1	0	1575	1	poli_8sides 10_whiteLine3.jpg	Short_b20_cut1_stereo_44KHz.wav
1	125	1	2	0	C	2	1	538	1	poli_8sides 16_whiteLine3.jpg	Short_b23_cut1_stereo_44KHz.wav
1	126	2	2	1	C	1	1	634	1	poli_8sides 13_whiteLine3.jpg	Short_b23_cut1_stereo_44KHz.wav
1	127	4	3	2	I	1	0	1035	1	poli_8sides 11_whiteLine3.jpg	Short_b22_cut1_stereo_44KHz.wav
1	128	3	3	2	I	2	0	407	1	poli_8sides 10_whiteLine3.jpg	Short_b22_cut1_stereo_44KHz.wav
1	129	2	2	1	C	1	1	684	1	poli_8sides 13_whiteLine3.jpg	Short_b23_cut1_stereo_44KHz.wav
1	130	1	1	1	C	1	1	732	1	poli_8sides 16_whiteLine3.jpg	Short_b09_cut1_stereo_44KHz.wav
1	131	3	3	2	I	2	0	1142	0	poli_8sides 10_whiteLine3.jpg	Short_b22_cut1_stereo_44KHz.wav
1	132	4	4	2	I	2	0	877	0	poli_8sides 11_whiteLine3.jpg	Short_b20_cut1_stereo_44KHz.wav
1	133	1	2	0	C	2	1	846	1	poli_8sides 16_whiteLine3.jpg	Short_b23_cut1_stereo_44KHz.wav
1	134	4	3	2	I	1	0	1384	1	poli_8sides 11_whiteLine3.jpg	Short_b22_cut1_stereo_44KHz.wav
1	135	2	1	0	C	2	1	535	1	poli_8sides 13_whiteLine3.jpg	Short_b09_cut1_stereo_44KHz.wav
1	136	3	4	2	I	1	0	1443	0	poli_8sides 10_whiteLine3.jpg	Short_b20_cut1_stereo_44KHz.wav
1	137	4	3	2	I	1	0	740	1	poli_8sides 11_whiteLine3.jpg	Short_b22_cut1_stereo_44KHz.wav
1	138	2	2	1	C	1	1	747	1	poli_8sides 13_whiteLine3.jpg	Short_b23_cut1_stereo_44KHz.wav
1	139	1	1	1	C	1	1	1628	1	poli_8sides 16_whiteLine3.jpg	Short_b09_cut1_stereo_44KHz.wav
1	140	3	4	2	I	1	0	708	1	poli_8sides 10_whiteLine3.jpg	Short_b20_cut1_stereo_44KHz.wav
1	141	4	4	2	I	2	0	1076	0	poli_8sides 11_whiteLine3.jpg	Short_b20_cut1_stereo_44KHz.wav
1	142	1	2	0	C	2	1	731	1	poli_8sides 16_whiteLine3.jpg	Short_b23_cut1_stereo_44KHz.wav
1	143	3	3	2	I	2	0	996	1	poli_8sides 10_whiteLine3.jpg	Short_b22_cut1_stereo_44KHz.wav
1	144	2	1	0	C	2	1	567	1	poli_8sides 13_whiteLine3.jpg	Short_b09_cut1_stereo_44KHz.wav
1	145	3	3	2	I	1	0	1063	0	poli_8sides 10_whiteLine3.jpg	Short_b22_cut1_stereo_44KHz.wav
1	146	4	4	2	I	2	0	680	1	poli_8sides 11_whiteLine3.jpg	Short_b20_cut1_stereo_44KHz.wav
1	147	1	1	1	C	2	0	598	0	poli_8sides 16_whiteLine3.jpg	Short_b09_cut1_stereo_44KHz.wav
1	148	2	1	0	C	2	1	543	1	poli_8sides 13_whiteLine3.jpg	Short_b09_cut1_stereo_44KHz.wav
1	149	4	3	2	I	1	0	623	0	poli_8sides 11_whiteLine3.jpg	Short_b22_cut1_stereo_44KHz.wav
1	150	2	2	1	C	1	1	810	1	poli_8sides 13_whiteLine3.jpg	Short_b23_cut1_stereo_44KHz.wav
1	151	1	2	0	C	2	1	636	1	poli_8sides 16_whiteLine3.jpg	Short_b23_cut1_stereo_44KHz.wav
1	152	3	4	2	I	1	0	710	1	poli_8sides 10_whiteLine3.jpg	Short_b20_cut1_stereo_44KHz.wav
1	153	2	1	0	C	2	1	713	1	poli_8sides 13_whiteLine3.jpg	Short_b09_cut1_stereo_44KHz.wav
1	154	1	2	0	C	2	1	664	1	poli_8sides 16_whiteLine3.jpg	Short_b23_cut1_stereo_44KHz.wav
1	155	4	3	2	I	1	0	621	1	poli_8sides 11_whiteLine3.jpg	Short_b22_cut1_stereo_44KHz.wav
1	156	3	4	2	I	1	0	652	1	poli_8sides 10_whiteLine3.jpg	Short_b20_cut1_stereo_44KHz.wav
1	157	4	4	2	I	2	0	680	1	poli_8sides 11_whiteLine3.jpg	Short_b20_cut1_stereo_44KHz.wav
1	158	3	3	2	I	2	0	1720	1	poli_8sides 10_whiteLine3.jpg	Short_b22_cut1_stereo_44KHz.wav
1	159	1	1	1	C	1	1	629	1	poli_8sides 16_whiteLine3.jpg	Short_b09_cut1_stereo_44KHz.wav
1	160	2	2	1	C	1	1	718	1	poli_8sides 13_whiteLine3.jpg	Short_b23_cut1_stereo_44KHz.wav
1	161	3	3	2	I	2	0	1416	0	poli_8sides 10_whiteLine3.jpg	Short_b22_cut1_stereo_44KHz.wav
1	162	2	2	1	C	1	1	710	1	poli_8sides 13_whiteLine3.jpg	Short_b23_cut1_stereo_44KHz.wav
1	163	4	3	2	I	1	0	914	0	poli_8sides 11_whiteLine3.jpg	Short_b22_cut1_stereo_44KHz.wav
1	164	1	2	0	C	2	1	683	1	poli_8sides 16_whiteLine3.jpg	Short_b23_cut1_stereo_44KHz.wav
1	165	4	4	2	I	1	0	507	1	poli_8sides 11_whiteLine3.jpg	Short_b20_cut1_stereo_44KHz.wav
1	166	1	1	1	C	1	1	1210	1	poli_8sides 16_whiteLine3.jpg	Short_b09_cut1_stereo_44KHz.wav
1	167	3	4	2	I	2	0	1497	0	poli_8sides 10_whiteLine3.jpg	Short_b20_cut1_stereo_44KHz.wav
1	168	2	1	0	C	2	1	685	1	poli_8sides 13_whiteLine3.jpg	Short_b09_cut1_stereo_44KHz.wav
1	169	4	3	2	I	1	0	631	0	poli_8sides 11_whiteLine3.jpg	Short_b22_cut1_stereo_44KHz.wav
1	170	1	1	1	C	1	1	892	1	poli_8sides 16_whiteLine3.jpg	Short_b09_cut1_stereo_44KHz.wav
1	171	3	4	2	I	1	0	1738	1	poli_8sides 10_whiteLine3.jpg	Short_b20_cut1_stereo_44KHz.wav
1	172	2	1	0	C	1	0	619	0	poli_8sides 13_whiteLine3.jpg	Short_b09_cut1_stereo_44KHz.wav
1	173	1	2	0	C	2	1	1049	1	poli_8sides 16_whiteLine3.jpg	Short_b23_cut1_stereo_44KHz.wav
1	174	2	2	1	C	1	1	821	1	poli_8sides 13_whiteLine3.jpg	Short_b23_cut1_stereo_44KHz.wav
1	175	4	4	2	I	2	0	619	0	poli_8sides 11_whiteLine3.jpg	Short_b20_cut1_stereo_44KHz.wav
1	176	3	3	2	I	2	0	1029	0	poli_8sides 10_whiteLine3.jpg	Short_b22_cut1_stereo_44KHz.wav
1	177	1	2	0	C	2	1	834	1	poli_8sides 16_whiteLine3.jpg	Short_b23_cut1_stereo_44KHz.wav
1	178	2	1	0	C	2	1	407	1	poli_8sides 13_whiteLine3.jpg	Short_b09_cut1_stereo_44KHz.wav
1	179	3	3	2	I	2	0	750	0	poli_8sides 10_whiteLine3.jpg	Short_b22_cut1_stereo_44KHz.wav
1	180	4	4	2	I	2	0	487	1	poli_8sides 11_whiteLine3.jpg	Short_b20_cut1_stereo_44KHz.wav
1	181	3	4	2	I	1	0	1188	0	poli_8sides 10_whiteLine3.jpg	Short_b20_cut1_stereo_44KHz.wav
1	182	1	1	1	C	1	1	1085	1	poli_8sides 16_whiteLine3.jpg	Short_b09_cut1_stereo_44KHz.wav
1	183	4	3	2	I	1	0	695	0	poli_8sides 11_whiteLine3.jpg	Short_b22_cut1_stereo_44KHz.wav
1	184	2	2	1	C	1	1	655	1	poli_8sides 13_whiteLine3.jpg	Short_b23_cut1_stereo_44KHz.wav
1	185	3	4	2	I	1	0	1294	0	poli_8sides 10_whiteLine3.jpg	Short_b20_cut1_stereo_44KHz.wav
1	186	1	2	0	C	2	1	630	1	poli_8sides 16_whiteLine3.jpg	Short_b23_cut1_stereo_44KHz.wav
1	187	2	2	1	C	1	1	670	1	poli_8sides 13_whiteLine3.jpg	Short_b23_cut1_stereo_44KHz.wav
1	188	4	4	2	I	2	0	860	1	poli_8sides 11_whiteLine3.jpg	Short_b20_cut1_stereo_44KHz.wav
1	189	3	3	2	I	1	0	1288	1	poli_8sides 10_whiteLine3.jpg	Short_b22_cut1_stereo_44KHz.wav
1	190	2	1	0	C	2	1	662	1	poli_8sides 13_whiteLine3.jpg	Short_b09_cut1_stereo_44KHz.wav
1	191	4	3	2	I	1	0	785	0	poli_8sides 11_whiteLine3.jpg	Short_b22_cut1_stereo_44KHz.wav
1	192	1	1	1	C	1	1	1251	1	poli_8sides 16_whiteLine3.jpg	Short_b09_cut1_stereo_44KHz.wav
1	193	2	1	0	C	2	1	1148	1	poli_8sides 13_whiteLine3.jpg	Short_b09_cut1_stereo_44KHz.wav
1	194	3	4	2	I	1	0	785	1	poli_8sides 10_whiteLine3.jpg	Short_b20_cut1_stereo_44KHz.wav
1	195	1	2	0	C	1	0	632	0	poli_8sides 16_whiteLine3.jpg	Short_b23_cut1_stereo_44KHz.wav
1	196	4	4	2	I	2	0	697	1	poli_8sides 11_whiteLine3.jpg	Short_b20_cut1_stereo_44KHz.wav
1	197	3	3	2	I	1	0	1085	0	poli_8sides 10_whiteLine3.jpg	Short_b22_cut1_stereo_44KHz.wav
1	198	4	3	2	I	1	0	984	0	poli_8sides 11_whiteLine3.jpg	Short_b22_cut1_stereo_44KHz.wav
1	199	2	2	1	C	1	1	806	1	poli_8sides 13_whiteLine3.jpg	Short_b23_cut1_stereo_44KHz.wav
1	200	1	1	1	C	2	0	895	0	poli_8sides 16_whiteLine3.jpg	Short_b09_cut1_stereo_44KHz.wav
2	1	2	2	1	C	2	0	1474	0	poli_8sides 1_whiteLine3.jpg	Medium_e01_cut1_stereo_44KHz.wav
2	2	3	4	2	I	2	0	722	0	poli_8sides 15_whiteLine3.jpg	Medium_e21_stereo_44KHz.wav
2	3	4	3	2	I	2	0	733	0	poli_8sides 8_whiteLine3.jpg	MediumLong_b10_cut2_L_stereo_44KHz.wav
2	4	1	1	1	C	2	0	665	0	poli_8sides 4_whiteLine3.jpg	MediumLong_e04_stereo_44KHz.wav
2	5	4	4	2	I	2	0	726	1	poli_8sides 8_whiteLine3.jpg	Medium_e21_stereo_44KHz.wav
2	6	1	2	0	C	2	1	872	1	poli_8sides 4_whiteLine3.jpg	Medium_e01_cut1_stereo_44KHz.wav
2	7	3	3	2	I	2	0	1227	0	poli_8sides 15_whiteLine3.jpg	MediumLong_b10_cut2_L_stereo_44KHz.wav
2	8	2	1	0	C	1	0	633	0	poli_8sides 1_whiteLine3.jpg	MediumLong_e04_stereo_44KHz.wav
2	9	3	4	2	I	1	0	1927	1	poli_8sides 15_whiteLine3.jpg	Medium_e21_stereo_44KHz.wav
2	10	4	3	2	I	1	0	1547	0	poli_8sides 8_whiteLine3.jpg	MediumLong_b10_cut2_L_stereo_44KHz.wav
2	11	1	2	0	C	2	1	1412	1	poli_8sides 4_whiteLine3.jpg	Medium_e01_cut1_stereo_44KHz.wav
2	12	2	1	0	C	2	1	844	1	poli_8sides 1_whiteLine3.jpg	MediumLong_e04_stereo_44KHz.wav
2	13	3	3	2	I	2	0	962	1	poli_8sides 15_whiteLine3.jpg	MediumLong_b10_cut2_L_stereo_44KHz.wav
2	14	2	2	1	C	2	0	654	0	poli_8sides 1_whiteLine3.jpg	Medium_e01_cut1_stereo_44KHz.wav
2	15	4	4	2	I	2	0	1042	1	poli_8sides 8_whiteLine3.jpg	Medium_e21_stereo_44KHz.wav
2	16	1	1	1	C	2	0	700	0	poli_8sides 4_whiteLine3.jpg	MediumLong_e04_stereo_44KHz.wav
2	17	3	4	2	I	2	0	1873	0	poli_8sides 15_whiteLine3.jpg	Medium_e21_stereo_44KHz.wav
2	18	1	2	0	C	2	1	1423	1	poli_8sides 4_whiteLine3.jpg	Medium_e01_cut1_stereo_44KHz.wav
2	19	4	4	2	I	2	0	822	1	poli_8sides 8_whiteLine3.jpg	Medium_e21_stereo_44KHz.wav
2	20	2	1	0	C	2	1	542	1	poli_8sides 1_whiteLine3.jpg	MediumLong_e04_stereo_44KHz.wav
2	21	4	3	2	I	1	0	1110	0	poli_8sides 8_whiteLine3.jpg	MediumLong_b10_cut2_L_stereo_44KHz.wav
2	22	2	2	1	C	2	0	735	0	poli_8sides 1_whiteLine3.jpg	Medium_e01_cut1_stereo_44KHz.wav
2	23	1	1	1	C	1	1	1327	1	poli_8sides 4_whiteLine3.jpg	MediumLong_e04_stereo_44KHz.wav
2	24	3	3	2	I	2	0	1554	0	poli_8sides 15_whiteLine3.jpg	MediumLong_b10_cut2_L_stereo_44KHz.wav
2	25	1	2	0	C	2	1	1279	1	poli_8sides 4_whiteLine3.jpg	Medium_e01_cut1_stereo_44KHz.wav
2	26	3	4	2	I	1	0	1109	1	poli_8sides 15_whiteLine3.jpg	Medium_e21_stereo_44KHz.wav
2	27	2	2	1	C	1	1	1005	1	poli_8sides 1_whiteLine3.jpg	Medium_e01_cut1_stereo_44KHz.wav
2	28	4	3	2	I	1	0	1261	1	poli_8sides 8_whiteLine3.jpg	MediumLong_b10_cut2_L_stereo_44KHz.wav
2	29	1	1	1	C	1	1	891	1	poli_8sides 4_whiteLine3.jpg	MediumLong_e04_stereo_44KHz.wav
2	30	3	3	2	I	2	0	1533	1	poli_8sides 15_whiteLine3.jpg	MediumLong_b10_cut2_L_stereo_44KHz.wav
2	31	2	1	0	C	2	1	711	1	poli_8sides 1_whiteLine3.jpg	MediumLong_e04_stereo_44KHz.wav
2	32	4	4	2	I	2	0	796	1	poli_8sides 8_whiteLine3.jpg	Medium_e21_stereo_44KHz.wav
2	33	1	1	1	C	1	1	1108	1	poli_8sides 4_whiteLine3.jpg	MediumLong_e04_stereo_44KHz.wav
2	34	4	3	2	I	1	0	986	0	poli_8sides 8_whiteLine3.jpg	MediumLong_b10_cut2_L_stereo_44KHz.wav
2	35	3	4	2	I	1	0	1169	1	poli_8sides 15_whiteLine3.jpg	Medium_e21_stereo_44KHz.wav
2	36	2	2	1	C	1	1	965	1	poli_8sides 1_whiteLine3.jpg	Medium_e01_cut1_stereo_44KHz.wav
2	37	4	4	2	I	2	0	655	1	poli_8sides 8_whiteLine3.jpg	Medium_e21_stereo_44KHz.wav
2	38	3	3	2	I	2	0	1190	1	poli_8sides 15_whiteLine3.jpg	MediumLong_b10_cut2_L_stereo_44KHz.wav
2	39	2	1	0	C	2	1	540	1	poli_8sides 1_whiteLine3.jpg	MediumLong_e04_stereo_44KHz.wav
2	40	1	2	0	C	2	1	1504	1	poli_8sides 4_whiteLine3.jpg	Medium_e01_cut1_stereo_44KHz.wav
2	41	2	2	1	C	1	1	717	1	poli_8sides 1_whiteLine3.jpg	Medium_e01_cut1_stereo_44KHz.wav
2	42	3	4	2	I	1	0	876	1	poli_8sides 15_whiteLine3.jpg	Medium_e21_stereo_44KHz.wav
2	43	4	4	2	I	2	0	647	0	poli_8sides 8_whiteLine3.jpg	Medium_e21_stereo_44KHz.wav
2	44	1	1	1	C	1	1	806	1	poli_8sides 4_whiteLine3.jpg	MediumLong_e04_stereo_44KHz.wav
2	45	4	3	2	I	1	0	703	0	poli_8sides 8_whiteLine3.jpg	MediumLong_b10_cut2_L_stereo_44KHz.wav
2	46	3	3	2	I	2	0	974	1	poli_8sides 15_whiteLine3.jpg	MediumLong_b10_cut2_L_stereo_44KHz.wav
2	47	1	2	0	C	2	1	1257	1	poli_8sides 4_whiteLine3.jpg	Medium_e01_cut1_stereo_44KHz.wav
2	48	2	1	0	C	2	1	553	1	poli_8sides 1_whiteLine3.jpg	MediumLong_e04_stereo_44KHz.wav
2	49	3	4	2	I	1	0	871	1	poli_8sides 15_whiteLine3.jpg	Medium_e21_stereo_44KHz.wav
2	50	4	3	2	I	1	0	835	0	poli_8sides 8_whiteLine3.jpg	MediumLong_b10_cut2_L_stereo_44KHz.wav
2	51	1	2	0	C	2	1	1771	1	poli_8sides 4_whiteLine3.jpg	Medium_e01_cut1_stereo_44KHz.wav
2	52	2	1	0	C	1	0	1069	0	poli_8sides 1_whiteLine3.jpg	MediumLong_e04_stereo_44KHz.wav
2	53	3	3	2	I	2	0	1706	1	poli_8sides 15_whiteLine3.jpg	MediumLong_b10_cut2_L_stereo_44KHz.wav
2	54	4	4	2	I	2	0	643	0	poli_8sides 8_whiteLine3.jpg	Medium_e21_stereo_44KHz.wav
2	55	1	1	1	C	1	1	729	1	poli_8sides 4_whiteLine3.jpg	MediumLong_e04_stereo_44KHz.wav
2	56	2	2	1	C	1	1	677	1	poli_8sides 1_whiteLine3.jpg	Medium_e01_cut1_stereo_44KHz.wav
2	57	3	4	2	I	1	0	820	0	poli_8sides 15_whiteLine3.jpg	Medium_e21_stereo_44KHz.wav
2	58	4	3	2	I	1	0	808	0	poli_8sides 8_whiteLine3.jpg	MediumLong_b10_cut2_L_stereo_44KHz.wav
2	59	2	1	0	C	2	1	590	1	poli_8sides 1_whiteLine3.jpg	MediumLong_e04_stereo_44KHz.wav
2	60	1	1	1	C	1	1	684	1	poli_8sides 4_whiteLine3.jpg	MediumLong_e04_stereo_44KHz.wav
2	61	3	3	2	I	1	0	1394	1	poli_8sides 15_whiteLine3.jpg	MediumLong_b10_cut2_L_stereo_44KHz.wav
2	62	2	2	1	C	1	1	701	1	poli_8sides 1_whiteLine3.jpg	Medium_e01_cut1_stereo_44KHz.wav
2	63	4	4	2	I	2	0	612	1	poli_8sides 8_whiteLine3.jpg	Medium_e21_stereo_44KHz.wav
2	64	1	2	0	C	1	0	740	0	poli_8sides 4_whiteLine3.jpg	Medium_e01_cut1_stereo_44KHz.wav
2	65	4	3	2	I	1	0	661	1	poli_8sides 8_whiteLine3.jpg	MediumLong_b10_cut2_L_stereo_44KHz.wav
2	66	1	2	0	C	2	1	1134	1	poli_8sides 4_whiteLine3.jpg	Medium_e01_cut1_stereo_44KHz.wav
2	67	3	3	2	I	2	0	1282	1	poli_8sides 15_whiteLine3.jpg	MediumLong_b10_cut2_L_stereo_44KHz.wav
2	68	2	2	1	C	1	1	619	1	poli_8sides 1_whiteLine3.jpg	Medium_e01_cut1_stereo_44KHz.wav
2	69	1	1	1	C	1	1	716	1	poli_8sides 4_whiteLine3.jpg	MediumLong_e04_stereo_44KHz.wav
2	70	4	4	2	I	2	0	498	0	poli_8sides 8_whiteLine3.jpg	Medium_e21_stereo_44KHz.wav
2	71	2	1	0	C	2	1	478	1	poli_8sides 1_whiteLine3.jpg	MediumLong_e04_stereo_44KHz.wav
2	72	3	4	2	I	1	0	631	0	poli_8sides 15_whiteLine3.jpg	Medium_e21_stereo_44KHz.wav
2	73	1	2	0	C	2	1	653	1	poli_8sides 4_whiteLine3.jpg	Medium_e01_cut1_stereo_44KHz.wav
2	74	3	4	2	I	2	0	792	0	poli_8sides 15_whiteLine3.jpg	Medium_e21_stereo_44KHz.wav
2	75	4	4	2	I	2	0	956	0	poli_8sides 8_whiteLine3.jpg	Medium_e21_stereo_44KHz.wav
2	76	2	1	0	C	2	1	527	1	poli_8sides 1_whiteLine3.jpg	MediumLong_e04_stereo_44KHz.wav
2	77	1	1	1	C	1	1	1156	1	poli_8sides 4_whiteLine3.jpg	MediumLong_e04_stereo_44KHz.wav
2	78	4	3	2	I	1	0	730	0	poli_8sides 8_whiteLine3.jpg	MediumLong_b10_cut2_L_stereo_44KHz.wav
2	79	2	2	1	C	1	1	894	1	poli_8sides 1_whiteLine3.jpg	Medium_e01_cut1_stereo_44KHz.wav
2	80	3	3	2	I	2	0	1362	0	poli_8sides 15_whiteLine3.jpg	MediumLong_b10_cut2_L_stereo_44KHz.wav
2	81	1	1	1	C	2	0	598	0	poli_8sides 4_whiteLine3.jpg	MediumLong_e04_stereo_44KHz.wav
2	82	4	3	2	I	1	0	837	1	poli_8sides 8_whiteLine3.jpg	MediumLong_b10_cut2_L_stereo_44KHz.wav
2	83	3	4	2	I	1	0	822	0	poli_8sides 15_whiteLine3.jpg	Medium_e21_stereo_44KHz.wav
2	84	2	1	0	C	2	1	607	1	poli_8sides 1_whiteLine3.jpg	MediumLong_e04_stereo_44KHz.wav
2	85	1	2	0	C	2	1	776	1	poli_8sides 4_whiteLine3.jpg	Medium_e01_cut1_stereo_44KHz.wav
2	86	4	4	2	I	2	0	527	1	poli_8sides 8_whiteLine3.jpg	Medium_e21_stereo_44KHz.wav
2	87	2	2	1	C	2	0	606	0	poli_8sides 1_whiteLine3.jpg	Medium_e01_cut1_stereo_44KHz.wav
2	88	3	3	2	I	2	0	1179	0	poli_8sides 15_whiteLine3.jpg	MediumLong_b10_cut2_L_stereo_44KHz.wav
2	89	4	3	2	I	1	0	818	0	poli_8sides 8_whiteLine3.jpg	MediumLong_b10_cut2_L_stereo_44KHz.wav
2	90	3	4	2	I	1	0	1293	0	poli_8sides 15_whiteLine3.jpg	Medium_e21_stereo_44KHz.wav
2	91	1	2	0	C	2	1	592	1	poli_8sides 4_whiteLine3.jpg	Medium_e01_cut1_stereo_44KHz.wav
2	92	2	2	1	C	1	1	616	1	poli_8sides 1_whiteLine3.jpg	Medium_e01_cut1_stereo_44KHz.wav
2	93	3	3	2	I	2	0	1435	1	poli_8sides 15_whiteLine3.jpg	MediumLong_b10_cut2_L_stereo_44KHz.wav
2	94	4	4	2	I	2	0	640	0	poli_8sides 8_whiteLine3.jpg	Medium_e21_stereo_44KHz.wav
2	95	2	1	0	C	2	1	520	1	poli_8sides 1_whiteLine3.jpg	MediumLong_e04_stereo_44KHz.wav
2	96	1	1	1	C	1	1	762	1	poli_8sides 4_whiteLine3.jpg	MediumLong_e04_stereo_44KHz.wav
2	97	3	4	2	I	1	0	873	0	poli_8sides 15_whiteLine3.jpg	Medium_e21_stereo_44KHz.wav
2	98	4	3	2	I	1	0	750	1	poli_8sides 8_whiteLine3.jpg	MediumLong_b10_cut2_L_stereo_44KHz.wav
2	99	2	1	0	C	2	1	704	1	poli_8sides 1_whiteLine3.jpg	MediumLong_e04_stereo_44KHz.wav
2	100	1	1	1	C	1	1	679	1	poli_8sides 4_whiteLine3.jpg	MediumLong_e04_stereo_44KHz.wav
2	101	4	4	2	I	2	0	585	1	poli_8sides 8_whiteLine3.jpg	Medium_e21_stereo_44KHz.wav
2	102	3	3	2	I	2	0	1890	0	poli_8sides 15_whiteLine3.jpg	MediumLong_b10_cut2_L_stereo_44KHz.wav
2	103	2	2	1	C	1	1	744	1	poli_8sides 1_whiteLine3.jpg	Medium_e01_cut1_stereo_44KHz.wav
2	104	1	2	0	C	2	1	1313	1	poli_8sides 4_whiteLine3.jpg	Medium_e01_cut1_stereo_44KHz.wav
2	105	2	2	1	C	1	1	711	1	poli_8sides 1_whiteLine3.jpg	Medium_e01_cut1_stereo_44KHz.wav
2	106	3	3	2	I	2	0	731	1	poli_8sides 15_whiteLine3.jpg	MediumLong_b10_cut2_L_stereo_44KHz.wav
2	107	4	4	2	I	2	0	706	1	poli_8sides 8_whiteLine3.jpg	Medium_e21_stereo_44KHz.wav
2	108	1	2	0	C	2	1	1535	1	poli_8sides 4_whiteLine3.jpg	Medium_e01_cut1_stereo_44KHz.wav
2	109	2	1	0	C	2	1	728	1	poli_8sides 1_whiteLine3.jpg	MediumLong_e04_stereo_44KHz.wav
2	110	4	3	2	I	1	0	1010	1	poli_8sides 8_whiteLine3.jpg	MediumLong_b10_cut2_L_stereo_44KHz.wav
2	111	1	1	1	C	1	1	909	1	poli_8sides 4_whiteLine3.jpg	MediumLong_e04_stereo_44KHz.wav
2	112	3	4	2	I	1	0	1477	0	poli_8sides 15_whiteLine3.jpg	Medium_e21_stereo_44KHz.wav
2	113	1	2	0	C	2	1	855	1	poli_8sides 4_whiteLine3.jpg	Medium_e01_cut1_stereo_44KHz.wav
2	114	2	2	1	C	1	1	677	1	poli_8sides 1_whiteLine3.jpg	Medium_e01_cut1_stereo_44KHz.wav
2	115	4	3	2	I	1	0	732	0	poli_8sides 8_whiteLine3.jpg	MediumLong_b10_cut2_L_stereo_44KHz.wav
2	116	3	4	2	I	1	0	755	0	poli_8sides 15_whiteLine3.jpg	Medium_e21_stereo_44KHz.wav
2	117	1	1	1	C	1	1	1287	1	poli_8sides 4_whiteLine3.jpg	MediumLong_e04_stereo_44KHz.wav
2	118	4	4	2	I	2	0	694	1	poli_8sides 8_whiteLine3.jpg	Medium_e21_stereo_44KHz.wav
2	119	3	3	2	I	1	0	572	0	poli_8sides 15_whiteLine3.jpg	MediumLong_b10_cut2_L_stereo_44KHz.wav
2	120	2	1	0	C	2	1	793	1	poli_8sides 1_whiteLine3.jpg	MediumLong_e04_stereo_44KHz.wav
2	121	4	4	2	I	2	0	737	0	poli_8sides 8_whiteLine3.jpg	Medium_e21_stereo_44KHz.wav
2	122	3	4	2	I	1	0	717	1	poli_8sides 15_whiteLine3.jpg	Medium_e21_stereo_44KHz.wav
2	123	2	1	0	C	2	1	686	1	poli_8sides 1_whiteLine3.jpg	MediumLong_e04_stereo_44KHz.wav
2	124	1	1	1	C	1	1	970	1	poli_8sides 4_whiteLine3.jpg	MediumLong_e04_stereo_44KHz.wav
2	125	4	3	2	I	1	0	709	0	poli_8sides 8_whiteLine3.jpg	MediumLong_b10_cut2_L_stereo_44KHz.wav
2	126	2	2	1	C	1	1	773	1	poli_8sides 1_whiteLine3.jpg	Medium_e01_cut1_stereo_44KHz.wav
2	127	1	2	0	C	1	0	700	0	poli_8sides 4_whiteLine3.jpg	Medium_e01_cut1_stereo_44KHz.wav
2	128	3	3	2	I	2	0	786	0	poli_8sides 15_whiteLine3.jpg	MediumLong_b10_cut2_L_stereo_44KHz.wav
2	129	1	1	1	C	1	1	1084	1	poli_8sides 4_whiteLine3.jpg	MediumLong_e04_stereo_44KHz.wav
2	130	4	3	2	I	1	0	846	0	poli_8sides 8_whiteLine3.jpg	MediumLong_b10_cut2_L_stereo_44KHz.wav
2	131	3	4	2	I	2	0	817	1	poli_8sides 15_whiteLine3.jpg	Medium_e21_stereo_44KHz.wav
2	132	2	2	1	C	1	1	757	1	poli_8sides 1_whiteLine3.jpg	Medium_e01_cut1_stereo_44KHz.wav
2	133	1	2	0	C	2	1	1584	1	poli_8sides 4_whiteLine3.jpg	Medium_e01_cut1_stereo_44KHz.wav
2	134	3	3	2	I	2	0	895	1	poli_8sides 15_whiteLine3.jpg	MediumLong_b10_cut2_L_stereo_44KHz.wav
2	135	4	4	2	I	2	0	679	0	poli_8sides 8_whiteLine3.jpg	Medium_e21_stereo_44KHz.wav
2	136	2	1	0	C	2	1	708	1	poli_8sides 1_whiteLine3.jpg	MediumLong_e04_stereo_44KHz.wav
2	137	1	1	1	C	1	1	1044	1	poli_8sides 4_whiteLine3.jpg	MediumLong_e04_stereo_44KHz.wav
2	138	3	3	2	I	2	0	731	1	poli_8sides 15_whiteLine3.jpg	MediumLong_b10_cut2_L_stereo_44KHz.wav
2	139	4	3	2	I	1	0	686	1	poli_8sides 8_whiteLine3.jpg	MediumLong_b10_cut2_L_stereo_44KHz.wav
2	140	2	2	1	C	1	1	696	1	poli_8sides 1_whiteLine3.jpg	Medium_e01_cut1_stereo_44KHz.wav
2	141	3	4	2	I	1	0	809	0	poli_8sides 15_whiteLine3.jpg	Medium_e21_stereo_44KHz.wav
2	142	1	2	0	C	2	1	903	1	poli_8sides 4_whiteLine3.jpg	Medium_e01_cut1_stereo_44KHz.wav
2	143	4	4	2	I	2	0	885	1	poli_8sides 8_whiteLine3.jpg	Medium_e21_stereo_44KHz.wav
2	144	2	1	0	C	2	1	692	1	poli_8sides 1_whiteLine3.jpg	MediumLong_e04_stereo_44KHz.wav
2	145	1	1	1	C	2	0	1397	0	poli_8sides 4_whiteLine3.jpg	MediumLong_e04_stereo_44KHz.wav
2	146	4	4	2	I	2	0	693	1	poli_8sides 8_whiteLine3.jpg	Medium_e21_stereo_44KHz.wav
2	147	3	3	2	I	2	0	722	0	poli_8sides 15_whiteLine3.jpg	MediumLong_b10_cut2_L_stereo_44KHz.wav
2	148	2	2	1	C	1	1	679	1	poli_8sides 1_whiteLine3.jpg	Medium_e01_cut1_stereo_44KHz.wav
2	149	4	3	2	I	2	0	674	0	poli_8sides 8_whiteLine3.jpg	MediumLong_b10_cut2_L_stereo_44KHz.wav
2	150	2	1	0	C	2	1	576	1	poli_8sides 1_whiteLine3.jpg	MediumLong_e04_stereo_44KHz.wav
2	151	3	4	2	I	1	0	845	1	poli_8sides 15_whiteLine3.jpg	Medium_e21_stereo_44KHz.wav
2	152	1	2	0	C	2	1	1016	1	poli_8sides 4_whiteLine3.jpg	Medium_e01_cut1_stereo_44KHz.wav
2	153	3	4	2	I	1	0	630	0	poli_8sides 15_whiteLine3.jpg	Medium_e21_stereo_44KHz.wav
2	154	2	2	1	C	1	1	657	1	poli_8sides 1_whiteLine3.jpg	Medium_e01_cut1_stereo_44KHz.wav
2	155	1	1	1	C	1	1	1150	1	poli_8sides 4_whiteLine3.jpg	MediumLong_e04_stereo_44KHz.wav
2	156	4	4	2	I	2	0	555	0	poli_8sides 8_whiteLine3.jpg	Medium_e21_stereo_44KHz.wav
2	157	3	3	2	I	2	0	802	1	poli_8sides 15_whiteLine3.jpg	MediumLong_b10_cut2_L_stereo_44KHz.wav
2	158	4	3	2	I	1	0	770	0	poli_8sides 8_whiteLine3.jpg	MediumLong_b10_cut2_L_stereo_44KHz.wav
2	159	2	1	0	C	2	1	953	1	poli_8sides 1_whiteLine3.jpg	MediumLong_e04_stereo_44KHz.wav
2	160	1	2	0	C	2	1	1416	1	poli_8sides 4_whiteLine3.jpg	Medium_e01_cut1_stereo_44KHz.wav
2	161	4	4	2	I	2	0	568	1	poli_8sides 8_whiteLine3.jpg	Medium_e21_stereo_44KHz.wav
2	162	3	3	2	I	2	0	835	0	poli_8sides 15_whiteLine3.jpg	MediumLong_b10_cut2_L_stereo_44KHz.wav
2	163	1	1	1	C	1	1	1467	1	poli_8sides 4_whiteLine3.jpg	MediumLong_e04_stereo_44KHz.wav
2	164	2	1	0	C	1	0	701	0	poli_8sides 1_whiteLine3.jpg	MediumLong_e04_stereo_44KHz.wav
2	165	4	3	2	I	1	0	1046	0	poli_8sides 8_whiteLine3.jpg	MediumLong_b10_cut2_L_stereo_44KHz.wav
2	166	3	4	2	I	1	0	1726	0	poli_8sides 15_whiteLine3.jpg	Medium_e21_stereo_44KHz.wav
2	167	2	2	1	C	1	1	795	1	poli_8sides 1_whiteLine3.jpg	Medium_e01_cut1_stereo_44KHz.wav
2	168	1	2	0	C	2	1	1209	1	poli_8sides 4_whiteLine3.jpg	Medium_e01_cut1_stereo_44KHz.wav
2	169	2	1	0	C	2	1	828	1	poli_8sides 1_whiteLine3.jpg	MediumLong_e04_stereo_44KHz.wav
2	170	1	2	0	C	2	1	1320	1	poli_8sides 4_whiteLine3.jpg	Medium_e01_cut1_stereo_44KHz.wav
2	171	4	3	2	I	1	0	951	1	poli_8sides 8_whiteLine3.jpg	MediumLong_b10_cut2_L_stereo_44KHz.wav
2	172	3	4	2	I	1	0	1010	1	poli_8sides 15_whiteLine3.jpg	Medium_e21_stereo_44KHz.wav
2	173	4	4	2	I	2	0	533	0	poli_8sides 8_whiteLine3.jpg	Medium_e21_stereo_44KHz.wav
2	174	3	3	2	I	2	0	837	0	poli_8sides 15_whiteLine3.jpg	MediumLong_b10_cut2_L_stereo_44KHz.wav
2	175	2	2	1	C	1	1	848	1	poli_8sides 1_whiteLine3.jpg	Medium_e01_cut1_stereo_44KHz.wav
2	176	1	1	1	C	2	0	1013	0	poli_8sides 4_whiteLine3.jpg	MediumLong_e04_stereo_44KHz.wav
2	177	2	2	1	C	1	1	669	1	poli_8sides 1_whiteLine3.jpg	Medium_e01_cut1_stereo_44KHz.wav
2	178	1	1	1	C	2	0	815	0	poli_8sides 4_whiteLine3.jpg	MediumLong_e04_stereo_44KHz.wav
2	179	4	4	2	I	2	0	752	1	poli_8sides 8_whiteLine3.jpg	Medium_e21_stereo_44KHz.wav
2	180	3	4	2	I	1	0	667	0	poli_8sides 15_whiteLine3.jpg	Medium_e21_stereo_44KHz.wav
2	181	2	1	0	C	2	1	522	1	poli_8sides 1_whiteLine3.jpg	MediumLong_e04_stereo_44KHz.wav
2	182	4	3	2	I	1	0	951	0	poli_8sides 8_whiteLine3.jpg	MediumLong_b10_cut2_L_stereo_44KHz.wav
2	183	3	3	2	I	2	0	957	0	poli_8sides 15_whiteLine3.jpg	MediumLong_b10_cut2_L_stereo_44KHz.wav
2	184	1	2	0	C	2	1	1192	1	poli_8sides 4_whiteLine3.jpg	Medium_e01_cut1_stereo_44KHz.wav
2	185	3	3	2	I	2	0	753	1	poli_8sides 15_whiteLine3.jpg	MediumLong_b10_cut2_L_stereo_44KHz.wav
2	186	2	2	1	C	1	1	745	1	poli_8sides 1_whiteLine3.jpg	Medium_e01_cut1_stereo_44KHz.wav
2	187	1	2	0	C	2	1	1613	1	poli_8sides 4_whiteLine3.jpg	Medium_e01_cut1_stereo_44KHz.wav
2	188	4	3	2	I	1	0	760	1	poli_8sides 8_whiteLine3.jpg	MediumLong_b10_cut2_L_stereo_44KHz.wav
2	189	2	1	0	C	2	1	603	1	poli_8sides 1_whiteLine3.jpg	MediumLong_e04_stereo_44KHz.wav
2	190	1	1	1	C	1	1	915	1	poli_8sides 4_whiteLine3.jpg	MediumLong_e04_stereo_44KHz.wav
2	191	4	4	2	I	2	0	953	1	poli_8sides 8_whiteLine3.jpg	Medium_e21_stereo_44KHz.wav
2	192	3	4	2	I	1	0	702	1	poli_8sides 15_whiteLine3.jpg	Medium_e21_stereo_44KHz.wav
2	193	1	1	1	C	1	1	1157	1	poli_8sides 4_whiteLine3.jpg	MediumLong_e04_stereo_44KHz.wav
2	194	3	3	2	I	0	0	0	0	poli_8sides 15_whiteLine3.jpg	MediumLong_b10_cut2_L_stereo_44KHz.wav
2	195	4	3	2	I	1	0	768	1	poli_8sides 8_whiteLine3.jpg	MediumLong_b10_cut2_L_stereo_44KHz.wav
2	196	2	2	1	C	1	1	1108	1	poli_8sides 1_whiteLine3.jpg	Medium_e01_cut1_stereo_44KHz.wav
2	197	4	4	2	I	2	0	662	1	poli_8sides 8_whiteLine3.jpg	Medium_e21_stereo_44KHz.wav
2	198	3	4	2	I	1	0	824	1	poli_8sides 15_whiteLine3.jpg	Medium_e21_stereo_44KHz.wav
2	199	2	1	0	C	2	1	1119	1	poli_8sides 1_whiteLine3.jpg	MediumLong_e04_stereo_44KHz.wav
2	200	1	2	0	C	2	1	902	1	poli_8sides 4_whiteLine3.jpg	Medium_e01_cut1_stereo_44KHz.wav
3	1	1	1	1	C	2	0	1228	0	poli_8sides 6_whiteLine3.jpg	MediumShort_e16_cut1_stereo_44KHz.wav
3	2	3	4	2	I	1	0	787	0	poli_8sides 9_whiteLine3.jpg	MediumShort_e22_cut1_stereo_44KHz.wav
3	3	2	1	0	C	2	1	886	1	poli_8sides 12_whiteLine3.jpg	MediumShort_e16_cut1_stereo_44KHz.wav
3	4	4	3	2	I	2	0	1253	1	poli_8sides 5_whiteLine3.jpg	MediumShort_b16_cut3_MS_stereo_44KHz.wav
3	5	1	2	0	C	2	1	1109	1	poli_8sides 6_whiteLine3.jpg	MediumShort_b10_cut1_MS_stereo_44KHz.wav
3	6	2	2	1	C	1	1	1000	1	poli_8sides 12_whiteLine3.jpg	MediumShort_b10_cut1_MS_stereo_44KHz.wav
3	7	4	4	2	I	1	0	1324	0	poli_8sides 5_whiteLine3.jpg	MediumShort_e22_cut1_stereo_44KHz.wav
3	8	3	3	2	I	2	0	1152	0	poli_8sides 9_whiteLine3.jpg	MediumShort_b16_cut3_MS_stereo_44KHz.wav
3	9	4	3	2	I	2	0	926	1	poli_8sides 5_whiteLine3.jpg	MediumShort_b16_cut3_MS_stereo_44KHz.wav
3	10	1	1	1	C	1	1	1158	1	poli_8sides 6_whiteLine3.jpg	MediumShort_e16_cut1_stereo_44KHz.wav
3	11	2	2	1	C	1	1	796	1	poli_8sides 12_whiteLine3.jpg	MediumShort_b10_cut1_MS_stereo_44KHz.wav
3	12	3	3	2	I	2	0	916	0	poli_8sides 9_whiteLine3.jpg	MediumShort_b16_cut3_MS_stereo_44KHz.wav
3	13	2	1	0	C	2	1	1025	1	poli_8sides 12_whiteLine3.jpg	MediumShort_e16_cut1_stereo_44KHz.wav
3	14	4	4	2	I	2	0	1153	0	poli_8sides 5_whiteLine3.jpg	MediumShort_e22_cut1_stereo_44KHz.wav
3	15	3	4	2	I	2	0	733	0	poli_8sides 9_whiteLine3.jpg	MediumShort_e22_cut1_stereo_44KHz.wav
3	16	1	2	0	C	2	1	1358	1	poli_8sides 6_whiteLine3.jpg	MediumShort_b10_cut1_MS_stereo_44KHz.wav
3	17	3	3	2	I	2	0	962	1	poli_8sides 9_whiteLine3.jpg	MediumShort_b16_cut3_MS_stereo_44KHz.wav
3	18	2	1	0	C	2	1	1081	1	poli_8sides 12_whiteLine3.jpg	MediumShort_e16_cut1_stereo_44KHz.wav
3	19	4	4	2	I	2	0	685	0	poli_8sides 5_whiteLine3.jpg	MediumShort_e22_cut1_stereo_44KHz.wav
3	20	1	2	0	C	2	1	1044	1	poli_8sides 6_whiteLine3.jpg	MediumShort_b10_cut1_MS_stereo_44KHz.wav
3	21	2	2	1	C	1	1	797	1	poli_8sides 12_whiteLine3.jpg	MediumShort_b10_cut1_MS_stereo_44KHz.wav
3	22	3	4	2	I	2	0	931	0	poli_8sides 9_whiteLine3.jpg	MediumShort_e22_cut1_stereo_44KHz.wav
3	23	4	3	2	I	2	0	920	0	poli_8sides 5_whiteLine3.jpg	MediumShort_b16_cut3_MS_stereo_44KHz.wav
3	24	1	1	1	C	1	1	953	1	poli_8sides 6_whiteLine3.jpg	MediumShort_e16_cut1_stereo_44KHz.wav
3	25	4	3	2	I	2	0	723	0	poli_8sides 5_whiteLine3.jpg	MediumShort_b16_cut3_MS_stereo_44KHz.wav
3	26	1	1	1	C	1	1	1411	1	poli_8sides 6_whiteLine3.jpg	MediumShort_e16_cut1_stereo_44KHz.wav
3	27	3	4	2	I	2	0	1023	0	poli_8sides 9_whiteLine3.jpg	MediumShort_e22_cut1_stereo_44KHz.wav
3	28	2	2	1	C	1	1	953	1	poli_8sides 12_whiteLine3.jpg	MediumShort_b10_cut1_MS_stereo_44KHz.wav
3	29	4	4	2	I	2	0	833	0	poli_8sides 5_whiteLine3.jpg	MediumShort_e22_cut1_stereo_44KHz.wav
3	30	2	1	0	C	2	1	898	1	poli_8sides 12_whiteLine3.jpg	MediumShort_e16_cut1_stereo_44KHz.wav
3	31	3	3	2	I	2	0	885	1	poli_8sides 9_whiteLine3.jpg	MediumShort_b16_cut3_MS_stereo_44KHz.wav
3	32	1	2	0	C	1	0	514	0	poli_8sides 6_whiteLine3.jpg	MediumShort_b10_cut1_MS_stereo_44KHz.wav
3	33	4	4	2	I	2	0	464	0	poli_8sides 5_whiteLine3.jpg	MediumShort_e22_cut1_stereo_44KHz.wav
3	34	3	4	2	I	2	0	639	1	poli_8sides 9_whiteLine3.jpg	MediumShort_e22_cut1_stereo_44KHz.wav
3	35	1	2	0	C	2	1	952	1	poli_8sides 6_whiteLine3.jpg	MediumShort_b10_cut1_MS_stereo_44KHz.wav
3	36	2	2	1	C	1	1	867	1	poli_8sides 12_whiteLine3.jpg	MediumShort_b10_cut1_MS_stereo_44KHz.wav
3	37	3	3	2	I	1	0	927	1	poli_8sides 9_whiteLine3.jpg	MediumShort_b16_cut3_MS_stereo_44KHz.wav
3	38	4	3	2	I	2	0	873	1	poli_8sides 5_whiteLine3.jpg	MediumShort_b16_cut3_MS_stereo_44KHz.wav
3	39	1	1	1	C	1	1	962	1	poli_8sides 6_whiteLine3.jpg	MediumShort_e16_cut1_stereo_44KHz.wav
3	40	2	1	0	C	2	1	755	1	poli_8sides 12_whiteLine3.jpg	MediumShort_e16_cut1_stereo_44KHz.wav
3	41	4	4	2	I	2	0	720	1	poli_8sides 5_whiteLine3.jpg	MediumShort_e22_cut1_stereo_44KHz.wav
3	42	1	2	0	C	2	1	981	1	poli_8sides 6_whiteLine3.jpg	MediumShort_b10_cut1_MS_stereo_44KHz.wav
3	43	2	1	0	C	2	1	677	1	poli_8sides 12_whiteLine3.jpg	MediumShort_e16_cut1_stereo_44KHz.wav
3	44	3	4	2	I	2	0	1071	1	poli_8sides 9_whiteLine3.jpg	MediumShort_e22_cut1_stereo_44KHz.wav
3	45	1	1	1	C	1	1	813	1	poli_8sides 6_whiteLine3.jpg	MediumShort_e16_cut1_stereo_44KHz.wav
3	46	3	3	2	I	1	0	1456	1	poli_8sides 9_whiteLine3.jpg	MediumShort_b16_cut3_MS_stereo_44KHz.wav
3	47	2	2	1	C	1	1	1220	1	poli_8sides 12_whiteLine3.jpg	MediumShort_b10_cut1_MS_stereo_44KHz.wav
3	48	4	3	2	I	2	0	937	1	poli_8sides 5_whiteLine3.jpg	MediumShort_b16_cut3_MS_stereo_44KHz.wav
3	49	2	2	1	C	1	1	1315	1	poli_8sides 12_whiteLine3.jpg	MediumShort_b10_cut1_MS_stereo_44KHz.wav
3	50	1	2	0	C	1	0	908	0	poli_8sides 6_whiteLine3.jpg	MediumShort_b10_cut1_MS_stereo_44KHz.wav
3	51	3	3	2	I	2	0	974	0	poli_8sides 9_whiteLine3.jpg	MediumShort_b16_cut3_MS_stereo_44KHz.wav
3	52	4	4	2	I	1	0	1138	0	poli_8sides 5_whiteLine3.jpg	MediumShort_e22_cut1_stereo_44KHz.wav
3	53	2	1	0	C	1	0	915	0	poli_8sides 12_whiteLine3.jpg	MediumShort_e16_cut1_stereo_44KHz.wav
3	54	4	3	2	I	2	0	890	1	poli_8sides 5_whiteLine3.jpg	MediumShort_b16_cut3_MS_stereo_44KHz.wav
3	55	3	4	2	I	2	0	1047	1	poli_8sides 9_whiteLine3.jpg	MediumShort_e22_cut1_stereo_44KHz.wav
3	56	1	1	1	C	1	1	1008	1	poli_8sides 6_whiteLine3.jpg	MediumShort_e16_cut1_stereo_44KHz.wav
3	57	3	3	2	I	2	0	1383	0	poli_8sides 9_whiteLine3.jpg	MediumShort_b16_cut3_MS_stereo_44KHz.wav
3	58	1	1	1	C	1	1	1541	1	poli_8sides 6_whiteLine3.jpg	MediumShort_e16_cut1_stereo_44KHz.wav
3	59	4	4	2	I	1	0	1607	1	poli_8sides 5_whiteLine3.jpg	MediumShort_e22_cut1_stereo_44KHz.wav
3	60	2	1	0	C	2	1	1003	1	poli_8sides 12_whiteLine3.jpg	MediumShort_e16_cut1_stereo_44KHz.wav
3	61	1	2	0	C	2	1	1109	1	poli_8sides 6_whiteLine3.jpg	MediumShort_b10_cut1_MS_stereo_44KHz.wav
3	62	3	4	2	I	2	0	1025	0	poli_8sides 9_whiteLine3.jpg	MediumShort_e22_cut1_stereo_44KHz.wav
3	63	2	2	1	C	1	1	1528	1	poli_8sides 12_whiteLine3.jpg	MediumShort_b10_cut1_MS_stereo_44KHz.wav
3	64	4	3	2	I	2	0	749	0	poli_8sides 5_whiteLine3.jpg	MediumShort_b16_cut3_MS_stereo_44KHz.wav
3	65	2	1	0	C	2	1	697	1	poli_8sides 12_whiteLine3.jpg	MediumShort_e16_cut1_stereo_44KHz.wav
3	66	3	4	2	I	2	0	939	0	poli_8sides 9_whiteLine3.jpg	MediumShort_e22_cut1_stereo_44KHz.wav
3	67	1	2	0	C	2	1	830	1	poli_8sides 6_whiteLine3.jpg	MediumShort_b10_cut1_MS_stereo_44KHz.wav
3	68	4	4	2	I	1	0	1358	1	poli_8sides 5_whiteLine3.jpg	MediumShort_e22_cut1_stereo_44KHz.wav
3	69	2	2	1	C	1	1	1308	1	poli_8sides 12_whiteLine3.jpg	MediumShort_b10_cut1_MS_stereo_44KHz.wav
3	70	4	3	2	I	2	0	1268	1	poli_8sides 5_whiteLine3.jpg	MediumShort_b16_cut3_MS_stereo_44KHz.wav
3	71	3	3	2	I	2	0	797	1	poli_8sides 9_whiteLine3.jpg	MediumShort_b16_cut3_MS_stereo_44KHz.wav
3	72	1	1	1	C	1	1	1336	1	poli_8sides 6_whiteLine3.jpg	MediumShort_e16_cut1_stereo_44KHz.wav
3	73	4	4	2	I	1	0	853	0	poli_8sides 5_whiteLine3.jpg	MediumShort_e22_cut1_stereo_44KHz.wav
3	74	1	1	1	C	1	1	1059	1	poli_8sides 6_whiteLine3.jpg	MediumShort_e16_cut1_stereo_44KHz.wav
3	75	3	4	2	I	2	0	1081	0	poli_8sides 9_whiteLine3.jpg	MediumShort_e22_cut1_stereo_44KHz.wav
3	76	2	2	1	C	1	1	829	1	poli_8sides 12_whiteLine3.jpg	MediumShort_b10_cut1_MS_stereo_44KHz.wav
3	77	1	2	0	C	2	1	834	1	poli_8sides 6_whiteLine3.jpg	MediumShort_b10_cut1_MS_stereo_44KHz.wav
3	78	3	3	2	I	2	0	823	1	poli_8sides 9_whiteLine3.jpg	MediumShort_b16_cut3_MS_stereo_44KHz.wav
3	79	2	1	0	C	2	1	827	1	poli_8sides 12_whiteLine3.jpg	MediumShort_e16_cut1_stereo_44KHz.wav
3	80	4	3	2	I	2	0	720	1	poli_8sides 5_whiteLine3.jpg	MediumShort_b16_cut3_MS_stereo_44KHz.wav
3	81	2	2	1	C	1	1	761	1	poli_8sides 12_whiteLine3.jpg	MediumShort_b10_cut1_MS_stereo_44KHz.wav
3	82	4	3	2	I	2	0	449	0	poli_8sides 5_whiteLine3.jpg	MediumShort_b16_cut3_MS_stereo_44KHz.wav
3	83	3	4	2	I	2	0	761	0	poli_8sides 9_whiteLine3.jpg	MediumShort_e22_cut1_stereo_44KHz.wav
3	84	1	2	0	C	2	1	863	1	poli_8sides 6_whiteLine3.jpg	MediumShort_b10_cut1_MS_stereo_44KHz.wav
3	85	4	4	2	I	2	0	860	1	poli_8sides 5_whiteLine3.jpg	MediumShort_e22_cut1_stereo_44KHz.wav
3	86	1	1	1	C	1	1	1044	1	poli_8sides 6_whiteLine3.jpg	MediumShort_e16_cut1_stereo_44KHz.wav
3	87	2	1	0	C	2	1	588	1	poli_8sides 12_whiteLine3.jpg	MediumShort_e16_cut1_stereo_44KHz.wav
3	88	3	3	2	I	2	0	1302	1	poli_8sides 9_whiteLine3.jpg	MediumShort_b16_cut3_MS_stereo_44KHz.wav
3	89	2	1	0	C	2	1	754	1	poli_8sides 12_whiteLine3.jpg	MediumShort_e16_cut1_stereo_44KHz.wav
3	90	1	2	0	C	1	0	747	0	poli_8sides 6_whiteLine3.jpg	MediumShort_b10_cut1_MS_stereo_44KHz.wav
3	91	4	3	2	I	2	0	968	0	poli_8sides 5_whiteLine3.jpg	MediumShort_b16_cut3_MS_stereo_44KHz.wav
3	92	3	3	2	I	1	0	1510	0	poli_8sides 9_whiteLine3.jpg	MediumShort_b16_cut3_MS_stereo_44KHz.wav
3	93	2	2	1	C	1	1	840	1	poli_8sides 12_whiteLine3.jpg	MediumShort_b10_cut1_MS_stereo_44KHz.wav
3	94	3	4	2	I	2	0	851	1	poli_8sides 9_whiteLine3.jpg	MediumShort_e22_cut1_stereo_44KHz.wav
3	95	1	1	1	C	1	1	1425	1	poli_8sides 6_whiteLine3.jpg	MediumShort_e16_cut1_stereo_44KHz.wav
3	96	4	4	2	I	2	0	1093	1	poli_8sides 5_whiteLine3.jpg	MediumShort_e22_cut1_stereo_44KHz.wav
3	97	2	2	1	C	1	1	855	1	poli_8sides 12_whiteLine3.jpg	MediumShort_b10_cut1_MS_stereo_44KHz.wav
3	98	3	4	2	I	2	0	925	0	poli_8sides 9_whiteLine3.jpg	MediumShort_e22_cut1_stereo_44KHz.wav
3	99	1	2	0	C	2	1	1086	1	poli_8sides 6_whiteLine3.jpg	MediumShort_b10_cut1_MS_stereo_44KHz.wav
3	100	4	4	2	I	1	0	1830	0	poli_8sides 5_whiteLine3.jpg	MediumShort_e22_cut1_stereo_44KHz.wav
3	101	1	1	1	C	1	1	955	1	poli_8sides 6_whiteLine3.jpg	MediumShort_e16_cut1_stereo_44KHz.wav
3	102	3	3	2	I	2	0	735	0	poli_8sides 9_whiteLine3.jpg	MediumShort_b16_cut3_MS_stereo_44KHz.wav
3	103	2	1	0	C	2	1	769	1	poli_8sides 12_whiteLine3.jpg	MediumShort_e16_cut1_stereo_44KHz.wav
3	104	4	3	2	I	2	0	1117	0	poli_8sides 5_whiteLine3.jpg	MediumShort_b16_cut3_MS_stereo_44KHz.wav
3	105	1	2	0	C	2	1	974	1	poli_8sides 6_whiteLine3.jpg	MediumShort_b10_cut1_MS_stereo_44KHz.wav
3	106	2	1	0	C	2	1	610	1	poli_8sides 12_whiteLine3.jpg	MediumShort_e16_cut1_stereo_44KHz.wav
3	107	3	3	2	I	1	0	1213	0	poli_8sides 9_whiteLine3.jpg	MediumShort_b16_cut3_MS_stereo_44KHz.wav
3	108	4	3	2	I	2	0	890	0	poli_8sides 5_whiteLine3.jpg	MediumShort_b16_cut3_MS_stereo_44KHz.wav
3	109	3	4	2	I	2	0	819	1	poli_8sides 9_whiteLine3.jpg	MediumShort_e22_cut1_stereo_44KHz.wav
3	110	2	2	1	C	1	1	788	1	poli_8sides 12_whiteLine3.jpg	MediumShort_b10_cut1_MS_stereo_44KHz.wav
3	111	4	4	2	I	1	0	925	1	poli_8sides 5_whiteLine3.jpg	MediumShort_e22_cut1_stereo_44KHz.wav
3	112	1	1	1	C	1	1	1138	1	poli_8sides 6_whiteLine3.jpg	MediumShort_e16_cut1_stereo_44KHz.wav
3	113	3	3	2	I	2	0	1521	1	poli_8sides 9_whiteLine3.jpg	MediumShort_b16_cut3_MS_stereo_44KHz.wav
3	114	2	1	0	C	2	1	663	1	poli_8sides 12_whiteLine3.jpg	MediumShort_e16_cut1_stereo_44KHz.wav
3	115	1	1	1	C	1	1	642	1	poli_8sides 6_whiteLine3.jpg	MediumShort_e16_cut1_stereo_44KHz.wav
3	116	4	3	2	I	2	0	983	1	poli_8sides 5_whiteLine3.jpg	MediumShort_b16_cut3_MS_stereo_44KHz.wav
3	117	3	4	2	I	1	0	638	1	poli_8sides 9_whiteLine3.jpg	MediumShort_e22_cut1_stereo_44KHz.wav
3	118	4	4	2	I	1	0	1630	0	poli_8sides 5_whiteLine3.jpg	MediumShort_e22_cut1_stereo_44KHz.wav
3	119	2	2	1	C	1	1	990	1	poli_8sides 12_whiteLine3.jpg	MediumShort_b10_cut1_MS_stereo_44KHz.wav
3	120	1	2	0	C	1	0	774	0	poli_8sides 6_whiteLine3.jpg	MediumShort_b10_cut1_MS_stereo_44KHz.wav
3	121	2	1	0	C	2	1	808	1	poli_8sides 12_whiteLine3.jpg	MediumShort_e16_cut1_stereo_44KHz.wav
3	122	1	2	0	C	2	1	884	1	poli_8sides 6_whiteLine3.jpg	MediumShort_b10_cut1_MS_stereo_44KHz.wav
3	123	4	3	2	I	2	0	870	0	poli_8sides 5_whiteLine3.jpg	MediumShort_b16_cut3_MS_stereo_44KHz.wav
3	124	3	3	2	I	2	0	644	1	poli_8sides 9_whiteLine3.jpg	MediumShort_b16_cut3_MS_stereo_44KHz.wav
3	125	4	4	2	I	1	0	1061	1	poli_8sides 5_whiteLine3.jpg	MediumShort_e22_cut1_stereo_44KHz.wav
3	126	2	2	1	C	1	1	796	1	poli_8sides 12_whiteLine3.jpg	MediumShort_b10_cut1_MS_stereo_44KHz.wav
3	127	1	1	1	C	1	1	831	1	poli_8sides 6_whiteLine3.jpg	MediumShort_e16_cut1_stereo_44KHz.wav
3	128	3	4	2	I	2	0	832	1	poli_8sides 9_whiteLine3.jpg	MediumShort_e22_cut1_stereo_44KHz.wav
3	129	4	3	2	I	1	0	758	0	poli_8sides 5_whiteLine3.jpg	MediumShort_b16_cut3_MS_stereo_44KHz.wav
3	130	3	4	2	I	2	0	792	0	poli_8sides 9_whiteLine3.jpg	MediumShort_e22_cut1_stereo_44KHz.wav
3	131	2	2	1	C	2	0	784	0	poli_8sides 12_whiteLine3.jpg	MediumShort_b10_cut1_MS_stereo_44KHz.wav
3	132	1	1	1	C	1	1	882	1	poli_8sides 6_whiteLine3.jpg	MediumShort_e16_cut1_stereo_44KHz.wav
3	133	4	4	2	I	2	0	878	1	poli_8sides 5_whiteLine3.jpg	MediumShort_e22_cut1_stereo_44KHz.wav
3	134	3	3	2	I	2	0	762	0	poli_8sides 9_whiteLine3.jpg	MediumShort_b16_cut3_MS_stereo_44KHz.wav
3	135	1	2	0	C	1	0	987	0	poli_8sides 6_whiteLine3.jpg	MediumShort_b10_cut1_MS_stereo_44KHz.wav
3	136	2	1	0	C	2	1	661	1	poli_8sides 12_whiteLine3.jpg	MediumShort_e16_cut1_stereo_44KHz.wav
3	137	3	3	2	I	1	0	922	1	poli_8sides 9_whiteLine3.jpg	MediumShort_b16_cut3_MS_stereo_44KHz.wav
3	138	4	4	2	I	2	0	1065	1	poli_8sides 5_whiteLine3.jpg	MediumShort_e22_cut1_stereo_44KHz.wav
3	139	2	2	1	C	1	1	764	1	poli_8sides 12_whiteLine3.jpg	MediumShort_b10_cut1_MS_stereo_44KHz.wav
3	140	1	2	0	C	2	1	1001	1	poli_8sides 6_whiteLine3.jpg	MediumShort_b10_cut1_MS_stereo_44KHz.wav
3	141	4	3	2	I	2	0	1564	1	poli_8sides 5_whiteLine3.jpg	MediumShort_b16_cut3_MS_stereo_44KHz.wav
3	142	2	1	0	C	2	1	731	1	poli_8sides 12_whiteLine3.jpg	MediumShort_e16_cut1_stereo_44KHz.wav
3	143	1	1	1	C	1	1	645	1	poli_8sides 6_whiteLine3.jpg	MediumShort_e16_cut1_stereo_44KHz.wav
3	144	3	4	2	I	2	0	903	1	poli_8sides 9_whiteLine3.jpg	MediumShort_e22_cut1_stereo_44KHz.wav
3	145	1	1	1	C	1	1	1186	1	poli_8sides 6_whiteLine3.jpg	MediumShort_e16_cut1_stereo_44KHz.wav
3	146	2	2	1	C	1	1	936	1	poli_8sides 12_whiteLine3.jpg	MediumShort_b10_cut1_MS_stereo_44KHz.wav
3	147	3	3	2	I	1	0	939	0	poli_8sides 9_whiteLine3.jpg	MediumShort_b16_cut3_MS_stereo_44KHz.wav
3	148	4	3	2	I	2	0	1356	0	poli_8sides 5_whiteLine3.jpg	MediumShort_b16_cut3_MS_stereo_44KHz.wav
3	149	2	1	0	C	2	1	1023	1	poli_8sides 12_whiteLine3.jpg	MediumShort_e16_cut1_stereo_44KHz.wav
3	150	3	4	2	I	2	0	1236	0	poli_8sides 9_whiteLine3.jpg	MediumShort_e22_cut1_stereo_44KHz.wav
3	151	1	2	0	C	1	0	851	0	poli_8sides 6_whiteLine3.jpg	MediumShort_b10_cut1_MS_stereo_44KHz.wav
3	152	4	4	2	I	1	0	1687	0	poli_8sides 5_whiteLine3.jpg	MediumShort_e22_cut1_stereo_44KHz.wav
3	153	2	2	1	C	1	1	833	1	poli_8sides 12_whiteLine3.jpg	MediumShort_b10_cut1_MS_stereo_44KHz.wav
3	154	4	4	2	I	1	0	1319	0	poli_8sides 5_whiteLine3.jpg	MediumShort_e22_cut1_stereo_44KHz.wav
3	155	1	2	0	C	1	0	1137	0	poli_8sides 6_whiteLine3.jpg	MediumShort_b10_cut1_MS_stereo_44KHz.wav
3	156	3	3	2	I	2	0	1548	1	poli_8sides 9_whiteLine3.jpg	MediumShort_b16_cut3_MS_stereo_44KHz.wav
3	157	1	1	1	C	1	1	912	1	poli_8sides 6_whiteLine3.jpg	MediumShort_e16_cut1_stereo_44KHz.wav
3	158	4	3	2	I	2	0	1851	0	poli_8sides 5_whiteLine3.jpg	MediumShort_b16_cut3_MS_stereo_44KHz.wav
3	159	2	1	0	C	2	1	723	1	poli_8sides 12_whiteLine3.jpg	MediumShort_e16_cut1_stereo_44KHz.wav
3	160	3	4	2	I	2	0	950	0	poli_8sides 9_whiteLine3.jpg	MediumShort_e22_cut1_stereo_44KHz.wav
3	161	4	4	2	I	2	0	733	0	poli_8sides 5_whiteLine3.jpg	MediumShort_e22_cut1_stereo_44KHz.wav
3	162	1	1	1	C	1	1	680	1	poli_8sides 6_whiteLine3.jpg	MediumShort_e16_cut1_stereo_44KHz.wav
3	163	2	2	1	C	1	1	789	1	poli_8sides 12_whiteLine3.jpg	MediumShort_b10_cut1_MS_stereo_44KHz.wav
3	164	3	3	2	I	1	0	980	0	poli_8sides 9_whiteLine3.jpg	MediumShort_b16_cut3_MS_stereo_44KHz.wav
3	165	4	3	2	I	2	0	607	0	poli_8sides 5_whiteLine3.jpg	MediumShort_b16_cut3_MS_stereo_44KHz.wav
3	166	1	2	0	C	2	1	894	1	poli_8sides 6_whiteLine3.jpg	MediumShort_b10_cut1_MS_stereo_44KHz.wav
3	167	3	4	2	I	2	0	832	1	poli_8sides 9_whiteLine3.jpg	MediumShort_e22_cut1_stereo_44KHz.wav
3	168	2	1	0	C	2	1	602	1	poli_8sides 12_whiteLine3.jpg	MediumShort_e16_cut1_stereo_44KHz.wav
3	169	3	3	2	I	2	0	831	0	poli_8sides 9_whiteLine3.jpg	MediumShort_b16_cut3_MS_stereo_44KHz.wav
3	170	1	2	0	C	2	1	819	1	poli_8sides 6_whiteLine3.jpg	MediumShort_b10_cut1_MS_stereo_44KHz.wav
3	171	4	3	2	I	2	0	1086	1	poli_8sides 5_whiteLine3.jpg	MediumShort_b16_cut3_MS_stereo_44KHz.wav
3	172	2	1	0	C	2	1	560	1	poli_8sides 12_whiteLine3.jpg	MediumShort_e16_cut1_stereo_44KHz.wav
3	173	1	1	1	C	1	1	986	1	poli_8sides 6_whiteLine3.jpg	MediumShort_e16_cut1_stereo_44KHz.wav
3	174	3	4	2	I	2	0	651	0	poli_8sides 9_whiteLine3.jpg	MediumShort_e22_cut1_stereo_44KHz.wav
3	175	2	2	1	C	1	1	805	1	poli_8sides 12_whiteLine3.jpg	MediumShort_b10_cut1_MS_stereo_44KHz.wav
3	176	4	4	2	I	1	0	1269	0	poli_8sides 5_whiteLine3.jpg	MediumShort_e22_cut1_stereo_44KHz.wav
3	177	1	2	0	C	2	1	884	1	poli_8sides 6_whiteLine3.jpg	MediumShort_b10_cut1_MS_stereo_44KHz.wav
3	178	3	4	2	I	2	0	1125	1	poli_8sides 9_whiteLine3.jpg	MediumShort_e22_cut1_stereo_44KHz.wav
3	179	4	4	2	I	1	0	871	1	poli_8sides 5_whiteLine3.jpg	MediumShort_e22_cut1_stereo_44KHz.wav
3	180	2	2	1	C	1	1	891	1	poli_8sides 12_whiteLine3.jpg	MediumShort_b10_cut1_MS_stereo_44KHz.wav
3	181	1	1	1	C	1	1	754	1	poli_8sides 6_whiteLine3.jpg	MediumShort_e16_cut1_stereo_44KHz.wav
3	182	4	3	2	I	2	0	827	1	poli_8sides 5_whiteLine3.jpg	MediumShort_b16_cut3_MS_stereo_44KHz.wav
3	183	3	3	2	I	1	0	757	1	poli_8sides 9_whiteLine3.jpg	MediumShort_b16_cut3_MS_stereo_44KHz.wav
3	184	2	1	0	C	2	1	894	1	poli_8sides 12_whiteLine3.jpg	MediumShort_e16_cut1_stereo_44KHz.wav
3	185	4	4	2	I	2	0	1083	1	poli_8sides 5_whiteLine3.jpg	MediumShort_e22_cut1_stereo_44KHz.wav
3	186	3	4	2	I	2	0	569	0	poli_8sides 9_whiteLine3.jpg	MediumShort_e22_cut1_stereo_44KHz.wav
3	187	2	1	0	C	2	1	663	1	poli_8sides 12_whiteLine3.jpg	MediumShort_e16_cut1_stereo_44KHz.wav
3	188	1	1	1	C	1	1	913	1	poli_8sides 6_whiteLine3.jpg	MediumShort_e16_cut1_stereo_44KHz.wav
3	189	4	3	2	I	2	0	684	1	poli_8sides 5_whiteLine3.jpg	MediumShort_b16_cut3_MS_stereo_44KHz.wav
3	190	1	2	0	C	2	1	827	1	poli_8sides 6_whiteLine3.jpg	MediumShort_b10_cut1_MS_stereo_44KHz.wav
3	191	3	3	2	I	1	0	1951	1	poli_8sides 9_whiteLine3.jpg	MediumShort_b16_cut3_MS_stereo_44KHz.wav
3	192	2	2	1	C	1	1	1485	1	poli_8sides 12_whiteLine3.jpg	MediumShort_b10_cut1_MS_stereo_44KHz.wav
3	193	3	4	2	I	2	0	929	1	poli_8sides 9_whiteLine3.jpg	MediumShort_e22_cut1_stereo_44KHz.wav
3	194	2	1	0	C	2	1	705	1	poli_8sides 12_whiteLine3.jpg	MediumShort_e16_cut1_stereo_44KHz.wav
3	195	1	1	1	C	1	1	797	1	poli_8sides 6_whiteLine3.jpg	MediumShort_e16_cut1_stereo_44KHz.wav
3	196	4	3	2	I	2	0	812	1	poli_8sides 5_whiteLine3.jpg	MediumShort_b16_cut3_MS_stereo_44KHz.wav
3	197	1	2	0	C	2	1	959	1	poli_8sides 6_whiteLine3.jpg	MediumShort_b10_cut1_MS_stereo_44KHz.wav
3	198	4	4	2	I	2	0	1486	1	poli_8sides 5_whiteLine3.jpg	MediumShort_e22_cut1_stereo_44KHz.wav
3	199	3	3	2	I	2	0	874	1	poli_8sides 9_whiteLine3.jpg	MediumShort_b16_cut3_MS_stereo_44KHz.wav
3	200	2	2	1	C	2	0	1237	0	poli_8sides 12_whiteLine3.jpg	MediumShort_b10_cut1_MS_stereo_44KHz.wav
4	1	1	1	1	C	2	0	1885	0	poli_8sides 2_whiteLine3.jpg	Medium_e13_stereo_44KHz.wav
4	2	3	4	2	I	2	0	958	0	poli_8sides 7_whiteLine3.jpg	MediumLong_e19_stereo_44KHz.wav
4	3	2	2	1	C	2	0	1158	0	poli_8sides 18_whiteLine3.jpg	MediumLong_e17_cut2_stereo_44KHz.wav
4	4	4	4	2	I	1	0	1060	1	poli_8sides 3_whiteLine3.jpg	MediumLong_e19_stereo_44KHz.wav
4	5	3	3	2	I	2	0	1135	1	poli_8sides 7_whiteLine3.jpg	Medium_e26_stereo_44KHz.wav
4	6	4	3	2	I	1	0	954	1	poli_8sides 3_whiteLine3.jpg	Medium_e26_stereo_44KHz.wav
4	7	1	2	0	C	2	1	967	1	poli_8sides 2_whiteLine3.jpg	MediumLong_e17_cut2_stereo_44KHz.wav
4	8	2	1	0	C	2	1	1001	1	poli_8sides 18_whiteLine3.jpg	Medium_e13_stereo_44KHz.wav
4	9	4	3	2	I	1	0	1090	1	poli_8sides 3_whiteLine3.jpg	Medium_e26_stereo_44KHz.wav
4	10	3	3	2	I	2	0	657	1	poli_8sides 7_whiteLine3.jpg	Medium_e26_stereo_44KHz.wav
4	11	2	2	1	C	1	1	822	1	poli_8sides 18_whiteLine3.jpg	MediumLong_e17_cut2_stereo_44KHz.wav
4	12	1	1	1	C	1	1	1423	1	poli_8sides 2_whiteLine3.jpg	Medium_e13_stereo_44KHz.wav
4	13	3	4	2	I	1	0	1145	1	poli_8sides 7_whiteLine3.jpg	MediumLong_e19_stereo_44KHz.wav
4	14	1	2	0	C	2	1	1184	1	poli_8sides 2_whiteLine3.jpg	MediumLong_e17_cut2_stereo_44KHz.wav
4	15	2	1	0	C	2	1	945	1	poli_8sides 18_whiteLine3.jpg	Medium_e13_stereo_44KHz.wav
4	16	4	4	2	I	1	0	1490	1	poli_8sides 3_whiteLine3.jpg	MediumLong_e19_stereo_44KHz.wav
4	17	2	2	1	C	1	1	940	1	poli_8sides 18_whiteLine3.jpg	MediumLong_e17_cut2_stereo_44KHz.wav
4	18	4	3	2	I	1	0	1318	0	poli_8sides 3_whiteLine3.jpg	Medium_e26_stereo_44KHz.wav
4	19	1	2	0	C	2	1	1027	1	poli_8sides 2_whiteLine3.jpg	MediumLong_e17_cut2_stereo_44KHz.wav
4	20	3	4	2	I	1	0	895	0	poli_8sides 7_whiteLine3.jpg	MediumLong_e19_stereo_44KHz.wav
4	21	2	1	0	C	2	1	853	1	poli_8sides 18_whiteLine3.jpg	Medium_e13_stereo_44KHz.wav
4	22	4	4	2	I	1	0	1814	0	poli_8sides 3_whiteLine3.jpg	MediumLong_e19_stereo_44KHz.wav
4	23	1	1	1	C	1	1	1204	1	poli_8sides 2_whiteLine3.jpg	Medium_e13_stereo_44KHz.wav
4	24	3	3	2	I	2	0	801	0	poli_8sides 7_whiteLine3.jpg	Medium_e26_stereo_44KHz.wav
4	25	1	1	1	C	1	1	804	1	poli_8sides 2_whiteLine3.jpg	Medium_e13_stereo_44KHz.wav
4	26	3	3	2	I	2	0	720	1	poli_8sides 7_whiteLine3.jpg	Medium_e26_stereo_44KHz.wav
4	27	2	1	0	C	2	1	1051	1	poli_8sides 18_whiteLine3.jpg	Medium_e13_stereo_44KHz.wav
4	28	4	4	2	I	2	0	1057	1	poli_8sides 3_whiteLine3.jpg	MediumLong_e19_stereo_44KHz.wav
4	29	3	4	2	I	1	0	729	1	poli_8sides 7_whiteLine3.jpg	MediumLong_e19_stereo_44KHz.wav
4	30	2	2	1	C	1	1	772	1	poli_8sides 18_whiteLine3.jpg	MediumLong_e17_cut2_stereo_44KHz.wav
4	31	4	3	2	I	1	0	902	0	poli_8sides 3_whiteLine3.jpg	Medium_e26_stereo_44KHz.wav
4	32	1	2	0	C	1	0	987	0	poli_8sides 2_whiteLine3.jpg	MediumLong_e17_cut2_stereo_44KHz.wav
4	33	4	4	2	I	2	0	1453	1	poli_8sides 3_whiteLine3.jpg	MediumLong_e19_stereo_44KHz.wav
4	34	2	2	1	C	1	1	891	1	poli_8sides 18_whiteLine3.jpg	MediumLong_e17_cut2_stereo_44KHz.wav
4	35	1	1	1	C	1	1	790	1	poli_8sides 2_whiteLine3.jpg	Medium_e13_stereo_44KHz.wav
4	36	3	3	2	I	2	0	612	0	poli_8sides 7_whiteLine3.jpg	Medium_e26_stereo_44KHz.wav
4	37	1	2	0	C	2	1	984	1	poli_8sides 2_whiteLine3.jpg	MediumLong_e17_cut2_stereo_44KHz.wav
4	38	2	1	0	C	2	1	765	1	poli_8sides 18_whiteLine3.jpg	Medium_e13_stereo_44KHz.wav
4	39	4	3	2	I	1	0	1254	0	poli_8sides 3_whiteLine3.jpg	Medium_e26_stereo_44KHz.wav
4	40	3	4	2	I	1	0	880	0	poli_8sides 7_whiteLine3.jpg	MediumLong_e19_stereo_44KHz.wav
4	41	2	1	0	C	2	1	704	1	poli_8sides 18_whiteLine3.jpg	Medium_e13_stereo_44KHz.wav
4	42	1	1	1	C	1	1	939	1	poli_8sides 2_whiteLine3.jpg	Medium_e13_stereo_44KHz.wav
4	43	4	4	2	I	2	0	954	0	poli_8sides 3_whiteLine3.jpg	MediumLong_e19_stereo_44KHz.wav
4	44	3	3	2	I	2	0	622	1	poli_8sides 7_whiteLine3.jpg	Medium_e26_stereo_44KHz.wav
4	45	1	2	0	C	2	1	1103	1	poli_8sides 2_whiteLine3.jpg	MediumLong_e17_cut2_stereo_44KHz.wav
4	46	4	3	2	I	1	0	904	1	poli_8sides 3_whiteLine3.jpg	Medium_e26_stereo_44KHz.wav
4	47	2	2	1	C	1	1	799	1	poli_8sides 18_whiteLine3.jpg	MediumLong_e17_cut2_stereo_44KHz.wav
4	48	3	4	2	I	1	0	793	1	poli_8sides 7_whiteLine3.jpg	MediumLong_e19_stereo_44KHz.wav
4	49	4	3	2	I	1	0	721	1	poli_8sides 3_whiteLine3.jpg	Medium_e26_stereo_44KHz.wav
4	50	2	2	1	C	1	1	724	1	poli_8sides 18_whiteLine3.jpg	MediumLong_e17_cut2_stereo_44KHz.wav
4	51	1	2	0	C	1	0	709	0	poli_8sides 2_whiteLine3.jpg	MediumLong_e17_cut2_stereo_44KHz.wav
4	52	3	4	2	I	1	0	716	1	poli_8sides 7_whiteLine3.jpg	MediumLong_e19_stereo_44KHz.wav
4	53	4	4	2	I	1	0	713	1	poli_8sides 3_whiteLine3.jpg	MediumLong_e19_stereo_44KHz.wav
4	54	1	1	1	C	1	1	668	1	poli_8sides 2_whiteLine3.jpg	Medium_e13_stereo_44KHz.wav
4	55	2	1	0	C	2	1	918	1	poli_8sides 18_whiteLine3.jpg	Medium_e13_stereo_44KHz.wav
4	56	3	3	2	I	2	0	795	0	poli_8sides 7_whiteLine3.jpg	Medium_e26_stereo_44KHz.wav
4	57	2	2	1	C	1	1	706	1	poli_8sides 18_whiteLine3.jpg	MediumLong_e17_cut2_stereo_44KHz.wav
4	58	4	3	2	I	1	0	1076	0	poli_8sides 3_whiteLine3.jpg	Medium_e26_stereo_44KHz.wav
4	59	1	2	0	C	2	1	702	1	poli_8sides 2_whiteLine3.jpg	MediumLong_e17_cut2_stereo_44KHz.wav
4	60	3	3	2	I	2	0	645	0	poli_8sides 7_whiteLine3.jpg	Medium_e26_stereo_44KHz.wav
4	61	1	1	1	C	1	1	781	1	poli_8sides 2_whiteLine3.jpg	Medium_e13_stereo_44KHz.wav
4	62	4	4	2	I	2	0	1586	1	poli_8sides 3_whiteLine3.jpg	MediumLong_e19_stereo_44KHz.wav
4	63	2	1	0	C	2	1	837	1	poli_8sides 18_whiteLine3.jpg	Medium_e13_stereo_44KHz.wav
4	64	3	4	2	I	1	0	745	1	poli_8sides 7_whiteLine3.jpg	MediumLong_e19_stereo_44KHz.wav
4	65	4	4	2	I	2	0	962	0	poli_8sides 3_whiteLine3.jpg	MediumLong_e19_stereo_44KHz.wav
4	66	1	2	0	C	2	1	751	1	poli_8sides 2_whiteLine3.jpg	MediumLong_e17_cut2_stereo_44KHz.wav
4	67	3	4	2	I	1	0	671	1	poli_8sides 7_whiteLine3.jpg	MediumLong_e19_stereo_44KHz.wav
4	68	2	2	1	C	1	1	748	1	poli_8sides 18_whiteLine3.jpg	MediumLong_e17_cut2_stereo_44KHz.wav
4	69	4	3	2	I	1	0	1148	1	poli_8sides 3_whiteLine3.jpg	Medium_e26_stereo_44KHz.wav
4	70	2	1	0	C	2	1	809	1	poli_8sides 18_whiteLine3.jpg	Medium_e13_stereo_44KHz.wav
4	71	1	1	1	C	1	1	801	1	poli_8sides 2_whiteLine3.jpg	Medium_e13_stereo_44KHz.wav
4	72	3	3	2	I	2	0	633	0	poli_8sides 7_whiteLine3.jpg	Medium_e26_stereo_44KHz.wav
4	73	1	2	0	C	2	1	600	1	poli_8sides 2_whiteLine3.jpg	MediumLong_e17_cut2_stereo_44KHz.wav
4	74	4	3	2	I	2	0	1173	1	poli_8sides 3_whiteLine3.jpg	Medium_e26_stereo_44KHz.wav
4	75	3	3	2	I	2	0	609	0	poli_8sides 7_whiteLine3.jpg	Medium_e26_stereo_44KHz.wav
4	76	2	2	1	C	1	1	992	1	poli_8sides 18_whiteLine3.jpg	MediumLong_e17_cut2_stereo_44KHz.wav
4	77	1	1	1	C	1	1	1012	1	poli_8sides 2_whiteLine3.jpg	Medium_e13_stereo_44KHz.wav
4	78	3	4	2	I	1	0	949	0	poli_8sides 7_whiteLine3.jpg	MediumLong_e19_stereo_44KHz.wav
4	79	4	4	2	I	2	0	969	0	poli_8sides 3_whiteLine3.jpg	MediumLong_e19_stereo_44KHz.wav
4	80	2	1	0	C	2	1	751	1	poli_8sides 18_whiteLine3.jpg	Medium_e13_stereo_44KHz.wav
4	81	3	3	2	I	2	0	846	0	poli_8sides 7_whiteLine3.jpg	Medium_e26_stereo_44KHz.wav
4	82	1	1	1	C	1	1	844	1	poli_8sides 2_whiteLine3.jpg	Medium_e13_stereo_44KHz.wav
4	83	4	3	2	I	1	0	1285	1	poli_8sides 3_whiteLine3.jpg	Medium_e26_stereo_44KHz.wav
4	84	2	2	1	C	1	1	985	1	poli_8sides 18_whiteLine3.jpg	MediumLong_e17_cut2_stereo_44KHz.wav
4	85	3	4	2	I	1	0	643	1	poli_8sides 7_whiteLine3.jpg	MediumLong_e19_stereo_44KHz.wav
4	86	4	4	2	I	2	0	1205	0	poli_8sides 3_whiteLine3.jpg	MediumLong_e19_stereo_44KHz.wav
4	87	1	2	0	C	2	1	1694	1	poli_8sides 2_whiteLine3.jpg	MediumLong_e17_cut2_stereo_44KHz.wav
4	88	2	1	0	C	2	1	996	1	poli_8sides 18_whiteLine3.jpg	Medium_e13_stereo_44KHz.wav
4	89	4	4	2	I	2	0	909	1	poli_8sides 3_whiteLine3.jpg	MediumLong_e19_stereo_44KHz.wav
4	90	2	2	1	C	1	1	887	1	poli_8sides 18_whiteLine3.jpg	MediumLong_e17_cut2_stereo_44KHz.wav
4	91	3	3	2	I	2	0	675	0	poli_8sides 7_whiteLine3.jpg	Medium_e26_stereo_44KHz.wav
4	92	1	1	1	C	1	1	605	1	poli_8sides 2_whiteLine3.jpg	Medium_e13_stereo_44KHz.wav
4	93	4	3	2	I	1	0	978	0	poli_8sides 3_whiteLine3.jpg	Medium_e26_stereo_44KHz.wav
4	94	1	2	0	C	2	1	1028	1	poli_8sides 2_whiteLine3.jpg	MediumLong_e17_cut2_stereo_44KHz.wav
4	95	3	4	2	I	1	0	865	1	poli_8sides 7_whiteLine3.jpg	MediumLong_e19_stereo_44KHz.wav
4	96	2	1	0	C	2	1	1106	1	poli_8sides 18_whiteLine3.jpg	Medium_e13_stereo_44KHz.wav
4	97	3	3	2	I	2	0	744	0	poli_8sides 7_whiteLine3.jpg	Medium_e26_stereo_44KHz.wav
4	98	4	4	2	I	2	0	922	0	poli_8sides 3_whiteLine3.jpg	MediumLong_e19_stereo_44KHz.wav
4	99	2	1	0	C	2	1	744	1	poli_8sides 18_whiteLine3.jpg	Medium_e13_stereo_44KHz.wav
4	100	1	1	1	C	1	1	995	1	poli_8sides 2_whiteLine3.jpg	Medium_e13_stereo_44KHz.wav
4	101	2	2	1	C	2	0	1110	0	poli_8sides 18_whiteLine3.jpg	MediumLong_e17_cut2_stereo_44KHz.wav
4	102	4	3	2	I	1	0	1299	0	poli_8sides 3_whiteLine3.jpg	Medium_e26_stereo_44KHz.wav
4	103	3	4	2	I	1	0	974	1	poli_8sides 7_whiteLine3.jpg	MediumLong_e19_stereo_44KHz.wav
4	104	1	2	0	C	2	1	793	1	poli_8sides 2_whiteLine3.jpg	MediumLong_e17_cut2_stereo_44KHz.wav
4	105	4	4	2	I	2	0	871	1	poli_8sides 3_whiteLine3.jpg	MediumLong_e19_stereo_44KHz.wav
4	106	1	2	0	C	2	1	811	1	poli_8sides 2_whiteLine3.jpg	MediumLong_e17_cut2_stereo_44KHz.wav
4	107	3	4	2	I	1	0	718	1	poli_8sides 7_whiteLine3.jpg	MediumLong_e19_stereo_44KHz.wav
4	108	2	1	0	C	2	1	839	1	poli_8sides 18_whiteLine3.jpg	Medium_e13_stereo_44KHz.wav
4	109	3	3	2	I	2	0	614	0	poli_8sides 7_whiteLine3.jpg	Medium_e26_stereo_44KHz.wav
4	110	1	1	1	C	1	1	974	1	poli_8sides 2_whiteLine3.jpg	Medium_e13_stereo_44KHz.wav
4	111	4	3	2	I	1	0	737	1	poli_8sides 3_whiteLine3.jpg	Medium_e26_stereo_44KHz.wav
4	112	2	2	1	C	1	1	820	1	poli_8sides 18_whiteLine3.jpg	MediumLong_e17_cut2_stereo_44KHz.wav
4	113	3	3	2	I	2	0	667	0	poli_8sides 7_whiteLine3.jpg	Medium_e26_stereo_44KHz.wav
4	114	1	1	1	C	1	1	766	1	poli_8sides 2_whiteLine3.jpg	Medium_e13_stereo_44KHz.wav
4	115	4	4	2	I	2	0	896	0	poli_8sides 3_whiteLine3.jpg	MediumLong_e19_stereo_44KHz.wav
4	116	2	2	1	C	1	1	619	1	poli_8sides 18_whiteLine3.jpg	MediumLong_e17_cut2_stereo_44KHz.wav
4	117	4	3	2	I	1	0	659	0	poli_8sides 3_whiteLine3.jpg	Medium_e26_stereo_44KHz.wav
4	118	3	4	2	I	1	0	800	1	poli_8sides 7_whiteLine3.jpg	MediumLong_e19_stereo_44KHz.wav
4	119	1	2	0	C	2	1	903	1	poli_8sides 2_whiteLine3.jpg	MediumLong_e17_cut2_stereo_44KHz.wav
4	120	2	1	0	C	2	1	1271	1	poli_8sides 18_whiteLine3.jpg	Medium_e13_stereo_44KHz.wav
4	121	3	3	2	I	2	0	931	1	poli_8sides 7_whiteLine3.jpg	Medium_e26_stereo_44KHz.wav
4	122	4	4	2	I	2	0	1184	0	poli_8sides 3_whiteLine3.jpg	MediumLong_e19_stereo_44KHz.wav
4	123	1	1	1	C	1	1	751	1	poli_8sides 2_whiteLine3.jpg	Medium_e13_stereo_44KHz.wav
4	124	2	1	0	C	1	0	612	0	poli_8sides 18_whiteLine3.jpg	Medium_e13_stereo_44KHz.wav
4	125	1	2	0	C	2	1	709	1	poli_8sides 2_whiteLine3.jpg	MediumLong_e17_cut2_stereo_44KHz.wav
4	126	3	4	2	I	1	0	760	1	poli_8sides 7_whiteLine3.jpg	MediumLong_e19_stereo_44KHz.wav
4	127	4	3	2	I	1	0	1244	1	poli_8sides 3_whiteLine3.jpg	Medium_e26_stereo_44KHz.wav
4	128	2	2	1	C	1	1	727	1	poli_8sides 18_whiteLine3.jpg	MediumLong_e17_cut2_stereo_44KHz.wav
4	129	4	4	2	I	2	0	1164	1	poli_8sides 3_whiteLine3.jpg	MediumLong_e19_stereo_44KHz.wav
4	130	1	1	1	C	1	1	1385	1	poli_8sides 2_whiteLine3.jpg	Medium_e13_stereo_44KHz.wav
4	131	2	1	0	C	2	1	1307	1	poli_8sides 18_whiteLine3.jpg	Medium_e13_stereo_44KHz.wav
4	132	3	4	2	I	1	0	725	1	poli_8sides 7_whiteLine3.jpg	MediumLong_e19_stereo_44KHz.wav
4	133	2	2	1	C	1	1	636	1	poli_8sides 18_whiteLine3.jpg	MediumLong_e17_cut2_stereo_44KHz.wav
4	134	3	3	2	I	2	0	1061	1	poli_8sides 7_whiteLine3.jpg	Medium_e26_stereo_44KHz.wav
4	135	4	3	2	I	1	0	739	0	poli_8sides 3_whiteLine3.jpg	Medium_e26_stereo_44KHz.wav
4	136	1	2	0	C	2	1	981	1	poli_8sides 2_whiteLine3.jpg	MediumLong_e17_cut2_stereo_44KHz.wav
4	137	3	4	2	I	1	0	786	0	poli_8sides 7_whiteLine3.jpg	MediumLong_e19_stereo_44KHz.wav
4	138	1	1	1	C	1	1	853	1	poli_8sides 2_whiteLine3.jpg	Medium_e13_stereo_44KHz.wav
4	139	4	3	2	I	0	0	0	0	poli_8sides 3_whiteLine3.jpg	Medium_e26_stereo_44KHz.wav
4	140	2	2	1	C	2	0	961	0	poli_8sides 18_whiteLine3.jpg	MediumLong_e17_cut2_stereo_44KHz.wav
4	141	1	2	0	C	2	1	636	1	poli_8sides 2_whiteLine3.jpg	MediumLong_e17_cut2_stereo_44KHz.wav
4	142	2	1	0	C	1	0	772	0	poli_8sides 18_whiteLine3.jpg	Medium_e13_stereo_44KHz.wav
4	143	3	3	2	I	2	0	661	0	poli_8sides 7_whiteLine3.jpg	Medium_e26_stereo_44KHz.wav
4	144	4	4	2	I	2	0	764	0	poli_8sides 3_whiteLine3.jpg	MediumLong_e19_stereo_44KHz.wav
4	145	2	1	0	C	2	1	739	1	poli_8sides 18_whiteLine3.jpg	Medium_e13_stereo_44KHz.wav
4	146	1	1	1	C	1	1	898	1	poli_8sides 2_whiteLine3.jpg	Medium_e13_stereo_44KHz.wav
4	147	4	4	2	I	2	0	802	0	poli_8sides 3_whiteLine3.jpg	MediumLong_e19_stereo_44KHz.wav
4	148	3	3	2	I	2	0	681	1	poli_8sides 7_whiteLine3.jpg	Medium_e26_stereo_44KHz.wav
4	149	1	2	0	C	2	1	634	1	poli_8sides 2_whiteLine3.jpg	MediumLong_e17_cut2_stereo_44KHz.wav
4	150	3	4	2	I	1	0	716	1	poli_8sides 7_whiteLine3.jpg	MediumLong_e19_stereo_44KHz.wav
4	151	4	3	2	I	2	0	977	0	poli_8sides 3_whiteLine3.jpg	Medium_e26_stereo_44KHz.wav
4	152	2	2	1	C	1	1	1226	1	poli_8sides 18_whiteLine3.jpg	MediumLong_e17_cut2_stereo_44KHz.wav
4	153	1	1	1	C	1	1	1061	1	poli_8sides 2_whiteLine3.jpg	Medium_e13_stereo_44KHz.wav
4	154	4	3	2	I	1	0	1681	0	poli_8sides 3_whiteLine3.jpg	Medium_e26_stereo_44KHz.wav
4	155	2	1	0	C	2	1	791	1	poli_8sides 18_whiteLine3.jpg	Medium_e13_stereo_44KHz.wav
4	156	3	4	2	I	1	0	814	0	poli_8sides 7_whiteLine3.jpg	MediumLong_e19_stereo_44KHz.wav
4	157	1	2	0	C	2	1	1041	1	poli_8sides 2_whiteLine3.jpg	MediumLong_e17_cut2_stereo_44KHz.wav
4	158	2	2	1	C	1	1	810	1	poli_8sides 18_whiteLine3.jpg	MediumLong_e17_cut2_stereo_44KHz.wav
4	159	3	3	2	I	2	0	734	1	poli_8sides 7_whiteLine3.jpg	Medium_e26_stereo_44KHz.wav
4	160	4	4	2	I	2	0	1431	1	poli_8sides 3_whiteLine3.jpg	MediumLong_e19_stereo_44KHz.wav
4	161	2	2	1	C	0	0	0	0	poli_8sides 18_whiteLine3.jpg	MediumLong_e17_cut2_stereo_44KHz.wav
4	162	4	4	2	I	2	0	1060	1	poli_8sides 3_whiteLine3.jpg	MediumLong_e19_stereo_44KHz.wav
4	163	1	2	0	C	2	1	1530	1	poli_8sides 2_whiteLine3.jpg	MediumLong_e17_cut2_stereo_44KHz.wav
4	164	3	3	2	I	2	0	1187	0	poli_8sides 7_whiteLine3.jpg	Medium_e26_stereo_44KHz.wav
4	165	4	3	2	I	1	0	1013	1	poli_8sides 3_whiteLine3.jpg	Medium_e26_stereo_44KHz.wav
4	166	3	4	2	I	1	0	717	0	poli_8sides 7_whiteLine3.jpg	MediumLong_e19_stereo_44KHz.wav
4	167	2	1	0	C	2	1	871	1	poli_8sides 18_whiteLine3.jpg	Medium_e13_stereo_44KHz.wav
4	168	1	1	1	C	1	1	965	1	poli_8sides 2_whiteLine3.jpg	Medium_e13_stereo_44KHz.wav
4	169	3	4	2	I	1	0	839	0	poli_8sides 7_whiteLine3.jpg	MediumLong_e19_stereo_44KHz.wav
4	170	2	1	0	C	2	1	820	1	poli_8sides 18_whiteLine3.jpg	Medium_e13_stereo_44KHz.wav
4	171	4	4	2	I	2	0	1136	1	poli_8sides 3_whiteLine3.jpg	MediumLong_e19_stereo_44KHz.wav
4	172	1	1	1	C	2	0	1281	0	poli_8sides 2_whiteLine3.jpg	Medium_e13_stereo_44KHz.wav
4	173	4	3	2	I	1	0	1072	0	poli_8sides 3_whiteLine3.jpg	Medium_e26_stereo_44KHz.wav
4	174	3	3	2	I	2	0	785	0	poli_8sides 7_whiteLine3.jpg	Medium_e26_stereo_44KHz.wav
4	175	2	2	1	C	1	1	915	1	poli_8sides 18_whiteLine3.jpg	MediumLong_e17_cut2_stereo_44KHz.wav
4	176	1	2	0	C	2	1	714	1	poli_8sides 2_whiteLine3.jpg	MediumLong_e17_cut2_stereo_44KHz.wav
4	177	3	4	2	I	1	0	1019	1	poli_8sides 7_whiteLine3.jpg	MediumLong_e19_stereo_44KHz.wav
4	178	4	3	2	I	2	0	874	1	poli_8sides 3_whiteLine3.jpg	Medium_e26_stereo_44KHz.wav
4	179	2	1	0	C	2	1	1065	1	poli_8sides 18_whiteLine3.jpg	Medium_e13_stereo_44KHz.wav
4	180	1	1	1	C	1	1	839	1	poli_8sides 2_whiteLine3.jpg	Medium_e13_stereo_44KHz.wav
4	181	2	2	1	C	1	1	816	1	poli_8sides 18_whiteLine3.jpg	MediumLong_e17_cut2_stereo_44KHz.wav
4	182	1	2	0	C	2	1	771	1	poli_8sides 2_whiteLine3.jpg	MediumLong_e17_cut2_stereo_44KHz.wav
4	183	4	4	2	I	2	0	872	1	poli_8sides 3_whiteLine3.jpg	MediumLong_e19_stereo_44KHz.wav
4	184	3	3	2	I	2	0	674	0	poli_8sides 7_whiteLine3.jpg	Medium_e26_stereo_44KHz.wav
4	185	4	4	2	I	2	0	1147	1	poli_8sides 3_whiteLine3.jpg	MediumLong_e19_stereo_44KHz.wav
4	186	1	1	1	C	1	1	1057	1	poli_8sides 2_whiteLine3.jpg	Medium_e13_stereo_44KHz.wav
4	187	3	3	2	I	2	0	603	1	poli_8sides 7_whiteLine3.jpg	Medium_e26_stereo_44KHz.wav
4	188	2	1	0	C	2	1	792	1	poli_8sides 18_whiteLine3.jpg	Medium_e13_stereo_44KHz.wav
4	189	1	2	0	C	2	1	854	1	poli_8sides 2_whiteLine3.jpg	MediumLong_e17_cut2_stereo_44KHz.wav
4	190	4	3	2	I	1	0	1025	0	poli_8sides 3_whiteLine3.jpg	Medium_e26_stereo_44KHz.wav
4	191	3	4	2	I	2	0	1265	1	poli_8sides 7_whiteLine3.jpg	MediumLong_e19_stereo_44KHz.wav
4	192	2	2	1	C	1	1	1084	1	poli_8sides 18_whiteLine3.jpg	MediumLong_e17_cut2_stereo_44KHz.wav
4	193	4	3	2	I	1	0	768	0	poli_8sides 3_whiteLine3.jpg	Medium_e26_stereo_44KHz.wav
4	194	3	3	2	I	2	0	783	0	poli_8sides 7_whiteLine3.jpg	Medium_e26_stereo_44KHz.wav
4	195	1	2	0	C	0	0	0	0	poli_8sides 2_whiteLine3.jpg	MediumLong_e17_cut2_stereo_44KHz.wav
4	196	2	2	1	C	1	1	1305	1	poli_8sides 18_whiteLine3.jpg	MediumLong_e17_cut2_stereo_44KHz.wav
4	197	3	4	2	I	1	0	945	0	poli_8sides 7_whiteLine3.jpg	MediumLong_e19_stereo_44KHz.wav
4	198	1	1	1	C	1	1	1758	1	poli_8sides 2_whiteLine3.jpg	Medium_e13_stereo_44KHz.wav
4	199	4	4	2	I	2	0	887	0	poli_8sides 3_whiteLine3.jpg	MediumLong_e19_stereo_44KHz.wav
4	200	2	1	0	C	1	0	1007	0	poli_8sides 18_whiteLine3.jpg	Medium_e13_stereo_44KHz.wav
