block	trial	Vstim	Astim	match	C/I	resp	result	RT	fb	V-file	A-file
LR

0	1	1	2	0	C	0	0	0	0	Ⴢ	cut_oo_stereo_44KHz.wav
0	2	2	4	0	C	0	0	0	0	Ⴞ	cut_g_stereo_44KHz.wav
0	3	2	3	1	C	1	0	678	0	Ⴞ	cut_eeuw_stereo_44KHz.wav
0	4	1	1	1	C	2	1	849	1	Ⴢ	cut_ee_stereo_44KHz.wav
0	5	1	2	0	C	1	1	788	1	Ⴢ	cut_oo_stereo_44KHz.wav
0	6	2	3	1	C	2	1	837	1	Ⴞ	cut_eeuw_stereo_44KHz.wav
0	7	2	4	0	C	1	1	865	1	Ⴞ	cut_g_stereo_44KHz.wav
0	8	1	1	1	C	2	1	996	1	Ⴢ	cut_ee_stereo_44KHz.wav
0	9	1	2	0	C	1	1	907	1	Ⴢ	cut_oo_stereo_44KHz.wav
0	10	1	1	1	C	2	1	1491	1	Ⴢ	cut_ee_stereo_44KHz.wav
0	11	2	4	0	C	1	1	1339	1	Ⴞ	cut_g_stereo_44KHz.wav
0	12	2	3	1	C	2	1	816	1	Ⴞ	cut_eeuw_stereo_44KHz.wav
0	13	1	2	0	C	2	0	1012	0	Ⴢ	cut_oo_stereo_44KHz.wav
0	14	2	4	0	C	1	1	799	1	Ⴞ	cut_g_stereo_44KHz.wav
0	15	1	1	1	C	2	1	721	1	Ⴢ	cut_ee_stereo_44KHz.wav
0	16	2	3	1	C	1	0	833	0	Ⴞ	cut_eeuw_stereo_44KHz.wav
0	17	2	4	0	C	1	1	1224	1	Ⴞ	cut_g_stereo_44KHz.wav
0	18	2	3	1	C	2	1	920	1	Ⴞ	cut_eeuw_stereo_44KHz.wav
0	19	1	1	1	C	1	0	712	0	Ⴢ	cut_ee_stereo_44KHz.wav
0	20	1	2	0	C	1	1	977	1	Ⴢ	cut_oo_stereo_44KHz.wav
0	21	1	1	1	C	2	1	746	1	Ⴢ	cut_ee_stereo_44KHz.wav
0	22	2	4	0	C	1	1	1211	1	Ⴞ	cut_g_stereo_44KHz.wav
0	23	1	2	0	C	2	0	1014	0	Ⴢ	cut_oo_stereo_44KHz.wav
0	24	2	3	1	C	1	0	785	0	Ⴞ	cut_eeuw_stereo_44KHz.wav
0	25	2	4	0	C	1	1	977	1	Ⴞ	cut_g_stereo_44KHz.wav
0	26	2	3	1	C	2	1	804	1	Ⴞ	cut_eeuw_stereo_44KHz.wav
0	27	1	2	0	C	1	1	730	1	Ⴢ	cut_oo_stereo_44KHz.wav
0	28	1	1	1	C	2	1	808	1	Ⴢ	cut_ee_stereo_44KHz.wav
0	29	2	3	1	C	2	1	1168	1	Ⴞ	cut_eeuw_stereo_44KHz.wav
0	30	1	2	0	C	1	1	813	1	Ⴢ	cut_oo_stereo_44KHz.wav
avg_resp = 945
1	1	1	2	0	C	2	0	1566	0	Ⴒ	cut_n_stereo_44KHz.wav
1	2	3	3	2	I	1	0	1564	1	Ⴌ	cut_r_stereo_44KHz.wav
1	3	2	1	0	C	2	0	1700	0	Ⴐ	cut_f_stereo_44KHz.wav
1	4	4	3	2	I	1	0	1263	0	Ⴔ	cut_r_stereo_44KHz.wav
1	5	1	1	1	C	1	0	1221	0	Ⴒ	cut_f_stereo_44KHz.wav
1	6	3	4	2	I	2	0	1113	1	Ⴌ	cut_oei_stereo_44KHz.wav
1	7	2	2	1	C	2	1	1375	1	Ⴐ	cut_n_stereo_44KHz.wav
1	8	4	4	2	I	1	0	1122	1	Ⴔ	cut_oei_stereo_44KHz.wav
1	9	1	1	1	C	2	1	1115	1	Ⴒ	cut_f_stereo_44KHz.wav
1	10	4	4	2	I	1	0	990	0	Ⴔ	cut_oei_stereo_44KHz.wav
1	11	3	3	2	I	2	0	1031	1	Ⴌ	cut_r_stereo_44KHz.wav
1	12	2	2	1	C	2	1	1110	1	Ⴐ	cut_n_stereo_44KHz.wav
1	13	1	2	0	C	2	0	939	0	Ⴒ	cut_n_stereo_44KHz.wav
1	14	4	3	2	I	1	0	825	1	Ⴔ	cut_r_stereo_44KHz.wav
1	15	2	1	0	C	1	1	1110	1	Ⴐ	cut_f_stereo_44KHz.wav
1	16	3	4	2	I	2	0	1015	0	Ⴌ	cut_oei_stereo_44KHz.wav
1	17	2	2	1	C	1	0	893	0	Ⴐ	cut_n_stereo_44KHz.wav
1	18	3	4	2	I	1	0	956	0	Ⴌ	cut_oei_stereo_44KHz.wav
1	19	4	4	2	I	2	0	858	0	Ⴔ	cut_oei_stereo_44KHz.wav
1	20	1	1	1	C	1	0	913	0	Ⴒ	cut_f_stereo_44KHz.wav
1	21	3	3	2	I	2	0	826	0	Ⴌ	cut_r_stereo_44KHz.wav
1	22	1	2	0	C	1	1	1238	1	Ⴒ	cut_n_stereo_44KHz.wav
1	23	2	1	0	C	1	1	986	1	Ⴐ	cut_f_stereo_44KHz.wav
1	24	4	3	2	I	2	0	1043	1	Ⴔ	cut_r_stereo_44KHz.wav
1	25	1	2	0	C	2	0	1498	0	Ⴒ	cut_n_stereo_44KHz.wav
1	26	4	4	2	I	1	0	770	1	Ⴔ	cut_oei_stereo_44KHz.wav
1	27	3	4	2	I	2	0	850	1	Ⴌ	cut_oei_stereo_44KHz.wav
1	28	2	2	1	C	2	1	1483	1	Ⴐ	cut_n_stereo_44KHz.wav
1	29	1	1	1	C	1	0	1462	0	Ⴒ	cut_f_stereo_44KHz.wav
1	30	4	3	2	I	2	0	934	0	Ⴔ	cut_r_stereo_44KHz.wav
1	31	3	3	2	I	1	0	949	1	Ⴌ	cut_r_stereo_44KHz.wav
1	32	2	1	0	C	1	1	914	1	Ⴐ	cut_f_stereo_44KHz.wav
1	33	3	4	2	I	2	0	1028	0	Ⴌ	cut_oei_stereo_44KHz.wav
1	34	1	1	1	C	1	0	984	0	Ⴒ	cut_f_stereo_44KHz.wav
1	35	2	1	0	C	1	1	745	1	Ⴐ	cut_f_stereo_44KHz.wav
1	36	4	4	2	I	1	0	800	1	Ⴔ	cut_oei_stereo_44KHz.wav
1	37	1	2	0	C	1	1	783	1	Ⴒ	cut_n_stereo_44KHz.wav
1	38	2	2	1	C	2	1	947	1	Ⴐ	cut_n_stereo_44KHz.wav
1	39	3	3	2	I	1	0	964	1	Ⴌ	cut_r_stereo_44KHz.wav
1	40	4	3	2	I	1	0	817	0	Ⴔ	cut_r_stereo_44KHz.wav
1	41	3	4	2	I	2	0	1174	1	Ⴌ	cut_oei_stereo_44KHz.wav
1	42	4	4	2	I	1	0	744	1	Ⴔ	cut_oei_stereo_44KHz.wav
1	43	2	2	1	C	2	1	1001	1	Ⴐ	cut_n_stereo_44KHz.wav
1	44	1	2	0	C	2	0	978	0	Ⴒ	cut_n_stereo_44KHz.wav
1	45	3	3	2	I	2	0	1323	1	Ⴌ	cut_r_stereo_44KHz.wav
1	46	1	1	1	C	1	0	753	0	Ⴒ	cut_f_stereo_44KHz.wav
1	47	4	3	2	I	1	0	937	1	Ⴔ	cut_r_stereo_44KHz.wav
1	48	2	1	0	C	1	1	862	1	Ⴐ	cut_f_stereo_44KHz.wav
1	49	3	3	2	I	1	0	1076	0	Ⴌ	cut_r_stereo_44KHz.wav
1	50	2	1	0	C	1	1	886	1	Ⴐ	cut_f_stereo_44KHz.wav
1	51	1	2	0	C	1	1	838	1	Ⴒ	cut_n_stereo_44KHz.wav
1	52	4	4	2	I	1	0	678	0	Ⴔ	cut_oei_stereo_44KHz.wav
1	53	1	1	1	C	1	0	778	0	Ⴒ	cut_f_stereo_44KHz.wav
1	54	3	4	2	I	1	0	842	1	Ⴌ	cut_oei_stereo_44KHz.wav
1	55	2	2	1	C	1	0	893	0	Ⴐ	cut_n_stereo_44KHz.wav
1	56	4	3	2	I	2	0	1283	1	Ⴔ	cut_r_stereo_44KHz.wav
1	57	2	1	0	C	1	1	928	1	Ⴐ	cut_f_stereo_44KHz.wav
1	58	4	4	2	I	1	0	663	1	Ⴔ	cut_oei_stereo_44KHz.wav
1	59	3	4	2	I	1	0	719	0	Ⴌ	cut_oei_stereo_44KHz.wav
1	60	1	2	0	C	1	1	888	1	Ⴒ	cut_n_stereo_44KHz.wav
1	61	4	3	2	I	2	0	1059	0	Ⴔ	cut_r_stereo_44KHz.wav
1	62	2	2	1	C	2	1	998	1	Ⴐ	cut_n_stereo_44KHz.wav
1	63	1	1	1	C	2	1	1524	1	Ⴒ	cut_f_stereo_44KHz.wav
1	64	3	3	2	I	2	0	1308	1	Ⴌ	cut_r_stereo_44KHz.wav
1	65	4	3	2	I	2	0	926	1	Ⴔ	cut_r_stereo_44KHz.wav
1	66	2	2	1	C	2	1	838	1	Ⴐ	cut_n_stereo_44KHz.wav
1	67	1	1	1	C	1	0	992	0	Ⴒ	cut_f_stereo_44KHz.wav
1	68	3	3	2	I	2	0	1065	0	Ⴌ	cut_r_stereo_44KHz.wav
1	69	4	4	2	I	1	0	646	1	Ⴔ	cut_oei_stereo_44KHz.wav
1	70	3	4	2	I	1	0	743	1	Ⴌ	cut_oei_stereo_44KHz.wav
1	71	2	1	0	C	1	1	798	1	Ⴐ	cut_f_stereo_44KHz.wav
1	72	1	2	0	C	1	1	908	1	Ⴒ	cut_n_stereo_44KHz.wav
1	73	4	3	2	I	1	0	996	1	Ⴔ	cut_r_stereo_44KHz.wav
1	74	3	3	2	I	1	0	798	0	Ⴌ	cut_r_stereo_44KHz.wav
1	75	1	2	0	C	2	0	960	0	Ⴒ	cut_n_stereo_44KHz.wav
1	76	2	1	0	C	1	1	668	1	Ⴐ	cut_f_stereo_44KHz.wav
1	77	1	1	1	C	1	0	871	0	Ⴒ	cut_f_stereo_44KHz.wav
1	78	2	2	1	C	2	1	1001	1	Ⴐ	cut_n_stereo_44KHz.wav
1	79	4	4	2	I	1	0	664	1	Ⴔ	cut_oei_stereo_44KHz.wav
1	80	3	4	2	I	1	0	874	0	Ⴌ	cut_oei_stereo_44KHz.wav
1	81	1	1	1	C	1	0	706	0	Ⴒ	cut_f_stereo_44KHz.wav
1	82	4	4	2	I	1	0	646	0	Ⴔ	cut_oei_stereo_44KHz.wav
1	83	2	1	0	C	1	1	658	1	Ⴐ	cut_f_stereo_44KHz.wav
1	84	3	4	2	I	1	0	1090	1	Ⴌ	cut_oei_stereo_44KHz.wav
1	85	1	2	0	C	2	0	1196	0	Ⴒ	cut_n_stereo_44KHz.wav
1	86	4	3	2	I	2	0	1095	0	Ⴔ	cut_r_stereo_44KHz.wav
1	87	3	3	2	I	1	0	996	1	Ⴌ	cut_r_stereo_44KHz.wav
1	88	2	2	1	C	2	1	991	1	Ⴐ	cut_n_stereo_44KHz.wav
1	89	3	4	2	I	1	0	1013	0	Ⴌ	cut_oei_stereo_44KHz.wav
1	90	1	1	1	C	1	0	748	0	Ⴒ	cut_f_stereo_44KHz.wav
1	91	4	4	2	I	1	0	695	1	Ⴔ	cut_oei_stereo_44KHz.wav
1	92	2	1	0	C	1	1	791	1	Ⴐ	cut_f_stereo_44KHz.wav
1	93	4	3	2	I	2	0	956	0	Ⴔ	cut_r_stereo_44KHz.wav
1	94	3	3	2	I	2	0	1336	0	Ⴌ	cut_r_stereo_44KHz.wav
1	95	1	2	0	C	1	1	1110	1	Ⴒ	cut_n_stereo_44KHz.wav
1	96	2	2	1	C	2	1	1003	1	Ⴐ	cut_n_stereo_44KHz.wav
1	97	1	1	1	C	1	0	941	0	Ⴒ	cut_f_stereo_44KHz.wav
1	98	3	4	2	I	1	0	1225	0	Ⴌ	cut_oei_stereo_44KHz.wav
1	99	2	1	0	C	1	1	663	1	Ⴐ	cut_f_stereo_44KHz.wav
1	100	4	4	2	I	1	0	786	0	Ⴔ	cut_oei_stereo_44KHz.wav
1	101	3	3	2	I	2	0	1235	0	Ⴌ	cut_r_stereo_44KHz.wav
1	102	1	2	0	C	2	0	1192	0	Ⴒ	cut_n_stereo_44KHz.wav
1	103	4	3	2	I	1	0	1241	1	Ⴔ	cut_r_stereo_44KHz.wav
1	104	2	2	1	C	2	1	1011	1	Ⴐ	cut_n_stereo_44KHz.wav
1	105	4	3	2	I	1	0	908	1	Ⴔ	cut_r_stereo_44KHz.wav
1	106	1	2	0	C	2	0	1435	0	Ⴒ	cut_n_stereo_44KHz.wav
1	107	3	3	2	I	2	0	1295	0	Ⴌ	cut_r_stereo_44KHz.wav
1	108	2	2	1	C	2	1	1054	1	Ⴐ	cut_n_stereo_44KHz.wav
1	109	4	4	2	I	1	0	763	0	Ⴔ	cut_oei_stereo_44KHz.wav
1	110	1	1	1	C	1	0	835	0	Ⴒ	cut_f_stereo_44KHz.wav
1	111	3	4	2	I	2	0	1404	0	Ⴌ	cut_oei_stereo_44KHz.wav
1	112	2	1	0	C	1	1	1024	1	Ⴐ	cut_f_stereo_44KHz.wav
1	113	4	4	2	I	1	0	670	0	Ⴔ	cut_oei_stereo_44KHz.wav
1	114	1	1	1	C	1	0	876	0	Ⴒ	cut_f_stereo_44KHz.wav
1	115	2	2	1	C	2	1	1027	1	Ⴐ	cut_n_stereo_44KHz.wav
1	116	3	3	2	I	1	0	1526	0	Ⴌ	cut_r_stereo_44KHz.wav
1	117	4	3	2	I	1	0	1029	1	Ⴔ	cut_r_stereo_44KHz.wav
1	118	3	4	2	I	2	0	1081	0	Ⴌ	cut_oei_stereo_44KHz.wav
1	119	1	2	0	C	2	0	944	0	Ⴒ	cut_n_stereo_44KHz.wav
1	120	2	1	0	C	1	1	968	1	Ⴐ	cut_f_stereo_44KHz.wav
1	121	3	4	2	I	1	0	1010	1	Ⴌ	cut_oei_stereo_44KHz.wav
1	122	1	1	1	C	1	0	1462	0	Ⴒ	cut_f_stereo_44KHz.wav
1	123	4	3	2	I	1	0	838	0	Ⴔ	cut_r_stereo_44KHz.wav
1	124	2	1	0	C	1	1	703	1	Ⴐ	cut_f_stereo_44KHz.wav
1	125	3	3	2	I	2	0	1049	1	Ⴌ	cut_r_stereo_44KHz.wav
1	126	4	4	2	I	1	0	944	0	Ⴔ	cut_oei_stereo_44KHz.wav
1	127	2	2	1	C	2	1	853	1	Ⴐ	cut_n_stereo_44KHz.wav
1	128	1	2	0	C	1	1	1023	1	Ⴒ	cut_n_stereo_44KHz.wav
1	129	4	4	2	I	1	0	697	1	Ⴔ	cut_oei_stereo_44KHz.wav
1	130	3	3	2	I	1	0	1551	1	Ⴌ	cut_r_stereo_44KHz.wav
1	131	1	1	1	C	1	0	1890	0	Ⴒ	cut_f_stereo_44KHz.wav
1	132	2	2	1	C	2	1	1057	1	Ⴐ	cut_n_stereo_44KHz.wav
1	133	4	3	2	I	1	0	905	0	Ⴔ	cut_r_stereo_44KHz.wav
1	134	3	4	2	I	2	0	1960	1	Ⴌ	cut_oei_stereo_44KHz.wav
1	135	2	1	0	C	1	1	1267	1	Ⴐ	cut_f_stereo_44KHz.wav
1	136	1	2	0	C	1	1	1776	1	Ⴒ	cut_n_stereo_44KHz.wav
1	137	3	3	2	I	1	0	1343	0	Ⴌ	cut_r_stereo_44KHz.wav
1	138	2	1	0	C	1	1	861	1	Ⴐ	cut_f_stereo_44KHz.wav
1	139	1	2	0	C	1	1	1078	1	Ⴒ	cut_n_stereo_44KHz.wav
1	140	4	4	2	I	1	0	1205	1	Ⴔ	cut_oei_stereo_44KHz.wav
1	141	1	1	1	C	1	0	899	0	Ⴒ	cut_f_stereo_44KHz.wav
1	142	2	2	1	C	2	1	1124	1	Ⴐ	cut_n_stereo_44KHz.wav
1	143	3	4	2	I	1	0	811	1	Ⴌ	cut_oei_stereo_44KHz.wav
1	144	4	3	2	I	1	0	828	0	Ⴔ	cut_r_stereo_44KHz.wav
1	145	1	1	1	C	1	0	909	0	Ⴒ	cut_f_stereo_44KHz.wav
1	146	2	1	0	C	1	1	729	1	Ⴐ	cut_f_stereo_44KHz.wav
1	147	3	4	2	I	1	0	1040	0	Ⴌ	cut_oei_stereo_44KHz.wav
1	148	4	3	2	I	1	0	882	1	Ⴔ	cut_r_stereo_44KHz.wav
1	149	3	3	2	I	2	0	1077	1	Ⴌ	cut_r_stereo_44KHz.wav
1	150	2	2	1	C	2	1	1125	1	Ⴐ	cut_n_stereo_44KHz.wav
1	151	1	2	0	C	1	1	1563	1	Ⴒ	cut_n_stereo_44KHz.wav
1	152	4	4	2	I	1	0	876	1	Ⴔ	cut_oei_stereo_44KHz.wav
1	153	2	2	1	C	2	1	857	1	Ⴐ	cut_n_stereo_44KHz.wav
1	154	4	4	2	I	1	0	1035	0	Ⴔ	cut_oei_stereo_44KHz.wav
1	155	1	2	0	C	1	1	1202	1	Ⴒ	cut_n_stereo_44KHz.wav
1	156	3	4	2	I	1	0	1037	0	Ⴌ	cut_oei_stereo_44KHz.wav
1	157	1	1	1	C	2	1	1183	1	Ⴒ	cut_f_stereo_44KHz.wav
1	158	4	3	2	I	1	0	967	0	Ⴔ	cut_r_stereo_44KHz.wav
1	159	2	1	0	C	1	1	755	1	Ⴐ	cut_f_stereo_44KHz.wav
1	160	3	3	2	I	2	0	1512	1	Ⴌ	cut_r_stereo_44KHz.wav
1	161	4	3	2	I	1	0	1359	1	Ⴔ	cut_r_stereo_44KHz.wav
1	162	2	1	0	C	1	1	836	1	Ⴐ	cut_f_stereo_44KHz.wav
1	163	3	3	2	I	2	0	1299	0	Ⴌ	cut_r_stereo_44KHz.wav
1	164	1	1	1	C	2	1	1229	1	Ⴒ	cut_f_stereo_44KHz.wav
1	165	4	4	2	I	1	0	1504	0	Ⴔ	cut_oei_stereo_44KHz.wav
1	166	3	4	2	I	1	0	903	0	Ⴌ	cut_oei_stereo_44KHz.wav
1	167	2	2	1	C	2	1	1020	1	Ⴐ	cut_n_stereo_44KHz.wav
1	168	1	2	0	C	1	1	1499	1	Ⴒ	cut_n_stereo_44KHz.wav
1	169	3	4	2	I	1	0	1807	1	Ⴌ	cut_oei_stereo_44KHz.wav
1	170	4	3	2	I	1	0	836	0	Ⴔ	cut_r_stereo_44KHz.wav
1	171	2	2	1	C	2	1	950	1	Ⴐ	cut_n_stereo_44KHz.wav
1	172	1	2	0	C	1	1	1125	1	Ⴒ	cut_n_stereo_44KHz.wav
1	173	4	4	2	I	1	0	752	1	Ⴔ	cut_oei_stereo_44KHz.wav
1	174	3	3	2	I	2	0	1482	1	Ⴌ	cut_r_stereo_44KHz.wav
1	175	2	1	0	C	1	1	914	1	Ⴐ	cut_f_stereo_44KHz.wav
1	176	1	1	1	C	2	1	972	1	Ⴒ	cut_f_stereo_44KHz.wav
1	177	4	3	2	I	1	0	916	1	Ⴔ	cut_r_stereo_44KHz.wav
1	178	3	3	2	I	2	0	846	1	Ⴌ	cut_r_stereo_44KHz.wav
1	179	1	1	1	C	2	1	1070	1	Ⴒ	cut_f_stereo_44KHz.wav
1	180	2	2	1	C	2	1	968	1	Ⴐ	cut_n_stereo_44KHz.wav
1	181	1	2	0	C	1	1	1309	1	Ⴒ	cut_n_stereo_44KHz.wav
1	182	2	1	0	C	1	1	852	1	Ⴐ	cut_f_stereo_44KHz.wav
1	183	3	4	2	I	1	0	980	0	Ⴌ	cut_oei_stereo_44KHz.wav
1	184	4	4	2	I	1	0	698	0	Ⴔ	cut_oei_stereo_44KHz.wav
1	185	2	1	0	C	1	1	670	1	Ⴐ	cut_f_stereo_44KHz.wav
1	186	1	1	1	C	2	1	924	1	Ⴒ	cut_f_stereo_44KHz.wav
1	187	3	4	2	I	1	0	1051	1	Ⴌ	cut_oei_stereo_44KHz.wav
1	188	4	4	2	I	1	0	1002	0	Ⴔ	cut_oei_stereo_44KHz.wav
1	189	2	2	1	C	2	1	832	1	Ⴐ	cut_n_stereo_44KHz.wav
1	190	1	2	0	C	1	1	1050	1	Ⴒ	cut_n_stereo_44KHz.wav
1	191	4	3	2	I	1	0	861	1	Ⴔ	cut_r_stereo_44KHz.wav
1	192	3	3	2	I	2	0	730	1	Ⴌ	cut_r_stereo_44KHz.wav
1	193	2	2	1	C	2	1	989	1	Ⴐ	cut_n_stereo_44KHz.wav
1	194	3	4	2	I	1	0	839	0	Ⴌ	cut_oei_stereo_44KHz.wav
1	195	1	1	1	C	2	1	1061	1	Ⴒ	cut_f_stereo_44KHz.wav
1	196	4	4	2	I	1	0	1001	0	Ⴔ	cut_oei_stereo_44KHz.wav
1	197	1	2	0	C	1	1	1201	1	Ⴒ	cut_n_stereo_44KHz.wav
1	198	2	1	0	C	1	1	1210	1	Ⴐ	cut_f_stereo_44KHz.wav
1	199	4	3	2	I	1	0	776	0	Ⴔ	cut_r_stereo_44KHz.wav
1	200	3	3	2	I	1	0	1527	0	Ⴌ	cut_r_stereo_44KHz.wav
2	1	1	2	0	C	2	0	1845	0	Ⴁ	cut_k_stereo_44KHz.wav
2	2	4	4	2	I	1	0	1375	0	Ⴡ	cut_a_stereo_44KHz.wav
2	3	3	3	2	I	2	0	1138	0	Ⴇ	cut_o_stereo_44KHz.wav
2	4	2	2	1	C	1	0	1099	0	Ⴜ	cut_k_stereo_44KHz.wav
2	5	1	1	1	C	1	0	758	0	Ⴁ	cut_u_stereo_44KHz.wav
2	6	4	3	2	I	2	0	711	0	Ⴡ	cut_o_stereo_44KHz.wav
2	7	2	1	0	C	1	1	680	1	Ⴜ	cut_u_stereo_44KHz.wav
2	8	3	4	2	I	1	0	851	0	Ⴇ	cut_a_stereo_44KHz.wav
2	9	2	2	1	C	2	1	727	1	Ⴜ	cut_k_stereo_44KHz.wav
2	10	4	3	2	I	2	0	1008	0	Ⴡ	cut_o_stereo_44KHz.wav
2	11	1	1	1	C	2	1	1626	1	Ⴁ	cut_u_stereo_44KHz.wav
2	12	3	3	2	I	2	0	1047	1	Ⴇ	cut_o_stereo_44KHz.wav
2	13	1	2	0	C	2	0	996	0	Ⴁ	cut_k_stereo_44KHz.wav
2	14	2	1	0	C	1	1	845	1	Ⴜ	cut_u_stereo_44KHz.wav
2	15	4	4	2	I	2	0	1564	1	Ⴡ	cut_a_stereo_44KHz.wav
2	16	3	4	2	I	2	0	1737	0	Ⴇ	cut_a_stereo_44KHz.wav
2	17	2	1	0	C	1	1	894	1	Ⴜ	cut_u_stereo_44KHz.wav
2	18	4	4	2	I	2	0	893	0	Ⴡ	cut_a_stereo_44KHz.wav
2	19	3	4	2	I	1	0	747	1	Ⴇ	cut_a_stereo_44KHz.wav
2	20	1	2	0	C	1	1	1399	1	Ⴁ	cut_k_stereo_44KHz.wav
2	21	3	3	2	I	2	0	1305	0	Ⴇ	cut_o_stereo_44KHz.wav
2	22	4	3	2	I	1	0	1057	1	Ⴡ	cut_o_stereo_44KHz.wav
2	23	1	1	1	C	1	0	1499	0	Ⴁ	cut_u_stereo_44KHz.wav
2	24	2	2	1	C	1	0	499	0	Ⴜ	cut_k_stereo_44KHz.wav
2	25	4	4	2	I	1	0	733	0	Ⴡ	cut_a_stereo_44KHz.wav
2	26	3	3	2	I	1	0	1036	1	Ⴇ	cut_o_stereo_44KHz.wav
2	27	1	1	1	C	1	0	1167	0	Ⴁ	cut_u_stereo_44KHz.wav
2	28	2	1	0	C	2	0	928	0	Ⴜ	cut_u_stereo_44KHz.wav
2	29	1	2	0	C	2	0	1027	0	Ⴁ	cut_k_stereo_44KHz.wav
2	30	4	3	2	I	1	0	1244	0	Ⴡ	cut_o_stereo_44KHz.wav
2	31	2	2	1	C	1	0	789	0	Ⴜ	cut_k_stereo_44KHz.wav
2	32	3	4	2	I	1	0	749	1	Ⴇ	cut_a_stereo_44KHz.wav
2	33	4	3	2	I	1	0	1057	1	Ⴡ	cut_o_stereo_44KHz.wav
2	34	3	4	2	I	1	0	812	1	Ⴇ	cut_a_stereo_44KHz.wav
2	35	1	1	1	C	1	0	1069	0	Ⴁ	cut_u_stereo_44KHz.wav
2	36	2	1	0	C	1	1	1044	1	Ⴜ	cut_u_stereo_44KHz.wav
2	37	4	4	2	I	1	0	741	0	Ⴡ	cut_a_stereo_44KHz.wav
2	38	1	2	0	C	2	0	1002	0	Ⴁ	cut_k_stereo_44KHz.wav
2	39	3	3	2	I	1	0	722	1	Ⴇ	cut_o_stereo_44KHz.wav
2	40	2	2	1	C	2	1	1279	1	Ⴜ	cut_k_stereo_44KHz.wav
2	41	1	2	0	C	1	1	1168	1	Ⴁ	cut_k_stereo_44KHz.wav
2	42	4	3	2	I	1	0	714	0	Ⴡ	cut_o_stereo_44KHz.wav
2	43	2	1	0	C	1	1	838	1	Ⴜ	cut_u_stereo_44KHz.wav
2	44	3	4	2	I	1	0	979	0	Ⴇ	cut_a_stereo_44KHz.wav
2	45	4	4	2	I	1	0	713	0	Ⴡ	cut_a_stereo_44KHz.wav
2	46	2	2	1	C	2	1	1451	1	Ⴜ	cut_k_stereo_44KHz.wav
2	47	3	3	2	I	1	0	809	1	Ⴇ	cut_o_stereo_44KHz.wav
2	48	1	1	1	C	2	1	1431	1	Ⴁ	cut_u_stereo_44KHz.wav
2	49	4	3	2	I	1	0	863	0	Ⴡ	cut_o_stereo_44KHz.wav
2	50	2	2	1	C	1	0	959	0	Ⴜ	cut_k_stereo_44KHz.wav
2	51	1	1	1	C	2	1	1512	1	Ⴁ	cut_u_stereo_44KHz.wav
2	52	3	3	2	I	1	0	806	0	Ⴇ	cut_o_stereo_44KHz.wav
2	53	1	2	0	C	1	1	814	1	Ⴁ	cut_k_stereo_44KHz.wav
2	54	2	1	0	C	1	1	963	1	Ⴜ	cut_u_stereo_44KHz.wav
2	55	4	4	2	I	1	0	974	1	Ⴡ	cut_a_stereo_44KHz.wav
2	56	3	4	2	I	2	0	971	1	Ⴇ	cut_a_stereo_44KHz.wav
2	57	2	2	1	C	1	0	1011	0	Ⴜ	cut_k_stereo_44KHz.wav
2	58	3	4	2	I	2	0	1111	0	Ⴇ	cut_a_stereo_44KHz.wav
2	59	1	2	0	C	1	1	876	1	Ⴁ	cut_k_stereo_44KHz.wav
2	60	4	3	2	I	1	0	818	1	Ⴡ	cut_o_stereo_44KHz.wav
2	61	2	1	0	C	1	1	1120	1	Ⴜ	cut_u_stereo_44KHz.wav
2	62	4	4	2	I	1	0	841	0	Ⴡ	cut_a_stereo_44KHz.wav
2	63	1	1	1	C	1	0	721	0	Ⴁ	cut_u_stereo_44KHz.wav
2	64	3	3	2	I	1	0	895	1	Ⴇ	cut_o_stereo_44KHz.wav
2	65	1	1	1	C	1	0	800	0	Ⴁ	cut_u_stereo_44KHz.wav
2	66	4	3	2	I	2	0	902	1	Ⴡ	cut_o_stereo_44KHz.wav
2	67	2	2	1	C	1	0	721	0	Ⴜ	cut_k_stereo_44KHz.wav
2	68	3	3	2	I	1	0	1108	1	Ⴇ	cut_o_stereo_44KHz.wav
2	69	1	2	0	C	1	1	671	1	Ⴁ	cut_k_stereo_44KHz.wav
2	70	3	4	2	I	2	0	1083	0	Ⴇ	cut_a_stereo_44KHz.wav
2	71	4	4	2	I	2	0	1190	1	Ⴡ	cut_a_stereo_44KHz.wav
2	72	2	1	0	C	1	1	1122	1	Ⴜ	cut_u_stereo_44KHz.wav
2	73	4	3	2	I	2	0	852	0	Ⴡ	cut_o_stereo_44KHz.wav
2	74	2	2	1	C	1	0	761	0	Ⴜ	cut_k_stereo_44KHz.wav
2	75	1	2	0	C	1	1	760	1	Ⴁ	cut_k_stereo_44KHz.wav
2	76	3	3	2	I	1	0	991	0	Ⴇ	cut_o_stereo_44KHz.wav
2	77	1	1	1	C	2	1	1800	1	Ⴁ	cut_u_stereo_44KHz.wav
2	78	4	4	2	I	1	0	647	1	Ⴡ	cut_a_stereo_44KHz.wav
2	79	2	1	0	C	1	1	868	1	Ⴜ	cut_u_stereo_44KHz.wav
2	80	3	4	2	I	1	0	1045	1	Ⴇ	cut_a_stereo_44KHz.wav
2	81	2	2	1	C	1	0	1399	0	Ⴜ	cut_k_stereo_44KHz.wav
2	82	4	4	2	I	1	0	756	0	Ⴡ	cut_a_stereo_44KHz.wav
2	83	3	3	2	I	1	0	667	0	Ⴇ	cut_o_stereo_44KHz.wav
2	84	1	1	1	C	2	1	1105	1	Ⴁ	cut_u_stereo_44KHz.wav
2	85	3	4	2	I	2	0	1058	0	Ⴇ	cut_a_stereo_44KHz.wav
2	86	1	2	0	C	1	1	1045	1	Ⴁ	cut_k_stereo_44KHz.wav
2	87	4	3	2	I	2	0	922	0	Ⴡ	cut_o_stereo_44KHz.wav
2	88	2	1	0	C	1	1	1125	1	Ⴜ	cut_u_stereo_44KHz.wav
2	89	4	4	2	I	1	0	874	1	Ⴡ	cut_a_stereo_44KHz.wav
2	90	2	2	1	C	1	0	884	0	Ⴜ	cut_k_stereo_44KHz.wav
2	91	1	1	1	C	2	1	1359	1	Ⴁ	cut_u_stereo_44KHz.wav
2	92	3	3	2	I	1	0	1528	1	Ⴇ	cut_o_stereo_44KHz.wav
2	93	4	3	2	I	2	0	928	1	Ⴡ	cut_o_stereo_44KHz.wav
2	94	1	2	0	C	1	1	1036	1	Ⴁ	cut_k_stereo_44KHz.wav
2	95	3	4	2	I	1	0	1400	1	Ⴇ	cut_a_stereo_44KHz.wav
2	96	2	1	0	C	1	1	1350	1	Ⴜ	cut_u_stereo_44KHz.wav
2	97	4	4	2	I	1	0	918	1	Ⴡ	cut_a_stereo_44KHz.wav
2	98	3	4	2	I	2	0	952	0	Ⴇ	cut_a_stereo_44KHz.wav
2	99	2	1	0	C	1	1	1533	1	Ⴜ	cut_u_stereo_44KHz.wav
2	100	1	1	1	C	2	1	1107	1	Ⴁ	cut_u_stereo_44KHz.wav
2	101	3	3	2	I	1	0	1036	0	Ⴇ	cut_o_stereo_44KHz.wav
2	102	2	2	1	C	2	1	1467	1	Ⴜ	cut_k_stereo_44KHz.wav
2	103	4	3	2	I	1	0	1571	0	Ⴡ	cut_o_stereo_44KHz.wav
2	104	1	2	0	C	1	1	959	1	Ⴁ	cut_k_stereo_44KHz.wav
2	105	2	2	1	C	2	1	1186	1	Ⴜ	cut_k_stereo_44KHz.wav
2	106	4	3	2	I	1	0	1207	1	Ⴡ	cut_o_stereo_44KHz.wav
2	107	3	4	2	I	1	0	982	0	Ⴇ	cut_a_stereo_44KHz.wav
2	108	1	2	0	C	1	1	929	1	Ⴁ	cut_k_stereo_44KHz.wav
2	109	3	3	2	I	1	0	902	1	Ⴇ	cut_o_stereo_44KHz.wav
2	110	2	1	0	C	1	1	1030	1	Ⴜ	cut_u_stereo_44KHz.wav
2	111	1	1	1	C	2	1	1092	1	Ⴁ	cut_u_stereo_44KHz.wav
2	112	4	4	2	I	1	0	1086	1	Ⴡ	cut_a_stereo_44KHz.wav
2	113	2	1	0	C	1	1	1169	1	Ⴜ	cut_u_stereo_44KHz.wav
2	114	1	2	0	C	1	1	985	1	Ⴁ	cut_k_stereo_44KHz.wav
2	115	4	3	2	I	2	0	1113	1	Ⴡ	cut_o_stereo_44KHz.wav
2	116	3	4	2	I	2	0	1147	1	Ⴇ	cut_a_stereo_44KHz.wav
2	117	4	4	2	I	1	0	815	1	Ⴡ	cut_a_stereo_44KHz.wav
2	118	3	3	2	I	1	0	1436	0	Ⴇ	cut_o_stereo_44KHz.wav
2	119	1	1	1	C	2	1	1363	1	Ⴁ	cut_u_stereo_44KHz.wav
2	120	2	2	1	C	2	1	1792	1	Ⴜ	cut_k_stereo_44KHz.wav
2	121	4	3	2	I	1	0	1164	1	Ⴡ	cut_o_stereo_44KHz.wav
2	122	1	2	0	C	1	1	784	1	Ⴁ	cut_k_stereo_44KHz.wav
2	123	3	4	2	I	2	0	1064	0	Ⴇ	cut_a_stereo_44KHz.wav
2	124	2	2	1	C	2	1	1456	1	Ⴜ	cut_k_stereo_44KHz.wav
2	125	1	1	1	C	2	1	1073	1	Ⴁ	cut_u_stereo_44KHz.wav
2	126	4	4	2	I	1	0	970	1	Ⴡ	cut_a_stereo_44KHz.wav
2	127	2	1	0	C	0	0	0	0	Ⴜ	cut_u_stereo_44KHz.wav
2	128	3	3	2	I	1	0	1001	1	Ⴇ	cut_o_stereo_44KHz.wav
2	129	1	2	0	C	1	1	1349	1	Ⴁ	cut_k_stereo_44KHz.wav
2	130	2	2	1	C	2	1	1160	1	Ⴜ	cut_k_stereo_44KHz.wav
2	131	4	4	2	I	1	0	763	0	Ⴡ	cut_a_stereo_44KHz.wav
2	132	3	3	2	I	1	0	1217	0	Ⴇ	cut_o_stereo_44KHz.wav
2	133	2	1	0	C	1	1	898	1	Ⴜ	cut_u_stereo_44KHz.wav
2	134	1	1	1	C	2	1	1085	1	Ⴁ	cut_u_stereo_44KHz.wav
2	135	4	3	2	I	1	0	863	1	Ⴡ	cut_o_stereo_44KHz.wav
2	136	3	4	2	I	2	0	905	1	Ⴇ	cut_a_stereo_44KHz.wav
2	137	2	2	1	C	1	0	1123	0	Ⴜ	cut_k_stereo_44KHz.wav
2	138	1	1	1	C	2	1	970	1	Ⴁ	cut_u_stereo_44KHz.wav
2	139	4	3	2	I	2	0	860	1	Ⴡ	cut_o_stereo_44KHz.wav
2	140	3	3	2	I	1	0	984	1	Ⴇ	cut_o_stereo_44KHz.wav
2	141	1	2	0	C	1	1	1089	1	Ⴁ	cut_k_stereo_44KHz.wav
2	142	2	1	0	C	1	1	911	1	Ⴜ	cut_u_stereo_44KHz.wav
2	143	3	4	2	I	2	0	1552	0	Ⴇ	cut_a_stereo_44KHz.wav
2	144	4	4	2	I	1	0	597	1	Ⴡ	cut_a_stereo_44KHz.wav
2	145	1	2	0	C	1	1	1539	1	Ⴁ	cut_k_stereo_44KHz.wav
2	146	3	3	2	I	2	0	1163	0	Ⴇ	cut_o_stereo_44KHz.wav
2	147	4	4	2	I	1	0	592	0	Ⴡ	cut_a_stereo_44KHz.wav
2	148	2	2	1	C	2	1	1361	1	Ⴜ	cut_k_stereo_44KHz.wav
2	149	1	1	1	C	2	1	1838	1	Ⴁ	cut_u_stereo_44KHz.wav
2	150	2	1	0	C	1	1	1021	1	Ⴜ	cut_u_stereo_44KHz.wav
2	151	3	4	2	I	1	0	1649	1	Ⴇ	cut_a_stereo_44KHz.wav
2	152	4	3	2	I	2	0	819	0	Ⴡ	cut_o_stereo_44KHz.wav
2	153	2	1	0	C	1	1	927	1	Ⴜ	cut_u_stereo_44KHz.wav
2	154	3	3	2	I	1	0	999	0	Ⴇ	cut_o_stereo_44KHz.wav
2	155	1	1	1	C	2	1	1135	1	Ⴁ	cut_u_stereo_44KHz.wav
2	156	4	4	2	I	1	0	932	1	Ⴡ	cut_a_stereo_44KHz.wav
2	157	2	2	1	C	2	1	1220	1	Ⴜ	cut_k_stereo_44KHz.wav
2	158	1	2	0	C	1	1	1164	1	Ⴁ	cut_k_stereo_44KHz.wav
2	159	4	3	2	I	2	0	1015	0	Ⴡ	cut_o_stereo_44KHz.wav
2	160	3	4	2	I	1	0	1095	0	Ⴇ	cut_a_stereo_44KHz.wav
2	161	4	3	2	I	2	0	1129	0	Ⴡ	cut_o_stereo_44KHz.wav
2	162	3	3	2	I	1	0	937	1	Ⴇ	cut_o_stereo_44KHz.wav
2	163	1	1	1	C	2	1	1493	1	Ⴁ	cut_u_stereo_44KHz.wav
2	164	2	2	1	C	2	1	1091	1	Ⴜ	cut_k_stereo_44KHz.wav
2	165	3	4	2	I	1	0	946	1	Ⴇ	cut_a_stereo_44KHz.wav
2	166	1	2	0	C	1	1	1761	1	Ⴁ	cut_k_stereo_44KHz.wav
2	167	2	1	0	C	1	1	909	1	Ⴜ	cut_u_stereo_44KHz.wav
2	168	4	4	2	I	1	0	865	0	Ⴡ	cut_a_stereo_44KHz.wav
2	169	3	3	2	I	1	0	979	1	Ⴇ	cut_o_stereo_44KHz.wav
2	170	1	2	0	C	1	1	1137	1	Ⴁ	cut_k_stereo_44KHz.wav
2	171	2	2	1	C	2	1	1545	1	Ⴜ	cut_k_stereo_44KHz.wav
2	172	4	4	2	I	1	0	1063	0	Ⴡ	cut_a_stereo_44KHz.wav
2	173	1	1	1	C	2	1	995	1	Ⴁ	cut_u_stereo_44KHz.wav
2	174	4	3	2	I	2	0	925	0	Ⴡ	cut_o_stereo_44KHz.wav
2	175	3	4	2	I	1	0	875	0	Ⴇ	cut_a_stereo_44KHz.wav
2	176	2	1	0	C	1	1	1421	1	Ⴜ	cut_u_stereo_44KHz.wav
2	177	3	4	2	I	1	0	1126	1	Ⴇ	cut_a_stereo_44KHz.wav
2	178	4	3	2	I	1	0	1004	1	Ⴡ	cut_o_stereo_44KHz.wav
2	179	1	1	1	C	2	1	1433	1	Ⴁ	cut_u_stereo_44KHz.wav
2	180	2	2	1	C	2	1	1315	1	Ⴜ	cut_k_stereo_44KHz.wav
2	181	1	2	0	C	1	1	1284	1	Ⴁ	cut_k_stereo_44KHz.wav
2	182	2	1	0	C	1	1	841	1	Ⴜ	cut_u_stereo_44KHz.wav
2	183	4	4	2	I	1	0	739	0	Ⴡ	cut_a_stereo_44KHz.wav
2	184	3	3	2	I	1	0	880	0	Ⴇ	cut_o_stereo_44KHz.wav
2	185	1	2	0	C	1	1	989	1	Ⴁ	cut_k_stereo_44KHz.wav
2	186	2	2	1	C	2	1	1060	1	Ⴜ	cut_k_stereo_44KHz.wav
2	187	4	3	2	I	2	0	927	1	Ⴡ	cut_o_stereo_44KHz.wav
2	188	3	3	2	I	1	0	784	1	Ⴇ	cut_o_stereo_44KHz.wav
2	189	2	1	0	C	1	1	1173	1	Ⴜ	cut_u_stereo_44KHz.wav
2	190	3	4	2	I	2	0	1979	0	Ⴇ	cut_a_stereo_44KHz.wav
2	191	1	1	1	C	2	1	1434	1	Ⴁ	cut_u_stereo_44KHz.wav
2	192	4	4	2	I	2	0	829	0	Ⴡ	cut_a_stereo_44KHz.wav
2	193	3	3	2	I	1	0	844	1	Ⴇ	cut_o_stereo_44KHz.wav
2	194	1	1	1	C	2	1	1820	1	Ⴁ	cut_u_stereo_44KHz.wav
2	195	2	1	0	C	1	1	1237	1	Ⴜ	cut_u_stereo_44KHz.wav
2	196	4	3	2	I	2	0	1240	1	Ⴡ	cut_o_stereo_44KHz.wav
2	197	1	2	0	C	1	1	1061	1	Ⴁ	cut_k_stereo_44KHz.wav
2	198	4	4	2	I	1	0	1262	1	Ⴡ	cut_a_stereo_44KHz.wav
2	199	2	2	1	C	2	1	1449	1	Ⴜ	cut_k_stereo_44KHz.wav
2	200	3	4	2	I	2	0	1190	0	Ⴇ	cut_a_stereo_44KHz.wav
3	1	2	2	1	C	0	0	0	0	Ⴂ	cut_l_stereo_44KHz.wav
3	2	4	4	2	I	0	0	0	0	Ⴃ	cut_g_stereo_44KHz.wav
3	3	3	3	2	I	0	0	0	0	Ⴟ	cut_w_stereo_44KHz.wav
3	4	1	2	0	C	1	1	642	1	Ⴊ	cut_l_stereo_44KHz.wav
3	5	3	4	2	I	1	0	721	1	Ⴟ	cut_g_stereo_44KHz.wav
3	6	4	3	2	I	2	0	793	0	Ⴃ	cut_w_stereo_44KHz.wav
3	7	1	1	1	C	2	1	1090	1	Ⴊ	cut_h_stereo_44KHz.wav
3	8	2	1	0	C	1	1	1271	1	Ⴂ	cut_h_stereo_44KHz.wav
3	9	4	3	2	I	1	0	1037	0	Ⴃ	cut_w_stereo_44KHz.wav
3	10	2	2	1	C	1	0	898	0	Ⴂ	cut_l_stereo_44KHz.wav
3	11	3	3	2	I	1	0	1117	1	Ⴟ	cut_w_stereo_44KHz.wav
3	12	1	1	1	C	2	1	1132	1	Ⴊ	cut_h_stereo_44KHz.wav
3	13	2	1	0	C	1	1	1020	1	Ⴂ	cut_h_stereo_44KHz.wav
3	14	3	4	2	I	2	0	1094	0	Ⴟ	cut_g_stereo_44KHz.wav
3	15	1	2	0	C	1	1	977	1	Ⴊ	cut_l_stereo_44KHz.wav
3	16	4	4	2	I	2	0	1375	1	Ⴃ	cut_g_stereo_44KHz.wav
3	17	3	3	2	I	1	0	734	0	Ⴟ	cut_w_stereo_44KHz.wav
3	18	1	2	0	C	1	1	795	1	Ⴊ	cut_l_stereo_44KHz.wav
3	19	2	1	0	C	1	1	1262	1	Ⴂ	cut_h_stereo_44KHz.wav
3	20	4	3	2	I	1	0	1302	0	Ⴃ	cut_w_stereo_44KHz.wav
3	21	1	1	1	C	2	1	1260	1	Ⴊ	cut_h_stereo_44KHz.wav
3	22	3	4	2	I	2	0	1266	0	Ⴟ	cut_g_stereo_44KHz.wav
3	23	2	2	1	C	2	1	1026	1	Ⴂ	cut_l_stereo_44KHz.wav
3	24	4	4	2	I	2	0	899	1	Ⴃ	cut_g_stereo_44KHz.wav
3	25	3	3	2	I	1	0	738	1	Ⴟ	cut_w_stereo_44KHz.wav
3	26	2	2	1	C	2	1	1010	1	Ⴂ	cut_l_stereo_44KHz.wav
3	27	1	1	1	C	2	1	950	1	Ⴊ	cut_h_stereo_44KHz.wav
3	28	4	4	2	I	2	0	883	0	Ⴃ	cut_g_stereo_44KHz.wav
3	29	2	1	0	C	1	1	1554	1	Ⴂ	cut_h_stereo_44KHz.wav
3	30	3	4	2	I	2	0	748	1	Ⴟ	cut_g_stereo_44KHz.wav
3	31	4	3	2	I	2	0	867	0	Ⴃ	cut_w_stereo_44KHz.wav
3	32	1	2	0	C	1	1	943	1	Ⴊ	cut_l_stereo_44KHz.wav
3	33	3	3	2	I	1	0	666	0	Ⴟ	cut_w_stereo_44KHz.wav
3	34	1	1	1	C	2	1	769	1	Ⴊ	cut_h_stereo_44KHz.wav
3	35	2	2	1	C	1	0	1498	0	Ⴂ	cut_l_stereo_44KHz.wav
3	36	4	3	2	I	1	0	1338	0	Ⴃ	cut_w_stereo_44KHz.wav
3	37	2	1	0	C	1	1	1060	1	Ⴂ	cut_h_stereo_44KHz.wav
3	38	1	2	0	C	1	1	618	1	Ⴊ	cut_l_stereo_44KHz.wav
3	39	3	4	2	I	2	0	909	0	Ⴟ	cut_g_stereo_44KHz.wav
3	40	4	4	2	I	1	0	1008	1	Ⴃ	cut_g_stereo_44KHz.wav
3	41	3	4	2	I	2	0	784	1	Ⴟ	cut_g_stereo_44KHz.wav
3	42	2	1	0	C	1	1	652	1	Ⴂ	cut_h_stereo_44KHz.wav
3	43	4	4	2	I	1	0	1002	1	Ⴃ	cut_g_stereo_44KHz.wav
3	44	1	2	0	C	1	1	708	1	Ⴊ	cut_l_stereo_44KHz.wav
3	45	2	2	1	C	2	1	852	1	Ⴂ	cut_l_stereo_44KHz.wav
3	46	4	3	2	I	2	0	935	1	Ⴃ	cut_w_stereo_44KHz.wav
3	47	1	1	1	C	2	1	1003	1	Ⴊ	cut_h_stereo_44KHz.wav
3	48	3	3	2	I	1	0	793	0	Ⴟ	cut_w_stereo_44KHz.wav
3	49	2	2	1	C	2	1	971	1	Ⴂ	cut_l_stereo_44KHz.wav
3	50	3	4	2	I	2	0	1173	1	Ⴟ	cut_g_stereo_44KHz.wav
3	51	4	4	2	I	1	0	915	0	Ⴃ	cut_g_stereo_44KHz.wav
3	52	1	2	0	C	1	1	886	1	Ⴊ	cut_l_stereo_44KHz.wav
3	53	4	3	2	I	2	0	846	0	Ⴃ	cut_w_stereo_44KHz.wav
3	54	1	1	1	C	2	1	832	1	Ⴊ	cut_h_stereo_44KHz.wav
3	55	2	1	0	C	1	1	1558	1	Ⴂ	cut_h_stereo_44KHz.wav
3	56	3	3	2	I	1	0	910	1	Ⴟ	cut_w_stereo_44KHz.wav
3	57	2	1	0	C	1	1	1147	1	Ⴂ	cut_h_stereo_44KHz.wav
3	58	3	3	2	I	1	0	1086	1	Ⴟ	cut_w_stereo_44KHz.wav
3	59	4	4	2	I	1	0	887	1	Ⴃ	cut_g_stereo_44KHz.wav
3	60	1	1	1	C	1	0	962	0	Ⴊ	cut_h_stereo_44KHz.wav
3	61	4	3	2	I	2	0	1000	0	Ⴃ	cut_w_stereo_44KHz.wav
3	62	3	4	2	I	2	0	1166	1	Ⴟ	cut_g_stereo_44KHz.wav
3	63	2	2	1	C	2	1	1519	1	Ⴂ	cut_l_stereo_44KHz.wav
3	64	1	2	0	C	1	1	832	1	Ⴊ	cut_l_stereo_44KHz.wav
3	65	2	1	0	C	1	1	1014	1	Ⴂ	cut_h_stereo_44KHz.wav
3	66	4	4	2	I	1	0	989	1	Ⴃ	cut_g_stereo_44KHz.wav
3	67	3	3	2	I	1	0	723	0	Ⴟ	cut_w_stereo_44KHz.wav
3	68	1	2	0	C	1	1	1880	1	Ⴊ	cut_l_stereo_44KHz.wav
3	69	4	3	2	I	2	0	1090	1	Ⴃ	cut_w_stereo_44KHz.wav
3	70	2	2	1	C	1	0	823	0	Ⴂ	cut_l_stereo_44KHz.wav
3	71	3	4	2	I	2	0	936	1	Ⴟ	cut_g_stereo_44KHz.wav
3	72	1	1	1	C	2	1	1205	1	Ⴊ	cut_h_stereo_44KHz.wav
3	73	4	3	2	I	2	0	1688	1	Ⴃ	cut_w_stereo_44KHz.wav
3	74	2	2	1	C	2	1	993	1	Ⴂ	cut_l_stereo_44KHz.wav
3	75	1	2	0	C	1	1	904	1	Ⴊ	cut_l_stereo_44KHz.wav
3	76	3	3	2	I	1	0	750	1	Ⴟ	cut_w_stereo_44KHz.wav
3	77	1	1	1	C	2	1	1047	1	Ⴊ	cut_h_stereo_44KHz.wav
3	78	3	4	2	I	2	0	1023	1	Ⴟ	cut_g_stereo_44KHz.wav
3	79	4	4	2	I	1	0	1139	1	Ⴃ	cut_g_stereo_44KHz.wav
3	80	2	1	0	C	1	1	1017	1	Ⴂ	cut_h_stereo_44KHz.wav
3	81	4	3	2	I	2	0	786	0	Ⴃ	cut_w_stereo_44KHz.wav
3	82	2	2	1	C	2	1	1676	1	Ⴂ	cut_l_stereo_44KHz.wav
3	83	3	3	2	I	1	0	733	1	Ⴟ	cut_w_stereo_44KHz.wav
3	84	1	1	1	C	2	1	1181	1	Ⴊ	cut_h_stereo_44KHz.wav
3	85	4	4	2	I	1	0	954	0	Ⴃ	cut_g_stereo_44KHz.wav
3	86	1	2	0	C	1	1	1312	1	Ⴊ	cut_l_stereo_44KHz.wav
3	87	2	1	0	C	1	1	819	1	Ⴂ	cut_h_stereo_44KHz.wav
3	88	3	4	2	I	2	0	1390	0	Ⴟ	cut_g_stereo_44KHz.wav
3	89	1	1	1	C	2	1	1344	1	Ⴊ	cut_h_stereo_44KHz.wav
3	90	4	4	2	I	1	0	853	0	Ⴃ	cut_g_stereo_44KHz.wav
3	91	3	4	2	I	2	0	1376	1	Ⴟ	cut_g_stereo_44KHz.wav
3	92	2	1	0	C	1	1	893	1	Ⴂ	cut_h_stereo_44KHz.wav
3	93	3	3	2	I	1	0	768	1	Ⴟ	cut_w_stereo_44KHz.wav
3	94	4	3	2	I	2	0	834	0	Ⴃ	cut_w_stereo_44KHz.wav
3	95	1	2	0	C	1	1	964	1	Ⴊ	cut_l_stereo_44KHz.wav
3	96	2	2	1	C	2	1	1218	1	Ⴂ	cut_l_stereo_44KHz.wav
3	97	1	2	0	C	1	1	1425	1	Ⴊ	cut_l_stereo_44KHz.wav
3	98	4	4	2	I	1	0	1223	1	Ⴃ	cut_g_stereo_44KHz.wav
3	99	3	3	2	I	1	0	1026	1	Ⴟ	cut_w_stereo_44KHz.wav
3	100	2	1	0	C	0	0	0	0	Ⴂ	cut_h_stereo_44KHz.wav
3	101	1	1	1	C	2	1	1375	1	Ⴊ	cut_h_stereo_44KHz.wav
3	102	3	4	2	I	2	0	955	0	Ⴟ	cut_g_stereo_44KHz.wav
3	103	4	3	2	I	1	0	1211	0	Ⴃ	cut_w_stereo_44KHz.wav
3	104	2	2	1	C	1	0	1331	0	Ⴂ	cut_l_stereo_44KHz.wav
3	105	4	3	2	I	1	0	925	1	Ⴃ	cut_w_stereo_44KHz.wav
3	106	3	4	2	I	1	0	956	1	Ⴟ	cut_g_stereo_44KHz.wav
3	107	2	1	0	C	1	1	1115	1	Ⴂ	cut_h_stereo_44KHz.wav
3	108	1	1	1	C	2	1	787	1	Ⴊ	cut_h_stereo_44KHz.wav
3	109	4	4	2	I	1	0	1029	1	Ⴃ	cut_g_stereo_44KHz.wav
3	110	3	3	2	I	1	0	510	1	Ⴟ	cut_w_stereo_44KHz.wav
3	111	2	2	1	C	2	1	1191	1	Ⴂ	cut_l_stereo_44KHz.wav
3	112	1	2	0	C	1	1	1168	1	Ⴊ	cut_l_stereo_44KHz.wav
3	113	4	3	2	I	1	0	797	0	Ⴃ	cut_w_stereo_44KHz.wav
3	114	1	2	0	C	1	1	1558	1	Ⴊ	cut_l_stereo_44KHz.wav
3	115	3	3	2	I	1	0	472	0	Ⴟ	cut_w_stereo_44KHz.wav
3	116	2	2	1	C	1	0	1035	0	Ⴂ	cut_l_stereo_44KHz.wav
3	117	1	1	1	C	1	0	671	0	Ⴊ	cut_h_stereo_44KHz.wav
3	118	4	4	2	I	1	0	806	1	Ⴃ	cut_g_stereo_44KHz.wav
3	119	3	4	2	I	2	0	923	0	Ⴟ	cut_g_stereo_44KHz.wav
3	120	2	1	0	C	1	1	947	1	Ⴂ	cut_h_stereo_44KHz.wav
3	121	4	4	2	I	1	0	924	1	Ⴃ	cut_g_stereo_44KHz.wav
3	122	3	3	2	I	1	0	764	0	Ⴟ	cut_w_stereo_44KHz.wav
3	123	1	2	0	C	1	1	1403	1	Ⴊ	cut_l_stereo_44KHz.wav
3	124	2	1	0	C	1	1	707	1	Ⴂ	cut_h_stereo_44KHz.wav
3	125	1	1	1	C	2	1	1384	1	Ⴊ	cut_h_stereo_44KHz.wav
3	126	3	4	2	I	2	0	1094	0	Ⴟ	cut_g_stereo_44KHz.wav
3	127	2	2	1	C	2	1	1297	1	Ⴂ	cut_l_stereo_44KHz.wav
3	128	4	3	2	I	1	0	1245	0	Ⴃ	cut_w_stereo_44KHz.wav
3	129	2	2	1	C	2	1	1051	1	Ⴂ	cut_l_stereo_44KHz.wav
3	130	4	4	2	I	1	0	878	0	Ⴃ	cut_g_stereo_44KHz.wav
3	131	1	1	1	C	2	1	1191	1	Ⴊ	cut_h_stereo_44KHz.wav
3	132	3	4	2	I	2	0	1004	1	Ⴟ	cut_g_stereo_44KHz.wav
3	133	2	1	0	C	1	1	687	1	Ⴂ	cut_h_stereo_44KHz.wav
3	134	3	3	2	I	1	0	817	0	Ⴟ	cut_w_stereo_44KHz.wav
3	135	4	3	2	I	2	0	1470	0	Ⴃ	cut_w_stereo_44KHz.wav
3	136	1	2	0	C	1	1	1099	1	Ⴊ	cut_l_stereo_44KHz.wav
3	137	2	1	0	C	1	1	760	1	Ⴂ	cut_h_stereo_44KHz.wav
3	138	1	2	0	C	1	1	1112	1	Ⴊ	cut_l_stereo_44KHz.wav
3	139	3	4	2	I	2	0	1026	1	Ⴟ	cut_g_stereo_44KHz.wav
3	140	4	3	2	I	2	0	881	0	Ⴃ	cut_w_stereo_44KHz.wav
3	141	3	3	2	I	1	0	739	0	Ⴟ	cut_w_stereo_44KHz.wav
3	142	2	2	1	C	1	0	796	0	Ⴂ	cut_l_stereo_44KHz.wav
3	143	4	4	2	I	1	0	835	0	Ⴃ	cut_g_stereo_44KHz.wav
3	144	1	1	1	C	2	1	1244	1	Ⴊ	cut_h_stereo_44KHz.wav
3	145	2	1	0	C	1	1	934	1	Ⴂ	cut_h_stereo_44KHz.wav
3	146	1	1	1	C	2	1	926	1	Ⴊ	cut_h_stereo_44KHz.wav
3	147	3	3	2	I	1	0	992	0	Ⴟ	cut_w_stereo_44KHz.wav
3	148	4	3	2	I	1	0	866	1	Ⴃ	cut_w_stereo_44KHz.wav
3	149	2	2	1	C	2	1	836	1	Ⴂ	cut_l_stereo_44KHz.wav
3	150	3	4	2	I	2	0	1026	0	Ⴟ	cut_g_stereo_44KHz.wav
3	151	4	4	2	I	1	0	911	1	Ⴃ	cut_g_stereo_44KHz.wav
3	152	1	2	0	C	2	0	1145	0	Ⴊ	cut_l_stereo_44KHz.wav
3	153	2	2	1	C	2	1	850	1	Ⴂ	cut_l_stereo_44KHz.wav
3	154	4	4	2	I	1	0	935	0	Ⴃ	cut_g_stereo_44KHz.wav
3	155	1	2	0	C	2	0	831	0	Ⴊ	cut_l_stereo_44KHz.wav
3	156	3	4	2	I	2	0	1031	1	Ⴟ	cut_g_stereo_44KHz.wav
3	157	1	1	1	C	1	0	874	0	Ⴊ	cut_h_stereo_44KHz.wav
3	158	4	3	2	I	1	0	830	1	Ⴃ	cut_w_stereo_44KHz.wav
3	159	2	1	0	C	1	1	1391	1	Ⴂ	cut_h_stereo_44KHz.wav
3	160	3	3	2	I	2	0	1050	1	Ⴟ	cut_w_stereo_44KHz.wav
3	161	2	2	1	C	2	1	991	1	Ⴂ	cut_l_stereo_44KHz.wav
3	162	3	3	2	I	2	0	1191	0	Ⴟ	cut_w_stereo_44KHz.wav
3	163	4	4	2	I	2	0	860	1	Ⴃ	cut_g_stereo_44KHz.wav
3	164	1	2	0	C	1	1	1027	1	Ⴊ	cut_l_stereo_44KHz.wav
3	165	2	1	0	C	1	1	835	1	Ⴂ	cut_h_stereo_44KHz.wav
3	166	3	4	2	I	2	0	1098	0	Ⴟ	cut_g_stereo_44KHz.wav
3	167	1	1	1	C	2	1	1271	1	Ⴊ	cut_h_stereo_44KHz.wav
3	168	4	3	2	I	2	0	555	1	Ⴃ	cut_w_stereo_44KHz.wav
3	169	3	3	2	I	1	0	845	0	Ⴟ	cut_w_stereo_44KHz.wav
3	170	4	4	2	I	1	0	605	0	Ⴃ	cut_g_stereo_44KHz.wav
3	171	2	2	1	C	2	1	974	1	Ⴂ	cut_l_stereo_44KHz.wav
3	172	1	1	1	C	2	1	1190	1	Ⴊ	cut_h_stereo_44KHz.wav
3	173	3	4	2	I	1	0	998	0	Ⴟ	cut_g_stereo_44KHz.wav
3	174	4	3	2	I	1	0	1252	1	Ⴃ	cut_w_stereo_44KHz.wav
3	175	1	2	0	C	1	1	1417	1	Ⴊ	cut_l_stereo_44KHz.wav
3	176	2	1	0	C	1	1	1258	1	Ⴂ	cut_h_stereo_44KHz.wav
3	177	4	4	2	I	1	0	938	0	Ⴃ	cut_g_stereo_44KHz.wav
3	178	3	4	2	I	1	0	610	0	Ⴟ	cut_g_stereo_44KHz.wav
3	179	2	1	0	C	1	1	737	1	Ⴂ	cut_h_stereo_44KHz.wav
3	180	1	1	1	C	2	1	969	1	Ⴊ	cut_h_stereo_44KHz.wav
3	181	2	2	1	C	2	1	1005	1	Ⴂ	cut_l_stereo_44KHz.wav
3	182	1	2	0	C	1	1	1623	1	Ⴊ	cut_l_stereo_44KHz.wav
3	183	3	3	2	I	1	0	772	0	Ⴟ	cut_w_stereo_44KHz.wav
3	184	4	3	2	I	2	0	618	1	Ⴃ	cut_w_stereo_44KHz.wav
3	185	3	3	2	I	1	0	1078	1	Ⴟ	cut_w_stereo_44KHz.wav
3	186	2	1	0	C	1	1	1341	1	Ⴂ	cut_h_stereo_44KHz.wav
3	187	4	4	2	I	1	0	504	1	Ⴃ	cut_g_stereo_44KHz.wav
3	188	1	2	0	C	1	1	1091	1	Ⴊ	cut_l_stereo_44KHz.wav
3	189	3	4	2	I	2	0	1241	1	Ⴟ	cut_g_stereo_44KHz.wav
3	190	4	3	2	I	1	0	953	1	Ⴃ	cut_w_stereo_44KHz.wav
3	191	1	1	1	C	2	1	1405	1	Ⴊ	cut_h_stereo_44KHz.wav
3	192	2	2	1	C	1	0	685	0	Ⴂ	cut_l_stereo_44KHz.wav
3	193	1	1	1	C	2	1	1337	1	Ⴊ	cut_h_stereo_44KHz.wav
3	194	3	4	2	I	1	0	875	0	Ⴟ	cut_g_stereo_44KHz.wav
3	195	4	3	2	I	2	0	1116	0	Ⴃ	cut_w_stereo_44KHz.wav
3	196	2	2	1	C	1	0	846	0	Ⴂ	cut_l_stereo_44KHz.wav
3	197	3	3	2	I	1	0	817	1	Ⴟ	cut_w_stereo_44KHz.wav
3	198	4	4	2	I	1	0	784	1	Ⴃ	cut_g_stereo_44KHz.wav
3	199	2	1	0	C	1	1	926	1	Ⴂ	cut_h_stereo_44KHz.wav
3	200	1	2	0	C	1	1	1010	1	Ⴊ	cut_l_stereo_44KHz.wav
4	1	4	3	2	I	1	0	1551	0	Ⴕ	cut_ui_stereo_44KHz.wav
4	2	3	4	2	I	1	0	1293	0	Ⴏ	cut_j_stereo_44KHz.wav
4	3	1	1	1	C	1	0	849	0	Ⴉ	cut_ei_stereo_44KHz.wav
4	4	2	2	1	C	2	1	1040	1	Ⴖ	cut_s_stereo_44KHz.wav
4	5	1	2	0	C	1	1	1038	1	Ⴉ	cut_s_stereo_44KHz.wav
4	6	4	4	2	I	2	0	1646	1	Ⴕ	cut_j_stereo_44KHz.wav
4	7	3	3	2	I	1	0	1190	0	Ⴏ	cut_ui_stereo_44KHz.wav
4	8	2	1	0	C	1	1	795	1	Ⴖ	cut_ei_stereo_44KHz.wav
4	9	4	3	2	I	2	0	996	1	Ⴕ	cut_ui_stereo_44KHz.wav
4	10	3	3	2	I	1	0	1196	1	Ⴏ	cut_ui_stereo_44KHz.wav
4	11	2	1	0	C	1	1	819	1	Ⴖ	cut_ei_stereo_44KHz.wav
4	12	1	2	0	C	1	1	871	1	Ⴉ	cut_s_stereo_44KHz.wav
4	13	4	4	2	I	1	0	827	0	Ⴕ	cut_j_stereo_44KHz.wav
4	14	3	4	2	I	1	0	847	0	Ⴏ	cut_j_stereo_44KHz.wav
4	15	1	1	1	C	2	1	967	1	Ⴉ	cut_ei_stereo_44KHz.wav
4	16	2	2	1	C	2	1	1086	1	Ⴖ	cut_s_stereo_44KHz.wav
4	17	4	4	2	I	2	0	1116	0	Ⴕ	cut_j_stereo_44KHz.wav
4	18	3	3	2	I	1	0	928	0	Ⴏ	cut_ui_stereo_44KHz.wav
4	19	1	2	0	C	1	1	1001	1	Ⴉ	cut_s_stereo_44KHz.wav
4	20	2	2	1	C	2	1	842	1	Ⴖ	cut_s_stereo_44KHz.wav
4	21	1	1	1	C	2	1	1040	1	Ⴉ	cut_ei_stereo_44KHz.wav
4	22	3	4	2	I	2	0	1232	0	Ⴏ	cut_j_stereo_44KHz.wav
4	23	2	1	0	C	1	1	799	1	Ⴖ	cut_ei_stereo_44KHz.wav
4	24	4	3	2	I	1	0	837	0	Ⴕ	cut_ui_stereo_44KHz.wav
4	25	2	1	0	C	1	1	697	1	Ⴖ	cut_ei_stereo_44KHz.wav
4	26	3	3	2	I	1	0	748	0	Ⴏ	cut_ui_stereo_44KHz.wav
4	27	1	2	0	C	2	0	812	0	Ⴉ	cut_s_stereo_44KHz.wav
4	28	4	4	2	I	1	0	813	0	Ⴕ	cut_j_stereo_44KHz.wav
4	29	3	4	2	I	2	0	809	1	Ⴏ	cut_j_stereo_44KHz.wav
4	30	2	2	1	C	2	1	859	1	Ⴖ	cut_s_stereo_44KHz.wav
4	31	1	1	1	C	2	1	924	1	Ⴉ	cut_ei_stereo_44KHz.wav
4	32	4	3	2	I	2	0	1481	1	Ⴕ	cut_ui_stereo_44KHz.wav
4	33	2	2	1	C	2	1	677	1	Ⴖ	cut_s_stereo_44KHz.wav
4	34	3	4	2	I	2	0	1375	0	Ⴏ	cut_j_stereo_44KHz.wav
4	35	4	4	2	I	2	0	986	0	Ⴕ	cut_j_stereo_44KHz.wav
4	36	1	1	1	C	2	1	1313	1	Ⴉ	cut_ei_stereo_44KHz.wav
4	37	4	3	2	I	1	0	916	0	Ⴕ	cut_ui_stereo_44KHz.wav
4	38	1	2	0	C	2	0	1175	0	Ⴉ	cut_s_stereo_44KHz.wav
4	39	2	1	0	C	1	1	820	1	Ⴖ	cut_ei_stereo_44KHz.wav
4	40	3	3	2	I	1	0	1237	1	Ⴏ	cut_ui_stereo_44KHz.wav
4	41	4	4	2	I	1	0	1049	0	Ⴕ	cut_j_stereo_44KHz.wav
4	42	2	2	1	C	2	1	906	1	Ⴖ	cut_s_stereo_44KHz.wav
4	43	1	1	1	C	2	1	824	1	Ⴉ	cut_ei_stereo_44KHz.wav
4	44	3	3	2	I	1	0	1362	1	Ⴏ	cut_ui_stereo_44KHz.wav
4	45	4	3	2	I	2	0	1373	1	Ⴕ	cut_ui_stereo_44KHz.wav
4	46	3	4	2	I	2	0	1162	0	Ⴏ	cut_j_stereo_44KHz.wav
4	47	1	2	0	C	1	1	1195	1	Ⴉ	cut_s_stereo_44KHz.wav
4	48	2	1	0	C	1	1	649	1	Ⴖ	cut_ei_stereo_44KHz.wav
4	49	1	2	0	C	1	1	1209	1	Ⴉ	cut_s_stereo_44KHz.wav
4	50	4	4	2	I	1	0	1186	0	Ⴕ	cut_j_stereo_44KHz.wav
4	51	2	2	1	C	2	1	836	1	Ⴖ	cut_s_stereo_44KHz.wav
4	52	3	4	2	I	2	0	820	0	Ⴏ	cut_j_stereo_44KHz.wav
4	53	2	1	0	C	1	1	813	1	Ⴖ	cut_ei_stereo_44KHz.wav
4	54	1	1	1	C	2	1	757	1	Ⴉ	cut_ei_stereo_44KHz.wav
4	55	4	3	2	I	2	0	991	0	Ⴕ	cut_ui_stereo_44KHz.wav
4	56	3	3	2	I	1	0	920	0	Ⴏ	cut_ui_stereo_44KHz.wav
4	57	4	4	2	I	1	0	1133	0	Ⴕ	cut_j_stereo_44KHz.wav
4	58	3	4	2	I	1	0	858	0	Ⴏ	cut_j_stereo_44KHz.wav
4	59	1	1	1	C	2	1	1042	1	Ⴉ	cut_ei_stereo_44KHz.wav
4	60	2	2	1	C	2	1	930	1	Ⴖ	cut_s_stereo_44KHz.wav
4	61	1	2	0	C	1	1	1420	1	Ⴉ	cut_s_stereo_44KHz.wav
4	62	2	1	0	C	1	1	830	1	Ⴖ	cut_ei_stereo_44KHz.wav
4	63	3	3	2	I	1	0	1116	0	Ⴏ	cut_ui_stereo_44KHz.wav
4	64	4	3	2	I	1	0	697	1	Ⴕ	cut_ui_stereo_44KHz.wav
4	65	1	1	1	C	2	1	1178	1	Ⴉ	cut_ei_stereo_44KHz.wav
4	66	2	2	1	C	2	1	1079	1	Ⴖ	cut_s_stereo_44KHz.wav
4	67	4	4	2	I	1	0	1458	0	Ⴕ	cut_j_stereo_44KHz.wav
4	68	3	4	2	I	1	0	836	0	Ⴏ	cut_j_stereo_44KHz.wav
4	69	1	2	0	C	2	0	1859	0	Ⴉ	cut_s_stereo_44KHz.wav
4	70	4	3	2	I	1	0	941	1	Ⴕ	cut_ui_stereo_44KHz.wav
4	71	2	1	0	C	1	1	1825	1	Ⴖ	cut_ei_stereo_44KHz.wav
4	72	3	3	2	I	1	0	803	1	Ⴏ	cut_ui_stereo_44KHz.wav
4	73	4	4	2	I	1	0	1190	1	Ⴕ	cut_j_stereo_44KHz.wav
4	74	2	2	1	C	2	1	934	1	Ⴖ	cut_s_stereo_44KHz.wav
4	75	1	2	0	C	1	1	1137	1	Ⴉ	cut_s_stereo_44KHz.wav
4	76	3	3	2	I	1	0	862	1	Ⴏ	cut_ui_stereo_44KHz.wav
4	77	1	1	1	C	2	1	1368	1	Ⴉ	cut_ei_stereo_44KHz.wav
4	78	2	1	0	C	1	1	904	1	Ⴖ	cut_ei_stereo_44KHz.wav
4	79	3	4	2	I	1	0	875	1	Ⴏ	cut_j_stereo_44KHz.wav
4	80	4	3	2	I	1	0	743	0	Ⴕ	cut_ui_stereo_44KHz.wav
4	81	1	2	0	C	1	1	1180	1	Ⴉ	cut_s_stereo_44KHz.wav
4	82	3	4	2	I	1	0	1244	1	Ⴏ	cut_j_stereo_44KHz.wav
4	83	4	3	2	I	1	0	900	1	Ⴕ	cut_ui_stereo_44KHz.wav
4	84	2	1	0	C	1	1	693	1	Ⴖ	cut_ei_stereo_44KHz.wav
4	85	4	4	2	I	1	0	1055	0	Ⴕ	cut_j_stereo_44KHz.wav
4	86	2	2	1	C	2	1	915	1	Ⴖ	cut_s_stereo_44KHz.wav
4	87	3	3	2	I	1	0	1211	1	Ⴏ	cut_ui_stereo_44KHz.wav
4	88	1	1	1	C	2	1	1048	1	Ⴉ	cut_ei_stereo_44KHz.wav
4	89	2	1	0	C	1	1	879	1	Ⴖ	cut_ei_stereo_44KHz.wav
4	90	3	4	2	I	2	0	1444	0	Ⴏ	cut_j_stereo_44KHz.wav
4	91	1	1	1	C	2	1	950	1	Ⴉ	cut_ei_stereo_44KHz.wav
4	92	4	4	2	I	1	0	987	1	Ⴕ	cut_j_stereo_44KHz.wav
4	93	1	2	0	C	1	1	1150	1	Ⴉ	cut_s_stereo_44KHz.wav
4	94	2	2	1	C	2	1	800	1	Ⴖ	cut_s_stereo_44KHz.wav
4	95	4	3	2	I	1	0	1006	1	Ⴕ	cut_ui_stereo_44KHz.wav
4	96	3	3	2	I	2	0	647	0	Ⴏ	cut_ui_stereo_44KHz.wav
4	97	2	2	1	C	1	0	1827	0	Ⴖ	cut_s_stereo_44KHz.wav
4	98	3	4	2	I	2	0	1211	0	Ⴏ	cut_j_stereo_44KHz.wav
4	99	1	1	1	C	2	1	805	1	Ⴉ	cut_ei_stereo_44KHz.wav
4	100	4	4	2	I	1	0	825	0	Ⴕ	cut_j_stereo_44KHz.wav
4	101	3	3	2	I	1	0	950	0	Ⴏ	cut_ui_stereo_44KHz.wav
4	102	1	2	0	C	1	1	923	1	Ⴉ	cut_s_stereo_44KHz.wav
4	103	2	1	0	C	1	1	711	1	Ⴖ	cut_ei_stereo_44KHz.wav
4	104	4	3	2	I	2	0	1125	1	Ⴕ	cut_ui_stereo_44KHz.wav
4	105	3	4	2	I	2	0	1260	1	Ⴏ	cut_j_stereo_44KHz.wav
4	106	4	4	2	I	1	0	1091	0	Ⴕ	cut_j_stereo_44KHz.wav
4	107	2	1	0	C	1	1	922	1	Ⴖ	cut_ei_stereo_44KHz.wav
4	108	1	1	1	C	2	1	743	1	Ⴉ	cut_ei_stereo_44KHz.wav
4	109	2	2	1	C	2	1	1848	1	Ⴖ	cut_s_stereo_44KHz.wav
4	110	3	3	2	I	1	0	946	0	Ⴏ	cut_ui_stereo_44KHz.wav
4	111	1	2	0	C	1	1	1159	1	Ⴉ	cut_s_stereo_44KHz.wav
4	112	4	3	2	I	1	0	732	1	Ⴕ	cut_ui_stereo_44KHz.wav
4	113	2	2	1	C	2	1	890	1	Ⴖ	cut_s_stereo_44KHz.wav
4	114	4	4	2	I	1	0	925	1	Ⴕ	cut_j_stereo_44KHz.wav
4	115	1	2	0	C	2	0	750	0	Ⴉ	cut_s_stereo_44KHz.wav
4	116	3	4	2	I	1	0	1291	0	Ⴏ	cut_j_stereo_44KHz.wav
4	117	1	1	1	C	1	0	1188	0	Ⴉ	cut_ei_stereo_44KHz.wav
4	118	4	3	2	I	1	0	988	0	Ⴕ	cut_ui_stereo_44KHz.wav
4	119	3	3	2	I	1	0	905	1	Ⴏ	cut_ui_stereo_44KHz.wav
4	120	2	1	0	C	1	1	819	1	Ⴖ	cut_ei_stereo_44KHz.wav
4	121	1	1	1	C	2	1	747	1	Ⴉ	cut_ei_stereo_44KHz.wav
4	122	2	1	0	C	1	1	1376	1	Ⴖ	cut_ei_stereo_44KHz.wav
4	123	3	4	2	I	1	0	975	0	Ⴏ	cut_j_stereo_44KHz.wav
4	124	4	4	2	I	1	0	838	0	Ⴕ	cut_j_stereo_44KHz.wav
4	125	1	2	0	C	1	1	969	1	Ⴉ	cut_s_stereo_44KHz.wav
4	126	4	3	2	I	2	0	1275	1	Ⴕ	cut_ui_stereo_44KHz.wav
4	127	2	2	1	C	2	1	1032	1	Ⴖ	cut_s_stereo_44KHz.wav
4	128	3	3	2	I	1	0	810	0	Ⴏ	cut_ui_stereo_44KHz.wav
4	129	1	2	0	C	1	1	1454	1	Ⴉ	cut_s_stereo_44KHz.wav
4	130	4	3	2	I	1	0	718	0	Ⴕ	cut_ui_stereo_44KHz.wav
4	131	3	4	2	I	1	0	855	0	Ⴏ	cut_j_stereo_44KHz.wav
4	132	2	1	0	C	1	1	633	1	Ⴖ	cut_ei_stereo_44KHz.wav
4	133	3	3	2	I	1	0	883	1	Ⴏ	cut_ui_stereo_44KHz.wav
4	134	2	2	1	C	1	0	1105	0	Ⴖ	cut_s_stereo_44KHz.wav
4	135	1	1	1	C	2	1	864	1	Ⴉ	cut_ei_stereo_44KHz.wav
4	136	4	4	2	I	1	0	1172	1	Ⴕ	cut_j_stereo_44KHz.wav
4	137	2	2	1	C	2	1	926	1	Ⴖ	cut_s_stereo_44KHz.wav
4	138	3	4	2	I	1	0	938	1	Ⴏ	cut_j_stereo_44KHz.wav
4	139	1	2	0	C	1	1	1960	1	Ⴉ	cut_s_stereo_44KHz.wav
4	140	4	4	2	I	2	0	1273	0	Ⴕ	cut_j_stereo_44KHz.wav
4	141	1	1	1	C	2	1	906	1	Ⴉ	cut_ei_stereo_44KHz.wav
4	142	3	3	2	I	1	0	707	1	Ⴏ	cut_ui_stereo_44KHz.wav
4	143	4	3	2	I	2	0	1217	1	Ⴕ	cut_ui_stereo_44KHz.wav
4	144	2	1	0	C	1	1	942	1	Ⴖ	cut_ei_stereo_44KHz.wav
4	145	1	2	0	C	1	1	961	1	Ⴉ	cut_s_stereo_44KHz.wav
4	146	3	3	2	I	1	0	891	0	Ⴏ	cut_ui_stereo_44KHz.wav
4	147	4	3	2	I	1	0	589	0	Ⴕ	cut_ui_stereo_44KHz.wav
4	148	2	2	1	C	2	1	723	1	Ⴖ	cut_s_stereo_44KHz.wav
4	149	4	4	2	I	1	0	816	1	Ⴕ	cut_j_stereo_44KHz.wav
4	150	2	1	0	C	1	1	963	1	Ⴖ	cut_ei_stereo_44KHz.wav
4	151	1	1	1	C	2	1	814	1	Ⴉ	cut_ei_stereo_44KHz.wav
4	152	3	4	2	I	2	0	1102	1	Ⴏ	cut_j_stereo_44KHz.wav
4	153	1	2	0	C	0	0	0	0	Ⴉ	cut_s_stereo_44KHz.wav
4	154	3	3	2	I	1	0	1062	1	Ⴏ	cut_ui_stereo_44KHz.wav
4	155	4	4	2	I	1	0	1108	0	Ⴕ	cut_j_stereo_44KHz.wav
4	156	2	1	0	C	1	1	651	1	Ⴖ	cut_ei_stereo_44KHz.wav
4	157	4	3	2	I	1	0	791	1	Ⴕ	cut_ui_stereo_44KHz.wav
4	158	1	1	1	C	2	1	707	1	Ⴉ	cut_ei_stereo_44KHz.wav
4	159	2	2	1	C	2	1	736	1	Ⴖ	cut_s_stereo_44KHz.wav
4	160	3	4	2	I	1	0	795	1	Ⴏ	cut_j_stereo_44KHz.wav
4	161	4	3	2	I	1	0	710	1	Ⴕ	cut_ui_stereo_44KHz.wav
4	162	3	4	2	I	1	0	821	0	Ⴏ	cut_j_stereo_44KHz.wav
4	163	2	1	0	C	1	1	698	1	Ⴖ	cut_ei_stereo_44KHz.wav
4	164	1	1	1	C	2	1	735	1	Ⴉ	cut_ei_stereo_44KHz.wav
4	165	3	3	2	I	1	0	1159	1	Ⴏ	cut_ui_stereo_44KHz.wav
4	166	1	2	0	C	1	1	965	1	Ⴉ	cut_s_stereo_44KHz.wav
4	167	2	2	1	C	2	1	1653	1	Ⴖ	cut_s_stereo_44KHz.wav
4	168	4	4	2	I	1	0	848	1	Ⴕ	cut_j_stereo_44KHz.wav
4	169	3	3	2	I	1	0	750	1	Ⴏ	cut_ui_stereo_44KHz.wav
4	170	4	4	2	I	1	0	1068	0	Ⴕ	cut_j_stereo_44KHz.wav
4	171	2	1	0	C	1	1	915	1	Ⴖ	cut_ei_stereo_44KHz.wav
4	172	1	2	0	C	1	1	1110	1	Ⴉ	cut_s_stereo_44KHz.wav
4	173	2	2	1	C	2	1	1497	1	Ⴖ	cut_s_stereo_44KHz.wav
4	174	3	4	2	I	1	0	826	1	Ⴏ	cut_j_stereo_44KHz.wav
4	175	1	1	1	C	2	1	854	1	Ⴉ	cut_ei_stereo_44KHz.wav
4	176	4	3	2	I	1	0	927	1	Ⴕ	cut_ui_stereo_44KHz.wav
4	177	1	2	0	C	1	1	1197	1	Ⴉ	cut_s_stereo_44KHz.wav
4	178	4	3	2	I	2	0	1143	1	Ⴕ	cut_ui_stereo_44KHz.wav
4	179	2	2	1	C	2	1	891	1	Ⴖ	cut_s_stereo_44KHz.wav
4	180	3	4	2	I	1	0	898	1	Ⴏ	cut_j_stereo_44KHz.wav
4	181	1	1	1	C	2	1	791	1	Ⴉ	cut_ei_stereo_44KHz.wav
4	182	2	1	0	C	1	1	988	1	Ⴖ	cut_ei_stereo_44KHz.wav
4	183	3	3	2	I	1	0	733	1	Ⴏ	cut_ui_stereo_44KHz.wav
4	184	4	4	2	I	1	0	838	1	Ⴕ	cut_j_stereo_44KHz.wav
4	185	3	4	2	I	1	0	1602	0	Ⴏ	cut_j_stereo_44KHz.wav
4	186	4	4	2	I	1	0	739	0	Ⴕ	cut_j_stereo_44KHz.wav
4	187	1	2	0	C	1	1	1115	1	Ⴉ	cut_s_stereo_44KHz.wav
4	188	2	2	1	C	2	1	1486	1	Ⴖ	cut_s_stereo_44KHz.wav
4	189	4	3	2	I	1	0	744	0	Ⴕ	cut_ui_stereo_44KHz.wav
4	190	1	1	1	C	2	1	1558	1	Ⴉ	cut_ei_stereo_44KHz.wav
4	191	2	1	0	C	1	1	969	1	Ⴖ	cut_ei_stereo_44KHz.wav
4	192	3	3	2	I	1	0	298	1	Ⴏ	cut_ui_stereo_44KHz.wav
4	193	4	3	2	I	1	0	1145	1	Ⴕ	cut_ui_stereo_44KHz.wav
4	194	1	1	1	C	2	1	1210	1	Ⴉ	cut_ei_stereo_44KHz.wav
4	195	3	3	2	I	1	0	804	1	Ⴏ	cut_ui_stereo_44KHz.wav
4	196	2	1	0	C	1	1	1019	1	Ⴖ	cut_ei_stereo_44KHz.wav
4	197	3	4	2	I	1	0	1057	1	Ⴏ	cut_j_stereo_44KHz.wav
4	198	1	2	0	C	1	1	1610	1	Ⴉ	cut_s_stereo_44KHz.wav
4	199	2	2	1	C	2	1	961	1	Ⴖ	cut_s_stereo_44KHz.wav
4	200	4	4	2	I	1	0	743	1	Ⴕ	cut_j_stereo_44KHz.wav
