block	trial	Vstim	Astim	match	C/I	resp	result	RT	fb	V-file	A-file
RL

0	1	2	4	0	C	0	0	0	0	Ⴉ	cut_eeuw_stereo_44KHz.wav
0	2	2	3	1	C	1	1	1071	1	Ⴉ	cut_ee_stereo_44KHz.wav
0	3	1	1	1	C	2	0	582	0	Ⴞ	cut_oo_stereo_44KHz.wav
0	4	1	2	0	C	2	1	1107	1	Ⴞ	cut_g_stereo_44KHz.wav
0	5	1	1	1	C	1	1	782	1	Ⴞ	cut_oo_stereo_44KHz.wav
0	6	2	4	0	C	1	0	1384	0	Ⴉ	cut_eeuw_stereo_44KHz.wav
0	7	2	3	1	C	1	1	989	1	Ⴉ	cut_ee_stereo_44KHz.wav
0	8	1	2	0	C	2	1	900	1	Ⴞ	cut_g_stereo_44KHz.wav
0	9	1	1	1	C	1	1	872	1	Ⴞ	cut_oo_stereo_44KHz.wav
0	10	2	4	0	C	2	1	487	1	Ⴉ	cut_eeuw_stereo_44KHz.wav
0	11	2	3	1	C	1	1	705	1	Ⴉ	cut_ee_stereo_44KHz.wav
0	12	1	2	0	C	2	1	818	1	Ⴞ	cut_g_stereo_44KHz.wav
0	13	2	3	1	C	1	1	893	1	Ⴉ	cut_ee_stereo_44KHz.wav
0	14	2	4	0	C	2	1	808	1	Ⴉ	cut_eeuw_stereo_44KHz.wav
0	15	1	2	0	C	2	1	810	1	Ⴞ	cut_g_stereo_44KHz.wav
0	16	1	1	1	C	1	1	831	1	Ⴞ	cut_oo_stereo_44KHz.wav
0	17	2	3	1	C	2	0	403	0	Ⴉ	cut_ee_stereo_44KHz.wav
0	18	1	2	0	C	2	1	536	1	Ⴞ	cut_g_stereo_44KHz.wav
0	19	1	1	1	C	1	1	576	1	Ⴞ	cut_oo_stereo_44KHz.wav
0	20	2	4	0	C	2	1	746	1	Ⴉ	cut_eeuw_stereo_44KHz.wav
0	21	1	1	1	C	1	1	749	1	Ⴞ	cut_oo_stereo_44KHz.wav
0	22	1	2	0	C	2	1	620	1	Ⴞ	cut_g_stereo_44KHz.wav
0	23	2	4	0	C	2	1	614	1	Ⴉ	cut_eeuw_stereo_44KHz.wav
0	24	2	3	1	C	2	0	695	0	Ⴉ	cut_ee_stereo_44KHz.wav
0	25	2	3	1	C	1	1	901	1	Ⴉ	cut_ee_stereo_44KHz.wav
0	26	1	2	0	C	2	1	980	1	Ⴞ	cut_g_stereo_44KHz.wav
0	27	2	4	0	C	2	1	569	1	Ⴉ	cut_eeuw_stereo_44KHz.wav
0	28	1	1	1	C	1	1	866	1	Ⴞ	cut_oo_stereo_44KHz.wav
0	29	2	3	1	C	1	1	843	1	Ⴉ	cut_ee_stereo_44KHz.wav
0	30	1	2	0	C	2	1	641	1	Ⴞ	cut_g_stereo_44KHz.wav
avg_resp = 789
1	1	2	1	0	C	1	0	1213	0	Ⴐ	cut_u_stereo_44KHz.wav
1	2	4	4	2	I	1	0	1263	1	Ⴌ	cut_a_stereo_44KHz.wav
1	3	3	4	2	I	0	0	0	0	Ⴒ	cut_a_stereo_44KHz.wav
1	4	1	2	0	C	2	1	1327	1	Ⴉ	cut_k_stereo_44KHz.wav
1	5	2	2	1	C	1	1	1587	1	Ⴐ	cut_k_stereo_44KHz.wav
1	6	1	1	1	C	1	1	761	1	Ⴉ	cut_u_stereo_44KHz.wav
1	7	4	3	2	I	2	0	952	1	Ⴌ	cut_o_stereo_44KHz.wav
1	8	3	3	2	I	1	0	700	1	Ⴒ	cut_o_stereo_44KHz.wav
1	9	4	3	2	I	1	0	1149	0	Ⴌ	cut_o_stereo_44KHz.wav
1	10	3	4	2	I	1	0	872	0	Ⴒ	cut_a_stereo_44KHz.wav
1	11	2	2	1	C	2	0	1103	0	Ⴐ	cut_k_stereo_44KHz.wav
1	12	1	2	0	C	2	1	1396	1	Ⴉ	cut_k_stereo_44KHz.wav
1	13	4	4	2	I	2	0	1144	1	Ⴌ	cut_a_stereo_44KHz.wav
1	14	1	1	1	C	1	1	850	1	Ⴉ	cut_u_stereo_44KHz.wav
1	15	3	3	2	I	1	0	1115	1	Ⴒ	cut_o_stereo_44KHz.wav
1	16	2	1	0	C	2	1	1014	1	Ⴐ	cut_u_stereo_44KHz.wav
1	17	1	1	1	C	1	1	751	1	Ⴉ	cut_u_stereo_44KHz.wav
1	18	4	4	2	I	2	0	1045	0	Ⴌ	cut_a_stereo_44KHz.wav
1	19	3	4	2	I	2	0	985	0	Ⴒ	cut_a_stereo_44KHz.wav
1	20	2	2	1	C	2	0	912	0	Ⴐ	cut_k_stereo_44KHz.wav
1	21	3	3	2	I	2	0	824	0	Ⴒ	cut_o_stereo_44KHz.wav
1	22	1	2	0	C	2	1	973	1	Ⴉ	cut_k_stereo_44KHz.wav
1	23	4	3	2	I	2	0	1795	1	Ⴌ	cut_o_stereo_44KHz.wav
1	24	2	1	0	C	2	1	944	1	Ⴐ	cut_u_stereo_44KHz.wav
1	25	1	2	0	C	2	1	1204	1	Ⴉ	cut_k_stereo_44KHz.wav
1	26	2	2	1	C	1	1	777	1	Ⴐ	cut_k_stereo_44KHz.wav
1	27	3	4	2	I	2	0	882	1	Ⴒ	cut_a_stereo_44KHz.wav
1	28	4	4	2	I	1	0	752	1	Ⴌ	cut_a_stereo_44KHz.wav
1	29	3	3	2	I	2	0	634	0	Ⴒ	cut_o_stereo_44KHz.wav
1	30	4	3	2	I	1	0	931	0	Ⴌ	cut_o_stereo_44KHz.wav
1	31	1	1	1	C	1	1	1859	1	Ⴉ	cut_u_stereo_44KHz.wav
1	32	2	1	0	C	2	1	769	1	Ⴐ	cut_u_stereo_44KHz.wav
1	33	1	1	1	C	1	1	861	1	Ⴉ	cut_u_stereo_44KHz.wav
1	34	2	1	0	C	2	1	425	1	Ⴐ	cut_u_stereo_44KHz.wav
1	35	3	3	2	I	1	0	1057	1	Ⴒ	cut_o_stereo_44KHz.wav
1	36	4	3	2	I	2	0	954	1	Ⴌ	cut_o_stereo_44KHz.wav
1	37	3	4	2	I	2	0	1248	0	Ⴒ	cut_a_stereo_44KHz.wav
1	38	2	2	1	C	2	0	951	0	Ⴐ	cut_k_stereo_44KHz.wav
1	39	1	2	0	C	2	1	1095	1	Ⴉ	cut_k_stereo_44KHz.wav
1	40	4	4	2	I	2	0	1058	1	Ⴌ	cut_a_stereo_44KHz.wav
1	41	3	4	2	I	1	0	729	0	Ⴒ	cut_a_stereo_44KHz.wav
1	42	1	1	1	C	1	1	1326	1	Ⴉ	cut_u_stereo_44KHz.wav
1	43	2	2	1	C	1	1	955	1	Ⴐ	cut_k_stereo_44KHz.wav
1	44	4	3	2	I	1	0	947	0	Ⴌ	cut_o_stereo_44KHz.wav
1	45	3	3	2	I	1	0	1603	1	Ⴒ	cut_o_stereo_44KHz.wav
1	46	4	4	2	I	2	0	1069	1	Ⴌ	cut_a_stereo_44KHz.wav
1	47	2	1	0	C	1	0	1218	0	Ⴐ	cut_u_stereo_44KHz.wav
1	48	1	2	0	C	2	1	947	1	Ⴉ	cut_k_stereo_44KHz.wav
1	49	4	3	2	I	1	0	660	1	Ⴌ	cut_o_stereo_44KHz.wav
1	50	2	2	1	C	2	0	1556	0	Ⴐ	cut_k_stereo_44KHz.wav
1	51	1	2	0	C	2	1	653	1	Ⴉ	cut_k_stereo_44KHz.wav
1	52	3	3	2	I	1	0	1182	0	Ⴒ	cut_o_stereo_44KHz.wav
1	53	4	4	2	I	2	0	889	0	Ⴌ	cut_a_stereo_44KHz.wav
1	54	3	4	2	I	2	0	845	1	Ⴒ	cut_a_stereo_44KHz.wav
1	55	2	1	0	C	1	0	1099	0	Ⴐ	cut_u_stereo_44KHz.wav
1	56	1	1	1	C	1	1	1127	1	Ⴉ	cut_u_stereo_44KHz.wav
1	57	2	1	0	C	2	1	833	1	Ⴐ	cut_u_stereo_44KHz.wav
1	58	4	4	2	I	2	0	1626	0	Ⴌ	cut_a_stereo_44KHz.wav
1	59	1	1	1	C	1	1	1048	1	Ⴉ	cut_u_stereo_44KHz.wav
1	60	3	4	2	I	2	0	1095	0	Ⴒ	cut_a_stereo_44KHz.wav
1	61	4	3	2	I	2	0	850	1	Ⴌ	cut_o_stereo_44KHz.wav
1	62	3	3	2	I	1	0	773	1	Ⴒ	cut_o_stereo_44KHz.wav
1	63	2	2	1	C	1	1	1710	1	Ⴐ	cut_k_stereo_44KHz.wav
1	64	1	2	0	C	2	1	448	1	Ⴉ	cut_k_stereo_44KHz.wav
1	65	3	4	2	I	2	0	1366	0	Ⴒ	cut_a_stereo_44KHz.wav
1	66	2	1	0	C	1	0	1705	0	Ⴐ	cut_u_stereo_44KHz.wav
1	67	4	4	2	I	2	0	1360	0	Ⴌ	cut_a_stereo_44KHz.wav
1	68	1	2	0	C	2	1	1069	1	Ⴉ	cut_k_stereo_44KHz.wav
1	69	2	2	1	C	1	1	681	1	Ⴐ	cut_k_stereo_44KHz.wav
1	70	1	1	1	C	1	1	992	1	Ⴉ	cut_u_stereo_44KHz.wav
1	71	4	3	2	I	2	0	1289	1	Ⴌ	cut_o_stereo_44KHz.wav
1	72	3	3	2	I	1	0	967	1	Ⴒ	cut_o_stereo_44KHz.wav
1	73	1	1	1	C	1	1	1082	1	Ⴉ	cut_u_stereo_44KHz.wav
1	74	3	4	2	I	2	0	1423	1	Ⴒ	cut_a_stereo_44KHz.wav
1	75	2	2	1	C	1	1	1463	1	Ⴐ	cut_k_stereo_44KHz.wav
1	76	4	4	2	I	1	0	1768	1	Ⴌ	cut_a_stereo_44KHz.wav
1	77	1	2	0	C	2	1	1038	1	Ⴉ	cut_k_stereo_44KHz.wav
1	78	4	3	2	I	2	0	1284	0	Ⴌ	cut_o_stereo_44KHz.wav
1	79	2	1	0	C	2	1	1486	1	Ⴐ	cut_u_stereo_44KHz.wav
1	80	3	3	2	I	1	0	1328	1	Ⴒ	cut_o_stereo_44KHz.wav
1	81	1	2	0	C	2	1	864	1	Ⴉ	cut_k_stereo_44KHz.wav
1	82	3	3	2	I	1	0	1268	0	Ⴒ	cut_o_stereo_44KHz.wav
1	83	4	4	2	I	1	0	1621	1	Ⴌ	cut_a_stereo_44KHz.wav
1	84	2	2	1	C	1	1	1167	1	Ⴐ	cut_k_stereo_44KHz.wav
1	85	4	3	2	I	2	0	1067	0	Ⴌ	cut_o_stereo_44KHz.wav
1	86	3	4	2	I	2	0	1784	1	Ⴒ	cut_a_stereo_44KHz.wav
1	87	2	1	0	C	1	0	941	0	Ⴐ	cut_u_stereo_44KHz.wav
1	88	1	1	1	C	1	1	907	1	Ⴉ	cut_u_stereo_44KHz.wav
1	89	3	4	2	I	2	0	1519	0	Ⴒ	cut_a_stereo_44KHz.wav
1	90	2	1	0	C	1	0	954	0	Ⴐ	cut_u_stereo_44KHz.wav
1	91	4	3	2	I	2	0	1424	0	Ⴌ	cut_o_stereo_44KHz.wav
1	92	1	2	0	C	2	1	895	1	Ⴉ	cut_k_stereo_44KHz.wav
1	93	3	3	2	I	1	0	964	0	Ⴒ	cut_o_stereo_44KHz.wav
1	94	1	1	1	C	1	1	945	1	Ⴉ	cut_u_stereo_44KHz.wav
1	95	4	4	2	I	2	0	1341	0	Ⴌ	cut_a_stereo_44KHz.wav
1	96	2	2	1	C	1	1	1461	1	Ⴐ	cut_k_stereo_44KHz.wav
1	97	4	4	2	I	1	0	1916	0	Ⴌ	cut_a_stereo_44KHz.wav
1	98	1	2	0	C	2	1	952	1	Ⴉ	cut_k_stereo_44KHz.wav
1	99	2	2	1	C	1	1	946	1	Ⴐ	cut_k_stereo_44KHz.wav
1	100	3	3	2	I	2	0	1076	0	Ⴒ	cut_o_stereo_44KHz.wav
1	101	1	1	1	C	1	1	857	1	Ⴉ	cut_u_stereo_44KHz.wav
1	102	4	3	2	I	2	0	1350	0	Ⴌ	cut_o_stereo_44KHz.wav
1	103	2	1	0	C	1	0	887	0	Ⴐ	cut_u_stereo_44KHz.wav
1	104	3	4	2	I	2	0	1133	0	Ⴒ	cut_a_stereo_44KHz.wav
1	105	4	4	2	I	2	0	759	1	Ⴌ	cut_a_stereo_44KHz.wav
1	106	1	2	0	C	2	1	911	1	Ⴉ	cut_k_stereo_44KHz.wav
1	107	2	1	0	C	2	1	937	1	Ⴐ	cut_u_stereo_44KHz.wav
1	108	3	3	2	I	2	0	1167	1	Ⴒ	cut_o_stereo_44KHz.wav
1	109	1	1	1	C	1	1	1149	1	Ⴉ	cut_u_stereo_44KHz.wav
1	110	2	2	1	C	1	1	1831	1	Ⴐ	cut_k_stereo_44KHz.wav
1	111	3	4	2	I	1	0	1367	0	Ⴒ	cut_a_stereo_44KHz.wav
1	112	4	3	2	I	2	0	1330	0	Ⴌ	cut_o_stereo_44KHz.wav
1	113	2	2	1	C	1	1	1435	1	Ⴐ	cut_k_stereo_44KHz.wav
1	114	3	4	2	I	2	0	1501	0	Ⴒ	cut_a_stereo_44KHz.wav
1	115	4	3	2	I	1	0	1568	0	Ⴌ	cut_o_stereo_44KHz.wav
1	116	1	1	1	C	1	1	992	1	Ⴉ	cut_u_stereo_44KHz.wav
1	117	2	1	0	C	2	1	1200	1	Ⴐ	cut_u_stereo_44KHz.wav
1	118	4	4	2	I	2	0	873	0	Ⴌ	cut_a_stereo_44KHz.wav
1	119	3	3	2	I	2	0	1877	1	Ⴒ	cut_o_stereo_44KHz.wav
1	120	1	2	0	C	2	1	895	1	Ⴉ	cut_k_stereo_44KHz.wav
1	121	2	1	0	C	1	0	1169	0	Ⴐ	cut_u_stereo_44KHz.wav
1	122	4	3	2	I	1	0	1305	0	Ⴌ	cut_o_stereo_44KHz.wav
1	123	1	2	0	C	2	1	943	1	Ⴉ	cut_k_stereo_44KHz.wav
1	124	3	4	2	I	2	0	1243	1	Ⴒ	cut_a_stereo_44KHz.wav
1	125	4	4	2	I	1	0	892	1	Ⴌ	cut_a_stereo_44KHz.wav
1	126	3	3	2	I	2	0	1350	1	Ⴒ	cut_o_stereo_44KHz.wav
1	127	2	2	1	C	1	1	1424	1	Ⴐ	cut_k_stereo_44KHz.wav
1	128	1	1	1	C	1	1	1090	1	Ⴉ	cut_u_stereo_44KHz.wav
1	129	4	3	2	I	1	0	1157	0	Ⴌ	cut_o_stereo_44KHz.wav
1	130	2	1	0	C	2	1	1222	1	Ⴐ	cut_u_stereo_44KHz.wav
1	131	3	3	2	I	1	0	992	1	Ⴒ	cut_o_stereo_44KHz.wav
1	132	1	2	0	C	2	1	1064	1	Ⴉ	cut_k_stereo_44KHz.wav
1	133	3	4	2	I	2	0	1373	0	Ⴒ	cut_a_stereo_44KHz.wav
1	134	4	4	2	I	2	0	638	1	Ⴌ	cut_a_stereo_44KHz.wav
1	135	2	2	1	C	1	1	1367	1	Ⴐ	cut_k_stereo_44KHz.wav
1	136	1	1	1	C	1	1	1056	1	Ⴉ	cut_u_stereo_44KHz.wav
1	137	2	2	1	C	1	1	1448	1	Ⴐ	cut_k_stereo_44KHz.wav
1	138	4	3	2	I	2	0	1346	1	Ⴌ	cut_o_stereo_44KHz.wav
1	139	3	4	2	I	2	0	1191	0	Ⴒ	cut_a_stereo_44KHz.wav
1	140	1	1	1	C	1	1	870	1	Ⴉ	cut_u_stereo_44KHz.wav
1	141	2	1	0	C	2	1	562	1	Ⴐ	cut_u_stereo_44KHz.wav
1	142	1	2	0	C	2	1	923	1	Ⴉ	cut_k_stereo_44KHz.wav
1	143	3	3	2	I	1	0	1756	1	Ⴒ	cut_o_stereo_44KHz.wav
1	144	4	4	2	I	1	0	1305	1	Ⴌ	cut_a_stereo_44KHz.wav
1	145	2	2	1	C	1	1	1230	1	Ⴐ	cut_k_stereo_44KHz.wav
1	146	3	3	2	I	1	0	814	0	Ⴒ	cut_o_stereo_44KHz.wav
1	147	1	1	1	C	1	1	1591	1	Ⴉ	cut_u_stereo_44KHz.wav
1	148	4	4	2	I	1	0	1590	1	Ⴌ	cut_a_stereo_44KHz.wav
1	149	1	2	0	C	2	1	1160	1	Ⴉ	cut_k_stereo_44KHz.wav
1	150	4	3	2	I	2	0	1028	0	Ⴌ	cut_o_stereo_44KHz.wav
1	151	2	1	0	C	2	1	1556	1	Ⴐ	cut_u_stereo_44KHz.wav
1	152	3	4	2	I	2	0	1540	1	Ⴒ	cut_a_stereo_44KHz.wav
1	153	4	3	2	I	2	0	1178	1	Ⴌ	cut_o_stereo_44KHz.wav
1	154	3	3	2	I	1	0	883	0	Ⴒ	cut_o_stereo_44KHz.wav
1	155	1	1	1	C	1	1	1031	1	Ⴉ	cut_u_stereo_44KHz.wav
1	156	2	2	1	C	1	1	860	1	Ⴐ	cut_k_stereo_44KHz.wav
1	157	1	2	0	C	2	1	950	1	Ⴉ	cut_k_stereo_44KHz.wav
1	158	3	4	2	I	2	0	1522	0	Ⴒ	cut_a_stereo_44KHz.wav
1	159	4	4	2	I	2	0	758	0	Ⴌ	cut_a_stereo_44KHz.wav
1	160	2	1	0	C	2	1	1008	1	Ⴐ	cut_u_stereo_44KHz.wav
1	161	3	4	2	I	1	0	1250	0	Ⴒ	cut_a_stereo_44KHz.wav
1	162	2	2	1	C	1	1	1110	1	Ⴐ	cut_k_stereo_44KHz.wav
1	163	1	2	0	C	2	1	802	1	Ⴉ	cut_k_stereo_44KHz.wav
1	164	4	4	2	I	2	0	1413	1	Ⴌ	cut_a_stereo_44KHz.wav
1	165	2	1	0	C	2	1	1132	1	Ⴐ	cut_u_stereo_44KHz.wav
1	166	4	3	2	I	1	0	934	1	Ⴌ	cut_o_stereo_44KHz.wav
1	167	3	3	2	I	2	0	1184	0	Ⴒ	cut_o_stereo_44KHz.wav
1	168	1	1	1	C	1	1	1193	1	Ⴉ	cut_u_stereo_44KHz.wav
1	169	4	3	2	I	1	0	1016	0	Ⴌ	cut_o_stereo_44KHz.wav
1	170	2	1	0	C	2	1	962	1	Ⴐ	cut_u_stereo_44KHz.wav
1	171	1	2	0	C	2	1	802	1	Ⴉ	cut_k_stereo_44KHz.wav
1	172	3	3	2	I	1	0	1504	1	Ⴒ	cut_o_stereo_44KHz.wav
1	173	4	4	2	I	2	0	1362	0	Ⴌ	cut_a_stereo_44KHz.wav
1	174	1	1	1	C	1	1	1056	1	Ⴉ	cut_u_stereo_44KHz.wav
1	175	2	2	1	C	1	1	944	1	Ⴐ	cut_k_stereo_44KHz.wav
1	176	3	4	2	I	1	0	1808	0	Ⴒ	cut_a_stereo_44KHz.wav
1	177	2	1	0	C	2	1	1306	1	Ⴐ	cut_u_stereo_44KHz.wav
1	178	4	4	2	I	1	0	1087	0	Ⴌ	cut_a_stereo_44KHz.wav
1	179	3	3	2	I	1	0	1243	1	Ⴒ	cut_o_stereo_44KHz.wav
1	180	1	1	1	C	1	1	975	1	Ⴉ	cut_u_stereo_44KHz.wav
1	181	4	3	2	I	2	0	1180	0	Ⴌ	cut_o_stereo_44KHz.wav
1	182	3	4	2	I	2	0	545	1	Ⴒ	cut_a_stereo_44KHz.wav
1	183	2	2	1	C	1	1	1085	1	Ⴐ	cut_k_stereo_44KHz.wav
1	184	1	2	0	C	2	1	857	1	Ⴉ	cut_k_stereo_44KHz.wav
1	185	3	4	2	I	1	0	1272	1	Ⴒ	cut_a_stereo_44KHz.wav
1	186	1	2	0	C	2	1	785	1	Ⴉ	cut_k_stereo_44KHz.wav
1	187	2	1	0	C	2	1	1327	1	Ⴐ	cut_u_stereo_44KHz.wav
1	188	4	4	2	I	1	0	1307	1	Ⴌ	cut_a_stereo_44KHz.wav
1	189	1	1	1	C	1	1	1061	1	Ⴉ	cut_u_stereo_44KHz.wav
1	190	2	2	1	C	1	1	1254	1	Ⴐ	cut_k_stereo_44KHz.wav
1	191	4	3	2	I	1	0	1451	1	Ⴌ	cut_o_stereo_44KHz.wav
1	192	3	3	2	I	1	0	1572	1	Ⴒ	cut_o_stereo_44KHz.wav
1	193	2	2	1	C	1	1	1016	1	Ⴐ	cut_k_stereo_44KHz.wav
1	194	1	2	0	C	2	1	846	1	Ⴉ	cut_k_stereo_44KHz.wav
1	195	3	3	2	I	2	0	868	1	Ⴒ	cut_o_stereo_44KHz.wav
1	196	4	3	2	I	1	0	890	1	Ⴌ	cut_o_stereo_44KHz.wav
1	197	3	4	2	I	1	0	1023	1	Ⴒ	cut_a_stereo_44KHz.wav
1	198	4	4	2	I	2	0	564	0	Ⴌ	cut_a_stereo_44KHz.wav
1	199	2	1	0	C	2	1	1375	1	Ⴐ	cut_u_stereo_44KHz.wav
1	200	1	1	1	C	1	1	905	1	Ⴉ	cut_u_stereo_44KHz.wav
2	1	4	3	2	I	0	0	0	0	Ⴊ	cut_l_stereo_44KHz.wav
2	2	2	2	1	C	1	1	931	1	Ⴃ	cut_w_stereo_44KHz.wav
2	3	1	1	1	C	2	0	1129	0	Ⴇ	cut_h_stereo_44KHz.wav
2	4	3	3	2	I	2	0	890	1	Ⴂ	cut_l_stereo_44KHz.wav
2	5	2	1	0	C	2	1	1331	1	Ⴃ	cut_h_stereo_44KHz.wav
2	6	1	2	0	C	2	1	1171	1	Ⴇ	cut_w_stereo_44KHz.wav
2	7	3	4	2	I	1	0	909	1	Ⴂ	cut_g_stereo_44KHz.wav
2	8	4	4	2	I	2	0	960	0	Ⴊ	cut_g_stereo_44KHz.wav
2	9	1	1	1	C	1	1	1285	1	Ⴇ	cut_h_stereo_44KHz.wav
2	10	3	3	2	I	2	0	727	1	Ⴂ	cut_l_stereo_44KHz.wav
2	11	2	2	1	C	1	1	1131	1	Ⴃ	cut_w_stereo_44KHz.wav
2	12	4	3	2	I	2	0	870	0	Ⴊ	cut_l_stereo_44KHz.wav
2	13	1	2	0	C	1	0	1249	0	Ⴇ	cut_w_stereo_44KHz.wav
2	14	4	4	2	I	1	0	1333	1	Ⴊ	cut_g_stereo_44KHz.wav
2	15	2	1	0	C	2	1	971	1	Ⴃ	cut_h_stereo_44KHz.wav
2	16	3	4	2	I	1	0	960	0	Ⴂ	cut_g_stereo_44KHz.wav
2	17	1	2	0	C	2	1	936	1	Ⴇ	cut_w_stereo_44KHz.wav
2	18	3	4	2	I	1	0	1132	1	Ⴂ	cut_g_stereo_44KHz.wav
2	19	2	1	0	C	2	1	815	1	Ⴃ	cut_h_stereo_44KHz.wav
2	20	4	4	2	I	1	0	1006	0	Ⴊ	cut_g_stereo_44KHz.wav
2	21	2	2	1	C	1	1	1093	1	Ⴃ	cut_w_stereo_44KHz.wav
2	22	4	3	2	I	1	0	1028	1	Ⴊ	cut_l_stereo_44KHz.wav
2	23	1	1	1	C	1	1	1168	1	Ⴇ	cut_h_stereo_44KHz.wav
2	24	3	3	2	I	2	0	869	0	Ⴂ	cut_l_stereo_44KHz.wav
2	25	4	4	2	I	1	0	1401	1	Ⴊ	cut_g_stereo_44KHz.wav
2	26	2	2	1	C	1	1	946	1	Ⴃ	cut_w_stereo_44KHz.wav
2	27	3	4	2	I	2	0	1319	0	Ⴂ	cut_g_stereo_44KHz.wav
2	28	1	1	1	C	1	1	1092	1	Ⴇ	cut_h_stereo_44KHz.wav
2	29	4	3	2	I	1	0	1203	1	Ⴊ	cut_l_stereo_44KHz.wav
2	30	2	1	0	C	2	1	942	1	Ⴃ	cut_h_stereo_44KHz.wav
2	31	3	3	2	I	2	0	1337	0	Ⴂ	cut_l_stereo_44KHz.wav
2	32	1	2	0	C	1	0	1681	0	Ⴇ	cut_w_stereo_44KHz.wav
2	33	3	3	2	I	1	0	1314	0	Ⴂ	cut_l_stereo_44KHz.wav
2	34	1	2	0	C	2	1	1292	1	Ⴇ	cut_w_stereo_44KHz.wav
2	35	4	4	2	I	2	0	1574	1	Ⴊ	cut_g_stereo_44KHz.wav
2	36	2	2	1	C	1	1	952	1	Ⴃ	cut_w_stereo_44KHz.wav
2	37	3	4	2	I	1	0	1184	0	Ⴂ	cut_g_stereo_44KHz.wav
2	38	1	1	1	C	1	1	1102	1	Ⴇ	cut_h_stereo_44KHz.wav
2	39	4	3	2	I	1	0	1396	0	Ⴊ	cut_l_stereo_44KHz.wav
2	40	2	1	0	C	2	1	1131	1	Ⴃ	cut_h_stereo_44KHz.wav
2	41	3	3	2	I	1	0	1296	1	Ⴂ	cut_l_stereo_44KHz.wav
2	42	4	3	2	I	2	0	1119	0	Ⴊ	cut_l_stereo_44KHz.wav
2	43	1	2	0	C	2	1	973	1	Ⴇ	cut_w_stereo_44KHz.wav
2	44	2	2	1	C	1	1	882	1	Ⴃ	cut_w_stereo_44KHz.wav
2	45	4	4	2	I	2	0	845	1	Ⴊ	cut_g_stereo_44KHz.wav
2	46	1	1	1	C	1	1	1404	1	Ⴇ	cut_h_stereo_44KHz.wav
2	47	3	4	2	I	0	0	0	0	Ⴂ	cut_g_stereo_44KHz.wav
2	48	2	1	0	C	2	1	825	1	Ⴃ	cut_h_stereo_44KHz.wav
2	49	3	3	2	I	2	0	1279	1	Ⴂ	cut_l_stereo_44KHz.wav
2	50	2	2	1	C	1	1	909	1	Ⴃ	cut_w_stereo_44KHz.wav
2	51	1	2	0	C	2	1	1282	1	Ⴇ	cut_w_stereo_44KHz.wav
2	52	4	4	2	I	2	0	1013	0	Ⴊ	cut_g_stereo_44KHz.wav
2	53	2	1	0	C	2	1	957	1	Ⴃ	cut_h_stereo_44KHz.wav
2	54	4	3	2	I	1	0	1133	1	Ⴊ	cut_l_stereo_44KHz.wav
2	55	1	1	1	C	1	1	1029	1	Ⴇ	cut_h_stereo_44KHz.wav
2	56	3	4	2	I	1	0	1752	0	Ⴂ	cut_g_stereo_44KHz.wav
2	57	4	3	2	I	1	0	1118	1	Ⴊ	cut_l_stereo_44KHz.wav
2	58	3	3	2	I	2	0	1097	1	Ⴂ	cut_l_stereo_44KHz.wav
2	59	2	1	0	C	2	1	829	1	Ⴃ	cut_h_stereo_44KHz.wav
2	60	1	1	1	C	1	1	991	1	Ⴇ	cut_h_stereo_44KHz.wav
2	61	3	4	2	I	2	0	1423	1	Ⴂ	cut_g_stereo_44KHz.wav
2	62	1	2	0	C	2	1	1333	1	Ⴇ	cut_w_stereo_44KHz.wav
2	63	2	2	1	C	1	1	758	1	Ⴃ	cut_w_stereo_44KHz.wav
2	64	4	4	2	I	1	0	1081	0	Ⴊ	cut_g_stereo_44KHz.wav
2	65	2	2	1	C	1	1	1252	1	Ⴃ	cut_w_stereo_44KHz.wav
2	66	3	4	2	I	2	0	946	0	Ⴂ	cut_g_stereo_44KHz.wav
2	67	4	3	2	I	1	0	1357	1	Ⴊ	cut_l_stereo_44KHz.wav
2	68	1	2	0	C	2	1	948	1	Ⴇ	cut_w_stereo_44KHz.wav
2	69	3	3	2	I	1	0	1655	1	Ⴂ	cut_l_stereo_44KHz.wav
2	70	2	1	0	C	2	1	795	1	Ⴃ	cut_h_stereo_44KHz.wav
2	71	4	4	2	I	1	0	1827	0	Ⴊ	cut_g_stereo_44KHz.wav
2	72	1	1	1	C	1	1	999	1	Ⴇ	cut_h_stereo_44KHz.wav
2	73	3	4	2	I	2	0	1260	1	Ⴂ	cut_g_stereo_44KHz.wav
2	74	2	1	0	C	2	1	808	1	Ⴃ	cut_h_stereo_44KHz.wav
2	75	4	3	2	I	2	0	1757	0	Ⴊ	cut_l_stereo_44KHz.wav
2	76	1	2	0	C	2	1	1053	1	Ⴇ	cut_w_stereo_44KHz.wav
2	77	4	4	2	I	1	0	1185	1	Ⴊ	cut_g_stereo_44KHz.wav
2	78	3	3	2	I	2	0	1574	1	Ⴂ	cut_l_stereo_44KHz.wav
2	79	2	2	1	C	1	1	1318	1	Ⴃ	cut_w_stereo_44KHz.wav
2	80	1	1	1	C	1	1	1318	1	Ⴇ	cut_h_stereo_44KHz.wav
2	81	3	3	2	I	2	0	1340	0	Ⴂ	cut_l_stereo_44KHz.wav
2	82	1	2	0	C	2	1	1008	1	Ⴇ	cut_w_stereo_44KHz.wav
2	83	2	2	1	C	1	1	765	1	Ⴃ	cut_w_stereo_44KHz.wav
2	84	4	3	2	I	1	0	966	0	Ⴊ	cut_l_stereo_44KHz.wav
2	85	2	1	0	C	2	1	832	1	Ⴃ	cut_h_stereo_44KHz.wav
2	86	3	4	2	I	2	0	1159	1	Ⴂ	cut_g_stereo_44KHz.wav
2	87	4	4	2	I	1	0	1110	1	Ⴊ	cut_g_stereo_44KHz.wav
2	88	1	1	1	C	1	1	1647	1	Ⴇ	cut_h_stereo_44KHz.wav
2	89	2	2	1	C	1	1	1069	1	Ⴃ	cut_w_stereo_44KHz.wav
2	90	3	4	2	I	2	0	1712	0	Ⴂ	cut_g_stereo_44KHz.wav
2	91	1	1	1	C	1	1	1623	1	Ⴇ	cut_h_stereo_44KHz.wav
2	92	4	4	2	I	2	0	1590	1	Ⴊ	cut_g_stereo_44KHz.wav
2	93	3	3	2	I	1	0	1964	1	Ⴂ	cut_l_stereo_44KHz.wav
2	94	1	2	0	C	2	1	965	1	Ⴇ	cut_w_stereo_44KHz.wav
2	95	2	1	0	C	2	1	1017	1	Ⴃ	cut_h_stereo_44KHz.wav
2	96	4	3	2	I	1	0	1112	0	Ⴊ	cut_l_stereo_44KHz.wav
2	97	3	4	2	I	2	0	1420	0	Ⴂ	cut_g_stereo_44KHz.wav
2	98	2	2	1	C	1	1	1186	1	Ⴃ	cut_w_stereo_44KHz.wav
2	99	1	1	1	C	1	1	1105	1	Ⴇ	cut_h_stereo_44KHz.wav
2	100	4	4	2	I	1	0	1350	0	Ⴊ	cut_g_stereo_44KHz.wav
2	101	2	1	0	C	2	1	962	1	Ⴃ	cut_h_stereo_44KHz.wav
2	102	4	3	2	I	2	0	826	0	Ⴊ	cut_l_stereo_44KHz.wav
2	103	1	2	0	C	2	1	825	1	Ⴇ	cut_w_stereo_44KHz.wav
2	104	3	3	2	I	1	0	1323	1	Ⴂ	cut_l_stereo_44KHz.wav
2	105	2	2	1	C	1	1	881	1	Ⴃ	cut_w_stereo_44KHz.wav
2	106	3	4	2	I	1	0	1665	0	Ⴂ	cut_g_stereo_44KHz.wav
2	107	4	4	2	I	1	0	1640	1	Ⴊ	cut_g_stereo_44KHz.wav
2	108	1	1	1	C	1	1	1376	1	Ⴇ	cut_h_stereo_44KHz.wav
2	109	3	3	2	I	1	0	1037	1	Ⴂ	cut_l_stereo_44KHz.wav
2	110	2	1	0	C	2	1	1077	1	Ⴃ	cut_h_stereo_44KHz.wav
2	111	4	3	2	I	2	0	1006	0	Ⴊ	cut_l_stereo_44KHz.wav
2	112	1	2	0	C	2	1	969	1	Ⴇ	cut_w_stereo_44KHz.wav
2	113	4	4	2	I	2	0	1266	0	Ⴊ	cut_g_stereo_44KHz.wav
2	114	1	2	0	C	2	1	953	1	Ⴇ	cut_w_stereo_44KHz.wav
2	115	2	2	1	C	1	1	735	1	Ⴃ	cut_w_stereo_44KHz.wav
2	116	3	3	2	I	1	0	1066	1	Ⴂ	cut_l_stereo_44KHz.wav
2	117	1	1	1	C	1	1	1122	1	Ⴇ	cut_h_stereo_44KHz.wav
2	118	2	1	0	C	2	1	610	1	Ⴃ	cut_h_stereo_44KHz.wav
2	119	3	4	2	I	2	0	1714	0	Ⴂ	cut_g_stereo_44KHz.wav
2	120	4	3	2	I	1	0	1816	1	Ⴊ	cut_l_stereo_44KHz.wav
2	121	1	1	1	C	1	1	1021	1	Ⴇ	cut_h_stereo_44KHz.wav
2	122	2	2	1	C	1	1	935	1	Ⴃ	cut_w_stereo_44KHz.wav
2	123	4	4	2	I	1	0	1566	0	Ⴊ	cut_g_stereo_44KHz.wav
2	124	3	3	2	I	1	0	1201	0	Ⴂ	cut_l_stereo_44KHz.wav
2	125	2	1	0	C	2	1	920	1	Ⴃ	cut_h_stereo_44KHz.wav
2	126	3	4	2	I	1	0	1457	1	Ⴂ	cut_g_stereo_44KHz.wav
2	127	1	2	0	C	2	1	1050	1	Ⴇ	cut_w_stereo_44KHz.wav
2	128	4	3	2	I	1	0	1467	1	Ⴊ	cut_l_stereo_44KHz.wav
2	129	1	2	0	C	2	1	920	1	Ⴇ	cut_w_stereo_44KHz.wav
2	130	3	4	2	I	2	0	1440	1	Ⴂ	cut_g_stereo_44KHz.wav
2	131	2	2	1	C	1	1	875	1	Ⴃ	cut_w_stereo_44KHz.wav
2	132	4	3	2	I	2	0	1487	0	Ⴊ	cut_l_stereo_44KHz.wav
2	133	1	1	1	C	1	1	1299	1	Ⴇ	cut_h_stereo_44KHz.wav
2	134	2	1	0	C	2	1	918	1	Ⴃ	cut_h_stereo_44KHz.wav
2	135	4	4	2	I	1	0	1830	0	Ⴊ	cut_g_stereo_44KHz.wav
2	136	3	3	2	I	1	0	1324	1	Ⴂ	cut_l_stereo_44KHz.wav
2	137	1	2	0	C	2	1	913	1	Ⴇ	cut_w_stereo_44KHz.wav
2	138	4	3	2	I	2	0	1642	0	Ⴊ	cut_l_stereo_44KHz.wav
2	139	2	2	1	C	1	1	793	1	Ⴃ	cut_w_stereo_44KHz.wav
2	140	3	3	2	I	1	0	1562	0	Ⴂ	cut_l_stereo_44KHz.wav
2	141	4	4	2	I	1	0	1586	1	Ⴊ	cut_g_stereo_44KHz.wav
2	142	1	1	1	C	1	1	940	1	Ⴇ	cut_h_stereo_44KHz.wav
2	143	2	1	0	C	2	1	845	1	Ⴃ	cut_h_stereo_44KHz.wav
2	144	3	4	2	I	2	0	1142	0	Ⴂ	cut_g_stereo_44KHz.wav
2	145	2	2	1	C	1	1	810	1	Ⴃ	cut_w_stereo_44KHz.wav
2	146	4	3	2	I	1	0	1045	0	Ⴊ	cut_l_stereo_44KHz.wav
2	147	1	2	0	C	2	1	927	1	Ⴇ	cut_w_stereo_44KHz.wav
2	148	3	3	2	I	1	0	1457	1	Ⴂ	cut_l_stereo_44KHz.wav
2	149	1	1	1	C	1	1	1136	1	Ⴇ	cut_h_stereo_44KHz.wav
2	150	4	4	2	I	1	0	1703	1	Ⴊ	cut_g_stereo_44KHz.wav
2	151	3	4	2	I	0	0	0	0	Ⴂ	cut_g_stereo_44KHz.wav
2	152	2	1	0	C	2	1	749	1	Ⴃ	cut_h_stereo_44KHz.wav
2	153	1	1	1	C	1	1	735	1	Ⴇ	cut_h_stereo_44KHz.wav
2	154	3	3	2	I	2	0	1446	0	Ⴂ	cut_l_stereo_44KHz.wav
2	155	2	2	1	C	1	1	897	1	Ⴃ	cut_w_stereo_44KHz.wav
2	156	4	4	2	I	1	0	1358	0	Ⴊ	cut_g_stereo_44KHz.wav
2	157	2	1	0	C	2	1	1041	1	Ⴃ	cut_h_stereo_44KHz.wav
2	158	3	4	2	I	2	0	1379	1	Ⴂ	cut_g_stereo_44KHz.wav
2	159	4	3	2	I	1	0	1475	0	Ⴊ	cut_l_stereo_44KHz.wav
2	160	1	2	0	C	2	1	1255	1	Ⴇ	cut_w_stereo_44KHz.wav
2	161	4	4	2	I	1	0	1282	1	Ⴊ	cut_g_stereo_44KHz.wav
2	162	3	4	2	I	2	0	776	0	Ⴂ	cut_g_stereo_44KHz.wav
2	163	2	1	0	C	2	1	745	1	Ⴃ	cut_h_stereo_44KHz.wav
2	164	1	2	0	C	2	1	849	1	Ⴇ	cut_w_stereo_44KHz.wav
2	165	2	2	1	C	1	1	793	1	Ⴃ	cut_w_stereo_44KHz.wav
2	166	4	3	2	I	2	0	1355	1	Ⴊ	cut_l_stereo_44KHz.wav
2	167	3	3	2	I	1	0	726	1	Ⴂ	cut_l_stereo_44KHz.wav
2	168	1	1	1	C	1	1	1062	1	Ⴇ	cut_h_stereo_44KHz.wav
2	169	2	1	0	C	2	1	698	1	Ⴃ	cut_h_stereo_44KHz.wav
2	170	3	3	2	I	2	0	1202	0	Ⴂ	cut_l_stereo_44KHz.wav
2	171	1	2	0	C	2	1	1212	1	Ⴇ	cut_w_stereo_44KHz.wav
2	172	4	3	2	I	2	0	865	1	Ⴊ	cut_l_stereo_44KHz.wav
2	173	2	2	1	C	1	1	745	1	Ⴃ	cut_w_stereo_44KHz.wav
2	174	3	4	2	I	2	0	1578	1	Ⴂ	cut_g_stereo_44KHz.wav
2	175	4	4	2	I	1	0	700	0	Ⴊ	cut_g_stereo_44KHz.wav
2	176	1	1	1	C	1	1	1289	1	Ⴇ	cut_h_stereo_44KHz.wav
2	177	2	2	1	C	1	1	907	1	Ⴃ	cut_w_stereo_44KHz.wav
2	178	1	1	1	C	1	1	1253	1	Ⴇ	cut_h_stereo_44KHz.wav
2	179	4	4	2	I	1	0	978	1	Ⴊ	cut_g_stereo_44KHz.wav
2	180	3	4	2	I	2	0	933	0	Ⴂ	cut_g_stereo_44KHz.wav
2	181	1	2	0	C	2	1	925	1	Ⴇ	cut_w_stereo_44KHz.wav
2	182	4	3	2	I	2	0	770	1	Ⴊ	cut_l_stereo_44KHz.wav
2	183	3	3	2	I	1	0	721	0	Ⴂ	cut_l_stereo_44KHz.wav
2	184	2	1	0	C	2	1	1427	1	Ⴃ	cut_h_stereo_44KHz.wav
2	185	4	3	2	I	2	0	848	1	Ⴊ	cut_l_stereo_44KHz.wav
2	186	3	3	2	I	1	0	1083	0	Ⴂ	cut_l_stereo_44KHz.wav
2	187	2	1	0	C	2	1	956	1	Ⴃ	cut_h_stereo_44KHz.wav
2	188	1	1	1	C	1	1	865	1	Ⴇ	cut_h_stereo_44KHz.wav
2	189	4	4	2	I	1	0	1003	0	Ⴊ	cut_g_stereo_44KHz.wav
2	190	2	2	1	C	1	1	828	1	Ⴃ	cut_w_stereo_44KHz.wav
2	191	1	2	0	C	2	1	1334	1	Ⴇ	cut_w_stereo_44KHz.wav
2	192	3	4	2	I	2	0	1496	0	Ⴂ	cut_g_stereo_44KHz.wav
2	193	1	2	0	C	2	1	1010	1	Ⴇ	cut_w_stereo_44KHz.wav
2	194	4	4	2	I	2	0	1726	1	Ⴊ	cut_g_stereo_44KHz.wav
2	195	2	2	1	C	1	1	820	1	Ⴃ	cut_w_stereo_44KHz.wav
2	196	3	4	2	I	2	0	1853	1	Ⴂ	cut_g_stereo_44KHz.wav
2	197	1	1	1	C	1	1	1440	1	Ⴇ	cut_h_stereo_44KHz.wav
2	198	4	3	2	I	2	0	1329	0	Ⴊ	cut_l_stereo_44KHz.wav
2	199	2	1	0	C	2	1	940	1	Ⴃ	cut_h_stereo_44KHz.wav
2	200	3	3	2	I	2	0	1002	1	Ⴂ	cut_l_stereo_44KHz.wav
3	1	3	4	2	I	2	0	1552	0	Ⴕ	cut_ui_stereo_44KHz.wav
3	2	4	4	2	I	2	0	790	0	Ⴏ	cut_ui_stereo_44KHz.wav
3	3	2	2	1	C	1	1	1626	1	Ⴖ	cut_f_stereo_44KHz.wav
3	4	1	2	0	C	1	0	1616	0	Ⴔ	cut_f_stereo_44KHz.wav
3	5	2	1	0	C	1	0	1492	0	Ⴖ	cut_s_stereo_44KHz.wav
3	6	4	3	2	I	2	0	1035	1	Ⴏ	cut_ei_stereo_44KHz.wav
3	7	1	1	1	C	2	0	1243	0	Ⴔ	cut_s_stereo_44KHz.wav
3	8	3	3	2	I	1	0	865	1	Ⴕ	cut_ei_stereo_44KHz.wav
3	9	4	4	2	I	1	0	860	1	Ⴏ	cut_ui_stereo_44KHz.wav
3	10	2	1	0	C	2	1	1280	1	Ⴖ	cut_s_stereo_44KHz.wav
3	11	3	3	2	I	1	0	1079	1	Ⴕ	cut_ei_stereo_44KHz.wav
3	12	1	1	1	C	1	1	1597	1	Ⴔ	cut_s_stereo_44KHz.wav
3	13	3	4	2	I	2	0	1115	1	Ⴕ	cut_ui_stereo_44KHz.wav
3	14	4	3	2	I	2	0	814	0	Ⴏ	cut_ei_stereo_44KHz.wav
3	15	1	2	0	C	2	1	1131	1	Ⴔ	cut_f_stereo_44KHz.wav
3	16	2	2	1	C	1	1	937	1	Ⴖ	cut_f_stereo_44KHz.wav
3	17	1	1	1	C	1	1	1177	1	Ⴔ	cut_s_stereo_44KHz.wav
3	18	4	4	2	I	1	0	1524	0	Ⴏ	cut_ui_stereo_44KHz.wav
3	19	3	4	2	I	2	0	1328	0	Ⴕ	cut_ui_stereo_44KHz.wav
3	20	2	1	0	C	2	1	937	1	Ⴖ	cut_s_stereo_44KHz.wav
3	21	1	2	0	C	2	1	1173	1	Ⴔ	cut_f_stereo_44KHz.wav
3	22	2	2	1	C	1	1	892	1	Ⴖ	cut_f_stereo_44KHz.wav
3	23	3	3	2	I	1	0	1301	1	Ⴕ	cut_ei_stereo_44KHz.wav
3	24	4	3	2	I	1	0	1114	0	Ⴏ	cut_ei_stereo_44KHz.wav
3	25	2	1	0	C	2	1	847	1	Ⴖ	cut_s_stereo_44KHz.wav
3	26	4	4	2	I	1	0	904	1	Ⴏ	cut_ui_stereo_44KHz.wav
3	27	1	2	0	C	2	1	1049	1	Ⴔ	cut_f_stereo_44KHz.wav
3	28	3	3	2	I	1	0	1535	1	Ⴕ	cut_ei_stereo_44KHz.wav
3	29	4	3	2	I	2	0	951	1	Ⴏ	cut_ei_stereo_44KHz.wav
3	30	3	4	2	I	2	0	764	0	Ⴕ	cut_ui_stereo_44KHz.wav
3	31	1	1	1	C	1	1	1085	1	Ⴔ	cut_s_stereo_44KHz.wav
3	32	2	2	1	C	1	1	1189	1	Ⴖ	cut_f_stereo_44KHz.wav
3	33	3	3	2	I	2	0	1172	0	Ⴕ	cut_ei_stereo_44KHz.wav
3	34	4	3	2	I	2	0	1015	0	Ⴏ	cut_ei_stereo_44KHz.wav
3	35	1	2	0	C	2	1	1063	1	Ⴔ	cut_f_stereo_44KHz.wav
3	36	2	1	0	C	2	1	872	1	Ⴖ	cut_s_stereo_44KHz.wav
3	37	1	1	1	C	1	1	797	1	Ⴔ	cut_s_stereo_44KHz.wav
3	38	4	4	2	I	1	0	1281	0	Ⴏ	cut_ui_stereo_44KHz.wav
3	39	3	4	2	I	2	0	1188	0	Ⴕ	cut_ui_stereo_44KHz.wav
3	40	2	2	1	C	1	1	913	1	Ⴖ	cut_f_stereo_44KHz.wav
3	41	3	4	2	I	1	0	1221	1	Ⴕ	cut_ui_stereo_44KHz.wav
3	42	4	4	2	I	2	0	677	0	Ⴏ	cut_ui_stereo_44KHz.wav
3	43	1	2	0	C	2	1	800	1	Ⴔ	cut_f_stereo_44KHz.wav
3	44	2	1	0	C	2	1	706	1	Ⴖ	cut_s_stereo_44KHz.wav
3	45	3	3	2	I	2	0	1850	1	Ⴕ	cut_ei_stereo_44KHz.wav
3	46	2	2	1	C	1	1	877	1	Ⴖ	cut_f_stereo_44KHz.wav
3	47	4	3	2	I	1	0	1033	0	Ⴏ	cut_ei_stereo_44KHz.wav
3	48	1	1	1	C	1	1	1276	1	Ⴔ	cut_s_stereo_44KHz.wav
3	49	2	1	0	C	2	1	1024	1	Ⴖ	cut_s_stereo_44KHz.wav
3	50	4	3	2	I	1	0	1438	0	Ⴏ	cut_ei_stereo_44KHz.wav
3	51	3	3	2	I	1	0	934	0	Ⴕ	cut_ei_stereo_44KHz.wav
3	52	1	1	1	C	1	1	1109	1	Ⴔ	cut_s_stereo_44KHz.wav
3	53	2	2	1	C	1	1	1443	1	Ⴖ	cut_f_stereo_44KHz.wav
3	54	4	4	2	I	2	0	1097	0	Ⴏ	cut_ui_stereo_44KHz.wav
3	55	1	2	0	C	2	1	890	1	Ⴔ	cut_f_stereo_44KHz.wav
3	56	3	4	2	I	2	0	916	0	Ⴕ	cut_ui_stereo_44KHz.wav
3	57	4	4	2	I	2	0	776	1	Ⴏ	cut_ui_stereo_44KHz.wav
3	58	1	2	0	C	2	1	1058	1	Ⴔ	cut_f_stereo_44KHz.wav
3	59	3	3	2	I	2	0	1333	0	Ⴕ	cut_ei_stereo_44KHz.wav
3	60	2	2	1	C	1	1	1055	1	Ⴖ	cut_f_stereo_44KHz.wav
3	61	4	3	2	I	2	0	1156	1	Ⴏ	cut_ei_stereo_44KHz.wav
3	62	1	1	1	C	1	1	819	1	Ⴔ	cut_s_stereo_44KHz.wav
3	63	3	4	2	I	2	0	907	1	Ⴕ	cut_ui_stereo_44KHz.wav
3	64	2	1	0	C	2	1	867	1	Ⴖ	cut_s_stereo_44KHz.wav
3	65	1	2	0	C	2	1	714	1	Ⴔ	cut_f_stereo_44KHz.wav
3	66	2	1	0	C	2	1	750	1	Ⴖ	cut_s_stereo_44KHz.wav
3	67	4	3	2	I	2	0	971	0	Ⴏ	cut_ei_stereo_44KHz.wav
3	68	3	4	2	I	2	0	1096	1	Ⴕ	cut_ui_stereo_44KHz.wav
3	69	4	4	2	I	1	0	1360	1	Ⴏ	cut_ui_stereo_44KHz.wav
3	70	3	3	2	I	1	0	1193	1	Ⴕ	cut_ei_stereo_44KHz.wav
3	71	2	2	1	C	1	1	920	1	Ⴖ	cut_f_stereo_44KHz.wav
3	72	1	1	1	C	1	1	958	1	Ⴔ	cut_s_stereo_44KHz.wav
3	73	3	3	2	I	1	0	1539	1	Ⴕ	cut_ei_stereo_44KHz.wav
3	74	4	3	2	I	2	0	934	1	Ⴏ	cut_ei_stereo_44KHz.wav
3	75	2	1	0	C	2	1	1098	1	Ⴖ	cut_s_stereo_44KHz.wav
3	76	1	1	1	C	1	1	986	1	Ⴔ	cut_s_stereo_44KHz.wav
3	77	3	4	2	I	2	0	1039	1	Ⴕ	cut_ui_stereo_44KHz.wav
3	78	4	4	2	I	1	0	724	1	Ⴏ	cut_ui_stereo_44KHz.wav
3	79	2	2	1	C	1	1	757	1	Ⴖ	cut_f_stereo_44KHz.wav
3	80	1	2	0	C	2	1	801	1	Ⴔ	cut_f_stereo_44KHz.wav
3	81	4	3	2	I	2	0	906	0	Ⴏ	cut_ei_stereo_44KHz.wav
3	82	1	1	1	C	1	1	871	1	Ⴔ	cut_s_stereo_44KHz.wav
3	83	3	4	2	I	2	0	829	0	Ⴕ	cut_ui_stereo_44KHz.wav
3	84	2	2	1	C	1	1	1635	1	Ⴖ	cut_f_stereo_44KHz.wav
3	85	3	3	2	I	1	0	1110	0	Ⴕ	cut_ei_stereo_44KHz.wav
3	86	2	1	0	C	2	1	872	1	Ⴖ	cut_s_stereo_44KHz.wav
3	87	4	4	2	I	2	0	1149	0	Ⴏ	cut_ui_stereo_44KHz.wav
3	88	1	2	0	C	2	1	834	1	Ⴔ	cut_f_stereo_44KHz.wav
3	89	3	4	2	I	2	0	1098	1	Ⴕ	cut_ui_stereo_44KHz.wav
3	90	1	2	0	C	2	1	943	1	Ⴔ	cut_f_stereo_44KHz.wav
3	91	4	3	2	I	2	0	930	1	Ⴏ	cut_ei_stereo_44KHz.wav
3	92	2	1	0	C	2	1	1369	1	Ⴖ	cut_s_stereo_44KHz.wav
3	93	1	1	1	C	1	1	965	1	Ⴔ	cut_s_stereo_44KHz.wav
3	94	4	4	2	I	1	0	1503	1	Ⴏ	cut_ui_stereo_44KHz.wav
3	95	2	2	1	C	1	1	1504	1	Ⴖ	cut_f_stereo_44KHz.wav
3	96	3	3	2	I	1	0	1104	0	Ⴕ	cut_ei_stereo_44KHz.wav
3	97	4	3	2	I	2	0	1141	0	Ⴏ	cut_ei_stereo_44KHz.wav
3	98	1	1	1	C	1	1	1060	1	Ⴔ	cut_s_stereo_44KHz.wav
3	99	3	3	2	I	2	0	985	1	Ⴕ	cut_ei_stereo_44KHz.wav
3	100	2	2	1	C	1	1	913	1	Ⴖ	cut_f_stereo_44KHz.wav
3	101	1	2	0	C	2	1	1049	1	Ⴔ	cut_f_stereo_44KHz.wav
3	102	2	1	0	C	2	1	755	1	Ⴖ	cut_s_stereo_44KHz.wav
3	103	4	4	2	I	1	0	971	1	Ⴏ	cut_ui_stereo_44KHz.wav
3	104	3	4	2	I	2	0	1125	0	Ⴕ	cut_ui_stereo_44KHz.wav
3	105	4	4	2	I	2	0	1103	1	Ⴏ	cut_ui_stereo_44KHz.wav
3	106	2	2	1	C	1	1	867	1	Ⴖ	cut_f_stereo_44KHz.wav
3	107	1	2	0	C	2	1	1185	1	Ⴔ	cut_f_stereo_44KHz.wav
3	108	3	4	2	I	2	0	1472	1	Ⴕ	cut_ui_stereo_44KHz.wav
3	109	1	1	1	C	1	1	1060	1	Ⴔ	cut_s_stereo_44KHz.wav
3	110	2	1	0	C	2	1	1038	1	Ⴖ	cut_s_stereo_44KHz.wav
3	111	4	3	2	I	2	0	1163	0	Ⴏ	cut_ei_stereo_44KHz.wav
3	112	3	3	2	I	2	0	1219	0	Ⴕ	cut_ei_stereo_44KHz.wav
3	113	2	1	0	C	2	1	782	1	Ⴖ	cut_s_stereo_44KHz.wav
3	114	4	4	2	I	1	0	940	1	Ⴏ	cut_ui_stereo_44KHz.wav
3	115	1	2	0	C	2	1	1090	1	Ⴔ	cut_f_stereo_44KHz.wav
3	116	3	4	2	I	2	0	1513	0	Ⴕ	cut_ui_stereo_44KHz.wav
3	117	2	2	1	C	1	1	828	1	Ⴖ	cut_f_stereo_44KHz.wav
3	118	1	1	1	C	1	1	1509	1	Ⴔ	cut_s_stereo_44KHz.wav
3	119	4	3	2	I	2	0	1070	0	Ⴏ	cut_ei_stereo_44KHz.wav
3	120	3	3	2	I	1	0	852	0	Ⴕ	cut_ei_stereo_44KHz.wav
3	121	2	2	1	C	1	1	1249	1	Ⴖ	cut_f_stereo_44KHz.wav
3	122	1	1	1	C	1	1	1434	1	Ⴔ	cut_s_stereo_44KHz.wav
3	123	3	4	2	I	1	0	1495	1	Ⴕ	cut_ui_stereo_44KHz.wav
3	124	4	3	2	I	2	0	1054	1	Ⴏ	cut_ei_stereo_44KHz.wav
3	125	1	2	0	C	2	1	1008	1	Ⴔ	cut_f_stereo_44KHz.wav
3	126	3	3	2	I	1	0	1348	0	Ⴕ	cut_ei_stereo_44KHz.wav
3	127	4	4	2	I	1	0	997	1	Ⴏ	cut_ui_stereo_44KHz.wav
3	128	2	1	0	C	2	1	921	1	Ⴖ	cut_s_stereo_44KHz.wav
3	129	3	4	2	I	1	0	1388	1	Ⴕ	cut_ui_stereo_44KHz.wav
3	130	1	2	0	C	2	1	794	1	Ⴔ	cut_f_stereo_44KHz.wav
3	131	2	2	1	C	1	1	1062	1	Ⴖ	cut_f_stereo_44KHz.wav
3	132	4	4	2	I	1	0	998	0	Ⴏ	cut_ui_stereo_44KHz.wav
3	133	1	1	1	C	1	1	848	1	Ⴔ	cut_s_stereo_44KHz.wav
3	134	3	3	2	I	2	0	1042	1	Ⴕ	cut_ei_stereo_44KHz.wav
3	135	4	3	2	I	1	0	958	0	Ⴏ	cut_ei_stereo_44KHz.wav
3	136	2	1	0	C	2	1	1510	1	Ⴖ	cut_s_stereo_44KHz.wav
3	137	1	1	1	C	1	1	868	1	Ⴔ	cut_s_stereo_44KHz.wav
3	138	3	3	2	I	2	0	1051	0	Ⴕ	cut_ei_stereo_44KHz.wav
3	139	2	2	1	C	1	1	1415	1	Ⴖ	cut_f_stereo_44KHz.wav
3	140	4	4	2	I	2	0	963	1	Ⴏ	cut_ui_stereo_44KHz.wav
3	141	2	1	0	C	2	1	1007	1	Ⴖ	cut_s_stereo_44KHz.wav
3	142	1	2	0	C	2	1	905	1	Ⴔ	cut_f_stereo_44KHz.wav
3	143	4	3	2	I	1	0	1334	1	Ⴏ	cut_ei_stereo_44KHz.wav
3	144	3	4	2	I	1	0	1665	1	Ⴕ	cut_ui_stereo_44KHz.wav
3	145	1	2	0	C	2	1	883	1	Ⴔ	cut_f_stereo_44KHz.wav
3	146	4	4	2	I	2	0	1311	1	Ⴏ	cut_ui_stereo_44KHz.wav
3	147	3	4	2	I	1	0	756	1	Ⴕ	cut_ui_stereo_44KHz.wav
3	148	2	1	0	C	2	1	897	1	Ⴖ	cut_s_stereo_44KHz.wav
3	149	4	3	2	I	1	0	1184	0	Ⴏ	cut_ei_stereo_44KHz.wav
3	150	3	3	2	I	2	0	912	0	Ⴕ	cut_ei_stereo_44KHz.wav
3	151	2	2	1	C	0	0	0	0	Ⴖ	cut_f_stereo_44KHz.wav
3	152	1	1	1	C	1	1	1173	1	Ⴔ	cut_s_stereo_44KHz.wav
3	153	4	3	2	I	1	0	1432	0	Ⴏ	cut_ei_stereo_44KHz.wav
3	154	2	1	0	C	2	1	941	1	Ⴖ	cut_s_stereo_44KHz.wav
3	155	3	4	2	I	2	0	1282	0	Ⴕ	cut_ui_stereo_44KHz.wav
3	156	1	2	0	C	2	1	775	1	Ⴔ	cut_f_stereo_44KHz.wav
3	157	3	3	2	I	2	0	773	1	Ⴕ	cut_ei_stereo_44KHz.wav
3	158	1	1	1	C	1	1	891	1	Ⴔ	cut_s_stereo_44KHz.wav
3	159	2	2	1	C	1	1	1199	1	Ⴖ	cut_f_stereo_44KHz.wav
3	160	4	4	2	I	2	0	1201	0	Ⴏ	cut_ui_stereo_44KHz.wav
3	161	2	1	0	C	2	1	776	1	Ⴖ	cut_s_stereo_44KHz.wav
3	162	3	3	2	I	2	0	932	1	Ⴕ	cut_ei_stereo_44KHz.wav
3	163	4	3	2	I	1	0	738	1	Ⴏ	cut_ei_stereo_44KHz.wav
3	164	1	1	1	C	1	1	917	1	Ⴔ	cut_s_stereo_44KHz.wav
3	165	2	2	1	C	1	1	1302	1	Ⴖ	cut_f_stereo_44KHz.wav
3	166	3	4	2	I	1	0	1411	0	Ⴕ	cut_ui_stereo_44KHz.wav
3	167	1	2	0	C	2	1	936	1	Ⴔ	cut_f_stereo_44KHz.wav
3	168	4	4	2	I	2	0	1479	1	Ⴏ	cut_ui_stereo_44KHz.wav
3	169	3	3	2	I	1	0	1593	1	Ⴕ	cut_ei_stereo_44KHz.wav
3	170	4	4	2	I	1	0	1662	1	Ⴏ	cut_ui_stereo_44KHz.wav
3	171	1	1	1	C	1	1	814	1	Ⴔ	cut_s_stereo_44KHz.wav
3	172	2	1	0	C	2	1	1067	1	Ⴖ	cut_s_stereo_44KHz.wav
3	173	4	3	2	I	2	0	1293	0	Ⴏ	cut_ei_stereo_44KHz.wav
3	174	2	2	1	C	1	1	885	1	Ⴖ	cut_f_stereo_44KHz.wav
3	175	1	2	0	C	2	1	789	1	Ⴔ	cut_f_stereo_44KHz.wav
3	176	3	4	2	I	2	0	1089	0	Ⴕ	cut_ui_stereo_44KHz.wav
3	177	1	1	1	C	1	1	806	1	Ⴔ	cut_s_stereo_44KHz.wav
3	178	3	4	2	I	1	0	994	1	Ⴕ	cut_ui_stereo_44KHz.wav
3	179	4	4	2	I	2	0	720	1	Ⴏ	cut_ui_stereo_44KHz.wav
3	180	2	1	0	C	2	1	778	1	Ⴖ	cut_s_stereo_44KHz.wav
3	181	3	3	2	I	2	0	1300	0	Ⴕ	cut_ei_stereo_44KHz.wav
3	182	2	2	1	C	1	1	987	1	Ⴖ	cut_f_stereo_44KHz.wav
3	183	1	2	0	C	2	1	829	1	Ⴔ	cut_f_stereo_44KHz.wav
3	184	4	3	2	I	2	0	1255	1	Ⴏ	cut_ei_stereo_44KHz.wav
3	185	2	2	1	C	1	1	1295	1	Ⴖ	cut_f_stereo_44KHz.wav
3	186	3	3	2	I	1	0	799	0	Ⴕ	cut_ei_stereo_44KHz.wav
3	187	1	1	1	C	1	1	1394	1	Ⴔ	cut_s_stereo_44KHz.wav
3	188	4	4	2	I	1	0	1386	1	Ⴏ	cut_ui_stereo_44KHz.wav
3	189	2	1	0	C	2	1	780	1	Ⴖ	cut_s_stereo_44KHz.wav
3	190	3	4	2	I	1	0	1416	0	Ⴕ	cut_ui_stereo_44KHz.wav
3	191	1	2	0	C	2	1	910	1	Ⴔ	cut_f_stereo_44KHz.wav
3	192	4	3	2	I	2	0	1209	0	Ⴏ	cut_ei_stereo_44KHz.wav
3	193	2	1	0	C	2	1	931	1	Ⴖ	cut_s_stereo_44KHz.wav
3	194	4	4	2	I	2	0	1127	0	Ⴏ	cut_ui_stereo_44KHz.wav
3	195	3	3	2	I	2	0	756	1	Ⴕ	cut_ei_stereo_44KHz.wav
3	196	1	2	0	C	2	1	913	1	Ⴔ	cut_f_stereo_44KHz.wav
3	197	3	4	2	I	1	0	1372	0	Ⴕ	cut_ui_stereo_44KHz.wav
3	198	1	1	1	C	1	1	883	1	Ⴔ	cut_s_stereo_44KHz.wav
3	199	2	2	1	C	1	1	900	1	Ⴖ	cut_f_stereo_44KHz.wav
3	200	4	3	2	I	2	0	822	0	Ⴏ	cut_ei_stereo_44KHz.wav
4	1	2	2	1	C	2	0	1378	0	Ⴡ	cut_j_stereo_44KHz.wav
4	2	1	2	0	C	2	1	808	1	Ⴟ	cut_j_stereo_44KHz.wav
4	3	3	4	2	I	2	0	1430	0	Ⴜ	cut_r_stereo_44KHz.wav
4	4	4	4	2	I	2	0	729	1	Ⴁ	cut_r_stereo_44KHz.wav
4	5	2	1	0	C	1	0	1209	0	Ⴡ	cut_oei_stereo_44KHz.wav
4	6	1	1	1	C	1	1	973	1	Ⴟ	cut_oei_stereo_44KHz.wav
4	7	3	3	2	I	2	0	1233	1	Ⴜ	cut_n_stereo_44KHz.wav
4	8	4	3	2	I	1	0	720	0	Ⴁ	cut_n_stereo_44KHz.wav
4	9	2	1	0	C	2	1	1060	1	Ⴡ	cut_oei_stereo_44KHz.wav
4	10	1	1	1	C	1	1	907	1	Ⴟ	cut_oei_stereo_44KHz.wav
4	11	4	4	2	I	2	0	1218	0	Ⴁ	cut_r_stereo_44KHz.wav
4	12	3	3	2	I	2	0	743	0	Ⴜ	cut_n_stereo_44KHz.wav
4	13	2	2	1	C	1	1	919	1	Ⴡ	cut_j_stereo_44KHz.wav
4	14	3	4	2	I	2	0	1269	0	Ⴜ	cut_r_stereo_44KHz.wav
4	15	1	2	0	C	2	1	1225	1	Ⴟ	cut_j_stereo_44KHz.wav
4	16	4	3	2	I	1	0	1485	1	Ⴁ	cut_n_stereo_44KHz.wav
4	17	1	2	0	C	2	1	929	1	Ⴟ	cut_j_stereo_44KHz.wav
4	18	3	3	2	I	2	0	1488	1	Ⴜ	cut_n_stereo_44KHz.wav
4	19	2	2	1	C	1	1	1089	1	Ⴡ	cut_j_stereo_44KHz.wav
4	20	4	3	2	I	1	0	1257	0	Ⴁ	cut_n_stereo_44KHz.wav
4	21	3	4	2	I	2	0	1474	0	Ⴜ	cut_r_stereo_44KHz.wav
4	22	4	4	2	I	2	0	933	0	Ⴁ	cut_r_stereo_44KHz.wav
4	23	2	1	0	C	2	1	878	1	Ⴡ	cut_oei_stereo_44KHz.wav
4	24	1	1	1	C	1	1	669	1	Ⴟ	cut_oei_stereo_44KHz.wav
4	25	3	3	2	I	2	0	1352	0	Ⴜ	cut_n_stereo_44KHz.wav
4	26	2	1	0	C	2	1	718	1	Ⴡ	cut_oei_stereo_44KHz.wav
4	27	4	4	2	I	1	0	1677	1	Ⴁ	cut_r_stereo_44KHz.wav
4	28	1	2	0	C	2	1	779	1	Ⴟ	cut_j_stereo_44KHz.wav
4	29	3	4	2	I	2	0	1219	0	Ⴜ	cut_r_stereo_44KHz.wav
4	30	2	2	1	C	1	1	882	1	Ⴡ	cut_j_stereo_44KHz.wav
4	31	4	3	2	I	1	0	1330	1	Ⴁ	cut_n_stereo_44KHz.wav
4	32	1	1	1	C	1	1	842	1	Ⴟ	cut_oei_stereo_44KHz.wav
4	33	4	3	2	I	1	0	1444	1	Ⴁ	cut_n_stereo_44KHz.wav
4	34	2	2	1	C	1	1	868	1	Ⴡ	cut_j_stereo_44KHz.wav
4	35	1	1	1	C	1	1	817	1	Ⴟ	cut_oei_stereo_44KHz.wav
4	36	3	4	2	I	1	0	1804	0	Ⴜ	cut_r_stereo_44KHz.wav
4	37	4	4	2	I	2	0	1416	0	Ⴁ	cut_r_stereo_44KHz.wav
4	38	3	3	2	I	2	0	1274	1	Ⴜ	cut_n_stereo_44KHz.wav
4	39	2	1	0	C	2	1	797	1	Ⴡ	cut_oei_stereo_44KHz.wav
4	40	1	2	0	C	2	1	870	1	Ⴟ	cut_j_stereo_44KHz.wav
4	41	3	3	2	I	2	0	689	0	Ⴜ	cut_n_stereo_44KHz.wav
4	42	4	4	2	I	1	0	1533	0	Ⴁ	cut_r_stereo_44KHz.wav
4	43	2	1	0	C	2	1	717	1	Ⴡ	cut_oei_stereo_44KHz.wav
4	44	1	2	0	C	2	1	574	1	Ⴟ	cut_j_stereo_44KHz.wav
4	45	3	4	2	I	1	0	1348	1	Ⴜ	cut_r_stereo_44KHz.wav
4	46	2	2	1	C	1	1	782	1	Ⴡ	cut_j_stereo_44KHz.wav
4	47	1	1	1	C	1	1	1026	1	Ⴟ	cut_oei_stereo_44KHz.wav
4	48	4	3	2	I	2	0	1081	1	Ⴁ	cut_n_stereo_44KHz.wav
4	49	3	3	2	I	1	0	960	0	Ⴜ	cut_n_stereo_44KHz.wav
4	50	2	1	0	C	2	1	741	1	Ⴡ	cut_oei_stereo_44KHz.wav
4	51	1	1	1	C	1	1	784	1	Ⴟ	cut_oei_stereo_44KHz.wav
4	52	4	4	2	I	2	0	1072	0	Ⴁ	cut_r_stereo_44KHz.wav
4	53	3	4	2	I	1	0	956	1	Ⴜ	cut_r_stereo_44KHz.wav
4	54	2	2	1	C	1	1	903	1	Ⴡ	cut_j_stereo_44KHz.wav
4	55	4	3	2	I	2	0	1478	0	Ⴁ	cut_n_stereo_44KHz.wav
4	56	1	2	0	C	2	1	852	1	Ⴟ	cut_j_stereo_44KHz.wav
4	57	2	2	1	C	1	1	1028	1	Ⴡ	cut_j_stereo_44KHz.wav
4	58	3	3	2	I	1	0	1577	0	Ⴜ	cut_n_stereo_44KHz.wav
4	59	1	1	1	C	1	1	1003	1	Ⴟ	cut_oei_stereo_44KHz.wav
4	60	4	4	2	I	2	0	812	0	Ⴁ	cut_r_stereo_44KHz.wav
4	61	3	4	2	I	1	0	1252	0	Ⴜ	cut_r_stereo_44KHz.wav
4	62	2	1	0	C	2	1	916	1	Ⴡ	cut_oei_stereo_44KHz.wav
4	63	1	2	0	C	2	1	907	1	Ⴟ	cut_j_stereo_44KHz.wav
4	64	4	3	2	I	2	0	1346	1	Ⴁ	cut_n_stereo_44KHz.wav
4	65	2	2	1	C	1	1	961	1	Ⴡ	cut_j_stereo_44KHz.wav
4	66	4	3	2	I	1	0	1071	1	Ⴁ	cut_n_stereo_44KHz.wav
4	67	1	1	1	C	1	1	816	1	Ⴟ	cut_oei_stereo_44KHz.wav
4	68	3	3	2	I	2	0	1142	0	Ⴜ	cut_n_stereo_44KHz.wav
4	69	2	1	0	C	2	1	825	1	Ⴡ	cut_oei_stereo_44KHz.wav
4	70	4	4	2	I	1	0	1394	0	Ⴁ	cut_r_stereo_44KHz.wav
4	71	1	2	0	C	2	1	818	1	Ⴟ	cut_j_stereo_44KHz.wav
4	72	3	4	2	I	1	0	1188	1	Ⴜ	cut_r_stereo_44KHz.wav
4	73	2	2	1	C	1	1	861	1	Ⴡ	cut_j_stereo_44KHz.wav
4	74	3	4	2	I	1	0	1279	1	Ⴜ	cut_r_stereo_44KHz.wav
4	75	4	4	2	I	0	0	0	0	Ⴁ	cut_r_stereo_44KHz.wav
4	76	1	1	1	C	1	1	827	1	Ⴟ	cut_oei_stereo_44KHz.wav
4	77	2	1	0	C	1	0	999	0	Ⴡ	cut_oei_stereo_44KHz.wav
4	78	3	3	2	I	2	0	1328	0	Ⴜ	cut_n_stereo_44KHz.wav
4	79	4	3	2	I	1	0	954	0	Ⴁ	cut_n_stereo_44KHz.wav
4	80	1	2	0	C	2	1	906	1	Ⴟ	cut_j_stereo_44KHz.wav
4	81	4	4	2	I	2	0	971	1	Ⴁ	cut_r_stereo_44KHz.wav
4	82	2	1	0	C	2	1	887	1	Ⴡ	cut_oei_stereo_44KHz.wav
4	83	1	1	1	C	1	1	738	1	Ⴟ	cut_oei_stereo_44KHz.wav
4	84	3	4	2	I	1	0	1730	1	Ⴜ	cut_r_stereo_44KHz.wav
4	85	2	2	1	C	1	1	878	1	Ⴡ	cut_j_stereo_44KHz.wav
4	86	1	2	0	C	2	1	797	1	Ⴟ	cut_j_stereo_44KHz.wav
4	87	4	3	2	I	1	0	1466	0	Ⴁ	cut_n_stereo_44KHz.wav
4	88	3	3	2	I	1	0	906	1	Ⴜ	cut_n_stereo_44KHz.wav
4	89	2	2	1	C	1	1	1027	1	Ⴡ	cut_j_stereo_44KHz.wav
4	90	1	1	1	C	1	1	859	1	Ⴟ	cut_oei_stereo_44KHz.wav
4	91	3	4	2	I	1	0	1484	1	Ⴜ	cut_r_stereo_44KHz.wav
4	92	4	3	2	I	2	0	1027	0	Ⴁ	cut_n_stereo_44KHz.wav
4	93	3	3	2	I	1	0	1063	1	Ⴜ	cut_n_stereo_44KHz.wav
4	94	2	1	0	C	2	1	888	1	Ⴡ	cut_oei_stereo_44KHz.wav
4	95	4	4	2	I	2	0	761	1	Ⴁ	cut_r_stereo_44KHz.wav
4	96	1	2	0	C	2	1	875	1	Ⴟ	cut_j_stereo_44KHz.wav
4	97	2	2	1	C	1	1	892	1	Ⴡ	cut_j_stereo_44KHz.wav
4	98	1	1	1	C	1	1	887	1	Ⴟ	cut_oei_stereo_44KHz.wav
4	99	3	3	2	I	2	0	1020	0	Ⴜ	cut_n_stereo_44KHz.wav
4	100	4	4	2	I	2	0	732	0	Ⴁ	cut_r_stereo_44KHz.wav
4	101	3	4	2	I	2	0	1012	0	Ⴜ	cut_r_stereo_44KHz.wav
4	102	2	1	0	C	2	1	822	1	Ⴡ	cut_oei_stereo_44KHz.wav
4	103	1	2	0	C	2	1	937	1	Ⴟ	cut_j_stereo_44KHz.wav
4	104	4	3	2	I	2	0	1247	1	Ⴁ	cut_n_stereo_44KHz.wav
4	105	3	3	2	I	1	0	1002	1	Ⴜ	cut_n_stereo_44KHz.wav
4	106	1	2	0	C	2	1	799	1	Ⴟ	cut_j_stereo_44KHz.wav
4	107	4	4	2	I	1	0	1490	0	Ⴁ	cut_r_stereo_44KHz.wav
4	108	2	1	0	C	2	1	812	1	Ⴡ	cut_oei_stereo_44KHz.wav
4	109	1	1	1	C	1	1	1227	1	Ⴟ	cut_oei_stereo_44KHz.wav
4	110	2	2	1	C	1	1	991	1	Ⴡ	cut_j_stereo_44KHz.wav
4	111	3	4	2	I	2	0	1166	1	Ⴜ	cut_r_stereo_44KHz.wav
4	112	4	3	2	I	2	0	1563	1	Ⴁ	cut_n_stereo_44KHz.wav
4	113	2	2	1	C	1	1	965	1	Ⴡ	cut_j_stereo_44KHz.wav
4	114	1	1	1	C	1	1	1264	1	Ⴟ	cut_oei_stereo_44KHz.wav
4	115	3	4	2	I	2	0	1545	0	Ⴜ	cut_r_stereo_44KHz.wav
4	116	4	3	2	I	1	0	1768	1	Ⴁ	cut_n_stereo_44KHz.wav
4	117	1	2	0	C	2	1	809	1	Ⴟ	cut_j_stereo_44KHz.wav
4	118	4	4	2	I	2	0	1631	1	Ⴁ	cut_r_stereo_44KHz.wav
4	119	3	3	2	I	2	0	1022	0	Ⴜ	cut_n_stereo_44KHz.wav
4	120	2	1	0	C	2	1	817	1	Ⴡ	cut_oei_stereo_44KHz.wav
4	121	4	4	2	I	2	0	1460	1	Ⴁ	cut_r_stereo_44KHz.wav
4	122	1	2	0	C	2	1	832	1	Ⴟ	cut_j_stereo_44KHz.wav
4	123	2	1	0	C	2	1	862	1	Ⴡ	cut_oei_stereo_44KHz.wav
4	124	3	3	2	I	1	0	849	1	Ⴜ	cut_n_stereo_44KHz.wav
4	125	1	1	1	C	1	1	1056	1	Ⴟ	cut_oei_stereo_44KHz.wav
4	126	3	4	2	I	2	0	1148	0	Ⴜ	cut_r_stereo_44KHz.wav
4	127	2	2	1	C	1	1	1176	1	Ⴡ	cut_j_stereo_44KHz.wav
4	128	4	3	2	I	2	0	1452	1	Ⴁ	cut_n_stereo_44KHz.wav
4	129	2	1	0	C	2	1	1066	1	Ⴡ	cut_oei_stereo_44KHz.wav
4	130	3	4	2	I	1	0	1785	0	Ⴜ	cut_r_stereo_44KHz.wav
4	131	1	2	0	C	2	1	894	1	Ⴟ	cut_j_stereo_44KHz.wav
4	132	4	4	2	I	2	0	1316	1	Ⴁ	cut_r_stereo_44KHz.wav
4	133	3	3	2	I	2	0	1143	0	Ⴜ	cut_n_stereo_44KHz.wav
4	134	1	1	1	C	1	1	1169	1	Ⴟ	cut_oei_stereo_44KHz.wav
4	135	2	2	1	C	1	1	1000	1	Ⴡ	cut_j_stereo_44KHz.wav
4	136	4	3	2	I	2	0	1579	1	Ⴁ	cut_n_stereo_44KHz.wav
4	137	2	2	1	C	1	1	942	1	Ⴡ	cut_j_stereo_44KHz.wav
4	138	4	4	2	I	1	0	1405	0	Ⴁ	cut_r_stereo_44KHz.wav
4	139	1	1	1	C	1	1	1762	1	Ⴟ	cut_oei_stereo_44KHz.wav
4	140	3	3	2	I	2	0	874	1	Ⴜ	cut_n_stereo_44KHz.wav
4	141	4	3	2	I	1	0	1177	0	Ⴁ	cut_n_stereo_44KHz.wav
4	142	1	2	0	C	2	1	853	1	Ⴟ	cut_j_stereo_44KHz.wav
4	143	3	4	2	I	2	0	1019	1	Ⴜ	cut_r_stereo_44KHz.wav
4	144	2	1	0	C	2	1	797	1	Ⴡ	cut_oei_stereo_44KHz.wav
4	145	3	3	2	I	1	0	1039	0	Ⴜ	cut_n_stereo_44KHz.wav
4	146	4	3	2	I	2	0	1361	1	Ⴁ	cut_n_stereo_44KHz.wav
4	147	2	1	0	C	2	1	900	1	Ⴡ	cut_oei_stereo_44KHz.wav
4	148	1	2	0	C	2	1	1228	1	Ⴟ	cut_j_stereo_44KHz.wav
4	149	3	4	2	I	1	0	1421	1	Ⴜ	cut_r_stereo_44KHz.wav
4	150	2	2	1	C	1	1	1091	1	Ⴡ	cut_j_stereo_44KHz.wav
4	151	4	4	2	I	2	0	1054	0	Ⴁ	cut_r_stereo_44KHz.wav
4	152	1	1	1	C	1	1	1024	1	Ⴟ	cut_oei_stereo_44KHz.wav
4	153	3	3	2	I	2	0	1001	1	Ⴜ	cut_n_stereo_44KHz.wav
4	154	1	1	1	C	1	1	781	1	Ⴟ	cut_oei_stereo_44KHz.wav
4	155	4	3	2	I	1	0	1565	1	Ⴁ	cut_n_stereo_44KHz.wav
4	156	2	2	1	C	1	1	1034	1	Ⴡ	cut_j_stereo_44KHz.wav
4	157	1	2	0	C	2	1	837	1	Ⴟ	cut_j_stereo_44KHz.wav
4	158	3	4	2	I	2	0	692	1	Ⴜ	cut_r_stereo_44KHz.wav
4	159	4	4	2	I	2	0	1078	0	Ⴁ	cut_r_stereo_44KHz.wav
4	160	2	1	0	C	2	1	797	1	Ⴡ	cut_oei_stereo_44KHz.wav
4	161	1	2	0	C	2	1	1027	1	Ⴟ	cut_j_stereo_44KHz.wav
4	162	2	2	1	C	1	1	1498	1	Ⴡ	cut_j_stereo_44KHz.wav
4	163	4	3	2	I	2	0	1501	1	Ⴁ	cut_n_stereo_44KHz.wav
4	164	3	3	2	I	1	0	1370	0	Ⴜ	cut_n_stereo_44KHz.wav
4	165	4	4	2	I	2	0	1393	0	Ⴁ	cut_r_stereo_44KHz.wav
4	166	3	4	2	I	2	0	778	1	Ⴜ	cut_r_stereo_44KHz.wav
4	167	2	1	0	C	2	1	1444	1	Ⴡ	cut_oei_stereo_44KHz.wav
4	168	1	1	1	C	1	1	935	1	Ⴟ	cut_oei_stereo_44KHz.wav
4	169	3	3	2	I	2	0	1037	1	Ⴜ	cut_n_stereo_44KHz.wav
4	170	4	3	2	I	2	0	1403	0	Ⴁ	cut_n_stereo_44KHz.wav
4	171	1	1	1	C	1	1	877	1	Ⴟ	cut_oei_stereo_44KHz.wav
4	172	2	2	1	C	1	1	952	1	Ⴡ	cut_j_stereo_44KHz.wav
4	173	1	2	0	C	1	0	1329	0	Ⴟ	cut_j_stereo_44KHz.wav
4	174	4	4	2	I	2	0	954	1	Ⴁ	cut_r_stereo_44KHz.wav
4	175	2	1	0	C	2	1	925	1	Ⴡ	cut_oei_stereo_44KHz.wav
4	176	3	4	2	I	2	0	827	1	Ⴜ	cut_r_stereo_44KHz.wav
4	177	2	2	1	C	1	1	1601	1	Ⴡ	cut_j_stereo_44KHz.wav
4	178	3	3	2	I	1	0	1792	1	Ⴜ	cut_n_stereo_44KHz.wav
4	179	4	3	2	I	2	0	1589	0	Ⴁ	cut_n_stereo_44KHz.wav
4	180	1	2	0	C	2	1	860	1	Ⴟ	cut_j_stereo_44KHz.wav
4	181	3	4	2	I	2	0	1185	0	Ⴜ	cut_r_stereo_44KHz.wav
4	182	4	4	2	I	2	0	838	1	Ⴁ	cut_r_stereo_44KHz.wav
4	183	2	1	0	C	2	1	798	1	Ⴡ	cut_oei_stereo_44KHz.wav
4	184	1	1	1	C	1	1	1051	1	Ⴟ	cut_oei_stereo_44KHz.wav
4	185	3	4	2	I	2	0	1347	1	Ⴜ	cut_r_stereo_44KHz.wav
4	186	2	1	0	C	2	1	773	1	Ⴡ	cut_oei_stereo_44KHz.wav
4	187	4	4	2	I	1	0	1113	0	Ⴁ	cut_r_stereo_44KHz.wav
4	188	1	2	0	C	2	1	941	1	Ⴟ	cut_j_stereo_44KHz.wav
4	189	2	2	1	C	1	1	1314	1	Ⴡ	cut_j_stereo_44KHz.wav
4	190	3	3	2	I	1	0	1445	0	Ⴜ	cut_n_stereo_44KHz.wav
4	191	4	3	2	I	2	0	1384	0	Ⴁ	cut_n_stereo_44KHz.wav
4	192	1	1	1	C	1	1	1116	1	Ⴟ	cut_oei_stereo_44KHz.wav
4	193	4	4	2	I	2	0	1206	1	Ⴁ	cut_r_stereo_44KHz.wav
4	194	1	1	1	C	1	1	1129	1	Ⴟ	cut_oei_stereo_44KHz.wav
4	195	2	2	1	C	1	1	1267	1	Ⴡ	cut_j_stereo_44KHz.wav
4	196	3	4	2	I	2	0	1199	0	Ⴜ	cut_r_stereo_44KHz.wav
4	197	1	2	0	C	2	1	1216	1	Ⴟ	cut_j_stereo_44KHz.wav
4	198	4	3	2	I	2	0	1313	0	Ⴁ	cut_n_stereo_44KHz.wav
4	199	3	3	2	I	2	0	1053	1	Ⴜ	cut_n_stereo_44KHz.wav
4	200	2	1	0	C	2	1	1044	1	Ⴡ	cut_oei_stereo_44KHz.wav
