block	trial	Vstim	Astim	match	C/I	resp	result	RT	fb	V-file	A-file
RL

0	1	1	2	0	C	2	1	1731	1	poli_8sides 22_whiteLine3.jpg	Practice4_b26_stereo_44KHz.wav
0	2	2	4	0	C	2	1	1060	1	poli_8sides 24_whiteLine3.jpg	Practice3_b26_cut1_stereo_44KHz.wav
0	3	1	1	1	C	1	1	783	1	poli_8sides 22_whiteLine3.jpg	Practice1_b27_cut1_stereo_44KHz.wav
0	4	2	3	1	C	2	0	1005	0	poli_8sides 24_whiteLine3.jpg	Practice2_b27_cut2_stereo_44KHz.wav
0	5	1	1	1	C	1	1	1695	1	poli_8sides 22_whiteLine3.jpg	Practice1_b27_cut1_stereo_44KHz.wav
0	6	2	3	1	C	1	1	846	1	poli_8sides 24_whiteLine3.jpg	Practice2_b27_cut2_stereo_44KHz.wav
0	7	2	4	0	C	2	1	1000	1	poli_8sides 24_whiteLine3.jpg	Practice3_b26_cut1_stereo_44KHz.wav
0	8	1	2	0	C	2	1	672	1	poli_8sides 22_whiteLine3.jpg	Practice4_b26_stereo_44KHz.wav
0	9	2	3	1	C	1	1	1213	1	poli_8sides 24_whiteLine3.jpg	Practice2_b27_cut2_stereo_44KHz.wav
0	10	2	4	0	C	2	1	1084	1	poli_8sides 24_whiteLine3.jpg	Practice3_b26_cut1_stereo_44KHz.wav
0	11	1	2	0	C	2	1	635	1	poli_8sides 22_whiteLine3.jpg	Practice4_b26_stereo_44KHz.wav
0	12	1	1	1	C	1	1	813	1	poli_8sides 22_whiteLine3.jpg	Practice1_b27_cut1_stereo_44KHz.wav
0	13	2	4	0	C	2	1	967	1	poli_8sides 24_whiteLine3.jpg	Practice3_b26_cut1_stereo_44KHz.wav
0	14	1	1	1	C	1	1	1200	1	poli_8sides 22_whiteLine3.jpg	Practice1_b27_cut1_stereo_44KHz.wav
0	15	2	3	1	C	1	1	1262	1	poli_8sides 24_whiteLine3.jpg	Practice2_b27_cut2_stereo_44KHz.wav
0	16	1	2	0	C	2	1	479	1	poli_8sides 22_whiteLine3.jpg	Practice4_b26_stereo_44KHz.wav
0	17	1	1	1	C	1	1	1062	1	poli_8sides 22_whiteLine3.jpg	Practice1_b27_cut1_stereo_44KHz.wav
0	18	1	2	0	C	2	1	554	1	poli_8sides 22_whiteLine3.jpg	Practice4_b26_stereo_44KHz.wav
0	19	2	3	1	C	1	1	716	1	poli_8sides 24_whiteLine3.jpg	Practice2_b27_cut2_stereo_44KHz.wav
0	20	2	4	0	C	2	1	1270	1	poli_8sides 24_whiteLine3.jpg	Practice3_b26_cut1_stereo_44KHz.wav
0	21	1	2	0	C	2	1	692	1	poli_8sides 22_whiteLine3.jpg	Practice4_b26_stereo_44KHz.wav
0	22	1	1	1	C	1	1	915	1	poli_8sides 22_whiteLine3.jpg	Practice1_b27_cut1_stereo_44KHz.wav
0	23	2	3	1	C	2	0	1033	0	poli_8sides 24_whiteLine3.jpg	Practice2_b27_cut2_stereo_44KHz.wav
0	24	2	4	0	C	2	1	898	1	poli_8sides 24_whiteLine3.jpg	Practice3_b26_cut1_stereo_44KHz.wav
0	25	2	3	1	C	1	1	877	1	poli_8sides 24_whiteLine3.jpg	Practice2_b27_cut2_stereo_44KHz.wav
0	26	1	1	1	C	1	1	826	1	poli_8sides 22_whiteLine3.jpg	Practice1_b27_cut1_stereo_44KHz.wav
0	27	1	2	0	C	2	1	603	1	poli_8sides 22_whiteLine3.jpg	Practice4_b26_stereo_44KHz.wav
0	28	2	4	0	C	2	1	950	1	poli_8sides 24_whiteLine3.jpg	Practice3_b26_cut1_stereo_44KHz.wav
0	29	1	2	0	C	2	1	1260	1	poli_8sides 22_whiteLine3.jpg	Practice4_b26_stereo_44KHz.wav
0	30	2	3	1	C	1	1	1280	1	poli_8sides 24_whiteLine3.jpg	Practice2_b27_cut2_stereo_44KHz.wav
avg_resp = 977
1	1	4	3	2	I	2	0	1673	0	poli_8sides 5_whiteLine3.jpg	Medium_e13_stereo_44KHz.wav
1	2	1	2	0	C	2	1	1712	1	poli_8sides 11_whiteLine3.jpg	MediumLong_e04_stereo_44KHz.wav
1	3	3	3	2	I	2	0	1336	0	poli_8sides 15_whiteLine3.jpg	Medium_e13_stereo_44KHz.wav
1	4	2	2	1	C	1	1	1119	1	poli_8sides 2_whiteLine3.jpg	MediumLong_e04_stereo_44KHz.wav
1	5	1	1	1	C	1	1	1281	1	poli_8sides 11_whiteLine3.jpg	MediumLong_e17_cut2_stereo_44KHz.wav
1	6	2	1	0	C	2	1	1341	1	poli_8sides 2_whiteLine3.jpg	MediumLong_e17_cut2_stereo_44KHz.wav
1	7	3	4	2	I	2	0	1529	1	poli_8sides 15_whiteLine3.jpg	MediumLong_b10_cut2_L_stereo_44KHz.wav
1	8	4	4	2	I	1	0	800	1	poli_8sides 5_whiteLine3.jpg	MediumLong_b10_cut2_L_stereo_44KHz.wav
1	9	2	2	1	C	1	1	1343	1	poli_8sides 2_whiteLine3.jpg	MediumLong_e04_stereo_44KHz.wav
1	10	1	1	1	C	2	0	1543	0	poli_8sides 11_whiteLine3.jpg	MediumLong_e17_cut2_stereo_44KHz.wav
1	11	3	4	2	I	2	0	1230	1	poli_8sides 15_whiteLine3.jpg	MediumLong_b10_cut2_L_stereo_44KHz.wav
1	12	4	3	2	I	2	0	1293	1	poli_8sides 5_whiteLine3.jpg	Medium_e13_stereo_44KHz.wav
1	13	2	1	0	C	1	0	1337	0	poli_8sides 2_whiteLine3.jpg	MediumLong_e17_cut2_stereo_44KHz.wav
1	14	3	3	2	I	1	0	1371	0	poli_8sides 15_whiteLine3.jpg	Medium_e13_stereo_44KHz.wav
1	15	4	4	2	I	1	0	1294	0	poli_8sides 5_whiteLine3.jpg	MediumLong_b10_cut2_L_stereo_44KHz.wav
1	16	1	2	0	C	2	1	1123	1	poli_8sides 11_whiteLine3.jpg	MediumLong_e04_stereo_44KHz.wav
1	17	2	2	1	C	1	1	1048	1	poli_8sides 2_whiteLine3.jpg	MediumLong_e04_stereo_44KHz.wav
1	18	1	1	1	C	1	1	1207	1	poli_8sides 11_whiteLine3.jpg	MediumLong_e17_cut2_stereo_44KHz.wav
1	19	4	3	2	I	2	0	1296	1	poli_8sides 5_whiteLine3.jpg	Medium_e13_stereo_44KHz.wav
1	20	3	3	2	I	1	0	1096	0	poli_8sides 15_whiteLine3.jpg	Medium_e13_stereo_44KHz.wav
1	21	2	1	0	C	2	1	1633	1	poli_8sides 2_whiteLine3.jpg	MediumLong_e17_cut2_stereo_44KHz.wav
1	22	3	4	2	I	2	0	1427	0	poli_8sides 15_whiteLine3.jpg	MediumLong_b10_cut2_L_stereo_44KHz.wav
1	23	4	4	2	I	2	0	1354	1	poli_8sides 5_whiteLine3.jpg	MediumLong_b10_cut2_L_stereo_44KHz.wav
1	24	1	2	0	C	2	1	1957	1	poli_8sides 11_whiteLine3.jpg	MediumLong_e04_stereo_44KHz.wav
1	25	3	3	2	I	2	0	1682	0	poli_8sides 15_whiteLine3.jpg	Medium_e13_stereo_44KHz.wav
1	26	4	4	2	I	2	0	1501	1	poli_8sides 5_whiteLine3.jpg	MediumLong_b10_cut2_L_stereo_44KHz.wav
1	27	2	1	0	C	2	1	1367	1	poli_8sides 2_whiteLine3.jpg	MediumLong_e17_cut2_stereo_44KHz.wav
1	28	1	2	0	C	2	1	1259	1	poli_8sides 11_whiteLine3.jpg	MediumLong_e04_stereo_44KHz.wav
1	29	3	4	2	I	1	0	1260	1	poli_8sides 15_whiteLine3.jpg	MediumLong_b10_cut2_L_stereo_44KHz.wav
1	30	1	1	1	C	1	1	1347	1	poli_8sides 11_whiteLine3.jpg	MediumLong_e17_cut2_stereo_44KHz.wav
1	31	2	2	1	C	1	1	1556	1	poli_8sides 2_whiteLine3.jpg	MediumLong_e04_stereo_44KHz.wav
1	32	4	3	2	I	1	0	1529	1	poli_8sides 5_whiteLine3.jpg	Medium_e13_stereo_44KHz.wav
1	33	1	1	1	C	1	1	1342	1	poli_8sides 11_whiteLine3.jpg	MediumLong_e17_cut2_stereo_44KHz.wav
1	34	2	1	0	C	2	1	1502	1	poli_8sides 2_whiteLine3.jpg	MediumLong_e17_cut2_stereo_44KHz.wav
1	35	4	4	2	I	2	0	1466	0	poli_8sides 5_whiteLine3.jpg	MediumLong_b10_cut2_L_stereo_44KHz.wav
1	36	3	4	2	I	2	0	902	1	poli_8sides 15_whiteLine3.jpg	MediumLong_b10_cut2_L_stereo_44KHz.wav
1	37	2	2	1	C	1	1	1484	1	poli_8sides 2_whiteLine3.jpg	MediumLong_e04_stereo_44KHz.wav
1	38	3	3	2	I	1	0	1248	0	poli_8sides 15_whiteLine3.jpg	Medium_e13_stereo_44KHz.wav
1	39	1	2	0	C	2	1	1338	1	poli_8sides 11_whiteLine3.jpg	MediumLong_e04_stereo_44KHz.wav
1	40	4	3	2	I	1	0	1218	1	poli_8sides 5_whiteLine3.jpg	Medium_e13_stereo_44KHz.wav
1	41	2	1	0	C	2	1	1245	1	poli_8sides 2_whiteLine3.jpg	MediumLong_e17_cut2_stereo_44KHz.wav
1	42	3	3	2	I	2	0	1119	0	poli_8sides 15_whiteLine3.jpg	Medium_e13_stereo_44KHz.wav
1	43	4	3	2	I	1	0	1098	0	poli_8sides 5_whiteLine3.jpg	Medium_e13_stereo_44KHz.wav
1	44	1	1	1	C	1	1	1216	1	poli_8sides 11_whiteLine3.jpg	MediumLong_e17_cut2_stereo_44KHz.wav
1	45	3	4	2	I	2	0	1336	1	poli_8sides 15_whiteLine3.jpg	MediumLong_b10_cut2_L_stereo_44KHz.wav
1	46	1	2	0	C	2	1	1601	1	poli_8sides 11_whiteLine3.jpg	MediumLong_e04_stereo_44KHz.wav
1	47	4	4	2	I	1	0	1475	1	poli_8sides 5_whiteLine3.jpg	MediumLong_b10_cut2_L_stereo_44KHz.wav
1	48	2	2	1	C	1	1	1289	1	poli_8sides 2_whiteLine3.jpg	MediumLong_e04_stereo_44KHz.wav
1	49	4	4	2	I	2	0	1077	0	poli_8sides 5_whiteLine3.jpg	MediumLong_b10_cut2_L_stereo_44KHz.wav
1	50	2	2	1	C	1	1	1249	1	poli_8sides 2_whiteLine3.jpg	MediumLong_e04_stereo_44KHz.wav
1	51	1	1	1	C	1	1	1254	1	poli_8sides 11_whiteLine3.jpg	MediumLong_e17_cut2_stereo_44KHz.wav
1	52	3	3	2	I	2	0	1685	0	poli_8sides 15_whiteLine3.jpg	Medium_e13_stereo_44KHz.wav
1	53	4	3	2	I	2	0	923	1	poli_8sides 5_whiteLine3.jpg	Medium_e13_stereo_44KHz.wav
1	54	2	1	0	C	2	1	1109	1	poli_8sides 2_whiteLine3.jpg	MediumLong_e17_cut2_stereo_44KHz.wav
1	55	1	2	0	C	2	1	941	1	poli_8sides 11_whiteLine3.jpg	MediumLong_e04_stereo_44KHz.wav
1	56	3	4	2	I	2	0	1001	0	poli_8sides 15_whiteLine3.jpg	MediumLong_b10_cut2_L_stereo_44KHz.wav
1	57	4	3	2	I	2	0	1457	1	poli_8sides 5_whiteLine3.jpg	Medium_e13_stereo_44KHz.wav
1	58	2	1	0	C	2	1	1156	1	poli_8sides 2_whiteLine3.jpg	MediumLong_e17_cut2_stereo_44KHz.wav
1	59	3	3	2	I	2	0	1138	1	poli_8sides 15_whiteLine3.jpg	Medium_e13_stereo_44KHz.wav
1	60	1	2	0	C	2	1	1126	1	poli_8sides 11_whiteLine3.jpg	MediumLong_e04_stereo_44KHz.wav
1	61	3	4	2	I	1	0	1311	1	poli_8sides 15_whiteLine3.jpg	MediumLong_b10_cut2_L_stereo_44KHz.wav
1	62	4	4	2	I	2	0	1041	0	poli_8sides 5_whiteLine3.jpg	MediumLong_b10_cut2_L_stereo_44KHz.wav
1	63	1	1	1	C	1	1	1006	1	poli_8sides 11_whiteLine3.jpg	MediumLong_e17_cut2_stereo_44KHz.wav
1	64	2	2	1	C	1	1	1095	1	poli_8sides 2_whiteLine3.jpg	MediumLong_e04_stereo_44KHz.wav
1	65	3	4	2	I	2	0	1512	0	poli_8sides 15_whiteLine3.jpg	MediumLong_b10_cut2_L_stereo_44KHz.wav
1	66	2	1	0	C	2	1	1108	1	poli_8sides 2_whiteLine3.jpg	MediumLong_e17_cut2_stereo_44KHz.wav
1	67	4	3	2	I	1	0	1175	0	poli_8sides 5_whiteLine3.jpg	Medium_e13_stereo_44KHz.wav
1	68	1	1	1	C	1	1	1046	1	poli_8sides 11_whiteLine3.jpg	MediumLong_e17_cut2_stereo_44KHz.wav
1	69	2	2	1	C	1	1	1368	1	poli_8sides 2_whiteLine3.jpg	MediumLong_e04_stereo_44KHz.wav
1	70	1	2	0	C	2	1	1035	1	poli_8sides 11_whiteLine3.jpg	MediumLong_e04_stereo_44KHz.wav
1	71	3	3	2	I	2	0	1645	1	poli_8sides 15_whiteLine3.jpg	Medium_e13_stereo_44KHz.wav
1	72	4	4	2	I	2	0	1285	0	poli_8sides 5_whiteLine3.jpg	MediumLong_b10_cut2_L_stereo_44KHz.wav
1	73	3	3	2	I	2	0	1308	1	poli_8sides 15_whiteLine3.jpg	Medium_e13_stereo_44KHz.wav
1	74	2	2	1	C	1	1	967	1	poli_8sides 2_whiteLine3.jpg	MediumLong_e04_stereo_44KHz.wav
1	75	1	1	1	C	1	1	897	1	poli_8sides 11_whiteLine3.jpg	MediumLong_e17_cut2_stereo_44KHz.wav
1	76	4	4	2	I	1	0	1235	0	poli_8sides 5_whiteLine3.jpg	MediumLong_b10_cut2_L_stereo_44KHz.wav
1	77	1	2	0	C	2	1	986	1	poli_8sides 11_whiteLine3.jpg	MediumLong_e04_stereo_44KHz.wav
1	78	4	3	2	I	2	0	1391	1	poli_8sides 5_whiteLine3.jpg	Medium_e13_stereo_44KHz.wav
1	79	3	4	2	I	2	0	1308	1	poli_8sides 15_whiteLine3.jpg	MediumLong_b10_cut2_L_stereo_44KHz.wav
1	80	2	1	0	C	2	1	1065	1	poli_8sides 2_whiteLine3.jpg	MediumLong_e17_cut2_stereo_44KHz.wav
1	81	4	4	2	I	2	0	1509	0	poli_8sides 5_whiteLine3.jpg	MediumLong_b10_cut2_L_stereo_44KHz.wav
1	82	1	1	1	C	1	1	1789	1	poli_8sides 11_whiteLine3.jpg	MediumLong_e17_cut2_stereo_44KHz.wav
1	83	2	2	1	C	1	1	1161	1	poli_8sides 2_whiteLine3.jpg	MediumLong_e04_stereo_44KHz.wav
1	84	3	3	2	I	2	0	1748	0	poli_8sides 15_whiteLine3.jpg	Medium_e13_stereo_44KHz.wav
1	85	1	2	0	C	2	1	1061	1	poli_8sides 11_whiteLine3.jpg	MediumLong_e04_stereo_44KHz.wav
1	86	4	3	2	I	2	0	1060	1	poli_8sides 5_whiteLine3.jpg	Medium_e13_stereo_44KHz.wav
1	87	3	4	2	I	2	0	1130	0	poli_8sides 15_whiteLine3.jpg	MediumLong_b10_cut2_L_stereo_44KHz.wav
1	88	2	1	0	C	2	1	1280	1	poli_8sides 2_whiteLine3.jpg	MediumLong_e17_cut2_stereo_44KHz.wav
1	89	1	1	1	C	1	1	819	1	poli_8sides 11_whiteLine3.jpg	MediumLong_e17_cut2_stereo_44KHz.wav
1	90	3	3	2	I	2	0	1118	0	poli_8sides 15_whiteLine3.jpg	Medium_e13_stereo_44KHz.wav
1	91	4	3	2	I	2	0	883	1	poli_8sides 5_whiteLine3.jpg	Medium_e13_stereo_44KHz.wav
1	92	2	2	1	C	1	1	999	1	poli_8sides 2_whiteLine3.jpg	MediumLong_e04_stereo_44KHz.wav
1	93	3	4	2	I	1	0	1260	0	poli_8sides 15_whiteLine3.jpg	MediumLong_b10_cut2_L_stereo_44KHz.wav
1	94	1	2	0	C	2	1	942	1	poli_8sides 11_whiteLine3.jpg	MediumLong_e04_stereo_44KHz.wav
1	95	2	1	0	C	2	1	1487	1	poli_8sides 2_whiteLine3.jpg	MediumLong_e17_cut2_stereo_44KHz.wav
1	96	4	4	2	I	2	0	1618	0	poli_8sides 5_whiteLine3.jpg	MediumLong_b10_cut2_L_stereo_44KHz.wav
1	97	2	2	1	C	1	1	1827	1	poli_8sides 2_whiteLine3.jpg	MediumLong_e04_stereo_44KHz.wav
1	98	3	4	2	I	2	0	1895	0	poli_8sides 15_whiteLine3.jpg	MediumLong_b10_cut2_L_stereo_44KHz.wav
1	99	1	2	0	C	2	1	1355	1	poli_8sides 11_whiteLine3.jpg	MediumLong_e04_stereo_44KHz.wav
1	100	4	4	2	I	2	0	1040	1	poli_8sides 5_whiteLine3.jpg	MediumLong_b10_cut2_L_stereo_44KHz.wav
1	101	3	3	2	I	1	0	1476	1	poli_8sides 15_whiteLine3.jpg	Medium_e13_stereo_44KHz.wav
1	102	4	3	2	I	2	0	1413	1	poli_8sides 5_whiteLine3.jpg	Medium_e13_stereo_44KHz.wav
1	103	1	1	1	C	1	1	954	1	poli_8sides 11_whiteLine3.jpg	MediumLong_e17_cut2_stereo_44KHz.wav
1	104	2	1	0	C	2	1	1184	1	poli_8sides 2_whiteLine3.jpg	MediumLong_e17_cut2_stereo_44KHz.wav
1	105	4	4	2	I	0	0	0	0	poli_8sides 5_whiteLine3.jpg	MediumLong_b10_cut2_L_stereo_44KHz.wav
1	106	1	2	0	C	2	1	1102	1	poli_8sides 11_whiteLine3.jpg	MediumLong_e04_stereo_44KHz.wav
1	107	3	4	2	I	2	0	1129	0	poli_8sides 15_whiteLine3.jpg	MediumLong_b10_cut2_L_stereo_44KHz.wav
1	108	2	2	1	C	1	1	1398	1	poli_8sides 2_whiteLine3.jpg	MediumLong_e04_stereo_44KHz.wav
1	109	3	3	2	I	2	0	899	0	poli_8sides 15_whiteLine3.jpg	Medium_e13_stereo_44KHz.wav
1	110	4	3	2	I	2	0	883	0	poli_8sides 5_whiteLine3.jpg	Medium_e13_stereo_44KHz.wav
1	111	1	1	1	C	1	1	934	1	poli_8sides 11_whiteLine3.jpg	MediumLong_e17_cut2_stereo_44KHz.wav
1	112	2	1	0	C	2	1	934	1	poli_8sides 2_whiteLine3.jpg	MediumLong_e17_cut2_stereo_44KHz.wav
1	113	1	1	1	C	1	1	971	1	poli_8sides 11_whiteLine3.jpg	MediumLong_e17_cut2_stereo_44KHz.wav
1	114	3	4	2	I	2	0	1050	1	poli_8sides 15_whiteLine3.jpg	MediumLong_b10_cut2_L_stereo_44KHz.wav
1	115	4	3	2	I	1	0	1477	1	poli_8sides 5_whiteLine3.jpg	Medium_e13_stereo_44KHz.wav
1	116	2	2	1	C	1	1	1192	1	poli_8sides 2_whiteLine3.jpg	MediumLong_e04_stereo_44KHz.wav
1	117	1	2	0	C	2	1	821	1	poli_8sides 11_whiteLine3.jpg	MediumLong_e04_stereo_44KHz.wav
1	118	3	3	2	I	1	0	1529	1	poli_8sides 15_whiteLine3.jpg	Medium_e13_stereo_44KHz.wav
1	119	4	4	2	I	2	0	1352	1	poli_8sides 5_whiteLine3.jpg	MediumLong_b10_cut2_L_stereo_44KHz.wav
1	120	2	1	0	C	2	1	1125	1	poli_8sides 2_whiteLine3.jpg	MediumLong_e17_cut2_stereo_44KHz.wav
1	121	1	2	0	C	2	1	908	1	poli_8sides 11_whiteLine3.jpg	MediumLong_e04_stereo_44KHz.wav
1	122	2	2	1	C	1	1	1219	1	poli_8sides 2_whiteLine3.jpg	MediumLong_e04_stereo_44KHz.wav
1	123	4	3	2	I	1	0	1177	1	poli_8sides 5_whiteLine3.jpg	Medium_e13_stereo_44KHz.wav
1	124	3	3	2	I	2	0	1185	1	poli_8sides 15_whiteLine3.jpg	Medium_e13_stereo_44KHz.wav
1	125	4	4	2	I	2	0	1373	0	poli_8sides 5_whiteLine3.jpg	MediumLong_b10_cut2_L_stereo_44KHz.wav
1	126	1	1	1	C	1	1	1155	1	poli_8sides 11_whiteLine3.jpg	MediumLong_e17_cut2_stereo_44KHz.wav
1	127	3	4	2	I	2	0	1015	0	poli_8sides 15_whiteLine3.jpg	MediumLong_b10_cut2_L_stereo_44KHz.wav
1	128	2	1	0	C	2	1	1146	1	poli_8sides 2_whiteLine3.jpg	MediumLong_e17_cut2_stereo_44KHz.wav
1	129	4	3	2	I	1	0	1774	0	poli_8sides 5_whiteLine3.jpg	Medium_e13_stereo_44KHz.wav
1	130	2	1	0	C	2	1	1148	1	poli_8sides 2_whiteLine3.jpg	MediumLong_e17_cut2_stereo_44KHz.wav
1	131	1	2	0	C	2	1	1167	1	poli_8sides 11_whiteLine3.jpg	MediumLong_e04_stereo_44KHz.wav
1	132	3	4	2	I	2	0	1087	1	poli_8sides 15_whiteLine3.jpg	MediumLong_b10_cut2_L_stereo_44KHz.wav
1	133	4	4	2	I	1	0	960	1	poli_8sides 5_whiteLine3.jpg	MediumLong_b10_cut2_L_stereo_44KHz.wav
1	134	2	2	1	C	1	1	1379	1	poli_8sides 2_whiteLine3.jpg	MediumLong_e04_stereo_44KHz.wav
1	135	3	3	2	I	2	0	1472	0	poli_8sides 15_whiteLine3.jpg	Medium_e13_stereo_44KHz.wav
1	136	1	1	1	C	1	1	1040	1	poli_8sides 11_whiteLine3.jpg	MediumLong_e17_cut2_stereo_44KHz.wav
1	137	2	2	1	C	1	1	1109	1	poli_8sides 2_whiteLine3.jpg	MediumLong_e04_stereo_44KHz.wav
1	138	3	4	2	I	2	0	867	1	poli_8sides 15_whiteLine3.jpg	MediumLong_b10_cut2_L_stereo_44KHz.wav
1	139	4	4	2	I	1	0	788	0	poli_8sides 5_whiteLine3.jpg	MediumLong_b10_cut2_L_stereo_44KHz.wav
1	140	1	1	1	C	1	1	1364	1	poli_8sides 11_whiteLine3.jpg	MediumLong_e17_cut2_stereo_44KHz.wav
1	141	4	3	2	I	2	0	1049	0	poli_8sides 5_whiteLine3.jpg	Medium_e13_stereo_44KHz.wav
1	142	3	3	2	I	2	0	1072	1	poli_8sides 15_whiteLine3.jpg	Medium_e13_stereo_44KHz.wav
1	143	1	2	0	C	2	1	1008	1	poli_8sides 11_whiteLine3.jpg	MediumLong_e04_stereo_44KHz.wav
1	144	2	1	0	C	2	1	1196	1	poli_8sides 2_whiteLine3.jpg	MediumLong_e17_cut2_stereo_44KHz.wav
1	145	4	3	2	I	1	0	930	1	poli_8sides 5_whiteLine3.jpg	Medium_e13_stereo_44KHz.wav
1	146	3	3	2	I	2	0	1680	1	poli_8sides 15_whiteLine3.jpg	Medium_e13_stereo_44KHz.wav
1	147	1	2	0	C	2	1	1016	1	poli_8sides 11_whiteLine3.jpg	MediumLong_e04_stereo_44KHz.wav
1	148	2	1	0	C	2	1	973	1	poli_8sides 2_whiteLine3.jpg	MediumLong_e17_cut2_stereo_44KHz.wav
1	149	4	4	2	I	1	0	1039	0	poli_8sides 5_whiteLine3.jpg	MediumLong_b10_cut2_L_stereo_44KHz.wav
1	150	3	4	2	I	2	0	1096	1	poli_8sides 15_whiteLine3.jpg	MediumLong_b10_cut2_L_stereo_44KHz.wav
1	151	2	2	1	C	1	1	1208	1	poli_8sides 2_whiteLine3.jpg	MediumLong_e04_stereo_44KHz.wav
1	152	1	1	1	C	1	1	1145	1	poli_8sides 11_whiteLine3.jpg	MediumLong_e17_cut2_stereo_44KHz.wav
1	153	3	3	2	I	2	0	1159	1	poli_8sides 15_whiteLine3.jpg	Medium_e13_stereo_44KHz.wav
1	154	2	2	1	C	1	1	1072	1	poli_8sides 2_whiteLine3.jpg	MediumLong_e04_stereo_44KHz.wav
1	155	1	1	1	C	1	1	1130	1	poli_8sides 11_whiteLine3.jpg	MediumLong_e17_cut2_stereo_44KHz.wav
1	156	4	4	2	I	2	0	890	0	poli_8sides 5_whiteLine3.jpg	MediumLong_b10_cut2_L_stereo_44KHz.wav
1	157	1	2	0	C	2	1	991	1	poli_8sides 11_whiteLine3.jpg	MediumLong_e04_stereo_44KHz.wav
1	158	2	1	0	C	2	1	1272	1	poli_8sides 2_whiteLine3.jpg	MediumLong_e17_cut2_stereo_44KHz.wav
1	159	4	3	2	I	2	0	1648	0	poli_8sides 5_whiteLine3.jpg	Medium_e13_stereo_44KHz.wav
1	160	3	4	2	I	2	0	822	0	poli_8sides 15_whiteLine3.jpg	MediumLong_b10_cut2_L_stereo_44KHz.wav
1	161	4	3	2	I	2	0	737	1	poli_8sides 5_whiteLine3.jpg	Medium_e13_stereo_44KHz.wav
1	162	2	1	0	C	2	1	971	1	poli_8sides 2_whiteLine3.jpg	MediumLong_e17_cut2_stereo_44KHz.wav
1	163	1	1	1	C	1	1	1041	1	poli_8sides 11_whiteLine3.jpg	MediumLong_e17_cut2_stereo_44KHz.wav
1	164	3	3	2	I	2	0	796	0	poli_8sides 15_whiteLine3.jpg	Medium_e13_stereo_44KHz.wav
1	165	1	2	0	C	2	1	921	1	poli_8sides 11_whiteLine3.jpg	MediumLong_e04_stereo_44KHz.wav
1	166	2	2	1	C	1	1	718	1	poli_8sides 2_whiteLine3.jpg	MediumLong_e04_stereo_44KHz.wav
1	167	3	4	2	I	2	0	824	0	poli_8sides 15_whiteLine3.jpg	MediumLong_b10_cut2_L_stereo_44KHz.wav
1	168	4	4	2	I	2	0	680	1	poli_8sides 5_whiteLine3.jpg	MediumLong_b10_cut2_L_stereo_44KHz.wav
1	169	1	2	0	C	2	1	1494	1	poli_8sides 11_whiteLine3.jpg	MediumLong_e04_stereo_44KHz.wav
1	170	2	1	0	C	2	1	1037	1	poli_8sides 2_whiteLine3.jpg	MediumLong_e17_cut2_stereo_44KHz.wav
1	171	4	4	2	I	2	0	1008	1	poli_8sides 5_whiteLine3.jpg	MediumLong_b10_cut2_L_stereo_44KHz.wav
1	172	3	3	2	I	2	0	1250	1	poli_8sides 15_whiteLine3.jpg	Medium_e13_stereo_44KHz.wav
1	173	1	1	1	C	1	1	1057	1	poli_8sides 11_whiteLine3.jpg	MediumLong_e17_cut2_stereo_44KHz.wav
1	174	3	4	2	I	1	0	1427	0	poli_8sides 15_whiteLine3.jpg	MediumLong_b10_cut2_L_stereo_44KHz.wav
1	175	2	2	1	C	1	1	1168	1	poli_8sides 2_whiteLine3.jpg	MediumLong_e04_stereo_44KHz.wav
1	176	4	3	2	I	2	0	723	0	poli_8sides 5_whiteLine3.jpg	Medium_e13_stereo_44KHz.wav
1	177	3	3	2	I	1	0	1399	0	poli_8sides 15_whiteLine3.jpg	Medium_e13_stereo_44KHz.wav
1	178	1	1	1	C	1	1	1689	1	poli_8sides 11_whiteLine3.jpg	MediumLong_e17_cut2_stereo_44KHz.wav
1	179	4	4	2	I	2	0	1457	0	poli_8sides 5_whiteLine3.jpg	MediumLong_b10_cut2_L_stereo_44KHz.wav
1	180	2	1	0	C	1	0	1056	0	poli_8sides 2_whiteLine3.jpg	MediumLong_e17_cut2_stereo_44KHz.wav
1	181	4	3	2	I	0	0	0	0	poli_8sides 5_whiteLine3.jpg	Medium_e13_stereo_44KHz.wav
1	182	3	4	2	I	1	0	1174	1	poli_8sides 15_whiteLine3.jpg	MediumLong_b10_cut2_L_stereo_44KHz.wav
1	183	1	2	0	C	2	1	768	1	poli_8sides 11_whiteLine3.jpg	MediumLong_e04_stereo_44KHz.wav
1	184	2	2	1	C	1	1	802	1	poli_8sides 2_whiteLine3.jpg	MediumLong_e04_stereo_44KHz.wav
1	185	3	4	2	I	1	0	1370	1	poli_8sides 15_whiteLine3.jpg	MediumLong_b10_cut2_L_stereo_44KHz.wav
1	186	1	2	0	C	2	1	965	1	poli_8sides 11_whiteLine3.jpg	MediumLong_e04_stereo_44KHz.wav
1	187	4	4	2	I	1	0	1296	0	poli_8sides 5_whiteLine3.jpg	MediumLong_b10_cut2_L_stereo_44KHz.wav
1	188	2	1	0	C	2	1	1776	1	poli_8sides 2_whiteLine3.jpg	MediumLong_e17_cut2_stereo_44KHz.wav
1	189	1	1	1	C	1	1	1021	1	poli_8sides 11_whiteLine3.jpg	MediumLong_e17_cut2_stereo_44KHz.wav
1	190	4	3	2	I	2	0	965	0	poli_8sides 5_whiteLine3.jpg	Medium_e13_stereo_44KHz.wav
1	191	2	2	1	C	1	1	1480	1	poli_8sides 2_whiteLine3.jpg	MediumLong_e04_stereo_44KHz.wav
1	192	3	3	2	I	2	0	1004	0	poli_8sides 15_whiteLine3.jpg	Medium_e13_stereo_44KHz.wav
1	193	4	3	2	I	2	0	840	0	poli_8sides 5_whiteLine3.jpg	Medium_e13_stereo_44KHz.wav
1	194	1	1	1	C	1	1	1589	1	poli_8sides 11_whiteLine3.jpg	MediumLong_e17_cut2_stereo_44KHz.wav
1	195	2	2	1	C	1	1	1216	1	poli_8sides 2_whiteLine3.jpg	MediumLong_e04_stereo_44KHz.wav
1	196	3	3	2	I	2	0	677	1	poli_8sides 15_whiteLine3.jpg	Medium_e13_stereo_44KHz.wav
1	197	2	1	0	C	2	1	1476	1	poli_8sides 2_whiteLine3.jpg	MediumLong_e17_cut2_stereo_44KHz.wav
1	198	4	4	2	I	2	0	1217	1	poli_8sides 5_whiteLine3.jpg	MediumLong_b10_cut2_L_stereo_44KHz.wav
1	199	1	2	0	C	2	1	997	1	poli_8sides 11_whiteLine3.jpg	MediumLong_e04_stereo_44KHz.wav
1	200	3	4	2	I	2	0	982	1	poli_8sides 15_whiteLine3.jpg	MediumLong_b10_cut2_L_stereo_44KHz.wav
2	1	4	3	2	I	2	0	1307	1	poli_8sides 18_whiteLine3.jpg	Short_b20_cut1_stereo_44KHz.wav
2	2	2	1	0	C	2	1	1377	1	poli_8sides 8_whiteLine3.jpg	Short_b23_cut1_stereo_44KHz.wav
2	3	1	1	1	C	1	1	1293	1	poli_8sides 7_whiteLine3.jpg	Short_b23_cut1_stereo_44KHz.wav
2	4	3	3	2	I	1	0	1624	0	poli_8sides 16_whiteLine3.jpg	Short_b20_cut1_stereo_44KHz.wav
2	5	2	2	1	C	1	1	1107	1	poli_8sides 8_whiteLine3.jpg	Short_b09_cut1_stereo_44KHz.wav
2	6	3	4	2	I	1	0	1096	1	poli_8sides 16_whiteLine3.jpg	Short_b22_cut1_stereo_44KHz.wav
2	7	4	4	2	I	1	0	1386	0	poli_8sides 18_whiteLine3.jpg	Short_b22_cut1_stereo_44KHz.wav
2	8	1	2	0	C	2	1	1175	1	poli_8sides 7_whiteLine3.jpg	Short_b09_cut1_stereo_44KHz.wav
2	9	4	4	2	I	2	0	1244	1	poli_8sides 18_whiteLine3.jpg	Short_b22_cut1_stereo_44KHz.wav
2	10	3	3	2	I	2	0	1650	1	poli_8sides 16_whiteLine3.jpg	Short_b20_cut1_stereo_44KHz.wav
2	11	1	2	0	C	2	1	1154	1	poli_8sides 7_whiteLine3.jpg	Short_b09_cut1_stereo_44KHz.wav
2	12	2	1	0	C	2	1	1105	1	poli_8sides 8_whiteLine3.jpg	Short_b23_cut1_stereo_44KHz.wav
2	13	1	1	1	C	2	0	1401	0	poli_8sides 7_whiteLine3.jpg	Short_b23_cut1_stereo_44KHz.wav
2	14	3	4	2	I	2	0	1535	0	poli_8sides 16_whiteLine3.jpg	Short_b22_cut1_stereo_44KHz.wav
2	15	4	3	2	I	2	0	1116	0	poli_8sides 18_whiteLine3.jpg	Short_b20_cut1_stereo_44KHz.wav
2	16	2	2	1	C	2	0	1085	0	poli_8sides 8_whiteLine3.jpg	Short_b09_cut1_stereo_44KHz.wav
2	17	4	4	2	I	1	0	1823	1	poli_8sides 18_whiteLine3.jpg	Short_b22_cut1_stereo_44KHz.wav
2	18	1	2	0	C	2	1	1452	1	poli_8sides 7_whiteLine3.jpg	Short_b09_cut1_stereo_44KHz.wav
2	19	2	1	0	C	2	1	1068	1	poli_8sides 8_whiteLine3.jpg	Short_b23_cut1_stereo_44KHz.wav
2	20	3	3	2	I	2	0	1683	0	poli_8sides 16_whiteLine3.jpg	Short_b20_cut1_stereo_44KHz.wav
2	21	2	2	1	C	1	1	1244	1	poli_8sides 8_whiteLine3.jpg	Short_b09_cut1_stereo_44KHz.wav
2	22	1	1	1	C	1	1	1378	1	poli_8sides 7_whiteLine3.jpg	Short_b23_cut1_stereo_44KHz.wav
2	23	3	4	2	I	1	0	1429	1	poli_8sides 16_whiteLine3.jpg	Short_b22_cut1_stereo_44KHz.wav
2	24	4	3	2	I	2	0	1031	0	poli_8sides 18_whiteLine3.jpg	Short_b20_cut1_stereo_44KHz.wav
2	25	3	4	2	I	1	0	1283	1	poli_8sides 16_whiteLine3.jpg	Short_b22_cut1_stereo_44KHz.wav
2	26	2	2	1	C	2	0	1337	0	poli_8sides 8_whiteLine3.jpg	Short_b09_cut1_stereo_44KHz.wav
2	27	1	1	1	C	1	1	1454	1	poli_8sides 7_whiteLine3.jpg	Short_b23_cut1_stereo_44KHz.wav
2	28	4	4	2	I	1	0	1191	0	poli_8sides 18_whiteLine3.jpg	Short_b22_cut1_stereo_44KHz.wav
2	29	1	2	0	C	2	1	1959	1	poli_8sides 7_whiteLine3.jpg	Short_b09_cut1_stereo_44KHz.wav
2	30	3	3	2	I	2	0	1553	0	poli_8sides 16_whiteLine3.jpg	Short_b20_cut1_stereo_44KHz.wav
2	31	4	3	2	I	2	0	951	1	poli_8sides 18_whiteLine3.jpg	Short_b20_cut1_stereo_44KHz.wav
2	32	2	1	0	C	2	1	868	1	poli_8sides 8_whiteLine3.jpg	Short_b23_cut1_stereo_44KHz.wav
2	33	4	4	2	I	1	0	1475	1	poli_8sides 18_whiteLine3.jpg	Short_b22_cut1_stereo_44KHz.wav
2	34	1	1	1	C	1	1	1362	1	poli_8sides 7_whiteLine3.jpg	Short_b23_cut1_stereo_44KHz.wav
2	35	2	1	0	C	2	1	530	1	poli_8sides 8_whiteLine3.jpg	Short_b23_cut1_stereo_44KHz.wav
2	36	3	4	2	I	1	0	1713	1	poli_8sides 16_whiteLine3.jpg	Short_b22_cut1_stereo_44KHz.wav
2	37	1	2	0	C	2	1	792	1	poli_8sides 7_whiteLine3.jpg	Short_b09_cut1_stereo_44KHz.wav
2	38	2	2	1	C	1	1	911	1	poli_8sides 8_whiteLine3.jpg	Short_b09_cut1_stereo_44KHz.wav
2	39	3	3	2	I	1	0	1299	0	poli_8sides 16_whiteLine3.jpg	Short_b20_cut1_stereo_44KHz.wav
2	40	4	3	2	I	2	0	857	1	poli_8sides 18_whiteLine3.jpg	Short_b20_cut1_stereo_44KHz.wav
2	41	2	1	0	C	2	1	951	1	poli_8sides 8_whiteLine3.jpg	Short_b23_cut1_stereo_44KHz.wav
2	42	1	1	1	C	1	1	889	1	poli_8sides 7_whiteLine3.jpg	Short_b23_cut1_stereo_44KHz.wav
2	43	4	3	2	I	2	0	1265	1	poli_8sides 18_whiteLine3.jpg	Short_b20_cut1_stereo_44KHz.wav
2	44	3	3	2	I	1	0	1244	1	poli_8sides 16_whiteLine3.jpg	Short_b20_cut1_stereo_44KHz.wav
2	45	2	2	1	C	1	1	1360	1	poli_8sides 8_whiteLine3.jpg	Short_b09_cut1_stereo_44KHz.wav
2	46	1	2	0	C	2	1	817	1	poli_8sides 7_whiteLine3.jpg	Short_b09_cut1_stereo_44KHz.wav
2	47	4	4	2	I	1	0	1212	0	poli_8sides 18_whiteLine3.jpg	Short_b22_cut1_stereo_44KHz.wav
2	48	3	4	2	I	2	0	992	1	poli_8sides 16_whiteLine3.jpg	Short_b22_cut1_stereo_44KHz.wav
2	49	4	4	2	I	1	0	1577	0	poli_8sides 18_whiteLine3.jpg	Short_b22_cut1_stereo_44KHz.wav
2	50	2	1	0	C	2	1	1067	1	poli_8sides 8_whiteLine3.jpg	Short_b23_cut1_stereo_44KHz.wav
2	51	1	1	1	C	1	1	737	1	poli_8sides 7_whiteLine3.jpg	Short_b23_cut1_stereo_44KHz.wav
2	52	3	4	2	I	1	0	1782	1	poli_8sides 16_whiteLine3.jpg	Short_b22_cut1_stereo_44KHz.wav
2	53	1	2	0	C	2	1	785	1	poli_8sides 7_whiteLine3.jpg	Short_b09_cut1_stereo_44KHz.wav
2	54	4	3	2	I	2	0	1097	0	poli_8sides 18_whiteLine3.jpg	Short_b20_cut1_stereo_44KHz.wav
2	55	2	2	1	C	1	1	1265	1	poli_8sides 8_whiteLine3.jpg	Short_b09_cut1_stereo_44KHz.wav
2	56	3	3	2	I	2	0	1695	1	poli_8sides 16_whiteLine3.jpg	Short_b20_cut1_stereo_44KHz.wav
2	57	1	2	0	C	2	1	961	1	poli_8sides 7_whiteLine3.jpg	Short_b09_cut1_stereo_44KHz.wav
2	58	2	2	1	C	1	1	971	1	poli_8sides 8_whiteLine3.jpg	Short_b09_cut1_stereo_44KHz.wav
2	59	4	4	2	I	2	0	1287	0	poli_8sides 18_whiteLine3.jpg	Short_b22_cut1_stereo_44KHz.wav
2	60	3	4	2	I	1	0	1189	1	poli_8sides 16_whiteLine3.jpg	Short_b22_cut1_stereo_44KHz.wav
2	61	4	3	2	I	2	0	986	0	poli_8sides 18_whiteLine3.jpg	Short_b20_cut1_stereo_44KHz.wav
2	62	2	1	0	C	2	1	690	1	poli_8sides 8_whiteLine3.jpg	Short_b23_cut1_stereo_44KHz.wav
2	63	1	1	1	C	1	1	774	1	poli_8sides 7_whiteLine3.jpg	Short_b23_cut1_stereo_44KHz.wav
2	64	3	3	2	I	1	0	1134	0	poli_8sides 16_whiteLine3.jpg	Short_b20_cut1_stereo_44KHz.wav
2	65	1	1	1	C	1	1	908	1	poli_8sides 7_whiteLine3.jpg	Short_b23_cut1_stereo_44KHz.wav
2	66	3	3	2	I	2	0	1357	0	poli_8sides 16_whiteLine3.jpg	Short_b20_cut1_stereo_44KHz.wav
2	67	2	2	1	C	1	1	1695	1	poli_8sides 8_whiteLine3.jpg	Short_b09_cut1_stereo_44KHz.wav
2	68	4	4	2	I	1	0	1552	0	poli_8sides 18_whiteLine3.jpg	Short_b22_cut1_stereo_44KHz.wav
2	69	1	2	0	C	2	1	1131	1	poli_8sides 7_whiteLine3.jpg	Short_b09_cut1_stereo_44KHz.wav
2	70	4	3	2	I	2	0	1170	1	poli_8sides 18_whiteLine3.jpg	Short_b20_cut1_stereo_44KHz.wav
2	71	3	4	2	I	1	0	737	1	poli_8sides 16_whiteLine3.jpg	Short_b22_cut1_stereo_44KHz.wav
2	72	2	1	0	C	1	0	1059	0	poli_8sides 8_whiteLine3.jpg	Short_b23_cut1_stereo_44KHz.wav
2	73	4	4	2	I	2	0	1048	1	poli_8sides 18_whiteLine3.jpg	Short_b22_cut1_stereo_44KHz.wav
2	74	1	1	1	C	1	1	1316	1	poli_8sides 7_whiteLine3.jpg	Short_b23_cut1_stereo_44KHz.wav
2	75	2	1	0	C	2	1	746	1	poli_8sides 8_whiteLine3.jpg	Short_b23_cut1_stereo_44KHz.wav
2	76	3	3	2	I	2	0	1381	0	poli_8sides 16_whiteLine3.jpg	Short_b20_cut1_stereo_44KHz.wav
2	77	2	2	1	C	1	1	1226	1	poli_8sides 8_whiteLine3.jpg	Short_b09_cut1_stereo_44KHz.wav
2	78	3	4	2	I	1	0	1168	0	poli_8sides 16_whiteLine3.jpg	Short_b22_cut1_stereo_44KHz.wav
2	79	1	2	0	C	2	1	874	1	poli_8sides 7_whiteLine3.jpg	Short_b09_cut1_stereo_44KHz.wav
2	80	4	3	2	I	1	0	1372	0	poli_8sides 18_whiteLine3.jpg	Short_b20_cut1_stereo_44KHz.wav
2	81	2	1	0	C	2	1	868	1	poli_8sides 8_whiteLine3.jpg	Short_b23_cut1_stereo_44KHz.wav
2	82	4	4	2	I	2	0	1052	1	poli_8sides 18_whiteLine3.jpg	Short_b22_cut1_stereo_44KHz.wav
2	83	1	2	0	C	2	1	780	1	poli_8sides 7_whiteLine3.jpg	Short_b09_cut1_stereo_44KHz.wav
2	84	3	3	2	I	2	0	851	0	poli_8sides 16_whiteLine3.jpg	Short_b20_cut1_stereo_44KHz.wav
2	85	1	1	1	C	1	1	1042	1	poli_8sides 7_whiteLine3.jpg	Short_b23_cut1_stereo_44KHz.wav
2	86	2	2	1	C	1	1	1479	1	poli_8sides 8_whiteLine3.jpg	Short_b09_cut1_stereo_44KHz.wav
2	87	3	4	2	I	2	0	1660	1	poli_8sides 16_whiteLine3.jpg	Short_b22_cut1_stereo_44KHz.wav
2	88	4	3	2	I	2	0	1030	1	poli_8sides 18_whiteLine3.jpg	Short_b20_cut1_stereo_44KHz.wav
2	89	2	1	0	C	2	1	1209	1	poli_8sides 8_whiteLine3.jpg	Short_b23_cut1_stereo_44KHz.wav
2	90	3	4	2	I	2	0	1655	0	poli_8sides 16_whiteLine3.jpg	Short_b22_cut1_stereo_44KHz.wav
2	91	1	1	1	C	2	0	968	0	poli_8sides 7_whiteLine3.jpg	Short_b23_cut1_stereo_44KHz.wav
2	92	4	3	2	I	2	0	1727	0	poli_8sides 18_whiteLine3.jpg	Short_b20_cut1_stereo_44KHz.wav
2	93	1	2	0	C	2	1	989	1	poli_8sides 7_whiteLine3.jpg	Short_b09_cut1_stereo_44KHz.wav
2	94	2	2	1	C	1	1	947	1	poli_8sides 8_whiteLine3.jpg	Short_b09_cut1_stereo_44KHz.wav
2	95	4	4	2	I	2	0	1105	0	poli_8sides 18_whiteLine3.jpg	Short_b22_cut1_stereo_44KHz.wav
2	96	3	3	2	I	2	0	781	0	poli_8sides 16_whiteLine3.jpg	Short_b20_cut1_stereo_44KHz.wav
2	97	1	2	0	C	2	1	973	1	poli_8sides 7_whiteLine3.jpg	Short_b09_cut1_stereo_44KHz.wav
2	98	3	3	2	I	2	0	1155	0	poli_8sides 16_whiteLine3.jpg	Short_b20_cut1_stereo_44KHz.wav
2	99	4	4	2	I	2	0	688	0	poli_8sides 18_whiteLine3.jpg	Short_b22_cut1_stereo_44KHz.wav
2	100	2	2	1	C	1	1	1023	1	poli_8sides 8_whiteLine3.jpg	Short_b09_cut1_stereo_44KHz.wav
2	101	3	4	2	I	1	0	1290	0	poli_8sides 16_whiteLine3.jpg	Short_b22_cut1_stereo_44KHz.wav
2	102	2	1	0	C	2	1	1321	1	poli_8sides 8_whiteLine3.jpg	Short_b23_cut1_stereo_44KHz.wav
2	103	4	3	2	I	2	0	1087	0	poli_8sides 18_whiteLine3.jpg	Short_b20_cut1_stereo_44KHz.wav
2	104	1	1	1	C	1	1	1162	1	poli_8sides 7_whiteLine3.jpg	Short_b23_cut1_stereo_44KHz.wav
2	105	2	1	0	C	2	1	773	1	poli_8sides 8_whiteLine3.jpg	Short_b23_cut1_stereo_44KHz.wav
2	106	1	2	0	C	2	1	1008	1	poli_8sides 7_whiteLine3.jpg	Short_b09_cut1_stereo_44KHz.wav
2	107	3	3	2	I	2	0	1143	0	poli_8sides 16_whiteLine3.jpg	Short_b20_cut1_stereo_44KHz.wav
2	108	4	4	2	I	2	0	1161	0	poli_8sides 18_whiteLine3.jpg	Short_b22_cut1_stereo_44KHz.wav
2	109	3	4	2	I	2	0	995	0	poli_8sides 16_whiteLine3.jpg	Short_b22_cut1_stereo_44KHz.wav
2	110	1	1	1	C	1	1	1030	1	poli_8sides 7_whiteLine3.jpg	Short_b23_cut1_stereo_44KHz.wav
2	111	4	3	2	I	2	0	728	0	poli_8sides 18_whiteLine3.jpg	Short_b20_cut1_stereo_44KHz.wav
2	112	2	2	1	C	1	1	1526	1	poli_8sides 8_whiteLine3.jpg	Short_b09_cut1_stereo_44KHz.wav
2	113	1	1	1	C	1	1	1089	1	poli_8sides 7_whiteLine3.jpg	Short_b23_cut1_stereo_44KHz.wav
2	114	4	3	2	I	2	0	1006	1	poli_8sides 18_whiteLine3.jpg	Short_b20_cut1_stereo_44KHz.wav
2	115	2	1	0	C	2	1	1485	1	poli_8sides 8_whiteLine3.jpg	Short_b23_cut1_stereo_44KHz.wav
2	116	3	3	2	I	2	0	1608	1	poli_8sides 16_whiteLine3.jpg	Short_b20_cut1_stereo_44KHz.wav
2	117	4	4	2	I	1	0	1630	0	poli_8sides 18_whiteLine3.jpg	Short_b22_cut1_stereo_44KHz.wav
2	118	3	4	2	I	2	0	857	1	poli_8sides 16_whiteLine3.jpg	Short_b22_cut1_stereo_44KHz.wav
2	119	1	2	0	C	1	0	660	0	poli_8sides 7_whiteLine3.jpg	Short_b09_cut1_stereo_44KHz.wav
2	120	2	2	1	C	1	1	1447	1	poli_8sides 8_whiteLine3.jpg	Short_b09_cut1_stereo_44KHz.wav
2	121	3	3	2	I	2	0	951	1	poli_8sides 16_whiteLine3.jpg	Short_b20_cut1_stereo_44KHz.wav
2	122	2	1	0	C	2	1	1273	1	poli_8sides 8_whiteLine3.jpg	Short_b23_cut1_stereo_44KHz.wav
2	123	1	1	1	C	1	1	1012	1	poli_8sides 7_whiteLine3.jpg	Short_b23_cut1_stereo_44KHz.wav
2	124	4	3	2	I	2	0	908	1	poli_8sides 18_whiteLine3.jpg	Short_b20_cut1_stereo_44KHz.wav
2	125	3	4	2	I	1	0	1716	1	poli_8sides 16_whiteLine3.jpg	Short_b22_cut1_stereo_44KHz.wav
2	126	4	4	2	I	2	0	1563	1	poli_8sides 18_whiteLine3.jpg	Short_b22_cut1_stereo_44KHz.wav
2	127	1	2	0	C	2	1	975	1	poli_8sides 7_whiteLine3.jpg	Short_b09_cut1_stereo_44KHz.wav
2	128	2	2	1	C	1	1	1068	1	poli_8sides 8_whiteLine3.jpg	Short_b09_cut1_stereo_44KHz.wav
2	129	1	1	1	C	1	1	1202	1	poli_8sides 7_whiteLine3.jpg	Short_b23_cut1_stereo_44KHz.wav
2	130	4	4	2	I	2	0	1321	0	poli_8sides 18_whiteLine3.jpg	Short_b22_cut1_stereo_44KHz.wav
2	131	3	4	2	I	2	0	782	1	poli_8sides 16_whiteLine3.jpg	Short_b22_cut1_stereo_44KHz.wav
2	132	2	2	1	C	1	1	1133	1	poli_8sides 8_whiteLine3.jpg	Short_b09_cut1_stereo_44KHz.wav
2	133	1	2	0	C	2	1	928	1	poli_8sides 7_whiteLine3.jpg	Short_b09_cut1_stereo_44KHz.wav
2	134	3	3	2	I	2	0	1125	0	poli_8sides 16_whiteLine3.jpg	Short_b20_cut1_stereo_44KHz.wav
2	135	4	3	2	I	2	0	790	1	poli_8sides 18_whiteLine3.jpg	Short_b20_cut1_stereo_44KHz.wav
2	136	2	1	0	C	2	1	1174	1	poli_8sides 8_whiteLine3.jpg	Short_b23_cut1_stereo_44KHz.wav
2	137	3	3	2	I	1	0	1200	1	poli_8sides 16_whiteLine3.jpg	Short_b20_cut1_stereo_44KHz.wav
2	138	2	1	0	C	2	1	833	1	poli_8sides 8_whiteLine3.jpg	Short_b23_cut1_stereo_44KHz.wav
2	139	4	3	2	I	2	0	885	1	poli_8sides 18_whiteLine3.jpg	Short_b20_cut1_stereo_44KHz.wav
2	140	1	1	1	C	1	1	1148	1	poli_8sides 7_whiteLine3.jpg	Short_b23_cut1_stereo_44KHz.wav
2	141	3	4	2	I	2	0	1529	0	poli_8sides 16_whiteLine3.jpg	Short_b22_cut1_stereo_44KHz.wav
2	142	4	4	2	I	1	0	1580	0	poli_8sides 18_whiteLine3.jpg	Short_b22_cut1_stereo_44KHz.wav
2	143	1	2	0	C	2	1	825	1	poli_8sides 7_whiteLine3.jpg	Short_b09_cut1_stereo_44KHz.wav
2	144	2	2	1	C	1	1	834	1	poli_8sides 8_whiteLine3.jpg	Short_b09_cut1_stereo_44KHz.wav
2	145	1	2	0	C	2	1	748	1	poli_8sides 7_whiteLine3.jpg	Short_b09_cut1_stereo_44KHz.wav
2	146	4	3	2	I	1	0	1323	1	poli_8sides 18_whiteLine3.jpg	Short_b20_cut1_stereo_44KHz.wav
2	147	3	3	2	I	2	0	1509	0	poli_8sides 16_whiteLine3.jpg	Short_b20_cut1_stereo_44KHz.wav
2	148	2	1	0	C	2	1	1168	1	poli_8sides 8_whiteLine3.jpg	Short_b23_cut1_stereo_44KHz.wav
2	149	4	4	2	I	1	0	1269	1	poli_8sides 18_whiteLine3.jpg	Short_b22_cut1_stereo_44KHz.wav
2	150	1	1	1	C	1	1	1041	1	poli_8sides 7_whiteLine3.jpg	Short_b23_cut1_stereo_44KHz.wav
2	151	2	2	1	C	1	1	1266	1	poli_8sides 8_whiteLine3.jpg	Short_b09_cut1_stereo_44KHz.wav
2	152	3	4	2	I	2	0	1429	1	poli_8sides 16_whiteLine3.jpg	Short_b22_cut1_stereo_44KHz.wav
2	153	4	4	2	I	1	0	1209	1	poli_8sides 18_whiteLine3.jpg	Short_b22_cut1_stereo_44KHz.wav
2	154	1	2	0	C	2	1	879	1	poli_8sides 7_whiteLine3.jpg	Short_b09_cut1_stereo_44KHz.wav
2	155	2	1	0	C	2	1	904	1	poli_8sides 8_whiteLine3.jpg	Short_b23_cut1_stereo_44KHz.wav
2	156	3	4	2	I	1	0	1497	1	poli_8sides 16_whiteLine3.jpg	Short_b22_cut1_stereo_44KHz.wav
2	157	4	3	2	I	1	0	1532	1	poli_8sides 18_whiteLine3.jpg	Short_b20_cut1_stereo_44KHz.wav
2	158	3	3	2	I	2	0	966	1	poli_8sides 16_whiteLine3.jpg	Short_b20_cut1_stereo_44KHz.wav
2	159	1	1	1	C	1	1	1084	1	poli_8sides 7_whiteLine3.jpg	Short_b23_cut1_stereo_44KHz.wav
2	160	2	2	1	C	1	1	1175	1	poli_8sides 8_whiteLine3.jpg	Short_b09_cut1_stereo_44KHz.wav
2	161	1	1	1	C	1	1	1015	1	poli_8sides 7_whiteLine3.jpg	Short_b23_cut1_stereo_44KHz.wav
2	162	3	4	2	I	2	0	1410	0	poli_8sides 16_whiteLine3.jpg	Short_b22_cut1_stereo_44KHz.wav
2	163	2	1	0	C	2	1	1109	1	poli_8sides 8_whiteLine3.jpg	Short_b23_cut1_stereo_44KHz.wav
2	164	4	3	2	I	1	0	1255	0	poli_8sides 18_whiteLine3.jpg	Short_b20_cut1_stereo_44KHz.wav
2	165	2	2	1	C	1	1	1965	1	poli_8sides 8_whiteLine3.jpg	Short_b09_cut1_stereo_44KHz.wav
2	166	3	3	2	I	2	0	1230	0	poli_8sides 16_whiteLine3.jpg	Short_b20_cut1_stereo_44KHz.wav
2	167	4	4	2	I	1	0	1691	0	poli_8sides 18_whiteLine3.jpg	Short_b22_cut1_stereo_44KHz.wav
2	168	1	2	0	C	2	1	1040	1	poli_8sides 7_whiteLine3.jpg	Short_b09_cut1_stereo_44KHz.wav
2	169	4	4	2	I	2	0	1269	1	poli_8sides 18_whiteLine3.jpg	Short_b22_cut1_stereo_44KHz.wav
2	170	1	2	0	C	2	1	980	1	poli_8sides 7_whiteLine3.jpg	Short_b09_cut1_stereo_44KHz.wav
2	171	3	4	2	I	1	0	970	0	poli_8sides 16_whiteLine3.jpg	Short_b22_cut1_stereo_44KHz.wav
2	172	2	1	0	C	2	1	1465	1	poli_8sides 8_whiteLine3.jpg	Short_b23_cut1_stereo_44KHz.wav
2	173	1	1	1	C	1	1	1135	1	poli_8sides 7_whiteLine3.jpg	Short_b23_cut1_stereo_44KHz.wav
2	174	4	3	2	I	2	0	966	0	poli_8sides 18_whiteLine3.jpg	Short_b20_cut1_stereo_44KHz.wav
2	175	3	3	2	I	2	0	937	1	poli_8sides 16_whiteLine3.jpg	Short_b20_cut1_stereo_44KHz.wav
2	176	2	2	1	C	1	1	1148	1	poli_8sides 8_whiteLine3.jpg	Short_b09_cut1_stereo_44KHz.wav
2	177	4	4	2	I	1	0	1200	1	poli_8sides 18_whiteLine3.jpg	Short_b22_cut1_stereo_44KHz.wav
2	178	3	3	2	I	2	0	1301	0	poli_8sides 16_whiteLine3.jpg	Short_b20_cut1_stereo_44KHz.wav
2	179	2	1	0	C	2	1	749	1	poli_8sides 8_whiteLine3.jpg	Short_b23_cut1_stereo_44KHz.wav
2	180	1	1	1	C	1	1	902	1	poli_8sides 7_whiteLine3.jpg	Short_b23_cut1_stereo_44KHz.wav
2	181	2	2	1	C	1	1	918	1	poli_8sides 8_whiteLine3.jpg	Short_b09_cut1_stereo_44KHz.wav
2	182	1	2	0	C	2	1	573	1	poli_8sides 7_whiteLine3.jpg	Short_b09_cut1_stereo_44KHz.wav
2	183	3	4	2	I	1	0	886	0	poli_8sides 16_whiteLine3.jpg	Short_b22_cut1_stereo_44KHz.wav
2	184	4	3	2	I	2	0	929	0	poli_8sides 18_whiteLine3.jpg	Short_b20_cut1_stereo_44KHz.wav
2	185	3	4	2	I	2	0	962	0	poli_8sides 16_whiteLine3.jpg	Short_b22_cut1_stereo_44KHz.wav
2	186	4	3	2	I	2	0	924	1	poli_8sides 18_whiteLine3.jpg	Short_b20_cut1_stereo_44KHz.wav
2	187	1	1	1	C	1	1	1026	1	poli_8sides 7_whiteLine3.jpg	Short_b23_cut1_stereo_44KHz.wav
2	188	2	2	1	C	2	0	573	0	poli_8sides 8_whiteLine3.jpg	Short_b09_cut1_stereo_44KHz.wav
2	189	3	3	2	I	2	0	1056	1	poli_8sides 16_whiteLine3.jpg	Short_b20_cut1_stereo_44KHz.wav
2	190	1	2	0	C	2	1	1118	1	poli_8sides 7_whiteLine3.jpg	Short_b09_cut1_stereo_44KHz.wav
2	191	2	1	0	C	2	1	771	1	poli_8sides 8_whiteLine3.jpg	Short_b23_cut1_stereo_44KHz.wav
2	192	4	4	2	I	2	0	1193	0	poli_8sides 18_whiteLine3.jpg	Short_b22_cut1_stereo_44KHz.wav
2	193	1	2	0	C	2	1	824	1	poli_8sides 7_whiteLine3.jpg	Short_b09_cut1_stereo_44KHz.wav
2	194	2	2	1	C	1	1	1070	1	poli_8sides 8_whiteLine3.jpg	Short_b09_cut1_stereo_44KHz.wav
2	195	4	4	2	I	1	0	1301	1	poli_8sides 18_whiteLine3.jpg	Short_b22_cut1_stereo_44KHz.wav
2	196	3	4	2	I	2	0	785	1	poli_8sides 16_whiteLine3.jpg	Short_b22_cut1_stereo_44KHz.wav
2	197	2	1	0	C	2	1	709	1	poli_8sides 8_whiteLine3.jpg	Short_b23_cut1_stereo_44KHz.wav
2	198	1	1	1	C	1	1	975	1	poli_8sides 7_whiteLine3.jpg	Short_b23_cut1_stereo_44KHz.wav
2	199	4	3	2	I	2	0	861	1	poli_8sides 18_whiteLine3.jpg	Short_b20_cut1_stereo_44KHz.wav
2	200	3	3	2	I	1	0	1020	1	poli_8sides 16_whiteLine3.jpg	Short_b20_cut1_stereo_44KHz.wav
3	1	3	4	2	I	2	0	1077	0	poli_8sides 6_whiteLine3.jpg	MediumShort_b10_cut1_MS_stereo_44KHz.wav
3	2	4	4	2	I	2	0	802	1	poli_8sides 9_whiteLine3.jpg	MediumShort_b10_cut1_MS_stereo_44KHz.wav
3	3	2	1	0	C	2	1	1517	1	poli_8sides 13_whiteLine3.jpg	MediumShort_e22_cut1_stereo_44KHz.wav
3	4	1	2	0	C	2	1	1133	1	poli_8sides 3_whiteLine3.jpg	MediumShort_b16_cut3_MS_stereo_44KHz.wav
3	5	2	2	1	C	1	1	953	1	poli_8sides 13_whiteLine3.jpg	MediumShort_b16_cut3_MS_stereo_44KHz.wav
3	6	3	3	2	I	2	0	1491	1	poli_8sides 6_whiteLine3.jpg	MediumShort_e16_cut1_stereo_44KHz.wav
3	7	1	1	1	C	1	1	1602	1	poli_8sides 3_whiteLine3.jpg	MediumShort_e22_cut1_stereo_44KHz.wav
3	8	4	3	2	I	2	0	1401	0	poli_8sides 9_whiteLine3.jpg	MediumShort_e16_cut1_stereo_44KHz.wav
3	9	2	2	1	C	2	0	1271	0	poli_8sides 13_whiteLine3.jpg	MediumShort_b16_cut3_MS_stereo_44KHz.wav
3	10	1	2	0	C	2	1	747	1	poli_8sides 3_whiteLine3.jpg	MediumShort_b16_cut3_MS_stereo_44KHz.wav
3	11	4	3	2	I	2	0	1466	0	poli_8sides 9_whiteLine3.jpg	MediumShort_e16_cut1_stereo_44KHz.wav
3	12	3	4	2	I	2	0	1240	0	poli_8sides 6_whiteLine3.jpg	MediumShort_b10_cut1_MS_stereo_44KHz.wav
3	13	2	1	0	C	1	0	1614	0	poli_8sides 13_whiteLine3.jpg	MediumShort_e22_cut1_stereo_44KHz.wav
3	14	4	4	2	I	2	0	231	0	poli_8sides 9_whiteLine3.jpg	MediumShort_b10_cut1_MS_stereo_44KHz.wav
3	15	3	3	2	I	2	0	1052	0	poli_8sides 6_whiteLine3.jpg	MediumShort_e16_cut1_stereo_44KHz.wav
3	16	1	1	1	C	2	0	1531	0	poli_8sides 3_whiteLine3.jpg	MediumShort_e22_cut1_stereo_44KHz.wav
3	17	2	2	1	C	2	0	1144	0	poli_8sides 13_whiteLine3.jpg	MediumShort_b16_cut3_MS_stereo_44KHz.wav
3	18	1	1	1	C	1	1	1483	1	poli_8sides 3_whiteLine3.jpg	MediumShort_e22_cut1_stereo_44KHz.wav
3	19	3	3	2	I	2	0	1128	0	poli_8sides 6_whiteLine3.jpg	MediumShort_e16_cut1_stereo_44KHz.wav
3	20	4	4	2	I	1	0	1905	1	poli_8sides 9_whiteLine3.jpg	MediumShort_b10_cut1_MS_stereo_44KHz.wav
3	21	1	2	0	C	2	1	1329	1	poli_8sides 3_whiteLine3.jpg	MediumShort_b16_cut3_MS_stereo_44KHz.wav
3	22	3	4	2	I	1	0	1118	1	poli_8sides 6_whiteLine3.jpg	MediumShort_b10_cut1_MS_stereo_44KHz.wav
3	23	2	1	0	C	2	1	1732	1	poli_8sides 13_whiteLine3.jpg	MediumShort_e22_cut1_stereo_44KHz.wav
3	24	4	3	2	I	2	0	1181	0	poli_8sides 9_whiteLine3.jpg	MediumShort_e16_cut1_stereo_44KHz.wav
3	25	2	2	1	C	2	0	1394	0	poli_8sides 13_whiteLine3.jpg	MediumShort_b16_cut3_MS_stereo_44KHz.wav
3	26	1	2	0	C	2	1	853	1	poli_8sides 3_whiteLine3.jpg	MediumShort_b16_cut3_MS_stereo_44KHz.wav
3	27	3	4	2	I	1	0	1247	1	poli_8sides 6_whiteLine3.jpg	MediumShort_b10_cut1_MS_stereo_44KHz.wav
3	28	4	4	2	I	2	0	976	0	poli_8sides 9_whiteLine3.jpg	MediumShort_b10_cut1_MS_stereo_44KHz.wav
3	29	3	3	2	I	2	0	1309	1	poli_8sides 6_whiteLine3.jpg	MediumShort_e16_cut1_stereo_44KHz.wav
3	30	4	3	2	I	1	0	1277	0	poli_8sides 9_whiteLine3.jpg	MediumShort_e16_cut1_stereo_44KHz.wav
3	31	2	1	0	C	1	0	1237	0	poli_8sides 13_whiteLine3.jpg	MediumShort_e22_cut1_stereo_44KHz.wav
3	32	1	1	1	C	2	0	725	0	poli_8sides 3_whiteLine3.jpg	MediumShort_e22_cut1_stereo_44KHz.wav
3	33	3	3	2	I	2	0	911	1	poli_8sides 6_whiteLine3.jpg	MediumShort_e16_cut1_stereo_44KHz.wav
3	34	4	3	2	I	1	0	1069	0	poli_8sides 9_whiteLine3.jpg	MediumShort_e16_cut1_stereo_44KHz.wav
3	35	1	1	1	C	2	0	731	0	poli_8sides 3_whiteLine3.jpg	MediumShort_e22_cut1_stereo_44KHz.wav
3	36	2	1	0	C	2	1	715	1	poli_8sides 13_whiteLine3.jpg	MediumShort_e22_cut1_stereo_44KHz.wav
3	37	1	2	0	C	2	1	1024	1	poli_8sides 3_whiteLine3.jpg	MediumShort_b16_cut3_MS_stereo_44KHz.wav
3	38	2	2	1	C	1	1	1150	1	poli_8sides 13_whiteLine3.jpg	MediumShort_b16_cut3_MS_stereo_44KHz.wav
3	39	3	4	2	I	2	0	1265	1	poli_8sides 6_whiteLine3.jpg	MediumShort_b10_cut1_MS_stereo_44KHz.wav
3	40	4	4	2	I	2	0	1297	1	poli_8sides 9_whiteLine3.jpg	MediumShort_b10_cut1_MS_stereo_44KHz.wav
3	41	3	3	2	I	1	0	1729	1	poli_8sides 6_whiteLine3.jpg	MediumShort_e16_cut1_stereo_44KHz.wav
3	42	2	1	0	C	2	1	1184	1	poli_8sides 13_whiteLine3.jpg	MediumShort_e22_cut1_stereo_44KHz.wav
3	43	4	3	2	I	1	0	1224	1	poli_8sides 9_whiteLine3.jpg	MediumShort_e16_cut1_stereo_44KHz.wav
3	44	1	2	0	C	2	1	1232	1	poli_8sides 3_whiteLine3.jpg	MediumShort_b16_cut3_MS_stereo_44KHz.wav
3	45	2	2	1	C	1	1	1763	1	poli_8sides 13_whiteLine3.jpg	MediumShort_b16_cut3_MS_stereo_44KHz.wav
3	46	1	1	1	C	1	1	1357	1	poli_8sides 3_whiteLine3.jpg	MediumShort_e22_cut1_stereo_44KHz.wav
3	47	4	4	2	I	2	0	1313	0	poli_8sides 9_whiteLine3.jpg	MediumShort_b10_cut1_MS_stereo_44KHz.wav
3	48	3	4	2	I	2	0	971	0	poli_8sides 6_whiteLine3.jpg	MediumShort_b10_cut1_MS_stereo_44KHz.wav
3	49	4	3	2	I	2	0	1322	0	poli_8sides 9_whiteLine3.jpg	MediumShort_e16_cut1_stereo_44KHz.wav
3	50	2	1	0	C	2	1	1472	1	poli_8sides 13_whiteLine3.jpg	MediumShort_e22_cut1_stereo_44KHz.wav
3	51	3	4	2	I	1	0	1373	0	poli_8sides 6_whiteLine3.jpg	MediumShort_b10_cut1_MS_stereo_44KHz.wav
3	52	1	2	0	C	2	1	881	1	poli_8sides 3_whiteLine3.jpg	MediumShort_b16_cut3_MS_stereo_44KHz.wav
3	53	2	2	1	C	1	1	1257	1	poli_8sides 13_whiteLine3.jpg	MediumShort_b16_cut3_MS_stereo_44KHz.wav
3	54	4	4	2	I	1	0	1309	0	poli_8sides 9_whiteLine3.jpg	MediumShort_b10_cut1_MS_stereo_44KHz.wav
3	55	1	1	1	C	1	1	1119	1	poli_8sides 3_whiteLine3.jpg	MediumShort_e22_cut1_stereo_44KHz.wav
3	56	3	3	2	I	2	0	1472	0	poli_8sides 6_whiteLine3.jpg	MediumShort_e16_cut1_stereo_44KHz.wav
3	57	4	4	2	I	1	0	1337	1	poli_8sides 9_whiteLine3.jpg	MediumShort_b10_cut1_MS_stereo_44KHz.wav
3	58	2	2	1	C	2	0	878	0	poli_8sides 13_whiteLine3.jpg	MediumShort_b16_cut3_MS_stereo_44KHz.wav
3	59	3	4	2	I	1	0	1558	0	poli_8sides 6_whiteLine3.jpg	MediumShort_b10_cut1_MS_stereo_44KHz.wav
3	60	1	1	1	C	2	0	873	0	poli_8sides 3_whiteLine3.jpg	MediumShort_e22_cut1_stereo_44KHz.wav
3	61	2	1	0	C	2	1	676	1	poli_8sides 13_whiteLine3.jpg	MediumShort_e22_cut1_stereo_44KHz.wav
3	62	1	2	0	C	2	1	981	1	poli_8sides 3_whiteLine3.jpg	MediumShort_b16_cut3_MS_stereo_44KHz.wav
3	63	3	3	2	I	2	0	1373	0	poli_8sides 6_whiteLine3.jpg	MediumShort_e16_cut1_stereo_44KHz.wav
3	64	4	3	2	I	2	0	775	1	poli_8sides 9_whiteLine3.jpg	MediumShort_e16_cut1_stereo_44KHz.wav
3	65	2	2	1	C	1	1	1613	1	poli_8sides 13_whiteLine3.jpg	MediumShort_b16_cut3_MS_stereo_44KHz.wav
3	66	3	4	2	I	2	0	1304	0	poli_8sides 6_whiteLine3.jpg	MediumShort_b10_cut1_MS_stereo_44KHz.wav
3	67	4	4	2	I	1	0	985	0	poli_8sides 9_whiteLine3.jpg	MediumShort_b10_cut1_MS_stereo_44KHz.wav
3	68	1	1	1	C	2	0	1150	0	poli_8sides 3_whiteLine3.jpg	MediumShort_e22_cut1_stereo_44KHz.wav
3	69	2	1	0	C	2	1	723	1	poli_8sides 13_whiteLine3.jpg	MediumShort_e22_cut1_stereo_44KHz.wav
3	70	1	2	0	C	2	1	977	1	poli_8sides 3_whiteLine3.jpg	MediumShort_b16_cut3_MS_stereo_44KHz.wav
3	71	4	3	2	I	1	0	960	0	poli_8sides 9_whiteLine3.jpg	MediumShort_e16_cut1_stereo_44KHz.wav
3	72	3	3	2	I	2	0	1058	1	poli_8sides 6_whiteLine3.jpg	MediumShort_e16_cut1_stereo_44KHz.wav
3	73	4	4	2	I	2	0	935	1	poli_8sides 9_whiteLine3.jpg	MediumShort_b10_cut1_MS_stereo_44KHz.wav
3	74	1	1	1	C	1	1	1128	1	poli_8sides 3_whiteLine3.jpg	MediumShort_e22_cut1_stereo_44KHz.wav
3	75	3	3	2	I	2	0	1475	1	poli_8sides 6_whiteLine3.jpg	MediumShort_e16_cut1_stereo_44KHz.wav
3	76	2	1	0	C	2	1	865	1	poli_8sides 13_whiteLine3.jpg	MediumShort_e22_cut1_stereo_44KHz.wav
3	77	3	4	2	I	1	0	1654	0	poli_8sides 6_whiteLine3.jpg	MediumShort_b10_cut1_MS_stereo_44KHz.wav
3	78	1	2	0	C	2	1	960	1	poli_8sides 3_whiteLine3.jpg	MediumShort_b16_cut3_MS_stereo_44KHz.wav
3	79	4	3	2	I	2	0	1693	1	poli_8sides 9_whiteLine3.jpg	MediumShort_e16_cut1_stereo_44KHz.wav
3	80	2	2	1	C	2	0	1800	0	poli_8sides 13_whiteLine3.jpg	MediumShort_b16_cut3_MS_stereo_44KHz.wav
3	81	1	1	1	C	1	1	1539	1	poli_8sides 3_whiteLine3.jpg	MediumShort_e22_cut1_stereo_44KHz.wav
3	82	4	4	2	I	1	0	1234	0	poli_8sides 9_whiteLine3.jpg	MediumShort_b10_cut1_MS_stereo_44KHz.wav
3	83	2	1	0	C	1	0	1423	0	poli_8sides 13_whiteLine3.jpg	MediumShort_e22_cut1_stereo_44KHz.wav
3	84	3	4	2	I	2	0	1064	1	poli_8sides 6_whiteLine3.jpg	MediumShort_b10_cut1_MS_stereo_44KHz.wav
3	85	4	3	2	I	2	0	884	0	poli_8sides 9_whiteLine3.jpg	MediumShort_e16_cut1_stereo_44KHz.wav
3	86	1	2	0	C	2	1	1448	1	poli_8sides 3_whiteLine3.jpg	MediumShort_b16_cut3_MS_stereo_44KHz.wav
3	87	2	2	1	C	1	1	920	1	poli_8sides 13_whiteLine3.jpg	MediumShort_b16_cut3_MS_stereo_44KHz.wav
3	88	3	3	2	I	1	0	1439	0	poli_8sides 6_whiteLine3.jpg	MediumShort_e16_cut1_stereo_44KHz.wav
3	89	2	2	1	C	1	1	1361	1	poli_8sides 13_whiteLine3.jpg	MediumShort_b16_cut3_MS_stereo_44KHz.wav
3	90	3	4	2	I	2	0	1186	0	poli_8sides 6_whiteLine3.jpg	MediumShort_b10_cut1_MS_stereo_44KHz.wav
3	91	4	4	2	I	2	0	750	1	poli_8sides 9_whiteLine3.jpg	MediumShort_b10_cut1_MS_stereo_44KHz.wav
3	92	1	2	0	C	2	1	1058	1	poli_8sides 3_whiteLine3.jpg	MediumShort_b16_cut3_MS_stereo_44KHz.wav
3	93	3	3	2	I	2	0	889	1	poli_8sides 6_whiteLine3.jpg	MediumShort_e16_cut1_stereo_44KHz.wav
3	94	2	1	0	C	2	1	1666	1	poli_8sides 13_whiteLine3.jpg	MediumShort_e22_cut1_stereo_44KHz.wav
3	95	4	3	2	I	1	0	1236	1	poli_8sides 9_whiteLine3.jpg	MediumShort_e16_cut1_stereo_44KHz.wav
3	96	1	1	1	C	1	1	1845	1	poli_8sides 3_whiteLine3.jpg	MediumShort_e22_cut1_stereo_44KHz.wav
3	97	2	1	0	C	2	1	1080	1	poli_8sides 13_whiteLine3.jpg	MediumShort_e22_cut1_stereo_44KHz.wav
3	98	4	3	2	I	1	0	1671	1	poli_8sides 9_whiteLine3.jpg	MediumShort_e16_cut1_stereo_44KHz.wav
3	99	3	4	2	I	2	0	1301	1	poli_8sides 6_whiteLine3.jpg	MediumShort_b10_cut1_MS_stereo_44KHz.wav
3	100	1	1	1	C	1	1	1147	1	poli_8sides 3_whiteLine3.jpg	MediumShort_e22_cut1_stereo_44KHz.wav
3	101	3	3	2	I	2	0	1239	1	poli_8sides 6_whiteLine3.jpg	MediumShort_e16_cut1_stereo_44KHz.wav
3	102	2	2	1	C	1	1	1516	1	poli_8sides 13_whiteLine3.jpg	MediumShort_b16_cut3_MS_stereo_44KHz.wav
3	103	1	2	0	C	2	1	1042	1	poli_8sides 3_whiteLine3.jpg	MediumShort_b16_cut3_MS_stereo_44KHz.wav
3	104	4	4	2	I	1	0	1125	0	poli_8sides 9_whiteLine3.jpg	MediumShort_b10_cut1_MS_stereo_44KHz.wav
3	105	2	2	1	C	2	0	951	0	poli_8sides 13_whiteLine3.jpg	MediumShort_b16_cut3_MS_stereo_44KHz.wav
3	106	1	1	1	C	1	1	995	1	poli_8sides 3_whiteLine3.jpg	MediumShort_e22_cut1_stereo_44KHz.wav
3	107	4	3	2	I	1	0	921	1	poli_8sides 9_whiteLine3.jpg	MediumShort_e16_cut1_stereo_44KHz.wav
3	108	3	3	2	I	2	0	1039	1	poli_8sides 6_whiteLine3.jpg	MediumShort_e16_cut1_stereo_44KHz.wav
3	109	4	4	2	I	2	0	1397	0	poli_8sides 9_whiteLine3.jpg	MediumShort_b10_cut1_MS_stereo_44KHz.wav
3	110	2	1	0	C	1	0	1292	0	poli_8sides 13_whiteLine3.jpg	MediumShort_e22_cut1_stereo_44KHz.wav
3	111	3	4	2	I	2	0	796	1	poli_8sides 6_whiteLine3.jpg	MediumShort_b10_cut1_MS_stereo_44KHz.wav
3	112	1	2	0	C	2	1	807	1	poli_8sides 3_whiteLine3.jpg	MediumShort_b16_cut3_MS_stereo_44KHz.wav
3	113	3	4	2	I	1	0	937	0	poli_8sides 6_whiteLine3.jpg	MediumShort_b10_cut1_MS_stereo_44KHz.wav
3	114	1	2	0	C	2	1	908	1	poli_8sides 3_whiteLine3.jpg	MediumShort_b16_cut3_MS_stereo_44KHz.wav
3	115	2	2	1	C	1	1	1275	1	poli_8sides 13_whiteLine3.jpg	MediumShort_b16_cut3_MS_stereo_44KHz.wav
3	116	4	4	2	I	2	0	1055	0	poli_8sides 9_whiteLine3.jpg	MediumShort_b10_cut1_MS_stereo_44KHz.wav
3	117	3	3	2	I	1	0	1574	0	poli_8sides 6_whiteLine3.jpg	MediumShort_e16_cut1_stereo_44KHz.wav
3	118	1	1	1	C	1	1	1409	1	poli_8sides 3_whiteLine3.jpg	MediumShort_e22_cut1_stereo_44KHz.wav
3	119	2	1	0	C	2	1	1484	1	poli_8sides 13_whiteLine3.jpg	MediumShort_e22_cut1_stereo_44KHz.wav
3	120	4	3	2	I	2	0	1022	0	poli_8sides 9_whiteLine3.jpg	MediumShort_e16_cut1_stereo_44KHz.wav
3	121	3	3	2	I	2	0	1790	1	poli_8sides 6_whiteLine3.jpg	MediumShort_e16_cut1_stereo_44KHz.wav
3	122	1	1	1	C	1	1	1146	1	poli_8sides 3_whiteLine3.jpg	MediumShort_e22_cut1_stereo_44KHz.wav
3	123	4	3	2	I	1	0	1188	1	poli_8sides 9_whiteLine3.jpg	MediumShort_e16_cut1_stereo_44KHz.wav
3	124	2	2	1	C	1	1	1691	1	poli_8sides 13_whiteLine3.jpg	MediumShort_b16_cut3_MS_stereo_44KHz.wav
3	125	4	4	2	I	1	0	1771	1	poli_8sides 9_whiteLine3.jpg	MediumShort_b10_cut1_MS_stereo_44KHz.wav
3	126	1	2	0	C	2	1	1180	1	poli_8sides 3_whiteLine3.jpg	MediumShort_b16_cut3_MS_stereo_44KHz.wav
3	127	3	4	2	I	1	0	1069	0	poli_8sides 6_whiteLine3.jpg	MediumShort_b10_cut1_MS_stereo_44KHz.wav
3	128	2	1	0	C	2	1	1353	1	poli_8sides 13_whiteLine3.jpg	MediumShort_e22_cut1_stereo_44KHz.wav
3	129	4	4	2	I	1	0	734	0	poli_8sides 9_whiteLine3.jpg	MediumShort_b10_cut1_MS_stereo_44KHz.wav
3	130	1	2	0	C	2	1	838	1	poli_8sides 3_whiteLine3.jpg	MediumShort_b16_cut3_MS_stereo_44KHz.wav
3	131	3	3	2	I	2	0	1222	1	poli_8sides 6_whiteLine3.jpg	MediumShort_e16_cut1_stereo_44KHz.wav
3	132	2	2	1	C	1	1	1707	1	poli_8sides 13_whiteLine3.jpg	MediumShort_b16_cut3_MS_stereo_44KHz.wav
3	133	3	4	2	I	1	0	822	0	poli_8sides 6_whiteLine3.jpg	MediumShort_b10_cut1_MS_stereo_44KHz.wav
3	134	2	1	0	C	2	1	1593	1	poli_8sides 13_whiteLine3.jpg	MediumShort_e22_cut1_stereo_44KHz.wav
3	135	1	1	1	C	1	1	972	1	poli_8sides 3_whiteLine3.jpg	MediumShort_e22_cut1_stereo_44KHz.wav
3	136	4	3	2	I	2	0	977	1	poli_8sides 9_whiteLine3.jpg	MediumShort_e16_cut1_stereo_44KHz.wav
3	137	2	1	0	C	2	1	1259	1	poli_8sides 13_whiteLine3.jpg	MediumShort_e22_cut1_stereo_44KHz.wav
3	138	1	2	0	C	2	1	1083	1	poli_8sides 3_whiteLine3.jpg	MediumShort_b16_cut3_MS_stereo_44KHz.wav
3	139	4	4	2	I	1	0	1000	0	poli_8sides 9_whiteLine3.jpg	MediumShort_b10_cut1_MS_stereo_44KHz.wav
3	140	3	4	2	I	2	0	752	0	poli_8sides 6_whiteLine3.jpg	MediumShort_b10_cut1_MS_stereo_44KHz.wav
3	141	4	3	2	I	2	0	1648	1	poli_8sides 9_whiteLine3.jpg	MediumShort_e16_cut1_stereo_44KHz.wav
3	142	1	1	1	C	1	1	1047	1	poli_8sides 3_whiteLine3.jpg	MediumShort_e22_cut1_stereo_44KHz.wav
3	143	3	3	2	I	2	0	1105	1	poli_8sides 6_whiteLine3.jpg	MediumShort_e16_cut1_stereo_44KHz.wav
3	144	2	2	1	C	1	1	1294	1	poli_8sides 13_whiteLine3.jpg	MediumShort_b16_cut3_MS_stereo_44KHz.wav
3	145	1	2	0	C	2	1	1344	1	poli_8sides 3_whiteLine3.jpg	MediumShort_b16_cut3_MS_stereo_44KHz.wav
3	146	4	4	2	I	2	0	1298	1	poli_8sides 9_whiteLine3.jpg	MediumShort_b10_cut1_MS_stereo_44KHz.wav
3	147	3	3	2	I	1	0	780	0	poli_8sides 6_whiteLine3.jpg	MediumShort_e16_cut1_stereo_44KHz.wav
3	148	2	2	1	C	1	1	1198	1	poli_8sides 13_whiteLine3.jpg	MediumShort_b16_cut3_MS_stereo_44KHz.wav
3	149	4	3	2	I	2	0	1773	1	poli_8sides 9_whiteLine3.jpg	MediumShort_e16_cut1_stereo_44KHz.wav
3	150	1	1	1	C	1	1	1230	1	poli_8sides 3_whiteLine3.jpg	MediumShort_e22_cut1_stereo_44KHz.wav
3	151	2	1	0	C	1	0	979	0	poli_8sides 13_whiteLine3.jpg	MediumShort_e22_cut1_stereo_44KHz.wav
3	152	3	4	2	I	2	0	1013	1	poli_8sides 6_whiteLine3.jpg	MediumShort_b10_cut1_MS_stereo_44KHz.wav
3	153	2	1	0	C	2	1	1060	1	poli_8sides 13_whiteLine3.jpg	MediumShort_e22_cut1_stereo_44KHz.wav
3	154	1	2	0	C	2	1	1215	1	poli_8sides 3_whiteLine3.jpg	MediumShort_b16_cut3_MS_stereo_44KHz.wav
3	155	4	3	2	I	1	0	1082	1	poli_8sides 9_whiteLine3.jpg	MediumShort_e16_cut1_stereo_44KHz.wav
3	156	3	4	2	I	2	0	997	1	poli_8sides 6_whiteLine3.jpg	MediumShort_b10_cut1_MS_stereo_44KHz.wav
3	157	4	4	2	I	1	0	825	1	poli_8sides 9_whiteLine3.jpg	MediumShort_b10_cut1_MS_stereo_44KHz.wav
3	158	2	2	1	C	1	1	1064	1	poli_8sides 13_whiteLine3.jpg	MediumShort_b16_cut3_MS_stereo_44KHz.wav
3	159	1	1	1	C	1	1	964	1	poli_8sides 3_whiteLine3.jpg	MediumShort_e22_cut1_stereo_44KHz.wav
3	160	3	3	2	I	2	0	1313	1	poli_8sides 6_whiteLine3.jpg	MediumShort_e16_cut1_stereo_44KHz.wav
3	161	2	1	0	C	2	1	1223	1	poli_8sides 13_whiteLine3.jpg	MediumShort_e22_cut1_stereo_44KHz.wav
3	162	1	2	0	C	2	1	1177	1	poli_8sides 3_whiteLine3.jpg	MediumShort_b16_cut3_MS_stereo_44KHz.wav
3	163	3	3	2	I	2	0	1431	1	poli_8sides 6_whiteLine3.jpg	MediumShort_e16_cut1_stereo_44KHz.wav
3	164	4	4	2	I	2	0	1550	0	poli_8sides 9_whiteLine3.jpg	MediumShort_b10_cut1_MS_stereo_44KHz.wav
3	165	3	4	2	I	2	0	926	1	poli_8sides 6_whiteLine3.jpg	MediumShort_b10_cut1_MS_stereo_44KHz.wav
3	166	1	1	1	C	1	1	1403	1	poli_8sides 3_whiteLine3.jpg	MediumShort_e22_cut1_stereo_44KHz.wav
3	167	2	2	1	C	0	0	0	0	poli_8sides 13_whiteLine3.jpg	MediumShort_b16_cut3_MS_stereo_44KHz.wav
3	168	4	3	2	I	2	0	736	0	poli_8sides 9_whiteLine3.jpg	MediumShort_e16_cut1_stereo_44KHz.wav
3	169	1	2	0	C	2	1	816	1	poli_8sides 3_whiteLine3.jpg	MediumShort_b16_cut3_MS_stereo_44KHz.wav
3	170	3	3	2	I	2	0	739	0	poli_8sides 6_whiteLine3.jpg	MediumShort_e16_cut1_stereo_44KHz.wav
3	171	2	1	0	C	2	1	1030	1	poli_8sides 13_whiteLine3.jpg	MediumShort_e22_cut1_stereo_44KHz.wav
3	172	4	4	2	I	1	0	862	1	poli_8sides 9_whiteLine3.jpg	MediumShort_b10_cut1_MS_stereo_44KHz.wav
3	173	3	4	2	I	2	0	1244	0	poli_8sides 6_whiteLine3.jpg	MediumShort_b10_cut1_MS_stereo_44KHz.wav
3	174	4	3	2	I	2	0	1002	0	poli_8sides 9_whiteLine3.jpg	MediumShort_e16_cut1_stereo_44KHz.wav
3	175	1	1	1	C	1	1	1437	1	poli_8sides 3_whiteLine3.jpg	MediumShort_e22_cut1_stereo_44KHz.wav
3	176	2	2	1	C	1	1	1500	1	poli_8sides 13_whiteLine3.jpg	MediumShort_b16_cut3_MS_stereo_44KHz.wav
3	177	3	3	2	I	2	0	750	1	poli_8sides 6_whiteLine3.jpg	MediumShort_e16_cut1_stereo_44KHz.wav
3	178	2	2	1	C	2	0	1948	0	poli_8sides 13_whiteLine3.jpg	MediumShort_b16_cut3_MS_stereo_44KHz.wav
3	179	4	4	2	I	1	0	708	1	poli_8sides 9_whiteLine3.jpg	MediumShort_b10_cut1_MS_stereo_44KHz.wav
3	180	1	2	0	C	2	1	739	1	poli_8sides 3_whiteLine3.jpg	MediumShort_b16_cut3_MS_stereo_44KHz.wav
3	181	4	3	2	I	1	0	970	0	poli_8sides 9_whiteLine3.jpg	MediumShort_e16_cut1_stereo_44KHz.wav
3	182	2	1	0	C	2	1	952	1	poli_8sides 13_whiteLine3.jpg	MediumShort_e22_cut1_stereo_44KHz.wav
3	183	1	1	1	C	1	1	842	1	poli_8sides 3_whiteLine3.jpg	MediumShort_e22_cut1_stereo_44KHz.wav
3	184	3	4	2	I	2	0	862	0	poli_8sides 6_whiteLine3.jpg	MediumShort_b10_cut1_MS_stereo_44KHz.wav
3	185	4	4	2	I	2	0	497	1	poli_8sides 9_whiteLine3.jpg	MediumShort_b10_cut1_MS_stereo_44KHz.wav
3	186	2	2	1	C	1	1	1282	1	poli_8sides 13_whiteLine3.jpg	MediumShort_b16_cut3_MS_stereo_44KHz.wav
3	187	3	4	2	I	1	0	1115	1	poli_8sides 6_whiteLine3.jpg	MediumShort_b10_cut1_MS_stereo_44KHz.wav
3	188	1	1	1	C	2	0	998	0	poli_8sides 3_whiteLine3.jpg	MediumShort_e22_cut1_stereo_44KHz.wav
3	189	3	3	2	I	1	0	756	0	poli_8sides 6_whiteLine3.jpg	MediumShort_e16_cut1_stereo_44KHz.wav
3	190	2	1	0	C	2	1	1231	1	poli_8sides 13_whiteLine3.jpg	MediumShort_e22_cut1_stereo_44KHz.wav
3	191	4	3	2	I	2	0	993	1	poli_8sides 9_whiteLine3.jpg	MediumShort_e16_cut1_stereo_44KHz.wav
3	192	1	2	0	C	2	1	1038	1	poli_8sides 3_whiteLine3.jpg	MediumShort_b16_cut3_MS_stereo_44KHz.wav
3	193	3	4	2	I	2	0	1066	0	poli_8sides 6_whiteLine3.jpg	MediumShort_b10_cut1_MS_stereo_44KHz.wav
3	194	1	1	1	C	1	1	1088	1	poli_8sides 3_whiteLine3.jpg	MediumShort_e22_cut1_stereo_44KHz.wav
3	195	2	1	0	C	2	1	878	1	poli_8sides 13_whiteLine3.jpg	MediumShort_e22_cut1_stereo_44KHz.wav
3	196	4	3	2	I	2	0	1238	0	poli_8sides 9_whiteLine3.jpg	MediumShort_e16_cut1_stereo_44KHz.wav
3	197	3	3	2	I	2	0	695	0	poli_8sides 6_whiteLine3.jpg	MediumShort_e16_cut1_stereo_44KHz.wav
3	198	2	2	1	C	1	1	1915	1	poli_8sides 13_whiteLine3.jpg	MediumShort_b16_cut3_MS_stereo_44KHz.wav
3	199	4	4	2	I	1	0	1220	1	poli_8sides 9_whiteLine3.jpg	MediumShort_b10_cut1_MS_stereo_44KHz.wav
3	200	1	2	0	C	2	1	905	1	poli_8sides 3_whiteLine3.jpg	MediumShort_b16_cut3_MS_stereo_44KHz.wav
4	1	2	1	0	C	2	1	1399	1	poli_8sides 12_whiteLine3.jpg	Medium_e26_stereo_44KHz.wav
4	2	1	1	1	C	1	1	843	1	poli_8sides 1_whiteLine3.jpg	Medium_e26_stereo_44KHz.wav
4	3	3	4	2	I	2	0	1019	1	poli_8sides 4_whiteLine3.jpg	Medium_e21_stereo_44KHz.wav
4	4	4	3	2	I	2	0	1278	0	poli_8sides 10_whiteLine3.jpg	MediumLong_e19_stereo_44KHz.wav
4	5	3	3	2	I	1	0	1382	0	poli_8sides 4_whiteLine3.jpg	MediumLong_e19_stereo_44KHz.wav
4	6	1	2	0	C	1	0	1461	0	poli_8sides 1_whiteLine3.jpg	Medium_e01_cut1_stereo_44KHz.wav
4	7	2	2	1	C	1	1	1458	1	poli_8sides 12_whiteLine3.jpg	Medium_e01_cut1_stereo_44KHz.wav
4	8	4	4	2	I	2	0	1232	1	poli_8sides 10_whiteLine3.jpg	Medium_e21_stereo_44KHz.wav
4	9	1	1	1	C	2	0	1069	0	poli_8sides 1_whiteLine3.jpg	Medium_e26_stereo_44KHz.wav
4	10	4	3	2	I	1	0	1133	0	poli_8sides 10_whiteLine3.jpg	MediumLong_e19_stereo_44KHz.wav
4	11	2	1	0	C	2	1	864	1	poli_8sides 12_whiteLine3.jpg	Medium_e26_stereo_44KHz.wav
4	12	3	3	2	I	1	0	1395	0	poli_8sides 4_whiteLine3.jpg	MediumLong_e19_stereo_44KHz.wav
4	13	1	2	0	C	2	1	1403	1	poli_8sides 1_whiteLine3.jpg	Medium_e01_cut1_stereo_44KHz.wav
4	14	3	4	2	I	2	0	1106	1	poli_8sides 4_whiteLine3.jpg	Medium_e21_stereo_44KHz.wav
4	15	2	2	1	C	2	0	921	0	poli_8sides 12_whiteLine3.jpg	Medium_e01_cut1_stereo_44KHz.wav
4	16	4	4	2	I	2	0	952	0	poli_8sides 10_whiteLine3.jpg	Medium_e21_stereo_44KHz.wav
4	17	2	1	0	C	2	1	832	1	poli_8sides 12_whiteLine3.jpg	Medium_e26_stereo_44KHz.wav
4	18	4	3	2	I	2	0	1100	1	poli_8sides 10_whiteLine3.jpg	MediumLong_e19_stereo_44KHz.wav
4	19	1	1	1	C	1	1	1186	1	poli_8sides 1_whiteLine3.jpg	Medium_e26_stereo_44KHz.wav
4	20	3	4	2	I	2	0	1438	1	poli_8sides 4_whiteLine3.jpg	Medium_e21_stereo_44KHz.wav
4	21	4	4	2	I	1	0	1180	1	poli_8sides 10_whiteLine3.jpg	Medium_e21_stereo_44KHz.wav
4	22	2	2	1	C	1	1	1391	1	poli_8sides 12_whiteLine3.jpg	Medium_e01_cut1_stereo_44KHz.wav
4	23	1	2	0	C	2	1	1487	1	poli_8sides 1_whiteLine3.jpg	Medium_e01_cut1_stereo_44KHz.wav
4	24	3	3	2	I	2	0	1769	1	poli_8sides 4_whiteLine3.jpg	MediumLong_e19_stereo_44KHz.wav
4	25	1	2	0	C	2	1	1487	1	poli_8sides 1_whiteLine3.jpg	Medium_e01_cut1_stereo_44KHz.wav
4	26	3	3	2	I	2	0	1165	1	poli_8sides 4_whiteLine3.jpg	MediumLong_e19_stereo_44KHz.wav
4	27	4	4	2	I	2	0	1676	0	poli_8sides 10_whiteLine3.jpg	Medium_e21_stereo_44KHz.wav
4	28	2	1	0	C	1	0	1590	0	poli_8sides 12_whiteLine3.jpg	Medium_e26_stereo_44KHz.wav
4	29	4	3	2	I	2	0	764	1	poli_8sides 10_whiteLine3.jpg	MediumLong_e19_stereo_44KHz.wav
4	30	3	4	2	I	2	0	773	1	poli_8sides 4_whiteLine3.jpg	Medium_e21_stereo_44KHz.wav
4	31	2	2	1	C	1	1	1364	1	poli_8sides 12_whiteLine3.jpg	Medium_e01_cut1_stereo_44KHz.wav
4	32	1	1	1	C	2	0	973	0	poli_8sides 1_whiteLine3.jpg	Medium_e26_stereo_44KHz.wav
4	33	3	3	2	I	2	0	1275	1	poli_8sides 4_whiteLine3.jpg	MediumLong_e19_stereo_44KHz.wav
4	34	1	2	0	C	2	1	908	1	poli_8sides 1_whiteLine3.jpg	Medium_e01_cut1_stereo_44KHz.wav
4	35	4	3	2	I	1	0	1621	1	poli_8sides 10_whiteLine3.jpg	MediumLong_e19_stereo_44KHz.wav
4	36	2	2	1	C	2	0	1012	0	poli_8sides 12_whiteLine3.jpg	Medium_e01_cut1_stereo_44KHz.wav
4	37	3	4	2	I	1	0	1593	0	poli_8sides 4_whiteLine3.jpg	Medium_e21_stereo_44KHz.wav
4	38	4	4	2	I	2	0	1068	1	poli_8sides 10_whiteLine3.jpg	Medium_e21_stereo_44KHz.wav
4	39	2	1	0	C	2	1	1047	1	poli_8sides 12_whiteLine3.jpg	Medium_e26_stereo_44KHz.wav
4	40	1	1	1	C	1	1	866	1	poli_8sides 1_whiteLine3.jpg	Medium_e26_stereo_44KHz.wav
4	41	2	1	0	C	2	1	1071	1	poli_8sides 12_whiteLine3.jpg	Medium_e26_stereo_44KHz.wav
4	42	1	2	0	C	2	1	971	1	poli_8sides 1_whiteLine3.jpg	Medium_e01_cut1_stereo_44KHz.wav
4	43	4	3	2	I	1	0	1449	1	poli_8sides 10_whiteLine3.jpg	MediumLong_e19_stereo_44KHz.wav
4	44	3	4	2	I	1	0	1495	0	poli_8sides 4_whiteLine3.jpg	Medium_e21_stereo_44KHz.wav
4	45	1	1	1	C	2	0	1695	0	poli_8sides 1_whiteLine3.jpg	Medium_e26_stereo_44KHz.wav
4	46	2	2	1	C	2	0	680	0	poli_8sides 12_whiteLine3.jpg	Medium_e01_cut1_stereo_44KHz.wav
4	47	4	4	2	I	1	0	1886	0	poli_8sides 10_whiteLine3.jpg	Medium_e21_stereo_44KHz.wav
4	48	3	3	2	I	2	0	838	0	poli_8sides 4_whiteLine3.jpg	MediumLong_e19_stereo_44KHz.wav
4	49	4	4	2	I	2	0	1009	1	poli_8sides 10_whiteLine3.jpg	Medium_e21_stereo_44KHz.wav
4	50	1	2	0	C	2	1	973	1	poli_8sides 1_whiteLine3.jpg	Medium_e01_cut1_stereo_44KHz.wav
4	51	2	1	0	C	1	0	895	0	poli_8sides 12_whiteLine3.jpg	Medium_e26_stereo_44KHz.wav
4	52	3	3	2	I	2	0	909	1	poli_8sides 4_whiteLine3.jpg	MediumLong_e19_stereo_44KHz.wav
4	53	4	3	2	I	1	0	1252	0	poli_8sides 10_whiteLine3.jpg	MediumLong_e19_stereo_44KHz.wav
4	54	2	2	1	C	2	0	1076	0	poli_8sides 12_whiteLine3.jpg	Medium_e01_cut1_stereo_44KHz.wav
4	55	3	4	2	I	2	0	721	1	poli_8sides 4_whiteLine3.jpg	Medium_e21_stereo_44KHz.wav
4	56	1	1	1	C	2	0	720	0	poli_8sides 1_whiteLine3.jpg	Medium_e26_stereo_44KHz.wav
4	57	4	3	2	I	2	0	866	0	poli_8sides 10_whiteLine3.jpg	MediumLong_e19_stereo_44KHz.wav
4	58	2	2	1	C	2	0	817	0	poli_8sides 12_whiteLine3.jpg	Medium_e01_cut1_stereo_44KHz.wav
4	59	3	4	2	I	2	0	780	0	poli_8sides 4_whiteLine3.jpg	Medium_e21_stereo_44KHz.wav
4	60	1	1	1	C	2	0	956	0	poli_8sides 1_whiteLine3.jpg	Medium_e26_stereo_44KHz.wav
4	61	4	4	2	I	2	0	680	0	poli_8sides 10_whiteLine3.jpg	Medium_e21_stereo_44KHz.wav
4	62	3	3	2	I	2	0	951	1	poli_8sides 4_whiteLine3.jpg	MediumLong_e19_stereo_44KHz.wav
4	63	1	2	0	C	1	0	831	0	poli_8sides 1_whiteLine3.jpg	Medium_e01_cut1_stereo_44KHz.wav
4	64	2	1	0	C	2	1	1239	1	poli_8sides 12_whiteLine3.jpg	Medium_e26_stereo_44KHz.wav
4	65	4	3	2	I	2	0	919	0	poli_8sides 10_whiteLine3.jpg	MediumLong_e19_stereo_44KHz.wav
4	66	2	2	1	C	2	0	898	0	poli_8sides 12_whiteLine3.jpg	Medium_e01_cut1_stereo_44KHz.wav
4	67	1	1	1	C	1	1	1046	1	poli_8sides 1_whiteLine3.jpg	Medium_e26_stereo_44KHz.wav
4	68	3	4	2	I	2	0	948	1	poli_8sides 4_whiteLine3.jpg	Medium_e21_stereo_44KHz.wav
4	69	1	2	0	C	2	1	1030	1	poli_8sides 1_whiteLine3.jpg	Medium_e01_cut1_stereo_44KHz.wav
4	70	4	4	2	I	2	0	1138	0	poli_8sides 10_whiteLine3.jpg	Medium_e21_stereo_44KHz.wav
4	71	2	1	0	C	2	1	801	1	poli_8sides 12_whiteLine3.jpg	Medium_e26_stereo_44KHz.wav
4	72	3	3	2	I	2	0	963	0	poli_8sides 4_whiteLine3.jpg	MediumLong_e19_stereo_44KHz.wav
4	73	4	4	2	I	2	0	1420	1	poli_8sides 10_whiteLine3.jpg	Medium_e21_stereo_44KHz.wav
4	74	3	3	2	I	1	0	1189	0	poli_8sides 4_whiteLine3.jpg	MediumLong_e19_stereo_44KHz.wav
4	75	1	2	0	C	2	1	1480	1	poli_8sides 1_whiteLine3.jpg	Medium_e01_cut1_stereo_44KHz.wav
4	76	2	2	1	C	1	1	1101	1	poli_8sides 12_whiteLine3.jpg	Medium_e01_cut1_stereo_44KHz.wav
4	77	1	1	1	C	2	0	729	0	poli_8sides 1_whiteLine3.jpg	Medium_e26_stereo_44KHz.wav
4	78	2	1	0	C	2	1	826	1	poli_8sides 12_whiteLine3.jpg	Medium_e26_stereo_44KHz.wav
4	79	3	4	2	I	2	0	823	0	poli_8sides 4_whiteLine3.jpg	Medium_e21_stereo_44KHz.wav
4	80	4	3	2	I	1	0	1330	1	poli_8sides 10_whiteLine3.jpg	MediumLong_e19_stereo_44KHz.wav
4	81	1	1	1	C	2	0	893	0	poli_8sides 1_whiteLine3.jpg	Medium_e26_stereo_44KHz.wav
4	82	4	3	2	I	1	0	1784	0	poli_8sides 10_whiteLine3.jpg	MediumLong_e19_stereo_44KHz.wav
4	83	2	2	1	C	2	0	801	0	poli_8sides 12_whiteLine3.jpg	Medium_e01_cut1_stereo_44KHz.wav
4	84	3	3	2	I	2	0	973	1	poli_8sides 4_whiteLine3.jpg	MediumLong_e19_stereo_44KHz.wav
4	85	2	1	0	C	1	0	832	0	poli_8sides 12_whiteLine3.jpg	Medium_e26_stereo_44KHz.wav
4	86	1	2	0	C	2	1	1247	1	poli_8sides 1_whiteLine3.jpg	Medium_e01_cut1_stereo_44KHz.wav
4	87	4	4	2	I	2	0	1061	0	poli_8sides 10_whiteLine3.jpg	Medium_e21_stereo_44KHz.wav
4	88	3	4	2	I	2	0	805	0	poli_8sides 4_whiteLine3.jpg	Medium_e21_stereo_44KHz.wav
4	89	4	4	2	I	2	0	791	0	poli_8sides 10_whiteLine3.jpg	Medium_e21_stereo_44KHz.wav
4	90	2	2	1	C	1	1	1514	1	poli_8sides 12_whiteLine3.jpg	Medium_e01_cut1_stereo_44KHz.wav
4	91	3	4	2	I	2	0	484	1	poli_8sides 4_whiteLine3.jpg	Medium_e21_stereo_44KHz.wav
4	92	1	1	1	C	1	1	663	1	poli_8sides 1_whiteLine3.jpg	Medium_e26_stereo_44KHz.wav
4	93	3	3	2	I	2	0	941	0	poli_8sides 4_whiteLine3.jpg	MediumLong_e19_stereo_44KHz.wav
4	94	4	3	2	I	2	0	665	0	poli_8sides 10_whiteLine3.jpg	MediumLong_e19_stereo_44KHz.wav
4	95	2	1	0	C	1	0	1190	0	poli_8sides 12_whiteLine3.jpg	Medium_e26_stereo_44KHz.wav
4	96	1	2	0	C	2	1	725	1	poli_8sides 1_whiteLine3.jpg	Medium_e01_cut1_stereo_44KHz.wav
4	97	4	3	2	I	2	0	810	0	poli_8sides 10_whiteLine3.jpg	MediumLong_e19_stereo_44KHz.wav
4	98	1	1	1	C	1	1	1317	1	poli_8sides 1_whiteLine3.jpg	Medium_e26_stereo_44KHz.wav
4	99	3	4	2	I	2	0	944	0	poli_8sides 4_whiteLine3.jpg	Medium_e21_stereo_44KHz.wav
4	100	2	1	0	C	1	0	883	0	poli_8sides 12_whiteLine3.jpg	Medium_e26_stereo_44KHz.wav
4	101	1	2	0	C	1	0	1343	0	poli_8sides 1_whiteLine3.jpg	Medium_e01_cut1_stereo_44KHz.wav
4	102	4	4	2	I	2	0	1040	1	poli_8sides 10_whiteLine3.jpg	Medium_e21_stereo_44KHz.wav
4	103	2	2	1	C	1	1	1350	1	poli_8sides 12_whiteLine3.jpg	Medium_e01_cut1_stereo_44KHz.wav
4	104	3	3	2	I	2	0	965	0	poli_8sides 4_whiteLine3.jpg	MediumLong_e19_stereo_44KHz.wav
4	105	2	2	1	C	1	1	1077	1	poli_8sides 12_whiteLine3.jpg	Medium_e01_cut1_stereo_44KHz.wav
4	106	1	2	0	C	1	0	950	0	poli_8sides 1_whiteLine3.jpg	Medium_e01_cut1_stereo_44KHz.wav
4	107	3	3	2	I	1	0	1277	0	poli_8sides 4_whiteLine3.jpg	MediumLong_e19_stereo_44KHz.wav
4	108	4	4	2	I	2	0	1350	1	poli_8sides 10_whiteLine3.jpg	Medium_e21_stereo_44KHz.wav
4	109	1	1	1	C	2	0	879	0	poli_8sides 1_whiteLine3.jpg	Medium_e26_stereo_44KHz.wav
4	110	2	1	0	C	1	0	1982	0	poli_8sides 12_whiteLine3.jpg	Medium_e26_stereo_44KHz.wav
4	111	3	4	2	I	2	0	671	0	poli_8sides 4_whiteLine3.jpg	Medium_e21_stereo_44KHz.wav
4	112	4	3	2	I	1	0	948	1	poli_8sides 10_whiteLine3.jpg	MediumLong_e19_stereo_44KHz.wav
4	113	2	1	0	C	1	0	927	0	poli_8sides 12_whiteLine3.jpg	Medium_e26_stereo_44KHz.wav
4	114	4	4	2	I	1	0	1355	1	poli_8sides 10_whiteLine3.jpg	Medium_e21_stereo_44KHz.wav
4	115	3	3	2	I	1	0	1079	1	poli_8sides 4_whiteLine3.jpg	MediumLong_e19_stereo_44KHz.wav
4	116	1	2	0	C	2	1	1255	1	poli_8sides 1_whiteLine3.jpg	Medium_e01_cut1_stereo_44KHz.wav
4	117	2	2	1	C	1	1	951	1	poli_8sides 12_whiteLine3.jpg	Medium_e01_cut1_stereo_44KHz.wav
4	118	4	3	2	I	1	0	1326	0	poli_8sides 10_whiteLine3.jpg	MediumLong_e19_stereo_44KHz.wav
4	119	1	1	1	C	1	1	1671	1	poli_8sides 1_whiteLine3.jpg	Medium_e26_stereo_44KHz.wav
4	120	3	4	2	I	2	0	969	0	poli_8sides 4_whiteLine3.jpg	Medium_e21_stereo_44KHz.wav
4	121	4	4	2	I	2	0	732	0	poli_8sides 10_whiteLine3.jpg	Medium_e21_stereo_44KHz.wav
4	122	3	4	2	I	1	0	998	0	poli_8sides 4_whiteLine3.jpg	Medium_e21_stereo_44KHz.wav
4	123	2	1	0	C	2	1	869	1	poli_8sides 12_whiteLine3.jpg	Medium_e26_stereo_44KHz.wav
4	124	1	2	0	C	1	0	1168	0	poli_8sides 1_whiteLine3.jpg	Medium_e01_cut1_stereo_44KHz.wav
4	125	3	3	2	I	2	0	721	0	poli_8sides 4_whiteLine3.jpg	MediumLong_e19_stereo_44KHz.wav
4	126	2	2	1	C	2	0	782	0	poli_8sides 12_whiteLine3.jpg	Medium_e01_cut1_stereo_44KHz.wav
4	127	1	1	1	C	2	0	603	0	poli_8sides 1_whiteLine3.jpg	Medium_e26_stereo_44KHz.wav
4	128	4	3	2	I	2	0	777	1	poli_8sides 10_whiteLine3.jpg	MediumLong_e19_stereo_44KHz.wav
4	129	3	3	2	I	1	0	1095	1	poli_8sides 4_whiteLine3.jpg	MediumLong_e19_stereo_44KHz.wav
4	130	1	2	0	C	2	1	1171	1	poli_8sides 1_whiteLine3.jpg	Medium_e01_cut1_stereo_44KHz.wav
4	131	2	2	1	C	1	1	814	1	poli_8sides 12_whiteLine3.jpg	Medium_e01_cut1_stereo_44KHz.wav
4	132	4	4	2	I	1	0	1231	0	poli_8sides 10_whiteLine3.jpg	Medium_e21_stereo_44KHz.wav
4	133	1	1	1	C	1	1	1119	1	poli_8sides 1_whiteLine3.jpg	Medium_e26_stereo_44KHz.wav
4	134	2	1	0	C	2	1	1041	1	poli_8sides 12_whiteLine3.jpg	Medium_e26_stereo_44KHz.wav
4	135	3	4	2	I	2	0	1082	1	poli_8sides 4_whiteLine3.jpg	Medium_e21_stereo_44KHz.wav
4	136	4	3	2	I	2	0	1621	1	poli_8sides 10_whiteLine3.jpg	MediumLong_e19_stereo_44KHz.wav
4	137	2	1	0	C	1	0	1827	0	poli_8sides 12_whiteLine3.jpg	Medium_e26_stereo_44KHz.wav
4	138	1	1	1	C	0	0	0	0	poli_8sides 1_whiteLine3.jpg	Medium_e26_stereo_44KHz.wav
4	139	4	3	2	I	2	0	1035	0	poli_8sides 10_whiteLine3.jpg	MediumLong_e19_stereo_44KHz.wav
4	140	3	4	2	I	2	0	943	1	poli_8sides 4_whiteLine3.jpg	Medium_e21_stereo_44KHz.wav
4	141	1	2	0	C	2	1	974	1	poli_8sides 1_whiteLine3.jpg	Medium_e01_cut1_stereo_44KHz.wav
4	142	4	4	2	I	2	0	979	1	poli_8sides 10_whiteLine3.jpg	Medium_e21_stereo_44KHz.wav
4	143	3	3	2	I	2	0	927	0	poli_8sides 4_whiteLine3.jpg	MediumLong_e19_stereo_44KHz.wav
4	144	2	2	1	C	1	1	954	1	poli_8sides 12_whiteLine3.jpg	Medium_e01_cut1_stereo_44KHz.wav
4	145	1	2	0	C	2	1	876	1	poli_8sides 1_whiteLine3.jpg	Medium_e01_cut1_stereo_44KHz.wav
4	146	2	1	0	C	2	1	1113	1	poli_8sides 12_whiteLine3.jpg	Medium_e26_stereo_44KHz.wav
4	147	3	3	2	I	1	0	854	0	poli_8sides 4_whiteLine3.jpg	MediumLong_e19_stereo_44KHz.wav
4	148	4	4	2	I	2	0	822	0	poli_8sides 10_whiteLine3.jpg	Medium_e21_stereo_44KHz.wav
4	149	1	1	1	C	1	1	1194	1	poli_8sides 1_whiteLine3.jpg	Medium_e26_stereo_44KHz.wav
4	150	3	4	2	I	2	0	963	1	poli_8sides 4_whiteLine3.jpg	Medium_e21_stereo_44KHz.wav
4	151	4	3	2	I	2	0	925	1	poli_8sides 10_whiteLine3.jpg	MediumLong_e19_stereo_44KHz.wav
4	152	2	2	1	C	1	1	886	1	poli_8sides 12_whiteLine3.jpg	Medium_e01_cut1_stereo_44KHz.wav
4	153	3	3	2	I	1	0	1113	1	poli_8sides 4_whiteLine3.jpg	MediumLong_e19_stereo_44KHz.wav
4	154	1	1	1	C	1	1	1268	1	poli_8sides 1_whiteLine3.jpg	Medium_e26_stereo_44KHz.wav
4	155	2	2	1	C	1	1	1569	1	poli_8sides 12_whiteLine3.jpg	Medium_e01_cut1_stereo_44KHz.wav
4	156	4	3	2	I	2	0	1160	0	poli_8sides 10_whiteLine3.jpg	MediumLong_e19_stereo_44KHz.wav
4	157	1	2	0	C	2	1	1050	1	poli_8sides 1_whiteLine3.jpg	Medium_e01_cut1_stereo_44KHz.wav
4	158	3	4	2	I	2	0	898	1	poli_8sides 4_whiteLine3.jpg	Medium_e21_stereo_44KHz.wav
4	159	4	4	2	I	2	0	1478	1	poli_8sides 10_whiteLine3.jpg	Medium_e21_stereo_44KHz.wav
4	160	2	1	0	C	2	1	1081	1	poli_8sides 12_whiteLine3.jpg	Medium_e26_stereo_44KHz.wav
4	161	3	3	2	I	1	0	1038	0	poli_8sides 4_whiteLine3.jpg	MediumLong_e19_stereo_44KHz.wav
4	162	2	2	1	C	1	1	795	1	poli_8sides 12_whiteLine3.jpg	Medium_e01_cut1_stereo_44KHz.wav
4	163	4	4	2	I	2	0	827	1	poli_8sides 10_whiteLine3.jpg	Medium_e21_stereo_44KHz.wav
4	164	1	1	1	C	1	1	978	1	poli_8sides 1_whiteLine3.jpg	Medium_e26_stereo_44KHz.wav
4	165	2	1	0	C	2	1	1204	1	poli_8sides 12_whiteLine3.jpg	Medium_e26_stereo_44KHz.wav
4	166	3	4	2	I	2	0	775	1	poli_8sides 4_whiteLine3.jpg	Medium_e21_stereo_44KHz.wav
4	167	1	2	0	C	2	1	932	1	poli_8sides 1_whiteLine3.jpg	Medium_e01_cut1_stereo_44KHz.wav
4	168	4	3	2	I	1	0	1026	0	poli_8sides 10_whiteLine3.jpg	MediumLong_e19_stereo_44KHz.wav
4	169	3	4	2	I	2	0	920	0	poli_8sides 4_whiteLine3.jpg	Medium_e21_stereo_44KHz.wav
4	170	2	2	1	C	1	1	1334	1	poli_8sides 12_whiteLine3.jpg	Medium_e01_cut1_stereo_44KHz.wav
4	171	1	2	0	C	2	1	728	1	poli_8sides 1_whiteLine3.jpg	Medium_e01_cut1_stereo_44KHz.wav
4	172	4	4	2	I	2	0	756	0	poli_8sides 10_whiteLine3.jpg	Medium_e21_stereo_44KHz.wav
4	173	3	3	2	I	2	0	793	0	poli_8sides 4_whiteLine3.jpg	MediumLong_e19_stereo_44KHz.wav
4	174	2	1	0	C	2	1	1044	1	poli_8sides 12_whiteLine3.jpg	Medium_e26_stereo_44KHz.wav
4	175	4	3	2	I	1	0	1163	0	poli_8sides 10_whiteLine3.jpg	MediumLong_e19_stereo_44KHz.wav
4	176	1	1	1	C	1	1	1429	1	poli_8sides 1_whiteLine3.jpg	Medium_e26_stereo_44KHz.wav
4	177	2	1	0	C	2	1	1074	1	poli_8sides 12_whiteLine3.jpg	Medium_e26_stereo_44KHz.wav
4	178	4	4	2	I	1	0	1025	1	poli_8sides 10_whiteLine3.jpg	Medium_e21_stereo_44KHz.wav
4	179	3	3	2	I	1	0	1320	1	poli_8sides 4_whiteLine3.jpg	MediumLong_e19_stereo_44KHz.wav
4	180	1	2	0	C	2	1	916	1	poli_8sides 1_whiteLine3.jpg	Medium_e01_cut1_stereo_44KHz.wav
4	181	3	4	2	I	1	0	960	1	poli_8sides 4_whiteLine3.jpg	Medium_e21_stereo_44KHz.wav
4	182	1	1	1	C	1	1	1215	1	poli_8sides 1_whiteLine3.jpg	Medium_e26_stereo_44KHz.wav
4	183	2	2	1	C	1	1	993	1	poli_8sides 12_whiteLine3.jpg	Medium_e01_cut1_stereo_44KHz.wav
4	184	4	3	2	I	2	0	1215	1	poli_8sides 10_whiteLine3.jpg	MediumLong_e19_stereo_44KHz.wav
4	185	2	1	0	C	2	1	1290	1	poli_8sides 12_whiteLine3.jpg	Medium_e26_stereo_44KHz.wav
4	186	1	1	1	C	1	1	834	1	poli_8sides 1_whiteLine3.jpg	Medium_e26_stereo_44KHz.wav
4	187	3	3	2	I	1	0	1065	0	poli_8sides 4_whiteLine3.jpg	MediumLong_e19_stereo_44KHz.wav
4	188	4	4	2	I	1	0	1079	1	poli_8sides 10_whiteLine3.jpg	Medium_e21_stereo_44KHz.wav
4	189	2	2	1	C	1	1	989	1	poli_8sides 12_whiteLine3.jpg	Medium_e01_cut1_stereo_44KHz.wav
4	190	1	2	0	C	2	1	1048	1	poli_8sides 1_whiteLine3.jpg	Medium_e01_cut1_stereo_44KHz.wav
4	191	4	3	2	I	2	0	1184	1	poli_8sides 10_whiteLine3.jpg	MediumLong_e19_stereo_44KHz.wav
4	192	3	4	2	I	2	0	1151	1	poli_8sides 4_whiteLine3.jpg	Medium_e21_stereo_44KHz.wav
4	193	4	4	2	I	1	0	1718	0	poli_8sides 10_whiteLine3.jpg	Medium_e21_stereo_44KHz.wav
4	194	2	1	0	C	2	1	1128	1	poli_8sides 12_whiteLine3.jpg	Medium_e26_stereo_44KHz.wav
4	195	3	3	2	I	1	0	987	0	poli_8sides 4_whiteLine3.jpg	MediumLong_e19_stereo_44KHz.wav
4	196	1	2	0	C	2	1	913	1	poli_8sides 1_whiteLine3.jpg	Medium_e01_cut1_stereo_44KHz.wav
4	197	3	4	2	I	1	0	1032	1	poli_8sides 4_whiteLine3.jpg	Medium_e21_stereo_44KHz.wav
4	198	4	3	2	I	2	0	778	1	poli_8sides 10_whiteLine3.jpg	MediumLong_e19_stereo_44KHz.wav
4	199	1	1	1	C	1	1	1924	1	poli_8sides 1_whiteLine3.jpg	Medium_e26_stereo_44KHz.wav
4	200	2	2	1	C	1	1	1219	1	poli_8sides 12_whiteLine3.jpg	Medium_e01_cut1_stereo_44KHz.wav
