block	trial	Vstim	Astim	match	C/I	resp	result	RT	fb	V-file	A-file
LR

0	1	2	4	0	C	0	0	0	0	poli_8sides 22_whiteLine3.jpg	Practice1_b27_cut1_stereo_44KHz.wav
0	2	2	3	1	C	2	1	632	1	poli_8sides 22_whiteLine3.jpg	Practice4_b26_stereo_44KHz.wav
0	3	1	1	1	C	1	0	846	0	poli_8sides 23_whiteLine3.jpg	Practice2_b27_cut2_stereo_44KHz.wav
0	4	1	2	0	C	1	1	776	1	poli_8sides 23_whiteLine3.jpg	Practice3_b26_cut1_stereo_44KHz.wav
0	5	1	1	1	C	2	1	981	1	poli_8sides 23_whiteLine3.jpg	Practice2_b27_cut2_stereo_44KHz.wav
0	6	2	4	0	C	1	1	771	1	poli_8sides 22_whiteLine3.jpg	Practice1_b27_cut1_stereo_44KHz.wav
0	7	2	3	1	C	1	0	917	0	poli_8sides 22_whiteLine3.jpg	Practice4_b26_stereo_44KHz.wav
0	8	1	2	0	C	2	0	1015	0	poli_8sides 23_whiteLine3.jpg	Practice3_b26_cut1_stereo_44KHz.wav
0	9	1	2	0	C	1	1	839	1	poli_8sides 23_whiteLine3.jpg	Practice3_b26_cut1_stereo_44KHz.wav
0	10	2	4	0	C	1	1	966	1	poli_8sides 22_whiteLine3.jpg	Practice1_b27_cut1_stereo_44KHz.wav
0	11	2	3	1	C	2	1	873	1	poli_8sides 22_whiteLine3.jpg	Practice4_b26_stereo_44KHz.wav
0	12	1	1	1	C	2	1	1452	1	poli_8sides 23_whiteLine3.jpg	Practice2_b27_cut2_stereo_44KHz.wav
0	13	1	1	1	C	2	1	1108	1	poli_8sides 23_whiteLine3.jpg	Practice2_b27_cut2_stereo_44KHz.wav
0	14	1	2	0	C	1	1	913	1	poli_8sides 23_whiteLine3.jpg	Practice3_b26_cut1_stereo_44KHz.wav
0	15	2	4	0	C	1	1	1231	1	poli_8sides 22_whiteLine3.jpg	Practice1_b27_cut1_stereo_44KHz.wav
0	16	2	3	1	C	2	1	857	1	poli_8sides 22_whiteLine3.jpg	Practice4_b26_stereo_44KHz.wav
0	17	2	4	0	C	1	1	793	1	poli_8sides 22_whiteLine3.jpg	Practice1_b27_cut1_stereo_44KHz.wav
0	18	1	2	0	C	1	1	1624	1	poli_8sides 23_whiteLine3.jpg	Practice3_b26_cut1_stereo_44KHz.wav
0	19	1	1	1	C	2	1	1411	1	poli_8sides 23_whiteLine3.jpg	Practice2_b27_cut2_stereo_44KHz.wav
0	20	2	3	1	C	1	0	797	0	poli_8sides 22_whiteLine3.jpg	Practice4_b26_stereo_44KHz.wav
0	21	2	4	0	C	1	1	1012	1	poli_8sides 22_whiteLine3.jpg	Practice1_b27_cut1_stereo_44KHz.wav
0	22	1	1	1	C	2	1	1427	1	poli_8sides 23_whiteLine3.jpg	Practice2_b27_cut2_stereo_44KHz.wav
0	23	1	2	0	C	1	1	1229	1	poli_8sides 23_whiteLine3.jpg	Practice3_b26_cut1_stereo_44KHz.wav
0	24	2	3	1	C	2	1	941	1	poli_8sides 22_whiteLine3.jpg	Practice4_b26_stereo_44KHz.wav
0	25	1	2	0	C	2	0	794	0	poli_8sides 23_whiteLine3.jpg	Practice3_b26_cut1_stereo_44KHz.wav
0	26	1	1	1	C	2	1	884	1	poli_8sides 23_whiteLine3.jpg	Practice2_b27_cut2_stereo_44KHz.wav
0	27	2	4	0	C	1	1	721	1	poli_8sides 22_whiteLine3.jpg	Practice1_b27_cut1_stereo_44KHz.wav
0	28	2	3	1	C	2	1	920	1	poli_8sides 22_whiteLine3.jpg	Practice4_b26_stereo_44KHz.wav
0	29	1	1	1	C	1	0	896	0	poli_8sides 23_whiteLine3.jpg	Practice2_b27_cut2_stereo_44KHz.wav
0	30	1	2	0	C	1	1	1230	1	poli_8sides 23_whiteLine3.jpg	Practice3_b26_cut1_stereo_44KHz.wav
avg_resp = 1026
1	1	1	1	1	C	1	0	1530	0	poli_8sides 16_whiteLine3.jpg	Short_b20_cut1_stereo_44KHz.wav
1	2	3	4	2	I	1	0	681	0	poli_8sides 2_whiteLine3.jpg	Short_b09_cut1_stereo_44KHz.wav
1	3	2	1	0	C	1	1	923	1	poli_8sides 13_whiteLine3.jpg	Short_b20_cut1_stereo_44KHz.wav
1	4	4	3	2	I	1	0	892	1	poli_8sides 1_whiteLine3.jpg	Short_b22_cut1_stereo_44KHz.wav
1	5	3	3	2	I	2	0	827	0	poli_8sides 2_whiteLine3.jpg	Short_b22_cut1_stereo_44KHz.wav
1	6	4	4	2	I	1	0	1093	0	poli_8sides 1_whiteLine3.jpg	Short_b09_cut1_stereo_44KHz.wav
1	7	2	2	1	C	1	0	1059	0	poli_8sides 13_whiteLine3.jpg	Short_b23_cut1_stereo_44KHz.wav
1	8	1	2	0	C	1	1	963	1	poli_8sides 16_whiteLine3.jpg	Short_b23_cut1_stereo_44KHz.wav
1	9	4	4	2	I	1	0	1258	0	poli_8sides 1_whiteLine3.jpg	Short_b09_cut1_stereo_44KHz.wav
1	10	2	2	1	C	1	0	927	0	poli_8sides 13_whiteLine3.jpg	Short_b23_cut1_stereo_44KHz.wav
1	11	1	1	1	C	1	0	1447	0	poli_8sides 16_whiteLine3.jpg	Short_b20_cut1_stereo_44KHz.wav
1	12	3	4	2	I	1	0	952	1	poli_8sides 2_whiteLine3.jpg	Short_b09_cut1_stereo_44KHz.wav
1	13	4	3	2	I	2	0	1002	0	poli_8sides 1_whiteLine3.jpg	Short_b22_cut1_stereo_44KHz.wav
1	14	1	2	0	C	1	1	749	1	poli_8sides 16_whiteLine3.jpg	Short_b23_cut1_stereo_44KHz.wav
1	15	3	3	2	I	1	0	1091	1	poli_8sides 2_whiteLine3.jpg	Short_b22_cut1_stereo_44KHz.wav
1	16	2	1	0	C	1	1	1283	1	poli_8sides 13_whiteLine3.jpg	Short_b20_cut1_stereo_44KHz.wav
1	17	1	2	0	C	1	1	1084	1	poli_8sides 16_whiteLine3.jpg	Short_b23_cut1_stereo_44KHz.wav
1	18	4	3	2	I	2	0	939	0	poli_8sides 1_whiteLine3.jpg	Short_b22_cut1_stereo_44KHz.wav
1	19	3	3	2	I	1	0	816	1	poli_8sides 2_whiteLine3.jpg	Short_b22_cut1_stereo_44KHz.wav
1	20	2	1	0	C	1	1	844	1	poli_8sides 13_whiteLine3.jpg	Short_b20_cut1_stereo_44KHz.wav
1	21	4	4	2	I	2	0	843	0	poli_8sides 1_whiteLine3.jpg	Short_b09_cut1_stereo_44KHz.wav
1	22	3	4	2	I	2	0	949	0	poli_8sides 2_whiteLine3.jpg	Short_b09_cut1_stereo_44KHz.wav
1	23	2	2	1	C	2	1	921	1	poli_8sides 13_whiteLine3.jpg	Short_b23_cut1_stereo_44KHz.wav
1	24	1	1	1	C	2	1	1042	1	poli_8sides 16_whiteLine3.jpg	Short_b20_cut1_stereo_44KHz.wav
1	25	3	3	2	I	1	0	721	1	poli_8sides 2_whiteLine3.jpg	Short_b22_cut1_stereo_44KHz.wav
1	26	1	1	1	C	2	1	1284	1	poli_8sides 16_whiteLine3.jpg	Short_b20_cut1_stereo_44KHz.wav
1	27	4	3	2	I	0	0	0	0	poli_8sides 1_whiteLine3.jpg	Short_b22_cut1_stereo_44KHz.wav
1	28	2	2	1	C	2	1	750	1	poli_8sides 13_whiteLine3.jpg	Short_b23_cut1_stereo_44KHz.wav
1	29	1	2	0	C	1	1	627	1	poli_8sides 16_whiteLine3.jpg	Short_b23_cut1_stereo_44KHz.wav
1	30	2	1	0	C	1	1	948	1	poli_8sides 13_whiteLine3.jpg	Short_b20_cut1_stereo_44KHz.wav
1	31	3	4	2	I	2	0	1735	0	poli_8sides 2_whiteLine3.jpg	Short_b09_cut1_stereo_44KHz.wav
1	32	4	4	2	I	2	0	754	0	poli_8sides 1_whiteLine3.jpg	Short_b09_cut1_stereo_44KHz.wav
1	33	3	4	2	I	1	0	1110	1	poli_8sides 2_whiteLine3.jpg	Short_b09_cut1_stereo_44KHz.wav
1	34	4	4	2	I	1	0	823	1	poli_8sides 1_whiteLine3.jpg	Short_b09_cut1_stereo_44KHz.wav
1	35	2	2	1	C	2	1	840	1	poli_8sides 13_whiteLine3.jpg	Short_b23_cut1_stereo_44KHz.wav
1	36	1	2	0	C	1	1	690	1	poli_8sides 16_whiteLine3.jpg	Short_b23_cut1_stereo_44KHz.wav
1	37	3	3	2	I	1	0	762	1	poli_8sides 2_whiteLine3.jpg	Short_b22_cut1_stereo_44KHz.wav
1	38	4	3	2	I	1	0	1035	1	poli_8sides 1_whiteLine3.jpg	Short_b22_cut1_stereo_44KHz.wav
1	39	2	1	0	C	1	1	773	1	poli_8sides 13_whiteLine3.jpg	Short_b20_cut1_stereo_44KHz.wav
1	40	1	1	1	C	2	1	932	1	poli_8sides 16_whiteLine3.jpg	Short_b20_cut1_stereo_44KHz.wav
1	41	4	4	2	I	1	0	1061	0	poli_8sides 1_whiteLine3.jpg	Short_b09_cut1_stereo_44KHz.wav
1	42	3	4	2	I	1	0	672	1	poli_8sides 2_whiteLine3.jpg	Short_b09_cut1_stereo_44KHz.wav
1	43	2	1	0	C	1	1	827	1	poli_8sides 13_whiteLine3.jpg	Short_b20_cut1_stereo_44KHz.wav
1	44	1	2	0	C	2	0	1050	0	poli_8sides 16_whiteLine3.jpg	Short_b23_cut1_stereo_44KHz.wav
1	45	4	3	2	I	1	0	793	1	poli_8sides 1_whiteLine3.jpg	Short_b22_cut1_stereo_44KHz.wav
1	46	3	3	2	I	1	0	850	0	poli_8sides 2_whiteLine3.jpg	Short_b22_cut1_stereo_44KHz.wav
1	47	1	1	1	C	2	1	1026	1	poli_8sides 16_whiteLine3.jpg	Short_b20_cut1_stereo_44KHz.wav
1	48	2	2	1	C	2	1	807	1	poli_8sides 13_whiteLine3.jpg	Short_b23_cut1_stereo_44KHz.wav
1	49	3	3	2	I	1	0	834	1	poli_8sides 2_whiteLine3.jpg	Short_b22_cut1_stereo_44KHz.wav
1	50	4	4	2	I	2	0	787	0	poli_8sides 1_whiteLine3.jpg	Short_b09_cut1_stereo_44KHz.wav
1	51	2	1	0	C	1	1	1156	1	poli_8sides 13_whiteLine3.jpg	Short_b20_cut1_stereo_44KHz.wav
1	52	1	1	1	C	2	1	997	1	poli_8sides 16_whiteLine3.jpg	Short_b20_cut1_stereo_44KHz.wav
1	53	2	2	1	C	2	1	906	1	poli_8sides 13_whiteLine3.jpg	Short_b23_cut1_stereo_44KHz.wav
1	54	1	2	0	C	1	1	780	1	poli_8sides 16_whiteLine3.jpg	Short_b23_cut1_stereo_44KHz.wav
1	55	4	3	2	I	1	0	725	1	poli_8sides 1_whiteLine3.jpg	Short_b22_cut1_stereo_44KHz.wav
1	56	3	4	2	I	1	0	1426	0	poli_8sides 2_whiteLine3.jpg	Short_b09_cut1_stereo_44KHz.wav
1	57	4	4	2	I	1	0	651	0	poli_8sides 1_whiteLine3.jpg	Short_b09_cut1_stereo_44KHz.wav
1	58	2	2	1	C	2	1	952	1	poli_8sides 13_whiteLine3.jpg	Short_b23_cut1_stereo_44KHz.wav
1	59	1	2	0	C	1	1	895	1	poli_8sides 16_whiteLine3.jpg	Short_b23_cut1_stereo_44KHz.wav
1	60	3	3	2	I	1	0	672	0	poli_8sides 2_whiteLine3.jpg	Short_b22_cut1_stereo_44KHz.wav
1	61	4	3	2	I	1	0	683	0	poli_8sides 1_whiteLine3.jpg	Short_b22_cut1_stereo_44KHz.wav
1	62	1	1	1	C	2	1	995	1	poli_8sides 16_whiteLine3.jpg	Short_b20_cut1_stereo_44KHz.wav
1	63	3	4	2	I	1	0	703	1	poli_8sides 2_whiteLine3.jpg	Short_b09_cut1_stereo_44KHz.wav
1	64	2	1	0	C	1	1	1075	1	poli_8sides 13_whiteLine3.jpg	Short_b20_cut1_stereo_44KHz.wav
1	65	1	2	0	C	1	1	1114	1	poli_8sides 16_whiteLine3.jpg	Short_b23_cut1_stereo_44KHz.wav
1	66	3	3	2	I	2	0	1408	1	poli_8sides 2_whiteLine3.jpg	Short_b22_cut1_stereo_44KHz.wav
1	67	4	3	2	I	1	0	619	0	poli_8sides 1_whiteLine3.jpg	Short_b22_cut1_stereo_44KHz.wav
1	68	2	2	1	C	2	1	764	1	poli_8sides 13_whiteLine3.jpg	Short_b23_cut1_stereo_44KHz.wav
1	69	4	4	2	I	1	0	1269	1	poli_8sides 1_whiteLine3.jpg	Short_b09_cut1_stereo_44KHz.wav
1	70	3	4	2	I	1	0	605	1	poli_8sides 2_whiteLine3.jpg	Short_b09_cut1_stereo_44KHz.wav
1	71	1	1	1	C	2	1	957	1	poli_8sides 16_whiteLine3.jpg	Short_b20_cut1_stereo_44KHz.wav
1	72	2	1	0	C	1	1	802	1	poli_8sides 13_whiteLine3.jpg	Short_b20_cut1_stereo_44KHz.wav
1	73	3	4	2	I	1	0	1100	0	poli_8sides 2_whiteLine3.jpg	Short_b09_cut1_stereo_44KHz.wav
1	74	4	3	2	I	2	0	780	1	poli_8sides 1_whiteLine3.jpg	Short_b22_cut1_stereo_44KHz.wav
1	75	2	1	0	C	1	1	662	1	poli_8sides 13_whiteLine3.jpg	Short_b20_cut1_stereo_44KHz.wav
1	76	1	1	1	C	2	1	854	1	poli_8sides 16_whiteLine3.jpg	Short_b20_cut1_stereo_44KHz.wav
1	77	3	3	2	I	2	0	839	1	poli_8sides 2_whiteLine3.jpg	Short_b22_cut1_stereo_44KHz.wav
1	78	4	4	2	I	1	0	1052	1	poli_8sides 1_whiteLine3.jpg	Short_b09_cut1_stereo_44KHz.wav
1	79	2	2	1	C	2	1	748	1	poli_8sides 13_whiteLine3.jpg	Short_b23_cut1_stereo_44KHz.wav
1	80	1	2	0	C	1	1	752	1	poli_8sides 16_whiteLine3.jpg	Short_b23_cut1_stereo_44KHz.wav
1	81	3	3	2	I	2	0	675	0	poli_8sides 2_whiteLine3.jpg	Short_b22_cut1_stereo_44KHz.wav
1	82	2	2	1	C	2	1	840	1	poli_8sides 13_whiteLine3.jpg	Short_b23_cut1_stereo_44KHz.wav
1	83	1	1	1	C	2	1	959	1	poli_8sides 16_whiteLine3.jpg	Short_b20_cut1_stereo_44KHz.wav
1	84	4	3	2	I	1	0	735	1	poli_8sides 1_whiteLine3.jpg	Short_b22_cut1_stereo_44KHz.wav
1	85	3	4	2	I	2	0	1723	0	poli_8sides 2_whiteLine3.jpg	Short_b09_cut1_stereo_44KHz.wav
1	86	1	2	0	C	1	1	996	1	poli_8sides 16_whiteLine3.jpg	Short_b23_cut1_stereo_44KHz.wav
1	87	4	4	2	I	1	0	1044	1	poli_8sides 1_whiteLine3.jpg	Short_b09_cut1_stereo_44KHz.wav
1	88	2	1	0	C	1	1	893	1	poli_8sides 13_whiteLine3.jpg	Short_b20_cut1_stereo_44KHz.wav
1	89	4	4	2	I	1	0	850	1	poli_8sides 1_whiteLine3.jpg	Short_b09_cut1_stereo_44KHz.wav
1	90	2	2	1	C	2	1	600	1	poli_8sides 13_whiteLine3.jpg	Short_b23_cut1_stereo_44KHz.wav
1	91	1	2	0	C	1	1	1093	1	poli_8sides 16_whiteLine3.jpg	Short_b23_cut1_stereo_44KHz.wav
1	92	3	4	2	I	1	0	1827	0	poli_8sides 2_whiteLine3.jpg	Short_b09_cut1_stereo_44KHz.wav
1	93	2	1	0	C	1	1	836	1	poli_8sides 13_whiteLine3.jpg	Short_b20_cut1_stereo_44KHz.wav
1	94	4	3	2	I	1	0	1238	1	poli_8sides 1_whiteLine3.jpg	Short_b22_cut1_stereo_44KHz.wav
1	95	3	3	2	I	2	0	882	1	poli_8sides 2_whiteLine3.jpg	Short_b22_cut1_stereo_44KHz.wav
1	96	1	1	1	C	2	1	1095	1	poli_8sides 16_whiteLine3.jpg	Short_b20_cut1_stereo_44KHz.wav
1	97	2	2	1	C	2	1	982	1	poli_8sides 13_whiteLine3.jpg	Short_b23_cut1_stereo_44KHz.wav
1	98	3	4	2	I	1	0	745	0	poli_8sides 2_whiteLine3.jpg	Short_b09_cut1_stereo_44KHz.wav
1	99	4	3	2	I	2	0	891	1	poli_8sides 1_whiteLine3.jpg	Short_b22_cut1_stereo_44KHz.wav
1	100	1	2	0	C	1	1	826	1	poli_8sides 16_whiteLine3.jpg	Short_b23_cut1_stereo_44KHz.wav
1	101	4	4	2	I	1	0	1045	0	poli_8sides 1_whiteLine3.jpg	Short_b09_cut1_stereo_44KHz.wav
1	102	3	3	2	I	1	0	697	1	poli_8sides 2_whiteLine3.jpg	Short_b22_cut1_stereo_44KHz.wav
1	103	2	1	0	C	1	1	756	1	poli_8sides 13_whiteLine3.jpg	Short_b20_cut1_stereo_44KHz.wav
1	104	1	1	1	C	2	1	1138	1	poli_8sides 16_whiteLine3.jpg	Short_b20_cut1_stereo_44KHz.wav
1	105	2	1	0	C	1	1	822	1	poli_8sides 13_whiteLine3.jpg	Short_b20_cut1_stereo_44KHz.wav
1	106	4	3	2	I	1	0	901	1	poli_8sides 1_whiteLine3.jpg	Short_b22_cut1_stereo_44KHz.wav
1	107	3	3	2	I	1	0	1060	0	poli_8sides 2_whiteLine3.jpg	Short_b22_cut1_stereo_44KHz.wav
1	108	1	2	0	C	1	1	755	1	poli_8sides 16_whiteLine3.jpg	Short_b23_cut1_stereo_44KHz.wav
1	109	4	4	2	I	2	0	894	0	poli_8sides 1_whiteLine3.jpg	Short_b09_cut1_stereo_44KHz.wav
1	110	3	4	2	I	1	0	1018	1	poli_8sides 2_whiteLine3.jpg	Short_b09_cut1_stereo_44KHz.wav
1	111	1	1	1	C	1	0	1578	0	poli_8sides 16_whiteLine3.jpg	Short_b20_cut1_stereo_44KHz.wav
1	112	2	2	1	C	2	1	803	1	poli_8sides 13_whiteLine3.jpg	Short_b23_cut1_stereo_44KHz.wav
1	113	3	3	2	I	2	0	981	1	poli_8sides 2_whiteLine3.jpg	Short_b22_cut1_stereo_44KHz.wav
1	114	2	1	0	C	1	1	798	1	poli_8sides 13_whiteLine3.jpg	Short_b20_cut1_stereo_44KHz.wav
1	115	1	1	1	C	2	1	827	1	poli_8sides 16_whiteLine3.jpg	Short_b20_cut1_stereo_44KHz.wav
1	116	4	4	2	I	1	0	1060	0	poli_8sides 1_whiteLine3.jpg	Short_b09_cut1_stereo_44KHz.wav
1	117	2	2	1	C	2	1	847	1	poli_8sides 13_whiteLine3.jpg	Short_b23_cut1_stereo_44KHz.wav
1	118	4	3	2	I	1	0	907	0	poli_8sides 1_whiteLine3.jpg	Short_b22_cut1_stereo_44KHz.wav
1	119	3	4	2	I	1	0	1317	1	poli_8sides 2_whiteLine3.jpg	Short_b09_cut1_stereo_44KHz.wav
1	120	1	2	0	C	1	1	784	1	poli_8sides 16_whiteLine3.jpg	Short_b23_cut1_stereo_44KHz.wav
1	121	3	3	2	I	1	0	1304	0	poli_8sides 2_whiteLine3.jpg	Short_b22_cut1_stereo_44KHz.wav
1	122	2	2	1	C	2	1	811	1	poli_8sides 13_whiteLine3.jpg	Short_b23_cut1_stereo_44KHz.wav
1	123	4	4	2	I	1	0	1443	0	poli_8sides 1_whiteLine3.jpg	Short_b09_cut1_stereo_44KHz.wav
1	124	1	1	1	C	2	1	993	1	poli_8sides 16_whiteLine3.jpg	Short_b20_cut1_stereo_44KHz.wav
1	125	2	1	0	C	1	1	793	1	poli_8sides 13_whiteLine3.jpg	Short_b20_cut1_stereo_44KHz.wav
1	126	1	2	0	C	1	1	1000	1	poli_8sides 16_whiteLine3.jpg	Short_b23_cut1_stereo_44KHz.wav
1	127	3	4	2	I	2	0	718	1	poli_8sides 2_whiteLine3.jpg	Short_b09_cut1_stereo_44KHz.wav
1	128	4	3	2	I	1	0	823	0	poli_8sides 1_whiteLine3.jpg	Short_b22_cut1_stereo_44KHz.wav
1	129	3	4	2	I	2	0	1853	0	poli_8sides 2_whiteLine3.jpg	Short_b09_cut1_stereo_44KHz.wav
1	130	1	2	0	C	1	1	685	1	poli_8sides 16_whiteLine3.jpg	Short_b23_cut1_stereo_44KHz.wav
1	131	2	1	0	C	1	1	1117	1	poli_8sides 13_whiteLine3.jpg	Short_b20_cut1_stereo_44KHz.wav
1	132	4	4	2	I	1	0	712	0	poli_8sides 1_whiteLine3.jpg	Short_b09_cut1_stereo_44KHz.wav
1	133	1	1	1	C	2	1	1094	1	poli_8sides 16_whiteLine3.jpg	Short_b20_cut1_stereo_44KHz.wav
1	134	3	3	2	I	1	0	885	1	poli_8sides 2_whiteLine3.jpg	Short_b22_cut1_stereo_44KHz.wav
1	135	4	3	2	I	1	0	854	0	poli_8sides 1_whiteLine3.jpg	Short_b22_cut1_stereo_44KHz.wav
1	136	2	2	1	C	2	1	1283	1	poli_8sides 13_whiteLine3.jpg	Short_b23_cut1_stereo_44KHz.wav
1	137	4	3	2	I	1	0	747	1	poli_8sides 1_whiteLine3.jpg	Short_b22_cut1_stereo_44KHz.wav
1	138	1	1	1	C	2	1	1273	1	poli_8sides 16_whiteLine3.jpg	Short_b20_cut1_stereo_44KHz.wav
1	139	3	4	2	I	1	0	1220	1	poli_8sides 2_whiteLine3.jpg	Short_b09_cut1_stereo_44KHz.wav
1	140	2	1	0	C	1	1	1277	1	poli_8sides 13_whiteLine3.jpg	Short_b20_cut1_stereo_44KHz.wav
1	141	3	3	2	I	2	0	1344	0	poli_8sides 2_whiteLine3.jpg	Short_b22_cut1_stereo_44KHz.wav
1	142	1	2	0	C	1	1	637	1	poli_8sides 16_whiteLine3.jpg	Short_b23_cut1_stereo_44KHz.wav
1	143	2	2	1	C	2	1	683	1	poli_8sides 13_whiteLine3.jpg	Short_b23_cut1_stereo_44KHz.wav
1	144	4	4	2	I	1	0	1333	1	poli_8sides 1_whiteLine3.jpg	Short_b09_cut1_stereo_44KHz.wav
1	145	1	1	1	C	2	1	780	1	poli_8sides 16_whiteLine3.jpg	Short_b20_cut1_stereo_44KHz.wav
1	146	4	4	2	I	1	0	897	1	poli_8sides 1_whiteLine3.jpg	Short_b09_cut1_stereo_44KHz.wav
1	147	2	2	1	C	2	1	699	1	poli_8sides 13_whiteLine3.jpg	Short_b23_cut1_stereo_44KHz.wav
1	148	3	3	2	I	1	0	600	1	poli_8sides 2_whiteLine3.jpg	Short_b22_cut1_stereo_44KHz.wav
1	149	2	1	0	C	1	1	1143	1	poli_8sides 13_whiteLine3.jpg	Short_b20_cut1_stereo_44KHz.wav
1	150	3	4	2	I	2	0	1216	0	poli_8sides 2_whiteLine3.jpg	Short_b09_cut1_stereo_44KHz.wav
1	151	1	2	0	C	1	1	712	1	poli_8sides 16_whiteLine3.jpg	Short_b23_cut1_stereo_44KHz.wav
1	152	4	3	2	I	1	0	836	1	poli_8sides 1_whiteLine3.jpg	Short_b22_cut1_stereo_44KHz.wav
1	153	3	4	2	I	2	0	973	0	poli_8sides 2_whiteLine3.jpg	Short_b09_cut1_stereo_44KHz.wav
1	154	2	2	1	C	2	1	864	1	poli_8sides 13_whiteLine3.jpg	Short_b23_cut1_stereo_44KHz.wav
1	155	4	3	2	I	1	0	683	1	poli_8sides 1_whiteLine3.jpg	Short_b22_cut1_stereo_44KHz.wav
1	156	1	2	0	C	1	1	701	1	poli_8sides 16_whiteLine3.jpg	Short_b23_cut1_stereo_44KHz.wav
1	157	2	1	0	C	1	1	1157	1	poli_8sides 13_whiteLine3.jpg	Short_b20_cut1_stereo_44KHz.wav
1	158	4	4	2	I	1	0	999	1	poli_8sides 1_whiteLine3.jpg	Short_b09_cut1_stereo_44KHz.wav
1	159	3	3	2	I	2	0	793	0	poli_8sides 2_whiteLine3.jpg	Short_b22_cut1_stereo_44KHz.wav
1	160	1	1	1	C	2	1	928	1	poli_8sides 16_whiteLine3.jpg	Short_b20_cut1_stereo_44KHz.wav
1	161	2	2	1	C	2	1	965	1	poli_8sides 13_whiteLine3.jpg	Short_b23_cut1_stereo_44KHz.wav
1	162	3	4	2	I	1	0	756	0	poli_8sides 2_whiteLine3.jpg	Short_b09_cut1_stereo_44KHz.wav
1	163	4	3	2	I	1	0	809	0	poli_8sides 1_whiteLine3.jpg	Short_b22_cut1_stereo_44KHz.wav
1	164	1	1	1	C	2	1	824	1	poli_8sides 16_whiteLine3.jpg	Short_b20_cut1_stereo_44KHz.wav
1	165	3	3	2	I	1	0	803	1	poli_8sides 2_whiteLine3.jpg	Short_b22_cut1_stereo_44KHz.wav
1	166	4	4	2	I	1	0	1526	1	poli_8sides 1_whiteLine3.jpg	Short_b09_cut1_stereo_44KHz.wav
1	167	2	1	0	C	1	1	1007	1	poli_8sides 13_whiteLine3.jpg	Short_b20_cut1_stereo_44KHz.wav
1	168	1	2	0	C	1	1	710	1	poli_8sides 16_whiteLine3.jpg	Short_b23_cut1_stereo_44KHz.wav
1	169	4	3	2	I	1	0	785	0	poli_8sides 1_whiteLine3.jpg	Short_b22_cut1_stereo_44KHz.wav
1	170	2	2	1	C	2	1	760	1	poli_8sides 13_whiteLine3.jpg	Short_b23_cut1_stereo_44KHz.wav
1	171	3	3	2	I	1	0	719	0	poli_8sides 2_whiteLine3.jpg	Short_b22_cut1_stereo_44KHz.wav
1	172	1	1	1	C	1	0	792	0	poli_8sides 16_whiteLine3.jpg	Short_b20_cut1_stereo_44KHz.wav
1	173	3	4	2	I	1	0	1056	1	poli_8sides 2_whiteLine3.jpg	Short_b09_cut1_stereo_44KHz.wav
1	174	4	4	2	I	1	0	1296	1	poli_8sides 1_whiteLine3.jpg	Short_b09_cut1_stereo_44KHz.wav
1	175	2	1	0	C	1	1	875	1	poli_8sides 13_whiteLine3.jpg	Short_b20_cut1_stereo_44KHz.wav
1	176	1	2	0	C	1	1	665	1	poli_8sides 16_whiteLine3.jpg	Short_b23_cut1_stereo_44KHz.wav
1	177	2	1	0	C	1	1	933	1	poli_8sides 13_whiteLine3.jpg	Short_b20_cut1_stereo_44KHz.wav
1	178	4	3	2	I	1	0	1568	1	poli_8sides 1_whiteLine3.jpg	Short_b22_cut1_stereo_44KHz.wav
1	179	3	4	2	I	1	0	775	0	poli_8sides 2_whiteLine3.jpg	Short_b09_cut1_stereo_44KHz.wav
1	180	1	2	0	C	1	1	588	1	poli_8sides 16_whiteLine3.jpg	Short_b23_cut1_stereo_44KHz.wav
1	181	2	2	1	C	2	1	724	1	poli_8sides 13_whiteLine3.jpg	Short_b23_cut1_stereo_44KHz.wav
1	182	3	3	2	I	2	0	1396	0	poli_8sides 2_whiteLine3.jpg	Short_b22_cut1_stereo_44KHz.wav
1	183	4	4	2	I	1	0	791	0	poli_8sides 1_whiteLine3.jpg	Short_b09_cut1_stereo_44KHz.wav
1	184	1	1	1	C	1	0	751	0	poli_8sides 16_whiteLine3.jpg	Short_b20_cut1_stereo_44KHz.wav
1	185	3	3	2	I	1	0	750	1	poli_8sides 2_whiteLine3.jpg	Short_b22_cut1_stereo_44KHz.wav
1	186	2	2	1	C	2	1	795	1	poli_8sides 13_whiteLine3.jpg	Short_b23_cut1_stereo_44KHz.wav
1	187	1	1	1	C	2	1	886	1	poli_8sides 16_whiteLine3.jpg	Short_b20_cut1_stereo_44KHz.wav
1	188	4	3	2	I	1	0	777	0	poli_8sides 1_whiteLine3.jpg	Short_b22_cut1_stereo_44KHz.wav
1	189	1	2	0	C	1	1	724	1	poli_8sides 16_whiteLine3.jpg	Short_b23_cut1_stereo_44KHz.wav
1	190	2	1	0	C	1	1	768	1	poli_8sides 13_whiteLine3.jpg	Short_b20_cut1_stereo_44KHz.wav
1	191	4	4	2	I	2	0	1116	0	poli_8sides 1_whiteLine3.jpg	Short_b09_cut1_stereo_44KHz.wav
1	192	3	4	2	I	1	0	822	0	poli_8sides 2_whiteLine3.jpg	Short_b09_cut1_stereo_44KHz.wav
1	193	1	1	1	C	2	1	1293	1	poli_8sides 16_whiteLine3.jpg	Short_b20_cut1_stereo_44KHz.wav
1	194	4	4	2	I	1	0	1124	0	poli_8sides 1_whiteLine3.jpg	Short_b09_cut1_stereo_44KHz.wav
1	195	3	4	2	I	1	0	1376	0	poli_8sides 2_whiteLine3.jpg	Short_b09_cut1_stereo_44KHz.wav
1	196	2	2	1	C	2	1	869	1	poli_8sides 13_whiteLine3.jpg	Short_b23_cut1_stereo_44KHz.wav
1	197	3	3	2	I	1	0	709	1	poli_8sides 2_whiteLine3.jpg	Short_b22_cut1_stereo_44KHz.wav
1	198	2	1	0	C	1	1	1070	1	poli_8sides 13_whiteLine3.jpg	Short_b20_cut1_stereo_44KHz.wav
1	199	4	3	2	I	1	0	769	1	poli_8sides 1_whiteLine3.jpg	Short_b22_cut1_stereo_44KHz.wav
1	200	1	2	0	C	1	1	1094	1	poli_8sides 16_whiteLine3.jpg	Short_b23_cut1_stereo_44KHz.wav
2	1	2	2	1	C	1	0	1562	0	poli_8sides 11_whiteLine3.jpg	MediumShort_b16_cut3_MS_stereo_44KHz.wav
2	2	3	3	2	I	1	0	786	1	poli_8sides 9_whiteLine3.jpg	MediumShort_e16_cut1_stereo_44KHz.wav
2	3	1	1	1	C	1	0	684	0	poli_8sides 10_whiteLine3.jpg	MediumShort_b10_cut1_MS_stereo_44KHz.wav
2	4	4	4	2	I	1	0	1067	1	poli_8sides 3_whiteLine3.jpg	MediumShort_e22_cut1_stereo_44KHz.wav
2	5	2	1	0	C	2	0	1018	0	poli_8sides 11_whiteLine3.jpg	MediumShort_b10_cut1_MS_stereo_44KHz.wav
2	6	1	2	0	C	1	1	1689	1	poli_8sides 10_whiteLine3.jpg	MediumShort_b16_cut3_MS_stereo_44KHz.wav
2	7	4	3	2	I	2	0	1221	0	poli_8sides 3_whiteLine3.jpg	MediumShort_e16_cut1_stereo_44KHz.wav
2	8	3	4	2	I	1	0	918	1	poli_8sides 9_whiteLine3.jpg	MediumShort_e22_cut1_stereo_44KHz.wav
2	9	4	4	2	I	2	0	804	0	poli_8sides 3_whiteLine3.jpg	MediumShort_e22_cut1_stereo_44KHz.wav
2	10	1	2	0	C	1	1	989	1	poli_8sides 10_whiteLine3.jpg	MediumShort_b16_cut3_MS_stereo_44KHz.wav
2	11	3	4	2	I	1	0	973	0	poli_8sides 9_whiteLine3.jpg	MediumShort_e22_cut1_stereo_44KHz.wav
2	12	2	1	0	C	1	1	698	1	poli_8sides 11_whiteLine3.jpg	MediumShort_b10_cut1_MS_stereo_44KHz.wav
2	13	1	1	1	C	1	0	769	0	poli_8sides 10_whiteLine3.jpg	MediumShort_b10_cut1_MS_stereo_44KHz.wav
2	14	2	2	1	C	1	0	930	0	poli_8sides 11_whiteLine3.jpg	MediumShort_b16_cut3_MS_stereo_44KHz.wav
2	15	3	3	2	I	1	0	1113	0	poli_8sides 9_whiteLine3.jpg	MediumShort_e16_cut1_stereo_44KHz.wav
2	16	4	3	2	I	1	0	682	0	poli_8sides 3_whiteLine3.jpg	MediumShort_e16_cut1_stereo_44KHz.wav
2	17	2	2	1	C	1	0	754	0	poli_8sides 11_whiteLine3.jpg	MediumShort_b16_cut3_MS_stereo_44KHz.wav
2	18	3	4	2	I	1	0	795	0	poli_8sides 9_whiteLine3.jpg	MediumShort_e22_cut1_stereo_44KHz.wav
2	19	1	2	0	C	1	1	899	1	poli_8sides 10_whiteLine3.jpg	MediumShort_b16_cut3_MS_stereo_44KHz.wav
2	20	4	3	2	I	2	0	975	0	poli_8sides 3_whiteLine3.jpg	MediumShort_e16_cut1_stereo_44KHz.wav
2	21	2	1	0	C	1	1	632	1	poli_8sides 11_whiteLine3.jpg	MediumShort_b10_cut1_MS_stereo_44KHz.wav
2	22	3	3	2	I	2	0	743	1	poli_8sides 9_whiteLine3.jpg	MediumShort_e16_cut1_stereo_44KHz.wav
2	23	1	1	1	C	1	0	696	0	poli_8sides 10_whiteLine3.jpg	MediumShort_b10_cut1_MS_stereo_44KHz.wav
2	24	4	4	2	I	2	0	1074	0	poli_8sides 3_whiteLine3.jpg	MediumShort_e22_cut1_stereo_44KHz.wav
2	25	2	1	0	C	1	1	794	1	poli_8sides 11_whiteLine3.jpg	MediumShort_b10_cut1_MS_stereo_44KHz.wav
2	26	1	2	0	C	1	1	818	1	poli_8sides 10_whiteLine3.jpg	MediumShort_b16_cut3_MS_stereo_44KHz.wav
2	27	4	3	2	I	2	0	825	1	poli_8sides 3_whiteLine3.jpg	MediumShort_e16_cut1_stereo_44KHz.wav
2	28	3	3	2	I	2	0	848	1	poli_8sides 9_whiteLine3.jpg	MediumShort_e16_cut1_stereo_44KHz.wav
2	29	4	4	2	I	1	0	1085	0	poli_8sides 3_whiteLine3.jpg	MediumShort_e22_cut1_stereo_44KHz.wav
2	30	1	1	1	C	1	0	663	0	poli_8sides 10_whiteLine3.jpg	MediumShort_b10_cut1_MS_stereo_44KHz.wav
2	31	2	2	1	C	1	0	1041	0	poli_8sides 11_whiteLine3.jpg	MediumShort_b16_cut3_MS_stereo_44KHz.wav
2	32	3	4	2	I	2	0	1261	1	poli_8sides 9_whiteLine3.jpg	MediumShort_e22_cut1_stereo_44KHz.wav
2	33	2	2	1	C	1	0	838	0	poli_8sides 11_whiteLine3.jpg	MediumShort_b16_cut3_MS_stereo_44KHz.wav
2	34	1	2	0	C	1	1	762	1	poli_8sides 10_whiteLine3.jpg	MediumShort_b16_cut3_MS_stereo_44KHz.wav
2	35	3	3	2	I	2	0	888	0	poli_8sides 9_whiteLine3.jpg	MediumShort_e16_cut1_stereo_44KHz.wav
2	36	4	3	2	I	2	0	842	1	poli_8sides 3_whiteLine3.jpg	MediumShort_e16_cut1_stereo_44KHz.wav
2	37	3	4	2	I	2	0	858	1	poli_8sides 9_whiteLine3.jpg	MediumShort_e22_cut1_stereo_44KHz.wav
2	38	1	1	1	C	1	0	851	0	poli_8sides 10_whiteLine3.jpg	MediumShort_b10_cut1_MS_stereo_44KHz.wav
2	39	2	1	0	C	1	1	668	1	poli_8sides 11_whiteLine3.jpg	MediumShort_b10_cut1_MS_stereo_44KHz.wav
2	40	4	4	2	I	1	0	1602	1	poli_8sides 3_whiteLine3.jpg	MediumShort_e22_cut1_stereo_44KHz.wav
2	41	2	2	1	C	1	0	917	0	poli_8sides 11_whiteLine3.jpg	MediumShort_b16_cut3_MS_stereo_44KHz.wav
2	42	3	4	2	I	2	0	1057	1	poli_8sides 9_whiteLine3.jpg	MediumShort_e22_cut1_stereo_44KHz.wav
2	43	1	1	1	C	1	0	670	0	poli_8sides 10_whiteLine3.jpg	MediumShort_b10_cut1_MS_stereo_44KHz.wav
2	44	4	3	2	I	2	0	1826	0	poli_8sides 3_whiteLine3.jpg	MediumShort_e16_cut1_stereo_44KHz.wav
2	45	1	2	0	C	1	1	552	1	poli_8sides 10_whiteLine3.jpg	MediumShort_b16_cut3_MS_stereo_44KHz.wav
2	46	2	1	0	C	1	1	743	1	poli_8sides 11_whiteLine3.jpg	MediumShort_b10_cut1_MS_stereo_44KHz.wav
2	47	4	4	2	I	2	0	1355	0	poli_8sides 3_whiteLine3.jpg	MediumShort_e22_cut1_stereo_44KHz.wav
2	48	3	3	2	I	1	0	1264	1	poli_8sides 9_whiteLine3.jpg	MediumShort_e16_cut1_stereo_44KHz.wav
2	49	2	2	1	C	2	1	1094	1	poli_8sides 11_whiteLine3.jpg	MediumShort_b16_cut3_MS_stereo_44KHz.wav
2	50	1	2	0	C	1	1	821	1	poli_8sides 10_whiteLine3.jpg	MediumShort_b16_cut3_MS_stereo_44KHz.wav
2	51	3	3	2	I	1	0	1094	1	poli_8sides 9_whiteLine3.jpg	MediumShort_e16_cut1_stereo_44KHz.wav
2	52	4	3	2	I	2	0	714	0	poli_8sides 3_whiteLine3.jpg	MediumShort_e16_cut1_stereo_44KHz.wav
2	53	3	4	2	I	2	0	874	0	poli_8sides 9_whiteLine3.jpg	MediumShort_e22_cut1_stereo_44KHz.wav
2	54	2	1	0	C	1	1	948	1	poli_8sides 11_whiteLine3.jpg	MediumShort_b10_cut1_MS_stereo_44KHz.wav
2	55	4	4	2	I	1	0	1655	0	poli_8sides 3_whiteLine3.jpg	MediumShort_e22_cut1_stereo_44KHz.wav
2	56	1	1	1	C	2	1	1420	1	poli_8sides 10_whiteLine3.jpg	MediumShort_b10_cut1_MS_stereo_44KHz.wav
2	57	4	4	2	I	1	0	1083	1	poli_8sides 3_whiteLine3.jpg	MediumShort_e22_cut1_stereo_44KHz.wav
2	58	2	1	0	C	1	1	728	1	poli_8sides 11_whiteLine3.jpg	MediumShort_b10_cut1_MS_stereo_44KHz.wav
2	59	3	4	2	I	2	0	816	1	poli_8sides 9_whiteLine3.jpg	MediumShort_e22_cut1_stereo_44KHz.wav
2	60	1	2	0	C	1	1	1170	1	poli_8sides 10_whiteLine3.jpg	MediumShort_b16_cut3_MS_stereo_44KHz.wav
2	61	2	2	1	C	2	1	868	1	poli_8sides 11_whiteLine3.jpg	MediumShort_b16_cut3_MS_stereo_44KHz.wav
2	62	3	3	2	I	1	0	783	1	poli_8sides 9_whiteLine3.jpg	MediumShort_e16_cut1_stereo_44KHz.wav
2	63	1	1	1	C	1	0	1344	0	poli_8sides 10_whiteLine3.jpg	MediumShort_b10_cut1_MS_stereo_44KHz.wav
2	64	4	3	2	I	2	0	965	1	poli_8sides 3_whiteLine3.jpg	MediumShort_e16_cut1_stereo_44KHz.wav
2	65	2	1	0	C	1	1	716	1	poli_8sides 11_whiteLine3.jpg	MediumShort_b10_cut1_MS_stereo_44KHz.wav
2	66	1	2	0	C	2	0	1443	0	poli_8sides 10_whiteLine3.jpg	MediumShort_b16_cut3_MS_stereo_44KHz.wav
2	67	3	4	2	I	2	0	1099	0	poli_8sides 9_whiteLine3.jpg	MediumShort_e22_cut1_stereo_44KHz.wav
2	68	4	3	2	I	1	0	1010	1	poli_8sides 3_whiteLine3.jpg	MediumShort_e16_cut1_stereo_44KHz.wav
2	69	1	1	1	C	1	0	1497	0	poli_8sides 10_whiteLine3.jpg	MediumShort_b10_cut1_MS_stereo_44KHz.wav
2	70	2	2	1	C	2	1	1340	1	poli_8sides 11_whiteLine3.jpg	MediumShort_b16_cut3_MS_stereo_44KHz.wav
2	71	3	3	2	I	1	0	1057	0	poli_8sides 9_whiteLine3.jpg	MediumShort_e16_cut1_stereo_44KHz.wav
2	72	4	4	2	I	2	0	1341	0	poli_8sides 3_whiteLine3.jpg	MediumShort_e22_cut1_stereo_44KHz.wav
2	73	3	3	2	I	0	0	0	0	poli_8sides 9_whiteLine3.jpg	MediumShort_e16_cut1_stereo_44KHz.wav
2	74	1	1	1	C	1	0	1250	0	poli_8sides 10_whiteLine3.jpg	MediumShort_b10_cut1_MS_stereo_44KHz.wav
2	75	2	1	0	C	1	1	543	1	poli_8sides 11_whiteLine3.jpg	MediumShort_b10_cut1_MS_stereo_44KHz.wav
2	76	4	4	2	I	1	0	1123	1	poli_8sides 3_whiteLine3.jpg	MediumShort_e22_cut1_stereo_44KHz.wav
2	77	1	2	0	C	1	1	912	1	poli_8sides 10_whiteLine3.jpg	MediumShort_b16_cut3_MS_stereo_44KHz.wav
2	78	4	3	2	I	2	0	997	1	poli_8sides 3_whiteLine3.jpg	MediumShort_e16_cut1_stereo_44KHz.wav
2	79	3	4	2	I	2	0	955	0	poli_8sides 9_whiteLine3.jpg	MediumShort_e22_cut1_stereo_44KHz.wav
2	80	2	2	1	C	1	0	1029	0	poli_8sides 11_whiteLine3.jpg	MediumShort_b16_cut3_MS_stereo_44KHz.wav
2	81	3	3	2	I	1	0	895	1	poli_8sides 9_whiteLine3.jpg	MediumShort_e16_cut1_stereo_44KHz.wav
2	82	1	2	0	C	1	1	806	1	poli_8sides 10_whiteLine3.jpg	MediumShort_b16_cut3_MS_stereo_44KHz.wav
2	83	2	2	1	C	2	1	965	1	poli_8sides 11_whiteLine3.jpg	MediumShort_b16_cut3_MS_stereo_44KHz.wav
2	84	4	4	2	I	1	0	954	0	poli_8sides 3_whiteLine3.jpg	MediumShort_e22_cut1_stereo_44KHz.wav
2	85	3	4	2	I	1	0	821	1	poli_8sides 9_whiteLine3.jpg	MediumShort_e22_cut1_stereo_44KHz.wav
2	86	2	1	0	C	1	1	918	1	poli_8sides 11_whiteLine3.jpg	MediumShort_b10_cut1_MS_stereo_44KHz.wav
2	87	4	3	2	I	1	0	1233	0	poli_8sides 3_whiteLine3.jpg	MediumShort_e16_cut1_stereo_44KHz.wav
2	88	1	1	1	C	1	0	889	0	poli_8sides 10_whiteLine3.jpg	MediumShort_b10_cut1_MS_stereo_44KHz.wav
2	89	2	1	0	C	1	1	708	1	poli_8sides 11_whiteLine3.jpg	MediumShort_b10_cut1_MS_stereo_44KHz.wav
2	90	3	4	2	I	1	0	1562	1	poli_8sides 9_whiteLine3.jpg	MediumShort_e22_cut1_stereo_44KHz.wav
2	91	4	4	2	I	1	0	813	1	poli_8sides 3_whiteLine3.jpg	MediumShort_e22_cut1_stereo_44KHz.wav
2	92	1	1	1	C	2	1	1421	1	poli_8sides 10_whiteLine3.jpg	MediumShort_b10_cut1_MS_stereo_44KHz.wav
2	93	4	3	2	I	1	0	1169	0	poli_8sides 3_whiteLine3.jpg	MediumShort_e16_cut1_stereo_44KHz.wav
2	94	3	3	2	I	2	0	934	1	poli_8sides 9_whiteLine3.jpg	MediumShort_e16_cut1_stereo_44KHz.wav
2	95	2	2	1	C	1	0	822	0	poli_8sides 11_whiteLine3.jpg	MediumShort_b16_cut3_MS_stereo_44KHz.wav
2	96	1	2	0	C	1	1	621	1	poli_8sides 10_whiteLine3.jpg	MediumShort_b16_cut3_MS_stereo_44KHz.wav
2	97	3	4	2	I	1	0	1060	1	poli_8sides 9_whiteLine3.jpg	MediumShort_e22_cut1_stereo_44KHz.wav
2	98	4	4	2	I	1	0	798	0	poli_8sides 3_whiteLine3.jpg	MediumShort_e22_cut1_stereo_44KHz.wav
2	99	2	2	1	C	1	0	860	0	poli_8sides 11_whiteLine3.jpg	MediumShort_b16_cut3_MS_stereo_44KHz.wav
2	100	1	2	0	C	1	1	784	1	poli_8sides 10_whiteLine3.jpg	MediumShort_b16_cut3_MS_stereo_44KHz.wav
2	101	3	3	2	I	2	0	1373	1	poli_8sides 9_whiteLine3.jpg	MediumShort_e16_cut1_stereo_44KHz.wav
2	102	1	1	1	C	2	1	1898	1	poli_8sides 10_whiteLine3.jpg	MediumShort_b10_cut1_MS_stereo_44KHz.wav
2	103	2	1	0	C	1	1	713	1	poli_8sides 11_whiteLine3.jpg	MediumShort_b10_cut1_MS_stereo_44KHz.wav
2	104	4	3	2	I	1	0	1478	1	poli_8sides 3_whiteLine3.jpg	MediumShort_e16_cut1_stereo_44KHz.wav
2	105	3	4	2	I	1	0	794	1	poli_8sides 9_whiteLine3.jpg	MediumShort_e22_cut1_stereo_44KHz.wav
2	106	2	2	1	C	1	0	1101	0	poli_8sides 11_whiteLine3.jpg	MediumShort_b16_cut3_MS_stereo_44KHz.wav
2	107	4	3	2	I	1	0	1314	1	poli_8sides 3_whiteLine3.jpg	MediumShort_e16_cut1_stereo_44KHz.wav
2	108	1	2	0	C	1	1	943	1	poli_8sides 10_whiteLine3.jpg	MediumShort_b16_cut3_MS_stereo_44KHz.wav
2	109	4	4	2	I	1	0	1005	1	poli_8sides 3_whiteLine3.jpg	MediumShort_e22_cut1_stereo_44KHz.wav
2	110	2	1	0	C	1	1	831	1	poli_8sides 11_whiteLine3.jpg	MediumShort_b10_cut1_MS_stereo_44KHz.wav
2	111	3	3	2	I	1	0	1073	0	poli_8sides 9_whiteLine3.jpg	MediumShort_e16_cut1_stereo_44KHz.wav
2	112	1	1	1	C	1	0	738	0	poli_8sides 10_whiteLine3.jpg	MediumShort_b10_cut1_MS_stereo_44KHz.wav
2	113	4	3	2	I	1	0	1485	1	poli_8sides 3_whiteLine3.jpg	MediumShort_e16_cut1_stereo_44KHz.wav
2	114	3	3	2	I	2	0	1161	0	poli_8sides 9_whiteLine3.jpg	MediumShort_e16_cut1_stereo_44KHz.wav
2	115	2	1	0	C	1	1	716	1	poli_8sides 11_whiteLine3.jpg	MediumShort_b10_cut1_MS_stereo_44KHz.wav
2	116	1	1	1	C	1	0	712	0	poli_8sides 10_whiteLine3.jpg	MediumShort_b10_cut1_MS_stereo_44KHz.wav
2	117	3	4	2	I	1	0	900	0	poli_8sides 9_whiteLine3.jpg	MediumShort_e22_cut1_stereo_44KHz.wav
2	118	1	2	0	C	1	1	1105	1	poli_8sides 10_whiteLine3.jpg	MediumShort_b16_cut3_MS_stereo_44KHz.wav
2	119	4	4	2	I	1	0	1115	1	poli_8sides 3_whiteLine3.jpg	MediumShort_e22_cut1_stereo_44KHz.wav
2	120	2	2	1	C	1	0	766	0	poli_8sides 11_whiteLine3.jpg	MediumShort_b16_cut3_MS_stereo_44KHz.wav
2	121	4	3	2	I	1	0	1233	0	poli_8sides 3_whiteLine3.jpg	MediumShort_e16_cut1_stereo_44KHz.wav
2	122	2	1	0	C	1	1	746	1	poli_8sides 11_whiteLine3.jpg	MediumShort_b10_cut1_MS_stereo_44KHz.wav
2	123	1	2	0	C	1	1	787	1	poli_8sides 10_whiteLine3.jpg	MediumShort_b16_cut3_MS_stereo_44KHz.wav
2	124	3	4	2	I	1	0	996	1	poli_8sides 9_whiteLine3.jpg	MediumShort_e22_cut1_stereo_44KHz.wav
2	125	2	2	1	C	2	1	1049	1	poli_8sides 11_whiteLine3.jpg	MediumShort_b16_cut3_MS_stereo_44KHz.wav
2	126	1	1	1	C	2	1	1126	1	poli_8sides 10_whiteLine3.jpg	MediumShort_b10_cut1_MS_stereo_44KHz.wav
2	127	4	4	2	I	1	0	985	1	poli_8sides 3_whiteLine3.jpg	MediumShort_e22_cut1_stereo_44KHz.wav
2	128	3	3	2	I	2	0	1694	0	poli_8sides 9_whiteLine3.jpg	MediumShort_e16_cut1_stereo_44KHz.wav
2	129	1	1	1	C	2	1	1188	1	poli_8sides 10_whiteLine3.jpg	MediumShort_b10_cut1_MS_stereo_44KHz.wav
2	130	3	4	2	I	1	0	917	1	poli_8sides 9_whiteLine3.jpg	MediumShort_e22_cut1_stereo_44KHz.wav
2	131	4	3	2	I	0	0	0	0	poli_8sides 3_whiteLine3.jpg	MediumShort_e16_cut1_stereo_44KHz.wav
2	132	2	2	1	C	1	0	867	0	poli_8sides 11_whiteLine3.jpg	MediumShort_b16_cut3_MS_stereo_44KHz.wav
2	133	4	4	2	I	1	0	812	0	poli_8sides 3_whiteLine3.jpg	MediumShort_e22_cut1_stereo_44KHz.wav
2	134	3	3	2	I	1	0	1047	0	poli_8sides 9_whiteLine3.jpg	MediumShort_e16_cut1_stereo_44KHz.wav
2	135	2	1	0	C	1	1	666	1	poli_8sides 11_whiteLine3.jpg	MediumShort_b10_cut1_MS_stereo_44KHz.wav
2	136	1	2	0	C	1	1	765	1	poli_8sides 10_whiteLine3.jpg	MediumShort_b16_cut3_MS_stereo_44KHz.wav
2	137	4	4	2	I	1	0	895	0	poli_8sides 3_whiteLine3.jpg	MediumShort_e22_cut1_stereo_44KHz.wav
2	138	3	4	2	I	1	0	593	1	poli_8sides 9_whiteLine3.jpg	MediumShort_e22_cut1_stereo_44KHz.wav
2	139	1	2	0	C	1	1	1373	1	poli_8sides 10_whiteLine3.jpg	MediumShort_b16_cut3_MS_stereo_44KHz.wav
2	140	2	1	0	C	1	1	740	1	poli_8sides 11_whiteLine3.jpg	MediumShort_b10_cut1_MS_stereo_44KHz.wav
2	141	1	1	1	C	2	1	1375	1	poli_8sides 10_whiteLine3.jpg	MediumShort_b10_cut1_MS_stereo_44KHz.wav
2	142	2	2	1	C	1	0	949	0	poli_8sides 11_whiteLine3.jpg	MediumShort_b16_cut3_MS_stereo_44KHz.wav
2	143	3	3	2	I	1	0	878	1	poli_8sides 9_whiteLine3.jpg	MediumShort_e16_cut1_stereo_44KHz.wav
2	144	4	3	2	I	1	0	703	0	poli_8sides 3_whiteLine3.jpg	MediumShort_e16_cut1_stereo_44KHz.wav
2	145	1	1	1	C	1	0	914	0	poli_8sides 10_whiteLine3.jpg	MediumShort_b10_cut1_MS_stereo_44KHz.wav
2	146	2	1	0	C	1	1	518	1	poli_8sides 11_whiteLine3.jpg	MediumShort_b10_cut1_MS_stereo_44KHz.wav
2	147	3	4	2	I	1	0	1141	0	poli_8sides 9_whiteLine3.jpg	MediumShort_e22_cut1_stereo_44KHz.wav
2	148	4	3	2	I	2	0	798	1	poli_8sides 3_whiteLine3.jpg	MediumShort_e16_cut1_stereo_44KHz.wav
2	149	1	2	0	C	1	1	870	1	poli_8sides 10_whiteLine3.jpg	MediumShort_b16_cut3_MS_stereo_44KHz.wav
2	150	2	2	1	C	2	1	1446	1	poli_8sides 11_whiteLine3.jpg	MediumShort_b16_cut3_MS_stereo_44KHz.wav
2	151	3	3	2	I	1	0	1346	0	poli_8sides 9_whiteLine3.jpg	MediumShort_e16_cut1_stereo_44KHz.wav
2	152	4	4	2	I	2	0	1483	1	poli_8sides 3_whiteLine3.jpg	MediumShort_e22_cut1_stereo_44KHz.wav
2	153	3	4	2	I	1	0	772	0	poli_8sides 9_whiteLine3.jpg	MediumShort_e22_cut1_stereo_44KHz.wav
2	154	4	3	2	I	2	0	1360	0	poli_8sides 3_whiteLine3.jpg	MediumShort_e16_cut1_stereo_44KHz.wav
2	155	1	2	0	C	1	1	938	1	poli_8sides 10_whiteLine3.jpg	MediumShort_b16_cut3_MS_stereo_44KHz.wav
2	156	2	2	1	C	2	1	823	1	poli_8sides 11_whiteLine3.jpg	MediumShort_b16_cut3_MS_stereo_44KHz.wav
2	157	3	3	2	I	1	0	1058	0	poli_8sides 9_whiteLine3.jpg	MediumShort_e16_cut1_stereo_44KHz.wav
2	158	4	4	2	I	1	0	1171	1	poli_8sides 3_whiteLine3.jpg	MediumShort_e22_cut1_stereo_44KHz.wav
2	159	1	1	1	C	2	1	1279	1	poli_8sides 10_whiteLine3.jpg	MediumShort_b10_cut1_MS_stereo_44KHz.wav
2	160	2	1	0	C	1	1	1179	1	poli_8sides 11_whiteLine3.jpg	MediumShort_b10_cut1_MS_stereo_44KHz.wav
2	161	1	1	1	C	2	1	808	1	poli_8sides 10_whiteLine3.jpg	MediumShort_b10_cut1_MS_stereo_44KHz.wav
2	162	2	1	0	C	1	1	905	1	poli_8sides 11_whiteLine3.jpg	MediumShort_b10_cut1_MS_stereo_44KHz.wav
2	163	4	4	2	I	1	0	1003	0	poli_8sides 3_whiteLine3.jpg	MediumShort_e22_cut1_stereo_44KHz.wav
2	164	3	3	2	I	2	0	1176	0	poli_8sides 9_whiteLine3.jpg	MediumShort_e16_cut1_stereo_44KHz.wav
2	165	1	2	0	C	1	1	1449	1	poli_8sides 10_whiteLine3.jpg	MediumShort_b16_cut3_MS_stereo_44KHz.wav
2	166	3	4	2	I	1	0	822	1	poli_8sides 9_whiteLine3.jpg	MediumShort_e22_cut1_stereo_44KHz.wav
2	167	4	3	2	I	2	0	1007	1	poli_8sides 3_whiteLine3.jpg	MediumShort_e16_cut1_stereo_44KHz.wav
2	168	2	2	1	C	1	0	741	0	poli_8sides 11_whiteLine3.jpg	MediumShort_b16_cut3_MS_stereo_44KHz.wav
2	169	4	4	2	I	1	0	1037	1	poli_8sides 3_whiteLine3.jpg	MediumShort_e22_cut1_stereo_44KHz.wav
2	170	1	2	0	C	1	1	1437	1	poli_8sides 10_whiteLine3.jpg	MediumShort_b16_cut3_MS_stereo_44KHz.wav
2	171	3	4	2	I	1	0	954	0	poli_8sides 9_whiteLine3.jpg	MediumShort_e22_cut1_stereo_44KHz.wav
2	172	2	1	0	C	1	1	760	1	poli_8sides 11_whiteLine3.jpg	MediumShort_b10_cut1_MS_stereo_44KHz.wav
2	173	1	1	1	C	1	0	1271	0	poli_8sides 10_whiteLine3.jpg	MediumShort_b10_cut1_MS_stereo_44KHz.wav
2	174	4	3	2	I	2	0	958	1	poli_8sides 3_whiteLine3.jpg	MediumShort_e16_cut1_stereo_44KHz.wav
2	175	2	2	1	C	1	0	729	0	poli_8sides 11_whiteLine3.jpg	MediumShort_b16_cut3_MS_stereo_44KHz.wav
2	176	3	3	2	I	1	0	1129	0	poli_8sides 9_whiteLine3.jpg	MediumShort_e16_cut1_stereo_44KHz.wav
2	177	1	1	1	C	1	0	1004	0	poli_8sides 10_whiteLine3.jpg	MediumShort_b10_cut1_MS_stereo_44KHz.wav
2	178	3	4	2	I	1	0	1033	0	poli_8sides 9_whiteLine3.jpg	MediumShort_e22_cut1_stereo_44KHz.wav
2	179	2	1	0	C	1	1	860	1	poli_8sides 11_whiteLine3.jpg	MediumShort_b10_cut1_MS_stereo_44KHz.wav
2	180	4	3	2	I	2	0	1006	0	poli_8sides 3_whiteLine3.jpg	MediumShort_e16_cut1_stereo_44KHz.wav
2	181	2	2	1	C	2	1	1458	1	poli_8sides 11_whiteLine3.jpg	MediumShort_b16_cut3_MS_stereo_44KHz.wav
2	182	4	4	2	I	2	0	1512	1	poli_8sides 3_whiteLine3.jpg	MediumShort_e22_cut1_stereo_44KHz.wav
2	183	1	2	0	C	1	1	1175	1	poli_8sides 10_whiteLine3.jpg	MediumShort_b16_cut3_MS_stereo_44KHz.wav
2	184	3	3	2	I	2	0	1810	0	poli_8sides 9_whiteLine3.jpg	MediumShort_e16_cut1_stereo_44KHz.wav
2	185	2	2	1	C	2	1	1447	1	poli_8sides 11_whiteLine3.jpg	MediumShort_b16_cut3_MS_stereo_44KHz.wav
2	186	1	2	0	C	1	1	1216	1	poli_8sides 10_whiteLine3.jpg	MediumShort_b16_cut3_MS_stereo_44KHz.wav
2	187	3	4	2	I	2	0	1884	1	poli_8sides 9_whiteLine3.jpg	MediumShort_e22_cut1_stereo_44KHz.wav
2	188	4	4	2	I	1	0	792	0	poli_8sides 3_whiteLine3.jpg	MediumShort_e22_cut1_stereo_44KHz.wav
2	189	2	1	0	C	1	1	763	1	poli_8sides 11_whiteLine3.jpg	MediumShort_b10_cut1_MS_stereo_44KHz.wav
2	190	1	1	1	C	1	0	1098	0	poli_8sides 10_whiteLine3.jpg	MediumShort_b10_cut1_MS_stereo_44KHz.wav
2	191	4	3	2	I	2	0	1167	1	poli_8sides 3_whiteLine3.jpg	MediumShort_e16_cut1_stereo_44KHz.wav
2	192	3	3	2	I	1	0	1717	0	poli_8sides 9_whiteLine3.jpg	MediumShort_e16_cut1_stereo_44KHz.wav
2	193	2	1	0	C	1	1	827	1	poli_8sides 11_whiteLine3.jpg	MediumShort_b10_cut1_MS_stereo_44KHz.wav
2	194	3	4	2	I	1	0	1847	1	poli_8sides 9_whiteLine3.jpg	MediumShort_e22_cut1_stereo_44KHz.wav
2	195	1	2	0	C	1	1	859	1	poli_8sides 10_whiteLine3.jpg	MediumShort_b16_cut3_MS_stereo_44KHz.wav
2	196	4	3	2	I	1	0	1355	0	poli_8sides 3_whiteLine3.jpg	MediumShort_e16_cut1_stereo_44KHz.wav
2	197	1	1	1	C	2	1	1192	1	poli_8sides 10_whiteLine3.jpg	MediumShort_b10_cut1_MS_stereo_44KHz.wav
2	198	2	2	1	C	1	0	1789	0	poli_8sides 11_whiteLine3.jpg	MediumShort_b16_cut3_MS_stereo_44KHz.wav
2	199	3	3	2	I	2	0	1102	0	poli_8sides 9_whiteLine3.jpg	MediumShort_e16_cut1_stereo_44KHz.wav
2	200	4	4	2	I	0	0	0	0	poli_8sides 3_whiteLine3.jpg	MediumShort_e22_cut1_stereo_44KHz.wav
3	1	1	2	0	C	1	1	1362	1	poli_8sides 4_whiteLine3.jpg	Medium_e26_stereo_44KHz.wav
3	2	2	1	0	C	1	1	1309	1	poli_8sides 15_whiteLine3.jpg	MediumLong_b10_cut2_L_stereo_44KHz.wav
3	3	4	3	2	I	1	0	949	1	poli_8sides 18_whiteLine3.jpg	Medium_e01_cut1_stereo_44KHz.wav
3	4	3	3	2	I	1	0	1082	0	poli_8sides 8_whiteLine3.jpg	Medium_e01_cut1_stereo_44KHz.wav
3	5	4	4	2	I	1	0	1098	0	poli_8sides 18_whiteLine3.jpg	MediumLong_e04_stereo_44KHz.wav
3	6	2	2	1	C	1	0	1578	0	poli_8sides 15_whiteLine3.jpg	Medium_e26_stereo_44KHz.wav
3	7	1	1	1	C	1	0	1131	0	poli_8sides 4_whiteLine3.jpg	MediumLong_b10_cut2_L_stereo_44KHz.wav
3	8	3	4	2	I	1	0	1089	0	poli_8sides 8_whiteLine3.jpg	MediumLong_e04_stereo_44KHz.wav
3	9	4	3	2	I	2	0	895	1	poli_8sides 18_whiteLine3.jpg	Medium_e01_cut1_stereo_44KHz.wav
3	10	1	1	1	C	1	0	846	0	poli_8sides 4_whiteLine3.jpg	MediumLong_b10_cut2_L_stereo_44KHz.wav
3	11	2	1	0	C	1	1	704	1	poli_8sides 15_whiteLine3.jpg	MediumLong_b10_cut2_L_stereo_44KHz.wav
3	12	3	3	2	I	2	0	974	1	poli_8sides 8_whiteLine3.jpg	Medium_e01_cut1_stereo_44KHz.wav
3	13	1	2	0	C	1	1	1007	1	poli_8sides 4_whiteLine3.jpg	Medium_e26_stereo_44KHz.wav
3	14	3	4	2	I	1	0	1136	0	poli_8sides 8_whiteLine3.jpg	MediumLong_e04_stereo_44KHz.wav
3	15	4	4	2	I	1	0	905	1	poli_8sides 18_whiteLine3.jpg	MediumLong_e04_stereo_44KHz.wav
3	16	2	2	1	C	2	1	1142	1	poli_8sides 15_whiteLine3.jpg	Medium_e26_stereo_44KHz.wav
3	17	4	4	2	I	1	0	1282	0	poli_8sides 18_whiteLine3.jpg	MediumLong_e04_stereo_44KHz.wav
3	18	2	1	0	C	1	1	1401	1	poli_8sides 15_whiteLine3.jpg	MediumLong_b10_cut2_L_stereo_44KHz.wav
3	19	1	1	1	C	2	1	804	1	poli_8sides 4_whiteLine3.jpg	MediumLong_b10_cut2_L_stereo_44KHz.wav
3	20	3	3	2	I	1	0	997	1	poli_8sides 8_whiteLine3.jpg	Medium_e01_cut1_stereo_44KHz.wav
3	21	2	2	1	C	1	0	959	0	poli_8sides 15_whiteLine3.jpg	Medium_e26_stereo_44KHz.wav
3	22	3	4	2	I	2	0	1156	0	poli_8sides 8_whiteLine3.jpg	MediumLong_e04_stereo_44KHz.wav
3	23	4	3	2	I	1	0	1014	0	poli_8sides 18_whiteLine3.jpg	Medium_e01_cut1_stereo_44KHz.wav
3	24	1	2	0	C	1	1	730	1	poli_8sides 4_whiteLine3.jpg	Medium_e26_stereo_44KHz.wav
3	25	2	1	0	C	1	1	1289	1	poli_8sides 15_whiteLine3.jpg	MediumLong_b10_cut2_L_stereo_44KHz.wav
3	26	1	2	0	C	1	1	837	1	poli_8sides 4_whiteLine3.jpg	Medium_e26_stereo_44KHz.wav
3	27	4	3	2	I	1	0	940	1	poli_8sides 18_whiteLine3.jpg	Medium_e01_cut1_stereo_44KHz.wav
3	28	3	3	2	I	2	0	740	0	poli_8sides 8_whiteLine3.jpg	Medium_e01_cut1_stereo_44KHz.wav
3	29	2	2	1	C	2	1	1172	1	poli_8sides 15_whiteLine3.jpg	Medium_e26_stereo_44KHz.wav
3	30	4	4	2	I	1	0	855	1	poli_8sides 18_whiteLine3.jpg	MediumLong_e04_stereo_44KHz.wav
3	31	1	1	1	C	1	0	996	0	poli_8sides 4_whiteLine3.jpg	MediumLong_b10_cut2_L_stereo_44KHz.wav
3	32	3	4	2	I	2	0	938	1	poli_8sides 8_whiteLine3.jpg	MediumLong_e04_stereo_44KHz.wav
3	33	4	3	2	I	1	0	878	0	poli_8sides 18_whiteLine3.jpg	Medium_e01_cut1_stereo_44KHz.wav
3	34	2	2	1	C	1	0	681	0	poli_8sides 15_whiteLine3.jpg	Medium_e26_stereo_44KHz.wav
3	35	1	2	0	C	1	1	688	1	poli_8sides 4_whiteLine3.jpg	Medium_e26_stereo_44KHz.wav
3	36	3	4	2	I	2	0	1068	0	poli_8sides 8_whiteLine3.jpg	MediumLong_e04_stereo_44KHz.wav
3	37	1	1	1	C	1	0	821	0	poli_8sides 4_whiteLine3.jpg	MediumLong_b10_cut2_L_stereo_44KHz.wav
3	38	4	4	2	I	1	0	806	0	poli_8sides 18_whiteLine3.jpg	MediumLong_e04_stereo_44KHz.wav
3	39	2	1	0	C	2	0	1631	0	poli_8sides 15_whiteLine3.jpg	MediumLong_b10_cut2_L_stereo_44KHz.wav
3	40	3	3	2	I	2	0	831	0	poli_8sides 8_whiteLine3.jpg	Medium_e01_cut1_stereo_44KHz.wav
3	41	2	1	0	C	1	1	717	1	poli_8sides 15_whiteLine3.jpg	MediumLong_b10_cut2_L_stereo_44KHz.wav
3	42	4	3	2	I	2	0	1143	1	poli_8sides 18_whiteLine3.jpg	Medium_e01_cut1_stereo_44KHz.wav
3	43	1	1	1	C	1	0	632	0	poli_8sides 4_whiteLine3.jpg	MediumLong_b10_cut2_L_stereo_44KHz.wav
3	44	3	4	2	I	2	0	958	1	poli_8sides 8_whiteLine3.jpg	MediumLong_e04_stereo_44KHz.wav
3	45	2	2	1	C	1	0	549	0	poli_8sides 15_whiteLine3.jpg	Medium_e26_stereo_44KHz.wav
3	46	4	4	2	I	1	0	1260	1	poli_8sides 18_whiteLine3.jpg	MediumLong_e04_stereo_44KHz.wav
3	47	3	3	2	I	2	0	666	1	poli_8sides 8_whiteLine3.jpg	Medium_e01_cut1_stereo_44KHz.wav
3	48	1	2	0	C	1	1	673	1	poli_8sides 4_whiteLine3.jpg	Medium_e26_stereo_44KHz.wav
3	49	4	3	2	I	1	0	830	1	poli_8sides 18_whiteLine3.jpg	Medium_e01_cut1_stereo_44KHz.wav
3	50	2	2	1	C	2	1	893	1	poli_8sides 15_whiteLine3.jpg	Medium_e26_stereo_44KHz.wav
3	51	1	1	1	C	1	0	763	0	poli_8sides 4_whiteLine3.jpg	MediumLong_b10_cut2_L_stereo_44KHz.wav
3	52	3	4	2	I	2	0	1273	0	poli_8sides 8_whiteLine3.jpg	MediumLong_e04_stereo_44KHz.wav
3	53	1	2	0	C	1	1	679	1	poli_8sides 4_whiteLine3.jpg	Medium_e26_stereo_44KHz.wav
3	54	3	3	2	I	1	0	1257	0	poli_8sides 8_whiteLine3.jpg	Medium_e01_cut1_stereo_44KHz.wav
3	55	4	4	2	I	1	0	1078	1	poli_8sides 18_whiteLine3.jpg	MediumLong_e04_stereo_44KHz.wav
3	56	2	1	0	C	1	1	950	1	poli_8sides 15_whiteLine3.jpg	MediumLong_b10_cut2_L_stereo_44KHz.wav
3	57	1	2	0	C	1	1	805	1	poli_8sides 4_whiteLine3.jpg	Medium_e26_stereo_44KHz.wav
3	58	2	2	1	C	1	0	974	0	poli_8sides 15_whiteLine3.jpg	Medium_e26_stereo_44KHz.wav
3	59	4	3	2	I	1	0	1137	0	poli_8sides 18_whiteLine3.jpg	Medium_e01_cut1_stereo_44KHz.wav
3	60	3	4	2	I	2	0	1005	0	poli_8sides 8_whiteLine3.jpg	MediumLong_e04_stereo_44KHz.wav
3	61	2	1	0	C	1	1	1239	1	poli_8sides 15_whiteLine3.jpg	MediumLong_b10_cut2_L_stereo_44KHz.wav
3	62	3	3	2	I	1	0	865	0	poli_8sides 8_whiteLine3.jpg	Medium_e01_cut1_stereo_44KHz.wav
3	63	1	1	1	C	1	0	777	0	poli_8sides 4_whiteLine3.jpg	MediumLong_b10_cut2_L_stereo_44KHz.wav
3	64	4	4	2	I	1	0	1073	1	poli_8sides 18_whiteLine3.jpg	MediumLong_e04_stereo_44KHz.wav
3	65	3	3	2	I	2	0	1427	1	poli_8sides 8_whiteLine3.jpg	Medium_e01_cut1_stereo_44KHz.wav
3	66	4	3	2	I	2	0	1435	1	poli_8sides 18_whiteLine3.jpg	Medium_e01_cut1_stereo_44KHz.wav
3	67	1	2	0	C	1	1	739	1	poli_8sides 4_whiteLine3.jpg	Medium_e26_stereo_44KHz.wav
3	68	2	1	0	C	1	1	1064	1	poli_8sides 15_whiteLine3.jpg	MediumLong_b10_cut2_L_stereo_44KHz.wav
3	69	4	4	2	I	2	0	1091	1	poli_8sides 18_whiteLine3.jpg	MediumLong_e04_stereo_44KHz.wav
3	70	3	4	2	I	2	0	1418	1	poli_8sides 8_whiteLine3.jpg	MediumLong_e04_stereo_44KHz.wav
3	71	2	2	1	C	2	1	1944	1	poli_8sides 15_whiteLine3.jpg	Medium_e26_stereo_44KHz.wav
3	72	1	1	1	C	2	1	1112	1	poli_8sides 4_whiteLine3.jpg	MediumLong_b10_cut2_L_stereo_44KHz.wav
3	73	3	4	2	I	1	0	1787	1	poli_8sides 8_whiteLine3.jpg	MediumLong_e04_stereo_44KHz.wav
3	74	4	4	2	I	2	0	1655	0	poli_8sides 18_whiteLine3.jpg	MediumLong_e04_stereo_44KHz.wav
3	75	1	1	1	C	1	0	662	0	poli_8sides 4_whiteLine3.jpg	MediumLong_b10_cut2_L_stereo_44KHz.wav
3	76	2	1	0	C	1	1	785	1	poli_8sides 15_whiteLine3.jpg	MediumLong_b10_cut2_L_stereo_44KHz.wav
3	77	3	3	2	I	2	0	1387	1	poli_8sides 8_whiteLine3.jpg	Medium_e01_cut1_stereo_44KHz.wav
3	78	1	2	0	C	1	1	786	1	poli_8sides 4_whiteLine3.jpg	Medium_e26_stereo_44KHz.wav
3	79	2	2	1	C	2	1	869	1	poli_8sides 15_whiteLine3.jpg	Medium_e26_stereo_44KHz.wav
3	80	4	3	2	I	1	0	990	1	poli_8sides 18_whiteLine3.jpg	Medium_e01_cut1_stereo_44KHz.wav
3	81	3	4	2	I	2	0	1381	1	poli_8sides 8_whiteLine3.jpg	MediumLong_e04_stereo_44KHz.wav
3	82	1	2	0	C	1	1	811	1	poli_8sides 4_whiteLine3.jpg	Medium_e26_stereo_44KHz.wav
3	83	2	1	0	C	2	0	824	0	poli_8sides 15_whiteLine3.jpg	MediumLong_b10_cut2_L_stereo_44KHz.wav
3	84	4	3	2	I	1	0	965	1	poli_8sides 18_whiteLine3.jpg	Medium_e01_cut1_stereo_44KHz.wav
3	85	2	2	1	C	2	1	1527	1	poli_8sides 15_whiteLine3.jpg	Medium_e26_stereo_44KHz.wav
3	86	1	1	1	C	2	1	1009	1	poli_8sides 4_whiteLine3.jpg	MediumLong_b10_cut2_L_stereo_44KHz.wav
3	87	4	4	2	I	1	0	823	0	poli_8sides 18_whiteLine3.jpg	MediumLong_e04_stereo_44KHz.wav
3	88	3	3	2	I	2	0	855	0	poli_8sides 8_whiteLine3.jpg	Medium_e01_cut1_stereo_44KHz.wav
3	89	1	1	1	C	2	1	1045	1	poli_8sides 4_whiteLine3.jpg	MediumLong_b10_cut2_L_stereo_44KHz.wav
3	90	2	1	0	C	1	1	1029	1	poli_8sides 15_whiteLine3.jpg	MediumLong_b10_cut2_L_stereo_44KHz.wav
3	91	3	3	2	I	2	0	1941	1	poli_8sides 8_whiteLine3.jpg	Medium_e01_cut1_stereo_44KHz.wav
3	92	4	3	2	I	1	0	1026	0	poli_8sides 18_whiteLine3.jpg	Medium_e01_cut1_stereo_44KHz.wav
3	93	3	4	2	I	1	0	1292	0	poli_8sides 8_whiteLine3.jpg	MediumLong_e04_stereo_44KHz.wav
3	94	4	4	2	I	1	0	1264	1	poli_8sides 18_whiteLine3.jpg	MediumLong_e04_stereo_44KHz.wav
3	95	1	2	0	C	1	1	1174	1	poli_8sides 4_whiteLine3.jpg	Medium_e26_stereo_44KHz.wav
3	96	2	2	1	C	2	1	956	1	poli_8sides 15_whiteLine3.jpg	Medium_e26_stereo_44KHz.wav
3	97	4	3	2	I	1	0	939	0	poli_8sides 18_whiteLine3.jpg	Medium_e01_cut1_stereo_44KHz.wav
3	98	2	1	0	C	1	1	982	1	poli_8sides 15_whiteLine3.jpg	MediumLong_b10_cut2_L_stereo_44KHz.wav
3	99	3	3	2	I	1	0	1500	1	poli_8sides 8_whiteLine3.jpg	Medium_e01_cut1_stereo_44KHz.wav
3	100	1	1	1	C	2	1	1011	1	poli_8sides 4_whiteLine3.jpg	MediumLong_b10_cut2_L_stereo_44KHz.wav
3	101	4	4	2	I	1	0	952	1	poli_8sides 18_whiteLine3.jpg	MediumLong_e04_stereo_44KHz.wav
3	102	2	2	1	C	2	1	1524	1	poli_8sides 15_whiteLine3.jpg	Medium_e26_stereo_44KHz.wav
3	103	3	4	2	I	1	0	1097	0	poli_8sides 8_whiteLine3.jpg	MediumLong_e04_stereo_44KHz.wav
3	104	1	2	0	C	1	1	807	1	poli_8sides 4_whiteLine3.jpg	Medium_e26_stereo_44KHz.wav
3	105	2	2	1	C	2	1	853	1	poli_8sides 15_whiteLine3.jpg	Medium_e26_stereo_44KHz.wav
3	106	3	4	2	I	1	0	1016	0	poli_8sides 8_whiteLine3.jpg	MediumLong_e04_stereo_44KHz.wav
3	107	1	2	0	C	1	1	935	1	poli_8sides 4_whiteLine3.jpg	Medium_e26_stereo_44KHz.wav
3	108	4	4	2	I	2	0	1502	0	poli_8sides 18_whiteLine3.jpg	MediumLong_e04_stereo_44KHz.wav
3	109	2	1	0	C	1	1	1103	1	poli_8sides 15_whiteLine3.jpg	MediumLong_b10_cut2_L_stereo_44KHz.wav
3	110	4	3	2	I	1	0	1254	1	poli_8sides 18_whiteLine3.jpg	Medium_e01_cut1_stereo_44KHz.wav
3	111	1	1	1	C	2	1	1129	1	poli_8sides 4_whiteLine3.jpg	MediumLong_b10_cut2_L_stereo_44KHz.wav
3	112	3	3	2	I	2	0	1328	1	poli_8sides 8_whiteLine3.jpg	Medium_e01_cut1_stereo_44KHz.wav
3	113	1	1	1	C	2	1	881	1	poli_8sides 4_whiteLine3.jpg	MediumLong_b10_cut2_L_stereo_44KHz.wav
3	114	2	2	1	C	2	1	1616	1	poli_8sides 15_whiteLine3.jpg	Medium_e26_stereo_44KHz.wav
3	115	4	4	2	I	1	0	998	0	poli_8sides 18_whiteLine3.jpg	MediumLong_e04_stereo_44KHz.wav
3	116	3	4	2	I	1	0	710	0	poli_8sides 8_whiteLine3.jpg	MediumLong_e04_stereo_44KHz.wav
3	117	1	2	0	C	1	1	1229	1	poli_8sides 4_whiteLine3.jpg	Medium_e26_stereo_44KHz.wav
3	118	2	1	0	C	1	1	1134	1	poli_8sides 15_whiteLine3.jpg	MediumLong_b10_cut2_L_stereo_44KHz.wav
3	119	4	3	2	I	1	0	1161	0	poli_8sides 18_whiteLine3.jpg	Medium_e01_cut1_stereo_44KHz.wav
3	120	3	3	2	I	1	0	624	0	poli_8sides 8_whiteLine3.jpg	Medium_e01_cut1_stereo_44KHz.wav
3	121	4	4	2	I	1	0	876	1	poli_8sides 18_whiteLine3.jpg	MediumLong_e04_stereo_44KHz.wav
3	122	2	2	1	C	2	1	1299	1	poli_8sides 15_whiteLine3.jpg	Medium_e26_stereo_44KHz.wav
3	123	3	4	2	I	1	0	1047	1	poli_8sides 8_whiteLine3.jpg	MediumLong_e04_stereo_44KHz.wav
3	124	1	2	0	C	1	1	960	1	poli_8sides 4_whiteLine3.jpg	Medium_e26_stereo_44KHz.wav
3	125	4	3	2	I	2	0	1102	0	poli_8sides 18_whiteLine3.jpg	Medium_e01_cut1_stereo_44KHz.wav
3	126	3	3	2	I	1	0	1101	1	poli_8sides 8_whiteLine3.jpg	Medium_e01_cut1_stereo_44KHz.wav
3	127	1	1	1	C	1	0	1783	0	poli_8sides 4_whiteLine3.jpg	MediumLong_b10_cut2_L_stereo_44KHz.wav
3	128	2	1	0	C	1	1	803	1	poli_8sides 15_whiteLine3.jpg	MediumLong_b10_cut2_L_stereo_44KHz.wav
3	129	1	2	0	C	1	1	1055	1	poli_8sides 4_whiteLine3.jpg	Medium_e26_stereo_44KHz.wav
3	130	4	3	2	I	2	0	1835	1	poli_8sides 18_whiteLine3.jpg	Medium_e01_cut1_stereo_44KHz.wav
3	131	2	2	1	C	2	1	1246	1	poli_8sides 15_whiteLine3.jpg	Medium_e26_stereo_44KHz.wav
3	132	3	4	2	I	1	0	1299	1	poli_8sides 8_whiteLine3.jpg	MediumLong_e04_stereo_44KHz.wav
3	133	1	1	1	C	2	1	1331	1	poli_8sides 4_whiteLine3.jpg	MediumLong_b10_cut2_L_stereo_44KHz.wav
3	134	4	4	2	I	1	0	1247	1	poli_8sides 18_whiteLine3.jpg	MediumLong_e04_stereo_44KHz.wav
3	135	3	3	2	I	0	0	0	0	poli_8sides 8_whiteLine3.jpg	Medium_e01_cut1_stereo_44KHz.wav
3	136	2	1	0	C	1	1	867	1	poli_8sides 15_whiteLine3.jpg	MediumLong_b10_cut2_L_stereo_44KHz.wav
3	137	4	4	2	I	1	0	885	0	poli_8sides 18_whiteLine3.jpg	MediumLong_e04_stereo_44KHz.wav
3	138	2	2	1	C	2	1	1471	1	poli_8sides 15_whiteLine3.jpg	Medium_e26_stereo_44KHz.wav
3	139	3	4	2	I	1	0	994	0	poli_8sides 8_whiteLine3.jpg	MediumLong_e04_stereo_44KHz.wav
3	140	1	1	1	C	1	0	796	0	poli_8sides 4_whiteLine3.jpg	MediumLong_b10_cut2_L_stereo_44KHz.wav
3	141	3	3	2	I	2	0	1319	0	poli_8sides 8_whiteLine3.jpg	Medium_e01_cut1_stereo_44KHz.wav
3	142	4	3	2	I	1	0	1077	0	poli_8sides 18_whiteLine3.jpg	Medium_e01_cut1_stereo_44KHz.wav
3	143	2	1	0	C	1	1	1406	1	poli_8sides 15_whiteLine3.jpg	MediumLong_b10_cut2_L_stereo_44KHz.wav
3	144	1	2	0	C	1	1	944	1	poli_8sides 4_whiteLine3.jpg	Medium_e26_stereo_44KHz.wav
3	145	3	4	2	I	1	0	972	0	poli_8sides 8_whiteLine3.jpg	MediumLong_e04_stereo_44KHz.wav
3	146	4	4	2	I	1	0	604	1	poli_8sides 18_whiteLine3.jpg	MediumLong_e04_stereo_44KHz.wav
3	147	1	2	0	C	1	1	817	1	poli_8sides 4_whiteLine3.jpg	Medium_e26_stereo_44KHz.wav
3	148	2	1	0	C	1	1	967	1	poli_8sides 15_whiteLine3.jpg	MediumLong_b10_cut2_L_stereo_44KHz.wav
3	149	4	3	2	I	2	0	1445	0	poli_8sides 18_whiteLine3.jpg	Medium_e01_cut1_stereo_44KHz.wav
3	150	1	1	1	C	2	1	1421	1	poli_8sides 4_whiteLine3.jpg	MediumLong_b10_cut2_L_stereo_44KHz.wav
3	151	3	3	2	I	1	0	1570	0	poli_8sides 8_whiteLine3.jpg	Medium_e01_cut1_stereo_44KHz.wav
3	152	2	2	1	C	2	1	1004	1	poli_8sides 15_whiteLine3.jpg	Medium_e26_stereo_44KHz.wav
3	153	4	4	2	I	1	0	835	1	poli_8sides 18_whiteLine3.jpg	MediumLong_e04_stereo_44KHz.wav
3	154	2	2	1	C	2	1	1361	1	poli_8sides 15_whiteLine3.jpg	Medium_e26_stereo_44KHz.wav
3	155	1	1	1	C	2	1	1019	1	poli_8sides 4_whiteLine3.jpg	MediumLong_b10_cut2_L_stereo_44KHz.wav
3	156	3	4	2	I	1	0	1069	0	poli_8sides 8_whiteLine3.jpg	MediumLong_e04_stereo_44KHz.wav
3	157	1	2	0	C	1	1	931	1	poli_8sides 4_whiteLine3.jpg	Medium_e26_stereo_44KHz.wav
3	158	4	3	2	I	2	0	1133	1	poli_8sides 18_whiteLine3.jpg	Medium_e01_cut1_stereo_44KHz.wav
3	159	3	3	2	I	1	0	811	1	poli_8sides 8_whiteLine3.jpg	Medium_e01_cut1_stereo_44KHz.wav
3	160	2	1	0	C	1	1	1164	1	poli_8sides 15_whiteLine3.jpg	MediumLong_b10_cut2_L_stereo_44KHz.wav
3	161	1	2	0	C	1	1	825	1	poli_8sides 4_whiteLine3.jpg	Medium_e26_stereo_44KHz.wav
3	162	4	3	2	I	2	0	1668	0	poli_8sides 18_whiteLine3.jpg	Medium_e01_cut1_stereo_44KHz.wav
3	163	2	2	1	C	2	1	1156	1	poli_8sides 15_whiteLine3.jpg	Medium_e26_stereo_44KHz.wav
3	164	3	4	2	I	1	0	1349	1	poli_8sides 8_whiteLine3.jpg	MediumLong_e04_stereo_44KHz.wav
3	165	4	4	2	I	1	0	902	0	poli_8sides 18_whiteLine3.jpg	MediumLong_e04_stereo_44KHz.wav
3	166	3	3	2	I	1	0	930	1	poli_8sides 8_whiteLine3.jpg	Medium_e01_cut1_stereo_44KHz.wav
3	167	1	1	1	C	2	1	848	1	poli_8sides 4_whiteLine3.jpg	MediumLong_b10_cut2_L_stereo_44KHz.wav
3	168	2	1	0	C	1	1	1106	1	poli_8sides 15_whiteLine3.jpg	MediumLong_b10_cut2_L_stereo_44KHz.wav
3	169	3	4	2	I	1	0	1060	1	poli_8sides 8_whiteLine3.jpg	MediumLong_e04_stereo_44KHz.wav
3	170	2	2	1	C	1	0	1440	0	poli_8sides 15_whiteLine3.jpg	Medium_e26_stereo_44KHz.wav
3	171	4	4	2	I	1	0	1208	0	poli_8sides 18_whiteLine3.jpg	MediumLong_e04_stereo_44KHz.wav
3	172	1	2	0	C	1	1	808	1	poli_8sides 4_whiteLine3.jpg	Medium_e26_stereo_44KHz.wav
3	173	4	3	2	I	2	0	1587	1	poli_8sides 18_whiteLine3.jpg	Medium_e01_cut1_stereo_44KHz.wav
3	174	2	1	0	C	2	0	1400	0	poli_8sides 15_whiteLine3.jpg	MediumLong_b10_cut2_L_stereo_44KHz.wav
3	175	3	3	2	I	2	0	1200	1	poli_8sides 8_whiteLine3.jpg	Medium_e01_cut1_stereo_44KHz.wav
3	176	1	1	1	C	2	1	289	1	poli_8sides 4_whiteLine3.jpg	MediumLong_b10_cut2_L_stereo_44KHz.wav
3	177	4	4	2	I	1	0	1197	0	poli_8sides 18_whiteLine3.jpg	MediumLong_e04_stereo_44KHz.wav
3	178	3	4	2	I	1	0	555	0	poli_8sides 8_whiteLine3.jpg	MediumLong_e04_stereo_44KHz.wav
3	179	2	2	1	C	1	0	946	0	poli_8sides 15_whiteLine3.jpg	Medium_e26_stereo_44KHz.wav
3	180	1	1	1	C	1	0	630	0	poli_8sides 4_whiteLine3.jpg	MediumLong_b10_cut2_L_stereo_44KHz.wav
3	181	3	3	2	I	1	0	1732	1	poli_8sides 8_whiteLine3.jpg	Medium_e01_cut1_stereo_44KHz.wav
3	182	4	3	2	I	2	0	1073	0	poli_8sides 18_whiteLine3.jpg	Medium_e01_cut1_stereo_44KHz.wav
3	183	1	2	0	C	1	1	697	1	poli_8sides 4_whiteLine3.jpg	Medium_e26_stereo_44KHz.wav
3	184	2	1	0	C	1	1	874	1	poli_8sides 15_whiteLine3.jpg	MediumLong_b10_cut2_L_stereo_44KHz.wav
3	185	3	4	2	I	1	0	846	1	poli_8sides 8_whiteLine3.jpg	MediumLong_e04_stereo_44KHz.wav
3	186	1	2	0	C	1	1	822	1	poli_8sides 4_whiteLine3.jpg	Medium_e26_stereo_44KHz.wav
3	187	4	4	2	I	1	0	1631	0	poli_8sides 18_whiteLine3.jpg	MediumLong_e04_stereo_44KHz.wav
3	188	2	2	1	C	2	1	1302	1	poli_8sides 15_whiteLine3.jpg	Medium_e26_stereo_44KHz.wav
3	189	3	3	2	I	1	0	1126	0	poli_8sides 8_whiteLine3.jpg	Medium_e01_cut1_stereo_44KHz.wav
3	190	1	1	1	C	2	1	970	1	poli_8sides 4_whiteLine3.jpg	MediumLong_b10_cut2_L_stereo_44KHz.wav
3	191	4	3	2	I	1	0	952	0	poli_8sides 18_whiteLine3.jpg	Medium_e01_cut1_stereo_44KHz.wav
3	192	2	1	0	C	2	0	1198	0	poli_8sides 15_whiteLine3.jpg	MediumLong_b10_cut2_L_stereo_44KHz.wav
3	193	4	3	2	I	1	0	1613	1	poli_8sides 18_whiteLine3.jpg	Medium_e01_cut1_stereo_44KHz.wav
3	194	3	3	2	I	2	0	1357	1	poli_8sides 8_whiteLine3.jpg	Medium_e01_cut1_stereo_44KHz.wav
3	195	1	2	0	C	1	1	775	1	poli_8sides 4_whiteLine3.jpg	Medium_e26_stereo_44KHz.wav
3	196	2	1	0	C	1	1	1294	1	poli_8sides 15_whiteLine3.jpg	MediumLong_b10_cut2_L_stereo_44KHz.wav
3	197	1	1	1	C	2	1	856	1	poli_8sides 4_whiteLine3.jpg	MediumLong_b10_cut2_L_stereo_44KHz.wav
3	198	3	4	2	I	1	0	1437	0	poli_8sides 8_whiteLine3.jpg	MediumLong_e04_stereo_44KHz.wav
3	199	2	2	1	C	2	1	1561	1	poli_8sides 15_whiteLine3.jpg	Medium_e26_stereo_44KHz.wav
3	200	4	4	2	I	1	0	853	0	poli_8sides 18_whiteLine3.jpg	MediumLong_e04_stereo_44KHz.wav
4	1	4	3	2	I	0	0	0	0	poli_8sides 7_whiteLine3.jpg	Medium_e21_stereo_44KHz.wav
4	2	1	2	0	C	1	1	696	1	poli_8sides 6_whiteLine3.jpg	MediumLong_e17_cut2_stereo_44KHz.wav
4	3	3	4	2	I	1	0	1442	1	poli_8sides 5_whiteLine3.jpg	MediumLong_e19_stereo_44KHz.wav
4	4	2	1	0	C	2	0	1207	0	poli_8sides 12_whiteLine3.jpg	Medium_e13_stereo_44KHz.wav
4	5	3	3	2	I	2	0	1406	0	poli_8sides 5_whiteLine3.jpg	Medium_e21_stereo_44KHz.wav
4	6	4	4	2	I	1	0	913	1	poli_8sides 7_whiteLine3.jpg	MediumLong_e19_stereo_44KHz.wav
4	7	1	1	1	C	1	0	1049	0	poli_8sides 6_whiteLine3.jpg	Medium_e13_stereo_44KHz.wav
4	8	2	2	1	C	2	1	1134	1	poli_8sides 12_whiteLine3.jpg	MediumLong_e17_cut2_stereo_44KHz.wav
4	9	3	3	2	I	1	0	906	0	poli_8sides 5_whiteLine3.jpg	Medium_e21_stereo_44KHz.wav
4	10	2	1	0	C	1	1	1101	1	poli_8sides 12_whiteLine3.jpg	Medium_e13_stereo_44KHz.wav
4	11	1	2	0	C	1	1	915	1	poli_8sides 6_whiteLine3.jpg	MediumLong_e17_cut2_stereo_44KHz.wav
4	12	4	4	2	I	1	0	1221	1	poli_8sides 7_whiteLine3.jpg	MediumLong_e19_stereo_44KHz.wav
4	13	2	2	1	C	2	1	765	1	poli_8sides 12_whiteLine3.jpg	MediumLong_e17_cut2_stereo_44KHz.wav
4	14	4	3	2	I	1	0	938	0	poli_8sides 7_whiteLine3.jpg	Medium_e21_stereo_44KHz.wav
4	15	3	4	2	I	1	0	956	1	poli_8sides 5_whiteLine3.jpg	MediumLong_e19_stereo_44KHz.wav
4	16	1	1	1	C	2	1	820	1	poli_8sides 6_whiteLine3.jpg	Medium_e13_stereo_44KHz.wav
4	17	3	3	2	I	1	0	1029	0	poli_8sides 5_whiteLine3.jpg	Medium_e21_stereo_44KHz.wav
4	18	2	2	1	C	2	1	908	1	poli_8sides 12_whiteLine3.jpg	MediumLong_e17_cut2_stereo_44KHz.wav
4	19	4	3	2	I	1	0	817	0	poli_8sides 7_whiteLine3.jpg	Medium_e21_stereo_44KHz.wav
4	20	1	1	1	C	2	1	989	1	poli_8sides 6_whiteLine3.jpg	Medium_e13_stereo_44KHz.wav
4	21	3	4	2	I	1	0	965	0	poli_8sides 5_whiteLine3.jpg	MediumLong_e19_stereo_44KHz.wav
4	22	2	1	0	C	1	1	846	1	poli_8sides 12_whiteLine3.jpg	Medium_e13_stereo_44KHz.wav
4	23	4	4	2	I	1	0	1345	0	poli_8sides 7_whiteLine3.jpg	MediumLong_e19_stereo_44KHz.wav
4	24	1	2	0	C	1	1	888	1	poli_8sides 6_whiteLine3.jpg	MediumLong_e17_cut2_stereo_44KHz.wav
4	25	4	4	2	I	1	0	899	1	poli_8sides 7_whiteLine3.jpg	MediumLong_e19_stereo_44KHz.wav
4	26	1	2	0	C	1	1	1123	1	poli_8sides 6_whiteLine3.jpg	MediumLong_e17_cut2_stereo_44KHz.wav
4	27	3	3	2	I	1	0	1095	1	poli_8sides 5_whiteLine3.jpg	Medium_e21_stereo_44KHz.wav
4	28	2	2	1	C	2	1	859	1	poli_8sides 12_whiteLine3.jpg	MediumLong_e17_cut2_stereo_44KHz.wav
4	29	4	3	2	I	1	0	901	1	poli_8sides 7_whiteLine3.jpg	Medium_e21_stereo_44KHz.wav
4	30	1	1	1	C	2	1	1210	1	poli_8sides 6_whiteLine3.jpg	Medium_e13_stereo_44KHz.wav
4	31	2	1	0	C	1	1	803	1	poli_8sides 12_whiteLine3.jpg	Medium_e13_stereo_44KHz.wav
4	32	3	4	2	I	1	0	1193	1	poli_8sides 5_whiteLine3.jpg	MediumLong_e19_stereo_44KHz.wav
4	33	1	2	0	C	1	1	963	1	poli_8sides 6_whiteLine3.jpg	MediumLong_e17_cut2_stereo_44KHz.wav
4	34	3	3	2	I	1	0	1187	0	poli_8sides 5_whiteLine3.jpg	Medium_e21_stereo_44KHz.wav
4	35	2	2	1	C	2	1	876	1	poli_8sides 12_whiteLine3.jpg	MediumLong_e17_cut2_stereo_44KHz.wav
4	36	4	4	2	I	1	0	842	1	poli_8sides 7_whiteLine3.jpg	MediumLong_e19_stereo_44KHz.wav
4	37	2	1	0	C	1	1	957	1	poli_8sides 12_whiteLine3.jpg	Medium_e13_stereo_44KHz.wav
4	38	4	3	2	I	1	0	933	1	poli_8sides 7_whiteLine3.jpg	Medium_e21_stereo_44KHz.wav
4	39	3	4	2	I	1	0	1311	1	poli_8sides 5_whiteLine3.jpg	MediumLong_e19_stereo_44KHz.wav
4	40	1	1	1	C	2	1	1048	1	poli_8sides 6_whiteLine3.jpg	Medium_e13_stereo_44KHz.wav
4	41	3	4	2	I	1	0	897	1	poli_8sides 5_whiteLine3.jpg	MediumLong_e19_stereo_44KHz.wav
4	42	2	1	0	C	1	1	924	1	poli_8sides 12_whiteLine3.jpg	Medium_e13_stereo_44KHz.wav
4	43	4	4	2	I	1	0	1189	1	poli_8sides 7_whiteLine3.jpg	MediumLong_e19_stereo_44KHz.wav
4	44	1	2	0	C	1	1	1614	1	poli_8sides 6_whiteLine3.jpg	MediumLong_e17_cut2_stereo_44KHz.wav
4	45	2	2	1	C	2	1	641	1	poli_8sides 12_whiteLine3.jpg	MediumLong_e17_cut2_stereo_44KHz.wav
4	46	1	1	1	C	2	1	996	1	poli_8sides 6_whiteLine3.jpg	Medium_e13_stereo_44KHz.wav
4	47	4	3	2	I	1	0	917	1	poli_8sides 7_whiteLine3.jpg	Medium_e21_stereo_44KHz.wav
4	48	3	3	2	I	2	0	1330	1	poli_8sides 5_whiteLine3.jpg	Medium_e21_stereo_44KHz.wav
4	49	4	3	2	I	1	0	1026	0	poli_8sides 7_whiteLine3.jpg	Medium_e21_stereo_44KHz.wav
4	50	2	1	0	C	1	1	1120	1	poli_8sides 12_whiteLine3.jpg	Medium_e13_stereo_44KHz.wav
4	51	3	4	2	I	1	0	1001	0	poli_8sides 5_whiteLine3.jpg	MediumLong_e19_stereo_44KHz.wav
4	52	1	2	0	C	1	1	915	1	poli_8sides 6_whiteLine3.jpg	MediumLong_e17_cut2_stereo_44KHz.wav
4	53	3	3	2	I	1	0	1022	1	poli_8sides 5_whiteLine3.jpg	Medium_e21_stereo_44KHz.wav
4	54	1	1	1	C	2	1	1371	1	poli_8sides 6_whiteLine3.jpg	Medium_e13_stereo_44KHz.wav
4	55	4	4	2	I	1	0	768	1	poli_8sides 7_whiteLine3.jpg	MediumLong_e19_stereo_44KHz.wav
4	56	2	2	1	C	2	1	890	1	poli_8sides 12_whiteLine3.jpg	MediumLong_e17_cut2_stereo_44KHz.wav
4	57	3	3	2	I	1	0	905	0	poli_8sides 5_whiteLine3.jpg	Medium_e21_stereo_44KHz.wav
4	58	1	1	1	C	2	1	837	1	poli_8sides 6_whiteLine3.jpg	Medium_e13_stereo_44KHz.wav
4	59	2	1	0	C	1	1	936	1	poli_8sides 12_whiteLine3.jpg	Medium_e13_stereo_44KHz.wav
4	60	4	3	2	I	2	0	1330	0	poli_8sides 7_whiteLine3.jpg	Medium_e21_stereo_44KHz.wav
4	61	2	2	1	C	2	1	809	1	poli_8sides 12_whiteLine3.jpg	MediumLong_e17_cut2_stereo_44KHz.wav
4	62	4	4	2	I	1	0	942	1	poli_8sides 7_whiteLine3.jpg	MediumLong_e19_stereo_44KHz.wav
4	63	3	4	2	I	1	0	991	1	poli_8sides 5_whiteLine3.jpg	MediumLong_e19_stereo_44KHz.wav
4	64	1	2	0	C	1	1	1079	1	poli_8sides 6_whiteLine3.jpg	MediumLong_e17_cut2_stereo_44KHz.wav
4	65	3	3	2	I	1	0	1067	0	poli_8sides 5_whiteLine3.jpg	Medium_e21_stereo_44KHz.wav
4	66	2	2	1	C	2	1	1518	1	poli_8sides 12_whiteLine3.jpg	MediumLong_e17_cut2_stereo_44KHz.wav
4	67	4	3	2	I	1	0	935	1	poli_8sides 7_whiteLine3.jpg	Medium_e21_stereo_44KHz.wav
4	68	1	1	1	C	2	1	1464	1	poli_8sides 6_whiteLine3.jpg	Medium_e13_stereo_44KHz.wav
4	69	2	1	0	C	1	1	815	1	poli_8sides 12_whiteLine3.jpg	Medium_e13_stereo_44KHz.wav
4	70	1	2	0	C	1	1	1049	1	poli_8sides 6_whiteLine3.jpg	MediumLong_e17_cut2_stereo_44KHz.wav
4	71	4	4	2	I	1	0	873	1	poli_8sides 7_whiteLine3.jpg	MediumLong_e19_stereo_44KHz.wav
4	72	3	4	2	I	1	0	823	0	poli_8sides 5_whiteLine3.jpg	MediumLong_e19_stereo_44KHz.wav
4	73	1	2	0	C	1	1	1198	1	poli_8sides 6_whiteLine3.jpg	MediumLong_e17_cut2_stereo_44KHz.wav
4	74	2	2	1	C	2	1	780	1	poli_8sides 12_whiteLine3.jpg	MediumLong_e17_cut2_stereo_44KHz.wav
4	75	4	3	2	I	1	0	921	0	poli_8sides 7_whiteLine3.jpg	Medium_e21_stereo_44KHz.wav
4	76	3	4	2	I	1	0	836	0	poli_8sides 5_whiteLine3.jpg	MediumLong_e19_stereo_44KHz.wav
4	77	4	4	2	I	1	0	882	0	poli_8sides 7_whiteLine3.jpg	MediumLong_e19_stereo_44KHz.wav
4	78	1	1	1	C	2	1	1573	1	poli_8sides 6_whiteLine3.jpg	Medium_e13_stereo_44KHz.wav
4	79	3	3	2	I	1	0	896	1	poli_8sides 5_whiteLine3.jpg	Medium_e21_stereo_44KHz.wav
4	80	2	1	0	C	1	1	956	1	poli_8sides 12_whiteLine3.jpg	Medium_e13_stereo_44KHz.wav
4	81	1	2	0	C	1	1	1609	1	poli_8sides 6_whiteLine3.jpg	MediumLong_e17_cut2_stereo_44KHz.wav
4	82	3	4	2	I	1	0	1219	0	poli_8sides 5_whiteLine3.jpg	MediumLong_e19_stereo_44KHz.wav
4	83	2	1	0	C	1	1	921	1	poli_8sides 12_whiteLine3.jpg	Medium_e13_stereo_44KHz.wav
4	84	4	4	2	I	1	0	954	1	poli_8sides 7_whiteLine3.jpg	MediumLong_e19_stereo_44KHz.wav
4	85	3	3	2	I	1	0	999	0	poli_8sides 5_whiteLine3.jpg	Medium_e21_stereo_44KHz.wav
4	86	2	2	1	C	2	1	780	1	poli_8sides 12_whiteLine3.jpg	MediumLong_e17_cut2_stereo_44KHz.wav
4	87	1	1	1	C	2	1	1233	1	poli_8sides 6_whiteLine3.jpg	Medium_e13_stereo_44KHz.wav
4	88	4	3	2	I	1	0	840	0	poli_8sides 7_whiteLine3.jpg	Medium_e21_stereo_44KHz.wav
4	89	2	1	0	C	1	1	911	1	poli_8sides 12_whiteLine3.jpg	Medium_e13_stereo_44KHz.wav
4	90	4	3	2	I	1	0	851	0	poli_8sides 7_whiteLine3.jpg	Medium_e21_stereo_44KHz.wav
4	91	3	3	2	I	1	0	1056	0	poli_8sides 5_whiteLine3.jpg	Medium_e21_stereo_44KHz.wav
4	92	1	1	1	C	2	1	1191	1	poli_8sides 6_whiteLine3.jpg	Medium_e13_stereo_44KHz.wav
4	93	2	2	1	C	2	1	808	1	poli_8sides 12_whiteLine3.jpg	MediumLong_e17_cut2_stereo_44KHz.wav
4	94	1	2	0	C	1	1	885	1	poli_8sides 6_whiteLine3.jpg	MediumLong_e17_cut2_stereo_44KHz.wav
4	95	4	4	2	I	1	0	1105	1	poli_8sides 7_whiteLine3.jpg	MediumLong_e19_stereo_44KHz.wav
4	96	3	4	2	I	2	0	932	1	poli_8sides 5_whiteLine3.jpg	MediumLong_e19_stereo_44KHz.wav
4	97	4	3	2	I	1	0	1364	0	poli_8sides 7_whiteLine3.jpg	Medium_e21_stereo_44KHz.wav
4	98	2	2	1	C	2	1	1346	1	poli_8sides 12_whiteLine3.jpg	MediumLong_e17_cut2_stereo_44KHz.wav
4	99	1	2	0	C	1	1	842	1	poli_8sides 6_whiteLine3.jpg	MediumLong_e17_cut2_stereo_44KHz.wav
4	100	3	4	2	I	1	0	951	1	poli_8sides 5_whiteLine3.jpg	MediumLong_e19_stereo_44KHz.wav
4	101	1	1	1	C	2	1	1063	1	poli_8sides 6_whiteLine3.jpg	Medium_e13_stereo_44KHz.wav
4	102	2	1	0	C	1	1	821	1	poli_8sides 12_whiteLine3.jpg	Medium_e13_stereo_44KHz.wav
4	103	3	3	2	I	2	0	1490	1	poli_8sides 5_whiteLine3.jpg	Medium_e21_stereo_44KHz.wav
4	104	4	4	2	I	1	0	1258	0	poli_8sides 7_whiteLine3.jpg	MediumLong_e19_stereo_44KHz.wav
4	105	2	2	1	C	2	1	858	1	poli_8sides 12_whiteLine3.jpg	MediumLong_e17_cut2_stereo_44KHz.wav
4	106	4	3	2	I	1	0	1092	1	poli_8sides 7_whiteLine3.jpg	Medium_e21_stereo_44KHz.wav
4	107	1	1	1	C	2	1	961	1	poli_8sides 6_whiteLine3.jpg	Medium_e13_stereo_44KHz.wav
4	108	3	3	2	I	2	0	1244	1	poli_8sides 5_whiteLine3.jpg	Medium_e21_stereo_44KHz.wav
4	109	2	1	0	C	1	1	947	1	poli_8sides 12_whiteLine3.jpg	Medium_e13_stereo_44KHz.wav
4	110	3	4	2	I	1	0	862	1	poli_8sides 5_whiteLine3.jpg	MediumLong_e19_stereo_44KHz.wav
4	111	1	2	0	C	1	1	1028	1	poli_8sides 6_whiteLine3.jpg	MediumLong_e17_cut2_stereo_44KHz.wav
4	112	4	4	2	I	2	0	1784	1	poli_8sides 7_whiteLine3.jpg	MediumLong_e19_stereo_44KHz.wav
4	113	3	4	2	I	1	0	1145	1	poli_8sides 5_whiteLine3.jpg	MediumLong_e19_stereo_44KHz.wav
4	114	1	1	1	C	2	1	1000	1	poli_8sides 6_whiteLine3.jpg	Medium_e13_stereo_44KHz.wav
4	115	4	3	2	I	1	0	1012	1	poli_8sides 7_whiteLine3.jpg	Medium_e21_stereo_44KHz.wav
4	116	2	2	1	C	2	1	773	1	poli_8sides 12_whiteLine3.jpg	MediumLong_e17_cut2_stereo_44KHz.wav
4	117	1	2	0	C	1	1	1170	1	poli_8sides 6_whiteLine3.jpg	MediumLong_e17_cut2_stereo_44KHz.wav
4	118	4	4	2	I	1	0	1326	1	poli_8sides 7_whiteLine3.jpg	MediumLong_e19_stereo_44KHz.wav
4	119	3	3	2	I	1	0	1210	0	poli_8sides 5_whiteLine3.jpg	Medium_e21_stereo_44KHz.wav
4	120	2	1	0	C	1	1	1367	1	poli_8sides 12_whiteLine3.jpg	Medium_e13_stereo_44KHz.wav
4	121	3	3	2	I	1	0	1523	0	poli_8sides 5_whiteLine3.jpg	Medium_e21_stereo_44KHz.wav
4	122	1	2	0	C	1	1	920	1	poli_8sides 6_whiteLine3.jpg	MediumLong_e17_cut2_stereo_44KHz.wav
4	123	4	3	2	I	1	0	1064	0	poli_8sides 7_whiteLine3.jpg	Medium_e21_stereo_44KHz.wav
4	124	2	2	1	C	2	1	861	1	poli_8sides 12_whiteLine3.jpg	MediumLong_e17_cut2_stereo_44KHz.wav
4	125	4	4	2	I	1	0	952	1	poli_8sides 7_whiteLine3.jpg	MediumLong_e19_stereo_44KHz.wav
4	126	2	1	0	C	1	1	905	1	poli_8sides 12_whiteLine3.jpg	Medium_e13_stereo_44KHz.wav
4	127	1	1	1	C	2	1	1288	1	poli_8sides 6_whiteLine3.jpg	Medium_e13_stereo_44KHz.wav
4	128	3	4	2	I	1	0	1015	0	poli_8sides 5_whiteLine3.jpg	MediumLong_e19_stereo_44KHz.wav
4	129	2	2	1	C	2	1	914	1	poli_8sides 12_whiteLine3.jpg	MediumLong_e17_cut2_stereo_44KHz.wav
4	130	4	4	2	I	1	0	1070	0	poli_8sides 7_whiteLine3.jpg	MediumLong_e19_stereo_44KHz.wav
4	131	1	2	0	C	1	1	942	1	poli_8sides 6_whiteLine3.jpg	MediumLong_e17_cut2_stereo_44KHz.wav
4	132	3	3	2	I	1	0	909	0	poli_8sides 5_whiteLine3.jpg	Medium_e21_stereo_44KHz.wav
4	133	1	1	1	C	2	1	1603	1	poli_8sides 6_whiteLine3.jpg	Medium_e13_stereo_44KHz.wav
4	134	4	3	2	I	1	0	868	1	poli_8sides 7_whiteLine3.jpg	Medium_e21_stereo_44KHz.wav
4	135	3	4	2	I	1	0	802	0	poli_8sides 5_whiteLine3.jpg	MediumLong_e19_stereo_44KHz.wav
4	136	2	1	0	C	1	1	820	1	poli_8sides 12_whiteLine3.jpg	Medium_e13_stereo_44KHz.wav
4	137	4	3	2	I	1	0	838	0	poli_8sides 7_whiteLine3.jpg	Medium_e21_stereo_44KHz.wav
4	138	3	3	2	I	1	0	1384	1	poli_8sides 5_whiteLine3.jpg	Medium_e21_stereo_44KHz.wav
4	139	2	2	1	C	2	1	865	1	poli_8sides 12_whiteLine3.jpg	MediumLong_e17_cut2_stereo_44KHz.wav
4	140	1	1	1	C	2	1	996	1	poli_8sides 6_whiteLine3.jpg	Medium_e13_stereo_44KHz.wav
4	141	3	4	2	I	1	0	1037	1	poli_8sides 5_whiteLine3.jpg	MediumLong_e19_stereo_44KHz.wav
4	142	4	4	2	I	2	0	854	1	poli_8sides 7_whiteLine3.jpg	MediumLong_e19_stereo_44KHz.wav
4	143	2	1	0	C	1	1	1127	1	poli_8sides 12_whiteLine3.jpg	Medium_e13_stereo_44KHz.wav
4	144	1	2	0	C	1	1	1855	1	poli_8sides 6_whiteLine3.jpg	MediumLong_e17_cut2_stereo_44KHz.wav
4	145	2	2	1	C	2	1	755	1	poli_8sides 12_whiteLine3.jpg	MediumLong_e17_cut2_stereo_44KHz.wav
4	146	3	3	2	I	2	0	1442	0	poli_8sides 5_whiteLine3.jpg	Medium_e21_stereo_44KHz.wav
4	147	1	2	0	C	1	1	1005	1	poli_8sides 6_whiteLine3.jpg	MediumLong_e17_cut2_stereo_44KHz.wav
4	148	4	3	2	I	1	0	999	0	poli_8sides 7_whiteLine3.jpg	Medium_e21_stereo_44KHz.wav
4	149	2	1	0	C	1	1	970	1	poli_8sides 12_whiteLine3.jpg	Medium_e13_stereo_44KHz.wav
4	150	3	4	2	I	1	0	1183	0	poli_8sides 5_whiteLine3.jpg	MediumLong_e19_stereo_44KHz.wav
4	151	1	1	1	C	1	0	959	0	poli_8sides 6_whiteLine3.jpg	Medium_e13_stereo_44KHz.wav
4	152	4	4	2	I	1	0	1131	0	poli_8sides 7_whiteLine3.jpg	MediumLong_e19_stereo_44KHz.wav
4	153	3	4	2	I	1	0	885	0	poli_8sides 5_whiteLine3.jpg	MediumLong_e19_stereo_44KHz.wav
4	154	2	1	0	C	1	1	1426	1	poli_8sides 12_whiteLine3.jpg	Medium_e13_stereo_44KHz.wav
4	155	4	4	2	I	2	0	1010	0	poli_8sides 7_whiteLine3.jpg	MediumLong_e19_stereo_44KHz.wav
4	156	1	2	0	C	1	1	1029	1	poli_8sides 6_whiteLine3.jpg	MediumLong_e17_cut2_stereo_44KHz.wav
4	157	2	2	1	C	2	1	850	1	poli_8sides 12_whiteLine3.jpg	MediumLong_e17_cut2_stereo_44KHz.wav
4	158	1	1	1	C	2	1	1165	1	poli_8sides 6_whiteLine3.jpg	Medium_e13_stereo_44KHz.wav
4	159	3	3	2	I	1	0	1289	1	poli_8sides 5_whiteLine3.jpg	Medium_e21_stereo_44KHz.wav
4	160	4	3	2	I	1	0	1701	1	poli_8sides 7_whiteLine3.jpg	Medium_e21_stereo_44KHz.wav
4	161	2	1	0	C	1	1	1180	1	poli_8sides 12_whiteLine3.jpg	Medium_e13_stereo_44KHz.wav
4	162	1	2	0	C	1	1	1089	1	poli_8sides 6_whiteLine3.jpg	MediumLong_e17_cut2_stereo_44KHz.wav
4	163	4	3	2	I	1	0	1015	0	poli_8sides 7_whiteLine3.jpg	Medium_e21_stereo_44KHz.wav
4	164	3	3	2	I	1	0	934	1	poli_8sides 5_whiteLine3.jpg	Medium_e21_stereo_44KHz.wav
4	165	1	1	1	C	2	1	1137	1	poli_8sides 6_whiteLine3.jpg	Medium_e13_stereo_44KHz.wav
4	166	3	4	2	I	1	0	1016	0	poli_8sides 5_whiteLine3.jpg	MediumLong_e19_stereo_44KHz.wav
4	167	2	2	1	C	2	1	970	1	poli_8sides 12_whiteLine3.jpg	MediumLong_e17_cut2_stereo_44KHz.wav
4	168	4	4	2	I	1	0	1265	1	poli_8sides 7_whiteLine3.jpg	MediumLong_e19_stereo_44KHz.wav
4	169	2	2	1	C	2	1	1193	1	poli_8sides 12_whiteLine3.jpg	MediumLong_e17_cut2_stereo_44KHz.wav
4	170	3	4	2	I	1	0	935	1	poli_8sides 5_whiteLine3.jpg	MediumLong_e19_stereo_44KHz.wav
4	171	4	3	2	I	1	0	1007	0	poli_8sides 7_whiteLine3.jpg	Medium_e21_stereo_44KHz.wav
4	172	1	2	0	C	1	1	971	1	poli_8sides 6_whiteLine3.jpg	MediumLong_e17_cut2_stereo_44KHz.wav
4	173	3	3	2	I	2	0	1753	1	poli_8sides 5_whiteLine3.jpg	Medium_e21_stereo_44KHz.wav
4	174	1	1	1	C	2	1	1031	1	poli_8sides 6_whiteLine3.jpg	Medium_e13_stereo_44KHz.wav
4	175	2	1	0	C	1	1	849	1	poli_8sides 12_whiteLine3.jpg	Medium_e13_stereo_44KHz.wav
4	176	4	4	2	I	1	0	1113	0	poli_8sides 7_whiteLine3.jpg	MediumLong_e19_stereo_44KHz.wav
4	177	3	3	2	I	1	0	1055	1	poli_8sides 5_whiteLine3.jpg	Medium_e21_stereo_44KHz.wav
4	178	4	3	2	I	2	0	1471	0	poli_8sides 7_whiteLine3.jpg	Medium_e21_stereo_44KHz.wav
4	179	2	2	1	C	0	0	0	0	poli_8sides 12_whiteLine3.jpg	MediumLong_e17_cut2_stereo_44KHz.wav
4	180	1	1	1	C	2	1	916	1	poli_8sides 6_whiteLine3.jpg	Medium_e13_stereo_44KHz.wav
4	181	3	4	2	I	1	0	1792	0	poli_8sides 5_whiteLine3.jpg	MediumLong_e19_stereo_44KHz.wav
4	182	2	1	0	C	1	1	954	1	poli_8sides 12_whiteLine3.jpg	Medium_e13_stereo_44KHz.wav
4	183	4	4	2	I	1	0	1892	1	poli_8sides 7_whiteLine3.jpg	MediumLong_e19_stereo_44KHz.wav
4	184	1	2	0	C	1	1	1436	1	poli_8sides 6_whiteLine3.jpg	MediumLong_e17_cut2_stereo_44KHz.wav
4	185	3	4	2	I	2	0	1454	0	poli_8sides 5_whiteLine3.jpg	MediumLong_e19_stereo_44KHz.wav
4	186	4	3	2	I	1	0	1028	0	poli_8sides 7_whiteLine3.jpg	Medium_e21_stereo_44KHz.wav
4	187	2	1	0	C	1	1	1105	1	poli_8sides 12_whiteLine3.jpg	Medium_e13_stereo_44KHz.wav
4	188	1	2	0	C	1	1	1191	1	poli_8sides 6_whiteLine3.jpg	MediumLong_e17_cut2_stereo_44KHz.wav
4	189	3	3	2	I	1	0	896	0	poli_8sides 5_whiteLine3.jpg	Medium_e21_stereo_44KHz.wav
4	190	4	4	2	I	1	0	1078	1	poli_8sides 7_whiteLine3.jpg	MediumLong_e19_stereo_44KHz.wav
4	191	1	1	1	C	2	1	1112	1	poli_8sides 6_whiteLine3.jpg	Medium_e13_stereo_44KHz.wav
4	192	2	2	1	C	2	1	829	1	poli_8sides 12_whiteLine3.jpg	MediumLong_e17_cut2_stereo_44KHz.wav
4	193	3	4	2	I	0	0	0	0	poli_8sides 5_whiteLine3.jpg	MediumLong_e19_stereo_44KHz.wav
4	194	1	2	0	C	2	0	744	0	poli_8sides 6_whiteLine3.jpg	MediumLong_e17_cut2_stereo_44KHz.wav
4	195	4	4	2	I	2	0	1267	0	poli_8sides 7_whiteLine3.jpg	MediumLong_e19_stereo_44KHz.wav
4	196	2	2	1	C	2	1	811	1	poli_8sides 12_whiteLine3.jpg	MediumLong_e17_cut2_stereo_44KHz.wav
4	197	1	1	1	C	2	1	896	1	poli_8sides 6_whiteLine3.jpg	Medium_e13_stereo_44KHz.wav
4	198	4	3	2	I	1	0	973	0	poli_8sides 7_whiteLine3.jpg	Medium_e21_stereo_44KHz.wav
4	199	3	3	2	I	1	0	1005	1	poli_8sides 5_whiteLine3.jpg	Medium_e21_stereo_44KHz.wav
4	200	2	1	0	C	1	1	935	1	poli_8sides 12_whiteLine3.jpg	Medium_e13_stereo_44KHz.wav
