block	trial	Vstim	Astim	match	C/I	resp	result	RT	fb	V-file	A-file
RL

0	1	2	3	1	C	0	0	0	0	Ⴉ	cut_eeuw_stereo_44KHz.wav
0	2	2	4	0	C	2	1	1231	1	Ⴉ	cut_ee_stereo_44KHz.wav
0	3	1	2	0	C	2	1	1134	1	Ⴋ	cut_g_stereo_44KHz.wav
0	4	1	1	1	C	1	1	818	1	Ⴋ	cut_oo_stereo_44KHz.wav
0	5	1	2	0	C	2	1	1092	1	Ⴋ	cut_g_stereo_44KHz.wav
0	6	2	3	1	C	1	1	1060	1	Ⴉ	cut_eeuw_stereo_44KHz.wav
0	7	2	4	0	C	2	1	1705	1	Ⴉ	cut_ee_stereo_44KHz.wav
0	8	1	1	1	C	1	1	688	1	Ⴋ	cut_oo_stereo_44KHz.wav
0	9	1	2	0	C	2	1	1155	1	Ⴋ	cut_g_stereo_44KHz.wav
0	10	2	3	1	C	1	1	1358	1	Ⴉ	cut_eeuw_stereo_44KHz.wav
0	11	2	4	0	C	2	1	786	1	Ⴉ	cut_ee_stereo_44KHz.wav
0	12	1	1	1	C	1	1	777	1	Ⴋ	cut_oo_stereo_44KHz.wav
0	13	2	3	1	C	1	1	932	1	Ⴉ	cut_eeuw_stereo_44KHz.wav
0	14	1	1	1	C	1	1	894	1	Ⴋ	cut_oo_stereo_44KHz.wav
0	15	1	2	0	C	2	1	985	1	Ⴋ	cut_g_stereo_44KHz.wav
0	16	2	4	0	C	2	1	779	1	Ⴉ	cut_ee_stereo_44KHz.wav
0	17	1	2	0	C	2	1	1214	1	Ⴋ	cut_g_stereo_44KHz.wav
0	18	2	4	0	C	2	1	882	1	Ⴉ	cut_ee_stereo_44KHz.wav
0	19	2	3	1	C	1	1	1921	1	Ⴉ	cut_eeuw_stereo_44KHz.wav
0	20	1	1	1	C	1	1	1538	1	Ⴋ	cut_oo_stereo_44KHz.wav
0	21	1	1	1	C	1	1	1180	1	Ⴋ	cut_oo_stereo_44KHz.wav
0	22	2	4	0	C	2	1	1024	1	Ⴉ	cut_ee_stereo_44KHz.wav
0	23	1	2	0	C	2	1	1168	1	Ⴋ	cut_g_stereo_44KHz.wav
0	24	2	3	1	C	1	1	1006	1	Ⴉ	cut_eeuw_stereo_44KHz.wav
0	25	2	4	0	C	2	1	744	1	Ⴉ	cut_ee_stereo_44KHz.wav
0	26	1	1	1	C	1	1	1353	1	Ⴋ	cut_oo_stereo_44KHz.wav
0	27	1	2	0	C	2	1	981	1	Ⴋ	cut_g_stereo_44KHz.wav
0	28	2	3	1	C	1	1	773	1	Ⴉ	cut_eeuw_stereo_44KHz.wav
0	29	2	4	0	C	2	1	709	1	Ⴉ	cut_ee_stereo_44KHz.wav
0	30	2	3	1	C	1	1	1200	1	Ⴉ	cut_eeuw_stereo_44KHz.wav
avg_resp = 1072
1	1	3	3	2	I	0	0	0	0	Ⴉ	cut_s_stereo_44KHz.wav
1	2	4	3	2	I	2	0	608	1	Ⴒ	cut_s_stereo_44KHz.wav
1	3	2	1	0	C	2	1	1003	1	Ⴐ	cut_n_stereo_44KHz.wav
1	4	1	1	1	C	0	0	0	0	Ⴔ	cut_n_stereo_44KHz.wav
1	5	2	2	1	C	1	1	1233	1	Ⴐ	cut_j_stereo_44KHz.wav
1	6	4	4	2	I	2	0	1056	0	Ⴒ	cut_ui_stereo_44KHz.wav
1	7	1	2	0	C	2	1	755	1	Ⴔ	cut_j_stereo_44KHz.wav
1	8	3	4	2	I	1	0	1290	1	Ⴉ	cut_ui_stereo_44KHz.wav
1	9	4	3	2	I	2	0	1261	1	Ⴒ	cut_s_stereo_44KHz.wav
1	10	3	3	2	I	1	0	929	0	Ⴉ	cut_s_stereo_44KHz.wav
1	11	2	1	0	C	1	0	1056	0	Ⴐ	cut_n_stereo_44KHz.wav
1	12	1	2	0	C	2	1	1868	1	Ⴔ	cut_j_stereo_44KHz.wav
1	13	4	4	2	I	2	0	1328	0	Ⴒ	cut_ui_stereo_44KHz.wav
1	14	2	2	1	C	1	1	863	1	Ⴐ	cut_j_stereo_44KHz.wav
1	15	1	1	1	C	1	1	1279	1	Ⴔ	cut_n_stereo_44KHz.wav
1	16	3	4	2	I	1	0	1755	1	Ⴉ	cut_ui_stereo_44KHz.wav
1	17	4	3	2	I	2	0	1186	0	Ⴒ	cut_s_stereo_44KHz.wav
1	18	1	1	1	C	1	1	1266	1	Ⴔ	cut_n_stereo_44KHz.wav
1	19	3	3	2	I	2	0	1463	0	Ⴉ	cut_s_stereo_44KHz.wav
1	20	2	1	0	C	1	0	1588	0	Ⴐ	cut_n_stereo_44KHz.wav
1	21	3	4	2	I	1	0	1607	1	Ⴉ	cut_ui_stereo_44KHz.wav
1	22	4	4	2	I	0	0	0	0	Ⴒ	cut_ui_stereo_44KHz.wav
1	23	2	2	1	C	1	1	1313	1	Ⴐ	cut_j_stereo_44KHz.wav
1	24	1	2	0	C	2	1	962	1	Ⴔ	cut_j_stereo_44KHz.wav
1	25	4	4	2	I	1	0	881	1	Ⴒ	cut_ui_stereo_44KHz.wav
1	26	1	1	1	C	1	1	1116	1	Ⴔ	cut_n_stereo_44KHz.wav
1	27	2	2	1	C	1	1	861	1	Ⴐ	cut_j_stereo_44KHz.wav
1	28	3	4	2	I	1	0	1463	1	Ⴉ	cut_ui_stereo_44KHz.wav
1	29	4	3	2	I	1	0	1533	1	Ⴒ	cut_s_stereo_44KHz.wav
1	30	2	1	0	C	2	1	1561	1	Ⴐ	cut_n_stereo_44KHz.wav
1	31	3	3	2	I	2	0	1222	1	Ⴉ	cut_s_stereo_44KHz.wav
1	32	1	2	0	C	2	1	1484	1	Ⴔ	cut_j_stereo_44KHz.wav
1	33	2	2	1	C	1	1	607	1	Ⴐ	cut_j_stereo_44KHz.wav
1	34	1	1	1	C	1	1	1022	1	Ⴔ	cut_n_stereo_44KHz.wav
1	35	4	4	2	I	2	0	1258	0	Ⴒ	cut_ui_stereo_44KHz.wav
1	36	3	3	2	I	2	0	1167	1	Ⴉ	cut_s_stereo_44KHz.wav
1	37	1	2	0	C	2	1	729	1	Ⴔ	cut_j_stereo_44KHz.wav
1	38	2	1	0	C	2	1	948	1	Ⴐ	cut_n_stereo_44KHz.wav
1	39	3	4	2	I	1	0	1518	0	Ⴉ	cut_ui_stereo_44KHz.wav
1	40	4	3	2	I	1	0	1524	0	Ⴒ	cut_s_stereo_44KHz.wav
1	41	3	3	2	I	1	0	1046	1	Ⴉ	cut_s_stereo_44KHz.wav
1	42	4	3	2	I	2	0	904	0	Ⴒ	cut_s_stereo_44KHz.wav
1	43	2	2	1	C	1	1	1092	1	Ⴐ	cut_j_stereo_44KHz.wav
1	44	1	1	1	C	0	0	0	0	Ⴔ	cut_n_stereo_44KHz.wav
1	45	2	1	0	C	2	1	984	1	Ⴐ	cut_n_stereo_44KHz.wav
1	46	4	4	2	I	2	0	1113	0	Ⴒ	cut_ui_stereo_44KHz.wav
1	47	3	4	2	I	2	0	864	0	Ⴉ	cut_ui_stereo_44KHz.wav
1	48	1	2	0	C	2	1	768	1	Ⴔ	cut_j_stereo_44KHz.wav
1	49	3	4	2	I	1	0	1350	0	Ⴉ	cut_ui_stereo_44KHz.wav
1	50	2	1	0	C	2	1	1025	1	Ⴐ	cut_n_stereo_44KHz.wav
1	51	4	4	2	I	1	0	1224	1	Ⴒ	cut_ui_stereo_44KHz.wav
1	52	1	2	0	C	2	1	719	1	Ⴔ	cut_j_stereo_44KHz.wav
1	53	3	3	2	I	1	0	1120	0	Ⴉ	cut_s_stereo_44KHz.wav
1	54	2	2	1	C	1	1	1693	1	Ⴐ	cut_j_stereo_44KHz.wav
1	55	4	3	2	I	2	0	1184	0	Ⴒ	cut_s_stereo_44KHz.wav
1	56	1	1	1	C	1	1	1050	1	Ⴔ	cut_n_stereo_44KHz.wav
1	57	2	2	1	C	1	1	1066	1	Ⴐ	cut_j_stereo_44KHz.wav
1	58	3	3	2	I	1	0	1833	1	Ⴉ	cut_s_stereo_44KHz.wav
1	59	1	2	0	C	2	1	1342	1	Ⴔ	cut_j_stereo_44KHz.wav
1	60	4	4	2	I	2	0	1270	1	Ⴒ	cut_ui_stereo_44KHz.wav
1	61	2	1	0	C	2	1	1749	1	Ⴐ	cut_n_stereo_44KHz.wav
1	62	1	1	1	C	1	1	908	1	Ⴔ	cut_n_stereo_44KHz.wav
1	63	3	4	2	I	2	0	1284	0	Ⴉ	cut_ui_stereo_44KHz.wav
1	64	4	3	2	I	1	0	1468	0	Ⴒ	cut_s_stereo_44KHz.wav
1	65	2	2	1	C	1	1	1331	1	Ⴐ	cut_j_stereo_44KHz.wav
1	66	4	3	2	I	2	0	830	0	Ⴒ	cut_s_stereo_44KHz.wav
1	67	1	1	1	C	1	1	1180	1	Ⴔ	cut_n_stereo_44KHz.wav
1	68	3	3	2	I	2	0	1537	0	Ⴉ	cut_s_stereo_44KHz.wav
1	69	4	4	2	I	2	0	1515	0	Ⴒ	cut_ui_stereo_44KHz.wav
1	70	3	4	2	I	2	0	1016	0	Ⴉ	cut_ui_stereo_44KHz.wav
1	71	1	2	0	C	2	1	1263	1	Ⴔ	cut_j_stereo_44KHz.wav
1	72	2	1	0	C	2	1	994	1	Ⴐ	cut_n_stereo_44KHz.wav
1	73	3	4	2	I	1	0	1259	1	Ⴉ	cut_ui_stereo_44KHz.wav
1	74	4	3	2	I	1	0	932	1	Ⴒ	cut_s_stereo_44KHz.wav
1	75	2	1	0	C	2	1	894	1	Ⴐ	cut_n_stereo_44KHz.wav
1	76	1	2	0	C	2	1	923	1	Ⴔ	cut_j_stereo_44KHz.wav
1	77	3	3	2	I	2	0	1216	0	Ⴉ	cut_s_stereo_44KHz.wav
1	78	2	2	1	C	1	1	1227	1	Ⴐ	cut_j_stereo_44KHz.wav
1	79	4	4	2	I	2	0	1103	0	Ⴒ	cut_ui_stereo_44KHz.wav
1	80	1	1	1	C	1	1	1834	1	Ⴔ	cut_n_stereo_44KHz.wav
1	81	2	1	0	C	2	1	1527	1	Ⴐ	cut_n_stereo_44KHz.wav
1	82	3	3	2	I	2	0	1328	0	Ⴉ	cut_s_stereo_44KHz.wav
1	83	4	3	2	I	2	0	1220	1	Ⴒ	cut_s_stereo_44KHz.wav
1	84	1	1	1	C	1	1	1405	1	Ⴔ	cut_n_stereo_44KHz.wav
1	85	4	4	2	I	0	0	0	0	Ⴒ	cut_ui_stereo_44KHz.wav
1	86	2	2	1	C	1	1	1350	1	Ⴐ	cut_j_stereo_44KHz.wav
1	87	1	2	0	C	2	1	721	1	Ⴔ	cut_j_stereo_44KHz.wav
1	88	3	4	2	I	2	0	941	1	Ⴉ	cut_ui_stereo_44KHz.wav
1	89	1	1	1	C	1	1	1130	1	Ⴔ	cut_n_stereo_44KHz.wav
1	90	3	3	2	I	2	0	1788	1	Ⴉ	cut_s_stereo_44KHz.wav
1	91	2	1	0	C	1	0	741	0	Ⴐ	cut_n_stereo_44KHz.wav
1	92	4	4	2	I	0	0	0	0	Ⴒ	cut_ui_stereo_44KHz.wav
1	93	1	2	0	C	2	1	772	1	Ⴔ	cut_j_stereo_44KHz.wav
1	94	2	2	1	C	1	1	875	1	Ⴐ	cut_j_stereo_44KHz.wav
1	95	4	3	2	I	2	0	1538	0	Ⴒ	cut_s_stereo_44KHz.wav
1	96	3	4	2	I	2	0	1091	1	Ⴉ	cut_ui_stereo_44KHz.wav
1	97	4	4	2	I	1	0	1320	1	Ⴒ	cut_ui_stereo_44KHz.wav
1	98	3	3	2	I	0	0	0	0	Ⴉ	cut_s_stereo_44KHz.wav
1	99	2	1	0	C	2	1	812	1	Ⴐ	cut_n_stereo_44KHz.wav
1	100	1	2	0	C	2	1	715	1	Ⴔ	cut_j_stereo_44KHz.wav
1	101	4	3	2	I	1	0	1228	1	Ⴒ	cut_s_stereo_44KHz.wav
1	102	1	1	1	C	2	0	783	0	Ⴔ	cut_n_stereo_44KHz.wav
1	103	3	4	2	I	2	0	1491	0	Ⴉ	cut_ui_stereo_44KHz.wav
1	104	2	2	1	C	1	1	1301	1	Ⴐ	cut_j_stereo_44KHz.wav
1	105	3	3	2	I	0	0	0	0	Ⴉ	cut_s_stereo_44KHz.wav
1	106	2	2	1	C	1	1	806	1	Ⴐ	cut_j_stereo_44KHz.wav
1	107	1	2	0	C	2	1	1021	1	Ⴔ	cut_j_stereo_44KHz.wav
1	108	4	3	2	I	1	0	1115	0	Ⴒ	cut_s_stereo_44KHz.wav
1	109	3	4	2	I	2	0	1126	1	Ⴉ	cut_ui_stereo_44KHz.wav
1	110	4	4	2	I	1	0	747	0	Ⴒ	cut_ui_stereo_44KHz.wav
1	111	2	1	0	C	2	1	1020	1	Ⴐ	cut_n_stereo_44KHz.wav
1	112	1	1	1	C	1	1	765	1	Ⴔ	cut_n_stereo_44KHz.wav
1	113	3	3	2	I	1	0	1277	1	Ⴉ	cut_s_stereo_44KHz.wav
1	114	1	1	1	C	1	1	1503	1	Ⴔ	cut_n_stereo_44KHz.wav
1	115	4	3	2	I	2	0	946	0	Ⴒ	cut_s_stereo_44KHz.wav
1	116	2	1	0	C	2	1	1603	1	Ⴐ	cut_n_stereo_44KHz.wav
1	117	1	2	0	C	2	1	1019	1	Ⴔ	cut_j_stereo_44KHz.wav
1	118	3	4	2	I	2	0	1330	0	Ⴉ	cut_ui_stereo_44KHz.wav
1	119	4	4	2	I	2	0	992	1	Ⴒ	cut_ui_stereo_44KHz.wav
1	120	2	2	1	C	1	1	1271	1	Ⴐ	cut_j_stereo_44KHz.wav
1	121	3	4	2	I	2	0	1730	0	Ⴉ	cut_ui_stereo_44KHz.wav
1	122	4	4	2	I	2	0	1193	1	Ⴒ	cut_ui_stereo_44KHz.wav
1	123	1	1	1	C	0	0	0	0	Ⴔ	cut_n_stereo_44KHz.wav
1	124	2	2	1	C	1	1	837	1	Ⴐ	cut_j_stereo_44KHz.wav
1	125	1	2	0	C	1	0	1059	0	Ⴔ	cut_j_stereo_44KHz.wav
1	126	2	1	0	C	0	0	0	0	Ⴐ	cut_n_stereo_44KHz.wav
1	127	3	3	2	I	2	0	1463	1	Ⴉ	cut_s_stereo_44KHz.wav
1	128	4	3	2	I	1	0	742	1	Ⴒ	cut_s_stereo_44KHz.wav
1	129	2	1	0	C	2	1	1482	1	Ⴐ	cut_n_stereo_44KHz.wav
1	130	1	1	1	C	1	1	803	1	Ⴔ	cut_n_stereo_44KHz.wav
1	131	3	3	2	I	0	0	0	0	Ⴉ	cut_s_stereo_44KHz.wav
1	132	4	3	2	I	1	0	1591	1	Ⴒ	cut_s_stereo_44KHz.wav
1	133	1	2	0	C	2	1	945	1	Ⴔ	cut_j_stereo_44KHz.wav
1	134	3	4	2	I	1	0	1035	0	Ⴉ	cut_ui_stereo_44KHz.wav
1	135	2	2	1	C	1	1	1291	1	Ⴐ	cut_j_stereo_44KHz.wav
1	136	4	4	2	I	2	0	998	1	Ⴒ	cut_ui_stereo_44KHz.wav
1	137	3	3	2	I	1	0	1696	1	Ⴉ	cut_s_stereo_44KHz.wav
1	138	1	1	1	C	1	1	827	1	Ⴔ	cut_n_stereo_44KHz.wav
1	139	4	3	2	I	2	0	1635	0	Ⴒ	cut_s_stereo_44KHz.wav
1	140	2	1	0	C	2	1	961	1	Ⴐ	cut_n_stereo_44KHz.wav
1	141	4	4	2	I	0	0	0	0	Ⴒ	cut_ui_stereo_44KHz.wav
1	142	3	4	2	I	1	0	1275	0	Ⴉ	cut_ui_stereo_44KHz.wav
1	143	2	2	1	C	2	0	1107	0	Ⴐ	cut_j_stereo_44KHz.wav
1	144	1	2	0	C	2	1	686	1	Ⴔ	cut_j_stereo_44KHz.wav
1	145	4	3	2	I	1	0	1256	1	Ⴒ	cut_s_stereo_44KHz.wav
1	146	3	4	2	I	1	0	834	1	Ⴉ	cut_ui_stereo_44KHz.wav
1	147	1	1	1	C	1	1	888	1	Ⴔ	cut_n_stereo_44KHz.wav
1	148	2	2	1	C	1	1	1072	1	Ⴐ	cut_j_stereo_44KHz.wav
1	149	1	2	0	C	2	1	777	1	Ⴔ	cut_j_stereo_44KHz.wav
1	150	2	1	0	C	2	1	1175	1	Ⴐ	cut_n_stereo_44KHz.wav
1	151	4	4	2	I	2	0	1505	0	Ⴒ	cut_ui_stereo_44KHz.wav
1	152	3	3	2	I	2	0	1389	1	Ⴉ	cut_s_stereo_44KHz.wav
1	153	2	2	1	C	1	1	785	1	Ⴐ	cut_j_stereo_44KHz.wav
1	154	3	4	2	I	2	0	1705	0	Ⴉ	cut_ui_stereo_44KHz.wav
1	155	1	1	1	C	1	1	1907	1	Ⴔ	cut_n_stereo_44KHz.wav
1	156	4	3	2	I	1	0	1094	0	Ⴒ	cut_s_stereo_44KHz.wav
1	157	3	3	2	I	2	0	1023	0	Ⴉ	cut_s_stereo_44KHz.wav
1	158	4	4	2	I	2	0	1154	1	Ⴒ	cut_ui_stereo_44KHz.wav
1	159	1	2	0	C	2	1	1230	1	Ⴔ	cut_j_stereo_44KHz.wav
1	160	2	1	0	C	2	1	1446	1	Ⴐ	cut_n_stereo_44KHz.wav
1	161	3	4	2	I	1	0	1867	0	Ⴉ	cut_ui_stereo_44KHz.wav
1	162	1	2	0	C	2	1	1219	1	Ⴔ	cut_j_stereo_44KHz.wav
1	163	4	4	2	I	2	0	1625	1	Ⴒ	cut_ui_stereo_44KHz.wav
1	164	2	2	1	C	1	1	773	1	Ⴐ	cut_j_stereo_44KHz.wav
1	165	3	3	2	I	2	0	1252	0	Ⴉ	cut_s_stereo_44KHz.wav
1	166	4	3	2	I	2	0	852	1	Ⴒ	cut_s_stereo_44KHz.wav
1	167	1	1	1	C	1	1	1038	1	Ⴔ	cut_n_stereo_44KHz.wav
1	168	2	1	0	C	1	0	1151	0	Ⴐ	cut_n_stereo_44KHz.wav
1	169	1	1	1	C	1	1	1150	1	Ⴔ	cut_n_stereo_44KHz.wav
1	170	3	4	2	I	2	0	1661	1	Ⴉ	cut_ui_stereo_44KHz.wav
1	171	4	4	2	I	2	0	1867	1	Ⴒ	cut_ui_stereo_44KHz.wav
1	172	2	1	0	C	2	1	929	1	Ⴐ	cut_n_stereo_44KHz.wav
1	173	3	3	2	I	2	0	1415	1	Ⴉ	cut_s_stereo_44KHz.wav
1	174	1	2	0	C	2	1	683	1	Ⴔ	cut_j_stereo_44KHz.wav
1	175	4	3	2	I	1	0	1875	1	Ⴒ	cut_s_stereo_44KHz.wav
1	176	2	2	1	C	1	1	778	1	Ⴐ	cut_j_stereo_44KHz.wav
1	177	4	3	2	I	1	0	1396	0	Ⴒ	cut_s_stereo_44KHz.wav
1	178	1	2	0	C	2	1	822	1	Ⴔ	cut_j_stereo_44KHz.wav
1	179	2	1	0	C	2	1	1638	1	Ⴐ	cut_n_stereo_44KHz.wav
1	180	3	3	2	I	1	0	930	1	Ⴉ	cut_s_stereo_44KHz.wav
1	181	2	2	1	C	1	1	1201	1	Ⴐ	cut_j_stereo_44KHz.wav
1	182	1	1	1	C	1	1	1464	1	Ⴔ	cut_n_stereo_44KHz.wav
1	183	4	4	2	I	2	0	1653	0	Ⴒ	cut_ui_stereo_44KHz.wav
1	184	3	4	2	I	2	0	1042	1	Ⴉ	cut_ui_stereo_44KHz.wav
1	185	2	2	1	C	1	1	1911	1	Ⴐ	cut_j_stereo_44KHz.wav
1	186	3	3	2	I	2	0	1441	0	Ⴉ	cut_s_stereo_44KHz.wav
1	187	1	1	1	C	2	0	1269	0	Ⴔ	cut_n_stereo_44KHz.wav
1	188	4	3	2	I	1	0	1205	0	Ⴒ	cut_s_stereo_44KHz.wav
1	189	3	4	2	I	2	0	989	0	Ⴉ	cut_ui_stereo_44KHz.wav
1	190	1	2	0	C	2	1	716	1	Ⴔ	cut_j_stereo_44KHz.wav
1	191	2	1	0	C	2	1	932	1	Ⴐ	cut_n_stereo_44KHz.wav
1	192	4	4	2	I	0	0	0	0	Ⴒ	cut_ui_stereo_44KHz.wav
1	193	2	2	1	C	1	1	1129	1	Ⴐ	cut_j_stereo_44KHz.wav
1	194	1	1	1	C	1	1	1087	1	Ⴔ	cut_n_stereo_44KHz.wav
1	195	3	3	2	I	2	0	1266	1	Ⴉ	cut_s_stereo_44KHz.wav
1	196	4	3	2	I	1	0	1009	0	Ⴒ	cut_s_stereo_44KHz.wav
1	197	2	1	0	C	2	1	1008	1	Ⴐ	cut_n_stereo_44KHz.wav
1	198	3	4	2	I	1	0	1443	1	Ⴉ	cut_ui_stereo_44KHz.wav
1	199	4	4	2	I	2	0	1016	1	Ⴒ	cut_ui_stereo_44KHz.wav
1	200	1	2	0	C	2	1	770	1	Ⴔ	cut_j_stereo_44KHz.wav
2	1	3	3	2	I	0	0	0	0	Ⴡ	cut_a_stereo_44KHz.wav
2	2	4	3	2	I	2	0	539	1	Ⴇ	cut_a_stereo_44KHz.wav
2	3	1	2	0	C	2	1	629	1	Ⴜ	cut_k_stereo_44KHz.wav
2	4	2	1	0	C	2	1	727	1	Ⴁ	cut_u_stereo_44KHz.wav
2	5	1	1	1	C	1	1	985	1	Ⴜ	cut_u_stereo_44KHz.wav
2	6	3	4	2	I	2	0	1114	0	Ⴡ	cut_o_stereo_44KHz.wav
2	7	4	4	2	I	2	0	818	0	Ⴇ	cut_o_stereo_44KHz.wav
2	8	2	2	1	C	2	0	1040	0	Ⴁ	cut_k_stereo_44KHz.wav
2	9	3	4	2	I	1	0	1139	1	Ⴡ	cut_o_stereo_44KHz.wav
2	10	4	3	2	I	2	0	1416	1	Ⴇ	cut_a_stereo_44KHz.wav
2	11	1	1	1	C	2	0	1372	0	Ⴜ	cut_u_stereo_44KHz.wav
2	12	2	2	1	C	2	0	1176	0	Ⴁ	cut_k_stereo_44KHz.wav
2	13	3	3	2	I	2	0	1301	0	Ⴡ	cut_a_stereo_44KHz.wav
2	14	4	4	2	I	2	0	781	0	Ⴇ	cut_o_stereo_44KHz.wav
2	15	2	1	0	C	2	1	1444	1	Ⴁ	cut_u_stereo_44KHz.wav
2	16	1	2	0	C	0	0	0	0	Ⴜ	cut_k_stereo_44KHz.wav
2	17	3	3	2	I	2	0	626	0	Ⴡ	cut_a_stereo_44KHz.wav
2	18	1	1	1	C	2	0	1186	0	Ⴜ	cut_u_stereo_44KHz.wav
2	19	4	4	2	I	1	0	1305	0	Ⴇ	cut_o_stereo_44KHz.wav
2	20	2	2	1	C	1	1	1534	1	Ⴁ	cut_k_stereo_44KHz.wav
2	21	4	3	2	I	1	0	1565	0	Ⴇ	cut_a_stereo_44KHz.wav
2	22	2	1	0	C	2	1	1167	1	Ⴁ	cut_u_stereo_44KHz.wav
2	23	3	4	2	I	1	0	1149	1	Ⴡ	cut_o_stereo_44KHz.wav
2	24	1	2	0	C	2	1	1814	1	Ⴜ	cut_k_stereo_44KHz.wav
2	25	4	3	2	I	2	0	1092	0	Ⴇ	cut_a_stereo_44KHz.wav
2	26	1	1	1	C	1	1	1728	1	Ⴜ	cut_u_stereo_44KHz.wav
2	27	3	3	2	I	1	0	1153	0	Ⴡ	cut_a_stereo_44KHz.wav
2	28	2	1	0	C	2	1	1431	1	Ⴁ	cut_u_stereo_44KHz.wav
2	29	4	4	2	I	2	0	815	0	Ⴇ	cut_o_stereo_44KHz.wav
2	30	3	4	2	I	2	0	1293	0	Ⴡ	cut_o_stereo_44KHz.wav
2	31	2	2	1	C	1	1	1315	1	Ⴁ	cut_k_stereo_44KHz.wav
2	32	1	2	0	C	2	1	936	1	Ⴜ	cut_k_stereo_44KHz.wav
2	33	2	1	0	C	2	1	702	1	Ⴁ	cut_u_stereo_44KHz.wav
2	34	3	4	2	I	1	0	1031	0	Ⴡ	cut_o_stereo_44KHz.wav
2	35	4	4	2	I	1	0	1341	0	Ⴇ	cut_o_stereo_44KHz.wav
2	36	1	2	0	C	2	1	1058	1	Ⴜ	cut_k_stereo_44KHz.wav
2	37	3	3	2	I	1	0	989	1	Ⴡ	cut_a_stereo_44KHz.wav
2	38	1	1	1	C	1	1	1427	1	Ⴜ	cut_u_stereo_44KHz.wav
2	39	2	2	1	C	1	1	1000	1	Ⴁ	cut_k_stereo_44KHz.wav
2	40	4	3	2	I	2	0	956	1	Ⴇ	cut_a_stereo_44KHz.wav
2	41	2	2	1	C	2	0	1709	0	Ⴁ	cut_k_stereo_44KHz.wav
2	42	1	1	1	C	1	1	1247	1	Ⴜ	cut_u_stereo_44KHz.wav
2	43	3	3	2	I	1	0	1258	1	Ⴡ	cut_a_stereo_44KHz.wav
2	44	4	3	2	I	2	0	1177	1	Ⴇ	cut_a_stereo_44KHz.wav
2	45	1	2	0	C	2	1	895	1	Ⴜ	cut_k_stereo_44KHz.wav
2	46	2	1	0	C	2	1	752	1	Ⴁ	cut_u_stereo_44KHz.wav
2	47	4	4	2	I	2	0	855	1	Ⴇ	cut_o_stereo_44KHz.wav
2	48	3	4	2	I	1	0	854	1	Ⴡ	cut_o_stereo_44KHz.wav
2	49	4	4	2	I	2	0	1425	0	Ⴇ	cut_o_stereo_44KHz.wav
2	50	2	1	0	C	2	1	670	1	Ⴁ	cut_u_stereo_44KHz.wav
2	51	3	4	2	I	1	0	1116	0	Ⴡ	cut_o_stereo_44KHz.wav
2	52	1	2	0	C	2	1	885	1	Ⴜ	cut_k_stereo_44KHz.wav
2	53	4	3	2	I	2	0	1017	0	Ⴇ	cut_a_stereo_44KHz.wav
2	54	1	1	1	C	1	1	1497	1	Ⴜ	cut_u_stereo_44KHz.wav
2	55	2	2	1	C	2	0	703	0	Ⴁ	cut_k_stereo_44KHz.wav
2	56	3	3	2	I	1	0	1106	1	Ⴡ	cut_a_stereo_44KHz.wav
2	57	1	2	0	C	1	0	1235	0	Ⴜ	cut_k_stereo_44KHz.wav
2	58	4	4	2	I	2	0	1432	1	Ⴇ	cut_o_stereo_44KHz.wav
2	59	3	4	2	I	1	0	831	0	Ⴡ	cut_o_stereo_44KHz.wav
2	60	2	1	0	C	2	1	889	1	Ⴁ	cut_u_stereo_44KHz.wav
2	61	4	3	2	I	2	0	943	0	Ⴇ	cut_a_stereo_44KHz.wav
2	62	3	3	2	I	1	0	1243	1	Ⴡ	cut_a_stereo_44KHz.wav
2	63	1	1	1	C	1	1	918	1	Ⴜ	cut_u_stereo_44KHz.wav
2	64	2	2	1	C	1	1	1108	1	Ⴁ	cut_k_stereo_44KHz.wav
2	65	3	4	2	I	1	0	1265	0	Ⴡ	cut_o_stereo_44KHz.wav
2	66	4	3	2	I	2	0	1117	1	Ⴇ	cut_a_stereo_44KHz.wav
2	67	1	2	0	C	2	1	1198	1	Ⴜ	cut_k_stereo_44KHz.wav
2	68	2	1	0	C	2	1	771	1	Ⴁ	cut_u_stereo_44KHz.wav
2	69	4	4	2	I	2	0	1196	0	Ⴇ	cut_o_stereo_44KHz.wav
2	70	1	1	1	C	1	1	1572	1	Ⴜ	cut_u_stereo_44KHz.wav
2	71	3	3	2	I	1	0	1379	1	Ⴡ	cut_a_stereo_44KHz.wav
2	72	2	2	1	C	1	1	1249	1	Ⴁ	cut_k_stereo_44KHz.wav
2	73	1	2	0	C	2	1	963	1	Ⴜ	cut_k_stereo_44KHz.wav
2	74	4	3	2	I	1	0	937	0	Ⴇ	cut_a_stereo_44KHz.wav
2	75	2	1	0	C	2	1	761	1	Ⴁ	cut_u_stereo_44KHz.wav
2	76	3	4	2	I	2	0	1503	1	Ⴡ	cut_o_stereo_44KHz.wav
2	77	4	4	2	I	2	0	639	0	Ⴇ	cut_o_stereo_44KHz.wav
2	78	3	3	2	I	2	0	734	1	Ⴡ	cut_a_stereo_44KHz.wav
2	79	2	2	1	C	2	0	991	0	Ⴁ	cut_k_stereo_44KHz.wav
2	80	1	1	1	C	1	1	1161	1	Ⴜ	cut_u_stereo_44KHz.wav
2	81	3	4	2	I	2	0	1663	1	Ⴡ	cut_o_stereo_44KHz.wav
2	82	4	4	2	I	1	0	1228	0	Ⴇ	cut_o_stereo_44KHz.wav
2	83	1	2	0	C	2	1	1150	1	Ⴜ	cut_k_stereo_44KHz.wav
2	84	2	1	0	C	2	1	888	1	Ⴁ	cut_u_stereo_44KHz.wav
2	85	3	3	2	I	2	0	1402	1	Ⴡ	cut_a_stereo_44KHz.wav
2	86	1	1	1	C	1	1	880	1	Ⴜ	cut_u_stereo_44KHz.wav
2	87	4	3	2	I	2	0	1133	0	Ⴇ	cut_a_stereo_44KHz.wav
2	88	2	2	1	C	1	1	817	1	Ⴁ	cut_k_stereo_44KHz.wav
2	89	1	2	0	C	2	1	951	1	Ⴜ	cut_k_stereo_44KHz.wav
2	90	4	4	2	I	2	0	728	1	Ⴇ	cut_o_stereo_44KHz.wav
2	91	2	2	1	C	1	1	1077	1	Ⴁ	cut_k_stereo_44KHz.wav
2	92	3	4	2	I	2	0	1435	1	Ⴡ	cut_o_stereo_44KHz.wav
2	93	4	3	2	I	2	0	930	1	Ⴇ	cut_a_stereo_44KHz.wav
2	94	2	1	0	C	2	1	718	1	Ⴁ	cut_u_stereo_44KHz.wav
2	95	1	1	1	C	1	1	811	1	Ⴜ	cut_u_stereo_44KHz.wav
2	96	3	3	2	I	2	0	1014	0	Ⴡ	cut_a_stereo_44KHz.wav
2	97	4	3	2	I	2	0	957	0	Ⴇ	cut_a_stereo_44KHz.wav
2	98	3	3	2	I	1	0	1703	1	Ⴡ	cut_a_stereo_44KHz.wav
2	99	1	2	0	C	0	0	0	0	Ⴜ	cut_k_stereo_44KHz.wav
2	100	2	2	1	C	1	1	1371	1	Ⴁ	cut_k_stereo_44KHz.wav
2	101	3	4	2	I	0	0	0	0	Ⴡ	cut_o_stereo_44KHz.wav
2	102	1	1	1	C	1	1	962	1	Ⴜ	cut_u_stereo_44KHz.wav
2	103	4	4	2	I	2	0	1549	1	Ⴇ	cut_o_stereo_44KHz.wav
2	104	2	1	0	C	2	1	970	1	Ⴁ	cut_u_stereo_44KHz.wav
2	105	1	1	1	C	1	1	1477	1	Ⴜ	cut_u_stereo_44KHz.wav
2	106	2	1	0	C	1	0	662	0	Ⴁ	cut_u_stereo_44KHz.wav
2	107	3	3	2	I	1	0	917	1	Ⴡ	cut_a_stereo_44KHz.wav
2	108	4	4	2	I	0	0	0	0	Ⴇ	cut_o_stereo_44KHz.wav
2	109	2	2	1	C	1	1	1065	1	Ⴁ	cut_k_stereo_44KHz.wav
2	110	4	3	2	I	2	0	1159	1	Ⴇ	cut_a_stereo_44KHz.wav
2	111	3	4	2	I	2	0	1133	0	Ⴡ	cut_o_stereo_44KHz.wav
2	112	1	2	0	C	2	1	887	1	Ⴜ	cut_k_stereo_44KHz.wav
2	113	3	4	2	I	2	0	829	1	Ⴡ	cut_o_stereo_44KHz.wav
2	114	2	2	1	C	2	0	857	0	Ⴁ	cut_k_stereo_44KHz.wav
2	115	4	4	2	I	2	0	1478	1	Ⴇ	cut_o_stereo_44KHz.wav
2	116	1	1	1	C	1	1	1626	1	Ⴜ	cut_u_stereo_44KHz.wav
2	117	2	1	0	C	2	1	761	1	Ⴁ	cut_u_stereo_44KHz.wav
2	118	3	3	2	I	1	0	881	0	Ⴡ	cut_a_stereo_44KHz.wav
2	119	1	2	0	C	1	0	1425	0	Ⴜ	cut_k_stereo_44KHz.wav
2	120	4	3	2	I	2	0	1283	1	Ⴇ	cut_a_stereo_44KHz.wav
2	121	1	2	0	C	2	1	1432	1	Ⴜ	cut_k_stereo_44KHz.wav
2	122	2	1	0	C	2	1	720	1	Ⴁ	cut_u_stereo_44KHz.wav
2	123	3	4	2	I	2	0	1430	1	Ⴡ	cut_o_stereo_44KHz.wav
2	124	4	4	2	I	1	0	1626	1	Ⴇ	cut_o_stereo_44KHz.wav
2	125	3	3	2	I	1	0	1253	1	Ⴡ	cut_a_stereo_44KHz.wav
2	126	4	3	2	I	2	0	1003	1	Ⴇ	cut_a_stereo_44KHz.wav
2	127	1	1	1	C	1	1	997	1	Ⴜ	cut_u_stereo_44KHz.wav
2	128	2	2	1	C	1	1	1002	1	Ⴁ	cut_k_stereo_44KHz.wav
2	129	1	1	1	C	1	1	1187	1	Ⴜ	cut_u_stereo_44KHz.wav
2	130	3	4	2	I	0	0	0	0	Ⴡ	cut_o_stereo_44KHz.wav
2	131	4	4	2	I	1	0	1082	0	Ⴇ	cut_o_stereo_44KHz.wav
2	132	2	1	0	C	2	1	1181	1	Ⴁ	cut_u_stereo_44KHz.wav
2	133	1	2	0	C	2	1	1001	1	Ⴜ	cut_k_stereo_44KHz.wav
2	134	3	3	2	I	1	0	1357	0	Ⴡ	cut_a_stereo_44KHz.wav
2	135	4	3	2	I	2	0	1043	1	Ⴇ	cut_a_stereo_44KHz.wav
2	136	2	2	1	C	1	1	815	1	Ⴁ	cut_k_stereo_44KHz.wav
2	137	1	2	0	C	2	1	935	1	Ⴜ	cut_k_stereo_44KHz.wav
2	138	3	4	2	I	0	0	0	0	Ⴡ	cut_o_stereo_44KHz.wav
2	139	4	3	2	I	2	0	1175	0	Ⴇ	cut_a_stereo_44KHz.wav
2	140	2	1	0	C	2	1	791	1	Ⴁ	cut_u_stereo_44KHz.wav
2	141	1	1	1	C	1	1	1029	1	Ⴜ	cut_u_stereo_44KHz.wav
2	142	4	4	2	I	1	0	1032	0	Ⴇ	cut_o_stereo_44KHz.wav
2	143	3	3	2	I	1	0	1499	0	Ⴡ	cut_a_stereo_44KHz.wav
2	144	2	2	1	C	1	1	1247	1	Ⴁ	cut_k_stereo_44KHz.wav
2	145	4	4	2	I	2	0	1131	1	Ⴇ	cut_o_stereo_44KHz.wav
2	146	2	2	1	C	1	1	987	1	Ⴁ	cut_k_stereo_44KHz.wav
2	147	1	2	0	C	2	1	1305	1	Ⴜ	cut_k_stereo_44KHz.wav
2	148	3	4	2	I	2	0	1213	0	Ⴡ	cut_o_stereo_44KHz.wav
2	149	2	1	0	C	2	1	676	1	Ⴁ	cut_u_stereo_44KHz.wav
2	150	3	3	2	I	1	0	1413	1	Ⴡ	cut_a_stereo_44KHz.wav
2	151	1	1	1	C	1	1	1144	1	Ⴜ	cut_u_stereo_44KHz.wav
2	152	4	3	2	I	2	0	1222	0	Ⴇ	cut_a_stereo_44KHz.wav
2	153	2	2	1	C	1	1	902	1	Ⴁ	cut_k_stereo_44KHz.wav
2	154	4	3	2	I	1	0	1518	1	Ⴇ	cut_a_stereo_44KHz.wav
2	155	1	1	1	C	1	1	1456	1	Ⴜ	cut_u_stereo_44KHz.wav
2	156	3	4	2	I	2	0	963	0	Ⴡ	cut_o_stereo_44KHz.wav
2	157	1	2	0	C	2	1	852	1	Ⴜ	cut_k_stereo_44KHz.wav
2	158	2	1	0	C	2	1	784	1	Ⴁ	cut_u_stereo_44KHz.wav
2	159	4	4	2	I	1	0	1214	1	Ⴇ	cut_o_stereo_44KHz.wav
2	160	3	3	2	I	2	0	1730	0	Ⴡ	cut_a_stereo_44KHz.wav
2	161	2	1	0	C	2	1	819	1	Ⴁ	cut_u_stereo_44KHz.wav
2	162	1	2	0	C	1	0	1435	0	Ⴜ	cut_k_stereo_44KHz.wav
2	163	3	3	2	I	2	0	1635	1	Ⴡ	cut_a_stereo_44KHz.wav
2	164	4	4	2	I	2	0	1068	0	Ⴇ	cut_o_stereo_44KHz.wav
2	165	3	4	2	I	2	0	959	0	Ⴡ	cut_o_stereo_44KHz.wav
2	166	2	2	1	C	1	1	1643	1	Ⴁ	cut_k_stereo_44KHz.wav
2	167	1	1	1	C	0	0	0	0	Ⴜ	cut_u_stereo_44KHz.wav
2	168	4	3	2	I	2	0	1031	0	Ⴇ	cut_a_stereo_44KHz.wav
2	169	1	2	0	C	2	1	778	1	Ⴜ	cut_k_stereo_44KHz.wav
2	170	3	3	2	I	1	0	1617	0	Ⴡ	cut_a_stereo_44KHz.wav
2	171	4	4	2	I	1	0	985	0	Ⴇ	cut_o_stereo_44KHz.wav
2	172	2	1	0	C	0	0	0	0	Ⴁ	cut_u_stereo_44KHz.wav
2	173	1	1	1	C	1	1	1398	1	Ⴜ	cut_u_stereo_44KHz.wav
2	174	4	3	2	I	2	0	1578	1	Ⴇ	cut_a_stereo_44KHz.wav
2	175	3	4	2	I	2	0	1494	0	Ⴡ	cut_o_stereo_44KHz.wav
2	176	2	2	1	C	2	0	727	0	Ⴁ	cut_k_stereo_44KHz.wav
2	177	1	1	1	C	1	1	1409	1	Ⴜ	cut_u_stereo_44KHz.wav
2	178	4	3	2	I	2	0	1203	1	Ⴇ	cut_a_stereo_44KHz.wav
2	179	2	1	0	C	2	1	1653	1	Ⴁ	cut_u_stereo_44KHz.wav
2	180	3	3	2	I	0	0	0	0	Ⴡ	cut_a_stereo_44KHz.wav
2	181	4	4	2	I	2	0	1787	1	Ⴇ	cut_o_stereo_44KHz.wav
2	182	2	2	1	C	1	1	1222	1	Ⴁ	cut_k_stereo_44KHz.wav
2	183	1	2	0	C	2	1	954	1	Ⴜ	cut_k_stereo_44KHz.wav
2	184	3	4	2	I	2	0	1402	1	Ⴡ	cut_o_stereo_44KHz.wav
2	185	1	2	0	C	2	1	1278	1	Ⴜ	cut_k_stereo_44KHz.wav
2	186	3	3	2	I	2	0	896	1	Ⴡ	cut_a_stereo_44KHz.wav
2	187	4	3	2	I	2	0	726	1	Ⴇ	cut_a_stereo_44KHz.wav
2	188	2	1	0	C	2	1	786	1	Ⴁ	cut_u_stereo_44KHz.wav
2	189	4	4	2	I	2	0	878	1	Ⴇ	cut_o_stereo_44KHz.wav
2	190	3	4	2	I	2	0	574	0	Ⴡ	cut_o_stereo_44KHz.wav
2	191	1	1	1	C	2	0	451	0	Ⴜ	cut_u_stereo_44KHz.wav
2	192	2	2	1	C	0	0	0	0	Ⴁ	cut_k_stereo_44KHz.wav
2	193	1	1	1	C	1	1	1665	1	Ⴜ	cut_u_stereo_44KHz.wav
2	194	2	2	1	C	0	0	0	0	Ⴁ	cut_k_stereo_44KHz.wav
2	195	3	4	2	I	2	0	900	0	Ⴡ	cut_o_stereo_44KHz.wav
2	196	4	3	2	I	2	0	1587	0	Ⴇ	cut_a_stereo_44KHz.wav
2	197	1	2	0	C	1	0	792	0	Ⴜ	cut_k_stereo_44KHz.wav
2	198	3	3	2	I	1	0	1311	0	Ⴡ	cut_a_stereo_44KHz.wav
2	199	2	1	0	C	2	1	672	1	Ⴁ	cut_u_stereo_44KHz.wav
2	200	4	4	2	I	2	0	1399	0	Ⴇ	cut_o_stereo_44KHz.wav
3	1	4	4	2	I	0	0	0	0	Ⴂ	cut_h_stereo_44KHz.wav
3	2	3	4	2	I	2	0	829	1	Ⴃ	cut_h_stereo_44KHz.wav
3	3	2	2	1	C	2	0	1504	0	Ⴊ	cut_g_stereo_44KHz.wav
3	4	1	1	1	C	1	1	1387	1	Ⴟ	cut_w_stereo_44KHz.wav
3	5	2	1	0	C	2	1	1100	1	Ⴊ	cut_w_stereo_44KHz.wav
3	6	3	3	2	I	2	0	1643	1	Ⴃ	cut_l_stereo_44KHz.wav
3	7	1	2	0	C	2	1	1543	1	Ⴟ	cut_g_stereo_44KHz.wav
3	8	4	3	2	I	2	0	1457	1	Ⴂ	cut_l_stereo_44KHz.wav
3	9	1	2	0	C	2	1	1639	1	Ⴟ	cut_g_stereo_44KHz.wav
3	10	2	2	1	C	1	1	1258	1	Ⴊ	cut_g_stereo_44KHz.wav
3	11	3	3	2	I	1	0	1808	1	Ⴃ	cut_l_stereo_44KHz.wav
3	12	4	4	2	I	1	0	1633	1	Ⴂ	cut_h_stereo_44KHz.wav
3	13	3	4	2	I	2	0	1204	0	Ⴃ	cut_h_stereo_44KHz.wav
3	14	1	1	1	C	1	1	1104	1	Ⴟ	cut_w_stereo_44KHz.wav
3	15	2	1	0	C	2	1	1092	1	Ⴊ	cut_w_stereo_44KHz.wav
3	16	4	3	2	I	2	0	1299	1	Ⴂ	cut_l_stereo_44KHz.wav
3	17	2	2	1	C	1	1	1128	1	Ⴊ	cut_g_stereo_44KHz.wav
3	18	4	3	2	I	2	0	1210	0	Ⴂ	cut_l_stereo_44KHz.wav
3	19	3	4	2	I	2	0	1780	1	Ⴃ	cut_h_stereo_44KHz.wav
3	20	1	2	0	C	2	1	1558	1	Ⴟ	cut_g_stereo_44KHz.wav
3	21	4	4	2	I	1	0	1665	0	Ⴂ	cut_h_stereo_44KHz.wav
3	22	1	1	1	C	1	1	1048	1	Ⴟ	cut_w_stereo_44KHz.wav
3	23	2	1	0	C	2	1	1059	1	Ⴊ	cut_w_stereo_44KHz.wav
3	24	3	3	2	I	0	0	0	0	Ⴃ	cut_l_stereo_44KHz.wav
3	25	1	1	1	C	1	1	1404	1	Ⴟ	cut_w_stereo_44KHz.wav
3	26	3	3	2	I	1	0	1454	1	Ⴃ	cut_l_stereo_44KHz.wav
3	27	4	4	2	I	1	0	850	0	Ⴂ	cut_h_stereo_44KHz.wav
3	28	2	2	1	C	1	1	851	1	Ⴊ	cut_g_stereo_44KHz.wav
3	29	1	2	0	C	1	0	851	0	Ⴟ	cut_g_stereo_44KHz.wav
3	30	3	4	2	I	1	0	1293	1	Ⴃ	cut_h_stereo_44KHz.wav
3	31	4	3	2	I	2	0	762	0	Ⴂ	cut_l_stereo_44KHz.wav
3	32	2	1	0	C	2	1	1082	1	Ⴊ	cut_w_stereo_44KHz.wav
3	33	1	1	1	C	1	1	822	1	Ⴟ	cut_w_stereo_44KHz.wav
3	34	2	1	0	C	2	1	924	1	Ⴊ	cut_w_stereo_44KHz.wav
3	35	3	3	2	I	1	0	930	0	Ⴃ	cut_l_stereo_44KHz.wav
3	36	4	4	2	I	1	0	791	0	Ⴂ	cut_h_stereo_44KHz.wav
3	37	3	4	2	I	2	0	1364	0	Ⴃ	cut_h_stereo_44KHz.wav
3	38	2	2	1	C	1	1	951	1	Ⴊ	cut_g_stereo_44KHz.wav
3	39	1	2	0	C	1	0	1038	0	Ⴟ	cut_g_stereo_44KHz.wav
3	40	4	3	2	I	2	0	1083	0	Ⴂ	cut_l_stereo_44KHz.wav
3	41	1	1	1	C	1	1	1224	1	Ⴟ	cut_w_stereo_44KHz.wav
3	42	2	2	1	C	1	1	981	1	Ⴊ	cut_g_stereo_44KHz.wav
3	43	3	4	2	I	2	0	1409	0	Ⴃ	cut_h_stereo_44KHz.wav
3	44	4	3	2	I	2	0	962	1	Ⴂ	cut_l_stereo_44KHz.wav
3	45	2	1	0	C	2	1	1234	1	Ⴊ	cut_w_stereo_44KHz.wav
3	46	3	3	2	I	1	0	1060	0	Ⴃ	cut_l_stereo_44KHz.wav
3	47	4	4	2	I	1	0	1119	0	Ⴂ	cut_h_stereo_44KHz.wav
3	48	1	2	0	C	1	0	1647	0	Ⴟ	cut_g_stereo_44KHz.wav
3	49	3	3	2	I	1	0	919	0	Ⴃ	cut_l_stereo_44KHz.wav
3	50	4	4	2	I	1	0	1441	1	Ⴂ	cut_h_stereo_44KHz.wav
3	51	1	2	0	C	2	1	1374	1	Ⴟ	cut_g_stereo_44KHz.wav
3	52	2	2	1	C	1	1	1034	1	Ⴊ	cut_g_stereo_44KHz.wav
3	53	3	4	2	I	2	0	1216	1	Ⴃ	cut_h_stereo_44KHz.wav
3	54	1	1	1	C	1	1	1023	1	Ⴟ	cut_w_stereo_44KHz.wav
3	55	4	3	2	I	2	0	1331	1	Ⴂ	cut_l_stereo_44KHz.wav
3	56	2	1	0	C	2	1	1576	1	Ⴊ	cut_w_stereo_44KHz.wav
3	57	4	4	2	I	1	0	1344	1	Ⴂ	cut_h_stereo_44KHz.wav
3	58	1	1	1	C	1	1	1298	1	Ⴟ	cut_w_stereo_44KHz.wav
3	59	2	1	0	C	2	1	1328	1	Ⴊ	cut_w_stereo_44KHz.wav
3	60	3	3	2	I	1	0	977	1	Ⴃ	cut_l_stereo_44KHz.wav
3	61	4	3	2	I	2	0	867	0	Ⴂ	cut_l_stereo_44KHz.wav
3	62	3	4	2	I	2	0	1771	0	Ⴃ	cut_h_stereo_44KHz.wav
3	63	1	2	0	C	2	1	1718	1	Ⴟ	cut_g_stereo_44KHz.wav
3	64	2	2	1	C	1	1	967	1	Ⴊ	cut_g_stereo_44KHz.wav
3	65	1	2	0	C	2	1	1396	1	Ⴟ	cut_g_stereo_44KHz.wav
3	66	2	2	1	C	1	1	1303	1	Ⴊ	cut_g_stereo_44KHz.wav
3	67	4	4	2	I	2	0	1309	0	Ⴂ	cut_h_stereo_44KHz.wav
3	68	3	3	2	I	2	0	805	0	Ⴃ	cut_l_stereo_44KHz.wav
3	69	1	1	1	C	1	1	963	1	Ⴟ	cut_w_stereo_44KHz.wav
3	70	4	3	2	I	2	0	960	0	Ⴂ	cut_l_stereo_44KHz.wav
3	71	3	4	2	I	2	0	1191	0	Ⴃ	cut_h_stereo_44KHz.wav
3	72	2	1	0	C	2	1	1306	1	Ⴊ	cut_w_stereo_44KHz.wav
3	73	1	2	0	C	2	1	1092	1	Ⴟ	cut_g_stereo_44KHz.wav
3	74	4	3	2	I	1	0	1150	1	Ⴂ	cut_l_stereo_44KHz.wav
3	75	2	2	1	C	2	0	1059	0	Ⴊ	cut_g_stereo_44KHz.wav
3	76	3	4	2	I	2	0	733	0	Ⴃ	cut_h_stereo_44KHz.wav
3	77	2	1	0	C	2	1	1341	1	Ⴊ	cut_w_stereo_44KHz.wav
3	78	4	4	2	I	1	0	1598	1	Ⴂ	cut_h_stereo_44KHz.wav
3	79	3	3	2	I	1	0	1096	0	Ⴃ	cut_l_stereo_44KHz.wav
3	80	1	1	1	C	1	1	1036	1	Ⴟ	cut_w_stereo_44KHz.wav
3	81	4	3	2	I	2	0	762	0	Ⴂ	cut_l_stereo_44KHz.wav
3	82	1	2	0	C	2	1	1359	1	Ⴟ	cut_g_stereo_44KHz.wav
3	83	2	1	0	C	2	1	1077	1	Ⴊ	cut_w_stereo_44KHz.wav
3	84	3	3	2	I	2	0	1520	1	Ⴃ	cut_l_stereo_44KHz.wav
3	85	2	2	1	C	0	0	0	0	Ⴊ	cut_g_stereo_44KHz.wav
3	86	4	4	2	I	2	0	1260	0	Ⴂ	cut_h_stereo_44KHz.wav
3	87	3	4	2	I	2	0	1362	1	Ⴃ	cut_h_stereo_44KHz.wav
3	88	1	1	1	C	1	1	1489	1	Ⴟ	cut_w_stereo_44KHz.wav
3	89	3	4	2	I	2	0	897	0	Ⴃ	cut_h_stereo_44KHz.wav
3	90	2	2	1	C	1	1	1169	1	Ⴊ	cut_g_stereo_44KHz.wav
3	91	1	2	0	C	2	1	1281	1	Ⴟ	cut_g_stereo_44KHz.wav
3	92	4	4	2	I	0	0	0	0	Ⴂ	cut_h_stereo_44KHz.wav
3	93	2	1	0	C	2	1	1075	1	Ⴊ	cut_w_stereo_44KHz.wav
3	94	1	1	1	C	1	1	815	1	Ⴟ	cut_w_stereo_44KHz.wav
3	95	4	3	2	I	2	0	1177	0	Ⴂ	cut_l_stereo_44KHz.wav
3	96	3	3	2	I	0	0	0	0	Ⴃ	cut_l_stereo_44KHz.wav
3	97	1	1	1	C	1	1	996	1	Ⴟ	cut_w_stereo_44KHz.wav
3	98	4	3	2	I	1	0	1831	1	Ⴂ	cut_l_stereo_44KHz.wav
3	99	3	4	2	I	2	0	1252	1	Ⴃ	cut_h_stereo_44KHz.wav
3	100	2	1	0	C	2	1	1346	1	Ⴊ	cut_w_stereo_44KHz.wav
3	101	1	2	0	C	2	1	1112	1	Ⴟ	cut_g_stereo_44KHz.wav
3	102	4	4	2	I	0	0	0	0	Ⴂ	cut_h_stereo_44KHz.wav
3	103	3	3	2	I	1	0	1585	0	Ⴃ	cut_l_stereo_44KHz.wav
3	104	2	2	1	C	1	1	1182	1	Ⴊ	cut_g_stereo_44KHz.wav
3	105	1	1	1	C	1	1	1234	1	Ⴟ	cut_w_stereo_44KHz.wav
3	106	4	3	2	I	2	0	805	0	Ⴂ	cut_l_stereo_44KHz.wav
3	107	2	1	0	C	2	1	753	1	Ⴊ	cut_w_stereo_44KHz.wav
3	108	3	4	2	I	2	0	1341	1	Ⴃ	cut_h_stereo_44KHz.wav
3	109	4	4	2	I	1	0	1574	0	Ⴂ	cut_h_stereo_44KHz.wav
3	110	1	2	0	C	2	1	1097	1	Ⴟ	cut_g_stereo_44KHz.wav
3	111	3	3	2	I	1	0	1935	0	Ⴃ	cut_l_stereo_44KHz.wav
3	112	2	2	1	C	2	0	897	0	Ⴊ	cut_g_stereo_44KHz.wav
3	113	1	2	0	C	2	1	830	1	Ⴟ	cut_g_stereo_44KHz.wav
3	114	2	2	1	C	1	1	1241	1	Ⴊ	cut_g_stereo_44KHz.wav
3	115	3	3	2	I	2	0	1459	1	Ⴃ	cut_l_stereo_44KHz.wav
3	116	4	3	2	I	1	0	1204	0	Ⴂ	cut_l_stereo_44KHz.wav
3	117	3	4	2	I	1	0	956	0	Ⴃ	cut_h_stereo_44KHz.wav
3	118	1	1	1	C	1	1	976	1	Ⴟ	cut_w_stereo_44KHz.wav
3	119	2	1	0	C	2	1	1070	1	Ⴊ	cut_w_stereo_44KHz.wav
3	120	4	4	2	I	2	0	1405	1	Ⴂ	cut_h_stereo_44KHz.wav
3	121	1	2	0	C	2	1	955	1	Ⴟ	cut_g_stereo_44KHz.wav
3	122	4	4	2	I	1	0	1379	1	Ⴂ	cut_h_stereo_44KHz.wav
3	123	3	3	2	I	2	0	957	0	Ⴃ	cut_l_stereo_44KHz.wav
3	124	2	1	0	C	2	1	834	1	Ⴊ	cut_w_stereo_44KHz.wav
3	125	4	3	2	I	1	0	848	0	Ⴂ	cut_l_stereo_44KHz.wav
3	126	2	2	1	C	0	0	0	0	Ⴊ	cut_g_stereo_44KHz.wav
3	127	3	4	2	I	2	0	1156	1	Ⴃ	cut_h_stereo_44KHz.wav
3	128	1	1	1	C	1	1	1455	1	Ⴟ	cut_w_stereo_44KHz.wav
3	129	2	2	1	C	1	1	1017	1	Ⴊ	cut_g_stereo_44KHz.wav
3	130	1	2	0	C	2	1	1348	1	Ⴟ	cut_g_stereo_44KHz.wav
3	131	4	4	2	I	2	0	1347	1	Ⴂ	cut_h_stereo_44KHz.wav
3	132	3	4	2	I	1	0	946	1	Ⴃ	cut_h_stereo_44KHz.wav
3	133	2	1	0	C	2	1	867	1	Ⴊ	cut_w_stereo_44KHz.wav
3	134	4	3	2	I	2	0	1342	1	Ⴂ	cut_l_stereo_44KHz.wav
3	135	3	3	2	I	1	0	1057	1	Ⴃ	cut_l_stereo_44KHz.wav
3	136	1	1	1	C	1	1	1180	1	Ⴟ	cut_w_stereo_44KHz.wav
3	137	2	2	1	C	1	1	1549	1	Ⴊ	cut_g_stereo_44KHz.wav
3	138	3	3	2	I	2	0	1173	1	Ⴃ	cut_l_stereo_44KHz.wav
3	139	1	1	1	C	1	1	1156	1	Ⴟ	cut_w_stereo_44KHz.wav
3	140	4	4	2	I	1	0	1958	1	Ⴂ	cut_h_stereo_44KHz.wav
3	141	1	2	0	C	2	1	1148	1	Ⴟ	cut_g_stereo_44KHz.wav
3	142	3	4	2	I	1	0	1071	0	Ⴃ	cut_h_stereo_44KHz.wav
3	143	2	1	0	C	2	1	745	1	Ⴊ	cut_w_stereo_44KHz.wav
3	144	4	3	2	I	1	0	1809	0	Ⴂ	cut_l_stereo_44KHz.wav
3	145	2	1	0	C	2	1	983	1	Ⴊ	cut_w_stereo_44KHz.wav
3	146	3	3	2	I	0	0	0	0	Ⴃ	cut_l_stereo_44KHz.wav
3	147	1	2	0	C	2	1	1094	1	Ⴟ	cut_g_stereo_44KHz.wav
3	148	4	3	2	I	2	0	1262	0	Ⴂ	cut_l_stereo_44KHz.wav
3	149	1	1	1	C	1	1	998	1	Ⴟ	cut_w_stereo_44KHz.wav
3	150	3	4	2	I	2	0	1942	0	Ⴃ	cut_h_stereo_44KHz.wav
3	151	4	4	2	I	0	0	0	0	Ⴂ	cut_h_stereo_44KHz.wav
3	152	2	2	1	C	0	0	0	0	Ⴊ	cut_g_stereo_44KHz.wav
3	153	3	3	2	I	0	0	0	0	Ⴃ	cut_l_stereo_44KHz.wav
3	154	4	4	2	I	1	0	1037	1	Ⴂ	cut_h_stereo_44KHz.wav
3	155	1	2	0	C	2	1	1057	1	Ⴟ	cut_g_stereo_44KHz.wav
3	156	2	1	0	C	2	1	764	1	Ⴊ	cut_w_stereo_44KHz.wav
3	157	3	4	2	I	1	0	929	1	Ⴃ	cut_h_stereo_44KHz.wav
3	158	2	2	1	C	1	1	1023	1	Ⴊ	cut_g_stereo_44KHz.wav
3	159	1	1	1	C	1	1	1020	1	Ⴟ	cut_w_stereo_44KHz.wav
3	160	4	3	2	I	2	0	1447	1	Ⴂ	cut_l_stereo_44KHz.wav
3	161	1	1	1	C	1	1	930	1	Ⴟ	cut_w_stereo_44KHz.wav
3	162	3	4	2	I	2	0	1156	0	Ⴃ	cut_h_stereo_44KHz.wav
3	163	2	2	1	C	2	0	744	0	Ⴊ	cut_g_stereo_44KHz.wav
3	164	4	4	2	I	1	0	1462	1	Ⴂ	cut_h_stereo_44KHz.wav
3	165	3	3	2	I	1	0	1402	0	Ⴃ	cut_l_stereo_44KHz.wav
3	166	4	3	2	I	1	0	1268	1	Ⴂ	cut_l_stereo_44KHz.wav
3	167	2	1	0	C	2	1	1241	1	Ⴊ	cut_w_stereo_44KHz.wav
3	168	1	2	0	C	2	1	974	1	Ⴟ	cut_g_stereo_44KHz.wav
3	169	3	3	2	I	2	0	1303	1	Ⴃ	cut_l_stereo_44KHz.wav
3	170	4	4	2	I	2	0	1679	0	Ⴂ	cut_h_stereo_44KHz.wav
3	171	1	1	1	C	1	1	1131	1	Ⴟ	cut_w_stereo_44KHz.wav
3	172	2	1	0	C	2	1	860	1	Ⴊ	cut_w_stereo_44KHz.wav
3	173	4	3	2	I	1	0	1147	0	Ⴂ	cut_l_stereo_44KHz.wav
3	174	3	4	2	I	2	0	1420	1	Ⴃ	cut_h_stereo_44KHz.wav
3	175	1	2	0	C	2	1	976	1	Ⴟ	cut_g_stereo_44KHz.wav
3	176	2	2	1	C	1	1	1568	1	Ⴊ	cut_g_stereo_44KHz.wav
3	177	1	2	0	C	2	1	962	1	Ⴟ	cut_g_stereo_44KHz.wav
3	178	2	2	1	C	1	1	1479	1	Ⴊ	cut_g_stereo_44KHz.wav
3	179	3	3	2	I	2	0	1096	0	Ⴃ	cut_l_stereo_44KHz.wav
3	180	4	3	2	I	1	0	1073	1	Ⴂ	cut_l_stereo_44KHz.wav
3	181	3	4	2	I	0	0	0	0	Ⴃ	cut_h_stereo_44KHz.wav
3	182	1	1	1	C	1	1	932	1	Ⴟ	cut_w_stereo_44KHz.wav
3	183	2	1	0	C	2	1	882	1	Ⴊ	cut_w_stereo_44KHz.wav
3	184	4	4	2	I	2	0	1296	0	Ⴂ	cut_h_stereo_44KHz.wav
3	185	3	4	2	I	1	0	837	1	Ⴃ	cut_h_stereo_44KHz.wav
3	186	4	4	2	I	1	0	1093	0	Ⴂ	cut_h_stereo_44KHz.wav
3	187	1	1	1	C	0	0	0	0	Ⴟ	cut_w_stereo_44KHz.wav
3	188	2	2	1	C	1	1	1481	1	Ⴊ	cut_g_stereo_44KHz.wav
3	189	4	3	2	I	2	0	1584	1	Ⴂ	cut_l_stereo_44KHz.wav
3	190	3	3	2	I	1	0	1054	1	Ⴃ	cut_l_stereo_44KHz.wav
3	191	1	2	0	C	2	1	879	1	Ⴟ	cut_g_stereo_44KHz.wav
3	192	2	1	0	C	1	0	764	0	Ⴊ	cut_w_stereo_44KHz.wav
3	193	3	3	2	I	2	0	887	1	Ⴃ	cut_l_stereo_44KHz.wav
3	194	4	4	2	I	2	0	1014	0	Ⴂ	cut_h_stereo_44KHz.wav
3	195	2	1	0	C	2	1	1093	1	Ⴊ	cut_w_stereo_44KHz.wav
3	196	1	2	0	C	2	1	975	1	Ⴟ	cut_g_stereo_44KHz.wav
3	197	2	2	1	C	1	1	1302	1	Ⴊ	cut_g_stereo_44KHz.wav
3	198	1	1	1	C	1	1	972	1	Ⴟ	cut_w_stereo_44KHz.wav
3	199	3	4	2	I	2	0	1339	0	Ⴃ	cut_h_stereo_44KHz.wav
3	200	4	3	2	I	2	0	1687	1	Ⴂ	cut_l_stereo_44KHz.wav
4	1	2	2	1	C	0	0	0	0	Ⴌ	cut_oei_stereo_44KHz.wav
4	2	3	3	2	I	2	0	1280	1	Ⴕ	cut_r_stereo_44KHz.wav
4	3	1	2	0	C	2	1	1574	1	Ⴖ	cut_oei_stereo_44KHz.wav
4	4	4	3	2	I	2	0	1373	0	Ⴏ	cut_r_stereo_44KHz.wav
4	5	1	1	1	C	2	0	995	0	Ⴖ	cut_ei_stereo_44KHz.wav
4	6	4	4	2	I	2	0	1176	1	Ⴏ	cut_f_stereo_44KHz.wav
4	7	2	1	0	C	2	1	1080	1	Ⴌ	cut_ei_stereo_44KHz.wav
4	8	3	4	2	I	0	0	0	0	Ⴕ	cut_f_stereo_44KHz.wav
4	9	4	4	2	I	2	0	740	1	Ⴏ	cut_f_stereo_44KHz.wav
4	10	1	1	1	C	2	0	1477	0	Ⴖ	cut_ei_stereo_44KHz.wav
4	11	2	2	1	C	2	0	1124	0	Ⴌ	cut_oei_stereo_44KHz.wav
4	12	3	3	2	I	2	0	907	0	Ⴕ	cut_r_stereo_44KHz.wav
4	13	4	3	2	I	2	0	1661	0	Ⴏ	cut_r_stereo_44KHz.wav
4	14	1	2	0	C	1	0	1155	0	Ⴖ	cut_oei_stereo_44KHz.wav
4	15	2	1	0	C	1	0	1645	0	Ⴌ	cut_ei_stereo_44KHz.wav
4	16	3	4	2	I	1	0	1116	0	Ⴕ	cut_f_stereo_44KHz.wav
4	17	1	2	0	C	2	1	988	1	Ⴖ	cut_oei_stereo_44KHz.wav
4	18	4	4	2	I	2	0	828	0	Ⴏ	cut_f_stereo_44KHz.wav
4	19	3	4	2	I	1	0	1149	0	Ⴕ	cut_f_stereo_44KHz.wav
4	20	2	2	1	C	1	1	1160	1	Ⴌ	cut_oei_stereo_44KHz.wav
4	21	3	3	2	I	2	0	1283	0	Ⴕ	cut_r_stereo_44KHz.wav
4	22	1	1	1	C	0	0	0	0	Ⴖ	cut_ei_stereo_44KHz.wav
4	23	4	3	2	I	1	0	870	1	Ⴏ	cut_r_stereo_44KHz.wav
4	24	2	1	0	C	1	0	867	0	Ⴌ	cut_ei_stereo_44KHz.wav
4	25	4	3	2	I	1	0	714	1	Ⴏ	cut_r_stereo_44KHz.wav
4	26	1	2	0	C	2	1	725	1	Ⴖ	cut_oei_stereo_44KHz.wav
4	27	2	2	1	C	1	1	969	1	Ⴌ	cut_oei_stereo_44KHz.wav
4	28	3	3	2	I	2	0	1111	0	Ⴕ	cut_r_stereo_44KHz.wav
4	29	1	1	1	C	1	1	791	1	Ⴖ	cut_ei_stereo_44KHz.wav
4	30	3	4	2	I	1	0	889	0	Ⴕ	cut_f_stereo_44KHz.wav
4	31	4	4	2	I	2	0	1194	1	Ⴏ	cut_f_stereo_44KHz.wav
4	32	2	1	0	C	2	1	1315	1	Ⴌ	cut_ei_stereo_44KHz.wav
4	33	1	2	0	C	2	1	769	1	Ⴖ	cut_oei_stereo_44KHz.wav
4	34	2	2	1	C	2	0	1291	0	Ⴌ	cut_oei_stereo_44KHz.wav
4	35	3	3	2	I	2	0	1691	0	Ⴕ	cut_r_stereo_44KHz.wav
4	36	4	4	2	I	2	0	758	1	Ⴏ	cut_f_stereo_44KHz.wav
4	37	2	1	0	C	1	0	1191	0	Ⴌ	cut_ei_stereo_44KHz.wav
4	38	1	1	1	C	1	1	823	1	Ⴖ	cut_ei_stereo_44KHz.wav
4	39	3	4	2	I	2	0	1027	0	Ⴕ	cut_f_stereo_44KHz.wav
4	40	4	3	2	I	0	0	0	0	Ⴏ	cut_r_stereo_44KHz.wav
4	41	1	2	0	C	2	1	768	1	Ⴖ	cut_oei_stereo_44KHz.wav
4	42	4	4	2	I	2	0	729	1	Ⴏ	cut_f_stereo_44KHz.wav
4	43	3	4	2	I	2	0	772	1	Ⴕ	cut_f_stereo_44KHz.wav
4	44	2	2	1	C	1	1	876	1	Ⴌ	cut_oei_stereo_44KHz.wav
4	45	4	3	2	I	1	0	1234	0	Ⴏ	cut_r_stereo_44KHz.wav
4	46	3	3	2	I	1	0	1388	0	Ⴕ	cut_r_stereo_44KHz.wav
4	47	1	1	1	C	1	1	875	1	Ⴖ	cut_ei_stereo_44KHz.wav
4	48	2	1	0	C	1	0	690	0	Ⴌ	cut_ei_stereo_44KHz.wav
4	49	4	3	2	I	1	0	1082	1	Ⴏ	cut_r_stereo_44KHz.wav
4	50	2	2	1	C	1	1	1086	1	Ⴌ	cut_oei_stereo_44KHz.wav
4	51	1	1	1	C	1	1	782	1	Ⴖ	cut_ei_stereo_44KHz.wav
4	52	3	4	2	I	1	0	928	0	Ⴕ	cut_f_stereo_44KHz.wav
4	53	4	4	2	I	2	0	1683	0	Ⴏ	cut_f_stereo_44KHz.wav
4	54	1	2	0	C	2	1	1183	1	Ⴖ	cut_oei_stereo_44KHz.wav
4	55	2	1	0	C	2	1	1457	1	Ⴌ	cut_ei_stereo_44KHz.wav
4	56	3	3	2	I	2	0	1887	1	Ⴕ	cut_r_stereo_44KHz.wav
4	57	2	1	0	C	2	1	1076	1	Ⴌ	cut_ei_stereo_44KHz.wav
4	58	3	3	2	I	1	0	821	1	Ⴕ	cut_r_stereo_44KHz.wav
4	59	1	1	1	C	1	1	887	1	Ⴖ	cut_ei_stereo_44KHz.wav
4	60	4	4	2	I	2	0	848	0	Ⴏ	cut_f_stereo_44KHz.wav
4	61	1	2	0	C	2	1	843	1	Ⴖ	cut_oei_stereo_44KHz.wav
4	62	2	2	1	C	1	1	768	1	Ⴌ	cut_oei_stereo_44KHz.wav
4	63	4	3	2	I	2	0	1138	1	Ⴏ	cut_r_stereo_44KHz.wav
4	64	3	4	2	I	2	0	941	1	Ⴕ	cut_f_stereo_44KHz.wav
4	65	1	1	1	C	1	1	973	1	Ⴖ	cut_ei_stereo_44KHz.wav
4	66	2	1	0	C	2	1	723	1	Ⴌ	cut_ei_stereo_44KHz.wav
4	67	4	4	2	I	1	0	1364	1	Ⴏ	cut_f_stereo_44KHz.wav
4	68	3	4	2	I	2	0	1322	1	Ⴕ	cut_f_stereo_44KHz.wav
4	69	2	2	1	C	1	1	1263	1	Ⴌ	cut_oei_stereo_44KHz.wav
4	70	1	2	0	C	2	1	1152	1	Ⴖ	cut_oei_stereo_44KHz.wav
4	71	3	3	2	I	1	0	953	1	Ⴕ	cut_r_stereo_44KHz.wav
4	72	4	3	2	I	1	0	1090	0	Ⴏ	cut_r_stereo_44KHz.wav
4	73	1	2	0	C	2	1	775	1	Ⴖ	cut_oei_stereo_44KHz.wav
4	74	4	4	2	I	2	0	962	0	Ⴏ	cut_f_stereo_44KHz.wav
4	75	3	4	2	I	1	0	576	0	Ⴕ	cut_f_stereo_44KHz.wav
4	76	2	2	1	C	1	1	1240	1	Ⴌ	cut_oei_stereo_44KHz.wav
4	77	3	3	2	I	1	0	1568	0	Ⴕ	cut_r_stereo_44KHz.wav
4	78	1	1	1	C	1	1	1096	1	Ⴖ	cut_ei_stereo_44KHz.wav
4	79	2	1	0	C	2	1	964	1	Ⴌ	cut_ei_stereo_44KHz.wav
4	80	4	3	2	I	1	0	1027	1	Ⴏ	cut_r_stereo_44KHz.wav
4	81	1	2	0	C	2	1	1267	1	Ⴖ	cut_oei_stereo_44KHz.wav
4	82	2	1	0	C	2	1	789	1	Ⴌ	cut_ei_stereo_44KHz.wav
4	83	3	3	2	I	2	0	1107	1	Ⴕ	cut_r_stereo_44KHz.wav
4	84	4	4	2	I	2	0	855	0	Ⴏ	cut_f_stereo_44KHz.wav
4	85	2	2	1	C	1	1	1117	1	Ⴌ	cut_oei_stereo_44KHz.wav
4	86	4	3	2	I	0	0	0	0	Ⴏ	cut_r_stereo_44KHz.wav
4	87	1	1	1	C	1	1	1154	1	Ⴖ	cut_ei_stereo_44KHz.wav
4	88	3	4	2	I	2	0	969	0	Ⴕ	cut_f_stereo_44KHz.wav
4	89	4	3	2	I	0	0	0	0	Ⴏ	cut_r_stereo_44KHz.wav
4	90	3	3	2	I	2	0	1129	0	Ⴕ	cut_r_stereo_44KHz.wav
4	91	1	1	1	C	2	0	757	0	Ⴖ	cut_ei_stereo_44KHz.wav
4	92	2	2	1	C	1	1	1067	1	Ⴌ	cut_oei_stereo_44KHz.wav
4	93	3	4	2	I	2	0	1021	0	Ⴕ	cut_f_stereo_44KHz.wav
4	94	4	4	2	I	2	0	889	0	Ⴏ	cut_f_stereo_44KHz.wav
4	95	1	2	0	C	2	1	1178	1	Ⴖ	cut_oei_stereo_44KHz.wav
4	96	2	1	0	C	2	1	1140	1	Ⴌ	cut_ei_stereo_44KHz.wav
4	97	4	3	2	I	2	0	1101	1	Ⴏ	cut_r_stereo_44KHz.wav
4	98	2	2	1	C	1	1	1626	1	Ⴌ	cut_oei_stereo_44KHz.wav
4	99	1	2	0	C	2	1	947	1	Ⴖ	cut_oei_stereo_44KHz.wav
4	100	3	4	2	I	0	0	0	0	Ⴕ	cut_f_stereo_44KHz.wav
4	101	1	1	1	C	1	1	1483	1	Ⴖ	cut_ei_stereo_44KHz.wav
4	102	2	1	0	C	2	1	869	1	Ⴌ	cut_ei_stereo_44KHz.wav
4	103	3	3	2	I	2	0	1018	1	Ⴕ	cut_r_stereo_44KHz.wav
4	104	4	4	2	I	1	0	946	1	Ⴏ	cut_f_stereo_44KHz.wav
4	105	2	1	0	C	2	1	872	1	Ⴌ	cut_ei_stereo_44KHz.wav
4	106	3	4	2	I	2	0	1159	1	Ⴕ	cut_f_stereo_44KHz.wav
4	107	1	2	0	C	2	1	839	1	Ⴖ	cut_oei_stereo_44KHz.wav
4	108	4	4	2	I	2	0	662	1	Ⴏ	cut_f_stereo_44KHz.wav
4	109	1	1	1	C	1	1	953	1	Ⴖ	cut_ei_stereo_44KHz.wav
4	110	2	2	1	C	1	1	1077	1	Ⴌ	cut_oei_stereo_44KHz.wav
4	111	3	3	2	I	2	0	930	1	Ⴕ	cut_r_stereo_44KHz.wav
4	112	4	3	2	I	1	0	1369	1	Ⴏ	cut_r_stereo_44KHz.wav
4	113	2	2	1	C	1	1	1441	1	Ⴌ	cut_oei_stereo_44KHz.wav
4	114	1	1	1	C	1	1	941	1	Ⴖ	cut_ei_stereo_44KHz.wav
4	115	3	3	2	I	2	0	1231	1	Ⴕ	cut_r_stereo_44KHz.wav
4	116	4	3	2	I	0	0	0	0	Ⴏ	cut_r_stereo_44KHz.wav
4	117	3	4	2	I	2	0	1298	0	Ⴕ	cut_f_stereo_44KHz.wav
4	118	2	1	0	C	2	1	934	1	Ⴌ	cut_ei_stereo_44KHz.wav
4	119	4	4	2	I	1	0	794	0	Ⴏ	cut_f_stereo_44KHz.wav
4	120	1	2	0	C	2	1	1046	1	Ⴖ	cut_oei_stereo_44KHz.wav
4	121	4	4	2	I	2	0	1350	1	Ⴏ	cut_f_stereo_44KHz.wav
4	122	1	1	1	C	1	1	971	1	Ⴖ	cut_ei_stereo_44KHz.wav
4	123	3	3	2	I	1	0	1482	1	Ⴕ	cut_r_stereo_44KHz.wav
4	124	2	1	0	C	2	1	1017	1	Ⴌ	cut_ei_stereo_44KHz.wav
4	125	1	2	0	C	2	1	1183	1	Ⴖ	cut_oei_stereo_44KHz.wav
4	126	3	4	2	I	1	0	908	0	Ⴕ	cut_f_stereo_44KHz.wav
4	127	4	3	2	I	2	0	1786	0	Ⴏ	cut_r_stereo_44KHz.wav
4	128	2	2	1	C	1	1	888	1	Ⴌ	cut_oei_stereo_44KHz.wav
4	129	1	2	0	C	2	1	1032	1	Ⴖ	cut_oei_stereo_44KHz.wav
4	130	2	2	1	C	1	1	1121	1	Ⴌ	cut_oei_stereo_44KHz.wav
4	131	3	4	2	I	1	0	1484	1	Ⴕ	cut_f_stereo_44KHz.wav
4	132	4	3	2	I	2	0	1104	1	Ⴏ	cut_r_stereo_44KHz.wav
4	133	1	1	1	C	1	1	1231	1	Ⴖ	cut_ei_stereo_44KHz.wav
4	134	3	3	2	I	2	0	1821	0	Ⴕ	cut_r_stereo_44KHz.wav
4	135	2	1	0	C	2	1	941	1	Ⴌ	cut_ei_stereo_44KHz.wav
4	136	4	4	2	I	2	0	859	0	Ⴏ	cut_f_stereo_44KHz.wav
4	137	1	1	1	C	1	1	1513	1	Ⴖ	cut_ei_stereo_44KHz.wav
4	138	4	4	2	I	2	0	1575	0	Ⴏ	cut_f_stereo_44KHz.wav
4	139	3	4	2	I	2	0	1151	1	Ⴕ	cut_f_stereo_44KHz.wav
4	140	2	1	0	C	2	1	861	1	Ⴌ	cut_ei_stereo_44KHz.wav
4	141	3	3	2	I	2	0	1214	1	Ⴕ	cut_r_stereo_44KHz.wav
4	142	2	2	1	C	1	1	1065	1	Ⴌ	cut_oei_stereo_44KHz.wav
4	143	4	3	2	I	2	0	933	1	Ⴏ	cut_r_stereo_44KHz.wav
4	144	1	2	0	C	1	0	1478	0	Ⴖ	cut_oei_stereo_44KHz.wav
4	145	2	1	0	C	2	1	1134	1	Ⴌ	cut_ei_stereo_44KHz.wav
4	146	4	4	2	I	2	0	959	1	Ⴏ	cut_f_stereo_44KHz.wav
4	147	1	1	1	C	1	1	935	1	Ⴖ	cut_ei_stereo_44KHz.wav
4	148	3	4	2	I	2	0	1210	0	Ⴕ	cut_f_stereo_44KHz.wav
4	149	1	2	0	C	2	1	822	1	Ⴖ	cut_oei_stereo_44KHz.wav
4	150	3	3	2	I	1	0	1123	0	Ⴕ	cut_r_stereo_44KHz.wav
4	151	2	2	1	C	1	1	1904	1	Ⴌ	cut_oei_stereo_44KHz.wav
4	152	4	3	2	I	0	0	0	0	Ⴏ	cut_r_stereo_44KHz.wav
4	153	1	2	0	C	2	1	965	1	Ⴖ	cut_oei_stereo_44KHz.wav
4	154	3	3	2	I	1	0	1360	0	Ⴕ	cut_r_stereo_44KHz.wav
4	155	2	1	0	C	2	1	876	1	Ⴌ	cut_ei_stereo_44KHz.wav
4	156	4	4	2	I	2	0	1735	0	Ⴏ	cut_f_stereo_44KHz.wav
4	157	1	1	1	C	1	1	898	1	Ⴖ	cut_ei_stereo_44KHz.wav
4	158	3	4	2	I	2	0	1328	1	Ⴕ	cut_f_stereo_44KHz.wav
4	159	2	2	1	C	0	0	0	0	Ⴌ	cut_oei_stereo_44KHz.wav
4	160	4	3	2	I	2	0	1959	0	Ⴏ	cut_r_stereo_44KHz.wav
4	161	2	2	1	C	1	1	1200	1	Ⴌ	cut_oei_stereo_44KHz.wav
4	162	1	1	1	C	2	0	1120	0	Ⴖ	cut_ei_stereo_44KHz.wav
4	163	3	3	2	I	0	0	0	0	Ⴕ	cut_r_stereo_44KHz.wav
4	164	4	4	2	I	2	0	1225	1	Ⴏ	cut_f_stereo_44KHz.wav
4	165	1	2	0	C	2	1	1276	1	Ⴖ	cut_oei_stereo_44KHz.wav
4	166	2	1	0	C	2	1	995	1	Ⴌ	cut_ei_stereo_44KHz.wav
4	167	4	3	2	I	1	0	1057	0	Ⴏ	cut_r_stereo_44KHz.wav
4	168	3	4	2	I	2	0	931	1	Ⴕ	cut_f_stereo_44KHz.wav
4	169	1	2	0	C	2	1	1039	1	Ⴖ	cut_oei_stereo_44KHz.wav
4	170	3	3	2	I	2	0	1397	1	Ⴕ	cut_r_stereo_44KHz.wav
4	171	4	3	2	I	1	0	1141	0	Ⴏ	cut_r_stereo_44KHz.wav
4	172	2	2	1	C	1	1	1012	1	Ⴌ	cut_oei_stereo_44KHz.wav
4	173	1	1	1	C	1	1	935	1	Ⴖ	cut_ei_stereo_44KHz.wav
4	174	3	4	2	I	2	0	1405	0	Ⴕ	cut_f_stereo_44KHz.wav
4	175	4	4	2	I	2	0	751	1	Ⴏ	cut_f_stereo_44KHz.wav
4	176	2	1	0	C	2	1	996	1	Ⴌ	cut_ei_stereo_44KHz.wav
4	177	3	4	2	I	1	0	1206	1	Ⴕ	cut_f_stereo_44KHz.wav
4	178	2	1	0	C	2	1	1273	1	Ⴌ	cut_ei_stereo_44KHz.wav
4	179	4	4	2	I	1	0	1541	0	Ⴏ	cut_f_stereo_44KHz.wav
4	180	1	1	1	C	2	0	1618	0	Ⴖ	cut_ei_stereo_44KHz.wav
4	181	4	3	2	I	2	0	1789	0	Ⴏ	cut_r_stereo_44KHz.wav
4	182	3	3	2	I	1	0	761	1	Ⴕ	cut_r_stereo_44KHz.wav
4	183	1	2	0	C	2	1	1112	1	Ⴖ	cut_oei_stereo_44KHz.wav
4	184	2	2	1	C	1	1	1068	1	Ⴌ	cut_oei_stereo_44KHz.wav
4	185	4	4	2	I	2	0	1038	1	Ⴏ	cut_f_stereo_44KHz.wav
4	186	2	1	0	C	2	1	907	1	Ⴌ	cut_ei_stereo_44KHz.wav
4	187	1	2	0	C	2	1	984	1	Ⴖ	cut_oei_stereo_44KHz.wav
4	188	3	4	2	I	1	0	1197	0	Ⴕ	cut_f_stereo_44KHz.wav
4	189	1	1	1	C	2	0	895	0	Ⴖ	cut_ei_stereo_44KHz.wav
4	190	4	3	2	I	1	0	1052	0	Ⴏ	cut_r_stereo_44KHz.wav
4	191	3	3	2	I	2	0	1002	1	Ⴕ	cut_r_stereo_44KHz.wav
4	192	2	2	1	C	1	1	1650	1	Ⴌ	cut_oei_stereo_44KHz.wav
4	193	3	4	2	I	2	0	1766	1	Ⴕ	cut_f_stereo_44KHz.wav
4	194	2	2	1	C	1	1	1220	1	Ⴌ	cut_oei_stereo_44KHz.wav
4	195	4	4	2	I	0	0	0	0	Ⴏ	cut_f_stereo_44KHz.wav
4	196	1	2	0	C	2	1	977	1	Ⴖ	cut_oei_stereo_44KHz.wav
4	197	4	3	2	I	1	0	1117	0	Ⴏ	cut_r_stereo_44KHz.wav
4	198	3	3	2	I	2	0	792	0	Ⴕ	cut_r_stereo_44KHz.wav
4	199	1	1	1	C	1	1	793	1	Ⴖ	cut_ei_stereo_44KHz.wav
4	200	2	1	0	C	2	1	914	1	Ⴌ	cut_ei_stereo_44KHz.wav
