block	trial	Vstim	Astim	match	C/I	resp	result	RT	fb	V-file	A-file
LR

0	1	1	2	0	C	0	0	0	0	Ⴢ	cut_oo_stereo_44KHz.wav
0	2	1	1	1	C	1	0	1323	0	Ⴢ	cut_eeuw_stereo_44KHz.wav
0	3	2	3	1	C	1	0	1403	0	Ⴉ	cut_g_stereo_44KHz.wav
0	4	2	4	0	C	1	1	1611	1	Ⴉ	cut_ee_stereo_44KHz.wav
0	5	2	4	0	C	0	0	0	0	Ⴉ	cut_ee_stereo_44KHz.wav
0	6	2	3	1	C	1	0	1077	0	Ⴉ	cut_g_stereo_44KHz.wav
0	7	1	2	0	C	2	0	953	0	Ⴢ	cut_oo_stereo_44KHz.wav
0	8	1	1	1	C	2	1	623	1	Ⴢ	cut_eeuw_stereo_44KHz.wav
0	9	1	1	1	C	0	0	0	0	Ⴢ	cut_eeuw_stereo_44KHz.wav
0	10	1	2	0	C	1	1	1211	1	Ⴢ	cut_oo_stereo_44KHz.wav
0	11	2	4	0	C	1	1	1602	1	Ⴉ	cut_ee_stereo_44KHz.wav
0	12	2	3	1	C	1	0	977	0	Ⴉ	cut_g_stereo_44KHz.wav
0	13	2	4	0	C	2	0	1046	0	Ⴉ	cut_ee_stereo_44KHz.wav
0	14	1	2	0	C	1	1	451	1	Ⴢ	cut_oo_stereo_44KHz.wav
0	15	1	1	1	C	2	1	1770	1	Ⴢ	cut_eeuw_stereo_44KHz.wav
0	16	2	3	1	C	0	0	0	0	Ⴉ	cut_g_stereo_44KHz.wav
0	17	2	3	1	C	2	1	1317	1	Ⴉ	cut_g_stereo_44KHz.wav
0	18	1	2	0	C	2	0	1659	0	Ⴢ	cut_oo_stereo_44KHz.wav
0	19	2	4	0	C	2	0	1543	0	Ⴉ	cut_ee_stereo_44KHz.wav
0	20	1	1	1	C	0	0	0	0	Ⴢ	cut_eeuw_stereo_44KHz.wav
0	21	1	2	0	C	1	1	944	1	Ⴢ	cut_oo_stereo_44KHz.wav
0	22	2	3	1	C	2	1	953	1	Ⴉ	cut_g_stereo_44KHz.wav
0	23	1	1	1	C	1	0	1437	0	Ⴢ	cut_eeuw_stereo_44KHz.wav
0	24	2	4	0	C	1	1	1404	1	Ⴉ	cut_ee_stereo_44KHz.wav
0	25	2	3	1	C	2	1	1071	1	Ⴉ	cut_g_stereo_44KHz.wav
0	26	1	1	1	C	2	1	1322	1	Ⴢ	cut_eeuw_stereo_44KHz.wav
0	27	2	4	0	C	1	1	1834	1	Ⴉ	cut_ee_stereo_44KHz.wav
0	28	1	2	0	C	2	0	764	0	Ⴢ	cut_oo_stereo_44KHz.wav
0	29	1	2	0	C	1	1	1216	1	Ⴢ	cut_oo_stereo_44KHz.wav
0	30	1	1	1	C	2	1	737	1	Ⴢ	cut_eeuw_stereo_44KHz.wav
avg_resp = 1204
1	1	4	4	2	I	1	0	1702	1	Ⴏ	cut_w_stereo_44KHz.wav
1	2	1	1	1	C	2	1	1022	1	Ⴒ	cut_h_stereo_44KHz.wav
1	3	3	3	2	I	2	0	897	1	Ⴐ	cut_g_stereo_44KHz.wav
1	4	2	2	1	C	1	0	1550	0	Ⴔ	cut_l_stereo_44KHz.wav
1	5	4	3	2	I	1	0	1511	1	Ⴏ	cut_g_stereo_44KHz.wav
1	6	2	1	0	C	1	1	1571	1	Ⴔ	cut_h_stereo_44KHz.wav
1	7	3	4	2	I	2	0	1964	0	Ⴐ	cut_w_stereo_44KHz.wav
1	8	1	2	0	C	2	0	1418	0	Ⴒ	cut_l_stereo_44KHz.wav
1	9	3	3	2	I	1	0	1820	1	Ⴐ	cut_g_stereo_44KHz.wav
1	10	1	1	1	C	1	0	1653	0	Ⴒ	cut_h_stereo_44KHz.wav
1	11	4	3	2	I	2	0	1640	1	Ⴏ	cut_g_stereo_44KHz.wav
1	12	2	2	1	C	1	0	1244	0	Ⴔ	cut_l_stereo_44KHz.wav
1	13	4	4	2	I	2	0	1038	1	Ⴏ	cut_w_stereo_44KHz.wav
1	14	1	2	0	C	2	0	1489	0	Ⴒ	cut_l_stereo_44KHz.wav
1	15	3	4	2	I	1	0	1521	1	Ⴐ	cut_w_stereo_44KHz.wav
1	16	2	1	0	C	0	0	0	0	Ⴔ	cut_h_stereo_44KHz.wav
1	17	4	4	2	I	1	0	1445	0	Ⴏ	cut_w_stereo_44KHz.wav
1	18	1	1	1	C	0	0	0	0	Ⴒ	cut_h_stereo_44KHz.wav
1	19	2	1	0	C	2	0	1622	0	Ⴔ	cut_h_stereo_44KHz.wav
1	20	3	3	2	I	2	0	1018	0	Ⴐ	cut_g_stereo_44KHz.wav
1	21	4	3	2	I	1	0	812	0	Ⴏ	cut_g_stereo_44KHz.wav
1	22	1	2	0	C	2	0	1187	0	Ⴒ	cut_l_stereo_44KHz.wav
1	23	2	2	1	C	1	0	1545	0	Ⴔ	cut_l_stereo_44KHz.wav
1	24	3	4	2	I	0	0	0	0	Ⴐ	cut_w_stereo_44KHz.wav
1	25	4	4	2	I	2	0	1546	1	Ⴏ	cut_w_stereo_44KHz.wav
1	26	3	3	2	I	1	0	1791	1	Ⴐ	cut_g_stereo_44KHz.wav
1	27	2	2	1	C	1	0	1107	0	Ⴔ	cut_l_stereo_44KHz.wav
1	28	1	1	1	C	2	1	1522	1	Ⴒ	cut_h_stereo_44KHz.wav
1	29	2	1	0	C	0	0	0	0	Ⴔ	cut_h_stereo_44KHz.wav
1	30	4	3	2	I	1	0	989	1	Ⴏ	cut_g_stereo_44KHz.wav
1	31	1	2	0	C	2	0	1717	0	Ⴒ	cut_l_stereo_44KHz.wav
1	32	3	4	2	I	2	0	1204	0	Ⴐ	cut_w_stereo_44KHz.wav
1	33	4	3	2	I	1	0	792	1	Ⴏ	cut_g_stereo_44KHz.wav
1	34	3	3	2	I	1	0	1010	1	Ⴐ	cut_g_stereo_44KHz.wav
1	35	1	1	1	C	2	1	1032	1	Ⴒ	cut_h_stereo_44KHz.wav
1	36	2	2	1	C	1	0	1122	0	Ⴔ	cut_l_stereo_44KHz.wav
1	37	3	4	2	I	1	0	1208	1	Ⴐ	cut_w_stereo_44KHz.wav
1	38	2	1	0	C	1	1	1809	1	Ⴔ	cut_h_stereo_44KHz.wav
1	39	1	2	0	C	2	0	1293	0	Ⴒ	cut_l_stereo_44KHz.wav
1	40	4	4	2	I	2	0	1366	1	Ⴏ	cut_w_stereo_44KHz.wav
1	41	1	1	1	C	1	0	1569	0	Ⴒ	cut_h_stereo_44KHz.wav
1	42	2	1	0	C	0	0	0	0	Ⴔ	cut_h_stereo_44KHz.wav
1	43	3	4	2	I	2	0	1411	1	Ⴐ	cut_w_stereo_44KHz.wav
1	44	4	4	2	I	1	0	1544	1	Ⴏ	cut_w_stereo_44KHz.wav
1	45	3	3	2	I	2	0	1388	1	Ⴐ	cut_g_stereo_44KHz.wav
1	46	2	2	1	C	1	0	1480	0	Ⴔ	cut_l_stereo_44KHz.wav
1	47	4	3	2	I	0	0	0	0	Ⴏ	cut_g_stereo_44KHz.wav
1	48	1	2	0	C	1	1	1223	1	Ⴒ	cut_l_stereo_44KHz.wav
1	49	4	4	2	I	1	0	1374	1	Ⴏ	cut_w_stereo_44KHz.wav
1	50	3	4	2	I	2	0	793	0	Ⴐ	cut_w_stereo_44KHz.wav
1	51	2	1	0	C	2	0	1854	0	Ⴔ	cut_h_stereo_44KHz.wav
1	52	1	1	1	C	2	1	1531	1	Ⴒ	cut_h_stereo_44KHz.wav
1	53	4	3	2	I	1	0	1327	1	Ⴏ	cut_g_stereo_44KHz.wav
1	54	1	2	0	C	1	1	1670	1	Ⴒ	cut_l_stereo_44KHz.wav
1	55	2	2	1	C	2	1	1616	1	Ⴔ	cut_l_stereo_44KHz.wav
1	56	3	3	2	I	1	0	972	1	Ⴐ	cut_g_stereo_44KHz.wav
1	57	2	2	1	C	2	1	1028	1	Ⴔ	cut_l_stereo_44KHz.wav
1	58	3	3	2	I	1	0	1310	1	Ⴐ	cut_g_stereo_44KHz.wav
1	59	1	1	1	C	2	1	1278	1	Ⴒ	cut_h_stereo_44KHz.wav
1	60	4	3	2	I	1	0	1040	1	Ⴏ	cut_g_stereo_44KHz.wav
1	61	3	4	2	I	2	0	1143	1	Ⴐ	cut_w_stereo_44KHz.wav
1	62	4	4	2	I	2	0	888	1	Ⴏ	cut_w_stereo_44KHz.wav
1	63	2	1	0	C	2	0	1606	0	Ⴔ	cut_h_stereo_44KHz.wav
1	64	1	2	0	C	2	0	1539	0	Ⴒ	cut_l_stereo_44KHz.wav
1	65	3	3	2	I	1	0	1667	1	Ⴐ	cut_g_stereo_44KHz.wav
1	66	4	4	2	I	2	0	1258	0	Ⴏ	cut_w_stereo_44KHz.wav
1	67	1	1	1	C	1	0	586	0	Ⴒ	cut_h_stereo_44KHz.wav
1	68	2	2	1	C	2	1	818	1	Ⴔ	cut_l_stereo_44KHz.wav
1	69	4	3	2	I	1	0	1152	1	Ⴏ	cut_g_stereo_44KHz.wav
1	70	2	1	0	C	2	0	1525	0	Ⴔ	cut_h_stereo_44KHz.wav
1	71	3	4	2	I	1	0	1364	1	Ⴐ	cut_w_stereo_44KHz.wav
1	72	1	2	0	C	2	0	715	0	Ⴒ	cut_l_stereo_44KHz.wav
1	73	4	4	2	I	2	0	947	1	Ⴏ	cut_w_stereo_44KHz.wav
1	74	3	3	2	I	2	0	898	1	Ⴐ	cut_g_stereo_44KHz.wav
1	75	2	1	0	C	2	0	930	0	Ⴔ	cut_h_stereo_44KHz.wav
1	76	1	1	1	C	1	0	741	0	Ⴒ	cut_h_stereo_44KHz.wav
1	77	2	2	1	C	0	0	0	0	Ⴔ	cut_l_stereo_44KHz.wav
1	78	4	3	2	I	2	0	1003	1	Ⴏ	cut_g_stereo_44KHz.wav
1	79	3	4	2	I	1	0	849	1	Ⴐ	cut_w_stereo_44KHz.wav
1	80	1	2	0	C	2	0	1114	0	Ⴒ	cut_l_stereo_44KHz.wav
1	81	3	3	2	I	2	0	770	0	Ⴐ	cut_g_stereo_44KHz.wav
1	82	2	1	0	C	2	0	1029	0	Ⴔ	cut_h_stereo_44KHz.wav
1	83	4	3	2	I	1	0	831	1	Ⴏ	cut_g_stereo_44KHz.wav
1	84	1	1	1	C	2	1	1442	1	Ⴒ	cut_h_stereo_44KHz.wav
1	85	2	2	1	C	2	1	1007	1	Ⴔ	cut_l_stereo_44KHz.wav
1	86	3	4	2	I	1	0	1309	1	Ⴐ	cut_w_stereo_44KHz.wav
1	87	4	4	2	I	2	0	1401	1	Ⴏ	cut_w_stereo_44KHz.wav
1	88	1	2	0	C	1	1	1883	1	Ⴒ	cut_l_stereo_44KHz.wav
1	89	2	1	0	C	2	0	1373	0	Ⴔ	cut_h_stereo_44KHz.wav
1	90	1	2	0	C	0	0	0	0	Ⴒ	cut_l_stereo_44KHz.wav
1	91	3	3	2	I	2	0	835	1	Ⴐ	cut_g_stereo_44KHz.wav
1	92	4	3	2	I	1	0	1393	1	Ⴏ	cut_g_stereo_44KHz.wav
1	93	2	2	1	C	2	1	1515	1	Ⴔ	cut_l_stereo_44KHz.wav
1	94	1	1	1	C	1	0	726	0	Ⴒ	cut_h_stereo_44KHz.wav
1	95	4	4	2	I	2	0	1055	0	Ⴏ	cut_w_stereo_44KHz.wav
1	96	3	4	2	I	1	0	1645	1	Ⴐ	cut_w_stereo_44KHz.wav
1	97	2	2	1	C	2	1	1209	1	Ⴔ	cut_l_stereo_44KHz.wav
1	98	4	3	2	I	1	0	1360	1	Ⴏ	cut_g_stereo_44KHz.wav
1	99	1	2	0	C	1	1	1405	1	Ⴒ	cut_l_stereo_44KHz.wav
1	100	3	3	2	I	2	0	935	1	Ⴐ	cut_g_stereo_44KHz.wav
1	101	1	1	1	C	0	0	0	0	Ⴒ	cut_h_stereo_44KHz.wav
1	102	2	1	0	C	2	0	1502	0	Ⴔ	cut_h_stereo_44KHz.wav
1	103	4	4	2	I	1	0	938	1	Ⴏ	cut_w_stereo_44KHz.wav
1	104	3	4	2	I	2	0	1121	1	Ⴐ	cut_w_stereo_44KHz.wav
1	105	4	4	2	I	1	0	782	0	Ⴏ	cut_w_stereo_44KHz.wav
1	106	1	2	0	C	1	1	1631	1	Ⴒ	cut_l_stereo_44KHz.wav
1	107	3	4	2	I	2	0	975	1	Ⴐ	cut_w_stereo_44KHz.wav
1	108	2	2	1	C	1	0	1223	0	Ⴔ	cut_l_stereo_44KHz.wav
1	109	4	3	2	I	2	0	781	1	Ⴏ	cut_g_stereo_44KHz.wav
1	110	2	1	0	C	1	1	1049	1	Ⴔ	cut_h_stereo_44KHz.wav
1	111	3	3	2	I	2	0	722	1	Ⴐ	cut_g_stereo_44KHz.wav
1	112	1	1	1	C	2	1	1558	1	Ⴒ	cut_h_stereo_44KHz.wav
1	113	3	3	2	I	1	0	717	0	Ⴐ	cut_g_stereo_44KHz.wav
1	114	2	1	0	C	2	0	979	0	Ⴔ	cut_h_stereo_44KHz.wav
1	115	4	4	2	I	1	0	1368	1	Ⴏ	cut_w_stereo_44KHz.wav
1	116	1	1	1	C	2	1	1341	1	Ⴒ	cut_h_stereo_44KHz.wav
1	117	4	3	2	I	1	0	666	0	Ⴏ	cut_g_stereo_44KHz.wav
1	118	1	2	0	C	1	1	1373	1	Ⴒ	cut_l_stereo_44KHz.wav
1	119	2	2	1	C	2	1	1435	1	Ⴔ	cut_l_stereo_44KHz.wav
1	120	3	4	2	I	2	0	1140	1	Ⴐ	cut_w_stereo_44KHz.wav
1	121	4	3	2	I	1	0	1420	0	Ⴏ	cut_g_stereo_44KHz.wav
1	122	2	1	0	C	2	0	1166	0	Ⴔ	cut_h_stereo_44KHz.wav
1	123	1	2	0	C	1	1	1040	1	Ⴒ	cut_l_stereo_44KHz.wav
1	124	3	4	2	I	1	0	1424	0	Ⴐ	cut_w_stereo_44KHz.wav
1	125	2	2	1	C	2	1	1678	1	Ⴔ	cut_l_stereo_44KHz.wav
1	126	1	1	1	C	2	1	1003	1	Ⴒ	cut_h_stereo_44KHz.wav
1	127	4	4	2	I	2	0	1601	0	Ⴏ	cut_w_stereo_44KHz.wav
1	128	3	3	2	I	1	0	1258	1	Ⴐ	cut_g_stereo_44KHz.wav
1	129	1	1	1	C	2	1	368	1	Ⴒ	cut_h_stereo_44KHz.wav
1	130	2	2	1	C	1	0	1058	0	Ⴔ	cut_l_stereo_44KHz.wav
1	131	3	3	2	I	2	0	926	1	Ⴐ	cut_g_stereo_44KHz.wav
1	132	4	4	2	I	1	0	1273	1	Ⴏ	cut_w_stereo_44KHz.wav
1	133	2	1	0	C	2	0	1258	0	Ⴔ	cut_h_stereo_44KHz.wav
1	134	3	4	2	I	1	0	1483	1	Ⴐ	cut_w_stereo_44KHz.wav
1	135	1	2	0	C	2	0	437	0	Ⴒ	cut_l_stereo_44KHz.wav
1	136	4	3	2	I	2	0	924	1	Ⴏ	cut_g_stereo_44KHz.wav
1	137	2	2	1	C	1	0	1061	0	Ⴔ	cut_l_stereo_44KHz.wav
1	138	3	3	2	I	2	0	859	1	Ⴐ	cut_g_stereo_44KHz.wav
1	139	4	4	2	I	2	0	1117	1	Ⴏ	cut_w_stereo_44KHz.wav
1	140	1	2	0	C	1	1	1151	1	Ⴒ	cut_l_stereo_44KHz.wav
1	141	2	1	0	C	2	0	1162	0	Ⴔ	cut_h_stereo_44KHz.wav
1	142	4	3	2	I	1	0	1245	1	Ⴏ	cut_g_stereo_44KHz.wav
1	143	3	4	2	I	2	0	1579	1	Ⴐ	cut_w_stereo_44KHz.wav
1	144	1	1	1	C	2	1	1417	1	Ⴒ	cut_h_stereo_44KHz.wav
1	145	4	3	2	I	1	0	1911	1	Ⴏ	cut_g_stereo_44KHz.wav
1	146	3	4	2	I	2	0	907	1	Ⴐ	cut_w_stereo_44KHz.wav
1	147	2	1	0	C	2	0	1049	0	Ⴔ	cut_h_stereo_44KHz.wav
1	148	1	1	1	C	1	0	1890	0	Ⴒ	cut_h_stereo_44KHz.wav
1	149	4	4	2	I	1	0	1417	1	Ⴏ	cut_w_stereo_44KHz.wav
1	150	2	2	1	C	2	1	793	1	Ⴔ	cut_l_stereo_44KHz.wav
1	151	1	2	0	C	1	1	976	1	Ⴒ	cut_l_stereo_44KHz.wav
1	152	3	3	2	I	2	0	761	1	Ⴐ	cut_g_stereo_44KHz.wav
1	153	1	2	0	C	1	1	976	1	Ⴒ	cut_l_stereo_44KHz.wav
1	154	4	3	2	I	2	0	1313	0	Ⴏ	cut_g_stereo_44KHz.wav
1	155	2	2	1	C	2	1	1395	1	Ⴔ	cut_l_stereo_44KHz.wav
1	156	3	3	2	I	2	0	1149	1	Ⴐ	cut_g_stereo_44KHz.wav
1	157	4	4	2	I	1	0	764	1	Ⴏ	cut_w_stereo_44KHz.wav
1	158	2	1	0	C	2	0	1093	0	Ⴔ	cut_h_stereo_44KHz.wav
1	159	1	1	1	C	2	1	1703	1	Ⴒ	cut_h_stereo_44KHz.wav
1	160	3	4	2	I	1	0	1461	1	Ⴐ	cut_w_stereo_44KHz.wav
1	161	2	1	0	C	2	0	903	0	Ⴔ	cut_h_stereo_44KHz.wav
1	162	1	1	1	C	2	1	1598	1	Ⴒ	cut_h_stereo_44KHz.wav
1	163	3	4	2	I	1	0	1784	0	Ⴐ	cut_w_stereo_44KHz.wav
1	164	4	3	2	I	1	0	1011	1	Ⴏ	cut_g_stereo_44KHz.wav
1	165	3	3	2	I	2	0	1168	1	Ⴐ	cut_g_stereo_44KHz.wav
1	166	2	2	1	C	2	1	1794	1	Ⴔ	cut_l_stereo_44KHz.wav
1	167	4	4	2	I	1	0	1606	1	Ⴏ	cut_w_stereo_44KHz.wav
1	168	1	2	0	C	1	1	1814	1	Ⴒ	cut_l_stereo_44KHz.wav
1	169	3	3	2	I	2	0	1163	1	Ⴐ	cut_g_stereo_44KHz.wav
1	170	2	1	0	C	1	1	1645	1	Ⴔ	cut_h_stereo_44KHz.wav
1	171	4	4	2	I	2	0	1028	1	Ⴏ	cut_w_stereo_44KHz.wav
1	172	1	2	0	C	1	1	1240	1	Ⴒ	cut_l_stereo_44KHz.wav
1	173	2	2	1	C	2	1	1351	1	Ⴔ	cut_l_stereo_44KHz.wav
1	174	1	1	1	C	2	1	1300	1	Ⴒ	cut_h_stereo_44KHz.wav
1	175	3	4	2	I	1	0	1171	1	Ⴐ	cut_w_stereo_44KHz.wav
1	176	4	3	2	I	2	0	891	0	Ⴏ	cut_g_stereo_44KHz.wav
1	177	3	3	2	I	1	0	1178	0	Ⴐ	cut_g_stereo_44KHz.wav
1	178	1	2	0	C	1	1	931	1	Ⴒ	cut_l_stereo_44KHz.wav
1	179	2	2	1	C	2	1	1586	1	Ⴔ	cut_l_stereo_44KHz.wav
1	180	4	3	2	I	2	0	1034	1	Ⴏ	cut_g_stereo_44KHz.wav
1	181	2	1	0	C	1	1	1187	1	Ⴔ	cut_h_stereo_44KHz.wav
1	182	1	1	1	C	2	1	1115	1	Ⴒ	cut_h_stereo_44KHz.wav
1	183	3	4	2	I	1	0	487	1	Ⴐ	cut_w_stereo_44KHz.wav
1	184	4	4	2	I	2	0	415	1	Ⴏ	cut_w_stereo_44KHz.wav
1	185	3	4	2	I	1	0	1628	1	Ⴐ	cut_w_stereo_44KHz.wav
1	186	4	3	2	I	2	0	526	1	Ⴏ	cut_g_stereo_44KHz.wav
1	187	1	2	0	C	1	1	649	1	Ⴒ	cut_l_stereo_44KHz.wav
1	188	2	2	1	C	2	1	554	1	Ⴔ	cut_l_stereo_44KHz.wav
1	189	4	4	2	I	1	0	144	1	Ⴏ	cut_w_stereo_44KHz.wav
1	190	2	1	0	C	2	0	471	0	Ⴔ	cut_h_stereo_44KHz.wav
1	191	3	3	2	I	2	0	1264	1	Ⴐ	cut_g_stereo_44KHz.wav
1	192	1	1	1	C	2	1	1127	1	Ⴒ	cut_h_stereo_44KHz.wav
1	193	4	3	2	I	1	0	818	1	Ⴏ	cut_g_stereo_44KHz.wav
1	194	2	1	0	C	1	1	1761	1	Ⴔ	cut_h_stereo_44KHz.wav
1	195	1	1	1	C	2	1	1052	1	Ⴒ	cut_h_stereo_44KHz.wav
1	196	3	3	2	I	1	0	556	1	Ⴐ	cut_g_stereo_44KHz.wav
1	197	2	2	1	C	1	0	1263	0	Ⴔ	cut_l_stereo_44KHz.wav
1	198	4	4	2	I	2	0	923	1	Ⴏ	cut_w_stereo_44KHz.wav
1	199	3	4	2	I	1	0	1114	1	Ⴐ	cut_w_stereo_44KHz.wav
1	200	1	2	0	C	0	0	0	0	Ⴒ	cut_l_stereo_44KHz.wav
2	1	3	4	2	I	0	0	0	0	Ⴃ	cut_oei_stereo_44KHz.wav
2	2	4	4	2	I	2	0	1289	1	Ⴇ	cut_oei_stereo_44KHz.wav
2	3	2	1	0	C	1	1	1295	1	Ⴂ	cut_j_stereo_44KHz.wav
2	4	1	2	0	C	2	0	887	0	Ⴜ	cut_ui_stereo_44KHz.wav
2	5	3	3	2	I	1	0	331	1	Ⴃ	cut_f_stereo_44KHz.wav
2	6	2	2	1	C	2	1	1035	1	Ⴂ	cut_ui_stereo_44KHz.wav
2	7	1	1	1	C	1	0	973	0	Ⴜ	cut_j_stereo_44KHz.wav
2	8	4	3	2	I	2	0	299	1	Ⴇ	cut_f_stereo_44KHz.wav
2	9	2	2	1	C	2	1	956	1	Ⴂ	cut_ui_stereo_44KHz.wav
2	10	4	4	2	I	1	0	1105	1	Ⴇ	cut_oei_stereo_44KHz.wav
2	11	1	1	1	C	2	1	1096	1	Ⴜ	cut_j_stereo_44KHz.wav
2	12	3	3	2	I	1	0	1018	1	Ⴃ	cut_f_stereo_44KHz.wav
2	13	4	3	2	I	2	0	1144	0	Ⴇ	cut_f_stereo_44KHz.wav
2	14	3	4	2	I	1	0	1251	1	Ⴃ	cut_oei_stereo_44KHz.wav
2	15	1	2	0	C	2	0	1024	0	Ⴜ	cut_ui_stereo_44KHz.wav
2	16	2	1	0	C	2	0	1113	0	Ⴂ	cut_j_stereo_44KHz.wav
2	17	3	3	2	I	0	0	0	0	Ⴃ	cut_f_stereo_44KHz.wav
2	18	1	1	1	C	2	1	881	1	Ⴜ	cut_j_stereo_44KHz.wav
2	19	2	2	1	C	1	0	792	0	Ⴂ	cut_ui_stereo_44KHz.wav
2	20	4	3	2	I	1	0	810	1	Ⴇ	cut_f_stereo_44KHz.wav
2	21	3	4	2	I	1	0	1253	1	Ⴃ	cut_oei_stereo_44KHz.wav
2	22	1	2	0	C	2	0	582	0	Ⴜ	cut_ui_stereo_44KHz.wav
2	23	4	4	2	I	1	0	352	1	Ⴇ	cut_oei_stereo_44KHz.wav
2	24	2	1	0	C	2	0	774	0	Ⴂ	cut_j_stereo_44KHz.wav
2	25	3	3	2	I	1	0	1629	0	Ⴃ	cut_f_stereo_44KHz.wav
2	26	1	2	0	C	2	0	497	0	Ⴜ	cut_ui_stereo_44KHz.wav
2	27	4	3	2	I	1	0	562	1	Ⴇ	cut_f_stereo_44KHz.wav
2	28	2	1	0	C	2	0	1802	0	Ⴂ	cut_j_stereo_44KHz.wav
2	29	4	4	2	I	1	0	841	1	Ⴇ	cut_oei_stereo_44KHz.wav
2	30	2	2	1	C	2	1	767	1	Ⴂ	cut_ui_stereo_44KHz.wav
2	31	3	4	2	I	1	0	867	1	Ⴃ	cut_oei_stereo_44KHz.wav
2	32	1	1	1	C	1	0	1618	0	Ⴜ	cut_j_stereo_44KHz.wav
2	33	2	2	1	C	2	1	1171	1	Ⴂ	cut_ui_stereo_44KHz.wav
2	34	4	3	2	I	1	0	798	1	Ⴇ	cut_f_stereo_44KHz.wav
2	35	3	4	2	I	1	0	341	1	Ⴃ	cut_oei_stereo_44KHz.wav
2	36	1	2	0	C	2	0	668	0	Ⴜ	cut_ui_stereo_44KHz.wav
2	37	2	1	0	C	1	1	1347	1	Ⴂ	cut_j_stereo_44KHz.wav
2	38	4	4	2	I	1	0	933	1	Ⴇ	cut_oei_stereo_44KHz.wav
2	39	1	1	1	C	2	1	1483	1	Ⴜ	cut_j_stereo_44KHz.wav
2	40	3	3	2	I	1	0	1333	1	Ⴃ	cut_f_stereo_44KHz.wav
2	41	2	2	1	C	2	1	964	1	Ⴂ	cut_ui_stereo_44KHz.wav
2	42	4	4	2	I	2	0	1088	1	Ⴇ	cut_oei_stereo_44KHz.wav
2	43	1	1	1	C	1	0	1302	0	Ⴜ	cut_j_stereo_44KHz.wav
2	44	3	3	2	I	2	0	926	1	Ⴃ	cut_f_stereo_44KHz.wav
2	45	4	3	2	I	1	0	815	1	Ⴇ	cut_f_stereo_44KHz.wav
2	46	2	1	0	C	2	0	1041	0	Ⴂ	cut_j_stereo_44KHz.wav
2	47	1	2	0	C	2	0	1368	0	Ⴜ	cut_ui_stereo_44KHz.wav
2	48	3	4	2	I	2	0	659	1	Ⴃ	cut_oei_stereo_44KHz.wav
2	49	2	2	1	C	1	0	268	0	Ⴂ	cut_ui_stereo_44KHz.wav
2	50	3	3	2	I	2	0	502	1	Ⴃ	cut_f_stereo_44KHz.wav
2	51	4	3	2	I	1	0	1259	1	Ⴇ	cut_f_stereo_44KHz.wav
2	52	1	1	1	C	2	1	1211	1	Ⴜ	cut_j_stereo_44KHz.wav
2	53	4	4	2	I	1	0	1542	1	Ⴇ	cut_oei_stereo_44KHz.wav
2	54	1	2	0	C	1	1	1188	1	Ⴜ	cut_ui_stereo_44KHz.wav
2	55	2	1	0	C	2	0	802	0	Ⴂ	cut_j_stereo_44KHz.wav
2	56	3	4	2	I	2	0	1061	1	Ⴃ	cut_oei_stereo_44KHz.wav
2	57	4	3	2	I	1	0	291	0	Ⴇ	cut_f_stereo_44KHz.wav
2	58	3	3	2	I	2	0	985	0	Ⴃ	cut_f_stereo_44KHz.wav
2	59	2	2	1	C	1	0	597	0	Ⴂ	cut_ui_stereo_44KHz.wav
2	60	1	2	0	C	1	1	1108	1	Ⴜ	cut_ui_stereo_44KHz.wav
2	61	2	1	0	C	2	0	732	0	Ⴂ	cut_j_stereo_44KHz.wav
2	62	1	1	1	C	2	1	1043	1	Ⴜ	cut_j_stereo_44KHz.wav
2	63	3	4	2	I	2	0	845	0	Ⴃ	cut_oei_stereo_44KHz.wav
2	64	4	4	2	I	2	0	1085	1	Ⴇ	cut_oei_stereo_44KHz.wav
2	65	2	1	0	C	2	0	440	0	Ⴂ	cut_j_stereo_44KHz.wav
2	66	3	4	2	I	1	0	856	1	Ⴃ	cut_oei_stereo_44KHz.wav
2	67	4	3	2	I	2	0	881	1	Ⴇ	cut_f_stereo_44KHz.wav
2	68	1	2	0	C	1	1	1088	1	Ⴜ	cut_ui_stereo_44KHz.wav
2	69	2	2	1	C	2	1	1436	1	Ⴂ	cut_ui_stereo_44KHz.wav
2	70	3	3	2	I	1	0	1104	1	Ⴃ	cut_f_stereo_44KHz.wav
2	71	4	4	2	I	1	0	1264	0	Ⴇ	cut_oei_stereo_44KHz.wav
2	72	1	1	1	C	1	0	993	0	Ⴜ	cut_j_stereo_44KHz.wav
2	73	2	2	1	C	2	1	917	1	Ⴂ	cut_ui_stereo_44KHz.wav
2	74	1	1	1	C	2	1	1166	1	Ⴜ	cut_j_stereo_44KHz.wav
2	75	4	4	2	I	1	0	1095	0	Ⴇ	cut_oei_stereo_44KHz.wav
2	76	3	4	2	I	2	0	1496	1	Ⴃ	cut_oei_stereo_44KHz.wav
2	77	4	3	2	I	1	0	1282	1	Ⴇ	cut_f_stereo_44KHz.wav
2	78	2	1	0	C	2	0	1029	0	Ⴂ	cut_j_stereo_44KHz.wav
2	79	1	2	0	C	1	1	1258	1	Ⴜ	cut_ui_stereo_44KHz.wav
2	80	3	3	2	I	1	0	947	1	Ⴃ	cut_f_stereo_44KHz.wav
2	81	2	2	1	C	0	0	0	0	Ⴂ	cut_ui_stereo_44KHz.wav
2	82	1	1	1	C	2	1	1183	1	Ⴜ	cut_j_stereo_44KHz.wav
2	83	4	4	2	I	1	0	1192	1	Ⴇ	cut_oei_stereo_44KHz.wav
2	84	3	3	2	I	1	0	1126	0	Ⴃ	cut_f_stereo_44KHz.wav
2	85	2	1	0	C	2	0	1285	0	Ⴂ	cut_j_stereo_44KHz.wav
2	86	4	3	2	I	0	0	0	0	Ⴇ	cut_f_stereo_44KHz.wav
2	87	1	2	0	C	1	1	979	1	Ⴜ	cut_ui_stereo_44KHz.wav
2	88	3	4	2	I	1	0	847	1	Ⴃ	cut_oei_stereo_44KHz.wav
2	89	1	2	0	C	1	1	997	1	Ⴜ	cut_ui_stereo_44KHz.wav
2	90	4	4	2	I	2	0	1342	0	Ⴇ	cut_oei_stereo_44KHz.wav
2	91	3	3	2	I	0	0	0	0	Ⴃ	cut_f_stereo_44KHz.wav
2	92	2	2	1	C	1	0	1557	0	Ⴂ	cut_ui_stereo_44KHz.wav
2	93	1	1	1	C	2	1	1289	1	Ⴜ	cut_j_stereo_44KHz.wav
2	94	4	3	2	I	1	0	923	1	Ⴇ	cut_f_stereo_44KHz.wav
2	95	3	4	2	I	1	0	1207	0	Ⴃ	cut_oei_stereo_44KHz.wav
2	96	2	1	0	C	2	0	1157	0	Ⴂ	cut_j_stereo_44KHz.wav
2	97	4	3	2	I	1	0	877	0	Ⴇ	cut_f_stereo_44KHz.wav
2	98	1	1	1	C	2	1	1285	1	Ⴜ	cut_j_stereo_44KHz.wav
2	99	3	4	2	I	1	0	1451	1	Ⴃ	cut_oei_stereo_44KHz.wav
2	100	2	1	0	C	1	1	1632	1	Ⴂ	cut_j_stereo_44KHz.wav
2	101	4	4	2	I	2	0	1353	1	Ⴇ	cut_oei_stereo_44KHz.wav
2	102	2	2	1	C	2	1	1716	1	Ⴂ	cut_ui_stereo_44KHz.wav
2	103	3	3	2	I	1	0	761	1	Ⴃ	cut_f_stereo_44KHz.wav
2	104	1	2	0	C	1	1	1149	1	Ⴜ	cut_ui_stereo_44KHz.wav
2	105	4	4	2	I	1	0	936	1	Ⴇ	cut_oei_stereo_44KHz.wav
2	106	3	4	2	I	2	0	1215	1	Ⴃ	cut_oei_stereo_44KHz.wav
2	107	1	1	1	C	2	1	1340	1	Ⴜ	cut_j_stereo_44KHz.wav
2	108	2	2	1	C	2	1	1826	1	Ⴂ	cut_ui_stereo_44KHz.wav
2	109	1	2	0	C	1	1	1450	1	Ⴜ	cut_ui_stereo_44KHz.wav
2	110	3	3	2	I	1	0	1509	1	Ⴃ	cut_f_stereo_44KHz.wav
2	111	4	3	2	I	2	0	1542	1	Ⴇ	cut_f_stereo_44KHz.wav
2	112	2	1	0	C	1	1	1197	1	Ⴂ	cut_j_stereo_44KHz.wav
2	113	1	1	1	C	2	1	1135	1	Ⴜ	cut_j_stereo_44KHz.wav
2	114	2	1	0	C	1	1	1018	1	Ⴂ	cut_j_stereo_44KHz.wav
2	115	3	3	2	I	1	0	1323	1	Ⴃ	cut_f_stereo_44KHz.wav
2	116	4	3	2	I	2	0	1292	1	Ⴇ	cut_f_stereo_44KHz.wav
2	117	3	4	2	I	1	0	1033	0	Ⴃ	cut_oei_stereo_44KHz.wav
2	118	1	2	0	C	1	1	1470	1	Ⴜ	cut_ui_stereo_44KHz.wav
2	119	4	4	2	I	2	0	1230	0	Ⴇ	cut_oei_stereo_44KHz.wav
2	120	2	2	1	C	2	1	1589	1	Ⴂ	cut_ui_stereo_44KHz.wav
2	121	4	4	2	I	1	0	1733	1	Ⴇ	cut_oei_stereo_44KHz.wav
2	122	1	2	0	C	1	1	1652	1	Ⴜ	cut_ui_stereo_44KHz.wav
2	123	3	3	2	I	2	0	1949	1	Ⴃ	cut_f_stereo_44KHz.wav
2	124	2	1	0	C	1	1	1612	1	Ⴂ	cut_j_stereo_44KHz.wav
2	125	3	4	2	I	1	0	1187	1	Ⴃ	cut_oei_stereo_44KHz.wav
2	126	2	2	1	C	1	0	1293	0	Ⴂ	cut_ui_stereo_44KHz.wav
2	127	1	1	1	C	2	1	1255	1	Ⴜ	cut_j_stereo_44KHz.wav
2	128	4	3	2	I	1	0	1106	1	Ⴇ	cut_f_stereo_44KHz.wav
2	129	1	2	0	C	1	1	1441	1	Ⴜ	cut_ui_stereo_44KHz.wav
2	130	3	3	2	I	1	0	924	1	Ⴃ	cut_f_stereo_44KHz.wav
2	131	4	4	2	I	1	0	1157	1	Ⴇ	cut_oei_stereo_44KHz.wav
2	132	2	1	0	C	1	1	1323	1	Ⴂ	cut_j_stereo_44KHz.wav
2	133	1	1	1	C	2	1	1217	1	Ⴜ	cut_j_stereo_44KHz.wav
2	134	3	4	2	I	1	0	1602	1	Ⴃ	cut_oei_stereo_44KHz.wav
2	135	4	3	2	I	1	0	1856	0	Ⴇ	cut_f_stereo_44KHz.wav
2	136	2	2	1	C	2	1	1446	1	Ⴂ	cut_ui_stereo_44KHz.wav
2	137	3	3	2	I	1	0	1193	0	Ⴃ	cut_f_stereo_44KHz.wav
2	138	4	4	2	I	1	0	1183	1	Ⴇ	cut_oei_stereo_44KHz.wav
2	139	2	1	0	C	1	1	1094	1	Ⴂ	cut_j_stereo_44KHz.wav
2	140	1	1	1	C	2	1	1250	1	Ⴜ	cut_j_stereo_44KHz.wav
2	141	3	4	2	I	1	0	969	1	Ⴃ	cut_oei_stereo_44KHz.wav
2	142	2	2	1	C	2	1	1086	1	Ⴂ	cut_ui_stereo_44KHz.wav
2	143	1	2	0	C	1	1	1113	1	Ⴜ	cut_ui_stereo_44KHz.wav
2	144	4	3	2	I	2	0	1132	1	Ⴇ	cut_f_stereo_44KHz.wav
2	145	2	1	0	C	1	1	1023	1	Ⴂ	cut_j_stereo_44KHz.wav
2	146	4	3	2	I	2	0	1124	1	Ⴇ	cut_f_stereo_44KHz.wav
2	147	1	1	1	C	2	1	1197	1	Ⴜ	cut_j_stereo_44KHz.wav
2	148	3	3	2	I	1	0	598	0	Ⴃ	cut_f_stereo_44KHz.wav
2	149	2	2	1	C	2	1	1129	1	Ⴂ	cut_ui_stereo_44KHz.wav
2	150	4	4	2	I	1	0	1294	1	Ⴇ	cut_oei_stereo_44KHz.wav
2	151	3	4	2	I	1	0	1265	1	Ⴃ	cut_oei_stereo_44KHz.wav
2	152	1	2	0	C	1	1	1640	1	Ⴜ	cut_ui_stereo_44KHz.wav
2	153	2	1	0	C	1	1	1509	1	Ⴂ	cut_j_stereo_44KHz.wav
2	154	4	4	2	I	1	0	1114	1	Ⴇ	cut_oei_stereo_44KHz.wav
2	155	3	4	2	I	1	0	934	0	Ⴃ	cut_oei_stereo_44KHz.wav
2	156	1	2	0	C	1	1	1572	1	Ⴜ	cut_ui_stereo_44KHz.wav
2	157	4	3	2	I	1	0	1144	0	Ⴇ	cut_f_stereo_44KHz.wav
2	158	2	2	1	C	2	1	1503	1	Ⴂ	cut_ui_stereo_44KHz.wav
2	159	1	1	1	C	1	0	1169	0	Ⴜ	cut_j_stereo_44KHz.wav
2	160	3	3	2	I	1	0	1074	1	Ⴃ	cut_f_stereo_44KHz.wav
2	161	2	1	0	C	2	0	941	0	Ⴂ	cut_j_stereo_44KHz.wav
2	162	3	4	2	I	1	0	1105	1	Ⴃ	cut_oei_stereo_44KHz.wav
2	163	1	1	1	C	1	0	1728	0	Ⴜ	cut_j_stereo_44KHz.wav
2	164	4	3	2	I	2	0	958	1	Ⴇ	cut_f_stereo_44KHz.wav
2	165	3	3	2	I	1	0	1450	1	Ⴃ	cut_f_stereo_44KHz.wav
2	166	1	2	0	C	1	1	927	1	Ⴜ	cut_ui_stereo_44KHz.wav
2	167	4	4	2	I	2	0	743	1	Ⴇ	cut_oei_stereo_44KHz.wav
2	168	2	2	1	C	2	1	1212	1	Ⴂ	cut_ui_stereo_44KHz.wav
2	169	3	3	2	I	1	0	1126	1	Ⴃ	cut_f_stereo_44KHz.wav
2	170	2	1	0	C	2	0	1089	0	Ⴂ	cut_j_stereo_44KHz.wav
2	171	1	2	0	C	1	1	1802	1	Ⴜ	cut_ui_stereo_44KHz.wav
2	172	4	3	2	I	1	0	981	1	Ⴇ	cut_f_stereo_44KHz.wav
2	173	2	2	1	C	2	1	1547	1	Ⴂ	cut_ui_stereo_44KHz.wav
2	174	3	4	2	I	1	0	721	1	Ⴃ	cut_oei_stereo_44KHz.wav
2	175	1	1	1	C	2	1	1329	1	Ⴜ	cut_j_stereo_44KHz.wav
2	176	4	4	2	I	1	0	940	0	Ⴇ	cut_oei_stereo_44KHz.wav
2	177	1	1	1	C	2	1	1951	1	Ⴜ	cut_j_stereo_44KHz.wav
2	178	2	2	1	C	1	0	1217	0	Ⴂ	cut_ui_stereo_44KHz.wav
2	179	3	3	2	I	1	0	1189	1	Ⴃ	cut_f_stereo_44KHz.wav
2	180	4	4	2	I	2	0	1208	1	Ⴇ	cut_oei_stereo_44KHz.wav
2	181	3	4	2	I	1	0	1042	1	Ⴃ	cut_oei_stereo_44KHz.wav
2	182	1	2	0	C	2	0	1381	0	Ⴜ	cut_ui_stereo_44KHz.wav
2	183	2	1	0	C	1	1	1982	1	Ⴂ	cut_j_stereo_44KHz.wav
2	184	4	3	2	I	2	0	1863	1	Ⴇ	cut_f_stereo_44KHz.wav
2	185	2	1	0	C	1	1	1328	1	Ⴂ	cut_j_stereo_44KHz.wav
2	186	3	4	2	I	0	0	0	0	Ⴃ	cut_oei_stereo_44KHz.wav
2	187	1	1	1	C	1	0	1071	0	Ⴜ	cut_j_stereo_44KHz.wav
2	188	4	4	2	I	2	0	1270	1	Ⴇ	cut_oei_stereo_44KHz.wav
2	189	3	3	2	I	1	0	1489	1	Ⴃ	cut_f_stereo_44KHz.wav
2	190	1	2	0	C	2	0	340	0	Ⴜ	cut_ui_stereo_44KHz.wav
2	191	4	3	2	I	2	0	1147	1	Ⴇ	cut_f_stereo_44KHz.wav
2	192	2	2	1	C	2	1	1549	1	Ⴂ	cut_ui_stereo_44KHz.wav
2	193	3	3	2	I	2	0	1451	1	Ⴃ	cut_f_stereo_44KHz.wav
2	194	1	1	1	C	2	1	1148	1	Ⴜ	cut_j_stereo_44KHz.wav
2	195	4	4	2	I	2	0	1564	1	Ⴇ	cut_oei_stereo_44KHz.wav
2	196	2	2	1	C	1	0	1229	0	Ⴂ	cut_ui_stereo_44KHz.wav
2	197	4	3	2	I	2	0	1248	1	Ⴇ	cut_f_stereo_44KHz.wav
2	198	1	2	0	C	1	1	1178	1	Ⴜ	cut_ui_stereo_44KHz.wav
2	199	3	4	2	I	2	0	1359	1	Ⴃ	cut_oei_stereo_44KHz.wav
2	200	2	1	0	C	2	0	1164	0	Ⴂ	cut_j_stereo_44KHz.wav
3	1	4	4	2	I	0	0	0	0	Ⴉ	cut_u_stereo_44KHz.wav
3	2	2	2	1	C	1	0	734	0	Ⴌ	cut_k_stereo_44KHz.wav
3	3	3	3	2	I	1	0	953	0	Ⴖ	cut_o_stereo_44KHz.wav
3	4	1	1	1	C	1	0	792	0	Ⴕ	cut_a_stereo_44KHz.wav
3	5	2	1	0	C	1	1	862	1	Ⴌ	cut_a_stereo_44KHz.wav
3	6	3	4	2	I	2	0	402	1	Ⴖ	cut_u_stereo_44KHz.wav
3	7	4	3	2	I	2	0	885	1	Ⴉ	cut_o_stereo_44KHz.wav
3	8	1	2	0	C	1	1	783	1	Ⴕ	cut_k_stereo_44KHz.wav
3	9	4	4	2	I	1	0	1007	1	Ⴉ	cut_u_stereo_44KHz.wav
3	10	3	3	2	I	2	0	318	1	Ⴖ	cut_o_stereo_44KHz.wav
3	11	2	2	1	C	2	1	1328	1	Ⴌ	cut_k_stereo_44KHz.wav
3	12	1	2	0	C	1	1	400	1	Ⴕ	cut_k_stereo_44KHz.wav
3	13	2	1	0	C	2	0	1680	0	Ⴌ	cut_a_stereo_44KHz.wav
3	14	4	3	2	I	1	0	998	1	Ⴉ	cut_o_stereo_44KHz.wav
3	15	3	4	2	I	2	0	791	1	Ⴖ	cut_u_stereo_44KHz.wav
3	16	1	1	1	C	1	0	1046	0	Ⴕ	cut_a_stereo_44KHz.wav
3	17	3	4	2	I	1	0	1333	0	Ⴖ	cut_u_stereo_44KHz.wav
3	18	2	1	0	C	1	1	996	1	Ⴌ	cut_a_stereo_44KHz.wav
3	19	1	2	0	C	2	0	725	0	Ⴕ	cut_k_stereo_44KHz.wav
3	20	4	4	2	I	2	0	687	1	Ⴉ	cut_u_stereo_44KHz.wav
3	21	2	2	1	C	2	1	1087	1	Ⴌ	cut_k_stereo_44KHz.wav
3	22	4	3	2	I	1	0	990	1	Ⴉ	cut_o_stereo_44KHz.wav
3	23	1	1	1	C	2	1	1294	1	Ⴕ	cut_a_stereo_44KHz.wav
3	24	3	3	2	I	1	0	1113	1	Ⴖ	cut_o_stereo_44KHz.wav
3	25	1	1	1	C	2	1	941	1	Ⴕ	cut_a_stereo_44KHz.wav
3	26	3	4	2	I	1	0	900	0	Ⴖ	cut_u_stereo_44KHz.wav
3	27	2	1	0	C	1	1	1392	1	Ⴌ	cut_a_stereo_44KHz.wav
3	28	4	4	2	I	2	0	1588	1	Ⴉ	cut_u_stereo_44KHz.wav
3	29	2	2	1	C	2	1	885	1	Ⴌ	cut_k_stereo_44KHz.wav
3	30	1	2	0	C	1	1	1317	1	Ⴕ	cut_k_stereo_44KHz.wav
3	31	4	3	2	I	2	0	1214	1	Ⴉ	cut_o_stereo_44KHz.wav
3	32	3	3	2	I	2	0	1637	1	Ⴖ	cut_o_stereo_44KHz.wav
3	33	4	3	2	I	1	0	1098	0	Ⴉ	cut_o_stereo_44KHz.wav
3	34	2	1	0	C	1	1	1241	1	Ⴌ	cut_a_stereo_44KHz.wav
3	35	1	2	0	C	1	1	974	1	Ⴕ	cut_k_stereo_44KHz.wav
3	36	3	3	2	I	1	0	1460	1	Ⴖ	cut_o_stereo_44KHz.wav
3	37	2	2	1	C	2	1	1249	1	Ⴌ	cut_k_stereo_44KHz.wav
3	38	4	4	2	I	2	0	1300	1	Ⴉ	cut_u_stereo_44KHz.wav
3	39	1	1	1	C	2	1	1053	1	Ⴕ	cut_a_stereo_44KHz.wav
3	40	3	4	2	I	1	0	1049	1	Ⴖ	cut_u_stereo_44KHz.wav
3	41	4	4	2	I	2	0	1259	0	Ⴉ	cut_u_stereo_44KHz.wav
3	42	2	2	1	C	2	1	1102	1	Ⴌ	cut_k_stereo_44KHz.wav
3	43	3	3	2	I	2	0	1202	0	Ⴖ	cut_o_stereo_44KHz.wav
3	44	1	2	0	C	2	0	454	0	Ⴕ	cut_k_stereo_44KHz.wav
3	45	4	3	2	I	1	0	946	1	Ⴉ	cut_o_stereo_44KHz.wav
3	46	2	1	0	C	2	0	1017	0	Ⴌ	cut_a_stereo_44KHz.wav
3	47	3	4	2	I	2	0	1555	1	Ⴖ	cut_u_stereo_44KHz.wav
3	48	1	1	1	C	2	1	1152	1	Ⴕ	cut_a_stereo_44KHz.wav
3	49	3	3	2	I	1	0	1109	1	Ⴖ	cut_o_stereo_44KHz.wav
3	50	1	2	0	C	1	1	1158	1	Ⴕ	cut_k_stereo_44KHz.wav
3	51	2	2	1	C	1	0	1155	0	Ⴌ	cut_k_stereo_44KHz.wav
3	52	4	4	2	I	2	0	389	0	Ⴉ	cut_u_stereo_44KHz.wav
3	53	2	1	0	C	1	1	1425	1	Ⴌ	cut_a_stereo_44KHz.wav
3	54	3	4	2	I	2	0	1250	0	Ⴖ	cut_u_stereo_44KHz.wav
3	55	1	1	1	C	2	1	1615	1	Ⴕ	cut_a_stereo_44KHz.wav
3	56	4	3	2	I	1	0	810	0	Ⴉ	cut_o_stereo_44KHz.wav
3	57	1	1	1	C	2	1	1653	1	Ⴕ	cut_a_stereo_44KHz.wav
3	58	4	4	2	I	1	0	1381	1	Ⴉ	cut_u_stereo_44KHz.wav
3	59	3	4	2	I	2	0	1732	1	Ⴖ	cut_u_stereo_44KHz.wav
3	60	2	2	1	C	2	1	1506	1	Ⴌ	cut_k_stereo_44KHz.wav
3	61	3	3	2	I	1	0	1646	1	Ⴖ	cut_o_stereo_44KHz.wav
3	62	1	2	0	C	1	1	1280	1	Ⴕ	cut_k_stereo_44KHz.wav
3	63	4	3	2	I	2	0	1647	1	Ⴉ	cut_o_stereo_44KHz.wav
3	64	2	1	0	C	1	1	853	1	Ⴌ	cut_a_stereo_44KHz.wav
3	65	3	4	2	I	2	0	1446	1	Ⴖ	cut_u_stereo_44KHz.wav
3	66	1	2	0	C	1	1	994	1	Ⴕ	cut_k_stereo_44KHz.wav
3	67	2	2	1	C	2	1	1520	1	Ⴌ	cut_k_stereo_44KHz.wav
3	68	4	3	2	I	1	0	727	1	Ⴉ	cut_o_stereo_44KHz.wav
3	69	2	1	0	C	1	1	1327	1	Ⴌ	cut_a_stereo_44KHz.wav
3	70	4	4	2	I	2	0	1878	0	Ⴉ	cut_u_stereo_44KHz.wav
3	71	1	1	1	C	2	1	1403	1	Ⴕ	cut_a_stereo_44KHz.wav
3	72	3	3	2	I	1	0	736	1	Ⴖ	cut_o_stereo_44KHz.wav
3	73	1	1	1	C	2	1	913	1	Ⴕ	cut_a_stereo_44KHz.wav
3	74	2	1	0	C	1	1	783	1	Ⴌ	cut_a_stereo_44KHz.wav
3	75	3	3	2	I	2	0	720	1	Ⴖ	cut_o_stereo_44KHz.wav
3	76	4	3	2	I	1	0	1080	1	Ⴉ	cut_o_stereo_44KHz.wav
3	77	3	4	2	I	2	0	940	1	Ⴖ	cut_u_stereo_44KHz.wav
3	78	2	2	1	C	2	1	1198	1	Ⴌ	cut_k_stereo_44KHz.wav
3	79	4	4	2	I	1	0	1334	1	Ⴉ	cut_u_stereo_44KHz.wav
3	80	1	2	0	C	1	1	980	1	Ⴕ	cut_k_stereo_44KHz.wav
3	81	3	3	2	I	1	0	1411	1	Ⴖ	cut_o_stereo_44KHz.wav
3	82	4	4	2	I	2	0	957	1	Ⴉ	cut_u_stereo_44KHz.wav
3	83	2	2	1	C	2	1	1460	1	Ⴌ	cut_k_stereo_44KHz.wav
3	84	1	1	1	C	2	1	1562	1	Ⴕ	cut_a_stereo_44KHz.wav
3	85	4	3	2	I	1	0	685	1	Ⴉ	cut_o_stereo_44KHz.wav
3	86	1	2	0	C	2	0	1563	0	Ⴕ	cut_k_stereo_44KHz.wav
3	87	3	4	2	I	1	0	918	0	Ⴖ	cut_u_stereo_44KHz.wav
3	88	2	1	0	C	2	0	409	0	Ⴌ	cut_a_stereo_44KHz.wav
3	89	4	4	2	I	2	0	1025	1	Ⴉ	cut_u_stereo_44KHz.wav
3	90	1	1	1	C	2	1	920	1	Ⴕ	cut_a_stereo_44KHz.wav
3	91	2	2	1	C	2	1	977	1	Ⴌ	cut_k_stereo_44KHz.wav
3	92	3	3	2	I	1	0	1172	1	Ⴖ	cut_o_stereo_44KHz.wav
3	93	1	2	0	C	1	1	888	1	Ⴕ	cut_k_stereo_44KHz.wav
3	94	3	4	2	I	1	0	883	1	Ⴖ	cut_u_stereo_44KHz.wav
3	95	4	3	2	I	2	0	1466	0	Ⴉ	cut_o_stereo_44KHz.wav
3	96	2	1	0	C	1	1	1248	1	Ⴌ	cut_a_stereo_44KHz.wav
3	97	3	4	2	I	1	0	1260	1	Ⴖ	cut_u_stereo_44KHz.wav
3	98	1	2	0	C	1	1	1344	1	Ⴕ	cut_k_stereo_44KHz.wav
3	99	4	3	2	I	1	0	990	1	Ⴉ	cut_o_stereo_44KHz.wav
3	100	2	2	1	C	2	1	1409	1	Ⴌ	cut_k_stereo_44KHz.wav
3	101	4	4	2	I	1	0	1381	1	Ⴉ	cut_u_stereo_44KHz.wav
3	102	2	1	0	C	1	1	915	1	Ⴌ	cut_a_stereo_44KHz.wav
3	103	1	1	1	C	2	1	898	1	Ⴕ	cut_a_stereo_44KHz.wav
3	104	3	3	2	I	1	0	890	1	Ⴖ	cut_o_stereo_44KHz.wav
3	105	4	3	2	I	1	0	899	1	Ⴉ	cut_o_stereo_44KHz.wav
3	106	1	2	0	C	1	1	933	1	Ⴕ	cut_k_stereo_44KHz.wav
3	107	2	2	1	C	2	1	1001	1	Ⴌ	cut_k_stereo_44KHz.wav
3	108	3	3	2	I	1	0	1554	0	Ⴖ	cut_o_stereo_44KHz.wav
3	109	4	4	2	I	1	0	909	1	Ⴉ	cut_u_stereo_44KHz.wav
3	110	3	4	2	I	1	0	1095	1	Ⴖ	cut_u_stereo_44KHz.wav
3	111	2	1	0	C	1	1	1107	1	Ⴌ	cut_a_stereo_44KHz.wav
3	112	1	1	1	C	1	0	759	0	Ⴕ	cut_a_stereo_44KHz.wav
3	113	4	3	2	I	1	0	1074	0	Ⴉ	cut_o_stereo_44KHz.wav
3	114	3	4	2	I	1	0	608	1	Ⴖ	cut_u_stereo_44KHz.wav
3	115	2	1	0	C	1	1	957	1	Ⴌ	cut_a_stereo_44KHz.wav
3	116	1	1	1	C	1	0	1285	0	Ⴕ	cut_a_stereo_44KHz.wav
3	117	2	2	1	C	2	1	1154	1	Ⴌ	cut_k_stereo_44KHz.wav
3	118	3	3	2	I	1	0	775	1	Ⴖ	cut_o_stereo_44KHz.wav
3	119	4	4	2	I	2	0	710	1	Ⴉ	cut_u_stereo_44KHz.wav
3	120	1	2	0	C	2	0	684	0	Ⴕ	cut_k_stereo_44KHz.wav
3	121	2	2	1	C	2	1	1243	1	Ⴌ	cut_k_stereo_44KHz.wav
3	122	4	3	2	I	1	0	966	1	Ⴉ	cut_o_stereo_44KHz.wav
3	123	3	3	2	I	2	0	1015	1	Ⴖ	cut_o_stereo_44KHz.wav
3	124	1	1	1	C	1	0	534	0	Ⴕ	cut_a_stereo_44KHz.wav
3	125	3	4	2	I	2	0	674	1	Ⴖ	cut_u_stereo_44KHz.wav
3	126	1	2	0	C	1	1	969	1	Ⴕ	cut_k_stereo_44KHz.wav
3	127	2	1	0	C	1	1	642	1	Ⴌ	cut_a_stereo_44KHz.wav
3	128	4	4	2	I	1	0	1314	1	Ⴉ	cut_u_stereo_44KHz.wav
3	129	1	1	1	C	2	1	1257	1	Ⴕ	cut_a_stereo_44KHz.wav
3	130	2	1	0	C	1	1	859	1	Ⴌ	cut_a_stereo_44KHz.wav
3	131	4	3	2	I	1	0	1520	0	Ⴉ	cut_o_stereo_44KHz.wav
3	132	3	4	2	I	2	0	922	1	Ⴖ	cut_u_stereo_44KHz.wav
3	133	4	4	2	I	1	0	1185	1	Ⴉ	cut_u_stereo_44KHz.wav
3	134	3	3	2	I	2	0	1167	1	Ⴖ	cut_o_stereo_44KHz.wav
3	135	2	2	1	C	1	0	845	0	Ⴌ	cut_k_stereo_44KHz.wav
3	136	1	2	0	C	2	0	367	0	Ⴕ	cut_k_stereo_44KHz.wav
3	137	2	2	1	C	2	1	893	1	Ⴌ	cut_k_stereo_44KHz.wav
3	138	4	4	2	I	1	0	862	0	Ⴉ	cut_u_stereo_44KHz.wav
3	139	1	2	0	C	1	1	910	1	Ⴕ	cut_k_stereo_44KHz.wav
3	140	3	3	2	I	2	0	746	0	Ⴖ	cut_o_stereo_44KHz.wav
3	141	1	1	1	C	1	0	440	0	Ⴕ	cut_a_stereo_44KHz.wav
3	142	3	4	2	I	2	0	928	1	Ⴖ	cut_u_stereo_44KHz.wav
3	143	4	3	2	I	1	0	622	1	Ⴉ	cut_o_stereo_44KHz.wav
3	144	2	1	0	C	1	1	744	1	Ⴌ	cut_a_stereo_44KHz.wav
3	145	4	4	2	I	2	0	755	1	Ⴉ	cut_u_stereo_44KHz.wav
3	146	1	1	1	C	2	1	972	1	Ⴕ	cut_a_stereo_44KHz.wav
3	147	3	4	2	I	2	0	725	1	Ⴖ	cut_u_stereo_44KHz.wav
3	148	2	1	0	C	1	1	906	1	Ⴌ	cut_a_stereo_44KHz.wav
3	149	4	3	2	I	1	0	1036	1	Ⴉ	cut_o_stereo_44KHz.wav
3	150	1	2	0	C	2	0	519	0	Ⴕ	cut_k_stereo_44KHz.wav
3	151	2	2	1	C	2	1	1357	1	Ⴌ	cut_k_stereo_44KHz.wav
3	152	3	3	2	I	1	0	1221	1	Ⴖ	cut_o_stereo_44KHz.wav
3	153	2	2	1	C	1	0	756	0	Ⴌ	cut_k_stereo_44KHz.wav
3	154	1	2	0	C	1	1	851	1	Ⴕ	cut_k_stereo_44KHz.wav
3	155	4	4	2	I	1	0	1075	1	Ⴉ	cut_u_stereo_44KHz.wav
3	156	3	4	2	I	2	0	1507	0	Ⴖ	cut_u_stereo_44KHz.wav
3	157	1	1	1	C	1	0	791	0	Ⴕ	cut_a_stereo_44KHz.wav
3	158	2	1	0	C	1	1	980	1	Ⴌ	cut_a_stereo_44KHz.wav
3	159	3	3	2	I	2	0	636	1	Ⴖ	cut_o_stereo_44KHz.wav
3	160	4	3	2	I	1	0	809	1	Ⴉ	cut_o_stereo_44KHz.wav
3	161	1	2	0	C	1	1	1525	1	Ⴕ	cut_k_stereo_44KHz.wav
3	162	2	2	1	C	2	1	1324	1	Ⴌ	cut_k_stereo_44KHz.wav
3	163	3	4	2	I	2	0	1000	1	Ⴖ	cut_u_stereo_44KHz.wav
3	164	4	4	2	I	1	0	960	0	Ⴉ	cut_u_stereo_44KHz.wav
3	165	1	1	1	C	2	1	835	1	Ⴕ	cut_a_stereo_44KHz.wav
3	166	2	1	0	C	1	1	827	1	Ⴌ	cut_a_stereo_44KHz.wav
3	167	3	3	2	I	2	0	925	1	Ⴖ	cut_o_stereo_44KHz.wav
3	168	4	3	2	I	1	0	729	1	Ⴉ	cut_o_stereo_44KHz.wav
3	169	1	2	0	C	1	1	826	1	Ⴕ	cut_k_stereo_44KHz.wav
3	170	4	4	2	I	1	0	1000	1	Ⴉ	cut_u_stereo_44KHz.wav
3	171	3	3	2	I	1	0	965	1	Ⴖ	cut_o_stereo_44KHz.wav
3	172	2	2	1	C	2	1	996	1	Ⴌ	cut_k_stereo_44KHz.wav
3	173	3	4	2	I	1	0	684	1	Ⴖ	cut_u_stereo_44KHz.wav
3	174	2	1	0	C	1	1	442	1	Ⴌ	cut_a_stereo_44KHz.wav
3	175	1	1	1	C	2	1	826	1	Ⴕ	cut_a_stereo_44KHz.wav
3	176	4	3	2	I	1	0	955	1	Ⴉ	cut_o_stereo_44KHz.wav
3	177	2	1	0	C	1	1	918	1	Ⴌ	cut_a_stereo_44KHz.wav
3	178	1	2	0	C	1	1	1076	1	Ⴕ	cut_k_stereo_44KHz.wav
3	179	3	3	2	I	2	0	798	1	Ⴖ	cut_o_stereo_44KHz.wav
3	180	4	4	2	I	1	0	871	1	Ⴉ	cut_u_stereo_44KHz.wav
3	181	3	4	2	I	1	0	665	0	Ⴖ	cut_u_stereo_44KHz.wav
3	182	2	2	1	C	2	1	1541	1	Ⴌ	cut_k_stereo_44KHz.wav
3	183	1	1	1	C	2	1	1090	1	Ⴕ	cut_a_stereo_44KHz.wav
3	184	4	3	2	I	1	0	989	1	Ⴉ	cut_o_stereo_44KHz.wav
3	185	2	1	0	C	1	1	1472	1	Ⴌ	cut_a_stereo_44KHz.wav
3	186	4	4	2	I	1	0	836	1	Ⴉ	cut_u_stereo_44KHz.wav
3	187	3	3	2	I	1	0	926	1	Ⴖ	cut_o_stereo_44KHz.wav
3	188	1	2	0	C	1	1	1220	1	Ⴕ	cut_k_stereo_44KHz.wav
3	189	4	3	2	I	1	0	1441	1	Ⴉ	cut_o_stereo_44KHz.wav
3	190	1	1	1	C	2	1	1092	1	Ⴕ	cut_a_stereo_44KHz.wav
3	191	2	2	1	C	2	1	908	1	Ⴌ	cut_k_stereo_44KHz.wav
3	192	3	4	2	I	1	0	1115	1	Ⴖ	cut_u_stereo_44KHz.wav
3	193	2	2	1	C	2	1	873	1	Ⴌ	cut_k_stereo_44KHz.wav
3	194	1	2	0	C	1	1	752	1	Ⴕ	cut_k_stereo_44KHz.wav
3	195	4	3	2	I	1	0	800	1	Ⴉ	cut_o_stereo_44KHz.wav
3	196	3	3	2	I	1	0	802	1	Ⴖ	cut_o_stereo_44KHz.wav
3	197	4	4	2	I	1	0	361	1	Ⴉ	cut_u_stereo_44KHz.wav
3	198	1	1	1	C	1	0	548	0	Ⴕ	cut_a_stereo_44KHz.wav
3	199	2	1	0	C	1	1	1215	1	Ⴌ	cut_a_stereo_44KHz.wav
3	200	3	4	2	I	1	0	620	1	Ⴖ	cut_u_stereo_44KHz.wav
4	1	4	3	2	I	2	0	1236	0	Ⴡ	cut_n_stereo_44KHz.wav
4	2	1	2	0	C	1	1	688	1	Ⴟ	cut_ei_stereo_44KHz.wav
4	3	2	2	1	C	2	1	930	1	Ⴊ	cut_ei_stereo_44KHz.wav
4	4	3	4	2	I	1	0	1071	0	Ⴁ	cut_s_stereo_44KHz.wav
4	5	2	1	0	C	1	1	286	1	Ⴊ	cut_r_stereo_44KHz.wav
4	6	4	4	2	I	1	0	927	1	Ⴡ	cut_s_stereo_44KHz.wav
4	7	1	1	1	C	2	1	1478	1	Ⴟ	cut_r_stereo_44KHz.wav
4	8	3	3	2	I	2	0	726	1	Ⴁ	cut_n_stereo_44KHz.wav
4	9	4	4	2	I	1	0	709	1	Ⴡ	cut_s_stereo_44KHz.wav
4	10	2	1	0	C	1	1	565	1	Ⴊ	cut_r_stereo_44KHz.wav
4	11	3	4	2	I	2	0	339	1	Ⴁ	cut_s_stereo_44KHz.wav
4	12	1	2	0	C	2	0	287	0	Ⴟ	cut_ei_stereo_44KHz.wav
4	13	4	3	2	I	1	0	842	1	Ⴡ	cut_n_stereo_44KHz.wav
4	14	2	2	1	C	1	0	161	0	Ⴊ	cut_ei_stereo_44KHz.wav
4	15	1	1	1	C	2	1	351	1	Ⴟ	cut_r_stereo_44KHz.wav
4	16	3	3	2	I	2	0	254	1	Ⴁ	cut_n_stereo_44KHz.wav
4	17	2	2	1	C	2	1	508	1	Ⴊ	cut_ei_stereo_44KHz.wav
4	18	3	4	2	I	2	0	881	1	Ⴁ	cut_s_stereo_44KHz.wav
4	19	1	1	1	C	1	0	637	0	Ⴟ	cut_r_stereo_44KHz.wav
4	20	4	3	2	I	1	0	674	1	Ⴡ	cut_n_stereo_44KHz.wav
4	21	2	1	0	C	2	0	961	0	Ⴊ	cut_r_stereo_44KHz.wav
4	22	3	3	2	I	1	0	367	1	Ⴁ	cut_n_stereo_44KHz.wav
4	23	4	4	2	I	1	0	580	0	Ⴡ	cut_s_stereo_44KHz.wav
4	24	1	2	0	C	2	0	255	0	Ⴟ	cut_ei_stereo_44KHz.wav
4	25	3	4	2	I	2	0	270	1	Ⴁ	cut_s_stereo_44KHz.wav
4	26	2	1	0	C	2	0	853	0	Ⴊ	cut_r_stereo_44KHz.wav
4	27	1	1	1	C	1	0	357	0	Ⴟ	cut_r_stereo_44KHz.wav
4	28	4	4	2	I	2	0	264	1	Ⴡ	cut_s_stereo_44KHz.wav
4	29	1	2	0	C	1	1	404	1	Ⴟ	cut_ei_stereo_44KHz.wav
4	30	3	3	2	I	1	0	942	0	Ⴁ	cut_n_stereo_44KHz.wav
4	31	2	2	1	C	1	0	813	0	Ⴊ	cut_ei_stereo_44KHz.wav
4	32	4	3	2	I	1	0	913	1	Ⴡ	cut_n_stereo_44KHz.wav
4	33	1	2	0	C	2	0	306	0	Ⴟ	cut_ei_stereo_44KHz.wav
4	34	4	3	2	I	1	0	474	0	Ⴡ	cut_n_stereo_44KHz.wav
4	35	3	4	2	I	2	0	271	1	Ⴁ	cut_s_stereo_44KHz.wav
4	36	2	1	0	C	2	0	369	0	Ⴊ	cut_r_stereo_44KHz.wav
4	37	3	3	2	I	1	0	336	1	Ⴁ	cut_n_stereo_44KHz.wav
4	38	1	1	1	C	2	1	335	1	Ⴟ	cut_r_stereo_44KHz.wav
4	39	4	4	2	I	1	0	371	1	Ⴡ	cut_s_stereo_44KHz.wav
4	40	2	2	1	C	2	1	349	1	Ⴊ	cut_ei_stereo_44KHz.wav
4	41	1	1	1	C	1	0	657	0	Ⴟ	cut_r_stereo_44KHz.wav
4	42	4	3	2	I	1	0	522	0	Ⴡ	cut_n_stereo_44KHz.wav
4	43	2	1	0	C	1	1	148	1	Ⴊ	cut_r_stereo_44KHz.wav
4	44	3	3	2	I	2	0	703	1	Ⴁ	cut_n_stereo_44KHz.wav
4	45	2	2	1	C	2	1	895	1	Ⴊ	cut_ei_stereo_44KHz.wav
4	46	4	4	2	I	1	0	735	0	Ⴡ	cut_s_stereo_44KHz.wav
4	47	3	4	2	I	2	0	152	1	Ⴁ	cut_s_stereo_44KHz.wav
4	48	1	2	0	C	2	0	408	0	Ⴟ	cut_ei_stereo_44KHz.wav
4	49	4	3	2	I	2	0	416	1	Ⴡ	cut_n_stereo_44KHz.wav
4	50	3	4	2	I	1	0	747	1	Ⴁ	cut_s_stereo_44KHz.wav
4	51	2	2	1	C	1	0	680	0	Ⴊ	cut_ei_stereo_44KHz.wav
4	52	1	2	0	C	2	0	350	0	Ⴟ	cut_ei_stereo_44KHz.wav
4	53	4	4	2	I	2	0	463	0	Ⴡ	cut_s_stereo_44KHz.wav
4	54	2	1	0	C	2	0	211	0	Ⴊ	cut_r_stereo_44KHz.wav
4	55	3	3	2	I	2	0	80	1	Ⴁ	cut_n_stereo_44KHz.wav
4	56	1	1	1	C	2	1	401	1	Ⴟ	cut_r_stereo_44KHz.wav
4	57	3	4	2	I	2	0	504	0	Ⴁ	cut_s_stereo_44KHz.wav
4	58	1	1	1	C	2	1	28	1	Ⴟ	cut_r_stereo_44KHz.wav
4	59	2	2	1	C	1	0	372	0	Ⴊ	cut_ei_stereo_44KHz.wav
4	60	4	3	2	I	1	0	521	1	Ⴡ	cut_n_stereo_44KHz.wav
4	61	1	2	0	C	2	0	1324	0	Ⴟ	cut_ei_stereo_44KHz.wav
4	62	4	4	2	I	2	0	927	1	Ⴡ	cut_s_stereo_44KHz.wav
4	63	3	3	2	I	2	0	640	0	Ⴁ	cut_n_stereo_44KHz.wav
4	64	2	1	0	C	1	1	1015	1	Ⴊ	cut_r_stereo_44KHz.wav
4	65	1	1	1	C	1	0	1419	0	Ⴟ	cut_r_stereo_44KHz.wav
4	66	2	1	0	C	2	0	995	0	Ⴊ	cut_r_stereo_44KHz.wav
4	67	4	4	2	I	1	0	1224	1	Ⴡ	cut_s_stereo_44KHz.wav
4	68	3	3	2	I	2	0	694	1	Ⴁ	cut_n_stereo_44KHz.wav
4	69	2	2	1	C	2	1	1418	1	Ⴊ	cut_ei_stereo_44KHz.wav
4	70	3	4	2	I	1	0	721	1	Ⴁ	cut_s_stereo_44KHz.wav
4	71	4	3	2	I	1	0	1007	1	Ⴡ	cut_n_stereo_44KHz.wav
4	72	1	2	0	C	2	0	885	0	Ⴟ	cut_ei_stereo_44KHz.wav
4	73	3	4	2	I	2	0	1420	1	Ⴁ	cut_s_stereo_44KHz.wav
4	74	2	1	0	C	2	0	358	0	Ⴊ	cut_r_stereo_44KHz.wav
4	75	1	2	0	C	1	1	1192	1	Ⴟ	cut_ei_stereo_44KHz.wav
4	76	4	4	2	I	1	0	966	1	Ⴡ	cut_s_stereo_44KHz.wav
4	77	1	1	1	C	2	1	1108	1	Ⴟ	cut_r_stereo_44KHz.wav
4	78	3	3	2	I	1	0	733	1	Ⴁ	cut_n_stereo_44KHz.wav
4	79	4	3	2	I	1	0	1294	1	Ⴡ	cut_n_stereo_44KHz.wav
4	80	2	2	1	C	2	1	917	1	Ⴊ	cut_ei_stereo_44KHz.wav
4	81	1	1	1	C	1	0	627	0	Ⴟ	cut_r_stereo_44KHz.wav
4	82	4	3	2	I	1	0	425	0	Ⴡ	cut_n_stereo_44KHz.wav
4	83	3	4	2	I	2	0	357	1	Ⴁ	cut_s_stereo_44KHz.wav
4	84	2	1	0	C	1	1	478	1	Ⴊ	cut_r_stereo_44KHz.wav
4	85	4	4	2	I	1	0	1231	1	Ⴡ	cut_s_stereo_44KHz.wav
4	86	1	2	0	C	1	1	1004	1	Ⴟ	cut_ei_stereo_44KHz.wav
4	87	2	2	1	C	2	1	866	1	Ⴊ	cut_ei_stereo_44KHz.wav
4	88	3	3	2	I	1	0	1094	1	Ⴁ	cut_n_stereo_44KHz.wav
4	89	1	2	0	C	2	0	873	0	Ⴟ	cut_ei_stereo_44KHz.wav
4	90	4	3	2	I	1	0	1023	1	Ⴡ	cut_n_stereo_44KHz.wav
4	91	2	1	0	C	1	1	47	1	Ⴊ	cut_r_stereo_44KHz.wav
4	92	3	4	2	I	2	0	382	0	Ⴁ	cut_s_stereo_44KHz.wav
4	93	2	2	1	C	1	0	656	0	Ⴊ	cut_ei_stereo_44KHz.wav
4	94	1	1	1	C	2	1	982	1	Ⴟ	cut_r_stereo_44KHz.wav
4	95	4	4	2	I	1	0	727	1	Ⴡ	cut_s_stereo_44KHz.wav
4	96	3	3	2	I	2	0	981	0	Ⴁ	cut_n_stereo_44KHz.wav
4	97	4	3	2	I	1	0	1	1	Ⴡ	cut_n_stereo_44KHz.wav
4	98	1	1	1	C	2	1	209	1	Ⴟ	cut_r_stereo_44KHz.wav
4	99	3	3	2	I	2	0	17	1	Ⴁ	cut_n_stereo_44KHz.wav
4	100	2	2	1	C	1	0	13	0	Ⴊ	cut_ei_stereo_44KHz.wav
4	101	4	4	2	I	2	0	765	1	Ⴡ	cut_s_stereo_44KHz.wav
4	102	3	4	2	I	2	0	657	1	Ⴁ	cut_s_stereo_44KHz.wav
4	103	1	2	0	C	1	1	580	1	Ⴟ	cut_ei_stereo_44KHz.wav
4	104	2	1	0	C	2	0	606	0	Ⴊ	cut_r_stereo_44KHz.wav
4	105	3	4	2	I	2	0	125	1	Ⴁ	cut_s_stereo_44KHz.wav
4	106	4	4	2	I	2	0	241	1	Ⴡ	cut_s_stereo_44KHz.wav
4	107	2	1	0	C	2	0	419	0	Ⴊ	cut_r_stereo_44KHz.wav
4	108	1	1	1	C	2	1	178	1	Ⴟ	cut_r_stereo_44KHz.wav
4	109	4	3	2	I	2	0	549	1	Ⴡ	cut_n_stereo_44KHz.wav
4	110	1	2	0	C	2	0	351	0	Ⴟ	cut_ei_stereo_44KHz.wav
4	111	2	2	1	C	2	1	236	1	Ⴊ	cut_ei_stereo_44KHz.wav
4	112	3	3	2	I	2	0	1160	1	Ⴁ	cut_n_stereo_44KHz.wav
4	113	1	2	0	C	1	1	1136	1	Ⴟ	cut_ei_stereo_44KHz.wav
4	114	4	4	2	I	1	0	750	1	Ⴡ	cut_s_stereo_44KHz.wav
4	115	3	3	2	I	2	0	911	1	Ⴁ	cut_n_stereo_44KHz.wav
4	116	2	2	1	C	2	1	1363	1	Ⴊ	cut_ei_stereo_44KHz.wav
4	117	4	3	2	I	1	0	744	1	Ⴡ	cut_n_stereo_44KHz.wav
4	118	3	4	2	I	2	0	883	1	Ⴁ	cut_s_stereo_44KHz.wav
4	119	2	1	0	C	1	1	772	1	Ⴊ	cut_r_stereo_44KHz.wav
4	120	1	1	1	C	2	1	1060	1	Ⴟ	cut_r_stereo_44KHz.wav
4	121	2	2	1	C	2	1	1023	1	Ⴊ	cut_ei_stereo_44KHz.wav
4	122	3	3	2	I	2	0	1070	1	Ⴁ	cut_n_stereo_44KHz.wav
4	123	1	1	1	C	2	1	1360	1	Ⴟ	cut_r_stereo_44KHz.wav
4	124	4	4	2	I	1	0	1115	1	Ⴡ	cut_s_stereo_44KHz.wav
4	125	3	4	2	I	2	0	843	1	Ⴁ	cut_s_stereo_44KHz.wav
4	126	1	2	0	C	1	1	703	1	Ⴟ	cut_ei_stereo_44KHz.wav
4	127	4	3	2	I	1	0	755	1	Ⴡ	cut_n_stereo_44KHz.wav
4	128	2	1	0	C	1	1	1014	1	Ⴊ	cut_r_stereo_44KHz.wav
4	129	3	3	2	I	2	0	1096	1	Ⴁ	cut_n_stereo_44KHz.wav
4	130	4	3	2	I	1	0	892	1	Ⴡ	cut_n_stereo_44KHz.wav
4	131	1	1	1	C	2	1	966	1	Ⴟ	cut_r_stereo_44KHz.wav
4	132	2	2	1	C	2	1	1173	1	Ⴊ	cut_ei_stereo_44KHz.wav
4	133	1	2	0	C	1	1	1169	1	Ⴟ	cut_ei_stereo_44KHz.wav
4	134	2	1	0	C	2	0	908	0	Ⴊ	cut_r_stereo_44KHz.wav
4	135	4	4	2	I	1	0	434	0	Ⴡ	cut_s_stereo_44KHz.wav
4	136	3	4	2	I	2	0	691	1	Ⴁ	cut_s_stereo_44KHz.wav
4	137	1	2	0	C	1	1	1302	1	Ⴟ	cut_ei_stereo_44KHz.wav
4	138	4	3	2	I	1	0	904	1	Ⴡ	cut_n_stereo_44KHz.wav
4	139	2	1	0	C	1	1	1084	1	Ⴊ	cut_r_stereo_44KHz.wav
4	140	3	3	2	I	1	0	373	1	Ⴁ	cut_n_stereo_44KHz.wav
4	141	1	1	1	C	2	1	1018	1	Ⴟ	cut_r_stereo_44KHz.wav
4	142	3	4	2	I	2	0	878	1	Ⴁ	cut_s_stereo_44KHz.wav
4	143	2	2	1	C	2	1	1461	1	Ⴊ	cut_ei_stereo_44KHz.wav
4	144	4	4	2	I	1	0	863	1	Ⴡ	cut_s_stereo_44KHz.wav
4	145	3	4	2	I	2	0	1146	1	Ⴁ	cut_s_stereo_44KHz.wav
4	146	4	3	2	I	1	0	1297	1	Ⴡ	cut_n_stereo_44KHz.wav
4	147	1	2	0	C	1	1	911	1	Ⴟ	cut_ei_stereo_44KHz.wav
4	148	2	2	1	C	1	0	453	0	Ⴊ	cut_ei_stereo_44KHz.wav
4	149	4	4	2	I	1	0	1112	1	Ⴡ	cut_s_stereo_44KHz.wav
4	150	2	1	0	C	2	0	723	0	Ⴊ	cut_r_stereo_44KHz.wav
4	151	3	3	2	I	2	0	785	1	Ⴁ	cut_n_stereo_44KHz.wav
4	152	1	1	1	C	1	0	1499	0	Ⴟ	cut_r_stereo_44KHz.wav
4	153	3	4	2	I	2	0	909	1	Ⴁ	cut_s_stereo_44KHz.wav
4	154	4	3	2	I	1	0	1724	1	Ⴡ	cut_n_stereo_44KHz.wav
4	155	2	2	1	C	2	1	1198	1	Ⴊ	cut_ei_stereo_44KHz.wav
4	156	1	2	0	C	1	1	838	1	Ⴟ	cut_ei_stereo_44KHz.wav
4	157	3	3	2	I	2	0	913	1	Ⴁ	cut_n_stereo_44KHz.wav
4	158	1	1	1	C	2	1	1030	1	Ⴟ	cut_r_stereo_44KHz.wav
4	159	2	1	0	C	1	1	868	1	Ⴊ	cut_r_stereo_44KHz.wav
4	160	4	4	2	I	1	0	860	1	Ⴡ	cut_s_stereo_44KHz.wav
4	161	2	1	0	C	1	1	1131	1	Ⴊ	cut_r_stereo_44KHz.wav
4	162	3	4	2	I	2	0	793	1	Ⴁ	cut_s_stereo_44KHz.wav
4	163	1	1	1	C	2	1	1184	1	Ⴟ	cut_r_stereo_44KHz.wav
4	164	4	3	2	I	1	0	1141	1	Ⴡ	cut_n_stereo_44KHz.wav
4	165	3	3	2	I	2	0	883	0	Ⴁ	cut_n_stereo_44KHz.wav
4	166	2	2	1	C	2	1	865	1	Ⴊ	cut_ei_stereo_44KHz.wav
4	167	4	4	2	I	1	0	871	1	Ⴡ	cut_s_stereo_44KHz.wav
4	168	1	2	0	C	1	1	881	1	Ⴟ	cut_ei_stereo_44KHz.wav
4	169	3	4	2	I	1	0	637	0	Ⴁ	cut_s_stereo_44KHz.wav
4	170	4	4	2	I	1	0	1630	1	Ⴡ	cut_s_stereo_44KHz.wav
4	171	1	2	0	C	1	1	797	1	Ⴟ	cut_ei_stereo_44KHz.wav
4	172	2	2	1	C	2	1	880	1	Ⴊ	cut_ei_stereo_44KHz.wav
4	173	3	3	2	I	2	0	1242	1	Ⴁ	cut_n_stereo_44KHz.wav
4	174	2	1	0	C	1	1	1156	1	Ⴊ	cut_r_stereo_44KHz.wav
4	175	1	1	1	C	2	1	1058	1	Ⴟ	cut_r_stereo_44KHz.wav
4	176	4	3	2	I	1	0	1153	1	Ⴡ	cut_n_stereo_44KHz.wav
4	177	2	1	0	C	1	1	855	1	Ⴊ	cut_r_stereo_44KHz.wav
4	178	3	3	2	I	2	0	820	1	Ⴁ	cut_n_stereo_44KHz.wav
4	179	1	2	0	C	1	1	853	1	Ⴟ	cut_ei_stereo_44KHz.wav
4	180	4	3	2	I	1	0	691	1	Ⴡ	cut_n_stereo_44KHz.wav
4	181	1	1	1	C	2	1	1220	1	Ⴟ	cut_r_stereo_44KHz.wav
4	182	3	4	2	I	2	0	1473	1	Ⴁ	cut_s_stereo_44KHz.wav
4	183	2	2	1	C	2	1	1134	1	Ⴊ	cut_ei_stereo_44KHz.wav
4	184	4	4	2	I	1	0	1246	0	Ⴡ	cut_s_stereo_44KHz.wav
4	185	1	1	1	C	2	1	1221	1	Ⴟ	cut_r_stereo_44KHz.wav
4	186	3	3	2	I	2	0	768	1	Ⴁ	cut_n_stereo_44KHz.wav
4	187	4	3	2	I	2	0	927	0	Ⴡ	cut_n_stereo_44KHz.wav
4	188	2	1	0	C	1	1	1061	1	Ⴊ	cut_r_stereo_44KHz.wav
4	189	3	4	2	I	2	0	1157	1	Ⴁ	cut_s_stereo_44KHz.wav
4	190	4	4	2	I	1	0	1164	1	Ⴡ	cut_s_stereo_44KHz.wav
4	191	2	2	1	C	2	1	1224	1	Ⴊ	cut_ei_stereo_44KHz.wav
4	192	1	2	0	C	2	0	731	0	Ⴟ	cut_ei_stereo_44KHz.wav
4	193	2	2	1	C	2	1	1104	1	Ⴊ	cut_ei_stereo_44KHz.wav
4	194	3	3	2	I	2	0	958	0	Ⴁ	cut_n_stereo_44KHz.wav
4	195	4	3	2	I	1	0	895	1	Ⴡ	cut_n_stereo_44KHz.wav
4	196	1	2	0	C	1	1	1575	1	Ⴟ	cut_ei_stereo_44KHz.wav
4	197	3	4	2	I	2	0	778	0	Ⴁ	cut_s_stereo_44KHz.wav
4	198	4	4	2	I	1	0	752	1	Ⴡ	cut_s_stereo_44KHz.wav
4	199	2	1	0	C	1	1	730	1	Ⴊ	cut_r_stereo_44KHz.wav
4	200	1	1	1	C	2	1	981	1	Ⴟ	cut_r_stereo_44KHz.wav
