block	trial	Vstim	Astim	match	C/I	resp	result	RT	fb	V-file	A-file
RL

0	1	1	2	0	C	2	1	681	1	Ⴢ	cut_oo_stereo_44KHz.wav
0	2	1	1	1	C	2	0	313	0	Ⴢ	cut_ee_stereo_44KHz.wav
0	3	2	3	1	C	1	1	307	1	Ⴋ	cut_eeuw_stereo_44KHz.wav
0	4	2	4	0	C	2	1	302	1	Ⴋ	cut_g_stereo_44KHz.wav
0	5	2	3	1	C	1	1	1762	1	Ⴋ	cut_eeuw_stereo_44KHz.wav
0	6	2	4	0	C	1	0	1256	0	Ⴋ	cut_g_stereo_44KHz.wav
0	7	1	2	0	C	2	1	656	1	Ⴢ	cut_oo_stereo_44KHz.wav
0	8	1	1	1	C	2	0	547	0	Ⴢ	cut_ee_stereo_44KHz.wav
0	9	1	1	1	C	1	1	536	1	Ⴢ	cut_ee_stereo_44KHz.wav
0	10	2	4	0	C	2	1	465	1	Ⴋ	cut_g_stereo_44KHz.wav
0	11	2	3	1	C	1	1	309	1	Ⴋ	cut_eeuw_stereo_44KHz.wav
0	12	1	2	0	C	2	1	307	1	Ⴢ	cut_oo_stereo_44KHz.wav
0	13	2	4	0	C	1	0	1396	0	Ⴋ	cut_g_stereo_44KHz.wav
0	14	1	1	1	C	2	0	565	0	Ⴢ	cut_ee_stereo_44KHz.wav
0	15	2	3	1	C	1	1	213	1	Ⴋ	cut_eeuw_stereo_44KHz.wav
0	16	1	2	0	C	2	1	1341	1	Ⴢ	cut_oo_stereo_44KHz.wav
0	17	2	3	1	C	1	1	700	1	Ⴋ	cut_eeuw_stereo_44KHz.wav
0	18	1	2	0	C	1	0	750	0	Ⴢ	cut_oo_stereo_44KHz.wav
0	19	1	1	1	C	2	0	353	0	Ⴢ	cut_ee_stereo_44KHz.wav
0	20	2	4	0	C	1	0	645	0	Ⴋ	cut_g_stereo_44KHz.wav
0	21	1	2	0	C	1	0	725	0	Ⴢ	cut_oo_stereo_44KHz.wav
0	22	2	4	0	C	1	0	393	0	Ⴋ	cut_g_stereo_44KHz.wav
0	23	1	1	1	C	1	1	542	1	Ⴢ	cut_ee_stereo_44KHz.wav
0	24	2	3	1	C	1	1	789	1	Ⴋ	cut_eeuw_stereo_44KHz.wav
0	25	1	2	0	C	1	0	973	0	Ⴢ	cut_oo_stereo_44KHz.wav
0	26	1	1	1	C	2	0	581	0	Ⴢ	cut_ee_stereo_44KHz.wav
0	27	2	3	1	C	1	1	176	1	Ⴋ	cut_eeuw_stereo_44KHz.wav
0	28	2	4	0	C	1	0	1261	0	Ⴋ	cut_g_stereo_44KHz.wav
0	29	1	2	0	C	1	0	490	0	Ⴢ	cut_oo_stereo_44KHz.wav
0	30	2	3	1	C	0	0	0	0	Ⴋ	cut_eeuw_stereo_44KHz.wav
avg_resp = 606
1	1	2	1	0	C	1	0	1543	0	Ⴂ	cut_oei_stereo_44KHz.wav
1	2	1	1	1	C	1	1	171	1	Ⴡ	cut_oei_stereo_44KHz.wav
1	3	3	4	2	I	1	0	1416	1	Ⴇ	cut_ui_stereo_44KHz.wav
1	4	4	3	2	I	0	0	0	0	Ⴊ	cut_j_stereo_44KHz.wav
1	5	1	2	0	C	0	0	0	0	Ⴡ	cut_r_stereo_44KHz.wav
1	6	4	4	2	I	2	0	490	1	Ⴊ	cut_ui_stereo_44KHz.wav
1	7	3	3	2	I	0	0	0	0	Ⴇ	cut_j_stereo_44KHz.wav
1	8	2	2	1	C	2	0	270	0	Ⴂ	cut_r_stereo_44KHz.wav
1	9	4	4	2	I	1	0	658	1	Ⴊ	cut_ui_stereo_44KHz.wav
1	10	3	4	2	I	1	0	614	1	Ⴇ	cut_ui_stereo_44KHz.wav
1	11	1	2	0	C	2	1	381	1	Ⴡ	cut_r_stereo_44KHz.wav
1	12	2	1	0	C	1	0	707	0	Ⴂ	cut_oei_stereo_44KHz.wav
1	13	3	3	2	I	2	0	535	0	Ⴇ	cut_j_stereo_44KHz.wav
1	14	1	1	1	C	1	1	347	1	Ⴡ	cut_oei_stereo_44KHz.wav
1	15	4	3	2	I	2	0	793	1	Ⴊ	cut_j_stereo_44KHz.wav
1	16	2	2	1	C	1	1	914	1	Ⴂ	cut_r_stereo_44KHz.wav
1	17	1	2	0	C	1	0	969	0	Ⴡ	cut_r_stereo_44KHz.wav
1	18	4	4	2	I	2	0	637	1	Ⴊ	cut_ui_stereo_44KHz.wav
1	19	2	2	1	C	1	1	974	1	Ⴂ	cut_r_stereo_44KHz.wav
1	20	3	3	2	I	2	0	1002	1	Ⴇ	cut_j_stereo_44KHz.wav
1	21	1	1	1	C	2	0	1733	0	Ⴡ	cut_oei_stereo_44KHz.wav
1	22	4	3	2	I	0	0	0	0	Ⴊ	cut_j_stereo_44KHz.wav
1	23	2	1	0	C	1	0	561	0	Ⴂ	cut_oei_stereo_44KHz.wav
1	24	3	4	2	I	1	0	387	0	Ⴇ	cut_ui_stereo_44KHz.wav
1	25	1	1	1	C	2	0	613	0	Ⴡ	cut_oei_stereo_44KHz.wav
1	26	3	4	2	I	2	0	716	0	Ⴇ	cut_ui_stereo_44KHz.wav
1	27	2	2	1	C	1	1	664	1	Ⴂ	cut_r_stereo_44KHz.wav
1	28	4	3	2	I	1	0	320	0	Ⴊ	cut_j_stereo_44KHz.wav
1	29	2	1	0	C	2	1	356	1	Ⴂ	cut_oei_stereo_44KHz.wav
1	30	1	2	0	C	1	0	437	0	Ⴡ	cut_r_stereo_44KHz.wav
1	31	4	4	2	I	2	0	576	1	Ⴊ	cut_ui_stereo_44KHz.wav
1	32	3	3	2	I	1	0	993	0	Ⴇ	cut_j_stereo_44KHz.wav
1	33	4	4	2	I	2	0	683	0	Ⴊ	cut_ui_stereo_44KHz.wav
1	34	1	2	0	C	1	0	738	0	Ⴡ	cut_r_stereo_44KHz.wav
1	35	3	4	2	I	1	0	552	1	Ⴇ	cut_ui_stereo_44KHz.wav
1	36	2	1	0	C	2	1	480	1	Ⴂ	cut_oei_stereo_44KHz.wav
1	37	3	3	2	I	2	0	579	1	Ⴇ	cut_j_stereo_44KHz.wav
1	38	2	2	1	C	1	1	409	1	Ⴂ	cut_r_stereo_44KHz.wav
1	39	1	1	1	C	1	1	3	1	Ⴡ	cut_oei_stereo_44KHz.wav
1	40	4	3	2	I	1	0	480	0	Ⴊ	cut_j_stereo_44KHz.wav
1	41	2	1	0	C	1	0	304	0	Ⴂ	cut_oei_stereo_44KHz.wav
1	42	4	3	2	I	2	0	395	0	Ⴊ	cut_j_stereo_44KHz.wav
1	43	3	3	2	I	1	0	658	1	Ⴇ	cut_j_stereo_44KHz.wav
1	44	1	1	1	C	1	1	283	1	Ⴡ	cut_oei_stereo_44KHz.wav
1	45	3	4	2	I	2	0	532	1	Ⴇ	cut_ui_stereo_44KHz.wav
1	46	1	2	0	C	1	0	792	0	Ⴡ	cut_r_stereo_44KHz.wav
1	47	4	4	2	I	2	0	574	1	Ⴊ	cut_ui_stereo_44KHz.wav
1	48	2	2	1	C	1	1	329	1	Ⴂ	cut_r_stereo_44KHz.wav
1	49	1	2	0	C	2	1	565	1	Ⴡ	cut_r_stereo_44KHz.wav
1	50	4	3	2	I	0	0	0	0	Ⴊ	cut_j_stereo_44KHz.wav
1	51	2	2	1	C	2	0	328	0	Ⴂ	cut_r_stereo_44KHz.wav
1	52	3	4	2	I	1	0	447	1	Ⴇ	cut_ui_stereo_44KHz.wav
1	53	2	1	0	C	2	1	105	1	Ⴂ	cut_oei_stereo_44KHz.wav
1	54	3	3	2	I	1	0	395	1	Ⴇ	cut_j_stereo_44KHz.wav
1	55	1	1	1	C	2	0	832	0	Ⴡ	cut_oei_stereo_44KHz.wav
1	56	4	4	2	I	1	0	330	1	Ⴊ	cut_ui_stereo_44KHz.wav
1	57	2	2	1	C	2	0	297	0	Ⴂ	cut_r_stereo_44KHz.wav
1	58	3	3	2	I	1	0	587	1	Ⴇ	cut_j_stereo_44KHz.wav
1	59	1	2	0	C	1	0	431	0	Ⴡ	cut_r_stereo_44KHz.wav
1	60	4	3	2	I	2	0	276	1	Ⴊ	cut_j_stereo_44KHz.wav
1	61	3	4	2	I	2	0	902	1	Ⴇ	cut_ui_stereo_44KHz.wav
1	62	1	1	1	C	1	1	978	1	Ⴡ	cut_oei_stereo_44KHz.wav
1	63	4	4	2	I	2	0	1543	0	Ⴊ	cut_ui_stereo_44KHz.wav
1	64	2	1	0	C	1	0	353	0	Ⴂ	cut_oei_stereo_44KHz.wav
1	65	4	3	2	I	2	0	486	1	Ⴊ	cut_j_stereo_44KHz.wav
1	66	2	1	0	C	1	0	382	0	Ⴂ	cut_oei_stereo_44KHz.wav
1	67	3	3	2	I	2	0	565	1	Ⴇ	cut_j_stereo_44KHz.wav
1	68	1	1	1	C	1	1	672	1	Ⴡ	cut_oei_stereo_44KHz.wav
1	69	2	2	1	C	2	0	1959	0	Ⴂ	cut_r_stereo_44KHz.wav
1	70	3	4	2	I	1	0	793	1	Ⴇ	cut_ui_stereo_44KHz.wav
1	71	4	4	2	I	1	0	628	1	Ⴊ	cut_ui_stereo_44KHz.wav
1	72	1	2	0	C	1	0	769	0	Ⴡ	cut_r_stereo_44KHz.wav
1	73	2	1	0	C	2	1	850	1	Ⴂ	cut_oei_stereo_44KHz.wav
1	74	3	3	2	I	2	0	422	1	Ⴇ	cut_j_stereo_44KHz.wav
1	75	1	1	1	C	2	0	1234	0	Ⴡ	cut_oei_stereo_44KHz.wav
1	76	4	4	2	I	1	0	608	1	Ⴊ	cut_ui_stereo_44KHz.wav
1	77	2	2	1	C	2	0	460	0	Ⴂ	cut_r_stereo_44KHz.wav
1	78	4	3	2	I	1	0	1027	1	Ⴊ	cut_j_stereo_44KHz.wav
1	79	3	4	2	I	2	0	989	1	Ⴇ	cut_ui_stereo_44KHz.wav
1	80	1	2	0	C	2	1	1505	1	Ⴡ	cut_r_stereo_44KHz.wav
1	81	3	3	2	I	2	0	452	1	Ⴇ	cut_j_stereo_44KHz.wav
1	82	2	2	1	C	0	0	0	0	Ⴂ	cut_r_stereo_44KHz.wav
1	83	1	1	1	C	2	0	612	0	Ⴡ	cut_oei_stereo_44KHz.wav
1	84	4	3	2	I	0	0	0	0	Ⴊ	cut_j_stereo_44KHz.wav
1	85	2	1	0	C	1	0	357	0	Ⴂ	cut_oei_stereo_44KHz.wav
1	86	4	4	2	I	2	0	385	1	Ⴊ	cut_ui_stereo_44KHz.wav
1	87	3	4	2	I	1	0	553	1	Ⴇ	cut_ui_stereo_44KHz.wav
1	88	1	2	0	C	2	1	40	1	Ⴡ	cut_r_stereo_44KHz.wav
1	89	3	3	2	I	2	0	418	1	Ⴇ	cut_j_stereo_44KHz.wav
1	90	2	2	1	C	1	1	299	1	Ⴂ	cut_r_stereo_44KHz.wav
1	91	4	4	2	I	1	0	283	1	Ⴊ	cut_ui_stereo_44KHz.wav
1	92	1	2	0	C	2	1	599	1	Ⴡ	cut_r_stereo_44KHz.wav
1	93	3	4	2	I	1	0	299	1	Ⴇ	cut_ui_stereo_44KHz.wav
1	94	1	1	1	C	1	1	343	1	Ⴡ	cut_oei_stereo_44KHz.wav
1	95	2	1	0	C	2	1	325	1	Ⴂ	cut_oei_stereo_44KHz.wav
1	96	4	3	2	I	1	0	18	1	Ⴊ	cut_j_stereo_44KHz.wav
1	97	2	1	0	C	2	1	503	1	Ⴂ	cut_oei_stereo_44KHz.wav
1	98	1	1	1	C	2	0	850	0	Ⴡ	cut_oei_stereo_44KHz.wav
1	99	3	3	2	I	1	0	124	1	Ⴇ	cut_j_stereo_44KHz.wav
1	100	4	4	2	I	1	0	303	1	Ⴊ	cut_ui_stereo_44KHz.wav
1	101	1	2	0	C	2	1	487	1	Ⴡ	cut_r_stereo_44KHz.wav
1	102	2	2	1	C	2	0	509	0	Ⴂ	cut_r_stereo_44KHz.wav
1	103	3	4	2	I	1	0	238	1	Ⴇ	cut_ui_stereo_44KHz.wav
1	104	4	3	2	I	1	0	169	1	Ⴊ	cut_j_stereo_44KHz.wav
1	105	3	4	2	I	1	0	408	0	Ⴇ	cut_ui_stereo_44KHz.wav
1	106	2	2	1	C	1	1	287	1	Ⴂ	cut_r_stereo_44KHz.wav
1	107	1	2	0	C	1	0	428	0	Ⴡ	cut_r_stereo_44KHz.wav
1	108	4	4	2	I	2	0	326	1	Ⴊ	cut_ui_stereo_44KHz.wav
1	109	3	3	2	I	1	0	403	1	Ⴇ	cut_j_stereo_44KHz.wav
1	110	2	1	0	C	0	0	0	0	Ⴂ	cut_oei_stereo_44KHz.wav
1	111	1	1	1	C	2	0	336	0	Ⴡ	cut_oei_stereo_44KHz.wav
1	112	4	3	2	I	0	0	0	0	Ⴊ	cut_j_stereo_44KHz.wav
1	113	1	2	0	C	2	1	388	1	Ⴡ	cut_r_stereo_44KHz.wav
1	114	4	3	2	I	0	0	0	0	Ⴊ	cut_j_stereo_44KHz.wav
1	115	2	2	1	C	1	1	1070	1	Ⴂ	cut_r_stereo_44KHz.wav
1	116	3	3	2	I	2	0	319	1	Ⴇ	cut_j_stereo_44KHz.wav
1	117	2	1	0	C	1	0	397	0	Ⴂ	cut_oei_stereo_44KHz.wav
1	118	1	1	1	C	2	0	103	0	Ⴡ	cut_oei_stereo_44KHz.wav
1	119	3	4	2	I	1	0	470	1	Ⴇ	cut_ui_stereo_44KHz.wav
1	120	4	4	2	I	1	0	689	1	Ⴊ	cut_ui_stereo_44KHz.wav
1	121	1	2	0	C	2	1	280	1	Ⴡ	cut_r_stereo_44KHz.wav
1	122	2	2	1	C	2	0	438	0	Ⴂ	cut_r_stereo_44KHz.wav
1	123	4	3	2	I	1	0	311	1	Ⴊ	cut_j_stereo_44KHz.wav
1	124	3	3	2	I	1	0	857	1	Ⴇ	cut_j_stereo_44KHz.wav
1	125	2	1	0	C	2	1	394	1	Ⴂ	cut_oei_stereo_44KHz.wav
1	126	3	4	2	I	2	0	1886	1	Ⴇ	cut_ui_stereo_44KHz.wav
1	127	1	1	1	C	1	1	870	1	Ⴡ	cut_oei_stereo_44KHz.wav
1	128	4	4	2	I	1	0	95	1	Ⴊ	cut_ui_stereo_44KHz.wav
1	129	1	1	1	C	1	1	621	1	Ⴡ	cut_oei_stereo_44KHz.wav
1	130	3	3	2	I	1	0	1488	1	Ⴇ	cut_j_stereo_44KHz.wav
1	131	2	1	0	C	1	0	379	0	Ⴂ	cut_oei_stereo_44KHz.wav
1	132	4	4	2	I	2	0	151	1	Ⴊ	cut_ui_stereo_44KHz.wav
1	133	2	2	1	C	2	0	44	0	Ⴂ	cut_r_stereo_44KHz.wav
1	134	3	4	2	I	2	0	757	0	Ⴇ	cut_ui_stereo_44KHz.wav
1	135	1	2	0	C	1	0	513	0	Ⴡ	cut_r_stereo_44KHz.wav
1	136	4	3	2	I	2	0	323	1	Ⴊ	cut_j_stereo_44KHz.wav
1	137	2	1	0	C	1	0	820	0	Ⴂ	cut_oei_stereo_44KHz.wav
1	138	4	4	2	I	2	0	351	1	Ⴊ	cut_ui_stereo_44KHz.wav
1	139	3	3	2	I	1	0	127	1	Ⴇ	cut_j_stereo_44KHz.wav
1	140	1	2	0	C	1	0	358	0	Ⴡ	cut_r_stereo_44KHz.wav
1	141	2	2	1	C	1	1	472	1	Ⴂ	cut_r_stereo_44KHz.wav
1	142	4	3	2	I	2	0	1169	0	Ⴊ	cut_j_stereo_44KHz.wav
1	143	1	1	1	C	1	1	579	1	Ⴡ	cut_oei_stereo_44KHz.wav
1	144	3	4	2	I	1	0	434	1	Ⴇ	cut_ui_stereo_44KHz.wav
1	145	2	1	0	C	2	1	379	1	Ⴂ	cut_oei_stereo_44KHz.wav
1	146	1	1	1	C	2	0	443	0	Ⴡ	cut_oei_stereo_44KHz.wav
1	147	3	3	2	I	1	0	1619	0	Ⴇ	cut_j_stereo_44KHz.wav
1	148	4	4	2	I	2	0	523	1	Ⴊ	cut_ui_stereo_44KHz.wav
1	149	2	2	1	C	1	1	559	1	Ⴂ	cut_r_stereo_44KHz.wav
1	150	3	4	2	I	2	0	371	0	Ⴇ	cut_ui_stereo_44KHz.wav
1	151	1	2	0	C	1	0	182	0	Ⴡ	cut_r_stereo_44KHz.wav
1	152	4	3	2	I	0	0	0	0	Ⴊ	cut_j_stereo_44KHz.wav
1	153	2	1	0	C	2	1	1469	1	Ⴂ	cut_oei_stereo_44KHz.wav
1	154	4	3	2	I	1	0	750	1	Ⴊ	cut_j_stereo_44KHz.wav
1	155	3	4	2	I	2	0	652	1	Ⴇ	cut_ui_stereo_44KHz.wav
1	156	1	2	0	C	2	1	566	1	Ⴡ	cut_r_stereo_44KHz.wav
1	157	3	3	2	I	2	0	343	0	Ⴇ	cut_j_stereo_44KHz.wav
1	158	2	2	1	C	2	0	534	0	Ⴂ	cut_r_stereo_44KHz.wav
1	159	1	1	1	C	2	0	430	0	Ⴡ	cut_oei_stereo_44KHz.wav
1	160	4	4	2	I	1	0	355	1	Ⴊ	cut_ui_stereo_44KHz.wav
1	161	3	4	2	I	1	0	567	1	Ⴇ	cut_ui_stereo_44KHz.wav
1	162	2	2	1	C	1	1	655	1	Ⴂ	cut_r_stereo_44KHz.wav
1	163	1	1	1	C	2	0	595	0	Ⴡ	cut_oei_stereo_44KHz.wav
1	164	4	3	2	I	1	0	687	1	Ⴊ	cut_j_stereo_44KHz.wav
1	165	3	3	2	I	1	0	792	1	Ⴇ	cut_j_stereo_44KHz.wav
1	166	2	1	0	C	2	1	146	1	Ⴂ	cut_oei_stereo_44KHz.wav
1	167	1	2	0	C	1	0	706	0	Ⴡ	cut_r_stereo_44KHz.wav
1	168	4	4	2	I	2	0	288	1	Ⴊ	cut_ui_stereo_44KHz.wav
1	169	1	2	0	C	1	0	1650	0	Ⴡ	cut_r_stereo_44KHz.wav
1	170	4	3	2	I	2	0	431	0	Ⴊ	cut_j_stereo_44KHz.wav
1	171	2	2	1	C	1	1	182	1	Ⴂ	cut_r_stereo_44KHz.wav
1	172	3	4	2	I	2	0	267	1	Ⴇ	cut_ui_stereo_44KHz.wav
1	173	1	1	1	C	1	1	481	1	Ⴡ	cut_oei_stereo_44KHz.wav
1	174	2	1	0	C	1	0	255	0	Ⴂ	cut_oei_stereo_44KHz.wav
1	175	3	3	2	I	2	0	1113	1	Ⴇ	cut_j_stereo_44KHz.wav
1	176	4	4	2	I	1	0	235	1	Ⴊ	cut_ui_stereo_44KHz.wav
1	177	1	2	0	C	2	1	614	1	Ⴡ	cut_r_stereo_44KHz.wav
1	178	2	2	1	C	2	0	140	0	Ⴂ	cut_r_stereo_44KHz.wav
1	179	4	4	2	I	0	0	0	0	Ⴊ	cut_ui_stereo_44KHz.wav
1	180	3	4	2	I	1	0	916	1	Ⴇ	cut_ui_stereo_44KHz.wav
1	181	4	3	2	I	2	0	753	1	Ⴊ	cut_j_stereo_44KHz.wav
1	182	3	3	2	I	1	0	727	1	Ⴇ	cut_j_stereo_44KHz.wav
1	183	2	1	0	C	2	1	28	1	Ⴂ	cut_oei_stereo_44KHz.wav
1	184	1	1	1	C	2	0	1494	0	Ⴡ	cut_oei_stereo_44KHz.wav
1	185	2	1	0	C	1	0	218	0	Ⴂ	cut_oei_stereo_44KHz.wav
1	186	1	1	1	C	2	0	310	0	Ⴡ	cut_oei_stereo_44KHz.wav
1	187	4	3	2	I	1	0	352	0	Ⴊ	cut_j_stereo_44KHz.wav
1	188	3	4	2	I	1	0	378	0	Ⴇ	cut_ui_stereo_44KHz.wav
1	189	2	2	1	C	2	0	848	0	Ⴂ	cut_r_stereo_44KHz.wav
1	190	1	2	0	C	0	0	0	0	Ⴡ	cut_r_stereo_44KHz.wav
1	191	4	4	2	I	1	0	1286	0	Ⴊ	cut_ui_stereo_44KHz.wav
1	192	3	3	2	I	2	0	1500	1	Ⴇ	cut_j_stereo_44KHz.wav
1	193	2	2	1	C	1	1	647	1	Ⴂ	cut_r_stereo_44KHz.wav
1	194	1	2	0	C	2	1	605	1	Ⴡ	cut_r_stereo_44KHz.wav
1	195	3	3	2	I	1	0	337	1	Ⴇ	cut_j_stereo_44KHz.wav
1	196	4	4	2	I	2	0	788	1	Ⴊ	cut_ui_stereo_44KHz.wav
1	197	1	1	1	C	1	1	387	1	Ⴡ	cut_oei_stereo_44KHz.wav
1	198	2	1	0	C	2	1	335	1	Ⴂ	cut_oei_stereo_44KHz.wav
1	199	4	3	2	I	1	0	157	1	Ⴊ	cut_j_stereo_44KHz.wav
1	200	3	4	2	I	2	0	1075	1	Ⴇ	cut_ui_stereo_44KHz.wav
2	1	3	4	2	I	2	0	1264	1	Ⴌ	cut_s_stereo_44KHz.wav
2	2	1	2	0	C	1	0	264	0	Ⴏ	cut_ei_stereo_44KHz.wav
2	3	4	3	2	I	2	0	333	1	Ⴉ	cut_f_stereo_44KHz.wav
2	4	2	2	1	C	2	0	746	0	Ⴒ	cut_ei_stereo_44KHz.wav
2	5	1	1	1	C	1	1	1564	1	Ⴏ	cut_n_stereo_44KHz.wav
2	6	4	4	2	I	1	0	1029	1	Ⴉ	cut_s_stereo_44KHz.wav
2	7	2	1	0	C	1	0	505	0	Ⴒ	cut_n_stereo_44KHz.wav
2	8	3	3	2	I	2	0	432	1	Ⴌ	cut_f_stereo_44KHz.wav
2	9	1	2	0	C	2	1	571	1	Ⴏ	cut_ei_stereo_44KHz.wav
2	10	4	3	2	I	0	0	0	0	Ⴉ	cut_f_stereo_44KHz.wav
2	11	2	1	0	C	1	0	557	0	Ⴒ	cut_n_stereo_44KHz.wav
2	12	3	3	2	I	2	0	799	1	Ⴌ	cut_f_stereo_44KHz.wav
2	13	2	2	1	C	1	1	534	1	Ⴒ	cut_ei_stereo_44KHz.wav
2	14	3	4	2	I	2	0	489	1	Ⴌ	cut_s_stereo_44KHz.wav
2	15	1	1	1	C	1	1	310	1	Ⴏ	cut_n_stereo_44KHz.wav
2	16	4	4	2	I	0	0	0	0	Ⴉ	cut_s_stereo_44KHz.wav
2	17	2	2	1	C	1	1	1064	1	Ⴒ	cut_ei_stereo_44KHz.wav
2	18	3	4	2	I	0	0	0	0	Ⴌ	cut_s_stereo_44KHz.wav
2	19	4	4	2	I	2	0	601	1	Ⴉ	cut_s_stereo_44KHz.wav
2	20	1	1	1	C	2	0	92	0	Ⴏ	cut_n_stereo_44KHz.wav
2	21	3	3	2	I	1	0	295	1	Ⴌ	cut_f_stereo_44KHz.wav
2	22	4	3	2	I	1	0	358	0	Ⴉ	cut_f_stereo_44KHz.wav
2	23	1	2	0	C	2	1	702	1	Ⴏ	cut_ei_stereo_44KHz.wav
2	24	2	1	0	C	1	0	768	0	Ⴒ	cut_n_stereo_44KHz.wav
2	25	1	1	1	C	2	0	381	0	Ⴏ	cut_n_stereo_44KHz.wav
2	26	3	4	2	I	1	0	519	1	Ⴌ	cut_s_stereo_44KHz.wav
2	27	4	4	2	I	1	0	391	1	Ⴉ	cut_s_stereo_44KHz.wav
2	28	2	2	1	C	0	0	0	0	Ⴒ	cut_ei_stereo_44KHz.wav
2	29	3	3	2	I	0	0	0	0	Ⴌ	cut_f_stereo_44KHz.wav
2	30	2	1	0	C	2	1	439	1	Ⴒ	cut_n_stereo_44KHz.wav
2	31	4	3	2	I	2	0	509	1	Ⴉ	cut_f_stereo_44KHz.wav
2	32	1	2	0	C	1	0	1120	0	Ⴏ	cut_ei_stereo_44KHz.wav
2	33	4	4	2	I	2	0	296	0	Ⴉ	cut_s_stereo_44KHz.wav
2	34	3	4	2	I	0	0	0	0	Ⴌ	cut_s_stereo_44KHz.wav
2	35	2	2	1	C	1	1	376	1	Ⴒ	cut_ei_stereo_44KHz.wav
2	36	1	1	1	C	0	0	0	0	Ⴏ	cut_n_stereo_44KHz.wav
2	37	2	1	0	C	2	1	301	1	Ⴒ	cut_n_stereo_44KHz.wav
2	38	3	3	2	I	1	0	47	1	Ⴌ	cut_f_stereo_44KHz.wav
2	39	4	3	2	I	1	0	528	1	Ⴉ	cut_f_stereo_44KHz.wav
2	40	1	2	0	C	2	1	481	1	Ⴏ	cut_ei_stereo_44KHz.wav
2	41	3	3	2	I	2	0	211	1	Ⴌ	cut_f_stereo_44KHz.wav
2	42	1	2	0	C	1	0	1331	0	Ⴏ	cut_ei_stereo_44KHz.wav
2	43	2	1	0	C	2	1	573	1	Ⴒ	cut_n_stereo_44KHz.wav
2	44	4	3	2	I	1	0	498	1	Ⴉ	cut_f_stereo_44KHz.wav
2	45	1	1	1	C	2	0	996	0	Ⴏ	cut_n_stereo_44KHz.wav
2	46	4	4	2	I	1	0	287	1	Ⴉ	cut_s_stereo_44KHz.wav
2	47	2	2	1	C	1	1	567	1	Ⴒ	cut_ei_stereo_44KHz.wav
2	48	3	4	2	I	1	0	457	1	Ⴌ	cut_s_stereo_44KHz.wav
2	49	1	2	0	C	1	0	382	0	Ⴏ	cut_ei_stereo_44KHz.wav
2	50	4	3	2	I	2	0	218	1	Ⴉ	cut_f_stereo_44KHz.wav
2	51	2	1	0	C	1	0	255	0	Ⴒ	cut_n_stereo_44KHz.wav
2	52	3	3	2	I	2	0	535	1	Ⴌ	cut_f_stereo_44KHz.wav
2	53	1	1	1	C	1	1	599	1	Ⴏ	cut_n_stereo_44KHz.wav
2	54	2	2	1	C	2	0	517	0	Ⴒ	cut_ei_stereo_44KHz.wav
2	55	3	4	2	I	0	0	0	0	Ⴌ	cut_s_stereo_44KHz.wav
2	56	4	4	2	I	1	0	48	1	Ⴉ	cut_s_stereo_44KHz.wav
2	57	1	2	0	C	2	1	258	1	Ⴏ	cut_ei_stereo_44KHz.wav
2	58	4	3	2	I	1	0	223	1	Ⴉ	cut_f_stereo_44KHz.wav
2	59	3	4	2	I	2	0	418	1	Ⴌ	cut_s_stereo_44KHz.wav
2	60	2	2	1	C	1	1	500	1	Ⴒ	cut_ei_stereo_44KHz.wav
2	61	3	3	2	I	2	0	643	1	Ⴌ	cut_f_stereo_44KHz.wav
2	62	2	1	0	C	1	0	338	0	Ⴒ	cut_n_stereo_44KHz.wav
2	63	4	4	2	I	2	0	1445	1	Ⴉ	cut_s_stereo_44KHz.wav
2	64	1	1	1	C	1	1	700	1	Ⴏ	cut_n_stereo_44KHz.wav
2	65	4	4	2	I	2	0	289	1	Ⴉ	cut_s_stereo_44KHz.wav
2	66	3	4	2	I	2	0	260	0	Ⴌ	cut_s_stereo_44KHz.wav
2	67	1	2	0	C	1	0	398	0	Ⴏ	cut_ei_stereo_44KHz.wav
2	68	2	2	1	C	1	1	445	1	Ⴒ	cut_ei_stereo_44KHz.wav
2	69	3	3	2	I	2	0	400	1	Ⴌ	cut_f_stereo_44KHz.wav
2	70	4	3	2	I	1	0	815	1	Ⴉ	cut_f_stereo_44KHz.wav
2	71	2	1	0	C	2	1	1481	1	Ⴒ	cut_n_stereo_44KHz.wav
2	72	1	1	1	C	2	0	1782	0	Ⴏ	cut_n_stereo_44KHz.wav
2	73	3	3	2	I	2	0	950	1	Ⴌ	cut_f_stereo_44KHz.wav
2	74	4	3	2	I	1	0	617	1	Ⴉ	cut_f_stereo_44KHz.wav
2	75	1	1	1	C	1	1	1027	1	Ⴏ	cut_n_stereo_44KHz.wav
2	76	2	2	1	C	1	1	667	1	Ⴒ	cut_ei_stereo_44KHz.wav
2	77	3	4	2	I	0	0	0	0	Ⴌ	cut_s_stereo_44KHz.wav
2	78	2	1	0	C	2	1	594	1	Ⴒ	cut_n_stereo_44KHz.wav
2	79	1	2	0	C	2	1	422	1	Ⴏ	cut_ei_stereo_44KHz.wav
2	80	4	4	2	I	2	0	308	1	Ⴉ	cut_s_stereo_44KHz.wav
2	81	3	3	2	I	1	0	1154	1	Ⴌ	cut_f_stereo_44KHz.wav
2	82	2	1	0	C	1	0	59	0	Ⴒ	cut_n_stereo_44KHz.wav
2	83	4	4	2	I	2	0	772	1	Ⴉ	cut_s_stereo_44KHz.wav
2	84	1	1	1	C	1	1	739	1	Ⴏ	cut_n_stereo_44KHz.wav
2	85	4	3	2	I	1	0	634	1	Ⴉ	cut_f_stereo_44KHz.wav
2	86	1	2	0	C	2	1	638	1	Ⴏ	cut_ei_stereo_44KHz.wav
2	87	2	2	1	C	1	1	346	1	Ⴒ	cut_ei_stereo_44KHz.wav
2	88	3	4	2	I	1	0	393	1	Ⴌ	cut_s_stereo_44KHz.wav
2	89	4	4	2	I	2	0	303	1	Ⴉ	cut_s_stereo_44KHz.wav
2	90	3	3	2	I	1	0	23	1	Ⴌ	cut_f_stereo_44KHz.wav
2	91	1	2	0	C	1	0	731	0	Ⴏ	cut_ei_stereo_44KHz.wav
2	92	2	2	1	C	2	0	214	0	Ⴒ	cut_ei_stereo_44KHz.wav
2	93	3	4	2	I	1	0	952	1	Ⴌ	cut_s_stereo_44KHz.wav
2	94	1	1	1	C	2	0	603	0	Ⴏ	cut_n_stereo_44KHz.wav
2	95	4	3	2	I	1	0	368	1	Ⴉ	cut_f_stereo_44KHz.wav
2	96	2	1	0	C	1	0	763	0	Ⴒ	cut_n_stereo_44KHz.wav
2	97	1	1	1	C	2	0	523	0	Ⴏ	cut_n_stereo_44KHz.wav
2	98	2	1	0	C	1	0	512	0	Ⴒ	cut_n_stereo_44KHz.wav
2	99	3	4	2	I	2	0	248	1	Ⴌ	cut_s_stereo_44KHz.wav
2	100	4	3	2	I	2	0	276	1	Ⴉ	cut_f_stereo_44KHz.wav
2	101	2	2	1	C	1	1	385	1	Ⴒ	cut_ei_stereo_44KHz.wav
2	102	1	2	0	C	1	0	165	0	Ⴏ	cut_ei_stereo_44KHz.wav
2	103	3	3	2	I	2	0	295	1	Ⴌ	cut_f_stereo_44KHz.wav
2	104	4	4	2	I	1	0	76	0	Ⴉ	cut_s_stereo_44KHz.wav
2	105	1	2	0	C	2	1	355	1	Ⴏ	cut_ei_stereo_44KHz.wav
2	106	3	3	2	I	2	0	1551	0	Ⴌ	cut_f_stereo_44KHz.wav
2	107	4	4	2	I	1	0	546	0	Ⴉ	cut_s_stereo_44KHz.wav
2	108	2	2	1	C	2	0	595	0	Ⴒ	cut_ei_stereo_44KHz.wav
2	109	1	1	1	C	1	1	565	1	Ⴏ	cut_n_stereo_44KHz.wav
2	110	4	3	2	I	1	0	399	1	Ⴉ	cut_f_stereo_44KHz.wav
2	111	3	4	2	I	2	0	584	0	Ⴌ	cut_s_stereo_44KHz.wav
2	112	2	1	0	C	1	0	1109	0	Ⴒ	cut_n_stereo_44KHz.wav
2	113	1	2	0	C	2	1	3	1	Ⴏ	cut_ei_stereo_44KHz.wav
2	114	2	2	1	C	1	1	325	1	Ⴒ	cut_ei_stereo_44KHz.wav
2	115	4	4	2	I	2	0	624	1	Ⴉ	cut_s_stereo_44KHz.wav
2	116	3	3	2	I	1	0	330	0	Ⴌ	cut_f_stereo_44KHz.wav
2	117	1	1	1	C	1	1	586	1	Ⴏ	cut_n_stereo_44KHz.wav
2	118	4	3	2	I	1	0	686	1	Ⴉ	cut_f_stereo_44KHz.wav
2	119	3	4	2	I	1	0	903	1	Ⴌ	cut_s_stereo_44KHz.wav
2	120	2	1	0	C	1	0	1011	0	Ⴒ	cut_n_stereo_44KHz.wav
2	121	4	3	2	I	2	0	686	1	Ⴉ	cut_f_stereo_44KHz.wav
2	122	2	2	1	C	1	1	714	1	Ⴒ	cut_ei_stereo_44KHz.wav
2	123	1	2	0	C	2	1	728	1	Ⴏ	cut_ei_stereo_44KHz.wav
2	124	3	4	2	I	2	0	910	0	Ⴌ	cut_s_stereo_44KHz.wav
2	125	2	1	0	C	1	0	282	0	Ⴒ	cut_n_stereo_44KHz.wav
2	126	1	1	1	C	2	0	314	0	Ⴏ	cut_n_stereo_44KHz.wav
2	127	3	3	2	I	1	0	1179	1	Ⴌ	cut_f_stereo_44KHz.wav
2	128	4	4	2	I	1	0	439	1	Ⴉ	cut_s_stereo_44KHz.wav
2	129	2	1	0	C	1	0	497	0	Ⴒ	cut_n_stereo_44KHz.wav
2	130	3	4	2	I	2	0	472	0	Ⴌ	cut_s_stereo_44KHz.wav
2	131	4	3	2	I	1	0	106	1	Ⴉ	cut_f_stereo_44KHz.wav
2	132	1	1	1	C	1	1	603	1	Ⴏ	cut_n_stereo_44KHz.wav
2	133	3	3	2	I	1	0	9	1	Ⴌ	cut_f_stereo_44KHz.wav
2	134	1	2	0	C	2	1	310	1	Ⴏ	cut_ei_stereo_44KHz.wav
2	135	4	4	2	I	1	0	1361	1	Ⴉ	cut_s_stereo_44KHz.wav
2	136	2	2	1	C	1	1	834	1	Ⴒ	cut_ei_stereo_44KHz.wav
2	137	1	1	1	C	1	1	839	1	Ⴏ	cut_n_stereo_44KHz.wav
2	138	4	3	2	I	1	0	767	1	Ⴉ	cut_f_stereo_44KHz.wav
2	139	3	4	2	I	1	0	855	0	Ⴌ	cut_s_stereo_44KHz.wav
2	140	2	2	1	C	2	0	322	0	Ⴒ	cut_ei_stereo_44KHz.wav
2	141	3	3	2	I	1	0	1001	1	Ⴌ	cut_f_stereo_44KHz.wav
2	142	4	4	2	I	1	0	1057	0	Ⴉ	cut_s_stereo_44KHz.wav
2	143	1	2	0	C	2	1	450	1	Ⴏ	cut_ei_stereo_44KHz.wav
2	144	2	1	0	C	2	1	433	1	Ⴒ	cut_n_stereo_44KHz.wav
2	145	4	3	2	I	2	0	534	0	Ⴉ	cut_f_stereo_44KHz.wav
2	146	3	3	2	I	1	0	498	1	Ⴌ	cut_f_stereo_44KHz.wav
2	147	1	2	0	C	2	1	94	1	Ⴏ	cut_ei_stereo_44KHz.wav
2	148	2	2	1	C	1	1	184	1	Ⴒ	cut_ei_stereo_44KHz.wav
2	149	1	1	1	C	2	0	311	0	Ⴏ	cut_n_stereo_44KHz.wav
2	150	4	4	2	I	1	0	73	1	Ⴉ	cut_s_stereo_44KHz.wav
2	151	2	1	0	C	2	1	207	1	Ⴒ	cut_n_stereo_44KHz.wav
2	152	3	4	2	I	2	0	399	1	Ⴌ	cut_s_stereo_44KHz.wav
2	153	4	4	2	I	1	0	660	1	Ⴉ	cut_s_stereo_44KHz.wav
2	154	2	1	0	C	2	1	340	1	Ⴒ	cut_n_stereo_44KHz.wav
2	155	3	3	2	I	1	0	69	1	Ⴌ	cut_f_stereo_44KHz.wav
2	156	1	2	0	C	2	1	826	1	Ⴏ	cut_ei_stereo_44KHz.wav
2	157	4	3	2	I	2	0	54	1	Ⴉ	cut_f_stereo_44KHz.wav
2	158	2	2	1	C	1	1	376	1	Ⴒ	cut_ei_stereo_44KHz.wav
2	159	1	1	1	C	2	0	1788	0	Ⴏ	cut_n_stereo_44KHz.wav
2	160	3	4	2	I	1	0	495	1	Ⴌ	cut_s_stereo_44KHz.wav
2	161	2	2	1	C	1	1	614	1	Ⴒ	cut_ei_stereo_44KHz.wav
2	162	4	4	2	I	1	0	1044	1	Ⴉ	cut_s_stereo_44KHz.wav
2	163	3	4	2	I	0	0	0	0	Ⴌ	cut_s_stereo_44KHz.wav
2	164	1	1	1	C	1	1	576	1	Ⴏ	cut_n_stereo_44KHz.wav
2	165	2	1	0	C	2	1	777	1	Ⴒ	cut_n_stereo_44KHz.wav
2	166	4	3	2	I	2	0	1117	1	Ⴉ	cut_f_stereo_44KHz.wav
2	167	1	2	0	C	2	1	393	1	Ⴏ	cut_ei_stereo_44KHz.wav
2	168	3	3	2	I	1	0	476	1	Ⴌ	cut_f_stereo_44KHz.wav
2	169	4	4	2	I	2	0	387	1	Ⴉ	cut_s_stereo_44KHz.wav
2	170	1	2	0	C	2	1	543	1	Ⴏ	cut_ei_stereo_44KHz.wav
2	171	2	2	1	C	1	1	536	1	Ⴒ	cut_ei_stereo_44KHz.wav
2	172	3	4	2	I	2	0	711	0	Ⴌ	cut_s_stereo_44KHz.wav
2	173	2	1	0	C	1	0	366	0	Ⴒ	cut_n_stereo_44KHz.wav
2	174	1	1	1	C	2	0	525	0	Ⴏ	cut_n_stereo_44KHz.wav
2	175	4	3	2	I	1	0	250	1	Ⴉ	cut_f_stereo_44KHz.wav
2	176	3	3	2	I	2	0	581	1	Ⴌ	cut_f_stereo_44KHz.wav
2	177	1	2	0	C	1	0	472	0	Ⴏ	cut_ei_stereo_44KHz.wav
2	178	4	3	2	I	2	0	326	0	Ⴉ	cut_f_stereo_44KHz.wav
2	179	2	1	0	C	1	0	476	0	Ⴒ	cut_n_stereo_44KHz.wav
2	180	3	4	2	I	2	0	495	1	Ⴌ	cut_s_stereo_44KHz.wav
2	181	1	1	1	C	1	1	77	1	Ⴏ	cut_n_stereo_44KHz.wav
2	182	4	4	2	I	2	0	349	0	Ⴉ	cut_s_stereo_44KHz.wav
2	183	3	3	2	I	0	0	0	0	Ⴌ	cut_f_stereo_44KHz.wav
2	184	2	2	1	C	2	0	1123	0	Ⴒ	cut_ei_stereo_44KHz.wav
2	185	3	4	2	I	1	0	367	0	Ⴌ	cut_s_stereo_44KHz.wav
2	186	4	4	2	I	2	0	374	1	Ⴉ	cut_s_stereo_44KHz.wav
2	187	2	2	1	C	2	0	467	0	Ⴒ	cut_ei_stereo_44KHz.wav
2	188	1	2	0	C	1	0	457	0	Ⴏ	cut_ei_stereo_44KHz.wav
2	189	2	1	0	C	2	1	241	1	Ⴒ	cut_n_stereo_44KHz.wav
2	190	1	1	1	C	1	1	328	1	Ⴏ	cut_n_stereo_44KHz.wav
2	191	4	3	2	I	1	0	302	0	Ⴉ	cut_f_stereo_44KHz.wav
2	192	3	3	2	I	2	0	576	1	Ⴌ	cut_f_stereo_44KHz.wav
2	193	1	2	0	C	2	1	403	1	Ⴏ	cut_ei_stereo_44KHz.wav
2	194	2	1	0	C	1	0	1307	0	Ⴒ	cut_n_stereo_44KHz.wav
2	195	3	4	2	I	2	0	437	1	Ⴌ	cut_s_stereo_44KHz.wav
2	196	4	3	2	I	1	0	438	1	Ⴉ	cut_f_stereo_44KHz.wav
2	197	3	3	2	I	2	0	726	1	Ⴌ	cut_f_stereo_44KHz.wav
2	198	2	2	1	C	1	1	331	1	Ⴒ	cut_ei_stereo_44KHz.wav
2	199	1	1	1	C	2	0	375	0	Ⴏ	cut_n_stereo_44KHz.wav
2	200	4	4	2	I	1	0	445	1	Ⴉ	cut_s_stereo_44KHz.wav
3	1	3	4	2	I	1	0	630	1	Ⴜ	cut_a_stereo_44KHz.wav
3	2	1	1	1	C	2	0	271	0	Ⴁ	cut_k_stereo_44KHz.wav
3	3	4	3	2	I	1	0	683	1	Ⴟ	cut_u_stereo_44KHz.wav
3	4	2	1	0	C	1	0	641	0	Ⴃ	cut_k_stereo_44KHz.wav
3	5	3	3	2	I	1	0	1111	1	Ⴜ	cut_u_stereo_44KHz.wav
3	6	1	2	0	C	2	1	815	1	Ⴁ	cut_o_stereo_44KHz.wav
3	7	2	2	1	C	2	0	871	0	Ⴃ	cut_o_stereo_44KHz.wav
3	8	4	4	2	I	1	0	567	1	Ⴟ	cut_a_stereo_44KHz.wav
3	9	2	2	1	C	2	0	502	0	Ⴃ	cut_o_stereo_44KHz.wav
3	10	1	1	1	C	1	1	293	1	Ⴁ	cut_k_stereo_44KHz.wav
3	11	3	3	2	I	1	0	813	1	Ⴜ	cut_u_stereo_44KHz.wav
3	12	4	4	2	I	2	0	725	1	Ⴟ	cut_a_stereo_44KHz.wav
3	13	1	2	0	C	1	0	601	0	Ⴁ	cut_o_stereo_44KHz.wav
3	14	2	1	0	C	2	1	522	1	Ⴃ	cut_k_stereo_44KHz.wav
3	15	3	4	2	I	1	0	1895	1	Ⴜ	cut_a_stereo_44KHz.wav
3	16	4	3	2	I	2	0	340	1	Ⴟ	cut_u_stereo_44KHz.wav
3	17	3	3	2	I	1	0	615	1	Ⴜ	cut_u_stereo_44KHz.wav
3	18	1	1	1	C	1	1	953	1	Ⴁ	cut_k_stereo_44KHz.wav
3	19	4	3	2	I	2	0	519	1	Ⴟ	cut_u_stereo_44KHz.wav
3	20	2	2	1	C	1	1	268	1	Ⴃ	cut_o_stereo_44KHz.wav
3	21	3	4	2	I	2	0	255	1	Ⴜ	cut_a_stereo_44KHz.wav
3	22	1	2	0	C	1	0	256	0	Ⴁ	cut_o_stereo_44KHz.wav
3	23	2	1	0	C	2	1	402	1	Ⴃ	cut_k_stereo_44KHz.wav
3	24	4	4	2	I	2	0	311	1	Ⴟ	cut_a_stereo_44KHz.wav
3	25	1	2	0	C	2	1	378	1	Ⴁ	cut_o_stereo_44KHz.wav
3	26	4	4	2	I	2	0	304	1	Ⴟ	cut_a_stereo_44KHz.wav
3	27	3	3	2	I	2	0	325	1	Ⴜ	cut_u_stereo_44KHz.wav
3	28	2	2	1	C	1	1	64	1	Ⴃ	cut_o_stereo_44KHz.wav
3	29	3	4	2	I	1	0	1098	1	Ⴜ	cut_a_stereo_44KHz.wav
3	30	2	1	0	C	1	0	65	0	Ⴃ	cut_k_stereo_44KHz.wav
3	31	4	3	2	I	2	0	1654	0	Ⴟ	cut_u_stereo_44KHz.wav
3	32	1	1	1	C	2	0	269	0	Ⴁ	cut_k_stereo_44KHz.wav
3	33	4	3	2	I	1	0	321	0	Ⴟ	cut_u_stereo_44KHz.wav
3	34	3	3	2	I	2	0	1242	1	Ⴜ	cut_u_stereo_44KHz.wav
3	35	1	2	0	C	1	0	581	0	Ⴁ	cut_o_stereo_44KHz.wav
3	36	2	1	0	C	2	1	1344	1	Ⴃ	cut_k_stereo_44KHz.wav
3	37	4	4	2	I	2	0	966	0	Ⴟ	cut_a_stereo_44KHz.wav
3	38	1	1	1	C	2	0	454	0	Ⴁ	cut_k_stereo_44KHz.wav
3	39	3	4	2	I	1	0	518	1	Ⴜ	cut_a_stereo_44KHz.wav
3	40	2	2	1	C	1	1	85	1	Ⴃ	cut_o_stereo_44KHz.wav
3	41	4	3	2	I	1	0	382	0	Ⴟ	cut_u_stereo_44KHz.wav
3	42	1	2	0	C	2	1	53	1	Ⴁ	cut_o_stereo_44KHz.wav
3	43	2	1	0	C	2	1	608	1	Ⴃ	cut_k_stereo_44KHz.wav
3	44	3	3	2	I	2	0	314	1	Ⴜ	cut_u_stereo_44KHz.wav
3	45	2	2	1	C	1	1	787	1	Ⴃ	cut_o_stereo_44KHz.wav
3	46	4	4	2	I	1	0	1129	0	Ⴟ	cut_a_stereo_44KHz.wav
3	47	3	4	2	I	2	0	1982	0	Ⴜ	cut_a_stereo_44KHz.wav
3	48	1	1	1	C	1	1	664	1	Ⴁ	cut_k_stereo_44KHz.wav
3	49	2	2	1	C	2	0	304	0	Ⴃ	cut_o_stereo_44KHz.wav
3	50	3	3	2	I	1	0	381	0	Ⴜ	cut_u_stereo_44KHz.wav
3	51	1	2	0	C	2	1	227	1	Ⴁ	cut_o_stereo_44KHz.wav
3	52	4	4	2	I	1	0	343	1	Ⴟ	cut_a_stereo_44KHz.wav
3	53	1	1	1	C	2	0	265	0	Ⴁ	cut_k_stereo_44KHz.wav
3	54	4	3	2	I	1	0	146	1	Ⴟ	cut_u_stereo_44KHz.wav
3	55	3	4	2	I	2	0	267	1	Ⴜ	cut_a_stereo_44KHz.wav
3	56	2	1	0	C	2	1	320	1	Ⴃ	cut_k_stereo_44KHz.wav
3	57	4	3	2	I	2	0	510	1	Ⴟ	cut_u_stereo_44KHz.wav
3	58	2	2	1	C	1	1	451	1	Ⴃ	cut_o_stereo_44KHz.wav
3	59	3	4	2	I	2	0	316	1	Ⴜ	cut_a_stereo_44KHz.wav
3	60	1	2	0	C	2	1	1056	1	Ⴁ	cut_o_stereo_44KHz.wav
3	61	4	4	2	I	2	0	1319	1	Ⴟ	cut_a_stereo_44KHz.wav
3	62	1	1	1	C	1	1	442	1	Ⴁ	cut_k_stereo_44KHz.wav
3	63	3	3	2	I	1	0	600	1	Ⴜ	cut_u_stereo_44KHz.wav
3	64	2	1	0	C	1	0	828	0	Ⴃ	cut_k_stereo_44KHz.wav
3	65	1	2	0	C	2	1	447	1	Ⴁ	cut_o_stereo_44KHz.wav
3	66	4	3	2	I	2	0	629	1	Ⴟ	cut_u_stereo_44KHz.wav
3	67	3	3	2	I	2	0	583	1	Ⴜ	cut_u_stereo_44KHz.wav
3	68	2	2	1	C	2	0	15	0	Ⴃ	cut_o_stereo_44KHz.wav
3	69	4	4	2	I	1	0	425	1	Ⴟ	cut_a_stereo_44KHz.wav
3	70	1	1	1	C	1	1	740	1	Ⴁ	cut_k_stereo_44KHz.wav
3	71	2	1	0	C	2	1	310	1	Ⴃ	cut_k_stereo_44KHz.wav
3	72	3	4	2	I	1	0	1016	0	Ⴜ	cut_a_stereo_44KHz.wav
3	73	2	2	1	C	0	0	0	0	Ⴃ	cut_o_stereo_44KHz.wav
3	74	1	1	1	C	1	1	1059	1	Ⴁ	cut_k_stereo_44KHz.wav
3	75	4	4	2	I	0	0	0	0	Ⴟ	cut_a_stereo_44KHz.wav
3	76	3	3	2	I	0	0	0	0	Ⴜ	cut_u_stereo_44KHz.wav
3	77	4	3	2	I	2	0	737	1	Ⴟ	cut_u_stereo_44KHz.wav
3	78	2	1	0	C	1	0	805	0	Ⴃ	cut_k_stereo_44KHz.wav
3	79	3	4	2	I	2	0	267	0	Ⴜ	cut_a_stereo_44KHz.wav
3	80	1	2	0	C	1	0	291	0	Ⴁ	cut_o_stereo_44KHz.wav
3	81	4	4	2	I	2	0	301	1	Ⴟ	cut_a_stereo_44KHz.wav
3	82	3	4	2	I	1	0	273	1	Ⴜ	cut_a_stereo_44KHz.wav
3	83	2	2	1	C	2	0	1446	0	Ⴃ	cut_o_stereo_44KHz.wav
3	84	1	1	1	C	1	1	876	1	Ⴁ	cut_k_stereo_44KHz.wav
3	85	2	1	0	C	2	1	306	1	Ⴃ	cut_k_stereo_44KHz.wav
3	86	1	2	0	C	1	0	429	0	Ⴁ	cut_o_stereo_44KHz.wav
3	87	4	3	2	I	2	0	92	1	Ⴟ	cut_u_stereo_44KHz.wav
3	88	3	3	2	I	2	0	895	0	Ⴜ	cut_u_stereo_44KHz.wav
3	89	2	2	1	C	1	1	582	1	Ⴃ	cut_o_stereo_44KHz.wav
3	90	3	4	2	I	1	0	464	1	Ⴜ	cut_a_stereo_44KHz.wav
3	91	1	2	0	C	1	0	615	0	Ⴁ	cut_o_stereo_44KHz.wav
3	92	4	3	2	I	1	0	139	1	Ⴟ	cut_u_stereo_44KHz.wav
3	93	3	3	2	I	2	0	99	1	Ⴜ	cut_u_stereo_44KHz.wav
3	94	1	1	1	C	1	1	290	1	Ⴁ	cut_k_stereo_44KHz.wav
3	95	2	1	0	C	2	1	348	1	Ⴃ	cut_k_stereo_44KHz.wav
3	96	4	4	2	I	2	0	447	1	Ⴟ	cut_a_stereo_44KHz.wav
3	97	2	2	1	C	2	0	282	0	Ⴃ	cut_o_stereo_44KHz.wav
3	98	1	2	0	C	1	0	262	0	Ⴁ	cut_o_stereo_44KHz.wav
3	99	3	3	2	I	2	0	528	1	Ⴜ	cut_u_stereo_44KHz.wav
3	100	4	3	2	I	2	0	1400	1	Ⴟ	cut_u_stereo_44KHz.wav
3	101	3	4	2	I	1	0	1142	1	Ⴜ	cut_a_stereo_44KHz.wav
3	102	1	1	1	C	2	0	1103	0	Ⴁ	cut_k_stereo_44KHz.wav
3	103	4	4	2	I	1	0	693	0	Ⴟ	cut_a_stereo_44KHz.wav
3	104	2	1	0	C	2	1	1714	1	Ⴃ	cut_k_stereo_44KHz.wav
3	105	4	4	2	I	1	0	425	1	Ⴟ	cut_a_stereo_44KHz.wav
3	106	3	3	2	I	2	0	1213	1	Ⴜ	cut_u_stereo_44KHz.wav
3	107	2	2	1	C	2	0	456	0	Ⴃ	cut_o_stereo_44KHz.wav
3	108	1	1	1	C	1	1	979	1	Ⴁ	cut_k_stereo_44KHz.wav
3	109	3	4	2	I	1	0	373	1	Ⴜ	cut_a_stereo_44KHz.wav
3	110	1	2	0	C	1	0	374	0	Ⴁ	cut_o_stereo_44KHz.wav
3	111	4	3	2	I	2	0	327	1	Ⴟ	cut_u_stereo_44KHz.wav
3	112	2	1	0	C	2	1	559	1	Ⴃ	cut_k_stereo_44KHz.wav
3	113	4	4	2	I	2	0	337	1	Ⴟ	cut_a_stereo_44KHz.wav
3	114	1	2	0	C	2	1	432	1	Ⴁ	cut_o_stereo_44KHz.wav
3	115	2	2	1	C	1	1	454	1	Ⴃ	cut_o_stereo_44KHz.wav
3	116	3	4	2	I	1	0	321	1	Ⴜ	cut_a_stereo_44KHz.wav
3	117	4	3	2	I	2	0	569	1	Ⴟ	cut_u_stereo_44KHz.wav
3	118	3	3	2	I	1	0	325	0	Ⴜ	cut_u_stereo_44KHz.wav
3	119	2	1	0	C	2	1	712	1	Ⴃ	cut_k_stereo_44KHz.wav
3	120	1	1	1	C	1	1	345	1	Ⴁ	cut_k_stereo_44KHz.wav
3	121	2	2	1	C	2	0	591	0	Ⴃ	cut_o_stereo_44KHz.wav
3	122	1	2	0	C	2	1	627	1	Ⴁ	cut_o_stereo_44KHz.wav
3	123	4	4	2	I	1	0	297	1	Ⴟ	cut_a_stereo_44KHz.wav
3	124	3	4	2	I	2	0	302	1	Ⴜ	cut_a_stereo_44KHz.wav
3	125	1	1	1	C	1	1	772	1	Ⴁ	cut_k_stereo_44KHz.wav
3	126	2	1	0	C	1	0	542	0	Ⴃ	cut_k_stereo_44KHz.wav
3	127	3	3	2	I	2	0	460	1	Ⴜ	cut_u_stereo_44KHz.wav
3	128	4	3	2	I	1	0	267	1	Ⴟ	cut_u_stereo_44KHz.wav
3	129	3	3	2	I	2	0	800	1	Ⴜ	cut_u_stereo_44KHz.wav
3	130	1	1	1	C	2	0	297	0	Ⴁ	cut_k_stereo_44KHz.wav
3	131	2	1	0	C	2	1	353	1	Ⴃ	cut_k_stereo_44KHz.wav
3	132	4	4	2	I	1	0	447	1	Ⴟ	cut_a_stereo_44KHz.wav
3	133	3	4	2	I	1	0	358	1	Ⴜ	cut_a_stereo_44KHz.wav
3	134	4	3	2	I	1	0	327	1	Ⴟ	cut_u_stereo_44KHz.wav
3	135	2	2	1	C	2	0	328	0	Ⴃ	cut_o_stereo_44KHz.wav
3	136	1	2	0	C	1	0	367	0	Ⴁ	cut_o_stereo_44KHz.wav
3	137	3	3	2	I	2	0	301	1	Ⴜ	cut_u_stereo_44KHz.wav
3	138	1	1	1	C	1	1	619	1	Ⴁ	cut_k_stereo_44KHz.wav
3	139	4	3	2	I	2	0	293	1	Ⴟ	cut_u_stereo_44KHz.wav
3	140	2	2	1	C	2	0	456	0	Ⴃ	cut_o_stereo_44KHz.wav
3	141	4	4	2	I	1	0	308	1	Ⴟ	cut_a_stereo_44KHz.wav
3	142	3	4	2	I	2	0	75	1	Ⴜ	cut_a_stereo_44KHz.wav
3	143	2	1	0	C	1	0	1249	0	Ⴃ	cut_k_stereo_44KHz.wav
3	144	1	2	0	C	2	1	64	1	Ⴁ	cut_o_stereo_44KHz.wav
3	145	3	3	2	I	1	0	305	1	Ⴜ	cut_u_stereo_44KHz.wav
3	146	4	4	2	I	2	0	352	1	Ⴟ	cut_a_stereo_44KHz.wav
3	147	2	1	0	C	2	1	504	1	Ⴃ	cut_k_stereo_44KHz.wav
3	148	1	1	1	C	2	0	1062	0	Ⴁ	cut_k_stereo_44KHz.wav
3	149	4	3	2	I	1	0	388	1	Ⴟ	cut_u_stereo_44KHz.wav
3	150	1	2	0	C	2	1	579	1	Ⴁ	cut_o_stereo_44KHz.wav
3	151	2	2	1	C	2	0	1023	0	Ⴃ	cut_o_stereo_44KHz.wav
3	152	3	4	2	I	2	0	1170	1	Ⴜ	cut_a_stereo_44KHz.wav
3	153	4	3	2	I	1	0	674	1	Ⴟ	cut_u_stereo_44KHz.wav
3	154	1	1	1	C	2	0	548	0	Ⴁ	cut_k_stereo_44KHz.wav
3	155	3	4	2	I	1	0	344	0	Ⴜ	cut_a_stereo_44KHz.wav
3	156	2	1	0	C	2	1	290	1	Ⴃ	cut_k_stereo_44KHz.wav
3	157	3	3	2	I	2	0	503	0	Ⴜ	cut_u_stereo_44KHz.wav
3	158	2	2	1	C	1	1	316	1	Ⴃ	cut_o_stereo_44KHz.wav
3	159	1	2	0	C	2	1	324	1	Ⴁ	cut_o_stereo_44KHz.wav
3	160	4	4	2	I	2	0	300	0	Ⴟ	cut_a_stereo_44KHz.wav
3	161	1	1	1	C	1	1	522	1	Ⴁ	cut_k_stereo_44KHz.wav
3	162	3	4	2	I	1	0	55	1	Ⴜ	cut_a_stereo_44KHz.wav
3	163	4	3	2	I	0	0	0	0	Ⴟ	cut_u_stereo_44KHz.wav
3	164	2	2	1	C	0	0	0	0	Ⴃ	cut_o_stereo_44KHz.wav
3	165	3	3	2	I	2	0	501	1	Ⴜ	cut_u_stereo_44KHz.wav
3	166	1	2	0	C	2	1	826	1	Ⴁ	cut_o_stereo_44KHz.wav
3	167	2	1	0	C	2	1	1252	1	Ⴃ	cut_k_stereo_44KHz.wav
3	168	4	4	2	I	2	0	875	1	Ⴟ	cut_a_stereo_44KHz.wav
3	169	2	1	0	C	1	0	414	0	Ⴃ	cut_k_stereo_44KHz.wav
3	170	3	3	2	I	2	0	970	0	Ⴜ	cut_u_stereo_44KHz.wav
3	171	1	2	0	C	1	0	640	0	Ⴁ	cut_o_stereo_44KHz.wav
3	172	4	4	2	I	2	0	1362	1	Ⴟ	cut_a_stereo_44KHz.wav
3	173	2	2	1	C	1	1	538	1	Ⴃ	cut_o_stereo_44KHz.wav
3	174	1	1	1	C	1	1	425	1	Ⴁ	cut_k_stereo_44KHz.wav
3	175	4	3	2	I	2	0	213	0	Ⴟ	cut_u_stereo_44KHz.wav
3	176	3	4	2	I	1	0	394	1	Ⴜ	cut_a_stereo_44KHz.wav
3	177	4	4	2	I	2	0	256	1	Ⴟ	cut_a_stereo_44KHz.wav
3	178	3	3	2	I	1	0	113	1	Ⴜ	cut_u_stereo_44KHz.wav
3	179	1	1	1	C	0	0	0	0	Ⴁ	cut_k_stereo_44KHz.wav
3	180	2	2	1	C	0	0	0	0	Ⴃ	cut_o_stereo_44KHz.wav
3	181	3	4	2	I	0	0	0	0	Ⴜ	cut_a_stereo_44KHz.wav
3	182	4	3	2	I	0	0	0	0	Ⴟ	cut_u_stereo_44KHz.wav
3	183	2	1	0	C	0	0	0	0	Ⴃ	cut_k_stereo_44KHz.wav
3	184	1	2	0	C	0	0	0	0	Ⴁ	cut_o_stereo_44KHz.wav
3	185	4	3	2	I	0	0	0	0	Ⴟ	cut_u_stereo_44KHz.wav
3	186	2	2	1	C	1	1	405	1	Ⴃ	cut_o_stereo_44KHz.wav
3	187	1	2	0	C	2	1	545	1	Ⴁ	cut_o_stereo_44KHz.wav
3	188	3	3	2	I	1	0	443	1	Ⴜ	cut_u_stereo_44KHz.wav
3	189	2	1	0	C	2	1	249	1	Ⴃ	cut_k_stereo_44KHz.wav
3	190	4	4	2	I	1	0	401	1	Ⴟ	cut_a_stereo_44KHz.wav
3	191	3	4	2	I	1	0	255	1	Ⴜ	cut_a_stereo_44KHz.wav
3	192	1	1	1	C	2	0	458	0	Ⴁ	cut_k_stereo_44KHz.wav
3	193	3	3	2	I	1	0	696	0	Ⴜ	cut_u_stereo_44KHz.wav
3	194	1	2	0	C	2	1	325	1	Ⴁ	cut_o_stereo_44KHz.wav
3	195	4	4	2	I	1	0	169	1	Ⴟ	cut_a_stereo_44KHz.wav
3	196	2	1	0	C	2	1	723	1	Ⴃ	cut_k_stereo_44KHz.wav
3	197	1	1	1	C	1	1	498	1	Ⴁ	cut_k_stereo_44KHz.wav
3	198	2	2	1	C	2	0	347	0	Ⴃ	cut_o_stereo_44KHz.wav
3	199	4	3	2	I	1	0	546	1	Ⴟ	cut_u_stereo_44KHz.wav
3	200	3	4	2	I	2	0	250	1	Ⴜ	cut_a_stereo_44KHz.wav
