block	trial	Vstim	Astim	match	C/I	resp	result	RT	fb	V-file	A-file
LR

0	1	2	4	0	C	0	0	0	0	Ⴋ	cut_ee_stereo_44KHz.wav
0	2	2	3	1	C	0	0	0	0	Ⴋ	cut_oo_stereo_44KHz.wav
0	3	1	1	1	C	0	0	0	0	Ⴢ	cut_eeuw_stereo_44KHz.wav
0	4	1	2	0	C	1	1	887	1	Ⴢ	cut_g_stereo_44KHz.wav
0	5	1	2	0	C	1	1	778	1	Ⴢ	cut_g_stereo_44KHz.wav
0	6	2	3	1	C	2	1	1389	1	Ⴋ	cut_oo_stereo_44KHz.wav
0	7	2	4	0	C	0	0	0	0	Ⴋ	cut_ee_stereo_44KHz.wav
0	8	1	1	1	C	2	1	352	1	Ⴢ	cut_eeuw_stereo_44KHz.wav
0	9	2	3	1	C	0	0	0	0	Ⴋ	cut_oo_stereo_44KHz.wav
0	10	1	1	1	C	2	1	1709	1	Ⴢ	cut_eeuw_stereo_44KHz.wav
0	11	1	2	0	C	1	1	1343	1	Ⴢ	cut_g_stereo_44KHz.wav
0	12	2	4	0	C	2	0	1289	0	Ⴋ	cut_ee_stereo_44KHz.wav
0	13	2	3	1	C	1	0	907	0	Ⴋ	cut_oo_stereo_44KHz.wav
0	14	1	1	1	C	2	1	1792	1	Ⴢ	cut_eeuw_stereo_44KHz.wav
0	15	1	2	0	C	1	1	1529	1	Ⴢ	cut_g_stereo_44KHz.wav
0	16	2	4	0	C	1	1	966	1	Ⴋ	cut_ee_stereo_44KHz.wav
0	17	2	4	0	C	1	1	1004	1	Ⴋ	cut_ee_stereo_44KHz.wav
0	18	1	1	1	C	1	0	634	0	Ⴢ	cut_eeuw_stereo_44KHz.wav
0	19	1	2	0	C	1	1	1224	1	Ⴢ	cut_g_stereo_44KHz.wav
0	20	2	3	1	C	2	1	1386	1	Ⴋ	cut_oo_stereo_44KHz.wav
0	21	1	2	0	C	1	1	1293	1	Ⴢ	cut_g_stereo_44KHz.wav
0	22	1	1	1	C	0	0	0	0	Ⴢ	cut_eeuw_stereo_44KHz.wav
0	23	2	4	0	C	2	0	793	0	Ⴋ	cut_ee_stereo_44KHz.wav
0	24	2	3	1	C	2	1	1335	1	Ⴋ	cut_oo_stereo_44KHz.wav
0	25	2	3	1	C	2	1	1561	1	Ⴋ	cut_oo_stereo_44KHz.wav
0	26	1	1	1	C	2	1	1209	1	Ⴢ	cut_eeuw_stereo_44KHz.wav
0	27	1	2	0	C	1	1	975	1	Ⴢ	cut_g_stereo_44KHz.wav
0	28	2	4	0	C	1	1	1440	1	Ⴋ	cut_ee_stereo_44KHz.wav
0	29	2	4	0	C	1	1	1643	1	Ⴋ	cut_ee_stereo_44KHz.wav
0	30	1	1	1	C	2	1	1251	1	Ⴢ	cut_eeuw_stereo_44KHz.wav
avg_resp = 1253
1	1	3	4	2	I	1	0	1893	1	Ⴜ	cut_u_stereo_44KHz.wav
1	2	2	1	0	C	1	1	1564	1	Ⴃ	cut_k_stereo_44KHz.wav
1	3	1	2	0	C	1	1	1542	1	Ⴡ	cut_a_stereo_44KHz.wav
1	4	4	3	2	I	1	0	1176	1	Ⴊ	cut_o_stereo_44KHz.wav
1	5	3	3	2	I	2	0	1201	1	Ⴜ	cut_o_stereo_44KHz.wav
1	6	1	1	1	C	1	0	1428	0	Ⴡ	cut_k_stereo_44KHz.wav
1	7	2	2	1	C	2	1	1122	1	Ⴃ	cut_a_stereo_44KHz.wav
1	8	4	4	2	I	1	0	1075	1	Ⴊ	cut_u_stereo_44KHz.wav
1	9	1	2	0	C	1	1	1132	1	Ⴡ	cut_a_stereo_44KHz.wav
1	10	2	2	1	C	2	1	1061	1	Ⴃ	cut_a_stereo_44KHz.wav
1	11	4	3	2	I	1	0	927	1	Ⴊ	cut_o_stereo_44KHz.wav
1	12	3	4	2	I	1	0	1186	0	Ⴜ	cut_u_stereo_44KHz.wav
1	13	2	1	0	C	1	1	1449	1	Ⴃ	cut_k_stereo_44KHz.wav
1	14	4	4	2	I	2	0	1469	0	Ⴊ	cut_u_stereo_44KHz.wav
1	15	1	1	1	C	1	0	1780	0	Ⴡ	cut_k_stereo_44KHz.wav
1	16	3	3	2	I	2	0	1675	1	Ⴜ	cut_o_stereo_44KHz.wav
1	17	4	3	2	I	1	0	1187	1	Ⴊ	cut_o_stereo_44KHz.wav
1	18	2	1	0	C	1	1	1244	1	Ⴃ	cut_k_stereo_44KHz.wav
1	19	1	1	1	C	2	1	1118	1	Ⴡ	cut_k_stereo_44KHz.wav
1	20	3	3	2	I	2	0	1429	1	Ⴜ	cut_o_stereo_44KHz.wav
1	21	2	2	1	C	1	0	1266	0	Ⴃ	cut_a_stereo_44KHz.wav
1	22	1	2	0	C	1	1	1244	1	Ⴡ	cut_a_stereo_44KHz.wav
1	23	4	4	2	I	2	0	1532	1	Ⴊ	cut_u_stereo_44KHz.wav
1	24	3	4	2	I	1	0	1826	1	Ⴜ	cut_u_stereo_44KHz.wav
1	25	2	2	1	C	0	0	0	0	Ⴃ	cut_a_stereo_44KHz.wav
1	26	3	4	2	I	1	0	968	1	Ⴜ	cut_u_stereo_44KHz.wav
1	27	4	3	2	I	1	0	940	1	Ⴊ	cut_o_stereo_44KHz.wav
1	28	1	2	0	C	1	1	1066	1	Ⴡ	cut_a_stereo_44KHz.wav
1	29	3	3	2	I	2	0	1205	1	Ⴜ	cut_o_stereo_44KHz.wav
1	30	4	4	2	I	2	0	1433	1	Ⴊ	cut_u_stereo_44KHz.wav
1	31	1	1	1	C	0	0	0	0	Ⴡ	cut_k_stereo_44KHz.wav
1	32	2	1	0	C	1	1	1249	1	Ⴃ	cut_k_stereo_44KHz.wav
1	33	3	4	2	I	1	0	1729	1	Ⴜ	cut_u_stereo_44KHz.wav
1	34	1	2	0	C	1	1	1204	1	Ⴡ	cut_a_stereo_44KHz.wav
1	35	4	4	2	I	1	0	1153	1	Ⴊ	cut_u_stereo_44KHz.wav
1	36	2	1	0	C	1	1	1260	1	Ⴃ	cut_k_stereo_44KHz.wav
1	37	3	3	2	I	0	0	0	0	Ⴜ	cut_o_stereo_44KHz.wav
1	38	1	1	1	C	2	1	1411	1	Ⴡ	cut_k_stereo_44KHz.wav
1	39	2	2	1	C	1	0	1703	0	Ⴃ	cut_a_stereo_44KHz.wav
1	40	4	3	2	I	1	0	1176	1	Ⴊ	cut_o_stereo_44KHz.wav
1	41	2	1	0	C	1	1	867	1	Ⴃ	cut_k_stereo_44KHz.wav
1	42	4	4	2	I	2	0	1004	1	Ⴊ	cut_u_stereo_44KHz.wav
1	43	3	4	2	I	1	0	975	1	Ⴜ	cut_u_stereo_44KHz.wav
1	44	1	1	1	C	1	0	1557	0	Ⴡ	cut_k_stereo_44KHz.wav
1	45	4	3	2	I	1	0	1473	0	Ⴊ	cut_o_stereo_44KHz.wav
1	46	1	2	0	C	1	1	1371	1	Ⴡ	cut_a_stereo_44KHz.wav
1	47	2	2	1	C	1	0	732	0	Ⴃ	cut_a_stereo_44KHz.wav
1	48	3	3	2	I	2	0	1498	1	Ⴜ	cut_o_stereo_44KHz.wav
1	49	1	2	0	C	1	1	1360	1	Ⴡ	cut_a_stereo_44KHz.wav
1	50	4	4	2	I	2	0	1048	1	Ⴊ	cut_u_stereo_44KHz.wav
1	51	3	3	2	I	2	0	1358	1	Ⴜ	cut_o_stereo_44KHz.wav
1	52	2	1	0	C	1	1	805	1	Ⴃ	cut_k_stereo_44KHz.wav
1	53	1	1	1	C	2	1	1230	1	Ⴡ	cut_k_stereo_44KHz.wav
1	54	3	4	2	I	1	0	914	0	Ⴜ	cut_u_stereo_44KHz.wav
1	55	2	2	1	C	0	0	0	0	Ⴃ	cut_a_stereo_44KHz.wav
1	56	4	3	2	I	1	0	1803	1	Ⴊ	cut_o_stereo_44KHz.wav
1	57	1	2	0	C	1	1	1449	1	Ⴡ	cut_a_stereo_44KHz.wav
1	58	3	3	2	I	0	0	0	0	Ⴜ	cut_o_stereo_44KHz.wav
1	59	2	2	1	C	1	0	1405	0	Ⴃ	cut_a_stereo_44KHz.wav
1	60	4	3	2	I	1	0	1400	1	Ⴊ	cut_o_stereo_44KHz.wav
1	61	3	4	2	I	1	0	1089	1	Ⴜ	cut_u_stereo_44KHz.wav
1	62	2	1	0	C	1	1	840	1	Ⴃ	cut_k_stereo_44KHz.wav
1	63	4	4	2	I	2	0	1213	1	Ⴊ	cut_u_stereo_44KHz.wav
1	64	1	1	1	C	2	1	1073	1	Ⴡ	cut_k_stereo_44KHz.wav
1	65	3	4	2	I	1	0	994	1	Ⴜ	cut_u_stereo_44KHz.wav
1	66	2	1	0	C	1	1	1197	1	Ⴃ	cut_k_stereo_44KHz.wav
1	67	4	4	2	I	2	0	1119	0	Ⴊ	cut_u_stereo_44KHz.wav
1	68	1	1	1	C	2	1	1552	1	Ⴡ	cut_k_stereo_44KHz.wav
1	69	4	3	2	I	1	0	1298	1	Ⴊ	cut_o_stereo_44KHz.wav
1	70	2	2	1	C	1	0	1435	0	Ⴃ	cut_a_stereo_44KHz.wav
1	71	1	2	0	C	1	1	1321	1	Ⴡ	cut_a_stereo_44KHz.wav
1	72	3	3	2	I	0	0	0	0	Ⴜ	cut_o_stereo_44KHz.wav
1	73	1	2	0	C	1	1	1797	1	Ⴡ	cut_a_stereo_44KHz.wav
1	74	4	4	2	I	2	0	1423	1	Ⴊ	cut_u_stereo_44KHz.wav
1	75	2	2	1	C	0	0	0	0	Ⴃ	cut_a_stereo_44KHz.wav
1	76	3	3	2	I	0	0	0	0	Ⴜ	cut_o_stereo_44KHz.wav
1	77	2	1	0	C	0	0	0	0	Ⴃ	cut_k_stereo_44KHz.wav
1	78	4	3	2	I	1	0	1609	1	Ⴊ	cut_o_stereo_44KHz.wav
1	79	1	1	1	C	2	1	1085	1	Ⴡ	cut_k_stereo_44KHz.wav
1	80	3	4	2	I	1	0	1915	1	Ⴜ	cut_u_stereo_44KHz.wav
1	81	1	1	1	C	2	1	1027	1	Ⴡ	cut_k_stereo_44KHz.wav
1	82	4	4	2	I	2	0	1115	1	Ⴊ	cut_u_stereo_44KHz.wav
1	83	3	4	2	I	1	0	836	1	Ⴜ	cut_u_stereo_44KHz.wav
1	84	2	1	0	C	2	0	1173	0	Ⴃ	cut_k_stereo_44KHz.wav
1	85	3	3	2	I	2	0	1394	1	Ⴜ	cut_o_stereo_44KHz.wav
1	86	4	3	2	I	1	0	1519	1	Ⴊ	cut_o_stereo_44KHz.wav
1	87	2	2	1	C	2	1	1251	1	Ⴃ	cut_a_stereo_44KHz.wav
1	88	1	2	0	C	1	1	1291	1	Ⴡ	cut_a_stereo_44KHz.wav
1	89	4	4	2	I	2	0	1062	1	Ⴊ	cut_u_stereo_44KHz.wav
1	90	2	1	0	C	1	1	878	1	Ⴃ	cut_k_stereo_44KHz.wav
1	91	3	4	2	I	1	0	1193	0	Ⴜ	cut_u_stereo_44KHz.wav
1	92	1	1	1	C	2	1	1360	1	Ⴡ	cut_k_stereo_44KHz.wav
1	93	3	3	2	I	1	0	1466	1	Ⴜ	cut_o_stereo_44KHz.wav
1	94	1	2	0	C	1	1	1279	1	Ⴡ	cut_a_stereo_44KHz.wav
1	95	4	3	2	I	1	0	1177	1	Ⴊ	cut_o_stereo_44KHz.wav
1	96	2	2	1	C	2	1	1080	1	Ⴃ	cut_a_stereo_44KHz.wav
1	97	3	4	2	I	1	0	1089	0	Ⴜ	cut_u_stereo_44KHz.wav
1	98	1	1	1	C	0	0	0	0	Ⴡ	cut_k_stereo_44KHz.wav
1	99	2	1	0	C	2	0	1927	0	Ⴃ	cut_k_stereo_44KHz.wav
1	100	4	4	2	I	2	0	1475	0	Ⴊ	cut_u_stereo_44KHz.wav
1	101	2	2	1	C	0	0	0	0	Ⴃ	cut_a_stereo_44KHz.wav
1	102	1	2	0	C	2	0	1449	0	Ⴡ	cut_a_stereo_44KHz.wav
1	103	3	3	2	I	0	0	0	0	Ⴜ	cut_o_stereo_44KHz.wav
1	104	4	3	2	I	1	0	1053	0	Ⴊ	cut_o_stereo_44KHz.wav
1	105	1	1	1	C	0	0	0	0	Ⴡ	cut_k_stereo_44KHz.wav
1	106	3	3	2	I	1	0	592	0	Ⴜ	cut_o_stereo_44KHz.wav
1	107	2	2	1	C	2	1	1802	1	Ⴃ	cut_a_stereo_44KHz.wav
1	108	4	3	2	I	1	0	986	1	Ⴊ	cut_o_stereo_44KHz.wav
1	109	3	4	2	I	1	0	1200	1	Ⴜ	cut_u_stereo_44KHz.wav
1	110	2	1	0	C	1	1	1026	1	Ⴃ	cut_k_stereo_44KHz.wav
1	111	4	4	2	I	1	0	1318	1	Ⴊ	cut_u_stereo_44KHz.wav
1	112	1	2	0	C	1	1	1234	1	Ⴡ	cut_a_stereo_44KHz.wav
1	113	2	2	1	C	1	0	1293	0	Ⴃ	cut_a_stereo_44KHz.wav
1	114	1	1	1	C	2	1	788	1	Ⴡ	cut_k_stereo_44KHz.wav
1	115	3	3	2	I	2	0	1366	1	Ⴜ	cut_o_stereo_44KHz.wav
1	116	4	3	2	I	1	0	1574	1	Ⴊ	cut_o_stereo_44KHz.wav
1	117	1	2	0	C	1	1	1242	1	Ⴡ	cut_a_stereo_44KHz.wav
1	118	2	1	0	C	1	1	1320	1	Ⴃ	cut_k_stereo_44KHz.wav
1	119	4	4	2	I	2	0	1360	0	Ⴊ	cut_u_stereo_44KHz.wav
1	120	3	4	2	I	1	0	943	1	Ⴜ	cut_u_stereo_44KHz.wav
1	121	1	1	1	C	2	1	1005	1	Ⴡ	cut_k_stereo_44KHz.wav
1	122	4	4	2	I	2	0	1154	0	Ⴊ	cut_u_stereo_44KHz.wav
1	123	3	4	2	I	1	0	1678	1	Ⴜ	cut_u_stereo_44KHz.wav
1	124	2	2	1	C	0	0	0	0	Ⴃ	cut_a_stereo_44KHz.wav
1	125	4	3	2	I	1	0	1645	0	Ⴊ	cut_o_stereo_44KHz.wav
1	126	1	2	0	C	1	1	893	1	Ⴡ	cut_a_stereo_44KHz.wav
1	127	2	1	0	C	1	1	831	1	Ⴃ	cut_k_stereo_44KHz.wav
1	128	3	3	2	I	2	0	897	1	Ⴜ	cut_o_stereo_44KHz.wav
1	129	4	4	2	I	2	0	1138	1	Ⴊ	cut_u_stereo_44KHz.wav
1	130	3	4	2	I	1	0	854	1	Ⴜ	cut_u_stereo_44KHz.wav
1	131	2	2	1	C	2	1	1080	1	Ⴃ	cut_a_stereo_44KHz.wav
1	132	1	1	1	C	2	1	947	1	Ⴡ	cut_k_stereo_44KHz.wav
1	133	3	3	2	I	0	0	0	0	Ⴜ	cut_o_stereo_44KHz.wav
1	134	2	1	0	C	1	1	1438	1	Ⴃ	cut_k_stereo_44KHz.wav
1	135	1	2	0	C	1	1	976	1	Ⴡ	cut_a_stereo_44KHz.wav
1	136	4	3	2	I	1	0	787	0	Ⴊ	cut_o_stereo_44KHz.wav
1	137	2	2	1	C	1	0	1485	0	Ⴃ	cut_a_stereo_44KHz.wav
1	138	3	3	2	I	2	0	1838	1	Ⴜ	cut_o_stereo_44KHz.wav
1	139	4	3	2	I	1	0	787	1	Ⴊ	cut_o_stereo_44KHz.wav
1	140	1	2	0	C	1	1	1155	1	Ⴡ	cut_a_stereo_44KHz.wav
1	141	2	1	0	C	1	1	1149	1	Ⴃ	cut_k_stereo_44KHz.wav
1	142	3	4	2	I	1	0	979	1	Ⴜ	cut_u_stereo_44KHz.wav
1	143	1	1	1	C	2	1	1159	1	Ⴡ	cut_k_stereo_44KHz.wav
1	144	4	4	2	I	2	0	1263	1	Ⴊ	cut_u_stereo_44KHz.wav
1	145	3	4	2	I	2	0	937	0	Ⴜ	cut_u_stereo_44KHz.wav
1	146	2	1	0	C	2	0	1745	0	Ⴃ	cut_k_stereo_44KHz.wav
1	147	4	3	2	I	1	0	1661	1	Ⴊ	cut_o_stereo_44KHz.wav
1	148	1	1	1	C	2	1	1193	1	Ⴡ	cut_k_stereo_44KHz.wav
1	149	2	2	1	C	2	1	1305	1	Ⴃ	cut_a_stereo_44KHz.wav
1	150	1	2	0	C	1	1	1156	1	Ⴡ	cut_a_stereo_44KHz.wav
1	151	3	3	2	I	2	0	910	1	Ⴜ	cut_o_stereo_44KHz.wav
1	152	4	4	2	I	2	0	1519	0	Ⴊ	cut_u_stereo_44KHz.wav
1	153	1	1	1	C	1	0	1252	0	Ⴡ	cut_k_stereo_44KHz.wav
1	154	3	3	2	I	2	0	1097	1	Ⴜ	cut_o_stereo_44KHz.wav
1	155	4	3	2	I	0	0	0	0	Ⴊ	cut_o_stereo_44KHz.wav
1	156	2	2	1	C	0	0	0	0	Ⴃ	cut_a_stereo_44KHz.wav
1	157	3	4	2	I	2	0	1428	1	Ⴜ	cut_u_stereo_44KHz.wav
1	158	2	1	0	C	1	1	1342	1	Ⴃ	cut_k_stereo_44KHz.wav
1	159	4	4	2	I	2	0	1175	1	Ⴊ	cut_u_stereo_44KHz.wav
1	160	1	2	0	C	2	0	1269	0	Ⴡ	cut_a_stereo_44KHz.wav
1	161	2	1	0	C	1	1	1595	1	Ⴃ	cut_k_stereo_44KHz.wav
1	162	1	2	0	C	1	1	1778	1	Ⴡ	cut_a_stereo_44KHz.wav
1	163	4	3	2	I	1	0	1225	1	Ⴊ	cut_o_stereo_44KHz.wav
1	164	3	4	2	I	1	0	836	1	Ⴜ	cut_u_stereo_44KHz.wav
1	165	4	4	2	I	2	0	1030	1	Ⴊ	cut_u_stereo_44KHz.wav
1	166	1	1	1	C	2	1	957	1	Ⴡ	cut_k_stereo_44KHz.wav
1	167	2	2	1	C	2	1	1089	1	Ⴃ	cut_a_stereo_44KHz.wav
1	168	3	3	2	I	2	0	895	0	Ⴜ	cut_o_stereo_44KHz.wav
1	169	4	3	2	I	1	0	1982	1	Ⴊ	cut_o_stereo_44KHz.wav
1	170	3	3	2	I	2	0	1615	0	Ⴜ	cut_o_stereo_44KHz.wav
1	171	2	1	0	C	0	0	0	0	Ⴃ	cut_k_stereo_44KHz.wav
1	172	1	2	0	C	0	0	0	0	Ⴡ	cut_a_stereo_44KHz.wav
1	173	2	2	1	C	2	1	1243	1	Ⴃ	cut_a_stereo_44KHz.wav
1	174	1	1	1	C	0	0	0	0	Ⴡ	cut_k_stereo_44KHz.wav
1	175	4	4	2	I	2	0	1023	1	Ⴊ	cut_u_stereo_44KHz.wav
1	176	3	4	2	I	1	0	868	1	Ⴜ	cut_u_stereo_44KHz.wav
1	177	4	3	2	I	1	0	1042	1	Ⴊ	cut_o_stereo_44KHz.wav
1	178	3	4	2	I	2	0	1542	1	Ⴜ	cut_u_stereo_44KHz.wav
1	179	2	1	0	C	1	1	1080	1	Ⴃ	cut_k_stereo_44KHz.wav
1	180	1	2	0	C	1	1	1076	1	Ⴡ	cut_a_stereo_44KHz.wav
1	181	4	4	2	I	2	0	1193	1	Ⴊ	cut_u_stereo_44KHz.wav
1	182	3	3	2	I	1	0	1464	1	Ⴜ	cut_o_stereo_44KHz.wav
1	183	2	2	1	C	2	1	1459	1	Ⴃ	cut_a_stereo_44KHz.wav
1	184	1	1	1	C	2	1	1024	1	Ⴡ	cut_k_stereo_44KHz.wav
1	185	3	4	2	I	1	0	1640	0	Ⴜ	cut_u_stereo_44KHz.wav
1	186	4	4	2	I	0	0	0	0	Ⴊ	cut_u_stereo_44KHz.wav
1	187	1	2	0	C	1	1	1467	1	Ⴡ	cut_a_stereo_44KHz.wav
1	188	2	2	1	C	2	1	1012	1	Ⴃ	cut_a_stereo_44KHz.wav
1	189	4	3	2	I	1	0	1199	1	Ⴊ	cut_o_stereo_44KHz.wav
1	190	3	3	2	I	2	0	836	1	Ⴜ	cut_o_stereo_44KHz.wav
1	191	2	1	0	C	1	1	1668	1	Ⴃ	cut_k_stereo_44KHz.wav
1	192	1	1	1	C	2	1	1449	1	Ⴡ	cut_k_stereo_44KHz.wav
1	193	3	3	2	I	2	0	1251	1	Ⴜ	cut_o_stereo_44KHz.wav
1	194	4	3	2	I	1	0	1592	1	Ⴊ	cut_o_stereo_44KHz.wav
1	195	2	2	1	C	2	1	1389	1	Ⴃ	cut_a_stereo_44KHz.wav
1	196	1	1	1	C	2	1	1139	1	Ⴡ	cut_k_stereo_44KHz.wav
1	197	3	4	2	I	1	0	1217	1	Ⴜ	cut_u_stereo_44KHz.wav
1	198	4	4	2	I	2	0	1307	1	Ⴊ	cut_u_stereo_44KHz.wav
1	199	1	2	0	C	1	1	1140	1	Ⴡ	cut_a_stereo_44KHz.wav
1	200	2	1	0	C	1	1	1123	1	Ⴃ	cut_k_stereo_44KHz.wav
2	1	3	4	2	I	0	0	0	0	Ⴏ	cut_h_stereo_44KHz.wav
2	2	1	2	0	C	2	0	889	0	Ⴒ	cut_w_stereo_44KHz.wav
2	3	2	1	0	C	1	1	1129	1	Ⴖ	cut_l_stereo_44KHz.wav
2	4	4	4	2	I	1	0	1205	1	Ⴕ	cut_h_stereo_44KHz.wav
2	5	2	2	1	C	1	0	1845	0	Ⴖ	cut_w_stereo_44KHz.wav
2	6	3	3	2	I	2	0	1677	1	Ⴏ	cut_g_stereo_44KHz.wav
2	7	4	3	2	I	1	0	1698	1	Ⴕ	cut_g_stereo_44KHz.wav
2	8	1	1	1	C	2	1	1740	1	Ⴒ	cut_l_stereo_44KHz.wav
2	9	4	3	2	I	1	0	1333	1	Ⴕ	cut_g_stereo_44KHz.wav
2	10	3	3	2	I	2	0	1372	1	Ⴏ	cut_g_stereo_44KHz.wav
2	11	2	2	1	C	1	0	1422	0	Ⴖ	cut_w_stereo_44KHz.wav
2	12	1	1	1	C	1	0	1571	0	Ⴒ	cut_l_stereo_44KHz.wav
2	13	2	1	0	C	2	0	1436	0	Ⴖ	cut_l_stereo_44KHz.wav
2	14	4	4	2	I	1	0	1212	1	Ⴕ	cut_h_stereo_44KHz.wav
2	15	3	4	2	I	2	0	1500	1	Ⴏ	cut_h_stereo_44KHz.wav
2	16	1	2	0	C	1	1	1233	1	Ⴒ	cut_w_stereo_44KHz.wav
2	17	2	1	0	C	1	1	1518	1	Ⴖ	cut_l_stereo_44KHz.wav
2	18	3	4	2	I	2	0	1345	1	Ⴏ	cut_h_stereo_44KHz.wav
2	19	1	2	0	C	1	1	1354	1	Ⴒ	cut_w_stereo_44KHz.wav
2	20	4	3	2	I	1	0	1089	1	Ⴕ	cut_g_stereo_44KHz.wav
2	21	2	2	1	C	1	0	1317	0	Ⴖ	cut_w_stereo_44KHz.wav
2	22	3	3	2	I	2	0	1747	1	Ⴏ	cut_g_stereo_44KHz.wav
2	23	1	1	1	C	2	1	1505	1	Ⴒ	cut_l_stereo_44KHz.wav
2	24	4	4	2	I	1	0	1903	1	Ⴕ	cut_h_stereo_44KHz.wav
2	25	2	2	1	C	1	0	1318	0	Ⴖ	cut_w_stereo_44KHz.wav
2	26	1	1	1	C	0	0	0	0	Ⴒ	cut_l_stereo_44KHz.wav
2	27	4	3	2	I	1	0	1136	0	Ⴕ	cut_g_stereo_44KHz.wav
2	28	3	4	2	I	2	0	1480	1	Ⴏ	cut_h_stereo_44KHz.wav
2	29	2	1	0	C	1	1	1810	1	Ⴖ	cut_l_stereo_44KHz.wav
2	30	4	4	2	I	1	0	1383	1	Ⴕ	cut_h_stereo_44KHz.wav
2	31	3	3	2	I	2	0	1407	1	Ⴏ	cut_g_stereo_44KHz.wav
2	32	1	2	0	C	1	1	1772	1	Ⴒ	cut_w_stereo_44KHz.wav
2	33	4	3	2	I	1	0	1554	1	Ⴕ	cut_g_stereo_44KHz.wav
2	34	1	1	1	C	2	1	1380	1	Ⴒ	cut_l_stereo_44KHz.wav
2	35	2	1	0	C	1	1	1286	1	Ⴖ	cut_l_stereo_44KHz.wav
2	36	3	4	2	I	2	0	1891	1	Ⴏ	cut_h_stereo_44KHz.wav
2	37	4	4	2	I	1	0	921	1	Ⴕ	cut_h_stereo_44KHz.wav
2	38	3	3	2	I	2	0	1423	0	Ⴏ	cut_g_stereo_44KHz.wav
2	39	2	2	1	C	1	0	1574	0	Ⴖ	cut_w_stereo_44KHz.wav
2	40	1	2	0	C	0	0	0	0	Ⴒ	cut_w_stereo_44KHz.wav
2	41	2	2	1	C	1	0	1703	0	Ⴖ	cut_w_stereo_44KHz.wav
2	42	3	4	2	I	2	0	1383	1	Ⴏ	cut_h_stereo_44KHz.wav
2	43	4	4	2	I	0	0	0	0	Ⴕ	cut_h_stereo_44KHz.wav
2	44	1	2	0	C	2	0	1858	0	Ⴒ	cut_w_stereo_44KHz.wav
2	45	4	3	2	I	1	0	1486	1	Ⴕ	cut_g_stereo_44KHz.wav
2	46	1	1	1	C	2	1	1575	1	Ⴒ	cut_l_stereo_44KHz.wav
2	47	2	1	0	C	1	1	1105	1	Ⴖ	cut_l_stereo_44KHz.wav
2	48	3	3	2	I	0	0	0	0	Ⴏ	cut_g_stereo_44KHz.wav
2	49	1	2	0	C	0	0	0	0	Ⴒ	cut_w_stereo_44KHz.wav
2	50	2	2	1	C	1	0	835	0	Ⴖ	cut_w_stereo_44KHz.wav
2	51	3	3	2	I	1	0	1408	1	Ⴏ	cut_g_stereo_44KHz.wav
2	52	4	4	2	I	1	0	1624	0	Ⴕ	cut_h_stereo_44KHz.wav
2	53	1	1	1	C	2	1	1709	1	Ⴒ	cut_l_stereo_44KHz.wav
2	54	4	3	2	I	1	0	1015	1	Ⴕ	cut_g_stereo_44KHz.wav
2	55	2	1	0	C	1	1	1459	1	Ⴖ	cut_l_stereo_44KHz.wav
2	56	3	4	2	I	2	0	1186	0	Ⴏ	cut_h_stereo_44KHz.wav
2	57	4	3	2	I	0	0	0	0	Ⴕ	cut_g_stereo_44KHz.wav
2	58	3	4	2	I	1	0	1700	1	Ⴏ	cut_h_stereo_44KHz.wav
2	59	1	1	1	C	2	1	1517	1	Ⴒ	cut_l_stereo_44KHz.wav
2	60	2	2	1	C	2	1	1899	1	Ⴖ	cut_w_stereo_44KHz.wav
2	61	4	4	2	I	1	0	951	1	Ⴕ	cut_h_stereo_44KHz.wav
2	62	1	2	0	C	1	1	1358	1	Ⴒ	cut_w_stereo_44KHz.wav
2	63	3	3	2	I	2	0	1451	1	Ⴏ	cut_g_stereo_44KHz.wav
2	64	2	1	0	C	1	1	1645	1	Ⴖ	cut_l_stereo_44KHz.wav
2	65	3	4	2	I	0	0	0	0	Ⴏ	cut_h_stereo_44KHz.wav
2	66	4	3	2	I	1	0	1514	1	Ⴕ	cut_g_stereo_44KHz.wav
2	67	1	2	0	C	2	0	1605	0	Ⴒ	cut_w_stereo_44KHz.wav
2	68	2	2	1	C	0	0	0	0	Ⴖ	cut_w_stereo_44KHz.wav
2	69	1	1	1	C	2	1	1403	1	Ⴒ	cut_l_stereo_44KHz.wav
2	70	2	1	0	C	2	0	1080	0	Ⴖ	cut_l_stereo_44KHz.wav
2	71	4	4	2	I	1	0	1124	1	Ⴕ	cut_h_stereo_44KHz.wav
2	72	3	3	2	I	1	0	1697	1	Ⴏ	cut_g_stereo_44KHz.wav
2	73	4	3	2	I	2	0	1769	1	Ⴕ	cut_g_stereo_44KHz.wav
2	74	1	2	0	C	2	0	1936	0	Ⴒ	cut_w_stereo_44KHz.wav
2	75	2	1	0	C	0	0	0	0	Ⴖ	cut_l_stereo_44KHz.wav
2	76	3	4	2	I	2	0	1462	1	Ⴏ	cut_h_stereo_44KHz.wav
2	77	4	4	2	I	1	0	1055	1	Ⴕ	cut_h_stereo_44KHz.wav
2	78	3	3	2	I	2	0	1592	1	Ⴏ	cut_g_stereo_44KHz.wav
2	79	1	1	1	C	1	0	1501	0	Ⴒ	cut_l_stereo_44KHz.wav
2	80	2	2	1	C	2	1	1491	1	Ⴖ	cut_w_stereo_44KHz.wav
2	81	3	3	2	I	0	0	0	0	Ⴏ	cut_g_stereo_44KHz.wav
2	82	1	2	0	C	1	1	1457	1	Ⴒ	cut_w_stereo_44KHz.wav
2	83	4	4	2	I	1	0	1442	1	Ⴕ	cut_h_stereo_44KHz.wav
2	84	2	1	0	C	1	1	1388	1	Ⴖ	cut_l_stereo_44KHz.wav
2	85	4	3	2	I	1	0	1738	1	Ⴕ	cut_g_stereo_44KHz.wav
2	86	3	4	2	I	2	0	1353	1	Ⴏ	cut_h_stereo_44KHz.wav
2	87	2	2	1	C	2	1	1617	1	Ⴖ	cut_w_stereo_44KHz.wav
2	88	1	1	1	C	2	1	1312	1	Ⴒ	cut_l_stereo_44KHz.wav
2	89	2	1	0	C	1	1	1232	1	Ⴖ	cut_l_stereo_44KHz.wav
2	90	3	4	2	I	2	0	1926	0	Ⴏ	cut_h_stereo_44KHz.wav
2	91	4	3	2	I	1	0	1370	1	Ⴕ	cut_g_stereo_44KHz.wav
2	92	1	1	1	C	1	0	1593	0	Ⴒ	cut_l_stereo_44KHz.wav
2	93	3	3	2	I	2	0	1382	1	Ⴏ	cut_g_stereo_44KHz.wav
2	94	2	2	1	C	2	1	1570	1	Ⴖ	cut_w_stereo_44KHz.wav
2	95	4	4	2	I	1	0	1437	1	Ⴕ	cut_h_stereo_44KHz.wav
2	96	1	2	0	C	1	1	1789	1	Ⴒ	cut_w_stereo_44KHz.wav
2	97	3	3	2	I	2	0	1690	0	Ⴏ	cut_g_stereo_44KHz.wav
2	98	2	2	1	C	1	0	1198	0	Ⴖ	cut_w_stereo_44KHz.wav
2	99	4	4	2	I	1	0	1564	1	Ⴕ	cut_h_stereo_44KHz.wav
2	100	1	2	0	C	1	1	1264	1	Ⴒ	cut_w_stereo_44KHz.wav
2	101	3	4	2	I	1	0	1471	1	Ⴏ	cut_h_stereo_44KHz.wav
2	102	1	1	1	C	1	0	1648	0	Ⴒ	cut_l_stereo_44KHz.wav
2	103	4	3	2	I	1	0	1566	1	Ⴕ	cut_g_stereo_44KHz.wav
2	104	2	1	0	C	1	1	1724	1	Ⴖ	cut_l_stereo_44KHz.wav
2	105	3	4	2	I	0	0	0	0	Ⴏ	cut_h_stereo_44KHz.wav
2	106	2	1	0	C	1	1	887	1	Ⴖ	cut_l_stereo_44KHz.wav
2	107	4	3	2	I	1	0	1342	0	Ⴕ	cut_g_stereo_44KHz.wav
2	108	1	1	1	C	2	1	1683	1	Ⴒ	cut_l_stereo_44KHz.wav
2	109	3	3	2	I	1	0	1314	1	Ⴏ	cut_g_stereo_44KHz.wav
2	110	1	2	0	C	1	1	1063	1	Ⴒ	cut_w_stereo_44KHz.wav
2	111	4	4	2	I	1	0	930	1	Ⴕ	cut_h_stereo_44KHz.wav
2	112	2	2	1	C	2	1	1481	1	Ⴖ	cut_w_stereo_44KHz.wav
2	113	3	3	2	I	1	0	1447	1	Ⴏ	cut_g_stereo_44KHz.wav
2	114	1	2	0	C	1	1	1481	1	Ⴒ	cut_w_stereo_44KHz.wav
2	115	4	4	2	I	1	0	952	1	Ⴕ	cut_h_stereo_44KHz.wav
2	116	2	2	1	C	2	1	1203	1	Ⴖ	cut_w_stereo_44KHz.wav
2	117	4	3	2	I	1	0	775	0	Ⴕ	cut_g_stereo_44KHz.wav
2	118	1	1	1	C	1	0	1086	0	Ⴒ	cut_l_stereo_44KHz.wav
2	119	3	4	2	I	1	0	1096	1	Ⴏ	cut_h_stereo_44KHz.wav
2	120	2	1	0	C	1	1	1444	1	Ⴖ	cut_l_stereo_44KHz.wav
2	121	4	4	2	I	1	0	1546	1	Ⴕ	cut_h_stereo_44KHz.wav
2	122	3	4	2	I	1	0	1645	0	Ⴏ	cut_h_stereo_44KHz.wav
2	123	1	2	0	C	1	1	1764	1	Ⴒ	cut_w_stereo_44KHz.wav
2	124	2	2	1	C	2	1	1287	1	Ⴖ	cut_w_stereo_44KHz.wav
2	125	3	3	2	I	1	0	1134	1	Ⴏ	cut_g_stereo_44KHz.wav
2	126	2	1	0	C	1	1	1072	1	Ⴖ	cut_l_stereo_44KHz.wav
2	127	4	3	2	I	2	0	925	0	Ⴕ	cut_g_stereo_44KHz.wav
2	128	1	1	1	C	1	0	1435	0	Ⴒ	cut_l_stereo_44KHz.wav
2	129	2	1	0	C	1	1	1270	1	Ⴖ	cut_l_stereo_44KHz.wav
2	130	3	4	2	I	1	0	1160	1	Ⴏ	cut_h_stereo_44KHz.wav
2	131	1	2	0	C	0	0	0	0	Ⴒ	cut_w_stereo_44KHz.wav
2	132	4	3	2	I	1	0	1111	1	Ⴕ	cut_g_stereo_44KHz.wav
2	133	2	2	1	C	0	0	0	0	Ⴖ	cut_w_stereo_44KHz.wav
2	134	3	3	2	I	1	0	1856	0	Ⴏ	cut_g_stereo_44KHz.wav
2	135	1	1	1	C	2	1	1251	1	Ⴒ	cut_l_stereo_44KHz.wav
2	136	4	4	2	I	0	0	0	0	Ⴕ	cut_h_stereo_44KHz.wav
2	137	3	4	2	I	1	0	1358	1	Ⴏ	cut_h_stereo_44KHz.wav
2	138	2	2	1	C	1	0	1646	0	Ⴖ	cut_w_stereo_44KHz.wav
2	139	1	2	0	C	1	1	1427	1	Ⴒ	cut_w_stereo_44KHz.wav
2	140	4	4	2	I	1	0	1138	1	Ⴕ	cut_h_stereo_44KHz.wav
2	141	1	1	1	C	2	1	1897	1	Ⴒ	cut_l_stereo_44KHz.wav
2	142	3	3	2	I	1	0	1479	1	Ⴏ	cut_g_stereo_44KHz.wav
2	143	4	3	2	I	1	0	1498	1	Ⴕ	cut_g_stereo_44KHz.wav
2	144	2	1	0	C	1	1	1397	1	Ⴖ	cut_l_stereo_44KHz.wav
2	145	4	3	2	I	1	0	1618	1	Ⴕ	cut_g_stereo_44KHz.wav
2	146	3	3	2	I	1	0	1579	1	Ⴏ	cut_g_stereo_44KHz.wav
2	147	2	2	1	C	1	0	1531	0	Ⴖ	cut_w_stereo_44KHz.wav
2	148	1	1	1	C	0	0	0	0	Ⴒ	cut_l_stereo_44KHz.wav
2	149	3	4	2	I	1	0	1308	1	Ⴏ	cut_h_stereo_44KHz.wav
2	150	2	1	0	C	1	1	1094	1	Ⴖ	cut_l_stereo_44KHz.wav
2	151	1	2	0	C	1	1	1155	1	Ⴒ	cut_w_stereo_44KHz.wav
2	152	4	4	2	I	1	0	1152	0	Ⴕ	cut_h_stereo_44KHz.wav
2	153	3	3	2	I	1	0	1538	1	Ⴏ	cut_g_stereo_44KHz.wav
2	154	4	3	2	I	1	0	1749	0	Ⴕ	cut_g_stereo_44KHz.wav
2	155	2	2	1	C	1	0	1519	0	Ⴖ	cut_w_stereo_44KHz.wav
2	156	1	1	1	C	1	0	284	0	Ⴒ	cut_l_stereo_44KHz.wav
2	157	2	1	0	C	1	1	1163	1	Ⴖ	cut_l_stereo_44KHz.wav
2	158	3	4	2	I	1	0	1061	1	Ⴏ	cut_h_stereo_44KHz.wav
2	159	4	4	2	I	1	0	908	1	Ⴕ	cut_h_stereo_44KHz.wav
2	160	1	2	0	C	1	1	1178	1	Ⴒ	cut_w_stereo_44KHz.wav
2	161	3	3	2	I	1	0	1292	1	Ⴏ	cut_g_stereo_44KHz.wav
2	162	2	2	1	C	1	0	1484	0	Ⴖ	cut_w_stereo_44KHz.wav
2	163	4	4	2	I	1	0	766	1	Ⴕ	cut_h_stereo_44KHz.wav
2	164	1	1	1	C	0	0	0	0	Ⴒ	cut_l_stereo_44KHz.wav
2	165	4	3	2	I	1	0	1755	1	Ⴕ	cut_g_stereo_44KHz.wav
2	166	3	4	2	I	1	0	1114	1	Ⴏ	cut_h_stereo_44KHz.wav
2	167	1	2	0	C	1	1	1457	1	Ⴒ	cut_w_stereo_44KHz.wav
2	168	2	1	0	C	1	1	1088	1	Ⴖ	cut_l_stereo_44KHz.wav
2	169	1	2	0	C	1	1	1292	1	Ⴒ	cut_w_stereo_44KHz.wav
2	170	4	4	2	I	1	0	1620	1	Ⴕ	cut_h_stereo_44KHz.wav
2	171	2	2	1	C	1	0	772	0	Ⴖ	cut_w_stereo_44KHz.wav
2	172	3	3	2	I	1	0	1557	0	Ⴏ	cut_g_stereo_44KHz.wav
2	173	4	3	2	I	1	0	1062	1	Ⴕ	cut_g_stereo_44KHz.wav
2	174	1	1	1	C	2	1	1341	1	Ⴒ	cut_l_stereo_44KHz.wav
2	175	3	4	2	I	2	0	199	0	Ⴏ	cut_h_stereo_44KHz.wav
2	176	2	1	0	C	0	0	0	0	Ⴖ	cut_l_stereo_44KHz.wav
2	177	1	1	1	C	2	1	1655	1	Ⴒ	cut_l_stereo_44KHz.wav
2	178	4	3	2	I	1	0	965	0	Ⴕ	cut_g_stereo_44KHz.wav
2	179	3	4	2	I	0	0	0	0	Ⴏ	cut_h_stereo_44KHz.wav
2	180	2	2	1	C	2	1	1219	1	Ⴖ	cut_w_stereo_44KHz.wav
2	181	3	3	2	I	0	0	0	0	Ⴏ	cut_g_stereo_44KHz.wav
2	182	4	4	2	I	1	0	1368	0	Ⴕ	cut_h_stereo_44KHz.wav
2	183	2	1	0	C	1	1	1386	1	Ⴖ	cut_l_stereo_44KHz.wav
2	184	1	2	0	C	1	1	1620	1	Ⴒ	cut_w_stereo_44KHz.wav
2	185	2	2	1	C	1	0	561	0	Ⴖ	cut_w_stereo_44KHz.wav
2	186	1	2	0	C	1	1	1369	1	Ⴒ	cut_w_stereo_44KHz.wav
2	187	3	3	2	I	1	0	1409	1	Ⴏ	cut_g_stereo_44KHz.wav
2	188	4	4	2	I	1	0	1240	1	Ⴕ	cut_h_stereo_44KHz.wav
2	189	1	1	1	C	1	0	1524	0	Ⴒ	cut_l_stereo_44KHz.wav
2	190	3	4	2	I	1	0	1399	1	Ⴏ	cut_h_stereo_44KHz.wav
2	191	2	1	0	C	1	1	1289	1	Ⴖ	cut_l_stereo_44KHz.wav
2	192	4	3	2	I	1	0	1293	1	Ⴕ	cut_g_stereo_44KHz.wav
2	193	1	1	1	C	2	1	1379	1	Ⴒ	cut_l_stereo_44KHz.wav
2	194	2	2	1	C	0	0	0	0	Ⴖ	cut_w_stereo_44KHz.wav
2	195	4	4	2	I	0	0	0	0	Ⴕ	cut_h_stereo_44KHz.wav
2	196	3	4	2	I	1	0	1328	1	Ⴏ	cut_h_stereo_44KHz.wav
2	197	2	1	0	C	1	1	1859	1	Ⴖ	cut_l_stereo_44KHz.wav
2	198	3	3	2	I	1	0	1338	1	Ⴏ	cut_g_stereo_44KHz.wav
2	199	1	2	0	C	1	1	1490	1	Ⴒ	cut_w_stereo_44KHz.wav
2	200	4	3	2	I	1	0	1153	1	Ⴕ	cut_g_stereo_44KHz.wav
3	1	1	1	1	C	1	0	1306	0	Ⴇ	cut_ei_stereo_44KHz.wav
3	2	3	3	2	I	1	0	783	1	Ⴟ	cut_ui_stereo_44KHz.wav
3	3	2	2	1	C	1	0	1133	0	Ⴁ	cut_n_stereo_44KHz.wav
3	4	4	3	2	I	2	0	1934	1	Ⴂ	cut_ui_stereo_44KHz.wav
3	5	2	1	0	C	1	1	1169	1	Ⴁ	cut_ei_stereo_44KHz.wav
3	6	4	4	2	I	1	0	960	1	Ⴂ	cut_r_stereo_44KHz.wav
3	7	3	4	2	I	2	0	1080	1	Ⴟ	cut_r_stereo_44KHz.wav
3	8	1	2	0	C	1	1	1301	1	Ⴇ	cut_n_stereo_44KHz.wav
3	9	4	3	2	I	2	0	1455	1	Ⴂ	cut_ui_stereo_44KHz.wav
3	10	3	4	2	I	1	0	1566	1	Ⴟ	cut_r_stereo_44KHz.wav
3	11	2	2	1	C	1	0	1183	0	Ⴁ	cut_n_stereo_44KHz.wav
3	12	1	2	0	C	2	0	1368	0	Ⴇ	cut_n_stereo_44KHz.wav
3	13	2	1	0	C	1	1	1011	1	Ⴁ	cut_ei_stereo_44KHz.wav
3	14	3	3	2	I	2	0	1010	1	Ⴟ	cut_ui_stereo_44KHz.wav
3	15	4	4	2	I	0	0	0	0	Ⴂ	cut_r_stereo_44KHz.wav
3	16	1	1	1	C	2	1	1292	1	Ⴇ	cut_ei_stereo_44KHz.wav
3	17	2	2	1	C	1	0	1320	0	Ⴁ	cut_n_stereo_44KHz.wav
3	18	3	4	2	I	2	0	1553	1	Ⴟ	cut_r_stereo_44KHz.wav
3	19	4	4	2	I	1	0	1391	1	Ⴂ	cut_r_stereo_44KHz.wav
3	20	1	1	1	C	2	1	950	1	Ⴇ	cut_ei_stereo_44KHz.wav
3	21	2	1	0	C	1	1	978	1	Ⴁ	cut_ei_stereo_44KHz.wav
3	22	3	3	2	I	1	0	1328	1	Ⴟ	cut_ui_stereo_44KHz.wav
3	23	4	3	2	I	0	0	0	0	Ⴂ	cut_ui_stereo_44KHz.wav
3	24	1	2	0	C	1	1	190	1	Ⴇ	cut_n_stereo_44KHz.wav
3	25	2	2	1	C	1	0	1435	0	Ⴁ	cut_n_stereo_44KHz.wav
3	26	1	1	1	C	1	0	1281	0	Ⴇ	cut_ei_stereo_44KHz.wav
3	27	3	4	2	I	2	0	1549	1	Ⴟ	cut_r_stereo_44KHz.wav
3	28	4	3	2	I	2	0	1229	1	Ⴂ	cut_ui_stereo_44KHz.wav
3	29	3	3	2	I	1	0	981	1	Ⴟ	cut_ui_stereo_44KHz.wav
3	30	4	4	2	I	1	0	790	1	Ⴂ	cut_r_stereo_44KHz.wav
3	31	2	1	0	C	1	1	890	1	Ⴁ	cut_ei_stereo_44KHz.wav
3	32	1	2	0	C	2	0	890	0	Ⴇ	cut_n_stereo_44KHz.wav
3	33	4	3	2	I	2	0	1537	1	Ⴂ	cut_ui_stereo_44KHz.wav
3	34	3	3	2	I	1	0	1209	1	Ⴟ	cut_ui_stereo_44KHz.wav
3	35	2	1	0	C	1	1	1559	1	Ⴁ	cut_ei_stereo_44KHz.wav
3	36	1	1	1	C	1	0	1481	0	Ⴇ	cut_ei_stereo_44KHz.wav
3	37	2	2	1	C	1	0	1922	0	Ⴁ	cut_n_stereo_44KHz.wav
3	38	4	4	2	I	1	0	1652	1	Ⴂ	cut_r_stereo_44KHz.wav
3	39	3	4	2	I	2	0	1290	1	Ⴟ	cut_r_stereo_44KHz.wav
3	40	1	2	0	C	2	0	1321	0	Ⴇ	cut_n_stereo_44KHz.wav
3	41	3	4	2	I	2	0	1463	1	Ⴟ	cut_r_stereo_44KHz.wav
3	42	2	2	1	C	2	1	1068	1	Ⴁ	cut_n_stereo_44KHz.wav
3	43	1	1	1	C	2	1	1019	1	Ⴇ	cut_ei_stereo_44KHz.wav
3	44	4	4	2	I	1	0	867	1	Ⴂ	cut_r_stereo_44KHz.wav
3	45	1	2	0	C	2	0	1516	0	Ⴇ	cut_n_stereo_44KHz.wav
3	46	3	3	2	I	2	0	1221	1	Ⴟ	cut_ui_stereo_44KHz.wav
3	47	4	3	2	I	2	0	906	1	Ⴂ	cut_ui_stereo_44KHz.wav
3	48	2	1	0	C	1	1	1091	1	Ⴁ	cut_ei_stereo_44KHz.wav
3	49	3	3	2	I	1	0	1547	1	Ⴟ	cut_ui_stereo_44KHz.wav
3	50	1	2	0	C	1	1	1636	1	Ⴇ	cut_n_stereo_44KHz.wav
3	51	2	1	0	C	1	1	1258	1	Ⴁ	cut_ei_stereo_44KHz.wav
3	52	4	4	2	I	1	0	957	0	Ⴂ	cut_r_stereo_44KHz.wav
3	53	2	2	1	C	2	1	1212	1	Ⴁ	cut_n_stereo_44KHz.wav
3	54	3	4	2	I	0	0	0	0	Ⴟ	cut_r_stereo_44KHz.wav
3	55	4	3	2	I	2	0	788	0	Ⴂ	cut_ui_stereo_44KHz.wav
3	56	1	1	1	C	2	1	1723	1	Ⴇ	cut_ei_stereo_44KHz.wav
3	57	2	1	0	C	1	1	1249	1	Ⴁ	cut_ei_stereo_44KHz.wav
3	58	3	3	2	I	1	0	1581	1	Ⴟ	cut_ui_stereo_44KHz.wav
3	59	4	3	2	I	2	0	1452	1	Ⴂ	cut_ui_stereo_44KHz.wav
3	60	1	1	1	C	2	1	1021	1	Ⴇ	cut_ei_stereo_44KHz.wav
3	61	4	4	2	I	1	0	1248	1	Ⴂ	cut_r_stereo_44KHz.wav
3	62	1	2	0	C	1	1	1099	1	Ⴇ	cut_n_stereo_44KHz.wav
3	63	2	2	1	C	2	1	1192	1	Ⴁ	cut_n_stereo_44KHz.wav
3	64	3	4	2	I	2	0	1766	0	Ⴟ	cut_r_stereo_44KHz.wav
3	65	2	1	0	C	0	0	0	0	Ⴁ	cut_ei_stereo_44KHz.wav
3	66	3	3	2	I	1	0	827	1	Ⴟ	cut_ui_stereo_44KHz.wav
3	67	4	3	2	I	2	0	1270	1	Ⴂ	cut_ui_stereo_44KHz.wav
3	68	1	1	1	C	2	1	1011	1	Ⴇ	cut_ei_stereo_44KHz.wav
3	69	4	4	2	I	1	0	1050	1	Ⴂ	cut_r_stereo_44KHz.wav
3	70	2	2	1	C	2	1	1783	1	Ⴁ	cut_n_stereo_44KHz.wav
3	71	1	2	0	C	1	1	1361	1	Ⴇ	cut_n_stereo_44KHz.wav
3	72	3	4	2	I	2	0	950	0	Ⴟ	cut_r_stereo_44KHz.wav
3	73	4	3	2	I	2	0	1307	1	Ⴂ	cut_ui_stereo_44KHz.wav
3	74	2	1	0	C	1	1	1388	1	Ⴁ	cut_ei_stereo_44KHz.wav
3	75	3	3	2	I	1	0	1291	1	Ⴟ	cut_ui_stereo_44KHz.wav
3	76	1	2	0	C	1	1	946	1	Ⴇ	cut_n_stereo_44KHz.wav
3	77	2	2	1	C	2	1	1258	1	Ⴁ	cut_n_stereo_44KHz.wav
3	78	1	1	1	C	2	1	1279	1	Ⴇ	cut_ei_stereo_44KHz.wav
3	79	3	4	2	I	2	0	1208	0	Ⴟ	cut_r_stereo_44KHz.wav
3	80	4	4	2	I	1	0	1300	1	Ⴂ	cut_r_stereo_44KHz.wav
3	81	2	1	0	C	1	1	1444	1	Ⴁ	cut_ei_stereo_44KHz.wav
3	82	1	2	0	C	1	1	1656	1	Ⴇ	cut_n_stereo_44KHz.wav
3	83	3	4	2	I	2	0	1725	0	Ⴟ	cut_r_stereo_44KHz.wav
3	84	4	3	2	I	1	0	1424	1	Ⴂ	cut_ui_stereo_44KHz.wav
3	85	1	1	1	C	2	1	1239	1	Ⴇ	cut_ei_stereo_44KHz.wav
3	86	2	2	1	C	2	1	1354	1	Ⴁ	cut_n_stereo_44KHz.wav
3	87	4	4	2	I	1	0	1221	1	Ⴂ	cut_r_stereo_44KHz.wav
3	88	3	3	2	I	1	0	1808	1	Ⴟ	cut_ui_stereo_44KHz.wav
3	89	4	3	2	I	2	0	1295	1	Ⴂ	cut_ui_stereo_44KHz.wav
3	90	3	4	2	I	2	0	1667	1	Ⴟ	cut_r_stereo_44KHz.wav
3	91	2	1	0	C	1	1	1461	1	Ⴁ	cut_ei_stereo_44KHz.wav
3	92	1	2	0	C	1	1	1527	1	Ⴇ	cut_n_stereo_44KHz.wav
3	93	2	2	1	C	2	1	1701	1	Ⴁ	cut_n_stereo_44KHz.wav
3	94	1	1	1	C	2	1	1795	1	Ⴇ	cut_ei_stereo_44KHz.wav
3	95	3	3	2	I	1	0	1486	1	Ⴟ	cut_ui_stereo_44KHz.wav
3	96	4	4	2	I	1	0	1171	1	Ⴂ	cut_r_stereo_44KHz.wav
3	97	2	1	0	C	1	1	774	1	Ⴁ	cut_ei_stereo_44KHz.wav
3	98	4	4	2	I	1	0	1371	0	Ⴂ	cut_r_stereo_44KHz.wav
3	99	1	2	0	C	1	1	1214	1	Ⴇ	cut_n_stereo_44KHz.wav
3	100	3	4	2	I	1	0	1566	1	Ⴟ	cut_r_stereo_44KHz.wav
3	101	2	2	1	C	1	0	1687	0	Ⴁ	cut_n_stereo_44KHz.wav
3	102	3	3	2	I	1	0	1081	1	Ⴟ	cut_ui_stereo_44KHz.wav
3	103	1	1	1	C	2	1	1309	1	Ⴇ	cut_ei_stereo_44KHz.wav
3	104	4	3	2	I	2	0	1749	1	Ⴂ	cut_ui_stereo_44KHz.wav
3	105	3	3	2	I	1	0	1391	1	Ⴟ	cut_ui_stereo_44KHz.wav
3	106	2	2	1	C	2	1	1527	1	Ⴁ	cut_n_stereo_44KHz.wav
3	107	1	1	1	C	0	0	0	0	Ⴇ	cut_ei_stereo_44KHz.wav
3	108	4	4	2	I	2	0	1660	1	Ⴂ	cut_r_stereo_44KHz.wav
3	109	3	4	2	I	1	0	1416	1	Ⴟ	cut_r_stereo_44KHz.wav
3	110	2	1	0	C	1	1	999	1	Ⴁ	cut_ei_stereo_44KHz.wav
3	111	1	2	0	C	2	0	1063	0	Ⴇ	cut_n_stereo_44KHz.wav
3	112	4	3	2	I	1	0	1746	1	Ⴂ	cut_ui_stereo_44KHz.wav
3	113	1	2	0	C	1	1	667	1	Ⴇ	cut_n_stereo_44KHz.wav
3	114	3	4	2	I	2	0	1081	1	Ⴟ	cut_r_stereo_44KHz.wav
3	115	4	3	2	I	2	0	1512	1	Ⴂ	cut_ui_stereo_44KHz.wav
3	116	2	1	0	C	1	1	1199	1	Ⴁ	cut_ei_stereo_44KHz.wav
3	117	4	4	2	I	1	0	1259	1	Ⴂ	cut_r_stereo_44KHz.wav
3	118	3	3	2	I	1	0	925	1	Ⴟ	cut_ui_stereo_44KHz.wav
3	119	1	1	1	C	1	0	1341	0	Ⴇ	cut_ei_stereo_44KHz.wav
3	120	2	2	1	C	2	1	1417	1	Ⴁ	cut_n_stereo_44KHz.wav
3	121	4	4	2	I	1	0	1603	0	Ⴂ	cut_r_stereo_44KHz.wav
3	122	2	2	1	C	2	1	1003	1	Ⴁ	cut_n_stereo_44KHz.wav
3	123	3	4	2	I	2	0	1499	1	Ⴟ	cut_r_stereo_44KHz.wav
3	124	1	1	1	C	1	0	1580	0	Ⴇ	cut_ei_stereo_44KHz.wav
3	125	2	1	0	C	2	0	1396	0	Ⴁ	cut_ei_stereo_44KHz.wav
3	126	3	3	2	I	1	0	1201	0	Ⴟ	cut_ui_stereo_44KHz.wav
3	127	4	3	2	I	2	0	955	0	Ⴂ	cut_ui_stereo_44KHz.wav
3	128	1	2	0	C	0	0	0	0	Ⴇ	cut_n_stereo_44KHz.wav
3	129	2	1	0	C	1	1	1839	1	Ⴁ	cut_ei_stereo_44KHz.wav
3	130	3	3	2	I	1	0	1003	1	Ⴟ	cut_ui_stereo_44KHz.wav
3	131	1	1	1	C	1	0	828	0	Ⴇ	cut_ei_stereo_44KHz.wav
3	132	4	3	2	I	1	0	1522	1	Ⴂ	cut_ui_stereo_44KHz.wav
3	133	1	2	0	C	2	0	1164	0	Ⴇ	cut_n_stereo_44KHz.wav
3	134	4	4	2	I	1	0	1217	1	Ⴂ	cut_r_stereo_44KHz.wav
3	135	3	4	2	I	1	0	1843	1	Ⴟ	cut_r_stereo_44KHz.wav
3	136	2	2	1	C	2	1	1292	1	Ⴁ	cut_n_stereo_44KHz.wav
3	137	3	4	2	I	2	0	1617	1	Ⴟ	cut_r_stereo_44KHz.wav
3	138	1	1	1	C	0	0	0	0	Ⴇ	cut_ei_stereo_44KHz.wav
3	139	4	4	2	I	1	0	1182	1	Ⴂ	cut_r_stereo_44KHz.wav
3	140	2	1	0	C	0	0	0	0	Ⴁ	cut_ei_stereo_44KHz.wav
3	141	4	3	2	I	2	0	1886	1	Ⴂ	cut_ui_stereo_44KHz.wav
3	142	2	2	1	C	0	0	0	0	Ⴁ	cut_n_stereo_44KHz.wav
3	143	1	2	0	C	1	1	1459	1	Ⴇ	cut_n_stereo_44KHz.wav
3	144	3	3	2	I	1	0	1804	0	Ⴟ	cut_ui_stereo_44KHz.wav
3	145	2	2	1	C	2	1	1362	1	Ⴁ	cut_n_stereo_44KHz.wav
3	146	4	3	2	I	1	0	1327	0	Ⴂ	cut_ui_stereo_44KHz.wav
3	147	1	2	0	C	1	1	1005	1	Ⴇ	cut_n_stereo_44KHz.wav
3	148	3	4	2	I	2	0	1704	1	Ⴟ	cut_r_stereo_44KHz.wav
3	149	1	1	1	C	2	1	1093	1	Ⴇ	cut_ei_stereo_44KHz.wav
3	150	4	4	2	I	1	0	1252	0	Ⴂ	cut_r_stereo_44KHz.wav
3	151	3	3	2	I	2	0	1187	1	Ⴟ	cut_ui_stereo_44KHz.wav
3	152	2	1	0	C	1	1	1205	1	Ⴁ	cut_ei_stereo_44KHz.wav
3	153	3	3	2	I	1	0	831	1	Ⴟ	cut_ui_stereo_44KHz.wav
3	154	4	3	2	I	1	0	1361	1	Ⴂ	cut_ui_stereo_44KHz.wav
3	155	2	2	1	C	1	0	1442	0	Ⴁ	cut_n_stereo_44KHz.wav
3	156	1	2	0	C	1	1	1294	1	Ⴇ	cut_n_stereo_44KHz.wav
3	157	3	4	2	I	2	0	1599	1	Ⴟ	cut_r_stereo_44KHz.wav
3	158	1	1	1	C	1	0	1120	0	Ⴇ	cut_ei_stereo_44KHz.wav
3	159	4	4	2	I	0	0	0	0	Ⴂ	cut_r_stereo_44KHz.wav
3	160	2	1	0	C	0	0	0	0	Ⴁ	cut_ei_stereo_44KHz.wav
3	161	3	3	2	I	1	0	1458	1	Ⴟ	cut_ui_stereo_44KHz.wav
3	162	2	1	0	C	1	1	848	1	Ⴁ	cut_ei_stereo_44KHz.wav
3	163	4	3	2	I	2	0	1074	1	Ⴂ	cut_ui_stereo_44KHz.wav
3	164	1	2	0	C	1	1	1380	1	Ⴇ	cut_n_stereo_44KHz.wav
3	165	3	4	2	I	1	0	885	0	Ⴟ	cut_r_stereo_44KHz.wav
3	166	1	1	1	C	1	0	1228	0	Ⴇ	cut_ei_stereo_44KHz.wav
3	167	4	4	2	I	1	0	1287	1	Ⴂ	cut_r_stereo_44KHz.wav
3	168	2	2	1	C	1	0	885	0	Ⴁ	cut_n_stereo_44KHz.wav
3	169	4	3	2	I	2	0	1521	1	Ⴂ	cut_ui_stereo_44KHz.wav
3	170	1	2	0	C	1	1	1184	1	Ⴇ	cut_n_stereo_44KHz.wav
3	171	3	3	2	I	1	0	1150	0	Ⴟ	cut_ui_stereo_44KHz.wav
3	172	2	1	0	C	1	1	1540	1	Ⴁ	cut_ei_stereo_44KHz.wav
3	173	3	4	2	I	1	0	1339	1	Ⴟ	cut_r_stereo_44KHz.wav
3	174	1	1	1	C	2	1	1393	1	Ⴇ	cut_ei_stereo_44KHz.wav
3	175	2	2	1	C	1	0	1459	0	Ⴁ	cut_n_stereo_44KHz.wav
3	176	4	4	2	I	1	0	1839	1	Ⴂ	cut_r_stereo_44KHz.wav
3	177	2	1	0	C	1	1	1484	1	Ⴁ	cut_ei_stereo_44KHz.wav
3	178	3	3	2	I	1	0	1299	1	Ⴟ	cut_ui_stereo_44KHz.wav
3	179	1	1	1	C	2	1	1371	1	Ⴇ	cut_ei_stereo_44KHz.wav
3	180	4	3	2	I	1	0	1167	1	Ⴂ	cut_ui_stereo_44KHz.wav
3	181	1	2	0	C	1	1	835	1	Ⴇ	cut_n_stereo_44KHz.wav
3	182	3	4	2	I	2	0	1328	1	Ⴟ	cut_r_stereo_44KHz.wav
3	183	2	2	1	C	1	0	882	0	Ⴁ	cut_n_stereo_44KHz.wav
3	184	4	4	2	I	1	0	1198	0	Ⴂ	cut_r_stereo_44KHz.wav
3	185	1	2	0	C	1	1	1221	1	Ⴇ	cut_n_stereo_44KHz.wav
3	186	3	4	2	I	1	0	733	0	Ⴟ	cut_r_stereo_44KHz.wav
3	187	4	4	2	I	1	0	1106	1	Ⴂ	cut_r_stereo_44KHz.wav
3	188	2	1	0	C	1	1	1543	1	Ⴁ	cut_ei_stereo_44KHz.wav
3	189	3	3	2	I	1	0	1049	1	Ⴟ	cut_ui_stereo_44KHz.wav
3	190	2	2	1	C	2	1	1068	1	Ⴁ	cut_n_stereo_44KHz.wav
3	191	4	3	2	I	1	0	995	1	Ⴂ	cut_ui_stereo_44KHz.wav
3	192	1	1	1	C	1	0	696	0	Ⴇ	cut_ei_stereo_44KHz.wav
3	193	2	1	0	C	1	1	1375	1	Ⴁ	cut_ei_stereo_44KHz.wav
3	194	1	1	1	C	1	0	1391	0	Ⴇ	cut_ei_stereo_44KHz.wav
3	195	4	3	2	I	1	0	1418	1	Ⴂ	cut_ui_stereo_44KHz.wav
3	196	3	4	2	I	1	0	1109	0	Ⴟ	cut_r_stereo_44KHz.wav
3	197	4	4	2	I	2	0	1408	0	Ⴂ	cut_r_stereo_44KHz.wav
3	198	1	2	0	C	1	1	1876	1	Ⴇ	cut_n_stereo_44KHz.wav
3	199	3	3	2	I	1	0	959	1	Ⴟ	cut_ui_stereo_44KHz.wav
3	200	2	2	1	C	2	1	989	1	Ⴁ	cut_n_stereo_44KHz.wav
4	1	3	3	2	I	1	0	1279	1	Ⴉ	cut_f_stereo_44KHz.wav
4	2	2	2	1	C	1	0	916	0	Ⴌ	cut_s_stereo_44KHz.wav
4	3	4	4	2	I	1	0	984	1	Ⴔ	cut_oei_stereo_44KHz.wav
4	4	1	1	1	C	1	0	771	0	Ⴐ	cut_j_stereo_44KHz.wav
4	5	3	4	2	I	1	0	906	1	Ⴉ	cut_oei_stereo_44KHz.wav
4	6	2	1	0	C	2	0	1271	0	Ⴌ	cut_j_stereo_44KHz.wav
4	7	1	2	0	C	2	0	1197	0	Ⴐ	cut_s_stereo_44KHz.wav
4	8	4	3	2	I	1	0	1083	0	Ⴔ	cut_f_stereo_44KHz.wav
4	9	1	1	1	C	2	1	722	1	Ⴐ	cut_j_stereo_44KHz.wav
4	10	4	3	2	I	1	0	962	0	Ⴔ	cut_f_stereo_44KHz.wav
4	11	2	2	1	C	1	0	1629	0	Ⴌ	cut_s_stereo_44KHz.wav
4	12	3	3	2	I	2	0	882	1	Ⴉ	cut_f_stereo_44KHz.wav
4	13	2	1	0	C	1	1	792	1	Ⴌ	cut_j_stereo_44KHz.wav
4	14	4	4	2	I	1	0	1221	1	Ⴔ	cut_oei_stereo_44KHz.wav
4	15	1	2	0	C	2	0	1616	0	Ⴐ	cut_s_stereo_44KHz.wav
4	16	3	4	2	I	1	0	1431	1	Ⴉ	cut_oei_stereo_44KHz.wav
4	17	2	1	0	C	1	1	1379	1	Ⴌ	cut_j_stereo_44KHz.wav
4	18	3	4	2	I	1	0	954	1	Ⴉ	cut_oei_stereo_44KHz.wav
4	19	4	4	2	I	1	0	1007	1	Ⴔ	cut_oei_stereo_44KHz.wav
4	20	1	2	0	C	2	0	43	0	Ⴐ	cut_s_stereo_44KHz.wav
4	21	4	3	2	I	1	0	1029	1	Ⴔ	cut_f_stereo_44KHz.wav
4	22	3	3	2	I	1	0	744	1	Ⴉ	cut_f_stereo_44KHz.wav
4	23	2	2	1	C	1	0	155	0	Ⴌ	cut_s_stereo_44KHz.wav
4	24	1	1	1	C	1	0	888	0	Ⴐ	cut_j_stereo_44KHz.wav
4	25	2	1	0	C	1	1	1711	1	Ⴌ	cut_j_stereo_44KHz.wav
4	26	1	2	0	C	2	0	727	0	Ⴐ	cut_s_stereo_44KHz.wav
4	27	4	4	2	I	1	0	966	1	Ⴔ	cut_oei_stereo_44KHz.wav
4	28	3	4	2	I	1	0	969	1	Ⴉ	cut_oei_stereo_44KHz.wav
4	29	2	2	1	C	1	0	1445	0	Ⴌ	cut_s_stereo_44KHz.wav
4	30	3	3	2	I	1	0	1476	1	Ⴉ	cut_f_stereo_44KHz.wav
4	31	4	3	2	I	1	0	1207	1	Ⴔ	cut_f_stereo_44KHz.wav
4	32	1	1	1	C	1	0	790	0	Ⴐ	cut_j_stereo_44KHz.wav
4	33	3	3	2	I	1	0	1898	0	Ⴉ	cut_f_stereo_44KHz.wav
4	34	1	2	0	C	0	0	0	0	Ⴐ	cut_s_stereo_44KHz.wav
4	35	2	1	0	C	1	1	1558	1	Ⴌ	cut_j_stereo_44KHz.wav
4	36	4	3	2	I	0	0	0	0	Ⴔ	cut_f_stereo_44KHz.wav
4	37	1	1	1	C	1	0	750	0	Ⴐ	cut_j_stereo_44KHz.wav
4	38	3	4	2	I	1	0	972	1	Ⴉ	cut_oei_stereo_44KHz.wav
4	39	2	2	1	C	1	0	903	0	Ⴌ	cut_s_stereo_44KHz.wav
4	40	4	4	2	I	1	0	1319	0	Ⴔ	cut_oei_stereo_44KHz.wav
4	41	2	1	0	C	1	1	1090	1	Ⴌ	cut_j_stereo_44KHz.wav
4	42	4	4	2	I	1	0	1288	1	Ⴔ	cut_oei_stereo_44KHz.wav
4	43	1	1	1	C	1	0	813	0	Ⴐ	cut_j_stereo_44KHz.wav
4	44	3	3	2	I	1	0	1275	0	Ⴉ	cut_f_stereo_44KHz.wav
4	45	1	2	0	C	1	1	1578	1	Ⴐ	cut_s_stereo_44KHz.wav
4	46	3	4	2	I	1	0	1408	1	Ⴉ	cut_oei_stereo_44KHz.wav
4	47	4	3	2	I	1	0	1642	1	Ⴔ	cut_f_stereo_44KHz.wav
4	48	2	2	1	C	1	0	975	0	Ⴌ	cut_s_stereo_44KHz.wav
4	49	1	2	0	C	1	1	1285	1	Ⴐ	cut_s_stereo_44KHz.wav
4	50	3	3	2	I	1	0	1216	1	Ⴉ	cut_f_stereo_44KHz.wav
4	51	4	4	2	I	1	0	1112	1	Ⴔ	cut_oei_stereo_44KHz.wav
4	52	2	2	1	C	1	0	1257	0	Ⴌ	cut_s_stereo_44KHz.wav
4	53	3	4	2	I	1	0	788	1	Ⴉ	cut_oei_stereo_44KHz.wav
4	54	4	3	2	I	1	0	1263	1	Ⴔ	cut_f_stereo_44KHz.wav
4	55	1	1	1	C	1	0	1310	0	Ⴐ	cut_j_stereo_44KHz.wav
4	56	2	1	0	C	1	1	1531	1	Ⴌ	cut_j_stereo_44KHz.wav
4	57	1	2	0	C	1	1	1386	1	Ⴐ	cut_s_stereo_44KHz.wav
4	58	3	3	2	I	2	0	1915	1	Ⴉ	cut_f_stereo_44KHz.wav
4	59	2	2	1	C	2	1	1007	1	Ⴌ	cut_s_stereo_44KHz.wav
4	60	4	4	2	I	1	0	790	1	Ⴔ	cut_oei_stereo_44KHz.wav
4	61	1	1	1	C	1	0	1371	0	Ⴐ	cut_j_stereo_44KHz.wav
4	62	2	1	0	C	2	0	193	0	Ⴌ	cut_j_stereo_44KHz.wav
4	63	4	3	2	I	1	0	1839	1	Ⴔ	cut_f_stereo_44KHz.wav
4	64	3	4	2	I	1	0	977	1	Ⴉ	cut_oei_stereo_44KHz.wav
4	65	1	1	1	C	2	1	1085	1	Ⴐ	cut_j_stereo_44KHz.wav
4	66	2	1	0	C	1	1	886	1	Ⴌ	cut_j_stereo_44KHz.wav
4	67	4	4	2	I	1	0	1109	1	Ⴔ	cut_oei_stereo_44KHz.wav
4	68	3	3	2	I	1	0	949	1	Ⴉ	cut_f_stereo_44KHz.wav
4	69	1	2	0	C	1	1	1152	1	Ⴐ	cut_s_stereo_44KHz.wav
4	70	2	2	1	C	0	0	0	0	Ⴌ	cut_s_stereo_44KHz.wav
4	71	4	3	2	I	0	0	0	0	Ⴔ	cut_f_stereo_44KHz.wav
4	72	3	4	2	I	0	0	0	0	Ⴉ	cut_oei_stereo_44KHz.wav
4	73	4	3	2	I	1	0	669	1	Ⴔ	cut_f_stereo_44KHz.wav
4	74	1	1	1	C	1	0	216	0	Ⴐ	cut_j_stereo_44KHz.wav
4	75	2	1	0	C	1	1	924	1	Ⴌ	cut_j_stereo_44KHz.wav
4	76	3	4	2	I	1	0	628	1	Ⴉ	cut_oei_stereo_44KHz.wav
4	77	2	2	1	C	2	1	335	1	Ⴌ	cut_s_stereo_44KHz.wav
4	78	3	3	2	I	1	0	1165	0	Ⴉ	cut_f_stereo_44KHz.wav
4	79	1	2	0	C	1	1	1180	1	Ⴐ	cut_s_stereo_44KHz.wav
4	80	4	4	2	I	1	0	963	0	Ⴔ	cut_oei_stereo_44KHz.wav
4	81	1	2	0	C	2	0	993	0	Ⴐ	cut_s_stereo_44KHz.wav
4	82	4	4	2	I	1	0	1422	1	Ⴔ	cut_oei_stereo_44KHz.wav
4	83	2	2	1	C	1	0	1930	0	Ⴌ	cut_s_stereo_44KHz.wav
4	84	3	4	2	I	1	0	1120	1	Ⴉ	cut_oei_stereo_44KHz.wav
4	85	2	1	0	C	1	1	1408	1	Ⴌ	cut_j_stereo_44KHz.wav
4	86	1	1	1	C	1	0	1238	0	Ⴐ	cut_j_stereo_44KHz.wav
4	87	4	3	2	I	1	0	1019	1	Ⴔ	cut_f_stereo_44KHz.wav
4	88	3	3	2	I	1	0	1840	1	Ⴉ	cut_f_stereo_44KHz.wav
4	89	2	1	0	C	1	1	1811	1	Ⴌ	cut_j_stereo_44KHz.wav
4	90	4	4	2	I	1	0	1040	1	Ⴔ	cut_oei_stereo_44KHz.wav
4	91	1	1	1	C	2	1	1475	1	Ⴐ	cut_j_stereo_44KHz.wav
4	92	3	3	2	I	1	0	1838	1	Ⴉ	cut_f_stereo_44KHz.wav
4	93	2	2	1	C	1	0	1053	0	Ⴌ	cut_s_stereo_44KHz.wav
4	94	3	4	2	I	1	0	1256	1	Ⴉ	cut_oei_stereo_44KHz.wav
4	95	1	2	0	C	1	1	1176	1	Ⴐ	cut_s_stereo_44KHz.wav
4	96	4	3	2	I	1	0	1264	1	Ⴔ	cut_f_stereo_44KHz.wav
4	97	1	1	1	C	0	0	0	0	Ⴐ	cut_j_stereo_44KHz.wav
4	98	3	4	2	I	1	0	714	1	Ⴉ	cut_oei_stereo_44KHz.wav
4	99	4	3	2	I	0	0	0	0	Ⴔ	cut_f_stereo_44KHz.wav
4	100	2	2	1	C	1	0	1313	0	Ⴌ	cut_s_stereo_44KHz.wav
4	101	3	3	2	I	1	0	731	0	Ⴉ	cut_f_stereo_44KHz.wav
4	102	2	1	0	C	1	1	790	1	Ⴌ	cut_j_stereo_44KHz.wav
4	103	1	2	0	C	2	0	1395	0	Ⴐ	cut_s_stereo_44KHz.wav
4	104	4	4	2	I	1	0	1210	1	Ⴔ	cut_oei_stereo_44KHz.wav
4	105	3	3	2	I	1	0	1463	1	Ⴉ	cut_f_stereo_44KHz.wav
4	106	2	1	0	C	2	0	1756	0	Ⴌ	cut_j_stereo_44KHz.wav
4	107	1	1	1	C	2	1	963	1	Ⴐ	cut_j_stereo_44KHz.wav
4	108	4	3	2	I	1	0	1129	1	Ⴔ	cut_f_stereo_44KHz.wav
4	109	1	2	0	C	2	0	1401	0	Ⴐ	cut_s_stereo_44KHz.wav
4	110	2	2	1	C	1	0	1624	0	Ⴌ	cut_s_stereo_44KHz.wav
4	111	4	4	2	I	1	0	1105	1	Ⴔ	cut_oei_stereo_44KHz.wav
4	112	3	4	2	I	0	0	0	0	Ⴉ	cut_oei_stereo_44KHz.wav
4	113	2	1	0	C	2	0	1093	0	Ⴌ	cut_j_stereo_44KHz.wav
4	114	3	3	2	I	1	0	994	1	Ⴉ	cut_f_stereo_44KHz.wav
4	115	4	4	2	I	1	0	966	1	Ⴔ	cut_oei_stereo_44KHz.wav
4	116	1	2	0	C	2	0	923	0	Ⴐ	cut_s_stereo_44KHz.wav
4	117	2	2	1	C	1	0	1045	0	Ⴌ	cut_s_stereo_44KHz.wav
4	118	3	4	2	I	1	0	927	1	Ⴉ	cut_oei_stereo_44KHz.wav
4	119	4	3	2	I	1	0	841	1	Ⴔ	cut_f_stereo_44KHz.wav
4	120	1	1	1	C	1	0	1042	0	Ⴐ	cut_j_stereo_44KHz.wav
4	121	4	4	2	I	1	0	1624	0	Ⴔ	cut_oei_stereo_44KHz.wav
4	122	2	2	1	C	2	1	1309	1	Ⴌ	cut_s_stereo_44KHz.wav
4	123	1	1	1	C	2	1	1390	1	Ⴐ	cut_j_stereo_44KHz.wav
4	124	3	4	2	I	1	0	916	1	Ⴉ	cut_oei_stereo_44KHz.wav
4	125	4	3	2	I	1	0	860	0	Ⴔ	cut_f_stereo_44KHz.wav
4	126	1	2	0	C	2	0	1086	0	Ⴐ	cut_s_stereo_44KHz.wav
4	127	3	3	2	I	1	0	738	1	Ⴉ	cut_f_stereo_44KHz.wav
4	128	2	1	0	C	2	0	1190	0	Ⴌ	cut_j_stereo_44KHz.wav
4	129	3	3	2	I	0	0	0	0	Ⴉ	cut_f_stereo_44KHz.wav
4	130	1	2	0	C	2	0	1472	0	Ⴐ	cut_s_stereo_44KHz.wav
4	131	4	4	2	I	1	0	1602	1	Ⴔ	cut_oei_stereo_44KHz.wav
4	132	2	2	1	C	2	1	1516	1	Ⴌ	cut_s_stereo_44KHz.wav
4	133	3	4	2	I	1	0	750	0	Ⴉ	cut_oei_stereo_44KHz.wav
4	134	4	3	2	I	1	0	815	1	Ⴔ	cut_f_stereo_44KHz.wav
4	135	1	1	1	C	2	1	1656	1	Ⴐ	cut_j_stereo_44KHz.wav
4	136	2	1	0	C	0	0	0	0	Ⴌ	cut_j_stereo_44KHz.wav
4	137	3	3	2	I	2	0	90	1	Ⴉ	cut_f_stereo_44KHz.wav
4	138	1	1	1	C	2	1	1239	1	Ⴐ	cut_j_stereo_44KHz.wav
4	139	2	2	1	C	2	1	1018	1	Ⴌ	cut_s_stereo_44KHz.wav
4	140	4	4	2	I	1	0	922	1	Ⴔ	cut_oei_stereo_44KHz.wav
4	141	2	1	0	C	1	1	757	1	Ⴌ	cut_j_stereo_44KHz.wav
4	142	4	3	2	I	1	0	377	0	Ⴔ	cut_f_stereo_44KHz.wav
4	143	1	2	0	C	2	0	915	0	Ⴐ	cut_s_stereo_44KHz.wav
4	144	3	4	2	I	2	0	383	1	Ⴉ	cut_oei_stereo_44KHz.wav
4	145	1	2	0	C	1	1	383	1	Ⴐ	cut_s_stereo_44KHz.wav
4	146	3	4	2	I	1	0	578	1	Ⴉ	cut_oei_stereo_44KHz.wav
4	147	2	2	1	C	1	0	256	0	Ⴌ	cut_s_stereo_44KHz.wav
4	148	4	4	2	I	1	0	856	1	Ⴔ	cut_oei_stereo_44KHz.wav
4	149	1	1	1	C	1	0	278	0	Ⴐ	cut_j_stereo_44KHz.wav
4	150	3	3	2	I	1	0	1646	1	Ⴉ	cut_f_stereo_44KHz.wav
4	151	4	3	2	I	1	0	1188	1	Ⴔ	cut_f_stereo_44KHz.wav
4	152	2	1	0	C	1	1	1392	1	Ⴌ	cut_j_stereo_44KHz.wav
4	153	3	4	2	I	1	0	786	0	Ⴉ	cut_oei_stereo_44KHz.wav
4	154	1	1	1	C	0	0	0	0	Ⴐ	cut_j_stereo_44KHz.wav
4	155	4	4	2	I	1	0	699	1	Ⴔ	cut_oei_stereo_44KHz.wav
4	156	2	1	0	C	1	1	1232	1	Ⴌ	cut_j_stereo_44KHz.wav
4	157	4	3	2	I	1	0	1160	0	Ⴔ	cut_f_stereo_44KHz.wav
4	158	2	2	1	C	2	1	936	1	Ⴌ	cut_s_stereo_44KHz.wav
4	159	1	2	0	C	1	1	859	1	Ⴐ	cut_s_stereo_44KHz.wav
4	160	3	3	2	I	1	0	1306	1	Ⴉ	cut_f_stereo_44KHz.wav
4	161	4	3	2	I	1	0	1822	1	Ⴔ	cut_f_stereo_44KHz.wav
4	162	2	2	1	C	1	0	994	0	Ⴌ	cut_s_stereo_44KHz.wav
4	163	1	2	0	C	0	0	0	0	Ⴐ	cut_s_stereo_44KHz.wav
4	164	3	3	2	I	0	0	0	0	Ⴉ	cut_f_stereo_44KHz.wav
4	165	1	1	1	C	2	1	1552	1	Ⴐ	cut_j_stereo_44KHz.wav
4	166	4	4	2	I	1	0	1633	1	Ⴔ	cut_oei_stereo_44KHz.wav
4	167	2	1	0	C	0	0	0	0	Ⴌ	cut_j_stereo_44KHz.wav
4	168	3	4	2	I	1	0	841	1	Ⴉ	cut_oei_stereo_44KHz.wav
4	169	1	1	1	C	2	1	1661	1	Ⴐ	cut_j_stereo_44KHz.wav
4	170	2	2	1	C	1	0	1375	0	Ⴌ	cut_s_stereo_44KHz.wav
4	171	3	4	2	I	1	0	1206	1	Ⴉ	cut_oei_stereo_44KHz.wav
4	172	4	4	2	I	1	0	1010	1	Ⴔ	cut_oei_stereo_44KHz.wav
4	173	2	1	0	C	1	1	1530	1	Ⴌ	cut_j_stereo_44KHz.wav
4	174	3	3	2	I	1	0	992	1	Ⴉ	cut_f_stereo_44KHz.wav
4	175	4	3	2	I	1	0	710	1	Ⴔ	cut_f_stereo_44KHz.wav
4	176	1	2	0	C	1	1	896	1	Ⴐ	cut_s_stereo_44KHz.wav
4	177	4	4	2	I	1	0	1416	0	Ⴔ	cut_oei_stereo_44KHz.wav
4	178	1	1	1	C	2	1	1059	1	Ⴐ	cut_j_stereo_44KHz.wav
4	179	2	1	0	C	1	1	1327	1	Ⴌ	cut_j_stereo_44KHz.wav
4	180	3	4	2	I	1	0	828	1	Ⴉ	cut_oei_stereo_44KHz.wav
4	181	1	2	0	C	2	0	1546	0	Ⴐ	cut_s_stereo_44KHz.wav
4	182	4	3	2	I	2	0	185	1	Ⴔ	cut_f_stereo_44KHz.wav
4	183	3	3	2	I	1	0	874	1	Ⴉ	cut_f_stereo_44KHz.wav
4	184	2	2	1	C	1	0	1097	0	Ⴌ	cut_s_stereo_44KHz.wav
4	185	4	3	2	I	1	0	1097	1	Ⴔ	cut_f_stereo_44KHz.wav
4	186	3	3	2	I	1	0	248	0	Ⴉ	cut_f_stereo_44KHz.wav
4	187	2	1	0	C	2	0	1375	0	Ⴌ	cut_j_stereo_44KHz.wav
4	188	1	1	1	C	0	0	0	0	Ⴐ	cut_j_stereo_44KHz.wav
4	189	4	4	2	I	1	0	1816	1	Ⴔ	cut_oei_stereo_44KHz.wav
4	190	3	4	2	I	1	0	1142	1	Ⴉ	cut_oei_stereo_44KHz.wav
4	191	2	2	1	C	1	0	1364	0	Ⴌ	cut_s_stereo_44KHz.wav
4	192	1	2	0	C	2	0	1006	0	Ⴐ	cut_s_stereo_44KHz.wav
4	193	3	3	2	I	2	0	1564	0	Ⴉ	cut_f_stereo_44KHz.wav
4	194	1	1	1	C	2	1	1625	1	Ⴐ	cut_j_stereo_44KHz.wav
4	195	4	3	2	I	1	0	1466	1	Ⴔ	cut_f_stereo_44KHz.wav
4	196	2	1	0	C	2	0	1100	0	Ⴌ	cut_j_stereo_44KHz.wav
4	197	3	4	2	I	0	0	0	0	Ⴉ	cut_oei_stereo_44KHz.wav
4	198	1	2	0	C	0	0	0	0	Ⴐ	cut_s_stereo_44KHz.wav
4	199	2	2	1	C	1	0	1207	0	Ⴌ	cut_s_stereo_44KHz.wav
4	200	4	4	2	I	0	0	0	0	Ⴔ	cut_oei_stereo_44KHz.wav
