block	trial	Vstim	Astim	match	C/I	resp	result	RT	fb	V-file	A-file
LR

0	1	2	4	0	C	0	0	0	0	Ⴞ	cut_oo_stereo_44KHz.wav
0	2	1	1	1	C	0	0	0	0	Ⴉ	cut_eeuw_stereo_44KHz.wav
0	3	2	3	1	C	0	0	0	0	Ⴞ	cut_ee_stereo_44KHz.wav
0	4	1	2	0	C	2	0	1105	0	Ⴉ	cut_g_stereo_44KHz.wav
0	5	2	4	0	C	2	0	1454	0	Ⴞ	cut_oo_stereo_44KHz.wav
0	6	1	2	0	C	1	1	1153	1	Ⴉ	cut_g_stereo_44KHz.wav
0	7	1	1	1	C	1	0	1340	0	Ⴉ	cut_eeuw_stereo_44KHz.wav
0	8	2	3	1	C	1	0	1023	0	Ⴞ	cut_ee_stereo_44KHz.wav
0	9	1	2	0	C	2	0	1363	0	Ⴉ	cut_g_stereo_44KHz.wav
0	10	2	4	0	C	2	0	1289	0	Ⴞ	cut_oo_stereo_44KHz.wav
0	11	1	1	1	C	2	1	1142	1	Ⴉ	cut_eeuw_stereo_44KHz.wav
0	12	2	3	1	C	0	0	0	0	Ⴞ	cut_ee_stereo_44KHz.wav
0	13	2	4	0	C	1	1	1501	1	Ⴞ	cut_oo_stereo_44KHz.wav
0	14	2	3	1	C	2	1	1481	1	Ⴞ	cut_ee_stereo_44KHz.wav
0	15	1	1	1	C	1	0	1637	0	Ⴉ	cut_eeuw_stereo_44KHz.wav
0	16	1	2	0	C	1	1	1141	1	Ⴉ	cut_g_stereo_44KHz.wav
0	17	2	4	0	C	1	1	1232	1	Ⴞ	cut_oo_stereo_44KHz.wav
0	18	2	3	1	C	1	0	1227	0	Ⴞ	cut_ee_stereo_44KHz.wav
0	19	1	2	0	C	1	1	1340	1	Ⴉ	cut_g_stereo_44KHz.wav
0	20	1	1	1	C	2	1	1019	1	Ⴉ	cut_eeuw_stereo_44KHz.wav
0	21	1	2	0	C	1	1	1141	1	Ⴉ	cut_g_stereo_44KHz.wav
0	22	2	3	1	C	2	1	1108	1	Ⴞ	cut_ee_stereo_44KHz.wav
0	23	1	1	1	C	1	0	1009	0	Ⴉ	cut_eeuw_stereo_44KHz.wav
0	24	2	4	0	C	2	0	1830	0	Ⴞ	cut_oo_stereo_44KHz.wav
0	25	2	4	0	C	2	0	695	0	Ⴞ	cut_oo_stereo_44KHz.wav
0	26	1	2	0	C	1	1	1160	1	Ⴉ	cut_g_stereo_44KHz.wav
0	27	1	1	1	C	1	0	1064	0	Ⴉ	cut_eeuw_stereo_44KHz.wav
0	28	2	3	1	C	2	1	888	1	Ⴞ	cut_ee_stereo_44KHz.wav
0	29	1	2	0	C	2	0	1059	0	Ⴉ	cut_g_stereo_44KHz.wav
0	30	2	4	0	C	2	0	1019	0	Ⴞ	cut_oo_stereo_44KHz.wav
avg_resp = 1192
1	1	4	4	2	I	2	0	1737	1	Ⴐ	cut_o_stereo_44KHz.wav
1	2	1	2	0	C	1	1	973	1	Ⴔ	cut_a_stereo_44KHz.wav
1	3	2	2	1	C	0	0	0	0	Ⴒ	cut_a_stereo_44KHz.wav
1	4	3	3	2	I	2	0	1076	1	Ⴉ	cut_k_stereo_44KHz.wav
1	5	1	1	1	C	1	0	918	0	Ⴔ	cut_u_stereo_44KHz.wav
1	6	3	4	2	I	2	0	1055	1	Ⴉ	cut_o_stereo_44KHz.wav
1	7	4	3	2	I	2	0	673	1	Ⴐ	cut_k_stereo_44KHz.wav
1	8	2	1	0	C	1	1	1062	1	Ⴒ	cut_u_stereo_44KHz.wav
1	9	4	3	2	I	2	0	797	1	Ⴐ	cut_k_stereo_44KHz.wav
1	10	2	2	1	C	1	0	734	0	Ⴒ	cut_a_stereo_44KHz.wav
1	11	3	3	2	I	2	0	705	1	Ⴉ	cut_k_stereo_44KHz.wav
1	12	1	2	0	C	2	0	1440	0	Ⴔ	cut_a_stereo_44KHz.wav
1	13	3	4	2	I	2	0	1368	1	Ⴉ	cut_o_stereo_44KHz.wav
1	14	4	4	2	I	0	0	0	0	Ⴐ	cut_o_stereo_44KHz.wav
1	15	1	1	1	C	0	0	0	0	Ⴔ	cut_u_stereo_44KHz.wav
1	16	2	1	0	C	0	0	0	0	Ⴒ	cut_u_stereo_44KHz.wav
1	17	4	4	2	I	2	0	1218	1	Ⴐ	cut_o_stereo_44KHz.wav
1	18	1	2	0	C	1	1	617	1	Ⴔ	cut_a_stereo_44KHz.wav
1	19	3	3	2	I	2	0	1097	1	Ⴉ	cut_k_stereo_44KHz.wav
1	20	2	1	0	C	1	1	849	1	Ⴒ	cut_u_stereo_44KHz.wav
1	21	3	4	2	I	2	0	1203	1	Ⴉ	cut_o_stereo_44KHz.wav
1	22	4	3	2	I	2	0	1171	0	Ⴐ	cut_k_stereo_44KHz.wav
1	23	1	1	1	C	1	0	745	0	Ⴔ	cut_u_stereo_44KHz.wav
1	24	2	2	1	C	1	0	634	0	Ⴒ	cut_a_stereo_44KHz.wav
1	25	1	1	1	C	1	0	889	0	Ⴔ	cut_u_stereo_44KHz.wav
1	26	2	1	0	C	2	0	1106	0	Ⴒ	cut_u_stereo_44KHz.wav
1	27	3	4	2	I	1	0	1661	1	Ⴉ	cut_o_stereo_44KHz.wav
1	28	4	4	2	I	1	0	1396	1	Ⴐ	cut_o_stereo_44KHz.wav
1	29	3	3	2	I	2	0	1432	0	Ⴉ	cut_k_stereo_44KHz.wav
1	30	4	3	2	I	1	0	1492	1	Ⴐ	cut_k_stereo_44KHz.wav
1	31	2	2	1	C	2	1	1777	1	Ⴒ	cut_a_stereo_44KHz.wav
1	32	1	2	0	C	1	1	1061	1	Ⴔ	cut_a_stereo_44KHz.wav
1	33	4	3	2	I	2	0	956	1	Ⴐ	cut_k_stereo_44KHz.wav
1	34	1	1	1	C	1	0	611	0	Ⴔ	cut_u_stereo_44KHz.wav
1	35	3	3	2	I	2	0	1601	1	Ⴉ	cut_k_stereo_44KHz.wav
1	36	2	2	1	C	1	0	804	0	Ⴒ	cut_a_stereo_44KHz.wav
1	37	1	2	0	C	1	1	977	1	Ⴔ	cut_a_stereo_44KHz.wav
1	38	3	4	2	I	0	0	0	0	Ⴉ	cut_o_stereo_44KHz.wav
1	39	2	1	0	C	1	1	485	1	Ⴒ	cut_u_stereo_44KHz.wav
1	40	4	4	2	I	2	0	648	1	Ⴐ	cut_o_stereo_44KHz.wav
1	41	2	1	0	C	2	0	1024	0	Ⴒ	cut_u_stereo_44KHz.wav
1	42	1	1	1	C	1	0	1028	0	Ⴔ	cut_u_stereo_44KHz.wav
1	43	3	4	2	I	2	0	1203	1	Ⴉ	cut_o_stereo_44KHz.wav
1	44	4	4	2	I	1	0	1238	1	Ⴐ	cut_o_stereo_44KHz.wav
1	45	1	2	0	C	1	1	1723	1	Ⴔ	cut_a_stereo_44KHz.wav
1	46	4	3	2	I	2	0	1013	0	Ⴐ	cut_k_stereo_44KHz.wav
1	47	2	2	1	C	1	0	862	0	Ⴒ	cut_a_stereo_44KHz.wav
1	48	3	3	2	I	1	0	459	1	Ⴉ	cut_k_stereo_44KHz.wav
1	49	2	1	0	C	2	0	671	0	Ⴒ	cut_u_stereo_44KHz.wav
1	50	1	2	0	C	2	0	628	0	Ⴔ	cut_a_stereo_44KHz.wav
1	51	3	3	2	I	2	0	907	0	Ⴉ	cut_k_stereo_44KHz.wav
1	52	4	4	2	I	2	0	1628	1	Ⴐ	cut_o_stereo_44KHz.wav
1	53	2	2	1	C	1	0	1083	0	Ⴒ	cut_a_stereo_44KHz.wav
1	54	3	4	2	I	2	0	769	1	Ⴉ	cut_o_stereo_44KHz.wav
1	55	1	1	1	C	2	1	891	1	Ⴔ	cut_u_stereo_44KHz.wav
1	56	4	3	2	I	1	0	1138	1	Ⴐ	cut_k_stereo_44KHz.wav
1	57	1	1	1	C	2	1	1200	1	Ⴔ	cut_u_stereo_44KHz.wav
1	58	4	3	2	I	1	0	810	0	Ⴐ	cut_k_stereo_44KHz.wav
1	59	2	1	0	C	1	1	893	1	Ⴒ	cut_u_stereo_44KHz.wav
1	60	3	3	2	I	2	0	1051	0	Ⴉ	cut_k_stereo_44KHz.wav
1	61	2	2	1	C	1	0	743	0	Ⴒ	cut_a_stereo_44KHz.wav
1	62	4	4	2	I	1	0	1745	1	Ⴐ	cut_o_stereo_44KHz.wav
1	63	3	4	2	I	2	0	973	1	Ⴉ	cut_o_stereo_44KHz.wav
1	64	1	2	0	C	1	1	1859	1	Ⴔ	cut_a_stereo_44KHz.wav
1	65	3	4	2	I	2	0	1150	1	Ⴉ	cut_o_stereo_44KHz.wav
1	66	4	4	2	I	2	0	1240	1	Ⴐ	cut_o_stereo_44KHz.wav
1	67	1	1	1	C	1	0	1070	0	Ⴔ	cut_u_stereo_44KHz.wav
1	68	2	1	0	C	1	1	1287	1	Ⴒ	cut_u_stereo_44KHz.wav
1	69	3	3	2	I	2	0	1213	1	Ⴉ	cut_k_stereo_44KHz.wav
1	70	1	2	0	C	1	1	1241	1	Ⴔ	cut_a_stereo_44KHz.wav
1	71	4	3	2	I	1	0	1336	1	Ⴐ	cut_k_stereo_44KHz.wav
1	72	2	2	1	C	2	1	1017	1	Ⴒ	cut_a_stereo_44KHz.wav
1	73	1	1	1	C	1	0	1082	0	Ⴔ	cut_u_stereo_44KHz.wav
1	74	4	3	2	I	1	0	1873	0	Ⴐ	cut_k_stereo_44KHz.wav
1	75	2	1	0	C	1	1	872	1	Ⴒ	cut_u_stereo_44KHz.wav
1	76	3	3	2	I	2	0	636	1	Ⴉ	cut_k_stereo_44KHz.wav
1	77	4	4	2	I	1	0	716	1	Ⴐ	cut_o_stereo_44KHz.wav
1	78	1	2	0	C	1	1	705	1	Ⴔ	cut_a_stereo_44KHz.wav
1	79	2	2	1	C	2	1	1080	1	Ⴒ	cut_a_stereo_44KHz.wav
1	80	3	4	2	I	1	0	1007	1	Ⴉ	cut_o_stereo_44KHz.wav
1	81	2	2	1	C	0	0	0	0	Ⴒ	cut_a_stereo_44KHz.wav
1	82	1	2	0	C	1	1	567	1	Ⴔ	cut_a_stereo_44KHz.wav
1	83	4	4	2	I	2	0	504	1	Ⴐ	cut_o_stereo_44KHz.wav
1	84	3	4	2	I	1	0	903	1	Ⴉ	cut_o_stereo_44KHz.wav
1	85	4	3	2	I	2	0	677	1	Ⴐ	cut_k_stereo_44KHz.wav
1	86	2	1	0	C	1	1	930	1	Ⴒ	cut_u_stereo_44KHz.wav
1	87	3	3	2	I	2	0	818	0	Ⴉ	cut_k_stereo_44KHz.wav
1	88	1	1	1	C	2	1	716	1	Ⴔ	cut_u_stereo_44KHz.wav
1	89	2	2	1	C	1	0	1346	0	Ⴒ	cut_a_stereo_44KHz.wav
1	90	1	1	1	C	1	0	708	0	Ⴔ	cut_u_stereo_44KHz.wav
1	91	4	4	2	I	1	0	1661	1	Ⴐ	cut_o_stereo_44KHz.wav
1	92	3	3	2	I	2	0	841	0	Ⴉ	cut_k_stereo_44KHz.wav
1	93	4	3	2	I	1	0	1284	1	Ⴐ	cut_k_stereo_44KHz.wav
1	94	2	1	0	C	2	0	838	0	Ⴒ	cut_u_stereo_44KHz.wav
1	95	3	4	2	I	2	0	1066	0	Ⴉ	cut_o_stereo_44KHz.wav
1	96	1	2	0	C	1	1	974	1	Ⴔ	cut_a_stereo_44KHz.wav
1	97	3	4	2	I	2	0	951	1	Ⴉ	cut_o_stereo_44KHz.wav
1	98	2	2	1	C	1	0	939	0	Ⴒ	cut_a_stereo_44KHz.wav
1	99	4	3	2	I	1	0	1456	1	Ⴐ	cut_k_stereo_44KHz.wav
1	100	1	1	1	C	2	1	745	1	Ⴔ	cut_u_stereo_44KHz.wav
1	101	3	3	2	I	2	0	1134	0	Ⴉ	cut_k_stereo_44KHz.wav
1	102	1	2	0	C	1	1	1140	1	Ⴔ	cut_a_stereo_44KHz.wav
1	103	4	4	2	I	1	0	1688	1	Ⴐ	cut_o_stereo_44KHz.wav
1	104	2	1	0	C	2	0	629	0	Ⴒ	cut_u_stereo_44KHz.wav
1	105	4	3	2	I	1	0	950	1	Ⴐ	cut_k_stereo_44KHz.wav
1	106	2	1	0	C	2	0	766	0	Ⴒ	cut_u_stereo_44KHz.wav
1	107	3	4	2	I	1	0	616	1	Ⴉ	cut_o_stereo_44KHz.wav
1	108	1	1	1	C	1	0	511	0	Ⴔ	cut_u_stereo_44KHz.wav
1	109	2	2	1	C	2	1	759	1	Ⴒ	cut_a_stereo_44KHz.wav
1	110	1	2	0	C	1	1	918	1	Ⴔ	cut_a_stereo_44KHz.wav
1	111	4	4	2	I	1	0	1082	1	Ⴐ	cut_o_stereo_44KHz.wav
1	112	3	3	2	I	2	0	768	1	Ⴉ	cut_k_stereo_44KHz.wav
1	113	4	4	2	I	1	0	1172	0	Ⴐ	cut_o_stereo_44KHz.wav
1	114	1	2	0	C	2	0	780	0	Ⴔ	cut_a_stereo_44KHz.wav
1	115	3	3	2	I	1	0	807	1	Ⴉ	cut_k_stereo_44KHz.wav
1	116	2	1	0	C	1	1	1072	1	Ⴒ	cut_u_stereo_44KHz.wav
1	117	4	3	2	I	1	0	1012	1	Ⴐ	cut_k_stereo_44KHz.wav
1	118	1	1	1	C	1	0	1004	0	Ⴔ	cut_u_stereo_44KHz.wav
1	119	2	2	1	C	2	1	1750	1	Ⴒ	cut_a_stereo_44KHz.wav
1	120	3	4	2	I	1	0	1048	1	Ⴉ	cut_o_stereo_44KHz.wav
1	121	2	1	0	C	2	0	942	0	Ⴒ	cut_u_stereo_44KHz.wav
1	122	1	2	0	C	1	1	910	1	Ⴔ	cut_a_stereo_44KHz.wav
1	123	4	3	2	I	1	0	827	1	Ⴐ	cut_k_stereo_44KHz.wav
1	124	3	4	2	I	1	0	935	1	Ⴉ	cut_o_stereo_44KHz.wav
1	125	2	2	1	C	2	1	857	1	Ⴒ	cut_a_stereo_44KHz.wav
1	126	1	1	1	C	1	0	593	0	Ⴔ	cut_u_stereo_44KHz.wav
1	127	3	3	2	I	2	0	1407	1	Ⴉ	cut_k_stereo_44KHz.wav
1	128	4	4	2	I	1	0	713	1	Ⴐ	cut_o_stereo_44KHz.wav
1	129	1	1	1	C	2	1	1043	1	Ⴔ	cut_u_stereo_44KHz.wav
1	130	2	2	1	C	1	0	752	0	Ⴒ	cut_a_stereo_44KHz.wav
1	131	3	3	2	I	2	0	599	1	Ⴉ	cut_k_stereo_44KHz.wav
1	132	4	3	2	I	2	0	367	1	Ⴐ	cut_k_stereo_44KHz.wav
1	133	1	2	0	C	1	1	878	1	Ⴔ	cut_a_stereo_44KHz.wav
1	134	3	4	2	I	2	0	966	0	Ⴉ	cut_o_stereo_44KHz.wav
1	135	4	4	2	I	1	0	1259	1	Ⴐ	cut_o_stereo_44KHz.wav
1	136	2	1	0	C	2	0	712	0	Ⴒ	cut_u_stereo_44KHz.wav
1	137	1	2	0	C	1	1	1131	1	Ⴔ	cut_a_stereo_44KHz.wav
1	138	2	2	1	C	1	0	924	0	Ⴒ	cut_a_stereo_44KHz.wav
1	139	3	3	2	I	2	0	815	0	Ⴉ	cut_k_stereo_44KHz.wav
1	140	4	3	2	I	1	0	1158	0	Ⴐ	cut_k_stereo_44KHz.wav
1	141	2	1	0	C	2	0	1235	0	Ⴒ	cut_u_stereo_44KHz.wav
1	142	4	4	2	I	1	0	1289	0	Ⴐ	cut_o_stereo_44KHz.wav
1	143	3	4	2	I	2	0	765	1	Ⴉ	cut_o_stereo_44KHz.wav
1	144	1	1	1	C	1	0	897	0	Ⴔ	cut_u_stereo_44KHz.wav
1	145	3	4	2	I	2	0	871	1	Ⴉ	cut_o_stereo_44KHz.wav
1	146	1	2	0	C	2	0	627	0	Ⴔ	cut_a_stereo_44KHz.wav
1	147	4	3	2	I	1	0	841	1	Ⴐ	cut_k_stereo_44KHz.wav
1	148	2	2	1	C	1	0	817	0	Ⴒ	cut_a_stereo_44KHz.wav
1	149	4	4	2	I	2	0	1258	1	Ⴐ	cut_o_stereo_44KHz.wav
1	150	2	1	0	C	1	1	1093	1	Ⴒ	cut_u_stereo_44KHz.wav
1	151	1	1	1	C	2	1	1084	1	Ⴔ	cut_u_stereo_44KHz.wav
1	152	3	3	2	I	1	0	1044	1	Ⴉ	cut_k_stereo_44KHz.wav
1	153	4	3	2	I	1	0	953	0	Ⴐ	cut_k_stereo_44KHz.wav
1	154	3	4	2	I	2	0	688	1	Ⴉ	cut_o_stereo_44KHz.wav
1	155	2	1	0	C	1	1	719	1	Ⴒ	cut_u_stereo_44KHz.wav
1	156	1	2	0	C	1	1	837	1	Ⴔ	cut_a_stereo_44KHz.wav
1	157	3	3	2	I	2	0	582	0	Ⴉ	cut_k_stereo_44KHz.wav
1	158	4	4	2	I	2	0	1427	1	Ⴐ	cut_o_stereo_44KHz.wav
1	159	2	2	1	C	1	0	1020	0	Ⴒ	cut_a_stereo_44KHz.wav
1	160	1	1	1	C	2	1	1230	1	Ⴔ	cut_u_stereo_44KHz.wav
1	161	4	4	2	I	1	0	920	1	Ⴐ	cut_o_stereo_44KHz.wav
1	162	3	4	2	I	2	0	528	1	Ⴉ	cut_o_stereo_44KHz.wav
1	163	1	1	1	C	1	0	781	0	Ⴔ	cut_u_stereo_44KHz.wav
1	164	2	2	1	C	2	1	1006	1	Ⴒ	cut_a_stereo_44KHz.wav
1	165	3	3	2	I	2	0	673	1	Ⴉ	cut_k_stereo_44KHz.wav
1	166	2	1	0	C	1	1	807	1	Ⴒ	cut_u_stereo_44KHz.wav
1	167	1	2	0	C	2	0	500	0	Ⴔ	cut_a_stereo_44KHz.wav
1	168	4	3	2	I	1	0	608	1	Ⴐ	cut_k_stereo_44KHz.wav
1	169	1	1	1	C	2	1	511	1	Ⴔ	cut_u_stereo_44KHz.wav
1	170	2	2	1	C	1	0	1055	0	Ⴒ	cut_a_stereo_44KHz.wav
1	171	4	3	2	I	1	0	1319	1	Ⴐ	cut_k_stereo_44KHz.wav
1	172	3	4	2	I	2	0	692	1	Ⴉ	cut_o_stereo_44KHz.wav
1	173	4	4	2	I	1	0	640	1	Ⴐ	cut_o_stereo_44KHz.wav
1	174	3	3	2	I	1	0	878	1	Ⴉ	cut_k_stereo_44KHz.wav
1	175	1	2	0	C	2	0	537	0	Ⴔ	cut_a_stereo_44KHz.wav
1	176	2	1	0	C	1	1	927	1	Ⴒ	cut_u_stereo_44KHz.wav
1	177	4	4	2	I	2	0	584	0	Ⴐ	cut_o_stereo_44KHz.wav
1	178	3	3	2	I	1	0	1163	1	Ⴉ	cut_k_stereo_44KHz.wav
1	179	2	2	1	C	2	1	928	1	Ⴒ	cut_a_stereo_44KHz.wav
1	180	1	2	0	C	1	1	645	1	Ⴔ	cut_a_stereo_44KHz.wav
1	181	2	1	0	C	1	1	671	1	Ⴒ	cut_u_stereo_44KHz.wav
1	182	4	3	2	I	2	0	823	1	Ⴐ	cut_k_stereo_44KHz.wav
1	183	3	4	2	I	1	0	877	1	Ⴉ	cut_o_stereo_44KHz.wav
1	184	1	1	1	C	2	1	824	1	Ⴔ	cut_u_stereo_44KHz.wav
1	185	4	4	2	I	1	0	631	0	Ⴐ	cut_o_stereo_44KHz.wav
1	186	2	2	1	C	2	1	399	1	Ⴒ	cut_a_stereo_44KHz.wav
1	187	1	1	1	C	1	0	1089	0	Ⴔ	cut_u_stereo_44KHz.wav
1	188	3	3	2	I	2	0	417	1	Ⴉ	cut_k_stereo_44KHz.wav
1	189	1	2	0	C	1	1	366	1	Ⴔ	cut_a_stereo_44KHz.wav
1	190	4	3	2	I	2	0	265	1	Ⴐ	cut_k_stereo_44KHz.wav
1	191	2	1	0	C	1	1	539	1	Ⴒ	cut_u_stereo_44KHz.wav
1	192	3	4	2	I	1	0	369	1	Ⴉ	cut_o_stereo_44KHz.wav
1	193	2	2	1	C	2	1	498	1	Ⴒ	cut_a_stereo_44KHz.wav
1	194	4	3	2	I	1	0	814	1	Ⴐ	cut_k_stereo_44KHz.wav
1	195	3	3	2	I	2	0	291	1	Ⴉ	cut_k_stereo_44KHz.wav
1	196	1	1	1	C	1	0	701	0	Ⴔ	cut_u_stereo_44KHz.wav
1	197	2	1	0	C	1	1	655	1	Ⴒ	cut_u_stereo_44KHz.wav
1	198	3	4	2	I	2	0	391	1	Ⴉ	cut_o_stereo_44KHz.wav
1	199	4	4	2	I	1	0	236	1	Ⴐ	cut_o_stereo_44KHz.wav
1	200	1	2	0	C	2	0	512	0	Ⴔ	cut_a_stereo_44KHz.wav
2	1	3	3	2	I	2	0	1557	1	Ⴕ	cut_j_stereo_44KHz.wav
2	2	4	4	2	I	1	0	762	1	Ⴌ	cut_r_stereo_44KHz.wav
2	3	2	2	1	C	2	1	762	1	Ⴖ	cut_oei_stereo_44KHz.wav
2	4	1	2	0	C	1	1	1022	1	Ⴏ	cut_oei_stereo_44KHz.wav
2	5	3	4	2	I	2	0	837	1	Ⴕ	cut_r_stereo_44KHz.wav
2	6	4	3	2	I	1	0	1089	0	Ⴌ	cut_j_stereo_44KHz.wav
2	7	1	1	1	C	2	1	997	1	Ⴏ	cut_n_stereo_44KHz.wav
2	8	2	1	0	C	1	1	975	1	Ⴖ	cut_n_stereo_44KHz.wav
2	9	3	3	2	I	2	0	836	1	Ⴕ	cut_j_stereo_44KHz.wav
2	10	2	2	1	C	1	0	878	0	Ⴖ	cut_oei_stereo_44KHz.wav
2	11	4	4	2	I	1	0	1025	1	Ⴌ	cut_r_stereo_44KHz.wav
2	12	1	2	0	C	2	0	612	0	Ⴏ	cut_oei_stereo_44KHz.wav
2	13	4	3	2	I	1	0	745	1	Ⴌ	cut_j_stereo_44KHz.wav
2	14	3	4	2	I	2	0	647	1	Ⴕ	cut_r_stereo_44KHz.wav
2	15	2	1	0	C	1	1	865	1	Ⴖ	cut_n_stereo_44KHz.wav
2	16	1	1	1	C	2	1	484	1	Ⴏ	cut_n_stereo_44KHz.wav
2	17	2	2	1	C	1	0	432	0	Ⴖ	cut_oei_stereo_44KHz.wav
2	18	1	1	1	C	2	1	670	1	Ⴏ	cut_n_stereo_44KHz.wav
2	19	3	4	2	I	2	0	747	1	Ⴕ	cut_r_stereo_44KHz.wav
2	20	4	3	2	I	1	0	652	1	Ⴌ	cut_j_stereo_44KHz.wav
2	21	1	2	0	C	2	0	401	0	Ⴏ	cut_oei_stereo_44KHz.wav
2	22	4	4	2	I	1	0	1211	0	Ⴌ	cut_r_stereo_44KHz.wav
2	23	2	1	0	C	1	1	715	1	Ⴖ	cut_n_stereo_44KHz.wav
2	24	3	3	2	I	2	0	362	1	Ⴕ	cut_j_stereo_44KHz.wav
2	25	4	4	2	I	1	0	449	1	Ⴌ	cut_r_stereo_44KHz.wav
2	26	1	2	0	C	1	1	703	1	Ⴏ	cut_oei_stereo_44KHz.wav
2	27	3	4	2	I	2	0	448	1	Ⴕ	cut_r_stereo_44KHz.wav
2	28	2	2	1	C	1	0	655	0	Ⴖ	cut_oei_stereo_44KHz.wav
2	29	1	1	1	C	2	1	744	1	Ⴏ	cut_n_stereo_44KHz.wav
2	30	3	3	2	I	2	0	901	1	Ⴕ	cut_j_stereo_44KHz.wav
2	31	2	1	0	C	1	1	733	1	Ⴖ	cut_n_stereo_44KHz.wav
2	32	4	3	2	I	2	0	796	1	Ⴌ	cut_j_stereo_44KHz.wav
2	33	3	4	2	I	2	0	791	1	Ⴕ	cut_r_stereo_44KHz.wav
2	34	2	1	0	C	1	1	767	1	Ⴖ	cut_n_stereo_44KHz.wav
2	35	1	1	1	C	2	1	770	1	Ⴏ	cut_n_stereo_44KHz.wav
2	36	4	4	2	I	2	0	861	1	Ⴌ	cut_r_stereo_44KHz.wav
2	37	2	2	1	C	1	0	730	0	Ⴖ	cut_oei_stereo_44KHz.wav
2	38	1	2	0	C	2	0	818	0	Ⴏ	cut_oei_stereo_44KHz.wav
2	39	4	3	2	I	2	0	988	1	Ⴌ	cut_j_stereo_44KHz.wav
2	40	3	3	2	I	2	0	899	1	Ⴕ	cut_j_stereo_44KHz.wav
2	41	1	1	1	C	1	0	850	0	Ⴏ	cut_n_stereo_44KHz.wav
2	42	3	4	2	I	2	0	933	0	Ⴕ	cut_r_stereo_44KHz.wav
2	43	2	1	0	C	1	1	693	1	Ⴖ	cut_n_stereo_44KHz.wav
2	44	4	4	2	I	2	0	683	1	Ⴌ	cut_r_stereo_44KHz.wav
2	45	2	2	1	C	1	0	1095	0	Ⴖ	cut_oei_stereo_44KHz.wav
2	46	4	3	2	I	2	0	971	1	Ⴌ	cut_j_stereo_44KHz.wav
2	47	3	3	2	I	2	0	877	0	Ⴕ	cut_j_stereo_44KHz.wav
2	48	1	2	0	C	2	0	1249	0	Ⴏ	cut_oei_stereo_44KHz.wav
2	49	3	4	2	I	2	0	802	1	Ⴕ	cut_r_stereo_44KHz.wav
2	50	2	2	1	C	2	1	1351	1	Ⴖ	cut_oei_stereo_44KHz.wav
2	51	1	2	0	C	1	1	1223	1	Ⴏ	cut_oei_stereo_44KHz.wav
2	52	4	4	2	I	2	0	845	1	Ⴌ	cut_r_stereo_44KHz.wav
2	53	1	1	1	C	1	0	732	0	Ⴏ	cut_n_stereo_44KHz.wav
2	54	4	3	2	I	1	0	763	1	Ⴌ	cut_j_stereo_44KHz.wav
2	55	2	1	0	C	2	0	997	0	Ⴖ	cut_n_stereo_44KHz.wav
2	56	3	3	2	I	2	0	833	1	Ⴕ	cut_j_stereo_44KHz.wav
2	57	4	4	2	I	1	0	813	1	Ⴌ	cut_r_stereo_44KHz.wav
2	58	3	3	2	I	2	0	761	1	Ⴕ	cut_j_stereo_44KHz.wav
2	59	2	1	0	C	1	1	764	1	Ⴖ	cut_n_stereo_44KHz.wav
2	60	1	2	0	C	2	0	690	0	Ⴏ	cut_oei_stereo_44KHz.wav
2	61	2	2	1	C	2	1	1882	1	Ⴖ	cut_oei_stereo_44KHz.wav
2	62	1	1	1	C	1	0	655	0	Ⴏ	cut_n_stereo_44KHz.wav
2	63	3	4	2	I	2	0	847	1	Ⴕ	cut_r_stereo_44KHz.wav
2	64	4	3	2	I	1	0	1294	0	Ⴌ	cut_j_stereo_44KHz.wav
2	65	2	2	1	C	2	1	879	1	Ⴖ	cut_oei_stereo_44KHz.wav
2	66	3	4	2	I	2	0	747	1	Ⴕ	cut_r_stereo_44KHz.wav
2	67	4	3	2	I	1	0	706	1	Ⴌ	cut_j_stereo_44KHz.wav
2	68	1	2	0	C	2	0	763	0	Ⴏ	cut_oei_stereo_44KHz.wav
2	69	3	3	2	I	2	0	826	1	Ⴕ	cut_j_stereo_44KHz.wav
2	70	2	1	0	C	1	1	612	1	Ⴖ	cut_n_stereo_44KHz.wav
2	71	4	4	2	I	2	0	620	0	Ⴌ	cut_r_stereo_44KHz.wav
2	72	1	1	1	C	1	0	872	0	Ⴏ	cut_n_stereo_44KHz.wav
2	73	3	4	2	I	2	0	718	1	Ⴕ	cut_r_stereo_44KHz.wav
2	74	1	2	0	C	1	1	705	1	Ⴏ	cut_oei_stereo_44KHz.wav
2	75	4	3	2	I	2	0	600	1	Ⴌ	cut_j_stereo_44KHz.wav
2	76	2	2	1	C	1	0	729	0	Ⴖ	cut_oei_stereo_44KHz.wav
2	77	4	4	2	I	2	0	999	0	Ⴌ	cut_r_stereo_44KHz.wav
2	78	2	1	0	C	2	0	1621	0	Ⴖ	cut_n_stereo_44KHz.wav
2	79	3	3	2	I	2	0	838	1	Ⴕ	cut_j_stereo_44KHz.wav
2	80	1	1	1	C	0	0	0	0	Ⴏ	cut_n_stereo_44KHz.wav
2	81	3	3	2	I	0	0	0	0	Ⴕ	cut_j_stereo_44KHz.wav
2	82	1	2	0	C	1	1	696	1	Ⴏ	cut_oei_stereo_44KHz.wav
2	83	2	1	0	C	0	0	0	0	Ⴖ	cut_n_stereo_44KHz.wav
2	84	4	3	2	I	1	0	745	1	Ⴌ	cut_j_stereo_44KHz.wav
2	85	2	2	1	C	2	1	724	1	Ⴖ	cut_oei_stereo_44KHz.wav
2	86	4	4	2	I	1	0	846	1	Ⴌ	cut_r_stereo_44KHz.wav
2	87	3	4	2	I	0	0	0	0	Ⴕ	cut_r_stereo_44KHz.wav
2	88	1	1	1	C	1	0	796	0	Ⴏ	cut_n_stereo_44KHz.wav
2	89	2	2	1	C	2	1	1629	1	Ⴖ	cut_oei_stereo_44KHz.wav
2	90	1	1	1	C	0	0	0	0	Ⴏ	cut_n_stereo_44KHz.wav
2	91	4	3	2	I	1	0	557	1	Ⴌ	cut_j_stereo_44KHz.wav
2	92	3	3	2	I	2	0	480	1	Ⴕ	cut_j_stereo_44KHz.wav
2	93	2	1	0	C	2	0	605	0	Ⴖ	cut_n_stereo_44KHz.wav
2	94	3	4	2	I	1	0	479	1	Ⴕ	cut_r_stereo_44KHz.wav
2	95	4	4	2	I	2	0	709	0	Ⴌ	cut_r_stereo_44KHz.wav
2	96	1	2	0	C	2	0	724	0	Ⴏ	cut_oei_stereo_44KHz.wav
2	97	3	4	2	I	2	0	758	1	Ⴕ	cut_r_stereo_44KHz.wav
2	98	4	4	2	I	1	0	832	1	Ⴌ	cut_r_stereo_44KHz.wav
2	99	2	2	1	C	2	1	107	1	Ⴖ	cut_oei_stereo_44KHz.wav
2	100	1	1	1	C	1	0	497	0	Ⴏ	cut_n_stereo_44KHz.wav
2	101	3	3	2	I	2	0	975	1	Ⴕ	cut_j_stereo_44KHz.wav
2	102	1	2	0	C	1	1	725	1	Ⴏ	cut_oei_stereo_44KHz.wav
2	103	4	3	2	I	2	0	1275	1	Ⴌ	cut_j_stereo_44KHz.wav
2	104	2	1	0	C	1	1	981	1	Ⴖ	cut_n_stereo_44KHz.wav
2	105	4	4	2	I	2	0	779	1	Ⴌ	cut_r_stereo_44KHz.wav
2	106	3	3	2	I	2	0	836	0	Ⴕ	cut_j_stereo_44KHz.wav
2	107	2	1	0	C	2	0	769	0	Ⴖ	cut_n_stereo_44KHz.wav
2	108	1	1	1	C	2	1	402	1	Ⴏ	cut_n_stereo_44KHz.wav
2	109	4	3	2	I	1	0	509	1	Ⴌ	cut_j_stereo_44KHz.wav
2	110	3	4	2	I	2	0	875	1	Ⴕ	cut_r_stereo_44KHz.wav
2	111	1	2	0	C	1	1	1112	1	Ⴏ	cut_oei_stereo_44KHz.wav
2	112	2	2	1	C	2	1	756	1	Ⴖ	cut_oei_stereo_44KHz.wav
2	113	3	3	2	I	0	0	0	0	Ⴕ	cut_j_stereo_44KHz.wav
2	114	1	2	0	C	1	1	828	1	Ⴏ	cut_oei_stereo_44KHz.wav
2	115	4	4	2	I	2	0	741	1	Ⴌ	cut_r_stereo_44KHz.wav
2	116	2	1	0	C	1	1	586	1	Ⴖ	cut_n_stereo_44KHz.wav
2	117	4	3	2	I	2	0	712	1	Ⴌ	cut_j_stereo_44KHz.wav
2	118	1	1	1	C	1	0	833	0	Ⴏ	cut_n_stereo_44KHz.wav
2	119	3	4	2	I	2	0	739	1	Ⴕ	cut_r_stereo_44KHz.wav
2	120	2	2	1	C	2	1	827	1	Ⴖ	cut_oei_stereo_44KHz.wav
2	121	1	1	1	C	1	0	758	0	Ⴏ	cut_n_stereo_44KHz.wav
2	122	3	4	2	I	2	0	781	1	Ⴕ	cut_r_stereo_44KHz.wav
2	123	2	2	1	C	1	0	1159	0	Ⴖ	cut_oei_stereo_44KHz.wav
2	124	4	4	2	I	2	0	790	1	Ⴌ	cut_r_stereo_44KHz.wav
2	125	2	1	0	C	1	1	1258	1	Ⴖ	cut_n_stereo_44KHz.wav
2	126	4	3	2	I	2	0	753	1	Ⴌ	cut_j_stereo_44KHz.wav
2	127	1	2	0	C	1	1	726	1	Ⴏ	cut_oei_stereo_44KHz.wav
2	128	3	3	2	I	2	0	906	1	Ⴕ	cut_j_stereo_44KHz.wav
2	129	1	1	1	C	1	0	815	0	Ⴏ	cut_n_stereo_44KHz.wav
2	130	3	3	2	I	2	0	653	0	Ⴕ	cut_j_stereo_44KHz.wav
2	131	4	3	2	I	2	0	864	0	Ⴌ	cut_j_stereo_44KHz.wav
2	132	2	1	0	C	2	0	771	0	Ⴖ	cut_n_stereo_44KHz.wav
2	133	1	2	0	C	2	0	1917	0	Ⴏ	cut_oei_stereo_44KHz.wav
2	134	2	2	1	C	1	0	600	0	Ⴖ	cut_oei_stereo_44KHz.wav
2	135	4	4	2	I	2	0	1072	1	Ⴌ	cut_r_stereo_44KHz.wav
2	136	3	4	2	I	0	0	0	0	Ⴕ	cut_r_stereo_44KHz.wav
2	137	2	1	0	C	1	1	985	1	Ⴖ	cut_n_stereo_44KHz.wav
2	138	4	3	2	I	1	0	1001	1	Ⴌ	cut_j_stereo_44KHz.wav
2	139	3	4	2	I	0	0	0	0	Ⴕ	cut_r_stereo_44KHz.wav
2	140	1	2	0	C	1	1	834	1	Ⴏ	cut_oei_stereo_44KHz.wav
2	141	4	4	2	I	2	0	522	1	Ⴌ	cut_r_stereo_44KHz.wav
2	142	3	3	2	I	2	0	1001	1	Ⴕ	cut_j_stereo_44KHz.wav
2	143	1	1	1	C	1	0	1119	0	Ⴏ	cut_n_stereo_44KHz.wav
2	144	2	2	1	C	2	1	1424	1	Ⴖ	cut_oei_stereo_44KHz.wav
2	145	1	1	1	C	1	0	783	0	Ⴏ	cut_n_stereo_44KHz.wav
2	146	2	1	0	C	1	1	621	1	Ⴖ	cut_n_stereo_44KHz.wav
2	147	3	4	2	I	2	0	718	0	Ⴕ	cut_r_stereo_44KHz.wav
2	148	4	4	2	I	2	0	730	1	Ⴌ	cut_r_stereo_44KHz.wav
2	149	3	3	2	I	2	0	743	1	Ⴕ	cut_j_stereo_44KHz.wav
2	150	4	3	2	I	2	0	707	1	Ⴌ	cut_j_stereo_44KHz.wav
2	151	1	2	0	C	1	1	886	1	Ⴏ	cut_oei_stereo_44KHz.wav
2	152	2	2	1	C	2	1	643	1	Ⴖ	cut_oei_stereo_44KHz.wav
2	153	1	1	1	C	1	0	622	0	Ⴏ	cut_n_stereo_44KHz.wav
2	154	4	4	2	I	2	0	819	0	Ⴌ	cut_r_stereo_44KHz.wav
2	155	3	3	2	I	1	0	922	1	Ⴕ	cut_j_stereo_44KHz.wav
2	156	2	2	1	C	2	1	1562	1	Ⴖ	cut_oei_stereo_44KHz.wav
2	157	4	3	2	I	2	0	724	1	Ⴌ	cut_j_stereo_44KHz.wav
2	158	3	4	2	I	2	0	696	1	Ⴕ	cut_r_stereo_44KHz.wav
2	159	1	2	0	C	1	1	607	1	Ⴏ	cut_oei_stereo_44KHz.wav
2	160	2	1	0	C	2	0	710	0	Ⴖ	cut_n_stereo_44KHz.wav
2	161	1	1	1	C	2	1	602	1	Ⴏ	cut_n_stereo_44KHz.wav
2	162	4	3	2	I	2	0	1135	0	Ⴌ	cut_j_stereo_44KHz.wav
2	163	3	3	2	I	1	0	1290	0	Ⴕ	cut_j_stereo_44KHz.wav
2	164	2	1	0	C	1	1	881	1	Ⴖ	cut_n_stereo_44KHz.wav
2	165	3	4	2	I	2	0	832	1	Ⴕ	cut_r_stereo_44KHz.wav
2	166	1	2	0	C	1	1	571	1	Ⴏ	cut_oei_stereo_44KHz.wav
2	167	4	4	2	I	1	0	818	1	Ⴌ	cut_r_stereo_44KHz.wav
2	168	2	2	1	C	2	1	708	1	Ⴖ	cut_oei_stereo_44KHz.wav
2	169	1	1	1	C	1	0	891	0	Ⴏ	cut_n_stereo_44KHz.wav
2	170	3	4	2	I	2	0	595	1	Ⴕ	cut_r_stereo_44KHz.wav
2	171	2	1	0	C	1	1	834	1	Ⴖ	cut_n_stereo_44KHz.wav
2	172	4	3	2	I	2	0	607	1	Ⴌ	cut_j_stereo_44KHz.wav
2	173	2	2	1	C	1	0	798	0	Ⴖ	cut_oei_stereo_44KHz.wav
2	174	3	3	2	I	2	0	865	0	Ⴕ	cut_j_stereo_44KHz.wav
2	175	1	2	0	C	1	1	891	1	Ⴏ	cut_oei_stereo_44KHz.wav
2	176	4	4	2	I	2	0	634	1	Ⴌ	cut_r_stereo_44KHz.wav
2	177	3	4	2	I	1	0	800	1	Ⴕ	cut_r_stereo_44KHz.wav
2	178	1	1	1	C	2	1	70	1	Ⴏ	cut_n_stereo_44KHz.wav
2	179	4	4	2	I	1	0	424	0	Ⴌ	cut_r_stereo_44KHz.wav
2	180	2	1	0	C	2	0	1081	0	Ⴖ	cut_n_stereo_44KHz.wav
2	181	4	3	2	I	2	0	681	1	Ⴌ	cut_j_stereo_44KHz.wav
2	182	3	3	2	I	2	0	892	1	Ⴕ	cut_j_stereo_44KHz.wav
2	183	1	2	0	C	1	1	686	1	Ⴏ	cut_oei_stereo_44KHz.wav
2	184	2	2	1	C	2	1	593	1	Ⴖ	cut_oei_stereo_44KHz.wav
2	185	3	4	2	I	2	0	1071	1	Ⴕ	cut_r_stereo_44KHz.wav
2	186	2	1	0	C	1	1	829	1	Ⴖ	cut_n_stereo_44KHz.wav
2	187	1	2	0	C	2	0	734	0	Ⴏ	cut_oei_stereo_44KHz.wav
2	188	4	3	2	I	1	0	604	1	Ⴌ	cut_j_stereo_44KHz.wav
2	189	2	2	1	C	0	0	0	0	Ⴖ	cut_oei_stereo_44KHz.wav
2	190	3	3	2	I	2	0	822	1	Ⴕ	cut_j_stereo_44KHz.wav
2	191	4	4	2	I	1	0	892	1	Ⴌ	cut_r_stereo_44KHz.wav
2	192	1	1	1	C	2	1	620	1	Ⴏ	cut_n_stereo_44KHz.wav
2	193	3	3	2	I	2	0	893	0	Ⴕ	cut_j_stereo_44KHz.wav
2	194	2	1	0	C	1	1	952	1	Ⴖ	cut_n_stereo_44KHz.wav
2	195	4	4	2	I	2	0	608	1	Ⴌ	cut_r_stereo_44KHz.wav
2	196	1	2	0	C	1	1	653	1	Ⴏ	cut_oei_stereo_44KHz.wav
2	197	2	2	1	C	2	1	682	1	Ⴖ	cut_oei_stereo_44KHz.wav
2	198	4	3	2	I	1	0	749	1	Ⴌ	cut_j_stereo_44KHz.wav
2	199	3	4	2	I	2	0	711	1	Ⴕ	cut_r_stereo_44KHz.wav
2	200	1	1	1	C	1	0	779	0	Ⴏ	cut_n_stereo_44KHz.wav
3	1	3	4	2	I	2	0	1358	0	Ⴊ	cut_w_stereo_44KHz.wav
3	2	1	1	1	C	2	1	805	1	Ⴁ	cut_h_stereo_44KHz.wav
3	3	2	2	1	C	1	0	919	0	Ⴜ	cut_g_stereo_44KHz.wav
3	4	4	4	2	I	1	0	825	1	Ⴡ	cut_w_stereo_44KHz.wav
3	5	1	2	0	C	2	0	678	0	Ⴁ	cut_g_stereo_44KHz.wav
3	6	4	3	2	I	2	0	731	1	Ⴡ	cut_l_stereo_44KHz.wav
3	7	2	1	0	C	1	1	582	1	Ⴜ	cut_h_stereo_44KHz.wav
3	8	3	3	2	I	2	0	780	0	Ⴊ	cut_l_stereo_44KHz.wav
3	9	1	1	1	C	2	1	633	1	Ⴁ	cut_h_stereo_44KHz.wav
3	10	4	4	2	I	1	0	932	1	Ⴡ	cut_w_stereo_44KHz.wav
3	11	2	1	0	C	2	0	874	0	Ⴜ	cut_h_stereo_44KHz.wav
3	12	3	3	2	I	1	0	960	1	Ⴊ	cut_l_stereo_44KHz.wav
3	13	1	2	0	C	0	0	0	0	Ⴁ	cut_g_stereo_44KHz.wav
3	14	3	4	2	I	2	0	713	0	Ⴊ	cut_w_stereo_44KHz.wav
3	15	2	2	1	C	2	1	1720	1	Ⴜ	cut_g_stereo_44KHz.wav
3	16	4	3	2	I	1	0	396	1	Ⴡ	cut_l_stereo_44KHz.wav
3	17	2	2	1	C	0	0	0	0	Ⴜ	cut_g_stereo_44KHz.wav
3	18	1	1	1	C	1	0	759	0	Ⴁ	cut_h_stereo_44KHz.wav
3	19	3	4	2	I	1	0	756	1	Ⴊ	cut_w_stereo_44KHz.wav
3	20	4	3	2	I	2	0	1478	1	Ⴡ	cut_l_stereo_44KHz.wav
3	21	2	1	0	C	1	1	390	1	Ⴜ	cut_h_stereo_44KHz.wav
3	22	3	3	2	I	2	0	198	1	Ⴊ	cut_l_stereo_44KHz.wav
3	23	4	4	2	I	1	0	948	1	Ⴡ	cut_w_stereo_44KHz.wav
3	24	1	2	0	C	2	0	554	0	Ⴁ	cut_g_stereo_44KHz.wav
3	25	2	1	0	C	1	1	784	1	Ⴜ	cut_h_stereo_44KHz.wav
3	26	4	3	2	I	2	0	802	1	Ⴡ	cut_l_stereo_44KHz.wav
3	27	1	2	0	C	1	1	844	1	Ⴁ	cut_g_stereo_44KHz.wav
3	28	3	3	2	I	0	0	0	0	Ⴊ	cut_l_stereo_44KHz.wav
3	29	4	4	2	I	0	0	0	0	Ⴡ	cut_w_stereo_44KHz.wav
3	30	1	1	1	C	2	1	704	1	Ⴁ	cut_h_stereo_44KHz.wav
3	31	2	2	1	C	1	0	688	0	Ⴜ	cut_g_stereo_44KHz.wav
3	32	3	4	2	I	1	0	502	1	Ⴊ	cut_w_stereo_44KHz.wav
3	33	2	1	0	C	0	0	0	0	Ⴜ	cut_h_stereo_44KHz.wav
3	34	4	4	2	I	1	0	814	1	Ⴡ	cut_w_stereo_44KHz.wav
3	35	1	2	0	C	0	0	0	0	Ⴁ	cut_g_stereo_44KHz.wav
3	36	3	4	2	I	1	0	552	1	Ⴊ	cut_w_stereo_44KHz.wav
3	37	1	1	1	C	0	0	0	0	Ⴁ	cut_h_stereo_44KHz.wav
3	38	3	3	2	I	2	0	1150	1	Ⴊ	cut_l_stereo_44KHz.wav
3	39	4	3	2	I	1	0	758	1	Ⴡ	cut_l_stereo_44KHz.wav
3	40	2	2	1	C	2	1	532	1	Ⴜ	cut_g_stereo_44KHz.wav
3	41	4	4	2	I	1	0	662	1	Ⴡ	cut_w_stereo_44KHz.wav
3	42	1	2	0	C	2	0	644	0	Ⴁ	cut_g_stereo_44KHz.wav
3	43	2	1	0	C	1	1	848	1	Ⴜ	cut_h_stereo_44KHz.wav
3	44	3	4	2	I	2	0	683	1	Ⴊ	cut_w_stereo_44KHz.wav
3	45	4	3	2	I	2	0	879	0	Ⴡ	cut_l_stereo_44KHz.wav
3	46	2	2	1	C	1	0	1297	0	Ⴜ	cut_g_stereo_44KHz.wav
3	47	1	1	1	C	1	0	554	0	Ⴁ	cut_h_stereo_44KHz.wav
3	48	3	3	2	I	0	0	0	0	Ⴊ	cut_l_stereo_44KHz.wav
3	49	4	3	2	I	0	0	0	0	Ⴡ	cut_l_stereo_44KHz.wav
3	50	2	1	0	C	2	0	662	0	Ⴜ	cut_h_stereo_44KHz.wav
3	51	3	3	2	I	2	0	849	1	Ⴊ	cut_l_stereo_44KHz.wav
3	52	1	1	1	C	1	0	804	0	Ⴁ	cut_h_stereo_44KHz.wav
3	53	3	4	2	I	2	0	846	1	Ⴊ	cut_w_stereo_44KHz.wav
3	54	1	2	0	C	2	0	841	0	Ⴁ	cut_g_stereo_44KHz.wav
3	55	4	4	2	I	1	0	791	1	Ⴡ	cut_w_stereo_44KHz.wav
3	56	2	2	1	C	1	0	826	0	Ⴜ	cut_g_stereo_44KHz.wav
3	57	1	2	0	C	2	0	978	0	Ⴁ	cut_g_stereo_44KHz.wav
3	58	4	4	2	I	1	0	876	1	Ⴡ	cut_w_stereo_44KHz.wav
3	59	3	3	2	I	2	0	801	1	Ⴊ	cut_l_stereo_44KHz.wav
3	60	2	2	1	C	1	0	256	0	Ⴜ	cut_g_stereo_44KHz.wav
3	61	1	1	1	C	1	0	889	0	Ⴁ	cut_h_stereo_44KHz.wav
3	62	3	4	2	I	2	0	572	1	Ⴊ	cut_w_stereo_44KHz.wav
3	63	2	1	0	C	2	0	668	0	Ⴜ	cut_h_stereo_44KHz.wav
3	64	4	3	2	I	0	0	0	0	Ⴡ	cut_l_stereo_44KHz.wav
3	65	1	2	0	C	2	0	1024	0	Ⴁ	cut_g_stereo_44KHz.wav
3	66	2	1	0	C	2	0	660	0	Ⴜ	cut_h_stereo_44KHz.wav
3	67	4	3	2	I	2	0	635	1	Ⴡ	cut_l_stereo_44KHz.wav
3	68	3	4	2	I	2	0	682	0	Ⴊ	cut_w_stereo_44KHz.wav
3	69	4	4	2	I	1	0	790	1	Ⴡ	cut_w_stereo_44KHz.wav
3	70	3	3	2	I	2	0	674	1	Ⴊ	cut_l_stereo_44KHz.wav
3	71	2	2	1	C	1	0	710	0	Ⴜ	cut_g_stereo_44KHz.wav
3	72	1	1	1	C	2	1	523	1	Ⴁ	cut_h_stereo_44KHz.wav
3	73	3	4	2	I	1	0	651	1	Ⴊ	cut_w_stereo_44KHz.wav
3	74	4	3	2	I	0	0	0	0	Ⴡ	cut_l_stereo_44KHz.wav
3	75	2	2	1	C	2	1	917	1	Ⴜ	cut_g_stereo_44KHz.wav
3	76	1	2	0	C	1	1	844	1	Ⴁ	cut_g_stereo_44KHz.wav
3	77	2	1	0	C	0	0	0	0	Ⴜ	cut_h_stereo_44KHz.wav
3	78	4	4	2	I	1	0	530	1	Ⴡ	cut_w_stereo_44KHz.wav
3	79	3	3	2	I	1	0	696	1	Ⴊ	cut_l_stereo_44KHz.wav
3	80	1	1	1	C	0	0	0	0	Ⴁ	cut_h_stereo_44KHz.wav
3	81	4	4	2	I	0	0	0	0	Ⴡ	cut_w_stereo_44KHz.wav
3	82	2	1	0	C	0	0	0	0	Ⴜ	cut_h_stereo_44KHz.wav
3	83	1	1	1	C	0	0	0	0	Ⴁ	cut_h_stereo_44KHz.wav
3	84	3	3	2	I	1	0	687	0	Ⴊ	cut_l_stereo_44KHz.wav
3	85	4	3	2	I	1	0	810	1	Ⴡ	cut_l_stereo_44KHz.wav
3	86	3	4	2	I	2	0	618	1	Ⴊ	cut_w_stereo_44KHz.wav
3	87	2	2	1	C	1	0	111	0	Ⴜ	cut_g_stereo_44KHz.wav
3	88	1	2	0	C	2	0	984	0	Ⴁ	cut_g_stereo_44KHz.wav
3	89	2	1	0	C	1	1	892	1	Ⴜ	cut_h_stereo_44KHz.wav
3	90	1	2	0	C	2	0	1002	0	Ⴁ	cut_g_stereo_44KHz.wav
3	91	4	4	2	I	2	0	957	1	Ⴡ	cut_w_stereo_44KHz.wav
3	92	3	4	2	I	2	0	914	1	Ⴊ	cut_w_stereo_44KHz.wav
3	93	1	1	1	C	2	1	1054	1	Ⴁ	cut_h_stereo_44KHz.wav
3	94	2	2	1	C	1	0	700	0	Ⴜ	cut_g_stereo_44KHz.wav
3	95	3	3	2	I	2	0	763	1	Ⴊ	cut_l_stereo_44KHz.wav
3	96	4	3	2	I	1	0	549	0	Ⴡ	cut_l_stereo_44KHz.wav
3	97	2	2	1	C	1	0	826	0	Ⴜ	cut_g_stereo_44KHz.wav
3	98	1	2	0	C	2	0	700	0	Ⴁ	cut_g_stereo_44KHz.wav
3	99	4	3	2	I	2	0	1020	1	Ⴡ	cut_l_stereo_44KHz.wav
3	100	3	3	2	I	1	0	782	1	Ⴊ	cut_l_stereo_44KHz.wav
3	101	4	4	2	I	1	0	1156	0	Ⴡ	cut_w_stereo_44KHz.wav
3	102	1	1	1	C	0	0	0	0	Ⴁ	cut_h_stereo_44KHz.wav
3	103	3	4	2	I	1	0	691	0	Ⴊ	cut_w_stereo_44KHz.wav
3	104	2	1	0	C	0	0	0	0	Ⴜ	cut_h_stereo_44KHz.wav
3	105	4	3	2	I	2	0	1631	1	Ⴡ	cut_l_stereo_44KHz.wav
3	106	3	3	2	I	1	0	793	1	Ⴊ	cut_l_stereo_44KHz.wav
3	107	1	1	1	C	0	0	0	0	Ⴁ	cut_h_stereo_44KHz.wav
3	108	2	1	0	C	2	0	709	0	Ⴜ	cut_h_stereo_44KHz.wav
3	109	1	2	0	C	1	1	978	1	Ⴁ	cut_g_stereo_44KHz.wav
3	110	3	4	2	I	1	0	929	1	Ⴊ	cut_w_stereo_44KHz.wav
3	111	4	4	2	I	2	0	569	0	Ⴡ	cut_w_stereo_44KHz.wav
3	112	2	2	1	C	1	0	1078	0	Ⴜ	cut_g_stereo_44KHz.wav
3	113	4	3	2	I	2	0	805	1	Ⴡ	cut_l_stereo_44KHz.wav
3	114	1	1	1	C	1	0	825	0	Ⴁ	cut_h_stereo_44KHz.wav
3	115	3	3	2	I	1	0	669	0	Ⴊ	cut_l_stereo_44KHz.wav
3	116	2	1	0	C	2	0	667	0	Ⴜ	cut_h_stereo_44KHz.wav
3	117	3	4	2	I	2	0	917	1	Ⴊ	cut_w_stereo_44KHz.wav
3	118	2	2	1	C	1	0	679	0	Ⴜ	cut_g_stereo_44KHz.wav
3	119	1	2	0	C	1	1	755	1	Ⴁ	cut_g_stereo_44KHz.wav
3	120	4	4	2	I	2	0	208	1	Ⴡ	cut_w_stereo_44KHz.wav
3	121	2	1	0	C	1	1	837	1	Ⴜ	cut_h_stereo_44KHz.wav
3	122	4	4	2	I	2	0	771	0	Ⴡ	cut_w_stereo_44KHz.wav
3	123	1	2	0	C	1	1	1890	1	Ⴁ	cut_g_stereo_44KHz.wav
3	124	3	4	2	I	2	0	1116	1	Ⴊ	cut_w_stereo_44KHz.wav
3	125	4	3	2	I	1	0	1429	1	Ⴡ	cut_l_stereo_44KHz.wav
3	126	2	2	1	C	2	1	693	1	Ⴜ	cut_g_stereo_44KHz.wav
3	127	3	3	2	I	1	0	1800	1	Ⴊ	cut_l_stereo_44KHz.wav
3	128	1	1	1	C	2	1	815	1	Ⴁ	cut_h_stereo_44KHz.wav
3	129	2	1	0	C	1	1	931	1	Ⴜ	cut_h_stereo_44KHz.wav
3	130	4	3	2	I	2	0	605	1	Ⴡ	cut_l_stereo_44KHz.wav
3	131	3	4	2	I	1	0	1008	1	Ⴊ	cut_w_stereo_44KHz.wav
3	132	1	2	0	C	2	0	1037	0	Ⴁ	cut_g_stereo_44KHz.wav
3	133	2	2	1	C	1	0	465	0	Ⴜ	cut_g_stereo_44KHz.wav
3	134	4	4	2	I	1	0	825	1	Ⴡ	cut_w_stereo_44KHz.wav
3	135	1	1	1	C	2	1	656	1	Ⴁ	cut_h_stereo_44KHz.wav
3	136	3	3	2	I	2	0	794	1	Ⴊ	cut_l_stereo_44KHz.wav
3	137	1	2	0	C	1	1	857	1	Ⴁ	cut_g_stereo_44KHz.wav
3	138	3	4	2	I	2	0	942	1	Ⴊ	cut_w_stereo_44KHz.wav
3	139	4	3	2	I	1	0	998	0	Ⴡ	cut_l_stereo_44KHz.wav
3	140	2	1	0	C	2	0	1012	0	Ⴜ	cut_h_stereo_44KHz.wav
3	141	4	4	2	I	1	0	945	1	Ⴡ	cut_w_stereo_44KHz.wav
3	142	1	1	1	C	1	0	560	0	Ⴁ	cut_h_stereo_44KHz.wav
3	143	2	2	1	C	2	1	838	1	Ⴜ	cut_g_stereo_44KHz.wav
3	144	3	3	2	I	2	0	759	1	Ⴊ	cut_l_stereo_44KHz.wav
3	145	1	1	1	C	2	1	839	1	Ⴁ	cut_h_stereo_44KHz.wav
3	146	4	4	2	I	0	0	0	0	Ⴡ	cut_w_stereo_44KHz.wav
3	147	3	3	2	I	2	0	540	1	Ⴊ	cut_l_stereo_44KHz.wav
3	148	2	2	1	C	1	0	884	0	Ⴜ	cut_g_stereo_44KHz.wav
3	149	4	3	2	I	1	0	733	1	Ⴡ	cut_l_stereo_44KHz.wav
3	150	1	2	0	C	2	0	633	0	Ⴁ	cut_g_stereo_44KHz.wav
3	151	3	4	2	I	2	0	719	1	Ⴊ	cut_w_stereo_44KHz.wav
3	152	2	1	0	C	1	1	697	1	Ⴜ	cut_h_stereo_44KHz.wav
3	153	1	2	0	C	2	0	1024	0	Ⴁ	cut_g_stereo_44KHz.wav
3	154	4	3	2	I	1	0	833	1	Ⴡ	cut_l_stereo_44KHz.wav
3	155	3	4	2	I	2	0	759	0	Ⴊ	cut_w_stereo_44KHz.wav
3	156	2	2	1	C	0	0	0	0	Ⴜ	cut_g_stereo_44KHz.wav
3	157	4	4	2	I	2	0	623	1	Ⴡ	cut_w_stereo_44KHz.wav
3	158	3	3	2	I	1	0	1015	1	Ⴊ	cut_l_stereo_44KHz.wav
3	159	1	1	1	C	2	1	647	1	Ⴁ	cut_h_stereo_44KHz.wav
3	160	2	1	0	C	2	0	920	0	Ⴜ	cut_h_stereo_44KHz.wav
3	161	1	2	0	C	1	1	794	1	Ⴁ	cut_g_stereo_44KHz.wav
3	162	3	3	2	I	2	0	337	1	Ⴊ	cut_l_stereo_44KHz.wav
3	163	4	3	2	I	1	0	531	1	Ⴡ	cut_l_stereo_44KHz.wav
3	164	2	2	1	C	2	1	506	1	Ⴜ	cut_g_stereo_44KHz.wav
3	165	4	4	2	I	2	0	921	1	Ⴡ	cut_w_stereo_44KHz.wav
3	166	2	1	0	C	1	1	844	1	Ⴜ	cut_h_stereo_44KHz.wav
3	167	1	1	1	C	2	1	820	1	Ⴁ	cut_h_stereo_44KHz.wav
3	168	3	4	2	I	2	0	708	1	Ⴊ	cut_w_stereo_44KHz.wav
3	169	1	1	1	C	1	0	1112	0	Ⴁ	cut_h_stereo_44KHz.wav
3	170	4	3	2	I	1	0	760	1	Ⴡ	cut_l_stereo_44KHz.wav
3	171	2	2	1	C	2	1	759	1	Ⴜ	cut_g_stereo_44KHz.wav
3	172	3	4	2	I	2	0	942	0	Ⴊ	cut_w_stereo_44KHz.wav
3	173	2	1	0	C	1	1	872	1	Ⴜ	cut_h_stereo_44KHz.wav
3	174	1	2	0	C	1	1	950	1	Ⴁ	cut_g_stereo_44KHz.wav
3	175	3	3	2	I	2	0	779	0	Ⴊ	cut_l_stereo_44KHz.wav
3	176	4	4	2	I	1	0	815	1	Ⴡ	cut_w_stereo_44KHz.wav
3	177	3	3	2	I	2	0	821	1	Ⴊ	cut_l_stereo_44KHz.wav
3	178	4	3	2	I	1	0	717	1	Ⴡ	cut_l_stereo_44KHz.wav
3	179	2	1	0	C	2	0	780	0	Ⴜ	cut_h_stereo_44KHz.wav
3	180	1	2	0	C	2	0	435	0	Ⴁ	cut_g_stereo_44KHz.wav
3	181	2	2	1	C	1	0	661	0	Ⴜ	cut_g_stereo_44KHz.wav
3	182	3	4	2	I	2	0	950	1	Ⴊ	cut_w_stereo_44KHz.wav
3	183	4	4	2	I	1	0	844	1	Ⴡ	cut_w_stereo_44KHz.wav
3	184	1	1	1	C	2	1	959	1	Ⴁ	cut_h_stereo_44KHz.wav
3	185	2	2	1	C	1	0	978	0	Ⴜ	cut_g_stereo_44KHz.wav
3	186	3	4	2	I	2	0	731	1	Ⴊ	cut_w_stereo_44KHz.wav
3	187	1	1	1	C	2	1	839	1	Ⴁ	cut_h_stereo_44KHz.wav
3	188	4	4	2	I	2	0	982	1	Ⴡ	cut_w_stereo_44KHz.wav
3	189	1	2	0	C	2	0	662	0	Ⴁ	cut_g_stereo_44KHz.wav
3	190	3	3	2	I	2	0	732	1	Ⴊ	cut_l_stereo_44KHz.wav
3	191	2	1	0	C	2	0	792	0	Ⴜ	cut_h_stereo_44KHz.wav
3	192	4	3	2	I	2	0	939	1	Ⴡ	cut_l_stereo_44KHz.wav
3	193	1	1	1	C	2	1	848	1	Ⴁ	cut_h_stereo_44KHz.wav
3	194	4	3	2	I	2	0	589	1	Ⴡ	cut_l_stereo_44KHz.wav
3	195	3	4	2	I	1	0	787	1	Ⴊ	cut_w_stereo_44KHz.wav
3	196	2	1	0	C	2	0	692	0	Ⴜ	cut_h_stereo_44KHz.wav
3	197	1	2	0	C	1	1	776	1	Ⴁ	cut_g_stereo_44KHz.wav
3	198	4	4	2	I	2	0	613	0	Ⴡ	cut_w_stereo_44KHz.wav
3	199	3	3	2	I	1	0	903	1	Ⴊ	cut_l_stereo_44KHz.wav
3	200	2	2	1	C	2	1	739	1	Ⴜ	cut_g_stereo_44KHz.wav
4	1	4	4	2	I	2	0	1421	1	Ⴃ	cut_ei_stereo_44KHz.wav
4	2	2	1	0	C	1	1	677	1	Ⴟ	cut_s_stereo_44KHz.wav
4	3	1	2	0	C	2	0	724	0	Ⴂ	cut_ui_stereo_44KHz.wav
4	4	3	3	2	I	2	0	245	1	Ⴇ	cut_f_stereo_44KHz.wav
4	5	1	1	1	C	2	1	645	1	Ⴂ	cut_s_stereo_44KHz.wav
4	6	2	2	1	C	1	0	630	0	Ⴟ	cut_ui_stereo_44KHz.wav
4	7	4	3	2	I	2	0	785	0	Ⴃ	cut_f_stereo_44KHz.wav
4	8	3	4	2	I	2	0	691	1	Ⴇ	cut_ei_stereo_44KHz.wav
4	9	2	1	0	C	2	0	1337	0	Ⴟ	cut_s_stereo_44KHz.wav
4	10	1	1	1	C	1	0	972	0	Ⴂ	cut_s_stereo_44KHz.wav
4	11	4	3	2	I	2	0	777	1	Ⴃ	cut_f_stereo_44KHz.wav
4	12	3	4	2	I	2	0	729	0	Ⴇ	cut_ei_stereo_44KHz.wav
4	13	4	4	2	I	2	0	929	0	Ⴃ	cut_ei_stereo_44KHz.wav
4	14	1	2	0	C	2	0	940	0	Ⴂ	cut_ui_stereo_44KHz.wav
4	15	3	3	2	I	1	0	616	1	Ⴇ	cut_f_stereo_44KHz.wav
4	16	2	2	1	C	2	1	1245	1	Ⴟ	cut_ui_stereo_44KHz.wav
4	17	3	4	2	I	2	0	887	1	Ⴇ	cut_ei_stereo_44KHz.wav
4	18	4	4	2	I	1	0	886	0	Ⴃ	cut_ei_stereo_44KHz.wav
4	19	2	1	0	C	2	0	721	0	Ⴟ	cut_s_stereo_44KHz.wav
4	20	1	2	0	C	2	0	1129	0	Ⴂ	cut_ui_stereo_44KHz.wav
4	21	4	3	2	I	2	0	736	0	Ⴃ	cut_f_stereo_44KHz.wav
4	22	3	3	2	I	1	0	854	1	Ⴇ	cut_f_stereo_44KHz.wav
4	23	2	2	1	C	2	1	655	1	Ⴟ	cut_ui_stereo_44KHz.wav
4	24	1	1	1	C	1	0	1040	0	Ⴂ	cut_s_stereo_44KHz.wav
4	25	4	4	2	I	2	0	463	0	Ⴃ	cut_ei_stereo_44KHz.wav
4	26	3	4	2	I	2	0	656	0	Ⴇ	cut_ei_stereo_44KHz.wav
4	27	1	2	0	C	1	1	1423	1	Ⴂ	cut_ui_stereo_44KHz.wav
4	28	2	2	1	C	2	1	654	1	Ⴟ	cut_ui_stereo_44KHz.wav
4	29	3	3	2	I	2	0	806	0	Ⴇ	cut_f_stereo_44KHz.wav
4	30	2	1	0	C	1	1	1085	1	Ⴟ	cut_s_stereo_44KHz.wav
4	31	4	3	2	I	2	0	812	1	Ⴃ	cut_f_stereo_44KHz.wav
4	32	1	1	1	C	2	1	867	1	Ⴂ	cut_s_stereo_44KHz.wav
4	33	3	3	2	I	2	0	959	1	Ⴇ	cut_f_stereo_44KHz.wav
4	34	4	3	2	I	1	0	986	1	Ⴃ	cut_f_stereo_44KHz.wav
4	35	2	1	0	C	0	0	0	0	Ⴟ	cut_s_stereo_44KHz.wav
4	36	1	1	1	C	1	0	532	0	Ⴂ	cut_s_stereo_44KHz.wav
4	37	3	4	2	I	1	0	968	1	Ⴇ	cut_ei_stereo_44KHz.wav
4	38	1	2	0	C	0	0	0	0	Ⴂ	cut_ui_stereo_44KHz.wav
4	39	2	2	1	C	0	0	0	0	Ⴟ	cut_ui_stereo_44KHz.wav
4	40	4	4	2	I	2	0	736	1	Ⴃ	cut_ei_stereo_44KHz.wav
4	41	1	1	1	C	1	0	719	0	Ⴂ	cut_s_stereo_44KHz.wav
4	42	4	4	2	I	1	0	501	1	Ⴃ	cut_ei_stereo_44KHz.wav
4	43	3	3	2	I	0	0	0	0	Ⴇ	cut_f_stereo_44KHz.wav
4	44	2	2	1	C	2	1	910	1	Ⴟ	cut_ui_stereo_44KHz.wav
4	45	4	3	2	I	1	0	1060	1	Ⴃ	cut_f_stereo_44KHz.wav
4	46	3	4	2	I	0	0	0	0	Ⴇ	cut_ei_stereo_44KHz.wav
4	47	2	1	0	C	1	1	769	1	Ⴟ	cut_s_stereo_44KHz.wav
4	48	1	2	0	C	2	0	1147	0	Ⴂ	cut_ui_stereo_44KHz.wav
4	49	2	2	1	C	2	1	615	1	Ⴟ	cut_ui_stereo_44KHz.wav
4	50	1	2	0	C	1	1	639	1	Ⴂ	cut_ui_stereo_44KHz.wav
4	51	4	3	2	I	2	0	877	1	Ⴃ	cut_f_stereo_44KHz.wav
4	52	3	3	2	I	2	0	888	1	Ⴇ	cut_f_stereo_44KHz.wav
4	53	4	4	2	I	2	0	579	1	Ⴃ	cut_ei_stereo_44KHz.wav
4	54	3	4	2	I	1	0	739	1	Ⴇ	cut_ei_stereo_44KHz.wav
4	55	2	1	0	C	2	0	1149	0	Ⴟ	cut_s_stereo_44KHz.wav
4	56	1	1	1	C	2	1	891	1	Ⴂ	cut_s_stereo_44KHz.wav
4	57	3	4	2	I	2	0	601	1	Ⴇ	cut_ei_stereo_44KHz.wav
4	58	4	4	2	I	1	0	553	1	Ⴃ	cut_ei_stereo_44KHz.wav
4	59	2	1	0	C	2	0	1176	0	Ⴟ	cut_s_stereo_44KHz.wav
4	60	1	2	0	C	1	1	1144	1	Ⴂ	cut_ui_stereo_44KHz.wav
4	61	2	2	1	C	2	1	861	1	Ⴟ	cut_ui_stereo_44KHz.wav
4	62	4	3	2	I	2	0	721	1	Ⴃ	cut_f_stereo_44KHz.wav
4	63	1	1	1	C	1	0	900	0	Ⴂ	cut_s_stereo_44KHz.wav
4	64	3	3	2	I	2	0	1648	1	Ⴇ	cut_f_stereo_44KHz.wav
4	65	4	4	2	I	2	0	569	1	Ⴃ	cut_ei_stereo_44KHz.wav
4	66	2	1	0	C	0	0	0	0	Ⴟ	cut_s_stereo_44KHz.wav
4	67	1	1	1	C	2	1	522	1	Ⴂ	cut_s_stereo_44KHz.wav
4	68	3	4	2	I	1	0	743	1	Ⴇ	cut_ei_stereo_44KHz.wav
4	69	4	3	2	I	2	0	983	0	Ⴃ	cut_f_stereo_44KHz.wav
4	70	2	2	1	C	0	0	0	0	Ⴟ	cut_ui_stereo_44KHz.wav
4	71	1	2	0	C	0	0	0	0	Ⴂ	cut_ui_stereo_44KHz.wav
4	72	3	3	2	I	1	0	801	1	Ⴇ	cut_f_stereo_44KHz.wav
4	73	2	2	1	C	2	1	729	1	Ⴟ	cut_ui_stereo_44KHz.wav
4	74	4	4	2	I	1	0	714	1	Ⴃ	cut_ei_stereo_44KHz.wav
4	75	3	3	2	I	2	0	938	1	Ⴇ	cut_f_stereo_44KHz.wav
4	76	1	2	0	C	1	1	525	1	Ⴂ	cut_ui_stereo_44KHz.wav
4	77	3	4	2	I	2	0	671	1	Ⴇ	cut_ei_stereo_44KHz.wav
4	78	2	1	0	C	1	1	899	1	Ⴟ	cut_s_stereo_44KHz.wav
4	79	4	3	2	I	1	0	411	1	Ⴃ	cut_f_stereo_44KHz.wav
4	80	1	1	1	C	1	0	1014	0	Ⴂ	cut_s_stereo_44KHz.wav
4	81	3	3	2	I	2	0	870	0	Ⴇ	cut_f_stereo_44KHz.wav
4	82	4	4	2	I	2	0	781	1	Ⴃ	cut_ei_stereo_44KHz.wav
4	83	1	1	1	C	1	0	935	0	Ⴂ	cut_s_stereo_44KHz.wav
4	84	2	1	0	C	2	0	799	0	Ⴟ	cut_s_stereo_44KHz.wav
4	85	1	2	0	C	1	1	730	1	Ⴂ	cut_ui_stereo_44KHz.wav
4	86	4	3	2	I	0	0	0	0	Ⴃ	cut_f_stereo_44KHz.wav
4	87	3	4	2	I	1	0	654	1	Ⴇ	cut_ei_stereo_44KHz.wav
4	88	2	2	1	C	0	0	0	0	Ⴟ	cut_ui_stereo_44KHz.wav
4	89	1	2	0	C	1	1	671	1	Ⴂ	cut_ui_stereo_44KHz.wav
4	90	4	3	2	I	2	0	909	0	Ⴃ	cut_f_stereo_44KHz.wav
4	91	2	2	1	C	0	0	0	0	Ⴟ	cut_ui_stereo_44KHz.wav
4	92	3	4	2	I	1	0	617	1	Ⴇ	cut_ei_stereo_44KHz.wav
4	93	2	1	0	C	0	0	0	0	Ⴟ	cut_s_stereo_44KHz.wav
4	94	1	1	1	C	2	1	1377	1	Ⴂ	cut_s_stereo_44KHz.wav
4	95	3	3	2	I	2	0	780	1	Ⴇ	cut_f_stereo_44KHz.wav
4	96	4	4	2	I	1	0	648	0	Ⴃ	cut_ei_stereo_44KHz.wav
4	97	2	1	0	C	2	0	794	0	Ⴟ	cut_s_stereo_44KHz.wav
4	98	1	2	0	C	0	0	0	0	Ⴂ	cut_ui_stereo_44KHz.wav
4	99	3	4	2	I	1	0	638	0	Ⴇ	cut_ei_stereo_44KHz.wav
4	100	4	4	2	I	2	0	1072	1	Ⴃ	cut_ei_stereo_44KHz.wav
4	101	1	1	1	C	2	1	582	1	Ⴂ	cut_s_stereo_44KHz.wav
4	102	4	3	2	I	2	0	851	1	Ⴃ	cut_f_stereo_44KHz.wav
4	103	3	3	2	I	0	0	0	0	Ⴇ	cut_f_stereo_44KHz.wav
4	104	2	2	1	C	2	1	517	1	Ⴟ	cut_ui_stereo_44KHz.wav
4	105	4	4	2	I	2	0	690	1	Ⴃ	cut_ei_stereo_44KHz.wav
4	106	2	1	0	C	1	1	925	1	Ⴟ	cut_s_stereo_44KHz.wav
4	107	3	4	2	I	2	0	1089	1	Ⴇ	cut_ei_stereo_44KHz.wav
4	108	1	1	1	C	1	0	801	0	Ⴂ	cut_s_stereo_44KHz.wav
4	109	2	2	1	C	2	1	479	1	Ⴟ	cut_ui_stereo_44KHz.wav
4	110	3	3	2	I	2	0	856	1	Ⴇ	cut_f_stereo_44KHz.wav
4	111	1	2	0	C	1	1	618	1	Ⴂ	cut_ui_stereo_44KHz.wav
4	112	4	3	2	I	2	0	807	1	Ⴃ	cut_f_stereo_44KHz.wav
4	113	2	1	0	C	1	1	850	1	Ⴟ	cut_s_stereo_44KHz.wav
4	114	1	1	1	C	2	1	346	1	Ⴂ	cut_s_stereo_44KHz.wav
4	115	3	3	2	I	2	0	762	1	Ⴇ	cut_f_stereo_44KHz.wav
4	116	4	3	2	I	1	0	671	0	Ⴃ	cut_f_stereo_44KHz.wav
4	117	3	4	2	I	2	0	823	1	Ⴇ	cut_ei_stereo_44KHz.wav
4	118	4	4	2	I	1	0	658	1	Ⴃ	cut_ei_stereo_44KHz.wav
4	119	1	2	0	C	2	0	681	0	Ⴂ	cut_ui_stereo_44KHz.wav
4	120	2	2	1	C	2	1	687	1	Ⴟ	cut_ui_stereo_44KHz.wav
4	121	3	3	2	I	1	0	733	1	Ⴇ	cut_f_stereo_44KHz.wav
4	122	1	2	0	C	2	0	660	0	Ⴂ	cut_ui_stereo_44KHz.wav
4	123	2	2	1	C	1	0	526	0	Ⴟ	cut_ui_stereo_44KHz.wav
4	124	4	4	2	I	2	0	641	1	Ⴃ	cut_ei_stereo_44KHz.wav
4	125	2	1	0	C	2	0	894	0	Ⴟ	cut_s_stereo_44KHz.wav
4	126	4	3	2	I	2	0	683	1	Ⴃ	cut_f_stereo_44KHz.wav
4	127	1	1	1	C	2	1	672	1	Ⴂ	cut_s_stereo_44KHz.wav
4	128	3	4	2	I	2	0	1303	1	Ⴇ	cut_ei_stereo_44KHz.wav
4	129	4	4	2	I	2	0	1282	1	Ⴃ	cut_ei_stereo_44KHz.wav
4	130	1	2	0	C	1	1	876	1	Ⴂ	cut_ui_stereo_44KHz.wav
4	131	3	4	2	I	2	0	937	1	Ⴇ	cut_ei_stereo_44KHz.wav
4	132	2	1	0	C	1	1	803	1	Ⴟ	cut_s_stereo_44KHz.wav
4	133	4	3	2	I	2	0	658	1	Ⴃ	cut_f_stereo_44KHz.wav
4	134	2	2	1	C	1	0	932	0	Ⴟ	cut_ui_stereo_44KHz.wav
4	135	3	3	2	I	2	0	608	1	Ⴇ	cut_f_stereo_44KHz.wav
4	136	1	1	1	C	2	1	799	1	Ⴂ	cut_s_stereo_44KHz.wav
4	137	3	3	2	I	2	0	677	1	Ⴇ	cut_f_stereo_44KHz.wav
4	138	1	1	1	C	1	0	930	0	Ⴂ	cut_s_stereo_44KHz.wav
4	139	4	4	2	I	1	0	737	0	Ⴃ	cut_ei_stereo_44KHz.wav
4	140	2	1	0	C	2	0	855	0	Ⴟ	cut_s_stereo_44KHz.wav
4	141	4	3	2	I	1	0	797	1	Ⴃ	cut_f_stereo_44KHz.wav
4	142	1	2	0	C	1	1	637	1	Ⴂ	cut_ui_stereo_44KHz.wav
4	143	2	2	1	C	2	1	673	1	Ⴟ	cut_ui_stereo_44KHz.wav
4	144	3	4	2	I	1	0	590	1	Ⴇ	cut_ei_stereo_44KHz.wav
4	145	2	2	1	C	2	1	774	1	Ⴟ	cut_ui_stereo_44KHz.wav
4	146	1	1	1	C	2	1	922	1	Ⴂ	cut_s_stereo_44KHz.wav
4	147	4	3	2	I	1	0	1370	1	Ⴃ	cut_f_stereo_44KHz.wav
4	148	3	4	2	I	2	0	738	1	Ⴇ	cut_ei_stereo_44KHz.wav
4	149	1	2	0	C	2	0	923	0	Ⴂ	cut_ui_stereo_44KHz.wav
4	150	3	3	2	I	1	0	832	1	Ⴇ	cut_f_stereo_44KHz.wav
4	151	2	1	0	C	2	0	869	0	Ⴟ	cut_s_stereo_44KHz.wav
4	152	4	4	2	I	2	0	826	1	Ⴃ	cut_ei_stereo_44KHz.wav
4	153	1	1	1	C	1	0	1108	0	Ⴂ	cut_s_stereo_44KHz.wav
4	154	2	2	1	C	2	1	575	1	Ⴟ	cut_ui_stereo_44KHz.wav
4	155	4	4	2	I	1	0	706	1	Ⴃ	cut_ei_stereo_44KHz.wav
4	156	3	3	2	I	2	0	942	0	Ⴇ	cut_f_stereo_44KHz.wav
4	157	1	2	0	C	2	0	706	0	Ⴂ	cut_ui_stereo_44KHz.wav
4	158	3	4	2	I	2	0	792	1	Ⴇ	cut_ei_stereo_44KHz.wav
4	159	2	1	0	C	2	0	561	0	Ⴟ	cut_s_stereo_44KHz.wav
4	160	4	3	2	I	1	0	732	1	Ⴃ	cut_f_stereo_44KHz.wav
4	161	3	4	2	I	1	0	592	1	Ⴇ	cut_ei_stereo_44KHz.wav
4	162	1	2	0	C	2	0	661	0	Ⴂ	cut_ui_stereo_44KHz.wav
4	163	4	3	2	I	1	0	723	1	Ⴃ	cut_f_stereo_44KHz.wav
4	164	2	2	1	C	2	1	667	1	Ⴟ	cut_ui_stereo_44KHz.wav
4	165	3	3	2	I	1	0	721	1	Ⴇ	cut_f_stereo_44KHz.wav
4	166	1	1	1	C	2	1	873	1	Ⴂ	cut_s_stereo_44KHz.wav
4	167	4	4	2	I	2	0	770	1	Ⴃ	cut_ei_stereo_44KHz.wav
4	168	2	1	0	C	1	1	1051	1	Ⴟ	cut_s_stereo_44KHz.wav
4	169	4	4	2	I	2	0	560	1	Ⴃ	cut_ei_stereo_44KHz.wav
4	170	2	2	1	C	2	1	886	1	Ⴟ	cut_ui_stereo_44KHz.wav
4	171	3	4	2	I	1	0	819	0	Ⴇ	cut_ei_stereo_44KHz.wav
4	172	1	2	0	C	2	0	638	0	Ⴂ	cut_ui_stereo_44KHz.wav
4	173	2	1	0	C	1	1	634	1	Ⴟ	cut_s_stereo_44KHz.wav
4	174	3	3	2	I	2	0	801	1	Ⴇ	cut_f_stereo_44KHz.wav
4	175	4	3	2	I	1	0	796	1	Ⴃ	cut_f_stereo_44KHz.wav
4	176	1	1	1	C	2	1	768	1	Ⴂ	cut_s_stereo_44KHz.wav
4	177	4	3	2	I	1	0	486	1	Ⴃ	cut_f_stereo_44KHz.wav
4	178	1	2	0	C	1	1	635	1	Ⴂ	cut_ui_stereo_44KHz.wav
4	179	2	1	0	C	2	0	945	0	Ⴟ	cut_s_stereo_44KHz.wav
4	180	3	4	2	I	1	0	664	1	Ⴇ	cut_ei_stereo_44KHz.wav
4	181	2	2	1	C	2	1	368	1	Ⴟ	cut_ui_stereo_44KHz.wav
4	182	4	4	2	I	1	0	1452	1	Ⴃ	cut_ei_stereo_44KHz.wav
4	183	1	1	1	C	2	1	708	1	Ⴂ	cut_s_stereo_44KHz.wav
4	184	3	3	2	I	1	0	786	0	Ⴇ	cut_f_stereo_44KHz.wav
4	185	1	1	1	C	2	1	775	1	Ⴂ	cut_s_stereo_44KHz.wav
4	186	2	2	1	C	1	0	594	0	Ⴟ	cut_ui_stereo_44KHz.wav
4	187	3	3	2	I	2	0	682	1	Ⴇ	cut_f_stereo_44KHz.wav
4	188	4	3	2	I	1	0	827	1	Ⴃ	cut_f_stereo_44KHz.wav
4	189	1	2	0	C	2	0	490	0	Ⴂ	cut_ui_stereo_44KHz.wav
4	190	2	1	0	C	1	1	851	1	Ⴟ	cut_s_stereo_44KHz.wav
4	191	3	4	2	I	2	0	677	1	Ⴇ	cut_ei_stereo_44KHz.wav
4	192	4	4	2	I	1	0	565	1	Ⴃ	cut_ei_stereo_44KHz.wav
4	193	2	2	1	C	2	1	549	1	Ⴟ	cut_ui_stereo_44KHz.wav
4	194	3	4	2	I	1	0	577	0	Ⴇ	cut_ei_stereo_44KHz.wav
4	195	1	1	1	C	1	0	871	0	Ⴂ	cut_s_stereo_44KHz.wav
4	196	4	4	2	I	2	0	676	1	Ⴃ	cut_ei_stereo_44KHz.wav
4	197	1	2	0	C	1	1	569	1	Ⴂ	cut_ui_stereo_44KHz.wav
4	198	3	3	2	I	2	0	1369	1	Ⴇ	cut_f_stereo_44KHz.wav
4	199	2	1	0	C	2	0	1908	0	Ⴟ	cut_s_stereo_44KHz.wav
4	200	4	3	2	I	0	0	0	0	Ⴃ	cut_f_stereo_44KHz.wav
