block	trial	Vstim	Astim	match	C/I	resp	result	RT	fb	V-file	A-file
LR

0	1	2	3	1	C	1	0	1326	0	Ⴞ	cut_oo_stereo_44KHz.wav
0	2	1	2	0	C	2	0	1107	0	Ⴢ	cut_eeuw_stereo_44KHz.wav
0	3	1	1	1	C	1	0	846	0	Ⴢ	cut_g_stereo_44KHz.wav
0	4	2	4	0	C	2	0	648	0	Ⴞ	cut_ee_stereo_44KHz.wav
0	5	1	1	1	C	2	1	1241	1	Ⴢ	cut_g_stereo_44KHz.wav
0	6	2	3	1	C	1	0	605	0	Ⴞ	cut_oo_stereo_44KHz.wav
0	7	1	2	0	C	2	0	993	0	Ⴢ	cut_eeuw_stereo_44KHz.wav
0	8	2	4	0	C	1	1	1564	1	Ⴞ	cut_ee_stereo_44KHz.wav
0	9	2	3	1	C	1	0	861	0	Ⴞ	cut_oo_stereo_44KHz.wav
0	10	2	4	0	C	1	1	961	1	Ⴞ	cut_ee_stereo_44KHz.wav
0	11	1	1	1	C	1	0	869	0	Ⴢ	cut_g_stereo_44KHz.wav
0	12	1	2	0	C	2	0	1036	0	Ⴢ	cut_eeuw_stereo_44KHz.wav
0	13	1	2	0	C	2	0	723	0	Ⴢ	cut_eeuw_stereo_44KHz.wav
0	14	2	3	1	C	2	1	1254	1	Ⴞ	cut_oo_stereo_44KHz.wav
0	15	2	4	0	C	1	1	1006	1	Ⴞ	cut_ee_stereo_44KHz.wav
0	16	1	1	1	C	2	1	1158	1	Ⴢ	cut_g_stereo_44KHz.wav
0	17	2	3	1	C	1	0	590	0	Ⴞ	cut_oo_stereo_44KHz.wav
0	18	1	2	0	C	2	0	950	0	Ⴢ	cut_eeuw_stereo_44KHz.wav
0	19	1	1	1	C	2	1	1356	1	Ⴢ	cut_g_stereo_44KHz.wav
0	20	2	4	0	C	1	1	936	1	Ⴞ	cut_ee_stereo_44KHz.wav
0	21	1	2	0	C	2	0	1048	0	Ⴢ	cut_eeuw_stereo_44KHz.wav
0	22	2	4	0	C	1	1	1363	1	Ⴞ	cut_ee_stereo_44KHz.wav
0	23	2	3	1	C	2	1	1221	1	Ⴞ	cut_oo_stereo_44KHz.wav
0	24	1	1	1	C	2	1	1214	1	Ⴢ	cut_g_stereo_44KHz.wav
0	25	2	4	0	C	1	1	1151	1	Ⴞ	cut_ee_stereo_44KHz.wav
0	26	1	2	0	C	2	0	842	0	Ⴢ	cut_eeuw_stereo_44KHz.wav
0	27	1	1	1	C	1	0	1258	0	Ⴢ	cut_g_stereo_44KHz.wav
0	28	2	3	1	C	2	1	1040	1	Ⴞ	cut_oo_stereo_44KHz.wav
0	29	1	2	0	C	2	0	655	0	Ⴢ	cut_eeuw_stereo_44KHz.wav
0	30	2	3	1	C	1	0	1004	0	Ⴞ	cut_oo_stereo_44KHz.wav
avg_resp = 1190
1	1	3	3	2	I	2	0	1073	1	Ⴃ	cut_ui_stereo_44KHz.wav
1	2	2	2	1	C	2	1	1750	1	Ⴡ	cut_oei_stereo_44KHz.wav
1	3	4	4	2	I	2	0	911	1	Ⴜ	cut_n_stereo_44KHz.wav
1	4	1	1	1	C	2	1	859	1	Ⴂ	cut_ei_stereo_44KHz.wav
1	5	3	4	2	I	2	0	923	1	Ⴃ	cut_n_stereo_44KHz.wav
1	6	1	2	0	C	2	0	884	0	Ⴂ	cut_oei_stereo_44KHz.wav
1	7	4	3	2	I	2	0	1009	0	Ⴜ	cut_ui_stereo_44KHz.wav
1	8	2	1	0	C	1	1	598	1	Ⴡ	cut_ei_stereo_44KHz.wav
1	9	3	4	2	I	1	0	1451	1	Ⴃ	cut_n_stereo_44KHz.wav
1	10	1	1	1	C	2	1	1672	1	Ⴂ	cut_ei_stereo_44KHz.wav
1	11	4	3	2	I	1	0	840	0	Ⴜ	cut_ui_stereo_44KHz.wav
1	12	2	2	1	C	2	1	857	1	Ⴡ	cut_oei_stereo_44KHz.wav
1	13	4	4	2	I	2	0	703	1	Ⴜ	cut_n_stereo_44KHz.wav
1	14	2	1	0	C	2	0	843	0	Ⴡ	cut_ei_stereo_44KHz.wav
1	15	3	3	2	I	2	0	780	0	Ⴃ	cut_ui_stereo_44KHz.wav
1	16	1	2	0	C	1	1	600	1	Ⴂ	cut_oei_stereo_44KHz.wav
1	17	2	1	0	C	1	1	862	1	Ⴡ	cut_ei_stereo_44KHz.wav
1	18	4	3	2	I	1	0	632	1	Ⴜ	cut_ui_stereo_44KHz.wav
1	19	1	2	0	C	1	1	981	1	Ⴂ	cut_oei_stereo_44KHz.wav
1	20	3	3	2	I	1	0	705	1	Ⴃ	cut_ui_stereo_44KHz.wav
1	21	4	4	2	I	2	0	1056	1	Ⴜ	cut_n_stereo_44KHz.wav
1	22	1	1	1	C	2	1	1192	1	Ⴂ	cut_ei_stereo_44KHz.wav
1	23	3	4	2	I	2	0	740	1	Ⴃ	cut_n_stereo_44KHz.wav
1	24	2	2	1	C	1	0	613	0	Ⴡ	cut_oei_stereo_44KHz.wav
1	25	4	3	2	I	2	0	564	1	Ⴜ	cut_ui_stereo_44KHz.wav
1	26	3	3	2	I	1	0	1038	1	Ⴃ	cut_ui_stereo_44KHz.wav
1	27	1	1	1	C	2	1	663	1	Ⴂ	cut_ei_stereo_44KHz.wav
1	28	2	2	1	C	2	1	670	1	Ⴡ	cut_oei_stereo_44KHz.wav
1	29	3	4	2	I	1	0	902	1	Ⴃ	cut_n_stereo_44KHz.wav
1	30	4	4	2	I	2	0	810	0	Ⴜ	cut_n_stereo_44KHz.wav
1	31	1	2	0	C	2	0	910	0	Ⴂ	cut_oei_stereo_44KHz.wav
1	32	2	1	0	C	1	1	945	1	Ⴡ	cut_ei_stereo_44KHz.wav
1	33	1	2	0	C	1	1	566	1	Ⴂ	cut_oei_stereo_44KHz.wav
1	34	2	1	0	C	1	1	425	1	Ⴡ	cut_ei_stereo_44KHz.wav
1	35	4	4	2	I	2	0	839	1	Ⴜ	cut_n_stereo_44KHz.wav
1	36	3	3	2	I	2	0	743	1	Ⴃ	cut_ui_stereo_44KHz.wav
1	37	1	1	1	C	1	0	1282	0	Ⴂ	cut_ei_stereo_44KHz.wav
1	38	4	3	2	I	2	0	1007	1	Ⴜ	cut_ui_stereo_44KHz.wav
1	39	2	2	1	C	1	0	1306	0	Ⴡ	cut_oei_stereo_44KHz.wav
1	40	3	4	2	I	2	0	1315	1	Ⴃ	cut_n_stereo_44KHz.wav
1	41	1	2	0	C	1	1	1202	1	Ⴂ	cut_oei_stereo_44KHz.wav
1	42	2	1	0	C	2	0	815	0	Ⴡ	cut_ei_stereo_44KHz.wav
1	43	4	3	2	I	1	0	1077	1	Ⴜ	cut_ui_stereo_44KHz.wav
1	44	3	3	2	I	1	0	882	1	Ⴃ	cut_ui_stereo_44KHz.wav
1	45	4	4	2	I	0	0	0	0	Ⴜ	cut_n_stereo_44KHz.wav
1	46	1	1	1	C	1	0	870	0	Ⴂ	cut_ei_stereo_44KHz.wav
1	47	2	2	1	C	2	1	1810	1	Ⴡ	cut_oei_stereo_44KHz.wav
1	48	3	4	2	I	1	0	703	1	Ⴃ	cut_n_stereo_44KHz.wav
1	49	1	1	1	C	2	1	1147	1	Ⴂ	cut_ei_stereo_44KHz.wav
1	50	4	3	2	I	1	0	748	0	Ⴜ	cut_ui_stereo_44KHz.wav
1	51	3	3	2	I	2	0	676	1	Ⴃ	cut_ui_stereo_44KHz.wav
1	52	2	1	0	C	1	1	719	1	Ⴡ	cut_ei_stereo_44KHz.wav
1	53	1	2	0	C	2	0	527	0	Ⴂ	cut_oei_stereo_44KHz.wav
1	54	2	2	1	C	1	0	544	0	Ⴡ	cut_oei_stereo_44KHz.wav
1	55	3	4	2	I	1	0	490	1	Ⴃ	cut_n_stereo_44KHz.wav
1	56	4	4	2	I	2	0	458	0	Ⴜ	cut_n_stereo_44KHz.wav
1	57	3	4	2	I	1	0	536	1	Ⴃ	cut_n_stereo_44KHz.wav
1	58	4	4	2	I	1	0	288	1	Ⴜ	cut_n_stereo_44KHz.wav
1	59	1	1	1	C	2	1	369	1	Ⴂ	cut_ei_stereo_44KHz.wav
1	60	2	2	1	C	1	0	12	0	Ⴡ	cut_oei_stereo_44KHz.wav
1	61	1	2	0	C	2	0	1023	0	Ⴂ	cut_oei_stereo_44KHz.wav
1	62	3	3	2	I	1	0	570	0	Ⴃ	cut_ui_stereo_44KHz.wav
1	63	4	3	2	I	2	0	715	1	Ⴜ	cut_ui_stereo_44KHz.wav
1	64	2	1	0	C	2	0	278	0	Ⴡ	cut_ei_stereo_44KHz.wav
1	65	1	2	0	C	2	0	1415	0	Ⴂ	cut_oei_stereo_44KHz.wav
1	66	2	2	1	C	1	0	1347	0	Ⴡ	cut_oei_stereo_44KHz.wav
1	67	3	4	2	I	2	0	522	0	Ⴃ	cut_n_stereo_44KHz.wav
1	68	4	3	2	I	1	0	461	1	Ⴜ	cut_ui_stereo_44KHz.wav
1	69	1	1	1	C	1	0	584	0	Ⴂ	cut_ei_stereo_44KHz.wav
1	70	4	4	2	I	1	0	1549	1	Ⴜ	cut_n_stereo_44KHz.wav
1	71	2	1	0	C	1	1	540	1	Ⴡ	cut_ei_stereo_44KHz.wav
1	72	3	3	2	I	1	0	851	1	Ⴃ	cut_ui_stereo_44KHz.wav
1	73	2	1	0	C	1	1	1061	1	Ⴡ	cut_ei_stereo_44KHz.wav
1	74	4	3	2	I	1	0	442	1	Ⴜ	cut_ui_stereo_44KHz.wav
1	75	3	4	2	I	1	0	567	0	Ⴃ	cut_n_stereo_44KHz.wav
1	76	1	1	1	C	2	1	412	1	Ⴂ	cut_ei_stereo_44KHz.wav
1	77	4	4	2	I	2	0	424	1	Ⴜ	cut_n_stereo_44KHz.wav
1	78	3	3	2	I	2	0	554	1	Ⴃ	cut_ui_stereo_44KHz.wav
1	79	2	2	1	C	2	1	694	1	Ⴡ	cut_oei_stereo_44KHz.wav
1	80	1	2	0	C	2	0	539	0	Ⴂ	cut_oei_stereo_44KHz.wav
1	81	4	4	2	I	1	0	529	0	Ⴜ	cut_n_stereo_44KHz.wav
1	82	1	1	1	C	2	1	494	1	Ⴂ	cut_ei_stereo_44KHz.wav
1	83	3	3	2	I	2	0	250	1	Ⴃ	cut_ui_stereo_44KHz.wav
1	84	2	2	1	C	2	1	517	1	Ⴡ	cut_oei_stereo_44KHz.wav
1	85	3	4	2	I	2	0	798	1	Ⴃ	cut_n_stereo_44KHz.wav
1	86	1	2	0	C	2	0	666	0	Ⴂ	cut_oei_stereo_44KHz.wav
1	87	2	1	0	C	1	1	643	1	Ⴡ	cut_ei_stereo_44KHz.wav
1	88	4	3	2	I	1	0	828	1	Ⴜ	cut_ui_stereo_44KHz.wav
1	89	1	1	1	C	1	0	654	0	Ⴂ	cut_ei_stereo_44KHz.wav
1	90	3	4	2	I	2	0	702	1	Ⴃ	cut_n_stereo_44KHz.wav
1	91	2	2	1	C	2	1	920	1	Ⴡ	cut_oei_stereo_44KHz.wav
1	92	4	3	2	I	2	0	586	1	Ⴜ	cut_ui_stereo_44KHz.wav
1	93	1	2	0	C	1	1	655	1	Ⴂ	cut_oei_stereo_44KHz.wav
1	94	4	4	2	I	1	0	447	1	Ⴜ	cut_n_stereo_44KHz.wav
1	95	2	1	0	C	1	1	530	1	Ⴡ	cut_ei_stereo_44KHz.wav
1	96	3	3	2	I	0	0	0	0	Ⴃ	cut_ui_stereo_44KHz.wav
1	97	4	3	2	I	2	0	707	1	Ⴜ	cut_ui_stereo_44KHz.wav
1	98	3	3	2	I	1	0	448	1	Ⴃ	cut_ui_stereo_44KHz.wav
1	99	1	1	1	C	2	1	324	1	Ⴂ	cut_ei_stereo_44KHz.wav
1	100	2	1	0	C	1	1	411	1	Ⴡ	cut_ei_stereo_44KHz.wav
1	101	3	4	2	I	0	0	0	0	Ⴃ	cut_n_stereo_44KHz.wav
1	102	1	2	0	C	2	0	756	0	Ⴂ	cut_oei_stereo_44KHz.wav
1	103	4	4	2	I	1	0	406	1	Ⴜ	cut_n_stereo_44KHz.wav
1	104	2	2	1	C	1	0	871	0	Ⴡ	cut_oei_stereo_44KHz.wav
1	105	3	3	2	I	1	0	95	1	Ⴃ	cut_ui_stereo_44KHz.wav
1	106	4	4	2	I	2	0	957	1	Ⴜ	cut_n_stereo_44KHz.wav
1	107	1	2	0	C	0	0	0	0	Ⴂ	cut_oei_stereo_44KHz.wav
1	108	2	1	0	C	1	1	627	1	Ⴡ	cut_ei_stereo_44KHz.wav
1	109	4	3	2	I	1	0	389	1	Ⴜ	cut_ui_stereo_44KHz.wav
1	110	2	2	1	C	1	0	794	0	Ⴡ	cut_oei_stereo_44KHz.wav
1	111	3	4	2	I	2	0	455	1	Ⴃ	cut_n_stereo_44KHz.wav
1	112	1	1	1	C	2	1	527	1	Ⴂ	cut_ei_stereo_44KHz.wav
1	113	2	1	0	C	2	0	841	0	Ⴡ	cut_ei_stereo_44KHz.wav
1	114	4	4	2	I	1	0	1037	1	Ⴜ	cut_n_stereo_44KHz.wav
1	115	3	3	2	I	2	0	550	0	Ⴃ	cut_ui_stereo_44KHz.wav
1	116	1	2	0	C	1	1	526	1	Ⴂ	cut_oei_stereo_44KHz.wav
1	117	3	4	2	I	1	0	922	0	Ⴃ	cut_n_stereo_44KHz.wav
1	118	2	2	1	C	2	1	455	1	Ⴡ	cut_oei_stereo_44KHz.wav
1	119	1	1	1	C	2	1	558	1	Ⴂ	cut_ei_stereo_44KHz.wav
1	120	4	3	2	I	2	0	1157	1	Ⴜ	cut_ui_stereo_44KHz.wav
1	121	2	1	0	C	2	0	559	0	Ⴡ	cut_ei_stereo_44KHz.wav
1	122	4	3	2	I	1	0	645	1	Ⴜ	cut_ui_stereo_44KHz.wav
1	123	3	3	2	I	1	0	912	1	Ⴃ	cut_ui_stereo_44KHz.wav
1	124	1	2	0	C	1	1	617	1	Ⴂ	cut_oei_stereo_44KHz.wav
1	125	4	4	2	I	1	0	918	1	Ⴜ	cut_n_stereo_44KHz.wav
1	126	3	4	2	I	1	0	797	1	Ⴃ	cut_n_stereo_44KHz.wav
1	127	1	1	1	C	1	0	1189	0	Ⴂ	cut_ei_stereo_44KHz.wav
1	128	2	2	1	C	2	1	1014	1	Ⴡ	cut_oei_stereo_44KHz.wav
1	129	4	4	2	I	2	0	1141	1	Ⴜ	cut_n_stereo_44KHz.wav
1	130	2	2	1	C	2	1	634	1	Ⴡ	cut_oei_stereo_44KHz.wav
1	131	3	3	2	I	2	0	690	1	Ⴃ	cut_ui_stereo_44KHz.wav
1	132	1	1	1	C	2	1	1460	1	Ⴂ	cut_ei_stereo_44KHz.wav
1	133	3	4	2	I	1	0	1199	1	Ⴃ	cut_n_stereo_44KHz.wav
1	134	2	1	0	C	2	0	894	0	Ⴡ	cut_ei_stereo_44KHz.wav
1	135	4	3	2	I	2	0	405	0	Ⴜ	cut_ui_stereo_44KHz.wav
1	136	1	2	0	C	1	1	583	1	Ⴂ	cut_oei_stereo_44KHz.wav
1	137	4	3	2	I	1	0	1039	1	Ⴜ	cut_ui_stereo_44KHz.wav
1	138	2	2	1	C	1	0	1460	0	Ⴡ	cut_oei_stereo_44KHz.wav
1	139	1	1	1	C	2	1	665	1	Ⴂ	cut_ei_stereo_44KHz.wav
1	140	3	3	2	I	2	0	1137	1	Ⴃ	cut_ui_stereo_44KHz.wav
1	141	1	2	0	C	2	0	455	0	Ⴂ	cut_oei_stereo_44KHz.wav
1	142	3	4	2	I	1	0	914	0	Ⴃ	cut_n_stereo_44KHz.wav
1	143	2	1	0	C	2	0	389	0	Ⴡ	cut_ei_stereo_44KHz.wav
1	144	4	4	2	I	1	0	969	1	Ⴜ	cut_n_stereo_44KHz.wav
1	145	3	3	2	I	2	0	558	1	Ⴃ	cut_ui_stereo_44KHz.wav
1	146	2	2	1	C	1	0	1072	0	Ⴡ	cut_oei_stereo_44KHz.wav
1	147	4	4	2	I	2	0	834	0	Ⴜ	cut_n_stereo_44KHz.wav
1	148	1	2	0	C	1	1	418	1	Ⴂ	cut_oei_stereo_44KHz.wav
1	149	3	4	2	I	2	0	621	1	Ⴃ	cut_n_stereo_44KHz.wav
1	150	2	1	0	C	1	1	753	1	Ⴡ	cut_ei_stereo_44KHz.wav
1	151	4	3	2	I	1	0	652	1	Ⴜ	cut_ui_stereo_44KHz.wav
1	152	1	1	1	C	1	0	686	0	Ⴂ	cut_ei_stereo_44KHz.wav
1	153	3	3	2	I	1	0	680	1	Ⴃ	cut_ui_stereo_44KHz.wav
1	154	1	2	0	C	2	0	675	0	Ⴂ	cut_oei_stereo_44KHz.wav
1	155	4	4	2	I	2	0	740	1	Ⴜ	cut_n_stereo_44KHz.wav
1	156	2	1	0	C	2	0	767	0	Ⴡ	cut_ei_stereo_44KHz.wav
1	157	3	4	2	I	2	0	474	0	Ⴃ	cut_n_stereo_44KHz.wav
1	158	2	2	1	C	1	0	508	0	Ⴡ	cut_oei_stereo_44KHz.wav
1	159	1	1	1	C	2	1	29	1	Ⴂ	cut_ei_stereo_44KHz.wav
1	160	4	3	2	I	1	0	597	1	Ⴜ	cut_ui_stereo_44KHz.wav
1	161	1	2	0	C	2	0	637	0	Ⴂ	cut_oei_stereo_44KHz.wav
1	162	3	4	2	I	2	0	756	1	Ⴃ	cut_n_stereo_44KHz.wav
1	163	4	3	2	I	1	0	738	1	Ⴜ	cut_ui_stereo_44KHz.wav
1	164	2	2	1	C	2	1	756	1	Ⴡ	cut_oei_stereo_44KHz.wav
1	165	3	3	2	I	1	0	573	1	Ⴃ	cut_ui_stereo_44KHz.wav
1	166	1	1	1	C	0	0	0	0	Ⴂ	cut_ei_stereo_44KHz.wav
1	167	4	4	2	I	2	0	759	0	Ⴜ	cut_n_stereo_44KHz.wav
1	168	2	1	0	C	2	0	610	0	Ⴡ	cut_ei_stereo_44KHz.wav
1	169	4	3	2	I	1	0	621	1	Ⴜ	cut_ui_stereo_44KHz.wav
1	170	3	3	2	I	1	0	773	1	Ⴃ	cut_ui_stereo_44KHz.wav
1	171	2	2	1	C	0	0	0	0	Ⴡ	cut_oei_stereo_44KHz.wav
1	172	1	1	1	C	2	1	957	1	Ⴂ	cut_ei_stereo_44KHz.wav
1	173	4	4	2	I	0	0	0	0	Ⴜ	cut_n_stereo_44KHz.wav
1	174	2	1	0	C	2	0	1659	0	Ⴡ	cut_ei_stereo_44KHz.wav
1	175	3	4	2	I	2	0	710	1	Ⴃ	cut_n_stereo_44KHz.wav
1	176	1	2	0	C	2	0	1125	0	Ⴂ	cut_oei_stereo_44KHz.wav
1	177	2	1	0	C	0	0	0	0	Ⴡ	cut_ei_stereo_44KHz.wav
1	178	4	4	2	I	1	0	147	1	Ⴜ	cut_n_stereo_44KHz.wav
1	179	3	4	2	I	1	0	1076	1	Ⴃ	cut_n_stereo_44KHz.wav
1	180	1	1	1	C	1	0	241	0	Ⴂ	cut_ei_stereo_44KHz.wav
1	181	3	3	2	I	2	0	690	1	Ⴃ	cut_ui_stereo_44KHz.wav
1	182	1	2	0	C	1	1	510	1	Ⴂ	cut_oei_stereo_44KHz.wav
1	183	2	2	1	C	2	1	625	1	Ⴡ	cut_oei_stereo_44KHz.wav
1	184	4	3	2	I	1	0	337	1	Ⴜ	cut_ui_stereo_44KHz.wav
1	185	2	2	1	C	2	1	824	1	Ⴡ	cut_oei_stereo_44KHz.wav
1	186	4	3	2	I	1	0	687	1	Ⴜ	cut_ui_stereo_44KHz.wav
1	187	3	4	2	I	2	0	1018	0	Ⴃ	cut_n_stereo_44KHz.wav
1	188	1	1	1	C	1	0	603	0	Ⴂ	cut_ei_stereo_44KHz.wav
1	189	4	4	2	I	2	0	188	0	Ⴜ	cut_n_stereo_44KHz.wav
1	190	2	1	0	C	2	0	722	0	Ⴡ	cut_ei_stereo_44KHz.wav
1	191	1	2	0	C	1	1	1070	1	Ⴂ	cut_oei_stereo_44KHz.wav
1	192	3	3	2	I	1	0	646	0	Ⴃ	cut_ui_stereo_44KHz.wav
1	193	2	2	1	C	2	1	614	1	Ⴡ	cut_oei_stereo_44KHz.wav
1	194	1	1	1	C	2	1	348	1	Ⴂ	cut_ei_stereo_44KHz.wav
1	195	4	4	2	I	2	0	383	1	Ⴜ	cut_n_stereo_44KHz.wav
1	196	3	3	2	I	2	0	884	1	Ⴃ	cut_ui_stereo_44KHz.wav
1	197	4	3	2	I	2	0	1012	1	Ⴜ	cut_ui_stereo_44KHz.wav
1	198	2	1	0	C	2	0	1082	0	Ⴡ	cut_ei_stereo_44KHz.wav
1	199	3	4	2	I	1	0	718	1	Ⴃ	cut_n_stereo_44KHz.wav
1	200	1	2	0	C	2	0	842	0	Ⴂ	cut_oei_stereo_44KHz.wav
2	1	2	1	0	C	1	1	961	1	Ⴔ	cut_r_stereo_44KHz.wav
2	2	3	3	2	I	2	0	1535	1	Ⴖ	cut_j_stereo_44KHz.wav
2	3	1	1	1	C	2	1	930	1	Ⴒ	cut_r_stereo_44KHz.wav
2	4	4	4	2	I	1	0	883	0	Ⴌ	cut_s_stereo_44KHz.wav
2	5	3	4	2	I	2	0	1001	1	Ⴖ	cut_s_stereo_44KHz.wav
2	6	4	3	2	I	1	0	907	1	Ⴌ	cut_j_stereo_44KHz.wav
2	7	2	2	1	C	2	1	679	1	Ⴔ	cut_f_stereo_44KHz.wav
2	8	1	2	0	C	2	0	834	0	Ⴒ	cut_f_stereo_44KHz.wav
2	9	3	3	2	I	2	0	1110	1	Ⴖ	cut_j_stereo_44KHz.wav
2	10	2	2	1	C	2	1	826	1	Ⴔ	cut_f_stereo_44KHz.wav
2	11	4	3	2	I	2	0	1548	1	Ⴌ	cut_j_stereo_44KHz.wav
2	12	1	2	0	C	2	0	705	0	Ⴒ	cut_f_stereo_44KHz.wav
2	13	2	1	0	C	1	1	1302	1	Ⴔ	cut_r_stereo_44KHz.wav
2	14	4	4	2	I	1	0	669	1	Ⴌ	cut_s_stereo_44KHz.wav
2	15	3	4	2	I	1	0	613	0	Ⴖ	cut_s_stereo_44KHz.wav
2	16	1	1	1	C	2	1	1901	1	Ⴒ	cut_r_stereo_44KHz.wav
2	17	4	4	2	I	1	0	1119	1	Ⴌ	cut_s_stereo_44KHz.wav
2	18	3	4	2	I	2	0	1083	1	Ⴖ	cut_s_stereo_44KHz.wav
2	19	1	2	0	C	1	1	1463	1	Ⴒ	cut_f_stereo_44KHz.wav
2	20	2	1	0	C	2	0	1589	0	Ⴔ	cut_r_stereo_44KHz.wav
2	21	1	1	1	C	1	0	1392	0	Ⴒ	cut_r_stereo_44KHz.wav
2	22	4	3	2	I	1	0	31	1	Ⴌ	cut_j_stereo_44KHz.wav
2	23	3	3	2	I	0	0	0	0	Ⴖ	cut_j_stereo_44KHz.wav
2	24	2	2	1	C	0	0	0	0	Ⴔ	cut_f_stereo_44KHz.wav
2	25	1	1	1	C	2	1	815	1	Ⴒ	cut_r_stereo_44KHz.wav
2	26	2	2	1	C	1	0	885	0	Ⴔ	cut_f_stereo_44KHz.wav
2	27	3	3	2	I	2	0	1332	1	Ⴖ	cut_j_stereo_44KHz.wav
2	28	4	3	2	I	2	0	1274	1	Ⴌ	cut_j_stereo_44KHz.wav
2	29	1	2	0	C	1	1	965	1	Ⴒ	cut_f_stereo_44KHz.wav
2	30	3	4	2	I	2	0	896	1	Ⴖ	cut_s_stereo_44KHz.wav
2	31	2	1	0	C	2	0	893	0	Ⴔ	cut_r_stereo_44KHz.wav
2	32	4	4	2	I	2	0	1038	1	Ⴌ	cut_s_stereo_44KHz.wav
2	33	1	1	1	C	1	0	1110	0	Ⴒ	cut_r_stereo_44KHz.wav
2	34	3	3	2	I	2	0	1083	1	Ⴖ	cut_j_stereo_44KHz.wav
2	35	4	3	2	I	0	0	0	0	Ⴌ	cut_j_stereo_44KHz.wav
2	36	2	2	1	C	2	1	802	1	Ⴔ	cut_f_stereo_44KHz.wav
2	37	3	4	2	I	2	0	687	1	Ⴖ	cut_s_stereo_44KHz.wav
2	38	4	4	2	I	2	0	675	1	Ⴌ	cut_s_stereo_44KHz.wav
2	39	2	1	0	C	1	1	1540	1	Ⴔ	cut_r_stereo_44KHz.wav
2	40	1	2	0	C	2	0	938	0	Ⴒ	cut_f_stereo_44KHz.wav
2	41	4	3	2	I	2	0	1195	1	Ⴌ	cut_j_stereo_44KHz.wav
2	42	2	2	1	C	2	1	946	1	Ⴔ	cut_f_stereo_44KHz.wav
2	43	1	1	1	C	2	1	1109	1	Ⴒ	cut_r_stereo_44KHz.wav
2	44	3	4	2	I	2	0	776	1	Ⴖ	cut_s_stereo_44KHz.wav
2	45	1	2	0	C	2	0	1561	0	Ⴒ	cut_f_stereo_44KHz.wav
2	46	3	3	2	I	1	0	619	1	Ⴖ	cut_j_stereo_44KHz.wav
2	47	4	4	2	I	2	0	1235	0	Ⴌ	cut_s_stereo_44KHz.wav
2	48	2	1	0	C	2	0	1300	0	Ⴔ	cut_r_stereo_44KHz.wav
2	49	4	4	2	I	1	0	653	1	Ⴌ	cut_s_stereo_44KHz.wav
2	50	3	4	2	I	2	0	1298	1	Ⴖ	cut_s_stereo_44KHz.wav
2	51	1	2	0	C	1	1	1544	1	Ⴒ	cut_f_stereo_44KHz.wav
2	52	2	1	0	C	2	0	767	0	Ⴔ	cut_r_stereo_44KHz.wav
2	53	1	1	1	C	1	0	861	0	Ⴒ	cut_r_stereo_44KHz.wav
2	54	2	2	1	C	2	1	671	1	Ⴔ	cut_f_stereo_44KHz.wav
2	55	3	3	2	I	2	0	621	0	Ⴖ	cut_j_stereo_44KHz.wav
2	56	4	3	2	I	1	0	777	1	Ⴌ	cut_j_stereo_44KHz.wav
2	57	1	2	0	C	1	1	626	1	Ⴒ	cut_f_stereo_44KHz.wav
2	58	2	1	0	C	2	0	835	0	Ⴔ	cut_r_stereo_44KHz.wav
2	59	4	3	2	I	2	0	574	1	Ⴌ	cut_j_stereo_44KHz.wav
2	60	3	3	2	I	2	0	650	1	Ⴖ	cut_j_stereo_44KHz.wav
2	61	1	1	1	C	2	1	817	1	Ⴒ	cut_r_stereo_44KHz.wav
2	62	3	4	2	I	2	0	1297	1	Ⴖ	cut_s_stereo_44KHz.wav
2	63	4	4	2	I	1	0	1074	1	Ⴌ	cut_s_stereo_44KHz.wav
2	64	2	2	1	C	1	0	1260	0	Ⴔ	cut_f_stereo_44KHz.wav
2	65	3	4	2	I	2	0	1318	0	Ⴖ	cut_s_stereo_44KHz.wav
2	66	4	3	2	I	1	0	954	1	Ⴌ	cut_j_stereo_44KHz.wav
2	67	2	2	1	C	2	1	918	1	Ⴔ	cut_f_stereo_44KHz.wav
2	68	1	1	1	C	2	1	889	1	Ⴒ	cut_r_stereo_44KHz.wav
2	69	4	4	2	I	2	0	688	1	Ⴌ	cut_s_stereo_44KHz.wav
2	70	1	2	0	C	2	0	1222	0	Ⴒ	cut_f_stereo_44KHz.wav
2	71	3	3	2	I	2	0	725	1	Ⴖ	cut_j_stereo_44KHz.wav
2	72	2	1	0	C	2	0	805	0	Ⴔ	cut_r_stereo_44KHz.wav
2	73	4	4	2	I	1	0	738	1	Ⴌ	cut_s_stereo_44KHz.wav
2	74	3	3	2	I	1	0	836	0	Ⴖ	cut_j_stereo_44KHz.wav
2	75	2	2	1	C	1	0	957	0	Ⴔ	cut_f_stereo_44KHz.wav
2	76	1	1	1	C	2	1	641	1	Ⴒ	cut_r_stereo_44KHz.wav
2	77	3	4	2	I	2	0	1232	0	Ⴖ	cut_s_stereo_44KHz.wav
2	78	1	2	0	C	1	1	814	1	Ⴒ	cut_f_stereo_44KHz.wav
2	79	2	1	0	C	1	1	729	1	Ⴔ	cut_r_stereo_44KHz.wav
2	80	4	3	2	I	1	0	1089	1	Ⴌ	cut_j_stereo_44KHz.wav
2	81	2	1	0	C	1	1	1213	1	Ⴔ	cut_r_stereo_44KHz.wav
2	82	3	3	2	I	1	0	1270	1	Ⴖ	cut_j_stereo_44KHz.wav
2	83	1	2	0	C	1	1	606	1	Ⴒ	cut_f_stereo_44KHz.wav
2	84	4	4	2	I	2	0	708	1	Ⴌ	cut_s_stereo_44KHz.wav
2	85	2	2	1	C	2	1	764	1	Ⴔ	cut_f_stereo_44KHz.wav
2	86	4	3	2	I	2	0	745	1	Ⴌ	cut_j_stereo_44KHz.wav
2	87	3	4	2	I	2	0	610	1	Ⴖ	cut_s_stereo_44KHz.wav
2	88	1	1	1	C	2	1	1030	1	Ⴒ	cut_r_stereo_44KHz.wav
2	89	4	3	2	I	2	0	806	0	Ⴌ	cut_j_stereo_44KHz.wav
2	90	1	1	1	C	1	0	686	0	Ⴒ	cut_r_stereo_44KHz.wav
2	91	2	1	0	C	2	0	634	0	Ⴔ	cut_r_stereo_44KHz.wav
2	92	3	3	2	I	1	0	1185	1	Ⴖ	cut_j_stereo_44KHz.wav
2	93	4	4	2	I	1	0	832	1	Ⴌ	cut_s_stereo_44KHz.wav
2	94	3	4	2	I	1	0	769	1	Ⴖ	cut_s_stereo_44KHz.wav
2	95	1	2	0	C	1	1	1097	1	Ⴒ	cut_f_stereo_44KHz.wav
2	96	2	2	1	C	1	0	727	0	Ⴔ	cut_f_stereo_44KHz.wav
2	97	3	4	2	I	2	0	586	1	Ⴖ	cut_s_stereo_44KHz.wav
2	98	2	1	0	C	2	0	830	0	Ⴔ	cut_r_stereo_44KHz.wav
2	99	1	2	0	C	2	0	1117	0	Ⴒ	cut_f_stereo_44KHz.wav
2	100	4	3	2	I	1	0	712	1	Ⴌ	cut_j_stereo_44KHz.wav
2	101	2	2	1	C	1	0	801	0	Ⴔ	cut_f_stereo_44KHz.wav
2	102	3	3	2	I	2	0	729	1	Ⴖ	cut_j_stereo_44KHz.wav
2	103	1	1	1	C	2	1	926	1	Ⴒ	cut_r_stereo_44KHz.wav
2	104	4	4	2	I	2	0	751	1	Ⴌ	cut_s_stereo_44KHz.wav
2	105	1	2	0	C	2	0	753	0	Ⴒ	cut_f_stereo_44KHz.wav
2	106	3	4	2	I	1	0	851	1	Ⴖ	cut_s_stereo_44KHz.wav
2	107	2	2	1	C	1	0	940	0	Ⴔ	cut_f_stereo_44KHz.wav
2	108	4	3	2	I	2	0	644	0	Ⴌ	cut_j_stereo_44KHz.wav
2	109	3	3	2	I	1	0	1395	1	Ⴖ	cut_j_stereo_44KHz.wav
2	110	1	1	1	C	1	0	825	0	Ⴒ	cut_r_stereo_44KHz.wav
2	111	4	4	2	I	1	0	501	1	Ⴌ	cut_s_stereo_44KHz.wav
2	112	2	1	0	C	1	1	782	1	Ⴔ	cut_r_stereo_44KHz.wav
2	113	1	2	0	C	1	1	788	1	Ⴒ	cut_f_stereo_44KHz.wav
2	114	4	4	2	I	1	0	1541	0	Ⴌ	cut_s_stereo_44KHz.wav
2	115	3	4	2	I	2	0	1154	0	Ⴖ	cut_s_stereo_44KHz.wav
2	116	2	2	1	C	1	0	747	0	Ⴔ	cut_f_stereo_44KHz.wav
2	117	4	3	2	I	2	0	472	0	Ⴌ	cut_j_stereo_44KHz.wav
2	118	1	1	1	C	2	1	562	1	Ⴒ	cut_r_stereo_44KHz.wav
2	119	2	1	0	C	2	0	749	0	Ⴔ	cut_r_stereo_44KHz.wav
2	120	3	3	2	I	1	0	603	1	Ⴖ	cut_j_stereo_44KHz.wav
2	121	4	4	2	I	0	0	0	0	Ⴌ	cut_s_stereo_44KHz.wav
2	122	1	1	1	C	1	0	948	0	Ⴒ	cut_r_stereo_44KHz.wav
2	123	2	2	1	C	2	1	745	1	Ⴔ	cut_f_stereo_44KHz.wav
2	124	3	3	2	I	2	0	990	1	Ⴖ	cut_j_stereo_44KHz.wav
2	125	1	2	0	C	2	0	1828	0	Ⴒ	cut_f_stereo_44KHz.wav
2	126	4	3	2	I	1	0	795	1	Ⴌ	cut_j_stereo_44KHz.wav
2	127	2	1	0	C	1	1	840	1	Ⴔ	cut_r_stereo_44KHz.wav
2	128	3	4	2	I	1	0	1353	1	Ⴖ	cut_s_stereo_44KHz.wav
2	129	1	2	0	C	1	1	1370	1	Ⴒ	cut_f_stereo_44KHz.wav
2	130	2	2	1	C	2	1	1081	1	Ⴔ	cut_f_stereo_44KHz.wav
2	131	3	3	2	I	1	0	1209	1	Ⴖ	cut_j_stereo_44KHz.wav
2	132	4	3	2	I	2	0	783	1	Ⴌ	cut_j_stereo_44KHz.wav
2	133	2	1	0	C	1	1	685	1	Ⴔ	cut_r_stereo_44KHz.wav
2	134	4	4	2	I	2	0	1319	1	Ⴌ	cut_s_stereo_44KHz.wav
2	135	3	4	2	I	1	0	679	1	Ⴖ	cut_s_stereo_44KHz.wav
2	136	1	1	1	C	1	0	1188	0	Ⴒ	cut_r_stereo_44KHz.wav
2	137	2	2	1	C	2	1	675	1	Ⴔ	cut_f_stereo_44KHz.wav
2	138	4	4	2	I	1	0	871	1	Ⴌ	cut_s_stereo_44KHz.wav
2	139	3	3	2	I	2	0	895	1	Ⴖ	cut_j_stereo_44KHz.wav
2	140	1	1	1	C	1	0	878	0	Ⴒ	cut_r_stereo_44KHz.wav
2	141	4	3	2	I	2	0	714	1	Ⴌ	cut_j_stereo_44KHz.wav
2	142	2	1	0	C	2	0	845	0	Ⴔ	cut_r_stereo_44KHz.wav
2	143	1	2	0	C	2	0	941	0	Ⴒ	cut_f_stereo_44KHz.wav
2	144	3	4	2	I	1	0	757	1	Ⴖ	cut_s_stereo_44KHz.wav
2	145	2	2	1	C	1	0	862	0	Ⴔ	cut_f_stereo_44KHz.wav
2	146	3	4	2	I	1	0	890	1	Ⴖ	cut_s_stereo_44KHz.wav
2	147	1	2	0	C	2	0	990	0	Ⴒ	cut_f_stereo_44KHz.wav
2	148	4	3	2	I	1	0	916	1	Ⴌ	cut_j_stereo_44KHz.wav
2	149	3	3	2	I	2	0	927	1	Ⴖ	cut_j_stereo_44KHz.wav
2	150	2	1	0	C	0	0	0	0	Ⴔ	cut_r_stereo_44KHz.wav
2	151	1	1	1	C	1	0	1792	0	Ⴒ	cut_r_stereo_44KHz.wav
2	152	4	4	2	I	0	0	0	0	Ⴌ	cut_s_stereo_44KHz.wav
2	153	2	2	1	C	2	1	765	1	Ⴔ	cut_f_stereo_44KHz.wav
2	154	1	1	1	C	2	1	630	1	Ⴒ	cut_r_stereo_44KHz.wav
2	155	3	3	2	I	1	0	1230	1	Ⴖ	cut_j_stereo_44KHz.wav
2	156	4	3	2	I	1	0	1225	1	Ⴌ	cut_j_stereo_44KHz.wav
2	157	1	2	0	C	1	1	1052	1	Ⴒ	cut_f_stereo_44KHz.wav
2	158	2	1	0	C	1	1	946	1	Ⴔ	cut_r_stereo_44KHz.wav
2	159	4	4	2	I	1	0	970	1	Ⴌ	cut_s_stereo_44KHz.wav
2	160	3	4	2	I	1	0	1241	1	Ⴖ	cut_s_stereo_44KHz.wav
2	161	2	1	0	C	1	1	1352	1	Ⴔ	cut_r_stereo_44KHz.wav
2	162	3	3	2	I	1	0	1037	1	Ⴖ	cut_j_stereo_44KHz.wav
2	163	1	1	1	C	1	0	1172	0	Ⴒ	cut_r_stereo_44KHz.wav
2	164	4	4	2	I	2	0	732	1	Ⴌ	cut_s_stereo_44KHz.wav
2	165	2	2	1	C	2	1	950	1	Ⴔ	cut_f_stereo_44KHz.wav
2	166	3	4	2	I	2	0	1038	0	Ⴖ	cut_s_stereo_44KHz.wav
2	167	1	2	0	C	2	0	1250	0	Ⴒ	cut_f_stereo_44KHz.wav
2	168	4	3	2	I	1	0	616	1	Ⴌ	cut_j_stereo_44KHz.wav
2	169	1	2	0	C	1	1	1665	1	Ⴒ	cut_f_stereo_44KHz.wav
2	170	2	2	1	C	2	1	1093	1	Ⴔ	cut_f_stereo_44KHz.wav
2	171	3	4	2	I	1	0	858	0	Ⴖ	cut_s_stereo_44KHz.wav
2	172	4	3	2	I	2	0	846	1	Ⴌ	cut_j_stereo_44KHz.wav
2	173	2	1	0	C	1	1	900	1	Ⴔ	cut_r_stereo_44KHz.wav
2	174	4	4	2	I	2	0	920	1	Ⴌ	cut_s_stereo_44KHz.wav
2	175	3	3	2	I	1	0	1400	1	Ⴖ	cut_j_stereo_44KHz.wav
2	176	1	1	1	C	2	1	698	1	Ⴒ	cut_r_stereo_44KHz.wav
2	177	4	4	2	I	2	0	1586	0	Ⴌ	cut_s_stereo_44KHz.wav
2	178	2	2	1	C	1	0	1486	0	Ⴔ	cut_f_stereo_44KHz.wav
2	179	1	1	1	C	0	0	0	0	Ⴒ	cut_r_stereo_44KHz.wav
2	180	3	3	2	I	2	0	1492	0	Ⴖ	cut_j_stereo_44KHz.wav
2	181	4	3	2	I	2	0	905	1	Ⴌ	cut_j_stereo_44KHz.wav
2	182	1	2	0	C	2	0	782	0	Ⴒ	cut_f_stereo_44KHz.wav
2	183	2	1	0	C	1	1	1154	1	Ⴔ	cut_r_stereo_44KHz.wav
2	184	3	4	2	I	1	0	678	1	Ⴖ	cut_s_stereo_44KHz.wav
2	185	1	1	1	C	2	1	1112	1	Ⴒ	cut_r_stereo_44KHz.wav
2	186	3	4	2	I	1	0	1167	1	Ⴖ	cut_s_stereo_44KHz.wav
2	187	2	1	0	C	2	0	1276	0	Ⴔ	cut_r_stereo_44KHz.wav
2	188	4	3	2	I	0	0	0	0	Ⴌ	cut_j_stereo_44KHz.wav
2	189	1	2	0	C	2	0	982	0	Ⴒ	cut_f_stereo_44KHz.wav
2	190	4	4	2	I	1	0	1304	1	Ⴌ	cut_s_stereo_44KHz.wav
2	191	3	3	2	I	1	0	857	0	Ⴖ	cut_j_stereo_44KHz.wav
2	192	2	2	1	C	1	0	1151	0	Ⴔ	cut_f_stereo_44KHz.wav
2	193	3	3	2	I	1	0	1521	1	Ⴖ	cut_j_stereo_44KHz.wav
2	194	2	1	0	C	1	1	1485	1	Ⴔ	cut_r_stereo_44KHz.wav
2	195	1	1	1	C	1	0	726	0	Ⴒ	cut_r_stereo_44KHz.wav
2	196	4	3	2	I	2	0	1044	1	Ⴌ	cut_j_stereo_44KHz.wav
2	197	2	2	1	C	2	1	1282	1	Ⴔ	cut_f_stereo_44KHz.wav
2	198	1	2	0	C	2	0	983	0	Ⴒ	cut_f_stereo_44KHz.wav
2	199	3	4	2	I	1	0	707	1	Ⴖ	cut_s_stereo_44KHz.wav
2	200	4	4	2	I	2	0	1348	1	Ⴌ	cut_s_stereo_44KHz.wav
3	1	4	3	2	I	2	0	760	0	Ⴉ	cut_o_stereo_44KHz.wav
3	2	3	4	2	I	2	0	782	1	Ⴐ	cut_k_stereo_44KHz.wav
3	3	2	1	0	C	2	0	911	0	Ⴏ	cut_a_stereo_44KHz.wav
3	4	1	1	1	C	2	1	803	1	Ⴕ	cut_a_stereo_44KHz.wav
3	5	3	3	2	I	2	0	1408	0	Ⴐ	cut_o_stereo_44KHz.wav
3	6	1	2	0	C	2	0	914	0	Ⴕ	cut_u_stereo_44KHz.wav
3	7	2	2	1	C	2	1	774	1	Ⴏ	cut_u_stereo_44KHz.wav
3	8	4	4	2	I	1	0	933	1	Ⴉ	cut_k_stereo_44KHz.wav
3	9	1	2	0	C	2	0	921	0	Ⴕ	cut_u_stereo_44KHz.wav
3	10	3	4	2	I	1	0	992	1	Ⴐ	cut_k_stereo_44KHz.wav
3	11	2	2	1	C	1	0	1239	0	Ⴏ	cut_u_stereo_44KHz.wav
3	12	4	3	2	I	2	0	1230	0	Ⴉ	cut_o_stereo_44KHz.wav
3	13	2	1	0	C	1	1	1290	1	Ⴏ	cut_a_stereo_44KHz.wav
3	14	4	4	2	I	2	0	795	1	Ⴉ	cut_k_stereo_44KHz.wav
3	15	1	1	1	C	2	1	924	1	Ⴕ	cut_a_stereo_44KHz.wav
3	16	3	3	2	I	1	0	856	1	Ⴐ	cut_o_stereo_44KHz.wav
3	17	1	2	0	C	1	1	931	1	Ⴕ	cut_u_stereo_44KHz.wav
3	18	3	3	2	I	2	0	1824	1	Ⴐ	cut_o_stereo_44KHz.wav
3	19	2	2	1	C	2	1	932	1	Ⴏ	cut_u_stereo_44KHz.wav
3	20	4	4	2	I	1	0	998	0	Ⴉ	cut_k_stereo_44KHz.wav
3	21	3	4	2	I	2	0	934	1	Ⴐ	cut_k_stereo_44KHz.wav
3	22	1	1	1	C	2	1	857	1	Ⴕ	cut_a_stereo_44KHz.wav
3	23	2	1	0	C	2	0	786	0	Ⴏ	cut_a_stereo_44KHz.wav
3	24	4	3	2	I	1	0	825	1	Ⴉ	cut_o_stereo_44KHz.wav
3	25	1	2	0	C	2	0	796	0	Ⴕ	cut_u_stereo_44KHz.wav
3	26	3	4	2	I	2	0	838	1	Ⴐ	cut_k_stereo_44KHz.wav
3	27	2	1	0	C	1	1	753	1	Ⴏ	cut_a_stereo_44KHz.wav
3	28	4	3	2	I	1	0	1123	1	Ⴉ	cut_o_stereo_44KHz.wav
3	29	1	1	1	C	2	1	1054	1	Ⴕ	cut_a_stereo_44KHz.wav
3	30	4	4	2	I	2	0	1443	1	Ⴉ	cut_k_stereo_44KHz.wav
3	31	2	2	1	C	1	0	1199	0	Ⴏ	cut_u_stereo_44KHz.wav
3	32	3	3	2	I	2	0	1304	1	Ⴐ	cut_o_stereo_44KHz.wav
3	33	2	2	1	C	2	1	1021	1	Ⴏ	cut_u_stereo_44KHz.wav
3	34	1	1	1	C	2	1	960	1	Ⴕ	cut_a_stereo_44KHz.wav
3	35	4	3	2	I	1	0	808	1	Ⴉ	cut_o_stereo_44KHz.wav
3	36	3	3	2	I	1	0	886	1	Ⴐ	cut_o_stereo_44KHz.wav
3	37	4	4	2	I	2	0	1001	0	Ⴉ	cut_k_stereo_44KHz.wav
3	38	3	4	2	I	2	0	1059	1	Ⴐ	cut_k_stereo_44KHz.wav
3	39	2	1	0	C	1	1	1050	1	Ⴏ	cut_a_stereo_44KHz.wav
3	40	1	2	0	C	2	0	1002	0	Ⴕ	cut_u_stereo_44KHz.wav
3	41	2	1	0	C	1	1	1240	1	Ⴏ	cut_a_stereo_44KHz.wav
3	42	1	2	0	C	2	0	1059	0	Ⴕ	cut_u_stereo_44KHz.wav
3	43	4	3	2	I	1	0	1169	1	Ⴉ	cut_o_stereo_44KHz.wav
3	44	3	4	2	I	2	0	1038	1	Ⴐ	cut_k_stereo_44KHz.wav
3	45	4	4	2	I	2	0	1240	1	Ⴉ	cut_k_stereo_44KHz.wav
3	46	2	2	1	C	2	1	1430	1	Ⴏ	cut_u_stereo_44KHz.wav
3	47	3	3	2	I	2	0	1258	1	Ⴐ	cut_o_stereo_44KHz.wav
3	48	1	1	1	C	2	1	1583	1	Ⴕ	cut_a_stereo_44KHz.wav
3	49	2	2	1	C	2	1	982	1	Ⴏ	cut_u_stereo_44KHz.wav
3	50	3	4	2	I	0	0	0	0	Ⴐ	cut_k_stereo_44KHz.wav
3	51	4	4	2	I	2	0	1007	1	Ⴉ	cut_k_stereo_44KHz.wav
3	52	1	2	0	C	1	1	1183	1	Ⴕ	cut_u_stereo_44KHz.wav
3	53	3	3	2	I	0	0	0	0	Ⴐ	cut_o_stereo_44KHz.wav
3	54	4	3	2	I	1	0	993	1	Ⴉ	cut_o_stereo_44KHz.wav
3	55	2	1	0	C	1	1	979	1	Ⴏ	cut_a_stereo_44KHz.wav
3	56	1	1	1	C	2	1	1168	1	Ⴕ	cut_a_stereo_44KHz.wav
3	57	3	3	2	I	0	0	0	0	Ⴐ	cut_o_stereo_44KHz.wav
3	58	4	4	2	I	1	0	1123	1	Ⴉ	cut_k_stereo_44KHz.wav
3	59	2	1	0	C	1	1	984	1	Ⴏ	cut_a_stereo_44KHz.wav
3	60	1	2	0	C	2	0	1372	0	Ⴕ	cut_u_stereo_44KHz.wav
3	61	3	4	2	I	1	0	1477	0	Ⴐ	cut_k_stereo_44KHz.wav
3	62	4	3	2	I	1	0	1190	1	Ⴉ	cut_o_stereo_44KHz.wav
3	63	2	2	1	C	2	1	1081	1	Ⴏ	cut_u_stereo_44KHz.wav
3	64	1	1	1	C	0	0	0	0	Ⴕ	cut_a_stereo_44KHz.wav
3	65	2	2	1	C	0	0	0	0	Ⴏ	cut_u_stereo_44KHz.wav
3	66	1	1	1	C	0	0	0	0	Ⴕ	cut_a_stereo_44KHz.wav
3	67	3	3	2	I	2	0	1037	0	Ⴐ	cut_o_stereo_44KHz.wav
3	68	4	4	2	I	1	0	982	1	Ⴉ	cut_k_stereo_44KHz.wav
3	69	2	1	0	C	1	1	1274	1	Ⴏ	cut_a_stereo_44KHz.wav
3	70	1	2	0	C	2	0	919	0	Ⴕ	cut_u_stereo_44KHz.wav
3	71	3	4	2	I	1	0	1635	1	Ⴐ	cut_k_stereo_44KHz.wav
3	72	4	3	2	I	1	0	918	1	Ⴉ	cut_o_stereo_44KHz.wav
3	73	2	1	0	C	2	0	1013	0	Ⴏ	cut_a_stereo_44KHz.wav
3	74	3	3	2	I	1	0	1343	1	Ⴐ	cut_o_stereo_44KHz.wav
3	75	4	4	2	I	2	0	819	1	Ⴉ	cut_k_stereo_44KHz.wav
3	76	1	1	1	C	2	1	1554	1	Ⴕ	cut_a_stereo_44KHz.wav
3	77	4	3	2	I	2	0	851	1	Ⴉ	cut_o_stereo_44KHz.wav
3	78	2	2	1	C	2	1	1232	1	Ⴏ	cut_u_stereo_44KHz.wav
3	79	3	4	2	I	0	0	0	0	Ⴐ	cut_k_stereo_44KHz.wav
3	80	1	2	0	C	2	0	1489	0	Ⴕ	cut_u_stereo_44KHz.wav
3	81	2	1	0	C	1	1	752	1	Ⴏ	cut_a_stereo_44KHz.wav
3	82	1	1	1	C	1	0	775	0	Ⴕ	cut_a_stereo_44KHz.wav
3	83	4	3	2	I	1	0	885	1	Ⴉ	cut_o_stereo_44KHz.wav
3	84	3	3	2	I	2	0	1284	1	Ⴐ	cut_o_stereo_44KHz.wav
3	85	1	2	0	C	2	0	916	0	Ⴕ	cut_u_stereo_44KHz.wav
3	86	3	4	2	I	2	0	1021	1	Ⴐ	cut_k_stereo_44KHz.wav
3	87	4	4	2	I	1	0	720	1	Ⴉ	cut_k_stereo_44KHz.wav
3	88	2	2	1	C	2	1	876	1	Ⴏ	cut_u_stereo_44KHz.wav
3	89	1	2	0	C	1	1	793	1	Ⴕ	cut_u_stereo_44KHz.wav
3	90	3	3	2	I	1	0	890	0	Ⴐ	cut_o_stereo_44KHz.wav
3	91	2	2	1	C	2	1	1131	1	Ⴏ	cut_u_stereo_44KHz.wav
3	92	4	3	2	I	1	0	1171	1	Ⴉ	cut_o_stereo_44KHz.wav
3	93	1	1	1	C	2	1	999	1	Ⴕ	cut_a_stereo_44KHz.wav
3	94	3	4	2	I	2	0	852	1	Ⴐ	cut_k_stereo_44KHz.wav
3	95	2	1	0	C	1	1	1172	1	Ⴏ	cut_a_stereo_44KHz.wav
3	96	4	4	2	I	1	0	621	1	Ⴉ	cut_k_stereo_44KHz.wav
3	97	2	2	1	C	1	0	719	0	Ⴏ	cut_u_stereo_44KHz.wav
3	98	4	4	2	I	2	0	711	1	Ⴉ	cut_k_stereo_44KHz.wav
3	99	1	1	1	C	2	1	820	1	Ⴕ	cut_a_stereo_44KHz.wav
3	100	3	3	2	I	2	0	716	0	Ⴐ	cut_o_stereo_44KHz.wav
3	101	2	1	0	C	2	0	854	0	Ⴏ	cut_a_stereo_44KHz.wav
3	102	3	4	2	I	1	0	714	1	Ⴐ	cut_k_stereo_44KHz.wav
3	103	1	2	0	C	1	1	911	1	Ⴕ	cut_u_stereo_44KHz.wav
3	104	4	3	2	I	1	0	720	1	Ⴉ	cut_o_stereo_44KHz.wav
3	105	1	1	1	C	2	1	843	1	Ⴕ	cut_a_stereo_44KHz.wav
3	106	3	3	2	I	2	0	1090	1	Ⴐ	cut_o_stereo_44KHz.wav
3	107	2	2	1	C	0	0	0	0	Ⴏ	cut_u_stereo_44KHz.wav
3	108	4	3	2	I	1	0	1240	1	Ⴉ	cut_o_stereo_44KHz.wav
3	109	1	2	0	C	2	0	1020	0	Ⴕ	cut_u_stereo_44KHz.wav
3	110	4	4	2	I	2	0	1068	1	Ⴉ	cut_k_stereo_44KHz.wav
3	111	2	1	0	C	2	0	1007	0	Ⴏ	cut_a_stereo_44KHz.wav
3	112	3	4	2	I	1	0	1201	1	Ⴐ	cut_k_stereo_44KHz.wav
3	113	2	2	1	C	1	0	1526	0	Ⴏ	cut_u_stereo_44KHz.wav
3	114	1	1	1	C	2	1	772	1	Ⴕ	cut_a_stereo_44KHz.wav
3	115	4	4	2	I	2	0	871	1	Ⴉ	cut_k_stereo_44KHz.wav
3	116	3	4	2	I	1	0	1839	0	Ⴐ	cut_k_stereo_44KHz.wav
3	117	2	1	0	C	2	0	835	0	Ⴏ	cut_a_stereo_44KHz.wav
3	118	1	2	0	C	1	1	777	1	Ⴕ	cut_u_stereo_44KHz.wav
3	119	3	3	2	I	2	0	1446	1	Ⴐ	cut_o_stereo_44KHz.wav
3	120	4	3	2	I	1	0	1345	1	Ⴉ	cut_o_stereo_44KHz.wav
3	121	1	2	0	C	1	1	780	1	Ⴕ	cut_u_stereo_44KHz.wav
3	122	4	3	2	I	1	0	877	1	Ⴉ	cut_o_stereo_44KHz.wav
3	123	2	2	1	C	2	1	1587	1	Ⴏ	cut_u_stereo_44KHz.wav
3	124	3	3	2	I	2	0	1056	1	Ⴐ	cut_o_stereo_44KHz.wav
3	125	1	1	1	C	1	0	1148	0	Ⴕ	cut_a_stereo_44KHz.wav
3	126	3	4	2	I	2	0	1002	1	Ⴐ	cut_k_stereo_44KHz.wav
3	127	2	1	0	C	1	1	956	1	Ⴏ	cut_a_stereo_44KHz.wav
3	128	4	4	2	I	2	0	1250	1	Ⴉ	cut_k_stereo_44KHz.wav
3	129	2	2	1	C	2	1	1098	1	Ⴏ	cut_u_stereo_44KHz.wav
3	130	1	1	1	C	1	0	1403	0	Ⴕ	cut_a_stereo_44KHz.wav
3	131	3	4	2	I	2	0	888	0	Ⴐ	cut_k_stereo_44KHz.wav
3	132	4	4	2	I	1	0	1765	1	Ⴉ	cut_k_stereo_44KHz.wav
3	133	2	1	0	C	2	0	747	0	Ⴏ	cut_a_stereo_44KHz.wav
3	134	4	3	2	I	1	0	937	1	Ⴉ	cut_o_stereo_44KHz.wav
3	135	1	2	0	C	1	1	743	1	Ⴕ	cut_u_stereo_44KHz.wav
3	136	3	3	2	I	1	0	914	1	Ⴐ	cut_o_stereo_44KHz.wav
3	137	2	1	0	C	2	0	937	0	Ⴏ	cut_a_stereo_44KHz.wav
3	138	4	3	2	I	1	0	878	0	Ⴉ	cut_o_stereo_44KHz.wav
3	139	1	1	1	C	1	0	1360	0	Ⴕ	cut_a_stereo_44KHz.wav
3	140	3	4	2	I	2	0	902	1	Ⴐ	cut_k_stereo_44KHz.wav
3	141	2	2	1	C	1	0	1556	0	Ⴏ	cut_u_stereo_44KHz.wav
3	142	4	4	2	I	2	0	1098	1	Ⴉ	cut_k_stereo_44KHz.wav
3	143	1	2	0	C	2	0	1212	0	Ⴕ	cut_u_stereo_44KHz.wav
3	144	3	3	2	I	2	0	1569	1	Ⴐ	cut_o_stereo_44KHz.wav
3	145	4	3	2	I	1	0	861	0	Ⴉ	cut_o_stereo_44KHz.wav
3	146	1	2	0	C	2	0	734	0	Ⴕ	cut_u_stereo_44KHz.wav
3	147	3	3	2	I	2	0	1638	0	Ⴐ	cut_o_stereo_44KHz.wav
3	148	2	2	1	C	2	1	976	1	Ⴏ	cut_u_stereo_44KHz.wav
3	149	4	4	2	I	1	0	874	1	Ⴉ	cut_k_stereo_44KHz.wav
3	150	2	1	0	C	2	0	964	0	Ⴏ	cut_a_stereo_44KHz.wav
3	151	1	1	1	C	2	1	831	1	Ⴕ	cut_a_stereo_44KHz.wav
3	152	3	4	2	I	1	0	1029	1	Ⴐ	cut_k_stereo_44KHz.wav
3	153	2	1	0	C	2	0	754	0	Ⴏ	cut_a_stereo_44KHz.wav
3	154	3	4	2	I	1	0	750	1	Ⴐ	cut_k_stereo_44KHz.wav
3	155	4	4	2	I	2	0	1271	1	Ⴉ	cut_k_stereo_44KHz.wav
3	156	1	1	1	C	2	1	1144	1	Ⴕ	cut_a_stereo_44KHz.wav
3	157	2	2	1	C	2	1	1090	1	Ⴏ	cut_u_stereo_44KHz.wav
3	158	3	3	2	I	2	0	1103	1	Ⴐ	cut_o_stereo_44KHz.wav
3	159	1	2	0	C	2	0	892	0	Ⴕ	cut_u_stereo_44KHz.wav
3	160	4	3	2	I	1	0	761	1	Ⴉ	cut_o_stereo_44KHz.wav
3	161	3	4	2	I	2	0	916	1	Ⴐ	cut_k_stereo_44KHz.wav
3	162	4	4	2	I	2	0	987	1	Ⴉ	cut_k_stereo_44KHz.wav
3	163	2	2	1	C	2	1	783	1	Ⴏ	cut_u_stereo_44KHz.wav
3	164	1	1	1	C	2	1	814	1	Ⴕ	cut_a_stereo_44KHz.wav
3	165	3	3	2	I	2	0	950	1	Ⴐ	cut_o_stereo_44KHz.wav
3	166	1	2	0	C	1	1	897	1	Ⴕ	cut_u_stereo_44KHz.wav
3	167	4	3	2	I	1	0	1534	1	Ⴉ	cut_o_stereo_44KHz.wav
3	168	2	1	0	C	2	0	926	0	Ⴏ	cut_a_stereo_44KHz.wav
3	169	3	3	2	I	1	0	663	1	Ⴐ	cut_o_stereo_44KHz.wav
3	170	1	1	1	C	1	0	684	0	Ⴕ	cut_a_stereo_44KHz.wav
3	171	4	4	2	I	2	0	792	1	Ⴉ	cut_k_stereo_44KHz.wav
3	172	2	2	1	C	2	1	668	1	Ⴏ	cut_u_stereo_44KHz.wav
3	173	3	4	2	I	2	0	805	1	Ⴐ	cut_k_stereo_44KHz.wav
3	174	1	2	0	C	2	0	773	0	Ⴕ	cut_u_stereo_44KHz.wav
3	175	2	1	0	C	1	1	1257	1	Ⴏ	cut_a_stereo_44KHz.wav
3	176	4	3	2	I	1	0	810	0	Ⴉ	cut_o_stereo_44KHz.wav
3	177	3	3	2	I	1	0	986	1	Ⴐ	cut_o_stereo_44KHz.wav
3	178	1	2	0	C	2	0	1085	0	Ⴕ	cut_u_stereo_44KHz.wav
3	179	2	2	1	C	2	1	734	1	Ⴏ	cut_u_stereo_44KHz.wav
3	180	4	3	2	I	1	0	1390	1	Ⴉ	cut_o_stereo_44KHz.wav
3	181	1	1	1	C	1	0	1187	0	Ⴕ	cut_a_stereo_44KHz.wav
3	182	4	4	2	I	2	0	824	0	Ⴉ	cut_k_stereo_44KHz.wav
3	183	2	1	0	C	1	1	1125	1	Ⴏ	cut_a_stereo_44KHz.wav
3	184	3	4	2	I	2	0	770	1	Ⴐ	cut_k_stereo_44KHz.wav
3	185	1	1	1	C	2	1	1141	1	Ⴕ	cut_a_stereo_44KHz.wav
3	186	4	4	2	I	2	0	1727	0	Ⴉ	cut_k_stereo_44KHz.wav
3	187	2	1	0	C	2	0	842	0	Ⴏ	cut_a_stereo_44KHz.wav
3	188	3	4	2	I	1	0	1624	1	Ⴐ	cut_k_stereo_44KHz.wav
3	189	4	3	2	I	1	0	992	0	Ⴉ	cut_o_stereo_44KHz.wav
3	190	1	2	0	C	2	0	807	0	Ⴕ	cut_u_stereo_44KHz.wav
3	191	3	3	2	I	2	0	929	1	Ⴐ	cut_o_stereo_44KHz.wav
3	192	2	2	1	C	2	1	1261	1	Ⴏ	cut_u_stereo_44KHz.wav
3	193	1	1	1	C	1	0	1318	0	Ⴕ	cut_a_stereo_44KHz.wav
3	194	3	3	2	I	0	0	0	0	Ⴐ	cut_o_stereo_44KHz.wav
3	195	4	3	2	I	1	0	1016	1	Ⴉ	cut_o_stereo_44KHz.wav
3	196	2	2	1	C	2	1	1092	1	Ⴏ	cut_u_stereo_44KHz.wav
3	197	3	4	2	I	2	0	896	1	Ⴐ	cut_k_stereo_44KHz.wav
3	198	2	1	0	C	1	1	1052	1	Ⴏ	cut_a_stereo_44KHz.wav
3	199	1	2	0	C	2	0	984	0	Ⴕ	cut_u_stereo_44KHz.wav
3	200	4	4	2	I	1	0	849	1	Ⴉ	cut_k_stereo_44KHz.wav
