block	trial	Vstim	Astim	match	C/I	resp	result	RT	fb	V-file	A-file
LR

0	1	2	3	1	C	0	0	0	0	Ⴢ	cut_eeuw_stereo_44KHz.wav
0	2	1	1	1	C	0	0	0	0	Ⴉ	cut_ee_stereo_44KHz.wav
0	3	1	2	0	C	1	1	1380	1	Ⴉ	cut_g_stereo_44KHz.wav
0	4	2	4	0	C	1	1	1083	1	Ⴢ	cut_oo_stereo_44KHz.wav
0	5	1	1	1	C	2	1	1524	1	Ⴉ	cut_ee_stereo_44KHz.wav
0	6	2	3	1	C	0	0	0	0	Ⴢ	cut_eeuw_stereo_44KHz.wav
0	7	1	2	0	C	2	0	1505	0	Ⴉ	cut_g_stereo_44KHz.wav
0	8	2	4	0	C	1	1	793	1	Ⴢ	cut_oo_stereo_44KHz.wav
0	9	1	1	1	C	1	0	824	0	Ⴉ	cut_ee_stereo_44KHz.wav
0	10	1	2	0	C	2	0	496	0	Ⴉ	cut_g_stereo_44KHz.wav
0	11	2	4	0	C	1	1	1342	1	Ⴢ	cut_oo_stereo_44KHz.wav
0	12	2	3	1	C	0	0	0	0	Ⴢ	cut_eeuw_stereo_44KHz.wav
0	13	2	3	1	C	0	0	0	0	Ⴢ	cut_eeuw_stereo_44KHz.wav
0	14	1	2	0	C	2	0	494	0	Ⴉ	cut_g_stereo_44KHz.wav
0	15	2	4	0	C	1	1	1461	1	Ⴢ	cut_oo_stereo_44KHz.wav
0	16	1	1	1	C	1	0	736	0	Ⴉ	cut_ee_stereo_44KHz.wav
0	17	1	2	0	C	2	0	605	0	Ⴉ	cut_g_stereo_44KHz.wav
0	18	1	1	1	C	1	0	551	0	Ⴉ	cut_ee_stereo_44KHz.wav
0	19	2	3	1	C	2	1	826	1	Ⴢ	cut_eeuw_stereo_44KHz.wav
0	20	2	4	0	C	1	1	906	1	Ⴢ	cut_oo_stereo_44KHz.wav
0	21	2	3	1	C	2	1	1034	1	Ⴢ	cut_eeuw_stereo_44KHz.wav
0	22	1	1	1	C	1	0	878	0	Ⴉ	cut_ee_stereo_44KHz.wav
0	23	2	4	0	C	1	1	1566	1	Ⴢ	cut_oo_stereo_44KHz.wav
0	24	1	2	0	C	2	0	904	0	Ⴉ	cut_g_stereo_44KHz.wav
0	25	1	1	1	C	2	1	1293	1	Ⴉ	cut_ee_stereo_44KHz.wav
0	26	2	3	1	C	2	1	1191	1	Ⴢ	cut_eeuw_stereo_44KHz.wav
0	27	1	2	0	C	1	1	1839	1	Ⴉ	cut_g_stereo_44KHz.wav
0	28	2	4	0	C	1	1	550	1	Ⴢ	cut_oo_stereo_44KHz.wav
0	29	2	3	1	C	1	0	945	0	Ⴢ	cut_eeuw_stereo_44KHz.wav
0	30	2	4	0	C	1	1	869	1	Ⴢ	cut_oo_stereo_44KHz.wav
avg_resp = 1177
1	1	3	3	2	I	2	0	1922	1	Ⴉ	cut_g_stereo_44KHz.wav
1	2	4	3	2	I	0	0	0	0	Ⴕ	cut_g_stereo_44KHz.wav
1	3	1	2	0	C	1	1	1503	1	Ⴖ	cut_w_stereo_44KHz.wav
1	4	2	2	1	C	1	0	630	0	Ⴏ	cut_w_stereo_44KHz.wav
1	5	3	4	2	I	2	0	394	0	Ⴉ	cut_l_stereo_44KHz.wav
1	6	4	4	2	I	1	0	921	0	Ⴕ	cut_l_stereo_44KHz.wav
1	7	2	1	0	C	1	1	1069	1	Ⴏ	cut_h_stereo_44KHz.wav
1	8	1	1	1	C	2	1	1707	1	Ⴖ	cut_h_stereo_44KHz.wav
1	9	2	1	0	C	1	1	976	1	Ⴏ	cut_h_stereo_44KHz.wav
1	10	4	3	2	I	0	0	0	0	Ⴕ	cut_g_stereo_44KHz.wav
1	11	3	3	2	I	1	0	1267	1	Ⴉ	cut_g_stereo_44KHz.wav
1	12	1	1	1	C	1	0	1487	0	Ⴖ	cut_h_stereo_44KHz.wav
1	13	4	4	2	I	2	0	1644	1	Ⴕ	cut_l_stereo_44KHz.wav
1	14	3	4	2	I	0	0	0	0	Ⴉ	cut_l_stereo_44KHz.wav
1	15	2	2	1	C	2	1	1928	1	Ⴏ	cut_w_stereo_44KHz.wav
1	16	1	2	0	C	2	0	1020	0	Ⴖ	cut_w_stereo_44KHz.wav
1	17	4	4	2	I	2	0	1944	0	Ⴕ	cut_l_stereo_44KHz.wav
1	18	3	4	2	I	1	0	728	1	Ⴉ	cut_l_stereo_44KHz.wav
1	19	2	1	0	C	0	0	0	0	Ⴏ	cut_h_stereo_44KHz.wav
1	20	1	2	0	C	2	0	750	0	Ⴖ	cut_w_stereo_44KHz.wav
1	21	3	3	2	I	1	0	1577	1	Ⴉ	cut_g_stereo_44KHz.wav
1	22	1	1	1	C	1	0	1699	0	Ⴖ	cut_h_stereo_44KHz.wav
1	23	2	2	1	C	2	1	1579	1	Ⴏ	cut_w_stereo_44KHz.wav
1	24	4	3	2	I	0	0	0	0	Ⴕ	cut_g_stereo_44KHz.wav
1	25	2	2	1	C	2	1	1435	1	Ⴏ	cut_w_stereo_44KHz.wav
1	26	1	1	1	C	1	0	1793	0	Ⴖ	cut_h_stereo_44KHz.wav
1	27	4	4	2	I	1	0	1429	1	Ⴕ	cut_l_stereo_44KHz.wav
1	28	3	4	2	I	1	0	1775	1	Ⴉ	cut_l_stereo_44KHz.wav
1	29	4	3	2	I	2	0	903	1	Ⴕ	cut_g_stereo_44KHz.wav
1	30	1	2	0	C	2	0	1727	0	Ⴖ	cut_w_stereo_44KHz.wav
1	31	2	1	0	C	1	1	1486	1	Ⴏ	cut_h_stereo_44KHz.wav
1	32	3	3	2	I	0	0	0	0	Ⴉ	cut_g_stereo_44KHz.wav
1	33	1	2	0	C	1	1	1215	1	Ⴖ	cut_w_stereo_44KHz.wav
1	34	2	1	0	C	1	1	1294	1	Ⴏ	cut_h_stereo_44KHz.wav
1	35	4	3	2	I	1	0	1280	1	Ⴕ	cut_g_stereo_44KHz.wav
1	36	3	3	2	I	1	0	1461	1	Ⴉ	cut_g_stereo_44KHz.wav
1	37	1	1	1	C	2	1	1117	1	Ⴖ	cut_h_stereo_44KHz.wav
1	38	3	4	2	I	2	0	1342	1	Ⴉ	cut_l_stereo_44KHz.wav
1	39	2	2	1	C	2	1	1289	1	Ⴏ	cut_w_stereo_44KHz.wav
1	40	4	4	2	I	1	0	1328	1	Ⴕ	cut_l_stereo_44KHz.wav
1	41	1	2	0	C	2	0	1553	0	Ⴖ	cut_w_stereo_44KHz.wav
1	42	2	1	0	C	1	1	1174	1	Ⴏ	cut_h_stereo_44KHz.wav
1	43	4	3	2	I	1	0	1354	1	Ⴕ	cut_g_stereo_44KHz.wav
1	44	3	4	2	I	2	0	942	1	Ⴉ	cut_l_stereo_44KHz.wav
1	45	1	1	1	C	1	0	1895	0	Ⴖ	cut_h_stereo_44KHz.wav
1	46	2	2	1	C	2	1	1561	1	Ⴏ	cut_w_stereo_44KHz.wav
1	47	3	3	2	I	1	0	1516	1	Ⴉ	cut_g_stereo_44KHz.wav
1	48	4	4	2	I	1	0	1256	1	Ⴕ	cut_l_stereo_44KHz.wav
1	49	2	2	1	C	2	1	1077	1	Ⴏ	cut_w_stereo_44KHz.wav
1	50	1	2	0	C	0	0	0	0	Ⴖ	cut_w_stereo_44KHz.wav
1	51	3	3	2	I	1	0	1295	1	Ⴉ	cut_g_stereo_44KHz.wav
1	52	4	3	2	I	0	0	0	0	Ⴕ	cut_g_stereo_44KHz.wav
1	53	3	4	2	I	1	0	1193	0	Ⴉ	cut_l_stereo_44KHz.wav
1	54	4	4	2	I	2	0	860	1	Ⴕ	cut_l_stereo_44KHz.wav
1	55	1	1	1	C	2	1	1566	1	Ⴖ	cut_h_stereo_44KHz.wav
1	56	2	1	0	C	1	1	1324	1	Ⴏ	cut_h_stereo_44KHz.wav
1	57	4	4	2	I	0	0	0	0	Ⴕ	cut_l_stereo_44KHz.wav
1	58	3	3	2	I	1	0	1379	1	Ⴉ	cut_g_stereo_44KHz.wav
1	59	2	1	0	C	1	1	965	1	Ⴏ	cut_h_stereo_44KHz.wav
1	60	1	2	0	C	0	0	0	0	Ⴖ	cut_w_stereo_44KHz.wav
1	61	3	4	2	I	0	0	0	0	Ⴉ	cut_l_stereo_44KHz.wav
1	62	2	2	1	C	0	0	0	0	Ⴏ	cut_w_stereo_44KHz.wav
1	63	4	3	2	I	0	0	0	0	Ⴕ	cut_g_stereo_44KHz.wav
1	64	1	1	1	C	1	0	1006	0	Ⴖ	cut_h_stereo_44KHz.wav
1	65	2	2	1	C	2	1	793	1	Ⴏ	cut_w_stereo_44KHz.wav
1	66	3	3	2	I	1	0	1269	1	Ⴉ	cut_g_stereo_44KHz.wav
1	67	4	3	2	I	1	0	1429	1	Ⴕ	cut_g_stereo_44KHz.wav
1	68	1	1	1	C	1	0	1175	0	Ⴖ	cut_h_stereo_44KHz.wav
1	69	4	4	2	I	0	0	0	0	Ⴕ	cut_l_stereo_44KHz.wav
1	70	2	1	0	C	1	1	1130	1	Ⴏ	cut_h_stereo_44KHz.wav
1	71	1	2	0	C	2	0	691	0	Ⴖ	cut_w_stereo_44KHz.wav
1	72	3	4	2	I	1	0	1472	1	Ⴉ	cut_l_stereo_44KHz.wav
1	73	4	4	2	I	1	0	1300	1	Ⴕ	cut_l_stereo_44KHz.wav
1	74	1	1	1	C	2	1	1312	1	Ⴖ	cut_h_stereo_44KHz.wav
1	75	2	2	1	C	2	1	983	1	Ⴏ	cut_w_stereo_44KHz.wav
1	76	3	4	2	I	1	0	1098	1	Ⴉ	cut_l_stereo_44KHz.wav
1	77	4	3	2	I	1	0	1307	1	Ⴕ	cut_g_stereo_44KHz.wav
1	78	1	2	0	C	1	1	1185	1	Ⴖ	cut_w_stereo_44KHz.wav
1	79	3	3	2	I	2	0	1134	0	Ⴉ	cut_g_stereo_44KHz.wav
1	80	2	1	0	C	1	1	974	1	Ⴏ	cut_h_stereo_44KHz.wav
1	81	4	4	2	I	2	0	1198	1	Ⴕ	cut_l_stereo_44KHz.wav
1	82	2	1	0	C	1	1	794	1	Ⴏ	cut_h_stereo_44KHz.wav
1	83	3	3	2	I	1	0	1614	1	Ⴉ	cut_g_stereo_44KHz.wav
1	84	1	1	1	C	0	0	0	0	Ⴖ	cut_h_stereo_44KHz.wav
1	85	3	4	2	I	0	0	0	0	Ⴉ	cut_l_stereo_44KHz.wav
1	86	2	2	1	C	2	1	572	1	Ⴏ	cut_w_stereo_44KHz.wav
1	87	4	3	2	I	2	0	1368	1	Ⴕ	cut_g_stereo_44KHz.wav
1	88	1	2	0	C	1	1	1342	1	Ⴖ	cut_w_stereo_44KHz.wav
1	89	3	4	2	I	2	0	1765	0	Ⴉ	cut_l_stereo_44KHz.wav
1	90	2	1	0	C	1	1	949	1	Ⴏ	cut_h_stereo_44KHz.wav
1	91	1	1	1	C	1	0	1550	0	Ⴖ	cut_h_stereo_44KHz.wav
1	92	4	4	2	I	1	0	1560	1	Ⴕ	cut_l_stereo_44KHz.wav
1	93	2	2	1	C	1	0	1431	0	Ⴏ	cut_w_stereo_44KHz.wav
1	94	1	2	0	C	2	0	1471	0	Ⴖ	cut_w_stereo_44KHz.wav
1	95	4	3	2	I	0	0	0	0	Ⴕ	cut_g_stereo_44KHz.wav
1	96	3	3	2	I	2	0	1442	0	Ⴉ	cut_g_stereo_44KHz.wav
1	97	4	4	2	I	1	0	997	1	Ⴕ	cut_l_stereo_44KHz.wav
1	98	2	1	0	C	0	0	0	0	Ⴏ	cut_h_stereo_44KHz.wav
1	99	1	1	1	C	1	0	961	0	Ⴖ	cut_h_stereo_44KHz.wav
1	100	3	3	2	I	2	0	280	0	Ⴉ	cut_g_stereo_44KHz.wav
1	101	2	2	1	C	1	0	550	0	Ⴏ	cut_w_stereo_44KHz.wav
1	102	4	3	2	I	2	0	995	0	Ⴕ	cut_g_stereo_44KHz.wav
1	103	3	4	2	I	1	0	1669	1	Ⴉ	cut_l_stereo_44KHz.wav
1	104	1	2	0	C	1	1	1274	1	Ⴖ	cut_w_stereo_44KHz.wav
1	105	4	4	2	I	1	0	1322	1	Ⴕ	cut_l_stereo_44KHz.wav
1	106	3	3	2	I	2	0	928	0	Ⴉ	cut_g_stereo_44KHz.wav
1	107	2	1	0	C	1	1	871	1	Ⴏ	cut_h_stereo_44KHz.wav
1	108	1	2	0	C	2	0	1207	0	Ⴖ	cut_w_stereo_44KHz.wav
1	109	2	2	1	C	0	0	0	0	Ⴏ	cut_w_stereo_44KHz.wav
1	110	4	3	2	I	0	0	0	0	Ⴕ	cut_g_stereo_44KHz.wav
1	111	3	4	2	I	1	0	1654	1	Ⴉ	cut_l_stereo_44KHz.wav
1	112	1	1	1	C	2	1	1167	1	Ⴖ	cut_h_stereo_44KHz.wav
1	113	3	4	2	I	1	0	900	1	Ⴉ	cut_l_stereo_44KHz.wav
1	114	1	2	0	C	2	0	1123	0	Ⴖ	cut_w_stereo_44KHz.wav
1	115	4	4	2	I	1	0	1248	1	Ⴕ	cut_l_stereo_44KHz.wav
1	116	2	2	1	C	1	0	866	0	Ⴏ	cut_w_stereo_44KHz.wav
1	117	3	3	2	I	2	0	914	1	Ⴉ	cut_g_stereo_44KHz.wav
1	118	4	3	2	I	2	0	1547	1	Ⴕ	cut_g_stereo_44KHz.wav
1	119	1	1	1	C	0	0	0	0	Ⴖ	cut_h_stereo_44KHz.wav
1	120	2	1	0	C	1	1	810	1	Ⴏ	cut_h_stereo_44KHz.wav
1	121	3	3	2	I	1	0	1711	0	Ⴉ	cut_g_stereo_44KHz.wav
1	122	4	4	2	I	1	0	1505	0	Ⴕ	cut_l_stereo_44KHz.wav
1	123	2	2	1	C	2	1	1554	1	Ⴏ	cut_w_stereo_44KHz.wav
1	124	1	2	0	C	1	1	1475	1	Ⴖ	cut_w_stereo_44KHz.wav
1	125	3	4	2	I	0	0	0	0	Ⴉ	cut_l_stereo_44KHz.wav
1	126	4	3	2	I	0	0	0	0	Ⴕ	cut_g_stereo_44KHz.wav
1	127	2	1	0	C	1	1	867	1	Ⴏ	cut_h_stereo_44KHz.wav
1	128	1	1	1	C	2	1	1682	1	Ⴖ	cut_h_stereo_44KHz.wav
1	129	2	1	0	C	1	1	1164	1	Ⴏ	cut_h_stereo_44KHz.wav
1	130	3	4	2	I	1	0	1712	1	Ⴉ	cut_l_stereo_44KHz.wav
1	131	1	1	1	C	2	1	1835	1	Ⴖ	cut_h_stereo_44KHz.wav
1	132	4	4	2	I	1	0	1737	1	Ⴕ	cut_l_stereo_44KHz.wav
1	133	2	2	1	C	2	1	1116	1	Ⴏ	cut_w_stereo_44KHz.wav
1	134	4	3	2	I	1	0	1695	1	Ⴕ	cut_g_stereo_44KHz.wav
1	135	3	3	2	I	1	0	1410	1	Ⴉ	cut_g_stereo_44KHz.wav
1	136	1	2	0	C	0	0	0	0	Ⴖ	cut_w_stereo_44KHz.wav
1	137	4	3	2	I	2	0	879	1	Ⴕ	cut_g_stereo_44KHz.wav
1	138	3	4	2	I	1	0	840	1	Ⴉ	cut_l_stereo_44KHz.wav
1	139	1	2	0	C	1	1	1172	1	Ⴖ	cut_w_stereo_44KHz.wav
1	140	2	1	0	C	1	1	750	1	Ⴏ	cut_h_stereo_44KHz.wav
1	141	4	4	2	I	1	0	1183	1	Ⴕ	cut_l_stereo_44KHz.wav
1	142	3	3	2	I	2	0	1202	1	Ⴉ	cut_g_stereo_44KHz.wav
1	143	2	2	1	C	2	1	1291	1	Ⴏ	cut_w_stereo_44KHz.wav
1	144	1	1	1	C	0	0	0	0	Ⴖ	cut_h_stereo_44KHz.wav
1	145	4	4	2	I	1	0	1584	0	Ⴕ	cut_l_stereo_44KHz.wav
1	146	3	3	2	I	1	0	1567	1	Ⴉ	cut_g_stereo_44KHz.wav
1	147	2	1	0	C	1	1	637	1	Ⴏ	cut_h_stereo_44KHz.wav
1	148	1	1	1	C	1	0	1293	0	Ⴖ	cut_h_stereo_44KHz.wav
1	149	4	3	2	I	1	0	1969	1	Ⴕ	cut_g_stereo_44KHz.wav
1	150	3	4	2	I	0	0	0	0	Ⴉ	cut_l_stereo_44KHz.wav
1	151	2	2	1	C	2	1	1281	1	Ⴏ	cut_w_stereo_44KHz.wav
1	152	1	2	0	C	2	0	1697	0	Ⴖ	cut_w_stereo_44KHz.wav
1	153	3	3	2	I	1	0	1635	1	Ⴉ	cut_g_stereo_44KHz.wav
1	154	2	1	0	C	1	1	433	1	Ⴏ	cut_h_stereo_44KHz.wav
1	155	1	2	0	C	2	0	1143	0	Ⴖ	cut_w_stereo_44KHz.wav
1	156	4	4	2	I	1	0	902	1	Ⴕ	cut_l_stereo_44KHz.wav
1	157	1	1	1	C	1	0	1073	0	Ⴖ	cut_h_stereo_44KHz.wav
1	158	4	3	2	I	2	0	1521	1	Ⴕ	cut_g_stereo_44KHz.wav
1	159	3	4	2	I	1	0	517	1	Ⴉ	cut_l_stereo_44KHz.wav
1	160	2	2	1	C	1	0	1377	0	Ⴏ	cut_w_stereo_44KHz.wav
1	161	3	4	2	I	2	0	937	1	Ⴉ	cut_l_stereo_44KHz.wav
1	162	4	3	2	I	2	0	1460	1	Ⴕ	cut_g_stereo_44KHz.wav
1	163	2	2	1	C	1	0	906	0	Ⴏ	cut_w_stereo_44KHz.wav
1	164	1	2	0	C	1	1	1573	1	Ⴖ	cut_w_stereo_44KHz.wav
1	165	3	3	2	I	2	0	1202	1	Ⴉ	cut_g_stereo_44KHz.wav
1	166	4	4	2	I	1	0	1217	1	Ⴕ	cut_l_stereo_44KHz.wav
1	167	2	1	0	C	1	1	738	1	Ⴏ	cut_h_stereo_44KHz.wav
1	168	1	1	1	C	2	1	1373	1	Ⴖ	cut_h_stereo_44KHz.wav
1	169	2	2	1	C	2	1	1188	1	Ⴏ	cut_w_stereo_44KHz.wav
1	170	3	3	2	I	2	0	1600	1	Ⴉ	cut_g_stereo_44KHz.wav
1	171	4	3	2	I	1	0	1705	1	Ⴕ	cut_g_stereo_44KHz.wav
1	172	1	1	1	C	0	0	0	0	Ⴖ	cut_h_stereo_44KHz.wav
1	173	3	4	2	I	1	0	619	1	Ⴉ	cut_l_stereo_44KHz.wav
1	174	1	2	0	C	0	0	0	0	Ⴖ	cut_w_stereo_44KHz.wav
1	175	4	4	2	I	1	0	1747	0	Ⴕ	cut_l_stereo_44KHz.wav
1	176	2	1	0	C	2	0	978	0	Ⴏ	cut_h_stereo_44KHz.wav
1	177	1	1	1	C	1	0	1479	0	Ⴖ	cut_h_stereo_44KHz.wav
1	178	3	3	2	I	2	0	326	0	Ⴉ	cut_g_stereo_44KHz.wav
1	179	2	1	0	C	1	1	751	1	Ⴏ	cut_h_stereo_44KHz.wav
1	180	4	4	2	I	2	0	658	0	Ⴕ	cut_l_stereo_44KHz.wav
1	181	1	2	0	C	1	1	1176	1	Ⴖ	cut_w_stereo_44KHz.wav
1	182	3	4	2	I	2	0	964	1	Ⴉ	cut_l_stereo_44KHz.wav
1	183	4	3	2	I	2	0	1199	0	Ⴕ	cut_g_stereo_44KHz.wav
1	184	2	2	1	C	2	1	1844	1	Ⴏ	cut_w_stereo_44KHz.wav
1	185	1	2	0	C	1	1	1186	1	Ⴖ	cut_w_stereo_44KHz.wav
1	186	3	3	2	I	0	0	0	0	Ⴉ	cut_g_stereo_44KHz.wav
1	187	4	4	2	I	1	0	1552	1	Ⴕ	cut_l_stereo_44KHz.wav
1	188	2	2	1	C	2	1	1158	1	Ⴏ	cut_w_stereo_44KHz.wav
1	189	4	3	2	I	2	0	1393	1	Ⴕ	cut_g_stereo_44KHz.wav
1	190	2	1	0	C	1	1	1009	1	Ⴏ	cut_h_stereo_44KHz.wav
1	191	3	4	2	I	0	0	0	0	Ⴉ	cut_l_stereo_44KHz.wav
1	192	1	1	1	C	0	0	0	0	Ⴖ	cut_h_stereo_44KHz.wav
1	193	4	4	2	I	1	0	1179	1	Ⴕ	cut_l_stereo_44KHz.wav
1	194	3	3	2	I	2	0	1219	1	Ⴉ	cut_g_stereo_44KHz.wav
1	195	2	1	0	C	1	1	577	1	Ⴏ	cut_h_stereo_44KHz.wav
1	196	1	1	1	C	2	1	1750	1	Ⴖ	cut_h_stereo_44KHz.wav
1	197	2	2	1	C	2	1	1194	1	Ⴏ	cut_w_stereo_44KHz.wav
1	198	4	3	2	I	2	0	1840	1	Ⴕ	cut_g_stereo_44KHz.wav
1	199	1	2	0	C	0	0	0	0	Ⴖ	cut_w_stereo_44KHz.wav
1	200	3	4	2	I	0	0	0	0	Ⴉ	cut_l_stereo_44KHz.wav
2	1	4	4	2	I	0	0	0	0	Ⴃ	cut_ui_stereo_44KHz.wav
2	2	2	2	1	C	1	0	1607	0	Ⴊ	cut_oei_stereo_44KHz.wav
2	3	3	3	2	I	2	0	1046	1	Ⴟ	cut_n_stereo_44KHz.wav
2	4	1	1	1	C	1	0	1473	0	Ⴡ	cut_ei_stereo_44KHz.wav
2	5	4	3	2	I	0	0	0	0	Ⴃ	cut_n_stereo_44KHz.wav
2	6	3	4	2	I	2	0	834	1	Ⴟ	cut_ui_stereo_44KHz.wav
2	7	2	1	0	C	1	1	932	1	Ⴊ	cut_ei_stereo_44KHz.wav
2	8	1	2	0	C	1	1	798	1	Ⴡ	cut_oei_stereo_44KHz.wav
2	9	3	4	2	I	2	0	324	1	Ⴟ	cut_ui_stereo_44KHz.wav
2	10	2	2	1	C	1	0	556	0	Ⴊ	cut_oei_stereo_44KHz.wav
2	11	4	3	2	I	2	0	1753	1	Ⴃ	cut_n_stereo_44KHz.wav
2	12	1	1	1	C	2	1	368	1	Ⴡ	cut_ei_stereo_44KHz.wav
2	13	4	4	2	I	2	0	630	1	Ⴃ	cut_ui_stereo_44KHz.wav
2	14	3	3	2	I	0	0	0	0	Ⴟ	cut_n_stereo_44KHz.wav
2	15	1	2	0	C	0	0	0	0	Ⴡ	cut_oei_stereo_44KHz.wav
2	16	2	1	0	C	1	1	788	1	Ⴊ	cut_ei_stereo_44KHz.wav
2	17	3	3	2	I	0	0	0	0	Ⴟ	cut_n_stereo_44KHz.wav
2	18	2	1	0	C	0	0	0	0	Ⴊ	cut_ei_stereo_44KHz.wav
2	19	4	3	2	I	0	0	0	0	Ⴃ	cut_n_stereo_44KHz.wav
2	20	1	1	1	C	1	0	662	0	Ⴡ	cut_ei_stereo_44KHz.wav
2	21	3	4	2	I	1	0	1826	1	Ⴟ	cut_ui_stereo_44KHz.wav
2	22	4	4	2	I	2	0	1981	1	Ⴃ	cut_ui_stereo_44KHz.wav
2	23	2	2	1	C	1	0	414	0	Ⴊ	cut_oei_stereo_44KHz.wav
2	24	1	2	0	C	2	0	1043	0	Ⴡ	cut_oei_stereo_44KHz.wav
2	25	4	3	2	I	0	0	0	0	Ⴃ	cut_n_stereo_44KHz.wav
2	26	3	4	2	I	2	0	484	1	Ⴟ	cut_ui_stereo_44KHz.wav
2	27	1	2	0	C	1	1	1138	1	Ⴡ	cut_oei_stereo_44KHz.wav
2	28	2	2	1	C	2	1	540	1	Ⴊ	cut_oei_stereo_44KHz.wav
2	29	4	4	2	I	1	0	718	0	Ⴃ	cut_ui_stereo_44KHz.wav
2	30	1	1	1	C	2	1	408	1	Ⴡ	cut_ei_stereo_44KHz.wav
2	31	3	3	2	I	1	0	1389	1	Ⴟ	cut_n_stereo_44KHz.wav
2	32	2	1	0	C	1	1	1405	1	Ⴊ	cut_ei_stereo_44KHz.wav
2	33	1	1	1	C	2	1	1226	1	Ⴡ	cut_ei_stereo_44KHz.wav
2	34	3	4	2	I	0	0	0	0	Ⴟ	cut_ui_stereo_44KHz.wav
2	35	4	3	2	I	2	0	888	1	Ⴃ	cut_n_stereo_44KHz.wav
2	36	2	2	1	C	1	0	602	0	Ⴊ	cut_oei_stereo_44KHz.wav
2	37	4	4	2	I	2	0	17	1	Ⴃ	cut_ui_stereo_44KHz.wav
2	38	1	2	0	C	1	1	1160	1	Ⴡ	cut_oei_stereo_44KHz.wav
2	39	2	1	0	C	2	0	559	0	Ⴊ	cut_ei_stereo_44KHz.wav
2	40	3	3	2	I	1	0	596	1	Ⴟ	cut_n_stereo_44KHz.wav
2	41	1	2	0	C	2	0	373	0	Ⴡ	cut_oei_stereo_44KHz.wav
2	42	4	3	2	I	1	0	697	1	Ⴃ	cut_n_stereo_44KHz.wav
2	43	2	1	0	C	1	1	1147	1	Ⴊ	cut_ei_stereo_44KHz.wav
2	44	3	3	2	I	2	0	832	1	Ⴟ	cut_n_stereo_44KHz.wav
2	45	4	4	2	I	2	0	813	1	Ⴃ	cut_ui_stereo_44KHz.wav
2	46	3	4	2	I	1	0	1124	1	Ⴟ	cut_ui_stereo_44KHz.wav
2	47	1	1	1	C	2	1	501	1	Ⴡ	cut_ei_stereo_44KHz.wav
2	48	2	2	1	C	1	0	499	0	Ⴊ	cut_oei_stereo_44KHz.wav
2	49	3	3	2	I	2	0	372	1	Ⴟ	cut_n_stereo_44KHz.wav
2	50	2	2	1	C	1	0	922	0	Ⴊ	cut_oei_stereo_44KHz.wav
2	51	4	4	2	I	2	0	437	1	Ⴃ	cut_ui_stereo_44KHz.wav
2	52	1	2	0	C	1	1	495	1	Ⴡ	cut_oei_stereo_44KHz.wav
2	53	4	3	2	I	2	0	828	1	Ⴃ	cut_n_stereo_44KHz.wav
2	54	3	4	2	I	1	0	638	0	Ⴟ	cut_ui_stereo_44KHz.wav
2	55	1	1	1	C	2	1	785	1	Ⴡ	cut_ei_stereo_44KHz.wav
2	56	2	1	0	C	2	0	962	0	Ⴊ	cut_ei_stereo_44KHz.wav
2	57	3	4	2	I	1	0	1628	1	Ⴟ	cut_ui_stereo_44KHz.wav
2	58	2	2	1	C	2	1	1655	1	Ⴊ	cut_oei_stereo_44KHz.wav
2	59	4	3	2	I	1	0	642	1	Ⴃ	cut_n_stereo_44KHz.wav
2	60	1	1	1	C	2	1	479	1	Ⴡ	cut_ei_stereo_44KHz.wav
2	61	3	3	2	I	2	0	495	1	Ⴟ	cut_n_stereo_44KHz.wav
2	62	1	2	0	C	2	0	413	0	Ⴡ	cut_oei_stereo_44KHz.wav
2	63	2	1	0	C	1	1	276	1	Ⴊ	cut_ei_stereo_44KHz.wav
2	64	4	4	2	I	1	0	653	0	Ⴃ	cut_ui_stereo_44KHz.wav
2	65	3	3	2	I	2	0	68	1	Ⴟ	cut_n_stereo_44KHz.wav
2	66	1	1	1	C	0	0	0	0	Ⴡ	cut_ei_stereo_44KHz.wav
2	67	2	1	0	C	2	0	952	0	Ⴊ	cut_ei_stereo_44KHz.wav
2	68	4	4	2	I	1	0	1500	1	Ⴃ	cut_ui_stereo_44KHz.wav
2	69	1	2	0	C	0	0	0	0	Ⴡ	cut_oei_stereo_44KHz.wav
2	70	2	2	1	C	0	0	0	0	Ⴊ	cut_oei_stereo_44KHz.wav
2	71	3	4	2	I	1	0	378	1	Ⴟ	cut_ui_stereo_44KHz.wav
2	72	4	3	2	I	2	0	333	0	Ⴃ	cut_n_stereo_44KHz.wav
2	73	2	2	1	C	1	0	698	0	Ⴊ	cut_oei_stereo_44KHz.wav
2	74	3	3	2	I	2	0	832	1	Ⴟ	cut_n_stereo_44KHz.wav
2	75	4	4	2	I	1	0	1288	1	Ⴃ	cut_ui_stereo_44KHz.wav
2	76	1	2	0	C	2	0	762	0	Ⴡ	cut_oei_stereo_44KHz.wav
2	77	2	1	0	C	1	1	1065	1	Ⴊ	cut_ei_stereo_44KHz.wav
2	78	1	1	1	C	1	0	836	0	Ⴡ	cut_ei_stereo_44KHz.wav
2	79	3	4	2	I	2	0	568	1	Ⴟ	cut_ui_stereo_44KHz.wav
2	80	4	3	2	I	1	0	1242	1	Ⴃ	cut_n_stereo_44KHz.wav
2	81	3	3	2	I	1	0	842	1	Ⴟ	cut_n_stereo_44KHz.wav
2	82	1	1	1	C	1	0	724	0	Ⴡ	cut_ei_stereo_44KHz.wav
2	83	2	2	1	C	2	1	313	1	Ⴊ	cut_oei_stereo_44KHz.wav
2	84	4	3	2	I	1	0	672	1	Ⴃ	cut_n_stereo_44KHz.wav
2	85	3	4	2	I	2	0	1094	0	Ⴟ	cut_ui_stereo_44KHz.wav
2	86	4	4	2	I	0	0	0	0	Ⴃ	cut_ui_stereo_44KHz.wav
2	87	1	2	0	C	0	0	0	0	Ⴡ	cut_oei_stereo_44KHz.wav
2	88	2	1	0	C	2	0	826	0	Ⴊ	cut_ei_stereo_44KHz.wav
2	89	3	3	2	I	2	0	928	1	Ⴟ	cut_n_stereo_44KHz.wav
2	90	4	4	2	I	1	0	1102	1	Ⴃ	cut_ui_stereo_44KHz.wav
2	91	1	2	0	C	2	0	1954	0	Ⴡ	cut_oei_stereo_44KHz.wav
2	92	2	1	0	C	1	1	739	1	Ⴊ	cut_ei_stereo_44KHz.wav
2	93	4	3	2	I	2	0	1340	1	Ⴃ	cut_n_stereo_44KHz.wav
2	94	3	4	2	I	2	0	1931	1	Ⴟ	cut_ui_stereo_44KHz.wav
2	95	2	2	1	C	2	1	1250	1	Ⴊ	cut_oei_stereo_44KHz.wav
2	96	1	1	1	C	2	1	899	1	Ⴡ	cut_ei_stereo_44KHz.wav
2	97	2	2	1	C	1	0	1217	0	Ⴊ	cut_oei_stereo_44KHz.wav
2	98	4	3	2	I	0	0	0	0	Ⴃ	cut_n_stereo_44KHz.wav
2	99	3	3	2	I	2	0	725	0	Ⴟ	cut_n_stereo_44KHz.wav
2	100	1	2	0	C	1	1	539	1	Ⴡ	cut_oei_stereo_44KHz.wav
2	101	3	4	2	I	1	0	725	1	Ⴟ	cut_ui_stereo_44KHz.wav
2	102	4	4	2	I	2	0	730	0	Ⴃ	cut_ui_stereo_44KHz.wav
2	103	1	1	1	C	1	0	1108	0	Ⴡ	cut_ei_stereo_44KHz.wav
2	104	2	1	0	C	2	0	847	0	Ⴊ	cut_ei_stereo_44KHz.wav
2	105	1	1	1	C	0	0	0	0	Ⴡ	cut_ei_stereo_44KHz.wav
2	106	2	2	1	C	2	1	1236	1	Ⴊ	cut_oei_stereo_44KHz.wav
2	107	4	3	2	I	0	0	0	0	Ⴃ	cut_n_stereo_44KHz.wav
2	108	3	4	2	I	2	0	1197	1	Ⴟ	cut_ui_stereo_44KHz.wav
2	109	2	1	0	C	1	1	1067	1	Ⴊ	cut_ei_stereo_44KHz.wav
2	110	4	4	2	I	2	0	1343	1	Ⴃ	cut_ui_stereo_44KHz.wav
2	111	3	3	2	I	1	0	971	1	Ⴟ	cut_n_stereo_44KHz.wav
2	112	1	2	0	C	1	1	789	1	Ⴡ	cut_oei_stereo_44KHz.wav
2	113	3	3	2	I	1	0	400	1	Ⴟ	cut_n_stereo_44KHz.wav
2	114	4	4	2	I	2	0	421	1	Ⴃ	cut_ui_stereo_44KHz.wav
2	115	2	2	1	C	1	0	1389	0	Ⴊ	cut_oei_stereo_44KHz.wav
2	116	1	2	0	C	0	0	0	0	Ⴡ	cut_oei_stereo_44KHz.wav
2	117	3	4	2	I	1	0	610	1	Ⴟ	cut_ui_stereo_44KHz.wav
2	118	4	3	2	I	1	0	984	1	Ⴃ	cut_n_stereo_44KHz.wav
2	119	1	1	1	C	2	1	1942	1	Ⴡ	cut_ei_stereo_44KHz.wav
2	120	2	1	0	C	1	1	468	1	Ⴊ	cut_ei_stereo_44KHz.wav
2	121	3	4	2	I	1	0	354	1	Ⴟ	cut_ui_stereo_44KHz.wav
2	122	4	4	2	I	0	0	0	0	Ⴃ	cut_ui_stereo_44KHz.wav
2	123	2	2	1	C	1	0	864	0	Ⴊ	cut_oei_stereo_44KHz.wav
2	124	1	2	0	C	2	0	584	0	Ⴡ	cut_oei_stereo_44KHz.wav
2	125	4	3	2	I	2	0	836	1	Ⴃ	cut_n_stereo_44KHz.wav
2	126	1	1	1	C	2	1	874	1	Ⴡ	cut_ei_stereo_44KHz.wav
2	127	2	1	0	C	2	0	396	0	Ⴊ	cut_ei_stereo_44KHz.wav
2	128	3	3	2	I	1	0	1609	1	Ⴟ	cut_n_stereo_44KHz.wav
2	129	1	1	1	C	2	1	1096	1	Ⴡ	cut_ei_stereo_44KHz.wav
2	130	4	3	2	I	1	0	980	1	Ⴃ	cut_n_stereo_44KHz.wav
2	131	3	3	2	I	2	0	775	1	Ⴟ	cut_n_stereo_44KHz.wav
2	132	2	2	1	C	1	0	365	0	Ⴊ	cut_oei_stereo_44KHz.wav
2	133	1	2	0	C	1	1	854	1	Ⴡ	cut_oei_stereo_44KHz.wav
2	134	4	4	2	I	1	0	856	1	Ⴃ	cut_ui_stereo_44KHz.wav
2	135	3	4	2	I	1	0	1938	1	Ⴟ	cut_ui_stereo_44KHz.wav
2	136	2	1	0	C	1	1	1109	1	Ⴊ	cut_ei_stereo_44KHz.wav
2	137	4	4	2	I	1	0	686	1	Ⴃ	cut_ui_stereo_44KHz.wav
2	138	1	1	1	C	2	1	353	1	Ⴡ	cut_ei_stereo_44KHz.wav
2	139	2	1	0	C	1	1	370	1	Ⴊ	cut_ei_stereo_44KHz.wav
2	140	3	4	2	I	2	0	197	1	Ⴟ	cut_ui_stereo_44KHz.wav
2	141	4	3	2	I	2	0	612	1	Ⴃ	cut_n_stereo_44KHz.wav
2	142	2	2	1	C	2	1	1267	1	Ⴊ	cut_oei_stereo_44KHz.wav
2	143	1	2	0	C	2	0	1745	0	Ⴡ	cut_oei_stereo_44KHz.wav
2	144	3	3	2	I	2	0	273	0	Ⴟ	cut_n_stereo_44KHz.wav
2	145	4	3	2	I	1	0	951	1	Ⴃ	cut_n_stereo_44KHz.wav
2	146	1	2	0	C	1	1	8	1	Ⴡ	cut_oei_stereo_44KHz.wav
2	147	3	3	2	I	0	0	0	0	Ⴟ	cut_n_stereo_44KHz.wav
2	148	2	2	1	C	1	0	1068	0	Ⴊ	cut_oei_stereo_44KHz.wav
2	149	3	4	2	I	2	0	799	1	Ⴟ	cut_ui_stereo_44KHz.wav
2	150	1	1	1	C	0	0	0	0	Ⴡ	cut_ei_stereo_44KHz.wav
2	151	4	4	2	I	1	0	640	0	Ⴃ	cut_ui_stereo_44KHz.wav
2	152	2	1	0	C	2	0	415	0	Ⴊ	cut_ei_stereo_44KHz.wav
2	153	4	4	2	I	0	0	0	0	Ⴃ	cut_ui_stereo_44KHz.wav
2	154	1	2	0	C	2	0	905	0	Ⴡ	cut_oei_stereo_44KHz.wav
2	155	3	3	2	I	1	0	804	1	Ⴟ	cut_n_stereo_44KHz.wav
2	156	2	1	0	C	2	0	999	0	Ⴊ	cut_ei_stereo_44KHz.wav
2	157	4	3	2	I	2	0	1241	1	Ⴃ	cut_n_stereo_44KHz.wav
2	158	1	1	1	C	1	0	820	0	Ⴡ	cut_ei_stereo_44KHz.wav
2	159	2	2	1	C	2	1	619	1	Ⴊ	cut_oei_stereo_44KHz.wav
2	160	3	4	2	I	2	0	1104	1	Ⴟ	cut_ui_stereo_44KHz.wav
2	161	1	2	0	C	2	0	1195	0	Ⴡ	cut_oei_stereo_44KHz.wav
2	162	3	3	2	I	2	0	1172	0	Ⴟ	cut_n_stereo_44KHz.wav
2	163	4	3	2	I	1	0	852	1	Ⴃ	cut_n_stereo_44KHz.wav
2	164	2	1	0	C	2	0	1218	0	Ⴊ	cut_ei_stereo_44KHz.wav
2	165	3	4	2	I	1	0	541	0	Ⴟ	cut_ui_stereo_44KHz.wav
2	166	2	2	1	C	0	0	0	0	Ⴊ	cut_oei_stereo_44KHz.wav
2	167	4	4	2	I	1	0	780	1	Ⴃ	cut_ui_stereo_44KHz.wav
2	168	1	1	1	C	2	1	936	1	Ⴡ	cut_ei_stereo_44KHz.wav
2	169	4	3	2	I	2	0	1170	1	Ⴃ	cut_n_stereo_44KHz.wav
2	170	1	1	1	C	2	1	807	1	Ⴡ	cut_ei_stereo_44KHz.wav
2	171	2	1	0	C	0	0	0	0	Ⴊ	cut_ei_stereo_44KHz.wav
2	172	3	4	2	I	2	0	558	1	Ⴟ	cut_ui_stereo_44KHz.wav
2	173	2	2	1	C	1	0	487	0	Ⴊ	cut_oei_stereo_44KHz.wav
2	174	1	2	0	C	2	0	720	0	Ⴡ	cut_oei_stereo_44KHz.wav
2	175	3	3	2	I	0	0	0	0	Ⴟ	cut_n_stereo_44KHz.wav
2	176	4	4	2	I	0	0	0	0	Ⴃ	cut_ui_stereo_44KHz.wav
2	177	1	1	1	C	1	0	1546	0	Ⴡ	cut_ei_stereo_44KHz.wav
2	178	2	2	1	C	2	1	874	1	Ⴊ	cut_oei_stereo_44KHz.wav
2	179	4	3	2	I	2	0	917	1	Ⴃ	cut_n_stereo_44KHz.wav
2	180	3	4	2	I	2	0	621	0	Ⴟ	cut_ui_stereo_44KHz.wav
2	181	4	4	2	I	1	0	1269	0	Ⴃ	cut_ui_stereo_44KHz.wav
2	182	3	3	2	I	2	0	824	1	Ⴟ	cut_n_stereo_44KHz.wav
2	183	1	2	0	C	1	1	1752	1	Ⴡ	cut_oei_stereo_44KHz.wav
2	184	2	1	0	C	1	1	454	1	Ⴊ	cut_ei_stereo_44KHz.wav
2	185	1	2	0	C	2	0	1235	0	Ⴡ	cut_oei_stereo_44KHz.wav
2	186	3	3	2	I	1	0	740	0	Ⴟ	cut_n_stereo_44KHz.wav
2	187	2	1	0	C	2	0	439	0	Ⴊ	cut_ei_stereo_44KHz.wav
2	188	4	3	2	I	1	0	1858	0	Ⴃ	cut_n_stereo_44KHz.wav
2	189	3	4	2	I	1	0	586	0	Ⴟ	cut_ui_stereo_44KHz.wav
2	190	2	2	1	C	1	0	557	0	Ⴊ	cut_oei_stereo_44KHz.wav
2	191	4	4	2	I	2	0	602	1	Ⴃ	cut_ui_stereo_44KHz.wav
2	192	1	1	1	C	1	0	1639	0	Ⴡ	cut_ei_stereo_44KHz.wav
2	193	2	1	0	C	2	0	1378	0	Ⴊ	cut_ei_stereo_44KHz.wav
2	194	3	3	2	I	0	0	0	0	Ⴟ	cut_n_stereo_44KHz.wav
2	195	4	4	2	I	0	0	0	0	Ⴃ	cut_ui_stereo_44KHz.wav
2	196	1	1	1	C	2	1	480	1	Ⴡ	cut_ei_stereo_44KHz.wav
2	197	3	4	2	I	2	0	1852	1	Ⴟ	cut_ui_stereo_44KHz.wav
2	198	1	2	0	C	1	1	944	1	Ⴡ	cut_oei_stereo_44KHz.wav
2	199	4	3	2	I	2	0	1093	1	Ⴃ	cut_n_stereo_44KHz.wav
2	200	2	2	1	C	1	0	615	0	Ⴊ	cut_oei_stereo_44KHz.wav
3	1	1	2	0	C	0	0	0	0	Ⴌ	cut_r_stereo_44KHz.wav
3	2	2	2	1	C	2	1	514	1	Ⴐ	cut_r_stereo_44KHz.wav
3	3	4	4	2	I	1	0	638	1	Ⴒ	cut_f_stereo_44KHz.wav
3	4	3	3	2	I	2	0	642	1	Ⴔ	cut_s_stereo_44KHz.wav
3	5	4	3	2	I	1	0	621	1	Ⴒ	cut_s_stereo_44KHz.wav
3	6	3	4	2	I	2	0	363	1	Ⴔ	cut_f_stereo_44KHz.wav
3	7	2	1	0	C	1	1	390	1	Ⴐ	cut_j_stereo_44KHz.wav
3	8	1	1	1	C	1	0	869	0	Ⴌ	cut_j_stereo_44KHz.wav
3	9	3	3	2	I	2	0	780	1	Ⴔ	cut_s_stereo_44KHz.wav
3	10	1	2	0	C	1	1	492	1	Ⴌ	cut_r_stereo_44KHz.wav
3	11	4	4	2	I	1	0	635	0	Ⴒ	cut_f_stereo_44KHz.wav
3	12	2	2	1	C	2	1	599	1	Ⴐ	cut_r_stereo_44KHz.wav
3	13	1	1	1	C	1	0	619	0	Ⴌ	cut_j_stereo_44KHz.wav
3	14	2	1	0	C	2	0	624	0	Ⴐ	cut_j_stereo_44KHz.wav
3	15	3	4	2	I	2	0	1482	1	Ⴔ	cut_f_stereo_44KHz.wav
3	16	4	3	2	I	2	0	1266	0	Ⴒ	cut_s_stereo_44KHz.wav
3	17	3	4	2	I	2	0	1719	1	Ⴔ	cut_f_stereo_44KHz.wav
3	18	1	1	1	C	1	0	898	0	Ⴌ	cut_j_stereo_44KHz.wav
3	19	4	4	2	I	2	0	1395	1	Ⴒ	cut_f_stereo_44KHz.wav
3	20	2	1	0	C	1	1	946	1	Ⴐ	cut_j_stereo_44KHz.wav
3	21	4	3	2	I	2	0	1585	1	Ⴒ	cut_s_stereo_44KHz.wav
3	22	3	3	2	I	1	0	1452	1	Ⴔ	cut_s_stereo_44KHz.wav
3	23	2	2	1	C	2	1	455	1	Ⴐ	cut_r_stereo_44KHz.wav
3	24	1	2	0	C	2	0	609	0	Ⴌ	cut_r_stereo_44KHz.wav
3	25	4	4	2	I	1	0	1140	1	Ⴒ	cut_f_stereo_44KHz.wav
3	26	2	2	1	C	2	1	1340	1	Ⴐ	cut_r_stereo_44KHz.wav
3	27	3	4	2	I	1	0	778	0	Ⴔ	cut_f_stereo_44KHz.wav
3	28	1	2	0	C	2	0	503	0	Ⴌ	cut_r_stereo_44KHz.wav
3	29	4	3	2	I	1	0	654	1	Ⴒ	cut_s_stereo_44KHz.wav
3	30	1	1	1	C	2	1	160	1	Ⴌ	cut_j_stereo_44KHz.wav
3	31	2	1	0	C	1	1	444	1	Ⴐ	cut_j_stereo_44KHz.wav
3	32	3	3	2	I	1	0	1969	1	Ⴔ	cut_s_stereo_44KHz.wav
3	33	2	1	0	C	1	1	715	1	Ⴐ	cut_j_stereo_44KHz.wav
3	34	1	1	1	C	1	0	595	0	Ⴌ	cut_j_stereo_44KHz.wav
3	35	3	4	2	I	2	0	648	1	Ⴔ	cut_f_stereo_44KHz.wav
3	36	4	4	2	I	1	0	790	0	Ⴒ	cut_f_stereo_44KHz.wav
3	37	2	2	1	C	2	1	1660	1	Ⴐ	cut_r_stereo_44KHz.wav
3	38	4	3	2	I	0	0	0	0	Ⴒ	cut_s_stereo_44KHz.wav
3	39	3	3	2	I	2	0	1782	1	Ⴔ	cut_s_stereo_44KHz.wav
3	40	1	2	0	C	1	1	729	1	Ⴌ	cut_r_stereo_44KHz.wav
3	41	4	3	2	I	2	0	816	1	Ⴒ	cut_s_stereo_44KHz.wav
3	42	2	1	0	C	1	1	1090	1	Ⴐ	cut_j_stereo_44KHz.wav
3	43	1	1	1	C	1	0	1692	0	Ⴌ	cut_j_stereo_44KHz.wav
3	44	3	3	2	I	2	0	1232	1	Ⴔ	cut_s_stereo_44KHz.wav
3	45	1	2	0	C	1	1	353	1	Ⴌ	cut_r_stereo_44KHz.wav
3	46	2	2	1	C	2	1	787	1	Ⴐ	cut_r_stereo_44KHz.wav
3	47	3	4	2	I	2	0	735	1	Ⴔ	cut_f_stereo_44KHz.wav
3	48	4	4	2	I	2	0	345	1	Ⴒ	cut_f_stereo_44KHz.wav
3	49	1	2	0	C	1	1	454	1	Ⴌ	cut_r_stereo_44KHz.wav
3	50	4	4	2	I	2	0	774	0	Ⴒ	cut_f_stereo_44KHz.wav
3	51	2	2	1	C	1	0	621	0	Ⴐ	cut_r_stereo_44KHz.wav
3	52	3	3	2	I	2	0	1573	1	Ⴔ	cut_s_stereo_44KHz.wav
3	53	1	1	1	C	1	0	772	0	Ⴌ	cut_j_stereo_44KHz.wav
3	54	3	4	2	I	2	0	1217	1	Ⴔ	cut_f_stereo_44KHz.wav
3	55	4	3	2	I	1	0	655	1	Ⴒ	cut_s_stereo_44KHz.wav
3	56	2	1	0	C	2	0	986	0	Ⴐ	cut_j_stereo_44KHz.wav
3	57	1	1	1	C	1	0	1280	0	Ⴌ	cut_j_stereo_44KHz.wav
3	58	3	3	2	I	2	0	616	0	Ⴔ	cut_s_stereo_44KHz.wav
3	59	4	4	2	I	1	0	1878	1	Ⴒ	cut_f_stereo_44KHz.wav
3	60	2	1	0	C	1	1	843	1	Ⴐ	cut_j_stereo_44KHz.wav
3	61	1	2	0	C	0	0	0	0	Ⴌ	cut_r_stereo_44KHz.wav
3	62	4	3	2	I	1	0	1616	1	Ⴒ	cut_s_stereo_44KHz.wav
3	63	3	4	2	I	2	0	797	0	Ⴔ	cut_f_stereo_44KHz.wav
3	64	2	2	1	C	1	0	539	0	Ⴐ	cut_r_stereo_44KHz.wav
3	65	4	3	2	I	2	0	702	1	Ⴒ	cut_s_stereo_44KHz.wav
3	66	3	3	2	I	0	0	0	0	Ⴔ	cut_s_stereo_44KHz.wav
3	67	2	2	1	C	2	1	1247	1	Ⴐ	cut_r_stereo_44KHz.wav
3	68	1	1	1	C	2	1	1456	1	Ⴌ	cut_j_stereo_44KHz.wav
3	69	2	1	0	C	1	1	1695	1	Ⴐ	cut_j_stereo_44KHz.wav
3	70	4	4	2	I	1	0	1374	1	Ⴒ	cut_f_stereo_44KHz.wav
3	71	1	2	0	C	1	1	879	1	Ⴌ	cut_r_stereo_44KHz.wav
3	72	3	4	2	I	2	0	575	1	Ⴔ	cut_f_stereo_44KHz.wav
3	73	2	2	1	C	2	1	1113	1	Ⴐ	cut_r_stereo_44KHz.wav
3	74	4	3	2	I	2	0	925	1	Ⴒ	cut_s_stereo_44KHz.wav
3	75	3	3	2	I	2	0	757	1	Ⴔ	cut_s_stereo_44KHz.wav
3	76	1	1	1	C	2	1	1379	1	Ⴌ	cut_j_stereo_44KHz.wav
3	77	2	1	0	C	1	1	575	1	Ⴐ	cut_j_stereo_44KHz.wav
3	78	3	4	2	I	2	0	1201	1	Ⴔ	cut_f_stereo_44KHz.wav
3	79	4	4	2	I	2	0	738	1	Ⴒ	cut_f_stereo_44KHz.wav
3	80	1	2	0	C	2	0	1063	0	Ⴌ	cut_r_stereo_44KHz.wav
3	81	3	4	2	I	2	0	870	1	Ⴔ	cut_f_stereo_44KHz.wav
3	82	4	3	2	I	1	0	1502	1	Ⴒ	cut_s_stereo_44KHz.wav
3	83	2	2	1	C	2	1	1353	1	Ⴐ	cut_r_stereo_44KHz.wav
3	84	1	1	1	C	2	1	1173	1	Ⴌ	cut_j_stereo_44KHz.wav
3	85	3	3	2	I	2	0	1939	0	Ⴔ	cut_s_stereo_44KHz.wav
3	86	1	2	0	C	1	1	1324	1	Ⴌ	cut_r_stereo_44KHz.wav
3	87	4	4	2	I	2	0	1009	1	Ⴒ	cut_f_stereo_44KHz.wav
3	88	2	1	0	C	1	1	783	1	Ⴐ	cut_j_stereo_44KHz.wav
3	89	3	3	2	I	1	0	1316	1	Ⴔ	cut_s_stereo_44KHz.wav
3	90	4	3	2	I	1	0	1100	1	Ⴒ	cut_s_stereo_44KHz.wav
3	91	1	1	1	C	2	1	324	1	Ⴌ	cut_j_stereo_44KHz.wav
3	92	2	2	1	C	0	0	0	0	Ⴐ	cut_r_stereo_44KHz.wav
3	93	1	2	0	C	1	1	1359	1	Ⴌ	cut_r_stereo_44KHz.wav
3	94	4	4	2	I	0	0	0	0	Ⴒ	cut_f_stereo_44KHz.wav
3	95	2	1	0	C	2	0	819	0	Ⴐ	cut_j_stereo_44KHz.wav
3	96	3	4	2	I	2	0	443	1	Ⴔ	cut_f_stereo_44KHz.wav
3	97	1	2	0	C	1	1	1092	1	Ⴌ	cut_r_stereo_44KHz.wav
3	98	3	4	2	I	0	0	0	0	Ⴔ	cut_f_stereo_44KHz.wav
3	99	4	4	2	I	1	0	1610	1	Ⴒ	cut_f_stereo_44KHz.wav
3	100	2	1	0	C	2	0	677	0	Ⴐ	cut_j_stereo_44KHz.wav
3	101	1	1	1	C	1	0	829	0	Ⴌ	cut_j_stereo_44KHz.wav
3	102	2	2	1	C	2	1	429	1	Ⴐ	cut_r_stereo_44KHz.wav
3	103	4	3	2	I	2	0	991	1	Ⴒ	cut_s_stereo_44KHz.wav
3	104	3	3	2	I	1	0	1950	1	Ⴔ	cut_s_stereo_44KHz.wav
3	105	4	3	2	I	2	0	1038	1	Ⴒ	cut_s_stereo_44KHz.wav
3	106	1	1	1	C	2	1	1269	1	Ⴌ	cut_j_stereo_44KHz.wav
3	107	3	4	2	I	1	0	653	0	Ⴔ	cut_f_stereo_44KHz.wav
3	108	2	1	0	C	2	0	706	0	Ⴐ	cut_j_stereo_44KHz.wav
3	109	4	4	2	I	1	0	1085	0	Ⴒ	cut_f_stereo_44KHz.wav
3	110	1	2	0	C	2	0	475	0	Ⴌ	cut_r_stereo_44KHz.wav
3	111	2	2	1	C	0	0	0	0	Ⴐ	cut_r_stereo_44KHz.wav
3	112	3	3	2	I	2	0	1681	1	Ⴔ	cut_s_stereo_44KHz.wav
3	113	1	1	1	C	2	1	848	1	Ⴌ	cut_j_stereo_44KHz.wav
3	114	2	1	0	C	1	1	929	1	Ⴐ	cut_j_stereo_44KHz.wav
3	115	4	4	2	I	2	0	1102	1	Ⴒ	cut_f_stereo_44KHz.wav
3	116	3	4	2	I	0	0	0	0	Ⴔ	cut_f_stereo_44KHz.wav
3	117	2	2	1	C	1	0	1441	0	Ⴐ	cut_r_stereo_44KHz.wav
3	118	4	3	2	I	0	0	0	0	Ⴒ	cut_s_stereo_44KHz.wav
3	119	3	3	2	I	1	0	1464	1	Ⴔ	cut_s_stereo_44KHz.wav
3	120	1	2	0	C	2	0	1069	0	Ⴌ	cut_r_stereo_44KHz.wav
3	121	3	3	2	I	0	0	0	0	Ⴔ	cut_s_stereo_44KHz.wav
3	122	2	2	1	C	2	1	729	1	Ⴐ	cut_r_stereo_44KHz.wav
3	123	1	2	0	C	0	0	0	0	Ⴌ	cut_r_stereo_44KHz.wav
3	124	4	3	2	I	2	0	1457	1	Ⴒ	cut_s_stereo_44KHz.wav
3	125	2	1	0	C	1	1	1224	1	Ⴐ	cut_j_stereo_44KHz.wav
3	126	3	4	2	I	1	0	742	1	Ⴔ	cut_f_stereo_44KHz.wav
3	127	4	4	2	I	0	0	0	0	Ⴒ	cut_f_stereo_44KHz.wav
3	128	1	1	1	C	2	1	1948	1	Ⴌ	cut_j_stereo_44KHz.wav
3	129	3	4	2	I	0	0	0	0	Ⴔ	cut_f_stereo_44KHz.wav
3	130	4	4	2	I	0	0	0	0	Ⴒ	cut_f_stereo_44KHz.wav
3	131	2	1	0	C	1	1	1351	1	Ⴐ	cut_j_stereo_44KHz.wav
3	132	1	1	1	C	1	0	1980	0	Ⴌ	cut_j_stereo_44KHz.wav
3	133	2	2	1	C	2	1	1930	1	Ⴐ	cut_r_stereo_44KHz.wav
3	134	4	3	2	I	1	0	1920	1	Ⴒ	cut_s_stereo_44KHz.wav
3	135	3	3	2	I	2	0	1452	1	Ⴔ	cut_s_stereo_44KHz.wav
3	136	1	2	0	C	2	0	941	0	Ⴌ	cut_r_stereo_44KHz.wav
3	137	3	3	2	I	1	0	1141	0	Ⴔ	cut_s_stereo_44KHz.wav
3	138	1	2	0	C	2	0	770	0	Ⴌ	cut_r_stereo_44KHz.wav
3	139	2	1	0	C	1	1	724	1	Ⴐ	cut_j_stereo_44KHz.wav
3	140	4	4	2	I	2	0	1459	1	Ⴒ	cut_f_stereo_44KHz.wav
3	141	2	2	1	C	2	1	1839	1	Ⴐ	cut_r_stereo_44KHz.wav
3	142	1	1	1	C	1	0	1049	0	Ⴌ	cut_j_stereo_44KHz.wav
3	143	4	3	2	I	2	0	713	1	Ⴒ	cut_s_stereo_44KHz.wav
3	144	3	4	2	I	0	0	0	0	Ⴔ	cut_f_stereo_44KHz.wav
3	145	1	2	0	C	2	0	134	0	Ⴌ	cut_r_stereo_44KHz.wav
3	146	2	2	1	C	2	1	1262	1	Ⴐ	cut_r_stereo_44KHz.wav
3	147	3	4	2	I	1	0	1603	1	Ⴔ	cut_f_stereo_44KHz.wav
3	148	4	3	2	I	2	0	914	1	Ⴒ	cut_s_stereo_44KHz.wav
3	149	2	1	0	C	2	0	1331	0	Ⴐ	cut_j_stereo_44KHz.wav
3	150	1	1	1	C	1	0	894	0	Ⴌ	cut_j_stereo_44KHz.wav
3	151	4	4	2	I	2	0	734	1	Ⴒ	cut_f_stereo_44KHz.wav
3	152	3	3	2	I	1	0	744	1	Ⴔ	cut_s_stereo_44KHz.wav
3	153	4	4	2	I	1	0	675	1	Ⴒ	cut_f_stereo_44KHz.wav
3	154	1	2	0	C	2	0	948	0	Ⴌ	cut_r_stereo_44KHz.wav
3	155	2	1	0	C	0	0	0	0	Ⴐ	cut_j_stereo_44KHz.wav
3	156	3	3	2	I	1	0	740	1	Ⴔ	cut_s_stereo_44KHz.wav
3	157	4	3	2	I	2	0	548	1	Ⴒ	cut_s_stereo_44KHz.wav
3	158	1	1	1	C	1	0	744	0	Ⴌ	cut_j_stereo_44KHz.wav
3	159	2	2	1	C	1	0	882	0	Ⴐ	cut_r_stereo_44KHz.wav
3	160	3	4	2	I	1	0	853	0	Ⴔ	cut_f_stereo_44KHz.wav
3	161	4	3	2	I	2	0	1452	0	Ⴒ	cut_s_stereo_44KHz.wav
3	162	3	4	2	I	1	0	605	1	Ⴔ	cut_f_stereo_44KHz.wav
3	163	2	2	1	C	2	1	993	1	Ⴐ	cut_r_stereo_44KHz.wav
3	164	1	2	0	C	0	0	0	0	Ⴌ	cut_r_stereo_44KHz.wav
3	165	3	3	2	I	2	0	843	1	Ⴔ	cut_s_stereo_44KHz.wav
3	166	2	1	0	C	1	1	1049	1	Ⴐ	cut_j_stereo_44KHz.wav
3	167	1	1	1	C	2	1	910	1	Ⴌ	cut_j_stereo_44KHz.wav
3	168	4	4	2	I	2	0	1818	1	Ⴒ	cut_f_stereo_44KHz.wav
3	169	1	1	1	C	2	1	1430	1	Ⴌ	cut_j_stereo_44KHz.wav
3	170	2	2	1	C	2	1	1252	1	Ⴐ	cut_r_stereo_44KHz.wav
3	171	3	4	2	I	2	0	1176	1	Ⴔ	cut_f_stereo_44KHz.wav
3	172	4	3	2	I	2	0	1293	1	Ⴒ	cut_s_stereo_44KHz.wav
3	173	3	3	2	I	2	0	1299	1	Ⴔ	cut_s_stereo_44KHz.wav
3	174	4	4	2	I	2	0	1865	1	Ⴒ	cut_f_stereo_44KHz.wav
3	175	1	2	0	C	2	0	1602	0	Ⴌ	cut_r_stereo_44KHz.wav
3	176	2	1	0	C	1	1	1695	1	Ⴐ	cut_j_stereo_44KHz.wav
3	177	3	4	2	I	2	0	1928	1	Ⴔ	cut_f_stereo_44KHz.wav
3	178	4	4	2	I	2	0	598	0	Ⴒ	cut_f_stereo_44KHz.wav
3	179	1	2	0	C	1	1	1226	1	Ⴌ	cut_r_stereo_44KHz.wav
3	180	2	2	1	C	2	1	962	1	Ⴐ	cut_r_stereo_44KHz.wav
3	181	4	3	2	I	1	0	1351	1	Ⴒ	cut_s_stereo_44KHz.wav
3	182	3	3	2	I	1	0	1051	1	Ⴔ	cut_s_stereo_44KHz.wav
3	183	1	1	1	C	2	1	1124	1	Ⴌ	cut_j_stereo_44KHz.wav
3	184	2	1	0	C	1	1	578	1	Ⴐ	cut_j_stereo_44KHz.wav
3	185	4	4	2	I	2	0	1001	1	Ⴒ	cut_f_stereo_44KHz.wav
3	186	1	1	1	C	2	1	1392	1	Ⴌ	cut_j_stereo_44KHz.wav
3	187	3	4	2	I	0	0	0	0	Ⴔ	cut_f_stereo_44KHz.wav
3	188	2	1	0	C	1	1	857	1	Ⴐ	cut_j_stereo_44KHz.wav
3	189	4	3	2	I	1	0	1095	1	Ⴒ	cut_s_stereo_44KHz.wav
3	190	2	2	1	C	2	1	990	1	Ⴐ	cut_r_stereo_44KHz.wav
3	191	3	3	2	I	2	0	813	1	Ⴔ	cut_s_stereo_44KHz.wav
3	192	1	2	0	C	0	0	0	0	Ⴌ	cut_r_stereo_44KHz.wav
3	193	3	3	2	I	2	0	747	1	Ⴔ	cut_s_stereo_44KHz.wav
3	194	4	3	2	I	1	0	1005	1	Ⴒ	cut_s_stereo_44KHz.wav
3	195	1	1	1	C	1	0	1130	0	Ⴌ	cut_j_stereo_44KHz.wav
3	196	2	1	0	C	1	1	1104	1	Ⴐ	cut_j_stereo_44KHz.wav
3	197	3	4	2	I	1	0	1163	0	Ⴔ	cut_f_stereo_44KHz.wav
3	198	2	2	1	C	0	0	0	0	Ⴐ	cut_r_stereo_44KHz.wav
3	199	1	2	0	C	2	0	1296	0	Ⴌ	cut_r_stereo_44KHz.wav
3	200	4	4	2	I	2	0	922	1	Ⴒ	cut_f_stereo_44KHz.wav
4	1	1	1	1	C	0	0	0	0	Ⴂ	cut_u_stereo_44KHz.wav
4	2	3	4	2	I	2	0	1258	1	Ⴜ	cut_a_stereo_44KHz.wav
4	3	4	3	2	I	1	0	727	1	Ⴇ	cut_k_stereo_44KHz.wav
4	4	2	1	0	C	2	0	1017	0	Ⴁ	cut_u_stereo_44KHz.wav
4	5	3	3	2	I	1	0	358	0	Ⴜ	cut_k_stereo_44KHz.wav
4	6	1	2	0	C	2	0	852	0	Ⴂ	cut_o_stereo_44KHz.wav
4	7	2	2	1	C	2	1	305	1	Ⴁ	cut_o_stereo_44KHz.wav
4	8	4	4	2	I	1	0	464	0	Ⴇ	cut_a_stereo_44KHz.wav
4	9	2	1	0	C	2	0	430	0	Ⴁ	cut_u_stereo_44KHz.wav
4	10	1	2	0	C	0	0	0	0	Ⴂ	cut_o_stereo_44KHz.wav
4	11	3	4	2	I	2	0	336	1	Ⴜ	cut_a_stereo_44KHz.wav
4	12	4	4	2	I	1	0	324	1	Ⴇ	cut_a_stereo_44KHz.wav
4	13	1	1	1	C	1	0	874	0	Ⴂ	cut_u_stereo_44KHz.wav
4	14	2	2	1	C	2	1	812	1	Ⴁ	cut_o_stereo_44KHz.wav
4	15	4	3	2	I	1	0	744	1	Ⴇ	cut_k_stereo_44KHz.wav
4	16	3	3	2	I	2	0	1001	1	Ⴜ	cut_k_stereo_44KHz.wav
4	17	1	2	0	C	1	1	339	1	Ⴂ	cut_o_stereo_44KHz.wav
4	18	3	4	2	I	2	0	641	1	Ⴜ	cut_a_stereo_44KHz.wav
4	19	2	2	1	C	1	0	437	0	Ⴁ	cut_o_stereo_44KHz.wav
4	20	4	4	2	I	2	0	403	1	Ⴇ	cut_a_stereo_44KHz.wav
4	21	3	3	2	I	2	0	542	1	Ⴜ	cut_k_stereo_44KHz.wav
4	22	4	3	2	I	2	0	495	0	Ⴇ	cut_k_stereo_44KHz.wav
4	23	1	1	1	C	1	0	488	0	Ⴂ	cut_u_stereo_44KHz.wav
4	24	2	1	0	C	1	1	1162	1	Ⴁ	cut_u_stereo_44KHz.wav
4	25	1	2	0	C	2	0	920	0	Ⴂ	cut_o_stereo_44KHz.wav
4	26	4	4	2	I	1	0	717	1	Ⴇ	cut_a_stereo_44KHz.wav
4	27	3	3	2	I	2	0	974	1	Ⴜ	cut_k_stereo_44KHz.wav
4	28	2	2	1	C	1	0	344	0	Ⴁ	cut_o_stereo_44KHz.wav
4	29	4	3	2	I	2	0	688	1	Ⴇ	cut_k_stereo_44KHz.wav
4	30	2	1	0	C	2	0	1096	0	Ⴁ	cut_u_stereo_44KHz.wav
4	31	3	4	2	I	1	0	1117	1	Ⴜ	cut_a_stereo_44KHz.wav
4	32	1	1	1	C	0	0	0	0	Ⴂ	cut_u_stereo_44KHz.wav
4	33	4	4	2	I	1	0	1038	1	Ⴇ	cut_a_stereo_44KHz.wav
4	34	2	1	0	C	1	1	1640	1	Ⴁ	cut_u_stereo_44KHz.wav
4	35	3	3	2	I	1	0	1106	1	Ⴜ	cut_k_stereo_44KHz.wav
4	36	1	1	1	C	0	0	0	0	Ⴂ	cut_u_stereo_44KHz.wav
4	37	2	2	1	C	0	0	0	0	Ⴁ	cut_o_stereo_44KHz.wav
4	38	1	2	0	C	1	1	1768	1	Ⴂ	cut_o_stereo_44KHz.wav
4	39	4	3	2	I	2	0	583	1	Ⴇ	cut_k_stereo_44KHz.wav
4	40	3	4	2	I	2	0	393	1	Ⴜ	cut_a_stereo_44KHz.wav
4	41	2	2	1	C	1	0	693	0	Ⴁ	cut_o_stereo_44KHz.wav
4	42	4	3	2	I	2	0	703	0	Ⴇ	cut_k_stereo_44KHz.wav
4	43	3	4	2	I	1	0	1217	1	Ⴜ	cut_a_stereo_44KHz.wav
4	44	1	2	0	C	2	0	785	0	Ⴂ	cut_o_stereo_44KHz.wav
4	45	2	1	0	C	2	0	688	0	Ⴁ	cut_u_stereo_44KHz.wav
4	46	4	4	2	I	1	0	553	1	Ⴇ	cut_a_stereo_44KHz.wav
4	47	3	3	2	I	2	0	857	1	Ⴜ	cut_k_stereo_44KHz.wav
4	48	1	1	1	C	1	0	528	0	Ⴂ	cut_u_stereo_44KHz.wav
4	49	3	4	2	I	2	0	341	0	Ⴜ	cut_a_stereo_44KHz.wav
4	50	1	2	0	C	1	1	977	1	Ⴂ	cut_o_stereo_44KHz.wav
4	51	4	4	2	I	2	0	408	1	Ⴇ	cut_a_stereo_44KHz.wav
4	52	2	1	0	C	0	0	0	0	Ⴁ	cut_u_stereo_44KHz.wav
4	53	4	3	2	I	2	0	1023	1	Ⴇ	cut_k_stereo_44KHz.wav
4	54	3	3	2	I	0	0	0	0	Ⴜ	cut_k_stereo_44KHz.wav
4	55	1	1	1	C	2	1	660	1	Ⴂ	cut_u_stereo_44KHz.wav
4	56	2	2	1	C	1	0	438	0	Ⴁ	cut_o_stereo_44KHz.wav
4	57	4	3	2	I	2	0	539	0	Ⴇ	cut_k_stereo_44KHz.wav
4	58	2	1	0	C	2	0	767	0	Ⴁ	cut_u_stereo_44KHz.wav
4	59	3	3	2	I	1	0	585	1	Ⴜ	cut_k_stereo_44KHz.wav
4	60	1	2	0	C	2	0	808	0	Ⴂ	cut_o_stereo_44KHz.wav
4	61	2	2	1	C	2	1	1364	1	Ⴁ	cut_o_stereo_44KHz.wav
4	62	1	1	1	C	1	0	620	0	Ⴂ	cut_u_stereo_44KHz.wav
4	63	3	4	2	I	2	0	793	1	Ⴜ	cut_a_stereo_44KHz.wav
4	64	4	4	2	I	2	0	760	1	Ⴇ	cut_a_stereo_44KHz.wav
4	65	1	2	0	C	1	1	406	1	Ⴂ	cut_o_stereo_44KHz.wav
4	66	2	2	1	C	2	1	350	1	Ⴁ	cut_o_stereo_44KHz.wav
4	67	3	3	2	I	1	0	467	1	Ⴜ	cut_k_stereo_44KHz.wav
4	68	4	4	2	I	1	0	805	0	Ⴇ	cut_a_stereo_44KHz.wav
4	69	1	1	1	C	2	1	429	1	Ⴂ	cut_u_stereo_44KHz.wav
4	70	4	3	2	I	2	0	1065	1	Ⴇ	cut_k_stereo_44KHz.wav
4	71	2	1	0	C	1	1	425	1	Ⴁ	cut_u_stereo_44KHz.wav
4	72	3	4	2	I	2	0	466	1	Ⴜ	cut_a_stereo_44KHz.wav
4	73	2	2	1	C	1	0	1056	0	Ⴁ	cut_o_stereo_44KHz.wav
4	74	4	4	2	I	2	0	347	1	Ⴇ	cut_a_stereo_44KHz.wav
4	75	1	1	1	C	2	1	518	1	Ⴂ	cut_u_stereo_44KHz.wav
4	76	3	4	2	I	1	0	293	1	Ⴜ	cut_a_stereo_44KHz.wav
4	77	2	1	0	C	2	0	308	0	Ⴁ	cut_u_stereo_44KHz.wav
4	78	4	3	2	I	1	0	491	1	Ⴇ	cut_k_stereo_44KHz.wav
4	79	1	2	0	C	1	1	505	1	Ⴂ	cut_o_stereo_44KHz.wav
4	80	3	3	2	I	2	0	1317	1	Ⴜ	cut_k_stereo_44KHz.wav
4	81	2	2	1	C	1	0	8	0	Ⴁ	cut_o_stereo_44KHz.wav
4	82	1	2	0	C	2	0	1613	0	Ⴂ	cut_o_stereo_44KHz.wav
4	83	3	4	2	I	2	0	272	1	Ⴜ	cut_a_stereo_44KHz.wav
4	84	4	4	2	I	1	0	602	1	Ⴇ	cut_a_stereo_44KHz.wav
4	85	3	3	2	I	2	0	534	0	Ⴜ	cut_k_stereo_44KHz.wav
4	86	4	3	2	I	1	0	725	1	Ⴇ	cut_k_stereo_44KHz.wav
4	87	2	1	0	C	2	0	508	0	Ⴁ	cut_u_stereo_44KHz.wav
4	88	1	1	1	C	1	0	918	0	Ⴂ	cut_u_stereo_44KHz.wav
4	89	3	4	2	I	2	0	604	1	Ⴜ	cut_a_stereo_44KHz.wav
4	90	4	4	2	I	2	0	431	1	Ⴇ	cut_a_stereo_44KHz.wav
4	91	1	1	1	C	1	0	755	0	Ⴂ	cut_u_stereo_44KHz.wav
4	92	2	2	1	C	2	1	747	1	Ⴁ	cut_o_stereo_44KHz.wav
4	93	1	2	0	C	1	1	667	1	Ⴂ	cut_o_stereo_44KHz.wav
4	94	3	3	2	I	2	0	578	0	Ⴜ	cut_k_stereo_44KHz.wav
4	95	2	1	0	C	1	1	1307	1	Ⴁ	cut_u_stereo_44KHz.wav
4	96	4	3	2	I	2	0	1103	1	Ⴇ	cut_k_stereo_44KHz.wav
4	97	1	1	1	C	2	1	655	1	Ⴂ	cut_u_stereo_44KHz.wav
4	98	3	4	2	I	1	0	1036	1	Ⴜ	cut_a_stereo_44KHz.wav
4	99	4	4	2	I	2	0	458	1	Ⴇ	cut_a_stereo_44KHz.wav
4	100	2	2	1	C	2	1	626	1	Ⴁ	cut_o_stereo_44KHz.wav
4	101	3	3	2	I	2	0	600	0	Ⴜ	cut_k_stereo_44KHz.wav
4	102	1	2	0	C	0	0	0	0	Ⴂ	cut_o_stereo_44KHz.wav
4	103	2	1	0	C	1	1	1914	1	Ⴁ	cut_u_stereo_44KHz.wav
4	104	4	3	2	I	2	0	1551	1	Ⴇ	cut_k_stereo_44KHz.wav
4	105	3	4	2	I	1	0	1142	1	Ⴜ	cut_a_stereo_44KHz.wav
4	106	1	2	0	C	2	0	508	0	Ⴂ	cut_o_stereo_44KHz.wav
4	107	4	3	2	I	1	0	311	0	Ⴇ	cut_k_stereo_44KHz.wav
4	108	2	2	1	C	2	1	540	1	Ⴁ	cut_o_stereo_44KHz.wav
4	109	4	4	2	I	2	0	473	1	Ⴇ	cut_a_stereo_44KHz.wav
4	110	3	3	2	I	1	0	423	1	Ⴜ	cut_k_stereo_44KHz.wav
4	111	2	1	0	C	2	0	488	0	Ⴁ	cut_u_stereo_44KHz.wav
4	112	1	1	1	C	0	0	0	0	Ⴂ	cut_u_stereo_44KHz.wav
4	113	2	1	0	C	2	0	1029	0	Ⴁ	cut_u_stereo_44KHz.wav
4	114	4	3	2	I	1	0	1165	1	Ⴇ	cut_k_stereo_44KHz.wav
4	115	1	2	0	C	2	0	1196	0	Ⴂ	cut_o_stereo_44KHz.wav
4	116	3	4	2	I	1	0	372	1	Ⴜ	cut_a_stereo_44KHz.wav
4	117	2	2	1	C	1	0	1665	0	Ⴁ	cut_o_stereo_44KHz.wav
4	118	1	1	1	C	1	0	1623	0	Ⴂ	cut_u_stereo_44KHz.wav
4	119	3	3	2	I	2	0	1288	0	Ⴜ	cut_k_stereo_44KHz.wav
4	120	4	4	2	I	1	0	1625	1	Ⴇ	cut_a_stereo_44KHz.wav
4	121	3	3	2	I	2	0	907	1	Ⴜ	cut_k_stereo_44KHz.wav
4	122	1	2	0	C	2	0	1671	0	Ⴂ	cut_o_stereo_44KHz.wav
4	123	4	4	2	I	1	0	1107	0	Ⴇ	cut_a_stereo_44KHz.wav
4	124	2	1	0	C	2	0	748	0	Ⴁ	cut_u_stereo_44KHz.wav
4	125	4	3	2	I	0	0	0	0	Ⴇ	cut_k_stereo_44KHz.wav
4	126	1	1	1	C	2	1	1078	1	Ⴂ	cut_u_stereo_44KHz.wav
4	127	2	2	1	C	2	1	496	1	Ⴁ	cut_o_stereo_44KHz.wav
4	128	3	4	2	I	2	0	1572	0	Ⴜ	cut_a_stereo_44KHz.wav
4	129	4	3	2	I	2	0	416	1	Ⴇ	cut_k_stereo_44KHz.wav
4	130	3	4	2	I	2	0	49	1	Ⴜ	cut_a_stereo_44KHz.wav
4	131	2	2	1	C	2	1	1242	1	Ⴁ	cut_o_stereo_44KHz.wav
4	132	1	1	1	C	1	0	1018	0	Ⴂ	cut_u_stereo_44KHz.wav
4	133	3	3	2	I	2	0	1325	1	Ⴜ	cut_k_stereo_44KHz.wav
4	134	4	4	2	I	2	0	593	0	Ⴇ	cut_a_stereo_44KHz.wav
4	135	1	2	0	C	1	1	963	1	Ⴂ	cut_o_stereo_44KHz.wav
4	136	2	1	0	C	2	0	1222	0	Ⴁ	cut_u_stereo_44KHz.wav
4	137	3	4	2	I	0	0	0	0	Ⴜ	cut_a_stereo_44KHz.wav
4	138	4	3	2	I	2	0	1884	1	Ⴇ	cut_k_stereo_44KHz.wav
4	139	1	1	1	C	2	1	700	1	Ⴂ	cut_u_stereo_44KHz.wav
4	140	2	1	0	C	1	1	544	1	Ⴁ	cut_u_stereo_44KHz.wav
4	141	3	3	2	I	1	0	1161	1	Ⴜ	cut_k_stereo_44KHz.wav
4	142	1	2	0	C	2	0	469	0	Ⴂ	cut_o_stereo_44KHz.wav
4	143	4	4	2	I	1	0	429	1	Ⴇ	cut_a_stereo_44KHz.wav
4	144	2	2	1	C	2	1	647	1	Ⴁ	cut_o_stereo_44KHz.wav
4	145	3	4	2	I	2	0	902	1	Ⴜ	cut_a_stereo_44KHz.wav
4	146	1	1	1	C	2	1	689	1	Ⴂ	cut_u_stereo_44KHz.wav
4	147	4	4	2	I	1	0	398	1	Ⴇ	cut_a_stereo_44KHz.wav
4	148	2	2	1	C	2	1	1176	1	Ⴁ	cut_o_stereo_44KHz.wav
4	149	3	3	2	I	2	0	1013	1	Ⴜ	cut_k_stereo_44KHz.wav
4	150	2	1	0	C	1	1	1288	1	Ⴁ	cut_u_stereo_44KHz.wav
4	151	1	2	0	C	0	0	0	0	Ⴂ	cut_o_stereo_44KHz.wav
4	152	4	3	2	I	1	0	595	1	Ⴇ	cut_k_stereo_44KHz.wav
4	153	3	4	2	I	2	0	1013	1	Ⴜ	cut_a_stereo_44KHz.wav
4	154	1	2	0	C	1	1	498	1	Ⴂ	cut_o_stereo_44KHz.wav
4	155	2	1	0	C	2	0	827	0	Ⴁ	cut_u_stereo_44KHz.wav
4	156	4	3	2	I	1	0	634	1	Ⴇ	cut_k_stereo_44KHz.wav
4	157	2	2	1	C	1	0	557	0	Ⴁ	cut_o_stereo_44KHz.wav
4	158	4	4	2	I	1	0	877	1	Ⴇ	cut_a_stereo_44KHz.wav
4	159	1	1	1	C	0	0	0	0	Ⴂ	cut_u_stereo_44KHz.wav
4	160	3	3	2	I	1	0	319	0	Ⴜ	cut_k_stereo_44KHz.wav
4	161	4	3	2	I	2	0	291	1	Ⴇ	cut_k_stereo_44KHz.wav
4	162	2	1	0	C	2	0	556	0	Ⴁ	cut_u_stereo_44KHz.wav
4	163	1	1	1	C	2	1	428	1	Ⴂ	cut_u_stereo_44KHz.wav
4	164	3	4	2	I	2	0	1415	0	Ⴜ	cut_a_stereo_44KHz.wav
4	165	4	4	2	I	0	0	0	0	Ⴇ	cut_a_stereo_44KHz.wav
4	166	3	3	2	I	2	0	529	1	Ⴜ	cut_k_stereo_44KHz.wav
4	167	2	2	1	C	2	1	1667	1	Ⴁ	cut_o_stereo_44KHz.wav
4	168	1	2	0	C	2	0	716	0	Ⴂ	cut_o_stereo_44KHz.wav
4	169	2	2	1	C	2	1	959	1	Ⴁ	cut_o_stereo_44KHz.wav
4	170	3	4	2	I	2	0	728	1	Ⴜ	cut_a_stereo_44KHz.wav
4	171	4	3	2	I	1	0	1358	1	Ⴇ	cut_k_stereo_44KHz.wav
4	172	1	1	1	C	2	1	581	1	Ⴂ	cut_u_stereo_44KHz.wav
4	173	4	4	2	I	2	0	596	1	Ⴇ	cut_a_stereo_44KHz.wav
4	174	1	2	0	C	2	0	610	0	Ⴂ	cut_o_stereo_44KHz.wav
4	175	2	1	0	C	1	1	886	1	Ⴁ	cut_u_stereo_44KHz.wav
4	176	3	3	2	I	2	0	406	1	Ⴜ	cut_k_stereo_44KHz.wav
4	177	4	3	2	I	1	0	442	1	Ⴇ	cut_k_stereo_44KHz.wav
4	178	3	3	2	I	2	0	484	1	Ⴜ	cut_k_stereo_44KHz.wav
4	179	1	1	1	C	1	0	441	0	Ⴂ	cut_u_stereo_44KHz.wav
4	180	2	1	0	C	2	0	529	0	Ⴁ	cut_u_stereo_44KHz.wav
4	181	1	2	0	C	1	1	1239	1	Ⴂ	cut_o_stereo_44KHz.wav
4	182	3	4	2	I	2	0	580	1	Ⴜ	cut_a_stereo_44KHz.wav
4	183	2	2	1	C	1	0	969	0	Ⴁ	cut_o_stereo_44KHz.wav
4	184	4	4	2	I	2	0	375	1	Ⴇ	cut_a_stereo_44KHz.wav
4	185	2	2	1	C	2	1	1697	1	Ⴁ	cut_o_stereo_44KHz.wav
4	186	4	4	2	I	1	0	794	1	Ⴇ	cut_a_stereo_44KHz.wav
4	187	3	3	2	I	2	0	764	1	Ⴜ	cut_k_stereo_44KHz.wav
4	188	1	1	1	C	1	0	535	0	Ⴂ	cut_u_stereo_44KHz.wav
4	189	3	4	2	I	2	0	604	0	Ⴜ	cut_a_stereo_44KHz.wav
4	190	1	2	0	C	1	1	789	1	Ⴂ	cut_o_stereo_44KHz.wav
4	191	2	1	0	C	2	0	538	0	Ⴁ	cut_u_stereo_44KHz.wav
4	192	4	3	2	I	0	0	0	0	Ⴇ	cut_k_stereo_44KHz.wav
4	193	2	1	0	C	1	1	760	1	Ⴁ	cut_u_stereo_44KHz.wav
4	194	4	4	2	I	2	0	544	0	Ⴇ	cut_a_stereo_44KHz.wav
4	195	3	3	2	I	2	0	837	1	Ⴜ	cut_k_stereo_44KHz.wav
4	196	1	1	1	C	2	1	563	1	Ⴂ	cut_u_stereo_44KHz.wav
4	197	3	4	2	I	2	0	460	1	Ⴜ	cut_a_stereo_44KHz.wav
4	198	2	2	1	C	1	0	1475	0	Ⴁ	cut_o_stereo_44KHz.wav
4	199	4	3	2	I	2	0	1916	1	Ⴇ	cut_k_stereo_44KHz.wav
4	200	1	2	0	C	2	0	650	0	Ⴂ	cut_o_stereo_44KHz.wav
