block	trial	Vstim	Astim	match	C/I	resp	result	RT	fb	V-file	A-file
LR

0	1	2	3	1	C	0	0	0	0	Ⴉ	cut_oo_stereo_44KHz.wav
0	2	2	4	0	C	0	0	0	0	Ⴉ	cut_g_stereo_44KHz.wav
0	3	1	2	0	C	0	0	0	0	Ⴢ	cut_eeuw_stereo_44KHz.wav
0	4	1	1	1	C	2	1	1282	1	Ⴢ	cut_ee_stereo_44KHz.wav
0	5	2	3	1	C	2	1	1121	1	Ⴉ	cut_oo_stereo_44KHz.wav
0	6	1	2	0	C	2	0	701	0	Ⴢ	cut_eeuw_stereo_44KHz.wav
0	7	2	4	0	C	2	0	967	0	Ⴉ	cut_g_stereo_44KHz.wav
0	8	1	1	1	C	2	1	1333	1	Ⴢ	cut_ee_stereo_44KHz.wav
0	9	1	2	0	C	2	0	1278	0	Ⴢ	cut_eeuw_stereo_44KHz.wav
0	10	2	3	1	C	1	0	1727	0	Ⴉ	cut_oo_stereo_44KHz.wav
0	11	2	4	0	C	1	1	1232	1	Ⴉ	cut_g_stereo_44KHz.wav
0	12	1	1	1	C	0	0	0	0	Ⴢ	cut_ee_stereo_44KHz.wav
0	13	2	4	0	C	2	0	1817	0	Ⴉ	cut_g_stereo_44KHz.wav
0	14	2	3	1	C	1	0	1145	0	Ⴉ	cut_oo_stereo_44KHz.wav
0	15	1	1	1	C	1	0	764	0	Ⴢ	cut_ee_stereo_44KHz.wav
0	16	1	2	0	C	2	0	1002	0	Ⴢ	cut_eeuw_stereo_44KHz.wav
0	17	1	2	0	C	1	1	1234	1	Ⴢ	cut_eeuw_stereo_44KHz.wav
0	18	2	4	0	C	1	1	1050	1	Ⴉ	cut_g_stereo_44KHz.wav
0	19	2	3	1	C	1	0	755	0	Ⴉ	cut_oo_stereo_44KHz.wav
0	20	1	1	1	C	1	0	822	0	Ⴢ	cut_ee_stereo_44KHz.wav
0	21	2	4	0	C	1	1	1554	1	Ⴉ	cut_g_stereo_44KHz.wav
0	22	2	3	1	C	2	1	595	1	Ⴉ	cut_oo_stereo_44KHz.wav
0	23	1	2	0	C	1	1	785	1	Ⴢ	cut_eeuw_stereo_44KHz.wav
0	24	1	1	1	C	2	1	461	1	Ⴢ	cut_ee_stereo_44KHz.wav
0	25	2	3	1	C	1	0	487	0	Ⴉ	cut_oo_stereo_44KHz.wav
0	26	2	4	0	C	1	1	1371	1	Ⴉ	cut_g_stereo_44KHz.wav
0	27	1	1	1	C	2	1	442	1	Ⴢ	cut_ee_stereo_44KHz.wav
0	28	1	2	0	C	1	1	620	1	Ⴢ	cut_eeuw_stereo_44KHz.wav
0	29	1	1	1	C	2	1	476	1	Ⴢ	cut_ee_stereo_44KHz.wav
0	30	2	3	1	C	1	0	791	0	Ⴉ	cut_oo_stereo_44KHz.wav
avg_resp = 968
1	1	4	4	2	I	2	0	1405	1	Ⴖ	cut_u_stereo_44KHz.wav
1	2	1	2	0	C	2	0	1027	0	Ⴒ	cut_a_stereo_44KHz.wav
1	3	3	3	2	I	1	0	1095	0	Ⴌ	cut_k_stereo_44KHz.wav
1	4	2	2	1	C	2	1	1036	1	Ⴕ	cut_a_stereo_44KHz.wav
1	5	4	3	2	I	2	0	919	1	Ⴖ	cut_k_stereo_44KHz.wav
1	6	2	1	0	C	2	0	924	0	Ⴕ	cut_o_stereo_44KHz.wav
1	7	3	4	2	I	2	0	1258	1	Ⴌ	cut_u_stereo_44KHz.wav
1	8	1	1	1	C	1	0	1534	0	Ⴒ	cut_o_stereo_44KHz.wav
1	9	3	3	2	I	1	0	1244	1	Ⴌ	cut_k_stereo_44KHz.wav
1	10	4	4	2	I	1	0	855	1	Ⴖ	cut_u_stereo_44KHz.wav
1	11	1	2	0	C	2	0	955	0	Ⴒ	cut_a_stereo_44KHz.wav
1	12	2	1	0	C	2	0	931	0	Ⴕ	cut_o_stereo_44KHz.wav
1	13	1	1	1	C	1	0	1441	0	Ⴒ	cut_o_stereo_44KHz.wav
1	14	3	4	2	I	2	0	1034	1	Ⴌ	cut_u_stereo_44KHz.wav
1	15	4	3	2	I	2	0	1139	1	Ⴖ	cut_k_stereo_44KHz.wav
1	16	2	2	1	C	2	1	1295	1	Ⴕ	cut_a_stereo_44KHz.wav
1	17	1	1	1	C	2	1	1258	1	Ⴒ	cut_o_stereo_44KHz.wav
1	18	2	1	0	C	1	1	784	1	Ⴕ	cut_o_stereo_44KHz.wav
1	19	3	4	2	I	2	0	1064	1	Ⴌ	cut_u_stereo_44KHz.wav
1	20	4	4	2	I	1	0	917	1	Ⴖ	cut_u_stereo_44KHz.wav
1	21	3	3	2	I	1	0	993	1	Ⴌ	cut_k_stereo_44KHz.wav
1	22	2	2	1	C	2	1	933	1	Ⴕ	cut_a_stereo_44KHz.wav
1	23	1	2	0	C	1	1	918	1	Ⴒ	cut_a_stereo_44KHz.wav
1	24	4	3	2	I	2	0	945	1	Ⴖ	cut_k_stereo_44KHz.wav
1	25	2	2	1	C	2	1	1244	1	Ⴕ	cut_a_stereo_44KHz.wav
1	26	1	1	1	C	2	1	1802	1	Ⴒ	cut_o_stereo_44KHz.wav
1	27	3	4	2	I	2	0	834	1	Ⴌ	cut_u_stereo_44KHz.wav
1	28	4	3	2	I	2	0	976	1	Ⴖ	cut_k_stereo_44KHz.wav
1	29	3	3	2	I	1	0	1429	1	Ⴌ	cut_k_stereo_44KHz.wav
1	30	1	2	0	C	1	1	1009	1	Ⴒ	cut_a_stereo_44KHz.wav
1	31	4	4	2	I	1	0	1029	0	Ⴖ	cut_u_stereo_44KHz.wav
1	32	2	1	0	C	1	1	813	1	Ⴕ	cut_o_stereo_44KHz.wav
1	33	1	2	0	C	1	1	735	1	Ⴒ	cut_a_stereo_44KHz.wav
1	34	3	3	2	I	2	0	622	0	Ⴌ	cut_k_stereo_44KHz.wav
1	35	4	4	2	I	1	0	966	1	Ⴖ	cut_u_stereo_44KHz.wav
1	36	2	2	1	C	2	1	932	1	Ⴕ	cut_a_stereo_44KHz.wav
1	37	1	1	1	C	2	1	1058	1	Ⴒ	cut_o_stereo_44KHz.wav
1	38	2	1	0	C	1	1	1083	1	Ⴕ	cut_o_stereo_44KHz.wav
1	39	3	4	2	I	2	0	1114	1	Ⴌ	cut_u_stereo_44KHz.wav
1	40	4	3	2	I	2	0	1071	0	Ⴖ	cut_k_stereo_44KHz.wav
1	41	2	2	1	C	2	1	1168	1	Ⴕ	cut_a_stereo_44KHz.wav
1	42	4	3	2	I	2	0	1033	1	Ⴖ	cut_k_stereo_44KHz.wav
1	43	3	4	2	I	2	0	1262	0	Ⴌ	cut_u_stereo_44KHz.wav
1	44	1	2	0	C	1	1	1415	1	Ⴒ	cut_a_stereo_44KHz.wav
1	45	4	4	2	I	1	0	868	0	Ⴖ	cut_u_stereo_44KHz.wav
1	46	1	1	1	C	2	1	1288	1	Ⴒ	cut_o_stereo_44KHz.wav
1	47	2	1	0	C	0	0	0	0	Ⴕ	cut_o_stereo_44KHz.wav
1	48	3	3	2	I	1	0	1048	1	Ⴌ	cut_k_stereo_44KHz.wav
1	49	1	1	1	C	2	1	1180	1	Ⴒ	cut_o_stereo_44KHz.wav
1	50	4	3	2	I	1	0	1713	1	Ⴖ	cut_k_stereo_44KHz.wav
1	51	3	3	2	I	2	0	1433	0	Ⴌ	cut_k_stereo_44KHz.wav
1	52	2	1	0	C	2	0	1601	0	Ⴕ	cut_o_stereo_44KHz.wav
1	53	3	4	2	I	1	0	1327	0	Ⴌ	cut_u_stereo_44KHz.wav
1	54	2	2	1	C	2	1	1840	1	Ⴕ	cut_a_stereo_44KHz.wav
1	55	4	4	2	I	1	0	949	1	Ⴖ	cut_u_stereo_44KHz.wav
1	56	1	2	0	C	1	1	1459	1	Ⴒ	cut_a_stereo_44KHz.wav
1	57	2	2	1	C	2	1	1171	1	Ⴕ	cut_a_stereo_44KHz.wav
1	58	3	3	2	I	1	0	1349	1	Ⴌ	cut_k_stereo_44KHz.wav
1	59	4	4	2	I	1	0	784	1	Ⴖ	cut_u_stereo_44KHz.wav
1	60	1	1	1	C	2	1	933	1	Ⴒ	cut_o_stereo_44KHz.wav
1	61	2	1	0	C	1	1	1569	1	Ⴕ	cut_o_stereo_44KHz.wav
1	62	4	3	2	I	1	0	1243	1	Ⴖ	cut_k_stereo_44KHz.wav
1	63	1	2	0	C	1	1	1360	1	Ⴒ	cut_a_stereo_44KHz.wav
1	64	3	4	2	I	1	0	1163	0	Ⴌ	cut_u_stereo_44KHz.wav
1	65	2	1	0	C	1	1	1127	1	Ⴕ	cut_o_stereo_44KHz.wav
1	66	1	2	0	C	1	1	919	1	Ⴒ	cut_a_stereo_44KHz.wav
1	67	3	3	2	I	1	0	1639	1	Ⴌ	cut_k_stereo_44KHz.wav
1	68	4	3	2	I	1	0	1311	1	Ⴖ	cut_k_stereo_44KHz.wav
1	69	3	4	2	I	2	0	921	1	Ⴌ	cut_u_stereo_44KHz.wav
1	70	2	2	1	C	2	1	1155	1	Ⴕ	cut_a_stereo_44KHz.wav
1	71	4	4	2	I	1	0	931	0	Ⴖ	cut_u_stereo_44KHz.wav
1	72	1	1	1	C	0	0	0	0	Ⴒ	cut_o_stereo_44KHz.wav
1	73	3	4	2	I	2	0	1183	0	Ⴌ	cut_u_stereo_44KHz.wav
1	74	1	1	1	C	2	1	942	1	Ⴒ	cut_o_stereo_44KHz.wav
1	75	4	3	2	I	1	0	1221	1	Ⴖ	cut_k_stereo_44KHz.wav
1	76	2	1	0	C	2	0	1182	0	Ⴕ	cut_o_stereo_44KHz.wav
1	77	4	4	2	I	1	0	930	1	Ⴖ	cut_u_stereo_44KHz.wav
1	78	2	2	1	C	2	1	1234	1	Ⴕ	cut_a_stereo_44KHz.wav
1	79	3	3	2	I	1	0	1043	1	Ⴌ	cut_k_stereo_44KHz.wav
1	80	1	2	0	C	1	1	855	1	Ⴒ	cut_a_stereo_44KHz.wav
1	81	4	3	2	I	1	0	1030	1	Ⴖ	cut_k_stereo_44KHz.wav
1	82	1	1	1	C	2	1	982	1	Ⴒ	cut_o_stereo_44KHz.wav
1	83	3	3	2	I	1	0	721	0	Ⴌ	cut_k_stereo_44KHz.wav
1	84	2	2	1	C	2	1	1139	1	Ⴕ	cut_a_stereo_44KHz.wav
1	85	1	2	0	C	1	1	1044	1	Ⴒ	cut_a_stereo_44KHz.wav
1	86	3	4	2	I	2	0	1618	1	Ⴌ	cut_u_stereo_44KHz.wav
1	87	2	1	0	C	1	1	1114	1	Ⴕ	cut_o_stereo_44KHz.wav
1	88	4	4	2	I	1	0	750	1	Ⴖ	cut_u_stereo_44KHz.wav
1	89	2	1	0	C	1	1	957	1	Ⴕ	cut_o_stereo_44KHz.wav
1	90	3	4	2	I	2	0	965	1	Ⴌ	cut_u_stereo_44KHz.wav
1	91	4	4	2	I	1	0	678	1	Ⴖ	cut_u_stereo_44KHz.wav
1	92	1	1	1	C	2	1	905	1	Ⴒ	cut_o_stereo_44KHz.wav
1	93	2	2	1	C	2	1	880	1	Ⴕ	cut_a_stereo_44KHz.wav
1	94	1	2	0	C	2	0	1073	0	Ⴒ	cut_a_stereo_44KHz.wav
1	95	4	3	2	I	2	0	939	1	Ⴖ	cut_k_stereo_44KHz.wav
1	96	3	3	2	I	1	0	1639	1	Ⴌ	cut_k_stereo_44KHz.wav
1	97	2	1	0	C	1	1	1387	1	Ⴕ	cut_o_stereo_44KHz.wav
1	98	4	4	2	I	1	0	1218	1	Ⴖ	cut_u_stereo_44KHz.wav
1	99	1	2	0	C	1	1	1471	1	Ⴒ	cut_a_stereo_44KHz.wav
1	100	3	3	2	I	1	0	1053	0	Ⴌ	cut_k_stereo_44KHz.wav
1	101	1	1	1	C	2	1	1250	1	Ⴒ	cut_o_stereo_44KHz.wav
1	102	4	3	2	I	1	0	1127	1	Ⴖ	cut_k_stereo_44KHz.wav
1	103	2	2	1	C	2	1	1779	1	Ⴕ	cut_a_stereo_44KHz.wav
1	104	3	4	2	I	2	0	1855	1	Ⴌ	cut_u_stereo_44KHz.wav
1	105	4	3	2	I	1	0	1335	1	Ⴖ	cut_k_stereo_44KHz.wav
1	106	3	3	2	I	1	0	1111	1	Ⴌ	cut_k_stereo_44KHz.wav
1	107	2	1	0	C	2	0	899	0	Ⴕ	cut_o_stereo_44KHz.wav
1	108	1	1	1	C	1	0	937	0	Ⴒ	cut_o_stereo_44KHz.wav
1	109	3	4	2	I	1	0	1226	1	Ⴌ	cut_u_stereo_44KHz.wav
1	110	4	4	2	I	2	0	714	1	Ⴖ	cut_u_stereo_44KHz.wav
1	111	1	2	0	C	1	1	1121	1	Ⴒ	cut_a_stereo_44KHz.wav
1	112	2	2	1	C	1	0	1590	0	Ⴕ	cut_a_stereo_44KHz.wav
1	113	1	1	1	C	1	0	1626	0	Ⴒ	cut_o_stereo_44KHz.wav
1	114	2	2	1	C	2	1	1016	1	Ⴕ	cut_a_stereo_44KHz.wav
1	115	4	3	2	I	2	0	1352	1	Ⴖ	cut_k_stereo_44KHz.wav
1	116	3	4	2	I	2	0	1024	0	Ⴌ	cut_u_stereo_44KHz.wav
1	117	4	4	2	I	1	0	1451	0	Ⴖ	cut_u_stereo_44KHz.wav
1	118	3	3	2	I	1	0	1106	1	Ⴌ	cut_k_stereo_44KHz.wav
1	119	2	1	0	C	1	1	1289	1	Ⴕ	cut_o_stereo_44KHz.wav
1	120	1	2	0	C	1	1	1383	1	Ⴒ	cut_a_stereo_44KHz.wav
1	121	4	4	2	I	1	0	1080	1	Ⴖ	cut_u_stereo_44KHz.wav
1	122	2	2	1	C	2	1	948	1	Ⴕ	cut_a_stereo_44KHz.wav
1	123	1	1	1	C	2	1	900	1	Ⴒ	cut_o_stereo_44KHz.wav
1	124	3	4	2	I	2	0	1136	1	Ⴌ	cut_u_stereo_44KHz.wav
1	125	1	2	0	C	1	1	898	1	Ⴒ	cut_a_stereo_44KHz.wav
1	126	2	1	0	C	1	1	1209	1	Ⴕ	cut_o_stereo_44KHz.wav
1	127	3	3	2	I	1	0	1030	1	Ⴌ	cut_k_stereo_44KHz.wav
1	128	4	3	2	I	2	0	1019	1	Ⴖ	cut_k_stereo_44KHz.wav
1	129	2	2	1	C	2	1	810	1	Ⴕ	cut_a_stereo_44KHz.wav
1	130	3	4	2	I	2	0	1369	1	Ⴌ	cut_u_stereo_44KHz.wav
1	131	1	2	0	C	1	1	1008	1	Ⴒ	cut_a_stereo_44KHz.wav
1	132	4	4	2	I	1	0	1094	1	Ⴖ	cut_u_stereo_44KHz.wav
1	133	1	1	1	C	2	1	875	1	Ⴒ	cut_o_stereo_44KHz.wav
1	134	3	3	2	I	1	0	1217	1	Ⴌ	cut_k_stereo_44KHz.wav
1	135	4	3	2	I	2	0	1043	1	Ⴖ	cut_k_stereo_44KHz.wav
1	136	2	1	0	C	1	1	1612	1	Ⴕ	cut_o_stereo_44KHz.wav
1	137	4	4	2	I	1	0	1379	1	Ⴖ	cut_u_stereo_44KHz.wav
1	138	2	1	0	C	1	1	1842	1	Ⴕ	cut_o_stereo_44KHz.wav
1	139	1	1	1	C	2	1	1027	1	Ⴒ	cut_o_stereo_44KHz.wav
1	140	3	3	2	I	1	0	910	1	Ⴌ	cut_k_stereo_44KHz.wav
1	141	1	2	0	C	1	1	818	1	Ⴒ	cut_a_stereo_44KHz.wav
1	142	4	3	2	I	2	0	930	1	Ⴖ	cut_k_stereo_44KHz.wav
1	143	3	4	2	I	2	0	1406	1	Ⴌ	cut_u_stereo_44KHz.wav
1	144	2	2	1	C	2	1	1136	1	Ⴕ	cut_a_stereo_44KHz.wav
1	145	4	4	2	I	1	0	782	1	Ⴖ	cut_u_stereo_44KHz.wav
1	146	3	4	2	I	2	0	984	1	Ⴌ	cut_u_stereo_44KHz.wav
1	147	1	1	1	C	2	1	751	1	Ⴒ	cut_o_stereo_44KHz.wav
1	148	2	2	1	C	2	1	981	1	Ⴕ	cut_a_stereo_44KHz.wav
1	149	4	3	2	I	2	0	989	0	Ⴖ	cut_k_stereo_44KHz.wav
1	150	2	1	0	C	1	1	1931	1	Ⴕ	cut_o_stereo_44KHz.wav
1	151	1	2	0	C	1	1	1221	1	Ⴒ	cut_a_stereo_44KHz.wav
1	152	3	3	2	I	2	0	1752	1	Ⴌ	cut_k_stereo_44KHz.wav
1	153	1	1	1	C	2	1	1396	1	Ⴒ	cut_o_stereo_44KHz.wav
1	154	4	4	2	I	1	0	909	1	Ⴖ	cut_u_stereo_44KHz.wav
1	155	2	2	1	C	2	1	1032	1	Ⴕ	cut_a_stereo_44KHz.wav
1	156	3	3	2	I	1	0	1066	1	Ⴌ	cut_k_stereo_44KHz.wav
1	157	2	1	0	C	1	1	967	1	Ⴕ	cut_o_stereo_44KHz.wav
1	158	3	4	2	I	2	0	1019	1	Ⴌ	cut_u_stereo_44KHz.wav
1	159	4	3	2	I	2	0	855	1	Ⴖ	cut_k_stereo_44KHz.wav
1	160	1	2	0	C	1	1	1125	1	Ⴒ	cut_a_stereo_44KHz.wav
1	161	3	3	2	I	2	0	1619	1	Ⴌ	cut_k_stereo_44KHz.wav
1	162	1	2	0	C	2	0	1058	0	Ⴒ	cut_a_stereo_44KHz.wav
1	163	4	3	2	I	2	0	864	1	Ⴖ	cut_k_stereo_44KHz.wav
1	164	2	2	1	C	2	1	780	1	Ⴕ	cut_a_stereo_44KHz.wav
1	165	3	4	2	I	2	0	1054	1	Ⴌ	cut_u_stereo_44KHz.wav
1	166	1	1	1	C	2	1	1792	1	Ⴒ	cut_o_stereo_44KHz.wav
1	167	2	1	0	C	2	0	765	0	Ⴕ	cut_o_stereo_44KHz.wav
1	168	4	4	2	I	1	0	882	1	Ⴖ	cut_u_stereo_44KHz.wav
1	169	3	4	2	I	2	0	1289	1	Ⴌ	cut_u_stereo_44KHz.wav
1	170	1	1	1	C	2	1	1191	1	Ⴒ	cut_o_stereo_44KHz.wav
1	171	4	4	2	I	1	0	784	0	Ⴖ	cut_u_stereo_44KHz.wav
1	172	2	2	1	C	2	1	1137	1	Ⴕ	cut_a_stereo_44KHz.wav
1	173	3	3	2	I	2	0	1321	1	Ⴌ	cut_k_stereo_44KHz.wav
1	174	1	2	0	C	2	0	975	0	Ⴒ	cut_a_stereo_44KHz.wav
1	175	2	1	0	C	1	1	1008	1	Ⴕ	cut_o_stereo_44KHz.wav
1	176	4	3	2	I	2	0	1264	1	Ⴖ	cut_k_stereo_44KHz.wav
1	177	1	2	0	C	1	1	1633	1	Ⴒ	cut_a_stereo_44KHz.wav
1	178	3	3	2	I	2	0	947	1	Ⴌ	cut_k_stereo_44KHz.wav
1	179	4	3	2	I	2	0	1053	1	Ⴖ	cut_k_stereo_44KHz.wav
1	180	2	1	0	C	2	0	1638	0	Ⴕ	cut_o_stereo_44KHz.wav
1	181	4	4	2	I	1	0	1189	1	Ⴖ	cut_u_stereo_44KHz.wav
1	182	1	1	1	C	2	1	888	1	Ⴒ	cut_o_stereo_44KHz.wav
1	183	2	2	1	C	2	1	1324	1	Ⴕ	cut_a_stereo_44KHz.wav
1	184	3	4	2	I	2	0	851	1	Ⴌ	cut_u_stereo_44KHz.wav
1	185	1	2	0	C	1	1	1617	1	Ⴒ	cut_a_stereo_44KHz.wav
1	186	4	3	2	I	2	0	1146	0	Ⴖ	cut_k_stereo_44KHz.wav
1	187	3	3	2	I	1	0	1461	1	Ⴌ	cut_k_stereo_44KHz.wav
1	188	2	1	0	C	1	1	1038	1	Ⴕ	cut_o_stereo_44KHz.wav
1	189	4	4	2	I	1	0	859	1	Ⴖ	cut_u_stereo_44KHz.wav
1	190	1	1	1	C	2	1	631	1	Ⴒ	cut_o_stereo_44KHz.wav
1	191	3	4	2	I	2	0	1183	1	Ⴌ	cut_u_stereo_44KHz.wav
1	192	2	2	1	C	2	1	781	1	Ⴕ	cut_a_stereo_44KHz.wav
1	193	1	2	0	C	1	1	1191	1	Ⴒ	cut_a_stereo_44KHz.wav
1	194	2	1	0	C	2	0	1294	0	Ⴕ	cut_o_stereo_44KHz.wav
1	195	4	3	2	I	2	0	1129	0	Ⴖ	cut_k_stereo_44KHz.wav
1	196	3	3	2	I	1	0	1082	1	Ⴌ	cut_k_stereo_44KHz.wav
1	197	1	1	1	C	2	1	368	1	Ⴒ	cut_o_stereo_44KHz.wav
1	198	2	2	1	C	2	1	992	1	Ⴕ	cut_a_stereo_44KHz.wav
1	199	3	4	2	I	2	0	1185	1	Ⴌ	cut_u_stereo_44KHz.wav
1	200	4	4	2	I	1	0	1390	0	Ⴖ	cut_u_stereo_44KHz.wav
2	1	2	1	0	C	2	0	1590	0	Ⴟ	cut_oei_stereo_44KHz.wav
2	2	3	3	2	I	2	0	1341	1	Ⴇ	cut_r_stereo_44KHz.wav
2	3	4	3	2	I	1	0	1076	1	Ⴜ	cut_r_stereo_44KHz.wav
2	4	1	2	0	C	2	0	1148	0	Ⴡ	cut_s_stereo_44KHz.wav
2	5	4	4	2	I	2	0	1389	1	Ⴜ	cut_n_stereo_44KHz.wav
2	6	3	4	2	I	2	0	1508	1	Ⴇ	cut_n_stereo_44KHz.wav
2	7	2	2	1	C	2	1	1182	1	Ⴟ	cut_s_stereo_44KHz.wav
2	8	1	1	1	C	2	1	1146	1	Ⴡ	cut_oei_stereo_44KHz.wav
2	9	2	1	0	C	2	0	1139	0	Ⴟ	cut_oei_stereo_44KHz.wav
2	10	4	3	2	I	1	0	805	1	Ⴜ	cut_r_stereo_44KHz.wav
2	11	3	4	2	I	2	0	1126	1	Ⴇ	cut_n_stereo_44KHz.wav
2	12	1	2	0	C	0	0	0	0	Ⴡ	cut_s_stereo_44KHz.wav
2	13	4	4	2	I	2	0	1037	1	Ⴜ	cut_n_stereo_44KHz.wav
2	14	1	1	1	C	2	1	971	1	Ⴡ	cut_oei_stereo_44KHz.wav
2	15	2	2	1	C	2	1	983	1	Ⴟ	cut_s_stereo_44KHz.wav
2	16	3	3	2	I	2	0	736	1	Ⴇ	cut_r_stereo_44KHz.wav
2	17	2	2	1	C	2	1	1028	1	Ⴟ	cut_s_stereo_44KHz.wav
2	18	1	2	0	C	2	0	1256	0	Ⴡ	cut_s_stereo_44KHz.wav
2	19	4	3	2	I	2	0	826	1	Ⴜ	cut_r_stereo_44KHz.wav
2	20	3	3	2	I	2	0	1194	0	Ⴇ	cut_r_stereo_44KHz.wav
2	21	2	1	0	C	1	1	872	1	Ⴟ	cut_oei_stereo_44KHz.wav
2	22	4	4	2	I	2	0	1120	1	Ⴜ	cut_n_stereo_44KHz.wav
2	23	1	1	1	C	2	1	991	1	Ⴡ	cut_oei_stereo_44KHz.wav
2	24	3	4	2	I	2	0	830	1	Ⴇ	cut_n_stereo_44KHz.wav
2	25	2	1	0	C	1	1	924	1	Ⴟ	cut_oei_stereo_44KHz.wav
2	26	1	2	0	C	2	0	940	0	Ⴡ	cut_s_stereo_44KHz.wav
2	27	3	3	2	I	2	0	991	1	Ⴇ	cut_r_stereo_44KHz.wav
2	28	4	3	2	I	2	0	633	0	Ⴜ	cut_r_stereo_44KHz.wav
2	29	1	1	1	C	2	1	1090	1	Ⴡ	cut_oei_stereo_44KHz.wav
2	30	2	2	1	C	0	0	0	0	Ⴟ	cut_s_stereo_44KHz.wav
2	31	3	4	2	I	2	0	1197	0	Ⴇ	cut_n_stereo_44KHz.wav
2	32	4	4	2	I	2	0	990	1	Ⴜ	cut_n_stereo_44KHz.wav
2	33	3	3	2	I	2	0	950	1	Ⴇ	cut_r_stereo_44KHz.wav
2	34	1	2	0	C	2	0	884	0	Ⴡ	cut_s_stereo_44KHz.wav
2	35	4	3	2	I	1	0	1457	1	Ⴜ	cut_r_stereo_44KHz.wav
2	36	2	2	1	C	1	0	1324	0	Ⴟ	cut_s_stereo_44KHz.wav
2	37	3	4	2	I	2	0	1274	1	Ⴇ	cut_n_stereo_44KHz.wav
2	38	2	1	0	C	1	1	1066	1	Ⴟ	cut_oei_stereo_44KHz.wav
2	39	1	1	1	C	2	1	915	1	Ⴡ	cut_oei_stereo_44KHz.wav
2	40	4	4	2	I	1	0	1089	1	Ⴜ	cut_n_stereo_44KHz.wav
2	41	2	1	0	C	1	1	845	1	Ⴟ	cut_oei_stereo_44KHz.wav
2	42	1	1	1	C	2	1	888	1	Ⴡ	cut_oei_stereo_44KHz.wav
2	43	4	4	2	I	1	0	1115	1	Ⴜ	cut_n_stereo_44KHz.wav
2	44	3	4	2	I	2	0	1081	1	Ⴇ	cut_n_stereo_44KHz.wav
2	45	1	2	0	C	1	1	947	1	Ⴡ	cut_s_stereo_44KHz.wav
2	46	4	3	2	I	2	0	1167	1	Ⴜ	cut_r_stereo_44KHz.wav
2	47	2	2	1	C	2	1	764	1	Ⴟ	cut_s_stereo_44KHz.wav
2	48	3	3	2	I	2	0	576	0	Ⴇ	cut_r_stereo_44KHz.wav
2	49	2	1	0	C	1	1	964	1	Ⴟ	cut_oei_stereo_44KHz.wav
2	50	1	1	1	C	2	1	1135	1	Ⴡ	cut_oei_stereo_44KHz.wav
2	51	4	4	2	I	2	0	953	1	Ⴜ	cut_n_stereo_44KHz.wav
2	52	3	3	2	I	2	0	1043	1	Ⴇ	cut_r_stereo_44KHz.wav
2	53	4	3	2	I	1	0	1135	1	Ⴜ	cut_r_stereo_44KHz.wav
2	54	1	2	0	C	1	1	994	1	Ⴡ	cut_s_stereo_44KHz.wav
2	55	3	4	2	I	2	0	1117	1	Ⴇ	cut_n_stereo_44KHz.wav
2	56	2	2	1	C	2	1	1246	1	Ⴟ	cut_s_stereo_44KHz.wav
2	57	4	3	2	I	1	0	1350	1	Ⴜ	cut_r_stereo_44KHz.wav
2	58	2	1	0	C	1	1	1136	1	Ⴟ	cut_oei_stereo_44KHz.wav
2	59	3	3	2	I	2	0	1733	0	Ⴇ	cut_r_stereo_44KHz.wav
2	60	1	2	0	C	1	1	1005	1	Ⴡ	cut_s_stereo_44KHz.wav
2	61	2	2	1	C	2	1	857	1	Ⴟ	cut_s_stereo_44KHz.wav
2	62	4	4	2	I	2	0	1265	1	Ⴜ	cut_n_stereo_44KHz.wav
2	63	1	1	1	C	2	1	1178	1	Ⴡ	cut_oei_stereo_44KHz.wav
2	64	3	4	2	I	2	0	999	1	Ⴇ	cut_n_stereo_44KHz.wav
2	65	4	3	2	I	1	0	1381	1	Ⴜ	cut_r_stereo_44KHz.wav
2	66	2	1	0	C	1	1	1205	1	Ⴟ	cut_oei_stereo_44KHz.wav
2	67	1	2	0	C	2	0	1945	0	Ⴡ	cut_s_stereo_44KHz.wav
2	68	3	3	2	I	2	0	1559	1	Ⴇ	cut_r_stereo_44KHz.wav
2	69	1	1	1	C	2	1	1575	1	Ⴡ	cut_oei_stereo_44KHz.wav
2	70	3	4	2	I	1	0	1199	1	Ⴇ	cut_n_stereo_44KHz.wav
2	71	4	4	2	I	2	0	1254	0	Ⴜ	cut_n_stereo_44KHz.wav
2	72	2	2	1	C	2	1	1318	1	Ⴟ	cut_s_stereo_44KHz.wav
2	73	4	4	2	I	2	0	1424	1	Ⴜ	cut_n_stereo_44KHz.wav
2	74	1	1	1	C	2	1	996	1	Ⴡ	cut_oei_stereo_44KHz.wav
2	75	3	4	2	I	2	0	1926	1	Ⴇ	cut_n_stereo_44KHz.wav
2	76	2	2	1	C	2	1	1027	1	Ⴟ	cut_s_stereo_44KHz.wav
2	77	4	3	2	I	2	0	1378	1	Ⴜ	cut_r_stereo_44KHz.wav
2	78	2	1	0	C	2	0	627	0	Ⴟ	cut_oei_stereo_44KHz.wav
2	79	1	2	0	C	2	0	1659	0	Ⴡ	cut_s_stereo_44KHz.wav
2	80	3	3	2	I	2	0	1726	0	Ⴇ	cut_r_stereo_44KHz.wav
2	81	1	1	1	C	2	1	1028	1	Ⴡ	cut_oei_stereo_44KHz.wav
2	82	4	4	2	I	1	0	1256	1	Ⴜ	cut_n_stereo_44KHz.wav
2	83	2	1	0	C	1	1	1106	1	Ⴟ	cut_oei_stereo_44KHz.wav
2	84	3	4	2	I	2	0	961	1	Ⴇ	cut_n_stereo_44KHz.wav
2	85	4	3	2	I	2	0	610	0	Ⴜ	cut_r_stereo_44KHz.wav
2	86	3	3	2	I	1	0	1076	1	Ⴇ	cut_r_stereo_44KHz.wav
2	87	2	2	1	C	2	1	856	1	Ⴟ	cut_s_stereo_44KHz.wav
2	88	1	2	0	C	2	0	1126	0	Ⴡ	cut_s_stereo_44KHz.wav
2	89	4	3	2	I	1	0	997	1	Ⴜ	cut_r_stereo_44KHz.wav
2	90	3	4	2	I	2	0	715	0	Ⴇ	cut_n_stereo_44KHz.wav
2	91	2	1	0	C	1	1	501	1	Ⴟ	cut_oei_stereo_44KHz.wav
2	92	1	2	0	C	2	0	1192	0	Ⴡ	cut_s_stereo_44KHz.wav
2	93	4	4	2	I	2	0	1356	1	Ⴜ	cut_n_stereo_44KHz.wav
2	94	2	2	1	C	2	1	1228	1	Ⴟ	cut_s_stereo_44KHz.wav
2	95	1	1	1	C	2	1	1088	1	Ⴡ	cut_oei_stereo_44KHz.wav
2	96	3	3	2	I	2	0	1364	1	Ⴇ	cut_r_stereo_44KHz.wav
2	97	2	2	1	C	2	1	824	1	Ⴟ	cut_s_stereo_44KHz.wav
2	98	4	3	2	I	2	0	419	1	Ⴜ	cut_r_stereo_44KHz.wav
2	99	3	4	2	I	2	0	326	0	Ⴇ	cut_n_stereo_44KHz.wav
2	100	1	1	1	C	2	1	912	1	Ⴡ	cut_oei_stereo_44KHz.wav
2	101	4	4	2	I	2	0	260	1	Ⴜ	cut_n_stereo_44KHz.wav
2	102	1	2	0	C	2	0	367	0	Ⴡ	cut_s_stereo_44KHz.wav
2	103	2	1	0	C	2	0	445	0	Ⴟ	cut_oei_stereo_44KHz.wav
2	104	3	3	2	I	1	0	390	1	Ⴇ	cut_r_stereo_44KHz.wav
2	105	2	2	1	C	1	0	675	0	Ⴟ	cut_s_stereo_44KHz.wav
2	106	1	2	0	C	2	0	789	0	Ⴡ	cut_s_stereo_44KHz.wav
2	107	3	3	2	I	2	0	1186	1	Ⴇ	cut_r_stereo_44KHz.wav
2	108	4	4	2	I	2	0	906	1	Ⴜ	cut_n_stereo_44KHz.wav
2	109	1	1	1	C	1	0	928	0	Ⴡ	cut_oei_stereo_44KHz.wav
2	110	4	3	2	I	2	0	792	0	Ⴜ	cut_r_stereo_44KHz.wav
2	111	2	1	0	C	1	1	896	1	Ⴟ	cut_oei_stereo_44KHz.wav
2	112	3	4	2	I	2	0	967	1	Ⴇ	cut_n_stereo_44KHz.wav
2	113	4	4	2	I	2	0	1138	1	Ⴜ	cut_n_stereo_44KHz.wav
2	114	1	1	1	C	2	1	1464	1	Ⴡ	cut_oei_stereo_44KHz.wav
2	115	2	1	0	C	1	1	1134	1	Ⴟ	cut_oei_stereo_44KHz.wav
2	116	3	3	2	I	2	0	1063	1	Ⴇ	cut_r_stereo_44KHz.wav
2	117	1	2	0	C	1	1	1059	1	Ⴡ	cut_s_stereo_44KHz.wav
2	118	3	4	2	I	2	0	928	1	Ⴇ	cut_n_stereo_44KHz.wav
2	119	2	2	1	C	2	1	1013	1	Ⴟ	cut_s_stereo_44KHz.wav
2	120	4	3	2	I	2	0	672	1	Ⴜ	cut_r_stereo_44KHz.wav
2	121	1	2	0	C	2	0	525	0	Ⴡ	cut_s_stereo_44KHz.wav
2	122	3	3	2	I	2	0	987	1	Ⴇ	cut_r_stereo_44KHz.wav
2	123	4	4	2	I	2	0	1145	0	Ⴜ	cut_n_stereo_44KHz.wav
2	124	2	2	1	C	2	1	1034	1	Ⴟ	cut_s_stereo_44KHz.wav
2	125	1	1	1	C	2	1	689	1	Ⴡ	cut_oei_stereo_44KHz.wav
2	126	3	4	2	I	2	0	1392	1	Ⴇ	cut_n_stereo_44KHz.wav
2	127	2	1	0	C	2	0	1000	0	Ⴟ	cut_oei_stereo_44KHz.wav
2	128	4	3	2	I	2	0	850	1	Ⴜ	cut_r_stereo_44KHz.wav
2	129	2	2	1	C	2	1	956	1	Ⴟ	cut_s_stereo_44KHz.wav
2	130	3	3	2	I	2	0	923	0	Ⴇ	cut_r_stereo_44KHz.wav
2	131	4	3	2	I	1	0	1117	1	Ⴜ	cut_r_stereo_44KHz.wav
2	132	1	2	0	C	2	0	976	0	Ⴡ	cut_s_stereo_44KHz.wav
2	133	2	1	0	C	2	0	742	0	Ⴟ	cut_oei_stereo_44KHz.wav
2	134	4	4	2	I	2	0	840	1	Ⴜ	cut_n_stereo_44KHz.wav
2	135	1	1	1	C	2	1	633	1	Ⴡ	cut_oei_stereo_44KHz.wav
2	136	3	4	2	I	2	0	470	1	Ⴇ	cut_n_stereo_44KHz.wav
2	137	1	2	0	C	2	0	585	0	Ⴡ	cut_s_stereo_44KHz.wav
2	138	3	4	2	I	2	0	1277	1	Ⴇ	cut_n_stereo_44KHz.wav
2	139	2	2	1	C	2	1	1355	1	Ⴟ	cut_s_stereo_44KHz.wav
2	140	4	4	2	I	2	0	1331	1	Ⴜ	cut_n_stereo_44KHz.wav
2	141	1	1	1	C	2	1	1235	1	Ⴡ	cut_oei_stereo_44KHz.wav
2	142	4	3	2	I	2	0	1264	1	Ⴜ	cut_r_stereo_44KHz.wav
2	143	3	3	2	I	2	0	817	1	Ⴇ	cut_r_stereo_44KHz.wav
2	144	2	1	0	C	2	0	502	0	Ⴟ	cut_oei_stereo_44KHz.wav
2	145	1	2	0	C	1	1	1378	1	Ⴡ	cut_s_stereo_44KHz.wav
2	146	2	1	0	C	2	0	1061	0	Ⴟ	cut_oei_stereo_44KHz.wav
2	147	4	3	2	I	1	0	1003	0	Ⴜ	cut_r_stereo_44KHz.wav
2	148	3	3	2	I	2	0	259	0	Ⴇ	cut_r_stereo_44KHz.wav
2	149	2	2	1	C	1	0	698	0	Ⴟ	cut_s_stereo_44KHz.wav
2	150	4	4	2	I	2	0	515	1	Ⴜ	cut_n_stereo_44KHz.wav
2	151	1	1	1	C	2	1	397	1	Ⴡ	cut_oei_stereo_44KHz.wav
2	152	3	4	2	I	2	0	286	1	Ⴇ	cut_n_stereo_44KHz.wav
2	153	4	4	2	I	2	0	308	1	Ⴜ	cut_n_stereo_44KHz.wav
2	154	3	4	2	I	2	0	298	1	Ⴇ	cut_n_stereo_44KHz.wav
2	155	1	1	1	C	2	1	388	1	Ⴡ	cut_oei_stereo_44KHz.wav
2	156	2	1	0	C	2	0	251	0	Ⴟ	cut_oei_stereo_44KHz.wav
2	157	1	2	0	C	2	0	311	0	Ⴡ	cut_s_stereo_44KHz.wav
2	158	4	3	2	I	2	0	472	1	Ⴜ	cut_r_stereo_44KHz.wav
2	159	2	2	1	C	2	1	904	1	Ⴟ	cut_s_stereo_44KHz.wav
2	160	3	3	2	I	2	0	296	1	Ⴇ	cut_r_stereo_44KHz.wav
2	161	4	3	2	I	2	0	294	0	Ⴜ	cut_r_stereo_44KHz.wav
2	162	1	2	0	C	2	0	252	0	Ⴡ	cut_s_stereo_44KHz.wav
2	163	2	2	1	C	2	1	1447	1	Ⴟ	cut_s_stereo_44KHz.wav
2	164	3	3	2	I	2	0	471	0	Ⴇ	cut_r_stereo_44KHz.wav
2	165	2	1	0	C	2	0	599	0	Ⴟ	cut_oei_stereo_44KHz.wav
2	166	3	4	2	I	2	0	796	1	Ⴇ	cut_n_stereo_44KHz.wav
2	167	4	4	2	I	0	0	0	0	Ⴜ	cut_n_stereo_44KHz.wav
2	168	1	1	1	C	2	1	604	1	Ⴡ	cut_oei_stereo_44KHz.wav
2	169	2	1	0	C	2	0	695	0	Ⴟ	cut_oei_stereo_44KHz.wav
2	170	1	1	1	C	2	1	987	1	Ⴡ	cut_oei_stereo_44KHz.wav
2	171	4	4	2	I	2	0	1439	0	Ⴜ	cut_n_stereo_44KHz.wav
2	172	3	4	2	I	2	0	1240	1	Ⴇ	cut_n_stereo_44KHz.wav
2	173	4	3	2	I	2	0	1234	0	Ⴜ	cut_r_stereo_44KHz.wav
2	174	1	2	0	C	1	1	823	1	Ⴡ	cut_s_stereo_44KHz.wav
2	175	2	2	1	C	2	1	834	1	Ⴟ	cut_s_stereo_44KHz.wav
2	176	3	3	2	I	2	0	927	1	Ⴇ	cut_r_stereo_44KHz.wav
2	177	2	1	0	C	1	1	1175	1	Ⴟ	cut_oei_stereo_44KHz.wav
2	178	4	4	2	I	2	0	826	1	Ⴜ	cut_n_stereo_44KHz.wav
2	179	1	1	1	C	1	0	823	0	Ⴡ	cut_oei_stereo_44KHz.wav
2	180	3	3	2	I	2	0	851	1	Ⴇ	cut_r_stereo_44KHz.wav
2	181	4	3	2	I	1	0	983	1	Ⴜ	cut_r_stereo_44KHz.wav
2	182	3	4	2	I	2	0	957	1	Ⴇ	cut_n_stereo_44KHz.wav
2	183	1	2	0	C	2	0	696	0	Ⴡ	cut_s_stereo_44KHz.wav
2	184	2	2	1	C	1	0	998	0	Ⴟ	cut_s_stereo_44KHz.wav
2	185	1	2	0	C	1	1	1659	1	Ⴡ	cut_s_stereo_44KHz.wav
2	186	2	1	0	C	1	1	775	1	Ⴟ	cut_oei_stereo_44KHz.wav
2	187	3	4	2	I	2	0	776	1	Ⴇ	cut_n_stereo_44KHz.wav
2	188	4	4	2	I	2	0	1129	0	Ⴜ	cut_n_stereo_44KHz.wav
2	189	1	1	1	C	2	1	1479	1	Ⴡ	cut_oei_stereo_44KHz.wav
2	190	4	3	2	I	2	0	1015	1	Ⴜ	cut_r_stereo_44KHz.wav
2	191	3	3	2	I	1	0	840	1	Ⴇ	cut_r_stereo_44KHz.wav
2	192	2	2	1	C	2	1	1061	1	Ⴟ	cut_s_stereo_44KHz.wav
2	193	1	2	0	C	1	1	1561	1	Ⴡ	cut_s_stereo_44KHz.wav
2	194	3	3	2	I	2	0	1168	1	Ⴇ	cut_r_stereo_44KHz.wav
2	195	2	2	1	C	2	1	901	1	Ⴟ	cut_s_stereo_44KHz.wav
2	196	4	4	2	I	2	0	917	1	Ⴜ	cut_n_stereo_44KHz.wav
2	197	1	1	1	C	2	1	821	1	Ⴡ	cut_oei_stereo_44KHz.wav
2	198	4	3	2	I	1	0	880	1	Ⴜ	cut_r_stereo_44KHz.wav
2	199	2	1	0	C	1	1	1038	1	Ⴟ	cut_oei_stereo_44KHz.wav
2	200	3	4	2	I	2	0	940	1	Ⴇ	cut_n_stereo_44KHz.wav
3	1	1	2	0	C	0	0	0	0	Ⴔ	cut_ui_stereo_44KHz.wav
3	2	4	4	2	I	1	0	1382	0	Ⴉ	cut_j_stereo_44KHz.wav
3	3	3	4	2	I	2	0	1939	1	Ⴐ	cut_j_stereo_44KHz.wav
3	4	2	1	0	C	2	0	998	0	Ⴏ	cut_f_stereo_44KHz.wav
3	5	1	1	1	C	2	1	923	1	Ⴔ	cut_f_stereo_44KHz.wav
3	6	4	3	2	I	2	0	931	1	Ⴉ	cut_ei_stereo_44KHz.wav
3	7	2	2	1	C	1	0	1078	0	Ⴏ	cut_ui_stereo_44KHz.wav
3	8	3	3	2	I	2	0	1295	1	Ⴐ	cut_ei_stereo_44KHz.wav
3	9	1	2	0	C	2	0	1445	0	Ⴔ	cut_ui_stereo_44KHz.wav
3	10	4	4	2	I	2	0	1407	1	Ⴉ	cut_j_stereo_44KHz.wav
3	11	2	2	1	C	2	1	988	1	Ⴏ	cut_ui_stereo_44KHz.wav
3	12	3	4	2	I	1	0	834	1	Ⴐ	cut_j_stereo_44KHz.wav
3	13	1	1	1	C	2	1	1394	1	Ⴔ	cut_f_stereo_44KHz.wav
3	14	2	1	0	C	1	1	602	1	Ⴏ	cut_f_stereo_44KHz.wav
3	15	4	3	2	I	2	0	809	1	Ⴉ	cut_ei_stereo_44KHz.wav
3	16	3	3	2	I	2	0	965	1	Ⴐ	cut_ei_stereo_44KHz.wav
3	17	2	1	0	C	1	1	924	1	Ⴏ	cut_f_stereo_44KHz.wav
3	18	3	3	2	I	2	0	873	1	Ⴐ	cut_ei_stereo_44KHz.wav
3	19	1	1	1	C	2	1	1129	1	Ⴔ	cut_f_stereo_44KHz.wav
3	20	4	3	2	I	2	0	1001	1	Ⴉ	cut_ei_stereo_44KHz.wav
3	21	2	2	1	C	2	1	1041	1	Ⴏ	cut_ui_stereo_44KHz.wav
3	22	3	4	2	I	1	0	879	0	Ⴐ	cut_j_stereo_44KHz.wav
3	23	4	4	2	I	2	0	1090	1	Ⴉ	cut_j_stereo_44KHz.wav
3	24	1	2	0	C	1	1	906	1	Ⴔ	cut_ui_stereo_44KHz.wav
3	25	4	4	2	I	2	0	1093	1	Ⴉ	cut_j_stereo_44KHz.wav
3	26	1	2	0	C	1	1	1173	1	Ⴔ	cut_ui_stereo_44KHz.wav
3	27	3	3	2	I	2	0	1684	1	Ⴐ	cut_ei_stereo_44KHz.wav
3	28	2	1	0	C	1	1	824	1	Ⴏ	cut_f_stereo_44KHz.wav
3	29	1	1	1	C	2	1	853	1	Ⴔ	cut_f_stereo_44KHz.wav
3	30	3	4	2	I	1	0	846	0	Ⴐ	cut_j_stereo_44KHz.wav
3	31	2	2	1	C	1	0	1051	0	Ⴏ	cut_ui_stereo_44KHz.wav
3	32	4	3	2	I	2	0	1173	0	Ⴉ	cut_ei_stereo_44KHz.wav
3	33	1	2	0	C	2	0	1070	0	Ⴔ	cut_ui_stereo_44KHz.wav
3	34	4	3	2	I	1	0	430	1	Ⴉ	cut_ei_stereo_44KHz.wav
3	35	3	3	2	I	2	0	399	0	Ⴐ	cut_ei_stereo_44KHz.wav
3	36	2	1	0	C	2	0	357	0	Ⴏ	cut_f_stereo_44KHz.wav
3	37	4	4	2	I	2	0	607	1	Ⴉ	cut_j_stereo_44KHz.wav
3	38	3	4	2	I	1	0	954	1	Ⴐ	cut_j_stereo_44KHz.wav
3	39	2	2	1	C	1	0	659	0	Ⴏ	cut_ui_stereo_44KHz.wav
3	40	1	1	1	C	1	0	1055	0	Ⴔ	cut_f_stereo_44KHz.wav
3	41	3	4	2	I	1	0	897	1	Ⴐ	cut_j_stereo_44KHz.wav
3	42	2	1	0	C	1	1	605	1	Ⴏ	cut_f_stereo_44KHz.wav
3	43	1	1	1	C	2	1	840	1	Ⴔ	cut_f_stereo_44KHz.wav
3	44	4	4	2	I	2	0	579	1	Ⴉ	cut_j_stereo_44KHz.wav
3	45	2	2	1	C	2	1	781	1	Ⴏ	cut_ui_stereo_44KHz.wav
3	46	1	2	0	C	2	0	1240	0	Ⴔ	cut_ui_stereo_44KHz.wav
3	47	4	3	2	I	2	0	748	1	Ⴉ	cut_ei_stereo_44KHz.wav
3	48	3	3	2	I	2	0	951	1	Ⴐ	cut_ei_stereo_44KHz.wav
3	49	1	2	0	C	1	1	1264	1	Ⴔ	cut_ui_stereo_44KHz.wav
3	50	3	3	2	I	2	0	737	1	Ⴐ	cut_ei_stereo_44KHz.wav
3	51	4	4	2	I	2	0	1018	1	Ⴉ	cut_j_stereo_44KHz.wav
3	52	2	1	0	C	2	0	853	0	Ⴏ	cut_f_stereo_44KHz.wav
3	53	3	4	2	I	1	0	698	1	Ⴐ	cut_j_stereo_44KHz.wav
3	54	4	3	2	I	2	0	1074	1	Ⴉ	cut_ei_stereo_44KHz.wav
3	55	2	2	1	C	2	1	946	1	Ⴏ	cut_ui_stereo_44KHz.wav
3	56	1	1	1	C	2	1	810	1	Ⴔ	cut_f_stereo_44KHz.wav
3	57	2	2	1	C	2	1	593	1	Ⴏ	cut_ui_stereo_44KHz.wav
3	58	1	1	1	C	2	1	912	1	Ⴔ	cut_f_stereo_44KHz.wav
3	59	4	4	2	I	2	0	434	1	Ⴉ	cut_j_stereo_44KHz.wav
3	60	3	3	2	I	2	0	852	1	Ⴐ	cut_ei_stereo_44KHz.wav
3	61	1	2	0	C	2	0	326	0	Ⴔ	cut_ui_stereo_44KHz.wav
3	62	2	1	0	C	1	1	777	1	Ⴏ	cut_f_stereo_44KHz.wav
3	63	4	3	2	I	2	0	980	1	Ⴉ	cut_ei_stereo_44KHz.wav
3	64	3	4	2	I	1	0	1707	1	Ⴐ	cut_j_stereo_44KHz.wav
3	65	4	3	2	I	2	0	1282	1	Ⴉ	cut_ei_stereo_44KHz.wav
3	66	2	2	1	C	2	1	758	1	Ⴏ	cut_ui_stereo_44KHz.wav
3	67	3	4	2	I	1	0	743	1	Ⴐ	cut_j_stereo_44KHz.wav
3	68	1	2	0	C	2	0	770	0	Ⴔ	cut_ui_stereo_44KHz.wav
3	69	3	3	2	I	2	0	1251	1	Ⴐ	cut_ei_stereo_44KHz.wav
3	70	4	4	2	I	1	0	1198	0	Ⴉ	cut_j_stereo_44KHz.wav
3	71	1	1	1	C	2	1	1249	1	Ⴔ	cut_f_stereo_44KHz.wav
3	72	2	1	0	C	1	1	615	1	Ⴏ	cut_f_stereo_44KHz.wav
3	73	1	2	0	C	2	0	633	0	Ⴔ	cut_ui_stereo_44KHz.wav
3	74	2	2	1	C	2	1	728	1	Ⴏ	cut_ui_stereo_44KHz.wav
3	75	4	3	2	I	2	0	690	0	Ⴉ	cut_ei_stereo_44KHz.wav
3	76	3	3	2	I	1	0	780	1	Ⴐ	cut_ei_stereo_44KHz.wav
3	77	4	4	2	I	2	0	946	0	Ⴉ	cut_j_stereo_44KHz.wav
3	78	1	1	1	C	2	1	1112	1	Ⴔ	cut_f_stereo_44KHz.wav
3	79	2	1	0	C	1	1	1119	1	Ⴏ	cut_f_stereo_44KHz.wav
3	80	3	4	2	I	2	0	939	1	Ⴐ	cut_j_stereo_44KHz.wav
3	81	4	4	2	I	2	0	818	1	Ⴉ	cut_j_stereo_44KHz.wav
3	82	2	2	1	C	2	1	586	1	Ⴏ	cut_ui_stereo_44KHz.wav
3	83	3	4	2	I	2	0	373	1	Ⴐ	cut_j_stereo_44KHz.wav
3	84	1	2	0	C	2	0	349	0	Ⴔ	cut_ui_stereo_44KHz.wav
3	85	2	1	0	C	2	0	779	0	Ⴏ	cut_f_stereo_44KHz.wav
3	86	4	3	2	I	2	0	1132	1	Ⴉ	cut_ei_stereo_44KHz.wav
3	87	3	3	2	I	2	0	996	1	Ⴐ	cut_ei_stereo_44KHz.wav
3	88	1	1	1	C	2	1	712	1	Ⴔ	cut_f_stereo_44KHz.wav
3	89	3	4	2	I	1	0	1432	1	Ⴐ	cut_j_stereo_44KHz.wav
3	90	1	1	1	C	2	1	994	1	Ⴔ	cut_f_stereo_44KHz.wav
3	91	2	2	1	C	2	1	1127	1	Ⴏ	cut_ui_stereo_44KHz.wav
3	92	4	3	2	I	2	0	656	1	Ⴉ	cut_ei_stereo_44KHz.wav
3	93	1	2	0	C	2	0	666	0	Ⴔ	cut_ui_stereo_44KHz.wav
3	94	3	3	2	I	2	0	648	1	Ⴐ	cut_ei_stereo_44KHz.wav
3	95	2	1	0	C	2	0	792	0	Ⴏ	cut_f_stereo_44KHz.wav
3	96	4	4	2	I	0	0	0	0	Ⴉ	cut_j_stereo_44KHz.wav
3	97	1	2	0	C	1	1	821	1	Ⴔ	cut_ui_stereo_44KHz.wav
3	98	2	1	0	C	1	1	705	1	Ⴏ	cut_f_stereo_44KHz.wav
3	99	3	4	2	I	1	0	475	1	Ⴐ	cut_j_stereo_44KHz.wav
3	100	4	4	2	I	1	0	940	1	Ⴉ	cut_j_stereo_44KHz.wav
3	101	3	3	2	I	2	0	1022	1	Ⴐ	cut_ei_stereo_44KHz.wav
3	102	2	2	1	C	2	1	703	1	Ⴏ	cut_ui_stereo_44KHz.wav
3	103	4	3	2	I	2	0	664	1	Ⴉ	cut_ei_stereo_44KHz.wav
3	104	1	1	1	C	2	1	1194	1	Ⴔ	cut_f_stereo_44KHz.wav
3	105	4	4	2	I	2	0	774	1	Ⴉ	cut_j_stereo_44KHz.wav
3	106	1	1	1	C	2	1	738	1	Ⴔ	cut_f_stereo_44KHz.wav
3	107	3	3	2	I	2	0	711	1	Ⴐ	cut_ei_stereo_44KHz.wav
3	108	2	2	1	C	2	1	1081	1	Ⴏ	cut_ui_stereo_44KHz.wav
3	109	1	2	0	C	2	0	580	0	Ⴔ	cut_ui_stereo_44KHz.wav
3	110	2	1	0	C	1	1	1005	1	Ⴏ	cut_f_stereo_44KHz.wav
3	111	3	4	2	I	2	0	1358	1	Ⴐ	cut_j_stereo_44KHz.wav
3	112	4	3	2	I	1	0	869	1	Ⴉ	cut_ei_stereo_44KHz.wav
3	113	2	2	1	C	2	1	1001	1	Ⴏ	cut_ui_stereo_44KHz.wav
3	114	4	3	2	I	2	0	597	0	Ⴉ	cut_ei_stereo_44KHz.wav
3	115	1	2	0	C	2	0	611	0	Ⴔ	cut_ui_stereo_44KHz.wav
3	116	3	4	2	I	1	0	1387	0	Ⴐ	cut_j_stereo_44KHz.wav
3	117	1	1	1	C	2	1	257	1	Ⴔ	cut_f_stereo_44KHz.wav
3	118	3	3	2	I	2	0	487	0	Ⴐ	cut_ei_stereo_44KHz.wav
3	119	2	1	0	C	2	0	485	0	Ⴏ	cut_f_stereo_44KHz.wav
3	120	4	4	2	I	2	0	1141	1	Ⴉ	cut_j_stereo_44KHz.wav
3	121	2	2	1	C	2	1	1006	1	Ⴏ	cut_ui_stereo_44KHz.wav
3	122	4	3	2	I	2	0	1101	1	Ⴉ	cut_ei_stereo_44KHz.wav
3	123	1	2	0	C	2	0	1197	0	Ⴔ	cut_ui_stereo_44KHz.wav
3	124	3	3	2	I	2	0	879	1	Ⴐ	cut_ei_stereo_44KHz.wav
3	125	2	1	0	C	1	1	704	1	Ⴏ	cut_f_stereo_44KHz.wav
3	126	3	4	2	I	2	0	1407	1	Ⴐ	cut_j_stereo_44KHz.wav
3	127	1	1	1	C	2	1	592	1	Ⴔ	cut_f_stereo_44KHz.wav
3	128	4	4	2	I	1	0	395	1	Ⴉ	cut_j_stereo_44KHz.wav
3	129	1	1	1	C	2	1	295	1	Ⴔ	cut_f_stereo_44KHz.wav
3	130	2	2	1	C	2	1	277	1	Ⴏ	cut_ui_stereo_44KHz.wav
3	131	4	3	2	I	2	0	248	1	Ⴉ	cut_ei_stereo_44KHz.wav
3	132	3	3	2	I	2	0	1509	0	Ⴐ	cut_ei_stereo_44KHz.wav
3	133	2	1	0	C	2	0	289	0	Ⴏ	cut_f_stereo_44KHz.wav
3	134	3	4	2	I	1	0	294	0	Ⴐ	cut_j_stereo_44KHz.wav
3	135	4	4	2	I	2	0	596	1	Ⴉ	cut_j_stereo_44KHz.wav
3	136	1	2	0	C	2	0	579	0	Ⴔ	cut_ui_stereo_44KHz.wav
3	137	4	4	2	I	2	0	818	1	Ⴉ	cut_j_stereo_44KHz.wav
3	138	1	2	0	C	1	1	1169	1	Ⴔ	cut_ui_stereo_44KHz.wav
3	139	2	2	1	C	2	1	705	1	Ⴏ	cut_ui_stereo_44KHz.wav
3	140	3	3	2	I	2	0	899	1	Ⴐ	cut_ei_stereo_44KHz.wav
3	141	4	3	2	I	2	0	718	1	Ⴉ	cut_ei_stereo_44KHz.wav
3	142	3	4	2	I	1	0	915	1	Ⴐ	cut_j_stereo_44KHz.wav
3	143	2	1	0	C	1	1	1392	1	Ⴏ	cut_f_stereo_44KHz.wav
3	144	1	1	1	C	2	1	562	1	Ⴔ	cut_f_stereo_44KHz.wav
3	145	2	1	0	C	2	0	971	0	Ⴏ	cut_f_stereo_44KHz.wav
3	146	4	3	2	I	2	0	948	0	Ⴉ	cut_ei_stereo_44KHz.wav
3	147	1	2	0	C	2	0	759	0	Ⴔ	cut_ui_stereo_44KHz.wav
3	148	3	3	2	I	2	0	801	0	Ⴐ	cut_ei_stereo_44KHz.wav
3	149	4	4	2	I	2	0	950	1	Ⴉ	cut_j_stereo_44KHz.wav
3	150	1	1	1	C	1	0	1515	0	Ⴔ	cut_f_stereo_44KHz.wav
3	151	3	4	2	I	1	0	813	0	Ⴐ	cut_j_stereo_44KHz.wav
3	152	2	2	1	C	2	1	1485	1	Ⴏ	cut_ui_stereo_44KHz.wav
3	153	4	3	2	I	2	0	1178	1	Ⴉ	cut_ei_stereo_44KHz.wav
3	154	1	1	1	C	2	1	626	1	Ⴔ	cut_f_stereo_44KHz.wav
3	155	2	2	1	C	2	1	505	1	Ⴏ	cut_ui_stereo_44KHz.wav
3	156	3	3	2	I	2	0	951	1	Ⴐ	cut_ei_stereo_44KHz.wav
3	157	1	2	0	C	1	1	1613	1	Ⴔ	cut_ui_stereo_44KHz.wav
3	158	4	4	2	I	2	0	1642	1	Ⴉ	cut_j_stereo_44KHz.wav
3	159	2	1	0	C	1	1	792	1	Ⴏ	cut_f_stereo_44KHz.wav
3	160	3	4	2	I	2	0	814	1	Ⴐ	cut_j_stereo_44KHz.wav
3	161	1	2	0	C	2	0	1121	0	Ⴔ	cut_ui_stereo_44KHz.wav
3	162	4	3	2	I	1	0	1012	1	Ⴉ	cut_ei_stereo_44KHz.wav
3	163	2	1	0	C	1	1	763	1	Ⴏ	cut_f_stereo_44KHz.wav
3	164	3	4	2	I	1	0	849	1	Ⴐ	cut_j_stereo_44KHz.wav
3	165	4	4	2	I	1	0	893	1	Ⴉ	cut_j_stereo_44KHz.wav
3	166	3	3	2	I	2	0	625	1	Ⴐ	cut_ei_stereo_44KHz.wav
3	167	1	1	1	C	2	1	1426	1	Ⴔ	cut_f_stereo_44KHz.wav
3	168	2	2	1	C	2	1	930	1	Ⴏ	cut_ui_stereo_44KHz.wav
3	169	3	3	2	I	2	0	1642	1	Ⴐ	cut_ei_stereo_44KHz.wav
3	170	4	3	2	I	2	0	630	0	Ⴉ	cut_ei_stereo_44KHz.wav
3	171	2	1	0	C	2	0	414	0	Ⴏ	cut_f_stereo_44KHz.wav
3	172	1	1	1	C	2	1	294	1	Ⴔ	cut_f_stereo_44KHz.wav
3	173	4	4	2	I	2	0	329	1	Ⴉ	cut_j_stereo_44KHz.wav
3	174	1	2	0	C	2	0	292	0	Ⴔ	cut_ui_stereo_44KHz.wav
3	175	2	2	1	C	2	1	345	1	Ⴏ	cut_ui_stereo_44KHz.wav
3	176	3	4	2	I	2	0	273	1	Ⴐ	cut_j_stereo_44KHz.wav
3	177	2	1	0	C	2	0	258	0	Ⴏ	cut_f_stereo_44KHz.wav
3	178	4	3	2	I	2	0	295	1	Ⴉ	cut_ei_stereo_44KHz.wav
3	179	1	2	0	C	2	0	292	0	Ⴔ	cut_ui_stereo_44KHz.wav
3	180	3	4	2	I	2	0	383	1	Ⴐ	cut_j_stereo_44KHz.wav
3	181	2	2	1	C	2	1	340	1	Ⴏ	cut_ui_stereo_44KHz.wav
3	182	3	3	2	I	2	0	399	1	Ⴐ	cut_ei_stereo_44KHz.wav
3	183	4	4	2	I	2	0	363	1	Ⴉ	cut_j_stereo_44KHz.wav
3	184	1	1	1	C	2	1	273	1	Ⴔ	cut_f_stereo_44KHz.wav
3	185	3	4	2	I	2	0	305	0	Ⴐ	cut_j_stereo_44KHz.wav
3	186	1	2	0	C	2	0	386	0	Ⴔ	cut_ui_stereo_44KHz.wav
3	187	4	4	2	I	2	0	724	1	Ⴉ	cut_j_stereo_44KHz.wav
3	188	2	2	1	C	2	1	367	1	Ⴏ	cut_ui_stereo_44KHz.wav
3	189	4	3	2	I	2	0	251	1	Ⴉ	cut_ei_stereo_44KHz.wav
3	190	3	3	2	I	2	0	364	1	Ⴐ	cut_ei_stereo_44KHz.wav
3	191	2	1	0	C	2	0	283	0	Ⴏ	cut_f_stereo_44KHz.wav
3	192	1	1	1	C	2	1	82	1	Ⴔ	cut_f_stereo_44KHz.wav
3	193	3	4	2	I	2	0	225	1	Ⴐ	cut_j_stereo_44KHz.wav
3	194	1	1	1	C	2	1	334	1	Ⴔ	cut_f_stereo_44KHz.wav
3	195	2	1	0	C	2	0	272	0	Ⴏ	cut_f_stereo_44KHz.wav
3	196	4	4	2	I	2	0	478	1	Ⴉ	cut_j_stereo_44KHz.wav
3	197	3	3	2	I	2	0	351	1	Ⴐ	cut_ei_stereo_44KHz.wav
3	198	4	3	2	I	2	0	368	0	Ⴉ	cut_ei_stereo_44KHz.wav
3	199	2	2	1	C	2	1	621	1	Ⴏ	cut_ui_stereo_44KHz.wav
3	200	1	2	0	C	2	0	839	0	Ⴔ	cut_ui_stereo_44KHz.wav
4	1	2	1	0	C	2	0	1083	0	Ⴁ	cut_h_stereo_44KHz.wav
4	2	3	4	2	I	2	0	744	1	Ⴂ	cut_w_stereo_44KHz.wav
4	3	1	2	0	C	2	0	432	0	Ⴊ	cut_g_stereo_44KHz.wav
4	4	4	4	2	I	2	0	632	1	Ⴃ	cut_w_stereo_44KHz.wav
4	5	3	3	2	I	2	0	722	1	Ⴂ	cut_l_stereo_44KHz.wav
4	6	2	2	1	C	1	0	1149	0	Ⴁ	cut_g_stereo_44KHz.wav
4	7	4	3	2	I	2	0	563	0	Ⴃ	cut_l_stereo_44KHz.wav
4	8	1	1	1	C	2	1	850	1	Ⴊ	cut_h_stereo_44KHz.wav
4	9	4	4	2	I	2	0	586	1	Ⴃ	cut_w_stereo_44KHz.wav
4	10	3	3	2	I	2	0	677	1	Ⴂ	cut_l_stereo_44KHz.wav
4	11	2	1	0	C	2	0	72	0	Ⴁ	cut_h_stereo_44KHz.wav
4	12	1	2	0	C	2	0	207	0	Ⴊ	cut_g_stereo_44KHz.wav
4	13	4	3	2	I	2	0	394	1	Ⴃ	cut_l_stereo_44KHz.wav
4	14	1	1	1	C	2	1	256	1	Ⴊ	cut_h_stereo_44KHz.wav
4	15	3	4	2	I	2	0	186	0	Ⴂ	cut_w_stereo_44KHz.wav
4	16	2	2	1	C	2	1	587	1	Ⴁ	cut_g_stereo_44KHz.wav
4	17	1	2	0	C	2	0	243	0	Ⴊ	cut_g_stereo_44KHz.wav
4	18	2	1	0	C	2	0	463	0	Ⴁ	cut_h_stereo_44KHz.wav
4	19	4	3	2	I	1	0	373	1	Ⴃ	cut_l_stereo_44KHz.wav
4	20	3	3	2	I	2	0	108	1	Ⴂ	cut_l_stereo_44KHz.wav
4	21	1	1	1	C	2	1	749	1	Ⴊ	cut_h_stereo_44KHz.wav
4	22	3	4	2	I	1	0	315	1	Ⴂ	cut_w_stereo_44KHz.wav
4	23	2	2	1	C	2	1	27	1	Ⴁ	cut_g_stereo_44KHz.wav
4	24	4	4	2	I	2	0	622	1	Ⴃ	cut_w_stereo_44KHz.wav
4	25	2	2	1	C	2	1	76	1	Ⴁ	cut_g_stereo_44KHz.wav
4	26	1	1	1	C	2	1	294	1	Ⴊ	cut_h_stereo_44KHz.wav
4	27	4	3	2	I	2	0	245	1	Ⴃ	cut_l_stereo_44KHz.wav
4	28	3	3	2	I	2	0	61	1	Ⴂ	cut_l_stereo_44KHz.wav
4	29	2	1	0	C	2	0	232	0	Ⴁ	cut_h_stereo_44KHz.wav
4	30	4	4	2	I	2	0	455	1	Ⴃ	cut_w_stereo_44KHz.wav
4	31	1	2	0	C	2	0	420	0	Ⴊ	cut_g_stereo_44KHz.wav
4	32	3	4	2	I	2	0	491	0	Ⴂ	cut_w_stereo_44KHz.wav
4	33	1	2	0	C	2	0	289	0	Ⴊ	cut_g_stereo_44KHz.wav
4	34	3	3	2	I	2	0	300	1	Ⴂ	cut_l_stereo_44KHz.wav
4	35	4	3	2	I	2	0	415	1	Ⴃ	cut_l_stereo_44KHz.wav
4	36	2	1	0	C	2	0	365	0	Ⴁ	cut_h_stereo_44KHz.wav
4	37	4	4	2	I	2	0	535	0	Ⴃ	cut_w_stereo_44KHz.wav
4	38	1	1	1	C	2	1	274	1	Ⴊ	cut_h_stereo_44KHz.wav
4	39	2	2	1	C	2	1	249	1	Ⴁ	cut_g_stereo_44KHz.wav
4	40	3	4	2	I	2	0	265	1	Ⴂ	cut_w_stereo_44KHz.wav
4	41	4	4	2	I	2	0	331	1	Ⴃ	cut_w_stereo_44KHz.wav
4	42	1	2	0	C	2	0	106	0	Ⴊ	cut_g_stereo_44KHz.wav
4	43	2	1	0	C	1	1	705	1	Ⴁ	cut_h_stereo_44KHz.wav
4	44	3	4	2	I	2	0	408	1	Ⴂ	cut_w_stereo_44KHz.wav
4	45	4	3	2	I	2	0	206	1	Ⴃ	cut_l_stereo_44KHz.wav
4	46	2	2	1	C	2	1	284	1	Ⴁ	cut_g_stereo_44KHz.wav
4	47	1	1	1	C	2	1	563	1	Ⴊ	cut_h_stereo_44KHz.wav
4	48	3	3	2	I	2	0	561	0	Ⴂ	cut_l_stereo_44KHz.wav
4	49	2	2	1	C	2	1	391	1	Ⴁ	cut_g_stereo_44KHz.wav
4	50	1	2	0	C	2	0	550	0	Ⴊ	cut_g_stereo_44KHz.wav
4	51	4	4	2	I	2	0	364	1	Ⴃ	cut_w_stereo_44KHz.wav
4	52	3	4	2	I	2	0	359	1	Ⴂ	cut_w_stereo_44KHz.wav
4	53	1	1	1	C	2	1	4	1	Ⴊ	cut_h_stereo_44KHz.wav
4	54	3	3	2	I	2	0	123	1	Ⴂ	cut_l_stereo_44KHz.wav
4	55	4	3	2	I	2	0	289	1	Ⴃ	cut_l_stereo_44KHz.wav
4	56	2	1	0	C	1	1	163	1	Ⴁ	cut_h_stereo_44KHz.wav
4	57	4	4	2	I	2	0	211	0	Ⴃ	cut_w_stereo_44KHz.wav
4	58	3	4	2	I	2	0	529	1	Ⴂ	cut_w_stereo_44KHz.wav
4	59	1	1	1	C	2	1	299	1	Ⴊ	cut_h_stereo_44KHz.wav
4	60	2	2	1	C	2	1	318	1	Ⴁ	cut_g_stereo_44KHz.wav
4	61	3	3	2	I	2	0	389	0	Ⴂ	cut_l_stereo_44KHz.wav
4	62	2	1	0	C	2	0	702	0	Ⴁ	cut_h_stereo_44KHz.wav
4	63	1	2	0	C	1	1	318	1	Ⴊ	cut_g_stereo_44KHz.wav
4	64	4	3	2	I	2	0	297	1	Ⴃ	cut_l_stereo_44KHz.wav
4	65	1	2	0	C	1	1	241	1	Ⴊ	cut_g_stereo_44KHz.wav
4	66	3	4	2	I	1	0	304	1	Ⴂ	cut_w_stereo_44KHz.wav
4	67	2	1	0	C	1	1	388	1	Ⴁ	cut_h_stereo_44KHz.wav
4	68	4	3	2	I	2	0	489	1	Ⴃ	cut_l_stereo_44KHz.wav
4	69	2	2	1	C	2	1	317	1	Ⴁ	cut_g_stereo_44KHz.wav
4	70	3	3	2	I	1	0	33	1	Ⴂ	cut_l_stereo_44KHz.wav
4	71	1	1	1	C	2	1	348	1	Ⴊ	cut_h_stereo_44KHz.wav
4	72	4	4	2	I	1	0	199	1	Ⴃ	cut_w_stereo_44KHz.wav
4	73	2	1	0	C	2	0	477	0	Ⴁ	cut_h_stereo_44KHz.wav
4	74	4	4	2	I	1	0	331	0	Ⴃ	cut_w_stereo_44KHz.wav
4	75	1	1	1	C	1	0	381	0	Ⴊ	cut_h_stereo_44KHz.wav
4	76	3	3	2	I	2	0	16	1	Ⴂ	cut_l_stereo_44KHz.wav
4	77	4	3	2	I	1	0	105	1	Ⴃ	cut_l_stereo_44KHz.wav
4	78	1	2	0	C	1	1	132	1	Ⴊ	cut_g_stereo_44KHz.wav
4	79	2	2	1	C	2	1	374	1	Ⴁ	cut_g_stereo_44KHz.wav
4	80	3	4	2	I	2	0	428	1	Ⴂ	cut_w_stereo_44KHz.wav
4	81	4	3	2	I	1	0	585	1	Ⴃ	cut_l_stereo_44KHz.wav
4	82	2	1	0	C	2	0	599	0	Ⴁ	cut_h_stereo_44KHz.wav
4	83	1	1	1	C	1	0	235	0	Ⴊ	cut_h_stereo_44KHz.wav
4	84	3	4	2	I	2	0	251	1	Ⴂ	cut_w_stereo_44KHz.wav
4	85	1	2	0	C	2	0	358	0	Ⴊ	cut_g_stereo_44KHz.wav
4	86	4	4	2	I	2	0	835	1	Ⴃ	cut_w_stereo_44KHz.wav
4	87	2	2	1	C	2	1	451	1	Ⴁ	cut_g_stereo_44KHz.wav
4	88	3	3	2	I	2	0	290	1	Ⴂ	cut_l_stereo_44KHz.wav
4	89	4	4	2	I	2	0	239	1	Ⴃ	cut_w_stereo_44KHz.wav
4	90	1	1	1	C	2	1	525	1	Ⴊ	cut_h_stereo_44KHz.wav
4	91	2	2	1	C	2	1	290	1	Ⴁ	cut_g_stereo_44KHz.wav
4	92	3	4	2	I	2	0	461	0	Ⴂ	cut_w_stereo_44KHz.wav
4	93	2	1	0	C	2	0	253	0	Ⴁ	cut_h_stereo_44KHz.wav
4	94	3	3	2	I	2	0	296	1	Ⴂ	cut_l_stereo_44KHz.wav
4	95	4	3	2	I	2	0	256	1	Ⴃ	cut_l_stereo_44KHz.wav
4	96	1	2	0	C	2	0	291	0	Ⴊ	cut_g_stereo_44KHz.wav
4	97	2	1	0	C	2	0	431	0	Ⴁ	cut_h_stereo_44KHz.wav
4	98	3	3	2	I	2	0	221	1	Ⴂ	cut_l_stereo_44KHz.wav
4	99	1	1	1	C	2	1	225	1	Ⴊ	cut_h_stereo_44KHz.wav
4	100	4	4	2	I	2	0	389	0	Ⴃ	cut_w_stereo_44KHz.wav
4	101	1	2	0	C	2	0	519	0	Ⴊ	cut_g_stereo_44KHz.wav
4	102	3	4	2	I	2	0	269	0	Ⴂ	cut_w_stereo_44KHz.wav
4	103	2	2	1	C	2	1	270	1	Ⴁ	cut_g_stereo_44KHz.wav
4	104	4	3	2	I	2	0	199	0	Ⴃ	cut_l_stereo_44KHz.wav
4	105	2	2	1	C	2	1	297	1	Ⴁ	cut_g_stereo_44KHz.wav
4	106	1	2	0	C	2	0	282	0	Ⴊ	cut_g_stereo_44KHz.wav
4	107	3	4	2	I	1	0	426	1	Ⴂ	cut_w_stereo_44KHz.wav
4	108	4	3	2	I	2	0	192	1	Ⴃ	cut_l_stereo_44KHz.wav
4	109	2	1	0	C	1	1	276	1	Ⴁ	cut_h_stereo_44KHz.wav
4	110	4	4	2	I	2	0	398	1	Ⴃ	cut_w_stereo_44KHz.wav
4	111	3	3	2	I	1	0	251	1	Ⴂ	cut_l_stereo_44KHz.wav
4	112	1	1	1	C	2	1	281	1	Ⴊ	cut_h_stereo_44KHz.wav
4	113	4	4	2	I	1	0	265	0	Ⴃ	cut_w_stereo_44KHz.wav
4	114	2	2	1	C	2	1	486	1	Ⴁ	cut_g_stereo_44KHz.wav
4	115	3	3	2	I	1	0	4	1	Ⴂ	cut_l_stereo_44KHz.wav
4	116	1	2	0	C	2	0	236	0	Ⴊ	cut_g_stereo_44KHz.wav
4	117	4	3	2	I	1	0	222	1	Ⴃ	cut_l_stereo_44KHz.wav
4	118	1	1	1	C	2	1	643	1	Ⴊ	cut_h_stereo_44KHz.wav
4	119	3	4	2	I	1	0	250	1	Ⴂ	cut_w_stereo_44KHz.wav
4	120	2	1	0	C	2	0	243	0	Ⴁ	cut_h_stereo_44KHz.wav
4	121	4	3	2	I	1	0	69	0	Ⴃ	cut_l_stereo_44KHz.wav
4	122	1	1	1	C	1	0	380	0	Ⴊ	cut_h_stereo_44KHz.wav
4	123	2	2	1	C	2	1	258	1	Ⴁ	cut_g_stereo_44KHz.wav
4	124	3	4	2	I	1	0	229	1	Ⴂ	cut_w_stereo_44KHz.wav
4	125	2	1	0	C	2	0	284	0	Ⴁ	cut_h_stereo_44KHz.wav
4	126	4	4	2	I	1	0	113	1	Ⴃ	cut_w_stereo_44KHz.wav
4	127	3	3	2	I	2	0	189	0	Ⴂ	cut_l_stereo_44KHz.wav
4	128	1	2	0	C	1	1	742	1	Ⴊ	cut_g_stereo_44KHz.wav
4	129	4	4	2	I	1	0	198	1	Ⴃ	cut_w_stereo_44KHz.wav
4	130	2	1	0	C	0	0	0	0	Ⴁ	cut_h_stereo_44KHz.wav
4	131	3	4	2	I	1	0	405	0	Ⴂ	cut_w_stereo_44KHz.wav
4	132	1	1	1	C	2	1	380	1	Ⴊ	cut_h_stereo_44KHz.wav
4	133	4	3	2	I	1	0	237	0	Ⴃ	cut_l_stereo_44KHz.wav
4	134	3	3	2	I	2	0	310	1	Ⴂ	cut_l_stereo_44KHz.wav
4	135	2	2	1	C	1	0	488	0	Ⴁ	cut_g_stereo_44KHz.wav
4	136	1	2	0	C	2	0	484	0	Ⴊ	cut_g_stereo_44KHz.wav
4	137	2	1	0	C	1	1	125	1	Ⴁ	cut_h_stereo_44KHz.wav
4	138	1	2	0	C	2	0	411	0	Ⴊ	cut_g_stereo_44KHz.wav
4	139	4	3	2	I	1	0	461	1	Ⴃ	cut_l_stereo_44KHz.wav
4	140	3	4	2	I	1	0	490	1	Ⴂ	cut_w_stereo_44KHz.wav
4	141	4	4	2	I	1	0	435	1	Ⴃ	cut_w_stereo_44KHz.wav
4	142	1	1	1	C	1	0	340	0	Ⴊ	cut_h_stereo_44KHz.wav
4	143	2	2	1	C	1	0	48	0	Ⴁ	cut_g_stereo_44KHz.wav
4	144	3	3	2	I	1	0	1188	1	Ⴂ	cut_l_stereo_44KHz.wav
4	145	1	2	0	C	1	1	32	1	Ⴊ	cut_g_stereo_44KHz.wav
4	146	2	2	1	C	1	0	861	0	Ⴁ	cut_g_stereo_44KHz.wav
4	147	3	3	2	I	2	0	1624	0	Ⴂ	cut_l_stereo_44KHz.wav
4	148	4	4	2	I	1	0	330	1	Ⴃ	cut_w_stereo_44KHz.wav
4	149	1	1	1	C	1	0	245	0	Ⴊ	cut_h_stereo_44KHz.wav
4	150	4	3	2	I	2	0	180	1	Ⴃ	cut_l_stereo_44KHz.wav
4	151	3	4	2	I	1	0	539	1	Ⴂ	cut_w_stereo_44KHz.wav
4	152	2	1	0	C	1	1	501	1	Ⴁ	cut_h_stereo_44KHz.wav
4	153	1	2	0	C	2	0	855	0	Ⴊ	cut_g_stereo_44KHz.wav
4	154	3	3	2	I	1	0	290	1	Ⴂ	cut_l_stereo_44KHz.wav
4	155	4	3	2	I	1	0	236	1	Ⴃ	cut_l_stereo_44KHz.wav
4	156	2	2	1	C	2	1	458	1	Ⴁ	cut_g_stereo_44KHz.wav
4	157	3	4	2	I	2	0	321	1	Ⴂ	cut_w_stereo_44KHz.wav
4	158	2	1	0	C	2	0	634	0	Ⴁ	cut_h_stereo_44KHz.wav
4	159	1	1	1	C	1	0	705	0	Ⴊ	cut_h_stereo_44KHz.wav
4	160	4	4	2	I	1	0	714	1	Ⴃ	cut_w_stereo_44KHz.wav
4	161	1	1	1	C	2	1	638	1	Ⴊ	cut_h_stereo_44KHz.wav
4	162	4	4	2	I	2	0	314	1	Ⴃ	cut_w_stereo_44KHz.wav
4	163	2	1	0	C	2	0	390	0	Ⴁ	cut_h_stereo_44KHz.wav
4	164	3	3	2	I	1	0	425	1	Ⴂ	cut_l_stereo_44KHz.wav
4	165	2	2	1	C	2	1	307	1	Ⴁ	cut_g_stereo_44KHz.wav
4	166	3	4	2	I	1	0	270	1	Ⴂ	cut_w_stereo_44KHz.wav
4	167	4	3	2	I	2	0	481	1	Ⴃ	cut_l_stereo_44KHz.wav
4	168	1	2	0	C	2	0	358	0	Ⴊ	cut_g_stereo_44KHz.wav
4	169	4	3	2	I	2	0	401	1	Ⴃ	cut_l_stereo_44KHz.wav
4	170	3	3	2	I	2	0	703	1	Ⴂ	cut_l_stereo_44KHz.wav
4	171	2	1	0	C	2	0	459	0	Ⴁ	cut_h_stereo_44KHz.wav
4	172	1	2	0	C	2	0	530	0	Ⴊ	cut_g_stereo_44KHz.wav
4	173	3	4	2	I	2	0	548	1	Ⴂ	cut_w_stereo_44KHz.wav
4	174	4	4	2	I	1	0	510	1	Ⴃ	cut_w_stereo_44KHz.wav
4	175	2	2	1	C	2	1	538	1	Ⴁ	cut_g_stereo_44KHz.wav
4	176	1	1	1	C	2	1	891	1	Ⴊ	cut_h_stereo_44KHz.wav
4	177	3	3	2	I	2	0	524	0	Ⴂ	cut_l_stereo_44KHz.wav
4	178	2	1	0	C	1	1	357	1	Ⴁ	cut_h_stereo_44KHz.wav
4	179	1	2	0	C	1	1	463	1	Ⴊ	cut_g_stereo_44KHz.wav
4	180	4	4	2	I	2	0	510	0	Ⴃ	cut_w_stereo_44KHz.wav
4	181	3	4	2	I	2	0	305	1	Ⴂ	cut_w_stereo_44KHz.wav
4	182	4	3	2	I	2	0	455	1	Ⴃ	cut_l_stereo_44KHz.wav
4	183	1	1	1	C	2	1	347	1	Ⴊ	cut_h_stereo_44KHz.wav
4	184	2	2	1	C	2	1	293	1	Ⴁ	cut_g_stereo_44KHz.wav
4	185	3	3	2	I	2	0	409	1	Ⴂ	cut_l_stereo_44KHz.wav
4	186	2	1	0	C	2	0	370	0	Ⴁ	cut_h_stereo_44KHz.wav
4	187	4	4	2	I	2	0	297	1	Ⴃ	cut_w_stereo_44KHz.wav
4	188	1	1	1	C	2	1	387	1	Ⴊ	cut_h_stereo_44KHz.wav
4	189	3	4	2	I	2	0	615	1	Ⴂ	cut_w_stereo_44KHz.wav
4	190	4	3	2	I	2	0	501	1	Ⴃ	cut_l_stereo_44KHz.wav
4	191	1	2	0	C	2	0	518	0	Ⴊ	cut_g_stereo_44KHz.wav
4	192	2	2	1	C	2	1	588	1	Ⴁ	cut_g_stereo_44KHz.wav
4	193	3	3	2	I	2	0	747	1	Ⴂ	cut_l_stereo_44KHz.wav
4	194	2	2	1	C	2	1	663	1	Ⴁ	cut_g_stereo_44KHz.wav
4	195	4	4	2	I	2	0	490	1	Ⴃ	cut_w_stereo_44KHz.wav
4	196	1	2	0	C	2	0	346	0	Ⴊ	cut_g_stereo_44KHz.wav
4	197	4	3	2	I	1	0	149	1	Ⴃ	cut_l_stereo_44KHz.wav
4	198	1	1	1	C	2	1	382	1	Ⴊ	cut_h_stereo_44KHz.wav
4	199	2	1	0	C	2	0	306	0	Ⴁ	cut_h_stereo_44KHz.wav
4	200	3	4	2	I	2	0	287	1	Ⴂ	cut_w_stereo_44KHz.wav
