block	trial	Vstim	Astim	match	C/I	resp	result	RT	fb	V-file	A-file
RL

0	1	2	3	1	C	0	0	0	0	Ⴢ	cut_oo_stereo_44KHz.wav
0	2	2	4	0	C	1	0	1742	0	Ⴢ	cut_ee_stereo_44KHz.wav
0	3	1	2	0	C	2	1	1760	1	Ⴞ	cut_eeuw_stereo_44KHz.wav
0	4	1	1	1	C	2	0	1891	0	Ⴞ	cut_g_stereo_44KHz.wav
0	5	1	1	1	C	0	0	0	0	Ⴞ	cut_g_stereo_44KHz.wav
0	6	2	3	1	C	2	0	1253	0	Ⴢ	cut_oo_stereo_44KHz.wav
0	7	1	2	0	C	1	0	1020	0	Ⴞ	cut_eeuw_stereo_44KHz.wav
0	8	2	4	0	C	0	0	0	0	Ⴢ	cut_ee_stereo_44KHz.wav
0	9	1	2	0	C	2	1	714	1	Ⴞ	cut_eeuw_stereo_44KHz.wav
0	10	1	1	1	C	1	1	657	1	Ⴞ	cut_g_stereo_44KHz.wav
0	11	2	3	1	C	2	0	982	0	Ⴢ	cut_oo_stereo_44KHz.wav
0	12	2	4	0	C	1	0	745	0	Ⴢ	cut_ee_stereo_44KHz.wav
0	13	1	1	1	C	2	0	905	0	Ⴞ	cut_g_stereo_44KHz.wav
0	14	1	2	0	C	1	0	722	0	Ⴞ	cut_eeuw_stereo_44KHz.wav
0	15	2	3	1	C	1	1	951	1	Ⴢ	cut_oo_stereo_44KHz.wav
0	16	2	4	0	C	2	1	940	1	Ⴢ	cut_ee_stereo_44KHz.wav
0	17	2	4	0	C	1	0	1501	0	Ⴢ	cut_ee_stereo_44KHz.wav
0	18	1	2	0	C	1	0	954	0	Ⴞ	cut_eeuw_stereo_44KHz.wav
0	19	2	3	1	C	2	0	990	0	Ⴢ	cut_oo_stereo_44KHz.wav
0	20	1	1	1	C	0	0	0	0	Ⴞ	cut_g_stereo_44KHz.wav
0	21	1	2	0	C	2	1	773	1	Ⴞ	cut_eeuw_stereo_44KHz.wav
0	22	2	4	0	C	1	0	1862	0	Ⴢ	cut_ee_stereo_44KHz.wav
0	23	2	3	1	C	2	0	551	0	Ⴢ	cut_oo_stereo_44KHz.wav
0	24	1	1	1	C	0	0	0	0	Ⴞ	cut_g_stereo_44KHz.wav
0	25	2	3	1	C	2	0	453	0	Ⴢ	cut_oo_stereo_44KHz.wav
0	26	2	4	0	C	1	0	723	0	Ⴢ	cut_ee_stereo_44KHz.wav
0	27	1	1	1	C	0	0	0	0	Ⴞ	cut_g_stereo_44KHz.wav
0	28	1	2	0	C	1	0	1034	0	Ⴞ	cut_eeuw_stereo_44KHz.wav
0	29	1	1	1	C	2	0	727	0	Ⴞ	cut_g_stereo_44KHz.wav
0	30	1	2	0	C	2	1	115	1	Ⴞ	cut_eeuw_stereo_44KHz.wav
avg_resp = 844
1	1	1	2	0	C	0	0	0	0	Ⴏ	cut_l_stereo_44KHz.wav
1	2	3	3	2	I	2	0	1240	1	Ⴒ	cut_g_stereo_44KHz.wav
1	3	4	3	2	I	1	0	1450	1	Ⴉ	cut_g_stereo_44KHz.wav
1	4	2	1	0	C	2	1	1206	1	Ⴌ	cut_h_stereo_44KHz.wav
1	5	1	1	1	C	1	1	1580	1	Ⴏ	cut_h_stereo_44KHz.wav
1	6	3	4	2	I	1	0	1543	0	Ⴒ	cut_w_stereo_44KHz.wav
1	7	2	2	1	C	2	0	1448	0	Ⴌ	cut_l_stereo_44KHz.wav
1	8	4	4	2	I	1	0	1461	0	Ⴉ	cut_w_stereo_44KHz.wav
1	9	2	1	0	C	2	1	884	1	Ⴌ	cut_h_stereo_44KHz.wav
1	10	4	4	2	I	1	0	932	1	Ⴉ	cut_w_stereo_44KHz.wav
1	11	3	4	2	I	1	0	1616	1	Ⴒ	cut_w_stereo_44KHz.wav
1	12	1	1	1	C	1	1	1234	1	Ⴏ	cut_h_stereo_44KHz.wav
1	13	2	2	1	C	1	1	1238	1	Ⴌ	cut_l_stereo_44KHz.wav
1	14	1	2	0	C	1	0	1193	0	Ⴏ	cut_l_stereo_44KHz.wav
1	15	4	3	2	I	1	0	1213	1	Ⴉ	cut_g_stereo_44KHz.wav
1	16	3	3	2	I	2	0	1089	1	Ⴒ	cut_g_stereo_44KHz.wav
1	17	1	1	1	C	1	1	1173	1	Ⴏ	cut_h_stereo_44KHz.wav
1	18	2	2	1	C	1	1	1137	1	Ⴌ	cut_l_stereo_44KHz.wav
1	19	3	4	2	I	1	0	1261	1	Ⴒ	cut_w_stereo_44KHz.wav
1	20	4	4	2	I	1	0	1273	1	Ⴉ	cut_w_stereo_44KHz.wav
1	21	3	3	2	I	2	0	856	1	Ⴒ	cut_g_stereo_44KHz.wav
1	22	2	1	0	C	2	1	729	1	Ⴌ	cut_h_stereo_44KHz.wav
1	23	1	2	0	C	1	0	1646	0	Ⴏ	cut_l_stereo_44KHz.wav
1	24	4	3	2	I	1	0	1546	0	Ⴉ	cut_g_stereo_44KHz.wav
1	25	2	1	0	C	2	1	858	1	Ⴌ	cut_h_stereo_44KHz.wav
1	26	1	2	0	C	1	0	1066	0	Ⴏ	cut_l_stereo_44KHz.wav
1	27	4	3	2	I	1	0	1392	1	Ⴉ	cut_g_stereo_44KHz.wav
1	28	3	3	2	I	2	0	1146	1	Ⴒ	cut_g_stereo_44KHz.wav
1	29	2	2	1	C	1	1	1828	1	Ⴌ	cut_l_stereo_44KHz.wav
1	30	1	1	1	C	1	1	1005	1	Ⴏ	cut_h_stereo_44KHz.wav
1	31	4	4	2	I	1	0	1892	1	Ⴉ	cut_w_stereo_44KHz.wav
1	32	3	4	2	I	1	0	1248	1	Ⴒ	cut_w_stereo_44KHz.wav
1	33	1	1	1	C	1	1	1228	1	Ⴏ	cut_h_stereo_44KHz.wav
1	34	4	4	2	I	1	0	1067	1	Ⴉ	cut_w_stereo_44KHz.wav
1	35	3	4	2	I	1	0	1050	0	Ⴒ	cut_w_stereo_44KHz.wav
1	36	2	2	1	C	2	0	1020	0	Ⴌ	cut_l_stereo_44KHz.wav
1	37	1	2	0	C	2	1	1648	1	Ⴏ	cut_l_stereo_44KHz.wav
1	38	4	3	2	I	1	0	1357	1	Ⴉ	cut_g_stereo_44KHz.wav
1	39	2	1	0	C	2	1	883	1	Ⴌ	cut_h_stereo_44KHz.wav
1	40	3	3	2	I	0	0	0	0	Ⴒ	cut_g_stereo_44KHz.wav
1	41	4	4	2	I	1	0	814	0	Ⴉ	cut_w_stereo_44KHz.wav
1	42	2	1	0	C	2	1	766	1	Ⴌ	cut_h_stereo_44KHz.wav
1	43	1	2	0	C	1	0	1599	0	Ⴏ	cut_l_stereo_44KHz.wav
1	44	3	4	2	I	1	0	1016	0	Ⴒ	cut_w_stereo_44KHz.wav
1	45	1	1	1	C	1	1	1086	1	Ⴏ	cut_h_stereo_44KHz.wav
1	46	2	2	1	C	1	1	1370	1	Ⴌ	cut_l_stereo_44KHz.wav
1	47	3	3	2	I	2	0	969	1	Ⴒ	cut_g_stereo_44KHz.wav
1	48	4	3	2	I	1	0	1363	1	Ⴉ	cut_g_stereo_44KHz.wav
1	49	2	2	1	C	1	1	1482	1	Ⴌ	cut_l_stereo_44KHz.wav
1	50	4	4	2	I	1	0	737	1	Ⴉ	cut_w_stereo_44KHz.wav
1	51	3	4	2	I	1	0	896	1	Ⴒ	cut_w_stereo_44KHz.wav
1	52	1	1	1	C	1	1	766	1	Ⴏ	cut_h_stereo_44KHz.wav
1	53	2	1	0	C	2	1	769	1	Ⴌ	cut_h_stereo_44KHz.wav
1	54	4	3	2	I	1	0	845	0	Ⴉ	cut_g_stereo_44KHz.wav
1	55	3	3	2	I	2	0	832	1	Ⴒ	cut_g_stereo_44KHz.wav
1	56	1	2	0	C	1	0	834	0	Ⴏ	cut_l_stereo_44KHz.wav
1	57	3	3	2	I	2	0	692	0	Ⴒ	cut_g_stereo_44KHz.wav
1	58	1	2	0	C	1	0	886	0	Ⴏ	cut_l_stereo_44KHz.wav
1	59	4	3	2	I	2	0	1039	1	Ⴉ	cut_g_stereo_44KHz.wav
1	60	2	1	0	C	2	1	707	1	Ⴌ	cut_h_stereo_44KHz.wav
1	61	4	4	2	I	1	0	1572	1	Ⴉ	cut_w_stereo_44KHz.wav
1	62	2	2	1	C	2	0	808	0	Ⴌ	cut_l_stereo_44KHz.wav
1	63	1	1	1	C	1	1	1655	1	Ⴏ	cut_h_stereo_44KHz.wav
1	64	3	4	2	I	1	0	1007	1	Ⴒ	cut_w_stereo_44KHz.wav
1	65	1	2	0	C	1	0	1045	0	Ⴏ	cut_l_stereo_44KHz.wav
1	66	3	4	2	I	1	0	951	0	Ⴒ	cut_w_stereo_44KHz.wav
1	67	4	4	2	I	1	0	1276	1	Ⴉ	cut_w_stereo_44KHz.wav
1	68	2	2	1	C	2	0	1475	0	Ⴌ	cut_l_stereo_44KHz.wav
1	69	3	3	2	I	2	0	769	1	Ⴒ	cut_g_stereo_44KHz.wav
1	70	1	1	1	C	1	1	1602	1	Ⴏ	cut_h_stereo_44KHz.wav
1	71	2	1	0	C	2	1	971	1	Ⴌ	cut_h_stereo_44KHz.wav
1	72	4	3	2	I	1	0	1170	1	Ⴉ	cut_g_stereo_44KHz.wav
1	73	3	3	2	I	2	0	766	1	Ⴒ	cut_g_stereo_44KHz.wav
1	74	1	2	0	C	0	0	0	0	Ⴏ	cut_l_stereo_44KHz.wav
1	75	4	4	2	I	2	0	1257	1	Ⴉ	cut_w_stereo_44KHz.wav
1	76	2	2	1	C	0	0	0	0	Ⴌ	cut_l_stereo_44KHz.wav
1	77	3	4	2	I	1	0	903	0	Ⴒ	cut_w_stereo_44KHz.wav
1	78	1	1	1	C	1	1	863	1	Ⴏ	cut_h_stereo_44KHz.wav
1	79	4	3	2	I	2	0	1115	0	Ⴉ	cut_g_stereo_44KHz.wav
1	80	2	1	0	C	2	1	831	1	Ⴌ	cut_h_stereo_44KHz.wav
1	81	4	3	2	I	0	0	0	0	Ⴉ	cut_g_stereo_44KHz.wav
1	82	1	1	1	C	2	0	740	0	Ⴏ	cut_h_stereo_44KHz.wav
1	83	3	4	2	I	1	0	848	0	Ⴒ	cut_w_stereo_44KHz.wav
1	84	2	1	0	C	2	1	619	1	Ⴌ	cut_h_stereo_44KHz.wav
1	85	3	3	2	I	2	0	1168	1	Ⴒ	cut_g_stereo_44KHz.wav
1	86	1	2	0	C	1	0	1431	0	Ⴏ	cut_l_stereo_44KHz.wav
1	87	2	2	1	C	1	1	1005	1	Ⴌ	cut_l_stereo_44KHz.wav
1	88	4	4	2	I	1	0	1177	1	Ⴉ	cut_w_stereo_44KHz.wav
1	89	3	4	2	I	1	0	892	1	Ⴒ	cut_w_stereo_44KHz.wav
1	90	2	2	1	C	1	1	1106	1	Ⴌ	cut_l_stereo_44KHz.wav
1	91	1	2	0	C	1	0	972	0	Ⴏ	cut_l_stereo_44KHz.wav
1	92	4	3	2	I	2	0	924	0	Ⴉ	cut_g_stereo_44KHz.wav
1	93	3	3	2	I	2	0	1511	1	Ⴒ	cut_g_stereo_44KHz.wav
1	94	2	1	0	C	2	1	787	1	Ⴌ	cut_h_stereo_44KHz.wav
1	95	4	4	2	I	1	0	1080	0	Ⴉ	cut_w_stereo_44KHz.wav
1	96	1	1	1	C	1	1	1251	1	Ⴏ	cut_h_stereo_44KHz.wav
1	97	2	2	1	C	2	0	1056	0	Ⴌ	cut_l_stereo_44KHz.wav
1	98	4	3	2	I	2	0	1128	0	Ⴉ	cut_g_stereo_44KHz.wav
1	99	3	4	2	I	1	0	1189	1	Ⴒ	cut_w_stereo_44KHz.wav
1	100	1	2	0	C	1	0	1710	0	Ⴏ	cut_l_stereo_44KHz.wav
1	101	3	3	2	I	2	0	969	1	Ⴒ	cut_g_stereo_44KHz.wav
1	102	2	1	0	C	2	1	807	1	Ⴌ	cut_h_stereo_44KHz.wav
1	103	4	4	2	I	1	0	1312	1	Ⴉ	cut_w_stereo_44KHz.wav
1	104	1	1	1	C	2	0	1143	0	Ⴏ	cut_h_stereo_44KHz.wav
1	105	4	3	2	I	1	0	817	1	Ⴉ	cut_g_stereo_44KHz.wav
1	106	1	1	1	C	1	1	1164	1	Ⴏ	cut_h_stereo_44KHz.wav
1	107	2	2	1	C	2	0	675	0	Ⴌ	cut_l_stereo_44KHz.wav
1	108	3	3	2	I	2	0	855	1	Ⴒ	cut_g_stereo_44KHz.wav
1	109	2	1	0	C	2	1	740	1	Ⴌ	cut_h_stereo_44KHz.wav
1	110	3	4	2	I	2	0	1141	0	Ⴒ	cut_w_stereo_44KHz.wav
1	111	4	4	2	I	1	0	1592	1	Ⴉ	cut_w_stereo_44KHz.wav
1	112	1	2	0	C	1	0	959	0	Ⴏ	cut_l_stereo_44KHz.wav
1	113	3	3	2	I	2	0	791	1	Ⴒ	cut_g_stereo_44KHz.wav
1	114	1	1	1	C	2	0	1087	0	Ⴏ	cut_h_stereo_44KHz.wav
1	115	4	3	2	I	1	0	1106	1	Ⴉ	cut_g_stereo_44KHz.wav
1	116	2	2	1	C	1	1	1127	1	Ⴌ	cut_l_stereo_44KHz.wav
1	117	4	4	2	I	1	0	1587	1	Ⴉ	cut_w_stereo_44KHz.wav
1	118	2	1	0	C	2	1	737	1	Ⴌ	cut_h_stereo_44KHz.wav
1	119	1	2	0	C	1	0	760	0	Ⴏ	cut_l_stereo_44KHz.wav
1	120	3	4	2	I	0	0	0	0	Ⴒ	cut_w_stereo_44KHz.wav
1	121	4	4	2	I	1	0	992	1	Ⴉ	cut_w_stereo_44KHz.wav
1	122	3	4	2	I	1	0	744	1	Ⴒ	cut_w_stereo_44KHz.wav
1	123	2	1	0	C	2	1	859	1	Ⴌ	cut_h_stereo_44KHz.wav
1	124	1	2	0	C	2	1	1425	1	Ⴏ	cut_l_stereo_44KHz.wav
1	125	2	2	1	C	1	1	1439	1	Ⴌ	cut_l_stereo_44KHz.wav
1	126	3	3	2	I	1	0	1380	1	Ⴒ	cut_g_stereo_44KHz.wav
1	127	1	1	1	C	2	0	993	0	Ⴏ	cut_h_stereo_44KHz.wav
1	128	4	3	2	I	1	0	1246	1	Ⴉ	cut_g_stereo_44KHz.wav
1	129	2	2	1	C	1	1	1038	1	Ⴌ	cut_l_stereo_44KHz.wav
1	130	4	3	2	I	1	0	779	0	Ⴉ	cut_g_stereo_44KHz.wav
1	131	3	4	2	I	1	0	1074	1	Ⴒ	cut_w_stereo_44KHz.wav
1	132	1	2	0	C	1	0	1012	0	Ⴏ	cut_l_stereo_44KHz.wav
1	133	4	4	2	I	1	0	859	1	Ⴉ	cut_w_stereo_44KHz.wav
1	134	3	3	2	I	2	0	903	1	Ⴒ	cut_g_stereo_44KHz.wav
1	135	1	1	1	C	1	1	1457	1	Ⴏ	cut_h_stereo_44KHz.wav
1	136	2	1	0	C	2	1	775	1	Ⴌ	cut_h_stereo_44KHz.wav
1	137	3	3	2	I	2	0	836	1	Ⴒ	cut_g_stereo_44KHz.wav
1	138	4	3	2	I	0	0	0	0	Ⴉ	cut_g_stereo_44KHz.wav
1	139	2	2	1	C	1	1	1122	1	Ⴌ	cut_l_stereo_44KHz.wav
1	140	1	2	0	C	1	0	738	0	Ⴏ	cut_l_stereo_44KHz.wav
1	141	2	1	0	C	2	1	975	1	Ⴌ	cut_h_stereo_44KHz.wav
1	142	4	4	2	I	1	0	1271	1	Ⴉ	cut_w_stereo_44KHz.wav
1	143	1	1	1	C	1	1	1425	1	Ⴏ	cut_h_stereo_44KHz.wav
1	144	3	4	2	I	1	0	1421	0	Ⴒ	cut_w_stereo_44KHz.wav
1	145	1	1	1	C	1	1	940	1	Ⴏ	cut_h_stereo_44KHz.wav
1	146	4	4	2	I	2	0	944	1	Ⴉ	cut_w_stereo_44KHz.wav
1	147	2	2	1	C	2	0	582	0	Ⴌ	cut_l_stereo_44KHz.wav
1	148	3	4	2	I	1	0	905	1	Ⴒ	cut_w_stereo_44KHz.wav
1	149	2	1	0	C	2	1	628	1	Ⴌ	cut_h_stereo_44KHz.wav
1	150	1	2	0	C	1	0	1324	0	Ⴏ	cut_l_stereo_44KHz.wav
1	151	3	3	2	I	2	0	762	1	Ⴒ	cut_g_stereo_44KHz.wav
1	152	4	3	2	I	1	0	863	1	Ⴉ	cut_g_stereo_44KHz.wav
1	153	3	4	2	I	1	0	969	1	Ⴒ	cut_w_stereo_44KHz.wav
1	154	1	2	0	C	1	0	1542	0	Ⴏ	cut_l_stereo_44KHz.wav
1	155	2	2	1	C	1	1	1290	1	Ⴌ	cut_l_stereo_44KHz.wav
1	156	4	3	2	I	2	0	1634	1	Ⴉ	cut_g_stereo_44KHz.wav
1	157	3	3	2	I	2	0	760	1	Ⴒ	cut_g_stereo_44KHz.wav
1	158	2	1	0	C	2	1	776	1	Ⴌ	cut_h_stereo_44KHz.wav
1	159	4	4	2	I	1	0	896	1	Ⴉ	cut_w_stereo_44KHz.wav
1	160	1	1	1	C	2	0	757	0	Ⴏ	cut_h_stereo_44KHz.wav
1	161	2	2	1	C	1	1	1559	1	Ⴌ	cut_l_stereo_44KHz.wav
1	162	1	2	0	C	1	0	843	0	Ⴏ	cut_l_stereo_44KHz.wav
1	163	3	4	2	I	1	0	1930	1	Ⴒ	cut_w_stereo_44KHz.wav
1	164	4	3	2	I	1	0	834	1	Ⴉ	cut_g_stereo_44KHz.wav
1	165	3	3	2	I	2	0	759	1	Ⴒ	cut_g_stereo_44KHz.wav
1	166	1	1	1	C	1	1	1670	1	Ⴏ	cut_h_stereo_44KHz.wav
1	167	2	1	0	C	2	1	642	1	Ⴌ	cut_h_stereo_44KHz.wav
1	168	4	4	2	I	1	0	752	1	Ⴉ	cut_w_stereo_44KHz.wav
1	169	2	2	1	C	2	0	874	0	Ⴌ	cut_l_stereo_44KHz.wav
1	170	3	4	2	I	2	0	558	1	Ⴒ	cut_w_stereo_44KHz.wav
1	171	4	4	2	I	1	0	1172	1	Ⴉ	cut_w_stereo_44KHz.wav
1	172	1	1	1	C	2	0	715	0	Ⴏ	cut_h_stereo_44KHz.wav
1	173	4	3	2	I	1	0	835	1	Ⴉ	cut_g_stereo_44KHz.wav
1	174	2	1	0	C	2	1	766	1	Ⴌ	cut_h_stereo_44KHz.wav
1	175	3	3	2	I	1	0	325	1	Ⴒ	cut_g_stereo_44KHz.wav
1	176	1	2	0	C	1	0	740	0	Ⴏ	cut_l_stereo_44KHz.wav
1	177	4	3	2	I	1	0	1087	1	Ⴉ	cut_g_stereo_44KHz.wav
1	178	1	1	1	C	1	1	864	1	Ⴏ	cut_h_stereo_44KHz.wav
1	179	3	4	2	I	1	0	1737	1	Ⴒ	cut_w_stereo_44KHz.wav
1	180	2	1	0	C	2	1	651	1	Ⴌ	cut_h_stereo_44KHz.wav
1	181	3	3	2	I	1	0	737	0	Ⴒ	cut_g_stereo_44KHz.wav
1	182	2	2	1	C	1	1	1785	1	Ⴌ	cut_l_stereo_44KHz.wav
1	183	4	4	2	I	1	0	1270	1	Ⴉ	cut_w_stereo_44KHz.wav
1	184	1	2	0	C	1	0	891	0	Ⴏ	cut_l_stereo_44KHz.wav
1	185	2	1	0	C	2	1	1902	1	Ⴌ	cut_h_stereo_44KHz.wav
1	186	4	3	2	I	1	0	1170	1	Ⴉ	cut_g_stereo_44KHz.wav
1	187	1	2	0	C	1	0	1255	0	Ⴏ	cut_l_stereo_44KHz.wav
1	188	3	4	2	I	2	0	1348	1	Ⴒ	cut_w_stereo_44KHz.wav
1	189	1	1	1	C	1	1	1018	1	Ⴏ	cut_h_stereo_44KHz.wav
1	190	3	3	2	I	2	0	853	1	Ⴒ	cut_g_stereo_44KHz.wav
1	191	4	4	2	I	1	0	841	1	Ⴉ	cut_w_stereo_44KHz.wav
1	192	2	2	1	C	1	1	1435	1	Ⴌ	cut_l_stereo_44KHz.wav
1	193	1	1	1	C	2	0	452	0	Ⴏ	cut_h_stereo_44KHz.wav
1	194	4	4	2	I	1	0	443	1	Ⴉ	cut_w_stereo_44KHz.wav
1	195	3	4	2	I	2	0	648	1	Ⴒ	cut_w_stereo_44KHz.wav
1	196	2	2	1	C	1	1	908	1	Ⴌ	cut_l_stereo_44KHz.wav
1	197	1	2	0	C	2	1	587	1	Ⴏ	cut_l_stereo_44KHz.wav
1	198	3	3	2	I	2	0	743	1	Ⴒ	cut_g_stereo_44KHz.wav
1	199	4	3	2	I	1	0	615	1	Ⴉ	cut_g_stereo_44KHz.wav
1	200	2	1	0	C	2	1	562	1	Ⴌ	cut_h_stereo_44KHz.wav
2	1	1	1	1	C	2	0	1235	0	Ⴔ	cut_ui_stereo_44KHz.wav
2	2	3	3	2	I	1	0	1485	0	Ⴖ	cut_j_stereo_44KHz.wav
2	3	2	1	0	C	2	1	1440	1	Ⴐ	cut_ui_stereo_44KHz.wav
2	4	4	4	2	I	1	0	1093	1	Ⴕ	cut_s_stereo_44KHz.wav
2	5	1	2	0	C	2	1	1728	1	Ⴔ	cut_oei_stereo_44KHz.wav
2	6	2	2	1	C	2	0	1159	0	Ⴐ	cut_oei_stereo_44KHz.wav
2	7	3	4	2	I	1	0	1154	0	Ⴖ	cut_s_stereo_44KHz.wav
2	8	4	3	2	I	2	0	1741	0	Ⴕ	cut_j_stereo_44KHz.wav
2	9	3	3	2	I	1	0	978	0	Ⴖ	cut_j_stereo_44KHz.wav
2	10	2	2	1	C	1	1	1510	1	Ⴐ	cut_oei_stereo_44KHz.wav
2	11	1	1	1	C	1	1	1294	1	Ⴔ	cut_ui_stereo_44KHz.wav
2	12	4	4	2	I	1	0	1165	1	Ⴕ	cut_s_stereo_44KHz.wav
2	13	1	2	0	C	2	1	920	1	Ⴔ	cut_oei_stereo_44KHz.wav
2	14	3	4	2	I	1	0	979	1	Ⴖ	cut_s_stereo_44KHz.wav
2	15	2	1	0	C	2	1	1463	1	Ⴐ	cut_ui_stereo_44KHz.wav
2	16	4	3	2	I	1	0	1236	1	Ⴕ	cut_j_stereo_44KHz.wav
2	17	1	1	1	C	2	0	1095	0	Ⴔ	cut_ui_stereo_44KHz.wav
2	18	2	1	0	C	1	0	728	0	Ⴐ	cut_ui_stereo_44KHz.wav
2	19	3	4	2	I	1	0	866	1	Ⴖ	cut_s_stereo_44KHz.wav
2	20	4	4	2	I	2	0	1038	1	Ⴕ	cut_s_stereo_44KHz.wav
2	21	2	2	1	C	1	1	1260	1	Ⴐ	cut_oei_stereo_44KHz.wav
2	22	4	3	2	I	2	0	1136	1	Ⴕ	cut_j_stereo_44KHz.wav
2	23	3	3	2	I	1	0	1155	1	Ⴖ	cut_j_stereo_44KHz.wav
2	24	1	2	0	C	0	0	0	0	Ⴔ	cut_oei_stereo_44KHz.wav
2	25	4	3	2	I	1	0	1311	1	Ⴕ	cut_j_stereo_44KHz.wav
2	26	1	2	0	C	2	1	1415	1	Ⴔ	cut_oei_stereo_44KHz.wav
2	27	2	2	1	C	1	1	928	1	Ⴐ	cut_oei_stereo_44KHz.wav
2	28	3	4	2	I	2	0	1101	1	Ⴖ	cut_s_stereo_44KHz.wav
2	29	1	1	1	C	0	0	0	0	Ⴔ	cut_ui_stereo_44KHz.wav
2	30	3	3	2	I	2	0	784	1	Ⴖ	cut_j_stereo_44KHz.wav
2	31	2	1	0	C	2	1	730	1	Ⴐ	cut_ui_stereo_44KHz.wav
2	32	4	4	2	I	1	0	689	1	Ⴕ	cut_s_stereo_44KHz.wav
2	33	1	2	0	C	2	1	544	1	Ⴔ	cut_oei_stereo_44KHz.wav
2	34	3	4	2	I	1	0	524	1	Ⴖ	cut_s_stereo_44KHz.wav
2	35	2	2	1	C	2	0	599	0	Ⴐ	cut_oei_stereo_44KHz.wav
2	36	4	4	2	I	1	0	1207	1	Ⴕ	cut_s_stereo_44KHz.wav
2	37	2	1	0	C	1	0	996	0	Ⴐ	cut_ui_stereo_44KHz.wav
2	38	4	3	2	I	2	0	1049	1	Ⴕ	cut_j_stereo_44KHz.wav
2	39	1	1	1	C	1	1	530	1	Ⴔ	cut_ui_stereo_44KHz.wav
2	40	3	3	2	I	2	0	853	1	Ⴖ	cut_j_stereo_44KHz.wav
2	41	4	3	2	I	2	0	1020	1	Ⴕ	cut_j_stereo_44KHz.wav
2	42	2	2	1	C	1	1	569	1	Ⴐ	cut_oei_stereo_44KHz.wav
2	43	3	4	2	I	2	0	1032	0	Ⴖ	cut_s_stereo_44KHz.wav
2	44	1	2	0	C	1	0	1496	0	Ⴔ	cut_oei_stereo_44KHz.wav
2	45	3	3	2	I	2	0	493	1	Ⴖ	cut_j_stereo_44KHz.wav
2	46	2	1	0	C	1	0	473	0	Ⴐ	cut_ui_stereo_44KHz.wav
2	47	1	1	1	C	2	0	744	0	Ⴔ	cut_ui_stereo_44KHz.wav
2	48	4	4	2	I	2	0	136	1	Ⴕ	cut_s_stereo_44KHz.wav
2	49	1	1	1	C	1	1	503	1	Ⴔ	cut_ui_stereo_44KHz.wav
2	50	2	1	0	C	2	1	172	1	Ⴐ	cut_ui_stereo_44KHz.wav
2	51	3	3	2	I	1	0	326	1	Ⴖ	cut_j_stereo_44KHz.wav
2	52	4	4	2	I	1	0	494	1	Ⴕ	cut_s_stereo_44KHz.wav
2	53	3	4	2	I	2	0	102	1	Ⴖ	cut_s_stereo_44KHz.wav
2	54	4	3	2	I	1	0	371	1	Ⴕ	cut_j_stereo_44KHz.wav
2	55	1	2	0	C	2	1	277	1	Ⴔ	cut_oei_stereo_44KHz.wav
2	56	2	2	1	C	1	1	820	1	Ⴐ	cut_oei_stereo_44KHz.wav
2	57	3	4	2	I	2	0	1249	1	Ⴖ	cut_s_stereo_44KHz.wav
2	58	2	2	1	C	2	0	1918	0	Ⴐ	cut_oei_stereo_44KHz.wav
2	59	4	3	2	I	1	0	1762	0	Ⴕ	cut_j_stereo_44KHz.wav
2	60	1	2	0	C	2	1	751	1	Ⴔ	cut_oei_stereo_44KHz.wav
2	61	4	4	2	I	1	0	590	1	Ⴕ	cut_s_stereo_44KHz.wav
2	62	1	1	1	C	2	0	4	0	Ⴔ	cut_ui_stereo_44KHz.wav
2	63	2	1	0	C	1	0	327	0	Ⴐ	cut_ui_stereo_44KHz.wav
2	64	3	3	2	I	2	0	456	0	Ⴖ	cut_j_stereo_44KHz.wav
2	65	4	3	2	I	1	0	409	1	Ⴕ	cut_j_stereo_44KHz.wav
2	66	3	3	2	I	2	0	1282	1	Ⴖ	cut_j_stereo_44KHz.wav
2	67	1	1	1	C	1	1	459	1	Ⴔ	cut_ui_stereo_44KHz.wav
2	68	2	2	1	C	2	0	242	0	Ⴐ	cut_oei_stereo_44KHz.wav
2	69	3	4	2	I	1	0	678	1	Ⴖ	cut_s_stereo_44KHz.wav
2	70	2	1	0	C	2	1	819	1	Ⴐ	cut_ui_stereo_44KHz.wav
2	71	4	4	2	I	1	0	473	1	Ⴕ	cut_s_stereo_44KHz.wav
2	72	1	2	0	C	2	1	124	1	Ⴔ	cut_oei_stereo_44KHz.wav
2	73	4	4	2	I	1	0	1224	1	Ⴕ	cut_s_stereo_44KHz.wav
2	74	2	1	0	C	2	1	304	1	Ⴐ	cut_ui_stereo_44KHz.wav
2	75	1	1	1	C	1	1	170	1	Ⴔ	cut_ui_stereo_44KHz.wav
2	76	3	3	2	I	2	0	277	1	Ⴖ	cut_j_stereo_44KHz.wav
2	77	1	2	0	C	1	0	1136	0	Ⴔ	cut_oei_stereo_44KHz.wav
2	78	2	2	1	C	2	0	343	0	Ⴐ	cut_oei_stereo_44KHz.wav
2	79	4	3	2	I	1	0	455	0	Ⴕ	cut_j_stereo_44KHz.wav
2	80	3	4	2	I	2	0	438	1	Ⴖ	cut_s_stereo_44KHz.wav
2	81	2	1	0	C	1	0	555	0	Ⴐ	cut_ui_stereo_44KHz.wav
2	82	3	4	2	I	2	0	587	1	Ⴖ	cut_s_stereo_44KHz.wav
2	83	4	3	2	I	1	0	1114	0	Ⴕ	cut_j_stereo_44KHz.wav
2	84	1	2	0	C	2	1	1371	1	Ⴔ	cut_oei_stereo_44KHz.wav
2	85	3	3	2	I	1	0	1394	1	Ⴖ	cut_j_stereo_44KHz.wav
2	86	1	1	1	C	2	0	1437	0	Ⴔ	cut_ui_stereo_44KHz.wav
2	87	4	4	2	I	1	0	1383	0	Ⴕ	cut_s_stereo_44KHz.wav
2	88	2	2	1	C	2	0	894	0	Ⴐ	cut_oei_stereo_44KHz.wav
2	89	4	3	2	I	1	0	1215	0	Ⴕ	cut_j_stereo_44KHz.wav
2	90	2	2	1	C	2	0	484	0	Ⴐ	cut_oei_stereo_44KHz.wav
2	91	1	1	1	C	2	0	842	0	Ⴔ	cut_ui_stereo_44KHz.wav
2	92	3	4	2	I	1	0	1122	1	Ⴖ	cut_s_stereo_44KHz.wav
2	93	4	4	2	I	2	0	271	1	Ⴕ	cut_s_stereo_44KHz.wav
2	94	1	2	0	C	1	0	248	0	Ⴔ	cut_oei_stereo_44KHz.wav
2	95	2	1	0	C	2	1	1401	1	Ⴐ	cut_ui_stereo_44KHz.wav
2	96	3	3	2	I	2	0	404	1	Ⴖ	cut_j_stereo_44KHz.wav
2	97	1	1	1	C	1	1	103	1	Ⴔ	cut_ui_stereo_44KHz.wav
2	98	3	4	2	I	2	0	691	1	Ⴖ	cut_s_stereo_44KHz.wav
2	99	2	2	1	C	1	1	39	1	Ⴐ	cut_oei_stereo_44KHz.wav
2	100	4	4	2	I	1	0	351	1	Ⴕ	cut_s_stereo_44KHz.wav
2	101	1	2	0	C	2	1	512	1	Ⴔ	cut_oei_stereo_44KHz.wav
2	102	4	3	2	I	2	0	478	1	Ⴕ	cut_j_stereo_44KHz.wav
2	103	2	1	0	C	1	0	436	0	Ⴐ	cut_ui_stereo_44KHz.wav
2	104	3	3	2	I	2	0	792	1	Ⴖ	cut_j_stereo_44KHz.wav
2	105	2	2	1	C	1	1	548	1	Ⴐ	cut_oei_stereo_44KHz.wav
2	106	4	4	2	I	2	0	988	1	Ⴕ	cut_s_stereo_44KHz.wav
2	107	3	3	2	I	2	0	374	1	Ⴖ	cut_j_stereo_44KHz.wav
2	108	1	1	1	C	2	0	1040	0	Ⴔ	cut_ui_stereo_44KHz.wav
2	109	4	3	2	I	1	0	886	1	Ⴕ	cut_j_stereo_44KHz.wav
2	110	1	2	0	C	2	1	810	1	Ⴔ	cut_oei_stereo_44KHz.wav
2	111	3	4	2	I	1	0	873	1	Ⴖ	cut_s_stereo_44KHz.wav
2	112	2	1	0	C	2	1	1115	1	Ⴐ	cut_ui_stereo_44KHz.wav
2	113	1	2	0	C	2	1	1708	1	Ⴔ	cut_oei_stereo_44KHz.wav
2	114	2	2	1	C	1	1	597	1	Ⴐ	cut_oei_stereo_44KHz.wav
2	115	4	4	2	I	2	0	783	1	Ⴕ	cut_s_stereo_44KHz.wav
2	116	3	4	2	I	2	0	781	1	Ⴖ	cut_s_stereo_44KHz.wav
2	117	2	1	0	C	1	0	860	0	Ⴐ	cut_ui_stereo_44KHz.wav
2	118	4	3	2	I	2	0	1116	1	Ⴕ	cut_j_stereo_44KHz.wav
2	119	3	3	2	I	2	0	1204	1	Ⴖ	cut_j_stereo_44KHz.wav
2	120	1	1	1	C	1	1	1374	1	Ⴔ	cut_ui_stereo_44KHz.wav
2	121	3	3	2	I	2	0	659	1	Ⴖ	cut_j_stereo_44KHz.wav
2	122	4	3	2	I	0	0	0	0	Ⴕ	cut_j_stereo_44KHz.wav
2	123	2	1	0	C	2	1	1152	1	Ⴐ	cut_ui_stereo_44KHz.wav
2	124	1	1	1	C	1	1	936	1	Ⴔ	cut_ui_stereo_44KHz.wav
2	125	2	2	1	C	0	0	0	0	Ⴐ	cut_oei_stereo_44KHz.wav
2	126	4	4	2	I	1	0	1329	1	Ⴕ	cut_s_stereo_44KHz.wav
2	127	1	2	0	C	2	1	627	1	Ⴔ	cut_oei_stereo_44KHz.wav
2	128	3	4	2	I	1	0	1149	1	Ⴖ	cut_s_stereo_44KHz.wav
2	129	4	4	2	I	2	0	590	1	Ⴕ	cut_s_stereo_44KHz.wav
2	130	3	4	2	I	1	0	748	1	Ⴖ	cut_s_stereo_44KHz.wav
2	131	2	1	0	C	2	1	810	1	Ⴐ	cut_ui_stereo_44KHz.wav
2	132	1	1	1	C	1	1	951	1	Ⴔ	cut_ui_stereo_44KHz.wav
2	133	2	2	1	C	2	0	629	0	Ⴐ	cut_oei_stereo_44KHz.wav
2	134	3	3	2	I	1	0	1285	1	Ⴖ	cut_j_stereo_44KHz.wav
2	135	4	3	2	I	2	0	815	1	Ⴕ	cut_j_stereo_44KHz.wav
2	136	1	2	0	C	2	1	790	1	Ⴔ	cut_oei_stereo_44KHz.wav
2	137	3	3	2	I	1	0	551	1	Ⴖ	cut_j_stereo_44KHz.wav
2	138	4	3	2	I	1	0	1166	0	Ⴕ	cut_j_stereo_44KHz.wav
2	139	2	1	0	C	2	1	662	1	Ⴐ	cut_ui_stereo_44KHz.wav
2	140	1	1	1	C	1	1	999	1	Ⴔ	cut_ui_stereo_44KHz.wav
2	141	2	2	1	C	2	0	500	0	Ⴐ	cut_oei_stereo_44KHz.wav
2	142	3	4	2	I	1	0	1100	0	Ⴖ	cut_s_stereo_44KHz.wav
2	143	4	4	2	I	2	0	843	1	Ⴕ	cut_s_stereo_44KHz.wav
2	144	1	2	0	C	1	0	866	0	Ⴔ	cut_oei_stereo_44KHz.wav
2	145	2	1	0	C	2	1	905	1	Ⴐ	cut_ui_stereo_44KHz.wav
2	146	1	2	0	C	1	0	650	0	Ⴔ	cut_oei_stereo_44KHz.wav
2	147	3	4	2	I	2	0	1069	1	Ⴖ	cut_s_stereo_44KHz.wav
2	148	4	3	2	I	1	0	703	1	Ⴕ	cut_j_stereo_44KHz.wav
2	149	3	3	2	I	2	0	752	1	Ⴖ	cut_j_stereo_44KHz.wav
2	150	2	2	1	C	1	1	1033	1	Ⴐ	cut_oei_stereo_44KHz.wav
2	151	1	1	1	C	2	0	163	0	Ⴔ	cut_ui_stereo_44KHz.wav
2	152	4	4	2	I	1	0	1683	1	Ⴕ	cut_s_stereo_44KHz.wav
2	153	3	3	2	I	1	0	1044	1	Ⴖ	cut_j_stereo_44KHz.wav
2	154	2	1	0	C	2	1	687	1	Ⴐ	cut_ui_stereo_44KHz.wav
2	155	4	3	2	I	2	0	710	1	Ⴕ	cut_j_stereo_44KHz.wav
2	156	1	1	1	C	1	1	62	1	Ⴔ	cut_ui_stereo_44KHz.wav
2	157	4	4	2	I	1	0	1047	1	Ⴕ	cut_s_stereo_44KHz.wav
2	158	3	4	2	I	2	0	490	1	Ⴖ	cut_s_stereo_44KHz.wav
2	159	2	2	1	C	2	0	343	0	Ⴐ	cut_oei_stereo_44KHz.wav
2	160	1	2	0	C	2	1	763	1	Ⴔ	cut_oei_stereo_44KHz.wav
2	161	2	1	0	C	1	0	1143	0	Ⴐ	cut_ui_stereo_44KHz.wav
2	162	3	4	2	I	2	0	738	1	Ⴖ	cut_s_stereo_44KHz.wav
2	163	1	2	0	C	1	0	669	0	Ⴔ	cut_oei_stereo_44KHz.wav
2	164	4	4	2	I	2	0	744	1	Ⴕ	cut_s_stereo_44KHz.wav
2	165	3	3	2	I	1	0	750	1	Ⴖ	cut_j_stereo_44KHz.wav
2	166	4	3	2	I	2	0	686	1	Ⴕ	cut_j_stereo_44KHz.wav
2	167	2	2	1	C	1	1	651	1	Ⴐ	cut_oei_stereo_44KHz.wav
2	168	1	1	1	C	2	0	404	0	Ⴔ	cut_ui_stereo_44KHz.wav
2	169	3	4	2	I	1	0	778	0	Ⴖ	cut_s_stereo_44KHz.wav
2	170	2	2	1	C	2	0	724	0	Ⴐ	cut_oei_stereo_44KHz.wav
2	171	4	4	2	I	1	0	664	1	Ⴕ	cut_s_stereo_44KHz.wav
2	172	1	2	0	C	2	1	767	1	Ⴔ	cut_oei_stereo_44KHz.wav
2	173	4	3	2	I	1	0	961	1	Ⴕ	cut_j_stereo_44KHz.wav
2	174	2	1	0	C	2	1	735	1	Ⴐ	cut_ui_stereo_44KHz.wav
2	175	1	1	1	C	1	1	671	1	Ⴔ	cut_ui_stereo_44KHz.wav
2	176	3	3	2	I	2	0	687	1	Ⴖ	cut_j_stereo_44KHz.wav
2	177	1	1	1	C	1	1	808	1	Ⴔ	cut_ui_stereo_44KHz.wav
2	178	3	3	2	I	2	0	610	0	Ⴖ	cut_j_stereo_44KHz.wav
2	179	4	3	2	I	1	0	271	0	Ⴕ	cut_j_stereo_44KHz.wav
2	180	2	2	1	C	2	0	601	0	Ⴐ	cut_oei_stereo_44KHz.wav
2	181	3	4	2	I	1	0	757	1	Ⴖ	cut_s_stereo_44KHz.wav
2	182	4	4	2	I	2	0	461	1	Ⴕ	cut_s_stereo_44KHz.wav
2	183	1	2	0	C	2	1	697	1	Ⴔ	cut_oei_stereo_44KHz.wav
2	184	2	1	0	C	1	0	673	0	Ⴐ	cut_ui_stereo_44KHz.wav
2	185	4	3	2	I	1	0	401	1	Ⴕ	cut_j_stereo_44KHz.wav
2	186	1	1	1	C	2	0	923	0	Ⴔ	cut_ui_stereo_44KHz.wav
2	187	3	3	2	I	1	0	1210	1	Ⴖ	cut_j_stereo_44KHz.wav
2	188	2	1	0	C	2	1	674	1	Ⴐ	cut_ui_stereo_44KHz.wav
2	189	3	4	2	I	1	0	194	1	Ⴖ	cut_s_stereo_44KHz.wav
2	190	1	2	0	C	2	1	735	1	Ⴔ	cut_oei_stereo_44KHz.wav
2	191	2	2	1	C	1	1	609	1	Ⴐ	cut_oei_stereo_44KHz.wav
2	192	4	4	2	I	2	0	236	1	Ⴕ	cut_s_stereo_44KHz.wav
2	193	2	2	1	C	1	1	802	1	Ⴐ	cut_oei_stereo_44KHz.wav
2	194	1	1	1	C	2	0	700	0	Ⴔ	cut_ui_stereo_44KHz.wav
2	195	4	4	2	I	1	0	565	0	Ⴕ	cut_s_stereo_44KHz.wav
2	196	3	4	2	I	2	0	578	0	Ⴖ	cut_s_stereo_44KHz.wav
2	197	4	3	2	I	1	0	1001	0	Ⴕ	cut_j_stereo_44KHz.wav
2	198	2	1	0	C	2	1	795	1	Ⴐ	cut_ui_stereo_44KHz.wav
2	199	3	3	2	I	1	0	921	0	Ⴖ	cut_j_stereo_44KHz.wav
2	200	1	2	0	C	2	1	434	1	Ⴔ	cut_oei_stereo_44KHz.wav
3	1	1	2	0	C	2	1	1315	1	Ⴁ	cut_a_stereo_44KHz.wav
3	2	2	1	0	C	2	1	798	1	Ⴃ	cut_u_stereo_44KHz.wav
3	3	4	4	2	I	2	0	1050	1	Ⴊ	cut_k_stereo_44KHz.wav
3	4	3	4	2	I	2	0	1218	1	Ⴡ	cut_k_stereo_44KHz.wav
3	5	4	3	2	I	0	0	0	0	Ⴊ	cut_o_stereo_44KHz.wav
3	6	1	1	1	C	2	0	602	0	Ⴁ	cut_u_stereo_44KHz.wav
3	7	3	3	2	I	1	0	696	1	Ⴡ	cut_o_stereo_44KHz.wav
3	8	2	2	1	C	1	1	766	1	Ⴃ	cut_a_stereo_44KHz.wav
3	9	4	4	2	I	2	0	816	1	Ⴊ	cut_k_stereo_44KHz.wav
3	10	2	1	0	C	1	0	526	0	Ⴃ	cut_u_stereo_44KHz.wav
3	11	1	2	0	C	2	1	1005	1	Ⴁ	cut_a_stereo_44KHz.wav
3	12	3	3	2	I	1	0	689	1	Ⴡ	cut_o_stereo_44KHz.wav
3	13	2	2	1	C	2	0	897	0	Ⴃ	cut_a_stereo_44KHz.wav
3	14	4	3	2	I	2	0	1056	1	Ⴊ	cut_o_stereo_44KHz.wav
3	15	3	4	2	I	1	0	795	1	Ⴡ	cut_k_stereo_44KHz.wav
3	16	1	1	1	C	2	0	714	0	Ⴁ	cut_u_stereo_44KHz.wav
3	17	3	4	2	I	2	0	834	1	Ⴡ	cut_k_stereo_44KHz.wav
3	18	1	1	1	C	0	0	0	0	Ⴁ	cut_u_stereo_44KHz.wav
3	19	2	2	1	C	1	1	1095	1	Ⴃ	cut_a_stereo_44KHz.wav
3	20	4	4	2	I	2	0	989	1	Ⴊ	cut_k_stereo_44KHz.wav
3	21	3	3	2	I	1	0	691	1	Ⴡ	cut_o_stereo_44KHz.wav
3	22	4	3	2	I	2	0	375	1	Ⴊ	cut_o_stereo_44KHz.wav
3	23	1	2	0	C	1	0	1266	0	Ⴁ	cut_a_stereo_44KHz.wav
3	24	2	1	0	C	2	1	640	1	Ⴃ	cut_u_stereo_44KHz.wav
3	25	1	2	0	C	1	0	871	0	Ⴁ	cut_a_stereo_44KHz.wav
3	26	4	4	2	I	2	0	492	1	Ⴊ	cut_k_stereo_44KHz.wav
3	27	3	3	2	I	1	0	285	0	Ⴡ	cut_o_stereo_44KHz.wav
3	28	2	2	1	C	2	0	644	0	Ⴃ	cut_a_stereo_44KHz.wav
3	29	3	4	2	I	0	0	0	0	Ⴡ	cut_k_stereo_44KHz.wav
3	30	2	1	0	C	2	1	521	1	Ⴃ	cut_u_stereo_44KHz.wav
3	31	1	1	1	C	1	1	507	1	Ⴁ	cut_u_stereo_44KHz.wav
3	32	4	3	2	I	2	0	588	1	Ⴊ	cut_o_stereo_44KHz.wav
3	33	2	2	1	C	1	1	568	1	Ⴃ	cut_a_stereo_44KHz.wav
3	34	4	4	2	I	2	0	1209	1	Ⴊ	cut_k_stereo_44KHz.wav
3	35	1	1	1	C	1	1	644	1	Ⴁ	cut_u_stereo_44KHz.wav
3	36	3	3	2	I	2	0	455	1	Ⴡ	cut_o_stereo_44KHz.wav
3	37	2	1	0	C	1	0	412	0	Ⴃ	cut_u_stereo_44KHz.wav
3	38	3	4	2	I	2	0	102	1	Ⴡ	cut_k_stereo_44KHz.wav
3	39	4	3	2	I	1	0	1335	1	Ⴊ	cut_o_stereo_44KHz.wav
3	40	1	2	0	C	2	1	1423	1	Ⴁ	cut_a_stereo_44KHz.wav
3	41	2	1	0	C	0	0	0	0	Ⴃ	cut_u_stereo_44KHz.wav
3	42	1	1	1	C	1	1	1293	1	Ⴁ	cut_u_stereo_44KHz.wav
3	43	4	3	2	I	2	0	847	1	Ⴊ	cut_o_stereo_44KHz.wav
3	44	3	3	2	I	1	0	620	1	Ⴡ	cut_o_stereo_44KHz.wav
3	45	4	4	2	I	2	0	1126	0	Ⴊ	cut_k_stereo_44KHz.wav
3	46	2	2	1	C	0	0	0	0	Ⴃ	cut_a_stereo_44KHz.wav
3	47	1	2	0	C	2	1	774	1	Ⴁ	cut_a_stereo_44KHz.wav
3	48	3	4	2	I	1	0	1224	1	Ⴡ	cut_k_stereo_44KHz.wav
3	49	4	3	2	I	2	0	750	0	Ⴊ	cut_o_stereo_44KHz.wav
3	50	3	3	2	I	1	0	755	0	Ⴡ	cut_o_stereo_44KHz.wav
3	51	2	2	1	C	2	0	528	0	Ⴃ	cut_a_stereo_44KHz.wav
3	52	1	2	0	C	1	0	838	0	Ⴁ	cut_a_stereo_44KHz.wav
3	53	2	1	0	C	2	1	911	1	Ⴃ	cut_u_stereo_44KHz.wav
3	54	1	1	1	C	1	1	1177	1	Ⴁ	cut_u_stereo_44KHz.wav
3	55	4	4	2	I	2	0	1198	1	Ⴊ	cut_k_stereo_44KHz.wav
3	56	3	4	2	I	1	0	1206	1	Ⴡ	cut_k_stereo_44KHz.wav
3	57	2	2	1	C	2	0	51	0	Ⴃ	cut_a_stereo_44KHz.wav
3	58	3	4	2	I	1	0	570	1	Ⴡ	cut_k_stereo_44KHz.wav
3	59	4	3	2	I	1	0	335	0	Ⴊ	cut_o_stereo_44KHz.wav
3	60	1	2	0	C	0	0	0	0	Ⴁ	cut_a_stereo_44KHz.wav
3	61	2	1	0	C	2	1	579	1	Ⴃ	cut_u_stereo_44KHz.wav
3	62	3	3	2	I	0	0	0	0	Ⴡ	cut_o_stereo_44KHz.wav
3	63	4	4	2	I	1	0	1972	1	Ⴊ	cut_k_stereo_44KHz.wav
3	64	1	1	1	C	2	0	619	0	Ⴁ	cut_u_stereo_44KHz.wav
3	65	4	3	2	I	1	0	356	1	Ⴊ	cut_o_stereo_44KHz.wav
3	66	2	1	0	C	2	1	1020	1	Ⴃ	cut_u_stereo_44KHz.wav
3	67	1	1	1	C	1	1	719	1	Ⴁ	cut_u_stereo_44KHz.wav
3	68	3	3	2	I	2	0	367	1	Ⴡ	cut_o_stereo_44KHz.wav
3	69	1	2	0	C	1	0	1005	0	Ⴁ	cut_a_stereo_44KHz.wav
3	70	3	4	2	I	2	0	657	0	Ⴡ	cut_k_stereo_44KHz.wav
3	71	2	2	1	C	2	0	1042	0	Ⴃ	cut_a_stereo_44KHz.wav
3	72	4	4	2	I	1	0	1372	1	Ⴊ	cut_k_stereo_44KHz.wav
3	73	3	3	2	I	2	0	717	1	Ⴡ	cut_o_stereo_44KHz.wav
3	74	2	2	1	C	2	0	1376	0	Ⴃ	cut_a_stereo_44KHz.wav
3	75	4	4	2	I	1	0	1020	1	Ⴊ	cut_k_stereo_44KHz.wav
3	76	1	2	0	C	2	1	1443	1	Ⴁ	cut_a_stereo_44KHz.wav
3	77	4	3	2	I	1	0	1186	1	Ⴊ	cut_o_stereo_44KHz.wav
3	78	3	4	2	I	2	0	985	1	Ⴡ	cut_k_stereo_44KHz.wav
3	79	1	1	1	C	1	1	1126	1	Ⴁ	cut_u_stereo_44KHz.wav
3	80	2	1	0	C	1	0	1425	0	Ⴃ	cut_u_stereo_44KHz.wav
3	81	3	4	2	I	2	0	512	1	Ⴡ	cut_k_stereo_44KHz.wav
3	82	1	2	0	C	2	1	1165	1	Ⴁ	cut_a_stereo_44KHz.wav
3	83	2	1	0	C	1	0	915	0	Ⴃ	cut_u_stereo_44KHz.wav
3	84	4	3	2	I	2	0	681	0	Ⴊ	cut_o_stereo_44KHz.wav
3	85	3	3	2	I	1	0	717	1	Ⴡ	cut_o_stereo_44KHz.wav
3	86	1	1	1	C	2	0	495	0	Ⴁ	cut_u_stereo_44KHz.wav
3	87	2	2	1	C	0	0	0	0	Ⴃ	cut_a_stereo_44KHz.wav
3	88	4	4	2	I	1	0	694	0	Ⴊ	cut_k_stereo_44KHz.wav
3	89	2	1	0	C	2	1	559	1	Ⴃ	cut_u_stereo_44KHz.wav
3	90	3	3	2	I	1	0	994	1	Ⴡ	cut_o_stereo_44KHz.wav
3	91	4	3	2	I	2	0	1128	1	Ⴊ	cut_o_stereo_44KHz.wav
3	92	1	1	1	C	0	0	0	0	Ⴁ	cut_u_stereo_44KHz.wav
3	93	3	4	2	I	1	0	741	1	Ⴡ	cut_k_stereo_44KHz.wav
3	94	2	2	1	C	2	0	939	0	Ⴃ	cut_a_stereo_44KHz.wav
3	95	4	4	2	I	1	0	887	0	Ⴊ	cut_k_stereo_44KHz.wav
3	96	1	2	0	C	2	1	786	1	Ⴁ	cut_a_stereo_44KHz.wav
3	97	4	3	2	I	2	0	1911	1	Ⴊ	cut_o_stereo_44KHz.wav
3	98	2	2	1	C	2	0	1771	0	Ⴃ	cut_a_stereo_44KHz.wav
3	99	1	1	1	C	2	0	1057	0	Ⴁ	cut_u_stereo_44KHz.wav
3	100	3	4	2	I	1	0	1004	1	Ⴡ	cut_k_stereo_44KHz.wav
3	101	4	4	2	I	1	0	1410	1	Ⴊ	cut_k_stereo_44KHz.wav
3	102	3	3	2	I	2	0	752	1	Ⴡ	cut_o_stereo_44KHz.wav
3	103	1	2	0	C	2	1	1084	1	Ⴁ	cut_a_stereo_44KHz.wav
3	104	2	1	0	C	1	0	594	0	Ⴃ	cut_u_stereo_44KHz.wav
3	105	1	1	1	C	2	0	846	0	Ⴁ	cut_u_stereo_44KHz.wav
3	106	2	2	1	C	1	1	745	1	Ⴃ	cut_a_stereo_44KHz.wav
3	107	4	3	2	I	1	0	813	0	Ⴊ	cut_o_stereo_44KHz.wav
3	108	3	3	2	I	2	0	852	1	Ⴡ	cut_o_stereo_44KHz.wav
3	109	4	4	2	I	2	0	724	0	Ⴊ	cut_k_stereo_44KHz.wav
3	110	2	1	0	C	2	1	815	1	Ⴃ	cut_u_stereo_44KHz.wav
3	111	1	2	0	C	1	0	747	0	Ⴁ	cut_a_stereo_44KHz.wav
3	112	3	4	2	I	2	0	552	0	Ⴡ	cut_k_stereo_44KHz.wav
3	113	4	3	2	I	2	0	1045	1	Ⴊ	cut_o_stereo_44KHz.wav
3	114	3	4	2	I	1	0	738	1	Ⴡ	cut_k_stereo_44KHz.wav
3	115	1	2	0	C	1	0	933	0	Ⴁ	cut_a_stereo_44KHz.wav
3	116	2	2	1	C	2	0	1051	0	Ⴃ	cut_a_stereo_44KHz.wav
3	117	3	3	2	I	2	0	207	1	Ⴡ	cut_o_stereo_44KHz.wav
3	118	1	1	1	C	1	1	543	1	Ⴁ	cut_u_stereo_44KHz.wav
3	119	4	4	2	I	1	0	948	1	Ⴊ	cut_k_stereo_44KHz.wav
3	120	2	1	0	C	2	1	596	1	Ⴃ	cut_u_stereo_44KHz.wav
3	121	4	4	2	I	2	0	705	1	Ⴊ	cut_k_stereo_44KHz.wav
3	122	2	1	0	C	1	0	627	0	Ⴃ	cut_u_stereo_44KHz.wav
3	123	1	2	0	C	2	1	424	1	Ⴁ	cut_a_stereo_44KHz.wav
3	124	3	3	2	I	1	0	673	1	Ⴡ	cut_o_stereo_44KHz.wav
3	125	2	2	1	C	2	0	941	0	Ⴃ	cut_a_stereo_44KHz.wav
3	126	4	3	2	I	1	0	1115	0	Ⴊ	cut_o_stereo_44KHz.wav
3	127	1	1	1	C	1	1	703	1	Ⴁ	cut_u_stereo_44KHz.wav
3	128	3	4	2	I	1	0	907	1	Ⴡ	cut_k_stereo_44KHz.wav
3	129	4	4	2	I	2	0	954	1	Ⴊ	cut_k_stereo_44KHz.wav
3	130	3	4	2	I	2	0	576	0	Ⴡ	cut_k_stereo_44KHz.wav
3	131	2	2	1	C	0	0	0	0	Ⴃ	cut_a_stereo_44KHz.wav
3	132	1	1	1	C	2	0	782	0	Ⴁ	cut_u_stereo_44KHz.wav
3	133	2	1	0	C	1	0	1599	0	Ⴃ	cut_u_stereo_44KHz.wav
3	134	4	3	2	I	0	0	0	0	Ⴊ	cut_o_stereo_44KHz.wav
3	135	1	2	0	C	2	1	595	1	Ⴁ	cut_a_stereo_44KHz.wav
3	136	3	3	2	I	1	0	518	1	Ⴡ	cut_o_stereo_44KHz.wav
3	137	1	1	1	C	1	1	354	1	Ⴁ	cut_u_stereo_44KHz.wav
3	138	2	2	1	C	2	0	548	0	Ⴃ	cut_a_stereo_44KHz.wav
3	139	3	3	2	I	1	0	883	1	Ⴡ	cut_o_stereo_44KHz.wav
3	140	4	3	2	I	2	0	912	1	Ⴊ	cut_o_stereo_44KHz.wav
3	141	3	4	2	I	1	0	842	1	Ⴡ	cut_k_stereo_44KHz.wav
3	142	4	4	2	I	2	0	799	1	Ⴊ	cut_k_stereo_44KHz.wav
3	143	1	2	0	C	2	1	906	1	Ⴁ	cut_a_stereo_44KHz.wav
3	144	2	1	0	C	2	1	821	1	Ⴃ	cut_u_stereo_44KHz.wav
3	145	3	4	2	I	1	0	1290	1	Ⴡ	cut_k_stereo_44KHz.wav
3	146	4	4	2	I	2	0	838	1	Ⴊ	cut_k_stereo_44KHz.wav
3	147	2	2	1	C	1	1	930	1	Ⴃ	cut_a_stereo_44KHz.wav
3	148	1	1	1	C	2	0	766	0	Ⴁ	cut_u_stereo_44KHz.wav
3	149	2	1	0	C	1	0	822	0	Ⴃ	cut_u_stereo_44KHz.wav
3	150	4	3	2	I	2	0	1160	1	Ⴊ	cut_o_stereo_44KHz.wav
3	151	1	2	0	C	2	1	932	1	Ⴁ	cut_a_stereo_44KHz.wav
3	152	3	3	2	I	1	0	909	0	Ⴡ	cut_o_stereo_44KHz.wav
3	153	4	3	2	I	1	0	481	1	Ⴊ	cut_o_stereo_44KHz.wav
3	154	2	1	0	C	2	1	1241	1	Ⴃ	cut_u_stereo_44KHz.wav
3	155	1	1	1	C	1	1	449	1	Ⴁ	cut_u_stereo_44KHz.wav
3	156	3	4	2	I	2	0	775	1	Ⴡ	cut_k_stereo_44KHz.wav
3	157	1	2	0	C	1	0	1079	0	Ⴁ	cut_a_stereo_44KHz.wav
3	158	3	3	2	I	2	0	645	0	Ⴡ	cut_o_stereo_44KHz.wav
3	159	2	2	1	C	2	0	1036	0	Ⴃ	cut_a_stereo_44KHz.wav
3	160	4	4	2	I	1	0	1008	1	Ⴊ	cut_k_stereo_44KHz.wav
3	161	2	2	1	C	1	1	662	1	Ⴃ	cut_a_stereo_44KHz.wav
3	162	3	4	2	I	1	0	1718	0	Ⴡ	cut_k_stereo_44KHz.wav
3	163	4	4	2	I	1	0	1246	1	Ⴊ	cut_k_stereo_44KHz.wav
3	164	1	2	0	C	2	1	559	1	Ⴁ	cut_a_stereo_44KHz.wav
3	165	4	3	2	I	2	0	1247	0	Ⴊ	cut_o_stereo_44KHz.wav
3	166	2	1	0	C	1	0	880	0	Ⴃ	cut_u_stereo_44KHz.wav
3	167	3	3	2	I	1	0	544	0	Ⴡ	cut_o_stereo_44KHz.wav
3	168	1	1	1	C	2	0	503	0	Ⴁ	cut_u_stereo_44KHz.wav
3	169	3	3	2	I	2	0	533	1	Ⴡ	cut_o_stereo_44KHz.wav
3	170	4	3	2	I	1	0	1050	1	Ⴊ	cut_o_stereo_44KHz.wav
3	171	1	2	0	C	2	1	876	1	Ⴁ	cut_a_stereo_44KHz.wav
3	172	2	1	0	C	1	0	719	0	Ⴃ	cut_u_stereo_44KHz.wav
3	173	1	1	1	C	2	0	830	0	Ⴁ	cut_u_stereo_44KHz.wav
3	174	4	4	2	I	1	0	995	1	Ⴊ	cut_k_stereo_44KHz.wav
3	175	3	4	2	I	1	0	906	1	Ⴡ	cut_k_stereo_44KHz.wav
3	176	2	2	1	C	2	0	981	0	Ⴃ	cut_a_stereo_44KHz.wav
3	177	1	1	1	C	1	1	1056	1	Ⴁ	cut_u_stereo_44KHz.wav
3	178	2	1	0	C	1	0	803	0	Ⴃ	cut_u_stereo_44KHz.wav
3	179	4	3	2	I	2	0	1159	1	Ⴊ	cut_o_stereo_44KHz.wav
3	180	3	3	2	I	2	0	1239	1	Ⴡ	cut_o_stereo_44KHz.wav
3	181	1	2	0	C	1	0	945	0	Ⴁ	cut_a_stereo_44KHz.wav
3	182	3	4	2	I	2	0	655	1	Ⴡ	cut_k_stereo_44KHz.wav
3	183	4	4	2	I	1	0	804	1	Ⴊ	cut_k_stereo_44KHz.wav
3	184	2	2	1	C	2	0	1429	0	Ⴃ	cut_a_stereo_44KHz.wav
3	185	4	3	2	I	1	0	829	1	Ⴊ	cut_o_stereo_44KHz.wav
3	186	1	2	0	C	2	1	693	1	Ⴁ	cut_a_stereo_44KHz.wav
3	187	3	3	2	I	2	0	1055	1	Ⴡ	cut_o_stereo_44KHz.wav
3	188	2	2	1	C	2	0	507	0	Ⴃ	cut_a_stereo_44KHz.wav
3	189	4	4	2	I	1	0	880	1	Ⴊ	cut_k_stereo_44KHz.wav
3	190	3	4	2	I	2	0	1466	1	Ⴡ	cut_k_stereo_44KHz.wav
3	191	1	1	1	C	2	0	730	0	Ⴁ	cut_u_stereo_44KHz.wav
3	192	2	1	0	C	2	1	861	1	Ⴃ	cut_u_stereo_44KHz.wav
3	193	3	3	2	I	2	0	1033	0	Ⴡ	cut_o_stereo_44KHz.wav
3	194	1	2	0	C	1	0	899	0	Ⴁ	cut_a_stereo_44KHz.wav
3	195	4	3	2	I	1	0	1608	1	Ⴊ	cut_o_stereo_44KHz.wav
3	196	2	2	1	C	1	1	1283	1	Ⴃ	cut_a_stereo_44KHz.wav
3	197	4	4	2	I	2	0	1200	1	Ⴊ	cut_k_stereo_44KHz.wav
3	198	3	4	2	I	2	0	868	1	Ⴡ	cut_k_stereo_44KHz.wav
3	199	2	1	0	C	1	0	1396	0	Ⴃ	cut_u_stereo_44KHz.wav
3	200	1	1	1	C	2	0	1008	0	Ⴁ	cut_u_stereo_44KHz.wav
4	1	2	2	1	C	0	0	0	0	Ⴜ	cut_r_stereo_44KHz.wav
4	2	1	2	0	C	1	0	919	0	Ⴟ	cut_r_stereo_44KHz.wav
4	3	3	4	2	I	2	0	806	1	Ⴇ	cut_ei_stereo_44KHz.wav
4	4	4	4	2	I	1	0	930	0	Ⴂ	cut_ei_stereo_44KHz.wav
4	5	3	3	2	I	2	0	994	1	Ⴇ	cut_n_stereo_44KHz.wav
4	6	2	1	0	C	1	0	922	0	Ⴜ	cut_f_stereo_44KHz.wav
4	7	1	1	1	C	2	0	1343	0	Ⴟ	cut_f_stereo_44KHz.wav
4	8	4	3	2	I	1	0	1434	0	Ⴂ	cut_n_stereo_44KHz.wav
4	9	1	2	0	C	2	1	584	1	Ⴟ	cut_r_stereo_44KHz.wav
4	10	3	3	2	I	1	0	932	1	Ⴇ	cut_n_stereo_44KHz.wav
4	11	4	4	2	I	2	0	1181	0	Ⴂ	cut_ei_stereo_44KHz.wav
4	12	2	2	1	C	1	1	1246	1	Ⴜ	cut_r_stereo_44KHz.wav
4	13	1	1	1	C	2	0	844	0	Ⴟ	cut_f_stereo_44KHz.wav
4	14	2	1	0	C	0	0	0	0	Ⴜ	cut_f_stereo_44KHz.wav
4	15	4	3	2	I	2	0	1092	0	Ⴂ	cut_n_stereo_44KHz.wav
4	16	3	4	2	I	1	0	942	1	Ⴇ	cut_ei_stereo_44KHz.wav
4	17	2	2	1	C	2	0	1171	0	Ⴜ	cut_r_stereo_44KHz.wav
4	18	4	3	2	I	1	0	1779	1	Ⴂ	cut_n_stereo_44KHz.wav
4	19	3	3	2	I	0	0	0	0	Ⴇ	cut_n_stereo_44KHz.wav
4	20	1	1	1	C	1	1	1860	1	Ⴟ	cut_f_stereo_44KHz.wav
4	21	2	1	0	C	1	0	1630	0	Ⴜ	cut_f_stereo_44KHz.wav
4	22	3	4	2	I	2	0	1064	1	Ⴇ	cut_ei_stereo_44KHz.wav
4	23	4	4	2	I	1	0	1736	1	Ⴂ	cut_ei_stereo_44KHz.wav
4	24	1	2	0	C	2	1	1499	1	Ⴟ	cut_r_stereo_44KHz.wav
4	25	3	4	2	I	1	0	1805	1	Ⴇ	cut_ei_stereo_44KHz.wav
4	26	2	2	1	C	1	1	1698	1	Ⴜ	cut_r_stereo_44KHz.wav
4	27	1	1	1	C	2	0	681	0	Ⴟ	cut_f_stereo_44KHz.wav
4	28	4	3	2	I	1	0	1714	1	Ⴂ	cut_n_stereo_44KHz.wav
4	29	1	2	0	C	1	0	907	0	Ⴟ	cut_r_stereo_44KHz.wav
4	30	4	4	2	I	1	0	1600	1	Ⴂ	cut_ei_stereo_44KHz.wav
4	31	3	3	2	I	2	0	972	1	Ⴇ	cut_n_stereo_44KHz.wav
4	32	2	1	0	C	2	1	1781	1	Ⴜ	cut_f_stereo_44KHz.wav
4	33	3	3	2	I	1	0	1325	1	Ⴇ	cut_n_stereo_44KHz.wav
4	34	1	1	1	C	2	0	1526	0	Ⴟ	cut_f_stereo_44KHz.wav
4	35	2	2	1	C	1	1	1262	1	Ⴜ	cut_r_stereo_44KHz.wav
4	36	4	3	2	I	2	0	1073	1	Ⴂ	cut_n_stereo_44KHz.wav
4	37	3	4	2	I	1	0	1442	1	Ⴇ	cut_ei_stereo_44KHz.wav
4	38	1	2	0	C	2	1	844	1	Ⴟ	cut_r_stereo_44KHz.wav
4	39	4	4	2	I	1	0	968	0	Ⴂ	cut_ei_stereo_44KHz.wav
4	40	2	1	0	C	2	1	520	1	Ⴜ	cut_f_stereo_44KHz.wav
4	41	1	1	1	C	1	1	1410	1	Ⴟ	cut_f_stereo_44KHz.wav
4	42	2	2	1	C	2	0	1825	0	Ⴜ	cut_r_stereo_44KHz.wav
4	43	3	4	2	I	1	0	1578	0	Ⴇ	cut_ei_stereo_44KHz.wav
4	44	4	3	2	I	1	0	1318	1	Ⴂ	cut_n_stereo_44KHz.wav
4	45	2	1	0	C	1	0	1882	0	Ⴜ	cut_f_stereo_44KHz.wav
4	46	4	4	2	I	2	0	982	1	Ⴂ	cut_ei_stereo_44KHz.wav
4	47	3	3	2	I	2	0	884	0	Ⴇ	cut_n_stereo_44KHz.wav
4	48	1	2	0	C	2	1	909	1	Ⴟ	cut_r_stereo_44KHz.wav
4	49	2	1	0	C	1	0	979	0	Ⴜ	cut_f_stereo_44KHz.wav
4	50	1	1	1	C	2	0	772	0	Ⴟ	cut_f_stereo_44KHz.wav
4	51	4	3	2	I	1	0	870	1	Ⴂ	cut_n_stereo_44KHz.wav
4	52	3	3	2	I	1	0	743	1	Ⴇ	cut_n_stereo_44KHz.wav
4	53	1	2	0	C	1	0	929	0	Ⴟ	cut_r_stereo_44KHz.wav
4	54	2	2	1	C	1	1	1111	1	Ⴜ	cut_r_stereo_44KHz.wav
4	55	4	4	2	I	2	0	1063	1	Ⴂ	cut_ei_stereo_44KHz.wav
4	56	3	4	2	I	1	0	960	1	Ⴇ	cut_ei_stereo_44KHz.wav
4	57	2	1	0	C	1	0	537	0	Ⴜ	cut_f_stereo_44KHz.wav
4	58	3	3	2	I	2	0	975	1	Ⴇ	cut_n_stereo_44KHz.wav
4	59	1	1	1	C	1	1	1907	1	Ⴟ	cut_f_stereo_44KHz.wav
4	60	4	3	2	I	1	0	1112	1	Ⴂ	cut_n_stereo_44KHz.wav
4	61	3	4	2	I	2	0	783	0	Ⴇ	cut_ei_stereo_44KHz.wav
4	62	4	4	2	I	1	0	713	0	Ⴂ	cut_ei_stereo_44KHz.wav
4	63	1	2	0	C	2	1	815	1	Ⴟ	cut_r_stereo_44KHz.wav
4	64	2	2	1	C	2	0	913	0	Ⴜ	cut_r_stereo_44KHz.wav
4	65	4	4	2	I	1	0	566	1	Ⴂ	cut_ei_stereo_44KHz.wav
4	66	2	2	1	C	1	1	1222	1	Ⴜ	cut_r_stereo_44KHz.wav
4	67	1	2	0	C	2	1	1054	1	Ⴟ	cut_r_stereo_44KHz.wav
4	68	3	4	2	I	1	0	861	0	Ⴇ	cut_ei_stereo_44KHz.wav
4	69	4	3	2	I	1	0	912	1	Ⴂ	cut_n_stereo_44KHz.wav
4	70	3	3	2	I	2	0	914	1	Ⴇ	cut_n_stereo_44KHz.wav
4	71	2	1	0	C	2	1	1054	1	Ⴜ	cut_f_stereo_44KHz.wav
4	72	1	1	1	C	1	1	1222	1	Ⴟ	cut_f_stereo_44KHz.wav
4	73	2	2	1	C	2	0	1114	0	Ⴜ	cut_r_stereo_44KHz.wav
4	74	4	3	2	I	0	0	0	0	Ⴂ	cut_n_stereo_44KHz.wav
4	75	3	3	2	I	1	0	510	1	Ⴇ	cut_n_stereo_44KHz.wav
4	76	1	2	0	C	2	1	680	1	Ⴟ	cut_r_stereo_44KHz.wav
4	77	4	4	2	I	1	0	917	1	Ⴂ	cut_ei_stereo_44KHz.wav
4	78	2	1	0	C	2	1	1063	1	Ⴜ	cut_f_stereo_44KHz.wav
4	79	3	4	2	I	1	0	474	1	Ⴇ	cut_ei_stereo_44KHz.wav
4	80	1	1	1	C	2	0	667	0	Ⴟ	cut_f_stereo_44KHz.wav
4	81	2	1	0	C	1	0	693	0	Ⴜ	cut_f_stereo_44KHz.wav
4	82	4	3	2	I	2	0	860	1	Ⴂ	cut_n_stereo_44KHz.wav
4	83	3	3	2	I	1	0	420	0	Ⴇ	cut_n_stereo_44KHz.wav
4	84	1	1	1	C	2	0	889	0	Ⴟ	cut_f_stereo_44KHz.wav
4	85	4	4	2	I	1	0	149	1	Ⴂ	cut_ei_stereo_44KHz.wav
4	86	2	2	1	C	2	0	36	0	Ⴜ	cut_r_stereo_44KHz.wav
4	87	3	4	2	I	1	0	999	1	Ⴇ	cut_ei_stereo_44KHz.wav
4	88	1	2	0	C	1	0	915	0	Ⴟ	cut_r_stereo_44KHz.wav
4	89	4	4	2	I	2	0	973	1	Ⴂ	cut_ei_stereo_44KHz.wav
4	90	1	1	1	C	0	0	0	0	Ⴟ	cut_f_stereo_44KHz.wav
4	91	2	2	1	C	1	1	887	1	Ⴜ	cut_r_stereo_44KHz.wav
4	92	3	4	2	I	1	0	864	1	Ⴇ	cut_ei_stereo_44KHz.wav
4	93	2	1	0	C	2	1	805	1	Ⴜ	cut_f_stereo_44KHz.wav
4	94	4	3	2	I	1	0	645	1	Ⴂ	cut_n_stereo_44KHz.wav
4	95	3	3	2	I	1	0	786	1	Ⴇ	cut_n_stereo_44KHz.wav
4	96	1	2	0	C	1	0	771	0	Ⴟ	cut_r_stereo_44KHz.wav
4	97	4	4	2	I	2	0	1154	1	Ⴂ	cut_ei_stereo_44KHz.wav
4	98	2	1	0	C	2	1	779	1	Ⴜ	cut_f_stereo_44KHz.wav
4	99	3	4	2	I	1	0	987	1	Ⴇ	cut_ei_stereo_44KHz.wav
4	100	1	2	0	C	2	1	1146	1	Ⴟ	cut_r_stereo_44KHz.wav
4	101	4	3	2	I	1	0	828	1	Ⴂ	cut_n_stereo_44KHz.wav
4	102	3	3	2	I	1	0	1248	1	Ⴇ	cut_n_stereo_44KHz.wav
4	103	2	2	1	C	2	0	559	0	Ⴜ	cut_r_stereo_44KHz.wav
4	104	1	1	1	C	2	0	904	0	Ⴟ	cut_f_stereo_44KHz.wav
4	105	2	2	1	C	1	1	849	1	Ⴜ	cut_r_stereo_44KHz.wav
4	106	1	1	1	C	1	1	1171	1	Ⴟ	cut_f_stereo_44KHz.wav
4	107	3	3	2	I	1	0	912	1	Ⴇ	cut_n_stereo_44KHz.wav
4	108	4	3	2	I	1	0	841	0	Ⴂ	cut_n_stereo_44KHz.wav
4	109	1	2	0	C	2	1	710	1	Ⴟ	cut_r_stereo_44KHz.wav
4	110	2	1	0	C	1	0	1216	0	Ⴜ	cut_f_stereo_44KHz.wav
4	111	3	4	2	I	1	0	1213	0	Ⴇ	cut_ei_stereo_44KHz.wav
4	112	4	4	2	I	1	0	654	1	Ⴂ	cut_ei_stereo_44KHz.wav
4	113	1	2	0	C	2	1	845	1	Ⴟ	cut_r_stereo_44KHz.wav
4	114	2	1	0	C	1	0	556	0	Ⴜ	cut_f_stereo_44KHz.wav
4	115	3	4	2	I	2	0	884	1	Ⴇ	cut_ei_stereo_44KHz.wav
4	116	4	4	2	I	2	0	728	1	Ⴂ	cut_ei_stereo_44KHz.wav
4	117	3	3	2	I	2	0	857	1	Ⴇ	cut_n_stereo_44KHz.wav
4	118	2	2	1	C	2	0	945	0	Ⴜ	cut_r_stereo_44KHz.wav
4	119	4	3	2	I	1	0	819	1	Ⴂ	cut_n_stereo_44KHz.wav
4	120	1	1	1	C	1	1	464	1	Ⴟ	cut_f_stereo_44KHz.wav
4	121	2	1	0	C	2	1	797	1	Ⴜ	cut_f_stereo_44KHz.wav
4	122	4	4	2	I	1	0	790	1	Ⴂ	cut_ei_stereo_44KHz.wav
4	123	1	1	1	C	1	1	1130	1	Ⴟ	cut_f_stereo_44KHz.wav
4	124	3	4	2	I	1	0	766	1	Ⴇ	cut_ei_stereo_44KHz.wav
4	125	4	3	2	I	1	0	853	1	Ⴂ	cut_n_stereo_44KHz.wav
4	126	1	2	0	C	2	1	883	1	Ⴟ	cut_r_stereo_44KHz.wav
4	127	2	2	1	C	1	1	1048	1	Ⴜ	cut_r_stereo_44KHz.wav
4	128	3	3	2	I	1	0	1058	1	Ⴇ	cut_n_stereo_44KHz.wav
4	129	4	3	2	I	1	0	933	0	Ⴂ	cut_n_stereo_44KHz.wav
4	130	1	2	0	C	2	1	867	1	Ⴟ	cut_r_stereo_44KHz.wav
4	131	2	2	1	C	1	1	744	1	Ⴜ	cut_r_stereo_44KHz.wav
4	132	3	4	2	I	1	0	1039	1	Ⴇ	cut_ei_stereo_44KHz.wav
4	133	1	1	1	C	2	0	897	0	Ⴟ	cut_f_stereo_44KHz.wav
4	134	3	3	2	I	1	0	1082	1	Ⴇ	cut_n_stereo_44KHz.wav
4	135	2	1	0	C	1	0	528	0	Ⴜ	cut_f_stereo_44KHz.wav
4	136	4	4	2	I	2	0	1396	1	Ⴂ	cut_ei_stereo_44KHz.wav
4	137	1	1	1	C	1	1	1196	1	Ⴟ	cut_f_stereo_44KHz.wav
4	138	3	3	2	I	1	0	1502	1	Ⴇ	cut_n_stereo_44KHz.wav
4	139	4	4	2	I	1	0	1060	1	Ⴂ	cut_ei_stereo_44KHz.wav
4	140	2	1	0	C	2	1	611	1	Ⴜ	cut_f_stereo_44KHz.wav
4	141	4	3	2	I	2	0	1060	0	Ⴂ	cut_n_stereo_44KHz.wav
4	142	1	2	0	C	1	0	722	0	Ⴟ	cut_r_stereo_44KHz.wav
4	143	3	4	2	I	1	0	1516	1	Ⴇ	cut_ei_stereo_44KHz.wav
4	144	2	2	1	C	2	0	956	0	Ⴜ	cut_r_stereo_44KHz.wav
4	145	4	4	2	I	1	0	649	1	Ⴂ	cut_ei_stereo_44KHz.wav
4	146	1	1	1	C	1	1	863	1	Ⴟ	cut_f_stereo_44KHz.wav
4	147	2	1	0	C	1	0	1193	0	Ⴜ	cut_f_stereo_44KHz.wav
4	148	3	4	2	I	1	0	820	1	Ⴇ	cut_ei_stereo_44KHz.wav
4	149	1	2	0	C	2	1	975	1	Ⴟ	cut_r_stereo_44KHz.wav
4	150	2	2	1	C	1	1	868	1	Ⴜ	cut_r_stereo_44KHz.wav
4	151	4	3	2	I	2	0	1037	1	Ⴂ	cut_n_stereo_44KHz.wav
4	152	3	3	2	I	1	0	746	1	Ⴇ	cut_n_stereo_44KHz.wav
4	153	1	2	0	C	2	1	941	1	Ⴟ	cut_r_stereo_44KHz.wav
4	154	3	4	2	I	1	0	786	1	Ⴇ	cut_ei_stereo_44KHz.wav
4	155	4	4	2	I	1	0	760	1	Ⴂ	cut_ei_stereo_44KHz.wav
4	156	2	1	0	C	1	0	819	0	Ⴜ	cut_f_stereo_44KHz.wav
4	157	3	3	2	I	2	0	918	1	Ⴇ	cut_n_stereo_44KHz.wav
4	158	1	1	1	C	1	1	1394	1	Ⴟ	cut_f_stereo_44KHz.wav
4	159	2	2	1	C	2	0	774	0	Ⴜ	cut_r_stereo_44KHz.wav
4	160	4	3	2	I	1	0	983	1	Ⴂ	cut_n_stereo_44KHz.wav
4	161	3	3	2	I	2	0	659	0	Ⴇ	cut_n_stereo_44KHz.wav
4	162	1	1	1	C	1	1	982	1	Ⴟ	cut_f_stereo_44KHz.wav
4	163	2	2	1	C	1	1	602	1	Ⴜ	cut_r_stereo_44KHz.wav
4	164	4	3	2	I	2	0	848	0	Ⴂ	cut_n_stereo_44KHz.wav
4	165	3	4	2	I	2	0	1214	1	Ⴇ	cut_ei_stereo_44KHz.wav
4	166	2	1	0	C	1	0	749	0	Ⴜ	cut_f_stereo_44KHz.wav
4	167	4	4	2	I	2	0	994	1	Ⴂ	cut_ei_stereo_44KHz.wav
4	168	1	2	0	C	2	1	1006	1	Ⴟ	cut_r_stereo_44KHz.wav
4	169	3	4	2	I	1	0	798	1	Ⴇ	cut_ei_stereo_44KHz.wav
4	170	1	1	1	C	2	0	778	0	Ⴟ	cut_f_stereo_44KHz.wav
4	171	4	3	2	I	0	0	0	0	Ⴂ	cut_n_stereo_44KHz.wav
4	172	2	2	1	C	1	1	712	1	Ⴜ	cut_r_stereo_44KHz.wav
4	173	1	2	0	C	2	1	1166	1	Ⴟ	cut_r_stereo_44KHz.wav
4	174	3	3	2	I	1	0	926	1	Ⴇ	cut_n_stereo_44KHz.wav
4	175	4	4	2	I	2	0	1148	1	Ⴂ	cut_ei_stereo_44KHz.wav
4	176	2	1	0	C	1	0	1619	0	Ⴜ	cut_f_stereo_44KHz.wav
4	177	4	3	2	I	2	0	1084	1	Ⴂ	cut_n_stereo_44KHz.wav
4	178	3	3	2	I	1	0	516	1	Ⴇ	cut_n_stereo_44KHz.wav
4	179	1	2	0	C	1	0	1495	0	Ⴟ	cut_r_stereo_44KHz.wav
4	180	2	1	0	C	1	0	1392	0	Ⴜ	cut_f_stereo_44KHz.wav
4	181	3	4	2	I	2	0	878	0	Ⴇ	cut_ei_stereo_44KHz.wav
4	182	1	1	1	C	1	1	713	1	Ⴟ	cut_f_stereo_44KHz.wav
4	183	4	4	2	I	2	0	808	1	Ⴂ	cut_ei_stereo_44KHz.wav
4	184	2	2	1	C	1	1	839	1	Ⴜ	cut_r_stereo_44KHz.wav
4	185	1	2	0	C	2	1	997	1	Ⴟ	cut_r_stereo_44KHz.wav
4	186	3	4	2	I	1	0	970	1	Ⴇ	cut_ei_stereo_44KHz.wav
4	187	4	4	2	I	2	0	1007	1	Ⴂ	cut_ei_stereo_44KHz.wav
4	188	2	2	1	C	1	1	747	1	Ⴜ	cut_r_stereo_44KHz.wav
4	189	4	3	2	I	2	0	766	1	Ⴂ	cut_n_stereo_44KHz.wav
4	190	1	1	1	C	1	1	1041	1	Ⴟ	cut_f_stereo_44KHz.wav
4	191	3	3	2	I	2	0	808	0	Ⴇ	cut_n_stereo_44KHz.wav
4	192	2	1	0	C	1	0	825	0	Ⴜ	cut_f_stereo_44KHz.wav
4	193	1	1	1	C	2	0	596	0	Ⴟ	cut_f_stereo_44KHz.wav
4	194	2	1	0	C	1	0	733	0	Ⴜ	cut_f_stereo_44KHz.wav
4	195	4	3	2	I	1	0	1530	1	Ⴂ	cut_n_stereo_44KHz.wav
4	196	3	4	2	I	2	0	737	0	Ⴇ	cut_ei_stereo_44KHz.wav
4	197	1	2	0	C	2	1	892	1	Ⴟ	cut_r_stereo_44KHz.wav
4	198	2	2	1	C	1	1	774	1	Ⴜ	cut_r_stereo_44KHz.wav
4	199	3	3	2	I	1	0	732	1	Ⴇ	cut_n_stereo_44KHz.wav
4	200	4	4	2	I	1	0	777	1	Ⴂ	cut_ei_stereo_44KHz.wav
