block	trial	Vstim	Astim	match	C/I	resp	result	RT	fb	V-file	A-file
LR

0	1	1	1	1	C	2	1	1962	1	Ⴉ	cut_eeuw_stereo_44KHz.wav
0	2	2	4	0	C	1	1	1397	1	Ⴢ	cut_oo_stereo_44KHz.wav
0	3	1	2	0	C	2	0	1325	0	Ⴉ	cut_ee_stereo_44KHz.wav
0	4	2	3	1	C	1	0	1242	0	Ⴢ	cut_g_stereo_44KHz.wav
0	5	2	4	0	C	1	1	1967	1	Ⴢ	cut_oo_stereo_44KHz.wav
0	6	1	2	0	C	2	0	902	0	Ⴉ	cut_ee_stereo_44KHz.wav
0	7	2	3	1	C	1	0	696	0	Ⴢ	cut_g_stereo_44KHz.wav
0	8	1	1	1	C	0	0	0	0	Ⴉ	cut_eeuw_stereo_44KHz.wav
0	9	1	2	0	C	1	1	719	1	Ⴉ	cut_ee_stereo_44KHz.wav
0	10	1	1	1	C	2	1	1131	1	Ⴉ	cut_eeuw_stereo_44KHz.wav
0	11	2	3	1	C	1	0	903	0	Ⴢ	cut_g_stereo_44KHz.wav
0	12	2	4	0	C	2	0	251	0	Ⴢ	cut_oo_stereo_44KHz.wav
0	13	1	1	1	C	1	0	660	0	Ⴉ	cut_eeuw_stereo_44KHz.wav
0	14	2	4	0	C	1	1	496	1	Ⴢ	cut_oo_stereo_44KHz.wav
0	15	1	2	0	C	2	0	344	0	Ⴉ	cut_ee_stereo_44KHz.wav
0	16	2	3	1	C	1	0	276	0	Ⴢ	cut_g_stereo_44KHz.wav
0	17	1	1	1	C	1	0	1251	0	Ⴉ	cut_eeuw_stereo_44KHz.wav
0	18	2	3	1	C	1	0	387	0	Ⴢ	cut_g_stereo_44KHz.wav
0	19	2	4	0	C	1	1	782	1	Ⴢ	cut_oo_stereo_44KHz.wav
0	20	1	2	0	C	2	0	272	0	Ⴉ	cut_ee_stereo_44KHz.wav
0	21	1	2	0	C	2	0	255	0	Ⴉ	cut_ee_stereo_44KHz.wav
0	22	2	3	1	C	1	0	752	0	Ⴢ	cut_g_stereo_44KHz.wav
0	23	1	1	1	C	2	1	358	1	Ⴉ	cut_eeuw_stereo_44KHz.wav
0	24	2	4	0	C	1	1	505	1	Ⴢ	cut_oo_stereo_44KHz.wav
0	25	2	4	0	C	2	0	119	0	Ⴢ	cut_oo_stereo_44KHz.wav
0	26	2	3	1	C	1	0	457	0	Ⴢ	cut_g_stereo_44KHz.wav
0	27	1	1	1	C	1	0	563	0	Ⴉ	cut_eeuw_stereo_44KHz.wav
0	28	1	2	0	C	2	0	127	0	Ⴉ	cut_ee_stereo_44KHz.wav
0	29	1	1	1	C	1	0	397	0	Ⴉ	cut_eeuw_stereo_44KHz.wav
0	30	2	3	1	C	1	0	271	0	Ⴢ	cut_g_stereo_44KHz.wav
avg_resp = 1035
1	1	3	3	2	I	2	0	1517	1	Ⴃ	cut_w_stereo_44KHz.wav
1	2	2	1	0	C	2	0	1679	0	Ⴟ	cut_l_stereo_44KHz.wav
1	3	4	3	2	I	2	0	1521	1	Ⴊ	cut_w_stereo_44KHz.wav
1	4	1	2	0	C	0	0	0	0	Ⴁ	cut_g_stereo_44KHz.wav
1	5	4	4	2	I	2	0	846	1	Ⴊ	cut_h_stereo_44KHz.wav
1	6	2	2	1	C	1	0	832	0	Ⴟ	cut_g_stereo_44KHz.wav
1	7	1	1	1	C	2	1	571	1	Ⴁ	cut_l_stereo_44KHz.wav
1	8	3	4	2	I	2	0	378	0	Ⴃ	cut_h_stereo_44KHz.wav
1	9	2	2	1	C	2	1	1740	1	Ⴟ	cut_g_stereo_44KHz.wav
1	10	1	1	1	C	2	1	1275	1	Ⴁ	cut_l_stereo_44KHz.wav
1	11	4	4	2	I	1	0	1576	0	Ⴊ	cut_h_stereo_44KHz.wav
1	12	3	3	2	I	2	0	989	0	Ⴃ	cut_w_stereo_44KHz.wav
1	13	1	2	0	C	1	1	1162	1	Ⴁ	cut_g_stereo_44KHz.wav
1	14	4	3	2	I	2	0	1027	1	Ⴊ	cut_w_stereo_44KHz.wav
1	15	2	1	0	C	2	0	1568	0	Ⴟ	cut_l_stereo_44KHz.wav
1	16	3	4	2	I	1	0	865	0	Ⴃ	cut_h_stereo_44KHz.wav
1	17	4	4	2	I	1	0	1461	0	Ⴊ	cut_h_stereo_44KHz.wav
1	18	3	3	2	I	1	0	1253	0	Ⴃ	cut_w_stereo_44KHz.wav
1	19	2	1	0	C	2	0	360	0	Ⴟ	cut_l_stereo_44KHz.wav
1	20	1	2	0	C	1	1	1619	1	Ⴁ	cut_g_stereo_44KHz.wav
1	21	4	3	2	I	1	0	1137	1	Ⴊ	cut_w_stereo_44KHz.wav
1	22	1	1	1	C	2	1	1646	1	Ⴁ	cut_l_stereo_44KHz.wav
1	23	3	4	2	I	1	0	1291	1	Ⴃ	cut_h_stereo_44KHz.wav
1	24	2	2	1	C	2	1	1313	1	Ⴟ	cut_g_stereo_44KHz.wav
1	25	3	4	2	I	1	0	622	1	Ⴃ	cut_h_stereo_44KHz.wav
1	26	4	3	2	I	2	0	938	1	Ⴊ	cut_w_stereo_44KHz.wav
1	27	1	1	1	C	2	1	1227	1	Ⴁ	cut_l_stereo_44KHz.wav
1	28	2	1	0	C	1	1	1139	1	Ⴟ	cut_l_stereo_44KHz.wav
1	29	4	4	2	I	2	0	808	1	Ⴊ	cut_h_stereo_44KHz.wav
1	30	3	3	2	I	1	0	796	1	Ⴃ	cut_w_stereo_44KHz.wav
1	31	2	2	1	C	2	1	1070	1	Ⴟ	cut_g_stereo_44KHz.wav
1	32	1	2	0	C	1	1	1839	1	Ⴁ	cut_g_stereo_44KHz.wav
1	33	3	3	2	I	1	0	766	1	Ⴃ	cut_w_stereo_44KHz.wav
1	34	2	1	0	C	1	1	1079	1	Ⴟ	cut_l_stereo_44KHz.wav
1	35	4	4	2	I	2	0	1008	1	Ⴊ	cut_h_stereo_44KHz.wav
1	36	1	2	0	C	1	1	850	1	Ⴁ	cut_g_stereo_44KHz.wav
1	37	2	2	1	C	2	1	1142	1	Ⴟ	cut_g_stereo_44KHz.wav
1	38	4	3	2	I	2	0	1004	1	Ⴊ	cut_w_stereo_44KHz.wav
1	39	1	1	1	C	2	1	1147	1	Ⴁ	cut_l_stereo_44KHz.wav
1	40	3	4	2	I	1	0	959	0	Ⴃ	cut_h_stereo_44KHz.wav
1	41	1	1	1	C	1	0	1498	0	Ⴁ	cut_l_stereo_44KHz.wav
1	42	2	1	0	C	1	1	852	1	Ⴟ	cut_l_stereo_44KHz.wav
1	43	4	4	2	I	1	0	1450	1	Ⴊ	cut_h_stereo_44KHz.wav
1	44	3	4	2	I	2	0	977	0	Ⴃ	cut_h_stereo_44KHz.wav
1	45	4	3	2	I	2	0	1309	0	Ⴊ	cut_w_stereo_44KHz.wav
1	46	2	2	1	C	2	1	1329	1	Ⴟ	cut_g_stereo_44KHz.wav
1	47	3	3	2	I	1	0	788	1	Ⴃ	cut_w_stereo_44KHz.wav
1	48	1	2	0	C	1	1	814	1	Ⴁ	cut_g_stereo_44KHz.wav
1	49	4	3	2	I	1	0	877	1	Ⴊ	cut_w_stereo_44KHz.wav
1	50	1	2	0	C	1	1	1470	1	Ⴁ	cut_g_stereo_44KHz.wav
1	51	2	1	0	C	1	1	692	1	Ⴟ	cut_l_stereo_44KHz.wav
1	52	3	3	2	I	1	0	776	1	Ⴃ	cut_w_stereo_44KHz.wav
1	53	1	1	1	C	2	1	914	1	Ⴁ	cut_l_stereo_44KHz.wav
1	54	3	4	2	I	1	0	715	0	Ⴃ	cut_h_stereo_44KHz.wav
1	55	4	4	2	I	1	0	1425	0	Ⴊ	cut_h_stereo_44KHz.wav
1	56	2	2	1	C	2	1	995	1	Ⴟ	cut_g_stereo_44KHz.wav
1	57	4	4	2	I	1	0	1707	1	Ⴊ	cut_h_stereo_44KHz.wav
1	58	3	3	2	I	1	0	680	1	Ⴃ	cut_w_stereo_44KHz.wav
1	59	1	2	0	C	1	1	1853	1	Ⴁ	cut_g_stereo_44KHz.wav
1	60	2	1	0	C	1	1	789	1	Ⴟ	cut_l_stereo_44KHz.wav
1	61	4	3	2	I	1	0	877	1	Ⴊ	cut_w_stereo_44KHz.wav
1	62	2	2	1	C	2	1	979	1	Ⴟ	cut_g_stereo_44KHz.wav
1	63	1	1	1	C	1	0	914	0	Ⴁ	cut_l_stereo_44KHz.wav
1	64	3	4	2	I	2	0	1143	1	Ⴃ	cut_h_stereo_44KHz.wav
1	65	4	4	2	I	2	0	762	1	Ⴊ	cut_h_stereo_44KHz.wav
1	66	3	3	2	I	1	0	777	1	Ⴃ	cut_w_stereo_44KHz.wav
1	67	1	2	0	C	1	1	1330	1	Ⴁ	cut_g_stereo_44KHz.wav
1	68	2	2	1	C	2	1	1027	1	Ⴟ	cut_g_stereo_44KHz.wav
1	69	3	4	2	I	1	0	1222	1	Ⴃ	cut_h_stereo_44KHz.wav
1	70	4	3	2	I	2	0	1180	1	Ⴊ	cut_w_stereo_44KHz.wav
1	71	1	1	1	C	2	1	1664	1	Ⴁ	cut_l_stereo_44KHz.wav
1	72	2	1	0	C	1	1	1655	1	Ⴟ	cut_l_stereo_44KHz.wav
1	73	3	4	2	I	1	0	1392	1	Ⴃ	cut_h_stereo_44KHz.wav
1	74	1	2	0	C	2	0	1058	0	Ⴁ	cut_g_stereo_44KHz.wav
1	75	4	4	2	I	1	0	1756	1	Ⴊ	cut_h_stereo_44KHz.wav
1	76	2	1	0	C	1	1	914	1	Ⴟ	cut_l_stereo_44KHz.wav
1	77	1	1	1	C	2	1	1158	1	Ⴁ	cut_l_stereo_44KHz.wav
1	78	3	3	2	I	1	0	800	1	Ⴃ	cut_w_stereo_44KHz.wav
1	79	2	2	1	C	2	1	1201	1	Ⴟ	cut_g_stereo_44KHz.wav
1	80	4	3	2	I	0	0	0	0	Ⴊ	cut_w_stereo_44KHz.wav
1	81	2	2	1	C	2	1	1948	1	Ⴟ	cut_g_stereo_44KHz.wav
1	82	3	4	2	I	2	0	1453	1	Ⴃ	cut_h_stereo_44KHz.wav
1	83	1	1	1	C	1	0	790	0	Ⴁ	cut_l_stereo_44KHz.wav
1	84	4	3	2	I	1	0	1436	1	Ⴊ	cut_w_stereo_44KHz.wav
1	85	2	1	0	C	1	1	754	1	Ⴟ	cut_l_stereo_44KHz.wav
1	86	3	3	2	I	1	0	1108	1	Ⴃ	cut_w_stereo_44KHz.wav
1	87	4	4	2	I	1	0	1185	1	Ⴊ	cut_h_stereo_44KHz.wav
1	88	1	2	0	C	2	0	499	0	Ⴁ	cut_g_stereo_44KHz.wav
1	89	4	3	2	I	1	0	1318	1	Ⴊ	cut_w_stereo_44KHz.wav
1	90	3	3	2	I	1	0	741	0	Ⴃ	cut_w_stereo_44KHz.wav
1	91	2	2	1	C	2	1	1329	1	Ⴟ	cut_g_stereo_44KHz.wav
1	92	1	1	1	C	2	1	1378	1	Ⴁ	cut_l_stereo_44KHz.wav
1	93	2	1	0	C	1	1	1319	1	Ⴟ	cut_l_stereo_44KHz.wav
1	94	1	2	0	C	2	0	1323	0	Ⴁ	cut_g_stereo_44KHz.wav
1	95	4	4	2	I	1	0	1293	1	Ⴊ	cut_h_stereo_44KHz.wav
1	96	3	4	2	I	1	0	1197	0	Ⴃ	cut_h_stereo_44KHz.wav
1	97	4	4	2	I	2	0	1245	0	Ⴊ	cut_h_stereo_44KHz.wav
1	98	3	3	2	I	1	0	807	1	Ⴃ	cut_w_stereo_44KHz.wav
1	99	2	2	1	C	2	1	877	1	Ⴟ	cut_g_stereo_44KHz.wav
1	100	1	2	0	C	1	1	1416	1	Ⴁ	cut_g_stereo_44KHz.wav
1	101	2	1	0	C	1	1	1055	1	Ⴟ	cut_l_stereo_44KHz.wav
1	102	1	1	1	C	2	1	1347	1	Ⴁ	cut_l_stereo_44KHz.wav
1	103	4	3	2	I	1	0	1419	1	Ⴊ	cut_w_stereo_44KHz.wav
1	104	3	4	2	I	2	0	1967	1	Ⴃ	cut_h_stereo_44KHz.wav
1	105	4	3	2	I	1	0	1401	1	Ⴊ	cut_w_stereo_44KHz.wav
1	106	1	1	1	C	0	0	0	0	Ⴁ	cut_l_stereo_44KHz.wav
1	107	2	2	1	C	2	1	1289	1	Ⴟ	cut_g_stereo_44KHz.wav
1	108	3	4	2	I	2	0	913	1	Ⴃ	cut_h_stereo_44KHz.wav
1	109	2	1	0	C	1	1	654	1	Ⴟ	cut_l_stereo_44KHz.wav
1	110	3	3	2	I	1	0	652	1	Ⴃ	cut_w_stereo_44KHz.wav
1	111	4	4	2	I	2	0	1002	1	Ⴊ	cut_h_stereo_44KHz.wav
1	112	1	2	0	C	1	1	1071	1	Ⴁ	cut_g_stereo_44KHz.wav
1	113	4	4	2	I	1	0	1018	1	Ⴊ	cut_h_stereo_44KHz.wav
1	114	2	1	0	C	1	1	1073	1	Ⴟ	cut_l_stereo_44KHz.wav
1	115	1	1	1	C	2	1	1329	1	Ⴁ	cut_l_stereo_44KHz.wav
1	116	3	3	2	I	1	0	857	1	Ⴃ	cut_w_stereo_44KHz.wav
1	117	2	2	1	C	2	1	1091	1	Ⴟ	cut_g_stereo_44KHz.wav
1	118	4	3	2	I	1	0	740	1	Ⴊ	cut_w_stereo_44KHz.wav
1	119	1	2	0	C	2	0	852	0	Ⴁ	cut_g_stereo_44KHz.wav
1	120	3	4	2	I	1	0	1822	1	Ⴃ	cut_h_stereo_44KHz.wav
1	121	4	3	2	I	1	0	1110	1	Ⴊ	cut_w_stereo_44KHz.wav
1	122	3	4	2	I	2	0	802	1	Ⴃ	cut_h_stereo_44KHz.wav
1	123	1	1	1	C	1	0	566	0	Ⴁ	cut_l_stereo_44KHz.wav
1	124	2	1	0	C	2	0	392	0	Ⴟ	cut_l_stereo_44KHz.wav
1	125	3	3	2	I	1	0	1453	1	Ⴃ	cut_w_stereo_44KHz.wav
1	126	4	4	2	I	1	0	965	1	Ⴊ	cut_h_stereo_44KHz.wav
1	127	1	2	0	C	0	0	0	0	Ⴁ	cut_g_stereo_44KHz.wav
1	128	2	2	1	C	1	0	732	0	Ⴟ	cut_g_stereo_44KHz.wav
1	129	3	4	2	I	2	0	783	1	Ⴃ	cut_h_stereo_44KHz.wav
1	130	2	1	0	C	1	1	513	1	Ⴟ	cut_l_stereo_44KHz.wav
1	131	1	2	0	C	1	1	1167	1	Ⴁ	cut_g_stereo_44KHz.wav
1	132	4	3	2	I	1	0	632	1	Ⴊ	cut_w_stereo_44KHz.wav
1	133	2	2	1	C	1	0	591	0	Ⴟ	cut_g_stereo_44KHz.wav
1	134	1	1	1	C	2	1	1622	1	Ⴁ	cut_l_stereo_44KHz.wav
1	135	4	4	2	I	1	0	1364	1	Ⴊ	cut_h_stereo_44KHz.wav
1	136	3	3	2	I	1	0	850	1	Ⴃ	cut_w_stereo_44KHz.wav
1	137	4	4	2	I	2	0	691	1	Ⴊ	cut_h_stereo_44KHz.wav
1	138	2	1	0	C	1	1	814	1	Ⴟ	cut_l_stereo_44KHz.wav
1	139	3	4	2	I	2	0	606	1	Ⴃ	cut_h_stereo_44KHz.wav
1	140	1	1	1	C	1	0	496	0	Ⴁ	cut_l_stereo_44KHz.wav
1	141	2	2	1	C	2	1	988	1	Ⴟ	cut_g_stereo_44KHz.wav
1	142	3	3	2	I	1	0	1661	1	Ⴃ	cut_w_stereo_44KHz.wav
1	143	1	2	0	C	0	0	0	0	Ⴁ	cut_g_stereo_44KHz.wav
1	144	4	3	2	I	1	0	1115	1	Ⴊ	cut_w_stereo_44KHz.wav
1	145	2	1	0	C	1	1	876	1	Ⴟ	cut_l_stereo_44KHz.wav
1	146	1	1	1	C	1	0	791	0	Ⴁ	cut_l_stereo_44KHz.wav
1	147	3	4	2	I	1	0	1364	1	Ⴃ	cut_h_stereo_44KHz.wav
1	148	4	3	2	I	1	0	758	1	Ⴊ	cut_w_stereo_44KHz.wav
1	149	3	3	2	I	1	0	857	1	Ⴃ	cut_w_stereo_44KHz.wav
1	150	1	2	0	C	2	0	1290	0	Ⴁ	cut_g_stereo_44KHz.wav
1	151	4	4	2	I	1	0	1543	1	Ⴊ	cut_h_stereo_44KHz.wav
1	152	2	2	1	C	2	1	1366	1	Ⴟ	cut_g_stereo_44KHz.wav
1	153	3	4	2	I	1	0	920	0	Ⴃ	cut_h_stereo_44KHz.wav
1	154	2	2	1	C	2	1	1067	1	Ⴟ	cut_g_stereo_44KHz.wav
1	155	4	3	2	I	1	0	883	0	Ⴊ	cut_w_stereo_44KHz.wav
1	156	1	1	1	C	2	1	1712	1	Ⴁ	cut_l_stereo_44KHz.wav
1	157	3	3	2	I	1	0	1019	1	Ⴃ	cut_w_stereo_44KHz.wav
1	158	2	1	0	C	1	1	956	1	Ⴟ	cut_l_stereo_44KHz.wav
1	159	1	2	0	C	2	0	886	0	Ⴁ	cut_g_stereo_44KHz.wav
1	160	4	4	2	I	1	0	1436	0	Ⴊ	cut_h_stereo_44KHz.wav
1	161	2	2	1	C	0	0	0	0	Ⴟ	cut_g_stereo_44KHz.wav
1	162	4	3	2	I	1	0	723	1	Ⴊ	cut_w_stereo_44KHz.wav
1	163	3	3	2	I	1	0	708	1	Ⴃ	cut_w_stereo_44KHz.wav
1	164	1	2	0	C	1	1	507	1	Ⴁ	cut_g_stereo_44KHz.wav
1	165	2	1	0	C	2	0	512	0	Ⴟ	cut_l_stereo_44KHz.wav
1	166	1	1	1	C	1	0	863	0	Ⴁ	cut_l_stereo_44KHz.wav
1	167	3	4	2	I	1	0	999	1	Ⴃ	cut_h_stereo_44KHz.wav
1	168	4	4	2	I	1	0	1680	1	Ⴊ	cut_h_stereo_44KHz.wav
1	169	1	2	0	C	1	1	1468	1	Ⴁ	cut_g_stereo_44KHz.wav
1	170	2	1	0	C	1	1	1112	1	Ⴟ	cut_l_stereo_44KHz.wav
1	171	3	3	2	I	1	0	734	1	Ⴃ	cut_w_stereo_44KHz.wav
1	172	4	3	2	I	1	0	1730	0	Ⴊ	cut_w_stereo_44KHz.wav
1	173	1	1	1	C	2	1	1557	1	Ⴁ	cut_l_stereo_44KHz.wav
1	174	2	2	1	C	2	1	1099	1	Ⴟ	cut_g_stereo_44KHz.wav
1	175	4	4	2	I	1	0	1925	1	Ⴊ	cut_h_stereo_44KHz.wav
1	176	3	4	2	I	1	0	1143	1	Ⴃ	cut_h_stereo_44KHz.wav
1	177	1	1	1	C	0	0	0	0	Ⴁ	cut_l_stereo_44KHz.wav
1	178	2	1	0	C	2	0	1041	0	Ⴟ	cut_l_stereo_44KHz.wav
1	179	4	3	2	I	2	0	1544	1	Ⴊ	cut_w_stereo_44KHz.wav
1	180	3	4	2	I	1	0	791	1	Ⴃ	cut_h_stereo_44KHz.wav
1	181	2	2	1	C	2	1	1356	1	Ⴟ	cut_g_stereo_44KHz.wav
1	182	4	4	2	I	1	0	1004	1	Ⴊ	cut_h_stereo_44KHz.wav
1	183	3	3	2	I	1	0	1014	1	Ⴃ	cut_w_stereo_44KHz.wav
1	184	1	2	0	C	1	1	978	1	Ⴁ	cut_g_stereo_44KHz.wav
1	185	4	4	2	I	1	0	1059	1	Ⴊ	cut_h_stereo_44KHz.wav
1	186	2	1	0	C	1	1	992	1	Ⴟ	cut_l_stereo_44KHz.wav
1	187	1	2	0	C	1	1	1316	1	Ⴁ	cut_g_stereo_44KHz.wav
1	188	3	3	2	I	1	0	946	1	Ⴃ	cut_w_stereo_44KHz.wav
1	189	4	3	2	I	1	0	877	1	Ⴊ	cut_w_stereo_44KHz.wav
1	190	2	2	1	C	1	0	602	0	Ⴟ	cut_g_stereo_44KHz.wav
1	191	3	4	2	I	1	0	551	1	Ⴃ	cut_h_stereo_44KHz.wav
1	192	1	1	1	C	2	1	1930	1	Ⴁ	cut_l_stereo_44KHz.wav
1	193	2	1	0	C	1	1	368	1	Ⴟ	cut_l_stereo_44KHz.wav
1	194	4	3	2	I	1	0	1143	0	Ⴊ	cut_w_stereo_44KHz.wav
1	195	3	3	2	I	1	0	780	1	Ⴃ	cut_w_stereo_44KHz.wav
1	196	1	2	0	C	2	0	937	0	Ⴁ	cut_g_stereo_44KHz.wav
1	197	2	2	1	C	2	1	1031	1	Ⴟ	cut_g_stereo_44KHz.wav
1	198	4	4	2	I	1	0	895	0	Ⴊ	cut_h_stereo_44KHz.wav
1	199	1	1	1	C	2	1	1901	1	Ⴁ	cut_l_stereo_44KHz.wav
1	200	3	4	2	I	1	0	899	1	Ⴃ	cut_h_stereo_44KHz.wav
2	1	3	4	2	I	2	0	1278	0	Ⴉ	cut_n_stereo_44KHz.wav
2	2	1	1	1	C	1	0	376	0	Ⴏ	cut_oei_stereo_44KHz.wav
2	3	2	2	1	C	1	0	837	0	Ⴐ	cut_s_stereo_44KHz.wav
2	4	4	3	2	I	1	0	313	1	Ⴌ	cut_f_stereo_44KHz.wav
2	5	2	1	0	C	1	1	616	1	Ⴐ	cut_oei_stereo_44KHz.wav
2	6	3	3	2	I	1	0	1157	1	Ⴉ	cut_f_stereo_44KHz.wav
2	7	4	4	2	I	1	0	920	1	Ⴌ	cut_n_stereo_44KHz.wav
2	8	1	2	0	C	1	1	579	1	Ⴏ	cut_s_stereo_44KHz.wav
2	9	4	4	2	I	1	0	411	1	Ⴌ	cut_n_stereo_44KHz.wav
2	10	2	2	1	C	2	1	319	1	Ⴐ	cut_s_stereo_44KHz.wav
2	11	3	3	2	I	1	0	500	1	Ⴉ	cut_f_stereo_44KHz.wav
2	12	1	1	1	C	1	0	363	0	Ⴏ	cut_oei_stereo_44KHz.wav
2	13	3	4	2	I	2	0	836	1	Ⴉ	cut_n_stereo_44KHz.wav
2	14	1	2	0	C	1	1	1322	1	Ⴏ	cut_s_stereo_44KHz.wav
2	15	4	3	2	I	1	0	647	1	Ⴌ	cut_f_stereo_44KHz.wav
2	16	2	1	0	C	1	1	577	1	Ⴐ	cut_oei_stereo_44KHz.wav
2	17	1	1	1	C	0	0	0	0	Ⴏ	cut_oei_stereo_44KHz.wav
2	18	4	3	2	I	1	0	739	0	Ⴌ	cut_f_stereo_44KHz.wav
2	19	2	2	1	C	2	1	355	1	Ⴐ	cut_s_stereo_44KHz.wav
2	20	3	3	2	I	1	0	447	1	Ⴉ	cut_f_stereo_44KHz.wav
2	21	1	2	0	C	1	1	182	1	Ⴏ	cut_s_stereo_44KHz.wav
2	22	4	4	2	I	2	0	219	0	Ⴌ	cut_n_stereo_44KHz.wav
2	23	2	1	0	C	1	1	360	1	Ⴐ	cut_oei_stereo_44KHz.wav
2	24	3	4	2	I	1	0	834	1	Ⴉ	cut_n_stereo_44KHz.wav
2	25	2	1	0	C	1	1	871	1	Ⴐ	cut_oei_stereo_44KHz.wav
2	26	3	3	2	I	1	0	634	1	Ⴉ	cut_f_stereo_44KHz.wav
2	27	1	2	0	C	2	0	442	0	Ⴏ	cut_s_stereo_44KHz.wav
2	28	4	4	2	I	1	0	821	1	Ⴌ	cut_n_stereo_44KHz.wav
2	29	2	2	1	C	1	0	645	0	Ⴐ	cut_s_stereo_44KHz.wav
2	30	3	4	2	I	1	0	1197	1	Ⴉ	cut_n_stereo_44KHz.wav
2	31	1	1	1	C	2	1	877	1	Ⴏ	cut_oei_stereo_44KHz.wav
2	32	4	3	2	I	1	0	537	0	Ⴌ	cut_f_stereo_44KHz.wav
2	33	1	2	0	C	1	1	1035	1	Ⴏ	cut_s_stereo_44KHz.wav
2	34	4	3	2	I	1	0	1088	0	Ⴌ	cut_f_stereo_44KHz.wav
2	35	3	3	2	I	2	0	803	1	Ⴉ	cut_f_stereo_44KHz.wav
2	36	2	2	1	C	2	1	1837	1	Ⴐ	cut_s_stereo_44KHz.wav
2	37	1	1	1	C	1	0	717	0	Ⴏ	cut_oei_stereo_44KHz.wav
2	38	2	1	0	C	2	0	450	0	Ⴐ	cut_oei_stereo_44KHz.wav
2	39	4	4	2	I	1	0	1052	1	Ⴌ	cut_n_stereo_44KHz.wav
2	40	3	4	2	I	0	0	0	0	Ⴉ	cut_n_stereo_44KHz.wav
2	41	2	2	1	C	1	0	547	0	Ⴐ	cut_s_stereo_44KHz.wav
2	42	4	4	2	I	1	0	752	1	Ⴌ	cut_n_stereo_44KHz.wav
2	43	1	2	0	C	1	1	937	1	Ⴏ	cut_s_stereo_44KHz.wav
2	44	3	3	2	I	1	0	927	1	Ⴉ	cut_f_stereo_44KHz.wav
2	45	4	3	2	I	1	0	654	1	Ⴌ	cut_f_stereo_44KHz.wav
2	46	3	4	2	I	1	0	932	1	Ⴉ	cut_n_stereo_44KHz.wav
2	47	2	1	0	C	1	1	492	1	Ⴐ	cut_oei_stereo_44KHz.wav
2	48	1	1	1	C	2	1	430	1	Ⴏ	cut_oei_stereo_44KHz.wav
2	49	3	4	2	I	1	0	466	1	Ⴉ	cut_n_stereo_44KHz.wav
2	50	1	1	1	C	2	1	836	1	Ⴏ	cut_oei_stereo_44KHz.wav
2	51	4	3	2	I	1	0	683	1	Ⴌ	cut_f_stereo_44KHz.wav
2	52	2	2	1	C	1	0	732	0	Ⴐ	cut_s_stereo_44KHz.wav
2	53	1	2	0	C	2	0	772	0	Ⴏ	cut_s_stereo_44KHz.wav
2	54	4	4	2	I	1	0	766	1	Ⴌ	cut_n_stereo_44KHz.wav
2	55	2	1	0	C	1	1	856	1	Ⴐ	cut_oei_stereo_44KHz.wav
2	56	3	3	2	I	1	0	679	1	Ⴉ	cut_f_stereo_44KHz.wav
2	57	1	2	0	C	1	1	695	1	Ⴏ	cut_s_stereo_44KHz.wav
2	58	4	4	2	I	1	0	572	1	Ⴌ	cut_n_stereo_44KHz.wav
2	59	2	2	1	C	1	0	863	0	Ⴐ	cut_s_stereo_44KHz.wav
2	60	3	4	2	I	0	0	0	0	Ⴉ	cut_n_stereo_44KHz.wav
2	61	4	3	2	I	1	0	1205	1	Ⴌ	cut_f_stereo_44KHz.wav
2	62	1	1	1	C	1	0	737	0	Ⴏ	cut_oei_stereo_44KHz.wav
2	63	3	3	2	I	1	0	1107	1	Ⴉ	cut_f_stereo_44KHz.wav
2	64	2	1	0	C	1	1	871	1	Ⴐ	cut_oei_stereo_44KHz.wav
2	65	1	1	1	C	1	0	529	0	Ⴏ	cut_oei_stereo_44KHz.wav
2	66	3	4	2	I	2	0	597	1	Ⴉ	cut_n_stereo_44KHz.wav
2	67	4	4	2	I	1	0	605	1	Ⴌ	cut_n_stereo_44KHz.wav
2	68	2	1	0	C	1	1	541	1	Ⴐ	cut_oei_stereo_44KHz.wav
2	69	3	3	2	I	1	0	630	1	Ⴉ	cut_f_stereo_44KHz.wav
2	70	2	2	1	C	1	0	1374	0	Ⴐ	cut_s_stereo_44KHz.wav
2	71	4	3	2	I	1	0	310	0	Ⴌ	cut_f_stereo_44KHz.wav
2	72	1	2	0	C	2	0	1291	0	Ⴏ	cut_s_stereo_44KHz.wav
2	73	4	3	2	I	1	0	754	1	Ⴌ	cut_f_stereo_44KHz.wav
2	74	1	1	1	C	1	0	941	0	Ⴏ	cut_oei_stereo_44KHz.wav
2	75	2	1	0	C	1	1	1043	1	Ⴐ	cut_oei_stereo_44KHz.wav
2	76	3	3	2	I	1	0	1360	1	Ⴉ	cut_f_stereo_44KHz.wav
2	77	1	2	0	C	2	0	1964	0	Ⴏ	cut_s_stereo_44KHz.wav
2	78	2	2	1	C	1	0	803	0	Ⴐ	cut_s_stereo_44KHz.wav
2	79	3	4	2	I	1	0	1544	1	Ⴉ	cut_n_stereo_44KHz.wav
2	80	4	4	2	I	1	0	858	1	Ⴌ	cut_n_stereo_44KHz.wav
2	81	3	3	2	I	1	0	782	1	Ⴉ	cut_f_stereo_44KHz.wav
2	82	2	2	1	C	1	0	1297	0	Ⴐ	cut_s_stereo_44KHz.wav
2	83	4	3	2	I	2	0	1197	1	Ⴌ	cut_f_stereo_44KHz.wav
2	84	1	2	0	C	2	0	1607	0	Ⴏ	cut_s_stereo_44KHz.wav
2	85	4	4	2	I	1	0	795	1	Ⴌ	cut_n_stereo_44KHz.wav
2	86	3	4	2	I	1	0	1332	1	Ⴉ	cut_n_stereo_44KHz.wav
2	87	1	1	1	C	2	1	1583	1	Ⴏ	cut_oei_stereo_44KHz.wav
2	88	2	1	0	C	1	1	1546	1	Ⴐ	cut_oei_stereo_44KHz.wav
2	89	4	4	2	I	1	0	1514	1	Ⴌ	cut_n_stereo_44KHz.wav
2	90	2	2	1	C	1	0	1463	0	Ⴐ	cut_s_stereo_44KHz.wav
2	91	1	1	1	C	1	0	552	0	Ⴏ	cut_oei_stereo_44KHz.wav
2	92	3	4	2	I	1	0	702	1	Ⴉ	cut_n_stereo_44KHz.wav
2	93	1	2	0	C	1	1	852	1	Ⴏ	cut_s_stereo_44KHz.wav
2	94	3	3	2	I	2	0	1787	1	Ⴉ	cut_f_stereo_44KHz.wav
2	95	4	3	2	I	1	0	860	1	Ⴌ	cut_f_stereo_44KHz.wav
2	96	2	1	0	C	1	1	1348	1	Ⴐ	cut_oei_stereo_44KHz.wav
2	97	3	4	2	I	1	0	844	1	Ⴉ	cut_n_stereo_44KHz.wav
2	98	4	3	2	I	1	0	466	1	Ⴌ	cut_f_stereo_44KHz.wav
2	99	1	2	0	C	1	1	623	1	Ⴏ	cut_s_stereo_44KHz.wav
2	100	2	2	1	C	2	1	1594	1	Ⴐ	cut_s_stereo_44KHz.wav
2	101	3	3	2	I	1	0	1025	0	Ⴉ	cut_f_stereo_44KHz.wav
2	102	4	4	2	I	1	0	689	1	Ⴌ	cut_n_stereo_44KHz.wav
2	103	2	1	0	C	2	0	1375	0	Ⴐ	cut_oei_stereo_44KHz.wav
2	104	1	1	1	C	1	0	1065	0	Ⴏ	cut_oei_stereo_44KHz.wav
2	105	2	2	1	C	2	1	1466	1	Ⴐ	cut_s_stereo_44KHz.wav
2	106	1	1	1	C	1	0	1091	0	Ⴏ	cut_oei_stereo_44KHz.wav
2	107	4	4	2	I	1	0	1170	1	Ⴌ	cut_n_stereo_44KHz.wav
2	108	3	3	2	I	1	0	1571	0	Ⴉ	cut_f_stereo_44KHz.wav
2	109	1	2	0	C	2	0	1927	0	Ⴏ	cut_s_stereo_44KHz.wav
2	110	4	3	2	I	2	0	1072	1	Ⴌ	cut_f_stereo_44KHz.wav
2	111	2	1	0	C	1	1	889	1	Ⴐ	cut_oei_stereo_44KHz.wav
2	112	3	4	2	I	1	0	1275	0	Ⴉ	cut_n_stereo_44KHz.wav
2	113	2	1	0	C	1	1	1585	1	Ⴐ	cut_oei_stereo_44KHz.wav
2	114	4	4	2	I	1	0	1218	0	Ⴌ	cut_n_stereo_44KHz.wav
2	115	3	3	2	I	1	0	1502	1	Ⴉ	cut_f_stereo_44KHz.wav
2	116	1	1	1	C	1	0	1626	0	Ⴏ	cut_oei_stereo_44KHz.wav
2	117	3	4	2	I	1	0	1038	1	Ⴉ	cut_n_stereo_44KHz.wav
2	118	4	3	2	I	1	0	542	1	Ⴌ	cut_f_stereo_44KHz.wav
2	119	2	2	1	C	2	1	974	1	Ⴐ	cut_s_stereo_44KHz.wav
2	120	1	2	0	C	1	1	787	1	Ⴏ	cut_s_stereo_44KHz.wav
2	121	4	4	2	I	1	0	760	1	Ⴌ	cut_n_stereo_44KHz.wav
2	122	2	2	1	C	1	0	1487	0	Ⴐ	cut_s_stereo_44KHz.wav
2	123	1	2	0	C	2	0	825	0	Ⴏ	cut_s_stereo_44KHz.wav
2	124	3	4	2	I	1	0	884	1	Ⴉ	cut_n_stereo_44KHz.wav
2	125	1	1	1	C	2	1	1189	1	Ⴏ	cut_oei_stereo_44KHz.wav
2	126	2	1	0	C	1	1	442	1	Ⴐ	cut_oei_stereo_44KHz.wav
2	127	3	3	2	I	1	0	929	0	Ⴉ	cut_f_stereo_44KHz.wav
2	128	4	3	2	I	1	0	986	1	Ⴌ	cut_f_stereo_44KHz.wav
2	129	2	1	0	C	1	1	1045	1	Ⴐ	cut_oei_stereo_44KHz.wav
2	130	1	2	0	C	2	0	1513	0	Ⴏ	cut_s_stereo_44KHz.wav
2	131	4	4	2	I	1	0	643	1	Ⴌ	cut_n_stereo_44KHz.wav
2	132	3	4	2	I	1	0	865	1	Ⴉ	cut_n_stereo_44KHz.wav
2	133	2	2	1	C	1	0	751	0	Ⴐ	cut_s_stereo_44KHz.wav
2	134	1	1	1	C	1	0	400	0	Ⴏ	cut_oei_stereo_44KHz.wav
2	135	3	3	2	I	2	0	1154	1	Ⴉ	cut_f_stereo_44KHz.wav
2	136	4	3	2	I	1	0	527	1	Ⴌ	cut_f_stereo_44KHz.wav
2	137	2	2	1	C	2	1	1366	1	Ⴐ	cut_s_stereo_44KHz.wav
2	138	3	4	2	I	1	0	1141	1	Ⴉ	cut_n_stereo_44KHz.wav
2	139	4	4	2	I	1	0	856	1	Ⴌ	cut_n_stereo_44KHz.wav
2	140	1	2	0	C	2	0	1205	0	Ⴏ	cut_s_stereo_44KHz.wav
2	141	2	1	0	C	1	1	1038	1	Ⴐ	cut_oei_stereo_44KHz.wav
2	142	4	3	2	I	1	0	728	1	Ⴌ	cut_f_stereo_44KHz.wav
2	143	1	1	1	C	2	1	1544	1	Ⴏ	cut_oei_stereo_44KHz.wav
2	144	3	3	2	I	2	0	980	0	Ⴉ	cut_f_stereo_44KHz.wav
2	145	2	2	1	C	1	0	861	0	Ⴐ	cut_s_stereo_44KHz.wav
2	146	4	3	2	I	1	0	1114	1	Ⴌ	cut_f_stereo_44KHz.wav
2	147	3	4	2	I	1	0	1506	0	Ⴉ	cut_n_stereo_44KHz.wav
2	148	1	1	1	C	2	1	629	1	Ⴏ	cut_oei_stereo_44KHz.wav
2	149	4	4	2	I	1	0	1193	1	Ⴌ	cut_n_stereo_44KHz.wav
2	150	1	2	0	C	2	0	1183	0	Ⴏ	cut_s_stereo_44KHz.wav
2	151	2	1	0	C	1	1	1175	1	Ⴐ	cut_oei_stereo_44KHz.wav
2	152	3	3	2	I	1	0	1683	0	Ⴉ	cut_f_stereo_44KHz.wav
2	153	1	2	0	C	0	0	0	0	Ⴏ	cut_s_stereo_44KHz.wav
2	154	2	2	1	C	2	1	1152	1	Ⴐ	cut_s_stereo_44KHz.wav
2	155	3	4	2	I	1	0	924	1	Ⴉ	cut_n_stereo_44KHz.wav
2	156	4	4	2	I	1	0	789	1	Ⴌ	cut_n_stereo_44KHz.wav
2	157	1	1	1	C	2	1	1206	1	Ⴏ	cut_oei_stereo_44KHz.wav
2	158	4	3	2	I	1	0	1372	1	Ⴌ	cut_f_stereo_44KHz.wav
2	159	2	1	0	C	2	0	799	0	Ⴐ	cut_oei_stereo_44KHz.wav
2	160	3	3	2	I	1	0	1369	1	Ⴉ	cut_f_stereo_44KHz.wav
2	161	1	2	0	C	2	0	1320	0	Ⴏ	cut_s_stereo_44KHz.wav
2	162	4	3	2	I	1	0	906	1	Ⴌ	cut_f_stereo_44KHz.wav
2	163	2	1	0	C	2	0	824	0	Ⴐ	cut_oei_stereo_44KHz.wav
2	164	3	3	2	I	1	0	720	1	Ⴉ	cut_f_stereo_44KHz.wav
2	165	2	2	1	C	1	0	1031	0	Ⴐ	cut_s_stereo_44KHz.wav
2	166	4	4	2	I	2	0	1445	0	Ⴌ	cut_n_stereo_44KHz.wav
2	167	1	1	1	C	1	0	472	0	Ⴏ	cut_oei_stereo_44KHz.wav
2	168	3	4	2	I	1	0	1204	1	Ⴉ	cut_n_stereo_44KHz.wav
2	169	1	2	0	C	2	0	1774	0	Ⴏ	cut_s_stereo_44KHz.wav
2	170	2	2	1	C	1	0	1447	0	Ⴐ	cut_s_stereo_44KHz.wav
2	171	4	4	2	I	1	0	1814	1	Ⴌ	cut_n_stereo_44KHz.wav
2	172	3	4	2	I	1	0	1008	0	Ⴉ	cut_n_stereo_44KHz.wav
2	173	4	3	2	I	2	0	1257	0	Ⴌ	cut_f_stereo_44KHz.wav
2	174	1	1	1	C	1	0	303	0	Ⴏ	cut_oei_stereo_44KHz.wav
2	175	3	3	2	I	1	0	961	0	Ⴉ	cut_f_stereo_44KHz.wav
2	176	2	1	0	C	1	1	854	1	Ⴐ	cut_oei_stereo_44KHz.wav
2	177	4	4	2	I	1	0	767	0	Ⴌ	cut_n_stereo_44KHz.wav
2	178	3	4	2	I	1	0	976	1	Ⴉ	cut_n_stereo_44KHz.wav
2	179	1	1	1	C	1	0	1053	0	Ⴏ	cut_oei_stereo_44KHz.wav
2	180	2	1	0	C	2	0	1084	0	Ⴐ	cut_oei_stereo_44KHz.wav
2	181	1	2	0	C	1	1	535	1	Ⴏ	cut_s_stereo_44KHz.wav
2	182	3	3	2	I	1	0	1097	1	Ⴉ	cut_f_stereo_44KHz.wav
2	183	4	3	2	I	1	0	1082	1	Ⴌ	cut_f_stereo_44KHz.wav
2	184	2	2	1	C	1	0	993	0	Ⴐ	cut_s_stereo_44KHz.wav
2	185	4	4	2	I	1	0	1515	0	Ⴌ	cut_n_stereo_44KHz.wav
2	186	3	3	2	I	1	0	1359	1	Ⴉ	cut_f_stereo_44KHz.wav
2	187	1	2	0	C	2	0	1187	0	Ⴏ	cut_s_stereo_44KHz.wav
2	188	2	2	1	C	1	0	1006	0	Ⴐ	cut_s_stereo_44KHz.wav
2	189	3	4	2	I	2	0	1112	1	Ⴉ	cut_n_stereo_44KHz.wav
2	190	4	3	2	I	1	0	629	1	Ⴌ	cut_f_stereo_44KHz.wav
2	191	1	1	1	C	2	1	1173	1	Ⴏ	cut_oei_stereo_44KHz.wav
2	192	2	1	0	C	1	1	1260	1	Ⴐ	cut_oei_stereo_44KHz.wav
2	193	1	2	0	C	2	0	1424	0	Ⴏ	cut_s_stereo_44KHz.wav
2	194	2	2	1	C	2	1	936	1	Ⴐ	cut_s_stereo_44KHz.wav
2	195	3	3	2	I	1	0	900	1	Ⴉ	cut_f_stereo_44KHz.wav
2	196	4	4	2	I	1	0	1123	1	Ⴌ	cut_n_stereo_44KHz.wav
2	197	2	1	0	C	1	1	1862	1	Ⴐ	cut_oei_stereo_44KHz.wav
2	198	4	3	2	I	2	0	1346	1	Ⴌ	cut_f_stereo_44KHz.wav
2	199	1	1	1	C	2	1	1644	1	Ⴏ	cut_oei_stereo_44KHz.wav
2	200	3	4	2	I	1	0	1279	1	Ⴉ	cut_n_stereo_44KHz.wav
3	1	4	3	2	I	2	0	1086	1	Ⴖ	cut_o_stereo_44KHz.wav
3	2	3	4	2	I	1	0	488	1	Ⴒ	cut_u_stereo_44KHz.wav
3	3	1	2	0	C	1	1	1378	1	Ⴔ	cut_k_stereo_44KHz.wav
3	4	2	2	1	C	2	1	771	1	Ⴕ	cut_k_stereo_44KHz.wav
3	5	4	4	2	I	1	0	570	1	Ⴖ	cut_u_stereo_44KHz.wav
3	6	3	3	2	I	2	0	1673	1	Ⴒ	cut_o_stereo_44KHz.wav
3	7	2	1	0	C	2	0	1265	0	Ⴕ	cut_a_stereo_44KHz.wav
3	8	1	1	1	C	1	0	1458	0	Ⴔ	cut_a_stereo_44KHz.wav
3	9	2	1	0	C	2	0	991	0	Ⴕ	cut_a_stereo_44KHz.wav
3	10	1	1	1	C	2	1	848	1	Ⴔ	cut_a_stereo_44KHz.wav
3	11	3	4	2	I	1	0	950	1	Ⴒ	cut_u_stereo_44KHz.wav
3	12	4	3	2	I	1	0	975	1	Ⴖ	cut_o_stereo_44KHz.wav
3	13	1	2	0	C	1	1	1255	1	Ⴔ	cut_k_stereo_44KHz.wav
3	14	2	2	1	C	2	1	1496	1	Ⴕ	cut_k_stereo_44KHz.wav
3	15	4	4	2	I	1	0	1091	1	Ⴖ	cut_u_stereo_44KHz.wav
3	16	3	3	2	I	1	0	798	1	Ⴒ	cut_o_stereo_44KHz.wav
3	17	2	1	0	C	1	1	1144	1	Ⴕ	cut_a_stereo_44KHz.wav
3	18	3	4	2	I	2	0	1798	1	Ⴒ	cut_u_stereo_44KHz.wav
3	19	4	3	2	I	0	0	0	0	Ⴖ	cut_o_stereo_44KHz.wav
3	20	1	1	1	C	1	0	1563	0	Ⴔ	cut_a_stereo_44KHz.wav
3	21	2	2	1	C	2	1	1258	1	Ⴕ	cut_k_stereo_44KHz.wav
3	22	4	4	2	I	1	0	1188	1	Ⴖ	cut_u_stereo_44KHz.wav
3	23	1	2	0	C	1	1	1116	1	Ⴔ	cut_k_stereo_44KHz.wav
3	24	3	3	2	I	1	0	792	1	Ⴒ	cut_o_stereo_44KHz.wav
3	25	1	1	1	C	1	0	804	0	Ⴔ	cut_a_stereo_44KHz.wav
3	26	2	2	1	C	1	0	1354	0	Ⴕ	cut_k_stereo_44KHz.wav
3	27	4	4	2	I	1	0	1011	1	Ⴖ	cut_u_stereo_44KHz.wav
3	28	3	3	2	I	1	0	1513	1	Ⴒ	cut_o_stereo_44KHz.wav
3	29	1	2	0	C	1	1	871	1	Ⴔ	cut_k_stereo_44KHz.wav
3	30	3	4	2	I	2	0	1071	1	Ⴒ	cut_u_stereo_44KHz.wav
3	31	4	3	2	I	2	0	1014	1	Ⴖ	cut_o_stereo_44KHz.wav
3	32	2	1	0	C	1	1	965	1	Ⴕ	cut_a_stereo_44KHz.wav
3	33	4	3	2	I	2	0	1299	0	Ⴖ	cut_o_stereo_44KHz.wav
3	34	1	2	0	C	1	1	806	1	Ⴔ	cut_k_stereo_44KHz.wav
3	35	2	1	0	C	1	1	702	1	Ⴕ	cut_a_stereo_44KHz.wav
3	36	3	3	2	I	1	0	1587	1	Ⴒ	cut_o_stereo_44KHz.wav
3	37	2	2	1	C	1	0	1033	0	Ⴕ	cut_k_stereo_44KHz.wav
3	38	1	1	1	C	1	0	1434	0	Ⴔ	cut_a_stereo_44KHz.wav
3	39	3	4	2	I	1	0	1335	0	Ⴒ	cut_u_stereo_44KHz.wav
3	40	4	4	2	I	1	0	1053	1	Ⴖ	cut_u_stereo_44KHz.wav
3	41	3	4	2	I	2	0	1184	0	Ⴒ	cut_u_stereo_44KHz.wav
3	42	4	3	2	I	2	0	1360	1	Ⴖ	cut_o_stereo_44KHz.wav
3	43	2	2	1	C	2	1	1068	1	Ⴕ	cut_k_stereo_44KHz.wav
3	44	1	1	1	C	1	0	1242	0	Ⴔ	cut_a_stereo_44KHz.wav
3	45	2	1	0	C	1	1	1193	1	Ⴕ	cut_a_stereo_44KHz.wav
3	46	1	2	0	C	1	1	1045	1	Ⴔ	cut_k_stereo_44KHz.wav
3	47	4	4	2	I	1	0	917	0	Ⴖ	cut_u_stereo_44KHz.wav
3	48	3	3	2	I	1	0	1287	1	Ⴒ	cut_o_stereo_44KHz.wav
3	49	4	3	2	I	2	0	1431	1	Ⴖ	cut_o_stereo_44KHz.wav
3	50	3	3	2	I	1	0	808	1	Ⴒ	cut_o_stereo_44KHz.wav
3	51	2	2	1	C	2	1	1134	1	Ⴕ	cut_k_stereo_44KHz.wav
3	52	1	1	1	C	1	0	959	0	Ⴔ	cut_a_stereo_44KHz.wav
3	53	3	4	2	I	2	0	115	0	Ⴒ	cut_u_stereo_44KHz.wav
3	54	1	2	0	C	1	1	532	1	Ⴔ	cut_k_stereo_44KHz.wav
3	55	2	1	0	C	1	1	582	1	Ⴕ	cut_a_stereo_44KHz.wav
3	56	4	4	2	I	1	0	890	1	Ⴖ	cut_u_stereo_44KHz.wav
3	57	1	2	0	C	1	1	1295	1	Ⴔ	cut_k_stereo_44KHz.wav
3	58	2	2	1	C	2	1	1179	1	Ⴕ	cut_k_stereo_44KHz.wav
3	59	3	3	2	I	1	0	782	1	Ⴒ	cut_o_stereo_44KHz.wav
3	60	4	3	2	I	2	0	1575	0	Ⴖ	cut_o_stereo_44KHz.wav
3	61	2	1	0	C	1	1	696	1	Ⴕ	cut_a_stereo_44KHz.wav
3	62	3	4	2	I	1	0	970	1	Ⴒ	cut_u_stereo_44KHz.wav
3	63	4	4	2	I	2	0	900	1	Ⴖ	cut_u_stereo_44KHz.wav
3	64	1	1	1	C	1	0	393	0	Ⴔ	cut_a_stereo_44KHz.wav
3	65	2	2	1	C	1	0	406	0	Ⴕ	cut_k_stereo_44KHz.wav
3	66	1	2	0	C	1	1	975	1	Ⴔ	cut_k_stereo_44KHz.wav
3	67	4	4	2	I	1	0	317	0	Ⴖ	cut_u_stereo_44KHz.wav
3	68	3	4	2	I	2	0	1965	0	Ⴒ	cut_u_stereo_44KHz.wav
3	69	1	1	1	C	1	0	282	0	Ⴔ	cut_a_stereo_44KHz.wav
3	70	4	3	2	I	2	0	281	0	Ⴖ	cut_o_stereo_44KHz.wav
3	71	2	1	0	C	1	1	600	1	Ⴕ	cut_a_stereo_44KHz.wav
3	72	3	3	2	I	1	0	824	1	Ⴒ	cut_o_stereo_44KHz.wav
3	73	1	1	1	C	1	0	988	0	Ⴔ	cut_a_stereo_44KHz.wav
3	74	4	4	2	I	1	0	815	1	Ⴖ	cut_u_stereo_44KHz.wav
3	75	2	1	0	C	1	1	1557	1	Ⴕ	cut_a_stereo_44KHz.wav
3	76	3	3	2	I	1	0	720	1	Ⴒ	cut_o_stereo_44KHz.wav
3	77	2	2	1	C	1	0	844	0	Ⴕ	cut_k_stereo_44KHz.wav
3	78	4	3	2	I	2	0	866	1	Ⴖ	cut_o_stereo_44KHz.wav
3	79	1	2	0	C	1	1	867	1	Ⴔ	cut_k_stereo_44KHz.wav
3	80	3	4	2	I	1	0	472	1	Ⴒ	cut_u_stereo_44KHz.wav
3	81	4	4	2	I	2	0	444	0	Ⴖ	cut_u_stereo_44KHz.wav
3	82	1	1	1	C	1	0	356	0	Ⴔ	cut_a_stereo_44KHz.wav
3	83	3	4	2	I	1	0	331	1	Ⴒ	cut_u_stereo_44KHz.wav
3	84	2	1	0	C	1	1	792	1	Ⴕ	cut_a_stereo_44KHz.wav
3	85	4	3	2	I	1	0	793	1	Ⴖ	cut_o_stereo_44KHz.wav
3	86	3	3	2	I	1	0	944	1	Ⴒ	cut_o_stereo_44KHz.wav
3	87	2	2	1	C	1	0	721	0	Ⴕ	cut_k_stereo_44KHz.wav
3	88	1	2	0	C	1	1	692	1	Ⴔ	cut_k_stereo_44KHz.wav
3	89	4	3	2	I	2	0	713	0	Ⴖ	cut_o_stereo_44KHz.wav
3	90	2	2	1	C	1	0	507	0	Ⴕ	cut_k_stereo_44KHz.wav
3	91	1	1	1	C	1	0	1031	0	Ⴔ	cut_a_stereo_44KHz.wav
3	92	3	4	2	I	1	0	609	1	Ⴒ	cut_u_stereo_44KHz.wav
3	93	2	1	0	C	1	1	294	1	Ⴕ	cut_a_stereo_44KHz.wav
3	94	4	4	2	I	1	0	799	1	Ⴖ	cut_u_stereo_44KHz.wav
3	95	3	3	2	I	1	0	608	1	Ⴒ	cut_o_stereo_44KHz.wav
3	96	1	2	0	C	1	1	735	1	Ⴔ	cut_k_stereo_44KHz.wav
3	97	3	4	2	I	1	0	1364	1	Ⴒ	cut_u_stereo_44KHz.wav
3	98	1	1	1	C	1	0	658	0	Ⴔ	cut_a_stereo_44KHz.wav
3	99	4	4	2	I	1	0	841	1	Ⴖ	cut_u_stereo_44KHz.wav
3	100	2	2	1	C	2	1	1007	1	Ⴕ	cut_k_stereo_44KHz.wav
3	101	4	3	2	I	1	0	770	1	Ⴖ	cut_o_stereo_44KHz.wav
3	102	1	2	0	C	2	0	897	0	Ⴔ	cut_k_stereo_44KHz.wav
3	103	2	1	0	C	0	0	0	0	Ⴕ	cut_a_stereo_44KHz.wav
3	104	3	3	2	I	2	0	409	0	Ⴒ	cut_o_stereo_44KHz.wav
3	105	1	2	0	C	1	1	601	1	Ⴔ	cut_k_stereo_44KHz.wav
3	106	2	2	1	C	1	0	453	0	Ⴕ	cut_k_stereo_44KHz.wav
3	107	3	4	2	I	2	0	877	1	Ⴒ	cut_u_stereo_44KHz.wav
3	108	4	3	2	I	1	0	828	0	Ⴖ	cut_o_stereo_44KHz.wav
3	109	1	1	1	C	2	1	708	1	Ⴔ	cut_a_stereo_44KHz.wav
3	110	2	1	0	C	1	1	813	1	Ⴕ	cut_a_stereo_44KHz.wav
3	111	4	4	2	I	1	0	268	1	Ⴖ	cut_u_stereo_44KHz.wav
3	112	3	3	2	I	1	0	375	1	Ⴒ	cut_o_stereo_44KHz.wav
3	113	1	1	1	C	1	0	655	0	Ⴔ	cut_a_stereo_44KHz.wav
3	114	3	3	2	I	1	0	1186	1	Ⴒ	cut_o_stereo_44KHz.wav
3	115	4	4	2	I	1	0	791	1	Ⴖ	cut_u_stereo_44KHz.wav
3	116	2	2	1	C	1	0	428	0	Ⴕ	cut_k_stereo_44KHz.wav
3	117	1	2	0	C	2	0	446	0	Ⴔ	cut_k_stereo_44KHz.wav
3	118	3	4	2	I	1	0	1032	1	Ⴒ	cut_u_stereo_44KHz.wav
3	119	4	3	2	I	1	0	1081	1	Ⴖ	cut_o_stereo_44KHz.wav
3	120	2	1	0	C	1	1	383	1	Ⴕ	cut_a_stereo_44KHz.wav
3	121	3	4	2	I	1	0	763	0	Ⴒ	cut_u_stereo_44KHz.wav
3	122	4	3	2	I	1	0	669	1	Ⴖ	cut_o_stereo_44KHz.wav
3	123	1	2	0	C	1	1	1432	1	Ⴔ	cut_k_stereo_44KHz.wav
3	124	2	1	0	C	1	1	417	1	Ⴕ	cut_a_stereo_44KHz.wav
3	125	3	3	2	I	1	0	807	1	Ⴒ	cut_o_stereo_44KHz.wav
3	126	4	4	2	I	1	0	593	0	Ⴖ	cut_u_stereo_44KHz.wav
3	127	1	1	1	C	1	0	530	0	Ⴔ	cut_a_stereo_44KHz.wav
3	128	2	2	1	C	1	0	620	0	Ⴕ	cut_k_stereo_44KHz.wav
3	129	1	1	1	C	1	0	491	0	Ⴔ	cut_a_stereo_44KHz.wav
3	130	2	2	1	C	1	0	499	0	Ⴕ	cut_k_stereo_44KHz.wav
3	131	3	4	2	I	2	0	211	0	Ⴒ	cut_u_stereo_44KHz.wav
3	132	4	4	2	I	1	0	1065	1	Ⴖ	cut_u_stereo_44KHz.wav
3	133	2	1	0	C	1	1	367	1	Ⴕ	cut_a_stereo_44KHz.wav
3	134	3	3	2	I	1	0	802	1	Ⴒ	cut_o_stereo_44KHz.wav
3	135	4	3	2	I	1	0	837	1	Ⴖ	cut_o_stereo_44KHz.wav
3	136	1	2	0	C	1	1	797	1	Ⴔ	cut_k_stereo_44KHz.wav
3	137	4	3	2	I	1	0	653	1	Ⴖ	cut_o_stereo_44KHz.wav
3	138	2	2	1	C	2	1	979	1	Ⴕ	cut_k_stereo_44KHz.wav
3	139	3	4	2	I	1	0	811	1	Ⴒ	cut_u_stereo_44KHz.wav
3	140	1	1	1	C	1	0	773	0	Ⴔ	cut_a_stereo_44KHz.wav
3	141	4	4	2	I	1	0	461	1	Ⴖ	cut_u_stereo_44KHz.wav
3	142	2	1	0	C	1	1	1025	1	Ⴕ	cut_a_stereo_44KHz.wav
3	143	1	2	0	C	1	1	1074	1	Ⴔ	cut_k_stereo_44KHz.wav
3	144	3	3	2	I	1	0	483	0	Ⴒ	cut_o_stereo_44KHz.wav
3	145	2	1	0	C	1	1	848	1	Ⴕ	cut_a_stereo_44KHz.wav
3	146	4	3	2	I	1	0	948	1	Ⴖ	cut_o_stereo_44KHz.wav
3	147	1	1	1	C	1	0	566	0	Ⴔ	cut_a_stereo_44KHz.wav
3	148	3	4	2	I	1	0	464	1	Ⴒ	cut_u_stereo_44KHz.wav
3	149	4	4	2	I	1	0	778	1	Ⴖ	cut_u_stereo_44KHz.wav
3	150	2	2	1	C	1	0	888	0	Ⴕ	cut_k_stereo_44KHz.wav
3	151	3	3	2	I	1	0	452	1	Ⴒ	cut_o_stereo_44KHz.wav
3	152	1	2	0	C	1	1	1702	1	Ⴔ	cut_k_stereo_44KHz.wav
3	153	4	4	2	I	1	0	446	1	Ⴖ	cut_u_stereo_44KHz.wav
3	154	2	1	0	C	1	1	226	1	Ⴕ	cut_a_stereo_44KHz.wav
3	155	1	2	0	C	1	1	465	1	Ⴔ	cut_k_stereo_44KHz.wav
3	156	3	4	2	I	1	0	472	1	Ⴒ	cut_u_stereo_44KHz.wav
3	157	1	1	1	C	2	1	1536	1	Ⴔ	cut_a_stereo_44KHz.wav
3	158	2	2	1	C	1	0	647	0	Ⴕ	cut_k_stereo_44KHz.wav
3	159	3	3	2	I	1	0	659	1	Ⴒ	cut_o_stereo_44KHz.wav
3	160	4	3	2	I	1	0	498	1	Ⴖ	cut_o_stereo_44KHz.wav
3	161	2	2	1	C	1	0	714	0	Ⴕ	cut_k_stereo_44KHz.wav
3	162	3	4	2	I	1	0	858	1	Ⴒ	cut_u_stereo_44KHz.wav
3	163	1	1	1	C	1	0	798	0	Ⴔ	cut_a_stereo_44KHz.wav
3	164	4	3	2	I	0	0	0	0	Ⴖ	cut_o_stereo_44KHz.wav
3	165	2	1	0	C	1	1	911	1	Ⴕ	cut_a_stereo_44KHz.wav
3	166	3	3	2	I	1	0	1180	1	Ⴒ	cut_o_stereo_44KHz.wav
3	167	4	4	2	I	1	0	1015	1	Ⴖ	cut_u_stereo_44KHz.wav
3	168	1	2	0	C	1	1	818	1	Ⴔ	cut_k_stereo_44KHz.wav
3	169	2	1	0	C	1	1	602	1	Ⴕ	cut_a_stereo_44KHz.wav
3	170	4	4	2	I	1	0	1386	1	Ⴖ	cut_u_stereo_44KHz.wav
3	171	3	3	2	I	1	0	725	1	Ⴒ	cut_o_stereo_44KHz.wav
3	172	1	2	0	C	1	1	498	1	Ⴔ	cut_k_stereo_44KHz.wav
3	173	2	2	1	C	1	0	694	0	Ⴕ	cut_k_stereo_44KHz.wav
3	174	1	1	1	C	1	0	964	0	Ⴔ	cut_a_stereo_44KHz.wav
3	175	3	4	2	I	1	0	726	0	Ⴒ	cut_u_stereo_44KHz.wav
3	176	4	3	2	I	1	0	875	1	Ⴖ	cut_o_stereo_44KHz.wav
3	177	2	1	0	C	1	1	695	1	Ⴕ	cut_a_stereo_44KHz.wav
3	178	4	4	2	I	1	0	645	1	Ⴖ	cut_u_stereo_44KHz.wav
3	179	3	3	2	I	1	0	1296	1	Ⴒ	cut_o_stereo_44KHz.wav
3	180	1	2	0	C	1	1	654	1	Ⴔ	cut_k_stereo_44KHz.wav
3	181	2	2	1	C	1	0	651	0	Ⴕ	cut_k_stereo_44KHz.wav
3	182	1	1	1	C	1	0	503	0	Ⴔ	cut_a_stereo_44KHz.wav
3	183	4	3	2	I	1	0	841	0	Ⴖ	cut_o_stereo_44KHz.wav
3	184	3	4	2	I	1	0	468	1	Ⴒ	cut_u_stereo_44KHz.wav
3	185	1	2	0	C	1	1	444	1	Ⴔ	cut_k_stereo_44KHz.wav
3	186	3	4	2	I	1	0	162	0	Ⴒ	cut_u_stereo_44KHz.wav
3	187	4	3	2	I	0	0	0	0	Ⴖ	cut_o_stereo_44KHz.wav
3	188	2	2	1	C	1	0	482	0	Ⴕ	cut_k_stereo_44KHz.wav
3	189	1	1	1	C	2	1	1343	1	Ⴔ	cut_a_stereo_44KHz.wav
3	190	4	4	2	I	1	0	406	1	Ⴖ	cut_u_stereo_44KHz.wav
3	191	3	3	2	I	1	0	1076	1	Ⴒ	cut_o_stereo_44KHz.wav
3	192	2	1	0	C	1	1	485	1	Ⴕ	cut_a_stereo_44KHz.wav
3	193	1	2	0	C	1	1	732	1	Ⴔ	cut_k_stereo_44KHz.wav
3	194	4	3	2	I	1	0	651	1	Ⴖ	cut_o_stereo_44KHz.wav
3	195	2	1	0	C	1	1	899	1	Ⴕ	cut_a_stereo_44KHz.wav
3	196	3	4	2	I	1	0	798	1	Ⴒ	cut_u_stereo_44KHz.wav
3	197	1	1	1	C	1	0	954	0	Ⴔ	cut_a_stereo_44KHz.wav
3	198	2	2	1	C	0	0	0	0	Ⴕ	cut_k_stereo_44KHz.wav
3	199	4	4	2	I	1	0	535	1	Ⴖ	cut_u_stereo_44KHz.wav
3	200	3	3	2	I	1	0	721	1	Ⴒ	cut_o_stereo_44KHz.wav
4	1	2	2	1	C	1	0	1082	0	Ⴜ	cut_j_stereo_44KHz.wav
4	2	1	2	0	C	1	1	678	1	Ⴂ	cut_j_stereo_44KHz.wav
4	3	4	4	2	I	1	0	742	1	Ⴇ	cut_r_stereo_44KHz.wav
4	4	3	3	2	I	1	0	1068	0	Ⴡ	cut_ei_stereo_44KHz.wav
4	5	1	1	1	C	2	1	1502	1	Ⴂ	cut_ui_stereo_44KHz.wav
4	6	4	3	2	I	2	0	1072	1	Ⴇ	cut_ei_stereo_44KHz.wav
4	7	3	4	2	I	1	0	558	1	Ⴡ	cut_r_stereo_44KHz.wav
4	8	2	1	0	C	1	1	867	1	Ⴜ	cut_ui_stereo_44KHz.wav
4	9	3	4	2	I	1	0	624	1	Ⴡ	cut_r_stereo_44KHz.wav
4	10	1	2	0	C	1	1	528	1	Ⴂ	cut_j_stereo_44KHz.wav
4	11	4	3	2	I	2	0	902	0	Ⴇ	cut_ei_stereo_44KHz.wav
4	12	2	2	1	C	1	0	281	0	Ⴜ	cut_j_stereo_44KHz.wav
4	13	3	3	2	I	1	0	897	1	Ⴡ	cut_ei_stereo_44KHz.wav
4	14	1	1	1	C	1	0	904	0	Ⴂ	cut_ui_stereo_44KHz.wav
4	15	4	4	2	I	2	0	62	1	Ⴇ	cut_r_stereo_44KHz.wav
4	16	2	1	0	C	1	1	749	1	Ⴜ	cut_ui_stereo_44KHz.wav
4	17	3	4	2	I	1	0	466	1	Ⴡ	cut_r_stereo_44KHz.wav
4	18	1	2	0	C	1	1	390	1	Ⴂ	cut_j_stereo_44KHz.wav
4	19	2	1	0	C	1	1	1017	1	Ⴜ	cut_ui_stereo_44KHz.wav
4	20	4	3	2	I	1	0	916	1	Ⴇ	cut_ei_stereo_44KHz.wav
4	21	3	3	2	I	1	0	1030	0	Ⴡ	cut_ei_stereo_44KHz.wav
4	22	2	2	1	C	2	1	128	1	Ⴜ	cut_j_stereo_44KHz.wav
4	23	1	1	1	C	1	0	1101	0	Ⴂ	cut_ui_stereo_44KHz.wav
4	24	4	4	2	I	1	0	576	1	Ⴇ	cut_r_stereo_44KHz.wav
4	25	3	3	2	I	1	0	446	1	Ⴡ	cut_ei_stereo_44KHz.wav
4	26	1	1	1	C	2	1	1041	1	Ⴂ	cut_ui_stereo_44KHz.wav
4	27	4	4	2	I	1	0	721	1	Ⴇ	cut_r_stereo_44KHz.wav
4	28	2	1	0	C	1	1	744	1	Ⴜ	cut_ui_stereo_44KHz.wav
4	29	1	2	0	C	2	0	839	0	Ⴂ	cut_j_stereo_44KHz.wav
4	30	4	3	2	I	1	0	759	1	Ⴇ	cut_ei_stereo_44KHz.wav
4	31	3	4	2	I	1	0	1518	1	Ⴡ	cut_r_stereo_44KHz.wav
4	32	2	2	1	C	1	0	988	0	Ⴜ	cut_j_stereo_44KHz.wav
4	33	4	3	2	I	2	0	1044	1	Ⴇ	cut_ei_stereo_44KHz.wav
4	34	1	2	0	C	1	1	1610	1	Ⴂ	cut_j_stereo_44KHz.wav
4	35	2	1	0	C	1	1	340	1	Ⴜ	cut_ui_stereo_44KHz.wav
4	36	3	3	2	I	1	0	556	0	Ⴡ	cut_ei_stereo_44KHz.wav
4	37	4	4	2	I	1	0	1380	1	Ⴇ	cut_r_stereo_44KHz.wav
4	38	1	1	1	C	0	0	0	0	Ⴂ	cut_ui_stereo_44KHz.wav
4	39	3	4	2	I	1	0	284	1	Ⴡ	cut_r_stereo_44KHz.wav
4	40	2	2	1	C	1	0	341	0	Ⴜ	cut_j_stereo_44KHz.wav
4	41	4	3	2	I	1	0	328	1	Ⴇ	cut_ei_stereo_44KHz.wav
4	42	3	4	2	I	1	0	777	1	Ⴡ	cut_r_stereo_44KHz.wav
4	43	2	2	1	C	1	0	862	0	Ⴜ	cut_j_stereo_44KHz.wav
4	44	1	2	0	C	1	1	943	1	Ⴂ	cut_j_stereo_44KHz.wav
4	45	4	4	2	I	1	0	1266	1	Ⴇ	cut_r_stereo_44KHz.wav
4	46	3	3	2	I	1	0	1581	0	Ⴡ	cut_ei_stereo_44KHz.wav
4	47	2	1	0	C	1	1	1119	1	Ⴜ	cut_ui_stereo_44KHz.wav
4	48	1	1	1	C	1	0	1071	0	Ⴂ	cut_ui_stereo_44KHz.wav
4	49	4	4	2	I	1	0	1130	1	Ⴇ	cut_r_stereo_44KHz.wav
4	50	2	1	0	C	1	1	1231	1	Ⴜ	cut_ui_stereo_44KHz.wav
4	51	3	4	2	I	1	0	487	1	Ⴡ	cut_r_stereo_44KHz.wav
4	52	1	2	0	C	1	1	1049	1	Ⴂ	cut_j_stereo_44KHz.wav
4	53	3	3	2	I	2	0	1036	1	Ⴡ	cut_ei_stereo_44KHz.wav
4	54	1	1	1	C	1	0	1409	0	Ⴂ	cut_ui_stereo_44KHz.wav
4	55	4	3	2	I	2	0	809	0	Ⴇ	cut_ei_stereo_44KHz.wav
4	56	2	2	1	C	2	1	616	1	Ⴜ	cut_j_stereo_44KHz.wav
4	57	1	2	0	C	1	1	1282	1	Ⴂ	cut_j_stereo_44KHz.wav
4	58	4	3	2	I	1	0	748	1	Ⴇ	cut_ei_stereo_44KHz.wav
4	59	3	4	2	I	1	0	801	1	Ⴡ	cut_r_stereo_44KHz.wav
4	60	2	1	0	C	1	1	857	1	Ⴜ	cut_ui_stereo_44KHz.wav
4	61	1	1	1	C	2	1	1190	1	Ⴂ	cut_ui_stereo_44KHz.wav
4	62	3	3	2	I	1	0	1159	1	Ⴡ	cut_ei_stereo_44KHz.wav
4	63	4	4	2	I	0	0	0	0	Ⴇ	cut_r_stereo_44KHz.wav
4	64	2	2	1	C	1	0	811	0	Ⴜ	cut_j_stereo_44KHz.wav
4	65	1	2	0	C	1	1	1312	1	Ⴂ	cut_j_stereo_44KHz.wav
4	66	2	2	1	C	1	0	461	0	Ⴜ	cut_j_stereo_44KHz.wav
4	67	3	3	2	I	2	0	403	1	Ⴡ	cut_ei_stereo_44KHz.wav
4	68	4	4	2	I	1	0	818	1	Ⴇ	cut_r_stereo_44KHz.wav
4	69	2	1	0	C	1	1	1850	1	Ⴜ	cut_ui_stereo_44KHz.wav
4	70	1	1	1	C	1	0	633	0	Ⴂ	cut_ui_stereo_44KHz.wav
4	71	4	3	2	I	2	0	600	1	Ⴇ	cut_ei_stereo_44KHz.wav
4	72	3	4	2	I	1	0	547	1	Ⴡ	cut_r_stereo_44KHz.wav
4	73	2	2	1	C	1	0	542	0	Ⴜ	cut_j_stereo_44KHz.wav
4	74	1	2	0	C	2	0	827	0	Ⴂ	cut_j_stereo_44KHz.wav
4	75	3	4	2	I	1	0	619	1	Ⴡ	cut_r_stereo_44KHz.wav
4	76	4	4	2	I	1	0	1306	0	Ⴇ	cut_r_stereo_44KHz.wav
4	77	2	1	0	C	1	1	738	1	Ⴜ	cut_ui_stereo_44KHz.wav
4	78	4	3	2	I	1	0	890	1	Ⴇ	cut_ei_stereo_44KHz.wav
4	79	1	1	1	C	1	0	772	0	Ⴂ	cut_ui_stereo_44KHz.wav
4	80	3	3	2	I	1	0	553	1	Ⴡ	cut_ei_stereo_44KHz.wav
4	81	4	3	2	I	1	0	1103	1	Ⴇ	cut_ei_stereo_44KHz.wav
4	82	1	1	1	C	1	0	1162	0	Ⴂ	cut_ui_stereo_44KHz.wav
4	83	2	2	1	C	1	0	927	0	Ⴜ	cut_j_stereo_44KHz.wav
4	84	3	3	2	I	1	0	749	0	Ⴡ	cut_ei_stereo_44KHz.wav
4	85	1	2	0	C	1	1	1171	1	Ⴂ	cut_j_stereo_44KHz.wav
4	86	4	4	2	I	1	0	720	1	Ⴇ	cut_r_stereo_44KHz.wav
4	87	2	1	0	C	1	1	585	1	Ⴜ	cut_ui_stereo_44KHz.wav
4	88	3	4	2	I	1	0	624	1	Ⴡ	cut_r_stereo_44KHz.wav
4	89	4	3	2	I	1	0	807	1	Ⴇ	cut_ei_stereo_44KHz.wav
4	90	2	1	0	C	2	0	915	0	Ⴜ	cut_ui_stereo_44KHz.wav
4	91	1	2	0	C	2	0	414	0	Ⴂ	cut_j_stereo_44KHz.wav
4	92	3	3	2	I	2	0	768	1	Ⴡ	cut_ei_stereo_44KHz.wav
4	93	4	4	2	I	1	0	424	0	Ⴇ	cut_r_stereo_44KHz.wav
4	94	2	2	1	C	1	0	537	0	Ⴜ	cut_j_stereo_44KHz.wav
4	95	1	1	1	C	1	0	660	0	Ⴂ	cut_ui_stereo_44KHz.wav
4	96	3	4	2	I	1	0	1414	1	Ⴡ	cut_r_stereo_44KHz.wav
4	97	4	3	2	I	1	0	370	0	Ⴇ	cut_ei_stereo_44KHz.wav
4	98	1	1	1	C	1	0	707	0	Ⴂ	cut_ui_stereo_44KHz.wav
4	99	3	4	2	I	1	0	782	1	Ⴡ	cut_r_stereo_44KHz.wav
4	100	2	2	1	C	1	0	874	0	Ⴜ	cut_j_stereo_44KHz.wav
4	101	4	4	2	I	2	0	730	0	Ⴇ	cut_r_stereo_44KHz.wav
4	102	2	1	0	C	1	1	854	1	Ⴜ	cut_ui_stereo_44KHz.wav
4	103	1	2	0	C	1	1	1343	1	Ⴂ	cut_j_stereo_44KHz.wav
4	104	3	3	2	I	1	0	974	1	Ⴡ	cut_ei_stereo_44KHz.wav
4	105	1	2	0	C	1	1	882	1	Ⴂ	cut_j_stereo_44KHz.wav
4	106	3	4	2	I	1	0	924	1	Ⴡ	cut_r_stereo_44KHz.wav
4	107	4	3	2	I	0	0	0	0	Ⴇ	cut_ei_stereo_44KHz.wav
4	108	2	1	0	C	1	1	369	1	Ⴜ	cut_ui_stereo_44KHz.wav
4	109	4	4	2	I	1	0	655	0	Ⴇ	cut_r_stereo_44KHz.wav
4	110	2	2	1	C	2	1	378	1	Ⴜ	cut_j_stereo_44KHz.wav
4	111	1	1	1	C	1	0	813	0	Ⴂ	cut_ui_stereo_44KHz.wav
4	112	3	3	2	I	1	0	674	0	Ⴡ	cut_ei_stereo_44KHz.wav
4	113	1	1	1	C	1	0	610	0	Ⴂ	cut_ui_stereo_44KHz.wav
4	114	3	3	2	I	1	0	739	1	Ⴡ	cut_ei_stereo_44KHz.wav
4	115	2	1	0	C	1	1	736	1	Ⴜ	cut_ui_stereo_44KHz.wav
4	116	4	4	2	I	1	0	774	1	Ⴇ	cut_r_stereo_44KHz.wav
4	117	3	4	2	I	1	0	394	1	Ⴡ	cut_r_stereo_44KHz.wav
4	118	4	3	2	I	1	0	378	1	Ⴇ	cut_ei_stereo_44KHz.wav
4	119	2	2	1	C	1	0	1220	0	Ⴜ	cut_j_stereo_44KHz.wav
4	120	1	2	0	C	1	1	811	1	Ⴂ	cut_j_stereo_44KHz.wav
4	121	4	3	2	I	1	0	752	1	Ⴇ	cut_ei_stereo_44KHz.wav
4	122	3	4	2	I	1	0	821	1	Ⴡ	cut_r_stereo_44KHz.wav
4	123	1	2	0	C	1	1	892	1	Ⴂ	cut_j_stereo_44KHz.wav
4	124	2	1	0	C	1	1	812	1	Ⴜ	cut_ui_stereo_44KHz.wav
4	125	3	3	2	I	2	0	634	1	Ⴡ	cut_ei_stereo_44KHz.wav
4	126	2	2	1	C	1	0	951	0	Ⴜ	cut_j_stereo_44KHz.wav
4	127	4	4	2	I	2	0	1003	0	Ⴇ	cut_r_stereo_44KHz.wav
4	128	1	1	1	C	2	1	653	1	Ⴂ	cut_ui_stereo_44KHz.wav
4	129	2	1	0	C	2	0	772	0	Ⴜ	cut_ui_stereo_44KHz.wav
4	130	3	3	2	I	1	0	640	0	Ⴡ	cut_ei_stereo_44KHz.wav
4	131	4	4	2	I	1	0	705	1	Ⴇ	cut_r_stereo_44KHz.wav
4	132	1	1	1	C	1	0	828	0	Ⴂ	cut_ui_stereo_44KHz.wav
4	133	3	4	2	I	1	0	876	1	Ⴡ	cut_r_stereo_44KHz.wav
4	134	4	3	2	I	1	0	949	1	Ⴇ	cut_ei_stereo_44KHz.wav
4	135	1	2	0	C	1	1	846	1	Ⴂ	cut_j_stereo_44KHz.wav
4	136	2	2	1	C	1	0	1158	0	Ⴜ	cut_j_stereo_44KHz.wav
4	137	1	2	0	C	2	0	1083	0	Ⴂ	cut_j_stereo_44KHz.wav
4	138	2	1	0	C	1	1	509	1	Ⴜ	cut_ui_stereo_44KHz.wav
4	139	3	3	2	I	1	0	512	1	Ⴡ	cut_ei_stereo_44KHz.wav
4	140	4	4	2	I	1	0	860	1	Ⴇ	cut_r_stereo_44KHz.wav
4	141	2	2	1	C	1	0	1055	0	Ⴜ	cut_j_stereo_44KHz.wav
4	142	4	3	2	I	1	0	942	1	Ⴇ	cut_ei_stereo_44KHz.wav
4	143	1	1	1	C	1	0	682	0	Ⴂ	cut_ui_stereo_44KHz.wav
4	144	3	4	2	I	1	0	1090	1	Ⴡ	cut_r_stereo_44KHz.wav
4	145	1	1	1	C	1	0	1247	0	Ⴂ	cut_ui_stereo_44KHz.wav
4	146	3	3	2	I	1	0	702	0	Ⴡ	cut_ei_stereo_44KHz.wav
4	147	4	3	2	I	2	0	1043	1	Ⴇ	cut_ei_stereo_44KHz.wav
4	148	2	1	0	C	1	1	1203	1	Ⴜ	cut_ui_stereo_44KHz.wav
4	149	3	4	2	I	1	0	899	1	Ⴡ	cut_r_stereo_44KHz.wav
4	150	2	2	1	C	1	0	859	0	Ⴜ	cut_j_stereo_44KHz.wav
4	151	4	4	2	I	1	0	808	0	Ⴇ	cut_r_stereo_44KHz.wav
4	152	1	2	0	C	1	1	1089	1	Ⴂ	cut_j_stereo_44KHz.wav
4	153	4	4	2	I	1	0	897	1	Ⴇ	cut_r_stereo_44KHz.wav
4	154	1	2	0	C	1	1	899	1	Ⴂ	cut_j_stereo_44KHz.wav
4	155	3	4	2	I	1	0	912	0	Ⴡ	cut_r_stereo_44KHz.wav
4	156	2	2	1	C	1	0	875	0	Ⴜ	cut_j_stereo_44KHz.wav
4	157	1	1	1	C	1	0	810	0	Ⴂ	cut_ui_stereo_44KHz.wav
4	158	4	3	2	I	1	0	586	1	Ⴇ	cut_ei_stereo_44KHz.wav
4	159	2	1	0	C	2	0	1539	0	Ⴜ	cut_ui_stereo_44KHz.wav
4	160	3	3	2	I	1	0	782	1	Ⴡ	cut_ei_stereo_44KHz.wav
4	161	4	3	2	I	1	0	931	1	Ⴇ	cut_ei_stereo_44KHz.wav
4	162	1	2	0	C	1	1	1893	1	Ⴂ	cut_j_stereo_44KHz.wav
4	163	2	1	0	C	1	1	1598	1	Ⴜ	cut_ui_stereo_44KHz.wav
4	164	3	4	2	I	1	0	1388	1	Ⴡ	cut_r_stereo_44KHz.wav
4	165	1	1	1	C	1	0	1215	0	Ⴂ	cut_ui_stereo_44KHz.wav
4	166	2	2	1	C	1	0	1603	0	Ⴜ	cut_j_stereo_44KHz.wav
4	167	3	3	2	I	1	0	889	1	Ⴡ	cut_ei_stereo_44KHz.wav
4	168	4	4	2	I	1	0	728	1	Ⴇ	cut_r_stereo_44KHz.wav
4	169	1	2	0	C	1	1	862	1	Ⴂ	cut_j_stereo_44KHz.wav
4	170	2	2	1	C	1	0	969	0	Ⴜ	cut_j_stereo_44KHz.wav
4	171	3	4	2	I	1	0	832	0	Ⴡ	cut_r_stereo_44KHz.wav
4	172	4	3	2	I	1	0	846	1	Ⴇ	cut_ei_stereo_44KHz.wav
4	173	2	1	0	C	1	1	1202	1	Ⴜ	cut_ui_stereo_44KHz.wav
4	174	4	4	2	I	1	0	836	1	Ⴇ	cut_r_stereo_44KHz.wav
4	175	3	3	2	I	1	0	1241	1	Ⴡ	cut_ei_stereo_44KHz.wav
4	176	1	1	1	C	1	0	1513	0	Ⴂ	cut_ui_stereo_44KHz.wav
4	177	4	4	2	I	1	0	972	1	Ⴇ	cut_r_stereo_44KHz.wav
4	178	3	4	2	I	1	0	655	1	Ⴡ	cut_r_stereo_44KHz.wav
4	179	1	2	0	C	1	1	866	1	Ⴂ	cut_j_stereo_44KHz.wav
4	180	2	2	1	C	1	0	674	0	Ⴜ	cut_j_stereo_44KHz.wav
4	181	1	1	1	C	1	0	434	0	Ⴂ	cut_ui_stereo_44KHz.wav
4	182	4	3	2	I	1	0	515	1	Ⴇ	cut_ei_stereo_44KHz.wav
4	183	2	1	0	C	0	0	0	0	Ⴜ	cut_ui_stereo_44KHz.wav
4	184	3	3	2	I	1	0	1093	1	Ⴡ	cut_ei_stereo_44KHz.wav
4	185	4	4	2	I	1	0	791	0	Ⴇ	cut_r_stereo_44KHz.wav
4	186	1	2	0	C	1	1	1148	1	Ⴂ	cut_j_stereo_44KHz.wav
4	187	2	1	0	C	1	1	1266	1	Ⴜ	cut_ui_stereo_44KHz.wav
4	188	3	4	2	I	1	0	846	1	Ⴡ	cut_r_stereo_44KHz.wav
4	189	1	1	1	C	1	0	855	0	Ⴂ	cut_ui_stereo_44KHz.wav
4	190	4	3	2	I	1	0	1221	1	Ⴇ	cut_ei_stereo_44KHz.wav
4	191	2	2	1	C	1	0	1036	0	Ⴜ	cut_j_stereo_44KHz.wav
4	192	3	3	2	I	1	0	921	1	Ⴡ	cut_ei_stereo_44KHz.wav
4	193	4	4	2	I	1	0	1159	1	Ⴇ	cut_r_stereo_44KHz.wav
4	194	3	3	2	I	1	0	873	1	Ⴡ	cut_ei_stereo_44KHz.wav
4	195	2	1	0	C	1	1	1101	1	Ⴜ	cut_ui_stereo_44KHz.wav
4	196	1	2	0	C	1	1	895	1	Ⴂ	cut_j_stereo_44KHz.wav
4	197	3	4	2	I	1	0	976	1	Ⴡ	cut_r_stereo_44KHz.wav
4	198	4	3	2	I	1	0	937	1	Ⴇ	cut_ei_stereo_44KHz.wav
4	199	1	1	1	C	1	0	958	0	Ⴂ	cut_ui_stereo_44KHz.wav
4	200	2	2	1	C	1	0	1328	0	Ⴜ	cut_j_stereo_44KHz.wav
