block	trial	Vstim	Astim	match	C/I	resp	result	RT	fb	V-file	A-file
LR

0	1	2	4	0	C	2	0	1976	0	Ⴢ	cut_oo_stereo_44KHz.wav
0	2	2	3	1	C	2	1	1375	1	Ⴢ	cut_ee_stereo_44KHz.wav
0	3	1	1	1	C	1	0	1082	0	Ⴉ	cut_g_stereo_44KHz.wav
0	4	1	2	0	C	1	1	1698	1	Ⴉ	cut_eeuw_stereo_44KHz.wav
0	5	2	4	0	C	1	1	1844	1	Ⴢ	cut_oo_stereo_44KHz.wav
0	6	2	3	1	C	2	1	1567	1	Ⴢ	cut_ee_stereo_44KHz.wav
0	7	1	2	0	C	1	1	1420	1	Ⴉ	cut_eeuw_stereo_44KHz.wav
0	8	1	1	1	C	1	0	1853	0	Ⴉ	cut_g_stereo_44KHz.wav
0	9	1	2	0	C	1	1	1245	1	Ⴉ	cut_eeuw_stereo_44KHz.wav
0	10	2	4	0	C	1	1	983	1	Ⴢ	cut_oo_stereo_44KHz.wav
0	11	1	1	1	C	2	1	1285	1	Ⴉ	cut_g_stereo_44KHz.wav
0	12	2	3	1	C	2	1	1292	1	Ⴢ	cut_ee_stereo_44KHz.wav
0	13	1	1	1	C	2	1	1187	1	Ⴉ	cut_g_stereo_44KHz.wav
0	14	2	3	1	C	0	0	0	0	Ⴢ	cut_ee_stereo_44KHz.wav
0	15	2	4	0	C	1	1	1287	1	Ⴢ	cut_oo_stereo_44KHz.wav
0	16	1	2	0	C	1	1	769	1	Ⴉ	cut_eeuw_stereo_44KHz.wav
0	17	2	3	1	C	2	1	1002	1	Ⴢ	cut_ee_stereo_44KHz.wav
0	18	2	4	0	C	1	1	804	1	Ⴢ	cut_oo_stereo_44KHz.wav
0	19	1	1	1	C	2	1	917	1	Ⴉ	cut_g_stereo_44KHz.wav
0	20	1	2	0	C	1	1	502	1	Ⴉ	cut_eeuw_stereo_44KHz.wav
0	21	2	3	1	C	2	1	1107	1	Ⴢ	cut_ee_stereo_44KHz.wav
0	22	1	1	1	C	1	0	1104	0	Ⴉ	cut_g_stereo_44KHz.wav
0	23	1	2	0	C	0	0	0	0	Ⴉ	cut_eeuw_stereo_44KHz.wav
0	24	2	4	0	C	1	1	1798	1	Ⴢ	cut_oo_stereo_44KHz.wav
0	25	1	1	1	C	2	1	957	1	Ⴉ	cut_g_stereo_44KHz.wav
0	26	2	4	0	C	1	1	1527	1	Ⴢ	cut_oo_stereo_44KHz.wav
0	27	2	3	1	C	2	1	838	1	Ⴢ	cut_ee_stereo_44KHz.wav
0	28	1	2	0	C	1	1	988	1	Ⴉ	cut_eeuw_stereo_44KHz.wav
0	29	2	4	0	C	1	1	1107	1	Ⴢ	cut_oo_stereo_44KHz.wav
0	30	1	1	1	C	2	1	898	1	Ⴉ	cut_g_stereo_44KHz.wav
avg_resp = 1183
1	1	4	4	2	I	0	0	0	0	Ⴖ	cut_o_stereo_44KHz.wav
1	2	2	2	1	C	2	1	797	1	Ⴒ	cut_k_stereo_44KHz.wav
1	3	3	3	2	I	2	0	768	1	Ⴏ	cut_u_stereo_44KHz.wav
1	4	1	1	1	C	2	1	670	1	Ⴔ	cut_a_stereo_44KHz.wav
1	5	3	4	2	I	1	0	1032	0	Ⴏ	cut_o_stereo_44KHz.wav
1	6	2	1	0	C	2	0	296	0	Ⴒ	cut_a_stereo_44KHz.wav
1	7	1	2	0	C	1	1	369	1	Ⴔ	cut_k_stereo_44KHz.wav
1	8	4	3	2	I	1	0	948	1	Ⴖ	cut_u_stereo_44KHz.wav
1	9	2	1	0	C	2	0	1242	0	Ⴒ	cut_a_stereo_44KHz.wav
1	10	1	1	1	C	2	1	882	1	Ⴔ	cut_a_stereo_44KHz.wav
1	11	3	4	2	I	1	0	1440	1	Ⴏ	cut_o_stereo_44KHz.wav
1	12	4	4	2	I	2	0	1112	0	Ⴖ	cut_o_stereo_44KHz.wav
1	13	3	3	2	I	0	0	0	0	Ⴏ	cut_u_stereo_44KHz.wav
1	14	4	3	2	I	1	0	536	0	Ⴖ	cut_u_stereo_44KHz.wav
1	15	2	2	1	C	1	0	539	0	Ⴒ	cut_k_stereo_44KHz.wav
1	16	1	2	0	C	2	0	369	0	Ⴔ	cut_k_stereo_44KHz.wav
1	17	4	4	2	I	2	0	1025	1	Ⴖ	cut_o_stereo_44KHz.wav
1	18	1	1	1	C	1	0	1164	0	Ⴔ	cut_a_stereo_44KHz.wav
1	19	3	3	2	I	1	0	1616	1	Ⴏ	cut_u_stereo_44KHz.wav
1	20	2	1	0	C	1	1	1200	1	Ⴒ	cut_a_stereo_44KHz.wav
1	21	1	2	0	C	1	1	1558	1	Ⴔ	cut_k_stereo_44KHz.wav
1	22	2	2	1	C	1	0	775	0	Ⴒ	cut_k_stereo_44KHz.wav
1	23	3	4	2	I	2	0	687	1	Ⴏ	cut_o_stereo_44KHz.wav
1	24	4	3	2	I	2	0	1098	1	Ⴖ	cut_u_stereo_44KHz.wav
1	25	3	3	2	I	1	0	808	1	Ⴏ	cut_u_stereo_44KHz.wav
1	26	1	2	0	C	1	1	1123	1	Ⴔ	cut_k_stereo_44KHz.wav
1	27	2	2	1	C	2	1	785	1	Ⴒ	cut_k_stereo_44KHz.wav
1	28	4	4	2	I	2	0	1368	1	Ⴖ	cut_o_stereo_44KHz.wav
1	29	1	1	1	C	2	1	1130	1	Ⴔ	cut_a_stereo_44KHz.wav
1	30	2	1	0	C	1	1	1012	1	Ⴒ	cut_a_stereo_44KHz.wav
1	31	3	4	2	I	1	0	1336	1	Ⴏ	cut_o_stereo_44KHz.wav
1	32	4	3	2	I	1	0	494	1	Ⴖ	cut_u_stereo_44KHz.wav
1	33	2	2	1	C	1	0	932	0	Ⴒ	cut_k_stereo_44KHz.wav
1	34	1	1	1	C	1	0	841	0	Ⴔ	cut_a_stereo_44KHz.wav
1	35	3	3	2	I	1	0	1132	1	Ⴏ	cut_u_stereo_44KHz.wav
1	36	4	4	2	I	2	0	1081	1	Ⴖ	cut_o_stereo_44KHz.wav
1	37	2	1	0	C	1	1	1273	1	Ⴒ	cut_a_stereo_44KHz.wav
1	38	1	2	0	C	1	1	1068	1	Ⴔ	cut_k_stereo_44KHz.wav
1	39	3	4	2	I	1	0	1464	1	Ⴏ	cut_o_stereo_44KHz.wav
1	40	4	3	2	I	2	0	1244	0	Ⴖ	cut_u_stereo_44KHz.wav
1	41	3	3	2	I	2	0	1760	1	Ⴏ	cut_u_stereo_44KHz.wav
1	42	2	2	1	C	1	0	966	0	Ⴒ	cut_k_stereo_44KHz.wav
1	43	4	3	2	I	1	0	1424	1	Ⴖ	cut_u_stereo_44KHz.wav
1	44	1	2	0	C	1	1	1576	1	Ⴔ	cut_k_stereo_44KHz.wav
1	45	4	4	2	I	2	0	957	1	Ⴖ	cut_o_stereo_44KHz.wav
1	46	3	4	2	I	0	0	0	0	Ⴏ	cut_o_stereo_44KHz.wav
1	47	2	1	0	C	1	1	1367	1	Ⴒ	cut_a_stereo_44KHz.wav
1	48	1	1	1	C	2	1	1200	1	Ⴔ	cut_a_stereo_44KHz.wav
1	49	4	3	2	I	0	0	0	0	Ⴖ	cut_u_stereo_44KHz.wav
1	50	2	2	1	C	0	0	0	0	Ⴒ	cut_k_stereo_44KHz.wav
1	51	3	4	2	I	2	0	847	1	Ⴏ	cut_o_stereo_44KHz.wav
1	52	1	1	1	C	2	1	755	1	Ⴔ	cut_a_stereo_44KHz.wav
1	53	2	1	0	C	2	0	314	0	Ⴒ	cut_a_stereo_44KHz.wav
1	54	3	3	2	I	2	0	902	1	Ⴏ	cut_u_stereo_44KHz.wav
1	55	4	4	2	I	2	0	943	1	Ⴖ	cut_o_stereo_44KHz.wav
1	56	1	2	0	C	1	1	506	1	Ⴔ	cut_k_stereo_44KHz.wav
1	57	2	2	1	C	2	1	982	1	Ⴒ	cut_k_stereo_44KHz.wav
1	58	3	3	2	I	0	0	0	0	Ⴏ	cut_u_stereo_44KHz.wav
1	59	1	2	0	C	2	0	339	0	Ⴔ	cut_k_stereo_44KHz.wav
1	60	4	4	2	I	2	0	1204	1	Ⴖ	cut_o_stereo_44KHz.wav
1	61	3	4	2	I	1	0	1349	1	Ⴏ	cut_o_stereo_44KHz.wav
1	62	4	3	2	I	1	0	1514	1	Ⴖ	cut_u_stereo_44KHz.wav
1	63	1	1	1	C	1	0	1277	0	Ⴔ	cut_a_stereo_44KHz.wav
1	64	2	1	0	C	0	0	0	0	Ⴒ	cut_a_stereo_44KHz.wav
1	65	4	4	2	I	2	0	1489	1	Ⴖ	cut_o_stereo_44KHz.wav
1	66	1	1	1	C	2	1	393	1	Ⴔ	cut_a_stereo_44KHz.wav
1	67	3	3	2	I	0	0	0	0	Ⴏ	cut_u_stereo_44KHz.wav
1	68	2	2	1	C	2	1	84	1	Ⴒ	cut_k_stereo_44KHz.wav
1	69	4	3	2	I	1	0	686	1	Ⴖ	cut_u_stereo_44KHz.wav
1	70	2	1	0	C	1	1	608	1	Ⴒ	cut_a_stereo_44KHz.wav
1	71	1	2	0	C	1	1	615	1	Ⴔ	cut_k_stereo_44KHz.wav
1	72	3	4	2	I	2	0	694	0	Ⴏ	cut_o_stereo_44KHz.wav
1	73	1	1	1	C	1	0	1116	0	Ⴔ	cut_a_stereo_44KHz.wav
1	74	3	4	2	I	2	0	1313	1	Ⴏ	cut_o_stereo_44KHz.wav
1	75	2	1	0	C	1	1	1141	1	Ⴒ	cut_a_stereo_44KHz.wav
1	76	4	4	2	I	2	0	787	1	Ⴖ	cut_o_stereo_44KHz.wav
1	77	2	2	1	C	1	0	1399	0	Ⴒ	cut_k_stereo_44KHz.wav
1	78	4	3	2	I	2	0	385	0	Ⴖ	cut_u_stereo_44KHz.wav
1	79	1	2	0	C	1	1	1556	1	Ⴔ	cut_k_stereo_44KHz.wav
1	80	3	3	2	I	1	0	877	1	Ⴏ	cut_u_stereo_44KHz.wav
1	81	4	3	2	I	1	0	1052	1	Ⴖ	cut_u_stereo_44KHz.wav
1	82	1	2	0	C	1	1	735	1	Ⴔ	cut_k_stereo_44KHz.wav
1	83	2	2	1	C	1	0	762	0	Ⴒ	cut_k_stereo_44KHz.wav
1	84	3	3	2	I	2	0	1150	1	Ⴏ	cut_u_stereo_44KHz.wav
1	85	1	1	1	C	1	0	723	0	Ⴔ	cut_a_stereo_44KHz.wav
1	86	4	4	2	I	2	0	1897	1	Ⴖ	cut_o_stereo_44KHz.wav
1	87	3	4	2	I	2	0	505	0	Ⴏ	cut_o_stereo_44KHz.wav
1	88	2	1	0	C	1	1	611	1	Ⴒ	cut_a_stereo_44KHz.wav
1	89	4	3	2	I	1	0	866	0	Ⴖ	cut_u_stereo_44KHz.wav
1	90	2	2	1	C	1	0	742	0	Ⴒ	cut_k_stereo_44KHz.wav
1	91	3	4	2	I	1	0	526	1	Ⴏ	cut_o_stereo_44KHz.wav
1	92	1	1	1	C	2	1	1212	1	Ⴔ	cut_a_stereo_44KHz.wav
1	93	2	1	0	C	1	1	1576	1	Ⴒ	cut_a_stereo_44KHz.wav
1	94	4	4	2	I	1	0	1766	1	Ⴖ	cut_o_stereo_44KHz.wav
1	95	3	3	2	I	1	0	790	1	Ⴏ	cut_u_stereo_44KHz.wav
1	96	1	2	0	C	2	0	941	0	Ⴔ	cut_k_stereo_44KHz.wav
1	97	3	4	2	I	0	0	0	0	Ⴏ	cut_o_stereo_44KHz.wav
1	98	4	3	2	I	1	0	1844	1	Ⴖ	cut_u_stereo_44KHz.wav
1	99	1	1	1	C	2	1	1543	1	Ⴔ	cut_a_stereo_44KHz.wav
1	100	2	2	1	C	1	0	1136	0	Ⴒ	cut_k_stereo_44KHz.wav
1	101	1	2	0	C	1	1	1262	1	Ⴔ	cut_k_stereo_44KHz.wav
1	102	2	1	0	C	2	0	1625	0	Ⴒ	cut_a_stereo_44KHz.wav
1	103	3	3	2	I	1	0	1598	1	Ⴏ	cut_u_stereo_44KHz.wav
1	104	4	4	2	I	2	0	1297	1	Ⴖ	cut_o_stereo_44KHz.wav
1	105	1	2	0	C	1	1	1159	1	Ⴔ	cut_k_stereo_44KHz.wav
1	106	2	2	1	C	1	0	779	0	Ⴒ	cut_k_stereo_44KHz.wav
1	107	4	3	2	I	2	0	344	1	Ⴖ	cut_u_stereo_44KHz.wav
1	108	3	4	2	I	1	0	311	1	Ⴏ	cut_o_stereo_44KHz.wav
1	109	4	4	2	I	2	0	673	0	Ⴖ	cut_o_stereo_44KHz.wav
1	110	1	1	1	C	2	1	980	1	Ⴔ	cut_a_stereo_44KHz.wav
1	111	2	1	0	C	0	0	0	0	Ⴒ	cut_a_stereo_44KHz.wav
1	112	3	3	2	I	2	0	508	1	Ⴏ	cut_u_stereo_44KHz.wav
1	113	1	1	1	C	1	0	1684	0	Ⴔ	cut_a_stereo_44KHz.wav
1	114	2	2	1	C	1	0	137	0	Ⴒ	cut_k_stereo_44KHz.wav
1	115	3	3	2	I	2	0	381	1	Ⴏ	cut_u_stereo_44KHz.wav
1	116	4	4	2	I	1	0	1166	1	Ⴖ	cut_o_stereo_44KHz.wav
1	117	1	2	0	C	0	0	0	0	Ⴔ	cut_k_stereo_44KHz.wav
1	118	3	4	2	I	2	0	1084	1	Ⴏ	cut_o_stereo_44KHz.wav
1	119	2	1	0	C	2	0	810	0	Ⴒ	cut_a_stereo_44KHz.wav
1	120	4	3	2	I	1	0	68	1	Ⴖ	cut_u_stereo_44KHz.wav
1	121	3	3	2	I	2	0	1072	1	Ⴏ	cut_u_stereo_44KHz.wav
1	122	4	3	2	I	2	0	799	0	Ⴖ	cut_u_stereo_44KHz.wav
1	123	2	1	0	C	2	0	1757	0	Ⴒ	cut_a_stereo_44KHz.wav
1	124	1	1	1	C	2	1	1082	1	Ⴔ	cut_a_stereo_44KHz.wav
1	125	4	4	2	I	1	0	1330	1	Ⴖ	cut_o_stereo_44KHz.wav
1	126	1	2	0	C	1	1	1161	1	Ⴔ	cut_k_stereo_44KHz.wav
1	127	3	4	2	I	2	0	1337	0	Ⴏ	cut_o_stereo_44KHz.wav
1	128	2	2	1	C	1	0	1179	0	Ⴒ	cut_k_stereo_44KHz.wav
1	129	3	3	2	I	2	0	1353	1	Ⴏ	cut_u_stereo_44KHz.wav
1	130	1	2	0	C	1	1	956	1	Ⴔ	cut_k_stereo_44KHz.wav
1	131	4	4	2	I	1	0	1218	1	Ⴖ	cut_o_stereo_44KHz.wav
1	132	2	1	0	C	1	1	686	1	Ⴒ	cut_a_stereo_44KHz.wav
1	133	3	4	2	I	1	0	1111	1	Ⴏ	cut_o_stereo_44KHz.wav
1	134	4	3	2	I	0	0	0	0	Ⴖ	cut_u_stereo_44KHz.wav
1	135	2	2	1	C	1	0	1338	0	Ⴒ	cut_k_stereo_44KHz.wav
1	136	1	1	1	C	1	0	971	0	Ⴔ	cut_a_stereo_44KHz.wav
1	137	4	4	2	I	1	0	1184	1	Ⴖ	cut_o_stereo_44KHz.wav
1	138	1	1	1	C	1	0	923	0	Ⴔ	cut_a_stereo_44KHz.wav
1	139	3	4	2	I	2	0	698	0	Ⴏ	cut_o_stereo_44KHz.wav
1	140	2	1	0	C	1	1	869	1	Ⴒ	cut_a_stereo_44KHz.wav
1	141	1	2	0	C	1	1	1033	1	Ⴔ	cut_k_stereo_44KHz.wav
1	142	2	2	1	C	1	0	924	0	Ⴒ	cut_k_stereo_44KHz.wav
1	143	3	3	2	I	2	0	1052	1	Ⴏ	cut_u_stereo_44KHz.wav
1	144	4	3	2	I	2	0	1979	1	Ⴖ	cut_u_stereo_44KHz.wav
1	145	2	1	0	C	1	1	842	1	Ⴒ	cut_a_stereo_44KHz.wav
1	146	4	4	2	I	1	0	954	1	Ⴖ	cut_o_stereo_44KHz.wav
1	147	3	3	2	I	2	0	743	1	Ⴏ	cut_u_stereo_44KHz.wav
1	148	1	1	1	C	2	1	1175	1	Ⴔ	cut_a_stereo_44KHz.wav
1	149	4	3	2	I	2	0	1115	1	Ⴖ	cut_u_stereo_44KHz.wav
1	150	3	4	2	I	1	0	1139	0	Ⴏ	cut_o_stereo_44KHz.wav
1	151	2	2	1	C	2	1	466	1	Ⴒ	cut_k_stereo_44KHz.wav
1	152	1	2	0	C	1	1	1076	1	Ⴔ	cut_k_stereo_44KHz.wav
1	153	4	3	2	I	1	0	895	0	Ⴖ	cut_u_stereo_44KHz.wav
1	154	2	2	1	C	2	1	1433	1	Ⴒ	cut_k_stereo_44KHz.wav
1	155	3	4	2	I	1	0	1455	1	Ⴏ	cut_o_stereo_44KHz.wav
1	156	1	1	1	C	0	0	0	0	Ⴔ	cut_a_stereo_44KHz.wav
1	157	2	1	0	C	1	1	1123	1	Ⴒ	cut_a_stereo_44KHz.wav
1	158	3	3	2	I	1	0	940	1	Ⴏ	cut_u_stereo_44KHz.wav
1	159	1	2	0	C	1	1	879	1	Ⴔ	cut_k_stereo_44KHz.wav
1	160	4	4	2	I	2	0	1395	1	Ⴖ	cut_o_stereo_44KHz.wav
1	161	2	2	1	C	2	1	1019	1	Ⴒ	cut_k_stereo_44KHz.wav
1	162	4	3	2	I	1	0	1108	0	Ⴖ	cut_u_stereo_44KHz.wav
1	163	3	3	2	I	2	0	1225	1	Ⴏ	cut_u_stereo_44KHz.wav
1	164	1	1	1	C	2	1	1784	1	Ⴔ	cut_a_stereo_44KHz.wav
1	165	3	4	2	I	1	0	1838	0	Ⴏ	cut_o_stereo_44KHz.wav
1	166	4	4	2	I	1	0	1771	1	Ⴖ	cut_o_stereo_44KHz.wav
1	167	1	2	0	C	2	0	653	0	Ⴔ	cut_k_stereo_44KHz.wav
1	168	2	1	0	C	1	1	180	1	Ⴒ	cut_a_stereo_44KHz.wav
1	169	3	3	2	I	1	0	1653	1	Ⴏ	cut_u_stereo_44KHz.wav
1	170	1	2	0	C	1	1	946	1	Ⴔ	cut_k_stereo_44KHz.wav
1	171	4	3	2	I	2	0	1582	1	Ⴖ	cut_u_stereo_44KHz.wav
1	172	2	1	0	C	2	0	1446	0	Ⴒ	cut_a_stereo_44KHz.wav
1	173	4	4	2	I	1	0	1071	1	Ⴖ	cut_o_stereo_44KHz.wav
1	174	1	1	1	C	1	0	1060	0	Ⴔ	cut_a_stereo_44KHz.wav
1	175	2	2	1	C	2	1	654	1	Ⴒ	cut_k_stereo_44KHz.wav
1	176	3	4	2	I	2	0	852	1	Ⴏ	cut_o_stereo_44KHz.wav
1	177	2	2	1	C	1	0	979	0	Ⴒ	cut_k_stereo_44KHz.wav
1	178	1	1	1	C	2	1	951	1	Ⴔ	cut_a_stereo_44KHz.wav
1	179	3	4	2	I	2	0	1142	1	Ⴏ	cut_o_stereo_44KHz.wav
1	180	4	4	2	I	2	0	809	1	Ⴖ	cut_o_stereo_44KHz.wav
1	181	2	1	0	C	1	1	1747	1	Ⴒ	cut_a_stereo_44KHz.wav
1	182	4	3	2	I	2	0	971	1	Ⴖ	cut_u_stereo_44KHz.wav
1	183	1	2	0	C	1	1	1103	1	Ⴔ	cut_k_stereo_44KHz.wav
1	184	3	3	2	I	2	0	810	1	Ⴏ	cut_u_stereo_44KHz.wav
1	185	2	1	0	C	1	1	1974	1	Ⴒ	cut_a_stereo_44KHz.wav
1	186	4	3	2	I	2	0	1366	0	Ⴖ	cut_u_stereo_44KHz.wav
1	187	3	3	2	I	1	0	423	1	Ⴏ	cut_u_stereo_44KHz.wav
1	188	1	1	1	C	2	1	516	1	Ⴔ	cut_a_stereo_44KHz.wav
1	189	2	2	1	C	2	1	620	1	Ⴒ	cut_k_stereo_44KHz.wav
1	190	3	4	2	I	1	0	556	0	Ⴏ	cut_o_stereo_44KHz.wav
1	191	4	4	2	I	1	0	720	1	Ⴖ	cut_o_stereo_44KHz.wav
1	192	1	2	0	C	1	1	585	1	Ⴔ	cut_k_stereo_44KHz.wav
1	193	4	3	2	I	1	0	516	1	Ⴖ	cut_u_stereo_44KHz.wav
1	194	1	1	1	C	1	0	486	0	Ⴔ	cut_a_stereo_44KHz.wav
1	195	2	1	0	C	1	1	1099	1	Ⴒ	cut_a_stereo_44KHz.wav
1	196	3	3	2	I	2	0	987	0	Ⴏ	cut_u_stereo_44KHz.wav
1	197	4	4	2	I	1	0	575	1	Ⴖ	cut_o_stereo_44KHz.wav
1	198	1	2	0	C	2	0	1518	0	Ⴔ	cut_k_stereo_44KHz.wav
1	199	2	2	1	C	2	1	11	1	Ⴒ	cut_k_stereo_44KHz.wav
1	200	3	4	2	I	2	0	178	1	Ⴏ	cut_o_stereo_44KHz.wav
2	1	2	2	1	C	2	1	1465	1	Ⴇ	cut_r_stereo_44KHz.wav
2	2	3	4	2	I	1	0	1441	1	Ⴜ	cut_s_stereo_44KHz.wav
2	3	1	2	0	C	1	1	1499	1	Ⴂ	cut_r_stereo_44KHz.wav
2	4	4	3	2	I	1	0	1337	1	Ⴡ	cut_ui_stereo_44KHz.wav
2	5	1	1	1	C	2	1	1251	1	Ⴂ	cut_f_stereo_44KHz.wav
2	6	3	3	2	I	1	0	1478	0	Ⴜ	cut_ui_stereo_44KHz.wav
2	7	2	1	0	C	2	0	866	0	Ⴇ	cut_f_stereo_44KHz.wav
2	8	4	4	2	I	1	0	1809	1	Ⴡ	cut_s_stereo_44KHz.wav
2	9	1	2	0	C	1	1	1408	1	Ⴂ	cut_r_stereo_44KHz.wav
2	10	2	1	0	C	2	0	1643	0	Ⴇ	cut_f_stereo_44KHz.wav
2	11	3	4	2	I	1	0	1324	0	Ⴜ	cut_s_stereo_44KHz.wav
2	12	4	4	2	I	1	0	546	0	Ⴡ	cut_s_stereo_44KHz.wav
2	13	2	2	1	C	1	0	1388	0	Ⴇ	cut_r_stereo_44KHz.wav
2	14	3	3	2	I	2	0	1104	1	Ⴜ	cut_ui_stereo_44KHz.wav
2	15	1	1	1	C	2	1	1578	1	Ⴂ	cut_f_stereo_44KHz.wav
2	16	4	3	2	I	2	0	1636	1	Ⴡ	cut_ui_stereo_44KHz.wav
2	17	2	2	1	C	2	1	1118	1	Ⴇ	cut_r_stereo_44KHz.wav
2	18	1	2	0	C	1	1	1855	1	Ⴂ	cut_r_stereo_44KHz.wav
2	19	3	3	2	I	1	0	1334	1	Ⴜ	cut_ui_stereo_44KHz.wav
2	20	4	3	2	I	2	0	1605	1	Ⴡ	cut_ui_stereo_44KHz.wav
2	21	1	1	1	C	2	1	912	1	Ⴂ	cut_f_stereo_44KHz.wav
2	22	3	4	2	I	1	0	1738	1	Ⴜ	cut_s_stereo_44KHz.wav
2	23	2	1	0	C	1	1	1464	1	Ⴇ	cut_f_stereo_44KHz.wav
2	24	4	4	2	I	1	0	1730	0	Ⴡ	cut_s_stereo_44KHz.wav
2	25	3	4	2	I	1	0	1651	1	Ⴜ	cut_s_stereo_44KHz.wav
2	26	2	1	0	C	1	1	1129	1	Ⴇ	cut_f_stereo_44KHz.wav
2	27	1	1	1	C	2	1	1033	1	Ⴂ	cut_f_stereo_44KHz.wav
2	28	4	3	2	I	1	0	1058	1	Ⴡ	cut_ui_stereo_44KHz.wav
2	29	1	2	0	C	1	1	901	1	Ⴂ	cut_r_stereo_44KHz.wav
2	30	3	3	2	I	2	0	1779	1	Ⴜ	cut_ui_stereo_44KHz.wav
2	31	4	4	2	I	2	0	1796	1	Ⴡ	cut_s_stereo_44KHz.wav
2	32	2	2	1	C	2	1	1199	1	Ⴇ	cut_r_stereo_44KHz.wav
2	33	1	1	1	C	2	1	1149	1	Ⴂ	cut_f_stereo_44KHz.wav
2	34	3	4	2	I	1	0	1415	0	Ⴜ	cut_s_stereo_44KHz.wav
2	35	4	4	2	I	2	0	1239	1	Ⴡ	cut_s_stereo_44KHz.wav
2	36	2	1	0	C	1	1	1892	1	Ⴇ	cut_f_stereo_44KHz.wav
2	37	3	3	2	I	2	0	802	1	Ⴜ	cut_ui_stereo_44KHz.wav
2	38	2	2	1	C	2	1	929	1	Ⴇ	cut_r_stereo_44KHz.wav
2	39	4	3	2	I	2	0	1282	1	Ⴡ	cut_ui_stereo_44KHz.wav
2	40	1	2	0	C	1	1	1094	1	Ⴂ	cut_r_stereo_44KHz.wav
2	41	2	2	1	C	2	1	1061	1	Ⴇ	cut_r_stereo_44KHz.wav
2	42	4	4	2	I	2	0	1642	1	Ⴡ	cut_s_stereo_44KHz.wav
2	43	1	1	1	C	2	1	786	1	Ⴂ	cut_f_stereo_44KHz.wav
2	44	3	4	2	I	2	0	923	0	Ⴜ	cut_s_stereo_44KHz.wav
2	45	2	1	0	C	2	0	575	0	Ⴇ	cut_f_stereo_44KHz.wav
2	46	3	3	2	I	1	0	911	1	Ⴜ	cut_ui_stereo_44KHz.wav
2	47	1	2	0	C	0	0	0	0	Ⴂ	cut_r_stereo_44KHz.wav
2	48	4	3	2	I	2	0	578	0	Ⴡ	cut_ui_stereo_44KHz.wav
2	49	1	2	0	C	1	1	876	1	Ⴂ	cut_r_stereo_44KHz.wav
2	50	3	4	2	I	1	0	1253	0	Ⴜ	cut_s_stereo_44KHz.wav
2	51	4	3	2	I	2	0	1372	1	Ⴡ	cut_ui_stereo_44KHz.wav
2	52	2	2	1	C	2	1	865	1	Ⴇ	cut_r_stereo_44KHz.wav
2	53	4	4	2	I	1	0	1446	1	Ⴡ	cut_s_stereo_44KHz.wav
2	54	3	3	2	I	2	0	1929	1	Ⴜ	cut_ui_stereo_44KHz.wav
2	55	2	1	0	C	0	0	0	0	Ⴇ	cut_f_stereo_44KHz.wav
2	56	1	1	1	C	2	1	746	1	Ⴂ	cut_f_stereo_44KHz.wav
2	57	3	3	2	I	0	0	0	0	Ⴜ	cut_ui_stereo_44KHz.wav
2	58	1	2	0	C	1	1	823	1	Ⴂ	cut_r_stereo_44KHz.wav
2	59	4	4	2	I	2	0	1180	1	Ⴡ	cut_s_stereo_44KHz.wav
2	60	2	1	0	C	2	0	712	0	Ⴇ	cut_f_stereo_44KHz.wav
2	61	4	3	2	I	1	0	1229	0	Ⴡ	cut_ui_stereo_44KHz.wav
2	62	1	1	1	C	2	1	817	1	Ⴂ	cut_f_stereo_44KHz.wav
2	63	2	2	1	C	2	1	1171	1	Ⴇ	cut_r_stereo_44KHz.wav
2	64	3	4	2	I	1	0	1128	1	Ⴜ	cut_s_stereo_44KHz.wav
2	65	2	2	1	C	2	1	915	1	Ⴇ	cut_r_stereo_44KHz.wav
2	66	1	2	0	C	1	1	864	1	Ⴂ	cut_r_stereo_44KHz.wav
2	67	4	4	2	I	2	0	1002	0	Ⴡ	cut_s_stereo_44KHz.wav
2	68	3	4	2	I	1	0	1034	1	Ⴜ	cut_s_stereo_44KHz.wav
2	69	2	1	0	C	1	1	1101	1	Ⴇ	cut_f_stereo_44KHz.wav
2	70	1	1	1	C	2	1	947	1	Ⴂ	cut_f_stereo_44KHz.wav
2	71	3	3	2	I	1	0	1034	1	Ⴜ	cut_ui_stereo_44KHz.wav
2	72	4	3	2	I	1	0	597	1	Ⴡ	cut_ui_stereo_44KHz.wav
2	73	2	2	1	C	2	1	1334	1	Ⴇ	cut_r_stereo_44KHz.wav
2	74	3	4	2	I	1	0	1287	1	Ⴜ	cut_s_stereo_44KHz.wav
2	75	1	1	1	C	2	1	900	1	Ⴂ	cut_f_stereo_44KHz.wav
2	76	4	4	2	I	2	0	1594	1	Ⴡ	cut_s_stereo_44KHz.wav
2	77	2	1	0	C	2	0	1117	0	Ⴇ	cut_f_stereo_44KHz.wav
2	78	4	3	2	I	1	0	755	1	Ⴡ	cut_ui_stereo_44KHz.wav
2	79	3	3	2	I	2	0	591	1	Ⴜ	cut_ui_stereo_44KHz.wav
2	80	1	2	0	C	1	1	769	1	Ⴂ	cut_r_stereo_44KHz.wav
2	81	4	4	2	I	2	0	1305	1	Ⴡ	cut_s_stereo_44KHz.wav
2	82	2	1	0	C	1	1	775	1	Ⴇ	cut_f_stereo_44KHz.wav
2	83	1	1	1	C	2	1	748	1	Ⴂ	cut_f_stereo_44KHz.wav
2	84	3	3	2	I	1	0	1171	1	Ⴜ	cut_ui_stereo_44KHz.wav
2	85	1	2	0	C	2	0	1125	0	Ⴂ	cut_r_stereo_44KHz.wav
2	86	2	2	1	C	2	1	824	1	Ⴇ	cut_r_stereo_44KHz.wav
2	87	4	3	2	I	2	0	1258	1	Ⴡ	cut_ui_stereo_44KHz.wav
2	88	3	4	2	I	2	0	627	1	Ⴜ	cut_s_stereo_44KHz.wav
2	89	1	1	1	C	2	1	1005	1	Ⴂ	cut_f_stereo_44KHz.wav
2	90	4	4	2	I	2	0	1112	1	Ⴡ	cut_s_stereo_44KHz.wav
2	91	2	1	0	C	2	0	761	0	Ⴇ	cut_f_stereo_44KHz.wav
2	92	3	3	2	I	2	0	1151	0	Ⴜ	cut_ui_stereo_44KHz.wav
2	93	1	2	0	C	1	1	969	1	Ⴂ	cut_r_stereo_44KHz.wav
2	94	4	3	2	I	2	0	1226	0	Ⴡ	cut_ui_stereo_44KHz.wav
2	95	2	2	1	C	2	1	655	1	Ⴇ	cut_r_stereo_44KHz.wav
2	96	3	4	2	I	2	0	659	1	Ⴜ	cut_s_stereo_44KHz.wav
2	97	2	2	1	C	2	1	873	1	Ⴇ	cut_r_stereo_44KHz.wav
2	98	3	3	2	I	0	0	0	0	Ⴜ	cut_ui_stereo_44KHz.wav
2	99	1	1	1	C	2	1	1017	1	Ⴂ	cut_f_stereo_44KHz.wav
2	100	4	4	2	I	2	0	732	1	Ⴡ	cut_s_stereo_44KHz.wav
2	101	2	1	0	C	2	0	779	0	Ⴇ	cut_f_stereo_44KHz.wav
2	102	3	4	2	I	2	0	954	1	Ⴜ	cut_s_stereo_44KHz.wav
2	103	4	3	2	I	2	0	764	1	Ⴡ	cut_ui_stereo_44KHz.wav
2	104	1	2	0	C	1	1	1511	1	Ⴂ	cut_r_stereo_44KHz.wav
2	105	3	4	2	I	2	0	1344	1	Ⴜ	cut_s_stereo_44KHz.wav
2	106	2	2	1	C	2	1	872	1	Ⴇ	cut_r_stereo_44KHz.wav
2	107	4	3	2	I	2	0	903	0	Ⴡ	cut_ui_stereo_44KHz.wav
2	108	1	2	0	C	1	1	817	1	Ⴂ	cut_r_stereo_44KHz.wav
2	109	2	1	0	C	2	0	739	0	Ⴇ	cut_f_stereo_44KHz.wav
2	110	1	1	1	C	1	0	996	0	Ⴂ	cut_f_stereo_44KHz.wav
2	111	3	3	2	I	1	0	702	1	Ⴜ	cut_ui_stereo_44KHz.wav
2	112	4	4	2	I	2	0	682	1	Ⴡ	cut_s_stereo_44KHz.wav
2	113	2	1	0	C	2	0	817	0	Ⴇ	cut_f_stereo_44KHz.wav
2	114	4	4	2	I	2	0	846	1	Ⴡ	cut_s_stereo_44KHz.wav
2	115	3	3	2	I	2	0	823	1	Ⴜ	cut_ui_stereo_44KHz.wav
2	116	1	1	1	C	2	1	1332	1	Ⴂ	cut_f_stereo_44KHz.wav
2	117	2	2	1	C	2	1	1204	1	Ⴇ	cut_r_stereo_44KHz.wav
2	118	3	4	2	I	2	0	1255	1	Ⴜ	cut_s_stereo_44KHz.wav
2	119	4	3	2	I	2	0	891	1	Ⴡ	cut_ui_stereo_44KHz.wav
2	120	1	2	0	C	1	1	802	1	Ⴂ	cut_r_stereo_44KHz.wav
2	121	3	3	2	I	2	0	975	1	Ⴜ	cut_ui_stereo_44KHz.wav
2	122	4	4	2	I	2	0	707	1	Ⴡ	cut_s_stereo_44KHz.wav
2	123	1	1	1	C	2	1	750	1	Ⴂ	cut_f_stereo_44KHz.wav
2	124	2	2	1	C	2	1	706	1	Ⴇ	cut_r_stereo_44KHz.wav
2	125	1	2	0	C	1	1	898	1	Ⴂ	cut_r_stereo_44KHz.wav
2	126	2	1	0	C	2	0	877	0	Ⴇ	cut_f_stereo_44KHz.wav
2	127	4	3	2	I	2	0	1088	1	Ⴡ	cut_ui_stereo_44KHz.wav
2	128	3	4	2	I	2	0	1069	1	Ⴜ	cut_s_stereo_44KHz.wav
2	129	4	4	2	I	2	0	1107	1	Ⴡ	cut_s_stereo_44KHz.wav
2	130	3	4	2	I	1	0	1365	0	Ⴜ	cut_s_stereo_44KHz.wav
2	131	2	1	0	C	2	0	742	0	Ⴇ	cut_f_stereo_44KHz.wav
2	132	1	1	1	C	2	1	762	1	Ⴂ	cut_f_stereo_44KHz.wav
2	133	4	3	2	I	2	0	925	0	Ⴡ	cut_ui_stereo_44KHz.wav
2	134	1	2	0	C	2	0	1251	0	Ⴂ	cut_r_stereo_44KHz.wav
2	135	2	2	1	C	2	1	1007	1	Ⴇ	cut_r_stereo_44KHz.wav
2	136	3	3	2	I	2	0	1107	1	Ⴜ	cut_ui_stereo_44KHz.wav
2	137	1	1	1	C	2	1	980	1	Ⴂ	cut_f_stereo_44KHz.wav
2	138	3	3	2	I	2	0	1591	1	Ⴜ	cut_ui_stereo_44KHz.wav
2	139	4	3	2	I	2	0	1869	0	Ⴡ	cut_ui_stereo_44KHz.wav
2	140	2	2	1	C	2	1	833	1	Ⴇ	cut_r_stereo_44KHz.wav
2	141	3	4	2	I	2	0	409	1	Ⴜ	cut_s_stereo_44KHz.wav
2	142	1	2	0	C	2	0	313	0	Ⴂ	cut_r_stereo_44KHz.wav
2	143	2	1	0	C	2	0	363	0	Ⴇ	cut_f_stereo_44KHz.wav
2	144	4	4	2	I	1	0	735	1	Ⴡ	cut_s_stereo_44KHz.wav
2	145	2	1	0	C	2	0	801	0	Ⴇ	cut_f_stereo_44KHz.wav
2	146	4	4	2	I	2	0	316	1	Ⴡ	cut_s_stereo_44KHz.wav
2	147	3	4	2	I	2	0	396	1	Ⴜ	cut_s_stereo_44KHz.wav
2	148	1	2	0	C	1	1	950	1	Ⴂ	cut_r_stereo_44KHz.wav
2	149	4	3	2	I	2	0	1076	1	Ⴡ	cut_ui_stereo_44KHz.wav
2	150	1	1	1	C	2	1	1192	1	Ⴂ	cut_f_stereo_44KHz.wav
2	151	2	2	1	C	1	0	1158	0	Ⴇ	cut_r_stereo_44KHz.wav
2	152	3	3	2	I	1	0	1018	1	Ⴜ	cut_ui_stereo_44KHz.wav
2	153	4	4	2	I	2	0	501	1	Ⴡ	cut_s_stereo_44KHz.wav
2	154	1	1	1	C	2	1	753	1	Ⴂ	cut_f_stereo_44KHz.wav
2	155	3	4	2	I	2	0	470	1	Ⴜ	cut_s_stereo_44KHz.wav
2	156	2	1	0	C	2	0	613	0	Ⴇ	cut_f_stereo_44KHz.wav
2	157	4	3	2	I	2	0	996	1	Ⴡ	cut_ui_stereo_44KHz.wav
2	158	3	3	2	I	2	0	581	1	Ⴜ	cut_ui_stereo_44KHz.wav
2	159	1	2	0	C	1	1	847	1	Ⴂ	cut_r_stereo_44KHz.wav
2	160	2	2	1	C	2	1	695	1	Ⴇ	cut_r_stereo_44KHz.wav
2	161	4	4	2	I	2	0	740	0	Ⴡ	cut_s_stereo_44KHz.wav
2	162	2	2	1	C	2	1	816	1	Ⴇ	cut_r_stereo_44KHz.wav
2	163	3	4	2	I	2	0	446	1	Ⴜ	cut_s_stereo_44KHz.wav
2	164	1	2	0	C	2	0	391	0	Ⴂ	cut_r_stereo_44KHz.wav
2	165	2	1	0	C	2	0	581	0	Ⴇ	cut_f_stereo_44KHz.wav
2	166	1	1	1	C	0	0	0	0	Ⴂ	cut_f_stereo_44KHz.wav
2	167	3	3	2	I	1	0	1119	1	Ⴜ	cut_ui_stereo_44KHz.wav
2	168	4	3	2	I	2	0	892	1	Ⴡ	cut_ui_stereo_44KHz.wav
2	169	2	1	0	C	2	0	600	0	Ⴇ	cut_f_stereo_44KHz.wav
2	170	1	1	1	C	2	1	904	1	Ⴂ	cut_f_stereo_44KHz.wav
2	171	3	3	2	I	2	0	861	1	Ⴜ	cut_ui_stereo_44KHz.wav
2	172	4	4	2	I	2	0	1727	1	Ⴡ	cut_s_stereo_44KHz.wav
2	173	1	2	0	C	1	1	1389	1	Ⴂ	cut_r_stereo_44KHz.wav
2	174	3	4	2	I	2	0	886	1	Ⴜ	cut_s_stereo_44KHz.wav
2	175	4	3	2	I	2	0	894	1	Ⴡ	cut_ui_stereo_44KHz.wav
2	176	2	2	1	C	2	1	946	1	Ⴇ	cut_r_stereo_44KHz.wav
2	177	3	3	2	I	2	0	656	1	Ⴜ	cut_ui_stereo_44KHz.wav
2	178	4	4	2	I	2	0	116	1	Ⴡ	cut_s_stereo_44KHz.wav
2	179	2	1	0	C	2	0	885	0	Ⴇ	cut_f_stereo_44KHz.wav
2	180	1	1	1	C	2	1	827	1	Ⴂ	cut_f_stereo_44KHz.wav
2	181	2	2	1	C	2	1	445	1	Ⴇ	cut_r_stereo_44KHz.wav
2	182	4	3	2	I	2	0	377	1	Ⴡ	cut_ui_stereo_44KHz.wav
2	183	3	4	2	I	2	0	691	0	Ⴜ	cut_s_stereo_44KHz.wav
2	184	1	2	0	C	1	1	1141	1	Ⴂ	cut_r_stereo_44KHz.wav
2	185	3	4	2	I	1	0	1146	0	Ⴜ	cut_s_stereo_44KHz.wav
2	186	1	1	1	C	2	1	954	1	Ⴂ	cut_f_stereo_44KHz.wav
2	187	2	2	1	C	2	1	661	1	Ⴇ	cut_r_stereo_44KHz.wav
2	188	4	3	2	I	2	0	681	1	Ⴡ	cut_ui_stereo_44KHz.wav
2	189	1	2	0	C	1	1	828	1	Ⴂ	cut_r_stereo_44KHz.wav
2	190	2	1	0	C	2	0	525	0	Ⴇ	cut_f_stereo_44KHz.wav
2	191	3	3	2	I	1	0	1394	1	Ⴜ	cut_ui_stereo_44KHz.wav
2	192	4	4	2	I	2	0	894	1	Ⴡ	cut_s_stereo_44KHz.wav
2	193	3	4	2	I	2	0	515	0	Ⴜ	cut_s_stereo_44KHz.wav
2	194	4	4	2	I	2	0	867	1	Ⴡ	cut_s_stereo_44KHz.wav
2	195	1	1	1	C	2	1	513	1	Ⴂ	cut_f_stereo_44KHz.wav
2	196	2	1	0	C	2	0	1604	0	Ⴇ	cut_f_stereo_44KHz.wav
2	197	1	2	0	C	1	1	1259	1	Ⴂ	cut_r_stereo_44KHz.wav
2	198	4	3	2	I	1	0	1249	1	Ⴡ	cut_ui_stereo_44KHz.wav
2	199	3	3	2	I	1	0	1682	1	Ⴜ	cut_ui_stereo_44KHz.wav
2	200	2	2	1	C	1	0	1488	0	Ⴇ	cut_r_stereo_44KHz.wav
3	1	1	1	1	C	2	1	1518	1	Ⴟ	cut_w_stereo_44KHz.wav
3	2	3	4	2	I	1	0	1338	1	Ⴁ	cut_l_stereo_44KHz.wav
3	3	2	1	0	C	2	0	966	0	Ⴃ	cut_w_stereo_44KHz.wav
3	4	4	4	2	I	2	0	1251	1	Ⴊ	cut_l_stereo_44KHz.wav
3	5	1	2	0	C	2	0	1129	0	Ⴟ	cut_h_stereo_44KHz.wav
3	6	4	3	2	I	1	0	1268	1	Ⴊ	cut_g_stereo_44KHz.wav
3	7	2	2	1	C	2	1	969	1	Ⴃ	cut_h_stereo_44KHz.wav
3	8	3	3	2	I	2	0	767	0	Ⴁ	cut_g_stereo_44KHz.wav
3	9	2	1	0	C	1	1	1546	1	Ⴃ	cut_w_stereo_44KHz.wav
3	10	1	2	0	C	2	0	683	0	Ⴟ	cut_h_stereo_44KHz.wav
3	11	3	4	2	I	2	0	1099	1	Ⴁ	cut_l_stereo_44KHz.wav
3	12	4	4	2	I	2	0	1685	1	Ⴊ	cut_l_stereo_44KHz.wav
3	13	2	2	1	C	2	1	737	1	Ⴃ	cut_h_stereo_44KHz.wav
3	14	4	3	2	I	1	0	1141	1	Ⴊ	cut_g_stereo_44KHz.wav
3	15	3	3	2	I	2	0	710	1	Ⴁ	cut_g_stereo_44KHz.wav
3	16	1	1	1	C	2	1	507	1	Ⴟ	cut_w_stereo_44KHz.wav
3	17	3	4	2	I	2	0	762	1	Ⴁ	cut_l_stereo_44KHz.wav
3	18	2	1	0	C	2	0	188	0	Ⴃ	cut_w_stereo_44KHz.wav
3	19	1	1	1	C	2	1	643	1	Ⴟ	cut_w_stereo_44KHz.wav
3	20	4	3	2	I	1	0	1212	1	Ⴊ	cut_g_stereo_44KHz.wav
3	21	1	2	0	C	1	1	870	1	Ⴟ	cut_h_stereo_44KHz.wav
3	22	3	3	2	I	1	0	724	1	Ⴁ	cut_g_stereo_44KHz.wav
3	23	4	4	2	I	1	0	951	1	Ⴊ	cut_l_stereo_44KHz.wav
3	24	2	2	1	C	1	0	760	0	Ⴃ	cut_h_stereo_44KHz.wav
3	25	3	4	2	I	2	0	723	0	Ⴁ	cut_l_stereo_44KHz.wav
3	26	2	2	1	C	1	0	438	0	Ⴃ	cut_h_stereo_44KHz.wav
3	27	1	1	1	C	2	1	598	1	Ⴟ	cut_w_stereo_44KHz.wav
3	28	4	4	2	I	0	0	0	0	Ⴊ	cut_l_stereo_44KHz.wav
3	29	2	1	0	C	0	0	0	0	Ⴃ	cut_w_stereo_44KHz.wav
3	30	4	3	2	I	0	0	0	0	Ⴊ	cut_g_stereo_44KHz.wav
3	31	1	2	0	C	0	0	0	0	Ⴟ	cut_h_stereo_44KHz.wav
3	32	3	3	2	I	0	0	0	0	Ⴁ	cut_g_stereo_44KHz.wav
3	33	4	4	2	I	0	0	0	0	Ⴊ	cut_l_stereo_44KHz.wav
3	34	2	2	1	C	0	0	0	0	Ⴃ	cut_h_stereo_44KHz.wav
3	35	3	3	2	I	2	0	373	1	Ⴁ	cut_g_stereo_44KHz.wav
3	36	1	1	1	C	1	0	956	0	Ⴟ	cut_w_stereo_44KHz.wav
3	37	3	4	2	I	2	0	892	1	Ⴁ	cut_l_stereo_44KHz.wav
3	38	2	1	0	C	1	1	1016	1	Ⴃ	cut_w_stereo_44KHz.wav
3	39	4	3	2	I	2	0	744	1	Ⴊ	cut_g_stereo_44KHz.wav
3	40	1	2	0	C	2	0	838	0	Ⴟ	cut_h_stereo_44KHz.wav
3	41	4	3	2	I	1	0	799	0	Ⴊ	cut_g_stereo_44KHz.wav
3	42	2	2	1	C	1	0	547	0	Ⴃ	cut_h_stereo_44KHz.wav
3	43	3	4	2	I	2	0	530	1	Ⴁ	cut_l_stereo_44KHz.wav
3	44	1	1	1	C	2	1	681	1	Ⴟ	cut_w_stereo_44KHz.wav
3	45	3	3	2	I	0	0	0	0	Ⴁ	cut_g_stereo_44KHz.wav
3	46	1	2	0	C	0	0	0	0	Ⴟ	cut_h_stereo_44KHz.wav
3	47	2	1	0	C	2	0	1656	0	Ⴃ	cut_w_stereo_44KHz.wav
3	48	4	4	2	I	1	0	863	1	Ⴊ	cut_l_stereo_44KHz.wav
3	49	1	1	1	C	2	1	1071	1	Ⴟ	cut_w_stereo_44KHz.wav
3	50	3	4	2	I	2	0	694	1	Ⴁ	cut_l_stereo_44KHz.wav
3	51	4	4	2	I	2	0	371	1	Ⴊ	cut_l_stereo_44KHz.wav
3	52	2	1	0	C	2	0	387	0	Ⴃ	cut_w_stereo_44KHz.wav
3	53	3	3	2	I	2	0	315	1	Ⴁ	cut_g_stereo_44KHz.wav
3	54	1	2	0	C	2	0	1206	0	Ⴟ	cut_h_stereo_44KHz.wav
3	55	4	3	2	I	0	0	0	0	Ⴊ	cut_g_stereo_44KHz.wav
3	56	2	2	1	C	2	1	533	1	Ⴃ	cut_h_stereo_44KHz.wav
3	57	3	4	2	I	2	0	799	1	Ⴁ	cut_l_stereo_44KHz.wav
3	58	2	2	1	C	2	1	340	1	Ⴃ	cut_h_stereo_44KHz.wav
3	59	1	2	0	C	2	0	500	0	Ⴟ	cut_h_stereo_44KHz.wav
3	60	4	3	2	I	2	0	260	1	Ⴊ	cut_g_stereo_44KHz.wav
3	61	1	1	1	C	2	1	656	1	Ⴟ	cut_w_stereo_44KHz.wav
3	62	3	3	2	I	2	0	482	1	Ⴁ	cut_g_stereo_44KHz.wav
3	63	4	4	2	I	2	0	381	1	Ⴊ	cut_l_stereo_44KHz.wav
3	64	2	1	0	C	2	0	298	0	Ⴃ	cut_w_stereo_44KHz.wav
3	65	4	3	2	I	2	0	484	1	Ⴊ	cut_g_stereo_44KHz.wav
3	66	2	2	1	C	2	1	292	1	Ⴃ	cut_h_stereo_44KHz.wav
3	67	1	1	1	C	2	1	408	1	Ⴟ	cut_w_stereo_44KHz.wav
3	68	3	4	2	I	2	0	369	0	Ⴁ	cut_l_stereo_44KHz.wav
3	69	1	2	0	C	2	0	318	0	Ⴟ	cut_h_stereo_44KHz.wav
3	70	2	1	0	C	2	0	587	0	Ⴃ	cut_w_stereo_44KHz.wav
3	71	4	4	2	I	1	0	783	1	Ⴊ	cut_l_stereo_44KHz.wav
3	72	3	3	2	I	2	0	457	1	Ⴁ	cut_g_stereo_44KHz.wav
3	73	1	2	0	C	2	0	724	0	Ⴟ	cut_h_stereo_44KHz.wav
3	74	2	1	0	C	2	0	373	0	Ⴃ	cut_w_stereo_44KHz.wav
3	75	3	4	2	I	1	0	523	1	Ⴁ	cut_l_stereo_44KHz.wav
3	76	4	3	2	I	2	0	173	1	Ⴊ	cut_g_stereo_44KHz.wav
3	77	2	2	1	C	1	0	357	0	Ⴃ	cut_h_stereo_44KHz.wav
3	78	4	4	2	I	2	0	15	1	Ⴊ	cut_l_stereo_44KHz.wav
3	79	3	3	2	I	1	0	22	1	Ⴁ	cut_g_stereo_44KHz.wav
3	80	1	1	1	C	2	1	606	1	Ⴟ	cut_w_stereo_44KHz.wav
3	81	2	1	0	C	1	1	479	1	Ⴃ	cut_w_stereo_44KHz.wav
3	82	4	3	2	I	0	0	0	0	Ⴊ	cut_g_stereo_44KHz.wav
3	83	3	3	2	I	1	0	412	1	Ⴁ	cut_g_stereo_44KHz.wav
3	84	1	2	0	C	2	0	634	0	Ⴟ	cut_h_stereo_44KHz.wav
3	85	3	4	2	I	1	0	296	1	Ⴁ	cut_l_stereo_44KHz.wav
3	86	4	4	2	I	2	0	307	1	Ⴊ	cut_l_stereo_44KHz.wav
3	87	1	1	1	C	1	0	373	0	Ⴟ	cut_w_stereo_44KHz.wav
3	88	2	2	1	C	2	1	1429	1	Ⴃ	cut_h_stereo_44KHz.wav
3	89	4	4	2	I	1	0	772	1	Ⴊ	cut_l_stereo_44KHz.wav
3	90	2	2	1	C	2	1	458	1	Ⴃ	cut_h_stereo_44KHz.wav
3	91	3	4	2	I	1	0	353	0	Ⴁ	cut_l_stereo_44KHz.wav
3	92	1	2	0	C	2	0	329	0	Ⴟ	cut_h_stereo_44KHz.wav
3	93	3	3	2	I	1	0	293	0	Ⴁ	cut_g_stereo_44KHz.wav
3	94	4	3	2	I	2	0	104	0	Ⴊ	cut_g_stereo_44KHz.wav
3	95	1	1	1	C	2	1	816	1	Ⴟ	cut_w_stereo_44KHz.wav
3	96	2	1	0	C	2	0	455	0	Ⴃ	cut_w_stereo_44KHz.wav
3	97	4	3	2	I	2	0	779	1	Ⴊ	cut_g_stereo_44KHz.wav
3	98	1	1	1	C	1	0	425	0	Ⴟ	cut_w_stereo_44KHz.wav
3	99	3	3	2	I	2	0	392	1	Ⴁ	cut_g_stereo_44KHz.wav
3	100	2	2	1	C	1	0	235	0	Ⴃ	cut_h_stereo_44KHz.wav
3	101	4	4	2	I	2	0	578	1	Ⴊ	cut_l_stereo_44KHz.wav
3	102	2	1	0	C	1	1	305	1	Ⴃ	cut_w_stereo_44KHz.wav
3	103	1	2	0	C	2	0	1188	0	Ⴟ	cut_h_stereo_44KHz.wav
3	104	3	4	2	I	1	0	357	1	Ⴁ	cut_l_stereo_44KHz.wav
3	105	2	2	1	C	2	1	391	1	Ⴃ	cut_h_stereo_44KHz.wav
3	106	4	3	2	I	1	0	914	0	Ⴊ	cut_g_stereo_44KHz.wav
3	107	1	1	1	C	2	1	472	1	Ⴟ	cut_w_stereo_44KHz.wav
3	108	3	3	2	I	1	0	307	1	Ⴁ	cut_g_stereo_44KHz.wav
3	109	4	4	2	I	2	0	459	1	Ⴊ	cut_l_stereo_44KHz.wav
3	110	1	2	0	C	1	1	446	1	Ⴟ	cut_h_stereo_44KHz.wav
3	111	3	4	2	I	2	0	318	1	Ⴁ	cut_l_stereo_44KHz.wav
3	112	2	1	0	C	1	1	585	1	Ⴃ	cut_w_stereo_44KHz.wav
3	113	1	1	1	C	2	1	3	1	Ⴟ	cut_w_stereo_44KHz.wav
3	114	4	4	2	I	1	0	640	1	Ⴊ	cut_l_stereo_44KHz.wav
3	115	3	3	2	I	2	0	541	1	Ⴁ	cut_g_stereo_44KHz.wav
3	116	2	2	1	C	1	0	535	0	Ⴃ	cut_h_stereo_44KHz.wav
3	117	1	2	0	C	2	0	391	0	Ⴟ	cut_h_stereo_44KHz.wav
3	118	4	3	2	I	1	0	1585	1	Ⴊ	cut_g_stereo_44KHz.wav
3	119	3	4	2	I	2	0	544	1	Ⴁ	cut_l_stereo_44KHz.wav
3	120	2	1	0	C	1	1	525	1	Ⴃ	cut_w_stereo_44KHz.wav
3	121	1	1	1	C	2	1	1445	1	Ⴟ	cut_w_stereo_44KHz.wav
3	122	3	3	2	I	0	0	0	0	Ⴁ	cut_g_stereo_44KHz.wav
3	123	4	4	2	I	2	0	376	1	Ⴊ	cut_l_stereo_44KHz.wav
3	124	2	1	0	C	1	1	795	1	Ⴃ	cut_w_stereo_44KHz.wav
3	125	3	4	2	I	2	0	328	0	Ⴁ	cut_l_stereo_44KHz.wav
3	126	1	2	0	C	1	1	347	1	Ⴟ	cut_h_stereo_44KHz.wav
3	127	2	2	1	C	2	1	459	1	Ⴃ	cut_h_stereo_44KHz.wav
3	128	4	3	2	I	1	0	604	0	Ⴊ	cut_g_stereo_44KHz.wav
3	129	2	2	1	C	2	1	690	1	Ⴃ	cut_h_stereo_44KHz.wav
3	130	4	4	2	I	1	0	338	0	Ⴊ	cut_l_stereo_44KHz.wav
3	131	3	4	2	I	2	0	383	1	Ⴁ	cut_l_stereo_44KHz.wav
3	132	1	1	1	C	1	0	451	0	Ⴟ	cut_w_stereo_44KHz.wav
3	133	2	1	0	C	2	0	419	0	Ⴃ	cut_w_stereo_44KHz.wav
3	134	1	2	0	C	1	1	531	1	Ⴟ	cut_h_stereo_44KHz.wav
3	135	4	3	2	I	2	0	568	1	Ⴊ	cut_g_stereo_44KHz.wav
3	136	3	3	2	I	1	0	401	1	Ⴁ	cut_g_stereo_44KHz.wav
3	137	2	2	1	C	2	1	388	1	Ⴃ	cut_h_stereo_44KHz.wav
3	138	4	3	2	I	1	0	358	1	Ⴊ	cut_g_stereo_44KHz.wav
3	139	3	3	2	I	2	0	560	1	Ⴁ	cut_g_stereo_44KHz.wav
3	140	1	2	0	C	1	1	419	1	Ⴟ	cut_h_stereo_44KHz.wav
3	141	2	1	0	C	2	0	283	0	Ⴃ	cut_w_stereo_44KHz.wav
3	142	4	4	2	I	1	0	364	1	Ⴊ	cut_l_stereo_44KHz.wav
3	143	1	1	1	C	2	1	298	1	Ⴟ	cut_w_stereo_44KHz.wav
3	144	3	4	2	I	1	0	9	1	Ⴁ	cut_l_stereo_44KHz.wav
3	145	4	4	2	I	2	0	627	0	Ⴊ	cut_l_stereo_44KHz.wav
3	146	2	2	1	C	1	0	437	0	Ⴃ	cut_h_stereo_44KHz.wav
3	147	1	1	1	C	2	1	362	1	Ⴟ	cut_w_stereo_44KHz.wav
3	148	3	3	2	I	1	0	553	1	Ⴁ	cut_g_stereo_44KHz.wav
3	149	1	2	0	C	2	0	703	0	Ⴟ	cut_h_stereo_44KHz.wav
3	150	2	1	0	C	1	1	347	1	Ⴃ	cut_w_stereo_44KHz.wav
3	151	3	4	2	I	2	0	359	1	Ⴁ	cut_l_stereo_44KHz.wav
3	152	4	3	2	I	1	0	853	1	Ⴊ	cut_g_stereo_44KHz.wav
3	153	2	1	0	C	2	0	550	0	Ⴃ	cut_w_stereo_44KHz.wav
3	154	4	4	2	I	1	0	279	0	Ⴊ	cut_l_stereo_44KHz.wav
3	155	3	4	2	I	2	0	370	1	Ⴁ	cut_l_stereo_44KHz.wav
3	156	1	1	1	C	1	0	333	0	Ⴟ	cut_w_stereo_44KHz.wav
3	157	4	3	2	I	2	0	1558	1	Ⴊ	cut_g_stereo_44KHz.wav
3	158	3	3	2	I	1	0	438	1	Ⴁ	cut_g_stereo_44KHz.wav
3	159	2	2	1	C	2	1	358	1	Ⴃ	cut_h_stereo_44KHz.wav
3	160	1	2	0	C	1	1	380	1	Ⴟ	cut_h_stereo_44KHz.wav
3	161	4	3	2	I	2	0	153	1	Ⴊ	cut_g_stereo_44KHz.wav
3	162	2	2	1	C	1	0	862	0	Ⴃ	cut_h_stereo_44KHz.wav
3	163	3	4	2	I	2	0	402	0	Ⴁ	cut_l_stereo_44KHz.wav
3	164	1	1	1	C	1	0	483	0	Ⴟ	cut_w_stereo_44KHz.wav
3	165	2	1	0	C	2	0	331	0	Ⴃ	cut_w_stereo_44KHz.wav
3	166	4	4	2	I	1	0	1	1	Ⴊ	cut_l_stereo_44KHz.wav
3	167	3	3	2	I	2	0	311	0	Ⴁ	cut_g_stereo_44KHz.wav
3	168	1	2	0	C	1	1	413	1	Ⴟ	cut_h_stereo_44KHz.wav
3	169	4	3	2	I	1	0	49	0	Ⴊ	cut_g_stereo_44KHz.wav
3	170	1	1	1	C	2	1	336	1	Ⴟ	cut_w_stereo_44KHz.wav
3	171	2	2	1	C	1	0	393	0	Ⴃ	cut_h_stereo_44KHz.wav
3	172	3	4	2	I	0	0	0	0	Ⴁ	cut_l_stereo_44KHz.wav
3	173	4	4	2	I	1	0	470	0	Ⴊ	cut_l_stereo_44KHz.wav
3	174	1	2	0	C	2	0	617	0	Ⴟ	cut_h_stereo_44KHz.wav
3	175	2	1	0	C	1	1	435	1	Ⴃ	cut_w_stereo_44KHz.wav
3	176	3	3	2	I	2	0	543	0	Ⴁ	cut_g_stereo_44KHz.wav
3	177	2	1	0	C	1	1	347	1	Ⴃ	cut_w_stereo_44KHz.wav
3	178	4	3	2	I	2	0	426	0	Ⴊ	cut_g_stereo_44KHz.wav
3	179	1	1	1	C	1	0	417	0	Ⴟ	cut_w_stereo_44KHz.wav
3	180	3	3	2	I	1	0	31	1	Ⴁ	cut_g_stereo_44KHz.wav
3	181	4	4	2	I	2	0	1810	1	Ⴊ	cut_l_stereo_44KHz.wav
3	182	1	2	0	C	1	1	844	1	Ⴟ	cut_h_stereo_44KHz.wav
3	183	2	2	1	C	2	1	503	1	Ⴃ	cut_h_stereo_44KHz.wav
3	184	3	4	2	I	1	0	723	1	Ⴁ	cut_l_stereo_44KHz.wav
3	185	4	3	2	I	2	0	439	1	Ⴊ	cut_g_stereo_44KHz.wav
3	186	2	2	1	C	1	0	359	0	Ⴃ	cut_h_stereo_44KHz.wav
3	187	3	3	2	I	0	0	0	0	Ⴁ	cut_g_stereo_44KHz.wav
3	188	1	2	0	C	1	1	448	1	Ⴟ	cut_h_stereo_44KHz.wav
3	189	4	4	2	I	0	0	0	0	Ⴊ	cut_l_stereo_44KHz.wav
3	190	2	1	0	C	1	1	689	1	Ⴃ	cut_w_stereo_44KHz.wav
3	191	3	4	2	I	2	0	837	0	Ⴁ	cut_l_stereo_44KHz.wav
3	192	1	1	1	C	0	0	0	0	Ⴟ	cut_w_stereo_44KHz.wav
3	193	3	4	2	I	1	0	420	1	Ⴁ	cut_l_stereo_44KHz.wav
3	194	2	2	1	C	0	0	0	0	Ⴃ	cut_h_stereo_44KHz.wav
3	195	4	3	2	I	2	0	715	1	Ⴊ	cut_g_stereo_44KHz.wav
3	196	1	2	0	C	1	1	575	1	Ⴟ	cut_h_stereo_44KHz.wav
3	197	4	4	2	I	2	0	519	1	Ⴊ	cut_l_stereo_44KHz.wav
3	198	2	1	0	C	1	1	798	1	Ⴃ	cut_w_stereo_44KHz.wav
3	199	1	1	1	C	2	1	499	1	Ⴟ	cut_w_stereo_44KHz.wav
3	200	3	3	2	I	1	0	728	1	Ⴁ	cut_g_stereo_44KHz.wav
4	1	2	1	0	C	0	0	0	0	Ⴌ	cut_ei_stereo_44KHz.wav
4	2	3	4	2	I	2	0	469	1	Ⴐ	cut_oei_stereo_44KHz.wav
4	3	4	4	2	I	1	0	446	1	Ⴉ	cut_oei_stereo_44KHz.wav
4	4	1	2	0	C	2	0	1581	0	Ⴕ	cut_j_stereo_44KHz.wav
4	5	3	3	2	I	1	0	962	1	Ⴐ	cut_n_stereo_44KHz.wav
4	6	4	3	2	I	2	0	631	1	Ⴉ	cut_n_stereo_44KHz.wav
4	7	1	1	1	C	1	0	617	0	Ⴕ	cut_ei_stereo_44KHz.wav
4	8	2	2	1	C	2	1	579	1	Ⴌ	cut_j_stereo_44KHz.wav
4	9	1	1	1	C	1	0	579	0	Ⴕ	cut_ei_stereo_44KHz.wav
4	10	3	3	2	I	0	0	0	0	Ⴐ	cut_n_stereo_44KHz.wav
4	11	2	1	0	C	0	0	0	0	Ⴌ	cut_ei_stereo_44KHz.wav
4	12	4	4	2	I	2	0	1051	1	Ⴉ	cut_oei_stereo_44KHz.wav
4	13	2	2	1	C	1	0	790	0	Ⴌ	cut_j_stereo_44KHz.wav
4	14	1	2	0	C	2	0	1286	0	Ⴕ	cut_j_stereo_44KHz.wav
4	15	4	3	2	I	1	0	676	1	Ⴉ	cut_n_stereo_44KHz.wav
4	16	3	4	2	I	2	0	588	1	Ⴐ	cut_oei_stereo_44KHz.wav
4	17	4	3	2	I	1	0	420	0	Ⴉ	cut_n_stereo_44KHz.wav
4	18	2	1	0	C	2	0	491	0	Ⴌ	cut_ei_stereo_44KHz.wav
4	19	3	4	2	I	1	0	627	1	Ⴐ	cut_oei_stereo_44KHz.wav
4	20	1	1	1	C	2	1	545	1	Ⴕ	cut_ei_stereo_44KHz.wav
4	21	3	3	2	I	1	0	678	1	Ⴐ	cut_n_stereo_44KHz.wav
4	22	4	4	2	I	2	0	648	0	Ⴉ	cut_oei_stereo_44KHz.wav
4	23	1	2	0	C	1	1	641	1	Ⴕ	cut_j_stereo_44KHz.wav
4	24	2	2	1	C	2	1	717	1	Ⴌ	cut_j_stereo_44KHz.wav
4	25	3	4	2	I	1	0	535	0	Ⴐ	cut_oei_stereo_44KHz.wav
4	26	2	2	1	C	2	1	420	1	Ⴌ	cut_j_stereo_44KHz.wav
4	27	1	1	1	C	1	0	632	0	Ⴕ	cut_ei_stereo_44KHz.wav
4	28	4	3	2	I	2	0	687	1	Ⴉ	cut_n_stereo_44KHz.wav
4	29	2	1	0	C	1	1	585	1	Ⴌ	cut_ei_stereo_44KHz.wav
4	30	4	4	2	I	2	0	768	1	Ⴉ	cut_oei_stereo_44KHz.wav
4	31	3	3	2	I	1	0	1308	1	Ⴐ	cut_n_stereo_44KHz.wav
4	32	1	2	0	C	2	0	729	0	Ⴕ	cut_j_stereo_44KHz.wav
4	33	4	3	2	I	1	0	873	0	Ⴉ	cut_n_stereo_44KHz.wav
4	34	2	1	0	C	2	0	767	0	Ⴌ	cut_ei_stereo_44KHz.wav
4	35	3	4	2	I	1	0	1142	1	Ⴐ	cut_oei_stereo_44KHz.wav
4	36	1	2	0	C	2	0	779	0	Ⴕ	cut_j_stereo_44KHz.wav
4	37	2	2	1	C	1	0	1001	0	Ⴌ	cut_j_stereo_44KHz.wav
4	38	4	4	2	I	2	0	424	0	Ⴉ	cut_oei_stereo_44KHz.wav
4	39	1	1	1	C	1	0	406	0	Ⴕ	cut_ei_stereo_44KHz.wav
4	40	3	3	2	I	2	0	425	1	Ⴐ	cut_n_stereo_44KHz.wav
4	41	2	2	1	C	1	0	446	0	Ⴌ	cut_j_stereo_44KHz.wav
4	42	4	4	2	I	2	0	337	0	Ⴉ	cut_oei_stereo_44KHz.wav
4	43	3	3	2	I	1	0	327	0	Ⴐ	cut_n_stereo_44KHz.wav
4	44	1	2	0	C	1	1	547	1	Ⴕ	cut_j_stereo_44KHz.wav
4	45	3	4	2	I	2	0	293	1	Ⴐ	cut_oei_stereo_44KHz.wav
4	46	2	1	0	C	1	1	478	1	Ⴌ	cut_ei_stereo_44KHz.wav
4	47	4	3	2	I	2	0	652	1	Ⴉ	cut_n_stereo_44KHz.wav
4	48	1	1	1	C	1	0	534	0	Ⴕ	cut_ei_stereo_44KHz.wav
4	49	3	4	2	I	1	0	428	1	Ⴐ	cut_oei_stereo_44KHz.wav
4	50	1	2	0	C	2	0	662	0	Ⴕ	cut_j_stereo_44KHz.wav
4	51	2	2	1	C	2	1	376	1	Ⴌ	cut_j_stereo_44KHz.wav
4	52	4	3	2	I	1	0	694	1	Ⴉ	cut_n_stereo_44KHz.wav
4	53	1	1	1	C	2	1	318	1	Ⴕ	cut_ei_stereo_44KHz.wav
4	54	4	4	2	I	1	0	381	0	Ⴉ	cut_oei_stereo_44KHz.wav
4	55	2	1	0	C	1	1	361	1	Ⴌ	cut_ei_stereo_44KHz.wav
4	56	3	3	2	I	2	0	382	1	Ⴐ	cut_n_stereo_44KHz.wav
4	57	2	1	0	C	1	1	581	1	Ⴌ	cut_ei_stereo_44KHz.wav
4	58	3	4	2	I	2	0	325	1	Ⴐ	cut_oei_stereo_44KHz.wav
4	59	1	2	0	C	1	1	425	1	Ⴕ	cut_j_stereo_44KHz.wav
4	60	4	3	2	I	2	0	690	1	Ⴉ	cut_n_stereo_44KHz.wav
4	61	3	3	2	I	1	0	631	1	Ⴐ	cut_n_stereo_44KHz.wav
4	62	1	1	1	C	2	1	532	1	Ⴕ	cut_ei_stereo_44KHz.wav
4	63	4	4	2	I	1	0	728	1	Ⴉ	cut_oei_stereo_44KHz.wav
4	64	2	2	1	C	2	1	729	1	Ⴌ	cut_j_stereo_44KHz.wav
4	65	1	1	1	C	1	0	407	0	Ⴕ	cut_ei_stereo_44KHz.wav
4	66	2	1	0	C	1	1	318	1	Ⴌ	cut_ei_stereo_44KHz.wav
4	67	4	3	2	I	2	0	541	1	Ⴉ	cut_n_stereo_44KHz.wav
4	68	3	4	2	I	1	0	490	1	Ⴐ	cut_oei_stereo_44KHz.wav
4	69	2	2	1	C	2	1	350	1	Ⴌ	cut_j_stereo_44KHz.wav
4	70	3	3	2	I	1	0	421	1	Ⴐ	cut_n_stereo_44KHz.wav
4	71	1	2	0	C	2	0	284	0	Ⴕ	cut_j_stereo_44KHz.wav
4	72	4	4	2	I	2	0	586	1	Ⴉ	cut_oei_stereo_44KHz.wav
4	73	3	3	2	I	1	0	376	1	Ⴐ	cut_n_stereo_44KHz.wav
4	74	1	1	1	C	2	1	357	1	Ⴕ	cut_ei_stereo_44KHz.wav
4	75	2	1	0	C	1	1	504	1	Ⴌ	cut_ei_stereo_44KHz.wav
4	76	4	4	2	I	2	0	716	1	Ⴉ	cut_oei_stereo_44KHz.wav
4	77	1	2	0	C	1	1	742	1	Ⴕ	cut_j_stereo_44KHz.wav
4	78	4	3	2	I	2	0	619	1	Ⴉ	cut_n_stereo_44KHz.wav
4	79	2	2	1	C	1	0	573	0	Ⴌ	cut_j_stereo_44KHz.wav
4	80	3	4	2	I	1	0	393	1	Ⴐ	cut_oei_stereo_44KHz.wav
4	81	4	3	2	I	2	0	393	1	Ⴉ	cut_n_stereo_44KHz.wav
4	82	1	1	1	C	1	0	475	0	Ⴕ	cut_ei_stereo_44KHz.wav
4	83	3	3	2	I	1	0	615	1	Ⴐ	cut_n_stereo_44KHz.wav
4	84	2	2	1	C	2	1	415	1	Ⴌ	cut_j_stereo_44KHz.wav
4	85	4	4	2	I	1	0	481	1	Ⴉ	cut_oei_stereo_44KHz.wav
4	86	2	1	0	C	2	0	401	0	Ⴌ	cut_ei_stereo_44KHz.wav
4	87	1	2	0	C	2	0	504	0	Ⴕ	cut_j_stereo_44KHz.wav
4	88	3	4	2	I	1	0	549	1	Ⴐ	cut_oei_stereo_44KHz.wav
4	89	4	3	2	I	2	0	445	1	Ⴉ	cut_n_stereo_44KHz.wav
4	90	3	3	2	I	1	0	783	1	Ⴐ	cut_n_stereo_44KHz.wav
4	91	2	2	1	C	2	1	601	1	Ⴌ	cut_j_stereo_44KHz.wav
4	92	1	2	0	C	1	1	637	1	Ⴕ	cut_j_stereo_44KHz.wav
4	93	4	4	2	I	2	0	369	1	Ⴉ	cut_oei_stereo_44KHz.wav
4	94	2	1	0	C	1	1	359	1	Ⴌ	cut_ei_stereo_44KHz.wav
4	95	1	1	1	C	2	1	359	1	Ⴕ	cut_ei_stereo_44KHz.wav
4	96	3	4	2	I	1	0	424	0	Ⴐ	cut_oei_stereo_44KHz.wav
4	97	4	4	2	I	2	0	532	1	Ⴉ	cut_oei_stereo_44KHz.wav
4	98	2	1	0	C	1	1	384	1	Ⴌ	cut_ei_stereo_44KHz.wav
4	99	3	3	2	I	2	0	773	0	Ⴐ	cut_n_stereo_44KHz.wav
4	100	1	1	1	C	2	1	491	1	Ⴕ	cut_ei_stereo_44KHz.wav
4	101	3	4	2	I	1	0	574	1	Ⴐ	cut_oei_stereo_44KHz.wav
4	102	4	3	2	I	2	0	459	1	Ⴉ	cut_n_stereo_44KHz.wav
4	103	1	2	0	C	1	1	650	1	Ⴕ	cut_j_stereo_44KHz.wav
4	104	2	2	1	C	2	1	394	1	Ⴌ	cut_j_stereo_44KHz.wav
4	105	3	3	2	I	1	0	570	1	Ⴐ	cut_n_stereo_44KHz.wav
4	106	2	2	1	C	2	1	928	1	Ⴌ	cut_j_stereo_44KHz.wav
4	107	1	2	0	C	0	0	0	0	Ⴕ	cut_j_stereo_44KHz.wav
4	108	4	3	2	I	1	0	522	1	Ⴉ	cut_n_stereo_44KHz.wav
4	109	1	1	1	C	0	0	0	0	Ⴕ	cut_ei_stereo_44KHz.wav
4	110	4	4	2	I	0	0	0	0	Ⴉ	cut_oei_stereo_44KHz.wav
4	111	2	1	0	C	2	0	617	0	Ⴌ	cut_ei_stereo_44KHz.wav
4	112	3	4	2	I	2	0	487	0	Ⴐ	cut_oei_stereo_44KHz.wav
4	113	2	1	0	C	1	1	413	1	Ⴌ	cut_ei_stereo_44KHz.wav
4	114	4	3	2	I	2	0	450	0	Ⴉ	cut_n_stereo_44KHz.wav
4	115	1	2	0	C	2	0	1570	0	Ⴕ	cut_j_stereo_44KHz.wav
4	116	3	3	2	I	1	0	547	1	Ⴐ	cut_n_stereo_44KHz.wav
4	117	2	2	1	C	2	1	684	1	Ⴌ	cut_j_stereo_44KHz.wav
4	118	4	4	2	I	1	0	541	1	Ⴉ	cut_oei_stereo_44KHz.wav
4	119	3	4	2	I	2	0	578	0	Ⴐ	cut_oei_stereo_44KHz.wav
4	120	1	1	1	C	2	1	525	1	Ⴕ	cut_ei_stereo_44KHz.wav
4	121	3	3	2	I	1	0	605	1	Ⴐ	cut_n_stereo_44KHz.wav
4	122	4	4	2	I	2	0	538	1	Ⴉ	cut_oei_stereo_44KHz.wav
4	123	2	1	0	C	1	1	603	1	Ⴌ	cut_ei_stereo_44KHz.wav
4	124	1	1	1	C	2	1	502	1	Ⴕ	cut_ei_stereo_44KHz.wav
4	125	2	2	1	C	1	0	604	0	Ⴌ	cut_j_stereo_44KHz.wav
4	126	1	2	0	C	1	1	560	1	Ⴕ	cut_j_stereo_44KHz.wav
4	127	3	4	2	I	2	0	611	1	Ⴐ	cut_oei_stereo_44KHz.wav
4	128	4	3	2	I	1	0	603	1	Ⴉ	cut_n_stereo_44KHz.wav
4	129	1	2	0	C	2	0	594	0	Ⴕ	cut_j_stereo_44KHz.wav
4	130	3	4	2	I	2	0	345	1	Ⴐ	cut_oei_stereo_44KHz.wav
4	131	4	3	2	I	1	0	486	1	Ⴉ	cut_n_stereo_44KHz.wav
4	132	2	1	0	C	2	0	685	0	Ⴌ	cut_ei_stereo_44KHz.wav
4	133	4	4	2	I	2	0	563	1	Ⴉ	cut_oei_stereo_44KHz.wav
4	134	1	1	1	C	1	0	598	0	Ⴕ	cut_ei_stereo_44KHz.wav
4	135	2	2	1	C	1	0	538	0	Ⴌ	cut_j_stereo_44KHz.wav
4	136	3	3	2	I	2	0	355	1	Ⴐ	cut_n_stereo_44KHz.wav
4	137	4	3	2	I	1	0	715	1	Ⴉ	cut_n_stereo_44KHz.wav
4	138	1	1	1	C	2	1	596	1	Ⴕ	cut_ei_stereo_44KHz.wav
4	139	3	3	2	I	1	0	494	1	Ⴐ	cut_n_stereo_44KHz.wav
4	140	2	2	1	C	2	1	826	1	Ⴌ	cut_j_stereo_44KHz.wav
4	141	3	4	2	I	1	0	590	0	Ⴐ	cut_oei_stereo_44KHz.wav
4	142	2	1	0	C	1	1	477	1	Ⴌ	cut_ei_stereo_44KHz.wav
4	143	1	2	0	C	2	0	523	0	Ⴕ	cut_j_stereo_44KHz.wav
4	144	4	4	2	I	2	0	647	1	Ⴉ	cut_oei_stereo_44KHz.wav
4	145	2	2	1	C	1	0	769	0	Ⴌ	cut_j_stereo_44KHz.wav
4	146	4	4	2	I	1	0	944	1	Ⴉ	cut_oei_stereo_44KHz.wav
4	147	1	2	0	C	2	0	1217	0	Ⴕ	cut_j_stereo_44KHz.wav
4	148	3	3	2	I	2	0	751	1	Ⴐ	cut_n_stereo_44KHz.wav
4	149	1	1	1	C	1	0	605	0	Ⴕ	cut_ei_stereo_44KHz.wav
4	150	3	4	2	I	1	0	411	1	Ⴐ	cut_oei_stereo_44KHz.wav
4	151	2	1	0	C	2	0	481	0	Ⴌ	cut_ei_stereo_44KHz.wav
4	152	4	3	2	I	2	0	503	1	Ⴉ	cut_n_stereo_44KHz.wav
4	153	1	2	0	C	1	1	859	1	Ⴕ	cut_j_stereo_44KHz.wav
4	154	4	4	2	I	2	0	797	0	Ⴉ	cut_oei_stereo_44KHz.wav
4	155	3	3	2	I	1	0	430	0	Ⴐ	cut_n_stereo_44KHz.wav
4	156	2	1	0	C	2	0	374	0	Ⴌ	cut_ei_stereo_44KHz.wav
4	157	1	1	1	C	2	1	471	1	Ⴕ	cut_ei_stereo_44KHz.wav
4	158	4	3	2	I	1	0	682	1	Ⴉ	cut_n_stereo_44KHz.wav
4	159	3	4	2	I	2	0	746	1	Ⴐ	cut_oei_stereo_44KHz.wav
4	160	2	2	1	C	1	0	563	0	Ⴌ	cut_j_stereo_44KHz.wav
4	161	4	3	2	I	0	0	0	0	Ⴉ	cut_n_stereo_44KHz.wav
4	162	3	4	2	I	2	0	554	0	Ⴐ	cut_oei_stereo_44KHz.wav
4	163	1	1	1	C	2	1	599	1	Ⴕ	cut_ei_stereo_44KHz.wav
4	164	2	1	0	C	0	0	0	0	Ⴌ	cut_ei_stereo_44KHz.wav
4	165	4	4	2	I	1	0	736	1	Ⴉ	cut_oei_stereo_44KHz.wav
4	166	1	2	0	C	2	0	1434	0	Ⴕ	cut_j_stereo_44KHz.wav
4	167	3	3	2	I	2	0	766	1	Ⴐ	cut_n_stereo_44KHz.wav
4	168	2	2	1	C	1	0	595	0	Ⴌ	cut_j_stereo_44KHz.wav
4	169	1	2	0	C	2	0	700	0	Ⴕ	cut_j_stereo_44KHz.wav
4	170	3	3	2	I	1	0	761	1	Ⴐ	cut_n_stereo_44KHz.wav
4	171	4	3	2	I	2	0	872	1	Ⴉ	cut_n_stereo_44KHz.wav
4	172	2	2	1	C	1	0	738	0	Ⴌ	cut_j_stereo_44KHz.wav
4	173	1	1	1	C	2	1	740	1	Ⴕ	cut_ei_stereo_44KHz.wav
4	174	4	4	2	I	1	0	1310	1	Ⴉ	cut_oei_stereo_44KHz.wav
4	175	2	1	0	C	2	0	1957	0	Ⴌ	cut_ei_stereo_44KHz.wav
4	176	3	4	2	I	0	0	0	0	Ⴐ	cut_oei_stereo_44KHz.wav
4	177	2	2	1	C	0	0	0	0	Ⴌ	cut_j_stereo_44KHz.wav
4	178	3	4	2	I	0	0	0	0	Ⴐ	cut_oei_stereo_44KHz.wav
4	179	4	3	2	I	2	0	925	1	Ⴉ	cut_n_stereo_44KHz.wav
4	180	1	2	0	C	1	1	759	1	Ⴕ	cut_j_stereo_44KHz.wav
4	181	4	4	2	I	2	0	583	0	Ⴉ	cut_oei_stereo_44KHz.wav
4	182	1	1	1	C	1	0	451	0	Ⴕ	cut_ei_stereo_44KHz.wav
4	183	2	1	0	C	1	1	116	1	Ⴌ	cut_ei_stereo_44KHz.wav
4	184	3	3	2	I	2	0	540	1	Ⴐ	cut_n_stereo_44KHz.wav
4	185	4	4	2	I	1	0	469	1	Ⴉ	cut_oei_stereo_44KHz.wav
4	186	2	1	0	C	2	0	468	0	Ⴌ	cut_ei_stereo_44KHz.wav
4	187	1	1	1	C	2	1	523	1	Ⴕ	cut_ei_stereo_44KHz.wav
4	188	3	3	2	I	1	0	874	1	Ⴐ	cut_n_stereo_44KHz.wav
4	189	4	3	2	I	2	0	622	1	Ⴉ	cut_n_stereo_44KHz.wav
4	190	1	2	0	C	1	1	667	1	Ⴕ	cut_j_stereo_44KHz.wav
4	191	3	4	2	I	2	0	528	1	Ⴐ	cut_oei_stereo_44KHz.wav
4	192	2	2	1	C	1	0	471	0	Ⴌ	cut_j_stereo_44KHz.wav
4	193	4	4	2	I	1	0	539	1	Ⴉ	cut_oei_stereo_44KHz.wav
4	194	1	2	0	C	2	0	603	0	Ⴕ	cut_j_stereo_44KHz.wav
4	195	2	2	1	C	2	1	404	1	Ⴌ	cut_j_stereo_44KHz.wav
4	196	3	4	2	I	1	0	525	1	Ⴐ	cut_oei_stereo_44KHz.wav
4	197	4	3	2	I	2	0	771	0	Ⴉ	cut_n_stereo_44KHz.wav
4	198	1	1	1	C	0	0	0	0	Ⴕ	cut_ei_stereo_44KHz.wav
4	199	2	1	0	C	2	0	639	0	Ⴌ	cut_ei_stereo_44KHz.wav
4	200	3	3	2	I	2	0	709	1	Ⴐ	cut_n_stereo_44KHz.wav
