block	trial	Vstim	Astim	match	C/I	resp	result	RT	fb	V-file	A-file
LR

0	1	2	4	0	C	0	0	0	0	Ⴢ	cut_eeuw_stereo_44KHz.wav
0	2	1	1	1	C	2	1	187	1	Ⴞ	cut_oo_stereo_44KHz.wav
0	3	2	3	1	C	1	0	916	0	Ⴢ	cut_ee_stereo_44KHz.wav
0	4	1	2	0	C	2	0	724	0	Ⴞ	cut_g_stereo_44KHz.wav
0	5	1	1	1	C	1	0	967	0	Ⴞ	cut_oo_stereo_44KHz.wav
0	6	2	4	0	C	2	0	1179	0	Ⴢ	cut_eeuw_stereo_44KHz.wav
0	7	2	3	1	C	2	1	1477	1	Ⴢ	cut_ee_stereo_44KHz.wav
0	8	1	2	0	C	2	0	1894	0	Ⴞ	cut_g_stereo_44KHz.wav
0	9	2	4	0	C	2	0	1268	0	Ⴢ	cut_eeuw_stereo_44KHz.wav
0	10	1	1	1	C	2	1	1106	1	Ⴞ	cut_oo_stereo_44KHz.wav
0	11	1	2	0	C	1	1	1078	1	Ⴞ	cut_g_stereo_44KHz.wav
0	12	2	3	1	C	1	0	888	0	Ⴢ	cut_ee_stereo_44KHz.wav
0	13	2	3	1	C	2	1	987	1	Ⴢ	cut_ee_stereo_44KHz.wav
0	14	1	1	1	C	2	1	1681	1	Ⴞ	cut_oo_stereo_44KHz.wav
0	15	2	4	0	C	2	0	1020	0	Ⴢ	cut_eeuw_stereo_44KHz.wav
0	16	1	2	0	C	2	0	1002	0	Ⴞ	cut_g_stereo_44KHz.wav
0	17	2	3	1	C	2	1	1347	1	Ⴢ	cut_ee_stereo_44KHz.wav
0	18	2	4	0	C	1	1	771	1	Ⴢ	cut_eeuw_stereo_44KHz.wav
0	19	1	2	0	C	2	0	1032	0	Ⴞ	cut_g_stereo_44KHz.wav
0	20	1	1	1	C	2	1	1372	1	Ⴞ	cut_oo_stereo_44KHz.wav
0	21	2	3	1	C	1	0	749	0	Ⴢ	cut_ee_stereo_44KHz.wav
0	22	2	4	0	C	1	1	1626	1	Ⴢ	cut_eeuw_stereo_44KHz.wav
0	23	1	1	1	C	2	1	967	1	Ⴞ	cut_oo_stereo_44KHz.wav
0	24	1	2	0	C	2	0	694	0	Ⴞ	cut_g_stereo_44KHz.wav
0	25	1	2	0	C	1	1	1071	1	Ⴞ	cut_g_stereo_44KHz.wav
0	26	1	1	1	C	1	0	1119	0	Ⴞ	cut_oo_stereo_44KHz.wav
0	27	2	3	1	C	1	0	1847	0	Ⴢ	cut_ee_stereo_44KHz.wav
0	28	2	4	0	C	1	1	1546	1	Ⴢ	cut_eeuw_stereo_44KHz.wav
0	29	1	1	1	C	2	1	1235	1	Ⴞ	cut_oo_stereo_44KHz.wav
0	30	1	2	0	C	1	1	1507	1	Ⴞ	cut_g_stereo_44KHz.wav
avg_resp = 1197
1	1	4	4	2	I	0	0	0	0	Ⴟ	cut_w_stereo_44KHz.wav
1	2	3	3	2	I	1	0	814	1	Ⴃ	cut_h_stereo_44KHz.wav
1	3	1	1	1	C	1	0	1147	0	Ⴡ	cut_g_stereo_44KHz.wav
1	4	2	1	0	C	1	1	985	1	Ⴁ	cut_g_stereo_44KHz.wav
1	5	4	3	2	I	0	0	0	0	Ⴟ	cut_h_stereo_44KHz.wav
1	6	1	2	0	C	0	0	0	0	Ⴡ	cut_l_stereo_44KHz.wav
1	7	3	4	2	I	1	0	890	0	Ⴃ	cut_w_stereo_44KHz.wav
1	8	2	2	1	C	1	0	1053	0	Ⴁ	cut_l_stereo_44KHz.wav
1	9	1	1	1	C	0	0	0	0	Ⴡ	cut_g_stereo_44KHz.wav
1	10	2	1	0	C	2	0	1353	0	Ⴁ	cut_g_stereo_44KHz.wav
1	11	3	3	2	I	0	0	0	0	Ⴃ	cut_h_stereo_44KHz.wav
1	12	4	4	2	I	2	0	869	1	Ⴟ	cut_w_stereo_44KHz.wav
1	13	3	4	2	I	2	0	969	1	Ⴃ	cut_w_stereo_44KHz.wav
1	14	1	2	0	C	0	0	0	0	Ⴡ	cut_l_stereo_44KHz.wav
1	15	2	2	1	C	1	0	1071	0	Ⴁ	cut_l_stereo_44KHz.wav
1	16	4	3	2	I	0	0	0	0	Ⴟ	cut_h_stereo_44KHz.wav
1	17	3	4	2	I	2	0	1011	1	Ⴃ	cut_w_stereo_44KHz.wav
1	18	1	2	0	C	2	0	957	0	Ⴡ	cut_l_stereo_44KHz.wav
1	19	2	2	1	C	2	1	859	1	Ⴁ	cut_l_stereo_44KHz.wav
1	20	4	4	2	I	2	0	647	1	Ⴟ	cut_w_stereo_44KHz.wav
1	21	1	1	1	C	1	0	1287	0	Ⴡ	cut_g_stereo_44KHz.wav
1	22	3	3	2	I	2	0	1028	1	Ⴃ	cut_h_stereo_44KHz.wav
1	23	2	1	0	C	1	1	1049	1	Ⴁ	cut_g_stereo_44KHz.wav
1	24	4	3	2	I	2	0	727	1	Ⴟ	cut_h_stereo_44KHz.wav
1	25	2	2	1	C	2	1	1181	1	Ⴁ	cut_l_stereo_44KHz.wav
1	26	3	3	2	I	2	0	744	1	Ⴃ	cut_h_stereo_44KHz.wav
1	27	1	1	1	C	0	0	0	0	Ⴡ	cut_g_stereo_44KHz.wav
1	28	4	3	2	I	2	0	782	1	Ⴟ	cut_h_stereo_44KHz.wav
1	29	2	1	0	C	0	0	0	0	Ⴁ	cut_g_stereo_44KHz.wav
1	30	4	4	2	I	0	0	0	0	Ⴟ	cut_w_stereo_44KHz.wav
1	31	1	2	0	C	2	0	1004	0	Ⴡ	cut_l_stereo_44KHz.wav
1	32	3	4	2	I	1	0	907	1	Ⴃ	cut_w_stereo_44KHz.wav
1	33	4	3	2	I	2	0	807	1	Ⴟ	cut_h_stereo_44KHz.wav
1	34	2	1	0	C	1	1	753	1	Ⴁ	cut_g_stereo_44KHz.wav
1	35	1	2	0	C	2	0	927	0	Ⴡ	cut_l_stereo_44KHz.wav
1	36	3	4	2	I	0	0	0	0	Ⴃ	cut_w_stereo_44KHz.wav
1	37	2	2	1	C	2	1	905	1	Ⴁ	cut_l_stereo_44KHz.wav
1	38	3	3	2	I	2	0	733	1	Ⴃ	cut_h_stereo_44KHz.wav
1	39	1	1	1	C	2	1	745	1	Ⴡ	cut_g_stereo_44KHz.wav
1	40	4	4	2	I	2	0	677	1	Ⴟ	cut_w_stereo_44KHz.wav
1	41	3	3	2	I	2	0	790	1	Ⴃ	cut_h_stereo_44KHz.wav
1	42	2	1	0	C	1	1	930	1	Ⴁ	cut_g_stereo_44KHz.wav
1	43	1	1	1	C	2	1	681	1	Ⴡ	cut_g_stereo_44KHz.wav
1	44	4	4	2	I	2	0	668	1	Ⴟ	cut_w_stereo_44KHz.wav
1	45	3	4	2	I	2	0	675	1	Ⴃ	cut_w_stereo_44KHz.wav
1	46	1	2	0	C	2	0	604	0	Ⴡ	cut_l_stereo_44KHz.wav
1	47	4	3	2	I	2	0	1135	1	Ⴟ	cut_h_stereo_44KHz.wav
1	48	2	2	1	C	2	1	823	1	Ⴁ	cut_l_stereo_44KHz.wav
1	49	3	3	2	I	2	0	643	0	Ⴃ	cut_h_stereo_44KHz.wav
1	50	2	2	1	C	2	1	1019	1	Ⴁ	cut_l_stereo_44KHz.wav
1	51	1	1	1	C	2	1	542	1	Ⴡ	cut_g_stereo_44KHz.wav
1	52	4	4	2	I	2	0	626	1	Ⴟ	cut_w_stereo_44KHz.wav
1	53	3	4	2	I	2	0	924	1	Ⴃ	cut_w_stereo_44KHz.wav
1	54	1	2	0	C	1	1	1031	1	Ⴡ	cut_l_stereo_44KHz.wav
1	55	4	3	2	I	2	0	692	0	Ⴟ	cut_h_stereo_44KHz.wav
1	56	2	1	0	C	1	1	895	1	Ⴁ	cut_g_stereo_44KHz.wav
1	57	4	4	2	I	2	0	668	0	Ⴟ	cut_w_stereo_44KHz.wav
1	58	3	3	2	I	2	0	735	1	Ⴃ	cut_h_stereo_44KHz.wav
1	59	1	1	1	C	1	0	518	0	Ⴡ	cut_g_stereo_44KHz.wav
1	60	2	1	0	C	1	1	770	1	Ⴁ	cut_g_stereo_44KHz.wav
1	61	3	4	2	I	2	0	670	1	Ⴃ	cut_w_stereo_44KHz.wav
1	62	2	2	1	C	2	1	1277	1	Ⴁ	cut_l_stereo_44KHz.wav
1	63	1	2	0	C	2	0	622	0	Ⴡ	cut_l_stereo_44KHz.wav
1	64	4	3	2	I	2	0	1122	1	Ⴟ	cut_h_stereo_44KHz.wav
1	65	2	2	1	C	2	1	1176	1	Ⴁ	cut_l_stereo_44KHz.wav
1	66	3	3	2	I	2	0	733	1	Ⴃ	cut_h_stereo_44KHz.wav
1	67	4	3	2	I	2	0	963	1	Ⴟ	cut_h_stereo_44KHz.wav
1	68	1	1	1	C	2	1	538	1	Ⴡ	cut_g_stereo_44KHz.wav
1	69	3	4	2	I	2	0	735	1	Ⴃ	cut_w_stereo_44KHz.wav
1	70	4	4	2	I	2	0	558	1	Ⴟ	cut_w_stereo_44KHz.wav
1	71	2	1	0	C	1	1	787	1	Ⴁ	cut_g_stereo_44KHz.wav
1	72	1	2	0	C	1	1	1235	1	Ⴡ	cut_l_stereo_44KHz.wav
1	73	3	3	2	I	2	0	1237	1	Ⴃ	cut_h_stereo_44KHz.wav
1	74	2	2	1	C	2	1	1568	1	Ⴁ	cut_l_stereo_44KHz.wav
1	75	1	1	1	C	2	1	826	1	Ⴡ	cut_g_stereo_44KHz.wav
1	76	4	3	2	I	2	0	739	0	Ⴟ	cut_h_stereo_44KHz.wav
1	77	2	1	0	C	1	1	1192	1	Ⴁ	cut_g_stereo_44KHz.wav
1	78	1	2	0	C	1	1	875	1	Ⴡ	cut_l_stereo_44KHz.wav
1	79	3	4	2	I	2	0	725	1	Ⴃ	cut_w_stereo_44KHz.wav
1	80	4	4	2	I	2	0	1091	1	Ⴟ	cut_w_stereo_44KHz.wav
1	81	2	2	1	C	1	0	1562	0	Ⴁ	cut_l_stereo_44KHz.wav
1	82	4	3	2	I	2	0	1339	0	Ⴟ	cut_h_stereo_44KHz.wav
1	83	1	1	1	C	0	0	0	0	Ⴡ	cut_g_stereo_44KHz.wav
1	84	3	3	2	I	2	0	658	1	Ⴃ	cut_h_stereo_44KHz.wav
1	85	2	1	0	C	1	1	881	1	Ⴁ	cut_g_stereo_44KHz.wav
1	86	1	2	0	C	1	1	939	1	Ⴡ	cut_l_stereo_44KHz.wav
1	87	3	4	2	I	2	0	1038	0	Ⴃ	cut_w_stereo_44KHz.wav
1	88	4	4	2	I	1	0	998	1	Ⴟ	cut_w_stereo_44KHz.wav
1	89	3	3	2	I	2	0	748	1	Ⴃ	cut_h_stereo_44KHz.wav
1	90	1	1	1	C	2	1	1644	1	Ⴡ	cut_g_stereo_44KHz.wav
1	91	2	2	1	C	2	1	1350	1	Ⴁ	cut_l_stereo_44KHz.wav
1	92	4	4	2	I	2	0	761	1	Ⴟ	cut_w_stereo_44KHz.wav
1	93	2	1	0	C	1	1	1509	1	Ⴁ	cut_g_stereo_44KHz.wav
1	94	1	2	0	C	1	1	1509	1	Ⴡ	cut_l_stereo_44KHz.wav
1	95	4	3	2	I	2	0	1002	1	Ⴟ	cut_h_stereo_44KHz.wav
1	96	3	4	2	I	2	0	922	0	Ⴃ	cut_w_stereo_44KHz.wav
1	97	2	1	0	C	1	1	1147	1	Ⴁ	cut_g_stereo_44KHz.wav
1	98	4	3	2	I	2	0	963	0	Ⴟ	cut_h_stereo_44KHz.wav
1	99	1	1	1	C	2	1	1153	1	Ⴡ	cut_g_stereo_44KHz.wav
1	100	3	3	2	I	2	0	1117	1	Ⴃ	cut_h_stereo_44KHz.wav
1	101	1	2	0	C	1	1	1127	1	Ⴡ	cut_l_stereo_44KHz.wav
1	102	2	2	1	C	2	1	1086	1	Ⴁ	cut_l_stereo_44KHz.wav
1	103	3	4	2	I	2	0	1126	1	Ⴃ	cut_w_stereo_44KHz.wav
1	104	4	4	2	I	1	0	1200	0	Ⴟ	cut_w_stereo_44KHz.wav
1	105	2	2	1	C	2	1	1433	1	Ⴁ	cut_l_stereo_44KHz.wav
1	106	4	4	2	I	2	0	692	1	Ⴟ	cut_w_stereo_44KHz.wav
1	107	1	1	1	C	0	0	0	0	Ⴡ	cut_g_stereo_44KHz.wav
1	108	3	3	2	I	2	0	1417	1	Ⴃ	cut_h_stereo_44KHz.wav
1	109	4	3	2	I	2	0	1008	1	Ⴟ	cut_h_stereo_44KHz.wav
1	110	1	2	0	C	2	0	1074	0	Ⴡ	cut_l_stereo_44KHz.wav
1	111	2	1	0	C	1	1	1640	1	Ⴁ	cut_g_stereo_44KHz.wav
1	112	3	4	2	I	2	0	709	1	Ⴃ	cut_w_stereo_44KHz.wav
1	113	4	4	2	I	2	0	819	1	Ⴟ	cut_w_stereo_44KHz.wav
1	114	3	4	2	I	2	0	969	1	Ⴃ	cut_w_stereo_44KHz.wav
1	115	1	1	1	C	2	1	735	1	Ⴡ	cut_g_stereo_44KHz.wav
1	116	2	1	0	C	1	1	1586	1	Ⴁ	cut_g_stereo_44KHz.wav
1	117	3	3	2	I	2	0	844	1	Ⴃ	cut_h_stereo_44KHz.wav
1	118	1	2	0	C	1	1	809	1	Ⴡ	cut_l_stereo_44KHz.wav
1	119	4	3	2	I	2	0	1151	1	Ⴟ	cut_h_stereo_44KHz.wav
1	120	2	2	1	C	2	1	1472	1	Ⴁ	cut_l_stereo_44KHz.wav
1	121	1	2	0	C	1	1	1151	1	Ⴡ	cut_l_stereo_44KHz.wav
1	122	4	3	2	I	0	0	0	0	Ⴟ	cut_h_stereo_44KHz.wav
1	123	3	3	2	I	2	0	1051	0	Ⴃ	cut_h_stereo_44KHz.wav
1	124	2	1	0	C	1	1	824	1	Ⴁ	cut_g_stereo_44KHz.wav
1	125	4	4	2	I	2	0	753	1	Ⴟ	cut_w_stereo_44KHz.wav
1	126	3	4	2	I	2	0	716	1	Ⴃ	cut_w_stereo_44KHz.wav
1	127	2	2	1	C	0	0	0	0	Ⴁ	cut_l_stereo_44KHz.wav
1	128	1	1	1	C	2	1	911	1	Ⴡ	cut_g_stereo_44KHz.wav
1	129	3	4	2	I	1	0	1962	1	Ⴃ	cut_w_stereo_44KHz.wav
1	130	1	2	0	C	1	1	942	1	Ⴡ	cut_l_stereo_44KHz.wav
1	131	2	2	1	C	2	1	1288	1	Ⴁ	cut_l_stereo_44KHz.wav
1	132	4	4	2	I	2	0	1032	1	Ⴟ	cut_w_stereo_44KHz.wav
1	133	2	1	0	C	1	1	935	1	Ⴁ	cut_g_stereo_44KHz.wav
1	134	3	3	2	I	2	0	903	1	Ⴃ	cut_h_stereo_44KHz.wav
1	135	4	3	2	I	2	0	983	0	Ⴟ	cut_h_stereo_44KHz.wav
1	136	1	1	1	C	2	1	1975	1	Ⴡ	cut_g_stereo_44KHz.wav
1	137	3	3	2	I	2	0	814	0	Ⴃ	cut_h_stereo_44KHz.wav
1	138	1	1	1	C	2	1	782	1	Ⴡ	cut_g_stereo_44KHz.wav
1	139	2	2	1	C	2	1	942	1	Ⴁ	cut_l_stereo_44KHz.wav
1	140	4	3	2	I	2	0	713	1	Ⴟ	cut_h_stereo_44KHz.wav
1	141	1	2	0	C	1	1	1113	1	Ⴡ	cut_l_stereo_44KHz.wav
1	142	2	1	0	C	2	0	1071	0	Ⴁ	cut_g_stereo_44KHz.wav
1	143	3	4	2	I	0	0	0	0	Ⴃ	cut_w_stereo_44KHz.wav
1	144	4	4	2	I	2	0	652	1	Ⴟ	cut_w_stereo_44KHz.wav
1	145	1	2	0	C	2	0	846	0	Ⴡ	cut_l_stereo_44KHz.wav
1	146	2	2	1	C	2	1	1218	1	Ⴁ	cut_l_stereo_44KHz.wav
1	147	4	3	2	I	2	0	832	1	Ⴟ	cut_h_stereo_44KHz.wav
1	148	3	4	2	I	2	0	826	1	Ⴃ	cut_w_stereo_44KHz.wav
1	149	1	1	1	C	2	1	1151	1	Ⴡ	cut_g_stereo_44KHz.wav
1	150	4	4	2	I	2	0	744	1	Ⴟ	cut_w_stereo_44KHz.wav
1	151	3	3	2	I	2	0	1075	1	Ⴃ	cut_h_stereo_44KHz.wav
1	152	2	1	0	C	1	1	1310	1	Ⴁ	cut_g_stereo_44KHz.wav
1	153	3	4	2	I	2	0	1185	1	Ⴃ	cut_w_stereo_44KHz.wav
1	154	4	4	2	I	2	0	816	1	Ⴟ	cut_w_stereo_44KHz.wav
1	155	2	1	0	C	1	1	1338	1	Ⴁ	cut_g_stereo_44KHz.wav
1	156	1	1	1	C	2	1	1209	1	Ⴡ	cut_g_stereo_44KHz.wav
1	157	4	3	2	I	2	0	1356	1	Ⴟ	cut_h_stereo_44KHz.wav
1	158	3	3	2	I	2	0	1765	0	Ⴃ	cut_h_stereo_44KHz.wav
1	159	1	2	0	C	1	1	1594	1	Ⴡ	cut_l_stereo_44KHz.wav
1	160	2	2	1	C	2	1	1061	1	Ⴁ	cut_l_stereo_44KHz.wav
1	161	3	3	2	I	0	0	0	0	Ⴃ	cut_h_stereo_44KHz.wav
1	162	1	2	0	C	1	1	852	1	Ⴡ	cut_l_stereo_44KHz.wav
1	163	2	2	1	C	0	0	0	0	Ⴁ	cut_l_stereo_44KHz.wav
1	164	4	3	2	I	2	0	757	0	Ⴟ	cut_h_stereo_44KHz.wav
1	165	1	1	1	C	2	1	1243	1	Ⴡ	cut_g_stereo_44KHz.wav
1	166	2	1	0	C	1	1	955	1	Ⴁ	cut_g_stereo_44KHz.wav
1	167	4	4	2	I	2	0	1214	1	Ⴟ	cut_w_stereo_44KHz.wav
1	168	3	4	2	I	0	0	0	0	Ⴃ	cut_w_stereo_44KHz.wav
1	169	2	2	1	C	2	1	931	1	Ⴁ	cut_l_stereo_44KHz.wav
1	170	1	2	0	C	1	1	981	1	Ⴡ	cut_l_stereo_44KHz.wav
1	171	4	3	2	I	0	0	0	0	Ⴟ	cut_h_stereo_44KHz.wav
1	172	3	3	2	I	0	0	0	0	Ⴃ	cut_h_stereo_44KHz.wav
1	173	2	1	0	C	1	1	826	1	Ⴁ	cut_g_stereo_44KHz.wav
1	174	3	4	2	I	0	0	0	0	Ⴃ	cut_w_stereo_44KHz.wav
1	175	1	1	1	C	0	0	0	0	Ⴡ	cut_g_stereo_44KHz.wav
1	176	4	4	2	I	0	0	0	0	Ⴟ	cut_w_stereo_44KHz.wav
1	177	2	1	0	C	1	1	1035	1	Ⴁ	cut_g_stereo_44KHz.wav
1	178	1	2	0	C	1	1	1362	1	Ⴡ	cut_l_stereo_44KHz.wav
1	179	4	3	2	I	0	0	0	0	Ⴟ	cut_h_stereo_44KHz.wav
1	180	3	3	2	I	2	0	851	0	Ⴃ	cut_h_stereo_44KHz.wav
1	181	1	1	1	C	2	1	1107	1	Ⴡ	cut_g_stereo_44KHz.wav
1	182	4	4	2	I	2	0	1193	0	Ⴟ	cut_w_stereo_44KHz.wav
1	183	2	2	1	C	2	1	1052	1	Ⴁ	cut_l_stereo_44KHz.wav
1	184	3	4	2	I	2	0	1154	0	Ⴃ	cut_w_stereo_44KHz.wav
1	185	4	3	2	I	2	0	1184	1	Ⴟ	cut_h_stereo_44KHz.wav
1	186	1	2	0	C	1	1	1084	1	Ⴡ	cut_l_stereo_44KHz.wav
1	187	3	3	2	I	0	0	0	0	Ⴃ	cut_h_stereo_44KHz.wav
1	188	2	2	1	C	2	1	1048	1	Ⴁ	cut_l_stereo_44KHz.wav
1	189	3	4	2	I	1	0	1743	1	Ⴃ	cut_w_stereo_44KHz.wav
1	190	2	1	0	C	1	1	770	1	Ⴁ	cut_g_stereo_44KHz.wav
1	191	1	1	1	C	2	1	1284	1	Ⴡ	cut_g_stereo_44KHz.wav
1	192	4	4	2	I	2	0	1567	0	Ⴟ	cut_w_stereo_44KHz.wav
1	193	2	1	0	C	1	1	1227	1	Ⴁ	cut_g_stereo_44KHz.wav
1	194	3	3	2	I	2	0	814	1	Ⴃ	cut_h_stereo_44KHz.wav
1	195	4	4	2	I	2	0	1441	1	Ⴟ	cut_w_stereo_44KHz.wav
1	196	1	2	0	C	1	1	899	1	Ⴡ	cut_l_stereo_44KHz.wav
1	197	4	3	2	I	2	0	683	1	Ⴟ	cut_h_stereo_44KHz.wav
1	198	1	1	1	C	2	1	959	1	Ⴡ	cut_g_stereo_44KHz.wav
1	199	2	2	1	C	2	1	965	1	Ⴁ	cut_l_stereo_44KHz.wav
1	200	3	4	2	I	2	0	769	1	Ⴃ	cut_w_stereo_44KHz.wav
2	1	2	1	0	C	2	0	1567	0	Ⴊ	cut_s_stereo_44KHz.wav
2	2	1	2	0	C	1	1	744	1	Ⴇ	cut_f_stereo_44KHz.wav
2	3	4	4	2	I	2	0	962	1	Ⴜ	cut_n_stereo_44KHz.wav
2	4	3	3	2	I	2	0	882	1	Ⴂ	cut_r_stereo_44KHz.wav
2	5	4	3	2	I	2	0	983	1	Ⴜ	cut_r_stereo_44KHz.wav
2	6	2	2	1	C	1	0	1523	0	Ⴊ	cut_f_stereo_44KHz.wav
2	7	3	4	2	I	2	0	1448	1	Ⴂ	cut_n_stereo_44KHz.wav
2	8	1	1	1	C	2	1	1169	1	Ⴇ	cut_s_stereo_44KHz.wav
2	9	4	3	2	I	1	0	1427	1	Ⴜ	cut_r_stereo_44KHz.wav
2	10	3	4	2	I	2	0	805	1	Ⴂ	cut_n_stereo_44KHz.wav
2	11	2	1	0	C	2	0	673	0	Ⴊ	cut_s_stereo_44KHz.wav
2	12	1	2	0	C	1	1	1170	1	Ⴇ	cut_f_stereo_44KHz.wav
2	13	4	4	2	I	2	0	1250	1	Ⴜ	cut_n_stereo_44KHz.wav
2	14	1	1	1	C	2	1	1555	1	Ⴇ	cut_s_stereo_44KHz.wav
2	15	3	3	2	I	1	0	1099	1	Ⴂ	cut_r_stereo_44KHz.wav
2	16	2	2	1	C	1	0	1021	0	Ⴊ	cut_f_stereo_44KHz.wav
2	17	4	4	2	I	2	0	872	1	Ⴜ	cut_n_stereo_44KHz.wav
2	18	2	2	1	C	1	0	1120	0	Ⴊ	cut_f_stereo_44KHz.wav
2	19	1	1	1	C	2	1	965	1	Ⴇ	cut_s_stereo_44KHz.wav
2	20	3	4	2	I	2	0	1086	1	Ⴂ	cut_n_stereo_44KHz.wav
2	21	2	1	0	C	0	0	0	0	Ⴊ	cut_s_stereo_44KHz.wav
2	22	1	2	0	C	2	0	660	0	Ⴇ	cut_f_stereo_44KHz.wav
2	23	3	3	2	I	1	0	899	1	Ⴂ	cut_r_stereo_44KHz.wav
2	24	4	3	2	I	2	0	1700	1	Ⴜ	cut_r_stereo_44KHz.wav
2	25	3	4	2	I	1	0	1519	1	Ⴂ	cut_n_stereo_44KHz.wav
2	26	4	3	2	I	2	0	1458	0	Ⴜ	cut_r_stereo_44KHz.wav
2	27	1	2	0	C	1	1	1738	1	Ⴇ	cut_f_stereo_44KHz.wav
2	28	2	2	1	C	2	1	1095	1	Ⴊ	cut_f_stereo_44KHz.wav
2	29	3	3	2	I	2	0	1358	1	Ⴂ	cut_r_stereo_44KHz.wav
2	30	2	1	0	C	0	0	0	0	Ⴊ	cut_s_stereo_44KHz.wav
2	31	1	1	1	C	2	1	1391	1	Ⴇ	cut_s_stereo_44KHz.wav
2	32	4	4	2	I	0	0	0	0	Ⴜ	cut_n_stereo_44KHz.wav
2	33	1	2	0	C	1	1	1109	1	Ⴇ	cut_f_stereo_44KHz.wav
2	34	4	4	2	I	2	0	590	1	Ⴜ	cut_n_stereo_44KHz.wav
2	35	2	1	0	C	1	1	873	1	Ⴊ	cut_s_stereo_44KHz.wav
2	36	3	4	2	I	1	0	881	1	Ⴂ	cut_n_stereo_44KHz.wav
2	37	1	1	1	C	2	1	683	1	Ⴇ	cut_s_stereo_44KHz.wav
2	38	4	3	2	I	1	0	1023	1	Ⴜ	cut_r_stereo_44KHz.wav
2	39	3	3	2	I	2	0	791	1	Ⴂ	cut_r_stereo_44KHz.wav
2	40	2	2	1	C	1	0	1619	0	Ⴊ	cut_f_stereo_44KHz.wav
2	41	4	3	2	I	2	0	504	1	Ⴜ	cut_r_stereo_44KHz.wav
2	42	1	2	0	C	1	1	887	1	Ⴇ	cut_f_stereo_44KHz.wav
2	43	2	2	1	C	2	1	1100	1	Ⴊ	cut_f_stereo_44KHz.wav
2	44	3	3	2	I	1	0	1311	0	Ⴂ	cut_r_stereo_44KHz.wav
2	45	1	1	1	C	2	1	881	1	Ⴇ	cut_s_stereo_44KHz.wav
2	46	4	4	2	I	1	0	734	0	Ⴜ	cut_n_stereo_44KHz.wav
2	47	2	1	0	C	0	0	0	0	Ⴊ	cut_s_stereo_44KHz.wav
2	48	3	4	2	I	1	0	1175	1	Ⴂ	cut_n_stereo_44KHz.wav
2	49	1	2	0	C	2	0	1245	0	Ⴇ	cut_f_stereo_44KHz.wav
2	50	2	2	1	C	1	0	1610	0	Ⴊ	cut_f_stereo_44KHz.wav
2	51	3	4	2	I	1	0	1761	1	Ⴂ	cut_n_stereo_44KHz.wav
2	52	4	4	2	I	2	0	879	1	Ⴜ	cut_n_stereo_44KHz.wav
2	53	1	1	1	C	1	0	814	0	Ⴇ	cut_s_stereo_44KHz.wav
2	54	2	1	0	C	1	1	1124	1	Ⴊ	cut_s_stereo_44KHz.wav
2	55	3	3	2	I	2	0	1458	0	Ⴂ	cut_r_stereo_44KHz.wav
2	56	4	3	2	I	2	0	878	1	Ⴜ	cut_r_stereo_44KHz.wav
2	57	2	2	1	C	2	1	1017	1	Ⴊ	cut_f_stereo_44KHz.wav
2	58	1	2	0	C	2	0	955	0	Ⴇ	cut_f_stereo_44KHz.wav
2	59	3	3	2	I	2	0	1268	1	Ⴂ	cut_r_stereo_44KHz.wav
2	60	4	3	2	I	2	0	852	1	Ⴜ	cut_r_stereo_44KHz.wav
2	61	3	4	2	I	1	0	1078	1	Ⴂ	cut_n_stereo_44KHz.wav
2	62	4	4	2	I	0	0	0	0	Ⴜ	cut_n_stereo_44KHz.wav
2	63	1	1	1	C	2	1	1256	1	Ⴇ	cut_s_stereo_44KHz.wav
2	64	2	1	0	C	1	1	1035	1	Ⴊ	cut_s_stereo_44KHz.wav
2	65	3	3	2	I	2	0	1240	1	Ⴂ	cut_r_stereo_44KHz.wav
2	66	4	4	2	I	2	0	714	1	Ⴜ	cut_n_stereo_44KHz.wav
2	67	2	1	0	C	1	1	1001	1	Ⴊ	cut_s_stereo_44KHz.wav
2	68	1	2	0	C	1	1	1019	1	Ⴇ	cut_f_stereo_44KHz.wav
2	69	4	3	2	I	0	0	0	0	Ⴜ	cut_r_stereo_44KHz.wav
2	70	1	1	1	C	2	1	650	1	Ⴇ	cut_s_stereo_44KHz.wav
2	71	3	4	2	I	1	0	959	0	Ⴂ	cut_n_stereo_44KHz.wav
2	72	2	2	1	C	2	1	1270	1	Ⴊ	cut_f_stereo_44KHz.wav
2	73	4	4	2	I	1	0	537	1	Ⴜ	cut_n_stereo_44KHz.wav
2	74	1	1	1	C	1	0	1819	0	Ⴇ	cut_s_stereo_44KHz.wav
2	75	3	4	2	I	1	0	1268	1	Ⴂ	cut_n_stereo_44KHz.wav
2	76	2	2	1	C	1	0	1052	0	Ⴊ	cut_f_stereo_44KHz.wav
2	77	4	3	2	I	2	0	809	1	Ⴜ	cut_r_stereo_44KHz.wav
2	78	1	2	0	C	1	1	1240	1	Ⴇ	cut_f_stereo_44KHz.wav
2	79	3	3	2	I	2	0	1191	1	Ⴂ	cut_r_stereo_44KHz.wav
2	80	2	1	0	C	1	1	1583	1	Ⴊ	cut_s_stereo_44KHz.wav
2	81	4	3	2	I	2	0	723	1	Ⴜ	cut_r_stereo_44KHz.wav
2	82	1	2	0	C	2	0	831	0	Ⴇ	cut_f_stereo_44KHz.wav
2	83	3	4	2	I	1	0	1825	1	Ⴂ	cut_n_stereo_44KHz.wav
2	84	2	2	1	C	1	0	1127	0	Ⴊ	cut_f_stereo_44KHz.wav
2	85	1	1	1	C	2	1	964	1	Ⴇ	cut_s_stereo_44KHz.wav
2	86	3	3	2	I	2	0	1214	1	Ⴂ	cut_r_stereo_44KHz.wav
2	87	4	4	2	I	1	0	1640	1	Ⴜ	cut_n_stereo_44KHz.wav
2	88	2	1	0	C	1	1	1086	1	Ⴊ	cut_s_stereo_44KHz.wav
2	89	1	2	0	C	2	0	1184	0	Ⴇ	cut_f_stereo_44KHz.wav
2	90	4	3	2	I	1	0	760	1	Ⴜ	cut_r_stereo_44KHz.wav
2	91	2	1	0	C	2	0	411	0	Ⴊ	cut_s_stereo_44KHz.wav
2	92	3	4	2	I	1	0	826	1	Ⴂ	cut_n_stereo_44KHz.wav
2	93	2	2	1	C	1	0	926	0	Ⴊ	cut_f_stereo_44KHz.wav
2	94	1	1	1	C	2	1	739	1	Ⴇ	cut_s_stereo_44KHz.wav
2	95	3	3	2	I	1	0	820	1	Ⴂ	cut_r_stereo_44KHz.wav
2	96	4	4	2	I	2	0	501	1	Ⴜ	cut_n_stereo_44KHz.wav
2	97	1	1	1	C	1	0	1392	0	Ⴇ	cut_s_stereo_44KHz.wav
2	98	4	3	2	I	2	0	711	0	Ⴜ	cut_r_stereo_44KHz.wav
2	99	3	3	2	I	2	0	1087	0	Ⴂ	cut_r_stereo_44KHz.wav
2	100	2	1	0	C	1	1	1192	1	Ⴊ	cut_s_stereo_44KHz.wav
2	101	4	4	2	I	2	0	627	1	Ⴜ	cut_n_stereo_44KHz.wav
2	102	2	2	1	C	1	0	1158	0	Ⴊ	cut_f_stereo_44KHz.wav
2	103	1	2	0	C	2	0	690	0	Ⴇ	cut_f_stereo_44KHz.wav
2	104	3	4	2	I	1	0	841	1	Ⴂ	cut_n_stereo_44KHz.wav
2	105	1	2	0	C	2	0	663	0	Ⴇ	cut_f_stereo_44KHz.wav
2	106	4	3	2	I	2	0	1007	1	Ⴜ	cut_r_stereo_44KHz.wav
2	107	3	4	2	I	1	0	892	1	Ⴂ	cut_n_stereo_44KHz.wav
2	108	2	2	1	C	2	1	987	1	Ⴊ	cut_f_stereo_44KHz.wav
2	109	1	1	1	C	2	1	939	1	Ⴇ	cut_s_stereo_44KHz.wav
2	110	2	1	0	C	1	1	621	1	Ⴊ	cut_s_stereo_44KHz.wav
2	111	4	4	2	I	2	0	693	1	Ⴜ	cut_n_stereo_44KHz.wav
2	112	3	3	2	I	1	0	845	1	Ⴂ	cut_r_stereo_44KHz.wav
2	113	4	4	2	I	1	0	639	1	Ⴜ	cut_n_stereo_44KHz.wav
2	114	2	1	0	C	2	0	831	0	Ⴊ	cut_s_stereo_44KHz.wav
2	115	3	4	2	I	1	0	1195	0	Ⴂ	cut_n_stereo_44KHz.wav
2	116	1	1	1	C	2	1	791	1	Ⴇ	cut_s_stereo_44KHz.wav
2	117	2	2	1	C	2	1	886	1	Ⴊ	cut_f_stereo_44KHz.wav
2	118	3	3	2	I	1	0	912	1	Ⴂ	cut_r_stereo_44KHz.wav
2	119	4	3	2	I	1	0	1039	1	Ⴜ	cut_r_stereo_44KHz.wav
2	120	1	2	0	C	2	0	731	0	Ⴇ	cut_f_stereo_44KHz.wav
2	121	2	1	0	C	1	1	773	1	Ⴊ	cut_s_stereo_44KHz.wav
2	122	1	1	1	C	2	1	918	1	Ⴇ	cut_s_stereo_44KHz.wav
2	123	3	3	2	I	1	0	784	0	Ⴂ	cut_r_stereo_44KHz.wav
2	124	4	3	2	I	2	0	566	1	Ⴜ	cut_r_stereo_44KHz.wav
2	125	1	2	0	C	1	1	763	1	Ⴇ	cut_f_stereo_44KHz.wav
2	126	4	4	2	I	2	0	673	1	Ⴜ	cut_n_stereo_44KHz.wav
2	127	2	2	1	C	1	0	980	0	Ⴊ	cut_f_stereo_44KHz.wav
2	128	3	4	2	I	2	0	1079	1	Ⴂ	cut_n_stereo_44KHz.wav
2	129	2	2	1	C	2	1	630	1	Ⴊ	cut_f_stereo_44KHz.wav
2	130	3	4	2	I	1	0	657	0	Ⴂ	cut_n_stereo_44KHz.wav
2	131	1	1	1	C	2	1	1272	1	Ⴇ	cut_s_stereo_44KHz.wav
2	132	4	3	2	I	2	0	679	1	Ⴜ	cut_r_stereo_44KHz.wav
2	133	2	1	0	C	1	1	422	1	Ⴊ	cut_s_stereo_44KHz.wav
2	134	3	3	2	I	2	0	730	1	Ⴂ	cut_r_stereo_44KHz.wav
2	135	4	4	2	I	1	0	605	1	Ⴜ	cut_n_stereo_44KHz.wav
2	136	1	2	0	C	1	1	426	1	Ⴇ	cut_f_stereo_44KHz.wav
2	137	4	4	2	I	1	0	599	1	Ⴜ	cut_n_stereo_44KHz.wav
2	138	2	2	1	C	1	0	912	0	Ⴊ	cut_f_stereo_44KHz.wav
2	139	3	3	2	I	2	0	946	1	Ⴂ	cut_r_stereo_44KHz.wav
2	140	1	1	1	C	1	0	929	0	Ⴇ	cut_s_stereo_44KHz.wav
2	141	4	3	2	I	2	0	564	0	Ⴜ	cut_r_stereo_44KHz.wav
2	142	3	4	2	I	1	0	998	0	Ⴂ	cut_n_stereo_44KHz.wav
2	143	1	2	0	C	1	1	821	1	Ⴇ	cut_f_stereo_44KHz.wav
2	144	2	1	0	C	1	1	1118	1	Ⴊ	cut_s_stereo_44KHz.wav
2	145	1	1	1	C	2	1	810	1	Ⴇ	cut_s_stereo_44KHz.wav
2	146	4	3	2	I	2	0	1175	1	Ⴜ	cut_r_stereo_44KHz.wav
2	147	3	3	2	I	1	0	615	1	Ⴂ	cut_r_stereo_44KHz.wav
2	148	2	1	0	C	1	1	825	1	Ⴊ	cut_s_stereo_44KHz.wav
2	149	3	4	2	I	1	0	467	0	Ⴂ	cut_n_stereo_44KHz.wav
2	150	1	2	0	C	2	0	777	0	Ⴇ	cut_f_stereo_44KHz.wav
2	151	4	4	2	I	1	0	932	1	Ⴜ	cut_n_stereo_44KHz.wav
2	152	2	2	1	C	0	0	0	0	Ⴊ	cut_f_stereo_44KHz.wav
2	153	1	2	0	C	1	1	1589	1	Ⴇ	cut_f_stereo_44KHz.wav
2	154	4	4	2	I	1	0	541	0	Ⴜ	cut_n_stereo_44KHz.wav
2	155	3	4	2	I	2	0	707	1	Ⴂ	cut_n_stereo_44KHz.wav
2	156	2	1	0	C	1	1	734	1	Ⴊ	cut_s_stereo_44KHz.wav
2	157	1	1	1	C	1	0	630	0	Ⴇ	cut_s_stereo_44KHz.wav
2	158	2	2	1	C	1	0	450	0	Ⴊ	cut_f_stereo_44KHz.wav
2	159	4	3	2	I	2	0	607	0	Ⴜ	cut_r_stereo_44KHz.wav
2	160	3	3	2	I	1	0	646	1	Ⴂ	cut_r_stereo_44KHz.wav
2	161	4	3	2	I	2	0	608	0	Ⴜ	cut_r_stereo_44KHz.wav
2	162	1	1	1	C	2	1	562	1	Ⴇ	cut_s_stereo_44KHz.wav
2	163	3	3	2	I	1	0	752	1	Ⴂ	cut_r_stereo_44KHz.wav
2	164	2	1	0	C	1	1	606	1	Ⴊ	cut_s_stereo_44KHz.wav
2	165	1	2	0	C	1	1	729	1	Ⴇ	cut_f_stereo_44KHz.wav
2	166	4	4	2	I	1	0	605	1	Ⴜ	cut_n_stereo_44KHz.wav
2	167	2	2	1	C	1	0	470	0	Ⴊ	cut_f_stereo_44KHz.wav
2	168	3	4	2	I	1	0	793	1	Ⴂ	cut_n_stereo_44KHz.wav
2	169	2	2	1	C	2	1	698	1	Ⴊ	cut_f_stereo_44KHz.wav
2	170	1	1	1	C	2	1	813	1	Ⴇ	cut_s_stereo_44KHz.wav
2	171	4	3	2	I	1	0	1824	1	Ⴜ	cut_r_stereo_44KHz.wav
2	172	3	4	2	I	1	0	878	1	Ⴂ	cut_n_stereo_44KHz.wav
2	173	2	1	0	C	1	1	866	1	Ⴊ	cut_s_stereo_44KHz.wav
2	174	1	2	0	C	2	0	1261	0	Ⴇ	cut_f_stereo_44KHz.wav
2	175	4	4	2	I	1	0	778	1	Ⴜ	cut_n_stereo_44KHz.wav
2	176	3	3	2	I	1	0	748	1	Ⴂ	cut_r_stereo_44KHz.wav
2	177	1	2	0	C	1	1	702	1	Ⴇ	cut_f_stereo_44KHz.wav
2	178	3	4	2	I	1	0	517	0	Ⴂ	cut_n_stereo_44KHz.wav
2	179	4	4	2	I	2	0	515	0	Ⴜ	cut_n_stereo_44KHz.wav
2	180	2	2	1	C	1	0	595	0	Ⴊ	cut_f_stereo_44KHz.wav
2	181	1	1	1	C	2	1	720	1	Ⴇ	cut_s_stereo_44KHz.wav
2	182	3	3	2	I	1	0	760	1	Ⴂ	cut_r_stereo_44KHz.wav
2	183	2	1	0	C	1	1	972	1	Ⴊ	cut_s_stereo_44KHz.wav
2	184	4	3	2	I	1	0	797	1	Ⴜ	cut_r_stereo_44KHz.wav
2	185	2	1	0	C	2	0	538	0	Ⴊ	cut_s_stereo_44KHz.wav
2	186	1	2	0	C	1	1	832	1	Ⴇ	cut_f_stereo_44KHz.wav
2	187	4	4	2	I	1	0	733	1	Ⴜ	cut_n_stereo_44KHz.wav
2	188	3	3	2	I	1	0	735	1	Ⴂ	cut_r_stereo_44KHz.wav
2	189	1	1	1	C	1	0	1044	0	Ⴇ	cut_s_stereo_44KHz.wav
2	190	2	2	1	C	2	1	601	1	Ⴊ	cut_f_stereo_44KHz.wav
2	191	4	3	2	I	2	0	783	1	Ⴜ	cut_r_stereo_44KHz.wav
2	192	3	4	2	I	1	0	791	1	Ⴂ	cut_n_stereo_44KHz.wav
2	193	2	2	1	C	1	0	727	0	Ⴊ	cut_f_stereo_44KHz.wav
2	194	3	3	2	I	1	0	1121	1	Ⴂ	cut_r_stereo_44KHz.wav
2	195	4	3	2	I	2	0	540	1	Ⴜ	cut_r_stereo_44KHz.wav
2	196	1	1	1	C	1	0	616	0	Ⴇ	cut_s_stereo_44KHz.wav
2	197	2	1	0	C	2	0	969	0	Ⴊ	cut_s_stereo_44KHz.wav
2	198	1	2	0	C	1	1	908	1	Ⴇ	cut_f_stereo_44KHz.wav
2	199	4	4	2	I	2	0	826	1	Ⴜ	cut_n_stereo_44KHz.wav
2	200	3	4	2	I	1	0	756	1	Ⴂ	cut_n_stereo_44KHz.wav
3	1	1	2	0	C	2	0	1043	0	Ⴒ	cut_u_stereo_44KHz.wav
3	2	3	4	2	I	2	0	788	0	Ⴖ	cut_a_stereo_44KHz.wav
3	3	4	3	2	I	1	0	732	1	Ⴌ	cut_k_stereo_44KHz.wav
3	4	2	1	0	C	1	1	752	1	Ⴔ	cut_o_stereo_44KHz.wav
3	5	4	4	2	I	1	0	625	1	Ⴌ	cut_a_stereo_44KHz.wav
3	6	1	1	1	C	2	1	908	1	Ⴒ	cut_o_stereo_44KHz.wav
3	7	2	2	1	C	2	1	487	1	Ⴔ	cut_u_stereo_44KHz.wav
3	8	3	3	2	I	1	0	644	1	Ⴖ	cut_k_stereo_44KHz.wav
3	9	2	1	0	C	1	1	686	1	Ⴔ	cut_o_stereo_44KHz.wav
3	10	3	4	2	I	2	0	447	1	Ⴖ	cut_a_stereo_44KHz.wav
3	11	1	1	1	C	0	0	0	0	Ⴒ	cut_o_stereo_44KHz.wav
3	12	4	4	2	I	1	0	766	1	Ⴌ	cut_a_stereo_44KHz.wav
3	13	1	2	0	C	2	0	701	0	Ⴒ	cut_u_stereo_44KHz.wav
3	14	2	2	1	C	1	0	1007	0	Ⴔ	cut_u_stereo_44KHz.wav
3	15	3	3	2	I	1	0	895	1	Ⴖ	cut_k_stereo_44KHz.wav
3	16	4	3	2	I	2	0	524	1	Ⴌ	cut_k_stereo_44KHz.wav
3	17	3	3	2	I	1	0	711	0	Ⴖ	cut_k_stereo_44KHz.wav
3	18	1	2	0	C	1	1	157	1	Ⴒ	cut_u_stereo_44KHz.wav
3	19	2	2	1	C	1	0	622	0	Ⴔ	cut_u_stereo_44KHz.wav
3	20	4	3	2	I	2	0	725	1	Ⴌ	cut_k_stereo_44KHz.wav
3	21	2	1	0	C	1	1	623	1	Ⴔ	cut_o_stereo_44KHz.wav
3	22	3	4	2	I	1	0	569	1	Ⴖ	cut_a_stereo_44KHz.wav
3	23	1	1	1	C	1	0	413	0	Ⴒ	cut_o_stereo_44KHz.wav
3	24	4	4	2	I	1	0	643	1	Ⴌ	cut_a_stereo_44KHz.wav
3	25	1	2	0	C	2	0	665	0	Ⴒ	cut_u_stereo_44KHz.wav
3	26	3	4	2	I	1	0	1157	1	Ⴖ	cut_a_stereo_44KHz.wav
3	27	4	3	2	I	1	0	767	1	Ⴌ	cut_k_stereo_44KHz.wav
3	28	2	1	0	C	2	0	578	0	Ⴔ	cut_o_stereo_44KHz.wav
3	29	4	4	2	I	1	0	536	1	Ⴌ	cut_a_stereo_44KHz.wav
3	30	1	1	1	C	1	0	624	0	Ⴒ	cut_o_stereo_44KHz.wav
3	31	3	3	2	I	1	0	810	1	Ⴖ	cut_k_stereo_44KHz.wav
3	32	2	2	1	C	1	0	979	0	Ⴔ	cut_u_stereo_44KHz.wav
3	33	3	3	2	I	1	0	720	1	Ⴖ	cut_k_stereo_44KHz.wav
3	34	2	1	0	C	2	0	543	0	Ⴔ	cut_o_stereo_44KHz.wav
3	35	1	2	0	C	1	1	633	1	Ⴒ	cut_u_stereo_44KHz.wav
3	36	4	4	2	I	1	0	1191	0	Ⴌ	cut_a_stereo_44KHz.wav
3	37	1	1	1	C	2	1	488	1	Ⴒ	cut_o_stereo_44KHz.wav
3	38	4	3	2	I	1	0	449	0	Ⴌ	cut_k_stereo_44KHz.wav
3	39	3	4	2	I	1	0	766	1	Ⴖ	cut_a_stereo_44KHz.wav
3	40	2	2	1	C	1	0	787	0	Ⴔ	cut_u_stereo_44KHz.wav
3	41	1	1	1	C	2	1	605	1	Ⴒ	cut_o_stereo_44KHz.wav
3	42	3	3	2	I	1	0	881	1	Ⴖ	cut_k_stereo_44KHz.wav
3	43	4	3	2	I	1	0	1143	0	Ⴌ	cut_k_stereo_44KHz.wav
3	44	2	1	0	C	1	1	745	1	Ⴔ	cut_o_stereo_44KHz.wav
3	45	1	2	0	C	1	1	980	1	Ⴒ	cut_u_stereo_44KHz.wav
3	46	4	4	2	I	1	0	1368	1	Ⴌ	cut_a_stereo_44KHz.wav
3	47	3	4	2	I	1	0	341	0	Ⴖ	cut_a_stereo_44KHz.wav
3	48	2	2	1	C	2	1	632	1	Ⴔ	cut_u_stereo_44KHz.wav
3	49	4	3	2	I	1	0	619	0	Ⴌ	cut_k_stereo_44KHz.wav
3	50	2	1	0	C	1	1	809	1	Ⴔ	cut_o_stereo_44KHz.wav
3	51	1	1	1	C	1	0	754	0	Ⴒ	cut_o_stereo_44KHz.wav
3	52	3	4	2	I	2	0	402	1	Ⴖ	cut_a_stereo_44KHz.wav
3	53	4	4	2	I	1	0	993	1	Ⴌ	cut_a_stereo_44KHz.wav
3	54	1	2	0	C	2	0	828	0	Ⴒ	cut_u_stereo_44KHz.wav
3	55	2	2	1	C	1	0	681	0	Ⴔ	cut_u_stereo_44KHz.wav
3	56	3	3	2	I	2	0	727	0	Ⴖ	cut_k_stereo_44KHz.wav
3	57	4	4	2	I	1	0	587	1	Ⴌ	cut_a_stereo_44KHz.wav
3	58	3	4	2	I	1	0	452	1	Ⴖ	cut_a_stereo_44KHz.wav
3	59	2	2	1	C	1	0	614	0	Ⴔ	cut_u_stereo_44KHz.wav
3	60	1	1	1	C	2	1	606	1	Ⴒ	cut_o_stereo_44KHz.wav
3	61	2	1	0	C	1	1	778	1	Ⴔ	cut_o_stereo_44KHz.wav
3	62	3	3	2	I	1	0	646	1	Ⴖ	cut_k_stereo_44KHz.wav
3	63	1	2	0	C	2	0	618	0	Ⴒ	cut_u_stereo_44KHz.wav
3	64	4	3	2	I	1	0	568	1	Ⴌ	cut_k_stereo_44KHz.wav
3	65	2	2	1	C	0	0	0	0	Ⴔ	cut_u_stereo_44KHz.wav
3	66	3	4	2	I	1	0	520	1	Ⴖ	cut_a_stereo_44KHz.wav
3	67	4	3	2	I	2	0	377	1	Ⴌ	cut_k_stereo_44KHz.wav
3	68	1	2	0	C	1	1	386	1	Ⴒ	cut_u_stereo_44KHz.wav
3	69	2	1	0	C	2	0	309	0	Ⴔ	cut_o_stereo_44KHz.wav
3	70	3	3	2	I	1	0	604	1	Ⴖ	cut_k_stereo_44KHz.wav
3	71	1	1	1	C	1	0	302	0	Ⴒ	cut_o_stereo_44KHz.wav
3	72	4	4	2	I	2	0	551	1	Ⴌ	cut_a_stereo_44KHz.wav
3	73	2	1	0	C	1	1	511	1	Ⴔ	cut_o_stereo_44KHz.wav
3	74	1	2	0	C	2	0	417	0	Ⴒ	cut_u_stereo_44KHz.wav
3	75	4	3	2	I	2	0	337	1	Ⴌ	cut_k_stereo_44KHz.wav
3	76	3	3	2	I	1	0	567	1	Ⴖ	cut_k_stereo_44KHz.wav
3	77	1	1	1	C	2	1	326	1	Ⴒ	cut_o_stereo_44KHz.wav
3	78	2	2	1	C	2	1	443	1	Ⴔ	cut_u_stereo_44KHz.wav
3	79	4	4	2	I	1	0	391	1	Ⴌ	cut_a_stereo_44KHz.wav
3	80	3	4	2	I	2	0	403	0	Ⴖ	cut_a_stereo_44KHz.wav
3	81	2	1	0	C	1	1	469	1	Ⴔ	cut_o_stereo_44KHz.wav
3	82	4	4	2	I	1	0	427	1	Ⴌ	cut_a_stereo_44KHz.wav
3	83	3	4	2	I	2	0	390	1	Ⴖ	cut_a_stereo_44KHz.wav
3	84	1	1	1	C	1	0	446	0	Ⴒ	cut_o_stereo_44KHz.wav
3	85	4	3	2	I	2	0	506	1	Ⴌ	cut_k_stereo_44KHz.wav
3	86	3	3	2	I	1	0	454	1	Ⴖ	cut_k_stereo_44KHz.wav
3	87	1	2	0	C	2	0	296	0	Ⴒ	cut_u_stereo_44KHz.wav
3	88	2	2	1	C	1	0	468	0	Ⴔ	cut_u_stereo_44KHz.wav
3	89	4	3	2	I	2	0	736	1	Ⴌ	cut_k_stereo_44KHz.wav
3	90	1	2	0	C	1	1	372	1	Ⴒ	cut_u_stereo_44KHz.wav
3	91	3	3	2	I	2	0	316	1	Ⴖ	cut_k_stereo_44KHz.wav
3	92	2	2	1	C	1	0	416	0	Ⴔ	cut_u_stereo_44KHz.wav
3	93	1	1	1	C	2	1	316	1	Ⴒ	cut_o_stereo_44KHz.wav
3	94	4	4	2	I	2	0	374	1	Ⴌ	cut_a_stereo_44KHz.wav
3	95	2	1	0	C	1	1	860	1	Ⴔ	cut_o_stereo_44KHz.wav
3	96	3	4	2	I	2	0	367	1	Ⴖ	cut_a_stereo_44KHz.wav
3	97	2	1	0	C	1	1	639	1	Ⴔ	cut_o_stereo_44KHz.wav
3	98	4	3	2	I	2	0	423	1	Ⴌ	cut_k_stereo_44KHz.wav
3	99	1	2	0	C	1	1	499	1	Ⴒ	cut_u_stereo_44KHz.wav
3	100	3	3	2	I	2	0	425	1	Ⴖ	cut_k_stereo_44KHz.wav
3	101	1	1	1	C	1	0	483	0	Ⴒ	cut_o_stereo_44KHz.wav
3	102	2	2	1	C	2	1	489	1	Ⴔ	cut_u_stereo_44KHz.wav
3	103	3	4	2	I	2	0	473	1	Ⴖ	cut_a_stereo_44KHz.wav
3	104	4	4	2	I	1	0	434	1	Ⴌ	cut_a_stereo_44KHz.wav
3	105	1	2	0	C	2	0	715	0	Ⴒ	cut_u_stereo_44KHz.wav
3	106	3	4	2	I	2	0	358	1	Ⴖ	cut_a_stereo_44KHz.wav
3	107	4	4	2	I	1	0	441	1	Ⴌ	cut_a_stereo_44KHz.wav
3	108	2	1	0	C	2	0	317	0	Ⴔ	cut_o_stereo_44KHz.wav
3	109	3	3	2	I	1	0	731	1	Ⴖ	cut_k_stereo_44KHz.wav
3	110	2	2	1	C	2	1	459	1	Ⴔ	cut_u_stereo_44KHz.wav
3	111	1	1	1	C	1	0	435	0	Ⴒ	cut_o_stereo_44KHz.wav
3	112	4	3	2	I	2	0	474	1	Ⴌ	cut_k_stereo_44KHz.wav
3	113	1	2	0	C	0	0	0	0	Ⴒ	cut_u_stereo_44KHz.wav
3	114	3	3	2	I	2	0	659	1	Ⴖ	cut_k_stereo_44KHz.wav
3	115	4	4	2	I	2	0	534	1	Ⴌ	cut_a_stereo_44KHz.wav
3	116	2	1	0	C	2	0	389	0	Ⴔ	cut_o_stereo_44KHz.wav
3	117	3	4	2	I	1	0	375	1	Ⴖ	cut_a_stereo_44KHz.wav
3	118	2	2	1	C	1	0	354	0	Ⴔ	cut_u_stereo_44KHz.wav
3	119	4	3	2	I	2	0	1275	1	Ⴌ	cut_k_stereo_44KHz.wav
3	120	1	1	1	C	2	1	475	1	Ⴒ	cut_o_stereo_44KHz.wav
3	121	2	2	1	C	1	0	462	0	Ⴔ	cut_u_stereo_44KHz.wav
3	122	3	4	2	I	2	0	548	1	Ⴖ	cut_a_stereo_44KHz.wav
3	123	4	4	2	I	2	0	758	0	Ⴌ	cut_a_stereo_44KHz.wav
3	124	1	2	0	C	1	1	775	1	Ⴒ	cut_u_stereo_44KHz.wav
3	125	3	3	2	I	2	0	1184	1	Ⴖ	cut_k_stereo_44KHz.wav
3	126	1	1	1	C	2	1	491	1	Ⴒ	cut_o_stereo_44KHz.wav
3	127	2	1	0	C	2	0	458	0	Ⴔ	cut_o_stereo_44KHz.wav
3	128	4	3	2	I	1	0	400	1	Ⴌ	cut_k_stereo_44KHz.wav
3	129	2	2	1	C	1	0	705	0	Ⴔ	cut_u_stereo_44KHz.wav
3	130	4	4	2	I	1	0	503	1	Ⴌ	cut_a_stereo_44KHz.wav
3	131	3	4	2	I	1	0	936	1	Ⴖ	cut_a_stereo_44KHz.wav
3	132	1	2	0	C	1	1	620	1	Ⴒ	cut_u_stereo_44KHz.wav
3	133	2	1	0	C	2	0	469	0	Ⴔ	cut_o_stereo_44KHz.wav
3	134	3	3	2	I	1	0	1288	0	Ⴖ	cut_k_stereo_44KHz.wav
3	135	1	1	1	C	1	0	374	0	Ⴒ	cut_o_stereo_44KHz.wav
3	136	4	3	2	I	2	0	727	1	Ⴌ	cut_k_stereo_44KHz.wav
3	137	1	1	1	C	1	0	902	0	Ⴒ	cut_o_stereo_44KHz.wav
3	138	3	4	2	I	2	0	597	0	Ⴖ	cut_a_stereo_44KHz.wav
3	139	2	1	0	C	1	1	373	1	Ⴔ	cut_o_stereo_44KHz.wav
3	140	4	4	2	I	2	0	468	1	Ⴌ	cut_a_stereo_44KHz.wav
3	141	3	3	2	I	1	0	527	0	Ⴖ	cut_k_stereo_44KHz.wav
3	142	1	2	0	C	2	0	323	0	Ⴒ	cut_u_stereo_44KHz.wav
3	143	4	3	2	I	1	0	669	1	Ⴌ	cut_k_stereo_44KHz.wav
3	144	2	2	1	C	1	0	392	0	Ⴔ	cut_u_stereo_44KHz.wav
3	145	4	3	2	I	2	0	238	0	Ⴌ	cut_k_stereo_44KHz.wav
3	146	2	1	0	C	1	1	357	1	Ⴔ	cut_o_stereo_44KHz.wav
3	147	3	4	2	I	2	0	176	1	Ⴖ	cut_a_stereo_44KHz.wav
3	148	1	1	1	C	1	0	325	0	Ⴒ	cut_o_stereo_44KHz.wav
3	149	4	4	2	I	2	0	478	1	Ⴌ	cut_a_stereo_44KHz.wav
3	150	3	3	2	I	1	0	516	1	Ⴖ	cut_k_stereo_44KHz.wav
3	151	2	2	1	C	2	1	598	1	Ⴔ	cut_u_stereo_44KHz.wav
3	152	1	2	0	C	1	1	222	1	Ⴒ	cut_u_stereo_44KHz.wav
3	153	4	4	2	I	2	0	357	0	Ⴌ	cut_a_stereo_44KHz.wav
3	154	2	1	0	C	1	1	337	1	Ⴔ	cut_o_stereo_44KHz.wav
3	155	1	1	1	C	2	1	395	1	Ⴒ	cut_o_stereo_44KHz.wav
3	156	3	4	2	I	1	0	382	1	Ⴖ	cut_a_stereo_44KHz.wav
3	157	4	3	2	I	2	0	365	0	Ⴌ	cut_k_stereo_44KHz.wav
3	158	1	2	0	C	2	0	457	0	Ⴒ	cut_u_stereo_44KHz.wav
3	159	3	3	2	I	2	0	675	1	Ⴖ	cut_k_stereo_44KHz.wav
3	160	2	2	1	C	1	0	980	0	Ⴔ	cut_u_stereo_44KHz.wav
3	161	4	4	2	I	2	0	575	1	Ⴌ	cut_a_stereo_44KHz.wav
3	162	3	4	2	I	1	0	1067	1	Ⴖ	cut_a_stereo_44KHz.wav
3	163	2	1	0	C	2	0	579	0	Ⴔ	cut_o_stereo_44KHz.wav
3	164	1	2	0	C	1	1	332	1	Ⴒ	cut_u_stereo_44KHz.wav
3	165	2	2	1	C	2	1	387	1	Ⴔ	cut_u_stereo_44KHz.wav
3	166	1	1	1	C	0	0	0	0	Ⴒ	cut_o_stereo_44KHz.wav
3	167	3	3	2	I	2	0	542	1	Ⴖ	cut_k_stereo_44KHz.wav
3	168	4	3	2	I	0	0	0	0	Ⴌ	cut_k_stereo_44KHz.wav
3	169	2	1	0	C	2	0	338	0	Ⴔ	cut_o_stereo_44KHz.wav
3	170	4	3	2	I	1	0	780	1	Ⴌ	cut_k_stereo_44KHz.wav
3	171	1	1	1	C	2	1	406	1	Ⴒ	cut_o_stereo_44KHz.wav
3	172	3	3	2	I	1	0	362	1	Ⴖ	cut_k_stereo_44KHz.wav
3	173	4	4	2	I	2	0	375	0	Ⴌ	cut_a_stereo_44KHz.wav
3	174	1	2	0	C	1	1	332	1	Ⴒ	cut_u_stereo_44KHz.wav
3	175	2	2	1	C	1	0	108	0	Ⴔ	cut_u_stereo_44KHz.wav
3	176	3	4	2	I	2	0	392	1	Ⴖ	cut_a_stereo_44KHz.wav
3	177	2	2	1	C	2	1	338	1	Ⴔ	cut_u_stereo_44KHz.wav
3	178	1	2	0	C	2	0	615	0	Ⴒ	cut_u_stereo_44KHz.wav
3	179	4	3	2	I	1	0	428	0	Ⴌ	cut_k_stereo_44KHz.wav
3	180	3	4	2	I	2	0	414	1	Ⴖ	cut_a_stereo_44KHz.wav
3	181	4	4	2	I	1	0	376	1	Ⴌ	cut_a_stereo_44KHz.wav
3	182	1	1	1	C	2	1	486	1	Ⴒ	cut_o_stereo_44KHz.wav
3	183	3	3	2	I	2	0	309	0	Ⴖ	cut_k_stereo_44KHz.wav
3	184	2	1	0	C	1	1	794	1	Ⴔ	cut_o_stereo_44KHz.wav
3	185	3	4	2	I	2	0	310	1	Ⴖ	cut_a_stereo_44KHz.wav
3	186	4	3	2	I	1	0	514	1	Ⴌ	cut_k_stereo_44KHz.wav
3	187	1	1	1	C	2	1	527	1	Ⴒ	cut_o_stereo_44KHz.wav
3	188	2	1	0	C	1	1	414	1	Ⴔ	cut_o_stereo_44KHz.wav
3	189	3	3	2	I	2	0	664	1	Ⴖ	cut_k_stereo_44KHz.wav
3	190	1	2	0	C	1	1	356	1	Ⴒ	cut_u_stereo_44KHz.wav
3	191	2	2	1	C	1	0	655	0	Ⴔ	cut_u_stereo_44KHz.wav
3	192	4	4	2	I	2	0	404	1	Ⴌ	cut_a_stereo_44KHz.wav
3	193	2	1	0	C	1	1	365	1	Ⴔ	cut_o_stereo_44KHz.wav
3	194	4	3	2	I	2	0	477	1	Ⴌ	cut_k_stereo_44KHz.wav
3	195	3	4	2	I	1	0	429	0	Ⴖ	cut_a_stereo_44KHz.wav
3	196	1	1	1	C	2	1	405	1	Ⴒ	cut_o_stereo_44KHz.wav
3	197	3	3	2	I	2	0	225	1	Ⴖ	cut_k_stereo_44KHz.wav
3	198	1	2	0	C	2	0	486	0	Ⴒ	cut_u_stereo_44KHz.wav
3	199	4	4	2	I	1	0	308	1	Ⴌ	cut_a_stereo_44KHz.wav
3	200	2	2	1	C	2	1	467	1	Ⴔ	cut_u_stereo_44KHz.wav
