subjID,block,trial,vStim1,vStim2,aStim,resp,RT,fb,vStimNassoc,stimOnset,respOnset,feedbackOnset,pe,delta,drift,assoc_active,assoc_inactive
biokurs19-07,1,1,1,3,1,1,1.998,1,3,8138,10136,12330,0.5,0.388879164576913,0.302454009284076,0.5,0.5
biokurs19-07,1,2,7,3,3,2,1.583,1,7,16801,18384,20681,0.465,0.402489935337105,0.313039899609019,0.535,0.5
biokurs19-07,1,3,4,2,2,1,1.424,0,4,25748,27172,29404,-0.5,0.388879164576913,0.302454009284076,0.5,0.5
biokurs19-07,1,4,3,8,3,1,1.098,1,8,35514,36612,39529,0.43245,0.415147952144084,0.322884777611216,0.56755,0.5
biokurs19-07,1,5,5,7,5,2,0.972,0,7,45329,46301,49903,-0.5,0.402489935337105,0.313039899609019,0.5,0.535
biokurs19-07,1,6,6,2,2,1,1.443,0,6,54239,55682,58289,-0.535,0.402489935337105,0.313039899609019,0.535,0.5
biokurs19-07,1,7,2,4,4,2,1.177,1,2,62206,63383,66900,0.465,0.430664230810703,0.33495269258165,0.535,0.57245
biokurs19-07,1,8,2,6,2,1,1.824,1,6,71317,73141,75260,0.3874785,0.446247202254046,0.347072478414677,0.6125215,0.535
biokurs19-07,1,9,6,1,1,1,1.425,0,6,79972,81397,84125,-0.535,0.430664230810703,0.33495269258165,0.535,0.57245
biokurs19-07,1,10,5,8,5,2,1.303,0,8,88338,89641,92726,-0.535,0.416100706097297,0.323625789933961,0.535,0.535
biokurs19-07,1,11,6,4,4,1,1.207,0,6,98021,99228,102611,-0.56755,0.454960817694721,0.353849565400705,0.56755,0.6023785
biokurs19-07,1,12,2,7,2,1,1.221,1,7,107355,108576,111890,0.360355005,0.469452981137031,0.36512096622542,0.639644995,0.56755
biokurs19-07,1,13,8,3,3,1,1.203,0,8,116788,117991,120014,-0.5978215,0.453188695341744,0.352471282480398,0.5978215,0.56755
biokurs19-07,1,14,1,7,1,1,1.424,1,7,125029,126453,128652,0.42755,0.458771833507575,0.356813614691689,0.57245,0.6072785
biokurs19-07,1,15,4,8,4,1,1.218,1,8,133900,135118,136921,0.3927215,0.468638281231638,0.36448732658824,0.6072785,0.5978215
biokurs19-07,1,16,3,7,3,1,1.004,1,7,141247,142251,145135,0.360330995,0.501442960917853,0.390001439449417,0.639669005,0.649787995
biokurs19-07,1,17,1,2,2,1,1.551,0,1,149920,151471,154116,-0.66486984535,0.492806477851184,0.383284342809719,0.66486984535,0.6023785
biokurs19-07,1,18,8,1,1,1,1.03,0,8,160066,161096,164061,-0.630212005,0.493830266280887,0.384080602788212,0.630212005,0.639669005
biokurs19-07,1,19,5,3,5,2,1.508,0,3,168172,169680,172521,-0.57245,0.481176591173673,0.37423910157917,0.57245,0.66489217465
biokurs19-07,1,20,5,4,4,1,1.168,0,5,177401,178569,180550,-0.634769005,0.485045289569116,0.37724801397921,0.634769005,0.6125215
biokurs19-07,1,21,4,1,1,1,1.089,0,4,185447,186536,189496,-0.67432684535,0.526359491460672,0.40938047861271,0.67432684535,0.67920283535
biokurs19-07,1,22,2,3,2,2,1.604,0,3,194124,195728,197960,-0.7114107345245,0.544337677106126,0.423363162241536,0.7114107345245,0.6883497224245
biokurs19-07,1,23,3,4,3,1,1.293,1,4,202264,203557,205864,0.289834758145215,0.549028890490371,0.42701179252497,0.710165241854785,0.7016586368755
biokurs19-07,1,24,6,5,5,2,1.489,1,6,211051,212540,214590,0.360355005,0.493820929292145,0.384073340867449,0.639644995,0.630212005
biokurs19-07,1,25,8,4,4,2,1.519,1,8,219166,220685,223669,0.249225258543215,0.550523367654782,0.428174134587321,0.750774741456785,0.66489217465
biokurs19-07,1,26,3,2,3,1,0.977,1,2,229254,230231,233527,0.26954632507505,0.580076723827792,0.451159503505329,0.73045367492495,0.761209485941215
biokurs19-07,1,27,4,5,5,2,1.135,1,4,238068,239203,241418,0.33513015465,0.557298979978615,0.4334439235073,0.66486984535,0.76822050955481
biokurs19-07,1,28,7,1,1,1,1.055,0,7,246609,247664,250994,-0.7215297245245,0.550965120023545,0.42851771117155,0.7215297245245,0.69527315465
biokurs19-07,1,29,2,8,2,2,1.195,0,8,255284,256479,258675,-0.8144941499571,0.593401907938533,0.461523276434966,0.8144941499571,0.7114346268755
biokurs19-07,1,30,4,6,4,1,1.354,1,6,263972,265326,267844,0.178004054776353,0.581888756735675,0.452568827192136,0.821995945223647,0.67432684535
biokurs19-07,1,31,3,2,2,2,1.48,1,3,273195,274675,276635,0.128491259545903,0.630307272255915,0.490226730923267,0.871508740454097,0.749321917680204
biokurs19-07,1,32,1,4,1,1,1.287,1,4,280397,281684,284667,0.227963194758785,0.624731669076906,0.485890259110736,0.772036805241215,0.834456229057992
biokurs19-07,1,33,1,5,5,2,0.986,1,1,289696,290682,293580,0.3116710438245,0.574111326847706,0.446519866317359,0.6883289561755,0.78799422887433
biokurs19-07,1,34,3,4,4,1,1.319,0,3,298980,300299,303250,-0.892868165092051,0.659011205159232,0.512551453818294,0.892868165092051,0.801774451917818
biokurs19-07,1,35,5,2,5,2,1.206,0,2,308149,309355,311753,-0.710145929243215,0.6185702767578,0.481098184915367,0.710145929243215,0.88050312862231
biokurs19-07,1,36,1,3,3,2,1.504,1,1,316832,318336,320859,0.184349759716429,0.645074339063638,0.501711940130144,0.815650240283571,0.843153824895533
biokurs19-07,1,37,8,5,5,2,0.968,1,8,325920,326888,329694,0.24014385570976,0.580009520226509,0.451107235344682,0.75985614429024,0.731634202994215
biokurs19-07,1,38,1,4,4,1,1.307,0,1,334763,336070,338405,-0.955368936648495,0.722359975834269,0.56182148785246,0.955368936648495,0.902174592638221
biokurs19-07,1,39,3,1,1,2,1.098,1,3,343109,344207,347856,0.0909776288464549,0.675707528942743,0.525537158707169,0.909022371153545,0.828554723463721
biokurs19-07,1,40,3,1,3,1,1.473,1,1,353322,354795,356783,0.113446445893819,0.70073861705049,0.545005295970753,0.886553554106181,0.915390805172797
biokurs19-07,2,41,16,11,11,1,1.241,0,16,8127,9368,12646,-0.5,0.388879164576913,0.302454009284076,0.5,0.5
biokurs19-07,2,42,9,10,10,2,0.858,1,9,17219,18077,21229,0.5,0.388879164576913,0.302454009284076,0.5,0.5
biokurs19-07,2,43,15,9,9,1,1.105,0,15,26112,27217,29555,-0.535,0.402489935337105,0.313039899609019,0.535,0.5
biokurs19-07,2,44,12,13,13,2,1.138,1,12,34621,35759,38902,0.5,0.388879164576913,0.302454009284076,0.5,0.5
biokurs19-07,2,45,11,10,10,2,1.163,1,11,44498,45661,47857,0.465,0.416100706097297,0.323625789933961,0.535,0.535
biokurs19-07,2,46,9,14,9,1,1.209,1,14,52557,53766,56904,0.42755,0.417053460050511,0.324366802256708,0.57245,0.5
biokurs19-07,2,47,12,11,12,1,1.599,1,11,62709,64308,66608,0.465,0.430664230810703,0.33495269258165,0.535,0.57245
biokurs19-07,2,48,15,10,10,2,0.924,1,15,71848,72772,75804,0.43245,0.428758722904276,0.333470667936158,0.56755,0.535
biokurs19-07,2,49,13,16,13,2,1.042,0,16,80120,81162,83349,-0.535,0.416100706097297,0.323625789933961,0.535,0.535
biokurs19-07,2,50,14,11,11,2,1.432,1,14,87982,89414,92012,0.3874785,0.446247202254046,0.347072478414677,0.6125215,0.535
biokurs19-07,2,51,14,10,10,2,0.801,1,14,96792,97593,101172,0.4021785,0.455094203248171,0.35395330712589,0.5978215,0.57245
biokurs19-07,2,52,11,13,11,2,1.064,0,13,105462,106526,110039,-0.639644995,0.471358489043458,0.366602990870912,0.639644995,0.57245
biokurs19-07,2,53,9,16,9,1,1.272,1,16,113951,115223,117596,0.3976215,0.454960817694721,0.353849565400705,0.6023785,0.56755
biokurs19-07,2,54,11,12,11,2,1.6,0,12,121931,123531,125462,-0.68442014465,0.486865103926729,0.378663389753357,0.68442014465,0.56755
biokurs19-07,2,55,12,14,12,1,1.2,1,14,130480,131680,134471,0.4021785,0.470677174691515,0.366073092958917,0.5978215,0.6125215
biokurs19-07,2,56,12,10,10,2,0.87,1,12,138583,139453,142750,0.374026005,0.486856488444946,0.378656688990641,0.625973995,0.625973995
biokurs19-07,2,57,13,12,12,2,1.228,1,13,147468,148696,151831,0.33020782535,0.49472066915714,0.38477312104152,0.66979217465,0.6023785
biokurs19-07,2,58,10,13,13,2,1.479,1,10,156047,157526,159401,0.355455005,0.504259927835115,0.392192358932268,0.644544995,0.65215581535
biokurs19-07,2,59,13,11,11,2,1.445,1,13,163826,165271,168115,0.2676704452245,0.545113857821146,0.423966843257571,0.7323295547755,0.66942684535
biokurs19-07,2,60,11,13,13,1,1.505,0,11,173192,174697,177075,-0.7162867245245,0.570623090625159,0.443806861541217,0.7162867245245,0.751066485941215
biokurs19-07,2,61,14,9,9,2,0.946,1,14,181820,182766,184970,0.369787995,0.499946946660517,0.388837901900241,0.630212005,0.655398005
biokurs19-07,2,62,12,15,12,1,1.32,1,15,190264,191584,194790,0.3070932775755,0.492070865108221,0.382712213871848,0.6929067224245,0.57245
biokurs19-07,2,63,11,16,11,1,1.406,1,16,199680,201086,203428,0.23150816807467,0.535008417328825,0.4161072527449,0.76849183192533,0.6072785
biokurs19-07,2,64,9,13,9,1,0.988,1,13,208887,209875,212488,0.34390283535,0.553189929113138,0.430248074971758,0.65609716465,0.766426795241215
biokurs19-07,2,65,10,11,10,1,0.939,1,11,217387,218326,221577,0.3021932775755,0.57651496604545,0.448389316723685,0.6978067224245,0.784697403690557
biokurs19-07,2,66,13,10,13,1,1.23,1,10,226041,227271,229076,0.1799233290919,0.598499392777054,0.465487887725862,0.8200766709081,0.718960251854785
biokurs19-07,2,67,16,10,10,2,0.932,1,16,235189,236121,239383,0.23071253051538,0.551848881100374,0.429205063710036,0.76928746948462,0.649787995
biokurs19-07,2,68,11,9,9,2,0.939,1,11,243698,244637,247536,0.3198296368755,0.591017226330188,0.459668570451696,0.6801703631245,0.839626221948896
biokurs19-07,2,69,14,13,13,2,1.231,1,14,252417,253648,256310,0.167328696055467,0.596520093700379,0.463948471383091,0.832671303944533,0.70127586535
biokurs19-07,2,70,9,11,9,1,1.112,1,11,261618,262730,266337,0.297441562294215,0.622579402132229,0.484216315567951,0.702558437705785,0.898400057485318
biokurs19-07,2,71,12,10,12,1,1.183,1,10,271527,272710,276229,0.285596748145215,0.583256758933683,0.453632802295938,0.714403251854785,0.785437346620697
biokurs19-07,2,72,13,15,13,1,1.771,1,15,281304,283075,285584,0.155615687331584,0.566560315297743,0.440647004190838,0.844384312668416,0.6125215
biokurs19-07,2,73,14,12,12,1,1.192,0,14,290649,291841,294104,-0.73439502422495,0.577392306231169,0.449071675360629,0.73439502422495,0.7503651759245
biokurs19-07,2,74,10,16,10,1,0.928,1,16,299446,300374,303107,0.159582039115854,0.597198278057107,0.464475934915238,0.840417960884146,0.69527315465
biokurs19-07,2,75,16,12,12,2,1.485,1,16,307644,309129,311249,0.214197324079303,0.594885938714704,0.462677493731854,0.785802675920697,0.7439422754755
biokurs19-07,2,76,13,14,13,1,1.17,1,14,317199,318369,320825,0.144722589218373,0.631196392455898,0.490918251564422,0.855277410781627,0.767839613609785
biokurs19-07,2,77,9,11,11,2,1.082,1,9,326014,327096,330036,0.0387119384907093,0.65513205443686,0.509534412033926,0.961288061509291,0.72337934706638
biokurs19-07,2,78,9,10,9,1,1.273,1,10,335076,336349,339655,0.225984098638973,0.632163760718282,0.491670630287851,0.774015901361027,0.851588703622255
biokurs19-07,2,79,11,14,11,1,1.058,1,14,345053,346111,348944,0.0360021027963596,0.69437730231096,0.540057730447714,0.96399789720364,0.82158838656247
biokurs19-07,2,80,10,12,12,2,1.049,1,10,352711,353760,356728,0.199203511393752,0.665759730367026,0.51780017550816,0.800796488606248,0.911199912875813
biokurs19-07,3,81,21,24,21,2,1.125,0,24,8101,9226,12491,-0.5,0.388879164576913,0.302454009284076,0.5,0.5
biokurs19-07,3,82,23,20,20,1,1.106,0,23,16604,17710,20222,-0.5,0.388879164576913,0.302454009284076,0.5,0.5
biokurs19-07,3,83,18,24,18,1,1.091,1,24,24141,25232,28020,0.5,0.402489935337105,0.313039899609019,0.5,0.535
biokurs19-07,3,84,24,17,17,1,1.58,0,24,33256,34836,37984,-0.5,0.417053460050511,0.324366802256708,0.5,0.57245
biokurs19-07,3,85,18,22,18,2,1.303,0,22,42295,43598,46615,-0.535,0.402489935337105,0.313039899609019,0.535,0.5
biokurs19-07,3,86,19,21,21,2,1.717,1,19,52560,54277,56857,0.465,0.402489935337105,0.313039899609019,0.535,0.5
biokurs19-07,3,87,22,20,20,1,1.197,0,22,62033,63230,65894,-0.535,0.416100706097297,0.323625789933961,0.535,0.535
biokurs19-07,3,88,19,17,17,2,1.153,1,19,70436,71589,74811,0.465,0.416100706097297,0.323625789933961,0.535,0.535
biokurs19-07,3,89,23,19,19,1,1.198,0,23,79375,80573,83378,-0.57245,0.430664230810703,0.33495269258165,0.57245,0.535
biokurs19-07,3,90,18,19,18,1,1.083,1,19,87794,88877,91226,0.42755,0.460810726967452,0.358399381062366,0.57245,0.6125215
biokurs19-07,3,91,19,20,20,2,1.258,1,19,96108,97366,100385,0.42755,0.47748450641183,0.371367551903705,0.57245,0.655398005
biokurs19-07,3,92,19,24,19,2,1.384,0,24,105170,106554,109202,-0.70127586535,0.506964020494354,0.394295489520795,0.70127586535,0.6023785
biokurs19-07,3,93,23,17,17,2,1.239,1,23,114559,115798,118753,0.43245,0.441416739711254,0.343315545938355,0.56755,0.56755
biokurs19-07,3,94,21,17,21,1,1.107,1,17,123789,124896,127973,0.43245,0.453188695341744,0.352471282480398,0.56755,0.5978215
biokurs19-07,3,95,18,23,18,1,1.038,1,23,132686,133724,136138,0.3976215,0.470410403584615,0.365865609508548,0.6023785,0.6072785
biokurs19-07,3,96,17,23,17,2,1.457,0,23,141535,142992,145149,-0.639669005,0.501442960917853,0.390001439449417,0.639669005,0.649787995
biokurs19-07,3,97,19,17,19,1,1.528,1,17,151264,152792,155772,0.2496348240755,0.557968107390184,0.433964342924913,0.7503651759245,0.68444583535
biokurs19-07,3,98,21,22,21,2,1.133,0,22,160870,162003,165399,-0.5978215,0.453188695341744,0.352471282480398,0.5978215,0.56755
biokurs19-07,3,99,20,23,20,2,1.073,0,23,170695,171768,175270,-0.6023785,0.496474771121846,0.386137388454756,0.6023785,0.67430283535
biokurs19-07,3,100,19,18,18,1,1.471,0,19,180280,181751,184271,-0.630212005,0.543673145480375,0.422846317234622,0.630212005,0.767839613609785
biokurs19-07,3,101,20,24,20,1,1.336,1,24,190074,191410,194115,0.355455005,0.495726437198572,0.385555365512941,0.644544995,0.630212005
biokurs19-07,3,102,17,22,17,2,1.367,0,22,199575,200942,203325,-0.7323570438245,0.517278720860607,0.402317833643375,0.7323570438245,0.5978215
biokurs19-07,3,103,20,21,21,1,1.428,0,20,208913,210341,212915,-0.639669005,0.509080100635212,0.395941288475505,0.639669005,0.66942684535
biokurs19-07,3,104,21,17,17,2,1.536,1,21,218090,219626,221627,0.216377963107785,0.570901007699759,0.444023013860801,0.783622036892215,0.68444583535
biokurs19-07,3,105,21,19,19,2,1.365,1,21,226529,227894,229890,0.2159091593429,0.589714986441632,0.458655742531815,0.7840908406571,0.7323570438245
biokurs19-07,3,106,18,17,18,1,0.93,1,17,233656,234586,237530,0.32567315465,0.572856085029032,0.445543591537783,0.67432684535,0.79876849430976
biokurs19-07,3,107,17,20,17,2,1.331,0,20,241865,243196,245219,-0.854682288911443,0.601692997710462,0.467971740562846,0.854682288911443,0.6925669661755
biokurs19-07,3,108,24,19,19,1,1.477,0,24,250529,252006,254477,-0.799204481811103,0.57302563148432,0.445675457705561,0.799204481811103,0.67432684535
biokurs19-07,3,109,22,21,21,2,1.227,1,22,259534,260761,263199,0.216377963107785,0.548162527273177,0.426337971316725,0.783622036892215,0.625973995
biokurs19-07,3,110,17,20,20,1,1.082,0,17,267918,269000,271557,-0.714087278543215,0.633327568219793,0.492575791265683,0.714087278543215,0.914510049135244
biokurs19-07,3,111,24,21,21,2,1.025,1,24,276184,277209,280456,0.20123150569024,0.581721410330411,0.452438672131588,0.79876849430976,0.6971239661755
biokurs19-07,3,112,19,18,19,1,1.63,1,18,284926,286556,288155,0.14485120446212,0.603646534770597,0.469491120282677,0.85514879553788,0.6971239661755
biokurs19-07,3,113,18,20,20,1,1.084,0,18,293043,294127,296956,-0.76407338804124,0.587205995379903,0.456704353835783,0.76407338804124,0.745922643807785
biokurs19-07,3,114,23,18,18,2,1.611,1,23,301854,303465,305692,0.23629194125876,0.568078454037293,0.441827749240334,0.76370805874124,0.6971016368755
biokurs19-07,3,115,20,19,20,1,1.279,1,19,309984,311263,314151,0.182441474795873,0.654424098548382,0.508983793444989,0.817558525204127,0.865288379850229
biokurs19-07,3,116,17,18,18,2,1.462,1,17,319222,320684,322236,0.219751505370647,0.661383454905803,0.514396490817523,0.780248494629353,0.920494345695777
biokurs19-07,3,117,19,22,19,1,1.543,1,22,326453,327996,331167,0.0741414335602553,0.620515327151512,0.4826109640597,0.925858566439745,0.66979217465
biokurs19-07,3,118,21,19,21,1,1.894,1,19,335905,337799,339056,0.187145300291923,0.678167606490402,0.527450504510225,0.812854699708077,0.931048466788963
biokurs19-07,3,119,19,21,19,2,1.361,0,21,344136,345497,348726,-0.99622185946419,0.708606564548829,0.551124657670931,0.99622185946419,0.825954870728511
biokurs19-07,3,120,17,19,17,2,1.811,0,19,353051,354862,356658,-1.06595738962668,0.770428271644276,0.599207005286923,0.984928949894482,1.06595738962668
