block	trial	Vstim	Astim	match	C/I	resp	result	RT	fb	V-file	A-file
RL

0	1	2	4	0	C	0	0	0	0	Ⴋ	cut_eeuw_stereo_44KHz.wav
0	2	2	3	1	C	1	1	1140	1	Ⴋ	cut_ee_stereo_44KHz.wav
0	3	1	1	1	C	2	0	758	0	Ⴢ	cut_oo_stereo_44KHz.wav
0	4	1	2	0	C	1	0	1443	0	Ⴢ	cut_g_stereo_44KHz.wav
0	5	1	2	0	C	0	0	0	0	Ⴢ	cut_g_stereo_44KHz.wav
0	6	2	4	0	C	0	0	0	0	Ⴋ	cut_eeuw_stereo_44KHz.wav
0	7	2	3	1	C	2	0	1368	0	Ⴋ	cut_ee_stereo_44KHz.wav
0	8	1	1	1	C	2	0	1160	0	Ⴢ	cut_oo_stereo_44KHz.wav
0	9	1	2	0	C	1	0	1397	0	Ⴢ	cut_g_stereo_44KHz.wav
0	10	2	4	0	C	2	1	1134	1	Ⴋ	cut_eeuw_stereo_44KHz.wav
0	11	1	1	1	C	2	0	1260	0	Ⴢ	cut_oo_stereo_44KHz.wav
0	12	2	3	1	C	2	0	1054	0	Ⴋ	cut_ee_stereo_44KHz.wav
0	13	1	1	1	C	1	1	1027	1	Ⴢ	cut_oo_stereo_44KHz.wav
0	14	2	4	0	C	1	0	1366	0	Ⴋ	cut_eeuw_stereo_44KHz.wav
0	15	1	2	0	C	2	1	953	1	Ⴢ	cut_g_stereo_44KHz.wav
0	16	2	3	1	C	1	1	603	1	Ⴋ	cut_ee_stereo_44KHz.wav
0	17	2	3	1	C	2	0	570	0	Ⴋ	cut_ee_stereo_44KHz.wav
0	18	1	1	1	C	2	0	1021	0	Ⴢ	cut_oo_stereo_44KHz.wav
0	19	1	2	0	C	1	0	1084	0	Ⴢ	cut_g_stereo_44KHz.wav
0	20	2	4	0	C	2	1	641	1	Ⴋ	cut_eeuw_stereo_44KHz.wav
0	21	1	2	0	C	1	0	659	0	Ⴢ	cut_g_stereo_44KHz.wav
0	22	2	3	1	C	2	0	728	0	Ⴋ	cut_ee_stereo_44KHz.wav
0	23	2	4	0	C	1	0	730	0	Ⴋ	cut_eeuw_stereo_44KHz.wav
0	24	1	1	1	C	1	1	676	1	Ⴢ	cut_oo_stereo_44KHz.wav
0	25	1	2	0	C	1	0	1723	0	Ⴢ	cut_g_stereo_44KHz.wav
0	26	2	3	1	C	2	0	561	0	Ⴋ	cut_ee_stereo_44KHz.wav
0	27	2	4	0	C	1	0	46	0	Ⴋ	cut_eeuw_stereo_44KHz.wav
0	28	1	1	1	C	2	0	912	0	Ⴢ	cut_oo_stereo_44KHz.wav
0	29	2	3	1	C	2	0	1342	0	Ⴋ	cut_ee_stereo_44KHz.wav
0	30	1	1	1	C	2	0	1331	0	Ⴢ	cut_oo_stereo_44KHz.wav
avg_resp = 882
1	1	3	4	2	I	2	0	1078	1	Ⴜ	cut_l_stereo_44KHz.wav
1	2	2	1	0	C	1	0	1123	0	Ⴁ	cut_w_stereo_44KHz.wav
1	3	4	3	2	I	1	0	863	1	Ⴃ	cut_g_stereo_44KHz.wav
1	4	1	2	0	C	2	1	596	1	Ⴡ	cut_h_stereo_44KHz.wav
1	5	2	2	1	C	1	1	549	1	Ⴁ	cut_h_stereo_44KHz.wav
1	6	4	4	2	I	2	0	537	1	Ⴃ	cut_l_stereo_44KHz.wav
1	7	1	1	1	C	1	1	531	1	Ⴡ	cut_w_stereo_44KHz.wav
1	8	3	3	2	I	2	0	285	1	Ⴜ	cut_g_stereo_44KHz.wav
1	9	1	2	0	C	1	0	307	0	Ⴡ	cut_h_stereo_44KHz.wav
1	10	4	4	2	I	1	0	668	0	Ⴃ	cut_l_stereo_44KHz.wav
1	11	3	3	2	I	1	0	527	1	Ⴜ	cut_g_stereo_44KHz.wav
1	12	2	1	0	C	2	1	533	1	Ⴁ	cut_w_stereo_44KHz.wav
1	13	1	1	1	C	1	1	260	1	Ⴡ	cut_w_stereo_44KHz.wav
1	14	4	3	2	I	2	0	893	1	Ⴃ	cut_g_stereo_44KHz.wav
1	15	2	2	1	C	2	0	775	0	Ⴁ	cut_h_stereo_44KHz.wav
1	16	3	4	2	I	2	0	610	1	Ⴜ	cut_l_stereo_44KHz.wav
1	17	1	2	0	C	1	0	469	0	Ⴡ	cut_h_stereo_44KHz.wav
1	18	2	1	0	C	2	1	666	1	Ⴁ	cut_w_stereo_44KHz.wav
1	19	3	3	2	I	1	0	573	0	Ⴜ	cut_g_stereo_44KHz.wav
1	20	4	3	2	I	1	0	301	1	Ⴃ	cut_g_stereo_44KHz.wav
1	21	3	4	2	I	2	0	367	1	Ⴜ	cut_l_stereo_44KHz.wav
1	22	2	2	1	C	2	0	897	0	Ⴁ	cut_h_stereo_44KHz.wav
1	23	4	4	2	I	2	0	1033	1	Ⴃ	cut_l_stereo_44KHz.wav
1	24	1	1	1	C	1	1	667	1	Ⴡ	cut_w_stereo_44KHz.wav
1	25	3	4	2	I	2	0	560	0	Ⴜ	cut_l_stereo_44KHz.wav
1	26	2	1	0	C	1	0	515	0	Ⴁ	cut_w_stereo_44KHz.wav
1	27	4	3	2	I	1	0	577	1	Ⴃ	cut_g_stereo_44KHz.wav
1	28	1	1	1	C	2	0	582	0	Ⴡ	cut_w_stereo_44KHz.wav
1	29	4	4	2	I	1	0	606	1	Ⴃ	cut_l_stereo_44KHz.wav
1	30	3	3	2	I	1	0	741	1	Ⴜ	cut_g_stereo_44KHz.wav
1	31	1	2	0	C	2	1	347	1	Ⴡ	cut_h_stereo_44KHz.wav
1	32	2	2	1	C	2	0	530	0	Ⴁ	cut_h_stereo_44KHz.wav
1	33	4	4	2	I	1	0	578	0	Ⴃ	cut_l_stereo_44KHz.wav
1	34	3	4	2	I	1	0	514	1	Ⴜ	cut_l_stereo_44KHz.wav
1	35	2	2	1	C	2	0	709	0	Ⴁ	cut_h_stereo_44KHz.wav
1	36	1	2	0	C	1	0	264	0	Ⴡ	cut_h_stereo_44KHz.wav
1	37	4	3	2	I	1	0	687	1	Ⴃ	cut_g_stereo_44KHz.wav
1	38	1	1	1	C	2	0	479	0	Ⴡ	cut_w_stereo_44KHz.wav
1	39	3	3	2	I	2	0	826	1	Ⴜ	cut_g_stereo_44KHz.wav
1	40	2	1	0	C	1	0	654	0	Ⴁ	cut_w_stereo_44KHz.wav
1	41	1	2	0	C	1	0	706	0	Ⴡ	cut_h_stereo_44KHz.wav
1	42	2	1	0	C	1	0	891	0	Ⴁ	cut_w_stereo_44KHz.wav
1	43	3	4	2	I	1	0	532	1	Ⴜ	cut_l_stereo_44KHz.wav
1	44	4	3	2	I	2	0	662	1	Ⴃ	cut_g_stereo_44KHz.wav
1	45	3	3	2	I	2	0	688	1	Ⴜ	cut_g_stereo_44KHz.wav
1	46	2	2	1	C	2	0	725	0	Ⴁ	cut_h_stereo_44KHz.wav
1	47	4	4	2	I	1	0	449	1	Ⴃ	cut_l_stereo_44KHz.wav
1	48	1	1	1	C	1	1	482	1	Ⴡ	cut_w_stereo_44KHz.wav
1	49	4	3	2	I	1	0	606	0	Ⴃ	cut_g_stereo_44KHz.wav
1	50	2	2	1	C	1	1	655	1	Ⴁ	cut_h_stereo_44KHz.wav
1	51	3	4	2	I	1	0	728	1	Ⴜ	cut_l_stereo_44KHz.wav
1	52	1	1	1	C	2	0	395	0	Ⴡ	cut_w_stereo_44KHz.wav
1	53	4	4	2	I	1	0	682	0	Ⴃ	cut_l_stereo_44KHz.wav
1	54	1	2	0	C	1	0	704	0	Ⴡ	cut_h_stereo_44KHz.wav
1	55	2	1	0	C	1	0	637	0	Ⴁ	cut_w_stereo_44KHz.wav
1	56	3	3	2	I	1	0	733	1	Ⴜ	cut_g_stereo_44KHz.wav
1	57	1	1	1	C	2	0	529	0	Ⴡ	cut_w_stereo_44KHz.wav
1	58	2	2	1	C	2	0	760	0	Ⴁ	cut_h_stereo_44KHz.wav
1	59	4	3	2	I	1	0	597	1	Ⴃ	cut_g_stereo_44KHz.wav
1	60	3	4	2	I	1	0	687	1	Ⴜ	cut_l_stereo_44KHz.wav
1	61	1	2	0	C	1	0	497	0	Ⴡ	cut_h_stereo_44KHz.wav
1	62	4	4	2	I	1	0	500	0	Ⴃ	cut_l_stereo_44KHz.wav
1	63	2	1	0	C	1	0	674	0	Ⴁ	cut_w_stereo_44KHz.wav
1	64	3	3	2	I	1	0	386	0	Ⴜ	cut_g_stereo_44KHz.wav
1	65	2	2	1	C	1	1	276	1	Ⴁ	cut_h_stereo_44KHz.wav
1	66	4	3	2	I	2	0	471	1	Ⴃ	cut_g_stereo_44KHz.wav
1	67	3	3	2	I	2	0	477	1	Ⴜ	cut_g_stereo_44KHz.wav
1	68	1	1	1	C	2	0	854	0	Ⴡ	cut_w_stereo_44KHz.wav
1	69	2	1	0	C	2	1	417	1	Ⴁ	cut_w_stereo_44KHz.wav
1	70	3	4	2	I	1	0	622	1	Ⴜ	cut_l_stereo_44KHz.wav
1	71	1	2	0	C	1	0	668	0	Ⴡ	cut_h_stereo_44KHz.wav
1	72	4	4	2	I	2	0	458	1	Ⴃ	cut_l_stereo_44KHz.wav
1	73	2	1	0	C	1	0	588	0	Ⴁ	cut_w_stereo_44KHz.wav
1	74	4	4	2	I	1	0	694	1	Ⴃ	cut_l_stereo_44KHz.wav
1	75	1	2	0	C	1	0	420	0	Ⴡ	cut_h_stereo_44KHz.wav
1	76	3	3	2	I	2	0	480	1	Ⴜ	cut_g_stereo_44KHz.wav
1	77	4	3	2	I	2	0	330	1	Ⴃ	cut_g_stereo_44KHz.wav
1	78	1	1	1	C	1	1	351	1	Ⴡ	cut_w_stereo_44KHz.wav
1	79	3	4	2	I	1	0	533	1	Ⴜ	cut_l_stereo_44KHz.wav
1	80	2	2	1	C	2	0	358	0	Ⴁ	cut_h_stereo_44KHz.wav
1	81	3	4	2	I	2	0	404	0	Ⴜ	cut_l_stereo_44KHz.wav
1	82	4	4	2	I	1	0	335	1	Ⴃ	cut_l_stereo_44KHz.wav
1	83	1	1	1	C	2	0	348	0	Ⴡ	cut_w_stereo_44KHz.wav
1	84	2	2	1	C	2	0	279	0	Ⴁ	cut_h_stereo_44KHz.wav
1	85	4	3	2	I	1	0	421	0	Ⴃ	cut_g_stereo_44KHz.wav
1	86	3	3	2	I	1	0	544	1	Ⴜ	cut_g_stereo_44KHz.wav
1	87	2	1	0	C	2	1	454	1	Ⴁ	cut_w_stereo_44KHz.wav
1	88	1	2	0	C	2	1	468	1	Ⴡ	cut_h_stereo_44KHz.wav
1	89	2	1	0	C	2	1	489	1	Ⴁ	cut_w_stereo_44KHz.wav
1	90	1	1	1	C	1	1	328	1	Ⴡ	cut_w_stereo_44KHz.wav
1	91	3	3	2	I	1	0	618	1	Ⴜ	cut_g_stereo_44KHz.wav
1	92	4	3	2	I	1	0	318	1	Ⴃ	cut_g_stereo_44KHz.wav
1	93	1	2	0	C	2	1	443	1	Ⴡ	cut_h_stereo_44KHz.wav
1	94	2	2	1	C	2	0	591	0	Ⴁ	cut_h_stereo_44KHz.wav
1	95	4	4	2	I	2	0	409	1	Ⴃ	cut_l_stereo_44KHz.wav
1	96	3	4	2	I	2	0	432	1	Ⴜ	cut_l_stereo_44KHz.wav
1	97	2	1	0	C	1	0	736	0	Ⴁ	cut_w_stereo_44KHz.wav
1	98	4	3	2	I	2	0	321	1	Ⴃ	cut_g_stereo_44KHz.wav
1	99	1	2	0	C	2	1	333	1	Ⴡ	cut_h_stereo_44KHz.wav
1	100	3	4	2	I	1	0	816	0	Ⴜ	cut_l_stereo_44KHz.wav
1	101	1	1	1	C	2	0	515	0	Ⴡ	cut_w_stereo_44KHz.wav
1	102	2	2	1	C	2	0	321	0	Ⴁ	cut_h_stereo_44KHz.wav
1	103	4	4	2	I	2	0	305	1	Ⴃ	cut_l_stereo_44KHz.wav
1	104	3	3	2	I	1	0	626	1	Ⴜ	cut_g_stereo_44KHz.wav
1	105	4	3	2	I	1	0	602	0	Ⴃ	cut_g_stereo_44KHz.wav
1	106	2	2	1	C	2	0	421	0	Ⴁ	cut_h_stereo_44KHz.wav
1	107	3	3	2	I	2	0	288	0	Ⴜ	cut_g_stereo_44KHz.wav
1	108	1	1	1	C	2	0	890	0	Ⴡ	cut_w_stereo_44KHz.wav
1	109	3	4	2	I	1	0	336	1	Ⴜ	cut_l_stereo_44KHz.wav
1	110	2	1	0	C	2	1	334	1	Ⴁ	cut_w_stereo_44KHz.wav
1	111	1	2	0	C	2	1	321	1	Ⴡ	cut_h_stereo_44KHz.wav
1	112	4	4	2	I	1	0	326	1	Ⴃ	cut_l_stereo_44KHz.wav
1	113	2	1	0	C	2	1	233	1	Ⴁ	cut_w_stereo_44KHz.wav
1	114	3	4	2	I	2	0	460	1	Ⴜ	cut_l_stereo_44KHz.wav
1	115	4	3	2	I	1	0	312	0	Ⴃ	cut_g_stereo_44KHz.wav
1	116	1	2	0	C	2	1	323	1	Ⴡ	cut_h_stereo_44KHz.wav
1	117	4	4	2	I	2	0	383	1	Ⴃ	cut_l_stereo_44KHz.wav
1	118	1	1	1	C	1	1	392	1	Ⴡ	cut_w_stereo_44KHz.wav
1	119	2	2	1	C	1	1	509	1	Ⴁ	cut_h_stereo_44KHz.wav
1	120	3	3	2	I	2	0	406	1	Ⴜ	cut_g_stereo_44KHz.wav
1	121	2	2	1	C	2	0	287	0	Ⴁ	cut_h_stereo_44KHz.wav
1	122	1	2	0	C	1	0	539	0	Ⴡ	cut_h_stereo_44KHz.wav
1	123	4	3	2	I	2	0	265	1	Ⴃ	cut_g_stereo_44KHz.wav
1	124	3	3	2	I	2	0	455	1	Ⴜ	cut_g_stereo_44KHz.wav
1	125	2	1	0	C	2	1	559	1	Ⴁ	cut_w_stereo_44KHz.wav
1	126	1	1	1	C	2	0	453	0	Ⴡ	cut_w_stereo_44KHz.wav
1	127	3	4	2	I	1	0	547	0	Ⴜ	cut_l_stereo_44KHz.wav
1	128	4	4	2	I	1	0	796	1	Ⴃ	cut_l_stereo_44KHz.wav
1	129	3	3	2	I	2	0	570	1	Ⴜ	cut_g_stereo_44KHz.wav
1	130	2	1	0	C	2	1	443	1	Ⴁ	cut_w_stereo_44KHz.wav
1	131	4	3	2	I	2	0	450	1	Ⴃ	cut_g_stereo_44KHz.wav
1	132	1	1	1	C	2	0	319	0	Ⴡ	cut_w_stereo_44KHz.wav
1	133	4	4	2	I	2	0	470	1	Ⴃ	cut_l_stereo_44KHz.wav
1	134	3	4	2	I	1	0	366	0	Ⴜ	cut_l_stereo_44KHz.wav
1	135	2	2	1	C	2	0	586	0	Ⴁ	cut_h_stereo_44KHz.wav
1	136	1	2	0	C	2	1	440	1	Ⴡ	cut_h_stereo_44KHz.wav
1	137	4	3	2	I	1	0	493	1	Ⴃ	cut_g_stereo_44KHz.wav
1	138	1	1	1	C	2	0	674	0	Ⴡ	cut_w_stereo_44KHz.wav
1	139	3	4	2	I	2	0	537	1	Ⴜ	cut_l_stereo_44KHz.wav
1	140	2	2	1	C	2	0	466	0	Ⴁ	cut_h_stereo_44KHz.wav
1	141	3	3	2	I	1	0	423	1	Ⴜ	cut_g_stereo_44KHz.wav
1	142	1	2	0	C	2	1	482	1	Ⴡ	cut_h_stereo_44KHz.wav
1	143	4	4	2	I	2	0	579	1	Ⴃ	cut_l_stereo_44KHz.wav
1	144	2	1	0	C	2	1	731	1	Ⴁ	cut_w_stereo_44KHz.wav
1	145	1	2	0	C	1	0	352	0	Ⴡ	cut_h_stereo_44KHz.wav
1	146	3	3	2	I	2	0	842	0	Ⴜ	cut_g_stereo_44KHz.wav
1	147	2	1	0	C	2	1	588	1	Ⴁ	cut_w_stereo_44KHz.wav
1	148	4	3	2	I	2	0	288	1	Ⴃ	cut_g_stereo_44KHz.wav
1	149	1	1	1	C	2	0	311	0	Ⴡ	cut_w_stereo_44KHz.wav
1	150	3	4	2	I	2	0	501	1	Ⴜ	cut_l_stereo_44KHz.wav
1	151	2	2	1	C	2	0	472	0	Ⴁ	cut_h_stereo_44KHz.wav
1	152	4	4	2	I	2	0	341	1	Ⴃ	cut_l_stereo_44KHz.wav
1	153	2	2	1	C	2	0	639	0	Ⴁ	cut_h_stereo_44KHz.wav
1	154	3	3	2	I	2	0	525	1	Ⴜ	cut_g_stereo_44KHz.wav
1	155	1	1	1	C	2	0	602	0	Ⴡ	cut_w_stereo_44KHz.wav
1	156	4	3	2	I	2	0	505	1	Ⴃ	cut_g_stereo_44KHz.wav
1	157	1	2	0	C	2	1	520	1	Ⴡ	cut_h_stereo_44KHz.wav
1	158	2	1	0	C	2	1	409	1	Ⴁ	cut_w_stereo_44KHz.wav
1	159	3	4	2	I	2	0	448	1	Ⴜ	cut_l_stereo_44KHz.wav
1	160	4	4	2	I	1	0	508	1	Ⴃ	cut_l_stereo_44KHz.wav
1	161	2	2	1	C	2	0	512	0	Ⴁ	cut_h_stereo_44KHz.wav
1	162	3	4	2	I	2	0	657	0	Ⴜ	cut_l_stereo_44KHz.wav
1	163	4	4	2	I	2	0	340	1	Ⴃ	cut_l_stereo_44KHz.wav
1	164	1	1	1	C	2	0	699	0	Ⴡ	cut_w_stereo_44KHz.wav
1	165	4	3	2	I	2	0	388	1	Ⴃ	cut_g_stereo_44KHz.wav
1	166	1	2	0	C	2	1	330	1	Ⴡ	cut_h_stereo_44KHz.wav
1	167	3	3	2	I	1	0	770	1	Ⴜ	cut_g_stereo_44KHz.wav
1	168	2	1	0	C	2	1	395	1	Ⴁ	cut_w_stereo_44KHz.wav
1	169	1	1	1	C	2	0	514	0	Ⴡ	cut_w_stereo_44KHz.wav
1	170	2	2	1	C	2	0	432	0	Ⴁ	cut_h_stereo_44KHz.wav
1	171	3	4	2	I	2	0	469	1	Ⴜ	cut_l_stereo_44KHz.wav
1	172	4	4	2	I	2	0	660	1	Ⴃ	cut_l_stereo_44KHz.wav
1	173	2	1	0	C	2	1	352	1	Ⴁ	cut_w_stereo_44KHz.wav
1	174	4	3	2	I	2	0	496	1	Ⴃ	cut_g_stereo_44KHz.wav
1	175	3	3	2	I	1	0	370	1	Ⴜ	cut_g_stereo_44KHz.wav
1	176	1	2	0	C	2	1	1059	1	Ⴡ	cut_h_stereo_44KHz.wav
1	177	2	1	0	C	1	0	551	0	Ⴁ	cut_w_stereo_44KHz.wav
1	178	3	4	2	I	1	0	562	1	Ⴜ	cut_l_stereo_44KHz.wav
1	179	1	2	0	C	2	1	476	1	Ⴡ	cut_h_stereo_44KHz.wav
1	180	4	3	2	I	2	0	423	0	Ⴃ	cut_g_stereo_44KHz.wav
1	181	3	3	2	I	1	0	378	1	Ⴜ	cut_g_stereo_44KHz.wav
1	182	4	4	2	I	1	0	296	1	Ⴃ	cut_l_stereo_44KHz.wav
1	183	2	2	1	C	2	0	243	0	Ⴁ	cut_h_stereo_44KHz.wav
1	184	1	1	1	C	2	0	407	0	Ⴡ	cut_w_stereo_44KHz.wav
1	185	4	3	2	I	2	0	320	1	Ⴃ	cut_g_stereo_44KHz.wav
1	186	3	3	2	I	2	0	539	1	Ⴜ	cut_g_stereo_44KHz.wav
1	187	1	1	1	C	2	0	699	0	Ⴡ	cut_w_stereo_44KHz.wav
1	188	2	2	1	C	2	0	384	0	Ⴁ	cut_h_stereo_44KHz.wav
1	189	3	4	2	I	2	0	460	1	Ⴜ	cut_l_stereo_44KHz.wav
1	190	2	1	0	C	2	1	407	1	Ⴁ	cut_w_stereo_44KHz.wav
1	191	1	2	0	C	2	1	750	1	Ⴡ	cut_h_stereo_44KHz.wav
1	192	4	4	2	I	2	0	497	0	Ⴃ	cut_l_stereo_44KHz.wav
1	193	1	2	0	C	2	1	453	1	Ⴡ	cut_h_stereo_44KHz.wav
1	194	2	1	0	C	2	1	491	1	Ⴁ	cut_w_stereo_44KHz.wav
1	195	3	3	2	I	1	0	342	1	Ⴜ	cut_g_stereo_44KHz.wav
1	196	4	4	2	I	2	0	277	1	Ⴃ	cut_l_stereo_44KHz.wav
1	197	1	1	1	C	2	0	408	0	Ⴡ	cut_w_stereo_44KHz.wav
1	198	3	4	2	I	2	0	394	1	Ⴜ	cut_l_stereo_44KHz.wav
1	199	4	3	2	I	2	0	267	1	Ⴃ	cut_g_stereo_44KHz.wav
1	200	2	2	1	C	2	0	227	0	Ⴁ	cut_h_stereo_44KHz.wav
2	1	3	3	2	I	1	0	1330	1	Ⴊ	cut_s_stereo_44KHz.wav
2	2	2	2	1	C	1	1	287	1	Ⴂ	cut_oei_stereo_44KHz.wav
2	3	1	2	0	C	2	1	419	1	Ⴟ	cut_oei_stereo_44KHz.wav
2	4	4	4	2	I	2	0	271	1	Ⴇ	cut_f_stereo_44KHz.wav
2	5	1	1	1	C	1	1	216	1	Ⴟ	cut_ui_stereo_44KHz.wav
2	6	4	3	2	I	1	0	474	1	Ⴇ	cut_s_stereo_44KHz.wav
2	7	3	4	2	I	2	0	232	1	Ⴊ	cut_f_stereo_44KHz.wav
2	8	2	1	0	C	1	0	331	0	Ⴂ	cut_ui_stereo_44KHz.wav
2	9	1	2	0	C	2	1	151	1	Ⴟ	cut_oei_stereo_44KHz.wav
2	10	3	4	2	I	2	0	256	0	Ⴊ	cut_f_stereo_44KHz.wav
2	11	2	1	0	C	2	1	260	1	Ⴂ	cut_ui_stereo_44KHz.wav
2	12	4	4	2	I	1	0	816	1	Ⴇ	cut_f_stereo_44KHz.wav
2	13	1	1	1	C	2	0	275	0	Ⴟ	cut_ui_stereo_44KHz.wav
2	14	2	2	1	C	2	0	188	0	Ⴂ	cut_oei_stereo_44KHz.wav
2	15	3	3	2	I	2	0	276	1	Ⴊ	cut_s_stereo_44KHz.wav
2	16	4	3	2	I	2	0	298	0	Ⴇ	cut_s_stereo_44KHz.wav
2	17	1	2	0	C	2	1	248	1	Ⴟ	cut_oei_stereo_44KHz.wav
2	18	4	3	2	I	2	0	250	0	Ⴇ	cut_s_stereo_44KHz.wav
2	19	3	4	2	I	2	0	352	1	Ⴊ	cut_f_stereo_44KHz.wav
2	20	2	2	1	C	2	0	243	0	Ⴂ	cut_oei_stereo_44KHz.wav
2	21	1	1	1	C	2	0	619	0	Ⴟ	cut_ui_stereo_44KHz.wav
2	22	2	1	0	C	2	1	279	1	Ⴂ	cut_ui_stereo_44KHz.wav
2	23	3	3	2	I	2	0	204	1	Ⴊ	cut_s_stereo_44KHz.wav
2	24	4	4	2	I	2	0	293	1	Ⴇ	cut_f_stereo_44KHz.wav
2	25	2	1	0	C	2	1	262	1	Ⴂ	cut_ui_stereo_44KHz.wav
2	26	4	3	2	I	1	0	287	1	Ⴇ	cut_s_stereo_44KHz.wav
2	27	3	4	2	I	2	0	395	1	Ⴊ	cut_f_stereo_44KHz.wav
2	28	1	1	1	C	1	1	299	1	Ⴟ	cut_ui_stereo_44KHz.wav
2	29	4	4	2	I	1	0	303	1	Ⴇ	cut_f_stereo_44KHz.wav
2	30	3	3	2	I	1	0	381	0	Ⴊ	cut_s_stereo_44KHz.wav
2	31	1	2	0	C	1	0	262	0	Ⴟ	cut_oei_stereo_44KHz.wav
2	32	2	2	1	C	1	1	306	1	Ⴂ	cut_oei_stereo_44KHz.wav
2	33	4	4	2	I	2	0	263	1	Ⴇ	cut_f_stereo_44KHz.wav
2	34	3	3	2	I	2	0	327	1	Ⴊ	cut_s_stereo_44KHz.wav
2	35	2	1	0	C	1	0	497	0	Ⴂ	cut_ui_stereo_44KHz.wav
2	36	1	2	0	C	2	1	529	1	Ⴟ	cut_oei_stereo_44KHz.wav
2	37	2	2	1	C	2	0	269	0	Ⴂ	cut_oei_stereo_44KHz.wav
2	38	3	4	2	I	2	0	326	1	Ⴊ	cut_f_stereo_44KHz.wav
2	39	4	3	2	I	2	0	300	1	Ⴇ	cut_s_stereo_44KHz.wav
2	40	1	1	1	C	1	1	245	1	Ⴟ	cut_ui_stereo_44KHz.wav
2	41	3	3	2	I	1	0	322	1	Ⴊ	cut_s_stereo_44KHz.wav
2	42	1	2	0	C	2	1	311	1	Ⴟ	cut_oei_stereo_44KHz.wav
2	43	2	1	0	C	2	1	484	1	Ⴂ	cut_ui_stereo_44KHz.wav
2	44	4	4	2	I	1	0	363	1	Ⴇ	cut_f_stereo_44KHz.wav
2	45	1	1	1	C	2	0	319	0	Ⴟ	cut_ui_stereo_44KHz.wav
2	46	3	4	2	I	2	0	352	0	Ⴊ	cut_f_stereo_44KHz.wav
2	47	2	2	1	C	2	0	286	0	Ⴂ	cut_oei_stereo_44KHz.wav
2	48	4	3	2	I	2	0	262	1	Ⴇ	cut_s_stereo_44KHz.wav
2	49	2	2	1	C	2	0	250	0	Ⴂ	cut_oei_stereo_44KHz.wav
2	50	3	3	2	I	2	0	226	1	Ⴊ	cut_s_stereo_44KHz.wav
2	51	1	1	1	C	2	0	331	0	Ⴟ	cut_ui_stereo_44KHz.wav
2	52	4	3	2	I	2	0	306	1	Ⴇ	cut_s_stereo_44KHz.wav
2	53	1	2	0	C	2	1	260	1	Ⴟ	cut_oei_stereo_44KHz.wav
2	54	4	4	2	I	2	0	423	0	Ⴇ	cut_f_stereo_44KHz.wav
2	55	3	4	2	I	2	0	242	1	Ⴊ	cut_f_stereo_44KHz.wav
2	56	2	1	0	C	2	1	265	1	Ⴂ	cut_ui_stereo_44KHz.wav
2	57	3	4	2	I	2	0	315	1	Ⴊ	cut_f_stereo_44KHz.wav
2	58	1	2	0	C	1	0	322	0	Ⴟ	cut_oei_stereo_44KHz.wav
2	59	2	2	1	C	2	0	407	0	Ⴂ	cut_oei_stereo_44KHz.wav
2	60	4	4	2	I	2	0	362	1	Ⴇ	cut_f_stereo_44KHz.wav
2	61	3	3	2	I	2	0	266	1	Ⴊ	cut_s_stereo_44KHz.wav
2	62	4	3	2	I	2	0	235	1	Ⴇ	cut_s_stereo_44KHz.wav
2	63	1	1	1	C	2	0	243	0	Ⴟ	cut_ui_stereo_44KHz.wav
2	64	2	1	0	C	2	1	176	1	Ⴂ	cut_ui_stereo_44KHz.wav
2	65	3	4	2	I	2	0	243	1	Ⴊ	cut_f_stereo_44KHz.wav
2	66	1	2	0	C	2	1	278	1	Ⴟ	cut_oei_stereo_44KHz.wav
2	67	4	3	2	I	2	0	403	1	Ⴇ	cut_s_stereo_44KHz.wav
2	68	2	1	0	C	2	1	247	1	Ⴂ	cut_ui_stereo_44KHz.wav
2	69	3	3	2	I	2	0	320	1	Ⴊ	cut_s_stereo_44KHz.wav
2	70	1	1	1	C	2	0	570	0	Ⴟ	cut_ui_stereo_44KHz.wav
2	71	4	4	2	I	2	0	316	0	Ⴇ	cut_f_stereo_44KHz.wav
2	72	2	2	1	C	2	0	376	0	Ⴂ	cut_oei_stereo_44KHz.wav
2	73	4	4	2	I	2	0	316	0	Ⴇ	cut_f_stereo_44KHz.wav
2	74	1	1	1	C	2	0	383	0	Ⴟ	cut_ui_stereo_44KHz.wav
2	75	3	3	2	I	2	0	259	0	Ⴊ	cut_s_stereo_44KHz.wav
2	76	2	1	0	C	2	1	280	1	Ⴂ	cut_ui_stereo_44KHz.wav
2	77	1	2	0	C	2	1	345	1	Ⴟ	cut_oei_stereo_44KHz.wav
2	78	4	3	2	I	2	0	375	1	Ⴇ	cut_s_stereo_44KHz.wav
2	79	2	2	1	C	2	0	436	0	Ⴂ	cut_oei_stereo_44KHz.wav
2	80	3	4	2	I	2	0	316	1	Ⴊ	cut_f_stereo_44KHz.wav
2	81	2	1	0	C	2	1	527	1	Ⴂ	cut_ui_stereo_44KHz.wav
2	82	3	4	2	I	2	0	529	1	Ⴊ	cut_f_stereo_44KHz.wav
2	83	1	1	1	C	1	1	322	1	Ⴟ	cut_ui_stereo_44KHz.wav
2	84	4	4	2	I	2	0	411	1	Ⴇ	cut_f_stereo_44KHz.wav
2	85	1	2	0	C	1	0	579	0	Ⴟ	cut_oei_stereo_44KHz.wav
2	86	2	2	1	C	0	0	0	0	Ⴂ	cut_oei_stereo_44KHz.wav
2	87	3	3	2	I	2	0	270	1	Ⴊ	cut_s_stereo_44KHz.wav
2	88	4	3	2	I	2	0	518	1	Ⴇ	cut_s_stereo_44KHz.wav
2	89	2	2	1	C	1	1	249	1	Ⴂ	cut_oei_stereo_44KHz.wav
2	90	1	2	0	C	1	0	430	0	Ⴟ	cut_oei_stereo_44KHz.wav
2	91	4	3	2	I	2	0	31	1	Ⴇ	cut_s_stereo_44KHz.wav
2	92	3	3	2	I	2	0	322	1	Ⴊ	cut_s_stereo_44KHz.wav
2	93	2	1	0	C	2	1	282	1	Ⴂ	cut_ui_stereo_44KHz.wav
2	94	1	1	1	C	1	1	749	1	Ⴟ	cut_ui_stereo_44KHz.wav
2	95	4	4	2	I	2	0	1156	1	Ⴇ	cut_f_stereo_44KHz.wav
2	96	3	4	2	I	2	0	375	1	Ⴊ	cut_f_stereo_44KHz.wav
2	97	4	3	2	I	1	0	202	1	Ⴇ	cut_s_stereo_44KHz.wav
2	98	1	2	0	C	2	1	521	1	Ⴟ	cut_oei_stereo_44KHz.wav
2	99	3	3	2	I	2	0	247	0	Ⴊ	cut_s_stereo_44KHz.wav
2	100	2	1	0	C	2	1	306	1	Ⴂ	cut_ui_stereo_44KHz.wav
2	101	3	4	2	I	1	0	276	1	Ⴊ	cut_f_stereo_44KHz.wav
2	102	2	2	1	C	2	0	583	0	Ⴂ	cut_oei_stereo_44KHz.wav
2	103	4	4	2	I	2	0	484	1	Ⴇ	cut_f_stereo_44KHz.wav
2	104	1	1	1	C	1	1	459	1	Ⴟ	cut_ui_stereo_44KHz.wav
2	105	3	4	2	I	2	0	456	1	Ⴊ	cut_f_stereo_44KHz.wav
2	106	1	2	0	C	1	0	466	0	Ⴟ	cut_oei_stereo_44KHz.wav
2	107	4	3	2	I	2	0	67	1	Ⴇ	cut_s_stereo_44KHz.wav
2	108	2	2	1	C	2	0	280	0	Ⴂ	cut_oei_stereo_44KHz.wav
2	109	3	3	2	I	2	0	363	1	Ⴊ	cut_s_stereo_44KHz.wav
2	110	1	1	1	C	2	0	879	0	Ⴟ	cut_ui_stereo_44KHz.wav
2	111	2	1	0	C	1	0	557	0	Ⴂ	cut_ui_stereo_44KHz.wav
2	112	4	4	2	I	1	0	329	1	Ⴇ	cut_f_stereo_44KHz.wav
2	113	2	2	1	C	2	0	149	0	Ⴂ	cut_oei_stereo_44KHz.wav
2	114	3	4	2	I	1	0	304	1	Ⴊ	cut_f_stereo_44KHz.wav
2	115	1	2	0	C	2	1	258	1	Ⴟ	cut_oei_stereo_44KHz.wav
2	116	4	4	2	I	2	0	269	1	Ⴇ	cut_f_stereo_44KHz.wav
2	117	2	1	0	C	2	1	302	1	Ⴂ	cut_ui_stereo_44KHz.wav
2	118	4	3	2	I	2	0	231	1	Ⴇ	cut_s_stereo_44KHz.wav
2	119	1	1	1	C	2	0	127	0	Ⴟ	cut_ui_stereo_44KHz.wav
2	120	3	3	2	I	2	0	221	1	Ⴊ	cut_s_stereo_44KHz.wav
2	121	1	2	0	C	2	1	253	1	Ⴟ	cut_oei_stereo_44KHz.wav
2	122	2	2	1	C	1	1	266	1	Ⴂ	cut_oei_stereo_44KHz.wav
2	123	4	3	2	I	2	0	317	1	Ⴇ	cut_s_stereo_44KHz.wav
2	124	3	3	2	I	2	0	290	0	Ⴊ	cut_s_stereo_44KHz.wav
2	125	4	4	2	I	2	0	300	1	Ⴇ	cut_f_stereo_44KHz.wav
2	126	1	1	1	C	1	1	220	1	Ⴟ	cut_ui_stereo_44KHz.wav
2	127	2	1	0	C	2	1	324	1	Ⴂ	cut_ui_stereo_44KHz.wav
2	128	3	4	2	I	1	0	252	0	Ⴊ	cut_f_stereo_44KHz.wav
2	129	2	2	1	C	2	0	360	0	Ⴂ	cut_oei_stereo_44KHz.wav
2	130	4	3	2	I	2	0	898	1	Ⴇ	cut_s_stereo_44KHz.wav
2	131	1	2	0	C	2	1	1426	1	Ⴟ	cut_oei_stereo_44KHz.wav
2	132	3	3	2	I	1	0	226	1	Ⴊ	cut_s_stereo_44KHz.wav
2	133	2	1	0	C	2	1	279	1	Ⴂ	cut_ui_stereo_44KHz.wav
2	134	4	4	2	I	1	0	329	1	Ⴇ	cut_f_stereo_44KHz.wav
2	135	3	4	2	I	1	0	257	1	Ⴊ	cut_f_stereo_44KHz.wav
2	136	1	1	1	C	1	1	261	1	Ⴟ	cut_ui_stereo_44KHz.wav
2	137	2	2	1	C	2	0	432	0	Ⴂ	cut_oei_stereo_44KHz.wav
2	138	4	4	2	I	2	0	679	0	Ⴇ	cut_f_stereo_44KHz.wav
2	139	3	4	2	I	2	0	668	1	Ⴊ	cut_f_stereo_44KHz.wav
2	140	1	1	1	C	2	0	436	0	Ⴟ	cut_ui_stereo_44KHz.wav
2	141	2	1	0	C	2	1	397	1	Ⴂ	cut_ui_stereo_44KHz.wav
2	142	1	2	0	C	2	1	208	1	Ⴟ	cut_oei_stereo_44KHz.wav
2	143	4	3	2	I	2	0	332	1	Ⴇ	cut_s_stereo_44KHz.wav
2	144	3	3	2	I	2	0	311	1	Ⴊ	cut_s_stereo_44KHz.wav
2	145	4	3	2	I	2	0	237	1	Ⴇ	cut_s_stereo_44KHz.wav
2	146	1	2	0	C	1	0	311	0	Ⴟ	cut_oei_stereo_44KHz.wav
2	147	3	4	2	I	2	0	257	0	Ⴊ	cut_f_stereo_44KHz.wav
2	148	2	1	0	C	2	1	298	1	Ⴂ	cut_ui_stereo_44KHz.wav
2	149	3	3	2	I	2	0	491	1	Ⴊ	cut_s_stereo_44KHz.wav
2	150	2	2	1	C	2	0	282	0	Ⴂ	cut_oei_stereo_44KHz.wav
2	151	1	1	1	C	2	0	264	0	Ⴟ	cut_ui_stereo_44KHz.wav
2	152	4	4	2	I	2	0	323	1	Ⴇ	cut_f_stereo_44KHz.wav
2	153	1	2	0	C	2	1	457	1	Ⴟ	cut_oei_stereo_44KHz.wav
2	154	4	3	2	I	1	0	275	0	Ⴇ	cut_s_stereo_44KHz.wav
2	155	3	4	2	I	2	0	52	1	Ⴊ	cut_f_stereo_44KHz.wav
2	156	2	2	1	C	1	1	257	1	Ⴂ	cut_oei_stereo_44KHz.wav
2	157	1	1	1	C	2	0	275	0	Ⴟ	cut_ui_stereo_44KHz.wav
2	158	2	1	0	C	2	1	497	1	Ⴂ	cut_ui_stereo_44KHz.wav
2	159	4	4	2	I	2	0	265	1	Ⴇ	cut_f_stereo_44KHz.wav
2	160	3	3	2	I	2	0	265	0	Ⴊ	cut_s_stereo_44KHz.wav
2	161	1	2	0	C	2	1	395	1	Ⴟ	cut_oei_stereo_44KHz.wav
2	162	4	4	2	I	2	0	378	0	Ⴇ	cut_f_stereo_44KHz.wav
2	163	3	4	2	I	2	0	433	1	Ⴊ	cut_f_stereo_44KHz.wav
2	164	2	2	1	C	2	0	389	0	Ⴂ	cut_oei_stereo_44KHz.wav
2	165	1	1	1	C	2	0	494	0	Ⴟ	cut_ui_stereo_44KHz.wav
2	166	3	3	2	I	1	0	254	0	Ⴊ	cut_s_stereo_44KHz.wav
2	167	4	3	2	I	2	0	537	1	Ⴇ	cut_s_stereo_44KHz.wav
2	168	2	1	0	C	2	1	348	1	Ⴂ	cut_ui_stereo_44KHz.wav
2	169	1	2	0	C	1	0	283	0	Ⴟ	cut_oei_stereo_44KHz.wav
2	170	3	3	2	I	2	0	317	1	Ⴊ	cut_s_stereo_44KHz.wav
2	171	4	4	2	I	2	0	283	0	Ⴇ	cut_f_stereo_44KHz.wav
2	172	2	2	1	C	1	1	350	1	Ⴂ	cut_oei_stereo_44KHz.wav
2	173	4	3	2	I	1	0	447	1	Ⴇ	cut_s_stereo_44KHz.wav
2	174	3	4	2	I	2	0	311	1	Ⴊ	cut_f_stereo_44KHz.wav
2	175	2	1	0	C	2	1	635	1	Ⴂ	cut_ui_stereo_44KHz.wav
2	176	1	1	1	C	2	0	331	0	Ⴟ	cut_ui_stereo_44KHz.wav
2	177	4	3	2	I	2	0	315	0	Ⴇ	cut_s_stereo_44KHz.wav
2	178	1	1	1	C	2	0	297	0	Ⴟ	cut_ui_stereo_44KHz.wav
2	179	3	3	2	I	2	0	369	1	Ⴊ	cut_s_stereo_44KHz.wav
2	180	2	2	1	C	2	0	323	0	Ⴂ	cut_oei_stereo_44KHz.wav
2	181	1	2	0	C	2	1	481	1	Ⴟ	cut_oei_stereo_44KHz.wav
2	182	2	1	0	C	2	1	390	1	Ⴂ	cut_ui_stereo_44KHz.wav
2	183	3	4	2	I	1	0	426	1	Ⴊ	cut_f_stereo_44KHz.wav
2	184	4	4	2	I	2	0	320	1	Ⴇ	cut_f_stereo_44KHz.wav
2	185	2	2	1	C	2	0	382	0	Ⴂ	cut_oei_stereo_44KHz.wav
2	186	4	3	2	I	2	0	242	1	Ⴇ	cut_s_stereo_44KHz.wav
2	187	1	2	0	C	2	1	311	1	Ⴟ	cut_oei_stereo_44KHz.wav
2	188	3	3	2	I	2	0	289	1	Ⴊ	cut_s_stereo_44KHz.wav
2	189	4	4	2	I	2	0	226	1	Ⴇ	cut_f_stereo_44KHz.wav
2	190	1	1	1	C	2	0	409	0	Ⴟ	cut_ui_stereo_44KHz.wav
2	191	2	1	0	C	2	1	407	1	Ⴂ	cut_ui_stereo_44KHz.wav
2	192	3	4	2	I	2	0	158	1	Ⴊ	cut_f_stereo_44KHz.wav
2	193	4	4	2	I	2	0	267	1	Ⴇ	cut_f_stereo_44KHz.wav
2	194	1	2	0	C	1	0	370	0	Ⴟ	cut_oei_stereo_44KHz.wav
2	195	2	2	1	C	2	0	239	0	Ⴂ	cut_oei_stereo_44KHz.wav
2	196	3	4	2	I	2	0	258	1	Ⴊ	cut_f_stereo_44KHz.wav
2	197	4	3	2	I	2	0	635	1	Ⴇ	cut_s_stereo_44KHz.wav
2	198	2	1	0	C	2	1	387	1	Ⴂ	cut_ui_stereo_44KHz.wav
2	199	1	1	1	C	1	1	283	1	Ⴟ	cut_ui_stereo_44KHz.wav
2	200	3	3	2	I	2	0	275	1	Ⴊ	cut_s_stereo_44KHz.wav
3	1	3	3	2	I	2	0	891	1	Ⴔ	cut_k_stereo_44KHz.wav
3	2	4	4	2	I	2	0	266	1	Ⴒ	cut_o_stereo_44KHz.wav
3	3	1	1	1	C	1	1	233	1	Ⴏ	cut_u_stereo_44KHz.wav
3	4	2	1	0	C	2	1	240	1	Ⴌ	cut_u_stereo_44KHz.wav
3	5	1	2	0	C	1	0	285	0	Ⴏ	cut_a_stereo_44KHz.wav
3	6	4	3	2	I	0	0	0	0	Ⴒ	cut_k_stereo_44KHz.wav
3	7	2	2	1	C	2	0	393	0	Ⴌ	cut_a_stereo_44KHz.wav
3	8	3	4	2	I	2	0	227	1	Ⴔ	cut_o_stereo_44KHz.wav
3	9	4	4	2	I	2	0	328	1	Ⴒ	cut_o_stereo_44KHz.wav
3	10	1	1	1	C	2	0	275	0	Ⴏ	cut_u_stereo_44KHz.wav
3	11	3	3	2	I	2	0	218	1	Ⴔ	cut_k_stereo_44KHz.wav
3	12	2	1	0	C	2	1	266	1	Ⴌ	cut_u_stereo_44KHz.wav
3	13	1	2	0	C	2	1	326	1	Ⴏ	cut_a_stereo_44KHz.wav
3	14	3	4	2	I	2	0	200	1	Ⴔ	cut_o_stereo_44KHz.wav
3	15	2	2	1	C	2	0	347	0	Ⴌ	cut_a_stereo_44KHz.wav
3	16	4	3	2	I	2	0	548	1	Ⴒ	cut_k_stereo_44KHz.wav
3	17	3	4	2	I	2	0	196	0	Ⴔ	cut_o_stereo_44KHz.wav
3	18	2	2	1	C	2	0	243	0	Ⴌ	cut_a_stereo_44KHz.wav
3	19	1	2	0	C	2	1	308	1	Ⴏ	cut_a_stereo_44KHz.wav
3	20	4	3	2	I	2	0	348	1	Ⴒ	cut_k_stereo_44KHz.wav
3	21	2	1	0	C	2	1	433	1	Ⴌ	cut_u_stereo_44KHz.wav
3	22	1	1	1	C	2	0	219	0	Ⴏ	cut_u_stereo_44KHz.wav
3	23	3	3	2	I	2	0	233	1	Ⴔ	cut_k_stereo_44KHz.wav
3	24	4	4	2	I	2	0	141	1	Ⴒ	cut_o_stereo_44KHz.wav
3	25	3	4	2	I	2	0	247	1	Ⴔ	cut_o_stereo_44KHz.wav
3	26	2	1	0	C	2	1	482	1	Ⴌ	cut_u_stereo_44KHz.wav
3	27	4	4	2	I	2	0	259	1	Ⴒ	cut_o_stereo_44KHz.wav
3	28	1	1	1	C	2	0	352	0	Ⴏ	cut_u_stereo_44KHz.wav
3	29	2	2	1	C	2	0	238	0	Ⴌ	cut_a_stereo_44KHz.wav
3	30	3	3	2	I	2	0	407	0	Ⴔ	cut_k_stereo_44KHz.wav
3	31	4	3	2	I	2	0	342	0	Ⴒ	cut_k_stereo_44KHz.wav
3	32	1	2	0	C	2	1	158	1	Ⴏ	cut_a_stereo_44KHz.wav
3	33	4	4	2	I	2	0	272	1	Ⴒ	cut_o_stereo_44KHz.wav
3	34	3	3	2	I	2	0	249	1	Ⴔ	cut_k_stereo_44KHz.wav
3	35	2	2	1	C	2	0	292	0	Ⴌ	cut_a_stereo_44KHz.wav
3	36	1	1	1	C	2	0	285	0	Ⴏ	cut_u_stereo_44KHz.wav
3	37	2	1	0	C	2	1	1129	1	Ⴌ	cut_u_stereo_44KHz.wav
3	38	4	3	2	I	2	0	466	1	Ⴒ	cut_k_stereo_44KHz.wav
3	39	1	2	0	C	2	1	215	1	Ⴏ	cut_a_stereo_44KHz.wav
3	40	3	4	2	I	2	0	170	1	Ⴔ	cut_o_stereo_44KHz.wav
3	41	2	2	1	C	2	0	218	0	Ⴌ	cut_a_stereo_44KHz.wav
3	42	4	4	2	I	2	0	177	1	Ⴒ	cut_o_stereo_44KHz.wav
3	43	3	3	2	I	2	0	224	0	Ⴔ	cut_k_stereo_44KHz.wav
3	44	1	1	1	C	2	0	275	0	Ⴏ	cut_u_stereo_44KHz.wav
3	45	3	4	2	I	2	0	364	1	Ⴔ	cut_o_stereo_44KHz.wav
3	46	1	2	0	C	2	1	286	1	Ⴏ	cut_a_stereo_44KHz.wav
3	47	4	3	2	I	1	0	253	0	Ⴒ	cut_k_stereo_44KHz.wav
3	48	2	1	0	C	1	0	231	0	Ⴌ	cut_u_stereo_44KHz.wav
3	49	4	4	2	I	1	0	606	0	Ⴒ	cut_o_stereo_44KHz.wav
3	50	3	4	2	I	1	0	378	0	Ⴔ	cut_o_stereo_44KHz.wav
3	51	2	2	1	C	1	1	804	1	Ⴌ	cut_a_stereo_44KHz.wav
3	52	1	2	0	C	1	0	303	0	Ⴏ	cut_a_stereo_44KHz.wav
3	53	2	1	0	C	2	1	1090	1	Ⴌ	cut_u_stereo_44KHz.wav
3	54	1	1	1	C	2	0	390	0	Ⴏ	cut_u_stereo_44KHz.wav
3	55	4	3	2	I	2	0	1092	1	Ⴒ	cut_k_stereo_44KHz.wav
3	56	3	3	2	I	2	0	291	1	Ⴔ	cut_k_stereo_44KHz.wav
3	57	4	3	2	I	2	0	269	1	Ⴒ	cut_k_stereo_44KHz.wav
3	58	1	2	0	C	2	1	319	1	Ⴏ	cut_a_stereo_44KHz.wav
3	59	2	2	1	C	1	1	264	1	Ⴌ	cut_a_stereo_44KHz.wav
3	60	3	4	2	I	2	0	259	1	Ⴔ	cut_o_stereo_44KHz.wav
3	61	2	1	0	C	1	0	216	0	Ⴌ	cut_u_stereo_44KHz.wav
3	62	1	1	1	C	1	1	119	1	Ⴏ	cut_u_stereo_44KHz.wav
3	63	4	4	2	I	1	0	660	1	Ⴒ	cut_o_stereo_44KHz.wav
3	64	3	3	2	I	2	0	265	0	Ⴔ	cut_k_stereo_44KHz.wav
3	65	4	4	2	I	2	0	251	1	Ⴒ	cut_o_stereo_44KHz.wav
3	66	1	2	0	C	2	1	519	1	Ⴏ	cut_a_stereo_44KHz.wav
3	67	3	4	2	I	2	0	326	1	Ⴔ	cut_o_stereo_44KHz.wav
3	68	2	2	1	C	2	0	281	0	Ⴌ	cut_a_stereo_44KHz.wav
3	69	4	3	2	I	2	0	278	1	Ⴒ	cut_k_stereo_44KHz.wav
3	70	2	1	0	C	2	1	328	1	Ⴌ	cut_u_stereo_44KHz.wav
3	71	1	1	1	C	2	0	272	0	Ⴏ	cut_u_stereo_44KHz.wav
3	72	3	3	2	I	2	0	91	1	Ⴔ	cut_k_stereo_44KHz.wav
3	73	4	3	2	I	2	0	538	1	Ⴒ	cut_k_stereo_44KHz.wav
3	74	2	1	0	C	2	1	296	1	Ⴌ	cut_u_stereo_44KHz.wav
3	75	1	2	0	C	2	1	226	1	Ⴏ	cut_a_stereo_44KHz.wav
3	76	3	4	2	I	2	0	590	0	Ⴔ	cut_o_stereo_44KHz.wav
3	77	1	1	1	C	2	0	388	0	Ⴏ	cut_u_stereo_44KHz.wav
3	78	4	4	2	I	2	0	312	0	Ⴒ	cut_o_stereo_44KHz.wav
3	79	3	3	2	I	2	0	234	1	Ⴔ	cut_k_stereo_44KHz.wav
3	80	2	2	1	C	2	0	356	0	Ⴌ	cut_a_stereo_44KHz.wav
3	81	3	4	2	I	2	0	458	1	Ⴔ	cut_o_stereo_44KHz.wav
3	82	1	2	0	C	2	1	506	1	Ⴏ	cut_a_stereo_44KHz.wav
3	83	2	1	0	C	1	0	385	0	Ⴌ	cut_u_stereo_44KHz.wav
3	84	4	4	2	I	2	0	1239	1	Ⴒ	cut_o_stereo_44KHz.wav
3	85	1	1	1	C	2	0	167	0	Ⴏ	cut_u_stereo_44KHz.wav
3	86	3	3	2	I	2	0	132	1	Ⴔ	cut_k_stereo_44KHz.wav
3	87	4	3	2	I	2	0	215	1	Ⴒ	cut_k_stereo_44KHz.wav
3	88	2	2	1	C	2	0	1081	0	Ⴌ	cut_a_stereo_44KHz.wav
3	89	4	4	2	I	2	0	226	1	Ⴒ	cut_o_stereo_44KHz.wav
3	90	2	1	0	C	2	1	201	1	Ⴌ	cut_u_stereo_44KHz.wav
3	91	1	2	0	C	2	1	210	1	Ⴏ	cut_a_stereo_44KHz.wav
3	92	3	3	2	I	2	0	210	1	Ⴔ	cut_k_stereo_44KHz.wav
3	93	2	2	1	C	1	1	290	1	Ⴌ	cut_a_stereo_44KHz.wav
3	94	3	4	2	I	1	0	238	1	Ⴔ	cut_o_stereo_44KHz.wav
3	95	4	3	2	I	1	0	109	1	Ⴒ	cut_k_stereo_44KHz.wav
3	96	1	1	1	C	2	0	221	0	Ⴏ	cut_u_stereo_44KHz.wav
3	97	2	2	1	C	2	0	287	0	Ⴌ	cut_a_stereo_44KHz.wav
3	98	4	3	2	I	2	0	349	1	Ⴒ	cut_k_stereo_44KHz.wav
3	99	1	2	0	C	2	1	251	1	Ⴏ	cut_a_stereo_44KHz.wav
3	100	3	3	2	I	2	0	285	0	Ⴔ	cut_k_stereo_44KHz.wav
3	101	2	1	0	C	2	1	447	1	Ⴌ	cut_u_stereo_44KHz.wav
3	102	1	1	1	C	2	0	194	0	Ⴏ	cut_u_stereo_44KHz.wav
3	103	3	4	2	I	2	0	494	1	Ⴔ	cut_o_stereo_44KHz.wav
3	104	4	4	2	I	2	0	323	0	Ⴒ	cut_o_stereo_44KHz.wav
3	105	1	1	1	C	2	0	284	0	Ⴏ	cut_u_stereo_44KHz.wav
3	106	4	4	2	I	2	0	265	1	Ⴒ	cut_o_stereo_44KHz.wav
3	107	3	3	2	I	2	0	245	0	Ⴔ	cut_k_stereo_44KHz.wav
3	108	2	2	1	C	2	0	326	0	Ⴌ	cut_a_stereo_44KHz.wav
3	109	3	4	2	I	2	0	242	1	Ⴔ	cut_o_stereo_44KHz.wav
3	110	1	2	0	C	2	1	399	1	Ⴏ	cut_a_stereo_44KHz.wav
3	111	2	1	0	C	1	0	261	0	Ⴌ	cut_u_stereo_44KHz.wav
3	112	4	3	2	I	2	0	1241	1	Ⴒ	cut_k_stereo_44KHz.wav
3	113	1	1	1	C	2	0	257	0	Ⴏ	cut_u_stereo_44KHz.wav
3	114	2	1	0	C	2	1	405	1	Ⴌ	cut_u_stereo_44KHz.wav
3	115	3	4	2	I	2	0	252	1	Ⴔ	cut_o_stereo_44KHz.wav
3	116	4	3	2	I	2	0	280	0	Ⴒ	cut_k_stereo_44KHz.wav
3	117	1	2	0	C	2	1	1168	1	Ⴏ	cut_a_stereo_44KHz.wav
3	118	4	4	2	I	2	0	346	1	Ⴒ	cut_o_stereo_44KHz.wav
3	119	2	2	1	C	2	0	309	0	Ⴌ	cut_a_stereo_44KHz.wav
3	120	3	3	2	I	2	0	496	1	Ⴔ	cut_k_stereo_44KHz.wav
3	121	4	3	2	I	2	0	298	1	Ⴒ	cut_k_stereo_44KHz.wav
3	122	1	1	1	C	2	0	631	0	Ⴏ	cut_u_stereo_44KHz.wav
3	123	3	4	2	I	2	0	836	1	Ⴔ	cut_o_stereo_44KHz.wav
3	124	2	1	0	C	1	0	432	0	Ⴌ	cut_u_stereo_44KHz.wav
3	125	3	3	2	I	2	0	321	1	Ⴔ	cut_k_stereo_44KHz.wav
3	126	4	4	2	I	2	0	271	1	Ⴒ	cut_o_stereo_44KHz.wav
3	127	1	2	0	C	1	0	39	0	Ⴏ	cut_a_stereo_44KHz.wav
3	128	2	2	1	C	2	0	172	0	Ⴌ	cut_a_stereo_44KHz.wav
3	129	3	4	2	I	2	0	199	1	Ⴔ	cut_o_stereo_44KHz.wav
3	130	4	3	2	I	2	0	161	1	Ⴒ	cut_k_stereo_44KHz.wav
3	131	2	2	1	C	2	0	643	0	Ⴌ	cut_a_stereo_44KHz.wav
3	132	1	2	0	C	2	1	96	1	Ⴏ	cut_a_stereo_44KHz.wav
3	133	3	3	2	I	2	0	204	1	Ⴔ	cut_k_stereo_44KHz.wav
3	134	4	4	2	I	2	0	262	1	Ⴒ	cut_o_stereo_44KHz.wav
3	135	1	1	1	C	2	0	236	0	Ⴏ	cut_u_stereo_44KHz.wav
3	136	2	1	0	C	2	1	237	1	Ⴌ	cut_u_stereo_44KHz.wav
3	137	3	4	2	I	2	0	255	1	Ⴔ	cut_o_stereo_44KHz.wav
3	138	4	3	2	I	2	0	240	1	Ⴒ	cut_k_stereo_44KHz.wav
3	139	1	1	1	C	2	0	187	0	Ⴏ	cut_u_stereo_44KHz.wav
3	140	2	1	0	C	2	1	318	1	Ⴌ	cut_u_stereo_44KHz.wav
3	141	3	3	2	I	2	0	266	1	Ⴔ	cut_k_stereo_44KHz.wav
3	142	2	2	1	C	2	0	565	0	Ⴌ	cut_a_stereo_44KHz.wav
3	143	1	2	0	C	2	1	396	1	Ⴏ	cut_a_stereo_44KHz.wav
3	144	4	4	2	I	2	0	573	1	Ⴒ	cut_o_stereo_44KHz.wav
3	145	2	2	1	C	0	0	0	0	Ⴌ	cut_a_stereo_44KHz.wav
3	146	4	4	2	I	2	0	519	1	Ⴒ	cut_o_stereo_44KHz.wav
3	147	1	2	0	C	2	1	211	1	Ⴏ	cut_a_stereo_44KHz.wav
3	148	3	4	2	I	2	0	329	1	Ⴔ	cut_o_stereo_44KHz.wav
3	149	1	1	1	C	2	0	322	0	Ⴏ	cut_u_stereo_44KHz.wav
3	150	2	1	0	C	2	1	219	1	Ⴌ	cut_u_stereo_44KHz.wav
3	151	3	3	2	I	2	0	257	1	Ⴔ	cut_k_stereo_44KHz.wav
3	152	4	3	2	I	2	0	274	1	Ⴒ	cut_k_stereo_44KHz.wav
3	153	3	3	2	I	2	0	324	1	Ⴔ	cut_k_stereo_44KHz.wav
3	154	1	1	1	C	2	0	132	0	Ⴏ	cut_u_stereo_44KHz.wav
3	155	4	4	2	I	2	0	209	1	Ⴒ	cut_o_stereo_44KHz.wav
3	156	2	1	0	C	2	1	136	1	Ⴌ	cut_u_stereo_44KHz.wav
3	157	3	4	2	I	2	0	97	1	Ⴔ	cut_o_stereo_44KHz.wav
3	158	2	2	1	C	2	0	285	0	Ⴌ	cut_a_stereo_44KHz.wav
3	159	1	2	0	C	2	1	451	1	Ⴏ	cut_a_stereo_44KHz.wav
3	160	4	3	2	I	2	0	71	0	Ⴒ	cut_k_stereo_44KHz.wav
3	161	3	3	2	I	2	0	191	1	Ⴔ	cut_k_stereo_44KHz.wav
3	162	2	1	0	C	2	1	230	1	Ⴌ	cut_u_stereo_44KHz.wav
3	163	1	1	1	C	2	0	308	0	Ⴏ	cut_u_stereo_44KHz.wav
3	164	4	3	2	I	2	0	216	0	Ⴒ	cut_k_stereo_44KHz.wav
3	165	1	2	0	C	2	1	233	1	Ⴏ	cut_a_stereo_44KHz.wav
3	166	3	4	2	I	2	0	190	1	Ⴔ	cut_o_stereo_44KHz.wav
3	167	2	2	1	C	2	0	147	0	Ⴌ	cut_a_stereo_44KHz.wav
3	168	4	4	2	I	2	0	271	1	Ⴒ	cut_o_stereo_44KHz.wav
3	169	2	2	1	C	2	0	237	0	Ⴌ	cut_a_stereo_44KHz.wav
3	170	4	4	2	I	2	0	258	0	Ⴒ	cut_o_stereo_44KHz.wav
3	171	3	3	2	I	2	0	252	1	Ⴔ	cut_k_stereo_44KHz.wav
3	172	1	2	0	C	2	1	253	1	Ⴏ	cut_a_stereo_44KHz.wav
3	173	4	3	2	I	2	0	637	1	Ⴒ	cut_k_stereo_44KHz.wav
3	174	3	4	2	I	2	0	608	1	Ⴔ	cut_o_stereo_44KHz.wav
3	175	2	1	0	C	2	1	466	1	Ⴌ	cut_u_stereo_44KHz.wav
3	176	1	1	1	C	2	0	364	0	Ⴏ	cut_u_stereo_44KHz.wav
3	177	4	3	2	I	2	0	618	1	Ⴒ	cut_k_stereo_44KHz.wav
3	178	3	3	2	I	2	0	399	1	Ⴔ	cut_k_stereo_44KHz.wav
3	179	2	2	1	C	2	0	438	0	Ⴌ	cut_a_stereo_44KHz.wav
3	180	1	1	1	C	2	0	257	0	Ⴏ	cut_u_stereo_44KHz.wav
3	181	2	1	0	C	2	1	393	1	Ⴌ	cut_u_stereo_44KHz.wav
3	182	4	4	2	I	2	0	653	1	Ⴒ	cut_o_stereo_44KHz.wav
3	183	1	2	0	C	2	1	437	1	Ⴏ	cut_a_stereo_44KHz.wav
3	184	3	4	2	I	2	0	261	1	Ⴔ	cut_o_stereo_44KHz.wav
3	185	2	1	0	C	2	1	261	1	Ⴌ	cut_u_stereo_44KHz.wav
3	186	1	1	1	C	2	0	276	0	Ⴏ	cut_u_stereo_44KHz.wav
3	187	3	3	2	I	2	0	327	1	Ⴔ	cut_k_stereo_44KHz.wav
3	188	4	3	2	I	2	0	267	1	Ⴒ	cut_k_stereo_44KHz.wav
3	189	1	2	0	C	2	1	358	1	Ⴏ	cut_a_stereo_44KHz.wav
3	190	2	2	1	C	2	0	635	0	Ⴌ	cut_a_stereo_44KHz.wav
3	191	3	4	2	I	0	0	0	0	Ⴔ	cut_o_stereo_44KHz.wav
3	192	4	4	2	I	2	0	235	1	Ⴒ	cut_o_stereo_44KHz.wav
3	193	3	3	2	I	2	0	202	1	Ⴔ	cut_k_stereo_44KHz.wav
3	194	4	4	2	I	2	0	149	1	Ⴒ	cut_o_stereo_44KHz.wav
3	195	2	2	1	C	2	0	31	0	Ⴌ	cut_a_stereo_44KHz.wav
3	196	1	1	1	C	2	0	161	0	Ⴏ	cut_u_stereo_44KHz.wav
3	197	4	3	2	I	2	0	219	1	Ⴒ	cut_k_stereo_44KHz.wav
3	198	1	2	0	C	2	1	194	1	Ⴏ	cut_a_stereo_44KHz.wav
3	199	3	4	2	I	2	0	44	0	Ⴔ	cut_o_stereo_44KHz.wav
3	200	2	1	0	C	2	1	73	1	Ⴌ	cut_u_stereo_44KHz.wav
4	1	2	1	0	C	2	1	1724	1	Ⴐ	cut_j_stereo_44KHz.wav
4	2	4	3	2	I	2	0	385	1	Ⴉ	cut_n_stereo_44KHz.wav
4	3	1	2	0	C	2	1	257	1	Ⴕ	cut_ei_stereo_44KHz.wav
4	4	3	4	2	I	2	0	228	1	Ⴖ	cut_r_stereo_44KHz.wav
4	5	4	4	2	I	2	0	264	0	Ⴉ	cut_r_stereo_44KHz.wav
4	6	2	2	1	C	2	0	618	0	Ⴐ	cut_ei_stereo_44KHz.wav
4	7	1	1	1	C	2	0	498	0	Ⴕ	cut_j_stereo_44KHz.wav
4	8	3	3	2	I	2	0	244	0	Ⴖ	cut_n_stereo_44KHz.wav
4	9	4	4	2	I	2	0	254	1	Ⴉ	cut_r_stereo_44KHz.wav
4	10	2	1	0	C	2	1	335	1	Ⴐ	cut_j_stereo_44KHz.wav
4	11	1	1	1	C	2	0	652	0	Ⴕ	cut_j_stereo_44KHz.wav
4	12	3	3	2	I	2	0	277	1	Ⴖ	cut_n_stereo_44KHz.wav
4	13	4	3	2	I	2	0	589	1	Ⴉ	cut_n_stereo_44KHz.wav
4	14	3	4	2	I	2	0	296	1	Ⴖ	cut_r_stereo_44KHz.wav
4	15	2	2	1	C	2	0	350	0	Ⴐ	cut_ei_stereo_44KHz.wav
4	16	1	2	0	C	2	1	268	1	Ⴕ	cut_ei_stereo_44KHz.wav
4	17	3	4	2	I	2	0	89	1	Ⴖ	cut_r_stereo_44KHz.wav
4	18	1	2	0	C	2	1	112	1	Ⴕ	cut_ei_stereo_44KHz.wav
4	19	4	3	2	I	2	0	211	1	Ⴉ	cut_n_stereo_44KHz.wav
4	20	2	2	1	C	2	0	94	0	Ⴐ	cut_ei_stereo_44KHz.wav
4	21	4	4	2	I	2	0	61	1	Ⴉ	cut_r_stereo_44KHz.wav
4	22	3	3	2	I	2	0	475	1	Ⴖ	cut_n_stereo_44KHz.wav
4	23	1	1	1	C	2	0	372	0	Ⴕ	cut_j_stereo_44KHz.wav
4	24	2	1	0	C	2	1	492	1	Ⴐ	cut_j_stereo_44KHz.wav
4	25	1	1	1	C	2	0	13	0	Ⴕ	cut_j_stereo_44KHz.wav
4	26	3	4	2	I	2	0	121	1	Ⴖ	cut_r_stereo_44KHz.wav
4	27	4	3	2	I	2	0	79	1	Ⴉ	cut_n_stereo_44KHz.wav
4	28	2	1	0	C	2	1	111	1	Ⴐ	cut_j_stereo_44KHz.wav
4	29	1	2	0	C	2	1	62	1	Ⴕ	cut_ei_stereo_44KHz.wav
4	30	4	4	2	I	2	0	205	1	Ⴉ	cut_r_stereo_44KHz.wav
4	31	2	2	1	C	2	0	117	0	Ⴐ	cut_ei_stereo_44KHz.wav
4	32	3	3	2	I	2	0	271	1	Ⴖ	cut_n_stereo_44KHz.wav
4	33	1	1	1	C	2	0	443	0	Ⴕ	cut_j_stereo_44KHz.wav
4	34	4	3	2	I	2	0	765	1	Ⴉ	cut_n_stereo_44KHz.wav
4	35	2	2	1	C	0	0	0	0	Ⴐ	cut_ei_stereo_44KHz.wav
4	36	3	3	2	I	2	0	416	1	Ⴖ	cut_n_stereo_44KHz.wav
4	37	2	1	0	C	2	1	229	1	Ⴐ	cut_j_stereo_44KHz.wav
4	38	1	2	0	C	2	1	211	1	Ⴕ	cut_ei_stereo_44KHz.wav
4	39	4	4	2	I	2	0	288	0	Ⴉ	cut_r_stereo_44KHz.wav
4	40	3	4	2	I	2	0	209	1	Ⴖ	cut_r_stereo_44KHz.wav
4	41	4	3	2	I	2	0	256	1	Ⴉ	cut_n_stereo_44KHz.wav
4	42	3	4	2	I	2	0	305	1	Ⴖ	cut_r_stereo_44KHz.wav
4	43	2	2	1	C	2	0	128	0	Ⴐ	cut_ei_stereo_44KHz.wav
4	44	1	1	1	C	2	0	530	0	Ⴕ	cut_j_stereo_44KHz.wav
4	45	4	4	2	I	2	0	446	1	Ⴉ	cut_r_stereo_44KHz.wav
4	46	3	3	2	I	2	0	322	1	Ⴖ	cut_n_stereo_44KHz.wav
4	47	1	2	0	C	2	1	23	1	Ⴕ	cut_ei_stereo_44KHz.wav
4	48	2	1	0	C	2	1	326	1	Ⴐ	cut_j_stereo_44KHz.wav
4	49	3	4	2	I	2	0	372	1	Ⴖ	cut_r_stereo_44KHz.wav
4	50	1	2	0	C	2	1	240	1	Ⴕ	cut_ei_stereo_44KHz.wav
4	51	4	3	2	I	2	0	64	0	Ⴉ	cut_n_stereo_44KHz.wav
4	52	2	2	1	C	2	0	470	0	Ⴐ	cut_ei_stereo_44KHz.wav
4	53	4	4	2	I	2	0	414	1	Ⴉ	cut_r_stereo_44KHz.wav
4	54	1	1	1	C	2	0	592	0	Ⴕ	cut_j_stereo_44KHz.wav
4	55	3	3	2	I	2	0	407	1	Ⴖ	cut_n_stereo_44KHz.wav
4	56	2	1	0	C	2	1	308	1	Ⴐ	cut_j_stereo_44KHz.wav
4	57	4	3	2	I	2	0	217	1	Ⴉ	cut_n_stereo_44KHz.wav
4	58	3	3	2	I	2	0	234	1	Ⴖ	cut_n_stereo_44KHz.wav
4	59	1	1	1	C	2	0	349	0	Ⴕ	cut_j_stereo_44KHz.wav
4	60	2	2	1	C	2	0	274	0	Ⴐ	cut_ei_stereo_44KHz.wav
4	61	3	4	2	I	2	0	230	1	Ⴖ	cut_r_stereo_44KHz.wav
4	62	4	4	2	I	2	0	277	1	Ⴉ	cut_r_stereo_44KHz.wav
4	63	2	1	0	C	2	1	733	1	Ⴐ	cut_j_stereo_44KHz.wav
4	64	1	2	0	C	2	1	276	1	Ⴕ	cut_ei_stereo_44KHz.wav
4	65	3	4	2	I	2	0	488	1	Ⴖ	cut_r_stereo_44KHz.wav
4	66	4	3	2	I	2	0	1023	1	Ⴉ	cut_n_stereo_44KHz.wav
4	67	2	2	1	C	2	0	696	0	Ⴐ	cut_ei_stereo_44KHz.wav
4	68	1	1	1	C	2	0	339	0	Ⴕ	cut_j_stereo_44KHz.wav
4	69	2	1	0	C	2	1	93	1	Ⴐ	cut_j_stereo_44KHz.wav
4	70	1	2	0	C	2	1	192	1	Ⴕ	cut_ei_stereo_44KHz.wav
4	71	3	3	2	I	2	0	282	0	Ⴖ	cut_n_stereo_44KHz.wav
4	72	4	4	2	I	2	0	312	1	Ⴉ	cut_r_stereo_44KHz.wav
4	73	2	2	1	C	2	0	683	0	Ⴐ	cut_ei_stereo_44KHz.wav
4	74	3	4	2	I	2	0	82	1	Ⴖ	cut_r_stereo_44KHz.wav
4	75	1	1	1	C	2	0	261	0	Ⴕ	cut_j_stereo_44KHz.wav
4	76	4	4	2	I	2	0	145	1	Ⴉ	cut_r_stereo_44KHz.wav
4	77	3	3	2	I	2	0	611	1	Ⴖ	cut_n_stereo_44KHz.wav
4	78	2	1	0	C	2	1	457	1	Ⴐ	cut_j_stereo_44KHz.wav
4	79	4	3	2	I	2	0	121	1	Ⴉ	cut_n_stereo_44KHz.wav
4	80	1	2	0	C	2	1	76	1	Ⴕ	cut_ei_stereo_44KHz.wav
4	81	3	3	2	I	2	0	121	1	Ⴖ	cut_n_stereo_44KHz.wav
4	82	2	2	1	C	2	0	183	0	Ⴐ	cut_ei_stereo_44KHz.wav
4	83	4	4	2	I	2	0	64	1	Ⴉ	cut_r_stereo_44KHz.wav
4	84	1	1	1	C	2	0	248	0	Ⴕ	cut_j_stereo_44KHz.wav
4	85	2	1	0	C	2	1	404	1	Ⴐ	cut_j_stereo_44KHz.wav
4	86	1	2	0	C	2	1	357	1	Ⴕ	cut_ei_stereo_44KHz.wav
4	87	4	3	2	I	2	0	202	0	Ⴉ	cut_n_stereo_44KHz.wav
4	88	3	4	2	I	2	0	265	1	Ⴖ	cut_r_stereo_44KHz.wav
4	89	1	2	0	C	2	1	429	1	Ⴕ	cut_ei_stereo_44KHz.wav
4	90	3	3	2	I	2	0	313	1	Ⴖ	cut_n_stereo_44KHz.wav
4	91	2	2	1	C	2	0	275	0	Ⴐ	cut_ei_stereo_44KHz.wav
4	92	4	4	2	I	2	0	335	1	Ⴉ	cut_r_stereo_44KHz.wav
4	93	3	4	2	I	2	0	384	0	Ⴖ	cut_r_stereo_44KHz.wav
4	94	4	3	2	I	2	0	430	1	Ⴉ	cut_n_stereo_44KHz.wav
4	95	1	1	1	C	2	0	277	0	Ⴕ	cut_j_stereo_44KHz.wav
4	96	2	1	0	C	2	1	304	1	Ⴐ	cut_j_stereo_44KHz.wav
4	97	3	4	2	I	2	0	10	0	Ⴖ	cut_r_stereo_44KHz.wav
4	98	1	2	0	C	2	1	109	1	Ⴕ	cut_ei_stereo_44KHz.wav
4	99	4	4	2	I	2	0	221	1	Ⴉ	cut_r_stereo_44KHz.wav
4	100	2	2	1	C	2	0	248	0	Ⴐ	cut_ei_stereo_44KHz.wav
4	101	3	3	2	I	2	0	262	1	Ⴖ	cut_n_stereo_44KHz.wav
4	102	4	3	2	I	2	0	403	1	Ⴉ	cut_n_stereo_44KHz.wav
4	103	2	1	0	C	2	1	213	1	Ⴐ	cut_j_stereo_44KHz.wav
4	104	1	1	1	C	2	0	105	0	Ⴕ	cut_j_stereo_44KHz.wav
4	105	3	3	2	I	2	0	190	1	Ⴖ	cut_n_stereo_44KHz.wav
4	106	1	1	1	C	2	0	186	0	Ⴕ	cut_j_stereo_44KHz.wav
4	107	4	4	2	I	2	0	155	1	Ⴉ	cut_r_stereo_44KHz.wav
4	108	2	2	1	C	2	0	430	0	Ⴐ	cut_ei_stereo_44KHz.wav
4	109	3	4	2	I	2	0	159	0	Ⴖ	cut_r_stereo_44KHz.wav
4	110	1	2	0	C	2	1	301	1	Ⴕ	cut_ei_stereo_44KHz.wav
4	111	2	1	0	C	2	1	515	1	Ⴐ	cut_j_stereo_44KHz.wav
4	112	4	3	2	I	2	0	212	0	Ⴉ	cut_n_stereo_44KHz.wav
4	113	3	4	2	I	2	0	240	1	Ⴖ	cut_r_stereo_44KHz.wav
4	114	2	2	1	C	2	0	250	0	Ⴐ	cut_ei_stereo_44KHz.wav
4	115	1	1	1	C	2	0	382	0	Ⴕ	cut_j_stereo_44KHz.wav
4	116	4	3	2	I	2	0	255	1	Ⴉ	cut_n_stereo_44KHz.wav
4	117	2	1	0	C	2	1	269	1	Ⴐ	cut_j_stereo_44KHz.wav
4	118	1	2	0	C	2	1	222	1	Ⴕ	cut_ei_stereo_44KHz.wav
4	119	3	3	2	I	2	0	238	1	Ⴖ	cut_n_stereo_44KHz.wav
4	120	4	4	2	I	2	0	189	0	Ⴉ	cut_r_stereo_44KHz.wav
4	121	2	1	0	C	2	1	219	1	Ⴐ	cut_j_stereo_44KHz.wav
4	122	1	1	1	C	2	0	339	0	Ⴕ	cut_j_stereo_44KHz.wav
4	123	3	4	2	I	2	0	403	1	Ⴖ	cut_r_stereo_44KHz.wav
4	124	4	3	2	I	2	0	86	1	Ⴉ	cut_n_stereo_44KHz.wav
4	125	2	2	1	C	2	0	466	0	Ⴐ	cut_ei_stereo_44KHz.wav
4	126	4	4	2	I	2	0	155	0	Ⴉ	cut_r_stereo_44KHz.wav
4	127	3	3	2	I	2	0	408	0	Ⴖ	cut_n_stereo_44KHz.wav
4	128	1	2	0	C	2	1	571	1	Ⴕ	cut_ei_stereo_44KHz.wav
4	129	3	3	2	I	2	0	254	1	Ⴖ	cut_n_stereo_44KHz.wav
4	130	1	2	0	C	2	1	208	1	Ⴕ	cut_ei_stereo_44KHz.wav
4	131	2	2	1	C	2	0	341	0	Ⴐ	cut_ei_stereo_44KHz.wav
4	132	4	3	2	I	2	0	350	1	Ⴉ	cut_n_stereo_44KHz.wav
4	133	2	1	0	C	2	1	238	1	Ⴐ	cut_j_stereo_44KHz.wav
4	134	4	4	2	I	2	0	839	1	Ⴉ	cut_r_stereo_44KHz.wav
4	135	3	4	2	I	2	0	450	1	Ⴖ	cut_r_stereo_44KHz.wav
4	136	1	1	1	C	2	0	238	0	Ⴕ	cut_j_stereo_44KHz.wav
4	137	4	3	2	I	2	0	256	1	Ⴉ	cut_n_stereo_44KHz.wav
4	138	1	2	0	C	2	1	432	1	Ⴕ	cut_ei_stereo_44KHz.wav
4	139	2	2	1	C	2	0	245	0	Ⴐ	cut_ei_stereo_44KHz.wav
4	140	3	3	2	I	2	0	260	1	Ⴖ	cut_n_stereo_44KHz.wav
4	141	2	1	0	C	2	1	235	1	Ⴐ	cut_j_stereo_44KHz.wav
4	142	1	1	1	C	2	0	232	0	Ⴕ	cut_j_stereo_44KHz.wav
4	143	4	4	2	I	2	0	374	0	Ⴉ	cut_r_stereo_44KHz.wav
4	144	3	4	2	I	2	0	308	1	Ⴖ	cut_r_stereo_44KHz.wav
4	145	1	1	1	C	2	0	384	0	Ⴕ	cut_j_stereo_44KHz.wav
4	146	3	4	2	I	2	0	327	0	Ⴖ	cut_r_stereo_44KHz.wav
4	147	2	2	1	C	2	0	216	0	Ⴐ	cut_ei_stereo_44KHz.wav
4	148	4	3	2	I	2	0	128	1	Ⴉ	cut_n_stereo_44KHz.wav
4	149	3	3	2	I	2	0	244	1	Ⴖ	cut_n_stereo_44KHz.wav
4	150	1	2	0	C	2	1	247	1	Ⴕ	cut_ei_stereo_44KHz.wav
4	151	2	1	0	C	2	1	218	1	Ⴐ	cut_j_stereo_44KHz.wav
4	152	4	4	2	I	2	0	347	1	Ⴉ	cut_r_stereo_44KHz.wav
4	153	2	1	0	C	2	1	275	1	Ⴐ	cut_j_stereo_44KHz.wav
4	154	4	4	2	I	2	0	202	1	Ⴉ	cut_r_stereo_44KHz.wav
4	155	1	2	0	C	2	1	237	1	Ⴕ	cut_ei_stereo_44KHz.wav
4	156	3	3	2	I	2	0	264	1	Ⴖ	cut_n_stereo_44KHz.wav
4	157	2	2	1	C	2	0	197	0	Ⴐ	cut_ei_stereo_44KHz.wav
4	158	3	4	2	I	2	0	294	1	Ⴖ	cut_r_stereo_44KHz.wav
4	159	4	3	2	I	2	0	427	1	Ⴉ	cut_n_stereo_44KHz.wav
4	160	1	1	1	C	2	0	430	0	Ⴕ	cut_j_stereo_44KHz.wav
4	161	4	4	2	I	2	0	192	1	Ⴉ	cut_r_stereo_44KHz.wav
4	162	3	4	2	I	2	0	246	0	Ⴖ	cut_r_stereo_44KHz.wav
4	163	1	2	0	C	2	1	206	1	Ⴕ	cut_ei_stereo_44KHz.wav
4	164	2	1	0	C	2	1	329	1	Ⴐ	cut_j_stereo_44KHz.wav
4	165	4	3	2	I	2	0	141	1	Ⴉ	cut_n_stereo_44KHz.wav
4	166	1	1	1	C	2	0	357	0	Ⴕ	cut_j_stereo_44KHz.wav
4	167	2	2	1	C	2	0	286	0	Ⴐ	cut_ei_stereo_44KHz.wav
4	168	3	3	2	I	2	0	427	1	Ⴖ	cut_n_stereo_44KHz.wav
4	169	1	1	1	C	2	0	493	0	Ⴕ	cut_j_stereo_44KHz.wav
4	170	2	2	1	C	2	0	282	0	Ⴐ	cut_ei_stereo_44KHz.wav
4	171	4	4	2	I	2	0	369	1	Ⴉ	cut_r_stereo_44KHz.wav
4	172	3	4	2	I	2	0	419	1	Ⴖ	cut_r_stereo_44KHz.wav
4	173	4	3	2	I	2	0	234	1	Ⴉ	cut_n_stereo_44KHz.wav
4	174	2	1	0	C	2	1	318	1	Ⴐ	cut_j_stereo_44KHz.wav
4	175	1	2	0	C	2	1	234	1	Ⴕ	cut_ei_stereo_44KHz.wav
4	176	3	3	2	I	2	0	299	0	Ⴖ	cut_n_stereo_44KHz.wav
4	177	4	4	2	I	2	0	311	1	Ⴉ	cut_r_stereo_44KHz.wav
4	178	1	1	1	C	2	0	248	0	Ⴕ	cut_j_stereo_44KHz.wav
4	179	2	1	0	C	2	1	182	1	Ⴐ	cut_j_stereo_44KHz.wav
4	180	3	3	2	I	2	0	294	1	Ⴖ	cut_n_stereo_44KHz.wav
4	181	1	2	0	C	2	1	329	1	Ⴕ	cut_ei_stereo_44KHz.wav
4	182	3	4	2	I	2	0	385	1	Ⴖ	cut_r_stereo_44KHz.wav
4	183	2	2	1	C	2	0	355	0	Ⴐ	cut_ei_stereo_44KHz.wav
4	184	4	3	2	I	2	0	260	1	Ⴉ	cut_n_stereo_44KHz.wav
4	185	3	3	2	I	2	0	189	1	Ⴖ	cut_n_stereo_44KHz.wav
4	186	1	2	0	C	2	1	255	1	Ⴕ	cut_ei_stereo_44KHz.wav
4	187	2	1	0	C	2	1	366	1	Ⴐ	cut_j_stereo_44KHz.wav
4	188	4	4	2	I	2	0	360	0	Ⴉ	cut_r_stereo_44KHz.wav
4	189	2	2	1	C	2	0	269	0	Ⴐ	cut_ei_stereo_44KHz.wav
4	190	4	3	2	I	2	0	1	1	Ⴉ	cut_n_stereo_44KHz.wav
4	191	3	4	2	I	2	0	195	1	Ⴖ	cut_r_stereo_44KHz.wav
4	192	1	1	1	C	2	0	276	0	Ⴕ	cut_j_stereo_44KHz.wav
4	193	4	3	2	I	2	0	316	1	Ⴉ	cut_n_stereo_44KHz.wav
4	194	2	1	0	C	2	1	65	1	Ⴐ	cut_j_stereo_44KHz.wav
4	195	3	4	2	I	2	0	391	0	Ⴖ	cut_r_stereo_44KHz.wav
4	196	1	2	0	C	2	1	12	1	Ⴕ	cut_ei_stereo_44KHz.wav
4	197	2	2	1	C	2	0	402	0	Ⴐ	cut_ei_stereo_44KHz.wav
4	198	1	1	1	C	2	0	172	0	Ⴕ	cut_j_stereo_44KHz.wav
4	199	3	3	2	I	2	0	309	1	Ⴖ	cut_n_stereo_44KHz.wav
4	200	4	4	2	I	2	0	706	0	Ⴉ	cut_r_stereo_44KHz.wav
