block	trial	Vstim	Astim	match	C/I	resp	result	RT	fb	V-file	A-file
RL

0	1	1	2	0	C	0	0	0	0	Ⴞ	cut_eeuw_stereo_44KHz.wav
0	2	1	1	1	C	0	0	0	0	Ⴞ	cut_g_stereo_44KHz.wav
0	3	2	3	1	C	1	1	904	1	Ⴋ	cut_oo_stereo_44KHz.wav
0	4	2	4	0	C	2	1	945	1	Ⴋ	cut_ee_stereo_44KHz.wav
0	5	1	2	0	C	2	1	908	1	Ⴞ	cut_eeuw_stereo_44KHz.wav
0	6	1	1	1	C	2	0	571	0	Ⴞ	cut_g_stereo_44KHz.wav
0	7	2	4	0	C	1	0	742	0	Ⴋ	cut_ee_stereo_44KHz.wav
0	8	2	3	1	C	2	0	688	0	Ⴋ	cut_oo_stereo_44KHz.wav
0	9	2	3	1	C	2	0	490	0	Ⴋ	cut_oo_stereo_44KHz.wav
0	10	1	1	1	C	1	1	293	1	Ⴞ	cut_g_stereo_44KHz.wav
0	11	2	4	0	C	1	0	332	0	Ⴋ	cut_ee_stereo_44KHz.wav
0	12	1	2	0	C	2	1	486	1	Ⴞ	cut_eeuw_stereo_44KHz.wav
0	13	1	2	0	C	2	1	341	1	Ⴞ	cut_eeuw_stereo_44KHz.wav
0	14	2	4	0	C	1	0	324	0	Ⴋ	cut_ee_stereo_44KHz.wav
0	15	2	3	1	C	2	0	264	0	Ⴋ	cut_oo_stereo_44KHz.wav
0	16	1	1	1	C	1	1	732	1	Ⴞ	cut_g_stereo_44KHz.wav
0	17	1	2	0	C	2	1	501	1	Ⴞ	cut_eeuw_stereo_44KHz.wav
0	18	2	4	0	C	0	0	0	0	Ⴋ	cut_ee_stereo_44KHz.wav
0	19	1	1	1	C	2	0	1724	0	Ⴞ	cut_g_stereo_44KHz.wav
0	20	2	3	1	C	1	1	376	1	Ⴋ	cut_oo_stereo_44KHz.wav
0	21	2	4	0	C	2	1	273	1	Ⴋ	cut_ee_stereo_44KHz.wav
0	22	2	3	1	C	2	0	246	0	Ⴋ	cut_oo_stereo_44KHz.wav
0	23	1	1	1	C	1	1	491	1	Ⴞ	cut_g_stereo_44KHz.wav
0	24	1	2	0	C	2	1	437	1	Ⴞ	cut_eeuw_stereo_44KHz.wav
0	25	2	3	1	C	2	0	260	0	Ⴋ	cut_oo_stereo_44KHz.wav
0	26	1	1	1	C	2	0	584	0	Ⴞ	cut_g_stereo_44KHz.wav
0	27	2	4	0	C	1	0	413	0	Ⴋ	cut_ee_stereo_44KHz.wav
0	28	1	2	0	C	1	0	426	0	Ⴞ	cut_eeuw_stereo_44KHz.wav
0	29	2	4	0	C	1	0	460	0	Ⴋ	cut_ee_stereo_44KHz.wav
0	30	1	1	1	C	2	0	398	0	Ⴞ	cut_g_stereo_44KHz.wav
avg_resp = 557
1	1	4	3	2	I	2	0	1256	1	Ⴜ	cut_k_stereo_44KHz.wav
1	2	2	1	0	C	1	0	1088	0	Ⴃ	cut_a_stereo_44KHz.wav
1	3	1	1	1	C	2	0	456	0	Ⴂ	cut_a_stereo_44KHz.wav
1	4	3	4	2	I	2	0	283	1	Ⴁ	cut_u_stereo_44KHz.wav
1	5	2	2	1	C	2	0	383	0	Ⴃ	cut_o_stereo_44KHz.wav
1	6	1	2	0	C	2	1	356	1	Ⴂ	cut_o_stereo_44KHz.wav
1	7	3	3	2	I	2	0	523	1	Ⴁ	cut_k_stereo_44KHz.wav
1	8	4	4	2	I	2	0	547	0	Ⴜ	cut_u_stereo_44KHz.wav
1	9	1	1	1	C	1	1	344	1	Ⴂ	cut_a_stereo_44KHz.wav
1	10	4	4	2	I	1	0	520	0	Ⴜ	cut_u_stereo_44KHz.wav
1	11	2	2	1	C	2	0	317	0	Ⴃ	cut_o_stereo_44KHz.wav
1	12	3	4	2	I	2	0	643	1	Ⴁ	cut_u_stereo_44KHz.wav
1	13	1	2	0	C	2	1	317	1	Ⴂ	cut_o_stereo_44KHz.wav
1	14	2	1	0	C	2	1	319	1	Ⴃ	cut_a_stereo_44KHz.wav
1	15	4	3	2	I	2	0	311	1	Ⴜ	cut_k_stereo_44KHz.wav
1	16	3	3	2	I	2	0	419	1	Ⴁ	cut_k_stereo_44KHz.wav
1	17	2	1	0	C	2	1	316	1	Ⴃ	cut_a_stereo_44KHz.wav
1	18	1	1	1	C	2	0	565	0	Ⴂ	cut_a_stereo_44KHz.wav
1	19	4	4	2	I	2	0	371	1	Ⴜ	cut_u_stereo_44KHz.wav
1	20	3	3	2	I	2	0	319	1	Ⴁ	cut_k_stereo_44KHz.wav
1	21	2	2	1	C	1	1	407	1	Ⴃ	cut_o_stereo_44KHz.wav
1	22	1	2	0	C	2	1	403	1	Ⴂ	cut_o_stereo_44KHz.wav
1	23	3	4	2	I	2	0	289	0	Ⴁ	cut_u_stereo_44KHz.wav
1	24	4	3	2	I	2	0	564	1	Ⴜ	cut_k_stereo_44KHz.wav
1	25	3	3	2	I	2	0	349	1	Ⴁ	cut_k_stereo_44KHz.wav
1	26	1	1	1	C	2	0	387	0	Ⴂ	cut_a_stereo_44KHz.wav
1	27	2	2	1	C	2	0	388	0	Ⴃ	cut_o_stereo_44KHz.wav
1	28	4	3	2	I	2	0	415	0	Ⴜ	cut_k_stereo_44KHz.wav
1	29	1	2	0	C	1	0	485	0	Ⴂ	cut_o_stereo_44KHz.wav
1	30	2	1	0	C	1	0	396	0	Ⴃ	cut_a_stereo_44KHz.wav
1	31	3	4	2	I	2	0	343	0	Ⴁ	cut_u_stereo_44KHz.wav
1	32	4	4	2	I	1	0	341	1	Ⴜ	cut_u_stereo_44KHz.wav
1	33	3	4	2	I	1	0	1142	1	Ⴁ	cut_u_stereo_44KHz.wav
1	34	1	2	0	C	2	1	360	1	Ⴂ	cut_o_stereo_44KHz.wav
1	35	4	3	2	I	2	0	474	1	Ⴜ	cut_k_stereo_44KHz.wav
1	36	2	1	0	C	2	1	450	1	Ⴃ	cut_a_stereo_44KHz.wav
1	37	1	1	1	C	2	0	601	0	Ⴂ	cut_a_stereo_44KHz.wav
1	38	3	3	2	I	2	0	1335	1	Ⴁ	cut_k_stereo_44KHz.wav
1	39	2	2	1	C	1	1	508	1	Ⴃ	cut_o_stereo_44KHz.wav
1	40	4	4	2	I	2	0	800	1	Ⴜ	cut_u_stereo_44KHz.wav
1	41	1	2	0	C	2	1	724	1	Ⴂ	cut_o_stereo_44KHz.wav
1	42	4	3	2	I	1	0	672	0	Ⴜ	cut_k_stereo_44KHz.wav
1	43	2	2	1	C	2	0	669	0	Ⴃ	cut_o_stereo_44KHz.wav
1	44	3	4	2	I	2	0	502	0	Ⴁ	cut_u_stereo_44KHz.wav
1	45	4	4	2	I	2	0	435	1	Ⴜ	cut_u_stereo_44KHz.wav
1	46	1	1	1	C	2	0	400	0	Ⴂ	cut_a_stereo_44KHz.wav
1	47	2	1	0	C	2	1	623	1	Ⴃ	cut_a_stereo_44KHz.wav
1	48	3	3	2	I	2	0	1164	1	Ⴁ	cut_k_stereo_44KHz.wav
1	49	2	1	0	C	2	1	589	1	Ⴃ	cut_a_stereo_44KHz.wav
1	50	1	2	0	C	1	0	469	0	Ⴂ	cut_o_stereo_44KHz.wav
1	51	4	3	2	I	2	0	536	1	Ⴜ	cut_k_stereo_44KHz.wav
1	52	3	4	2	I	2	0	414	0	Ⴁ	cut_u_stereo_44KHz.wav
1	53	4	4	2	I	2	0	401	1	Ⴜ	cut_u_stereo_44KHz.wav
1	54	1	1	1	C	2	0	622	0	Ⴂ	cut_a_stereo_44KHz.wav
1	55	3	3	2	I	2	0	224	1	Ⴁ	cut_k_stereo_44KHz.wav
1	56	2	2	1	C	2	0	271	0	Ⴃ	cut_o_stereo_44KHz.wav
1	57	1	1	1	C	2	0	648	0	Ⴂ	cut_a_stereo_44KHz.wav
1	58	2	2	1	C	2	0	1926	0	Ⴃ	cut_o_stereo_44KHz.wav
1	59	4	3	2	I	2	0	400	0	Ⴜ	cut_k_stereo_44KHz.wav
1	60	3	4	2	I	2	0	1180	1	Ⴁ	cut_u_stereo_44KHz.wav
1	61	4	4	2	I	1	0	652	1	Ⴜ	cut_u_stereo_44KHz.wav
1	62	1	2	0	C	1	0	816	0	Ⴂ	cut_o_stereo_44KHz.wav
1	63	3	3	2	I	1	0	68	1	Ⴁ	cut_k_stereo_44KHz.wav
1	64	2	1	0	C	2	1	366	1	Ⴃ	cut_a_stereo_44KHz.wav
1	65	3	3	2	I	1	0	863	1	Ⴁ	cut_k_stereo_44KHz.wav
1	66	2	2	1	C	2	0	703	0	Ⴃ	cut_o_stereo_44KHz.wav
1	67	1	1	1	C	2	0	887	0	Ⴂ	cut_a_stereo_44KHz.wav
1	68	4	3	2	I	1	0	331	1	Ⴜ	cut_k_stereo_44KHz.wav
1	69	2	1	0	C	2	1	475	1	Ⴃ	cut_a_stereo_44KHz.wav
1	70	1	2	0	C	0	0	0	0	Ⴂ	cut_o_stereo_44KHz.wav
1	71	4	4	2	I	2	0	459	0	Ⴜ	cut_u_stereo_44KHz.wav
1	72	3	4	2	I	2	0	340	1	Ⴁ	cut_u_stereo_44KHz.wav
1	73	4	4	2	I	2	0	337	1	Ⴜ	cut_u_stereo_44KHz.wav
1	74	3	3	2	I	1	0	386	1	Ⴁ	cut_k_stereo_44KHz.wav
1	75	1	2	0	C	2	1	609	1	Ⴂ	cut_o_stereo_44KHz.wav
1	76	2	2	1	C	2	0	602	0	Ⴃ	cut_o_stereo_44KHz.wav
1	77	3	4	2	I	2	0	474	1	Ⴁ	cut_u_stereo_44KHz.wav
1	78	4	3	2	I	2	0	731	0	Ⴜ	cut_k_stereo_44KHz.wav
1	79	1	1	1	C	2	0	416	0	Ⴂ	cut_a_stereo_44KHz.wav
1	80	2	1	0	C	2	1	475	1	Ⴃ	cut_a_stereo_44KHz.wav
1	81	1	2	0	C	1	0	461	0	Ⴂ	cut_o_stereo_44KHz.wav
1	82	3	4	2	I	2	0	634	1	Ⴁ	cut_u_stereo_44KHz.wav
1	83	2	2	1	C	2	0	1101	0	Ⴃ	cut_o_stereo_44KHz.wav
1	84	4	4	2	I	2	0	1773	1	Ⴜ	cut_u_stereo_44KHz.wav
1	85	1	1	1	C	1	1	1508	1	Ⴂ	cut_a_stereo_44KHz.wav
1	86	4	3	2	I	2	0	1010	1	Ⴜ	cut_k_stereo_44KHz.wav
1	87	2	1	0	C	2	1	650	1	Ⴃ	cut_a_stereo_44KHz.wav
1	88	3	3	2	I	2	0	1190	0	Ⴁ	cut_k_stereo_44KHz.wav
1	89	2	1	0	C	2	1	539	1	Ⴃ	cut_a_stereo_44KHz.wav
1	90	1	2	0	C	1	0	925	0	Ⴂ	cut_o_stereo_44KHz.wav
1	91	4	3	2	I	2	0	945	1	Ⴜ	cut_k_stereo_44KHz.wav
1	92	3	3	2	I	2	0	598	1	Ⴁ	cut_k_stereo_44KHz.wav
1	93	4	4	2	I	2	0	1089	1	Ⴜ	cut_u_stereo_44KHz.wav
1	94	3	4	2	I	2	0	813	1	Ⴁ	cut_u_stereo_44KHz.wav
1	95	1	1	1	C	2	0	538	0	Ⴂ	cut_a_stereo_44KHz.wav
1	96	2	2	1	C	2	0	340	0	Ⴃ	cut_o_stereo_44KHz.wav
1	97	3	4	2	I	2	0	325	1	Ⴁ	cut_u_stereo_44KHz.wav
1	98	2	1	0	C	2	1	457	1	Ⴃ	cut_a_stereo_44KHz.wav
1	99	4	3	2	I	2	0	316	1	Ⴜ	cut_k_stereo_44KHz.wav
1	100	1	2	0	C	2	1	261	1	Ⴂ	cut_o_stereo_44KHz.wav
1	101	4	4	2	I	2	0	318	1	Ⴜ	cut_u_stereo_44KHz.wav
1	102	1	1	1	C	2	0	600	0	Ⴂ	cut_a_stereo_44KHz.wav
1	103	2	2	1	C	2	0	420	0	Ⴃ	cut_o_stereo_44KHz.wav
1	104	3	3	2	I	2	0	478	1	Ⴁ	cut_k_stereo_44KHz.wav
1	105	4	3	2	I	2	0	428	0	Ⴜ	cut_k_stereo_44KHz.wav
1	106	2	2	1	C	2	0	359	0	Ⴃ	cut_o_stereo_44KHz.wav
1	107	1	2	0	C	2	1	665	1	Ⴂ	cut_o_stereo_44KHz.wav
1	108	3	4	2	I	2	0	344	1	Ⴁ	cut_u_stereo_44KHz.wav
1	109	2	1	0	C	0	0	0	0	Ⴃ	cut_a_stereo_44KHz.wav
1	110	3	3	2	I	2	0	413	1	Ⴁ	cut_k_stereo_44KHz.wav
1	111	1	1	1	C	2	0	423	0	Ⴂ	cut_a_stereo_44KHz.wav
1	112	4	4	2	I	2	0	455	1	Ⴜ	cut_u_stereo_44KHz.wav
1	113	2	1	0	C	2	1	309	1	Ⴃ	cut_a_stereo_44KHz.wav
1	114	1	2	0	C	2	1	315	1	Ⴂ	cut_o_stereo_44KHz.wav
1	115	3	3	2	I	2	0	288	1	Ⴁ	cut_k_stereo_44KHz.wav
1	116	4	4	2	I	2	0	1650	1	Ⴜ	cut_u_stereo_44KHz.wav
1	117	3	4	2	I	1	0	291	0	Ⴁ	cut_u_stereo_44KHz.wav
1	118	4	3	2	I	2	0	271	1	Ⴜ	cut_k_stereo_44KHz.wav
1	119	2	2	1	C	1	1	250	1	Ⴃ	cut_o_stereo_44KHz.wav
1	120	1	1	1	C	1	1	218	1	Ⴂ	cut_a_stereo_44KHz.wav
1	121	4	3	2	I	2	0	265	0	Ⴜ	cut_k_stereo_44KHz.wav
1	122	1	2	0	C	1	0	398	0	Ⴂ	cut_o_stereo_44KHz.wav
1	123	2	1	0	C	1	0	334	0	Ⴃ	cut_a_stereo_44KHz.wav
1	124	3	4	2	I	2	0	368	1	Ⴁ	cut_u_stereo_44KHz.wav
1	125	2	2	1	C	2	0	442	0	Ⴃ	cut_o_stereo_44KHz.wav
1	126	1	1	1	C	2	0	763	0	Ⴂ	cut_a_stereo_44KHz.wav
1	127	4	4	2	I	1	0	407	1	Ⴜ	cut_u_stereo_44KHz.wav
1	128	3	3	2	I	1	0	732	1	Ⴁ	cut_k_stereo_44KHz.wav
1	129	2	1	0	C	2	1	173	1	Ⴃ	cut_a_stereo_44KHz.wav
1	130	1	1	1	C	0	0	0	0	Ⴂ	cut_a_stereo_44KHz.wav
1	131	3	4	2	I	2	0	279	1	Ⴁ	cut_u_stereo_44KHz.wav
1	132	4	3	2	I	2	0	262	1	Ⴜ	cut_k_stereo_44KHz.wav
1	133	3	3	2	I	2	0	431	1	Ⴁ	cut_k_stereo_44KHz.wav
1	134	1	2	0	C	2	1	860	1	Ⴂ	cut_o_stereo_44KHz.wav
1	135	2	2	1	C	1	1	325	1	Ⴃ	cut_o_stereo_44KHz.wav
1	136	4	4	2	I	2	0	545	1	Ⴜ	cut_u_stereo_44KHz.wav
1	137	3	4	2	I	2	0	690	1	Ⴁ	cut_u_stereo_44KHz.wav
1	138	4	4	2	I	1	0	676	0	Ⴜ	cut_u_stereo_44KHz.wav
1	139	2	2	1	C	2	0	530	0	Ⴃ	cut_o_stereo_44KHz.wav
1	140	1	1	1	C	2	0	512	0	Ⴂ	cut_a_stereo_44KHz.wav
1	141	4	3	2	I	2	0	499	1	Ⴜ	cut_k_stereo_44KHz.wav
1	142	2	1	0	C	2	1	1562	1	Ⴃ	cut_a_stereo_44KHz.wav
1	143	1	2	0	C	2	1	562	1	Ⴂ	cut_o_stereo_44KHz.wav
1	144	3	3	2	I	2	0	464	1	Ⴁ	cut_k_stereo_44KHz.wav
1	145	4	3	2	I	2	0	356	1	Ⴜ	cut_k_stereo_44KHz.wav
1	146	3	3	2	I	2	0	791	0	Ⴁ	cut_k_stereo_44KHz.wav
1	147	1	2	0	C	1	0	668	0	Ⴂ	cut_o_stereo_44KHz.wav
1	148	2	2	1	C	2	0	439	0	Ⴃ	cut_o_stereo_44KHz.wav
1	149	3	4	2	I	1	0	881	1	Ⴁ	cut_u_stereo_44KHz.wav
1	150	4	4	2	I	1	0	314	1	Ⴜ	cut_u_stereo_44KHz.wav
1	151	2	1	0	C	1	0	656	0	Ⴃ	cut_a_stereo_44KHz.wav
1	152	1	1	1	C	1	1	375	1	Ⴂ	cut_a_stereo_44KHz.wav
1	153	4	4	2	I	1	0	369	1	Ⴜ	cut_u_stereo_44KHz.wav
1	154	2	2	1	C	1	1	391	1	Ⴃ	cut_o_stereo_44KHz.wav
1	155	1	1	1	C	2	0	603	0	Ⴂ	cut_a_stereo_44KHz.wav
1	156	3	4	2	I	1	0	493	1	Ⴁ	cut_u_stereo_44KHz.wav
1	157	4	3	2	I	1	0	369	1	Ⴜ	cut_k_stereo_44KHz.wav
1	158	3	3	2	I	1	0	1126	1	Ⴁ	cut_k_stereo_44KHz.wav
1	159	1	2	0	C	2	1	465	1	Ⴂ	cut_o_stereo_44KHz.wav
1	160	2	1	0	C	2	1	675	1	Ⴃ	cut_a_stereo_44KHz.wav
1	161	4	3	2	I	1	0	788	1	Ⴜ	cut_k_stereo_44KHz.wav
1	162	2	1	0	C	2	1	811	1	Ⴃ	cut_a_stereo_44KHz.wav
1	163	1	1	1	C	2	0	1072	0	Ⴂ	cut_a_stereo_44KHz.wav
1	164	3	4	2	I	1	0	469	1	Ⴁ	cut_u_stereo_44KHz.wav
1	165	1	2	0	C	2	1	278	1	Ⴂ	cut_o_stereo_44KHz.wav
1	166	3	3	2	I	2	0	445	1	Ⴁ	cut_k_stereo_44KHz.wav
1	167	4	4	2	I	2	0	317	1	Ⴜ	cut_u_stereo_44KHz.wav
1	168	2	2	1	C	1	1	338	1	Ⴃ	cut_o_stereo_44KHz.wav
1	169	1	1	1	C	2	0	377	0	Ⴂ	cut_a_stereo_44KHz.wav
1	170	2	2	1	C	1	1	429	1	Ⴃ	cut_o_stereo_44KHz.wav
1	171	3	4	2	I	1	0	658	0	Ⴁ	cut_u_stereo_44KHz.wav
1	172	4	4	2	I	2	0	344	1	Ⴜ	cut_u_stereo_44KHz.wav
1	173	3	3	2	I	2	0	404	1	Ⴁ	cut_k_stereo_44KHz.wav
1	174	1	2	0	C	1	0	574	0	Ⴂ	cut_o_stereo_44KHz.wav
1	175	2	1	0	C	1	0	452	0	Ⴃ	cut_a_stereo_44KHz.wav
1	176	4	3	2	I	2	0	472	1	Ⴜ	cut_k_stereo_44KHz.wav
1	177	3	4	2	I	2	0	322	1	Ⴁ	cut_u_stereo_44KHz.wav
1	178	1	2	0	C	1	0	722	0	Ⴂ	cut_o_stereo_44KHz.wav
1	179	4	4	2	I	2	0	458	1	Ⴜ	cut_u_stereo_44KHz.wav
1	180	2	1	0	C	2	1	353	1	Ⴃ	cut_a_stereo_44KHz.wav
1	181	3	3	2	I	2	0	281	0	Ⴁ	cut_k_stereo_44KHz.wav
1	182	2	2	1	C	2	0	436	0	Ⴃ	cut_o_stereo_44KHz.wav
1	183	4	3	2	I	2	0	329	1	Ⴜ	cut_k_stereo_44KHz.wav
1	184	1	1	1	C	1	1	409	1	Ⴂ	cut_a_stereo_44KHz.wav
1	185	3	3	2	I	2	0	312	1	Ⴁ	cut_k_stereo_44KHz.wav
1	186	1	1	1	C	2	0	367	0	Ⴂ	cut_a_stereo_44KHz.wav
1	187	4	3	2	I	2	0	360	1	Ⴜ	cut_k_stereo_44KHz.wav
1	188	2	1	0	C	2	1	430	1	Ⴃ	cut_a_stereo_44KHz.wav
1	189	3	4	2	I	2	0	320	0	Ⴁ	cut_u_stereo_44KHz.wav
1	190	4	4	2	I	0	0	0	0	Ⴜ	cut_u_stereo_44KHz.wav
1	191	1	2	0	C	2	1	331	1	Ⴂ	cut_o_stereo_44KHz.wav
1	192	2	2	1	C	2	0	331	0	Ⴃ	cut_o_stereo_44KHz.wav
1	193	4	3	2	I	1	0	387	1	Ⴜ	cut_k_stereo_44KHz.wav
1	194	3	4	2	I	2	0	316	1	Ⴁ	cut_u_stereo_44KHz.wav
1	195	1	2	0	C	2	1	322	1	Ⴂ	cut_o_stereo_44KHz.wav
1	196	2	1	0	C	2	1	359	1	Ⴃ	cut_a_stereo_44KHz.wav
1	197	1	1	1	C	2	0	301	0	Ⴂ	cut_a_stereo_44KHz.wav
1	198	4	4	2	I	2	0	310	1	Ⴜ	cut_u_stereo_44KHz.wav
1	199	2	2	1	C	2	0	393	0	Ⴃ	cut_o_stereo_44KHz.wav
1	200	3	3	2	I	2	0	429	1	Ⴁ	cut_k_stereo_44KHz.wav
2	1	1	1	1	C	0	0	0	0	Ⴕ	cut_n_stereo_44KHz.wav
2	2	3	4	2	I	0	0	0	0	Ⴉ	cut_f_stereo_44KHz.wav
2	3	2	2	1	C	2	0	335	0	Ⴖ	cut_r_stereo_44KHz.wav
2	4	4	3	2	I	1	0	410	1	Ⴒ	cut_s_stereo_44KHz.wav
2	5	2	1	0	C	1	0	1059	0	Ⴖ	cut_n_stereo_44KHz.wav
2	6	4	4	2	I	2	0	336	0	Ⴒ	cut_f_stereo_44KHz.wav
2	7	1	2	0	C	2	1	372	1	Ⴕ	cut_r_stereo_44KHz.wav
2	8	3	3	2	I	2	0	306	1	Ⴉ	cut_s_stereo_44KHz.wav
2	9	4	4	2	I	2	0	514	1	Ⴒ	cut_f_stereo_44KHz.wav
2	10	3	3	2	I	2	0	665	1	Ⴉ	cut_s_stereo_44KHz.wav
2	11	1	1	1	C	2	0	466	0	Ⴕ	cut_n_stereo_44KHz.wav
2	12	2	1	0	C	2	1	254	1	Ⴖ	cut_n_stereo_44KHz.wav
2	13	3	4	2	I	2	0	435	1	Ⴉ	cut_f_stereo_44KHz.wav
2	14	4	3	2	I	0	0	0	0	Ⴒ	cut_s_stereo_44KHz.wav
2	15	2	2	1	C	2	0	466	0	Ⴖ	cut_r_stereo_44KHz.wav
2	16	1	2	0	C	1	0	385	0	Ⴕ	cut_r_stereo_44KHz.wav
2	17	3	4	2	I	1	0	526	1	Ⴉ	cut_f_stereo_44KHz.wav
2	18	4	3	2	I	1	0	902	1	Ⴒ	cut_s_stereo_44KHz.wav
2	19	2	1	0	C	1	0	384	0	Ⴖ	cut_n_stereo_44KHz.wav
2	20	1	2	0	C	1	0	660	0	Ⴕ	cut_r_stereo_44KHz.wav
2	21	3	3	2	I	1	0	615	1	Ⴉ	cut_s_stereo_44KHz.wav
2	22	4	4	2	I	1	0	454	1	Ⴒ	cut_f_stereo_44KHz.wav
2	23	2	2	1	C	1	1	412	1	Ⴖ	cut_r_stereo_44KHz.wav
2	24	1	1	1	C	1	1	590	1	Ⴕ	cut_n_stereo_44KHz.wav
2	25	3	3	2	I	1	0	608	0	Ⴉ	cut_s_stereo_44KHz.wav
2	26	1	2	0	C	2	1	605	1	Ⴕ	cut_r_stereo_44KHz.wav
2	27	2	2	1	C	2	0	1089	0	Ⴖ	cut_r_stereo_44KHz.wav
2	28	4	4	2	I	1	0	1473	1	Ⴒ	cut_f_stereo_44KHz.wav
2	29	1	1	1	C	2	0	855	0	Ⴕ	cut_n_stereo_44KHz.wav
2	30	4	3	2	I	2	0	498	1	Ⴒ	cut_s_stereo_44KHz.wav
2	31	3	4	2	I	2	0	447	1	Ⴉ	cut_f_stereo_44KHz.wav
2	32	2	1	0	C	2	1	542	1	Ⴖ	cut_n_stereo_44KHz.wav
2	33	4	4	2	I	2	0	520	1	Ⴒ	cut_f_stereo_44KHz.wav
2	34	3	4	2	I	2	0	728	1	Ⴉ	cut_f_stereo_44KHz.wav
2	35	2	1	0	C	2	1	1079	1	Ⴖ	cut_n_stereo_44KHz.wav
2	36	1	1	1	C	2	0	1347	0	Ⴕ	cut_n_stereo_44KHz.wav
2	37	4	3	2	I	2	0	444	1	Ⴒ	cut_s_stereo_44KHz.wav
2	38	1	2	0	C	2	1	668	1	Ⴕ	cut_r_stereo_44KHz.wav
2	39	3	3	2	I	2	0	774	1	Ⴉ	cut_s_stereo_44KHz.wav
2	40	2	2	1	C	2	0	426	0	Ⴖ	cut_r_stereo_44KHz.wav
2	41	1	1	1	C	2	0	691	0	Ⴕ	cut_n_stereo_44KHz.wav
2	42	3	3	2	I	2	0	517	1	Ⴉ	cut_s_stereo_44KHz.wav
2	43	4	4	2	I	2	0	671	1	Ⴒ	cut_f_stereo_44KHz.wav
2	44	2	1	0	C	2	1	371	1	Ⴖ	cut_n_stereo_44KHz.wav
2	45	4	3	2	I	2	0	619	1	Ⴒ	cut_s_stereo_44KHz.wav
2	46	2	2	1	C	1	1	1819	1	Ⴖ	cut_r_stereo_44KHz.wav
2	47	1	2	0	C	2	1	1528	1	Ⴕ	cut_r_stereo_44KHz.wav
2	48	3	4	2	I	2	0	1108	1	Ⴉ	cut_f_stereo_44KHz.wav
2	49	4	3	2	I	2	0	1186	1	Ⴒ	cut_s_stereo_44KHz.wav
2	50	3	3	2	I	2	0	839	0	Ⴉ	cut_s_stereo_44KHz.wav
2	51	2	2	1	C	2	0	678	0	Ⴖ	cut_r_stereo_44KHz.wav
2	52	1	1	1	C	2	0	984	0	Ⴕ	cut_n_stereo_44KHz.wav
2	53	4	4	2	I	2	0	470	1	Ⴒ	cut_f_stereo_44KHz.wav
2	54	1	2	0	C	2	1	348	1	Ⴕ	cut_r_stereo_44KHz.wav
2	55	2	1	0	C	2	1	661	1	Ⴖ	cut_n_stereo_44KHz.wav
2	56	3	4	2	I	2	0	690	1	Ⴉ	cut_f_stereo_44KHz.wav
2	57	2	2	1	C	2	0	514	0	Ⴖ	cut_r_stereo_44KHz.wav
2	58	4	4	2	I	1	0	1329	1	Ⴒ	cut_f_stereo_44KHz.wav
2	59	1	1	1	C	2	0	166	0	Ⴕ	cut_n_stereo_44KHz.wav
2	60	3	3	2	I	2	0	808	1	Ⴉ	cut_s_stereo_44KHz.wav
2	61	2	1	0	C	2	1	466	1	Ⴖ	cut_n_stereo_44KHz.wav
2	62	4	3	2	I	2	0	737	1	Ⴒ	cut_s_stereo_44KHz.wav
2	63	1	2	0	C	2	1	547	1	Ⴕ	cut_r_stereo_44KHz.wav
2	64	3	4	2	I	1	0	771	1	Ⴉ	cut_f_stereo_44KHz.wav
2	65	1	2	0	C	2	1	741	1	Ⴕ	cut_r_stereo_44KHz.wav
2	66	4	4	2	I	2	0	510	1	Ⴒ	cut_f_stereo_44KHz.wav
2	67	2	2	1	C	2	0	261	0	Ⴖ	cut_r_stereo_44KHz.wav
2	68	3	4	2	I	2	0	929	0	Ⴉ	cut_f_stereo_44KHz.wav
2	69	1	1	1	C	2	0	425	0	Ⴕ	cut_n_stereo_44KHz.wav
2	70	4	3	2	I	1	0	861	1	Ⴒ	cut_s_stereo_44KHz.wav
2	71	2	1	0	C	1	0	678	0	Ⴖ	cut_n_stereo_44KHz.wav
2	72	3	3	2	I	2	0	406	1	Ⴉ	cut_s_stereo_44KHz.wav
2	73	2	2	1	C	2	0	616	0	Ⴖ	cut_r_stereo_44KHz.wav
2	74	1	1	1	C	2	0	405	0	Ⴕ	cut_n_stereo_44KHz.wav
2	75	3	4	2	I	2	0	696	1	Ⴉ	cut_f_stereo_44KHz.wav
2	76	4	3	2	I	2	0	909	1	Ⴒ	cut_s_stereo_44KHz.wav
2	77	2	1	0	C	2	1	883	1	Ⴖ	cut_n_stereo_44KHz.wav
2	78	4	4	2	I	2	0	1635	1	Ⴒ	cut_f_stereo_44KHz.wav
2	79	3	3	2	I	2	0	604	1	Ⴉ	cut_s_stereo_44KHz.wav
2	80	1	2	0	C	2	1	120	1	Ⴕ	cut_r_stereo_44KHz.wav
2	81	2	1	0	C	2	1	859	1	Ⴖ	cut_n_stereo_44KHz.wav
2	82	3	4	2	I	2	0	461	1	Ⴉ	cut_f_stereo_44KHz.wav
2	83	1	2	0	C	2	1	840	1	Ⴕ	cut_r_stereo_44KHz.wav
2	84	4	4	2	I	2	0	960	1	Ⴒ	cut_f_stereo_44KHz.wav
2	85	1	1	1	C	2	0	918	0	Ⴕ	cut_n_stereo_44KHz.wav
2	86	2	2	1	C	0	0	0	0	Ⴖ	cut_r_stereo_44KHz.wav
2	87	3	3	2	I	2	0	364	1	Ⴉ	cut_s_stereo_44KHz.wav
2	88	4	3	2	I	2	0	909	0	Ⴒ	cut_s_stereo_44KHz.wav
2	89	1	1	1	C	2	0	820	0	Ⴕ	cut_n_stereo_44KHz.wav
2	90	4	4	2	I	2	0	713	0	Ⴒ	cut_f_stereo_44KHz.wav
2	91	3	4	2	I	2	0	705	1	Ⴉ	cut_f_stereo_44KHz.wav
2	92	2	2	1	C	1	1	881	1	Ⴖ	cut_r_stereo_44KHz.wav
2	93	1	2	0	C	2	1	1154	1	Ⴕ	cut_r_stereo_44KHz.wav
2	94	3	3	2	I	2	0	1234	1	Ⴉ	cut_s_stereo_44KHz.wav
2	95	4	3	2	I	2	0	945	0	Ⴒ	cut_s_stereo_44KHz.wav
2	96	2	1	0	C	2	1	726	1	Ⴖ	cut_n_stereo_44KHz.wav
2	97	1	2	0	C	2	1	1163	1	Ⴕ	cut_r_stereo_44KHz.wav
2	98	2	2	1	C	1	1	1197	1	Ⴖ	cut_r_stereo_44KHz.wav
2	99	4	3	2	I	2	0	923	0	Ⴒ	cut_s_stereo_44KHz.wav
2	100	3	3	2	I	2	0	926	1	Ⴉ	cut_s_stereo_44KHz.wav
2	101	1	1	1	C	2	0	1063	0	Ⴕ	cut_n_stereo_44KHz.wav
2	102	4	4	2	I	2	0	1025	1	Ⴒ	cut_f_stereo_44KHz.wav
2	103	3	4	2	I	2	0	908	0	Ⴉ	cut_f_stereo_44KHz.wav
2	104	2	1	0	C	2	1	703	1	Ⴖ	cut_n_stereo_44KHz.wav
2	105	1	2	0	C	2	1	1037	1	Ⴕ	cut_r_stereo_44KHz.wav
2	106	2	1	0	C	2	1	858	1	Ⴖ	cut_n_stereo_44KHz.wav
2	107	3	3	2	I	2	0	588	1	Ⴉ	cut_s_stereo_44KHz.wav
2	108	4	3	2	I	1	0	454	1	Ⴒ	cut_s_stereo_44KHz.wav
2	109	3	4	2	I	2	0	374	1	Ⴉ	cut_f_stereo_44KHz.wav
2	110	2	2	1	C	2	0	794	0	Ⴖ	cut_r_stereo_44KHz.wav
2	111	4	4	2	I	2	0	858	1	Ⴒ	cut_f_stereo_44KHz.wav
2	112	1	1	1	C	1	1	1081	1	Ⴕ	cut_n_stereo_44KHz.wav
2	113	4	3	2	I	1	0	1265	0	Ⴒ	cut_s_stereo_44KHz.wav
2	114	1	2	0	C	1	0	629	0	Ⴕ	cut_r_stereo_44KHz.wav
2	115	3	4	2	I	1	0	792	1	Ⴉ	cut_f_stereo_44KHz.wav
2	116	2	1	0	C	2	1	676	1	Ⴖ	cut_n_stereo_44KHz.wav
2	117	4	4	2	I	2	0	1108	1	Ⴒ	cut_f_stereo_44KHz.wav
2	118	2	2	1	C	2	0	1277	0	Ⴖ	cut_r_stereo_44KHz.wav
2	119	3	3	2	I	2	0	527	0	Ⴉ	cut_s_stereo_44KHz.wav
2	120	1	1	1	C	2	0	918	0	Ⴕ	cut_n_stereo_44KHz.wav
2	121	2	1	0	C	2	1	803	1	Ⴖ	cut_n_stereo_44KHz.wav
2	122	1	2	0	C	1	0	703	0	Ⴕ	cut_r_stereo_44KHz.wav
2	123	3	4	2	I	1	0	894	0	Ⴉ	cut_f_stereo_44KHz.wav
2	124	4	3	2	I	1	0	380	0	Ⴒ	cut_s_stereo_44KHz.wav
2	125	3	3	2	I	1	0	949	1	Ⴉ	cut_s_stereo_44KHz.wav
2	126	1	1	1	C	1	1	1021	1	Ⴕ	cut_n_stereo_44KHz.wav
2	127	2	2	1	C	1	1	1667	1	Ⴖ	cut_r_stereo_44KHz.wav
2	128	4	4	2	I	1	0	1279	1	Ⴒ	cut_f_stereo_44KHz.wav
2	129	3	3	2	I	1	0	513	1	Ⴉ	cut_s_stereo_44KHz.wav
2	130	1	1	1	C	0	0	0	0	Ⴕ	cut_n_stereo_44KHz.wav
2	131	2	1	0	C	1	0	402	0	Ⴖ	cut_n_stereo_44KHz.wav
2	132	4	4	2	I	2	0	1098	1	Ⴒ	cut_f_stereo_44KHz.wav
2	133	1	2	0	C	2	1	837	1	Ⴕ	cut_r_stereo_44KHz.wav
2	134	3	4	2	I	0	0	0	0	Ⴉ	cut_f_stereo_44KHz.wav
2	135	4	3	2	I	2	0	427	0	Ⴒ	cut_s_stereo_44KHz.wav
2	136	2	2	1	C	0	0	0	0	Ⴖ	cut_r_stereo_44KHz.wav
2	137	3	3	2	I	2	0	809	1	Ⴉ	cut_s_stereo_44KHz.wav
2	138	1	1	1	C	2	0	630	0	Ⴕ	cut_n_stereo_44KHz.wav
2	139	4	4	2	I	2	0	448	1	Ⴒ	cut_f_stereo_44KHz.wav
2	140	2	2	1	C	1	1	559	1	Ⴖ	cut_r_stereo_44KHz.wav
2	141	4	3	2	I	1	0	454	1	Ⴒ	cut_s_stereo_44KHz.wav
2	142	2	1	0	C	1	0	841	0	Ⴖ	cut_n_stereo_44KHz.wav
2	143	1	2	0	C	2	1	414	1	Ⴕ	cut_r_stereo_44KHz.wav
2	144	3	4	2	I	2	0	662	0	Ⴉ	cut_f_stereo_44KHz.wav
2	145	2	2	1	C	1	1	1499	1	Ⴖ	cut_r_stereo_44KHz.wav
2	146	1	1	1	C	0	0	0	0	Ⴕ	cut_n_stereo_44KHz.wav
2	147	4	4	2	I	1	0	446	1	Ⴒ	cut_f_stereo_44KHz.wav
2	148	3	3	2	I	1	0	515	1	Ⴉ	cut_s_stereo_44KHz.wav
2	149	2	1	0	C	2	1	1175	1	Ⴖ	cut_n_stereo_44KHz.wav
2	150	3	4	2	I	2	0	1641	1	Ⴉ	cut_f_stereo_44KHz.wav
2	151	4	3	2	I	2	0	703	0	Ⴒ	cut_s_stereo_44KHz.wav
2	152	1	2	0	C	2	1	516	1	Ⴕ	cut_r_stereo_44KHz.wav
2	153	4	4	2	I	2	0	1156	1	Ⴒ	cut_f_stereo_44KHz.wav
2	154	2	2	1	C	1	1	1552	1	Ⴖ	cut_r_stereo_44KHz.wav
2	155	1	2	0	C	2	1	783	1	Ⴕ	cut_r_stereo_44KHz.wav
2	156	3	4	2	I	2	0	1729	1	Ⴉ	cut_f_stereo_44KHz.wav
2	157	4	3	2	I	1	0	1944	1	Ⴒ	cut_s_stereo_44KHz.wav
2	158	3	3	2	I	0	0	0	0	Ⴉ	cut_s_stereo_44KHz.wav
2	159	1	1	1	C	2	0	471	0	Ⴕ	cut_n_stereo_44KHz.wav
2	160	2	1	0	C	2	1	528	1	Ⴖ	cut_n_stereo_44KHz.wav
2	161	1	1	1	C	2	0	546	0	Ⴕ	cut_n_stereo_44KHz.wav
2	162	2	1	0	C	1	0	540	0	Ⴖ	cut_n_stereo_44KHz.wav
2	163	3	4	2	I	2	0	518	1	Ⴉ	cut_f_stereo_44KHz.wav
2	164	4	3	2	I	2	0	778	1	Ⴒ	cut_s_stereo_44KHz.wav
2	165	3	3	2	I	1	0	802	1	Ⴉ	cut_s_stereo_44KHz.wav
2	166	4	4	2	I	2	0	726	1	Ⴒ	cut_f_stereo_44KHz.wav
2	167	2	2	1	C	1	1	692	1	Ⴖ	cut_r_stereo_44KHz.wav
2	168	1	2	0	C	1	0	739	0	Ⴕ	cut_r_stereo_44KHz.wav
2	169	3	3	2	I	2	0	807	1	Ⴉ	cut_s_stereo_44KHz.wav
2	170	1	2	0	C	0	0	0	0	Ⴕ	cut_r_stereo_44KHz.wav
2	171	2	1	0	C	2	1	865	1	Ⴖ	cut_n_stereo_44KHz.wav
2	172	4	3	2	I	2	0	904	1	Ⴒ	cut_s_stereo_44KHz.wav
2	173	2	2	1	C	2	0	497	0	Ⴖ	cut_r_stereo_44KHz.wav
2	174	4	4	2	I	1	0	521	1	Ⴒ	cut_f_stereo_44KHz.wav
2	175	3	4	2	I	2	0	1359	1	Ⴉ	cut_f_stereo_44KHz.wav
2	176	1	1	1	C	2	0	466	0	Ⴕ	cut_n_stereo_44KHz.wav
2	177	2	1	0	C	2	1	945	1	Ⴖ	cut_n_stereo_44KHz.wav
2	178	4	4	2	I	2	0	560	1	Ⴒ	cut_f_stereo_44KHz.wav
2	179	1	2	0	C	2	1	996	1	Ⴕ	cut_r_stereo_44KHz.wav
2	180	3	3	2	I	2	0	1291	1	Ⴉ	cut_s_stereo_44KHz.wav
2	181	4	3	2	I	2	0	750	0	Ⴒ	cut_s_stereo_44KHz.wav
2	182	2	2	1	C	2	0	755	0	Ⴖ	cut_r_stereo_44KHz.wav
2	183	3	4	2	I	1	0	634	0	Ⴉ	cut_f_stereo_44KHz.wav
2	184	1	1	1	C	2	0	518	0	Ⴕ	cut_n_stereo_44KHz.wav
2	185	2	2	1	C	1	1	524	1	Ⴖ	cut_r_stereo_44KHz.wav
2	186	1	2	0	C	1	0	805	0	Ⴕ	cut_r_stereo_44KHz.wav
2	187	3	4	2	I	1	0	1177	1	Ⴉ	cut_f_stereo_44KHz.wav
2	188	4	3	2	I	1	0	677	1	Ⴒ	cut_s_stereo_44KHz.wav
2	189	3	3	2	I	1	0	1020	0	Ⴉ	cut_s_stereo_44KHz.wav
2	190	2	1	0	C	1	0	364	0	Ⴖ	cut_n_stereo_44KHz.wav
2	191	1	1	1	C	1	1	754	1	Ⴕ	cut_n_stereo_44KHz.wav
2	192	4	4	2	I	1	0	345	1	Ⴒ	cut_f_stereo_44KHz.wav
2	193	1	1	1	C	1	1	383	1	Ⴕ	cut_n_stereo_44KHz.wav
2	194	3	4	2	I	1	0	605	1	Ⴉ	cut_f_stereo_44KHz.wav
2	195	2	2	1	C	1	1	457	1	Ⴖ	cut_r_stereo_44KHz.wav
2	196	4	3	2	I	1	0	139	1	Ⴒ	cut_s_stereo_44KHz.wav
2	197	1	2	0	C	1	0	730	0	Ⴕ	cut_r_stereo_44KHz.wav
2	198	4	4	2	I	1	0	750	1	Ⴒ	cut_f_stereo_44KHz.wav
2	199	2	1	0	C	1	0	1394	0	Ⴖ	cut_n_stereo_44KHz.wav
2	200	3	3	2	I	0	0	0	0	Ⴉ	cut_s_stereo_44KHz.wav
3	1	2	1	0	C	0	0	0	0	Ⴏ	cut_g_stereo_44KHz.wav
3	2	1	2	0	C	1	0	635	0	Ⴔ	cut_w_stereo_44KHz.wav
3	3	3	4	2	I	1	0	1486	1	Ⴌ	cut_l_stereo_44KHz.wav
3	4	4	4	2	I	2	0	584	1	Ⴐ	cut_l_stereo_44KHz.wav
3	5	2	2	1	C	2	0	451	0	Ⴏ	cut_w_stereo_44KHz.wav
3	6	3	3	2	I	2	0	371	1	Ⴌ	cut_h_stereo_44KHz.wav
3	7	4	3	2	I	2	0	221	1	Ⴐ	cut_h_stereo_44KHz.wav
3	8	1	1	1	C	2	0	439	0	Ⴔ	cut_g_stereo_44KHz.wav
3	9	4	4	2	I	1	0	649	1	Ⴐ	cut_l_stereo_44KHz.wav
3	10	3	3	2	I	2	0	223	1	Ⴌ	cut_h_stereo_44KHz.wav
3	11	2	2	1	C	2	0	1340	0	Ⴏ	cut_w_stereo_44KHz.wav
3	12	1	1	1	C	2	0	316	0	Ⴔ	cut_g_stereo_44KHz.wav
3	13	4	3	2	I	1	0	362	1	Ⴐ	cut_h_stereo_44KHz.wav
3	14	2	1	0	C	1	0	1315	0	Ⴏ	cut_g_stereo_44KHz.wav
3	15	3	4	2	I	1	0	468	0	Ⴌ	cut_l_stereo_44KHz.wav
3	16	1	2	0	C	1	0	277	0	Ⴔ	cut_w_stereo_44KHz.wav
3	17	4	3	2	I	1	0	331	1	Ⴐ	cut_h_stereo_44KHz.wav
3	18	3	3	2	I	1	0	371	1	Ⴌ	cut_h_stereo_44KHz.wav
3	19	2	2	1	C	1	1	697	1	Ⴏ	cut_w_stereo_44KHz.wav
3	20	1	2	0	C	1	0	543	0	Ⴔ	cut_w_stereo_44KHz.wav
3	21	3	4	2	I	1	0	497	1	Ⴌ	cut_l_stereo_44KHz.wav
3	22	4	4	2	I	1	0	585	1	Ⴐ	cut_l_stereo_44KHz.wav
3	23	1	1	1	C	1	1	785	1	Ⴔ	cut_g_stereo_44KHz.wav
3	24	2	1	0	C	1	0	676	0	Ⴏ	cut_g_stereo_44KHz.wav
3	25	1	1	1	C	1	1	612	1	Ⴔ	cut_g_stereo_44KHz.wav
3	26	2	1	0	C	1	0	491	0	Ⴏ	cut_g_stereo_44KHz.wav
3	27	3	3	2	I	2	0	532	0	Ⴌ	cut_h_stereo_44KHz.wav
3	28	4	4	2	I	2	0	545	1	Ⴐ	cut_l_stereo_44KHz.wav
3	29	3	4	2	I	2	0	597	1	Ⴌ	cut_l_stereo_44KHz.wav
3	30	1	2	0	C	2	1	668	1	Ⴔ	cut_w_stereo_44KHz.wav
3	31	4	3	2	I	2	0	487	1	Ⴐ	cut_h_stereo_44KHz.wav
3	32	2	2	1	C	2	0	460	0	Ⴏ	cut_w_stereo_44KHz.wav
3	33	1	1	1	C	2	0	247	0	Ⴔ	cut_g_stereo_44KHz.wav
3	34	3	3	2	I	1	0	485	1	Ⴌ	cut_h_stereo_44KHz.wav
3	35	2	2	1	C	1	1	892	1	Ⴏ	cut_w_stereo_44KHz.wav
3	36	4	4	2	I	1	0	1646	1	Ⴐ	cut_l_stereo_44KHz.wav
3	37	2	1	0	C	1	0	967	0	Ⴏ	cut_g_stereo_44KHz.wav
3	38	1	2	0	C	1	0	790	0	Ⴔ	cut_w_stereo_44KHz.wav
3	39	4	3	2	I	1	0	574	1	Ⴐ	cut_h_stereo_44KHz.wav
3	40	3	4	2	I	1	0	873	0	Ⴌ	cut_l_stereo_44KHz.wav
3	41	4	4	2	I	2	0	418	0	Ⴐ	cut_l_stereo_44KHz.wav
3	42	2	2	1	C	2	0	947	0	Ⴏ	cut_w_stereo_44KHz.wav
3	43	1	1	1	C	2	0	304	0	Ⴔ	cut_g_stereo_44KHz.wav
3	44	3	4	2	I	1	0	420	1	Ⴌ	cut_l_stereo_44KHz.wav
3	45	4	3	2	I	1	0	435	1	Ⴐ	cut_h_stereo_44KHz.wav
3	46	2	1	0	C	1	0	1369	0	Ⴏ	cut_g_stereo_44KHz.wav
3	47	3	3	2	I	1	0	538	1	Ⴌ	cut_h_stereo_44KHz.wav
3	48	1	2	0	C	0	0	0	0	Ⴔ	cut_w_stereo_44KHz.wav
3	49	2	2	1	C	1	1	376	1	Ⴏ	cut_w_stereo_44KHz.wav
3	50	3	4	2	I	0	0	0	0	Ⴌ	cut_l_stereo_44KHz.wav
3	51	1	1	1	C	1	1	1266	1	Ⴔ	cut_g_stereo_44KHz.wav
3	52	4	4	2	I	2	0	684	1	Ⴐ	cut_l_stereo_44KHz.wav
3	53	3	3	2	I	2	0	509	1	Ⴌ	cut_h_stereo_44KHz.wav
3	54	2	1	0	C	1	0	553	0	Ⴏ	cut_g_stereo_44KHz.wav
3	55	4	3	2	I	2	0	916	0	Ⴐ	cut_h_stereo_44KHz.wav
3	56	1	2	0	C	1	0	1292	0	Ⴔ	cut_w_stereo_44KHz.wav
3	57	2	2	1	C	2	0	961	0	Ⴏ	cut_w_stereo_44KHz.wav
3	58	4	4	2	I	0	0	0	0	Ⴐ	cut_l_stereo_44KHz.wav
3	59	1	2	0	C	0	0	0	0	Ⴔ	cut_w_stereo_44KHz.wav
3	60	3	4	2	I	2	0	579	0	Ⴌ	cut_l_stereo_44KHz.wav
3	61	4	3	2	I	2	0	120	0	Ⴐ	cut_h_stereo_44KHz.wav
3	62	1	1	1	C	2	0	1134	0	Ⴔ	cut_g_stereo_44KHz.wav
3	63	3	3	2	I	0	0	0	0	Ⴌ	cut_h_stereo_44KHz.wav
3	64	2	1	0	C	2	1	372	1	Ⴏ	cut_g_stereo_44KHz.wav
3	65	3	3	2	I	2	0	1216	1	Ⴌ	cut_h_stereo_44KHz.wav
3	66	2	2	1	C	2	0	1185	0	Ⴏ	cut_w_stereo_44KHz.wav
3	67	1	1	1	C	0	0	0	0	Ⴔ	cut_g_stereo_44KHz.wav
3	68	4	4	2	I	0	0	0	0	Ⴐ	cut_l_stereo_44KHz.wav
3	69	2	1	0	C	0	0	0	0	Ⴏ	cut_g_stereo_44KHz.wav
3	70	4	3	2	I	0	0	0	0	Ⴐ	cut_h_stereo_44KHz.wav
3	71	1	2	0	C	0	0	0	0	Ⴔ	cut_w_stereo_44KHz.wav
3	72	3	4	2	I	0	0	0	0	Ⴌ	cut_l_stereo_44KHz.wav
3	73	1	2	0	C	0	0	0	0	Ⴔ	cut_w_stereo_44KHz.wav
3	74	4	4	2	I	0	0	0	0	Ⴐ	cut_l_stereo_44KHz.wav
3	75	2	1	0	C	1	0	1300	0	Ⴏ	cut_g_stereo_44KHz.wav
3	76	3	4	2	I	0	0	0	0	Ⴌ	cut_l_stereo_44KHz.wav
3	77	4	3	2	I	2	0	437	1	Ⴐ	cut_h_stereo_44KHz.wav
3	78	1	1	1	C	2	0	602	0	Ⴔ	cut_g_stereo_44KHz.wav
3	79	3	3	2	I	2	0	450	1	Ⴌ	cut_h_stereo_44KHz.wav
3	80	2	2	1	C	2	0	1399	0	Ⴏ	cut_w_stereo_44KHz.wav
3	81	4	4	2	I	2	0	398	1	Ⴐ	cut_l_stereo_44KHz.wav
3	82	1	2	0	C	2	1	546	1	Ⴔ	cut_w_stereo_44KHz.wav
3	83	2	1	0	C	2	1	626	1	Ⴏ	cut_g_stereo_44KHz.wav
3	84	3	4	2	I	2	0	549	1	Ⴌ	cut_l_stereo_44KHz.wav
3	85	1	1	1	C	2	0	859	0	Ⴔ	cut_g_stereo_44KHz.wav
3	86	4	3	2	I	2	0	487	1	Ⴐ	cut_h_stereo_44KHz.wav
3	87	2	2	1	C	2	0	1396	0	Ⴏ	cut_w_stereo_44KHz.wav
3	88	3	3	2	I	2	0	241	1	Ⴌ	cut_h_stereo_44KHz.wav
3	89	2	1	0	C	2	1	134	1	Ⴏ	cut_g_stereo_44KHz.wav
3	90	1	2	0	C	2	1	960	1	Ⴔ	cut_w_stereo_44KHz.wav
3	91	3	4	2	I	2	0	365	1	Ⴌ	cut_l_stereo_44KHz.wav
3	92	4	3	2	I	2	0	690	0	Ⴐ	cut_h_stereo_44KHz.wav
3	93	3	3	2	I	0	0	0	0	Ⴌ	cut_h_stereo_44KHz.wav
3	94	2	2	1	C	2	0	357	0	Ⴏ	cut_w_stereo_44KHz.wav
3	95	1	1	1	C	2	0	568	0	Ⴔ	cut_g_stereo_44KHz.wav
3	96	4	4	2	I	2	0	540	1	Ⴐ	cut_l_stereo_44KHz.wav
3	97	2	2	1	C	2	0	690	0	Ⴏ	cut_w_stereo_44KHz.wav
3	98	1	2	0	C	2	1	510	1	Ⴔ	cut_w_stereo_44KHz.wav
3	99	3	3	2	I	2	0	1027	1	Ⴌ	cut_h_stereo_44KHz.wav
3	100	4	3	2	I	2	0	433	1	Ⴐ	cut_h_stereo_44KHz.wav
3	101	3	4	2	I	2	0	516	1	Ⴌ	cut_l_stereo_44KHz.wav
3	102	4	4	2	I	2	0	371	1	Ⴐ	cut_l_stereo_44KHz.wav
3	103	1	1	1	C	0	0	0	0	Ⴔ	cut_g_stereo_44KHz.wav
3	104	2	1	0	C	2	1	336	1	Ⴏ	cut_g_stereo_44KHz.wav
3	105	3	3	2	I	2	0	883	1	Ⴌ	cut_h_stereo_44KHz.wav
3	106	2	2	1	C	2	0	604	0	Ⴏ	cut_w_stereo_44KHz.wav
3	107	1	1	1	C	2	0	357	0	Ⴔ	cut_g_stereo_44KHz.wav
3	108	4	3	2	I	2	0	580	1	Ⴐ	cut_h_stereo_44KHz.wav
3	109	1	2	0	C	2	1	1935	1	Ⴔ	cut_w_stereo_44KHz.wav
3	110	3	4	2	I	2	0	253	1	Ⴌ	cut_l_stereo_44KHz.wav
3	111	2	1	0	C	2	1	181	1	Ⴏ	cut_g_stereo_44KHz.wav
3	112	4	4	2	I	2	0	272	1	Ⴐ	cut_l_stereo_44KHz.wav
3	113	2	1	0	C	2	1	789	1	Ⴏ	cut_g_stereo_44KHz.wav
3	114	1	1	1	C	2	0	660	0	Ⴔ	cut_g_stereo_44KHz.wav
3	115	4	4	2	I	2	0	375	1	Ⴐ	cut_l_stereo_44KHz.wav
3	116	3	3	2	I	0	0	0	0	Ⴌ	cut_h_stereo_44KHz.wav
3	117	1	2	0	C	2	1	574	1	Ⴔ	cut_w_stereo_44KHz.wav
3	118	3	4	2	I	2	0	370	1	Ⴌ	cut_l_stereo_44KHz.wav
3	119	2	2	1	C	2	0	917	0	Ⴏ	cut_w_stereo_44KHz.wav
3	120	4	3	2	I	0	0	0	0	Ⴐ	cut_h_stereo_44KHz.wav
3	121	3	4	2	I	2	0	1098	1	Ⴌ	cut_l_stereo_44KHz.wav
3	122	2	2	1	C	2	0	191	0	Ⴏ	cut_w_stereo_44KHz.wav
3	123	4	3	2	I	0	0	0	0	Ⴐ	cut_h_stereo_44KHz.wav
3	124	1	1	1	C	2	0	576	0	Ⴔ	cut_g_stereo_44KHz.wav
3	125	4	4	2	I	2	0	388	1	Ⴐ	cut_l_stereo_44KHz.wav
3	126	3	3	2	I	0	0	0	0	Ⴌ	cut_h_stereo_44KHz.wav
3	127	2	1	0	C	0	0	0	0	Ⴏ	cut_g_stereo_44KHz.wav
3	128	1	2	0	C	0	0	0	0	Ⴔ	cut_w_stereo_44KHz.wav
3	129	3	4	2	I	2	0	708	1	Ⴌ	cut_l_stereo_44KHz.wav
3	130	4	4	2	I	2	0	372	1	Ⴐ	cut_l_stereo_44KHz.wav
3	131	1	1	1	C	2	0	260	0	Ⴔ	cut_g_stereo_44KHz.wav
3	132	2	2	1	C	2	0	244	0	Ⴏ	cut_w_stereo_44KHz.wav
3	133	3	3	2	I	2	0	297	1	Ⴌ	cut_h_stereo_44KHz.wav
3	134	1	2	0	C	2	1	649	1	Ⴔ	cut_w_stereo_44KHz.wav
3	135	4	3	2	I	2	0	436	1	Ⴐ	cut_h_stereo_44KHz.wav
3	136	2	1	0	C	2	1	759	1	Ⴏ	cut_g_stereo_44KHz.wav
3	137	3	4	2	I	2	0	796	0	Ⴌ	cut_l_stereo_44KHz.wav
3	138	4	3	2	I	2	0	360	0	Ⴐ	cut_h_stereo_44KHz.wav
3	139	1	1	1	C	0	0	0	0	Ⴔ	cut_g_stereo_44KHz.wav
3	140	2	1	0	C	2	1	589	1	Ⴏ	cut_g_stereo_44KHz.wav
3	141	4	4	2	I	2	0	595	0	Ⴐ	cut_l_stereo_44KHz.wav
3	142	3	3	2	I	2	0	585	1	Ⴌ	cut_h_stereo_44KHz.wav
3	143	1	2	0	C	2	1	755	1	Ⴔ	cut_w_stereo_44KHz.wav
3	144	2	2	1	C	0	0	0	0	Ⴏ	cut_w_stereo_44KHz.wav
3	145	3	4	2	I	0	0	0	0	Ⴌ	cut_l_stereo_44KHz.wav
3	146	4	3	2	I	2	0	664	1	Ⴐ	cut_h_stereo_44KHz.wav
3	147	1	1	1	C	2	0	448	0	Ⴔ	cut_g_stereo_44KHz.wav
3	148	2	2	1	C	2	0	337	0	Ⴏ	cut_w_stereo_44KHz.wav
3	149	3	3	2	I	2	0	498	1	Ⴌ	cut_h_stereo_44KHz.wav
3	150	2	1	0	C	2	1	9	1	Ⴏ	cut_g_stereo_44KHz.wav
3	151	4	4	2	I	2	0	1155	1	Ⴐ	cut_l_stereo_44KHz.wav
3	152	1	2	0	C	2	1	1437	1	Ⴔ	cut_w_stereo_44KHz.wav
3	153	3	3	2	I	2	0	142	1	Ⴌ	cut_h_stereo_44KHz.wav
3	154	2	1	0	C	2	1	1164	1	Ⴏ	cut_g_stereo_44KHz.wav
3	155	4	3	2	I	2	0	503	0	Ⴐ	cut_h_stereo_44KHz.wav
3	156	1	2	0	C	2	1	441	1	Ⴔ	cut_w_stereo_44KHz.wav
3	157	2	2	1	C	0	0	0	0	Ⴏ	cut_w_stereo_44KHz.wav
3	158	4	4	2	I	2	0	351	1	Ⴐ	cut_l_stereo_44KHz.wav
3	159	3	4	2	I	2	0	643	1	Ⴌ	cut_l_stereo_44KHz.wav
3	160	1	1	1	C	2	0	1961	0	Ⴔ	cut_g_stereo_44KHz.wav
3	161	3	3	2	I	2	0	506	1	Ⴌ	cut_h_stereo_44KHz.wav
3	162	2	1	0	C	1	0	348	0	Ⴏ	cut_g_stereo_44KHz.wav
3	163	4	4	2	I	2	0	827	1	Ⴐ	cut_l_stereo_44KHz.wav
3	164	1	1	1	C	2	0	797	0	Ⴔ	cut_g_stereo_44KHz.wav
3	165	2	2	1	C	2	0	536	0	Ⴏ	cut_w_stereo_44KHz.wav
3	166	4	3	2	I	0	0	0	0	Ⴐ	cut_h_stereo_44KHz.wav
3	167	3	4	2	I	2	0	294	0	Ⴌ	cut_l_stereo_44KHz.wav
3	168	1	2	0	C	2	1	380	1	Ⴔ	cut_w_stereo_44KHz.wav
3	169	3	4	2	I	2	0	432	1	Ⴌ	cut_l_stereo_44KHz.wav
3	170	2	2	1	C	2	0	961	0	Ⴏ	cut_w_stereo_44KHz.wav
3	171	4	4	2	I	2	0	349	0	Ⴐ	cut_l_stereo_44KHz.wav
3	172	1	1	1	C	2	0	1430	0	Ⴔ	cut_g_stereo_44KHz.wav
3	173	4	3	2	I	2	0	523	1	Ⴐ	cut_h_stereo_44KHz.wav
3	174	1	2	0	C	2	1	824	1	Ⴔ	cut_w_stereo_44KHz.wav
3	175	2	1	0	C	0	0	0	0	Ⴏ	cut_g_stereo_44KHz.wav
3	176	3	3	2	I	2	0	577	1	Ⴌ	cut_h_stereo_44KHz.wav
3	177	1	2	0	C	2	1	592	1	Ⴔ	cut_w_stereo_44KHz.wav
3	178	2	1	0	C	2	1	349	1	Ⴏ	cut_g_stereo_44KHz.wav
3	179	3	4	2	I	2	0	1047	1	Ⴌ	cut_l_stereo_44KHz.wav
3	180	4	3	2	I	0	0	0	0	Ⴐ	cut_h_stereo_44KHz.wav
3	181	3	3	2	I	2	0	735	1	Ⴌ	cut_h_stereo_44KHz.wav
3	182	1	1	1	C	2	0	1391	0	Ⴔ	cut_g_stereo_44KHz.wav
3	183	2	2	1	C	2	0	1010	0	Ⴏ	cut_w_stereo_44KHz.wav
3	184	4	4	2	I	2	0	593	1	Ⴐ	cut_l_stereo_44KHz.wav
3	185	2	1	0	C	2	1	401	1	Ⴏ	cut_g_stereo_44KHz.wav
3	186	3	3	2	I	2	0	355	0	Ⴌ	cut_h_stereo_44KHz.wav
3	187	1	1	1	C	2	0	791	0	Ⴔ	cut_g_stereo_44KHz.wav
3	188	4	3	2	I	2	0	888	1	Ⴐ	cut_h_stereo_44KHz.wav
3	189	3	4	2	I	2	0	910	0	Ⴌ	cut_l_stereo_44KHz.wav
3	190	2	2	1	C	2	0	1002	0	Ⴏ	cut_w_stereo_44KHz.wav
3	191	4	4	2	I	2	0	762	1	Ⴐ	cut_l_stereo_44KHz.wav
3	192	1	2	0	C	2	1	1939	1	Ⴔ	cut_w_stereo_44KHz.wav
3	193	2	1	0	C	2	1	349	1	Ⴏ	cut_g_stereo_44KHz.wav
3	194	1	2	0	C	2	1	1742	1	Ⴔ	cut_w_stereo_44KHz.wav
3	195	4	4	2	I	2	0	1550	0	Ⴐ	cut_l_stereo_44KHz.wav
3	196	3	3	2	I	2	0	323	0	Ⴌ	cut_h_stereo_44KHz.wav
3	197	1	1	1	C	2	0	440	0	Ⴔ	cut_g_stereo_44KHz.wav
3	198	3	4	2	I	2	0	526	0	Ⴌ	cut_l_stereo_44KHz.wav
3	199	4	3	2	I	2	0	317	1	Ⴐ	cut_h_stereo_44KHz.wav
3	200	2	2	1	C	2	0	1501	0	Ⴏ	cut_w_stereo_44KHz.wav
4	1	3	4	2	I	0	0	0	0	Ⴊ	cut_ui_stereo_44KHz.wav
4	2	2	1	0	C	1	0	296	0	Ⴡ	cut_ei_stereo_44KHz.wav
4	3	1	1	1	C	1	1	867	1	Ⴇ	cut_ei_stereo_44KHz.wav
4	4	4	3	2	I	1	0	389	0	Ⴟ	cut_j_stereo_44KHz.wav
4	5	1	2	0	C	1	0	971	0	Ⴇ	cut_oei_stereo_44KHz.wav
4	6	2	2	1	C	2	0	728	0	Ⴡ	cut_oei_stereo_44KHz.wav
4	7	4	4	2	I	2	0	367	1	Ⴟ	cut_ui_stereo_44KHz.wav
4	8	3	3	2	I	1	0	1306	0	Ⴊ	cut_j_stereo_44KHz.wav
4	9	4	4	2	I	1	0	520	0	Ⴟ	cut_ui_stereo_44KHz.wav
4	10	1	2	0	C	2	1	290	1	Ⴇ	cut_oei_stereo_44KHz.wav
4	11	2	2	1	C	1	1	923	1	Ⴡ	cut_oei_stereo_44KHz.wav
4	12	3	3	2	I	2	0	763	0	Ⴊ	cut_j_stereo_44KHz.wav
4	13	1	1	1	C	1	1	531	1	Ⴇ	cut_ei_stereo_44KHz.wav
4	14	4	3	2	I	2	0	834	1	Ⴟ	cut_j_stereo_44KHz.wav
4	15	2	1	0	C	1	0	306	0	Ⴡ	cut_ei_stereo_44KHz.wav
4	16	3	4	2	I	2	0	472	1	Ⴊ	cut_ui_stereo_44KHz.wav
4	17	1	1	1	C	2	0	379	0	Ⴇ	cut_ei_stereo_44KHz.wav
4	18	4	4	2	I	1	0	374	1	Ⴟ	cut_ui_stereo_44KHz.wav
4	19	3	4	2	I	2	0	215	1	Ⴊ	cut_ui_stereo_44KHz.wav
4	20	2	2	1	C	2	0	316	0	Ⴡ	cut_oei_stereo_44KHz.wav
4	21	4	3	2	I	1	0	724	0	Ⴟ	cut_j_stereo_44KHz.wav
4	22	1	2	0	C	2	1	374	1	Ⴇ	cut_oei_stereo_44KHz.wav
4	23	2	1	0	C	2	1	273	1	Ⴡ	cut_ei_stereo_44KHz.wav
4	24	3	3	2	I	1	0	327	1	Ⴊ	cut_j_stereo_44KHz.wav
4	25	2	2	1	C	2	0	389	0	Ⴡ	cut_oei_stereo_44KHz.wav
4	26	1	2	0	C	2	1	356	1	Ⴇ	cut_oei_stereo_44KHz.wav
4	27	3	4	2	I	1	0	304	0	Ⴊ	cut_ui_stereo_44KHz.wav
4	28	4	3	2	I	1	0	314	1	Ⴟ	cut_j_stereo_44KHz.wav
4	29	1	1	1	C	1	1	1166	1	Ⴇ	cut_ei_stereo_44KHz.wav
4	30	4	4	2	I	1	0	653	1	Ⴟ	cut_ui_stereo_44KHz.wav
4	31	2	1	0	C	1	0	562	0	Ⴡ	cut_ei_stereo_44KHz.wav
4	32	3	3	2	I	1	0	571	1	Ⴊ	cut_j_stereo_44KHz.wav
4	33	4	4	2	I	1	0	470	1	Ⴟ	cut_ui_stereo_44KHz.wav
4	34	3	4	2	I	1	0	616	1	Ⴊ	cut_ui_stereo_44KHz.wav
4	35	2	1	0	C	1	0	612	0	Ⴡ	cut_ei_stereo_44KHz.wav
4	36	1	1	1	C	1	1	537	1	Ⴇ	cut_ei_stereo_44KHz.wav
4	37	4	3	2	I	1	0	804	1	Ⴟ	cut_j_stereo_44KHz.wav
4	38	2	2	1	C	1	1	422	1	Ⴡ	cut_oei_stereo_44KHz.wav
4	39	3	3	2	I	1	0	807	1	Ⴊ	cut_j_stereo_44KHz.wav
4	40	1	2	0	C	1	0	526	0	Ⴇ	cut_oei_stereo_44KHz.wav
4	41	4	4	2	I	0	0	0	0	Ⴟ	cut_ui_stereo_44KHz.wav
4	42	2	1	0	C	1	0	1102	0	Ⴡ	cut_ei_stereo_44KHz.wav
4	43	3	4	2	I	2	0	586	1	Ⴊ	cut_ui_stereo_44KHz.wav
4	44	1	2	0	C	2	1	249	1	Ⴇ	cut_oei_stereo_44KHz.wav
4	45	2	2	1	C	1	1	1476	1	Ⴡ	cut_oei_stereo_44KHz.wav
4	46	3	3	2	I	1	0	507	1	Ⴊ	cut_j_stereo_44KHz.wav
4	47	1	1	1	C	2	0	444	0	Ⴇ	cut_ei_stereo_44KHz.wav
4	48	4	3	2	I	2	0	1794	0	Ⴟ	cut_j_stereo_44KHz.wav
4	49	3	3	2	I	2	0	571	1	Ⴊ	cut_j_stereo_44KHz.wav
4	50	1	1	1	C	2	0	1861	0	Ⴇ	cut_ei_stereo_44KHz.wav
4	51	2	2	1	C	2	0	1662	0	Ⴡ	cut_oei_stereo_44KHz.wav
4	52	4	3	2	I	2	0	384	1	Ⴟ	cut_j_stereo_44KHz.wav
4	53	1	2	0	C	2	1	1431	1	Ⴇ	cut_oei_stereo_44KHz.wav
4	54	2	1	0	C	1	0	705	0	Ⴡ	cut_ei_stereo_44KHz.wav
4	55	3	4	2	I	1	0	624	1	Ⴊ	cut_ui_stereo_44KHz.wav
4	56	4	4	2	I	1	0	861	1	Ⴟ	cut_ui_stereo_44KHz.wav
4	57	1	1	1	C	1	1	415	1	Ⴇ	cut_ei_stereo_44KHz.wav
4	58	4	4	2	I	1	0	571	0	Ⴟ	cut_ui_stereo_44KHz.wav
4	59	3	4	2	I	2	0	493	0	Ⴊ	cut_ui_stereo_44KHz.wav
4	60	2	2	1	C	2	0	335	0	Ⴡ	cut_oei_stereo_44KHz.wav
4	61	3	3	2	I	1	0	903	1	Ⴊ	cut_j_stereo_44KHz.wav
4	62	1	2	0	C	2	1	322	1	Ⴇ	cut_oei_stereo_44KHz.wav
4	63	2	1	0	C	2	1	291	1	Ⴡ	cut_ei_stereo_44KHz.wav
4	64	4	3	2	I	2	0	17	1	Ⴟ	cut_j_stereo_44KHz.wav
4	65	3	3	2	I	1	0	812	1	Ⴊ	cut_j_stereo_44KHz.wav
4	66	2	2	1	C	1	1	409	1	Ⴡ	cut_oei_stereo_44KHz.wav
4	67	4	4	2	I	2	0	285	1	Ⴟ	cut_ui_stereo_44KHz.wav
4	68	1	2	0	C	1	0	357	0	Ⴇ	cut_oei_stereo_44KHz.wav
4	69	3	4	2	I	2	0	321	0	Ⴊ	cut_ui_stereo_44KHz.wav
4	70	1	1	1	C	2	0	550	0	Ⴇ	cut_ei_stereo_44KHz.wav
4	71	2	1	0	C	2	1	315	1	Ⴡ	cut_ei_stereo_44KHz.wav
4	72	4	3	2	I	1	0	926	1	Ⴟ	cut_j_stereo_44KHz.wav
4	73	2	2	1	C	1	1	568	1	Ⴡ	cut_oei_stereo_44KHz.wav
4	74	3	3	2	I	2	0	851	1	Ⴊ	cut_j_stereo_44KHz.wav
4	75	4	4	2	I	0	0	0	0	Ⴟ	cut_ui_stereo_44KHz.wav
4	76	1	1	1	C	2	0	775	0	Ⴇ	cut_ei_stereo_44KHz.wav
4	77	2	1	0	C	1	0	373	0	Ⴡ	cut_ei_stereo_44KHz.wav
4	78	3	4	2	I	1	0	396	1	Ⴊ	cut_ui_stereo_44KHz.wav
4	79	1	2	0	C	1	0	461	0	Ⴇ	cut_oei_stereo_44KHz.wav
4	80	4	3	2	I	2	0	459	1	Ⴟ	cut_j_stereo_44KHz.wav
4	81	3	3	2	I	2	0	499	0	Ⴊ	cut_j_stereo_44KHz.wav
4	82	4	4	2	I	2	0	876	1	Ⴟ	cut_ui_stereo_44KHz.wav
4	83	1	2	0	C	2	1	1768	1	Ⴇ	cut_oei_stereo_44KHz.wav
4	84	2	2	1	C	2	0	379	0	Ⴡ	cut_oei_stereo_44KHz.wav
4	85	4	3	2	I	2	0	1008	1	Ⴟ	cut_j_stereo_44KHz.wav
4	86	3	4	2	I	1	0	377	1	Ⴊ	cut_ui_stereo_44KHz.wav
4	87	1	1	1	C	2	0	1324	0	Ⴇ	cut_ei_stereo_44KHz.wav
4	88	2	1	0	C	1	0	433	0	Ⴡ	cut_ei_stereo_44KHz.wav
4	89	4	3	2	I	1	0	448	1	Ⴟ	cut_j_stereo_44KHz.wav
4	90	3	3	2	I	1	0	723	0	Ⴊ	cut_j_stereo_44KHz.wav
4	91	2	1	0	C	2	1	719	1	Ⴡ	cut_ei_stereo_44KHz.wav
4	92	1	2	0	C	2	1	234	1	Ⴇ	cut_oei_stereo_44KHz.wav
4	93	3	4	2	I	2	0	302	1	Ⴊ	cut_ui_stereo_44KHz.wav
4	94	1	1	1	C	1	1	370	1	Ⴇ	cut_ei_stereo_44KHz.wav
4	95	2	2	1	C	1	1	816	1	Ⴡ	cut_oei_stereo_44KHz.wav
4	96	4	4	2	I	2	0	340	1	Ⴟ	cut_ui_stereo_44KHz.wav
4	97	1	2	0	C	2	1	451	1	Ⴇ	cut_oei_stereo_44KHz.wav
4	98	2	2	1	C	1	1	349	1	Ⴡ	cut_oei_stereo_44KHz.wav
4	99	3	3	2	I	1	0	448	0	Ⴊ	cut_j_stereo_44KHz.wav
4	100	4	4	2	I	2	0	442	1	Ⴟ	cut_ui_stereo_44KHz.wav
4	101	2	1	0	C	1	0	339	0	Ⴡ	cut_ei_stereo_44KHz.wav
4	102	1	1	1	C	1	1	488	1	Ⴇ	cut_ei_stereo_44KHz.wav
4	103	4	3	2	I	2	0	1241	1	Ⴟ	cut_j_stereo_44KHz.wav
4	104	3	4	2	I	2	0	328	1	Ⴊ	cut_ui_stereo_44KHz.wav
4	105	4	4	2	I	2	0	334	0	Ⴟ	cut_ui_stereo_44KHz.wav
4	106	3	4	2	I	2	0	626	1	Ⴊ	cut_ui_stereo_44KHz.wav
4	107	2	1	0	C	2	1	284	1	Ⴡ	cut_ei_stereo_44KHz.wav
4	108	1	2	0	C	1	0	835	0	Ⴇ	cut_oei_stereo_44KHz.wav
4	109	4	3	2	I	1	0	700	1	Ⴟ	cut_j_stereo_44KHz.wav
4	110	2	2	1	C	1	1	978	1	Ⴡ	cut_oei_stereo_44KHz.wav
4	111	1	1	1	C	1	1	742	1	Ⴇ	cut_ei_stereo_44KHz.wav
4	112	3	3	2	I	1	0	921	0	Ⴊ	cut_j_stereo_44KHz.wav
4	113	1	2	0	C	2	1	412	1	Ⴇ	cut_oei_stereo_44KHz.wav
4	114	2	1	0	C	2	1	139	1	Ⴡ	cut_ei_stereo_44KHz.wav
4	115	3	3	2	I	1	0	433	1	Ⴊ	cut_j_stereo_44KHz.wav
4	116	4	3	2	I	1	0	427	1	Ⴟ	cut_j_stereo_44KHz.wav
4	117	2	2	1	C	2	0	284	0	Ⴡ	cut_oei_stereo_44KHz.wav
4	118	4	4	2	I	1	0	616	1	Ⴟ	cut_ui_stereo_44KHz.wav
4	119	3	4	2	I	2	0	837	1	Ⴊ	cut_ui_stereo_44KHz.wav
4	120	1	1	1	C	2	0	442	0	Ⴇ	cut_ei_stereo_44KHz.wav
4	121	4	4	2	I	2	0	333	1	Ⴟ	cut_ui_stereo_44KHz.wav
4	122	2	2	1	C	1	1	395	1	Ⴡ	cut_oei_stereo_44KHz.wav
4	123	3	3	2	I	2	0	839	1	Ⴊ	cut_j_stereo_44KHz.wav
4	124	1	2	0	C	1	0	313	0	Ⴇ	cut_oei_stereo_44KHz.wav
4	125	2	1	0	C	1	0	1677	0	Ⴡ	cut_ei_stereo_44KHz.wav
4	126	4	3	2	I	1	0	590	1	Ⴟ	cut_j_stereo_44KHz.wav
4	127	3	4	2	I	2	0	519	1	Ⴊ	cut_ui_stereo_44KHz.wav
4	128	1	1	1	C	2	0	544	0	Ⴇ	cut_ei_stereo_44KHz.wav
4	129	4	4	2	I	1	0	1060	1	Ⴟ	cut_ui_stereo_44KHz.wav
4	130	2	2	1	C	2	0	428	0	Ⴡ	cut_oei_stereo_44KHz.wav
4	131	3	3	2	I	2	0	831	1	Ⴊ	cut_j_stereo_44KHz.wav
4	132	1	1	1	C	1	1	306	1	Ⴇ	cut_ei_stereo_44KHz.wav
4	133	4	3	2	I	2	0	385	0	Ⴟ	cut_j_stereo_44KHz.wav
4	134	3	4	2	I	2	0	739	1	Ⴊ	cut_ui_stereo_44KHz.wav
4	135	1	2	0	C	1	0	368	0	Ⴇ	cut_oei_stereo_44KHz.wav
4	136	2	1	0	C	2	1	572	1	Ⴡ	cut_ei_stereo_44KHz.wav
4	137	3	4	2	I	1	0	733	1	Ⴊ	cut_ui_stereo_44KHz.wav
4	138	2	2	1	C	1	1	510	1	Ⴡ	cut_oei_stereo_44KHz.wav
4	139	4	4	2	I	2	0	1290	0	Ⴟ	cut_ui_stereo_44KHz.wav
4	140	1	1	1	C	2	0	947	0	Ⴇ	cut_ei_stereo_44KHz.wav
4	141	3	3	2	I	1	0	991	1	Ⴊ	cut_j_stereo_44KHz.wav
4	142	2	1	0	C	1	0	642	0	Ⴡ	cut_ei_stereo_44KHz.wav
4	143	1	2	0	C	2	1	479	1	Ⴇ	cut_oei_stereo_44KHz.wav
4	144	4	3	2	I	2	0	774	1	Ⴟ	cut_j_stereo_44KHz.wav
4	145	1	2	0	C	2	1	385	1	Ⴇ	cut_oei_stereo_44KHz.wav
4	146	3	3	2	I	2	0	797	1	Ⴊ	cut_j_stereo_44KHz.wav
4	147	4	4	2	I	2	0	772	1	Ⴟ	cut_ui_stereo_44KHz.wav
4	148	2	2	1	C	2	0	801	0	Ⴡ	cut_oei_stereo_44KHz.wav
4	149	4	3	2	I	0	0	0	0	Ⴟ	cut_j_stereo_44KHz.wav
4	150	3	4	2	I	2	0	475	1	Ⴊ	cut_ui_stereo_44KHz.wav
4	151	1	1	1	C	2	0	747	0	Ⴇ	cut_ei_stereo_44KHz.wav
4	152	2	1	0	C	2	1	1555	1	Ⴡ	cut_ei_stereo_44KHz.wav
4	153	4	4	2	I	2	0	512	1	Ⴟ	cut_ui_stereo_44KHz.wav
4	154	2	2	1	C	1	1	876	1	Ⴡ	cut_oei_stereo_44KHz.wav
4	155	3	4	2	I	1	0	631	1	Ⴊ	cut_ui_stereo_44KHz.wav
4	156	1	2	0	C	1	0	276	0	Ⴇ	cut_oei_stereo_44KHz.wav
4	157	3	3	2	I	2	0	642	0	Ⴊ	cut_j_stereo_44KHz.wav
4	158	2	1	0	C	0	0	0	0	Ⴡ	cut_ei_stereo_44KHz.wav
4	159	4	3	2	I	1	0	639	1	Ⴟ	cut_j_stereo_44KHz.wav
4	160	1	1	1	C	1	1	486	1	Ⴇ	cut_ei_stereo_44KHz.wav
4	161	3	3	2	I	2	0	850	1	Ⴊ	cut_j_stereo_44KHz.wav
4	162	1	2	0	C	2	1	298	1	Ⴇ	cut_oei_stereo_44KHz.wav
4	163	2	2	1	C	2	0	1388	0	Ⴡ	cut_oei_stereo_44KHz.wav
4	164	4	4	2	I	2	0	624	1	Ⴟ	cut_ui_stereo_44KHz.wav
4	165	3	4	2	I	2	0	719	1	Ⴊ	cut_ui_stereo_44KHz.wav
4	166	4	3	2	I	0	0	0	0	Ⴟ	cut_j_stereo_44KHz.wav
4	167	1	1	1	C	2	0	752	0	Ⴇ	cut_ei_stereo_44KHz.wav
4	168	2	1	0	C	2	1	155	1	Ⴡ	cut_ei_stereo_44KHz.wav
4	169	4	3	2	I	2	0	776	1	Ⴟ	cut_j_stereo_44KHz.wav
4	170	3	3	2	I	1	0	1356	1	Ⴊ	cut_j_stereo_44KHz.wav
4	171	2	2	1	C	1	1	242	1	Ⴡ	cut_oei_stereo_44KHz.wav
4	172	1	2	0	C	0	0	0	0	Ⴇ	cut_oei_stereo_44KHz.wav
4	173	4	4	2	I	0	0	0	0	Ⴟ	cut_ui_stereo_44KHz.wav
4	174	3	4	2	I	0	0	0	0	Ⴊ	cut_ui_stereo_44KHz.wav
4	175	1	1	1	C	1	1	978	1	Ⴇ	cut_ei_stereo_44KHz.wav
4	176	2	1	0	C	1	0	397	0	Ⴡ	cut_ei_stereo_44KHz.wav
4	177	4	4	2	I	0	0	0	0	Ⴟ	cut_ui_stereo_44KHz.wav
4	178	1	1	1	C	2	0	1215	0	Ⴇ	cut_ei_stereo_44KHz.wav
4	179	2	2	1	C	2	0	307	0	Ⴡ	cut_oei_stereo_44KHz.wav
4	180	3	3	2	I	2	0	322	1	Ⴊ	cut_j_stereo_44KHz.wav
4	181	2	1	0	C	1	0	358	0	Ⴡ	cut_ei_stereo_44KHz.wav
4	182	4	3	2	I	1	0	331	1	Ⴟ	cut_j_stereo_44KHz.wav
4	183	3	4	2	I	1	0	1045	1	Ⴊ	cut_ui_stereo_44KHz.wav
4	184	1	2	0	C	2	1	1600	1	Ⴇ	cut_oei_stereo_44KHz.wav
4	185	3	3	2	I	2	0	466	1	Ⴊ	cut_j_stereo_44KHz.wav
4	186	1	2	0	C	1	0	701	0	Ⴇ	cut_oei_stereo_44KHz.wav
4	187	2	1	0	C	2	1	896	1	Ⴡ	cut_ei_stereo_44KHz.wav
4	188	4	3	2	I	2	0	227	1	Ⴟ	cut_j_stereo_44KHz.wav
4	189	1	1	1	C	2	0	130	0	Ⴇ	cut_ei_stereo_44KHz.wav
4	190	4	4	2	I	1	0	673	0	Ⴟ	cut_ui_stereo_44KHz.wav
4	191	2	2	1	C	1	1	345	1	Ⴡ	cut_oei_stereo_44KHz.wav
4	192	3	4	2	I	2	0	358	1	Ⴊ	cut_ui_stereo_44KHz.wav
4	193	4	4	2	I	1	0	353	1	Ⴟ	cut_ui_stereo_44KHz.wav
4	194	1	1	1	C	0	0	0	0	Ⴇ	cut_ei_stereo_44KHz.wav
4	195	2	2	1	C	1	1	266	1	Ⴡ	cut_oei_stereo_44KHz.wav
4	196	3	4	2	I	1	0	337	1	Ⴊ	cut_ui_stereo_44KHz.wav
4	197	2	1	0	C	1	0	298	0	Ⴡ	cut_ei_stereo_44KHz.wav
4	198	4	3	2	I	2	0	417	1	Ⴟ	cut_j_stereo_44KHz.wav
4	199	1	2	0	C	2	1	588	1	Ⴇ	cut_oei_stereo_44KHz.wav
4	200	3	3	2	I	2	0	279	1	Ⴊ	cut_j_stereo_44KHz.wav
