block	trial	Vstim	Astim	match	C/I	resp	result	RT	fb	V-file	A-file
LR

0	1	2	3	1	C	0	0	0	0	Ⴞ	cut_g_stereo_44KHz.wav
0	2	2	4	0	C	1	1	862	1	Ⴞ	cut_eeuw_stereo_44KHz.wav
0	3	1	1	1	C	2	1	679	1	Ⴢ	cut_ee_stereo_44KHz.wav
0	4	1	2	0	C	0	0	0	0	Ⴢ	cut_oo_stereo_44KHz.wav
0	5	1	1	1	C	2	1	1223	1	Ⴢ	cut_ee_stereo_44KHz.wav
0	6	2	3	1	C	1	0	1098	0	Ⴞ	cut_g_stereo_44KHz.wav
0	7	1	2	0	C	1	1	1161	1	Ⴢ	cut_oo_stereo_44KHz.wav
0	8	2	4	0	C	2	0	1246	0	Ⴞ	cut_eeuw_stereo_44KHz.wav
0	9	1	1	1	C	2	1	1951	1	Ⴢ	cut_ee_stereo_44KHz.wav
0	10	2	4	0	C	0	0	0	0	Ⴞ	cut_eeuw_stereo_44KHz.wav
0	11	2	3	1	C	2	1	1894	1	Ⴞ	cut_g_stereo_44KHz.wav
0	12	1	2	0	C	0	0	0	0	Ⴢ	cut_oo_stereo_44KHz.wav
0	13	1	2	0	C	1	1	880	1	Ⴢ	cut_oo_stereo_44KHz.wav
0	14	2	4	0	C	2	0	901	0	Ⴞ	cut_eeuw_stereo_44KHz.wav
0	15	2	3	1	C	1	0	1054	0	Ⴞ	cut_g_stereo_44KHz.wav
0	16	1	1	1	C	2	1	1262	1	Ⴢ	cut_ee_stereo_44KHz.wav
0	17	1	1	1	C	2	1	1314	1	Ⴢ	cut_ee_stereo_44KHz.wav
0	18	2	3	1	C	1	0	1719	0	Ⴞ	cut_g_stereo_44KHz.wav
0	19	1	2	0	C	1	1	1043	1	Ⴢ	cut_oo_stereo_44KHz.wav
0	20	2	4	0	C	2	0	892	0	Ⴞ	cut_eeuw_stereo_44KHz.wav
0	21	1	2	0	C	1	1	1609	1	Ⴢ	cut_oo_stereo_44KHz.wav
0	22	1	1	1	C	2	1	1214	1	Ⴢ	cut_ee_stereo_44KHz.wav
0	23	2	3	1	C	2	1	1131	1	Ⴞ	cut_g_stereo_44KHz.wav
0	24	2	4	0	C	1	1	1280	1	Ⴞ	cut_eeuw_stereo_44KHz.wav
0	25	2	3	1	C	2	1	1972	1	Ⴞ	cut_g_stereo_44KHz.wav
0	26	2	4	0	C	2	0	1341	0	Ⴞ	cut_eeuw_stereo_44KHz.wav
0	27	1	1	1	C	2	1	1325	1	Ⴢ	cut_ee_stereo_44KHz.wav
0	28	1	2	0	C	1	1	1030	1	Ⴢ	cut_oo_stereo_44KHz.wav
0	29	1	2	0	C	1	1	1273	1	Ⴢ	cut_oo_stereo_44KHz.wav
0	30	1	1	1	C	2	1	896	1	Ⴢ	cut_ee_stereo_44KHz.wav
avg_resp = 1263
1	1	2	2	1	C	0	0	0	0	Ⴌ	cut_oei_stereo_44KHz.wav
1	2	3	3	2	I	2	0	884	1	Ⴐ	cut_j_stereo_44KHz.wav
1	3	4	4	2	I	1	0	1237	1	Ⴔ	cut_f_stereo_44KHz.wav
1	4	1	1	1	C	2	1	946	1	Ⴏ	cut_n_stereo_44KHz.wav
1	5	4	3	2	I	2	0	1439	1	Ⴔ	cut_j_stereo_44KHz.wav
1	6	2	1	0	C	2	0	1283	0	Ⴌ	cut_n_stereo_44KHz.wav
1	7	1	2	0	C	2	0	1525	0	Ⴏ	cut_oei_stereo_44KHz.wav
1	8	3	4	2	I	2	0	1249	1	Ⴐ	cut_f_stereo_44KHz.wav
1	9	1	2	0	C	1	1	1186	1	Ⴏ	cut_oei_stereo_44KHz.wav
1	10	4	4	2	I	1	0	1631	1	Ⴔ	cut_f_stereo_44KHz.wav
1	11	2	2	1	C	2	1	1020	1	Ⴌ	cut_oei_stereo_44KHz.wav
1	12	3	4	2	I	2	0	1943	0	Ⴐ	cut_f_stereo_44KHz.wav
1	13	1	1	1	C	0	0	0	0	Ⴏ	cut_n_stereo_44KHz.wav
1	14	4	3	2	I	2	0	1189	1	Ⴔ	cut_j_stereo_44KHz.wav
1	15	2	1	0	C	2	0	1072	0	Ⴌ	cut_n_stereo_44KHz.wav
1	16	3	3	2	I	2	0	1768	1	Ⴐ	cut_j_stereo_44KHz.wav
1	17	4	3	2	I	2	0	1601	1	Ⴔ	cut_j_stereo_44KHz.wav
1	18	2	1	0	C	1	1	1270	1	Ⴌ	cut_n_stereo_44KHz.wav
1	19	3	4	2	I	2	0	1736	1	Ⴐ	cut_f_stereo_44KHz.wav
1	20	1	1	1	C	0	0	0	0	Ⴏ	cut_n_stereo_44KHz.wav
1	21	4	4	2	I	1	0	1621	1	Ⴔ	cut_f_stereo_44KHz.wav
1	22	1	2	0	C	1	1	1544	1	Ⴏ	cut_oei_stereo_44KHz.wav
1	23	3	3	2	I	1	0	1943	0	Ⴐ	cut_j_stereo_44KHz.wav
1	24	2	2	1	C	2	1	1471	1	Ⴌ	cut_oei_stereo_44KHz.wav
1	25	3	3	2	I	0	0	0	0	Ⴐ	cut_j_stereo_44KHz.wav
1	26	2	1	0	C	1	1	1532	1	Ⴌ	cut_n_stereo_44KHz.wav
1	27	1	2	0	C	2	0	1698	0	Ⴏ	cut_oei_stereo_44KHz.wav
1	28	4	3	2	I	2	0	1198	1	Ⴔ	cut_j_stereo_44KHz.wav
1	29	1	1	1	C	1	0	1722	0	Ⴏ	cut_n_stereo_44KHz.wav
1	30	3	4	2	I	2	0	1202	1	Ⴐ	cut_f_stereo_44KHz.wav
1	31	2	2	1	C	1	0	1531	0	Ⴌ	cut_oei_stereo_44KHz.wav
1	32	4	4	2	I	1	0	1359	1	Ⴔ	cut_f_stereo_44KHz.wav
1	33	1	1	1	C	1	0	1287	0	Ⴏ	cut_n_stereo_44KHz.wav
1	34	4	3	2	I	1	0	1644	1	Ⴔ	cut_j_stereo_44KHz.wav
1	35	2	2	1	C	1	0	1108	0	Ⴌ	cut_oei_stereo_44KHz.wav
1	36	3	3	2	I	1	0	1021	1	Ⴐ	cut_j_stereo_44KHz.wav
1	37	4	4	2	I	1	0	977	0	Ⴔ	cut_f_stereo_44KHz.wav
1	38	1	2	0	C	1	1	1884	1	Ⴏ	cut_oei_stereo_44KHz.wav
1	39	2	1	0	C	2	0	1352	0	Ⴌ	cut_n_stereo_44KHz.wav
1	40	3	4	2	I	2	0	1935	1	Ⴐ	cut_f_stereo_44KHz.wav
1	41	1	1	1	C	2	1	1358	1	Ⴏ	cut_n_stereo_44KHz.wav
1	42	2	2	1	C	1	0	1691	0	Ⴌ	cut_oei_stereo_44KHz.wav
1	43	4	3	2	I	0	0	0	0	Ⴔ	cut_j_stereo_44KHz.wav
1	44	3	4	2	I	2	0	950	1	Ⴐ	cut_f_stereo_44KHz.wav
1	45	2	1	0	C	1	1	1433	1	Ⴌ	cut_n_stereo_44KHz.wav
1	46	3	3	2	I	2	0	837	1	Ⴐ	cut_j_stereo_44KHz.wav
1	47	4	4	2	I	1	0	893	1	Ⴔ	cut_f_stereo_44KHz.wav
1	48	1	2	0	C	1	1	1453	1	Ⴏ	cut_oei_stereo_44KHz.wav
1	49	4	4	2	I	1	0	991	1	Ⴔ	cut_f_stereo_44KHz.wav
1	50	1	2	0	C	1	1	897	1	Ⴏ	cut_oei_stereo_44KHz.wav
1	51	2	2	1	C	2	1	863	1	Ⴌ	cut_oei_stereo_44KHz.wav
1	52	3	3	2	I	2	0	1075	1	Ⴐ	cut_j_stereo_44KHz.wav
1	53	2	1	0	C	2	0	1058	0	Ⴌ	cut_n_stereo_44KHz.wav
1	54	1	1	1	C	2	1	1401	1	Ⴏ	cut_n_stereo_44KHz.wav
1	55	3	4	2	I	2	0	1030	0	Ⴐ	cut_f_stereo_44KHz.wav
1	56	4	3	2	I	1	0	1761	1	Ⴔ	cut_j_stereo_44KHz.wav
1	57	3	4	2	I	0	0	0	0	Ⴐ	cut_f_stereo_44KHz.wav
1	58	4	3	2	I	0	0	0	0	Ⴔ	cut_j_stereo_44KHz.wav
1	59	1	1	1	C	1	0	1184	0	Ⴏ	cut_n_stereo_44KHz.wav
1	60	2	2	1	C	1	0	1077	0	Ⴌ	cut_oei_stereo_44KHz.wav
1	61	1	2	0	C	1	1	1112	1	Ⴏ	cut_oei_stereo_44KHz.wav
1	62	4	4	2	I	1	0	834	1	Ⴔ	cut_f_stereo_44KHz.wav
1	63	2	1	0	C	1	1	819	1	Ⴌ	cut_n_stereo_44KHz.wav
1	64	3	3	2	I	2	0	1145	1	Ⴐ	cut_j_stereo_44KHz.wav
1	65	4	3	2	I	2	0	1265	1	Ⴔ	cut_j_stereo_44KHz.wav
1	66	3	4	2	I	1	0	1479	0	Ⴐ	cut_f_stereo_44KHz.wav
1	67	2	2	1	C	0	0	0	0	Ⴌ	cut_oei_stereo_44KHz.wav
1	68	1	1	1	C	1	0	1471	0	Ⴏ	cut_n_stereo_44KHz.wav
1	69	4	4	2	I	1	0	829	1	Ⴔ	cut_f_stereo_44KHz.wav
1	70	1	2	0	C	1	1	1585	1	Ⴏ	cut_oei_stereo_44KHz.wav
1	71	3	3	2	I	2	0	1219	1	Ⴐ	cut_j_stereo_44KHz.wav
1	72	2	1	0	C	1	1	881	1	Ⴌ	cut_n_stereo_44KHz.wav
1	73	4	4	2	I	1	0	1274	0	Ⴔ	cut_f_stereo_44KHz.wav
1	74	2	2	1	C	1	0	1162	0	Ⴌ	cut_oei_stereo_44KHz.wav
1	75	1	1	1	C	2	1	1198	1	Ⴏ	cut_n_stereo_44KHz.wav
1	76	3	3	2	I	2	0	1320	1	Ⴐ	cut_j_stereo_44KHz.wav
1	77	4	3	2	I	1	0	992	1	Ⴔ	cut_j_stereo_44KHz.wav
1	78	3	4	2	I	2	0	1243	0	Ⴐ	cut_f_stereo_44KHz.wav
1	79	2	1	0	C	0	0	0	0	Ⴌ	cut_n_stereo_44KHz.wav
1	80	1	2	0	C	1	1	1413	1	Ⴏ	cut_oei_stereo_44KHz.wav
1	81	3	4	2	I	2	0	1483	1	Ⴐ	cut_f_stereo_44KHz.wav
1	82	1	1	1	C	2	1	1846	1	Ⴏ	cut_n_stereo_44KHz.wav
1	83	2	2	1	C	0	0	0	0	Ⴌ	cut_oei_stereo_44KHz.wav
1	84	4	4	2	I	1	0	1221	1	Ⴔ	cut_f_stereo_44KHz.wav
1	85	3	3	2	I	2	0	1427	1	Ⴐ	cut_j_stereo_44KHz.wav
1	86	2	1	0	C	1	1	1122	1	Ⴌ	cut_n_stereo_44KHz.wav
1	87	4	3	2	I	2	0	1473	1	Ⴔ	cut_j_stereo_44KHz.wav
1	88	1	2	0	C	0	0	0	0	Ⴏ	cut_oei_stereo_44KHz.wav
1	89	4	4	2	I	2	0	926	1	Ⴔ	cut_f_stereo_44KHz.wav
1	90	3	4	2	I	1	0	1706	1	Ⴐ	cut_f_stereo_44KHz.wav
1	91	1	1	1	C	2	1	1001	1	Ⴏ	cut_n_stereo_44KHz.wav
1	92	2	1	0	C	2	0	992	0	Ⴌ	cut_n_stereo_44KHz.wav
1	93	4	3	2	I	2	0	1967	1	Ⴔ	cut_j_stereo_44KHz.wav
1	94	1	2	0	C	0	0	0	0	Ⴏ	cut_oei_stereo_44KHz.wav
1	95	3	3	2	I	2	0	1080	1	Ⴐ	cut_j_stereo_44KHz.wav
1	96	2	2	1	C	2	1	1667	1	Ⴌ	cut_oei_stereo_44KHz.wav
1	97	3	4	2	I	0	0	0	0	Ⴐ	cut_f_stereo_44KHz.wav
1	98	1	1	1	C	0	0	0	0	Ⴏ	cut_n_stereo_44KHz.wav
1	99	2	1	0	C	1	1	666	1	Ⴌ	cut_n_stereo_44KHz.wav
1	100	4	4	2	I	1	0	1280	0	Ⴔ	cut_f_stereo_44KHz.wav
1	101	2	2	1	C	2	1	1352	1	Ⴌ	cut_oei_stereo_44KHz.wav
1	102	1	2	0	C	2	0	973	0	Ⴏ	cut_oei_stereo_44KHz.wav
1	103	3	3	2	I	2	0	1149	1	Ⴐ	cut_j_stereo_44KHz.wav
1	104	4	3	2	I	1	0	1744	0	Ⴔ	cut_j_stereo_44KHz.wav
1	105	1	1	1	C	0	0	0	0	Ⴏ	cut_n_stereo_44KHz.wav
1	106	3	4	2	I	1	0	1626	1	Ⴐ	cut_f_stereo_44KHz.wav
1	107	4	3	2	I	2	0	872	1	Ⴔ	cut_j_stereo_44KHz.wav
1	108	2	2	1	C	1	0	910	0	Ⴌ	cut_oei_stereo_44KHz.wav
1	109	3	3	2	I	2	0	1325	1	Ⴐ	cut_j_stereo_44KHz.wav
1	110	2	1	0	C	2	0	1036	0	Ⴌ	cut_n_stereo_44KHz.wav
1	111	1	2	0	C	1	1	915	1	Ⴏ	cut_oei_stereo_44KHz.wav
1	112	4	4	2	I	2	0	757	0	Ⴔ	cut_f_stereo_44KHz.wav
1	113	1	2	0	C	2	0	1717	0	Ⴏ	cut_oei_stereo_44KHz.wav
1	114	4	4	2	I	1	0	1800	1	Ⴔ	cut_f_stereo_44KHz.wav
1	115	2	1	0	C	1	1	949	1	Ⴌ	cut_n_stereo_44KHz.wav
1	116	3	3	2	I	2	0	1154	0	Ⴐ	cut_j_stereo_44KHz.wav
1	117	2	2	1	C	2	1	1182	1	Ⴌ	cut_oei_stereo_44KHz.wav
1	118	1	1	1	C	2	1	1111	1	Ⴏ	cut_n_stereo_44KHz.wav
1	119	3	4	2	I	0	0	0	0	Ⴐ	cut_f_stereo_44KHz.wav
1	120	4	3	2	I	1	0	790	1	Ⴔ	cut_j_stereo_44KHz.wav
1	121	1	2	0	C	2	0	1606	0	Ⴏ	cut_oei_stereo_44KHz.wav
1	122	3	4	2	I	1	0	1684	1	Ⴐ	cut_f_stereo_44KHz.wav
1	123	2	2	1	C	2	1	1304	1	Ⴌ	cut_oei_stereo_44KHz.wav
1	124	4	4	2	I	2	0	1123	0	Ⴔ	cut_f_stereo_44KHz.wav
1	125	3	3	2	I	2	0	1589	1	Ⴐ	cut_j_stereo_44KHz.wav
1	126	4	3	2	I	2	0	1194	0	Ⴔ	cut_j_stereo_44KHz.wav
1	127	2	1	0	C	2	0	736	0	Ⴌ	cut_n_stereo_44KHz.wav
1	128	1	1	1	C	2	1	932	1	Ⴏ	cut_n_stereo_44KHz.wav
1	129	2	1	0	C	1	1	982	1	Ⴌ	cut_n_stereo_44KHz.wav
1	130	1	1	1	C	2	1	827	1	Ⴏ	cut_n_stereo_44KHz.wav
1	131	3	4	2	I	1	0	1659	1	Ⴐ	cut_f_stereo_44KHz.wav
1	132	4	3	2	I	1	0	1229	1	Ⴔ	cut_j_stereo_44KHz.wav
1	133	1	2	0	C	2	0	1444	0	Ⴏ	cut_oei_stereo_44KHz.wav
1	134	3	3	2	I	2	0	1088	1	Ⴐ	cut_j_stereo_44KHz.wav
1	135	4	4	2	I	1	0	1513	1	Ⴔ	cut_f_stereo_44KHz.wav
1	136	2	2	1	C	2	1	1231	1	Ⴌ	cut_oei_stereo_44KHz.wav
1	137	1	2	0	C	2	0	915	0	Ⴏ	cut_oei_stereo_44KHz.wav
1	138	4	4	2	I	1	0	1471	1	Ⴔ	cut_f_stereo_44KHz.wav
1	139	2	2	1	C	2	1	941	1	Ⴌ	cut_oei_stereo_44KHz.wav
1	140	3	4	2	I	1	0	1591	1	Ⴐ	cut_f_stereo_44KHz.wav
1	141	2	1	0	C	2	0	741	0	Ⴌ	cut_n_stereo_44KHz.wav
1	142	4	3	2	I	2	0	943	1	Ⴔ	cut_j_stereo_44KHz.wav
1	143	1	1	1	C	2	1	915	1	Ⴏ	cut_n_stereo_44KHz.wav
1	144	3	3	2	I	1	0	1023	1	Ⴐ	cut_j_stereo_44KHz.wav
1	145	2	1	0	C	1	1	1475	1	Ⴌ	cut_n_stereo_44KHz.wav
1	146	3	4	2	I	0	0	0	0	Ⴐ	cut_f_stereo_44KHz.wav
1	147	1	1	1	C	2	1	1463	1	Ⴏ	cut_n_stereo_44KHz.wav
1	148	4	4	2	I	2	0	1360	1	Ⴔ	cut_f_stereo_44KHz.wav
1	149	3	3	2	I	1	0	1109	1	Ⴐ	cut_j_stereo_44KHz.wav
1	150	4	3	2	I	1	0	1733	0	Ⴔ	cut_j_stereo_44KHz.wav
1	151	1	2	0	C	2	0	785	0	Ⴏ	cut_oei_stereo_44KHz.wav
1	152	2	2	1	C	2	1	976	1	Ⴌ	cut_oei_stereo_44KHz.wav
1	153	4	3	2	I	1	0	1269	1	Ⴔ	cut_j_stereo_44KHz.wav
1	154	1	1	1	C	2	1	1332	1	Ⴏ	cut_n_stereo_44KHz.wav
1	155	3	4	2	I	1	0	1387	1	Ⴐ	cut_f_stereo_44KHz.wav
1	156	2	2	1	C	2	1	781	1	Ⴌ	cut_oei_stereo_44KHz.wav
1	157	3	3	2	I	1	0	1086	1	Ⴐ	cut_j_stereo_44KHz.wav
1	158	2	1	0	C	1	1	1636	1	Ⴌ	cut_n_stereo_44KHz.wav
1	159	4	4	2	I	2	0	1210	1	Ⴔ	cut_f_stereo_44KHz.wav
1	160	1	2	0	C	1	1	918	1	Ⴏ	cut_oei_stereo_44KHz.wav
1	161	2	2	1	C	2	1	1200	1	Ⴌ	cut_oei_stereo_44KHz.wav
1	162	3	4	2	I	1	0	904	1	Ⴐ	cut_f_stereo_44KHz.wav
1	163	4	4	2	I	1	0	906	1	Ⴔ	cut_f_stereo_44KHz.wav
1	164	1	1	1	C	1	0	1378	0	Ⴏ	cut_n_stereo_44KHz.wav
1	165	2	1	0	C	1	1	1470	1	Ⴌ	cut_n_stereo_44KHz.wav
1	166	4	3	2	I	2	0	763	1	Ⴔ	cut_j_stereo_44KHz.wav
1	167	1	2	0	C	1	1	1302	1	Ⴏ	cut_oei_stereo_44KHz.wav
1	168	3	3	2	I	1	0	1003	0	Ⴐ	cut_j_stereo_44KHz.wav
1	169	2	1	0	C	0	0	0	0	Ⴌ	cut_n_stereo_44KHz.wav
1	170	1	1	1	C	2	1	1218	1	Ⴏ	cut_n_stereo_44KHz.wav
1	171	3	4	2	I	1	0	1491	1	Ⴐ	cut_f_stereo_44KHz.wav
1	172	4	3	2	I	1	0	996	1	Ⴔ	cut_j_stereo_44KHz.wav
1	173	1	2	0	C	1	1	1908	1	Ⴏ	cut_oei_stereo_44KHz.wav
1	174	4	4	2	I	1	0	1180	1	Ⴔ	cut_f_stereo_44KHz.wav
1	175	2	2	1	C	2	1	854	1	Ⴌ	cut_oei_stereo_44KHz.wav
1	176	3	3	2	I	1	0	1048	0	Ⴐ	cut_j_stereo_44KHz.wav
1	177	4	4	2	I	1	0	1039	0	Ⴔ	cut_f_stereo_44KHz.wav
1	178	2	2	1	C	2	1	1102	1	Ⴌ	cut_oei_stereo_44KHz.wav
1	179	3	4	2	I	1	0	1743	1	Ⴐ	cut_f_stereo_44KHz.wav
1	180	1	2	0	C	2	0	1089	0	Ⴏ	cut_oei_stereo_44KHz.wav
1	181	4	3	2	I	1	0	1349	1	Ⴔ	cut_j_stereo_44KHz.wav
1	182	2	1	0	C	1	1	1296	1	Ⴌ	cut_n_stereo_44KHz.wav
1	183	3	3	2	I	2	0	799	0	Ⴐ	cut_j_stereo_44KHz.wav
1	184	1	1	1	C	0	0	0	0	Ⴏ	cut_n_stereo_44KHz.wav
1	185	2	1	0	C	1	1	848	1	Ⴌ	cut_n_stereo_44KHz.wav
1	186	4	3	2	I	0	0	0	0	Ⴔ	cut_j_stereo_44KHz.wav
1	187	1	1	1	C	2	1	827	1	Ⴏ	cut_n_stereo_44KHz.wav
1	188	3	3	2	I	1	0	1186	1	Ⴐ	cut_j_stereo_44KHz.wav
1	189	2	2	1	C	1	0	1028	0	Ⴌ	cut_oei_stereo_44KHz.wav
1	190	3	4	2	I	1	0	1103	1	Ⴐ	cut_f_stereo_44KHz.wav
1	191	4	4	2	I	1	0	849	1	Ⴔ	cut_f_stereo_44KHz.wav
1	192	1	2	0	C	2	0	1166	0	Ⴏ	cut_oei_stereo_44KHz.wav
1	193	2	1	0	C	1	1	1228	1	Ⴌ	cut_n_stereo_44KHz.wav
1	194	4	4	2	I	1	0	1087	1	Ⴔ	cut_f_stereo_44KHz.wav
1	195	3	3	2	I	1	0	1366	1	Ⴐ	cut_j_stereo_44KHz.wav
1	196	1	1	1	C	2	1	1175	1	Ⴏ	cut_n_stereo_44KHz.wav
1	197	2	2	1	C	2	1	1225	1	Ⴌ	cut_oei_stereo_44KHz.wav
1	198	1	2	0	C	2	0	1097	0	Ⴏ	cut_oei_stereo_44KHz.wav
1	199	3	4	2	I	1	0	1955	0	Ⴐ	cut_f_stereo_44KHz.wav
1	200	4	3	2	I	0	0	0	0	Ⴔ	cut_j_stereo_44KHz.wav
2	1	2	1	0	C	0	0	0	0	Ⴡ	cut_g_stereo_44KHz.wav
2	2	4	4	2	I	2	0	636	1	Ⴇ	cut_l_stereo_44KHz.wav
2	3	1	1	1	C	1	0	882	0	Ⴊ	cut_g_stereo_44KHz.wav
2	4	3	3	2	I	2	0	968	1	Ⴟ	cut_w_stereo_44KHz.wav
2	5	1	2	0	C	2	0	817	0	Ⴊ	cut_h_stereo_44KHz.wav
2	6	4	3	2	I	1	0	1129	0	Ⴇ	cut_w_stereo_44KHz.wav
2	7	2	2	1	C	1	0	1050	0	Ⴡ	cut_h_stereo_44KHz.wav
2	8	3	4	2	I	2	0	852	0	Ⴟ	cut_l_stereo_44KHz.wav
2	9	2	1	0	C	1	1	965	1	Ⴡ	cut_g_stereo_44KHz.wav
2	10	3	3	2	I	1	0	773	0	Ⴟ	cut_w_stereo_44KHz.wav
2	11	1	1	1	C	2	1	942	1	Ⴊ	cut_g_stereo_44KHz.wav
2	12	4	3	2	I	2	0	1459	0	Ⴇ	cut_w_stereo_44KHz.wav
2	13	3	4	2	I	2	0	983	1	Ⴟ	cut_l_stereo_44KHz.wav
2	14	2	2	1	C	2	1	869	1	Ⴡ	cut_h_stereo_44KHz.wav
2	15	4	4	2	I	1	0	1621	1	Ⴇ	cut_l_stereo_44KHz.wav
2	16	1	2	0	C	2	0	1145	0	Ⴊ	cut_h_stereo_44KHz.wav
2	17	2	1	0	C	2	0	867	0	Ⴡ	cut_g_stereo_44KHz.wav
2	18	1	2	0	C	1	1	906	1	Ⴊ	cut_h_stereo_44KHz.wav
2	19	3	4	2	I	1	0	826	0	Ⴟ	cut_l_stereo_44KHz.wav
2	20	4	3	2	I	2	0	1785	0	Ⴇ	cut_w_stereo_44KHz.wav
2	21	1	1	1	C	2	1	910	1	Ⴊ	cut_g_stereo_44KHz.wav
2	22	2	2	1	C	2	1	1734	1	Ⴡ	cut_h_stereo_44KHz.wav
2	23	4	4	2	I	2	0	1278	1	Ⴇ	cut_l_stereo_44KHz.wav
2	24	3	3	2	I	1	0	1358	1	Ⴟ	cut_w_stereo_44KHz.wav
2	25	1	2	0	C	2	0	771	0	Ⴊ	cut_h_stereo_44KHz.wav
2	26	3	4	2	I	1	0	1352	1	Ⴟ	cut_l_stereo_44KHz.wav
2	27	4	3	2	I	2	0	1269	1	Ⴇ	cut_w_stereo_44KHz.wav
2	28	2	2	1	C	2	1	1063	1	Ⴡ	cut_h_stereo_44KHz.wav
2	29	1	1	1	C	1	0	1497	0	Ⴊ	cut_g_stereo_44KHz.wav
2	30	4	4	2	I	2	0	1416	1	Ⴇ	cut_l_stereo_44KHz.wav
2	31	2	1	0	C	0	0	0	0	Ⴡ	cut_g_stereo_44KHz.wav
2	32	3	3	2	I	2	0	1079	1	Ⴟ	cut_w_stereo_44KHz.wav
2	33	2	2	1	C	1	0	1043	0	Ⴡ	cut_h_stereo_44KHz.wav
2	34	4	4	2	I	2	0	1512	0	Ⴇ	cut_l_stereo_44KHz.wav
2	35	3	4	2	I	2	0	1080	0	Ⴟ	cut_l_stereo_44KHz.wav
2	36	1	2	0	C	1	1	1624	1	Ⴊ	cut_h_stereo_44KHz.wav
2	37	4	3	2	I	2	0	1239	0	Ⴇ	cut_w_stereo_44KHz.wav
2	38	3	3	2	I	2	0	1649	1	Ⴟ	cut_w_stereo_44KHz.wav
2	39	1	1	1	C	2	1	1010	1	Ⴊ	cut_g_stereo_44KHz.wav
2	40	2	1	0	C	1	1	1388	1	Ⴡ	cut_g_stereo_44KHz.wav
2	41	1	1	1	C	2	1	1428	1	Ⴊ	cut_g_stereo_44KHz.wav
2	42	4	4	2	I	2	0	1485	1	Ⴇ	cut_l_stereo_44KHz.wav
2	43	3	3	2	I	1	0	1285	1	Ⴟ	cut_w_stereo_44KHz.wav
2	44	2	1	0	C	2	0	1266	0	Ⴡ	cut_g_stereo_44KHz.wav
2	45	1	2	0	C	1	1	1348	1	Ⴊ	cut_h_stereo_44KHz.wav
2	46	2	2	1	C	1	0	1880	0	Ⴡ	cut_h_stereo_44KHz.wav
2	47	3	4	2	I	2	0	880	1	Ⴟ	cut_l_stereo_44KHz.wav
2	48	4	3	2	I	2	0	1111	1	Ⴇ	cut_w_stereo_44KHz.wav
2	49	2	2	1	C	1	0	1020	0	Ⴡ	cut_h_stereo_44KHz.wav
2	50	3	4	2	I	2	0	715	1	Ⴟ	cut_l_stereo_44KHz.wav
2	51	1	2	0	C	2	0	1596	0	Ⴊ	cut_h_stereo_44KHz.wav
2	52	4	4	2	I	1	0	835	1	Ⴇ	cut_l_stereo_44KHz.wav
2	53	3	3	2	I	2	0	1061	0	Ⴟ	cut_w_stereo_44KHz.wav
2	54	1	1	1	C	2	1	686	1	Ⴊ	cut_g_stereo_44KHz.wav
2	55	2	1	0	C	1	1	1392	1	Ⴡ	cut_g_stereo_44KHz.wav
2	56	4	3	2	I	2	0	1182	1	Ⴇ	cut_w_stereo_44KHz.wav
2	57	2	2	1	C	2	1	910	1	Ⴡ	cut_h_stereo_44KHz.wav
2	58	3	4	2	I	2	0	1407	1	Ⴟ	cut_l_stereo_44KHz.wav
2	59	1	1	1	C	2	1	928	1	Ⴊ	cut_g_stereo_44KHz.wav
2	60	4	3	2	I	2	0	1655	1	Ⴇ	cut_w_stereo_44KHz.wav
2	61	2	1	0	C	2	0	759	0	Ⴡ	cut_g_stereo_44KHz.wav
2	62	4	4	2	I	2	0	1597	1	Ⴇ	cut_l_stereo_44KHz.wav
2	63	1	2	0	C	1	1	783	1	Ⴊ	cut_h_stereo_44KHz.wav
2	64	3	3	2	I	2	0	777	1	Ⴟ	cut_w_stereo_44KHz.wav
2	65	2	1	0	C	2	0	1252	0	Ⴡ	cut_g_stereo_44KHz.wav
2	66	1	1	1	C	2	1	984	1	Ⴊ	cut_g_stereo_44KHz.wav
2	67	3	4	2	I	2	0	840	1	Ⴟ	cut_l_stereo_44KHz.wav
2	68	4	3	2	I	2	0	1353	0	Ⴇ	cut_w_stereo_44KHz.wav
2	69	3	3	2	I	2	0	833	1	Ⴟ	cut_w_stereo_44KHz.wav
2	70	4	4	2	I	2	0	1307	1	Ⴇ	cut_l_stereo_44KHz.wav
2	71	2	2	1	C	1	0	1304	0	Ⴡ	cut_h_stereo_44KHz.wav
2	72	1	2	0	C	2	0	708	0	Ⴊ	cut_h_stereo_44KHz.wav
2	73	2	2	1	C	2	1	1031	1	Ⴡ	cut_h_stereo_44KHz.wav
2	74	1	1	1	C	2	1	1042	1	Ⴊ	cut_g_stereo_44KHz.wav
2	75	3	4	2	I	2	0	813	1	Ⴟ	cut_l_stereo_44KHz.wav
2	76	4	4	2	I	2	0	1498	0	Ⴇ	cut_l_stereo_44KHz.wav
2	77	1	2	0	C	2	0	1195	0	Ⴊ	cut_h_stereo_44KHz.wav
2	78	3	3	2	I	2	0	1103	1	Ⴟ	cut_w_stereo_44KHz.wav
2	79	2	1	0	C	2	0	1155	0	Ⴡ	cut_g_stereo_44KHz.wav
2	80	4	3	2	I	2	0	1092	1	Ⴇ	cut_w_stereo_44KHz.wav
2	81	3	4	2	I	2	0	1473	1	Ⴟ	cut_l_stereo_44KHz.wav
2	82	1	1	1	C	2	1	1495	1	Ⴊ	cut_g_stereo_44KHz.wav
2	83	4	4	2	I	2	0	740	0	Ⴇ	cut_l_stereo_44KHz.wav
2	84	2	2	1	C	2	1	1020	1	Ⴡ	cut_h_stereo_44KHz.wav
2	85	1	2	0	C	2	0	692	0	Ⴊ	cut_h_stereo_44KHz.wav
2	86	3	3	2	I	2	0	1044	1	Ⴟ	cut_w_stereo_44KHz.wav
2	87	4	3	2	I	2	0	796	1	Ⴇ	cut_w_stereo_44KHz.wav
2	88	2	1	0	C	2	0	749	0	Ⴡ	cut_g_stereo_44KHz.wav
2	89	1	2	0	C	1	1	803	1	Ⴊ	cut_h_stereo_44KHz.wav
2	90	3	3	2	I	2	0	972	0	Ⴟ	cut_w_stereo_44KHz.wav
2	91	2	2	1	C	2	1	1899	1	Ⴡ	cut_h_stereo_44KHz.wav
2	92	4	4	2	I	2	0	712	1	Ⴇ	cut_l_stereo_44KHz.wav
2	93	3	4	2	I	2	0	1008	0	Ⴟ	cut_l_stereo_44KHz.wav
2	94	1	1	1	C	2	1	680	1	Ⴊ	cut_g_stereo_44KHz.wav
2	95	2	1	0	C	2	0	680	0	Ⴡ	cut_g_stereo_44KHz.wav
2	96	4	3	2	I	1	0	905	1	Ⴇ	cut_w_stereo_44KHz.wav
2	97	2	2	1	C	2	1	701	1	Ⴡ	cut_h_stereo_44KHz.wav
2	98	3	3	2	I	1	0	756	1	Ⴟ	cut_w_stereo_44KHz.wav
2	99	4	4	2	I	2	0	620	1	Ⴇ	cut_l_stereo_44KHz.wav
2	100	1	1	1	C	1	0	1160	0	Ⴊ	cut_g_stereo_44KHz.wav
2	101	4	3	2	I	2	0	1551	1	Ⴇ	cut_w_stereo_44KHz.wav
2	102	2	1	0	C	2	0	707	0	Ⴡ	cut_g_stereo_44KHz.wav
2	103	3	4	2	I	2	0	854	1	Ⴟ	cut_l_stereo_44KHz.wav
2	104	1	2	0	C	2	0	1452	0	Ⴊ	cut_h_stereo_44KHz.wav
2	105	2	2	1	C	2	1	1297	1	Ⴡ	cut_h_stereo_44KHz.wav
2	106	4	4	2	I	2	0	1029	0	Ⴇ	cut_l_stereo_44KHz.wav
2	107	3	4	2	I	2	0	994	1	Ⴟ	cut_l_stereo_44KHz.wav
2	108	1	2	0	C	2	0	1589	0	Ⴊ	cut_h_stereo_44KHz.wav
2	109	3	3	2	I	2	0	1084	0	Ⴟ	cut_w_stereo_44KHz.wav
2	110	4	3	2	I	2	0	821	1	Ⴇ	cut_w_stereo_44KHz.wav
2	111	1	1	1	C	2	1	1292	1	Ⴊ	cut_g_stereo_44KHz.wav
2	112	2	1	0	C	2	0	687	0	Ⴡ	cut_g_stereo_44KHz.wav
2	113	4	4	2	I	2	0	1331	1	Ⴇ	cut_l_stereo_44KHz.wav
2	114	2	2	1	C	2	1	966	1	Ⴡ	cut_h_stereo_44KHz.wav
2	115	3	4	2	I	2	0	1411	1	Ⴟ	cut_l_stereo_44KHz.wav
2	116	1	2	0	C	0	0	0	0	Ⴊ	cut_h_stereo_44KHz.wav
2	117	4	3	2	I	2	0	1101	1	Ⴇ	cut_w_stereo_44KHz.wav
2	118	2	1	0	C	2	0	1259	0	Ⴡ	cut_g_stereo_44KHz.wav
2	119	3	3	2	I	0	0	0	0	Ⴟ	cut_w_stereo_44KHz.wav
2	120	1	1	1	C	2	1	508	1	Ⴊ	cut_g_stereo_44KHz.wav
2	121	3	3	2	I	2	0	702	1	Ⴟ	cut_w_stereo_44KHz.wav
2	122	1	1	1	C	2	1	741	1	Ⴊ	cut_g_stereo_44KHz.wav
2	123	4	3	2	I	2	0	980	1	Ⴇ	cut_w_stereo_44KHz.wav
2	124	2	2	1	C	2	1	871	1	Ⴡ	cut_h_stereo_44KHz.wav
2	125	4	4	2	I	1	0	1612	1	Ⴇ	cut_l_stereo_44KHz.wav
2	126	3	4	2	I	0	0	0	0	Ⴟ	cut_l_stereo_44KHz.wav
2	127	1	2	0	C	2	0	669	0	Ⴊ	cut_h_stereo_44KHz.wav
2	128	2	1	0	C	2	0	1169	0	Ⴡ	cut_g_stereo_44KHz.wav
2	129	1	2	0	C	2	0	1198	0	Ⴊ	cut_h_stereo_44KHz.wav
2	130	3	3	2	I	2	0	870	1	Ⴟ	cut_w_stereo_44KHz.wav
2	131	2	1	0	C	2	0	1309	0	Ⴡ	cut_g_stereo_44KHz.wav
2	132	4	3	2	I	1	0	1208	1	Ⴇ	cut_w_stereo_44KHz.wav
2	133	2	2	1	C	1	0	961	0	Ⴡ	cut_h_stereo_44KHz.wav
2	134	1	1	1	C	2	1	716	1	Ⴊ	cut_g_stereo_44KHz.wav
2	135	4	4	2	I	0	0	0	0	Ⴇ	cut_l_stereo_44KHz.wav
2	136	3	4	2	I	2	0	825	1	Ⴟ	cut_l_stereo_44KHz.wav
2	137	4	4	2	I	1	0	1056	1	Ⴇ	cut_l_stereo_44KHz.wav
2	138	1	2	0	C	2	0	1321	0	Ⴊ	cut_h_stereo_44KHz.wav
2	139	3	3	2	I	2	0	1100	1	Ⴟ	cut_w_stereo_44KHz.wav
2	140	2	1	0	C	2	0	1297	0	Ⴡ	cut_g_stereo_44KHz.wav
2	141	1	1	1	C	2	1	1243	1	Ⴊ	cut_g_stereo_44KHz.wav
2	142	2	2	1	C	2	1	1433	1	Ⴡ	cut_h_stereo_44KHz.wav
2	143	4	3	2	I	2	0	990	0	Ⴇ	cut_w_stereo_44KHz.wav
2	144	3	4	2	I	2	0	1192	0	Ⴟ	cut_l_stereo_44KHz.wav
2	145	4	3	2	I	1	0	1377	1	Ⴇ	cut_w_stereo_44KHz.wav
2	146	1	1	1	C	2	1	1148	1	Ⴊ	cut_g_stereo_44KHz.wav
2	147	3	3	2	I	2	0	1106	1	Ⴟ	cut_w_stereo_44KHz.wav
2	148	2	2	1	C	2	1	1103	1	Ⴡ	cut_h_stereo_44KHz.wav
2	149	3	4	2	I	2	0	995	1	Ⴟ	cut_l_stereo_44KHz.wav
2	150	4	4	2	I	2	0	814	1	Ⴇ	cut_l_stereo_44KHz.wav
2	151	1	2	0	C	2	0	1048	0	Ⴊ	cut_h_stereo_44KHz.wav
2	152	2	1	0	C	2	0	1203	0	Ⴡ	cut_g_stereo_44KHz.wav
2	153	4	4	2	I	2	0	842	1	Ⴇ	cut_l_stereo_44KHz.wav
2	154	3	4	2	I	2	0	990	1	Ⴟ	cut_l_stereo_44KHz.wav
2	155	2	1	0	C	2	0	1001	0	Ⴡ	cut_g_stereo_44KHz.wav
2	156	1	1	1	C	2	1	1184	1	Ⴊ	cut_g_stereo_44KHz.wav
2	157	2	2	1	C	2	1	976	1	Ⴡ	cut_h_stereo_44KHz.wav
2	158	1	2	0	C	2	0	880	0	Ⴊ	cut_h_stereo_44KHz.wav
2	159	3	3	2	I	1	0	1468	1	Ⴟ	cut_w_stereo_44KHz.wav
2	160	4	3	2	I	2	0	1688	1	Ⴇ	cut_w_stereo_44KHz.wav
2	161	2	2	1	C	2	1	1275	1	Ⴡ	cut_h_stereo_44KHz.wav
2	162	4	3	2	I	2	0	723	1	Ⴇ	cut_w_stereo_44KHz.wav
2	163	1	2	0	C	2	0	1115	0	Ⴊ	cut_h_stereo_44KHz.wav
2	164	3	3	2	I	1	0	1218	1	Ⴟ	cut_w_stereo_44KHz.wav
2	165	1	1	1	C	2	1	1501	1	Ⴊ	cut_g_stereo_44KHz.wav
2	166	4	4	2	I	2	0	518	1	Ⴇ	cut_l_stereo_44KHz.wav
2	167	2	1	0	C	2	0	880	0	Ⴡ	cut_g_stereo_44KHz.wav
2	168	3	4	2	I	2	0	778	1	Ⴟ	cut_l_stereo_44KHz.wav
2	169	2	2	1	C	2	1	724	1	Ⴡ	cut_h_stereo_44KHz.wav
2	170	4	3	2	I	2	0	577	1	Ⴇ	cut_w_stereo_44KHz.wav
2	171	3	4	2	I	2	0	745	0	Ⴟ	cut_l_stereo_44KHz.wav
2	172	1	2	0	C	2	0	1020	0	Ⴊ	cut_h_stereo_44KHz.wav
2	173	2	1	0	C	2	0	644	0	Ⴡ	cut_g_stereo_44KHz.wav
2	174	4	4	2	I	2	0	928	1	Ⴇ	cut_l_stereo_44KHz.wav
2	175	3	3	2	I	2	0	766	1	Ⴟ	cut_w_stereo_44KHz.wav
2	176	1	1	1	C	2	1	737	1	Ⴊ	cut_g_stereo_44KHz.wav
2	177	2	1	0	C	2	0	665	0	Ⴡ	cut_g_stereo_44KHz.wav
2	178	3	3	2	I	2	0	783	1	Ⴟ	cut_w_stereo_44KHz.wav
2	179	4	3	2	I	2	0	1398	1	Ⴇ	cut_w_stereo_44KHz.wav
2	180	1	2	0	C	2	0	794	0	Ⴊ	cut_h_stereo_44KHz.wav
2	181	3	4	2	I	2	0	705	1	Ⴟ	cut_l_stereo_44KHz.wav
2	182	4	4	2	I	2	0	803	1	Ⴇ	cut_l_stereo_44KHz.wav
2	183	1	1	1	C	2	1	1237	1	Ⴊ	cut_g_stereo_44KHz.wav
2	184	2	2	1	C	2	1	918	1	Ⴡ	cut_h_stereo_44KHz.wav
2	185	3	3	2	I	2	0	736	1	Ⴟ	cut_w_stereo_44KHz.wav
2	186	1	2	0	C	2	0	710	0	Ⴊ	cut_h_stereo_44KHz.wav
2	187	4	4	2	I	2	0	1013	1	Ⴇ	cut_l_stereo_44KHz.wav
2	188	2	1	0	C	2	0	617	0	Ⴡ	cut_g_stereo_44KHz.wav
2	189	4	3	2	I	2	0	637	1	Ⴇ	cut_w_stereo_44KHz.wav
2	190	1	1	1	C	2	1	863	1	Ⴊ	cut_g_stereo_44KHz.wav
2	191	3	4	2	I	2	0	492	1	Ⴟ	cut_l_stereo_44KHz.wav
2	192	2	2	1	C	2	1	615	1	Ⴡ	cut_h_stereo_44KHz.wav
2	193	4	4	2	I	2	0	382	1	Ⴇ	cut_l_stereo_44KHz.wav
2	194	3	4	2	I	2	0	588	1	Ⴟ	cut_l_stereo_44KHz.wav
2	195	1	1	1	C	2	1	555	1	Ⴊ	cut_g_stereo_44KHz.wav
2	196	2	2	1	C	2	1	1570	1	Ⴡ	cut_h_stereo_44KHz.wav
2	197	3	3	2	I	2	0	1491	1	Ⴟ	cut_w_stereo_44KHz.wav
2	198	2	1	0	C	2	0	574	0	Ⴡ	cut_g_stereo_44KHz.wav
2	199	1	2	0	C	2	0	1323	0	Ⴊ	cut_h_stereo_44KHz.wav
2	200	4	3	2	I	2	0	575	1	Ⴇ	cut_w_stereo_44KHz.wav
3	1	3	3	2	I	0	0	0	0	Ⴁ	cut_r_stereo_44KHz.wav
3	2	2	1	0	C	2	0	896	0	Ⴃ	cut_ei_stereo_44KHz.wav
3	3	4	4	2	I	2	0	998	1	Ⴂ	cut_ui_stereo_44KHz.wav
3	4	1	1	1	C	1	0	1623	0	Ⴜ	cut_ei_stereo_44KHz.wav
3	5	4	3	2	I	2	0	627	1	Ⴂ	cut_r_stereo_44KHz.wav
3	6	3	4	2	I	2	0	1079	1	Ⴁ	cut_ui_stereo_44KHz.wav
3	7	1	2	0	C	2	0	779	0	Ⴜ	cut_s_stereo_44KHz.wav
3	8	2	2	1	C	2	1	761	1	Ⴃ	cut_s_stereo_44KHz.wav
3	9	4	3	2	I	2	0	1494	0	Ⴂ	cut_r_stereo_44KHz.wav
3	10	1	2	0	C	2	0	969	0	Ⴜ	cut_s_stereo_44KHz.wav
3	11	2	1	0	C	2	0	875	0	Ⴃ	cut_ei_stereo_44KHz.wav
3	12	3	3	2	I	2	0	1581	1	Ⴁ	cut_r_stereo_44KHz.wav
3	13	4	4	2	I	2	0	539	1	Ⴂ	cut_ui_stereo_44KHz.wav
3	14	3	4	2	I	2	0	280	0	Ⴁ	cut_ui_stereo_44KHz.wav
3	15	1	1	1	C	2	1	363	1	Ⴜ	cut_ei_stereo_44KHz.wav
3	16	2	2	1	C	2	1	900	1	Ⴃ	cut_s_stereo_44KHz.wav
3	17	1	1	1	C	2	1	656	1	Ⴜ	cut_ei_stereo_44KHz.wav
3	18	2	1	0	C	2	0	511	0	Ⴃ	cut_ei_stereo_44KHz.wav
3	19	3	3	2	I	2	0	655	0	Ⴁ	cut_r_stereo_44KHz.wav
3	20	4	3	2	I	2	0	426	1	Ⴂ	cut_r_stereo_44KHz.wav
3	21	3	4	2	I	2	0	650	1	Ⴁ	cut_ui_stereo_44KHz.wav
3	22	1	2	0	C	2	0	681	0	Ⴜ	cut_s_stereo_44KHz.wav
3	23	2	2	1	C	2	1	811	1	Ⴃ	cut_s_stereo_44KHz.wav
3	24	4	4	2	I	2	0	735	1	Ⴂ	cut_ui_stereo_44KHz.wav
3	25	2	1	0	C	2	0	1086	0	Ⴃ	cut_ei_stereo_44KHz.wav
3	26	4	3	2	I	2	0	1475	1	Ⴂ	cut_r_stereo_44KHz.wav
3	27	3	3	2	I	2	0	893	1	Ⴁ	cut_r_stereo_44KHz.wav
3	28	1	1	1	C	2	1	677	1	Ⴜ	cut_ei_stereo_44KHz.wav
3	29	3	4	2	I	1	0	623	0	Ⴁ	cut_ui_stereo_44KHz.wav
3	30	1	2	0	C	2	0	846	0	Ⴜ	cut_s_stereo_44KHz.wav
3	31	4	4	2	I	2	0	855	1	Ⴂ	cut_ui_stereo_44KHz.wav
3	32	2	2	1	C	2	1	612	1	Ⴃ	cut_s_stereo_44KHz.wav
3	33	3	4	2	I	2	0	617	1	Ⴁ	cut_ui_stereo_44KHz.wav
3	34	1	1	1	C	2	1	690	1	Ⴜ	cut_ei_stereo_44KHz.wav
3	35	4	3	2	I	2	0	437	1	Ⴂ	cut_r_stereo_44KHz.wav
3	36	2	2	1	C	2	1	404	1	Ⴃ	cut_s_stereo_44KHz.wav
3	37	1	2	0	C	2	0	576	0	Ⴜ	cut_s_stereo_44KHz.wav
3	38	2	1	0	C	2	0	737	0	Ⴃ	cut_ei_stereo_44KHz.wav
3	39	4	4	2	I	2	0	545	1	Ⴂ	cut_ui_stereo_44KHz.wav
3	40	3	3	2	I	2	0	46	1	Ⴁ	cut_r_stereo_44KHz.wav
3	41	2	1	0	C	2	0	682	0	Ⴃ	cut_ei_stereo_44KHz.wav
3	42	3	3	2	I	1	0	834	1	Ⴁ	cut_r_stereo_44KHz.wav
3	43	1	2	0	C	2	0	760	0	Ⴜ	cut_s_stereo_44KHz.wav
3	44	4	3	2	I	2	0	466	1	Ⴂ	cut_r_stereo_44KHz.wav
3	45	2	2	1	C	2	1	400	1	Ⴃ	cut_s_stereo_44KHz.wav
3	46	4	4	2	I	2	0	933	1	Ⴂ	cut_ui_stereo_44KHz.wav
3	47	3	4	2	I	2	0	798	1	Ⴁ	cut_ui_stereo_44KHz.wav
3	48	1	1	1	C	2	1	1477	1	Ⴜ	cut_ei_stereo_44KHz.wav
3	49	2	2	1	C	2	1	883	1	Ⴃ	cut_s_stereo_44KHz.wav
3	50	4	4	2	I	0	0	0	0	Ⴂ	cut_ui_stereo_44KHz.wav
3	51	1	1	1	C	2	1	519	1	Ⴜ	cut_ei_stereo_44KHz.wav
3	52	3	3	2	I	0	0	0	0	Ⴁ	cut_r_stereo_44KHz.wav
3	53	2	1	0	C	2	0	967	0	Ⴃ	cut_ei_stereo_44KHz.wav
3	54	1	2	0	C	2	0	544	0	Ⴜ	cut_s_stereo_44KHz.wav
3	55	4	3	2	I	2	0	1155	1	Ⴂ	cut_r_stereo_44KHz.wav
3	56	3	4	2	I	2	0	905	0	Ⴁ	cut_ui_stereo_44KHz.wav
3	57	2	2	1	C	2	1	829	1	Ⴃ	cut_s_stereo_44KHz.wav
3	58	4	3	2	I	2	0	690	1	Ⴂ	cut_r_stereo_44KHz.wav
3	59	1	1	1	C	2	1	580	1	Ⴜ	cut_ei_stereo_44KHz.wav
3	60	3	4	2	I	2	0	392	1	Ⴁ	cut_ui_stereo_44KHz.wav
3	61	2	1	0	C	2	0	1666	0	Ⴃ	cut_ei_stereo_44KHz.wav
3	62	3	3	2	I	2	0	578	1	Ⴁ	cut_r_stereo_44KHz.wav
3	63	1	2	0	C	2	0	847	0	Ⴜ	cut_s_stereo_44KHz.wav
3	64	4	4	2	I	2	0	984	1	Ⴂ	cut_ui_stereo_44KHz.wav
3	65	3	4	2	I	2	0	940	1	Ⴁ	cut_ui_stereo_44KHz.wav
3	66	2	1	0	C	1	1	1691	1	Ⴃ	cut_ei_stereo_44KHz.wav
3	67	4	4	2	I	1	0	1360	0	Ⴂ	cut_ui_stereo_44KHz.wav
3	68	1	1	1	C	2	1	617	1	Ⴜ	cut_ei_stereo_44KHz.wav
3	69	2	2	1	C	2	1	1532	1	Ⴃ	cut_s_stereo_44KHz.wav
3	70	3	3	2	I	2	0	646	0	Ⴁ	cut_r_stereo_44KHz.wav
3	71	1	2	0	C	2	0	402	0	Ⴜ	cut_s_stereo_44KHz.wav
3	72	4	3	2	I	0	0	0	0	Ⴂ	cut_r_stereo_44KHz.wav
3	73	3	3	2	I	2	0	959	1	Ⴁ	cut_r_stereo_44KHz.wav
3	74	1	1	1	C	2	1	506	1	Ⴜ	cut_ei_stereo_44KHz.wav
3	75	2	2	1	C	2	1	480	1	Ⴃ	cut_s_stereo_44KHz.wav
3	76	4	3	2	I	2	0	633	1	Ⴂ	cut_r_stereo_44KHz.wav
3	77	1	2	0	C	2	0	296	0	Ⴜ	cut_s_stereo_44KHz.wav
3	78	4	4	2	I	2	0	869	1	Ⴂ	cut_ui_stereo_44KHz.wav
3	79	3	4	2	I	2	0	540	1	Ⴁ	cut_ui_stereo_44KHz.wav
3	80	2	1	0	C	2	0	564	0	Ⴃ	cut_ei_stereo_44KHz.wav
3	81	1	2	0	C	2	0	1043	0	Ⴜ	cut_s_stereo_44KHz.wav
3	82	2	2	1	C	2	1	1098	1	Ⴃ	cut_s_stereo_44KHz.wav
3	83	3	3	2	I	2	0	1105	0	Ⴁ	cut_r_stereo_44KHz.wav
3	84	4	3	2	I	2	0	1033	0	Ⴂ	cut_r_stereo_44KHz.wav
3	85	1	1	1	C	2	1	871	1	Ⴜ	cut_ei_stereo_44KHz.wav
3	86	3	4	2	I	2	0	749	1	Ⴁ	cut_ui_stereo_44KHz.wav
3	87	4	4	2	I	0	0	0	0	Ⴂ	cut_ui_stereo_44KHz.wav
3	88	2	1	0	C	2	0	958	0	Ⴃ	cut_ei_stereo_44KHz.wav
3	89	4	3	2	I	2	0	872	1	Ⴂ	cut_r_stereo_44KHz.wav
3	90	3	4	2	I	2	0	467	1	Ⴁ	cut_ui_stereo_44KHz.wav
3	91	1	2	0	C	2	0	638	0	Ⴜ	cut_s_stereo_44KHz.wav
3	92	2	2	1	C	0	0	0	0	Ⴃ	cut_s_stereo_44KHz.wav
3	93	3	3	2	I	2	0	808	1	Ⴁ	cut_r_stereo_44KHz.wav
3	94	4	4	2	I	2	0	460	1	Ⴂ	cut_ui_stereo_44KHz.wav
3	95	1	1	1	C	2	1	384	1	Ⴜ	cut_ei_stereo_44KHz.wav
3	96	2	1	0	C	2	0	1455	0	Ⴃ	cut_ei_stereo_44KHz.wav
3	97	3	3	2	I	2	0	303	1	Ⴁ	cut_r_stereo_44KHz.wav
3	98	2	1	0	C	2	0	513	0	Ⴃ	cut_ei_stereo_44KHz.wav
3	99	1	2	0	C	2	0	722	0	Ⴜ	cut_s_stereo_44KHz.wav
3	100	4	4	2	I	2	0	374	1	Ⴂ	cut_ui_stereo_44KHz.wav
3	101	3	4	2	I	2	0	580	1	Ⴁ	cut_ui_stereo_44KHz.wav
3	102	1	1	1	C	2	1	373	1	Ⴜ	cut_ei_stereo_44KHz.wav
3	103	2	2	1	C	2	1	794	1	Ⴃ	cut_s_stereo_44KHz.wav
3	104	4	3	2	I	2	0	810	1	Ⴂ	cut_r_stereo_44KHz.wav
3	105	2	2	1	C	2	1	494	1	Ⴃ	cut_s_stereo_44KHz.wav
3	106	1	2	0	C	2	0	757	0	Ⴜ	cut_s_stereo_44KHz.wav
3	107	4	3	2	I	2	0	796	0	Ⴂ	cut_r_stereo_44KHz.wav
3	108	3	4	2	I	2	0	633	1	Ⴁ	cut_ui_stereo_44KHz.wav
3	109	2	1	0	C	2	0	813	0	Ⴃ	cut_ei_stereo_44KHz.wav
3	110	1	1	1	C	2	1	1019	1	Ⴜ	cut_ei_stereo_44KHz.wav
3	111	4	4	2	I	2	0	774	1	Ⴂ	cut_ui_stereo_44KHz.wav
3	112	3	3	2	I	1	0	759	1	Ⴁ	cut_r_stereo_44KHz.wav
3	113	4	4	2	I	2	0	597	1	Ⴂ	cut_ui_stereo_44KHz.wav
3	114	1	1	1	C	2	1	834	1	Ⴜ	cut_ei_stereo_44KHz.wav
3	115	3	3	2	I	2	0	706	0	Ⴁ	cut_r_stereo_44KHz.wav
3	116	2	1	0	C	2	0	889	0	Ⴃ	cut_ei_stereo_44KHz.wav
3	117	1	2	0	C	2	0	1665	0	Ⴜ	cut_s_stereo_44KHz.wav
3	118	2	2	1	C	2	1	666	1	Ⴃ	cut_s_stereo_44KHz.wav
3	119	4	3	2	I	2	0	693	1	Ⴂ	cut_r_stereo_44KHz.wav
3	120	3	4	2	I	1	0	1081	1	Ⴁ	cut_ui_stereo_44KHz.wav
3	121	2	1	0	C	2	0	729	0	Ⴃ	cut_ei_stereo_44KHz.wav
3	122	1	1	1	C	2	1	1055	1	Ⴜ	cut_ei_stereo_44KHz.wav
3	123	3	3	2	I	2	0	663	1	Ⴁ	cut_r_stereo_44KHz.wav
3	124	4	4	2	I	2	0	842	1	Ⴂ	cut_ui_stereo_44KHz.wav
3	125	2	2	1	C	0	0	0	0	Ⴃ	cut_s_stereo_44KHz.wav
3	126	3	4	2	I	2	0	861	1	Ⴁ	cut_ui_stereo_44KHz.wav
3	127	4	3	2	I	2	0	430	0	Ⴂ	cut_r_stereo_44KHz.wav
3	128	1	2	0	C	2	0	538	0	Ⴜ	cut_s_stereo_44KHz.wav
3	129	2	1	0	C	2	0	1596	0	Ⴃ	cut_ei_stereo_44KHz.wav
3	130	3	4	2	I	2	0	585	1	Ⴁ	cut_ui_stereo_44KHz.wav
3	131	1	2	0	C	2	0	1295	0	Ⴜ	cut_s_stereo_44KHz.wav
3	132	4	4	2	I	0	0	0	0	Ⴂ	cut_ui_stereo_44KHz.wav
3	133	3	3	2	I	2	0	1817	0	Ⴁ	cut_r_stereo_44KHz.wav
3	134	4	3	2	I	2	0	876	1	Ⴂ	cut_r_stereo_44KHz.wav
3	135	1	1	1	C	2	1	905	1	Ⴜ	cut_ei_stereo_44KHz.wav
3	136	2	2	1	C	0	0	0	0	Ⴃ	cut_s_stereo_44KHz.wav
3	137	4	3	2	I	2	0	807	1	Ⴂ	cut_r_stereo_44KHz.wav
3	138	3	3	2	I	2	0	1078	1	Ⴁ	cut_r_stereo_44KHz.wav
3	139	1	2	0	C	2	0	777	0	Ⴜ	cut_s_stereo_44KHz.wav
3	140	2	1	0	C	2	0	778	0	Ⴃ	cut_ei_stereo_44KHz.wav
3	141	1	1	1	C	2	1	570	1	Ⴜ	cut_ei_stereo_44KHz.wav
3	142	2	2	1	C	2	1	462	1	Ⴃ	cut_s_stereo_44KHz.wav
3	143	3	4	2	I	2	0	448	1	Ⴁ	cut_ui_stereo_44KHz.wav
3	144	4	4	2	I	2	0	567	0	Ⴂ	cut_ui_stereo_44KHz.wav
3	145	3	3	2	I	2	0	838	1	Ⴁ	cut_r_stereo_44KHz.wav
3	146	4	3	2	I	2	0	424	1	Ⴂ	cut_r_stereo_44KHz.wav
3	147	2	2	1	C	2	1	1168	1	Ⴃ	cut_s_stereo_44KHz.wav
3	148	1	2	0	C	2	0	648	0	Ⴜ	cut_s_stereo_44KHz.wav
3	149	3	4	2	I	2	0	886	1	Ⴁ	cut_ui_stereo_44KHz.wav
3	150	4	4	2	I	2	0	1020	1	Ⴂ	cut_ui_stereo_44KHz.wav
3	151	2	1	0	C	2	0	651	0	Ⴃ	cut_ei_stereo_44KHz.wav
3	152	1	1	1	C	2	1	575	1	Ⴜ	cut_ei_stereo_44KHz.wav
3	153	4	3	2	I	2	0	503	1	Ⴂ	cut_r_stereo_44KHz.wav
3	154	2	2	1	C	2	1	655	1	Ⴃ	cut_s_stereo_44KHz.wav
3	155	3	4	2	I	2	0	436	1	Ⴁ	cut_ui_stereo_44KHz.wav
3	156	1	1	1	C	2	1	784	1	Ⴜ	cut_ei_stereo_44KHz.wav
3	157	2	1	0	C	2	0	680	0	Ⴃ	cut_ei_stereo_44KHz.wav
3	158	1	2	0	C	2	0	561	0	Ⴜ	cut_s_stereo_44KHz.wav
3	159	3	3	2	I	2	0	483	1	Ⴁ	cut_r_stereo_44KHz.wav
3	160	4	4	2	I	2	0	1091	0	Ⴂ	cut_ui_stereo_44KHz.wav
3	161	3	4	2	I	2	0	572	1	Ⴁ	cut_ui_stereo_44KHz.wav
3	162	1	1	1	C	2	1	917	1	Ⴜ	cut_ei_stereo_44KHz.wav
3	163	2	1	0	C	2	0	617	0	Ⴃ	cut_ei_stereo_44KHz.wav
3	164	4	4	2	I	1	0	987	1	Ⴂ	cut_ui_stereo_44KHz.wav
3	165	3	3	2	I	1	0	714	1	Ⴁ	cut_r_stereo_44KHz.wav
3	166	2	2	1	C	2	1	1472	1	Ⴃ	cut_s_stereo_44KHz.wav
3	167	1	2	0	C	2	0	861	0	Ⴜ	cut_s_stereo_44KHz.wav
3	168	4	3	2	I	2	0	780	1	Ⴂ	cut_r_stereo_44KHz.wav
3	169	2	1	0	C	2	0	777	0	Ⴃ	cut_ei_stereo_44KHz.wav
3	170	1	2	0	C	2	0	412	0	Ⴜ	cut_s_stereo_44KHz.wav
3	171	3	4	2	I	0	0	0	0	Ⴁ	cut_ui_stereo_44KHz.wav
3	172	4	4	2	I	2	0	1035	1	Ⴂ	cut_ui_stereo_44KHz.wav
3	173	2	2	1	C	2	1	529	1	Ⴃ	cut_s_stereo_44KHz.wav
3	174	3	3	2	I	2	0	699	0	Ⴁ	cut_r_stereo_44KHz.wav
3	175	1	1	1	C	2	1	803	1	Ⴜ	cut_ei_stereo_44KHz.wav
3	176	4	3	2	I	2	0	590	1	Ⴂ	cut_r_stereo_44KHz.wav
3	177	3	3	2	I	2	0	1105	1	Ⴁ	cut_r_stereo_44KHz.wav
3	178	2	1	0	C	2	0	941	0	Ⴃ	cut_ei_stereo_44KHz.wav
3	179	1	1	1	C	0	0	0	0	Ⴜ	cut_ei_stereo_44KHz.wav
3	180	4	4	2	I	2	0	840	1	Ⴂ	cut_ui_stereo_44KHz.wav
3	181	2	2	1	C	2	1	644	1	Ⴃ	cut_s_stereo_44KHz.wav
3	182	4	3	2	I	2	0	1950	1	Ⴂ	cut_r_stereo_44KHz.wav
3	183	1	2	0	C	2	0	1053	0	Ⴜ	cut_s_stereo_44KHz.wav
3	184	3	4	2	I	2	0	150	1	Ⴁ	cut_ui_stereo_44KHz.wav
3	185	1	1	1	C	0	0	0	0	Ⴜ	cut_ei_stereo_44KHz.wav
3	186	4	4	2	I	2	0	409	1	Ⴂ	cut_ui_stereo_44KHz.wav
3	187	2	2	1	C	2	1	693	1	Ⴃ	cut_s_stereo_44KHz.wav
3	188	3	3	2	I	2	0	539	1	Ⴁ	cut_r_stereo_44KHz.wav
3	189	2	1	0	C	2	0	622	0	Ⴃ	cut_ei_stereo_44KHz.wav
3	190	4	3	2	I	2	0	365	1	Ⴂ	cut_r_stereo_44KHz.wav
3	191	3	4	2	I	2	0	679	1	Ⴁ	cut_ui_stereo_44KHz.wav
3	192	1	2	0	C	2	0	393	0	Ⴜ	cut_s_stereo_44KHz.wav
3	193	2	1	0	C	1	1	1608	1	Ⴃ	cut_ei_stereo_44KHz.wav
3	194	1	2	0	C	2	0	1188	0	Ⴜ	cut_s_stereo_44KHz.wav
3	195	4	4	2	I	2	0	922	1	Ⴂ	cut_ui_stereo_44KHz.wav
3	196	3	3	2	I	2	0	1709	1	Ⴁ	cut_r_stereo_44KHz.wav
3	197	1	1	1	C	2	1	1286	1	Ⴜ	cut_ei_stereo_44KHz.wav
3	198	4	3	2	I	2	0	1193	0	Ⴂ	cut_r_stereo_44KHz.wav
3	199	2	2	1	C	2	1	1704	1	Ⴃ	cut_s_stereo_44KHz.wav
3	200	3	4	2	I	2	0	567	1	Ⴁ	cut_ui_stereo_44KHz.wav
4	1	1	1	1	C	0	0	0	0	Ⴒ	cut_u_stereo_44KHz.wav
4	2	3	4	2	I	2	0	495	0	Ⴕ	cut_o_stereo_44KHz.wav
4	3	2	2	1	C	2	1	686	1	Ⴉ	cut_a_stereo_44KHz.wav
4	4	4	4	2	I	2	0	755	0	Ⴖ	cut_o_stereo_44KHz.wav
4	5	2	1	0	C	2	0	1526	0	Ⴉ	cut_u_stereo_44KHz.wav
4	6	1	2	0	C	2	0	1176	0	Ⴒ	cut_a_stereo_44KHz.wav
4	7	3	3	2	I	2	0	949	1	Ⴕ	cut_k_stereo_44KHz.wav
4	8	4	3	2	I	2	0	891	1	Ⴖ	cut_k_stereo_44KHz.wav
4	9	3	4	2	I	2	0	911	1	Ⴕ	cut_o_stereo_44KHz.wav
4	10	4	3	2	I	2	0	379	1	Ⴖ	cut_k_stereo_44KHz.wav
4	11	2	2	1	C	2	1	747	1	Ⴉ	cut_a_stereo_44KHz.wav
4	12	1	2	0	C	2	0	485	0	Ⴒ	cut_a_stereo_44KHz.wav
4	13	2	1	0	C	2	0	653	0	Ⴉ	cut_u_stereo_44KHz.wav
4	14	1	1	1	C	2	1	958	1	Ⴒ	cut_u_stereo_44KHz.wav
4	15	4	4	2	I	2	0	747	1	Ⴖ	cut_o_stereo_44KHz.wav
4	16	3	3	2	I	2	0	686	0	Ⴕ	cut_k_stereo_44KHz.wav
4	17	1	2	0	C	2	0	549	0	Ⴒ	cut_a_stereo_44KHz.wav
4	18	4	4	2	I	1	0	545	1	Ⴖ	cut_o_stereo_44KHz.wav
4	19	2	1	0	C	2	0	1614	0	Ⴉ	cut_u_stereo_44KHz.wav
4	20	3	3	2	I	2	0	1144	1	Ⴕ	cut_k_stereo_44KHz.wav
4	21	4	3	2	I	2	0	897	1	Ⴖ	cut_k_stereo_44KHz.wav
4	22	3	4	2	I	2	0	887	1	Ⴕ	cut_o_stereo_44KHz.wav
4	23	1	1	1	C	2	1	707	1	Ⴒ	cut_u_stereo_44KHz.wav
4	24	2	2	1	C	2	1	1543	1	Ⴉ	cut_a_stereo_44KHz.wav
4	25	4	4	2	I	1	0	1606	1	Ⴖ	cut_o_stereo_44KHz.wav
4	26	3	4	2	I	2	0	680	0	Ⴕ	cut_o_stereo_44KHz.wav
4	27	2	2	1	C	2	1	624	1	Ⴉ	cut_a_stereo_44KHz.wav
4	28	1	1	1	C	2	1	382	1	Ⴒ	cut_u_stereo_44KHz.wav
4	29	3	3	2	I	2	0	503	1	Ⴕ	cut_k_stereo_44KHz.wav
4	30	4	3	2	I	2	0	1347	1	Ⴖ	cut_k_stereo_44KHz.wav
4	31	1	2	0	C	2	0	488	0	Ⴒ	cut_a_stereo_44KHz.wav
4	32	2	1	0	C	2	0	506	0	Ⴉ	cut_u_stereo_44KHz.wav
4	33	1	1	1	C	2	1	449	1	Ⴒ	cut_u_stereo_44KHz.wav
4	34	3	3	2	I	2	0	526	1	Ⴕ	cut_k_stereo_44KHz.wav
4	35	2	1	0	C	2	0	341	0	Ⴉ	cut_u_stereo_44KHz.wav
4	36	4	4	2	I	2	0	449	0	Ⴖ	cut_o_stereo_44KHz.wav
4	37	2	2	1	C	2	1	479	1	Ⴉ	cut_a_stereo_44KHz.wav
4	38	3	4	2	I	2	0	487	1	Ⴕ	cut_o_stereo_44KHz.wav
4	39	4	3	2	I	2	0	660	1	Ⴖ	cut_k_stereo_44KHz.wav
4	40	1	2	0	C	2	0	847	0	Ⴒ	cut_a_stereo_44KHz.wav
4	41	4	4	2	I	2	0	437	1	Ⴖ	cut_o_stereo_44KHz.wav
4	42	3	3	2	I	2	0	606	1	Ⴕ	cut_k_stereo_44KHz.wav
4	43	2	2	1	C	2	1	640	1	Ⴉ	cut_a_stereo_44KHz.wav
4	44	1	1	1	C	2	1	1914	1	Ⴒ	cut_u_stereo_44KHz.wav
4	45	4	3	2	I	2	0	796	1	Ⴖ	cut_k_stereo_44KHz.wav
4	46	1	2	0	C	2	0	956	0	Ⴒ	cut_a_stereo_44KHz.wav
4	47	3	4	2	I	2	0	818	1	Ⴕ	cut_o_stereo_44KHz.wav
4	48	2	1	0	C	2	0	915	0	Ⴉ	cut_u_stereo_44KHz.wav
4	49	3	3	2	I	2	0	577	1	Ⴕ	cut_k_stereo_44KHz.wav
4	50	4	3	2	I	2	0	1055	1	Ⴖ	cut_k_stereo_44KHz.wav
4	51	1	1	1	C	2	1	874	1	Ⴒ	cut_u_stereo_44KHz.wav
4	52	2	1	0	C	2	0	1696	0	Ⴉ	cut_u_stereo_44KHz.wav
4	53	4	4	2	I	2	0	558	1	Ⴖ	cut_o_stereo_44KHz.wav
4	54	1	2	0	C	2	0	911	0	Ⴒ	cut_a_stereo_44KHz.wav
4	55	3	4	2	I	2	0	807	1	Ⴕ	cut_o_stereo_44KHz.wav
4	56	2	2	1	C	2	1	454	1	Ⴉ	cut_a_stereo_44KHz.wav
4	57	3	3	2	I	2	0	604	1	Ⴕ	cut_k_stereo_44KHz.wav
4	58	4	4	2	I	2	0	627	1	Ⴖ	cut_o_stereo_44KHz.wav
4	59	2	1	0	C	2	0	593	0	Ⴉ	cut_u_stereo_44KHz.wav
4	60	1	2	0	C	2	0	623	0	Ⴒ	cut_a_stereo_44KHz.wav
4	61	4	3	2	I	2	0	992	1	Ⴖ	cut_k_stereo_44KHz.wav
4	62	2	2	1	C	2	1	1001	1	Ⴉ	cut_a_stereo_44KHz.wav
4	63	3	4	2	I	2	0	767	1	Ⴕ	cut_o_stereo_44KHz.wav
4	64	1	1	1	C	2	1	750	1	Ⴒ	cut_u_stereo_44KHz.wav
4	65	3	3	2	I	2	0	1113	1	Ⴕ	cut_k_stereo_44KHz.wav
4	66	4	4	2	I	1	0	1244	1	Ⴖ	cut_o_stereo_44KHz.wav
4	67	1	1	1	C	2	1	663	1	Ⴒ	cut_u_stereo_44KHz.wav
4	68	2	1	0	C	2	0	607	0	Ⴉ	cut_u_stereo_44KHz.wav
4	69	4	3	2	I	1	0	1093	1	Ⴖ	cut_k_stereo_44KHz.wav
4	70	1	2	0	C	2	0	621	0	Ⴒ	cut_a_stereo_44KHz.wav
4	71	2	2	1	C	2	1	994	1	Ⴉ	cut_a_stereo_44KHz.wav
4	72	3	4	2	I	2	0	577	1	Ⴕ	cut_o_stereo_44KHz.wav
4	73	2	1	0	C	2	0	383	0	Ⴉ	cut_u_stereo_44KHz.wav
4	74	4	4	2	I	2	0	992	1	Ⴖ	cut_o_stereo_44KHz.wav
4	75	1	2	0	C	2	0	466	0	Ⴒ	cut_a_stereo_44KHz.wav
4	76	3	3	2	I	2	0	680	0	Ⴕ	cut_k_stereo_44KHz.wav
4	77	1	1	1	C	2	1	512	1	Ⴒ	cut_u_stereo_44KHz.wav
4	78	4	3	2	I	2	0	831	1	Ⴖ	cut_k_stereo_44KHz.wav
4	79	3	4	2	I	2	0	495	1	Ⴕ	cut_o_stereo_44KHz.wav
4	80	2	2	1	C	2	1	858	1	Ⴉ	cut_a_stereo_44KHz.wav
4	81	4	4	2	I	2	0	898	0	Ⴖ	cut_o_stereo_44KHz.wav
4	82	2	1	0	C	2	0	478	0	Ⴉ	cut_u_stereo_44KHz.wav
4	83	1	1	1	C	2	1	930	1	Ⴒ	cut_u_stereo_44KHz.wav
4	84	3	3	2	I	2	0	1455	1	Ⴕ	cut_k_stereo_44KHz.wav
4	85	1	2	0	C	2	0	495	0	Ⴒ	cut_a_stereo_44KHz.wav
4	86	4	3	2	I	2	0	1660	0	Ⴖ	cut_k_stereo_44KHz.wav
4	87	3	4	2	I	2	0	579	1	Ⴕ	cut_o_stereo_44KHz.wav
4	88	2	2	1	C	2	1	508	1	Ⴉ	cut_a_stereo_44KHz.wav
4	89	3	3	2	I	2	0	609	0	Ⴕ	cut_k_stereo_44KHz.wav
4	90	1	2	0	C	2	0	1254	0	Ⴒ	cut_a_stereo_44KHz.wav
4	91	4	4	2	I	2	0	1326	1	Ⴖ	cut_o_stereo_44KHz.wav
4	92	2	1	0	C	2	0	1331	0	Ⴉ	cut_u_stereo_44KHz.wav
4	93	1	1	1	C	2	1	1415	1	Ⴒ	cut_u_stereo_44KHz.wav
4	94	4	3	2	I	2	0	1083	1	Ⴖ	cut_k_stereo_44KHz.wav
4	95	2	2	1	C	2	1	1982	1	Ⴉ	cut_a_stereo_44KHz.wav
4	96	3	4	2	I	2	0	783	1	Ⴕ	cut_o_stereo_44KHz.wav
4	97	2	1	0	C	2	0	1031	0	Ⴉ	cut_u_stereo_44KHz.wav
4	98	4	4	2	I	2	0	859	1	Ⴖ	cut_o_stereo_44KHz.wav
4	99	1	1	1	C	2	1	557	1	Ⴒ	cut_u_stereo_44KHz.wav
4	100	3	4	2	I	2	0	1051	1	Ⴕ	cut_o_stereo_44KHz.wav
4	101	1	2	0	C	2	0	529	0	Ⴒ	cut_a_stereo_44KHz.wav
4	102	3	3	2	I	2	0	646	1	Ⴕ	cut_k_stereo_44KHz.wav
4	103	4	3	2	I	2	0	439	1	Ⴖ	cut_k_stereo_44KHz.wav
4	104	2	2	1	C	2	1	365	1	Ⴉ	cut_a_stereo_44KHz.wav
4	105	3	4	2	I	2	0	414	1	Ⴕ	cut_o_stereo_44KHz.wav
4	106	4	4	2	I	2	0	331	1	Ⴖ	cut_o_stereo_44KHz.wav
4	107	2	2	1	C	2	1	585	1	Ⴉ	cut_a_stereo_44KHz.wav
4	108	1	1	1	C	2	1	642	1	Ⴒ	cut_u_stereo_44KHz.wav
4	109	4	3	2	I	2	0	401	1	Ⴖ	cut_k_stereo_44KHz.wav
4	110	2	1	0	C	2	0	396	0	Ⴉ	cut_u_stereo_44KHz.wav
4	111	3	3	2	I	2	0	603	1	Ⴕ	cut_k_stereo_44KHz.wav
4	112	1	2	0	C	1	1	857	1	Ⴒ	cut_a_stereo_44KHz.wav
4	113	2	2	1	C	2	1	465	1	Ⴉ	cut_a_stereo_44KHz.wav
4	114	3	4	2	I	2	0	703	1	Ⴕ	cut_o_stereo_44KHz.wav
4	115	1	1	1	C	2	1	396	1	Ⴒ	cut_u_stereo_44KHz.wav
4	116	4	3	2	I	2	0	434	1	Ⴖ	cut_k_stereo_44KHz.wav
4	117	2	1	0	C	2	0	545	0	Ⴉ	cut_u_stereo_44KHz.wav
4	118	4	4	2	I	2	0	1085	0	Ⴖ	cut_o_stereo_44KHz.wav
4	119	3	3	2	I	2	0	1582	1	Ⴕ	cut_k_stereo_44KHz.wav
4	120	1	2	0	C	2	0	851	0	Ⴒ	cut_a_stereo_44KHz.wav
4	121	2	2	1	C	2	1	889	1	Ⴉ	cut_a_stereo_44KHz.wav
4	122	1	2	0	C	2	0	545	0	Ⴒ	cut_a_stereo_44KHz.wav
4	123	4	4	2	I	2	0	1714	0	Ⴖ	cut_o_stereo_44KHz.wav
4	124	3	3	2	I	2	0	358	0	Ⴕ	cut_k_stereo_44KHz.wav
4	125	4	3	2	I	2	0	694	0	Ⴖ	cut_k_stereo_44KHz.wav
4	126	2	1	0	C	2	0	796	0	Ⴉ	cut_u_stereo_44KHz.wav
4	127	3	4	2	I	2	0	997	1	Ⴕ	cut_o_stereo_44KHz.wav
4	128	1	1	1	C	2	1	986	1	Ⴒ	cut_u_stereo_44KHz.wav
4	129	4	3	2	I	2	0	489	1	Ⴖ	cut_k_stereo_44KHz.wav
4	130	2	1	0	C	2	0	606	0	Ⴉ	cut_u_stereo_44KHz.wav
4	131	3	4	2	I	2	0	844	1	Ⴕ	cut_o_stereo_44KHz.wav
4	132	1	2	0	C	1	1	1647	1	Ⴒ	cut_a_stereo_44KHz.wav
4	133	2	2	1	C	1	0	1551	0	Ⴉ	cut_a_stereo_44KHz.wav
4	134	1	1	1	C	2	1	1609	1	Ⴒ	cut_u_stereo_44KHz.wav
4	135	3	3	2	I	2	0	948	1	Ⴕ	cut_k_stereo_44KHz.wav
4	136	4	4	2	I	2	0	473	0	Ⴖ	cut_o_stereo_44KHz.wav
4	137	2	2	1	C	2	1	455	1	Ⴉ	cut_a_stereo_44KHz.wav
4	138	4	4	2	I	2	0	692	1	Ⴖ	cut_o_stereo_44KHz.wav
4	139	3	4	2	I	2	0	1458	1	Ⴕ	cut_o_stereo_44KHz.wav
4	140	1	2	0	C	2	0	807	0	Ⴒ	cut_a_stereo_44KHz.wav
4	141	4	3	2	I	2	0	883	1	Ⴖ	cut_k_stereo_44KHz.wav
4	142	2	1	0	C	2	0	918	0	Ⴉ	cut_u_stereo_44KHz.wav
4	143	3	3	2	I	0	0	0	0	Ⴕ	cut_k_stereo_44KHz.wav
4	144	1	1	1	C	2	1	521	1	Ⴒ	cut_u_stereo_44KHz.wav
4	145	3	4	2	I	2	0	737	1	Ⴕ	cut_o_stereo_44KHz.wav
4	146	4	4	2	I	2	0	535	1	Ⴖ	cut_o_stereo_44KHz.wav
4	147	1	2	0	C	2	0	484	0	Ⴒ	cut_a_stereo_44KHz.wav
4	148	2	2	1	C	2	1	833	1	Ⴉ	cut_a_stereo_44KHz.wav
4	149	1	1	1	C	2	1	604	1	Ⴒ	cut_u_stereo_44KHz.wav
4	150	3	3	2	I	2	0	799	0	Ⴕ	cut_k_stereo_44KHz.wav
4	151	2	1	0	C	2	0	728	0	Ⴉ	cut_u_stereo_44KHz.wav
4	152	4	3	2	I	2	0	1294	1	Ⴖ	cut_k_stereo_44KHz.wav
4	153	2	1	0	C	2	0	472	0	Ⴉ	cut_u_stereo_44KHz.wav
4	154	3	3	2	I	2	0	445	0	Ⴕ	cut_k_stereo_44KHz.wav
4	155	4	4	2	I	2	0	584	1	Ⴖ	cut_o_stereo_44KHz.wav
4	156	1	2	0	C	2	0	1913	0	Ⴒ	cut_a_stereo_44KHz.wav
4	157	3	4	2	I	2	0	886	1	Ⴕ	cut_o_stereo_44KHz.wav
4	158	4	3	2	I	2	0	1238	1	Ⴖ	cut_k_stereo_44KHz.wav
4	159	1	1	1	C	2	1	585	1	Ⴒ	cut_u_stereo_44KHz.wav
4	160	2	2	1	C	2	1	646	1	Ⴉ	cut_a_stereo_44KHz.wav
4	161	3	4	2	I	2	0	983	1	Ⴕ	cut_o_stereo_44KHz.wav
4	162	1	1	1	C	2	1	1234	1	Ⴒ	cut_u_stereo_44KHz.wav
4	163	2	2	1	C	2	1	648	1	Ⴉ	cut_a_stereo_44KHz.wav
4	164	4	4	2	I	1	0	1577	0	Ⴖ	cut_o_stereo_44KHz.wav
4	165	3	3	2	I	2	0	254	1	Ⴕ	cut_k_stereo_44KHz.wav
4	166	1	2	0	C	2	0	603	0	Ⴒ	cut_a_stereo_44KHz.wav
4	167	4	3	2	I	2	0	819	0	Ⴖ	cut_k_stereo_44KHz.wav
4	168	2	1	0	C	2	0	1238	0	Ⴉ	cut_u_stereo_44KHz.wav
4	169	1	2	0	C	1	1	840	1	Ⴒ	cut_a_stereo_44KHz.wav
4	170	4	3	2	I	2	0	938	1	Ⴖ	cut_k_stereo_44KHz.wav
4	171	3	4	2	I	2	0	946	1	Ⴕ	cut_o_stereo_44KHz.wav
4	172	2	1	0	C	0	0	0	0	Ⴉ	cut_u_stereo_44KHz.wav
4	173	3	3	2	I	0	0	0	0	Ⴕ	cut_k_stereo_44KHz.wav
4	174	2	2	1	C	2	1	688	1	Ⴉ	cut_a_stereo_44KHz.wav
4	175	1	1	1	C	2	1	1684	1	Ⴒ	cut_u_stereo_44KHz.wav
4	176	4	4	2	I	2	0	846	1	Ⴖ	cut_o_stereo_44KHz.wav
4	177	1	1	1	C	1	0	478	0	Ⴒ	cut_u_stereo_44KHz.wav
4	178	2	1	0	C	0	0	0	0	Ⴉ	cut_u_stereo_44KHz.wav
4	179	4	4	2	I	2	0	479	1	Ⴖ	cut_o_stereo_44KHz.wav
4	180	3	4	2	I	2	0	648	1	Ⴕ	cut_o_stereo_44KHz.wav
4	181	2	2	1	C	2	1	691	1	Ⴉ	cut_a_stereo_44KHz.wav
4	182	3	3	2	I	2	0	689	1	Ⴕ	cut_k_stereo_44KHz.wav
4	183	4	3	2	I	2	0	691	1	Ⴖ	cut_k_stereo_44KHz.wav
4	184	1	2	0	C	2	0	565	0	Ⴒ	cut_a_stereo_44KHz.wav
4	185	2	1	0	C	2	0	1063	0	Ⴉ	cut_u_stereo_44KHz.wav
4	186	3	3	2	I	2	0	789	1	Ⴕ	cut_k_stereo_44KHz.wav
4	187	1	2	0	C	1	1	991	1	Ⴒ	cut_a_stereo_44KHz.wav
4	188	4	4	2	I	2	0	1460	1	Ⴖ	cut_o_stereo_44KHz.wav
4	189	3	4	2	I	2	0	1150	0	Ⴕ	cut_o_stereo_44KHz.wav
4	190	1	1	1	C	2	1	1763	1	Ⴒ	cut_u_stereo_44KHz.wav
4	191	4	3	2	I	1	0	102	1	Ⴖ	cut_k_stereo_44KHz.wav
4	192	2	2	1	C	2	1	695	1	Ⴉ	cut_a_stereo_44KHz.wav
4	193	1	1	1	C	2	1	1402	1	Ⴒ	cut_u_stereo_44KHz.wav
4	194	2	2	1	C	2	1	1119	1	Ⴉ	cut_a_stereo_44KHz.wav
4	195	3	3	2	I	2	0	1949	1	Ⴕ	cut_k_stereo_44KHz.wav
4	196	4	3	2	I	2	0	630	1	Ⴖ	cut_k_stereo_44KHz.wav
4	197	2	1	0	C	2	0	385	0	Ⴉ	cut_u_stereo_44KHz.wav
4	198	4	4	2	I	2	0	832	1	Ⴖ	cut_o_stereo_44KHz.wav
4	199	1	2	0	C	0	0	0	0	Ⴒ	cut_a_stereo_44KHz.wav
4	200	3	4	2	I	2	0	615	0	Ⴕ	cut_o_stereo_44KHz.wav
