block	trial	Vstim	Astim	match	C/I	resp	result	RT	fb	V-file	A-file
RL

0	1	2	3	1	C	0	0	0	0	Ⴋ	cut_ee_stereo_44KHz.wav
0	2	2	4	0	C	0	0	0	0	Ⴋ	cut_eeuw_stereo_44KHz.wav
0	3	1	2	0	C	1	0	1596	0	Ⴢ	cut_g_stereo_44KHz.wav
0	4	1	1	1	C	1	1	1558	1	Ⴢ	cut_oo_stereo_44KHz.wav
0	5	2	3	1	C	2	0	1693	0	Ⴋ	cut_ee_stereo_44KHz.wav
0	6	2	4	0	C	1	0	1250	0	Ⴋ	cut_eeuw_stereo_44KHz.wav
0	7	1	2	0	C	2	1	1192	1	Ⴢ	cut_g_stereo_44KHz.wav
0	8	1	1	1	C	2	0	1010	0	Ⴢ	cut_oo_stereo_44KHz.wav
0	9	1	2	0	C	2	1	630	1	Ⴢ	cut_g_stereo_44KHz.wav
0	10	1	1	1	C	1	1	790	1	Ⴢ	cut_oo_stereo_44KHz.wav
0	11	2	3	1	C	2	0	460	0	Ⴋ	cut_ee_stereo_44KHz.wav
0	12	2	4	0	C	1	0	1938	0	Ⴋ	cut_eeuw_stereo_44KHz.wav
0	13	2	3	1	C	2	0	1481	0	Ⴋ	cut_ee_stereo_44KHz.wav
0	14	2	4	0	C	1	0	975	0	Ⴋ	cut_eeuw_stereo_44KHz.wav
0	15	1	2	0	C	2	1	1756	1	Ⴢ	cut_g_stereo_44KHz.wav
0	16	1	1	1	C	2	0	1485	0	Ⴢ	cut_oo_stereo_44KHz.wav
0	17	1	1	1	C	0	0	0	0	Ⴢ	cut_oo_stereo_44KHz.wav
0	18	1	2	0	C	2	1	1608	1	Ⴢ	cut_g_stereo_44KHz.wav
0	19	2	3	1	C	1	1	1930	1	Ⴋ	cut_ee_stereo_44KHz.wav
0	20	2	4	0	C	2	1	1717	1	Ⴋ	cut_eeuw_stereo_44KHz.wav
0	21	2	3	1	C	1	1	1456	1	Ⴋ	cut_ee_stereo_44KHz.wav
0	22	2	4	0	C	2	1	375	1	Ⴋ	cut_eeuw_stereo_44KHz.wav
0	23	1	2	0	C	1	0	794	0	Ⴢ	cut_g_stereo_44KHz.wav
0	24	1	1	1	C	2	0	573	0	Ⴢ	cut_oo_stereo_44KHz.wav
0	25	2	3	1	C	1	1	1822	1	Ⴋ	cut_ee_stereo_44KHz.wav
0	26	1	2	0	C	0	0	0	0	Ⴢ	cut_g_stereo_44KHz.wav
0	27	2	4	0	C	1	0	1261	0	Ⴋ	cut_eeuw_stereo_44KHz.wav
0	28	1	1	1	C	0	0	0	0	Ⴢ	cut_oo_stereo_44KHz.wav
0	29	2	4	0	C	1	0	752	0	Ⴋ	cut_eeuw_stereo_44KHz.wav
0	30	1	2	0	C	0	0	0	0	Ⴢ	cut_g_stereo_44KHz.wav
avg_resp = 1349
1	1	2	2	1	C	2	0	1501	0	Ⴃ	cut_a_stereo_44KHz.wav
1	2	1	2	0	C	1	0	984	0	Ⴁ	cut_a_stereo_44KHz.wav
1	3	3	3	2	I	2	0	710	1	Ⴟ	cut_o_stereo_44KHz.wav
1	4	4	4	2	I	2	0	1604	1	Ⴇ	cut_k_stereo_44KHz.wav
1	5	2	1	0	C	2	1	938	1	Ⴃ	cut_u_stereo_44KHz.wav
1	6	4	3	2	I	2	0	653	1	Ⴇ	cut_o_stereo_44KHz.wav
1	7	1	1	1	C	2	0	1027	0	Ⴁ	cut_u_stereo_44KHz.wav
1	8	3	4	2	I	2	0	583	0	Ⴟ	cut_k_stereo_44KHz.wav
1	9	4	4	2	I	1	0	920	1	Ⴇ	cut_k_stereo_44KHz.wav
1	10	2	1	0	C	1	0	1392	0	Ⴃ	cut_u_stereo_44KHz.wav
1	11	1	2	0	C	2	1	658	1	Ⴁ	cut_a_stereo_44KHz.wav
1	12	3	3	2	I	1	0	820	0	Ⴟ	cut_o_stereo_44KHz.wav
1	13	1	1	1	C	2	0	1571	0	Ⴁ	cut_u_stereo_44KHz.wav
1	14	3	4	2	I	2	0	1420	1	Ⴟ	cut_k_stereo_44KHz.wav
1	15	4	3	2	I	1	0	1149	1	Ⴇ	cut_o_stereo_44KHz.wav
1	16	2	2	1	C	2	0	928	0	Ⴃ	cut_a_stereo_44KHz.wav
1	17	1	1	1	C	2	0	805	0	Ⴁ	cut_u_stereo_44KHz.wav
1	18	3	4	2	I	2	0	1085	0	Ⴟ	cut_k_stereo_44KHz.wav
1	19	2	2	1	C	2	0	1580	0	Ⴃ	cut_a_stereo_44KHz.wav
1	20	4	4	2	I	1	0	1229	1	Ⴇ	cut_k_stereo_44KHz.wav
1	21	2	1	0	C	2	1	714	1	Ⴃ	cut_u_stereo_44KHz.wav
1	22	3	3	2	I	2	0	1426	0	Ⴟ	cut_o_stereo_44KHz.wav
1	23	1	2	0	C	2	1	1324	1	Ⴁ	cut_a_stereo_44KHz.wav
1	24	4	3	2	I	1	0	1418	1	Ⴇ	cut_o_stereo_44KHz.wav
1	25	2	1	0	C	2	1	682	1	Ⴃ	cut_u_stereo_44KHz.wav
1	26	4	4	2	I	2	0	1198	1	Ⴇ	cut_k_stereo_44KHz.wav
1	27	3	4	2	I	2	0	664	1	Ⴟ	cut_k_stereo_44KHz.wav
1	28	1	2	0	C	2	1	1015	1	Ⴁ	cut_a_stereo_44KHz.wav
1	29	4	3	2	I	2	0	1440	1	Ⴇ	cut_o_stereo_44KHz.wav
1	30	2	2	1	C	2	0	412	0	Ⴃ	cut_a_stereo_44KHz.wav
1	31	1	1	1	C	1	1	900	1	Ⴁ	cut_u_stereo_44KHz.wav
1	32	3	3	2	I	1	0	1627	1	Ⴟ	cut_o_stereo_44KHz.wav
1	33	1	2	0	C	2	1	736	1	Ⴁ	cut_a_stereo_44KHz.wav
1	34	3	4	2	I	2	0	674	0	Ⴟ	cut_k_stereo_44KHz.wav
1	35	4	3	2	I	1	0	1052	1	Ⴇ	cut_o_stereo_44KHz.wav
1	36	2	2	1	C	2	0	292	0	Ⴃ	cut_a_stereo_44KHz.wav
1	37	1	1	1	C	2	0	531	0	Ⴁ	cut_u_stereo_44KHz.wav
1	38	4	4	2	I	1	0	1506	1	Ⴇ	cut_k_stereo_44KHz.wav
1	39	2	1	0	C	0	0	0	0	Ⴃ	cut_u_stereo_44KHz.wav
1	40	3	3	2	I	0	0	0	0	Ⴟ	cut_o_stereo_44KHz.wav
1	41	4	3	2	I	1	0	445	1	Ⴇ	cut_o_stereo_44KHz.wav
1	42	1	2	0	C	2	1	785	1	Ⴁ	cut_a_stereo_44KHz.wav
1	43	2	2	1	C	2	0	235	0	Ⴃ	cut_a_stereo_44KHz.wav
1	44	3	4	2	I	1	0	421	0	Ⴟ	cut_k_stereo_44KHz.wav
1	45	4	4	2	I	0	0	0	0	Ⴇ	cut_k_stereo_44KHz.wav
1	46	1	1	1	C	1	1	1093	1	Ⴁ	cut_u_stereo_44KHz.wav
1	47	3	3	2	I	0	0	0	0	Ⴟ	cut_o_stereo_44KHz.wav
1	48	2	1	0	C	1	0	640	0	Ⴃ	cut_u_stereo_44KHz.wav
1	49	1	1	1	C	0	0	0	0	Ⴁ	cut_u_stereo_44KHz.wav
1	50	4	4	2	I	0	0	0	0	Ⴇ	cut_k_stereo_44KHz.wav
1	51	2	2	1	C	0	0	0	0	Ⴃ	cut_a_stereo_44KHz.wav
1	52	3	4	2	I	1	0	410	1	Ⴟ	cut_k_stereo_44KHz.wav
1	53	1	2	0	C	1	0	255	0	Ⴁ	cut_a_stereo_44KHz.wav
1	54	2	1	0	C	0	0	0	0	Ⴃ	cut_u_stereo_44KHz.wav
1	55	4	3	2	I	0	0	0	0	Ⴇ	cut_o_stereo_44KHz.wav
1	56	3	3	2	I	0	0	0	0	Ⴟ	cut_o_stereo_44KHz.wav
1	57	2	1	0	C	1	0	578	0	Ⴃ	cut_u_stereo_44KHz.wav
1	58	4	3	2	I	0	0	0	0	Ⴇ	cut_o_stereo_44KHz.wav
1	59	3	3	2	I	0	0	0	0	Ⴟ	cut_o_stereo_44KHz.wav
1	60	1	2	0	C	1	0	1855	0	Ⴁ	cut_a_stereo_44KHz.wav
1	61	3	4	2	I	0	0	0	0	Ⴟ	cut_k_stereo_44KHz.wav
1	62	2	2	1	C	1	1	1427	1	Ⴃ	cut_a_stereo_44KHz.wav
1	63	4	4	2	I	2	0	128	1	Ⴇ	cut_k_stereo_44KHz.wav
1	64	1	1	1	C	2	0	251	0	Ⴁ	cut_u_stereo_44KHz.wav
1	65	2	1	0	C	1	0	561	0	Ⴃ	cut_u_stereo_44KHz.wav
1	66	1	1	1	C	1	1	903	1	Ⴁ	cut_u_stereo_44KHz.wav
1	67	3	3	2	I	1	0	658	1	Ⴟ	cut_o_stereo_44KHz.wav
1	68	4	3	2	I	2	0	1154	1	Ⴇ	cut_o_stereo_44KHz.wav
1	69	2	2	1	C	1	1	636	1	Ⴃ	cut_a_stereo_44KHz.wav
1	70	1	2	0	C	1	0	963	0	Ⴁ	cut_a_stereo_44KHz.wav
1	71	3	4	2	I	2	0	500	1	Ⴟ	cut_k_stereo_44KHz.wav
1	72	4	4	2	I	2	0	892	1	Ⴇ	cut_k_stereo_44KHz.wav
1	73	2	2	1	C	1	1	695	1	Ⴃ	cut_a_stereo_44KHz.wav
1	74	4	4	2	I	2	0	358	1	Ⴇ	cut_k_stereo_44KHz.wav
1	75	3	3	2	I	1	0	1614	1	Ⴟ	cut_o_stereo_44KHz.wav
1	76	1	1	1	C	2	0	426	0	Ⴁ	cut_u_stereo_44KHz.wav
1	77	3	4	2	I	1	0	844	0	Ⴟ	cut_k_stereo_44KHz.wav
1	78	2	1	0	C	1	0	760	0	Ⴃ	cut_u_stereo_44KHz.wav
1	79	4	3	2	I	2	0	214	1	Ⴇ	cut_o_stereo_44KHz.wav
1	80	1	2	0	C	2	1	391	1	Ⴁ	cut_a_stereo_44KHz.wav
1	81	2	1	0	C	2	1	1056	1	Ⴃ	cut_u_stereo_44KHz.wav
1	82	3	4	2	I	2	0	367	1	Ⴟ	cut_k_stereo_44KHz.wav
1	83	1	2	0	C	1	0	419	0	Ⴁ	cut_a_stereo_44KHz.wav
1	84	4	4	2	I	2	0	454	0	Ⴇ	cut_k_stereo_44KHz.wav
1	85	2	2	1	C	1	1	1611	1	Ⴃ	cut_a_stereo_44KHz.wav
1	86	3	3	2	I	2	0	1036	1	Ⴟ	cut_o_stereo_44KHz.wav
1	87	1	1	1	C	2	0	797	0	Ⴁ	cut_u_stereo_44KHz.wav
1	88	4	3	2	I	1	0	888	1	Ⴇ	cut_o_stereo_44KHz.wav
1	89	3	4	2	I	1	0	1014	1	Ⴟ	cut_k_stereo_44KHz.wav
1	90	1	2	0	C	2	1	674	1	Ⴁ	cut_a_stereo_44KHz.wav
1	91	2	1	0	C	2	1	712	1	Ⴃ	cut_u_stereo_44KHz.wav
1	92	4	4	2	I	2	0	379	1	Ⴇ	cut_k_stereo_44KHz.wav
1	93	2	2	1	C	2	0	444	0	Ⴃ	cut_a_stereo_44KHz.wav
1	94	1	1	1	C	2	0	36	0	Ⴁ	cut_u_stereo_44KHz.wav
1	95	3	3	2	I	1	0	774	1	Ⴟ	cut_o_stereo_44KHz.wav
1	96	4	3	2	I	2	0	1121	1	Ⴇ	cut_o_stereo_44KHz.wav
1	97	1	2	0	C	2	1	740	1	Ⴁ	cut_a_stereo_44KHz.wav
1	98	3	4	2	I	2	0	1002	1	Ⴟ	cut_k_stereo_44KHz.wav
1	99	2	2	1	C	2	0	532	0	Ⴃ	cut_a_stereo_44KHz.wav
1	100	4	3	2	I	2	0	602	1	Ⴇ	cut_o_stereo_44KHz.wav
1	101	3	3	2	I	2	0	729	1	Ⴟ	cut_o_stereo_44KHz.wav
1	102	2	1	0	C	2	1	627	1	Ⴃ	cut_u_stereo_44KHz.wav
1	103	4	4	2	I	2	0	838	0	Ⴇ	cut_k_stereo_44KHz.wav
1	104	1	1	1	C	2	0	872	0	Ⴁ	cut_u_stereo_44KHz.wav
1	105	4	3	2	I	2	0	712	1	Ⴇ	cut_o_stereo_44KHz.wav
1	106	2	1	0	C	2	1	496	1	Ⴃ	cut_u_stereo_44KHz.wav
1	107	1	2	0	C	2	1	504	1	Ⴁ	cut_a_stereo_44KHz.wav
1	108	3	4	2	I	2	0	561	1	Ⴟ	cut_k_stereo_44KHz.wav
1	109	4	4	2	I	0	0	0	0	Ⴇ	cut_k_stereo_44KHz.wav
1	110	1	1	1	C	2	0	1500	0	Ⴁ	cut_u_stereo_44KHz.wav
1	111	3	3	2	I	1	0	550	1	Ⴟ	cut_o_stereo_44KHz.wav
1	112	2	2	1	C	1	1	499	1	Ⴃ	cut_a_stereo_44KHz.wav
1	113	3	3	2	I	2	0	606	0	Ⴟ	cut_o_stereo_44KHz.wav
1	114	1	1	1	C	1	1	735	1	Ⴁ	cut_u_stereo_44KHz.wav
1	115	4	4	2	I	1	0	894	1	Ⴇ	cut_k_stereo_44KHz.wav
1	116	2	2	1	C	2	0	1916	0	Ⴃ	cut_a_stereo_44KHz.wav
1	117	3	4	2	I	1	0	1544	1	Ⴟ	cut_k_stereo_44KHz.wav
1	118	2	1	0	C	2	1	662	1	Ⴃ	cut_u_stereo_44KHz.wav
1	119	4	3	2	I	1	0	645	1	Ⴇ	cut_o_stereo_44KHz.wav
1	120	1	2	0	C	2	1	588	1	Ⴁ	cut_a_stereo_44KHz.wav
1	121	2	2	1	C	2	0	700	0	Ⴃ	cut_a_stereo_44KHz.wav
1	122	1	1	1	C	2	0	605	0	Ⴁ	cut_u_stereo_44KHz.wav
1	123	3	4	2	I	0	0	0	0	Ⴟ	cut_k_stereo_44KHz.wav
1	124	4	3	2	I	2	0	431	1	Ⴇ	cut_o_stereo_44KHz.wav
1	125	3	3	2	I	2	0	523	1	Ⴟ	cut_o_stereo_44KHz.wav
1	126	4	4	2	I	2	0	842	0	Ⴇ	cut_k_stereo_44KHz.wav
1	127	2	1	0	C	1	0	128	0	Ⴃ	cut_u_stereo_44KHz.wav
1	128	1	2	0	C	2	1	509	1	Ⴁ	cut_a_stereo_44KHz.wav
1	129	3	3	2	I	2	0	471	1	Ⴟ	cut_o_stereo_44KHz.wav
1	130	4	4	2	I	2	0	355	1	Ⴇ	cut_k_stereo_44KHz.wav
1	131	2	2	1	C	2	0	692	0	Ⴃ	cut_a_stereo_44KHz.wav
1	132	1	1	1	C	2	0	714	0	Ⴁ	cut_u_stereo_44KHz.wav
1	133	2	1	0	C	1	0	1702	0	Ⴃ	cut_u_stereo_44KHz.wav
1	134	4	3	2	I	2	0	475	1	Ⴇ	cut_o_stereo_44KHz.wav
1	135	1	2	0	C	2	1	584	1	Ⴁ	cut_a_stereo_44KHz.wav
1	136	3	4	2	I	2	0	1144	1	Ⴟ	cut_k_stereo_44KHz.wav
1	137	2	1	0	C	2	1	811	1	Ⴃ	cut_u_stereo_44KHz.wav
1	138	4	4	2	I	1	0	484	1	Ⴇ	cut_k_stereo_44KHz.wav
1	139	3	3	2	I	2	0	172	1	Ⴟ	cut_o_stereo_44KHz.wav
1	140	1	1	1	C	2	0	503	0	Ⴁ	cut_u_stereo_44KHz.wav
1	141	2	2	1	C	2	0	617	0	Ⴃ	cut_a_stereo_44KHz.wav
1	142	3	4	2	I	2	0	526	1	Ⴟ	cut_k_stereo_44KHz.wav
1	143	4	3	2	I	2	0	606	1	Ⴇ	cut_o_stereo_44KHz.wav
1	144	1	2	0	C	2	1	554	1	Ⴁ	cut_a_stereo_44KHz.wav
1	145	2	2	1	C	2	0	619	0	Ⴃ	cut_a_stereo_44KHz.wav
1	146	1	1	1	C	1	1	531	1	Ⴁ	cut_u_stereo_44KHz.wav
1	147	4	3	2	I	2	0	961	0	Ⴇ	cut_o_stereo_44KHz.wav
1	148	3	4	2	I	1	0	881	1	Ⴟ	cut_k_stereo_44KHz.wav
1	149	2	1	0	C	2	1	1535	1	Ⴃ	cut_u_stereo_44KHz.wav
1	150	4	4	2	I	2	0	491	1	Ⴇ	cut_k_stereo_44KHz.wav
1	151	3	3	2	I	2	0	1058	1	Ⴟ	cut_o_stereo_44KHz.wav
1	152	1	2	0	C	0	0	0	0	Ⴁ	cut_a_stereo_44KHz.wav
1	153	2	2	1	C	2	0	276	0	Ⴃ	cut_a_stereo_44KHz.wav
1	154	1	2	0	C	2	1	783	1	Ⴁ	cut_a_stereo_44KHz.wav
1	155	3	4	2	I	2	0	1066	1	Ⴟ	cut_k_stereo_44KHz.wav
1	156	4	4	2	I	2	0	376	0	Ⴇ	cut_k_stereo_44KHz.wav
1	157	1	1	1	C	1	1	501	1	Ⴁ	cut_u_stereo_44KHz.wav
1	158	3	3	2	I	2	0	595	1	Ⴟ	cut_o_stereo_44KHz.wav
1	159	2	1	0	C	2	1	672	1	Ⴃ	cut_u_stereo_44KHz.wav
1	160	4	3	2	I	1	0	1260	0	Ⴇ	cut_o_stereo_44KHz.wav
1	161	1	1	1	C	2	0	362	0	Ⴁ	cut_u_stereo_44KHz.wav
1	162	4	4	2	I	2	0	434	1	Ⴇ	cut_k_stereo_44KHz.wav
1	163	3	3	2	I	0	0	0	0	Ⴟ	cut_o_stereo_44KHz.wav
1	164	2	2	1	C	2	0	1524	0	Ⴃ	cut_a_stereo_44KHz.wav
1	165	4	3	2	I	1	0	589	1	Ⴇ	cut_o_stereo_44KHz.wav
1	166	1	2	0	C	2	1	921	1	Ⴁ	cut_a_stereo_44KHz.wav
1	167	2	1	0	C	2	1	628	1	Ⴃ	cut_u_stereo_44KHz.wav
1	168	3	4	2	I	2	0	677	1	Ⴟ	cut_k_stereo_44KHz.wav
1	169	1	2	0	C	2	1	617	1	Ⴁ	cut_a_stereo_44KHz.wav
1	170	4	3	2	I	0	0	0	0	Ⴇ	cut_o_stereo_44KHz.wav
1	171	2	1	0	C	2	1	542	1	Ⴃ	cut_u_stereo_44KHz.wav
1	172	3	4	2	I	2	0	556	1	Ⴟ	cut_k_stereo_44KHz.wav
1	173	4	4	2	I	2	0	540	1	Ⴇ	cut_k_stereo_44KHz.wav
1	174	2	2	1	C	2	0	516	0	Ⴃ	cut_a_stereo_44KHz.wav
1	175	3	3	2	I	1	0	696	1	Ⴟ	cut_o_stereo_44KHz.wav
1	176	1	1	1	C	1	1	1429	1	Ⴁ	cut_u_stereo_44KHz.wav
1	177	4	3	2	I	1	0	439	1	Ⴇ	cut_o_stereo_44KHz.wav
1	178	2	2	1	C	0	0	0	0	Ⴃ	cut_a_stereo_44KHz.wav
1	179	3	3	2	I	2	0	1737	1	Ⴟ	cut_o_stereo_44KHz.wav
1	180	1	2	0	C	2	1	491	1	Ⴁ	cut_a_stereo_44KHz.wav
1	181	3	4	2	I	2	0	733	1	Ⴟ	cut_k_stereo_44KHz.wav
1	182	1	1	1	C	2	0	1072	0	Ⴁ	cut_u_stereo_44KHz.wav
1	183	2	1	0	C	2	1	649	1	Ⴃ	cut_u_stereo_44KHz.wav
1	184	4	4	2	I	0	0	0	0	Ⴇ	cut_k_stereo_44KHz.wav
1	185	3	3	2	I	2	0	500	1	Ⴟ	cut_o_stereo_44KHz.wav
1	186	1	1	1	C	1	1	531	1	Ⴁ	cut_u_stereo_44KHz.wav
1	187	2	1	0	C	2	1	501	1	Ⴃ	cut_u_stereo_44KHz.wav
1	188	4	4	2	I	2	0	872	1	Ⴇ	cut_k_stereo_44KHz.wav
1	189	3	4	2	I	1	0	692	1	Ⴟ	cut_k_stereo_44KHz.wav
1	190	4	3	2	I	1	0	910	1	Ⴇ	cut_o_stereo_44KHz.wav
1	191	2	2	1	C	2	0	729	0	Ⴃ	cut_a_stereo_44KHz.wav
1	192	1	2	0	C	1	0	654	0	Ⴁ	cut_a_stereo_44KHz.wav
1	193	3	4	2	I	2	0	1202	1	Ⴟ	cut_k_stereo_44KHz.wav
1	194	2	1	0	C	2	1	506	1	Ⴃ	cut_u_stereo_44KHz.wav
1	195	4	3	2	I	2	0	544	0	Ⴇ	cut_o_stereo_44KHz.wav
1	196	1	1	1	C	1	1	392	1	Ⴁ	cut_u_stereo_44KHz.wav
1	197	3	3	2	I	1	0	415	1	Ⴟ	cut_o_stereo_44KHz.wav
1	198	2	2	1	C	1	1	528	1	Ⴃ	cut_a_stereo_44KHz.wav
1	199	1	2	0	C	1	0	1004	0	Ⴁ	cut_a_stereo_44KHz.wav
1	200	4	4	2	I	2	0	177	1	Ⴇ	cut_k_stereo_44KHz.wav
2	1	1	2	0	C	2	1	751	1	Ⴊ	cut_w_stereo_44KHz.wav
2	2	2	2	1	C	2	0	573	0	Ⴜ	cut_w_stereo_44KHz.wav
2	3	3	4	2	I	1	0	799	1	Ⴡ	cut_h_stereo_44KHz.wav
2	4	4	3	2	I	2	0	1267	1	Ⴂ	cut_g_stereo_44KHz.wav
2	5	2	1	0	C	2	1	743	1	Ⴜ	cut_l_stereo_44KHz.wav
2	6	1	1	1	C	2	0	515	0	Ⴊ	cut_l_stereo_44KHz.wav
2	7	4	4	2	I	1	0	1251	1	Ⴂ	cut_h_stereo_44KHz.wav
2	8	3	3	2	I	1	0	583	0	Ⴡ	cut_g_stereo_44KHz.wav
2	9	2	2	1	C	2	0	825	0	Ⴜ	cut_w_stereo_44KHz.wav
2	10	1	2	0	C	1	0	420	0	Ⴊ	cut_w_stereo_44KHz.wav
2	11	4	3	2	I	2	0	395	1	Ⴂ	cut_g_stereo_44KHz.wav
2	12	3	4	2	I	2	0	391	1	Ⴡ	cut_h_stereo_44KHz.wav
2	13	2	1	0	C	2	1	363	1	Ⴜ	cut_l_stereo_44KHz.wav
2	14	3	3	2	I	2	0	716	1	Ⴡ	cut_g_stereo_44KHz.wav
2	15	4	4	2	I	2	0	429	1	Ⴂ	cut_h_stereo_44KHz.wav
2	16	1	1	1	C	2	0	476	0	Ⴊ	cut_l_stereo_44KHz.wav
2	17	4	4	2	I	2	0	955	1	Ⴂ	cut_h_stereo_44KHz.wav
2	18	2	2	1	C	2	0	514	0	Ⴜ	cut_w_stereo_44KHz.wav
2	19	1	1	1	C	2	0	428	0	Ⴊ	cut_l_stereo_44KHz.wav
2	20	3	4	2	I	0	0	0	0	Ⴡ	cut_h_stereo_44KHz.wav
2	21	4	3	2	I	1	0	545	0	Ⴂ	cut_g_stereo_44KHz.wav
2	22	3	3	2	I	2	0	423	1	Ⴡ	cut_g_stereo_44KHz.wav
2	23	1	2	0	C	2	1	377	1	Ⴊ	cut_w_stereo_44KHz.wav
2	24	2	1	0	C	1	0	917	0	Ⴜ	cut_l_stereo_44KHz.wav
2	25	4	4	2	I	2	0	385	1	Ⴂ	cut_h_stereo_44KHz.wav
2	26	3	4	2	I	1	0	585	1	Ⴡ	cut_h_stereo_44KHz.wav
2	27	2	2	1	C	2	0	520	0	Ⴜ	cut_w_stereo_44KHz.wav
2	28	1	1	1	C	2	0	586	0	Ⴊ	cut_l_stereo_44KHz.wav
2	29	2	1	0	C	1	0	731	0	Ⴜ	cut_l_stereo_44KHz.wav
2	30	3	3	2	I	1	0	1212	1	Ⴡ	cut_g_stereo_44KHz.wav
2	31	1	2	0	C	2	1	979	1	Ⴊ	cut_w_stereo_44KHz.wav
2	32	4	3	2	I	2	0	351	1	Ⴂ	cut_g_stereo_44KHz.wav
2	33	1	1	1	C	2	0	510	0	Ⴊ	cut_l_stereo_44KHz.wav
2	34	3	3	2	I	2	0	711	1	Ⴡ	cut_g_stereo_44KHz.wav
2	35	4	3	2	I	2	0	441	1	Ⴂ	cut_g_stereo_44KHz.wav
2	36	2	2	1	C	2	0	1677	0	Ⴜ	cut_w_stereo_44KHz.wav
2	37	3	4	2	I	2	0	1277	1	Ⴡ	cut_h_stereo_44KHz.wav
2	38	4	4	2	I	2	0	510	0	Ⴂ	cut_h_stereo_44KHz.wav
2	39	2	1	0	C	2	1	846	1	Ⴜ	cut_l_stereo_44KHz.wav
2	40	1	2	0	C	1	0	565	0	Ⴊ	cut_w_stereo_44KHz.wav
2	41	4	3	2	I	1	0	826	1	Ⴂ	cut_g_stereo_44KHz.wav
2	42	2	2	1	C	2	0	1071	0	Ⴜ	cut_w_stereo_44KHz.wav
2	43	3	3	2	I	2	0	528	1	Ⴡ	cut_g_stereo_44KHz.wav
2	44	1	1	1	C	2	0	719	0	Ⴊ	cut_l_stereo_44KHz.wav
2	45	4	4	2	I	2	0	884	0	Ⴂ	cut_h_stereo_44KHz.wav
2	46	3	4	2	I	1	0	807	0	Ⴡ	cut_h_stereo_44KHz.wav
2	47	2	1	0	C	1	0	457	0	Ⴜ	cut_l_stereo_44KHz.wav
2	48	1	2	0	C	2	1	49	1	Ⴊ	cut_w_stereo_44KHz.wav
2	49	2	2	1	C	2	0	156	0	Ⴜ	cut_w_stereo_44KHz.wav
2	50	4	4	2	I	1	0	355	1	Ⴂ	cut_h_stereo_44KHz.wav
2	51	3	3	2	I	0	0	0	0	Ⴡ	cut_g_stereo_44KHz.wav
2	52	1	2	0	C	2	1	853	1	Ⴊ	cut_w_stereo_44KHz.wav
2	53	4	3	2	I	2	0	541	1	Ⴂ	cut_g_stereo_44KHz.wav
2	54	2	1	0	C	2	1	919	1	Ⴜ	cut_l_stereo_44KHz.wav
2	55	3	4	2	I	2	0	764	0	Ⴡ	cut_h_stereo_44KHz.wav
2	56	1	1	1	C	2	0	677	0	Ⴊ	cut_l_stereo_44KHz.wav
2	57	3	4	2	I	2	0	495	1	Ⴡ	cut_h_stereo_44KHz.wav
2	58	4	4	2	I	2	0	887	1	Ⴂ	cut_h_stereo_44KHz.wav
2	59	2	1	0	C	2	1	860	1	Ⴜ	cut_l_stereo_44KHz.wav
2	60	1	1	1	C	2	0	941	0	Ⴊ	cut_l_stereo_44KHz.wav
2	61	2	2	1	C	2	0	359	0	Ⴜ	cut_w_stereo_44KHz.wav
2	62	4	3	2	I	1	0	750	1	Ⴂ	cut_g_stereo_44KHz.wav
2	63	3	3	2	I	2	0	827	1	Ⴡ	cut_g_stereo_44KHz.wav
2	64	1	2	0	C	1	0	1525	0	Ⴊ	cut_w_stereo_44KHz.wav
2	65	3	4	2	I	2	0	927	1	Ⴡ	cut_h_stereo_44KHz.wav
2	66	4	4	2	I	2	0	691	1	Ⴂ	cut_h_stereo_44KHz.wav
2	67	2	1	0	C	1	0	364	0	Ⴜ	cut_l_stereo_44KHz.wav
2	68	1	2	0	C	2	1	670	1	Ⴊ	cut_w_stereo_44KHz.wav
2	69	3	3	2	I	2	0	751	1	Ⴡ	cut_g_stereo_44KHz.wav
2	70	1	1	1	C	0	0	0	0	Ⴊ	cut_l_stereo_44KHz.wav
2	71	2	2	1	C	2	0	691	0	Ⴜ	cut_w_stereo_44KHz.wav
2	72	4	3	2	I	2	0	868	1	Ⴂ	cut_g_stereo_44KHz.wav
2	73	2	1	0	C	2	1	529	1	Ⴜ	cut_l_stereo_44KHz.wav
2	74	1	2	0	C	2	1	1569	1	Ⴊ	cut_w_stereo_44KHz.wav
2	75	4	3	2	I	2	0	72	1	Ⴂ	cut_g_stereo_44KHz.wav
2	76	3	3	2	I	2	0	1024	1	Ⴡ	cut_g_stereo_44KHz.wav
2	77	4	4	2	I	0	0	0	0	Ⴂ	cut_h_stereo_44KHz.wav
2	78	2	2	1	C	0	0	0	0	Ⴜ	cut_w_stereo_44KHz.wav
2	79	3	4	2	I	2	0	927	1	Ⴡ	cut_h_stereo_44KHz.wav
2	80	1	1	1	C	2	0	406	0	Ⴊ	cut_l_stereo_44KHz.wav
2	81	2	1	0	C	2	1	434	1	Ⴜ	cut_l_stereo_44KHz.wav
2	82	1	1	1	C	2	0	515	0	Ⴊ	cut_l_stereo_44KHz.wav
2	83	3	3	2	I	1	0	406	1	Ⴡ	cut_g_stereo_44KHz.wav
2	84	4	3	2	I	2	0	664	0	Ⴂ	cut_g_stereo_44KHz.wav
2	85	3	4	2	I	2	0	930	1	Ⴡ	cut_h_stereo_44KHz.wav
2	86	4	4	2	I	2	0	870	1	Ⴂ	cut_h_stereo_44KHz.wav
2	87	2	2	1	C	2	0	431	0	Ⴜ	cut_w_stereo_44KHz.wav
2	88	1	2	0	C	1	0	1279	0	Ⴊ	cut_w_stereo_44KHz.wav
2	89	3	4	2	I	2	0	1380	1	Ⴡ	cut_h_stereo_44KHz.wav
2	90	1	1	1	C	2	0	1550	0	Ⴊ	cut_l_stereo_44KHz.wav
2	91	4	4	2	I	2	0	823	1	Ⴂ	cut_h_stereo_44KHz.wav
2	92	2	1	0	C	2	1	766	1	Ⴜ	cut_l_stereo_44KHz.wav
2	93	4	3	2	I	2	0	833	1	Ⴂ	cut_g_stereo_44KHz.wav
2	94	2	2	1	C	2	0	1306	0	Ⴜ	cut_w_stereo_44KHz.wav
2	95	1	2	0	C	2	1	635	1	Ⴊ	cut_w_stereo_44KHz.wav
2	96	3	3	2	I	2	0	705	0	Ⴡ	cut_g_stereo_44KHz.wav
2	97	4	4	2	I	2	0	823	1	Ⴂ	cut_h_stereo_44KHz.wav
2	98	2	2	1	C	2	0	1209	0	Ⴜ	cut_w_stereo_44KHz.wav
2	99	1	2	0	C	2	1	732	1	Ⴊ	cut_w_stereo_44KHz.wav
2	100	3	3	2	I	2	0	1543	0	Ⴡ	cut_g_stereo_44KHz.wav
2	101	2	1	0	C	2	1	1350	1	Ⴜ	cut_l_stereo_44KHz.wav
2	102	3	4	2	I	2	0	538	1	Ⴡ	cut_h_stereo_44KHz.wav
2	103	4	3	2	I	2	0	928	1	Ⴂ	cut_g_stereo_44KHz.wav
2	104	1	1	1	C	2	0	976	0	Ⴊ	cut_l_stereo_44KHz.wav
2	105	3	3	2	I	2	0	1442	1	Ⴡ	cut_g_stereo_44KHz.wav
2	106	2	2	1	C	2	0	1068	0	Ⴜ	cut_w_stereo_44KHz.wav
2	107	4	3	2	I	2	0	1024	1	Ⴂ	cut_g_stereo_44KHz.wav
2	108	1	2	0	C	2	1	901	1	Ⴊ	cut_w_stereo_44KHz.wav
2	109	3	4	2	I	2	0	834	1	Ⴡ	cut_h_stereo_44KHz.wav
2	110	4	4	2	I	2	0	601	0	Ⴂ	cut_h_stereo_44KHz.wav
2	111	2	1	0	C	2	1	528	1	Ⴜ	cut_l_stereo_44KHz.wav
2	112	1	1	1	C	2	0	383	0	Ⴊ	cut_l_stereo_44KHz.wav
2	113	4	4	2	I	0	0	0	0	Ⴂ	cut_h_stereo_44KHz.wav
2	114	3	4	2	I	2	0	793	0	Ⴡ	cut_h_stereo_44KHz.wav
2	115	1	1	1	C	2	0	706	0	Ⴊ	cut_l_stereo_44KHz.wav
2	116	2	1	0	C	2	1	993	1	Ⴜ	cut_l_stereo_44KHz.wav
2	117	1	2	0	C	0	0	0	0	Ⴊ	cut_w_stereo_44KHz.wav
2	118	4	3	2	I	2	0	930	1	Ⴂ	cut_g_stereo_44KHz.wav
2	119	3	3	2	I	2	0	1030	0	Ⴡ	cut_g_stereo_44KHz.wav
2	120	2	2	1	C	2	0	187	0	Ⴜ	cut_w_stereo_44KHz.wav
2	121	1	2	0	C	2	1	1187	1	Ⴊ	cut_w_stereo_44KHz.wav
2	122	3	4	2	I	1	0	1434	1	Ⴡ	cut_h_stereo_44KHz.wav
2	123	4	4	2	I	2	0	1438	1	Ⴂ	cut_h_stereo_44KHz.wav
2	124	2	1	0	C	1	0	780	0	Ⴜ	cut_l_stereo_44KHz.wav
2	125	3	3	2	I	2	0	474	0	Ⴡ	cut_g_stereo_44KHz.wav
2	126	1	1	1	C	2	0	169	0	Ⴊ	cut_l_stereo_44KHz.wav
2	127	2	2	1	C	2	0	1130	0	Ⴜ	cut_w_stereo_44KHz.wav
2	128	4	3	2	I	0	0	0	0	Ⴂ	cut_g_stereo_44KHz.wav
2	129	2	2	1	C	2	0	762	0	Ⴜ	cut_w_stereo_44KHz.wav
2	130	3	4	2	I	2	0	1745	1	Ⴡ	cut_h_stereo_44KHz.wav
2	131	1	1	1	C	2	0	943	0	Ⴊ	cut_l_stereo_44KHz.wav
2	132	4	4	2	I	1	0	1657	1	Ⴂ	cut_h_stereo_44KHz.wav
2	133	1	2	0	C	2	1	1001	1	Ⴊ	cut_w_stereo_44KHz.wav
2	134	3	3	2	I	2	0	854	1	Ⴡ	cut_g_stereo_44KHz.wav
2	135	2	1	0	C	1	0	320	0	Ⴜ	cut_l_stereo_44KHz.wav
2	136	4	3	2	I	2	0	771	1	Ⴂ	cut_g_stereo_44KHz.wav
2	137	1	1	1	C	2	0	606	0	Ⴊ	cut_l_stereo_44KHz.wav
2	138	3	4	2	I	0	0	0	0	Ⴡ	cut_h_stereo_44KHz.wav
2	139	2	2	1	C	2	0	26	0	Ⴜ	cut_w_stereo_44KHz.wav
2	140	4	4	2	I	1	0	465	1	Ⴂ	cut_h_stereo_44KHz.wav
2	141	3	3	2	I	1	0	325	1	Ⴡ	cut_g_stereo_44KHz.wav
2	142	2	1	0	C	2	1	883	1	Ⴜ	cut_l_stereo_44KHz.wav
2	143	1	2	0	C	1	0	689	0	Ⴊ	cut_w_stereo_44KHz.wav
2	144	4	3	2	I	2	0	355	1	Ⴂ	cut_g_stereo_44KHz.wav
2	145	1	2	0	C	2	1	1011	1	Ⴊ	cut_w_stereo_44KHz.wav
2	146	3	4	2	I	2	0	1170	1	Ⴡ	cut_h_stereo_44KHz.wav
2	147	4	4	2	I	2	0	757	1	Ⴂ	cut_h_stereo_44KHz.wav
2	148	2	1	0	C	2	1	857	1	Ⴜ	cut_l_stereo_44KHz.wav
2	149	4	3	2	I	2	0	885	1	Ⴂ	cut_g_stereo_44KHz.wav
2	150	2	2	1	C	2	0	1102	0	Ⴜ	cut_w_stereo_44KHz.wav
2	151	3	3	2	I	2	0	437	1	Ⴡ	cut_g_stereo_44KHz.wav
2	152	1	1	1	C	2	0	282	0	Ⴊ	cut_l_stereo_44KHz.wav
2	153	3	4	2	I	2	0	404	1	Ⴡ	cut_h_stereo_44KHz.wav
2	154	2	2	1	C	1	1	904	1	Ⴜ	cut_w_stereo_44KHz.wav
2	155	1	1	1	C	1	1	783	1	Ⴊ	cut_l_stereo_44KHz.wav
2	156	4	4	2	I	2	0	1183	0	Ⴂ	cut_h_stereo_44KHz.wav
2	157	2	1	0	C	1	0	579	0	Ⴜ	cut_l_stereo_44KHz.wav
2	158	1	2	0	C	1	0	597	0	Ⴊ	cut_w_stereo_44KHz.wav
2	159	3	3	2	I	1	0	919	1	Ⴡ	cut_g_stereo_44KHz.wav
2	160	4	3	2	I	1	0	753	0	Ⴂ	cut_g_stereo_44KHz.wav
2	161	1	1	1	C	0	0	0	0	Ⴊ	cut_l_stereo_44KHz.wav
2	162	4	3	2	I	0	0	0	0	Ⴂ	cut_g_stereo_44KHz.wav
2	163	3	3	2	I	2	0	1093	1	Ⴡ	cut_g_stereo_44KHz.wav
2	164	2	2	1	C	0	0	0	0	Ⴜ	cut_w_stereo_44KHz.wav
2	165	3	4	2	I	2	0	649	1	Ⴡ	cut_h_stereo_44KHz.wav
2	166	1	2	0	C	2	1	1836	1	Ⴊ	cut_w_stereo_44KHz.wav
2	167	4	4	2	I	2	0	1871	1	Ⴂ	cut_h_stereo_44KHz.wav
2	168	2	1	0	C	2	1	1037	1	Ⴜ	cut_l_stereo_44KHz.wav
2	169	1	2	0	C	0	0	0	0	Ⴊ	cut_w_stereo_44KHz.wav
2	170	2	2	1	C	2	0	1198	0	Ⴜ	cut_w_stereo_44KHz.wav
2	171	4	3	2	I	2	0	757	1	Ⴂ	cut_g_stereo_44KHz.wav
2	172	3	4	2	I	2	0	1025	1	Ⴡ	cut_h_stereo_44KHz.wav
2	173	1	1	1	C	2	0	667	0	Ⴊ	cut_l_stereo_44KHz.wav
2	174	2	1	0	C	2	1	1062	1	Ⴜ	cut_l_stereo_44KHz.wav
2	175	3	3	2	I	2	0	340	1	Ⴡ	cut_g_stereo_44KHz.wav
2	176	4	4	2	I	2	0	520	1	Ⴂ	cut_h_stereo_44KHz.wav
2	177	2	1	0	C	2	1	735	1	Ⴜ	cut_l_stereo_44KHz.wav
2	178	1	1	1	C	2	0	1806	0	Ⴊ	cut_l_stereo_44KHz.wav
2	179	4	3	2	I	1	0	654	1	Ⴂ	cut_g_stereo_44KHz.wav
2	180	3	3	2	I	2	0	638	1	Ⴡ	cut_g_stereo_44KHz.wav
2	181	4	4	2	I	2	0	1364	1	Ⴂ	cut_h_stereo_44KHz.wav
2	182	1	2	0	C	2	1	432	1	Ⴊ	cut_w_stereo_44KHz.wav
2	183	3	4	2	I	2	0	174	1	Ⴡ	cut_h_stereo_44KHz.wav
2	184	2	2	1	C	0	0	0	0	Ⴜ	cut_w_stereo_44KHz.wav
2	185	4	4	2	I	1	0	156	0	Ⴂ	cut_h_stereo_44KHz.wav
2	186	3	3	2	I	2	0	783	1	Ⴡ	cut_g_stereo_44KHz.wav
2	187	2	1	0	C	2	1	144	1	Ⴜ	cut_l_stereo_44KHz.wav
2	188	1	2	0	C	2	1	1232	1	Ⴊ	cut_w_stereo_44KHz.wav
2	189	2	2	1	C	2	0	484	0	Ⴜ	cut_w_stereo_44KHz.wav
2	190	4	3	2	I	2	0	819	0	Ⴂ	cut_g_stereo_44KHz.wav
2	191	3	4	2	I	2	0	1045	1	Ⴡ	cut_h_stereo_44KHz.wav
2	192	1	1	1	C	2	0	1118	0	Ⴊ	cut_l_stereo_44KHz.wav
2	193	2	1	0	C	2	1	643	1	Ⴜ	cut_l_stereo_44KHz.wav
2	194	1	1	1	C	2	0	650	0	Ⴊ	cut_l_stereo_44KHz.wav
2	195	4	3	2	I	2	0	304	1	Ⴂ	cut_g_stereo_44KHz.wav
2	196	3	4	2	I	2	0	600	1	Ⴡ	cut_h_stereo_44KHz.wav
2	197	4	4	2	I	2	0	1179	0	Ⴂ	cut_h_stereo_44KHz.wav
2	198	3	3	2	I	2	0	683	0	Ⴡ	cut_g_stereo_44KHz.wav
2	199	1	2	0	C	2	1	548	1	Ⴊ	cut_w_stereo_44KHz.wav
2	200	2	2	1	C	2	0	730	0	Ⴜ	cut_w_stereo_44KHz.wav
3	1	2	1	0	C	2	1	597	1	Ⴒ	cut_f_stereo_44KHz.wav
3	2	1	2	0	C	2	1	396	1	Ⴐ	cut_r_stereo_44KHz.wav
3	3	3	4	2	I	2	0	395	1	Ⴔ	cut_s_stereo_44KHz.wav
3	4	4	4	2	I	2	0	563	0	Ⴉ	cut_s_stereo_44KHz.wav
3	5	2	2	1	C	1	1	1128	1	Ⴒ	cut_r_stereo_44KHz.wav
3	6	1	1	1	C	2	0	678	0	Ⴐ	cut_f_stereo_44KHz.wav
3	7	4	3	2	I	1	0	643	1	Ⴉ	cut_j_stereo_44KHz.wav
3	8	3	3	2	I	2	0	1110	1	Ⴔ	cut_j_stereo_44KHz.wav
3	9	1	2	0	C	2	1	517	1	Ⴐ	cut_r_stereo_44KHz.wav
3	10	3	3	2	I	2	0	959	0	Ⴔ	cut_j_stereo_44KHz.wav
3	11	4	3	2	I	2	0	1140	1	Ⴉ	cut_j_stereo_44KHz.wav
3	12	2	1	0	C	1	0	423	0	Ⴒ	cut_f_stereo_44KHz.wav
3	13	1	1	1	C	2	0	1143	0	Ⴐ	cut_f_stereo_44KHz.wav
3	14	4	4	2	I	1	0	823	1	Ⴉ	cut_s_stereo_44KHz.wav
3	15	2	2	1	C	1	1	782	1	Ⴒ	cut_r_stereo_44KHz.wav
3	16	3	4	2	I	1	0	246	1	Ⴔ	cut_s_stereo_44KHz.wav
3	17	4	4	2	I	2	0	738	0	Ⴉ	cut_s_stereo_44KHz.wav
3	18	3	3	2	I	2	0	680	1	Ⴔ	cut_j_stereo_44KHz.wav
3	19	2	1	0	C	2	1	636	1	Ⴒ	cut_f_stereo_44KHz.wav
3	20	1	2	0	C	2	1	647	1	Ⴐ	cut_r_stereo_44KHz.wav
3	21	2	2	1	C	2	0	834	0	Ⴒ	cut_r_stereo_44KHz.wav
3	22	3	4	2	I	2	0	881	1	Ⴔ	cut_s_stereo_44KHz.wav
3	23	4	3	2	I	1	0	874	1	Ⴉ	cut_j_stereo_44KHz.wav
3	24	1	1	1	C	1	1	1182	1	Ⴐ	cut_f_stereo_44KHz.wav
3	25	4	3	2	I	2	0	1048	1	Ⴉ	cut_j_stereo_44KHz.wav
3	26	3	3	2	I	1	0	1130	1	Ⴔ	cut_j_stereo_44KHz.wav
3	27	1	1	1	C	2	0	983	0	Ⴐ	cut_f_stereo_44KHz.wav
3	28	2	2	1	C	1	1	1190	1	Ⴒ	cut_r_stereo_44KHz.wav
3	29	4	4	2	I	1	0	660	0	Ⴉ	cut_s_stereo_44KHz.wav
3	30	3	4	2	I	2	0	814	1	Ⴔ	cut_s_stereo_44KHz.wav
3	31	1	2	0	C	2	1	1222	1	Ⴐ	cut_r_stereo_44KHz.wav
3	32	2	1	0	C	2	1	754	1	Ⴒ	cut_f_stereo_44KHz.wav
3	33	1	1	1	C	2	0	348	0	Ⴐ	cut_f_stereo_44KHz.wav
3	34	2	2	1	C	1	1	632	1	Ⴒ	cut_r_stereo_44KHz.wav
3	35	4	3	2	I	1	0	514	1	Ⴉ	cut_j_stereo_44KHz.wav
3	36	3	4	2	I	1	0	377	1	Ⴔ	cut_s_stereo_44KHz.wav
3	37	4	4	2	I	2	0	360	1	Ⴉ	cut_s_stereo_44KHz.wav
3	38	3	3	2	I	2	0	1043	0	Ⴔ	cut_j_stereo_44KHz.wav
3	39	2	1	0	C	2	1	729	1	Ⴒ	cut_f_stereo_44KHz.wav
3	40	1	2	0	C	2	1	435	1	Ⴐ	cut_r_stereo_44KHz.wav
3	41	2	1	0	C	2	1	1158	1	Ⴒ	cut_f_stereo_44KHz.wav
3	42	1	2	0	C	1	0	946	0	Ⴐ	cut_r_stereo_44KHz.wav
3	43	3	4	2	I	2	0	1257	1	Ⴔ	cut_s_stereo_44KHz.wav
3	44	4	4	2	I	0	0	0	0	Ⴉ	cut_s_stereo_44KHz.wav
3	45	2	2	1	C	2	0	1297	0	Ⴒ	cut_r_stereo_44KHz.wav
3	46	3	3	2	I	1	0	617	1	Ⴔ	cut_j_stereo_44KHz.wav
3	47	4	3	2	I	1	0	1077	1	Ⴉ	cut_j_stereo_44KHz.wav
3	48	1	1	1	C	1	1	728	1	Ⴐ	cut_f_stereo_44KHz.wav
3	49	4	3	2	I	2	0	1633	1	Ⴉ	cut_j_stereo_44KHz.wav
3	50	1	2	0	C	2	1	829	1	Ⴐ	cut_r_stereo_44KHz.wav
3	51	3	3	2	I	2	0	917	1	Ⴔ	cut_j_stereo_44KHz.wav
3	52	2	2	1	C	2	0	1129	0	Ⴒ	cut_r_stereo_44KHz.wav
3	53	3	4	2	I	1	0	510	1	Ⴔ	cut_s_stereo_44KHz.wav
3	54	2	1	0	C	1	0	758	0	Ⴒ	cut_f_stereo_44KHz.wav
3	55	4	4	2	I	2	0	665	1	Ⴉ	cut_s_stereo_44KHz.wav
3	56	1	1	1	C	1	1	384	1	Ⴐ	cut_f_stereo_44KHz.wav
3	57	4	4	2	I	2	0	87	1	Ⴉ	cut_s_stereo_44KHz.wav
3	58	3	4	2	I	1	0	1221	1	Ⴔ	cut_s_stereo_44KHz.wav
3	59	2	2	1	C	2	0	356	0	Ⴒ	cut_r_stereo_44KHz.wav
3	60	1	2	0	C	2	1	674	1	Ⴐ	cut_r_stereo_44KHz.wav
3	61	2	1	0	C	1	0	270	0	Ⴒ	cut_f_stereo_44KHz.wav
3	62	1	1	1	C	2	0	366	0	Ⴐ	cut_f_stereo_44KHz.wav
3	63	4	3	2	I	1	0	1383	1	Ⴉ	cut_j_stereo_44KHz.wav
3	64	3	3	2	I	2	0	784	1	Ⴔ	cut_j_stereo_44KHz.wav
3	65	4	3	2	I	2	0	188	1	Ⴉ	cut_j_stereo_44KHz.wav
3	66	1	1	1	C	2	0	1216	0	Ⴐ	cut_f_stereo_44KHz.wav
3	67	2	1	0	C	1	0	1502	0	Ⴒ	cut_f_stereo_44KHz.wav
3	68	3	4	2	I	2	0	1644	1	Ⴔ	cut_s_stereo_44KHz.wav
3	69	4	4	2	I	2	0	668	0	Ⴉ	cut_s_stereo_44KHz.wav
3	70	3	3	2	I	2	0	1143	1	Ⴔ	cut_j_stereo_44KHz.wav
3	71	1	2	0	C	2	1	897	1	Ⴐ	cut_r_stereo_44KHz.wav
3	72	2	2	1	C	1	1	557	1	Ⴒ	cut_r_stereo_44KHz.wav
3	73	4	3	2	I	1	0	1137	1	Ⴉ	cut_j_stereo_44KHz.wav
3	74	1	2	0	C	2	1	570	1	Ⴐ	cut_r_stereo_44KHz.wav
3	75	3	3	2	I	2	0	787	1	Ⴔ	cut_j_stereo_44KHz.wav
3	76	2	2	1	C	2	0	937	0	Ⴒ	cut_r_stereo_44KHz.wav
3	77	1	1	1	C	2	0	316	0	Ⴐ	cut_f_stereo_44KHz.wav
3	78	4	4	2	I	1	0	1657	1	Ⴉ	cut_s_stereo_44KHz.wav
3	79	3	4	2	I	2	0	567	0	Ⴔ	cut_s_stereo_44KHz.wav
3	80	2	1	0	C	1	0	570	0	Ⴒ	cut_f_stereo_44KHz.wav
3	81	3	4	2	I	1	0	698	1	Ⴔ	cut_s_stereo_44KHz.wav
3	82	2	2	1	C	1	1	853	1	Ⴒ	cut_r_stereo_44KHz.wav
3	83	1	2	0	C	2	1	355	1	Ⴐ	cut_r_stereo_44KHz.wav
3	84	4	4	2	I	1	0	1079	1	Ⴉ	cut_s_stereo_44KHz.wav
3	85	1	1	1	C	1	1	504	1	Ⴐ	cut_f_stereo_44KHz.wav
3	86	4	3	2	I	2	0	428	1	Ⴉ	cut_j_stereo_44KHz.wav
3	87	2	1	0	C	2	1	873	1	Ⴒ	cut_f_stereo_44KHz.wav
3	88	3	3	2	I	2	0	459	0	Ⴔ	cut_j_stereo_44KHz.wav
3	89	4	4	2	I	1	0	604	0	Ⴉ	cut_s_stereo_44KHz.wav
3	90	2	2	1	C	1	1	966	1	Ⴒ	cut_r_stereo_44KHz.wav
3	91	1	2	0	C	2	1	917	1	Ⴐ	cut_r_stereo_44KHz.wav
3	92	3	4	2	I	2	0	999	1	Ⴔ	cut_s_stereo_44KHz.wav
3	93	1	1	1	C	2	0	1429	0	Ⴐ	cut_f_stereo_44KHz.wav
3	94	3	3	2	I	1	0	958	1	Ⴔ	cut_j_stereo_44KHz.wav
3	95	4	3	2	I	1	0	686	1	Ⴉ	cut_j_stereo_44KHz.wav
3	96	2	1	0	C	0	0	0	0	Ⴒ	cut_f_stereo_44KHz.wav
3	97	1	2	0	C	2	1	1954	1	Ⴐ	cut_r_stereo_44KHz.wav
3	98	4	4	2	I	2	0	541	1	Ⴉ	cut_s_stereo_44KHz.wav
3	99	2	1	0	C	2	1	898	1	Ⴒ	cut_f_stereo_44KHz.wav
3	100	3	4	2	I	1	0	1138	1	Ⴔ	cut_s_stereo_44KHz.wav
3	101	1	1	1	C	2	0	686	0	Ⴐ	cut_f_stereo_44KHz.wav
3	102	3	3	2	I	1	0	770	1	Ⴔ	cut_j_stereo_44KHz.wav
3	103	2	2	1	C	1	1	1627	1	Ⴒ	cut_r_stereo_44KHz.wav
3	104	4	3	2	I	1	0	902	0	Ⴉ	cut_j_stereo_44KHz.wav
3	105	3	4	2	I	2	0	1084	1	Ⴔ	cut_s_stereo_44KHz.wav
3	106	4	4	2	I	1	0	1491	1	Ⴉ	cut_s_stereo_44KHz.wav
3	107	2	2	1	C	2	0	1536	0	Ⴒ	cut_r_stereo_44KHz.wav
3	108	1	1	1	C	1	1	1408	1	Ⴐ	cut_f_stereo_44KHz.wav
3	109	2	1	0	C	2	1	937	1	Ⴒ	cut_f_stereo_44KHz.wav
3	110	3	3	2	I	2	0	809	1	Ⴔ	cut_j_stereo_44KHz.wav
3	111	4	3	2	I	2	0	1219	1	Ⴉ	cut_j_stereo_44KHz.wav
3	112	1	2	0	C	2	1	1256	1	Ⴐ	cut_r_stereo_44KHz.wav
3	113	4	3	2	I	2	0	976	1	Ⴉ	cut_j_stereo_44KHz.wav
3	114	1	1	1	C	1	1	704	1	Ⴐ	cut_f_stereo_44KHz.wav
3	115	2	1	0	C	1	0	792	0	Ⴒ	cut_f_stereo_44KHz.wav
3	116	3	3	2	I	2	0	837	0	Ⴔ	cut_j_stereo_44KHz.wav
3	117	2	2	1	C	2	0	910	0	Ⴒ	cut_r_stereo_44KHz.wav
3	118	1	2	0	C	1	0	452	0	Ⴐ	cut_r_stereo_44KHz.wav
3	119	4	4	2	I	2	0	808	1	Ⴉ	cut_s_stereo_44KHz.wav
3	120	3	4	2	I	1	0	374	1	Ⴔ	cut_s_stereo_44KHz.wav
3	121	2	1	0	C	2	1	526	1	Ⴒ	cut_f_stereo_44KHz.wav
3	122	3	3	2	I	1	0	691	1	Ⴔ	cut_j_stereo_44KHz.wav
3	123	4	4	2	I	1	0	387	0	Ⴉ	cut_s_stereo_44KHz.wav
3	124	1	1	1	C	2	0	553	0	Ⴐ	cut_f_stereo_44KHz.wav
3	125	4	3	2	I	1	0	603	1	Ⴉ	cut_j_stereo_44KHz.wav
3	126	2	2	1	C	2	0	623	0	Ⴒ	cut_r_stereo_44KHz.wav
3	127	1	2	0	C	1	0	527	0	Ⴐ	cut_r_stereo_44KHz.wav
3	128	3	4	2	I	2	0	1160	1	Ⴔ	cut_s_stereo_44KHz.wav
3	129	2	2	1	C	1	1	1301	1	Ⴒ	cut_r_stereo_44KHz.wav
3	130	1	1	1	C	2	0	946	0	Ⴐ	cut_f_stereo_44KHz.wav
3	131	3	3	2	I	2	0	1018	1	Ⴔ	cut_j_stereo_44KHz.wav
3	132	4	4	2	I	1	0	974	1	Ⴉ	cut_s_stereo_44KHz.wav
3	133	2	1	0	C	2	1	1242	1	Ⴒ	cut_f_stereo_44KHz.wav
3	134	3	4	2	I	0	0	0	0	Ⴔ	cut_s_stereo_44KHz.wav
3	135	1	2	0	C	2	1	239	1	Ⴐ	cut_r_stereo_44KHz.wav
3	136	4	3	2	I	2	0	259	1	Ⴉ	cut_j_stereo_44KHz.wav
3	137	2	1	0	C	1	0	1052	0	Ⴒ	cut_f_stereo_44KHz.wav
3	138	4	3	2	I	1	0	744	0	Ⴉ	cut_j_stereo_44KHz.wav
3	139	1	2	0	C	2	1	265	1	Ⴐ	cut_r_stereo_44KHz.wav
3	140	3	3	2	I	1	0	1051	0	Ⴔ	cut_j_stereo_44KHz.wav
3	141	2	2	1	C	2	0	1411	0	Ⴒ	cut_r_stereo_44KHz.wav
3	142	4	4	2	I	1	0	115	1	Ⴉ	cut_s_stereo_44KHz.wav
3	143	3	4	2	I	1	0	1035	1	Ⴔ	cut_s_stereo_44KHz.wav
3	144	1	1	1	C	2	0	1000	0	Ⴐ	cut_f_stereo_44KHz.wav
3	145	3	3	2	I	2	0	1133	1	Ⴔ	cut_j_stereo_44KHz.wav
3	146	4	3	2	I	2	0	898	1	Ⴉ	cut_j_stereo_44KHz.wav
3	147	2	1	0	C	2	1	724	1	Ⴒ	cut_f_stereo_44KHz.wav
3	148	1	2	0	C	1	0	1955	0	Ⴐ	cut_r_stereo_44KHz.wav
3	149	3	4	2	I	1	0	752	0	Ⴔ	cut_s_stereo_44KHz.wav
3	150	1	1	1	C	1	1	789	1	Ⴐ	cut_f_stereo_44KHz.wav
3	151	4	4	2	I	2	0	823	1	Ⴉ	cut_s_stereo_44KHz.wav
3	152	2	2	1	C	2	0	878	0	Ⴒ	cut_r_stereo_44KHz.wav
3	153	3	3	2	I	2	0	604	1	Ⴔ	cut_j_stereo_44KHz.wav
3	154	4	3	2	I	2	0	596	1	Ⴉ	cut_j_stereo_44KHz.wav
3	155	2	2	1	C	2	0	790	0	Ⴒ	cut_r_stereo_44KHz.wav
3	156	1	1	1	C	1	1	972	1	Ⴐ	cut_f_stereo_44KHz.wav
3	157	3	4	2	I	2	0	760	1	Ⴔ	cut_s_stereo_44KHz.wav
3	158	2	1	0	C	1	0	1037	0	Ⴒ	cut_f_stereo_44KHz.wav
3	159	1	2	0	C	2	1	636	1	Ⴐ	cut_r_stereo_44KHz.wav
3	160	4	4	2	I	2	0	577	1	Ⴉ	cut_s_stereo_44KHz.wav
3	161	1	2	0	C	1	0	1413	0	Ⴐ	cut_r_stereo_44KHz.wav
3	162	4	4	2	I	2	0	1094	1	Ⴉ	cut_s_stereo_44KHz.wav
3	163	3	3	2	I	1	0	644	0	Ⴔ	cut_j_stereo_44KHz.wav
3	164	2	2	1	C	2	0	1364	0	Ⴒ	cut_r_stereo_44KHz.wav
3	165	1	1	1	C	0	0	0	0	Ⴐ	cut_f_stereo_44KHz.wav
3	166	3	4	2	I	0	0	0	0	Ⴔ	cut_s_stereo_44KHz.wav
3	167	4	3	2	I	2	0	730	1	Ⴉ	cut_j_stereo_44KHz.wav
3	168	2	1	0	C	2	1	380	1	Ⴒ	cut_f_stereo_44KHz.wav
3	169	3	4	2	I	2	0	974	1	Ⴔ	cut_s_stereo_44KHz.wav
3	170	2	2	1	C	2	0	897	0	Ⴒ	cut_r_stereo_44KHz.wav
3	171	4	3	2	I	2	0	719	1	Ⴉ	cut_j_stereo_44KHz.wav
3	172	1	1	1	C	2	0	673	0	Ⴐ	cut_f_stereo_44KHz.wav
3	173	3	3	2	I	1	0	1350	1	Ⴔ	cut_j_stereo_44KHz.wav
3	174	1	2	0	C	2	1	768	1	Ⴐ	cut_r_stereo_44KHz.wav
3	175	4	4	2	I	2	0	551	1	Ⴉ	cut_s_stereo_44KHz.wav
3	176	2	1	0	C	2	1	756	1	Ⴒ	cut_f_stereo_44KHz.wav
3	177	4	3	2	I	2	0	1091	0	Ⴉ	cut_j_stereo_44KHz.wav
3	178	2	2	1	C	2	0	597	0	Ⴒ	cut_r_stereo_44KHz.wav
3	179	3	3	2	I	2	0	839	0	Ⴔ	cut_j_stereo_44KHz.wav
3	180	1	1	1	C	2	0	1703	0	Ⴐ	cut_f_stereo_44KHz.wav
3	181	4	4	2	I	2	0	397	1	Ⴉ	cut_s_stereo_44KHz.wav
3	182	2	1	0	C	1	0	443	0	Ⴒ	cut_f_stereo_44KHz.wav
3	183	1	2	0	C	1	0	1262	0	Ⴐ	cut_r_stereo_44KHz.wav
3	184	3	4	2	I	2	0	873	1	Ⴔ	cut_s_stereo_44KHz.wav
3	185	2	2	1	C	2	0	1182	0	Ⴒ	cut_r_stereo_44KHz.wav
3	186	4	3	2	I	2	0	1232	1	Ⴉ	cut_j_stereo_44KHz.wav
3	187	3	4	2	I	2	0	1015	1	Ⴔ	cut_s_stereo_44KHz.wav
3	188	1	1	1	C	2	0	1557	0	Ⴐ	cut_f_stereo_44KHz.wav
3	189	4	4	2	I	1	0	1077	1	Ⴉ	cut_s_stereo_44KHz.wav
3	190	3	3	2	I	2	0	793	1	Ⴔ	cut_j_stereo_44KHz.wav
3	191	1	2	0	C	1	0	1028	0	Ⴐ	cut_r_stereo_44KHz.wav
3	192	2	1	0	C	0	0	0	0	Ⴒ	cut_f_stereo_44KHz.wav
3	193	3	4	2	I	2	0	496	1	Ⴔ	cut_s_stereo_44KHz.wav
3	194	2	1	0	C	2	1	1023	1	Ⴒ	cut_f_stereo_44KHz.wav
3	195	1	1	1	C	2	0	37	0	Ⴐ	cut_f_stereo_44KHz.wav
3	196	4	3	2	I	2	0	1385	1	Ⴉ	cut_j_stereo_44KHz.wav
3	197	2	2	1	C	2	0	775	0	Ⴒ	cut_r_stereo_44KHz.wav
3	198	1	2	0	C	2	1	1146	1	Ⴐ	cut_r_stereo_44KHz.wav
3	199	4	4	2	I	1	0	1615	0	Ⴉ	cut_s_stereo_44KHz.wav
3	200	3	3	2	I	2	0	1281	1	Ⴔ	cut_j_stereo_44KHz.wav
4	1	2	2	1	C	2	0	968	0	Ⴕ	cut_oei_stereo_44KHz.wav
4	2	3	4	2	I	1	0	813	1	Ⴖ	cut_ei_stereo_44KHz.wav
4	3	1	1	1	C	1	1	376	1	Ⴌ	cut_ui_stereo_44KHz.wav
4	4	4	4	2	I	2	0	497	1	Ⴏ	cut_ei_stereo_44KHz.wav
4	5	3	3	2	I	1	0	408	1	Ⴖ	cut_n_stereo_44KHz.wav
4	6	2	1	0	C	1	0	671	0	Ⴕ	cut_ui_stereo_44KHz.wav
4	7	1	2	0	C	1	0	614	0	Ⴌ	cut_oei_stereo_44KHz.wav
4	8	4	3	2	I	0	0	0	0	Ⴏ	cut_n_stereo_44KHz.wav
4	9	2	1	0	C	0	0	0	0	Ⴕ	cut_ui_stereo_44KHz.wav
4	10	1	2	0	C	1	0	885	0	Ⴌ	cut_oei_stereo_44KHz.wav
4	11	3	3	2	I	0	0	0	0	Ⴖ	cut_n_stereo_44KHz.wav
4	12	4	3	2	I	0	0	0	0	Ⴏ	cut_n_stereo_44KHz.wav
4	13	3	4	2	I	2	0	180	1	Ⴖ	cut_ei_stereo_44KHz.wav
4	14	4	4	2	I	1	0	472	1	Ⴏ	cut_ei_stereo_44KHz.wav
4	15	2	2	1	C	2	0	993	0	Ⴕ	cut_oei_stereo_44KHz.wav
4	16	1	1	1	C	2	0	254	0	Ⴌ	cut_ui_stereo_44KHz.wav
4	17	3	4	2	I	2	0	1009	1	Ⴖ	cut_ei_stereo_44KHz.wav
4	18	1	2	0	C	2	1	349	1	Ⴌ	cut_oei_stereo_44KHz.wav
4	19	4	4	2	I	1	0	443	1	Ⴏ	cut_ei_stereo_44KHz.wav
4	20	2	2	1	C	2	0	381	0	Ⴕ	cut_oei_stereo_44KHz.wav
4	21	4	3	2	I	1	0	522	1	Ⴏ	cut_n_stereo_44KHz.wav
4	22	2	1	0	C	2	1	710	1	Ⴕ	cut_ui_stereo_44KHz.wav
4	23	3	3	2	I	1	0	1191	1	Ⴖ	cut_n_stereo_44KHz.wav
4	24	1	1	1	C	0	0	0	0	Ⴌ	cut_ui_stereo_44KHz.wav
4	25	2	2	1	C	1	1	390	1	Ⴕ	cut_oei_stereo_44KHz.wav
4	26	1	1	1	C	2	0	844	0	Ⴌ	cut_ui_stereo_44KHz.wav
4	27	3	3	2	I	2	0	835	1	Ⴖ	cut_n_stereo_44KHz.wav
4	28	4	3	2	I	2	0	610	0	Ⴏ	cut_n_stereo_44KHz.wav
4	29	1	2	0	C	1	0	503	0	Ⴌ	cut_oei_stereo_44KHz.wav
4	30	3	4	2	I	2	0	475	1	Ⴖ	cut_ei_stereo_44KHz.wav
4	31	4	4	2	I	2	0	355	1	Ⴏ	cut_ei_stereo_44KHz.wav
4	32	2	1	0	C	0	0	0	0	Ⴕ	cut_ui_stereo_44KHz.wav
4	33	1	2	0	C	1	0	830	0	Ⴌ	cut_oei_stereo_44KHz.wav
4	34	4	3	2	I	0	0	0	0	Ⴏ	cut_n_stereo_44KHz.wav
4	35	2	1	0	C	2	1	1359	1	Ⴕ	cut_ui_stereo_44KHz.wav
4	36	3	3	2	I	2	0	1332	1	Ⴖ	cut_n_stereo_44KHz.wav
4	37	4	4	2	I	2	0	300	1	Ⴏ	cut_ei_stereo_44KHz.wav
4	38	2	2	1	C	2	0	131	0	Ⴕ	cut_oei_stereo_44KHz.wav
4	39	3	4	2	I	1	0	817	1	Ⴖ	cut_ei_stereo_44KHz.wav
4	40	1	1	1	C	2	0	527	0	Ⴌ	cut_ui_stereo_44KHz.wav
4	41	2	2	1	C	2	0	462	0	Ⴕ	cut_oei_stereo_44KHz.wav
4	42	4	3	2	I	1	0	416	1	Ⴏ	cut_n_stereo_44KHz.wav
4	43	1	1	1	C	2	0	1373	0	Ⴌ	cut_ui_stereo_44KHz.wav
4	44	3	3	2	I	1	0	402	0	Ⴖ	cut_n_stereo_44KHz.wav
4	45	1	2	0	C	1	0	543	0	Ⴌ	cut_oei_stereo_44KHz.wav
4	46	2	1	0	C	1	0	607	0	Ⴕ	cut_ui_stereo_44KHz.wav
4	47	4	4	2	I	0	0	0	0	Ⴏ	cut_ei_stereo_44KHz.wav
4	48	3	4	2	I	2	0	529	1	Ⴖ	cut_ei_stereo_44KHz.wav
4	49	2	2	1	C	2	0	1572	0	Ⴕ	cut_oei_stereo_44KHz.wav
4	50	4	3	2	I	2	0	1085	1	Ⴏ	cut_n_stereo_44KHz.wav
4	51	1	1	1	C	2	0	682	0	Ⴌ	cut_ui_stereo_44KHz.wav
4	52	3	4	2	I	2	0	933	1	Ⴖ	cut_ei_stereo_44KHz.wav
4	53	4	4	2	I	0	0	0	0	Ⴏ	cut_ei_stereo_44KHz.wav
4	54	2	1	0	C	0	0	0	0	Ⴕ	cut_ui_stereo_44KHz.wav
4	55	3	3	2	I	2	0	283	1	Ⴖ	cut_n_stereo_44KHz.wav
4	56	1	2	0	C	2	1	1341	1	Ⴌ	cut_oei_stereo_44KHz.wav
4	57	3	3	2	I	2	0	1045	1	Ⴖ	cut_n_stereo_44KHz.wav
4	58	4	3	2	I	2	0	1964	0	Ⴏ	cut_n_stereo_44KHz.wav
4	59	2	1	0	C	2	1	851	1	Ⴕ	cut_ui_stereo_44KHz.wav
4	60	1	1	1	C	1	1	84	1	Ⴌ	cut_ui_stereo_44KHz.wav
4	61	2	2	1	C	0	0	0	0	Ⴕ	cut_oei_stereo_44KHz.wav
4	62	1	2	0	C	1	0	423	0	Ⴌ	cut_oei_stereo_44KHz.wav
4	63	4	4	2	I	0	0	0	0	Ⴏ	cut_ei_stereo_44KHz.wav
4	64	3	4	2	I	2	0	600	1	Ⴖ	cut_ei_stereo_44KHz.wav
4	65	1	2	0	C	1	0	835	0	Ⴌ	cut_oei_stereo_44KHz.wav
4	66	4	4	2	I	0	0	0	0	Ⴏ	cut_ei_stereo_44KHz.wav
4	67	2	2	1	C	2	0	105	0	Ⴕ	cut_oei_stereo_44KHz.wav
4	68	3	4	2	I	1	0	331	1	Ⴖ	cut_ei_stereo_44KHz.wav
4	69	4	3	2	I	2	0	1483	1	Ⴏ	cut_n_stereo_44KHz.wav
4	70	3	3	2	I	2	0	753	0	Ⴖ	cut_n_stereo_44KHz.wav
4	71	2	1	0	C	1	0	562	0	Ⴕ	cut_ui_stereo_44KHz.wav
4	72	1	1	1	C	2	0	54	0	Ⴌ	cut_ui_stereo_44KHz.wav
4	73	4	4	2	I	1	0	508	1	Ⴏ	cut_ei_stereo_44KHz.wav
4	74	2	1	0	C	2	1	1011	1	Ⴕ	cut_ui_stereo_44KHz.wav
4	75	1	2	0	C	2	1	645	1	Ⴌ	cut_oei_stereo_44KHz.wav
4	76	3	3	2	I	1	0	1115	1	Ⴖ	cut_n_stereo_44KHz.wav
4	77	1	1	1	C	2	0	834	0	Ⴌ	cut_ui_stereo_44KHz.wav
4	78	3	4	2	I	2	0	307	1	Ⴖ	cut_ei_stereo_44KHz.wav
4	79	4	3	2	I	0	0	0	0	Ⴏ	cut_n_stereo_44KHz.wav
4	80	2	2	1	C	1	1	870	1	Ⴕ	cut_oei_stereo_44KHz.wav
4	81	3	3	2	I	2	0	392	1	Ⴖ	cut_n_stereo_44KHz.wav
4	82	4	4	2	I	2	0	926	0	Ⴏ	cut_ei_stereo_44KHz.wav
4	83	1	1	1	C	2	0	438	0	Ⴌ	cut_ui_stereo_44KHz.wav
4	84	2	2	1	C	1	1	872	1	Ⴕ	cut_oei_stereo_44KHz.wav
4	85	1	2	0	C	2	1	807	1	Ⴌ	cut_oei_stereo_44KHz.wav
4	86	3	4	2	I	2	0	860	1	Ⴖ	cut_ei_stereo_44KHz.wav
4	87	2	1	0	C	0	0	0	0	Ⴕ	cut_ui_stereo_44KHz.wav
4	88	4	3	2	I	2	0	855	1	Ⴏ	cut_n_stereo_44KHz.wav
4	89	2	1	0	C	2	1	1118	1	Ⴕ	cut_ui_stereo_44KHz.wav
4	90	1	2	0	C	2	1	1236	1	Ⴌ	cut_oei_stereo_44KHz.wav
4	91	4	3	2	I	0	0	0	0	Ⴏ	cut_n_stereo_44KHz.wav
4	92	3	4	2	I	0	0	0	0	Ⴖ	cut_ei_stereo_44KHz.wav
4	93	1	1	1	C	1	1	598	1	Ⴌ	cut_ui_stereo_44KHz.wav
4	94	3	3	2	I	2	0	851	1	Ⴖ	cut_n_stereo_44KHz.wav
4	95	2	2	1	C	1	1	855	1	Ⴕ	cut_oei_stereo_44KHz.wav
4	96	4	4	2	I	2	0	536	1	Ⴏ	cut_ei_stereo_44KHz.wav
4	97	2	2	1	C	1	1	384	1	Ⴕ	cut_oei_stereo_44KHz.wav
4	98	3	3	2	I	1	0	685	1	Ⴖ	cut_n_stereo_44KHz.wav
4	99	4	4	2	I	1	0	1046	0	Ⴏ	cut_ei_stereo_44KHz.wav
4	100	1	2	0	C	2	1	1052	1	Ⴌ	cut_oei_stereo_44KHz.wav
4	101	4	3	2	I	2	0	702	0	Ⴏ	cut_n_stereo_44KHz.wav
4	102	2	1	0	C	2	1	171	1	Ⴕ	cut_ui_stereo_44KHz.wav
4	103	1	1	1	C	0	0	0	0	Ⴌ	cut_ui_stereo_44KHz.wav
4	104	3	4	2	I	2	0	1875	1	Ⴖ	cut_ei_stereo_44KHz.wav
4	105	2	2	1	C	2	0	589	0	Ⴕ	cut_oei_stereo_44KHz.wav
4	106	4	4	2	I	2	0	456	1	Ⴏ	cut_ei_stereo_44KHz.wav
4	107	3	3	2	I	0	0	0	0	Ⴖ	cut_n_stereo_44KHz.wav
4	108	1	2	0	C	2	1	142	1	Ⴌ	cut_oei_stereo_44KHz.wav
4	109	2	1	0	C	2	1	692	1	Ⴕ	cut_ui_stereo_44KHz.wav
4	110	3	4	2	I	2	0	561	1	Ⴖ	cut_ei_stereo_44KHz.wav
4	111	1	1	1	C	2	0	28	0	Ⴌ	cut_ui_stereo_44KHz.wav
4	112	4	3	2	I	0	0	0	0	Ⴏ	cut_n_stereo_44KHz.wav
4	113	2	1	0	C	0	0	0	0	Ⴕ	cut_ui_stereo_44KHz.wav
4	114	1	1	1	C	0	0	0	0	Ⴌ	cut_ui_stereo_44KHz.wav
4	115	4	3	2	I	1	0	776	1	Ⴏ	cut_n_stereo_44KHz.wav
4	116	3	3	2	I	1	0	1085	0	Ⴖ	cut_n_stereo_44KHz.wav
4	117	2	2	1	C	2	0	865	0	Ⴕ	cut_oei_stereo_44KHz.wav
4	118	3	4	2	I	2	0	1490	1	Ⴖ	cut_ei_stereo_44KHz.wav
4	119	4	4	2	I	0	0	0	0	Ⴏ	cut_ei_stereo_44KHz.wav
4	120	1	2	0	C	2	1	374	1	Ⴌ	cut_oei_stereo_44KHz.wav
4	121	2	1	0	C	2	1	275	1	Ⴕ	cut_ui_stereo_44KHz.wav
4	122	4	3	2	I	2	0	543	1	Ⴏ	cut_n_stereo_44KHz.wav
4	123	3	4	2	I	1	0	464	1	Ⴖ	cut_ei_stereo_44KHz.wav
4	124	1	2	0	C	1	0	597	0	Ⴌ	cut_oei_stereo_44KHz.wav
4	125	4	4	2	I	1	0	1006	1	Ⴏ	cut_ei_stereo_44KHz.wav
4	126	1	1	1	C	2	0	35	0	Ⴌ	cut_ui_stereo_44KHz.wav
4	127	3	3	2	I	2	0	735	0	Ⴖ	cut_n_stereo_44KHz.wav
4	128	2	2	1	C	1	1	871	1	Ⴕ	cut_oei_stereo_44KHz.wav
4	129	4	3	2	I	2	0	564	0	Ⴏ	cut_n_stereo_44KHz.wav
4	130	1	2	0	C	1	0	505	0	Ⴌ	cut_oei_stereo_44KHz.wav
4	131	2	2	1	C	2	0	554	0	Ⴕ	cut_oei_stereo_44KHz.wav
4	132	3	4	2	I	2	0	728	1	Ⴖ	cut_ei_stereo_44KHz.wav
4	133	2	1	0	C	2	1	319	1	Ⴕ	cut_ui_stereo_44KHz.wav
4	134	3	3	2	I	2	0	659	1	Ⴖ	cut_n_stereo_44KHz.wav
4	135	4	4	2	I	2	0	1112	1	Ⴏ	cut_ei_stereo_44KHz.wav
4	136	1	1	1	C	1	1	918	1	Ⴌ	cut_ui_stereo_44KHz.wav
4	137	2	1	0	C	2	1	765	1	Ⴕ	cut_ui_stereo_44KHz.wav
4	138	3	3	2	I	1	0	646	1	Ⴖ	cut_n_stereo_44KHz.wav
4	139	4	3	2	I	2	0	468	0	Ⴏ	cut_n_stereo_44KHz.wav
4	140	1	2	0	C	1	0	839	0	Ⴌ	cut_oei_stereo_44KHz.wav
4	141	3	4	2	I	1	0	631	0	Ⴖ	cut_ei_stereo_44KHz.wav
4	142	2	2	1	C	2	0	544	0	Ⴕ	cut_oei_stereo_44KHz.wav
4	143	4	4	2	I	2	0	726	1	Ⴏ	cut_ei_stereo_44KHz.wav
4	144	1	1	1	C	2	0	996	0	Ⴌ	cut_ui_stereo_44KHz.wav
4	145	2	1	0	C	2	1	1394	1	Ⴕ	cut_ui_stereo_44KHz.wav
4	146	3	3	2	I	2	0	545	1	Ⴖ	cut_n_stereo_44KHz.wav
4	147	1	2	0	C	2	1	1699	1	Ⴌ	cut_oei_stereo_44KHz.wav
4	148	4	4	2	I	2	0	657	1	Ⴏ	cut_ei_stereo_44KHz.wav
4	149	2	2	1	C	2	0	629	0	Ⴕ	cut_oei_stereo_44KHz.wav
4	150	3	4	2	I	2	0	749	0	Ⴖ	cut_ei_stereo_44KHz.wav
4	151	4	3	2	I	1	0	434	1	Ⴏ	cut_n_stereo_44KHz.wav
4	152	1	1	1	C	2	0	902	0	Ⴌ	cut_ui_stereo_44KHz.wav
4	153	4	4	2	I	2	0	816	1	Ⴏ	cut_ei_stereo_44KHz.wav
4	154	1	2	0	C	2	1	659	1	Ⴌ	cut_oei_stereo_44KHz.wav
4	155	3	4	2	I	2	0	839	1	Ⴖ	cut_ei_stereo_44KHz.wav
4	156	2	2	1	C	2	0	1359	0	Ⴕ	cut_oei_stereo_44KHz.wav
4	157	4	3	2	I	2	0	737	0	Ⴏ	cut_n_stereo_44KHz.wav
4	158	1	1	1	C	2	0	714	0	Ⴌ	cut_ui_stereo_44KHz.wav
4	159	2	1	0	C	2	1	1049	1	Ⴕ	cut_ui_stereo_44KHz.wav
4	160	3	3	2	I	2	0	467	1	Ⴖ	cut_n_stereo_44KHz.wav
4	161	2	1	0	C	2	1	887	1	Ⴕ	cut_ui_stereo_44KHz.wav
4	162	3	4	2	I	1	0	733	1	Ⴖ	cut_ei_stereo_44KHz.wav
4	163	4	3	2	I	2	0	433	1	Ⴏ	cut_n_stereo_44KHz.wav
4	164	1	1	1	C	1	1	142	1	Ⴌ	cut_ui_stereo_44KHz.wav
4	165	3	3	2	I	2	0	1270	0	Ⴖ	cut_n_stereo_44KHz.wav
4	166	1	2	0	C	1	0	372	0	Ⴌ	cut_oei_stereo_44KHz.wav
4	167	4	4	2	I	1	0	524	0	Ⴏ	cut_ei_stereo_44KHz.wav
4	168	2	2	1	C	2	0	169	0	Ⴕ	cut_oei_stereo_44KHz.wav
4	169	3	3	2	I	1	0	676	1	Ⴖ	cut_n_stereo_44KHz.wav
4	170	2	2	1	C	1	1	796	1	Ⴕ	cut_oei_stereo_44KHz.wav
4	171	1	1	1	C	2	0	1231	0	Ⴌ	cut_ui_stereo_44KHz.wav
4	172	4	3	2	I	2	0	705	1	Ⴏ	cut_n_stereo_44KHz.wav
4	173	1	2	0	C	2	1	1115	1	Ⴌ	cut_oei_stereo_44KHz.wav
4	174	2	1	0	C	2	1	814	1	Ⴕ	cut_ui_stereo_44KHz.wav
4	175	3	4	2	I	2	0	577	0	Ⴖ	cut_ei_stereo_44KHz.wav
4	176	4	4	2	I	2	0	571	1	Ⴏ	cut_ei_stereo_44KHz.wav
4	177	3	4	2	I	2	0	913	1	Ⴖ	cut_ei_stereo_44KHz.wav
4	178	2	2	1	C	1	1	721	1	Ⴕ	cut_oei_stereo_44KHz.wav
4	179	1	2	0	C	2	1	751	1	Ⴌ	cut_oei_stereo_44KHz.wav
4	180	4	4	2	I	1	0	593	1	Ⴏ	cut_ei_stereo_44KHz.wav
4	181	3	3	2	I	1	0	1859	1	Ⴖ	cut_n_stereo_44KHz.wav
4	182	2	1	0	C	1	0	622	0	Ⴕ	cut_ui_stereo_44KHz.wav
4	183	1	1	1	C	2	0	238	0	Ⴌ	cut_ui_stereo_44KHz.wav
4	184	4	3	2	I	2	0	1164	1	Ⴏ	cut_n_stereo_44KHz.wav
4	185	1	1	1	C	2	0	428	0	Ⴌ	cut_ui_stereo_44KHz.wav
4	186	3	3	2	I	0	0	0	0	Ⴖ	cut_n_stereo_44KHz.wav
4	187	2	2	1	C	2	0	813	0	Ⴕ	cut_oei_stereo_44KHz.wav
4	188	4	4	2	I	1	0	513	1	Ⴏ	cut_ei_stereo_44KHz.wav
4	189	3	4	2	I	1	0	1814	1	Ⴖ	cut_ei_stereo_44KHz.wav
4	190	4	3	2	I	0	0	0	0	Ⴏ	cut_n_stereo_44KHz.wav
4	191	2	1	0	C	2	1	136	1	Ⴕ	cut_ui_stereo_44KHz.wav
4	192	1	2	0	C	2	1	609	1	Ⴌ	cut_oei_stereo_44KHz.wav
4	193	2	2	1	C	2	0	581	0	Ⴕ	cut_oei_stereo_44KHz.wav
4	194	4	4	2	I	1	0	169	0	Ⴏ	cut_ei_stereo_44KHz.wav
4	195	3	4	2	I	2	0	704	1	Ⴖ	cut_ei_stereo_44KHz.wav
4	196	1	2	0	C	2	1	1389	1	Ⴌ	cut_oei_stereo_44KHz.wav
4	197	3	3	2	I	2	0	340	1	Ⴖ	cut_n_stereo_44KHz.wav
4	198	4	3	2	I	2	0	653	1	Ⴏ	cut_n_stereo_44KHz.wav
4	199	2	1	0	C	2	1	1229	1	Ⴕ	cut_ui_stereo_44KHz.wav
4	200	1	1	1	C	1	1	1278	1	Ⴌ	cut_ui_stereo_44KHz.wav
