block	trial	Vstim	Astim	match	C/I	resp	result	RT	fb	V-file	A-file
LR

0	1	1	2	0	C	0	0	0	0	Ⴞ	cut_oo_stereo_44KHz.wav
0	2	2	4	0	C	0	0	0	0	Ⴋ	cut_ee_stereo_44KHz.wav
0	3	2	3	1	C	1	0	884	0	Ⴋ	cut_eeuw_stereo_44KHz.wav
0	4	1	1	1	C	2	1	893	1	Ⴞ	cut_g_stereo_44KHz.wav
0	5	2	3	1	C	2	1	1710	1	Ⴋ	cut_eeuw_stereo_44KHz.wav
0	6	1	1	1	C	1	0	1416	0	Ⴞ	cut_g_stereo_44KHz.wav
0	7	1	2	0	C	0	0	0	0	Ⴞ	cut_oo_stereo_44KHz.wav
0	8	2	4	0	C	2	0	1763	0	Ⴋ	cut_ee_stereo_44KHz.wav
0	9	1	2	0	C	1	1	570	1	Ⴞ	cut_oo_stereo_44KHz.wav
0	10	1	1	1	C	2	1	548	1	Ⴞ	cut_g_stereo_44KHz.wav
0	11	2	4	0	C	2	0	947	0	Ⴋ	cut_ee_stereo_44KHz.wav
0	12	2	3	1	C	1	0	1146	0	Ⴋ	cut_eeuw_stereo_44KHz.wav
0	13	1	1	1	C	2	1	774	1	Ⴞ	cut_g_stereo_44KHz.wav
0	14	2	4	0	C	1	1	750	1	Ⴋ	cut_ee_stereo_44KHz.wav
0	15	1	2	0	C	1	1	1013	1	Ⴞ	cut_oo_stereo_44KHz.wav
0	16	2	3	1	C	1	0	791	0	Ⴋ	cut_eeuw_stereo_44KHz.wav
0	17	2	3	1	C	2	1	890	1	Ⴋ	cut_eeuw_stereo_44KHz.wav
0	18	1	2	0	C	1	1	640	1	Ⴞ	cut_oo_stereo_44KHz.wav
0	19	1	1	1	C	2	1	738	1	Ⴞ	cut_g_stereo_44KHz.wav
0	20	2	4	0	C	1	1	627	1	Ⴋ	cut_ee_stereo_44KHz.wav
0	21	1	1	1	C	2	1	904	1	Ⴞ	cut_g_stereo_44KHz.wav
0	22	1	2	0	C	1	1	641	1	Ⴞ	cut_oo_stereo_44KHz.wav
0	23	2	3	1	C	2	1	661	1	Ⴋ	cut_eeuw_stereo_44KHz.wav
0	24	2	4	0	C	1	1	271	1	Ⴋ	cut_ee_stereo_44KHz.wav
0	25	1	2	0	C	2	0	642	0	Ⴞ	cut_oo_stereo_44KHz.wav
0	26	2	4	0	C	1	1	741	1	Ⴋ	cut_ee_stereo_44KHz.wav
0	27	2	3	1	C	2	1	564	1	Ⴋ	cut_eeuw_stereo_44KHz.wav
0	28	1	1	1	C	1	0	207	0	Ⴞ	cut_g_stereo_44KHz.wav
0	29	1	1	1	C	2	1	815	1	Ⴞ	cut_g_stereo_44KHz.wav
0	30	1	2	0	C	1	1	104	1	Ⴞ	cut_oo_stereo_44KHz.wav
avg_resp = 729
1	1	2	1	0	C	1	1	989	1	Ⴊ	cut_u_stereo_44KHz.wav
1	2	3	3	2	I	1	0	874	1	Ⴂ	cut_o_stereo_44KHz.wav
1	3	1	1	1	C	2	1	1013	1	Ⴟ	cut_u_stereo_44KHz.wav
1	4	4	4	2	I	2	0	992	1	Ⴇ	cut_k_stereo_44KHz.wav
1	5	3	4	2	I	2	0	700	1	Ⴂ	cut_k_stereo_44KHz.wav
1	6	1	2	0	C	1	1	1319	1	Ⴟ	cut_a_stereo_44KHz.wav
1	7	2	2	1	C	2	1	908	1	Ⴊ	cut_a_stereo_44KHz.wav
1	8	4	3	2	I	1	0	1227	0	Ⴇ	cut_o_stereo_44KHz.wav
1	9	3	3	2	I	2	0	1214	1	Ⴂ	cut_o_stereo_44KHz.wav
1	10	2	1	0	C	1	1	943	1	Ⴊ	cut_u_stereo_44KHz.wav
1	11	4	4	2	I	2	0	1019	1	Ⴇ	cut_k_stereo_44KHz.wav
1	12	1	1	1	C	2	1	1122	1	Ⴟ	cut_u_stereo_44KHz.wav
1	13	4	3	2	I	2	0	976	0	Ⴇ	cut_o_stereo_44KHz.wav
1	14	3	4	2	I	2	0	865	1	Ⴂ	cut_k_stereo_44KHz.wav
1	15	2	2	1	C	0	0	0	0	Ⴊ	cut_a_stereo_44KHz.wav
1	16	1	2	0	C	2	0	1026	0	Ⴟ	cut_a_stereo_44KHz.wav
1	17	4	4	2	I	2	0	1064	1	Ⴇ	cut_k_stereo_44KHz.wav
1	18	2	1	0	C	1	1	1103	1	Ⴊ	cut_u_stereo_44KHz.wav
1	19	3	4	2	I	2	0	818	1	Ⴂ	cut_k_stereo_44KHz.wav
1	20	1	1	1	C	1	0	1160	0	Ⴟ	cut_u_stereo_44KHz.wav
1	21	4	3	2	I	1	0	1159	1	Ⴇ	cut_o_stereo_44KHz.wav
1	22	1	2	0	C	2	0	1107	0	Ⴟ	cut_a_stereo_44KHz.wav
1	23	2	2	1	C	1	0	1021	0	Ⴊ	cut_a_stereo_44KHz.wav
1	24	3	3	2	I	2	0	895	1	Ⴂ	cut_o_stereo_44KHz.wav
1	25	4	4	2	I	1	0	1103	1	Ⴇ	cut_k_stereo_44KHz.wav
1	26	2	2	1	C	1	0	1022	0	Ⴊ	cut_a_stereo_44KHz.wav
1	27	3	3	2	I	2	0	1264	0	Ⴂ	cut_o_stereo_44KHz.wav
1	28	1	2	0	C	1	1	792	1	Ⴟ	cut_a_stereo_44KHz.wav
1	29	2	1	0	C	1	1	852	1	Ⴊ	cut_u_stereo_44KHz.wav
1	30	4	3	2	I	1	0	1433	1	Ⴇ	cut_o_stereo_44KHz.wav
1	31	1	1	1	C	0	0	0	0	Ⴟ	cut_u_stereo_44KHz.wav
1	32	3	4	2	I	0	0	0	0	Ⴂ	cut_k_stereo_44KHz.wav
1	33	4	4	2	I	0	0	0	0	Ⴇ	cut_k_stereo_44KHz.wav
1	34	1	1	1	C	0	0	0	0	Ⴟ	cut_u_stereo_44KHz.wav
1	35	2	1	0	C	1	1	1909	1	Ⴊ	cut_u_stereo_44KHz.wav
1	36	3	3	2	I	1	0	1017	1	Ⴂ	cut_o_stereo_44KHz.wav
1	37	4	3	2	I	1	0	849	1	Ⴇ	cut_o_stereo_44KHz.wav
1	38	1	2	0	C	1	1	788	1	Ⴟ	cut_a_stereo_44KHz.wav
1	39	3	4	2	I	2	0	662	0	Ⴂ	cut_k_stereo_44KHz.wav
1	40	2	2	1	C	1	0	737	0	Ⴊ	cut_a_stereo_44KHz.wav
1	41	4	3	2	I	1	0	803	1	Ⴇ	cut_o_stereo_44KHz.wav
1	42	1	1	1	C	2	1	891	1	Ⴟ	cut_u_stereo_44KHz.wav
1	43	2	2	1	C	1	0	533	0	Ⴊ	cut_a_stereo_44KHz.wav
1	44	3	3	2	I	2	0	1301	1	Ⴂ	cut_o_stereo_44KHz.wav
1	45	1	2	0	C	1	1	630	1	Ⴟ	cut_a_stereo_44KHz.wav
1	46	4	4	2	I	2	0	806	1	Ⴇ	cut_k_stereo_44KHz.wav
1	47	2	1	0	C	1	1	867	1	Ⴊ	cut_u_stereo_44KHz.wav
1	48	3	4	2	I	2	0	769	1	Ⴂ	cut_k_stereo_44KHz.wav
1	49	4	4	2	I	1	0	573	1	Ⴇ	cut_k_stereo_44KHz.wav
1	50	2	1	0	C	1	1	892	1	Ⴊ	cut_u_stereo_44KHz.wav
1	51	3	4	2	I	2	0	687	1	Ⴂ	cut_k_stereo_44KHz.wav
1	52	1	2	0	C	1	1	604	1	Ⴟ	cut_a_stereo_44KHz.wav
1	53	3	3	2	I	2	0	657	1	Ⴂ	cut_o_stereo_44KHz.wav
1	54	4	3	2	I	2	0	806	1	Ⴇ	cut_o_stereo_44KHz.wav
1	55	2	2	1	C	1	0	719	0	Ⴊ	cut_a_stereo_44KHz.wav
1	56	1	1	1	C	2	1	1031	1	Ⴟ	cut_u_stereo_44KHz.wav
1	57	2	2	1	C	2	1	1550	1	Ⴊ	cut_a_stereo_44KHz.wav
1	58	3	3	2	I	1	0	643	1	Ⴂ	cut_o_stereo_44KHz.wav
1	59	4	4	2	I	2	0	728	1	Ⴇ	cut_k_stereo_44KHz.wav
1	60	1	2	0	C	1	1	533	1	Ⴟ	cut_a_stereo_44KHz.wav
1	61	4	3	2	I	2	0	635	0	Ⴇ	cut_o_stereo_44KHz.wav
1	62	1	1	1	C	1	0	1096	0	Ⴟ	cut_u_stereo_44KHz.wav
1	63	2	1	0	C	1	1	1122	1	Ⴊ	cut_u_stereo_44KHz.wav
1	64	3	4	2	I	0	0	0	0	Ⴂ	cut_k_stereo_44KHz.wav
1	65	2	1	0	C	1	1	757	1	Ⴊ	cut_u_stereo_44KHz.wav
1	66	4	4	2	I	0	0	0	0	Ⴇ	cut_k_stereo_44KHz.wav
1	67	1	1	1	C	1	0	792	0	Ⴟ	cut_u_stereo_44KHz.wav
1	68	3	3	2	I	0	0	0	0	Ⴂ	cut_o_stereo_44KHz.wav
1	69	1	2	0	C	1	1	752	1	Ⴟ	cut_a_stereo_44KHz.wav
1	70	4	3	2	I	1	0	816	1	Ⴇ	cut_o_stereo_44KHz.wav
1	71	3	4	2	I	0	0	0	0	Ⴂ	cut_k_stereo_44KHz.wav
1	72	2	2	1	C	1	0	705	0	Ⴊ	cut_a_stereo_44KHz.wav
1	73	3	3	2	I	0	0	0	0	Ⴂ	cut_o_stereo_44KHz.wav
1	74	4	4	2	I	1	0	698	0	Ⴇ	cut_k_stereo_44KHz.wav
1	75	2	2	1	C	1	0	912	0	Ⴊ	cut_a_stereo_44KHz.wav
1	76	1	1	1	C	0	0	0	0	Ⴟ	cut_u_stereo_44KHz.wav
1	77	2	1	0	C	1	1	760	1	Ⴊ	cut_u_stereo_44KHz.wav
1	78	4	3	2	I	0	0	0	0	Ⴇ	cut_o_stereo_44KHz.wav
1	79	3	4	2	I	2	0	625	1	Ⴂ	cut_k_stereo_44KHz.wav
1	80	1	2	0	C	1	1	491	1	Ⴟ	cut_a_stereo_44KHz.wav
1	81	4	3	2	I	2	0	677	0	Ⴇ	cut_o_stereo_44KHz.wav
1	82	1	1	1	C	1	0	857	0	Ⴟ	cut_u_stereo_44KHz.wav
1	83	2	1	0	C	1	1	685	1	Ⴊ	cut_u_stereo_44KHz.wav
1	84	3	4	2	I	2	0	626	1	Ⴂ	cut_k_stereo_44KHz.wav
1	85	4	4	2	I	2	0	811	1	Ⴇ	cut_k_stereo_44KHz.wav
1	86	2	2	1	C	1	0	666	0	Ⴊ	cut_a_stereo_44KHz.wav
1	87	3	3	2	I	2	0	633	1	Ⴂ	cut_o_stereo_44KHz.wav
1	88	1	2	0	C	1	1	648	1	Ⴟ	cut_a_stereo_44KHz.wav
1	89	3	3	2	I	2	0	640	1	Ⴂ	cut_o_stereo_44KHz.wav
1	90	1	2	0	C	1	1	689	1	Ⴟ	cut_a_stereo_44KHz.wav
1	91	2	2	1	C	2	1	642	1	Ⴊ	cut_a_stereo_44KHz.wav
1	92	4	4	2	I	1	0	662	1	Ⴇ	cut_k_stereo_44KHz.wav
1	93	3	4	2	I	1	0	648	1	Ⴂ	cut_k_stereo_44KHz.wav
1	94	1	1	1	C	1	0	541	0	Ⴟ	cut_u_stereo_44KHz.wav
1	95	2	1	0	C	2	0	538	0	Ⴊ	cut_u_stereo_44KHz.wav
1	96	4	3	2	I	1	0	384	1	Ⴇ	cut_o_stereo_44KHz.wav
1	97	2	2	1	C	2	1	495	1	Ⴊ	cut_a_stereo_44KHz.wav
1	98	1	1	1	C	2	1	648	1	Ⴟ	cut_u_stereo_44KHz.wav
1	99	4	4	2	I	2	0	627	0	Ⴇ	cut_k_stereo_44KHz.wav
1	100	3	4	2	I	2	0	611	1	Ⴂ	cut_k_stereo_44KHz.wav
1	101	1	2	0	C	1	1	456	1	Ⴟ	cut_a_stereo_44KHz.wav
1	102	4	3	2	I	2	0	665	1	Ⴇ	cut_o_stereo_44KHz.wav
1	103	3	3	2	I	2	0	656	0	Ⴂ	cut_o_stereo_44KHz.wav
1	104	2	1	0	C	1	1	702	1	Ⴊ	cut_u_stereo_44KHz.wav
1	105	4	4	2	I	2	0	590	1	Ⴇ	cut_k_stereo_44KHz.wav
1	106	2	2	1	C	2	1	737	1	Ⴊ	cut_a_stereo_44KHz.wav
1	107	1	1	1	C	1	0	706	0	Ⴟ	cut_u_stereo_44KHz.wav
1	108	3	3	2	I	2	0	658	1	Ⴂ	cut_o_stereo_44KHz.wav
1	109	4	3	2	I	1	0	476	1	Ⴇ	cut_o_stereo_44KHz.wav
1	110	2	1	0	C	2	0	654	0	Ⴊ	cut_u_stereo_44KHz.wav
1	111	3	4	2	I	2	0	749	0	Ⴂ	cut_k_stereo_44KHz.wav
1	112	1	2	0	C	1	1	669	1	Ⴟ	cut_a_stereo_44KHz.wav
1	113	3	3	2	I	2	0	660	1	Ⴂ	cut_o_stereo_44KHz.wav
1	114	1	2	0	C	1	1	989	1	Ⴟ	cut_a_stereo_44KHz.wav
1	115	4	4	2	I	2	0	591	1	Ⴇ	cut_k_stereo_44KHz.wav
1	116	2	1	0	C	1	1	554	1	Ⴊ	cut_u_stereo_44KHz.wav
1	117	1	1	1	C	2	1	679	1	Ⴟ	cut_u_stereo_44KHz.wav
1	118	2	2	1	C	2	1	937	1	Ⴊ	cut_a_stereo_44KHz.wav
1	119	4	3	2	I	2	0	805	1	Ⴇ	cut_o_stereo_44KHz.wav
1	120	3	4	2	I	1	0	711	0	Ⴂ	cut_k_stereo_44KHz.wav
1	121	2	2	1	C	2	1	426	1	Ⴊ	cut_a_stereo_44KHz.wav
1	122	1	1	1	C	1	0	345	0	Ⴟ	cut_u_stereo_44KHz.wav
1	123	4	4	2	I	2	0	743	1	Ⴇ	cut_k_stereo_44KHz.wav
1	124	3	4	2	I	2	0	695	1	Ⴂ	cut_k_stereo_44KHz.wav
1	125	4	3	2	I	2	0	710	1	Ⴇ	cut_o_stereo_44KHz.wav
1	126	3	3	2	I	2	0	722	1	Ⴂ	cut_o_stereo_44KHz.wav
1	127	1	2	0	C	1	1	868	1	Ⴟ	cut_a_stereo_44KHz.wav
1	128	2	1	0	C	1	1	755	1	Ⴊ	cut_u_stereo_44KHz.wav
1	129	3	4	2	I	2	0	621	1	Ⴂ	cut_k_stereo_44KHz.wav
1	130	1	2	0	C	1	1	665	1	Ⴟ	cut_a_stereo_44KHz.wav
1	131	4	3	2	I	2	0	679	1	Ⴇ	cut_o_stereo_44KHz.wav
1	132	2	1	0	C	1	1	561	1	Ⴊ	cut_u_stereo_44KHz.wav
1	133	1	1	1	C	1	0	728	0	Ⴟ	cut_u_stereo_44KHz.wav
1	134	2	2	1	C	1	0	739	0	Ⴊ	cut_a_stereo_44KHz.wav
1	135	3	3	2	I	2	0	788	0	Ⴂ	cut_o_stereo_44KHz.wav
1	136	4	4	2	I	2	0	961	1	Ⴇ	cut_k_stereo_44KHz.wav
1	137	3	4	2	I	2	0	588	1	Ⴂ	cut_k_stereo_44KHz.wav
1	138	1	2	0	C	1	1	643	1	Ⴟ	cut_a_stereo_44KHz.wav
1	139	4	3	2	I	2	0	689	1	Ⴇ	cut_o_stereo_44KHz.wav
1	140	2	1	0	C	1	1	493	1	Ⴊ	cut_u_stereo_44KHz.wav
1	141	4	4	2	I	2	0	600	1	Ⴇ	cut_k_stereo_44KHz.wav
1	142	2	2	1	C	1	0	610	0	Ⴊ	cut_a_stereo_44KHz.wav
1	143	1	1	1	C	2	1	1042	1	Ⴟ	cut_u_stereo_44KHz.wav
1	144	3	3	2	I	1	0	635	1	Ⴂ	cut_o_stereo_44KHz.wav
1	145	1	2	0	C	1	1	588	1	Ⴟ	cut_a_stereo_44KHz.wav
1	146	3	3	2	I	2	0	577	1	Ⴂ	cut_o_stereo_44KHz.wav
1	147	4	4	2	I	2	0	615	0	Ⴇ	cut_k_stereo_44KHz.wav
1	148	2	1	0	C	1	1	725	1	Ⴊ	cut_u_stereo_44KHz.wav
1	149	4	3	2	I	2	0	1058	1	Ⴇ	cut_o_stereo_44KHz.wav
1	150	3	4	2	I	1	0	753	1	Ⴂ	cut_k_stereo_44KHz.wav
1	151	2	2	1	C	2	1	1067	1	Ⴊ	cut_a_stereo_44KHz.wav
1	152	1	1	1	C	1	0	620	0	Ⴟ	cut_u_stereo_44KHz.wav
1	153	2	2	1	C	2	1	682	1	Ⴊ	cut_a_stereo_44KHz.wav
1	154	1	1	1	C	1	0	643	0	Ⴟ	cut_u_stereo_44KHz.wav
1	155	3	3	2	I	2	0	803	1	Ⴂ	cut_o_stereo_44KHz.wav
1	156	4	3	2	I	2	0	811	1	Ⴇ	cut_o_stereo_44KHz.wav
1	157	3	4	2	I	2	0	781	1	Ⴂ	cut_k_stereo_44KHz.wav
1	158	4	4	2	I	2	0	731	1	Ⴇ	cut_k_stereo_44KHz.wav
1	159	1	2	0	C	1	1	542	1	Ⴟ	cut_a_stereo_44KHz.wav
1	160	2	1	0	C	1	1	471	1	Ⴊ	cut_u_stereo_44KHz.wav
1	161	1	1	1	C	1	0	782	0	Ⴟ	cut_u_stereo_44KHz.wav
1	162	3	4	2	I	2	0	623	0	Ⴂ	cut_k_stereo_44KHz.wav
1	163	2	2	1	C	1	0	844	0	Ⴊ	cut_a_stereo_44KHz.wav
1	164	4	4	2	I	2	0	593	1	Ⴇ	cut_k_stereo_44KHz.wav
1	165	3	3	2	I	2	0	847	1	Ⴂ	cut_o_stereo_44KHz.wav
1	166	4	3	2	I	2	0	492	1	Ⴇ	cut_o_stereo_44KHz.wav
1	167	1	2	0	C	2	0	513	0	Ⴟ	cut_a_stereo_44KHz.wav
1	168	2	1	0	C	1	1	678	1	Ⴊ	cut_u_stereo_44KHz.wav
1	169	3	3	2	I	2	0	682	1	Ⴂ	cut_o_stereo_44KHz.wav
1	170	2	1	0	C	1	1	804	1	Ⴊ	cut_u_stereo_44KHz.wav
1	171	4	4	2	I	2	0	76	1	Ⴇ	cut_k_stereo_44KHz.wav
1	172	1	1	1	C	1	0	659	0	Ⴟ	cut_u_stereo_44KHz.wav
1	173	3	4	2	I	2	0	443	1	Ⴂ	cut_k_stereo_44KHz.wav
1	174	1	2	0	C	1	1	973	1	Ⴟ	cut_a_stereo_44KHz.wav
1	175	2	2	1	C	2	1	864	1	Ⴊ	cut_a_stereo_44KHz.wav
1	176	4	3	2	I	2	0	708	1	Ⴇ	cut_o_stereo_44KHz.wav
1	177	1	1	1	C	1	0	773	0	Ⴟ	cut_u_stereo_44KHz.wav
1	178	2	2	1	C	2	1	558	1	Ⴊ	cut_a_stereo_44KHz.wav
1	179	3	4	2	I	2	0	671	1	Ⴂ	cut_k_stereo_44KHz.wav
1	180	4	4	2	I	2	0	592	1	Ⴇ	cut_k_stereo_44KHz.wav
1	181	3	3	2	I	2	0	549	1	Ⴂ	cut_o_stereo_44KHz.wav
1	182	1	2	0	C	1	1	752	1	Ⴟ	cut_a_stereo_44KHz.wav
1	183	2	1	0	C	1	1	489	1	Ⴊ	cut_u_stereo_44KHz.wav
1	184	4	3	2	I	2	0	582	0	Ⴇ	cut_o_stereo_44KHz.wav
1	185	3	3	2	I	2	0	698	1	Ⴂ	cut_o_stereo_44KHz.wav
1	186	2	1	0	C	2	0	684	0	Ⴊ	cut_u_stereo_44KHz.wav
1	187	4	4	2	I	1	0	594	1	Ⴇ	cut_k_stereo_44KHz.wav
1	188	1	2	0	C	2	0	557	0	Ⴟ	cut_a_stereo_44KHz.wav
1	189	2	2	1	C	1	0	703	0	Ⴊ	cut_a_stereo_44KHz.wav
1	190	3	4	2	I	2	0	1435	1	Ⴂ	cut_k_stereo_44KHz.wav
1	191	1	1	1	C	2	1	574	1	Ⴟ	cut_u_stereo_44KHz.wav
1	192	4	3	2	I	2	0	1910	0	Ⴇ	cut_o_stereo_44KHz.wav
1	193	2	1	0	C	1	1	553	1	Ⴊ	cut_u_stereo_44KHz.wav
1	194	1	1	1	C	2	1	627	1	Ⴟ	cut_u_stereo_44KHz.wav
1	195	4	4	2	I	2	0	703	1	Ⴇ	cut_k_stereo_44KHz.wav
1	196	3	4	2	I	2	0	446	1	Ⴂ	cut_k_stereo_44KHz.wav
1	197	2	2	1	C	1	0	363	0	Ⴊ	cut_a_stereo_44KHz.wav
1	198	1	2	0	C	2	0	365	0	Ⴟ	cut_a_stereo_44KHz.wav
1	199	4	3	2	I	2	0	595	0	Ⴇ	cut_o_stereo_44KHz.wav
1	200	3	3	2	I	1	0	695	1	Ⴂ	cut_o_stereo_44KHz.wav
2	1	4	3	2	I	2	0	819	1	Ⴁ	cut_oei_stereo_44KHz.wav
2	2	1	1	1	C	2	1	881	1	Ⴃ	cut_n_stereo_44KHz.wav
2	3	3	4	2	I	1	0	932	1	Ⴜ	cut_s_stereo_44KHz.wav
2	4	2	1	0	C	2	0	811	0	Ⴡ	cut_n_stereo_44KHz.wav
2	5	3	3	2	I	1	0	752	1	Ⴜ	cut_oei_stereo_44KHz.wav
2	6	4	4	2	I	2	0	689	1	Ⴁ	cut_s_stereo_44KHz.wav
2	7	1	2	0	C	1	1	630	1	Ⴃ	cut_f_stereo_44KHz.wav
2	8	2	2	1	C	2	1	517	1	Ⴡ	cut_f_stereo_44KHz.wav
2	9	4	3	2	I	1	0	504	1	Ⴁ	cut_oei_stereo_44KHz.wav
2	10	3	3	2	I	2	0	509	1	Ⴜ	cut_oei_stereo_44KHz.wav
2	11	1	2	0	C	1	1	612	1	Ⴃ	cut_f_stereo_44KHz.wav
2	12	2	1	0	C	2	0	559	0	Ⴡ	cut_n_stereo_44KHz.wav
2	13	3	4	2	I	1	0	754	0	Ⴜ	cut_s_stereo_44KHz.wav
2	14	2	2	1	C	1	0	833	0	Ⴡ	cut_f_stereo_44KHz.wav
2	15	4	4	2	I	2	0	503	1	Ⴁ	cut_s_stereo_44KHz.wav
2	16	1	1	1	C	1	0	467	0	Ⴃ	cut_n_stereo_44KHz.wav
2	17	2	1	0	C	2	0	487	0	Ⴡ	cut_n_stereo_44KHz.wav
2	18	3	3	2	I	1	0	496	1	Ⴜ	cut_oei_stereo_44KHz.wav
2	19	4	4	2	I	2	0	397	1	Ⴁ	cut_s_stereo_44KHz.wav
2	20	1	1	1	C	1	0	400	0	Ⴃ	cut_n_stereo_44KHz.wav
2	21	2	2	1	C	2	1	537	1	Ⴡ	cut_f_stereo_44KHz.wav
2	22	4	3	2	I	1	0	103	1	Ⴁ	cut_oei_stereo_44KHz.wav
2	23	1	2	0	C	2	0	97	0	Ⴃ	cut_f_stereo_44KHz.wav
2	24	3	4	2	I	2	0	635	1	Ⴜ	cut_s_stereo_44KHz.wav
2	25	4	3	2	I	2	0	287	0	Ⴁ	cut_oei_stereo_44KHz.wav
2	26	1	2	0	C	1	1	407	1	Ⴃ	cut_f_stereo_44KHz.wav
2	27	3	3	2	I	2	0	394	1	Ⴜ	cut_oei_stereo_44KHz.wav
2	28	2	2	1	C	1	0	574	0	Ⴡ	cut_f_stereo_44KHz.wav
2	29	4	4	2	I	1	0	663	1	Ⴁ	cut_s_stereo_44KHz.wav
2	30	3	4	2	I	2	0	533	0	Ⴜ	cut_s_stereo_44KHz.wav
2	31	1	1	1	C	1	0	1303	0	Ⴃ	cut_n_stereo_44KHz.wav
2	32	2	1	0	C	2	0	525	0	Ⴡ	cut_n_stereo_44KHz.wav
2	33	4	4	2	I	1	0	506	1	Ⴁ	cut_s_stereo_44KHz.wav
2	34	3	3	2	I	2	0	357	1	Ⴜ	cut_oei_stereo_44KHz.wav
2	35	1	1	1	C	2	1	119	1	Ⴃ	cut_n_stereo_44KHz.wav
2	36	2	1	0	C	2	0	358	0	Ⴡ	cut_n_stereo_44KHz.wav
2	37	1	2	0	C	2	0	379	0	Ⴃ	cut_f_stereo_44KHz.wav
2	38	4	3	2	I	2	0	327	1	Ⴁ	cut_oei_stereo_44KHz.wav
2	39	3	4	2	I	2	0	478	1	Ⴜ	cut_s_stereo_44KHz.wav
2	40	2	2	1	C	1	0	55	0	Ⴡ	cut_f_stereo_44KHz.wav
2	41	3	3	2	I	2	0	326	1	Ⴜ	cut_oei_stereo_44KHz.wav
2	42	1	1	1	C	1	0	964	0	Ⴃ	cut_n_stereo_44KHz.wav
2	43	4	3	2	I	2	0	636	1	Ⴁ	cut_oei_stereo_44KHz.wav
2	44	2	2	1	C	2	1	38	1	Ⴡ	cut_f_stereo_44KHz.wav
2	45	4	4	2	I	1	0	50	1	Ⴁ	cut_s_stereo_44KHz.wav
2	46	2	1	0	C	2	0	502	0	Ⴡ	cut_n_stereo_44KHz.wav
2	47	1	2	0	C	2	0	577	0	Ⴃ	cut_f_stereo_44KHz.wav
2	48	3	4	2	I	1	0	548	1	Ⴜ	cut_s_stereo_44KHz.wav
2	49	1	2	0	C	2	0	921	0	Ⴃ	cut_f_stereo_44KHz.wav
2	50	2	2	1	C	1	0	949	0	Ⴡ	cut_f_stereo_44KHz.wav
2	51	4	3	2	I	1	0	667	0	Ⴁ	cut_oei_stereo_44KHz.wav
2	52	3	4	2	I	2	0	391	1	Ⴜ	cut_s_stereo_44KHz.wav
2	53	1	1	1	C	1	0	286	0	Ⴃ	cut_n_stereo_44KHz.wav
2	54	2	1	0	C	2	0	194	0	Ⴡ	cut_n_stereo_44KHz.wav
2	55	4	4	2	I	2	0	213	0	Ⴁ	cut_s_stereo_44KHz.wav
2	56	3	3	2	I	2	0	389	1	Ⴜ	cut_oei_stereo_44KHz.wav
2	57	2	1	0	C	1	1	421	1	Ⴡ	cut_n_stereo_44KHz.wav
2	58	4	4	2	I	2	0	356	1	Ⴁ	cut_s_stereo_44KHz.wav
2	59	1	1	1	C	1	0	661	0	Ⴃ	cut_n_stereo_44KHz.wav
2	60	3	4	2	I	2	0	439	0	Ⴜ	cut_s_stereo_44KHz.wav
2	61	1	2	0	C	2	0	685	0	Ⴃ	cut_f_stereo_44KHz.wav
2	62	2	2	1	C	1	0	566	0	Ⴡ	cut_f_stereo_44KHz.wav
2	63	3	3	2	I	2	0	532	1	Ⴜ	cut_oei_stereo_44KHz.wav
2	64	4	3	2	I	1	0	516	1	Ⴁ	cut_oei_stereo_44KHz.wav
2	65	2	2	1	C	2	1	53	1	Ⴡ	cut_f_stereo_44KHz.wav
2	66	1	1	1	C	1	0	466	0	Ⴃ	cut_n_stereo_44KHz.wav
2	67	3	4	2	I	2	0	811	1	Ⴜ	cut_s_stereo_44KHz.wav
2	68	4	3	2	I	2	0	571	1	Ⴁ	cut_oei_stereo_44KHz.wav
2	69	3	3	2	I	1	0	576	0	Ⴜ	cut_oei_stereo_44KHz.wav
2	70	4	4	2	I	2	0	610	1	Ⴁ	cut_s_stereo_44KHz.wav
2	71	2	1	0	C	2	0	1285	0	Ⴡ	cut_n_stereo_44KHz.wav
2	72	1	2	0	C	1	1	1004	1	Ⴃ	cut_f_stereo_44KHz.wav
2	73	3	3	2	I	2	0	440	1	Ⴜ	cut_oei_stereo_44KHz.wav
2	74	4	4	2	I	1	0	525	1	Ⴁ	cut_s_stereo_44KHz.wav
2	75	2	2	1	C	2	1	643	1	Ⴡ	cut_f_stereo_44KHz.wav
2	76	1	2	0	C	2	0	833	0	Ⴃ	cut_f_stereo_44KHz.wav
2	77	3	4	2	I	2	0	470	1	Ⴜ	cut_s_stereo_44KHz.wav
2	78	1	1	1	C	1	0	674	0	Ⴃ	cut_n_stereo_44KHz.wav
2	79	2	1	0	C	2	0	379	0	Ⴡ	cut_n_stereo_44KHz.wav
2	80	4	3	2	I	2	0	87	1	Ⴁ	cut_oei_stereo_44KHz.wav
2	81	2	2	1	C	2	1	305	1	Ⴡ	cut_f_stereo_44KHz.wav
2	82	4	4	2	I	1	0	344	1	Ⴁ	cut_s_stereo_44KHz.wav
2	83	3	4	2	I	1	0	481	1	Ⴜ	cut_s_stereo_44KHz.wav
2	84	1	1	1	C	2	1	384	1	Ⴃ	cut_n_stereo_44KHz.wav
2	85	3	3	2	I	1	0	429	1	Ⴜ	cut_oei_stereo_44KHz.wav
2	86	4	3	2	I	1	0	585	1	Ⴁ	cut_oei_stereo_44KHz.wav
2	87	2	1	0	C	2	0	459	0	Ⴡ	cut_n_stereo_44KHz.wav
2	88	1	2	0	C	1	1	751	1	Ⴃ	cut_f_stereo_44KHz.wav
2	89	3	3	2	I	2	0	468	0	Ⴜ	cut_oei_stereo_44KHz.wav
2	90	1	2	0	C	1	1	532	1	Ⴃ	cut_f_stereo_44KHz.wav
2	91	4	3	2	I	2	0	450	0	Ⴁ	cut_oei_stereo_44KHz.wav
2	92	2	1	0	C	1	1	502	1	Ⴡ	cut_n_stereo_44KHz.wav
2	93	1	1	1	C	2	1	530	1	Ⴃ	cut_n_stereo_44KHz.wav
2	94	4	4	2	I	2	0	801	1	Ⴁ	cut_s_stereo_44KHz.wav
2	95	3	4	2	I	1	0	419	0	Ⴜ	cut_s_stereo_44KHz.wav
2	96	2	2	1	C	2	1	476	1	Ⴡ	cut_f_stereo_44KHz.wav
2	97	3	3	2	I	1	0	627	1	Ⴜ	cut_oei_stereo_44KHz.wav
2	98	1	1	1	C	2	1	932	1	Ⴃ	cut_n_stereo_44KHz.wav
2	99	4	3	2	I	1	0	675	1	Ⴁ	cut_oei_stereo_44KHz.wav
2	100	2	1	0	C	2	0	569	0	Ⴡ	cut_n_stereo_44KHz.wav
2	101	3	4	2	I	1	0	379	0	Ⴜ	cut_s_stereo_44KHz.wav
2	102	1	2	0	C	2	0	457	0	Ⴃ	cut_f_stereo_44KHz.wav
2	103	4	4	2	I	2	0	390	1	Ⴁ	cut_s_stereo_44KHz.wav
2	104	2	2	1	C	1	0	401	0	Ⴡ	cut_f_stereo_44KHz.wav
2	105	1	2	0	C	2	0	514	0	Ⴃ	cut_f_stereo_44KHz.wav
2	106	3	4	2	I	1	0	189	1	Ⴜ	cut_s_stereo_44KHz.wav
2	107	2	1	0	C	1	1	415	1	Ⴡ	cut_n_stereo_44KHz.wav
2	108	4	4	2	I	2	0	431	0	Ⴁ	cut_s_stereo_44KHz.wav
2	109	3	3	2	I	1	0	492	0	Ⴜ	cut_oei_stereo_44KHz.wav
2	110	1	1	1	C	2	1	362	1	Ⴃ	cut_n_stereo_44KHz.wav
2	111	2	2	1	C	1	0	896	0	Ⴡ	cut_f_stereo_44KHz.wav
2	112	4	3	2	I	2	0	552	1	Ⴁ	cut_oei_stereo_44KHz.wav
2	113	1	2	0	C	2	0	31	0	Ⴃ	cut_f_stereo_44KHz.wav
2	114	2	2	1	C	1	0	566	0	Ⴡ	cut_f_stereo_44KHz.wav
2	115	4	4	2	I	2	0	281	1	Ⴁ	cut_s_stereo_44KHz.wav
2	116	3	3	2	I	1	0	219	1	Ⴜ	cut_oei_stereo_44KHz.wav
2	117	2	1	0	C	2	0	923	0	Ⴡ	cut_n_stereo_44KHz.wav
2	118	3	4	2	I	2	0	544	1	Ⴜ	cut_s_stereo_44KHz.wav
2	119	4	3	2	I	1	0	357	1	Ⴁ	cut_oei_stereo_44KHz.wav
2	120	1	1	1	C	2	1	41	1	Ⴃ	cut_n_stereo_44KHz.wav
2	121	4	4	2	I	2	0	438	1	Ⴁ	cut_s_stereo_44KHz.wav
2	122	1	2	0	C	2	0	132	0	Ⴃ	cut_f_stereo_44KHz.wav
2	123	2	1	0	C	1	1	377	1	Ⴡ	cut_n_stereo_44KHz.wav
2	124	3	3	2	I	2	0	538	1	Ⴜ	cut_oei_stereo_44KHz.wav
2	125	4	3	2	I	1	0	1063	1	Ⴁ	cut_oei_stereo_44KHz.wav
2	126	2	2	1	C	1	0	518	0	Ⴡ	cut_f_stereo_44KHz.wav
2	127	1	1	1	C	2	1	350	1	Ⴃ	cut_n_stereo_44KHz.wav
2	128	3	4	2	I	1	0	842	1	Ⴜ	cut_s_stereo_44KHz.wav
2	129	2	2	1	C	2	1	323	1	Ⴡ	cut_f_stereo_44KHz.wav
2	130	3	3	2	I	1	0	509	1	Ⴜ	cut_oei_stereo_44KHz.wav
2	131	4	4	2	I	1	0	400	1	Ⴁ	cut_s_stereo_44KHz.wav
2	132	1	2	0	C	2	0	369	0	Ⴃ	cut_f_stereo_44KHz.wav
2	133	3	4	2	I	1	0	995	1	Ⴜ	cut_s_stereo_44KHz.wav
2	134	4	3	2	I	1	0	445	1	Ⴁ	cut_oei_stereo_44KHz.wav
2	135	2	1	0	C	1	1	248	1	Ⴡ	cut_n_stereo_44KHz.wav
2	136	1	1	1	C	2	1	862	1	Ⴃ	cut_n_stereo_44KHz.wav
2	137	3	3	2	I	1	0	353	1	Ⴜ	cut_oei_stereo_44KHz.wav
2	138	1	2	0	C	1	1	307	1	Ⴃ	cut_f_stereo_44KHz.wav
2	139	4	4	2	I	2	0	540	1	Ⴁ	cut_s_stereo_44KHz.wav
2	140	2	2	1	C	1	0	368	0	Ⴡ	cut_f_stereo_44KHz.wav
2	141	4	3	2	I	2	0	359	1	Ⴁ	cut_oei_stereo_44KHz.wav
2	142	3	4	2	I	2	0	306	1	Ⴜ	cut_s_stereo_44KHz.wav
2	143	1	1	1	C	1	0	526	0	Ⴃ	cut_n_stereo_44KHz.wav
2	144	2	1	0	C	2	0	459	0	Ⴡ	cut_n_stereo_44KHz.wav
2	145	3	3	2	I	2	0	945	1	Ⴜ	cut_oei_stereo_44KHz.wav
2	146	2	1	0	C	1	1	458	1	Ⴡ	cut_n_stereo_44KHz.wav
2	147	4	4	2	I	2	0	55	0	Ⴁ	cut_s_stereo_44KHz.wav
2	148	1	1	1	C	1	0	679	0	Ⴃ	cut_n_stereo_44KHz.wav
2	149	3	4	2	I	2	0	457	1	Ⴜ	cut_s_stereo_44KHz.wav
2	150	4	3	2	I	1	0	494	0	Ⴁ	cut_oei_stereo_44KHz.wav
2	151	2	2	1	C	2	1	239	1	Ⴡ	cut_f_stereo_44KHz.wav
2	152	1	2	0	C	2	0	412	0	Ⴃ	cut_f_stereo_44KHz.wav
2	153	4	3	2	I	1	0	403	1	Ⴁ	cut_oei_stereo_44KHz.wav
2	154	2	2	1	C	2	1	741	1	Ⴡ	cut_f_stereo_44KHz.wav
2	155	1	1	1	C	1	0	496	0	Ⴃ	cut_n_stereo_44KHz.wav
2	156	3	4	2	I	2	0	240	1	Ⴜ	cut_s_stereo_44KHz.wav
2	157	4	4	2	I	2	0	355	0	Ⴁ	cut_s_stereo_44KHz.wav
2	158	3	3	2	I	1	0	659	1	Ⴜ	cut_oei_stereo_44KHz.wav
2	159	1	2	0	C	2	0	377	0	Ⴃ	cut_f_stereo_44KHz.wav
2	160	2	1	0	C	1	1	1254	1	Ⴡ	cut_n_stereo_44KHz.wav
2	161	3	3	2	I	2	0	1198	1	Ⴜ	cut_oei_stereo_44KHz.wav
2	162	2	2	1	C	1	0	793	0	Ⴡ	cut_f_stereo_44KHz.wav
2	163	1	2	0	C	1	1	1335	1	Ⴃ	cut_f_stereo_44KHz.wav
2	164	4	3	2	I	2	0	720	0	Ⴁ	cut_oei_stereo_44KHz.wav
2	165	1	1	1	C	1	0	980	0	Ⴃ	cut_n_stereo_44KHz.wav
2	166	4	4	2	I	1	0	760	1	Ⴁ	cut_s_stereo_44KHz.wav
2	167	2	1	0	C	1	1	351	1	Ⴡ	cut_n_stereo_44KHz.wav
2	168	3	4	2	I	2	0	537	0	Ⴜ	cut_s_stereo_44KHz.wav
2	169	2	1	0	C	2	0	185	0	Ⴡ	cut_n_stereo_44KHz.wav
2	170	1	2	0	C	1	1	297	1	Ⴃ	cut_f_stereo_44KHz.wav
2	171	4	3	2	I	2	0	446	0	Ⴁ	cut_oei_stereo_44KHz.wav
2	172	3	4	2	I	2	0	462	1	Ⴜ	cut_s_stereo_44KHz.wav
2	173	2	2	1	C	1	0	564	0	Ⴡ	cut_f_stereo_44KHz.wav
2	174	4	4	2	I	2	0	120	1	Ⴁ	cut_s_stereo_44KHz.wav
2	175	3	3	2	I	1	0	1665	1	Ⴜ	cut_oei_stereo_44KHz.wav
2	176	1	1	1	C	2	1	563	1	Ⴃ	cut_n_stereo_44KHz.wav
2	177	2	2	1	C	1	0	1049	0	Ⴡ	cut_f_stereo_44KHz.wav
2	178	1	2	0	C	2	0	719	0	Ⴃ	cut_f_stereo_44KHz.wav
2	179	4	3	2	I	1	0	439	1	Ⴁ	cut_oei_stereo_44KHz.wav
2	180	3	3	2	I	1	0	337	1	Ⴜ	cut_oei_stereo_44KHz.wav
2	181	2	1	0	C	2	0	460	0	Ⴡ	cut_n_stereo_44KHz.wav
2	182	4	4	2	I	1	0	615	1	Ⴁ	cut_s_stereo_44KHz.wav
2	183	1	1	1	C	2	1	507	1	Ⴃ	cut_n_stereo_44KHz.wav
2	184	3	4	2	I	2	0	774	1	Ⴜ	cut_s_stereo_44KHz.wav
2	185	1	1	1	C	1	0	861	0	Ⴃ	cut_n_stereo_44KHz.wav
2	186	2	2	1	C	1	0	525	0	Ⴡ	cut_f_stereo_44KHz.wav
2	187	3	3	2	I	2	0	1904	1	Ⴜ	cut_oei_stereo_44KHz.wav
2	188	4	3	2	I	2	0	486	1	Ⴁ	cut_oei_stereo_44KHz.wav
2	189	3	4	2	I	2	0	371	1	Ⴜ	cut_s_stereo_44KHz.wav
2	190	2	1	0	C	2	0	821	0	Ⴡ	cut_n_stereo_44KHz.wav
2	191	4	4	2	I	2	0	315	1	Ⴁ	cut_s_stereo_44KHz.wav
2	192	1	2	0	C	2	0	619	0	Ⴃ	cut_f_stereo_44KHz.wav
2	193	4	4	2	I	1	0	400	1	Ⴁ	cut_s_stereo_44KHz.wav
2	194	3	4	2	I	2	0	493	0	Ⴜ	cut_s_stereo_44KHz.wav
2	195	1	1	1	C	2	1	245	1	Ⴃ	cut_n_stereo_44KHz.wav
2	196	2	1	0	C	2	0	483	0	Ⴡ	cut_n_stereo_44KHz.wav
2	197	4	3	2	I	2	0	492	1	Ⴁ	cut_oei_stereo_44KHz.wav
2	198	1	2	0	C	2	0	396	0	Ⴃ	cut_f_stereo_44KHz.wav
2	199	2	2	1	C	2	1	185	1	Ⴡ	cut_f_stereo_44KHz.wav
2	200	3	3	2	I	2	0	229	1	Ⴜ	cut_oei_stereo_44KHz.wav
3	1	4	3	2	I	2	0	860	1	Ⴉ	cut_ei_stereo_44KHz.wav
3	2	2	2	1	C	2	1	474	1	Ⴖ	cut_ui_stereo_44KHz.wav
3	3	1	2	0	C	2	0	431	0	Ⴏ	cut_ui_stereo_44KHz.wav
3	4	3	4	2	I	2	0	459	1	Ⴌ	cut_r_stereo_44KHz.wav
3	5	1	1	1	C	1	0	548	0	Ⴏ	cut_j_stereo_44KHz.wav
3	6	3	3	2	I	2	0	595	1	Ⴌ	cut_ei_stereo_44KHz.wav
3	7	4	4	2	I	2	0	356	1	Ⴉ	cut_r_stereo_44KHz.wav
3	8	2	1	0	C	1	1	423	1	Ⴖ	cut_j_stereo_44KHz.wav
3	9	1	1	1	C	2	1	425	1	Ⴏ	cut_j_stereo_44KHz.wav
3	10	4	4	2	I	2	0	15	0	Ⴉ	cut_r_stereo_44KHz.wav
3	11	2	1	0	C	1	1	430	1	Ⴖ	cut_j_stereo_44KHz.wav
3	12	3	4	2	I	1	0	1360	1	Ⴌ	cut_r_stereo_44KHz.wav
3	13	4	3	2	I	2	0	555	1	Ⴉ	cut_ei_stereo_44KHz.wav
3	14	1	2	0	C	2	0	421	0	Ⴏ	cut_ui_stereo_44KHz.wav
3	15	3	3	2	I	2	0	506	1	Ⴌ	cut_ei_stereo_44KHz.wav
3	16	2	2	1	C	2	1	373	1	Ⴖ	cut_ui_stereo_44KHz.wav
3	17	1	1	1	C	1	0	142	0	Ⴏ	cut_j_stereo_44KHz.wav
3	18	2	2	1	C	2	1	407	1	Ⴖ	cut_ui_stereo_44KHz.wav
3	19	3	3	2	I	2	0	345	1	Ⴌ	cut_ei_stereo_44KHz.wav
3	20	4	3	2	I	2	0	433	1	Ⴉ	cut_ei_stereo_44KHz.wav
3	21	2	1	0	C	2	0	49	0	Ⴖ	cut_j_stereo_44KHz.wav
3	22	4	4	2	I	2	0	501	0	Ⴉ	cut_r_stereo_44KHz.wav
3	23	3	4	2	I	1	0	529	0	Ⴌ	cut_r_stereo_44KHz.wav
3	24	1	2	0	C	1	1	548	1	Ⴏ	cut_ui_stereo_44KHz.wav
3	25	3	4	2	I	2	0	572	1	Ⴌ	cut_r_stereo_44KHz.wav
3	26	2	2	1	C	2	1	1036	1	Ⴖ	cut_ui_stereo_44KHz.wav
3	27	4	4	2	I	2	0	520	1	Ⴉ	cut_r_stereo_44KHz.wav
3	28	1	2	0	C	2	0	564	0	Ⴏ	cut_ui_stereo_44KHz.wav
3	29	4	3	2	I	1	0	549	1	Ⴉ	cut_ei_stereo_44KHz.wav
3	30	3	3	2	I	2	0	620	1	Ⴌ	cut_ei_stereo_44KHz.wav
3	31	1	1	1	C	1	0	442	0	Ⴏ	cut_j_stereo_44KHz.wav
3	32	2	1	0	C	2	0	463	0	Ⴖ	cut_j_stereo_44KHz.wav
3	33	3	4	2	I	2	0	572	1	Ⴌ	cut_r_stereo_44KHz.wav
3	34	1	1	1	C	2	1	263	1	Ⴏ	cut_j_stereo_44KHz.wav
3	35	4	3	2	I	1	0	20	1	Ⴉ	cut_ei_stereo_44KHz.wav
3	36	2	1	0	C	1	1	422	1	Ⴖ	cut_j_stereo_44KHz.wav
3	37	4	4	2	I	2	0	408	1	Ⴉ	cut_r_stereo_44KHz.wav
3	38	2	2	1	C	1	0	488	0	Ⴖ	cut_ui_stereo_44KHz.wav
3	39	3	3	2	I	2	0	641	0	Ⴌ	cut_ei_stereo_44KHz.wav
3	40	1	2	0	C	2	0	568	0	Ⴏ	cut_ui_stereo_44KHz.wav
3	41	4	4	2	I	2	0	351	0	Ⴉ	cut_r_stereo_44KHz.wav
3	42	3	3	2	I	1	0	438	1	Ⴌ	cut_ei_stereo_44KHz.wav
3	43	2	2	1	C	1	0	465	0	Ⴖ	cut_ui_stereo_44KHz.wav
3	44	1	1	1	C	2	1	402	1	Ⴏ	cut_j_stereo_44KHz.wav
3	45	4	3	2	I	1	0	3	1	Ⴉ	cut_ei_stereo_44KHz.wav
3	46	1	2	0	C	1	1	130	1	Ⴏ	cut_ui_stereo_44KHz.wav
3	47	2	1	0	C	1	1	210	1	Ⴖ	cut_j_stereo_44KHz.wav
3	48	3	4	2	I	2	0	1085	1	Ⴌ	cut_r_stereo_44KHz.wav
3	49	4	4	2	I	0	0	0	0	Ⴉ	cut_r_stereo_44KHz.wav
3	50	2	1	0	C	1	1	424	1	Ⴖ	cut_j_stereo_44KHz.wav
3	51	3	4	2	I	2	0	747	1	Ⴌ	cut_r_stereo_44KHz.wav
3	52	1	1	1	C	1	0	460	0	Ⴏ	cut_j_stereo_44KHz.wav
3	53	2	2	1	C	2	1	621	1	Ⴖ	cut_ui_stereo_44KHz.wav
3	54	1	2	0	C	0	0	0	0	Ⴏ	cut_ui_stereo_44KHz.wav
3	55	3	3	2	I	1	0	1498	0	Ⴌ	cut_ei_stereo_44KHz.wav
3	56	4	3	2	I	1	0	1300	1	Ⴉ	cut_ei_stereo_44KHz.wav
3	57	1	1	1	C	1	0	904	0	Ⴏ	cut_j_stereo_44KHz.wav
3	58	4	4	2	I	0	0	0	0	Ⴉ	cut_r_stereo_44KHz.wav
3	59	2	2	1	C	1	0	607	0	Ⴖ	cut_ui_stereo_44KHz.wav
3	60	3	3	2	I	0	0	0	0	Ⴌ	cut_ei_stereo_44KHz.wav
3	61	1	2	0	C	0	0	0	0	Ⴏ	cut_ui_stereo_44KHz.wav
3	62	3	4	2	I	1	0	505	0	Ⴌ	cut_r_stereo_44KHz.wav
3	63	4	3	2	I	2	0	708	1	Ⴉ	cut_ei_stereo_44KHz.wav
3	64	2	1	0	C	2	0	694	0	Ⴖ	cut_j_stereo_44KHz.wav
3	65	3	4	2	I	2	0	487	0	Ⴌ	cut_r_stereo_44KHz.wav
3	66	4	3	2	I	2	0	519	1	Ⴉ	cut_ei_stereo_44KHz.wav
3	67	2	2	1	C	2	1	982	1	Ⴖ	cut_ui_stereo_44KHz.wav
3	68	1	1	1	C	1	0	700	0	Ⴏ	cut_j_stereo_44KHz.wav
3	69	2	1	0	C	1	1	400	1	Ⴖ	cut_j_stereo_44KHz.wav
3	70	3	3	2	I	2	0	440	1	Ⴌ	cut_ei_stereo_44KHz.wav
3	71	1	2	0	C	2	0	563	0	Ⴏ	cut_ui_stereo_44KHz.wav
3	72	4	4	2	I	1	0	435	0	Ⴉ	cut_r_stereo_44KHz.wav
3	73	2	2	1	C	2	1	498	1	Ⴖ	cut_ui_stereo_44KHz.wav
3	74	3	4	2	I	1	0	665	1	Ⴌ	cut_r_stereo_44KHz.wav
3	75	1	2	0	C	2	0	314	0	Ⴏ	cut_ui_stereo_44KHz.wav
3	76	4	4	2	I	2	0	1138	1	Ⴉ	cut_r_stereo_44KHz.wav
3	77	1	1	1	C	1	0	337	0	Ⴏ	cut_j_stereo_44KHz.wav
3	78	3	3	2	I	2	0	310	1	Ⴌ	cut_ei_stereo_44KHz.wav
3	79	2	1	0	C	2	0	416	0	Ⴖ	cut_j_stereo_44KHz.wav
3	80	4	3	2	I	1	0	412	1	Ⴉ	cut_ei_stereo_44KHz.wav
3	81	1	1	1	C	2	1	445	1	Ⴏ	cut_j_stereo_44KHz.wav
3	82	3	3	2	I	2	0	708	1	Ⴌ	cut_ei_stereo_44KHz.wav
3	83	4	3	2	I	1	0	396	1	Ⴉ	cut_ei_stereo_44KHz.wav
3	84	2	1	0	C	1	1	481	1	Ⴖ	cut_j_stereo_44KHz.wav
3	85	1	2	0	C	1	1	1673	1	Ⴏ	cut_ui_stereo_44KHz.wav
3	86	4	4	2	I	2	0	370	1	Ⴉ	cut_r_stereo_44KHz.wav
3	87	3	4	2	I	2	0	477	1	Ⴌ	cut_r_stereo_44KHz.wav
3	88	2	2	1	C	1	0	494	0	Ⴖ	cut_ui_stereo_44KHz.wav
3	89	4	3	2	I	2	0	333	1	Ⴉ	cut_ei_stereo_44KHz.wav
3	90	2	1	0	C	1	1	1	1	Ⴖ	cut_j_stereo_44KHz.wav
3	91	1	1	1	C	2	1	376	1	Ⴏ	cut_j_stereo_44KHz.wav
3	92	3	3	2	I	1	0	506	1	Ⴌ	cut_ei_stereo_44KHz.wav
3	93	2	2	1	C	2	1	402	1	Ⴖ	cut_ui_stereo_44KHz.wav
3	94	4	4	2	I	1	0	386	1	Ⴉ	cut_r_stereo_44KHz.wav
3	95	3	4	2	I	2	0	318	1	Ⴌ	cut_r_stereo_44KHz.wav
3	96	1	2	0	C	1	1	179	1	Ⴏ	cut_ui_stereo_44KHz.wav
3	97	3	4	2	I	1	0	482	1	Ⴌ	cut_r_stereo_44KHz.wav
3	98	2	1	0	C	1	1	449	1	Ⴖ	cut_j_stereo_44KHz.wav
3	99	4	4	2	I	2	0	449	0	Ⴉ	cut_r_stereo_44KHz.wav
3	100	1	1	1	C	1	0	321	0	Ⴏ	cut_j_stereo_44KHz.wav
3	101	4	3	2	I	2	0	412	1	Ⴉ	cut_ei_stereo_44KHz.wav
3	102	1	2	0	C	1	1	370	1	Ⴏ	cut_ui_stereo_44KHz.wav
3	103	2	2	1	C	2	1	318	1	Ⴖ	cut_ui_stereo_44KHz.wav
3	104	3	3	2	I	2	0	3	0	Ⴌ	cut_ei_stereo_44KHz.wav
3	105	1	2	0	C	2	0	458	0	Ⴏ	cut_ui_stereo_44KHz.wav
3	106	4	3	2	I	2	0	973	1	Ⴉ	cut_ei_stereo_44KHz.wav
3	107	2	1	0	C	2	0	403	0	Ⴖ	cut_j_stereo_44KHz.wav
3	108	3	4	2	I	1	0	482	1	Ⴌ	cut_r_stereo_44KHz.wav
3	109	1	1	1	C	2	1	413	1	Ⴏ	cut_j_stereo_44KHz.wav
3	110	2	2	1	C	1	0	351	0	Ⴖ	cut_ui_stereo_44KHz.wav
3	111	4	4	2	I	2	0	321	1	Ⴉ	cut_r_stereo_44KHz.wav
3	112	3	3	2	I	1	0	917	1	Ⴌ	cut_ei_stereo_44KHz.wav
3	113	4	3	2	I	2	0	379	1	Ⴉ	cut_ei_stereo_44KHz.wav
3	114	2	2	1	C	2	1	352	1	Ⴖ	cut_ui_stereo_44KHz.wav
3	115	3	4	2	I	1	0	334	1	Ⴌ	cut_r_stereo_44KHz.wav
3	116	1	2	0	C	2	0	321	0	Ⴏ	cut_ui_stereo_44KHz.wav
3	117	2	1	0	C	1	1	374	1	Ⴖ	cut_j_stereo_44KHz.wav
3	118	4	4	2	I	2	0	247	0	Ⴉ	cut_r_stereo_44KHz.wav
3	119	1	1	1	C	1	0	717	0	Ⴏ	cut_j_stereo_44KHz.wav
3	120	3	3	2	I	2	0	437	1	Ⴌ	cut_ei_stereo_44KHz.wav
3	121	1	1	1	C	1	0	684	0	Ⴏ	cut_j_stereo_44KHz.wav
3	122	3	3	2	I	2	0	567	1	Ⴌ	cut_ei_stereo_44KHz.wav
3	123	4	4	2	I	2	0	887	0	Ⴉ	cut_r_stereo_44KHz.wav
3	124	2	1	0	C	2	0	380	0	Ⴖ	cut_j_stereo_44KHz.wav
3	125	1	2	0	C	2	0	216	0	Ⴏ	cut_ui_stereo_44KHz.wav
3	126	2	2	1	C	1	0	160	0	Ⴖ	cut_ui_stereo_44KHz.wav
3	127	3	4	2	I	2	0	244	1	Ⴌ	cut_r_stereo_44KHz.wav
3	128	4	3	2	I	1	0	5	0	Ⴉ	cut_ei_stereo_44KHz.wav
3	129	2	2	1	C	2	1	383	1	Ⴖ	cut_ui_stereo_44KHz.wav
3	130	3	4	2	I	0	0	0	0	Ⴌ	cut_r_stereo_44KHz.wav
3	131	1	1	1	C	0	0	0	0	Ⴏ	cut_j_stereo_44KHz.wav
3	132	4	3	2	I	1	0	1659	1	Ⴉ	cut_ei_stereo_44KHz.wav
3	133	2	1	0	C	0	0	0	0	Ⴖ	cut_j_stereo_44KHz.wav
3	134	1	2	0	C	0	0	0	0	Ⴏ	cut_ui_stereo_44KHz.wav
3	135	3	3	2	I	2	0	801	1	Ⴌ	cut_ei_stereo_44KHz.wav
3	136	4	4	2	I	2	0	819	1	Ⴉ	cut_r_stereo_44KHz.wav
3	137	3	3	2	I	0	0	0	0	Ⴌ	cut_ei_stereo_44KHz.wav
3	138	4	3	2	I	2	0	760	1	Ⴉ	cut_ei_stereo_44KHz.wav
3	139	1	2	0	C	1	1	548	1	Ⴏ	cut_ui_stereo_44KHz.wav
3	140	2	2	1	C	2	1	374	1	Ⴖ	cut_ui_stereo_44KHz.wav
3	141	4	4	2	I	2	0	852	1	Ⴉ	cut_r_stereo_44KHz.wav
3	142	1	1	1	C	2	1	355	1	Ⴏ	cut_j_stereo_44KHz.wav
3	143	2	1	0	C	2	0	538	0	Ⴖ	cut_j_stereo_44KHz.wav
3	144	3	4	2	I	2	0	593	1	Ⴌ	cut_r_stereo_44KHz.wav
3	145	1	1	1	C	2	1	756	1	Ⴏ	cut_j_stereo_44KHz.wav
3	146	2	2	1	C	1	0	1101	0	Ⴖ	cut_ui_stereo_44KHz.wav
3	147	3	4	2	I	2	0	1050	1	Ⴌ	cut_r_stereo_44KHz.wav
3	148	4	3	2	I	2	0	801	1	Ⴉ	cut_ei_stereo_44KHz.wav
3	149	1	2	0	C	2	0	437	0	Ⴏ	cut_ui_stereo_44KHz.wav
3	150	3	3	2	I	1	0	219	1	Ⴌ	cut_ei_stereo_44KHz.wav
3	151	2	1	0	C	2	0	419	0	Ⴖ	cut_j_stereo_44KHz.wav
3	152	4	4	2	I	1	0	119	1	Ⴉ	cut_r_stereo_44KHz.wav
3	153	2	2	1	C	2	1	609	1	Ⴖ	cut_ui_stereo_44KHz.wav
3	154	4	4	2	I	2	0	484	1	Ⴉ	cut_r_stereo_44KHz.wav
3	155	3	3	2	I	1	0	449	1	Ⴌ	cut_ei_stereo_44KHz.wav
3	156	1	2	0	C	2	0	465	0	Ⴏ	cut_ui_stereo_44KHz.wav
3	157	2	1	0	C	1	1	491	1	Ⴖ	cut_j_stereo_44KHz.wav
3	158	1	1	1	C	2	1	796	1	Ⴏ	cut_j_stereo_44KHz.wav
3	159	4	3	2	I	1	0	361	0	Ⴉ	cut_ei_stereo_44KHz.wav
3	160	3	4	2	I	2	0	117	1	Ⴌ	cut_r_stereo_44KHz.wav
3	161	1	2	0	C	2	0	748	0	Ⴏ	cut_ui_stereo_44KHz.wav
3	162	4	3	2	I	1	0	639	1	Ⴉ	cut_ei_stereo_44KHz.wav
3	163	2	1	0	C	2	0	629	0	Ⴖ	cut_j_stereo_44KHz.wav
3	164	3	4	2	I	1	0	366	0	Ⴌ	cut_r_stereo_44KHz.wav
3	165	4	4	2	I	2	0	318	1	Ⴉ	cut_r_stereo_44KHz.wav
3	166	3	3	2	I	1	0	289	1	Ⴌ	cut_ei_stereo_44KHz.wav
3	167	2	2	1	C	2	1	396	1	Ⴖ	cut_ui_stereo_44KHz.wav
3	168	1	1	1	C	2	1	316	1	Ⴏ	cut_j_stereo_44KHz.wav
3	169	4	3	2	I	2	0	221	1	Ⴉ	cut_ei_stereo_44KHz.wav
3	170	2	2	1	C	2	1	567	1	Ⴖ	cut_ui_stereo_44KHz.wav
3	171	3	4	2	I	2	0	379	1	Ⴌ	cut_r_stereo_44KHz.wav
3	172	1	1	1	C	2	1	497	1	Ⴏ	cut_j_stereo_44KHz.wav
3	173	2	1	0	C	2	0	374	0	Ⴖ	cut_j_stereo_44KHz.wav
3	174	1	2	0	C	1	1	365	1	Ⴏ	cut_ui_stereo_44KHz.wav
3	175	3	3	2	I	1	0	317	1	Ⴌ	cut_ei_stereo_44KHz.wav
3	176	4	4	2	I	1	0	355	1	Ⴉ	cut_r_stereo_44KHz.wav
3	177	3	3	2	I	2	0	478	1	Ⴌ	cut_ei_stereo_44KHz.wav
3	178	4	3	2	I	2	0	456	0	Ⴉ	cut_ei_stereo_44KHz.wav
3	179	1	1	1	C	2	1	472	1	Ⴏ	cut_j_stereo_44KHz.wav
3	180	2	2	1	C	2	1	426	1	Ⴖ	cut_ui_stereo_44KHz.wav
3	181	3	4	2	I	2	0	379	1	Ⴌ	cut_r_stereo_44KHz.wav
3	182	2	1	0	C	2	0	294	0	Ⴖ	cut_j_stereo_44KHz.wav
3	183	1	2	0	C	1	1	1866	1	Ⴏ	cut_ui_stereo_44KHz.wav
3	184	4	4	2	I	2	0	368	1	Ⴉ	cut_r_stereo_44KHz.wav
3	185	2	1	0	C	1	1	239	1	Ⴖ	cut_j_stereo_44KHz.wav
3	186	1	2	0	C	2	0	274	0	Ⴏ	cut_ui_stereo_44KHz.wav
3	187	3	3	2	I	2	0	468	1	Ⴌ	cut_ei_stereo_44KHz.wav
3	188	4	4	2	I	2	0	747	1	Ⴉ	cut_r_stereo_44KHz.wav
3	189	3	4	2	I	2	0	350	0	Ⴌ	cut_r_stereo_44KHz.wav
3	190	4	3	2	I	2	0	450	1	Ⴉ	cut_ei_stereo_44KHz.wav
3	191	2	2	1	C	2	1	547	1	Ⴖ	cut_ui_stereo_44KHz.wav
3	192	1	1	1	C	1	0	468	0	Ⴏ	cut_j_stereo_44KHz.wav
3	193	4	4	2	I	2	0	39	1	Ⴉ	cut_r_stereo_44KHz.wav
3	194	1	2	0	C	1	1	465	1	Ⴏ	cut_ui_stereo_44KHz.wav
3	195	3	4	2	I	2	0	1392	1	Ⴌ	cut_r_stereo_44KHz.wav
3	196	2	1	0	C	2	0	112	0	Ⴖ	cut_j_stereo_44KHz.wav
3	197	1	1	1	C	2	1	378	1	Ⴏ	cut_j_stereo_44KHz.wav
3	198	4	3	2	I	2	0	772	1	Ⴉ	cut_ei_stereo_44KHz.wav
3	199	2	2	1	C	2	1	526	1	Ⴖ	cut_ui_stereo_44KHz.wav
3	200	3	3	2	I	2	0	745	0	Ⴌ	cut_ei_stereo_44KHz.wav
4	1	4	3	2	I	0	0	0	0	Ⴐ	cut_g_stereo_44KHz.wav
4	2	3	3	2	I	2	0	338	0	Ⴔ	cut_g_stereo_44KHz.wav
4	3	1	2	0	C	1	1	464	1	Ⴕ	cut_l_stereo_44KHz.wav
4	4	2	1	0	C	2	0	66	0	Ⴒ	cut_h_stereo_44KHz.wav
4	5	1	1	1	C	1	0	165	0	Ⴕ	cut_h_stereo_44KHz.wav
4	6	4	4	2	I	2	0	879	1	Ⴐ	cut_w_stereo_44KHz.wav
4	7	2	2	1	C	1	0	85	0	Ⴒ	cut_l_stereo_44KHz.wav
4	8	3	4	2	I	0	0	0	0	Ⴔ	cut_w_stereo_44KHz.wav
4	9	1	1	1	C	1	0	1242	0	Ⴕ	cut_h_stereo_44KHz.wav
4	10	4	3	2	I	0	0	0	0	Ⴐ	cut_g_stereo_44KHz.wav
4	11	2	1	0	C	0	0	0	0	Ⴒ	cut_h_stereo_44KHz.wav
4	12	3	4	2	I	1	0	485	1	Ⴔ	cut_w_stereo_44KHz.wav
4	13	2	2	1	C	0	0	0	0	Ⴒ	cut_l_stereo_44KHz.wav
4	14	4	4	2	I	1	0	450	1	Ⴐ	cut_w_stereo_44KHz.wav
4	15	3	3	2	I	1	0	215	1	Ⴔ	cut_g_stereo_44KHz.wav
4	16	1	2	0	C	1	1	379	1	Ⴕ	cut_l_stereo_44KHz.wav
4	17	2	2	1	C	2	1	549	1	Ⴒ	cut_l_stereo_44KHz.wav
4	18	4	4	2	I	1	0	414	0	Ⴐ	cut_w_stereo_44KHz.wav
4	19	1	1	1	C	1	0	1909	0	Ⴕ	cut_h_stereo_44KHz.wav
4	20	3	3	2	I	1	0	1751	1	Ⴔ	cut_g_stereo_44KHz.wav
4	21	1	2	0	C	1	1	1874	1	Ⴕ	cut_l_stereo_44KHz.wav
4	22	2	1	0	C	1	1	353	1	Ⴒ	cut_h_stereo_44KHz.wav
4	23	3	4	2	I	1	0	1152	1	Ⴔ	cut_w_stereo_44KHz.wav
4	24	4	3	2	I	1	0	365	1	Ⴐ	cut_g_stereo_44KHz.wav
4	25	2	1	0	C	1	1	1112	1	Ⴒ	cut_h_stereo_44KHz.wav
4	26	1	2	0	C	1	1	466	1	Ⴕ	cut_l_stereo_44KHz.wav
4	27	3	3	2	I	1	0	273	1	Ⴔ	cut_g_stereo_44KHz.wav
4	28	4	4	2	I	1	0	382	1	Ⴐ	cut_w_stereo_44KHz.wav
4	29	2	2	1	C	1	0	769	0	Ⴒ	cut_l_stereo_44KHz.wav
4	30	3	4	2	I	2	0	1003	1	Ⴔ	cut_w_stereo_44KHz.wav
4	31	1	1	1	C	1	0	1464	0	Ⴕ	cut_h_stereo_44KHz.wav
4	32	4	3	2	I	1	0	1398	1	Ⴐ	cut_g_stereo_44KHz.wav
4	33	3	4	2	I	1	0	1219	1	Ⴔ	cut_w_stereo_44KHz.wav
4	34	4	3	2	I	1	0	933	0	Ⴐ	cut_g_stereo_44KHz.wav
4	35	1	1	1	C	1	0	696	0	Ⴕ	cut_h_stereo_44KHz.wav
4	36	2	1	0	C	0	0	0	0	Ⴒ	cut_h_stereo_44KHz.wav
4	37	4	4	2	I	1	0	1265	1	Ⴐ	cut_w_stereo_44KHz.wav
4	38	1	2	0	C	1	1	473	1	Ⴕ	cut_l_stereo_44KHz.wav
4	39	3	3	2	I	2	0	505	1	Ⴔ	cut_g_stereo_44KHz.wav
4	40	2	2	1	C	1	0	432	0	Ⴒ	cut_l_stereo_44KHz.wav
4	41	4	3	2	I	2	0	457	1	Ⴐ	cut_g_stereo_44KHz.wav
4	42	3	4	2	I	1	0	499	0	Ⴔ	cut_w_stereo_44KHz.wav
4	43	2	1	0	C	1	1	1866	1	Ⴒ	cut_h_stereo_44KHz.wav
4	44	1	2	0	C	1	1	1330	1	Ⴕ	cut_l_stereo_44KHz.wav
4	45	2	2	1	C	1	0	590	0	Ⴒ	cut_l_stereo_44KHz.wav
4	46	1	1	1	C	1	0	1656	0	Ⴕ	cut_h_stereo_44KHz.wav
4	47	3	3	2	I	2	0	602	1	Ⴔ	cut_g_stereo_44KHz.wav
4	48	4	4	2	I	1	0	492	0	Ⴐ	cut_w_stereo_44KHz.wav
4	49	3	4	2	I	2	0	13	1	Ⴔ	cut_w_stereo_44KHz.wav
4	50	4	3	2	I	2	0	731	1	Ⴐ	cut_g_stereo_44KHz.wav
4	51	1	1	1	C	1	0	585	0	Ⴕ	cut_h_stereo_44KHz.wav
4	52	2	2	1	C	2	1	854	1	Ⴒ	cut_l_stereo_44KHz.wav
4	53	4	4	2	I	2	0	552	1	Ⴐ	cut_w_stereo_44KHz.wav
4	54	3	3	2	I	1	0	576	1	Ⴔ	cut_g_stereo_44KHz.wav
4	55	2	1	0	C	2	0	647	0	Ⴒ	cut_h_stereo_44KHz.wav
4	56	1	2	0	C	2	0	841	0	Ⴕ	cut_l_stereo_44KHz.wav
4	57	4	3	2	I	1	0	1001	1	Ⴐ	cut_g_stereo_44KHz.wav
4	58	1	1	1	C	2	1	425	1	Ⴕ	cut_h_stereo_44KHz.wav
4	59	2	1	0	C	1	1	491	1	Ⴒ	cut_h_stereo_44KHz.wav
4	60	3	3	2	I	2	0	757	1	Ⴔ	cut_g_stereo_44KHz.wav
4	61	4	4	2	I	2	0	502	0	Ⴐ	cut_w_stereo_44KHz.wav
4	62	2	2	1	C	1	0	759	0	Ⴒ	cut_l_stereo_44KHz.wav
4	63	3	4	2	I	2	0	744	1	Ⴔ	cut_w_stereo_44KHz.wav
4	64	1	2	0	C	2	0	684	0	Ⴕ	cut_l_stereo_44KHz.wav
4	65	2	2	1	C	1	0	538	0	Ⴒ	cut_l_stereo_44KHz.wav
4	66	3	3	2	I	0	0	0	0	Ⴔ	cut_g_stereo_44KHz.wav
4	67	4	4	2	I	1	0	453	1	Ⴐ	cut_w_stereo_44KHz.wav
4	68	1	1	1	C	1	0	554	0	Ⴕ	cut_h_stereo_44KHz.wav
4	69	2	1	0	C	2	0	1821	0	Ⴒ	cut_h_stereo_44KHz.wav
4	70	3	4	2	I	2	0	341	0	Ⴔ	cut_w_stereo_44KHz.wav
4	71	1	2	0	C	1	1	188	1	Ⴕ	cut_l_stereo_44KHz.wav
4	72	4	3	2	I	2	0	511	1	Ⴐ	cut_g_stereo_44KHz.wav
4	73	1	1	1	C	1	0	550	0	Ⴕ	cut_h_stereo_44KHz.wav
4	74	2	1	0	C	2	0	436	0	Ⴒ	cut_h_stereo_44KHz.wav
4	75	4	4	2	I	2	0	623	0	Ⴐ	cut_w_stereo_44KHz.wav
4	76	3	3	2	I	2	0	353	1	Ⴔ	cut_g_stereo_44KHz.wav
4	77	2	2	1	C	2	1	608	1	Ⴒ	cut_l_stereo_44KHz.wav
4	78	3	4	2	I	1	0	447	1	Ⴔ	cut_w_stereo_44KHz.wav
4	79	1	2	0	C	2	0	870	0	Ⴕ	cut_l_stereo_44KHz.wav
4	80	4	3	2	I	2	0	512	1	Ⴐ	cut_g_stereo_44KHz.wav
4	81	1	2	0	C	1	1	621	1	Ⴕ	cut_l_stereo_44KHz.wav
4	82	2	2	1	C	2	1	651	1	Ⴒ	cut_l_stereo_44KHz.wav
4	83	3	3	2	I	1	0	480	1	Ⴔ	cut_g_stereo_44KHz.wav
4	84	4	4	2	I	2	0	264	1	Ⴐ	cut_w_stereo_44KHz.wav
4	85	2	1	0	C	1	1	570	1	Ⴒ	cut_h_stereo_44KHz.wav
4	86	3	4	2	I	2	0	517	1	Ⴔ	cut_w_stereo_44KHz.wav
4	87	1	1	1	C	1	0	413	0	Ⴕ	cut_h_stereo_44KHz.wav
4	88	4	3	2	I	1	0	444	1	Ⴐ	cut_g_stereo_44KHz.wav
4	89	2	1	0	C	2	0	406	0	Ⴒ	cut_h_stereo_44KHz.wav
4	90	1	2	0	C	1	1	357	1	Ⴕ	cut_l_stereo_44KHz.wav
4	91	3	4	2	I	2	0	810	1	Ⴔ	cut_w_stereo_44KHz.wav
4	92	4	3	2	I	2	0	398	1	Ⴐ	cut_g_stereo_44KHz.wav
4	93	1	1	1	C	1	0	406	0	Ⴕ	cut_h_stereo_44KHz.wav
4	94	2	2	1	C	2	1	1295	1	Ⴒ	cut_l_stereo_44KHz.wav
4	95	4	4	2	I	1	0	362	0	Ⴐ	cut_w_stereo_44KHz.wav
4	96	3	3	2	I	1	0	1747	1	Ⴔ	cut_g_stereo_44KHz.wav
4	97	2	1	0	C	1	1	415	1	Ⴒ	cut_h_stereo_44KHz.wav
4	98	3	4	2	I	1	0	1362	1	Ⴔ	cut_w_stereo_44KHz.wav
4	99	4	4	2	I	1	0	1404	1	Ⴐ	cut_w_stereo_44KHz.wav
4	100	1	1	1	C	1	0	488	0	Ⴕ	cut_h_stereo_44KHz.wav
4	101	2	2	1	C	2	1	550	1	Ⴒ	cut_l_stereo_44KHz.wav
4	102	1	2	0	C	1	1	310	1	Ⴕ	cut_l_stereo_44KHz.wav
4	103	4	3	2	I	1	0	1405	1	Ⴐ	cut_g_stereo_44KHz.wav
4	104	3	3	2	I	1	0	511	1	Ⴔ	cut_g_stereo_44KHz.wav
4	105	4	4	2	I	2	0	744	0	Ⴐ	cut_w_stereo_44KHz.wav
4	106	1	1	1	C	2	1	694	1	Ⴕ	cut_h_stereo_44KHz.wav
4	107	2	1	0	C	2	0	133	0	Ⴒ	cut_h_stereo_44KHz.wav
4	108	3	3	2	I	1	0	295	0	Ⴔ	cut_g_stereo_44KHz.wav
4	109	1	2	0	C	2	0	516	0	Ⴕ	cut_l_stereo_44KHz.wav
4	110	2	2	1	C	1	0	283	0	Ⴒ	cut_l_stereo_44KHz.wav
4	111	4	3	2	I	2	0	933	1	Ⴐ	cut_g_stereo_44KHz.wav
4	112	3	4	2	I	1	0	479	0	Ⴔ	cut_w_stereo_44KHz.wav
4	113	2	2	1	C	2	1	521	1	Ⴒ	cut_l_stereo_44KHz.wav
4	114	3	4	2	I	2	0	504	1	Ⴔ	cut_w_stereo_44KHz.wav
4	115	1	2	0	C	2	0	279	0	Ⴕ	cut_l_stereo_44KHz.wav
4	116	4	4	2	I	1	0	695	1	Ⴐ	cut_w_stereo_44KHz.wav
4	117	3	3	2	I	2	0	490	1	Ⴔ	cut_g_stereo_44KHz.wav
4	118	2	1	0	C	1	1	367	1	Ⴒ	cut_h_stereo_44KHz.wav
4	119	4	3	2	I	2	0	946	1	Ⴐ	cut_g_stereo_44KHz.wav
4	120	1	1	1	C	2	1	970	1	Ⴕ	cut_h_stereo_44KHz.wav
4	121	2	1	0	C	2	0	369	0	Ⴒ	cut_h_stereo_44KHz.wav
4	122	4	3	2	I	1	0	500	1	Ⴐ	cut_g_stereo_44KHz.wav
4	123	3	3	2	I	2	0	440	1	Ⴔ	cut_g_stereo_44KHz.wav
4	124	1	2	0	C	2	0	781	0	Ⴕ	cut_l_stereo_44KHz.wav
4	125	3	4	2	I	1	0	645	0	Ⴔ	cut_w_stereo_44KHz.wav
4	126	1	1	1	C	2	1	1538	1	Ⴕ	cut_h_stereo_44KHz.wav
4	127	2	2	1	C	2	1	1486	1	Ⴒ	cut_l_stereo_44KHz.wav
4	128	4	4	2	I	1	0	911	1	Ⴐ	cut_w_stereo_44KHz.wav
4	129	1	1	1	C	2	1	134	1	Ⴕ	cut_h_stereo_44KHz.wav
4	130	2	1	0	C	2	0	632	0	Ⴒ	cut_h_stereo_44KHz.wav
4	131	3	3	2	I	2	0	804	0	Ⴔ	cut_g_stereo_44KHz.wav
4	132	4	4	2	I	1	0	301	1	Ⴐ	cut_w_stereo_44KHz.wav
4	133	3	4	2	I	2	0	754	1	Ⴔ	cut_w_stereo_44KHz.wav
4	134	2	2	1	C	1	0	30	0	Ⴒ	cut_l_stereo_44KHz.wav
4	135	1	2	0	C	2	0	26	0	Ⴕ	cut_l_stereo_44KHz.wav
4	136	4	3	2	I	1	0	134	1	Ⴐ	cut_g_stereo_44KHz.wav
4	137	2	1	0	C	2	0	711	0	Ⴒ	cut_h_stereo_44KHz.wav
4	138	1	1	1	C	1	0	193	0	Ⴕ	cut_h_stereo_44KHz.wav
4	139	4	3	2	I	2	0	994	1	Ⴐ	cut_g_stereo_44KHz.wav
4	140	3	3	2	I	1	0	434	1	Ⴔ	cut_g_stereo_44KHz.wav
4	141	4	4	2	I	1	0	714	0	Ⴐ	cut_w_stereo_44KHz.wav
4	142	2	2	1	C	2	1	577	1	Ⴒ	cut_l_stereo_44KHz.wav
4	143	3	4	2	I	1	0	438	1	Ⴔ	cut_w_stereo_44KHz.wav
4	144	1	2	0	C	1	1	443	1	Ⴕ	cut_l_stereo_44KHz.wav
4	145	3	4	2	I	2	0	374	0	Ⴔ	cut_w_stereo_44KHz.wav
4	146	1	2	0	C	1	1	349	1	Ⴕ	cut_l_stereo_44KHz.wav
4	147	4	3	2	I	2	0	295	0	Ⴐ	cut_g_stereo_44KHz.wav
4	148	2	2	1	C	2	1	830	1	Ⴒ	cut_l_stereo_44KHz.wav
4	149	4	4	2	I	2	0	776	1	Ⴐ	cut_w_stereo_44KHz.wav
4	150	1	1	1	C	2	1	995	1	Ⴕ	cut_h_stereo_44KHz.wav
4	151	3	3	2	I	1	0	145	1	Ⴔ	cut_g_stereo_44KHz.wav
4	152	2	1	0	C	2	0	795	0	Ⴒ	cut_h_stereo_44KHz.wav
4	153	1	1	1	C	1	0	1002	0	Ⴕ	cut_h_stereo_44KHz.wav
4	154	2	1	0	C	2	0	32	0	Ⴒ	cut_h_stereo_44KHz.wav
4	155	4	4	2	I	2	0	242	1	Ⴐ	cut_w_stereo_44KHz.wav
4	156	3	4	2	I	1	0	62	1	Ⴔ	cut_w_stereo_44KHz.wav
4	157	4	3	2	I	2	0	289	1	Ⴐ	cut_g_stereo_44KHz.wav
4	158	3	3	2	I	2	0	1051	1	Ⴔ	cut_g_stereo_44KHz.wav
4	159	2	2	1	C	1	0	725	0	Ⴒ	cut_l_stereo_44KHz.wav
4	160	1	2	0	C	2	0	441	0	Ⴕ	cut_l_stereo_44KHz.wav
4	161	2	2	1	C	1	0	514	0	Ⴒ	cut_l_stereo_44KHz.wav
4	162	4	4	2	I	1	0	441	1	Ⴐ	cut_w_stereo_44KHz.wav
4	163	3	3	2	I	2	0	159	1	Ⴔ	cut_g_stereo_44KHz.wav
4	164	1	2	0	C	2	0	1024	0	Ⴕ	cut_l_stereo_44KHz.wav
4	165	3	4	2	I	2	0	784	1	Ⴔ	cut_w_stereo_44KHz.wav
4	166	2	1	0	C	2	0	657	0	Ⴒ	cut_h_stereo_44KHz.wav
4	167	1	1	1	C	0	0	0	0	Ⴕ	cut_h_stereo_44KHz.wav
4	168	4	3	2	I	2	0	342	1	Ⴐ	cut_g_stereo_44KHz.wav
4	169	2	2	1	C	1	0	542	0	Ⴒ	cut_l_stereo_44KHz.wav
4	170	4	3	2	I	2	0	385	1	Ⴐ	cut_g_stereo_44KHz.wav
4	171	1	2	0	C	1	1	745	1	Ⴕ	cut_l_stereo_44KHz.wav
4	172	3	4	2	I	2	0	758	1	Ⴔ	cut_w_stereo_44KHz.wav
4	173	4	4	2	I	2	0	791	1	Ⴐ	cut_w_stereo_44KHz.wav
4	174	1	1	1	C	1	0	611	0	Ⴕ	cut_h_stereo_44KHz.wav
4	175	3	3	2	I	2	0	942	1	Ⴔ	cut_g_stereo_44KHz.wav
4	176	2	1	0	C	2	0	1017	0	Ⴒ	cut_h_stereo_44KHz.wav
4	177	4	3	2	I	1	0	107	1	Ⴐ	cut_g_stereo_44KHz.wav
4	178	1	2	0	C	2	0	363	0	Ⴕ	cut_l_stereo_44KHz.wav
4	179	2	1	0	C	2	0	455	0	Ⴒ	cut_h_stereo_44KHz.wav
4	180	3	3	2	I	2	0	304	1	Ⴔ	cut_g_stereo_44KHz.wav
4	181	2	2	1	C	1	0	373	0	Ⴒ	cut_l_stereo_44KHz.wav
4	182	4	4	2	I	2	0	171	1	Ⴐ	cut_w_stereo_44KHz.wav
4	183	1	1	1	C	2	1	651	1	Ⴕ	cut_h_stereo_44KHz.wav
4	184	3	4	2	I	2	0	124	0	Ⴔ	cut_w_stereo_44KHz.wav
4	185	1	1	1	C	1	0	470	0	Ⴕ	cut_h_stereo_44KHz.wav
4	186	3	3	2	I	2	0	98	1	Ⴔ	cut_g_stereo_44KHz.wav
4	187	2	2	1	C	1	0	351	0	Ⴒ	cut_l_stereo_44KHz.wav
4	188	4	3	2	I	2	0	154	0	Ⴐ	cut_g_stereo_44KHz.wav
4	189	3	4	2	I	2	0	139	1	Ⴔ	cut_w_stereo_44KHz.wav
4	190	1	2	0	C	1	1	101	1	Ⴕ	cut_l_stereo_44KHz.wav
4	191	4	4	2	I	2	0	608	1	Ⴐ	cut_w_stereo_44KHz.wav
4	192	2	1	0	C	1	1	308	1	Ⴒ	cut_h_stereo_44KHz.wav
4	193	1	2	0	C	1	1	1452	1	Ⴕ	cut_l_stereo_44KHz.wav
4	194	2	1	0	C	1	1	1013	1	Ⴒ	cut_h_stereo_44KHz.wav
4	195	4	3	2	I	1	0	1160	1	Ⴐ	cut_g_stereo_44KHz.wav
4	196	3	4	2	I	1	0	971	0	Ⴔ	cut_w_stereo_44KHz.wav
4	197	4	4	2	I	1	0	1524	1	Ⴐ	cut_w_stereo_44KHz.wav
4	198	1	1	1	C	1	0	427	0	Ⴕ	cut_h_stereo_44KHz.wav
4	199	2	2	1	C	2	1	419	1	Ⴒ	cut_l_stereo_44KHz.wav
4	200	3	3	2	I	1	0	247	1	Ⴔ	cut_g_stereo_44KHz.wav
