block	trial	Vstim	Astim	match	C/I	resp	result	RT	fb	V-file	A-file
RL

0	1	1	1	1	C	0	0	0	0	Ⴞ	cut_g_stereo_44KHz.wav
0	2	2	3	1	C	2	0	988	0	Ⴋ	cut_oo_stereo_44KHz.wav
0	3	1	2	0	C	1	0	1111	0	Ⴞ	cut_ee_stereo_44KHz.wav
0	4	2	4	0	C	1	0	682	0	Ⴋ	cut_eeuw_stereo_44KHz.wav
0	5	1	2	0	C	2	1	804	1	Ⴞ	cut_ee_stereo_44KHz.wav
0	6	2	3	1	C	2	0	648	0	Ⴋ	cut_oo_stereo_44KHz.wav
0	7	2	4	0	C	2	1	1021	1	Ⴋ	cut_eeuw_stereo_44KHz.wav
0	8	1	1	1	C	1	1	1087	1	Ⴞ	cut_g_stereo_44KHz.wav
0	9	1	1	1	C	1	1	1062	1	Ⴞ	cut_g_stereo_44KHz.wav
0	10	2	3	1	C	2	0	872	0	Ⴋ	cut_oo_stereo_44KHz.wav
0	11	2	4	0	C	2	1	1192	1	Ⴋ	cut_eeuw_stereo_44KHz.wav
0	12	1	2	0	C	1	0	1038	0	Ⴞ	cut_ee_stereo_44KHz.wav
0	13	1	2	0	C	2	1	825	1	Ⴞ	cut_ee_stereo_44KHz.wav
0	14	1	1	1	C	1	1	652	1	Ⴞ	cut_g_stereo_44KHz.wav
0	15	2	4	0	C	2	1	962	1	Ⴋ	cut_eeuw_stereo_44KHz.wav
0	16	2	3	1	C	1	1	851	1	Ⴋ	cut_oo_stereo_44KHz.wav
0	17	1	2	0	C	2	1	385	1	Ⴞ	cut_ee_stereo_44KHz.wav
0	18	2	4	0	C	1	0	625	0	Ⴋ	cut_eeuw_stereo_44KHz.wav
0	19	2	3	1	C	2	0	848	0	Ⴋ	cut_oo_stereo_44KHz.wav
0	20	1	1	1	C	1	1	850	1	Ⴞ	cut_g_stereo_44KHz.wav
0	21	1	1	1	C	1	1	959	1	Ⴞ	cut_g_stereo_44KHz.wav
0	22	1	2	0	C	2	1	780	1	Ⴞ	cut_ee_stereo_44KHz.wav
0	23	2	4	0	C	1	0	1031	0	Ⴋ	cut_eeuw_stereo_44KHz.wav
0	24	2	3	1	C	2	0	951	0	Ⴋ	cut_oo_stereo_44KHz.wav
0	25	1	2	0	C	1	0	1508	0	Ⴞ	cut_ee_stereo_44KHz.wav
0	26	1	1	1	C	2	0	645	0	Ⴞ	cut_g_stereo_44KHz.wav
0	27	2	3	1	C	1	1	794	1	Ⴋ	cut_oo_stereo_44KHz.wav
0	28	2	4	0	C	1	0	490	0	Ⴋ	cut_eeuw_stereo_44KHz.wav
0	29	2	4	0	C	2	1	629	1	Ⴋ	cut_eeuw_stereo_44KHz.wav
0	30	1	1	1	C	2	0	470	0	Ⴞ	cut_g_stereo_44KHz.wav
avg_resp = 857
1	1	4	3	2	I	1	0	1172	1	Ⴖ	cut_h_stereo_44KHz.wav
1	2	2	1	0	C	1	0	1190	0	Ⴒ	cut_w_stereo_44KHz.wav
1	3	3	3	2	I	2	0	722	1	Ⴌ	cut_h_stereo_44KHz.wav
1	4	1	2	0	C	1	0	803	0	Ⴉ	cut_l_stereo_44KHz.wav
1	5	4	4	2	I	2	0	552	1	Ⴖ	cut_g_stereo_44KHz.wav
1	6	3	4	2	I	2	0	877	1	Ⴌ	cut_g_stereo_44KHz.wav
1	7	2	2	1	C	1	1	834	1	Ⴒ	cut_l_stereo_44KHz.wav
1	8	1	1	1	C	2	0	768	0	Ⴉ	cut_w_stereo_44KHz.wav
1	9	2	2	1	C	1	1	537	1	Ⴒ	cut_l_stereo_44KHz.wav
1	10	1	2	0	C	1	0	570	0	Ⴉ	cut_l_stereo_44KHz.wav
1	11	4	4	2	I	2	0	500	1	Ⴖ	cut_g_stereo_44KHz.wav
1	12	3	4	2	I	2	0	536	0	Ⴌ	cut_g_stereo_44KHz.wav
1	13	2	1	0	C	1	0	803	0	Ⴒ	cut_w_stereo_44KHz.wav
1	14	4	3	2	I	2	0	684	1	Ⴖ	cut_h_stereo_44KHz.wav
1	15	1	1	1	C	1	1	582	1	Ⴉ	cut_w_stereo_44KHz.wav
1	16	3	3	2	I	1	0	352	1	Ⴌ	cut_h_stereo_44KHz.wav
1	17	4	3	2	I	2	0	405	1	Ⴖ	cut_h_stereo_44KHz.wav
1	18	3	4	2	I	1	0	686	0	Ⴌ	cut_g_stereo_44KHz.wav
1	19	1	1	1	C	1	1	651	1	Ⴉ	cut_w_stereo_44KHz.wav
1	20	2	2	1	C	2	0	608	0	Ⴒ	cut_l_stereo_44KHz.wav
1	21	3	3	2	I	2	0	539	1	Ⴌ	cut_h_stereo_44KHz.wav
1	22	1	2	0	C	1	0	730	0	Ⴉ	cut_l_stereo_44KHz.wav
1	23	2	1	0	C	2	1	980	1	Ⴒ	cut_w_stereo_44KHz.wav
1	24	4	4	2	I	2	0	875	1	Ⴖ	cut_g_stereo_44KHz.wav
1	25	2	2	1	C	2	0	602	0	Ⴒ	cut_l_stereo_44KHz.wav
1	26	3	3	2	I	2	0	1096	1	Ⴌ	cut_h_stereo_44KHz.wav
1	27	4	4	2	I	1	0	722	1	Ⴖ	cut_g_stereo_44KHz.wav
1	28	1	2	0	C	1	0	848	0	Ⴉ	cut_l_stereo_44KHz.wav
1	29	4	3	2	I	2	0	915	1	Ⴖ	cut_h_stereo_44KHz.wav
1	30	3	4	2	I	2	0	576	1	Ⴌ	cut_g_stereo_44KHz.wav
1	31	2	1	0	C	1	0	694	0	Ⴒ	cut_w_stereo_44KHz.wav
1	32	1	1	1	C	2	0	606	0	Ⴉ	cut_w_stereo_44KHz.wav
1	33	4	3	2	I	2	0	726	1	Ⴖ	cut_h_stereo_44KHz.wav
1	34	1	2	0	C	0	0	0	0	Ⴉ	cut_l_stereo_44KHz.wav
1	35	2	1	0	C	2	1	619	1	Ⴒ	cut_w_stereo_44KHz.wav
1	36	3	4	2	I	2	0	776	0	Ⴌ	cut_g_stereo_44KHz.wav
1	37	4	4	2	I	2	0	446	1	Ⴖ	cut_g_stereo_44KHz.wav
1	38	1	1	1	C	1	1	731	1	Ⴉ	cut_w_stereo_44KHz.wav
1	39	3	3	2	I	0	0	0	0	Ⴌ	cut_h_stereo_44KHz.wav
1	40	2	2	1	C	1	1	700	1	Ⴒ	cut_l_stereo_44KHz.wav
1	41	4	4	2	I	1	0	654	1	Ⴖ	cut_g_stereo_44KHz.wav
1	42	1	1	1	C	2	0	647	0	Ⴉ	cut_w_stereo_44KHz.wav
1	43	3	4	2	I	1	0	705	1	Ⴌ	cut_g_stereo_44KHz.wav
1	44	2	1	0	C	1	0	836	0	Ⴒ	cut_w_stereo_44KHz.wav
1	45	4	3	2	I	0	0	0	0	Ⴖ	cut_h_stereo_44KHz.wav
1	46	2	2	1	C	2	0	570	0	Ⴒ	cut_l_stereo_44KHz.wav
1	47	1	2	0	C	1	0	530	0	Ⴉ	cut_l_stereo_44KHz.wav
1	48	3	3	2	I	1	0	504	1	Ⴌ	cut_h_stereo_44KHz.wav
1	49	1	1	1	C	2	0	809	0	Ⴉ	cut_w_stereo_44KHz.wav
1	50	4	3	2	I	2	0	659	1	Ⴖ	cut_h_stereo_44KHz.wav
1	51	3	3	2	I	1	0	1197	1	Ⴌ	cut_h_stereo_44KHz.wav
1	52	2	2	1	C	1	1	676	1	Ⴒ	cut_l_stereo_44KHz.wav
1	53	3	4	2	I	2	0	716	1	Ⴌ	cut_g_stereo_44KHz.wav
1	54	1	2	0	C	1	0	539	0	Ⴉ	cut_l_stereo_44KHz.wav
1	55	4	4	2	I	1	0	878	1	Ⴖ	cut_g_stereo_44KHz.wav
1	56	2	1	0	C	2	1	1124	1	Ⴒ	cut_w_stereo_44KHz.wav
1	57	4	3	2	I	2	0	963	1	Ⴖ	cut_h_stereo_44KHz.wav
1	58	2	2	1	C	1	1	667	1	Ⴒ	cut_l_stereo_44KHz.wav
1	59	1	2	0	C	0	0	0	0	Ⴉ	cut_l_stereo_44KHz.wav
1	60	3	3	2	I	2	0	894	1	Ⴌ	cut_h_stereo_44KHz.wav
1	61	2	1	0	C	1	0	1037	0	Ⴒ	cut_w_stereo_44KHz.wav
1	62	4	4	2	I	2	0	669	1	Ⴖ	cut_g_stereo_44KHz.wav
1	63	3	4	2	I	1	0	724	1	Ⴌ	cut_g_stereo_44KHz.wav
1	64	1	1	1	C	1	1	596	1	Ⴉ	cut_w_stereo_44KHz.wav
1	65	2	2	1	C	2	0	609	0	Ⴒ	cut_l_stereo_44KHz.wav
1	66	3	4	2	I	1	0	840	1	Ⴌ	cut_g_stereo_44KHz.wav
1	67	4	3	2	I	1	0	716	0	Ⴖ	cut_h_stereo_44KHz.wav
1	68	1	1	1	C	2	0	717	0	Ⴉ	cut_w_stereo_44KHz.wav
1	69	4	4	2	I	2	0	752	0	Ⴖ	cut_g_stereo_44KHz.wav
1	70	2	1	0	C	2	1	567	1	Ⴒ	cut_w_stereo_44KHz.wav
1	71	3	3	2	I	1	0	936	1	Ⴌ	cut_h_stereo_44KHz.wav
1	72	1	2	0	C	2	1	779	1	Ⴉ	cut_l_stereo_44KHz.wav
1	73	4	3	2	I	1	0	1064	1	Ⴖ	cut_h_stereo_44KHz.wav
1	74	1	2	0	C	2	1	738	1	Ⴉ	cut_l_stereo_44KHz.wav
1	75	3	4	2	I	1	0	765	0	Ⴌ	cut_g_stereo_44KHz.wav
1	76	2	2	1	C	1	1	1445	1	Ⴒ	cut_l_stereo_44KHz.wav
1	77	4	4	2	I	2	0	633	1	Ⴖ	cut_g_stereo_44KHz.wav
1	78	1	1	1	C	1	1	710	1	Ⴉ	cut_w_stereo_44KHz.wav
1	79	3	3	2	I	2	0	1033	1	Ⴌ	cut_h_stereo_44KHz.wav
1	80	2	1	0	C	1	0	1118	0	Ⴒ	cut_w_stereo_44KHz.wav
1	81	4	4	2	I	2	0	742	0	Ⴖ	cut_g_stereo_44KHz.wav
1	82	3	3	2	I	1	0	890	1	Ⴌ	cut_h_stereo_44KHz.wav
1	83	2	1	0	C	2	1	652	1	Ⴒ	cut_w_stereo_44KHz.wav
1	84	1	1	1	C	2	0	624	0	Ⴉ	cut_w_stereo_44KHz.wav
1	85	4	3	2	I	2	0	782	1	Ⴖ	cut_h_stereo_44KHz.wav
1	86	1	2	0	C	1	0	640	0	Ⴉ	cut_l_stereo_44KHz.wav
1	87	2	2	1	C	2	0	634	0	Ⴒ	cut_l_stereo_44KHz.wav
1	88	3	4	2	I	2	0	862	1	Ⴌ	cut_g_stereo_44KHz.wav
1	89	4	4	2	I	1	0	675	1	Ⴖ	cut_g_stereo_44KHz.wav
1	90	3	4	2	I	1	0	761	1	Ⴌ	cut_g_stereo_44KHz.wav
1	91	2	2	1	C	2	0	623	0	Ⴒ	cut_l_stereo_44KHz.wav
1	92	1	1	1	C	2	0	644	0	Ⴉ	cut_w_stereo_44KHz.wav
1	93	2	1	0	C	1	0	653	0	Ⴒ	cut_w_stereo_44KHz.wav
1	94	3	3	2	I	2	0	707	1	Ⴌ	cut_h_stereo_44KHz.wav
1	95	4	3	2	I	2	0	677	1	Ⴖ	cut_h_stereo_44KHz.wav
1	96	1	2	0	C	2	1	527	1	Ⴉ	cut_l_stereo_44KHz.wav
1	97	4	4	2	I	2	0	665	1	Ⴖ	cut_g_stereo_44KHz.wav
1	98	2	2	1	C	2	0	527	0	Ⴒ	cut_l_stereo_44KHz.wav
1	99	3	3	2	I	2	0	114	1	Ⴌ	cut_h_stereo_44KHz.wav
1	100	1	2	0	C	2	1	732	1	Ⴉ	cut_l_stereo_44KHz.wav
1	101	3	4	2	I	2	0	558	1	Ⴌ	cut_g_stereo_44KHz.wav
1	102	2	1	0	C	2	1	615	1	Ⴒ	cut_w_stereo_44KHz.wav
1	103	4	3	2	I	2	0	487	0	Ⴖ	cut_h_stereo_44KHz.wav
1	104	1	1	1	C	2	0	595	0	Ⴉ	cut_w_stereo_44KHz.wav
1	105	4	3	2	I	2	0	609	1	Ⴖ	cut_h_stereo_44KHz.wav
1	106	1	1	1	C	1	1	1076	1	Ⴉ	cut_w_stereo_44KHz.wav
1	107	2	1	0	C	1	0	518	0	Ⴒ	cut_w_stereo_44KHz.wav
1	108	3	3	2	I	1	0	831	1	Ⴌ	cut_h_stereo_44KHz.wav
1	109	1	2	0	C	2	1	594	1	Ⴉ	cut_l_stereo_44KHz.wav
1	110	3	4	2	I	1	0	698	1	Ⴌ	cut_g_stereo_44KHz.wav
1	111	2	2	1	C	1	1	797	1	Ⴒ	cut_l_stereo_44KHz.wav
1	112	4	4	2	I	2	0	660	1	Ⴖ	cut_g_stereo_44KHz.wav
1	113	1	1	1	C	2	0	512	0	Ⴉ	cut_w_stereo_44KHz.wav
1	114	4	3	2	I	1	0	939	1	Ⴖ	cut_h_stereo_44KHz.wav
1	115	3	4	2	I	2	0	936	1	Ⴌ	cut_g_stereo_44KHz.wav
1	116	2	2	1	C	2	0	744	0	Ⴒ	cut_l_stereo_44KHz.wav
1	117	1	2	0	C	1	0	818	0	Ⴉ	cut_l_stereo_44KHz.wav
1	118	2	1	0	C	2	1	756	1	Ⴒ	cut_w_stereo_44KHz.wav
1	119	3	3	2	I	2	0	659	0	Ⴌ	cut_h_stereo_44KHz.wav
1	120	4	4	2	I	2	0	725	1	Ⴖ	cut_g_stereo_44KHz.wav
1	121	2	1	0	C	1	0	448	0	Ⴒ	cut_w_stereo_44KHz.wav
1	122	3	3	2	I	1	0	693	1	Ⴌ	cut_h_stereo_44KHz.wav
1	123	1	2	0	C	2	1	584	1	Ⴉ	cut_l_stereo_44KHz.wav
1	124	4	4	2	I	2	0	719	1	Ⴖ	cut_g_stereo_44KHz.wav
1	125	2	2	1	C	1	1	850	1	Ⴒ	cut_l_stereo_44KHz.wav
1	126	3	4	2	I	2	0	583	1	Ⴌ	cut_g_stereo_44KHz.wav
1	127	1	1	1	C	1	1	1042	1	Ⴉ	cut_w_stereo_44KHz.wav
1	128	4	3	2	I	2	0	838	1	Ⴖ	cut_h_stereo_44KHz.wav
1	129	3	4	2	I	2	0	872	1	Ⴌ	cut_g_stereo_44KHz.wav
1	130	1	2	0	C	1	0	731	0	Ⴉ	cut_l_stereo_44KHz.wav
1	131	4	4	2	I	2	0	631	1	Ⴖ	cut_g_stereo_44KHz.wav
1	132	2	1	0	C	2	1	644	1	Ⴒ	cut_w_stereo_44KHz.wav
1	133	1	1	1	C	1	1	773	1	Ⴉ	cut_w_stereo_44KHz.wav
1	134	2	2	1	C	2	0	778	0	Ⴒ	cut_l_stereo_44KHz.wav
1	135	3	3	2	I	2	0	695	0	Ⴌ	cut_h_stereo_44KHz.wav
1	136	4	3	2	I	1	0	574	0	Ⴖ	cut_h_stereo_44KHz.wav
1	137	2	1	0	C	1	0	496	0	Ⴒ	cut_w_stereo_44KHz.wav
1	138	4	4	2	I	2	0	484	1	Ⴖ	cut_g_stereo_44KHz.wav
1	139	3	3	2	I	2	0	669	1	Ⴌ	cut_h_stereo_44KHz.wav
1	140	1	2	0	C	2	1	734	1	Ⴉ	cut_l_stereo_44KHz.wav
1	141	2	2	1	C	2	0	1106	0	Ⴒ	cut_l_stereo_44KHz.wav
1	142	3	4	2	I	1	0	384	0	Ⴌ	cut_g_stereo_44KHz.wav
1	143	4	3	2	I	2	0	733	1	Ⴖ	cut_h_stereo_44KHz.wav
1	144	1	1	1	C	1	1	1002	1	Ⴉ	cut_w_stereo_44KHz.wav
1	145	4	4	2	I	2	0	824	1	Ⴖ	cut_g_stereo_44KHz.wav
1	146	3	3	2	I	1	0	690	1	Ⴌ	cut_h_stereo_44KHz.wav
1	147	1	1	1	C	2	0	749	0	Ⴉ	cut_w_stereo_44KHz.wav
1	148	2	1	0	C	2	1	754	1	Ⴒ	cut_w_stereo_44KHz.wav
1	149	1	2	0	C	2	1	890	1	Ⴉ	cut_l_stereo_44KHz.wav
1	150	3	4	2	I	1	0	696	1	Ⴌ	cut_g_stereo_44KHz.wav
1	151	2	2	1	C	1	1	777	1	Ⴒ	cut_l_stereo_44KHz.wav
1	152	4	3	2	I	2	0	888	0	Ⴖ	cut_h_stereo_44KHz.wav
1	153	3	4	2	I	1	0	1426	1	Ⴌ	cut_g_stereo_44KHz.wav
1	154	1	2	0	C	1	0	657	0	Ⴉ	cut_l_stereo_44KHz.wav
1	155	4	4	2	I	2	0	833	1	Ⴖ	cut_g_stereo_44KHz.wav
1	156	2	1	0	C	2	1	707	1	Ⴒ	cut_w_stereo_44KHz.wav
1	157	1	1	1	C	2	0	569	0	Ⴉ	cut_w_stereo_44KHz.wav
1	158	2	2	1	C	2	0	569	0	Ⴒ	cut_l_stereo_44KHz.wav
1	159	4	3	2	I	1	0	215	0	Ⴖ	cut_h_stereo_44KHz.wav
1	160	3	3	2	I	2	0	686	1	Ⴌ	cut_h_stereo_44KHz.wav
1	161	2	2	1	C	2	0	663	0	Ⴒ	cut_l_stereo_44KHz.wav
1	162	3	3	2	I	1	0	639	0	Ⴌ	cut_h_stereo_44KHz.wav
1	163	4	4	2	I	2	0	858	1	Ⴖ	cut_g_stereo_44KHz.wav
1	164	1	2	0	C	1	0	735	0	Ⴉ	cut_l_stereo_44KHz.wav
1	165	3	4	2	I	2	0	574	1	Ⴌ	cut_g_stereo_44KHz.wav
1	166	2	1	0	C	0	0	0	0	Ⴒ	cut_w_stereo_44KHz.wav
1	167	4	3	2	I	1	0	750	1	Ⴖ	cut_h_stereo_44KHz.wav
1	168	1	1	1	C	2	0	330	0	Ⴉ	cut_w_stereo_44KHz.wav
1	169	4	3	2	I	1	0	674	1	Ⴖ	cut_h_stereo_44KHz.wav
1	170	2	2	1	C	2	0	988	0	Ⴒ	cut_l_stereo_44KHz.wav
1	171	1	1	1	C	1	1	816	1	Ⴉ	cut_w_stereo_44KHz.wav
1	172	3	4	2	I	2	0	890	1	Ⴌ	cut_g_stereo_44KHz.wav
1	173	4	4	2	I	1	0	405	1	Ⴖ	cut_g_stereo_44KHz.wav
1	174	1	2	0	C	1	0	1023	0	Ⴉ	cut_l_stereo_44KHz.wav
1	175	2	1	0	C	2	1	624	1	Ⴒ	cut_w_stereo_44KHz.wav
1	176	3	3	2	I	1	0	911	1	Ⴌ	cut_h_stereo_44KHz.wav
1	177	2	1	0	C	1	0	681	0	Ⴒ	cut_w_stereo_44KHz.wav
1	178	1	2	0	C	2	1	1210	1	Ⴉ	cut_l_stereo_44KHz.wav
1	179	4	3	2	I	2	0	794	1	Ⴖ	cut_h_stereo_44KHz.wav
1	180	3	4	2	I	1	0	652	0	Ⴌ	cut_g_stereo_44KHz.wav
1	181	1	1	1	C	2	0	1031	0	Ⴉ	cut_w_stereo_44KHz.wav
1	182	2	2	1	C	2	0	569	0	Ⴒ	cut_l_stereo_44KHz.wav
1	183	3	3	2	I	0	0	0	0	Ⴌ	cut_h_stereo_44KHz.wav
1	184	4	4	2	I	2	0	1144	0	Ⴖ	cut_g_stereo_44KHz.wav
1	185	3	4	2	I	1	0	813	1	Ⴌ	cut_g_stereo_44KHz.wav
1	186	1	2	0	C	1	0	725	0	Ⴉ	cut_l_stereo_44KHz.wav
1	187	4	3	2	I	1	0	632	1	Ⴖ	cut_h_stereo_44KHz.wav
1	188	2	2	1	C	2	0	534	0	Ⴒ	cut_l_stereo_44KHz.wav
1	189	1	1	1	C	2	0	620	0	Ⴉ	cut_w_stereo_44KHz.wav
1	190	2	1	0	C	2	1	549	1	Ⴒ	cut_w_stereo_44KHz.wav
1	191	3	3	2	I	1	0	474	1	Ⴌ	cut_h_stereo_44KHz.wav
1	192	4	4	2	I	1	0	739	0	Ⴖ	cut_g_stereo_44KHz.wav
1	193	3	4	2	I	2	0	798	1	Ⴌ	cut_g_stereo_44KHz.wav
1	194	1	2	0	C	1	0	601	0	Ⴉ	cut_l_stereo_44KHz.wav
1	195	2	1	0	C	2	1	507	1	Ⴒ	cut_w_stereo_44KHz.wav
1	196	4	3	2	I	2	0	826	1	Ⴖ	cut_h_stereo_44KHz.wav
1	197	3	3	2	I	2	0	730	1	Ⴌ	cut_h_stereo_44KHz.wav
1	198	2	2	1	C	2	0	670	0	Ⴒ	cut_l_stereo_44KHz.wav
1	199	4	4	2	I	2	0	620	1	Ⴖ	cut_g_stereo_44KHz.wav
1	200	1	1	1	C	1	1	557	1	Ⴉ	cut_w_stereo_44KHz.wav
2	1	4	3	2	I	2	0	724	0	Ⴁ	cut_a_stereo_44KHz.wav
2	2	1	1	1	C	2	0	474	0	Ⴟ	cut_o_stereo_44KHz.wav
2	3	3	4	2	I	1	0	878	0	Ⴡ	cut_u_stereo_44KHz.wav
2	4	2	1	0	C	2	1	233	1	Ⴂ	cut_o_stereo_44KHz.wav
2	5	1	2	0	C	2	1	602	1	Ⴟ	cut_k_stereo_44KHz.wav
2	6	3	3	2	I	2	0	234	1	Ⴡ	cut_a_stereo_44KHz.wav
2	7	4	4	2	I	1	0	11	1	Ⴁ	cut_u_stereo_44KHz.wav
2	8	2	2	1	C	2	0	294	0	Ⴂ	cut_k_stereo_44KHz.wav
2	9	4	4	2	I	1	0	658	1	Ⴁ	cut_u_stereo_44KHz.wav
2	10	2	2	1	C	2	0	204	0	Ⴂ	cut_k_stereo_44KHz.wav
2	11	3	4	2	I	1	0	991	1	Ⴡ	cut_u_stereo_44KHz.wav
2	12	1	1	1	C	1	1	12	1	Ⴟ	cut_o_stereo_44KHz.wav
2	13	2	1	0	C	2	1	658	1	Ⴂ	cut_o_stereo_44KHz.wav
2	14	4	3	2	I	1	0	646	0	Ⴁ	cut_a_stereo_44KHz.wav
2	15	3	3	2	I	0	0	0	0	Ⴡ	cut_a_stereo_44KHz.wav
2	16	1	2	0	C	1	0	476	0	Ⴟ	cut_k_stereo_44KHz.wav
2	17	3	4	2	I	2	0	519	1	Ⴡ	cut_u_stereo_44KHz.wav
2	18	2	2	1	C	2	0	591	0	Ⴂ	cut_k_stereo_44KHz.wav
2	19	4	3	2	I	2	0	1074	1	Ⴁ	cut_a_stereo_44KHz.wav
2	20	1	2	0	C	2	1	586	1	Ⴟ	cut_k_stereo_44KHz.wav
2	21	2	1	0	C	2	1	459	1	Ⴂ	cut_o_stereo_44KHz.wav
2	22	1	1	1	C	2	0	675	0	Ⴟ	cut_o_stereo_44KHz.wav
2	23	3	3	2	I	1	0	641	1	Ⴡ	cut_a_stereo_44KHz.wav
2	24	4	4	2	I	1	0	619	0	Ⴁ	cut_u_stereo_44KHz.wav
2	25	1	2	0	C	2	1	386	1	Ⴟ	cut_k_stereo_44KHz.wav
2	26	2	1	0	C	1	0	684	0	Ⴂ	cut_o_stereo_44KHz.wav
2	27	4	4	2	I	2	0	749	1	Ⴁ	cut_u_stereo_44KHz.wav
2	28	3	3	2	I	1	0	646	1	Ⴡ	cut_a_stereo_44KHz.wav
2	29	2	2	1	C	2	0	632	0	Ⴂ	cut_k_stereo_44KHz.wav
2	30	4	3	2	I	2	0	786	1	Ⴁ	cut_a_stereo_44KHz.wav
2	31	3	4	2	I	2	0	691	1	Ⴡ	cut_u_stereo_44KHz.wav
2	32	1	1	1	C	2	0	571	0	Ⴟ	cut_o_stereo_44KHz.wav
2	33	3	3	2	I	2	0	295	1	Ⴡ	cut_a_stereo_44KHz.wav
2	34	1	2	0	C	2	1	699	1	Ⴟ	cut_k_stereo_44KHz.wav
2	35	4	4	2	I	2	0	653	1	Ⴁ	cut_u_stereo_44KHz.wav
2	36	2	1	0	C	1	0	470	0	Ⴂ	cut_o_stereo_44KHz.wav
2	37	1	1	1	C	1	1	618	1	Ⴟ	cut_o_stereo_44KHz.wav
2	38	3	4	2	I	2	0	498	1	Ⴡ	cut_u_stereo_44KHz.wav
2	39	2	2	1	C	1	1	750	1	Ⴂ	cut_k_stereo_44KHz.wav
2	40	4	3	2	I	2	0	775	1	Ⴁ	cut_a_stereo_44KHz.wav
2	41	2	2	1	C	1	1	646	1	Ⴂ	cut_k_stereo_44KHz.wav
2	42	3	4	2	I	2	0	632	0	Ⴡ	cut_u_stereo_44KHz.wav
2	43	4	3	2	I	2	0	732	0	Ⴁ	cut_a_stereo_44KHz.wav
2	44	1	2	0	C	2	1	630	1	Ⴟ	cut_k_stereo_44KHz.wav
2	45	2	1	0	C	2	1	972	1	Ⴂ	cut_o_stereo_44KHz.wav
2	46	1	1	1	C	0	0	0	0	Ⴟ	cut_o_stereo_44KHz.wav
2	47	3	3	2	I	0	0	0	0	Ⴡ	cut_a_stereo_44KHz.wav
2	48	4	4	2	I	2	0	366	1	Ⴁ	cut_u_stereo_44KHz.wav
2	49	2	1	0	C	2	1	705	1	Ⴂ	cut_o_stereo_44KHz.wav
2	50	3	3	2	I	2	0	634	1	Ⴡ	cut_a_stereo_44KHz.wav
2	51	4	3	2	I	2	0	807	1	Ⴁ	cut_a_stereo_44KHz.wav
2	52	1	1	1	C	2	0	717	0	Ⴟ	cut_o_stereo_44KHz.wav
2	53	2	2	1	C	2	0	759	0	Ⴂ	cut_k_stereo_44KHz.wav
2	54	1	2	0	C	2	1	475	1	Ⴟ	cut_k_stereo_44KHz.wav
2	55	3	4	2	I	1	0	317	1	Ⴡ	cut_u_stereo_44KHz.wav
2	56	4	4	2	I	0	0	0	0	Ⴁ	cut_u_stereo_44KHz.wav
2	57	2	2	1	C	2	0	375	0	Ⴂ	cut_k_stereo_44KHz.wav
2	58	4	3	2	I	2	0	545	1	Ⴁ	cut_a_stereo_44KHz.wav
2	59	1	1	1	C	2	0	505	0	Ⴟ	cut_o_stereo_44KHz.wav
2	60	3	4	2	I	2	0	582	1	Ⴡ	cut_u_stereo_44KHz.wav
2	61	4	4	2	I	2	0	646	0	Ⴁ	cut_u_stereo_44KHz.wav
2	62	3	3	2	I	2	0	467	0	Ⴡ	cut_a_stereo_44KHz.wav
2	63	1	2	0	C	1	0	519	0	Ⴟ	cut_k_stereo_44KHz.wav
2	64	2	1	0	C	2	1	645	1	Ⴂ	cut_o_stereo_44KHz.wav
2	65	4	3	2	I	1	0	485	1	Ⴁ	cut_a_stereo_44KHz.wav
2	66	1	1	1	C	2	0	431	0	Ⴟ	cut_o_stereo_44KHz.wav
2	67	3	4	2	I	1	0	575	1	Ⴡ	cut_u_stereo_44KHz.wav
2	68	2	2	1	C	1	1	776	1	Ⴂ	cut_k_stereo_44KHz.wav
2	69	4	4	2	I	2	0	640	1	Ⴁ	cut_u_stereo_44KHz.wav
2	70	3	3	2	I	2	0	523	1	Ⴡ	cut_a_stereo_44KHz.wav
2	71	2	1	0	C	2	1	595	1	Ⴂ	cut_o_stereo_44KHz.wav
2	72	1	2	0	C	2	1	307	1	Ⴟ	cut_k_stereo_44KHz.wav
2	73	3	4	2	I	2	0	499	1	Ⴡ	cut_u_stereo_44KHz.wav
2	74	1	2	0	C	1	0	418	0	Ⴟ	cut_k_stereo_44KHz.wav
2	75	4	4	2	I	2	0	689	1	Ⴁ	cut_u_stereo_44KHz.wav
2	76	2	2	1	C	2	0	569	0	Ⴂ	cut_k_stereo_44KHz.wav
2	77	1	1	1	C	1	1	760	1	Ⴟ	cut_o_stereo_44KHz.wav
2	78	3	3	2	I	2	0	1187	0	Ⴡ	cut_a_stereo_44KHz.wav
2	79	4	3	2	I	2	0	1124	1	Ⴁ	cut_a_stereo_44KHz.wav
2	80	2	1	0	C	2	1	440	1	Ⴂ	cut_o_stereo_44KHz.wav
2	81	1	1	1	C	0	0	0	0	Ⴟ	cut_o_stereo_44KHz.wav
2	82	4	4	2	I	2	0	609	1	Ⴁ	cut_u_stereo_44KHz.wav
2	83	3	3	2	I	2	0	720	1	Ⴡ	cut_a_stereo_44KHz.wav
2	84	2	1	0	C	1	0	823	0	Ⴂ	cut_o_stereo_44KHz.wav
2	85	1	2	0	C	2	1	465	1	Ⴟ	cut_k_stereo_44KHz.wav
2	86	2	2	1	C	0	0	0	0	Ⴂ	cut_k_stereo_44KHz.wav
2	87	3	4	2	I	2	0	563	1	Ⴡ	cut_u_stereo_44KHz.wav
2	88	4	3	2	I	2	0	974	1	Ⴁ	cut_a_stereo_44KHz.wav
2	89	1	2	0	C	0	0	0	0	Ⴟ	cut_k_stereo_44KHz.wav
2	90	3	3	2	I	1	0	519	1	Ⴡ	cut_a_stereo_44KHz.wav
2	91	2	1	0	C	1	0	422	0	Ⴂ	cut_o_stereo_44KHz.wav
2	92	4	4	2	I	2	0	530	1	Ⴁ	cut_u_stereo_44KHz.wav
2	93	1	1	1	C	1	1	351	1	Ⴟ	cut_o_stereo_44KHz.wav
2	94	4	3	2	I	1	0	703	1	Ⴁ	cut_a_stereo_44KHz.wav
2	95	3	4	2	I	0	0	0	0	Ⴡ	cut_u_stereo_44KHz.wav
2	96	2	2	1	C	0	0	0	0	Ⴂ	cut_k_stereo_44KHz.wav
2	97	1	1	1	C	1	1	565	1	Ⴟ	cut_o_stereo_44KHz.wav
2	98	4	4	2	I	2	0	1303	1	Ⴁ	cut_u_stereo_44KHz.wav
2	99	2	1	0	C	1	0	786	0	Ⴂ	cut_o_stereo_44KHz.wav
2	100	3	4	2	I	2	0	260	0	Ⴡ	cut_u_stereo_44KHz.wav
2	101	1	2	0	C	1	0	763	0	Ⴟ	cut_k_stereo_44KHz.wav
2	102	3	3	2	I	2	0	397	0	Ⴡ	cut_a_stereo_44KHz.wav
2	103	2	2	1	C	2	0	1239	0	Ⴂ	cut_k_stereo_44KHz.wav
2	104	4	3	2	I	2	0	860	1	Ⴁ	cut_a_stereo_44KHz.wav
2	105	2	1	0	C	2	1	664	1	Ⴂ	cut_o_stereo_44KHz.wav
2	106	1	1	1	C	1	1	704	1	Ⴟ	cut_o_stereo_44KHz.wav
2	107	3	3	2	I	2	0	831	1	Ⴡ	cut_a_stereo_44KHz.wav
2	108	4	4	2	I	1	0	1284	0	Ⴁ	cut_u_stereo_44KHz.wav
2	109	1	2	0	C	0	0	0	0	Ⴟ	cut_k_stereo_44KHz.wav
2	110	2	2	1	C	2	0	621	0	Ⴂ	cut_k_stereo_44KHz.wav
2	111	3	4	2	I	2	0	432	1	Ⴡ	cut_u_stereo_44KHz.wav
2	112	4	3	2	I	2	0	696	1	Ⴁ	cut_a_stereo_44KHz.wav
2	113	3	4	2	I	1	0	944	0	Ⴡ	cut_u_stereo_44KHz.wav
2	114	1	2	0	C	2	1	483	1	Ⴟ	cut_k_stereo_44KHz.wav
2	115	4	4	2	I	2	0	517	0	Ⴁ	cut_u_stereo_44KHz.wav
2	116	2	2	1	C	0	0	0	0	Ⴂ	cut_k_stereo_44KHz.wav
2	117	1	1	1	C	1	1	1062	1	Ⴟ	cut_o_stereo_44KHz.wav
2	118	2	1	0	C	2	1	587	1	Ⴂ	cut_o_stereo_44KHz.wav
2	119	4	3	2	I	1	0	577	0	Ⴁ	cut_a_stereo_44KHz.wav
2	120	3	3	2	I	2	0	275	0	Ⴡ	cut_a_stereo_44KHz.wav
2	121	4	4	2	I	1	0	532	0	Ⴁ	cut_u_stereo_44KHz.wav
2	122	3	3	2	I	1	0	463	1	Ⴡ	cut_a_stereo_44KHz.wav
2	123	1	2	0	C	2	1	188	1	Ⴟ	cut_k_stereo_44KHz.wav
2	124	2	1	0	C	1	0	67	0	Ⴂ	cut_o_stereo_44KHz.wav
2	125	4	3	2	I	0	0	0	0	Ⴁ	cut_a_stereo_44KHz.wav
2	126	1	1	1	C	2	0	621	0	Ⴟ	cut_o_stereo_44KHz.wav
2	127	3	4	2	I	0	0	0	0	Ⴡ	cut_u_stereo_44KHz.wav
2	128	2	2	1	C	1	1	156	1	Ⴂ	cut_k_stereo_44KHz.wav
2	129	4	4	2	I	0	0	0	0	Ⴁ	cut_u_stereo_44KHz.wav
2	130	2	2	1	C	1	1	519	1	Ⴂ	cut_k_stereo_44KHz.wav
2	131	3	4	2	I	1	0	503	0	Ⴡ	cut_u_stereo_44KHz.wav
2	132	1	2	0	C	2	1	400	1	Ⴟ	cut_k_stereo_44KHz.wav
2	133	4	3	2	I	1	0	562	1	Ⴁ	cut_a_stereo_44KHz.wav
2	134	2	1	0	C	2	1	515	1	Ⴂ	cut_o_stereo_44KHz.wav
2	135	3	3	2	I	1	0	692	1	Ⴡ	cut_a_stereo_44KHz.wav
2	136	1	1	1	C	2	0	1173	0	Ⴟ	cut_o_stereo_44KHz.wav
2	137	2	1	0	C	1	0	597	0	Ⴂ	cut_o_stereo_44KHz.wav
2	138	1	1	1	C	1	1	585	1	Ⴟ	cut_o_stereo_44KHz.wav
2	139	4	3	2	I	2	0	472	1	Ⴁ	cut_a_stereo_44KHz.wav
2	140	3	4	2	I	1	0	822	1	Ⴡ	cut_u_stereo_44KHz.wav
2	141	1	2	0	C	0	0	0	0	Ⴟ	cut_k_stereo_44KHz.wav
2	142	4	4	2	I	0	0	0	0	Ⴁ	cut_u_stereo_44KHz.wav
2	143	2	2	1	C	0	0	0	0	Ⴂ	cut_k_stereo_44KHz.wav
2	144	3	3	2	I	2	0	309	1	Ⴡ	cut_a_stereo_44KHz.wav
2	145	1	2	0	C	1	0	470	0	Ⴟ	cut_k_stereo_44KHz.wav
2	146	3	4	2	I	2	0	858	1	Ⴡ	cut_u_stereo_44KHz.wav
2	147	4	3	2	I	2	0	616	1	Ⴁ	cut_a_stereo_44KHz.wav
2	148	2	2	1	C	1	1	688	1	Ⴂ	cut_k_stereo_44KHz.wav
2	149	4	4	2	I	2	0	1563	1	Ⴁ	cut_u_stereo_44KHz.wav
2	150	3	3	2	I	2	0	392	1	Ⴡ	cut_a_stereo_44KHz.wav
2	151	2	1	0	C	2	1	682	1	Ⴂ	cut_o_stereo_44KHz.wav
2	152	1	1	1	C	0	0	0	0	Ⴟ	cut_o_stereo_44KHz.wav
2	153	2	1	0	C	1	0	739	0	Ⴂ	cut_o_stereo_44KHz.wav
2	154	1	2	0	C	1	0	539	0	Ⴟ	cut_k_stereo_44KHz.wav
2	155	4	4	2	I	1	0	531	1	Ⴁ	cut_u_stereo_44KHz.wav
2	156	3	4	2	I	1	0	485	1	Ⴡ	cut_u_stereo_44KHz.wav
2	157	4	3	2	I	1	0	398	1	Ⴁ	cut_a_stereo_44KHz.wav
2	158	2	2	1	C	1	1	446	1	Ⴂ	cut_k_stereo_44KHz.wav
2	159	3	3	2	I	1	0	500	1	Ⴡ	cut_a_stereo_44KHz.wav
2	160	1	1	1	C	1	1	461	1	Ⴟ	cut_o_stereo_44KHz.wav
2	161	2	2	1	C	1	1	482	1	Ⴂ	cut_k_stereo_44KHz.wav
2	162	4	4	2	I	1	0	449	1	Ⴁ	cut_u_stereo_44KHz.wav
2	163	1	1	1	C	1	1	526	1	Ⴟ	cut_o_stereo_44KHz.wav
2	164	3	4	2	I	1	0	430	1	Ⴡ	cut_u_stereo_44KHz.wav
2	165	1	2	0	C	1	0	619	0	Ⴟ	cut_k_stereo_44KHz.wav
2	166	2	1	0	C	1	0	512	0	Ⴂ	cut_o_stereo_44KHz.wav
2	167	4	3	2	I	1	0	442	1	Ⴁ	cut_a_stereo_44KHz.wav
2	168	3	3	2	I	1	0	424	1	Ⴡ	cut_a_stereo_44KHz.wav
2	169	2	2	1	C	1	1	380	1	Ⴂ	cut_k_stereo_44KHz.wav
2	170	1	1	1	C	1	1	120	1	Ⴟ	cut_o_stereo_44KHz.wav
2	171	3	3	2	I	0	0	0	0	Ⴡ	cut_a_stereo_44KHz.wav
2	172	4	3	2	I	1	0	693	1	Ⴁ	cut_a_stereo_44KHz.wav
2	173	1	2	0	C	0	0	0	0	Ⴟ	cut_k_stereo_44KHz.wav
2	174	3	4	2	I	2	0	1488	1	Ⴡ	cut_u_stereo_44KHz.wav
2	175	2	1	0	C	1	0	689	0	Ⴂ	cut_o_stereo_44KHz.wav
2	176	4	4	2	I	0	0	0	0	Ⴁ	cut_u_stereo_44KHz.wav
2	177	2	1	0	C	2	1	914	1	Ⴂ	cut_o_stereo_44KHz.wav
2	178	3	3	2	I	2	0	495	1	Ⴡ	cut_a_stereo_44KHz.wav
2	179	1	2	0	C	1	0	873	0	Ⴟ	cut_k_stereo_44KHz.wav
2	180	4	3	2	I	1	0	830	1	Ⴁ	cut_a_stereo_44KHz.wav
2	181	1	1	1	C	1	1	692	1	Ⴟ	cut_o_stereo_44KHz.wav
2	182	2	2	1	C	1	1	74	1	Ⴂ	cut_k_stereo_44KHz.wav
2	183	4	4	2	I	0	0	0	0	Ⴁ	cut_u_stereo_44KHz.wav
2	184	3	4	2	I	1	0	500	1	Ⴡ	cut_u_stereo_44KHz.wav
2	185	4	3	2	I	1	0	621	1	Ⴁ	cut_a_stereo_44KHz.wav
2	186	1	1	1	C	1	1	539	1	Ⴟ	cut_o_stereo_44KHz.wav
2	187	3	3	2	I	1	0	481	1	Ⴡ	cut_a_stereo_44KHz.wav
2	188	2	2	1	C	1	1	457	1	Ⴂ	cut_k_stereo_44KHz.wav
2	189	1	2	0	C	1	0	551	0	Ⴟ	cut_k_stereo_44KHz.wav
2	190	3	4	2	I	1	0	117	1	Ⴡ	cut_u_stereo_44KHz.wav
2	191	4	4	2	I	0	0	0	0	Ⴁ	cut_u_stereo_44KHz.wav
2	192	2	1	0	C	1	0	577	0	Ⴂ	cut_o_stereo_44KHz.wav
2	193	1	1	1	C	0	0	0	0	Ⴟ	cut_o_stereo_44KHz.wav
2	194	4	4	2	I	1	0	588	1	Ⴁ	cut_u_stereo_44KHz.wav
2	195	3	4	2	I	0	0	0	0	Ⴡ	cut_u_stereo_44KHz.wav
2	196	2	2	1	C	0	0	0	0	Ⴂ	cut_k_stereo_44KHz.wav
2	197	3	3	2	I	0	0	0	0	Ⴡ	cut_a_stereo_44KHz.wav
2	198	2	1	0	C	1	0	627	0	Ⴂ	cut_o_stereo_44KHz.wav
2	199	4	3	2	I	1	0	1868	1	Ⴁ	cut_a_stereo_44KHz.wav
2	200	1	2	0	C	0	0	0	0	Ⴟ	cut_k_stereo_44KHz.wav
3	1	2	2	1	C	2	0	799	0	Ⴇ	cut_ui_stereo_44KHz.wav
3	2	3	4	2	I	1	0	737	1	Ⴊ	cut_n_stereo_44KHz.wav
3	3	4	3	2	I	0	0	0	0	Ⴃ	cut_r_stereo_44KHz.wav
3	4	1	1	1	C	1	1	677	1	Ⴜ	cut_ei_stereo_44KHz.wav
3	5	4	4	2	I	1	0	580	1	Ⴃ	cut_n_stereo_44KHz.wav
3	6	3	3	2	I	1	0	709	1	Ⴊ	cut_r_stereo_44KHz.wav
3	7	1	2	0	C	1	0	550	0	Ⴜ	cut_ui_stereo_44KHz.wav
3	8	2	1	0	C	1	0	536	0	Ⴇ	cut_ei_stereo_44KHz.wav
3	9	1	2	0	C	1	0	855	0	Ⴜ	cut_ui_stereo_44KHz.wav
3	10	3	4	2	I	2	0	851	1	Ⴊ	cut_n_stereo_44KHz.wav
3	11	4	3	2	I	1	0	855	1	Ⴃ	cut_r_stereo_44KHz.wav
3	12	2	1	0	C	2	1	1389	1	Ⴇ	cut_ei_stereo_44KHz.wav
3	13	4	4	2	I	2	0	1575	1	Ⴃ	cut_n_stereo_44KHz.wav
3	14	2	2	1	C	1	1	898	1	Ⴇ	cut_ui_stereo_44KHz.wav
3	15	1	1	1	C	0	0	0	0	Ⴜ	cut_ei_stereo_44KHz.wav
3	16	3	3	2	I	2	0	752	1	Ⴊ	cut_r_stereo_44KHz.wav
3	17	1	2	0	C	1	0	682	0	Ⴜ	cut_ui_stereo_44KHz.wav
3	18	2	2	1	C	2	0	686	0	Ⴇ	cut_ui_stereo_44KHz.wav
3	19	4	4	2	I	1	0	1593	1	Ⴃ	cut_n_stereo_44KHz.wav
3	20	3	3	2	I	1	0	1061	1	Ⴊ	cut_r_stereo_44KHz.wav
3	21	1	1	1	C	2	0	594	0	Ⴜ	cut_ei_stereo_44KHz.wav
3	22	4	3	2	I	2	0	901	0	Ⴃ	cut_r_stereo_44KHz.wav
3	23	3	4	2	I	1	0	904	1	Ⴊ	cut_n_stereo_44KHz.wav
3	24	2	1	0	C	2	1	898	1	Ⴇ	cut_ei_stereo_44KHz.wav
3	25	1	2	0	C	1	0	692	0	Ⴜ	cut_ui_stereo_44KHz.wav
3	26	4	4	2	I	2	0	1962	0	Ⴃ	cut_n_stereo_44KHz.wav
3	27	2	1	0	C	1	0	776	0	Ⴇ	cut_ei_stereo_44KHz.wav
3	28	3	4	2	I	2	0	644	1	Ⴊ	cut_n_stereo_44KHz.wav
3	29	1	1	1	C	2	0	697	0	Ⴜ	cut_ei_stereo_44KHz.wav
3	30	3	3	2	I	2	0	746	0	Ⴊ	cut_r_stereo_44KHz.wav
3	31	2	2	1	C	2	0	498	0	Ⴇ	cut_ui_stereo_44KHz.wav
3	32	4	3	2	I	2	0	771	0	Ⴃ	cut_r_stereo_44KHz.wav
3	33	3	3	2	I	2	0	708	1	Ⴊ	cut_r_stereo_44KHz.wav
3	34	1	1	1	C	2	0	646	0	Ⴜ	cut_ei_stereo_44KHz.wav
3	35	4	3	2	I	2	0	601	1	Ⴃ	cut_r_stereo_44KHz.wav
3	36	2	2	1	C	2	0	533	0	Ⴇ	cut_ui_stereo_44KHz.wav
3	37	3	4	2	I	1	0	695	1	Ⴊ	cut_n_stereo_44KHz.wav
3	38	2	1	0	C	2	1	569	1	Ⴇ	cut_ei_stereo_44KHz.wav
3	39	1	2	0	C	2	1	791	1	Ⴜ	cut_ui_stereo_44KHz.wav
3	40	4	4	2	I	2	0	742	1	Ⴃ	cut_n_stereo_44KHz.wav
3	41	2	2	1	C	2	0	1051	0	Ⴇ	cut_ui_stereo_44KHz.wav
3	42	1	2	0	C	2	1	565	1	Ⴜ	cut_ui_stereo_44KHz.wav
3	43	3	4	2	I	2	0	802	1	Ⴊ	cut_n_stereo_44KHz.wav
3	44	4	4	2	I	2	0	1122	1	Ⴃ	cut_n_stereo_44KHz.wav
3	45	3	3	2	I	2	0	988	1	Ⴊ	cut_r_stereo_44KHz.wav
3	46	1	1	1	C	2	0	291	0	Ⴜ	cut_ei_stereo_44KHz.wav
3	47	2	1	0	C	2	1	594	1	Ⴇ	cut_ei_stereo_44KHz.wav
3	48	4	3	2	I	2	0	779	1	Ⴃ	cut_r_stereo_44KHz.wav
3	49	1	1	1	C	2	0	652	0	Ⴜ	cut_ei_stereo_44KHz.wav
3	50	2	1	0	C	2	1	751	1	Ⴇ	cut_ei_stereo_44KHz.wav
3	51	3	3	2	I	1	0	930	0	Ⴊ	cut_r_stereo_44KHz.wav
3	52	4	4	2	I	1	0	750	1	Ⴃ	cut_n_stereo_44KHz.wav
3	53	2	2	1	C	1	1	721	1	Ⴇ	cut_ui_stereo_44KHz.wav
3	54	4	3	2	I	2	0	396	0	Ⴃ	cut_r_stereo_44KHz.wav
3	55	1	2	0	C	2	1	1098	1	Ⴜ	cut_ui_stereo_44KHz.wav
3	56	3	4	2	I	2	0	871	1	Ⴊ	cut_n_stereo_44KHz.wav
3	57	2	2	1	C	1	1	900	1	Ⴇ	cut_ui_stereo_44KHz.wav
3	58	1	1	1	C	1	1	579	1	Ⴜ	cut_ei_stereo_44KHz.wav
3	59	4	3	2	I	2	0	810	1	Ⴃ	cut_r_stereo_44KHz.wav
3	60	3	4	2	I	2	0	718	0	Ⴊ	cut_n_stereo_44KHz.wav
3	61	2	1	0	C	2	1	583	1	Ⴇ	cut_ei_stereo_44KHz.wav
3	62	1	2	0	C	2	1	711	1	Ⴜ	cut_ui_stereo_44KHz.wav
3	63	3	3	2	I	1	0	842	1	Ⴊ	cut_r_stereo_44KHz.wav
3	64	4	4	2	I	1	0	745	0	Ⴃ	cut_n_stereo_44KHz.wav
3	65	1	2	0	C	2	1	118	1	Ⴜ	cut_ui_stereo_44KHz.wav
3	66	4	4	2	I	1	0	632	1	Ⴃ	cut_n_stereo_44KHz.wav
3	67	2	1	0	C	2	1	630	1	Ⴇ	cut_ei_stereo_44KHz.wav
3	68	3	4	2	I	1	0	545	1	Ⴊ	cut_n_stereo_44KHz.wav
3	69	4	3	2	I	2	0	862	0	Ⴃ	cut_r_stereo_44KHz.wav
3	70	3	3	2	I	1	0	982	1	Ⴊ	cut_r_stereo_44KHz.wav
3	71	2	2	1	C	2	0	723	0	Ⴇ	cut_ui_stereo_44KHz.wav
3	72	1	1	1	C	2	0	978	0	Ⴜ	cut_ei_stereo_44KHz.wav
3	73	2	1	0	C	1	0	549	0	Ⴇ	cut_ei_stereo_44KHz.wav
3	74	3	3	2	I	2	0	781	1	Ⴊ	cut_r_stereo_44KHz.wav
3	75	4	3	2	I	1	0	691	1	Ⴃ	cut_r_stereo_44KHz.wav
3	76	1	1	1	C	1	1	698	1	Ⴜ	cut_ei_stereo_44KHz.wav
3	77	2	2	1	C	2	0	533	0	Ⴇ	cut_ui_stereo_44KHz.wav
3	78	3	4	2	I	2	0	1234	1	Ⴊ	cut_n_stereo_44KHz.wav
3	79	1	2	0	C	2	1	569	1	Ⴜ	cut_ui_stereo_44KHz.wav
3	80	4	4	2	I	1	0	853	1	Ⴃ	cut_n_stereo_44KHz.wav
3	81	2	1	0	C	1	0	1189	0	Ⴇ	cut_ei_stereo_44KHz.wav
3	82	3	3	2	I	2	0	943	1	Ⴊ	cut_r_stereo_44KHz.wav
3	83	4	4	2	I	1	0	747	1	Ⴃ	cut_n_stereo_44KHz.wav
3	84	1	2	0	C	2	1	850	1	Ⴜ	cut_ui_stereo_44KHz.wav
3	85	4	3	2	I	2	0	670	1	Ⴃ	cut_r_stereo_44KHz.wav
3	86	2	2	1	C	2	0	736	0	Ⴇ	cut_ui_stereo_44KHz.wav
3	87	3	4	2	I	1	0	976	1	Ⴊ	cut_n_stereo_44KHz.wav
3	88	1	1	1	C	1	1	482	1	Ⴜ	cut_ei_stereo_44KHz.wav
3	89	4	3	2	I	1	0	978	1	Ⴃ	cut_r_stereo_44KHz.wav
3	90	1	2	0	C	2	1	628	1	Ⴜ	cut_ui_stereo_44KHz.wav
3	91	2	2	1	C	1	1	650	1	Ⴇ	cut_ui_stereo_44KHz.wav
3	92	3	3	2	I	2	0	703	0	Ⴊ	cut_r_stereo_44KHz.wav
3	93	1	1	1	C	2	0	448	0	Ⴜ	cut_ei_stereo_44KHz.wav
3	94	2	1	0	C	1	0	542	0	Ⴇ	cut_ei_stereo_44KHz.wav
3	95	4	4	2	I	2	0	1181	1	Ⴃ	cut_n_stereo_44KHz.wav
3	96	3	4	2	I	1	0	791	0	Ⴊ	cut_n_stereo_44KHz.wav
3	97	2	1	0	C	1	0	910	0	Ⴇ	cut_ei_stereo_44KHz.wav
3	98	1	2	0	C	2	1	582	1	Ⴜ	cut_ui_stereo_44KHz.wav
3	99	4	3	2	I	2	0	1073	1	Ⴃ	cut_r_stereo_44KHz.wav
3	100	3	4	2	I	1	0	692	1	Ⴊ	cut_n_stereo_44KHz.wav
3	101	4	4	2	I	1	0	612	0	Ⴃ	cut_n_stereo_44KHz.wav
3	102	1	1	1	C	2	0	728	0	Ⴜ	cut_ei_stereo_44KHz.wav
3	103	3	3	2	I	2	0	493	1	Ⴊ	cut_r_stereo_44KHz.wav
3	104	2	2	1	C	1	1	1185	1	Ⴇ	cut_ui_stereo_44KHz.wav
3	105	4	3	2	I	1	0	536	1	Ⴃ	cut_r_stereo_44KHz.wav
3	106	3	4	2	I	2	0	500	1	Ⴊ	cut_n_stereo_44KHz.wav
3	107	1	1	1	C	1	1	445	1	Ⴜ	cut_ei_stereo_44KHz.wav
3	108	2	2	1	C	1	1	549	1	Ⴇ	cut_ui_stereo_44KHz.wav
3	109	3	3	2	I	2	0	700	1	Ⴊ	cut_r_stereo_44KHz.wav
3	110	4	4	2	I	2	0	694	0	Ⴃ	cut_n_stereo_44KHz.wav
3	111	2	1	0	C	2	1	467	1	Ⴇ	cut_ei_stereo_44KHz.wav
3	112	1	2	0	C	1	0	637	0	Ⴜ	cut_ui_stereo_44KHz.wav
3	113	4	3	2	I	1	0	665	1	Ⴃ	cut_r_stereo_44KHz.wav
3	114	3	4	2	I	1	0	751	1	Ⴊ	cut_n_stereo_44KHz.wav
3	115	1	2	0	C	1	0	1508	0	Ⴜ	cut_ui_stereo_44KHz.wav
3	116	2	1	0	C	2	1	1242	1	Ⴇ	cut_ei_stereo_44KHz.wav
3	117	3	3	2	I	2	0	501	1	Ⴊ	cut_r_stereo_44KHz.wav
3	118	2	2	1	C	2	0	626	0	Ⴇ	cut_ui_stereo_44KHz.wav
3	119	4	4	2	I	2	0	655	1	Ⴃ	cut_n_stereo_44KHz.wav
3	120	1	1	1	C	2	0	992	0	Ⴜ	cut_ei_stereo_44KHz.wav
3	121	2	1	0	C	2	1	999	1	Ⴇ	cut_ei_stereo_44KHz.wav
3	122	3	4	2	I	2	0	742	1	Ⴊ	cut_n_stereo_44KHz.wav
3	123	1	2	0	C	2	1	799	1	Ⴜ	cut_ui_stereo_44KHz.wav
3	124	4	3	2	I	2	0	827	1	Ⴃ	cut_r_stereo_44KHz.wav
3	125	3	3	2	I	2	0	499	1	Ⴊ	cut_r_stereo_44KHz.wav
3	126	4	4	2	I	2	0	738	1	Ⴃ	cut_n_stereo_44KHz.wav
3	127	1	1	1	C	2	0	571	0	Ⴜ	cut_ei_stereo_44KHz.wav
3	128	2	2	1	C	1	1	555	1	Ⴇ	cut_ui_stereo_44KHz.wav
3	129	4	3	2	I	0	0	0	0	Ⴃ	cut_r_stereo_44KHz.wav
3	130	1	1	1	C	2	0	461	0	Ⴜ	cut_ei_stereo_44KHz.wav
3	131	3	4	2	I	1	0	703	1	Ⴊ	cut_n_stereo_44KHz.wav
3	132	2	1	0	C	2	1	749	1	Ⴇ	cut_ei_stereo_44KHz.wav
3	133	4	4	2	I	2	0	866	1	Ⴃ	cut_n_stereo_44KHz.wav
3	134	1	2	0	C	2	1	365	1	Ⴜ	cut_ui_stereo_44KHz.wav
3	135	2	2	1	C	2	0	512	0	Ⴇ	cut_ui_stereo_44KHz.wav
3	136	3	3	2	I	2	0	724	0	Ⴊ	cut_r_stereo_44KHz.wav
3	137	2	1	0	C	2	1	507	1	Ⴇ	cut_ei_stereo_44KHz.wav
3	138	1	2	0	C	1	0	650	0	Ⴜ	cut_ui_stereo_44KHz.wav
3	139	4	3	2	I	2	0	617	0	Ⴃ	cut_r_stereo_44KHz.wav
3	140	3	3	2	I	2	0	680	1	Ⴊ	cut_r_stereo_44KHz.wav
3	141	2	2	1	C	1	1	1734	1	Ⴇ	cut_ui_stereo_44KHz.wav
3	142	4	4	2	I	2	0	674	1	Ⴃ	cut_n_stereo_44KHz.wav
3	143	3	4	2	I	2	0	763	1	Ⴊ	cut_n_stereo_44KHz.wav
3	144	1	1	1	C	2	0	1704	0	Ⴜ	cut_ei_stereo_44KHz.wav
3	145	2	2	1	C	2	0	1282	0	Ⴇ	cut_ui_stereo_44KHz.wav
3	146	3	4	2	I	2	0	1256	0	Ⴊ	cut_n_stereo_44KHz.wav
3	147	1	1	1	C	2	0	915	0	Ⴜ	cut_ei_stereo_44KHz.wav
3	148	4	3	2	I	1	0	881	1	Ⴃ	cut_r_stereo_44KHz.wav
3	149	1	2	0	C	1	0	1182	0	Ⴜ	cut_ui_stereo_44KHz.wav
3	150	3	3	2	I	2	0	706	0	Ⴊ	cut_r_stereo_44KHz.wav
3	151	4	4	2	I	2	0	445	1	Ⴃ	cut_n_stereo_44KHz.wav
3	152	2	1	0	C	2	1	617	1	Ⴇ	cut_ei_stereo_44KHz.wav
3	153	3	3	2	I	2	0	466	0	Ⴊ	cut_r_stereo_44KHz.wav
3	154	1	2	0	C	1	0	711	0	Ⴜ	cut_ui_stereo_44KHz.wav
3	155	4	4	2	I	1	0	517	1	Ⴃ	cut_n_stereo_44KHz.wav
3	156	2	1	0	C	2	1	325	1	Ⴇ	cut_ei_stereo_44KHz.wav
3	157	1	1	1	C	1	1	620	1	Ⴜ	cut_ei_stereo_44KHz.wav
3	158	4	3	2	I	2	0	422	1	Ⴃ	cut_r_stereo_44KHz.wav
3	159	2	2	1	C	1	1	544	1	Ⴇ	cut_ui_stereo_44KHz.wav
3	160	3	4	2	I	2	0	774	1	Ⴊ	cut_n_stereo_44KHz.wav
3	161	4	4	2	I	2	0	541	1	Ⴃ	cut_n_stereo_44KHz.wav
3	162	2	1	0	C	2	1	414	1	Ⴇ	cut_ei_stereo_44KHz.wav
3	163	3	3	2	I	1	0	518	0	Ⴊ	cut_r_stereo_44KHz.wav
3	164	1	1	1	C	2	0	401	0	Ⴜ	cut_ei_stereo_44KHz.wav
3	165	3	4	2	I	1	0	902	1	Ⴊ	cut_n_stereo_44KHz.wav
3	166	4	3	2	I	1	0	718	1	Ⴃ	cut_r_stereo_44KHz.wav
3	167	2	2	1	C	2	0	591	0	Ⴇ	cut_ui_stereo_44KHz.wav
3	168	1	2	0	C	2	1	784	1	Ⴜ	cut_ui_stereo_44KHz.wav
3	169	3	3	2	I	2	0	931	1	Ⴊ	cut_r_stereo_44KHz.wav
3	170	1	1	1	C	0	0	0	0	Ⴜ	cut_ei_stereo_44KHz.wav
3	171	2	2	1	C	2	0	757	0	Ⴇ	cut_ui_stereo_44KHz.wav
3	172	4	3	2	I	2	0	703	1	Ⴃ	cut_r_stereo_44KHz.wav
3	173	3	4	2	I	2	0	611	1	Ⴊ	cut_n_stereo_44KHz.wav
3	174	4	4	2	I	1	0	654	1	Ⴃ	cut_n_stereo_44KHz.wav
3	175	1	2	0	C	2	1	552	1	Ⴜ	cut_ui_stereo_44KHz.wav
3	176	2	1	0	C	2	1	264	1	Ⴇ	cut_ei_stereo_44KHz.wav
3	177	1	1	1	C	2	0	546	0	Ⴜ	cut_ei_stereo_44KHz.wav
3	178	4	4	2	I	1	0	433	0	Ⴃ	cut_n_stereo_44KHz.wav
3	179	2	2	1	C	2	0	640	0	Ⴇ	cut_ui_stereo_44KHz.wav
3	180	3	4	2	I	1	0	719	1	Ⴊ	cut_n_stereo_44KHz.wav
3	181	1	2	0	C	2	1	1290	1	Ⴜ	cut_ui_stereo_44KHz.wav
3	182	2	1	0	C	1	0	518	0	Ⴇ	cut_ei_stereo_44KHz.wav
3	183	3	3	2	I	2	0	681	1	Ⴊ	cut_r_stereo_44KHz.wav
3	184	4	3	2	I	2	0	698	1	Ⴃ	cut_r_stereo_44KHz.wav
3	185	1	1	1	C	2	0	639	0	Ⴜ	cut_ei_stereo_44KHz.wav
3	186	3	3	2	I	1	0	871	1	Ⴊ	cut_r_stereo_44KHz.wav
3	187	4	3	2	I	2	0	603	1	Ⴃ	cut_r_stereo_44KHz.wav
3	188	2	1	0	C	1	0	485	0	Ⴇ	cut_ei_stereo_44KHz.wav
3	189	1	2	0	C	2	1	765	1	Ⴜ	cut_ui_stereo_44KHz.wav
3	190	4	4	2	I	1	0	521	1	Ⴃ	cut_n_stereo_44KHz.wav
3	191	3	4	2	I	1	0	928	1	Ⴊ	cut_n_stereo_44KHz.wav
3	192	2	2	1	C	1	1	1038	1	Ⴇ	cut_ui_stereo_44KHz.wav
3	193	3	3	2	I	2	0	641	1	Ⴊ	cut_r_stereo_44KHz.wav
3	194	2	1	0	C	2	1	514	1	Ⴇ	cut_ei_stereo_44KHz.wav
3	195	4	4	2	I	2	0	837	1	Ⴃ	cut_n_stereo_44KHz.wav
3	196	1	2	0	C	2	1	608	1	Ⴜ	cut_ui_stereo_44KHz.wav
3	197	2	2	1	C	2	0	555	0	Ⴇ	cut_ui_stereo_44KHz.wav
3	198	4	3	2	I	1	0	754	1	Ⴃ	cut_r_stereo_44KHz.wav
3	199	3	4	2	I	1	0	797	1	Ⴊ	cut_n_stereo_44KHz.wav
3	200	1	1	1	C	2	0	600	0	Ⴜ	cut_ei_stereo_44KHz.wav
