block	trial	Vstim	Astim	match	C/I	resp	result	RT	fb	V-file	A-file
RL

0	1	1	2	0	C	0	0	0	0	Ⴞ	cut_oo_stereo_44KHz.wav
0	2	1	1	1	C	2	0	1672	0	Ⴞ	cut_g_stereo_44KHz.wav
0	3	2	3	1	C	2	0	1274	0	Ⴉ	cut_ee_stereo_44KHz.wav
0	4	2	4	0	C	0	0	0	0	Ⴉ	cut_eeuw_stereo_44KHz.wav
0	5	2	4	0	C	1	0	810	0	Ⴉ	cut_eeuw_stereo_44KHz.wav
0	6	2	3	1	C	1	1	1067	1	Ⴉ	cut_ee_stereo_44KHz.wav
0	7	1	2	0	C	1	0	1085	0	Ⴞ	cut_oo_stereo_44KHz.wav
0	8	1	1	1	C	2	0	1111	0	Ⴞ	cut_g_stereo_44KHz.wav
0	9	2	4	0	C	1	0	865	0	Ⴉ	cut_eeuw_stereo_44KHz.wav
0	10	2	3	1	C	2	0	1256	0	Ⴉ	cut_ee_stereo_44KHz.wav
0	11	1	1	1	C	2	0	1837	0	Ⴞ	cut_g_stereo_44KHz.wav
0	12	1	2	0	C	2	1	975	1	Ⴞ	cut_oo_stereo_44KHz.wav
0	13	2	3	1	C	2	0	888	0	Ⴉ	cut_ee_stereo_44KHz.wav
0	14	1	2	0	C	2	1	1191	1	Ⴞ	cut_oo_stereo_44KHz.wav
0	15	2	4	0	C	2	1	1045	1	Ⴉ	cut_eeuw_stereo_44KHz.wav
0	16	1	1	1	C	2	0	741	0	Ⴞ	cut_g_stereo_44KHz.wav
0	17	1	2	0	C	2	1	869	1	Ⴞ	cut_oo_stereo_44KHz.wav
0	18	2	3	1	C	1	1	1407	1	Ⴉ	cut_ee_stereo_44KHz.wav
0	19	2	4	0	C	1	0	1316	0	Ⴉ	cut_eeuw_stereo_44KHz.wav
0	20	1	1	1	C	1	1	1063	1	Ⴞ	cut_g_stereo_44KHz.wav
0	21	1	1	1	C	1	1	1187	1	Ⴞ	cut_g_stereo_44KHz.wav
0	22	1	2	0	C	2	1	1317	1	Ⴞ	cut_oo_stereo_44KHz.wav
0	23	2	4	0	C	2	1	1074	1	Ⴉ	cut_eeuw_stereo_44KHz.wav
0	24	2	3	1	C	2	0	1085	0	Ⴉ	cut_ee_stereo_44KHz.wav
0	25	2	3	1	C	2	0	870	0	Ⴉ	cut_ee_stereo_44KHz.wav
0	26	1	1	1	C	2	0	690	0	Ⴞ	cut_g_stereo_44KHz.wav
0	27	1	2	0	C	2	1	1001	1	Ⴞ	cut_oo_stereo_44KHz.wav
0	28	2	4	0	C	1	0	816	0	Ⴉ	cut_eeuw_stereo_44KHz.wav
0	29	1	1	1	C	2	0	1053	0	Ⴞ	cut_g_stereo_44KHz.wav
0	30	2	3	1	C	2	0	935	0	Ⴉ	cut_ee_stereo_44KHz.wav
avg_resp = 1109
1	1	2	1	0	C	1	0	1314	0	Ⴟ	cut_ui_stereo_44KHz.wav
1	2	1	2	0	C	2	1	953	1	Ⴁ	cut_r_stereo_44KHz.wav
1	3	4	3	2	I	1	0	1325	1	Ⴜ	cut_s_stereo_44KHz.wav
1	4	3	3	2	I	2	0	1037	0	Ⴡ	cut_s_stereo_44KHz.wav
1	5	2	2	1	C	1	1	484	1	Ⴟ	cut_r_stereo_44KHz.wav
1	6	3	4	2	I	2	0	1205	0	Ⴡ	cut_ei_stereo_44KHz.wav
1	7	4	4	2	I	2	0	1066	1	Ⴜ	cut_ei_stereo_44KHz.wav
1	8	1	1	1	C	1	1	1075	1	Ⴁ	cut_ui_stereo_44KHz.wav
1	9	4	3	2	I	2	0	883	0	Ⴜ	cut_s_stereo_44KHz.wav
1	10	2	2	1	C	2	0	989	0	Ⴟ	cut_r_stereo_44KHz.wav
1	11	1	2	0	C	2	1	817	1	Ⴁ	cut_r_stereo_44KHz.wav
1	12	3	3	2	I	2	0	1063	1	Ⴡ	cut_s_stereo_44KHz.wav
1	13	2	1	0	C	1	0	939	0	Ⴟ	cut_ui_stereo_44KHz.wav
1	14	3	4	2	I	2	0	971	1	Ⴡ	cut_ei_stereo_44KHz.wav
1	15	1	1	1	C	2	0	875	0	Ⴁ	cut_ui_stereo_44KHz.wav
1	16	4	4	2	I	2	0	1100	0	Ⴜ	cut_ei_stereo_44KHz.wav
1	17	3	4	2	I	2	0	812	1	Ⴡ	cut_ei_stereo_44KHz.wav
1	18	1	1	1	C	2	0	1110	0	Ⴁ	cut_ui_stereo_44KHz.wav
1	19	2	2	1	C	2	0	844	0	Ⴟ	cut_r_stereo_44KHz.wav
1	20	4	3	2	I	2	0	1094	1	Ⴜ	cut_s_stereo_44KHz.wav
1	21	1	2	0	C	1	0	1072	0	Ⴁ	cut_r_stereo_44KHz.wav
1	22	2	1	0	C	2	1	609	1	Ⴟ	cut_ui_stereo_44KHz.wav
1	23	3	3	2	I	2	0	867	1	Ⴡ	cut_s_stereo_44KHz.wav
1	24	4	4	2	I	2	0	1221	0	Ⴜ	cut_ei_stereo_44KHz.wav
1	25	3	4	2	I	2	0	992	1	Ⴡ	cut_ei_stereo_44KHz.wav
1	26	1	1	1	C	1	1	1474	1	Ⴁ	cut_ui_stereo_44KHz.wav
1	27	4	3	2	I	1	0	1373	1	Ⴜ	cut_s_stereo_44KHz.wav
1	28	2	2	1	C	1	1	1160	1	Ⴟ	cut_r_stereo_44KHz.wav
1	29	3	3	2	I	2	0	688	1	Ⴡ	cut_s_stereo_44KHz.wav
1	30	1	2	0	C	2	1	1063	1	Ⴁ	cut_r_stereo_44KHz.wav
1	31	2	1	0	C	1	0	1008	0	Ⴟ	cut_ui_stereo_44KHz.wav
1	32	4	4	2	I	2	0	798	1	Ⴜ	cut_ei_stereo_44KHz.wav
1	33	3	3	2	I	2	0	1051	1	Ⴡ	cut_s_stereo_44KHz.wav
1	34	1	1	1	C	2	0	1585	0	Ⴁ	cut_ui_stereo_44KHz.wav
1	35	2	2	1	C	2	0	1110	0	Ⴟ	cut_r_stereo_44KHz.wav
1	36	4	3	2	I	2	0	927	1	Ⴜ	cut_s_stereo_44KHz.wav
1	37	2	1	0	C	2	1	1131	1	Ⴟ	cut_ui_stereo_44KHz.wav
1	38	4	4	2	I	1	0	898	1	Ⴜ	cut_ei_stereo_44KHz.wav
1	39	3	4	2	I	1	0	811	1	Ⴡ	cut_ei_stereo_44KHz.wav
1	40	1	2	0	C	2	1	1221	1	Ⴁ	cut_r_stereo_44KHz.wav
1	41	4	3	2	I	2	0	1014	0	Ⴜ	cut_s_stereo_44KHz.wav
1	42	3	4	2	I	1	0	596	1	Ⴡ	cut_ei_stereo_44KHz.wav
1	43	1	2	0	C	2	1	991	1	Ⴁ	cut_r_stereo_44KHz.wav
1	44	2	2	1	C	1	1	859	1	Ⴟ	cut_r_stereo_44KHz.wav
1	45	4	4	2	I	2	0	1355	0	Ⴜ	cut_ei_stereo_44KHz.wav
1	46	3	3	2	I	2	0	774	1	Ⴡ	cut_s_stereo_44KHz.wav
1	47	1	1	1	C	1	1	1714	1	Ⴁ	cut_ui_stereo_44KHz.wav
1	48	2	1	0	C	2	1	609	1	Ⴟ	cut_ui_stereo_44KHz.wav
1	49	4	3	2	I	1	0	1057	1	Ⴜ	cut_s_stereo_44KHz.wav
1	50	1	2	0	C	1	0	737	0	Ⴁ	cut_r_stereo_44KHz.wav
1	51	3	4	2	I	2	0	902	1	Ⴡ	cut_ei_stereo_44KHz.wav
1	52	2	2	1	C	2	0	770	0	Ⴟ	cut_r_stereo_44KHz.wav
1	53	1	1	1	C	0	0	0	0	Ⴁ	cut_ui_stereo_44KHz.wav
1	54	4	4	2	I	2	0	762	1	Ⴜ	cut_ei_stereo_44KHz.wav
1	55	2	1	0	C	1	0	1310	0	Ⴟ	cut_ui_stereo_44KHz.wav
1	56	3	3	2	I	2	0	760	0	Ⴡ	cut_s_stereo_44KHz.wav
1	57	4	3	2	I	2	0	1044	1	Ⴜ	cut_s_stereo_44KHz.wav
1	58	3	4	2	I	2	0	1133	0	Ⴡ	cut_ei_stereo_44KHz.wav
1	59	2	1	0	C	2	1	767	1	Ⴟ	cut_ui_stereo_44KHz.wav
1	60	1	1	1	C	1	1	888	1	Ⴁ	cut_ui_stereo_44KHz.wav
1	61	4	4	2	I	2	0	885	1	Ⴜ	cut_ei_stereo_44KHz.wav
1	62	3	3	2	I	2	0	825	1	Ⴡ	cut_s_stereo_44KHz.wav
1	63	2	2	1	C	1	1	755	1	Ⴟ	cut_r_stereo_44KHz.wav
1	64	1	2	0	C	1	0	1049	0	Ⴁ	cut_r_stereo_44KHz.wav
1	65	3	3	2	I	2	0	886	1	Ⴡ	cut_s_stereo_44KHz.wav
1	66	4	3	2	I	2	0	802	1	Ⴜ	cut_s_stereo_44KHz.wav
1	67	2	2	1	C	2	0	547	0	Ⴟ	cut_r_stereo_44KHz.wav
1	68	1	2	0	C	1	0	1484	0	Ⴁ	cut_r_stereo_44KHz.wav
1	69	4	4	2	I	2	0	639	0	Ⴜ	cut_ei_stereo_44KHz.wav
1	70	3	4	2	I	2	0	732	1	Ⴡ	cut_ei_stereo_44KHz.wav
1	71	1	1	1	C	1	1	797	1	Ⴁ	cut_ui_stereo_44KHz.wav
1	72	2	1	0	C	2	1	626	1	Ⴟ	cut_ui_stereo_44KHz.wav
1	73	3	4	2	I	2	0	638	1	Ⴡ	cut_ei_stereo_44KHz.wav
1	74	1	2	0	C	1	0	548	0	Ⴁ	cut_r_stereo_44KHz.wav
1	75	4	4	2	I	2	0	988	1	Ⴜ	cut_ei_stereo_44KHz.wav
1	76	2	1	0	C	2	1	710	1	Ⴟ	cut_ui_stereo_44KHz.wav
1	77	1	1	1	C	2	0	585	0	Ⴁ	cut_ui_stereo_44KHz.wav
1	78	3	3	2	I	2	0	911	1	Ⴡ	cut_s_stereo_44KHz.wav
1	79	2	2	1	C	2	0	645	0	Ⴟ	cut_r_stereo_44KHz.wav
1	80	4	3	2	I	1	0	689	1	Ⴜ	cut_s_stereo_44KHz.wav
1	81	3	3	2	I	1	0	630	1	Ⴡ	cut_s_stereo_44KHz.wav
1	82	1	1	1	C	2	0	575	0	Ⴁ	cut_ui_stereo_44KHz.wav
1	83	4	4	2	I	1	0	766	1	Ⴜ	cut_ei_stereo_44KHz.wav
1	84	2	2	1	C	2	0	729	0	Ⴟ	cut_r_stereo_44KHz.wav
1	85	3	4	2	I	2	0	990	1	Ⴡ	cut_ei_stereo_44KHz.wav
1	86	2	1	0	C	2	1	787	1	Ⴟ	cut_ui_stereo_44KHz.wav
1	87	1	2	0	C	1	0	728	0	Ⴁ	cut_r_stereo_44KHz.wav
1	88	4	3	2	I	2	0	1006	0	Ⴜ	cut_s_stereo_44KHz.wav
1	89	3	3	2	I	2	0	745	0	Ⴡ	cut_s_stereo_44KHz.wav
1	90	1	1	1	C	2	0	1085	0	Ⴁ	cut_ui_stereo_44KHz.wav
1	91	4	3	2	I	2	0	1402	1	Ⴜ	cut_s_stereo_44KHz.wav
1	92	2	2	1	C	2	0	824	0	Ⴟ	cut_r_stereo_44KHz.wav
1	93	4	4	2	I	2	0	848	1	Ⴜ	cut_ei_stereo_44KHz.wav
1	94	2	1	0	C	2	1	643	1	Ⴟ	cut_ui_stereo_44KHz.wav
1	95	1	2	0	C	2	1	473	1	Ⴁ	cut_r_stereo_44KHz.wav
1	96	3	4	2	I	2	0	834	1	Ⴡ	cut_ei_stereo_44KHz.wav
1	97	2	1	0	C	2	1	911	1	Ⴟ	cut_ui_stereo_44KHz.wav
1	98	1	1	1	C	2	0	479	0	Ⴁ	cut_ui_stereo_44KHz.wav
1	99	3	3	2	I	2	0	1018	1	Ⴡ	cut_s_stereo_44KHz.wav
1	100	4	4	2	I	2	0	887	1	Ⴜ	cut_ei_stereo_44KHz.wav
1	101	1	2	0	C	1	0	803	0	Ⴁ	cut_r_stereo_44KHz.wav
1	102	3	4	2	I	2	0	685	0	Ⴡ	cut_ei_stereo_44KHz.wav
1	103	2	2	1	C	2	0	1066	0	Ⴟ	cut_r_stereo_44KHz.wav
1	104	4	3	2	I	2	0	924	1	Ⴜ	cut_s_stereo_44KHz.wav
1	105	1	2	0	C	1	0	1527	0	Ⴁ	cut_r_stereo_44KHz.wav
1	106	4	4	2	I	2	0	641	1	Ⴜ	cut_ei_stereo_44KHz.wav
1	107	2	1	0	C	1	0	1157	0	Ⴟ	cut_ui_stereo_44KHz.wav
1	108	3	3	2	I	2	0	829	0	Ⴡ	cut_s_stereo_44KHz.wav
1	109	4	3	2	I	1	0	661	0	Ⴜ	cut_s_stereo_44KHz.wav
1	110	3	4	2	I	2	0	792	1	Ⴡ	cut_ei_stereo_44KHz.wav
1	111	2	2	1	C	2	0	989	0	Ⴟ	cut_r_stereo_44KHz.wav
1	112	1	1	1	C	2	0	1121	0	Ⴁ	cut_ui_stereo_44KHz.wav
1	113	2	2	1	C	2	0	603	0	Ⴟ	cut_r_stereo_44KHz.wav
1	114	1	2	0	C	1	0	1487	0	Ⴁ	cut_r_stereo_44KHz.wav
1	115	3	3	2	I	2	0	967	1	Ⴡ	cut_s_stereo_44KHz.wav
1	116	4	4	2	I	2	0	940	1	Ⴜ	cut_ei_stereo_44KHz.wav
1	117	1	1	1	C	2	0	597	0	Ⴁ	cut_ui_stereo_44KHz.wav
1	118	2	1	0	C	1	0	1356	0	Ⴟ	cut_ui_stereo_44KHz.wav
1	119	3	4	2	I	2	0	788	1	Ⴡ	cut_ei_stereo_44KHz.wav
1	120	4	3	2	I	2	0	1313	1	Ⴜ	cut_s_stereo_44KHz.wav
1	121	2	2	1	C	1	1	736	1	Ⴟ	cut_r_stereo_44KHz.wav
1	122	4	3	2	I	2	0	806	1	Ⴜ	cut_s_stereo_44KHz.wav
1	123	3	4	2	I	2	0	707	1	Ⴡ	cut_ei_stereo_44KHz.wav
1	124	1	2	0	C	2	1	1034	1	Ⴁ	cut_r_stereo_44KHz.wav
1	125	4	4	2	I	2	0	761	1	Ⴜ	cut_ei_stereo_44KHz.wav
1	126	2	1	0	C	2	1	906	1	Ⴟ	cut_ui_stereo_44KHz.wav
1	127	3	3	2	I	2	0	941	1	Ⴡ	cut_s_stereo_44KHz.wav
1	128	1	1	1	C	1	1	1108	1	Ⴁ	cut_ui_stereo_44KHz.wav
1	129	3	4	2	I	2	0	689	1	Ⴡ	cut_ei_stereo_44KHz.wav
1	130	2	1	0	C	2	1	651	1	Ⴟ	cut_ui_stereo_44KHz.wav
1	131	4	4	2	I	2	0	1163	1	Ⴜ	cut_ei_stereo_44KHz.wav
1	132	1	1	1	C	1	1	604	1	Ⴁ	cut_ui_stereo_44KHz.wav
1	133	4	3	2	I	2	0	463	1	Ⴜ	cut_s_stereo_44KHz.wav
1	134	1	2	0	C	1	0	819	0	Ⴁ	cut_r_stereo_44KHz.wav
1	135	2	2	1	C	2	0	607	0	Ⴟ	cut_r_stereo_44KHz.wav
1	136	3	3	2	I	2	0	780	1	Ⴡ	cut_s_stereo_44KHz.wav
1	137	2	1	0	C	1	0	937	0	Ⴟ	cut_ui_stereo_44KHz.wav
1	138	4	4	2	I	2	0	878	1	Ⴜ	cut_ei_stereo_44KHz.wav
1	139	3	4	2	I	2	0	453	1	Ⴡ	cut_ei_stereo_44KHz.wav
1	140	1	1	1	C	2	0	731	0	Ⴁ	cut_ui_stereo_44KHz.wav
1	141	4	3	2	I	2	0	604	1	Ⴜ	cut_s_stereo_44KHz.wav
1	142	1	2	0	C	1	0	813	0	Ⴁ	cut_r_stereo_44KHz.wav
1	143	3	3	2	I	2	0	846	1	Ⴡ	cut_s_stereo_44KHz.wav
1	144	2	2	1	C	2	0	785	0	Ⴟ	cut_r_stereo_44KHz.wav
1	145	4	3	2	I	2	0	935	1	Ⴜ	cut_s_stereo_44KHz.wav
1	146	1	2	0	C	2	1	1025	1	Ⴁ	cut_r_stereo_44KHz.wav
1	147	2	2	1	C	1	1	1326	1	Ⴟ	cut_r_stereo_44KHz.wav
1	148	3	3	2	I	2	0	887	1	Ⴡ	cut_s_stereo_44KHz.wav
1	149	1	1	1	C	2	0	920	0	Ⴁ	cut_ui_stereo_44KHz.wav
1	150	4	4	2	I	1	0	532	1	Ⴜ	cut_ei_stereo_44KHz.wav
1	151	3	4	2	I	2	0	763	1	Ⴡ	cut_ei_stereo_44KHz.wav
1	152	2	1	0	C	2	1	1534	1	Ⴟ	cut_ui_stereo_44KHz.wav
1	153	4	3	2	I	2	0	690	1	Ⴜ	cut_s_stereo_44KHz.wav
1	154	1	2	0	C	2	1	837	1	Ⴁ	cut_r_stereo_44KHz.wav
1	155	3	4	2	I	2	0	838	1	Ⴡ	cut_ei_stereo_44KHz.wav
1	156	2	2	1	C	2	0	564	0	Ⴟ	cut_r_stereo_44KHz.wav
1	157	1	1	1	C	2	0	806	0	Ⴁ	cut_ui_stereo_44KHz.wav
1	158	4	4	2	I	2	0	758	1	Ⴜ	cut_ei_stereo_44KHz.wav
1	159	2	1	0	C	2	1	878	1	Ⴟ	cut_ui_stereo_44KHz.wav
1	160	3	3	2	I	2	0	707	1	Ⴡ	cut_s_stereo_44KHz.wav
1	161	4	3	2	I	2	0	747	1	Ⴜ	cut_s_stereo_44KHz.wav
1	162	2	2	1	C	2	0	698	0	Ⴟ	cut_r_stereo_44KHz.wav
1	163	1	1	1	C	2	0	1208	0	Ⴁ	cut_ui_stereo_44KHz.wav
1	164	3	3	2	I	2	0	807	1	Ⴡ	cut_s_stereo_44KHz.wav
1	165	1	2	0	C	2	1	1236	1	Ⴁ	cut_r_stereo_44KHz.wav
1	166	3	4	2	I	2	0	660	0	Ⴡ	cut_ei_stereo_44KHz.wav
1	167	4	4	2	I	2	0	680	1	Ⴜ	cut_ei_stereo_44KHz.wav
1	168	2	1	0	C	2	1	757	1	Ⴟ	cut_ui_stereo_44KHz.wav
1	169	4	3	2	I	2	0	842	1	Ⴜ	cut_s_stereo_44KHz.wav
1	170	1	2	0	C	2	1	1102	1	Ⴁ	cut_r_stereo_44KHz.wav
1	171	3	4	2	I	2	0	704	0	Ⴡ	cut_ei_stereo_44KHz.wav
1	172	2	2	1	C	2	0	775	0	Ⴟ	cut_r_stereo_44KHz.wav
1	173	1	1	1	C	2	0	837	0	Ⴁ	cut_ui_stereo_44KHz.wav
1	174	4	4	2	I	2	0	708	1	Ⴜ	cut_ei_stereo_44KHz.wav
1	175	3	3	2	I	2	0	1101	0	Ⴡ	cut_s_stereo_44KHz.wav
1	176	2	1	0	C	2	1	811	1	Ⴟ	cut_ui_stereo_44KHz.wav
1	177	4	3	2	I	2	0	1564	1	Ⴜ	cut_s_stereo_44KHz.wav
1	178	2	2	1	C	2	0	542	0	Ⴟ	cut_r_stereo_44KHz.wav
1	179	3	3	2	I	2	0	1167	1	Ⴡ	cut_s_stereo_44KHz.wav
1	180	1	2	0	C	2	1	665	1	Ⴁ	cut_r_stereo_44KHz.wav
1	181	4	4	2	I	2	0	806	0	Ⴜ	cut_ei_stereo_44KHz.wav
1	182	3	4	2	I	2	0	838	1	Ⴡ	cut_ei_stereo_44KHz.wav
1	183	1	1	1	C	1	1	1418	1	Ⴁ	cut_ui_stereo_44KHz.wav
1	184	2	1	0	C	2	1	1155	1	Ⴟ	cut_ui_stereo_44KHz.wav
1	185	1	2	0	C	2	1	925	1	Ⴁ	cut_r_stereo_44KHz.wav
1	186	4	3	2	I	2	0	832	0	Ⴜ	cut_s_stereo_44KHz.wav
1	187	2	1	0	C	2	1	1016	1	Ⴟ	cut_ui_stereo_44KHz.wav
1	188	3	4	2	I	2	0	910	1	Ⴡ	cut_ei_stereo_44KHz.wav
1	189	1	1	1	C	2	0	953	0	Ⴁ	cut_ui_stereo_44KHz.wav
1	190	2	2	1	C	1	1	1552	1	Ⴟ	cut_r_stereo_44KHz.wav
1	191	3	3	2	I	2	0	1184	1	Ⴡ	cut_s_stereo_44KHz.wav
1	192	4	4	2	I	2	0	1018	1	Ⴜ	cut_ei_stereo_44KHz.wav
1	193	3	3	2	I	2	0	828	1	Ⴡ	cut_s_stereo_44KHz.wav
1	194	4	4	2	I	2	0	909	1	Ⴜ	cut_ei_stereo_44KHz.wav
1	195	1	2	0	C	1	0	1030	0	Ⴁ	cut_r_stereo_44KHz.wav
1	196	2	2	1	C	2	0	714	0	Ⴟ	cut_r_stereo_44KHz.wav
1	197	1	1	1	C	2	0	621	0	Ⴁ	cut_ui_stereo_44KHz.wav
1	198	2	1	0	C	2	1	1095	1	Ⴟ	cut_ui_stereo_44KHz.wav
1	199	3	4	2	I	2	0	941	1	Ⴡ	cut_ei_stereo_44KHz.wav
1	200	4	3	2	I	2	0	948	1	Ⴜ	cut_s_stereo_44KHz.wav
2	1	2	1	0	C	1	0	983	0	Ⴃ	cut_l_stereo_44KHz.wav
2	2	1	2	0	C	2	1	785	1	Ⴂ	cut_w_stereo_44KHz.wav
2	3	3	4	2	I	2	0	784	1	Ⴇ	cut_h_stereo_44KHz.wav
2	4	4	3	2	I	2	0	755	0	Ⴊ	cut_g_stereo_44KHz.wav
2	5	3	3	2	I	1	0	1239	1	Ⴇ	cut_g_stereo_44KHz.wav
2	6	1	1	1	C	1	1	1126	1	Ⴂ	cut_l_stereo_44KHz.wav
2	7	2	2	1	C	2	0	887	0	Ⴃ	cut_w_stereo_44KHz.wav
2	8	4	4	2	I	2	0	1169	1	Ⴊ	cut_h_stereo_44KHz.wav
2	9	1	1	1	C	2	0	1026	0	Ⴂ	cut_l_stereo_44KHz.wav
2	10	2	2	1	C	2	0	1181	0	Ⴃ	cut_w_stereo_44KHz.wav
2	11	4	3	2	I	2	0	1017	1	Ⴊ	cut_g_stereo_44KHz.wav
2	12	3	3	2	I	2	0	1035	0	Ⴇ	cut_g_stereo_44KHz.wav
2	13	2	1	0	C	2	1	1053	1	Ⴃ	cut_l_stereo_44KHz.wav
2	14	4	4	2	I	2	0	963	1	Ⴊ	cut_h_stereo_44KHz.wav
2	15	1	2	0	C	2	1	854	1	Ⴂ	cut_w_stereo_44KHz.wav
2	16	3	4	2	I	2	0	872	1	Ⴇ	cut_h_stereo_44KHz.wav
2	17	4	3	2	I	2	0	950	1	Ⴊ	cut_g_stereo_44KHz.wav
2	18	2	2	1	C	2	0	1245	0	Ⴃ	cut_w_stereo_44KHz.wav
2	19	3	3	2	I	2	0	833	1	Ⴇ	cut_g_stereo_44KHz.wav
2	20	1	1	1	C	2	0	779	0	Ⴂ	cut_l_stereo_44KHz.wav
2	21	4	4	2	I	2	0	880	1	Ⴊ	cut_h_stereo_44KHz.wav
2	22	3	4	2	I	1	0	1010	1	Ⴇ	cut_h_stereo_44KHz.wav
2	23	1	2	0	C	2	1	963	1	Ⴂ	cut_w_stereo_44KHz.wav
2	24	2	1	0	C	2	1	993	1	Ⴃ	cut_l_stereo_44KHz.wav
2	25	4	4	2	I	2	0	1024	1	Ⴊ	cut_h_stereo_44KHz.wav
2	26	3	4	2	I	2	0	661	1	Ⴇ	cut_h_stereo_44KHz.wav
2	27	2	1	0	C	2	1	1122	1	Ⴃ	cut_l_stereo_44KHz.wav
2	28	1	1	1	C	2	0	640	0	Ⴂ	cut_l_stereo_44KHz.wav
2	29	2	2	1	C	2	0	1153	0	Ⴃ	cut_w_stereo_44KHz.wav
2	30	3	3	2	I	2	0	812	1	Ⴇ	cut_g_stereo_44KHz.wav
2	31	1	2	0	C	1	0	1067	0	Ⴂ	cut_w_stereo_44KHz.wav
2	32	4	3	2	I	2	0	714	0	Ⴊ	cut_g_stereo_44KHz.wav
2	33	1	2	0	C	1	0	1411	0	Ⴂ	cut_w_stereo_44KHz.wav
2	34	2	2	1	C	2	0	866	0	Ⴃ	cut_w_stereo_44KHz.wav
2	35	3	3	2	I	1	0	852	1	Ⴇ	cut_g_stereo_44KHz.wav
2	36	4	3	2	I	2	0	1221	1	Ⴊ	cut_g_stereo_44KHz.wav
2	37	2	1	0	C	2	1	1268	1	Ⴃ	cut_l_stereo_44KHz.wav
2	38	1	1	1	C	2	0	1183	0	Ⴂ	cut_l_stereo_44KHz.wav
2	39	3	4	2	I	2	0	850	1	Ⴇ	cut_h_stereo_44KHz.wav
2	40	4	4	2	I	2	0	1080	0	Ⴊ	cut_h_stereo_44KHz.wav
2	41	1	1	1	C	1	1	724	1	Ⴂ	cut_l_stereo_44KHz.wav
2	42	2	2	1	C	2	0	963	0	Ⴃ	cut_w_stereo_44KHz.wav
2	43	3	3	2	I	2	0	784	1	Ⴇ	cut_g_stereo_44KHz.wav
2	44	4	3	2	I	2	0	743	1	Ⴊ	cut_g_stereo_44KHz.wav
2	45	3	4	2	I	2	0	565	0	Ⴇ	cut_h_stereo_44KHz.wav
2	46	2	1	0	C	2	1	937	1	Ⴃ	cut_l_stereo_44KHz.wav
2	47	1	2	0	C	2	1	1264	1	Ⴂ	cut_w_stereo_44KHz.wav
2	48	4	4	2	I	2	0	807	1	Ⴊ	cut_h_stereo_44KHz.wav
2	49	1	2	0	C	2	1	657	1	Ⴂ	cut_w_stereo_44KHz.wav
2	50	3	4	2	I	2	0	706	1	Ⴇ	cut_h_stereo_44KHz.wav
2	51	2	2	1	C	2	0	778	0	Ⴃ	cut_w_stereo_44KHz.wav
2	52	4	3	2	I	2	0	868	1	Ⴊ	cut_g_stereo_44KHz.wav
2	53	1	1	1	C	2	0	927	0	Ⴂ	cut_l_stereo_44KHz.wav
2	54	4	4	2	I	2	0	943	1	Ⴊ	cut_h_stereo_44KHz.wav
2	55	2	1	0	C	0	0	0	0	Ⴃ	cut_l_stereo_44KHz.wav
2	56	3	3	2	I	2	0	738	1	Ⴇ	cut_g_stereo_44KHz.wav
2	57	2	1	0	C	2	1	761	1	Ⴃ	cut_l_stereo_44KHz.wav
2	58	3	3	2	I	1	0	829	1	Ⴇ	cut_g_stereo_44KHz.wav
2	59	4	4	2	I	2	0	792	1	Ⴊ	cut_h_stereo_44KHz.wav
2	60	1	2	0	C	2	1	992	1	Ⴂ	cut_w_stereo_44KHz.wav
2	61	3	4	2	I	2	0	685	1	Ⴇ	cut_h_stereo_44KHz.wav
2	62	4	3	2	I	2	0	627	1	Ⴊ	cut_g_stereo_44KHz.wav
2	63	2	2	1	C	2	0	752	0	Ⴃ	cut_w_stereo_44KHz.wav
2	64	1	1	1	C	2	0	711	0	Ⴂ	cut_l_stereo_44KHz.wav
2	65	3	4	2	I	1	0	1043	0	Ⴇ	cut_h_stereo_44KHz.wav
2	66	4	3	2	I	2	0	910	1	Ⴊ	cut_g_stereo_44KHz.wav
2	67	1	1	1	C	2	0	956	0	Ⴂ	cut_l_stereo_44KHz.wav
2	68	2	1	0	C	2	1	973	1	Ⴃ	cut_l_stereo_44KHz.wav
2	69	1	2	0	C	2	1	428	1	Ⴂ	cut_w_stereo_44KHz.wav
2	70	3	3	2	I	2	0	357	0	Ⴇ	cut_g_stereo_44KHz.wav
2	71	4	4	2	I	2	0	727	1	Ⴊ	cut_h_stereo_44KHz.wav
2	72	2	2	1	C	2	0	1023	0	Ⴃ	cut_w_stereo_44KHz.wav
2	73	3	4	2	I	2	0	540	0	Ⴇ	cut_h_stereo_44KHz.wav
2	74	1	1	1	C	2	0	434	0	Ⴂ	cut_l_stereo_44KHz.wav
2	75	2	2	1	C	2	0	582	0	Ⴃ	cut_w_stereo_44KHz.wav
2	76	4	4	2	I	1	0	780	0	Ⴊ	cut_h_stereo_44KHz.wav
2	77	3	3	2	I	2	0	893	1	Ⴇ	cut_g_stereo_44KHz.wav
2	78	1	2	0	C	2	1	1055	1	Ⴂ	cut_w_stereo_44KHz.wav
2	79	2	1	0	C	2	1	578	1	Ⴃ	cut_l_stereo_44KHz.wav
2	80	4	3	2	I	1	0	720	1	Ⴊ	cut_g_stereo_44KHz.wav
2	81	1	1	1	C	2	0	1040	0	Ⴂ	cut_l_stereo_44KHz.wav
2	82	2	1	0	C	2	1	1188	1	Ⴃ	cut_l_stereo_44KHz.wav
2	83	3	3	2	I	2	0	615	1	Ⴇ	cut_g_stereo_44KHz.wav
2	84	4	3	2	I	2	0	648	1	Ⴊ	cut_g_stereo_44KHz.wav
2	85	3	4	2	I	2	0	875	1	Ⴇ	cut_h_stereo_44KHz.wav
2	86	1	2	0	C	2	1	914	1	Ⴂ	cut_w_stereo_44KHz.wav
2	87	4	4	2	I	2	0	579	1	Ⴊ	cut_h_stereo_44KHz.wav
2	88	2	2	1	C	2	0	642	0	Ⴃ	cut_w_stereo_44KHz.wav
2	89	3	3	2	I	2	0	614	1	Ⴇ	cut_g_stereo_44KHz.wav
2	90	4	4	2	I	2	0	794	0	Ⴊ	cut_h_stereo_44KHz.wav
2	91	2	1	0	C	1	0	1155	0	Ⴃ	cut_l_stereo_44KHz.wav
2	92	1	1	1	C	2	0	707	0	Ⴂ	cut_l_stereo_44KHz.wav
2	93	3	4	2	I	1	0	699	1	Ⴇ	cut_h_stereo_44KHz.wav
2	94	4	3	2	I	2	0	593	0	Ⴊ	cut_g_stereo_44KHz.wav
2	95	1	2	0	C	2	1	729	1	Ⴂ	cut_w_stereo_44KHz.wav
2	96	2	2	1	C	1	1	1302	1	Ⴃ	cut_w_stereo_44KHz.wav
2	97	3	4	2	I	2	0	842	1	Ⴇ	cut_h_stereo_44KHz.wav
2	98	1	2	0	C	2	1	1086	1	Ⴂ	cut_w_stereo_44KHz.wav
2	99	2	2	1	C	1	1	816	1	Ⴃ	cut_w_stereo_44KHz.wav
2	100	4	3	2	I	1	0	881	1	Ⴊ	cut_g_stereo_44KHz.wav
2	101	3	3	2	I	2	0	1177	0	Ⴇ	cut_g_stereo_44KHz.wav
2	102	4	4	2	I	2	0	906	1	Ⴊ	cut_h_stereo_44KHz.wav
2	103	2	1	0	C	2	1	926	1	Ⴃ	cut_l_stereo_44KHz.wav
2	104	1	1	1	C	2	0	618	0	Ⴂ	cut_l_stereo_44KHz.wav
2	105	2	2	1	C	1	1	1088	1	Ⴃ	cut_w_stereo_44KHz.wav
2	106	1	1	1	C	1	1	974	1	Ⴂ	cut_l_stereo_44KHz.wav
2	107	4	4	2	I	1	0	747	1	Ⴊ	cut_h_stereo_44KHz.wav
2	108	3	3	2	I	1	0	822	1	Ⴇ	cut_g_stereo_44KHz.wav
2	109	1	2	0	C	2	1	1337	1	Ⴂ	cut_w_stereo_44KHz.wav
2	110	2	1	0	C	2	1	921	1	Ⴃ	cut_l_stereo_44KHz.wav
2	111	3	4	2	I	2	0	783	1	Ⴇ	cut_h_stereo_44KHz.wav
2	112	4	3	2	I	2	0	748	1	Ⴊ	cut_g_stereo_44KHz.wav
2	113	2	2	1	C	2	0	786	0	Ⴃ	cut_w_stereo_44KHz.wav
2	114	1	1	1	C	2	0	496	0	Ⴂ	cut_l_stereo_44KHz.wav
2	115	4	3	2	I	2	0	1052	1	Ⴊ	cut_g_stereo_44KHz.wav
2	116	3	3	2	I	2	0	991	0	Ⴇ	cut_g_stereo_44KHz.wav
2	117	2	1	0	C	2	1	538	1	Ⴃ	cut_l_stereo_44KHz.wav
2	118	3	4	2	I	2	0	575	1	Ⴇ	cut_h_stereo_44KHz.wav
2	119	1	2	0	C	2	1	741	1	Ⴂ	cut_w_stereo_44KHz.wav
2	120	4	4	2	I	2	0	837	1	Ⴊ	cut_h_stereo_44KHz.wav
2	121	3	3	2	I	2	0	732	1	Ⴇ	cut_g_stereo_44KHz.wav
2	122	1	1	1	C	1	1	1546	1	Ⴂ	cut_l_stereo_44KHz.wav
2	123	4	3	2	I	2	0	937	1	Ⴊ	cut_g_stereo_44KHz.wav
2	124	2	2	1	C	1	1	1328	1	Ⴃ	cut_w_stereo_44KHz.wav
2	125	3	4	2	I	2	0	870	1	Ⴇ	cut_h_stereo_44KHz.wav
2	126	1	2	0	C	2	1	832	1	Ⴂ	cut_w_stereo_44KHz.wav
2	127	4	4	2	I	2	0	825	1	Ⴊ	cut_h_stereo_44KHz.wav
2	128	2	1	0	C	2	1	880	1	Ⴃ	cut_l_stereo_44KHz.wav
2	129	4	3	2	I	1	0	1010	1	Ⴊ	cut_g_stereo_44KHz.wav
2	130	3	4	2	I	1	0	684	1	Ⴇ	cut_h_stereo_44KHz.wav
2	131	1	1	1	C	2	0	629	0	Ⴂ	cut_l_stereo_44KHz.wav
2	132	2	2	1	C	2	0	726	0	Ⴃ	cut_w_stereo_44KHz.wav
2	133	1	2	0	C	2	1	1021	1	Ⴂ	cut_w_stereo_44KHz.wav
2	134	3	3	2	I	2	0	991	1	Ⴇ	cut_g_stereo_44KHz.wav
2	135	4	4	2	I	2	0	1777	1	Ⴊ	cut_h_stereo_44KHz.wav
2	136	2	1	0	C	2	1	462	1	Ⴃ	cut_l_stereo_44KHz.wav
2	137	3	3	2	I	2	0	672	1	Ⴇ	cut_g_stereo_44KHz.wav
2	138	1	1	1	C	2	0	999	0	Ⴂ	cut_l_stereo_44KHz.wav
2	139	2	1	0	C	2	1	655	1	Ⴃ	cut_l_stereo_44KHz.wav
2	140	4	4	2	I	2	0	806	1	Ⴊ	cut_h_stereo_44KHz.wav
2	141	2	2	1	C	2	0	761	0	Ⴃ	cut_w_stereo_44KHz.wav
2	142	4	3	2	I	2	0	551	0	Ⴊ	cut_g_stereo_44KHz.wav
2	143	3	4	2	I	1	0	911	1	Ⴇ	cut_h_stereo_44KHz.wav
2	144	1	2	0	C	2	1	1322	1	Ⴂ	cut_w_stereo_44KHz.wav
2	145	4	3	2	I	2	0	732	0	Ⴊ	cut_g_stereo_44KHz.wav
2	146	1	1	1	C	2	0	1262	0	Ⴂ	cut_l_stereo_44KHz.wav
2	147	2	1	0	C	1	0	739	0	Ⴃ	cut_l_stereo_44KHz.wav
2	148	3	4	2	I	2	0	763	1	Ⴇ	cut_h_stereo_44KHz.wav
2	149	4	4	2	I	2	0	772	1	Ⴊ	cut_h_stereo_44KHz.wav
2	150	1	2	0	C	1	0	815	0	Ⴂ	cut_w_stereo_44KHz.wav
2	151	3	3	2	I	2	0	958	1	Ⴇ	cut_g_stereo_44KHz.wav
2	152	2	2	1	C	2	0	712	0	Ⴃ	cut_w_stereo_44KHz.wav
2	153	1	2	0	C	2	1	963	1	Ⴂ	cut_w_stereo_44KHz.wav
2	154	4	4	2	I	2	0	1017	1	Ⴊ	cut_h_stereo_44KHz.wav
2	155	3	3	2	I	2	0	599	0	Ⴇ	cut_g_stereo_44KHz.wav
2	156	2	1	0	C	2	1	1021	1	Ⴃ	cut_l_stereo_44KHz.wav
2	157	1	1	1	C	1	1	1434	1	Ⴂ	cut_l_stereo_44KHz.wav
2	158	3	4	2	I	2	0	1266	1	Ⴇ	cut_h_stereo_44KHz.wav
2	159	2	2	1	C	2	0	1242	0	Ⴃ	cut_w_stereo_44KHz.wav
2	160	4	3	2	I	2	0	669	1	Ⴊ	cut_g_stereo_44KHz.wav
2	161	3	4	2	I	2	0	804	0	Ⴇ	cut_h_stereo_44KHz.wav
2	162	4	4	2	I	2	0	850	1	Ⴊ	cut_h_stereo_44KHz.wav
2	163	2	2	1	C	2	0	726	0	Ⴃ	cut_w_stereo_44KHz.wav
2	164	1	1	1	C	2	0	1337	0	Ⴂ	cut_l_stereo_44KHz.wav
2	165	4	3	2	I	2	0	762	1	Ⴊ	cut_g_stereo_44KHz.wav
2	166	2	1	0	C	2	1	1547	1	Ⴃ	cut_l_stereo_44KHz.wav
2	167	3	3	2	I	2	0	842	1	Ⴇ	cut_g_stereo_44KHz.wav
2	168	1	2	0	C	2	1	1097	1	Ⴂ	cut_w_stereo_44KHz.wav
2	169	3	4	2	I	2	0	781	1	Ⴇ	cut_h_stereo_44KHz.wav
2	170	2	2	1	C	2	0	1192	0	Ⴃ	cut_w_stereo_44KHz.wav
2	171	4	4	2	I	2	0	732	0	Ⴊ	cut_h_stereo_44KHz.wav
2	172	1	1	1	C	1	1	1153	1	Ⴂ	cut_l_stereo_44KHz.wav
2	173	3	3	2	I	2	0	1297	1	Ⴇ	cut_g_stereo_44KHz.wav
2	174	2	1	0	C	2	1	970	1	Ⴃ	cut_l_stereo_44KHz.wav
2	175	1	2	0	C	2	1	776	1	Ⴂ	cut_w_stereo_44KHz.wav
2	176	4	3	2	I	2	0	796	1	Ⴊ	cut_g_stereo_44KHz.wav
2	177	2	1	0	C	2	1	764	1	Ⴃ	cut_l_stereo_44KHz.wav
2	178	4	3	2	I	2	0	632	1	Ⴊ	cut_g_stereo_44KHz.wav
2	179	1	1	1	C	2	0	1209	0	Ⴂ	cut_l_stereo_44KHz.wav
2	180	3	3	2	I	1	0	790	1	Ⴇ	cut_g_stereo_44KHz.wav
2	181	2	2	1	C	1	1	1341	1	Ⴃ	cut_w_stereo_44KHz.wav
2	182	3	4	2	I	1	0	911	1	Ⴇ	cut_h_stereo_44KHz.wav
2	183	1	2	0	C	2	1	1460	1	Ⴂ	cut_w_stereo_44KHz.wav
2	184	4	4	2	I	2	0	1269	1	Ⴊ	cut_h_stereo_44KHz.wav
2	185	3	4	2	I	2	0	817	0	Ⴇ	cut_h_stereo_44KHz.wav
2	186	4	4	2	I	1	0	767	0	Ⴊ	cut_h_stereo_44KHz.wav
2	187	1	2	0	C	2	1	1174	1	Ⴂ	cut_w_stereo_44KHz.wav
2	188	2	1	0	C	2	1	972	1	Ⴃ	cut_l_stereo_44KHz.wav
2	189	1	1	1	C	2	0	437	0	Ⴂ	cut_l_stereo_44KHz.wav
2	190	3	3	2	I	2	0	837	1	Ⴇ	cut_g_stereo_44KHz.wav
2	191	2	2	1	C	2	0	1277	0	Ⴃ	cut_w_stereo_44KHz.wav
2	192	4	3	2	I	2	0	761	1	Ⴊ	cut_g_stereo_44KHz.wav
2	193	2	2	1	C	2	0	1406	0	Ⴃ	cut_w_stereo_44KHz.wav
2	194	4	3	2	I	2	0	632	1	Ⴊ	cut_g_stereo_44KHz.wav
2	195	3	3	2	I	1	0	911	1	Ⴇ	cut_g_stereo_44KHz.wav
2	196	1	1	1	C	1	1	1088	1	Ⴂ	cut_l_stereo_44KHz.wav
2	197	3	4	2	I	2	0	693	1	Ⴇ	cut_h_stereo_44KHz.wav
2	198	4	4	2	I	2	0	1227	1	Ⴊ	cut_h_stereo_44KHz.wav
2	199	1	2	0	C	2	1	980	1	Ⴂ	cut_w_stereo_44KHz.wav
2	200	2	1	0	C	2	1	1014	1	Ⴃ	cut_l_stereo_44KHz.wav
3	1	2	2	1	C	2	0	809	0	Ⴉ	cut_j_stereo_44KHz.wav
3	2	4	3	2	I	2	0	641	1	Ⴒ	cut_f_stereo_44KHz.wav
3	3	3	4	2	I	1	0	606	1	Ⴔ	cut_oei_stereo_44KHz.wav
3	4	1	1	1	C	2	0	720	0	Ⴖ	cut_n_stereo_44KHz.wav
3	5	4	4	2	I	1	0	725	1	Ⴒ	cut_oei_stereo_44KHz.wav
3	6	3	3	2	I	2	0	667	1	Ⴔ	cut_f_stereo_44KHz.wav
3	7	1	2	0	C	2	1	548	1	Ⴖ	cut_j_stereo_44KHz.wav
3	8	2	1	0	C	2	1	500	1	Ⴉ	cut_n_stereo_44KHz.wav
3	9	4	3	2	I	1	0	672	1	Ⴒ	cut_f_stereo_44KHz.wav
3	10	2	2	1	C	2	0	782	0	Ⴉ	cut_j_stereo_44KHz.wav
3	11	1	2	0	C	2	1	1354	1	Ⴖ	cut_j_stereo_44KHz.wav
3	12	3	3	2	I	2	0	856	1	Ⴔ	cut_f_stereo_44KHz.wav
3	13	2	1	0	C	2	1	756	1	Ⴉ	cut_n_stereo_44KHz.wav
3	14	3	4	2	I	2	0	818	1	Ⴔ	cut_oei_stereo_44KHz.wav
3	15	4	4	2	I	2	0	1022	1	Ⴒ	cut_oei_stereo_44KHz.wav
3	16	1	1	1	C	1	1	1189	1	Ⴖ	cut_n_stereo_44KHz.wav
3	17	4	3	2	I	2	0	690	1	Ⴒ	cut_f_stereo_44KHz.wav
3	18	3	3	2	I	2	0	654	1	Ⴔ	cut_f_stereo_44KHz.wav
3	19	2	2	1	C	2	0	842	0	Ⴉ	cut_j_stereo_44KHz.wav
3	20	1	1	1	C	1	1	999	1	Ⴖ	cut_n_stereo_44KHz.wav
3	21	2	1	0	C	2	1	1563	1	Ⴉ	cut_n_stereo_44KHz.wav
3	22	1	2	0	C	2	1	1167	1	Ⴖ	cut_j_stereo_44KHz.wav
3	23	3	4	2	I	2	0	860	1	Ⴔ	cut_oei_stereo_44KHz.wav
3	24	4	4	2	I	1	0	1211	1	Ⴒ	cut_oei_stereo_44KHz.wav
3	25	1	2	0	C	2	1	987	1	Ⴖ	cut_j_stereo_44KHz.wav
3	26	4	3	2	I	2	0	901	1	Ⴒ	cut_f_stereo_44KHz.wav
3	27	3	4	2	I	2	0	547	0	Ⴔ	cut_oei_stereo_44KHz.wav
3	28	2	1	0	C	2	1	1191	1	Ⴉ	cut_n_stereo_44KHz.wav
3	29	1	1	1	C	1	1	1164	1	Ⴖ	cut_n_stereo_44KHz.wav
3	30	3	3	2	I	1	0	1152	1	Ⴔ	cut_f_stereo_44KHz.wav
3	31	2	2	1	C	1	1	694	1	Ⴉ	cut_j_stereo_44KHz.wav
3	32	4	4	2	I	2	0	694	1	Ⴒ	cut_oei_stereo_44KHz.wav
3	33	3	3	2	I	1	0	572	1	Ⴔ	cut_f_stereo_44KHz.wav
3	34	2	2	1	C	2	0	751	0	Ⴉ	cut_j_stereo_44KHz.wav
3	35	4	3	2	I	2	0	799	0	Ⴒ	cut_f_stereo_44KHz.wav
3	36	1	2	0	C	2	1	1271	1	Ⴖ	cut_j_stereo_44KHz.wav
3	37	4	4	2	I	1	0	947	1	Ⴒ	cut_oei_stereo_44KHz.wav
3	38	2	1	0	C	2	1	896	1	Ⴉ	cut_n_stereo_44KHz.wav
3	39	3	4	2	I	2	0	990	1	Ⴔ	cut_oei_stereo_44KHz.wav
3	40	1	1	1	C	1	1	466	1	Ⴖ	cut_n_stereo_44KHz.wav
3	41	4	3	2	I	2	0	884	1	Ⴒ	cut_f_stereo_44KHz.wav
3	42	3	4	2	I	2	0	726	1	Ⴔ	cut_oei_stereo_44KHz.wav
3	43	2	1	0	C	2	1	996	1	Ⴉ	cut_n_stereo_44KHz.wav
3	44	1	1	1	C	1	1	917	1	Ⴖ	cut_n_stereo_44KHz.wav
3	45	2	2	1	C	2	0	830	0	Ⴉ	cut_j_stereo_44KHz.wav
3	46	4	4	2	I	2	0	983	1	Ⴒ	cut_oei_stereo_44KHz.wav
3	47	1	2	0	C	1	0	1095	0	Ⴖ	cut_j_stereo_44KHz.wav
3	48	3	3	2	I	2	0	868	1	Ⴔ	cut_f_stereo_44KHz.wav
3	49	1	2	0	C	2	1	1591	1	Ⴖ	cut_j_stereo_44KHz.wav
3	50	2	1	0	C	2	1	629	1	Ⴉ	cut_n_stereo_44KHz.wav
3	51	3	4	2	I	2	0	701	1	Ⴔ	cut_oei_stereo_44KHz.wav
3	52	4	3	2	I	2	0	798	1	Ⴒ	cut_f_stereo_44KHz.wav
3	53	2	2	1	C	2	0	635	0	Ⴉ	cut_j_stereo_44KHz.wav
3	54	1	1	1	C	2	0	839	0	Ⴖ	cut_n_stereo_44KHz.wav
3	55	4	4	2	I	2	0	1123	1	Ⴒ	cut_oei_stereo_44KHz.wav
3	56	3	3	2	I	2	0	717	1	Ⴔ	cut_f_stereo_44KHz.wav
3	57	4	4	2	I	2	0	755	0	Ⴒ	cut_oei_stereo_44KHz.wav
3	58	1	2	0	C	2	1	1110	1	Ⴖ	cut_j_stereo_44KHz.wav
3	59	2	2	1	C	2	0	867	0	Ⴉ	cut_j_stereo_44KHz.wav
3	60	3	3	2	I	2	0	675	1	Ⴔ	cut_f_stereo_44KHz.wav
3	61	4	3	2	I	1	0	824	1	Ⴒ	cut_f_stereo_44KHz.wav
3	62	3	4	2	I	2	0	898	0	Ⴔ	cut_oei_stereo_44KHz.wav
3	63	1	1	1	C	1	1	794	1	Ⴖ	cut_n_stereo_44KHz.wav
3	64	2	1	0	C	2	1	927	1	Ⴉ	cut_n_stereo_44KHz.wav
3	65	4	4	2	I	2	0	807	1	Ⴒ	cut_oei_stereo_44KHz.wav
3	66	3	4	2	I	2	0	678	1	Ⴔ	cut_oei_stereo_44KHz.wav
3	67	2	2	1	C	1	1	997	1	Ⴉ	cut_j_stereo_44KHz.wav
3	68	1	2	0	C	2	1	792	1	Ⴖ	cut_j_stereo_44KHz.wav
3	69	2	1	0	C	1	0	628	0	Ⴉ	cut_n_stereo_44KHz.wav
3	70	4	3	2	I	2	0	922	0	Ⴒ	cut_f_stereo_44KHz.wav
3	71	1	1	1	C	1	1	549	1	Ⴖ	cut_n_stereo_44KHz.wav
3	72	3	3	2	I	2	0	914	0	Ⴔ	cut_f_stereo_44KHz.wav
3	73	2	2	1	C	2	0	772	0	Ⴉ	cut_j_stereo_44KHz.wav
3	74	4	4	2	I	2	0	713	1	Ⴒ	cut_oei_stereo_44KHz.wav
3	75	1	1	1	C	2	0	1139	0	Ⴖ	cut_n_stereo_44KHz.wav
3	76	3	4	2	I	2	0	837	1	Ⴔ	cut_oei_stereo_44KHz.wav
3	77	2	1	0	C	2	1	703	1	Ⴉ	cut_n_stereo_44KHz.wav
3	78	3	3	2	I	2	0	771	0	Ⴔ	cut_f_stereo_44KHz.wav
3	79	4	3	2	I	1	0	1611	0	Ⴒ	cut_f_stereo_44KHz.wav
3	80	1	2	0	C	2	1	421	1	Ⴖ	cut_j_stereo_44KHz.wav
3	81	4	4	2	I	2	0	351	1	Ⴒ	cut_oei_stereo_44KHz.wav
3	82	2	1	0	C	2	1	416	1	Ⴉ	cut_n_stereo_44KHz.wav
3	83	3	3	2	I	1	0	515	1	Ⴔ	cut_f_stereo_44KHz.wav
3	84	1	2	0	C	2	1	562	1	Ⴖ	cut_j_stereo_44KHz.wav
3	85	3	4	2	I	2	0	716	1	Ⴔ	cut_oei_stereo_44KHz.wav
3	86	1	1	1	C	1	1	744	1	Ⴖ	cut_n_stereo_44KHz.wav
3	87	4	3	2	I	2	0	427	1	Ⴒ	cut_f_stereo_44KHz.wav
3	88	2	2	1	C	2	0	1045	0	Ⴉ	cut_j_stereo_44KHz.wav
3	89	1	2	0	C	2	1	740	1	Ⴖ	cut_j_stereo_44KHz.wav
3	90	4	4	2	I	2	0	616	0	Ⴒ	cut_oei_stereo_44KHz.wav
3	91	3	3	2	I	1	0	704	1	Ⴔ	cut_f_stereo_44KHz.wav
3	92	2	2	1	C	2	0	1833	0	Ⴉ	cut_j_stereo_44KHz.wav
3	93	1	1	1	C	1	1	517	1	Ⴖ	cut_n_stereo_44KHz.wav
3	94	4	3	2	I	2	0	954	0	Ⴒ	cut_f_stereo_44KHz.wav
3	95	2	1	0	C	2	1	847	1	Ⴉ	cut_n_stereo_44KHz.wav
3	96	3	4	2	I	1	0	960	1	Ⴔ	cut_oei_stereo_44KHz.wav
3	97	1	1	1	C	2	0	817	0	Ⴖ	cut_n_stereo_44KHz.wav
3	98	3	3	2	I	2	0	1018	1	Ⴔ	cut_f_stereo_44KHz.wav
3	99	2	2	1	C	1	1	835	1	Ⴉ	cut_j_stereo_44KHz.wav
3	100	4	3	2	I	2	0	959	1	Ⴒ	cut_f_stereo_44KHz.wav
3	101	3	4	2	I	2	0	843	1	Ⴔ	cut_oei_stereo_44KHz.wav
3	102	2	1	0	C	2	1	429	1	Ⴉ	cut_n_stereo_44KHz.wav
3	103	1	2	0	C	1	0	1208	0	Ⴖ	cut_j_stereo_44KHz.wav
3	104	4	4	2	I	2	0	935	1	Ⴒ	cut_oei_stereo_44KHz.wav
3	105	1	2	0	C	2	1	722	1	Ⴖ	cut_j_stereo_44KHz.wav
3	106	4	3	2	I	2	0	1062	1	Ⴒ	cut_f_stereo_44KHz.wav
3	107	2	2	1	C	2	0	766	0	Ⴉ	cut_j_stereo_44KHz.wav
3	108	3	4	2	I	1	0	650	1	Ⴔ	cut_oei_stereo_44KHz.wav
3	109	2	1	0	C	2	1	533	1	Ⴉ	cut_n_stereo_44KHz.wav
3	110	3	3	2	I	2	0	741	1	Ⴔ	cut_f_stereo_44KHz.wav
3	111	1	1	1	C	2	0	733	0	Ⴖ	cut_n_stereo_44KHz.wav
3	112	4	4	2	I	1	0	594	1	Ⴒ	cut_oei_stereo_44KHz.wav
3	113	1	2	0	C	1	0	621	0	Ⴖ	cut_j_stereo_44KHz.wav
3	114	2	1	0	C	2	1	461	1	Ⴉ	cut_n_stereo_44KHz.wav
3	115	3	4	2	I	2	0	508	1	Ⴔ	cut_oei_stereo_44KHz.wav
3	116	4	4	2	I	2	0	758	1	Ⴒ	cut_oei_stereo_44KHz.wav
3	117	3	3	2	I	1	0	995	1	Ⴔ	cut_f_stereo_44KHz.wav
3	118	2	2	1	C	0	0	0	0	Ⴉ	cut_j_stereo_44KHz.wav
3	119	4	3	2	I	2	0	1289	0	Ⴒ	cut_f_stereo_44KHz.wav
3	120	1	1	1	C	1	1	658	1	Ⴖ	cut_n_stereo_44KHz.wav
3	121	3	4	2	I	2	0	690	1	Ⴔ	cut_oei_stereo_44KHz.wav
3	122	4	3	2	I	0	0	0	0	Ⴒ	cut_f_stereo_44KHz.wav
3	123	2	1	0	C	2	1	501	1	Ⴉ	cut_n_stereo_44KHz.wav
3	124	1	1	1	C	2	0	548	0	Ⴖ	cut_n_stereo_44KHz.wav
3	125	3	3	2	I	2	0	677	0	Ⴔ	cut_f_stereo_44KHz.wav
3	126	1	2	0	C	2	1	870	1	Ⴖ	cut_j_stereo_44KHz.wav
3	127	2	2	1	C	2	0	678	0	Ⴉ	cut_j_stereo_44KHz.wav
3	128	4	4	2	I	2	0	768	1	Ⴒ	cut_oei_stereo_44KHz.wav
3	129	3	3	2	I	2	0	866	0	Ⴔ	cut_f_stereo_44KHz.wav
3	130	2	1	0	C	2	1	802	1	Ⴉ	cut_n_stereo_44KHz.wav
3	131	1	2	0	C	2	1	564	1	Ⴖ	cut_j_stereo_44KHz.wav
3	132	4	3	2	I	2	0	581	1	Ⴒ	cut_f_stereo_44KHz.wav
3	133	1	1	1	C	2	0	578	0	Ⴖ	cut_n_stereo_44KHz.wav
3	134	4	4	2	I	1	0	698	1	Ⴒ	cut_oei_stereo_44KHz.wav
3	135	3	4	2	I	2	0	689	1	Ⴔ	cut_oei_stereo_44KHz.wav
3	136	2	2	1	C	2	0	497	0	Ⴉ	cut_j_stereo_44KHz.wav
3	137	3	3	2	I	1	0	561	0	Ⴔ	cut_f_stereo_44KHz.wav
3	138	4	3	2	I	2	0	480	0	Ⴒ	cut_f_stereo_44KHz.wav
3	139	2	2	1	C	1	1	482	1	Ⴉ	cut_j_stereo_44KHz.wav
3	140	1	1	1	C	2	0	329	0	Ⴖ	cut_n_stereo_44KHz.wav
3	141	3	4	2	I	1	0	929	1	Ⴔ	cut_oei_stereo_44KHz.wav
3	142	4	4	2	I	1	0	633	1	Ⴒ	cut_oei_stereo_44KHz.wav
3	143	2	1	0	C	1	0	715	0	Ⴉ	cut_n_stereo_44KHz.wav
3	144	1	2	0	C	2	1	803	1	Ⴖ	cut_j_stereo_44KHz.wav
3	145	2	1	0	C	2	1	826	1	Ⴉ	cut_n_stereo_44KHz.wav
3	146	1	1	1	C	2	0	658	0	Ⴖ	cut_n_stereo_44KHz.wav
3	147	3	4	2	I	1	0	487	1	Ⴔ	cut_oei_stereo_44KHz.wav
3	148	4	3	2	I	2	0	494	1	Ⴒ	cut_f_stereo_44KHz.wav
3	149	1	2	0	C	2	1	485	1	Ⴖ	cut_j_stereo_44KHz.wav
3	150	3	3	2	I	2	0	398	1	Ⴔ	cut_f_stereo_44KHz.wav
3	151	2	2	1	C	2	0	492	0	Ⴉ	cut_j_stereo_44KHz.wav
3	152	4	4	2	I	2	0	1482	1	Ⴒ	cut_oei_stereo_44KHz.wav
3	153	3	3	2	I	2	0	1081	1	Ⴔ	cut_f_stereo_44KHz.wav
3	154	4	3	2	I	2	0	1139	1	Ⴒ	cut_f_stereo_44KHz.wav
3	155	2	2	1	C	2	0	644	0	Ⴉ	cut_j_stereo_44KHz.wav
3	156	1	2	0	C	1	0	557	0	Ⴖ	cut_j_stereo_44KHz.wav
3	157	2	1	0	C	2	1	488	1	Ⴉ	cut_n_stereo_44KHz.wav
3	158	3	4	2	I	2	0	558	0	Ⴔ	cut_oei_stereo_44KHz.wav
3	159	4	4	2	I	2	0	435	1	Ⴒ	cut_oei_stereo_44KHz.wav
3	160	1	1	1	C	2	0	529	0	Ⴖ	cut_n_stereo_44KHz.wav
3	161	3	3	2	I	1	0	589	1	Ⴔ	cut_f_stereo_44KHz.wav
3	162	2	2	1	C	2	0	331	0	Ⴉ	cut_j_stereo_44KHz.wav
3	163	4	4	2	I	2	0	481	1	Ⴒ	cut_oei_stereo_44KHz.wav
3	164	1	1	1	C	2	0	491	0	Ⴖ	cut_n_stereo_44KHz.wav
3	165	4	3	2	I	2	0	602	0	Ⴒ	cut_f_stereo_44KHz.wav
3	166	3	4	2	I	2	0	600	1	Ⴔ	cut_oei_stereo_44KHz.wav
3	167	2	1	0	C	2	1	517	1	Ⴉ	cut_n_stereo_44KHz.wav
3	168	1	2	0	C	2	1	65	1	Ⴖ	cut_j_stereo_44KHz.wav
3	169	4	3	2	I	2	0	340	1	Ⴒ	cut_f_stereo_44KHz.wav
3	170	2	2	1	C	2	0	427	0	Ⴉ	cut_j_stereo_44KHz.wav
3	171	1	1	1	C	1	1	1244	1	Ⴖ	cut_n_stereo_44KHz.wav
3	172	3	3	2	I	2	0	280	1	Ⴔ	cut_f_stereo_44KHz.wav
3	173	2	1	0	C	2	1	485	1	Ⴉ	cut_n_stereo_44KHz.wav
3	174	1	2	0	C	2	1	417	1	Ⴖ	cut_j_stereo_44KHz.wav
3	175	4	4	2	I	2	0	333	1	Ⴒ	cut_oei_stereo_44KHz.wav
3	176	3	4	2	I	2	0	536	1	Ⴔ	cut_oei_stereo_44KHz.wav
3	177	4	3	2	I	2	0	320	1	Ⴒ	cut_f_stereo_44KHz.wav
3	178	1	2	0	C	2	1	311	1	Ⴖ	cut_j_stereo_44KHz.wav
3	179	2	1	0	C	2	1	467	1	Ⴉ	cut_n_stereo_44KHz.wav
3	180	3	4	2	I	2	0	402	0	Ⴔ	cut_oei_stereo_44KHz.wav
3	181	4	4	2	I	2	0	266	1	Ⴒ	cut_oei_stereo_44KHz.wav
3	182	3	3	2	I	2	0	630	0	Ⴔ	cut_f_stereo_44KHz.wav
3	183	2	2	1	C	1	1	460	1	Ⴉ	cut_j_stereo_44KHz.wav
3	184	1	1	1	C	2	0	335	0	Ⴖ	cut_n_stereo_44KHz.wav
3	185	3	3	2	I	2	0	406	1	Ⴔ	cut_f_stereo_44KHz.wav
3	186	1	1	1	C	2	0	395	0	Ⴖ	cut_n_stereo_44KHz.wav
3	187	4	4	2	I	2	0	619	1	Ⴒ	cut_oei_stereo_44KHz.wav
3	188	2	1	0	C	2	1	359	1	Ⴉ	cut_n_stereo_44KHz.wav
3	189	1	2	0	C	2	1	552	1	Ⴖ	cut_j_stereo_44KHz.wav
3	190	3	4	2	I	1	0	410	1	Ⴔ	cut_oei_stereo_44KHz.wav
3	191	4	3	2	I	2	0	582	1	Ⴒ	cut_f_stereo_44KHz.wav
3	192	2	2	1	C	2	0	543	0	Ⴉ	cut_j_stereo_44KHz.wav
3	193	4	3	2	I	2	0	375	1	Ⴒ	cut_f_stereo_44KHz.wav
3	194	3	3	2	I	2	0	447	1	Ⴔ	cut_f_stereo_44KHz.wav
3	195	1	2	0	C	2	1	847	1	Ⴖ	cut_j_stereo_44KHz.wav
3	196	2	2	1	C	2	0	561	0	Ⴉ	cut_j_stereo_44KHz.wav
3	197	4	4	2	I	2	0	171	0	Ⴒ	cut_oei_stereo_44KHz.wav
3	198	1	1	1	C	1	1	63	1	Ⴖ	cut_n_stereo_44KHz.wav
3	199	2	1	0	C	1	0	251	0	Ⴉ	cut_n_stereo_44KHz.wav
3	200	3	4	2	I	2	0	490	1	Ⴔ	cut_oei_stereo_44KHz.wav
4	1	1	1	1	C	2	0	567	0	Ⴏ	cut_k_stereo_44KHz.wav
4	2	4	3	2	I	1	0	344	0	Ⴕ	cut_a_stereo_44KHz.wav
4	3	2	2	1	C	2	0	352	0	Ⴐ	cut_u_stereo_44KHz.wav
4	4	3	4	2	I	2	0	277	0	Ⴌ	cut_o_stereo_44KHz.wav
4	5	1	2	0	C	2	1	347	1	Ⴏ	cut_u_stereo_44KHz.wav
4	6	2	1	0	C	1	0	531	0	Ⴐ	cut_k_stereo_44KHz.wav
4	7	3	3	2	I	2	0	349	1	Ⴌ	cut_a_stereo_44KHz.wav
4	8	4	4	2	I	2	0	375	1	Ⴕ	cut_o_stereo_44KHz.wav
4	9	2	2	1	C	2	0	719	0	Ⴐ	cut_u_stereo_44KHz.wav
4	10	4	4	2	I	2	0	419	1	Ⴕ	cut_o_stereo_44KHz.wav
4	11	3	4	2	I	1	0	384	0	Ⴌ	cut_o_stereo_44KHz.wav
4	12	1	1	1	C	2	0	391	0	Ⴏ	cut_k_stereo_44KHz.wav
4	13	4	3	2	I	2	0	181	1	Ⴕ	cut_a_stereo_44KHz.wav
4	14	3	3	2	I	2	0	373	1	Ⴌ	cut_a_stereo_44KHz.wav
4	15	2	1	0	C	0	0	0	0	Ⴐ	cut_k_stereo_44KHz.wav
4	16	1	2	0	C	2	1	282	1	Ⴏ	cut_u_stereo_44KHz.wav
4	17	4	3	2	I	2	0	485	1	Ⴕ	cut_a_stereo_44KHz.wav
4	18	1	2	0	C	2	1	1145	1	Ⴏ	cut_u_stereo_44KHz.wav
4	19	3	3	2	I	2	0	480	1	Ⴌ	cut_a_stereo_44KHz.wav
4	20	2	2	1	C	2	0	466	0	Ⴐ	cut_u_stereo_44KHz.wav
4	21	4	4	2	I	2	0	449	1	Ⴕ	cut_o_stereo_44KHz.wav
4	22	2	1	0	C	2	1	43	1	Ⴐ	cut_k_stereo_44KHz.wav
4	23	1	1	1	C	2	0	295	0	Ⴏ	cut_k_stereo_44KHz.wav
4	24	3	4	2	I	1	0	387	1	Ⴌ	cut_o_stereo_44KHz.wav
4	25	2	1	0	C	2	1	644	1	Ⴐ	cut_k_stereo_44KHz.wav
4	26	1	1	1	C	2	0	277	0	Ⴏ	cut_k_stereo_44KHz.wav
4	27	4	3	2	I	2	0	441	1	Ⴕ	cut_a_stereo_44KHz.wav
4	28	3	4	2	I	2	0	694	1	Ⴌ	cut_o_stereo_44KHz.wav
4	29	4	4	2	I	2	0	584	0	Ⴕ	cut_o_stereo_44KHz.wav
4	30	1	2	0	C	2	1	306	1	Ⴏ	cut_u_stereo_44KHz.wav
4	31	3	3	2	I	2	0	501	1	Ⴌ	cut_a_stereo_44KHz.wav
4	32	2	2	1	C	2	0	340	0	Ⴐ	cut_u_stereo_44KHz.wav
4	33	3	3	2	I	2	0	606	1	Ⴌ	cut_a_stereo_44KHz.wav
4	34	4	4	2	I	2	0	314	1	Ⴕ	cut_o_stereo_44KHz.wav
4	35	2	2	1	C	2	0	649	0	Ⴐ	cut_u_stereo_44KHz.wav
4	36	1	1	1	C	2	0	409	0	Ⴏ	cut_k_stereo_44KHz.wav
4	37	2	1	0	C	1	0	338	0	Ⴐ	cut_k_stereo_44KHz.wav
4	38	4	3	2	I	2	0	520	0	Ⴕ	cut_a_stereo_44KHz.wav
4	39	3	4	2	I	2	0	592	1	Ⴌ	cut_o_stereo_44KHz.wav
4	40	1	2	0	C	2	1	375	1	Ⴏ	cut_u_stereo_44KHz.wav
4	41	4	3	2	I	2	0	581	1	Ⴕ	cut_a_stereo_44KHz.wav
4	42	2	1	0	C	2	1	627	1	Ⴐ	cut_k_stereo_44KHz.wav
4	43	1	1	1	C	1	1	829	1	Ⴏ	cut_k_stereo_44KHz.wav
4	44	3	4	2	I	2	0	540	1	Ⴌ	cut_o_stereo_44KHz.wav
4	45	4	4	2	I	1	0	453	1	Ⴕ	cut_o_stereo_44KHz.wav
4	46	3	3	2	I	2	0	906	1	Ⴌ	cut_a_stereo_44KHz.wav
4	47	1	2	0	C	2	1	720	1	Ⴏ	cut_u_stereo_44KHz.wav
4	48	2	2	1	C	2	0	609	0	Ⴐ	cut_u_stereo_44KHz.wav
4	49	3	3	2	I	2	0	301	1	Ⴌ	cut_a_stereo_44KHz.wav
4	50	1	2	0	C	0	0	0	0	Ⴏ	cut_u_stereo_44KHz.wav
4	51	4	3	2	I	2	0	671	1	Ⴕ	cut_a_stereo_44KHz.wav
4	52	2	1	0	C	2	1	1287	1	Ⴐ	cut_k_stereo_44KHz.wav
4	53	3	4	2	I	2	0	222	1	Ⴌ	cut_o_stereo_44KHz.wav
4	54	2	2	1	C	2	0	250	0	Ⴐ	cut_u_stereo_44KHz.wav
4	55	1	1	1	C	1	1	403	1	Ⴏ	cut_k_stereo_44KHz.wav
4	56	4	4	2	I	2	0	673	1	Ⴕ	cut_o_stereo_44KHz.wav
4	57	2	1	0	C	2	1	1804	1	Ⴐ	cut_k_stereo_44KHz.wav
4	58	1	1	1	C	2	0	338	0	Ⴏ	cut_k_stereo_44KHz.wav
4	59	3	4	2	I	1	0	477	1	Ⴌ	cut_o_stereo_44KHz.wav
4	60	4	4	2	I	2	0	379	1	Ⴕ	cut_o_stereo_44KHz.wav
4	61	1	2	0	C	2	1	475	1	Ⴏ	cut_u_stereo_44KHz.wav
4	62	2	2	1	C	2	0	363	0	Ⴐ	cut_u_stereo_44KHz.wav
4	63	4	3	2	I	1	0	312	1	Ⴕ	cut_a_stereo_44KHz.wav
4	64	3	3	2	I	2	0	424	1	Ⴌ	cut_a_stereo_44KHz.wav
4	65	1	2	0	C	2	1	458	1	Ⴏ	cut_u_stereo_44KHz.wav
4	66	3	4	2	I	0	0	0	0	Ⴌ	cut_o_stereo_44KHz.wav
4	67	4	3	2	I	2	0	1188	0	Ⴕ	cut_a_stereo_44KHz.wav
4	68	2	2	1	C	2	0	288	0	Ⴐ	cut_u_stereo_44KHz.wav
4	69	3	3	2	I	2	0	297	0	Ⴌ	cut_a_stereo_44KHz.wav
4	70	4	4	2	I	2	0	1115	1	Ⴕ	cut_o_stereo_44KHz.wav
4	71	1	1	1	C	1	1	1122	1	Ⴏ	cut_k_stereo_44KHz.wav
4	72	2	1	0	C	2	1	462	1	Ⴐ	cut_k_stereo_44KHz.wav
4	73	3	3	2	I	2	0	529	1	Ⴌ	cut_a_stereo_44KHz.wav
4	74	2	1	0	C	2	1	445	1	Ⴐ	cut_k_stereo_44KHz.wav
4	75	1	2	0	C	1	0	489	0	Ⴏ	cut_u_stereo_44KHz.wav
4	76	4	4	2	I	2	0	522	1	Ⴕ	cut_o_stereo_44KHz.wav
4	77	1	1	1	C	2	0	252	0	Ⴏ	cut_k_stereo_44KHz.wav
4	78	2	2	1	C	1	1	686	1	Ⴐ	cut_u_stereo_44KHz.wav
4	79	4	3	2	I	1	0	388	1	Ⴕ	cut_a_stereo_44KHz.wav
4	80	3	4	2	I	2	0	708	1	Ⴌ	cut_o_stereo_44KHz.wav
4	81	4	4	2	I	2	0	713	1	Ⴕ	cut_o_stereo_44KHz.wav
4	82	3	3	2	I	2	0	628	1	Ⴌ	cut_a_stereo_44KHz.wav
4	83	2	2	1	C	2	0	652	0	Ⴐ	cut_u_stereo_44KHz.wav
4	84	1	2	0	C	2	1	981	1	Ⴏ	cut_u_stereo_44KHz.wav
4	85	3	4	2	I	2	0	441	1	Ⴌ	cut_o_stereo_44KHz.wav
4	86	2	1	0	C	2	1	445	1	Ⴐ	cut_k_stereo_44KHz.wav
4	87	4	3	2	I	2	0	352	0	Ⴕ	cut_a_stereo_44KHz.wav
4	88	1	1	1	C	2	0	585	0	Ⴏ	cut_k_stereo_44KHz.wav
4	89	2	1	0	C	1	0	630	0	Ⴐ	cut_k_stereo_44KHz.wav
4	90	4	3	2	I	2	0	770	1	Ⴕ	cut_a_stereo_44KHz.wav
4	91	1	1	1	C	2	0	382	0	Ⴏ	cut_k_stereo_44KHz.wav
4	92	3	4	2	I	1	0	559	0	Ⴌ	cut_o_stereo_44KHz.wav
4	93	4	4	2	I	2	0	494	1	Ⴕ	cut_o_stereo_44KHz.wav
4	94	1	2	0	C	2	1	671	1	Ⴏ	cut_u_stereo_44KHz.wav
4	95	3	3	2	I	2	0	569	1	Ⴌ	cut_a_stereo_44KHz.wav
4	96	2	2	1	C	2	0	97	0	Ⴐ	cut_u_stereo_44KHz.wav
4	97	3	4	2	I	2	0	709	1	Ⴌ	cut_o_stereo_44KHz.wav
4	98	2	1	0	C	2	1	32	1	Ⴐ	cut_k_stereo_44KHz.wav
4	99	4	4	2	I	2	0	1101	1	Ⴕ	cut_o_stereo_44KHz.wav
4	100	1	1	1	C	2	0	423	0	Ⴏ	cut_k_stereo_44KHz.wav
4	101	4	3	2	I	2	0	131	1	Ⴕ	cut_a_stereo_44KHz.wav
4	102	3	3	2	I	2	0	242	1	Ⴌ	cut_a_stereo_44KHz.wav
4	103	2	2	1	C	2	0	303	0	Ⴐ	cut_u_stereo_44KHz.wav
4	104	1	2	0	C	2	1	445	1	Ⴏ	cut_u_stereo_44KHz.wav
4	105	4	4	2	I	2	0	522	1	Ⴕ	cut_o_stereo_44KHz.wav
4	106	3	3	2	I	2	0	371	0	Ⴌ	cut_a_stereo_44KHz.wav
4	107	2	1	0	C	1	0	1088	0	Ⴐ	cut_k_stereo_44KHz.wav
4	108	1	2	0	C	2	1	1805	1	Ⴏ	cut_u_stereo_44KHz.wav
4	109	2	2	1	C	2	0	245	0	Ⴐ	cut_u_stereo_44KHz.wav
4	110	4	3	2	I	2	0	368	0	Ⴕ	cut_a_stereo_44KHz.wav
4	111	1	1	1	C	2	0	406	0	Ⴏ	cut_k_stereo_44KHz.wav
4	112	3	4	2	I	2	0	584	1	Ⴌ	cut_o_stereo_44KHz.wav
4	113	4	4	2	I	2	0	471	1	Ⴕ	cut_o_stereo_44KHz.wav
4	114	3	4	2	I	2	0	1671	0	Ⴌ	cut_o_stereo_44KHz.wav
4	115	1	1	1	C	1	1	625	1	Ⴏ	cut_k_stereo_44KHz.wav
4	116	2	2	1	C	2	0	916	0	Ⴐ	cut_u_stereo_44KHz.wav
4	117	3	3	2	I	2	0	565	1	Ⴌ	cut_a_stereo_44KHz.wav
4	118	1	2	0	C	2	1	431	1	Ⴏ	cut_u_stereo_44KHz.wav
4	119	4	3	2	I	2	0	662	1	Ⴕ	cut_a_stereo_44KHz.wav
4	120	2	1	0	C	2	1	973	1	Ⴐ	cut_k_stereo_44KHz.wav
4	121	3	3	2	I	2	0	494	0	Ⴌ	cut_a_stereo_44KHz.wav
4	122	2	1	0	C	1	0	310	0	Ⴐ	cut_k_stereo_44KHz.wav
4	123	1	1	1	C	2	0	338	0	Ⴏ	cut_k_stereo_44KHz.wav
4	124	4	4	2	I	2	0	429	1	Ⴕ	cut_o_stereo_44KHz.wav
4	125	1	2	0	C	1	0	362	0	Ⴏ	cut_u_stereo_44KHz.wav
4	126	4	3	2	I	2	0	513	0	Ⴕ	cut_a_stereo_44KHz.wav
4	127	2	2	1	C	2	0	289	0	Ⴐ	cut_u_stereo_44KHz.wav
4	128	3	4	2	I	2	0	476	1	Ⴌ	cut_o_stereo_44KHz.wav
4	129	1	2	0	C	2	1	678	1	Ⴏ	cut_u_stereo_44KHz.wav
4	130	2	1	0	C	2	1	395	1	Ⴐ	cut_k_stereo_44KHz.wav
4	131	3	4	2	I	2	0	694	1	Ⴌ	cut_o_stereo_44KHz.wav
4	132	4	3	2	I	2	0	524	0	Ⴕ	cut_a_stereo_44KHz.wav
4	133	2	2	1	C	2	0	465	0	Ⴐ	cut_u_stereo_44KHz.wav
4	134	4	4	2	I	2	0	534	1	Ⴕ	cut_o_stereo_44KHz.wav
4	135	3	3	2	I	2	0	586	1	Ⴌ	cut_a_stereo_44KHz.wav
4	136	1	1	1	C	2	0	653	0	Ⴏ	cut_k_stereo_44KHz.wav
4	137	4	3	2	I	2	0	522	1	Ⴕ	cut_a_stereo_44KHz.wav
4	138	3	3	2	I	2	0	393	1	Ⴌ	cut_a_stereo_44KHz.wav
4	139	2	1	0	C	2	1	427	1	Ⴐ	cut_k_stereo_44KHz.wav
4	140	1	1	1	C	2	0	535	0	Ⴏ	cut_k_stereo_44KHz.wav
4	141	3	4	2	I	1	0	460	1	Ⴌ	cut_o_stereo_44KHz.wav
4	142	4	4	2	I	2	0	565	1	Ⴕ	cut_o_stereo_44KHz.wav
4	143	1	2	0	C	2	1	686	1	Ⴏ	cut_u_stereo_44KHz.wav
4	144	2	2	1	C	2	0	446	0	Ⴐ	cut_u_stereo_44KHz.wav
4	145	1	1	1	C	1	1	429	1	Ⴏ	cut_k_stereo_44KHz.wav
4	146	2	2	1	C	2	0	605	0	Ⴐ	cut_u_stereo_44KHz.wav
4	147	4	4	2	I	2	0	561	1	Ⴕ	cut_o_stereo_44KHz.wav
4	148	3	4	2	I	2	0	585	1	Ⴌ	cut_o_stereo_44KHz.wav
4	149	2	1	0	C	2	1	412	1	Ⴐ	cut_k_stereo_44KHz.wav
4	150	1	2	0	C	2	1	380	1	Ⴏ	cut_u_stereo_44KHz.wav
4	151	4	3	2	I	2	0	327	1	Ⴕ	cut_a_stereo_44KHz.wav
4	152	3	3	2	I	2	0	490	1	Ⴌ	cut_a_stereo_44KHz.wav
4	153	4	4	2	I	2	0	384	0	Ⴕ	cut_o_stereo_44KHz.wav
4	154	1	1	1	C	2	0	476	0	Ⴏ	cut_k_stereo_44KHz.wav
4	155	2	2	1	C	1	1	512	1	Ⴐ	cut_u_stereo_44KHz.wav
4	156	3	4	2	I	2	0	768	1	Ⴌ	cut_o_stereo_44KHz.wav
4	157	4	3	2	I	2	0	746	1	Ⴕ	cut_a_stereo_44KHz.wav
4	158	2	1	0	C	2	1	422	1	Ⴐ	cut_k_stereo_44KHz.wav
4	159	3	3	2	I	2	0	305	1	Ⴌ	cut_a_stereo_44KHz.wav
4	160	1	2	0	C	2	1	589	1	Ⴏ	cut_u_stereo_44KHz.wav
4	161	4	4	2	I	2	0	501	1	Ⴕ	cut_o_stereo_44KHz.wav
4	162	2	2	1	C	2	0	340	0	Ⴐ	cut_u_stereo_44KHz.wav
4	163	1	2	0	C	1	0	354	0	Ⴏ	cut_u_stereo_44KHz.wav
4	164	3	4	2	I	2	0	889	0	Ⴌ	cut_o_stereo_44KHz.wav
4	165	2	1	0	C	1	0	434	0	Ⴐ	cut_k_stereo_44KHz.wav
4	166	1	1	1	C	2	0	355	0	Ⴏ	cut_k_stereo_44KHz.wav
4	167	3	3	2	I	2	0	1097	1	Ⴌ	cut_a_stereo_44KHz.wav
4	168	4	3	2	I	0	0	0	0	Ⴕ	cut_a_stereo_44KHz.wav
4	169	3	4	2	I	2	0	283	1	Ⴌ	cut_o_stereo_44KHz.wav
4	170	2	1	0	C	2	1	529	1	Ⴐ	cut_k_stereo_44KHz.wav
4	171	4	3	2	I	2	0	618	1	Ⴕ	cut_a_stereo_44KHz.wav
4	172	1	1	1	C	2	0	535	0	Ⴏ	cut_k_stereo_44KHz.wav
4	173	4	4	2	I	2	0	407	1	Ⴕ	cut_o_stereo_44KHz.wav
4	174	1	2	0	C	2	1	1030	1	Ⴏ	cut_u_stereo_44KHz.wav
4	175	2	2	1	C	2	0	702	0	Ⴐ	cut_u_stereo_44KHz.wav
4	176	3	3	2	I	1	0	400	1	Ⴌ	cut_a_stereo_44KHz.wav
4	177	2	2	1	C	0	0	0	0	Ⴐ	cut_u_stereo_44KHz.wav
4	178	4	4	2	I	2	0	326	1	Ⴕ	cut_o_stereo_44KHz.wav
4	179	1	1	1	C	2	0	1302	0	Ⴏ	cut_k_stereo_44KHz.wav
4	180	3	4	2	I	2	0	496	1	Ⴌ	cut_o_stereo_44KHz.wav
4	181	2	1	0	C	2	1	451	1	Ⴐ	cut_k_stereo_44KHz.wav
4	182	4	3	2	I	2	0	786	1	Ⴕ	cut_a_stereo_44KHz.wav
4	183	3	3	2	I	2	0	963	1	Ⴌ	cut_a_stereo_44KHz.wav
4	184	1	2	0	C	2	1	539	1	Ⴏ	cut_u_stereo_44KHz.wav
4	185	3	3	2	I	2	0	676	0	Ⴌ	cut_a_stereo_44KHz.wav
4	186	2	1	0	C	2	1	1068	1	Ⴐ	cut_k_stereo_44KHz.wav
4	187	4	4	2	I	2	0	718	1	Ⴕ	cut_o_stereo_44KHz.wav
4	188	1	2	0	C	2	1	648	1	Ⴏ	cut_u_stereo_44KHz.wav
4	189	4	3	2	I	2	0	513	1	Ⴕ	cut_a_stereo_44KHz.wav
4	190	3	4	2	I	2	0	725	1	Ⴌ	cut_o_stereo_44KHz.wav
4	191	1	1	1	C	2	0	287	0	Ⴏ	cut_k_stereo_44KHz.wav
4	192	2	2	1	C	2	0	513	0	Ⴐ	cut_u_stereo_44KHz.wav
4	193	3	3	2	I	2	0	437	1	Ⴌ	cut_a_stereo_44KHz.wav
4	194	4	4	2	I	2	0	413	0	Ⴕ	cut_o_stereo_44KHz.wav
4	195	2	2	1	C	1	1	353	1	Ⴐ	cut_u_stereo_44KHz.wav
4	196	1	2	0	C	2	1	470	1	Ⴏ	cut_u_stereo_44KHz.wav
4	197	4	3	2	I	2	0	740	1	Ⴕ	cut_a_stereo_44KHz.wav
4	198	1	1	1	C	2	0	578	0	Ⴏ	cut_k_stereo_44KHz.wav
4	199	3	4	2	I	2	0	1287	1	Ⴌ	cut_o_stereo_44KHz.wav
4	200	2	1	0	C	2	1	723	1	Ⴐ	cut_k_stereo_44KHz.wav
