block	trial	Vstim	Astim	match	C/I	resp	result	RT	fb	V-file	A-file
LR

0	1	2	4	0	C	0	0	0	0	Ⴋ	cut_ee_stereo_44KHz.wav
0	2	1	1	1	C	1	0	1102	0	Ⴉ	cut_g_stereo_44KHz.wav
0	3	1	2	0	C	1	1	1835	1	Ⴉ	cut_oo_stereo_44KHz.wav
0	4	2	3	1	C	1	0	1142	0	Ⴋ	cut_eeuw_stereo_44KHz.wav
0	5	2	3	1	C	2	1	1375	1	Ⴋ	cut_eeuw_stereo_44KHz.wav
0	6	2	4	0	C	1	1	1422	1	Ⴋ	cut_ee_stereo_44KHz.wav
0	7	1	2	0	C	1	1	1015	1	Ⴉ	cut_oo_stereo_44KHz.wav
0	8	1	1	1	C	2	1	1068	1	Ⴉ	cut_g_stereo_44KHz.wav
0	9	1	1	1	C	1	0	1462	0	Ⴉ	cut_g_stereo_44KHz.wav
0	10	1	2	0	C	0	0	0	0	Ⴉ	cut_oo_stereo_44KHz.wav
0	11	2	4	0	C	2	0	838	0	Ⴋ	cut_ee_stereo_44KHz.wav
0	12	2	3	1	C	1	0	880	0	Ⴋ	cut_eeuw_stereo_44KHz.wav
0	13	2	4	0	C	1	1	929	1	Ⴋ	cut_ee_stereo_44KHz.wav
0	14	2	3	1	C	0	0	0	0	Ⴋ	cut_eeuw_stereo_44KHz.wav
0	15	1	2	0	C	1	1	1475	1	Ⴉ	cut_oo_stereo_44KHz.wav
0	16	1	1	1	C	1	0	1296	0	Ⴉ	cut_g_stereo_44KHz.wav
0	17	2	4	0	C	1	1	1542	1	Ⴋ	cut_ee_stereo_44KHz.wav
0	18	1	2	0	C	1	1	1958	1	Ⴉ	cut_oo_stereo_44KHz.wav
0	19	1	1	1	C	2	1	1864	1	Ⴉ	cut_g_stereo_44KHz.wav
0	20	2	3	1	C	1	0	1231	0	Ⴋ	cut_eeuw_stereo_44KHz.wav
0	21	2	4	0	C	1	1	1292	1	Ⴋ	cut_ee_stereo_44KHz.wav
0	22	2	3	1	C	1	0	1244	0	Ⴋ	cut_eeuw_stereo_44KHz.wav
0	23	1	1	1	C	2	1	1227	1	Ⴉ	cut_g_stereo_44KHz.wav
0	24	1	2	0	C	1	1	1373	1	Ⴉ	cut_oo_stereo_44KHz.wav
0	25	2	4	0	C	1	1	1746	1	Ⴋ	cut_ee_stereo_44KHz.wav
0	26	1	1	1	C	2	1	1868	1	Ⴉ	cut_g_stereo_44KHz.wav
0	27	1	2	0	C	1	1	1371	1	Ⴉ	cut_oo_stereo_44KHz.wav
0	28	2	3	1	C	2	1	1121	1	Ⴋ	cut_eeuw_stereo_44KHz.wav
0	29	1	2	0	C	1	1	1116	1	Ⴉ	cut_oo_stereo_44KHz.wav
0	30	1	1	1	C	0	0	0	0	Ⴉ	cut_g_stereo_44KHz.wav
avg_resp = 1422
1	1	3	3	2	I	1	0	1672	1	Ⴇ	cut_u_stereo_44KHz.wav
1	2	2	2	1	C	1	0	908	0	Ⴃ	cut_k_stereo_44KHz.wav
1	3	1	2	0	C	1	1	841	1	Ⴊ	cut_k_stereo_44KHz.wav
1	4	4	3	2	I	2	0	796	1	Ⴂ	cut_u_stereo_44KHz.wav
1	5	1	1	1	C	1	0	1187	0	Ⴊ	cut_o_stereo_44KHz.wav
1	6	3	4	2	I	1	0	1320	1	Ⴇ	cut_a_stereo_44KHz.wav
1	7	4	4	2	I	2	0	1086	0	Ⴂ	cut_a_stereo_44KHz.wav
1	8	2	1	0	C	2	0	1403	0	Ⴃ	cut_o_stereo_44KHz.wav
1	9	1	2	0	C	0	0	0	0	Ⴊ	cut_k_stereo_44KHz.wav
1	10	2	2	1	C	2	1	1147	1	Ⴃ	cut_k_stereo_44KHz.wav
1	11	4	4	2	I	1	0	1147	1	Ⴂ	cut_a_stereo_44KHz.wav
1	12	3	3	2	I	1	0	1518	1	Ⴇ	cut_u_stereo_44KHz.wav
1	13	1	1	1	C	2	1	1500	1	Ⴊ	cut_o_stereo_44KHz.wav
1	14	3	4	2	I	1	0	1011	0	Ⴇ	cut_a_stereo_44KHz.wav
1	15	4	3	2	I	2	0	1527	1	Ⴂ	cut_u_stereo_44KHz.wav
1	16	2	1	0	C	1	1	1783	1	Ⴃ	cut_o_stereo_44KHz.wav
1	17	1	2	0	C	2	0	1570	0	Ⴊ	cut_k_stereo_44KHz.wav
1	18	3	3	2	I	1	0	768	1	Ⴇ	cut_u_stereo_44KHz.wav
1	19	2	1	0	C	2	0	652	0	Ⴃ	cut_o_stereo_44KHz.wav
1	20	4	4	2	I	2	0	1653	1	Ⴂ	cut_a_stereo_44KHz.wav
1	21	1	1	1	C	2	1	1158	1	Ⴊ	cut_o_stereo_44KHz.wav
1	22	4	3	2	I	1	0	1296	1	Ⴂ	cut_u_stereo_44KHz.wav
1	23	2	2	1	C	2	1	1122	1	Ⴃ	cut_k_stereo_44KHz.wav
1	24	3	4	2	I	1	0	1677	1	Ⴇ	cut_a_stereo_44KHz.wav
1	25	1	2	0	C	2	0	860	0	Ⴊ	cut_k_stereo_44KHz.wav
1	26	2	1	0	C	1	1	1321	1	Ⴃ	cut_o_stereo_44KHz.wav
1	27	4	4	2	I	2	0	921	0	Ⴂ	cut_a_stereo_44KHz.wav
1	28	3	3	2	I	0	0	0	0	Ⴇ	cut_u_stereo_44KHz.wav
1	29	2	2	1	C	2	1	691	1	Ⴃ	cut_k_stereo_44KHz.wav
1	30	3	4	2	I	1	0	1208	0	Ⴇ	cut_a_stereo_44KHz.wav
1	31	1	1	1	C	2	1	1054	1	Ⴊ	cut_o_stereo_44KHz.wav
1	32	4	3	2	I	2	0	1094	1	Ⴂ	cut_u_stereo_44KHz.wav
1	33	2	2	1	C	2	1	1088	1	Ⴃ	cut_k_stereo_44KHz.wav
1	34	3	3	2	I	2	0	1275	1	Ⴇ	cut_u_stereo_44KHz.wav
1	35	1	2	0	C	1	1	1167	1	Ⴊ	cut_k_stereo_44KHz.wav
1	36	4	4	2	I	2	0	934	1	Ⴂ	cut_a_stereo_44KHz.wav
1	37	2	1	0	C	1	1	1379	1	Ⴃ	cut_o_stereo_44KHz.wav
1	38	3	4	2	I	2	0	895	1	Ⴇ	cut_a_stereo_44KHz.wav
1	39	4	3	2	I	1	0	1036	1	Ⴂ	cut_u_stereo_44KHz.wav
1	40	1	1	1	C	2	1	916	1	Ⴊ	cut_o_stereo_44KHz.wav
1	41	3	3	2	I	2	0	923	1	Ⴇ	cut_u_stereo_44KHz.wav
1	42	4	4	2	I	2	0	1110	1	Ⴂ	cut_a_stereo_44KHz.wav
1	43	2	2	1	C	2	1	911	1	Ⴃ	cut_k_stereo_44KHz.wav
1	44	1	2	0	C	1	1	1044	1	Ⴊ	cut_k_stereo_44KHz.wav
1	45	4	3	2	I	2	0	847	0	Ⴂ	cut_u_stereo_44KHz.wav
1	46	2	1	0	C	1	1	1261	1	Ⴃ	cut_o_stereo_44KHz.wav
1	47	1	1	1	C	2	1	1224	1	Ⴊ	cut_o_stereo_44KHz.wav
1	48	3	4	2	I	0	0	0	0	Ⴇ	cut_a_stereo_44KHz.wav
1	49	1	1	1	C	2	1	528	1	Ⴊ	cut_o_stereo_44KHz.wav
1	50	2	2	1	C	2	1	1102	1	Ⴃ	cut_k_stereo_44KHz.wav
1	51	3	3	2	I	0	0	0	0	Ⴇ	cut_u_stereo_44KHz.wav
1	52	4	3	2	I	2	0	801	1	Ⴂ	cut_u_stereo_44KHz.wav
1	53	3	4	2	I	2	0	971	1	Ⴇ	cut_a_stereo_44KHz.wav
1	54	1	2	0	C	2	0	1328	0	Ⴊ	cut_k_stereo_44KHz.wav
1	55	2	1	0	C	1	1	852	1	Ⴃ	cut_o_stereo_44KHz.wav
1	56	4	4	2	I	2	0	859	1	Ⴂ	cut_a_stereo_44KHz.wav
1	57	1	1	1	C	0	0	0	0	Ⴊ	cut_o_stereo_44KHz.wav
1	58	3	3	2	I	2	0	788	1	Ⴇ	cut_u_stereo_44KHz.wav
1	59	4	4	2	I	1	0	841	1	Ⴂ	cut_a_stereo_44KHz.wav
1	60	2	1	0	C	1	1	1076	1	Ⴃ	cut_o_stereo_44KHz.wav
1	61	4	3	2	I	2	0	1140	1	Ⴂ	cut_u_stereo_44KHz.wav
1	62	3	4	2	I	2	0	1005	1	Ⴇ	cut_a_stereo_44KHz.wav
1	63	2	2	1	C	0	0	0	0	Ⴃ	cut_k_stereo_44KHz.wav
1	64	1	2	0	C	1	1	1016	1	Ⴊ	cut_k_stereo_44KHz.wav
1	65	4	4	2	I	2	0	867	1	Ⴂ	cut_a_stereo_44KHz.wav
1	66	3	3	2	I	2	0	823	1	Ⴇ	cut_u_stereo_44KHz.wav
1	67	1	1	1	C	2	1	965	1	Ⴊ	cut_o_stereo_44KHz.wav
1	68	2	1	0	C	1	1	769	1	Ⴃ	cut_o_stereo_44KHz.wav
1	69	3	4	2	I	2	0	1580	1	Ⴇ	cut_a_stereo_44KHz.wav
1	70	2	2	1	C	2	1	1058	1	Ⴃ	cut_k_stereo_44KHz.wav
1	71	4	3	2	I	2	0	1212	1	Ⴂ	cut_u_stereo_44KHz.wav
1	72	1	2	0	C	0	0	0	0	Ⴊ	cut_k_stereo_44KHz.wav
1	73	3	3	2	I	2	0	1021	1	Ⴇ	cut_u_stereo_44KHz.wav
1	74	1	1	1	C	2	1	1323	1	Ⴊ	cut_o_stereo_44KHz.wav
1	75	2	2	1	C	2	1	1399	1	Ⴃ	cut_k_stereo_44KHz.wav
1	76	4	3	2	I	2	0	1175	0	Ⴂ	cut_u_stereo_44KHz.wav
1	77	3	4	2	I	1	0	950	1	Ⴇ	cut_a_stereo_44KHz.wav
1	78	4	4	2	I	2	0	791	1	Ⴂ	cut_a_stereo_44KHz.wav
1	79	2	1	0	C	2	0	1496	0	Ⴃ	cut_o_stereo_44KHz.wav
1	80	1	2	0	C	1	1	1222	1	Ⴊ	cut_k_stereo_44KHz.wav
1	81	4	3	2	I	2	0	1087	1	Ⴂ	cut_u_stereo_44KHz.wav
1	82	2	2	1	C	2	1	1195	1	Ⴃ	cut_k_stereo_44KHz.wav
1	83	3	4	2	I	2	0	1313	1	Ⴇ	cut_a_stereo_44KHz.wav
1	84	1	1	1	C	2	1	1591	1	Ⴊ	cut_o_stereo_44KHz.wav
1	85	4	4	2	I	2	0	651	1	Ⴂ	cut_a_stereo_44KHz.wav
1	86	3	3	2	I	2	0	1003	0	Ⴇ	cut_u_stereo_44KHz.wav
1	87	2	1	0	C	1	1	1490	1	Ⴃ	cut_o_stereo_44KHz.wav
1	88	1	2	0	C	2	0	1577	0	Ⴊ	cut_k_stereo_44KHz.wav
1	89	4	3	2	I	2	0	899	0	Ⴂ	cut_u_stereo_44KHz.wav
1	90	1	1	1	C	2	1	1580	1	Ⴊ	cut_o_stereo_44KHz.wav
1	91	3	3	2	I	2	0	951	1	Ⴇ	cut_u_stereo_44KHz.wav
1	92	2	1	0	C	1	1	962	1	Ⴃ	cut_o_stereo_44KHz.wav
1	93	1	2	0	C	2	0	861	0	Ⴊ	cut_k_stereo_44KHz.wav
1	94	2	2	1	C	2	1	1016	1	Ⴃ	cut_k_stereo_44KHz.wav
1	95	3	4	2	I	1	0	1129	1	Ⴇ	cut_a_stereo_44KHz.wav
1	96	4	4	2	I	2	0	1252	1	Ⴂ	cut_a_stereo_44KHz.wav
1	97	2	2	1	C	2	1	997	1	Ⴃ	cut_k_stereo_44KHz.wav
1	98	3	3	2	I	2	0	1313	1	Ⴇ	cut_u_stereo_44KHz.wav
1	99	4	4	2	I	2	0	1064	1	Ⴂ	cut_a_stereo_44KHz.wav
1	100	1	1	1	C	2	1	1252	1	Ⴊ	cut_o_stereo_44KHz.wav
1	101	3	4	2	I	1	0	1585	1	Ⴇ	cut_a_stereo_44KHz.wav
1	102	1	2	0	C	2	0	1110	0	Ⴊ	cut_k_stereo_44KHz.wav
1	103	2	1	0	C	1	1	946	1	Ⴃ	cut_o_stereo_44KHz.wav
1	104	4	3	2	I	2	0	1189	1	Ⴂ	cut_u_stereo_44KHz.wav
1	105	3	4	2	I	1	0	1601	0	Ⴇ	cut_a_stereo_44KHz.wav
1	106	4	4	2	I	2	0	968	1	Ⴂ	cut_a_stereo_44KHz.wav
1	107	2	1	0	C	1	1	960	1	Ⴃ	cut_o_stereo_44KHz.wav
1	108	1	2	0	C	2	0	1212	0	Ⴊ	cut_k_stereo_44KHz.wav
1	109	4	3	2	I	1	0	997	0	Ⴂ	cut_u_stereo_44KHz.wav
1	110	2	2	1	C	2	1	1205	1	Ⴃ	cut_k_stereo_44KHz.wav
1	111	1	1	1	C	2	1	721	1	Ⴊ	cut_o_stereo_44KHz.wav
1	112	3	3	2	I	0	0	0	0	Ⴇ	cut_u_stereo_44KHz.wav
1	113	2	1	0	C	0	0	0	0	Ⴃ	cut_o_stereo_44KHz.wav
1	114	4	3	2	I	1	0	1277	1	Ⴂ	cut_u_stereo_44KHz.wav
1	115	3	4	2	I	1	0	1050	1	Ⴇ	cut_a_stereo_44KHz.wav
1	116	1	2	0	C	1	1	1149	1	Ⴊ	cut_k_stereo_44KHz.wav
1	117	4	4	2	I	2	0	999	1	Ⴂ	cut_a_stereo_44KHz.wav
1	118	1	1	1	C	1	0	813	0	Ⴊ	cut_o_stereo_44KHz.wav
1	119	3	3	2	I	2	0	1292	0	Ⴇ	cut_u_stereo_44KHz.wav
1	120	2	2	1	C	2	1	1058	1	Ⴃ	cut_k_stereo_44KHz.wav
1	121	3	3	2	I	1	0	1320	1	Ⴇ	cut_u_stereo_44KHz.wav
1	122	4	4	2	I	2	0	1106	1	Ⴂ	cut_a_stereo_44KHz.wav
1	123	1	1	1	C	2	1	1142	1	Ⴊ	cut_o_stereo_44KHz.wav
1	124	2	1	0	C	1	1	1277	1	Ⴃ	cut_o_stereo_44KHz.wav
1	125	4	3	2	I	1	0	1703	1	Ⴂ	cut_u_stereo_44KHz.wav
1	126	3	4	2	I	2	0	1750	1	Ⴇ	cut_a_stereo_44KHz.wav
1	127	1	2	0	C	1	1	1257	1	Ⴊ	cut_k_stereo_44KHz.wav
1	128	2	2	1	C	2	1	1345	1	Ⴃ	cut_k_stereo_44KHz.wav
1	129	3	4	2	I	2	0	1299	1	Ⴇ	cut_a_stereo_44KHz.wav
1	130	4	3	2	I	1	0	1636	1	Ⴂ	cut_u_stereo_44KHz.wav
1	131	1	1	1	C	2	1	1514	1	Ⴊ	cut_o_stereo_44KHz.wav
1	132	2	1	0	C	0	0	0	0	Ⴃ	cut_o_stereo_44KHz.wav
1	133	3	3	2	I	1	0	1628	1	Ⴇ	cut_u_stereo_44KHz.wav
1	134	1	2	0	C	2	0	1325	0	Ⴊ	cut_k_stereo_44KHz.wav
1	135	4	4	2	I	0	0	0	0	Ⴂ	cut_a_stereo_44KHz.wav
1	136	2	2	1	C	2	1	960	1	Ⴃ	cut_k_stereo_44KHz.wav
1	137	3	3	2	I	1	0	1558	1	Ⴇ	cut_u_stereo_44KHz.wav
1	138	1	1	1	C	2	1	1020	1	Ⴊ	cut_o_stereo_44KHz.wav
1	139	2	1	0	C	1	1	1348	1	Ⴃ	cut_o_stereo_44KHz.wav
1	140	4	4	2	I	2	0	736	0	Ⴂ	cut_a_stereo_44KHz.wav
1	141	2	2	1	C	2	1	1474	1	Ⴃ	cut_k_stereo_44KHz.wav
1	142	4	3	2	I	1	0	625	1	Ⴂ	cut_u_stereo_44KHz.wav
1	143	3	4	2	I	1	0	1343	0	Ⴇ	cut_a_stereo_44KHz.wav
1	144	1	2	0	C	2	0	844	0	Ⴊ	cut_k_stereo_44KHz.wav
1	145	3	3	2	I	1	0	1400	1	Ⴇ	cut_u_stereo_44KHz.wav
1	146	2	1	0	C	1	1	1468	1	Ⴃ	cut_o_stereo_44KHz.wav
1	147	1	2	0	C	0	0	0	0	Ⴊ	cut_k_stereo_44KHz.wav
1	148	4	3	2	I	1	0	1026	1	Ⴂ	cut_u_stereo_44KHz.wav
1	149	3	4	2	I	1	0	1281	1	Ⴇ	cut_a_stereo_44KHz.wav
1	150	4	4	2	I	1	0	1048	0	Ⴂ	cut_a_stereo_44KHz.wav
1	151	1	1	1	C	0	0	0	0	Ⴊ	cut_o_stereo_44KHz.wav
1	152	2	2	1	C	2	1	1748	1	Ⴃ	cut_k_stereo_44KHz.wav
1	153	1	2	0	C	2	0	1232	0	Ⴊ	cut_k_stereo_44KHz.wav
1	154	2	1	0	C	0	0	0	0	Ⴃ	cut_o_stereo_44KHz.wav
1	155	4	4	2	I	2	0	766	1	Ⴂ	cut_a_stereo_44KHz.wav
1	156	3	3	2	I	2	0	1320	1	Ⴇ	cut_u_stereo_44KHz.wav
1	157	1	1	1	C	2	1	1005	1	Ⴊ	cut_o_stereo_44KHz.wav
1	158	2	2	1	C	2	1	915	1	Ⴃ	cut_k_stereo_44KHz.wav
1	159	3	4	2	I	2	0	1091	1	Ⴇ	cut_a_stereo_44KHz.wav
1	160	4	3	2	I	0	0	0	0	Ⴂ	cut_u_stereo_44KHz.wav
1	161	1	1	1	C	2	1	872	1	Ⴊ	cut_o_stereo_44KHz.wav
1	162	2	2	1	C	2	1	1009	1	Ⴃ	cut_k_stereo_44KHz.wav
1	163	4	4	2	I	2	0	729	1	Ⴂ	cut_a_stereo_44KHz.wav
1	164	3	4	2	I	1	0	1095	1	Ⴇ	cut_a_stereo_44KHz.wav
1	165	2	1	0	C	2	0	1375	0	Ⴃ	cut_o_stereo_44KHz.wav
1	166	4	3	2	I	2	0	1216	1	Ⴂ	cut_u_stereo_44KHz.wav
1	167	1	2	0	C	2	0	1348	0	Ⴊ	cut_k_stereo_44KHz.wav
1	168	3	3	2	I	0	0	0	0	Ⴇ	cut_u_stereo_44KHz.wav
1	169	1	1	1	C	2	1	745	1	Ⴊ	cut_o_stereo_44KHz.wav
1	170	3	4	2	I	0	0	0	0	Ⴇ	cut_a_stereo_44KHz.wav
1	171	2	2	1	C	0	0	0	0	Ⴃ	cut_k_stereo_44KHz.wav
1	172	4	3	2	I	2	0	554	1	Ⴂ	cut_u_stereo_44KHz.wav
1	173	1	2	0	C	0	0	0	0	Ⴊ	cut_k_stereo_44KHz.wav
1	174	2	1	0	C	2	0	1029	0	Ⴃ	cut_o_stereo_44KHz.wav
1	175	3	3	2	I	1	0	1123	1	Ⴇ	cut_u_stereo_44KHz.wav
1	176	4	4	2	I	2	0	1153	1	Ⴂ	cut_a_stereo_44KHz.wav
1	177	1	1	1	C	1	0	1018	0	Ⴊ	cut_o_stereo_44KHz.wav
1	178	3	3	2	I	1	0	1339	1	Ⴇ	cut_u_stereo_44KHz.wav
1	179	2	1	0	C	2	0	538	0	Ⴃ	cut_o_stereo_44KHz.wav
1	180	4	3	2	I	2	0	1478	0	Ⴂ	cut_u_stereo_44KHz.wav
1	181	3	4	2	I	2	0	1578	0	Ⴇ	cut_a_stereo_44KHz.wav
1	182	2	2	1	C	1	0	990	0	Ⴃ	cut_k_stereo_44KHz.wav
1	183	1	2	0	C	1	1	1113	1	Ⴊ	cut_k_stereo_44KHz.wav
1	184	4	4	2	I	2	0	1340	1	Ⴂ	cut_a_stereo_44KHz.wav
1	185	1	2	0	C	2	0	1127	0	Ⴊ	cut_k_stereo_44KHz.wav
1	186	4	4	2	I	2	0	801	1	Ⴂ	cut_a_stereo_44KHz.wav
1	187	2	2	1	C	2	1	1632	1	Ⴃ	cut_k_stereo_44KHz.wav
1	188	3	3	2	I	2	0	1198	0	Ⴇ	cut_u_stereo_44KHz.wav
1	189	1	1	1	C	2	1	925	1	Ⴊ	cut_o_stereo_44KHz.wav
1	190	2	1	0	C	2	0	881	0	Ⴃ	cut_o_stereo_44KHz.wav
1	191	3	4	2	I	2	0	1925	1	Ⴇ	cut_a_stereo_44KHz.wav
1	192	4	3	2	I	1	0	1029	1	Ⴂ	cut_u_stereo_44KHz.wav
1	193	2	2	1	C	2	1	908	1	Ⴃ	cut_k_stereo_44KHz.wav
1	194	1	1	1	C	2	1	1032	1	Ⴊ	cut_o_stereo_44KHz.wav
1	195	4	4	2	I	2	0	881	1	Ⴂ	cut_a_stereo_44KHz.wav
1	196	3	4	2	I	2	0	1044	1	Ⴇ	cut_a_stereo_44KHz.wav
1	197	4	3	2	I	1	0	1834	1	Ⴂ	cut_u_stereo_44KHz.wav
1	198	2	1	0	C	2	0	1576	0	Ⴃ	cut_o_stereo_44KHz.wav
1	199	3	3	2	I	2	0	1146	1	Ⴇ	cut_u_stereo_44KHz.wav
1	200	1	2	0	C	2	0	1020	0	Ⴊ	cut_k_stereo_44KHz.wav
2	1	2	2	1	C	2	1	1285	1	Ⴌ	cut_w_stereo_44KHz.wav
2	2	3	3	2	I	1	0	729	1	Ⴒ	cut_g_stereo_44KHz.wav
2	3	4	3	2	I	2	0	1124	1	Ⴏ	cut_g_stereo_44KHz.wav
2	4	1	1	1	C	1	0	1193	0	Ⴖ	cut_l_stereo_44KHz.wav
2	5	3	4	2	I	2	0	1146	1	Ⴒ	cut_h_stereo_44KHz.wav
2	6	4	4	2	I	1	0	1040	0	Ⴏ	cut_h_stereo_44KHz.wav
2	7	1	2	0	C	2	0	1138	0	Ⴖ	cut_w_stereo_44KHz.wav
2	8	2	1	0	C	2	0	1270	0	Ⴌ	cut_l_stereo_44KHz.wav
2	9	1	1	1	C	1	0	1565	0	Ⴖ	cut_l_stereo_44KHz.wav
2	10	4	3	2	I	2	0	1808	1	Ⴏ	cut_g_stereo_44KHz.wav
2	11	2	2	1	C	1	0	798	0	Ⴌ	cut_w_stereo_44KHz.wav
2	12	3	4	2	I	2	0	1040	1	Ⴒ	cut_h_stereo_44KHz.wav
2	13	4	4	2	I	2	0	1160	0	Ⴏ	cut_h_stereo_44KHz.wav
2	14	1	2	0	C	2	0	1038	0	Ⴖ	cut_w_stereo_44KHz.wav
2	15	2	1	0	C	2	0	594	0	Ⴌ	cut_l_stereo_44KHz.wav
2	16	3	3	2	I	1	0	658	1	Ⴒ	cut_g_stereo_44KHz.wav
2	17	2	1	0	C	2	0	1000	0	Ⴌ	cut_l_stereo_44KHz.wav
2	18	4	4	2	I	1	0	849	1	Ⴏ	cut_h_stereo_44KHz.wav
2	19	3	3	2	I	1	0	921	1	Ⴒ	cut_g_stereo_44KHz.wav
2	20	1	1	1	C	2	1	1290	1	Ⴖ	cut_l_stereo_44KHz.wav
2	21	4	3	2	I	1	0	1211	1	Ⴏ	cut_g_stereo_44KHz.wav
2	22	1	2	0	C	2	0	1899	0	Ⴖ	cut_w_stereo_44KHz.wav
2	23	3	4	2	I	2	0	946	0	Ⴒ	cut_h_stereo_44KHz.wav
2	24	2	2	1	C	1	0	800	0	Ⴌ	cut_w_stereo_44KHz.wav
2	25	4	3	2	I	2	0	488	1	Ⴏ	cut_g_stereo_44KHz.wav
2	26	3	3	2	I	2	0	1070	1	Ⴒ	cut_g_stereo_44KHz.wav
2	27	2	1	0	C	2	0	222	0	Ⴌ	cut_l_stereo_44KHz.wav
2	28	1	2	0	C	2	0	1435	0	Ⴖ	cut_w_stereo_44KHz.wav
2	29	2	2	1	C	0	0	0	0	Ⴌ	cut_w_stereo_44KHz.wav
2	30	1	1	1	C	2	1	783	1	Ⴖ	cut_l_stereo_44KHz.wav
2	31	4	4	2	I	1	0	686	0	Ⴏ	cut_h_stereo_44KHz.wav
2	32	3	4	2	I	2	0	1086	1	Ⴒ	cut_h_stereo_44KHz.wav
2	33	1	1	1	C	2	1	682	1	Ⴖ	cut_l_stereo_44KHz.wav
2	34	2	2	1	C	1	0	988	0	Ⴌ	cut_w_stereo_44KHz.wav
2	35	4	3	2	I	2	0	755	1	Ⴏ	cut_g_stereo_44KHz.wav
2	36	3	3	2	I	1	0	498	1	Ⴒ	cut_g_stereo_44KHz.wav
2	37	1	2	0	C	2	0	969	0	Ⴖ	cut_w_stereo_44KHz.wav
2	38	2	1	0	C	1	1	466	1	Ⴌ	cut_l_stereo_44KHz.wav
2	39	3	4	2	I	2	0	731	1	Ⴒ	cut_h_stereo_44KHz.wav
2	40	4	4	2	I	2	0	1178	0	Ⴏ	cut_h_stereo_44KHz.wav
2	41	2	1	0	C	2	0	773	0	Ⴌ	cut_l_stereo_44KHz.wav
2	42	3	3	2	I	2	0	1255	1	Ⴒ	cut_g_stereo_44KHz.wav
2	43	4	4	2	I	2	0	884	1	Ⴏ	cut_h_stereo_44KHz.wav
2	44	1	1	1	C	0	0	0	0	Ⴖ	cut_l_stereo_44KHz.wav
2	45	4	3	2	I	1	0	707	1	Ⴏ	cut_g_stereo_44KHz.wav
2	46	3	4	2	I	2	0	906	1	Ⴒ	cut_h_stereo_44KHz.wav
2	47	1	2	0	C	2	0	697	0	Ⴖ	cut_w_stereo_44KHz.wav
2	48	2	2	1	C	1	0	805	0	Ⴌ	cut_w_stereo_44KHz.wav
2	49	1	1	1	C	1	0	900	0	Ⴖ	cut_l_stereo_44KHz.wav
2	50	3	4	2	I	2	0	863	1	Ⴒ	cut_h_stereo_44KHz.wav
2	51	2	1	0	C	2	0	978	0	Ⴌ	cut_l_stereo_44KHz.wav
2	52	4	3	2	I	1	0	1122	1	Ⴏ	cut_g_stereo_44KHz.wav
2	53	3	3	2	I	2	0	878	1	Ⴒ	cut_g_stereo_44KHz.wav
2	54	4	4	2	I	2	0	1004	1	Ⴏ	cut_h_stereo_44KHz.wav
2	55	2	2	1	C	1	0	652	0	Ⴌ	cut_w_stereo_44KHz.wav
2	56	1	2	0	C	1	1	1124	1	Ⴖ	cut_w_stereo_44KHz.wav
2	57	4	3	2	I	2	0	1866	1	Ⴏ	cut_g_stereo_44KHz.wav
2	58	3	4	2	I	2	0	1169	1	Ⴒ	cut_h_stereo_44KHz.wav
2	59	1	1	1	C	2	1	1136	1	Ⴖ	cut_l_stereo_44KHz.wav
2	60	2	2	1	C	2	1	683	1	Ⴌ	cut_w_stereo_44KHz.wav
2	61	1	2	0	C	2	0	620	0	Ⴖ	cut_w_stereo_44KHz.wav
2	62	2	1	0	C	2	0	631	0	Ⴌ	cut_l_stereo_44KHz.wav
2	63	4	4	2	I	0	0	0	0	Ⴏ	cut_h_stereo_44KHz.wav
2	64	3	3	2	I	2	0	751	1	Ⴒ	cut_g_stereo_44KHz.wav
2	65	4	4	2	I	2	0	593	1	Ⴏ	cut_h_stereo_44KHz.wav
2	66	2	2	1	C	1	0	1037	0	Ⴌ	cut_w_stereo_44KHz.wav
2	67	3	3	2	I	2	0	665	1	Ⴒ	cut_g_stereo_44KHz.wav
2	68	1	1	1	C	1	0	981	0	Ⴖ	cut_l_stereo_44KHz.wav
2	69	4	3	2	I	2	0	1120	0	Ⴏ	cut_g_stereo_44KHz.wav
2	70	1	2	0	C	1	1	781	1	Ⴖ	cut_w_stereo_44KHz.wav
2	71	3	4	2	I	2	0	943	1	Ⴒ	cut_h_stereo_44KHz.wav
2	72	2	1	0	C	1	1	240	1	Ⴌ	cut_l_stereo_44KHz.wav
2	73	1	2	0	C	2	0	1595	0	Ⴖ	cut_w_stereo_44KHz.wav
2	74	4	4	2	I	1	0	1159	0	Ⴏ	cut_h_stereo_44KHz.wav
2	75	3	3	2	I	2	0	975	1	Ⴒ	cut_g_stereo_44KHz.wav
2	76	2	1	0	C	2	0	1302	0	Ⴌ	cut_l_stereo_44KHz.wav
2	77	1	1	1	C	1	0	582	0	Ⴖ	cut_l_stereo_44KHz.wav
2	78	2	2	1	C	2	1	1140	1	Ⴌ	cut_w_stereo_44KHz.wav
2	79	3	4	2	I	2	0	914	1	Ⴒ	cut_h_stereo_44KHz.wav
2	80	4	3	2	I	2	0	565	1	Ⴏ	cut_g_stereo_44KHz.wav
2	81	1	1	1	C	2	1	673	1	Ⴖ	cut_l_stereo_44KHz.wav
2	82	3	4	2	I	2	0	982	1	Ⴒ	cut_h_stereo_44KHz.wav
2	83	2	1	0	C	1	1	856	1	Ⴌ	cut_l_stereo_44KHz.wav
2	84	4	4	2	I	2	0	1214	1	Ⴏ	cut_h_stereo_44KHz.wav
2	85	3	3	2	I	1	0	1409	0	Ⴒ	cut_g_stereo_44KHz.wav
2	86	2	2	1	C	2	1	989	1	Ⴌ	cut_w_stereo_44KHz.wav
2	87	4	3	2	I	1	0	774	1	Ⴏ	cut_g_stereo_44KHz.wav
2	88	1	2	0	C	2	0	1014	0	Ⴖ	cut_w_stereo_44KHz.wav
2	89	4	3	2	I	1	0	1020	1	Ⴏ	cut_g_stereo_44KHz.wav
2	90	2	2	1	C	1	0	875	0	Ⴌ	cut_w_stereo_44KHz.wav
2	91	3	4	2	I	2	0	917	1	Ⴒ	cut_h_stereo_44KHz.wav
2	92	1	1	1	C	1	0	540	0	Ⴖ	cut_l_stereo_44KHz.wav
2	93	3	3	2	I	2	0	1043	0	Ⴒ	cut_g_stereo_44KHz.wav
2	94	4	4	2	I	2	0	1163	1	Ⴏ	cut_h_stereo_44KHz.wav
2	95	1	2	0	C	1	1	839	1	Ⴖ	cut_w_stereo_44KHz.wav
2	96	2	1	0	C	2	0	447	0	Ⴌ	cut_l_stereo_44KHz.wav
2	97	1	2	0	C	2	0	1048	0	Ⴖ	cut_w_stereo_44KHz.wav
2	98	3	4	2	I	1	0	1219	1	Ⴒ	cut_h_stereo_44KHz.wav
2	99	4	3	2	I	2	0	990	1	Ⴏ	cut_g_stereo_44KHz.wav
2	100	2	1	0	C	1	1	1072	1	Ⴌ	cut_l_stereo_44KHz.wav
2	101	1	1	1	C	2	1	638	1	Ⴖ	cut_l_stereo_44KHz.wav
2	102	2	2	1	C	2	1	455	1	Ⴌ	cut_w_stereo_44KHz.wav
2	103	4	4	2	I	0	0	0	0	Ⴏ	cut_h_stereo_44KHz.wav
2	104	3	3	2	I	1	0	968	1	Ⴒ	cut_g_stereo_44KHz.wav
2	105	2	1	0	C	1	1	1633	1	Ⴌ	cut_l_stereo_44KHz.wav
2	106	1	2	0	C	2	0	956	0	Ⴖ	cut_w_stereo_44KHz.wav
2	107	4	3	2	I	2	0	652	1	Ⴏ	cut_g_stereo_44KHz.wav
2	108	3	4	2	I	2	0	956	1	Ⴒ	cut_h_stereo_44KHz.wav
2	109	1	1	1	C	1	0	876	0	Ⴖ	cut_l_stereo_44KHz.wav
2	110	4	4	2	I	2	0	1155	1	Ⴏ	cut_h_stereo_44KHz.wav
2	111	3	3	2	I	2	0	867	1	Ⴒ	cut_g_stereo_44KHz.wav
2	112	2	2	1	C	2	1	1250	1	Ⴌ	cut_w_stereo_44KHz.wav
2	113	4	4	2	I	1	0	1684	1	Ⴏ	cut_h_stereo_44KHz.wav
2	114	1	2	0	C	1	1	1333	1	Ⴖ	cut_w_stereo_44KHz.wav
2	115	3	3	2	I	2	0	1759	1	Ⴒ	cut_g_stereo_44KHz.wav
2	116	2	1	0	C	1	1	606	1	Ⴌ	cut_l_stereo_44KHz.wav
2	117	1	1	1	C	2	1	531	1	Ⴖ	cut_l_stereo_44KHz.wav
2	118	3	4	2	I	1	0	616	1	Ⴒ	cut_h_stereo_44KHz.wav
2	119	4	3	2	I	2	0	600	0	Ⴏ	cut_g_stereo_44KHz.wav
2	120	2	2	1	C	1	0	537	0	Ⴌ	cut_w_stereo_44KHz.wav
2	121	3	3	2	I	2	0	621	1	Ⴒ	cut_g_stereo_44KHz.wav
2	122	4	4	2	I	0	0	0	0	Ⴏ	cut_h_stereo_44KHz.wav
2	123	2	2	1	C	1	0	602	0	Ⴌ	cut_w_stereo_44KHz.wav
2	124	1	1	1	C	2	1	479	1	Ⴖ	cut_l_stereo_44KHz.wav
2	125	2	1	0	C	2	0	489	0	Ⴌ	cut_l_stereo_44KHz.wav
2	126	3	4	2	I	1	0	1010	1	Ⴒ	cut_h_stereo_44KHz.wav
2	127	1	2	0	C	2	0	628	0	Ⴖ	cut_w_stereo_44KHz.wav
2	128	4	3	2	I	1	0	480	1	Ⴏ	cut_g_stereo_44KHz.wav
2	129	1	2	0	C	1	1	780	1	Ⴖ	cut_w_stereo_44KHz.wav
2	130	3	4	2	I	2	0	992	1	Ⴒ	cut_h_stereo_44KHz.wav
2	131	4	4	2	I	2	0	981	1	Ⴏ	cut_h_stereo_44KHz.wav
2	132	2	2	1	C	1	0	1138	0	Ⴌ	cut_w_stereo_44KHz.wav
2	133	3	3	2	I	2	0	792	0	Ⴒ	cut_g_stereo_44KHz.wav
2	134	4	3	2	I	2	0	829	1	Ⴏ	cut_g_stereo_44KHz.wav
2	135	2	1	0	C	2	0	827	0	Ⴌ	cut_l_stereo_44KHz.wav
2	136	1	1	1	C	2	1	1846	1	Ⴖ	cut_l_stereo_44KHz.wav
2	137	2	1	0	C	1	1	1354	1	Ⴌ	cut_l_stereo_44KHz.wav
2	138	4	3	2	I	1	0	849	1	Ⴏ	cut_g_stereo_44KHz.wav
2	139	3	4	2	I	2	0	591	1	Ⴒ	cut_h_stereo_44KHz.wav
2	140	1	2	0	C	2	0	770	0	Ⴖ	cut_w_stereo_44KHz.wav
2	141	3	3	2	I	1	0	639	1	Ⴒ	cut_g_stereo_44KHz.wav
2	142	4	4	2	I	1	0	989	0	Ⴏ	cut_h_stereo_44KHz.wav
2	143	2	2	1	C	2	1	737	1	Ⴌ	cut_w_stereo_44KHz.wav
2	144	1	1	1	C	1	0	337	0	Ⴖ	cut_l_stereo_44KHz.wav
2	145	2	2	1	C	2	1	789	1	Ⴌ	cut_w_stereo_44KHz.wav
2	146	4	3	2	I	2	0	807	1	Ⴏ	cut_g_stereo_44KHz.wav
2	147	1	1	1	C	1	0	854	0	Ⴖ	cut_l_stereo_44KHz.wav
2	148	3	3	2	I	2	0	410	0	Ⴒ	cut_g_stereo_44KHz.wav
2	149	1	2	0	C	2	0	1097	0	Ⴖ	cut_w_stereo_44KHz.wav
2	150	3	4	2	I	1	0	901	1	Ⴒ	cut_h_stereo_44KHz.wav
2	151	2	1	0	C	1	1	1095	1	Ⴌ	cut_l_stereo_44KHz.wav
2	152	4	4	2	I	1	0	1012	1	Ⴏ	cut_h_stereo_44KHz.wav
2	153	3	3	2	I	1	0	1567	1	Ⴒ	cut_g_stereo_44KHz.wav
2	154	2	1	0	C	1	1	775	1	Ⴌ	cut_l_stereo_44KHz.wav
2	155	1	1	1	C	2	1	1671	1	Ⴖ	cut_l_stereo_44KHz.wav
2	156	4	3	2	I	2	0	1099	1	Ⴏ	cut_g_stereo_44KHz.wav
2	157	2	2	1	C	2	1	904	1	Ⴌ	cut_w_stereo_44KHz.wav
2	158	3	4	2	I	1	0	910	1	Ⴒ	cut_h_stereo_44KHz.wav
2	159	1	2	0	C	2	0	1036	0	Ⴖ	cut_w_stereo_44KHz.wav
2	160	4	4	2	I	1	0	648	1	Ⴏ	cut_h_stereo_44KHz.wav
2	161	2	2	1	C	0	0	0	0	Ⴌ	cut_w_stereo_44KHz.wav
2	162	4	4	2	I	2	0	873	1	Ⴏ	cut_h_stereo_44KHz.wav
2	163	1	2	0	C	1	1	810	1	Ⴖ	cut_w_stereo_44KHz.wav
2	164	3	4	2	I	2	0	874	0	Ⴒ	cut_h_stereo_44KHz.wav
2	165	4	3	2	I	2	0	417	1	Ⴏ	cut_g_stereo_44KHz.wav
2	166	2	1	0	C	2	0	897	0	Ⴌ	cut_l_stereo_44KHz.wav
2	167	1	1	1	C	1	0	1023	0	Ⴖ	cut_l_stereo_44KHz.wav
2	168	3	3	2	I	1	0	690	0	Ⴒ	cut_g_stereo_44KHz.wav
2	169	2	1	0	C	2	0	845	0	Ⴌ	cut_l_stereo_44KHz.wav
2	170	4	4	2	I	2	0	915	1	Ⴏ	cut_h_stereo_44KHz.wav
2	171	3	4	2	I	2	0	762	0	Ⴒ	cut_h_stereo_44KHz.wav
2	172	1	1	1	C	1	0	1098	0	Ⴖ	cut_l_stereo_44KHz.wav
2	173	3	3	2	I	1	0	1185	1	Ⴒ	cut_g_stereo_44KHz.wav
2	174	1	2	0	C	2	0	1301	0	Ⴖ	cut_w_stereo_44KHz.wav
2	175	2	2	1	C	1	0	1088	0	Ⴌ	cut_w_stereo_44KHz.wav
2	176	4	3	2	I	2	0	1021	1	Ⴏ	cut_g_stereo_44KHz.wav
2	177	1	1	1	C	1	0	1462	0	Ⴖ	cut_l_stereo_44KHz.wav
2	178	2	1	0	C	1	1	845	1	Ⴌ	cut_l_stereo_44KHz.wav
2	179	3	4	2	I	2	0	949	1	Ⴒ	cut_h_stereo_44KHz.wav
2	180	4	3	2	I	2	0	702	1	Ⴏ	cut_g_stereo_44KHz.wav
2	181	2	2	1	C	2	1	621	1	Ⴌ	cut_w_stereo_44KHz.wav
2	182	3	3	2	I	2	0	874	1	Ⴒ	cut_g_stereo_44KHz.wav
2	183	4	4	2	I	2	0	601	0	Ⴏ	cut_h_stereo_44KHz.wav
2	184	1	2	0	C	1	1	786	1	Ⴖ	cut_w_stereo_44KHz.wav
2	185	2	1	0	C	1	1	1425	1	Ⴌ	cut_l_stereo_44KHz.wav
2	186	1	1	1	C	1	0	798	0	Ⴖ	cut_l_stereo_44KHz.wav
2	187	4	4	2	I	0	0	0	0	Ⴏ	cut_h_stereo_44KHz.wav
2	188	3	4	2	I	2	0	1099	1	Ⴒ	cut_h_stereo_44KHz.wav
2	189	4	3	2	I	0	0	0	0	Ⴏ	cut_g_stereo_44KHz.wav
2	190	3	3	2	I	1	0	490	0	Ⴒ	cut_g_stereo_44KHz.wav
2	191	1	2	0	C	2	0	1262	0	Ⴖ	cut_w_stereo_44KHz.wav
2	192	2	2	1	C	2	1	869	1	Ⴌ	cut_w_stereo_44KHz.wav
2	193	3	4	2	I	1	0	745	1	Ⴒ	cut_h_stereo_44KHz.wav
2	194	2	1	0	C	2	0	818	0	Ⴌ	cut_l_stereo_44KHz.wav
2	195	4	3	2	I	2	0	923	1	Ⴏ	cut_g_stereo_44KHz.wav
2	196	1	1	1	C	1	0	1153	0	Ⴖ	cut_l_stereo_44KHz.wav
2	197	3	3	2	I	2	0	443	0	Ⴒ	cut_g_stereo_44KHz.wav
2	198	2	2	1	C	1	0	828	0	Ⴌ	cut_w_stereo_44KHz.wav
2	199	4	4	2	I	2	0	848	0	Ⴏ	cut_h_stereo_44KHz.wav
2	200	1	2	0	C	2	0	916	0	Ⴖ	cut_w_stereo_44KHz.wav
3	1	4	4	2	I	2	0	753	1	Ⴉ	cut_oei_stereo_44KHz.wav
3	2	2	1	0	C	2	0	874	0	Ⴔ	cut_r_stereo_44KHz.wav
3	3	1	2	0	C	2	0	958	0	Ⴕ	cut_n_stereo_44KHz.wav
3	4	3	4	2	I	1	0	366	1	Ⴐ	cut_oei_stereo_44KHz.wav
3	5	2	2	1	C	2	1	935	1	Ⴔ	cut_n_stereo_44KHz.wav
3	6	4	3	2	I	2	0	1432	1	Ⴉ	cut_ui_stereo_44KHz.wav
3	7	1	1	1	C	1	0	953	0	Ⴕ	cut_r_stereo_44KHz.wav
3	8	3	3	2	I	2	0	1334	1	Ⴐ	cut_ui_stereo_44KHz.wav
3	9	4	4	2	I	1	0	1338	1	Ⴉ	cut_oei_stereo_44KHz.wav
3	10	2	2	1	C	2	1	1096	1	Ⴔ	cut_n_stereo_44KHz.wav
3	11	1	1	1	C	2	1	1019	1	Ⴕ	cut_r_stereo_44KHz.wav
3	12	3	3	2	I	2	0	868	1	Ⴐ	cut_ui_stereo_44KHz.wav
3	13	2	1	0	C	1	1	1126	1	Ⴔ	cut_r_stereo_44KHz.wav
3	14	3	4	2	I	2	0	1155	0	Ⴐ	cut_oei_stereo_44KHz.wav
3	15	4	3	2	I	0	0	0	0	Ⴉ	cut_ui_stereo_44KHz.wav
3	16	1	2	0	C	2	0	959	0	Ⴕ	cut_n_stereo_44KHz.wav
3	17	4	4	2	I	2	0	861	1	Ⴉ	cut_oei_stereo_44KHz.wav
3	18	1	1	1	C	1	0	952	0	Ⴕ	cut_r_stereo_44KHz.wav
3	19	2	2	1	C	2	1	919	1	Ⴔ	cut_n_stereo_44KHz.wav
3	20	3	3	2	I	1	0	857	1	Ⴐ	cut_ui_stereo_44KHz.wav
3	21	2	1	0	C	2	0	1056	0	Ⴔ	cut_r_stereo_44KHz.wav
3	22	3	4	2	I	1	0	1026	1	Ⴐ	cut_oei_stereo_44KHz.wav
3	23	4	3	2	I	1	0	939	1	Ⴉ	cut_ui_stereo_44KHz.wav
3	24	1	2	0	C	2	0	1185	0	Ⴕ	cut_n_stereo_44KHz.wav
3	25	4	4	2	I	1	0	720	1	Ⴉ	cut_oei_stereo_44KHz.wav
3	26	1	1	1	C	1	0	900	0	Ⴕ	cut_r_stereo_44KHz.wav
3	27	3	3	2	I	2	0	596	1	Ⴐ	cut_ui_stereo_44KHz.wav
3	28	2	2	1	C	2	1	1064	1	Ⴔ	cut_n_stereo_44KHz.wav
3	29	4	3	2	I	2	0	1155	1	Ⴉ	cut_ui_stereo_44KHz.wav
3	30	3	4	2	I	2	0	1086	1	Ⴐ	cut_oei_stereo_44KHz.wav
3	31	2	1	0	C	1	1	987	1	Ⴔ	cut_r_stereo_44KHz.wav
3	32	1	2	0	C	2	0	1206	0	Ⴕ	cut_n_stereo_44KHz.wav
3	33	4	4	2	I	0	0	0	0	Ⴉ	cut_oei_stereo_44KHz.wav
3	34	2	2	1	C	2	1	915	1	Ⴔ	cut_n_stereo_44KHz.wav
3	35	3	3	2	I	2	0	1362	1	Ⴐ	cut_ui_stereo_44KHz.wav
3	36	1	2	0	C	2	0	1321	0	Ⴕ	cut_n_stereo_44KHz.wav
3	37	4	3	2	I	2	0	876	1	Ⴉ	cut_ui_stereo_44KHz.wav
3	38	2	1	0	C	2	0	1381	0	Ⴔ	cut_r_stereo_44KHz.wav
3	39	3	4	2	I	1	0	638	1	Ⴐ	cut_oei_stereo_44KHz.wav
3	40	1	1	1	C	1	0	905	0	Ⴕ	cut_r_stereo_44KHz.wav
3	41	3	4	2	I	1	0	658	1	Ⴐ	cut_oei_stereo_44KHz.wav
3	42	4	4	2	I	2	0	1311	0	Ⴉ	cut_oei_stereo_44KHz.wav
3	43	1	2	0	C	2	0	805	0	Ⴕ	cut_n_stereo_44KHz.wav
3	44	2	2	1	C	1	0	909	0	Ⴔ	cut_n_stereo_44KHz.wav
3	45	3	3	2	I	2	0	987	1	Ⴐ	cut_ui_stereo_44KHz.wav
3	46	4	3	2	I	2	0	747	1	Ⴉ	cut_ui_stereo_44KHz.wav
3	47	2	1	0	C	1	1	1135	1	Ⴔ	cut_r_stereo_44KHz.wav
3	48	1	1	1	C	2	1	741	1	Ⴕ	cut_r_stereo_44KHz.wav
3	49	3	4	2	I	1	0	758	1	Ⴐ	cut_oei_stereo_44KHz.wav
3	50	2	2	1	C	2	1	971	1	Ⴔ	cut_n_stereo_44KHz.wav
3	51	4	3	2	I	2	0	751	1	Ⴉ	cut_ui_stereo_44KHz.wav
3	52	1	2	0	C	2	0	1227	0	Ⴕ	cut_n_stereo_44KHz.wav
3	53	4	4	2	I	1	0	707	1	Ⴉ	cut_oei_stereo_44KHz.wav
3	54	1	1	1	C	1	0	885	0	Ⴕ	cut_r_stereo_44KHz.wav
3	55	2	1	0	C	2	0	1282	0	Ⴔ	cut_r_stereo_44KHz.wav
3	56	3	3	2	I	1	0	1013	1	Ⴐ	cut_ui_stereo_44KHz.wav
3	57	4	3	2	I	2	0	1204	0	Ⴉ	cut_ui_stereo_44KHz.wav
3	58	1	2	0	C	0	0	0	0	Ⴕ	cut_n_stereo_44KHz.wav
3	59	2	2	1	C	1	0	832	0	Ⴔ	cut_n_stereo_44KHz.wav
3	60	3	3	2	I	1	0	723	1	Ⴐ	cut_ui_stereo_44KHz.wav
3	61	2	1	0	C	2	0	579	0	Ⴔ	cut_r_stereo_44KHz.wav
3	62	1	1	1	C	1	0	806	0	Ⴕ	cut_r_stereo_44KHz.wav
3	63	3	4	2	I	2	0	719	0	Ⴐ	cut_oei_stereo_44KHz.wav
3	64	4	4	2	I	2	0	748	0	Ⴉ	cut_oei_stereo_44KHz.wav
3	65	3	3	2	I	2	0	1109	1	Ⴐ	cut_ui_stereo_44KHz.wav
3	66	1	1	1	C	0	0	0	0	Ⴕ	cut_r_stereo_44KHz.wav
3	67	4	3	2	I	2	0	1804	1	Ⴉ	cut_ui_stereo_44KHz.wav
3	68	2	1	0	C	1	1	874	1	Ⴔ	cut_r_stereo_44KHz.wav
3	69	1	2	0	C	2	0	951	0	Ⴕ	cut_n_stereo_44KHz.wav
3	70	3	4	2	I	2	0	953	1	Ⴐ	cut_oei_stereo_44KHz.wav
3	71	2	2	1	C	1	0	875	0	Ⴔ	cut_n_stereo_44KHz.wav
3	72	4	4	2	I	2	0	954	0	Ⴉ	cut_oei_stereo_44KHz.wav
3	73	2	2	1	C	1	0	1064	0	Ⴔ	cut_n_stereo_44KHz.wav
3	74	3	3	2	I	2	0	848	1	Ⴐ	cut_ui_stereo_44KHz.wav
3	75	1	2	0	C	2	0	887	0	Ⴕ	cut_n_stereo_44KHz.wav
3	76	4	4	2	I	2	0	986	1	Ⴉ	cut_oei_stereo_44KHz.wav
3	77	3	4	2	I	2	0	853	0	Ⴐ	cut_oei_stereo_44KHz.wav
3	78	2	1	0	C	2	0	1203	0	Ⴔ	cut_r_stereo_44KHz.wav
3	79	1	1	1	C	2	1	1753	1	Ⴕ	cut_r_stereo_44KHz.wav
3	80	4	3	2	I	2	0	932	1	Ⴉ	cut_ui_stereo_44KHz.wav
3	81	1	1	1	C	2	1	794	1	Ⴕ	cut_r_stereo_44KHz.wav
3	82	2	1	0	C	2	0	1911	0	Ⴔ	cut_r_stereo_44KHz.wav
3	83	3	4	2	I	2	0	1536	1	Ⴐ	cut_oei_stereo_44KHz.wav
3	84	4	3	2	I	2	0	168	1	Ⴉ	cut_ui_stereo_44KHz.wav
3	85	2	2	1	C	2	1	1069	1	Ⴔ	cut_n_stereo_44KHz.wav
3	86	1	2	0	C	2	0	758	0	Ⴕ	cut_n_stereo_44KHz.wav
3	87	3	3	2	I	0	0	0	0	Ⴐ	cut_ui_stereo_44KHz.wav
3	88	4	4	2	I	2	0	970	1	Ⴉ	cut_oei_stereo_44KHz.wav
3	89	3	4	2	I	2	0	1107	1	Ⴐ	cut_oei_stereo_44KHz.wav
3	90	4	4	2	I	2	0	736	1	Ⴉ	cut_oei_stereo_44KHz.wav
3	91	1	2	0	C	2	0	852	0	Ⴕ	cut_n_stereo_44KHz.wav
3	92	2	2	1	C	2	1	1078	1	Ⴔ	cut_n_stereo_44KHz.wav
3	93	4	3	2	I	2	0	880	1	Ⴉ	cut_ui_stereo_44KHz.wav
3	94	1	1	1	C	1	0	901	0	Ⴕ	cut_r_stereo_44KHz.wav
3	95	2	1	0	C	2	0	787	0	Ⴔ	cut_r_stereo_44KHz.wav
3	96	3	3	2	I	2	0	788	1	Ⴐ	cut_ui_stereo_44KHz.wav
3	97	1	1	1	C	1	0	1900	0	Ⴕ	cut_r_stereo_44KHz.wav
3	98	2	2	1	C	1	0	987	0	Ⴔ	cut_n_stereo_44KHz.wav
3	99	4	4	2	I	0	0	0	0	Ⴉ	cut_oei_stereo_44KHz.wav
3	100	3	3	2	I	2	0	507	1	Ⴐ	cut_ui_stereo_44KHz.wav
3	101	1	2	0	C	2	0	1141	0	Ⴕ	cut_n_stereo_44KHz.wav
3	102	2	1	0	C	1	1	1218	1	Ⴔ	cut_r_stereo_44KHz.wav
3	103	3	4	2	I	2	0	977	1	Ⴐ	cut_oei_stereo_44KHz.wav
3	104	4	3	2	I	2	0	870	1	Ⴉ	cut_ui_stereo_44KHz.wav
3	105	1	2	0	C	2	0	859	0	Ⴕ	cut_n_stereo_44KHz.wav
3	106	3	3	2	I	2	0	1078	1	Ⴐ	cut_ui_stereo_44KHz.wav
3	107	2	1	0	C	2	0	907	0	Ⴔ	cut_r_stereo_44KHz.wav
3	108	4	4	2	I	2	0	977	1	Ⴉ	cut_oei_stereo_44KHz.wav
3	109	2	2	1	C	2	1	937	1	Ⴔ	cut_n_stereo_44KHz.wav
3	110	4	3	2	I	1	0	919	0	Ⴉ	cut_ui_stereo_44KHz.wav
3	111	3	4	2	I	1	0	974	0	Ⴐ	cut_oei_stereo_44KHz.wav
3	112	1	1	1	C	2	1	978	1	Ⴕ	cut_r_stereo_44KHz.wav
3	113	2	1	0	C	2	0	965	0	Ⴔ	cut_r_stereo_44KHz.wav
3	114	4	3	2	I	1	0	1252	1	Ⴉ	cut_ui_stereo_44KHz.wav
3	115	3	4	2	I	2	0	1072	0	Ⴐ	cut_oei_stereo_44KHz.wav
3	116	1	1	1	C	2	1	901	1	Ⴕ	cut_r_stereo_44KHz.wav
3	117	3	3	2	I	2	0	873	1	Ⴐ	cut_ui_stereo_44KHz.wav
3	118	2	2	1	C	2	1	1016	1	Ⴔ	cut_n_stereo_44KHz.wav
3	119	4	4	2	I	2	0	769	1	Ⴉ	cut_oei_stereo_44KHz.wav
3	120	1	2	0	C	2	0	962	0	Ⴕ	cut_n_stereo_44KHz.wav
3	121	2	2	1	C	1	0	606	0	Ⴔ	cut_n_stereo_44KHz.wav
3	122	1	2	0	C	1	1	576	1	Ⴕ	cut_n_stereo_44KHz.wav
3	123	3	4	2	I	2	0	1521	1	Ⴐ	cut_oei_stereo_44KHz.wav
3	124	4	4	2	I	2	0	1243	0	Ⴉ	cut_oei_stereo_44KHz.wav
3	125	1	1	1	C	1	0	972	0	Ⴕ	cut_r_stereo_44KHz.wav
3	126	3	3	2	I	2	0	781	1	Ⴐ	cut_ui_stereo_44KHz.wav
3	127	2	1	0	C	2	0	1021	0	Ⴔ	cut_r_stereo_44KHz.wav
3	128	4	3	2	I	2	0	681	1	Ⴉ	cut_ui_stereo_44KHz.wav
3	129	3	3	2	I	1	0	884	0	Ⴐ	cut_ui_stereo_44KHz.wav
3	130	4	4	2	I	2	0	790	1	Ⴉ	cut_oei_stereo_44KHz.wav
3	131	1	1	1	C	2	1	1905	1	Ⴕ	cut_r_stereo_44KHz.wav
3	132	2	1	0	C	1	1	915	1	Ⴔ	cut_r_stereo_44KHz.wav
3	133	1	2	0	C	2	0	527	0	Ⴕ	cut_n_stereo_44KHz.wav
3	134	4	3	2	I	1	0	925	1	Ⴉ	cut_ui_stereo_44KHz.wav
3	135	3	4	2	I	2	0	806	1	Ⴐ	cut_oei_stereo_44KHz.wav
3	136	2	2	1	C	2	1	870	1	Ⴔ	cut_n_stereo_44KHz.wav
3	137	3	4	2	I	0	0	0	0	Ⴐ	cut_oei_stereo_44KHz.wav
3	138	2	2	1	C	2	1	1324	1	Ⴔ	cut_n_stereo_44KHz.wav
3	139	1	2	0	C	2	0	915	0	Ⴕ	cut_n_stereo_44KHz.wav
3	140	4	3	2	I	0	0	0	0	Ⴉ	cut_ui_stereo_44KHz.wav
3	141	3	3	2	I	1	0	618	0	Ⴐ	cut_ui_stereo_44KHz.wav
3	142	4	4	2	I	2	0	532	1	Ⴉ	cut_oei_stereo_44KHz.wav
3	143	2	1	0	C	1	1	792	1	Ⴔ	cut_r_stereo_44KHz.wav
3	144	1	1	1	C	2	1	1001	1	Ⴕ	cut_r_stereo_44KHz.wav
3	145	4	3	2	I	2	0	815	1	Ⴉ	cut_ui_stereo_44KHz.wav
3	146	1	2	0	C	2	0	1207	0	Ⴕ	cut_n_stereo_44KHz.wav
3	147	3	3	2	I	1	0	1414	1	Ⴐ	cut_ui_stereo_44KHz.wav
3	148	2	2	1	C	2	1	776	1	Ⴔ	cut_n_stereo_44KHz.wav
3	149	3	4	2	I	2	0	767	1	Ⴐ	cut_oei_stereo_44KHz.wav
3	150	2	1	0	C	2	0	912	0	Ⴔ	cut_r_stereo_44KHz.wav
3	151	1	1	1	C	2	1	674	1	Ⴕ	cut_r_stereo_44KHz.wav
3	152	4	4	2	I	1	0	519	1	Ⴉ	cut_oei_stereo_44KHz.wav
3	153	3	3	2	I	2	0	608	1	Ⴐ	cut_ui_stereo_44KHz.wav
3	154	2	2	1	C	1	0	901	0	Ⴔ	cut_n_stereo_44KHz.wav
3	155	1	2	0	C	2	0	864	0	Ⴕ	cut_n_stereo_44KHz.wav
3	156	4	4	2	I	2	0	837	1	Ⴉ	cut_oei_stereo_44KHz.wav
3	157	1	1	1	C	1	0	975	0	Ⴕ	cut_r_stereo_44KHz.wav
3	158	3	4	2	I	2	0	600	1	Ⴐ	cut_oei_stereo_44KHz.wav
3	159	2	1	0	C	2	0	750	0	Ⴔ	cut_r_stereo_44KHz.wav
3	160	4	3	2	I	1	0	680	1	Ⴉ	cut_ui_stereo_44KHz.wav
3	161	2	1	0	C	1	1	1045	1	Ⴔ	cut_r_stereo_44KHz.wav
3	162	3	4	2	I	1	0	765	0	Ⴐ	cut_oei_stereo_44KHz.wav
3	163	4	4	2	I	1	0	1060	1	Ⴉ	cut_oei_stereo_44KHz.wav
3	164	1	1	1	C	2	1	1084	1	Ⴕ	cut_r_stereo_44KHz.wav
3	165	2	2	1	C	2	1	660	1	Ⴔ	cut_n_stereo_44KHz.wav
3	166	3	3	2	I	2	0	572	1	Ⴐ	cut_ui_stereo_44KHz.wav
3	167	4	3	2	I	0	0	0	0	Ⴉ	cut_ui_stereo_44KHz.wav
3	168	1	2	0	C	1	1	833	1	Ⴕ	cut_n_stereo_44KHz.wav
3	169	3	3	2	I	2	0	1135	0	Ⴐ	cut_ui_stereo_44KHz.wav
3	170	1	2	0	C	2	0	742	0	Ⴕ	cut_n_stereo_44KHz.wav
3	171	2	2	1	C	2	1	1336	1	Ⴔ	cut_n_stereo_44KHz.wav
3	172	4	4	2	I	2	0	467	1	Ⴉ	cut_oei_stereo_44KHz.wav
3	173	1	1	1	C	2	1	720	1	Ⴕ	cut_r_stereo_44KHz.wav
3	174	2	1	0	C	2	0	829	0	Ⴔ	cut_r_stereo_44KHz.wav
3	175	3	4	2	I	1	0	568	1	Ⴐ	cut_oei_stereo_44KHz.wav
3	176	4	3	2	I	2	0	594	1	Ⴉ	cut_ui_stereo_44KHz.wav
3	177	1	2	0	C	2	0	688	0	Ⴕ	cut_n_stereo_44KHz.wav
3	178	4	3	2	I	1	0	865	1	Ⴉ	cut_ui_stereo_44KHz.wav
3	179	3	3	2	I	1	0	691	1	Ⴐ	cut_ui_stereo_44KHz.wav
3	180	2	2	1	C	2	1	381	1	Ⴔ	cut_n_stereo_44KHz.wav
3	181	1	1	1	C	1	0	812	0	Ⴕ	cut_r_stereo_44KHz.wav
3	182	2	1	0	C	2	0	1018	0	Ⴔ	cut_r_stereo_44KHz.wav
3	183	3	4	2	I	1	0	1019	1	Ⴐ	cut_oei_stereo_44KHz.wav
3	184	4	4	2	I	2	0	741	0	Ⴉ	cut_oei_stereo_44KHz.wav
3	185	3	3	2	I	2	0	857	1	Ⴐ	cut_ui_stereo_44KHz.wav
3	186	4	3	2	I	1	0	667	1	Ⴉ	cut_ui_stereo_44KHz.wav
3	187	1	1	1	C	2	1	851	1	Ⴕ	cut_r_stereo_44KHz.wav
3	188	2	2	1	C	1	0	1122	0	Ⴔ	cut_n_stereo_44KHz.wav
3	189	3	4	2	I	2	0	1180	1	Ⴐ	cut_oei_stereo_44KHz.wav
3	190	4	4	2	I	2	0	973	1	Ⴉ	cut_oei_stereo_44KHz.wav
3	191	1	2	0	C	0	0	0	0	Ⴕ	cut_n_stereo_44KHz.wav
3	192	2	1	0	C	1	1	763	1	Ⴔ	cut_r_stereo_44KHz.wav
3	193	4	3	2	I	2	0	950	0	Ⴉ	cut_ui_stereo_44KHz.wav
3	194	1	1	1	C	2	1	1052	1	Ⴕ	cut_r_stereo_44KHz.wav
3	195	3	3	2	I	2	0	721	0	Ⴐ	cut_ui_stereo_44KHz.wav
3	196	2	2	1	C	2	1	506	1	Ⴔ	cut_n_stereo_44KHz.wav
3	197	3	4	2	I	2	0	681	1	Ⴐ	cut_oei_stereo_44KHz.wav
3	198	2	1	0	C	1	1	815	1	Ⴔ	cut_r_stereo_44KHz.wav
3	199	4	4	2	I	2	0	625	1	Ⴉ	cut_oei_stereo_44KHz.wav
3	200	1	2	0	C	2	0	944	0	Ⴕ	cut_n_stereo_44KHz.wav
4	1	3	4	2	I	2	0	1083	0	Ⴟ	cut_f_stereo_44KHz.wav
4	2	1	2	0	C	1	1	814	1	Ⴜ	cut_s_stereo_44KHz.wav
4	3	4	4	2	I	2	0	713	0	Ⴡ	cut_f_stereo_44KHz.wav
4	4	2	1	0	C	2	0	693	0	Ⴁ	cut_j_stereo_44KHz.wav
4	5	3	3	2	I	1	0	901	1	Ⴟ	cut_ei_stereo_44KHz.wav
4	6	4	3	2	I	2	0	864	1	Ⴡ	cut_ei_stereo_44KHz.wav
4	7	1	1	1	C	1	0	1127	0	Ⴜ	cut_j_stereo_44KHz.wav
4	8	2	2	1	C	2	1	841	1	Ⴁ	cut_s_stereo_44KHz.wav
4	9	3	4	2	I	2	0	881	1	Ⴟ	cut_f_stereo_44KHz.wav
4	10	4	4	2	I	2	0	1024	1	Ⴡ	cut_f_stereo_44KHz.wav
4	11	2	1	0	C	1	1	843	1	Ⴁ	cut_j_stereo_44KHz.wav
4	12	1	2	0	C	2	0	1072	0	Ⴜ	cut_s_stereo_44KHz.wav
4	13	4	3	2	I	1	0	939	1	Ⴡ	cut_ei_stereo_44KHz.wav
4	14	1	1	1	C	1	0	838	0	Ⴜ	cut_j_stereo_44KHz.wav
4	15	3	3	2	I	1	0	703	0	Ⴟ	cut_ei_stereo_44KHz.wav
4	16	2	2	1	C	1	0	937	0	Ⴁ	cut_s_stereo_44KHz.wav
4	17	1	1	1	C	2	1	801	1	Ⴜ	cut_j_stereo_44KHz.wav
4	18	3	3	2	I	2	0	569	1	Ⴟ	cut_ei_stereo_44KHz.wav
4	19	2	2	1	C	2	1	451	1	Ⴁ	cut_s_stereo_44KHz.wav
4	20	4	4	2	I	1	0	1252	1	Ⴡ	cut_f_stereo_44KHz.wav
4	21	1	2	0	C	2	0	429	0	Ⴜ	cut_s_stereo_44KHz.wav
4	22	4	3	2	I	1	0	821	1	Ⴡ	cut_ei_stereo_44KHz.wav
4	23	2	1	0	C	1	1	577	1	Ⴁ	cut_j_stereo_44KHz.wav
4	24	3	4	2	I	2	0	509	0	Ⴟ	cut_f_stereo_44KHz.wav
4	25	2	2	1	C	1	0	526	0	Ⴁ	cut_s_stereo_44KHz.wav
4	26	4	3	2	I	2	0	722	1	Ⴡ	cut_ei_stereo_44KHz.wav
4	27	1	1	1	C	2	1	421	1	Ⴜ	cut_j_stereo_44KHz.wav
4	28	3	4	2	I	2	0	602	0	Ⴟ	cut_f_stereo_44KHz.wav
4	29	1	2	0	C	1	1	187	1	Ⴜ	cut_s_stereo_44KHz.wav
4	30	4	4	2	I	2	0	1046	1	Ⴡ	cut_f_stereo_44KHz.wav
4	31	2	1	0	C	1	1	560	1	Ⴁ	cut_j_stereo_44KHz.wav
4	32	3	3	2	I	2	0	435	1	Ⴟ	cut_ei_stereo_44KHz.wav
4	33	4	4	2	I	1	0	884	1	Ⴡ	cut_f_stereo_44KHz.wav
4	34	1	1	1	C	2	1	706	1	Ⴜ	cut_j_stereo_44KHz.wav
4	35	2	1	0	C	1	1	802	1	Ⴁ	cut_j_stereo_44KHz.wav
4	36	3	3	2	I	2	0	747	1	Ⴟ	cut_ei_stereo_44KHz.wav
4	37	1	2	0	C	2	0	387	0	Ⴜ	cut_s_stereo_44KHz.wav
4	38	4	3	2	I	1	0	587	0	Ⴡ	cut_ei_stereo_44KHz.wav
4	39	3	4	2	I	2	0	665	1	Ⴟ	cut_f_stereo_44KHz.wav
4	40	2	2	1	C	1	0	690	0	Ⴁ	cut_s_stereo_44KHz.wav
4	41	3	3	2	I	2	0	473	1	Ⴟ	cut_ei_stereo_44KHz.wav
4	42	1	1	1	C	1	0	649	0	Ⴜ	cut_j_stereo_44KHz.wav
4	43	2	2	1	C	2	1	674	1	Ⴁ	cut_s_stereo_44KHz.wav
4	44	4	4	2	I	2	0	1362	0	Ⴡ	cut_f_stereo_44KHz.wav
4	45	3	4	2	I	1	0	761	0	Ⴟ	cut_f_stereo_44KHz.wav
4	46	2	1	0	C	2	0	776	0	Ⴁ	cut_j_stereo_44KHz.wav
4	47	4	3	2	I	1	0	643	1	Ⴡ	cut_ei_stereo_44KHz.wav
4	48	1	2	0	C	2	0	657	0	Ⴜ	cut_s_stereo_44KHz.wav
4	49	3	3	2	I	2	0	829	1	Ⴟ	cut_ei_stereo_44KHz.wav
4	50	1	1	1	C	2	1	1019	1	Ⴜ	cut_j_stereo_44KHz.wav
4	51	2	1	0	C	2	0	1221	0	Ⴁ	cut_j_stereo_44KHz.wav
4	52	4	4	2	I	2	0	697	0	Ⴡ	cut_f_stereo_44KHz.wav
4	53	2	2	1	C	2	1	847	1	Ⴁ	cut_s_stereo_44KHz.wav
4	54	4	3	2	I	2	0	706	1	Ⴡ	cut_ei_stereo_44KHz.wav
4	55	1	2	0	C	1	1	693	1	Ⴜ	cut_s_stereo_44KHz.wav
4	56	3	4	2	I	1	0	670	1	Ⴟ	cut_f_stereo_44KHz.wav
4	57	1	2	0	C	2	0	768	0	Ⴜ	cut_s_stereo_44KHz.wav
4	58	2	1	0	C	1	1	545	1	Ⴁ	cut_j_stereo_44KHz.wav
4	59	3	3	2	I	1	0	638	1	Ⴟ	cut_ei_stereo_44KHz.wav
4	60	4	3	2	I	2	0	973	0	Ⴡ	cut_ei_stereo_44KHz.wav
4	61	2	2	1	C	1	0	885	0	Ⴁ	cut_s_stereo_44KHz.wav
4	62	4	4	2	I	1	0	816	1	Ⴡ	cut_f_stereo_44KHz.wav
4	63	3	4	2	I	2	0	528	1	Ⴟ	cut_f_stereo_44KHz.wav
4	64	1	1	1	C	1	0	1099	0	Ⴜ	cut_j_stereo_44KHz.wav
4	65	2	1	0	C	2	0	721	0	Ⴁ	cut_j_stereo_44KHz.wav
4	66	3	4	2	I	2	0	839	1	Ⴟ	cut_f_stereo_44KHz.wav
4	67	1	2	0	C	2	0	816	0	Ⴜ	cut_s_stereo_44KHz.wav
4	68	4	3	2	I	2	0	543	0	Ⴡ	cut_ei_stereo_44KHz.wav
4	69	3	3	2	I	1	0	853	0	Ⴟ	cut_ei_stereo_44KHz.wav
4	70	1	1	1	C	2	1	940	1	Ⴜ	cut_j_stereo_44KHz.wav
4	71	4	4	2	I	2	0	1132	1	Ⴡ	cut_f_stereo_44KHz.wav
4	72	2	2	1	C	2	1	642	1	Ⴁ	cut_s_stereo_44KHz.wav
4	73	1	2	0	C	2	0	1135	0	Ⴜ	cut_s_stereo_44KHz.wav
4	74	4	4	2	I	1	0	928	1	Ⴡ	cut_f_stereo_44KHz.wav
4	75	3	4	2	I	2	0	912	1	Ⴟ	cut_f_stereo_44KHz.wav
4	76	2	1	0	C	2	0	777	0	Ⴁ	cut_j_stereo_44KHz.wav
4	77	3	3	2	I	2	0	903	1	Ⴟ	cut_ei_stereo_44KHz.wav
4	78	1	1	1	C	2	1	856	1	Ⴜ	cut_j_stereo_44KHz.wav
4	79	2	2	1	C	2	1	978	1	Ⴁ	cut_s_stereo_44KHz.wav
4	80	4	3	2	I	2	0	742	0	Ⴡ	cut_ei_stereo_44KHz.wav
4	81	1	2	0	C	1	1	1000	1	Ⴜ	cut_s_stereo_44KHz.wav
4	82	4	4	2	I	1	0	1062	1	Ⴡ	cut_f_stereo_44KHz.wav
4	83	3	3	2	I	2	0	857	1	Ⴟ	cut_ei_stereo_44KHz.wav
4	84	2	2	1	C	2	1	1544	1	Ⴁ	cut_s_stereo_44KHz.wav
4	85	4	3	2	I	1	0	514	1	Ⴡ	cut_ei_stereo_44KHz.wav
4	86	2	1	0	C	0	0	0	0	Ⴁ	cut_j_stereo_44KHz.wav
4	87	3	4	2	I	2	0	440	1	Ⴟ	cut_f_stereo_44KHz.wav
4	88	1	1	1	C	1	0	525	0	Ⴜ	cut_j_stereo_44KHz.wav
4	89	2	1	0	C	1	1	809	1	Ⴁ	cut_j_stereo_44KHz.wav
4	90	1	1	1	C	2	1	1315	1	Ⴜ	cut_j_stereo_44KHz.wav
4	91	3	4	2	I	2	0	821	1	Ⴟ	cut_f_stereo_44KHz.wav
4	92	4	4	2	I	2	0	703	1	Ⴡ	cut_f_stereo_44KHz.wav
4	93	3	3	2	I	2	0	752	1	Ⴟ	cut_ei_stereo_44KHz.wav
4	94	4	3	2	I	1	0	696	1	Ⴡ	cut_ei_stereo_44KHz.wav
4	95	1	2	0	C	1	1	1760	1	Ⴜ	cut_s_stereo_44KHz.wav
4	96	2	2	1	C	2	1	544	1	Ⴁ	cut_s_stereo_44KHz.wav
4	97	3	4	2	I	1	0	230	1	Ⴟ	cut_f_stereo_44KHz.wav
4	98	4	4	2	I	2	0	664	1	Ⴡ	cut_f_stereo_44KHz.wav
4	99	1	2	0	C	0	0	0	0	Ⴜ	cut_s_stereo_44KHz.wav
4	100	2	2	1	C	0	0	0	0	Ⴁ	cut_s_stereo_44KHz.wav
4	101	1	1	1	C	1	0	946	0	Ⴜ	cut_j_stereo_44KHz.wav
4	102	4	3	2	I	2	0	1066	0	Ⴡ	cut_ei_stereo_44KHz.wav
4	103	2	1	0	C	2	0	643	0	Ⴁ	cut_j_stereo_44KHz.wav
4	104	3	3	2	I	2	0	433	1	Ⴟ	cut_ei_stereo_44KHz.wav
4	105	4	3	2	I	1	0	660	1	Ⴡ	cut_ei_stereo_44KHz.wav
4	106	3	3	2	I	2	0	735	1	Ⴟ	cut_ei_stereo_44KHz.wav
4	107	1	2	0	C	2	0	942	0	Ⴜ	cut_s_stereo_44KHz.wav
4	108	2	1	0	C	1	1	839	1	Ⴁ	cut_j_stereo_44KHz.wav
4	109	1	1	1	C	1	0	1029	0	Ⴜ	cut_j_stereo_44KHz.wav
4	110	2	2	1	C	1	0	865	0	Ⴁ	cut_s_stereo_44KHz.wav
4	111	4	4	2	I	2	0	857	1	Ⴡ	cut_f_stereo_44KHz.wav
4	112	3	4	2	I	2	0	687	1	Ⴟ	cut_f_stereo_44KHz.wav
4	113	4	3	2	I	2	0	1955	1	Ⴡ	cut_ei_stereo_44KHz.wav
4	114	3	4	2	I	2	0	1497	1	Ⴟ	cut_f_stereo_44KHz.wav
4	115	2	2	1	C	2	1	742	1	Ⴁ	cut_s_stereo_44KHz.wav
4	116	1	1	1	C	2	1	781	1	Ⴜ	cut_j_stereo_44KHz.wav
4	117	3	3	2	I	2	0	682	1	Ⴟ	cut_ei_stereo_44KHz.wav
4	118	1	2	0	C	0	0	0	0	Ⴜ	cut_s_stereo_44KHz.wav
4	119	4	4	2	I	2	0	553	1	Ⴡ	cut_f_stereo_44KHz.wav
4	120	2	1	0	C	2	0	306	0	Ⴁ	cut_j_stereo_44KHz.wav
4	121	4	3	2	I	1	0	934	1	Ⴡ	cut_ei_stereo_44KHz.wav
4	122	2	2	1	C	1	0	627	0	Ⴁ	cut_s_stereo_44KHz.wav
4	123	1	2	0	C	1	1	598	1	Ⴜ	cut_s_stereo_44KHz.wav
4	124	3	3	2	I	2	0	680	1	Ⴟ	cut_ei_stereo_44KHz.wav
4	125	2	1	0	C	1	1	964	1	Ⴁ	cut_j_stereo_44KHz.wav
4	126	1	1	1	C	2	1	897	1	Ⴜ	cut_j_stereo_44KHz.wav
4	127	4	4	2	I	2	0	432	1	Ⴡ	cut_f_stereo_44KHz.wav
4	128	3	4	2	I	2	0	468	1	Ⴟ	cut_f_stereo_44KHz.wav
4	129	2	2	1	C	2	1	811	1	Ⴁ	cut_s_stereo_44KHz.wav
4	130	3	3	2	I	2	0	654	1	Ⴟ	cut_ei_stereo_44KHz.wav
4	131	1	2	0	C	0	0	0	0	Ⴜ	cut_s_stereo_44KHz.wav
4	132	4	4	2	I	2	0	435	0	Ⴡ	cut_f_stereo_44KHz.wav
4	133	3	4	2	I	2	0	991	1	Ⴟ	cut_f_stereo_44KHz.wav
4	134	4	3	2	I	2	0	668	1	Ⴡ	cut_ei_stereo_44KHz.wav
4	135	1	1	1	C	1	0	894	0	Ⴜ	cut_j_stereo_44KHz.wav
4	136	2	1	0	C	2	0	702	0	Ⴁ	cut_j_stereo_44KHz.wav
4	137	1	1	1	C	1	0	887	0	Ⴜ	cut_j_stereo_44KHz.wav
4	138	4	3	2	I	2	0	1908	1	Ⴡ	cut_ei_stereo_44KHz.wav
4	139	3	4	2	I	0	0	0	0	Ⴟ	cut_f_stereo_44KHz.wav
4	140	2	1	0	C	2	0	813	0	Ⴁ	cut_j_stereo_44KHz.wav
4	141	1	2	0	C	1	1	625	1	Ⴜ	cut_s_stereo_44KHz.wav
4	142	2	2	1	C	1	0	1001	0	Ⴁ	cut_s_stereo_44KHz.wav
4	143	3	3	2	I	2	0	629	1	Ⴟ	cut_ei_stereo_44KHz.wav
4	144	4	4	2	I	2	0	875	1	Ⴡ	cut_f_stereo_44KHz.wav
4	145	3	4	2	I	1	0	689	1	Ⴟ	cut_f_stereo_44KHz.wav
4	146	2	2	1	C	1	0	985	0	Ⴁ	cut_s_stereo_44KHz.wav
4	147	4	4	2	I	1	0	757	1	Ⴡ	cut_f_stereo_44KHz.wav
4	148	1	2	0	C	2	0	676	0	Ⴜ	cut_s_stereo_44KHz.wav
4	149	3	3	2	I	1	0	1718	0	Ⴟ	cut_ei_stereo_44KHz.wav
4	150	4	3	2	I	2	0	333	1	Ⴡ	cut_ei_stereo_44KHz.wav
4	151	1	1	1	C	1	0	599	0	Ⴜ	cut_j_stereo_44KHz.wav
4	152	2	1	0	C	2	0	742	0	Ⴁ	cut_j_stereo_44KHz.wav
4	153	4	4	2	I	2	0	701	1	Ⴡ	cut_f_stereo_44KHz.wav
4	154	2	1	0	C	2	0	485	0	Ⴁ	cut_j_stereo_44KHz.wav
4	155	3	3	2	I	1	0	686	1	Ⴟ	cut_ei_stereo_44KHz.wav
4	156	1	1	1	C	1	0	867	0	Ⴜ	cut_j_stereo_44KHz.wav
4	157	3	4	2	I	2	0	451	0	Ⴟ	cut_f_stereo_44KHz.wav
4	158	4	3	2	I	2	0	1186	0	Ⴡ	cut_ei_stereo_44KHz.wav
4	159	2	2	1	C	0	0	0	0	Ⴁ	cut_s_stereo_44KHz.wav
4	160	1	2	0	C	2	0	894	0	Ⴜ	cut_s_stereo_44KHz.wav
4	161	4	3	2	I	2	0	1228	1	Ⴡ	cut_ei_stereo_44KHz.wav
4	162	3	4	2	I	2	0	796	0	Ⴟ	cut_f_stereo_44KHz.wav
4	163	1	1	1	C	2	1	930	1	Ⴜ	cut_j_stereo_44KHz.wav
4	164	2	1	0	C	2	0	1771	0	Ⴁ	cut_j_stereo_44KHz.wav
4	165	1	2	0	C	1	1	354	1	Ⴜ	cut_s_stereo_44KHz.wav
4	166	4	4	2	I	1	0	826	1	Ⴡ	cut_f_stereo_44KHz.wav
4	167	3	3	2	I	1	0	615	1	Ⴟ	cut_ei_stereo_44KHz.wav
4	168	2	2	1	C	2	1	637	1	Ⴁ	cut_s_stereo_44KHz.wav
4	169	4	4	2	I	2	0	419	1	Ⴡ	cut_f_stereo_44KHz.wav
4	170	1	2	0	C	2	0	497	0	Ⴜ	cut_s_stereo_44KHz.wav
4	171	3	4	2	I	1	0	678	0	Ⴟ	cut_f_stereo_44KHz.wav
4	172	2	1	0	C	2	0	732	0	Ⴁ	cut_j_stereo_44KHz.wav
4	173	1	1	1	C	0	0	0	0	Ⴜ	cut_j_stereo_44KHz.wav
4	174	2	2	1	C	2	1	805	1	Ⴁ	cut_s_stereo_44KHz.wav
4	175	4	3	2	I	1	0	942	1	Ⴡ	cut_ei_stereo_44KHz.wav
4	176	3	3	2	I	2	0	616	1	Ⴟ	cut_ei_stereo_44KHz.wav
4	177	4	4	2	I	2	0	991	1	Ⴡ	cut_f_stereo_44KHz.wav
4	178	1	2	0	C	2	0	825	0	Ⴜ	cut_s_stereo_44KHz.wav
4	179	2	1	0	C	1	1	756	1	Ⴁ	cut_j_stereo_44KHz.wav
4	180	3	4	2	I	1	0	787	1	Ⴟ	cut_f_stereo_44KHz.wav
4	181	2	2	1	C	1	0	867	0	Ⴁ	cut_s_stereo_44KHz.wav
4	182	1	1	1	C	2	1	782	1	Ⴜ	cut_j_stereo_44KHz.wav
4	183	4	3	2	I	1	0	786	1	Ⴡ	cut_ei_stereo_44KHz.wav
4	184	3	3	2	I	2	0	748	1	Ⴟ	cut_ei_stereo_44KHz.wav
4	185	2	1	0	C	0	0	0	0	Ⴁ	cut_j_stereo_44KHz.wav
4	186	1	1	1	C	2	1	787	1	Ⴜ	cut_j_stereo_44KHz.wav
4	187	3	4	2	I	2	0	778	1	Ⴟ	cut_f_stereo_44KHz.wav
4	188	4	4	2	I	0	0	0	0	Ⴡ	cut_f_stereo_44KHz.wav
4	189	3	3	2	I	2	0	608	1	Ⴟ	cut_ei_stereo_44KHz.wav
4	190	4	3	2	I	1	0	628	1	Ⴡ	cut_ei_stereo_44KHz.wav
4	191	2	2	1	C	2	1	947	1	Ⴁ	cut_s_stereo_44KHz.wav
4	192	1	2	0	C	2	0	687	0	Ⴜ	cut_s_stereo_44KHz.wav
4	193	3	3	2	I	2	0	745	1	Ⴟ	cut_ei_stereo_44KHz.wav
4	194	1	1	1	C	1	0	1771	0	Ⴜ	cut_j_stereo_44KHz.wav
4	195	2	2	1	C	2	1	1324	1	Ⴁ	cut_s_stereo_44KHz.wav
4	196	4	4	2	I	2	0	682	1	Ⴡ	cut_f_stereo_44KHz.wav
4	197	1	2	0	C	2	0	859	0	Ⴜ	cut_s_stereo_44KHz.wav
4	198	4	3	2	I	2	0	438	1	Ⴡ	cut_ei_stereo_44KHz.wav
4	199	2	1	0	C	2	0	897	0	Ⴁ	cut_j_stereo_44KHz.wav
4	200	3	4	2	I	2	0	1894	1	Ⴟ	cut_f_stereo_44KHz.wav
