block	trial	Vstim	Astim	match	C/I	resp	result	RT	fb	V-file	A-file
RL

0	1	1	2	0	C	0	0	0	0	Ⴋ	cut_eeuw_stereo_44KHz.wav
0	2	1	1	1	C	0	0	0	0	Ⴋ	cut_ee_stereo_44KHz.wav
0	3	2	3	1	C	0	0	0	0	Ⴞ	cut_oo_stereo_44KHz.wav
0	4	2	4	0	C	0	0	0	0	Ⴞ	cut_g_stereo_44KHz.wav
0	5	1	1	1	C	0	0	0	0	Ⴋ	cut_ee_stereo_44KHz.wav
0	6	2	3	1	C	0	0	0	0	Ⴞ	cut_oo_stereo_44KHz.wav
0	7	2	4	0	C	0	0	0	0	Ⴞ	cut_g_stereo_44KHz.wav
0	8	1	2	0	C	0	0	0	0	Ⴋ	cut_eeuw_stereo_44KHz.wav
0	9	1	2	0	C	0	0	0	0	Ⴋ	cut_eeuw_stereo_44KHz.wav
0	10	2	4	0	C	0	0	0	0	Ⴞ	cut_g_stereo_44KHz.wav
0	11	2	3	1	C	1	1	1421	1	Ⴞ	cut_oo_stereo_44KHz.wav
0	12	1	1	1	C	1	1	1750	1	Ⴋ	cut_ee_stereo_44KHz.wav
0	13	2	3	1	C	1	1	898	1	Ⴞ	cut_oo_stereo_44KHz.wav
0	14	1	1	1	C	1	1	1010	1	Ⴋ	cut_ee_stereo_44KHz.wav
0	15	1	2	0	C	1	0	896	0	Ⴋ	cut_eeuw_stereo_44KHz.wav
0	16	2	4	0	C	0	0	0	0	Ⴞ	cut_g_stereo_44KHz.wav
0	17	2	4	0	C	1	0	959	0	Ⴞ	cut_g_stereo_44KHz.wav
0	18	1	1	1	C	2	0	694	0	Ⴋ	cut_ee_stereo_44KHz.wav
0	19	1	2	0	C	2	1	666	1	Ⴋ	cut_eeuw_stereo_44KHz.wav
0	20	2	3	1	C	2	0	792	0	Ⴞ	cut_oo_stereo_44KHz.wav
0	21	1	1	1	C	1	1	670	1	Ⴋ	cut_ee_stereo_44KHz.wav
0	22	2	3	1	C	1	1	1088	1	Ⴞ	cut_oo_stereo_44KHz.wav
0	23	1	2	0	C	1	0	767	0	Ⴋ	cut_eeuw_stereo_44KHz.wav
0	24	2	4	0	C	1	0	1516	0	Ⴞ	cut_g_stereo_44KHz.wav
0	25	1	1	1	C	2	0	1305	0	Ⴋ	cut_ee_stereo_44KHz.wav
0	26	2	3	1	C	1	1	614	1	Ⴞ	cut_oo_stereo_44KHz.wav
0	27	2	4	0	C	2	1	877	1	Ⴞ	cut_g_stereo_44KHz.wav
0	28	1	2	0	C	1	0	811	0	Ⴋ	cut_eeuw_stereo_44KHz.wav
0	29	1	1	1	C	2	0	653	0	Ⴋ	cut_ee_stereo_44KHz.wav
0	30	1	2	0	C	1	0	1590	0	Ⴋ	cut_eeuw_stereo_44KHz.wav
avg_resp = 999
1	1	4	4	2	I	2	0	1934	1	Ⴐ	cut_r_stereo_44KHz.wav
1	2	2	2	1	C	2	0	1615	0	Ⴌ	cut_j_stereo_44KHz.wav
1	3	3	4	2	I	1	0	1072	0	Ⴏ	cut_r_stereo_44KHz.wav
1	4	1	1	1	C	1	1	1089	1	Ⴒ	cut_ui_stereo_44KHz.wav
1	5	2	1	0	C	2	1	634	1	Ⴌ	cut_ui_stereo_44KHz.wav
1	6	3	3	2	I	1	0	594	1	Ⴏ	cut_ei_stereo_44KHz.wav
1	7	1	2	0	C	2	1	1426	1	Ⴒ	cut_j_stereo_44KHz.wav
1	8	4	3	2	I	2	0	639	1	Ⴐ	cut_ei_stereo_44KHz.wav
1	9	1	2	0	C	1	0	559	0	Ⴒ	cut_j_stereo_44KHz.wav
1	10	3	4	2	I	2	0	617	1	Ⴏ	cut_r_stereo_44KHz.wav
1	11	2	2	1	C	2	0	1343	0	Ⴌ	cut_j_stereo_44KHz.wav
1	12	4	3	2	I	2	0	1160	1	Ⴐ	cut_ei_stereo_44KHz.wav
1	13	1	1	1	C	1	1	916	1	Ⴒ	cut_ui_stereo_44KHz.wav
1	14	4	4	2	I	2	0	14	0	Ⴐ	cut_r_stereo_44KHz.wav
1	15	2	1	0	C	1	0	757	0	Ⴌ	cut_ui_stereo_44KHz.wav
1	16	3	3	2	I	2	0	998	1	Ⴏ	cut_ei_stereo_44KHz.wav
1	17	4	4	2	I	2	0	531	0	Ⴐ	cut_r_stereo_44KHz.wav
1	18	2	2	1	C	2	0	786	0	Ⴌ	cut_j_stereo_44KHz.wav
1	19	1	2	0	C	1	0	557	0	Ⴒ	cut_j_stereo_44KHz.wav
1	20	3	3	2	I	2	0	473	1	Ⴏ	cut_ei_stereo_44KHz.wav
1	21	2	1	0	C	1	0	656	0	Ⴌ	cut_ui_stereo_44KHz.wav
1	22	4	3	2	I	2	0	1147	1	Ⴐ	cut_ei_stereo_44KHz.wav
1	23	3	4	2	I	2	0	1096	1	Ⴏ	cut_r_stereo_44KHz.wav
1	24	1	1	1	C	2	0	1472	0	Ⴒ	cut_ui_stereo_44KHz.wav
1	25	3	4	2	I	2	0	1256	0	Ⴏ	cut_r_stereo_44KHz.wav
1	26	1	2	0	C	2	1	978	1	Ⴒ	cut_j_stereo_44KHz.wav
1	27	2	2	1	C	1	1	1012	1	Ⴌ	cut_j_stereo_44KHz.wav
1	28	4	3	2	I	2	0	623	1	Ⴐ	cut_ei_stereo_44KHz.wav
1	29	1	1	1	C	1	1	752	1	Ⴒ	cut_ui_stereo_44KHz.wav
1	30	2	1	0	C	1	0	1180	0	Ⴌ	cut_ui_stereo_44KHz.wav
1	31	3	3	2	I	2	0	620	1	Ⴏ	cut_ei_stereo_44KHz.wav
1	32	4	4	2	I	2	0	460	1	Ⴐ	cut_r_stereo_44KHz.wav
1	33	1	2	0	C	1	0	393	0	Ⴒ	cut_j_stereo_44KHz.wav
1	34	3	3	2	I	2	0	547	1	Ⴏ	cut_ei_stereo_44KHz.wav
1	35	4	3	2	I	2	0	747	0	Ⴐ	cut_ei_stereo_44KHz.wav
1	36	2	1	0	C	1	0	1036	0	Ⴌ	cut_ui_stereo_44KHz.wav
1	37	1	1	1	C	2	0	665	0	Ⴒ	cut_ui_stereo_44KHz.wav
1	38	3	4	2	I	2	0	772	0	Ⴏ	cut_r_stereo_44KHz.wav
1	39	4	4	2	I	1	0	388	0	Ⴐ	cut_r_stereo_44KHz.wav
1	40	2	2	1	C	1	1	1566	1	Ⴌ	cut_j_stereo_44KHz.wav
1	41	1	1	1	C	2	0	472	0	Ⴒ	cut_ui_stereo_44KHz.wav
1	42	4	4	2	I	1	0	1510	1	Ⴐ	cut_r_stereo_44KHz.wav
1	43	3	4	2	I	2	0	581	1	Ⴏ	cut_r_stereo_44KHz.wav
1	44	2	1	0	C	1	0	659	0	Ⴌ	cut_ui_stereo_44KHz.wav
1	45	3	3	2	I	2	0	822	1	Ⴏ	cut_ei_stereo_44KHz.wav
1	46	4	3	2	I	2	0	536	1	Ⴐ	cut_ei_stereo_44KHz.wav
1	47	1	2	0	C	2	1	608	1	Ⴒ	cut_j_stereo_44KHz.wav
1	48	2	2	1	C	1	1	1030	1	Ⴌ	cut_j_stereo_44KHz.wav
1	49	3	4	2	I	2	0	605	1	Ⴏ	cut_r_stereo_44KHz.wav
1	50	2	1	0	C	1	0	852	0	Ⴌ	cut_ui_stereo_44KHz.wav
1	51	4	4	2	I	2	0	737	1	Ⴐ	cut_r_stereo_44KHz.wav
1	52	1	2	0	C	2	1	844	1	Ⴒ	cut_j_stereo_44KHz.wav
1	53	4	3	2	I	1	0	979	1	Ⴐ	cut_ei_stereo_44KHz.wav
1	54	3	3	2	I	2	0	665	0	Ⴏ	cut_ei_stereo_44KHz.wav
1	55	2	2	1	C	1	1	848	1	Ⴌ	cut_j_stereo_44KHz.wav
1	56	1	1	1	C	2	0	848	0	Ⴒ	cut_ui_stereo_44KHz.wav
1	57	3	3	2	I	2	0	802	1	Ⴏ	cut_ei_stereo_44KHz.wav
1	58	2	1	0	C	2	1	712	1	Ⴌ	cut_ui_stereo_44KHz.wav
1	59	1	1	1	C	2	0	347	0	Ⴒ	cut_ui_stereo_44KHz.wav
1	60	4	3	2	I	1	0	816	1	Ⴐ	cut_ei_stereo_44KHz.wav
1	61	2	2	1	C	2	0	412	0	Ⴌ	cut_j_stereo_44KHz.wav
1	62	1	2	0	C	1	0	1274	0	Ⴒ	cut_j_stereo_44KHz.wav
1	63	3	4	2	I	2	0	606	1	Ⴏ	cut_r_stereo_44KHz.wav
1	64	4	4	2	I	2	0	851	1	Ⴐ	cut_r_stereo_44KHz.wav
1	65	1	1	1	C	1	1	955	1	Ⴒ	cut_ui_stereo_44KHz.wav
1	66	4	3	2	I	2	0	882	1	Ⴐ	cut_ei_stereo_44KHz.wav
1	67	2	2	1	C	2	0	1789	0	Ⴌ	cut_j_stereo_44KHz.wav
1	68	3	4	2	I	1	0	698	0	Ⴏ	cut_r_stereo_44KHz.wav
1	69	1	2	0	C	2	1	773	1	Ⴒ	cut_j_stereo_44KHz.wav
1	70	2	1	0	C	1	0	1037	0	Ⴌ	cut_ui_stereo_44KHz.wav
1	71	3	3	2	I	2	0	839	0	Ⴏ	cut_ei_stereo_44KHz.wav
1	72	4	4	2	I	1	0	711	1	Ⴐ	cut_r_stereo_44KHz.wav
1	73	1	1	1	C	1	1	475	1	Ⴒ	cut_ui_stereo_44KHz.wav
1	74	2	1	0	C	1	0	909	0	Ⴌ	cut_ui_stereo_44KHz.wav
1	75	3	3	2	I	2	0	615	1	Ⴏ	cut_ei_stereo_44KHz.wav
1	76	4	4	2	I	2	0	507	1	Ⴐ	cut_r_stereo_44KHz.wav
1	77	2	2	1	C	1	1	1649	1	Ⴌ	cut_j_stereo_44KHz.wav
1	78	4	3	2	I	2	0	723	1	Ⴐ	cut_ei_stereo_44KHz.wav
1	79	3	4	2	I	2	0	929	1	Ⴏ	cut_r_stereo_44KHz.wav
1	80	1	2	0	C	1	0	607	0	Ⴒ	cut_j_stereo_44KHz.wav
1	81	4	4	2	I	2	0	1315	1	Ⴐ	cut_r_stereo_44KHz.wav
1	82	2	2	1	C	1	1	542	1	Ⴌ	cut_j_stereo_44KHz.wav
1	83	3	3	2	I	2	0	1237	1	Ⴏ	cut_ei_stereo_44KHz.wav
1	84	1	1	1	C	2	0	1007	0	Ⴒ	cut_ui_stereo_44KHz.wav
1	85	3	4	2	I	1	0	937	1	Ⴏ	cut_r_stereo_44KHz.wav
1	86	1	2	0	C	2	1	875	1	Ⴒ	cut_j_stereo_44KHz.wav
1	87	2	1	0	C	1	0	798	0	Ⴌ	cut_ui_stereo_44KHz.wav
1	88	4	3	2	I	2	0	1199	1	Ⴐ	cut_ei_stereo_44KHz.wav
1	89	2	1	0	C	2	1	1550	1	Ⴌ	cut_ui_stereo_44KHz.wav
1	90	1	1	1	C	2	0	804	0	Ⴒ	cut_ui_stereo_44KHz.wav
1	91	3	3	2	I	1	0	852	1	Ⴏ	cut_ei_stereo_44KHz.wav
1	92	4	3	2	I	1	0	1049	1	Ⴐ	cut_ei_stereo_44KHz.wav
1	93	3	4	2	I	1	0	1085	1	Ⴏ	cut_r_stereo_44KHz.wav
1	94	4	4	2	I	2	0	725	1	Ⴐ	cut_r_stereo_44KHz.wav
1	95	1	2	0	C	1	0	1014	0	Ⴒ	cut_j_stereo_44KHz.wav
1	96	2	2	1	C	2	0	812	0	Ⴌ	cut_j_stereo_44KHz.wav
1	97	4	3	2	I	1	0	848	1	Ⴐ	cut_ei_stereo_44KHz.wav
1	98	2	2	1	C	2	0	564	0	Ⴌ	cut_j_stereo_44KHz.wav
1	99	3	3	2	I	1	0	1077	0	Ⴏ	cut_ei_stereo_44KHz.wav
1	100	1	1	1	C	2	0	843	0	Ⴒ	cut_ui_stereo_44KHz.wav
1	101	3	4	2	I	2	0	1499	1	Ⴏ	cut_r_stereo_44KHz.wav
1	102	2	1	0	C	2	1	827	1	Ⴌ	cut_ui_stereo_44KHz.wav
1	103	1	2	0	C	2	1	332	1	Ⴒ	cut_j_stereo_44KHz.wav
1	104	4	4	2	I	2	0	1033	0	Ⴐ	cut_r_stereo_44KHz.wav
1	105	1	2	0	C	1	0	1053	0	Ⴒ	cut_j_stereo_44KHz.wav
1	106	2	2	1	C	2	0	900	0	Ⴌ	cut_j_stereo_44KHz.wav
1	107	3	4	2	I	0	0	0	0	Ⴏ	cut_r_stereo_44KHz.wav
1	108	4	4	2	I	2	0	611	1	Ⴐ	cut_r_stereo_44KHz.wav
1	109	1	1	1	C	1	1	772	1	Ⴒ	cut_ui_stereo_44KHz.wav
1	110	3	3	2	I	2	0	1055	1	Ⴏ	cut_ei_stereo_44KHz.wav
1	111	2	1	0	C	2	1	977	1	Ⴌ	cut_ui_stereo_44KHz.wav
1	112	4	3	2	I	1	0	1071	1	Ⴐ	cut_ei_stereo_44KHz.wav
1	113	3	3	2	I	2	0	610	1	Ⴏ	cut_ei_stereo_44KHz.wav
1	114	2	2	1	C	1	1	846	1	Ⴌ	cut_j_stereo_44KHz.wav
1	115	4	3	2	I	2	0	907	0	Ⴐ	cut_ei_stereo_44KHz.wav
1	116	1	2	0	C	2	1	758	1	Ⴒ	cut_j_stereo_44KHz.wav
1	117	2	1	0	C	1	0	817	0	Ⴌ	cut_ui_stereo_44KHz.wav
1	118	3	4	2	I	2	0	769	1	Ⴏ	cut_r_stereo_44KHz.wav
1	119	4	4	2	I	2	0	872	1	Ⴐ	cut_r_stereo_44KHz.wav
1	120	1	1	1	C	1	1	461	1	Ⴒ	cut_ui_stereo_44KHz.wav
1	121	3	4	2	I	2	0	903	1	Ⴏ	cut_r_stereo_44KHz.wav
1	122	1	2	0	C	2	1	975	1	Ⴒ	cut_j_stereo_44KHz.wav
1	123	4	3	2	I	2	0	1342	1	Ⴐ	cut_ei_stereo_44KHz.wav
1	124	2	2	1	C	2	0	971	0	Ⴌ	cut_j_stereo_44KHz.wav
1	125	1	1	1	C	1	1	722	1	Ⴒ	cut_ui_stereo_44KHz.wav
1	126	3	3	2	I	2	0	630	1	Ⴏ	cut_ei_stereo_44KHz.wav
1	127	2	1	0	C	2	1	952	1	Ⴌ	cut_ui_stereo_44KHz.wav
1	128	4	4	2	I	1	0	1106	1	Ⴐ	cut_r_stereo_44KHz.wav
1	129	1	2	0	C	1	0	1040	0	Ⴒ	cut_j_stereo_44KHz.wav
1	130	3	4	2	I	2	0	987	1	Ⴏ	cut_r_stereo_44KHz.wav
1	131	4	4	2	I	2	0	836	0	Ⴐ	cut_r_stereo_44KHz.wav
1	132	2	2	1	C	2	0	772	0	Ⴌ	cut_j_stereo_44KHz.wav
1	133	4	3	2	I	2	0	745	1	Ⴐ	cut_ei_stereo_44KHz.wav
1	134	1	1	1	C	2	0	990	0	Ⴒ	cut_ui_stereo_44KHz.wav
1	135	3	3	2	I	2	0	690	1	Ⴏ	cut_ei_stereo_44KHz.wav
1	136	2	1	0	C	2	1	561	1	Ⴌ	cut_ui_stereo_44KHz.wav
1	137	1	1	1	C	1	1	618	1	Ⴒ	cut_ui_stereo_44KHz.wav
1	138	2	2	1	C	2	0	905	0	Ⴌ	cut_j_stereo_44KHz.wav
1	139	4	4	2	I	1	0	561	1	Ⴐ	cut_r_stereo_44KHz.wav
1	140	3	4	2	I	2	0	1076	1	Ⴏ	cut_r_stereo_44KHz.wav
1	141	2	1	0	C	2	1	551	1	Ⴌ	cut_ui_stereo_44KHz.wav
1	142	1	2	0	C	2	1	753	1	Ⴒ	cut_j_stereo_44KHz.wav
1	143	3	3	2	I	2	0	793	1	Ⴏ	cut_ei_stereo_44KHz.wav
1	144	4	3	2	I	1	0	898	1	Ⴐ	cut_ei_stereo_44KHz.wav
1	145	3	4	2	I	2	0	771	1	Ⴏ	cut_r_stereo_44KHz.wav
1	146	2	2	1	C	1	1	450	1	Ⴌ	cut_j_stereo_44KHz.wav
1	147	1	1	1	C	1	1	828	1	Ⴒ	cut_ui_stereo_44KHz.wav
1	148	4	3	2	I	2	0	652	1	Ⴐ	cut_ei_stereo_44KHz.wav
1	149	2	1	0	C	2	1	614	1	Ⴌ	cut_ui_stereo_44KHz.wav
1	150	3	3	2	I	1	0	908	1	Ⴏ	cut_ei_stereo_44KHz.wav
1	151	4	4	2	I	2	0	815	1	Ⴐ	cut_r_stereo_44KHz.wav
1	152	1	2	0	C	1	0	1003	0	Ⴒ	cut_j_stereo_44KHz.wav
1	153	3	3	2	I	2	0	580	1	Ⴏ	cut_ei_stereo_44KHz.wav
1	154	1	1	1	C	1	1	349	1	Ⴒ	cut_ui_stereo_44KHz.wav
1	155	2	1	0	C	2	1	818	1	Ⴌ	cut_ui_stereo_44KHz.wav
1	156	4	3	2	I	1	0	218	1	Ⴐ	cut_ei_stereo_44KHz.wav
1	157	2	2	1	C	2	0	847	0	Ⴌ	cut_j_stereo_44KHz.wav
1	158	1	2	0	C	1	0	1857	0	Ⴒ	cut_j_stereo_44KHz.wav
1	159	3	4	2	I	2	0	855	1	Ⴏ	cut_r_stereo_44KHz.wav
1	160	4	4	2	I	2	0	895	0	Ⴐ	cut_r_stereo_44KHz.wav
1	161	2	1	0	C	1	0	1051	0	Ⴌ	cut_ui_stereo_44KHz.wav
1	162	4	3	2	I	2	0	639	1	Ⴐ	cut_ei_stereo_44KHz.wav
1	163	3	3	2	I	2	0	885	1	Ⴏ	cut_ei_stereo_44KHz.wav
1	164	1	2	0	C	2	1	843	1	Ⴒ	cut_j_stereo_44KHz.wav
1	165	2	2	1	C	2	0	934	0	Ⴌ	cut_j_stereo_44KHz.wav
1	166	1	1	1	C	1	1	1065	1	Ⴒ	cut_ui_stereo_44KHz.wav
1	167	4	4	2	I	1	0	779	1	Ⴐ	cut_r_stereo_44KHz.wav
1	168	3	4	2	I	2	0	774	0	Ⴏ	cut_r_stereo_44KHz.wav
1	169	1	1	1	C	1	1	856	1	Ⴒ	cut_ui_stereo_44KHz.wav
1	170	4	4	2	I	2	0	923	1	Ⴐ	cut_r_stereo_44KHz.wav
1	171	2	2	1	C	1	1	1163	1	Ⴌ	cut_j_stereo_44KHz.wav
1	172	3	4	2	I	1	0	1683	0	Ⴏ	cut_r_stereo_44KHz.wav
1	173	2	1	0	C	2	1	965	1	Ⴌ	cut_ui_stereo_44KHz.wav
1	174	1	2	0	C	2	1	1133	1	Ⴒ	cut_j_stereo_44KHz.wav
1	175	4	3	2	I	2	0	700	1	Ⴐ	cut_ei_stereo_44KHz.wav
1	176	3	3	2	I	2	0	711	1	Ⴏ	cut_ei_stereo_44KHz.wav
1	177	2	2	1	C	2	0	1044	0	Ⴌ	cut_j_stereo_44KHz.wav
1	178	3	4	2	I	1	0	916	1	Ⴏ	cut_r_stereo_44KHz.wav
1	179	4	4	2	I	2	0	1011	1	Ⴐ	cut_r_stereo_44KHz.wav
1	180	1	2	0	C	2	1	915	1	Ⴒ	cut_j_stereo_44KHz.wav
1	181	3	3	2	I	2	0	1000	1	Ⴏ	cut_ei_stereo_44KHz.wav
1	182	4	3	2	I	2	0	664	0	Ⴐ	cut_ei_stereo_44KHz.wav
1	183	2	1	0	C	1	0	1542	0	Ⴌ	cut_ui_stereo_44KHz.wav
1	184	1	1	1	C	2	0	677	0	Ⴒ	cut_ui_stereo_44KHz.wav
1	185	4	3	2	I	1	0	728	1	Ⴐ	cut_ei_stereo_44KHz.wav
1	186	1	2	0	C	2	1	867	1	Ⴒ	cut_j_stereo_44KHz.wav
1	187	3	3	2	I	1	0	673	1	Ⴏ	cut_ei_stereo_44KHz.wav
1	188	2	1	0	C	2	1	565	1	Ⴌ	cut_ui_stereo_44KHz.wav
1	189	1	1	1	C	2	0	636	0	Ⴒ	cut_ui_stereo_44KHz.wav
1	190	2	2	1	C	1	1	1523	1	Ⴌ	cut_j_stereo_44KHz.wav
1	191	4	4	2	I	2	0	935	1	Ⴐ	cut_r_stereo_44KHz.wav
1	192	3	4	2	I	2	0	856	1	Ⴏ	cut_r_stereo_44KHz.wav
1	193	4	4	2	I	1	0	906	0	Ⴐ	cut_r_stereo_44KHz.wav
1	194	3	3	2	I	2	0	757	1	Ⴏ	cut_ei_stereo_44KHz.wav
1	195	2	2	1	C	2	0	1159	0	Ⴌ	cut_j_stereo_44KHz.wav
1	196	1	2	0	C	1	0	1383	0	Ⴒ	cut_j_stereo_44KHz.wav
1	197	3	4	2	I	2	0	897	0	Ⴏ	cut_r_stereo_44KHz.wav
1	198	4	3	2	I	1	0	1058	1	Ⴐ	cut_ei_stereo_44KHz.wav
1	199	1	1	1	C	2	0	738	0	Ⴒ	cut_ui_stereo_44KHz.wav
1	200	2	1	0	C	1	0	813	0	Ⴌ	cut_ui_stereo_44KHz.wav
2	1	4	3	2	I	0	0	0	0	Ⴟ	cut_l_stereo_44KHz.wav
2	2	1	2	0	C	0	0	0	0	Ⴂ	cut_g_stereo_44KHz.wav
2	3	2	1	0	C	2	1	1500	1	Ⴇ	cut_h_stereo_44KHz.wav
2	4	3	4	2	I	2	0	1007	1	Ⴊ	cut_w_stereo_44KHz.wav
2	5	4	4	2	I	2	0	669	0	Ⴟ	cut_w_stereo_44KHz.wav
2	6	2	2	1	C	1	1	1154	1	Ⴇ	cut_g_stereo_44KHz.wav
2	7	3	3	2	I	2	0	802	1	Ⴊ	cut_l_stereo_44KHz.wav
2	8	1	1	1	C	1	1	727	1	Ⴂ	cut_h_stereo_44KHz.wav
2	9	2	2	1	C	2	0	812	0	Ⴇ	cut_g_stereo_44KHz.wav
2	10	4	3	2	I	2	0	874	1	Ⴟ	cut_l_stereo_44KHz.wav
2	11	1	2	0	C	1	0	1110	0	Ⴂ	cut_g_stereo_44KHz.wav
2	12	3	4	2	I	2	0	688	1	Ⴊ	cut_w_stereo_44KHz.wav
2	13	2	1	0	C	2	1	819	1	Ⴇ	cut_h_stereo_44KHz.wav
2	14	1	1	1	C	2	0	909	0	Ⴂ	cut_h_stereo_44KHz.wav
2	15	4	4	2	I	2	0	917	1	Ⴟ	cut_w_stereo_44KHz.wav
2	16	3	3	2	I	1	0	1106	1	Ⴊ	cut_l_stereo_44KHz.wav
2	17	2	1	0	C	2	1	1092	1	Ⴇ	cut_h_stereo_44KHz.wav
2	18	1	2	0	C	1	0	989	0	Ⴂ	cut_g_stereo_44KHz.wav
2	19	4	4	2	I	2	0	753	1	Ⴟ	cut_w_stereo_44KHz.wav
2	20	3	3	2	I	2	0	966	1	Ⴊ	cut_l_stereo_44KHz.wav
2	21	1	1	1	C	2	0	757	0	Ⴂ	cut_h_stereo_44KHz.wav
2	22	3	4	2	I	2	0	893	1	Ⴊ	cut_w_stereo_44KHz.wav
2	23	2	2	1	C	2	0	823	0	Ⴇ	cut_g_stereo_44KHz.wav
2	24	4	3	2	I	1	0	1401	1	Ⴟ	cut_l_stereo_44KHz.wav
2	25	3	3	2	I	2	0	1032	1	Ⴊ	cut_l_stereo_44KHz.wav
2	26	2	1	0	C	0	0	0	0	Ⴇ	cut_h_stereo_44KHz.wav
2	27	4	3	2	I	2	0	727	0	Ⴟ	cut_l_stereo_44KHz.wav
2	28	1	2	0	C	1	0	1244	0	Ⴂ	cut_g_stereo_44KHz.wav
2	29	4	4	2	I	2	0	681	1	Ⴟ	cut_w_stereo_44KHz.wav
2	30	1	1	1	C	1	1	650	1	Ⴂ	cut_h_stereo_44KHz.wav
2	31	3	4	2	I	2	0	781	0	Ⴊ	cut_w_stereo_44KHz.wav
2	32	2	2	1	C	1	1	801	1	Ⴇ	cut_g_stereo_44KHz.wav
2	33	3	3	2	I	2	0	896	1	Ⴊ	cut_l_stereo_44KHz.wav
2	34	1	1	1	C	2	0	942	0	Ⴂ	cut_h_stereo_44KHz.wav
2	35	2	1	0	C	2	1	1128	1	Ⴇ	cut_h_stereo_44KHz.wav
2	36	4	4	2	I	1	0	1100	1	Ⴟ	cut_w_stereo_44KHz.wav
2	37	1	2	0	C	2	1	873	1	Ⴂ	cut_g_stereo_44KHz.wav
2	38	4	3	2	I	1	0	1164	1	Ⴟ	cut_l_stereo_44KHz.wav
2	39	2	2	1	C	2	0	980	0	Ⴇ	cut_g_stereo_44KHz.wav
2	40	3	4	2	I	1	0	854	1	Ⴊ	cut_w_stereo_44KHz.wav
2	41	1	1	1	C	2	0	1222	0	Ⴂ	cut_h_stereo_44KHz.wav
2	42	3	4	2	I	1	0	760	0	Ⴊ	cut_w_stereo_44KHz.wav
2	43	2	2	1	C	2	0	593	0	Ⴇ	cut_g_stereo_44KHz.wav
2	44	4	4	2	I	1	0	720	1	Ⴟ	cut_w_stereo_44KHz.wav
2	45	2	1	0	C	2	1	821	1	Ⴇ	cut_h_stereo_44KHz.wav
2	46	4	3	2	I	1	0	940	1	Ⴟ	cut_l_stereo_44KHz.wav
2	47	1	2	0	C	2	1	708	1	Ⴂ	cut_g_stereo_44KHz.wav
2	48	3	3	2	I	1	0	724	1	Ⴊ	cut_l_stereo_44KHz.wav
2	49	1	1	1	C	2	0	898	0	Ⴂ	cut_h_stereo_44KHz.wav
2	50	2	2	1	C	1	1	833	1	Ⴇ	cut_g_stereo_44KHz.wav
2	51	4	3	2	I	2	0	615	1	Ⴟ	cut_l_stereo_44KHz.wav
2	52	3	4	2	I	1	0	930	1	Ⴊ	cut_w_stereo_44KHz.wav
2	53	1	2	0	C	2	1	746	1	Ⴂ	cut_g_stereo_44KHz.wav
2	54	3	3	2	I	1	0	663	1	Ⴊ	cut_l_stereo_44KHz.wav
2	55	4	4	2	I	2	0	766	0	Ⴟ	cut_w_stereo_44KHz.wav
2	56	2	1	0	C	1	0	777	0	Ⴇ	cut_h_stereo_44KHz.wav
2	57	3	4	2	I	2	0	778	0	Ⴊ	cut_w_stereo_44KHz.wav
2	58	4	3	2	I	1	0	840	1	Ⴟ	cut_l_stereo_44KHz.wav
2	59	1	1	1	C	2	0	506	0	Ⴂ	cut_h_stereo_44KHz.wav
2	60	2	2	1	C	2	0	761	0	Ⴇ	cut_g_stereo_44KHz.wav
2	61	4	4	2	I	1	0	834	1	Ⴟ	cut_w_stereo_44KHz.wav
2	62	1	2	0	C	1	0	653	0	Ⴂ	cut_g_stereo_44KHz.wav
2	63	3	3	2	I	1	0	840	0	Ⴊ	cut_l_stereo_44KHz.wav
2	64	2	1	0	C	2	1	655	1	Ⴇ	cut_h_stereo_44KHz.wav
2	65	1	1	1	C	2	0	1047	0	Ⴂ	cut_h_stereo_44KHz.wav
2	66	2	2	1	C	1	1	621	1	Ⴇ	cut_g_stereo_44KHz.wav
2	67	3	4	2	I	2	0	774	1	Ⴊ	cut_w_stereo_44KHz.wav
2	68	4	3	2	I	1	0	717	0	Ⴟ	cut_l_stereo_44KHz.wav
2	69	3	3	2	I	2	0	224	1	Ⴊ	cut_l_stereo_44KHz.wav
2	70	2	1	0	C	2	1	589	1	Ⴇ	cut_h_stereo_44KHz.wav
2	71	4	4	2	I	1	0	883	1	Ⴟ	cut_w_stereo_44KHz.wav
2	72	1	2	0	C	2	1	1137	1	Ⴂ	cut_g_stereo_44KHz.wav
2	73	3	3	2	I	2	0	758	1	Ⴊ	cut_l_stereo_44KHz.wav
2	74	4	3	2	I	1	0	962	0	Ⴟ	cut_l_stereo_44KHz.wav
2	75	1	1	1	C	2	0	811	0	Ⴂ	cut_h_stereo_44KHz.wav
2	76	2	2	1	C	1	1	716	1	Ⴇ	cut_g_stereo_44KHz.wav
2	77	3	4	2	I	2	0	1326	1	Ⴊ	cut_w_stereo_44KHz.wav
2	78	4	4	2	I	2	0	882	1	Ⴟ	cut_w_stereo_44KHz.wav
2	79	2	1	0	C	1	0	953	0	Ⴇ	cut_h_stereo_44KHz.wav
2	80	1	2	0	C	2	1	1607	1	Ⴂ	cut_g_stereo_44KHz.wav
2	81	2	1	0	C	2	1	958	1	Ⴇ	cut_h_stereo_44KHz.wav
2	82	1	2	0	C	1	0	746	0	Ⴂ	cut_g_stereo_44KHz.wav
2	83	4	4	2	I	2	0	903	1	Ⴟ	cut_w_stereo_44KHz.wav
2	84	3	4	2	I	1	0	900	1	Ⴊ	cut_w_stereo_44KHz.wav
2	85	4	3	2	I	2	0	758	1	Ⴟ	cut_l_stereo_44KHz.wav
2	86	3	3	2	I	1	0	1424	0	Ⴊ	cut_l_stereo_44KHz.wav
2	87	2	2	1	C	2	0	1294	0	Ⴇ	cut_g_stereo_44KHz.wav
2	88	1	1	1	C	2	0	872	0	Ⴂ	cut_h_stereo_44KHz.wav
2	89	4	3	2	I	1	0	1124	1	Ⴟ	cut_l_stereo_44KHz.wav
2	90	2	1	0	C	2	1	849	1	Ⴇ	cut_h_stereo_44KHz.wav
2	91	3	3	2	I	1	0	75	1	Ⴊ	cut_l_stereo_44KHz.wav
2	92	1	1	1	C	2	0	778	0	Ⴂ	cut_h_stereo_44KHz.wav
2	93	4	4	2	I	1	0	445	1	Ⴟ	cut_w_stereo_44KHz.wav
2	94	1	2	0	C	1	0	827	0	Ⴂ	cut_g_stereo_44KHz.wav
2	95	2	2	1	C	2	0	739	0	Ⴇ	cut_g_stereo_44KHz.wav
2	96	3	4	2	I	2	0	881	1	Ⴊ	cut_w_stereo_44KHz.wav
2	97	4	4	2	I	1	0	756	1	Ⴟ	cut_w_stereo_44KHz.wav
2	98	1	1	1	C	2	0	540	0	Ⴂ	cut_h_stereo_44KHz.wav
2	99	3	3	2	I	1	0	525	1	Ⴊ	cut_l_stereo_44KHz.wav
2	100	2	1	0	C	2	1	768	1	Ⴇ	cut_h_stereo_44KHz.wav
2	101	1	2	0	C	1	0	964	0	Ⴂ	cut_g_stereo_44KHz.wav
2	102	4	3	2	I	2	0	912	0	Ⴟ	cut_l_stereo_44KHz.wav
2	103	3	4	2	I	1	0	1422	1	Ⴊ	cut_w_stereo_44KHz.wav
2	104	2	2	1	C	2	0	1795	0	Ⴇ	cut_g_stereo_44KHz.wav
2	105	1	1	1	C	2	0	1274	0	Ⴂ	cut_h_stereo_44KHz.wav
2	106	3	4	2	I	0	0	0	0	Ⴊ	cut_w_stereo_44KHz.wav
2	107	2	2	1	C	2	0	925	0	Ⴇ	cut_g_stereo_44KHz.wav
2	108	4	3	2	I	1	0	793	0	Ⴟ	cut_l_stereo_44KHz.wav
2	109	3	3	2	I	2	0	792	0	Ⴊ	cut_l_stereo_44KHz.wav
2	110	2	1	0	C	1	0	983	0	Ⴇ	cut_h_stereo_44KHz.wav
2	111	1	2	0	C	2	1	956	1	Ⴂ	cut_g_stereo_44KHz.wav
2	112	4	4	2	I	1	0	529	1	Ⴟ	cut_w_stereo_44KHz.wav
2	113	2	2	1	C	2	0	843	0	Ⴇ	cut_g_stereo_44KHz.wav
2	114	3	4	2	I	1	0	898	1	Ⴊ	cut_w_stereo_44KHz.wav
2	115	1	1	1	C	2	0	865	0	Ⴂ	cut_h_stereo_44KHz.wav
2	116	4	4	2	I	1	0	972	1	Ⴟ	cut_w_stereo_44KHz.wav
2	117	3	3	2	I	2	0	1117	1	Ⴊ	cut_l_stereo_44KHz.wav
2	118	4	3	2	I	2	0	727	0	Ⴟ	cut_l_stereo_44KHz.wav
2	119	1	2	0	C	1	0	954	0	Ⴂ	cut_g_stereo_44KHz.wav
2	120	2	1	0	C	2	1	861	1	Ⴇ	cut_h_stereo_44KHz.wav
2	121	3	3	2	I	2	0	933	1	Ⴊ	cut_l_stereo_44KHz.wav
2	122	1	2	0	C	2	1	700	1	Ⴂ	cut_g_stereo_44KHz.wav
2	123	4	4	2	I	2	0	919	1	Ⴟ	cut_w_stereo_44KHz.wav
2	124	2	2	1	C	0	0	0	0	Ⴇ	cut_g_stereo_44KHz.wav
2	125	3	4	2	I	2	0	973	1	Ⴊ	cut_w_stereo_44KHz.wav
2	126	2	1	0	C	2	1	1142	1	Ⴇ	cut_h_stereo_44KHz.wav
2	127	1	1	1	C	2	0	815	0	Ⴂ	cut_h_stereo_44KHz.wav
2	128	4	3	2	I	0	0	0	0	Ⴟ	cut_l_stereo_44KHz.wav
2	129	3	4	2	I	2	0	1182	1	Ⴊ	cut_w_stereo_44KHz.wav
2	130	1	1	1	C	1	1	630	1	Ⴂ	cut_h_stereo_44KHz.wav
2	131	4	4	2	I	2	0	809	1	Ⴟ	cut_w_stereo_44KHz.wav
2	132	2	1	0	C	1	0	779	0	Ⴇ	cut_h_stereo_44KHz.wav
2	133	3	3	2	I	2	0	723	1	Ⴊ	cut_l_stereo_44KHz.wav
2	134	2	2	1	C	2	0	665	0	Ⴇ	cut_g_stereo_44KHz.wav
2	135	1	2	0	C	1	0	841	0	Ⴂ	cut_g_stereo_44KHz.wav
2	136	4	3	2	I	2	0	445	1	Ⴟ	cut_l_stereo_44KHz.wav
2	137	3	3	2	I	1	0	784	0	Ⴊ	cut_l_stereo_44KHz.wav
2	138	1	2	0	C	2	1	835	1	Ⴂ	cut_g_stereo_44KHz.wav
2	139	4	3	2	I	1	0	696	1	Ⴟ	cut_l_stereo_44KHz.wav
2	140	2	1	0	C	2	1	831	1	Ⴇ	cut_h_stereo_44KHz.wav
2	141	1	1	1	C	1	1	756	1	Ⴂ	cut_h_stereo_44KHz.wav
2	142	2	2	1	C	2	0	468	0	Ⴇ	cut_g_stereo_44KHz.wav
2	143	4	4	2	I	2	0	1114	1	Ⴟ	cut_w_stereo_44KHz.wav
2	144	3	4	2	I	1	0	43	1	Ⴊ	cut_w_stereo_44KHz.wav
2	145	2	2	1	C	0	0	0	0	Ⴇ	cut_g_stereo_44KHz.wav
2	146	1	2	0	C	0	0	0	0	Ⴂ	cut_g_stereo_44KHz.wav
2	147	3	3	2	I	1	0	930	0	Ⴊ	cut_l_stereo_44KHz.wav
2	148	4	4	2	I	0	0	0	0	Ⴟ	cut_w_stereo_44KHz.wav
2	149	3	4	2	I	2	0	1088	1	Ⴊ	cut_w_stereo_44KHz.wav
2	150	1	1	1	C	1	1	712	1	Ⴂ	cut_h_stereo_44KHz.wav
2	151	2	1	0	C	2	1	539	1	Ⴇ	cut_h_stereo_44KHz.wav
2	152	4	3	2	I	1	0	971	1	Ⴟ	cut_l_stereo_44KHz.wav
2	153	3	4	2	I	2	0	780	1	Ⴊ	cut_w_stereo_44KHz.wav
2	154	4	3	2	I	1	0	974	1	Ⴟ	cut_l_stereo_44KHz.wav
2	155	1	2	0	C	2	1	806	1	Ⴂ	cut_g_stereo_44KHz.wav
2	156	2	2	1	C	1	1	1760	1	Ⴇ	cut_g_stereo_44KHz.wav
2	157	1	1	1	C	2	0	690	0	Ⴂ	cut_h_stereo_44KHz.wav
2	158	4	4	2	I	1	0	750	1	Ⴟ	cut_w_stereo_44KHz.wav
2	159	2	1	0	C	1	0	776	0	Ⴇ	cut_h_stereo_44KHz.wav
2	160	3	3	2	I	2	0	799	1	Ⴊ	cut_l_stereo_44KHz.wav
2	161	4	4	2	I	1	0	731	0	Ⴟ	cut_w_stereo_44KHz.wav
2	162	1	2	0	C	2	1	1232	1	Ⴂ	cut_g_stereo_44KHz.wav
2	163	3	4	2	I	2	0	829	0	Ⴊ	cut_w_stereo_44KHz.wav
2	164	2	2	1	C	1	1	965	1	Ⴇ	cut_g_stereo_44KHz.wav
2	165	3	3	2	I	2	0	637	1	Ⴊ	cut_l_stereo_44KHz.wav
2	166	4	3	2	I	1	0	737	1	Ⴟ	cut_l_stereo_44KHz.wav
2	167	2	1	0	C	2	1	651	1	Ⴇ	cut_h_stereo_44KHz.wav
2	168	1	1	1	C	2	0	702	0	Ⴂ	cut_h_stereo_44KHz.wav
2	169	2	2	1	C	1	1	1618	1	Ⴇ	cut_g_stereo_44KHz.wav
2	170	3	4	2	I	2	0	675	1	Ⴊ	cut_w_stereo_44KHz.wav
2	171	1	2	0	C	1	0	877	0	Ⴂ	cut_g_stereo_44KHz.wav
2	172	4	3	2	I	2	0	780	1	Ⴟ	cut_l_stereo_44KHz.wav
2	173	3	3	2	I	2	0	747	1	Ⴊ	cut_l_stereo_44KHz.wav
2	174	1	1	1	C	2	0	314	0	Ⴂ	cut_h_stereo_44KHz.wav
2	175	4	4	2	I	1	0	256	1	Ⴟ	cut_w_stereo_44KHz.wav
2	176	2	1	0	C	2	1	825	1	Ⴇ	cut_h_stereo_44KHz.wav
2	177	4	3	2	I	2	0	1037	1	Ⴟ	cut_l_stereo_44KHz.wav
2	178	3	4	2	I	2	0	1912	1	Ⴊ	cut_w_stereo_44KHz.wav
2	179	1	2	0	C	2	1	872	1	Ⴂ	cut_g_stereo_44KHz.wav
2	180	2	2	1	C	2	0	1107	0	Ⴇ	cut_g_stereo_44KHz.wav
2	181	4	4	2	I	1	0	878	1	Ⴟ	cut_w_stereo_44KHz.wav
2	182	2	1	0	C	2	1	736	1	Ⴇ	cut_h_stereo_44KHz.wav
2	183	3	3	2	I	2	0	746	1	Ⴊ	cut_l_stereo_44KHz.wav
2	184	1	1	1	C	2	0	629	0	Ⴂ	cut_h_stereo_44KHz.wav
2	185	2	2	1	C	1	1	929	1	Ⴇ	cut_g_stereo_44KHz.wav
2	186	1	1	1	C	1	1	642	1	Ⴂ	cut_h_stereo_44KHz.wav
2	187	4	3	2	I	2	0	732	1	Ⴟ	cut_l_stereo_44KHz.wav
2	188	3	3	2	I	1	0	1075	1	Ⴊ	cut_l_stereo_44KHz.wav
2	189	1	2	0	C	1	0	837	0	Ⴂ	cut_g_stereo_44KHz.wav
2	190	4	4	2	I	2	0	726	1	Ⴟ	cut_w_stereo_44KHz.wav
2	191	2	1	0	C	2	1	1178	1	Ⴇ	cut_h_stereo_44KHz.wav
2	192	3	4	2	I	1	0	435	1	Ⴊ	cut_w_stereo_44KHz.wav
2	193	4	3	2	I	1	0	951	1	Ⴟ	cut_l_stereo_44KHz.wav
2	194	2	2	1	C	2	0	810	0	Ⴇ	cut_g_stereo_44KHz.wav
2	195	3	3	2	I	1	0	1664	0	Ⴊ	cut_l_stereo_44KHz.wav
2	196	1	2	0	C	2	1	851	1	Ⴂ	cut_g_stereo_44KHz.wav
2	197	4	4	2	I	1	0	809	1	Ⴟ	cut_w_stereo_44KHz.wav
2	198	2	1	0	C	2	1	1157	1	Ⴇ	cut_h_stereo_44KHz.wav
2	199	1	1	1	C	2	0	836	0	Ⴂ	cut_h_stereo_44KHz.wav
2	200	3	4	2	I	1	0	803	1	Ⴊ	cut_w_stereo_44KHz.wav
3	1	1	1	1	C	2	0	1807	0	Ⴃ	cut_k_stereo_44KHz.wav
3	2	2	1	0	C	1	0	657	0	Ⴜ	cut_k_stereo_44KHz.wav
3	3	3	3	2	I	2	0	516	1	Ⴁ	cut_o_stereo_44KHz.wav
3	4	4	3	2	I	2	0	842	0	Ⴡ	cut_o_stereo_44KHz.wav
3	5	2	2	1	C	2	0	1213	0	Ⴜ	cut_a_stereo_44KHz.wav
3	6	3	4	2	I	1	0	557	0	Ⴁ	cut_u_stereo_44KHz.wav
3	7	4	4	2	I	2	0	640	1	Ⴡ	cut_u_stereo_44KHz.wav
3	8	1	2	0	C	2	1	843	1	Ⴃ	cut_a_stereo_44KHz.wav
3	9	4	4	2	I	2	0	661	1	Ⴡ	cut_u_stereo_44KHz.wav
3	10	1	1	1	C	1	1	703	1	Ⴃ	cut_k_stereo_44KHz.wav
3	11	2	2	1	C	2	0	498	0	Ⴜ	cut_a_stereo_44KHz.wav
3	12	3	4	2	I	1	0	788	1	Ⴁ	cut_u_stereo_44KHz.wav
3	13	1	2	0	C	2	1	618	1	Ⴃ	cut_a_stereo_44KHz.wav
3	14	3	3	2	I	2	0	539	1	Ⴁ	cut_o_stereo_44KHz.wav
3	15	4	3	2	I	2	0	616	1	Ⴡ	cut_o_stereo_44KHz.wav
3	16	2	1	0	C	2	1	1522	1	Ⴜ	cut_k_stereo_44KHz.wav
3	17	3	3	2	I	2	0	454	0	Ⴁ	cut_o_stereo_44KHz.wav
3	18	2	1	0	C	1	0	1021	0	Ⴜ	cut_k_stereo_44KHz.wav
3	19	4	4	2	I	2	0	428	1	Ⴡ	cut_u_stereo_44KHz.wav
3	20	1	1	1	C	2	0	680	0	Ⴃ	cut_k_stereo_44KHz.wav
3	21	3	4	2	I	2	0	498	1	Ⴁ	cut_u_stereo_44KHz.wav
3	22	1	2	0	C	2	1	414	1	Ⴃ	cut_a_stereo_44KHz.wav
3	23	4	3	2	I	2	0	521	1	Ⴡ	cut_o_stereo_44KHz.wav
3	24	2	2	1	C	2	0	222	0	Ⴜ	cut_a_stereo_44KHz.wav
3	25	1	1	1	C	2	0	434	0	Ⴃ	cut_k_stereo_44KHz.wav
3	26	3	4	2	I	2	0	390	0	Ⴁ	cut_u_stereo_44KHz.wav
3	27	2	2	1	C	2	0	325	0	Ⴜ	cut_a_stereo_44KHz.wav
3	28	4	3	2	I	2	0	570	1	Ⴡ	cut_o_stereo_44KHz.wav
3	29	1	2	0	C	2	1	1215	1	Ⴃ	cut_a_stereo_44KHz.wav
3	30	3	3	2	I	2	0	538	1	Ⴁ	cut_o_stereo_44KHz.wav
3	31	4	4	2	I	2	0	611	1	Ⴡ	cut_u_stereo_44KHz.wav
3	32	2	1	0	C	2	1	911	1	Ⴜ	cut_k_stereo_44KHz.wav
3	33	1	1	1	C	2	0	597	0	Ⴃ	cut_k_stereo_44KHz.wav
3	34	3	3	2	I	1	0	649	1	Ⴁ	cut_o_stereo_44KHz.wav
3	35	4	4	2	I	2	0	859	1	Ⴡ	cut_u_stereo_44KHz.wav
3	36	2	2	1	C	2	0	474	0	Ⴜ	cut_a_stereo_44KHz.wav
3	37	3	4	2	I	2	0	864	0	Ⴁ	cut_u_stereo_44KHz.wav
3	38	2	1	0	C	1	0	721	0	Ⴜ	cut_k_stereo_44KHz.wav
3	39	1	2	0	C	2	1	760	1	Ⴃ	cut_a_stereo_44KHz.wav
3	40	4	3	2	I	2	0	484	1	Ⴡ	cut_o_stereo_44KHz.wav
3	41	2	2	1	C	2	0	348	0	Ⴜ	cut_a_stereo_44KHz.wav
3	42	3	3	2	I	2	0	1658	1	Ⴁ	cut_o_stereo_44KHz.wav
3	43	1	1	1	C	2	0	502	0	Ⴃ	cut_k_stereo_44KHz.wav
3	44	4	4	2	I	2	0	385	1	Ⴡ	cut_u_stereo_44KHz.wav
3	45	2	1	0	C	2	1	353	1	Ⴜ	cut_k_stereo_44KHz.wav
3	46	4	3	2	I	2	0	748	1	Ⴡ	cut_o_stereo_44KHz.wav
3	47	3	4	2	I	2	0	465	1	Ⴁ	cut_u_stereo_44KHz.wav
3	48	1	2	0	C	2	1	343	1	Ⴃ	cut_a_stereo_44KHz.wav
3	49	4	4	2	I	2	0	384	1	Ⴡ	cut_u_stereo_44KHz.wav
3	50	1	1	1	C	2	0	551	0	Ⴃ	cut_k_stereo_44KHz.wav
3	51	2	2	1	C	0	0	0	0	Ⴜ	cut_a_stereo_44KHz.wav
3	52	3	3	2	I	2	0	891	1	Ⴁ	cut_o_stereo_44KHz.wav
3	53	2	1	0	C	2	1	290	1	Ⴜ	cut_k_stereo_44KHz.wav
3	54	4	3	2	I	2	0	1342	1	Ⴡ	cut_o_stereo_44KHz.wav
3	55	1	2	0	C	2	1	1090	1	Ⴃ	cut_a_stereo_44KHz.wav
3	56	3	4	2	I	2	0	516	1	Ⴁ	cut_u_stereo_44KHz.wav
3	57	2	1	0	C	1	0	569	0	Ⴜ	cut_k_stereo_44KHz.wav
3	58	4	3	2	I	2	0	275	1	Ⴡ	cut_o_stereo_44KHz.wav
3	59	3	4	2	I	2	0	536	1	Ⴁ	cut_u_stereo_44KHz.wav
3	60	1	1	1	C	1	1	907	1	Ⴃ	cut_k_stereo_44KHz.wav
3	61	2	2	1	C	0	0	0	0	Ⴜ	cut_a_stereo_44KHz.wav
3	62	3	3	2	I	0	0	0	0	Ⴁ	cut_o_stereo_44KHz.wav
3	63	4	4	2	I	2	0	582	0	Ⴡ	cut_u_stereo_44KHz.wav
3	64	1	2	0	C	2	1	476	1	Ⴃ	cut_a_stereo_44KHz.wav
3	65	2	1	0	C	2	1	516	1	Ⴜ	cut_k_stereo_44KHz.wav
3	66	4	3	2	I	2	0	683	1	Ⴡ	cut_o_stereo_44KHz.wav
3	67	1	2	0	C	2	1	516	1	Ⴃ	cut_a_stereo_44KHz.wav
3	68	3	3	2	I	2	0	692	1	Ⴁ	cut_o_stereo_44KHz.wav
3	69	4	4	2	I	2	0	548	1	Ⴡ	cut_u_stereo_44KHz.wav
3	70	3	4	2	I	2	0	577	1	Ⴁ	cut_u_stereo_44KHz.wav
3	71	2	2	1	C	2	0	658	0	Ⴜ	cut_a_stereo_44KHz.wav
3	72	1	1	1	C	2	0	925	0	Ⴃ	cut_k_stereo_44KHz.wav
3	73	3	3	2	I	1	0	703	0	Ⴁ	cut_o_stereo_44KHz.wav
3	74	4	4	2	I	2	0	606	1	Ⴡ	cut_u_stereo_44KHz.wav
3	75	2	2	1	C	2	0	1733	0	Ⴜ	cut_a_stereo_44KHz.wav
3	76	1	1	1	C	2	0	627	0	Ⴃ	cut_k_stereo_44KHz.wav
3	77	2	1	0	C	2	1	298	1	Ⴜ	cut_k_stereo_44KHz.wav
3	78	1	2	0	C	0	0	0	0	Ⴃ	cut_a_stereo_44KHz.wav
3	79	3	4	2	I	2	0	1286	1	Ⴁ	cut_u_stereo_44KHz.wav
3	80	4	3	2	I	2	0	480	1	Ⴡ	cut_o_stereo_44KHz.wav
3	81	2	1	0	C	2	1	548	1	Ⴜ	cut_k_stereo_44KHz.wav
3	82	4	4	2	I	2	0	539	1	Ⴡ	cut_u_stereo_44KHz.wav
3	83	3	4	2	I	2	0	521	1	Ⴁ	cut_u_stereo_44KHz.wav
3	84	1	1	1	C	1	1	573	1	Ⴃ	cut_k_stereo_44KHz.wav
3	85	4	3	2	I	2	0	714	1	Ⴡ	cut_o_stereo_44KHz.wav
3	86	2	2	1	C	1	1	536	1	Ⴜ	cut_a_stereo_44KHz.wav
3	87	1	2	0	C	1	0	459	0	Ⴃ	cut_a_stereo_44KHz.wav
3	88	3	3	2	I	2	0	892	0	Ⴁ	cut_o_stereo_44KHz.wav
3	89	4	4	2	I	1	0	592	1	Ⴡ	cut_u_stereo_44KHz.wav
3	90	3	3	2	I	2	0	496	1	Ⴁ	cut_o_stereo_44KHz.wav
3	91	2	1	0	C	2	1	479	1	Ⴜ	cut_k_stereo_44KHz.wav
3	92	1	1	1	C	2	0	621	0	Ⴃ	cut_k_stereo_44KHz.wav
3	93	2	2	1	C	1	1	496	1	Ⴜ	cut_a_stereo_44KHz.wav
3	94	3	4	2	I	2	0	438	1	Ⴁ	cut_u_stereo_44KHz.wav
3	95	1	2	0	C	1	0	573	0	Ⴃ	cut_a_stereo_44KHz.wav
3	96	4	3	2	I	2	0	656	1	Ⴡ	cut_o_stereo_44KHz.wav
3	97	1	1	1	C	2	0	538	0	Ⴃ	cut_k_stereo_44KHz.wav
3	98	2	1	0	C	2	1	622	1	Ⴜ	cut_k_stereo_44KHz.wav
3	99	3	3	2	I	1	0	592	1	Ⴁ	cut_o_stereo_44KHz.wav
3	100	4	4	2	I	1	0	541	1	Ⴡ	cut_u_stereo_44KHz.wav
3	101	3	4	2	I	2	0	474	1	Ⴁ	cut_u_stereo_44KHz.wav
3	102	2	2	1	C	2	0	549	0	Ⴜ	cut_a_stereo_44KHz.wav
3	103	1	2	0	C	1	0	625	0	Ⴃ	cut_a_stereo_44KHz.wav
3	104	4	3	2	I	2	0	561	1	Ⴡ	cut_o_stereo_44KHz.wav
3	105	1	2	0	C	2	1	452	1	Ⴃ	cut_a_stereo_44KHz.wav
3	106	4	4	2	I	1	0	581	1	Ⴡ	cut_u_stereo_44KHz.wav
3	107	2	2	1	C	2	0	585	0	Ⴜ	cut_a_stereo_44KHz.wav
3	108	3	4	2	I	1	0	485	1	Ⴁ	cut_u_stereo_44KHz.wav
3	109	2	1	0	C	0	0	0	0	Ⴜ	cut_k_stereo_44KHz.wav
3	110	3	3	2	I	2	0	1075	1	Ⴁ	cut_o_stereo_44KHz.wav
3	111	1	1	1	C	2	0	146	0	Ⴃ	cut_k_stereo_44KHz.wav
3	112	4	3	2	I	2	0	514	0	Ⴡ	cut_o_stereo_44KHz.wav
3	113	3	4	2	I	1	0	534	1	Ⴁ	cut_u_stereo_44KHz.wav
3	114	1	2	0	C	2	1	411	1	Ⴃ	cut_a_stereo_44KHz.wav
3	115	4	4	2	I	2	0	527	0	Ⴡ	cut_u_stereo_44KHz.wav
3	116	2	1	0	C	2	1	436	1	Ⴜ	cut_k_stereo_44KHz.wav
3	117	1	1	1	C	2	0	575	0	Ⴃ	cut_k_stereo_44KHz.wav
3	118	2	2	1	C	2	0	586	0	Ⴜ	cut_a_stereo_44KHz.wav
3	119	4	3	2	I	2	0	536	0	Ⴡ	cut_o_stereo_44KHz.wav
3	120	3	3	2	I	2	0	530	1	Ⴁ	cut_o_stereo_44KHz.wav
3	121	1	1	1	C	2	0	643	0	Ⴃ	cut_k_stereo_44KHz.wav
3	122	3	3	2	I	2	0	715	0	Ⴁ	cut_o_stereo_44KHz.wav
3	123	4	4	2	I	1	0	636	1	Ⴡ	cut_u_stereo_44KHz.wav
3	124	2	1	0	C	2	1	667	1	Ⴜ	cut_k_stereo_44KHz.wav
3	125	1	2	0	C	2	1	586	1	Ⴃ	cut_a_stereo_44KHz.wav
3	126	3	4	2	I	2	0	482	1	Ⴁ	cut_u_stereo_44KHz.wav
3	127	4	3	2	I	1	0	533	1	Ⴡ	cut_o_stereo_44KHz.wav
3	128	2	2	1	C	2	0	564	0	Ⴜ	cut_a_stereo_44KHz.wav
3	129	3	4	2	I	1	0	215	1	Ⴁ	cut_u_stereo_44KHz.wav
3	130	4	4	2	I	2	0	437	1	Ⴡ	cut_u_stereo_44KHz.wav
3	131	2	2	1	C	2	0	461	0	Ⴜ	cut_a_stereo_44KHz.wav
3	132	1	2	0	C	1	0	653	0	Ⴃ	cut_a_stereo_44KHz.wav
3	133	2	1	0	C	2	1	378	1	Ⴜ	cut_k_stereo_44KHz.wav
3	134	3	3	2	I	2	0	479	0	Ⴁ	cut_o_stereo_44KHz.wav
3	135	1	1	1	C	2	0	468	0	Ⴃ	cut_k_stereo_44KHz.wav
3	136	4	3	2	I	2	0	463	1	Ⴡ	cut_o_stereo_44KHz.wav
3	137	3	3	2	I	2	0	507	1	Ⴁ	cut_o_stereo_44KHz.wav
3	138	2	1	0	C	1	0	536	0	Ⴜ	cut_k_stereo_44KHz.wav
3	139	4	3	2	I	2	0	428	1	Ⴡ	cut_o_stereo_44KHz.wav
3	140	1	1	1	C	2	0	1118	0	Ⴃ	cut_k_stereo_44KHz.wav
3	141	3	4	2	I	1	0	528	1	Ⴁ	cut_u_stereo_44KHz.wav
3	142	1	2	0	C	2	1	710	1	Ⴃ	cut_a_stereo_44KHz.wav
3	143	4	4	2	I	1	0	604	0	Ⴡ	cut_u_stereo_44KHz.wav
3	144	2	2	1	C	2	0	658	0	Ⴜ	cut_a_stereo_44KHz.wav
3	145	3	4	2	I	2	0	612	1	Ⴁ	cut_u_stereo_44KHz.wav
3	146	4	4	2	I	2	0	435	1	Ⴡ	cut_u_stereo_44KHz.wav
3	147	1	2	0	C	2	1	495	1	Ⴃ	cut_a_stereo_44KHz.wav
3	148	2	1	0	C	1	0	625	0	Ⴜ	cut_k_stereo_44KHz.wav
3	149	4	3	2	I	2	0	421	1	Ⴡ	cut_o_stereo_44KHz.wav
3	150	2	2	1	C	2	0	852	0	Ⴜ	cut_a_stereo_44KHz.wav
3	151	1	1	1	C	2	0	580	0	Ⴃ	cut_k_stereo_44KHz.wav
3	152	3	3	2	I	2	0	590	1	Ⴁ	cut_o_stereo_44KHz.wav
3	153	1	1	1	C	2	0	640	0	Ⴃ	cut_k_stereo_44KHz.wav
3	154	2	2	1	C	1	1	324	1	Ⴜ	cut_a_stereo_44KHz.wav
3	155	4	3	2	I	2	0	561	1	Ⴡ	cut_o_stereo_44KHz.wav
3	156	3	4	2	I	0	0	0	0	Ⴁ	cut_u_stereo_44KHz.wav
3	157	2	1	0	C	2	1	563	1	Ⴜ	cut_k_stereo_44KHz.wav
3	158	3	3	2	I	2	0	236	1	Ⴁ	cut_o_stereo_44KHz.wav
3	159	1	2	0	C	2	1	596	1	Ⴃ	cut_a_stereo_44KHz.wav
3	160	4	4	2	I	2	0	543	0	Ⴡ	cut_u_stereo_44KHz.wav
3	161	2	1	0	C	1	0	631	0	Ⴜ	cut_k_stereo_44KHz.wav
3	162	3	3	2	I	2	0	579	1	Ⴁ	cut_o_stereo_44KHz.wav
3	163	1	2	0	C	2	1	508	1	Ⴃ	cut_a_stereo_44KHz.wav
3	164	4	3	2	I	1	0	653	1	Ⴡ	cut_o_stereo_44KHz.wav
3	165	3	4	2	I	1	0	562	1	Ⴁ	cut_u_stereo_44KHz.wav
3	166	4	4	2	I	1	0	560	0	Ⴡ	cut_u_stereo_44KHz.wav
3	167	2	2	1	C	2	0	582	0	Ⴜ	cut_a_stereo_44KHz.wav
3	168	1	1	1	C	1	1	587	1	Ⴃ	cut_k_stereo_44KHz.wav
3	169	3	4	2	I	1	0	1286	0	Ⴁ	cut_u_stereo_44KHz.wav
3	170	1	2	0	C	2	1	641	1	Ⴃ	cut_a_stereo_44KHz.wav
3	171	4	3	2	I	2	0	269	1	Ⴡ	cut_o_stereo_44KHz.wav
3	172	2	1	0	C	1	0	0	0	Ⴜ	cut_k_stereo_44KHz.wav
3	173	4	4	2	I	1	0	1006	1	Ⴡ	cut_u_stereo_44KHz.wav
3	174	3	3	2	I	0	0	0	0	Ⴁ	cut_o_stereo_44KHz.wav
3	175	1	1	1	C	2	0	565	0	Ⴃ	cut_k_stereo_44KHz.wav
3	176	2	2	1	C	1	1	564	1	Ⴜ	cut_a_stereo_44KHz.wav
3	177	4	3	2	I	2	0	529	1	Ⴡ	cut_o_stereo_44KHz.wav
3	178	3	4	2	I	0	0	0	0	Ⴁ	cut_u_stereo_44KHz.wav
3	179	2	2	1	C	2	0	1784	0	Ⴜ	cut_a_stereo_44KHz.wav
3	180	1	2	0	C	1	0	630	0	Ⴃ	cut_a_stereo_44KHz.wav
3	181	4	4	2	I	2	0	402	1	Ⴡ	cut_u_stereo_44KHz.wav
3	182	3	3	2	I	2	0	646	1	Ⴁ	cut_o_stereo_44KHz.wav
3	183	2	1	0	C	2	1	631	1	Ⴜ	cut_k_stereo_44KHz.wav
3	184	1	1	1	C	1	1	6	1	Ⴃ	cut_k_stereo_44KHz.wav
3	185	3	3	2	I	2	0	713	1	Ⴁ	cut_o_stereo_44KHz.wav
3	186	2	1	0	C	1	0	599	0	Ⴜ	cut_k_stereo_44KHz.wav
3	187	4	3	2	I	2	0	572	0	Ⴡ	cut_o_stereo_44KHz.wav
3	188	1	2	0	C	2	1	488	1	Ⴃ	cut_a_stereo_44KHz.wav
3	189	2	2	1	C	2	0	590	0	Ⴜ	cut_a_stereo_44KHz.wav
3	190	1	1	1	C	2	0	617	0	Ⴃ	cut_k_stereo_44KHz.wav
3	191	4	4	2	I	1	0	693	1	Ⴡ	cut_u_stereo_44KHz.wav
3	192	3	4	2	I	2	0	258	1	Ⴁ	cut_u_stereo_44KHz.wav
3	193	2	2	1	C	1	1	807	1	Ⴜ	cut_a_stereo_44KHz.wav
3	194	1	1	1	C	2	0	562	0	Ⴃ	cut_k_stereo_44KHz.wav
3	195	4	4	2	I	2	0	600	1	Ⴡ	cut_u_stereo_44KHz.wav
3	196	3	4	2	I	2	0	472	1	Ⴁ	cut_u_stereo_44KHz.wav
3	197	4	3	2	I	2	0	489	0	Ⴡ	cut_o_stereo_44KHz.wav
3	198	3	3	2	I	2	0	451	1	Ⴁ	cut_o_stereo_44KHz.wav
3	199	2	1	0	C	2	1	462	1	Ⴜ	cut_k_stereo_44KHz.wav
3	200	1	2	0	C	2	1	649	1	Ⴃ	cut_a_stereo_44KHz.wav
4	1	2	1	0	C	2	1	1133	1	Ⴖ	cut_s_stereo_44KHz.wav
4	2	1	2	0	C	2	1	791	1	Ⴔ	cut_f_stereo_44KHz.wav
4	3	3	3	2	I	2	0	437	0	Ⴕ	cut_oei_stereo_44KHz.wav
4	4	4	4	2	I	2	0	481	1	Ⴉ	cut_n_stereo_44KHz.wav
4	5	2	2	1	C	2	0	778	0	Ⴖ	cut_f_stereo_44KHz.wav
4	6	3	4	2	I	1	0	763	1	Ⴕ	cut_n_stereo_44KHz.wav
4	7	1	1	1	C	2	0	878	0	Ⴔ	cut_s_stereo_44KHz.wav
4	8	4	3	2	I	2	0	632	1	Ⴉ	cut_oei_stereo_44KHz.wav
4	9	2	2	1	C	2	0	585	0	Ⴖ	cut_f_stereo_44KHz.wav
4	10	4	4	2	I	1	0	1020	1	Ⴉ	cut_n_stereo_44KHz.wav
4	11	3	3	2	I	2	0	642	1	Ⴕ	cut_oei_stereo_44KHz.wav
4	12	1	1	1	C	2	0	881	0	Ⴔ	cut_s_stereo_44KHz.wav
4	13	4	3	2	I	2	0	840	1	Ⴉ	cut_oei_stereo_44KHz.wav
4	14	2	1	0	C	2	1	861	1	Ⴖ	cut_s_stereo_44KHz.wav
4	15	1	2	0	C	2	1	1024	1	Ⴔ	cut_f_stereo_44KHz.wav
4	16	3	4	2	I	2	0	825	1	Ⴕ	cut_n_stereo_44KHz.wav
4	17	1	2	0	C	1	0	824	0	Ⴔ	cut_f_stereo_44KHz.wav
4	18	2	1	0	C	2	1	827	1	Ⴖ	cut_s_stereo_44KHz.wav
4	19	4	3	2	I	2	0	523	1	Ⴉ	cut_oei_stereo_44KHz.wav
4	20	3	3	2	I	2	0	511	0	Ⴕ	cut_oei_stereo_44KHz.wav
4	21	1	1	1	C	2	0	572	0	Ⴔ	cut_s_stereo_44KHz.wav
4	22	4	4	2	I	2	0	700	1	Ⴉ	cut_n_stereo_44KHz.wav
4	23	3	4	2	I	1	0	1008	1	Ⴕ	cut_n_stereo_44KHz.wav
4	24	2	2	1	C	2	0	493	0	Ⴖ	cut_f_stereo_44KHz.wav
4	25	1	2	0	C	2	1	743	1	Ⴔ	cut_f_stereo_44KHz.wav
4	26	3	4	2	I	2	0	821	1	Ⴕ	cut_n_stereo_44KHz.wav
4	27	2	2	1	C	2	0	831	0	Ⴖ	cut_f_stereo_44KHz.wav
4	28	4	4	2	I	2	0	815	1	Ⴉ	cut_n_stereo_44KHz.wav
4	29	2	1	0	C	2	1	911	1	Ⴖ	cut_s_stereo_44KHz.wav
4	30	1	1	1	C	2	0	880	0	Ⴔ	cut_s_stereo_44KHz.wav
4	31	4	3	2	I	2	0	573	1	Ⴉ	cut_oei_stereo_44KHz.wav
4	32	3	3	2	I	2	0	713	0	Ⴕ	cut_oei_stereo_44KHz.wav
4	33	1	1	1	C	1	1	1134	1	Ⴔ	cut_s_stereo_44KHz.wav
4	34	2	2	1	C	2	0	787	0	Ⴖ	cut_f_stereo_44KHz.wav
4	35	4	4	2	I	1	0	848	0	Ⴉ	cut_n_stereo_44KHz.wav
4	36	3	3	2	I	1	0	752	1	Ⴕ	cut_oei_stereo_44KHz.wav
4	37	1	2	0	C	2	1	777	1	Ⴔ	cut_f_stereo_44KHz.wav
4	38	3	4	2	I	2	0	733	1	Ⴕ	cut_n_stereo_44KHz.wav
4	39	4	3	2	I	2	0	566	1	Ⴉ	cut_oei_stereo_44KHz.wav
4	40	2	1	0	C	2	1	790	1	Ⴖ	cut_s_stereo_44KHz.wav
4	41	4	3	2	I	2	0	560	1	Ⴉ	cut_oei_stereo_44KHz.wav
4	42	3	4	2	I	2	0	762	1	Ⴕ	cut_n_stereo_44KHz.wav
4	43	2	2	1	C	2	0	833	0	Ⴖ	cut_f_stereo_44KHz.wav
4	44	1	1	1	C	2	0	838	0	Ⴔ	cut_s_stereo_44KHz.wav
4	45	4	4	2	I	2	0	788	1	Ⴉ	cut_n_stereo_44KHz.wav
4	46	3	3	2	I	2	0	673	0	Ⴕ	cut_oei_stereo_44KHz.wav
4	47	2	1	0	C	2	1	847	1	Ⴖ	cut_s_stereo_44KHz.wav
4	48	1	2	0	C	1	0	779	0	Ⴔ	cut_f_stereo_44KHz.wav
4	49	3	4	2	I	2	0	732	1	Ⴕ	cut_n_stereo_44KHz.wav
4	50	1	2	0	C	2	1	725	1	Ⴔ	cut_f_stereo_44KHz.wav
4	51	2	1	0	C	2	1	805	1	Ⴖ	cut_s_stereo_44KHz.wav
4	52	4	4	2	I	2	0	763	1	Ⴉ	cut_n_stereo_44KHz.wav
4	53	2	2	1	C	1	1	1013	1	Ⴖ	cut_f_stereo_44KHz.wav
4	54	4	3	2	I	2	0	670	0	Ⴉ	cut_oei_stereo_44KHz.wav
4	55	3	3	2	I	1	0	602	1	Ⴕ	cut_oei_stereo_44KHz.wav
4	56	1	1	1	C	2	0	847	0	Ⴔ	cut_s_stereo_44KHz.wav
4	57	3	3	2	I	2	0	565	1	Ⴕ	cut_oei_stereo_44KHz.wav
4	58	1	1	1	C	1	1	885	1	Ⴔ	cut_s_stereo_44KHz.wav
4	59	2	1	0	C	2	1	784	1	Ⴖ	cut_s_stereo_44KHz.wav
4	60	4	3	2	I	2	0	610	1	Ⴉ	cut_oei_stereo_44KHz.wav
4	61	2	2	1	C	2	0	800	0	Ⴖ	cut_f_stereo_44KHz.wav
4	62	4	4	2	I	2	0	730	1	Ⴉ	cut_n_stereo_44KHz.wav
4	63	1	2	0	C	2	1	662	1	Ⴔ	cut_f_stereo_44KHz.wav
4	64	3	4	2	I	2	0	486	0	Ⴕ	cut_n_stereo_44KHz.wav
4	65	4	4	2	I	1	0	931	0	Ⴉ	cut_n_stereo_44KHz.wav
4	66	1	2	0	C	2	1	1579	1	Ⴔ	cut_f_stereo_44KHz.wav
4	67	2	2	1	C	2	0	930	0	Ⴖ	cut_f_stereo_44KHz.wav
4	68	3	4	2	I	2	0	1673	0	Ⴕ	cut_n_stereo_44KHz.wav
4	69	2	1	0	C	1	0	893	0	Ⴖ	cut_s_stereo_44KHz.wav
4	70	4	3	2	I	2	0	588	1	Ⴉ	cut_oei_stereo_44KHz.wav
4	71	3	3	2	I	2	0	635	1	Ⴕ	cut_oei_stereo_44KHz.wav
4	72	1	1	1	C	1	1	950	1	Ⴔ	cut_s_stereo_44KHz.wav
4	73	2	2	1	C	2	0	808	0	Ⴖ	cut_f_stereo_44KHz.wav
4	74	3	3	2	I	2	0	152	1	Ⴕ	cut_oei_stereo_44KHz.wav
4	75	4	4	2	I	2	0	836	1	Ⴉ	cut_n_stereo_44KHz.wav
4	76	1	2	0	C	2	1	883	1	Ⴔ	cut_f_stereo_44KHz.wav
4	77	2	1	0	C	2	1	899	1	Ⴖ	cut_s_stereo_44KHz.wav
4	78	3	4	2	I	2	0	816	1	Ⴕ	cut_n_stereo_44KHz.wav
4	79	4	3	2	I	2	0	658	0	Ⴉ	cut_oei_stereo_44KHz.wav
4	80	1	1	1	C	2	0	953	0	Ⴔ	cut_s_stereo_44KHz.wav
4	81	2	1	0	C	1	0	936	0	Ⴖ	cut_s_stereo_44KHz.wav
4	82	1	1	1	C	1	1	1656	1	Ⴔ	cut_s_stereo_44KHz.wav
4	83	3	3	2	I	2	0	637	1	Ⴕ	cut_oei_stereo_44KHz.wav
4	84	4	3	2	I	2	0	737	1	Ⴉ	cut_oei_stereo_44KHz.wav
4	85	1	2	0	C	2	1	873	1	Ⴔ	cut_f_stereo_44KHz.wav
4	86	2	2	1	C	2	0	1076	0	Ⴖ	cut_f_stereo_44KHz.wav
4	87	4	4	2	I	1	0	792	1	Ⴉ	cut_n_stereo_44KHz.wav
4	88	3	4	2	I	2	0	776	1	Ⴕ	cut_n_stereo_44KHz.wav
4	89	1	1	1	C	1	1	932	1	Ⴔ	cut_s_stereo_44KHz.wav
4	90	2	2	1	C	2	0	902	0	Ⴖ	cut_f_stereo_44KHz.wav
4	91	3	3	2	I	2	0	775	1	Ⴕ	cut_oei_stereo_44KHz.wav
4	92	4	3	2	I	2	0	618	0	Ⴉ	cut_oei_stereo_44KHz.wav
4	93	2	1	0	C	1	0	808	0	Ⴖ	cut_s_stereo_44KHz.wav
4	94	4	4	2	I	2	0	1117	1	Ⴉ	cut_n_stereo_44KHz.wav
4	95	1	2	0	C	2	1	754	1	Ⴔ	cut_f_stereo_44KHz.wav
4	96	3	4	2	I	2	0	810	1	Ⴕ	cut_n_stereo_44KHz.wav
4	97	2	1	0	C	1	0	719	0	Ⴖ	cut_s_stereo_44KHz.wav
4	98	3	4	2	I	0	0	0	0	Ⴕ	cut_n_stereo_44KHz.wav
4	99	4	4	2	I	2	0	1159	1	Ⴉ	cut_n_stereo_44KHz.wav
4	100	1	1	1	C	2	0	873	0	Ⴔ	cut_s_stereo_44KHz.wav
4	101	3	3	2	I	1	0	708	1	Ⴕ	cut_oei_stereo_44KHz.wav
4	102	2	2	1	C	1	1	815	1	Ⴖ	cut_f_stereo_44KHz.wav
4	103	1	2	0	C	1	0	839	0	Ⴔ	cut_f_stereo_44KHz.wav
4	104	4	3	2	I	2	0	604	0	Ⴉ	cut_oei_stereo_44KHz.wav
4	105	1	1	1	C	0	0	0	0	Ⴔ	cut_s_stereo_44KHz.wav
4	106	2	2	1	C	0	0	0	0	Ⴖ	cut_f_stereo_44KHz.wav
4	107	4	4	2	I	2	0	775	0	Ⴉ	cut_n_stereo_44KHz.wav
4	108	3	3	2	I	1	0	709	1	Ⴕ	cut_oei_stereo_44KHz.wav
4	109	2	1	0	C	2	1	1063	1	Ⴖ	cut_s_stereo_44KHz.wav
4	110	1	2	0	C	2	1	850	1	Ⴔ	cut_f_stereo_44KHz.wav
4	111	4	3	2	I	2	0	765	1	Ⴉ	cut_oei_stereo_44KHz.wav
4	112	3	4	2	I	2	0	972	1	Ⴕ	cut_n_stereo_44KHz.wav
4	113	2	1	0	C	2	1	877	1	Ⴖ	cut_s_stereo_44KHz.wav
4	114	1	2	0	C	1	0	813	0	Ⴔ	cut_f_stereo_44KHz.wav
4	115	3	4	2	I	2	0	789	1	Ⴕ	cut_n_stereo_44KHz.wav
4	116	4	3	2	I	2	0	685	0	Ⴉ	cut_oei_stereo_44KHz.wav
4	117	2	2	1	C	2	0	968	0	Ⴖ	cut_f_stereo_44KHz.wav
4	118	3	3	2	I	2	0	672	1	Ⴕ	cut_oei_stereo_44KHz.wav
4	119	1	1	1	C	2	0	880	0	Ⴔ	cut_s_stereo_44KHz.wav
4	120	4	4	2	I	2	0	750	1	Ⴉ	cut_n_stereo_44KHz.wav
4	121	1	2	0	C	2	1	826	1	Ⴔ	cut_f_stereo_44KHz.wav
4	122	3	4	2	I	2	0	842	0	Ⴕ	cut_n_stereo_44KHz.wav
4	123	2	1	0	C	2	1	219	1	Ⴖ	cut_s_stereo_44KHz.wav
4	124	4	3	2	I	2	0	796	1	Ⴉ	cut_oei_stereo_44KHz.wav
4	125	3	3	2	I	2	0	681	1	Ⴕ	cut_oei_stereo_44KHz.wav
4	126	2	2	1	C	1	1	899	1	Ⴖ	cut_f_stereo_44KHz.wav
4	127	1	1	1	C	2	0	851	0	Ⴔ	cut_s_stereo_44KHz.wav
4	128	4	4	2	I	2	0	972	0	Ⴉ	cut_n_stereo_44KHz.wav
4	129	3	4	2	I	2	0	771	0	Ⴕ	cut_n_stereo_44KHz.wav
4	130	1	2	0	C	1	0	891	0	Ⴔ	cut_f_stereo_44KHz.wav
4	131	4	3	2	I	2	0	606	1	Ⴉ	cut_oei_stereo_44KHz.wav
4	132	2	2	1	C	2	0	809	0	Ⴖ	cut_f_stereo_44KHz.wav
4	133	3	3	2	I	2	0	884	1	Ⴕ	cut_oei_stereo_44KHz.wav
4	134	1	1	1	C	2	0	1005	0	Ⴔ	cut_s_stereo_44KHz.wav
4	135	4	4	2	I	2	0	752	1	Ⴉ	cut_n_stereo_44KHz.wav
4	136	2	1	0	C	1	0	994	0	Ⴖ	cut_s_stereo_44KHz.wav
4	137	1	1	1	C	2	0	856	0	Ⴔ	cut_s_stereo_44KHz.wav
4	138	4	4	2	I	1	0	944	1	Ⴉ	cut_n_stereo_44KHz.wav
4	139	2	1	0	C	2	1	869	1	Ⴖ	cut_s_stereo_44KHz.wav
4	140	3	4	2	I	2	0	795	1	Ⴕ	cut_n_stereo_44KHz.wav
4	141	4	3	2	I	2	0	651	0	Ⴉ	cut_oei_stereo_44KHz.wav
4	142	1	2	0	C	2	1	922	1	Ⴔ	cut_f_stereo_44KHz.wav
4	143	2	2	1	C	2	0	923	0	Ⴖ	cut_f_stereo_44KHz.wav
4	144	3	3	2	I	2	0	531	1	Ⴕ	cut_oei_stereo_44KHz.wav
4	145	1	2	0	C	2	1	634	1	Ⴔ	cut_f_stereo_44KHz.wav
4	146	2	2	1	C	2	0	603	0	Ⴖ	cut_f_stereo_44KHz.wav
4	147	4	3	2	I	1	0	862	1	Ⴉ	cut_oei_stereo_44KHz.wav
4	148	3	4	2	I	2	0	763	0	Ⴕ	cut_n_stereo_44KHz.wav
4	149	1	1	1	C	1	1	403	1	Ⴔ	cut_s_stereo_44KHz.wav
4	150	3	3	2	I	2	0	621	1	Ⴕ	cut_oei_stereo_44KHz.wav
4	151	4	4	2	I	2	0	1643	1	Ⴉ	cut_n_stereo_44KHz.wav
4	152	2	1	0	C	2	1	1619	1	Ⴖ	cut_s_stereo_44KHz.wav
4	153	1	2	0	C	1	0	793	0	Ⴔ	cut_f_stereo_44KHz.wav
4	154	3	4	2	I	2	0	198	1	Ⴕ	cut_n_stereo_44KHz.wav
4	155	2	1	0	C	0	0	0	0	Ⴖ	cut_s_stereo_44KHz.wav
4	156	4	3	2	I	1	0	622	1	Ⴉ	cut_oei_stereo_44KHz.wav
4	157	1	1	1	C	2	0	859	0	Ⴔ	cut_s_stereo_44KHz.wav
4	158	3	3	2	I	1	0	761	1	Ⴕ	cut_oei_stereo_44KHz.wav
4	159	2	2	1	C	2	0	993	0	Ⴖ	cut_f_stereo_44KHz.wav
4	160	4	4	2	I	1	0	778	1	Ⴉ	cut_n_stereo_44KHz.wav
4	161	1	2	0	C	2	1	808	1	Ⴔ	cut_f_stereo_44KHz.wav
4	162	4	3	2	I	2	0	897	1	Ⴉ	cut_oei_stereo_44KHz.wav
4	163	3	4	2	I	2	0	768	1	Ⴕ	cut_n_stereo_44KHz.wav
4	164	2	1	0	C	2	1	862	1	Ⴖ	cut_s_stereo_44KHz.wav
4	165	3	3	2	I	2	0	679	1	Ⴕ	cut_oei_stereo_44KHz.wav
4	166	4	4	2	I	2	0	750	1	Ⴉ	cut_n_stereo_44KHz.wav
4	167	1	1	1	C	2	0	884	0	Ⴔ	cut_s_stereo_44KHz.wav
4	168	2	2	1	C	2	0	664	0	Ⴖ	cut_f_stereo_44KHz.wav
4	169	1	1	1	C	1	1	804	1	Ⴔ	cut_s_stereo_44KHz.wav
4	170	4	3	2	I	2	0	632	1	Ⴉ	cut_oei_stereo_44KHz.wav
4	171	2	1	0	C	2	1	1082	1	Ⴖ	cut_s_stereo_44KHz.wav
4	172	3	3	2	I	2	0	715	1	Ⴕ	cut_oei_stereo_44KHz.wav
4	173	2	2	1	C	2	0	809	0	Ⴖ	cut_f_stereo_44KHz.wav
4	174	1	2	0	C	1	0	900	0	Ⴔ	cut_f_stereo_44KHz.wav
4	175	4	4	2	I	2	0	820	1	Ⴉ	cut_n_stereo_44KHz.wav
4	176	3	4	2	I	2	0	689	1	Ⴕ	cut_n_stereo_44KHz.wav
4	177	4	3	2	I	2	0	763	1	Ⴉ	cut_oei_stereo_44KHz.wav
4	178	3	4	2	I	1	0	687	1	Ⴕ	cut_n_stereo_44KHz.wav
4	179	2	2	1	C	2	0	826	0	Ⴖ	cut_f_stereo_44KHz.wav
4	180	1	2	0	C	2	1	1155	1	Ⴔ	cut_f_stereo_44KHz.wav
4	181	3	3	2	I	1	0	1023	1	Ⴕ	cut_oei_stereo_44KHz.wav
4	182	4	4	2	I	1	0	1532	1	Ⴉ	cut_n_stereo_44KHz.wav
4	183	2	1	0	C	2	1	1040	1	Ⴖ	cut_s_stereo_44KHz.wav
4	184	1	1	1	C	1	1	1024	1	Ⴔ	cut_s_stereo_44KHz.wav
4	185	4	4	2	I	1	0	981	1	Ⴉ	cut_n_stereo_44KHz.wav
4	186	2	2	1	C	1	1	1653	1	Ⴖ	cut_f_stereo_44KHz.wav
4	187	3	4	2	I	1	0	1101	0	Ⴕ	cut_n_stereo_44KHz.wav
4	188	1	1	1	C	2	0	1590	0	Ⴔ	cut_s_stereo_44KHz.wav
4	189	2	1	0	C	2	1	671	1	Ⴖ	cut_s_stereo_44KHz.wav
4	190	3	3	2	I	1	0	607	1	Ⴕ	cut_oei_stereo_44KHz.wav
4	191	1	2	0	C	2	1	669	1	Ⴔ	cut_f_stereo_44KHz.wav
4	192	4	3	2	I	2	0	623	1	Ⴉ	cut_oei_stereo_44KHz.wav
4	193	2	2	1	C	1	1	728	1	Ⴖ	cut_f_stereo_44KHz.wav
4	194	4	3	2	I	2	0	689	1	Ⴉ	cut_oei_stereo_44KHz.wav
4	195	3	4	2	I	1	0	621	1	Ⴕ	cut_n_stereo_44KHz.wav
4	196	1	2	0	C	1	0	694	0	Ⴔ	cut_f_stereo_44KHz.wav
4	197	2	1	0	C	2	1	1803	1	Ⴖ	cut_s_stereo_44KHz.wav
4	198	1	1	1	C	1	1	574	1	Ⴔ	cut_s_stereo_44KHz.wav
4	199	4	4	2	I	1	0	876	1	Ⴉ	cut_n_stereo_44KHz.wav
4	200	3	3	2	I	2	0	468	1	Ⴕ	cut_oei_stereo_44KHz.wav
