block	trial	Vstim	Astim	match	C/I	resp	result	RT	fb	V-file	A-file
RL

0	1	2	4	0	C	0	0	0	0	Ⴉ	cut_g_stereo_44KHz.wav
0	2	1	1	1	C	0	0	0	0	Ⴋ	cut_ee_stereo_44KHz.wav
0	3	1	2	0	C	0	0	0	0	Ⴋ	cut_oo_stereo_44KHz.wav
0	4	2	3	1	C	2	0	1140	0	Ⴉ	cut_eeuw_stereo_44KHz.wav
0	5	2	3	1	C	1	1	1523	1	Ⴉ	cut_eeuw_stereo_44KHz.wav
0	6	1	1	1	C	2	0	1564	0	Ⴋ	cut_ee_stereo_44KHz.wav
0	7	2	4	0	C	0	0	0	0	Ⴉ	cut_g_stereo_44KHz.wav
0	8	1	2	0	C	2	1	1519	1	Ⴋ	cut_oo_stereo_44KHz.wav
0	9	2	3	1	C	0	0	0	0	Ⴉ	cut_eeuw_stereo_44KHz.wav
0	10	1	1	1	C	1	1	1896	1	Ⴋ	cut_ee_stereo_44KHz.wav
0	11	1	2	0	C	2	1	1862	1	Ⴋ	cut_oo_stereo_44KHz.wav
0	12	2	4	0	C	1	0	1415	0	Ⴉ	cut_g_stereo_44KHz.wav
0	13	2	3	1	C	2	0	1110	0	Ⴉ	cut_eeuw_stereo_44KHz.wav
0	14	2	4	0	C	2	1	1543	1	Ⴉ	cut_g_stereo_44KHz.wav
0	15	1	2	0	C	1	0	1356	0	Ⴋ	cut_oo_stereo_44KHz.wav
0	16	1	1	1	C	1	1	1556	1	Ⴋ	cut_ee_stereo_44KHz.wav
0	17	1	1	1	C	1	1	1436	1	Ⴋ	cut_ee_stereo_44KHz.wav
0	18	2	3	1	C	2	0	1276	0	Ⴉ	cut_eeuw_stereo_44KHz.wav
0	19	1	2	0	C	2	1	1533	1	Ⴋ	cut_oo_stereo_44KHz.wav
0	20	2	4	0	C	1	0	1334	0	Ⴉ	cut_g_stereo_44KHz.wav
0	21	2	3	1	C	1	1	1289	1	Ⴉ	cut_eeuw_stereo_44KHz.wav
0	22	1	2	0	C	1	0	1862	0	Ⴋ	cut_oo_stereo_44KHz.wav
0	23	1	1	1	C	1	1	1633	1	Ⴋ	cut_ee_stereo_44KHz.wav
0	24	2	4	0	C	2	1	955	1	Ⴉ	cut_g_stereo_44KHz.wav
0	25	2	4	0	C	2	1	1328	1	Ⴉ	cut_g_stereo_44KHz.wav
0	26	1	1	1	C	1	1	1104	1	Ⴋ	cut_ee_stereo_44KHz.wav
0	27	2	3	1	C	1	1	1668	1	Ⴉ	cut_eeuw_stereo_44KHz.wav
0	28	1	2	0	C	1	0	1569	0	Ⴋ	cut_oo_stereo_44KHz.wav
0	29	1	2	0	C	2	1	1672	1	Ⴋ	cut_oo_stereo_44KHz.wav
0	30	2	4	0	C	2	1	1487	1	Ⴉ	cut_g_stereo_44KHz.wav
avg_resp = 1500
1	1	3	4	2	I	0	0	0	0	Ⴡ	cut_f_stereo_44KHz.wav
1	2	1	2	0	C	1	0	1194	0	Ⴂ	cut_n_stereo_44KHz.wav
1	3	2	2	1	C	2	0	1095	0	Ⴃ	cut_n_stereo_44KHz.wav
1	4	4	3	2	I	2	0	1142	0	Ⴟ	cut_r_stereo_44KHz.wav
1	5	1	1	1	C	2	0	1199	0	Ⴂ	cut_j_stereo_44KHz.wav
1	6	4	4	2	I	1	0	902	1	Ⴟ	cut_f_stereo_44KHz.wav
1	7	3	3	2	I	1	0	1111	0	Ⴡ	cut_r_stereo_44KHz.wav
1	8	2	1	0	C	1	0	1001	0	Ⴃ	cut_j_stereo_44KHz.wav
1	9	3	4	2	I	1	0	1093	0	Ⴡ	cut_f_stereo_44KHz.wav
1	10	4	3	2	I	1	0	1385	1	Ⴟ	cut_r_stereo_44KHz.wav
1	11	2	1	0	C	1	0	925	0	Ⴃ	cut_j_stereo_44KHz.wav
1	12	1	2	0	C	2	1	1260	1	Ⴂ	cut_n_stereo_44KHz.wav
1	13	3	3	2	I	2	0	1666	0	Ⴡ	cut_r_stereo_44KHz.wav
1	14	4	4	2	I	2	0	1301	1	Ⴟ	cut_f_stereo_44KHz.wav
1	15	1	1	1	C	2	0	1036	0	Ⴂ	cut_j_stereo_44KHz.wav
1	16	2	2	1	C	2	0	1208	0	Ⴃ	cut_n_stereo_44KHz.wav
1	17	1	2	0	C	1	0	1167	0	Ⴂ	cut_n_stereo_44KHz.wav
1	18	2	1	0	C	2	1	1491	1	Ⴃ	cut_j_stereo_44KHz.wav
1	19	3	4	2	I	1	0	1141	1	Ⴡ	cut_f_stereo_44KHz.wav
1	20	4	3	2	I	2	0	887	1	Ⴟ	cut_r_stereo_44KHz.wav
1	21	2	2	1	C	2	0	1349	0	Ⴃ	cut_n_stereo_44KHz.wav
1	22	1	1	1	C	1	1	1312	1	Ⴂ	cut_j_stereo_44KHz.wav
1	23	3	3	2	I	1	0	1317	0	Ⴡ	cut_r_stereo_44KHz.wav
1	24	4	4	2	I	2	0	1248	1	Ⴟ	cut_f_stereo_44KHz.wav
1	25	1	1	1	C	1	1	1219	1	Ⴂ	cut_j_stereo_44KHz.wav
1	26	4	4	2	I	2	0	1129	1	Ⴟ	cut_f_stereo_44KHz.wav
1	27	3	3	2	I	1	0	1037	1	Ⴡ	cut_r_stereo_44KHz.wav
1	28	2	2	1	C	2	0	757	0	Ⴃ	cut_n_stereo_44KHz.wav
1	29	1	2	0	C	2	1	1054	1	Ⴂ	cut_n_stereo_44KHz.wav
1	30	4	3	2	I	1	0	860	0	Ⴟ	cut_r_stereo_44KHz.wav
1	31	2	1	0	C	2	1	750	1	Ⴃ	cut_j_stereo_44KHz.wav
1	32	3	4	2	I	0	0	0	0	Ⴡ	cut_f_stereo_44KHz.wav
1	33	4	3	2	I	2	0	858	1	Ⴟ	cut_r_stereo_44KHz.wav
1	34	2	1	0	C	2	1	753	1	Ⴃ	cut_j_stereo_44KHz.wav
1	35	3	4	2	I	1	0	612	1	Ⴡ	cut_f_stereo_44KHz.wav
1	36	1	1	1	C	2	0	797	0	Ⴂ	cut_j_stereo_44KHz.wav
1	37	2	2	1	C	1	1	1859	1	Ⴃ	cut_n_stereo_44KHz.wav
1	38	1	2	0	C	2	1	866	1	Ⴂ	cut_n_stereo_44KHz.wav
1	39	4	4	2	I	2	0	1642	1	Ⴟ	cut_f_stereo_44KHz.wav
1	40	3	3	2	I	1	0	1109	1	Ⴡ	cut_r_stereo_44KHz.wav
1	41	1	2	0	C	2	1	900	1	Ⴂ	cut_n_stereo_44KHz.wav
1	42	2	1	0	C	1	0	919	0	Ⴃ	cut_j_stereo_44KHz.wav
1	43	4	4	2	I	2	0	1145	1	Ⴟ	cut_f_stereo_44KHz.wav
1	44	3	3	2	I	1	0	751	1	Ⴡ	cut_r_stereo_44KHz.wav
1	45	2	2	1	C	1	1	1069	1	Ⴃ	cut_n_stereo_44KHz.wav
1	46	1	1	1	C	2	0	922	0	Ⴂ	cut_j_stereo_44KHz.wav
1	47	3	4	2	I	2	0	1535	0	Ⴡ	cut_f_stereo_44KHz.wav
1	48	4	3	2	I	1	0	1665	1	Ⴟ	cut_r_stereo_44KHz.wav
1	49	3	3	2	I	1	0	996	1	Ⴡ	cut_r_stereo_44KHz.wav
1	50	4	4	2	I	2	0	979	1	Ⴟ	cut_f_stereo_44KHz.wav
1	51	1	1	1	C	1	1	1105	1	Ⴂ	cut_j_stereo_44KHz.wav
1	52	2	1	0	C	1	0	1208	0	Ⴃ	cut_j_stereo_44KHz.wav
1	53	4	3	2	I	1	0	1709	1	Ⴟ	cut_r_stereo_44KHz.wav
1	54	1	2	0	C	2	1	938	1	Ⴂ	cut_n_stereo_44KHz.wav
1	55	3	4	2	I	1	0	1027	1	Ⴡ	cut_f_stereo_44KHz.wav
1	56	2	2	1	C	2	0	829	0	Ⴃ	cut_n_stereo_44KHz.wav
1	57	1	2	0	C	2	1	804	1	Ⴂ	cut_n_stereo_44KHz.wav
1	58	2	2	1	C	1	1	1089	1	Ⴃ	cut_n_stereo_44KHz.wav
1	59	4	4	2	I	1	0	1550	0	Ⴟ	cut_f_stereo_44KHz.wav
1	60	3	3	2	I	2	0	1295	1	Ⴡ	cut_r_stereo_44KHz.wav
1	61	4	3	2	I	1	0	1340	1	Ⴟ	cut_r_stereo_44KHz.wav
1	62	3	4	2	I	2	0	1109	1	Ⴡ	cut_f_stereo_44KHz.wav
1	63	1	1	1	C	1	1	1395	1	Ⴂ	cut_j_stereo_44KHz.wav
1	64	2	1	0	C	2	1	1528	1	Ⴃ	cut_j_stereo_44KHz.wav
1	65	1	2	0	C	2	1	911	1	Ⴂ	cut_n_stereo_44KHz.wav
1	66	3	3	2	I	1	0	1346	0	Ⴡ	cut_r_stereo_44KHz.wav
1	67	4	4	2	I	1	0	1454	1	Ⴟ	cut_f_stereo_44KHz.wav
1	68	2	1	0	C	2	1	1682	1	Ⴃ	cut_j_stereo_44KHz.wav
1	69	3	4	2	I	2	0	1828	1	Ⴡ	cut_f_stereo_44KHz.wav
1	70	2	2	1	C	2	0	1201	0	Ⴃ	cut_n_stereo_44KHz.wav
1	71	1	1	1	C	1	1	1547	1	Ⴂ	cut_j_stereo_44KHz.wav
1	72	4	3	2	I	2	0	1329	0	Ⴟ	cut_r_stereo_44KHz.wav
1	73	1	1	1	C	1	1	1752	1	Ⴂ	cut_j_stereo_44KHz.wav
1	74	4	4	2	I	0	0	0	0	Ⴟ	cut_f_stereo_44KHz.wav
1	75	3	4	2	I	2	0	1552	1	Ⴡ	cut_f_stereo_44KHz.wav
1	76	2	2	1	C	2	0	959	0	Ⴃ	cut_n_stereo_44KHz.wav
1	77	4	3	2	I	2	0	709	1	Ⴟ	cut_r_stereo_44KHz.wav
1	78	2	1	0	C	1	0	1139	0	Ⴃ	cut_j_stereo_44KHz.wav
1	79	1	2	0	C	2	1	1719	1	Ⴂ	cut_n_stereo_44KHz.wav
1	80	3	3	2	I	0	0	0	0	Ⴡ	cut_r_stereo_44KHz.wav
1	81	4	3	2	I	2	0	698	1	Ⴟ	cut_r_stereo_44KHz.wav
1	82	2	2	1	C	0	0	0	0	Ⴃ	cut_n_stereo_44KHz.wav
1	83	1	2	0	C	2	1	835	1	Ⴂ	cut_n_stereo_44KHz.wav
1	84	3	4	2	I	0	0	0	0	Ⴡ	cut_f_stereo_44KHz.wav
1	85	1	1	1	C	2	0	781	0	Ⴂ	cut_j_stereo_44KHz.wav
1	86	4	4	2	I	1	0	1349	1	Ⴟ	cut_f_stereo_44KHz.wav
1	87	3	3	2	I	1	0	749	1	Ⴡ	cut_r_stereo_44KHz.wav
1	88	2	1	0	C	0	0	0	0	Ⴃ	cut_j_stereo_44KHz.wav
1	89	4	3	2	I	2	0	1404	1	Ⴟ	cut_r_stereo_44KHz.wav
1	90	3	4	2	I	1	0	1461	1	Ⴡ	cut_f_stereo_44KHz.wav
1	91	2	2	1	C	1	1	1415	1	Ⴃ	cut_n_stereo_44KHz.wav
1	92	1	1	1	C	1	1	999	1	Ⴂ	cut_j_stereo_44KHz.wav
1	93	4	4	2	I	1	0	999	1	Ⴟ	cut_f_stereo_44KHz.wav
1	94	1	2	0	C	2	1	836	1	Ⴂ	cut_n_stereo_44KHz.wav
1	95	2	1	0	C	2	1	900	1	Ⴃ	cut_j_stereo_44KHz.wav
1	96	3	3	2	I	1	0	806	1	Ⴡ	cut_r_stereo_44KHz.wav
1	97	4	4	2	I	2	0	828	1	Ⴟ	cut_f_stereo_44KHz.wav
1	98	1	1	1	C	2	0	925	0	Ⴂ	cut_j_stereo_44KHz.wav
1	99	2	2	1	C	2	0	913	0	Ⴃ	cut_n_stereo_44KHz.wav
1	100	3	4	2	I	1	0	1037	1	Ⴡ	cut_f_stereo_44KHz.wav
1	101	2	1	0	C	2	1	829	1	Ⴃ	cut_j_stereo_44KHz.wav
1	102	4	3	2	I	2	0	1611	1	Ⴟ	cut_r_stereo_44KHz.wav
1	103	1	2	0	C	2	1	812	1	Ⴂ	cut_n_stereo_44KHz.wav
1	104	3	3	2	I	2	0	1212	1	Ⴡ	cut_r_stereo_44KHz.wav
1	105	2	1	0	C	2	1	991	1	Ⴃ	cut_j_stereo_44KHz.wav
1	106	4	3	2	I	2	0	1083	0	Ⴟ	cut_r_stereo_44KHz.wav
1	107	3	3	2	I	2	0	864	0	Ⴡ	cut_r_stereo_44KHz.wav
1	108	1	2	0	C	1	0	970	0	Ⴂ	cut_n_stereo_44KHz.wav
1	109	4	4	2	I	2	0	1596	1	Ⴟ	cut_f_stereo_44KHz.wav
1	110	3	4	2	I	2	0	988	1	Ⴡ	cut_f_stereo_44KHz.wav
1	111	2	2	1	C	2	0	1018	0	Ⴃ	cut_n_stereo_44KHz.wav
1	112	1	1	1	C	2	0	923	0	Ⴂ	cut_j_stereo_44KHz.wav
1	113	4	3	2	I	2	0	871	0	Ⴟ	cut_r_stereo_44KHz.wav
1	114	2	1	0	C	1	0	1348	0	Ⴃ	cut_j_stereo_44KHz.wav
1	115	1	2	0	C	0	0	0	0	Ⴂ	cut_n_stereo_44KHz.wav
1	116	3	3	2	I	2	0	771	1	Ⴡ	cut_r_stereo_44KHz.wav
1	117	1	1	1	C	2	0	935	0	Ⴂ	cut_j_stereo_44KHz.wav
1	118	3	4	2	I	1	0	906	1	Ⴡ	cut_f_stereo_44KHz.wav
1	119	2	2	1	C	2	0	939	0	Ⴃ	cut_n_stereo_44KHz.wav
1	120	4	4	2	I	2	0	780	0	Ⴟ	cut_f_stereo_44KHz.wav
1	121	3	4	2	I	1	0	485	1	Ⴡ	cut_f_stereo_44KHz.wav
1	122	4	3	2	I	2	0	976	1	Ⴟ	cut_r_stereo_44KHz.wav
1	123	1	1	1	C	1	1	1244	1	Ⴂ	cut_j_stereo_44KHz.wav
1	124	2	2	1	C	2	0	1669	0	Ⴃ	cut_n_stereo_44KHz.wav
1	125	1	2	0	C	2	1	1186	1	Ⴂ	cut_n_stereo_44KHz.wav
1	126	4	4	2	I	1	0	1608	1	Ⴟ	cut_f_stereo_44KHz.wav
1	127	2	1	0	C	0	0	0	0	Ⴃ	cut_j_stereo_44KHz.wav
1	128	3	3	2	I	1	0	1024	1	Ⴡ	cut_r_stereo_44KHz.wav
1	129	1	2	0	C	2	1	1129	1	Ⴂ	cut_n_stereo_44KHz.wav
1	130	3	4	2	I	1	0	884	1	Ⴡ	cut_f_stereo_44KHz.wav
1	131	2	2	1	C	2	0	740	0	Ⴃ	cut_n_stereo_44KHz.wav
1	132	4	3	2	I	1	0	832	1	Ⴟ	cut_r_stereo_44KHz.wav
1	133	1	1	1	C	2	0	779	0	Ⴂ	cut_j_stereo_44KHz.wav
1	134	4	4	2	I	1	0	821	1	Ⴟ	cut_f_stereo_44KHz.wav
1	135	3	3	2	I	1	0	732	1	Ⴡ	cut_r_stereo_44KHz.wav
1	136	2	1	0	C	1	0	778	0	Ⴃ	cut_j_stereo_44KHz.wav
1	137	1	1	1	C	1	1	1429	1	Ⴂ	cut_j_stereo_44KHz.wav
1	138	2	2	1	C	2	0	934	0	Ⴃ	cut_n_stereo_44KHz.wav
1	139	3	3	2	I	2	0	820	1	Ⴡ	cut_r_stereo_44KHz.wav
1	140	4	4	2	I	1	0	917	1	Ⴟ	cut_f_stereo_44KHz.wav
1	141	1	2	0	C	2	1	742	1	Ⴂ	cut_n_stereo_44KHz.wav
1	142	3	4	2	I	1	0	860	1	Ⴡ	cut_f_stereo_44KHz.wav
1	143	4	3	2	I	1	0	884	0	Ⴟ	cut_r_stereo_44KHz.wav
1	144	2	1	0	C	1	0	1463	0	Ⴃ	cut_j_stereo_44KHz.wav
1	145	1	1	1	C	1	1	1145	1	Ⴂ	cut_j_stereo_44KHz.wav
1	146	2	1	0	C	0	0	0	0	Ⴃ	cut_j_stereo_44KHz.wav
1	147	4	4	2	I	0	0	0	0	Ⴟ	cut_f_stereo_44KHz.wav
1	148	3	3	2	I	2	0	1384	1	Ⴡ	cut_r_stereo_44KHz.wav
1	149	4	3	2	I	2	0	1088	1	Ⴟ	cut_r_stereo_44KHz.wav
1	150	3	4	2	I	1	0	1145	1	Ⴡ	cut_f_stereo_44KHz.wav
1	151	2	2	1	C	0	0	0	0	Ⴃ	cut_n_stereo_44KHz.wav
1	152	1	2	0	C	2	1	1351	1	Ⴂ	cut_n_stereo_44KHz.wav
1	153	3	4	2	I	0	0	0	0	Ⴡ	cut_f_stereo_44KHz.wav
1	154	2	2	1	C	1	1	810	1	Ⴃ	cut_n_stereo_44KHz.wav
1	155	4	3	2	I	2	0	954	0	Ⴟ	cut_r_stereo_44KHz.wav
1	156	1	1	1	C	1	1	1192	1	Ⴂ	cut_j_stereo_44KHz.wav
1	157	2	1	0	C	1	0	1666	0	Ⴃ	cut_j_stereo_44KHz.wav
1	158	3	3	2	I	1	0	1669	0	Ⴡ	cut_r_stereo_44KHz.wav
1	159	1	2	0	C	2	1	1024	1	Ⴂ	cut_n_stereo_44KHz.wav
1	160	4	4	2	I	2	0	1217	1	Ⴟ	cut_f_stereo_44KHz.wav
1	161	1	2	0	C	2	1	834	1	Ⴂ	cut_n_stereo_44KHz.wav
1	162	2	1	0	C	1	0	837	0	Ⴃ	cut_j_stereo_44KHz.wav
1	163	3	3	2	I	1	0	918	1	Ⴡ	cut_r_stereo_44KHz.wav
1	164	4	4	2	I	2	0	1314	1	Ⴟ	cut_f_stereo_44KHz.wav
1	165	3	4	2	I	1	0	1117	1	Ⴡ	cut_f_stereo_44KHz.wav
1	166	1	1	1	C	0	0	0	0	Ⴂ	cut_j_stereo_44KHz.wav
1	167	2	2	1	C	1	1	932	1	Ⴃ	cut_n_stereo_44KHz.wav
1	168	4	3	2	I	2	0	760	1	Ⴟ	cut_r_stereo_44KHz.wav
1	169	3	4	2	I	1	0	1037	1	Ⴡ	cut_f_stereo_44KHz.wav
1	170	4	3	2	I	1	0	840	1	Ⴟ	cut_r_stereo_44KHz.wav
1	171	2	1	0	C	2	1	1252	1	Ⴃ	cut_j_stereo_44KHz.wav
1	172	1	2	0	C	1	0	964	0	Ⴂ	cut_n_stereo_44KHz.wav
1	173	3	3	2	I	2	0	795	1	Ⴡ	cut_r_stereo_44KHz.wav
1	174	1	1	1	C	1	1	661	1	Ⴂ	cut_j_stereo_44KHz.wav
1	175	2	2	1	C	1	1	1471	1	Ⴃ	cut_n_stereo_44KHz.wav
1	176	4	4	2	I	1	0	1399	1	Ⴟ	cut_f_stereo_44KHz.wav
1	177	3	3	2	I	1	0	837	1	Ⴡ	cut_r_stereo_44KHz.wav
1	178	1	1	1	C	2	0	1115	0	Ⴂ	cut_j_stereo_44KHz.wav
1	179	4	3	2	I	2	0	824	1	Ⴟ	cut_r_stereo_44KHz.wav
1	180	2	2	1	C	1	1	1002	1	Ⴃ	cut_n_stereo_44KHz.wav
1	181	4	4	2	I	1	0	744	1	Ⴟ	cut_f_stereo_44KHz.wav
1	182	2	1	0	C	2	1	1005	1	Ⴃ	cut_j_stereo_44KHz.wav
1	183	1	2	0	C	2	1	1240	1	Ⴂ	cut_n_stereo_44KHz.wav
1	184	3	4	2	I	1	0	715	1	Ⴡ	cut_f_stereo_44KHz.wav
1	185	2	2	1	C	2	0	719	0	Ⴃ	cut_n_stereo_44KHz.wav
1	186	1	2	0	C	2	1	1164	1	Ⴂ	cut_n_stereo_44KHz.wav
1	187	3	4	2	I	2	0	916	1	Ⴡ	cut_f_stereo_44KHz.wav
1	188	4	4	2	I	2	0	973	1	Ⴟ	cut_f_stereo_44KHz.wav
1	189	2	1	0	C	2	1	1231	1	Ⴃ	cut_j_stereo_44KHz.wav
1	190	1	1	1	C	1	1	1540	1	Ⴂ	cut_j_stereo_44KHz.wav
1	191	3	3	2	I	1	0	950	1	Ⴡ	cut_r_stereo_44KHz.wav
1	192	4	3	2	I	1	0	1168	1	Ⴟ	cut_r_stereo_44KHz.wav
1	193	3	4	2	I	2	0	960	1	Ⴡ	cut_f_stereo_44KHz.wav
1	194	4	4	2	I	1	0	1021	0	Ⴟ	cut_f_stereo_44KHz.wav
1	195	1	2	0	C	2	1	965	1	Ⴂ	cut_n_stereo_44KHz.wav
1	196	2	1	0	C	2	1	1717	1	Ⴃ	cut_j_stereo_44KHz.wav
1	197	4	3	2	I	2	0	988	1	Ⴟ	cut_r_stereo_44KHz.wav
1	198	1	1	1	C	2	0	1458	0	Ⴂ	cut_j_stereo_44KHz.wav
1	199	2	2	1	C	0	0	0	0	Ⴃ	cut_n_stereo_44KHz.wav
1	200	3	3	2	I	1	0	1353	1	Ⴡ	cut_r_stereo_44KHz.wav
2	1	3	4	2	I	1	0	1485	1	Ⴌ	cut_a_stereo_44KHz.wav
2	2	2	2	1	C	1	1	1008	1	Ⴉ	cut_k_stereo_44KHz.wav
2	3	1	1	1	C	1	1	746	1	Ⴒ	cut_o_stereo_44KHz.wav
2	4	4	4	2	I	2	0	1229	1	Ⴔ	cut_a_stereo_44KHz.wav
2	5	2	1	0	C	2	1	1061	1	Ⴉ	cut_o_stereo_44KHz.wav
2	6	1	2	0	C	2	1	654	1	Ⴒ	cut_k_stereo_44KHz.wav
2	7	4	3	2	I	2	0	823	1	Ⴔ	cut_u_stereo_44KHz.wav
2	8	3	3	2	I	2	0	834	1	Ⴌ	cut_u_stereo_44KHz.wav
2	9	4	3	2	I	2	0	713	0	Ⴔ	cut_u_stereo_44KHz.wav
2	10	2	2	1	C	1	1	614	1	Ⴉ	cut_k_stereo_44KHz.wav
2	11	3	4	2	I	2	0	1007	1	Ⴌ	cut_a_stereo_44KHz.wav
2	12	1	1	1	C	1	1	1901	1	Ⴒ	cut_o_stereo_44KHz.wav
2	13	4	4	2	I	1	0	687	1	Ⴔ	cut_a_stereo_44KHz.wav
2	14	2	1	0	C	2	1	983	1	Ⴉ	cut_o_stereo_44KHz.wav
2	15	3	3	2	I	1	0	1106	1	Ⴌ	cut_u_stereo_44KHz.wav
2	16	1	2	0	C	2	1	1052	1	Ⴒ	cut_k_stereo_44KHz.wav
2	17	2	2	1	C	2	0	1138	0	Ⴉ	cut_k_stereo_44KHz.wav
2	18	4	3	2	I	1	0	548	1	Ⴔ	cut_u_stereo_44KHz.wav
2	19	1	1	1	C	1	1	1367	1	Ⴒ	cut_o_stereo_44KHz.wav
2	20	3	4	2	I	1	0	1537	1	Ⴌ	cut_a_stereo_44KHz.wav
2	21	1	2	0	C	1	0	1565	0	Ⴒ	cut_k_stereo_44KHz.wav
2	22	3	3	2	I	2	0	1065	1	Ⴌ	cut_u_stereo_44KHz.wav
2	23	4	4	2	I	1	0	1386	1	Ⴔ	cut_a_stereo_44KHz.wav
2	24	2	1	0	C	2	1	863	1	Ⴉ	cut_o_stereo_44KHz.wav
2	25	3	3	2	I	1	0	681	1	Ⴌ	cut_u_stereo_44KHz.wav
2	26	1	1	1	C	2	0	872	0	Ⴒ	cut_o_stereo_44KHz.wav
2	27	2	2	1	C	1	1	800	1	Ⴉ	cut_k_stereo_44KHz.wav
2	28	4	3	2	I	2	0	1314	0	Ⴔ	cut_u_stereo_44KHz.wav
2	29	3	4	2	I	1	0	923	1	Ⴌ	cut_a_stereo_44KHz.wav
2	30	2	1	0	C	2	1	904	1	Ⴉ	cut_o_stereo_44KHz.wav
2	31	4	4	2	I	2	0	922	1	Ⴔ	cut_a_stereo_44KHz.wav
2	32	1	2	0	C	1	0	712	0	Ⴒ	cut_k_stereo_44KHz.wav
2	33	4	4	2	I	2	0	1022	1	Ⴔ	cut_a_stereo_44KHz.wav
2	34	3	3	2	I	2	0	966	1	Ⴌ	cut_u_stereo_44KHz.wav
2	35	2	1	0	C	2	1	987	1	Ⴉ	cut_o_stereo_44KHz.wav
2	36	1	1	1	C	2	0	787	0	Ⴒ	cut_o_stereo_44KHz.wav
2	37	3	4	2	I	2	0	593	1	Ⴌ	cut_a_stereo_44KHz.wav
2	38	4	3	2	I	2	0	632	0	Ⴔ	cut_u_stereo_44KHz.wav
2	39	1	2	0	C	1	0	908	0	Ⴒ	cut_k_stereo_44KHz.wav
2	40	2	2	1	C	2	0	659	0	Ⴉ	cut_k_stereo_44KHz.wav
2	41	4	4	2	I	1	0	1314	1	Ⴔ	cut_a_stereo_44KHz.wav
2	42	1	1	1	C	1	1	1744	1	Ⴒ	cut_o_stereo_44KHz.wav
2	43	2	1	0	C	2	1	608	1	Ⴉ	cut_o_stereo_44KHz.wav
2	44	3	4	2	I	1	0	1662	0	Ⴌ	cut_a_stereo_44KHz.wav
2	45	2	2	1	C	2	0	1594	0	Ⴉ	cut_k_stereo_44KHz.wav
2	46	1	2	0	C	1	0	885	0	Ⴒ	cut_k_stereo_44KHz.wav
2	47	4	3	2	I	1	0	745	1	Ⴔ	cut_u_stereo_44KHz.wav
2	48	3	3	2	I	1	0	22	1	Ⴌ	cut_u_stereo_44KHz.wav
2	49	2	1	0	C	1	0	404	0	Ⴉ	cut_o_stereo_44KHz.wav
2	50	1	1	1	C	1	1	214	1	Ⴒ	cut_o_stereo_44KHz.wav
2	51	3	3	2	I	2	0	589	1	Ⴌ	cut_u_stereo_44KHz.wav
2	52	4	4	2	I	2	0	780	1	Ⴔ	cut_a_stereo_44KHz.wav
2	53	2	2	1	C	2	0	1128	0	Ⴉ	cut_k_stereo_44KHz.wav
2	54	4	3	2	I	1	0	871	1	Ⴔ	cut_u_stereo_44KHz.wav
2	55	1	2	0	C	2	1	738	1	Ⴒ	cut_k_stereo_44KHz.wav
2	56	3	4	2	I	2	0	593	1	Ⴌ	cut_a_stereo_44KHz.wav
2	57	4	4	2	I	1	0	696	0	Ⴔ	cut_a_stereo_44KHz.wav
2	58	1	2	0	C	2	1	782	1	Ⴒ	cut_k_stereo_44KHz.wav
2	59	3	4	2	I	1	0	929	0	Ⴌ	cut_a_stereo_44KHz.wav
2	60	2	1	0	C	0	0	0	0	Ⴉ	cut_o_stereo_44KHz.wav
2	61	1	1	1	C	2	0	1130	0	Ⴒ	cut_o_stereo_44KHz.wav
2	62	3	3	2	I	1	0	1038	1	Ⴌ	cut_u_stereo_44KHz.wav
2	63	2	2	1	C	1	1	912	1	Ⴉ	cut_k_stereo_44KHz.wav
2	64	4	3	2	I	1	0	936	1	Ⴔ	cut_u_stereo_44KHz.wav
2	65	3	3	2	I	1	0	693	1	Ⴌ	cut_u_stereo_44KHz.wav
2	66	4	3	2	I	2	0	906	1	Ⴔ	cut_u_stereo_44KHz.wav
2	67	1	2	0	C	0	0	0	0	Ⴒ	cut_k_stereo_44KHz.wav
2	68	2	1	0	C	1	0	764	0	Ⴉ	cut_o_stereo_44KHz.wav
2	69	1	1	1	C	1	1	1047	1	Ⴒ	cut_o_stereo_44KHz.wav
2	70	2	2	1	C	2	0	707	0	Ⴉ	cut_k_stereo_44KHz.wav
2	71	3	4	2	I	1	0	642	1	Ⴌ	cut_a_stereo_44KHz.wav
2	72	4	4	2	I	2	0	837	1	Ⴔ	cut_a_stereo_44KHz.wav
2	73	3	4	2	I	1	0	1522	0	Ⴌ	cut_a_stereo_44KHz.wav
2	74	4	4	2	I	1	0	760	1	Ⴔ	cut_a_stereo_44KHz.wav
2	75	2	2	1	C	1	1	1515	1	Ⴉ	cut_k_stereo_44KHz.wav
2	76	1	1	1	C	2	0	825	0	Ⴒ	cut_o_stereo_44KHz.wav
2	77	2	1	0	C	0	0	0	0	Ⴉ	cut_o_stereo_44KHz.wav
2	78	3	3	2	I	1	0	1932	1	Ⴌ	cut_u_stereo_44KHz.wav
2	79	4	3	2	I	2	0	774	1	Ⴔ	cut_u_stereo_44KHz.wav
2	80	1	2	0	C	1	0	432	0	Ⴒ	cut_k_stereo_44KHz.wav
2	81	4	4	2	I	1	0	697	1	Ⴔ	cut_a_stereo_44KHz.wav
2	82	1	2	0	C	2	1	1469	1	Ⴒ	cut_k_stereo_44KHz.wav
2	83	2	1	0	C	1	0	1270	0	Ⴉ	cut_o_stereo_44KHz.wav
2	84	3	3	2	I	0	0	0	0	Ⴌ	cut_u_stereo_44KHz.wav
2	85	2	2	1	C	0	0	0	0	Ⴉ	cut_k_stereo_44KHz.wav
2	86	3	4	2	I	2	0	839	1	Ⴌ	cut_a_stereo_44KHz.wav
2	87	4	3	2	I	2	0	612	1	Ⴔ	cut_u_stereo_44KHz.wav
2	88	1	1	1	C	0	0	0	0	Ⴒ	cut_o_stereo_44KHz.wav
2	89	4	3	2	I	0	0	0	0	Ⴔ	cut_u_stereo_44KHz.wav
2	90	3	3	2	I	0	0	0	0	Ⴌ	cut_u_stereo_44KHz.wav
2	91	2	1	0	C	2	1	555	1	Ⴉ	cut_o_stereo_44KHz.wav
2	92	1	2	0	C	0	0	0	0	Ⴒ	cut_k_stereo_44KHz.wav
2	93	3	4	2	I	2	0	848	1	Ⴌ	cut_a_stereo_44KHz.wav
2	94	2	2	1	C	0	0	0	0	Ⴉ	cut_k_stereo_44KHz.wav
2	95	4	4	2	I	0	0	0	0	Ⴔ	cut_a_stereo_44KHz.wav
2	96	1	1	1	C	0	0	0	0	Ⴒ	cut_o_stereo_44KHz.wav
2	97	4	3	2	I	2	0	497	1	Ⴔ	cut_u_stereo_44KHz.wav
2	98	3	3	2	I	0	0	0	0	Ⴌ	cut_u_stereo_44KHz.wav
2	99	1	1	1	C	1	1	534	1	Ⴒ	cut_o_stereo_44KHz.wav
2	100	2	1	0	C	1	0	781	0	Ⴉ	cut_o_stereo_44KHz.wav
2	101	1	2	0	C	2	1	594	1	Ⴒ	cut_k_stereo_44KHz.wav
2	102	4	4	2	I	2	0	656	1	Ⴔ	cut_a_stereo_44KHz.wav
2	103	3	4	2	I	1	0	1243	0	Ⴌ	cut_a_stereo_44KHz.wav
2	104	2	2	1	C	1	1	628	1	Ⴉ	cut_k_stereo_44KHz.wav
2	105	4	4	2	I	1	0	908	0	Ⴔ	cut_a_stereo_44KHz.wav
2	106	3	3	2	I	2	0	1255	0	Ⴌ	cut_u_stereo_44KHz.wav
2	107	2	1	0	C	2	1	629	1	Ⴉ	cut_o_stereo_44KHz.wav
2	108	1	2	0	C	2	1	657	1	Ⴒ	cut_k_stereo_44KHz.wav
2	109	4	3	2	I	2	0	991	1	Ⴔ	cut_u_stereo_44KHz.wav
2	110	1	1	1	C	2	0	1806	0	Ⴒ	cut_o_stereo_44KHz.wav
2	111	3	4	2	I	2	0	1409	1	Ⴌ	cut_a_stereo_44KHz.wav
2	112	2	2	1	C	1	1	604	1	Ⴉ	cut_k_stereo_44KHz.wav
2	113	1	2	0	C	1	0	1172	0	Ⴒ	cut_k_stereo_44KHz.wav
2	114	2	1	0	C	2	1	1719	1	Ⴉ	cut_o_stereo_44KHz.wav
2	115	4	3	2	I	2	0	775	1	Ⴔ	cut_u_stereo_44KHz.wav
2	116	3	4	2	I	2	0	843	0	Ⴌ	cut_a_stereo_44KHz.wav
2	117	1	1	1	C	2	0	667	0	Ⴒ	cut_o_stereo_44KHz.wav
2	118	4	4	2	I	0	0	0	0	Ⴔ	cut_a_stereo_44KHz.wav
2	119	3	3	2	I	2	0	526	1	Ⴌ	cut_u_stereo_44KHz.wav
2	120	2	2	1	C	1	1	1761	1	Ⴉ	cut_k_stereo_44KHz.wav
2	121	4	4	2	I	2	0	500	1	Ⴔ	cut_a_stereo_44KHz.wav
2	122	3	3	2	I	1	0	970	1	Ⴌ	cut_u_stereo_44KHz.wav
2	123	1	2	0	C	2	1	691	1	Ⴒ	cut_k_stereo_44KHz.wav
2	124	2	1	0	C	2	1	673	1	Ⴉ	cut_o_stereo_44KHz.wav
2	125	1	1	1	C	1	1	740	1	Ⴒ	cut_o_stereo_44KHz.wav
2	126	4	3	2	I	1	0	1023	1	Ⴔ	cut_u_stereo_44KHz.wav
2	127	3	4	2	I	2	0	595	0	Ⴌ	cut_a_stereo_44KHz.wav
2	128	2	2	1	C	2	0	842	0	Ⴉ	cut_k_stereo_44KHz.wav
2	129	1	1	1	C	2	0	734	0	Ⴒ	cut_o_stereo_44KHz.wav
2	130	2	2	1	C	1	1	624	1	Ⴉ	cut_k_stereo_44KHz.wav
2	131	3	3	2	I	1	0	1330	1	Ⴌ	cut_u_stereo_44KHz.wav
2	132	4	3	2	I	1	0	594	1	Ⴔ	cut_u_stereo_44KHz.wav
2	133	3	4	2	I	2	0	668	1	Ⴌ	cut_a_stereo_44KHz.wav
2	134	1	2	0	C	1	0	599	0	Ⴒ	cut_k_stereo_44KHz.wav
2	135	4	4	2	I	0	0	0	0	Ⴔ	cut_a_stereo_44KHz.wav
2	136	2	1	0	C	1	0	900	0	Ⴉ	cut_o_stereo_44KHz.wav
2	137	3	4	2	I	2	0	729	1	Ⴌ	cut_a_stereo_44KHz.wav
2	138	4	4	2	I	2	0	1001	0	Ⴔ	cut_a_stereo_44KHz.wav
2	139	1	1	1	C	1	1	838	1	Ⴒ	cut_o_stereo_44KHz.wav
2	140	2	1	0	C	2	1	1315	1	Ⴉ	cut_o_stereo_44KHz.wav
2	141	1	2	0	C	2	1	1244	1	Ⴒ	cut_k_stereo_44KHz.wav
2	142	2	2	1	C	0	0	0	0	Ⴉ	cut_k_stereo_44KHz.wav
2	143	4	3	2	I	0	0	0	0	Ⴔ	cut_u_stereo_44KHz.wav
2	144	3	3	2	I	1	0	743	1	Ⴌ	cut_u_stereo_44KHz.wav
2	145	2	1	0	C	1	0	710	0	Ⴉ	cut_o_stereo_44KHz.wav
2	146	4	4	2	I	2	0	767	1	Ⴔ	cut_a_stereo_44KHz.wav
2	147	1	1	1	C	2	0	527	0	Ⴒ	cut_o_stereo_44KHz.wav
2	148	3	3	2	I	2	0	794	1	Ⴌ	cut_u_stereo_44KHz.wav
2	149	4	3	2	I	2	0	756	1	Ⴔ	cut_u_stereo_44KHz.wav
2	150	3	4	2	I	2	0	1349	1	Ⴌ	cut_a_stereo_44KHz.wav
2	151	1	2	0	C	1	0	660	0	Ⴒ	cut_k_stereo_44KHz.wav
2	152	2	2	1	C	2	0	655	0	Ⴉ	cut_k_stereo_44KHz.wav
2	153	4	3	2	I	2	0	588	1	Ⴔ	cut_u_stereo_44KHz.wav
2	154	1	2	0	C	2	1	1130	1	Ⴒ	cut_k_stereo_44KHz.wav
2	155	3	3	2	I	2	0	717	1	Ⴌ	cut_u_stereo_44KHz.wav
2	156	2	2	1	C	2	0	870	0	Ⴉ	cut_k_stereo_44KHz.wav
2	157	1	1	1	C	1	1	533	1	Ⴒ	cut_o_stereo_44KHz.wav
2	158	2	1	0	C	2	1	631	1	Ⴉ	cut_o_stereo_44KHz.wav
2	159	3	4	2	I	1	0	536	1	Ⴌ	cut_a_stereo_44KHz.wav
2	160	4	4	2	I	2	0	651	1	Ⴔ	cut_a_stereo_44KHz.wav
2	161	3	4	2	I	2	0	811	1	Ⴌ	cut_a_stereo_44KHz.wav
2	162	2	1	0	C	2	1	529	1	Ⴉ	cut_o_stereo_44KHz.wav
2	163	1	2	0	C	2	1	872	1	Ⴒ	cut_k_stereo_44KHz.wav
2	164	4	4	2	I	2	0	865	1	Ⴔ	cut_a_stereo_44KHz.wav
2	165	2	2	1	C	1	1	854	1	Ⴉ	cut_k_stereo_44KHz.wav
2	166	1	1	1	C	2	0	945	0	Ⴒ	cut_o_stereo_44KHz.wav
2	167	4	3	2	I	2	0	823	0	Ⴔ	cut_u_stereo_44KHz.wav
2	168	3	3	2	I	1	0	589	1	Ⴌ	cut_u_stereo_44KHz.wav
2	169	2	2	1	C	1	1	1063	1	Ⴉ	cut_k_stereo_44KHz.wav
2	170	3	3	2	I	2	0	686	0	Ⴌ	cut_u_stereo_44KHz.wav
2	171	1	2	0	C	1	0	1025	0	Ⴒ	cut_k_stereo_44KHz.wav
2	172	4	4	2	I	1	0	599	1	Ⴔ	cut_a_stereo_44KHz.wav
2	173	3	4	2	I	2	0	845	1	Ⴌ	cut_a_stereo_44KHz.wav
2	174	1	1	1	C	2	0	1167	0	Ⴒ	cut_o_stereo_44KHz.wav
2	175	4	3	2	I	1	0	645	1	Ⴔ	cut_u_stereo_44KHz.wav
2	176	2	1	0	C	2	1	559	1	Ⴉ	cut_o_stereo_44KHz.wav
2	177	1	2	0	C	1	0	571	0	Ⴒ	cut_k_stereo_44KHz.wav
2	178	3	3	2	I	2	0	722	0	Ⴌ	cut_u_stereo_44KHz.wav
2	179	2	1	0	C	2	1	1180	1	Ⴉ	cut_o_stereo_44KHz.wav
2	180	4	3	2	I	2	0	768	0	Ⴔ	cut_u_stereo_44KHz.wav
2	181	2	2	1	C	2	0	628	0	Ⴉ	cut_k_stereo_44KHz.wav
2	182	1	1	1	C	0	0	0	0	Ⴒ	cut_o_stereo_44KHz.wav
2	183	3	4	2	I	1	0	648	1	Ⴌ	cut_a_stereo_44KHz.wav
2	184	4	4	2	I	2	0	779	1	Ⴔ	cut_a_stereo_44KHz.wav
2	185	3	3	2	I	1	0	695	1	Ⴌ	cut_u_stereo_44KHz.wav
2	186	4	3	2	I	2	0	373	1	Ⴔ	cut_u_stereo_44KHz.wav
2	187	2	1	0	C	1	0	549	0	Ⴉ	cut_o_stereo_44KHz.wav
2	188	1	2	0	C	2	1	690	1	Ⴒ	cut_k_stereo_44KHz.wav
2	189	4	4	2	I	2	0	860	1	Ⴔ	cut_a_stereo_44KHz.wav
2	190	1	1	1	C	2	0	1109	0	Ⴒ	cut_o_stereo_44KHz.wav
2	191	2	2	1	C	2	0	683	0	Ⴉ	cut_k_stereo_44KHz.wav
2	192	3	4	2	I	1	0	594	0	Ⴌ	cut_a_stereo_44KHz.wav
2	193	1	1	1	C	2	0	579	0	Ⴒ	cut_o_stereo_44KHz.wav
2	194	2	2	1	C	2	0	1647	0	Ⴉ	cut_k_stereo_44KHz.wav
2	195	3	4	2	I	0	0	0	0	Ⴌ	cut_a_stereo_44KHz.wav
2	196	4	3	2	I	1	0	1048	1	Ⴔ	cut_u_stereo_44KHz.wav
2	197	2	1	0	C	2	1	776	1	Ⴉ	cut_o_stereo_44KHz.wav
2	198	1	2	0	C	2	1	634	1	Ⴒ	cut_k_stereo_44KHz.wav
2	199	4	4	2	I	1	0	534	1	Ⴔ	cut_a_stereo_44KHz.wav
2	200	3	3	2	I	0	0	0	0	Ⴌ	cut_u_stereo_44KHz.wav
3	1	3	3	2	I	2	0	1320	1	Ⴁ	cut_s_stereo_44KHz.wav
3	2	2	1	0	C	1	0	822	0	Ⴜ	cut_ei_stereo_44KHz.wav
3	3	1	2	0	C	2	1	595	1	Ⴇ	cut_oei_stereo_44KHz.wav
3	4	4	3	2	I	2	0	647	1	Ⴊ	cut_s_stereo_44KHz.wav
3	5	1	1	1	C	2	0	504	0	Ⴇ	cut_ei_stereo_44KHz.wav
3	6	3	4	2	I	1	0	614	0	Ⴁ	cut_ui_stereo_44KHz.wav
3	7	4	4	2	I	2	0	664	1	Ⴊ	cut_ui_stereo_44KHz.wav
3	8	2	2	1	C	2	0	712	0	Ⴜ	cut_oei_stereo_44KHz.wav
3	9	4	4	2	I	1	0	1827	1	Ⴊ	cut_ui_stereo_44KHz.wav
3	10	3	4	2	I	1	0	600	1	Ⴁ	cut_ui_stereo_44KHz.wav
3	11	2	2	1	C	2	0	688	0	Ⴜ	cut_oei_stereo_44KHz.wav
3	12	1	2	0	C	2	1	709	1	Ⴇ	cut_oei_stereo_44KHz.wav
3	13	2	1	0	C	2	1	446	1	Ⴜ	cut_ei_stereo_44KHz.wav
3	14	4	3	2	I	1	0	854	1	Ⴊ	cut_s_stereo_44KHz.wav
3	15	1	1	1	C	2	0	671	0	Ⴇ	cut_ei_stereo_44KHz.wav
3	16	3	3	2	I	1	0	660	1	Ⴁ	cut_s_stereo_44KHz.wav
3	17	4	3	2	I	1	0	697	1	Ⴊ	cut_s_stereo_44KHz.wav
3	18	1	1	1	C	2	0	735	0	Ⴇ	cut_ei_stereo_44KHz.wav
3	19	3	4	2	I	2	0	703	1	Ⴁ	cut_ui_stereo_44KHz.wav
3	20	2	2	1	C	1	1	1233	1	Ⴜ	cut_oei_stereo_44KHz.wav
3	21	4	4	2	I	1	0	618	1	Ⴊ	cut_ui_stereo_44KHz.wav
3	22	2	1	0	C	2	1	645	1	Ⴜ	cut_ei_stereo_44KHz.wav
3	23	3	3	2	I	2	0	736	1	Ⴁ	cut_s_stereo_44KHz.wav
3	24	1	2	0	C	1	0	831	0	Ⴇ	cut_oei_stereo_44KHz.wav
3	25	3	3	2	I	2	0	676	1	Ⴁ	cut_s_stereo_44KHz.wav
3	26	4	3	2	I	1	0	1063	0	Ⴊ	cut_s_stereo_44KHz.wav
3	27	2	2	1	C	2	0	636	0	Ⴜ	cut_oei_stereo_44KHz.wav
3	28	1	2	0	C	1	0	730	0	Ⴇ	cut_oei_stereo_44KHz.wav
3	29	2	1	0	C	2	1	607	1	Ⴜ	cut_ei_stereo_44KHz.wav
3	30	3	4	2	I	2	0	678	1	Ⴁ	cut_ui_stereo_44KHz.wav
3	31	4	4	2	I	1	0	605	1	Ⴊ	cut_ui_stereo_44KHz.wav
3	32	1	1	1	C	2	0	820	0	Ⴇ	cut_ei_stereo_44KHz.wav
3	33	4	4	2	I	2	0	611	1	Ⴊ	cut_ui_stereo_44KHz.wav
3	34	2	1	0	C	2	1	492	1	Ⴜ	cut_ei_stereo_44KHz.wav
3	35	3	4	2	I	1	0	600	1	Ⴁ	cut_ui_stereo_44KHz.wav
3	36	1	2	0	C	1	0	696	0	Ⴇ	cut_oei_stereo_44KHz.wav
3	37	2	2	1	C	2	0	666	0	Ⴜ	cut_oei_stereo_44KHz.wav
3	38	4	3	2	I	1	0	590	1	Ⴊ	cut_s_stereo_44KHz.wav
3	39	3	3	2	I	1	0	1274	0	Ⴁ	cut_s_stereo_44KHz.wav
3	40	1	1	1	C	2	0	593	0	Ⴇ	cut_ei_stereo_44KHz.wav
3	41	3	4	2	I	1	0	881	1	Ⴁ	cut_ui_stereo_44KHz.wav
3	42	2	1	0	C	2	1	721	1	Ⴜ	cut_ei_stereo_44KHz.wav
3	43	1	2	0	C	2	1	773	1	Ⴇ	cut_oei_stereo_44KHz.wav
3	44	4	4	2	I	1	0	1042	1	Ⴊ	cut_ui_stereo_44KHz.wav
3	45	1	1	1	C	2	0	1015	0	Ⴇ	cut_ei_stereo_44KHz.wav
3	46	2	2	1	C	2	0	583	0	Ⴜ	cut_oei_stereo_44KHz.wav
3	47	3	3	2	I	1	0	780	1	Ⴁ	cut_s_stereo_44KHz.wav
3	48	4	3	2	I	1	0	1829	1	Ⴊ	cut_s_stereo_44KHz.wav
3	49	1	1	1	C	0	0	0	0	Ⴇ	cut_ei_stereo_44KHz.wav
3	50	3	3	2	I	2	0	966	1	Ⴁ	cut_s_stereo_44KHz.wav
3	51	4	4	2	I	1	0	647	1	Ⴊ	cut_ui_stereo_44KHz.wav
3	52	2	1	0	C	1	0	799	0	Ⴜ	cut_ei_stereo_44KHz.wav
3	53	3	4	2	I	2	0	1183	0	Ⴁ	cut_ui_stereo_44KHz.wav
3	54	1	2	0	C	0	0	0	0	Ⴇ	cut_oei_stereo_44KHz.wav
3	55	4	3	2	I	2	0	678	1	Ⴊ	cut_s_stereo_44KHz.wav
3	56	2	2	1	C	1	1	875	1	Ⴜ	cut_oei_stereo_44KHz.wav
3	57	1	1	1	C	2	0	527	0	Ⴇ	cut_ei_stereo_44KHz.wav
3	58	3	4	2	I	2	0	581	1	Ⴁ	cut_ui_stereo_44KHz.wav
3	59	2	2	1	C	1	1	624	1	Ⴜ	cut_oei_stereo_44KHz.wav
3	60	4	3	2	I	2	0	784	1	Ⴊ	cut_s_stereo_44KHz.wav
3	61	1	2	0	C	1	0	660	0	Ⴇ	cut_oei_stereo_44KHz.wav
3	62	4	4	2	I	1	0	734	1	Ⴊ	cut_ui_stereo_44KHz.wav
3	63	2	1	0	C	2	1	596	1	Ⴜ	cut_ei_stereo_44KHz.wav
3	64	3	3	2	I	1	0	741	1	Ⴁ	cut_s_stereo_44KHz.wav
3	65	4	4	2	I	2	0	697	0	Ⴊ	cut_ui_stereo_44KHz.wav
3	66	3	4	2	I	2	0	643	0	Ⴁ	cut_ui_stereo_44KHz.wav
3	67	1	1	1	C	1	1	776	1	Ⴇ	cut_ei_stereo_44KHz.wav
3	68	2	1	0	C	2	1	521	1	Ⴜ	cut_ei_stereo_44KHz.wav
3	69	1	2	0	C	2	1	783	1	Ⴇ	cut_oei_stereo_44KHz.wav
3	70	3	3	2	I	1	0	789	1	Ⴁ	cut_s_stereo_44KHz.wav
3	71	2	2	1	C	1	1	869	1	Ⴜ	cut_oei_stereo_44KHz.wav
3	72	4	3	2	I	2	0	1454	1	Ⴊ	cut_s_stereo_44KHz.wav
3	73	3	3	2	I	1	0	850	1	Ⴁ	cut_s_stereo_44KHz.wav
3	74	1	1	1	C	2	0	806	0	Ⴇ	cut_ei_stereo_44KHz.wav
3	75	4	3	2	I	1	0	1610	0	Ⴊ	cut_s_stereo_44KHz.wav
3	76	2	1	0	C	2	1	588	1	Ⴜ	cut_ei_stereo_44KHz.wav
3	77	3	4	2	I	2	0	672	1	Ⴁ	cut_ui_stereo_44KHz.wav
3	78	2	2	1	C	1	1	674	1	Ⴜ	cut_oei_stereo_44KHz.wav
3	79	4	4	2	I	2	0	717	1	Ⴊ	cut_ui_stereo_44KHz.wav
3	80	1	2	0	C	1	0	532	0	Ⴇ	cut_oei_stereo_44KHz.wav
3	81	2	1	0	C	2	1	727	1	Ⴜ	cut_ei_stereo_44KHz.wav
3	82	4	3	2	I	2	0	744	1	Ⴊ	cut_s_stereo_44KHz.wav
3	83	3	3	2	I	1	0	1450	1	Ⴁ	cut_s_stereo_44KHz.wav
3	84	1	1	1	C	1	1	1226	1	Ⴇ	cut_ei_stereo_44KHz.wav
3	85	4	4	2	I	2	0	1084	1	Ⴊ	cut_ui_stereo_44KHz.wav
3	86	1	2	0	C	2	1	862	1	Ⴇ	cut_oei_stereo_44KHz.wav
3	87	2	2	1	C	1	1	504	1	Ⴜ	cut_oei_stereo_44KHz.wav
3	88	3	4	2	I	1	0	569	1	Ⴁ	cut_ui_stereo_44KHz.wav
3	89	1	1	1	C	1	1	1119	1	Ⴇ	cut_ei_stereo_44KHz.wav
3	90	4	3	2	I	1	0	1469	1	Ⴊ	cut_s_stereo_44KHz.wav
3	91	2	1	0	C	2	1	826	1	Ⴜ	cut_ei_stereo_44KHz.wav
3	92	3	3	2	I	1	0	874	1	Ⴁ	cut_s_stereo_44KHz.wav
3	93	1	2	0	C	1	0	686	0	Ⴇ	cut_oei_stereo_44KHz.wav
3	94	2	2	1	C	2	0	608	0	Ⴜ	cut_oei_stereo_44KHz.wav
3	95	4	4	2	I	1	0	495	1	Ⴊ	cut_ui_stereo_44KHz.wav
3	96	3	4	2	I	0	0	0	0	Ⴁ	cut_ui_stereo_44KHz.wav
3	97	4	4	2	I	0	0	0	0	Ⴊ	cut_ui_stereo_44KHz.wav
3	98	1	1	1	C	1	1	951	1	Ⴇ	cut_ei_stereo_44KHz.wav
3	99	3	3	2	I	1	0	942	1	Ⴁ	cut_s_stereo_44KHz.wav
3	100	2	2	1	C	0	0	0	0	Ⴜ	cut_oei_stereo_44KHz.wav
3	101	1	2	0	C	0	0	0	0	Ⴇ	cut_oei_stereo_44KHz.wav
3	102	3	4	2	I	1	0	911	1	Ⴁ	cut_ui_stereo_44KHz.wav
3	103	2	1	0	C	1	0	639	0	Ⴜ	cut_ei_stereo_44KHz.wav
3	104	4	3	2	I	0	0	0	0	Ⴊ	cut_s_stereo_44KHz.wav
3	105	1	2	0	C	1	0	268	0	Ⴇ	cut_oei_stereo_44KHz.wav
3	106	2	2	1	C	0	0	0	0	Ⴜ	cut_oei_stereo_44KHz.wav
3	107	3	3	2	I	0	0	0	0	Ⴁ	cut_s_stereo_44KHz.wav
3	108	4	4	2	I	0	0	0	0	Ⴊ	cut_ui_stereo_44KHz.wav
3	109	2	1	0	C	2	1	694	1	Ⴜ	cut_ei_stereo_44KHz.wav
3	110	3	4	2	I	2	0	1368	1	Ⴁ	cut_ui_stereo_44KHz.wav
3	111	1	1	1	C	0	0	0	0	Ⴇ	cut_ei_stereo_44KHz.wav
3	112	4	3	2	I	2	0	712	1	Ⴊ	cut_s_stereo_44KHz.wav
3	113	3	4	2	I	1	0	778	1	Ⴁ	cut_ui_stereo_44KHz.wav
3	114	2	1	0	C	2	1	1018	1	Ⴜ	cut_ei_stereo_44KHz.wav
3	115	1	2	0	C	0	0	0	0	Ⴇ	cut_oei_stereo_44KHz.wav
3	116	4	4	2	I	2	0	1831	1	Ⴊ	cut_ui_stereo_44KHz.wav
3	117	1	1	1	C	1	1	568	1	Ⴇ	cut_ei_stereo_44KHz.wav
3	118	2	2	1	C	2	0	796	0	Ⴜ	cut_oei_stereo_44KHz.wav
3	119	3	3	2	I	2	0	751	1	Ⴁ	cut_s_stereo_44KHz.wav
3	120	4	3	2	I	2	0	662	0	Ⴊ	cut_s_stereo_44KHz.wav
3	121	3	4	2	I	1	0	557	1	Ⴁ	cut_ui_stereo_44KHz.wav
3	122	4	3	2	I	1	0	804	1	Ⴊ	cut_s_stereo_44KHz.wav
3	123	2	1	0	C	1	0	826	0	Ⴜ	cut_ei_stereo_44KHz.wav
3	124	1	1	1	C	2	0	505	0	Ⴇ	cut_ei_stereo_44KHz.wav
3	125	3	3	2	I	1	0	843	0	Ⴁ	cut_s_stereo_44KHz.wav
3	126	1	2	0	C	2	1	859	1	Ⴇ	cut_oei_stereo_44KHz.wav
3	127	4	4	2	I	1	0	671	1	Ⴊ	cut_ui_stereo_44KHz.wav
3	128	2	2	1	C	1	1	611	1	Ⴜ	cut_oei_stereo_44KHz.wav
3	129	1	2	0	C	0	0	0	0	Ⴇ	cut_oei_stereo_44KHz.wav
3	130	2	2	1	C	1	1	1294	1	Ⴜ	cut_oei_stereo_44KHz.wav
3	131	4	4	2	I	2	0	771	1	Ⴊ	cut_ui_stereo_44KHz.wav
3	132	3	3	2	I	1	0	1081	0	Ⴁ	cut_s_stereo_44KHz.wav
3	133	4	3	2	I	1	0	838	1	Ⴊ	cut_s_stereo_44KHz.wav
3	134	1	1	1	C	1	1	584	1	Ⴇ	cut_ei_stereo_44KHz.wav
3	135	2	1	0	C	2	1	508	1	Ⴜ	cut_ei_stereo_44KHz.wav
3	136	3	4	2	I	0	0	0	0	Ⴁ	cut_ui_stereo_44KHz.wav
3	137	4	3	2	I	1	0	1041	1	Ⴊ	cut_s_stereo_44KHz.wav
3	138	3	3	2	I	2	0	1074	1	Ⴁ	cut_s_stereo_44KHz.wav
3	139	1	2	0	C	2	1	700	1	Ⴇ	cut_oei_stereo_44KHz.wav
3	140	2	1	0	C	1	0	1527	0	Ⴜ	cut_ei_stereo_44KHz.wav
3	141	4	4	2	I	2	0	1142	0	Ⴊ	cut_ui_stereo_44KHz.wav
3	142	1	1	1	C	2	0	752	0	Ⴇ	cut_ei_stereo_44KHz.wav
3	143	2	2	1	C	0	0	0	0	Ⴜ	cut_oei_stereo_44KHz.wav
3	144	3	4	2	I	0	0	0	0	Ⴁ	cut_ui_stereo_44KHz.wav
3	145	4	4	2	I	1	0	1154	1	Ⴊ	cut_ui_stereo_44KHz.wav
3	146	2	2	1	C	2	0	657	0	Ⴜ	cut_oei_stereo_44KHz.wav
3	147	3	4	2	I	1	0	763	1	Ⴁ	cut_ui_stereo_44KHz.wav
3	148	1	1	1	C	2	0	467	0	Ⴇ	cut_ei_stereo_44KHz.wav
3	149	3	3	2	I	1	0	825	0	Ⴁ	cut_s_stereo_44KHz.wav
3	150	1	2	0	C	2	1	533	1	Ⴇ	cut_oei_stereo_44KHz.wav
3	151	2	1	0	C	1	0	547	0	Ⴜ	cut_ei_stereo_44KHz.wav
3	152	4	3	2	I	2	0	548	1	Ⴊ	cut_s_stereo_44KHz.wav
3	153	3	3	2	I	2	0	424	1	Ⴁ	cut_s_stereo_44KHz.wav
3	154	1	1	1	C	1	1	476	1	Ⴇ	cut_ei_stereo_44KHz.wav
3	155	4	4	2	I	1	0	1242	1	Ⴊ	cut_ui_stereo_44KHz.wav
3	156	2	1	0	C	2	1	513	1	Ⴜ	cut_ei_stereo_44KHz.wav
3	157	1	2	0	C	1	0	763	0	Ⴇ	cut_oei_stereo_44KHz.wav
3	158	2	2	1	C	2	0	545	0	Ⴜ	cut_oei_stereo_44KHz.wav
3	159	4	3	2	I	1	0	708	1	Ⴊ	cut_s_stereo_44KHz.wav
3	160	3	4	2	I	2	0	642	1	Ⴁ	cut_ui_stereo_44KHz.wav
3	161	2	1	0	C	1	0	690	0	Ⴜ	cut_ei_stereo_44KHz.wav
3	162	4	4	2	I	2	0	435	1	Ⴊ	cut_ui_stereo_44KHz.wav
3	163	1	2	0	C	2	1	531	1	Ⴇ	cut_oei_stereo_44KHz.wav
3	164	3	4	2	I	2	0	920	1	Ⴁ	cut_ui_stereo_44KHz.wav
3	165	4	3	2	I	1	0	783	1	Ⴊ	cut_s_stereo_44KHz.wav
3	166	3	3	2	I	2	0	662	1	Ⴁ	cut_s_stereo_44KHz.wav
3	167	1	1	1	C	2	0	765	0	Ⴇ	cut_ei_stereo_44KHz.wav
3	168	2	2	1	C	1	1	612	1	Ⴜ	cut_oei_stereo_44KHz.wav
3	169	4	4	2	I	1	0	994	1	Ⴊ	cut_ui_stereo_44KHz.wav
3	170	1	2	0	C	2	1	675	1	Ⴇ	cut_oei_stereo_44KHz.wav
3	171	2	1	0	C	1	0	608	0	Ⴜ	cut_ei_stereo_44KHz.wav
3	172	3	3	2	I	2	0	590	1	Ⴁ	cut_s_stereo_44KHz.wav
3	173	4	3	2	I	2	0	669	1	Ⴊ	cut_s_stereo_44KHz.wav
3	174	2	2	1	C	1	1	500	1	Ⴜ	cut_oei_stereo_44KHz.wav
3	175	3	4	2	I	1	0	558	1	Ⴁ	cut_ui_stereo_44KHz.wav
3	176	1	1	1	C	2	0	1122	0	Ⴇ	cut_ei_stereo_44KHz.wav
3	177	4	3	2	I	2	0	741	1	Ⴊ	cut_s_stereo_44KHz.wav
3	178	3	3	2	I	2	0	814	1	Ⴁ	cut_s_stereo_44KHz.wav
3	179	1	2	0	C	2	1	711	1	Ⴇ	cut_oei_stereo_44KHz.wav
3	180	2	1	0	C	1	0	528	0	Ⴜ	cut_ei_stereo_44KHz.wav
3	181	3	4	2	I	2	0	1215	1	Ⴁ	cut_ui_stereo_44KHz.wav
3	182	2	2	1	C	2	0	473	0	Ⴜ	cut_oei_stereo_44KHz.wav
3	183	1	1	1	C	1	1	962	1	Ⴇ	cut_ei_stereo_44KHz.wav
3	184	4	4	2	I	1	0	775	0	Ⴊ	cut_ui_stereo_44KHz.wav
3	185	3	4	2	I	2	0	638	1	Ⴁ	cut_ui_stereo_44KHz.wav
3	186	2	1	0	C	2	1	560	1	Ⴜ	cut_ei_stereo_44KHz.wav
3	187	4	3	2	I	2	0	849	1	Ⴊ	cut_s_stereo_44KHz.wav
3	188	1	2	0	C	1	0	928	0	Ⴇ	cut_oei_stereo_44KHz.wav
3	189	2	2	1	C	2	0	592	0	Ⴜ	cut_oei_stereo_44KHz.wav
3	190	1	1	1	C	2	0	777	0	Ⴇ	cut_ei_stereo_44KHz.wav
3	191	3	3	2	I	1	0	531	1	Ⴁ	cut_s_stereo_44KHz.wav
3	192	4	4	2	I	2	0	696	1	Ⴊ	cut_ui_stereo_44KHz.wav
3	193	2	2	1	C	2	0	493	0	Ⴜ	cut_oei_stereo_44KHz.wav
3	194	1	2	0	C	1	0	618	0	Ⴇ	cut_oei_stereo_44KHz.wav
3	195	4	4	2	I	2	0	499	0	Ⴊ	cut_ui_stereo_44KHz.wav
3	196	3	3	2	I	2	0	727	0	Ⴁ	cut_s_stereo_44KHz.wav
3	197	1	1	1	C	0	0	0	0	Ⴇ	cut_ei_stereo_44KHz.wav
3	198	4	3	2	I	2	0	1003	0	Ⴊ	cut_s_stereo_44KHz.wav
3	199	3	4	2	I	1	0	627	0	Ⴁ	cut_ui_stereo_44KHz.wav
3	200	2	1	0	C	2	1	590	1	Ⴜ	cut_ei_stereo_44KHz.wav
4	1	2	2	1	C	2	0	1313	0	Ⴏ	cut_h_stereo_44KHz.wav
4	2	4	3	2	I	1	0	676	0	Ⴕ	cut_w_stereo_44KHz.wav
4	3	3	4	2	I	2	0	549	1	Ⴖ	cut_g_stereo_44KHz.wav
4	4	1	1	1	C	2	0	659	0	Ⴐ	cut_l_stereo_44KHz.wav
4	5	2	1	0	C	1	0	779	0	Ⴏ	cut_l_stereo_44KHz.wav
4	6	4	4	2	I	1	0	1592	0	Ⴕ	cut_g_stereo_44KHz.wav
4	7	1	2	0	C	2	1	755	1	Ⴐ	cut_h_stereo_44KHz.wav
4	8	3	3	2	I	1	0	1322	1	Ⴖ	cut_w_stereo_44KHz.wav
4	9	2	1	0	C	2	1	872	1	Ⴏ	cut_l_stereo_44KHz.wav
4	10	3	3	2	I	1	0	1024	1	Ⴖ	cut_w_stereo_44KHz.wav
4	11	4	4	2	I	2	0	811	1	Ⴕ	cut_g_stereo_44KHz.wav
4	12	1	1	1	C	1	1	946	1	Ⴐ	cut_l_stereo_44KHz.wav
4	13	2	2	1	C	1	1	719	1	Ⴏ	cut_h_stereo_44KHz.wav
4	14	3	4	2	I	2	0	872	1	Ⴖ	cut_g_stereo_44KHz.wav
4	15	4	3	2	I	2	0	888	1	Ⴕ	cut_w_stereo_44KHz.wav
4	16	1	2	0	C	2	1	946	1	Ⴐ	cut_h_stereo_44KHz.wav
4	17	4	4	2	I	1	0	777	1	Ⴕ	cut_g_stereo_44KHz.wav
4	18	3	3	2	I	2	0	780	0	Ⴖ	cut_w_stereo_44KHz.wav
4	19	1	1	1	C	2	0	683	0	Ⴐ	cut_l_stereo_44KHz.wav
4	20	2	1	0	C	1	0	623	0	Ⴏ	cut_l_stereo_44KHz.wav
4	21	1	2	0	C	2	1	466	1	Ⴐ	cut_h_stereo_44KHz.wav
4	22	3	4	2	I	1	0	936	1	Ⴖ	cut_g_stereo_44KHz.wav
4	23	4	3	2	I	1	0	690	1	Ⴕ	cut_w_stereo_44KHz.wav
4	24	2	2	1	C	2	0	794	0	Ⴏ	cut_h_stereo_44KHz.wav
4	25	3	4	2	I	1	0	769	1	Ⴖ	cut_g_stereo_44KHz.wav
4	26	1	1	1	C	2	0	705	0	Ⴐ	cut_l_stereo_44KHz.wav
4	27	2	1	0	C	1	0	915	0	Ⴏ	cut_l_stereo_44KHz.wav
4	28	4	4	2	I	1	0	952	1	Ⴕ	cut_g_stereo_44KHz.wav
4	29	1	2	0	C	2	1	596	1	Ⴐ	cut_h_stereo_44KHz.wav
4	30	4	3	2	I	2	0	1477	1	Ⴕ	cut_w_stereo_44KHz.wav
4	31	3	3	2	I	2	0	983	0	Ⴖ	cut_w_stereo_44KHz.wav
4	32	2	2	1	C	1	1	731	1	Ⴏ	cut_h_stereo_44KHz.wav
4	33	3	3	2	I	2	0	649	1	Ⴖ	cut_w_stereo_44KHz.wav
4	34	4	3	2	I	1	0	1467	0	Ⴕ	cut_w_stereo_44KHz.wav
4	35	2	2	1	C	1	1	848	1	Ⴏ	cut_h_stereo_44KHz.wav
4	36	1	1	1	C	2	0	795	0	Ⴐ	cut_l_stereo_44KHz.wav
4	37	2	1	0	C	2	1	660	1	Ⴏ	cut_l_stereo_44KHz.wav
4	38	4	4	2	I	2	0	867	1	Ⴕ	cut_g_stereo_44KHz.wav
4	39	3	4	2	I	2	0	1861	1	Ⴖ	cut_g_stereo_44KHz.wav
4	40	1	2	0	C	1	0	1441	0	Ⴐ	cut_h_stereo_44KHz.wav
4	41	3	3	2	I	2	0	1104	1	Ⴖ	cut_w_stereo_44KHz.wav
4	42	4	4	2	I	2	0	585	1	Ⴕ	cut_g_stereo_44KHz.wav
4	43	1	2	0	C	1	0	555	0	Ⴐ	cut_h_stereo_44KHz.wav
4	44	2	1	0	C	2	1	774	1	Ⴏ	cut_l_stereo_44KHz.wav
4	45	1	1	1	C	2	0	628	0	Ⴐ	cut_l_stereo_44KHz.wav
4	46	3	4	2	I	2	0	644	1	Ⴖ	cut_g_stereo_44KHz.wav
4	47	2	2	1	C	2	0	559	0	Ⴏ	cut_h_stereo_44KHz.wav
4	48	4	3	2	I	1	0	733	1	Ⴕ	cut_w_stereo_44KHz.wav
4	49	3	4	2	I	2	0	683	1	Ⴖ	cut_g_stereo_44KHz.wav
4	50	2	2	1	C	2	0	663	0	Ⴏ	cut_h_stereo_44KHz.wav
4	51	1	2	0	C	1	0	781	0	Ⴐ	cut_h_stereo_44KHz.wav
4	52	4	4	2	I	1	0	725	1	Ⴕ	cut_g_stereo_44KHz.wav
4	53	2	1	0	C	2	1	1133	1	Ⴏ	cut_l_stereo_44KHz.wav
4	54	4	3	2	I	1	0	774	1	Ⴕ	cut_w_stereo_44KHz.wav
4	55	3	3	2	I	2	0	692	1	Ⴖ	cut_w_stereo_44KHz.wav
4	56	1	1	1	C	1	1	1529	1	Ⴐ	cut_l_stereo_44KHz.wav
4	57	2	2	1	C	2	0	811	0	Ⴏ	cut_h_stereo_44KHz.wav
4	58	1	1	1	C	1	1	738	1	Ⴐ	cut_l_stereo_44KHz.wav
4	59	4	3	2	I	2	0	878	0	Ⴕ	cut_w_stereo_44KHz.wav
4	60	3	3	2	I	1	0	713	0	Ⴖ	cut_w_stereo_44KHz.wav
4	61	1	2	0	C	2	1	738	1	Ⴐ	cut_h_stereo_44KHz.wav
4	62	2	1	0	C	1	0	701	0	Ⴏ	cut_l_stereo_44KHz.wav
4	63	4	4	2	I	2	0	676	1	Ⴕ	cut_g_stereo_44KHz.wav
4	64	3	4	2	I	1	0	761	1	Ⴖ	cut_g_stereo_44KHz.wav
4	65	4	3	2	I	1	0	395	1	Ⴕ	cut_w_stereo_44KHz.wav
4	66	2	1	0	C	0	0	0	0	Ⴏ	cut_l_stereo_44KHz.wav
4	67	1	1	1	C	1	1	819	1	Ⴐ	cut_l_stereo_44KHz.wav
4	68	3	3	2	I	2	0	808	1	Ⴖ	cut_w_stereo_44KHz.wav
4	69	1	2	0	C	1	0	739	0	Ⴐ	cut_h_stereo_44KHz.wav
4	70	3	4	2	I	1	0	690	1	Ⴖ	cut_g_stereo_44KHz.wav
4	71	4	4	2	I	2	0	689	1	Ⴕ	cut_g_stereo_44KHz.wav
4	72	2	2	1	C	1	1	946	1	Ⴏ	cut_h_stereo_44KHz.wav
4	73	4	3	2	I	2	0	996	1	Ⴕ	cut_w_stereo_44KHz.wav
4	74	3	3	2	I	1	0	1524	1	Ⴖ	cut_w_stereo_44KHz.wav
4	75	2	1	0	C	2	1	1656	1	Ⴏ	cut_l_stereo_44KHz.wav
4	76	1	1	1	C	1	1	1362	1	Ⴐ	cut_l_stereo_44KHz.wav
4	77	3	4	2	I	2	0	1173	1	Ⴖ	cut_g_stereo_44KHz.wav
4	78	2	2	1	C	2	0	1370	0	Ⴏ	cut_h_stereo_44KHz.wav
4	79	4	4	2	I	1	0	1323	1	Ⴕ	cut_g_stereo_44KHz.wav
4	80	1	2	0	C	2	1	1071	1	Ⴐ	cut_h_stereo_44KHz.wav
4	81	3	3	2	I	1	0	1246	1	Ⴖ	cut_w_stereo_44KHz.wav
4	82	4	3	2	I	1	0	673	1	Ⴕ	cut_w_stereo_44KHz.wav
4	83	2	2	1	C	1	1	1068	1	Ⴏ	cut_h_stereo_44KHz.wav
4	84	1	1	1	C	2	0	720	0	Ⴐ	cut_l_stereo_44KHz.wav
4	85	2	1	0	C	2	1	1112	1	Ⴏ	cut_l_stereo_44KHz.wav
4	86	4	4	2	I	2	0	701	1	Ⴕ	cut_g_stereo_44KHz.wav
4	87	1	2	0	C	2	1	1130	1	Ⴐ	cut_h_stereo_44KHz.wav
4	88	3	4	2	I	2	0	602	1	Ⴖ	cut_g_stereo_44KHz.wav
4	89	1	2	0	C	1	0	1323	0	Ⴐ	cut_h_stereo_44KHz.wav
4	90	3	3	2	I	1	0	1081	1	Ⴖ	cut_w_stereo_44KHz.wav
4	91	2	2	1	C	1	1	688	1	Ⴏ	cut_h_stereo_44KHz.wav
4	92	4	3	2	I	1	0	733	1	Ⴕ	cut_w_stereo_44KHz.wav
4	93	2	1	0	C	2	1	1874	1	Ⴏ	cut_l_stereo_44KHz.wav
4	94	3	4	2	I	1	0	1798	0	Ⴖ	cut_g_stereo_44KHz.wav
4	95	4	4	2	I	2	0	1009	1	Ⴕ	cut_g_stereo_44KHz.wav
4	96	1	1	1	C	1	1	801	1	Ⴐ	cut_l_stereo_44KHz.wav
4	97	4	4	2	I	2	0	1242	0	Ⴕ	cut_g_stereo_44KHz.wav
4	98	2	2	1	C	2	0	1715	0	Ⴏ	cut_h_stereo_44KHz.wav
4	99	1	1	1	C	0	0	0	0	Ⴐ	cut_l_stereo_44KHz.wav
4	100	3	4	2	I	1	0	1091	1	Ⴖ	cut_g_stereo_44KHz.wav
4	101	1	2	0	C	2	1	708	1	Ⴐ	cut_h_stereo_44KHz.wav
4	102	4	3	2	I	1	0	513	1	Ⴕ	cut_w_stereo_44KHz.wav
4	103	3	3	2	I	1	0	739	1	Ⴖ	cut_w_stereo_44KHz.wav
4	104	2	1	0	C	2	1	593	1	Ⴏ	cut_l_stereo_44KHz.wav
4	105	1	2	0	C	1	0	1581	0	Ⴐ	cut_h_stereo_44KHz.wav
4	106	3	4	2	I	2	0	735	1	Ⴖ	cut_g_stereo_44KHz.wav
4	107	2	1	0	C	1	0	646	0	Ⴏ	cut_l_stereo_44KHz.wav
4	108	4	3	2	I	2	0	617	1	Ⴕ	cut_w_stereo_44KHz.wav
4	109	1	1	1	C	2	0	732	0	Ⴐ	cut_l_stereo_44KHz.wav
4	110	2	2	1	C	2	0	593	0	Ⴏ	cut_h_stereo_44KHz.wav
4	111	3	3	2	I	1	0	968	1	Ⴖ	cut_w_stereo_44KHz.wav
4	112	4	4	2	I	0	0	0	0	Ⴕ	cut_g_stereo_44KHz.wav
4	113	2	2	1	C	1	1	668	1	Ⴏ	cut_h_stereo_44KHz.wav
4	114	1	1	1	C	1	1	1275	1	Ⴐ	cut_l_stereo_44KHz.wav
4	115	3	3	2	I	2	0	786	1	Ⴖ	cut_w_stereo_44KHz.wav
4	116	4	4	2	I	2	0	672	1	Ⴕ	cut_g_stereo_44KHz.wav
4	117	2	1	0	C	1	0	683	0	Ⴏ	cut_l_stereo_44KHz.wav
4	118	3	4	2	I	2	0	822	1	Ⴖ	cut_g_stereo_44KHz.wav
4	119	4	3	2	I	1	0	1433	1	Ⴕ	cut_w_stereo_44KHz.wav
4	120	1	2	0	C	2	1	191	1	Ⴐ	cut_h_stereo_44KHz.wav
4	121	4	3	2	I	2	0	757	1	Ⴕ	cut_w_stereo_44KHz.wav
4	122	3	4	2	I	1	0	791	1	Ⴖ	cut_g_stereo_44KHz.wav
4	123	1	2	0	C	2	1	662	1	Ⴐ	cut_h_stereo_44KHz.wav
4	124	2	2	1	C	1	1	762	1	Ⴏ	cut_h_stereo_44KHz.wav
4	125	4	4	2	I	1	0	796	1	Ⴕ	cut_g_stereo_44KHz.wav
4	126	1	1	1	C	2	0	609	0	Ⴐ	cut_l_stereo_44KHz.wav
4	127	3	3	2	I	2	0	565	0	Ⴖ	cut_w_stereo_44KHz.wav
4	128	2	1	0	C	2	1	807	1	Ⴏ	cut_l_stereo_44KHz.wav
4	129	1	2	0	C	0	0	0	0	Ⴐ	cut_h_stereo_44KHz.wav
4	130	3	3	2	I	0	0	0	0	Ⴖ	cut_w_stereo_44KHz.wav
4	131	2	2	1	C	2	0	724	0	Ⴏ	cut_h_stereo_44KHz.wav
4	132	4	3	2	I	2	0	626	1	Ⴕ	cut_w_stereo_44KHz.wav
4	133	1	1	1	C	1	1	713	1	Ⴐ	cut_l_stereo_44KHz.wav
4	134	2	1	0	C	1	0	633	0	Ⴏ	cut_l_stereo_44KHz.wav
4	135	4	4	2	I	2	0	808	1	Ⴕ	cut_g_stereo_44KHz.wav
4	136	3	4	2	I	1	0	1353	1	Ⴖ	cut_g_stereo_44KHz.wav
4	137	1	2	0	C	2	1	776	1	Ⴐ	cut_h_stereo_44KHz.wav
4	138	4	3	2	I	2	0	713	1	Ⴕ	cut_w_stereo_44KHz.wav
4	139	3	3	2	I	1	0	1425	1	Ⴖ	cut_w_stereo_44KHz.wav
4	140	2	2	1	C	1	1	1174	1	Ⴏ	cut_h_stereo_44KHz.wav
4	141	3	4	2	I	2	0	697	1	Ⴖ	cut_g_stereo_44KHz.wav
4	142	4	4	2	I	1	0	1210	1	Ⴕ	cut_g_stereo_44KHz.wav
4	143	2	1	0	C	1	0	578	0	Ⴏ	cut_l_stereo_44KHz.wav
4	144	1	1	1	C	2	0	645	0	Ⴐ	cut_l_stereo_44KHz.wav
4	145	2	2	1	C	2	0	691	0	Ⴏ	cut_h_stereo_44KHz.wav
4	146	1	2	0	C	2	1	1025	1	Ⴐ	cut_h_stereo_44KHz.wav
4	147	4	4	2	I	2	0	795	1	Ⴕ	cut_g_stereo_44KHz.wav
4	148	3	3	2	I	2	0	714	1	Ⴖ	cut_w_stereo_44KHz.wav
4	149	1	1	1	C	2	0	643	0	Ⴐ	cut_l_stereo_44KHz.wav
4	150	2	1	0	C	1	0	842	0	Ⴏ	cut_l_stereo_44KHz.wav
4	151	4	3	2	I	2	0	627	1	Ⴕ	cut_w_stereo_44KHz.wav
4	152	3	4	2	I	2	0	823	1	Ⴖ	cut_g_stereo_44KHz.wav
4	153	1	2	0	C	2	1	323	1	Ⴐ	cut_h_stereo_44KHz.wav
4	154	4	3	2	I	2	0	665	0	Ⴕ	cut_w_stereo_44KHz.wav
4	155	3	4	2	I	1	0	1097	1	Ⴖ	cut_g_stereo_44KHz.wav
4	156	2	2	1	C	2	0	195	0	Ⴏ	cut_h_stereo_44KHz.wav
4	157	1	1	1	C	1	1	318	1	Ⴐ	cut_l_stereo_44KHz.wav
4	158	4	4	2	I	1	0	493	0	Ⴕ	cut_g_stereo_44KHz.wav
4	159	3	3	2	I	0	0	0	0	Ⴖ	cut_w_stereo_44KHz.wav
4	160	2	1	0	C	1	0	335	0	Ⴏ	cut_l_stereo_44KHz.wav
4	161	4	4	2	I	1	0	788	0	Ⴕ	cut_g_stereo_44KHz.wav
4	162	1	1	1	C	2	0	693	0	Ⴐ	cut_l_stereo_44KHz.wav
4	163	3	3	2	I	1	0	771	0	Ⴖ	cut_w_stereo_44KHz.wav
4	164	2	1	0	C	2	1	962	1	Ⴏ	cut_l_stereo_44KHz.wav
4	165	3	4	2	I	1	0	574	1	Ⴖ	cut_g_stereo_44KHz.wav
4	166	4	3	2	I	2	0	1214	1	Ⴕ	cut_w_stereo_44KHz.wav
4	167	1	2	0	C	2	1	911	1	Ⴐ	cut_h_stereo_44KHz.wav
4	168	2	2	1	C	1	1	732	1	Ⴏ	cut_h_stereo_44KHz.wav
4	169	3	4	2	I	1	0	646	1	Ⴖ	cut_g_stereo_44KHz.wav
4	170	2	2	1	C	1	1	941	1	Ⴏ	cut_h_stereo_44KHz.wav
4	171	4	4	2	I	2	0	812	1	Ⴕ	cut_g_stereo_44KHz.wav
4	172	1	2	0	C	2	1	676	1	Ⴐ	cut_h_stereo_44KHz.wav
4	173	4	3	2	I	1	0	1153	1	Ⴕ	cut_w_stereo_44KHz.wav
4	174	3	3	2	I	2	0	729	1	Ⴖ	cut_w_stereo_44KHz.wav
4	175	2	1	0	C	2	1	1303	1	Ⴏ	cut_l_stereo_44KHz.wav
4	176	1	1	1	C	1	1	705	1	Ⴐ	cut_l_stereo_44KHz.wav
4	177	2	2	1	C	1	1	662	1	Ⴏ	cut_h_stereo_44KHz.wav
4	178	4	3	2	I	2	0	673	0	Ⴕ	cut_w_stereo_44KHz.wav
4	179	3	3	2	I	1	0	574	0	Ⴖ	cut_w_stereo_44KHz.wav
4	180	1	1	1	C	1	1	737	1	Ⴐ	cut_l_stereo_44KHz.wav
4	181	3	4	2	I	2	0	624	0	Ⴖ	cut_g_stereo_44KHz.wav
4	182	1	2	0	C	2	1	464	1	Ⴐ	cut_h_stereo_44KHz.wav
4	183	2	1	0	C	1	0	547	0	Ⴏ	cut_l_stereo_44KHz.wav
4	184	4	4	2	I	2	0	556	1	Ⴕ	cut_g_stereo_44KHz.wav
4	185	1	1	1	C	2	0	699	0	Ⴐ	cut_l_stereo_44KHz.wav
4	186	2	2	1	C	1	1	93	1	Ⴏ	cut_h_stereo_44KHz.wav
4	187	3	3	2	I	1	0	739	0	Ⴖ	cut_w_stereo_44KHz.wav
4	188	4	3	2	I	2	0	730	1	Ⴕ	cut_w_stereo_44KHz.wav
4	189	1	2	0	C	1	0	736	0	Ⴐ	cut_h_stereo_44KHz.wav
4	190	4	4	2	I	2	0	593	1	Ⴕ	cut_g_stereo_44KHz.wav
4	191	3	4	2	I	1	0	601	1	Ⴖ	cut_g_stereo_44KHz.wav
4	192	2	1	0	C	2	1	260	1	Ⴏ	cut_l_stereo_44KHz.wav
4	193	1	1	1	C	1	1	524	1	Ⴐ	cut_l_stereo_44KHz.wav
4	194	4	3	2	I	2	0	604	1	Ⴕ	cut_w_stereo_44KHz.wav
4	195	3	3	2	I	1	0	527	1	Ⴖ	cut_w_stereo_44KHz.wav
4	196	2	2	1	C	2	0	444	0	Ⴏ	cut_h_stereo_44KHz.wav
4	197	1	2	0	C	1	0	536	0	Ⴐ	cut_h_stereo_44KHz.wav
4	198	3	4	2	I	2	0	673	1	Ⴖ	cut_g_stereo_44KHz.wav
4	199	4	4	2	I	1	0	496	1	Ⴕ	cut_g_stereo_44KHz.wav
4	200	2	1	0	C	1	0	573	0	Ⴏ	cut_l_stereo_44KHz.wav
