block	trial	Vstim	Astim	match	C/I	resp	result	RT	fb	V-file	A-file
RL

0	1	1	2	0	C	0	0	0	0	Ⴋ	cut_ee_stereo_44KHz.wav
0	2	1	1	1	C	0	0	0	0	Ⴋ	cut_g_stereo_44KHz.wav
0	3	2	4	0	C	0	0	0	0	Ⴞ	cut_eeuw_stereo_44KHz.wav
0	4	2	3	1	C	0	0	0	0	Ⴞ	cut_oo_stereo_44KHz.wav
0	5	1	2	0	C	0	0	0	0	Ⴋ	cut_ee_stereo_44KHz.wav
0	6	1	1	1	C	0	0	0	0	Ⴋ	cut_g_stereo_44KHz.wav
0	7	2	3	1	C	0	0	0	0	Ⴞ	cut_oo_stereo_44KHz.wav
0	8	2	4	0	C	2	1	1593	1	Ⴞ	cut_eeuw_stereo_44KHz.wav
0	9	1	1	1	C	2	0	650	0	Ⴋ	cut_g_stereo_44KHz.wav
0	10	2	3	1	C	1	1	821	1	Ⴞ	cut_oo_stereo_44KHz.wav
0	11	2	4	0	C	1	0	1220	0	Ⴞ	cut_eeuw_stereo_44KHz.wav
0	12	1	2	0	C	1	0	1244	0	Ⴋ	cut_ee_stereo_44KHz.wav
0	13	2	3	1	C	1	1	694	1	Ⴞ	cut_oo_stereo_44KHz.wav
0	14	2	4	0	C	2	1	652	1	Ⴞ	cut_eeuw_stereo_44KHz.wav
0	15	1	2	0	C	1	0	769	0	Ⴋ	cut_ee_stereo_44KHz.wav
0	16	1	1	1	C	2	0	652	0	Ⴋ	cut_g_stereo_44KHz.wav
0	17	2	4	0	C	1	0	717	0	Ⴞ	cut_eeuw_stereo_44KHz.wav
0	18	1	1	1	C	2	0	1700	0	Ⴋ	cut_g_stereo_44KHz.wav
0	19	1	2	0	C	2	1	910	1	Ⴋ	cut_ee_stereo_44KHz.wav
0	20	2	3	1	C	2	0	798	0	Ⴞ	cut_oo_stereo_44KHz.wav
0	21	1	2	0	C	2	1	585	1	Ⴋ	cut_ee_stereo_44KHz.wav
0	22	2	3	1	C	1	1	593	1	Ⴞ	cut_oo_stereo_44KHz.wav
0	23	2	4	0	C	2	1	618	1	Ⴞ	cut_eeuw_stereo_44KHz.wav
0	24	1	1	1	C	0	0	0	0	Ⴋ	cut_g_stereo_44KHz.wav
0	25	1	1	1	C	2	0	378	0	Ⴋ	cut_g_stereo_44KHz.wav
0	26	2	3	1	C	2	0	852	0	Ⴞ	cut_oo_stereo_44KHz.wav
0	27	1	2	0	C	2	1	818	1	Ⴋ	cut_ee_stereo_44KHz.wav
0	28	2	4	0	C	1	0	775	0	Ⴞ	cut_eeuw_stereo_44KHz.wav
0	29	2	4	0	C	2	1	1026	1	Ⴞ	cut_eeuw_stereo_44KHz.wav
0	30	1	1	1	C	1	1	540	1	Ⴋ	cut_g_stereo_44KHz.wav
avg_resp = 805
1	1	3	3	2	I	2	0	1040	1	Ⴂ	cut_j_stereo_44KHz.wav
1	2	1	2	0	C	2	1	685	1	Ⴜ	cut_ei_stereo_44KHz.wav
1	3	4	4	2	I	2	0	800	1	Ⴟ	cut_oei_stereo_44KHz.wav
1	4	2	1	0	C	2	1	553	1	Ⴇ	cut_n_stereo_44KHz.wav
1	5	3	4	2	I	1	0	802	1	Ⴂ	cut_oei_stereo_44KHz.wav
1	6	4	3	2	I	2	0	469	0	Ⴟ	cut_j_stereo_44KHz.wav
1	7	2	2	1	C	1	1	446	1	Ⴇ	cut_ei_stereo_44KHz.wav
1	8	1	1	1	C	2	0	764	0	Ⴜ	cut_n_stereo_44KHz.wav
1	9	4	3	2	I	1	0	360	1	Ⴟ	cut_j_stereo_44KHz.wav
1	10	3	3	2	I	1	0	592	1	Ⴂ	cut_j_stereo_44KHz.wav
1	11	1	1	1	C	2	0	635	0	Ⴜ	cut_n_stereo_44KHz.wav
1	12	2	2	1	C	1	1	981	1	Ⴇ	cut_ei_stereo_44KHz.wav
1	13	4	4	2	I	2	0	576	1	Ⴟ	cut_oei_stereo_44KHz.wav
1	14	3	4	2	I	1	0	517	1	Ⴂ	cut_oei_stereo_44KHz.wav
1	15	2	1	0	C	2	1	471	1	Ⴇ	cut_n_stereo_44KHz.wav
1	16	1	2	0	C	1	0	686	0	Ⴜ	cut_ei_stereo_44KHz.wav
1	17	2	2	1	C	2	0	323	0	Ⴇ	cut_ei_stereo_44KHz.wav
1	18	3	3	2	I	1	0	712	1	Ⴂ	cut_j_stereo_44KHz.wav
1	19	1	2	0	C	2	1	410	1	Ⴜ	cut_ei_stereo_44KHz.wav
1	20	4	4	2	I	1	0	549	1	Ⴟ	cut_oei_stereo_44KHz.wav
1	21	2	1	0	C	2	1	538	1	Ⴇ	cut_n_stereo_44KHz.wav
1	22	1	1	1	C	1	1	359	1	Ⴜ	cut_n_stereo_44KHz.wav
1	23	3	4	2	I	2	0	440	1	Ⴂ	cut_oei_stereo_44KHz.wav
1	24	4	3	2	I	1	0	904	0	Ⴟ	cut_j_stereo_44KHz.wav
1	25	2	2	1	C	2	0	535	0	Ⴇ	cut_ei_stereo_44KHz.wav
1	26	3	4	2	I	2	0	570	1	Ⴂ	cut_oei_stereo_44KHz.wav
1	27	1	2	0	C	1	0	654	0	Ⴜ	cut_ei_stereo_44KHz.wav
1	28	4	3	2	I	2	0	762	1	Ⴟ	cut_j_stereo_44KHz.wav
1	29	2	1	0	C	1	0	868	0	Ⴇ	cut_n_stereo_44KHz.wav
1	30	1	1	1	C	1	1	646	1	Ⴜ	cut_n_stereo_44KHz.wav
1	31	3	3	2	I	2	0	795	1	Ⴂ	cut_j_stereo_44KHz.wav
1	32	4	4	2	I	1	0	542	0	Ⴟ	cut_oei_stereo_44KHz.wav
1	33	3	3	2	I	2	0	585	1	Ⴂ	cut_j_stereo_44KHz.wav
1	34	2	2	1	C	1	1	942	1	Ⴇ	cut_ei_stereo_44KHz.wav
1	35	1	2	0	C	2	1	364	1	Ⴜ	cut_ei_stereo_44KHz.wav
1	36	4	4	2	I	1	0	913	1	Ⴟ	cut_oei_stereo_44KHz.wav
1	37	2	1	0	C	2	1	559	1	Ⴇ	cut_n_stereo_44KHz.wav
1	38	1	1	1	C	1	1	559	1	Ⴜ	cut_n_stereo_44KHz.wav
1	39	3	4	2	I	2	0	470	1	Ⴂ	cut_oei_stereo_44KHz.wav
1	40	4	3	2	I	1	0	399	1	Ⴟ	cut_j_stereo_44KHz.wav
1	41	1	2	0	C	1	0	493	0	Ⴜ	cut_ei_stereo_44KHz.wav
1	42	4	3	2	I	2	0	334	0	Ⴟ	cut_j_stereo_44KHz.wav
1	43	3	4	2	I	1	0	440	0	Ⴂ	cut_oei_stereo_44KHz.wav
1	44	2	1	0	C	2	1	421	1	Ⴇ	cut_n_stereo_44KHz.wav
1	45	1	1	1	C	2	0	509	0	Ⴜ	cut_n_stereo_44KHz.wav
1	46	4	4	2	I	1	0	427	1	Ⴟ	cut_oei_stereo_44KHz.wav
1	47	2	2	1	C	2	0	283	0	Ⴇ	cut_ei_stereo_44KHz.wav
1	48	3	3	2	I	2	0	849	1	Ⴂ	cut_j_stereo_44KHz.wav
1	49	4	4	2	I	1	0	517	1	Ⴟ	cut_oei_stereo_44KHz.wav
1	50	3	4	2	I	2	0	548	1	Ⴂ	cut_oei_stereo_44KHz.wav
1	51	1	2	0	C	1	0	564	0	Ⴜ	cut_ei_stereo_44KHz.wav
1	52	2	2	1	C	2	0	543	0	Ⴇ	cut_ei_stereo_44KHz.wav
1	53	3	3	2	I	1	0	734	1	Ⴂ	cut_j_stereo_44KHz.wav
1	54	2	1	0	C	2	1	825	1	Ⴇ	cut_n_stereo_44KHz.wav
1	55	4	3	2	I	2	0	724	1	Ⴟ	cut_j_stereo_44KHz.wav
1	56	1	1	1	C	2	0	643	0	Ⴜ	cut_n_stereo_44KHz.wav
1	57	4	3	2	I	1	0	592	1	Ⴟ	cut_j_stereo_44KHz.wav
1	58	3	4	2	I	2	0	364	0	Ⴂ	cut_oei_stereo_44KHz.wav
1	59	2	2	1	C	1	1	353	1	Ⴇ	cut_ei_stereo_44KHz.wav
1	60	1	1	1	C	2	0	450	0	Ⴜ	cut_n_stereo_44KHz.wav
1	61	4	4	2	I	1	0	902	1	Ⴟ	cut_oei_stereo_44KHz.wav
1	62	3	3	2	I	1	0	587	1	Ⴂ	cut_j_stereo_44KHz.wav
1	63	2	1	0	C	1	0	850	0	Ⴇ	cut_n_stereo_44KHz.wav
1	64	1	2	0	C	2	1	470	1	Ⴜ	cut_ei_stereo_44KHz.wav
1	65	2	1	0	C	2	1	445	1	Ⴇ	cut_n_stereo_44KHz.wav
1	66	1	2	0	C	1	0	431	0	Ⴜ	cut_ei_stereo_44KHz.wav
1	67	3	3	2	I	2	0	366	1	Ⴂ	cut_j_stereo_44KHz.wav
1	68	4	4	2	I	1	0	313	0	Ⴟ	cut_oei_stereo_44KHz.wav
1	69	3	4	2	I	2	0	473	0	Ⴂ	cut_oei_stereo_44KHz.wav
1	70	2	2	1	C	1	1	665	1	Ⴇ	cut_ei_stereo_44KHz.wav
1	71	4	3	2	I	2	0	445	1	Ⴟ	cut_j_stereo_44KHz.wav
1	72	1	1	1	C	1	1	807	1	Ⴜ	cut_n_stereo_44KHz.wav
1	73	3	3	2	I	2	0	517	0	Ⴂ	cut_j_stereo_44KHz.wav
1	74	1	2	0	C	1	0	133	0	Ⴜ	cut_ei_stereo_44KHz.wav
1	75	2	1	0	C	2	1	553	1	Ⴇ	cut_n_stereo_44KHz.wav
1	76	4	3	2	I	2	0	769	1	Ⴟ	cut_j_stereo_44KHz.wav
1	77	1	1	1	C	2	0	615	0	Ⴜ	cut_n_stereo_44KHz.wav
1	78	3	4	2	I	1	0	702	1	Ⴂ	cut_oei_stereo_44KHz.wav
1	79	4	4	2	I	2	0	1295	1	Ⴟ	cut_oei_stereo_44KHz.wav
1	80	2	2	1	C	1	1	378	1	Ⴇ	cut_ei_stereo_44KHz.wav
1	81	1	2	0	C	2	1	325	1	Ⴜ	cut_ei_stereo_44KHz.wav
1	82	3	3	2	I	1	0	392	1	Ⴂ	cut_j_stereo_44KHz.wav
1	83	4	4	2	I	2	0	411	1	Ⴟ	cut_oei_stereo_44KHz.wav
1	84	2	2	1	C	1	1	380	1	Ⴇ	cut_ei_stereo_44KHz.wav
1	85	3	4	2	I	2	0	606	1	Ⴂ	cut_oei_stereo_44KHz.wav
1	86	4	3	2	I	1	0	548	1	Ⴟ	cut_j_stereo_44KHz.wav
1	87	1	1	1	C	2	0	334	0	Ⴜ	cut_n_stereo_44KHz.wav
1	88	2	1	0	C	2	1	452	1	Ⴇ	cut_n_stereo_44KHz.wav
1	89	1	2	0	C	2	1	376	1	Ⴜ	cut_ei_stereo_44KHz.wav
1	90	4	4	2	I	2	0	142	0	Ⴟ	cut_oei_stereo_44KHz.wav
1	91	2	1	0	C	1	0	1945	0	Ⴇ	cut_n_stereo_44KHz.wav
1	92	3	3	2	I	2	0	644	1	Ⴂ	cut_j_stereo_44KHz.wav
1	93	2	2	1	C	2	0	679	0	Ⴇ	cut_ei_stereo_44KHz.wav
1	94	3	4	2	I	1	0	626	1	Ⴂ	cut_oei_stereo_44KHz.wav
1	95	4	3	2	I	1	0	498	1	Ⴟ	cut_j_stereo_44KHz.wav
1	96	1	1	1	C	2	0	653	0	Ⴜ	cut_n_stereo_44KHz.wav
1	97	4	4	2	I	1	0	417	1	Ⴟ	cut_oei_stereo_44KHz.wav
1	98	1	1	1	C	2	0	640	0	Ⴜ	cut_n_stereo_44KHz.wav
1	99	2	1	0	C	2	1	550	1	Ⴇ	cut_n_stereo_44KHz.wav
1	100	3	3	2	I	1	0	585	1	Ⴂ	cut_j_stereo_44KHz.wav
1	101	4	3	2	I	2	0	306	1	Ⴟ	cut_j_stereo_44KHz.wav
1	102	1	2	0	C	1	0	374	0	Ⴜ	cut_ei_stereo_44KHz.wav
1	103	3	4	2	I	2	0	295	1	Ⴂ	cut_oei_stereo_44KHz.wav
1	104	2	2	1	C	2	0	314	0	Ⴇ	cut_ei_stereo_44KHz.wav
1	105	1	1	1	C	1	1	666	1	Ⴜ	cut_n_stereo_44KHz.wav
1	106	3	4	2	I	2	0	1429	1	Ⴂ	cut_oei_stereo_44KHz.wav
1	107	2	2	1	C	2	0	972	0	Ⴇ	cut_ei_stereo_44KHz.wav
1	108	4	4	2	I	0	0	0	0	Ⴟ	cut_oei_stereo_44KHz.wav
1	109	2	1	0	C	2	1	581	1	Ⴇ	cut_n_stereo_44KHz.wav
1	110	4	3	2	I	2	0	851	0	Ⴟ	cut_j_stereo_44KHz.wav
1	111	3	3	2	I	1	0	719	0	Ⴂ	cut_j_stereo_44KHz.wav
1	112	1	2	0	C	2	1	554	1	Ⴜ	cut_ei_stereo_44KHz.wav
1	113	3	3	2	I	2	0	473	1	Ⴂ	cut_j_stereo_44KHz.wav
1	114	4	3	2	I	2	0	633	0	Ⴟ	cut_j_stereo_44KHz.wav
1	115	2	1	0	C	2	1	872	1	Ⴇ	cut_n_stereo_44KHz.wav
1	116	1	2	0	C	1	0	525	0	Ⴜ	cut_ei_stereo_44KHz.wav
1	117	4	4	2	I	2	0	738	1	Ⴟ	cut_oei_stereo_44KHz.wav
1	118	2	2	1	C	2	0	693	0	Ⴇ	cut_ei_stereo_44KHz.wav
1	119	1	1	1	C	2	0	853	0	Ⴜ	cut_n_stereo_44KHz.wav
1	120	3	4	2	I	1	0	686	0	Ⴂ	cut_oei_stereo_44KHz.wav
1	121	2	2	1	C	2	0	716	0	Ⴇ	cut_ei_stereo_44KHz.wav
1	122	3	3	2	I	1	0	961	0	Ⴂ	cut_j_stereo_44KHz.wav
1	123	4	3	2	I	2	0	761	1	Ⴟ	cut_j_stereo_44KHz.wav
1	124	1	2	0	C	1	0	778	0	Ⴜ	cut_ei_stereo_44KHz.wav
1	125	4	4	2	I	2	0	459	1	Ⴟ	cut_oei_stereo_44KHz.wav
1	126	2	1	0	C	1	0	598	0	Ⴇ	cut_n_stereo_44KHz.wav
1	127	1	1	1	C	2	0	586	0	Ⴜ	cut_n_stereo_44KHz.wav
1	128	3	4	2	I	1	0	433	1	Ⴂ	cut_oei_stereo_44KHz.wav
1	129	1	1	1	C	2	0	515	0	Ⴜ	cut_n_stereo_44KHz.wav
1	130	4	4	2	I	2	0	770	1	Ⴟ	cut_oei_stereo_44KHz.wav
1	131	3	4	2	I	1	0	521	1	Ⴂ	cut_oei_stereo_44KHz.wav
1	132	2	1	0	C	2	1	588	1	Ⴇ	cut_n_stereo_44KHz.wav
1	133	3	3	2	I	2	0	703	0	Ⴂ	cut_j_stereo_44KHz.wav
1	134	1	2	0	C	2	1	1576	1	Ⴜ	cut_ei_stereo_44KHz.wav
1	135	2	2	1	C	2	0	651	0	Ⴇ	cut_ei_stereo_44KHz.wav
1	136	4	3	2	I	1	0	705	1	Ⴟ	cut_j_stereo_44KHz.wav
1	137	1	2	0	C	2	1	629	1	Ⴜ	cut_ei_stereo_44KHz.wav
1	138	2	1	0	C	2	1	728	1	Ⴇ	cut_n_stereo_44KHz.wav
1	139	3	4	2	I	1	0	778	1	Ⴂ	cut_oei_stereo_44KHz.wav
1	140	4	4	2	I	2	0	498	1	Ⴟ	cut_oei_stereo_44KHz.wav
1	141	1	1	1	C	2	0	708	0	Ⴜ	cut_n_stereo_44KHz.wav
1	142	2	2	1	C	2	0	634	0	Ⴇ	cut_ei_stereo_44KHz.wav
1	143	4	3	2	I	2	0	661	1	Ⴟ	cut_j_stereo_44KHz.wav
1	144	3	3	2	I	1	0	1261	1	Ⴂ	cut_j_stereo_44KHz.wav
1	145	4	3	2	I	1	0	717	0	Ⴟ	cut_j_stereo_44KHz.wav
1	146	3	4	2	I	2	0	676	1	Ⴂ	cut_oei_stereo_44KHz.wav
1	147	2	2	1	C	2	0	1511	0	Ⴇ	cut_ei_stereo_44KHz.wav
1	148	1	1	1	C	1	1	962	1	Ⴜ	cut_n_stereo_44KHz.wav
1	149	3	3	2	I	1	0	1437	1	Ⴂ	cut_j_stereo_44KHz.wav
1	150	1	2	0	C	1	0	1195	0	Ⴜ	cut_ei_stereo_44KHz.wav
1	151	4	4	2	I	2	0	793	1	Ⴟ	cut_oei_stereo_44KHz.wav
1	152	2	1	0	C	2	1	865	1	Ⴇ	cut_n_stereo_44KHz.wav
1	153	3	3	2	I	2	0	1045	1	Ⴂ	cut_j_stereo_44KHz.wav
1	154	2	2	1	C	2	0	607	0	Ⴇ	cut_ei_stereo_44KHz.wav
1	155	1	2	0	C	1	0	1085	0	Ⴜ	cut_ei_stereo_44KHz.wav
1	156	4	3	2	I	2	0	638	1	Ⴟ	cut_j_stereo_44KHz.wav
1	157	1	1	1	C	1	1	859	1	Ⴜ	cut_n_stereo_44KHz.wav
1	158	2	1	0	C	2	1	659	1	Ⴇ	cut_n_stereo_44KHz.wav
1	159	3	4	2	I	1	0	1001	0	Ⴂ	cut_oei_stereo_44KHz.wav
1	160	4	4	2	I	2	0	649	0	Ⴟ	cut_oei_stereo_44KHz.wav
1	161	3	3	2	I	1	0	776	1	Ⴂ	cut_j_stereo_44KHz.wav
1	162	1	2	0	C	2	1	512	1	Ⴜ	cut_ei_stereo_44KHz.wav
1	163	4	3	2	I	2	0	747	1	Ⴟ	cut_j_stereo_44KHz.wav
1	164	2	1	0	C	2	1	683	1	Ⴇ	cut_n_stereo_44KHz.wav
1	165	3	4	2	I	2	0	706	1	Ⴂ	cut_oei_stereo_44KHz.wav
1	166	2	2	1	C	2	0	563	0	Ⴇ	cut_ei_stereo_44KHz.wav
1	167	4	4	2	I	2	0	614	1	Ⴟ	cut_oei_stereo_44KHz.wav
1	168	1	1	1	C	1	1	799	1	Ⴜ	cut_n_stereo_44KHz.wav
1	169	4	3	2	I	2	0	644	1	Ⴟ	cut_j_stereo_44KHz.wav
1	170	1	1	1	C	2	0	713	0	Ⴜ	cut_n_stereo_44KHz.wav
1	171	3	4	2	I	1	0	1033	1	Ⴂ	cut_oei_stereo_44KHz.wav
1	172	2	1	0	C	2	1	767	1	Ⴇ	cut_n_stereo_44KHz.wav
1	173	1	2	0	C	1	0	976	0	Ⴜ	cut_ei_stereo_44KHz.wav
1	174	3	3	2	I	1	0	1351	1	Ⴂ	cut_j_stereo_44KHz.wav
1	175	4	4	2	I	2	0	769	1	Ⴟ	cut_oei_stereo_44KHz.wav
1	176	2	2	1	C	2	0	919	0	Ⴇ	cut_ei_stereo_44KHz.wav
1	177	4	3	2	I	2	0	721	1	Ⴟ	cut_j_stereo_44KHz.wav
1	178	2	2	1	C	2	0	744	0	Ⴇ	cut_ei_stereo_44KHz.wav
1	179	3	3	2	I	2	0	1782	1	Ⴂ	cut_j_stereo_44KHz.wav
1	180	1	1	1	C	1	1	732	1	Ⴜ	cut_n_stereo_44KHz.wav
1	181	4	4	2	I	2	0	534	1	Ⴟ	cut_oei_stereo_44KHz.wav
1	182	2	1	0	C	2	1	764	1	Ⴇ	cut_n_stereo_44KHz.wav
1	183	1	2	0	C	2	1	584	1	Ⴜ	cut_ei_stereo_44KHz.wav
1	184	3	4	2	I	2	0	519	1	Ⴂ	cut_oei_stereo_44KHz.wav
1	185	4	4	2	I	2	0	533	1	Ⴟ	cut_oei_stereo_44KHz.wav
1	186	3	4	2	I	2	0	553	0	Ⴂ	cut_oei_stereo_44KHz.wav
1	187	2	1	0	C	2	1	771	1	Ⴇ	cut_n_stereo_44KHz.wav
1	188	1	1	1	C	2	0	700	0	Ⴜ	cut_n_stereo_44KHz.wav
1	189	2	2	1	C	1	1	963	1	Ⴇ	cut_ei_stereo_44KHz.wav
1	190	1	2	0	C	2	1	883	1	Ⴜ	cut_ei_stereo_44KHz.wav
1	191	4	3	2	I	2	0	840	1	Ⴟ	cut_j_stereo_44KHz.wav
1	192	3	3	2	I	2	0	1005	1	Ⴂ	cut_j_stereo_44KHz.wav
1	193	2	1	0	C	2	1	618	1	Ⴇ	cut_n_stereo_44KHz.wav
1	194	3	4	2	I	2	0	722	1	Ⴂ	cut_oei_stereo_44KHz.wav
1	195	1	1	1	C	1	1	1066	1	Ⴜ	cut_n_stereo_44KHz.wav
1	196	4	4	2	I	2	0	766	1	Ⴟ	cut_oei_stereo_44KHz.wav
1	197	2	2	1	C	2	0	638	0	Ⴇ	cut_ei_stereo_44KHz.wav
1	198	1	2	0	C	2	1	1586	1	Ⴜ	cut_ei_stereo_44KHz.wav
1	199	4	3	2	I	1	0	1463	1	Ⴟ	cut_j_stereo_44KHz.wav
1	200	3	3	2	I	2	0	995	1	Ⴂ	cut_j_stereo_44KHz.wav
2	1	3	4	2	I	2	0	703	0	Ⴒ	cut_ui_stereo_44KHz.wav
2	2	1	2	0	C	1	0	1317	0	Ⴕ	cut_r_stereo_44KHz.wav
2	3	4	4	2	I	1	0	39	0	Ⴏ	cut_ui_stereo_44KHz.wav
2	4	2	2	1	C	1	1	329	1	Ⴔ	cut_r_stereo_44KHz.wav
2	5	4	3	2	I	2	0	710	1	Ⴏ	cut_f_stereo_44KHz.wav
2	6	1	1	1	C	1	1	961	1	Ⴕ	cut_s_stereo_44KHz.wav
2	7	3	3	2	I	2	0	746	1	Ⴒ	cut_f_stereo_44KHz.wav
2	8	2	1	0	C	1	0	906	0	Ⴔ	cut_s_stereo_44KHz.wav
2	9	3	4	2	I	2	0	653	1	Ⴒ	cut_ui_stereo_44KHz.wav
2	10	4	3	2	I	1	0	953	0	Ⴏ	cut_f_stereo_44KHz.wav
2	11	1	1	1	C	1	1	1277	1	Ⴕ	cut_s_stereo_44KHz.wav
2	12	2	1	0	C	2	1	1193	1	Ⴔ	cut_s_stereo_44KHz.wav
2	13	3	3	2	I	1	0	1272	1	Ⴒ	cut_f_stereo_44KHz.wav
2	14	4	4	2	I	1	0	1395	1	Ⴏ	cut_ui_stereo_44KHz.wav
2	15	2	2	1	C	1	1	1116	1	Ⴔ	cut_r_stereo_44KHz.wav
2	16	1	2	0	C	2	1	1082	1	Ⴕ	cut_r_stereo_44KHz.wav
2	17	4	4	2	I	1	0	994	1	Ⴏ	cut_ui_stereo_44KHz.wav
2	18	3	3	2	I	2	0	1155	1	Ⴒ	cut_f_stereo_44KHz.wav
2	19	2	1	0	C	1	0	1060	0	Ⴔ	cut_s_stereo_44KHz.wav
2	20	1	1	1	C	2	0	846	0	Ⴕ	cut_s_stereo_44KHz.wav
2	21	4	3	2	I	1	0	902	1	Ⴏ	cut_f_stereo_44KHz.wav
2	22	2	2	1	C	2	0	975	0	Ⴔ	cut_r_stereo_44KHz.wav
2	23	1	2	0	C	1	0	973	0	Ⴕ	cut_r_stereo_44KHz.wav
2	24	3	4	2	I	2	0	1138	1	Ⴒ	cut_ui_stereo_44KHz.wav
2	25	4	4	2	I	1	0	1250	1	Ⴏ	cut_ui_stereo_44KHz.wav
2	26	2	2	1	C	2	0	1314	0	Ⴔ	cut_r_stereo_44KHz.wav
2	27	1	2	0	C	1	0	1003	0	Ⴕ	cut_r_stereo_44KHz.wav
2	28	3	4	2	I	2	0	1147	1	Ⴒ	cut_ui_stereo_44KHz.wav
2	29	2	1	0	C	1	0	1036	0	Ⴔ	cut_s_stereo_44KHz.wav
2	30	3	3	2	I	2	0	848	1	Ⴒ	cut_f_stereo_44KHz.wav
2	31	4	3	2	I	2	0	749	1	Ⴏ	cut_f_stereo_44KHz.wav
2	32	1	1	1	C	2	0	948	0	Ⴕ	cut_s_stereo_44KHz.wav
2	33	3	3	2	I	2	0	975	0	Ⴒ	cut_f_stereo_44KHz.wav
2	34	1	2	0	C	1	0	797	0	Ⴕ	cut_r_stereo_44KHz.wav
2	35	4	3	2	I	2	0	600	1	Ⴏ	cut_f_stereo_44KHz.wav
2	36	2	2	1	C	2	0	851	0	Ⴔ	cut_r_stereo_44KHz.wav
2	37	4	4	2	I	2	0	966	1	Ⴏ	cut_ui_stereo_44KHz.wav
2	38	1	1	1	C	2	0	662	0	Ⴕ	cut_s_stereo_44KHz.wav
2	39	3	4	2	I	2	0	628	1	Ⴒ	cut_ui_stereo_44KHz.wav
2	40	2	1	0	C	1	0	892	0	Ⴔ	cut_s_stereo_44KHz.wav
2	41	3	4	2	I	2	0	594	1	Ⴒ	cut_ui_stereo_44KHz.wav
2	42	2	2	1	C	2	0	773	0	Ⴔ	cut_r_stereo_44KHz.wav
2	43	4	4	2	I	1	0	488	0	Ⴏ	cut_ui_stereo_44KHz.wav
2	44	1	1	1	C	2	0	523	0	Ⴕ	cut_s_stereo_44KHz.wav
2	45	3	3	2	I	2	0	1070	1	Ⴒ	cut_f_stereo_44KHz.wav
2	46	1	2	0	C	2	1	962	1	Ⴕ	cut_r_stereo_44KHz.wav
2	47	4	3	2	I	2	0	689	1	Ⴏ	cut_f_stereo_44KHz.wav
2	48	2	1	0	C	2	1	1099	1	Ⴔ	cut_s_stereo_44KHz.wav
2	49	4	3	2	I	2	0	736	0	Ⴏ	cut_f_stereo_44KHz.wav
2	50	2	1	0	C	2	1	764	1	Ⴔ	cut_s_stereo_44KHz.wav
2	51	1	2	0	C	2	1	752	1	Ⴕ	cut_r_stereo_44KHz.wav
2	52	3	4	2	I	2	0	789	1	Ⴒ	cut_ui_stereo_44KHz.wav
2	53	1	1	1	C	2	0	760	0	Ⴕ	cut_s_stereo_44KHz.wav
2	54	3	3	2	I	1	0	865	1	Ⴒ	cut_f_stereo_44KHz.wav
2	55	4	4	2	I	2	0	653	1	Ⴏ	cut_ui_stereo_44KHz.wav
2	56	2	2	1	C	1	1	546	1	Ⴔ	cut_r_stereo_44KHz.wav
2	57	1	2	0	C	2	1	687	1	Ⴕ	cut_r_stereo_44KHz.wav
2	58	4	4	2	I	1	0	744	1	Ⴏ	cut_ui_stereo_44KHz.wav
2	59	3	4	2	I	2	0	923	0	Ⴒ	cut_ui_stereo_44KHz.wav
2	60	2	2	1	C	1	1	897	1	Ⴔ	cut_r_stereo_44KHz.wav
2	61	1	1	1	C	1	1	1057	1	Ⴕ	cut_s_stereo_44KHz.wav
2	62	3	3	2	I	2	0	486	1	Ⴒ	cut_f_stereo_44KHz.wav
2	63	4	3	2	I	1	0	438	1	Ⴏ	cut_f_stereo_44KHz.wav
2	64	2	1	0	C	2	1	650	1	Ⴔ	cut_s_stereo_44KHz.wav
2	65	3	4	2	I	2	0	671	1	Ⴒ	cut_ui_stereo_44KHz.wav
2	66	2	2	1	C	2	0	653	0	Ⴔ	cut_r_stereo_44KHz.wav
2	67	4	3	2	I	1	0	526	1	Ⴏ	cut_f_stereo_44KHz.wav
2	68	1	1	1	C	2	0	501	0	Ⴕ	cut_s_stereo_44KHz.wav
2	69	2	1	0	C	1	0	752	0	Ⴔ	cut_s_stereo_44KHz.wav
2	70	4	4	2	I	2	0	797	0	Ⴏ	cut_ui_stereo_44KHz.wav
2	71	1	2	0	C	1	0	504	0	Ⴕ	cut_r_stereo_44KHz.wav
2	72	3	3	2	I	2	0	97	1	Ⴒ	cut_f_stereo_44KHz.wav
2	73	4	3	2	I	2	0	541	0	Ⴏ	cut_f_stereo_44KHz.wav
2	74	3	4	2	I	1	0	654	1	Ⴒ	cut_ui_stereo_44KHz.wav
2	75	2	1	0	C	2	1	639	1	Ⴔ	cut_s_stereo_44KHz.wav
2	76	1	2	0	C	1	0	595	0	Ⴕ	cut_r_stereo_44KHz.wav
2	77	2	2	1	C	2	0	673	0	Ⴔ	cut_r_stereo_44KHz.wav
2	78	1	1	1	C	1	1	246	1	Ⴕ	cut_s_stereo_44KHz.wav
2	79	3	3	2	I	2	0	404	1	Ⴒ	cut_f_stereo_44KHz.wav
2	80	4	4	2	I	1	0	493	1	Ⴏ	cut_ui_stereo_44KHz.wav
2	81	2	1	0	C	2	1	515	1	Ⴔ	cut_s_stereo_44KHz.wav
2	82	3	4	2	I	1	0	815	1	Ⴒ	cut_ui_stereo_44KHz.wav
2	83	1	2	0	C	2	1	1097	1	Ⴕ	cut_r_stereo_44KHz.wav
2	84	4	4	2	I	1	0	670	1	Ⴏ	cut_ui_stereo_44KHz.wav
2	85	3	3	2	I	2	0	746	1	Ⴒ	cut_f_stereo_44KHz.wav
2	86	1	1	1	C	1	1	856	1	Ⴕ	cut_s_stereo_44KHz.wav
2	87	2	2	1	C	2	0	1008	0	Ⴔ	cut_r_stereo_44KHz.wav
2	88	4	3	2	I	1	0	786	1	Ⴏ	cut_f_stereo_44KHz.wav
2	89	2	2	1	C	2	0	526	0	Ⴔ	cut_r_stereo_44KHz.wav
2	90	3	4	2	I	1	0	489	1	Ⴒ	cut_ui_stereo_44KHz.wav
2	91	4	3	2	I	2	0	780	1	Ⴏ	cut_f_stereo_44KHz.wav
2	92	1	1	1	C	1	1	694	1	Ⴕ	cut_s_stereo_44KHz.wav
2	93	2	1	0	C	2	1	842	1	Ⴔ	cut_s_stereo_44KHz.wav
2	94	1	2	0	C	2	1	438	1	Ⴕ	cut_r_stereo_44KHz.wav
2	95	3	3	2	I	1	0	437	1	Ⴒ	cut_f_stereo_44KHz.wav
2	96	4	4	2	I	2	0	100	1	Ⴏ	cut_ui_stereo_44KHz.wav
2	97	1	1	1	C	1	1	960	1	Ⴕ	cut_s_stereo_44KHz.wav
2	98	3	3	2	I	2	0	639	0	Ⴒ	cut_f_stereo_44KHz.wav
2	99	2	1	0	C	1	0	1176	0	Ⴔ	cut_s_stereo_44KHz.wav
2	100	4	3	2	I	2	0	272	1	Ⴏ	cut_f_stereo_44KHz.wav
2	101	1	2	0	C	1	0	398	0	Ⴕ	cut_r_stereo_44KHz.wav
2	102	4	4	2	I	2	0	994	1	Ⴏ	cut_ui_stereo_44KHz.wav
2	103	2	2	1	C	1	1	704	1	Ⴔ	cut_r_stereo_44KHz.wav
2	104	3	4	2	I	2	0	453	1	Ⴒ	cut_ui_stereo_44KHz.wav
2	105	4	4	2	I	2	0	844	1	Ⴏ	cut_ui_stereo_44KHz.wav
2	106	1	2	0	C	2	1	439	1	Ⴕ	cut_r_stereo_44KHz.wav
2	107	3	4	2	I	2	0	434	0	Ⴒ	cut_ui_stereo_44KHz.wav
2	108	2	1	0	C	1	0	524	0	Ⴔ	cut_s_stereo_44KHz.wav
2	109	4	3	2	I	2	0	501	1	Ⴏ	cut_f_stereo_44KHz.wav
2	110	1	1	1	C	2	0	550	0	Ⴕ	cut_s_stereo_44KHz.wav
2	111	3	3	2	I	1	0	780	1	Ⴒ	cut_f_stereo_44KHz.wav
2	112	2	2	1	C	2	0	456	0	Ⴔ	cut_r_stereo_44KHz.wav
2	113	3	3	2	I	2	0	1054	0	Ⴒ	cut_f_stereo_44KHz.wav
2	114	4	4	2	I	1	0	675	1	Ⴏ	cut_ui_stereo_44KHz.wav
2	115	1	1	1	C	2	0	367	0	Ⴕ	cut_s_stereo_44KHz.wav
2	116	2	1	0	C	1	0	383	0	Ⴔ	cut_s_stereo_44KHz.wav
2	117	1	2	0	C	2	1	923	1	Ⴕ	cut_r_stereo_44KHz.wav
2	118	3	4	2	I	2	0	546	1	Ⴒ	cut_ui_stereo_44KHz.wav
2	119	4	3	2	I	1	0	661	1	Ⴏ	cut_f_stereo_44KHz.wav
2	120	2	2	1	C	2	0	536	0	Ⴔ	cut_r_stereo_44KHz.wav
2	121	3	4	2	I	1	0	762	1	Ⴒ	cut_ui_stereo_44KHz.wav
2	122	1	2	0	C	2	1	802	1	Ⴕ	cut_r_stereo_44KHz.wav
2	123	2	1	0	C	0	0	0	0	Ⴔ	cut_s_stereo_44KHz.wav
2	124	4	3	2	I	2	0	969	0	Ⴏ	cut_f_stereo_44KHz.wav
2	125	1	1	1	C	1	1	1668	1	Ⴕ	cut_s_stereo_44KHz.wav
2	126	2	2	1	C	2	0	744	0	Ⴔ	cut_r_stereo_44KHz.wav
2	127	3	3	2	I	1	0	812	1	Ⴒ	cut_f_stereo_44KHz.wav
2	128	4	4	2	I	2	0	669	1	Ⴏ	cut_ui_stereo_44KHz.wav
2	129	2	2	1	C	2	0	679	0	Ⴔ	cut_r_stereo_44KHz.wav
2	130	3	4	2	I	2	0	713	1	Ⴒ	cut_ui_stereo_44KHz.wav
2	131	4	4	2	I	2	0	545	1	Ⴏ	cut_ui_stereo_44KHz.wav
2	132	1	2	0	C	1	0	770	0	Ⴕ	cut_r_stereo_44KHz.wav
2	133	2	1	0	C	2	1	592	1	Ⴔ	cut_s_stereo_44KHz.wav
2	134	4	3	2	I	2	0	600	1	Ⴏ	cut_f_stereo_44KHz.wav
2	135	1	1	1	C	2	0	922	0	Ⴕ	cut_s_stereo_44KHz.wav
2	136	3	3	2	I	1	0	347	1	Ⴒ	cut_f_stereo_44KHz.wav
2	137	4	3	2	I	2	0	523	1	Ⴏ	cut_f_stereo_44KHz.wav
2	138	3	3	2	I	1	0	690	0	Ⴒ	cut_f_stereo_44KHz.wav
2	139	1	1	1	C	2	0	702	0	Ⴕ	cut_s_stereo_44KHz.wav
2	140	2	2	1	C	1	1	413	1	Ⴔ	cut_r_stereo_44KHz.wav
2	141	4	4	2	I	2	0	344	1	Ⴏ	cut_ui_stereo_44KHz.wav
2	142	2	1	0	C	1	0	738	0	Ⴔ	cut_s_stereo_44KHz.wav
2	143	3	4	2	I	2	0	534	1	Ⴒ	cut_ui_stereo_44KHz.wav
2	144	1	2	0	C	1	0	1084	0	Ⴕ	cut_r_stereo_44KHz.wav
2	145	2	1	0	C	2	1	380	1	Ⴔ	cut_s_stereo_44KHz.wav
2	146	3	3	2	I	2	0	475	1	Ⴒ	cut_f_stereo_44KHz.wav
2	147	1	2	0	C	2	1	388	1	Ⴕ	cut_r_stereo_44KHz.wav
2	148	4	4	2	I	2	0	430	1	Ⴏ	cut_ui_stereo_44KHz.wav
2	149	2	2	1	C	2	0	528	0	Ⴔ	cut_r_stereo_44KHz.wav
2	150	4	3	2	I	1	0	628	0	Ⴏ	cut_f_stereo_44KHz.wav
2	151	3	4	2	I	2	0	196	1	Ⴒ	cut_ui_stereo_44KHz.wav
2	152	1	1	1	C	1	1	685	1	Ⴕ	cut_s_stereo_44KHz.wav
2	153	3	3	2	I	2	0	489	0	Ⴒ	cut_f_stereo_44KHz.wav
2	154	2	2	1	C	2	0	1399	0	Ⴔ	cut_r_stereo_44KHz.wav
2	155	4	4	2	I	1	0	529	1	Ⴏ	cut_ui_stereo_44KHz.wav
2	156	1	1	1	C	2	0	513	0	Ⴕ	cut_s_stereo_44KHz.wav
2	157	3	4	2	I	2	0	584	1	Ⴒ	cut_ui_stereo_44KHz.wav
2	158	1	2	0	C	1	0	545	0	Ⴕ	cut_r_stereo_44KHz.wav
2	159	2	1	0	C	2	1	575	1	Ⴔ	cut_s_stereo_44KHz.wav
2	160	4	3	2	I	2	0	694	1	Ⴏ	cut_f_stereo_44KHz.wav
2	161	3	3	2	I	2	0	1158	1	Ⴒ	cut_f_stereo_44KHz.wav
2	162	4	3	2	I	2	0	816	1	Ⴏ	cut_f_stereo_44KHz.wav
2	163	2	1	0	C	2	1	618	1	Ⴔ	cut_s_stereo_44KHz.wav
2	164	1	2	0	C	2	1	732	1	Ⴕ	cut_r_stereo_44KHz.wav
2	165	4	4	2	I	2	0	389	0	Ⴏ	cut_ui_stereo_44KHz.wav
2	166	1	1	1	C	1	1	717	1	Ⴕ	cut_s_stereo_44KHz.wav
2	167	2	2	1	C	2	0	365	0	Ⴔ	cut_r_stereo_44KHz.wav
2	168	3	4	2	I	1	0	689	1	Ⴒ	cut_ui_stereo_44KHz.wav
2	169	1	2	0	C	2	1	530	1	Ⴕ	cut_r_stereo_44KHz.wav
2	170	2	2	1	C	1	1	363	1	Ⴔ	cut_r_stereo_44KHz.wav
2	171	4	4	2	I	2	0	308	0	Ⴏ	cut_ui_stereo_44KHz.wav
2	172	3	3	2	I	1	0	1226	1	Ⴒ	cut_f_stereo_44KHz.wav
2	173	1	1	1	C	2	0	425	0	Ⴕ	cut_s_stereo_44KHz.wav
2	174	4	3	2	I	1	0	538	1	Ⴏ	cut_f_stereo_44KHz.wav
2	175	3	4	2	I	2	0	359	0	Ⴒ	cut_ui_stereo_44KHz.wav
2	176	2	1	0	C	1	0	750	0	Ⴔ	cut_s_stereo_44KHz.wav
2	177	3	3	2	I	2	0	616	1	Ⴒ	cut_f_stereo_44KHz.wav
2	178	4	3	2	I	2	0	506	1	Ⴏ	cut_f_stereo_44KHz.wav
2	179	2	2	1	C	2	0	663	0	Ⴔ	cut_r_stereo_44KHz.wav
2	180	1	1	1	C	1	1	623	1	Ⴕ	cut_s_stereo_44KHz.wav
2	181	2	1	0	C	2	1	703	1	Ⴔ	cut_s_stereo_44KHz.wav
2	182	4	4	2	I	2	0	694	1	Ⴏ	cut_ui_stereo_44KHz.wav
2	183	3	4	2	I	2	0	729	1	Ⴒ	cut_ui_stereo_44KHz.wav
2	184	1	2	0	C	2	1	672	1	Ⴕ	cut_r_stereo_44KHz.wav
2	185	4	3	2	I	2	0	722	1	Ⴏ	cut_f_stereo_44KHz.wav
2	186	1	1	1	C	2	0	637	0	Ⴕ	cut_s_stereo_44KHz.wav
2	187	3	4	2	I	1	0	998	1	Ⴒ	cut_ui_stereo_44KHz.wav
2	188	2	1	0	C	2	1	533	1	Ⴔ	cut_s_stereo_44KHz.wav
2	189	3	3	2	I	1	0	603	1	Ⴒ	cut_f_stereo_44KHz.wav
2	190	2	2	1	C	2	0	648	0	Ⴔ	cut_r_stereo_44KHz.wav
2	191	4	4	2	I	1	0	1383	1	Ⴏ	cut_ui_stereo_44KHz.wav
2	192	1	2	0	C	2	1	887	1	Ⴕ	cut_r_stereo_44KHz.wav
2	193	3	3	2	I	2	0	358	0	Ⴒ	cut_f_stereo_44KHz.wav
2	194	1	1	1	C	1	1	1245	1	Ⴕ	cut_s_stereo_44KHz.wav
2	195	2	1	0	C	2	1	439	1	Ⴔ	cut_s_stereo_44KHz.wav
2	196	4	4	2	I	1	0	1060	1	Ⴏ	cut_ui_stereo_44KHz.wav
2	197	2	2	1	C	2	0	647	0	Ⴔ	cut_r_stereo_44KHz.wav
2	198	1	2	0	C	2	1	1768	1	Ⴕ	cut_r_stereo_44KHz.wav
2	199	3	4	2	I	1	0	438	1	Ⴒ	cut_ui_stereo_44KHz.wav
2	200	4	3	2	I	2	0	685	1	Ⴏ	cut_f_stereo_44KHz.wav
3	1	1	1	1	C	2	0	1117	0	Ⴉ	cut_h_stereo_44KHz.wav
3	2	2	1	0	C	0	0	0	0	Ⴐ	cut_h_stereo_44KHz.wav
3	3	4	3	2	I	2	0	586	1	Ⴌ	cut_l_stereo_44KHz.wav
3	4	3	3	2	I	1	0	521	0	Ⴖ	cut_l_stereo_44KHz.wav
3	5	2	2	1	C	2	0	290	0	Ⴐ	cut_g_stereo_44KHz.wav
3	6	1	2	0	C	1	0	430	0	Ⴉ	cut_g_stereo_44KHz.wav
3	7	3	4	2	I	2	0	115	0	Ⴖ	cut_w_stereo_44KHz.wav
3	8	4	4	2	I	1	0	11	1	Ⴌ	cut_w_stereo_44KHz.wav
3	9	1	1	1	C	2	0	701	0	Ⴉ	cut_h_stereo_44KHz.wav
3	10	2	2	1	C	1	1	376	1	Ⴐ	cut_g_stereo_44KHz.wav
3	11	4	3	2	I	2	0	652	1	Ⴌ	cut_l_stereo_44KHz.wav
3	12	3	3	2	I	1	0	523	1	Ⴖ	cut_l_stereo_44KHz.wav
3	13	4	4	2	I	2	0	1601	1	Ⴌ	cut_w_stereo_44KHz.wav
3	14	2	1	0	C	2	1	725	1	Ⴐ	cut_h_stereo_44KHz.wav
3	15	3	4	2	I	2	0	1093	1	Ⴖ	cut_w_stereo_44KHz.wav
3	16	1	2	0	C	2	1	339	1	Ⴉ	cut_g_stereo_44KHz.wav
3	17	4	3	2	I	2	0	594	1	Ⴌ	cut_l_stereo_44KHz.wav
3	18	3	3	2	I	0	0	0	0	Ⴖ	cut_l_stereo_44KHz.wav
3	19	1	2	0	C	2	1	487	1	Ⴉ	cut_g_stereo_44KHz.wav
3	20	2	2	1	C	2	0	480	0	Ⴐ	cut_g_stereo_44KHz.wav
3	21	1	1	1	C	1	1	1317	1	Ⴉ	cut_h_stereo_44KHz.wav
3	22	2	1	0	C	2	1	701	1	Ⴐ	cut_h_stereo_44KHz.wav
3	23	3	4	2	I	1	0	632	1	Ⴖ	cut_w_stereo_44KHz.wav
3	24	4	4	2	I	2	0	601	1	Ⴌ	cut_w_stereo_44KHz.wav
3	25	2	2	1	C	2	0	527	0	Ⴐ	cut_g_stereo_44KHz.wav
3	26	3	3	2	I	1	0	553	1	Ⴖ	cut_l_stereo_44KHz.wav
3	27	4	3	2	I	2	0	71	1	Ⴌ	cut_l_stereo_44KHz.wav
3	28	1	1	1	C	2	0	1327	0	Ⴉ	cut_h_stereo_44KHz.wav
3	29	4	4	2	I	1	0	695	1	Ⴌ	cut_w_stereo_44KHz.wav
3	30	2	1	0	C	2	1	509	1	Ⴐ	cut_h_stereo_44KHz.wav
3	31	1	2	0	C	2	1	1065	1	Ⴉ	cut_g_stereo_44KHz.wav
3	32	3	4	2	I	2	0	185	0	Ⴖ	cut_w_stereo_44KHz.wav
3	33	2	2	1	C	1	1	574	1	Ⴐ	cut_g_stereo_44KHz.wav
3	34	4	3	2	I	2	0	557	1	Ⴌ	cut_l_stereo_44KHz.wav
3	35	3	4	2	I	2	0	774	1	Ⴖ	cut_w_stereo_44KHz.wav
3	36	1	2	0	C	2	1	370	1	Ⴉ	cut_g_stereo_44KHz.wav
3	37	3	3	2	I	1	0	854	1	Ⴖ	cut_l_stereo_44KHz.wav
3	38	2	1	0	C	2	1	439	1	Ⴐ	cut_h_stereo_44KHz.wav
3	39	1	1	1	C	2	0	316	0	Ⴉ	cut_h_stereo_44KHz.wav
3	40	4	4	2	I	2	0	855	1	Ⴌ	cut_w_stereo_44KHz.wav
3	41	2	1	0	C	1	0	648	0	Ⴐ	cut_h_stereo_44KHz.wav
3	42	4	3	2	I	2	0	629	1	Ⴌ	cut_l_stereo_44KHz.wav
3	43	3	3	2	I	1	0	476	1	Ⴖ	cut_l_stereo_44KHz.wav
3	44	1	1	1	C	2	0	427	0	Ⴉ	cut_h_stereo_44KHz.wav
3	45	4	4	2	I	1	0	834	1	Ⴌ	cut_w_stereo_44KHz.wav
3	46	1	2	0	C	2	1	653	1	Ⴉ	cut_g_stereo_44KHz.wav
3	47	2	2	1	C	1	1	909	1	Ⴐ	cut_g_stereo_44KHz.wav
3	48	3	4	2	I	2	0	703	1	Ⴖ	cut_w_stereo_44KHz.wav
3	49	2	2	1	C	2	0	1333	0	Ⴐ	cut_g_stereo_44KHz.wav
3	50	3	3	2	I	1	0	1102	1	Ⴖ	cut_l_stereo_44KHz.wav
3	51	1	1	1	C	2	0	410	0	Ⴉ	cut_h_stereo_44KHz.wav
3	52	4	4	2	I	1	0	693	1	Ⴌ	cut_w_stereo_44KHz.wav
3	53	3	4	2	I	2	0	558	1	Ⴖ	cut_w_stereo_44KHz.wav
3	54	4	3	2	I	1	0	401	1	Ⴌ	cut_l_stereo_44KHz.wav
3	55	2	1	0	C	2	1	462	1	Ⴐ	cut_h_stereo_44KHz.wav
3	56	1	2	0	C	1	0	819	0	Ⴉ	cut_g_stereo_44KHz.wav
3	57	4	4	2	I	2	0	557	1	Ⴌ	cut_w_stereo_44KHz.wav
3	58	1	2	0	C	2	1	627	1	Ⴉ	cut_g_stereo_44KHz.wav
3	59	3	3	2	I	2	0	685	1	Ⴖ	cut_l_stereo_44KHz.wav
3	60	2	2	1	C	2	0	565	0	Ⴐ	cut_g_stereo_44KHz.wav
3	61	4	3	2	I	1	0	500	0	Ⴌ	cut_l_stereo_44KHz.wav
3	62	2	1	0	C	2	1	744	1	Ⴐ	cut_h_stereo_44KHz.wav
3	63	3	4	2	I	1	0	164	1	Ⴖ	cut_w_stereo_44KHz.wav
3	64	1	1	1	C	2	0	841	0	Ⴉ	cut_h_stereo_44KHz.wav
3	65	4	3	2	I	2	0	647	1	Ⴌ	cut_l_stereo_44KHz.wav
3	66	2	2	1	C	2	0	678	0	Ⴐ	cut_g_stereo_44KHz.wav
3	67	1	1	1	C	1	1	432	1	Ⴉ	cut_h_stereo_44KHz.wav
3	68	3	3	2	I	1	0	477	1	Ⴖ	cut_l_stereo_44KHz.wav
3	69	2	1	0	C	2	1	552	1	Ⴐ	cut_h_stereo_44KHz.wav
3	70	1	2	0	C	1	0	677	0	Ⴉ	cut_g_stereo_44KHz.wav
3	71	3	4	2	I	2	0	809	1	Ⴖ	cut_w_stereo_44KHz.wav
3	72	4	4	2	I	2	0	572	1	Ⴌ	cut_w_stereo_44KHz.wav
3	73	2	1	0	C	2	1	442	1	Ⴐ	cut_h_stereo_44KHz.wav
3	74	1	1	1	C	2	0	525	0	Ⴉ	cut_h_stereo_44KHz.wav
3	75	3	3	2	I	1	0	427	0	Ⴖ	cut_l_stereo_44KHz.wav
3	76	4	3	2	I	2	0	406	0	Ⴌ	cut_l_stereo_44KHz.wav
3	77	3	4	2	I	2	0	473	1	Ⴖ	cut_w_stereo_44KHz.wav
3	78	2	2	1	C	1	1	479	1	Ⴐ	cut_g_stereo_44KHz.wav
3	79	1	2	0	C	2	1	518	1	Ⴉ	cut_g_stereo_44KHz.wav
3	80	4	4	2	I	1	0	520	0	Ⴌ	cut_w_stereo_44KHz.wav
3	81	2	2	1	C	2	0	385	0	Ⴐ	cut_g_stereo_44KHz.wav
3	82	3	3	2	I	1	0	56	0	Ⴖ	cut_l_stereo_44KHz.wav
3	83	1	2	0	C	2	1	324	1	Ⴉ	cut_g_stereo_44KHz.wav
3	84	4	3	2	I	0	0	0	0	Ⴌ	cut_l_stereo_44KHz.wav
3	85	1	1	1	C	0	0	0	0	Ⴉ	cut_h_stereo_44KHz.wav
3	86	3	4	2	I	2	0	215	1	Ⴖ	cut_w_stereo_44KHz.wav
3	87	4	4	2	I	2	0	1033	1	Ⴌ	cut_w_stereo_44KHz.wav
3	88	2	1	0	C	2	1	663	1	Ⴐ	cut_h_stereo_44KHz.wav
3	89	4	4	2	I	1	0	1695	1	Ⴌ	cut_w_stereo_44KHz.wav
3	90	2	2	1	C	2	0	595	0	Ⴐ	cut_g_stereo_44KHz.wav
3	91	3	3	2	I	1	0	259	1	Ⴖ	cut_l_stereo_44KHz.wav
3	92	1	1	1	C	2	0	1131	0	Ⴉ	cut_h_stereo_44KHz.wav
3	93	3	4	2	I	1	0	692	1	Ⴖ	cut_w_stereo_44KHz.wav
3	94	1	2	0	C	2	1	1434	1	Ⴉ	cut_g_stereo_44KHz.wav
3	95	4	3	2	I	1	0	940	0	Ⴌ	cut_l_stereo_44KHz.wav
3	96	2	1	0	C	2	1	707	1	Ⴐ	cut_h_stereo_44KHz.wav
3	97	4	4	2	I	2	0	514	1	Ⴌ	cut_w_stereo_44KHz.wav
3	98	1	2	0	C	1	0	757	0	Ⴉ	cut_g_stereo_44KHz.wav
3	99	2	2	1	C	2	0	606	0	Ⴐ	cut_g_stereo_44KHz.wav
3	100	3	4	2	I	1	0	579	1	Ⴖ	cut_w_stereo_44KHz.wav
3	101	1	1	1	C	2	0	386	0	Ⴉ	cut_h_stereo_44KHz.wav
3	102	3	3	2	I	1	0	394	1	Ⴖ	cut_l_stereo_44KHz.wav
3	103	4	3	2	I	2	0	1827	1	Ⴌ	cut_l_stereo_44KHz.wav
3	104	2	1	0	C	1	0	612	0	Ⴐ	cut_h_stereo_44KHz.wav
3	105	4	4	2	I	2	0	1002	1	Ⴌ	cut_w_stereo_44KHz.wav
3	106	3	3	2	I	1	0	532	1	Ⴖ	cut_l_stereo_44KHz.wav
3	107	1	1	1	C	1	1	705	1	Ⴉ	cut_h_stereo_44KHz.wav
3	108	2	2	1	C	1	1	613	1	Ⴐ	cut_g_stereo_44KHz.wav
3	109	3	4	2	I	2	0	740	1	Ⴖ	cut_w_stereo_44KHz.wav
3	110	1	2	0	C	2	1	610	1	Ⴉ	cut_g_stereo_44KHz.wav
3	111	2	1	0	C	2	1	1179	1	Ⴐ	cut_h_stereo_44KHz.wav
3	112	4	3	2	I	2	0	619	1	Ⴌ	cut_l_stereo_44KHz.wav
3	113	1	1	1	C	2	0	1465	0	Ⴉ	cut_h_stereo_44KHz.wav
3	114	2	2	1	C	1	1	1323	1	Ⴐ	cut_g_stereo_44KHz.wav
3	115	4	4	2	I	2	0	422	1	Ⴌ	cut_w_stereo_44KHz.wav
3	116	3	4	2	I	1	0	684	1	Ⴖ	cut_w_stereo_44KHz.wav
3	117	4	3	2	I	2	0	970	0	Ⴌ	cut_l_stereo_44KHz.wav
3	118	1	2	0	C	1	0	788	0	Ⴉ	cut_g_stereo_44KHz.wav
3	119	3	3	2	I	0	0	0	0	Ⴖ	cut_l_stereo_44KHz.wav
3	120	2	1	0	C	2	1	504	1	Ⴐ	cut_h_stereo_44KHz.wav
3	121	1	1	1	C	2	0	461	0	Ⴉ	cut_h_stereo_44KHz.wav
3	122	4	4	2	I	2	0	602	1	Ⴌ	cut_w_stereo_44KHz.wav
3	123	3	4	2	I	1	0	432	1	Ⴖ	cut_w_stereo_44KHz.wav
3	124	2	2	1	C	2	0	380	0	Ⴐ	cut_g_stereo_44KHz.wav
3	125	1	2	0	C	1	0	329	0	Ⴉ	cut_g_stereo_44KHz.wav
3	126	3	3	2	I	2	0	1255	0	Ⴖ	cut_l_stereo_44KHz.wav
3	127	4	3	2	I	2	0	691	1	Ⴌ	cut_l_stereo_44KHz.wav
3	128	2	1	0	C	1	0	93	0	Ⴐ	cut_h_stereo_44KHz.wav
3	129	1	2	0	C	2	1	582	1	Ⴉ	cut_g_stereo_44KHz.wav
3	130	2	2	1	C	1	1	654	1	Ⴐ	cut_g_stereo_44KHz.wav
3	131	4	3	2	I	2	0	621	1	Ⴌ	cut_l_stereo_44KHz.wav
3	132	3	4	2	I	1	0	501	1	Ⴖ	cut_w_stereo_44KHz.wav
3	133	2	1	0	C	2	1	1095	1	Ⴐ	cut_h_stereo_44KHz.wav
3	134	1	1	1	C	1	1	521	1	Ⴉ	cut_h_stereo_44KHz.wav
3	135	3	3	2	I	2	0	509	1	Ⴖ	cut_l_stereo_44KHz.wav
3	136	4	4	2	I	1	0	524	0	Ⴌ	cut_w_stereo_44KHz.wav
3	137	1	2	0	C	2	1	520	1	Ⴉ	cut_g_stereo_44KHz.wav
3	138	2	1	0	C	1	0	838	0	Ⴐ	cut_h_stereo_44KHz.wav
3	139	3	4	2	I	0	0	0	0	Ⴖ	cut_w_stereo_44KHz.wav
3	140	4	3	2	I	1	0	511	1	Ⴌ	cut_l_stereo_44KHz.wav
3	141	2	2	1	C	2	0	1724	0	Ⴐ	cut_g_stereo_44KHz.wav
3	142	3	3	2	I	1	0	79	1	Ⴖ	cut_l_stereo_44KHz.wav
3	143	4	4	2	I	2	0	590	1	Ⴌ	cut_w_stereo_44KHz.wav
3	144	1	1	1	C	1	1	715	1	Ⴉ	cut_h_stereo_44KHz.wav
3	145	4	4	2	I	2	0	908	0	Ⴌ	cut_w_stereo_44KHz.wav
3	146	1	2	0	C	1	0	1231	0	Ⴉ	cut_g_stereo_44KHz.wav
3	147	2	1	0	C	2	1	391	1	Ⴐ	cut_h_stereo_44KHz.wav
3	148	3	3	2	I	2	0	441	1	Ⴖ	cut_l_stereo_44KHz.wav
3	149	2	2	1	C	2	0	486	0	Ⴐ	cut_g_stereo_44KHz.wav
3	150	3	4	2	I	1	0	444	1	Ⴖ	cut_w_stereo_44KHz.wav
3	151	1	1	1	C	2	0	411	0	Ⴉ	cut_h_stereo_44KHz.wav
3	152	4	3	2	I	1	0	454	1	Ⴌ	cut_l_stereo_44KHz.wav
3	153	2	1	0	C	2	1	405	1	Ⴐ	cut_h_stereo_44KHz.wav
3	154	1	2	0	C	1	0	1232	0	Ⴉ	cut_g_stereo_44KHz.wav
3	155	4	4	2	I	2	0	490	1	Ⴌ	cut_w_stereo_44KHz.wav
3	156	3	3	2	I	1	0	430	1	Ⴖ	cut_l_stereo_44KHz.wav
3	157	2	2	1	C	2	0	425	0	Ⴐ	cut_g_stereo_44KHz.wav
3	158	4	3	2	I	1	0	686	1	Ⴌ	cut_l_stereo_44KHz.wav
3	159	1	1	1	C	2	0	1050	0	Ⴉ	cut_h_stereo_44KHz.wav
3	160	3	4	2	I	2	0	511	0	Ⴖ	cut_w_stereo_44KHz.wav
3	161	4	4	2	I	1	0	930	1	Ⴌ	cut_w_stereo_44KHz.wav
3	162	3	4	2	I	2	0	951	0	Ⴖ	cut_w_stereo_44KHz.wav
3	163	1	2	0	C	2	1	602	1	Ⴉ	cut_g_stereo_44KHz.wav
3	164	2	1	0	C	2	1	655	1	Ⴐ	cut_h_stereo_44KHz.wav
3	165	4	3	2	I	1	0	548	1	Ⴌ	cut_l_stereo_44KHz.wav
3	166	1	1	1	C	2	0	1105	0	Ⴉ	cut_h_stereo_44KHz.wav
3	167	3	3	2	I	1	0	423	1	Ⴖ	cut_l_stereo_44KHz.wav
3	168	2	2	1	C	2	0	646	0	Ⴐ	cut_g_stereo_44KHz.wav
3	169	4	3	2	I	0	0	0	0	Ⴌ	cut_l_stereo_44KHz.wav
3	170	2	1	0	C	2	1	576	1	Ⴐ	cut_h_stereo_44KHz.wav
3	171	3	4	2	I	1	0	668	1	Ⴖ	cut_w_stereo_44KHz.wav
3	172	1	1	1	C	2	0	381	0	Ⴉ	cut_h_stereo_44KHz.wav
3	173	4	4	2	I	2	0	1173	0	Ⴌ	cut_w_stereo_44KHz.wav
3	174	2	2	1	C	1	1	493	1	Ⴐ	cut_g_stereo_44KHz.wav
3	175	1	2	0	C	2	1	1363	1	Ⴉ	cut_g_stereo_44KHz.wav
3	176	3	3	2	I	2	0	449	1	Ⴖ	cut_l_stereo_44KHz.wav
3	177	4	4	2	I	1	0	826	1	Ⴌ	cut_w_stereo_44KHz.wav
3	178	2	2	1	C	2	0	1300	0	Ⴐ	cut_g_stereo_44KHz.wav
3	179	3	4	2	I	1	0	856	1	Ⴖ	cut_w_stereo_44KHz.wav
3	180	1	1	1	C	2	0	695	0	Ⴉ	cut_h_stereo_44KHz.wav
3	181	2	1	0	C	1	0	672	0	Ⴐ	cut_h_stereo_44KHz.wav
3	182	4	3	2	I	2	0	1552	0	Ⴌ	cut_l_stereo_44KHz.wav
3	183	3	3	2	I	1	0	563	0	Ⴖ	cut_l_stereo_44KHz.wav
3	184	1	2	0	C	2	1	352	1	Ⴉ	cut_g_stereo_44KHz.wav
3	185	2	1	0	C	2	1	780	1	Ⴐ	cut_h_stereo_44KHz.wav
3	186	1	1	1	C	1	1	527	1	Ⴉ	cut_h_stereo_44KHz.wav
3	187	4	3	2	I	2	0	349	0	Ⴌ	cut_l_stereo_44KHz.wav
3	188	3	3	2	I	1	0	339	1	Ⴖ	cut_l_stereo_44KHz.wav
3	189	1	2	0	C	2	1	636	1	Ⴉ	cut_g_stereo_44KHz.wav
3	190	2	2	1	C	1	1	183	1	Ⴐ	cut_g_stereo_44KHz.wav
3	191	3	4	2	I	2	0	693	0	Ⴖ	cut_w_stereo_44KHz.wav
3	192	4	4	2	I	1	0	662	1	Ⴌ	cut_w_stereo_44KHz.wav
3	193	2	2	1	C	2	0	375	0	Ⴐ	cut_g_stereo_44KHz.wav
3	194	4	4	2	I	1	0	487	1	Ⴌ	cut_w_stereo_44KHz.wav
3	195	3	4	2	I	1	0	642	1	Ⴖ	cut_w_stereo_44KHz.wav
3	196	1	2	0	C	2	1	1028	1	Ⴉ	cut_g_stereo_44KHz.wav
3	197	2	1	0	C	2	1	780	1	Ⴐ	cut_h_stereo_44KHz.wav
3	198	4	3	2	I	2	0	844	1	Ⴌ	cut_l_stereo_44KHz.wav
3	199	3	3	2	I	1	0	735	1	Ⴖ	cut_l_stereo_44KHz.wav
3	200	1	1	1	C	2	0	343	0	Ⴉ	cut_h_stereo_44KHz.wav
