block	trial	Vstim	Astim	match	C/I	resp	result	RT	fb	V-file	A-file
LR

0	1	1	1	1	C	0	0	0	0	Ⴉ	cut_eeuw_stereo_44KHz.wav
0	2	2	4	0	C	2	0	1012	0	Ⴋ	cut_g_stereo_44KHz.wav
0	3	2	3	1	C	2	1	893	1	Ⴋ	cut_ee_stereo_44KHz.wav
0	4	1	2	0	C	1	1	1562	1	Ⴉ	cut_oo_stereo_44KHz.wav
0	5	2	3	1	C	2	1	1210	1	Ⴋ	cut_ee_stereo_44KHz.wav
0	6	1	1	1	C	1	0	681	0	Ⴉ	cut_eeuw_stereo_44KHz.wav
0	7	2	4	0	C	2	0	688	0	Ⴋ	cut_g_stereo_44KHz.wav
0	8	1	2	0	C	2	0	622	0	Ⴉ	cut_oo_stereo_44KHz.wav
0	9	2	3	1	C	2	1	631	1	Ⴋ	cut_ee_stereo_44KHz.wav
0	10	1	1	1	C	1	0	743	0	Ⴉ	cut_eeuw_stereo_44KHz.wav
0	11	1	2	0	C	2	0	580	0	Ⴉ	cut_oo_stereo_44KHz.wav
0	12	2	4	0	C	2	0	1094	0	Ⴋ	cut_g_stereo_44KHz.wav
0	13	1	1	1	C	1	0	1789	0	Ⴉ	cut_eeuw_stereo_44KHz.wav
0	14	1	2	0	C	2	0	167	0	Ⴉ	cut_oo_stereo_44KHz.wav
0	15	2	4	0	C	1	1	777	1	Ⴋ	cut_g_stereo_44KHz.wav
0	16	2	3	1	C	2	1	899	1	Ⴋ	cut_ee_stereo_44KHz.wav
0	17	1	1	1	C	1	0	994	0	Ⴉ	cut_eeuw_stereo_44KHz.wav
0	18	2	3	1	C	2	1	773	1	Ⴋ	cut_ee_stereo_44KHz.wav
0	19	2	4	0	C	1	1	1140	1	Ⴋ	cut_g_stereo_44KHz.wav
0	20	1	2	0	C	2	0	1105	0	Ⴉ	cut_oo_stereo_44KHz.wav
0	21	2	4	0	C	0	0	0	0	Ⴋ	cut_g_stereo_44KHz.wav
0	22	1	1	1	C	2	1	640	1	Ⴉ	cut_eeuw_stereo_44KHz.wav
0	23	2	3	1	C	1	0	1663	0	Ⴋ	cut_ee_stereo_44KHz.wav
0	24	1	2	0	C	2	0	1442	0	Ⴉ	cut_oo_stereo_44KHz.wav
0	25	2	3	1	C	1	0	566	0	Ⴋ	cut_ee_stereo_44KHz.wav
0	26	1	2	0	C	1	1	451	1	Ⴉ	cut_oo_stereo_44KHz.wav
0	27	2	4	0	C	2	0	28	0	Ⴋ	cut_g_stereo_44KHz.wav
0	28	1	1	1	C	2	1	698	1	Ⴉ	cut_eeuw_stereo_44KHz.wav
0	29	1	1	1	C	1	0	1077	0	Ⴉ	cut_eeuw_stereo_44KHz.wav
0	30	2	3	1	C	2	1	711	1	Ⴋ	cut_ee_stereo_44KHz.wav
avg_resp = 865
1	1	2	2	1	C	0	0	0	0	Ⴡ	cut_f_stereo_44KHz.wav
1	2	1	1	1	C	2	1	1221	1	Ⴂ	cut_n_stereo_44KHz.wav
1	3	3	4	2	I	1	0	1819	1	Ⴊ	cut_oei_stereo_44KHz.wav
1	4	4	4	2	I	2	0	1619	1	Ⴁ	cut_oei_stereo_44KHz.wav
1	5	3	3	2	I	0	0	0	0	Ⴊ	cut_ui_stereo_44KHz.wav
1	6	1	2	0	C	0	0	0	0	Ⴂ	cut_f_stereo_44KHz.wav
1	7	4	3	2	I	1	0	1001	1	Ⴁ	cut_ui_stereo_44KHz.wav
1	8	2	1	0	C	2	0	1296	0	Ⴡ	cut_n_stereo_44KHz.wav
1	9	3	4	2	I	2	0	1011	1	Ⴊ	cut_oei_stereo_44KHz.wav
1	10	1	1	1	C	1	0	1611	0	Ⴂ	cut_n_stereo_44KHz.wav
1	11	2	2	1	C	2	1	1152	1	Ⴡ	cut_f_stereo_44KHz.wav
1	12	4	3	2	I	2	0	1845	1	Ⴁ	cut_ui_stereo_44KHz.wav
1	13	1	2	0	C	1	1	1435	1	Ⴂ	cut_f_stereo_44KHz.wav
1	14	4	4	2	I	2	0	1305	1	Ⴁ	cut_oei_stereo_44KHz.wav
1	15	2	1	0	C	0	0	0	0	Ⴡ	cut_n_stereo_44KHz.wav
1	16	3	3	2	I	2	0	1150	0	Ⴊ	cut_ui_stereo_44KHz.wav
1	17	2	1	0	C	2	0	749	0	Ⴡ	cut_n_stereo_44KHz.wav
1	18	3	3	2	I	2	0	1586	0	Ⴊ	cut_ui_stereo_44KHz.wav
1	19	4	4	2	I	2	0	1034	0	Ⴁ	cut_oei_stereo_44KHz.wav
1	20	1	2	0	C	2	0	1245	0	Ⴂ	cut_f_stereo_44KHz.wav
1	21	4	3	2	I	2	0	1631	1	Ⴁ	cut_ui_stereo_44KHz.wav
1	22	3	4	2	I	1	0	1427	1	Ⴊ	cut_oei_stereo_44KHz.wav
1	23	1	1	1	C	2	1	1530	1	Ⴂ	cut_n_stereo_44KHz.wav
1	24	2	2	1	C	2	1	1626	1	Ⴡ	cut_f_stereo_44KHz.wav
1	25	3	4	2	I	2	0	894	1	Ⴊ	cut_oei_stereo_44KHz.wav
1	26	2	1	0	C	1	1	1796	1	Ⴡ	cut_n_stereo_44KHz.wav
1	27	4	4	2	I	2	0	1111	1	Ⴁ	cut_oei_stereo_44KHz.wav
1	28	1	1	1	C	2	1	1349	1	Ⴂ	cut_n_stereo_44KHz.wav
1	29	4	3	2	I	2	0	1675	1	Ⴁ	cut_ui_stereo_44KHz.wav
1	30	3	3	2	I	1	0	651	0	Ⴊ	cut_ui_stereo_44KHz.wav
1	31	2	2	1	C	2	1	907	1	Ⴡ	cut_f_stereo_44KHz.wav
1	32	1	2	0	C	2	0	936	0	Ⴂ	cut_f_stereo_44KHz.wav
1	33	4	3	2	I	2	0	1267	1	Ⴁ	cut_ui_stereo_44KHz.wav
1	34	3	4	2	I	1	0	422	1	Ⴊ	cut_oei_stereo_44KHz.wav
1	35	1	1	1	C	2	1	1488	1	Ⴂ	cut_n_stereo_44KHz.wav
1	36	2	2	1	C	2	1	1195	1	Ⴡ	cut_f_stereo_44KHz.wav
1	37	4	4	2	I	2	0	1031	1	Ⴁ	cut_oei_stereo_44KHz.wav
1	38	2	1	0	C	2	0	1632	0	Ⴡ	cut_n_stereo_44KHz.wav
1	39	3	3	2	I	2	0	958	1	Ⴊ	cut_ui_stereo_44KHz.wav
1	40	1	2	0	C	1	1	1184	1	Ⴂ	cut_f_stereo_44KHz.wav
1	41	4	4	2	I	2	0	713	1	Ⴁ	cut_oei_stereo_44KHz.wav
1	42	1	2	0	C	2	0	1096	0	Ⴂ	cut_f_stereo_44KHz.wav
1	43	3	4	2	I	2	0	864	1	Ⴊ	cut_oei_stereo_44KHz.wav
1	44	2	1	0	C	1	1	1574	1	Ⴡ	cut_n_stereo_44KHz.wav
1	45	1	1	1	C	2	1	1074	1	Ⴂ	cut_n_stereo_44KHz.wav
1	46	3	3	2	I	2	0	1407	0	Ⴊ	cut_ui_stereo_44KHz.wav
1	47	2	2	1	C	2	1	1431	1	Ⴡ	cut_f_stereo_44KHz.wav
1	48	4	3	2	I	2	0	852	1	Ⴁ	cut_ui_stereo_44KHz.wav
1	49	1	2	0	C	2	0	951	0	Ⴂ	cut_f_stereo_44KHz.wav
1	50	4	4	2	I	2	0	814	1	Ⴁ	cut_oei_stereo_44KHz.wav
1	51	2	1	0	C	2	0	1206	0	Ⴡ	cut_n_stereo_44KHz.wav
1	52	3	3	2	I	2	0	1335	1	Ⴊ	cut_ui_stereo_44KHz.wav
1	53	4	3	2	I	2	0	961	0	Ⴁ	cut_ui_stereo_44KHz.wav
1	54	2	2	1	C	1	0	1242	0	Ⴡ	cut_f_stereo_44KHz.wav
1	55	3	4	2	I	2	0	1062	1	Ⴊ	cut_oei_stereo_44KHz.wav
1	56	1	1	1	C	2	1	1009	1	Ⴂ	cut_n_stereo_44KHz.wav
1	57	2	1	0	C	1	1	814	1	Ⴡ	cut_n_stereo_44KHz.wav
1	58	1	1	1	C	2	1	1008	1	Ⴂ	cut_n_stereo_44KHz.wav
1	59	4	4	2	I	2	0	854	1	Ⴁ	cut_oei_stereo_44KHz.wav
1	60	3	3	2	I	1	0	1526	1	Ⴊ	cut_ui_stereo_44KHz.wav
1	61	1	2	0	C	2	0	703	0	Ⴂ	cut_f_stereo_44KHz.wav
1	62	2	2	1	C	1	0	1203	0	Ⴡ	cut_f_stereo_44KHz.wav
1	63	4	3	2	I	2	0	655	1	Ⴁ	cut_ui_stereo_44KHz.wav
1	64	3	4	2	I	2	0	1331	1	Ⴊ	cut_oei_stereo_44KHz.wav
1	65	2	1	0	C	1	1	1192	1	Ⴡ	cut_n_stereo_44KHz.wav
1	66	1	1	1	C	1	0	1390	0	Ⴂ	cut_n_stereo_44KHz.wav
1	67	4	3	2	I	2	0	821	1	Ⴁ	cut_ui_stereo_44KHz.wav
1	68	3	4	2	I	1	0	1583	1	Ⴊ	cut_oei_stereo_44KHz.wav
1	69	2	2	1	C	2	1	1483	1	Ⴡ	cut_f_stereo_44KHz.wav
1	70	3	3	2	I	2	0	598	1	Ⴊ	cut_ui_stereo_44KHz.wav
1	71	1	2	0	C	1	1	790	1	Ⴂ	cut_f_stereo_44KHz.wav
1	72	4	4	2	I	2	0	747	1	Ⴁ	cut_oei_stereo_44KHz.wav
1	73	2	2	1	C	2	1	1529	1	Ⴡ	cut_f_stereo_44KHz.wav
1	74	3	3	2	I	1	0	1025	1	Ⴊ	cut_ui_stereo_44KHz.wav
1	75	1	1	1	C	1	0	1280	0	Ⴂ	cut_n_stereo_44KHz.wav
1	76	4	3	2	I	2	0	1119	1	Ⴁ	cut_ui_stereo_44KHz.wav
1	77	2	1	0	C	1	1	1256	1	Ⴡ	cut_n_stereo_44KHz.wav
1	78	4	4	2	I	2	0	597	1	Ⴁ	cut_oei_stereo_44KHz.wav
1	79	3	4	2	I	1	0	1075	1	Ⴊ	cut_oei_stereo_44KHz.wav
1	80	1	2	0	C	2	0	763	0	Ⴂ	cut_f_stereo_44KHz.wav
1	81	2	2	1	C	2	1	1327	1	Ⴡ	cut_f_stereo_44KHz.wav
1	82	3	4	2	I	1	0	657	0	Ⴊ	cut_oei_stereo_44KHz.wav
1	83	1	2	0	C	2	0	37	0	Ⴂ	cut_f_stereo_44KHz.wav
1	84	4	4	2	I	1	0	788	1	Ⴁ	cut_oei_stereo_44KHz.wav
1	85	2	1	0	C	1	1	1374	1	Ⴡ	cut_n_stereo_44KHz.wav
1	86	1	1	1	C	2	1	1364	1	Ⴂ	cut_n_stereo_44KHz.wav
1	87	3	3	2	I	2	0	1671	1	Ⴊ	cut_ui_stereo_44KHz.wav
1	88	4	3	2	I	1	0	1574	0	Ⴁ	cut_ui_stereo_44KHz.wav
1	89	3	3	2	I	0	0	0	0	Ⴊ	cut_ui_stereo_44KHz.wav
1	90	1	2	0	C	1	1	1416	1	Ⴂ	cut_f_stereo_44KHz.wav
1	91	4	3	2	I	2	0	1266	1	Ⴁ	cut_ui_stereo_44KHz.wav
1	92	2	2	1	C	1	0	1469	0	Ⴡ	cut_f_stereo_44KHz.wav
1	93	4	4	2	I	2	0	953	1	Ⴁ	cut_oei_stereo_44KHz.wav
1	94	2	1	0	C	1	1	1941	1	Ⴡ	cut_n_stereo_44KHz.wav
1	95	1	1	1	C	2	1	691	1	Ⴂ	cut_n_stereo_44KHz.wav
1	96	3	4	2	I	1	0	1270	1	Ⴊ	cut_oei_stereo_44KHz.wav
1	97	4	4	2	I	2	0	958	1	Ⴁ	cut_oei_stereo_44KHz.wav
1	98	1	1	1	C	1	0	1526	0	Ⴂ	cut_n_stereo_44KHz.wav
1	99	2	1	0	C	2	0	636	0	Ⴡ	cut_n_stereo_44KHz.wav
1	100	3	3	2	I	0	0	0	0	Ⴊ	cut_ui_stereo_44KHz.wav
1	101	1	2	0	C	2	0	584	0	Ⴂ	cut_f_stereo_44KHz.wav
1	102	2	2	1	C	2	1	1404	1	Ⴡ	cut_f_stereo_44KHz.wav
1	103	3	4	2	I	1	0	1361	1	Ⴊ	cut_oei_stereo_44KHz.wav
1	104	4	3	2	I	2	0	1366	1	Ⴁ	cut_ui_stereo_44KHz.wav
1	105	3	3	2	I	2	0	1241	1	Ⴊ	cut_ui_stereo_44KHz.wav
1	106	1	2	0	C	1	1	1733	1	Ⴂ	cut_f_stereo_44KHz.wav
1	107	4	4	2	I	2	0	1088	0	Ⴁ	cut_oei_stereo_44KHz.wav
1	108	2	1	0	C	1	1	1581	1	Ⴡ	cut_n_stereo_44KHz.wav
1	109	1	1	1	C	2	1	1760	1	Ⴂ	cut_n_stereo_44KHz.wav
1	110	3	4	2	I	1	0	1709	1	Ⴊ	cut_oei_stereo_44KHz.wav
1	111	2	2	1	C	0	0	0	0	Ⴡ	cut_f_stereo_44KHz.wav
1	112	4	3	2	I	1	0	1379	0	Ⴁ	cut_ui_stereo_44KHz.wav
1	113	1	1	1	C	2	1	1050	1	Ⴂ	cut_n_stereo_44KHz.wav
1	114	2	2	1	C	2	1	1151	1	Ⴡ	cut_f_stereo_44KHz.wav
1	115	3	3	2	I	1	0	1497	1	Ⴊ	cut_ui_stereo_44KHz.wav
1	116	4	4	2	I	2	0	1032	0	Ⴁ	cut_oei_stereo_44KHz.wav
1	117	2	1	0	C	1	1	1638	1	Ⴡ	cut_n_stereo_44KHz.wav
1	118	1	2	0	C	1	1	1293	1	Ⴂ	cut_f_stereo_44KHz.wav
1	119	4	3	2	I	2	0	932	1	Ⴁ	cut_ui_stereo_44KHz.wav
1	120	3	4	2	I	1	0	1302	1	Ⴊ	cut_oei_stereo_44KHz.wav
1	121	1	2	0	C	1	1	1181	1	Ⴂ	cut_f_stereo_44KHz.wav
1	122	3	3	2	I	2	0	1353	1	Ⴊ	cut_ui_stereo_44KHz.wav
1	123	2	2	1	C	2	1	1685	1	Ⴡ	cut_f_stereo_44KHz.wav
1	124	4	3	2	I	1	0	1176	0	Ⴁ	cut_ui_stereo_44KHz.wav
1	125	1	1	1	C	2	1	1680	1	Ⴂ	cut_n_stereo_44KHz.wav
1	126	3	4	2	I	1	0	1315	0	Ⴊ	cut_oei_stereo_44KHz.wav
1	127	2	1	0	C	1	1	1529	1	Ⴡ	cut_n_stereo_44KHz.wav
1	128	4	4	2	I	2	0	1416	1	Ⴁ	cut_oei_stereo_44KHz.wav
1	129	2	1	0	C	1	1	1209	1	Ⴡ	cut_n_stereo_44KHz.wav
1	130	4	4	2	I	2	0	1273	1	Ⴁ	cut_oei_stereo_44KHz.wav
1	131	3	3	2	I	1	0	1086	0	Ⴊ	cut_ui_stereo_44KHz.wav
1	132	1	1	1	C	1	0	1767	0	Ⴂ	cut_n_stereo_44KHz.wav
1	133	4	3	2	I	2	0	1129	0	Ⴁ	cut_ui_stereo_44KHz.wav
1	134	3	4	2	I	1	0	1185	1	Ⴊ	cut_oei_stereo_44KHz.wav
1	135	2	2	1	C	2	1	1340	1	Ⴡ	cut_f_stereo_44KHz.wav
1	136	1	2	0	C	1	1	1018	1	Ⴂ	cut_f_stereo_44KHz.wav
1	137	4	3	2	I	2	0	921	1	Ⴁ	cut_ui_stereo_44KHz.wav
1	138	2	1	0	C	0	0	0	0	Ⴡ	cut_n_stereo_44KHz.wav
1	139	1	1	1	C	0	0	0	0	Ⴂ	cut_n_stereo_44KHz.wav
1	140	3	3	2	I	2	0	791	1	Ⴊ	cut_ui_stereo_44KHz.wav
1	141	4	4	2	I	2	0	1439	1	Ⴁ	cut_oei_stereo_44KHz.wav
1	142	2	2	1	C	0	0	0	0	Ⴡ	cut_f_stereo_44KHz.wav
1	143	3	4	2	I	2	0	1352	1	Ⴊ	cut_oei_stereo_44KHz.wav
1	144	1	2	0	C	1	1	1290	1	Ⴂ	cut_f_stereo_44KHz.wav
1	145	4	3	2	I	2	0	1646	1	Ⴁ	cut_ui_stereo_44KHz.wav
1	146	2	2	1	C	2	1	1618	1	Ⴡ	cut_f_stereo_44KHz.wav
1	147	1	2	0	C	1	1	907	1	Ⴂ	cut_f_stereo_44KHz.wav
1	148	3	4	2	I	1	0	1010	1	Ⴊ	cut_oei_stereo_44KHz.wav
1	149	2	1	0	C	1	1	1364	1	Ⴡ	cut_n_stereo_44KHz.wav
1	150	4	4	2	I	2	0	1546	1	Ⴁ	cut_oei_stereo_44KHz.wav
1	151	3	3	2	I	2	0	734	1	Ⴊ	cut_ui_stereo_44KHz.wav
1	152	1	1	1	C	1	0	1221	0	Ⴂ	cut_n_stereo_44KHz.wav
1	153	2	2	1	C	1	0	1235	0	Ⴡ	cut_f_stereo_44KHz.wav
1	154	3	3	2	I	2	0	1055	1	Ⴊ	cut_ui_stereo_44KHz.wav
1	155	4	4	2	I	1	0	651	1	Ⴁ	cut_oei_stereo_44KHz.wav
1	156	1	2	0	C	1	1	1186	1	Ⴂ	cut_f_stereo_44KHz.wav
1	157	2	1	0	C	1	1	1128	1	Ⴡ	cut_n_stereo_44KHz.wav
1	158	4	3	2	I	1	0	832	1	Ⴁ	cut_ui_stereo_44KHz.wav
1	159	3	4	2	I	1	0	1191	1	Ⴊ	cut_oei_stereo_44KHz.wav
1	160	1	1	1	C	2	1	1376	1	Ⴂ	cut_n_stereo_44KHz.wav
1	161	3	4	2	I	1	0	814	1	Ⴊ	cut_oei_stereo_44KHz.wav
1	162	1	2	0	C	1	1	967	1	Ⴂ	cut_f_stereo_44KHz.wav
1	163	2	2	1	C	2	1	1202	1	Ⴡ	cut_f_stereo_44KHz.wav
1	164	4	4	2	I	2	0	851	1	Ⴁ	cut_oei_stereo_44KHz.wav
1	165	1	1	1	C	2	1	1076	1	Ⴂ	cut_n_stereo_44KHz.wav
1	166	2	1	0	C	1	1	1034	1	Ⴡ	cut_n_stereo_44KHz.wav
1	167	4	3	2	I	2	0	1276	1	Ⴁ	cut_ui_stereo_44KHz.wav
1	168	3	3	2	I	0	0	0	0	Ⴊ	cut_ui_stereo_44KHz.wav
1	169	4	4	2	I	2	0	1571	1	Ⴁ	cut_oei_stereo_44KHz.wav
1	170	2	1	0	C	1	1	1222	1	Ⴡ	cut_n_stereo_44KHz.wav
1	171	3	4	2	I	1	0	988	1	Ⴊ	cut_oei_stereo_44KHz.wav
1	172	1	2	0	C	1	1	944	1	Ⴂ	cut_f_stereo_44KHz.wav
1	173	3	3	2	I	1	0	791	0	Ⴊ	cut_ui_stereo_44KHz.wav
1	174	4	3	2	I	1	0	1290	0	Ⴁ	cut_ui_stereo_44KHz.wav
1	175	1	1	1	C	2	1	1064	1	Ⴂ	cut_n_stereo_44KHz.wav
1	176	2	2	1	C	1	0	1137	0	Ⴡ	cut_f_stereo_44KHz.wav
1	177	1	1	1	C	2	1	1094	1	Ⴂ	cut_n_stereo_44KHz.wav
1	178	2	1	0	C	1	1	1598	1	Ⴡ	cut_n_stereo_44KHz.wav
1	179	3	4	2	I	0	0	0	0	Ⴊ	cut_oei_stereo_44KHz.wav
1	180	4	3	2	I	1	0	1812	1	Ⴁ	cut_ui_stereo_44KHz.wav
1	181	1	2	0	C	1	1	1413	1	Ⴂ	cut_f_stereo_44KHz.wav
1	182	2	2	1	C	2	1	821	1	Ⴡ	cut_f_stereo_44KHz.wav
1	183	3	3	2	I	2	0	1240	0	Ⴊ	cut_ui_stereo_44KHz.wav
1	184	4	4	2	I	2	0	1956	1	Ⴁ	cut_oei_stereo_44KHz.wav
1	185	3	3	2	I	1	0	977	1	Ⴊ	cut_ui_stereo_44KHz.wav
1	186	2	2	1	C	2	1	1436	1	Ⴡ	cut_f_stereo_44KHz.wav
1	187	1	2	0	C	1	1	1501	1	Ⴂ	cut_f_stereo_44KHz.wav
1	188	4	3	2	I	2	0	1074	1	Ⴁ	cut_ui_stereo_44KHz.wav
1	189	2	1	0	C	2	0	1503	0	Ⴡ	cut_n_stereo_44KHz.wav
1	190	4	4	2	I	0	0	0	0	Ⴁ	cut_oei_stereo_44KHz.wav
1	191	1	1	1	C	2	1	1642	1	Ⴂ	cut_n_stereo_44KHz.wav
1	192	3	4	2	I	1	0	1311	1	Ⴊ	cut_oei_stereo_44KHz.wav
1	193	4	4	2	I	2	0	1530	0	Ⴁ	cut_oei_stereo_44KHz.wav
1	194	3	4	2	I	2	0	1063	1	Ⴊ	cut_oei_stereo_44KHz.wav
1	195	1	2	0	C	1	1	1877	1	Ⴂ	cut_f_stereo_44KHz.wav
1	196	2	1	0	C	1	1	1250	1	Ⴡ	cut_n_stereo_44KHz.wav
1	197	4	3	2	I	1	0	1314	1	Ⴁ	cut_ui_stereo_44KHz.wav
1	198	2	2	1	C	2	1	1283	1	Ⴡ	cut_f_stereo_44KHz.wav
1	199	1	1	1	C	2	1	1286	1	Ⴂ	cut_n_stereo_44KHz.wav
1	200	3	3	2	I	1	0	1273	1	Ⴊ	cut_ui_stereo_44KHz.wav
2	1	3	3	2	I	2	0	1470	1	Ⴖ	cut_r_stereo_44KHz.wav
2	2	1	1	1	C	1	0	1043	0	Ⴒ	cut_j_stereo_44KHz.wav
2	3	4	4	2	I	2	0	1875	1	Ⴏ	cut_s_stereo_44KHz.wav
2	4	2	2	1	C	1	0	1059	0	Ⴌ	cut_ei_stereo_44KHz.wav
2	5	4	3	2	I	2	0	677	1	Ⴏ	cut_r_stereo_44KHz.wav
2	6	2	1	0	C	1	1	835	1	Ⴌ	cut_j_stereo_44KHz.wav
2	7	1	2	0	C	2	0	746	0	Ⴒ	cut_ei_stereo_44KHz.wav
2	8	3	4	2	I	2	0	1495	0	Ⴖ	cut_s_stereo_44KHz.wav
2	9	1	1	1	C	1	0	1127	0	Ⴒ	cut_j_stereo_44KHz.wav
2	10	2	2	1	C	2	1	1711	1	Ⴌ	cut_ei_stereo_44KHz.wav
2	11	3	3	2	I	1	0	1291	0	Ⴖ	cut_r_stereo_44KHz.wav
2	12	4	3	2	I	2	0	1469	0	Ⴏ	cut_r_stereo_44KHz.wav
2	13	3	4	2	I	1	0	1508	1	Ⴖ	cut_s_stereo_44KHz.wav
2	14	1	2	0	C	2	0	983	0	Ⴒ	cut_ei_stereo_44KHz.wav
2	15	4	4	2	I	2	0	1212	1	Ⴏ	cut_s_stereo_44KHz.wav
2	16	2	1	0	C	1	1	1434	1	Ⴌ	cut_j_stereo_44KHz.wav
2	17	4	3	2	I	1	0	1002	1	Ⴏ	cut_r_stereo_44KHz.wav
2	18	3	4	2	I	1	0	1811	1	Ⴖ	cut_s_stereo_44KHz.wav
2	19	1	1	1	C	2	1	1020	1	Ⴒ	cut_j_stereo_44KHz.wav
2	20	2	2	1	C	1	0	931	0	Ⴌ	cut_ei_stereo_44KHz.wav
2	21	4	4	2	I	2	0	985	1	Ⴏ	cut_s_stereo_44KHz.wav
2	22	3	3	2	I	1	0	793	1	Ⴖ	cut_r_stereo_44KHz.wav
2	23	1	2	0	C	2	0	682	0	Ⴒ	cut_ei_stereo_44KHz.wav
2	24	2	1	0	C	1	1	1447	1	Ⴌ	cut_j_stereo_44KHz.wav
2	25	4	4	2	I	2	0	1491	1	Ⴏ	cut_s_stereo_44KHz.wav
2	26	2	2	1	C	1	0	1117	0	Ⴌ	cut_ei_stereo_44KHz.wav
2	27	1	1	1	C	2	1	1088	1	Ⴒ	cut_j_stereo_44KHz.wav
2	28	3	3	2	I	1	0	1314	0	Ⴖ	cut_r_stereo_44KHz.wav
2	29	2	1	0	C	1	1	1422	1	Ⴌ	cut_j_stereo_44KHz.wav
2	30	4	3	2	I	2	0	847	0	Ⴏ	cut_r_stereo_44KHz.wav
2	31	3	4	2	I	1	0	1245	1	Ⴖ	cut_s_stereo_44KHz.wav
2	32	1	2	0	C	0	0	0	0	Ⴒ	cut_ei_stereo_44KHz.wav
2	33	2	1	0	C	1	1	1808	1	Ⴌ	cut_j_stereo_44KHz.wav
2	34	1	1	1	C	2	1	1618	1	Ⴒ	cut_j_stereo_44KHz.wav
2	35	3	3	2	I	2	0	1375	0	Ⴖ	cut_r_stereo_44KHz.wav
2	36	4	4	2	I	2	0	1237	1	Ⴏ	cut_s_stereo_44KHz.wav
2	37	3	4	2	I	1	0	1064	1	Ⴖ	cut_s_stereo_44KHz.wav
2	38	2	2	1	C	2	1	1219	1	Ⴌ	cut_ei_stereo_44KHz.wav
2	39	4	3	2	I	1	0	1329	1	Ⴏ	cut_r_stereo_44KHz.wav
2	40	1	2	0	C	2	0	851	0	Ⴒ	cut_ei_stereo_44KHz.wav
2	41	2	1	0	C	2	0	1352	0	Ⴌ	cut_j_stereo_44KHz.wav
2	42	4	3	2	I	1	0	875	1	Ⴏ	cut_r_stereo_44KHz.wav
2	43	1	2	0	C	1	1	842	1	Ⴒ	cut_ei_stereo_44KHz.wav
2	44	3	3	2	I	2	0	1100	1	Ⴖ	cut_r_stereo_44KHz.wav
2	45	2	2	1	C	2	1	1537	1	Ⴌ	cut_ei_stereo_44KHz.wav
2	46	1	1	1	C	1	0	609	0	Ⴒ	cut_j_stereo_44KHz.wav
2	47	3	4	2	I	2	0	831	1	Ⴖ	cut_s_stereo_44KHz.wav
2	48	4	4	2	I	2	0	1056	1	Ⴏ	cut_s_stereo_44KHz.wav
2	49	3	3	2	I	1	0	1977	1	Ⴖ	cut_r_stereo_44KHz.wav
2	50	1	2	0	C	2	0	1313	0	Ⴒ	cut_ei_stereo_44KHz.wav
2	51	4	3	2	I	1	0	1019	0	Ⴏ	cut_r_stereo_44KHz.wav
2	52	2	2	1	C	2	1	1011	1	Ⴌ	cut_ei_stereo_44KHz.wav
2	53	4	4	2	I	1	0	1042	1	Ⴏ	cut_s_stereo_44KHz.wav
2	54	3	4	2	I	2	0	1194	1	Ⴖ	cut_s_stereo_44KHz.wav
2	55	1	1	1	C	1	0	1237	0	Ⴒ	cut_j_stereo_44KHz.wav
2	56	2	1	0	C	2	0	570	0	Ⴌ	cut_j_stereo_44KHz.wav
2	57	4	4	2	I	2	0	1511	1	Ⴏ	cut_s_stereo_44KHz.wav
2	58	1	1	1	C	1	0	1197	0	Ⴒ	cut_j_stereo_44KHz.wav
2	59	2	1	0	C	2	0	1049	0	Ⴌ	cut_j_stereo_44KHz.wav
2	60	3	3	2	I	0	0	0	0	Ⴖ	cut_r_stereo_44KHz.wav
2	61	2	2	1	C	2	1	939	1	Ⴌ	cut_ei_stereo_44KHz.wav
2	62	4	3	2	I	1	0	1709	1	Ⴏ	cut_r_stereo_44KHz.wav
2	63	1	2	0	C	2	0	857	0	Ⴒ	cut_ei_stereo_44KHz.wav
2	64	3	4	2	I	1	0	1576	1	Ⴖ	cut_s_stereo_44KHz.wav
2	65	2	1	0	C	2	0	1146	0	Ⴌ	cut_j_stereo_44KHz.wav
2	66	4	4	2	I	1	0	1021	1	Ⴏ	cut_s_stereo_44KHz.wav
2	67	1	1	1	C	1	0	852	0	Ⴒ	cut_j_stereo_44KHz.wav
2	68	3	4	2	I	2	0	690	0	Ⴖ	cut_s_stereo_44KHz.wav
2	69	4	3	2	I	2	0	900	1	Ⴏ	cut_r_stereo_44KHz.wav
2	70	1	2	0	C	2	0	937	0	Ⴒ	cut_ei_stereo_44KHz.wav
2	71	2	2	1	C	2	1	812	1	Ⴌ	cut_ei_stereo_44KHz.wav
2	72	3	3	2	I	1	0	809	1	Ⴖ	cut_r_stereo_44KHz.wav
2	73	2	1	0	C	2	0	1257	0	Ⴌ	cut_j_stereo_44KHz.wav
2	74	3	3	2	I	0	0	0	0	Ⴖ	cut_r_stereo_44KHz.wav
2	75	4	3	2	I	0	0	0	0	Ⴏ	cut_r_stereo_44KHz.wav
2	76	1	2	0	C	2	0	1729	0	Ⴒ	cut_ei_stereo_44KHz.wav
2	77	4	4	2	I	2	0	1240	0	Ⴏ	cut_s_stereo_44KHz.wav
2	78	1	1	1	C	1	0	1155	0	Ⴒ	cut_j_stereo_44KHz.wav
2	79	3	4	2	I	2	0	778	1	Ⴖ	cut_s_stereo_44KHz.wav
2	80	2	2	1	C	1	0	573	0	Ⴌ	cut_ei_stereo_44KHz.wav
2	81	4	4	2	I	2	0	789	1	Ⴏ	cut_s_stereo_44KHz.wav
2	82	2	1	0	C	1	1	708	1	Ⴌ	cut_j_stereo_44KHz.wav
2	83	3	3	2	I	2	0	405	1	Ⴖ	cut_r_stereo_44KHz.wav
2	84	1	1	1	C	1	0	841	0	Ⴒ	cut_j_stereo_44KHz.wav
2	85	3	4	2	I	2	0	571	1	Ⴖ	cut_s_stereo_44KHz.wav
2	86	2	2	1	C	1	0	1090	0	Ⴌ	cut_ei_stereo_44KHz.wav
2	87	4	3	2	I	2	0	974	1	Ⴏ	cut_r_stereo_44KHz.wav
2	88	1	2	0	C	2	0	1186	0	Ⴒ	cut_ei_stereo_44KHz.wav
2	89	3	4	2	I	0	0	0	0	Ⴖ	cut_s_stereo_44KHz.wav
2	90	1	1	1	C	1	0	1188	0	Ⴒ	cut_j_stereo_44KHz.wav
2	91	4	4	2	I	2	0	822	0	Ⴏ	cut_s_stereo_44KHz.wav
2	92	2	2	1	C	1	0	706	0	Ⴌ	cut_ei_stereo_44KHz.wav
2	93	1	2	0	C	2	0	718	0	Ⴒ	cut_ei_stereo_44KHz.wav
2	94	2	1	0	C	1	1	1566	1	Ⴌ	cut_j_stereo_44KHz.wav
2	95	3	3	2	I	2	0	1568	1	Ⴖ	cut_r_stereo_44KHz.wav
2	96	4	3	2	I	1	0	1131	1	Ⴏ	cut_r_stereo_44KHz.wav
2	97	2	2	1	C	2	1	1057	1	Ⴌ	cut_ei_stereo_44KHz.wav
2	98	1	1	1	C	2	1	1558	1	Ⴒ	cut_j_stereo_44KHz.wav
2	99	4	4	2	I	2	0	1343	1	Ⴏ	cut_s_stereo_44KHz.wav
2	100	3	3	2	I	1	0	1622	0	Ⴖ	cut_r_stereo_44KHz.wav
2	101	4	3	2	I	1	0	1261	0	Ⴏ	cut_r_stereo_44KHz.wav
2	102	3	4	2	I	2	0	979	1	Ⴖ	cut_s_stereo_44KHz.wav
2	103	2	1	0	C	1	1	924	1	Ⴌ	cut_j_stereo_44KHz.wav
2	104	1	2	0	C	2	0	1151	0	Ⴒ	cut_ei_stereo_44KHz.wav
2	105	3	4	2	I	2	0	838	1	Ⴖ	cut_s_stereo_44KHz.wav
2	106	4	3	2	I	2	0	723	1	Ⴏ	cut_r_stereo_44KHz.wav
2	107	2	1	0	C	1	1	1076	1	Ⴌ	cut_j_stereo_44KHz.wav
2	108	1	1	1	C	2	1	1124	1	Ⴒ	cut_j_stereo_44KHz.wav
2	109	4	4	2	I	2	0	896	1	Ⴏ	cut_s_stereo_44KHz.wav
2	110	3	3	2	I	2	0	1226	1	Ⴖ	cut_r_stereo_44KHz.wav
2	111	1	2	0	C	1	1	998	1	Ⴒ	cut_ei_stereo_44KHz.wav
2	112	2	2	1	C	2	1	574	1	Ⴌ	cut_ei_stereo_44KHz.wav
2	113	1	2	0	C	2	0	1148	0	Ⴒ	cut_ei_stereo_44KHz.wav
2	114	3	3	2	I	2	0	558	1	Ⴖ	cut_r_stereo_44KHz.wav
2	115	4	3	2	I	1	0	1168	1	Ⴏ	cut_r_stereo_44KHz.wav
2	116	2	2	1	C	2	1	371	1	Ⴌ	cut_ei_stereo_44KHz.wav
2	117	4	4	2	I	2	0	858	0	Ⴏ	cut_s_stereo_44KHz.wav
2	118	2	1	0	C	2	0	1224	0	Ⴌ	cut_j_stereo_44KHz.wav
2	119	3	4	2	I	1	0	415	1	Ⴖ	cut_s_stereo_44KHz.wav
2	120	1	1	1	C	2	1	711	1	Ⴒ	cut_j_stereo_44KHz.wav
2	121	3	4	2	I	1	0	904	0	Ⴖ	cut_s_stereo_44KHz.wav
2	122	4	4	2	I	2	0	374	1	Ⴏ	cut_s_stereo_44KHz.wav
2	123	1	2	0	C	2	0	680	0	Ⴒ	cut_ei_stereo_44KHz.wav
2	124	2	2	1	C	1	0	1313	0	Ⴌ	cut_ei_stereo_44KHz.wav
2	125	3	3	2	I	2	0	1339	1	Ⴖ	cut_r_stereo_44KHz.wav
2	126	2	1	0	C	2	0	1045	0	Ⴌ	cut_j_stereo_44KHz.wav
2	127	1	1	1	C	2	1	1252	1	Ⴒ	cut_j_stereo_44KHz.wav
2	128	4	3	2	I	1	0	1388	1	Ⴏ	cut_r_stereo_44KHz.wav
2	129	1	1	1	C	0	0	0	0	Ⴒ	cut_j_stereo_44KHz.wav
2	130	4	3	2	I	2	0	466	1	Ⴏ	cut_r_stereo_44KHz.wav
2	131	3	3	2	I	2	0	1344	1	Ⴖ	cut_r_stereo_44KHz.wav
2	132	2	2	1	C	2	1	1451	1	Ⴌ	cut_ei_stereo_44KHz.wav
2	133	3	4	2	I	2	0	708	1	Ⴖ	cut_s_stereo_44KHz.wav
2	134	2	1	0	C	2	0	1111	0	Ⴌ	cut_j_stereo_44KHz.wav
2	135	4	4	2	I	1	0	1281	1	Ⴏ	cut_s_stereo_44KHz.wav
2	136	1	2	0	C	0	0	0	0	Ⴒ	cut_ei_stereo_44KHz.wav
2	137	2	2	1	C	0	0	0	0	Ⴌ	cut_ei_stereo_44KHz.wav
2	138	1	2	0	C	2	0	944	0	Ⴒ	cut_ei_stereo_44KHz.wav
2	139	3	4	2	I	2	0	1038	1	Ⴖ	cut_s_stereo_44KHz.wav
2	140	4	4	2	I	2	0	1239	1	Ⴏ	cut_s_stereo_44KHz.wav
2	141	3	3	2	I	1	0	1481	1	Ⴖ	cut_r_stereo_44KHz.wav
2	142	4	3	2	I	2	0	1298	1	Ⴏ	cut_r_stereo_44KHz.wav
2	143	2	1	0	C	0	0	0	0	Ⴌ	cut_j_stereo_44KHz.wav
2	144	1	1	1	C	2	1	1532	1	Ⴒ	cut_j_stereo_44KHz.wav
2	145	2	2	1	C	1	0	1325	0	Ⴌ	cut_ei_stereo_44KHz.wav
2	146	3	4	2	I	2	0	1069	1	Ⴖ	cut_s_stereo_44KHz.wav
2	147	4	4	2	I	1	0	1673	1	Ⴏ	cut_s_stereo_44KHz.wav
2	148	1	2	0	C	2	0	1360	0	Ⴒ	cut_ei_stereo_44KHz.wav
2	149	2	1	0	C	0	0	0	0	Ⴌ	cut_j_stereo_44KHz.wav
2	150	4	3	2	I	1	0	1587	1	Ⴏ	cut_r_stereo_44KHz.wav
2	151	1	1	1	C	2	1	1142	1	Ⴒ	cut_j_stereo_44KHz.wav
2	152	3	3	2	I	1	0	1887	1	Ⴖ	cut_r_stereo_44KHz.wav
2	153	4	3	2	I	1	0	1178	1	Ⴏ	cut_r_stereo_44KHz.wav
2	154	2	1	0	C	2	0	891	0	Ⴌ	cut_j_stereo_44KHz.wav
2	155	1	2	0	C	0	0	0	0	Ⴒ	cut_ei_stereo_44KHz.wav
2	156	3	4	2	I	0	0	0	0	Ⴖ	cut_s_stereo_44KHz.wav
2	157	2	2	1	C	2	1	1140	1	Ⴌ	cut_ei_stereo_44KHz.wav
2	158	4	4	2	I	2	0	1587	0	Ⴏ	cut_s_stereo_44KHz.wav
2	159	3	3	2	I	1	0	945	1	Ⴖ	cut_r_stereo_44KHz.wav
2	160	1	1	1	C	2	1	426	1	Ⴒ	cut_j_stereo_44KHz.wav
2	161	2	2	1	C	1	0	1222	0	Ⴌ	cut_ei_stereo_44KHz.wav
2	162	3	4	2	I	2	0	798	0	Ⴖ	cut_s_stereo_44KHz.wav
2	163	1	1	1	C	2	1	1534	1	Ⴒ	cut_j_stereo_44KHz.wav
2	164	4	3	2	I	1	0	1111	1	Ⴏ	cut_r_stereo_44KHz.wav
2	165	2	1	0	C	1	1	1413	1	Ⴌ	cut_j_stereo_44KHz.wav
2	166	1	2	0	C	2	0	421	0	Ⴒ	cut_ei_stereo_44KHz.wav
2	167	4	4	2	I	2	0	1331	1	Ⴏ	cut_s_stereo_44KHz.wav
2	168	3	3	2	I	2	0	854	1	Ⴖ	cut_r_stereo_44KHz.wav
2	169	4	4	2	I	2	0	848	0	Ⴏ	cut_s_stereo_44KHz.wav
2	170	1	2	0	C	0	0	0	0	Ⴒ	cut_ei_stereo_44KHz.wav
2	171	3	4	2	I	0	0	0	0	Ⴖ	cut_s_stereo_44KHz.wav
2	172	2	1	0	C	1	1	1028	1	Ⴌ	cut_j_stereo_44KHz.wav
2	173	3	3	2	I	2	0	956	1	Ⴖ	cut_r_stereo_44KHz.wav
2	174	1	1	1	C	2	1	995	1	Ⴒ	cut_j_stereo_44KHz.wav
2	175	4	3	2	I	1	0	1011	1	Ⴏ	cut_r_stereo_44KHz.wav
2	176	2	2	1	C	1	0	1178	0	Ⴌ	cut_ei_stereo_44KHz.wav
2	177	1	1	1	C	2	1	935	1	Ⴒ	cut_j_stereo_44KHz.wav
2	178	2	1	0	C	1	1	1024	1	Ⴌ	cut_j_stereo_44KHz.wav
2	179	4	3	2	I	1	0	1089	1	Ⴏ	cut_r_stereo_44KHz.wav
2	180	3	3	2	I	1	0	713	1	Ⴖ	cut_r_stereo_44KHz.wav
2	181	1	2	0	C	2	0	1417	0	Ⴒ	cut_ei_stereo_44KHz.wav
2	182	3	4	2	I	2	0	1847	1	Ⴖ	cut_s_stereo_44KHz.wav
2	183	4	4	2	I	2	0	1055	1	Ⴏ	cut_s_stereo_44KHz.wav
2	184	2	2	1	C	1	0	848	0	Ⴌ	cut_ei_stereo_44KHz.wav
2	185	4	3	2	I	1	0	1599	1	Ⴏ	cut_r_stereo_44KHz.wav
2	186	3	4	2	I	2	0	1242	1	Ⴖ	cut_s_stereo_44KHz.wav
2	187	2	1	0	C	1	1	1296	1	Ⴌ	cut_j_stereo_44KHz.wav
2	188	1	1	1	C	1	0	911	0	Ⴒ	cut_j_stereo_44KHz.wav
2	189	4	4	2	I	2	0	459	1	Ⴏ	cut_s_stereo_44KHz.wav
2	190	2	2	1	C	2	1	1297	1	Ⴌ	cut_ei_stereo_44KHz.wav
2	191	1	2	0	C	1	1	847	1	Ⴒ	cut_ei_stereo_44KHz.wav
2	192	3	3	2	I	2	0	1005	0	Ⴖ	cut_r_stereo_44KHz.wav
2	193	4	4	2	I	1	0	741	1	Ⴏ	cut_s_stereo_44KHz.wav
2	194	3	4	2	I	2	0	1735	1	Ⴖ	cut_s_stereo_44KHz.wav
2	195	1	2	0	C	2	0	1517	0	Ⴒ	cut_ei_stereo_44KHz.wav
2	196	2	2	1	C	1	0	775	0	Ⴌ	cut_ei_stereo_44KHz.wav
2	197	4	3	2	I	2	0	1129	1	Ⴏ	cut_r_stereo_44KHz.wav
2	198	3	3	2	I	2	0	1642	1	Ⴖ	cut_r_stereo_44KHz.wav
2	199	2	1	0	C	1	1	1592	1	Ⴌ	cut_j_stereo_44KHz.wav
2	200	1	1	1	C	0	0	0	0	Ⴒ	cut_j_stereo_44KHz.wav
3	1	4	3	2	I	1	0	1226	1	Ⴃ	cut_u_stereo_44KHz.wav
3	2	2	1	0	C	2	0	541	0	Ⴜ	cut_k_stereo_44KHz.wav
3	3	1	2	0	C	1	1	489	1	Ⴇ	cut_a_stereo_44KHz.wav
3	4	3	4	2	I	2	0	620	0	Ⴟ	cut_o_stereo_44KHz.wav
3	5	2	2	1	C	1	0	1376	0	Ⴜ	cut_a_stereo_44KHz.wav
3	6	4	4	2	I	2	0	706	1	Ⴃ	cut_o_stereo_44KHz.wav
3	7	3	3	2	I	1	0	883	1	Ⴟ	cut_u_stereo_44KHz.wav
3	8	1	1	1	C	1	0	744	0	Ⴇ	cut_k_stereo_44KHz.wav
3	9	2	2	1	C	2	1	717	1	Ⴜ	cut_a_stereo_44KHz.wav
3	10	3	3	2	I	1	0	580	1	Ⴟ	cut_u_stereo_44KHz.wav
3	11	4	4	2	I	2	0	1027	1	Ⴃ	cut_o_stereo_44KHz.wav
3	12	1	2	0	C	1	1	1071	1	Ⴇ	cut_a_stereo_44KHz.wav
3	13	3	4	2	I	1	0	1308	1	Ⴟ	cut_o_stereo_44KHz.wav
3	14	2	1	0	C	2	0	833	0	Ⴜ	cut_k_stereo_44KHz.wav
3	15	1	1	1	C	1	0	724	0	Ⴇ	cut_k_stereo_44KHz.wav
3	16	4	3	2	I	2	0	929	1	Ⴃ	cut_u_stereo_44KHz.wav
3	17	2	2	1	C	2	1	1004	1	Ⴜ	cut_a_stereo_44KHz.wav
3	18	4	4	2	I	2	0	1222	1	Ⴃ	cut_o_stereo_44KHz.wav
3	19	1	2	0	C	1	1	507	1	Ⴇ	cut_a_stereo_44KHz.wav
3	20	3	3	2	I	1	0	1072	1	Ⴟ	cut_u_stereo_44KHz.wav
3	21	1	1	1	C	2	1	876	1	Ⴇ	cut_k_stereo_44KHz.wav
3	22	4	3	2	I	1	0	635	1	Ⴃ	cut_u_stereo_44KHz.wav
3	23	2	1	0	C	2	0	502	0	Ⴜ	cut_k_stereo_44KHz.wav
3	24	3	4	2	I	1	0	896	1	Ⴟ	cut_o_stereo_44KHz.wav
3	25	1	2	0	C	2	0	466	0	Ⴇ	cut_a_stereo_44KHz.wav
3	26	3	4	2	I	2	0	1094	0	Ⴟ	cut_o_stereo_44KHz.wav
3	27	2	1	0	C	1	1	911	1	Ⴜ	cut_k_stereo_44KHz.wav
3	28	4	4	2	I	2	0	506	0	Ⴃ	cut_o_stereo_44KHz.wav
3	29	2	2	1	C	2	1	1583	1	Ⴜ	cut_a_stereo_44KHz.wav
3	30	4	3	2	I	0	0	0	0	Ⴃ	cut_u_stereo_44KHz.wav
3	31	3	3	2	I	2	0	1236	1	Ⴟ	cut_u_stereo_44KHz.wav
3	32	1	1	1	C	2	1	1367	1	Ⴇ	cut_k_stereo_44KHz.wav
3	33	4	4	2	I	2	0	1919	1	Ⴃ	cut_o_stereo_44KHz.wav
3	34	3	3	2	I	2	0	1495	1	Ⴟ	cut_u_stereo_44KHz.wav
3	35	1	1	1	C	2	1	1070	1	Ⴇ	cut_k_stereo_44KHz.wav
3	36	2	2	1	C	2	1	1744	1	Ⴜ	cut_a_stereo_44KHz.wav
3	37	4	3	2	I	2	0	1001	1	Ⴃ	cut_u_stereo_44KHz.wav
3	38	2	1	0	C	0	0	0	0	Ⴜ	cut_k_stereo_44KHz.wav
3	39	3	4	2	I	1	0	1844	1	Ⴟ	cut_o_stereo_44KHz.wav
3	40	1	2	0	C	2	0	572	0	Ⴇ	cut_a_stereo_44KHz.wav
3	41	3	3	2	I	0	0	0	0	Ⴟ	cut_u_stereo_44KHz.wav
3	42	2	1	0	C	1	1	882	1	Ⴜ	cut_k_stereo_44KHz.wav
3	43	4	4	2	I	2	0	591	0	Ⴃ	cut_o_stereo_44KHz.wav
3	44	1	2	0	C	1	1	1737	1	Ⴇ	cut_a_stereo_44KHz.wav
3	45	4	3	2	I	2	0	196	1	Ⴃ	cut_u_stereo_44KHz.wav
3	46	3	4	2	I	2	0	281	1	Ⴟ	cut_o_stereo_44KHz.wav
3	47	2	2	1	C	2	1	366	1	Ⴜ	cut_a_stereo_44KHz.wav
3	48	1	1	1	C	2	1	390	1	Ⴇ	cut_k_stereo_44KHz.wav
3	49	4	3	2	I	1	0	558	0	Ⴃ	cut_u_stereo_44KHz.wav
3	50	3	3	2	I	1	0	681	1	Ⴟ	cut_u_stereo_44KHz.wav
3	51	2	2	1	C	2	1	1291	1	Ⴜ	cut_a_stereo_44KHz.wav
3	52	1	1	1	C	1	0	1024	0	Ⴇ	cut_k_stereo_44KHz.wav
3	53	3	4	2	I	2	0	412	0	Ⴟ	cut_o_stereo_44KHz.wav
3	54	4	4	2	I	2	0	1149	1	Ⴃ	cut_o_stereo_44KHz.wav
3	55	2	1	0	C	2	0	459	0	Ⴜ	cut_k_stereo_44KHz.wav
3	56	1	2	0	C	1	1	333	1	Ⴇ	cut_a_stereo_44KHz.wav
3	57	3	4	2	I	2	0	810	1	Ⴟ	cut_o_stereo_44KHz.wav
3	58	1	1	1	C	2	1	545	1	Ⴇ	cut_k_stereo_44KHz.wav
3	59	4	3	2	I	2	0	738	1	Ⴃ	cut_u_stereo_44KHz.wav
3	60	2	2	1	C	2	1	592	1	Ⴜ	cut_a_stereo_44KHz.wav
3	61	4	4	2	I	2	0	442	1	Ⴃ	cut_o_stereo_44KHz.wav
3	62	3	3	2	I	1	0	615	1	Ⴟ	cut_u_stereo_44KHz.wav
3	63	2	1	0	C	2	0	469	0	Ⴜ	cut_k_stereo_44KHz.wav
3	64	1	2	0	C	1	1	548	1	Ⴇ	cut_a_stereo_44KHz.wav
3	65	4	4	2	I	2	0	497	1	Ⴃ	cut_o_stereo_44KHz.wav
3	66	2	1	0	C	1	1	394	1	Ⴜ	cut_k_stereo_44KHz.wav
3	67	3	4	2	I	2	0	1073	1	Ⴟ	cut_o_stereo_44KHz.wav
3	68	1	2	0	C	1	1	677	1	Ⴇ	cut_a_stereo_44KHz.wav
3	69	3	3	2	I	2	0	569	1	Ⴟ	cut_u_stereo_44KHz.wav
3	70	2	2	1	C	2	1	831	1	Ⴜ	cut_a_stereo_44KHz.wav
3	71	1	1	1	C	1	0	671	0	Ⴇ	cut_k_stereo_44KHz.wav
3	72	4	3	2	I	2	0	764	0	Ⴃ	cut_u_stereo_44KHz.wav
3	73	2	1	0	C	1	1	677	1	Ⴜ	cut_k_stereo_44KHz.wav
3	74	1	1	1	C	2	1	464	1	Ⴇ	cut_k_stereo_44KHz.wav
3	75	3	4	2	I	1	0	439	1	Ⴟ	cut_o_stereo_44KHz.wav
3	76	4	3	2	I	2	0	431	1	Ⴃ	cut_u_stereo_44KHz.wav
3	77	2	2	1	C	1	0	406	0	Ⴜ	cut_a_stereo_44KHz.wav
3	78	1	2	0	C	2	0	128	0	Ⴇ	cut_a_stereo_44KHz.wav
3	79	3	3	2	I	1	0	1159	0	Ⴟ	cut_u_stereo_44KHz.wav
3	80	4	4	2	I	1	0	132	1	Ⴃ	cut_o_stereo_44KHz.wav
3	81	2	2	1	C	2	1	411	1	Ⴜ	cut_a_stereo_44KHz.wav
3	82	4	4	2	I	2	0	610	1	Ⴃ	cut_o_stereo_44KHz.wav
3	83	3	3	2	I	2	0	651	1	Ⴟ	cut_u_stereo_44KHz.wav
3	84	1	2	0	C	2	0	216	0	Ⴇ	cut_a_stereo_44KHz.wav
3	85	2	1	0	C	1	1	750	1	Ⴜ	cut_k_stereo_44KHz.wav
3	86	4	3	2	I	2	0	192	1	Ⴃ	cut_u_stereo_44KHz.wav
3	87	3	4	2	I	2	0	1293	1	Ⴟ	cut_o_stereo_44KHz.wav
3	88	1	1	1	C	2	1	525	1	Ⴇ	cut_k_stereo_44KHz.wav
3	89	2	1	0	C	2	0	1028	0	Ⴜ	cut_k_stereo_44KHz.wav
3	90	1	1	1	C	2	1	545	1	Ⴇ	cut_k_stereo_44KHz.wav
3	91	3	3	2	I	2	0	695	1	Ⴟ	cut_u_stereo_44KHz.wav
3	92	4	4	2	I	2	0	466	0	Ⴃ	cut_o_stereo_44KHz.wav
3	93	2	2	1	C	1	0	1044	0	Ⴜ	cut_a_stereo_44KHz.wav
3	94	1	2	0	C	2	0	504	0	Ⴇ	cut_a_stereo_44KHz.wav
3	95	3	4	2	I	1	0	915	1	Ⴟ	cut_o_stereo_44KHz.wav
3	96	4	3	2	I	2	0	771	1	Ⴃ	cut_u_stereo_44KHz.wav
3	97	2	2	1	C	0	0	0	0	Ⴜ	cut_a_stereo_44KHz.wav
3	98	3	4	2	I	2	0	693	0	Ⴟ	cut_o_stereo_44KHz.wav
3	99	1	1	1	C	1	0	893	0	Ⴇ	cut_k_stereo_44KHz.wav
3	100	4	4	2	I	2	0	83	1	Ⴃ	cut_o_stereo_44KHz.wav
3	101	1	2	0	C	2	0	255	0	Ⴇ	cut_a_stereo_44KHz.wav
3	102	2	1	0	C	1	1	903	1	Ⴜ	cut_k_stereo_44KHz.wav
3	103	3	3	2	I	2	0	332	1	Ⴟ	cut_u_stereo_44KHz.wav
3	104	4	3	2	I	1	0	603	1	Ⴃ	cut_u_stereo_44KHz.wav
3	105	2	1	0	C	2	0	313	0	Ⴜ	cut_k_stereo_44KHz.wav
3	106	4	3	2	I	2	0	462	1	Ⴃ	cut_u_stereo_44KHz.wav
3	107	3	3	2	I	1	0	397	1	Ⴟ	cut_u_stereo_44KHz.wav
3	108	1	2	0	C	1	1	654	1	Ⴇ	cut_a_stereo_44KHz.wav
3	109	4	4	2	I	2	0	690	0	Ⴃ	cut_o_stereo_44KHz.wav
3	110	2	2	1	C	1	0	857	0	Ⴜ	cut_a_stereo_44KHz.wav
3	111	1	1	1	C	2	1	501	1	Ⴇ	cut_k_stereo_44KHz.wav
3	112	3	4	2	I	0	0	0	0	Ⴟ	cut_o_stereo_44KHz.wav
3	113	1	1	1	C	2	1	728	1	Ⴇ	cut_k_stereo_44KHz.wav
3	114	2	1	0	C	2	0	902	0	Ⴜ	cut_k_stereo_44KHz.wav
3	115	4	4	2	I	1	0	1066	0	Ⴃ	cut_o_stereo_44KHz.wav
3	116	3	4	2	I	2	0	159	1	Ⴟ	cut_o_stereo_44KHz.wav
3	117	1	2	0	C	2	0	1034	0	Ⴇ	cut_a_stereo_44KHz.wav
3	118	3	3	2	I	2	0	474	0	Ⴟ	cut_u_stereo_44KHz.wav
3	119	4	3	2	I	0	0	0	0	Ⴃ	cut_u_stereo_44KHz.wav
3	120	2	2	1	C	2	1	657	1	Ⴜ	cut_a_stereo_44KHz.wav
3	121	1	2	0	C	2	0	1288	0	Ⴇ	cut_a_stereo_44KHz.wav
3	122	3	3	2	I	1	0	966	1	Ⴟ	cut_u_stereo_44KHz.wav
3	123	2	2	1	C	0	0	0	0	Ⴜ	cut_a_stereo_44KHz.wav
3	124	4	3	2	I	1	0	548	0	Ⴃ	cut_u_stereo_44KHz.wav
3	125	2	1	0	C	2	0	591	0	Ⴜ	cut_k_stereo_44KHz.wav
3	126	4	4	2	I	1	0	1816	1	Ⴃ	cut_o_stereo_44KHz.wav
3	127	3	4	2	I	2	0	401	1	Ⴟ	cut_o_stereo_44KHz.wav
3	128	1	1	1	C	2	1	359	1	Ⴇ	cut_k_stereo_44KHz.wav
3	129	4	3	2	I	2	0	1001	1	Ⴃ	cut_u_stereo_44KHz.wav
3	130	2	2	1	C	1	0	131	0	Ⴜ	cut_a_stereo_44KHz.wav
3	131	3	4	2	I	2	0	207	1	Ⴟ	cut_o_stereo_44KHz.wav
3	132	1	1	1	C	1	0	791	0	Ⴇ	cut_k_stereo_44KHz.wav
3	133	3	3	2	I	2	0	316	0	Ⴟ	cut_u_stereo_44KHz.wav
3	134	4	4	2	I	1	0	1175	1	Ⴃ	cut_o_stereo_44KHz.wav
3	135	1	2	0	C	2	0	389	0	Ⴇ	cut_a_stereo_44KHz.wav
3	136	2	1	0	C	1	1	290	1	Ⴜ	cut_k_stereo_44KHz.wav
3	137	1	2	0	C	1	1	329	1	Ⴇ	cut_a_stereo_44KHz.wav
3	138	2	2	1	C	1	0	1103	0	Ⴜ	cut_a_stereo_44KHz.wav
3	139	4	3	2	I	2	0	930	0	Ⴃ	cut_u_stereo_44KHz.wav
3	140	3	4	2	I	1	0	1004	1	Ⴟ	cut_o_stereo_44KHz.wav
3	141	1	1	1	C	2	1	404	1	Ⴇ	cut_k_stereo_44KHz.wav
3	142	2	1	0	C	2	0	1464	0	Ⴜ	cut_k_stereo_44KHz.wav
3	143	3	3	2	I	1	0	744	1	Ⴟ	cut_u_stereo_44KHz.wav
3	144	4	4	2	I	2	0	587	1	Ⴃ	cut_o_stereo_44KHz.wav
3	145	1	1	1	C	2	1	918	1	Ⴇ	cut_k_stereo_44KHz.wav
3	146	2	1	0	C	2	0	645	0	Ⴜ	cut_k_stereo_44KHz.wav
3	147	3	4	2	I	1	0	722	1	Ⴟ	cut_o_stereo_44KHz.wav
3	148	4	3	2	I	1	0	1053	1	Ⴃ	cut_u_stereo_44KHz.wav
3	149	3	3	2	I	2	0	636	1	Ⴟ	cut_u_stereo_44KHz.wav
3	150	2	2	1	C	1	0	340	0	Ⴜ	cut_a_stereo_44KHz.wav
3	151	1	2	0	C	2	0	769	0	Ⴇ	cut_a_stereo_44KHz.wav
3	152	4	4	2	I	1	0	497	0	Ⴃ	cut_o_stereo_44KHz.wav
3	153	3	4	2	I	2	0	391	1	Ⴟ	cut_o_stereo_44KHz.wav
3	154	2	1	0	C	2	0	506	0	Ⴜ	cut_k_stereo_44KHz.wav
3	155	1	2	0	C	1	1	1085	1	Ⴇ	cut_a_stereo_44KHz.wav
3	156	4	4	2	I	0	0	0	0	Ⴃ	cut_o_stereo_44KHz.wav
3	157	2	2	1	C	2	1	1662	1	Ⴜ	cut_a_stereo_44KHz.wav
3	158	3	3	2	I	1	0	514	1	Ⴟ	cut_u_stereo_44KHz.wav
3	159	1	1	1	C	2	1	537	1	Ⴇ	cut_k_stereo_44KHz.wav
3	160	4	3	2	I	0	0	0	0	Ⴃ	cut_u_stereo_44KHz.wav
3	161	3	3	2	I	1	0	586	0	Ⴟ	cut_u_stereo_44KHz.wav
3	162	4	4	2	I	2	0	276	1	Ⴃ	cut_o_stereo_44KHz.wav
3	163	1	2	0	C	1	1	1671	1	Ⴇ	cut_a_stereo_44KHz.wav
3	164	2	1	0	C	1	1	435	1	Ⴜ	cut_k_stereo_44KHz.wav
3	165	1	1	1	C	2	1	779	1	Ⴇ	cut_k_stereo_44KHz.wav
3	166	3	4	2	I	1	0	349	1	Ⴟ	cut_o_stereo_44KHz.wav
3	167	2	2	1	C	2	1	834	1	Ⴜ	cut_a_stereo_44KHz.wav
3	168	4	3	2	I	1	0	903	1	Ⴃ	cut_u_stereo_44KHz.wav
3	169	2	1	0	C	2	0	551	0	Ⴜ	cut_k_stereo_44KHz.wav
3	170	3	3	2	I	1	0	779	0	Ⴟ	cut_u_stereo_44KHz.wav
3	171	1	1	1	C	2	1	544	1	Ⴇ	cut_k_stereo_44KHz.wav
3	172	4	3	2	I	2	0	1153	1	Ⴃ	cut_u_stereo_44KHz.wav
3	173	3	4	2	I	1	0	1640	1	Ⴟ	cut_o_stereo_44KHz.wav
3	174	2	2	1	C	1	0	1053	0	Ⴜ	cut_a_stereo_44KHz.wav
3	175	4	4	2	I	0	0	0	0	Ⴃ	cut_o_stereo_44KHz.wav
3	176	1	2	0	C	1	1	490	1	Ⴇ	cut_a_stereo_44KHz.wav
3	177	3	4	2	I	1	0	1857	1	Ⴟ	cut_o_stereo_44KHz.wav
3	178	2	1	0	C	2	0	1302	0	Ⴜ	cut_k_stereo_44KHz.wav
3	179	4	3	2	I	1	0	716	1	Ⴃ	cut_u_stereo_44KHz.wav
3	180	1	2	0	C	1	1	606	1	Ⴇ	cut_a_stereo_44KHz.wav
3	181	4	4	2	I	1	0	784	1	Ⴃ	cut_o_stereo_44KHz.wav
3	182	1	1	1	C	1	0	845	0	Ⴇ	cut_k_stereo_44KHz.wav
3	183	3	3	2	I	2	0	309	1	Ⴟ	cut_u_stereo_44KHz.wav
3	184	2	2	1	C	1	0	860	0	Ⴜ	cut_a_stereo_44KHz.wav
3	185	3	3	2	I	2	0	676	0	Ⴟ	cut_u_stereo_44KHz.wav
3	186	1	1	1	C	2	1	477	1	Ⴇ	cut_k_stereo_44KHz.wav
3	187	4	3	2	I	1	0	577	1	Ⴃ	cut_u_stereo_44KHz.wav
3	188	2	2	1	C	2	1	979	1	Ⴜ	cut_a_stereo_44KHz.wav
3	189	3	4	2	I	1	0	1544	1	Ⴟ	cut_o_stereo_44KHz.wav
3	190	2	1	0	C	2	0	382	0	Ⴜ	cut_k_stereo_44KHz.wav
3	191	4	4	2	I	1	0	1197	1	Ⴃ	cut_o_stereo_44KHz.wav
3	192	1	2	0	C	1	1	1220	1	Ⴇ	cut_a_stereo_44KHz.wav
3	193	3	3	2	I	2	0	773	1	Ⴟ	cut_u_stereo_44KHz.wav
3	194	1	2	0	C	1	1	821	1	Ⴇ	cut_a_stereo_44KHz.wav
3	195	2	1	0	C	1	1	348	1	Ⴜ	cut_k_stereo_44KHz.wav
3	196	4	4	2	I	1	0	869	1	Ⴃ	cut_o_stereo_44KHz.wav
3	197	2	2	1	C	2	1	760	1	Ⴜ	cut_a_stereo_44KHz.wav
3	198	3	4	2	I	0	0	0	0	Ⴟ	cut_o_stereo_44KHz.wav
3	199	1	1	1	C	2	1	770	1	Ⴇ	cut_k_stereo_44KHz.wav
3	200	4	3	2	I	1	0	892	1	Ⴃ	cut_u_stereo_44KHz.wav
4	1	1	2	0	C	0	0	0	0	Ⴉ	cut_l_stereo_44KHz.wav
4	2	2	2	1	C	2	1	773	1	Ⴔ	cut_l_stereo_44KHz.wav
4	3	4	4	2	I	1	0	741	0	Ⴕ	cut_h_stereo_44KHz.wav
4	4	3	3	2	I	2	0	870	1	Ⴐ	cut_w_stereo_44KHz.wav
4	5	4	3	2	I	1	0	537	1	Ⴕ	cut_w_stereo_44KHz.wav
4	6	3	4	2	I	2	0	671	1	Ⴐ	cut_h_stereo_44KHz.wav
4	7	2	1	0	C	1	1	599	1	Ⴔ	cut_g_stereo_44KHz.wav
4	8	1	1	1	C	2	1	358	1	Ⴉ	cut_g_stereo_44KHz.wav
4	9	2	2	1	C	1	0	490	0	Ⴔ	cut_l_stereo_44KHz.wav
4	10	3	3	2	I	2	0	525	1	Ⴐ	cut_w_stereo_44KHz.wav
4	11	1	2	0	C	2	0	985	0	Ⴉ	cut_l_stereo_44KHz.wav
4	12	4	4	2	I	1	0	635	0	Ⴕ	cut_h_stereo_44KHz.wav
4	13	1	1	1	C	2	1	536	1	Ⴉ	cut_g_stereo_44KHz.wav
4	14	4	3	2	I	1	0	373	1	Ⴕ	cut_w_stereo_44KHz.wav
4	15	2	1	0	C	2	0	543	0	Ⴔ	cut_g_stereo_44KHz.wav
4	16	3	4	2	I	1	0	1023	1	Ⴐ	cut_h_stereo_44KHz.wav
4	17	4	3	2	I	2	0	464	1	Ⴕ	cut_w_stereo_44KHz.wav
4	18	2	1	0	C	2	0	993	0	Ⴔ	cut_g_stereo_44KHz.wav
4	19	1	2	0	C	2	0	532	0	Ⴉ	cut_l_stereo_44KHz.wav
4	20	3	3	2	I	1	0	518	1	Ⴐ	cut_w_stereo_44KHz.wav
4	21	4	4	2	I	1	0	1218	1	Ⴕ	cut_h_stereo_44KHz.wav
4	22	1	1	1	C	1	0	240	0	Ⴉ	cut_g_stereo_44KHz.wav
4	23	3	4	2	I	1	0	1174	0	Ⴐ	cut_h_stereo_44KHz.wav
4	24	2	2	1	C	2	1	1872	1	Ⴔ	cut_l_stereo_44KHz.wav
4	25	3	3	2	I	0	0	0	0	Ⴐ	cut_w_stereo_44KHz.wav
4	26	4	4	2	I	2	0	1368	1	Ⴕ	cut_h_stereo_44KHz.wav
4	27	2	2	1	C	2	1	481	1	Ⴔ	cut_l_stereo_44KHz.wav
4	28	1	1	1	C	0	0	0	0	Ⴉ	cut_g_stereo_44KHz.wav
4	29	2	1	0	C	1	1	545	1	Ⴔ	cut_g_stereo_44KHz.wav
4	30	4	3	2	I	2	0	411	1	Ⴕ	cut_w_stereo_44KHz.wav
4	31	3	4	2	I	2	0	422	1	Ⴐ	cut_h_stereo_44KHz.wav
4	32	1	2	0	C	2	0	721	0	Ⴉ	cut_l_stereo_44KHz.wav
4	33	2	2	1	C	1	0	536	0	Ⴔ	cut_l_stereo_44KHz.wav
4	34	1	2	0	C	2	0	561	0	Ⴉ	cut_l_stereo_44KHz.wav
4	35	3	3	2	I	0	0	0	0	Ⴐ	cut_w_stereo_44KHz.wav
4	36	4	3	2	I	1	0	1578	1	Ⴕ	cut_w_stereo_44KHz.wav
4	37	2	1	0	C	2	0	1068	0	Ⴔ	cut_g_stereo_44KHz.wav
4	38	4	4	2	I	0	0	0	0	Ⴕ	cut_h_stereo_44KHz.wav
4	39	1	1	1	C	0	0	0	0	Ⴉ	cut_g_stereo_44KHz.wav
4	40	3	4	2	I	2	0	1022	0	Ⴐ	cut_h_stereo_44KHz.wav
4	41	2	2	1	C	1	0	870	0	Ⴔ	cut_l_stereo_44KHz.wav
4	42	4	4	2	I	0	0	0	0	Ⴕ	cut_h_stereo_44KHz.wav
4	43	3	4	2	I	2	0	346	0	Ⴐ	cut_h_stereo_44KHz.wav
4	44	1	2	0	C	1	1	875	1	Ⴉ	cut_l_stereo_44KHz.wav
4	45	3	3	2	I	2	0	652	1	Ⴐ	cut_w_stereo_44KHz.wav
4	46	2	1	0	C	2	0	548	0	Ⴔ	cut_g_stereo_44KHz.wav
4	47	1	1	1	C	2	1	556	1	Ⴉ	cut_g_stereo_44KHz.wav
4	48	4	3	2	I	2	0	1043	1	Ⴕ	cut_w_stereo_44KHz.wav
4	49	2	1	0	C	0	0	0	0	Ⴔ	cut_g_stereo_44KHz.wav
4	50	3	4	2	I	2	0	603	1	Ⴐ	cut_h_stereo_44KHz.wav
4	51	4	4	2	I	2	0	394	1	Ⴕ	cut_h_stereo_44KHz.wav
4	52	1	1	1	C	2	1	586	1	Ⴉ	cut_g_stereo_44KHz.wav
4	53	3	3	2	I	1	0	470	0	Ⴐ	cut_w_stereo_44KHz.wav
4	54	4	3	2	I	2	0	561	0	Ⴕ	cut_w_stereo_44KHz.wav
4	55	2	2	1	C	2	1	722	1	Ⴔ	cut_l_stereo_44KHz.wav
4	56	1	2	0	C	2	0	1060	0	Ⴉ	cut_l_stereo_44KHz.wav
4	57	2	1	0	C	1	1	1941	1	Ⴔ	cut_g_stereo_44KHz.wav
4	58	4	4	2	I	1	0	1372	0	Ⴕ	cut_h_stereo_44KHz.wav
4	59	1	2	0	C	1	1	447	1	Ⴉ	cut_l_stereo_44KHz.wav
4	60	3	4	2	I	2	0	1082	0	Ⴐ	cut_h_stereo_44KHz.wav
4	61	2	2	1	C	2	1	991	1	Ⴔ	cut_l_stereo_44KHz.wav
4	62	4	3	2	I	2	0	1363	1	Ⴕ	cut_w_stereo_44KHz.wav
4	63	3	3	2	I	2	0	1319	1	Ⴐ	cut_w_stereo_44KHz.wav
4	64	1	1	1	C	1	0	609	0	Ⴉ	cut_g_stereo_44KHz.wav
4	65	4	4	2	I	2	0	607	1	Ⴕ	cut_h_stereo_44KHz.wav
4	66	3	3	2	I	1	0	390	1	Ⴐ	cut_w_stereo_44KHz.wav
4	67	2	2	1	C	1	0	492	0	Ⴔ	cut_l_stereo_44KHz.wav
4	68	1	2	0	C	2	0	448	0	Ⴉ	cut_l_stereo_44KHz.wav
4	69	3	4	2	I	1	0	432	0	Ⴐ	cut_h_stereo_44KHz.wav
4	70	1	1	1	C	1	0	698	0	Ⴉ	cut_g_stereo_44KHz.wav
4	71	4	3	2	I	1	0	813	1	Ⴕ	cut_w_stereo_44KHz.wav
4	72	2	1	0	C	2	0	390	0	Ⴔ	cut_g_stereo_44KHz.wav
4	73	1	2	0	C	1	1	659	1	Ⴉ	cut_l_stereo_44KHz.wav
4	74	4	4	2	I	2	0	353	1	Ⴕ	cut_h_stereo_44KHz.wav
4	75	3	4	2	I	1	0	933	1	Ⴐ	cut_h_stereo_44KHz.wav
4	76	2	2	1	C	0	0	0	0	Ⴔ	cut_l_stereo_44KHz.wav
4	77	3	3	2	I	1	0	622	1	Ⴐ	cut_w_stereo_44KHz.wav
4	78	4	3	2	I	2	0	586	1	Ⴕ	cut_w_stereo_44KHz.wav
4	79	1	1	1	C	1	0	1096	0	Ⴉ	cut_g_stereo_44KHz.wav
4	80	2	1	0	C	2	0	900	0	Ⴔ	cut_g_stereo_44KHz.wav
4	81	3	3	2	I	2	0	1600	1	Ⴐ	cut_w_stereo_44KHz.wav
4	82	1	2	0	C	2	0	1163	0	Ⴉ	cut_l_stereo_44KHz.wav
4	83	2	2	1	C	2	1	1295	1	Ⴔ	cut_l_stereo_44KHz.wav
4	84	4	3	2	I	1	0	910	1	Ⴕ	cut_w_stereo_44KHz.wav
4	85	1	1	1	C	2	1	761	1	Ⴉ	cut_g_stereo_44KHz.wav
4	86	4	4	2	I	2	0	287	1	Ⴕ	cut_h_stereo_44KHz.wav
4	87	3	4	2	I	2	0	515	1	Ⴐ	cut_h_stereo_44KHz.wav
4	88	2	1	0	C	2	0	853	0	Ⴔ	cut_g_stereo_44KHz.wav
4	89	3	3	2	I	1	0	779	1	Ⴐ	cut_w_stereo_44KHz.wav
4	90	4	4	2	I	1	0	868	1	Ⴕ	cut_h_stereo_44KHz.wav
4	91	1	1	1	C	2	1	671	1	Ⴉ	cut_g_stereo_44KHz.wav
4	92	2	1	0	C	2	0	435	0	Ⴔ	cut_g_stereo_44KHz.wav
4	93	3	4	2	I	1	0	581	0	Ⴐ	cut_h_stereo_44KHz.wav
4	94	4	3	2	I	2	0	1224	1	Ⴕ	cut_w_stereo_44KHz.wav
4	95	1	2	0	C	2	0	783	0	Ⴉ	cut_l_stereo_44KHz.wav
4	96	2	2	1	C	2	1	508	1	Ⴔ	cut_l_stereo_44KHz.wav
4	97	1	2	0	C	0	0	0	0	Ⴉ	cut_l_stereo_44KHz.wav
4	98	3	4	2	I	1	0	322	1	Ⴐ	cut_h_stereo_44KHz.wav
4	99	2	1	0	C	1	1	1459	1	Ⴔ	cut_g_stereo_44KHz.wav
4	100	4	3	2	I	2	0	718	1	Ⴕ	cut_w_stereo_44KHz.wav
4	101	3	3	2	I	1	0	552	1	Ⴐ	cut_w_stereo_44KHz.wav
4	102	1	1	1	C	2	1	630	1	Ⴉ	cut_g_stereo_44KHz.wav
4	103	2	2	1	C	2	1	466	1	Ⴔ	cut_l_stereo_44KHz.wav
4	104	4	4	2	I	2	0	838	0	Ⴕ	cut_h_stereo_44KHz.wav
4	105	3	4	2	I	0	0	0	0	Ⴐ	cut_h_stereo_44KHz.wav
4	106	4	3	2	I	2	0	630	1	Ⴕ	cut_w_stereo_44KHz.wav
4	107	2	1	0	C	1	1	1217	1	Ⴔ	cut_g_stereo_44KHz.wav
4	108	1	1	1	C	1	0	1163	0	Ⴉ	cut_g_stereo_44KHz.wav
4	109	4	4	2	I	0	0	0	0	Ⴕ	cut_h_stereo_44KHz.wav
4	110	1	2	0	C	2	0	653	0	Ⴉ	cut_l_stereo_44KHz.wav
4	111	3	3	2	I	1	0	1366	0	Ⴐ	cut_w_stereo_44KHz.wav
4	112	2	2	1	C	2	1	764	1	Ⴔ	cut_l_stereo_44KHz.wav
4	113	3	4	2	I	2	0	669	1	Ⴐ	cut_h_stereo_44KHz.wav
4	114	1	1	1	C	1	0	860	0	Ⴉ	cut_g_stereo_44KHz.wav
4	115	4	4	2	I	2	0	546	1	Ⴕ	cut_h_stereo_44KHz.wav
4	116	2	2	1	C	1	0	1353	0	Ⴔ	cut_l_stereo_44KHz.wav
4	117	4	3	2	I	2	0	1246	0	Ⴕ	cut_w_stereo_44KHz.wav
4	118	2	1	0	C	1	1	1092	1	Ⴔ	cut_g_stereo_44KHz.wav
4	119	3	3	2	I	1	0	859	0	Ⴐ	cut_w_stereo_44KHz.wav
4	120	1	2	0	C	2	0	922	0	Ⴉ	cut_l_stereo_44KHz.wav
4	121	3	4	2	I	2	0	806	1	Ⴐ	cut_h_stereo_44KHz.wav
4	122	4	3	2	I	0	0	0	0	Ⴕ	cut_w_stereo_44KHz.wav
4	123	2	1	0	C	0	0	0	0	Ⴔ	cut_g_stereo_44KHz.wav
4	124	1	2	0	C	2	0	984	0	Ⴉ	cut_l_stereo_44KHz.wav
4	125	3	3	2	I	0	0	0	0	Ⴐ	cut_w_stereo_44KHz.wav
4	126	2	2	1	C	0	0	0	0	Ⴔ	cut_l_stereo_44KHz.wav
4	127	1	1	1	C	2	1	757	1	Ⴉ	cut_g_stereo_44KHz.wav
4	128	4	4	2	I	2	0	1269	1	Ⴕ	cut_h_stereo_44KHz.wav
4	129	3	3	2	I	2	0	990	1	Ⴐ	cut_w_stereo_44KHz.wav
4	130	4	4	2	I	2	0	331	1	Ⴕ	cut_h_stereo_44KHz.wav
4	131	2	1	0	C	1	1	295	1	Ⴔ	cut_g_stereo_44KHz.wav
4	132	1	1	1	C	2	1	819	1	Ⴉ	cut_g_stereo_44KHz.wav
4	133	2	2	1	C	1	0	702	0	Ⴔ	cut_l_stereo_44KHz.wav
4	134	4	3	2	I	2	0	393	1	Ⴕ	cut_w_stereo_44KHz.wav
4	135	3	4	2	I	2	0	1805	1	Ⴐ	cut_h_stereo_44KHz.wav
4	136	1	2	0	C	0	0	0	0	Ⴉ	cut_l_stereo_44KHz.wav
4	137	2	2	1	C	2	1	693	1	Ⴔ	cut_l_stereo_44KHz.wav
4	138	3	4	2	I	2	0	944	1	Ⴐ	cut_h_stereo_44KHz.wav
4	139	1	2	0	C	2	0	1702	0	Ⴉ	cut_l_stereo_44KHz.wav
4	140	4	3	2	I	1	0	387	1	Ⴕ	cut_w_stereo_44KHz.wav
4	141	1	1	1	C	0	0	0	0	Ⴉ	cut_g_stereo_44KHz.wav
4	142	3	3	2	I	2	0	623	1	Ⴐ	cut_w_stereo_44KHz.wav
4	143	2	1	0	C	2	0	995	0	Ⴔ	cut_g_stereo_44KHz.wav
4	144	4	4	2	I	2	0	237	1	Ⴕ	cut_h_stereo_44KHz.wav
4	145	3	4	2	I	1	0	394	1	Ⴐ	cut_h_stereo_44KHz.wav
4	146	2	1	0	C	1	1	1333	1	Ⴔ	cut_g_stereo_44KHz.wav
4	147	1	2	0	C	2	0	379	0	Ⴉ	cut_l_stereo_44KHz.wav
4	148	4	4	2	I	1	0	316	0	Ⴕ	cut_h_stereo_44KHz.wav
4	149	1	1	1	C	2	1	76	1	Ⴉ	cut_g_stereo_44KHz.wav
4	150	4	3	2	I	2	0	349	1	Ⴕ	cut_w_stereo_44KHz.wav
4	151	3	3	2	I	2	0	581	1	Ⴐ	cut_w_stereo_44KHz.wav
4	152	2	2	1	C	1	0	421	0	Ⴔ	cut_l_stereo_44KHz.wav
4	153	3	3	2	I	2	0	1313	1	Ⴐ	cut_w_stereo_44KHz.wav
4	154	1	1	1	C	2	1	1631	1	Ⴉ	cut_g_stereo_44KHz.wav
4	155	4	4	2	I	2	0	273	1	Ⴕ	cut_h_stereo_44KHz.wav
4	156	2	2	1	C	2	1	370	1	Ⴔ	cut_l_stereo_44KHz.wav
4	157	1	2	0	C	2	0	524	0	Ⴉ	cut_l_stereo_44KHz.wav
4	158	4	3	2	I	2	0	852	1	Ⴕ	cut_w_stereo_44KHz.wav
4	159	2	1	0	C	2	0	916	0	Ⴔ	cut_g_stereo_44KHz.wav
4	160	3	4	2	I	1	0	642	1	Ⴐ	cut_h_stereo_44KHz.wav
4	161	4	3	2	I	1	0	1663	1	Ⴕ	cut_w_stereo_44KHz.wav
4	162	2	1	0	C	0	0	0	0	Ⴔ	cut_g_stereo_44KHz.wav
4	163	1	2	0	C	2	0	1102	0	Ⴉ	cut_l_stereo_44KHz.wav
4	164	3	4	2	I	0	0	0	0	Ⴐ	cut_h_stereo_44KHz.wav
4	165	4	4	2	I	2	0	960	1	Ⴕ	cut_h_stereo_44KHz.wav
4	166	1	1	1	C	0	0	0	0	Ⴉ	cut_g_stereo_44KHz.wav
4	167	3	3	2	I	2	0	929	1	Ⴐ	cut_w_stereo_44KHz.wav
4	168	2	2	1	C	2	1	746	1	Ⴔ	cut_l_stereo_44KHz.wav
4	169	1	2	0	C	1	1	960	1	Ⴉ	cut_l_stereo_44KHz.wav
4	170	4	4	2	I	2	0	1956	1	Ⴕ	cut_h_stereo_44KHz.wav
4	171	2	1	0	C	1	1	1258	1	Ⴔ	cut_g_stereo_44KHz.wav
4	172	3	3	2	I	2	0	1062	1	Ⴐ	cut_w_stereo_44KHz.wav
4	173	4	3	2	I	2	0	1833	0	Ⴕ	cut_w_stereo_44KHz.wav
4	174	3	4	2	I	1	0	1290	1	Ⴐ	cut_h_stereo_44KHz.wav
4	175	2	2	1	C	2	1	467	1	Ⴔ	cut_l_stereo_44KHz.wav
4	176	1	1	1	C	2	1	459	1	Ⴉ	cut_g_stereo_44KHz.wav
4	177	4	3	2	I	2	0	893	1	Ⴕ	cut_w_stereo_44KHz.wav
4	178	2	1	0	C	0	0	0	0	Ⴔ	cut_g_stereo_44KHz.wav
4	179	3	4	2	I	1	0	1791	1	Ⴐ	cut_h_stereo_44KHz.wav
4	180	1	2	0	C	0	0	0	0	Ⴉ	cut_l_stereo_44KHz.wav
4	181	2	2	1	C	0	0	0	0	Ⴔ	cut_l_stereo_44KHz.wav
4	182	4	4	2	I	2	0	1202	1	Ⴕ	cut_h_stereo_44KHz.wav
4	183	3	3	2	I	2	0	1710	1	Ⴐ	cut_w_stereo_44KHz.wav
4	184	1	1	1	C	2	1	192	1	Ⴉ	cut_g_stereo_44KHz.wav
4	185	2	2	1	C	2	1	1197	1	Ⴔ	cut_l_stereo_44KHz.wav
4	186	4	4	2	I	2	0	1582	1	Ⴕ	cut_h_stereo_44KHz.wav
4	187	1	1	1	C	1	0	1644	0	Ⴉ	cut_g_stereo_44KHz.wav
4	188	3	4	2	I	2	0	792	1	Ⴐ	cut_h_stereo_44KHz.wav
4	189	1	2	0	C	0	0	0	0	Ⴉ	cut_l_stereo_44KHz.wav
4	190	2	1	0	C	0	0	0	0	Ⴔ	cut_g_stereo_44KHz.wav
4	191	3	3	2	I	2	0	1581	1	Ⴐ	cut_w_stereo_44KHz.wav
4	192	4	3	2	I	2	0	39	1	Ⴕ	cut_w_stereo_44KHz.wav
4	193	2	2	1	C	2	1	898	1	Ⴔ	cut_l_stereo_44KHz.wav
4	194	3	4	2	I	2	0	862	1	Ⴐ	cut_h_stereo_44KHz.wav
4	195	1	1	1	C	1	0	938	0	Ⴉ	cut_g_stereo_44KHz.wav
4	196	4	3	2	I	2	0	381	1	Ⴕ	cut_w_stereo_44KHz.wav
4	197	2	1	0	C	1	1	948	1	Ⴔ	cut_g_stereo_44KHz.wav
4	198	1	2	0	C	2	0	876	0	Ⴉ	cut_l_stereo_44KHz.wav
4	199	3	3	2	I	2	0	624	1	Ⴐ	cut_w_stereo_44KHz.wav
4	200	4	4	2	I	2	0	453	1	Ⴕ	cut_h_stereo_44KHz.wav
