block	trial	Vstim	Astim	match	C/I	resp	result	RT	fb	V-file	A-file
RL

0	1	1	2	0	C	0	0	0	0	Ⴢ	cut_eeuw_stereo_44KHz.wav
0	2	2	3	1	C	2	0	698	0	Ⴉ	cut_g_stereo_44KHz.wav
0	3	2	4	0	C	1	0	986	0	Ⴉ	cut_ee_stereo_44KHz.wav
0	4	1	1	1	C	2	0	1034	0	Ⴢ	cut_oo_stereo_44KHz.wav
0	5	1	1	1	C	1	1	1352	1	Ⴢ	cut_oo_stereo_44KHz.wav
0	6	2	4	0	C	2	1	1281	1	Ⴉ	cut_ee_stereo_44KHz.wav
0	7	1	2	0	C	1	0	686	0	Ⴢ	cut_eeuw_stereo_44KHz.wav
0	8	2	3	1	C	2	0	1022	0	Ⴉ	cut_g_stereo_44KHz.wav
0	9	2	3	1	C	1	1	882	1	Ⴉ	cut_g_stereo_44KHz.wav
0	10	1	1	1	C	2	0	788	0	Ⴢ	cut_oo_stereo_44KHz.wav
0	11	1	2	0	C	1	0	931	0	Ⴢ	cut_eeuw_stereo_44KHz.wav
0	12	2	4	0	C	2	1	889	1	Ⴉ	cut_ee_stereo_44KHz.wav
0	13	2	3	1	C	2	0	1163	0	Ⴉ	cut_g_stereo_44KHz.wav
0	14	1	1	1	C	2	0	860	0	Ⴢ	cut_oo_stereo_44KHz.wav
0	15	1	2	0	C	2	1	876	1	Ⴢ	cut_eeuw_stereo_44KHz.wav
0	16	2	4	0	C	1	0	1175	0	Ⴉ	cut_ee_stereo_44KHz.wav
0	17	2	3	1	C	2	0	1012	0	Ⴉ	cut_g_stereo_44KHz.wav
0	18	1	2	0	C	2	1	840	1	Ⴢ	cut_eeuw_stereo_44KHz.wav
0	19	1	1	1	C	2	0	719	0	Ⴢ	cut_oo_stereo_44KHz.wav
0	20	2	4	0	C	2	1	1085	1	Ⴉ	cut_ee_stereo_44KHz.wav
0	21	2	3	1	C	2	0	851	0	Ⴉ	cut_g_stereo_44KHz.wav
0	22	1	2	0	C	2	1	1257	1	Ⴢ	cut_eeuw_stereo_44KHz.wav
0	23	2	4	0	C	2	1	808	1	Ⴉ	cut_ee_stereo_44KHz.wav
0	24	1	1	1	C	1	1	1446	1	Ⴢ	cut_oo_stereo_44KHz.wav
0	25	2	3	1	C	2	0	1016	0	Ⴉ	cut_g_stereo_44KHz.wav
0	26	1	2	0	C	1	0	1835	0	Ⴢ	cut_eeuw_stereo_44KHz.wav
0	27	1	1	1	C	2	0	773	0	Ⴢ	cut_oo_stereo_44KHz.wav
0	28	2	4	0	C	2	1	1124	1	Ⴉ	cut_ee_stereo_44KHz.wav
0	29	2	3	1	C	2	0	970	0	Ⴉ	cut_g_stereo_44KHz.wav
0	30	1	1	1	C	2	0	1359	0	Ⴢ	cut_oo_stereo_44KHz.wav
avg_resp = 1076
1	1	4	3	2	I	0	0	0	0	Ⴜ	cut_w_stereo_44KHz.wav
1	2	3	4	2	I	1	0	1561	1	Ⴁ	cut_h_stereo_44KHz.wav
1	3	2	2	1	C	1	1	1934	1	Ⴃ	cut_g_stereo_44KHz.wav
1	4	1	2	0	C	2	1	1236	1	Ⴊ	cut_g_stereo_44KHz.wav
1	5	2	1	0	C	2	1	1159	1	Ⴃ	cut_l_stereo_44KHz.wav
1	6	1	1	1	C	1	1	1448	1	Ⴊ	cut_l_stereo_44KHz.wav
1	7	3	3	2	I	1	0	1573	1	Ⴁ	cut_w_stereo_44KHz.wav
1	8	4	4	2	I	0	0	0	0	Ⴜ	cut_h_stereo_44KHz.wav
1	9	3	3	2	I	0	0	0	0	Ⴁ	cut_w_stereo_44KHz.wav
1	10	1	1	1	C	1	1	1009	1	Ⴊ	cut_l_stereo_44KHz.wav
1	11	4	4	2	I	2	0	810	1	Ⴜ	cut_h_stereo_44KHz.wav
1	12	2	2	1	C	1	1	1026	1	Ⴃ	cut_g_stereo_44KHz.wav
1	13	3	4	2	I	2	0	1761	0	Ⴁ	cut_h_stereo_44KHz.wav
1	14	2	1	0	C	1	0	674	0	Ⴃ	cut_l_stereo_44KHz.wav
1	15	1	2	0	C	2	1	1122	1	Ⴊ	cut_g_stereo_44KHz.wav
1	16	4	3	2	I	2	0	1105	1	Ⴜ	cut_w_stereo_44KHz.wav
1	17	1	1	1	C	1	1	1362	1	Ⴊ	cut_l_stereo_44KHz.wav
1	18	3	3	2	I	1	0	1380	1	Ⴁ	cut_w_stereo_44KHz.wav
1	19	4	3	2	I	2	0	1766	1	Ⴜ	cut_w_stereo_44KHz.wav
1	20	2	2	1	C	1	1	1697	1	Ⴃ	cut_g_stereo_44KHz.wav
1	21	1	2	0	C	2	1	1489	1	Ⴊ	cut_g_stereo_44KHz.wav
1	22	3	4	2	I	2	0	1520	1	Ⴁ	cut_h_stereo_44KHz.wav
1	23	4	4	2	I	2	0	1045	1	Ⴜ	cut_h_stereo_44KHz.wav
1	24	2	1	0	C	1	0	1505	0	Ⴃ	cut_l_stereo_44KHz.wav
1	25	4	3	2	I	0	0	0	0	Ⴜ	cut_w_stereo_44KHz.wav
1	26	1	1	1	C	0	0	0	0	Ⴊ	cut_l_stereo_44KHz.wav
1	27	3	4	2	I	1	0	1029	0	Ⴁ	cut_h_stereo_44KHz.wav
1	28	2	2	1	C	2	0	913	0	Ⴃ	cut_g_stereo_44KHz.wav
1	29	3	3	2	I	2	0	1566	0	Ⴁ	cut_w_stereo_44KHz.wav
1	30	1	2	0	C	1	0	1204	0	Ⴊ	cut_g_stereo_44KHz.wav
1	31	2	1	0	C	2	1	1884	1	Ⴃ	cut_l_stereo_44KHz.wav
1	32	4	4	2	I	2	0	981	1	Ⴜ	cut_h_stereo_44KHz.wav
1	33	2	1	0	C	1	0	1151	0	Ⴃ	cut_l_stereo_44KHz.wav
1	34	4	3	2	I	2	0	759	1	Ⴜ	cut_w_stereo_44KHz.wav
1	35	3	3	2	I	2	0	1515	1	Ⴁ	cut_w_stereo_44KHz.wav
1	36	1	1	1	C	1	1	1124	1	Ⴊ	cut_l_stereo_44KHz.wav
1	37	3	4	2	I	1	0	1394	1	Ⴁ	cut_h_stereo_44KHz.wav
1	38	1	2	0	C	2	1	1330	1	Ⴊ	cut_g_stereo_44KHz.wav
1	39	4	4	2	I	1	0	741	1	Ⴜ	cut_h_stereo_44KHz.wav
1	40	2	2	1	C	2	0	514	0	Ⴃ	cut_g_stereo_44KHz.wav
1	41	3	3	2	I	1	0	1381	1	Ⴁ	cut_w_stereo_44KHz.wav
1	42	4	4	2	I	2	0	778	1	Ⴜ	cut_h_stereo_44KHz.wav
1	43	2	1	0	C	1	0	569	0	Ⴃ	cut_l_stereo_44KHz.wav
1	44	1	2	0	C	1	0	1709	0	Ⴊ	cut_g_stereo_44KHz.wav
1	45	2	2	1	C	1	1	1621	1	Ⴃ	cut_g_stereo_44KHz.wav
1	46	3	4	2	I	2	0	603	1	Ⴁ	cut_h_stereo_44KHz.wav
1	47	1	1	1	C	2	0	569	0	Ⴊ	cut_l_stereo_44KHz.wav
1	48	4	3	2	I	1	0	1201	1	Ⴜ	cut_w_stereo_44KHz.wav
1	49	3	4	2	I	2	0	1013	1	Ⴁ	cut_h_stereo_44KHz.wav
1	50	2	1	0	C	1	0	1188	0	Ⴃ	cut_l_stereo_44KHz.wav
1	51	4	3	2	I	2	0	1346	1	Ⴜ	cut_w_stereo_44KHz.wav
1	52	1	2	0	C	2	1	1548	1	Ⴊ	cut_g_stereo_44KHz.wav
1	53	3	3	2	I	2	0	790	1	Ⴁ	cut_w_stereo_44KHz.wav
1	54	2	2	1	C	1	1	1558	1	Ⴃ	cut_g_stereo_44KHz.wav
1	55	1	1	1	C	2	0	1023	0	Ⴊ	cut_l_stereo_44KHz.wav
1	56	4	4	2	I	1	0	628	1	Ⴜ	cut_h_stereo_44KHz.wav
1	57	1	2	0	C	2	1	1197	1	Ⴊ	cut_g_stereo_44KHz.wav
1	58	3	3	2	I	2	0	1162	1	Ⴁ	cut_w_stereo_44KHz.wav
1	59	2	2	1	C	1	1	733	1	Ⴃ	cut_g_stereo_44KHz.wav
1	60	4	4	2	I	2	0	519	1	Ⴜ	cut_h_stereo_44KHz.wav
1	61	3	4	2	I	2	0	688	0	Ⴁ	cut_h_stereo_44KHz.wav
1	62	1	1	1	C	1	1	791	1	Ⴊ	cut_l_stereo_44KHz.wav
1	63	4	3	2	I	2	0	733	1	Ⴜ	cut_w_stereo_44KHz.wav
1	64	2	1	0	C	2	1	1254	1	Ⴃ	cut_l_stereo_44KHz.wav
1	65	4	3	2	I	2	0	910	1	Ⴜ	cut_w_stereo_44KHz.wav
1	66	2	2	1	C	2	0	1121	0	Ⴃ	cut_g_stereo_44KHz.wav
1	67	1	1	1	C	1	1	725	1	Ⴊ	cut_l_stereo_44KHz.wav
1	68	3	4	2	I	2	0	1001	1	Ⴁ	cut_h_stereo_44KHz.wav
1	69	1	2	0	C	2	1	1262	1	Ⴊ	cut_g_stereo_44KHz.wav
1	70	4	4	2	I	2	0	1689	1	Ⴜ	cut_h_stereo_44KHz.wav
1	71	3	3	2	I	1	0	1174	1	Ⴁ	cut_w_stereo_44KHz.wav
1	72	2	1	0	C	2	1	764	1	Ⴃ	cut_l_stereo_44KHz.wav
1	73	3	4	2	I	1	0	572	1	Ⴁ	cut_h_stereo_44KHz.wav
1	74	2	2	1	C	2	0	582	0	Ⴃ	cut_g_stereo_44KHz.wav
1	75	4	4	2	I	1	0	1250	0	Ⴜ	cut_h_stereo_44KHz.wav
1	76	1	1	1	C	2	0	452	0	Ⴊ	cut_l_stereo_44KHz.wav
1	77	3	3	2	I	1	0	1130	1	Ⴁ	cut_w_stereo_44KHz.wav
1	78	1	2	0	C	2	1	1212	1	Ⴊ	cut_g_stereo_44KHz.wav
1	79	4	3	2	I	1	0	1108	1	Ⴜ	cut_w_stereo_44KHz.wav
1	80	2	1	0	C	2	1	521	1	Ⴃ	cut_l_stereo_44KHz.wav
1	81	1	2	0	C	1	0	975	0	Ⴊ	cut_g_stereo_44KHz.wav
1	82	4	4	2	I	2	0	372	0	Ⴜ	cut_h_stereo_44KHz.wav
1	83	2	2	1	C	1	1	684	1	Ⴃ	cut_g_stereo_44KHz.wav
1	84	3	3	2	I	2	0	430	1	Ⴁ	cut_w_stereo_44KHz.wav
1	85	2	1	0	C	1	0	580	0	Ⴃ	cut_l_stereo_44KHz.wav
1	86	3	4	2	I	2	0	640	1	Ⴁ	cut_h_stereo_44KHz.wav
1	87	4	3	2	I	2	0	630	1	Ⴜ	cut_w_stereo_44KHz.wav
1	88	1	1	1	C	2	0	562	0	Ⴊ	cut_l_stereo_44KHz.wav
1	89	2	1	0	C	1	0	601	0	Ⴃ	cut_l_stereo_44KHz.wav
1	90	4	3	2	I	2	0	601	1	Ⴜ	cut_w_stereo_44KHz.wav
1	91	3	3	2	I	0	0	0	0	Ⴁ	cut_w_stereo_44KHz.wav
1	92	1	2	0	C	2	1	611	1	Ⴊ	cut_g_stereo_44KHz.wav
1	93	2	2	1	C	2	0	808	0	Ⴃ	cut_g_stereo_44KHz.wav
1	94	1	1	1	C	2	0	1163	0	Ⴊ	cut_l_stereo_44KHz.wav
1	95	3	4	2	I	1	0	500	1	Ⴁ	cut_h_stereo_44KHz.wav
1	96	4	4	2	I	2	0	802	1	Ⴜ	cut_h_stereo_44KHz.wav
1	97	3	3	2	I	1	0	1332	1	Ⴁ	cut_w_stereo_44KHz.wav
1	98	4	3	2	I	2	0	801	1	Ⴜ	cut_w_stereo_44KHz.wav
1	99	2	2	1	C	2	0	351	0	Ⴃ	cut_g_stereo_44KHz.wav
1	100	1	1	1	C	2	0	1868	0	Ⴊ	cut_l_stereo_44KHz.wav
1	101	3	4	2	I	1	0	1075	0	Ⴁ	cut_h_stereo_44KHz.wav
1	102	1	2	0	C	2	1	911	1	Ⴊ	cut_g_stereo_44KHz.wav
1	103	4	4	2	I	2	0	771	1	Ⴜ	cut_h_stereo_44KHz.wav
1	104	2	1	0	C	2	1	1269	1	Ⴃ	cut_l_stereo_44KHz.wav
1	105	1	2	0	C	2	1	1124	1	Ⴊ	cut_g_stereo_44KHz.wav
1	106	4	3	2	I	2	0	1008	1	Ⴜ	cut_w_stereo_44KHz.wav
1	107	3	3	2	I	2	0	1321	1	Ⴁ	cut_w_stereo_44KHz.wav
1	108	2	1	0	C	2	1	650	1	Ⴃ	cut_l_stereo_44KHz.wav
1	109	1	1	1	C	2	0	675	0	Ⴊ	cut_l_stereo_44KHz.wav
1	110	3	4	2	I	2	0	973	1	Ⴁ	cut_h_stereo_44KHz.wav
1	111	4	4	2	I	2	0	1331	1	Ⴜ	cut_h_stereo_44KHz.wav
1	112	2	2	1	C	1	1	1369	1	Ⴃ	cut_g_stereo_44KHz.wav
1	113	4	3	2	I	2	0	1351	0	Ⴜ	cut_w_stereo_44KHz.wav
1	114	2	2	1	C	0	0	0	0	Ⴃ	cut_g_stereo_44KHz.wav
1	115	3	4	2	I	2	0	1097	1	Ⴁ	cut_h_stereo_44KHz.wav
1	116	1	1	1	C	1	1	882	1	Ⴊ	cut_l_stereo_44KHz.wav
1	117	4	4	2	I	2	0	830	1	Ⴜ	cut_h_stereo_44KHz.wav
1	118	2	1	0	C	2	1	808	1	Ⴃ	cut_l_stereo_44KHz.wav
1	119	1	2	0	C	2	1	583	1	Ⴊ	cut_g_stereo_44KHz.wav
1	120	3	3	2	I	1	0	655	0	Ⴁ	cut_w_stereo_44KHz.wav
1	121	2	2	1	C	2	0	641	0	Ⴃ	cut_g_stereo_44KHz.wav
1	122	3	4	2	I	1	0	675	1	Ⴁ	cut_h_stereo_44KHz.wav
1	123	4	3	2	I	2	0	1240	0	Ⴜ	cut_w_stereo_44KHz.wav
1	124	1	1	1	C	2	0	1942	0	Ⴊ	cut_l_stereo_44KHz.wav
1	125	3	3	2	I	1	0	772	1	Ⴁ	cut_w_stereo_44KHz.wav
1	126	1	2	0	C	2	1	1229	1	Ⴊ	cut_g_stereo_44KHz.wav
1	127	4	4	2	I	2	0	755	1	Ⴜ	cut_h_stereo_44KHz.wav
1	128	2	1	0	C	2	1	1026	1	Ⴃ	cut_l_stereo_44KHz.wav
1	129	3	4	2	I	2	0	1289	1	Ⴁ	cut_h_stereo_44KHz.wav
1	130	1	2	0	C	2	1	1618	1	Ⴊ	cut_g_stereo_44KHz.wav
1	131	2	1	0	C	2	1	1204	1	Ⴃ	cut_l_stereo_44KHz.wav
1	132	4	3	2	I	2	0	1674	1	Ⴜ	cut_w_stereo_44KHz.wav
1	133	1	1	1	C	2	0	784	0	Ⴊ	cut_l_stereo_44KHz.wav
1	134	4	4	2	I	1	0	835	1	Ⴜ	cut_h_stereo_44KHz.wav
1	135	3	3	2	I	2	0	406	1	Ⴁ	cut_w_stereo_44KHz.wav
1	136	2	2	1	C	2	0	678	0	Ⴃ	cut_g_stereo_44KHz.wav
1	137	1	2	0	C	2	1	1317	1	Ⴊ	cut_g_stereo_44KHz.wav
1	138	4	3	2	I	2	0	1221	1	Ⴜ	cut_w_stereo_44KHz.wav
1	139	3	4	2	I	2	0	813	0	Ⴁ	cut_h_stereo_44KHz.wav
1	140	2	2	1	C	1	1	647	1	Ⴃ	cut_g_stereo_44KHz.wav
1	141	4	4	2	I	2	0	567	0	Ⴜ	cut_h_stereo_44KHz.wav
1	142	2	1	0	C	2	1	1085	1	Ⴃ	cut_l_stereo_44KHz.wav
1	143	1	1	1	C	1	1	1078	1	Ⴊ	cut_l_stereo_44KHz.wav
1	144	3	3	2	I	2	0	641	1	Ⴁ	cut_w_stereo_44KHz.wav
1	145	4	4	2	I	2	0	518	1	Ⴜ	cut_h_stereo_44KHz.wav
1	146	2	2	1	C	2	0	748	0	Ⴃ	cut_g_stereo_44KHz.wav
1	147	1	1	1	C	2	0	565	0	Ⴊ	cut_l_stereo_44KHz.wav
1	148	3	3	2	I	1	0	728	1	Ⴁ	cut_w_stereo_44KHz.wav
1	149	1	2	0	C	2	1	937	1	Ⴊ	cut_g_stereo_44KHz.wav
1	150	2	1	0	C	2	1	717	1	Ⴃ	cut_l_stereo_44KHz.wav
1	151	3	4	2	I	2	0	764	1	Ⴁ	cut_h_stereo_44KHz.wav
1	152	4	3	2	I	2	0	407	1	Ⴜ	cut_w_stereo_44KHz.wav
1	153	1	1	1	C	2	0	615	0	Ⴊ	cut_l_stereo_44KHz.wav
1	154	3	3	2	I	2	0	958	1	Ⴁ	cut_w_stereo_44KHz.wav
1	155	4	3	2	I	2	0	1405	0	Ⴜ	cut_w_stereo_44KHz.wav
1	156	2	2	1	C	1	1	860	1	Ⴃ	cut_g_stereo_44KHz.wav
1	157	4	4	2	I	2	0	906	1	Ⴜ	cut_h_stereo_44KHz.wav
1	158	1	2	0	C	2	1	400	1	Ⴊ	cut_g_stereo_44KHz.wav
1	159	3	4	2	I	2	0	416	1	Ⴁ	cut_h_stereo_44KHz.wav
1	160	2	1	0	C	2	1	462	1	Ⴃ	cut_l_stereo_44KHz.wav
1	161	1	1	1	C	2	0	537	0	Ⴊ	cut_l_stereo_44KHz.wav
1	162	4	4	2	I	2	0	653	1	Ⴜ	cut_h_stereo_44KHz.wav
1	163	3	4	2	I	2	0	678	0	Ⴁ	cut_h_stereo_44KHz.wav
1	164	2	2	1	C	2	0	1659	0	Ⴃ	cut_g_stereo_44KHz.wav
1	165	3	3	2	I	1	0	967	1	Ⴁ	cut_w_stereo_44KHz.wav
1	166	4	3	2	I	1	0	637	0	Ⴜ	cut_w_stereo_44KHz.wav
1	167	2	1	0	C	2	1	729	1	Ⴃ	cut_l_stereo_44KHz.wav
1	168	1	2	0	C	2	1	798	1	Ⴊ	cut_g_stereo_44KHz.wav
1	169	4	3	2	I	2	0	579	1	Ⴜ	cut_w_stereo_44KHz.wav
1	170	2	2	1	C	2	0	667	0	Ⴃ	cut_g_stereo_44KHz.wav
1	171	1	1	1	C	2	0	896	0	Ⴊ	cut_l_stereo_44KHz.wav
1	172	3	4	2	I	1	0	473	1	Ⴁ	cut_h_stereo_44KHz.wav
1	173	2	1	0	C	2	1	953	1	Ⴃ	cut_l_stereo_44KHz.wav
1	174	3	3	2	I	2	0	1181	1	Ⴁ	cut_w_stereo_44KHz.wav
1	175	1	2	0	C	2	1	440	1	Ⴊ	cut_g_stereo_44KHz.wav
1	176	4	4	2	I	2	0	323	1	Ⴜ	cut_h_stereo_44KHz.wav
1	177	2	2	1	C	0	0	0	0	Ⴃ	cut_g_stereo_44KHz.wav
1	178	4	3	2	I	2	0	653	0	Ⴜ	cut_w_stereo_44KHz.wav
1	179	1	2	0	C	1	0	484	0	Ⴊ	cut_g_stereo_44KHz.wav
1	180	3	3	2	I	2	0	756	1	Ⴁ	cut_w_stereo_44KHz.wav
1	181	2	1	0	C	2	1	792	1	Ⴃ	cut_l_stereo_44KHz.wav
1	182	1	1	1	C	2	0	1079	0	Ⴊ	cut_l_stereo_44KHz.wav
1	183	3	4	2	I	2	0	463	1	Ⴁ	cut_h_stereo_44KHz.wav
1	184	4	4	2	I	2	0	650	1	Ⴜ	cut_h_stereo_44KHz.wav
1	185	3	4	2	I	2	0	881	0	Ⴁ	cut_h_stereo_44KHz.wav
1	186	1	1	1	C	2	0	701	0	Ⴊ	cut_l_stereo_44KHz.wav
1	187	4	4	2	I	2	0	945	1	Ⴜ	cut_h_stereo_44KHz.wav
1	188	2	2	1	C	2	0	609	0	Ⴃ	cut_g_stereo_44KHz.wav
1	189	4	3	2	I	1	0	826	0	Ⴜ	cut_w_stereo_44KHz.wav
1	190	2	1	0	C	2	1	430	1	Ⴃ	cut_l_stereo_44KHz.wav
1	191	3	3	2	I	2	0	913	1	Ⴁ	cut_w_stereo_44KHz.wav
1	192	1	2	0	C	2	1	631	1	Ⴊ	cut_g_stereo_44KHz.wav
1	193	4	4	2	I	2	0	680	1	Ⴜ	cut_h_stereo_44KHz.wav
1	194	3	3	2	I	2	0	360	1	Ⴁ	cut_w_stereo_44KHz.wav
1	195	2	1	0	C	2	1	491	1	Ⴃ	cut_l_stereo_44KHz.wav
1	196	1	1	1	C	2	0	303	0	Ⴊ	cut_l_stereo_44KHz.wav
1	197	3	4	2	I	2	0	562	1	Ⴁ	cut_h_stereo_44KHz.wav
1	198	2	2	1	C	2	0	1116	0	Ⴃ	cut_g_stereo_44KHz.wav
1	199	1	2	0	C	2	1	555	1	Ⴊ	cut_g_stereo_44KHz.wav
1	200	4	3	2	I	2	0	764	1	Ⴜ	cut_w_stereo_44KHz.wav
2	1	3	3	2	I	2	0	863	1	Ⴖ	cut_j_stereo_44KHz.wav
2	2	4	3	2	I	2	0	680	1	Ⴐ	cut_j_stereo_44KHz.wav
2	3	1	1	1	C	1	1	983	1	Ⴒ	cut_oei_stereo_44KHz.wav
2	4	2	2	1	C	2	0	1150	0	Ⴔ	cut_ui_stereo_44KHz.wav
2	5	3	4	2	I	2	0	861	1	Ⴖ	cut_ei_stereo_44KHz.wav
2	6	2	1	0	C	2	1	1925	1	Ⴔ	cut_oei_stereo_44KHz.wav
2	7	4	4	2	I	2	0	1080	1	Ⴐ	cut_ei_stereo_44KHz.wav
2	8	1	2	0	C	2	1	804	1	Ⴒ	cut_ui_stereo_44KHz.wav
2	9	3	3	2	I	2	0	720	0	Ⴖ	cut_j_stereo_44KHz.wav
2	10	4	3	2	I	1	0	1662	0	Ⴐ	cut_j_stereo_44KHz.wav
2	11	1	2	0	C	2	1	1085	1	Ⴒ	cut_ui_stereo_44KHz.wav
2	12	2	1	0	C	2	1	1309	1	Ⴔ	cut_oei_stereo_44KHz.wav
2	13	4	4	2	I	2	0	668	1	Ⴐ	cut_ei_stereo_44KHz.wav
2	14	1	1	1	C	2	0	448	0	Ⴒ	cut_oei_stereo_44KHz.wav
2	15	3	4	2	I	1	0	532	1	Ⴖ	cut_ei_stereo_44KHz.wav
2	16	2	2	1	C	2	0	517	0	Ⴔ	cut_ui_stereo_44KHz.wav
2	17	4	3	2	I	1	0	279	1	Ⴐ	cut_j_stereo_44KHz.wav
2	18	1	2	0	C	2	1	475	1	Ⴒ	cut_ui_stereo_44KHz.wav
2	19	2	1	0	C	1	0	395	0	Ⴔ	cut_oei_stereo_44KHz.wav
2	20	3	3	2	I	2	0	284	0	Ⴖ	cut_j_stereo_44KHz.wav
2	21	4	4	2	I	2	0	1142	1	Ⴐ	cut_ei_stereo_44KHz.wav
2	22	1	1	1	C	2	0	489	0	Ⴒ	cut_oei_stereo_44KHz.wav
2	23	3	4	2	I	1	0	522	1	Ⴖ	cut_ei_stereo_44KHz.wav
2	24	2	2	1	C	2	0	305	0	Ⴔ	cut_ui_stereo_44KHz.wav
2	25	3	3	2	I	1	0	497	0	Ⴖ	cut_j_stereo_44KHz.wav
2	26	4	3	2	I	2	0	297	0	Ⴐ	cut_j_stereo_44KHz.wav
2	27	2	1	0	C	2	1	814	1	Ⴔ	cut_oei_stereo_44KHz.wav
2	28	1	1	1	C	1	1	873	1	Ⴒ	cut_oei_stereo_44KHz.wav
2	29	3	4	2	I	1	0	1357	1	Ⴖ	cut_ei_stereo_44KHz.wav
2	30	2	2	1	C	1	1	1981	1	Ⴔ	cut_ui_stereo_44KHz.wav
2	31	4	4	2	I	2	0	1082	1	Ⴐ	cut_ei_stereo_44KHz.wav
2	32	1	2	0	C	2	1	877	1	Ⴒ	cut_ui_stereo_44KHz.wav
2	33	3	3	2	I	2	0	914	0	Ⴖ	cut_j_stereo_44KHz.wav
2	34	4	3	2	I	1	0	876	1	Ⴐ	cut_j_stereo_44KHz.wav
2	35	1	1	1	C	2	0	859	0	Ⴒ	cut_oei_stereo_44KHz.wav
2	36	2	2	1	C	1	1	930	1	Ⴔ	cut_ui_stereo_44KHz.wav
2	37	3	4	2	I	1	0	1393	1	Ⴖ	cut_ei_stereo_44KHz.wav
2	38	1	2	0	C	2	1	966	1	Ⴒ	cut_ui_stereo_44KHz.wav
2	39	4	4	2	I	2	0	891	1	Ⴐ	cut_ei_stereo_44KHz.wav
2	40	2	1	0	C	2	1	1545	1	Ⴔ	cut_oei_stereo_44KHz.wav
2	41	3	3	2	I	1	0	1015	0	Ⴖ	cut_j_stereo_44KHz.wav
2	42	4	3	2	I	2	0	469	1	Ⴐ	cut_j_stereo_44KHz.wav
2	43	1	2	0	C	1	0	488	0	Ⴒ	cut_ui_stereo_44KHz.wav
2	44	2	1	0	C	2	1	454	1	Ⴔ	cut_oei_stereo_44KHz.wav
2	45	4	4	2	I	2	0	815	1	Ⴐ	cut_ei_stereo_44KHz.wav
2	46	3	4	2	I	2	0	319	1	Ⴖ	cut_ei_stereo_44KHz.wav
2	47	2	2	1	C	2	0	473	0	Ⴔ	cut_ui_stereo_44KHz.wav
2	48	1	1	1	C	2	0	974	0	Ⴒ	cut_oei_stereo_44KHz.wav
2	49	2	1	0	C	2	1	940	1	Ⴔ	cut_oei_stereo_44KHz.wav
2	50	1	1	1	C	2	0	453	0	Ⴒ	cut_oei_stereo_44KHz.wav
2	51	3	3	2	I	1	0	1462	0	Ⴖ	cut_j_stereo_44KHz.wav
2	52	4	4	2	I	2	0	976	1	Ⴐ	cut_ei_stereo_44KHz.wav
2	53	2	2	1	C	2	0	602	0	Ⴔ	cut_ui_stereo_44KHz.wav
2	54	4	3	2	I	2	0	657	1	Ⴐ	cut_j_stereo_44KHz.wav
2	55	3	4	2	I	2	0	634	1	Ⴖ	cut_ei_stereo_44KHz.wav
2	56	1	2	0	C	2	1	917	1	Ⴒ	cut_ui_stereo_44KHz.wav
2	57	2	1	0	C	2	1	1138	1	Ⴔ	cut_oei_stereo_44KHz.wav
2	58	3	4	2	I	2	0	913	1	Ⴖ	cut_ei_stereo_44KHz.wav
2	59	4	3	2	I	2	0	732	1	Ⴐ	cut_j_stereo_44KHz.wav
2	60	1	1	1	C	1	1	1103	1	Ⴒ	cut_oei_stereo_44KHz.wav
2	61	2	2	1	C	1	1	1525	1	Ⴔ	cut_ui_stereo_44KHz.wav
2	62	1	2	0	C	1	0	1133	0	Ⴒ	cut_ui_stereo_44KHz.wav
2	63	4	4	2	I	1	0	1539	1	Ⴐ	cut_ei_stereo_44KHz.wav
2	64	3	3	2	I	2	0	1194	1	Ⴖ	cut_j_stereo_44KHz.wav
2	65	1	1	1	C	2	0	1225	0	Ⴒ	cut_oei_stereo_44KHz.wav
2	66	2	1	0	C	1	0	1264	0	Ⴔ	cut_oei_stereo_44KHz.wav
2	67	3	4	2	I	2	0	818	1	Ⴖ	cut_ei_stereo_44KHz.wav
2	68	4	4	2	I	2	0	1317	1	Ⴐ	cut_ei_stereo_44KHz.wav
2	69	1	2	0	C	1	0	686	0	Ⴒ	cut_ui_stereo_44KHz.wav
2	70	3	3	2	I	2	0	935	1	Ⴖ	cut_j_stereo_44KHz.wav
2	71	4	3	2	I	1	0	1148	0	Ⴐ	cut_j_stereo_44KHz.wav
2	72	2	2	1	C	1	1	1260	1	Ⴔ	cut_ui_stereo_44KHz.wav
2	73	4	3	2	I	2	0	1056	0	Ⴐ	cut_j_stereo_44KHz.wav
2	74	1	1	1	C	1	1	875	1	Ⴒ	cut_oei_stereo_44KHz.wav
2	75	2	1	0	C	2	1	1165	1	Ⴔ	cut_oei_stereo_44KHz.wav
2	76	3	4	2	I	1	0	586	1	Ⴖ	cut_ei_stereo_44KHz.wav
2	77	4	4	2	I	2	0	977	0	Ⴐ	cut_ei_stereo_44KHz.wav
2	78	1	2	0	C	1	0	1116	0	Ⴒ	cut_ui_stereo_44KHz.wav
2	79	2	2	1	C	1	1	1205	1	Ⴔ	cut_ui_stereo_44KHz.wav
2	80	3	3	2	I	2	0	1446	0	Ⴖ	cut_j_stereo_44KHz.wav
2	81	2	2	1	C	1	1	982	1	Ⴔ	cut_ui_stereo_44KHz.wav
2	82	1	1	1	C	1	1	1031	1	Ⴒ	cut_oei_stereo_44KHz.wav
2	83	3	3	2	I	1	0	1327	1	Ⴖ	cut_j_stereo_44KHz.wav
2	84	4	4	2	I	1	0	962	1	Ⴐ	cut_ei_stereo_44KHz.wav
2	85	2	1	0	C	2	1	970	1	Ⴔ	cut_oei_stereo_44KHz.wav
2	86	1	2	0	C	1	0	1398	0	Ⴒ	cut_ui_stereo_44KHz.wav
2	87	4	3	2	I	2	0	1019	1	Ⴐ	cut_j_stereo_44KHz.wav
2	88	3	4	2	I	1	0	1109	1	Ⴖ	cut_ei_stereo_44KHz.wav
2	89	4	3	2	I	2	0	1114	0	Ⴐ	cut_j_stereo_44KHz.wav
2	90	1	2	0	C	1	0	1142	0	Ⴒ	cut_ui_stereo_44KHz.wav
2	91	2	1	0	C	2	1	943	1	Ⴔ	cut_oei_stereo_44KHz.wav
2	92	3	4	2	I	2	0	1403	1	Ⴖ	cut_ei_stereo_44KHz.wav
2	93	2	2	1	C	1	1	1492	1	Ⴔ	cut_ui_stereo_44KHz.wav
2	94	4	4	2	I	2	0	1641	1	Ⴐ	cut_ei_stereo_44KHz.wav
2	95	3	3	2	I	0	0	0	0	Ⴖ	cut_j_stereo_44KHz.wav
2	96	1	1	1	C	2	0	1060	0	Ⴒ	cut_oei_stereo_44KHz.wav
2	97	2	2	1	C	1	1	1241	1	Ⴔ	cut_ui_stereo_44KHz.wav
2	98	1	1	1	C	1	1	1258	1	Ⴒ	cut_oei_stereo_44KHz.wav
2	99	4	4	2	I	1	0	985	1	Ⴐ	cut_ei_stereo_44KHz.wav
2	100	3	3	2	I	1	0	1089	1	Ⴖ	cut_j_stereo_44KHz.wav
2	101	4	3	2	I	2	0	1513	1	Ⴐ	cut_j_stereo_44KHz.wav
2	102	3	4	2	I	1	0	1070	1	Ⴖ	cut_ei_stereo_44KHz.wav
2	103	1	2	0	C	1	0	959	0	Ⴒ	cut_ui_stereo_44KHz.wav
2	104	2	1	0	C	2	1	1255	1	Ⴔ	cut_oei_stereo_44KHz.wav
2	105	3	4	2	I	1	0	1095	1	Ⴖ	cut_ei_stereo_44KHz.wav
2	106	4	4	2	I	1	0	1497	1	Ⴐ	cut_ei_stereo_44KHz.wav
2	107	1	2	0	C	1	0	951	0	Ⴒ	cut_ui_stereo_44KHz.wav
2	108	2	1	0	C	2	1	688	1	Ⴔ	cut_oei_stereo_44KHz.wav
2	109	3	3	2	I	1	0	943	1	Ⴖ	cut_j_stereo_44KHz.wav
2	110	4	3	2	I	2	0	1085	1	Ⴐ	cut_j_stereo_44KHz.wav
2	111	1	1	1	C	1	1	1500	1	Ⴒ	cut_oei_stereo_44KHz.wav
2	112	2	2	1	C	1	1	1636	1	Ⴔ	cut_ui_stereo_44KHz.wav
2	113	3	4	2	I	1	0	1477	1	Ⴖ	cut_ei_stereo_44KHz.wav
2	114	1	2	0	C	2	1	1036	1	Ⴒ	cut_ui_stereo_44KHz.wav
2	115	2	1	0	C	1	0	909	0	Ⴔ	cut_oei_stereo_44KHz.wav
2	116	4	3	2	I	2	0	1480	1	Ⴐ	cut_j_stereo_44KHz.wav
2	117	1	1	1	C	1	1	868	1	Ⴒ	cut_oei_stereo_44KHz.wav
2	118	2	2	1	C	1	1	1566	1	Ⴔ	cut_ui_stereo_44KHz.wav
2	119	4	4	2	I	2	0	641	0	Ⴐ	cut_ei_stereo_44KHz.wav
2	120	3	3	2	I	1	0	774	1	Ⴖ	cut_j_stereo_44KHz.wav
2	121	1	2	0	C	1	0	861	0	Ⴒ	cut_ui_stereo_44KHz.wav
2	122	4	4	2	I	2	0	969	1	Ⴐ	cut_ei_stereo_44KHz.wav
2	123	3	4	2	I	1	0	1551	1	Ⴖ	cut_ei_stereo_44KHz.wav
2	124	2	1	0	C	2	1	906	1	Ⴔ	cut_oei_stereo_44KHz.wav
2	125	4	3	2	I	2	0	528	1	Ⴐ	cut_j_stereo_44KHz.wav
2	126	1	1	1	C	2	0	634	0	Ⴒ	cut_oei_stereo_44KHz.wav
2	127	2	2	1	C	1	1	671	1	Ⴔ	cut_ui_stereo_44KHz.wav
2	128	3	3	2	I	2	0	1219	1	Ⴖ	cut_j_stereo_44KHz.wav
2	129	4	3	2	I	2	0	869	1	Ⴐ	cut_j_stereo_44KHz.wav
2	130	1	2	0	C	1	0	1082	0	Ⴒ	cut_ui_stereo_44KHz.wav
2	131	3	4	2	I	2	0	788	1	Ⴖ	cut_ei_stereo_44KHz.wav
2	132	2	1	0	C	2	1	817	1	Ⴔ	cut_oei_stereo_44KHz.wav
2	133	1	1	1	C	1	1	933	1	Ⴒ	cut_oei_stereo_44KHz.wav
2	134	4	4	2	I	2	0	572	0	Ⴐ	cut_ei_stereo_44KHz.wav
2	135	3	3	2	I	1	0	581	1	Ⴖ	cut_j_stereo_44KHz.wav
2	136	2	2	1	C	1	1	788	1	Ⴔ	cut_ui_stereo_44KHz.wav
2	137	4	4	2	I	1	0	720	1	Ⴐ	cut_ei_stereo_44KHz.wav
2	138	1	1	1	C	1	1	504	1	Ⴒ	cut_oei_stereo_44KHz.wav
2	139	2	2	1	C	2	0	909	0	Ⴔ	cut_ui_stereo_44KHz.wav
2	140	3	4	2	I	1	0	587	1	Ⴖ	cut_ei_stereo_44KHz.wav
2	141	1	2	0	C	1	0	713	0	Ⴒ	cut_ui_stereo_44KHz.wav
2	142	3	3	2	I	1	0	910	1	Ⴖ	cut_j_stereo_44KHz.wav
2	143	4	3	2	I	1	0	980	1	Ⴐ	cut_j_stereo_44KHz.wav
2	144	2	1	0	C	2	1	898	1	Ⴔ	cut_oei_stereo_44KHz.wav
2	145	4	4	2	I	2	0	931	1	Ⴐ	cut_ei_stereo_44KHz.wav
2	146	3	4	2	I	1	0	1007	1	Ⴖ	cut_ei_stereo_44KHz.wav
2	147	1	1	1	C	2	0	904	0	Ⴒ	cut_oei_stereo_44KHz.wav
2	148	2	1	0	C	1	0	713	0	Ⴔ	cut_oei_stereo_44KHz.wav
2	149	4	3	2	I	2	0	881	1	Ⴐ	cut_j_stereo_44KHz.wav
2	150	2	2	1	C	1	1	1028	1	Ⴔ	cut_ui_stereo_44KHz.wav
2	151	3	3	2	I	1	0	674	1	Ⴖ	cut_j_stereo_44KHz.wav
2	152	1	2	0	C	1	0	905	0	Ⴒ	cut_ui_stereo_44KHz.wav
2	153	4	4	2	I	2	0	684	1	Ⴐ	cut_ei_stereo_44KHz.wav
2	154	1	1	1	C	1	1	1203	1	Ⴒ	cut_oei_stereo_44KHz.wav
2	155	3	4	2	I	1	0	923	1	Ⴖ	cut_ei_stereo_44KHz.wav
2	156	2	1	0	C	2	1	1096	1	Ⴔ	cut_oei_stereo_44KHz.wav
2	157	1	2	0	C	1	0	822	0	Ⴒ	cut_ui_stereo_44KHz.wav
2	158	4	3	2	I	2	0	1035	1	Ⴐ	cut_j_stereo_44KHz.wav
2	159	3	3	2	I	1	0	864	1	Ⴖ	cut_j_stereo_44KHz.wav
2	160	2	2	1	C	2	0	1064	0	Ⴔ	cut_ui_stereo_44KHz.wav
2	161	1	2	0	C	1	0	803	0	Ⴒ	cut_ui_stereo_44KHz.wav
2	162	4	3	2	I	2	0	508	1	Ⴐ	cut_j_stereo_44KHz.wav
2	163	2	1	0	C	2	1	636	1	Ⴔ	cut_oei_stereo_44KHz.wav
2	164	3	4	2	I	1	0	802	1	Ⴖ	cut_ei_stereo_44KHz.wav
2	165	4	4	2	I	2	0	536	1	Ⴐ	cut_ei_stereo_44KHz.wav
2	166	2	2	1	C	1	1	1034	1	Ⴔ	cut_ui_stereo_44KHz.wav
2	167	3	3	2	I	2	0	1006	0	Ⴖ	cut_j_stereo_44KHz.wav
2	168	1	1	1	C	1	1	1375	1	Ⴒ	cut_oei_stereo_44KHz.wav
2	169	2	2	1	C	1	1	841	1	Ⴔ	cut_ui_stereo_44KHz.wav
2	170	4	3	2	I	2	0	606	1	Ⴐ	cut_j_stereo_44KHz.wav
2	171	3	4	2	I	1	0	859	1	Ⴖ	cut_ei_stereo_44KHz.wav
2	172	1	2	0	C	2	1	587	1	Ⴒ	cut_ui_stereo_44KHz.wav
2	173	3	3	2	I	0	0	0	0	Ⴖ	cut_j_stereo_44KHz.wav
2	174	1	1	1	C	2	0	677	0	Ⴒ	cut_oei_stereo_44KHz.wav
2	175	4	4	2	I	1	0	747	1	Ⴐ	cut_ei_stereo_44KHz.wav
2	176	2	1	0	C	2	1	797	1	Ⴔ	cut_oei_stereo_44KHz.wav
2	177	1	2	0	C	2	1	690	1	Ⴒ	cut_ui_stereo_44KHz.wav
2	178	2	1	0	C	2	1	820	1	Ⴔ	cut_oei_stereo_44KHz.wav
2	179	4	3	2	I	2	0	837	0	Ⴐ	cut_j_stereo_44KHz.wav
2	180	3	3	2	I	1	0	1668	0	Ⴖ	cut_j_stereo_44KHz.wav
2	181	4	4	2	I	2	0	938	1	Ⴐ	cut_ei_stereo_44KHz.wav
2	182	3	4	2	I	2	0	610	1	Ⴖ	cut_ei_stereo_44KHz.wav
2	183	2	2	1	C	1	1	811	1	Ⴔ	cut_ui_stereo_44KHz.wav
2	184	1	1	1	C	2	0	604	0	Ⴒ	cut_oei_stereo_44KHz.wav
2	185	3	3	2	I	2	0	986	1	Ⴖ	cut_j_stereo_44KHz.wav
2	186	1	1	1	C	2	0	1261	0	Ⴒ	cut_oei_stereo_44KHz.wav
2	187	4	4	2	I	2	0	1107	0	Ⴐ	cut_ei_stereo_44KHz.wav
2	188	2	1	0	C	1	0	850	0	Ⴔ	cut_oei_stereo_44KHz.wav
2	189	3	4	2	I	1	0	889	1	Ⴖ	cut_ei_stereo_44KHz.wav
2	190	4	3	2	I	2	0	408	1	Ⴐ	cut_j_stereo_44KHz.wav
2	191	1	2	0	C	2	1	925	1	Ⴒ	cut_ui_stereo_44KHz.wav
2	192	2	2	1	C	2	0	479	0	Ⴔ	cut_ui_stereo_44KHz.wav
2	193	3	4	2	I	1	0	843	1	Ⴖ	cut_ei_stereo_44KHz.wav
2	194	4	3	2	I	2	0	1633	1	Ⴐ	cut_j_stereo_44KHz.wav
2	195	1	2	0	C	2	1	1276	1	Ⴒ	cut_ui_stereo_44KHz.wav
2	196	2	2	1	C	1	1	757	1	Ⴔ	cut_ui_stereo_44KHz.wav
2	197	1	1	1	C	2	0	868	0	Ⴒ	cut_oei_stereo_44KHz.wav
2	198	3	3	2	I	1	0	890	1	Ⴖ	cut_j_stereo_44KHz.wav
2	199	2	1	0	C	2	1	554	1	Ⴔ	cut_oei_stereo_44KHz.wav
2	200	4	4	2	I	1	0	822	1	Ⴐ	cut_ei_stereo_44KHz.wav
3	1	2	1	0	C	2	1	1798	1	Ⴌ	cut_u_stereo_44KHz.wav
3	2	4	3	2	I	1	0	887	0	Ⴏ	cut_a_stereo_44KHz.wav
3	3	1	2	0	C	2	1	428	1	Ⴉ	cut_k_stereo_44KHz.wav
3	4	3	4	2	I	1	0	840	0	Ⴕ	cut_o_stereo_44KHz.wav
3	5	4	4	2	I	1	0	785	1	Ⴏ	cut_o_stereo_44KHz.wav
3	6	3	3	2	I	2	0	1063	1	Ⴕ	cut_a_stereo_44KHz.wav
3	7	2	2	1	C	1	1	588	1	Ⴌ	cut_k_stereo_44KHz.wav
3	8	1	1	1	C	2	0	891	0	Ⴉ	cut_u_stereo_44KHz.wav
3	9	3	4	2	I	2	0	924	1	Ⴕ	cut_o_stereo_44KHz.wav
3	10	2	2	1	C	1	1	856	1	Ⴌ	cut_k_stereo_44KHz.wav
3	11	1	2	0	C	1	0	869	0	Ⴉ	cut_k_stereo_44KHz.wav
3	12	4	4	2	I	2	0	679	1	Ⴏ	cut_o_stereo_44KHz.wav
3	13	3	3	2	I	2	0	1185	0	Ⴕ	cut_a_stereo_44KHz.wav
3	14	4	3	2	I	1	0	842	1	Ⴏ	cut_a_stereo_44KHz.wav
3	15	2	1	0	C	2	1	863	1	Ⴌ	cut_u_stereo_44KHz.wav
3	16	1	1	1	C	2	0	918	0	Ⴉ	cut_u_stereo_44KHz.wav
3	17	3	4	2	I	1	0	1048	0	Ⴕ	cut_o_stereo_44KHz.wav
3	18	2	1	0	C	2	1	1031	1	Ⴌ	cut_u_stereo_44KHz.wav
3	19	1	2	0	C	1	0	743	0	Ⴉ	cut_k_stereo_44KHz.wav
3	20	4	4	2	I	2	0	488	1	Ⴏ	cut_o_stereo_44KHz.wav
3	21	1	1	1	C	2	0	848	0	Ⴉ	cut_u_stereo_44KHz.wav
3	22	4	3	2	I	1	0	863	0	Ⴏ	cut_a_stereo_44KHz.wav
3	23	2	2	1	C	2	0	609	0	Ⴌ	cut_k_stereo_44KHz.wav
3	24	3	3	2	I	2	0	931	1	Ⴕ	cut_a_stereo_44KHz.wav
3	25	2	2	1	C	2	0	864	0	Ⴌ	cut_k_stereo_44KHz.wav
3	26	4	3	2	I	1	0	625	1	Ⴏ	cut_a_stereo_44KHz.wav
3	27	3	4	2	I	2	0	759	1	Ⴕ	cut_o_stereo_44KHz.wav
3	28	1	1	1	C	2	0	1304	0	Ⴉ	cut_u_stereo_44KHz.wav
3	29	4	4	2	I	1	0	935	1	Ⴏ	cut_o_stereo_44KHz.wav
3	30	2	1	0	C	2	1	532	1	Ⴌ	cut_u_stereo_44KHz.wav
3	31	1	2	0	C	1	0	507	0	Ⴉ	cut_k_stereo_44KHz.wav
3	32	3	3	2	I	2	0	678	0	Ⴕ	cut_a_stereo_44KHz.wav
3	33	4	4	2	I	1	0	684	1	Ⴏ	cut_o_stereo_44KHz.wav
3	34	2	1	0	C	1	0	885	0	Ⴌ	cut_u_stereo_44KHz.wav
3	35	3	4	2	I	2	0	616	1	Ⴕ	cut_o_stereo_44KHz.wav
3	36	1	1	1	C	2	0	598	0	Ⴉ	cut_u_stereo_44KHz.wav
3	37	2	2	1	C	1	1	627	1	Ⴌ	cut_k_stereo_44KHz.wav
3	38	4	3	2	I	2	0	450	0	Ⴏ	cut_a_stereo_44KHz.wav
3	39	1	2	0	C	2	1	807	1	Ⴉ	cut_k_stereo_44KHz.wav
3	40	3	3	2	I	2	0	663	0	Ⴕ	cut_a_stereo_44KHz.wav
3	41	4	3	2	I	1	0	575	0	Ⴏ	cut_a_stereo_44KHz.wav
3	42	3	3	2	I	2	0	482	0	Ⴕ	cut_a_stereo_44KHz.wav
3	43	1	1	1	C	1	1	893	1	Ⴉ	cut_u_stereo_44KHz.wav
3	44	2	1	0	C	2	1	613	1	Ⴌ	cut_u_stereo_44KHz.wav
3	45	1	2	0	C	2	1	873	1	Ⴉ	cut_k_stereo_44KHz.wav
3	46	2	2	1	C	1	1	664	1	Ⴌ	cut_k_stereo_44KHz.wav
3	47	3	4	2	I	2	0	546	1	Ⴕ	cut_o_stereo_44KHz.wav
3	48	4	4	2	I	0	0	0	0	Ⴏ	cut_o_stereo_44KHz.wav
3	49	2	1	0	C	1	0	649	0	Ⴌ	cut_u_stereo_44KHz.wav
3	50	1	1	1	C	2	0	467	0	Ⴉ	cut_u_stereo_44KHz.wav
3	51	3	3	2	I	1	0	489	1	Ⴕ	cut_a_stereo_44KHz.wav
3	52	4	3	2	I	2	0	693	1	Ⴏ	cut_a_stereo_44KHz.wav
3	53	2	2	1	C	2	0	865	0	Ⴌ	cut_k_stereo_44KHz.wav
3	54	4	4	2	I	1	0	846	0	Ⴏ	cut_o_stereo_44KHz.wav
3	55	1	2	0	C	1	0	979	0	Ⴉ	cut_k_stereo_44KHz.wav
3	56	3	4	2	I	2	0	818	1	Ⴕ	cut_o_stereo_44KHz.wav
3	57	4	4	2	I	2	0	748	1	Ⴏ	cut_o_stereo_44KHz.wav
3	58	1	1	1	C	1	1	546	1	Ⴉ	cut_u_stereo_44KHz.wav
3	59	2	2	1	C	2	0	328	0	Ⴌ	cut_k_stereo_44KHz.wav
3	60	3	4	2	I	1	0	438	1	Ⴕ	cut_o_stereo_44KHz.wav
3	61	4	3	2	I	2	0	513	1	Ⴏ	cut_a_stereo_44KHz.wav
3	62	3	3	2	I	2	0	597	1	Ⴕ	cut_a_stereo_44KHz.wav
3	63	2	1	0	C	1	0	454	0	Ⴌ	cut_u_stereo_44KHz.wav
3	64	1	2	0	C	2	1	373	1	Ⴉ	cut_k_stereo_44KHz.wav
3	65	4	4	2	I	1	0	650	1	Ⴏ	cut_o_stereo_44KHz.wav
3	66	3	4	2	I	2	0	524	1	Ⴕ	cut_o_stereo_44KHz.wav
3	67	1	2	0	C	2	1	735	1	Ⴉ	cut_k_stereo_44KHz.wav
3	68	2	1	0	C	2	1	516	1	Ⴌ	cut_u_stereo_44KHz.wav
3	69	4	3	2	I	2	0	453	1	Ⴏ	cut_a_stereo_44KHz.wav
3	70	3	3	2	I	2	0	471	1	Ⴕ	cut_a_stereo_44KHz.wav
3	71	2	2	1	C	2	0	1049	0	Ⴌ	cut_k_stereo_44KHz.wav
3	72	1	1	1	C	1	1	401	1	Ⴉ	cut_u_stereo_44KHz.wav
3	73	2	2	1	C	2	0	391	0	Ⴌ	cut_k_stereo_44KHz.wav
3	74	4	3	2	I	1	0	446	1	Ⴏ	cut_a_stereo_44KHz.wav
3	75	3	3	2	I	2	0	812	1	Ⴕ	cut_a_stereo_44KHz.wav
3	76	1	1	1	C	2	0	853	0	Ⴉ	cut_u_stereo_44KHz.wav
3	77	4	4	2	I	2	0	608	1	Ⴏ	cut_o_stereo_44KHz.wav
3	78	3	4	2	I	2	0	46	1	Ⴕ	cut_o_stereo_44KHz.wav
3	79	1	2	0	C	2	1	664	1	Ⴉ	cut_k_stereo_44KHz.wav
3	80	2	1	0	C	2	1	584	1	Ⴌ	cut_u_stereo_44KHz.wav
3	81	1	2	0	C	2	1	668	1	Ⴉ	cut_k_stereo_44KHz.wav
3	82	2	1	0	C	2	1	461	1	Ⴌ	cut_u_stereo_44KHz.wav
3	83	3	4	2	I	2	0	729	1	Ⴕ	cut_o_stereo_44KHz.wav
3	84	4	4	2	I	1	0	471	1	Ⴏ	cut_o_stereo_44KHz.wav
3	85	1	1	1	C	1	1	590	1	Ⴉ	cut_u_stereo_44KHz.wav
3	86	2	2	1	C	2	0	481	0	Ⴌ	cut_k_stereo_44KHz.wav
3	87	3	3	2	I	2	0	512	1	Ⴕ	cut_a_stereo_44KHz.wav
3	88	4	3	2	I	2	0	1177	1	Ⴏ	cut_a_stereo_44KHz.wav
3	89	1	2	0	C	2	1	879	1	Ⴉ	cut_k_stereo_44KHz.wav
3	90	3	3	2	I	2	0	776	1	Ⴕ	cut_a_stereo_44KHz.wav
3	91	4	3	2	I	2	0	927	1	Ⴏ	cut_a_stereo_44KHz.wav
3	92	2	2	1	C	2	0	365	0	Ⴌ	cut_k_stereo_44KHz.wav
3	93	1	1	1	C	2	0	391	0	Ⴉ	cut_u_stereo_44KHz.wav
3	94	3	4	2	I	2	0	620	0	Ⴕ	cut_o_stereo_44KHz.wav
3	95	4	4	2	I	1	0	280	1	Ⴏ	cut_o_stereo_44KHz.wav
3	96	2	1	0	C	2	1	504	1	Ⴌ	cut_u_stereo_44KHz.wav
3	97	4	3	2	I	2	0	506	1	Ⴏ	cut_a_stereo_44KHz.wav
3	98	1	1	1	C	2	0	490	0	Ⴉ	cut_u_stereo_44KHz.wav
3	99	3	3	2	I	1	0	1090	0	Ⴕ	cut_a_stereo_44KHz.wav
3	100	2	1	0	C	2	1	565	1	Ⴌ	cut_u_stereo_44KHz.wav
3	101	3	4	2	I	0	0	0	0	Ⴕ	cut_o_stereo_44KHz.wav
3	102	2	2	1	C	2	0	712	0	Ⴌ	cut_k_stereo_44KHz.wav
3	103	1	2	0	C	0	0	0	0	Ⴉ	cut_k_stereo_44KHz.wav
3	104	4	4	2	I	2	0	552	1	Ⴏ	cut_o_stereo_44KHz.wav
3	105	1	1	1	C	2	0	351	0	Ⴉ	cut_u_stereo_44KHz.wav
3	106	2	2	1	C	1	1	921	1	Ⴌ	cut_k_stereo_44KHz.wav
3	107	4	3	2	I	2	0	831	1	Ⴏ	cut_a_stereo_44KHz.wav
3	108	3	4	2	I	2	0	802	1	Ⴕ	cut_o_stereo_44KHz.wav
3	109	2	1	0	C	2	1	527	1	Ⴌ	cut_u_stereo_44KHz.wav
3	110	4	4	2	I	2	0	879	1	Ⴏ	cut_o_stereo_44KHz.wav
3	111	1	2	0	C	2	1	611	1	Ⴉ	cut_k_stereo_44KHz.wav
3	112	3	3	2	I	0	0	0	0	Ⴕ	cut_a_stereo_44KHz.wav
3	113	4	3	2	I	2	0	823	1	Ⴏ	cut_a_stereo_44KHz.wav
3	114	3	4	2	I	2	0	527	1	Ⴕ	cut_o_stereo_44KHz.wav
3	115	1	2	0	C	2	1	783	1	Ⴉ	cut_k_stereo_44KHz.wav
3	116	2	2	1	C	2	0	629	0	Ⴌ	cut_k_stereo_44KHz.wav
3	117	3	3	2	I	2	0	647	1	Ⴕ	cut_a_stereo_44KHz.wav
3	118	2	1	0	C	0	0	0	0	Ⴌ	cut_u_stereo_44KHz.wav
3	119	4	4	2	I	2	0	572	1	Ⴏ	cut_o_stereo_44KHz.wav
3	120	1	1	1	C	2	0	845	0	Ⴉ	cut_u_stereo_44KHz.wav
3	121	4	4	2	I	1	0	493	0	Ⴏ	cut_o_stereo_44KHz.wav
3	122	2	1	0	C	2	1	534	1	Ⴌ	cut_u_stereo_44KHz.wav
3	123	1	2	0	C	2	1	427	1	Ⴉ	cut_k_stereo_44KHz.wav
3	124	3	3	2	I	2	0	607	1	Ⴕ	cut_a_stereo_44KHz.wav
3	125	2	2	1	C	2	0	1313	0	Ⴌ	cut_k_stereo_44KHz.wav
3	126	1	1	1	C	1	1	1415	1	Ⴉ	cut_u_stereo_44KHz.wav
3	127	3	4	2	I	2	0	955	1	Ⴕ	cut_o_stereo_44KHz.wav
3	128	4	3	2	I	2	0	433	1	Ⴏ	cut_a_stereo_44KHz.wav
3	129	1	1	1	C	2	0	275	0	Ⴉ	cut_u_stereo_44KHz.wav
3	130	2	1	0	C	2	1	596	1	Ⴌ	cut_u_stereo_44KHz.wav
3	131	4	3	2	I	2	0	497	1	Ⴏ	cut_a_stereo_44KHz.wav
3	132	3	4	2	I	2	0	506	1	Ⴕ	cut_o_stereo_44KHz.wav
3	133	1	2	0	C	1	0	681	0	Ⴉ	cut_k_stereo_44KHz.wav
3	134	4	4	2	I	2	0	665	1	Ⴏ	cut_o_stereo_44KHz.wav
3	135	3	3	2	I	2	0	839	1	Ⴕ	cut_a_stereo_44KHz.wav
3	136	2	2	1	C	1	1	1608	1	Ⴌ	cut_k_stereo_44KHz.wav
3	137	3	4	2	I	2	0	383	1	Ⴕ	cut_o_stereo_44KHz.wav
3	138	2	2	1	C	2	0	764	0	Ⴌ	cut_k_stereo_44KHz.wav
3	139	1	2	0	C	2	1	789	1	Ⴉ	cut_k_stereo_44KHz.wav
3	140	4	3	2	I	2	0	548	1	Ⴏ	cut_a_stereo_44KHz.wav
3	141	1	1	1	C	1	1	487	1	Ⴉ	cut_u_stereo_44KHz.wav
3	142	4	4	2	I	2	0	513	1	Ⴏ	cut_o_stereo_44KHz.wav
3	143	3	3	2	I	2	0	501	1	Ⴕ	cut_a_stereo_44KHz.wav
3	144	2	1	0	C	2	1	427	1	Ⴌ	cut_u_stereo_44KHz.wav
3	145	1	2	0	C	2	1	334	1	Ⴉ	cut_k_stereo_44KHz.wav
3	146	2	2	1	C	1	1	769	1	Ⴌ	cut_k_stereo_44KHz.wav
3	147	3	4	2	I	2	0	685	1	Ⴕ	cut_o_stereo_44KHz.wav
3	148	4	4	2	I	2	0	1645	0	Ⴏ	cut_o_stereo_44KHz.wav
3	149	3	3	2	I	2	0	1095	0	Ⴕ	cut_a_stereo_44KHz.wav
3	150	1	1	1	C	1	1	1476	1	Ⴉ	cut_u_stereo_44KHz.wav
3	151	4	3	2	I	2	0	716	1	Ⴏ	cut_a_stereo_44KHz.wav
3	152	2	1	0	C	1	0	388	0	Ⴌ	cut_u_stereo_44KHz.wav
3	153	1	1	1	C	2	0	822	0	Ⴉ	cut_u_stereo_44KHz.wav
3	154	3	4	2	I	1	0	524	1	Ⴕ	cut_o_stereo_44KHz.wav
3	155	2	1	0	C	2	1	933	1	Ⴌ	cut_u_stereo_44KHz.wav
3	156	4	3	2	I	2	0	921	1	Ⴏ	cut_a_stereo_44KHz.wav
3	157	1	2	0	C	1	0	566	0	Ⴉ	cut_k_stereo_44KHz.wav
3	158	4	4	2	I	2	0	1083	0	Ⴏ	cut_o_stereo_44KHz.wav
3	159	2	2	1	C	2	0	662	0	Ⴌ	cut_k_stereo_44KHz.wav
3	160	3	3	2	I	2	0	405	1	Ⴕ	cut_a_stereo_44KHz.wav
3	161	1	2	0	C	2	1	607	1	Ⴉ	cut_k_stereo_44KHz.wav
3	162	2	1	0	C	2	1	922	1	Ⴌ	cut_u_stereo_44KHz.wav
3	163	4	3	2	I	2	0	564	1	Ⴏ	cut_a_stereo_44KHz.wav
3	164	3	3	2	I	2	0	609	1	Ⴕ	cut_a_stereo_44KHz.wav
3	165	1	1	1	C	1	1	432	1	Ⴉ	cut_u_stereo_44KHz.wav
3	166	4	4	2	I	2	0	595	1	Ⴏ	cut_o_stereo_44KHz.wav
3	167	2	2	1	C	2	0	657	0	Ⴌ	cut_k_stereo_44KHz.wav
3	168	3	4	2	I	1	0	556	1	Ⴕ	cut_o_stereo_44KHz.wav
3	169	1	1	1	C	2	0	1660	0	Ⴉ	cut_u_stereo_44KHz.wav
3	170	2	1	0	C	2	1	927	1	Ⴌ	cut_u_stereo_44KHz.wav
3	171	3	4	2	I	2	0	610	1	Ⴕ	cut_o_stereo_44KHz.wav
3	172	4	3	2	I	2	0	482	0	Ⴏ	cut_a_stereo_44KHz.wav
3	173	1	2	0	C	2	1	1680	1	Ⴉ	cut_k_stereo_44KHz.wav
3	174	2	2	1	C	2	0	640	0	Ⴌ	cut_k_stereo_44KHz.wav
3	175	3	3	2	I	2	0	377	1	Ⴕ	cut_a_stereo_44KHz.wav
3	176	4	4	2	I	2	0	445	1	Ⴏ	cut_o_stereo_44KHz.wav
3	177	2	2	1	C	2	0	378	0	Ⴌ	cut_k_stereo_44KHz.wav
3	178	4	3	2	I	1	0	380	1	Ⴏ	cut_a_stereo_44KHz.wav
3	179	1	1	1	C	2	0	391	0	Ⴉ	cut_u_stereo_44KHz.wav
3	180	3	4	2	I	2	0	428	1	Ⴕ	cut_o_stereo_44KHz.wav
3	181	1	2	0	C	2	1	392	1	Ⴉ	cut_k_stereo_44KHz.wav
3	182	2	1	0	C	2	1	342	1	Ⴌ	cut_u_stereo_44KHz.wav
3	183	4	4	2	I	2	0	326	1	Ⴏ	cut_o_stereo_44KHz.wav
3	184	3	3	2	I	2	0	343	0	Ⴕ	cut_a_stereo_44KHz.wav
3	185	4	3	2	I	1	0	780	1	Ⴏ	cut_a_stereo_44KHz.wav
3	186	3	3	2	I	2	0	586	1	Ⴕ	cut_a_stereo_44KHz.wav
3	187	1	1	1	C	2	0	419	0	Ⴉ	cut_u_stereo_44KHz.wav
3	188	2	2	1	C	2	0	787	0	Ⴌ	cut_k_stereo_44KHz.wav
3	189	4	4	2	I	2	0	998	1	Ⴏ	cut_o_stereo_44KHz.wav
3	190	3	4	2	I	2	0	815	1	Ⴕ	cut_o_stereo_44KHz.wav
3	191	2	1	0	C	2	1	581	1	Ⴌ	cut_u_stereo_44KHz.wav
3	192	1	2	0	C	2	1	823	1	Ⴉ	cut_k_stereo_44KHz.wav
3	193	4	4	2	I	2	0	1157	1	Ⴏ	cut_o_stereo_44KHz.wav
3	194	3	4	2	I	2	0	724	1	Ⴕ	cut_o_stereo_44KHz.wav
3	195	2	1	0	C	2	1	528	1	Ⴌ	cut_u_stereo_44KHz.wav
3	196	1	1	1	C	2	0	548	0	Ⴉ	cut_u_stereo_44KHz.wav
3	197	4	3	2	I	2	0	454	0	Ⴏ	cut_a_stereo_44KHz.wav
3	198	3	3	2	I	1	0	423	1	Ⴕ	cut_a_stereo_44KHz.wav
3	199	1	2	0	C	1	0	929	0	Ⴉ	cut_k_stereo_44KHz.wav
3	200	2	2	1	C	2	0	337	0	Ⴌ	cut_k_stereo_44KHz.wav
4	1	2	1	0	C	2	1	882	1	Ⴂ	cut_n_stereo_44KHz.wav
4	2	3	3	2	I	2	0	684	0	Ⴡ	cut_f_stereo_44KHz.wav
4	3	4	3	2	I	1	0	551	0	Ⴇ	cut_f_stereo_44KHz.wav
4	4	1	1	1	C	2	0	540	0	Ⴟ	cut_n_stereo_44KHz.wav
4	5	2	2	1	C	1	1	509	1	Ⴂ	cut_r_stereo_44KHz.wav
4	6	1	2	0	C	2	1	527	1	Ⴟ	cut_r_stereo_44KHz.wav
4	7	3	4	2	I	1	0	535	1	Ⴡ	cut_s_stereo_44KHz.wav
4	8	4	4	2	I	2	0	696	1	Ⴇ	cut_s_stereo_44KHz.wav
4	9	1	1	1	C	1	1	599	1	Ⴟ	cut_n_stereo_44KHz.wav
4	10	3	4	2	I	2	0	362	0	Ⴡ	cut_s_stereo_44KHz.wav
4	11	4	4	2	I	1	0	469	1	Ⴇ	cut_s_stereo_44KHz.wav
4	12	2	1	0	C	1	0	1056	0	Ⴂ	cut_n_stereo_44KHz.wav
4	13	4	3	2	I	2	0	1585	1	Ⴇ	cut_f_stereo_44KHz.wav
4	14	3	3	2	I	1	0	696	0	Ⴡ	cut_f_stereo_44KHz.wav
4	15	2	2	1	C	2	0	389	0	Ⴂ	cut_r_stereo_44KHz.wav
4	16	1	2	0	C	1	0	1117	0	Ⴟ	cut_r_stereo_44KHz.wav
4	17	2	2	1	C	2	0	873	0	Ⴂ	cut_r_stereo_44KHz.wav
4	18	1	2	0	C	1	0	1792	0	Ⴟ	cut_r_stereo_44KHz.wav
4	19	3	4	2	I	1	0	1557	1	Ⴡ	cut_s_stereo_44KHz.wav
4	20	4	3	2	I	2	0	1094	1	Ⴇ	cut_f_stereo_44KHz.wav
4	21	3	3	2	I	0	0	0	0	Ⴡ	cut_f_stereo_44KHz.wav
4	22	2	1	0	C	2	1	685	1	Ⴂ	cut_n_stereo_44KHz.wav
4	23	1	1	1	C	1	1	1351	1	Ⴟ	cut_n_stereo_44KHz.wav
4	24	4	4	2	I	2	0	1640	1	Ⴇ	cut_s_stereo_44KHz.wav
4	25	2	2	1	C	0	0	0	0	Ⴂ	cut_r_stereo_44KHz.wav
4	26	1	2	0	C	2	1	906	1	Ⴟ	cut_r_stereo_44KHz.wav
4	27	4	4	2	I	0	0	0	0	Ⴇ	cut_s_stereo_44KHz.wav
4	28	3	4	2	I	2	0	770	1	Ⴡ	cut_s_stereo_44KHz.wav
4	29	4	3	2	I	1	0	590	1	Ⴇ	cut_f_stereo_44KHz.wav
4	30	3	3	2	I	2	0	893	1	Ⴡ	cut_f_stereo_44KHz.wav
4	31	2	1	0	C	2	1	622	1	Ⴂ	cut_n_stereo_44KHz.wav
4	32	1	1	1	C	2	0	557	0	Ⴟ	cut_n_stereo_44KHz.wav
4	33	3	4	2	I	1	0	587	1	Ⴡ	cut_s_stereo_44KHz.wav
4	34	4	4	2	I	1	0	1742	0	Ⴇ	cut_s_stereo_44KHz.wav
4	35	1	1	1	C	2	0	700	0	Ⴟ	cut_n_stereo_44KHz.wav
4	36	2	1	0	C	1	0	1064	0	Ⴂ	cut_n_stereo_44KHz.wav
4	37	1	2	0	C	2	1	607	1	Ⴟ	cut_r_stereo_44KHz.wav
4	38	2	2	1	C	2	0	1373	0	Ⴂ	cut_r_stereo_44KHz.wav
4	39	4	3	2	I	2	0	1333	1	Ⴇ	cut_f_stereo_44KHz.wav
4	40	3	3	2	I	1	0	672	1	Ⴡ	cut_f_stereo_44KHz.wav
4	41	2	2	1	C	2	0	835	0	Ⴂ	cut_r_stereo_44KHz.wav
4	42	3	3	2	I	2	0	900	1	Ⴡ	cut_f_stereo_44KHz.wav
4	43	4	4	2	I	2	0	894	1	Ⴇ	cut_s_stereo_44KHz.wav
4	44	1	2	0	C	1	0	988	0	Ⴟ	cut_r_stereo_44KHz.wav
4	45	4	3	2	I	2	0	1155	1	Ⴇ	cut_f_stereo_44KHz.wav
4	46	2	1	0	C	1	0	1233	0	Ⴂ	cut_n_stereo_44KHz.wav
4	47	3	4	2	I	2	0	573	1	Ⴡ	cut_s_stereo_44KHz.wav
4	48	1	1	1	C	2	0	565	0	Ⴟ	cut_n_stereo_44KHz.wav
4	49	3	3	2	I	1	0	956	1	Ⴡ	cut_f_stereo_44KHz.wav
4	50	4	3	2	I	2	0	799	1	Ⴇ	cut_f_stereo_44KHz.wav
4	51	1	1	1	C	1	1	866	1	Ⴟ	cut_n_stereo_44KHz.wav
4	52	2	2	1	C	2	0	638	0	Ⴂ	cut_r_stereo_44KHz.wav
4	53	4	4	2	I	0	0	0	0	Ⴇ	cut_s_stereo_44KHz.wav
4	54	1	2	0	C	1	0	1013	0	Ⴟ	cut_r_stereo_44KHz.wav
4	55	2	1	0	C	2	1	1304	1	Ⴂ	cut_n_stereo_44KHz.wav
4	56	3	4	2	I	1	0	1025	1	Ⴡ	cut_s_stereo_44KHz.wav
4	57	4	3	2	I	2	0	422	0	Ⴇ	cut_f_stereo_44KHz.wav
4	58	1	1	1	C	1	1	1722	1	Ⴟ	cut_n_stereo_44KHz.wav
4	59	3	4	2	I	2	0	836	0	Ⴡ	cut_s_stereo_44KHz.wav
4	60	2	1	0	C	2	1	986	1	Ⴂ	cut_n_stereo_44KHz.wav
4	61	3	3	2	I	1	0	954	0	Ⴡ	cut_f_stereo_44KHz.wav
4	62	4	4	2	I	2	0	465	1	Ⴇ	cut_s_stereo_44KHz.wav
4	63	1	2	0	C	2	1	467	1	Ⴟ	cut_r_stereo_44KHz.wav
4	64	2	2	1	C	2	0	621	0	Ⴂ	cut_r_stereo_44KHz.wav
4	65	4	3	2	I	1	0	647	1	Ⴇ	cut_f_stereo_44KHz.wav
4	66	3	4	2	I	2	0	982	1	Ⴡ	cut_s_stereo_44KHz.wav
4	67	1	2	0	C	0	0	0	0	Ⴟ	cut_r_stereo_44KHz.wav
4	68	2	1	0	C	0	0	0	0	Ⴂ	cut_n_stereo_44KHz.wav
4	69	4	4	2	I	2	0	700	1	Ⴇ	cut_s_stereo_44KHz.wav
4	70	3	3	2	I	2	0	480	1	Ⴡ	cut_f_stereo_44KHz.wav
4	71	1	1	1	C	2	0	544	0	Ⴟ	cut_n_stereo_44KHz.wav
4	72	2	2	1	C	1	1	727	1	Ⴂ	cut_r_stereo_44KHz.wav
4	73	3	4	2	I	2	0	433	1	Ⴡ	cut_s_stereo_44KHz.wav
4	74	1	2	0	C	2	1	1874	1	Ⴟ	cut_r_stereo_44KHz.wav
4	75	2	1	0	C	2	1	375	1	Ⴂ	cut_n_stereo_44KHz.wav
4	76	4	4	2	I	2	0	309	1	Ⴇ	cut_s_stereo_44KHz.wav
4	77	1	1	1	C	2	0	385	0	Ⴟ	cut_n_stereo_44KHz.wav
4	78	2	2	1	C	1	1	550	1	Ⴂ	cut_r_stereo_44KHz.wav
4	79	4	3	2	I	2	0	356	0	Ⴇ	cut_f_stereo_44KHz.wav
4	80	3	3	2	I	1	0	601	1	Ⴡ	cut_f_stereo_44KHz.wav
4	81	2	1	0	C	2	1	1344	1	Ⴂ	cut_n_stereo_44KHz.wav
4	82	4	4	2	I	1	0	417	0	Ⴇ	cut_s_stereo_44KHz.wav
4	83	3	4	2	I	2	0	492	1	Ⴡ	cut_s_stereo_44KHz.wav
4	84	1	1	1	C	2	0	920	0	Ⴟ	cut_n_stereo_44KHz.wav
4	85	2	2	1	C	2	0	640	0	Ⴂ	cut_r_stereo_44KHz.wav
4	86	1	2	0	C	1	0	1075	0	Ⴟ	cut_r_stereo_44KHz.wav
4	87	4	3	2	I	2	0	468	1	Ⴇ	cut_f_stereo_44KHz.wav
4	88	3	3	2	I	2	0	477	1	Ⴡ	cut_f_stereo_44KHz.wav
4	89	4	3	2	I	1	0	664	1	Ⴇ	cut_f_stereo_44KHz.wav
4	90	3	3	2	I	2	0	597	1	Ⴡ	cut_f_stereo_44KHz.wav
4	91	1	2	0	C	2	1	449	1	Ⴟ	cut_r_stereo_44KHz.wav
4	92	2	1	0	C	2	1	646	1	Ⴂ	cut_n_stereo_44KHz.wav
4	93	1	1	1	C	1	1	672	1	Ⴟ	cut_n_stereo_44KHz.wav
4	94	4	4	2	I	2	0	462	1	Ⴇ	cut_s_stereo_44KHz.wav
4	95	3	4	2	I	2	0	549	0	Ⴡ	cut_s_stereo_44KHz.wav
4	96	2	2	1	C	2	0	1154	0	Ⴂ	cut_r_stereo_44KHz.wav
4	97	4	3	2	I	1	0	482	1	Ⴇ	cut_f_stereo_44KHz.wav
4	98	3	3	2	I	1	0	1259	1	Ⴡ	cut_f_stereo_44KHz.wav
4	99	2	2	1	C	2	0	1801	0	Ⴂ	cut_r_stereo_44KHz.wav
4	100	1	2	0	C	2	1	1331	1	Ⴟ	cut_r_stereo_44KHz.wav
4	101	3	4	2	I	1	0	1134	1	Ⴡ	cut_s_stereo_44KHz.wav
4	102	1	1	1	C	2	0	344	0	Ⴟ	cut_n_stereo_44KHz.wav
4	103	4	4	2	I	1	0	1069	1	Ⴇ	cut_s_stereo_44KHz.wav
4	104	2	1	0	C	2	1	1108	1	Ⴂ	cut_n_stereo_44KHz.wav
4	105	4	4	2	I	1	0	551	1	Ⴇ	cut_s_stereo_44KHz.wav
4	106	1	1	1	C	2	0	484	0	Ⴟ	cut_n_stereo_44KHz.wav
4	107	3	3	2	I	1	0	642	0	Ⴡ	cut_f_stereo_44KHz.wav
4	108	2	2	1	C	2	0	439	0	Ⴂ	cut_r_stereo_44KHz.wav
4	109	1	2	0	C	1	0	444	0	Ⴟ	cut_r_stereo_44KHz.wav
4	110	3	4	2	I	2	0	788	1	Ⴡ	cut_s_stereo_44KHz.wav
4	111	4	3	2	I	2	0	803	1	Ⴇ	cut_f_stereo_44KHz.wav
4	112	2	1	0	C	1	0	570	0	Ⴂ	cut_n_stereo_44KHz.wav
4	113	1	1	1	C	1	1	1011	1	Ⴟ	cut_n_stereo_44KHz.wav
4	114	2	2	1	C	1	1	1009	1	Ⴂ	cut_r_stereo_44KHz.wav
4	115	4	4	2	I	2	0	1242	1	Ⴇ	cut_s_stereo_44KHz.wav
4	116	3	3	2	I	1	0	808	1	Ⴡ	cut_f_stereo_44KHz.wav
4	117	2	1	0	C	2	1	725	1	Ⴂ	cut_n_stereo_44KHz.wav
4	118	1	2	0	C	2	1	729	1	Ⴟ	cut_r_stereo_44KHz.wav
4	119	4	3	2	I	2	0	1035	1	Ⴇ	cut_f_stereo_44KHz.wav
4	120	3	4	2	I	2	0	880	1	Ⴡ	cut_s_stereo_44KHz.wav
4	121	1	2	0	C	2	1	642	1	Ⴟ	cut_r_stereo_44KHz.wav
4	122	4	3	2	I	2	0	487	1	Ⴇ	cut_f_stereo_44KHz.wav
4	123	2	2	1	C	2	0	652	0	Ⴂ	cut_r_stereo_44KHz.wav
4	124	3	4	2	I	1	0	389	0	Ⴡ	cut_s_stereo_44KHz.wav
4	125	4	4	2	I	2	0	964	1	Ⴇ	cut_s_stereo_44KHz.wav
4	126	3	3	2	I	2	0	836	1	Ⴡ	cut_f_stereo_44KHz.wav
4	127	1	1	1	C	1	1	1098	1	Ⴟ	cut_n_stereo_44KHz.wav
4	128	2	1	0	C	2	1	1027	1	Ⴂ	cut_n_stereo_44KHz.wav
4	129	3	4	2	I	2	0	770	0	Ⴡ	cut_s_stereo_44KHz.wav
4	130	4	4	2	I	1	0	850	1	Ⴇ	cut_s_stereo_44KHz.wav
4	131	2	2	1	C	1	1	1344	1	Ⴂ	cut_r_stereo_44KHz.wav
4	132	1	2	0	C	2	1	628	1	Ⴟ	cut_r_stereo_44KHz.wav
4	133	2	1	0	C	2	1	414	1	Ⴂ	cut_n_stereo_44KHz.wav
4	134	1	1	1	C	2	0	627	0	Ⴟ	cut_n_stereo_44KHz.wav
4	135	4	3	2	I	2	0	687	1	Ⴇ	cut_f_stereo_44KHz.wav
4	136	3	3	2	I	1	0	501	0	Ⴡ	cut_f_stereo_44KHz.wav
4	137	4	4	2	I	2	0	524	1	Ⴇ	cut_s_stereo_44KHz.wav
4	138	1	2	0	C	2	1	692	1	Ⴟ	cut_r_stereo_44KHz.wav
4	139	3	4	2	I	2	0	771	1	Ⴡ	cut_s_stereo_44KHz.wav
4	140	2	1	0	C	2	1	679	1	Ⴂ	cut_n_stereo_44KHz.wav
4	141	1	1	1	C	1	1	1556	1	Ⴟ	cut_n_stereo_44KHz.wav
4	142	4	3	2	I	2	0	1032	0	Ⴇ	cut_f_stereo_44KHz.wav
4	143	3	3	2	I	1	0	1271	1	Ⴡ	cut_f_stereo_44KHz.wav
4	144	2	2	1	C	2	0	514	0	Ⴂ	cut_r_stereo_44KHz.wav
4	145	3	4	2	I	1	0	842	1	Ⴡ	cut_s_stereo_44KHz.wav
4	146	4	3	2	I	2	0	576	1	Ⴇ	cut_f_stereo_44KHz.wav
4	147	2	2	1	C	2	0	1090	0	Ⴂ	cut_r_stereo_44KHz.wav
4	148	1	2	0	C	1	0	587	0	Ⴟ	cut_r_stereo_44KHz.wav
4	149	4	4	2	I	2	0	932	1	Ⴇ	cut_s_stereo_44KHz.wav
4	150	1	1	1	C	1	1	486	1	Ⴟ	cut_n_stereo_44KHz.wav
4	151	3	3	2	I	2	0	438	1	Ⴡ	cut_f_stereo_44KHz.wav
4	152	2	1	0	C	1	0	428	0	Ⴂ	cut_n_stereo_44KHz.wav
4	153	3	4	2	I	2	0	467	1	Ⴡ	cut_s_stereo_44KHz.wav
4	154	1	2	0	C	1	0	378	0	Ⴟ	cut_r_stereo_44KHz.wav
4	155	4	3	2	I	2	0	724	1	Ⴇ	cut_f_stereo_44KHz.wav
4	156	2	1	0	C	1	0	1618	0	Ⴂ	cut_n_stereo_44KHz.wav
4	157	1	1	1	C	2	0	626	0	Ⴟ	cut_n_stereo_44KHz.wav
4	158	3	3	2	I	1	0	632	1	Ⴡ	cut_f_stereo_44KHz.wav
4	159	2	2	1	C	2	0	313	0	Ⴂ	cut_r_stereo_44KHz.wav
4	160	4	4	2	I	1	0	631	0	Ⴇ	cut_s_stereo_44KHz.wav
4	161	3	3	2	I	2	0	373	1	Ⴡ	cut_f_stereo_44KHz.wav
4	162	2	2	1	C	1	1	836	1	Ⴂ	cut_r_stereo_44KHz.wav
4	163	1	2	0	C	1	0	769	0	Ⴟ	cut_r_stereo_44KHz.wav
4	164	4	3	2	I	2	0	397	1	Ⴇ	cut_f_stereo_44KHz.wav
4	165	1	1	1	C	2	0	499	0	Ⴟ	cut_n_stereo_44KHz.wav
4	166	3	4	2	I	1	0	1356	1	Ⴡ	cut_s_stereo_44KHz.wav
4	167	4	4	2	I	2	0	396	0	Ⴇ	cut_s_stereo_44KHz.wav
4	168	2	1	0	C	2	1	316	1	Ⴂ	cut_n_stereo_44KHz.wav
4	169	3	4	2	I	1	0	1269	1	Ⴡ	cut_s_stereo_44KHz.wav
4	170	1	1	1	C	2	0	1149	0	Ⴟ	cut_n_stereo_44KHz.wav
4	171	2	1	0	C	1	0	579	0	Ⴂ	cut_n_stereo_44KHz.wav
4	172	4	4	2	I	2	0	1627	0	Ⴇ	cut_s_stereo_44KHz.wav
4	173	1	2	0	C	1	0	609	0	Ⴟ	cut_r_stereo_44KHz.wav
4	174	3	3	2	I	2	0	556	1	Ⴡ	cut_f_stereo_44KHz.wav
4	175	2	2	1	C	1	1	1283	1	Ⴂ	cut_r_stereo_44KHz.wav
4	176	4	3	2	I	2	0	695	1	Ⴇ	cut_f_stereo_44KHz.wav
4	177	1	2	0	C	2	1	399	1	Ⴟ	cut_r_stereo_44KHz.wav
4	178	2	1	0	C	2	1	317	1	Ⴂ	cut_n_stereo_44KHz.wav
4	179	3	4	2	I	2	0	539	1	Ⴡ	cut_s_stereo_44KHz.wav
4	180	4	3	2	I	1	0	499	0	Ⴇ	cut_f_stereo_44KHz.wav
4	181	2	2	1	C	2	0	421	0	Ⴂ	cut_r_stereo_44KHz.wav
4	182	4	4	2	I	2	0	1835	1	Ⴇ	cut_s_stereo_44KHz.wav
4	183	1	1	1	C	1	1	896	1	Ⴟ	cut_n_stereo_44KHz.wav
4	184	3	3	2	I	2	0	905	1	Ⴡ	cut_f_stereo_44KHz.wav
4	185	1	1	1	C	2	0	686	0	Ⴟ	cut_n_stereo_44KHz.wav
4	186	2	2	1	C	1	1	541	1	Ⴂ	cut_r_stereo_44KHz.wav
4	187	3	4	2	I	2	0	475	1	Ⴡ	cut_s_stereo_44KHz.wav
4	188	4	3	2	I	2	0	671	1	Ⴇ	cut_f_stereo_44KHz.wav
4	189	2	1	0	C	1	0	1208	0	Ⴂ	cut_n_stereo_44KHz.wav
4	190	4	4	2	I	2	0	484	1	Ⴇ	cut_s_stereo_44KHz.wav
4	191	3	3	2	I	1	0	993	1	Ⴡ	cut_f_stereo_44KHz.wav
4	192	1	2	0	C	2	1	1192	1	Ⴟ	cut_r_stereo_44KHz.wav
4	193	4	4	2	I	1	0	915	1	Ⴇ	cut_s_stereo_44KHz.wav
4	194	2	1	0	C	2	1	1189	1	Ⴂ	cut_n_stereo_44KHz.wav
4	195	1	1	1	C	2	0	1131	0	Ⴟ	cut_n_stereo_44KHz.wav
4	196	3	4	2	I	1	0	939	1	Ⴡ	cut_s_stereo_44KHz.wav
4	197	2	2	1	C	1	1	1472	1	Ⴂ	cut_r_stereo_44KHz.wav
4	198	1	2	0	C	2	1	1211	1	Ⴟ	cut_r_stereo_44KHz.wav
4	199	4	3	2	I	2	0	683	1	Ⴇ	cut_f_stereo_44KHz.wav
4	200	3	3	2	I	1	0	482	1	Ⴡ	cut_f_stereo_44KHz.wav
