block	trial	Vstim	Astim	match	C/I	resp	result	RT	fb	V-file	A-file
LR

0	1	1	1	1	C	0	0	0	0	Ⴉ	cut_oo_stereo_44KHz.wav
0	2	2	3	1	C	2	1	36	1	Ⴞ	cut_g_stereo_44KHz.wav
0	3	1	2	0	C	0	0	0	0	Ⴉ	cut_eeuw_stereo_44KHz.wav
0	4	2	4	0	C	2	0	1634	0	Ⴞ	cut_ee_stereo_44KHz.wav
0	5	1	1	1	C	1	0	1888	0	Ⴉ	cut_oo_stereo_44KHz.wav
0	6	2	3	1	C	2	1	1524	1	Ⴞ	cut_g_stereo_44KHz.wav
0	7	2	4	0	C	1	1	1849	1	Ⴞ	cut_ee_stereo_44KHz.wav
0	8	1	2	0	C	0	0	0	0	Ⴉ	cut_eeuw_stereo_44KHz.wav
0	9	2	4	0	C	2	0	1132	0	Ⴞ	cut_ee_stereo_44KHz.wav
0	10	2	3	1	C	2	1	1882	1	Ⴞ	cut_g_stereo_44KHz.wav
0	11	1	2	0	C	2	0	1160	0	Ⴉ	cut_eeuw_stereo_44KHz.wav
0	12	1	1	1	C	2	1	1429	1	Ⴉ	cut_oo_stereo_44KHz.wav
0	13	1	1	1	C	1	0	1206	0	Ⴉ	cut_oo_stereo_44KHz.wav
0	14	2	4	0	C	2	0	1778	0	Ⴞ	cut_ee_stereo_44KHz.wav
0	15	1	2	0	C	1	1	1475	1	Ⴉ	cut_eeuw_stereo_44KHz.wav
0	16	2	3	1	C	2	1	1315	1	Ⴞ	cut_g_stereo_44KHz.wav
0	17	1	2	0	C	1	1	1145	1	Ⴉ	cut_eeuw_stereo_44KHz.wav
0	18	2	3	1	C	1	0	1034	0	Ⴞ	cut_g_stereo_44KHz.wav
0	19	2	4	0	C	2	0	1608	0	Ⴞ	cut_ee_stereo_44KHz.wav
0	20	1	1	1	C	2	1	1350	1	Ⴉ	cut_oo_stereo_44KHz.wav
0	21	2	4	0	C	2	0	909	0	Ⴞ	cut_ee_stereo_44KHz.wav
0	22	2	3	1	C	1	0	1066	0	Ⴞ	cut_g_stereo_44KHz.wav
0	23	1	2	0	C	2	0	1159	0	Ⴉ	cut_eeuw_stereo_44KHz.wav
0	24	1	1	1	C	2	1	1220	1	Ⴉ	cut_oo_stereo_44KHz.wav
0	25	1	1	1	C	2	1	1174	1	Ⴉ	cut_oo_stereo_44KHz.wav
0	26	2	4	0	C	1	1	1433	1	Ⴞ	cut_ee_stereo_44KHz.wav
0	27	2	3	1	C	1	0	1050	0	Ⴞ	cut_g_stereo_44KHz.wav
0	28	1	2	0	C	1	1	1577	1	Ⴉ	cut_eeuw_stereo_44KHz.wav
0	29	1	1	1	C	2	1	623	1	Ⴉ	cut_oo_stereo_44KHz.wav
0	30	1	2	0	C	1	1	1095	1	Ⴉ	cut_eeuw_stereo_44KHz.wav
avg_resp = 1275
1	1	3	3	2	I	1	0	1702	1	Ⴉ	cut_g_stereo_44KHz.wav
1	2	4	4	2	I	2	0	1092	0	Ⴏ	cut_w_stereo_44KHz.wav
1	3	2	1	0	C	1	1	1150	1	Ⴕ	cut_h_stereo_44KHz.wav
1	4	1	2	0	C	1	1	927	1	Ⴔ	cut_l_stereo_44KHz.wav
1	5	3	4	2	I	2	0	1181	1	Ⴉ	cut_w_stereo_44KHz.wav
1	6	2	2	1	C	1	0	1244	0	Ⴕ	cut_l_stereo_44KHz.wav
1	7	4	3	2	I	1	0	1375	1	Ⴏ	cut_g_stereo_44KHz.wav
1	8	1	1	1	C	2	1	1393	1	Ⴔ	cut_h_stereo_44KHz.wav
1	9	2	2	1	C	2	1	1671	1	Ⴕ	cut_l_stereo_44KHz.wav
1	10	1	2	0	C	1	1	1358	1	Ⴔ	cut_l_stereo_44KHz.wav
1	11	3	4	2	I	2	0	1406	1	Ⴉ	cut_w_stereo_44KHz.wav
1	12	4	3	2	I	1	0	1265	1	Ⴏ	cut_g_stereo_44KHz.wav
1	13	3	3	2	I	1	0	1176	1	Ⴉ	cut_g_stereo_44KHz.wav
1	14	2	1	0	C	2	0	1387	0	Ⴕ	cut_h_stereo_44KHz.wav
1	15	1	1	1	C	1	0	751	0	Ⴔ	cut_h_stereo_44KHz.wav
1	16	4	4	2	I	2	0	1594	1	Ⴏ	cut_w_stereo_44KHz.wav
1	17	2	1	0	C	2	0	1014	0	Ⴕ	cut_h_stereo_44KHz.wav
1	18	1	2	0	C	1	1	1299	1	Ⴔ	cut_l_stereo_44KHz.wav
1	19	4	4	2	I	2	0	1431	1	Ⴏ	cut_w_stereo_44KHz.wav
1	20	3	3	2	I	0	0	0	0	Ⴉ	cut_g_stereo_44KHz.wav
1	21	4	3	2	I	2	0	973	1	Ⴏ	cut_g_stereo_44KHz.wav
1	22	3	4	2	I	1	0	1053	0	Ⴉ	cut_w_stereo_44KHz.wav
1	23	2	2	1	C	2	1	1043	1	Ⴕ	cut_l_stereo_44KHz.wav
1	24	1	1	1	C	2	1	1081	1	Ⴔ	cut_h_stereo_44KHz.wav
1	25	4	4	2	I	2	0	1501	1	Ⴏ	cut_w_stereo_44KHz.wav
1	26	2	1	0	C	0	0	0	0	Ⴕ	cut_h_stereo_44KHz.wav
1	27	3	3	2	I	0	0	0	0	Ⴉ	cut_g_stereo_44KHz.wav
1	28	1	2	0	C	1	1	1828	1	Ⴔ	cut_l_stereo_44KHz.wav
1	29	4	3	2	I	2	0	941	1	Ⴏ	cut_g_stereo_44KHz.wav
1	30	2	2	1	C	1	0	1188	0	Ⴕ	cut_l_stereo_44KHz.wav
1	31	3	4	2	I	2	0	957	0	Ⴉ	cut_w_stereo_44KHz.wav
1	32	1	1	1	C	1	0	1787	0	Ⴔ	cut_h_stereo_44KHz.wav
1	33	2	1	0	C	2	0	969	0	Ⴕ	cut_h_stereo_44KHz.wav
1	34	1	1	1	C	0	0	0	0	Ⴔ	cut_h_stereo_44KHz.wav
1	35	3	3	2	I	1	0	1220	1	Ⴉ	cut_g_stereo_44KHz.wav
1	36	4	4	2	I	2	0	840	1	Ⴏ	cut_w_stereo_44KHz.wav
1	37	1	2	0	C	1	1	1117	1	Ⴔ	cut_l_stereo_44KHz.wav
1	38	2	2	1	C	2	1	1362	1	Ⴕ	cut_l_stereo_44KHz.wav
1	39	4	3	2	I	1	0	1793	1	Ⴏ	cut_g_stereo_44KHz.wav
1	40	3	4	2	I	1	0	962	1	Ⴉ	cut_w_stereo_44KHz.wav
1	41	1	2	0	C	2	0	1122	0	Ⴔ	cut_l_stereo_44KHz.wav
1	42	3	3	2	I	1	0	1291	1	Ⴉ	cut_g_stereo_44KHz.wav
1	43	4	3	2	I	1	0	1059	1	Ⴏ	cut_g_stereo_44KHz.wav
1	44	2	2	1	C	2	1	1004	1	Ⴕ	cut_l_stereo_44KHz.wav
1	45	3	4	2	I	1	0	1420	0	Ⴉ	cut_w_stereo_44KHz.wav
1	46	4	4	2	I	2	0	743	1	Ⴏ	cut_w_stereo_44KHz.wav
1	47	1	1	1	C	1	0	82	0	Ⴔ	cut_h_stereo_44KHz.wav
1	48	2	1	0	C	0	0	0	0	Ⴕ	cut_h_stereo_44KHz.wav
1	49	3	4	2	I	2	0	1265	1	Ⴉ	cut_w_stereo_44KHz.wav
1	50	2	1	0	C	1	1	1626	1	Ⴕ	cut_h_stereo_44KHz.wav
1	51	4	4	2	I	2	0	837	1	Ⴏ	cut_w_stereo_44KHz.wav
1	52	1	1	1	C	1	0	1377	0	Ⴔ	cut_h_stereo_44KHz.wav
1	53	2	2	1	C	0	0	0	0	Ⴕ	cut_l_stereo_44KHz.wav
1	54	3	3	2	I	1	0	429	1	Ⴉ	cut_g_stereo_44KHz.wav
1	55	4	3	2	I	2	0	1569	0	Ⴏ	cut_g_stereo_44KHz.wav
1	56	1	2	0	C	2	0	983	0	Ⴔ	cut_l_stereo_44KHz.wav
1	57	3	4	2	I	1	0	1957	1	Ⴉ	cut_w_stereo_44KHz.wav
1	58	4	4	2	I	1	0	1129	1	Ⴏ	cut_w_stereo_44KHz.wav
1	59	2	2	1	C	2	1	1156	1	Ⴕ	cut_l_stereo_44KHz.wav
1	60	1	1	1	C	2	1	1573	1	Ⴔ	cut_h_stereo_44KHz.wav
1	61	4	3	2	I	2	0	1801	0	Ⴏ	cut_g_stereo_44KHz.wav
1	62	2	1	0	C	2	0	1875	0	Ⴕ	cut_h_stereo_44KHz.wav
1	63	3	3	2	I	1	0	1928	1	Ⴉ	cut_g_stereo_44KHz.wav
1	64	1	2	0	C	1	1	1393	1	Ⴔ	cut_l_stereo_44KHz.wav
1	65	4	4	2	I	1	0	1295	1	Ⴏ	cut_w_stereo_44KHz.wav
1	66	1	2	0	C	1	1	1196	1	Ⴔ	cut_l_stereo_44KHz.wav
1	67	2	2	1	C	2	1	1277	1	Ⴕ	cut_l_stereo_44KHz.wav
1	68	3	3	2	I	1	0	1500	1	Ⴉ	cut_g_stereo_44KHz.wav
1	69	4	3	2	I	1	0	1746	0	Ⴏ	cut_g_stereo_44KHz.wav
1	70	1	1	1	C	0	0	0	0	Ⴔ	cut_h_stereo_44KHz.wav
1	71	3	4	2	I	0	0	0	0	Ⴉ	cut_w_stereo_44KHz.wav
1	72	2	1	0	C	2	0	895	0	Ⴕ	cut_h_stereo_44KHz.wav
1	73	3	4	2	I	1	0	846	0	Ⴉ	cut_w_stereo_44KHz.wav
1	74	1	1	1	C	1	0	968	0	Ⴔ	cut_h_stereo_44KHz.wav
1	75	4	3	2	I	1	0	1181	0	Ⴏ	cut_g_stereo_44KHz.wav
1	76	2	2	1	C	1	0	1751	0	Ⴕ	cut_l_stereo_44KHz.wav
1	77	1	2	0	C	1	1	1348	1	Ⴔ	cut_l_stereo_44KHz.wav
1	78	3	3	2	I	1	0	1926	1	Ⴉ	cut_g_stereo_44KHz.wav
1	79	2	1	0	C	1	1	1388	1	Ⴕ	cut_h_stereo_44KHz.wav
1	80	4	4	2	I	1	0	1257	0	Ⴏ	cut_w_stereo_44KHz.wav
1	81	3	3	2	I	2	0	1358	1	Ⴉ	cut_g_stereo_44KHz.wav
1	82	4	3	2	I	1	0	1221	1	Ⴏ	cut_g_stereo_44KHz.wav
1	83	1	1	1	C	2	1	913	1	Ⴔ	cut_h_stereo_44KHz.wav
1	84	2	2	1	C	1	0	1180	0	Ⴕ	cut_l_stereo_44KHz.wav
1	85	3	4	2	I	2	0	1919	1	Ⴉ	cut_w_stereo_44KHz.wav
1	86	2	1	0	C	1	1	1134	1	Ⴕ	cut_h_stereo_44KHz.wav
1	87	1	2	0	C	0	0	0	0	Ⴔ	cut_l_stereo_44KHz.wav
1	88	4	4	2	I	1	0	1395	1	Ⴏ	cut_w_stereo_44KHz.wav
1	89	1	1	1	C	2	1	1216	1	Ⴔ	cut_h_stereo_44KHz.wav
1	90	4	4	2	I	2	0	1500	1	Ⴏ	cut_w_stereo_44KHz.wav
1	91	3	4	2	I	1	0	957	1	Ⴉ	cut_w_stereo_44KHz.wav
1	92	2	2	1	C	0	0	0	0	Ⴕ	cut_l_stereo_44KHz.wav
1	93	4	3	2	I	1	0	648	1	Ⴏ	cut_g_stereo_44KHz.wav
1	94	3	3	2	I	2	0	838	1	Ⴉ	cut_g_stereo_44KHz.wav
1	95	2	1	0	C	2	0	1329	0	Ⴕ	cut_h_stereo_44KHz.wav
1	96	1	2	0	C	0	0	0	0	Ⴔ	cut_l_stereo_44KHz.wav
1	97	3	4	2	I	1	0	985	0	Ⴉ	cut_w_stereo_44KHz.wav
1	98	4	4	2	I	2	0	898	1	Ⴏ	cut_w_stereo_44KHz.wav
1	99	2	2	1	C	0	0	0	0	Ⴕ	cut_l_stereo_44KHz.wav
1	100	1	1	1	C	2	1	1381	1	Ⴔ	cut_h_stereo_44KHz.wav
1	101	3	3	2	I	0	0	0	0	Ⴉ	cut_g_stereo_44KHz.wav
1	102	1	2	0	C	2	0	1137	0	Ⴔ	cut_l_stereo_44KHz.wav
1	103	4	3	2	I	0	0	0	0	Ⴏ	cut_g_stereo_44KHz.wav
1	104	2	1	0	C	1	1	915	1	Ⴕ	cut_h_stereo_44KHz.wav
1	105	3	4	2	I	0	0	0	0	Ⴉ	cut_w_stereo_44KHz.wav
1	106	2	1	0	C	2	0	1179	0	Ⴕ	cut_h_stereo_44KHz.wav
1	107	4	3	2	I	0	0	0	0	Ⴏ	cut_g_stereo_44KHz.wav
1	108	1	1	1	C	2	1	1469	1	Ⴔ	cut_h_stereo_44KHz.wav
1	109	3	3	2	I	0	0	0	0	Ⴉ	cut_g_stereo_44KHz.wav
1	110	2	2	1	C	0	0	0	0	Ⴕ	cut_l_stereo_44KHz.wav
1	111	1	2	0	C	0	0	0	0	Ⴔ	cut_l_stereo_44KHz.wav
1	112	4	4	2	I	1	0	1640	1	Ⴏ	cut_w_stereo_44KHz.wav
1	113	3	4	2	I	2	0	483	1	Ⴉ	cut_w_stereo_44KHz.wav
1	114	2	1	0	C	1	1	1218	1	Ⴕ	cut_h_stereo_44KHz.wav
1	115	4	4	2	I	2	0	646	0	Ⴏ	cut_w_stereo_44KHz.wav
1	116	1	1	1	C	1	0	857	0	Ⴔ	cut_h_stereo_44KHz.wav
1	117	2	2	1	C	2	1	1123	1	Ⴕ	cut_l_stereo_44KHz.wav
1	118	4	3	2	I	2	0	1009	1	Ⴏ	cut_g_stereo_44KHz.wav
1	119	1	2	0	C	1	1	853	1	Ⴔ	cut_l_stereo_44KHz.wav
1	120	3	3	2	I	1	0	1489	1	Ⴉ	cut_g_stereo_44KHz.wav
1	121	1	2	0	C	1	1	1234	1	Ⴔ	cut_l_stereo_44KHz.wav
1	122	2	2	1	C	0	0	0	0	Ⴕ	cut_l_stereo_44KHz.wav
1	123	4	4	2	I	1	0	976	1	Ⴏ	cut_w_stereo_44KHz.wav
1	124	3	3	2	I	2	0	1566	1	Ⴉ	cut_g_stereo_44KHz.wav
1	125	4	3	2	I	1	0	1520	1	Ⴏ	cut_g_stereo_44KHz.wav
1	126	3	4	2	I	2	0	1104	0	Ⴉ	cut_w_stereo_44KHz.wav
1	127	2	1	0	C	1	1	888	1	Ⴕ	cut_h_stereo_44KHz.wav
1	128	1	1	1	C	2	1	1469	1	Ⴔ	cut_h_stereo_44KHz.wav
1	129	3	4	2	I	1	0	1149	0	Ⴉ	cut_w_stereo_44KHz.wav
1	130	1	2	0	C	1	1	1107	1	Ⴔ	cut_l_stereo_44KHz.wav
1	131	4	4	2	I	2	0	1016	1	Ⴏ	cut_w_stereo_44KHz.wav
1	132	2	1	0	C	0	0	0	0	Ⴕ	cut_h_stereo_44KHz.wav
1	133	3	3	2	I	2	0	1628	1	Ⴉ	cut_g_stereo_44KHz.wav
1	134	4	3	2	I	2	0	927	1	Ⴏ	cut_g_stereo_44KHz.wav
1	135	2	2	1	C	2	1	1043	1	Ⴕ	cut_l_stereo_44KHz.wav
1	136	1	1	1	C	2	1	1003	1	Ⴔ	cut_h_stereo_44KHz.wav
1	137	4	3	2	I	2	0	1209	1	Ⴏ	cut_g_stereo_44KHz.wav
1	138	1	2	0	C	2	0	850	0	Ⴔ	cut_l_stereo_44KHz.wav
1	139	3	4	2	I	2	0	1781	1	Ⴉ	cut_w_stereo_44KHz.wav
1	140	2	2	1	C	1	0	1830	0	Ⴕ	cut_l_stereo_44KHz.wav
1	141	3	3	2	I	2	0	639	1	Ⴉ	cut_g_stereo_44KHz.wav
1	142	2	1	0	C	0	0	0	0	Ⴕ	cut_h_stereo_44KHz.wav
1	143	4	4	2	I	2	0	330	1	Ⴏ	cut_w_stereo_44KHz.wav
1	144	1	1	1	C	1	0	1408	0	Ⴔ	cut_h_stereo_44KHz.wav
1	145	3	3	2	I	0	0	0	0	Ⴉ	cut_g_stereo_44KHz.wav
1	146	4	4	2	I	0	0	0	0	Ⴏ	cut_w_stereo_44KHz.wav
1	147	2	2	1	C	0	0	0	0	Ⴕ	cut_l_stereo_44KHz.wav
1	148	1	2	0	C	2	0	1427	0	Ⴔ	cut_l_stereo_44KHz.wav
1	149	3	4	2	I	1	0	1397	1	Ⴉ	cut_w_stereo_44KHz.wav
1	150	4	3	2	I	1	0	932	1	Ⴏ	cut_g_stereo_44KHz.wav
1	151	1	1	1	C	2	1	864	1	Ⴔ	cut_h_stereo_44KHz.wav
1	152	2	1	0	C	2	0	772	0	Ⴕ	cut_h_stereo_44KHz.wav
1	153	1	2	0	C	1	1	1475	1	Ⴔ	cut_l_stereo_44KHz.wav
1	154	3	3	2	I	2	0	826	1	Ⴉ	cut_g_stereo_44KHz.wav
1	155	2	1	0	C	1	1	1407	1	Ⴕ	cut_h_stereo_44KHz.wav
1	156	4	3	2	I	2	0	929	1	Ⴏ	cut_g_stereo_44KHz.wav
1	157	3	4	2	I	2	0	1922	1	Ⴉ	cut_w_stereo_44KHz.wav
1	158	1	1	1	C	1	0	1444	0	Ⴔ	cut_h_stereo_44KHz.wav
1	159	4	4	2	I	2	0	1641	1	Ⴏ	cut_w_stereo_44KHz.wav
1	160	2	2	1	C	0	0	0	0	Ⴕ	cut_l_stereo_44KHz.wav
1	161	1	1	1	C	2	1	1709	1	Ⴔ	cut_h_stereo_44KHz.wav
1	162	2	2	1	C	0	0	0	0	Ⴕ	cut_l_stereo_44KHz.wav
1	163	3	3	2	I	1	0	1792	1	Ⴉ	cut_g_stereo_44KHz.wav
1	164	4	3	2	I	1	0	1015	1	Ⴏ	cut_g_stereo_44KHz.wav
1	165	3	4	2	I	2	0	813	1	Ⴉ	cut_w_stereo_44KHz.wav
1	166	2	1	0	C	2	0	969	0	Ⴕ	cut_h_stereo_44KHz.wav
1	167	1	2	0	C	1	1	829	1	Ⴔ	cut_l_stereo_44KHz.wav
1	168	4	4	2	I	2	0	859	0	Ⴏ	cut_w_stereo_44KHz.wav
1	169	2	1	0	C	1	1	1343	1	Ⴕ	cut_h_stereo_44KHz.wav
1	170	4	4	2	I	2	0	943	1	Ⴏ	cut_w_stereo_44KHz.wav
1	171	1	1	1	C	2	1	1176	1	Ⴔ	cut_h_stereo_44KHz.wav
1	172	3	4	2	I	0	0	0	0	Ⴉ	cut_w_stereo_44KHz.wav
1	173	2	2	1	C	2	1	703	1	Ⴕ	cut_l_stereo_44KHz.wav
1	174	3	3	2	I	1	0	1114	1	Ⴉ	cut_g_stereo_44KHz.wav
1	175	1	2	0	C	1	1	1035	1	Ⴔ	cut_l_stereo_44KHz.wav
1	176	4	3	2	I	2	0	917	0	Ⴏ	cut_g_stereo_44KHz.wav
1	177	3	4	2	I	2	0	1106	0	Ⴉ	cut_w_stereo_44KHz.wav
1	178	2	2	1	C	2	1	1471	1	Ⴕ	cut_l_stereo_44KHz.wav
1	179	1	2	0	C	1	1	1164	1	Ⴔ	cut_l_stereo_44KHz.wav
1	180	4	4	2	I	2	0	932	1	Ⴏ	cut_w_stereo_44KHz.wav
1	181	3	3	2	I	2	0	1719	1	Ⴉ	cut_g_stereo_44KHz.wav
1	182	2	1	0	C	2	0	1599	0	Ⴕ	cut_h_stereo_44KHz.wav
1	183	4	3	2	I	2	0	1692	1	Ⴏ	cut_g_stereo_44KHz.wav
1	184	1	1	1	C	2	1	1444	1	Ⴔ	cut_h_stereo_44KHz.wav
1	185	3	3	2	I	0	0	0	0	Ⴉ	cut_g_stereo_44KHz.wav
1	186	1	2	0	C	1	1	1134	1	Ⴔ	cut_l_stereo_44KHz.wav
1	187	4	3	2	I	2	0	1042	1	Ⴏ	cut_g_stereo_44KHz.wav
1	188	2	2	1	C	2	1	1776	1	Ⴕ	cut_l_stereo_44KHz.wav
1	189	4	4	2	I	2	0	1358	0	Ⴏ	cut_w_stereo_44KHz.wav
1	190	3	4	2	I	0	0	0	0	Ⴉ	cut_w_stereo_44KHz.wav
1	191	2	1	0	C	0	0	0	0	Ⴕ	cut_h_stereo_44KHz.wav
1	192	1	1	1	C	2	1	1771	1	Ⴔ	cut_h_stereo_44KHz.wav
1	193	2	1	0	C	2	0	1831	0	Ⴕ	cut_h_stereo_44KHz.wav
1	194	3	3	2	I	2	0	1803	1	Ⴉ	cut_g_stereo_44KHz.wav
1	195	4	4	2	I	2	0	818	1	Ⴏ	cut_w_stereo_44KHz.wav
1	196	1	1	1	C	2	1	1487	1	Ⴔ	cut_h_stereo_44KHz.wav
1	197	4	3	2	I	2	0	758	1	Ⴏ	cut_g_stereo_44KHz.wav
1	198	2	2	1	C	2	1	1567	1	Ⴕ	cut_l_stereo_44KHz.wav
1	199	1	2	0	C	1	1	1673	1	Ⴔ	cut_l_stereo_44KHz.wav
1	200	3	4	2	I	0	0	0	0	Ⴉ	cut_w_stereo_44KHz.wav
2	1	2	2	1	C	0	0	0	0	Ⴃ	cut_k_stereo_44KHz.wav
2	2	1	1	1	C	2	1	816	1	Ⴜ	cut_u_stereo_44KHz.wav
2	3	3	3	2	I	1	0	1026	1	Ⴊ	cut_o_stereo_44KHz.wav
2	4	4	3	2	I	1	0	553	0	Ⴡ	cut_o_stereo_44KHz.wav
2	5	2	1	0	C	1	1	708	1	Ⴃ	cut_u_stereo_44KHz.wav
2	6	1	2	0	C	1	1	1316	1	Ⴜ	cut_k_stereo_44KHz.wav
2	7	4	4	2	I	0	0	0	0	Ⴡ	cut_a_stereo_44KHz.wav
2	8	3	4	2	I	1	0	908	1	Ⴊ	cut_a_stereo_44KHz.wav
2	9	4	4	2	I	1	0	961	0	Ⴡ	cut_a_stereo_44KHz.wav
2	10	3	4	2	I	2	0	728	1	Ⴊ	cut_a_stereo_44KHz.wav
2	11	1	2	0	C	1	1	1045	1	Ⴜ	cut_k_stereo_44KHz.wav
2	12	2	1	0	C	1	1	590	1	Ⴃ	cut_u_stereo_44KHz.wav
2	13	3	3	2	I	2	0	821	1	Ⴊ	cut_o_stereo_44KHz.wav
2	14	4	3	2	I	2	0	1388	1	Ⴡ	cut_o_stereo_44KHz.wav
2	15	1	1	1	C	1	0	320	0	Ⴜ	cut_u_stereo_44KHz.wav
2	16	2	2	1	C	1	0	780	0	Ⴃ	cut_k_stereo_44KHz.wav
2	17	1	2	0	C	2	0	608	0	Ⴜ	cut_k_stereo_44KHz.wav
2	18	3	3	2	I	0	0	0	0	Ⴊ	cut_o_stereo_44KHz.wav
2	19	2	1	0	C	2	0	433	0	Ⴃ	cut_u_stereo_44KHz.wav
2	20	4	4	2	I	1	0	1251	0	Ⴡ	cut_a_stereo_44KHz.wav
2	21	2	2	1	C	2	1	1126	1	Ⴃ	cut_k_stereo_44KHz.wav
2	22	1	1	1	C	2	1	884	1	Ⴜ	cut_u_stereo_44KHz.wav
2	23	4	3	2	I	1	0	585	1	Ⴡ	cut_o_stereo_44KHz.wav
2	24	3	4	2	I	1	0	1101	1	Ⴊ	cut_a_stereo_44KHz.wav
2	25	2	1	0	C	2	0	312	0	Ⴃ	cut_u_stereo_44KHz.wav
2	26	3	4	2	I	2	0	1115	1	Ⴊ	cut_a_stereo_44KHz.wav
2	27	1	2	0	C	2	0	771	0	Ⴜ	cut_k_stereo_44KHz.wav
2	28	4	3	2	I	2	0	1276	1	Ⴡ	cut_o_stereo_44KHz.wav
2	29	2	2	1	C	1	0	1202	0	Ⴃ	cut_k_stereo_44KHz.wav
2	30	1	1	1	C	2	1	658	1	Ⴜ	cut_u_stereo_44KHz.wav
2	31	3	3	2	I	0	0	0	0	Ⴊ	cut_o_stereo_44KHz.wav
2	32	4	4	2	I	1	0	794	1	Ⴡ	cut_a_stereo_44KHz.wav
2	33	3	3	2	I	2	0	792	1	Ⴊ	cut_o_stereo_44KHz.wav
2	34	4	4	2	I	1	0	1201	1	Ⴡ	cut_a_stereo_44KHz.wav
2	35	1	2	0	C	2	0	883	0	Ⴜ	cut_k_stereo_44KHz.wav
2	36	2	1	0	C	1	1	1758	1	Ⴃ	cut_u_stereo_44KHz.wav
2	37	4	3	2	I	2	0	1364	0	Ⴡ	cut_o_stereo_44KHz.wav
2	38	1	1	1	C	1	0	523	0	Ⴜ	cut_u_stereo_44KHz.wav
2	39	3	4	2	I	1	0	959	1	Ⴊ	cut_a_stereo_44KHz.wav
2	40	2	2	1	C	2	1	1952	1	Ⴃ	cut_k_stereo_44KHz.wav
2	41	1	2	0	C	1	1	678	1	Ⴜ	cut_k_stereo_44KHz.wav
2	42	3	4	2	I	2	0	585	1	Ⴊ	cut_a_stereo_44KHz.wav
2	43	4	4	2	I	1	0	318	1	Ⴡ	cut_a_stereo_44KHz.wav
2	44	2	2	1	C	2	1	598	1	Ⴃ	cut_k_stereo_44KHz.wav
2	45	4	3	2	I	2	0	1365	0	Ⴡ	cut_o_stereo_44KHz.wav
2	46	2	1	0	C	1	1	1758	1	Ⴃ	cut_u_stereo_44KHz.wav
2	47	1	1	1	C	2	1	1280	1	Ⴜ	cut_u_stereo_44KHz.wav
2	48	3	3	2	I	1	0	868	1	Ⴊ	cut_o_stereo_44KHz.wav
2	49	4	4	2	I	1	0	782	1	Ⴡ	cut_a_stereo_44KHz.wav
2	50	3	3	2	I	0	0	0	0	Ⴊ	cut_o_stereo_44KHz.wav
2	51	1	1	1	C	1	0	680	0	Ⴜ	cut_u_stereo_44KHz.wav
2	52	2	1	0	C	0	0	0	0	Ⴃ	cut_u_stereo_44KHz.wav
2	53	1	2	0	C	0	0	0	0	Ⴜ	cut_k_stereo_44KHz.wav
2	54	2	2	1	C	2	1	768	1	Ⴃ	cut_k_stereo_44KHz.wav
2	55	3	4	2	I	1	0	1030	1	Ⴊ	cut_a_stereo_44KHz.wav
2	56	4	3	2	I	2	0	1001	1	Ⴡ	cut_o_stereo_44KHz.wav
2	57	3	4	2	I	2	0	918	1	Ⴊ	cut_a_stereo_44KHz.wav
2	58	2	1	0	C	1	1	656	1	Ⴃ	cut_u_stereo_44KHz.wav
2	59	4	3	2	I	2	0	1214	1	Ⴡ	cut_o_stereo_44KHz.wav
2	60	1	2	0	C	2	0	882	0	Ⴜ	cut_k_stereo_44KHz.wav
2	61	3	3	2	I	2	0	1799	0	Ⴊ	cut_o_stereo_44KHz.wav
2	62	1	1	1	C	2	1	813	1	Ⴜ	cut_u_stereo_44KHz.wav
2	63	2	2	1	C	1	0	776	0	Ⴃ	cut_k_stereo_44KHz.wav
2	64	4	4	2	I	2	0	709	0	Ⴡ	cut_a_stereo_44KHz.wav
2	65	2	1	0	C	1	1	639	1	Ⴃ	cut_u_stereo_44KHz.wav
2	66	4	4	2	I	1	0	1037	1	Ⴡ	cut_a_stereo_44KHz.wav
2	67	1	2	0	C	2	0	864	0	Ⴜ	cut_k_stereo_44KHz.wav
2	68	3	3	2	I	2	0	674	1	Ⴊ	cut_o_stereo_44KHz.wav
2	69	4	3	2	I	2	0	1521	1	Ⴡ	cut_o_stereo_44KHz.wav
2	70	2	2	1	C	2	1	774	1	Ⴃ	cut_k_stereo_44KHz.wav
2	71	1	1	1	C	1	0	618	0	Ⴜ	cut_u_stereo_44KHz.wav
2	72	3	4	2	I	2	0	870	1	Ⴊ	cut_a_stereo_44KHz.wav
2	73	4	3	2	I	1	0	908	1	Ⴡ	cut_o_stereo_44KHz.wav
2	74	2	1	0	C	2	0	931	0	Ⴃ	cut_u_stereo_44KHz.wav
2	75	3	3	2	I	2	0	792	1	Ⴊ	cut_o_stereo_44KHz.wav
2	76	1	2	0	C	2	0	478	0	Ⴜ	cut_k_stereo_44KHz.wav
2	77	2	2	1	C	1	0	822	0	Ⴃ	cut_k_stereo_44KHz.wav
2	78	3	4	2	I	1	0	605	1	Ⴊ	cut_a_stereo_44KHz.wav
2	79	1	1	1	C	2	1	742	1	Ⴜ	cut_u_stereo_44KHz.wav
2	80	4	4	2	I	1	0	651	1	Ⴡ	cut_a_stereo_44KHz.wav
2	81	1	1	1	C	2	1	716	1	Ⴜ	cut_u_stereo_44KHz.wav
2	82	2	1	0	C	2	0	695	0	Ⴃ	cut_u_stereo_44KHz.wav
2	83	3	3	2	I	2	0	819	0	Ⴊ	cut_o_stereo_44KHz.wav
2	84	4	4	2	I	1	0	680	1	Ⴡ	cut_a_stereo_44KHz.wav
2	85	2	2	1	C	2	1	693	1	Ⴃ	cut_k_stereo_44KHz.wav
2	86	4	3	2	I	1	0	1038	0	Ⴡ	cut_o_stereo_44KHz.wav
2	87	1	2	0	C	2	0	672	0	Ⴜ	cut_k_stereo_44KHz.wav
2	88	3	4	2	I	2	0	846	0	Ⴊ	cut_a_stereo_44KHz.wav
2	89	1	1	1	C	1	0	1104	0	Ⴜ	cut_u_stereo_44KHz.wav
2	90	4	3	2	I	2	0	851	1	Ⴡ	cut_o_stereo_44KHz.wav
2	91	3	4	2	I	2	0	1064	1	Ⴊ	cut_a_stereo_44KHz.wav
2	92	2	1	0	C	1	1	514	1	Ⴃ	cut_u_stereo_44KHz.wav
2	93	3	3	2	I	2	0	653	1	Ⴊ	cut_o_stereo_44KHz.wav
2	94	2	2	1	C	2	1	648	1	Ⴃ	cut_k_stereo_44KHz.wav
2	95	1	2	0	C	1	1	712	1	Ⴜ	cut_k_stereo_44KHz.wav
2	96	4	4	2	I	1	0	910	1	Ⴡ	cut_a_stereo_44KHz.wav
2	97	3	4	2	I	1	0	620	1	Ⴊ	cut_a_stereo_44KHz.wav
2	98	4	4	2	I	2	0	697	1	Ⴡ	cut_a_stereo_44KHz.wav
2	99	1	1	1	C	2	1	835	1	Ⴜ	cut_u_stereo_44KHz.wav
2	100	2	2	1	C	2	1	721	1	Ⴃ	cut_k_stereo_44KHz.wav
2	101	1	2	0	C	1	1	894	1	Ⴜ	cut_k_stereo_44KHz.wav
2	102	2	1	0	C	2	0	992	0	Ⴃ	cut_u_stereo_44KHz.wav
2	103	3	3	2	I	1	0	869	1	Ⴊ	cut_o_stereo_44KHz.wav
2	104	4	3	2	I	2	0	662	1	Ⴡ	cut_o_stereo_44KHz.wav
2	105	3	4	2	I	2	0	480	1	Ⴊ	cut_a_stereo_44KHz.wav
2	106	2	2	1	C	1	0	1654	0	Ⴃ	cut_k_stereo_44KHz.wav
2	107	4	3	2	I	2	0	699	1	Ⴡ	cut_o_stereo_44KHz.wav
2	108	1	1	1	C	2	1	1044	1	Ⴜ	cut_u_stereo_44KHz.wav
2	109	3	3	2	I	2	0	828	0	Ⴊ	cut_o_stereo_44KHz.wav
2	110	2	1	0	C	2	0	882	0	Ⴃ	cut_u_stereo_44KHz.wav
2	111	4	4	2	I	1	0	485	1	Ⴡ	cut_a_stereo_44KHz.wav
2	112	1	2	0	C	2	0	624	0	Ⴜ	cut_k_stereo_44KHz.wav
2	113	4	4	2	I	2	0	737	1	Ⴡ	cut_a_stereo_44KHz.wav
2	114	3	4	2	I	1	0	1043	1	Ⴊ	cut_a_stereo_44KHz.wav
2	115	1	1	1	C	2	1	750	1	Ⴜ	cut_u_stereo_44KHz.wav
2	116	2	2	1	C	2	1	431	1	Ⴃ	cut_k_stereo_44KHz.wav
2	117	4	3	2	I	1	0	464	1	Ⴡ	cut_o_stereo_44KHz.wav
2	118	3	3	2	I	2	0	1326	1	Ⴊ	cut_o_stereo_44KHz.wav
2	119	1	2	0	C	1	1	681	1	Ⴜ	cut_k_stereo_44KHz.wav
2	120	2	1	0	C	1	1	414	1	Ⴃ	cut_u_stereo_44KHz.wav
2	121	4	3	2	I	1	0	1057	0	Ⴡ	cut_o_stereo_44KHz.wav
2	122	3	3	2	I	2	0	1626	1	Ⴊ	cut_o_stereo_44KHz.wav
2	123	2	1	0	C	1	1	1681	1	Ⴃ	cut_u_stereo_44KHz.wav
2	124	1	1	1	C	0	0	0	0	Ⴜ	cut_u_stereo_44KHz.wav
2	125	3	4	2	I	2	0	840	0	Ⴊ	cut_a_stereo_44KHz.wav
2	126	4	4	2	I	1	0	1468	0	Ⴡ	cut_a_stereo_44KHz.wav
2	127	2	2	1	C	0	0	0	0	Ⴃ	cut_k_stereo_44KHz.wav
2	128	1	2	0	C	2	0	661	0	Ⴜ	cut_k_stereo_44KHz.wav
2	129	3	4	2	I	2	0	624	0	Ⴊ	cut_a_stereo_44KHz.wav
2	130	2	2	1	C	1	0	58	0	Ⴃ	cut_k_stereo_44KHz.wav
2	131	4	3	2	I	2	0	788	1	Ⴡ	cut_o_stereo_44KHz.wav
2	132	1	2	0	C	1	1	1080	1	Ⴜ	cut_k_stereo_44KHz.wav
2	133	2	1	0	C	0	0	0	0	Ⴃ	cut_u_stereo_44KHz.wav
2	134	1	1	1	C	0	0	0	0	Ⴜ	cut_u_stereo_44KHz.wav
2	135	3	3	2	I	0	0	0	0	Ⴊ	cut_o_stereo_44KHz.wav
2	136	4	4	2	I	1	0	1472	1	Ⴡ	cut_a_stereo_44KHz.wav
2	137	1	2	0	C	2	0	1871	0	Ⴜ	cut_k_stereo_44KHz.wav
2	138	4	4	2	I	1	0	776	1	Ⴡ	cut_a_stereo_44KHz.wav
2	139	2	2	1	C	2	1	1052	1	Ⴃ	cut_k_stereo_44KHz.wav
2	140	3	4	2	I	0	0	0	0	Ⴊ	cut_a_stereo_44KHz.wav
2	141	1	1	1	C	2	1	513	1	Ⴜ	cut_u_stereo_44KHz.wav
2	142	4	3	2	I	1	0	830	1	Ⴡ	cut_o_stereo_44KHz.wav
2	143	3	3	2	I	1	0	720	1	Ⴊ	cut_o_stereo_44KHz.wav
2	144	2	1	0	C	2	0	752	0	Ⴃ	cut_u_stereo_44KHz.wav
2	145	1	1	1	C	1	0	1291	0	Ⴜ	cut_u_stereo_44KHz.wav
2	146	2	2	1	C	2	1	768	1	Ⴃ	cut_k_stereo_44KHz.wav
2	147	4	4	2	I	2	0	1129	1	Ⴡ	cut_a_stereo_44KHz.wav
2	148	3	4	2	I	2	0	888	0	Ⴊ	cut_a_stereo_44KHz.wav
2	149	4	3	2	I	1	0	974	1	Ⴡ	cut_o_stereo_44KHz.wav
2	150	1	2	0	C	1	1	701	1	Ⴜ	cut_k_stereo_44KHz.wav
2	151	2	1	0	C	2	0	820	0	Ⴃ	cut_u_stereo_44KHz.wav
2	152	3	3	2	I	1	0	767	0	Ⴊ	cut_o_stereo_44KHz.wav
2	153	2	2	1	C	2	1	673	1	Ⴃ	cut_k_stereo_44KHz.wav
2	154	4	4	2	I	2	0	492	1	Ⴡ	cut_a_stereo_44KHz.wav
2	155	3	3	2	I	1	0	864	1	Ⴊ	cut_o_stereo_44KHz.wav
2	156	1	2	0	C	2	0	418	0	Ⴜ	cut_k_stereo_44KHz.wav
2	157	2	1	0	C	2	0	1576	0	Ⴃ	cut_u_stereo_44KHz.wav
2	158	4	3	2	I	1	0	557	1	Ⴡ	cut_o_stereo_44KHz.wav
2	159	1	1	1	C	2	1	835	1	Ⴜ	cut_u_stereo_44KHz.wav
2	160	3	4	2	I	1	0	1066	1	Ⴊ	cut_a_stereo_44KHz.wav
2	161	1	2	0	C	2	0	1785	0	Ⴜ	cut_k_stereo_44KHz.wav
2	162	3	3	2	I	1	0	1865	1	Ⴊ	cut_o_stereo_44KHz.wav
2	163	4	3	2	I	1	0	659	1	Ⴡ	cut_o_stereo_44KHz.wav
2	164	2	2	1	C	2	1	666	1	Ⴃ	cut_k_stereo_44KHz.wav
2	165	4	4	2	I	0	0	0	0	Ⴡ	cut_a_stereo_44KHz.wav
2	166	2	1	0	C	1	1	1116	1	Ⴃ	cut_u_stereo_44KHz.wav
2	167	1	1	1	C	0	0	0	0	Ⴜ	cut_u_stereo_44KHz.wav
2	168	3	4	2	I	0	0	0	0	Ⴊ	cut_a_stereo_44KHz.wav
2	169	4	3	2	I	2	0	302	1	Ⴡ	cut_o_stereo_44KHz.wav
2	170	2	1	0	C	0	0	0	0	Ⴃ	cut_u_stereo_44KHz.wav
2	171	3	3	2	I	0	0	0	0	Ⴊ	cut_o_stereo_44KHz.wav
2	172	1	2	0	C	2	0	1119	0	Ⴜ	cut_k_stereo_44KHz.wav
2	173	2	2	1	C	1	0	788	0	Ⴃ	cut_k_stereo_44KHz.wav
2	174	3	4	2	I	2	0	812	1	Ⴊ	cut_a_stereo_44KHz.wav
2	175	4	4	2	I	1	0	457	1	Ⴡ	cut_a_stereo_44KHz.wav
2	176	1	1	1	C	2	1	706	1	Ⴜ	cut_u_stereo_44KHz.wav
2	177	2	1	0	C	2	0	742	0	Ⴃ	cut_u_stereo_44KHz.wav
2	178	1	2	0	C	2	0	767	0	Ⴜ	cut_k_stereo_44KHz.wav
2	179	4	3	2	I	1	0	840	1	Ⴡ	cut_o_stereo_44KHz.wav
2	180	3	3	2	I	0	0	0	0	Ⴊ	cut_o_stereo_44KHz.wav
2	181	4	4	2	I	2	0	574	1	Ⴡ	cut_a_stereo_44KHz.wav
2	182	3	4	2	I	1	0	716	1	Ⴊ	cut_a_stereo_44KHz.wav
2	183	1	1	1	C	2	1	838	1	Ⴜ	cut_u_stereo_44KHz.wav
2	184	2	2	1	C	1	0	1426	0	Ⴃ	cut_k_stereo_44KHz.wav
2	185	1	2	0	C	2	0	969	0	Ⴜ	cut_k_stereo_44KHz.wav
2	186	4	4	2	I	1	0	903	1	Ⴡ	cut_a_stereo_44KHz.wav
2	187	2	2	1	C	2	1	529	1	Ⴃ	cut_k_stereo_44KHz.wav
2	188	3	3	2	I	2	0	745	1	Ⴊ	cut_o_stereo_44KHz.wav
2	189	4	3	2	I	2	0	1327	1	Ⴡ	cut_o_stereo_44KHz.wav
2	190	3	4	2	I	2	0	1462	0	Ⴊ	cut_a_stereo_44KHz.wav
2	191	2	1	0	C	0	0	0	0	Ⴃ	cut_u_stereo_44KHz.wav
2	192	1	1	1	C	2	1	1042	1	Ⴜ	cut_u_stereo_44KHz.wav
2	193	2	2	1	C	2	1	704	1	Ⴃ	cut_k_stereo_44KHz.wav
2	194	4	3	2	I	1	0	1079	0	Ⴡ	cut_o_stereo_44KHz.wav
2	195	3	3	2	I	2	0	782	0	Ⴊ	cut_o_stereo_44KHz.wav
2	196	1	1	1	C	1	0	1598	0	Ⴜ	cut_u_stereo_44KHz.wav
2	197	3	4	2	I	2	0	1755	1	Ⴊ	cut_a_stereo_44KHz.wav
2	198	2	1	0	C	1	1	396	1	Ⴃ	cut_u_stereo_44KHz.wav
2	199	1	2	0	C	2	0	1249	0	Ⴜ	cut_k_stereo_44KHz.wav
2	200	4	4	2	I	1	0	1702	1	Ⴡ	cut_a_stereo_44KHz.wav
3	1	4	4	2	I	2	0	1361	0	Ⴖ	cut_f_stereo_44KHz.wav
3	2	3	4	2	I	1	0	519	1	Ⴒ	cut_f_stereo_44KHz.wav
3	3	1	1	1	C	1	0	477	0	Ⴌ	cut_oei_stereo_44KHz.wav
3	4	2	1	0	C	1	1	755	1	Ⴐ	cut_oei_stereo_44KHz.wav
3	5	3	3	2	I	2	0	1067	1	Ⴒ	cut_ei_stereo_44KHz.wav
3	6	1	2	0	C	1	1	732	1	Ⴌ	cut_n_stereo_44KHz.wav
3	7	4	3	2	I	1	0	436	1	Ⴖ	cut_ei_stereo_44KHz.wav
3	8	2	2	1	C	1	0	1756	0	Ⴐ	cut_n_stereo_44KHz.wav
3	9	1	1	1	C	1	0	1319	0	Ⴌ	cut_oei_stereo_44KHz.wav
3	10	2	2	1	C	2	1	787	1	Ⴐ	cut_n_stereo_44KHz.wav
3	11	4	4	2	I	2	0	384	1	Ⴖ	cut_f_stereo_44KHz.wav
3	12	3	4	2	I	2	0	702	1	Ⴒ	cut_f_stereo_44KHz.wav
3	13	1	2	0	C	2	0	876	0	Ⴌ	cut_n_stereo_44KHz.wav
3	14	2	1	0	C	2	0	805	0	Ⴐ	cut_oei_stereo_44KHz.wav
3	15	4	3	2	I	2	0	454	1	Ⴖ	cut_ei_stereo_44KHz.wav
3	16	3	3	2	I	1	0	355	1	Ⴒ	cut_ei_stereo_44KHz.wav
3	17	2	1	0	C	2	0	1394	0	Ⴐ	cut_oei_stereo_44KHz.wav
3	18	3	3	2	I	1	0	908	1	Ⴒ	cut_ei_stereo_44KHz.wav
3	19	1	1	1	C	2	1	987	1	Ⴌ	cut_oei_stereo_44KHz.wav
3	20	4	4	2	I	2	0	1524	1	Ⴖ	cut_f_stereo_44KHz.wav
3	21	1	2	0	C	1	1	1420	1	Ⴌ	cut_n_stereo_44KHz.wav
3	22	3	4	2	I	1	0	1259	1	Ⴒ	cut_f_stereo_44KHz.wav
3	23	2	2	1	C	2	1	876	1	Ⴐ	cut_n_stereo_44KHz.wav
3	24	4	3	2	I	2	0	749	1	Ⴖ	cut_ei_stereo_44KHz.wav
3	25	3	4	2	I	2	0	667	0	Ⴒ	cut_f_stereo_44KHz.wav
3	26	2	1	0	C	2	0	405	0	Ⴐ	cut_oei_stereo_44KHz.wav
3	27	1	2	0	C	1	1	522	1	Ⴌ	cut_n_stereo_44KHz.wav
3	28	4	3	2	I	2	0	289	0	Ⴖ	cut_ei_stereo_44KHz.wav
3	29	1	1	1	C	2	1	773	1	Ⴌ	cut_oei_stereo_44KHz.wav
3	30	4	4	2	I	1	0	427	1	Ⴖ	cut_f_stereo_44KHz.wav
3	31	2	2	1	C	2	1	175	1	Ⴐ	cut_n_stereo_44KHz.wav
3	32	3	3	2	I	1	0	529	0	Ⴒ	cut_ei_stereo_44KHz.wav
3	33	1	1	1	C	2	1	1632	1	Ⴌ	cut_oei_stereo_44KHz.wav
3	34	4	3	2	I	2	0	774	1	Ⴖ	cut_ei_stereo_44KHz.wav
3	35	2	2	1	C	0	0	0	0	Ⴐ	cut_n_stereo_44KHz.wav
3	36	3	4	2	I	2	0	890	0	Ⴒ	cut_f_stereo_44KHz.wav
3	37	4	4	2	I	1	0	817	1	Ⴖ	cut_f_stereo_44KHz.wav
3	38	2	1	0	C	2	0	997	0	Ⴐ	cut_oei_stereo_44KHz.wav
3	39	3	3	2	I	1	0	833	1	Ⴒ	cut_ei_stereo_44KHz.wav
3	40	1	2	0	C	2	0	587	0	Ⴌ	cut_n_stereo_44KHz.wav
3	41	3	4	2	I	1	0	969	1	Ⴒ	cut_f_stereo_44KHz.wav
3	42	2	1	0	C	1	1	758	1	Ⴐ	cut_oei_stereo_44KHz.wav
3	43	1	1	1	C	2	1	818	1	Ⴌ	cut_oei_stereo_44KHz.wav
3	44	4	4	2	I	0	0	0	0	Ⴖ	cut_f_stereo_44KHz.wav
3	45	1	2	0	C	2	0	978	0	Ⴌ	cut_n_stereo_44KHz.wav
3	46	4	3	2	I	1	0	638	1	Ⴖ	cut_ei_stereo_44KHz.wav
3	47	3	3	2	I	2	0	1379	1	Ⴒ	cut_ei_stereo_44KHz.wav
3	48	2	2	1	C	1	0	862	0	Ⴐ	cut_n_stereo_44KHz.wav
3	49	1	2	0	C	2	0	1207	0	Ⴌ	cut_n_stereo_44KHz.wav
3	50	4	3	2	I	1	0	599	1	Ⴖ	cut_ei_stereo_44KHz.wav
3	51	3	3	2	I	2	0	1315	1	Ⴒ	cut_ei_stereo_44KHz.wav
3	52	2	2	1	C	0	0	0	0	Ⴐ	cut_n_stereo_44KHz.wav
3	53	1	1	1	C	1	0	531	0	Ⴌ	cut_oei_stereo_44KHz.wav
3	54	2	1	0	C	2	0	918	0	Ⴐ	cut_oei_stereo_44KHz.wav
3	55	4	4	2	I	2	0	893	0	Ⴖ	cut_f_stereo_44KHz.wav
3	56	3	4	2	I	2	0	1233	1	Ⴒ	cut_f_stereo_44KHz.wav
3	57	2	2	1	C	0	0	0	0	Ⴐ	cut_n_stereo_44KHz.wav
3	58	4	3	2	I	0	0	0	0	Ⴖ	cut_ei_stereo_44KHz.wav
3	59	3	4	2	I	2	0	1241	1	Ⴒ	cut_f_stereo_44KHz.wav
3	60	1	2	0	C	0	0	0	0	Ⴌ	cut_n_stereo_44KHz.wav
3	61	4	4	2	I	0	0	0	0	Ⴖ	cut_f_stereo_44KHz.wav
3	62	1	1	1	C	0	0	0	0	Ⴌ	cut_oei_stereo_44KHz.wav
3	63	3	3	2	I	2	0	991	0	Ⴒ	cut_ei_stereo_44KHz.wav
3	64	2	1	0	C	1	1	1053	1	Ⴐ	cut_oei_stereo_44KHz.wav
3	65	4	4	2	I	2	0	491	1	Ⴖ	cut_f_stereo_44KHz.wav
3	66	3	3	2	I	1	0	992	1	Ⴒ	cut_ei_stereo_44KHz.wav
3	67	1	1	1	C	2	1	792	1	Ⴌ	cut_oei_stereo_44KHz.wav
3	68	2	2	1	C	1	0	1436	0	Ⴐ	cut_n_stereo_44KHz.wav
3	69	1	2	0	C	2	0	1075	0	Ⴌ	cut_n_stereo_44KHz.wav
3	70	3	4	2	I	1	0	1278	1	Ⴒ	cut_f_stereo_44KHz.wav
3	71	2	1	0	C	2	0	794	0	Ⴐ	cut_oei_stereo_44KHz.wav
3	72	4	3	2	I	2	0	1702	1	Ⴖ	cut_ei_stereo_44KHz.wav
3	73	3	4	2	I	0	0	0	0	Ⴒ	cut_f_stereo_44KHz.wav
3	74	2	2	1	C	0	0	0	0	Ⴐ	cut_n_stereo_44KHz.wav
3	75	1	1	1	C	0	0	0	0	Ⴌ	cut_oei_stereo_44KHz.wav
3	76	4	4	2	I	2	0	984	0	Ⴖ	cut_f_stereo_44KHz.wav
3	77	3	3	2	I	2	0	1090	1	Ⴒ	cut_ei_stereo_44KHz.wav
3	78	4	3	2	I	2	0	1277	1	Ⴖ	cut_ei_stereo_44KHz.wav
3	79	2	1	0	C	0	0	0	0	Ⴐ	cut_oei_stereo_44KHz.wav
3	80	1	2	0	C	2	0	1374	0	Ⴌ	cut_n_stereo_44KHz.wav
3	81	3	3	2	I	2	0	517	1	Ⴒ	cut_ei_stereo_44KHz.wav
3	82	2	1	0	C	0	0	0	0	Ⴐ	cut_oei_stereo_44KHz.wav
3	83	1	2	0	C	2	0	1821	0	Ⴌ	cut_n_stereo_44KHz.wav
3	84	4	4	2	I	2	0	1188	1	Ⴖ	cut_f_stereo_44KHz.wav
3	85	2	2	1	C	2	1	1324	1	Ⴐ	cut_n_stereo_44KHz.wav
3	86	4	3	2	I	1	0	926	1	Ⴖ	cut_ei_stereo_44KHz.wav
3	87	3	4	2	I	2	0	1675	1	Ⴒ	cut_f_stereo_44KHz.wav
3	88	1	1	1	C	2	1	1807	1	Ⴌ	cut_oei_stereo_44KHz.wav
3	89	4	4	2	I	1	0	1126	1	Ⴖ	cut_f_stereo_44KHz.wav
3	90	2	1	0	C	2	0	1030	0	Ⴐ	cut_oei_stereo_44KHz.wav
3	91	1	1	1	C	1	0	912	0	Ⴌ	cut_oei_stereo_44KHz.wav
3	92	3	3	2	I	2	0	1422	1	Ⴒ	cut_ei_stereo_44KHz.wav
3	93	2	2	1	C	1	0	1538	0	Ⴐ	cut_n_stereo_44KHz.wav
3	94	1	2	0	C	0	0	0	0	Ⴌ	cut_n_stereo_44KHz.wav
3	95	4	3	2	I	0	0	0	0	Ⴖ	cut_ei_stereo_44KHz.wav
3	96	3	4	2	I	0	0	0	0	Ⴒ	cut_f_stereo_44KHz.wav
3	97	1	2	0	C	2	0	972	0	Ⴌ	cut_n_stereo_44KHz.wav
3	98	4	3	2	I	2	0	1033	1	Ⴖ	cut_ei_stereo_44KHz.wav
3	99	3	3	2	I	0	0	0	0	Ⴒ	cut_ei_stereo_44KHz.wav
3	100	2	2	1	C	2	1	526	1	Ⴐ	cut_n_stereo_44KHz.wav
3	101	3	4	2	I	2	0	466	1	Ⴒ	cut_f_stereo_44KHz.wav
3	102	2	1	0	C	1	1	1192	1	Ⴐ	cut_oei_stereo_44KHz.wav
3	103	1	1	1	C	2	1	1017	1	Ⴌ	cut_oei_stereo_44KHz.wav
3	104	4	4	2	I	1	0	1121	1	Ⴖ	cut_f_stereo_44KHz.wav
3	105	3	4	2	I	2	0	1053	0	Ⴒ	cut_f_stereo_44KHz.wav
3	106	4	4	2	I	1	0	1269	1	Ⴖ	cut_f_stereo_44KHz.wav
3	107	2	1	0	C	2	0	636	0	Ⴐ	cut_oei_stereo_44KHz.wav
3	108	1	1	1	C	2	1	1445	1	Ⴌ	cut_oei_stereo_44KHz.wav
3	109	3	3	2	I	2	0	717	1	Ⴒ	cut_ei_stereo_44KHz.wav
3	110	2	2	1	C	2	1	947	1	Ⴐ	cut_n_stereo_44KHz.wav
3	111	1	2	0	C	1	1	592	1	Ⴌ	cut_n_stereo_44KHz.wav
3	112	4	3	2	I	2	0	1217	0	Ⴖ	cut_ei_stereo_44KHz.wav
3	113	2	1	0	C	2	0	862	0	Ⴐ	cut_oei_stereo_44KHz.wav
3	114	3	3	2	I	0	0	0	0	Ⴒ	cut_ei_stereo_44KHz.wav
3	115	4	3	2	I	0	0	0	0	Ⴖ	cut_ei_stereo_44KHz.wav
3	116	1	1	1	C	1	0	549	0	Ⴌ	cut_oei_stereo_44KHz.wav
3	117	4	4	2	I	2	0	379	1	Ⴖ	cut_f_stereo_44KHz.wav
3	118	3	4	2	I	2	0	1056	1	Ⴒ	cut_f_stereo_44KHz.wav
3	119	1	2	0	C	0	0	0	0	Ⴌ	cut_n_stereo_44KHz.wav
3	120	2	2	1	C	1	0	1063	0	Ⴐ	cut_n_stereo_44KHz.wav
3	121	4	3	2	I	1	0	879	1	Ⴖ	cut_ei_stereo_44KHz.wav
3	122	3	4	2	I	2	0	340	0	Ⴒ	cut_f_stereo_44KHz.wav
3	123	2	1	0	C	0	0	0	0	Ⴐ	cut_oei_stereo_44KHz.wav
3	124	1	1	1	C	2	1	1042	1	Ⴌ	cut_oei_stereo_44KHz.wav
3	125	2	2	1	C	0	0	0	0	Ⴐ	cut_n_stereo_44KHz.wav
3	126	4	4	2	I	2	0	759	1	Ⴖ	cut_f_stereo_44KHz.wav
3	127	1	2	0	C	2	0	885	0	Ⴌ	cut_n_stereo_44KHz.wav
3	128	3	3	2	I	1	0	1107	1	Ⴒ	cut_ei_stereo_44KHz.wav
3	129	4	3	2	I	2	0	589	1	Ⴖ	cut_ei_stereo_44KHz.wav
3	130	1	1	1	C	1	0	280	0	Ⴌ	cut_oei_stereo_44KHz.wav
3	131	2	2	1	C	2	1	758	1	Ⴐ	cut_n_stereo_44KHz.wav
3	132	3	3	2	I	1	0	1001	1	Ⴒ	cut_ei_stereo_44KHz.wav
3	133	1	2	0	C	2	0	1177	0	Ⴌ	cut_n_stereo_44KHz.wav
3	134	3	4	2	I	1	0	599	1	Ⴒ	cut_f_stereo_44KHz.wav
3	135	2	1	0	C	2	0	729	0	Ⴐ	cut_oei_stereo_44KHz.wav
3	136	4	4	2	I	1	0	1226	1	Ⴖ	cut_f_stereo_44KHz.wav
3	137	2	2	1	C	2	1	590	1	Ⴐ	cut_n_stereo_44KHz.wav
3	138	1	1	1	C	1	0	735	0	Ⴌ	cut_oei_stereo_44KHz.wav
3	139	4	3	2	I	2	0	774	1	Ⴖ	cut_ei_stereo_44KHz.wav
3	140	3	3	2	I	1	0	1099	1	Ⴒ	cut_ei_stereo_44KHz.wav
3	141	1	2	0	C	2	0	1404	0	Ⴌ	cut_n_stereo_44KHz.wav
3	142	4	4	2	I	2	0	1287	0	Ⴖ	cut_f_stereo_44KHz.wav
3	143	3	4	2	I	2	0	1079	1	Ⴒ	cut_f_stereo_44KHz.wav
3	144	2	1	0	C	1	1	855	1	Ⴐ	cut_oei_stereo_44KHz.wav
3	145	4	3	2	I	1	0	807	1	Ⴖ	cut_ei_stereo_44KHz.wav
3	146	1	1	1	C	1	0	1357	0	Ⴌ	cut_oei_stereo_44KHz.wav
3	147	3	4	2	I	2	0	1898	1	Ⴒ	cut_f_stereo_44KHz.wav
3	148	2	2	1	C	1	0	996	0	Ⴐ	cut_n_stereo_44KHz.wav
3	149	4	4	2	I	2	0	449	1	Ⴖ	cut_f_stereo_44KHz.wav
3	150	2	1	0	C	1	1	469	1	Ⴐ	cut_oei_stereo_44KHz.wav
3	151	1	2	0	C	2	0	977	0	Ⴌ	cut_n_stereo_44KHz.wav
3	152	3	3	2	I	1	0	1602	1	Ⴒ	cut_ei_stereo_44KHz.wav
3	153	4	3	2	I	2	0	506	0	Ⴖ	cut_ei_stereo_44KHz.wav
3	154	1	1	1	C	1	0	868	0	Ⴌ	cut_oei_stereo_44KHz.wav
3	155	3	4	2	I	2	0	632	1	Ⴒ	cut_f_stereo_44KHz.wav
3	156	2	1	0	C	1	1	447	1	Ⴐ	cut_oei_stereo_44KHz.wav
3	157	1	2	0	C	2	0	652	0	Ⴌ	cut_n_stereo_44KHz.wav
3	158	2	2	1	C	1	0	668	0	Ⴐ	cut_n_stereo_44KHz.wav
3	159	3	3	2	I	2	0	828	1	Ⴒ	cut_ei_stereo_44KHz.wav
3	160	4	4	2	I	2	0	516	1	Ⴖ	cut_f_stereo_44KHz.wav
3	161	1	2	0	C	1	1	718	1	Ⴌ	cut_n_stereo_44KHz.wav
3	162	4	3	2	I	1	0	816	1	Ⴖ	cut_ei_stereo_44KHz.wav
3	163	3	4	2	I	1	0	720	1	Ⴒ	cut_f_stereo_44KHz.wav
3	164	2	2	1	C	2	1	1011	1	Ⴐ	cut_n_stereo_44KHz.wav
3	165	1	1	1	C	1	0	916	0	Ⴌ	cut_oei_stereo_44KHz.wav
3	166	4	4	2	I	2	0	1091	1	Ⴖ	cut_f_stereo_44KHz.wav
3	167	3	3	2	I	1	0	391	1	Ⴒ	cut_ei_stereo_44KHz.wav
3	168	2	1	0	C	2	0	937	0	Ⴐ	cut_oei_stereo_44KHz.wav
3	169	1	1	1	C	1	0	1156	0	Ⴌ	cut_oei_stereo_44KHz.wav
3	170	2	2	1	C	2	1	1954	1	Ⴐ	cut_n_stereo_44KHz.wav
3	171	3	3	2	I	2	0	1107	0	Ⴒ	cut_ei_stereo_44KHz.wav
3	172	4	4	2	I	1	0	757	1	Ⴖ	cut_f_stereo_44KHz.wav
3	173	1	2	0	C	2	0	745	0	Ⴌ	cut_n_stereo_44KHz.wav
3	174	3	4	2	I	2	0	1070	0	Ⴒ	cut_f_stereo_44KHz.wav
3	175	4	3	2	I	1	0	441	0	Ⴖ	cut_ei_stereo_44KHz.wav
3	176	2	1	0	C	2	0	817	0	Ⴐ	cut_oei_stereo_44KHz.wav
3	177	1	1	1	C	1	0	877	0	Ⴌ	cut_oei_stereo_44KHz.wav
3	178	3	3	2	I	1	0	984	1	Ⴒ	cut_ei_stereo_44KHz.wav
3	179	2	1	0	C	0	0	0	0	Ⴐ	cut_oei_stereo_44KHz.wav
3	180	4	4	2	I	0	0	0	0	Ⴖ	cut_f_stereo_44KHz.wav
3	181	3	4	2	I	1	0	1198	1	Ⴒ	cut_f_stereo_44KHz.wav
3	182	1	2	0	C	1	1	752	1	Ⴌ	cut_n_stereo_44KHz.wav
3	183	4	3	2	I	2	0	109	1	Ⴖ	cut_ei_stereo_44KHz.wav
3	184	2	2	1	C	2	1	424	1	Ⴐ	cut_n_stereo_44KHz.wav
3	185	1	2	0	C	2	0	745	0	Ⴌ	cut_n_stereo_44KHz.wav
3	186	4	3	2	I	1	0	506	0	Ⴖ	cut_ei_stereo_44KHz.wav
3	187	3	3	2	I	0	0	0	0	Ⴒ	cut_ei_stereo_44KHz.wav
3	188	2	2	1	C	1	0	757	0	Ⴐ	cut_n_stereo_44KHz.wav
3	189	1	1	1	C	1	0	794	0	Ⴌ	cut_oei_stereo_44KHz.wav
3	190	3	4	2	I	2	0	1113	0	Ⴒ	cut_f_stereo_44KHz.wav
3	191	2	1	0	C	1	1	1628	1	Ⴐ	cut_oei_stereo_44KHz.wav
3	192	4	4	2	I	0	0	0	0	Ⴖ	cut_f_stereo_44KHz.wav
3	193	3	4	2	I	0	0	0	0	Ⴒ	cut_f_stereo_44KHz.wav
3	194	1	2	0	C	2	0	1168	0	Ⴌ	cut_n_stereo_44KHz.wav
3	195	2	2	1	C	1	0	1726	0	Ⴐ	cut_n_stereo_44KHz.wav
3	196	4	3	2	I	2	0	709	1	Ⴖ	cut_ei_stereo_44KHz.wav
3	197	3	3	2	I	1	0	858	1	Ⴒ	cut_ei_stereo_44KHz.wav
3	198	2	1	0	C	1	1	651	1	Ⴐ	cut_oei_stereo_44KHz.wav
3	199	4	4	2	I	2	0	988	0	Ⴖ	cut_f_stereo_44KHz.wav
3	200	1	1	1	C	1	0	850	0	Ⴌ	cut_oei_stereo_44KHz.wav
4	1	1	1	1	C	2	1	1377	1	Ⴇ	cut_r_stereo_44KHz.wav
4	2	3	3	2	I	1	0	712	1	Ⴟ	cut_ui_stereo_44KHz.wav
4	3	4	4	2	I	2	0	776	1	Ⴁ	cut_s_stereo_44KHz.wav
4	4	2	1	0	C	1	1	581	1	Ⴂ	cut_r_stereo_44KHz.wav
4	5	1	2	0	C	2	0	872	0	Ⴇ	cut_j_stereo_44KHz.wav
4	6	3	4	2	I	2	0	1235	1	Ⴟ	cut_s_stereo_44KHz.wav
4	7	2	2	1	C	1	0	865	0	Ⴂ	cut_j_stereo_44KHz.wav
4	8	4	3	2	I	2	0	778	0	Ⴁ	cut_ui_stereo_44KHz.wav
4	9	3	4	2	I	1	0	722	1	Ⴟ	cut_s_stereo_44KHz.wav
4	10	2	2	1	C	1	0	200	0	Ⴂ	cut_j_stereo_44KHz.wav
4	11	1	1	1	C	2	1	590	1	Ⴇ	cut_r_stereo_44KHz.wav
4	12	4	3	2	I	0	0	0	0	Ⴁ	cut_ui_stereo_44KHz.wav
4	13	1	2	0	C	2	0	1017	0	Ⴇ	cut_j_stereo_44KHz.wav
4	14	2	1	0	C	2	0	499	0	Ⴂ	cut_r_stereo_44KHz.wav
4	15	4	4	2	I	1	0	852	1	Ⴁ	cut_s_stereo_44KHz.wav
4	16	3	3	2	I	2	0	602	1	Ⴟ	cut_ui_stereo_44KHz.wav
4	17	2	2	1	C	2	1	781	1	Ⴂ	cut_j_stereo_44KHz.wav
4	18	3	3	2	I	0	0	0	0	Ⴟ	cut_ui_stereo_44KHz.wav
4	19	4	3	2	I	2	0	696	1	Ⴁ	cut_ui_stereo_44KHz.wav
4	20	1	2	0	C	1	1	1935	1	Ⴇ	cut_j_stereo_44KHz.wav
4	21	4	4	2	I	1	0	993	0	Ⴁ	cut_s_stereo_44KHz.wav
4	22	1	1	1	C	2	1	967	1	Ⴇ	cut_r_stereo_44KHz.wav
4	23	3	4	2	I	1	0	1166	1	Ⴟ	cut_s_stereo_44KHz.wav
4	24	2	1	0	C	2	0	669	0	Ⴂ	cut_r_stereo_44KHz.wav
4	25	3	3	2	I	1	0	1173	1	Ⴟ	cut_ui_stereo_44KHz.wav
4	26	4	4	2	I	0	0	0	0	Ⴁ	cut_s_stereo_44KHz.wav
4	27	2	1	0	C	2	0	458	0	Ⴂ	cut_r_stereo_44KHz.wav
4	28	1	2	0	C	2	0	1334	0	Ⴇ	cut_j_stereo_44KHz.wav
4	29	4	3	2	I	1	0	1092	1	Ⴁ	cut_ui_stereo_44KHz.wav
4	30	1	1	1	C	0	0	0	0	Ⴇ	cut_r_stereo_44KHz.wav
4	31	3	4	2	I	2	0	1282	1	Ⴟ	cut_s_stereo_44KHz.wav
4	32	2	2	1	C	0	0	0	0	Ⴂ	cut_j_stereo_44KHz.wav
4	33	4	3	2	I	0	0	0	0	Ⴁ	cut_ui_stereo_44KHz.wav
4	34	1	1	1	C	1	0	1528	0	Ⴇ	cut_r_stereo_44KHz.wav
4	35	3	3	2	I	2	0	568	1	Ⴟ	cut_ui_stereo_44KHz.wav
4	36	2	1	0	C	2	0	590	0	Ⴂ	cut_r_stereo_44KHz.wav
4	37	1	2	0	C	2	0	1489	0	Ⴇ	cut_j_stereo_44KHz.wav
4	38	3	4	2	I	0	0	0	0	Ⴟ	cut_s_stereo_44KHz.wav
4	39	4	4	2	I	2	0	1163	1	Ⴁ	cut_s_stereo_44KHz.wav
4	40	2	2	1	C	1	0	1037	0	Ⴂ	cut_j_stereo_44KHz.wav
4	41	1	1	1	C	2	1	693	1	Ⴇ	cut_r_stereo_44KHz.wav
4	42	4	3	2	I	1	0	764	1	Ⴁ	cut_ui_stereo_44KHz.wav
4	43	2	2	1	C	2	1	414	1	Ⴂ	cut_j_stereo_44KHz.wav
4	44	3	4	2	I	1	0	997	0	Ⴟ	cut_s_stereo_44KHz.wav
4	45	4	4	2	I	2	0	880	1	Ⴁ	cut_s_stereo_44KHz.wav
4	46	1	2	0	C	1	1	1349	1	Ⴇ	cut_j_stereo_44KHz.wav
4	47	3	3	2	I	2	0	1285	0	Ⴟ	cut_ui_stereo_44KHz.wav
4	48	2	1	0	C	1	1	1291	1	Ⴂ	cut_r_stereo_44KHz.wav
4	49	3	3	2	I	2	0	874	1	Ⴟ	cut_ui_stereo_44KHz.wav
4	50	1	2	0	C	2	0	701	0	Ⴇ	cut_j_stereo_44KHz.wav
4	51	2	1	0	C	2	0	917	0	Ⴂ	cut_r_stereo_44KHz.wav
4	52	4	4	2	I	2	0	682	1	Ⴁ	cut_s_stereo_44KHz.wav
4	53	2	2	1	C	2	1	1522	1	Ⴂ	cut_j_stereo_44KHz.wav
4	54	3	4	2	I	2	0	1167	0	Ⴟ	cut_s_stereo_44KHz.wav
4	55	4	3	2	I	1	0	855	0	Ⴁ	cut_ui_stereo_44KHz.wav
4	56	1	1	1	C	2	1	407	1	Ⴇ	cut_r_stereo_44KHz.wav
4	57	2	2	1	C	1	0	630	0	Ⴂ	cut_j_stereo_44KHz.wav
4	58	1	1	1	C	2	1	1169	1	Ⴇ	cut_r_stereo_44KHz.wav
4	59	3	4	2	I	0	0	0	0	Ⴟ	cut_s_stereo_44KHz.wav
4	60	4	3	2	I	0	0	0	0	Ⴁ	cut_ui_stereo_44KHz.wav
4	61	2	1	0	C	1	1	1203	1	Ⴂ	cut_r_stereo_44KHz.wav
4	62	4	4	2	I	1	0	1040	1	Ⴁ	cut_s_stereo_44KHz.wav
4	63	1	2	0	C	2	0	815	0	Ⴇ	cut_j_stereo_44KHz.wav
4	64	3	3	2	I	2	0	911	1	Ⴟ	cut_ui_stereo_44KHz.wav
4	65	2	1	0	C	1	1	556	1	Ⴂ	cut_r_stereo_44KHz.wav
4	66	4	4	2	I	2	0	670	1	Ⴁ	cut_s_stereo_44KHz.wav
4	67	1	1	1	C	2	1	110	1	Ⴇ	cut_r_stereo_44KHz.wav
4	68	3	3	2	I	0	0	0	0	Ⴟ	cut_ui_stereo_44KHz.wav
4	69	4	3	2	I	2	0	869	1	Ⴁ	cut_ui_stereo_44KHz.wav
4	70	3	4	2	I	1	0	767	1	Ⴟ	cut_s_stereo_44KHz.wav
4	71	2	2	1	C	2	1	530	1	Ⴂ	cut_j_stereo_44KHz.wav
4	72	1	2	0	C	2	0	1546	0	Ⴇ	cut_j_stereo_44KHz.wav
4	73	4	3	2	I	2	0	957	1	Ⴁ	cut_ui_stereo_44KHz.wav
4	74	3	3	2	I	2	0	411	1	Ⴟ	cut_ui_stereo_44KHz.wav
4	75	1	1	1	C	1	0	683	0	Ⴇ	cut_r_stereo_44KHz.wav
4	76	2	1	0	C	2	0	647	0	Ⴂ	cut_r_stereo_44KHz.wav
4	77	1	2	0	C	1	1	458	1	Ⴇ	cut_j_stereo_44KHz.wav
4	78	3	4	2	I	1	0	419	1	Ⴟ	cut_s_stereo_44KHz.wav
4	79	2	2	1	C	1	0	894	0	Ⴂ	cut_j_stereo_44KHz.wav
4	80	4	4	2	I	1	0	910	1	Ⴁ	cut_s_stereo_44KHz.wav
4	81	3	3	2	I	2	0	463	1	Ⴟ	cut_ui_stereo_44KHz.wav
4	82	1	1	1	C	0	0	0	0	Ⴇ	cut_r_stereo_44KHz.wav
4	83	4	4	2	I	1	0	705	1	Ⴁ	cut_s_stereo_44KHz.wav
4	84	2	2	1	C	2	1	1339	1	Ⴂ	cut_j_stereo_44KHz.wav
4	85	4	3	2	I	2	0	814	0	Ⴁ	cut_ui_stereo_44KHz.wav
4	86	3	4	2	I	0	0	0	0	Ⴟ	cut_s_stereo_44KHz.wav
4	87	2	1	0	C	0	0	0	0	Ⴂ	cut_r_stereo_44KHz.wav
4	88	1	2	0	C	1	1	1870	1	Ⴇ	cut_j_stereo_44KHz.wav
4	89	3	3	2	I	2	0	1353	1	Ⴟ	cut_ui_stereo_44KHz.wav
4	90	4	4	2	I	0	0	0	0	Ⴁ	cut_s_stereo_44KHz.wav
4	91	2	2	1	C	2	1	821	1	Ⴂ	cut_j_stereo_44KHz.wav
4	92	1	2	0	C	2	0	606	0	Ⴇ	cut_j_stereo_44KHz.wav
4	93	3	4	2	I	0	0	0	0	Ⴟ	cut_s_stereo_44KHz.wav
4	94	2	1	0	C	2	0	769	0	Ⴂ	cut_r_stereo_44KHz.wav
4	95	1	1	1	C	1	0	1043	0	Ⴇ	cut_r_stereo_44KHz.wav
4	96	4	3	2	I	2	0	844	0	Ⴁ	cut_ui_stereo_44KHz.wav
4	97	1	2	0	C	0	0	0	0	Ⴇ	cut_j_stereo_44KHz.wav
4	98	2	1	0	C	1	1	883	1	Ⴂ	cut_r_stereo_44KHz.wav
4	99	4	3	2	I	2	0	30	1	Ⴁ	cut_ui_stereo_44KHz.wav
4	100	3	3	2	I	1	0	139	0	Ⴟ	cut_ui_stereo_44KHz.wav
4	101	1	1	1	C	2	1	178	1	Ⴇ	cut_r_stereo_44KHz.wav
4	102	2	2	1	C	0	0	0	0	Ⴂ	cut_j_stereo_44KHz.wav
4	103	4	4	2	I	2	0	524	1	Ⴁ	cut_s_stereo_44KHz.wav
4	104	3	4	2	I	2	0	978	1	Ⴟ	cut_s_stereo_44KHz.wav
4	105	1	2	0	C	2	0	276	0	Ⴇ	cut_j_stereo_44KHz.wav
4	106	3	4	2	I	1	0	931	1	Ⴟ	cut_s_stereo_44KHz.wav
4	107	2	2	1	C	2	1	568	1	Ⴂ	cut_j_stereo_44KHz.wav
4	108	4	3	2	I	2	0	1304	1	Ⴁ	cut_ui_stereo_44KHz.wav
4	109	1	1	1	C	1	0	439	0	Ⴇ	cut_r_stereo_44KHz.wav
4	110	4	4	2	I	2	0	648	1	Ⴁ	cut_s_stereo_44KHz.wav
4	111	3	3	2	I	1	0	84	1	Ⴟ	cut_ui_stereo_44KHz.wav
4	112	2	1	0	C	1	1	89	1	Ⴂ	cut_r_stereo_44KHz.wav
4	113	3	4	2	I	1	0	243	1	Ⴟ	cut_s_stereo_44KHz.wav
4	114	2	1	0	C	1	1	1278	1	Ⴂ	cut_r_stereo_44KHz.wav
4	115	1	2	0	C	2	0	813	0	Ⴇ	cut_j_stereo_44KHz.wav
4	116	4	3	2	I	2	0	1193	1	Ⴁ	cut_ui_stereo_44KHz.wav
4	117	1	1	1	C	2	1	1106	1	Ⴇ	cut_r_stereo_44KHz.wav
4	118	4	4	2	I	2	0	789	1	Ⴁ	cut_s_stereo_44KHz.wav
4	119	2	2	1	C	2	1	1247	1	Ⴂ	cut_j_stereo_44KHz.wav
4	120	3	3	2	I	1	0	677	1	Ⴟ	cut_ui_stereo_44KHz.wav
4	121	2	1	0	C	2	0	1441	0	Ⴂ	cut_r_stereo_44KHz.wav
4	122	3	4	2	I	2	0	527	1	Ⴟ	cut_s_stereo_44KHz.wav
4	123	4	3	2	I	2	0	646	1	Ⴁ	cut_ui_stereo_44KHz.wav
4	124	1	1	1	C	1	0	531	0	Ⴇ	cut_r_stereo_44KHz.wav
4	125	3	3	2	I	1	0	573	0	Ⴟ	cut_ui_stereo_44KHz.wav
4	126	2	2	1	C	2	1	812	1	Ⴂ	cut_j_stereo_44KHz.wav
4	127	4	4	2	I	2	0	837	0	Ⴁ	cut_s_stereo_44KHz.wav
4	128	1	2	0	C	1	1	812	1	Ⴇ	cut_j_stereo_44KHz.wav
4	129	4	3	2	I	2	0	642	1	Ⴁ	cut_ui_stereo_44KHz.wav
4	130	1	1	1	C	2	1	566	1	Ⴇ	cut_r_stereo_44KHz.wav
4	131	3	4	2	I	1	0	561	1	Ⴟ	cut_s_stereo_44KHz.wav
4	132	2	2	1	C	2	1	765	1	Ⴂ	cut_j_stereo_44KHz.wav
4	133	1	2	0	C	1	1	817	1	Ⴇ	cut_j_stereo_44KHz.wav
4	134	2	1	0	C	2	0	407	0	Ⴂ	cut_r_stereo_44KHz.wav
4	135	3	3	2	I	2	0	1199	1	Ⴟ	cut_ui_stereo_44KHz.wav
4	136	4	4	2	I	1	0	800	1	Ⴁ	cut_s_stereo_44KHz.wav
4	137	2	2	1	C	1	0	823	0	Ⴂ	cut_j_stereo_44KHz.wav
4	138	4	4	2	I	2	0	635	1	Ⴁ	cut_s_stereo_44KHz.wav
4	139	3	3	2	I	1	0	1677	0	Ⴟ	cut_ui_stereo_44KHz.wav
4	140	1	2	0	C	2	0	876	0	Ⴇ	cut_j_stereo_44KHz.wav
4	141	2	1	0	C	2	0	1691	0	Ⴂ	cut_r_stereo_44KHz.wav
4	142	4	3	2	I	2	0	515	1	Ⴁ	cut_ui_stereo_44KHz.wav
4	143	3	4	2	I	2	0	1838	1	Ⴟ	cut_s_stereo_44KHz.wav
4	144	1	1	1	C	2	1	862	1	Ⴇ	cut_r_stereo_44KHz.wav
4	145	4	4	2	I	2	0	905	1	Ⴁ	cut_s_stereo_44KHz.wav
4	146	3	4	2	I	0	0	0	0	Ⴟ	cut_s_stereo_44KHz.wav
4	147	1	2	0	C	2	0	1184	0	Ⴇ	cut_j_stereo_44KHz.wav
4	148	2	2	1	C	1	0	993	0	Ⴂ	cut_j_stereo_44KHz.wav
4	149	4	3	2	I	2	0	973	1	Ⴁ	cut_ui_stereo_44KHz.wav
4	150	2	1	0	C	1	1	871	1	Ⴂ	cut_r_stereo_44KHz.wav
4	151	1	1	1	C	1	0	1462	0	Ⴇ	cut_r_stereo_44KHz.wav
4	152	3	3	2	I	2	0	1046	1	Ⴟ	cut_ui_stereo_44KHz.wav
4	153	4	4	2	I	2	0	1269	1	Ⴁ	cut_s_stereo_44KHz.wav
4	154	1	1	1	C	2	1	606	1	Ⴇ	cut_r_stereo_44KHz.wav
4	155	2	2	1	C	2	1	747	1	Ⴂ	cut_j_stereo_44KHz.wav
4	156	3	3	2	I	2	0	716	0	Ⴟ	cut_ui_stereo_44KHz.wav
4	157	4	3	2	I	1	0	995	1	Ⴁ	cut_ui_stereo_44KHz.wav
4	158	3	4	2	I	1	0	1161	1	Ⴟ	cut_s_stereo_44KHz.wav
4	159	1	2	0	C	1	1	1046	1	Ⴇ	cut_j_stereo_44KHz.wav
4	160	2	1	0	C	1	1	1154	1	Ⴂ	cut_r_stereo_44KHz.wav
4	161	1	1	1	C	2	1	1086	1	Ⴇ	cut_r_stereo_44KHz.wav
4	162	4	4	2	I	1	0	1308	0	Ⴁ	cut_s_stereo_44KHz.wav
4	163	2	1	0	C	2	0	622	0	Ⴂ	cut_r_stereo_44KHz.wav
4	164	3	3	2	I	1	0	699	1	Ⴟ	cut_ui_stereo_44KHz.wav
4	165	2	2	1	C	2	1	646	1	Ⴂ	cut_j_stereo_44KHz.wav
4	166	1	2	0	C	1	1	340	1	Ⴇ	cut_j_stereo_44KHz.wav
4	167	3	4	2	I	2	0	648	1	Ⴟ	cut_s_stereo_44KHz.wav
4	168	4	3	2	I	1	0	741	1	Ⴁ	cut_ui_stereo_44KHz.wav
4	169	3	3	2	I	2	0	905	1	Ⴟ	cut_ui_stereo_44KHz.wav
4	170	2	1	0	C	2	0	899	0	Ⴂ	cut_r_stereo_44KHz.wav
4	171	4	3	2	I	1	0	1153	0	Ⴁ	cut_ui_stereo_44KHz.wav
4	172	1	2	0	C	2	0	798	0	Ⴇ	cut_j_stereo_44KHz.wav
4	173	2	2	1	C	2	1	767	1	Ⴂ	cut_j_stereo_44KHz.wav
4	174	3	4	2	I	2	0	444	1	Ⴟ	cut_s_stereo_44KHz.wav
4	175	1	1	1	C	1	0	1014	0	Ⴇ	cut_r_stereo_44KHz.wav
4	176	4	4	2	I	2	0	435	1	Ⴁ	cut_s_stereo_44KHz.wav
4	177	3	4	2	I	0	0	0	0	Ⴟ	cut_s_stereo_44KHz.wav
4	178	4	3	2	I	2	0	706	0	Ⴁ	cut_ui_stereo_44KHz.wav
4	179	2	1	0	C	0	0	0	0	Ⴂ	cut_r_stereo_44KHz.wav
4	180	1	2	0	C	2	0	831	0	Ⴇ	cut_j_stereo_44KHz.wav
4	181	3	3	2	I	2	0	679	1	Ⴟ	cut_ui_stereo_44KHz.wav
4	182	1	1	1	C	1	0	720	0	Ⴇ	cut_r_stereo_44KHz.wav
4	183	2	2	1	C	2	1	677	1	Ⴂ	cut_j_stereo_44KHz.wav
4	184	4	4	2	I	1	0	716	1	Ⴁ	cut_s_stereo_44KHz.wav
4	185	1	2	0	C	2	0	541	0	Ⴇ	cut_j_stereo_44KHz.wav
4	186	3	3	2	I	2	0	568	1	Ⴟ	cut_ui_stereo_44KHz.wav
4	187	4	3	2	I	1	0	525	1	Ⴁ	cut_ui_stereo_44KHz.wav
4	188	2	1	0	C	2	0	691	0	Ⴂ	cut_r_stereo_44KHz.wav
4	189	3	4	2	I	2	0	1327	1	Ⴟ	cut_s_stereo_44KHz.wav
4	190	1	1	1	C	2	1	542	1	Ⴇ	cut_r_stereo_44KHz.wav
4	191	4	4	2	I	1	0	956	1	Ⴁ	cut_s_stereo_44KHz.wav
4	192	2	2	1	C	2	1	1132	1	Ⴂ	cut_j_stereo_44KHz.wav
4	193	3	4	2	I	2	0	743	1	Ⴟ	cut_s_stereo_44KHz.wav
4	194	4	4	2	I	1	0	847	1	Ⴁ	cut_s_stereo_44KHz.wav
4	195	1	2	0	C	2	0	1252	0	Ⴇ	cut_j_stereo_44KHz.wav
4	196	2	2	1	C	2	1	874	1	Ⴂ	cut_j_stereo_44KHz.wav
4	197	3	3	2	I	2	0	711	1	Ⴟ	cut_ui_stereo_44KHz.wav
4	198	2	1	0	C	2	0	1937	0	Ⴂ	cut_r_stereo_44KHz.wav
4	199	1	1	1	C	1	0	776	0	Ⴇ	cut_r_stereo_44KHz.wav
4	200	4	3	2	I	0	0	0	0	Ⴁ	cut_ui_stereo_44KHz.wav
