block	trial	Vstim	Astim	match	C/I	resp	result	RT	fb	V-file	A-file
RL

0	1	2	3	1	C	0	0	0	0	Ⴢ	cut_eeuw_stereo_44KHz.wav
0	2	2	4	0	C	0	0	0	0	Ⴢ	cut_ee_stereo_44KHz.wav
0	3	1	2	0	C	1	0	1674	0	Ⴞ	cut_g_stereo_44KHz.wav
0	4	1	1	1	C	2	0	1164	0	Ⴞ	cut_oo_stereo_44KHz.wav
0	5	1	1	1	C	1	1	969	1	Ⴞ	cut_oo_stereo_44KHz.wav
0	6	2	4	0	C	1	0	1566	0	Ⴢ	cut_ee_stereo_44KHz.wav
0	7	2	3	1	C	1	1	1604	1	Ⴢ	cut_eeuw_stereo_44KHz.wav
0	8	1	2	0	C	2	1	1491	1	Ⴞ	cut_g_stereo_44KHz.wav
0	9	1	1	1	C	1	1	1307	1	Ⴞ	cut_oo_stereo_44KHz.wav
0	10	1	2	0	C	2	1	1385	1	Ⴞ	cut_g_stereo_44KHz.wav
0	11	2	4	0	C	2	1	1299	1	Ⴢ	cut_ee_stereo_44KHz.wav
0	12	2	3	1	C	1	1	1370	1	Ⴢ	cut_eeuw_stereo_44KHz.wav
0	13	1	2	0	C	2	1	1559	1	Ⴞ	cut_g_stereo_44KHz.wav
0	14	2	4	0	C	2	1	1186	1	Ⴢ	cut_ee_stereo_44KHz.wav
0	15	2	3	1	C	1	1	1474	1	Ⴢ	cut_eeuw_stereo_44KHz.wav
0	16	1	1	1	C	1	1	1028	1	Ⴞ	cut_oo_stereo_44KHz.wav
0	17	2	3	1	C	1	1	1271	1	Ⴢ	cut_eeuw_stereo_44KHz.wav
0	18	1	2	0	C	2	1	1122	1	Ⴞ	cut_g_stereo_44KHz.wav
0	19	2	4	0	C	2	1	1518	1	Ⴢ	cut_ee_stereo_44KHz.wav
0	20	1	1	1	C	1	1	947	1	Ⴞ	cut_oo_stereo_44KHz.wav
0	21	1	1	1	C	1	1	1072	1	Ⴞ	cut_oo_stereo_44KHz.wav
0	22	2	3	1	C	1	1	1301	1	Ⴢ	cut_eeuw_stereo_44KHz.wav
0	23	2	4	0	C	2	1	1391	1	Ⴢ	cut_ee_stereo_44KHz.wav
0	24	1	2	0	C	2	1	1532	1	Ⴞ	cut_g_stereo_44KHz.wav
0	25	2	4	0	C	2	1	1279	1	Ⴢ	cut_ee_stereo_44KHz.wav
0	26	1	1	1	C	1	1	1238	1	Ⴞ	cut_oo_stereo_44KHz.wav
0	27	2	3	1	C	1	1	1808	1	Ⴢ	cut_eeuw_stereo_44KHz.wav
0	28	1	2	0	C	2	1	853	1	Ⴞ	cut_g_stereo_44KHz.wav
0	29	2	4	0	C	1	0	633	0	Ⴢ	cut_ee_stereo_44KHz.wav
0	30	1	2	0	C	2	1	1101	1	Ⴞ	cut_g_stereo_44KHz.wav
avg_resp = 1296
1	1	3	3	2	I	0	0	0	0	Ⴒ	cut_ei_stereo_44KHz.wav
1	2	1	2	0	C	1	0	1363	0	Ⴖ	cut_s_stereo_44KHz.wav
1	3	2	1	0	C	2	1	923	1	Ⴔ	cut_oei_stereo_44KHz.wav
1	4	4	4	2	I	2	0	1586	1	Ⴉ	cut_f_stereo_44KHz.wav
1	5	3	4	2	I	1	0	1298	1	Ⴒ	cut_f_stereo_44KHz.wav
1	6	4	3	2	I	1	0	1491	1	Ⴉ	cut_ei_stereo_44KHz.wav
1	7	2	2	1	C	1	1	1248	1	Ⴔ	cut_s_stereo_44KHz.wav
1	8	1	1	1	C	1	1	1281	1	Ⴖ	cut_oei_stereo_44KHz.wav
1	9	4	3	2	I	1	0	1128	1	Ⴉ	cut_ei_stereo_44KHz.wav
1	10	1	1	1	C	1	1	991	1	Ⴖ	cut_oei_stereo_44KHz.wav
1	11	3	3	2	I	1	0	942	1	Ⴒ	cut_ei_stereo_44KHz.wav
1	12	2	2	1	C	1	1	1737	1	Ⴔ	cut_s_stereo_44KHz.wav
1	13	4	4	2	I	0	0	0	0	Ⴉ	cut_f_stereo_44KHz.wav
1	14	2	1	0	C	2	1	1301	1	Ⴔ	cut_oei_stereo_44KHz.wav
1	15	3	4	2	I	2	0	1293	0	Ⴒ	cut_f_stereo_44KHz.wav
1	16	1	2	0	C	2	1	1707	1	Ⴖ	cut_s_stereo_44KHz.wav
1	17	4	4	2	I	1	0	1574	1	Ⴉ	cut_f_stereo_44KHz.wav
1	18	3	3	2	I	1	0	1209	0	Ⴒ	cut_ei_stereo_44KHz.wav
1	19	2	2	1	C	1	1	1239	1	Ⴔ	cut_s_stereo_44KHz.wav
1	20	1	1	1	C	1	1	1187	1	Ⴖ	cut_oei_stereo_44KHz.wav
1	21	2	1	0	C	2	1	1406	1	Ⴔ	cut_oei_stereo_44KHz.wav
1	22	1	2	0	C	2	1	1347	1	Ⴖ	cut_s_stereo_44KHz.wav
1	23	3	4	2	I	2	0	954	0	Ⴒ	cut_f_stereo_44KHz.wav
1	24	4	3	2	I	1	0	1193	1	Ⴉ	cut_ei_stereo_44KHz.wav
1	25	2	2	1	C	1	1	1396	1	Ⴔ	cut_s_stereo_44KHz.wav
1	26	3	3	2	I	0	0	0	0	Ⴒ	cut_ei_stereo_44KHz.wav
1	27	4	4	2	I	1	0	1429	1	Ⴉ	cut_f_stereo_44KHz.wav
1	28	1	2	0	C	2	1	1220	1	Ⴖ	cut_s_stereo_44KHz.wav
1	29	4	3	2	I	2	0	1273	1	Ⴉ	cut_ei_stereo_44KHz.wav
1	30	1	1	1	C	1	1	1219	1	Ⴖ	cut_oei_stereo_44KHz.wav
1	31	2	1	0	C	2	1	1251	1	Ⴔ	cut_oei_stereo_44KHz.wav
1	32	3	4	2	I	0	0	0	0	Ⴒ	cut_f_stereo_44KHz.wav
1	33	4	3	2	I	1	0	1198	1	Ⴉ	cut_ei_stereo_44KHz.wav
1	34	2	2	1	C	1	1	1508	1	Ⴔ	cut_s_stereo_44KHz.wav
1	35	3	4	2	I	2	0	1906	0	Ⴒ	cut_f_stereo_44KHz.wav
1	36	1	1	1	C	1	1	1307	1	Ⴖ	cut_oei_stereo_44KHz.wav
1	37	3	3	2	I	0	0	0	0	Ⴒ	cut_ei_stereo_44KHz.wav
1	38	4	4	2	I	2	0	1333	1	Ⴉ	cut_f_stereo_44KHz.wav
1	39	1	2	0	C	2	1	1266	1	Ⴖ	cut_s_stereo_44KHz.wav
1	40	2	1	0	C	2	1	1550	1	Ⴔ	cut_oei_stereo_44KHz.wav
1	41	4	3	2	I	2	0	1298	1	Ⴉ	cut_ei_stereo_44KHz.wav
1	42	1	1	1	C	2	0	1109	0	Ⴖ	cut_oei_stereo_44KHz.wav
1	43	3	3	2	I	1	0	1934	1	Ⴒ	cut_ei_stereo_44KHz.wav
1	44	2	1	0	C	2	1	1734	1	Ⴔ	cut_oei_stereo_44KHz.wav
1	45	1	2	0	C	2	1	1275	1	Ⴖ	cut_s_stereo_44KHz.wav
1	46	3	4	2	I	1	0	1718	1	Ⴒ	cut_f_stereo_44KHz.wav
1	47	2	2	1	C	0	0	0	0	Ⴔ	cut_s_stereo_44KHz.wav
1	48	4	4	2	I	1	0	1017	1	Ⴉ	cut_f_stereo_44KHz.wav
1	49	3	4	2	I	2	0	1370	0	Ⴒ	cut_f_stereo_44KHz.wav
1	50	4	4	2	I	1	0	1527	0	Ⴉ	cut_f_stereo_44KHz.wav
1	51	1	1	1	C	1	1	1375	1	Ⴖ	cut_oei_stereo_44KHz.wav
1	52	2	2	1	C	1	1	1196	1	Ⴔ	cut_s_stereo_44KHz.wav
1	53	1	2	0	C	2	1	1384	1	Ⴖ	cut_s_stereo_44KHz.wav
1	54	4	3	2	I	1	0	1227	0	Ⴉ	cut_ei_stereo_44KHz.wav
1	55	3	3	2	I	1	0	1322	1	Ⴒ	cut_ei_stereo_44KHz.wav
1	56	2	1	0	C	2	1	1342	1	Ⴔ	cut_oei_stereo_44KHz.wav
1	57	4	3	2	I	1	0	753	1	Ⴉ	cut_ei_stereo_44KHz.wav
1	58	1	2	0	C	2	1	930	1	Ⴖ	cut_s_stereo_44KHz.wav
1	59	3	4	2	I	0	0	0	0	Ⴒ	cut_f_stereo_44KHz.wav
1	60	2	1	0	C	2	1	1363	1	Ⴔ	cut_oei_stereo_44KHz.wav
1	61	3	3	2	I	0	0	0	0	Ⴒ	cut_ei_stereo_44KHz.wav
1	62	1	1	1	C	2	0	802	0	Ⴖ	cut_oei_stereo_44KHz.wav
1	63	4	4	2	I	1	0	1673	1	Ⴉ	cut_f_stereo_44KHz.wav
1	64	2	2	1	C	1	1	1074	1	Ⴔ	cut_s_stereo_44KHz.wav
1	65	3	4	2	I	1	0	1062	1	Ⴒ	cut_f_stereo_44KHz.wav
1	66	1	2	0	C	2	1	1138	1	Ⴖ	cut_s_stereo_44KHz.wav
1	67	4	3	2	I	0	0	0	0	Ⴉ	cut_ei_stereo_44KHz.wav
1	68	2	2	1	C	2	0	1056	0	Ⴔ	cut_s_stereo_44KHz.wav
1	69	1	1	1	C	1	1	1136	1	Ⴖ	cut_oei_stereo_44KHz.wav
1	70	3	3	2	I	1	0	693	0	Ⴒ	cut_ei_stereo_44KHz.wav
1	71	2	1	0	C	2	1	1874	1	Ⴔ	cut_oei_stereo_44KHz.wav
1	72	4	4	2	I	1	0	862	1	Ⴉ	cut_f_stereo_44KHz.wav
1	73	3	3	2	I	2	0	1091	1	Ⴒ	cut_ei_stereo_44KHz.wav
1	74	4	3	2	I	1	0	1180	0	Ⴉ	cut_ei_stereo_44KHz.wav
1	75	2	1	0	C	2	1	840	1	Ⴔ	cut_oei_stereo_44KHz.wav
1	76	1	2	0	C	2	1	872	1	Ⴖ	cut_s_stereo_44KHz.wav
1	77	2	2	1	C	1	1	1087	1	Ⴔ	cut_s_stereo_44KHz.wav
1	78	1	1	1	C	1	1	1703	1	Ⴖ	cut_oei_stereo_44KHz.wav
1	79	4	4	2	I	1	0	1610	1	Ⴉ	cut_f_stereo_44KHz.wav
1	80	3	4	2	I	2	0	1435	1	Ⴒ	cut_f_stereo_44KHz.wav
1	81	2	2	1	C	1	1	1690	1	Ⴔ	cut_s_stereo_44KHz.wav
1	82	1	1	1	C	1	1	1008	1	Ⴖ	cut_oei_stereo_44KHz.wav
1	83	4	4	2	I	1	0	1667	1	Ⴉ	cut_f_stereo_44KHz.wav
1	84	3	4	2	I	2	0	1136	1	Ⴒ	cut_f_stereo_44KHz.wav
1	85	1	2	0	C	2	1	1293	1	Ⴖ	cut_s_stereo_44KHz.wav
1	86	4	3	2	I	1	0	1671	0	Ⴉ	cut_ei_stereo_44KHz.wav
1	87	3	3	2	I	1	0	1183	1	Ⴒ	cut_ei_stereo_44KHz.wav
1	88	2	1	0	C	2	1	1612	1	Ⴔ	cut_oei_stereo_44KHz.wav
1	89	3	3	2	I	2	0	1116	1	Ⴒ	cut_ei_stereo_44KHz.wav
1	90	1	1	1	C	1	1	998	1	Ⴖ	cut_oei_stereo_44KHz.wav
1	91	2	2	1	C	1	1	1158	1	Ⴔ	cut_s_stereo_44KHz.wav
1	92	4	3	2	I	1	0	1433	1	Ⴉ	cut_ei_stereo_44KHz.wav
1	93	3	4	2	I	2	0	1056	1	Ⴒ	cut_f_stereo_44KHz.wav
1	94	4	4	2	I	1	0	1316	1	Ⴉ	cut_f_stereo_44KHz.wav
1	95	2	1	0	C	2	1	1115	1	Ⴔ	cut_oei_stereo_44KHz.wav
1	96	1	2	0	C	2	1	1025	1	Ⴖ	cut_s_stereo_44KHz.wav
1	97	2	1	0	C	2	1	1083	1	Ⴔ	cut_oei_stereo_44KHz.wav
1	98	1	1	1	C	1	1	1373	1	Ⴖ	cut_oei_stereo_44KHz.wav
1	99	3	3	2	I	2	0	1131	1	Ⴒ	cut_ei_stereo_44KHz.wav
1	100	4	3	2	I	1	0	907	1	Ⴉ	cut_ei_stereo_44KHz.wav
1	101	3	4	2	I	2	0	1004	1	Ⴒ	cut_f_stereo_44KHz.wav
1	102	2	2	1	C	1	1	1430	1	Ⴔ	cut_s_stereo_44KHz.wav
1	103	4	4	2	I	1	0	1316	1	Ⴉ	cut_f_stereo_44KHz.wav
1	104	1	2	0	C	2	1	960	1	Ⴖ	cut_s_stereo_44KHz.wav
1	105	3	4	2	I	0	0	0	0	Ⴒ	cut_f_stereo_44KHz.wav
1	106	2	2	1	C	1	1	1168	1	Ⴔ	cut_s_stereo_44KHz.wav
1	107	1	1	1	C	1	1	999	1	Ⴖ	cut_oei_stereo_44KHz.wav
1	108	4	3	2	I	2	0	850	1	Ⴉ	cut_ei_stereo_44KHz.wav
1	109	1	2	0	C	2	1	850	1	Ⴖ	cut_s_stereo_44KHz.wav
1	110	2	1	0	C	2	1	1284	1	Ⴔ	cut_oei_stereo_44KHz.wav
1	111	3	3	2	I	2	0	975	1	Ⴒ	cut_ei_stereo_44KHz.wav
1	112	4	4	2	I	1	0	1626	1	Ⴉ	cut_f_stereo_44KHz.wav
1	113	1	1	1	C	1	1	1322	1	Ⴖ	cut_oei_stereo_44KHz.wav
1	114	4	3	2	I	1	0	765	1	Ⴉ	cut_ei_stereo_44KHz.wav
1	115	2	2	1	C	1	1	967	1	Ⴔ	cut_s_stereo_44KHz.wav
1	116	3	3	2	I	1	0	1071	1	Ⴒ	cut_ei_stereo_44KHz.wav
1	117	2	1	0	C	2	1	889	1	Ⴔ	cut_oei_stereo_44KHz.wav
1	118	1	2	0	C	2	1	1412	1	Ⴖ	cut_s_stereo_44KHz.wav
1	119	4	4	2	I	1	0	1856	1	Ⴉ	cut_f_stereo_44KHz.wav
1	120	3	4	2	I	2	0	1501	1	Ⴒ	cut_f_stereo_44KHz.wav
1	121	1	1	1	C	1	1	1048	1	Ⴖ	cut_oei_stereo_44KHz.wav
1	122	4	4	2	I	1	0	1222	0	Ⴉ	cut_f_stereo_44KHz.wav
1	123	2	1	0	C	2	1	976	1	Ⴔ	cut_oei_stereo_44KHz.wav
1	124	3	4	2	I	2	0	1036	1	Ⴒ	cut_f_stereo_44KHz.wav
1	125	1	2	0	C	2	1	1243	1	Ⴖ	cut_s_stereo_44KHz.wav
1	126	3	3	2	I	2	0	994	1	Ⴒ	cut_ei_stereo_44KHz.wav
1	127	2	2	1	C	2	0	1536	0	Ⴔ	cut_s_stereo_44KHz.wav
1	128	4	3	2	I	2	0	1184	1	Ⴉ	cut_ei_stereo_44KHz.wav
1	129	1	1	1	C	1	1	1172	1	Ⴖ	cut_oei_stereo_44KHz.wav
1	130	4	3	2	I	2	0	1518	1	Ⴉ	cut_ei_stereo_44KHz.wav
1	131	3	3	2	I	2	0	1202	0	Ⴒ	cut_ei_stereo_44KHz.wav
1	132	2	2	1	C	1	1	1686	1	Ⴔ	cut_s_stereo_44KHz.wav
1	133	3	4	2	I	1	0	1116	0	Ⴒ	cut_f_stereo_44KHz.wav
1	134	2	1	0	C	2	1	1078	1	Ⴔ	cut_oei_stereo_44KHz.wav
1	135	4	4	2	I	2	0	1251	0	Ⴉ	cut_f_stereo_44KHz.wav
1	136	1	2	0	C	2	1	1319	1	Ⴖ	cut_s_stereo_44KHz.wav
1	137	3	3	2	I	2	0	1398	0	Ⴒ	cut_ei_stereo_44KHz.wav
1	138	1	2	0	C	2	1	1156	1	Ⴖ	cut_s_stereo_44KHz.wav
1	139	2	2	1	C	1	1	1113	1	Ⴔ	cut_s_stereo_44KHz.wav
1	140	4	4	2	I	2	0	1853	1	Ⴉ	cut_f_stereo_44KHz.wav
1	141	1	1	1	C	1	1	1066	1	Ⴖ	cut_oei_stereo_44KHz.wav
1	142	3	4	2	I	1	0	1507	1	Ⴒ	cut_f_stereo_44KHz.wav
1	143	4	3	2	I	1	0	1847	0	Ⴉ	cut_ei_stereo_44KHz.wav
1	144	2	1	0	C	2	1	1240	1	Ⴔ	cut_oei_stereo_44KHz.wav
1	145	3	3	2	I	2	0	1157	1	Ⴒ	cut_ei_stereo_44KHz.wav
1	146	2	1	0	C	0	0	0	0	Ⴔ	cut_oei_stereo_44KHz.wav
1	147	4	3	2	I	2	0	1035	1	Ⴉ	cut_ei_stereo_44KHz.wav
1	148	1	1	1	C	1	1	1339	1	Ⴖ	cut_oei_stereo_44KHz.wav
1	149	3	4	2	I	2	0	1050	1	Ⴒ	cut_f_stereo_44KHz.wav
1	150	4	4	2	I	1	0	1314	1	Ⴉ	cut_f_stereo_44KHz.wav
1	151	2	2	1	C	1	1	1631	1	Ⴔ	cut_s_stereo_44KHz.wav
1	152	1	2	0	C	2	1	1260	1	Ⴖ	cut_s_stereo_44KHz.wav
1	153	3	4	2	I	2	0	1138	1	Ⴒ	cut_f_stereo_44KHz.wav
1	154	2	2	1	C	1	1	1885	1	Ⴔ	cut_s_stereo_44KHz.wav
1	155	1	1	1	C	1	1	1151	1	Ⴖ	cut_oei_stereo_44KHz.wav
1	156	4	3	2	I	1	0	960	1	Ⴉ	cut_ei_stereo_44KHz.wav
1	157	2	1	0	C	2	1	1121	1	Ⴔ	cut_oei_stereo_44KHz.wav
1	158	3	3	2	I	1	0	1250	1	Ⴒ	cut_ei_stereo_44KHz.wav
1	159	4	4	2	I	2	0	1502	1	Ⴉ	cut_f_stereo_44KHz.wav
1	160	1	2	0	C	2	1	956	1	Ⴖ	cut_s_stereo_44KHz.wav
1	161	3	4	2	I	2	0	1421	1	Ⴒ	cut_f_stereo_44KHz.wav
1	162	4	3	2	I	1	0	1227	1	Ⴉ	cut_ei_stereo_44KHz.wav
1	163	1	2	0	C	2	1	937	1	Ⴖ	cut_s_stereo_44KHz.wav
1	164	2	1	0	C	2	1	1187	1	Ⴔ	cut_oei_stereo_44KHz.wav
1	165	1	1	1	C	1	1	1181	1	Ⴖ	cut_oei_stereo_44KHz.wav
1	166	3	3	2	I	0	0	0	0	Ⴒ	cut_ei_stereo_44KHz.wav
1	167	2	2	1	C	2	0	1057	0	Ⴔ	cut_s_stereo_44KHz.wav
1	168	4	4	2	I	1	0	1330	0	Ⴉ	cut_f_stereo_44KHz.wav
1	169	1	1	1	C	1	1	1528	1	Ⴖ	cut_oei_stereo_44KHz.wav
1	170	4	4	2	I	2	0	1081	1	Ⴉ	cut_f_stereo_44KHz.wav
1	171	2	1	0	C	2	1	1010	1	Ⴔ	cut_oei_stereo_44KHz.wav
1	172	3	3	2	I	2	0	724	1	Ⴒ	cut_ei_stereo_44KHz.wav
1	173	4	3	2	I	2	0	1366	1	Ⴉ	cut_ei_stereo_44KHz.wav
1	174	1	2	0	C	2	1	1390	1	Ⴖ	cut_s_stereo_44KHz.wav
1	175	3	4	2	I	1	0	1933	1	Ⴒ	cut_f_stereo_44KHz.wav
1	176	2	2	1	C	2	0	1538	0	Ⴔ	cut_s_stereo_44KHz.wav
1	177	1	2	0	C	1	0	1568	0	Ⴖ	cut_s_stereo_44KHz.wav
1	178	4	4	2	I	2	0	1421	0	Ⴉ	cut_f_stereo_44KHz.wav
1	179	3	3	2	I	2	0	993	1	Ⴒ	cut_ei_stereo_44KHz.wav
1	180	2	1	0	C	2	1	957	1	Ⴔ	cut_oei_stereo_44KHz.wav
1	181	1	1	1	C	1	1	1062	1	Ⴖ	cut_oei_stereo_44KHz.wav
1	182	2	2	1	C	1	1	1567	1	Ⴔ	cut_s_stereo_44KHz.wav
1	183	3	4	2	I	0	0	0	0	Ⴒ	cut_f_stereo_44KHz.wav
1	184	4	3	2	I	2	0	1139	1	Ⴉ	cut_ei_stereo_44KHz.wav
1	185	3	4	2	I	2	0	1353	1	Ⴒ	cut_f_stereo_44KHz.wav
1	186	1	2	0	C	2	1	853	1	Ⴖ	cut_s_stereo_44KHz.wav
1	187	2	1	0	C	2	1	1079	1	Ⴔ	cut_oei_stereo_44KHz.wav
1	188	4	4	2	I	2	0	1659	1	Ⴉ	cut_f_stereo_44KHz.wav
1	189	1	1	1	C	1	1	1304	1	Ⴖ	cut_oei_stereo_44KHz.wav
1	190	2	2	1	C	1	1	1295	1	Ⴔ	cut_s_stereo_44KHz.wav
1	191	4	3	2	I	2	0	1065	1	Ⴉ	cut_ei_stereo_44KHz.wav
1	192	3	3	2	I	2	0	840	1	Ⴒ	cut_ei_stereo_44KHz.wav
1	193	4	3	2	I	2	0	738	1	Ⴉ	cut_ei_stereo_44KHz.wav
1	194	1	1	1	C	1	1	1031	1	Ⴖ	cut_oei_stereo_44KHz.wav
1	195	2	2	1	C	1	1	1164	1	Ⴔ	cut_s_stereo_44KHz.wav
1	196	3	3	2	I	2	0	1115	1	Ⴒ	cut_ei_stereo_44KHz.wav
1	197	4	4	2	I	2	0	1648	0	Ⴉ	cut_f_stereo_44KHz.wav
1	198	1	2	0	C	2	1	911	1	Ⴖ	cut_s_stereo_44KHz.wav
1	199	3	4	2	I	1	0	1221	1	Ⴒ	cut_f_stereo_44KHz.wav
1	200	2	1	0	C	2	1	1562	1	Ⴔ	cut_oei_stereo_44KHz.wav
2	1	1	2	0	C	2	1	1413	1	Ⴁ	cut_j_stereo_44KHz.wav
2	2	2	2	1	C	1	1	1030	1	Ⴇ	cut_j_stereo_44KHz.wav
2	3	4	4	2	I	2	0	995	1	Ⴡ	cut_r_stereo_44KHz.wav
2	4	3	4	2	I	1	0	1011	0	Ⴟ	cut_r_stereo_44KHz.wav
2	5	4	3	2	I	1	0	1500	1	Ⴡ	cut_ui_stereo_44KHz.wav
2	6	1	1	1	C	1	1	1581	1	Ⴁ	cut_n_stereo_44KHz.wav
2	7	3	3	2	I	2	0	909	1	Ⴟ	cut_ui_stereo_44KHz.wav
2	8	2	1	0	C	1	0	1222	0	Ⴇ	cut_n_stereo_44KHz.wav
2	9	3	4	2	I	2	0	948	0	Ⴟ	cut_r_stereo_44KHz.wav
2	10	2	2	1	C	1	1	1211	1	Ⴇ	cut_j_stereo_44KHz.wav
2	11	4	4	2	I	2	0	755	1	Ⴡ	cut_r_stereo_44KHz.wav
2	12	1	2	0	C	1	0	930	0	Ⴁ	cut_j_stereo_44KHz.wav
2	13	2	1	0	C	1	0	956	0	Ⴇ	cut_n_stereo_44KHz.wav
2	14	3	3	2	I	1	0	1032	1	Ⴟ	cut_ui_stereo_44KHz.wav
2	15	1	1	1	C	1	1	1240	1	Ⴁ	cut_n_stereo_44KHz.wav
2	16	4	3	2	I	1	0	901	0	Ⴡ	cut_ui_stereo_44KHz.wav
2	17	3	4	2	I	2	0	788	1	Ⴟ	cut_r_stereo_44KHz.wav
2	18	1	2	0	C	1	0	1419	0	Ⴁ	cut_j_stereo_44KHz.wav
2	19	4	4	2	I	2	0	1295	1	Ⴡ	cut_r_stereo_44KHz.wav
2	20	2	2	1	C	1	1	1276	1	Ⴇ	cut_j_stereo_44KHz.wav
2	21	4	3	2	I	2	0	946	1	Ⴡ	cut_ui_stereo_44KHz.wav
2	22	2	1	0	C	1	0	1412	0	Ⴇ	cut_n_stereo_44KHz.wav
2	23	1	1	1	C	1	1	1358	1	Ⴁ	cut_n_stereo_44KHz.wav
2	24	3	3	2	I	2	0	1053	1	Ⴟ	cut_ui_stereo_44KHz.wav
2	25	1	2	0	C	1	0	1595	0	Ⴁ	cut_j_stereo_44KHz.wav
2	26	4	4	2	I	2	0	1270	1	Ⴡ	cut_r_stereo_44KHz.wav
2	27	3	3	2	I	1	0	1347	0	Ⴟ	cut_ui_stereo_44KHz.wav
2	28	2	2	1	C	1	1	1036	1	Ⴇ	cut_j_stereo_44KHz.wav
2	29	1	1	1	C	1	1	1521	1	Ⴁ	cut_n_stereo_44KHz.wav
2	30	4	3	2	I	2	0	1227	1	Ⴡ	cut_ui_stereo_44KHz.wav
2	31	3	4	2	I	2	0	1150	1	Ⴟ	cut_r_stereo_44KHz.wav
2	32	2	1	0	C	1	0	1783	0	Ⴇ	cut_n_stereo_44KHz.wav
2	33	3	3	2	I	2	0	864	0	Ⴟ	cut_ui_stereo_44KHz.wav
2	34	1	2	0	C	2	1	1525	1	Ⴁ	cut_j_stereo_44KHz.wav
2	35	4	3	2	I	2	0	1234	1	Ⴡ	cut_ui_stereo_44KHz.wav
2	36	2	1	0	C	2	1	1329	1	Ⴇ	cut_n_stereo_44KHz.wav
2	37	1	1	1	C	1	1	1287	1	Ⴁ	cut_n_stereo_44KHz.wav
2	38	3	4	2	I	2	0	1067	1	Ⴟ	cut_r_stereo_44KHz.wav
2	39	2	2	1	C	1	1	1718	1	Ⴇ	cut_j_stereo_44KHz.wav
2	40	4	4	2	I	2	0	800	0	Ⴡ	cut_r_stereo_44KHz.wav
2	41	1	2	0	C	2	1	1239	1	Ⴁ	cut_j_stereo_44KHz.wav
2	42	4	3	2	I	2	0	989	1	Ⴡ	cut_ui_stereo_44KHz.wav
2	43	2	2	1	C	0	0	0	0	Ⴇ	cut_j_stereo_44KHz.wav
2	44	3	4	2	I	2	0	859	1	Ⴟ	cut_r_stereo_44KHz.wav
2	45	4	4	2	I	1	0	1335	1	Ⴡ	cut_r_stereo_44KHz.wav
2	46	1	1	1	C	0	0	0	0	Ⴁ	cut_n_stereo_44KHz.wav
2	47	2	1	0	C	2	1	1418	1	Ⴇ	cut_n_stereo_44KHz.wav
2	48	3	3	2	I	2	0	1887	1	Ⴟ	cut_ui_stereo_44KHz.wav
2	49	2	2	1	C	1	1	1209	1	Ⴇ	cut_j_stereo_44KHz.wav
2	50	1	1	1	C	1	1	1391	1	Ⴁ	cut_n_stereo_44KHz.wav
2	51	3	3	2	I	2	0	1298	1	Ⴟ	cut_ui_stereo_44KHz.wav
2	52	4	4	2	I	2	0	1236	1	Ⴡ	cut_r_stereo_44KHz.wav
2	53	2	1	0	C	2	1	1110	1	Ⴇ	cut_n_stereo_44KHz.wav
2	54	3	4	2	I	2	0	1056	0	Ⴟ	cut_r_stereo_44KHz.wav
2	55	4	3	2	I	2	0	1360	0	Ⴡ	cut_ui_stereo_44KHz.wav
2	56	1	2	0	C	2	1	1306	1	Ⴁ	cut_j_stereo_44KHz.wav
2	57	4	4	2	I	2	0	985	1	Ⴡ	cut_r_stereo_44KHz.wav
2	58	2	2	1	C	1	1	1356	1	Ⴇ	cut_j_stereo_44KHz.wav
2	59	1	1	1	C	1	1	1125	1	Ⴁ	cut_n_stereo_44KHz.wav
2	60	3	3	2	I	2	0	1104	1	Ⴟ	cut_ui_stereo_44KHz.wav
2	61	4	3	2	I	2	0	944	1	Ⴡ	cut_ui_stereo_44KHz.wav
2	62	2	1	0	C	2	1	1276	1	Ⴇ	cut_n_stereo_44KHz.wav
2	63	1	2	0	C	2	1	1250	1	Ⴁ	cut_j_stereo_44KHz.wav
2	64	3	4	2	I	2	0	1288	1	Ⴟ	cut_r_stereo_44KHz.wav
2	65	2	2	1	C	1	1	1592	1	Ⴇ	cut_j_stereo_44KHz.wav
2	66	1	2	0	C	2	1	1813	1	Ⴁ	cut_j_stereo_44KHz.wav
2	67	4	4	2	I	2	0	938	1	Ⴡ	cut_r_stereo_44KHz.wav
2	68	3	3	2	I	2	0	1048	1	Ⴟ	cut_ui_stereo_44KHz.wav
2	69	4	3	2	I	2	0	813	1	Ⴡ	cut_ui_stereo_44KHz.wav
2	70	1	1	1	C	1	1	1459	1	Ⴁ	cut_n_stereo_44KHz.wav
2	71	2	1	0	C	2	1	810	1	Ⴇ	cut_n_stereo_44KHz.wav
2	72	3	4	2	I	2	0	723	1	Ⴟ	cut_r_stereo_44KHz.wav
2	73	2	2	1	C	1	1	1001	1	Ⴇ	cut_j_stereo_44KHz.wav
2	74	1	2	0	C	2	1	948	1	Ⴁ	cut_j_stereo_44KHz.wav
2	75	4	4	2	I	2	0	773	1	Ⴡ	cut_r_stereo_44KHz.wav
2	76	3	3	2	I	2	0	933	1	Ⴟ	cut_ui_stereo_44KHz.wav
2	77	2	1	0	C	2	1	1056	1	Ⴇ	cut_n_stereo_44KHz.wav
2	78	3	4	2	I	2	0	772	1	Ⴟ	cut_r_stereo_44KHz.wav
2	79	4	3	2	I	2	0	1045	0	Ⴡ	cut_ui_stereo_44KHz.wav
2	80	1	1	1	C	1	1	1750	1	Ⴁ	cut_n_stereo_44KHz.wav
2	81	2	2	1	C	1	1	1511	1	Ⴇ	cut_j_stereo_44KHz.wav
2	82	4	3	2	I	2	0	813	1	Ⴡ	cut_ui_stereo_44KHz.wav
2	83	1	1	1	C	1	1	1316	1	Ⴁ	cut_n_stereo_44KHz.wav
2	84	3	4	2	I	2	0	1389	1	Ⴟ	cut_r_stereo_44KHz.wav
2	85	1	2	0	C	2	1	1526	1	Ⴁ	cut_j_stereo_44KHz.wav
2	86	3	3	2	I	2	0	1521	0	Ⴟ	cut_ui_stereo_44KHz.wav
2	87	2	1	0	C	2	1	1274	1	Ⴇ	cut_n_stereo_44KHz.wav
2	88	4	4	2	I	2	0	848	1	Ⴡ	cut_r_stereo_44KHz.wav
2	89	2	1	0	C	2	1	1305	1	Ⴇ	cut_n_stereo_44KHz.wav
2	90	3	3	2	I	2	0	1357	1	Ⴟ	cut_ui_stereo_44KHz.wav
2	91	4	3	2	I	2	0	998	0	Ⴡ	cut_ui_stereo_44KHz.wav
2	92	1	1	1	C	1	1	1620	1	Ⴁ	cut_n_stereo_44KHz.wav
2	93	4	4	2	I	1	0	1190	1	Ⴡ	cut_r_stereo_44KHz.wav
2	94	1	2	0	C	2	1	1141	1	Ⴁ	cut_j_stereo_44KHz.wav
2	95	2	2	1	C	2	0	1381	0	Ⴇ	cut_j_stereo_44KHz.wav
2	96	3	4	2	I	2	0	1112	1	Ⴟ	cut_r_stereo_44KHz.wav
2	97	2	2	1	C	1	1	1415	1	Ⴇ	cut_j_stereo_44KHz.wav
2	98	3	4	2	I	2	0	1298	1	Ⴟ	cut_r_stereo_44KHz.wav
2	99	4	3	2	I	2	0	1478	1	Ⴡ	cut_ui_stereo_44KHz.wav
2	100	1	2	0	C	2	1	1051	1	Ⴁ	cut_j_stereo_44KHz.wav
2	101	4	4	2	I	1	0	1187	0	Ⴡ	cut_r_stereo_44KHz.wav
2	102	1	1	1	C	1	1	1297	1	Ⴁ	cut_n_stereo_44KHz.wav
2	103	2	1	0	C	2	1	1326	1	Ⴇ	cut_n_stereo_44KHz.wav
2	104	3	3	2	I	1	0	1137	1	Ⴟ	cut_ui_stereo_44KHz.wav
2	105	4	4	2	I	0	0	0	0	Ⴡ	cut_r_stereo_44KHz.wav
2	106	1	1	1	C	1	1	1413	1	Ⴁ	cut_n_stereo_44KHz.wav
2	107	2	1	0	C	2	1	1769	1	Ⴇ	cut_n_stereo_44KHz.wav
2	108	3	3	2	I	2	0	1134	1	Ⴟ	cut_ui_stereo_44KHz.wav
2	109	2	2	1	C	1	1	979	1	Ⴇ	cut_j_stereo_44KHz.wav
2	110	4	3	2	I	2	0	1121	1	Ⴡ	cut_ui_stereo_44KHz.wav
2	111	1	2	0	C	0	0	0	0	Ⴁ	cut_j_stereo_44KHz.wav
2	112	3	4	2	I	1	0	1116	1	Ⴟ	cut_r_stereo_44KHz.wav
2	113	2	1	0	C	2	1	846	1	Ⴇ	cut_n_stereo_44KHz.wav
2	114	4	3	2	I	2	0	1048	1	Ⴡ	cut_ui_stereo_44KHz.wav
2	115	1	1	1	C	2	0	1133	0	Ⴁ	cut_n_stereo_44KHz.wav
2	116	3	4	2	I	2	0	977	1	Ⴟ	cut_r_stereo_44KHz.wav
2	117	1	2	0	C	2	1	798	1	Ⴁ	cut_j_stereo_44KHz.wav
2	118	3	3	2	I	2	0	1445	0	Ⴟ	cut_ui_stereo_44KHz.wav
2	119	2	2	1	C	2	0	1465	0	Ⴇ	cut_j_stereo_44KHz.wav
2	120	4	4	2	I	0	0	0	0	Ⴡ	cut_r_stereo_44KHz.wav
2	121	3	4	2	I	2	0	1542	1	Ⴟ	cut_r_stereo_44KHz.wav
2	122	1	1	1	C	0	0	0	0	Ⴁ	cut_n_stereo_44KHz.wav
2	123	2	2	1	C	0	0	0	0	Ⴇ	cut_j_stereo_44KHz.wav
2	124	4	4	2	I	2	0	1112	1	Ⴡ	cut_r_stereo_44KHz.wav
2	125	3	3	2	I	1	0	1667	1	Ⴟ	cut_ui_stereo_44KHz.wav
2	126	2	1	0	C	2	1	1147	1	Ⴇ	cut_n_stereo_44KHz.wav
2	127	1	2	0	C	2	1	1129	1	Ⴁ	cut_j_stereo_44KHz.wav
2	128	4	3	2	I	2	0	1133	0	Ⴡ	cut_ui_stereo_44KHz.wav
2	129	2	2	1	C	1	1	1916	1	Ⴇ	cut_j_stereo_44KHz.wav
2	130	3	4	2	I	0	0	0	0	Ⴟ	cut_r_stereo_44KHz.wav
2	131	1	1	1	C	2	0	1036	0	Ⴁ	cut_n_stereo_44KHz.wav
2	132	4	4	2	I	2	0	1289	1	Ⴡ	cut_r_stereo_44KHz.wav
2	133	2	1	0	C	2	1	1405	1	Ⴇ	cut_n_stereo_44KHz.wav
2	134	4	3	2	I	2	0	948	0	Ⴡ	cut_ui_stereo_44KHz.wav
2	135	1	2	0	C	2	1	1741	1	Ⴁ	cut_j_stereo_44KHz.wav
2	136	3	3	2	I	1	0	1639	1	Ⴟ	cut_ui_stereo_44KHz.wav
2	137	2	1	0	C	2	1	1585	1	Ⴇ	cut_n_stereo_44KHz.wav
2	138	4	4	2	I	1	0	1341	1	Ⴡ	cut_r_stereo_44KHz.wav
2	139	3	4	2	I	1	0	1248	0	Ⴟ	cut_r_stereo_44KHz.wav
2	140	1	1	1	C	1	1	1700	1	Ⴁ	cut_n_stereo_44KHz.wav
2	141	2	2	1	C	1	1	1617	1	Ⴇ	cut_j_stereo_44KHz.wav
2	142	3	3	2	I	2	0	1515	1	Ⴟ	cut_ui_stereo_44KHz.wav
2	143	4	3	2	I	1	0	1159	1	Ⴡ	cut_ui_stereo_44KHz.wav
2	144	1	2	0	C	2	1	1294	1	Ⴁ	cut_j_stereo_44KHz.wav
2	145	3	4	2	I	2	0	1357	1	Ⴟ	cut_r_stereo_44KHz.wav
2	146	1	1	1	C	1	1	1371	1	Ⴁ	cut_n_stereo_44KHz.wav
2	147	2	1	0	C	2	1	1187	1	Ⴇ	cut_n_stereo_44KHz.wav
2	148	4	3	2	I	2	0	1432	1	Ⴡ	cut_ui_stereo_44KHz.wav
2	149	3	3	2	I	1	0	1239	1	Ⴟ	cut_ui_stereo_44KHz.wav
2	150	1	2	0	C	2	1	1755	1	Ⴁ	cut_j_stereo_44KHz.wav
2	151	4	4	2	I	2	0	766	1	Ⴡ	cut_r_stereo_44KHz.wav
2	152	2	2	1	C	1	1	1129	1	Ⴇ	cut_j_stereo_44KHz.wav
2	153	4	3	2	I	2	0	750	1	Ⴡ	cut_ui_stereo_44KHz.wav
2	154	3	4	2	I	1	0	788	1	Ⴟ	cut_r_stereo_44KHz.wav
2	155	2	1	0	C	2	1	1285	1	Ⴇ	cut_n_stereo_44KHz.wav
2	156	1	2	0	C	2	1	690	1	Ⴁ	cut_j_stereo_44KHz.wav
2	157	4	4	2	I	2	0	1041	0	Ⴡ	cut_r_stereo_44KHz.wav
2	158	1	1	1	C	2	0	1054	0	Ⴁ	cut_n_stereo_44KHz.wav
2	159	3	3	2	I	2	0	1102	0	Ⴟ	cut_ui_stereo_44KHz.wav
2	160	2	2	1	C	2	0	1376	0	Ⴇ	cut_j_stereo_44KHz.wav
2	161	4	4	2	I	1	0	1452	1	Ⴡ	cut_r_stereo_44KHz.wav
2	162	1	1	1	C	2	0	1625	0	Ⴁ	cut_n_stereo_44KHz.wav
2	163	2	1	0	C	2	1	1314	1	Ⴇ	cut_n_stereo_44KHz.wav
2	164	3	4	2	I	2	0	1572	1	Ⴟ	cut_r_stereo_44KHz.wav
2	165	1	2	0	C	2	1	1915	1	Ⴁ	cut_j_stereo_44KHz.wav
2	166	2	2	1	C	1	1	1717	1	Ⴇ	cut_j_stereo_44KHz.wav
2	167	3	3	2	I	0	0	0	0	Ⴟ	cut_ui_stereo_44KHz.wav
2	168	4	3	2	I	2	0	1319	0	Ⴡ	cut_ui_stereo_44KHz.wav
2	169	1	1	1	C	2	0	1838	0	Ⴁ	cut_n_stereo_44KHz.wav
2	170	2	1	0	C	2	1	916	1	Ⴇ	cut_n_stereo_44KHz.wav
2	171	4	3	2	I	2	0	1154	1	Ⴡ	cut_ui_stereo_44KHz.wav
2	172	3	3	2	I	1	0	1347	1	Ⴟ	cut_ui_stereo_44KHz.wav
2	173	1	2	0	C	2	1	1185	1	Ⴁ	cut_j_stereo_44KHz.wav
2	174	4	4	2	I	2	0	1550	1	Ⴡ	cut_r_stereo_44KHz.wav
2	175	2	2	1	C	2	0	1977	0	Ⴇ	cut_j_stereo_44KHz.wav
2	176	3	4	2	I	2	0	1429	1	Ⴟ	cut_r_stereo_44KHz.wav
2	177	2	1	0	C	2	1	1406	1	Ⴇ	cut_n_stereo_44KHz.wav
2	178	1	2	0	C	2	1	1711	1	Ⴁ	cut_j_stereo_44KHz.wav
2	179	4	4	2	I	2	0	1131	1	Ⴡ	cut_r_stereo_44KHz.wav
2	180	3	4	2	I	1	0	1215	0	Ⴟ	cut_r_stereo_44KHz.wav
2	181	1	1	1	C	2	0	852	0	Ⴁ	cut_n_stereo_44KHz.wav
2	182	2	2	1	C	2	0	1121	0	Ⴇ	cut_j_stereo_44KHz.wav
2	183	4	3	2	I	2	0	1926	1	Ⴡ	cut_ui_stereo_44KHz.wav
2	184	3	3	2	I	1	0	1267	1	Ⴟ	cut_ui_stereo_44KHz.wav
2	185	2	2	1	C	1	1	1439	1	Ⴇ	cut_j_stereo_44KHz.wav
2	186	4	4	2	I	2	0	861	1	Ⴡ	cut_r_stereo_44KHz.wav
2	187	3	4	2	I	2	0	1313	1	Ⴟ	cut_r_stereo_44KHz.wav
2	188	1	2	0	C	2	1	821	1	Ⴁ	cut_j_stereo_44KHz.wav
2	189	2	1	0	C	2	1	1906	1	Ⴇ	cut_n_stereo_44KHz.wav
2	190	4	3	2	I	2	0	1218	1	Ⴡ	cut_ui_stereo_44KHz.wav
2	191	1	1	1	C	1	1	1952	1	Ⴁ	cut_n_stereo_44KHz.wav
2	192	3	3	2	I	2	0	1351	1	Ⴟ	cut_ui_stereo_44KHz.wav
2	193	2	1	0	C	0	0	0	0	Ⴇ	cut_n_stereo_44KHz.wav
2	194	1	1	1	C	1	1	1051	1	Ⴁ	cut_n_stereo_44KHz.wav
2	195	3	4	2	I	2	0	1292	1	Ⴟ	cut_r_stereo_44KHz.wav
2	196	4	3	2	I	2	0	1431	1	Ⴡ	cut_ui_stereo_44KHz.wav
2	197	2	2	1	C	1	1	1016	1	Ⴇ	cut_j_stereo_44KHz.wav
2	198	1	2	0	C	2	1	1104	1	Ⴁ	cut_j_stereo_44KHz.wav
2	199	4	4	2	I	2	0	849	1	Ⴡ	cut_r_stereo_44KHz.wav
2	200	3	3	2	I	2	0	870	1	Ⴟ	cut_ui_stereo_44KHz.wav
3	1	2	2	1	C	2	0	1348	0	Ⴃ	cut_u_stereo_44KHz.wav
3	2	4	4	2	I	2	0	1486	1	Ⴂ	cut_o_stereo_44KHz.wav
3	3	3	4	2	I	1	0	1205	1	Ⴜ	cut_o_stereo_44KHz.wav
3	4	1	2	0	C	2	1	1207	1	Ⴊ	cut_u_stereo_44KHz.wav
3	5	3	3	2	I	2	0	1056	1	Ⴜ	cut_k_stereo_44KHz.wav
3	6	4	3	2	I	1	0	1047	0	Ⴂ	cut_k_stereo_44KHz.wav
3	7	1	1	1	C	2	0	1178	0	Ⴊ	cut_a_stereo_44KHz.wav
3	8	2	1	0	C	2	1	1335	1	Ⴃ	cut_a_stereo_44KHz.wav
3	9	4	4	2	I	2	0	1959	1	Ⴂ	cut_o_stereo_44KHz.wav
3	10	2	2	1	C	1	1	1737	1	Ⴃ	cut_u_stereo_44KHz.wav
3	11	3	4	2	I	1	0	1477	1	Ⴜ	cut_o_stereo_44KHz.wav
3	12	1	2	0	C	2	1	1465	1	Ⴊ	cut_u_stereo_44KHz.wav
3	13	3	3	2	I	2	0	875	1	Ⴜ	cut_k_stereo_44KHz.wav
3	14	2	1	0	C	2	1	1305	1	Ⴃ	cut_a_stereo_44KHz.wav
3	15	1	1	1	C	1	1	1356	1	Ⴊ	cut_a_stereo_44KHz.wav
3	16	4	3	2	I	1	0	1339	0	Ⴂ	cut_k_stereo_44KHz.wav
3	17	3	4	2	I	1	0	1394	1	Ⴜ	cut_o_stereo_44KHz.wav
3	18	4	3	2	I	2	0	914	1	Ⴂ	cut_k_stereo_44KHz.wav
3	19	1	2	0	C	2	1	1298	1	Ⴊ	cut_u_stereo_44KHz.wav
3	20	2	1	0	C	2	1	1181	1	Ⴃ	cut_a_stereo_44KHz.wav
3	21	4	4	2	I	2	0	895	1	Ⴂ	cut_o_stereo_44KHz.wav
3	22	3	3	2	I	2	0	816	1	Ⴜ	cut_k_stereo_44KHz.wav
3	23	1	1	1	C	2	0	1085	0	Ⴊ	cut_a_stereo_44KHz.wav
3	24	2	2	1	C	1	1	1607	1	Ⴃ	cut_u_stereo_44KHz.wav
3	25	3	4	2	I	2	0	1800	1	Ⴜ	cut_o_stereo_44KHz.wav
3	26	1	2	0	C	2	1	1233	1	Ⴊ	cut_u_stereo_44KHz.wav
3	27	4	4	2	I	2	0	763	1	Ⴂ	cut_o_stereo_44KHz.wav
3	28	2	2	1	C	1	1	1463	1	Ⴃ	cut_u_stereo_44KHz.wav
3	29	4	3	2	I	2	0	766	1	Ⴂ	cut_k_stereo_44KHz.wav
3	30	3	3	2	I	2	0	1620	1	Ⴜ	cut_k_stereo_44KHz.wav
3	31	2	1	0	C	2	1	1839	1	Ⴃ	cut_a_stereo_44KHz.wav
3	32	1	1	1	C	1	1	1628	1	Ⴊ	cut_a_stereo_44KHz.wav
3	33	3	4	2	I	2	0	1220	1	Ⴜ	cut_o_stereo_44KHz.wav
3	34	2	2	1	C	1	1	1298	1	Ⴃ	cut_u_stereo_44KHz.wav
3	35	4	3	2	I	2	0	780	1	Ⴂ	cut_k_stereo_44KHz.wav
3	36	1	1	1	C	2	0	1631	0	Ⴊ	cut_a_stereo_44KHz.wav
3	37	4	4	2	I	2	0	904	1	Ⴂ	cut_o_stereo_44KHz.wav
3	38	3	3	2	I	2	0	978	1	Ⴜ	cut_k_stereo_44KHz.wav
3	39	1	2	0	C	2	1	1160	1	Ⴊ	cut_u_stereo_44KHz.wav
3	40	2	1	0	C	2	1	482	1	Ⴃ	cut_a_stereo_44KHz.wav
3	41	4	3	2	I	2	0	632	0	Ⴂ	cut_k_stereo_44KHz.wav
3	42	1	2	0	C	2	1	808	1	Ⴊ	cut_u_stereo_44KHz.wav
3	43	2	2	1	C	1	1	808	1	Ⴃ	cut_u_stereo_44KHz.wav
3	44	3	4	2	I	2	0	823	0	Ⴜ	cut_o_stereo_44KHz.wav
3	45	1	1	1	C	1	1	1130	1	Ⴊ	cut_a_stereo_44KHz.wav
3	46	3	3	2	I	2	0	1024	1	Ⴜ	cut_k_stereo_44KHz.wav
3	47	4	4	2	I	2	0	793	1	Ⴂ	cut_o_stereo_44KHz.wav
3	48	2	1	0	C	2	1	1332	1	Ⴃ	cut_a_stereo_44KHz.wav
3	49	4	4	2	I	2	0	1201	1	Ⴂ	cut_o_stereo_44KHz.wav
3	50	3	4	2	I	2	0	1198	0	Ⴜ	cut_o_stereo_44KHz.wav
3	51	2	2	1	C	2	0	1799	0	Ⴃ	cut_u_stereo_44KHz.wav
3	52	1	1	1	C	1	1	1113	1	Ⴊ	cut_a_stereo_44KHz.wav
3	53	4	3	2	I	2	0	1320	1	Ⴂ	cut_k_stereo_44KHz.wav
3	54	2	1	0	C	2	1	1028	1	Ⴃ	cut_a_stereo_44KHz.wav
3	55	3	3	2	I	2	0	1027	1	Ⴜ	cut_k_stereo_44KHz.wav
3	56	1	2	0	C	2	1	1119	1	Ⴊ	cut_u_stereo_44KHz.wav
3	57	3	4	2	I	2	0	1156	1	Ⴜ	cut_o_stereo_44KHz.wav
3	58	4	3	2	I	2	0	956	1	Ⴂ	cut_k_stereo_44KHz.wav
3	59	1	1	1	C	2	0	1055	0	Ⴊ	cut_a_stereo_44KHz.wav
3	60	2	1	0	C	2	1	829	1	Ⴃ	cut_a_stereo_44KHz.wav
3	61	3	3	2	I	2	0	829	1	Ⴜ	cut_k_stereo_44KHz.wav
3	62	1	2	0	C	2	1	1412	1	Ⴊ	cut_u_stereo_44KHz.wav
3	63	2	2	1	C	1	1	1406	1	Ⴃ	cut_u_stereo_44KHz.wav
3	64	4	4	2	I	2	0	864	1	Ⴂ	cut_o_stereo_44KHz.wav
3	65	2	2	1	C	1	1	1694	1	Ⴃ	cut_u_stereo_44KHz.wav
3	66	3	4	2	I	2	0	1725	0	Ⴜ	cut_o_stereo_44KHz.wav
3	67	4	3	2	I	2	0	1367	1	Ⴂ	cut_k_stereo_44KHz.wav
3	68	1	2	0	C	2	1	1163	1	Ⴊ	cut_u_stereo_44KHz.wav
3	69	4	4	2	I	2	0	824	1	Ⴂ	cut_o_stereo_44KHz.wav
3	70	1	1	1	C	2	0	494	0	Ⴊ	cut_a_stereo_44KHz.wav
3	71	2	1	0	C	2	1	916	1	Ⴃ	cut_a_stereo_44KHz.wav
3	72	3	3	2	I	2	0	631	1	Ⴜ	cut_k_stereo_44KHz.wav
3	73	1	1	1	C	1	1	933	1	Ⴊ	cut_a_stereo_44KHz.wav
3	74	2	2	1	C	1	1	874	1	Ⴃ	cut_u_stereo_44KHz.wav
3	75	3	4	2	I	2	0	902	0	Ⴜ	cut_o_stereo_44KHz.wav
3	76	4	3	2	I	2	0	741	0	Ⴂ	cut_k_stereo_44KHz.wav
3	77	3	3	2	I	2	0	882	0	Ⴜ	cut_k_stereo_44KHz.wav
3	78	4	4	2	I	2	0	1021	1	Ⴂ	cut_o_stereo_44KHz.wav
3	79	2	1	0	C	2	1	1391	1	Ⴃ	cut_a_stereo_44KHz.wav
3	80	1	2	0	C	2	1	1181	1	Ⴊ	cut_u_stereo_44KHz.wav
3	81	3	3	2	I	2	0	1071	0	Ⴜ	cut_k_stereo_44KHz.wav
3	82	4	3	2	I	2	0	1141	1	Ⴂ	cut_k_stereo_44KHz.wav
3	83	2	2	1	C	1	1	1010	1	Ⴃ	cut_u_stereo_44KHz.wav
3	84	1	1	1	C	1	1	1198	1	Ⴊ	cut_a_stereo_44KHz.wav
3	85	3	4	2	I	2	0	1304	1	Ⴜ	cut_o_stereo_44KHz.wav
3	86	2	1	0	C	2	1	800	1	Ⴃ	cut_a_stereo_44KHz.wav
3	87	4	4	2	I	2	0	1167	1	Ⴂ	cut_o_stereo_44KHz.wav
3	88	1	2	0	C	2	1	1386	1	Ⴊ	cut_u_stereo_44KHz.wav
3	89	4	4	2	I	2	0	1186	0	Ⴂ	cut_o_stereo_44KHz.wav
3	90	1	1	1	C	1	1	1248	1	Ⴊ	cut_a_stereo_44KHz.wav
3	91	2	1	0	C	2	1	946	1	Ⴃ	cut_a_stereo_44KHz.wav
3	92	3	4	2	I	2	0	1007	1	Ⴜ	cut_o_stereo_44KHz.wav
3	93	2	2	1	C	1	1	969	1	Ⴃ	cut_u_stereo_44KHz.wav
3	94	3	3	2	I	2	0	839	1	Ⴜ	cut_k_stereo_44KHz.wav
3	95	4	3	2	I	2	0	607	0	Ⴂ	cut_k_stereo_44KHz.wav
3	96	1	2	0	C	1	0	914	0	Ⴊ	cut_u_stereo_44KHz.wav
3	97	4	4	2	I	2	0	689	1	Ⴂ	cut_o_stereo_44KHz.wav
3	98	3	3	2	I	2	0	758	0	Ⴜ	cut_k_stereo_44KHz.wav
3	99	1	2	0	C	2	1	876	1	Ⴊ	cut_u_stereo_44KHz.wav
3	100	2	2	1	C	1	1	1013	1	Ⴃ	cut_u_stereo_44KHz.wav
3	101	1	1	1	C	1	1	1255	1	Ⴊ	cut_a_stereo_44KHz.wav
3	102	3	4	2	I	2	0	828	1	Ⴜ	cut_o_stereo_44KHz.wav
3	103	2	1	0	C	2	1	814	1	Ⴃ	cut_a_stereo_44KHz.wav
3	104	4	3	2	I	2	0	967	1	Ⴂ	cut_k_stereo_44KHz.wav
3	105	3	4	2	I	2	0	1103	1	Ⴜ	cut_o_stereo_44KHz.wav
3	106	1	1	1	C	1	1	1096	1	Ⴊ	cut_a_stereo_44KHz.wav
3	107	2	1	0	C	2	1	695	1	Ⴃ	cut_a_stereo_44KHz.wav
3	108	4	4	2	I	2	0	706	0	Ⴂ	cut_o_stereo_44KHz.wav
3	109	3	3	2	I	1	0	1234	1	Ⴜ	cut_k_stereo_44KHz.wav
3	110	2	2	1	C	2	0	786	0	Ⴃ	cut_u_stereo_44KHz.wav
3	111	1	2	0	C	2	1	1484	1	Ⴊ	cut_u_stereo_44KHz.wav
3	112	4	3	2	I	2	0	944	1	Ⴂ	cut_k_stereo_44KHz.wav
3	113	2	1	0	C	2	1	979	1	Ⴃ	cut_a_stereo_44KHz.wav
3	114	1	1	1	C	1	1	877	1	Ⴊ	cut_a_stereo_44KHz.wav
3	115	4	3	2	I	2	0	964	1	Ⴂ	cut_k_stereo_44KHz.wav
3	116	3	3	2	I	1	0	1744	1	Ⴜ	cut_k_stereo_44KHz.wav
3	117	1	2	0	C	2	1	936	1	Ⴊ	cut_u_stereo_44KHz.wav
3	118	4	4	2	I	2	0	991	1	Ⴂ	cut_o_stereo_44KHz.wav
3	119	3	4	2	I	2	0	1233	1	Ⴜ	cut_o_stereo_44KHz.wav
3	120	2	2	1	C	1	1	1060	1	Ⴃ	cut_u_stereo_44KHz.wav
3	121	4	3	2	I	2	0	633	1	Ⴂ	cut_k_stereo_44KHz.wav
3	122	1	1	1	C	1	1	1162	1	Ⴊ	cut_a_stereo_44KHz.wav
3	123	3	4	2	I	2	0	898	1	Ⴜ	cut_o_stereo_44KHz.wav
3	124	2	2	1	C	1	1	1021	1	Ⴃ	cut_u_stereo_44KHz.wav
3	125	1	2	0	C	2	1	1164	1	Ⴊ	cut_u_stereo_44KHz.wav
3	126	3	3	2	I	2	0	799	1	Ⴜ	cut_k_stereo_44KHz.wav
3	127	4	4	2	I	2	0	892	1	Ⴂ	cut_o_stereo_44KHz.wav
3	128	2	1	0	C	2	1	1373	1	Ⴃ	cut_a_stereo_44KHz.wav
3	129	1	1	1	C	1	1	926	1	Ⴊ	cut_a_stereo_44KHz.wav
3	130	3	3	2	I	2	0	970	0	Ⴜ	cut_k_stereo_44KHz.wav
3	131	2	1	0	C	2	1	1094	1	Ⴃ	cut_a_stereo_44KHz.wav
3	132	4	4	2	I	2	0	982	0	Ⴂ	cut_o_stereo_44KHz.wav
3	133	1	2	0	C	1	0	729	0	Ⴊ	cut_u_stereo_44KHz.wav
3	134	3	4	2	I	2	0	667	1	Ⴜ	cut_o_stereo_44KHz.wav
3	135	2	2	1	C	2	0	959	0	Ⴃ	cut_u_stereo_44KHz.wav
3	136	4	3	2	I	2	0	836	1	Ⴂ	cut_k_stereo_44KHz.wav
3	137	3	3	2	I	1	0	942	1	Ⴜ	cut_k_stereo_44KHz.wav
3	138	2	1	0	C	2	1	742	1	Ⴃ	cut_a_stereo_44KHz.wav
3	139	4	3	2	I	2	0	937	0	Ⴂ	cut_k_stereo_44KHz.wav
3	140	1	1	1	C	1	1	839	1	Ⴊ	cut_a_stereo_44KHz.wav
3	141	2	2	1	C	2	0	935	0	Ⴃ	cut_u_stereo_44KHz.wav
3	142	4	4	2	I	1	0	984	1	Ⴂ	cut_o_stereo_44KHz.wav
3	143	3	4	2	I	2	0	915	0	Ⴜ	cut_o_stereo_44KHz.wav
3	144	1	2	0	C	2	1	858	1	Ⴊ	cut_u_stereo_44KHz.wav
3	145	3	4	2	I	1	0	1014	0	Ⴜ	cut_o_stereo_44KHz.wav
3	146	4	3	2	I	2	0	690	1	Ⴂ	cut_k_stereo_44KHz.wav
3	147	1	1	1	C	1	1	1580	1	Ⴊ	cut_a_stereo_44KHz.wav
3	148	2	2	1	C	1	1	942	1	Ⴃ	cut_u_stereo_44KHz.wav
3	149	4	4	2	I	2	0	742	1	Ⴂ	cut_o_stereo_44KHz.wav
3	150	1	2	0	C	1	0	811	0	Ⴊ	cut_u_stereo_44KHz.wav
3	151	2	1	0	C	2	1	746	1	Ⴃ	cut_a_stereo_44KHz.wav
3	152	3	3	2	I	2	0	684	1	Ⴜ	cut_k_stereo_44KHz.wav
3	153	2	2	1	C	1	1	1026	1	Ⴃ	cut_u_stereo_44KHz.wav
3	154	1	1	1	C	1	1	979	1	Ⴊ	cut_a_stereo_44KHz.wav
3	155	3	3	2	I	2	0	855	1	Ⴜ	cut_k_stereo_44KHz.wav
3	156	4	4	2	I	2	0	734	1	Ⴂ	cut_o_stereo_44KHz.wav
3	157	2	1	0	C	2	1	1012	1	Ⴃ	cut_a_stereo_44KHz.wav
3	158	3	4	2	I	2	0	916	1	Ⴜ	cut_o_stereo_44KHz.wav
3	159	1	2	0	C	2	1	883	1	Ⴊ	cut_u_stereo_44KHz.wav
3	160	4	3	2	I	2	0	794	1	Ⴂ	cut_k_stereo_44KHz.wav
3	161	1	2	0	C	2	1	1053	1	Ⴊ	cut_u_stereo_44KHz.wav
3	162	2	2	1	C	2	0	919	0	Ⴃ	cut_u_stereo_44KHz.wav
3	163	3	4	2	I	2	0	841	1	Ⴜ	cut_o_stereo_44KHz.wav
3	164	4	3	2	I	1	0	776	0	Ⴂ	cut_k_stereo_44KHz.wav
3	165	3	3	2	I	1	0	731	1	Ⴜ	cut_k_stereo_44KHz.wav
3	166	4	4	2	I	2	0	709	1	Ⴂ	cut_o_stereo_44KHz.wav
3	167	2	1	0	C	2	1	721	1	Ⴃ	cut_a_stereo_44KHz.wav
3	168	1	1	1	C	1	1	920	1	Ⴊ	cut_a_stereo_44KHz.wav
3	169	2	2	1	C	1	1	943	1	Ⴃ	cut_u_stereo_44KHz.wav
3	170	3	3	2	I	2	0	906	1	Ⴜ	cut_k_stereo_44KHz.wav
3	171	1	1	1	C	1	1	1224	1	Ⴊ	cut_a_stereo_44KHz.wav
3	172	4	4	2	I	2	0	814	1	Ⴂ	cut_o_stereo_44KHz.wav
3	173	1	2	0	C	2	1	955	1	Ⴊ	cut_u_stereo_44KHz.wav
3	174	2	1	0	C	1	0	770	0	Ⴃ	cut_a_stereo_44KHz.wav
3	175	3	4	2	I	2	0	858	1	Ⴜ	cut_o_stereo_44KHz.wav
3	176	4	3	2	I	2	0	682	1	Ⴂ	cut_k_stereo_44KHz.wav
3	177	2	2	1	C	2	0	789	0	Ⴃ	cut_u_stereo_44KHz.wav
3	178	3	3	2	I	1	0	1359	1	Ⴜ	cut_k_stereo_44KHz.wav
3	179	1	1	1	C	2	0	953	0	Ⴊ	cut_a_stereo_44KHz.wav
3	180	4	3	2	I	2	0	963	1	Ⴂ	cut_k_stereo_44KHz.wav
3	181	3	4	2	I	2	0	965	1	Ⴜ	cut_o_stereo_44KHz.wav
3	182	4	4	2	I	1	0	857	1	Ⴂ	cut_o_stereo_44KHz.wav
3	183	1	2	0	C	2	1	940	1	Ⴊ	cut_u_stereo_44KHz.wav
3	184	2	1	0	C	2	1	749	1	Ⴃ	cut_a_stereo_44KHz.wav
3	185	1	2	0	C	2	1	851	1	Ⴊ	cut_u_stereo_44KHz.wav
3	186	4	4	2	I	2	0	814	1	Ⴂ	cut_o_stereo_44KHz.wav
3	187	2	2	1	C	2	0	1045	0	Ⴃ	cut_u_stereo_44KHz.wav
3	188	3	3	2	I	2	0	877	1	Ⴜ	cut_k_stereo_44KHz.wav
3	189	1	1	1	C	1	1	1464	1	Ⴊ	cut_a_stereo_44KHz.wav
3	190	3	4	2	I	2	0	1404	1	Ⴜ	cut_o_stereo_44KHz.wav
3	191	2	1	0	C	2	1	869	1	Ⴃ	cut_a_stereo_44KHz.wav
3	192	4	3	2	I	1	0	892	1	Ⴂ	cut_k_stereo_44KHz.wav
3	193	2	2	1	C	1	1	1401	1	Ⴃ	cut_u_stereo_44KHz.wav
3	194	4	3	2	I	1	0	744	1	Ⴂ	cut_k_stereo_44KHz.wav
3	195	3	4	2	I	2	0	1188	1	Ⴜ	cut_o_stereo_44KHz.wav
3	196	1	2	0	C	2	1	1046	1	Ⴊ	cut_u_stereo_44KHz.wav
3	197	3	3	2	I	2	0	705	1	Ⴜ	cut_k_stereo_44KHz.wav
3	198	4	4	2	I	1	0	1649	1	Ⴂ	cut_o_stereo_44KHz.wav
3	199	1	1	1	C	1	1	1092	1	Ⴊ	cut_a_stereo_44KHz.wav
3	200	2	1	0	C	2	1	884	1	Ⴃ	cut_a_stereo_44KHz.wav
4	1	2	2	1	C	2	0	1372	0	Ⴐ	cut_l_stereo_44KHz.wav
4	2	3	3	2	I	2	0	943	1	Ⴕ	cut_w_stereo_44KHz.wav
4	3	1	1	1	C	2	0	1449	0	Ⴌ	cut_h_stereo_44KHz.wav
4	4	4	3	2	I	2	0	1362	1	Ⴏ	cut_w_stereo_44KHz.wav
4	5	1	2	0	C	2	1	1174	1	Ⴌ	cut_l_stereo_44KHz.wav
4	6	3	4	2	I	1	0	1199	0	Ⴕ	cut_g_stereo_44KHz.wav
4	7	4	4	2	I	2	0	1192	1	Ⴏ	cut_g_stereo_44KHz.wav
4	8	2	1	0	C	2	1	876	1	Ⴐ	cut_h_stereo_44KHz.wav
4	9	1	2	0	C	2	1	884	1	Ⴌ	cut_l_stereo_44KHz.wav
4	10	2	1	0	C	2	1	817	1	Ⴐ	cut_h_stereo_44KHz.wav
4	11	4	3	2	I	1	0	652	0	Ⴏ	cut_w_stereo_44KHz.wav
4	12	3	4	2	I	2	0	788	1	Ⴕ	cut_g_stereo_44KHz.wav
4	13	2	2	1	C	2	0	766	0	Ⴐ	cut_l_stereo_44KHz.wav
4	14	3	3	2	I	2	0	842	0	Ⴕ	cut_w_stereo_44KHz.wav
4	15	1	1	1	C	2	0	1013	0	Ⴌ	cut_h_stereo_44KHz.wav
4	16	4	4	2	I	1	0	1032	1	Ⴏ	cut_g_stereo_44KHz.wav
4	17	3	4	2	I	2	0	901	1	Ⴕ	cut_g_stereo_44KHz.wav
4	18	2	2	1	C	2	0	1181	0	Ⴐ	cut_l_stereo_44KHz.wav
4	19	4	4	2	I	1	0	1406	0	Ⴏ	cut_g_stereo_44KHz.wav
4	20	1	1	1	C	1	1	1363	1	Ⴌ	cut_h_stereo_44KHz.wav
4	21	4	3	2	I	1	0	1348	1	Ⴏ	cut_w_stereo_44KHz.wav
4	22	2	1	0	C	2	1	1433	1	Ⴐ	cut_h_stereo_44KHz.wav
4	23	1	2	0	C	2	1	1515	1	Ⴌ	cut_l_stereo_44KHz.wav
4	24	3	3	2	I	1	0	1540	0	Ⴕ	cut_w_stereo_44KHz.wav
4	25	1	2	0	C	2	1	788	1	Ⴌ	cut_l_stereo_44KHz.wav
4	26	2	2	1	C	2	0	944	0	Ⴐ	cut_l_stereo_44KHz.wav
4	27	4	3	2	I	1	0	999	1	Ⴏ	cut_w_stereo_44KHz.wav
4	28	3	4	2	I	2	0	590	1	Ⴕ	cut_g_stereo_44KHz.wav
4	29	2	1	0	C	2	1	1371	1	Ⴐ	cut_h_stereo_44KHz.wav
4	30	4	4	2	I	1	0	928	1	Ⴏ	cut_g_stereo_44KHz.wav
4	31	1	1	1	C	1	1	1174	1	Ⴌ	cut_h_stereo_44KHz.wav
4	32	3	3	2	I	2	0	1369	1	Ⴕ	cut_w_stereo_44KHz.wav
4	33	4	4	2	I	1	0	1321	1	Ⴏ	cut_g_stereo_44KHz.wav
4	34	3	3	2	I	2	0	1004	1	Ⴕ	cut_w_stereo_44KHz.wav
4	35	1	2	0	C	2	1	1160	1	Ⴌ	cut_l_stereo_44KHz.wav
4	36	2	2	1	C	2	0	1072	0	Ⴐ	cut_l_stereo_44KHz.wav
4	37	3	4	2	I	1	0	1775	0	Ⴕ	cut_g_stereo_44KHz.wav
4	38	4	3	2	I	1	0	1437	1	Ⴏ	cut_w_stereo_44KHz.wav
4	39	1	1	1	C	1	1	1033	1	Ⴌ	cut_h_stereo_44KHz.wav
4	40	2	1	0	C	2	1	1173	1	Ⴐ	cut_h_stereo_44KHz.wav
4	41	3	3	2	I	2	0	917	1	Ⴕ	cut_w_stereo_44KHz.wav
4	42	4	4	2	I	2	0	1006	1	Ⴏ	cut_g_stereo_44KHz.wav
4	43	1	1	1	C	1	1	1116	1	Ⴌ	cut_h_stereo_44KHz.wav
4	44	2	1	0	C	2	1	1014	1	Ⴐ	cut_h_stereo_44KHz.wav
4	45	1	2	0	C	2	1	1423	1	Ⴌ	cut_l_stereo_44KHz.wav
4	46	2	2	1	C	1	1	1286	1	Ⴐ	cut_l_stereo_44KHz.wav
4	47	3	4	2	I	2	0	1013	0	Ⴕ	cut_g_stereo_44KHz.wav
4	48	4	3	2	I	1	0	1212	1	Ⴏ	cut_w_stereo_44KHz.wav
4	49	3	3	2	I	1	0	1428	1	Ⴕ	cut_w_stereo_44KHz.wav
4	50	4	3	2	I	1	0	1234	1	Ⴏ	cut_w_stereo_44KHz.wav
4	51	1	2	0	C	2	1	1121	1	Ⴌ	cut_l_stereo_44KHz.wav
4	52	2	2	1	C	2	0	968	0	Ⴐ	cut_l_stereo_44KHz.wav
4	53	1	1	1	C	1	1	1044	1	Ⴌ	cut_h_stereo_44KHz.wav
4	54	2	1	0	C	2	1	1055	1	Ⴐ	cut_h_stereo_44KHz.wav
4	55	4	4	2	I	1	0	1193	0	Ⴏ	cut_g_stereo_44KHz.wav
4	56	3	4	2	I	2	0	1116	0	Ⴕ	cut_g_stereo_44KHz.wav
4	57	4	3	2	I	2	0	1337	1	Ⴏ	cut_w_stereo_44KHz.wav
4	58	1	1	1	C	1	1	978	1	Ⴌ	cut_h_stereo_44KHz.wav
4	59	3	4	2	I	2	0	1132	1	Ⴕ	cut_g_stereo_44KHz.wav
4	60	2	1	0	C	2	1	1574	1	Ⴐ	cut_h_stereo_44KHz.wav
4	61	1	2	0	C	2	1	1311	1	Ⴌ	cut_l_stereo_44KHz.wav
4	62	3	3	2	I	2	0	1091	1	Ⴕ	cut_w_stereo_44KHz.wav
4	63	2	2	1	C	2	0	1858	0	Ⴐ	cut_l_stereo_44KHz.wav
4	64	4	4	2	I	1	0	1946	1	Ⴏ	cut_g_stereo_44KHz.wav
4	65	1	2	0	C	2	1	1921	1	Ⴌ	cut_l_stereo_44KHz.wav
4	66	2	1	0	C	2	1	1187	1	Ⴐ	cut_h_stereo_44KHz.wav
4	67	4	3	2	I	1	0	1223	1	Ⴏ	cut_w_stereo_44KHz.wav
4	68	3	3	2	I	2	0	1204	0	Ⴕ	cut_w_stereo_44KHz.wav
4	69	2	2	1	C	2	0	1133	0	Ⴐ	cut_l_stereo_44KHz.wav
4	70	4	4	2	I	1	0	1373	1	Ⴏ	cut_g_stereo_44KHz.wav
4	71	3	4	2	I	2	0	1410	1	Ⴕ	cut_g_stereo_44KHz.wav
4	72	1	1	1	C	1	1	1670	1	Ⴌ	cut_h_stereo_44KHz.wav
4	73	2	2	1	C	2	0	1402	0	Ⴐ	cut_l_stereo_44KHz.wav
4	74	4	4	2	I	1	0	1422	0	Ⴏ	cut_g_stereo_44KHz.wav
4	75	1	1	1	C	1	1	1806	1	Ⴌ	cut_h_stereo_44KHz.wav
4	76	3	3	2	I	1	0	1475	1	Ⴕ	cut_w_stereo_44KHz.wav
4	77	1	2	0	C	1	0	1021	0	Ⴌ	cut_l_stereo_44KHz.wav
4	78	2	1	0	C	2	1	938	1	Ⴐ	cut_h_stereo_44KHz.wav
4	79	3	4	2	I	2	0	1175	1	Ⴕ	cut_g_stereo_44KHz.wav
4	80	4	3	2	I	1	0	1342	1	Ⴏ	cut_w_stereo_44KHz.wav
4	81	3	3	2	I	2	0	933	1	Ⴕ	cut_w_stereo_44KHz.wav
4	82	1	2	0	C	2	1	1404	1	Ⴌ	cut_l_stereo_44KHz.wav
4	83	4	3	2	I	1	0	975	1	Ⴏ	cut_w_stereo_44KHz.wav
4	84	2	1	0	C	2	1	810	1	Ⴐ	cut_h_stereo_44KHz.wav
4	85	4	4	2	I	1	0	1172	1	Ⴏ	cut_g_stereo_44KHz.wav
4	86	2	2	1	C	2	0	1107	0	Ⴐ	cut_l_stereo_44KHz.wav
4	87	3	4	2	I	2	0	849	1	Ⴕ	cut_g_stereo_44KHz.wav
4	88	1	1	1	C	1	1	1022	1	Ⴌ	cut_h_stereo_44KHz.wav
4	89	2	2	1	C	2	0	1502	0	Ⴐ	cut_l_stereo_44KHz.wav
4	90	4	4	2	I	1	0	1090	1	Ⴏ	cut_g_stereo_44KHz.wav
4	91	3	4	2	I	2	0	1491	0	Ⴕ	cut_g_stereo_44KHz.wav
4	92	1	1	1	C	1	1	1266	1	Ⴌ	cut_h_stereo_44KHz.wav
4	93	3	3	2	I	2	0	905	1	Ⴕ	cut_w_stereo_44KHz.wav
4	94	1	2	0	C	2	1	1454	1	Ⴌ	cut_l_stereo_44KHz.wav
4	95	2	1	0	C	2	1	875	1	Ⴐ	cut_h_stereo_44KHz.wav
4	96	4	3	2	I	1	0	1072	0	Ⴏ	cut_w_stereo_44KHz.wav
4	97	3	4	2	I	2	0	1112	1	Ⴕ	cut_g_stereo_44KHz.wav
4	98	1	2	0	C	1	0	896	0	Ⴌ	cut_l_stereo_44KHz.wav
4	99	4	3	2	I	1	0	1275	1	Ⴏ	cut_w_stereo_44KHz.wav
4	100	2	1	0	C	2	1	925	1	Ⴐ	cut_h_stereo_44KHz.wav
4	101	3	3	2	I	2	0	1192	1	Ⴕ	cut_w_stereo_44KHz.wav
4	102	4	4	2	I	1	0	964	1	Ⴏ	cut_g_stereo_44KHz.wav
4	103	1	1	1	C	1	1	828	1	Ⴌ	cut_h_stereo_44KHz.wav
4	104	2	2	1	C	2	0	1315	0	Ⴐ	cut_l_stereo_44KHz.wav
4	105	4	3	2	I	1	0	1490	1	Ⴏ	cut_w_stereo_44KHz.wav
4	106	3	3	2	I	2	0	973	1	Ⴕ	cut_w_stereo_44KHz.wav
4	107	1	1	1	C	1	1	838	1	Ⴌ	cut_h_stereo_44KHz.wav
4	108	2	1	0	C	2	1	1140	1	Ⴐ	cut_h_stereo_44KHz.wav
4	109	3	4	2	I	2	0	1334	1	Ⴕ	cut_g_stereo_44KHz.wav
4	110	1	2	0	C	1	0	891	0	Ⴌ	cut_l_stereo_44KHz.wav
4	111	4	4	2	I	1	0	1394	1	Ⴏ	cut_g_stereo_44KHz.wav
4	112	2	2	1	C	2	0	1009	0	Ⴐ	cut_l_stereo_44KHz.wav
4	113	3	4	2	I	2	0	1320	1	Ⴕ	cut_g_stereo_44KHz.wav
4	114	4	3	2	I	1	0	1621	1	Ⴏ	cut_w_stereo_44KHz.wav
4	115	1	2	0	C	2	1	1840	1	Ⴌ	cut_l_stereo_44KHz.wav
4	116	2	1	0	C	2	1	1130	1	Ⴐ	cut_h_stereo_44KHz.wav
4	117	3	3	2	I	2	0	1023	1	Ⴕ	cut_w_stereo_44KHz.wav
4	118	4	4	2	I	1	0	1108	1	Ⴏ	cut_g_stereo_44KHz.wav
4	119	2	2	1	C	1	1	1542	1	Ⴐ	cut_l_stereo_44KHz.wav
4	120	1	1	1	C	1	1	1207	1	Ⴌ	cut_h_stereo_44KHz.wav
4	121	2	1	0	C	2	1	1298	1	Ⴐ	cut_h_stereo_44KHz.wav
4	122	3	3	2	I	2	0	880	0	Ⴕ	cut_w_stereo_44KHz.wav
4	123	4	3	2	I	1	0	1230	1	Ⴏ	cut_w_stereo_44KHz.wav
4	124	1	2	0	C	2	1	1083	1	Ⴌ	cut_l_stereo_44KHz.wav
4	125	2	2	1	C	1	1	1429	1	Ⴐ	cut_l_stereo_44KHz.wav
4	126	4	4	2	I	1	0	1286	1	Ⴏ	cut_g_stereo_44KHz.wav
4	127	1	1	1	C	1	1	829	1	Ⴌ	cut_h_stereo_44KHz.wav
4	128	3	4	2	I	1	0	1087	1	Ⴕ	cut_g_stereo_44KHz.wav
4	129	1	1	1	C	1	1	1154	1	Ⴌ	cut_h_stereo_44KHz.wav
4	130	3	3	2	I	1	0	1383	1	Ⴕ	cut_w_stereo_44KHz.wav
4	131	2	1	0	C	0	0	0	0	Ⴐ	cut_h_stereo_44KHz.wav
4	132	4	4	2	I	1	0	1007	1	Ⴏ	cut_g_stereo_44KHz.wav
4	133	1	2	0	C	2	1	1286	1	Ⴌ	cut_l_stereo_44KHz.wav
4	134	3	4	2	I	1	0	1053	1	Ⴕ	cut_g_stereo_44KHz.wav
4	135	4	3	2	I	1	0	1482	1	Ⴏ	cut_w_stereo_44KHz.wav
4	136	2	2	1	C	1	1	1502	1	Ⴐ	cut_l_stereo_44KHz.wav
4	137	4	4	2	I	1	0	1075	1	Ⴏ	cut_g_stereo_44KHz.wav
4	138	1	1	1	C	1	1	1628	1	Ⴌ	cut_h_stereo_44KHz.wav
4	139	2	1	0	C	2	1	1456	1	Ⴐ	cut_h_stereo_44KHz.wav
4	140	3	3	2	I	2	0	1242	1	Ⴕ	cut_w_stereo_44KHz.wav
4	141	1	2	0	C	2	1	1459	1	Ⴌ	cut_l_stereo_44KHz.wav
4	142	3	4	2	I	1	0	1046	1	Ⴕ	cut_g_stereo_44KHz.wav
4	143	2	2	1	C	1	1	1464	1	Ⴐ	cut_l_stereo_44KHz.wav
4	144	4	3	2	I	1	0	1119	1	Ⴏ	cut_w_stereo_44KHz.wav
4	145	3	3	2	I	2	0	1392	1	Ⴕ	cut_w_stereo_44KHz.wav
4	146	1	1	1	C	1	1	1343	1	Ⴌ	cut_h_stereo_44KHz.wav
4	147	4	4	2	I	1	0	918	1	Ⴏ	cut_g_stereo_44KHz.wav
4	148	2	2	1	C	0	0	0	0	Ⴐ	cut_l_stereo_44KHz.wav
4	149	3	4	2	I	1	0	1901	1	Ⴕ	cut_g_stereo_44KHz.wav
4	150	1	2	0	C	2	1	1880	1	Ⴌ	cut_l_stereo_44KHz.wav
4	151	4	3	2	I	1	0	1854	1	Ⴏ	cut_w_stereo_44KHz.wav
4	152	2	1	0	C	2	1	1177	1	Ⴐ	cut_h_stereo_44KHz.wav
4	153	3	4	2	I	1	0	1411	1	Ⴕ	cut_g_stereo_44KHz.wav
4	154	4	3	2	I	1	0	1669	1	Ⴏ	cut_w_stereo_44KHz.wav
4	155	1	2	0	C	2	1	976	1	Ⴌ	cut_l_stereo_44KHz.wav
4	156	2	1	0	C	2	1	1474	1	Ⴐ	cut_h_stereo_44KHz.wav
4	157	1	1	1	C	1	1	1049	1	Ⴌ	cut_h_stereo_44KHz.wav
4	158	2	2	1	C	1	1	1380	1	Ⴐ	cut_l_stereo_44KHz.wav
4	159	4	4	2	I	1	0	1367	0	Ⴏ	cut_g_stereo_44KHz.wav
4	160	3	3	2	I	2	0	933	1	Ⴕ	cut_w_stereo_44KHz.wav
4	161	2	1	0	C	2	1	1883	1	Ⴐ	cut_h_stereo_44KHz.wav
4	162	1	2	0	C	1	0	1890	0	Ⴌ	cut_l_stereo_44KHz.wav
4	163	3	3	2	I	2	0	913	1	Ⴕ	cut_w_stereo_44KHz.wav
4	164	4	4	2	I	1	0	1281	0	Ⴏ	cut_g_stereo_44KHz.wav
4	165	1	1	1	C	1	1	1401	1	Ⴌ	cut_h_stereo_44KHz.wav
4	166	4	3	2	I	2	0	1733	1	Ⴏ	cut_w_stereo_44KHz.wav
4	167	3	4	2	I	1	0	1284	1	Ⴕ	cut_g_stereo_44KHz.wav
4	168	2	2	1	C	1	1	1295	1	Ⴐ	cut_l_stereo_44KHz.wav
4	169	4	4	2	I	2	0	1678	1	Ⴏ	cut_g_stereo_44KHz.wav
4	170	2	2	1	C	1	1	1004	1	Ⴐ	cut_l_stereo_44KHz.wav
4	171	3	3	2	I	2	0	1411	1	Ⴕ	cut_w_stereo_44KHz.wav
4	172	1	1	1	C	1	1	1058	1	Ⴌ	cut_h_stereo_44KHz.wav
4	173	3	4	2	I	2	0	1461	1	Ⴕ	cut_g_stereo_44KHz.wav
4	174	2	1	0	C	1	0	1938	0	Ⴐ	cut_h_stereo_44KHz.wav
4	175	4	3	2	I	2	0	1422	0	Ⴏ	cut_w_stereo_44KHz.wav
4	176	1	2	0	C	0	0	0	0	Ⴌ	cut_l_stereo_44KHz.wav
4	177	2	2	1	C	1	1	1679	1	Ⴐ	cut_l_stereo_44KHz.wav
4	178	1	2	0	C	1	0	1134	0	Ⴌ	cut_l_stereo_44KHz.wav
4	179	3	4	2	I	2	0	1078	0	Ⴕ	cut_g_stereo_44KHz.wav
4	180	4	3	2	I	1	0	888	0	Ⴏ	cut_w_stereo_44KHz.wav
4	181	3	3	2	I	2	0	782	1	Ⴕ	cut_w_stereo_44KHz.wav
4	182	1	1	1	C	1	1	821	1	Ⴌ	cut_h_stereo_44KHz.wav
4	183	2	1	0	C	2	1	1310	1	Ⴐ	cut_h_stereo_44KHz.wav
4	184	4	4	2	I	0	0	0	0	Ⴏ	cut_g_stereo_44KHz.wav
4	185	2	2	1	C	2	0	834	0	Ⴐ	cut_l_stereo_44KHz.wav
4	186	3	3	2	I	2	0	575	1	Ⴕ	cut_w_stereo_44KHz.wav
4	187	4	4	2	I	2	0	402	1	Ⴏ	cut_g_stereo_44KHz.wav
4	188	1	2	0	C	2	1	367	1	Ⴌ	cut_l_stereo_44KHz.wav
4	189	2	1	0	C	2	1	235	1	Ⴐ	cut_h_stereo_44KHz.wav
4	190	4	3	2	I	2	0	268	0	Ⴏ	cut_w_stereo_44KHz.wav
4	191	1	1	1	C	2	0	581	0	Ⴌ	cut_h_stereo_44KHz.wav
4	192	3	4	2	I	2	0	585	1	Ⴕ	cut_g_stereo_44KHz.wav
4	193	2	1	0	C	2	1	436	1	Ⴐ	cut_h_stereo_44KHz.wav
4	194	4	4	2	I	1	0	848	1	Ⴏ	cut_g_stereo_44KHz.wav
4	195	1	2	0	C	1	0	1282	0	Ⴌ	cut_l_stereo_44KHz.wav
4	196	3	3	2	I	2	0	666	1	Ⴕ	cut_w_stereo_44KHz.wav
4	197	1	1	1	C	2	0	732	0	Ⴌ	cut_h_stereo_44KHz.wav
4	198	2	2	1	C	1	1	694	1	Ⴐ	cut_l_stereo_44KHz.wav
4	199	3	4	2	I	2	0	548	1	Ⴕ	cut_g_stereo_44KHz.wav
4	200	4	3	2	I	2	0	701	1	Ⴏ	cut_w_stereo_44KHz.wav
