block	trial	Vstim	Astim	match	C/I	resp	result	RT	fb	V-file	A-file
RL

0	1	2	4	0	C	0	0	0	0	Ⴞ	cut_eeuw_stereo_44KHz.wav
0	2	2	3	1	C	0	0	0	0	Ⴞ	cut_oo_stereo_44KHz.wav
0	3	1	1	1	C	2	0	1265	0	Ⴉ	cut_ee_stereo_44KHz.wav
0	4	1	2	0	C	0	0	0	0	Ⴉ	cut_g_stereo_44KHz.wav
0	5	1	2	0	C	2	1	1082	1	Ⴉ	cut_g_stereo_44KHz.wav
0	6	2	4	0	C	1	0	898	0	Ⴞ	cut_eeuw_stereo_44KHz.wav
0	7	1	1	1	C	2	0	1459	0	Ⴉ	cut_ee_stereo_44KHz.wav
0	8	2	3	1	C	2	0	1233	0	Ⴞ	cut_oo_stereo_44KHz.wav
0	9	1	1	1	C	1	1	1015	1	Ⴉ	cut_ee_stereo_44KHz.wav
0	10	2	4	0	C	2	1	1212	1	Ⴞ	cut_eeuw_stereo_44KHz.wav
0	11	2	3	1	C	0	0	0	0	Ⴞ	cut_oo_stereo_44KHz.wav
0	12	1	2	0	C	2	1	1837	1	Ⴉ	cut_g_stereo_44KHz.wav
0	13	1	1	1	C	1	1	1326	1	Ⴉ	cut_ee_stereo_44KHz.wav
0	14	1	2	0	C	0	0	0	0	Ⴉ	cut_g_stereo_44KHz.wav
0	15	2	4	0	C	1	0	956	0	Ⴞ	cut_eeuw_stereo_44KHz.wav
0	16	2	3	1	C	2	0	745	0	Ⴞ	cut_oo_stereo_44KHz.wav
0	17	1	1	1	C	1	1	1579	1	Ⴉ	cut_ee_stereo_44KHz.wav
0	18	2	4	0	C	2	1	317	1	Ⴞ	cut_eeuw_stereo_44KHz.wav
0	19	1	2	0	C	2	1	1194	1	Ⴉ	cut_g_stereo_44KHz.wav
0	20	2	3	1	C	1	1	1023	1	Ⴞ	cut_oo_stereo_44KHz.wav
0	21	2	4	0	C	2	1	844	1	Ⴞ	cut_eeuw_stereo_44KHz.wav
0	22	1	2	0	C	0	0	0	0	Ⴉ	cut_g_stereo_44KHz.wav
0	23	2	3	1	C	2	0	1939	0	Ⴞ	cut_oo_stereo_44KHz.wav
0	24	1	1	1	C	1	1	687	1	Ⴉ	cut_ee_stereo_44KHz.wav
0	25	1	2	0	C	2	1	1548	1	Ⴉ	cut_g_stereo_44KHz.wav
0	26	2	3	1	C	1	1	1380	1	Ⴞ	cut_oo_stereo_44KHz.wav
0	27	1	1	1	C	2	0	778	0	Ⴉ	cut_ee_stereo_44KHz.wav
0	28	2	4	0	C	1	0	1100	0	Ⴞ	cut_eeuw_stereo_44KHz.wav
0	29	2	4	0	C	1	0	1208	0	Ⴞ	cut_eeuw_stereo_44KHz.wav
0	30	1	1	1	C	2	0	1460	0	Ⴉ	cut_ee_stereo_44KHz.wav
avg_resp = 1157
1	1	3	4	2	I	2	0	1076	1	Ⴕ	cut_oei_stereo_44KHz.wav
1	2	1	2	0	C	0	0	0	0	Ⴏ	cut_n_stereo_44KHz.wav
1	3	4	4	2	I	2	0	1391	0	Ⴒ	cut_oei_stereo_44KHz.wav
1	4	2	2	1	C	2	0	932	0	Ⴌ	cut_n_stereo_44KHz.wav
1	5	1	1	1	C	1	1	1106	1	Ⴏ	cut_ui_stereo_44KHz.wav
1	6	2	1	0	C	1	0	889	0	Ⴌ	cut_ui_stereo_44KHz.wav
1	7	3	3	2	I	1	0	1773	1	Ⴕ	cut_r_stereo_44KHz.wav
1	8	4	3	2	I	2	0	1386	1	Ⴒ	cut_r_stereo_44KHz.wav
1	9	1	2	0	C	1	0	1101	0	Ⴏ	cut_n_stereo_44KHz.wav
1	10	2	2	1	C	2	0	1560	0	Ⴌ	cut_n_stereo_44KHz.wav
1	11	3	4	2	I	2	0	1729	0	Ⴕ	cut_oei_stereo_44KHz.wav
1	12	4	3	2	I	2	0	1379	1	Ⴒ	cut_r_stereo_44KHz.wav
1	13	1	1	1	C	2	0	1739	0	Ⴏ	cut_ui_stereo_44KHz.wav
1	14	2	1	0	C	1	0	829	0	Ⴌ	cut_ui_stereo_44KHz.wav
1	15	3	3	2	I	2	0	959	1	Ⴕ	cut_r_stereo_44KHz.wav
1	16	4	4	2	I	2	0	1110	1	Ⴒ	cut_oei_stereo_44KHz.wav
1	17	1	1	1	C	0	0	0	0	Ⴏ	cut_ui_stereo_44KHz.wav
1	18	3	3	2	I	1	0	1445	0	Ⴕ	cut_r_stereo_44KHz.wav
1	19	4	4	2	I	2	0	620	1	Ⴒ	cut_oei_stereo_44KHz.wav
1	20	2	1	0	C	1	0	736	0	Ⴌ	cut_ui_stereo_44KHz.wav
1	21	3	4	2	I	2	0	629	1	Ⴕ	cut_oei_stereo_44KHz.wav
1	22	2	2	1	C	2	0	1021	0	Ⴌ	cut_n_stereo_44KHz.wav
1	23	1	2	0	C	1	0	1471	0	Ⴏ	cut_n_stereo_44KHz.wav
1	24	4	3	2	I	2	0	781	1	Ⴒ	cut_r_stereo_44KHz.wav
1	25	3	4	2	I	2	0	874	0	Ⴕ	cut_oei_stereo_44KHz.wav
1	26	1	2	0	C	1	0	665	0	Ⴏ	cut_n_stereo_44KHz.wav
1	27	2	1	0	C	1	0	1273	0	Ⴌ	cut_ui_stereo_44KHz.wav
1	28	4	3	2	I	2	0	1077	1	Ⴒ	cut_r_stereo_44KHz.wav
1	29	2	2	1	C	2	0	1810	0	Ⴌ	cut_n_stereo_44KHz.wav
1	30	3	3	2	I	0	0	0	0	Ⴕ	cut_r_stereo_44KHz.wav
1	31	1	1	1	C	2	0	1747	0	Ⴏ	cut_ui_stereo_44KHz.wav
1	32	4	4	2	I	1	0	346	0	Ⴒ	cut_oei_stereo_44KHz.wav
1	33	3	3	2	I	2	0	1069	1	Ⴕ	cut_r_stereo_44KHz.wav
1	34	1	1	1	C	2	0	1214	0	Ⴏ	cut_ui_stereo_44KHz.wav
1	35	2	2	1	C	1	1	618	1	Ⴌ	cut_n_stereo_44KHz.wav
1	36	4	4	2	I	1	0	1736	1	Ⴒ	cut_oei_stereo_44KHz.wav
1	37	1	2	0	C	2	1	1023	1	Ⴏ	cut_n_stereo_44KHz.wav
1	38	3	4	2	I	2	0	1095	1	Ⴕ	cut_oei_stereo_44KHz.wav
1	39	4	3	2	I	2	0	1361	0	Ⴒ	cut_r_stereo_44KHz.wav
1	40	2	1	0	C	2	1	1957	1	Ⴌ	cut_ui_stereo_44KHz.wav
1	41	3	4	2	I	2	0	1672	1	Ⴕ	cut_oei_stereo_44KHz.wav
1	42	4	3	2	I	2	0	1579	1	Ⴒ	cut_r_stereo_44KHz.wav
1	43	2	2	1	C	1	1	1818	1	Ⴌ	cut_n_stereo_44KHz.wav
1	44	1	1	1	C	2	0	1856	0	Ⴏ	cut_ui_stereo_44KHz.wav
1	45	3	3	2	I	1	0	1546	1	Ⴕ	cut_r_stereo_44KHz.wav
1	46	1	2	0	C	2	1	1746	1	Ⴏ	cut_n_stereo_44KHz.wav
1	47	4	4	2	I	1	0	1891	0	Ⴒ	cut_oei_stereo_44KHz.wav
1	48	2	1	0	C	2	1	729	1	Ⴌ	cut_ui_stereo_44KHz.wav
1	49	3	4	2	I	2	0	1890	1	Ⴕ	cut_oei_stereo_44KHz.wav
1	50	4	3	2	I	1	0	1816	0	Ⴒ	cut_r_stereo_44KHz.wav
1	51	2	2	1	C	1	1	1564	1	Ⴌ	cut_n_stereo_44KHz.wav
1	52	1	2	0	C	2	1	246	1	Ⴏ	cut_n_stereo_44KHz.wav
1	53	4	4	2	I	2	0	1844	1	Ⴒ	cut_oei_stereo_44KHz.wav
1	54	1	1	1	C	1	1	1148	1	Ⴏ	cut_ui_stereo_44KHz.wav
1	55	2	1	0	C	2	1	1671	1	Ⴌ	cut_ui_stereo_44KHz.wav
1	56	3	3	2	I	0	0	0	0	Ⴕ	cut_r_stereo_44KHz.wav
1	57	1	1	1	C	0	0	0	0	Ⴏ	cut_ui_stereo_44KHz.wav
1	58	3	4	2	I	1	0	1652	0	Ⴕ	cut_oei_stereo_44KHz.wav
1	59	4	4	2	I	2	0	1056	1	Ⴒ	cut_oei_stereo_44KHz.wav
1	60	2	2	1	C	2	0	1162	0	Ⴌ	cut_n_stereo_44KHz.wav
1	61	4	3	2	I	2	0	1280	1	Ⴒ	cut_r_stereo_44KHz.wav
1	62	3	3	2	I	0	0	0	0	Ⴕ	cut_r_stereo_44KHz.wav
1	63	1	2	0	C	2	1	1237	1	Ⴏ	cut_n_stereo_44KHz.wav
1	64	2	1	0	C	1	0	1346	0	Ⴌ	cut_ui_stereo_44KHz.wav
1	65	1	2	0	C	2	1	1132	1	Ⴏ	cut_n_stereo_44KHz.wav
1	66	2	1	0	C	2	1	1356	1	Ⴌ	cut_ui_stereo_44KHz.wav
1	67	3	3	2	I	2	0	888	1	Ⴕ	cut_r_stereo_44KHz.wav
1	68	4	3	2	I	1	0	1274	1	Ⴒ	cut_r_stereo_44KHz.wav
1	69	3	4	2	I	1	0	1869	1	Ⴕ	cut_oei_stereo_44KHz.wav
1	70	4	4	2	I	2	0	1511	1	Ⴒ	cut_oei_stereo_44KHz.wav
1	71	1	1	1	C	2	0	1155	0	Ⴏ	cut_ui_stereo_44KHz.wav
1	72	2	2	1	C	1	1	1837	1	Ⴌ	cut_n_stereo_44KHz.wav
1	73	1	1	1	C	2	0	1778	0	Ⴏ	cut_ui_stereo_44KHz.wav
1	74	3	3	2	I	1	0	948	1	Ⴕ	cut_r_stereo_44KHz.wav
1	75	4	4	2	I	2	0	1377	1	Ⴒ	cut_oei_stereo_44KHz.wav
1	76	2	1	0	C	1	0	1003	0	Ⴌ	cut_ui_stereo_44KHz.wav
1	77	1	2	0	C	2	1	320	1	Ⴏ	cut_n_stereo_44KHz.wav
1	78	3	4	2	I	1	0	1679	1	Ⴕ	cut_oei_stereo_44KHz.wav
1	79	2	2	1	C	2	0	1450	0	Ⴌ	cut_n_stereo_44KHz.wav
1	80	4	3	2	I	0	0	0	0	Ⴒ	cut_r_stereo_44KHz.wav
1	81	2	1	0	C	2	1	1157	1	Ⴌ	cut_ui_stereo_44KHz.wav
1	82	1	2	0	C	2	1	1331	1	Ⴏ	cut_n_stereo_44KHz.wav
1	83	3	3	2	I	1	0	1770	1	Ⴕ	cut_r_stereo_44KHz.wav
1	84	4	4	2	I	2	0	1051	0	Ⴒ	cut_oei_stereo_44KHz.wav
1	85	1	1	1	C	1	1	1008	1	Ⴏ	cut_ui_stereo_44KHz.wav
1	86	3	4	2	I	2	0	809	0	Ⴕ	cut_oei_stereo_44KHz.wav
1	87	2	2	1	C	2	0	855	0	Ⴌ	cut_n_stereo_44KHz.wav
1	88	4	3	2	I	1	0	1588	1	Ⴒ	cut_r_stereo_44KHz.wav
1	89	1	1	1	C	1	1	1281	1	Ⴏ	cut_ui_stereo_44KHz.wav
1	90	3	4	2	I	1	0	1407	1	Ⴕ	cut_oei_stereo_44KHz.wav
1	91	4	3	2	I	1	0	1408	1	Ⴒ	cut_r_stereo_44KHz.wav
1	92	2	2	1	C	2	0	1778	0	Ⴌ	cut_n_stereo_44KHz.wav
1	93	4	4	2	I	1	0	1352	1	Ⴒ	cut_oei_stereo_44KHz.wav
1	94	2	1	0	C	1	0	1859	0	Ⴌ	cut_ui_stereo_44KHz.wav
1	95	3	3	2	I	2	0	1359	1	Ⴕ	cut_r_stereo_44KHz.wav
1	96	1	2	0	C	2	1	1311	1	Ⴏ	cut_n_stereo_44KHz.wav
1	97	3	4	2	I	1	0	1718	1	Ⴕ	cut_oei_stereo_44KHz.wav
1	98	2	1	0	C	0	0	0	0	Ⴌ	cut_ui_stereo_44KHz.wav
1	99	4	4	2	I	0	0	0	0	Ⴒ	cut_oei_stereo_44KHz.wav
1	100	1	2	0	C	2	1	1215	1	Ⴏ	cut_n_stereo_44KHz.wav
1	101	2	2	1	C	1	1	1592	1	Ⴌ	cut_n_stereo_44KHz.wav
1	102	4	3	2	I	2	0	1327	1	Ⴒ	cut_r_stereo_44KHz.wav
1	103	3	3	2	I	2	0	1187	0	Ⴕ	cut_r_stereo_44KHz.wav
1	104	1	1	1	C	1	1	705	1	Ⴏ	cut_ui_stereo_44KHz.wav
1	105	4	4	2	I	2	0	872	0	Ⴒ	cut_oei_stereo_44KHz.wav
1	106	3	4	2	I	1	0	1718	1	Ⴕ	cut_oei_stereo_44KHz.wav
1	107	2	2	1	C	1	1	1922	1	Ⴌ	cut_n_stereo_44KHz.wav
1	108	1	1	1	C	1	1	377	1	Ⴏ	cut_ui_stereo_44KHz.wav
1	109	4	3	2	I	2	0	1178	1	Ⴒ	cut_r_stereo_44KHz.wav
1	110	3	3	2	I	2	0	825	1	Ⴕ	cut_r_stereo_44KHz.wav
1	111	2	1	0	C	2	1	659	1	Ⴌ	cut_ui_stereo_44KHz.wav
1	112	1	2	0	C	1	0	1064	0	Ⴏ	cut_n_stereo_44KHz.wav
1	113	2	2	1	C	2	0	785	0	Ⴌ	cut_n_stereo_44KHz.wav
1	114	1	1	1	C	1	1	751	1	Ⴏ	cut_ui_stereo_44KHz.wav
1	115	3	4	2	I	2	0	409	1	Ⴕ	cut_oei_stereo_44KHz.wav
1	116	4	3	2	I	1	0	1028	1	Ⴒ	cut_r_stereo_44KHz.wav
1	117	2	1	0	C	2	1	1066	1	Ⴌ	cut_ui_stereo_44KHz.wav
1	118	3	3	2	I	2	0	1207	1	Ⴕ	cut_r_stereo_44KHz.wav
1	119	1	2	0	C	2	1	1378	1	Ⴏ	cut_n_stereo_44KHz.wav
1	120	4	4	2	I	2	0	1603	1	Ⴒ	cut_oei_stereo_44KHz.wav
1	121	1	2	0	C	2	1	1133	1	Ⴏ	cut_n_stereo_44KHz.wav
1	122	3	4	2	I	2	0	889	1	Ⴕ	cut_oei_stereo_44KHz.wav
1	123	4	3	2	I	2	0	421	1	Ⴒ	cut_r_stereo_44KHz.wav
1	124	2	1	0	C	2	1	588	1	Ⴌ	cut_ui_stereo_44KHz.wav
1	125	3	3	2	I	2	0	1030	1	Ⴕ	cut_r_stereo_44KHz.wav
1	126	1	1	1	C	2	0	681	0	Ⴏ	cut_ui_stereo_44KHz.wav
1	127	4	4	2	I	0	0	0	0	Ⴒ	cut_oei_stereo_44KHz.wav
1	128	2	2	1	C	1	1	967	1	Ⴌ	cut_n_stereo_44KHz.wav
1	129	3	4	2	I	2	0	729	1	Ⴕ	cut_oei_stereo_44KHz.wav
1	130	4	4	2	I	2	0	604	1	Ⴒ	cut_oei_stereo_44KHz.wav
1	131	1	1	1	C	2	0	1254	0	Ⴏ	cut_ui_stereo_44KHz.wav
1	132	2	2	1	C	1	1	1212	1	Ⴌ	cut_n_stereo_44KHz.wav
1	133	4	3	2	I	2	0	1827	1	Ⴒ	cut_r_stereo_44KHz.wav
1	134	2	1	0	C	2	1	946	1	Ⴌ	cut_ui_stereo_44KHz.wav
1	135	1	2	0	C	2	1	109	1	Ⴏ	cut_n_stereo_44KHz.wav
1	136	3	3	2	I	2	0	879	0	Ⴕ	cut_r_stereo_44KHz.wav
1	137	4	3	2	I	1	0	1316	0	Ⴒ	cut_r_stereo_44KHz.wav
1	138	2	1	0	C	2	1	684	1	Ⴌ	cut_ui_stereo_44KHz.wav
1	139	1	1	1	C	1	1	783	1	Ⴏ	cut_ui_stereo_44KHz.wav
1	140	3	3	2	I	2	0	1806	1	Ⴕ	cut_r_stereo_44KHz.wav
1	141	4	4	2	I	2	0	1185	1	Ⴒ	cut_oei_stereo_44KHz.wav
1	142	2	2	1	C	2	0	1823	0	Ⴌ	cut_n_stereo_44KHz.wav
1	143	3	4	2	I	1	0	1282	1	Ⴕ	cut_oei_stereo_44KHz.wav
1	144	1	2	0	C	1	0	1292	0	Ⴏ	cut_n_stereo_44KHz.wav
1	145	2	1	0	C	2	1	421	1	Ⴌ	cut_ui_stereo_44KHz.wav
1	146	1	2	0	C	2	1	21	1	Ⴏ	cut_n_stereo_44KHz.wav
1	147	3	3	2	I	2	0	1608	1	Ⴕ	cut_r_stereo_44KHz.wav
1	148	4	4	2	I	1	0	1182	1	Ⴒ	cut_oei_stereo_44KHz.wav
1	149	2	2	1	C	2	0	1116	0	Ⴌ	cut_n_stereo_44KHz.wav
1	150	3	4	2	I	1	0	1026	0	Ⴕ	cut_oei_stereo_44KHz.wav
1	151	4	3	2	I	2	0	1965	1	Ⴒ	cut_r_stereo_44KHz.wav
1	152	1	1	1	C	2	0	998	0	Ⴏ	cut_ui_stereo_44KHz.wav
1	153	4	3	2	I	1	0	1361	1	Ⴒ	cut_r_stereo_44KHz.wav
1	154	2	1	0	C	2	1	840	1	Ⴌ	cut_ui_stereo_44KHz.wav
1	155	3	4	2	I	1	0	1351	1	Ⴕ	cut_oei_stereo_44KHz.wav
1	156	1	1	1	C	2	0	880	0	Ⴏ	cut_ui_stereo_44KHz.wav
1	157	3	3	2	I	1	0	939	1	Ⴕ	cut_r_stereo_44KHz.wav
1	158	4	4	2	I	2	0	698	1	Ⴒ	cut_oei_stereo_44KHz.wav
1	159	2	2	1	C	1	1	1027	1	Ⴌ	cut_n_stereo_44KHz.wav
1	160	1	2	0	C	2	1	1211	1	Ⴏ	cut_n_stereo_44KHz.wav
1	161	3	3	2	I	2	0	1228	1	Ⴕ	cut_r_stereo_44KHz.wav
1	162	4	3	2	I	2	0	1222	1	Ⴒ	cut_r_stereo_44KHz.wav
1	163	1	2	0	C	2	1	1022	1	Ⴏ	cut_n_stereo_44KHz.wav
1	164	2	2	1	C	2	0	752	0	Ⴌ	cut_n_stereo_44KHz.wav
1	165	4	4	2	I	1	0	1155	1	Ⴒ	cut_oei_stereo_44KHz.wav
1	166	3	4	2	I	2	0	864	1	Ⴕ	cut_oei_stereo_44KHz.wav
1	167	1	1	1	C	2	0	752	0	Ⴏ	cut_ui_stereo_44KHz.wav
1	168	2	1	0	C	2	1	552	1	Ⴌ	cut_ui_stereo_44KHz.wav
1	169	1	2	0	C	2	1	1119	1	Ⴏ	cut_n_stereo_44KHz.wav
1	170	3	4	2	I	2	0	1157	0	Ⴕ	cut_oei_stereo_44KHz.wav
1	171	2	2	1	C	1	1	1197	1	Ⴌ	cut_n_stereo_44KHz.wav
1	172	4	4	2	I	2	0	870	1	Ⴒ	cut_oei_stereo_44KHz.wav
1	173	1	1	1	C	2	0	1378	0	Ⴏ	cut_ui_stereo_44KHz.wav
1	174	2	1	0	C	2	1	1655	1	Ⴌ	cut_ui_stereo_44KHz.wav
1	175	4	3	2	I	2	0	1018	1	Ⴒ	cut_r_stereo_44KHz.wav
1	176	3	3	2	I	1	0	1339	1	Ⴕ	cut_r_stereo_44KHz.wav
1	177	1	1	1	C	2	0	1179	0	Ⴏ	cut_ui_stereo_44KHz.wav
1	178	4	4	2	I	2	0	1299	0	Ⴒ	cut_oei_stereo_44KHz.wav
1	179	3	3	2	I	1	0	1291	1	Ⴕ	cut_r_stereo_44KHz.wav
1	180	2	2	1	C	2	0	1194	0	Ⴌ	cut_n_stereo_44KHz.wav
1	181	3	4	2	I	2	0	1742	1	Ⴕ	cut_oei_stereo_44KHz.wav
1	182	4	3	2	I	2	0	1177	1	Ⴒ	cut_r_stereo_44KHz.wav
1	183	1	2	0	C	0	0	0	0	Ⴏ	cut_n_stereo_44KHz.wav
1	184	2	1	0	C	2	1	936	1	Ⴌ	cut_ui_stereo_44KHz.wav
1	185	4	4	2	I	1	0	1502	1	Ⴒ	cut_oei_stereo_44KHz.wav
1	186	3	3	2	I	2	0	1454	0	Ⴕ	cut_r_stereo_44KHz.wav
1	187	2	1	0	C	1	0	769	0	Ⴌ	cut_ui_stereo_44KHz.wav
1	188	1	1	1	C	2	0	1246	0	Ⴏ	cut_ui_stereo_44KHz.wav
1	189	4	3	2	I	1	0	1309	1	Ⴒ	cut_r_stereo_44KHz.wav
1	190	2	2	1	C	2	0	879	0	Ⴌ	cut_n_stereo_44KHz.wav
1	191	1	2	0	C	1	0	1552	0	Ⴏ	cut_n_stereo_44KHz.wav
1	192	3	4	2	I	2	0	760	1	Ⴕ	cut_oei_stereo_44KHz.wav
1	193	4	3	2	I	2	0	1442	1	Ⴒ	cut_r_stereo_44KHz.wav
1	194	3	3	2	I	1	0	1400	1	Ⴕ	cut_r_stereo_44KHz.wav
1	195	2	1	0	C	1	0	1651	0	Ⴌ	cut_ui_stereo_44KHz.wav
1	196	1	1	1	C	2	0	1218	0	Ⴏ	cut_ui_stereo_44KHz.wav
1	197	2	2	1	C	1	1	1065	1	Ⴌ	cut_n_stereo_44KHz.wav
1	198	1	2	0	C	2	1	1297	1	Ⴏ	cut_n_stereo_44KHz.wav
1	199	4	4	2	I	1	0	899	0	Ⴒ	cut_oei_stereo_44KHz.wav
1	200	3	4	2	I	2	0	650	1	Ⴕ	cut_oei_stereo_44KHz.wav
2	1	2	2	1	C	2	0	1983	0	Ⴟ	cut_g_stereo_44KHz.wav
2	2	4	4	2	I	2	0	1181	1	Ⴃ	cut_l_stereo_44KHz.wav
2	3	1	2	0	C	1	0	1416	0	Ⴂ	cut_g_stereo_44KHz.wav
2	4	3	4	2	I	2	0	1084	1	Ⴁ	cut_l_stereo_44KHz.wav
2	5	1	1	1	C	1	1	1036	1	Ⴂ	cut_h_stereo_44KHz.wav
2	6	3	3	2	I	2	0	731	1	Ⴁ	cut_w_stereo_44KHz.wav
2	7	2	1	0	C	1	0	1212	0	Ⴟ	cut_h_stereo_44KHz.wav
2	8	4	3	2	I	2	0	998	1	Ⴃ	cut_w_stereo_44KHz.wav
2	9	3	3	2	I	1	0	825	1	Ⴁ	cut_w_stereo_44KHz.wav
2	10	2	1	0	C	2	1	806	1	Ⴟ	cut_h_stereo_44KHz.wav
2	11	4	4	2	I	2	0	1490	1	Ⴃ	cut_l_stereo_44KHz.wav
2	12	1	1	1	C	2	0	825	0	Ⴂ	cut_h_stereo_44KHz.wav
2	13	4	3	2	I	1	0	1853	0	Ⴃ	cut_w_stereo_44KHz.wav
2	14	2	2	1	C	0	0	0	0	Ⴟ	cut_g_stereo_44KHz.wav
2	15	1	2	0	C	2	1	1087	1	Ⴂ	cut_g_stereo_44KHz.wav
2	16	3	4	2	I	2	0	941	1	Ⴁ	cut_l_stereo_44KHz.wav
2	17	1	1	1	C	2	0	703	0	Ⴂ	cut_h_stereo_44KHz.wav
2	18	3	3	2	I	1	0	1593	1	Ⴁ	cut_w_stereo_44KHz.wav
2	19	2	2	1	C	2	0	959	0	Ⴟ	cut_g_stereo_44KHz.wav
2	20	4	3	2	I	1	0	1061	1	Ⴃ	cut_w_stereo_44KHz.wav
2	21	2	1	0	C	2	1	701	1	Ⴟ	cut_h_stereo_44KHz.wav
2	22	4	4	2	I	1	0	1115	1	Ⴃ	cut_l_stereo_44KHz.wav
2	23	1	2	0	C	2	1	886	1	Ⴂ	cut_g_stereo_44KHz.wav
2	24	3	4	2	I	2	0	984	1	Ⴁ	cut_l_stereo_44KHz.wav
2	25	4	4	2	I	2	0	1322	1	Ⴃ	cut_l_stereo_44KHz.wav
2	26	3	4	2	I	1	0	843	1	Ⴁ	cut_l_stereo_44KHz.wav
2	27	2	2	1	C	2	0	826	0	Ⴟ	cut_g_stereo_44KHz.wav
2	28	1	1	1	C	1	1	1133	1	Ⴂ	cut_h_stereo_44KHz.wav
2	29	4	3	2	I	2	0	810	1	Ⴃ	cut_w_stereo_44KHz.wav
2	30	2	1	0	C	2	1	742	1	Ⴟ	cut_h_stereo_44KHz.wav
2	31	3	3	2	I	2	0	1163	1	Ⴁ	cut_w_stereo_44KHz.wav
2	32	1	2	0	C	2	1	714	1	Ⴂ	cut_g_stereo_44KHz.wav
2	33	3	4	2	I	2	0	689	1	Ⴁ	cut_l_stereo_44KHz.wav
2	34	2	2	1	C	2	0	784	0	Ⴟ	cut_g_stereo_44KHz.wav
2	35	4	4	2	I	2	0	841	1	Ⴃ	cut_l_stereo_44KHz.wav
2	36	1	1	1	C	2	0	465	0	Ⴂ	cut_h_stereo_44KHz.wav
2	37	4	3	2	I	2	0	1401	1	Ⴃ	cut_w_stereo_44KHz.wav
2	38	2	1	0	C	2	1	803	1	Ⴟ	cut_h_stereo_44KHz.wav
2	39	3	3	2	I	2	0	1090	0	Ⴁ	cut_w_stereo_44KHz.wav
2	40	1	2	0	C	2	1	939	1	Ⴂ	cut_g_stereo_44KHz.wav
2	41	4	3	2	I	2	0	1047	0	Ⴃ	cut_w_stereo_44KHz.wav
2	42	2	2	1	C	1	1	1205	1	Ⴟ	cut_g_stereo_44KHz.wav
2	43	3	4	2	I	2	0	968	1	Ⴁ	cut_l_stereo_44KHz.wav
2	44	1	1	1	C	2	0	1318	0	Ⴂ	cut_h_stereo_44KHz.wav
2	45	4	4	2	I	2	0	1798	1	Ⴃ	cut_l_stereo_44KHz.wav
2	46	3	3	2	I	1	0	1593	0	Ⴁ	cut_w_stereo_44KHz.wav
2	47	1	2	0	C	2	1	903	1	Ⴂ	cut_g_stereo_44KHz.wav
2	48	2	1	0	C	2	1	1115	1	Ⴟ	cut_h_stereo_44KHz.wav
2	49	3	4	2	I	1	0	1055	1	Ⴁ	cut_l_stereo_44KHz.wav
2	50	2	2	1	C	2	0	861	0	Ⴟ	cut_g_stereo_44KHz.wav
2	51	1	1	1	C	0	0	0	0	Ⴂ	cut_h_stereo_44KHz.wav
2	52	4	3	2	I	2	0	1260	1	Ⴃ	cut_w_stereo_44KHz.wav
2	53	1	2	0	C	2	1	1050	1	Ⴂ	cut_g_stereo_44KHz.wav
2	54	2	1	0	C	1	0	1294	0	Ⴟ	cut_h_stereo_44KHz.wav
2	55	4	4	2	I	2	0	1183	1	Ⴃ	cut_l_stereo_44KHz.wav
2	56	3	3	2	I	2	0	1147	1	Ⴁ	cut_w_stereo_44KHz.wav
2	57	2	1	0	C	2	1	588	1	Ⴟ	cut_h_stereo_44KHz.wav
2	58	1	2	0	C	2	1	471	1	Ⴂ	cut_g_stereo_44KHz.wav
2	59	4	3	2	I	2	0	487	1	Ⴃ	cut_w_stereo_44KHz.wav
2	60	3	3	2	I	2	0	281	1	Ⴁ	cut_w_stereo_44KHz.wav
2	61	2	2	1	C	2	0	537	0	Ⴟ	cut_g_stereo_44KHz.wav
2	62	1	1	1	C	2	0	679	0	Ⴂ	cut_h_stereo_44KHz.wav
2	63	4	4	2	I	1	0	500	1	Ⴃ	cut_l_stereo_44KHz.wav
2	64	3	4	2	I	1	0	574	0	Ⴁ	cut_l_stereo_44KHz.wav
2	65	2	1	0	C	2	1	815	1	Ⴟ	cut_h_stereo_44KHz.wav
2	66	4	4	2	I	2	0	1295	0	Ⴃ	cut_l_stereo_44KHz.wav
2	67	3	4	2	I	1	0	1220	0	Ⴁ	cut_l_stereo_44KHz.wav
2	68	1	2	0	C	2	1	1072	1	Ⴂ	cut_g_stereo_44KHz.wav
2	69	2	2	1	C	1	1	1116	1	Ⴟ	cut_g_stereo_44KHz.wav
2	70	4	3	2	I	2	0	1440	1	Ⴃ	cut_w_stereo_44KHz.wav
2	71	3	3	2	I	2	0	1286	0	Ⴁ	cut_w_stereo_44KHz.wav
2	72	1	1	1	C	1	1	1359	1	Ⴂ	cut_h_stereo_44KHz.wav
2	73	4	3	2	I	2	0	1621	1	Ⴃ	cut_w_stereo_44KHz.wav
2	74	3	4	2	I	2	0	1649	0	Ⴁ	cut_l_stereo_44KHz.wav
2	75	1	1	1	C	0	0	0	0	Ⴂ	cut_h_stereo_44KHz.wav
2	76	2	1	0	C	2	1	660	1	Ⴟ	cut_h_stereo_44KHz.wav
2	77	1	2	0	C	2	1	1288	1	Ⴂ	cut_g_stereo_44KHz.wav
2	78	2	2	1	C	1	1	1230	1	Ⴟ	cut_g_stereo_44KHz.wav
2	79	3	3	2	I	2	0	1271	1	Ⴁ	cut_w_stereo_44KHz.wav
2	80	4	4	2	I	1	0	1413	1	Ⴃ	cut_l_stereo_44KHz.wav
2	81	2	1	0	C	2	1	1637	1	Ⴟ	cut_h_stereo_44KHz.wav
2	82	1	2	0	C	2	1	1044	1	Ⴂ	cut_g_stereo_44KHz.wav
2	83	3	4	2	I	2	0	1031	1	Ⴁ	cut_l_stereo_44KHz.wav
2	84	4	3	2	I	2	0	1614	0	Ⴃ	cut_w_stereo_44KHz.wav
2	85	1	1	1	C	1	1	1229	1	Ⴂ	cut_h_stereo_44KHz.wav
2	86	3	3	2	I	1	0	1527	1	Ⴁ	cut_w_stereo_44KHz.wav
2	87	4	4	2	I	1	0	1063	1	Ⴃ	cut_l_stereo_44KHz.wav
2	88	2	2	1	C	2	0	1281	0	Ⴟ	cut_g_stereo_44KHz.wav
2	89	4	4	2	I	1	0	1080	1	Ⴃ	cut_l_stereo_44KHz.wav
2	90	1	2	0	C	2	1	1115	1	Ⴂ	cut_g_stereo_44KHz.wav
2	91	3	4	2	I	1	0	1748	1	Ⴁ	cut_l_stereo_44KHz.wav
2	92	2	1	0	C	2	1	1085	1	Ⴟ	cut_h_stereo_44KHz.wav
2	93	4	3	2	I	2	0	1195	0	Ⴃ	cut_w_stereo_44KHz.wav
2	94	2	2	1	C	1	1	1358	1	Ⴟ	cut_g_stereo_44KHz.wav
2	95	3	3	2	I	2	0	1027	1	Ⴁ	cut_w_stereo_44KHz.wav
2	96	1	1	1	C	1	1	1322	1	Ⴂ	cut_h_stereo_44KHz.wav
2	97	3	4	2	I	2	0	1064	1	Ⴁ	cut_l_stereo_44KHz.wav
2	98	2	1	0	C	2	1	787	1	Ⴟ	cut_h_stereo_44KHz.wav
2	99	1	2	0	C	1	0	1098	0	Ⴂ	cut_g_stereo_44KHz.wav
2	100	4	3	2	I	1	0	1414	1	Ⴃ	cut_w_stereo_44KHz.wav
2	101	1	1	1	C	1	1	1352	1	Ⴂ	cut_h_stereo_44KHz.wav
2	102	2	2	1	C	2	0	1182	0	Ⴟ	cut_g_stereo_44KHz.wav
2	103	3	3	2	I	1	0	1758	0	Ⴁ	cut_w_stereo_44KHz.wav
2	104	4	4	2	I	2	0	1082	1	Ⴃ	cut_l_stereo_44KHz.wav
2	105	2	1	0	C	2	1	1537	1	Ⴟ	cut_h_stereo_44KHz.wav
2	106	4	4	2	I	2	0	1212	1	Ⴃ	cut_l_stereo_44KHz.wav
2	107	1	2	0	C	2	1	1400	1	Ⴂ	cut_g_stereo_44KHz.wav
2	108	3	3	2	I	2	0	1447	1	Ⴁ	cut_w_stereo_44KHz.wav
2	109	1	1	1	C	2	0	1015	0	Ⴂ	cut_h_stereo_44KHz.wav
2	110	2	2	1	C	1	1	884	1	Ⴟ	cut_g_stereo_44KHz.wav
2	111	3	4	2	I	2	0	1027	1	Ⴁ	cut_l_stereo_44KHz.wav
2	112	4	3	2	I	1	0	1817	1	Ⴃ	cut_w_stereo_44KHz.wav
2	113	2	2	1	C	2	0	1466	0	Ⴟ	cut_g_stereo_44KHz.wav
2	114	1	1	1	C	2	0	1184	0	Ⴂ	cut_h_stereo_44KHz.wav
2	115	3	3	2	I	1	0	935	1	Ⴁ	cut_w_stereo_44KHz.wav
2	116	4	4	2	I	1	0	1760	1	Ⴃ	cut_l_stereo_44KHz.wav
2	117	3	4	2	I	0	0	0	0	Ⴁ	cut_l_stereo_44KHz.wav
2	118	2	1	0	C	2	1	1435	1	Ⴟ	cut_h_stereo_44KHz.wav
2	119	1	2	0	C	2	1	730	1	Ⴂ	cut_g_stereo_44KHz.wav
2	120	4	3	2	I	2	0	1713	1	Ⴃ	cut_w_stereo_44KHz.wav
2	121	3	4	2	I	2	0	982	0	Ⴁ	cut_l_stereo_44KHz.wav
2	122	4	4	2	I	1	0	969	1	Ⴃ	cut_l_stereo_44KHz.wav
2	123	2	1	0	C	1	0	1571	0	Ⴟ	cut_h_stereo_44KHz.wav
2	124	1	1	1	C	2	0	889	0	Ⴂ	cut_h_stereo_44KHz.wav
2	125	3	3	2	I	1	0	1857	1	Ⴁ	cut_w_stereo_44KHz.wav
2	126	2	2	1	C	0	0	0	0	Ⴟ	cut_g_stereo_44KHz.wav
2	127	4	3	2	I	2	0	831	1	Ⴃ	cut_w_stereo_44KHz.wav
2	128	1	2	0	C	1	0	1064	0	Ⴂ	cut_g_stereo_44KHz.wav
2	129	3	3	2	I	2	0	782	1	Ⴁ	cut_w_stereo_44KHz.wav
2	130	1	1	1	C	2	0	1012	0	Ⴂ	cut_h_stereo_44KHz.wav
2	131	4	4	2	I	1	0	975	0	Ⴃ	cut_l_stereo_44KHz.wav
2	132	2	2	1	C	1	1	924	1	Ⴟ	cut_g_stereo_44KHz.wav
2	133	3	4	2	I	2	0	1139	1	Ⴁ	cut_l_stereo_44KHz.wav
2	134	2	1	0	C	1	0	1182	0	Ⴟ	cut_h_stereo_44KHz.wav
2	135	1	2	0	C	2	1	917	1	Ⴂ	cut_g_stereo_44KHz.wav
2	136	4	3	2	I	2	0	805	1	Ⴃ	cut_w_stereo_44KHz.wav
2	137	1	1	1	C	1	1	1105	1	Ⴂ	cut_h_stereo_44KHz.wav
2	138	3	4	2	I	2	0	1202	1	Ⴁ	cut_l_stereo_44KHz.wav
2	139	2	1	0	C	1	0	1084	0	Ⴟ	cut_h_stereo_44KHz.wav
2	140	4	3	2	I	2	0	1213	1	Ⴃ	cut_w_stereo_44KHz.wav
2	141	3	3	2	I	1	0	778	1	Ⴁ	cut_w_stereo_44KHz.wav
2	142	1	2	0	C	2	1	841	1	Ⴂ	cut_g_stereo_44KHz.wav
2	143	2	2	1	C	2	0	927	0	Ⴟ	cut_g_stereo_44KHz.wav
2	144	4	4	2	I	1	0	1533	1	Ⴃ	cut_l_stereo_44KHz.wav
2	145	3	4	2	I	2	0	960	1	Ⴁ	cut_l_stereo_44KHz.wav
2	146	4	4	2	I	1	0	1259	1	Ⴃ	cut_l_stereo_44KHz.wav
2	147	1	2	0	C	2	1	1932	1	Ⴂ	cut_g_stereo_44KHz.wav
2	148	2	2	1	C	2	0	1940	0	Ⴟ	cut_g_stereo_44KHz.wav
2	149	1	1	1	C	1	1	909	1	Ⴂ	cut_h_stereo_44KHz.wav
2	150	3	3	2	I	2	0	1575	1	Ⴁ	cut_w_stereo_44KHz.wav
2	151	4	3	2	I	0	0	0	0	Ⴃ	cut_w_stereo_44KHz.wav
2	152	2	1	0	C	2	1	1113	1	Ⴟ	cut_h_stereo_44KHz.wav
2	153	3	4	2	I	2	0	475	1	Ⴁ	cut_l_stereo_44KHz.wav
2	154	2	2	1	C	1	1	1436	1	Ⴟ	cut_g_stereo_44KHz.wav
2	155	1	1	1	C	2	0	1277	0	Ⴂ	cut_h_stereo_44KHz.wav
2	156	4	4	2	I	1	0	1024	1	Ⴃ	cut_l_stereo_44KHz.wav
2	157	1	2	0	C	2	1	964	1	Ⴂ	cut_g_stereo_44KHz.wav
2	158	3	3	2	I	1	0	1749	1	Ⴁ	cut_w_stereo_44KHz.wav
2	159	2	1	0	C	2	1	1245	1	Ⴟ	cut_h_stereo_44KHz.wav
2	160	4	3	2	I	1	0	1441	0	Ⴃ	cut_w_stereo_44KHz.wav
2	161	2	2	1	C	1	1	1277	1	Ⴟ	cut_g_stereo_44KHz.wav
2	162	3	3	2	I	2	0	1366	0	Ⴁ	cut_w_stereo_44KHz.wav
2	163	4	3	2	I	0	0	0	0	Ⴃ	cut_w_stereo_44KHz.wav
2	164	1	1	1	C	2	0	1433	0	Ⴂ	cut_h_stereo_44KHz.wav
2	165	4	4	2	I	1	0	273	1	Ⴃ	cut_l_stereo_44KHz.wav
2	166	1	2	0	C	1	0	1289	0	Ⴂ	cut_g_stereo_44KHz.wav
2	167	3	4	2	I	2	0	564	1	Ⴁ	cut_l_stereo_44KHz.wav
2	168	2	1	0	C	1	0	317	0	Ⴟ	cut_h_stereo_44KHz.wav
2	169	1	1	1	C	2	0	678	0	Ⴂ	cut_h_stereo_44KHz.wav
2	170	2	2	1	C	1	1	1289	1	Ⴟ	cut_g_stereo_44KHz.wav
2	171	3	4	2	I	2	0	982	1	Ⴁ	cut_l_stereo_44KHz.wav
2	172	4	4	2	I	2	0	1270	0	Ⴃ	cut_l_stereo_44KHz.wav
2	173	3	3	2	I	1	0	901	1	Ⴁ	cut_w_stereo_44KHz.wav
2	174	1	2	0	C	2	1	990	1	Ⴂ	cut_g_stereo_44KHz.wav
2	175	4	3	2	I	1	0	1408	1	Ⴃ	cut_w_stereo_44KHz.wav
2	176	2	1	0	C	1	0	1732	0	Ⴟ	cut_h_stereo_44KHz.wav
2	177	4	3	2	I	2	0	1329	1	Ⴃ	cut_w_stereo_44KHz.wav
2	178	3	3	2	I	2	0	1350	0	Ⴁ	cut_w_stereo_44KHz.wav
2	179	1	2	0	C	1	0	1352	0	Ⴂ	cut_g_stereo_44KHz.wav
2	180	2	1	0	C	2	1	1976	1	Ⴟ	cut_h_stereo_44KHz.wav
2	181	1	1	1	C	2	0	1171	0	Ⴂ	cut_h_stereo_44KHz.wav
2	182	3	4	2	I	1	0	1078	1	Ⴁ	cut_l_stereo_44KHz.wav
2	183	4	4	2	I	1	0	1421	0	Ⴃ	cut_l_stereo_44KHz.wav
2	184	2	2	1	C	1	1	1925	1	Ⴟ	cut_g_stereo_44KHz.wav
2	185	3	4	2	I	2	0	1607	1	Ⴁ	cut_l_stereo_44KHz.wav
2	186	4	4	2	I	1	0	1434	1	Ⴃ	cut_l_stereo_44KHz.wav
2	187	2	2	1	C	0	0	0	0	Ⴟ	cut_g_stereo_44KHz.wav
2	188	1	1	1	C	1	1	1504	1	Ⴂ	cut_h_stereo_44KHz.wav
2	189	4	3	2	I	0	0	0	0	Ⴃ	cut_w_stereo_44KHz.wav
2	190	2	1	0	C	2	1	997	1	Ⴟ	cut_h_stereo_44KHz.wav
2	191	3	3	2	I	2	0	1284	1	Ⴁ	cut_w_stereo_44KHz.wav
2	192	1	2	0	C	1	0	1309	0	Ⴂ	cut_g_stereo_44KHz.wav
2	193	4	3	2	I	2	0	1057	1	Ⴃ	cut_w_stereo_44KHz.wav
2	194	3	3	2	I	1	0	1342	1	Ⴁ	cut_w_stereo_44KHz.wav
2	195	2	2	1	C	2	0	1674	0	Ⴟ	cut_g_stereo_44KHz.wav
2	196	1	2	0	C	1	0	1189	0	Ⴂ	cut_g_stereo_44KHz.wav
2	197	3	4	2	I	2	0	1146	1	Ⴁ	cut_l_stereo_44KHz.wav
2	198	2	1	0	C	1	0	1150	0	Ⴟ	cut_h_stereo_44KHz.wav
2	199	4	4	2	I	2	0	1601	1	Ⴃ	cut_l_stereo_44KHz.wav
2	200	1	1	1	C	2	0	1321	0	Ⴂ	cut_h_stereo_44KHz.wav
3	1	4	3	2	I	2	0	1563	1	Ⴉ	cut_a_stereo_44KHz.wav
3	2	2	1	0	C	2	1	1263	1	Ⴐ	cut_u_stereo_44KHz.wav
3	3	1	2	0	C	2	1	1619	1	Ⴔ	cut_k_stereo_44KHz.wav
3	4	3	4	2	I	2	0	1369	1	Ⴖ	cut_o_stereo_44KHz.wav
3	5	2	2	1	C	1	1	1183	1	Ⴐ	cut_k_stereo_44KHz.wav
3	6	1	1	1	C	1	1	1376	1	Ⴔ	cut_u_stereo_44KHz.wav
3	7	3	3	2	I	1	0	1167	0	Ⴖ	cut_a_stereo_44KHz.wav
3	8	4	4	2	I	2	0	1508	1	Ⴉ	cut_o_stereo_44KHz.wav
3	9	2	2	1	C	1	1	1455	1	Ⴐ	cut_k_stereo_44KHz.wav
3	10	3	4	2	I	2	0	995	1	Ⴖ	cut_o_stereo_44KHz.wav
3	11	1	2	0	C	1	0	1855	0	Ⴔ	cut_k_stereo_44KHz.wav
3	12	4	3	2	I	2	0	1096	0	Ⴉ	cut_a_stereo_44KHz.wav
3	13	1	1	1	C	1	1	1529	1	Ⴔ	cut_u_stereo_44KHz.wav
3	14	4	4	2	I	2	0	1385	1	Ⴉ	cut_o_stereo_44KHz.wav
3	15	2	1	0	C	1	0	1503	0	Ⴐ	cut_u_stereo_44KHz.wav
3	16	3	3	2	I	2	0	1102	1	Ⴖ	cut_a_stereo_44KHz.wav
3	17	4	3	2	I	1	0	1770	1	Ⴉ	cut_a_stereo_44KHz.wav
3	18	2	1	0	C	1	0	1551	0	Ⴐ	cut_u_stereo_44KHz.wav
3	19	1	1	1	C	2	0	1272	0	Ⴔ	cut_u_stereo_44KHz.wav
3	20	3	4	2	I	1	0	1038	1	Ⴖ	cut_o_stereo_44KHz.wav
3	21	1	2	0	C	2	1	1571	1	Ⴔ	cut_k_stereo_44KHz.wav
3	22	4	4	2	I	2	0	1073	0	Ⴉ	cut_o_stereo_44KHz.wav
3	23	2	2	1	C	2	0	1544	0	Ⴐ	cut_k_stereo_44KHz.wav
3	24	3	3	2	I	1	0	695	1	Ⴖ	cut_a_stereo_44KHz.wav
3	25	2	1	0	C	2	1	1519	1	Ⴐ	cut_u_stereo_44KHz.wav
3	26	1	2	0	C	2	1	1283	1	Ⴔ	cut_k_stereo_44KHz.wav
3	27	4	3	2	I	1	0	1319	0	Ⴉ	cut_a_stereo_44KHz.wav
3	28	3	4	2	I	2	0	1761	0	Ⴖ	cut_o_stereo_44KHz.wav
3	29	1	1	1	C	2	0	1569	0	Ⴔ	cut_u_stereo_44KHz.wav
3	30	2	2	1	C	1	1	1567	1	Ⴐ	cut_k_stereo_44KHz.wav
3	31	4	4	2	I	2	0	1512	1	Ⴉ	cut_o_stereo_44KHz.wav
3	32	3	3	2	I	2	0	1127	1	Ⴖ	cut_a_stereo_44KHz.wav
3	33	4	3	2	I	1	0	1560	0	Ⴉ	cut_a_stereo_44KHz.wav
3	34	2	1	0	C	0	0	0	0	Ⴐ	cut_u_stereo_44KHz.wav
3	35	1	2	0	C	2	1	1636	1	Ⴔ	cut_k_stereo_44KHz.wav
3	36	3	3	2	I	2	0	1394	1	Ⴖ	cut_a_stereo_44KHz.wav
3	37	1	1	1	C	2	0	1348	0	Ⴔ	cut_u_stereo_44KHz.wav
3	38	4	4	2	I	1	0	735	1	Ⴉ	cut_o_stereo_44KHz.wav
3	39	3	4	2	I	2	0	1015	1	Ⴖ	cut_o_stereo_44KHz.wav
3	40	2	2	1	C	1	1	912	1	Ⴐ	cut_k_stereo_44KHz.wav
3	41	1	2	0	C	1	0	1514	0	Ⴔ	cut_k_stereo_44KHz.wav
3	42	2	2	1	C	2	0	1170	0	Ⴐ	cut_k_stereo_44KHz.wav
3	43	3	3	2	I	1	0	611	1	Ⴖ	cut_a_stereo_44KHz.wav
3	44	4	3	2	I	2	0	1241	1	Ⴉ	cut_a_stereo_44KHz.wav
3	45	1	1	1	C	2	0	1345	0	Ⴔ	cut_u_stereo_44KHz.wav
3	46	3	4	2	I	1	0	957	1	Ⴖ	cut_o_stereo_44KHz.wav
3	47	2	1	0	C	2	1	707	1	Ⴐ	cut_u_stereo_44KHz.wav
3	48	4	4	2	I	1	0	1527	1	Ⴉ	cut_o_stereo_44KHz.wav
3	49	1	2	0	C	2	1	1091	1	Ⴔ	cut_k_stereo_44KHz.wav
3	50	4	4	2	I	2	0	722	1	Ⴉ	cut_o_stereo_44KHz.wav
3	51	3	4	2	I	2	0	821	1	Ⴖ	cut_o_stereo_44KHz.wav
3	52	2	2	1	C	2	0	514	0	Ⴐ	cut_k_stereo_44KHz.wav
3	53	4	3	2	I	1	0	698	1	Ⴉ	cut_a_stereo_44KHz.wav
3	54	1	1	1	C	2	0	1509	0	Ⴔ	cut_u_stereo_44KHz.wav
3	55	2	1	0	C	2	1	1136	1	Ⴐ	cut_u_stereo_44KHz.wav
3	56	3	3	2	I	2	0	1021	0	Ⴖ	cut_a_stereo_44KHz.wav
3	57	1	2	0	C	1	0	709	0	Ⴔ	cut_k_stereo_44KHz.wav
3	58	2	2	1	C	1	1	947	1	Ⴐ	cut_k_stereo_44KHz.wav
3	59	3	3	2	I	2	0	644	0	Ⴖ	cut_a_stereo_44KHz.wav
3	60	4	4	2	I	2	0	831	0	Ⴉ	cut_o_stereo_44KHz.wav
3	61	3	4	2	I	1	0	873	1	Ⴖ	cut_o_stereo_44KHz.wav
3	62	4	3	2	I	2	0	744	1	Ⴉ	cut_a_stereo_44KHz.wav
3	63	1	1	1	C	2	0	1501	0	Ⴔ	cut_u_stereo_44KHz.wav
3	64	2	1	0	C	1	0	768	0	Ⴐ	cut_u_stereo_44KHz.wav
3	65	1	1	1	C	2	0	594	0	Ⴔ	cut_u_stereo_44KHz.wav
3	66	3	4	2	I	0	0	0	0	Ⴖ	cut_o_stereo_44KHz.wav
3	67	2	2	1	C	2	0	934	0	Ⴐ	cut_k_stereo_44KHz.wav
3	68	4	4	2	I	2	0	1051	1	Ⴉ	cut_o_stereo_44KHz.wav
3	69	1	2	0	C	2	1	1137	1	Ⴔ	cut_k_stereo_44KHz.wav
3	70	2	1	0	C	2	1	1442	1	Ⴐ	cut_u_stereo_44KHz.wav
3	71	4	3	2	I	2	0	1431	1	Ⴉ	cut_a_stereo_44KHz.wav
3	72	3	3	2	I	1	0	1062	1	Ⴖ	cut_a_stereo_44KHz.wav
3	73	4	4	2	I	0	0	0	0	Ⴉ	cut_o_stereo_44KHz.wav
3	74	3	4	2	I	2	0	1091	1	Ⴖ	cut_o_stereo_44KHz.wav
3	75	1	1	1	C	2	0	1323	0	Ⴔ	cut_u_stereo_44KHz.wav
3	76	2	2	1	C	2	0	594	0	Ⴐ	cut_k_stereo_44KHz.wav
3	77	3	3	2	I	1	0	662	0	Ⴖ	cut_a_stereo_44KHz.wav
3	78	2	1	0	C	2	1	688	1	Ⴐ	cut_u_stereo_44KHz.wav
3	79	4	3	2	I	2	0	685	1	Ⴉ	cut_a_stereo_44KHz.wav
3	80	1	2	0	C	1	0	1509	0	Ⴔ	cut_k_stereo_44KHz.wav
3	81	2	1	0	C	2	1	915	1	Ⴐ	cut_u_stereo_44KHz.wav
3	82	4	4	2	I	2	0	1872	1	Ⴉ	cut_o_stereo_44KHz.wav
3	83	3	3	2	I	2	0	1131	1	Ⴖ	cut_a_stereo_44KHz.wav
3	84	1	1	1	C	2	0	923	0	Ⴔ	cut_u_stereo_44KHz.wav
3	85	2	2	1	C	1	1	1519	1	Ⴐ	cut_k_stereo_44KHz.wav
3	86	3	4	2	I	2	0	928	1	Ⴖ	cut_o_stereo_44KHz.wav
3	87	4	3	2	I	1	0	1226	1	Ⴉ	cut_a_stereo_44KHz.wav
3	88	1	2	0	C	2	1	1153	1	Ⴔ	cut_k_stereo_44KHz.wav
3	89	4	4	2	I	1	0	1424	1	Ⴉ	cut_o_stereo_44KHz.wav
3	90	3	3	2	I	2	0	1599	1	Ⴖ	cut_a_stereo_44KHz.wav
3	91	1	1	1	C	2	0	782	0	Ⴔ	cut_u_stereo_44KHz.wav
3	92	2	1	0	C	1	0	954	0	Ⴐ	cut_u_stereo_44KHz.wav
3	93	4	3	2	I	2	0	1401	1	Ⴉ	cut_a_stereo_44KHz.wav
3	94	2	2	1	C	2	0	778	0	Ⴐ	cut_k_stereo_44KHz.wav
3	95	1	2	0	C	1	0	1420	0	Ⴔ	cut_k_stereo_44KHz.wav
3	96	3	4	2	I	2	0	607	0	Ⴖ	cut_o_stereo_44KHz.wav
3	97	4	4	2	I	1	0	550	1	Ⴉ	cut_o_stereo_44KHz.wav
3	98	2	2	1	C	0	0	0	0	Ⴐ	cut_k_stereo_44KHz.wav
3	99	1	1	1	C	2	0	468	0	Ⴔ	cut_u_stereo_44KHz.wav
3	100	3	4	2	I	1	0	328	0	Ⴖ	cut_o_stereo_44KHz.wav
3	101	2	1	0	C	2	1	711	1	Ⴐ	cut_u_stereo_44KHz.wav
3	102	3	3	2	I	2	0	389	1	Ⴖ	cut_a_stereo_44KHz.wav
3	103	4	3	2	I	2	0	550	1	Ⴉ	cut_a_stereo_44KHz.wav
3	104	1	2	0	C	2	1	558	1	Ⴔ	cut_k_stereo_44KHz.wav
3	105	2	1	0	C	2	1	779	1	Ⴐ	cut_u_stereo_44KHz.wav
3	106	3	4	2	I	2	0	795	1	Ⴖ	cut_o_stereo_44KHz.wav
3	107	4	4	2	I	2	0	632	0	Ⴉ	cut_o_stereo_44KHz.wav
3	108	1	1	1	C	2	0	404	0	Ⴔ	cut_u_stereo_44KHz.wav
3	109	3	3	2	I	1	0	270	1	Ⴖ	cut_a_stereo_44KHz.wav
3	110	2	2	1	C	1	1	456	1	Ⴐ	cut_k_stereo_44KHz.wav
3	111	1	2	0	C	1	0	529	0	Ⴔ	cut_k_stereo_44KHz.wav
3	112	4	3	2	I	1	0	762	1	Ⴉ	cut_a_stereo_44KHz.wav
3	113	1	2	0	C	1	0	708	0	Ⴔ	cut_k_stereo_44KHz.wav
3	114	3	4	2	I	2	0	538	1	Ⴖ	cut_o_stereo_44KHz.wav
3	115	2	1	0	C	2	1	1084	1	Ⴐ	cut_u_stereo_44KHz.wav
3	116	4	4	2	I	2	0	1301	1	Ⴉ	cut_o_stereo_44KHz.wav
3	117	2	2	1	C	2	0	903	0	Ⴐ	cut_k_stereo_44KHz.wav
3	118	4	3	2	I	2	0	604	1	Ⴉ	cut_a_stereo_44KHz.wav
3	119	1	1	1	C	2	0	10	0	Ⴔ	cut_u_stereo_44KHz.wav
3	120	3	3	2	I	1	0	806	1	Ⴖ	cut_a_stereo_44KHz.wav
3	121	2	1	0	C	1	0	871	0	Ⴐ	cut_u_stereo_44KHz.wav
3	122	3	3	2	I	2	0	930	1	Ⴖ	cut_a_stereo_44KHz.wav
3	123	1	1	1	C	2	0	1336	0	Ⴔ	cut_u_stereo_44KHz.wav
3	124	4	3	2	I	1	0	830	1	Ⴉ	cut_a_stereo_44KHz.wav
3	125	1	2	0	C	1	0	847	0	Ⴔ	cut_k_stereo_44KHz.wav
3	126	2	2	1	C	1	1	724	1	Ⴐ	cut_k_stereo_44KHz.wav
3	127	3	4	2	I	1	0	1177	1	Ⴖ	cut_o_stereo_44KHz.wav
3	128	4	4	2	I	1	0	669	1	Ⴉ	cut_o_stereo_44KHz.wav
3	129	1	1	1	C	2	0	1215	0	Ⴔ	cut_u_stereo_44KHz.wav
3	130	4	4	2	I	2	0	1471	1	Ⴉ	cut_o_stereo_44KHz.wav
3	131	3	4	2	I	2	0	1890	1	Ⴖ	cut_o_stereo_44KHz.wav
3	132	2	2	1	C	2	0	1352	0	Ⴐ	cut_k_stereo_44KHz.wav
3	133	3	3	2	I	1	0	693	1	Ⴖ	cut_a_stereo_44KHz.wav
3	134	2	1	0	C	2	1	1889	1	Ⴐ	cut_u_stereo_44KHz.wav
3	135	1	2	0	C	2	1	550	1	Ⴔ	cut_k_stereo_44KHz.wav
3	136	4	3	2	I	1	0	827	1	Ⴉ	cut_a_stereo_44KHz.wav
3	137	1	2	0	C	1	0	782	0	Ⴔ	cut_k_stereo_44KHz.wav
3	138	4	3	2	I	2	0	614	1	Ⴉ	cut_a_stereo_44KHz.wav
3	139	2	2	1	C	2	0	1167	0	Ⴐ	cut_k_stereo_44KHz.wav
3	140	3	4	2	I	1	0	988	1	Ⴖ	cut_o_stereo_44KHz.wav
3	141	1	1	1	C	1	1	743	1	Ⴔ	cut_u_stereo_44KHz.wav
3	142	2	1	0	C	2	1	740	1	Ⴐ	cut_u_stereo_44KHz.wav
3	143	3	3	2	I	2	0	613	1	Ⴖ	cut_a_stereo_44KHz.wav
3	144	4	4	2	I	2	0	668	0	Ⴉ	cut_o_stereo_44KHz.wav
3	145	1	1	1	C	2	0	743	0	Ⴔ	cut_u_stereo_44KHz.wav
3	146	3	4	2	I	1	0	890	1	Ⴖ	cut_o_stereo_44KHz.wav
3	147	4	4	2	I	1	0	1144	1	Ⴉ	cut_o_stereo_44KHz.wav
3	148	2	1	0	C	2	1	836	1	Ⴐ	cut_u_stereo_44KHz.wav
3	149	4	3	2	I	2	0	1364	1	Ⴉ	cut_a_stereo_44KHz.wav
3	150	2	2	1	C	2	0	627	0	Ⴐ	cut_k_stereo_44KHz.wav
3	151	3	3	2	I	1	0	1281	1	Ⴖ	cut_a_stereo_44KHz.wav
3	152	1	2	0	C	2	1	1608	1	Ⴔ	cut_k_stereo_44KHz.wav
3	153	3	4	2	I	1	0	834	1	Ⴖ	cut_o_stereo_44KHz.wav
3	154	4	3	2	I	2	0	736	1	Ⴉ	cut_a_stereo_44KHz.wav
3	155	2	1	0	C	2	1	736	1	Ⴐ	cut_u_stereo_44KHz.wav
3	156	1	1	1	C	2	0	666	0	Ⴔ	cut_u_stereo_44KHz.wav
3	157	2	2	1	C	1	1	647	1	Ⴐ	cut_k_stereo_44KHz.wav
3	158	1	2	0	C	2	1	1263	1	Ⴔ	cut_k_stereo_44KHz.wav
3	159	3	3	2	I	1	0	747	1	Ⴖ	cut_a_stereo_44KHz.wav
3	160	4	4	2	I	1	0	978	0	Ⴉ	cut_o_stereo_44KHz.wav
3	161	2	2	1	C	2	0	628	0	Ⴐ	cut_k_stereo_44KHz.wav
3	162	1	2	0	C	2	1	361	1	Ⴔ	cut_k_stereo_44KHz.wav
3	163	4	3	2	I	2	0	887	1	Ⴉ	cut_a_stereo_44KHz.wav
3	164	3	4	2	I	2	0	370	1	Ⴖ	cut_o_stereo_44KHz.wav
3	165	1	1	1	C	1	1	128	1	Ⴔ	cut_u_stereo_44KHz.wav
3	166	2	1	0	C	2	1	449	1	Ⴐ	cut_u_stereo_44KHz.wav
3	167	4	4	2	I	2	0	414	1	Ⴉ	cut_o_stereo_44KHz.wav
3	168	3	3	2	I	1	0	446	1	Ⴖ	cut_a_stereo_44KHz.wav
3	169	1	1	1	C	2	0	611	0	Ⴔ	cut_u_stereo_44KHz.wav
3	170	3	3	2	I	2	0	1455	1	Ⴖ	cut_a_stereo_44KHz.wav
3	171	2	1	0	C	1	0	933	0	Ⴐ	cut_u_stereo_44KHz.wav
3	172	4	4	2	I	2	0	990	1	Ⴉ	cut_o_stereo_44KHz.wav
3	173	2	2	1	C	2	0	674	0	Ⴐ	cut_k_stereo_44KHz.wav
3	174	4	3	2	I	1	0	675	1	Ⴉ	cut_a_stereo_44KHz.wav
3	175	3	4	2	I	1	0	1332	1	Ⴖ	cut_o_stereo_44KHz.wav
3	176	1	2	0	C	1	0	1141	0	Ⴔ	cut_k_stereo_44KHz.wav
3	177	3	4	2	I	2	0	715	0	Ⴖ	cut_o_stereo_44KHz.wav
3	178	4	4	2	I	1	0	654	1	Ⴉ	cut_o_stereo_44KHz.wav
3	179	2	2	1	C	2	0	688	0	Ⴐ	cut_k_stereo_44KHz.wav
3	180	1	1	1	C	1	1	669	1	Ⴔ	cut_u_stereo_44KHz.wav
3	181	3	3	2	I	2	0	547	0	Ⴖ	cut_a_stereo_44KHz.wav
3	182	1	2	0	C	1	0	1448	0	Ⴔ	cut_k_stereo_44KHz.wav
3	183	2	1	0	C	2	1	512	1	Ⴐ	cut_u_stereo_44KHz.wav
3	184	4	3	2	I	2	0	681	0	Ⴉ	cut_a_stereo_44KHz.wav
3	185	3	3	2	I	1	0	570	1	Ⴖ	cut_a_stereo_44KHz.wav
3	186	1	2	0	C	1	0	770	0	Ⴔ	cut_k_stereo_44KHz.wav
3	187	2	1	0	C	2	1	795	1	Ⴐ	cut_u_stereo_44KHz.wav
3	188	4	3	2	I	2	0	1101	1	Ⴉ	cut_a_stereo_44KHz.wav
3	189	2	2	1	C	2	0	752	0	Ⴐ	cut_k_stereo_44KHz.wav
3	190	3	4	2	I	2	0	1598	1	Ⴖ	cut_o_stereo_44KHz.wav
3	191	4	4	2	I	2	0	1277	1	Ⴉ	cut_o_stereo_44KHz.wav
3	192	1	1	1	C	2	0	1371	0	Ⴔ	cut_u_stereo_44KHz.wav
3	193	2	1	0	C	1	0	576	0	Ⴐ	cut_u_stereo_44KHz.wav
3	194	3	4	2	I	2	0	783	0	Ⴖ	cut_o_stereo_44KHz.wav
3	195	1	2	0	C	1	0	647	0	Ⴔ	cut_k_stereo_44KHz.wav
3	196	4	3	2	I	1	0	245	1	Ⴉ	cut_a_stereo_44KHz.wav
3	197	1	1	1	C	1	1	1234	1	Ⴔ	cut_u_stereo_44KHz.wav
3	198	3	3	2	I	1	0	823	1	Ⴖ	cut_a_stereo_44KHz.wav
3	199	4	4	2	I	1	0	1488	0	Ⴉ	cut_o_stereo_44KHz.wav
3	200	2	2	1	C	2	0	1223	0	Ⴐ	cut_k_stereo_44KHz.wav
4	1	4	3	2	I	2	0	1603	1	Ⴊ	cut_s_stereo_44KHz.wav
4	2	2	2	1	C	1	1	1590	1	Ⴡ	cut_f_stereo_44KHz.wav
4	3	1	1	1	C	2	0	1308	0	Ⴜ	cut_ei_stereo_44KHz.wav
4	4	3	4	2	I	2	0	1938	1	Ⴇ	cut_j_stereo_44KHz.wav
4	5	1	2	0	C	1	0	1905	0	Ⴜ	cut_f_stereo_44KHz.wav
4	6	2	1	0	C	2	1	1603	1	Ⴡ	cut_ei_stereo_44KHz.wav
4	7	3	3	2	I	2	0	968	1	Ⴇ	cut_s_stereo_44KHz.wav
4	8	4	4	2	I	2	0	1825	1	Ⴊ	cut_j_stereo_44KHz.wav
4	9	2	1	0	C	1	0	1338	0	Ⴡ	cut_ei_stereo_44KHz.wav
4	10	1	1	1	C	2	0	1117	0	Ⴜ	cut_ei_stereo_44KHz.wav
4	11	4	4	2	I	1	0	1391	0	Ⴊ	cut_j_stereo_44KHz.wav
4	12	3	3	2	I	1	0	1275	0	Ⴇ	cut_s_stereo_44KHz.wav
4	13	4	3	2	I	0	0	0	0	Ⴊ	cut_s_stereo_44KHz.wav
4	14	2	2	1	C	2	0	1190	0	Ⴡ	cut_f_stereo_44KHz.wav
4	15	3	4	2	I	1	0	954	0	Ⴇ	cut_j_stereo_44KHz.wav
4	16	1	2	0	C	2	1	806	1	Ⴜ	cut_f_stereo_44KHz.wav
4	17	3	4	2	I	2	0	1117	1	Ⴇ	cut_j_stereo_44KHz.wav
4	18	4	3	2	I	2	0	1200	1	Ⴊ	cut_s_stereo_44KHz.wav
4	19	2	1	0	C	2	1	1125	1	Ⴡ	cut_ei_stereo_44KHz.wav
4	20	1	2	0	C	2	1	654	1	Ⴜ	cut_f_stereo_44KHz.wav
4	21	2	2	1	C	2	0	1380	0	Ⴡ	cut_f_stereo_44KHz.wav
4	22	3	3	2	I	1	0	1789	0	Ⴇ	cut_s_stereo_44KHz.wav
4	23	4	4	2	I	2	0	1084	0	Ⴊ	cut_j_stereo_44KHz.wav
4	24	1	1	1	C	1	1	1344	1	Ⴜ	cut_ei_stereo_44KHz.wav
4	25	4	4	2	I	2	0	938	1	Ⴊ	cut_j_stereo_44KHz.wav
4	26	2	2	1	C	2	0	1912	0	Ⴡ	cut_f_stereo_44KHz.wav
4	27	1	2	0	C	1	0	1599	0	Ⴜ	cut_f_stereo_44KHz.wav
4	28	3	4	2	I	2	0	1955	1	Ⴇ	cut_j_stereo_44KHz.wav
4	29	2	1	0	C	2	1	1678	1	Ⴡ	cut_ei_stereo_44KHz.wav
4	30	1	1	1	C	2	0	899	0	Ⴜ	cut_ei_stereo_44KHz.wav
4	31	4	3	2	I	1	0	785	1	Ⴊ	cut_s_stereo_44KHz.wav
4	32	3	3	2	I	1	0	916	1	Ⴇ	cut_s_stereo_44KHz.wav
4	33	2	2	1	C	2	0	1675	0	Ⴡ	cut_f_stereo_44KHz.wav
4	34	3	4	2	I	1	0	1166	1	Ⴇ	cut_j_stereo_44KHz.wav
4	35	1	1	1	C	1	1	905	1	Ⴜ	cut_ei_stereo_44KHz.wav
4	36	4	4	2	I	2	0	1190	1	Ⴊ	cut_j_stereo_44KHz.wav
4	37	2	1	0	C	2	1	727	1	Ⴡ	cut_ei_stereo_44KHz.wav
4	38	4	3	2	I	2	0	1425	1	Ⴊ	cut_s_stereo_44KHz.wav
4	39	1	2	0	C	2	1	1309	1	Ⴜ	cut_f_stereo_44KHz.wav
4	40	3	3	2	I	2	0	1041	0	Ⴇ	cut_s_stereo_44KHz.wav
4	41	4	4	2	I	1	0	1128	1	Ⴊ	cut_j_stereo_44KHz.wav
4	42	3	4	2	I	2	0	1219	1	Ⴇ	cut_j_stereo_44KHz.wav
4	43	2	2	1	C	2	0	891	0	Ⴡ	cut_f_stereo_44KHz.wav
4	44	1	1	1	C	1	1	605	1	Ⴜ	cut_ei_stereo_44KHz.wav
4	45	2	1	0	C	2	1	6	1	Ⴡ	cut_ei_stereo_44KHz.wav
4	46	4	3	2	I	1	0	937	1	Ⴊ	cut_s_stereo_44KHz.wav
4	47	3	3	2	I	2	0	579	1	Ⴇ	cut_s_stereo_44KHz.wav
4	48	1	2	0	C	2	1	839	1	Ⴜ	cut_f_stereo_44KHz.wav
4	49	3	4	2	I	2	0	907	1	Ⴇ	cut_j_stereo_44KHz.wav
4	50	1	2	0	C	2	1	1429	1	Ⴜ	cut_f_stereo_44KHz.wav
4	51	2	1	0	C	2	1	1042	1	Ⴡ	cut_ei_stereo_44KHz.wav
4	52	4	4	2	I	2	0	1248	1	Ⴊ	cut_j_stereo_44KHz.wav
4	53	2	2	1	C	2	0	1325	0	Ⴡ	cut_f_stereo_44KHz.wav
4	54	3	3	2	I	1	0	1509	1	Ⴇ	cut_s_stereo_44KHz.wav
4	55	1	1	1	C	1	1	1754	1	Ⴜ	cut_ei_stereo_44KHz.wav
4	56	4	3	2	I	1	0	1389	0	Ⴊ	cut_s_stereo_44KHz.wav
4	57	3	4	2	I	2	0	963	1	Ⴇ	cut_j_stereo_44KHz.wav
4	58	2	1	0	C	2	1	1552	1	Ⴡ	cut_ei_stereo_44KHz.wav
4	59	4	4	2	I	2	0	953	1	Ⴊ	cut_j_stereo_44KHz.wav
4	60	1	2	0	C	2	1	1471	1	Ⴜ	cut_f_stereo_44KHz.wav
4	61	2	2	1	C	2	0	1480	0	Ⴡ	cut_f_stereo_44KHz.wav
4	62	4	3	2	I	1	0	1244	1	Ⴊ	cut_s_stereo_44KHz.wav
4	63	1	1	1	C	1	1	1488	1	Ⴜ	cut_ei_stereo_44KHz.wav
4	64	3	3	2	I	1	0	1190	1	Ⴇ	cut_s_stereo_44KHz.wav
4	65	1	2	0	C	2	1	1045	1	Ⴜ	cut_f_stereo_44KHz.wav
4	66	2	2	1	C	1	1	1233	1	Ⴡ	cut_f_stereo_44KHz.wav
4	67	4	4	2	I	2	0	979	1	Ⴊ	cut_j_stereo_44KHz.wav
4	68	3	3	2	I	2	0	828	1	Ⴇ	cut_s_stereo_44KHz.wav
4	69	1	1	1	C	1	1	1489	1	Ⴜ	cut_ei_stereo_44KHz.wav
4	70	2	1	0	C	2	1	1482	1	Ⴡ	cut_ei_stereo_44KHz.wav
4	71	3	4	2	I	2	0	872	1	Ⴇ	cut_j_stereo_44KHz.wav
4	72	4	3	2	I	2	0	1527	1	Ⴊ	cut_s_stereo_44KHz.wav
4	73	1	1	1	C	1	1	1560	1	Ⴜ	cut_ei_stereo_44KHz.wav
4	74	3	3	2	I	2	0	946	1	Ⴇ	cut_s_stereo_44KHz.wav
4	75	2	2	1	C	2	0	1662	0	Ⴡ	cut_f_stereo_44KHz.wav
4	76	4	4	2	I	1	0	1002	1	Ⴊ	cut_j_stereo_44KHz.wav
4	77	1	2	0	C	2	1	1093	1	Ⴜ	cut_f_stereo_44KHz.wav
4	78	2	1	0	C	1	0	1372	0	Ⴡ	cut_ei_stereo_44KHz.wav
4	79	4	3	2	I	2	0	1296	1	Ⴊ	cut_s_stereo_44KHz.wav
4	80	3	4	2	I	2	0	1273	0	Ⴇ	cut_j_stereo_44KHz.wav
4	81	2	2	1	C	1	1	1637	1	Ⴡ	cut_f_stereo_44KHz.wav
4	82	1	1	1	C	1	1	1575	1	Ⴜ	cut_ei_stereo_44KHz.wav
4	83	3	4	2	I	2	0	994	1	Ⴇ	cut_j_stereo_44KHz.wav
4	84	4	3	2	I	2	0	931	1	Ⴊ	cut_s_stereo_44KHz.wav
4	85	3	3	2	I	2	0	1262	1	Ⴇ	cut_s_stereo_44KHz.wav
4	86	4	4	2	I	2	0	1048	1	Ⴊ	cut_j_stereo_44KHz.wav
4	87	1	2	0	C	2	1	903	1	Ⴜ	cut_f_stereo_44KHz.wav
4	88	2	1	0	C	2	1	803	1	Ⴡ	cut_ei_stereo_44KHz.wav
4	89	3	4	2	I	2	0	625	1	Ⴇ	cut_j_stereo_44KHz.wav
4	90	1	2	0	C	2	1	1372	1	Ⴜ	cut_f_stereo_44KHz.wav
4	91	2	2	1	C	1	1	1247	1	Ⴡ	cut_f_stereo_44KHz.wav
4	92	4	3	2	I	2	0	1248	1	Ⴊ	cut_s_stereo_44KHz.wav
4	93	3	3	2	I	2	0	1139	1	Ⴇ	cut_s_stereo_44KHz.wav
4	94	2	1	0	C	1	0	1073	0	Ⴡ	cut_ei_stereo_44KHz.wav
4	95	4	4	2	I	2	0	806	0	Ⴊ	cut_j_stereo_44KHz.wav
4	96	1	1	1	C	1	1	1499	1	Ⴜ	cut_ei_stereo_44KHz.wav
4	97	2	1	0	C	0	0	0	0	Ⴡ	cut_ei_stereo_44KHz.wav
4	98	1	1	1	C	1	1	912	1	Ⴜ	cut_ei_stereo_44KHz.wav
4	99	4	4	2	I	0	0	0	0	Ⴊ	cut_j_stereo_44KHz.wav
4	100	3	4	2	I	2	0	1226	0	Ⴇ	cut_j_stereo_44KHz.wav
4	101	4	3	2	I	1	0	923	1	Ⴊ	cut_s_stereo_44KHz.wav
4	102	3	3	2	I	2	0	944	1	Ⴇ	cut_s_stereo_44KHz.wav
4	103	1	2	0	C	2	1	1648	1	Ⴜ	cut_f_stereo_44KHz.wav
4	104	2	2	1	C	2	0	1539	0	Ⴡ	cut_f_stereo_44KHz.wav
4	105	1	1	1	C	1	1	995	1	Ⴜ	cut_ei_stereo_44KHz.wav
4	106	3	4	2	I	2	0	840	1	Ⴇ	cut_j_stereo_44KHz.wav
4	107	4	4	2	I	2	0	1571	0	Ⴊ	cut_j_stereo_44KHz.wav
4	108	2	2	1	C	1	1	767	1	Ⴡ	cut_f_stereo_44KHz.wav
4	109	3	3	2	I	2	0	1543	1	Ⴇ	cut_s_stereo_44KHz.wav
4	110	4	3	2	I	2	0	1008	1	Ⴊ	cut_s_stereo_44KHz.wav
4	111	2	1	0	C	1	0	644	0	Ⴡ	cut_ei_stereo_44KHz.wav
4	112	1	2	0	C	2	1	648	1	Ⴜ	cut_f_stereo_44KHz.wav
4	113	2	1	0	C	2	1	522	1	Ⴡ	cut_ei_stereo_44KHz.wav
4	114	1	2	0	C	2	1	938	1	Ⴜ	cut_f_stereo_44KHz.wav
4	115	4	3	2	I	2	0	1119	1	Ⴊ	cut_s_stereo_44KHz.wav
4	116	3	3	2	I	2	0	503	1	Ⴇ	cut_s_stereo_44KHz.wav
4	117	2	2	1	C	2	0	957	0	Ⴡ	cut_f_stereo_44KHz.wav
4	118	3	4	2	I	1	0	866	1	Ⴇ	cut_j_stereo_44KHz.wav
4	119	1	1	1	C	1	1	709	1	Ⴜ	cut_ei_stereo_44KHz.wav
4	120	4	4	2	I	2	0	1165	1	Ⴊ	cut_j_stereo_44KHz.wav
4	121	2	1	0	C	2	1	647	1	Ⴡ	cut_ei_stereo_44KHz.wav
4	122	4	3	2	I	2	0	1162	0	Ⴊ	cut_s_stereo_44KHz.wav
4	123	1	1	1	C	1	1	954	1	Ⴜ	cut_ei_stereo_44KHz.wav
4	124	3	4	2	I	2	0	1051	1	Ⴇ	cut_j_stereo_44KHz.wav
4	125	4	4	2	I	1	0	855	1	Ⴊ	cut_j_stereo_44KHz.wav
4	126	2	2	1	C	2	0	1022	0	Ⴡ	cut_f_stereo_44KHz.wav
4	127	3	3	2	I	1	0	1251	1	Ⴇ	cut_s_stereo_44KHz.wav
4	128	1	2	0	C	1	0	699	0	Ⴜ	cut_f_stereo_44KHz.wav
4	129	3	4	2	I	2	0	1415	0	Ⴇ	cut_j_stereo_44KHz.wav
4	130	2	1	0	C	1	0	727	0	Ⴡ	cut_ei_stereo_44KHz.wav
4	131	4	3	2	I	1	0	1074	1	Ⴊ	cut_s_stereo_44KHz.wav
4	132	1	2	0	C	1	0	1443	0	Ⴜ	cut_f_stereo_44KHz.wav
4	133	2	2	1	C	2	0	394	0	Ⴡ	cut_f_stereo_44KHz.wav
4	134	3	3	2	I	1	0	1318	1	Ⴇ	cut_s_stereo_44KHz.wav
4	135	1	1	1	C	2	0	1689	0	Ⴜ	cut_ei_stereo_44KHz.wav
4	136	4	4	2	I	1	0	1116	1	Ⴊ	cut_j_stereo_44KHz.wav
4	137	3	3	2	I	2	0	1010	1	Ⴇ	cut_s_stereo_44KHz.wav
4	138	4	3	2	I	2	0	1277	0	Ⴊ	cut_s_stereo_44KHz.wav
4	139	1	2	0	C	1	0	1042	0	Ⴜ	cut_f_stereo_44KHz.wav
4	140	2	1	0	C	2	1	619	1	Ⴡ	cut_ei_stereo_44KHz.wav
4	141	3	4	2	I	2	0	784	1	Ⴇ	cut_j_stereo_44KHz.wav
4	142	1	1	1	C	2	0	1462	0	Ⴜ	cut_ei_stereo_44KHz.wav
4	143	2	2	1	C	2	0	828	0	Ⴡ	cut_f_stereo_44KHz.wav
4	144	4	4	2	I	1	0	1487	0	Ⴊ	cut_j_stereo_44KHz.wav
4	145	1	1	1	C	2	0	1253	0	Ⴜ	cut_ei_stereo_44KHz.wav
4	146	3	4	2	I	2	0	1362	1	Ⴇ	cut_j_stereo_44KHz.wav
4	147	2	2	1	C	2	0	1451	0	Ⴡ	cut_f_stereo_44KHz.wav
4	148	4	3	2	I	1	0	1166	1	Ⴊ	cut_s_stereo_44KHz.wav
4	149	3	3	2	I	2	0	1290	1	Ⴇ	cut_s_stereo_44KHz.wav
4	150	1	2	0	C	1	0	1022	0	Ⴜ	cut_f_stereo_44KHz.wav
4	151	4	4	2	I	2	0	1139	1	Ⴊ	cut_j_stereo_44KHz.wav
4	152	2	1	0	C	2	1	1945	1	Ⴡ	cut_ei_stereo_44KHz.wav
4	153	1	2	0	C	2	1	880	1	Ⴜ	cut_f_stereo_44KHz.wav
4	154	2	2	1	C	2	0	933	0	Ⴡ	cut_f_stereo_44KHz.wav
4	155	4	4	2	I	2	0	1616	1	Ⴊ	cut_j_stereo_44KHz.wav
4	156	3	4	2	I	2	0	1070	1	Ⴇ	cut_j_stereo_44KHz.wav
4	157	4	3	2	I	2	0	1493	1	Ⴊ	cut_s_stereo_44KHz.wav
4	158	1	1	1	C	2	0	1307	0	Ⴜ	cut_ei_stereo_44KHz.wav
4	159	3	3	2	I	2	0	1711	1	Ⴇ	cut_s_stereo_44KHz.wav
4	160	2	1	0	C	2	1	705	1	Ⴡ	cut_ei_stereo_44KHz.wav
4	161	4	4	2	I	2	0	1243	1	Ⴊ	cut_j_stereo_44KHz.wav
4	162	1	2	0	C	1	0	1692	0	Ⴜ	cut_f_stereo_44KHz.wav
4	163	3	4	2	I	1	0	1291	1	Ⴇ	cut_j_stereo_44KHz.wav
4	164	2	2	1	C	2	0	749	0	Ⴡ	cut_f_stereo_44KHz.wav
4	165	1	1	1	C	1	1	1318	1	Ⴜ	cut_ei_stereo_44KHz.wav
4	166	4	3	2	I	2	0	1832	1	Ⴊ	cut_s_stereo_44KHz.wav
4	167	3	3	2	I	2	0	1248	0	Ⴇ	cut_s_stereo_44KHz.wav
4	168	2	1	0	C	1	0	982	0	Ⴡ	cut_ei_stereo_44KHz.wav
4	169	3	4	2	I	2	0	940	1	Ⴇ	cut_j_stereo_44KHz.wav
4	170	4	4	2	I	2	0	870	1	Ⴊ	cut_j_stereo_44KHz.wav
4	171	2	2	1	C	2	0	691	0	Ⴡ	cut_f_stereo_44KHz.wav
4	172	1	2	0	C	1	0	777	0	Ⴜ	cut_f_stereo_44KHz.wav
4	173	3	3	2	I	2	0	360	1	Ⴇ	cut_s_stereo_44KHz.wav
4	174	1	1	1	C	2	0	192	0	Ⴜ	cut_ei_stereo_44KHz.wav
4	175	4	3	2	I	1	0	536	1	Ⴊ	cut_s_stereo_44KHz.wav
4	176	2	1	0	C	1	0	761	0	Ⴡ	cut_ei_stereo_44KHz.wav
4	177	4	4	2	I	2	0	744	0	Ⴊ	cut_j_stereo_44KHz.wav
4	178	2	1	0	C	2	1	680	1	Ⴡ	cut_ei_stereo_44KHz.wav
4	179	3	3	2	I	2	0	1217	1	Ⴇ	cut_s_stereo_44KHz.wav
4	180	1	2	0	C	2	1	1368	1	Ⴜ	cut_f_stereo_44KHz.wav
4	181	3	4	2	I	2	0	1162	0	Ⴇ	cut_j_stereo_44KHz.wav
4	182	4	3	2	I	1	0	1023	0	Ⴊ	cut_s_stereo_44KHz.wav
4	183	1	1	1	C	2	0	1848	0	Ⴜ	cut_ei_stereo_44KHz.wav
4	184	2	2	1	C	1	1	969	1	Ⴡ	cut_f_stereo_44KHz.wav
4	185	3	4	2	I	1	0	545	1	Ⴇ	cut_j_stereo_44KHz.wav
4	186	2	2	1	C	1	1	1048	1	Ⴡ	cut_f_stereo_44KHz.wav
4	187	1	1	1	C	1	1	956	1	Ⴜ	cut_ei_stereo_44KHz.wav
4	188	4	3	2	I	1	0	953	1	Ⴊ	cut_s_stereo_44KHz.wav
4	189	2	1	0	C	1	0	833	0	Ⴡ	cut_ei_stereo_44KHz.wav
4	190	1	2	0	C	1	0	551	0	Ⴜ	cut_f_stereo_44KHz.wav
4	191	3	3	2	I	0	0	0	0	Ⴇ	cut_s_stereo_44KHz.wav
4	192	4	4	2	I	0	0	0	0	Ⴊ	cut_j_stereo_44KHz.wav
4	193	1	1	1	C	2	0	508	0	Ⴜ	cut_ei_stereo_44KHz.wav
4	194	2	2	1	C	1	1	650	1	Ⴡ	cut_f_stereo_44KHz.wav
4	195	4	4	2	I	1	0	613	1	Ⴊ	cut_j_stereo_44KHz.wav
4	196	3	4	2	I	2	0	818	1	Ⴇ	cut_j_stereo_44KHz.wav
4	197	2	1	0	C	2	1	638	1	Ⴡ	cut_ei_stereo_44KHz.wav
4	198	3	3	2	I	1	0	1225	1	Ⴇ	cut_s_stereo_44KHz.wav
4	199	4	3	2	I	2	0	833	1	Ⴊ	cut_s_stereo_44KHz.wav
4	200	1	2	0	C	2	1	674	1	Ⴜ	cut_f_stereo_44KHz.wav
