block	trial	Vstim	Astim	match	C/I	resp	result	RT	fb	V-file	A-file
LR

0	1	2	4	0	C	0	0	0	0	Ⴋ	cut_ee_stereo_44KHz.wav
0	2	1	2	0	C	0	0	0	0	Ⴞ	cut_eeuw_stereo_44KHz.wav
0	3	1	1	1	C	1	0	1518	0	Ⴞ	cut_g_stereo_44KHz.wav
0	4	2	3	1	C	0	0	0	0	Ⴋ	cut_oo_stereo_44KHz.wav
0	5	2	3	1	C	0	0	0	0	Ⴋ	cut_oo_stereo_44KHz.wav
0	6	1	2	0	C	2	0	1426	0	Ⴞ	cut_eeuw_stereo_44KHz.wav
0	7	2	4	0	C	0	0	0	0	Ⴋ	cut_ee_stereo_44KHz.wav
0	8	1	1	1	C	1	0	966	0	Ⴞ	cut_g_stereo_44KHz.wav
0	9	2	4	0	C	1	1	1186	1	Ⴋ	cut_ee_stereo_44KHz.wav
0	10	1	2	0	C	2	0	853	0	Ⴞ	cut_eeuw_stereo_44KHz.wav
0	11	1	1	1	C	1	0	1915	0	Ⴞ	cut_g_stereo_44KHz.wav
0	12	2	3	1	C	0	0	0	0	Ⴋ	cut_oo_stereo_44KHz.wav
0	13	2	4	0	C	2	0	1526	0	Ⴋ	cut_ee_stereo_44KHz.wav
0	14	2	3	1	C	1	0	1164	0	Ⴋ	cut_oo_stereo_44KHz.wav
0	15	1	2	0	C	2	0	950	0	Ⴞ	cut_eeuw_stereo_44KHz.wav
0	16	1	1	1	C	1	0	725	0	Ⴞ	cut_g_stereo_44KHz.wav
0	17	1	2	0	C	2	0	840	0	Ⴞ	cut_eeuw_stereo_44KHz.wav
0	18	1	1	1	C	2	1	996	1	Ⴞ	cut_g_stereo_44KHz.wav
0	19	2	3	1	C	1	0	1014	0	Ⴋ	cut_oo_stereo_44KHz.wav
0	20	2	4	0	C	2	0	1108	0	Ⴋ	cut_ee_stereo_44KHz.wav
0	21	1	1	1	C	1	0	861	0	Ⴞ	cut_g_stereo_44KHz.wav
0	22	2	4	0	C	0	0	0	0	Ⴋ	cut_ee_stereo_44KHz.wav
0	23	1	2	0	C	0	0	0	0	Ⴞ	cut_eeuw_stereo_44KHz.wav
0	24	2	3	1	C	0	0	0	0	Ⴋ	cut_oo_stereo_44KHz.wav
0	25	2	3	1	C	0	0	0	0	Ⴋ	cut_oo_stereo_44KHz.wav
0	26	1	1	1	C	0	0	0	0	Ⴞ	cut_g_stereo_44KHz.wav
0	27	1	2	0	C	0	0	0	0	Ⴞ	cut_eeuw_stereo_44KHz.wav
0	28	2	4	0	C	1	1	1065	1	Ⴋ	cut_ee_stereo_44KHz.wav
0	29	1	1	1	C	1	0	905	0	Ⴞ	cut_g_stereo_44KHz.wav
0	30	1	2	0	C	0	0	0	0	Ⴞ	cut_eeuw_stereo_44KHz.wav
avg_resp = 1082
1	1	3	4	2	I	0	0	0	0	Ⴐ	cut_u_stereo_44KHz.wav
1	2	1	2	0	C	1	1	804	1	Ⴉ	cut_o_stereo_44KHz.wav
1	3	2	1	0	C	1	1	813	1	Ⴔ	cut_a_stereo_44KHz.wav
1	4	4	3	2	I	0	0	0	0	Ⴖ	cut_k_stereo_44KHz.wav
1	5	3	3	2	I	0	0	0	0	Ⴐ	cut_k_stereo_44KHz.wav
1	6	2	2	1	C	1	0	656	0	Ⴔ	cut_o_stereo_44KHz.wav
1	7	4	4	2	I	0	0	0	0	Ⴖ	cut_u_stereo_44KHz.wav
1	8	1	1	1	C	1	0	607	0	Ⴉ	cut_a_stereo_44KHz.wav
1	9	2	1	0	C	1	1	576	1	Ⴔ	cut_a_stereo_44KHz.wav
1	10	4	3	2	I	0	0	0	0	Ⴖ	cut_k_stereo_44KHz.wav
1	11	1	2	0	C	1	1	588	1	Ⴉ	cut_o_stereo_44KHz.wav
1	12	3	4	2	I	0	0	0	0	Ⴐ	cut_u_stereo_44KHz.wav
1	13	4	4	2	I	0	0	0	0	Ⴖ	cut_u_stereo_44KHz.wav
1	14	1	1	1	C	1	0	399	0	Ⴉ	cut_a_stereo_44KHz.wav
1	15	2	2	1	C	0	0	0	0	Ⴔ	cut_o_stereo_44KHz.wav
1	16	3	3	2	I	0	0	0	0	Ⴐ	cut_k_stereo_44KHz.wav
1	17	2	2	1	C	1	0	871	0	Ⴔ	cut_o_stereo_44KHz.wav
1	18	3	4	2	I	0	0	0	0	Ⴐ	cut_u_stereo_44KHz.wav
1	19	1	1	1	C	1	0	464	0	Ⴉ	cut_a_stereo_44KHz.wav
1	20	4	4	2	I	0	0	0	0	Ⴖ	cut_u_stereo_44KHz.wav
1	21	3	3	2	I	1	0	904	1	Ⴐ	cut_k_stereo_44KHz.wav
1	22	4	3	2	I	1	0	507	1	Ⴖ	cut_k_stereo_44KHz.wav
1	23	1	2	0	C	0	0	0	0	Ⴉ	cut_o_stereo_44KHz.wav
1	24	2	1	0	C	0	0	0	0	Ⴔ	cut_a_stereo_44KHz.wav
1	25	1	1	1	C	2	1	929	1	Ⴉ	cut_a_stereo_44KHz.wav
1	26	2	1	0	C	0	0	0	0	Ⴔ	cut_a_stereo_44KHz.wav
1	27	4	3	2	I	2	0	738	1	Ⴖ	cut_k_stereo_44KHz.wav
1	28	3	3	2	I	1	0	693	0	Ⴐ	cut_k_stereo_44KHz.wav
1	29	4	4	2	I	0	0	0	0	Ⴖ	cut_u_stereo_44KHz.wav
1	30	1	2	0	C	2	0	724	0	Ⴉ	cut_o_stereo_44KHz.wav
1	31	3	4	2	I	0	0	0	0	Ⴐ	cut_u_stereo_44KHz.wav
1	32	2	2	1	C	1	0	897	0	Ⴔ	cut_o_stereo_44KHz.wav
1	33	3	3	2	I	0	0	0	0	Ⴐ	cut_k_stereo_44KHz.wav
1	34	4	4	2	I	1	0	1806	1	Ⴖ	cut_u_stereo_44KHz.wav
1	35	2	2	1	C	1	0	645	0	Ⴔ	cut_o_stereo_44KHz.wav
1	36	1	2	0	C	1	1	722	1	Ⴉ	cut_o_stereo_44KHz.wav
1	37	2	1	0	C	1	1	616	1	Ⴔ	cut_a_stereo_44KHz.wav
1	38	3	4	2	I	0	0	0	0	Ⴐ	cut_u_stereo_44KHz.wav
1	39	4	3	2	I	0	0	0	0	Ⴖ	cut_k_stereo_44KHz.wav
1	40	1	1	1	C	1	0	715	0	Ⴉ	cut_a_stereo_44KHz.wav
1	41	3	4	2	I	0	0	0	0	Ⴐ	cut_u_stereo_44KHz.wav
1	42	4	3	2	I	0	0	0	0	Ⴖ	cut_k_stereo_44KHz.wav
1	43	1	1	1	C	1	0	597	0	Ⴉ	cut_a_stereo_44KHz.wav
1	44	2	2	1	C	0	0	0	0	Ⴔ	cut_o_stereo_44KHz.wav
1	45	4	4	2	I	1	0	1367	1	Ⴖ	cut_u_stereo_44KHz.wav
1	46	1	2	0	C	1	1	986	1	Ⴉ	cut_o_stereo_44KHz.wav
1	47	2	1	0	C	1	1	851	1	Ⴔ	cut_a_stereo_44KHz.wav
1	48	3	3	2	I	1	0	789	1	Ⴐ	cut_k_stereo_44KHz.wav
1	49	4	3	2	I	1	0	622	1	Ⴖ	cut_k_stereo_44KHz.wav
1	50	3	3	2	I	1	0	628	1	Ⴐ	cut_k_stereo_44KHz.wav
1	51	2	1	0	C	0	0	0	0	Ⴔ	cut_a_stereo_44KHz.wav
1	52	1	2	0	C	0	0	0	0	Ⴉ	cut_o_stereo_44KHz.wav
1	53	3	4	2	I	1	0	725	1	Ⴐ	cut_u_stereo_44KHz.wav
1	54	1	1	1	C	1	0	1346	0	Ⴉ	cut_a_stereo_44KHz.wav
1	55	4	4	2	I	1	0	1627	1	Ⴖ	cut_u_stereo_44KHz.wav
1	56	2	2	1	C	1	0	1200	0	Ⴔ	cut_o_stereo_44KHz.wav
1	57	1	1	1	C	1	0	1370	0	Ⴉ	cut_a_stereo_44KHz.wav
1	58	3	4	2	I	0	0	0	0	Ⴐ	cut_u_stereo_44KHz.wav
1	59	2	1	0	C	0	0	0	0	Ⴔ	cut_a_stereo_44KHz.wav
1	60	4	3	2	I	0	0	0	0	Ⴖ	cut_k_stereo_44KHz.wav
1	61	1	2	0	C	1	1	575	1	Ⴉ	cut_o_stereo_44KHz.wav
1	62	3	3	2	I	1	0	842	1	Ⴐ	cut_k_stereo_44KHz.wav
1	63	4	4	2	I	1	0	863	0	Ⴖ	cut_u_stereo_44KHz.wav
1	64	2	2	1	C	1	0	738	0	Ⴔ	cut_o_stereo_44KHz.wav
1	65	1	1	1	C	1	0	589	0	Ⴉ	cut_a_stereo_44KHz.wav
1	66	2	1	0	C	1	1	938	1	Ⴔ	cut_a_stereo_44KHz.wav
1	67	4	3	2	I	1	0	669	1	Ⴖ	cut_k_stereo_44KHz.wav
1	68	3	4	2	I	1	0	1967	1	Ⴐ	cut_u_stereo_44KHz.wav
1	69	2	2	1	C	1	0	909	0	Ⴔ	cut_o_stereo_44KHz.wav
1	70	3	3	2	I	1	0	746	1	Ⴐ	cut_k_stereo_44KHz.wav
1	71	1	2	0	C	0	0	0	0	Ⴉ	cut_o_stereo_44KHz.wav
1	72	4	4	2	I	1	0	812	1	Ⴖ	cut_u_stereo_44KHz.wav
1	73	3	3	2	I	1	0	767	1	Ⴐ	cut_k_stereo_44KHz.wav
1	74	1	2	0	C	1	1	1524	1	Ⴉ	cut_o_stereo_44KHz.wav
1	75	2	1	0	C	1	1	1051	1	Ⴔ	cut_a_stereo_44KHz.wav
1	76	4	4	2	I	1	0	1786	1	Ⴖ	cut_u_stereo_44KHz.wav
1	77	1	1	1	C	0	0	0	0	Ⴉ	cut_a_stereo_44KHz.wav
1	78	2	2	1	C	1	0	1771	0	Ⴔ	cut_o_stereo_44KHz.wav
1	79	4	3	2	I	0	0	0	0	Ⴖ	cut_k_stereo_44KHz.wav
1	80	3	4	2	I	1	0	974	0	Ⴐ	cut_u_stereo_44KHz.wav
1	81	4	4	2	I	1	0	1696	0	Ⴖ	cut_u_stereo_44KHz.wav
1	82	3	3	2	I	1	0	1358	0	Ⴐ	cut_k_stereo_44KHz.wav
1	83	1	2	0	C	1	1	1659	1	Ⴉ	cut_o_stereo_44KHz.wav
1	84	2	2	1	C	0	0	0	0	Ⴔ	cut_o_stereo_44KHz.wav
1	85	1	1	1	C	1	0	511	0	Ⴉ	cut_a_stereo_44KHz.wav
1	86	2	1	0	C	1	1	1250	1	Ⴔ	cut_a_stereo_44KHz.wav
1	87	4	3	2	I	1	0	1125	0	Ⴖ	cut_k_stereo_44KHz.wav
1	88	3	4	2	I	0	0	0	0	Ⴐ	cut_u_stereo_44KHz.wav
1	89	1	2	0	C	0	0	0	0	Ⴉ	cut_o_stereo_44KHz.wav
1	90	4	3	2	I	0	0	0	0	Ⴖ	cut_k_stereo_44KHz.wav
1	91	2	2	1	C	0	0	0	0	Ⴔ	cut_o_stereo_44KHz.wav
1	92	3	3	2	I	1	0	922	1	Ⴐ	cut_k_stereo_44KHz.wav
1	93	1	1	1	C	1	0	861	0	Ⴉ	cut_a_stereo_44KHz.wav
1	94	3	4	2	I	1	0	572	1	Ⴐ	cut_u_stereo_44KHz.wav
1	95	4	4	2	I	1	0	683	1	Ⴖ	cut_u_stereo_44KHz.wav
1	96	2	1	0	C	0	0	0	0	Ⴔ	cut_a_stereo_44KHz.wav
1	97	3	4	2	I	0	0	0	0	Ⴐ	cut_u_stereo_44KHz.wav
1	98	2	2	1	C	1	0	632	0	Ⴔ	cut_o_stereo_44KHz.wav
1	99	4	3	2	I	1	0	574	1	Ⴖ	cut_k_stereo_44KHz.wav
1	100	1	2	0	C	1	1	705	1	Ⴉ	cut_o_stereo_44KHz.wav
1	101	3	3	2	I	1	0	534	1	Ⴐ	cut_k_stereo_44KHz.wav
1	102	1	1	1	C	0	0	0	0	Ⴉ	cut_a_stereo_44KHz.wav
1	103	4	4	2	I	1	0	594	1	Ⴖ	cut_u_stereo_44KHz.wav
1	104	2	1	0	C	1	1	481	1	Ⴔ	cut_a_stereo_44KHz.wav
1	105	4	3	2	I	1	0	439	1	Ⴖ	cut_k_stereo_44KHz.wav
1	106	2	1	0	C	1	1	393	1	Ⴔ	cut_a_stereo_44KHz.wav
1	107	3	3	2	I	1	0	424	1	Ⴐ	cut_k_stereo_44KHz.wav
1	108	1	2	0	C	1	1	476	1	Ⴉ	cut_o_stereo_44KHz.wav
1	109	3	4	2	I	1	0	441	1	Ⴐ	cut_u_stereo_44KHz.wav
1	110	4	4	2	I	1	0	369	1	Ⴖ	cut_u_stereo_44KHz.wav
1	111	2	2	1	C	1	0	1197	0	Ⴔ	cut_o_stereo_44KHz.wav
1	112	1	1	1	C	1	0	874	0	Ⴉ	cut_a_stereo_44KHz.wav
1	113	2	2	1	C	1	0	512	0	Ⴔ	cut_o_stereo_44KHz.wav
1	114	3	3	2	I	1	0	694	1	Ⴐ	cut_k_stereo_44KHz.wav
1	115	4	4	2	I	1	0	651	1	Ⴖ	cut_u_stereo_44KHz.wav
1	116	1	1	1	C	1	0	418	0	Ⴉ	cut_a_stereo_44KHz.wav
1	117	3	4	2	I	1	0	593	1	Ⴐ	cut_u_stereo_44KHz.wav
1	118	1	2	0	C	1	1	936	1	Ⴉ	cut_o_stereo_44KHz.wav
1	119	4	3	2	I	1	0	626	1	Ⴖ	cut_k_stereo_44KHz.wav
1	120	2	1	0	C	1	1	762	1	Ⴔ	cut_a_stereo_44KHz.wav
1	121	4	4	2	I	1	0	615	1	Ⴖ	cut_u_stereo_44KHz.wav
1	122	1	2	0	C	1	1	600	1	Ⴉ	cut_o_stereo_44KHz.wav
1	123	3	4	2	I	1	0	665	1	Ⴐ	cut_u_stereo_44KHz.wav
1	124	2	2	1	C	1	0	943	0	Ⴔ	cut_o_stereo_44KHz.wav
1	125	4	3	2	I	1	0	1030	1	Ⴖ	cut_k_stereo_44KHz.wav
1	126	2	1	0	C	1	1	905	1	Ⴔ	cut_a_stereo_44KHz.wav
1	127	1	1	1	C	1	0	551	0	Ⴉ	cut_a_stereo_44KHz.wav
1	128	3	3	2	I	1	0	697	0	Ⴐ	cut_k_stereo_44KHz.wav
1	129	1	1	1	C	1	0	1095	0	Ⴉ	cut_a_stereo_44KHz.wav
1	130	4	3	2	I	1	0	575	0	Ⴖ	cut_k_stereo_44KHz.wav
1	131	3	4	2	I	1	0	657	1	Ⴐ	cut_u_stereo_44KHz.wav
1	132	2	2	1	C	1	0	743	0	Ⴔ	cut_o_stereo_44KHz.wav
1	133	4	4	2	I	1	0	887	1	Ⴖ	cut_u_stereo_44KHz.wav
1	134	3	3	2	I	1	0	515	0	Ⴐ	cut_k_stereo_44KHz.wav
1	135	1	2	0	C	1	1	561	1	Ⴉ	cut_o_stereo_44KHz.wav
1	136	2	1	0	C	1	1	471	1	Ⴔ	cut_a_stereo_44KHz.wav
1	137	1	1	1	C	1	0	707	0	Ⴉ	cut_a_stereo_44KHz.wav
1	138	2	2	1	C	1	0	946	0	Ⴔ	cut_o_stereo_44KHz.wav
1	139	4	3	2	I	1	0	752	0	Ⴖ	cut_k_stereo_44KHz.wav
1	140	3	3	2	I	1	0	830	0	Ⴐ	cut_k_stereo_44KHz.wav
1	141	1	2	0	C	1	1	661	1	Ⴉ	cut_o_stereo_44KHz.wav
1	142	2	1	0	C	1	1	680	1	Ⴔ	cut_a_stereo_44KHz.wav
1	143	4	4	2	I	1	0	959	1	Ⴖ	cut_u_stereo_44KHz.wav
1	144	3	4	2	I	1	0	575	1	Ⴐ	cut_u_stereo_44KHz.wav
1	145	4	4	2	I	1	0	625	1	Ⴖ	cut_u_stereo_44KHz.wav
1	146	1	2	0	C	1	1	824	1	Ⴉ	cut_o_stereo_44KHz.wav
1	147	2	1	0	C	1	1	1096	1	Ⴔ	cut_a_stereo_44KHz.wav
1	148	3	4	2	I	1	0	487	1	Ⴐ	cut_u_stereo_44KHz.wav
1	149	4	3	2	I	1	0	702	1	Ⴖ	cut_k_stereo_44KHz.wav
1	150	2	2	1	C	1	0	828	0	Ⴔ	cut_o_stereo_44KHz.wav
1	151	3	3	2	I	1	0	644	0	Ⴐ	cut_k_stereo_44KHz.wav
1	152	1	1	1	C	1	0	967	0	Ⴉ	cut_a_stereo_44KHz.wav
1	153	3	3	2	I	1	0	644	1	Ⴐ	cut_k_stereo_44KHz.wav
1	154	2	2	1	C	1	0	472	0	Ⴔ	cut_o_stereo_44KHz.wav
1	155	1	2	0	C	1	1	940	1	Ⴉ	cut_o_stereo_44KHz.wav
1	156	4	3	2	I	1	0	672	1	Ⴖ	cut_k_stereo_44KHz.wav
1	157	3	4	2	I	1	0	517	1	Ⴐ	cut_u_stereo_44KHz.wav
1	158	2	1	0	C	1	1	967	1	Ⴔ	cut_a_stereo_44KHz.wav
1	159	1	1	1	C	1	0	789	0	Ⴉ	cut_a_stereo_44KHz.wav
1	160	4	4	2	I	1	0	575	1	Ⴖ	cut_u_stereo_44KHz.wav
1	161	1	2	0	C	1	1	560	1	Ⴉ	cut_o_stereo_44KHz.wav
1	162	3	4	2	I	1	0	576	1	Ⴐ	cut_u_stereo_44KHz.wav
1	163	2	1	0	C	1	1	755	1	Ⴔ	cut_a_stereo_44KHz.wav
1	164	4	4	2	I	1	0	753	0	Ⴖ	cut_u_stereo_44KHz.wav
1	165	3	3	2	I	0	0	0	0	Ⴐ	cut_k_stereo_44KHz.wav
1	166	1	1	1	C	1	0	616	0	Ⴉ	cut_a_stereo_44KHz.wav
1	167	2	2	1	C	1	0	699	0	Ⴔ	cut_o_stereo_44KHz.wav
1	168	4	3	2	I	1	0	757	0	Ⴖ	cut_k_stereo_44KHz.wav
1	169	1	2	0	C	1	1	986	1	Ⴉ	cut_o_stereo_44KHz.wav
1	170	3	3	2	I	1	0	773	1	Ⴐ	cut_k_stereo_44KHz.wav
1	171	4	3	2	I	1	0	595	1	Ⴖ	cut_k_stereo_44KHz.wav
1	172	2	1	0	C	1	1	935	1	Ⴔ	cut_a_stereo_44KHz.wav
1	173	3	4	2	I	1	0	536	0	Ⴐ	cut_u_stereo_44KHz.wav
1	174	1	1	1	C	1	0	592	0	Ⴉ	cut_a_stereo_44KHz.wav
1	175	2	2	1	C	1	0	1516	0	Ⴔ	cut_o_stereo_44KHz.wav
1	176	4	4	2	I	1	0	552	1	Ⴖ	cut_u_stereo_44KHz.wav
1	177	1	1	1	C	1	0	613	0	Ⴉ	cut_a_stereo_44KHz.wav
1	178	2	1	0	C	1	1	905	1	Ⴔ	cut_a_stereo_44KHz.wav
1	179	4	3	2	I	1	0	641	1	Ⴖ	cut_k_stereo_44KHz.wav
1	180	3	3	2	I	1	0	741	1	Ⴐ	cut_k_stereo_44KHz.wav
1	181	4	4	2	I	1	0	502	1	Ⴖ	cut_u_stereo_44KHz.wav
1	182	1	2	0	C	1	1	574	1	Ⴉ	cut_o_stereo_44KHz.wav
1	183	2	2	1	C	1	0	414	0	Ⴔ	cut_o_stereo_44KHz.wav
1	184	3	4	2	I	1	0	761	0	Ⴐ	cut_u_stereo_44KHz.wav
1	185	1	2	0	C	1	1	594	1	Ⴉ	cut_o_stereo_44KHz.wav
1	186	3	4	2	I	1	0	853	1	Ⴐ	cut_u_stereo_44KHz.wav
1	187	2	1	0	C	1	1	858	1	Ⴔ	cut_a_stereo_44KHz.wav
1	188	4	3	2	I	1	0	518	1	Ⴖ	cut_k_stereo_44KHz.wav
1	189	2	2	1	C	1	0	1359	0	Ⴔ	cut_o_stereo_44KHz.wav
1	190	4	4	2	I	1	0	643	0	Ⴖ	cut_u_stereo_44KHz.wav
1	191	3	3	2	I	1	0	727	1	Ⴐ	cut_k_stereo_44KHz.wav
1	192	1	1	1	C	1	0	984	0	Ⴉ	cut_a_stereo_44KHz.wav
1	193	2	1	0	C	1	1	1080	1	Ⴔ	cut_a_stereo_44KHz.wav
1	194	1	1	1	C	1	0	989	0	Ⴉ	cut_a_stereo_44KHz.wav
1	195	3	3	2	I	1	0	783	1	Ⴐ	cut_k_stereo_44KHz.wav
1	196	4	4	2	I	1	0	709	0	Ⴖ	cut_u_stereo_44KHz.wav
1	197	3	4	2	I	1	0	1260	1	Ⴐ	cut_u_stereo_44KHz.wav
1	198	4	3	2	I	1	0	579	1	Ⴖ	cut_k_stereo_44KHz.wav
1	199	2	2	1	C	1	0	892	0	Ⴔ	cut_o_stereo_44KHz.wav
1	200	1	2	0	C	1	1	931	1	Ⴉ	cut_o_stereo_44KHz.wav
2	1	4	4	2	I	1	0	1613	0	Ⴕ	cut_l_stereo_44KHz.wav
2	2	3	4	2	I	2	0	876	0	Ⴒ	cut_l_stereo_44KHz.wav
2	3	1	2	0	C	2	0	1068	0	Ⴌ	cut_w_stereo_44KHz.wav
2	4	2	2	1	C	1	0	1001	0	Ⴏ	cut_w_stereo_44KHz.wav
2	5	4	3	2	I	1	0	891	1	Ⴕ	cut_g_stereo_44KHz.wav
2	6	3	3	2	I	2	0	855	1	Ⴒ	cut_g_stereo_44KHz.wav
2	7	1	1	1	C	1	0	881	0	Ⴌ	cut_h_stereo_44KHz.wav
2	8	2	1	0	C	2	0	919	0	Ⴏ	cut_h_stereo_44KHz.wav
2	9	1	2	0	C	1	1	1050	1	Ⴌ	cut_w_stereo_44KHz.wav
2	10	4	3	2	I	2	0	862	1	Ⴕ	cut_g_stereo_44KHz.wav
2	11	2	2	1	C	1	0	893	0	Ⴏ	cut_w_stereo_44KHz.wav
2	12	3	3	2	I	2	0	787	1	Ⴒ	cut_g_stereo_44KHz.wav
2	13	2	1	0	C	1	1	567	1	Ⴏ	cut_h_stereo_44KHz.wav
2	14	4	4	2	I	2	0	1174	1	Ⴕ	cut_l_stereo_44KHz.wav
2	15	1	1	1	C	1	0	763	0	Ⴌ	cut_h_stereo_44KHz.wav
2	16	3	4	2	I	0	0	0	0	Ⴒ	cut_l_stereo_44KHz.wav
2	17	2	1	0	C	1	1	799	1	Ⴏ	cut_h_stereo_44KHz.wav
2	18	3	3	2	I	2	0	1188	1	Ⴒ	cut_g_stereo_44KHz.wav
2	19	4	3	2	I	2	0	826	1	Ⴕ	cut_g_stereo_44KHz.wav
2	20	1	2	0	C	2	0	925	0	Ⴌ	cut_w_stereo_44KHz.wav
2	21	3	4	2	I	1	0	779	0	Ⴒ	cut_l_stereo_44KHz.wav
2	22	2	2	1	C	2	1	995	1	Ⴏ	cut_w_stereo_44KHz.wav
2	23	1	1	1	C	2	1	851	1	Ⴌ	cut_h_stereo_44KHz.wav
2	24	4	4	2	I	2	0	817	1	Ⴕ	cut_l_stereo_44KHz.wav
2	25	1	1	1	C	2	1	1313	1	Ⴌ	cut_h_stereo_44KHz.wav
2	26	3	3	2	I	2	0	1032	0	Ⴒ	cut_g_stereo_44KHz.wav
2	27	2	2	1	C	2	1	848	1	Ⴏ	cut_w_stereo_44KHz.wav
2	28	4	3	2	I	2	0	937	1	Ⴕ	cut_g_stereo_44KHz.wav
2	29	3	4	2	I	2	0	881	1	Ⴒ	cut_l_stereo_44KHz.wav
2	30	1	2	0	C	2	0	889	0	Ⴌ	cut_w_stereo_44KHz.wav
2	31	4	4	2	I	2	0	1278	1	Ⴕ	cut_l_stereo_44KHz.wav
2	32	2	1	0	C	1	1	777	1	Ⴏ	cut_h_stereo_44KHz.wav
2	33	1	1	1	C	2	1	876	1	Ⴌ	cut_h_stereo_44KHz.wav
2	34	4	4	2	I	2	0	686	1	Ⴕ	cut_l_stereo_44KHz.wav
2	35	3	4	2	I	2	0	721	1	Ⴒ	cut_l_stereo_44KHz.wav
2	36	2	2	1	C	1	0	599	0	Ⴏ	cut_w_stereo_44KHz.wav
2	37	4	3	2	I	2	0	705	1	Ⴕ	cut_g_stereo_44KHz.wav
2	38	1	2	0	C	2	0	790	0	Ⴌ	cut_w_stereo_44KHz.wav
2	39	3	3	2	I	0	0	0	0	Ⴒ	cut_g_stereo_44KHz.wav
2	40	2	1	0	C	1	1	739	1	Ⴏ	cut_h_stereo_44KHz.wav
2	41	3	3	2	I	2	0	621	1	Ⴒ	cut_g_stereo_44KHz.wav
2	42	1	1	1	C	1	0	1053	0	Ⴌ	cut_h_stereo_44KHz.wav
2	43	4	4	2	I	0	0	0	0	Ⴕ	cut_l_stereo_44KHz.wav
2	44	2	1	0	C	1	1	646	1	Ⴏ	cut_h_stereo_44KHz.wav
2	45	1	2	0	C	0	0	0	0	Ⴌ	cut_w_stereo_44KHz.wav
2	46	4	3	2	I	2	0	757	0	Ⴕ	cut_g_stereo_44KHz.wav
2	47	2	2	1	C	2	1	914	1	Ⴏ	cut_w_stereo_44KHz.wav
2	48	3	4	2	I	2	0	858	0	Ⴒ	cut_l_stereo_44KHz.wav
2	49	4	4	2	I	2	0	1421	1	Ⴕ	cut_l_stereo_44KHz.wav
2	50	3	4	2	I	0	0	0	0	Ⴒ	cut_l_stereo_44KHz.wav
2	51	1	2	0	C	0	0	0	0	Ⴌ	cut_w_stereo_44KHz.wav
2	52	2	1	0	C	1	1	770	1	Ⴏ	cut_h_stereo_44KHz.wav
2	53	1	1	1	C	2	1	686	1	Ⴌ	cut_h_stereo_44KHz.wav
2	54	2	2	1	C	0	0	0	0	Ⴏ	cut_w_stereo_44KHz.wav
2	55	3	3	2	I	2	0	710	1	Ⴒ	cut_g_stereo_44KHz.wav
2	56	4	3	2	I	2	0	599	1	Ⴕ	cut_g_stereo_44KHz.wav
2	57	1	1	1	C	2	1	786	1	Ⴌ	cut_h_stereo_44KHz.wav
2	58	3	4	2	I	2	0	1025	1	Ⴒ	cut_l_stereo_44KHz.wav
2	59	2	2	1	C	2	1	657	1	Ⴏ	cut_w_stereo_44KHz.wav
2	60	4	3	2	I	2	0	882	1	Ⴕ	cut_g_stereo_44KHz.wav
2	61	3	3	2	I	2	0	1118	1	Ⴒ	cut_g_stereo_44KHz.wav
2	62	1	2	0	C	2	0	1479	0	Ⴌ	cut_w_stereo_44KHz.wav
2	63	2	1	0	C	1	1	727	1	Ⴏ	cut_h_stereo_44KHz.wav
2	64	4	4	2	I	0	0	0	0	Ⴕ	cut_l_stereo_44KHz.wav
2	65	3	4	2	I	2	0	1499	1	Ⴒ	cut_l_stereo_44KHz.wav
2	66	4	3	2	I	2	0	725	1	Ⴕ	cut_g_stereo_44KHz.wav
2	67	1	2	0	C	1	1	809	1	Ⴌ	cut_w_stereo_44KHz.wav
2	68	2	1	0	C	1	1	608	1	Ⴏ	cut_h_stereo_44KHz.wav
2	69	4	4	2	I	2	0	1716	1	Ⴕ	cut_l_stereo_44KHz.wav
2	70	2	2	1	C	1	0	717	0	Ⴏ	cut_w_stereo_44KHz.wav
2	71	1	1	1	C	2	1	1022	1	Ⴌ	cut_h_stereo_44KHz.wav
2	72	3	3	2	I	0	0	0	0	Ⴒ	cut_g_stereo_44KHz.wav
2	73	2	1	0	C	1	1	663	1	Ⴏ	cut_h_stereo_44KHz.wav
2	74	1	2	0	C	2	0	678	0	Ⴌ	cut_w_stereo_44KHz.wav
2	75	4	3	2	I	2	0	617	1	Ⴕ	cut_g_stereo_44KHz.wav
2	76	3	3	2	I	0	0	0	0	Ⴒ	cut_g_stereo_44KHz.wav
2	77	4	4	2	I	2	0	1781	1	Ⴕ	cut_l_stereo_44KHz.wav
2	78	2	2	1	C	2	1	784	1	Ⴏ	cut_w_stereo_44KHz.wav
2	79	3	4	2	I	0	0	0	0	Ⴒ	cut_l_stereo_44KHz.wav
2	80	1	1	1	C	2	1	1667	1	Ⴌ	cut_h_stereo_44KHz.wav
2	81	4	4	2	I	0	0	0	0	Ⴕ	cut_l_stereo_44KHz.wav
2	82	3	4	2	I	2	0	1565	1	Ⴒ	cut_l_stereo_44KHz.wav
2	83	1	2	0	C	2	0	1121	0	Ⴌ	cut_w_stereo_44KHz.wav
2	84	2	1	0	C	1	1	751	1	Ⴏ	cut_h_stereo_44KHz.wav
2	85	4	3	2	I	1	0	914	1	Ⴕ	cut_g_stereo_44KHz.wav
2	86	1	1	1	C	0	0	0	0	Ⴌ	cut_h_stereo_44KHz.wav
2	87	2	2	1	C	1	0	836	0	Ⴏ	cut_w_stereo_44KHz.wav
2	88	3	3	2	I	0	0	0	0	Ⴒ	cut_g_stereo_44KHz.wav
2	89	1	2	0	C	2	0	1416	0	Ⴌ	cut_w_stereo_44KHz.wav
2	90	3	3	2	I	0	0	0	0	Ⴒ	cut_g_stereo_44KHz.wav
2	91	4	4	2	I	2	0	879	1	Ⴕ	cut_l_stereo_44KHz.wav
2	92	2	1	0	C	1	1	508	1	Ⴏ	cut_h_stereo_44KHz.wav
2	93	1	1	1	C	1	0	581	0	Ⴌ	cut_h_stereo_44KHz.wav
2	94	2	2	1	C	2	1	825	1	Ⴏ	cut_w_stereo_44KHz.wav
2	95	3	4	2	I	2	0	980	1	Ⴒ	cut_l_stereo_44KHz.wav
2	96	4	3	2	I	2	0	759	1	Ⴕ	cut_g_stereo_44KHz.wav
2	97	3	3	2	I	2	0	666	1	Ⴒ	cut_g_stereo_44KHz.wav
2	98	1	1	1	C	2	1	695	1	Ⴌ	cut_h_stereo_44KHz.wav
2	99	2	2	1	C	2	1	728	1	Ⴏ	cut_w_stereo_44KHz.wav
2	100	4	3	2	I	2	0	619	0	Ⴕ	cut_g_stereo_44KHz.wav
2	101	2	1	0	C	1	1	809	1	Ⴏ	cut_h_stereo_44KHz.wav
2	102	4	4	2	I	1	0	838	1	Ⴕ	cut_l_stereo_44KHz.wav
2	103	3	4	2	I	2	0	708	0	Ⴒ	cut_l_stereo_44KHz.wav
2	104	1	2	0	C	2	0	883	0	Ⴌ	cut_w_stereo_44KHz.wav
2	105	2	1	0	C	2	0	252	0	Ⴏ	cut_h_stereo_44KHz.wav
2	106	4	4	2	I	2	0	677	1	Ⴕ	cut_l_stereo_44KHz.wav
2	107	1	1	1	C	2	1	799	1	Ⴌ	cut_h_stereo_44KHz.wav
2	108	3	3	2	I	0	0	0	0	Ⴒ	cut_g_stereo_44KHz.wav
2	109	4	3	2	I	2	0	714	0	Ⴕ	cut_g_stereo_44KHz.wav
2	110	1	2	0	C	2	0	769	0	Ⴌ	cut_w_stereo_44KHz.wav
2	111	3	4	2	I	2	0	707	0	Ⴒ	cut_l_stereo_44KHz.wav
2	112	2	2	1	C	2	1	785	1	Ⴏ	cut_w_stereo_44KHz.wav
2	113	1	1	1	C	2	1	626	1	Ⴌ	cut_h_stereo_44KHz.wav
2	114	3	4	2	I	2	0	807	1	Ⴒ	cut_l_stereo_44KHz.wav
2	115	4	3	2	I	2	0	660	1	Ⴕ	cut_g_stereo_44KHz.wav
2	116	2	2	1	C	1	0	758	0	Ⴏ	cut_w_stereo_44KHz.wav
2	117	4	4	2	I	2	0	818	0	Ⴕ	cut_l_stereo_44KHz.wav
2	118	1	2	0	C	2	0	710	0	Ⴌ	cut_w_stereo_44KHz.wav
2	119	3	3	2	I	2	0	800	1	Ⴒ	cut_g_stereo_44KHz.wav
2	120	2	1	0	C	1	1	627	1	Ⴏ	cut_h_stereo_44KHz.wav
2	121	3	3	2	I	2	0	616	1	Ⴒ	cut_g_stereo_44KHz.wav
2	122	4	3	2	I	2	0	869	1	Ⴕ	cut_g_stereo_44KHz.wav
2	123	1	1	1	C	2	1	513	1	Ⴌ	cut_h_stereo_44KHz.wav
2	124	2	1	0	C	1	1	700	1	Ⴏ	cut_h_stereo_44KHz.wav
2	125	4	4	2	I	2	0	642	1	Ⴕ	cut_l_stereo_44KHz.wav
2	126	3	4	2	I	2	0	683	1	Ⴒ	cut_l_stereo_44KHz.wav
2	127	1	2	0	C	2	0	524	0	Ⴌ	cut_w_stereo_44KHz.wav
2	128	2	2	1	C	1	0	716	0	Ⴏ	cut_w_stereo_44KHz.wav
2	129	1	1	1	C	1	0	678	0	Ⴌ	cut_h_stereo_44KHz.wav
2	130	3	3	2	I	2	0	657	0	Ⴒ	cut_g_stereo_44KHz.wav
2	131	2	2	1	C	1	0	887	0	Ⴏ	cut_w_stereo_44KHz.wav
2	132	4	4	2	I	1	0	698	0	Ⴕ	cut_l_stereo_44KHz.wav
2	133	2	1	0	C	2	0	511	0	Ⴏ	cut_h_stereo_44KHz.wav
2	134	3	4	2	I	1	0	524	0	Ⴒ	cut_l_stereo_44KHz.wav
2	135	1	2	0	C	2	0	723	0	Ⴌ	cut_w_stereo_44KHz.wav
2	136	4	3	2	I	2	0	767	1	Ⴕ	cut_g_stereo_44KHz.wav
2	137	1	1	1	C	2	1	592	1	Ⴌ	cut_h_stereo_44KHz.wav
2	138	2	1	0	C	1	1	700	1	Ⴏ	cut_h_stereo_44KHz.wav
2	139	3	3	2	I	1	0	546	1	Ⴒ	cut_g_stereo_44KHz.wav
2	140	4	3	2	I	1	0	533	0	Ⴕ	cut_g_stereo_44KHz.wav
2	141	2	2	1	C	1	0	688	0	Ⴏ	cut_w_stereo_44KHz.wav
2	142	3	4	2	I	2	0	692	1	Ⴒ	cut_l_stereo_44KHz.wav
2	143	4	4	2	I	2	0	840	1	Ⴕ	cut_l_stereo_44KHz.wav
2	144	1	2	0	C	2	0	611	0	Ⴌ	cut_w_stereo_44KHz.wav
2	145	3	3	2	I	2	0	1250	1	Ⴒ	cut_g_stereo_44KHz.wav
2	146	4	4	2	I	2	0	1109	1	Ⴕ	cut_l_stereo_44KHz.wav
2	147	1	1	1	C	2	1	269	1	Ⴌ	cut_h_stereo_44KHz.wav
2	148	2	1	0	C	1	1	605	1	Ⴏ	cut_h_stereo_44KHz.wav
2	149	4	3	2	I	2	0	702	1	Ⴕ	cut_g_stereo_44KHz.wav
2	150	1	2	0	C	1	1	765	1	Ⴌ	cut_w_stereo_44KHz.wav
2	151	2	2	1	C	1	0	622	0	Ⴏ	cut_w_stereo_44KHz.wav
2	152	3	4	2	I	2	0	976	0	Ⴒ	cut_l_stereo_44KHz.wav
2	153	2	1	0	C	1	1	579	1	Ⴏ	cut_h_stereo_44KHz.wav
2	154	3	3	2	I	2	0	703	1	Ⴒ	cut_g_stereo_44KHz.wav
2	155	1	2	0	C	1	1	691	1	Ⴌ	cut_w_stereo_44KHz.wav
2	156	4	4	2	I	2	0	801	0	Ⴕ	cut_l_stereo_44KHz.wav
2	157	2	2	1	C	2	1	968	1	Ⴏ	cut_w_stereo_44KHz.wav
2	158	4	3	2	I	2	0	603	1	Ⴕ	cut_g_stereo_44KHz.wav
2	159	1	1	1	C	2	1	580	1	Ⴌ	cut_h_stereo_44KHz.wav
2	160	3	4	2	I	2	0	1019	0	Ⴒ	cut_l_stereo_44KHz.wav
2	161	2	1	0	C	1	1	700	1	Ⴏ	cut_h_stereo_44KHz.wav
2	162	4	3	2	I	2	0	754	1	Ⴕ	cut_g_stereo_44KHz.wav
2	163	3	3	2	I	2	0	661	1	Ⴒ	cut_g_stereo_44KHz.wav
2	164	1	2	0	C	2	0	803	0	Ⴌ	cut_w_stereo_44KHz.wav
2	165	2	2	1	C	2	1	920	1	Ⴏ	cut_w_stereo_44KHz.wav
2	166	3	4	2	I	2	0	567	1	Ⴒ	cut_l_stereo_44KHz.wav
2	167	1	1	1	C	2	1	878	1	Ⴌ	cut_h_stereo_44KHz.wav
2	168	4	4	2	I	2	0	601	1	Ⴕ	cut_l_stereo_44KHz.wav
2	169	2	1	0	C	1	1	776	1	Ⴏ	cut_h_stereo_44KHz.wav
2	170	4	4	2	I	1	0	681	1	Ⴕ	cut_l_stereo_44KHz.wav
2	171	3	3	2	I	1	0	889	1	Ⴒ	cut_g_stereo_44KHz.wav
2	172	1	1	1	C	2	1	794	1	Ⴌ	cut_h_stereo_44KHz.wav
2	173	2	2	1	C	2	1	809	1	Ⴏ	cut_w_stereo_44KHz.wav
2	174	3	4	2	I	2	0	654	1	Ⴒ	cut_l_stereo_44KHz.wav
2	175	1	2	0	C	2	0	590	0	Ⴌ	cut_w_stereo_44KHz.wav
2	176	4	3	2	I	2	0	688	1	Ⴕ	cut_g_stereo_44KHz.wav
2	177	3	4	2	I	1	0	736	1	Ⴒ	cut_l_stereo_44KHz.wav
2	178	4	4	2	I	1	0	714	1	Ⴕ	cut_l_stereo_44KHz.wav
2	179	2	2	1	C	1	0	673	0	Ⴏ	cut_w_stereo_44KHz.wav
2	180	1	2	0	C	2	0	995	0	Ⴌ	cut_w_stereo_44KHz.wav
2	181	4	3	2	I	2	0	897	1	Ⴕ	cut_g_stereo_44KHz.wav
2	182	3	3	2	I	2	0	607	1	Ⴒ	cut_g_stereo_44KHz.wav
2	183	2	1	0	C	1	1	699	1	Ⴏ	cut_h_stereo_44KHz.wav
2	184	1	1	1	C	2	1	666	1	Ⴌ	cut_h_stereo_44KHz.wav
2	185	3	4	2	I	2	0	903	1	Ⴒ	cut_l_stereo_44KHz.wav
2	186	1	1	1	C	2	1	639	1	Ⴌ	cut_h_stereo_44KHz.wav
2	187	4	4	2	I	2	0	660	0	Ⴕ	cut_l_stereo_44KHz.wav
2	188	2	2	1	C	1	0	699	0	Ⴏ	cut_w_stereo_44KHz.wav
2	189	1	2	0	C	2	0	653	0	Ⴌ	cut_w_stereo_44KHz.wav
2	190	2	1	0	C	1	1	778	1	Ⴏ	cut_h_stereo_44KHz.wav
2	191	3	3	2	I	2	0	781	1	Ⴒ	cut_g_stereo_44KHz.wav
2	192	4	3	2	I	2	0	687	1	Ⴕ	cut_g_stereo_44KHz.wav
2	193	3	3	2	I	2	0	951	1	Ⴒ	cut_g_stereo_44KHz.wav
2	194	4	3	2	I	2	0	1251	1	Ⴕ	cut_g_stereo_44KHz.wav
2	195	2	2	1	C	1	0	703	0	Ⴏ	cut_w_stereo_44KHz.wav
2	196	1	1	1	C	2	1	819	1	Ⴌ	cut_h_stereo_44KHz.wav
2	197	4	4	2	I	2	0	1058	1	Ⴕ	cut_l_stereo_44KHz.wav
2	198	2	1	0	C	1	1	798	1	Ⴏ	cut_h_stereo_44KHz.wav
2	199	3	4	2	I	2	0	587	1	Ⴒ	cut_l_stereo_44KHz.wav
2	200	1	2	0	C	2	0	712	0	Ⴌ	cut_w_stereo_44KHz.wav
3	1	2	2	1	C	0	0	0	0	Ⴂ	cut_r_stereo_44KHz.wav
3	2	1	1	1	C	2	1	904	1	Ⴇ	cut_f_stereo_44KHz.wav
3	3	3	3	2	I	2	0	784	1	Ⴟ	cut_n_stereo_44KHz.wav
3	4	4	4	2	I	1	0	797	1	Ⴊ	cut_ei_stereo_44KHz.wav
3	5	2	1	0	C	0	0	0	0	Ⴂ	cut_f_stereo_44KHz.wav
3	6	1	2	0	C	0	0	0	0	Ⴇ	cut_r_stereo_44KHz.wav
3	7	4	3	2	I	1	0	1057	1	Ⴊ	cut_n_stereo_44KHz.wav
3	8	3	4	2	I	1	0	809	1	Ⴟ	cut_ei_stereo_44KHz.wav
3	9	1	1	1	C	1	0	822	0	Ⴇ	cut_f_stereo_44KHz.wav
3	10	4	4	2	I	2	0	365	1	Ⴊ	cut_ei_stereo_44KHz.wav
3	11	3	3	2	I	1	0	397	1	Ⴟ	cut_n_stereo_44KHz.wav
3	12	2	1	0	C	2	0	416	0	Ⴂ	cut_f_stereo_44KHz.wav
3	13	3	4	2	I	1	0	644	1	Ⴟ	cut_ei_stereo_44KHz.wav
3	14	1	2	0	C	2	0	937	0	Ⴇ	cut_r_stereo_44KHz.wav
3	15	2	2	1	C	1	0	960	0	Ⴂ	cut_r_stereo_44KHz.wav
3	16	4	3	2	I	1	0	750	1	Ⴊ	cut_n_stereo_44KHz.wav
3	17	2	1	0	C	1	1	738	1	Ⴂ	cut_f_stereo_44KHz.wav
3	18	3	4	2	I	1	0	702	1	Ⴟ	cut_ei_stereo_44KHz.wav
3	19	1	1	1	C	1	0	688	0	Ⴇ	cut_f_stereo_44KHz.wav
3	20	4	4	2	I	1	0	707	1	Ⴊ	cut_ei_stereo_44KHz.wav
3	21	3	3	2	I	1	0	530	1	Ⴟ	cut_n_stereo_44KHz.wav
3	22	4	3	2	I	1	0	884	1	Ⴊ	cut_n_stereo_44KHz.wav
3	23	2	2	1	C	1	0	634	0	Ⴂ	cut_r_stereo_44KHz.wav
3	24	1	2	0	C	1	1	822	1	Ⴇ	cut_r_stereo_44KHz.wav
3	25	2	2	1	C	1	0	1152	0	Ⴂ	cut_r_stereo_44KHz.wav
3	26	4	4	2	I	1	0	760	1	Ⴊ	cut_ei_stereo_44KHz.wav
3	27	1	1	1	C	1	0	575	0	Ⴇ	cut_f_stereo_44KHz.wav
3	28	3	3	2	I	1	0	767	0	Ⴟ	cut_n_stereo_44KHz.wav
3	29	4	3	2	I	1	0	927	1	Ⴊ	cut_n_stereo_44KHz.wav
3	30	3	4	2	I	1	0	654	1	Ⴟ	cut_ei_stereo_44KHz.wav
3	31	1	2	0	C	2	0	924	0	Ⴇ	cut_r_stereo_44KHz.wav
3	32	2	1	0	C	1	1	983	1	Ⴂ	cut_f_stereo_44KHz.wav
3	33	3	4	2	I	1	0	557	0	Ⴟ	cut_ei_stereo_44KHz.wav
3	34	4	3	2	I	1	0	615	1	Ⴊ	cut_n_stereo_44KHz.wav
3	35	1	1	1	C	1	0	1000	0	Ⴇ	cut_f_stereo_44KHz.wav
3	36	2	1	0	C	1	1	627	1	Ⴂ	cut_f_stereo_44KHz.wav
3	37	1	2	0	C	2	0	550	0	Ⴇ	cut_r_stereo_44KHz.wav
3	38	2	2	1	C	1	0	591	0	Ⴂ	cut_r_stereo_44KHz.wav
3	39	3	3	2	I	2	0	511	0	Ⴟ	cut_n_stereo_44KHz.wav
3	40	4	4	2	I	1	0	840	1	Ⴊ	cut_ei_stereo_44KHz.wav
3	41	1	1	1	C	1	0	534	0	Ⴇ	cut_f_stereo_44KHz.wav
3	42	4	3	2	I	2	0	563	0	Ⴊ	cut_n_stereo_44KHz.wav
3	43	3	3	2	I	1	0	968	1	Ⴟ	cut_n_stereo_44KHz.wav
3	44	2	1	0	C	1	1	589	1	Ⴂ	cut_f_stereo_44KHz.wav
3	45	4	4	2	I	1	0	515	1	Ⴊ	cut_ei_stereo_44KHz.wav
3	46	3	4	2	I	1	0	520	1	Ⴟ	cut_ei_stereo_44KHz.wav
3	47	1	2	0	C	1	1	540	1	Ⴇ	cut_r_stereo_44KHz.wav
3	48	2	2	1	C	1	0	534	0	Ⴂ	cut_r_stereo_44KHz.wav
3	49	4	3	2	I	2	0	433	1	Ⴊ	cut_n_stereo_44KHz.wav
3	50	1	2	0	C	1	1	406	1	Ⴇ	cut_r_stereo_44KHz.wav
3	51	3	3	2	I	0	0	0	0	Ⴟ	cut_n_stereo_44KHz.wav
3	52	2	2	1	C	1	0	514	0	Ⴂ	cut_r_stereo_44KHz.wav
3	53	3	4	2	I	2	0	575	1	Ⴟ	cut_ei_stereo_44KHz.wav
3	54	2	1	0	C	1	1	534	1	Ⴂ	cut_f_stereo_44KHz.wav
3	55	1	1	1	C	1	0	598	0	Ⴇ	cut_f_stereo_44KHz.wav
3	56	4	4	2	I	2	0	488	1	Ⴊ	cut_ei_stereo_44KHz.wav
3	57	2	1	0	C	2	0	679	0	Ⴂ	cut_f_stereo_44KHz.wav
3	58	4	3	2	I	1	0	610	1	Ⴊ	cut_n_stereo_44KHz.wav
3	59	3	4	2	I	1	0	690	1	Ⴟ	cut_ei_stereo_44KHz.wav
3	60	1	1	1	C	2	1	481	1	Ⴇ	cut_f_stereo_44KHz.wav
3	61	2	2	1	C	1	0	458	0	Ⴂ	cut_r_stereo_44KHz.wav
3	62	3	3	2	I	1	0	444	1	Ⴟ	cut_n_stereo_44KHz.wav
3	63	4	4	2	I	2	0	506	1	Ⴊ	cut_ei_stereo_44KHz.wav
3	64	1	2	0	C	2	0	684	0	Ⴇ	cut_r_stereo_44KHz.wav
3	65	4	3	2	I	1	0	725	0	Ⴊ	cut_n_stereo_44KHz.wav
3	66	3	4	2	I	2	0	380	1	Ⴟ	cut_ei_stereo_44KHz.wav
3	67	1	1	1	C	1	0	481	0	Ⴇ	cut_f_stereo_44KHz.wav
3	68	2	1	0	C	2	0	187	0	Ⴂ	cut_f_stereo_44KHz.wav
3	69	3	3	2	I	1	0	427	0	Ⴟ	cut_n_stereo_44KHz.wav
3	70	4	4	2	I	2	0	524	1	Ⴊ	cut_ei_stereo_44KHz.wav
3	71	1	2	0	C	1	1	549	1	Ⴇ	cut_r_stereo_44KHz.wav
3	72	2	2	1	C	1	0	690	0	Ⴂ	cut_r_stereo_44KHz.wav
3	73	4	3	2	I	2	0	551	0	Ⴊ	cut_n_stereo_44KHz.wav
3	74	3	3	2	I	2	0	588	1	Ⴟ	cut_n_stereo_44KHz.wav
3	75	1	2	0	C	2	0	579	0	Ⴇ	cut_r_stereo_44KHz.wav
3	76	2	1	0	C	1	1	487	1	Ⴂ	cut_f_stereo_44KHz.wav
3	77	3	4	2	I	2	0	718	1	Ⴟ	cut_ei_stereo_44KHz.wav
3	78	2	2	1	C	1	0	569	0	Ⴂ	cut_r_stereo_44KHz.wav
3	79	4	4	2	I	2	0	446	1	Ⴊ	cut_ei_stereo_44KHz.wav
3	80	1	1	1	C	2	1	880	1	Ⴇ	cut_f_stereo_44KHz.wav
3	81	2	2	1	C	2	1	899	1	Ⴂ	cut_r_stereo_44KHz.wav
3	82	4	4	2	I	1	0	601	1	Ⴊ	cut_ei_stereo_44KHz.wav
3	83	1	1	1	C	1	0	634	0	Ⴇ	cut_f_stereo_44KHz.wav
3	84	3	3	2	I	2	0	682	0	Ⴟ	cut_n_stereo_44KHz.wav
3	85	4	3	2	I	1	0	613	0	Ⴊ	cut_n_stereo_44KHz.wav
3	86	1	2	0	C	2	0	455	0	Ⴇ	cut_r_stereo_44KHz.wav
3	87	2	1	0	C	2	0	812	0	Ⴂ	cut_f_stereo_44KHz.wav
3	88	3	4	2	I	1	0	515	0	Ⴟ	cut_ei_stereo_44KHz.wav
3	89	4	3	2	I	2	0	312	1	Ⴊ	cut_n_stereo_44KHz.wav
3	90	1	1	1	C	1	0	419	0	Ⴇ	cut_f_stereo_44KHz.wav
3	91	2	2	1	C	1	0	671	0	Ⴂ	cut_r_stereo_44KHz.wav
3	92	3	3	2	I	2	0	565	1	Ⴟ	cut_n_stereo_44KHz.wav
3	93	1	2	0	C	2	0	605	0	Ⴇ	cut_r_stereo_44KHz.wav
3	94	2	1	0	C	2	0	640	0	Ⴂ	cut_f_stereo_44KHz.wav
3	95	4	4	2	I	1	0	563	1	Ⴊ	cut_ei_stereo_44KHz.wav
3	96	3	4	2	I	1	0	435	1	Ⴟ	cut_ei_stereo_44KHz.wav
3	97	4	4	2	I	1	0	538	1	Ⴊ	cut_ei_stereo_44KHz.wav
3	98	1	1	1	C	2	1	558	1	Ⴇ	cut_f_stereo_44KHz.wav
3	99	3	4	2	I	1	0	487	0	Ⴟ	cut_ei_stereo_44KHz.wav
3	100	2	1	0	C	1	1	616	1	Ⴂ	cut_f_stereo_44KHz.wav
3	101	1	2	0	C	2	0	569	0	Ⴇ	cut_r_stereo_44KHz.wav
3	102	3	3	2	I	1	0	67	1	Ⴟ	cut_n_stereo_44KHz.wav
3	103	2	2	1	C	1	0	649	0	Ⴂ	cut_r_stereo_44KHz.wav
3	104	4	3	2	I	2	0	716	0	Ⴊ	cut_n_stereo_44KHz.wav
3	105	2	2	1	C	1	0	1583	0	Ⴂ	cut_r_stereo_44KHz.wav
3	106	3	3	2	I	1	0	597	0	Ⴟ	cut_n_stereo_44KHz.wav
3	107	1	1	1	C	2	1	590	1	Ⴇ	cut_f_stereo_44KHz.wav
3	108	4	3	2	I	1	0	711	0	Ⴊ	cut_n_stereo_44KHz.wav
3	109	3	4	2	I	1	0	797	1	Ⴟ	cut_ei_stereo_44KHz.wav
3	110	4	4	2	I	1	0	542	1	Ⴊ	cut_ei_stereo_44KHz.wav
3	111	2	1	0	C	2	0	670	0	Ⴂ	cut_f_stereo_44KHz.wav
3	112	1	2	0	C	1	1	640	1	Ⴇ	cut_r_stereo_44KHz.wav
3	113	3	3	2	I	1	0	572	1	Ⴟ	cut_n_stereo_44KHz.wav
3	114	1	2	0	C	1	1	498	1	Ⴇ	cut_r_stereo_44KHz.wav
3	115	2	2	1	C	1	0	956	0	Ⴂ	cut_r_stereo_44KHz.wav
3	116	4	4	2	I	1	0	798	1	Ⴊ	cut_ei_stereo_44KHz.wav
3	117	2	1	0	C	1	1	1048	1	Ⴂ	cut_f_stereo_44KHz.wav
3	118	4	3	2	I	1	0	1151	1	Ⴊ	cut_n_stereo_44KHz.wav
3	119	3	4	2	I	1	0	641	1	Ⴟ	cut_ei_stereo_44KHz.wav
3	120	1	1	1	C	1	0	822	0	Ⴇ	cut_f_stereo_44KHz.wav
3	121	4	4	2	I	1	0	800	1	Ⴊ	cut_ei_stereo_44KHz.wav
3	122	2	1	0	C	2	0	544	0	Ⴂ	cut_f_stereo_44KHz.wav
3	123	1	1	1	C	1	0	450	0	Ⴇ	cut_f_stereo_44KHz.wav
3	124	3	4	2	I	2	0	6	1	Ⴟ	cut_ei_stereo_44KHz.wav
3	125	1	2	0	C	1	1	840	1	Ⴇ	cut_r_stereo_44KHz.wav
3	126	3	3	2	I	1	0	725	1	Ⴟ	cut_n_stereo_44KHz.wav
3	127	4	3	2	I	1	0	651	1	Ⴊ	cut_n_stereo_44KHz.wav
3	128	2	2	1	C	2	1	783	1	Ⴂ	cut_r_stereo_44KHz.wav
3	129	1	2	0	C	1	1	645	1	Ⴇ	cut_r_stereo_44KHz.wav
3	130	2	1	0	C	2	0	799	0	Ⴂ	cut_f_stereo_44KHz.wav
3	131	3	3	2	I	1	0	746	1	Ⴟ	cut_n_stereo_44KHz.wav
3	132	4	4	2	I	1	0	625	1	Ⴊ	cut_ei_stereo_44KHz.wav
3	133	1	1	1	C	1	0	534	0	Ⴇ	cut_f_stereo_44KHz.wav
3	134	3	4	2	I	1	0	731	1	Ⴟ	cut_ei_stereo_44KHz.wav
3	135	4	3	2	I	1	0	622	0	Ⴊ	cut_n_stereo_44KHz.wav
3	136	2	2	1	C	2	1	781	1	Ⴂ	cut_r_stereo_44KHz.wav
3	137	1	1	1	C	2	1	692	1	Ⴇ	cut_f_stereo_44KHz.wav
3	138	2	1	0	C	2	0	843	0	Ⴂ	cut_f_stereo_44KHz.wav
3	139	4	3	2	I	1	0	945	1	Ⴊ	cut_n_stereo_44KHz.wav
3	140	3	4	2	I	2	0	1477	1	Ⴟ	cut_ei_stereo_44KHz.wav
3	141	1	2	0	C	1	1	1160	1	Ⴇ	cut_r_stereo_44KHz.wav
3	142	2	2	1	C	2	1	754	1	Ⴂ	cut_r_stereo_44KHz.wav
3	143	4	4	2	I	1	0	798	1	Ⴊ	cut_ei_stereo_44KHz.wav
3	144	3	3	2	I	1	0	701	1	Ⴟ	cut_n_stereo_44KHz.wav
3	145	2	2	1	C	0	0	0	0	Ⴂ	cut_r_stereo_44KHz.wav
3	146	3	4	2	I	1	0	828	1	Ⴟ	cut_ei_stereo_44KHz.wav
3	147	4	3	2	I	2	0	1132	1	Ⴊ	cut_n_stereo_44KHz.wav
3	148	1	1	1	C	1	0	818	0	Ⴇ	cut_f_stereo_44KHz.wav
3	149	2	1	0	C	2	0	637	0	Ⴂ	cut_f_stereo_44KHz.wav
3	150	4	4	2	I	1	0	692	1	Ⴊ	cut_ei_stereo_44KHz.wav
3	151	3	3	2	I	1	0	591	1	Ⴟ	cut_n_stereo_44KHz.wav
3	152	1	2	0	C	2	0	930	0	Ⴇ	cut_r_stereo_44KHz.wav
3	153	4	4	2	I	1	0	631	1	Ⴊ	cut_ei_stereo_44KHz.wav
3	154	2	2	1	C	1	0	1109	0	Ⴂ	cut_r_stereo_44KHz.wav
3	155	1	2	0	C	1	1	1377	1	Ⴇ	cut_r_stereo_44KHz.wav
3	156	3	4	2	I	1	0	736	1	Ⴟ	cut_ei_stereo_44KHz.wav
3	157	4	3	2	I	2	0	1059	0	Ⴊ	cut_n_stereo_44KHz.wav
3	158	1	1	1	C	1	0	1790	0	Ⴇ	cut_f_stereo_44KHz.wav
3	159	3	3	2	I	2	0	997	1	Ⴟ	cut_n_stereo_44KHz.wav
3	160	2	1	0	C	2	0	697	0	Ⴂ	cut_f_stereo_44KHz.wav
3	161	3	3	2	I	1	0	1121	1	Ⴟ	cut_n_stereo_44KHz.wav
3	162	2	2	1	C	1	0	922	0	Ⴂ	cut_r_stereo_44KHz.wav
3	163	4	3	2	I	1	0	663	1	Ⴊ	cut_n_stereo_44KHz.wav
3	164	1	1	1	C	2	1	694	1	Ⴇ	cut_f_stereo_44KHz.wav
3	165	4	4	2	I	1	0	934	1	Ⴊ	cut_ei_stereo_44KHz.wav
3	166	2	1	0	C	1	1	659	1	Ⴂ	cut_f_stereo_44KHz.wav
3	167	1	2	0	C	1	1	1091	1	Ⴇ	cut_r_stereo_44KHz.wav
3	168	3	4	2	I	1	0	739	1	Ⴟ	cut_ei_stereo_44KHz.wav
3	169	2	2	1	C	1	0	926	0	Ⴂ	cut_r_stereo_44KHz.wav
3	170	4	3	2	I	1	0	951	0	Ⴊ	cut_n_stereo_44KHz.wav
3	171	3	4	2	I	1	0	818	1	Ⴟ	cut_ei_stereo_44KHz.wav
3	172	1	2	0	C	1	1	709	1	Ⴇ	cut_r_stereo_44KHz.wav
3	173	2	1	0	C	1	1	879	1	Ⴂ	cut_f_stereo_44KHz.wav
3	174	1	1	1	C	1	0	586	0	Ⴇ	cut_f_stereo_44KHz.wav
3	175	3	3	2	I	1	0	779	1	Ⴟ	cut_n_stereo_44KHz.wav
3	176	4	4	2	I	1	0	649	1	Ⴊ	cut_ei_stereo_44KHz.wav
3	177	1	2	0	C	1	1	1238	1	Ⴇ	cut_r_stereo_44KHz.wav
3	178	3	4	2	I	1	0	564	1	Ⴟ	cut_ei_stereo_44KHz.wav
3	179	2	2	1	C	1	0	626	0	Ⴂ	cut_r_stereo_44KHz.wav
3	180	4	3	2	I	1	0	1495	1	Ⴊ	cut_n_stereo_44KHz.wav
3	181	2	1	0	C	1	1	970	1	Ⴂ	cut_f_stereo_44KHz.wav
3	182	4	4	2	I	1	0	834	1	Ⴊ	cut_ei_stereo_44KHz.wav
3	183	3	3	2	I	1	0	673	0	Ⴟ	cut_n_stereo_44KHz.wav
3	184	1	1	1	C	2	1	805	1	Ⴇ	cut_f_stereo_44KHz.wav
3	185	2	1	0	C	2	0	615	0	Ⴂ	cut_f_stereo_44KHz.wav
3	186	3	4	2	I	1	0	536	0	Ⴟ	cut_ei_stereo_44KHz.wav
3	187	4	4	2	I	1	0	918	1	Ⴊ	cut_ei_stereo_44KHz.wav
3	188	1	2	0	C	2	0	589	0	Ⴇ	cut_r_stereo_44KHz.wav
3	189	3	3	2	I	2	0	856	1	Ⴟ	cut_n_stereo_44KHz.wav
3	190	1	1	1	C	2	1	745	1	Ⴇ	cut_f_stereo_44KHz.wav
3	191	2	2	1	C	2	1	806	1	Ⴂ	cut_r_stereo_44KHz.wav
3	192	4	3	2	I	1	0	697	0	Ⴊ	cut_n_stereo_44KHz.wav
3	193	2	2	1	C	2	1	742	1	Ⴂ	cut_r_stereo_44KHz.wav
3	194	4	4	2	I	1	0	656	1	Ⴊ	cut_ei_stereo_44KHz.wav
3	195	1	2	0	C	1	1	718	1	Ⴇ	cut_r_stereo_44KHz.wav
3	196	3	4	2	I	1	0	627	1	Ⴟ	cut_ei_stereo_44KHz.wav
3	197	4	3	2	I	1	0	687	1	Ⴊ	cut_n_stereo_44KHz.wav
3	198	1	1	1	C	2	1	695	1	Ⴇ	cut_f_stereo_44KHz.wav
3	199	3	3	2	I	2	0	1419	1	Ⴟ	cut_n_stereo_44KHz.wav
3	200	2	1	0	C	2	0	863	0	Ⴂ	cut_f_stereo_44KHz.wav
4	1	1	2	0	C	1	1	1386	1	Ⴃ	cut_ui_stereo_44KHz.wav
4	2	4	4	2	I	1	0	1362	1	Ⴁ	cut_j_stereo_44KHz.wav
4	3	3	3	2	I	1	0	740	1	Ⴜ	cut_oei_stereo_44KHz.wav
4	4	2	1	0	C	1	1	842	1	Ⴡ	cut_s_stereo_44KHz.wav
4	5	4	3	2	I	1	0	866	1	Ⴁ	cut_oei_stereo_44KHz.wav
4	6	1	1	1	C	1	0	1276	0	Ⴃ	cut_s_stereo_44KHz.wav
4	7	3	4	2	I	1	0	783	1	Ⴜ	cut_j_stereo_44KHz.wav
4	8	2	2	1	C	1	0	644	0	Ⴡ	cut_ui_stereo_44KHz.wav
4	9	4	3	2	I	1	0	1040	1	Ⴁ	cut_oei_stereo_44KHz.wav
4	10	3	3	2	I	1	0	938	1	Ⴜ	cut_oei_stereo_44KHz.wav
4	11	2	2	1	C	1	0	643	0	Ⴡ	cut_ui_stereo_44KHz.wav
4	12	1	2	0	C	1	1	685	1	Ⴃ	cut_ui_stereo_44KHz.wav
4	13	4	4	2	I	1	0	854	1	Ⴁ	cut_j_stereo_44KHz.wav
4	14	3	4	2	I	1	0	893	1	Ⴜ	cut_j_stereo_44KHz.wav
4	15	2	1	0	C	1	1	1014	1	Ⴡ	cut_s_stereo_44KHz.wav
4	16	1	1	1	C	1	0	1389	0	Ⴃ	cut_s_stereo_44KHz.wav
4	17	4	3	2	I	2	0	693	1	Ⴁ	cut_oei_stereo_44KHz.wav
4	18	3	3	2	I	1	0	917	1	Ⴜ	cut_oei_stereo_44KHz.wav
4	19	1	1	1	C	1	0	895	0	Ⴃ	cut_s_stereo_44KHz.wav
4	20	2	2	1	C	1	0	701	0	Ⴡ	cut_ui_stereo_44KHz.wav
4	21	3	4	2	I	2	0	666	1	Ⴜ	cut_j_stereo_44KHz.wav
4	22	2	1	0	C	1	1	672	1	Ⴡ	cut_s_stereo_44KHz.wav
4	23	1	2	0	C	2	0	664	0	Ⴃ	cut_ui_stereo_44KHz.wav
4	24	4	4	2	I	2	0	974	1	Ⴁ	cut_j_stereo_44KHz.wav
4	25	1	2	0	C	2	0	640	0	Ⴃ	cut_ui_stereo_44KHz.wav
4	26	4	4	2	I	2	0	654	1	Ⴁ	cut_j_stereo_44KHz.wav
4	27	3	4	2	I	2	0	649	1	Ⴜ	cut_j_stereo_44KHz.wav
4	28	2	1	0	C	1	1	1371	1	Ⴡ	cut_s_stereo_44KHz.wav
4	29	1	1	1	C	1	0	1182	0	Ⴃ	cut_s_stereo_44KHz.wav
4	30	2	2	1	C	1	0	814	0	Ⴡ	cut_ui_stereo_44KHz.wav
4	31	4	3	2	I	2	0	801	1	Ⴁ	cut_oei_stereo_44KHz.wav
4	32	3	3	2	I	1	0	735	0	Ⴜ	cut_oei_stereo_44KHz.wav
4	33	1	2	0	C	2	0	1884	0	Ⴃ	cut_ui_stereo_44KHz.wav
4	34	2	2	1	C	2	1	1043	1	Ⴡ	cut_ui_stereo_44KHz.wav
4	35	4	3	2	I	1	0	918	1	Ⴁ	cut_oei_stereo_44KHz.wav
4	36	3	4	2	I	1	0	1827	1	Ⴜ	cut_j_stereo_44KHz.wav
4	37	2	1	0	C	1	1	831	1	Ⴡ	cut_s_stereo_44KHz.wav
4	38	4	4	2	I	1	0	1158	1	Ⴁ	cut_j_stereo_44KHz.wav
4	39	1	1	1	C	1	0	894	0	Ⴃ	cut_s_stereo_44KHz.wav
4	40	3	3	2	I	1	0	1393	1	Ⴜ	cut_oei_stereo_44KHz.wav
4	41	2	2	1	C	2	1	746	1	Ⴡ	cut_ui_stereo_44KHz.wav
4	42	1	1	1	C	1	0	747	0	Ⴃ	cut_s_stereo_44KHz.wav
4	43	3	4	2	I	2	0	752	1	Ⴜ	cut_j_stereo_44KHz.wav
4	44	4	3	2	I	2	0	729	0	Ⴁ	cut_oei_stereo_44KHz.wav
4	45	2	1	0	C	1	1	698	1	Ⴡ	cut_s_stereo_44KHz.wav
4	46	1	2	0	C	1	1	625	1	Ⴃ	cut_ui_stereo_44KHz.wav
4	47	3	3	2	I	2	0	842	0	Ⴜ	cut_oei_stereo_44KHz.wav
4	48	4	4	2	I	1	0	854	1	Ⴁ	cut_j_stereo_44KHz.wav
4	49	3	3	2	I	1	0	769	0	Ⴜ	cut_oei_stereo_44KHz.wav
4	50	2	1	0	C	1	1	822	1	Ⴡ	cut_s_stereo_44KHz.wav
4	51	4	3	2	I	2	0	693	1	Ⴁ	cut_oei_stereo_44KHz.wav
4	52	1	1	1	C	1	0	686	0	Ⴃ	cut_s_stereo_44KHz.wav
4	53	4	4	2	I	2	0	731	1	Ⴁ	cut_j_stereo_44KHz.wav
4	54	1	2	0	C	1	1	1093	1	Ⴃ	cut_ui_stereo_44KHz.wav
4	55	3	4	2	I	1	0	786	1	Ⴜ	cut_j_stereo_44KHz.wav
4	56	2	2	1	C	1	0	840	0	Ⴡ	cut_ui_stereo_44KHz.wav
4	57	3	3	2	I	1	0	961	1	Ⴜ	cut_oei_stereo_44KHz.wav
4	58	1	2	0	C	1	1	954	1	Ⴃ	cut_ui_stereo_44KHz.wav
4	59	2	2	1	C	2	1	992	1	Ⴡ	cut_ui_stereo_44KHz.wav
4	60	4	4	2	I	1	0	891	0	Ⴁ	cut_j_stereo_44KHz.wav
4	61	2	1	0	C	1	1	729	1	Ⴡ	cut_s_stereo_44KHz.wav
4	62	1	1	1	C	1	0	1091	0	Ⴃ	cut_s_stereo_44KHz.wav
4	63	3	4	2	I	1	0	905	0	Ⴜ	cut_j_stereo_44KHz.wav
4	64	4	3	2	I	2	0	817	1	Ⴁ	cut_oei_stereo_44KHz.wav
4	65	1	1	1	C	1	0	1005	0	Ⴃ	cut_s_stereo_44KHz.wav
4	66	2	1	0	C	1	1	711	1	Ⴡ	cut_s_stereo_44KHz.wav
4	67	3	4	2	I	2	0	781	1	Ⴜ	cut_j_stereo_44KHz.wav
4	68	4	4	2	I	1	0	1163	1	Ⴁ	cut_j_stereo_44KHz.wav
4	69	3	3	2	I	2	0	707	1	Ⴜ	cut_oei_stereo_44KHz.wav
4	70	1	2	0	C	2	0	801	0	Ⴃ	cut_ui_stereo_44KHz.wav
4	71	4	3	2	I	1	0	655	0	Ⴁ	cut_oei_stereo_44KHz.wav
4	72	2	2	1	C	2	1	985	1	Ⴡ	cut_ui_stereo_44KHz.wav
4	73	4	3	2	I	2	0	1063	1	Ⴁ	cut_oei_stereo_44KHz.wav
4	74	3	4	2	I	2	0	707	0	Ⴜ	cut_j_stereo_44KHz.wav
4	75	1	2	0	C	2	0	695	0	Ⴃ	cut_ui_stereo_44KHz.wav
4	76	2	1	0	C	1	1	1153	1	Ⴡ	cut_s_stereo_44KHz.wav
4	77	3	3	2	I	2	0	673	1	Ⴜ	cut_oei_stereo_44KHz.wav
4	78	1	1	1	C	1	0	970	0	Ⴃ	cut_s_stereo_44KHz.wav
4	79	4	4	2	I	1	0	915	1	Ⴁ	cut_j_stereo_44KHz.wav
4	80	2	2	1	C	1	0	1312	0	Ⴡ	cut_ui_stereo_44KHz.wav
4	81	4	4	2	I	2	0	819	1	Ⴁ	cut_j_stereo_44KHz.wav
4	82	3	4	2	I	2	0	771	1	Ⴜ	cut_j_stereo_44KHz.wav
4	83	2	1	0	C	1	1	780	1	Ⴡ	cut_s_stereo_44KHz.wav
4	84	1	1	1	C	1	0	789	0	Ⴃ	cut_s_stereo_44KHz.wav
4	85	4	3	2	I	2	0	1046	1	Ⴁ	cut_oei_stereo_44KHz.wav
4	86	3	3	2	I	1	0	915	1	Ⴜ	cut_oei_stereo_44KHz.wav
4	87	1	2	0	C	1	1	1159	1	Ⴃ	cut_ui_stereo_44KHz.wav
4	88	2	2	1	C	1	0	1094	0	Ⴡ	cut_ui_stereo_44KHz.wav
4	89	1	2	0	C	1	1	1052	1	Ⴃ	cut_ui_stereo_44KHz.wav
4	90	3	3	2	I	1	0	790	0	Ⴜ	cut_oei_stereo_44KHz.wav
4	91	2	2	1	C	1	0	1757	0	Ⴡ	cut_ui_stereo_44KHz.wav
4	92	4	4	2	I	0	0	0	0	Ⴁ	cut_j_stereo_44KHz.wav
4	93	1	1	1	C	1	0	968	0	Ⴃ	cut_s_stereo_44KHz.wav
4	94	2	1	0	C	1	1	738	1	Ⴡ	cut_s_stereo_44KHz.wav
4	95	4	3	2	I	1	0	1154	1	Ⴁ	cut_oei_stereo_44KHz.wav
4	96	3	4	2	I	1	0	865	1	Ⴜ	cut_j_stereo_44KHz.wav
4	97	2	2	1	C	2	1	794	1	Ⴡ	cut_ui_stereo_44KHz.wav
4	98	3	3	2	I	1	0	842	1	Ⴜ	cut_oei_stereo_44KHz.wav
4	99	4	4	2	I	1	0	1106	1	Ⴁ	cut_j_stereo_44KHz.wav
4	100	1	1	1	C	1	0	839	0	Ⴃ	cut_s_stereo_44KHz.wav
4	101	3	4	2	I	2	0	778	1	Ⴜ	cut_j_stereo_44KHz.wav
4	102	1	2	0	C	2	0	758	0	Ⴃ	cut_ui_stereo_44KHz.wav
4	103	2	1	0	C	1	1	691	1	Ⴡ	cut_s_stereo_44KHz.wav
4	104	4	3	2	I	2	0	1132	0	Ⴁ	cut_oei_stereo_44KHz.wav
4	105	1	1	1	C	1	0	924	0	Ⴃ	cut_s_stereo_44KHz.wav
4	106	2	2	1	C	2	1	958	1	Ⴡ	cut_ui_stereo_44KHz.wav
4	107	3	3	2	I	1	0	612	1	Ⴜ	cut_oei_stereo_44KHz.wav
4	108	4	4	2	I	2	0	759	1	Ⴁ	cut_j_stereo_44KHz.wav
4	109	2	1	0	C	1	1	784	1	Ⴡ	cut_s_stereo_44KHz.wav
4	110	3	4	2	I	1	0	779	1	Ⴜ	cut_j_stereo_44KHz.wav
4	111	4	3	2	I	1	0	965	1	Ⴁ	cut_oei_stereo_44KHz.wav
4	112	1	2	0	C	1	1	776	1	Ⴃ	cut_ui_stereo_44KHz.wav
4	113	2	1	0	C	1	1	1084	1	Ⴡ	cut_s_stereo_44KHz.wav
4	114	1	2	0	C	2	0	889	0	Ⴃ	cut_ui_stereo_44KHz.wav
4	115	3	4	2	I	2	0	1838	1	Ⴜ	cut_j_stereo_44KHz.wav
4	116	4	4	2	I	0	0	0	0	Ⴁ	cut_j_stereo_44KHz.wav
4	117	3	3	2	I	2	0	593	1	Ⴜ	cut_oei_stereo_44KHz.wav
4	118	1	1	1	C	1	0	973	0	Ⴃ	cut_s_stereo_44KHz.wav
4	119	4	3	2	I	2	0	705	1	Ⴁ	cut_oei_stereo_44KHz.wav
4	120	2	2	1	C	1	0	985	0	Ⴡ	cut_ui_stereo_44KHz.wav
4	121	1	2	0	C	2	0	770	0	Ⴃ	cut_ui_stereo_44KHz.wav
4	122	2	1	0	C	1	1	725	1	Ⴡ	cut_s_stereo_44KHz.wav
4	123	3	4	2	I	2	0	710	1	Ⴜ	cut_j_stereo_44KHz.wav
4	124	4	4	2	I	1	0	739	0	Ⴁ	cut_j_stereo_44KHz.wav
4	125	3	3	2	I	2	0	759	1	Ⴜ	cut_oei_stereo_44KHz.wav
4	126	4	3	2	I	2	0	1011	1	Ⴁ	cut_oei_stereo_44KHz.wav
4	127	1	1	1	C	2	1	765	1	Ⴃ	cut_s_stereo_44KHz.wav
4	128	2	2	1	C	2	1	1199	1	Ⴡ	cut_ui_stereo_44KHz.wav
4	129	4	4	2	I	1	0	807	1	Ⴁ	cut_j_stereo_44KHz.wav
4	130	2	1	0	C	1	1	784	1	Ⴡ	cut_s_stereo_44KHz.wav
4	131	1	1	1	C	2	1	754	1	Ⴃ	cut_s_stereo_44KHz.wav
4	132	3	3	2	I	2	0	762	1	Ⴜ	cut_oei_stereo_44KHz.wav
4	133	2	2	1	C	2	1	821	1	Ⴡ	cut_ui_stereo_44KHz.wav
4	134	3	4	2	I	2	0	582	1	Ⴜ	cut_j_stereo_44KHz.wav
4	135	4	3	2	I	2	0	961	0	Ⴁ	cut_oei_stereo_44KHz.wav
4	136	1	2	0	C	2	0	698	0	Ⴃ	cut_ui_stereo_44KHz.wav
4	137	2	1	0	C	1	1	1854	1	Ⴡ	cut_s_stereo_44KHz.wav
4	138	1	2	0	C	2	0	718	0	Ⴃ	cut_ui_stereo_44KHz.wav
4	139	3	4	2	I	2	0	956	1	Ⴜ	cut_j_stereo_44KHz.wav
4	140	4	4	2	I	1	0	708	1	Ⴁ	cut_j_stereo_44KHz.wav
4	141	1	1	1	C	2	1	822	1	Ⴃ	cut_s_stereo_44KHz.wav
4	142	4	3	2	I	2	0	927	1	Ⴁ	cut_oei_stereo_44KHz.wav
4	143	2	2	1	C	2	1	1157	1	Ⴡ	cut_ui_stereo_44KHz.wav
4	144	3	3	2	I	2	0	701	1	Ⴜ	cut_oei_stereo_44KHz.wav
4	145	1	1	1	C	2	1	616	1	Ⴃ	cut_s_stereo_44KHz.wav
4	146	3	3	2	I	2	0	658	1	Ⴜ	cut_oei_stereo_44KHz.wav
4	147	2	2	1	C	2	1	937	1	Ⴡ	cut_ui_stereo_44KHz.wav
4	148	4	4	2	I	1	0	1192	1	Ⴁ	cut_j_stereo_44KHz.wav
4	149	1	2	0	C	1	1	672	1	Ⴃ	cut_ui_stereo_44KHz.wav
4	150	3	4	2	I	2	0	718	1	Ⴜ	cut_j_stereo_44KHz.wav
4	151	4	3	2	I	2	0	983	1	Ⴁ	cut_oei_stereo_44KHz.wav
4	152	2	1	0	C	1	1	838	1	Ⴡ	cut_s_stereo_44KHz.wav
4	153	3	4	2	I	2	0	776	1	Ⴜ	cut_j_stereo_44KHz.wav
4	154	4	4	2	I	1	0	721	1	Ⴁ	cut_j_stereo_44KHz.wav
4	155	1	2	0	C	2	0	723	0	Ⴃ	cut_ui_stereo_44KHz.wav
4	156	2	1	0	C	1	1	728	1	Ⴡ	cut_s_stereo_44KHz.wav
4	157	1	1	1	C	2	1	843	1	Ⴃ	cut_s_stereo_44KHz.wav
4	158	4	3	2	I	2	0	1298	1	Ⴁ	cut_oei_stereo_44KHz.wav
4	159	3	3	2	I	2	0	684	1	Ⴜ	cut_oei_stereo_44KHz.wav
4	160	2	2	1	C	1	0	1197	0	Ⴡ	cut_ui_stereo_44KHz.wav
4	161	3	3	2	I	2	0	599	1	Ⴜ	cut_oei_stereo_44KHz.wav
4	162	4	3	2	I	2	0	809	1	Ⴁ	cut_oei_stereo_44KHz.wav
4	163	2	2	1	C	2	1	1167	1	Ⴡ	cut_ui_stereo_44KHz.wav
4	164	1	2	0	C	2	0	923	0	Ⴃ	cut_ui_stereo_44KHz.wav
4	165	3	4	2	I	2	0	810	1	Ⴜ	cut_j_stereo_44KHz.wav
4	166	2	1	0	C	1	1	607	1	Ⴡ	cut_s_stereo_44KHz.wav
4	167	1	1	1	C	2	1	828	1	Ⴃ	cut_s_stereo_44KHz.wav
4	168	4	4	2	I	1	0	757	1	Ⴁ	cut_j_stereo_44KHz.wav
4	169	3	4	2	I	2	0	698	0	Ⴜ	cut_j_stereo_44KHz.wav
4	170	1	2	0	C	1	1	1125	1	Ⴃ	cut_ui_stereo_44KHz.wav
4	171	4	4	2	I	1	0	996	1	Ⴁ	cut_j_stereo_44KHz.wav
4	172	2	1	0	C	1	1	721	1	Ⴡ	cut_s_stereo_44KHz.wav
4	173	4	3	2	I	1	0	604	0	Ⴁ	cut_oei_stereo_44KHz.wav
4	174	3	3	2	I	2	0	917	0	Ⴜ	cut_oei_stereo_44KHz.wav
4	175	1	1	1	C	2	1	756	1	Ⴃ	cut_s_stereo_44KHz.wav
4	176	2	2	1	C	1	0	928	0	Ⴡ	cut_ui_stereo_44KHz.wav
4	177	3	3	2	I	2	0	652	1	Ⴜ	cut_oei_stereo_44KHz.wav
4	178	2	2	1	C	2	1	946	1	Ⴡ	cut_ui_stereo_44KHz.wav
4	179	1	2	0	C	2	0	705	0	Ⴃ	cut_ui_stereo_44KHz.wav
4	180	4	3	2	I	2	0	822	1	Ⴁ	cut_oei_stereo_44KHz.wav
4	181	1	1	1	C	2	1	745	1	Ⴃ	cut_s_stereo_44KHz.wav
4	182	3	4	2	I	1	0	801	1	Ⴜ	cut_j_stereo_44KHz.wav
4	183	2	1	0	C	1	1	753	1	Ⴡ	cut_s_stereo_44KHz.wav
4	184	4	4	2	I	1	0	703	0	Ⴁ	cut_j_stereo_44KHz.wav
4	185	3	4	2	I	2	0	660	0	Ⴜ	cut_j_stereo_44KHz.wav
4	186	2	1	0	C	1	1	723	1	Ⴡ	cut_s_stereo_44KHz.wav
4	187	4	4	2	I	1	0	1099	0	Ⴁ	cut_j_stereo_44KHz.wav
4	188	1	2	0	C	1	1	1181	1	Ⴃ	cut_ui_stereo_44KHz.wav
4	189	4	3	2	I	1	0	1262	1	Ⴁ	cut_oei_stereo_44KHz.wav
4	190	2	2	1	C	1	0	1002	0	Ⴡ	cut_ui_stereo_44KHz.wav
4	191	1	1	1	C	1	0	1120	0	Ⴃ	cut_s_stereo_44KHz.wav
4	192	3	3	2	I	1	0	919	0	Ⴜ	cut_oei_stereo_44KHz.wav
4	193	4	3	2	I	2	0	741	1	Ⴁ	cut_oei_stereo_44KHz.wav
4	194	1	2	0	C	2	0	679	0	Ⴃ	cut_ui_stereo_44KHz.wav
4	195	2	1	0	C	1	1	927	1	Ⴡ	cut_s_stereo_44KHz.wav
4	196	3	4	2	I	2	0	696	1	Ⴜ	cut_j_stereo_44KHz.wav
4	197	2	2	1	C	2	1	1045	1	Ⴡ	cut_ui_stereo_44KHz.wav
4	198	1	1	1	C	2	1	1534	1	Ⴃ	cut_s_stereo_44KHz.wav
4	199	4	4	2	I	1	0	1026	1	Ⴁ	cut_j_stereo_44KHz.wav
4	200	3	3	2	I	2	0	857	1	Ⴜ	cut_oei_stereo_44KHz.wav
