block	trial	Vstim	Astim	match	C/I	resp	result	RT	fb	V-file	A-file
s120

0	1	1	2	0	C	0	0	0	0	Ⴢ	cut_eeuw_stereo_44KHz.wav
0	2	2	3	1	C	1	1	896	1	Ⴋ	cut_ee_stereo_44KHz.wav
0	3	2	4	0	C	1	0	824	0	Ⴋ	cut_g_stereo_44KHz.wav
0	4	1	1	1	C	2	0	1248	0	Ⴢ	cut_oo_stereo_44KHz.wav
0	5	2	3	1	C	1	1	1287	1	Ⴋ	cut_ee_stereo_44KHz.wav
0	6	2	4	0	C	2	1	996	1	Ⴋ	cut_g_stereo_44KHz.wav
0	7	1	1	1	C	2	0	1328	0	Ⴢ	cut_oo_stereo_44KHz.wav
0	8	1	2	0	C	2	1	1387	1	Ⴢ	cut_eeuw_stereo_44KHz.wav
0	9	1	1	1	C	1	1	1342	1	Ⴢ	cut_oo_stereo_44KHz.wav
0	10	2	3	1	C	0	0	0	0	Ⴋ	cut_ee_stereo_44KHz.wav
0	11	2	4	0	C	1	0	1285	0	Ⴋ	cut_g_stereo_44KHz.wav
0	12	1	2	0	C	2	1	1576	1	Ⴢ	cut_eeuw_stereo_44KHz.wav
0	13	2	3	1	C	1	1	1328	1	Ⴋ	cut_ee_stereo_44KHz.wav
0	14	2	4	0	C	1	0	1076	0	Ⴋ	cut_g_stereo_44KHz.wav
0	15	1	1	1	C	1	1	877	1	Ⴢ	cut_oo_stereo_44KHz.wav
0	16	1	2	0	C	2	1	671	1	Ⴢ	cut_eeuw_stereo_44KHz.wav
0	17	2	3	1	C	1	1	967	1	Ⴋ	cut_ee_stereo_44KHz.wav
0	18	2	4	0	C	2	1	1161	1	Ⴋ	cut_g_stereo_44KHz.wav
0	19	1	1	1	C	1	1	848	1	Ⴢ	cut_oo_stereo_44KHz.wav
0	20	1	2	0	C	1	0	1066	0	Ⴢ	cut_eeuw_stereo_44KHz.wav
0	21	1	1	1	C	2	0	1071	0	Ⴢ	cut_oo_stereo_44KHz.wav
0	22	2	4	0	C	2	1	977	1	Ⴋ	cut_g_stereo_44KHz.wav
0	23	1	2	0	C	2	1	731	1	Ⴢ	cut_eeuw_stereo_44KHz.wav
0	24	2	3	1	C	1	1	1065	1	Ⴋ	cut_ee_stereo_44KHz.wav
0	25	2	4	0	C	2	1	939	1	Ⴋ	cut_g_stereo_44KHz.wav
0	26	1	1	1	C	1	1	854	1	Ⴢ	cut_oo_stereo_44KHz.wav
0	27	1	2	0	C	1	0	883	0	Ⴢ	cut_eeuw_stereo_44KHz.wav
0	28	2	3	1	C	2	0	1077	0	Ⴋ	cut_ee_stereo_44KHz.wav
0	29	1	1	1	C	2	0	1250	0	Ⴢ	cut_oo_stereo_44KHz.wav
0	30	2	3	1	C	1	1	1196	1	Ⴋ	cut_ee_stereo_44KHz.wav
avg_resp = 1061
1	1	2	2	1	C	2	0	1852	0	Ⴊ	cut_f_stereo_44KHz.wav
1	2	4	3	2	I	1	0	1477	0	Ⴟ	cut_n_stereo_44KHz.wav
1	3	3	3	2	I	1	0	1240	1	Ⴡ	cut_n_stereo_44KHz.wav
1	4	1	2	0	C	0	0	0	0	Ⴜ	cut_f_stereo_44KHz.wav
1	5	2	1	0	C	1	0	929	0	Ⴊ	cut_j_stereo_44KHz.wav
1	6	3	4	2	I	2	0	636	1	Ⴡ	cut_oei_stereo_44KHz.wav
1	7	4	4	2	I	1	0	933	1	Ⴟ	cut_oei_stereo_44KHz.wav
1	8	1	1	1	C	1	1	720	1	Ⴜ	cut_j_stereo_44KHz.wav
1	9	4	3	2	I	1	0	792	0	Ⴟ	cut_n_stereo_44KHz.wav
1	10	1	2	0	C	1	0	1022	0	Ⴜ	cut_f_stereo_44KHz.wav
1	11	2	1	0	C	2	1	945	1	Ⴊ	cut_j_stereo_44KHz.wav
1	12	3	3	2	I	2	0	1245	1	Ⴡ	cut_n_stereo_44KHz.wav
1	13	1	1	1	C	1	1	668	1	Ⴜ	cut_j_stereo_44KHz.wav
1	14	4	4	2	I	2	0	976	1	Ⴟ	cut_oei_stereo_44KHz.wav
1	15	2	2	1	C	1	1	909	1	Ⴊ	cut_f_stereo_44KHz.wav
1	16	3	4	2	I	2	0	1268	1	Ⴡ	cut_oei_stereo_44KHz.wav
1	17	2	1	0	C	2	1	1042	1	Ⴊ	cut_j_stereo_44KHz.wav
1	18	4	3	2	I	2	0	1133	1	Ⴟ	cut_n_stereo_44KHz.wav
1	19	3	3	2	I	1	0	1004	1	Ⴡ	cut_n_stereo_44KHz.wav
1	20	1	2	0	C	2	1	1037	1	Ⴜ	cut_f_stereo_44KHz.wav
1	21	3	4	2	I	1	0	868	1	Ⴡ	cut_oei_stereo_44KHz.wav
1	22	2	2	1	C	2	0	1129	0	Ⴊ	cut_f_stereo_44KHz.wav
1	23	4	4	2	I	2	0	937	1	Ⴟ	cut_oei_stereo_44KHz.wav
1	24	1	1	1	C	1	1	1057	1	Ⴜ	cut_j_stereo_44KHz.wav
1	25	2	2	1	C	0	0	0	0	Ⴊ	cut_f_stereo_44KHz.wav
1	26	4	3	2	I	1	0	979	1	Ⴟ	cut_n_stereo_44KHz.wav
1	27	3	4	2	I	2	0	814	0	Ⴡ	cut_oei_stereo_44KHz.wav
1	28	1	1	1	C	2	0	756	0	Ⴜ	cut_j_stereo_44KHz.wav
1	29	3	3	2	I	2	0	775	1	Ⴡ	cut_n_stereo_44KHz.wav
1	30	2	1	0	C	1	0	1084	0	Ⴊ	cut_j_stereo_44KHz.wav
1	31	4	4	2	I	1	0	1045	1	Ⴟ	cut_oei_stereo_44KHz.wav
1	32	1	2	0	C	1	0	1063	0	Ⴜ	cut_f_stereo_44KHz.wav
1	33	2	2	1	C	2	0	911	0	Ⴊ	cut_f_stereo_44KHz.wav
1	34	1	2	0	C	2	1	1226	1	Ⴜ	cut_f_stereo_44KHz.wav
1	35	4	3	2	I	2	0	1688	1	Ⴟ	cut_n_stereo_44KHz.wav
1	36	3	4	2	I	1	0	1048	0	Ⴡ	cut_oei_stereo_44KHz.wav
1	37	2	1	0	C	2	1	733	1	Ⴊ	cut_j_stereo_44KHz.wav
1	38	1	1	1	C	1	1	893	1	Ⴜ	cut_j_stereo_44KHz.wav
1	39	4	4	2	I	1	0	1050	1	Ⴟ	cut_oei_stereo_44KHz.wav
1	40	3	3	2	I	2	0	418	1	Ⴡ	cut_n_stereo_44KHz.wav
1	41	4	4	2	I	1	0	852	1	Ⴟ	cut_oei_stereo_44KHz.wav
1	42	3	4	2	I	1	0	899	1	Ⴡ	cut_oei_stereo_44KHz.wav
1	43	2	2	1	C	1	1	989	1	Ⴊ	cut_f_stereo_44KHz.wav
1	44	1	2	0	C	1	0	871	0	Ⴜ	cut_f_stereo_44KHz.wav
1	45	2	1	0	C	2	1	1163	1	Ⴊ	cut_j_stereo_44KHz.wav
1	46	1	1	1	C	1	1	855	1	Ⴜ	cut_j_stereo_44KHz.wav
1	47	3	3	2	I	2	0	985	1	Ⴡ	cut_n_stereo_44KHz.wav
1	48	4	3	2	I	1	0	857	1	Ⴟ	cut_n_stereo_44KHz.wav
1	49	3	3	2	I	1	0	1620	1	Ⴡ	cut_n_stereo_44KHz.wav
1	50	2	2	1	C	2	0	1184	0	Ⴊ	cut_f_stereo_44KHz.wav
1	51	4	4	2	I	1	0	1093	1	Ⴟ	cut_oei_stereo_44KHz.wav
1	52	1	1	1	C	1	1	963	1	Ⴜ	cut_j_stereo_44KHz.wav
1	53	3	4	2	I	2	0	800	1	Ⴡ	cut_oei_stereo_44KHz.wav
1	54	2	1	0	C	1	0	988	0	Ⴊ	cut_j_stereo_44KHz.wav
1	55	1	2	0	C	1	0	850	0	Ⴜ	cut_f_stereo_44KHz.wav
1	56	4	3	2	I	2	0	1004	0	Ⴟ	cut_n_stereo_44KHz.wav
1	57	2	2	1	C	2	0	766	0	Ⴊ	cut_f_stereo_44KHz.wav
1	58	3	3	2	I	1	0	1191	1	Ⴡ	cut_n_stereo_44KHz.wav
1	59	1	2	0	C	1	0	913	0	Ⴜ	cut_f_stereo_44KHz.wav
1	60	4	3	2	I	2	0	988	1	Ⴟ	cut_n_stereo_44KHz.wav
1	61	3	4	2	I	1	0	966	0	Ⴡ	cut_oei_stereo_44KHz.wav
1	62	4	4	2	I	1	0	915	0	Ⴟ	cut_oei_stereo_44KHz.wav
1	63	1	1	1	C	1	1	996	1	Ⴜ	cut_j_stereo_44KHz.wav
1	64	2	1	0	C	1	0	987	0	Ⴊ	cut_j_stereo_44KHz.wav
1	65	1	2	0	C	1	0	1304	0	Ⴜ	cut_f_stereo_44KHz.wav
1	66	4	4	2	I	2	0	1320	0	Ⴟ	cut_oei_stereo_44KHz.wav
1	67	3	4	2	I	1	0	1282	1	Ⴡ	cut_oei_stereo_44KHz.wav
1	68	2	1	0	C	2	1	1344	1	Ⴊ	cut_j_stereo_44KHz.wav
1	69	1	1	1	C	1	1	828	1	Ⴜ	cut_j_stereo_44KHz.wav
1	70	3	3	2	I	2	0	1101	1	Ⴡ	cut_n_stereo_44KHz.wav
1	71	2	2	1	C	2	0	1165	0	Ⴊ	cut_f_stereo_44KHz.wav
1	72	4	3	2	I	1	0	1223	1	Ⴟ	cut_n_stereo_44KHz.wav
1	73	1	2	0	C	1	0	907	0	Ⴜ	cut_f_stereo_44KHz.wav
1	74	4	3	2	I	2	0	1055	1	Ⴟ	cut_n_stereo_44KHz.wav
1	75	3	3	2	I	1	0	794	0	Ⴡ	cut_n_stereo_44KHz.wav
1	76	2	2	1	C	1	1	1131	1	Ⴊ	cut_f_stereo_44KHz.wav
1	77	4	4	2	I	1	0	1108	1	Ⴟ	cut_oei_stereo_44KHz.wav
1	78	3	4	2	I	1	0	1028	1	Ⴡ	cut_oei_stereo_44KHz.wav
1	79	1	1	1	C	2	0	1066	0	Ⴜ	cut_j_stereo_44KHz.wav
1	80	2	1	0	C	1	0	810	0	Ⴊ	cut_j_stereo_44KHz.wav
1	81	3	4	2	I	1	0	988	0	Ⴡ	cut_oei_stereo_44KHz.wav
1	82	1	2	0	C	2	1	776	1	Ⴜ	cut_f_stereo_44KHz.wav
1	83	4	4	2	I	2	0	1237	1	Ⴟ	cut_oei_stereo_44KHz.wav
1	84	2	2	1	C	1	1	1016	1	Ⴊ	cut_f_stereo_44KHz.wav
1	85	1	1	1	C	1	1	1036	1	Ⴜ	cut_j_stereo_44KHz.wav
1	86	2	1	0	C	2	1	1030	1	Ⴊ	cut_j_stereo_44KHz.wav
1	87	3	3	2	I	1	0	1419	0	Ⴡ	cut_n_stereo_44KHz.wav
1	88	4	3	2	I	2	0	893	1	Ⴟ	cut_n_stereo_44KHz.wav
1	89	2	1	0	C	2	1	1155	1	Ⴊ	cut_j_stereo_44KHz.wav
1	90	3	3	2	I	1	0	966	1	Ⴡ	cut_n_stereo_44KHz.wav
1	91	1	1	1	C	1	1	991	1	Ⴜ	cut_j_stereo_44KHz.wav
1	92	4	4	2	I	1	0	922	0	Ⴟ	cut_oei_stereo_44KHz.wav
1	93	1	2	0	C	1	0	972	0	Ⴜ	cut_f_stereo_44KHz.wav
1	94	2	2	1	C	2	0	1023	0	Ⴊ	cut_f_stereo_44KHz.wav
1	95	4	3	2	I	1	0	1270	1	Ⴟ	cut_n_stereo_44KHz.wav
1	96	3	4	2	I	1	0	1173	0	Ⴡ	cut_oei_stereo_44KHz.wav
1	97	4	3	2	I	2	0	1497	0	Ⴟ	cut_n_stereo_44KHz.wav
1	98	1	2	0	C	1	0	908	0	Ⴜ	cut_f_stereo_44KHz.wav
1	99	2	2	1	C	2	0	888	0	Ⴊ	cut_f_stereo_44KHz.wav
1	100	3	3	2	I	2	0	1444	0	Ⴡ	cut_n_stereo_44KHz.wav
1	101	1	1	1	C	1	1	1006	1	Ⴜ	cut_j_stereo_44KHz.wav
1	102	2	1	0	C	0	0	0	0	Ⴊ	cut_j_stereo_44KHz.wav
1	103	3	4	2	I	2	0	1497	1	Ⴡ	cut_oei_stereo_44KHz.wav
1	104	4	4	2	I	1	0	816	1	Ⴟ	cut_oei_stereo_44KHz.wav
1	105	3	3	2	I	2	0	1232	1	Ⴡ	cut_n_stereo_44KHz.wav
1	106	2	1	0	C	2	1	1007	1	Ⴊ	cut_j_stereo_44KHz.wav
1	107	4	4	2	I	1	0	1209	1	Ⴟ	cut_oei_stereo_44KHz.wav
1	108	1	2	0	C	1	0	1004	0	Ⴜ	cut_f_stereo_44KHz.wav
1	109	3	4	2	I	2	0	1022	1	Ⴡ	cut_oei_stereo_44KHz.wav
1	110	4	3	2	I	1	0	932	1	Ⴟ	cut_n_stereo_44KHz.wav
1	111	2	2	1	C	2	0	774	0	Ⴊ	cut_f_stereo_44KHz.wav
1	112	1	1	1	C	1	1	1139	1	Ⴜ	cut_j_stereo_44KHz.wav
1	113	4	4	2	I	2	0	1088	1	Ⴟ	cut_oei_stereo_44KHz.wav
1	114	1	1	1	C	1	1	914	1	Ⴜ	cut_j_stereo_44KHz.wav
1	115	2	1	0	C	2	1	1107	1	Ⴊ	cut_j_stereo_44KHz.wav
1	116	3	3	2	I	1	0	1520	1	Ⴡ	cut_n_stereo_44KHz.wav
1	117	4	3	2	I	0	0	0	0	Ⴟ	cut_n_stereo_44KHz.wav
1	118	2	2	1	C	0	0	0	0	Ⴊ	cut_f_stereo_44KHz.wav
1	119	3	4	2	I	2	0	1379	1	Ⴡ	cut_oei_stereo_44KHz.wav
1	120	1	2	0	C	1	0	1009	0	Ⴜ	cut_f_stereo_44KHz.wav
1	121	4	4	2	I	2	0	1079	1	Ⴟ	cut_oei_stereo_44KHz.wav
1	122	3	3	2	I	1	0	1365	1	Ⴡ	cut_n_stereo_44KHz.wav
1	123	1	1	1	C	2	0	995	0	Ⴜ	cut_j_stereo_44KHz.wav
1	124	2	1	0	C	2	1	915	1	Ⴊ	cut_j_stereo_44KHz.wav
1	125	1	2	0	C	1	0	901	0	Ⴜ	cut_f_stereo_44KHz.wav
1	126	3	4	2	I	2	0	1093	1	Ⴡ	cut_oei_stereo_44KHz.wav
1	127	2	2	1	C	2	0	1187	0	Ⴊ	cut_f_stereo_44KHz.wav
1	128	4	3	2	I	1	0	1220	1	Ⴟ	cut_n_stereo_44KHz.wav
1	129	1	2	0	C	2	1	1682	1	Ⴜ	cut_f_stereo_44KHz.wav
1	130	2	1	0	C	2	1	1025	1	Ⴊ	cut_j_stereo_44KHz.wav
1	131	3	4	2	I	2	0	1139	1	Ⴡ	cut_oei_stereo_44KHz.wav
1	132	4	4	2	I	2	0	1333	0	Ⴟ	cut_oei_stereo_44KHz.wav
1	133	3	3	2	I	1	0	1271	1	Ⴡ	cut_n_stereo_44KHz.wav
1	134	1	1	1	C	1	1	1346	1	Ⴜ	cut_j_stereo_44KHz.wav
1	135	4	3	2	I	2	0	1092	1	Ⴟ	cut_n_stereo_44KHz.wav
1	136	2	2	1	C	0	0	0	0	Ⴊ	cut_f_stereo_44KHz.wav
1	137	4	3	2	I	0	0	0	0	Ⴟ	cut_n_stereo_44KHz.wav
1	138	3	3	2	I	1	0	1052	0	Ⴡ	cut_n_stereo_44KHz.wav
1	139	1	2	0	C	2	1	1943	1	Ⴜ	cut_f_stereo_44KHz.wav
1	140	2	1	0	C	2	1	1031	1	Ⴊ	cut_j_stereo_44KHz.wav
1	141	3	4	2	I	2	0	1117	1	Ⴡ	cut_oei_stereo_44KHz.wav
1	142	1	1	1	C	2	0	1393	0	Ⴜ	cut_j_stereo_44KHz.wav
1	143	4	4	2	I	2	0	1158	1	Ⴟ	cut_oei_stereo_44KHz.wav
1	144	2	2	1	C	2	0	1448	0	Ⴊ	cut_f_stereo_44KHz.wav
1	145	3	3	2	I	2	0	1859	1	Ⴡ	cut_n_stereo_44KHz.wav
1	146	4	4	2	I	2	0	612	1	Ⴟ	cut_oei_stereo_44KHz.wav
1	147	2	1	0	C	2	1	661	1	Ⴊ	cut_j_stereo_44KHz.wav
1	148	1	2	0	C	2	1	942	1	Ⴜ	cut_f_stereo_44KHz.wav
1	149	2	2	1	C	1	1	596	1	Ⴊ	cut_f_stereo_44KHz.wav
1	150	3	4	2	I	2	0	1044	1	Ⴡ	cut_oei_stereo_44KHz.wav
1	151	4	3	2	I	1	0	849	0	Ⴟ	cut_n_stereo_44KHz.wav
1	152	1	1	1	C	2	0	764	0	Ⴜ	cut_j_stereo_44KHz.wav
1	153	3	4	2	I	2	0	951	1	Ⴡ	cut_oei_stereo_44KHz.wav
1	154	2	1	0	C	2	1	932	1	Ⴊ	cut_j_stereo_44KHz.wav
1	155	4	4	2	I	1	0	1279	1	Ⴟ	cut_oei_stereo_44KHz.wav
1	156	1	2	0	C	2	1	971	1	Ⴜ	cut_f_stereo_44KHz.wav
1	157	3	3	2	I	1	0	1161	1	Ⴡ	cut_n_stereo_44KHz.wav
1	158	1	1	1	C	2	0	1143	0	Ⴜ	cut_j_stereo_44KHz.wav
1	159	2	2	1	C	2	0	1048	0	Ⴊ	cut_f_stereo_44KHz.wav
1	160	4	3	2	I	1	0	1064	1	Ⴟ	cut_n_stereo_44KHz.wav
1	161	3	4	2	I	2	0	877	1	Ⴡ	cut_oei_stereo_44KHz.wav
1	162	1	1	1	C	1	1	1027	1	Ⴜ	cut_j_stereo_44KHz.wav
1	163	4	3	2	I	1	0	1238	1	Ⴟ	cut_n_stereo_44KHz.wav
1	164	2	2	1	C	2	0	955	0	Ⴊ	cut_f_stereo_44KHz.wav
1	165	1	2	0	C	2	1	922	1	Ⴜ	cut_f_stereo_44KHz.wav
1	166	4	4	2	I	1	0	1342	1	Ⴟ	cut_oei_stereo_44KHz.wav
1	167	3	3	2	I	1	0	1506	1	Ⴡ	cut_n_stereo_44KHz.wav
1	168	2	1	0	C	2	1	1144	1	Ⴊ	cut_j_stereo_44KHz.wav
1	169	4	3	2	I	1	0	1780	1	Ⴟ	cut_n_stereo_44KHz.wav
1	170	3	3	2	I	1	0	989	1	Ⴡ	cut_n_stereo_44KHz.wav
1	171	1	2	0	C	2	1	1258	1	Ⴜ	cut_f_stereo_44KHz.wav
1	172	2	1	0	C	2	1	1000	1	Ⴊ	cut_j_stereo_44KHz.wav
1	173	1	1	1	C	1	1	1249	1	Ⴜ	cut_j_stereo_44KHz.wav
1	174	3	4	2	I	2	0	982	1	Ⴡ	cut_oei_stereo_44KHz.wav
1	175	4	4	2	I	1	0	1019	1	Ⴟ	cut_oei_stereo_44KHz.wav
1	176	2	2	1	C	2	0	958	0	Ⴊ	cut_f_stereo_44KHz.wav
1	177	3	4	2	I	2	0	1354	1	Ⴡ	cut_oei_stereo_44KHz.wav
1	178	1	2	0	C	2	1	925	1	Ⴜ	cut_f_stereo_44KHz.wav
1	179	2	1	0	C	0	0	0	0	Ⴊ	cut_j_stereo_44KHz.wav
1	180	4	4	2	I	1	0	1182	1	Ⴟ	cut_oei_stereo_44KHz.wav
1	181	2	2	1	C	1	1	1142	1	Ⴊ	cut_f_stereo_44KHz.wav
1	182	1	1	1	C	1	1	1127	1	Ⴜ	cut_j_stereo_44KHz.wav
1	183	4	3	2	I	1	0	1330	1	Ⴟ	cut_n_stereo_44KHz.wav
1	184	3	3	2	I	1	0	988	0	Ⴡ	cut_n_stereo_44KHz.wav
1	185	2	2	1	C	2	0	996	0	Ⴊ	cut_f_stereo_44KHz.wav
1	186	3	4	2	I	2	0	963	1	Ⴡ	cut_oei_stereo_44KHz.wav
1	187	1	2	0	C	2	1	1421	1	Ⴜ	cut_f_stereo_44KHz.wav
1	188	4	3	2	I	1	0	1289	1	Ⴟ	cut_n_stereo_44KHz.wav
1	189	1	1	1	C	1	1	1168	1	Ⴜ	cut_j_stereo_44KHz.wav
1	190	4	4	2	I	2	0	1631	1	Ⴟ	cut_oei_stereo_44KHz.wav
1	191	2	1	0	C	2	1	1441	1	Ⴊ	cut_j_stereo_44KHz.wav
1	192	3	3	2	I	1	0	1032	1	Ⴡ	cut_n_stereo_44KHz.wav
1	193	4	3	2	I	1	0	1476	0	Ⴟ	cut_n_stereo_44KHz.wav
1	194	2	1	0	C	2	1	1029	1	Ⴊ	cut_j_stereo_44KHz.wav
1	195	3	3	2	I	1	0	1100	1	Ⴡ	cut_n_stereo_44KHz.wav
1	196	1	2	0	C	2	1	831	1	Ⴜ	cut_f_stereo_44KHz.wav
1	197	2	2	1	C	1	1	1046	1	Ⴊ	cut_f_stereo_44KHz.wav
1	198	1	1	1	C	2	0	1067	0	Ⴜ	cut_j_stereo_44KHz.wav
1	199	3	4	2	I	2	0	1219	1	Ⴡ	cut_oei_stereo_44KHz.wav
1	200	4	4	2	I	1	0	982	1	Ⴟ	cut_oei_stereo_44KHz.wav
2	1	4	4	2	I	0	0	0	0	Ⴔ	cut_k_stereo_44KHz.wav
2	2	3	4	2	I	1	0	653	0	Ⴖ	cut_k_stereo_44KHz.wav
2	3	2	1	0	C	0	0	0	0	Ⴒ	cut_o_stereo_44KHz.wav
2	4	1	1	1	C	1	1	885	1	Ⴉ	cut_o_stereo_44KHz.wav
2	5	2	2	1	C	0	0	0	0	Ⴒ	cut_a_stereo_44KHz.wav
2	6	1	2	0	C	1	0	696	0	Ⴉ	cut_a_stereo_44KHz.wav
2	7	3	3	2	I	0	0	0	0	Ⴖ	cut_u_stereo_44KHz.wav
2	8	4	3	2	I	1	0	839	1	Ⴔ	cut_u_stereo_44KHz.wav
2	9	3	4	2	I	0	0	0	0	Ⴖ	cut_k_stereo_44KHz.wav
2	10	2	1	0	C	0	0	0	0	Ⴒ	cut_o_stereo_44KHz.wav
2	11	4	4	2	I	1	0	545	1	Ⴔ	cut_k_stereo_44KHz.wav
2	12	1	2	0	C	2	1	1676	1	Ⴉ	cut_a_stereo_44KHz.wav
2	13	3	3	2	I	2	0	875	1	Ⴖ	cut_u_stereo_44KHz.wav
2	14	4	3	2	I	2	0	738	1	Ⴔ	cut_u_stereo_44KHz.wav
2	15	1	1	1	C	1	1	756	1	Ⴉ	cut_o_stereo_44KHz.wav
2	16	2	2	1	C	2	0	670	0	Ⴒ	cut_a_stereo_44KHz.wav
2	17	3	4	2	I	2	0	806	1	Ⴖ	cut_k_stereo_44KHz.wav
2	18	1	2	0	C	1	0	851	0	Ⴉ	cut_a_stereo_44KHz.wav
2	19	2	2	1	C	2	0	783	0	Ⴒ	cut_a_stereo_44KHz.wav
2	20	4	3	2	I	2	0	994	1	Ⴔ	cut_u_stereo_44KHz.wav
2	21	1	1	1	C	1	1	600	1	Ⴉ	cut_o_stereo_44KHz.wav
2	22	3	3	2	I	1	0	959	1	Ⴖ	cut_u_stereo_44KHz.wav
2	23	4	4	2	I	2	0	875	1	Ⴔ	cut_k_stereo_44KHz.wav
2	24	2	1	0	C	1	0	790	0	Ⴒ	cut_o_stereo_44KHz.wav
2	25	3	3	2	I	2	0	1027	1	Ⴖ	cut_u_stereo_44KHz.wav
2	26	4	4	2	I	1	0	887	0	Ⴔ	cut_k_stereo_44KHz.wav
2	27	2	1	0	C	2	1	1305	1	Ⴒ	cut_o_stereo_44KHz.wav
2	28	1	2	0	C	2	1	909	1	Ⴉ	cut_a_stereo_44KHz.wav
2	29	2	2	1	C	2	0	867	0	Ⴒ	cut_a_stereo_44KHz.wav
2	30	1	1	1	C	1	1	672	1	Ⴉ	cut_o_stereo_44KHz.wav
2	31	4	3	2	I	2	0	986	1	Ⴔ	cut_u_stereo_44KHz.wav
2	32	3	4	2	I	1	0	840	1	Ⴖ	cut_k_stereo_44KHz.wav
2	33	1	1	1	C	2	0	914	0	Ⴉ	cut_o_stereo_44KHz.wav
2	34	2	2	1	C	1	1	677	1	Ⴒ	cut_a_stereo_44KHz.wav
2	35	4	4	2	I	1	0	756	0	Ⴔ	cut_k_stereo_44KHz.wav
2	36	3	4	2	I	2	0	779	1	Ⴖ	cut_k_stereo_44KHz.wav
2	37	2	1	0	C	2	1	1047	1	Ⴒ	cut_o_stereo_44KHz.wav
2	38	1	2	0	C	2	1	865	1	Ⴉ	cut_a_stereo_44KHz.wav
2	39	4	3	2	I	1	0	843	0	Ⴔ	cut_u_stereo_44KHz.wav
2	40	3	3	2	I	2	0	753	1	Ⴖ	cut_u_stereo_44KHz.wav
2	41	2	2	1	C	1	1	849	1	Ⴒ	cut_a_stereo_44KHz.wav
2	42	3	4	2	I	2	0	751	1	Ⴖ	cut_k_stereo_44KHz.wav
2	43	1	1	1	C	1	1	972	1	Ⴉ	cut_o_stereo_44KHz.wav
2	44	4	4	2	I	2	0	787	1	Ⴔ	cut_k_stereo_44KHz.wav
2	45	3	3	2	I	1	0	855	1	Ⴖ	cut_u_stereo_44KHz.wav
2	46	2	1	0	C	2	1	684	1	Ⴒ	cut_o_stereo_44KHz.wav
2	47	4	3	2	I	1	0	571	1	Ⴔ	cut_u_stereo_44KHz.wav
2	48	1	2	0	C	2	1	886	1	Ⴉ	cut_a_stereo_44KHz.wav
2	49	4	4	2	I	1	0	1019	0	Ⴔ	cut_k_stereo_44KHz.wav
2	50	1	1	1	C	1	1	917	1	Ⴉ	cut_o_stereo_44KHz.wav
2	51	2	2	1	C	1	1	1225	1	Ⴒ	cut_a_stereo_44KHz.wav
2	52	3	3	2	I	0	0	0	0	Ⴖ	cut_u_stereo_44KHz.wav
2	53	1	2	0	C	2	1	1028	1	Ⴉ	cut_a_stereo_44KHz.wav
2	54	4	3	2	I	1	0	850	1	Ⴔ	cut_u_stereo_44KHz.wav
2	55	3	4	2	I	2	0	917	1	Ⴖ	cut_k_stereo_44KHz.wav
2	56	2	1	0	C	1	0	703	0	Ⴒ	cut_o_stereo_44KHz.wav
2	57	1	1	1	C	1	1	905	1	Ⴉ	cut_o_stereo_44KHz.wav
2	58	4	4	2	I	2	0	1096	1	Ⴔ	cut_k_stereo_44KHz.wav
2	59	3	3	2	I	2	0	1249	1	Ⴖ	cut_u_stereo_44KHz.wav
2	60	2	2	1	C	1	1	793	1	Ⴒ	cut_a_stereo_44KHz.wav
2	61	1	2	0	C	2	1	756	1	Ⴉ	cut_a_stereo_44KHz.wav
2	62	4	3	2	I	1	0	849	1	Ⴔ	cut_u_stereo_44KHz.wav
2	63	3	4	2	I	2	0	873	1	Ⴖ	cut_k_stereo_44KHz.wav
2	64	2	1	0	C	1	0	1128	0	Ⴒ	cut_o_stereo_44KHz.wav
2	65	3	3	2	I	2	0	907	1	Ⴖ	cut_u_stereo_44KHz.wav
2	66	1	1	1	C	2	0	769	0	Ⴉ	cut_o_stereo_44KHz.wav
2	67	4	3	2	I	1	0	482	1	Ⴔ	cut_u_stereo_44KHz.wav
2	68	2	2	1	C	2	0	1102	0	Ⴒ	cut_a_stereo_44KHz.wav
2	69	3	4	2	I	2	0	1024	1	Ⴖ	cut_k_stereo_44KHz.wav
2	70	2	1	0	C	1	0	776	0	Ⴒ	cut_o_stereo_44KHz.wav
2	71	4	4	2	I	2	0	807	1	Ⴔ	cut_k_stereo_44KHz.wav
2	72	1	2	0	C	2	1	962	1	Ⴉ	cut_a_stereo_44KHz.wav
2	73	4	4	2	I	2	0	968	1	Ⴔ	cut_k_stereo_44KHz.wav
2	74	1	2	0	C	2	1	594	1	Ⴉ	cut_a_stereo_44KHz.wav
2	75	3	3	2	I	2	0	881	1	Ⴖ	cut_u_stereo_44KHz.wav
2	76	2	1	0	C	2	1	956	1	Ⴒ	cut_o_stereo_44KHz.wav
2	77	1	1	1	C	1	1	829	1	Ⴉ	cut_o_stereo_44KHz.wav
2	78	2	2	1	C	1	1	806	1	Ⴒ	cut_a_stereo_44KHz.wav
2	79	4	3	2	I	2	0	840	0	Ⴔ	cut_u_stereo_44KHz.wav
2	80	3	4	2	I	2	0	773	1	Ⴖ	cut_k_stereo_44KHz.wav
2	81	4	4	2	I	2	0	870	0	Ⴔ	cut_k_stereo_44KHz.wav
2	82	3	4	2	I	2	0	677	0	Ⴖ	cut_k_stereo_44KHz.wav
2	83	1	1	1	C	1	1	817	1	Ⴉ	cut_o_stereo_44KHz.wav
2	84	2	2	1	C	1	1	998	1	Ⴒ	cut_a_stereo_44KHz.wav
2	85	1	2	0	C	2	1	617	1	Ⴉ	cut_a_stereo_44KHz.wav
2	86	4	3	2	I	2	0	647	1	Ⴔ	cut_u_stereo_44KHz.wav
2	87	2	1	0	C	1	0	800	0	Ⴒ	cut_o_stereo_44KHz.wav
2	88	3	3	2	I	2	0	768	1	Ⴖ	cut_u_stereo_44KHz.wav
2	89	2	2	1	C	2	0	971	0	Ⴒ	cut_a_stereo_44KHz.wav
2	90	4	3	2	I	2	0	942	1	Ⴔ	cut_u_stereo_44KHz.wav
2	91	1	2	0	C	2	1	828	1	Ⴉ	cut_a_stereo_44KHz.wav
2	92	3	4	2	I	2	0	736	0	Ⴖ	cut_k_stereo_44KHz.wav
2	93	4	4	2	I	2	0	1008	1	Ⴔ	cut_k_stereo_44KHz.wav
2	94	3	3	2	I	2	0	906	1	Ⴖ	cut_u_stereo_44KHz.wav
2	95	2	1	0	C	1	0	1231	0	Ⴒ	cut_o_stereo_44KHz.wav
2	96	1	1	1	C	2	0	723	0	Ⴉ	cut_o_stereo_44KHz.wav
2	97	4	4	2	I	2	0	909	1	Ⴔ	cut_k_stereo_44KHz.wav
2	98	1	1	1	C	1	1	826	1	Ⴉ	cut_o_stereo_44KHz.wav
2	99	2	1	0	C	2	1	644	1	Ⴒ	cut_o_stereo_44KHz.wav
2	100	3	4	2	I	1	0	988	1	Ⴖ	cut_k_stereo_44KHz.wav
2	101	1	2	0	C	2	1	987	1	Ⴉ	cut_a_stereo_44KHz.wav
2	102	2	2	1	C	1	1	1121	1	Ⴒ	cut_a_stereo_44KHz.wav
2	103	3	3	2	I	2	0	646	1	Ⴖ	cut_u_stereo_44KHz.wav
2	104	4	3	2	I	2	0	678	1	Ⴔ	cut_u_stereo_44KHz.wav
2	105	2	2	1	C	1	1	949	1	Ⴒ	cut_a_stereo_44KHz.wav
2	106	3	4	2	I	1	0	1026	0	Ⴖ	cut_k_stereo_44KHz.wav
2	107	1	2	0	C	2	1	605	1	Ⴉ	cut_a_stereo_44KHz.wav
2	108	4	3	2	I	1	0	1169	1	Ⴔ	cut_u_stereo_44KHz.wav
2	109	1	1	1	C	0	0	0	0	Ⴉ	cut_o_stereo_44KHz.wav
2	110	3	3	2	I	0	0	0	0	Ⴖ	cut_u_stereo_44KHz.wav
2	111	2	1	0	C	1	0	1166	0	Ⴒ	cut_o_stereo_44KHz.wav
2	112	4	4	2	I	2	0	1903	1	Ⴔ	cut_k_stereo_44KHz.wav
2	113	3	4	2	I	2	0	942	1	Ⴖ	cut_k_stereo_44KHz.wav
2	114	1	1	1	C	2	0	768	0	Ⴉ	cut_o_stereo_44KHz.wav
2	115	4	4	2	I	2	0	761	1	Ⴔ	cut_k_stereo_44KHz.wav
2	116	2	2	1	C	1	1	988	1	Ⴒ	cut_a_stereo_44KHz.wav
2	117	4	3	2	I	1	0	1203	1	Ⴔ	cut_u_stereo_44KHz.wav
2	118	1	2	0	C	2	1	1270	1	Ⴉ	cut_a_stereo_44KHz.wav
2	119	2	1	0	C	1	0	946	0	Ⴒ	cut_o_stereo_44KHz.wav
2	120	3	3	2	I	1	0	1122	1	Ⴖ	cut_u_stereo_44KHz.wav
2	121	1	2	0	C	2	1	682	1	Ⴉ	cut_a_stereo_44KHz.wav
2	122	3	4	2	I	1	0	923	1	Ⴖ	cut_k_stereo_44KHz.wav
2	123	4	3	2	I	1	0	1073	1	Ⴔ	cut_u_stereo_44KHz.wav
2	124	2	1	0	C	1	0	876	0	Ⴒ	cut_o_stereo_44KHz.wav
2	125	4	4	2	I	1	0	1053	1	Ⴔ	cut_k_stereo_44KHz.wav
2	126	1	1	1	C	1	1	874	1	Ⴉ	cut_o_stereo_44KHz.wav
2	127	3	3	2	I	2	0	1557	0	Ⴖ	cut_u_stereo_44KHz.wav
2	128	2	2	1	C	1	1	891	1	Ⴒ	cut_a_stereo_44KHz.wav
2	129	3	3	2	I	2	0	926	0	Ⴖ	cut_u_stereo_44KHz.wav
2	130	4	4	2	I	1	0	818	1	Ⴔ	cut_k_stereo_44KHz.wav
2	131	1	2	0	C	2	1	729	1	Ⴉ	cut_a_stereo_44KHz.wav
2	132	2	1	0	C	1	0	829	0	Ⴒ	cut_o_stereo_44KHz.wav
2	133	1	1	1	C	2	0	773	0	Ⴉ	cut_o_stereo_44KHz.wav
2	134	2	2	1	C	2	0	977	0	Ⴒ	cut_a_stereo_44KHz.wav
2	135	3	4	2	I	1	0	841	1	Ⴖ	cut_k_stereo_44KHz.wav
2	136	4	3	2	I	1	0	946	1	Ⴔ	cut_u_stereo_44KHz.wav
2	137	1	1	1	C	2	0	1007	0	Ⴉ	cut_o_stereo_44KHz.wav
2	138	3	4	2	I	1	0	915	1	Ⴖ	cut_k_stereo_44KHz.wav
2	139	4	4	2	I	2	0	1210	1	Ⴔ	cut_k_stereo_44KHz.wav
2	140	2	2	1	C	1	1	1052	1	Ⴒ	cut_a_stereo_44KHz.wav
2	141	4	3	2	I	1	0	1127	1	Ⴔ	cut_u_stereo_44KHz.wav
2	142	3	3	2	I	2	0	1034	0	Ⴖ	cut_u_stereo_44KHz.wav
2	143	1	2	0	C	2	1	680	1	Ⴉ	cut_a_stereo_44KHz.wav
2	144	2	1	0	C	1	0	1275	0	Ⴒ	cut_o_stereo_44KHz.wav
2	145	1	2	0	C	2	1	649	1	Ⴉ	cut_a_stereo_44KHz.wav
2	146	3	4	2	I	1	0	1045	1	Ⴖ	cut_k_stereo_44KHz.wav
2	147	4	3	2	I	2	0	897	1	Ⴔ	cut_u_stereo_44KHz.wav
2	148	2	2	1	C	1	1	972	1	Ⴒ	cut_a_stereo_44KHz.wav
2	149	3	3	2	I	2	0	777	1	Ⴖ	cut_u_stereo_44KHz.wav
2	150	2	1	0	C	1	0	773	0	Ⴒ	cut_o_stereo_44KHz.wav
2	151	1	1	1	C	1	1	957	1	Ⴉ	cut_o_stereo_44KHz.wav
2	152	4	4	2	I	2	0	923	1	Ⴔ	cut_k_stereo_44KHz.wav
2	153	2	2	1	C	1	1	880	1	Ⴒ	cut_a_stereo_44KHz.wav
2	154	1	2	0	C	2	1	910	1	Ⴉ	cut_a_stereo_44KHz.wav
2	155	3	3	2	I	2	0	1192	0	Ⴖ	cut_u_stereo_44KHz.wav
2	156	4	3	2	I	1	0	943	1	Ⴔ	cut_u_stereo_44KHz.wav
2	157	1	1	1	C	2	0	1230	0	Ⴉ	cut_o_stereo_44KHz.wav
2	158	2	1	0	C	1	0	1100	0	Ⴒ	cut_o_stereo_44KHz.wav
2	159	4	4	2	I	1	0	845	1	Ⴔ	cut_k_stereo_44KHz.wav
2	160	3	4	2	I	2	0	907	1	Ⴖ	cut_k_stereo_44KHz.wav
2	161	2	1	0	C	1	0	1066	0	Ⴒ	cut_o_stereo_44KHz.wav
2	162	3	4	2	I	2	0	830	1	Ⴖ	cut_k_stereo_44KHz.wav
2	163	1	2	0	C	2	1	782	1	Ⴉ	cut_a_stereo_44KHz.wav
2	164	4	4	2	I	1	0	873	1	Ⴔ	cut_k_stereo_44KHz.wav
2	165	3	3	2	I	2	0	967	1	Ⴖ	cut_u_stereo_44KHz.wav
2	166	1	1	1	C	2	0	778	0	Ⴉ	cut_o_stereo_44KHz.wav
2	167	2	2	1	C	1	1	1112	1	Ⴒ	cut_a_stereo_44KHz.wav
2	168	4	3	2	I	2	0	816	0	Ⴔ	cut_u_stereo_44KHz.wav
2	169	2	2	1	C	2	0	1133	0	Ⴒ	cut_a_stereo_44KHz.wav
2	170	4	4	2	I	1	0	895	1	Ⴔ	cut_k_stereo_44KHz.wav
2	171	1	1	1	C	2	0	1009	0	Ⴉ	cut_o_stereo_44KHz.wav
2	172	3	3	2	I	2	0	779	0	Ⴖ	cut_u_stereo_44KHz.wav
2	173	4	3	2	I	1	0	921	1	Ⴔ	cut_u_stereo_44KHz.wav
2	174	1	2	0	C	2	1	756	1	Ⴉ	cut_a_stereo_44KHz.wav
2	175	2	1	0	C	2	1	1196	1	Ⴒ	cut_o_stereo_44KHz.wav
2	176	3	4	2	I	1	0	1360	1	Ⴖ	cut_k_stereo_44KHz.wav
2	177	2	1	0	C	2	1	1076	1	Ⴒ	cut_o_stereo_44KHz.wav
2	178	3	3	2	I	1	0	856	1	Ⴖ	cut_u_stereo_44KHz.wav
2	179	1	1	1	C	1	1	1027	1	Ⴉ	cut_o_stereo_44KHz.wav
2	180	4	4	2	I	1	0	1109	1	Ⴔ	cut_k_stereo_44KHz.wav
2	181	3	4	2	I	2	0	1139	1	Ⴖ	cut_k_stereo_44KHz.wav
2	182	1	2	0	C	2	1	822	1	Ⴉ	cut_a_stereo_44KHz.wav
2	183	4	3	2	I	1	0	1016	0	Ⴔ	cut_u_stereo_44KHz.wav
2	184	2	2	1	C	2	0	1092	0	Ⴒ	cut_a_stereo_44KHz.wav
2	185	4	3	2	I	2	0	1150	1	Ⴔ	cut_u_stereo_44KHz.wav
2	186	2	1	0	C	1	0	1673	0	Ⴒ	cut_o_stereo_44KHz.wav
2	187	3	3	2	I	2	0	1001	1	Ⴖ	cut_u_stereo_44KHz.wav
2	188	1	2	0	C	2	1	933	1	Ⴉ	cut_a_stereo_44KHz.wav
2	189	4	4	2	I	1	0	851	0	Ⴔ	cut_k_stereo_44KHz.wav
2	190	3	4	2	I	2	0	1141	1	Ⴖ	cut_k_stereo_44KHz.wav
2	191	1	1	1	C	1	1	956	1	Ⴉ	cut_o_stereo_44KHz.wav
2	192	2	2	1	C	2	0	1237	0	Ⴒ	cut_a_stereo_44KHz.wav
2	193	1	2	0	C	1	0	1140	0	Ⴉ	cut_a_stereo_44KHz.wav
2	194	2	1	0	C	1	0	971	0	Ⴒ	cut_o_stereo_44KHz.wav
2	195	4	3	2	I	1	0	1216	0	Ⴔ	cut_u_stereo_44KHz.wav
2	196	3	3	2	I	2	0	873	1	Ⴖ	cut_u_stereo_44KHz.wav
2	197	2	2	1	C	1	1	1320	1	Ⴒ	cut_a_stereo_44KHz.wav
2	198	4	4	2	I	2	0	1373	1	Ⴔ	cut_k_stereo_44KHz.wav
2	199	3	4	2	I	2	0	1218	1	Ⴖ	cut_k_stereo_44KHz.wav
2	200	1	1	1	C	1	1	1157	1	Ⴉ	cut_o_stereo_44KHz.wav
3	1	4	4	2	I	1	0	1138	1	Ⴃ	cut_h_stereo_44KHz.wav
3	2	1	2	0	C	1	0	910	0	Ⴁ	cut_l_stereo_44KHz.wav
3	3	3	4	2	I	1	0	1092	1	Ⴇ	cut_h_stereo_44KHz.wav
3	4	2	1	0	C	2	1	684	1	Ⴂ	cut_w_stereo_44KHz.wav
3	5	1	1	1	C	1	1	675	1	Ⴁ	cut_w_stereo_44KHz.wav
3	6	2	2	1	C	2	0	867	0	Ⴂ	cut_l_stereo_44KHz.wav
3	7	3	3	2	I	1	0	1124	0	Ⴇ	cut_g_stereo_44KHz.wav
3	8	4	3	2	I	2	0	1362	0	Ⴃ	cut_g_stereo_44KHz.wav
3	9	1	1	1	C	1	1	1419	1	Ⴁ	cut_w_stereo_44KHz.wav
3	10	2	2	1	C	1	1	1511	1	Ⴂ	cut_l_stereo_44KHz.wav
3	11	4	3	2	I	0	0	0	0	Ⴃ	cut_g_stereo_44KHz.wav
3	12	3	4	2	I	1	0	851	1	Ⴇ	cut_h_stereo_44KHz.wav
3	13	1	2	0	C	2	1	566	1	Ⴁ	cut_l_stereo_44KHz.wav
3	14	4	4	2	I	1	0	842	1	Ⴃ	cut_h_stereo_44KHz.wav
3	15	3	3	2	I	1	0	795	1	Ⴇ	cut_g_stereo_44KHz.wav
3	16	2	1	0	C	2	1	1662	1	Ⴂ	cut_w_stereo_44KHz.wav
3	17	3	3	2	I	1	0	1022	1	Ⴇ	cut_g_stereo_44KHz.wav
3	18	4	4	2	I	2	0	799	1	Ⴃ	cut_h_stereo_44KHz.wav
3	19	1	1	1	C	1	1	780	1	Ⴁ	cut_w_stereo_44KHz.wav
3	20	2	2	1	C	2	0	713	0	Ⴂ	cut_l_stereo_44KHz.wav
3	21	4	3	2	I	2	0	936	1	Ⴃ	cut_g_stereo_44KHz.wav
3	22	2	1	0	C	2	1	916	1	Ⴂ	cut_w_stereo_44KHz.wav
3	23	1	2	0	C	1	0	944	0	Ⴁ	cut_l_stereo_44KHz.wav
3	24	3	4	2	I	1	0	1458	1	Ⴇ	cut_h_stereo_44KHz.wav
3	25	4	3	2	I	2	0	1259	1	Ⴃ	cut_g_stereo_44KHz.wav
3	26	1	2	0	C	1	0	793	0	Ⴁ	cut_l_stereo_44KHz.wav
3	27	3	4	2	I	2	0	846	1	Ⴇ	cut_h_stereo_44KHz.wav
3	28	2	1	0	C	2	1	763	1	Ⴂ	cut_w_stereo_44KHz.wav
3	29	4	4	2	I	1	0	862	0	Ⴃ	cut_h_stereo_44KHz.wav
3	30	3	3	2	I	2	0	1064	1	Ⴇ	cut_g_stereo_44KHz.wav
3	31	1	1	1	C	1	1	1134	1	Ⴁ	cut_w_stereo_44KHz.wav
3	32	2	2	1	C	1	1	1110	1	Ⴂ	cut_l_stereo_44KHz.wav
3	33	4	4	2	I	2	0	741	1	Ⴃ	cut_h_stereo_44KHz.wav
3	34	1	2	0	C	2	1	774	1	Ⴁ	cut_l_stereo_44KHz.wav
3	35	2	1	0	C	2	1	831	1	Ⴂ	cut_w_stereo_44KHz.wav
3	36	3	4	2	I	1	0	800	0	Ⴇ	cut_h_stereo_44KHz.wav
3	37	4	3	2	I	2	0	552	1	Ⴃ	cut_g_stereo_44KHz.wav
3	38	3	3	2	I	1	0	853	1	Ⴇ	cut_g_stereo_44KHz.wav
3	39	1	1	1	C	2	0	633	0	Ⴁ	cut_w_stereo_44KHz.wav
3	40	2	2	1	C	1	1	1287	1	Ⴂ	cut_l_stereo_44KHz.wav
3	41	4	3	2	I	2	0	1072	1	Ⴃ	cut_g_stereo_44KHz.wav
3	42	1	2	0	C	1	0	1081	0	Ⴁ	cut_l_stereo_44KHz.wav
3	43	3	3	2	I	2	0	807	0	Ⴇ	cut_g_stereo_44KHz.wav
3	44	2	2	1	C	1	1	930	1	Ⴂ	cut_l_stereo_44KHz.wav
3	45	4	4	2	I	2	0	836	1	Ⴃ	cut_h_stereo_44KHz.wav
3	46	2	1	0	C	2	1	735	1	Ⴂ	cut_w_stereo_44KHz.wav
3	47	3	4	2	I	2	0	783	1	Ⴇ	cut_h_stereo_44KHz.wav
3	48	1	1	1	C	1	1	912	1	Ⴁ	cut_w_stereo_44KHz.wav
3	49	2	1	0	C	2	1	731	1	Ⴂ	cut_w_stereo_44KHz.wav
3	50	3	3	2	I	2	0	961	0	Ⴇ	cut_g_stereo_44KHz.wav
3	51	1	1	1	C	1	1	856	1	Ⴁ	cut_w_stereo_44KHz.wav
3	52	4	4	2	I	2	0	793	1	Ⴃ	cut_h_stereo_44KHz.wav
3	53	3	4	2	I	2	0	1308	0	Ⴇ	cut_h_stereo_44KHz.wav
3	54	2	2	1	C	1	1	1035	1	Ⴂ	cut_l_stereo_44KHz.wav
3	55	1	2	0	C	2	1	1340	1	Ⴁ	cut_l_stereo_44KHz.wav
3	56	4	3	2	I	2	0	835	1	Ⴃ	cut_g_stereo_44KHz.wav
3	57	2	2	1	C	1	1	948	1	Ⴂ	cut_l_stereo_44KHz.wav
3	58	1	1	1	C	1	1	854	1	Ⴁ	cut_w_stereo_44KHz.wav
3	59	4	3	2	I	2	0	1040	0	Ⴃ	cut_g_stereo_44KHz.wav
3	60	3	4	2	I	2	0	958	1	Ⴇ	cut_h_stereo_44KHz.wav
3	61	2	1	0	C	2	1	815	1	Ⴂ	cut_w_stereo_44KHz.wav
3	62	4	4	2	I	2	0	881	0	Ⴃ	cut_h_stereo_44KHz.wav
3	63	1	2	0	C	2	1	1258	1	Ⴁ	cut_l_stereo_44KHz.wav
3	64	3	3	2	I	2	0	1019	1	Ⴇ	cut_g_stereo_44KHz.wav
3	65	1	2	0	C	2	1	1188	1	Ⴁ	cut_l_stereo_44KHz.wav
3	66	2	1	0	C	2	1	741	1	Ⴂ	cut_w_stereo_44KHz.wav
3	67	3	4	2	I	2	0	834	1	Ⴇ	cut_h_stereo_44KHz.wav
3	68	4	3	2	I	2	0	1348	1	Ⴃ	cut_g_stereo_44KHz.wav
3	69	3	3	2	I	2	0	947	1	Ⴇ	cut_g_stereo_44KHz.wav
3	70	2	2	1	C	2	0	643	0	Ⴂ	cut_l_stereo_44KHz.wav
3	71	4	4	2	I	2	0	786	1	Ⴃ	cut_h_stereo_44KHz.wav
3	72	1	1	1	C	1	1	929	1	Ⴁ	cut_w_stereo_44KHz.wav
3	73	4	4	2	I	2	0	855	1	Ⴃ	cut_h_stereo_44KHz.wav
3	74	1	1	1	C	1	1	1117	1	Ⴁ	cut_w_stereo_44KHz.wav
3	75	3	4	2	I	1	0	852	1	Ⴇ	cut_h_stereo_44KHz.wav
3	76	2	2	1	C	2	0	1078	0	Ⴂ	cut_l_stereo_44KHz.wav
3	77	1	2	0	C	1	0	988	0	Ⴁ	cut_l_stereo_44KHz.wav
3	78	3	3	2	I	1	0	1144	1	Ⴇ	cut_g_stereo_44KHz.wav
3	79	4	3	2	I	2	0	1085	0	Ⴃ	cut_g_stereo_44KHz.wav
3	80	2	1	0	C	2	1	984	1	Ⴂ	cut_w_stereo_44KHz.wav
3	81	4	3	2	I	2	0	859	1	Ⴃ	cut_g_stereo_44KHz.wav
3	82	2	2	1	C	1	1	838	1	Ⴂ	cut_l_stereo_44KHz.wav
3	83	1	2	0	C	2	1	1069	1	Ⴁ	cut_l_stereo_44KHz.wav
3	84	3	4	2	I	2	0	1119	1	Ⴇ	cut_h_stereo_44KHz.wav
3	85	2	1	0	C	2	1	714	1	Ⴂ	cut_w_stereo_44KHz.wav
3	86	3	3	2	I	1	0	885	1	Ⴇ	cut_g_stereo_44KHz.wav
3	87	4	4	2	I	1	0	812	1	Ⴃ	cut_h_stereo_44KHz.wav
3	88	1	1	1	C	2	0	572	0	Ⴁ	cut_w_stereo_44KHz.wav
3	89	2	1	0	C	2	1	686	1	Ⴂ	cut_w_stereo_44KHz.wav
3	90	4	4	2	I	2	0	939	1	Ⴃ	cut_h_stereo_44KHz.wav
3	91	3	4	2	I	2	0	911	1	Ⴇ	cut_h_stereo_44KHz.wav
3	92	1	2	0	C	1	0	855	0	Ⴁ	cut_l_stereo_44KHz.wav
3	93	3	3	2	I	2	0	1074	1	Ⴇ	cut_g_stereo_44KHz.wav
3	94	4	3	2	I	2	0	1036	1	Ⴃ	cut_g_stereo_44KHz.wav
3	95	2	2	1	C	1	1	1001	1	Ⴂ	cut_l_stereo_44KHz.wav
3	96	1	1	1	C	1	1	1223	1	Ⴁ	cut_w_stereo_44KHz.wav
3	97	2	1	0	C	2	1	902	1	Ⴂ	cut_w_stereo_44KHz.wav
3	98	4	3	2	I	2	0	1184	1	Ⴃ	cut_g_stereo_44KHz.wav
3	99	1	2	0	C	2	1	964	1	Ⴁ	cut_l_stereo_44KHz.wav
3	100	3	3	2	I	2	0	960	1	Ⴇ	cut_g_stereo_44KHz.wav
3	101	4	4	2	I	2	0	903	1	Ⴃ	cut_h_stereo_44KHz.wav
3	102	3	4	2	I	2	0	834	0	Ⴇ	cut_h_stereo_44KHz.wav
3	103	1	1	1	C	2	0	743	0	Ⴁ	cut_w_stereo_44KHz.wav
3	104	2	2	1	C	1	1	998	1	Ⴂ	cut_l_stereo_44KHz.wav
3	105	3	4	2	I	2	0	825	0	Ⴇ	cut_h_stereo_44KHz.wav
3	106	1	2	0	C	2	1	872	1	Ⴁ	cut_l_stereo_44KHz.wav
3	107	4	4	2	I	2	0	1194	1	Ⴃ	cut_h_stereo_44KHz.wav
3	108	2	1	0	C	2	1	1067	1	Ⴂ	cut_w_stereo_44KHz.wav
3	109	1	1	1	C	1	1	998	1	Ⴁ	cut_w_stereo_44KHz.wav
3	110	2	2	1	C	1	1	990	1	Ⴂ	cut_l_stereo_44KHz.wav
3	111	3	3	2	I	2	0	1040	1	Ⴇ	cut_g_stereo_44KHz.wav
3	112	4	3	2	I	2	0	860	1	Ⴃ	cut_g_stereo_44KHz.wav
3	113	2	1	0	C	2	1	1028	1	Ⴂ	cut_w_stereo_44KHz.wav
3	114	1	2	0	C	2	1	969	1	Ⴁ	cut_l_stereo_44KHz.wav
3	115	4	4	2	I	2	0	1390	1	Ⴃ	cut_h_stereo_44KHz.wav
3	116	3	3	2	I	2	0	1030	0	Ⴇ	cut_g_stereo_44KHz.wav
3	117	2	2	1	C	1	1	1331	1	Ⴂ	cut_l_stereo_44KHz.wav
3	118	3	4	2	I	2	0	924	1	Ⴇ	cut_h_stereo_44KHz.wav
3	119	1	1	1	C	2	0	1138	0	Ⴁ	cut_w_stereo_44KHz.wav
3	120	4	3	2	I	1	0	885	1	Ⴃ	cut_g_stereo_44KHz.wav
3	121	2	1	0	C	2	1	978	1	Ⴂ	cut_w_stereo_44KHz.wav
3	122	1	2	0	C	2	1	1239	1	Ⴁ	cut_l_stereo_44KHz.wav
3	123	4	3	2	I	2	0	1042	1	Ⴃ	cut_g_stereo_44KHz.wav
3	124	3	4	2	I	2	0	1006	1	Ⴇ	cut_h_stereo_44KHz.wav
3	125	1	1	1	C	1	1	1586	1	Ⴁ	cut_w_stereo_44KHz.wav
3	126	3	3	2	I	2	0	989	0	Ⴇ	cut_g_stereo_44KHz.wav
3	127	4	4	2	I	2	0	1269	1	Ⴃ	cut_h_stereo_44KHz.wav
3	128	2	2	1	C	1	1	933	1	Ⴂ	cut_l_stereo_44KHz.wav
3	129	4	3	2	I	2	0	985	1	Ⴃ	cut_g_stereo_44KHz.wav
3	130	2	2	1	C	2	0	757	0	Ⴂ	cut_l_stereo_44KHz.wav
3	131	3	3	2	I	2	0	935	1	Ⴇ	cut_g_stereo_44KHz.wav
3	132	1	2	0	C	2	1	1188	1	Ⴁ	cut_l_stereo_44KHz.wav
3	133	4	4	2	I	2	0	1471	1	Ⴃ	cut_h_stereo_44KHz.wav
3	134	3	4	2	I	1	0	1488	1	Ⴇ	cut_h_stereo_44KHz.wav
3	135	2	1	0	C	2	1	872	1	Ⴂ	cut_w_stereo_44KHz.wav
3	136	1	1	1	C	1	1	1103	1	Ⴁ	cut_w_stereo_44KHz.wav
3	137	4	4	2	I	2	0	1186	1	Ⴃ	cut_h_stereo_44KHz.wav
3	138	3	3	2	I	2	0	819	1	Ⴇ	cut_g_stereo_44KHz.wav
3	139	1	2	0	C	2	1	980	1	Ⴁ	cut_l_stereo_44KHz.wav
3	140	2	1	0	C	2	1	815	1	Ⴂ	cut_w_stereo_44KHz.wav
3	141	4	3	2	I	2	0	947	1	Ⴃ	cut_g_stereo_44KHz.wav
3	142	3	4	2	I	2	0	1251	0	Ⴇ	cut_h_stereo_44KHz.wav
3	143	1	1	1	C	1	1	1754	1	Ⴁ	cut_w_stereo_44KHz.wav
3	144	2	2	1	C	2	0	1255	0	Ⴂ	cut_l_stereo_44KHz.wav
3	145	3	3	2	I	2	0	1163	1	Ⴇ	cut_g_stereo_44KHz.wav
3	146	4	4	2	I	2	0	1005	1	Ⴃ	cut_h_stereo_44KHz.wav
3	147	2	2	1	C	1	1	1238	1	Ⴂ	cut_l_stereo_44KHz.wav
3	148	1	1	1	C	1	1	1186	1	Ⴁ	cut_w_stereo_44KHz.wav
3	149	3	4	2	I	0	0	0	0	Ⴇ	cut_h_stereo_44KHz.wav
3	150	2	1	0	C	2	1	866	1	Ⴂ	cut_w_stereo_44KHz.wav
3	151	4	3	2	I	2	0	1872	1	Ⴃ	cut_g_stereo_44KHz.wav
3	152	1	2	0	C	2	1	1182	1	Ⴁ	cut_l_stereo_44KHz.wav
3	153	4	4	2	I	2	0	934	0	Ⴃ	cut_h_stereo_44KHz.wav
3	154	2	2	1	C	1	1	1087	1	Ⴂ	cut_l_stereo_44KHz.wav
3	155	1	2	0	C	2	1	985	1	Ⴁ	cut_l_stereo_44KHz.wav
3	156	3	4	2	I	2	0	1036	1	Ⴇ	cut_h_stereo_44KHz.wav
3	157	2	1	0	C	2	1	779	1	Ⴂ	cut_w_stereo_44KHz.wav
3	158	3	3	2	I	2	0	729	1	Ⴇ	cut_g_stereo_44KHz.wav
3	159	1	1	1	C	1	1	942	1	Ⴁ	cut_w_stereo_44KHz.wav
3	160	4	3	2	I	1	0	1230	1	Ⴃ	cut_g_stereo_44KHz.wav
3	161	2	1	0	C	2	1	1165	1	Ⴂ	cut_w_stereo_44KHz.wav
3	162	1	2	0	C	2	1	1136	1	Ⴁ	cut_l_stereo_44KHz.wav
3	163	3	4	2	I	2	0	1117	1	Ⴇ	cut_h_stereo_44KHz.wav
3	164	4	4	2	I	1	0	1095	1	Ⴃ	cut_h_stereo_44KHz.wav
3	165	3	3	2	I	2	0	1141	1	Ⴇ	cut_g_stereo_44KHz.wav
3	166	4	3	2	I	1	0	1276	1	Ⴃ	cut_g_stereo_44KHz.wav
3	167	1	1	1	C	1	1	1382	1	Ⴁ	cut_w_stereo_44KHz.wav
3	168	2	2	1	C	1	1	1090	1	Ⴂ	cut_l_stereo_44KHz.wav
3	169	3	4	2	I	2	0	1210	1	Ⴇ	cut_h_stereo_44KHz.wav
3	170	4	3	2	I	2	0	1766	1	Ⴃ	cut_g_stereo_44KHz.wav
3	171	2	1	0	C	1	0	1135	0	Ⴂ	cut_w_stereo_44KHz.wav
3	172	1	2	0	C	2	1	1065	1	Ⴁ	cut_l_stereo_44KHz.wav
3	173	2	2	1	C	1	1	860	1	Ⴂ	cut_l_stereo_44KHz.wav
3	174	3	3	2	I	2	0	1113	1	Ⴇ	cut_g_stereo_44KHz.wav
3	175	1	1	1	C	1	1	842	1	Ⴁ	cut_w_stereo_44KHz.wav
3	176	4	4	2	I	2	0	849	1	Ⴃ	cut_h_stereo_44KHz.wav
3	177	1	2	0	C	2	1	867	1	Ⴁ	cut_l_stereo_44KHz.wav
3	178	2	1	0	C	2	1	806	1	Ⴂ	cut_w_stereo_44KHz.wav
3	179	3	3	2	I	2	0	1007	1	Ⴇ	cut_g_stereo_44KHz.wav
3	180	4	3	2	I	2	0	1223	1	Ⴃ	cut_g_stereo_44KHz.wav
3	181	3	4	2	I	1	0	909	1	Ⴇ	cut_h_stereo_44KHz.wav
3	182	2	2	1	C	2	0	690	0	Ⴂ	cut_l_stereo_44KHz.wav
3	183	1	1	1	C	1	1	1076	1	Ⴁ	cut_w_stereo_44KHz.wav
3	184	4	4	2	I	1	0	929	0	Ⴃ	cut_h_stereo_44KHz.wav
3	185	1	1	1	C	1	1	1303	1	Ⴁ	cut_w_stereo_44KHz.wav
3	186	3	4	2	I	1	0	967	1	Ⴇ	cut_h_stereo_44KHz.wav
3	187	4	3	2	I	2	0	887	1	Ⴃ	cut_g_stereo_44KHz.wav
3	188	2	2	1	C	1	1	815	1	Ⴂ	cut_l_stereo_44KHz.wav
3	189	1	2	0	C	2	1	1049	1	Ⴁ	cut_l_stereo_44KHz.wav
3	190	2	1	0	C	2	1	809	1	Ⴂ	cut_w_stereo_44KHz.wav
3	191	4	4	2	I	1	0	817	1	Ⴃ	cut_h_stereo_44KHz.wav
3	192	3	3	2	I	2	0	800	1	Ⴇ	cut_g_stereo_44KHz.wav
3	193	4	4	2	I	1	0	953	0	Ⴃ	cut_h_stereo_44KHz.wav
3	194	1	1	1	C	1	1	1117	1	Ⴁ	cut_w_stereo_44KHz.wav
3	195	3	3	2	I	1	0	871	1	Ⴇ	cut_g_stereo_44KHz.wav
3	196	2	1	0	C	2	1	745	1	Ⴂ	cut_w_stereo_44KHz.wav
3	197	4	3	2	I	2	0	923	0	Ⴃ	cut_g_stereo_44KHz.wav
3	198	1	2	0	C	2	1	1274	1	Ⴁ	cut_l_stereo_44KHz.wav
3	199	2	2	1	C	0	0	0	0	Ⴂ	cut_l_stereo_44KHz.wav
3	200	3	4	2	I	2	0	1229	1	Ⴇ	cut_h_stereo_44KHz.wav
4	1	4	3	2	I	1	0	1034	0	Ⴐ	cut_ei_stereo_44KHz.wav
4	2	3	4	2	I	2	0	853	0	Ⴕ	cut_s_stereo_44KHz.wav
4	3	1	1	1	C	2	0	710	0	Ⴏ	cut_r_stereo_44KHz.wav
4	4	2	1	0	C	1	0	743	0	Ⴌ	cut_r_stereo_44KHz.wav
4	5	1	2	0	C	2	1	676	1	Ⴏ	cut_ui_stereo_44KHz.wav
4	6	2	2	1	C	1	1	1107	1	Ⴌ	cut_ui_stereo_44KHz.wav
4	7	3	3	2	I	1	0	911	1	Ⴕ	cut_ei_stereo_44KHz.wav
4	8	4	4	2	I	1	0	1089	1	Ⴐ	cut_s_stereo_44KHz.wav
4	9	1	1	1	C	2	0	656	0	Ⴏ	cut_r_stereo_44KHz.wav
4	10	4	3	2	I	1	0	779	1	Ⴐ	cut_ei_stereo_44KHz.wav
4	11	2	2	1	C	2	0	1438	0	Ⴌ	cut_ui_stereo_44KHz.wav
4	12	3	3	2	I	1	0	897	0	Ⴕ	cut_ei_stereo_44KHz.wav
4	13	2	1	0	C	2	1	1226	1	Ⴌ	cut_r_stereo_44KHz.wav
4	14	4	4	2	I	2	0	1080	1	Ⴐ	cut_s_stereo_44KHz.wav
4	15	3	4	2	I	1	0	1112	1	Ⴕ	cut_s_stereo_44KHz.wav
4	16	1	2	0	C	2	1	996	1	Ⴏ	cut_ui_stereo_44KHz.wav
4	17	2	1	0	C	2	1	1102	1	Ⴌ	cut_r_stereo_44KHz.wav
4	18	1	1	1	C	1	1	1208	1	Ⴏ	cut_r_stereo_44KHz.wav
4	19	3	4	2	I	2	0	1426	1	Ⴕ	cut_s_stereo_44KHz.wav
4	20	4	3	2	I	1	0	1116	0	Ⴐ	cut_ei_stereo_44KHz.wav
4	21	1	2	0	C	2	1	1163	1	Ⴏ	cut_ui_stereo_44KHz.wav
4	22	4	4	2	I	2	0	956	1	Ⴐ	cut_s_stereo_44KHz.wav
4	23	3	3	2	I	2	0	1273	1	Ⴕ	cut_ei_stereo_44KHz.wav
4	24	2	2	1	C	1	1	1374	1	Ⴌ	cut_ui_stereo_44KHz.wav
4	25	4	3	2	I	2	0	1438	1	Ⴐ	cut_ei_stereo_44KHz.wav
4	26	1	1	1	C	1	1	1050	1	Ⴏ	cut_r_stereo_44KHz.wav
4	27	2	1	0	C	2	1	1218	1	Ⴌ	cut_r_stereo_44KHz.wav
4	28	3	4	2	I	2	0	957	1	Ⴕ	cut_s_stereo_44KHz.wav
4	29	1	2	0	C	2	1	919	1	Ⴏ	cut_ui_stereo_44KHz.wav
4	30	2	2	1	C	1	1	1240	1	Ⴌ	cut_ui_stereo_44KHz.wav
4	31	4	4	2	I	2	0	870	1	Ⴐ	cut_s_stereo_44KHz.wav
4	32	3	3	2	I	2	0	937	1	Ⴕ	cut_ei_stereo_44KHz.wav
4	33	4	4	2	I	2	0	832	1	Ⴐ	cut_s_stereo_44KHz.wav
4	34	1	2	0	C	1	0	888	0	Ⴏ	cut_ui_stereo_44KHz.wav
4	35	3	3	2	I	2	0	588	1	Ⴕ	cut_ei_stereo_44KHz.wav
4	36	2	2	1	C	1	1	1273	1	Ⴌ	cut_ui_stereo_44KHz.wav
4	37	3	4	2	I	1	0	1359	1	Ⴕ	cut_s_stereo_44KHz.wav
4	38	1	1	1	C	2	0	1202	0	Ⴏ	cut_r_stereo_44KHz.wav
4	39	2	1	0	C	1	0	791	0	Ⴌ	cut_r_stereo_44KHz.wav
4	40	4	3	2	I	2	0	770	0	Ⴐ	cut_ei_stereo_44KHz.wav
4	41	1	2	0	C	1	0	924	0	Ⴏ	cut_ui_stereo_44KHz.wav
4	42	3	3	2	I	2	0	776	1	Ⴕ	cut_ei_stereo_44KHz.wav
4	43	2	1	0	C	1	0	1010	0	Ⴌ	cut_r_stereo_44KHz.wav
4	44	4	4	2	I	2	0	780	0	Ⴐ	cut_s_stereo_44KHz.wav
4	45	1	1	1	C	1	1	1348	1	Ⴏ	cut_r_stereo_44KHz.wav
4	46	4	3	2	I	1	0	1242	1	Ⴐ	cut_ei_stereo_44KHz.wav
4	47	3	4	2	I	1	0	1135	1	Ⴕ	cut_s_stereo_44KHz.wav
4	48	2	2	1	C	1	1	1303	1	Ⴌ	cut_ui_stereo_44KHz.wav
4	49	4	3	2	I	1	0	1498	1	Ⴐ	cut_ei_stereo_44KHz.wav
4	50	3	4	2	I	1	0	1056	1	Ⴕ	cut_s_stereo_44KHz.wav
4	51	2	1	0	C	2	1	1589	1	Ⴌ	cut_r_stereo_44KHz.wav
4	52	1	2	0	C	2	1	1375	1	Ⴏ	cut_ui_stereo_44KHz.wav
4	53	3	3	2	I	1	0	895	1	Ⴕ	cut_ei_stereo_44KHz.wav
4	54	2	2	1	C	1	1	1003	1	Ⴌ	cut_ui_stereo_44KHz.wav
4	55	1	1	1	C	1	1	910	1	Ⴏ	cut_r_stereo_44KHz.wav
4	56	4	4	2	I	2	0	763	1	Ⴐ	cut_s_stereo_44KHz.wav
4	57	1	1	1	C	2	0	1037	0	Ⴏ	cut_r_stereo_44KHz.wav
4	58	3	3	2	I	2	0	1470	1	Ⴕ	cut_ei_stereo_44KHz.wav
4	59	4	4	2	I	1	0	914	1	Ⴐ	cut_s_stereo_44KHz.wav
4	60	2	2	1	C	1	1	959	1	Ⴌ	cut_ui_stereo_44KHz.wav
4	61	1	2	0	C	2	1	916	1	Ⴏ	cut_ui_stereo_44KHz.wav
4	62	4	3	2	I	2	0	783	1	Ⴐ	cut_ei_stereo_44KHz.wav
4	63	3	4	2	I	1	0	965	1	Ⴕ	cut_s_stereo_44KHz.wav
4	64	2	1	0	C	2	1	651	1	Ⴌ	cut_r_stereo_44KHz.wav
4	65	4	4	2	I	2	0	735	1	Ⴐ	cut_s_stereo_44KHz.wav
4	66	1	2	0	C	1	0	952	0	Ⴏ	cut_ui_stereo_44KHz.wav
4	67	2	1	0	C	2	1	616	1	Ⴌ	cut_r_stereo_44KHz.wav
4	68	3	4	2	I	1	0	907	1	Ⴕ	cut_s_stereo_44KHz.wav
4	69	2	2	1	C	1	1	835	1	Ⴌ	cut_ui_stereo_44KHz.wav
4	70	3	3	2	I	2	0	928	1	Ⴕ	cut_ei_stereo_44KHz.wav
4	71	4	3	2	I	1	0	800	1	Ⴐ	cut_ei_stereo_44KHz.wav
4	72	1	1	1	C	2	0	867	0	Ⴏ	cut_r_stereo_44KHz.wav
4	73	3	3	2	I	2	0	1088	1	Ⴕ	cut_ei_stereo_44KHz.wav
4	74	4	4	2	I	2	0	1018	1	Ⴐ	cut_s_stereo_44KHz.wav
4	75	1	1	1	C	1	1	976	1	Ⴏ	cut_r_stereo_44KHz.wav
4	76	2	2	1	C	2	0	798	0	Ⴌ	cut_ui_stereo_44KHz.wav
4	77	3	4	2	I	1	0	520	1	Ⴕ	cut_s_stereo_44KHz.wav
4	78	2	1	0	C	1	0	1357	0	Ⴌ	cut_r_stereo_44KHz.wav
4	79	1	2	0	C	1	0	1023	0	Ⴏ	cut_ui_stereo_44KHz.wav
4	80	4	3	2	I	1	0	739	1	Ⴐ	cut_ei_stereo_44KHz.wav
4	81	3	3	2	I	2	0	656	1	Ⴕ	cut_ei_stereo_44KHz.wav
4	82	2	2	1	C	1	1	761	1	Ⴌ	cut_ui_stereo_44KHz.wav
4	83	4	4	2	I	2	0	1173	1	Ⴐ	cut_s_stereo_44KHz.wav
4	84	1	2	0	C	1	0	843	0	Ⴏ	cut_ui_stereo_44KHz.wav
4	85	3	4	2	I	1	0	1290	1	Ⴕ	cut_s_stereo_44KHz.wav
4	86	2	1	0	C	2	1	1067	1	Ⴌ	cut_r_stereo_44KHz.wav
4	87	1	1	1	C	1	1	984	1	Ⴏ	cut_r_stereo_44KHz.wav
4	88	4	3	2	I	2	0	1556	0	Ⴐ	cut_ei_stereo_44KHz.wav
4	89	2	2	1	C	1	1	1417	1	Ⴌ	cut_ui_stereo_44KHz.wav
4	90	3	4	2	I	1	0	996	1	Ⴕ	cut_s_stereo_44KHz.wav
4	91	4	4	2	I	1	0	1053	1	Ⴐ	cut_s_stereo_44KHz.wav
4	92	1	2	0	C	2	1	1136	1	Ⴏ	cut_ui_stereo_44KHz.wav
4	93	4	3	2	I	1	0	1233	1	Ⴐ	cut_ei_stereo_44KHz.wav
4	94	3	3	2	I	2	0	913	1	Ⴕ	cut_ei_stereo_44KHz.wav
4	95	1	1	1	C	1	1	934	1	Ⴏ	cut_r_stereo_44KHz.wav
4	96	2	1	0	C	2	1	1330	1	Ⴌ	cut_r_stereo_44KHz.wav
4	97	1	1	1	C	1	1	1016	1	Ⴏ	cut_r_stereo_44KHz.wav
4	98	2	2	1	C	2	0	1252	0	Ⴌ	cut_ui_stereo_44KHz.wav
4	99	4	4	2	I	1	0	1004	1	Ⴐ	cut_s_stereo_44KHz.wav
4	100	3	4	2	I	1	0	819	1	Ⴕ	cut_s_stereo_44KHz.wav
4	101	1	2	0	C	1	0	1144	0	Ⴏ	cut_ui_stereo_44KHz.wav
4	102	2	1	0	C	2	1	908	1	Ⴌ	cut_r_stereo_44KHz.wav
4	103	4	3	2	I	2	0	1402	0	Ⴐ	cut_ei_stereo_44KHz.wav
4	104	3	3	2	I	1	0	656	1	Ⴕ	cut_ei_stereo_44KHz.wav
4	105	1	1	1	C	1	1	1313	1	Ⴏ	cut_r_stereo_44KHz.wav
4	106	2	1	0	C	2	1	784	1	Ⴌ	cut_r_stereo_44KHz.wav
4	107	3	3	2	I	2	0	1336	1	Ⴕ	cut_ei_stereo_44KHz.wav
4	108	4	4	2	I	1	0	1143	1	Ⴐ	cut_s_stereo_44KHz.wav
4	109	2	2	1	C	1	1	1108	1	Ⴌ	cut_ui_stereo_44KHz.wav
4	110	4	3	2	I	2	0	990	0	Ⴐ	cut_ei_stereo_44KHz.wav
4	111	1	2	0	C	2	1	1252	1	Ⴏ	cut_ui_stereo_44KHz.wav
4	112	3	4	2	I	2	0	1490	1	Ⴕ	cut_s_stereo_44KHz.wav
4	113	4	3	2	I	1	0	1738	1	Ⴐ	cut_ei_stereo_44KHz.wav
4	114	3	4	2	I	1	0	1302	1	Ⴕ	cut_s_stereo_44KHz.wav
4	115	1	1	1	C	1	1	1704	1	Ⴏ	cut_r_stereo_44KHz.wav
4	116	2	2	1	C	1	1	1698	1	Ⴌ	cut_ui_stereo_44KHz.wav
4	117	1	2	0	C	2	1	1455	1	Ⴏ	cut_ui_stereo_44KHz.wav
4	118	2	1	0	C	2	1	1245	1	Ⴌ	cut_r_stereo_44KHz.wav
4	119	4	4	2	I	2	0	1109	1	Ⴐ	cut_s_stereo_44KHz.wav
4	120	3	3	2	I	1	0	1172	1	Ⴕ	cut_ei_stereo_44KHz.wav
4	121	2	1	0	C	2	1	1140	1	Ⴌ	cut_r_stereo_44KHz.wav
4	122	1	2	0	C	1	0	1258	0	Ⴏ	cut_ui_stereo_44KHz.wav
4	123	3	4	2	I	0	0	0	0	Ⴕ	cut_s_stereo_44KHz.wav
4	124	4	4	2	I	2	0	1090	0	Ⴐ	cut_s_stereo_44KHz.wav
4	125	1	1	1	C	2	0	1124	0	Ⴏ	cut_r_stereo_44KHz.wav
4	126	4	3	2	I	1	0	1631	1	Ⴐ	cut_ei_stereo_44KHz.wav
4	127	2	2	1	C	1	1	1624	1	Ⴌ	cut_ui_stereo_44KHz.wav
4	128	3	3	2	I	2	0	1237	1	Ⴕ	cut_ei_stereo_44KHz.wav
4	129	2	2	1	C	0	0	0	0	Ⴌ	cut_ui_stereo_44KHz.wav
4	130	4	4	2	I	2	0	970	1	Ⴐ	cut_s_stereo_44KHz.wav
4	131	3	4	2	I	1	0	1371	1	Ⴕ	cut_s_stereo_44KHz.wav
4	132	1	1	1	C	1	1	1520	1	Ⴏ	cut_r_stereo_44KHz.wav
4	133	2	1	0	C	2	1	1227	1	Ⴌ	cut_r_stereo_44KHz.wav
4	134	4	3	2	I	1	0	1476	1	Ⴐ	cut_ei_stereo_44KHz.wav
4	135	1	2	0	C	1	0	1643	0	Ⴏ	cut_ui_stereo_44KHz.wav
4	136	3	3	2	I	1	0	1074	0	Ⴕ	cut_ei_stereo_44KHz.wav
4	137	2	2	1	C	1	1	1344	1	Ⴌ	cut_ui_stereo_44KHz.wav
4	138	1	2	0	C	1	0	975	0	Ⴏ	cut_ui_stereo_44KHz.wav
4	139	3	4	2	I	1	0	1344	0	Ⴕ	cut_s_stereo_44KHz.wav
4	140	4	4	2	I	2	0	904	1	Ⴐ	cut_s_stereo_44KHz.wav
4	141	1	1	1	C	1	1	1074	1	Ⴏ	cut_r_stereo_44KHz.wav
4	142	2	1	0	C	2	1	1346	1	Ⴌ	cut_r_stereo_44KHz.wav
4	143	3	3	2	I	1	0	1422	0	Ⴕ	cut_ei_stereo_44KHz.wav
4	144	4	3	2	I	2	0	957	1	Ⴐ	cut_ei_stereo_44KHz.wav
4	145	1	2	0	C	2	1	1676	1	Ⴏ	cut_ui_stereo_44KHz.wav
4	146	3	4	2	I	1	0	1935	0	Ⴕ	cut_s_stereo_44KHz.wav
4	147	2	1	0	C	2	1	1670	1	Ⴌ	cut_r_stereo_44KHz.wav
4	148	4	4	2	I	1	0	1367	1	Ⴐ	cut_s_stereo_44KHz.wav
4	149	1	1	1	C	1	1	1360	1	Ⴏ	cut_r_stereo_44KHz.wav
4	150	2	2	1	C	0	0	0	0	Ⴌ	cut_ui_stereo_44KHz.wav
4	151	3	3	2	I	1	0	967	1	Ⴕ	cut_ei_stereo_44KHz.wav
4	152	4	3	2	I	1	0	1146	1	Ⴐ	cut_ei_stereo_44KHz.wav
4	153	3	3	2	I	0	0	0	0	Ⴕ	cut_ei_stereo_44KHz.wav
4	154	2	2	1	C	0	0	0	0	Ⴌ	cut_ui_stereo_44KHz.wav
4	155	1	2	0	C	2	1	1429	1	Ⴏ	cut_ui_stereo_44KHz.wav
4	156	4	4	2	I	2	0	1380	1	Ⴐ	cut_s_stereo_44KHz.wav
4	157	2	1	0	C	0	0	0	0	Ⴌ	cut_r_stereo_44KHz.wav
4	158	3	4	2	I	1	0	1617	0	Ⴕ	cut_s_stereo_44KHz.wav
4	159	4	3	2	I	1	0	1357	1	Ⴐ	cut_ei_stereo_44KHz.wav
4	160	1	1	1	C	1	1	1269	1	Ⴏ	cut_r_stereo_44KHz.wav
4	161	4	3	2	I	1	0	1376	1	Ⴐ	cut_ei_stereo_44KHz.wav
4	162	3	4	2	I	1	0	1776	0	Ⴕ	cut_s_stereo_44KHz.wav
4	163	2	1	0	C	2	1	1273	1	Ⴌ	cut_r_stereo_44KHz.wav
4	164	1	2	0	C	1	0	1137	0	Ⴏ	cut_ui_stereo_44KHz.wav
4	165	2	2	1	C	1	1	1094	1	Ⴌ	cut_ui_stereo_44KHz.wav
4	166	4	4	2	I	2	0	916	1	Ⴐ	cut_s_stereo_44KHz.wav
4	167	3	3	2	I	1	0	827	0	Ⴕ	cut_ei_stereo_44KHz.wav
4	168	1	1	1	C	1	1	1844	1	Ⴏ	cut_r_stereo_44KHz.wav
4	169	2	2	1	C	1	1	1432	1	Ⴌ	cut_ui_stereo_44KHz.wav
4	170	3	3	2	I	0	0	0	0	Ⴕ	cut_ei_stereo_44KHz.wav
4	171	4	4	2	I	2	0	929	0	Ⴐ	cut_s_stereo_44KHz.wav
4	172	1	1	1	C	1	1	1311	1	Ⴏ	cut_r_stereo_44KHz.wav
4	173	2	1	0	C	2	1	1247	1	Ⴌ	cut_r_stereo_44KHz.wav
4	174	3	4	2	I	1	0	1339	1	Ⴕ	cut_s_stereo_44KHz.wav
4	175	4	3	2	I	1	0	1556	1	Ⴐ	cut_ei_stereo_44KHz.wav
4	176	1	2	0	C	1	0	1612	0	Ⴏ	cut_ui_stereo_44KHz.wav
4	177	4	4	2	I	2	0	983	1	Ⴐ	cut_s_stereo_44KHz.wav
4	178	1	2	0	C	2	1	1034	1	Ⴏ	cut_ui_stereo_44KHz.wav
4	179	2	2	1	C	1	1	1214	1	Ⴌ	cut_ui_stereo_44KHz.wav
4	180	3	3	2	I	2	0	1420	1	Ⴕ	cut_ei_stereo_44KHz.wav
4	181	2	1	0	C	2	1	1209	1	Ⴌ	cut_r_stereo_44KHz.wav
4	182	4	3	2	I	2	0	1293	1	Ⴐ	cut_ei_stereo_44KHz.wav
4	183	3	4	2	I	2	0	1231	1	Ⴕ	cut_s_stereo_44KHz.wav
4	184	1	1	1	C	1	1	1536	1	Ⴏ	cut_r_stereo_44KHz.wav
4	185	3	4	2	I	1	0	1185	1	Ⴕ	cut_s_stereo_44KHz.wav
4	186	2	1	0	C	2	1	875	1	Ⴌ	cut_r_stereo_44KHz.wav
4	187	1	1	1	C	1	1	1773	1	Ⴏ	cut_r_stereo_44KHz.wav
4	188	4	3	2	I	2	0	1307	0	Ⴐ	cut_ei_stereo_44KHz.wav
4	189	3	3	2	I	1	0	1097	1	Ⴕ	cut_ei_stereo_44KHz.wav
4	190	2	2	1	C	1	1	1565	1	Ⴌ	cut_ui_stereo_44KHz.wav
4	191	4	4	2	I	2	0	994	1	Ⴐ	cut_s_stereo_44KHz.wav
4	192	1	2	0	C	1	0	838	0	Ⴏ	cut_ui_stereo_44KHz.wav
4	193	2	1	0	C	1	0	1010	0	Ⴌ	cut_r_stereo_44KHz.wav
4	194	4	4	2	I	2	0	936	1	Ⴐ	cut_s_stereo_44KHz.wav
4	195	3	3	2	I	2	0	1153	0	Ⴕ	cut_ei_stereo_44KHz.wav
4	196	1	2	0	C	2	1	1197	1	Ⴏ	cut_ui_stereo_44KHz.wav
4	197	4	3	2	I	1	0	1800	1	Ⴐ	cut_ei_stereo_44KHz.wav
4	198	3	4	2	I	1	0	1657	1	Ⴕ	cut_s_stereo_44KHz.wav
4	199	2	2	1	C	1	1	1169	1	Ⴌ	cut_ui_stereo_44KHz.wav
4	200	1	1	1	C	1	1	1282	1	Ⴏ	cut_r_stereo_44KHz.wav
