"subjID","block","trial","vStim1","vStim2","aStim","resp","RT","fb","vStimNassoc","stimOnset","respOnset","feedbackOnset","pe","deltas","drift","assoc_active","assoc_inactive"
"biokurs19-14",1,1,8,3,3,1,1.176,0,8,8216,9392,12483,-0.5,0.608250347352454,0.739936970108763,0.5,0.5
"biokurs19-14",1,2,1,2,2,2,1.37,1,1,17361,18731,21966,0.5,0.608250347352454,0.739936970108763,0.5,0.5
"biokurs19-14",1,3,7,1,1,2,1.449,1,7,28079,29528,31731,0.465,0.62953910950979,0.76583476406257,0.535,0.5
"biokurs19-14",1,4,4,5,5,1,1.269,0,4,36266,37535,39709,-0.5,0.608250347352454,0.739936970108763,0.5,0.5
"biokurs19-14",1,5,3,2,2,2,1.259,1,3,45004,46263,48853,0.465,0.650827871667126,0.791732558016377,0.535,0.535
"biokurs19-14",1,6,1,6,1,1,1.31,1,6,53145,54455,56505,0.43245,0.649337658316112,0.78991971243961,0.56755,0.5
"biokurs19-14",1,7,4,3,4,2,1.381,0,3,61590,62971,66166,-0.535,0.673606847175475,0.819443197546949,0.535,0.57245
"biokurs19-14",1,8,7,2,2,2,1.12,1,7,71229,72349,75762,0.43245,0.670626420473448,0.815817506393417,0.56755,0.535
"biokurs19-14",1,9,5,8,5,1,0.977,1,8,80184,81161,83193,0.465,0.650827871667126,0.791732558016377,0.535,0.535
"biokurs19-14",1,10,6,3,3,2,1.311,1,6,88439,89750,91883,0.3976215,0.691810867696213,0.84158840115685,0.6023785,0.535
"biokurs19-14",1,11,6,2,2,2,0.984,1,6,97193,98177,100332,0.4021785,0.711818046371678,0.865927147914638,0.5978215,0.57245
"biokurs19-14",1,12,3,5,3,1,1.221,1,5,106144,107365,110197,0.369787995,0.728539155586822,0.886268388891097,0.630212005,0.56755
"biokurs19-14",1,13,1,8,1,1,1.261,1,8,114319,115580,117575,0.4021785,0.711818046371678,0.865927147914638,0.5978215,0.57245
"biokurs19-14",1,14,3,4,3,1,1.489,1,4,123529,125018,127831,0.34390283535,0.747264239637235,0.909047466646833,0.65609716465,0.57245
"biokurs19-14",1,15,4,6,4,2,1.623,0,6,133190,134813,137198,-0.6125215,0.745132830271693,0.90645460567295,0.6125215,0.6125215
"biokurs19-14",1,16,4,2,2,2,0.978,1,4,141929,142907,146648,0.374026005,0.779394964087709,0.948134515262206,0.625973995,0.655398005
"biokurs19-14",1,17,5,4,4,1,1.008,0,5,151110,152118,155287,-0.70127586535,0.795928647253708,0.968247752319675,0.70127586535,0.6072785
"biokurs19-14",1,18,2,5,5,2,0.94,1,2,160876,161816,164871,0.365230995,0.782772468994382,0.952243252327543,0.634769005,0.65215581535
"biokurs19-14",1,19,5,3,3,2,1.337,1,5,170052,171389,174096,0.3198296368755,0.815362958979228,0.991889606034882,0.6801703631245,0.66033517465
"biokurs19-14",1,20,3,5,5,2,0.943,1,3,178814,179757,183327,0.2934413631245,0.857095950074341,1.0426578186942,0.7065586368755,0.702558437705785
"biokurs19-14",1,21,6,1,1,2,1.096,1,6,187235,188331,191104,0.374026005,0.769813190283362,0.936478280772713,0.625973995,0.639644995
"biokurs19-14",1,22,4,7,4,2,1.106,0,7,196004,197110,199951,-0.7503651759245,0.804602790239175,0.978799853287465,0.7503651759245,0.57245
"biokurs19-14",1,23,3,8,3,1,1.725,1,8,204839,206564,209176,0.24826247165481,0.829811027869683,1.00946569187726,0.75173752834519,0.6125215
"biokurs19-14",1,24,1,5,1,1,1.071,1,5,213384,214455,216989,0.34784418465,0.838932544292324,1.02056202294217,0.65215581535,0.727099532294215
"biokurs19-14",1,25,2,3,2,1,1.019,1,3,221316,222335,224922,0.3021932775755,0.89225619545672,1.08543028162786,0.6978067224245,0.769115901361027
"biokurs19-14",1,26,5,2,5,1,0.79,1,2,229552,230342,233825,0.22200350044519,0.910524464016488,1.10765364302187,0.77799649955481,0.718960251854785
"biokurs19-14",1,27,8,2,2,2,0.851,1,8,238900,239751,242427,0.23071253051538,0.866565434723266,1.05417745334812,0.76928746948462,0.655398005
"biokurs19-14",1,28,3,1,1,2,0.976,1,3,246741,247717,250103,0.3234950917245,0.912046410592353,1.10950509208872,0.6765049082755,0.822954014456299
"biokurs19-14",1,29,6,5,5,2,0.659,1,6,253869,254528,258236,0.206463255414027,0.898967791249733,1.09359494257264,0.793536744585973,0.68442014465
"biokurs19-14",1,30,1,3,1,1,0.967,1,3,262576,263543,266348,0.300850435303785,0.9608593752863,1.16888609754951,0.699149564696215,0.88056079546824
"biokurs19-14",1,31,4,2,4,1,1.257,1,2,271448,272705,275068,0.197109261760785,0.9661011093257,1.1752626706499,0.802890738239215,0.785437346620697
"biokurs19-14",1,32,5,7,5,1,1.178,1,7,279780,280958,283667,0.192010827535045,0.857856626671481,1.04358318230307,0.807989172464955,0.6023785
"biokurs19-14",1,33,6,4,4,2,1.557,1,6,288672,290229,292337,0.18331161343753,0.942190700874004,1.14617564215773,0.81668838656247,0.7323295547755
"biokurs19-14",1,34,2,8,2,1,0.991,1,8,297221,298212,301103,0.159582039115854,0.937735805318053,1.14075625861908,0.840417960884146,0.70127586535
"biokurs19-14",1,35,8,4,4,2,1.521,1,8,305670,307191,309859,0.170479800496903,0.960965828380899,1.16901559781304,0.829520199503097,0.7503651759245
"biokurs19-14",1,36,5,6,5,1,1.139,1,6,314647,315786,318844,0.178570069607592,0.976255525980357,1.18761552556461,0.821429930392408,0.783592623609785
"biokurs19-14",1,37,1,3,3,1,1.381,0,1,323880,325261,328599,-0.942200051151016,1.01116094069012,1.230077986808,0.942200051151016,0.72020909516748
"biokurs19-14",1,38,1,2,1,1,0.991,1,2,333677,334668,338067,0.260205541494243,0.96795936113521,1.1775232352671,0.739794458505757,0.851588703622255
"biokurs19-14",1,39,3,6,3,1,1.763,1,6,343457,345220,347437,-0.00815405473158748,1.12319397345329,1.3663662489943,1.00815405473159,0.83844410726247
"biokurs19-14",1,40,2,4,4,2,1.496,1,2,352892,354388,356778,0.158546214462119,1.06605222084869,1.29685326725414,0.841453785537881,0.911199912875813
"biokurs19-14",2,41,13,16,13,1,1.232,1,16,7745,8977,11408,0.5,0.608250347352454,0.739936970108763,0.5,0.5
"biokurs19-14",2,42,15,12,12,1,1.32,0,15,16477,17797,20095,-0.5,0.608250347352454,0.739936970108763,0.5,0.5
"biokurs19-14",2,43,10,16,10,1,1.43,1,16,24423,25853,28457,0.5,0.62953910950979,0.76583476406257,0.5,0.535
"biokurs19-14",2,44,16,9,9,2,1.391,1,16,33521,34912,38125,0.5,0.652318085018139,0.793545403593143,0.5,0.57245
"biokurs19-14",2,45,10,14,10,2,1.082,0,14,42547,43629,46183,-0.535,0.62953910950979,0.76583476406257,0.535,0.5
"biokurs19-14",2,46,11,13,13,2,1.375,1,11,51065,52440,55059,0.465,0.62953910950979,0.76583476406257,0.535,0.5
"biokurs19-14",2,47,14,12,12,2,1.512,1,14,60235,61747,63667,0.465,0.650827871667126,0.791732558016377,0.535,0.535
"biokurs19-14",2,48,11,9,9,2,1.067,1,11,68728,69795,73253,0.465,0.650827871667126,0.791732558016377,0.535,0.535
"biokurs19-14",2,49,15,11,11,1,1.427,0,15,78152,79579,81610,-0.57245,0.673606847175475,0.819443197546949,0.57245,0.535
"biokurs19-14",2,50,10,11,10,2,1.23,0,11,85950,87180,89113,-0.57245,0.720759326477759,0.876804221375237,0.57245,0.6125215
"biokurs19-14",2,51,11,12,12,2,1.05,1,11,94008,95058,98210,0.43245,0.734276775030894,0.893248206930763,0.56755,0.639644995
"biokurs19-14",2,52,11,16,11,2,1.5,0,16,103612,105112,107764,-0.68442014465,0.788865205854226,0.959655070950198,0.68442014465,0.6125215
"biokurs19-14",2,53,15,9,9,2,1.083,1,15,111977,113060,115867,0.43245,0.690424969279771,0.839902454770458,0.56755,0.56755
"biokurs19-14",2,54,13,9,13,2,1.493,0,9,121981,123474,126365,-0.56755,0.708837619669651,0.862301456761105,0.56755,0.5978215
"biokurs19-14",2,55,10,15,10,1,1.654,1,15,130667,132321,134694,0.3874785,0.741943773700524,0.90257511613867,0.6125215,0.6072785
"biokurs19-14",2,56,9,15,9,1,1.114,1,15,139709,140823,144082,0.374026005,0.775982673556558,0.943983461460526,0.625973995,0.649787995
"biokurs19-14",2,57,11,9,11,1,1.515,1,9,149187,150702,153030,0.2676704452245,0.842113707283227,1.02443190993057,0.7323295547755,0.65215581535
"biokurs19-14",2,58,12,15,12,1,1.068,1,15,167528,168596,170900,0.4021785,0.786525272850464,0.956808540825558,0.5978215,0.69527315465
"biokurs19-14",2,59,11,10,10,1,1.382,0,11,175012,176394,178989,-0.639644995,0.84590074134954,1.02903883950311,0.639644995,0.751066485941215
"biokurs19-14",2,60,12,16,12,1,0.851,1,16,184286,185137,187889,0.374026005,0.769813190283362,0.936478280772713,0.625973995,0.639644995
"biokurs19-14",2,61,9,14,9,1,0.884,1,14,193131,194015,196365,0.3021932775755,0.772634092641492,0.939909910451073,0.6978067224245,0.57245
"biokurs19-14",2,62,12,13,13,2,1.288,1,12,201405,202693,205681,0.3927215,0.766051359779238,0.931902011351084,0.6072785,0.65215581535
"biokurs19-14",2,63,13,9,9,2,0.817,1,13,211275,212092,215855,0.281039748145215,0.823406290703103,1.00167432466472,0.718960251854785,0.634769005
"biokurs19-14",2,64,13,11,11,2,1.436,1,13,220483,221919,224099,0.23150816807467,0.880560784230515,1.07120280574632,0.76849183192533,0.67920283535
"biokurs19-14",2,65,10,9,10,1,1.329,1,9,228844,230173,233174,0.31557985535,0.865572590351703,1.05296965748038,0.68442014465,0.73863303422495
"biokurs19-14",2,66,9,12,9,1,0.862,1,12,236943,237805,241217,0.209662653379303,0.905164146907235,1.10113281353463,0.790337346620697,0.6978067224245
"biokurs19-14",2,67,16,11,11,2,0.838,1,16,246004,246842,250201,0.215302596309443,0.89359125907973,1.08705438745273,0.784697403690557,0.68442014465
"biokurs19-14",2,68,14,13,13,1,1.3,0,14,254738,256038,257753,-0.7267470338245,0.814610550896964,0.990974301080106,0.7267470338245,0.6125215
"biokurs19-14",2,69,9,12,12,2,0.997,1,9,262221,263218,265973,0.253346807005785,0.943801946320342,1.14813572336254,0.746653192994215,0.805013732357248
"biokurs19-14",2,70,16,13,13,2,0.736,1,16,269883,270619,273412,0.222380673807785,0.918426931333062,1.11726700000237,0.777619326192215,0.7323295547755
"biokurs19-14",2,71,11,10,11,1,0.994,1,10,277988,278982,282262,0.200231414567782,0.916194919573492,1.11455175614626,0.799768585432218,0.7065107345245
"biokurs19-14",2,72,10,12,12,2,0.871,1,10,287149,288020,291025,0.23561253051538,0.924755821486442,1.12496609927067,0.76438746948462,0.755966485941215
"biokurs19-14",2,73,15,10,10,2,1.176,1,15,296311,297487,300320,0.1911158600429,0.944507206564945,1.14899367294005,0.8088841399571,0.7439422754755
"biokurs19-14",2,74,12,11,12,1,0.649,1,11,305670,306319,310393,0.219119653379303,0.969955619885792,1.179951685424,0.780880346620697,0.813784784451963
"biokurs19-14",2,75,9,10,10,1,1.228,0,9,316206,317434,320906,-0.822262250160103,1.02406667336757,1.2457778195758,0.822262250160103,0.861364693622255
"biokurs19-14",2,76,11,14,11,1,1.405,1,14,326365,327770,330257,0.1292502806364,0.91869810965097,1.11759688861449,0.8707497193636,0.639644995
"biokurs19-14",2,77,13,11,13,1,1.38,1,11,335328,336708,339332,0.20681402664124,1.017592620037,1.2379021292016,0.79318597335876,0.879797239008148
"biokurs19-14",2,78,11,13,11,1,0.906,1,13,344028,344934,348536,0.0586169542612817,1.06385783762078,1.29418379853294,0.941383045738718,0.807662955223647
"biokurs19-14",2,79,9,11,9,1,0.987,1,11,352826,353813,356722,0.128930834931302,1.10492045157865,1.34413649693909,0.871069165068698,0.945486232537008
"biokurs19-14",3,80,20,19,20,1,1.058,1,19,8106,9164,11854,0.5,0.608250347352454,0.739936970108763,0.5,0.5
"biokurs19-14",3,81,19,24,19,2,1.343,0,24,16271,17614,20586,-0.535,0.62953910950979,0.76583476406257,0.535,0.5
"biokurs19-14",3,82,17,21,17,1,1.67,1,21,25976,27646,29572,0.5,0.608250347352454,0.739936970108763,0.5,0.5
"biokurs19-14",3,83,18,23,18,1,1.2,1,23,34880,36080,38316,0.5,0.608250347352454,0.739936970108763,0.5,0.5
"biokurs19-14",3,84,22,17,17,1,1.619,0,22,43317,44936,47707,-0.535,0.62953910950979,0.76583476406257,0.535,0.5
"biokurs19-14",3,85,20,23,20,1,0.88,1,23,52174,53054,55703,0.465,0.650827871667126,0.791732558016377,0.535,0.535
"biokurs19-14",3,86,23,18,18,2,1.026,1,23,61820,62846,65696,0.465,0.673606847175475,0.819443197546949,0.535,0.57245
"biokurs19-14",3,87,24,17,17,2,1.385,1,24,70271,71656,74152,0.42755,0.673606847175475,0.819443197546949,0.57245,0.535
"biokurs19-14",3,88,19,20,19,1,1.522,1,20,78359,79881,81504,0.42755,0.693405395981798,0.84352814592399,0.57245,0.56755
"biokurs19-14",3,89,19,21,21,2,1.361,1,19,86691,88052,90904,0.465,0.691810867696213,0.84158840115685,0.535,0.6023785
"biokurs19-14",3,90,24,18,18,2,1.383,1,24,95206,96589,98821,0.43245,0.693405395981798,0.84352814592399,0.56755,0.57245
"biokurs19-14",3,91,21,19,19,1,1.688,0,21,103886,105574,108167,-0.644544995,0.737257201732921,0.896873898084296,0.644544995,0.56755
"biokurs19-14",3,92,17,18,18,2,1.352,1,17,112510,113862,117235,0.4021785,0.730022066892416,0.888072351524538,0.5978215,0.6023785
"biokurs19-14",3,93,21,17,21,1,1.478,1,17,122532,124010,127040,0.4021785,0.755669852122801,0.919272900074944,0.5978215,0.644544995
"biokurs19-14",3,94,20,19,19,2,1.402,1,20,131755,133157,135700,0.31033685535,0.788865205854226,0.959655070950198,0.68966314465,0.6072785
"biokurs19-14",3,95,22,21,21,1,1.467,0,22,140399,141866,144618,-0.625973995,0.706162835725916,0.859047580235366,0.625973995,0.535
"biokurs19-14",3,96,24,20,20,2,0.97,1,24,149512,150482,152525,0.350212005,0.767800188800051,0.934029463069823,0.649787995,0.6125215
"biokurs19-14",3,97,22,18,18,2,1.313,1,22,157882,159195,161112,0.374026005,0.725961384532239,0.883132528612407,0.625973995,0.56755
"biokurs19-14",3,98,19,17,19,1,1.876,1,17,165438,167314,169082,0.2886132754755,0.8521890695835,1.03668859516826,0.7113867245245,0.68966314465
"biokurs19-14",3,99,21,18,18,2,0.937,1,21,174541,175478,178812,0.34784418465,0.804075324099379,0.97815819036197,0.65215581535,0.66979217465
"biokurs19-14",3,100,22,19,19,2,1.158,1,22,183546,184704,188081,0.268410346192215,0.814367019612724,0.990678045103646,0.731589653807785,0.6072785
"biokurs19-14",3,101,20,24,20,1,0.822,1,24,192866,193688,196904,0.32569716465,0.808790998017738,0.983894810959656,0.67430283535,0.655398005
"biokurs19-14",3,102,23,21,21,2,1.424,1,23,202086,203510,206646,0.2833223731245,0.808485830622602,0.983523574611472,0.7166776268755,0.6125215
"biokurs19-14",3,103,17,22,17,1,1.396,1,22,211274,212670,214714,0.2620604352245,0.844085770264021,1.02683092591671,0.7379395647755,0.649787995
"biokurs19-14",3,104,18,20,20,1,1.344,0,18,219789,221133,223661,-0.6971016368755,0.8354966582137,1.0163822651406,0.6971016368755,0.6765049082755
"biokurs19-14",3,105,17,21,21,2,1.667,1,17,227432,229099,231090,0.263489807005785,0.907992461869856,1.1045734606515,0.736510192994215,0.756283795241215
"biokurs19-14",3,106,21,20,20,2,0.882,1,21,236193,237075,240181,0.254101248543215,0.912894499045163,1.11053679228073,0.745898751456785,0.75495447948462
"biokurs19-14",3,107,17,18,17,1,1.647,1,18,244293,245940,248995,0.1907763390919,0.917468538410967,1.11610111434684,0.8092236609081,0.699149564696215
"biokurs19-14",3,108,21,24,21,1,1.146,1,24,254582,255728,258418,0.192198706951457,0.917896705777569,1.11662198024576,0.807801293048543,0.70127586535
"biokurs19-14",3,109,19,22,19,1,0.979,1,22,263308,264287,267306,0.24962162195876,0.879318046910055,1.06969101493265,0.75037837804124,0.69527315465
"biokurs19-14",3,110,18,21,21,2,1.082,1,18,271841,272923,275727,0.178744797464855,0.954554785375248,1.16121655954289,0.821255202535145,0.74809003422495
"biokurs19-14",3,111,20,21,20,1,0.751,1,21,280614,281365,284651,0.23631416114519,0.971651449918782,1.18201466383723,0.76368583885481,0.833767338357685
"biokurs19-14",3,112,19,17,17,1,1.39,0,19,288568,289958,291920,-0.822578004644533,0.967379536817298,1.17681787858156,0.822578004644533,0.767851891578353
"biokurs19-14",3,113,24,19,19,2,1.169,1,24,297168,298337,301198,0.215897740832131,0.933340350395963,1.13540918465281,0.784102259167869,0.7503651759245
"biokurs19-14",3,114,22,20,20,2,0.873,1,22,306084,306957,309716,0.219772169865027,0.927076996161797,1.12778980987577,0.780227830134973,0.7439422754755
"biokurs19-14",3,115,23,17,17,2,1.215,1,23,314758,315973,318914,0.119841535030349,0.934002756238348,1.13621500182025,0.880158464969651,0.655398005
"biokurs19-14",3,116,18,20,18,2,1.492,0,20,323984,325476,328260,-0.800456336620697,0.970809048389777,1.18098988179198,0.800456336620697,0.795611882025525
"biokurs19-14",3,117,20,17,17,1,1.659,0,20,334214,335873,337586,-0.888547372421775,1.03309279157711,1.25675809864819,0.888547372421775,0.809919050283738
"biokurs19-14",3,118,18,19,18,1,1.571,1,19,341887,343458,346484,0.143511719815854,1.00708215673378,1.22511614329156,0.856488280184146,0.799215101026118
"biokurs19-14",3,119,24,21,21,2,1.231,1,24,352296,353527,356679,0.197109261760785,1.03099759270897,1.25420928776955,0.892131052042723,0.802890738239215
