"subjID","block","trial","vStim1","vStim2","aStim","resp","RT","fb","vStimNassoc","stimOnset","respOnset","feedbackOnset","pe","deltas","drift","assoc_active","assoc_inactive"
"biokurs19-11",1,1,1,2,2,1,1.431,0,1,16562,17993,20853,-0.5,0.337306083581567,0.22755078804227,0.5,0.5
"biokurs19-11",1,2,4,5,5,2,1.159,1,4,34161,35320,38357,0.5,0.337306083581567,0.22755078804227,0.5,0.5
"biokurs19-11",1,3,1,6,1,1,1.719,1,6,52560,54279,56933,0.465,0.349111796506922,0.23551506562375,0.535,0.5
"biokurs19-11",1,4,4,3,4,2,1.341,0,3,62014,63355,65919,-0.535,0.349111796506922,0.23551506562375,0.535,0.5
"biokurs19-11",1,5,7,2,2,2,1.353,1,7,71503,72856,75339,0.465,0.349111796506922,0.23551506562375,0.535,0.5
"biokurs19-11",1,6,5,8,5,1,1.365,1,8,80578,81943,83964,0.465,0.349111796506922,0.23551506562375,0.535,0.5
"biokurs19-11",1,7,6,3,3,1,1.025,0,6,89908,90933,93285,-0.535,0.360917509432277,0.243479343205229,0.535,0.535
"biokurs19-11",1,8,6,2,2,2,1.145,1,6,98072,99217,102769,0.43245,0.382876135473437,0.258292899506781,0.56755,0.56755
"biokurs19-11",1,9,3,5,3,2,1.163,0,5,108877,110040,112636,-0.57245,0.384528935282986,0.259407898368188,0.57245,0.56755
"biokurs19-11",1,10,1,8,1,1,1.115,1,8,117817,118932,120970,0.43245,0.371896822452857,0.250886121356005,0.56755,0.535
"biokurs19-11",1,11,3,4,3,1,1.89,1,4,125279,127169,128523,0.3874785,0.399698095820775,0.269641198632631,0.6125215,0.57245
"biokurs19-11",1,12,4,6,4,1,1.777,1,6,133422,135199,137453,0.3874785,0.411445960752795,0.277566451253961,0.6125215,0.6072785
"biokurs19-11",1,13,4,2,2,2,1.497,1,4,142516,144013,146843,0.4021785,0.417404976991859,0.281586476113156,0.5978215,0.639644995
"biokurs19-11",1,14,5,4,4,2,1.674,1,5,151912,153586,155859,0.31557985535,0.432507907362079,0.291775096700724,0.68442014465,0.5978215
"biokurs19-11",1,15,5,3,3,1,1.41,0,5,169063,170473,172670,-0.639644995,0.431520395011069,0.291108908853509,0.639644995,0.639669005
"biokurs19-11",1,16,3,5,5,1,1.489,0,3,177564,179053,181018,-0.66489217465,0.455131253951444,0.307037081571858,0.66489217465,0.68442014465
"biokurs19-11",1,17,6,1,1,2,1.264,1,6,184921,186185,188450,0.4021785,0.420826272597627,0.283894523756269,0.5978215,0.649787995
"biokurs19-11",1,18,4,7,4,2,1.064,0,7,193528,194592,197188,-0.7065107345245,0.418769123586934,0.282506746003988,0.7065107345245,0.535
"biokurs19-11",1,19,3,8,3,2,1.09,0,8,202581,203671,206951,-0.7065107345245,0.431401236417063,0.29102852301617,0.7065107345245,0.57245
"biokurs19-11",1,20,1,5,1,2,0.942,0,5,212131,213073,216140,-0.625973995,0.451116064393046,0.304328385842297,0.625973995,0.7114346268755
"biokurs19-11",1,21,2,3,2,1,0.997,1,3,220856,221853,223867,0.374026005,0.466136931369108,0.314461645465687,0.625973995,0.755966485941215
"biokurs19-11",1,22,5,2,5,2,1.137,0,2,228166,229303,232205,-0.731634202994215,0.466760791586952,0.314882509159254,0.731634202994215,0.65215581535
"biokurs19-11",1,23,8,2,2,1,0.965,0,8,236628,237593,240488,-0.6765049082755,0.431375153802855,0.291010927367274,0.6765049082755,0.6023785
"biokurs19-11",1,24,3,1,1,1,0.75,0,3,244611,245361,248238,-0.66979217465,0.498766516564946,0.336473960648285,0.66979217465,0.8088841399571
"biokurs19-11",1,25,6,5,5,2,1.428,1,6,252017,253445,256202,0.21715140279619,0.498579459174533,0.336347769456755,0.78284859720381,0.69527315465
"biokurs19-11",1,26,1,3,1,1,1.067,1,3,261312,262379,265590,0.2833223731245,0.519093782790378,0.350186981769126,0.7166776268755,0.822262250160103
"biokurs19-11",1,27,4,2,4,1,1.712,1,2,271405,273117,275287,0.244033514058785,0.499154561305255,0.336735740351502,0.755966485941215,0.723860251854785
"biokurs19-11",1,28,5,7,5,1,1.098,1,7,280169,281267,284676,0.201950804600457,0.460624916342359,0.310743173063056,0.798049195399543,0.56755
"biokurs19-11",1,29,6,4,4,2,1.774,1,6,289707,291481,293610,0.22695116807467,0.511690329265438,0.345192521942175,0.77304883192533,0.7439422754755
"biokurs19-11",1,30,2,8,2,1,1.228,1,8,297827,299055,302374,0.22546953051538,0.473828182509086,0.319650257065423,0.77453046948462,0.630212005
"biokurs19-11",1,31,8,4,4,2,1.285,1,8,307840,309125,311846,0.211064586309443,0.493567261849687,0.332966480157191,0.788935413690557,0.67432684535
"biokurs19-11",1,32,5,6,5,1,1.261,1,6,316158,317419,320881,0.187814248278425,0.542456988279954,0.365948084456327,0.812185751721575,0.796018234758785
"biokurs19-11",1,33,1,3,3,1,1.164,0,1,325422,326586,329597,-0.87982060767131,0.545198212144747,0.367797347428434,0.87982060767131,0.736510192994215
"biokurs19-11",1,34,1,2,1,1,1.84,1,2,334489,336329,338148,0.24504552051538,0.521228235135125,0.351626909291122,0.75495447948462,0.790313336620697
"biokurs19-11",1,35,3,6,3,2,1.23,0,6,342889,344119,346901,-0.941408050208302,0.60483958121974,0.408032140672691,0.941408050208302,0.8517395111919
"biokurs19-11",1,36,2,4,4,2,1.143,1,2,352197,353340,356793,0.196290065267782,0.556334171544376,0.375309801132458,0.803709934732218,0.845635270184146
"biokurs19-11",2,37,13,16,13,1,1.812,1,16,8626,10438,13156,0.5,0.337306083581567,0.22755078804227,0.5,0.5
"biokurs19-11",2,38,15,12,12,2,1.69,1,15,19261,20951,23646,0.5,0.337306083581567,0.22755078804227,0.5,0.5
"biokurs19-11",2,39,10,16,10,1,1.205,1,16,28068,29273,32627,0.5,0.349111796506922,0.23551506562375,0.5,0.535
"biokurs19-11",2,40,16,9,9,1,1.81,0,16,38435,40245,42449,-0.5,0.361743909337051,0.244036842635932,0.5,0.57245
"biokurs19-11",2,41,10,14,10,1,1.376,1,14,46747,48123,50380,0.465,0.349111796506922,0.23551506562375,0.535,0.5
"biokurs19-11",2,42,11,13,13,2,1.734,1,11,54300,56034,57906,0.465,0.349111796506922,0.23551506562375,0.535,0.5
"biokurs19-11",2,43,14,12,12,1,1.707,0,14,62985,64692,67687,-0.535,0.360917509432277,0.243479343205229,0.535,0.535
"biokurs19-11",2,44,11,9,9,2,1.505,1,11,72788,74293,76036,0.465,0.360917509432277,0.243479343205229,0.535,0.535
"biokurs19-11",2,45,15,11,11,1,1.856,0,15,81104,82960,85161,-0.57245,0.373549622262406,0.252001120217412,0.57245,0.535
"biokurs19-11",2,46,10,11,10,1,1.431,1,11,90044,91475,93712,0.43245,0.398045296011225,0.268526199771224,0.56755,0.6125215
"biokurs19-11",2,47,11,12,12,2,1.311,1,11,98340,99651,101352,0.42755,0.41416060179999,0.279397781133879,0.57245,0.655398005
"biokurs19-11",2,48,11,16,11,1,1.435,1,16,106648,108083,110020,0.29872413465,0.439730548320222,0.296647578170138,0.70127586535,0.6023785
"biokurs19-11",2,49,15,9,9,2,1.331,1,15,114309,115640,118836,0.43245,0.382876135473437,0.258292899506781,0.56755,0.56755
"biokurs19-11",2,50,13,9,13,1,1.826,1,9,123538,125364,127420,0.43245,0.393086896582576,0.265181203187002,0.56755,0.5978215
"biokurs19-11",2,51,10,15,10,1,1.38,1,15,132160,133540,136490,0.4021785,0.406487561324146,0.274221454669739,0.5978215,0.6072785
"biokurs19-11",2,52,9,15,9,1,1.334,1,15,141668,143002,145030,0.360330995,0.434941690616837,0.293416956496622,0.639669005,0.649787995
"biokurs19-11",2,53,11,9,11,1,1.883,1,9,150108,151991,153750,0.2778134452245,0.467870093841811,0.315630857957443,0.7221865547755,0.66489217465
"biokurs19-11",2,54,13,14,13,2,1.941,0,14,158285,160226,162052,-0.5978215,0.393086896582576,0.265181203187002,0.5978215,0.56755
"biokurs19-11",2,55,12,15,12,1,1.109,1,15,167061,168170,170953,0.3976215,0.437705797483132,0.295281656619964,0.6023785,0.69527315465
"biokurs19-11",2,56,11,10,10,2,1.2,1,11,175851,177051,180119,0.374026005,0.461302326646195,0.311200162296186,0.625973995,0.741633495941215
"biokurs19-11",2,57,12,16,12,1,0.862,1,16,184449,185311,188731,0.369787995,0.429983291188188,0.2900719599124,0.630212005,0.644544995
"biokurs19-11",2,58,9,14,9,1,1.727,1,14,193199,194926,196359,0.2885653731245,0.441620056561546,0.29792226341969,0.7114346268755,0.5978215
"biokurs19-11",2,59,12,13,13,1,1.51,0,12,200480,201990,204330,-0.639669005,0.43706981192213,0.294852613022371,0.639669005,0.65609716465
"biokurs19-11",2,60,13,9,9,2,1.517,1,13,209221,210738,213204,0.268365797005785,0.477652411771922,0.322230128656154,0.731634202994215,0.68444583535
"biokurs19-11",2,61,13,11,11,1,1.555,0,13,218658,220213,222687,-0.7935478406571,0.514697000502472,0.347220858941337,0.7935478406571,0.7323570438245
"biokurs19-11",2,62,10,9,10,2,1.286,0,9,227994,229280,231870,-0.65215581535,0.473097290703821,0.319157188560712,0.65215581535,0.75041980878462
"biokurs19-11",2,63,9,12,9,1,1.138,1,12,235637,236775,239587,0.232109577830303,0.488439712275634,0.329507372826803,0.767890422169697,0.6801703631245
"biokurs19-11",2,64,16,11,11,2,1.079,1,16,244653,245732,248177,0.150903810496903,0.519032884577761,0.350145899093936,0.849096189503097,0.68966314465
"biokurs19-11",2,65,14,13,13,2,1.542,1,14,252965,254507,257155,0.248907949243215,0.469112164915086,0.316468774215956,0.751092050756785,0.639669005
"biokurs19-11",2,66,9,12,12,1,1.195,0,9,262198,263393,266214,-0.727782288543215,0.509979942456578,0.344038674190362,0.727782288543215,0.784138092617818
"biokurs19-11",2,67,16,13,13,2,1.271,1,16,270533,271804,273973,0.23148439279619,0.508136494151537,0.342795061534246,0.76851560720381,0.7379395647755
"biokurs19-11",2,68,11,10,11,1,1.372,1,10,279912,281284,283806,0.14034054376212,0.525342817035357,0.354402656303808,0.85965945623788,0.6978067224245
"biokurs19-11",2,69,10,12,12,1,1.445,0,10,289206,290651,293359,-0.77872704874124,0.51452003531249,0.347101476071011,0.77872704874124,0.746653192994215
"biokurs19-11",2,70,15,10,10,2,1.298,1,15,298711,300009,302156,0.23561253051538,0.508768799022082,0.343221622093272,0.76438746948462,0.7439422754755
"biokurs19-11",2,71,12,11,12,1,1.298,1,11,307051,308349,311649,0.166762057846873,0.574338231699582,0.387455559171497,0.833237942153127,0.869483294301229
"biokurs19-11",2,72,9,10,10,2,1.998,1,9,316221,318219,320434,0.219119653379303,0.532987047892627,0.359559547448726,0.780880346620697,0.799248426134571
"biokurs19-11",2,73,11,14,11,1,1.355,1,14,325153,326508,329870,0.0696528750976851,0.544679489217793,0.367447410630524,0.930347124902315,0.68444583535
"biokurs19-11",2,74,13,11,13,2,1.192,0,11,334087,335279,337710,-0.784719514699543,0.580147014981159,0.391374235049663,0.784719514699543,0.935222826159153
"biokurs19-11",2,75,11,13,11,1,1.56,1,13,342899,344459,347184,0.0602427716719879,0.600204843053054,0.404905489913829,0.939757228328012,0.839649880728512
"biokurs19-11",2,76,9,11,9,1,1.387,1,11,352432,353819,356813,0.144804184036009,0.606870999319321,0.409402560039264,0.855195815963991,0.943974222345051
"biokurs19-11",3,77,20,19,20,2,1.9,0,19,7917,9817,12496,-0.5,0.337306083581567,0.22755078804227,0.5,0.5
"biokurs19-11",3,78,19,24,19,2,1.684,0,24,17852,19536,22353,-0.535,0.349111796506922,0.23551506562375,0.535,0.5
"biokurs19-11",3,79,17,21,17,2,1.585,0,21,26655,28240,30004,-0.5,0.337306083581567,0.22755078804227,0.5,0.5
"biokurs19-11",3,80,18,23,18,1,1.305,1,23,35081,36386,39114,0.5,0.337306083581567,0.22755078804227,0.5,0.5
"biokurs19-11",3,81,20,23,20,2,0.645,0,23,53614,54259,57501,-0.535,0.360917509432277,0.243479343205229,0.535,0.535
"biokurs19-11",3,82,23,18,18,2,0.668,1,23,62598,63266,66976,0.465,0.371896822452857,0.250886121356005,0.535,0.56755
"biokurs19-11",3,83,24,17,17,2,0.6,1,24,72432,73032,75875,0.465,0.360917509432277,0.243479343205229,0.535,0.535
"biokurs19-11",3,84,19,20,19,1,1.092,1,20,80342,81434,84210,0.42755,0.386181735092536,0.260522897229595,0.57245,0.57245
"biokurs19-11",3,85,19,21,21,2,1.134,1,19,89226,90360,92595,0.465,0.383644687384877,0.258811373977335,0.535,0.6023785
"biokurs19-11",3,86,24,18,18,2,1.031,1,24,97370,98401,101403,0.43245,0.384528935282986,0.259407898368188,0.56755,0.57245
"biokurs19-11",3,87,21,19,19,1,1.369,0,21,106301,107670,110298,-0.644544995,0.408847015692269,0.275813171294341,0.644544995,0.56755
"biokurs19-11",3,88,17,18,18,2,0.633,1,17,115599,116232,118612,0.4021785,0.393086896582576,0.265181203187002,0.5978215,0.56755
"biokurs19-11",3,89,21,17,21,2,0.641,0,17,124566,125207,129296,-0.5978215,0.406487561324146,0.274221454669739,0.5978215,0.6072785
"biokurs19-11",3,90,20,19,19,2,0.542,1,20,134193,134735,137794,0.31033685535,0.439234802586946,0.296313142066651,0.68966314465,0.6125215
"biokurs19-11",3,91,22,21,21,1,0.802,0,22,143607,144409,146756,-0.639669005,0.384417288655851,0.2593325801951,0.639669005,0.5
"biokurs19-11",3,92,24,20,20,2,0.679,1,24,150531,151210,154688,0.344601995,0.427676962528229,0.288516082536915,0.655398005,0.6125215
"biokurs19-11",3,93,22,18,18,2,1.096,1,22,159870,160966,164556,0.374026005,0.391603591393496,0.264180547458833,0.625973995,0.535
"biokurs19-11",3,94,19,17,19,1,1.392,1,17,168973,170365,173237,0.2886132754755,0.454066517016796,0.306318797080917,0.7113867245245,0.634769005
"biokurs19-11",3,95,21,18,18,2,1.486,1,21,177143,178629,180821,0.34784418465,0.450843868106275,0.304144758915384,0.65215581535,0.68444583535
"biokurs19-11",3,96,22,19,19,2,0.703,1,22,185857,186560,189606,0.268410346192215,0.439860508460966,0.29673525086233,0.731589653807785,0.57245
"biokurs19-11",3,97,20,24,20,2,1.356,0,24,194788,196144,199075,-0.67952014465,0.450276012960394,0.303761676924787,0.67952014465,0.655398005
"biokurs19-11",3,98,23,21,21,2,0.928,1,23,203374,204302,206823,0.2676429561755,0.451867218714105,0.3048351236867,0.7323570438245,0.6072785
"biokurs19-11",3,99,17,22,17,1,1.056,1,22,211025,212081,214997,0.32079716465,0.435706476623911,0.29393289044227,0.67920283535,0.6125215
"biokurs19-11",3,100,18,20,20,2,1.218,1,18,219559,220777,223090,0.2729134452245,0.473439939350255,0.319388343506658,0.7270865547755,0.6765049082755
"biokurs19-11",3,101,17,21,21,1,1.056,0,17,228687,229743,232557,-0.751092050756785,0.490021644865674,0.330574563799676,0.751092050756785,0.7016586368755
"biokurs19-11",3,102,21,20,20,2,0.69,1,21,237797,238487,241426,0.253809504058785,0.522776866105238,0.352671634586006,0.746190495941215,0.80366849430976
"biokurs19-11",3,103,17,18,17,2,0.61,0,18,246718,247328,251253,-0.722542532294215,0.487880458402774,0.329130093359639,0.722542532294215,0.723860251854785
"biokurs19-11",3,104,21,24,21,2,1.415,0,24,256652,258067,260850,-0.859925288911443,0.519264310082138,0.350302021554981,0.859925288911443,0.67952014465
"biokurs19-11",3,105,19,22,19,1,0.604,1,22,265563,266167,270138,0.24962162195876,0.474176926155101,0.319885523772246,0.75037837804124,0.655398005
"biokurs19-11",3,106,18,21,21,2,1.044,1,18,275211,276255,278436,0.0798799408647557,0.561044613373018,0.378487522502774,0.920120059135244,0.74319003422495
"biokurs19-11",3,107,20,21,20,2,1.513,0,21,283335,284848,287172,-0.76395716122533,0.569935570949444,0.384485470661563,0.76395716122533,0.925711654995777
"biokurs19-11",3,108,19,17,17,2,1.492,1,19,291287,292779,295282,0.22687949044519,0.519779365533511,0.350649484229241,0.77312050955481,0.767851891578353
"biokurs19-11",3,109,24,19,19,2,0.752,1,24,300340,301092,304538,0.178398476011162,0.513904457369236,0.346686199700655,0.821601523988838,0.7019537345245
"biokurs19-11",3,110,22,20,20,1,1.357,0,22,309616,310973,313530,-0.817434162511103,0.512270131593881,0.345583663647492,0.817434162511103,0.70127586535
"biokurs19-11",3,111,23,17,17,2,1.377,1,23,318163,319540,321776,0.210997926114026,0.485312643231981,0.327397814002396,0.789002073885974,0.649787995
"biokurs19-11",3,112,18,20,18,2,1.476,0,20,326120,327596,330417,-0.795213336620697,0.563256598245724,0.379979754411483,0.795213336620697,0.874654553886881
"biokurs19-11",3,113,20,17,17,2,1.359,1,20,334745,336104,339067,0.196228071286045,0.569103048132297,0.383923840639674,0.803771928713955,0.883428735114799
"biokurs19-11",3,114,18,19,18,1,1.454,1,19,343600,345054,347967,0.149121729815854,0.568349851630012,0.383415725114968,0.850878270184146,0.83408941730962
"biokurs19-11",3,115,24,21,21,1,1.443,0,24,352689,354132,356690,-0.751090495941215,0.567349620223343,0.38274095683805,0.930911839146073,0.751090495941215
