block	trial	Vstim	Astim	match	C/I	resp	.result	RT	fb	V-file	A-file
RL

0	1	1	2	0	C	0	0	0	0	Ⴢ	cut_g_stereo_44KHz.wav
0	2	2	3	1	C	2	0	556	0	Ⴋ	cut_oo_stereo_44KHz.wav
0	3	2	4	0	C	1	0	875	0	Ⴋ	cut_eeuw_stereo_44KHz.wav
0	4	1	1	1	C	2	0	1036	0	Ⴢ	cut_ee_stereo_44KHz.wav
0	5	2	3	1	C	1	1	834	1	Ⴋ	cut_oo_stereo_44KHz.wav
0	6	2	4	0	C	2	1	675	1	Ⴋ	cut_eeuw_stereo_44KHz.wav
0	7	1	1	1	C	1	1	1021	1	Ⴢ	cut_ee_stereo_44KHz.wav
0	8	1	2	0	C	2	1	696	1	Ⴢ	cut_g_stereo_44KHz.wav
0	9	2	4	0	C	1	0	872	0	Ⴋ	cut_eeuw_stereo_44KHz.wav
0	10	1	1	1	C	2	0	920	0	Ⴢ	cut_ee_stereo_44KHz.wav
0	11	2	3	1	C	2	0	909	0	Ⴋ	cut_oo_stereo_44KHz.wav
0	12	1	2	0	C	2	1	706	1	Ⴢ	cut_g_stereo_44KHz.wav
0	13	1	2	0	C	2	1	633	1	Ⴢ	cut_g_stereo_44KHz.wav
0	14	1	1	1	C	2	0	601	0	Ⴢ	cut_ee_stereo_44KHz.wav
0	15	2	3	1	C	2	0	888	0	Ⴋ	cut_oo_stereo_44KHz.wav
0	16	2	4	0	C	2	1	673	1	Ⴋ	cut_eeuw_stereo_44KHz.wav
0	17	1	1	1	C	1	1	846	1	Ⴢ	cut_ee_stereo_44KHz.wav
0	18	1	2	0	C	1	0	959	0	Ⴢ	cut_g_stereo_44KHz.wav
0	19	2	4	0	C	2	1	1007	1	Ⴋ	cut_eeuw_stereo_44KHz.wav
0	20	2	3	1	C	1	1	1350	1	Ⴋ	cut_oo_stereo_44KHz.wav
0	21	2	4	0	C	1	0	1003	0	Ⴋ	cut_eeuw_stereo_44KHz.wav
0	22	2	3	1	C	1	1	950	1	Ⴋ	cut_oo_stereo_44KHz.wav
0	23	1	1	1	C	1	1	1128	1	Ⴢ	cut_ee_stereo_44KHz.wav
0	24	1	2	0	C	2	1	881	1	Ⴢ	cut_g_stereo_44KHz.wav
0	25	1	1	1	C	1	1	818	1	Ⴢ	cut_ee_stereo_44KHz.wav
0	26	2	3	1	C	1	1	1064	1	Ⴋ	cut_oo_stereo_44KHz.wav
0	27	2	4	0	C	2	1	1314	1	Ⴋ	cut_eeuw_stereo_44KHz.wav
0	28	1	2	0	C	2	1	1075	1	Ⴢ	cut_g_stereo_44KHz.wav
0	29	2	4	0	C	1	0	701	0	Ⴋ	cut_eeuw_stereo_44KHz.wav
0	30	1	1	1	C	2	0	987	0	Ⴢ	cut_ee_stereo_44KHz.wav
avg_resp = 922
1	1	4	4	2	I	2	0	1017	1	Ⴡ	cut_k_stereo_44KHz.wav
1	2	1	2	0	C	2	1	702	1	Ⴂ	cut_o_stereo_44KHz.wav
1	3	2	2	1	C	1	1	733	1	Ⴃ	cut_o_stereo_44KHz.wav
1	4	3	4	2	I	1	0	928	0	Ⴇ	cut_k_stereo_44KHz.wav
1	5	1	1	1	C	1	1	909	1	Ⴂ	cut_u_stereo_44KHz.wav
1	6	4	3	2	I	1	0	795	0	Ⴡ	cut_a_stereo_44KHz.wav
1	7	3	3	2	I	1	0	981	0	Ⴇ	cut_a_stereo_44KHz.wav
1	8	2	1	0	C	1	0	912	0	Ⴃ	cut_u_stereo_44KHz.wav
1	9	3	4	2	I	2	0	877	0	Ⴇ	cut_k_stereo_44KHz.wav
1	10	1	2	0	C	2	1	707	1	Ⴂ	cut_o_stereo_44KHz.wav
1	11	4	3	2	I	2	0	664	1	Ⴡ	cut_a_stereo_44KHz.wav
1	12	2	2	1	C	1	1	1020	1	Ⴃ	cut_o_stereo_44KHz.wav
1	13	4	4	2	I	1	0	977	1	Ⴡ	cut_k_stereo_44KHz.wav
1	14	1	1	1	C	1	1	840	1	Ⴂ	cut_u_stereo_44KHz.wav
1	15	3	3	2	I	1	0	801	0	Ⴇ	cut_a_stereo_44KHz.wav
1	16	2	1	0	C	2	1	862	1	Ⴃ	cut_u_stereo_44KHz.wav
1	17	3	4	2	I	2	0	647	1	Ⴇ	cut_k_stereo_44KHz.wav
1	18	1	2	0	C	2	1	536	1	Ⴂ	cut_o_stereo_44KHz.wav
1	19	2	1	0	C	2	1	758	1	Ⴃ	cut_u_stereo_44KHz.wav
1	20	4	4	2	I	1	0	1131	1	Ⴡ	cut_k_stereo_44KHz.wav
1	21	1	1	1	C	1	1	787	1	Ⴂ	cut_u_stereo_44KHz.wav
1	22	4	3	2	I	2	0	559	1	Ⴡ	cut_a_stereo_44KHz.wav
1	23	3	3	2	I	1	0	736	1	Ⴇ	cut_a_stereo_44KHz.wav
1	24	2	2	1	C	1	1	779	1	Ⴃ	cut_o_stereo_44KHz.wav
1	25	3	4	2	I	2	0	713	1	Ⴇ	cut_k_stereo_44KHz.wav
1	26	1	2	0	C	2	1	628	1	Ⴂ	cut_o_stereo_44KHz.wav
1	27	2	2	1	C	1	1	638	1	Ⴃ	cut_o_stereo_44KHz.wav
1	28	4	4	2	I	1	0	811	1	Ⴡ	cut_k_stereo_44KHz.wav
1	29	3	3	2	I	2	0	699	1	Ⴇ	cut_a_stereo_44KHz.wav
1	30	1	1	1	C	2	0	546	0	Ⴂ	cut_u_stereo_44KHz.wav
1	31	2	1	0	C	1	0	595	0	Ⴃ	cut_u_stereo_44KHz.wav
1	32	4	3	2	I	2	0	550	0	Ⴡ	cut_a_stereo_44KHz.wav
1	33	1	2	0	C	2	1	498	1	Ⴂ	cut_o_stereo_44KHz.wav
1	34	2	1	0	C	2	1	780	1	Ⴃ	cut_u_stereo_44KHz.wav
1	35	4	3	2	I	2	0	551	1	Ⴡ	cut_a_stereo_44KHz.wav
1	36	3	3	2	I	1	0	870	1	Ⴇ	cut_a_stereo_44KHz.wav
1	37	2	2	1	C	1	1	917	1	Ⴃ	cut_o_stereo_44KHz.wav
1	38	1	1	1	C	2	0	512	0	Ⴂ	cut_u_stereo_44KHz.wav
1	39	3	4	2	I	2	0	712	1	Ⴇ	cut_k_stereo_44KHz.wav
1	40	4	4	2	I	1	0	709	0	Ⴡ	cut_k_stereo_44KHz.wav
1	41	3	3	2	I	2	0	935	1	Ⴇ	cut_a_stereo_44KHz.wav
1	42	1	2	0	C	2	1	544	1	Ⴂ	cut_o_stereo_44KHz.wav
1	43	4	4	2	I	1	0	1679	1	Ⴡ	cut_k_stereo_44KHz.wav
1	44	2	2	1	C	1	1	697	1	Ⴃ	cut_o_stereo_44KHz.wav
1	45	3	4	2	I	2	0	792	0	Ⴇ	cut_k_stereo_44KHz.wav
1	46	4	3	2	I	2	0	748	0	Ⴡ	cut_a_stereo_44KHz.wav
1	47	1	1	1	C	2	0	519	0	Ⴂ	cut_u_stereo_44KHz.wav
1	48	2	1	0	C	1	0	818	0	Ⴃ	cut_u_stereo_44KHz.wav
1	49	1	1	1	C	1	1	712	1	Ⴂ	cut_u_stereo_44KHz.wav
1	50	2	1	0	C	2	1	1010	1	Ⴃ	cut_u_stereo_44KHz.wav
1	51	3	4	2	I	2	0	798	0	Ⴇ	cut_k_stereo_44KHz.wav
1	52	4	3	2	I	2	0	659	0	Ⴡ	cut_a_stereo_44KHz.wav
1	53	2	2	1	C	2	0	700	0	Ⴃ	cut_o_stereo_44KHz.wav
1	54	3	3	2	I	1	0	877	1	Ⴇ	cut_a_stereo_44KHz.wav
1	55	4	4	2	I	2	0	916	1	Ⴡ	cut_k_stereo_44KHz.wav
1	56	1	2	0	C	2	1	626	1	Ⴂ	cut_o_stereo_44KHz.wav
1	57	4	4	2	I	2	0	1775	1	Ⴡ	cut_k_stereo_44KHz.wav
1	58	1	2	0	C	2	1	538	1	Ⴂ	cut_o_stereo_44KHz.wav
1	59	3	3	2	I	2	0	1279	0	Ⴇ	cut_a_stereo_44KHz.wav
1	60	2	2	1	C	1	1	792	1	Ⴃ	cut_o_stereo_44KHz.wav
1	61	4	3	2	I	2	0	1059	0	Ⴡ	cut_a_stereo_44KHz.wav
1	62	1	1	1	C	1	1	759	1	Ⴂ	cut_u_stereo_44KHz.wav
1	63	3	4	2	I	2	0	980	0	Ⴇ	cut_k_stereo_44KHz.wav
1	64	2	1	0	C	1	0	800	0	Ⴃ	cut_u_stereo_44KHz.wav
1	65	4	3	2	I	2	0	833	0	Ⴡ	cut_a_stereo_44KHz.wav
1	66	2	1	0	C	2	1	731	1	Ⴃ	cut_u_stereo_44KHz.wav
1	67	3	4	2	I	1	0	1584	0	Ⴇ	cut_k_stereo_44KHz.wav
1	68	1	1	1	C	1	1	1091	1	Ⴂ	cut_u_stereo_44KHz.wav
1	69	2	2	1	C	1	1	1054	1	Ⴃ	cut_o_stereo_44KHz.wav
1	70	1	2	0	C	2	1	867	1	Ⴂ	cut_o_stereo_44KHz.wav
1	71	3	3	2	I	2	0	629	0	Ⴇ	cut_a_stereo_44KHz.wav
1	72	4	4	2	I	2	0	663	0	Ⴡ	cut_k_stereo_44KHz.wav
1	73	1	2	0	C	2	1	627	1	Ⴂ	cut_o_stereo_44KHz.wav
1	74	3	4	2	I	2	0	1489	1	Ⴇ	cut_k_stereo_44KHz.wav
1	75	2	2	1	C	1	1	1136	1	Ⴃ	cut_o_stereo_44KHz.wav
1	76	4	4	2	I	1	0	867	1	Ⴡ	cut_k_stereo_44KHz.wav
1	77	2	1	0	C	2	1	1167	1	Ⴃ	cut_u_stereo_44KHz.wav
1	78	1	1	1	C	1	1	911	1	Ⴂ	cut_u_stereo_44KHz.wav
1	79	3	3	2	I	1	0	1753	1	Ⴇ	cut_a_stereo_44KHz.wav
1	80	4	3	2	I	2	0	527	0	Ⴡ	cut_a_stereo_44KHz.wav
1	81	1	1	1	C	1	1	1065	1	Ⴂ	cut_u_stereo_44KHz.wav
1	82	4	4	2	I	1	0	1562	0	Ⴡ	cut_k_stereo_44KHz.wav
1	83	3	3	2	I	2	0	837	0	Ⴇ	cut_a_stereo_44KHz.wav
1	84	2	1	0	C	2	1	1047	1	Ⴃ	cut_u_stereo_44KHz.wav
1	85	3	4	2	I	1	0	1286	1	Ⴇ	cut_k_stereo_44KHz.wav
1	86	4	3	2	I	1	0	1398	0	Ⴡ	cut_a_stereo_44KHz.wav
1	87	2	2	1	C	1	1	775	1	Ⴃ	cut_o_stereo_44KHz.wav
1	88	1	2	0	C	2	1	667	1	Ⴂ	cut_o_stereo_44KHz.wav
1	89	4	4	2	I	2	0	922	1	Ⴡ	cut_k_stereo_44KHz.wav
1	90	2	2	1	C	1	1	875	1	Ⴃ	cut_o_stereo_44KHz.wav
1	91	1	2	0	C	2	1	681	1	Ⴂ	cut_o_stereo_44KHz.wav
1	92	3	3	2	I	2	0	784	0	Ⴇ	cut_a_stereo_44KHz.wav
1	93	4	3	2	I	2	0	999	0	Ⴡ	cut_a_stereo_44KHz.wav
1	94	2	1	0	C	2	1	908	1	Ⴃ	cut_u_stereo_44KHz.wav
1	95	3	4	2	I	2	0	1346	0	Ⴇ	cut_k_stereo_44KHz.wav
1	96	1	1	1	C	2	0	580	0	Ⴂ	cut_u_stereo_44KHz.wav
1	97	4	4	2	I	2	0	786	1	Ⴡ	cut_k_stereo_44KHz.wav
1	98	1	2	0	C	2	1	693	1	Ⴂ	cut_o_stereo_44KHz.wav
1	99	3	3	2	I	2	0	788	0	Ⴇ	cut_a_stereo_44KHz.wav
1	100	2	1	0	C	2	1	802	1	Ⴃ	cut_u_stereo_44KHz.wav
1	101	3	4	2	I	1	0	1873	0	Ⴇ	cut_k_stereo_44KHz.wav
1	102	2	2	1	C	1	1	793	1	Ⴃ	cut_o_stereo_44KHz.wav
1	103	4	3	2	I	2	0	738	1	Ⴡ	cut_a_stereo_44KHz.wav
1	104	1	1	1	C	2	0	563	0	Ⴂ	cut_u_stereo_44KHz.wav
1	105	3	4	2	I	2	0	1019	0	Ⴇ	cut_k_stereo_44KHz.wav
1	106	1	2	0	C	2	1	600	1	Ⴂ	cut_o_stereo_44KHz.wav
1	107	2	2	1	C	1	1	717	1	Ⴃ	cut_o_stereo_44KHz.wav
1	108	4	4	2	I	1	0	924	0	Ⴡ	cut_k_stereo_44KHz.wav
1	109	3	3	2	I	1	0	1182	1	Ⴇ	cut_a_stereo_44KHz.wav
1	110	4	3	2	I	2	0	809	0	Ⴡ	cut_a_stereo_44KHz.wav
1	111	2	1	0	C	2	1	958	1	Ⴃ	cut_u_stereo_44KHz.wav
1	112	1	1	1	C	1	1	800	1	Ⴂ	cut_u_stereo_44KHz.wav
1	113	4	3	2	I	1	0	1255	1	Ⴡ	cut_a_stereo_44KHz.wav
1	114	2	1	0	C	2	1	954	1	Ⴃ	cut_u_stereo_44KHz.wav
1	115	3	4	2	I	1	0	1031	0	Ⴇ	cut_k_stereo_44KHz.wav
1	116	1	2	0	C	2	1	645	1	Ⴂ	cut_o_stereo_44KHz.wav
1	117	4	4	2	I	2	0	1009	0	Ⴡ	cut_k_stereo_44KHz.wav
1	118	3	3	2	I	2	0	747	1	Ⴇ	cut_a_stereo_44KHz.wav
1	119	1	1	1	C	1	1	765	1	Ⴂ	cut_u_stereo_44KHz.wav
1	120	2	2	1	C	1	1	628	1	Ⴃ	cut_o_stereo_44KHz.wav
1	121	1	1	1	C	1	1	747	1	Ⴂ	cut_u_stereo_44KHz.wav
1	122	3	3	2	I	2	0	1017	0	Ⴇ	cut_a_stereo_44KHz.wav
1	123	4	4	2	I	2	0	979	0	Ⴡ	cut_k_stereo_44KHz.wav
1	124	2	2	1	C	1	1	681	1	Ⴃ	cut_o_stereo_44KHz.wav
1	125	3	4	2	I	1	0	715	1	Ⴇ	cut_k_stereo_44KHz.wav
1	126	1	2	0	C	2	1	687	1	Ⴂ	cut_o_stereo_44KHz.wav
1	127	4	3	2	I	2	0	703	0	Ⴡ	cut_a_stereo_44KHz.wav
1	128	2	1	0	C	1	0	711	0	Ⴃ	cut_u_stereo_44KHz.wav
1	129	4	4	2	I	2	0	682	0	Ⴡ	cut_k_stereo_44KHz.wav
1	130	3	4	2	I	2	0	865	1	Ⴇ	cut_k_stereo_44KHz.wav
1	131	1	2	0	C	2	1	716	1	Ⴂ	cut_o_stereo_44KHz.wav
1	132	2	2	1	C	1	1	863	1	Ⴃ	cut_o_stereo_44KHz.wav
1	133	3	3	2	I	2	0	752	1	Ⴇ	cut_a_stereo_44KHz.wav
1	134	1	1	1	C	1	1	827	1	Ⴂ	cut_u_stereo_44KHz.wav
1	135	2	1	0	C	1	0	748	0	Ⴃ	cut_u_stereo_44KHz.wav
1	136	4	3	2	I	1	0	908	1	Ⴡ	cut_a_stereo_44KHz.wav
1	137	2	1	0	C	2	1	1018	1	Ⴃ	cut_u_stereo_44KHz.wav
1	138	1	1	1	C	1	1	753	1	Ⴂ	cut_u_stereo_44KHz.wav
1	139	3	4	2	I	1	0	977	0	Ⴇ	cut_k_stereo_44KHz.wav
1	140	4	3	2	I	1	0	864	0	Ⴡ	cut_a_stereo_44KHz.wav
1	141	2	2	1	C	1	1	1024	1	Ⴃ	cut_o_stereo_44KHz.wav
1	142	1	2	0	C	2	1	658	1	Ⴂ	cut_o_stereo_44KHz.wav
1	143	4	4	2	I	2	0	650	1	Ⴡ	cut_k_stereo_44KHz.wav
1	144	3	3	2	I	2	0	464	0	Ⴇ	cut_a_stereo_44KHz.wav
1	145	1	2	0	C	2	1	621	1	Ⴂ	cut_o_stereo_44KHz.wav
1	146	3	3	2	I	1	0	677	1	Ⴇ	cut_a_stereo_44KHz.wav
1	147	2	2	1	C	1	1	725	1	Ⴃ	cut_o_stereo_44KHz.wav
1	148	4	3	2	I	2	0	1340	1	Ⴡ	cut_a_stereo_44KHz.wav
1	149	3	4	2	I	1	0	777	1	Ⴇ	cut_k_stereo_44KHz.wav
1	150	4	4	2	I	2	0	820	0	Ⴡ	cut_k_stereo_44KHz.wav
1	151	2	1	0	C	2	1	995	1	Ⴃ	cut_u_stereo_44KHz.wav
1	152	1	1	1	C	1	1	669	1	Ⴂ	cut_u_stereo_44KHz.wav
1	153	4	3	2	I	2	0	641	0	Ⴡ	cut_a_stereo_44KHz.wav
1	154	2	1	0	C	2	1	805	1	Ⴃ	cut_u_stereo_44KHz.wav
1	155	3	3	2	I	1	0	595	1	Ⴇ	cut_a_stereo_44KHz.wav
1	156	1	1	1	C	1	1	743	1	Ⴂ	cut_u_stereo_44KHz.wav
1	157	4	4	2	I	2	0	925	0	Ⴡ	cut_k_stereo_44KHz.wav
1	158	3	4	2	I	2	0	653	1	Ⴇ	cut_k_stereo_44KHz.wav
1	159	1	2	0	C	2	1	582	1	Ⴂ	cut_o_stereo_44KHz.wav
1	160	2	2	1	C	1	1	598	1	Ⴃ	cut_o_stereo_44KHz.wav
1	161	3	4	2	I	1	0	975	1	Ⴇ	cut_k_stereo_44KHz.wav
1	162	2	2	1	C	1	1	788	1	Ⴃ	cut_o_stereo_44KHz.wav
1	163	4	3	2	I	2	0	693	1	Ⴡ	cut_a_stereo_44KHz.wav
1	164	1	1	1	C	1	1	779	1	Ⴂ	cut_u_stereo_44KHz.wav
1	165	4	4	2	I	1	0	835	0	Ⴡ	cut_k_stereo_44KHz.wav
1	166	2	1	0	C	1	0	570	0	Ⴃ	cut_u_stereo_44KHz.wav
1	167	1	2	0	C	2	1	692	1	Ⴂ	cut_o_stereo_44KHz.wav
1	168	3	3	2	I	1	0	733	1	Ⴇ	cut_a_stereo_44KHz.wav
1	169	2	1	0	C	2	1	765	1	Ⴃ	cut_u_stereo_44KHz.wav
1	170	3	4	2	I	2	0	526	0	Ⴇ	cut_k_stereo_44KHz.wav
1	171	1	2	0	C	2	1	513	1	Ⴂ	cut_o_stereo_44KHz.wav
1	172	4	4	2	I	1	0	581	1	Ⴡ	cut_k_stereo_44KHz.wav
1	173	1	1	1	C	1	1	828	1	Ⴂ	cut_u_stereo_44KHz.wav
1	174	4	3	2	I	2	0	575	0	Ⴡ	cut_a_stereo_44KHz.wav
1	175	2	2	1	C	2	0	1109	0	Ⴃ	cut_o_stereo_44KHz.wav
1	176	3	3	2	I	1	0	603	1	Ⴇ	cut_a_stereo_44KHz.wav
1	177	2	1	0	C	2	1	835	1	Ⴃ	cut_u_stereo_44KHz.wav
1	178	1	2	0	C	2	1	540	1	Ⴂ	cut_o_stereo_44KHz.wav
1	179	4	4	2	I	2	0	599	1	Ⴡ	cut_k_stereo_44KHz.wav
1	180	3	4	2	I	2	0	745	1	Ⴇ	cut_k_stereo_44KHz.wav
1	181	2	2	1	C	1	1	919	1	Ⴃ	cut_o_stereo_44KHz.wav
1	182	3	3	2	I	2	0	584	0	Ⴇ	cut_a_stereo_44KHz.wav
1	183	1	1	1	C	2	0	469	0	Ⴂ	cut_u_stereo_44KHz.wav
1	184	4	3	2	I	2	0	661	1	Ⴡ	cut_a_stereo_44KHz.wav
1	185	3	4	2	I	2	0	673	0	Ⴇ	cut_k_stereo_44KHz.wav
1	186	1	1	1	C	1	1	810	1	Ⴂ	cut_u_stereo_44KHz.wav
1	187	4	3	2	I	2	0	608	1	Ⴡ	cut_a_stereo_44KHz.wav
1	188	2	1	0	C	2	1	857	1	Ⴃ	cut_u_stereo_44KHz.wav
1	189	3	3	2	I	2	0	1117	1	Ⴇ	cut_a_stereo_44KHz.wav
1	190	2	2	1	C	1	1	884	1	Ⴃ	cut_o_stereo_44KHz.wav
1	191	1	2	0	C	2	1	594	1	Ⴂ	cut_o_stereo_44KHz.wav
1	192	4	4	2	I	1	0	786	1	Ⴡ	cut_k_stereo_44KHz.wav
1	193	3	4	2	I	1	0	1035	0	Ⴇ	cut_k_stereo_44KHz.wav
1	194	1	1	1	C	1	1	767	1	Ⴂ	cut_u_stereo_44KHz.wav
1	195	2	1	0	C	2	1	889	1	Ⴃ	cut_u_stereo_44KHz.wav
1	196	4	3	2	I	2	0	710	0	Ⴡ	cut_a_stereo_44KHz.wav
1	197	2	2	1	C	1	1	830	1	Ⴃ	cut_o_stereo_44KHz.wav
1	198	1	2	0	C	2	1	636	1	Ⴂ	cut_o_stereo_44KHz.wav
1	199	4	4	2	I	2	0	849	1	Ⴡ	cut_k_stereo_44KHz.wav
1	200	3	3	2	I	2	0	649	0	Ⴇ	cut_a_stereo_44KHz.wav
2	1	4	3	2	I	0	0	0	0	Ⴐ	cut_r_stereo_44KHz.wav
2	2	3	3	2	I	2	0	581	1	Ⴔ	cut_r_stereo_44KHz.wav
2	3	2	1	0	C	2	1	857	1	Ⴖ	cut_j_stereo_44KHz.wav
2	4	1	2	0	C	2	1	818	1	Ⴉ	cut_ei_stereo_44KHz.wav
2	5	4	4	2	I	2	0	710	0	Ⴐ	cut_f_stereo_44KHz.wav
2	6	3	4	2	I	1	0	787	0	Ⴔ	cut_f_stereo_44KHz.wav
2	7	2	2	1	C	2	0	714	0	Ⴖ	cut_ei_stereo_44KHz.wav
2	8	1	1	1	C	2	0	746	0	Ⴉ	cut_j_stereo_44KHz.wav
2	9	3	4	2	I	2	0	643	0	Ⴔ	cut_f_stereo_44KHz.wav
2	10	2	1	0	C	2	1	808	1	Ⴖ	cut_j_stereo_44KHz.wav
2	11	1	1	1	C	1	1	754	1	Ⴉ	cut_j_stereo_44KHz.wav
2	12	4	4	2	I	1	0	943	1	Ⴐ	cut_f_stereo_44KHz.wav
2	13	1	2	0	C	2	1	705	1	Ⴉ	cut_ei_stereo_44KHz.wav
2	14	4	3	2	I	2	0	723	1	Ⴐ	cut_r_stereo_44KHz.wav
2	15	3	3	2	I	2	0	508	1	Ⴔ	cut_r_stereo_44KHz.wav
2	16	2	2	1	C	2	0	593	0	Ⴖ	cut_ei_stereo_44KHz.wav
2	17	4	3	2	I	2	0	597	1	Ⴐ	cut_r_stereo_44KHz.wav
2	18	1	2	0	C	2	1	610	1	Ⴉ	cut_ei_stereo_44KHz.wav
2	19	2	1	0	C	2	1	563	1	Ⴖ	cut_j_stereo_44KHz.wav
2	20	3	4	2	I	2	0	1037	1	Ⴔ	cut_f_stereo_44KHz.wav
2	21	2	2	1	C	2	0	518	0	Ⴖ	cut_ei_stereo_44KHz.wav
2	22	3	3	2	I	2	0	547	0	Ⴔ	cut_r_stereo_44KHz.wav
2	23	4	4	2	I	1	0	980	1	Ⴐ	cut_f_stereo_44KHz.wav
2	24	1	1	1	C	1	1	763	1	Ⴉ	cut_j_stereo_44KHz.wav
2	25	3	3	2	I	2	0	591	0	Ⴔ	cut_r_stereo_44KHz.wav
2	26	4	3	2	I	2	0	653	0	Ⴐ	cut_r_stereo_44KHz.wav
2	27	2	2	1	C	2	0	546	0	Ⴖ	cut_ei_stereo_44KHz.wav
2	28	1	2	0	C	2	1	544	1	Ⴉ	cut_ei_stereo_44KHz.wav
2	29	4	4	2	I	1	0	990	1	Ⴐ	cut_f_stereo_44KHz.wav
2	30	3	4	2	I	1	0	874	1	Ⴔ	cut_f_stereo_44KHz.wav
2	31	1	1	1	C	1	1	813	1	Ⴉ	cut_j_stereo_44KHz.wav
2	32	2	1	0	C	2	1	690	1	Ⴖ	cut_j_stereo_44KHz.wav
2	33	4	3	2	I	2	0	668	1	Ⴐ	cut_r_stereo_44KHz.wav
2	34	2	1	0	C	2	1	666	1	Ⴖ	cut_j_stereo_44KHz.wav
2	35	3	4	2	I	1	0	954	1	Ⴔ	cut_f_stereo_44KHz.wav
2	36	1	2	0	C	2	1	541	1	Ⴉ	cut_ei_stereo_44KHz.wav
2	37	3	3	2	I	2	0	670	0	Ⴔ	cut_r_stereo_44KHz.wav
2	38	1	1	1	C	1	1	779	1	Ⴉ	cut_j_stereo_44KHz.wav
2	39	4	4	2	I	1	0	867	1	Ⴐ	cut_f_stereo_44KHz.wav
2	40	2	2	1	C	1	1	702	1	Ⴖ	cut_ei_stereo_44KHz.wav
2	41	1	2	0	C	2	1	561	1	Ⴉ	cut_ei_stereo_44KHz.wav
2	42	3	3	2	I	1	0	703	1	Ⴔ	cut_r_stereo_44KHz.wav
2	43	2	1	0	C	2	1	545	1	Ⴖ	cut_j_stereo_44KHz.wav
2	44	4	4	2	I	1	0	557	1	Ⴐ	cut_f_stereo_44KHz.wav
2	45	2	2	1	C	1	1	718	1	Ⴖ	cut_ei_stereo_44KHz.wav
2	46	4	3	2	I	2	0	887	1	Ⴐ	cut_r_stereo_44KHz.wav
2	47	3	4	2	I	2	0	881	0	Ⴔ	cut_f_stereo_44KHz.wav
2	48	1	1	1	C	1	1	702	1	Ⴉ	cut_j_stereo_44KHz.wav
2	49	2	2	1	C	1	1	702	1	Ⴖ	cut_ei_stereo_44KHz.wav
2	50	1	1	1	C	1	1	699	1	Ⴉ	cut_j_stereo_44KHz.wav
2	51	4	3	2	I	2	0	703	0	Ⴐ	cut_r_stereo_44KHz.wav
2	52	3	3	2	I	2	0	589	1	Ⴔ	cut_r_stereo_44KHz.wav
2	53	1	2	0	C	1	0	745	0	Ⴉ	cut_ei_stereo_44KHz.wav
2	54	2	1	0	C	2	1	537	1	Ⴖ	cut_j_stereo_44KHz.wav
2	55	3	4	2	I	2	0	763	1	Ⴔ	cut_f_stereo_44KHz.wav
2	56	4	4	2	I	2	0	681	0	Ⴐ	cut_f_stereo_44KHz.wav
2	57	1	1	1	C	1	1	777	1	Ⴉ	cut_j_stereo_44KHz.wav
2	58	2	2	1	C	1	1	762	1	Ⴖ	cut_ei_stereo_44KHz.wav
2	59	3	4	2	I	2	0	616	1	Ⴔ	cut_f_stereo_44KHz.wav
2	60	4	4	2	I	1	0	979	1	Ⴐ	cut_f_stereo_44KHz.wav
2	61	2	1	0	C	2	1	611	1	Ⴖ	cut_j_stereo_44KHz.wav
2	62	4	3	2	I	2	0	645	1	Ⴐ	cut_r_stereo_44KHz.wav
2	63	3	3	2	I	1	0	726	0	Ⴔ	cut_r_stereo_44KHz.wav
2	64	1	2	0	C	2	1	905	1	Ⴉ	cut_ei_stereo_44KHz.wav
2	65	3	4	2	I	2	0	809	0	Ⴔ	cut_f_stereo_44KHz.wav
2	66	1	2	0	C	2	1	635	1	Ⴉ	cut_ei_stereo_44KHz.wav
2	67	2	2	1	C	1	1	959	1	Ⴖ	cut_ei_stereo_44KHz.wav
2	68	4	4	2	I	2	0	751	0	Ⴐ	cut_f_stereo_44KHz.wav
2	69	1	1	1	C	1	1	955	1	Ⴉ	cut_j_stereo_44KHz.wav
2	70	4	3	2	I	2	0	662	0	Ⴐ	cut_r_stereo_44KHz.wav
2	71	2	1	0	C	2	1	492	1	Ⴖ	cut_j_stereo_44KHz.wav
2	72	3	3	2	I	2	0	737	1	Ⴔ	cut_r_stereo_44KHz.wav
2	73	4	4	2	I	1	0	677	1	Ⴐ	cut_f_stereo_44KHz.wav
2	74	3	3	2	I	2	0	619	0	Ⴔ	cut_r_stereo_44KHz.wav
2	75	1	2	0	C	2	1	729	1	Ⴉ	cut_ei_stereo_44KHz.wav
2	76	2	1	0	C	2	1	586	1	Ⴖ	cut_j_stereo_44KHz.wav
2	77	1	1	1	C	1	1	754	1	Ⴉ	cut_j_stereo_44KHz.wav
2	78	2	2	1	C	1	1	1078	1	Ⴖ	cut_ei_stereo_44KHz.wav
2	79	3	4	2	I	2	0	671	0	Ⴔ	cut_f_stereo_44KHz.wav
2	80	4	3	2	I	2	0	876	0	Ⴐ	cut_r_stereo_44KHz.wav
2	81	1	2	0	C	2	1	638	1	Ⴉ	cut_ei_stereo_44KHz.wav
2	82	3	3	2	I	2	0	624	1	Ⴔ	cut_r_stereo_44KHz.wav
2	83	2	2	1	C	2	0	602	0	Ⴖ	cut_ei_stereo_44KHz.wav
2	84	4	4	2	I	2	0	714	0	Ⴐ	cut_f_stereo_44KHz.wav
2	85	3	4	2	I	2	0	581	1	Ⴔ	cut_f_stereo_44KHz.wav
2	86	4	3	2	I	2	0	732	0	Ⴐ	cut_r_stereo_44KHz.wav
2	87	1	1	1	C	1	1	775	1	Ⴉ	cut_j_stereo_44KHz.wav
2	88	2	1	0	C	2	1	633	1	Ⴖ	cut_j_stereo_44KHz.wav
2	89	4	3	2	I	2	0	724	0	Ⴐ	cut_r_stereo_44KHz.wav
2	90	3	3	2	I	2	0	652	1	Ⴔ	cut_r_stereo_44KHz.wav
2	91	1	1	1	C	1	1	704	1	Ⴉ	cut_j_stereo_44KHz.wav
2	92	2	1	0	C	2	1	511	1	Ⴖ	cut_j_stereo_44KHz.wav
2	93	3	4	2	I	2	0	682	0	Ⴔ	cut_f_stereo_44KHz.wav
2	94	2	2	1	C	1	1	709	1	Ⴖ	cut_ei_stereo_44KHz.wav
2	95	1	2	0	C	2	1	674	1	Ⴉ	cut_ei_stereo_44KHz.wav
2	96	4	4	2	I	2	0	767	1	Ⴐ	cut_f_stereo_44KHz.wav
2	97	2	1	0	C	2	1	596	1	Ⴖ	cut_j_stereo_44KHz.wav
2	98	1	2	0	C	2	1	574	1	Ⴉ	cut_ei_stereo_44KHz.wav
2	99	3	4	2	I	2	0	668	0	Ⴔ	cut_f_stereo_44KHz.wav
2	100	4	3	2	I	2	0	743	0	Ⴐ	cut_r_stereo_44KHz.wav
2	101	1	1	1	C	1	1	723	1	Ⴉ	cut_j_stereo_44KHz.wav
2	102	2	2	1	C	1	1	735	1	Ⴖ	cut_ei_stereo_44KHz.wav
2	103	4	4	2	I	2	0	690	0	Ⴐ	cut_f_stereo_44KHz.wav
2	104	3	3	2	I	2	0	856	1	Ⴔ	cut_r_stereo_44KHz.wav
2	105	1	2	0	C	2	1	647	1	Ⴉ	cut_ei_stereo_44KHz.wav
2	106	4	4	2	I	2	0	659	0	Ⴐ	cut_f_stereo_44KHz.wav
2	107	3	4	2	I	2	0	617	1	Ⴔ	cut_f_stereo_44KHz.wav
2	108	2	2	1	C	1	1	869	1	Ⴖ	cut_ei_stereo_44KHz.wav
2	109	1	1	1	C	1	1	652	1	Ⴉ	cut_j_stereo_44KHz.wav
2	110	3	3	2	I	2	0	712	1	Ⴔ	cut_r_stereo_44KHz.wav
2	111	4	3	2	I	1	0	647	1	Ⴐ	cut_r_stereo_44KHz.wav
2	112	2	1	0	C	2	1	586	1	Ⴖ	cut_j_stereo_44KHz.wav
2	113	3	4	2	I	2	0	785	0	Ⴔ	cut_f_stereo_44KHz.wav
2	114	1	2	0	C	2	1	532	1	Ⴉ	cut_ei_stereo_44KHz.wav
2	115	2	1	0	C	2	1	445	1	Ⴖ	cut_j_stereo_44KHz.wav
2	116	4	3	2	I	1	0	701	1	Ⴐ	cut_r_stereo_44KHz.wav
2	117	1	1	1	C	1	1	834	1	Ⴉ	cut_j_stereo_44KHz.wav
2	118	3	3	2	I	2	0	589	1	Ⴔ	cut_r_stereo_44KHz.wav
2	119	4	4	2	I	1	0	746	1	Ⴐ	cut_f_stereo_44KHz.wav
2	120	2	2	1	C	1	1	1014	1	Ⴖ	cut_ei_stereo_44KHz.wav
2	121	4	4	2	I	2	0	596	0	Ⴐ	cut_f_stereo_44KHz.wav
2	122	2	1	0	C	2	1	728	1	Ⴖ	cut_j_stereo_44KHz.wav
2	123	3	4	2	I	2	0	623	0	Ⴔ	cut_f_stereo_44KHz.wav
2	124	1	2	0	C	2	1	652	1	Ⴉ	cut_ei_stereo_44KHz.wav
2	125	3	3	2	I	1	0	625	1	Ⴔ	cut_r_stereo_44KHz.wav
2	126	4	3	2	I	2	0	389	0	Ⴐ	cut_r_stereo_44KHz.wav
2	127	2	2	1	C	1	1	328	1	Ⴖ	cut_ei_stereo_44KHz.wav
2	128	1	1	1	C	1	1	857	1	Ⴉ	cut_j_stereo_44KHz.wav
2	129	3	3	2	I	2	0	932	0	Ⴔ	cut_r_stereo_44KHz.wav
2	130	1	1	1	C	1	1	690	1	Ⴉ	cut_j_stereo_44KHz.wav
2	131	2	2	1	C	1	1	715	1	Ⴖ	cut_ei_stereo_44KHz.wav
2	132	4	3	2	I	1	0	712	0	Ⴐ	cut_r_stereo_44KHz.wav
2	133	1	2	0	C	2	1	774	1	Ⴉ	cut_ei_stereo_44KHz.wav
2	134	4	4	2	I	2	0	664	1	Ⴐ	cut_f_stereo_44KHz.wav
2	135	2	1	0	C	2	1	721	1	Ⴖ	cut_j_stereo_44KHz.wav
2	136	3	4	2	I	2	0	616	0	Ⴔ	cut_f_stereo_44KHz.wav
2	137	1	1	1	C	2	0	515	0	Ⴉ	cut_j_stereo_44KHz.wav
2	138	2	2	1	C	1	1	732	1	Ⴖ	cut_ei_stereo_44KHz.wav
2	139	3	4	2	I	2	0	611	1	Ⴔ	cut_f_stereo_44KHz.wav
2	140	4	4	2	I	2	0	676	0	Ⴐ	cut_f_stereo_44KHz.wav
2	141	3	3	2	I	2	0	686	1	Ⴔ	cut_r_stereo_44KHz.wav
2	142	4	3	2	I	1	0	593	1	Ⴐ	cut_r_stereo_44KHz.wav
2	143	2	1	0	C	2	1	621	1	Ⴖ	cut_j_stereo_44KHz.wav
2	144	1	2	0	C	2	1	651	1	Ⴉ	cut_ei_stereo_44KHz.wav
2	145	3	4	2	I	2	0	599	0	Ⴔ	cut_f_stereo_44KHz.wav
2	146	1	2	0	C	2	1	567	1	Ⴉ	cut_ei_stereo_44KHz.wav
2	147	4	4	2	I	1	0	594	1	Ⴐ	cut_f_stereo_44KHz.wav
2	148	2	2	1	C	1	1	882	1	Ⴖ	cut_ei_stereo_44KHz.wav
2	149	3	3	2	I	2	0	629	0	Ⴔ	cut_r_stereo_44KHz.wav
2	150	2	1	0	C	2	1	545	1	Ⴖ	cut_j_stereo_44KHz.wav
2	151	4	3	2	I	1	0	582	1	Ⴐ	cut_r_stereo_44KHz.wav
2	152	1	1	1	C	1	1	925	1	Ⴉ	cut_j_stereo_44KHz.wav
2	153	4	3	2	I	1	0	1392	0	Ⴐ	cut_r_stereo_44KHz.wav
2	154	1	1	1	C	1	1	824	1	Ⴉ	cut_j_stereo_44KHz.wav
2	155	3	4	2	I	2	0	746	1	Ⴔ	cut_f_stereo_44KHz.wav
2	156	2	1	0	C	2	1	761	1	Ⴖ	cut_j_stereo_44KHz.wav
2	157	3	3	2	I	1	0	907	0	Ⴔ	cut_r_stereo_44KHz.wav
2	158	4	4	2	I	2	0	973	0	Ⴐ	cut_f_stereo_44KHz.wav
2	159	2	2	1	C	1	1	895	1	Ⴖ	cut_ei_stereo_44KHz.wav
2	160	1	2	0	C	2	1	666	1	Ⴉ	cut_ei_stereo_44KHz.wav
2	161	4	3	2	I	2	0	718	0	Ⴐ	cut_r_stereo_44KHz.wav
2	162	1	2	0	C	2	1	497	1	Ⴉ	cut_ei_stereo_44KHz.wav
2	163	3	4	2	I	2	0	924	0	Ⴔ	cut_f_stereo_44KHz.wav
2	164	2	2	1	C	1	1	957	1	Ⴖ	cut_ei_stereo_44KHz.wav
2	165	3	3	2	I	2	0	613	1	Ⴔ	cut_r_stereo_44KHz.wav
2	166	2	1	0	C	2	1	735	1	Ⴖ	cut_j_stereo_44KHz.wav
2	167	4	4	2	I	1	0	593	0	Ⴐ	cut_f_stereo_44KHz.wav
2	168	1	1	1	C	1	1	822	1	Ⴉ	cut_j_stereo_44KHz.wav
2	169	4	3	2	I	2	0	693	1	Ⴐ	cut_r_stereo_44KHz.wav
2	170	2	2	1	C	1	1	746	1	Ⴖ	cut_ei_stereo_44KHz.wav
2	171	1	1	1	C	1	1	800	1	Ⴉ	cut_j_stereo_44KHz.wav
2	172	3	3	2	I	2	0	651	0	Ⴔ	cut_r_stereo_44KHz.wav
2	173	4	4	2	I	1	0	567	1	Ⴐ	cut_f_stereo_44KHz.wav
2	174	3	4	2	I	1	0	617	0	Ⴔ	cut_f_stereo_44KHz.wav
2	175	2	1	0	C	2	1	688	1	Ⴖ	cut_j_stereo_44KHz.wav
2	176	1	2	0	C	2	1	602	1	Ⴉ	cut_ei_stereo_44KHz.wav
2	177	4	3	2	I	2	0	579	0	Ⴐ	cut_r_stereo_44KHz.wav
2	178	2	1	0	C	2	1	613	1	Ⴖ	cut_j_stereo_44KHz.wav
2	179	3	4	2	I	2	0	651	0	Ⴔ	cut_f_stereo_44KHz.wav
2	180	1	2	0	C	2	1	629	1	Ⴉ	cut_ei_stereo_44KHz.wav
2	181	2	2	1	C	2	0	551	0	Ⴖ	cut_ei_stereo_44KHz.wav
2	182	4	4	2	I	2	0	807	0	Ⴐ	cut_f_stereo_44KHz.wav
2	183	1	1	1	C	1	1	754	1	Ⴉ	cut_j_stereo_44KHz.wav
2	184	3	3	2	I	1	0	787	1	Ⴔ	cut_r_stereo_44KHz.wav
2	185	2	2	1	C	1	1	903	1	Ⴖ	cut_ei_stereo_44KHz.wav
2	186	4	4	2	I	1	0	725	1	Ⴐ	cut_f_stereo_44KHz.wav
2	187	3	4	2	I	2	0	530	0	Ⴔ	cut_f_stereo_44KHz.wav
2	188	1	2	0	C	2	1	757	1	Ⴉ	cut_ei_stereo_44KHz.wav
2	189	4	3	2	I	2	0	657	0	Ⴐ	cut_r_stereo_44KHz.wav
2	190	3	3	2	I	2	0	361	1	Ⴔ	cut_r_stereo_44KHz.wav
2	191	1	1	1	C	1	1	766	1	Ⴉ	cut_j_stereo_44KHz.wav
2	192	2	1	0	C	1	0	717	0	Ⴖ	cut_j_stereo_44KHz.wav
2	193	4	3	2	I	2	0	713	1	Ⴐ	cut_r_stereo_44KHz.wav
2	194	1	2	0	C	2	1	676	1	Ⴉ	cut_ei_stereo_44KHz.wav
2	195	3	3	2	I	2	0	554	1	Ⴔ	cut_r_stereo_44KHz.wav
2	196	2	2	1	C	1	1	860	1	Ⴖ	cut_ei_stereo_44KHz.wav
2	197	3	4	2	I	2	0	567	0	Ⴔ	cut_f_stereo_44KHz.wav
2	198	4	4	2	I	2	0	649	0	Ⴐ	cut_f_stereo_44KHz.wav
2	199	2	1	0	C	2	1	648	1	Ⴖ	cut_j_stereo_44KHz.wav
2	200	1	1	1	C	1	1	743	1	Ⴉ	cut_j_stereo_44KHz.wav
3	1	3	3	2	I	2	0	816	1	Ⴏ	cut_g_stereo_44KHz.wav
3	2	4	4	2	I	2	0	870	0	Ⴌ	cut_h_stereo_44KHz.wav
3	3	1	2	0	C	2	1	669	1	Ⴒ	cut_l_stereo_44KHz.wav
3	4	2	2	1	C	1	1	743	1	Ⴕ	cut_l_stereo_44KHz.wav
3	5	4	3	2	I	1	0	593	0	Ⴌ	cut_g_stereo_44KHz.wav
3	6	2	1	0	C	1	0	964	0	Ⴕ	cut_w_stereo_44KHz.wav
3	7	1	1	1	C	2	0	842	0	Ⴒ	cut_w_stereo_44KHz.wav
3	8	3	4	2	I	2	0	1091	0	Ⴏ	cut_h_stereo_44KHz.wav
3	9	1	1	1	C	2	0	940	0	Ⴒ	cut_w_stereo_44KHz.wav
3	10	2	2	1	C	1	1	1026	1	Ⴕ	cut_l_stereo_44KHz.wav
3	11	4	4	2	I	1	0	1441	1	Ⴌ	cut_h_stereo_44KHz.wav
3	12	3	3	2	I	2	0	964	0	Ⴏ	cut_g_stereo_44KHz.wav
3	13	4	3	2	I	1	0	668	1	Ⴌ	cut_g_stereo_44KHz.wav
3	14	3	4	2	I	1	0	1048	1	Ⴏ	cut_h_stereo_44KHz.wav
3	15	1	2	0	C	2	1	785	1	Ⴒ	cut_l_stereo_44KHz.wav
3	16	2	1	0	C	1	0	696	0	Ⴕ	cut_w_stereo_44KHz.wav
3	17	3	3	2	I	2	0	880	1	Ⴏ	cut_g_stereo_44KHz.wav
3	18	2	1	0	C	1	0	744	0	Ⴕ	cut_w_stereo_44KHz.wav
3	19	1	2	0	C	2	1	620	1	Ⴒ	cut_l_stereo_44KHz.wav
3	20	4	3	2	I	2	0	1179	1	Ⴌ	cut_g_stereo_44KHz.wav
3	21	3	4	2	I	1	0	797	1	Ⴏ	cut_h_stereo_44KHz.wav
3	22	2	2	1	C	1	1	1389	1	Ⴕ	cut_l_stereo_44KHz.wav
3	23	4	4	2	I	1	0	731	0	Ⴌ	cut_h_stereo_44KHz.wav
3	24	1	1	1	C	1	1	1182	1	Ⴒ	cut_w_stereo_44KHz.wav
3	25	3	4	2	I	1	0	788	0	Ⴏ	cut_h_stereo_44KHz.wav
3	26	4	3	2	I	2	0	982	1	Ⴌ	cut_g_stereo_44KHz.wav
3	27	1	2	0	C	2	1	809	1	Ⴒ	cut_l_stereo_44KHz.wav
3	28	2	2	1	C	1	1	1225	1	Ⴕ	cut_l_stereo_44KHz.wav
3	29	3	3	2	I	2	0	787	1	Ⴏ	cut_g_stereo_44KHz.wav
3	30	4	4	2	I	1	0	837	0	Ⴌ	cut_h_stereo_44KHz.wav
3	31	1	1	1	C	2	0	822	0	Ⴒ	cut_w_stereo_44KHz.wav
3	32	2	1	0	C	2	1	850	1	Ⴕ	cut_w_stereo_44KHz.wav
3	33	3	4	2	I	1	0	956	0	Ⴏ	cut_h_stereo_44KHz.wav
3	34	1	1	1	C	1	1	1156	1	Ⴒ	cut_w_stereo_44KHz.wav
3	35	4	4	2	I	2	0	831	1	Ⴌ	cut_h_stereo_44KHz.wav
3	36	2	2	1	C	1	1	969	1	Ⴕ	cut_l_stereo_44KHz.wav
3	37	3	3	2	I	2	0	758	1	Ⴏ	cut_g_stereo_44KHz.wav
3	38	1	2	0	C	2	1	913	1	Ⴒ	cut_l_stereo_44KHz.wav
3	39	4	3	2	I	2	0	1158	0	Ⴌ	cut_g_stereo_44KHz.wav
3	40	2	1	0	C	2	1	987	1	Ⴕ	cut_w_stereo_44KHz.wav
3	41	1	1	1	C	1	1	906	1	Ⴒ	cut_w_stereo_44KHz.wav
3	42	4	3	2	I	2	0	690	1	Ⴌ	cut_g_stereo_44KHz.wav
3	43	3	4	2	I	2	0	756	0	Ⴏ	cut_h_stereo_44KHz.wav
3	44	2	1	0	C	2	1	810	1	Ⴕ	cut_w_stereo_44KHz.wav
3	45	4	4	2	I	2	0	575	1	Ⴌ	cut_h_stereo_44KHz.wav
3	46	1	2	0	C	2	1	758	1	Ⴒ	cut_l_stereo_44KHz.wav
3	47	2	2	1	C	1	1	746	1	Ⴕ	cut_l_stereo_44KHz.wav
3	48	3	3	2	I	2	0	597	1	Ⴏ	cut_g_stereo_44KHz.wav
3	49	4	4	2	I	2	0	417	1	Ⴌ	cut_h_stereo_44KHz.wav
3	50	3	4	2	I	1	0	642	1	Ⴏ	cut_h_stereo_44KHz.wav
3	51	1	2	0	C	2	1	451	1	Ⴒ	cut_l_stereo_44KHz.wav
3	52	2	2	1	C	1	1	551	1	Ⴕ	cut_l_stereo_44KHz.wav
3	53	1	1	1	C	1	1	706	1	Ⴒ	cut_w_stereo_44KHz.wav
3	54	4	3	2	I	2	0	597	1	Ⴌ	cut_g_stereo_44KHz.wav
3	55	2	1	0	C	1	0	588	0	Ⴕ	cut_w_stereo_44KHz.wav
3	56	3	3	2	I	2	0	590	0	Ⴏ	cut_g_stereo_44KHz.wav
3	57	4	4	2	I	2	0	602	1	Ⴌ	cut_h_stereo_44KHz.wav
3	58	1	2	0	C	2	1	800	1	Ⴒ	cut_l_stereo_44KHz.wav
3	59	2	2	1	C	1	1	721	1	Ⴕ	cut_l_stereo_44KHz.wav
3	60	3	4	2	I	2	0	570	1	Ⴏ	cut_h_stereo_44KHz.wav
3	61	2	1	0	C	2	1	774	1	Ⴕ	cut_w_stereo_44KHz.wav
3	62	4	3	2	I	2	0	669	1	Ⴌ	cut_g_stereo_44KHz.wav
3	63	1	1	1	C	1	1	1410	1	Ⴒ	cut_w_stereo_44KHz.wav
3	64	3	3	2	I	2	0	746	1	Ⴏ	cut_g_stereo_44KHz.wav
3	65	2	1	0	C	2	1	874	1	Ⴕ	cut_w_stereo_44KHz.wav
3	66	1	2	0	C	2	1	564	1	Ⴒ	cut_l_stereo_44KHz.wav
3	67	4	4	2	I	2	0	548	1	Ⴌ	cut_h_stereo_44KHz.wav
3	68	3	3	2	I	2	0	634	0	Ⴏ	cut_g_stereo_44KHz.wav
3	69	4	3	2	I	1	0	521	1	Ⴌ	cut_g_stereo_44KHz.wav
3	70	3	4	2	I	2	0	536	1	Ⴏ	cut_h_stereo_44KHz.wav
3	71	1	1	1	C	1	1	949	1	Ⴒ	cut_w_stereo_44KHz.wav
3	72	2	2	1	C	1	1	857	1	Ⴕ	cut_l_stereo_44KHz.wav
3	73	4	3	2	I	2	0	704	1	Ⴌ	cut_g_stereo_44KHz.wav
3	74	2	1	0	C	2	1	788	1	Ⴕ	cut_w_stereo_44KHz.wav
3	75	3	3	2	I	2	0	771	1	Ⴏ	cut_g_stereo_44KHz.wav
3	76	1	2	0	C	2	1	775	1	Ⴒ	cut_l_stereo_44KHz.wav
3	77	2	2	1	C	1	1	848	1	Ⴕ	cut_l_stereo_44KHz.wav
3	78	1	1	1	C	1	1	908	1	Ⴒ	cut_w_stereo_44KHz.wav
3	79	4	4	2	I	2	0	814	1	Ⴌ	cut_h_stereo_44KHz.wav
3	80	3	4	2	I	1	0	819	0	Ⴏ	cut_h_stereo_44KHz.wav
3	81	4	3	2	I	2	0	656	0	Ⴌ	cut_g_stereo_44KHz.wav
3	82	3	3	2	I	1	0	595	0	Ⴏ	cut_g_stereo_44KHz.wav
3	83	1	2	0	C	2	1	559	1	Ⴒ	cut_l_stereo_44KHz.wav
3	84	2	2	1	C	1	1	589	1	Ⴕ	cut_l_stereo_44KHz.wav
3	85	3	4	2	I	2	0	465	0	Ⴏ	cut_h_stereo_44KHz.wav
3	86	1	1	1	C	1	1	1001	1	Ⴒ	cut_w_stereo_44KHz.wav
3	87	4	4	2	I	2	0	541	0	Ⴌ	cut_h_stereo_44KHz.wav
3	88	2	1	0	C	2	1	817	1	Ⴕ	cut_w_stereo_44KHz.wav
3	89	3	3	2	I	2	0	547	1	Ⴏ	cut_g_stereo_44KHz.wav
3	90	4	3	2	I	2	0	983	0	Ⴌ	cut_g_stereo_44KHz.wav
3	91	2	2	1	C	1	1	882	1	Ⴕ	cut_l_stereo_44KHz.wav
3	92	1	2	0	C	2	1	656	1	Ⴒ	cut_l_stereo_44KHz.wav
3	93	3	4	2	I	2	0	535	0	Ⴏ	cut_h_stereo_44KHz.wav
3	94	2	1	0	C	2	1	727	1	Ⴕ	cut_w_stereo_44KHz.wav
3	95	1	1	1	C	1	1	928	1	Ⴒ	cut_w_stereo_44KHz.wav
3	96	4	4	2	I	2	0	654	1	Ⴌ	cut_h_stereo_44KHz.wav
3	97	2	1	0	C	2	1	812	1	Ⴕ	cut_w_stereo_44KHz.wav
3	98	3	4	2	I	1	0	839	1	Ⴏ	cut_h_stereo_44KHz.wav
3	99	4	4	2	I	2	0	807	1	Ⴌ	cut_h_stereo_44KHz.wav
3	100	1	2	0	C	2	1	802	1	Ⴒ	cut_l_stereo_44KHz.wav
3	101	3	3	2	I	2	0	685	1	Ⴏ	cut_g_stereo_44KHz.wav
3	102	1	1	1	C	1	1	973	1	Ⴒ	cut_w_stereo_44KHz.wav
3	103	4	3	2	I	2	0	529	1	Ⴌ	cut_g_stereo_44KHz.wav
3	104	2	2	1	C	1	1	712	1	Ⴕ	cut_l_stereo_44KHz.wav
3	105	3	3	2	I	2	0	591	1	Ⴏ	cut_g_stereo_44KHz.wav
3	106	2	1	0	C	1	0	830	0	Ⴕ	cut_w_stereo_44KHz.wav
3	107	1	2	0	C	2	1	578	1	Ⴒ	cut_l_stereo_44KHz.wav
3	108	4	4	2	I	2	0	527	0	Ⴌ	cut_h_stereo_44KHz.wav
3	109	3	4	2	I	2	0	493	1	Ⴏ	cut_h_stereo_44KHz.wav
3	110	2	2	1	C	1	1	825	1	Ⴕ	cut_l_stereo_44KHz.wav
3	111	1	1	1	C	1	1	1024	1	Ⴒ	cut_w_stereo_44KHz.wav
3	112	4	3	2	I	2	0	552	0	Ⴌ	cut_g_stereo_44KHz.wav
3	113	2	1	0	C	2	1	956	1	Ⴕ	cut_w_stereo_44KHz.wav
3	114	1	1	1	C	1	1	705	1	Ⴒ	cut_w_stereo_44KHz.wav
3	115	3	4	2	I	2	0	721	0	Ⴏ	cut_h_stereo_44KHz.wav
3	116	4	3	2	I	1	0	1114	0	Ⴌ	cut_g_stereo_44KHz.wav
3	117	2	2	1	C	1	1	804	1	Ⴕ	cut_l_stereo_44KHz.wav
3	118	3	3	2	I	2	0	478	0	Ⴏ	cut_g_stereo_44KHz.wav
3	119	1	2	0	C	2	1	479	1	Ⴒ	cut_l_stereo_44KHz.wav
3	120	4	4	2	I	2	0	734	0	Ⴌ	cut_h_stereo_44KHz.wav
3	121	3	3	2	I	2	0	633	0	Ⴏ	cut_g_stereo_44KHz.wav
3	122	2	2	1	C	1	1	869	1	Ⴕ	cut_l_stereo_44KHz.wav
3	123	1	1	1	C	1	1	896	1	Ⴒ	cut_w_stereo_44KHz.wav
3	124	4	3	2	I	2	0	635	0	Ⴌ	cut_g_stereo_44KHz.wav
3	125	1	2	0	C	2	1	781	1	Ⴒ	cut_l_stereo_44KHz.wav
3	126	4	4	2	I	2	0	632	1	Ⴌ	cut_h_stereo_44KHz.wav
3	127	2	1	0	C	2	1	809	1	Ⴕ	cut_w_stereo_44KHz.wav
3	128	3	4	2	I	1	0	877	0	Ⴏ	cut_h_stereo_44KHz.wav
3	129	1	1	1	C	1	1	932	1	Ⴒ	cut_w_stereo_44KHz.wav
3	130	2	2	1	C	1	1	1026	1	Ⴕ	cut_l_stereo_44KHz.wav
3	131	3	3	2	I	1	0	735	1	Ⴏ	cut_g_stereo_44KHz.wav
3	132	4	4	2	I	2	0	429	0	Ⴌ	cut_h_stereo_44KHz.wav
3	133	2	1	0	C	2	1	736	1	Ⴕ	cut_w_stereo_44KHz.wav
3	134	3	4	2	I	2	0	548	1	Ⴏ	cut_h_stereo_44KHz.wav
3	135	1	2	0	C	2	1	782	1	Ⴒ	cut_l_stereo_44KHz.wav
3	136	4	3	2	I	1	0	717	0	Ⴌ	cut_g_stereo_44KHz.wav
3	137	1	1	1	C	1	1	989	1	Ⴒ	cut_w_stereo_44KHz.wav
3	138	4	4	2	I	1	0	874	1	Ⴌ	cut_h_stereo_44KHz.wav
3	139	3	4	2	I	2	0	720	1	Ⴏ	cut_h_stereo_44KHz.wav
3	140	2	1	0	C	2	1	688	1	Ⴕ	cut_w_stereo_44KHz.wav
3	141	4	3	2	I	2	0	571	1	Ⴌ	cut_g_stereo_44KHz.wav
3	142	1	2	0	C	2	1	447	1	Ⴒ	cut_l_stereo_44KHz.wav
3	143	3	3	2	I	2	0	608	1	Ⴏ	cut_g_stereo_44KHz.wav
3	144	2	2	1	C	1	1	807	1	Ⴕ	cut_l_stereo_44KHz.wav
3	145	3	4	2	I	1	0	819	0	Ⴏ	cut_h_stereo_44KHz.wav
3	146	2	1	0	C	2	1	748	1	Ⴕ	cut_w_stereo_44KHz.wav
3	147	1	1	1	C	2	0	450	0	Ⴒ	cut_w_stereo_44KHz.wav
3	148	4	4	2	I	2	0	639	1	Ⴌ	cut_h_stereo_44KHz.wav
3	149	1	2	0	C	2	1	715	1	Ⴒ	cut_l_stereo_44KHz.wav
3	150	3	3	2	I	2	0	840	0	Ⴏ	cut_g_stereo_44KHz.wav
3	151	4	3	2	I	2	0	882	0	Ⴌ	cut_g_stereo_44KHz.wav
3	152	2	2	1	C	2	0	518	0	Ⴕ	cut_l_stereo_44KHz.wav
3	153	1	1	1	C	1	1	928	1	Ⴒ	cut_w_stereo_44KHz.wav
3	154	3	3	2	I	2	0	614	0	Ⴏ	cut_g_stereo_44KHz.wav
3	155	2	2	1	C	1	1	850	1	Ⴕ	cut_l_stereo_44KHz.wav
3	156	4	4	2	I	2	0	635	0	Ⴌ	cut_h_stereo_44KHz.wav
3	157	2	1	0	C	1	0	698	0	Ⴕ	cut_w_stereo_44KHz.wav
3	158	3	4	2	I	2	0	618	0	Ⴏ	cut_h_stereo_44KHz.wav
3	159	4	3	2	I	2	0	580	0	Ⴌ	cut_g_stereo_44KHz.wav
3	160	1	2	0	C	2	1	624	1	Ⴒ	cut_l_stereo_44KHz.wav
3	161	2	1	0	C	2	1	826	1	Ⴕ	cut_w_stereo_44KHz.wav
3	162	3	3	2	I	2	0	562	0	Ⴏ	cut_g_stereo_44KHz.wav
3	163	1	2	0	C	2	1	628	1	Ⴒ	cut_l_stereo_44KHz.wav
3	164	4	3	2	I	2	0	801	1	Ⴌ	cut_g_stereo_44KHz.wav
3	165	3	4	2	I	2	0	401	0	Ⴏ	cut_h_stereo_44KHz.wav
3	166	2	2	1	C	1	1	815	1	Ⴕ	cut_l_stereo_44KHz.wav
3	167	1	1	1	C	1	1	712	1	Ⴒ	cut_w_stereo_44KHz.wav
3	168	4	4	2	I	2	0	589	1	Ⴌ	cut_h_stereo_44KHz.wav
3	169	2	1	0	C	1	0	853	0	Ⴕ	cut_w_stereo_44KHz.wav
3	170	1	2	0	C	2	1	576	1	Ⴒ	cut_l_stereo_44KHz.wav
3	171	4	4	2	I	2	0	643	0	Ⴌ	cut_h_stereo_44KHz.wav
3	172	3	4	2	I	2	0	417	1	Ⴏ	cut_h_stereo_44KHz.wav
3	173	2	2	1	C	1	1	924	1	Ⴕ	cut_l_stereo_44KHz.wav
3	174	4	3	2	I	2	0	501	0	Ⴌ	cut_g_stereo_44KHz.wav
3	175	3	3	2	I	2	0	600	0	Ⴏ	cut_g_stereo_44KHz.wav
3	176	1	1	1	C	2	0	543	0	Ⴒ	cut_w_stereo_44KHz.wav
3	177	3	4	2	I	2	0	572	1	Ⴏ	cut_h_stereo_44KHz.wav
3	178	2	2	1	C	1	1	797	1	Ⴕ	cut_l_stereo_44KHz.wav
3	179	1	1	1	C	1	1	865	1	Ⴒ	cut_w_stereo_44KHz.wav
3	180	4	4	2	I	2	0	582	0	Ⴌ	cut_h_stereo_44KHz.wav
3	181	1	2	0	C	2	1	707	1	Ⴒ	cut_l_stereo_44KHz.wav
3	182	3	3	2	I	2	0	545	0	Ⴏ	cut_g_stereo_44KHz.wav
3	183	2	1	0	C	2	1	818	1	Ⴕ	cut_w_stereo_44KHz.wav
3	184	4	3	2	I	2	0	565	1	Ⴌ	cut_g_stereo_44KHz.wav
3	185	1	1	1	C	1	1	891	1	Ⴒ	cut_w_stereo_44KHz.wav
3	186	3	4	2	I	2	0	587	1	Ⴏ	cut_h_stereo_44KHz.wav
3	187	2	1	0	C	2	1	662	1	Ⴕ	cut_w_stereo_44KHz.wav
3	188	4	3	2	I	2	0	518	0	Ⴌ	cut_g_stereo_44KHz.wav
3	189	3	3	2	I	1	0	544	0	Ⴏ	cut_g_stereo_44KHz.wav
3	190	1	2	0	C	2	1	170	1	Ⴒ	cut_l_stereo_44KHz.wav
3	191	4	4	2	I	2	0	584	0	Ⴌ	cut_h_stereo_44KHz.wav
3	192	2	2	1	C	1	1	776	1	Ⴕ	cut_l_stereo_44KHz.wav
3	193	3	3	2	I	2	0	597	0	Ⴏ	cut_g_stereo_44KHz.wav
3	194	4	3	2	I	2	0	667	0	Ⴌ	cut_g_stereo_44KHz.wav
3	195	2	2	1	C	1	1	740	1	Ⴕ	cut_l_stereo_44KHz.wav
3	196	1	2	0	C	1	0	716	0	Ⴒ	cut_l_stereo_44KHz.wav
3	197	2	1	0	C	2	1	841	1	Ⴕ	cut_w_stereo_44KHz.wav
3	198	1	1	1	C	1	1	814	1	Ⴒ	cut_w_stereo_44KHz.wav
3	199	4	4	2	I	2	0	767	0	Ⴌ	cut_h_stereo_44KHz.wav
3	200	3	4	2	I	2	0	690	1	Ⴏ	cut_h_stereo_44KHz.wav
4	1	3	3	2	I	2	0	974	0	Ⴁ	cut_s_stereo_44KHz.wav
4	2	2	1	0	C	2	1	580	1	Ⴜ	cut_ui_stereo_44KHz.wav
4	3	4	4	2	I	1	0	792	1	Ⴊ	cut_n_stereo_44KHz.wav
4	4	1	2	0	C	2	1	622	1	Ⴟ	cut_oei_stereo_44KHz.wav
4	5	4	3	2	I	1	0	872	0	Ⴊ	cut_s_stereo_44KHz.wav
4	6	2	2	1	C	1	1	977	1	Ⴜ	cut_oei_stereo_44KHz.wav
4	7	3	4	2	I	2	0	720	1	Ⴁ	cut_n_stereo_44KHz.wav
4	8	1	1	1	C	1	1	985	1	Ⴟ	cut_ui_stereo_44KHz.wav
4	9	3	4	2	I	2	0	660	0	Ⴁ	cut_n_stereo_44KHz.wav
4	10	1	1	1	C	1	1	886	1	Ⴟ	cut_ui_stereo_44KHz.wav
4	11	2	2	1	C	2	0	554	0	Ⴜ	cut_oei_stereo_44KHz.wav
4	12	4	4	2	I	2	0	711	0	Ⴊ	cut_n_stereo_44KHz.wav
4	13	3	3	2	I	2	0	792	0	Ⴁ	cut_s_stereo_44KHz.wav
4	14	2	1	0	C	2	1	852	1	Ⴜ	cut_ui_stereo_44KHz.wav
4	15	1	2	0	C	2	1	601	1	Ⴟ	cut_oei_stereo_44KHz.wav
4	16	4	3	2	I	2	0	613	1	Ⴊ	cut_s_stereo_44KHz.wav
4	17	1	2	0	C	2	1	629	1	Ⴟ	cut_oei_stereo_44KHz.wav
4	18	3	3	2	I	2	0	572	1	Ⴁ	cut_s_stereo_44KHz.wav
4	19	4	3	2	I	1	0	910	1	Ⴊ	cut_s_stereo_44KHz.wav
4	20	2	1	0	C	2	1	626	1	Ⴜ	cut_ui_stereo_44KHz.wav
4	21	4	4	2	I	2	0	973	1	Ⴊ	cut_n_stereo_44KHz.wav
4	22	1	1	1	C	1	1	910	1	Ⴟ	cut_ui_stereo_44KHz.wav
4	23	3	4	2	I	1	0	719	1	Ⴁ	cut_n_stereo_44KHz.wav
4	24	2	2	1	C	1	1	1022	1	Ⴜ	cut_oei_stereo_44KHz.wav
4	25	3	3	2	I	2	0	678	1	Ⴁ	cut_s_stereo_44KHz.wav
4	26	4	3	2	I	1	0	669	0	Ⴊ	cut_s_stereo_44KHz.wav
4	27	2	2	1	C	1	1	760	1	Ⴜ	cut_oei_stereo_44KHz.wav
4	28	1	1	1	C	1	1	721	1	Ⴟ	cut_ui_stereo_44KHz.wav
4	29	2	1	0	C	2	1	1059	1	Ⴜ	cut_ui_stereo_44KHz.wav
4	30	3	4	2	I	2	0	673	1	Ⴁ	cut_n_stereo_44KHz.wav
4	31	4	4	2	I	2	0	878	0	Ⴊ	cut_n_stereo_44KHz.wav
4	32	1	2	0	C	2	1	987	1	Ⴟ	cut_oei_stereo_44KHz.wav
4	33	3	4	2	I	2	0	997	1	Ⴁ	cut_n_stereo_44KHz.wav
4	34	4	3	2	I	2	0	1296	0	Ⴊ	cut_s_stereo_44KHz.wav
4	35	1	1	1	C	1	1	767	1	Ⴟ	cut_ui_stereo_44KHz.wav
4	36	2	2	1	C	1	1	1070	1	Ⴜ	cut_oei_stereo_44KHz.wav
4	37	4	4	2	I	2	0	765	0	Ⴊ	cut_n_stereo_44KHz.wav
4	38	2	1	0	C	2	1	898	1	Ⴜ	cut_ui_stereo_44KHz.wav
4	39	3	3	2	I	2	0	665	0	Ⴁ	cut_s_stereo_44KHz.wav
4	40	1	2	0	C	2	1	600	1	Ⴟ	cut_oei_stereo_44KHz.wav
4	41	4	4	2	I	2	0	589	1	Ⴊ	cut_n_stereo_44KHz.wav
4	42	1	2	0	C	2	1	478	1	Ⴟ	cut_oei_stereo_44KHz.wav
4	43	3	3	2	I	2	0	524	1	Ⴁ	cut_s_stereo_44KHz.wav
4	44	2	1	0	C	2	1	488	1	Ⴜ	cut_ui_stereo_44KHz.wav
4	45	1	1	1	C	2	0	579	0	Ⴟ	cut_ui_stereo_44KHz.wav
4	46	3	4	2	I	2	0	605	1	Ⴁ	cut_n_stereo_44KHz.wav
4	47	4	3	2	I	2	0	553	0	Ⴊ	cut_s_stereo_44KHz.wav
4	48	2	2	1	C	1	1	793	1	Ⴜ	cut_oei_stereo_44KHz.wav
4	49	1	1	1	C	1	1	797	1	Ⴟ	cut_ui_stereo_44KHz.wav
4	50	2	2	1	C	1	1	929	1	Ⴜ	cut_oei_stereo_44KHz.wav
4	51	3	4	2	I	2	0	650	0	Ⴁ	cut_n_stereo_44KHz.wav
4	52	4	3	2	I	1	0	900	1	Ⴊ	cut_s_stereo_44KHz.wav
4	53	2	1	0	C	2	1	963	1	Ⴜ	cut_ui_stereo_44KHz.wav
4	54	4	4	2	I	2	0	624	1	Ⴊ	cut_n_stereo_44KHz.wav
4	55	3	3	2	I	2	0	862	1	Ⴁ	cut_s_stereo_44KHz.wav
4	56	1	2	0	C	2	1	658	1	Ⴟ	cut_oei_stereo_44KHz.wav
4	57	4	3	2	I	2	0	826	1	Ⴊ	cut_s_stereo_44KHz.wav
4	58	2	1	0	C	2	1	609	1	Ⴜ	cut_ui_stereo_44KHz.wav
4	59	3	4	2	I	2	0	701	0	Ⴁ	cut_n_stereo_44KHz.wav
4	60	1	2	0	C	2	1	583	1	Ⴟ	cut_oei_stereo_44KHz.wav
4	61	3	3	2	I	2	0	491	0	Ⴁ	cut_s_stereo_44KHz.wav
4	62	1	1	1	C	2	0	475	0	Ⴟ	cut_ui_stereo_44KHz.wav
4	63	4	4	2	I	2	0	760	1	Ⴊ	cut_n_stereo_44KHz.wav
4	64	2	2	1	C	1	1	981	1	Ⴜ	cut_oei_stereo_44KHz.wav
4	65	4	3	2	I	2	0	851	0	Ⴊ	cut_s_stereo_44KHz.wav
4	66	3	3	2	I	2	0	683	0	Ⴁ	cut_s_stereo_44KHz.wav
4	67	1	1	1	C	1	1	845	1	Ⴟ	cut_ui_stereo_44KHz.wav
4	68	2	2	1	C	1	1	1720	1	Ⴜ	cut_oei_stereo_44KHz.wav
4	69	1	2	0	C	2	1	517	1	Ⴟ	cut_oei_stereo_44KHz.wav
4	70	3	4	2	I	1	0	1071	0	Ⴁ	cut_n_stereo_44KHz.wav
4	71	2	1	0	C	2	1	862	1	Ⴜ	cut_ui_stereo_44KHz.wav
4	72	4	4	2	I	2	0	531	1	Ⴊ	cut_n_stereo_44KHz.wav
4	73	1	2	0	C	2	1	631	1	Ⴟ	cut_oei_stereo_44KHz.wav
4	74	2	1	0	C	2	1	637	1	Ⴜ	cut_ui_stereo_44KHz.wav
4	75	4	3	2	I	2	0	605	1	Ⴊ	cut_s_stereo_44KHz.wav
4	76	3	3	2	I	1	0	737	1	Ⴁ	cut_s_stereo_44KHz.wav
4	77	1	1	1	C	1	1	1283	1	Ⴟ	cut_ui_stereo_44KHz.wav
4	78	4	4	2	I	2	0	644	1	Ⴊ	cut_n_stereo_44KHz.wav
4	79	2	2	1	C	1	1	1227	1	Ⴜ	cut_oei_stereo_44KHz.wav
4	80	3	4	2	I	2	0	708	1	Ⴁ	cut_n_stereo_44KHz.wav
4	81	1	1	1	C	1	1	1213	1	Ⴟ	cut_ui_stereo_44KHz.wav
4	82	2	1	0	C	1	0	740	0	Ⴜ	cut_ui_stereo_44KHz.wav
4	83	3	4	2	I	2	0	668	1	Ⴁ	cut_n_stereo_44KHz.wav
4	84	4	3	2	I	2	0	750	1	Ⴊ	cut_s_stereo_44KHz.wav
4	85	1	2	0	C	2	1	841	1	Ⴟ	cut_oei_stereo_44KHz.wav
4	86	2	2	1	C	1	1	698	1	Ⴜ	cut_oei_stereo_44KHz.wav
4	87	4	4	2	I	2	0	550	1	Ⴊ	cut_n_stereo_44KHz.wav
4	88	3	3	2	I	1	0	736	0	Ⴁ	cut_s_stereo_44KHz.wav
4	89	4	4	2	I	2	0	380	0	Ⴊ	cut_n_stereo_44KHz.wav
4	90	2	2	1	C	1	1	889	1	Ⴜ	cut_oei_stereo_44KHz.wav
4	91	1	2	0	C	2	1	609	1	Ⴟ	cut_oei_stereo_44KHz.wav
4	92	3	3	2	I	2	0	780	1	Ⴁ	cut_s_stereo_44KHz.wav
4	93	4	3	2	I	1	0	836	0	Ⴊ	cut_s_stereo_44KHz.wav
4	94	1	1	1	C	1	1	1107	1	Ⴟ	cut_ui_stereo_44KHz.wav
4	95	3	4	2	I	2	0	556	0	Ⴁ	cut_n_stereo_44KHz.wav
4	96	2	1	0	C	2	1	1345	1	Ⴜ	cut_ui_stereo_44KHz.wav
4	97	1	1	1	C	1	1	664	1	Ⴟ	cut_ui_stereo_44KHz.wav
4	98	4	4	2	I	2	0	973	0	Ⴊ	cut_n_stereo_44KHz.wav
4	99	2	1	0	C	2	1	767	1	Ⴜ	cut_ui_stereo_44KHz.wav
4	100	3	3	2	I	1	0	664	1	Ⴁ	cut_s_stereo_44KHz.wav
4	101	1	2	0	C	2	1	642	1	Ⴟ	cut_oei_stereo_44KHz.wav
4	102	3	4	2	I	2	0	609	0	Ⴁ	cut_n_stereo_44KHz.wav
4	103	4	3	2	I	2	0	559	1	Ⴊ	cut_s_stereo_44KHz.wav
4	104	2	2	1	C	1	1	888	1	Ⴜ	cut_oei_stereo_44KHz.wav
4	105	3	3	2	I	2	0	614	0	Ⴁ	cut_s_stereo_44KHz.wav
4	106	4	4	2	I	2	0	683	0	Ⴊ	cut_n_stereo_44KHz.wav
4	107	1	2	0	C	2	1	561	1	Ⴟ	cut_oei_stereo_44KHz.wav
4	108	2	1	0	C	2	1	718	1	Ⴜ	cut_ui_stereo_44KHz.wav
4	109	3	4	2	I	2	0	602	0	Ⴁ	cut_n_stereo_44KHz.wav
4	110	4	3	2	I	1	0	598	0	Ⴊ	cut_s_stereo_44KHz.wav
4	111	2	2	1	C	1	1	755	1	Ⴜ	cut_oei_stereo_44KHz.wav
4	112	1	1	1	C	1	1	839	1	Ⴟ	cut_ui_stereo_44KHz.wav
4	113	4	3	2	I	1	0	671	1	Ⴊ	cut_s_stereo_44KHz.wav
4	114	1	2	0	C	2	1	672	1	Ⴟ	cut_oei_stereo_44KHz.wav
4	115	3	4	2	I	1	0	1094	1	Ⴁ	cut_n_stereo_44KHz.wav
4	116	2	2	1	C	1	1	766	1	Ⴜ	cut_oei_stereo_44KHz.wav
4	117	4	4	2	I	1	0	939	1	Ⴊ	cut_n_stereo_44KHz.wav
4	118	2	1	0	C	2	1	1005	1	Ⴜ	cut_ui_stereo_44KHz.wav
4	119	3	3	2	I	1	0	1221	1	Ⴁ	cut_s_stereo_44KHz.wav
4	120	1	1	1	C	1	1	760	1	Ⴟ	cut_ui_stereo_44KHz.wav
4	121	2	1	0	C	2	1	871	1	Ⴜ	cut_ui_stereo_44KHz.wav
4	122	1	1	1	C	1	1	1109	1	Ⴟ	cut_ui_stereo_44KHz.wav
4	123	4	3	2	I	2	0	1116	1	Ⴊ	cut_s_stereo_44KHz.wav
4	124	3	3	2	I	2	0	1034	0	Ⴁ	cut_s_stereo_44KHz.wav
4	125	1	2	0	C	2	1	608	1	Ⴟ	cut_oei_stereo_44KHz.wav
4	126	4	4	2	I	2	0	850	0	Ⴊ	cut_n_stereo_44KHz.wav
4	127	2	2	1	C	1	1	862	1	Ⴜ	cut_oei_stereo_44KHz.wav
4	128	3	4	2	I	2	0	655	1	Ⴁ	cut_n_stereo_44KHz.wav
4	129	1	1	1	C	1	1	798	1	Ⴟ	cut_ui_stereo_44KHz.wav
4	130	2	2	1	C	1	1	714	1	Ⴜ	cut_oei_stereo_44KHz.wav
4	131	3	3	2	I	2	0	736	0	Ⴁ	cut_s_stereo_44KHz.wav
4	132	4	4	2	I	2	0	955	1	Ⴊ	cut_n_stereo_44KHz.wav
4	133	1	2	0	C	2	1	1003	1	Ⴟ	cut_oei_stereo_44KHz.wav
4	134	2	1	0	C	2	1	760	1	Ⴜ	cut_ui_stereo_44KHz.wav
4	135	4	3	2	I	1	0	722	0	Ⴊ	cut_s_stereo_44KHz.wav
4	136	3	4	2	I	2	0	502	0	Ⴁ	cut_n_stereo_44KHz.wav
4	137	2	2	1	C	1	1	701	1	Ⴜ	cut_oei_stereo_44KHz.wav
4	138	3	3	2	I	2	0	587	0	Ⴁ	cut_s_stereo_44KHz.wav
4	139	1	1	1	C	1	1	850	1	Ⴟ	cut_ui_stereo_44KHz.wav
4	140	4	3	2	I	2	0	560	0	Ⴊ	cut_s_stereo_44KHz.wav
4	141	3	4	2	I	2	0	599	1	Ⴁ	cut_n_stereo_44KHz.wav
4	142	2	1	0	C	2	1	766	1	Ⴜ	cut_ui_stereo_44KHz.wav
4	143	1	2	0	C	2	1	615	1	Ⴟ	cut_oei_stereo_44KHz.wav
4	144	4	4	2	I	1	0	879	1	Ⴊ	cut_n_stereo_44KHz.wav
4	145	1	2	0	C	2	1	725	1	Ⴟ	cut_oei_stereo_44KHz.wav
4	146	4	4	2	I	2	0	542	1	Ⴊ	cut_n_stereo_44KHz.wav
4	147	2	1	0	C	2	1	797	1	Ⴜ	cut_ui_stereo_44KHz.wav
4	148	3	4	2	I	2	0	600	1	Ⴁ	cut_n_stereo_44KHz.wav
4	149	1	1	1	C	1	1	1624	1	Ⴟ	cut_ui_stereo_44KHz.wav
4	150	3	3	2	I	1	0	568	1	Ⴁ	cut_s_stereo_44KHz.wav
4	151	4	3	2	I	1	0	981	0	Ⴊ	cut_s_stereo_44KHz.wav
4	152	2	2	1	C	1	1	955	1	Ⴜ	cut_oei_stereo_44KHz.wav
4	153	1	1	1	C	1	1	1040	1	Ⴟ	cut_ui_stereo_44KHz.wav
4	154	2	2	1	C	1	1	1041	1	Ⴜ	cut_oei_stereo_44KHz.wav
4	155	3	3	2	I	1	0	556	0	Ⴁ	cut_s_stereo_44KHz.wav
4	156	4	4	2	I	2	0	596	0	Ⴊ	cut_n_stereo_44KHz.wav
4	157	3	4	2	I	2	0	621	1	Ⴁ	cut_n_stereo_44KHz.wav
4	158	4	3	2	I	2	0	888	0	Ⴊ	cut_s_stereo_44KHz.wav
4	159	1	2	0	C	2	1	799	1	Ⴟ	cut_oei_stereo_44KHz.wav
4	160	2	1	0	C	2	1	628	1	Ⴜ	cut_ui_stereo_44KHz.wav
4	161	4	4	2	I	2	0	566	0	Ⴊ	cut_n_stereo_44KHz.wav
4	162	3	3	2	I	2	0	624	1	Ⴁ	cut_s_stereo_44KHz.wav
4	163	1	2	0	C	2	1	904	1	Ⴟ	cut_oei_stereo_44KHz.wav
4	164	2	1	0	C	2	1	599	1	Ⴜ	cut_ui_stereo_44KHz.wav
4	165	4	3	2	I	2	0	504	0	Ⴊ	cut_s_stereo_44KHz.wav
4	166	2	2	1	C	2	0	562	0	Ⴜ	cut_oei_stereo_44KHz.wav
4	167	3	4	2	I	1	0	716	1	Ⴁ	cut_n_stereo_44KHz.wav
4	168	1	1	1	C	1	1	877	1	Ⴟ	cut_ui_stereo_44KHz.wav
4	169	2	1	0	C	2	1	787	1	Ⴜ	cut_ui_stereo_44KHz.wav
4	170	4	3	2	I	1	0	608	0	Ⴊ	cut_s_stereo_44KHz.wav
4	171	3	4	2	I	2	0	449	0	Ⴁ	cut_n_stereo_44KHz.wav
4	172	1	1	1	C	1	1	1056	1	Ⴟ	cut_ui_stereo_44KHz.wav
4	173	3	3	2	I	2	0	590	0	Ⴁ	cut_s_stereo_44KHz.wav
4	174	2	2	1	C	1	1	890	1	Ⴜ	cut_oei_stereo_44KHz.wav
4	175	4	4	2	I	2	0	624	1	Ⴊ	cut_n_stereo_44KHz.wav
4	176	1	2	0	C	2	1	645	1	Ⴟ	cut_oei_stereo_44KHz.wav
4	177	3	3	2	I	2	0	455	1	Ⴁ	cut_s_stereo_44KHz.wav
4	178	4	3	2	I	1	0	592	1	Ⴊ	cut_s_stereo_44KHz.wav
4	179	2	2	1	C	1	1	856	1	Ⴜ	cut_oei_stereo_44KHz.wav
4	180	1	1	1	C	1	1	726	1	Ⴟ	cut_ui_stereo_44KHz.wav
4	181	2	1	0	C	2	1	695	1	Ⴜ	cut_ui_stereo_44KHz.wav
4	182	1	2	0	C	2	1	907	1	Ⴟ	cut_oei_stereo_44KHz.wav
4	183	4	4	2	I	2	0	745	1	Ⴊ	cut_n_stereo_44KHz.wav
4	184	3	4	2	I	1	0	623	1	Ⴁ	cut_n_stereo_44KHz.wav
4	185	2	1	0	C	2	1	693	1	Ⴜ	cut_ui_stereo_44KHz.wav
4	186	3	4	2	I	2	0	638	0	Ⴁ	cut_n_stereo_44KHz.wav
4	187	1	2	0	C	1	0	959	0	Ⴟ	cut_oei_stereo_44KHz.wav
4	188	4	3	2	I	2	0	656	0	Ⴊ	cut_s_stereo_44KHz.wav
4	189	1	1	1	C	1	1	735	1	Ⴟ	cut_ui_stereo_44KHz.wav
4	190	4	4	2	I	2	0	799	0	Ⴊ	cut_n_stereo_44KHz.wav
4	191	2	2	1	C	1	1	782	1	Ⴜ	cut_oei_stereo_44KHz.wav
4	192	3	3	2	I	2	0	818	0	Ⴁ	cut_s_stereo_44KHz.wav
4	193	2	2	1	C	1	1	817	1	Ⴜ	cut_oei_stereo_44KHz.wav
4	194	4	4	2	I	1	0	822	1	Ⴊ	cut_n_stereo_44KHz.wav
4	195	1	2	0	C	2	1	646	1	Ⴟ	cut_oei_stereo_44KHz.wav
4	196	3	4	2	I	2	0	1093	0	Ⴁ	cut_n_stereo_44KHz.wav
4	197	1	1	1	C	1	1	915	1	Ⴟ	cut_ui_stereo_44KHz.wav
4	198	2	1	0	C	2	1	756	1	Ⴜ	cut_ui_stereo_44KHz.wav
4	199	3	3	2	I	2	0	727	0	Ⴁ	cut_s_stereo_44KHz.wav
4	200	4	3	2	I	2	0	1073	0	Ⴊ	cut_s_stereo_44KHz.wav
