block	trial	Vstim	Astim	match	C/I	resp	result	RT	fb	V-file	A-file
LR

0	1	2	3	1	C	2	1	1503	1	poli_8sides 23_whiteLine3.jpg	Practice4_b26_stereo_44KHz.wav
0	2	1	1	1	C	1	0	1129	0	poli_8sides 22_whiteLine3.jpg	Practice3_b26_cut1_stereo_44KHz.wav
0	3	2	4	0	C	1	1	1022	1	poli_8sides 23_whiteLine3.jpg	Practice2_b27_cut2_stereo_44KHz.wav
0	4	1	2	0	C	2	0	1065	0	poli_8sides 22_whiteLine3.jpg	Practice1_b27_cut1_stereo_44KHz.wav
0	5	1	2	0	C	1	1	1740	1	poli_8sides 22_whiteLine3.jpg	Practice1_b27_cut1_stereo_44KHz.wav
0	6	1	1	1	C	2	1	1061	1	poli_8sides 22_whiteLine3.jpg	Practice3_b26_cut1_stereo_44KHz.wav
0	7	2	4	0	C	1	1	951	1	poli_8sides 23_whiteLine3.jpg	Practice2_b27_cut2_stereo_44KHz.wav
0	8	2	3	1	C	2	1	1130	1	poli_8sides 23_whiteLine3.jpg	Practice4_b26_stereo_44KHz.wav
0	9	2	3	1	C	2	1	1068	1	poli_8sides 23_whiteLine3.jpg	Practice4_b26_stereo_44KHz.wav
0	10	1	2	0	C	1	1	1184	1	poli_8sides 22_whiteLine3.jpg	Practice1_b27_cut1_stereo_44KHz.wav
0	11	1	1	1	C	2	1	808	1	poli_8sides 22_whiteLine3.jpg	Practice3_b26_cut1_stereo_44KHz.wav
0	12	2	4	0	C	1	1	834	1	poli_8sides 23_whiteLine3.jpg	Practice2_b27_cut2_stereo_44KHz.wav
0	13	1	2	0	C	2	0	1144	0	poli_8sides 22_whiteLine3.jpg	Practice1_b27_cut1_stereo_44KHz.wav
0	14	2	3	1	C	1	0	744	0	poli_8sides 23_whiteLine3.jpg	Practice4_b26_stereo_44KHz.wav
0	15	2	4	0	C	1	1	724	1	poli_8sides 23_whiteLine3.jpg	Practice2_b27_cut2_stereo_44KHz.wav
0	16	1	1	1	C	2	1	812	1	poli_8sides 22_whiteLine3.jpg	Practice3_b26_cut1_stereo_44KHz.wav
0	17	1	2	0	C	1	1	1225	1	poli_8sides 22_whiteLine3.jpg	Practice1_b27_cut1_stereo_44KHz.wav
0	18	2	3	1	C	2	1	902	1	poli_8sides 23_whiteLine3.jpg	Practice4_b26_stereo_44KHz.wav
0	19	1	1	1	C	2	1	1076	1	poli_8sides 22_whiteLine3.jpg	Practice3_b26_cut1_stereo_44KHz.wav
0	20	2	4	0	C	1	1	677	1	poli_8sides 23_whiteLine3.jpg	Practice2_b27_cut2_stereo_44KHz.wav
0	21	1	2	0	C	2	0	617	0	poli_8sides 22_whiteLine3.jpg	Practice1_b27_cut1_stereo_44KHz.wav
0	22	2	4	0	C	1	1	638	1	poli_8sides 23_whiteLine3.jpg	Practice2_b27_cut2_stereo_44KHz.wav
0	23	2	3	1	C	2	1	833	1	poli_8sides 23_whiteLine3.jpg	Practice4_b26_stereo_44KHz.wav
0	24	1	1	1	C	2	1	769	1	poli_8sides 22_whiteLine3.jpg	Practice3_b26_cut1_stereo_44KHz.wav
0	25	1	2	0	C	1	1	1350	1	poli_8sides 22_whiteLine3.jpg	Practice1_b27_cut1_stereo_44KHz.wav
0	26	1	1	1	C	2	1	792	1	poli_8sides 22_whiteLine3.jpg	Practice3_b26_cut1_stereo_44KHz.wav
0	27	2	4	0	C	1	1	906	1	poli_8sides 23_whiteLine3.jpg	Practice2_b27_cut2_stereo_44KHz.wav
0	28	2	3	1	C	2	1	916	1	poli_8sides 23_whiteLine3.jpg	Practice4_b26_stereo_44KHz.wav
0	29	2	3	1	C	1	0	1166	0	poli_8sides 23_whiteLine3.jpg	Practice4_b26_stereo_44KHz.wav
0	30	2	4	0	C	1	1	765	1	poli_8sides 23_whiteLine3.jpg	Practice2_b27_cut2_stereo_44KHz.wav
avg_resp = 987
1	1	3	3	2	I	2	0	1623	0	poli_8sides 1_whiteLine3.jpg	Medium_e13_stereo_44KHz.wav
1	2	1	1	1	C	1	0	1304	0	poli_8sides 10_whiteLine3.jpg	Medium_e21_stereo_44KHz.wav
1	3	2	2	1	C	2	1	979	1	poli_8sides 6_whiteLine3.jpg	MediumLong_e04_stereo_44KHz.wav
1	4	4	3	2	I	1	0	1228	0	poli_8sides 16_whiteLine3.jpg	Medium_e13_stereo_44KHz.wav
1	5	2	1	0	C	2	0	1096	0	poli_8sides 6_whiteLine3.jpg	Medium_e21_stereo_44KHz.wav
1	6	1	2	0	C	1	1	1510	1	poli_8sides 10_whiteLine3.jpg	MediumLong_e04_stereo_44KHz.wav
1	7	3	4	2	I	2	0	1276	1	poli_8sides 1_whiteLine3.jpg	MediumLong_e19_stereo_44KHz.wav
1	8	4	4	2	I	1	0	1161	1	poli_8sides 16_whiteLine3.jpg	MediumLong_e19_stereo_44KHz.wav
1	9	2	1	0	C	2	0	1450	0	poli_8sides 6_whiteLine3.jpg	Medium_e21_stereo_44KHz.wav
1	10	3	3	2	I	2	0	1555	1	poli_8sides 1_whiteLine3.jpg	Medium_e13_stereo_44KHz.wav
1	11	1	1	1	C	2	1	1267	1	poli_8sides 10_whiteLine3.jpg	Medium_e21_stereo_44KHz.wav
1	12	4	4	2	I	1	0	1430	1	poli_8sides 16_whiteLine3.jpg	MediumLong_e19_stereo_44KHz.wav
1	13	3	4	2	I	2	0	977	1	poli_8sides 1_whiteLine3.jpg	MediumLong_e19_stereo_44KHz.wav
1	14	1	2	0	C	1	1	997	1	poli_8sides 10_whiteLine3.jpg	MediumLong_e04_stereo_44KHz.wav
1	15	4	3	2	I	2	0	1366	0	poli_8sides 16_whiteLine3.jpg	Medium_e13_stereo_44KHz.wav
1	16	2	2	1	C	2	1	848	1	poli_8sides 6_whiteLine3.jpg	MediumLong_e04_stereo_44KHz.wav
1	17	3	3	2	I	1	0	1415	0	poli_8sides 1_whiteLine3.jpg	Medium_e13_stereo_44KHz.wav
1	18	4	4	2	I	1	0	1067	1	poli_8sides 16_whiteLine3.jpg	MediumLong_e19_stereo_44KHz.wav
1	19	2	2	1	C	2	1	902	1	poli_8sides 6_whiteLine3.jpg	MediumLong_e04_stereo_44KHz.wav
1	20	1	1	1	C	2	1	1198	1	poli_8sides 10_whiteLine3.jpg	Medium_e21_stereo_44KHz.wav
1	21	2	1	0	C	1	1	1251	1	poli_8sides 6_whiteLine3.jpg	Medium_e21_stereo_44KHz.wav
1	22	3	4	2	I	1	0	1161	1	poli_8sides 1_whiteLine3.jpg	MediumLong_e19_stereo_44KHz.wav
1	23	4	3	2	I	2	0	1211	0	poli_8sides 16_whiteLine3.jpg	Medium_e13_stereo_44KHz.wav
1	24	1	2	0	C	1	1	730	1	poli_8sides 10_whiteLine3.jpg	MediumLong_e04_stereo_44KHz.wav
1	25	2	2	1	C	2	1	713	1	poli_8sides 6_whiteLine3.jpg	MediumLong_e04_stereo_44KHz.wav
1	26	4	4	2	I	1	0	1051	1	poli_8sides 16_whiteLine3.jpg	MediumLong_e19_stereo_44KHz.wav
1	27	1	1	1	C	2	1	1104	1	poli_8sides 10_whiteLine3.jpg	Medium_e21_stereo_44KHz.wav
1	28	3	4	2	I	1	0	1064	1	poli_8sides 1_whiteLine3.jpg	MediumLong_e19_stereo_44KHz.wav
1	29	1	2	0	C	2	0	1052	0	poli_8sides 10_whiteLine3.jpg	MediumLong_e04_stereo_44KHz.wav
1	30	2	1	0	C	1	1	1072	1	poli_8sides 6_whiteLine3.jpg	Medium_e21_stereo_44KHz.wav
1	31	4	3	2	I	2	0	1037	1	poli_8sides 16_whiteLine3.jpg	Medium_e13_stereo_44KHz.wav
1	32	3	3	2	I	1	0	942	0	poli_8sides 1_whiteLine3.jpg	Medium_e13_stereo_44KHz.wav
1	33	4	3	2	I	2	0	1610	0	poli_8sides 16_whiteLine3.jpg	Medium_e13_stereo_44KHz.wav
1	34	1	1	1	C	0	0	0	0	poli_8sides 10_whiteLine3.jpg	Medium_e21_stereo_44KHz.wav
1	35	3	4	2	I	1	0	918	0	poli_8sides 1_whiteLine3.jpg	MediumLong_e19_stereo_44KHz.wav
1	36	2	2	1	C	2	1	874	1	poli_8sides 6_whiteLine3.jpg	MediumLong_e04_stereo_44KHz.wav
1	37	3	3	2	I	1	0	1071	1	poli_8sides 1_whiteLine3.jpg	Medium_e13_stereo_44KHz.wav
1	38	1	2	0	C	1	1	1368	1	poli_8sides 10_whiteLine3.jpg	MediumLong_e04_stereo_44KHz.wav
1	39	4	4	2	I	1	0	1210	0	poli_8sides 16_whiteLine3.jpg	MediumLong_e19_stereo_44KHz.wav
1	40	2	1	0	C	2	0	1699	0	poli_8sides 6_whiteLine3.jpg	Medium_e21_stereo_44KHz.wav
1	41	1	2	0	C	1	1	930	1	poli_8sides 10_whiteLine3.jpg	MediumLong_e04_stereo_44KHz.wav
1	42	2	1	0	C	1	1	1510	1	poli_8sides 6_whiteLine3.jpg	Medium_e21_stereo_44KHz.wav
1	43	3	3	2	I	2	0	1641	1	poli_8sides 1_whiteLine3.jpg	Medium_e13_stereo_44KHz.wav
1	44	4	4	2	I	1	0	1059	1	poli_8sides 16_whiteLine3.jpg	MediumLong_e19_stereo_44KHz.wav
1	45	1	1	1	C	1	0	1239	0	poli_8sides 10_whiteLine3.jpg	Medium_e21_stereo_44KHz.wav
1	46	4	3	2	I	1	0	1315	1	poli_8sides 16_whiteLine3.jpg	Medium_e13_stereo_44KHz.wav
1	47	3	4	2	I	2	0	1044	1	poli_8sides 1_whiteLine3.jpg	MediumLong_e19_stereo_44KHz.wav
1	48	2	2	1	C	2	1	1477	1	poli_8sides 6_whiteLine3.jpg	MediumLong_e04_stereo_44KHz.wav
1	49	4	3	2	I	1	0	1151	1	poli_8sides 16_whiteLine3.jpg	Medium_e13_stereo_44KHz.wav
1	50	3	4	2	I	2	0	1039	1	poli_8sides 1_whiteLine3.jpg	MediumLong_e19_stereo_44KHz.wav
1	51	1	2	0	C	1	1	1272	1	poli_8sides 10_whiteLine3.jpg	MediumLong_e04_stereo_44KHz.wav
1	52	2	2	1	C	2	1	731	1	poli_8sides 6_whiteLine3.jpg	MediumLong_e04_stereo_44KHz.wav
1	53	3	3	2	I	2	0	1449	0	poli_8sides 1_whiteLine3.jpg	Medium_e13_stereo_44KHz.wav
1	54	1	1	1	C	2	1	1222	1	poli_8sides 10_whiteLine3.jpg	Medium_e21_stereo_44KHz.wav
1	55	2	1	0	C	1	1	776	1	poli_8sides 6_whiteLine3.jpg	Medium_e21_stereo_44KHz.wav
1	56	4	4	2	I	2	0	1267	1	poli_8sides 16_whiteLine3.jpg	MediumLong_e19_stereo_44KHz.wav
1	57	1	1	1	C	2	1	1007	1	poli_8sides 10_whiteLine3.jpg	Medium_e21_stereo_44KHz.wav
1	58	4	3	2	I	1	0	779	0	poli_8sides 16_whiteLine3.jpg	Medium_e13_stereo_44KHz.wav
1	59	3	4	2	I	1	0	1274	1	poli_8sides 1_whiteLine3.jpg	MediumLong_e19_stereo_44KHz.wav
1	60	2	1	0	C	1	1	1200	1	poli_8sides 6_whiteLine3.jpg	Medium_e21_stereo_44KHz.wav
1	61	3	3	2	I	2	0	985	1	poli_8sides 1_whiteLine3.jpg	Medium_e13_stereo_44KHz.wav
1	62	4	4	2	I	2	0	1149	0	poli_8sides 16_whiteLine3.jpg	MediumLong_e19_stereo_44KHz.wav
1	63	1	2	0	C	1	1	686	1	poli_8sides 10_whiteLine3.jpg	MediumLong_e04_stereo_44KHz.wav
1	64	2	2	1	C	2	1	875	1	poli_8sides 6_whiteLine3.jpg	MediumLong_e04_stereo_44KHz.wav
1	65	4	4	2	I	1	0	1299	0	poli_8sides 16_whiteLine3.jpg	MediumLong_e19_stereo_44KHz.wav
1	66	1	1	1	C	2	1	807	1	poli_8sides 10_whiteLine3.jpg	Medium_e21_stereo_44KHz.wav
1	67	3	3	2	I	1	0	1465	0	poli_8sides 1_whiteLine3.jpg	Medium_e13_stereo_44KHz.wav
1	68	2	2	1	C	2	1	1286	1	poli_8sides 6_whiteLine3.jpg	MediumLong_e04_stereo_44KHz.wav
1	69	4	3	2	I	1	0	1046	1	poli_8sides 16_whiteLine3.jpg	Medium_e13_stereo_44KHz.wav
1	70	1	2	0	C	1	1	773	1	poli_8sides 10_whiteLine3.jpg	MediumLong_e04_stereo_44KHz.wav
1	71	2	1	0	C	1	1	1091	1	poli_8sides 6_whiteLine3.jpg	Medium_e21_stereo_44KHz.wav
1	72	3	4	2	I	1	0	909	0	poli_8sides 1_whiteLine3.jpg	MediumLong_e19_stereo_44KHz.wav
1	73	4	3	2	I	1	0	1727	0	poli_8sides 16_whiteLine3.jpg	Medium_e13_stereo_44KHz.wav
1	74	1	1	1	C	2	1	889	1	poli_8sides 10_whiteLine3.jpg	Medium_e21_stereo_44KHz.wav
1	75	3	4	2	I	1	0	977	1	poli_8sides 1_whiteLine3.jpg	MediumLong_e19_stereo_44KHz.wav
1	76	2	2	1	C	2	1	859	1	poli_8sides 6_whiteLine3.jpg	MediumLong_e04_stereo_44KHz.wav
1	77	4	4	2	I	2	0	1866	1	poli_8sides 16_whiteLine3.jpg	MediumLong_e19_stereo_44KHz.wav
1	78	3	3	2	I	2	0	879	0	poli_8sides 1_whiteLine3.jpg	Medium_e13_stereo_44KHz.wav
1	79	2	1	0	C	1	1	947	1	poli_8sides 6_whiteLine3.jpg	Medium_e21_stereo_44KHz.wav
1	80	1	2	0	C	1	1	1240	1	poli_8sides 10_whiteLine3.jpg	MediumLong_e04_stereo_44KHz.wav
1	81	2	1	0	C	1	1	940	1	poli_8sides 6_whiteLine3.jpg	Medium_e21_stereo_44KHz.wav
1	82	3	3	2	I	2	0	920	0	poli_8sides 1_whiteLine3.jpg	Medium_e13_stereo_44KHz.wav
1	83	1	2	0	C	1	1	1140	1	poli_8sides 10_whiteLine3.jpg	MediumLong_e04_stereo_44KHz.wav
1	84	4	3	2	I	2	0	1372	0	poli_8sides 16_whiteLine3.jpg	Medium_e13_stereo_44KHz.wav
1	85	3	4	2	I	1	0	1048	1	poli_8sides 1_whiteLine3.jpg	MediumLong_e19_stereo_44KHz.wav
1	86	4	4	2	I	2	0	976	0	poli_8sides 16_whiteLine3.jpg	MediumLong_e19_stereo_44KHz.wav
1	87	1	1	1	C	2	1	735	1	poli_8sides 10_whiteLine3.jpg	Medium_e21_stereo_44KHz.wav
1	88	2	2	1	C	2	1	990	1	poli_8sides 6_whiteLine3.jpg	MediumLong_e04_stereo_44KHz.wav
1	89	3	4	2	I	1	0	891	1	poli_8sides 1_whiteLine3.jpg	MediumLong_e19_stereo_44KHz.wav
1	90	4	3	2	I	1	0	1305	0	poli_8sides 16_whiteLine3.jpg	Medium_e13_stereo_44KHz.wav
1	91	2	2	1	C	2	1	802	1	poli_8sides 6_whiteLine3.jpg	MediumLong_e04_stereo_44KHz.wav
1	92	1	2	0	C	1	1	690	1	poli_8sides 10_whiteLine3.jpg	MediumLong_e04_stereo_44KHz.wav
1	93	3	3	2	I	1	0	932	0	poli_8sides 1_whiteLine3.jpg	Medium_e13_stereo_44KHz.wav
1	94	1	1	1	C	2	1	803	1	poli_8sides 10_whiteLine3.jpg	Medium_e21_stereo_44KHz.wav
1	95	4	4	2	I	2	0	1068	1	poli_8sides 16_whiteLine3.jpg	MediumLong_e19_stereo_44KHz.wav
1	96	2	1	0	C	1	1	993	1	poli_8sides 6_whiteLine3.jpg	Medium_e21_stereo_44KHz.wav
1	97	4	4	2	I	1	0	997	1	poli_8sides 16_whiteLine3.jpg	MediumLong_e19_stereo_44KHz.wav
1	98	1	2	0	C	1	1	677	1	poli_8sides 10_whiteLine3.jpg	MediumLong_e04_stereo_44KHz.wav
1	99	2	2	1	C	2	1	1231	1	poli_8sides 6_whiteLine3.jpg	MediumLong_e04_stereo_44KHz.wav
1	100	3	3	2	I	1	0	1012	0	poli_8sides 1_whiteLine3.jpg	Medium_e13_stereo_44KHz.wav
1	101	1	1	1	C	2	1	791	1	poli_8sides 10_whiteLine3.jpg	Medium_e21_stereo_44KHz.wav
1	102	2	1	0	C	1	1	1038	1	poli_8sides 6_whiteLine3.jpg	Medium_e21_stereo_44KHz.wav
1	103	4	3	2	I	2	0	926	1	poli_8sides 16_whiteLine3.jpg	Medium_e13_stereo_44KHz.wav
1	104	3	4	2	I	1	0	1437	1	poli_8sides 1_whiteLine3.jpg	MediumLong_e19_stereo_44KHz.wav
1	105	4	3	2	I	2	0	1370	1	poli_8sides 16_whiteLine3.jpg	Medium_e13_stereo_44KHz.wav
1	106	2	2	1	C	2	1	733	1	poli_8sides 6_whiteLine3.jpg	MediumLong_e04_stereo_44KHz.wav
1	107	3	4	2	I	2	0	1483	1	poli_8sides 1_whiteLine3.jpg	MediumLong_e19_stereo_44KHz.wav
1	108	1	1	1	C	2	1	850	1	poli_8sides 10_whiteLine3.jpg	Medium_e21_stereo_44KHz.wav
1	109	4	4	2	I	1	0	1509	0	poli_8sides 16_whiteLine3.jpg	MediumLong_e19_stereo_44KHz.wav
1	110	2	1	0	C	1	1	1470	1	poli_8sides 6_whiteLine3.jpg	Medium_e21_stereo_44KHz.wav
1	111	3	3	2	I	2	0	1424	0	poli_8sides 1_whiteLine3.jpg	Medium_e13_stereo_44KHz.wav
1	112	1	2	0	C	1	1	750	1	poli_8sides 10_whiteLine3.jpg	MediumLong_e04_stereo_44KHz.wav
1	113	4	4	2	I	1	0	1165	1	poli_8sides 16_whiteLine3.jpg	MediumLong_e19_stereo_44KHz.wav
1	114	3	3	2	I	2	0	1212	0	poli_8sides 1_whiteLine3.jpg	Medium_e13_stereo_44KHz.wav
1	115	1	1	1	C	2	1	1120	1	poli_8sides 10_whiteLine3.jpg	Medium_e21_stereo_44KHz.wav
1	116	2	1	0	C	2	0	1389	0	poli_8sides 6_whiteLine3.jpg	Medium_e21_stereo_44KHz.wav
1	117	3	4	2	I	1	0	939	0	poli_8sides 1_whiteLine3.jpg	MediumLong_e19_stereo_44KHz.wav
1	118	4	3	2	I	2	0	1923	1	poli_8sides 16_whiteLine3.jpg	Medium_e13_stereo_44KHz.wav
1	119	2	2	1	C	2	1	780	1	poli_8sides 6_whiteLine3.jpg	MediumLong_e04_stereo_44KHz.wav
1	120	1	2	0	C	1	1	1499	1	poli_8sides 10_whiteLine3.jpg	MediumLong_e04_stereo_44KHz.wav
1	121	4	4	2	I	2	0	1572	0	poli_8sides 16_whiteLine3.jpg	MediumLong_e19_stereo_44KHz.wav
1	122	1	1	1	C	2	1	929	1	poli_8sides 10_whiteLine3.jpg	Medium_e21_stereo_44KHz.wav
1	123	3	3	2	I	1	0	1341	0	poli_8sides 1_whiteLine3.jpg	Medium_e13_stereo_44KHz.wav
1	124	2	2	1	C	2	1	644	1	poli_8sides 6_whiteLine3.jpg	MediumLong_e04_stereo_44KHz.wav
1	125	4	3	2	I	1	0	1199	0	poli_8sides 16_whiteLine3.jpg	Medium_e13_stereo_44KHz.wav
1	126	3	4	2	I	1	0	1708	0	poli_8sides 1_whiteLine3.jpg	MediumLong_e19_stereo_44KHz.wav
1	127	1	2	0	C	1	1	817	1	poli_8sides 10_whiteLine3.jpg	MediumLong_e04_stereo_44KHz.wav
1	128	2	1	0	C	1	1	1007	1	poli_8sides 6_whiteLine3.jpg	Medium_e21_stereo_44KHz.wav
1	129	1	2	0	C	1	1	891	1	poli_8sides 10_whiteLine3.jpg	MediumLong_e04_stereo_44KHz.wav
1	130	3	4	2	I	1	0	1152	0	poli_8sides 1_whiteLine3.jpg	MediumLong_e19_stereo_44KHz.wav
1	131	4	4	2	I	0	0	0	0	poli_8sides 16_whiteLine3.jpg	MediumLong_e19_stereo_44KHz.wav
1	132	2	2	1	C	2	1	777	1	poli_8sides 6_whiteLine3.jpg	MediumLong_e04_stereo_44KHz.wav
1	133	1	1	1	C	1	0	855	0	poli_8sides 10_whiteLine3.jpg	Medium_e21_stereo_44KHz.wav
1	134	3	3	2	I	1	0	1177	0	poli_8sides 1_whiteLine3.jpg	Medium_e13_stereo_44KHz.wav
1	135	2	1	0	C	1	1	1881	1	poli_8sides 6_whiteLine3.jpg	Medium_e21_stereo_44KHz.wav
1	136	4	3	2	I	2	0	1862	0	poli_8sides 16_whiteLine3.jpg	Medium_e13_stereo_44KHz.wav
1	137	2	2	1	C	2	1	780	1	poli_8sides 6_whiteLine3.jpg	MediumLong_e04_stereo_44KHz.wav
1	138	3	3	2	I	2	0	1133	0	poli_8sides 1_whiteLine3.jpg	Medium_e13_stereo_44KHz.wav
1	139	4	3	2	I	2	0	795	1	poli_8sides 16_whiteLine3.jpg	Medium_e13_stereo_44KHz.wav
1	140	1	1	1	C	2	1	1157	1	poli_8sides 10_whiteLine3.jpg	Medium_e21_stereo_44KHz.wav
1	141	4	4	2	I	1	0	1153	0	poli_8sides 16_whiteLine3.jpg	MediumLong_e19_stereo_44KHz.wav
1	142	2	1	0	C	2	0	1380	0	poli_8sides 6_whiteLine3.jpg	Medium_e21_stereo_44KHz.wav
1	143	1	2	0	C	1	1	788	1	poli_8sides 10_whiteLine3.jpg	MediumLong_e04_stereo_44KHz.wav
1	144	3	4	2	I	2	0	1163	1	poli_8sides 1_whiteLine3.jpg	MediumLong_e19_stereo_44KHz.wav
1	145	1	1	1	C	2	1	916	1	poli_8sides 10_whiteLine3.jpg	Medium_e21_stereo_44KHz.wav
1	146	4	4	2	I	2	0	1393	0	poli_8sides 16_whiteLine3.jpg	MediumLong_e19_stereo_44KHz.wav
1	147	2	1	0	C	1	1	1472	1	poli_8sides 6_whiteLine3.jpg	Medium_e21_stereo_44KHz.wav
1	148	3	3	2	I	0	0	0	0	poli_8sides 1_whiteLine3.jpg	Medium_e13_stereo_44KHz.wav
1	149	4	3	2	I	2	0	1182	0	poli_8sides 16_whiteLine3.jpg	Medium_e13_stereo_44KHz.wav
1	150	3	4	2	I	2	0	1362	0	poli_8sides 1_whiteLine3.jpg	MediumLong_e19_stereo_44KHz.wav
1	151	2	2	1	C	2	1	808	1	poli_8sides 6_whiteLine3.jpg	MediumLong_e04_stereo_44KHz.wav
1	152	1	2	0	C	1	1	1232	1	poli_8sides 10_whiteLine3.jpg	MediumLong_e04_stereo_44KHz.wav
1	153	3	4	2	I	2	0	1206	1	poli_8sides 1_whiteLine3.jpg	MediumLong_e19_stereo_44KHz.wav
1	154	2	1	0	C	1	1	1317	1	poli_8sides 6_whiteLine3.jpg	Medium_e21_stereo_44KHz.wav
1	155	4	4	2	I	1	0	1439	1	poli_8sides 16_whiteLine3.jpg	MediumLong_e19_stereo_44KHz.wav
1	156	1	2	0	C	1	1	987	1	poli_8sides 10_whiteLine3.jpg	MediumLong_e04_stereo_44KHz.wav
1	157	2	2	1	C	2	1	841	1	poli_8sides 6_whiteLine3.jpg	MediumLong_e04_stereo_44KHz.wav
1	158	4	3	2	I	2	0	1131	1	poli_8sides 16_whiteLine3.jpg	Medium_e13_stereo_44KHz.wav
1	159	1	1	1	C	2	1	978	1	poli_8sides 10_whiteLine3.jpg	Medium_e21_stereo_44KHz.wav
1	160	3	3	2	I	1	0	983	1	poli_8sides 1_whiteLine3.jpg	Medium_e13_stereo_44KHz.wav
1	161	4	4	2	I	1	0	1366	1	poli_8sides 16_whiteLine3.jpg	MediumLong_e19_stereo_44KHz.wav
1	162	1	1	1	C	2	1	1548	1	poli_8sides 10_whiteLine3.jpg	Medium_e21_stereo_44KHz.wav
1	163	3	3	2	I	0	0	0	0	poli_8sides 1_whiteLine3.jpg	Medium_e13_stereo_44KHz.wav
1	164	2	2	1	C	2	1	783	1	poli_8sides 6_whiteLine3.jpg	MediumLong_e04_stereo_44KHz.wav
1	165	1	2	0	C	1	1	895	1	poli_8sides 10_whiteLine3.jpg	MediumLong_e04_stereo_44KHz.wav
1	166	4	3	2	I	2	0	1262	0	poli_8sides 16_whiteLine3.jpg	Medium_e13_stereo_44KHz.wav
1	167	3	4	2	I	1	0	1855	1	poli_8sides 1_whiteLine3.jpg	MediumLong_e19_stereo_44KHz.wav
1	168	2	1	0	C	1	1	1244	1	poli_8sides 6_whiteLine3.jpg	Medium_e21_stereo_44KHz.wav
1	169	1	1	1	C	2	1	904	1	poli_8sides 10_whiteLine3.jpg	Medium_e21_stereo_44KHz.wav
1	170	3	4	2	I	1	0	898	0	poli_8sides 1_whiteLine3.jpg	MediumLong_e19_stereo_44KHz.wav
1	171	2	2	1	C	2	1	758	1	poli_8sides 6_whiteLine3.jpg	MediumLong_e04_stereo_44KHz.wav
1	172	4	3	2	I	2	0	1397	0	poli_8sides 16_whiteLine3.jpg	Medium_e13_stereo_44KHz.wav
1	173	1	2	0	C	1	1	1136	1	poli_8sides 10_whiteLine3.jpg	MediumLong_e04_stereo_44KHz.wav
1	174	4	4	2	I	2	0	1047	1	poli_8sides 16_whiteLine3.jpg	MediumLong_e19_stereo_44KHz.wav
1	175	3	3	2	I	2	0	1090	1	poli_8sides 1_whiteLine3.jpg	Medium_e13_stereo_44KHz.wav
1	176	2	1	0	C	1	1	1184	1	poli_8sides 6_whiteLine3.jpg	Medium_e21_stereo_44KHz.wav
1	177	4	3	2	I	1	0	1021	1	poli_8sides 16_whiteLine3.jpg	Medium_e13_stereo_44KHz.wav
1	178	2	2	1	C	2	1	1056	1	poli_8sides 6_whiteLine3.jpg	MediumLong_e04_stereo_44KHz.wav
1	179	1	1	1	C	2	1	897	1	poli_8sides 10_whiteLine3.jpg	Medium_e21_stereo_44KHz.wav
1	180	3	3	2	I	2	0	1395	1	poli_8sides 1_whiteLine3.jpg	Medium_e13_stereo_44KHz.wav
1	181	1	2	0	C	1	1	906	1	poli_8sides 10_whiteLine3.jpg	MediumLong_e04_stereo_44KHz.wav
1	182	3	4	2	I	1	0	941	1	poli_8sides 1_whiteLine3.jpg	MediumLong_e19_stereo_44KHz.wav
1	183	2	1	0	C	1	1	1368	1	poli_8sides 6_whiteLine3.jpg	Medium_e21_stereo_44KHz.wav
1	184	4	4	2	I	2	0	1390	1	poli_8sides 16_whiteLine3.jpg	MediumLong_e19_stereo_44KHz.wav
1	185	1	1	1	C	2	1	905	1	poli_8sides 10_whiteLine3.jpg	Medium_e21_stereo_44KHz.wav
1	186	3	4	2	I	1	0	1309	0	poli_8sides 1_whiteLine3.jpg	MediumLong_e19_stereo_44KHz.wav
1	187	4	3	2	I	2	0	1394	0	poli_8sides 16_whiteLine3.jpg	Medium_e13_stereo_44KHz.wav
1	188	2	1	0	C	1	1	1075	1	poli_8sides 6_whiteLine3.jpg	Medium_e21_stereo_44KHz.wav
1	189	4	4	2	I	0	0	0	0	poli_8sides 16_whiteLine3.jpg	MediumLong_e19_stereo_44KHz.wav
1	190	3	3	2	I	2	0	1354	0	poli_8sides 1_whiteLine3.jpg	Medium_e13_stereo_44KHz.wav
1	191	1	2	0	C	1	1	972	1	poli_8sides 10_whiteLine3.jpg	MediumLong_e04_stereo_44KHz.wav
1	192	2	2	1	C	2	1	1283	1	poli_8sides 6_whiteLine3.jpg	MediumLong_e04_stereo_44KHz.wav
1	193	1	1	1	C	2	1	1126	1	poli_8sides 10_whiteLine3.jpg	Medium_e21_stereo_44KHz.wav
1	194	3	4	2	I	2	0	1344	0	poli_8sides 1_whiteLine3.jpg	MediumLong_e19_stereo_44KHz.wav
1	195	2	1	0	C	1	1	1847	1	poli_8sides 6_whiteLine3.jpg	Medium_e21_stereo_44KHz.wav
1	196	4	3	2	I	1	0	1036	0	poli_8sides 16_whiteLine3.jpg	Medium_e13_stereo_44KHz.wav
1	197	3	3	2	I	2	0	1052	0	poli_8sides 1_whiteLine3.jpg	Medium_e13_stereo_44KHz.wav
1	198	4	4	2	I	0	0	0	0	poli_8sides 16_whiteLine3.jpg	MediumLong_e19_stereo_44KHz.wav
1	199	2	2	1	C	2	1	923	1	poli_8sides 6_whiteLine3.jpg	MediumLong_e04_stereo_44KHz.wav
1	200	1	2	0	C	1	1	855	1	poli_8sides 10_whiteLine3.jpg	MediumLong_e04_stereo_44KHz.wav
2	1	3	3	2	I	2	0	1254	1	poli_8sides 5_whiteLine3.jpg	Short_b09_cut1_stereo_44KHz.wav
2	2	4	3	2	I	1	0	767	0	poli_8sides 3_whiteLine3.jpg	Short_b09_cut1_stereo_44KHz.wav
2	3	1	1	1	C	2	1	1833	1	poli_8sides 9_whiteLine3.jpg	Short_b23_cut1_stereo_44KHz.wav
2	4	2	2	1	C	2	1	964	1	poli_8sides 18_whiteLine3.jpg	Short_b20_cut1_stereo_44KHz.wav
2	5	4	4	2	I	1	0	614	0	poli_8sides 3_whiteLine3.jpg	Short_b22_cut1_stereo_44KHz.wav
2	6	1	2	0	C	1	1	537	1	poli_8sides 9_whiteLine3.jpg	Short_b20_cut1_stereo_44KHz.wav
2	7	3	4	2	I	2	0	905	0	poli_8sides 5_whiteLine3.jpg	Short_b22_cut1_stereo_44KHz.wav
2	8	2	1	0	C	1	1	1048	1	poli_8sides 18_whiteLine3.jpg	Short_b23_cut1_stereo_44KHz.wav
2	9	1	2	0	C	2	0	1116	0	poli_8sides 9_whiteLine3.jpg	Short_b20_cut1_stereo_44KHz.wav
2	10	4	4	2	I	2	0	1374	0	poli_8sides 3_whiteLine3.jpg	Short_b22_cut1_stereo_44KHz.wav
2	11	3	3	2	I	1	0	1590	0	poli_8sides 5_whiteLine3.jpg	Short_b09_cut1_stereo_44KHz.wav
2	12	2	1	0	C	1	1	1371	1	poli_8sides 18_whiteLine3.jpg	Short_b23_cut1_stereo_44KHz.wav
2	13	3	4	2	I	1	0	1504	1	poli_8sides 5_whiteLine3.jpg	Short_b22_cut1_stereo_44KHz.wav
2	14	1	1	1	C	2	1	954	1	poli_8sides 9_whiteLine3.jpg	Short_b23_cut1_stereo_44KHz.wav
2	15	4	3	2	I	1	0	1186	1	poli_8sides 3_whiteLine3.jpg	Short_b09_cut1_stereo_44KHz.wav
2	16	2	2	1	C	2	1	1252	1	poli_8sides 18_whiteLine3.jpg	Short_b20_cut1_stereo_44KHz.wav
2	17	3	3	2	I	1	0	1782	0	poli_8sides 5_whiteLine3.jpg	Short_b09_cut1_stereo_44KHz.wav
2	18	2	2	1	C	2	1	1870	1	poli_8sides 18_whiteLine3.jpg	Short_b20_cut1_stereo_44KHz.wav
2	19	4	4	2	I	2	0	1083	1	poli_8sides 3_whiteLine3.jpg	Short_b22_cut1_stereo_44KHz.wav
2	20	1	2	0	C	1	1	1592	1	poli_8sides 9_whiteLine3.jpg	Short_b20_cut1_stereo_44KHz.wav
2	21	3	4	2	I	2	0	1494	0	poli_8sides 5_whiteLine3.jpg	Short_b22_cut1_stereo_44KHz.wav
2	22	4	3	2	I	2	0	1071	1	poli_8sides 3_whiteLine3.jpg	Short_b09_cut1_stereo_44KHz.wav
2	23	1	1	1	C	2	1	1220	1	poli_8sides 9_whiteLine3.jpg	Short_b23_cut1_stereo_44KHz.wav
2	24	2	1	0	C	1	1	1136	1	poli_8sides 18_whiteLine3.jpg	Short_b23_cut1_stereo_44KHz.wav
2	25	1	2	0	C	0	0	0	0	poli_8sides 9_whiteLine3.jpg	Short_b20_cut1_stereo_44KHz.wav
2	26	2	1	0	C	1	1	1415	1	poli_8sides 18_whiteLine3.jpg	Short_b23_cut1_stereo_44KHz.wav
2	27	4	4	2	I	2	0	883	0	poli_8sides 3_whiteLine3.jpg	Short_b22_cut1_stereo_44KHz.wav
2	28	3	4	2	I	0	0	0	0	poli_8sides 5_whiteLine3.jpg	Short_b22_cut1_stereo_44KHz.wav
2	29	2	2	1	C	2	1	1005	1	poli_8sides 18_whiteLine3.jpg	Short_b20_cut1_stereo_44KHz.wav
2	30	1	1	1	C	1	0	1550	0	poli_8sides 9_whiteLine3.jpg	Short_b23_cut1_stereo_44KHz.wav
2	31	3	3	2	I	2	0	1460	0	poli_8sides 5_whiteLine3.jpg	Short_b09_cut1_stereo_44KHz.wav
2	32	4	3	2	I	1	0	829	1	poli_8sides 3_whiteLine3.jpg	Short_b09_cut1_stereo_44KHz.wav
2	33	1	2	0	C	1	1	1181	1	poli_8sides 9_whiteLine3.jpg	Short_b20_cut1_stereo_44KHz.wav
2	34	2	2	1	C	2	1	928	1	poli_8sides 18_whiteLine3.jpg	Short_b20_cut1_stereo_44KHz.wav
2	35	4	3	2	I	2	0	1083	1	poli_8sides 3_whiteLine3.jpg	Short_b09_cut1_stereo_44KHz.wav
2	36	3	3	2	I	2	0	1192	0	poli_8sides 5_whiteLine3.jpg	Short_b09_cut1_stereo_44KHz.wav
2	37	2	1	0	C	1	1	1359	1	poli_8sides 18_whiteLine3.jpg	Short_b23_cut1_stereo_44KHz.wav
2	38	3	4	2	I	2	0	926	1	poli_8sides 5_whiteLine3.jpg	Short_b22_cut1_stereo_44KHz.wav
2	39	4	4	2	I	2	0	757	0	poli_8sides 3_whiteLine3.jpg	Short_b22_cut1_stereo_44KHz.wav
2	40	1	1	1	C	2	1	1051	1	poli_8sides 9_whiteLine3.jpg	Short_b23_cut1_stereo_44KHz.wav
2	41	3	3	2	I	1	0	1797	0	poli_8sides 5_whiteLine3.jpg	Short_b09_cut1_stereo_44KHz.wav
2	42	4	3	2	I	2	0	1414	1	poli_8sides 3_whiteLine3.jpg	Short_b09_cut1_stereo_44KHz.wav
2	43	2	2	1	C	2	1	1325	1	poli_8sides 18_whiteLine3.jpg	Short_b20_cut1_stereo_44KHz.wav
2	44	1	2	0	C	2	0	1442	0	poli_8sides 9_whiteLine3.jpg	Short_b20_cut1_stereo_44KHz.wav
2	45	2	1	0	C	1	1	1726	1	poli_8sides 18_whiteLine3.jpg	Short_b23_cut1_stereo_44KHz.wav
2	46	1	1	1	C	2	1	855	1	poli_8sides 9_whiteLine3.jpg	Short_b23_cut1_stereo_44KHz.wav
2	47	4	4	2	I	2	0	848	1	poli_8sides 3_whiteLine3.jpg	Short_b22_cut1_stereo_44KHz.wav
2	48	3	4	2	I	2	0	1261	0	poli_8sides 5_whiteLine3.jpg	Short_b22_cut1_stereo_44KHz.wav
2	49	1	1	1	C	2	1	1145	1	poli_8sides 9_whiteLine3.jpg	Short_b23_cut1_stereo_44KHz.wav
2	50	2	2	1	C	2	1	1176	1	poli_8sides 18_whiteLine3.jpg	Short_b20_cut1_stereo_44KHz.wav
2	51	4	4	2	I	2	0	750	0	poli_8sides 3_whiteLine3.jpg	Short_b22_cut1_stereo_44KHz.wav
2	52	3	3	2	I	1	0	1911	1	poli_8sides 5_whiteLine3.jpg	Short_b09_cut1_stereo_44KHz.wav
2	53	4	3	2	I	2	0	1225	1	poli_8sides 3_whiteLine3.jpg	Short_b09_cut1_stereo_44KHz.wav
2	54	2	1	0	C	1	1	1073	1	poli_8sides 18_whiteLine3.jpg	Short_b23_cut1_stereo_44KHz.wav
2	55	3	4	2	I	2	0	1792	1	poli_8sides 5_whiteLine3.jpg	Short_b22_cut1_stereo_44KHz.wav
2	56	1	2	0	C	1	1	1281	1	poli_8sides 9_whiteLine3.jpg	Short_b20_cut1_stereo_44KHz.wav
2	57	2	1	0	C	1	1	1416	1	poli_8sides 18_whiteLine3.jpg	Short_b23_cut1_stereo_44KHz.wav
2	58	3	3	2	I	1	0	1542	0	poli_8sides 5_whiteLine3.jpg	Short_b09_cut1_stereo_44KHz.wav
2	59	4	4	2	I	1	0	1449	0	poli_8sides 3_whiteLine3.jpg	Short_b22_cut1_stereo_44KHz.wav
2	60	1	2	0	C	2	0	1598	0	poli_8sides 9_whiteLine3.jpg	Short_b20_cut1_stereo_44KHz.wav
2	61	3	4	2	I	2	0	1783	1	poli_8sides 5_whiteLine3.jpg	Short_b22_cut1_stereo_44KHz.wav
2	62	2	2	1	C	2	1	793	1	poli_8sides 18_whiteLine3.jpg	Short_b20_cut1_stereo_44KHz.wav
2	63	4	3	2	I	1	0	1020	1	poli_8sides 3_whiteLine3.jpg	Short_b09_cut1_stereo_44KHz.wav
2	64	1	1	1	C	2	1	1263	1	poli_8sides 9_whiteLine3.jpg	Short_b23_cut1_stereo_44KHz.wav
2	65	3	4	2	I	2	0	1089	1	poli_8sides 5_whiteLine3.jpg	Short_b22_cut1_stereo_44KHz.wav
2	66	4	4	2	I	2	0	1198	0	poli_8sides 3_whiteLine3.jpg	Short_b22_cut1_stereo_44KHz.wav
2	67	1	1	1	C	2	1	1295	1	poli_8sides 9_whiteLine3.jpg	Short_b23_cut1_stereo_44KHz.wav
2	68	2	2	1	C	2	1	927	1	poli_8sides 18_whiteLine3.jpg	Short_b20_cut1_stereo_44KHz.wav
2	69	3	3	2	I	1	0	1719	1	poli_8sides 5_whiteLine3.jpg	Short_b09_cut1_stereo_44KHz.wav
2	70	2	1	0	C	2	0	933	0	poli_8sides 18_whiteLine3.jpg	Short_b23_cut1_stereo_44KHz.wav
2	71	1	2	0	C	1	1	935	1	poli_8sides 9_whiteLine3.jpg	Short_b20_cut1_stereo_44KHz.wav
2	72	4	3	2	I	1	0	888	0	poli_8sides 3_whiteLine3.jpg	Short_b09_cut1_stereo_44KHz.wav
2	73	3	4	2	I	2	0	1573	0	poli_8sides 5_whiteLine3.jpg	Short_b22_cut1_stereo_44KHz.wav
2	74	1	2	0	C	1	1	1485	1	poli_8sides 9_whiteLine3.jpg	Short_b20_cut1_stereo_44KHz.wav
2	75	2	1	0	C	1	1	1548	1	poli_8sides 18_whiteLine3.jpg	Short_b23_cut1_stereo_44KHz.wav
2	76	4	4	2	I	0	0	0	0	poli_8sides 3_whiteLine3.jpg	Short_b22_cut1_stereo_44KHz.wav
2	77	1	1	1	C	2	1	973	1	poli_8sides 9_whiteLine3.jpg	Short_b23_cut1_stereo_44KHz.wav
2	78	4	3	2	I	1	0	879	0	poli_8sides 3_whiteLine3.jpg	Short_b09_cut1_stereo_44KHz.wav
2	79	3	3	2	I	0	0	0	0	poli_8sides 5_whiteLine3.jpg	Short_b09_cut1_stereo_44KHz.wav
2	80	2	2	1	C	2	1	1405	1	poli_8sides 18_whiteLine3.jpg	Short_b20_cut1_stereo_44KHz.wav
2	81	3	3	2	I	1	0	1130	1	poli_8sides 5_whiteLine3.jpg	Short_b09_cut1_stereo_44KHz.wav
2	82	4	3	2	I	1	0	897	0	poli_8sides 3_whiteLine3.jpg	Short_b09_cut1_stereo_44KHz.wav
2	83	2	1	0	C	1	1	879	1	poli_8sides 18_whiteLine3.jpg	Short_b23_cut1_stereo_44KHz.wav
2	84	1	2	0	C	1	1	948	1	poli_8sides 9_whiteLine3.jpg	Short_b20_cut1_stereo_44KHz.wav
2	85	2	2	1	C	2	1	1346	1	poli_8sides 18_whiteLine3.jpg	Short_b20_cut1_stereo_44KHz.wav
2	86	4	4	2	I	1	0	882	1	poli_8sides 3_whiteLine3.jpg	Short_b22_cut1_stereo_44KHz.wav
2	87	3	4	2	I	2	0	985	1	poli_8sides 5_whiteLine3.jpg	Short_b22_cut1_stereo_44KHz.wav
2	88	1	1	1	C	2	1	1058	1	poli_8sides 9_whiteLine3.jpg	Short_b23_cut1_stereo_44KHz.wav
2	89	2	2	1	C	2	1	806	1	poli_8sides 18_whiteLine3.jpg	Short_b20_cut1_stereo_44KHz.wav
2	90	3	4	2	I	2	0	1062	1	poli_8sides 5_whiteLine3.jpg	Short_b22_cut1_stereo_44KHz.wav
2	91	4	3	2	I	1	0	849	1	poli_8sides 3_whiteLine3.jpg	Short_b09_cut1_stereo_44KHz.wav
2	92	1	1	1	C	2	1	1379	1	poli_8sides 9_whiteLine3.jpg	Short_b23_cut1_stereo_44KHz.wav
2	93	4	4	2	I	1	0	1325	1	poli_8sides 3_whiteLine3.jpg	Short_b22_cut1_stereo_44KHz.wav
2	94	3	3	2	I	1	0	1091	1	poli_8sides 5_whiteLine3.jpg	Short_b09_cut1_stereo_44KHz.wav
2	95	1	2	0	C	1	1	920	1	poli_8sides 9_whiteLine3.jpg	Short_b20_cut1_stereo_44KHz.wav
2	96	2	1	0	C	1	1	926	1	poli_8sides 18_whiteLine3.jpg	Short_b23_cut1_stereo_44KHz.wav
2	97	3	4	2	I	2	0	1176	0	poli_8sides 5_whiteLine3.jpg	Short_b22_cut1_stereo_44KHz.wav
2	98	2	1	0	C	1	1	1518	1	poli_8sides 18_whiteLine3.jpg	Short_b23_cut1_stereo_44KHz.wav
2	99	1	2	0	C	1	1	1035	1	poli_8sides 9_whiteLine3.jpg	Short_b20_cut1_stereo_44KHz.wav
2	100	4	3	2	I	1	0	827	1	poli_8sides 3_whiteLine3.jpg	Short_b09_cut1_stereo_44KHz.wav
2	101	2	2	1	C	2	1	807	1	poli_8sides 18_whiteLine3.jpg	Short_b20_cut1_stereo_44KHz.wav
2	102	4	4	2	I	1	0	1273	1	poli_8sides 3_whiteLine3.jpg	Short_b22_cut1_stereo_44KHz.wav
2	103	3	3	2	I	1	0	1439	1	poli_8sides 5_whiteLine3.jpg	Short_b09_cut1_stereo_44KHz.wav
2	104	1	1	1	C	2	1	1054	1	poli_8sides 9_whiteLine3.jpg	Short_b23_cut1_stereo_44KHz.wav
2	105	3	3	2	I	1	0	1358	1	poli_8sides 5_whiteLine3.jpg	Short_b09_cut1_stereo_44KHz.wav
2	106	4	4	2	I	1	0	988	0	poli_8sides 3_whiteLine3.jpg	Short_b22_cut1_stereo_44KHz.wav
2	107	2	1	0	C	1	1	865	1	poli_8sides 18_whiteLine3.jpg	Short_b23_cut1_stereo_44KHz.wav
2	108	1	1	1	C	2	1	1089	1	poli_8sides 9_whiteLine3.jpg	Short_b23_cut1_stereo_44KHz.wav
2	109	4	3	2	I	1	0	1313	0	poli_8sides 3_whiteLine3.jpg	Short_b09_cut1_stereo_44KHz.wav
2	110	1	2	0	C	1	1	875	1	poli_8sides 9_whiteLine3.jpg	Short_b20_cut1_stereo_44KHz.wav
2	111	2	2	1	C	2	1	1053	1	poli_8sides 18_whiteLine3.jpg	Short_b20_cut1_stereo_44KHz.wav
2	112	3	4	2	I	2	0	1751	0	poli_8sides 5_whiteLine3.jpg	Short_b22_cut1_stereo_44KHz.wav
2	113	4	4	2	I	0	0	0	0	poli_8sides 3_whiteLine3.jpg	Short_b22_cut1_stereo_44KHz.wav
2	114	1	1	1	C	2	1	1017	1	poli_8sides 9_whiteLine3.jpg	Short_b23_cut1_stereo_44KHz.wav
2	115	2	1	0	C	2	0	1911	0	poli_8sides 18_whiteLine3.jpg	Short_b23_cut1_stereo_44KHz.wav
2	116	3	4	2	I	2	0	1260	0	poli_8sides 5_whiteLine3.jpg	Short_b22_cut1_stereo_44KHz.wav
2	117	1	2	0	C	1	1	1390	1	poli_8sides 9_whiteLine3.jpg	Short_b20_cut1_stereo_44KHz.wav
2	118	2	2	1	C	2	1	793	1	poli_8sides 18_whiteLine3.jpg	Short_b20_cut1_stereo_44KHz.wav
2	119	3	3	2	I	0	0	0	0	poli_8sides 5_whiteLine3.jpg	Short_b09_cut1_stereo_44KHz.wav
2	120	4	3	2	I	2	0	1266	0	poli_8sides 3_whiteLine3.jpg	Short_b09_cut1_stereo_44KHz.wav
2	121	3	4	2	I	1	0	938	1	poli_8sides 5_whiteLine3.jpg	Short_b22_cut1_stereo_44KHz.wav
2	122	1	1	1	C	2	1	945	1	poli_8sides 9_whiteLine3.jpg	Short_b23_cut1_stereo_44KHz.wav
2	123	4	3	2	I	2	0	1000	0	poli_8sides 3_whiteLine3.jpg	Short_b09_cut1_stereo_44KHz.wav
2	124	2	2	1	C	2	1	747	1	poli_8sides 18_whiteLine3.jpg	Short_b20_cut1_stereo_44KHz.wav
2	125	1	2	0	C	1	1	755	1	poli_8sides 9_whiteLine3.jpg	Short_b20_cut1_stereo_44KHz.wav
2	126	2	1	0	C	1	1	936	1	poli_8sides 18_whiteLine3.jpg	Short_b23_cut1_stereo_44KHz.wav
2	127	3	3	2	I	1	0	1490	0	poli_8sides 5_whiteLine3.jpg	Short_b09_cut1_stereo_44KHz.wav
2	128	4	4	2	I	2	0	1458	1	poli_8sides 3_whiteLine3.jpg	Short_b22_cut1_stereo_44KHz.wav
2	129	2	1	0	C	1	1	680	1	poli_8sides 18_whiteLine3.jpg	Short_b23_cut1_stereo_44KHz.wav
2	130	3	3	2	I	2	0	1358	1	poli_8sides 5_whiteLine3.jpg	Short_b09_cut1_stereo_44KHz.wav
2	131	1	1	1	C	2	1	1170	1	poli_8sides 9_whiteLine3.jpg	Short_b23_cut1_stereo_44KHz.wav
2	132	4	4	2	I	2	0	1234	1	poli_8sides 3_whiteLine3.jpg	Short_b22_cut1_stereo_44KHz.wav
2	133	3	4	2	I	2	0	1595	0	poli_8sides 5_whiteLine3.jpg	Short_b22_cut1_stereo_44KHz.wav
2	134	1	2	0	C	1	1	1204	1	poli_8sides 9_whiteLine3.jpg	Short_b20_cut1_stereo_44KHz.wav
2	135	2	2	1	C	2	1	1050	1	poli_8sides 18_whiteLine3.jpg	Short_b20_cut1_stereo_44KHz.wav
2	136	4	3	2	I	1	0	1793	1	poli_8sides 3_whiteLine3.jpg	Short_b09_cut1_stereo_44KHz.wav
2	137	2	1	0	C	1	1	676	1	poli_8sides 18_whiteLine3.jpg	Short_b23_cut1_stereo_44KHz.wav
2	138	3	4	2	I	1	0	1205	0	poli_8sides 5_whiteLine3.jpg	Short_b22_cut1_stereo_44KHz.wav
2	139	4	3	2	I	1	0	640	1	poli_8sides 3_whiteLine3.jpg	Short_b09_cut1_stereo_44KHz.wav
2	140	1	1	1	C	2	1	1192	1	poli_8sides 9_whiteLine3.jpg	Short_b23_cut1_stereo_44KHz.wav
2	141	2	2	1	C	2	1	744	1	poli_8sides 18_whiteLine3.jpg	Short_b20_cut1_stereo_44KHz.wav
2	142	3	3	2	I	1	0	1679	0	poli_8sides 5_whiteLine3.jpg	Short_b09_cut1_stereo_44KHz.wav
2	143	1	2	0	C	1	1	1312	1	poli_8sides 9_whiteLine3.jpg	Short_b20_cut1_stereo_44KHz.wav
2	144	4	4	2	I	2	0	895	1	poli_8sides 3_whiteLine3.jpg	Short_b22_cut1_stereo_44KHz.wav
2	145	3	4	2	I	1	0	1579	0	poli_8sides 5_whiteLine3.jpg	Short_b22_cut1_stereo_44KHz.wav
2	146	1	1	1	C	2	1	1132	1	poli_8sides 9_whiteLine3.jpg	Short_b23_cut1_stereo_44KHz.wav
2	147	4	4	2	I	2	0	917	0	poli_8sides 3_whiteLine3.jpg	Short_b22_cut1_stereo_44KHz.wav
2	148	2	1	0	C	1	1	757	1	poli_8sides 18_whiteLine3.jpg	Short_b23_cut1_stereo_44KHz.wav
2	149	1	2	0	C	1	1	739	1	poli_8sides 9_whiteLine3.jpg	Short_b20_cut1_stereo_44KHz.wav
2	150	2	2	1	C	2	1	691	1	poli_8sides 18_whiteLine3.jpg	Short_b20_cut1_stereo_44KHz.wav
2	151	4	3	2	I	1	0	984	0	poli_8sides 3_whiteLine3.jpg	Short_b09_cut1_stereo_44KHz.wav
2	152	3	3	2	I	2	0	1119	1	poli_8sides 5_whiteLine3.jpg	Short_b09_cut1_stereo_44KHz.wav
2	153	4	4	2	I	1	0	1248	0	poli_8sides 3_whiteLine3.jpg	Short_b22_cut1_stereo_44KHz.wav
2	154	1	2	0	C	1	1	938	1	poli_8sides 9_whiteLine3.jpg	Short_b20_cut1_stereo_44KHz.wav
2	155	2	1	0	C	1	1	895	1	poli_8sides 18_whiteLine3.jpg	Short_b23_cut1_stereo_44KHz.wav
2	156	3	4	2	I	2	0	1408	1	poli_8sides 5_whiteLine3.jpg	Short_b22_cut1_stereo_44KHz.wav
2	157	4	3	2	I	1	0	1386	0	poli_8sides 3_whiteLine3.jpg	Short_b09_cut1_stereo_44KHz.wav
2	158	1	1	1	C	2	1	1253	1	poli_8sides 9_whiteLine3.jpg	Short_b23_cut1_stereo_44KHz.wav
2	159	3	3	2	I	1	0	1119	1	poli_8sides 5_whiteLine3.jpg	Short_b09_cut1_stereo_44KHz.wav
2	160	2	2	1	C	2	1	862	1	poli_8sides 18_whiteLine3.jpg	Short_b20_cut1_stereo_44KHz.wav
2	161	1	1	1	C	1	0	1582	0	poli_8sides 9_whiteLine3.jpg	Short_b23_cut1_stereo_44KHz.wav
2	162	4	3	2	I	2	0	1120	1	poli_8sides 3_whiteLine3.jpg	Short_b09_cut1_stereo_44KHz.wav
2	163	2	1	0	C	2	0	1293	0	poli_8sides 18_whiteLine3.jpg	Short_b23_cut1_stereo_44KHz.wav
2	164	3	4	2	I	1	0	1686	1	poli_8sides 5_whiteLine3.jpg	Short_b22_cut1_stereo_44KHz.wav
2	165	2	2	1	C	2	1	792	1	poli_8sides 18_whiteLine3.jpg	Short_b20_cut1_stereo_44KHz.wav
2	166	1	2	0	C	1	1	1659	1	poli_8sides 9_whiteLine3.jpg	Short_b20_cut1_stereo_44KHz.wav
2	167	4	4	2	I	1	0	1091	1	poli_8sides 3_whiteLine3.jpg	Short_b22_cut1_stereo_44KHz.wav
2	168	3	3	2	I	2	0	1146	1	poli_8sides 5_whiteLine3.jpg	Short_b09_cut1_stereo_44KHz.wav
2	169	4	4	2	I	1	0	925	0	poli_8sides 3_whiteLine3.jpg	Short_b22_cut1_stereo_44KHz.wav
2	170	1	2	0	C	2	0	1041	0	poli_8sides 9_whiteLine3.jpg	Short_b20_cut1_stereo_44KHz.wav
2	171	2	1	0	C	1	1	1550	1	poli_8sides 18_whiteLine3.jpg	Short_b23_cut1_stereo_44KHz.wav
2	172	3	4	2	I	1	0	1114	0	poli_8sides 5_whiteLine3.jpg	Short_b22_cut1_stereo_44KHz.wav
2	173	4	3	2	I	1	0	1262	0	poli_8sides 3_whiteLine3.jpg	Short_b09_cut1_stereo_44KHz.wav
2	174	1	1	1	C	2	1	1067	1	poli_8sides 9_whiteLine3.jpg	Short_b23_cut1_stereo_44KHz.wav
2	175	2	2	1	C	2	1	1306	1	poli_8sides 18_whiteLine3.jpg	Short_b20_cut1_stereo_44KHz.wav
2	176	3	3	2	I	1	0	1205	1	poli_8sides 5_whiteLine3.jpg	Short_b09_cut1_stereo_44KHz.wav
2	177	4	3	2	I	1	0	1097	1	poli_8sides 3_whiteLine3.jpg	Short_b09_cut1_stereo_44KHz.wav
2	178	3	3	2	I	2	0	1150	0	poli_8sides 5_whiteLine3.jpg	Short_b09_cut1_stereo_44KHz.wav
2	179	1	1	1	C	1	0	1846	0	poli_8sides 9_whiteLine3.jpg	Short_b23_cut1_stereo_44KHz.wav
2	180	2	2	1	C	2	1	862	1	poli_8sides 18_whiteLine3.jpg	Short_b20_cut1_stereo_44KHz.wav
2	181	3	4	2	I	1	0	767	0	poli_8sides 5_whiteLine3.jpg	Short_b22_cut1_stereo_44KHz.wav
2	182	1	2	0	C	1	1	846	1	poli_8sides 9_whiteLine3.jpg	Short_b20_cut1_stereo_44KHz.wav
2	183	2	1	0	C	2	0	1045	0	poli_8sides 18_whiteLine3.jpg	Short_b23_cut1_stereo_44KHz.wav
2	184	4	4	2	I	2	0	1111	1	poli_8sides 3_whiteLine3.jpg	Short_b22_cut1_stereo_44KHz.wav
2	185	3	4	2	I	1	0	1137	0	poli_8sides 5_whiteLine3.jpg	Short_b22_cut1_stereo_44KHz.wav
2	186	2	1	0	C	1	1	1053	1	poli_8sides 18_whiteLine3.jpg	Short_b23_cut1_stereo_44KHz.wav
2	187	4	3	2	I	2	0	1027	1	poli_8sides 3_whiteLine3.jpg	Short_b09_cut1_stereo_44KHz.wav
2	188	1	2	0	C	1	1	747	1	poli_8sides 9_whiteLine3.jpg	Short_b20_cut1_stereo_44KHz.wav
2	189	2	2	1	C	2	1	774	1	poli_8sides 18_whiteLine3.jpg	Short_b20_cut1_stereo_44KHz.wav
2	190	4	4	2	I	1	0	1014	0	poli_8sides 3_whiteLine3.jpg	Short_b22_cut1_stereo_44KHz.wav
2	191	1	1	1	C	2	1	1055	1	poli_8sides 9_whiteLine3.jpg	Short_b23_cut1_stereo_44KHz.wav
2	192	3	3	2	I	1	0	1573	0	poli_8sides 5_whiteLine3.jpg	Short_b09_cut1_stereo_44KHz.wav
2	193	2	2	1	C	2	1	783	1	poli_8sides 18_whiteLine3.jpg	Short_b20_cut1_stereo_44KHz.wav
2	194	3	4	2	I	2	0	975	1	poli_8sides 5_whiteLine3.jpg	Short_b22_cut1_stereo_44KHz.wav
2	195	4	3	2	I	1	0	898	0	poli_8sides 3_whiteLine3.jpg	Short_b09_cut1_stereo_44KHz.wav
2	196	1	2	0	C	2	0	841	0	poli_8sides 9_whiteLine3.jpg	Short_b20_cut1_stereo_44KHz.wav
2	197	2	1	0	C	1	1	1404	1	poli_8sides 18_whiteLine3.jpg	Short_b23_cut1_stereo_44KHz.wav
2	198	1	1	1	C	2	1	1088	1	poli_8sides 9_whiteLine3.jpg	Short_b23_cut1_stereo_44KHz.wav
2	199	3	3	2	I	2	0	1065	1	poli_8sides 5_whiteLine3.jpg	Short_b09_cut1_stereo_44KHz.wav
2	200	4	4	2	I	1	0	907	0	poli_8sides 3_whiteLine3.jpg	Short_b22_cut1_stereo_44KHz.wav
3	1	1	1	1	C	0	0	0	0	poli_8sides 4_whiteLine3.jpg	MediumShort_b10_cut1_MS_stereo_44KHz.wav
3	2	4	4	2	I	1	0	1122	0	poli_8sides 8_whiteLine3.jpg	MediumShort_b16_cut3_MS_stereo_44KHz.wav
3	3	3	4	2	I	1	0	1048	1	poli_8sides 7_whiteLine3.jpg	MediumShort_b16_cut3_MS_stereo_44KHz.wav
3	4	2	1	0	C	1	1	1341	1	poli_8sides 15_whiteLine3.jpg	MediumShort_b10_cut1_MS_stereo_44KHz.wav
3	5	4	3	2	I	1	0	1412	1	poli_8sides 8_whiteLine3.jpg	MediumShort_e22_cut1_stereo_44KHz.wav
3	6	2	2	1	C	2	1	1377	1	poli_8sides 15_whiteLine3.jpg	MediumShort_e16_cut1_stereo_44KHz.wav
3	7	1	2	0	C	1	1	1233	1	poli_8sides 4_whiteLine3.jpg	MediumShort_e16_cut1_stereo_44KHz.wav
3	8	3	3	2	I	2	0	1860	0	poli_8sides 7_whiteLine3.jpg	MediumShort_e22_cut1_stereo_44KHz.wav
3	9	1	2	0	C	1	1	1432	1	poli_8sides 4_whiteLine3.jpg	MediumShort_e16_cut1_stereo_44KHz.wav
3	10	2	2	1	C	1	0	1936	0	poli_8sides 15_whiteLine3.jpg	MediumShort_e16_cut1_stereo_44KHz.wav
3	11	3	3	2	I	1	0	1207	1	poli_8sides 7_whiteLine3.jpg	MediumShort_e22_cut1_stereo_44KHz.wav
3	12	4	3	2	I	1	0	1226	0	poli_8sides 8_whiteLine3.jpg	MediumShort_e22_cut1_stereo_44KHz.wav
3	13	3	4	2	I	1	0	1089	0	poli_8sides 7_whiteLine3.jpg	MediumShort_b16_cut3_MS_stereo_44KHz.wav
3	14	2	1	0	C	2	0	1241	0	poli_8sides 15_whiteLine3.jpg	MediumShort_b10_cut1_MS_stereo_44KHz.wav
3	15	4	4	2	I	2	0	1067	0	poli_8sides 8_whiteLine3.jpg	MediumShort_b16_cut3_MS_stereo_44KHz.wav
3	16	1	1	1	C	1	0	1109	0	poli_8sides 4_whiteLine3.jpg	MediumShort_b10_cut1_MS_stereo_44KHz.wav
3	17	3	4	2	I	2	0	1268	0	poli_8sides 7_whiteLine3.jpg	MediumShort_b16_cut3_MS_stereo_44KHz.wav
3	18	4	4	2	I	2	0	1282	0	poli_8sides 8_whiteLine3.jpg	MediumShort_b16_cut3_MS_stereo_44KHz.wav
3	19	2	1	0	C	1	1	1381	1	poli_8sides 15_whiteLine3.jpg	MediumShort_b10_cut1_MS_stereo_44KHz.wav
3	20	1	1	1	C	1	0	1108	0	poli_8sides 4_whiteLine3.jpg	MediumShort_b10_cut1_MS_stereo_44KHz.wav
3	21	3	3	2	I	1	0	1220	1	poli_8sides 7_whiteLine3.jpg	MediumShort_e22_cut1_stereo_44KHz.wav
3	22	2	2	1	C	1	0	1266	0	poli_8sides 15_whiteLine3.jpg	MediumShort_e16_cut1_stereo_44KHz.wav
3	23	4	3	2	I	1	0	903	1	poli_8sides 8_whiteLine3.jpg	MediumShort_e22_cut1_stereo_44KHz.wav
3	24	1	2	0	C	2	0	1020	0	poli_8sides 4_whiteLine3.jpg	MediumShort_e16_cut1_stereo_44KHz.wav
3	25	2	2	1	C	1	0	845	0	poli_8sides 15_whiteLine3.jpg	MediumShort_e16_cut1_stereo_44KHz.wav
3	26	1	2	0	C	1	1	971	1	poli_8sides 4_whiteLine3.jpg	MediumShort_e16_cut1_stereo_44KHz.wav
3	27	3	4	2	I	2	0	1269	1	poli_8sides 7_whiteLine3.jpg	MediumShort_b16_cut3_MS_stereo_44KHz.wav
3	28	4	3	2	I	1	0	916	1	poli_8sides 8_whiteLine3.jpg	MediumShort_e22_cut1_stereo_44KHz.wav
3	29	3	3	2	I	1	0	1589	0	poli_8sides 7_whiteLine3.jpg	MediumShort_e22_cut1_stereo_44KHz.wav
3	30	4	4	2	I	1	0	1358	1	poli_8sides 8_whiteLine3.jpg	MediumShort_b16_cut3_MS_stereo_44KHz.wav
3	31	2	1	0	C	1	1	1502	1	poli_8sides 15_whiteLine3.jpg	MediumShort_b10_cut1_MS_stereo_44KHz.wav
3	32	1	1	1	C	2	1	1140	1	poli_8sides 4_whiteLine3.jpg	MediumShort_b10_cut1_MS_stereo_44KHz.wav
3	33	4	4	2	I	2	0	1651	0	poli_8sides 8_whiteLine3.jpg	MediumShort_b16_cut3_MS_stereo_44KHz.wav
3	34	3	4	2	I	2	0	1076	0	poli_8sides 7_whiteLine3.jpg	MediumShort_b16_cut3_MS_stereo_44KHz.wav
3	35	1	1	1	C	1	0	1432	0	poli_8sides 4_whiteLine3.jpg	MediumShort_b10_cut1_MS_stereo_44KHz.wav
3	36	2	2	1	C	1	0	1730	0	poli_8sides 15_whiteLine3.jpg	MediumShort_e16_cut1_stereo_44KHz.wav
3	37	3	3	2	I	2	0	1290	1	poli_8sides 7_whiteLine3.jpg	MediumShort_e22_cut1_stereo_44KHz.wav
3	38	4	3	2	I	2	0	1276	1	poli_8sides 8_whiteLine3.jpg	MediumShort_e22_cut1_stereo_44KHz.wav
3	39	2	1	0	C	1	1	1434	1	poli_8sides 15_whiteLine3.jpg	MediumShort_b10_cut1_MS_stereo_44KHz.wav
3	40	1	2	0	C	2	0	1629	0	poli_8sides 4_whiteLine3.jpg	MediumShort_e16_cut1_stereo_44KHz.wav
3	41	2	2	1	C	2	1	1072	1	poli_8sides 15_whiteLine3.jpg	MediumShort_e16_cut1_stereo_44KHz.wav
3	42	3	3	2	I	1	0	1876	1	poli_8sides 7_whiteLine3.jpg	MediumShort_e22_cut1_stereo_44KHz.wav
3	43	4	4	2	I	2	0	1309	1	poli_8sides 8_whiteLine3.jpg	MediumShort_b16_cut3_MS_stereo_44KHz.wav
3	44	1	2	0	C	1	1	1419	1	poli_8sides 4_whiteLine3.jpg	MediumShort_e16_cut1_stereo_44KHz.wav
3	45	3	4	2	I	2	0	1014	1	poli_8sides 7_whiteLine3.jpg	MediumShort_b16_cut3_MS_stereo_44KHz.wav
3	46	1	1	1	C	1	0	1582	0	poli_8sides 4_whiteLine3.jpg	MediumShort_b10_cut1_MS_stereo_44KHz.wav
3	47	4	3	2	I	1	0	1800	0	poli_8sides 8_whiteLine3.jpg	MediumShort_e22_cut1_stereo_44KHz.wav
3	48	2	1	0	C	2	0	1510	0	poli_8sides 15_whiteLine3.jpg	MediumShort_b10_cut1_MS_stereo_44KHz.wav
3	49	3	4	2	I	2	0	1065	0	poli_8sides 7_whiteLine3.jpg	MediumShort_b16_cut3_MS_stereo_44KHz.wav
3	50	2	2	1	C	0	0	0	0	poli_8sides 15_whiteLine3.jpg	MediumShort_e16_cut1_stereo_44KHz.wav
3	51	1	1	1	C	1	0	1368	0	poli_8sides 4_whiteLine3.jpg	MediumShort_b10_cut1_MS_stereo_44KHz.wav
3	52	4	3	2	I	2	0	1402	1	poli_8sides 8_whiteLine3.jpg	MediumShort_e22_cut1_stereo_44KHz.wav
3	53	1	2	0	C	1	1	1140	1	poli_8sides 4_whiteLine3.jpg	MediumShort_e16_cut1_stereo_44KHz.wav
3	54	3	3	2	I	2	0	1351	0	poli_8sides 7_whiteLine3.jpg	MediumShort_e22_cut1_stereo_44KHz.wav
3	55	4	4	2	I	2	0	1240	1	poli_8sides 8_whiteLine3.jpg	MediumShort_b16_cut3_MS_stereo_44KHz.wav
3	56	2	1	0	C	1	1	1182	1	poli_8sides 15_whiteLine3.jpg	MediumShort_b10_cut1_MS_stereo_44KHz.wav
3	57	4	4	2	I	2	0	846	1	poli_8sides 8_whiteLine3.jpg	MediumShort_b16_cut3_MS_stereo_44KHz.wav
3	58	1	1	1	C	1	0	1121	0	poli_8sides 4_whiteLine3.jpg	MediumShort_b10_cut1_MS_stereo_44KHz.wav
3	59	2	2	1	C	1	0	1725	0	poli_8sides 15_whiteLine3.jpg	MediumShort_e16_cut1_stereo_44KHz.wav
3	60	3	4	2	I	2	0	1301	1	poli_8sides 7_whiteLine3.jpg	MediumShort_b16_cut3_MS_stereo_44KHz.wav
3	61	1	2	0	C	2	0	1843	0	poli_8sides 4_whiteLine3.jpg	MediumShort_e16_cut1_stereo_44KHz.wav
3	62	3	3	2	I	1	0	1490	1	poli_8sides 7_whiteLine3.jpg	MediumShort_e22_cut1_stereo_44KHz.wav
3	63	2	1	0	C	2	0	1034	0	poli_8sides 15_whiteLine3.jpg	MediumShort_b10_cut1_MS_stereo_44KHz.wav
3	64	4	3	2	I	0	0	0	0	poli_8sides 8_whiteLine3.jpg	MediumShort_e22_cut1_stereo_44KHz.wav
3	65	2	1	0	C	1	1	1171	1	poli_8sides 15_whiteLine3.jpg	MediumShort_b10_cut1_MS_stereo_44KHz.wav
3	66	4	4	2	I	2	0	1320	1	poli_8sides 8_whiteLine3.jpg	MediumShort_b16_cut3_MS_stereo_44KHz.wav
3	67	3	4	2	I	0	0	0	0	poli_8sides 7_whiteLine3.jpg	MediumShort_b16_cut3_MS_stereo_44KHz.wav
3	68	1	2	0	C	2	0	1259	0	poli_8sides 4_whiteLine3.jpg	MediumShort_e16_cut1_stereo_44KHz.wav
3	69	2	2	1	C	1	0	839	0	poli_8sides 15_whiteLine3.jpg	MediumShort_e16_cut1_stereo_44KHz.wav
3	70	1	1	1	C	1	0	986	0	poli_8sides 4_whiteLine3.jpg	MediumShort_b10_cut1_MS_stereo_44KHz.wav
3	71	4	3	2	I	1	0	852	1	poli_8sides 8_whiteLine3.jpg	MediumShort_e22_cut1_stereo_44KHz.wav
3	72	3	3	2	I	2	0	891	1	poli_8sides 7_whiteLine3.jpg	MediumShort_e22_cut1_stereo_44KHz.wav
3	73	1	1	1	C	1	0	1005	0	poli_8sides 4_whiteLine3.jpg	MediumShort_b10_cut1_MS_stereo_44KHz.wav
3	74	3	4	2	I	1	0	1680	1	poli_8sides 7_whiteLine3.jpg	MediumShort_b16_cut3_MS_stereo_44KHz.wav
3	75	4	4	2	I	2	0	930	1	poli_8sides 8_whiteLine3.jpg	MediumShort_b16_cut3_MS_stereo_44KHz.wav
3	76	2	1	0	C	1	1	1274	1	poli_8sides 15_whiteLine3.jpg	MediumShort_b10_cut1_MS_stereo_44KHz.wav
3	77	4	3	2	I	1	0	890	1	poli_8sides 8_whiteLine3.jpg	MediumShort_e22_cut1_stereo_44KHz.wav
3	78	2	2	1	C	2	1	1115	1	poli_8sides 15_whiteLine3.jpg	MediumShort_e16_cut1_stereo_44KHz.wav
3	79	3	3	2	I	2	0	969	0	poli_8sides 7_whiteLine3.jpg	MediumShort_e22_cut1_stereo_44KHz.wav
3	80	1	2	0	C	2	0	1265	0	poli_8sides 4_whiteLine3.jpg	MediumShort_e16_cut1_stereo_44KHz.wav
3	81	4	3	2	I	1	0	855	0	poli_8sides 8_whiteLine3.jpg	MediumShort_e22_cut1_stereo_44KHz.wav
3	82	3	3	2	I	2	0	955	0	poli_8sides 7_whiteLine3.jpg	MediumShort_e22_cut1_stereo_44KHz.wav
3	83	1	1	1	C	1	0	862	0	poli_8sides 4_whiteLine3.jpg	MediumShort_b10_cut1_MS_stereo_44KHz.wav
3	84	2	1	0	C	2	0	929	0	poli_8sides 15_whiteLine3.jpg	MediumShort_b10_cut1_MS_stereo_44KHz.wav
3	85	4	4	2	I	2	0	1531	1	poli_8sides 8_whiteLine3.jpg	MediumShort_b16_cut3_MS_stereo_44KHz.wav
3	86	3	4	2	I	1	0	1585	1	poli_8sides 7_whiteLine3.jpg	MediumShort_b16_cut3_MS_stereo_44KHz.wav
3	87	2	2	1	C	1	0	1536	0	poli_8sides 15_whiteLine3.jpg	MediumShort_e16_cut1_stereo_44KHz.wav
3	88	1	2	0	C	1	1	1352	1	poli_8sides 4_whiteLine3.jpg	MediumShort_e16_cut1_stereo_44KHz.wav
3	89	3	3	2	I	2	0	1101	1	poli_8sides 7_whiteLine3.jpg	MediumShort_e22_cut1_stereo_44KHz.wav
3	90	1	1	1	C	2	1	1599	1	poli_8sides 4_whiteLine3.jpg	MediumShort_b10_cut1_MS_stereo_44KHz.wav
3	91	4	3	2	I	1	0	862	0	poli_8sides 8_whiteLine3.jpg	MediumShort_e22_cut1_stereo_44KHz.wav
3	92	2	2	1	C	0	0	0	0	poli_8sides 15_whiteLine3.jpg	MediumShort_e16_cut1_stereo_44KHz.wav
3	93	3	4	2	I	1	0	1188	0	poli_8sides 7_whiteLine3.jpg	MediumShort_b16_cut3_MS_stereo_44KHz.wav
3	94	2	1	0	C	1	1	1943	1	poli_8sides 15_whiteLine3.jpg	MediumShort_b10_cut1_MS_stereo_44KHz.wav
3	95	1	2	0	C	1	1	1346	1	poli_8sides 4_whiteLine3.jpg	MediumShort_e16_cut1_stereo_44KHz.wav
3	96	4	4	2	I	1	0	1298	0	poli_8sides 8_whiteLine3.jpg	MediumShort_b16_cut3_MS_stereo_44KHz.wav
3	97	3	4	2	I	2	0	777	0	poli_8sides 7_whiteLine3.jpg	MediumShort_b16_cut3_MS_stereo_44KHz.wav
3	98	2	1	0	C	1	1	812	1	poli_8sides 15_whiteLine3.jpg	MediumShort_b10_cut1_MS_stereo_44KHz.wav
3	99	1	2	0	C	2	0	801	0	poli_8sides 4_whiteLine3.jpg	MediumShort_e16_cut1_stereo_44KHz.wav
3	100	4	3	2	I	1	0	1001	1	poli_8sides 8_whiteLine3.jpg	MediumShort_e22_cut1_stereo_44KHz.wav
3	101	2	2	1	C	2	1	1492	1	poli_8sides 15_whiteLine3.jpg	MediumShort_e16_cut1_stereo_44KHz.wav
3	102	3	3	2	I	2	0	1224	1	poli_8sides 7_whiteLine3.jpg	MediumShort_e22_cut1_stereo_44KHz.wav
3	103	1	1	1	C	0	0	0	0	poli_8sides 4_whiteLine3.jpg	MediumShort_b10_cut1_MS_stereo_44KHz.wav
3	104	4	4	2	I	2	0	1439	1	poli_8sides 8_whiteLine3.jpg	MediumShort_b16_cut3_MS_stereo_44KHz.wav
3	105	3	3	2	I	1	0	1635	0	poli_8sides 7_whiteLine3.jpg	MediumShort_e22_cut1_stereo_44KHz.wav
3	106	4	4	2	I	2	0	982	0	poli_8sides 8_whiteLine3.jpg	MediumShort_b16_cut3_MS_stereo_44KHz.wav
3	107	1	1	1	C	1	0	855	0	poli_8sides 4_whiteLine3.jpg	MediumShort_b10_cut1_MS_stereo_44KHz.wav
3	108	2	2	1	C	2	1	1057	1	poli_8sides 15_whiteLine3.jpg	MediumShort_e16_cut1_stereo_44KHz.wav
3	109	1	2	0	C	2	0	1405	0	poli_8sides 4_whiteLine3.jpg	MediumShort_e16_cut1_stereo_44KHz.wav
3	110	3	4	2	I	1	0	1263	0	poli_8sides 7_whiteLine3.jpg	MediumShort_b16_cut3_MS_stereo_44KHz.wav
3	111	2	1	0	C	2	0	730	0	poli_8sides 15_whiteLine3.jpg	MediumShort_b10_cut1_MS_stereo_44KHz.wav
3	112	4	3	2	I	1	0	1371	0	poli_8sides 8_whiteLine3.jpg	MediumShort_e22_cut1_stereo_44KHz.wav
3	113	3	4	2	I	1	0	1052	0	poli_8sides 7_whiteLine3.jpg	MediumShort_b16_cut3_MS_stereo_44KHz.wav
3	114	4	3	2	I	2	0	910	1	poli_8sides 8_whiteLine3.jpg	MediumShort_e22_cut1_stereo_44KHz.wav
3	115	1	1	1	C	1	0	1493	0	poli_8sides 4_whiteLine3.jpg	MediumShort_b10_cut1_MS_stereo_44KHz.wav
3	116	2	1	0	C	1	1	1042	1	poli_8sides 15_whiteLine3.jpg	MediumShort_b10_cut1_MS_stereo_44KHz.wav
3	117	3	3	2	I	1	0	1888	1	poli_8sides 7_whiteLine3.jpg	MediumShort_e22_cut1_stereo_44KHz.wav
3	118	2	2	1	C	1	0	1457	0	poli_8sides 15_whiteLine3.jpg	MediumShort_e16_cut1_stereo_44KHz.wav
3	119	4	4	2	I	1	0	1661	0	poli_8sides 8_whiteLine3.jpg	MediumShort_b16_cut3_MS_stereo_44KHz.wav
3	120	1	2	0	C	2	0	1789	0	poli_8sides 4_whiteLine3.jpg	MediumShort_e16_cut1_stereo_44KHz.wav
3	121	2	1	0	C	0	0	0	0	poli_8sides 15_whiteLine3.jpg	MediumShort_b10_cut1_MS_stereo_44KHz.wav
3	122	4	4	2	I	1	0	1577	0	poli_8sides 8_whiteLine3.jpg	MediumShort_b16_cut3_MS_stereo_44KHz.wav
3	123	3	4	2	I	1	0	810	1	poli_8sides 7_whiteLine3.jpg	MediumShort_b16_cut3_MS_stereo_44KHz.wav
3	124	1	2	0	C	2	0	985	0	poli_8sides 4_whiteLine3.jpg	MediumShort_e16_cut1_stereo_44KHz.wav
3	125	4	3	2	I	1	0	778	1	poli_8sides 8_whiteLine3.jpg	MediumShort_e22_cut1_stereo_44KHz.wav
3	126	3	3	2	I	2	0	888	0	poli_8sides 7_whiteLine3.jpg	MediumShort_e22_cut1_stereo_44KHz.wav
3	127	1	1	1	C	2	1	1041	1	poli_8sides 4_whiteLine3.jpg	MediumShort_b10_cut1_MS_stereo_44KHz.wav
3	128	2	2	1	C	1	0	1406	0	poli_8sides 15_whiteLine3.jpg	MediumShort_e16_cut1_stereo_44KHz.wav
3	129	3	3	2	I	2	0	1210	0	poli_8sides 7_whiteLine3.jpg	MediumShort_e22_cut1_stereo_44KHz.wav
3	130	1	1	1	C	1	0	1219	0	poli_8sides 4_whiteLine3.jpg	MediumShort_b10_cut1_MS_stereo_44KHz.wav
3	131	2	2	1	C	2	1	1006	1	poli_8sides 15_whiteLine3.jpg	MediumShort_e16_cut1_stereo_44KHz.wav
3	132	4	4	2	I	1	0	962	0	poli_8sides 8_whiteLine3.jpg	MediumShort_b16_cut3_MS_stereo_44KHz.wav
3	133	3	4	2	I	2	0	884	0	poli_8sides 7_whiteLine3.jpg	MediumShort_b16_cut3_MS_stereo_44KHz.wav
3	134	2	1	0	C	1	1	1259	1	poli_8sides 15_whiteLine3.jpg	MediumShort_b10_cut1_MS_stereo_44KHz.wav
3	135	1	2	0	C	2	0	1213	0	poli_8sides 4_whiteLine3.jpg	MediumShort_e16_cut1_stereo_44KHz.wav
3	136	4	3	2	I	1	0	834	1	poli_8sides 8_whiteLine3.jpg	MediumShort_e22_cut1_stereo_44KHz.wav
3	137	2	2	1	C	2	1	928	1	poli_8sides 15_whiteLine3.jpg	MediumShort_e16_cut1_stereo_44KHz.wav
3	138	4	3	2	I	2	0	1531	0	poli_8sides 8_whiteLine3.jpg	MediumShort_e22_cut1_stereo_44KHz.wav
3	139	3	3	2	I	1	0	711	0	poli_8sides 7_whiteLine3.jpg	MediumShort_e22_cut1_stereo_44KHz.wav
3	140	1	2	0	C	1	1	1017	1	poli_8sides 4_whiteLine3.jpg	MediumShort_e16_cut1_stereo_44KHz.wav
3	141	4	4	2	I	2	0	893	1	poli_8sides 8_whiteLine3.jpg	MediumShort_b16_cut3_MS_stereo_44KHz.wav
3	142	3	4	2	I	1	0	1284	1	poli_8sides 7_whiteLine3.jpg	MediumShort_b16_cut3_MS_stereo_44KHz.wav
3	143	1	1	1	C	2	1	920	1	poli_8sides 4_whiteLine3.jpg	MediumShort_b10_cut1_MS_stereo_44KHz.wav
3	144	2	1	0	C	1	1	1058	1	poli_8sides 15_whiteLine3.jpg	MediumShort_b10_cut1_MS_stereo_44KHz.wav
3	145	1	2	0	C	1	1	1005	1	poli_8sides 4_whiteLine3.jpg	MediumShort_e16_cut1_stereo_44KHz.wav
3	146	4	4	2	I	2	0	803	0	poli_8sides 8_whiteLine3.jpg	MediumShort_b16_cut3_MS_stereo_44KHz.wav
3	147	3	3	2	I	1	0	766	0	poli_8sides 7_whiteLine3.jpg	MediumShort_e22_cut1_stereo_44KHz.wav
3	148	2	1	0	C	2	0	1078	0	poli_8sides 15_whiteLine3.jpg	MediumShort_b10_cut1_MS_stereo_44KHz.wav
3	149	4	3	2	I	1	0	1032	1	poli_8sides 8_whiteLine3.jpg	MediumShort_e22_cut1_stereo_44KHz.wav
3	150	2	2	1	C	2	1	913	1	poli_8sides 15_whiteLine3.jpg	MediumShort_e16_cut1_stereo_44KHz.wav
3	151	1	1	1	C	1	0	886	0	poli_8sides 4_whiteLine3.jpg	MediumShort_b10_cut1_MS_stereo_44KHz.wav
3	152	3	4	2	I	2	0	1053	1	poli_8sides 7_whiteLine3.jpg	MediumShort_b16_cut3_MS_stereo_44KHz.wav
3	153	4	4	2	I	1	0	1146	0	poli_8sides 8_whiteLine3.jpg	MediumShort_b16_cut3_MS_stereo_44KHz.wav
3	154	2	2	1	C	2	1	749	1	poli_8sides 15_whiteLine3.jpg	MediumShort_e16_cut1_stereo_44KHz.wav
3	155	3	4	2	I	2	0	924	1	poli_8sides 7_whiteLine3.jpg	MediumShort_b16_cut3_MS_stereo_44KHz.wav
3	156	1	2	0	C	1	1	783	1	poli_8sides 4_whiteLine3.jpg	MediumShort_e16_cut1_stereo_44KHz.wav
3	157	2	1	0	C	1	1	622	1	poli_8sides 15_whiteLine3.jpg	MediumShort_b10_cut1_MS_stereo_44KHz.wav
3	158	3	3	2	I	1	0	1199	0	poli_8sides 7_whiteLine3.jpg	MediumShort_e22_cut1_stereo_44KHz.wav
3	159	1	1	1	C	1	0	834	0	poli_8sides 4_whiteLine3.jpg	MediumShort_b10_cut1_MS_stereo_44KHz.wav
3	160	4	3	2	I	2	0	801	0	poli_8sides 8_whiteLine3.jpg	MediumShort_e22_cut1_stereo_44KHz.wav
3	161	2	2	1	C	1	0	689	0	poli_8sides 15_whiteLine3.jpg	MediumShort_e16_cut1_stereo_44KHz.wav
3	162	4	4	2	I	2	0	1106	0	poli_8sides 8_whiteLine3.jpg	MediumShort_b16_cut3_MS_stereo_44KHz.wav
3	163	1	2	0	C	1	1	941	1	poli_8sides 4_whiteLine3.jpg	MediumShort_e16_cut1_stereo_44KHz.wav
3	164	3	3	2	I	1	0	1012	0	poli_8sides 7_whiteLine3.jpg	MediumShort_e22_cut1_stereo_44KHz.wav
3	165	1	1	1	C	2	1	1746	1	poli_8sides 4_whiteLine3.jpg	MediumShort_b10_cut1_MS_stereo_44KHz.wav
3	166	2	1	0	C	1	1	1059	1	poli_8sides 15_whiteLine3.jpg	MediumShort_b10_cut1_MS_stereo_44KHz.wav
3	167	3	4	2	I	2	0	1052	1	poli_8sides 7_whiteLine3.jpg	MediumShort_b16_cut3_MS_stereo_44KHz.wav
3	168	4	3	2	I	1	0	727	0	poli_8sides 8_whiteLine3.jpg	MediumShort_e22_cut1_stereo_44KHz.wav
3	169	3	4	2	I	2	0	912	0	poli_8sides 7_whiteLine3.jpg	MediumShort_b16_cut3_MS_stereo_44KHz.wav
3	170	1	1	1	C	2	1	1456	1	poli_8sides 4_whiteLine3.jpg	MediumShort_b10_cut1_MS_stereo_44KHz.wav
3	171	2	1	0	C	1	1	1402	1	poli_8sides 15_whiteLine3.jpg	MediumShort_b10_cut1_MS_stereo_44KHz.wav
3	172	4	4	2	I	1	0	1192	1	poli_8sides 8_whiteLine3.jpg	MediumShort_b16_cut3_MS_stereo_44KHz.wav
3	173	1	2	0	C	1	1	1151	1	poli_8sides 4_whiteLine3.jpg	MediumShort_e16_cut1_stereo_44KHz.wav
3	174	3	3	2	I	1	0	1243	1	poli_8sides 7_whiteLine3.jpg	MediumShort_e22_cut1_stereo_44KHz.wav
3	175	4	3	2	I	2	0	1128	1	poli_8sides 8_whiteLine3.jpg	MediumShort_e22_cut1_stereo_44KHz.wav
3	176	2	2	1	C	2	1	1395	1	poli_8sides 15_whiteLine3.jpg	MediumShort_e16_cut1_stereo_44KHz.wav
3	177	4	3	2	I	1	0	1017	1	poli_8sides 8_whiteLine3.jpg	MediumShort_e22_cut1_stereo_44KHz.wav
3	178	3	3	2	I	2	0	1430	1	poli_8sides 7_whiteLine3.jpg	MediumShort_e22_cut1_stereo_44KHz.wav
3	179	1	1	1	C	1	0	959	0	poli_8sides 4_whiteLine3.jpg	MediumShort_b10_cut1_MS_stereo_44KHz.wav
3	180	2	2	1	C	1	0	840	0	poli_8sides 15_whiteLine3.jpg	MediumShort_e16_cut1_stereo_44KHz.wav
3	181	3	4	2	I	2	0	1101	0	poli_8sides 7_whiteLine3.jpg	MediumShort_b16_cut3_MS_stereo_44KHz.wav
3	182	2	1	0	C	1	1	1197	1	poli_8sides 15_whiteLine3.jpg	MediumShort_b10_cut1_MS_stereo_44KHz.wav
3	183	4	4	2	I	2	0	1281	0	poli_8sides 8_whiteLine3.jpg	MediumShort_b16_cut3_MS_stereo_44KHz.wav
3	184	1	2	0	C	1	1	691	1	poli_8sides 4_whiteLine3.jpg	MediumShort_e16_cut1_stereo_44KHz.wav
3	185	4	3	2	I	1	0	707	0	poli_8sides 8_whiteLine3.jpg	MediumShort_e22_cut1_stereo_44KHz.wav
3	186	2	1	0	C	2	0	718	0	poli_8sides 15_whiteLine3.jpg	MediumShort_b10_cut1_MS_stereo_44KHz.wav
3	187	3	3	2	I	1	0	642	1	poli_8sides 7_whiteLine3.jpg	MediumShort_e22_cut1_stereo_44KHz.wav
3	188	1	2	0	C	2	0	773	0	poli_8sides 4_whiteLine3.jpg	MediumShort_e16_cut1_stereo_44KHz.wav
3	189	4	4	2	I	1	0	881	0	poli_8sides 8_whiteLine3.jpg	MediumShort_b16_cut3_MS_stereo_44KHz.wav
3	190	3	4	2	I	2	0	842	0	poli_8sides 7_whiteLine3.jpg	MediumShort_b16_cut3_MS_stereo_44KHz.wav
3	191	2	2	1	C	2	1	1468	1	poli_8sides 15_whiteLine3.jpg	MediumShort_e16_cut1_stereo_44KHz.wav
3	192	1	1	1	C	1	0	622	0	poli_8sides 4_whiteLine3.jpg	MediumShort_b10_cut1_MS_stereo_44KHz.wav
3	193	2	1	0	C	2	0	1044	0	poli_8sides 15_whiteLine3.jpg	MediumShort_b10_cut1_MS_stereo_44KHz.wav
3	194	1	1	1	C	1	0	632	0	poli_8sides 4_whiteLine3.jpg	MediumShort_b10_cut1_MS_stereo_44KHz.wav
3	195	4	4	2	I	1	0	937	0	poli_8sides 8_whiteLine3.jpg	MediumShort_b16_cut3_MS_stereo_44KHz.wav
3	196	3	3	2	I	2	0	1092	1	poli_8sides 7_whiteLine3.jpg	MediumShort_e22_cut1_stereo_44KHz.wav
3	197	2	2	1	C	1	0	1097	0	poli_8sides 15_whiteLine3.jpg	MediumShort_e16_cut1_stereo_44KHz.wav
3	198	4	3	2	I	2	0	1176	0	poli_8sides 8_whiteLine3.jpg	MediumShort_e22_cut1_stereo_44KHz.wav
3	199	1	2	0	C	1	1	730	1	poli_8sides 4_whiteLine3.jpg	MediumShort_e16_cut1_stereo_44KHz.wav
3	200	3	4	2	I	2	0	1116	0	poli_8sides 7_whiteLine3.jpg	MediumShort_b16_cut3_MS_stereo_44KHz.wav
4	1	4	3	2	I	0	0	0	0	poli_8sides 11_whiteLine3.jpg	Medium_e01_cut1_stereo_44KHz.wav
4	2	3	4	2	I	1	0	1478	1	poli_8sides 13_whiteLine3.jpg	Medium_e26_stereo_44KHz.wav
4	3	1	1	1	C	1	0	1394	0	poli_8sides 12_whiteLine3.jpg	MediumLong_e17_cut2_stereo_44KHz.wav
4	4	2	2	1	C	1	0	1177	0	poli_8sides 2_whiteLine3.jpg	MediumLong_b10_cut2_L_stereo_44KHz.wav
4	5	3	3	2	I	1	0	1425	0	poli_8sides 13_whiteLine3.jpg	Medium_e01_cut1_stereo_44KHz.wav
4	6	4	4	2	I	0	0	0	0	poli_8sides 11_whiteLine3.jpg	Medium_e26_stereo_44KHz.wav
4	7	2	1	0	C	2	0	1940	0	poli_8sides 2_whiteLine3.jpg	MediumLong_e17_cut2_stereo_44KHz.wav
4	8	1	2	0	C	1	1	942	1	poli_8sides 12_whiteLine3.jpg	MediumLong_b10_cut2_L_stereo_44KHz.wav
4	9	3	4	2	I	1	0	1795	1	poli_8sides 13_whiteLine3.jpg	Medium_e26_stereo_44KHz.wav
4	10	2	2	1	C	2	1	1030	1	poli_8sides 2_whiteLine3.jpg	MediumLong_b10_cut2_L_stereo_44KHz.wav
4	11	4	4	2	I	2	0	1052	1	poli_8sides 11_whiteLine3.jpg	Medium_e26_stereo_44KHz.wav
4	12	1	2	0	C	1	1	926	1	poli_8sides 12_whiteLine3.jpg	MediumLong_b10_cut2_L_stereo_44KHz.wav
4	13	4	3	2	I	0	0	0	0	poli_8sides 11_whiteLine3.jpg	Medium_e01_cut1_stereo_44KHz.wav
4	14	2	1	0	C	1	1	1175	1	poli_8sides 2_whiteLine3.jpg	MediumLong_e17_cut2_stereo_44KHz.wav
4	15	3	3	2	I	2	0	1255	1	poli_8sides 13_whiteLine3.jpg	Medium_e01_cut1_stereo_44KHz.wav
4	16	1	1	1	C	2	1	1097	1	poli_8sides 12_whiteLine3.jpg	MediumLong_e17_cut2_stereo_44KHz.wav
4	17	2	1	0	C	2	0	1507	0	poli_8sides 2_whiteLine3.jpg	MediumLong_e17_cut2_stereo_44KHz.wav
4	18	4	3	2	I	1	0	1583	1	poli_8sides 11_whiteLine3.jpg	Medium_e01_cut1_stereo_44KHz.wav
4	19	1	2	0	C	1	1	1212	1	poli_8sides 12_whiteLine3.jpg	MediumLong_b10_cut2_L_stereo_44KHz.wav
4	20	3	4	2	I	1	0	985	0	poli_8sides 13_whiteLine3.jpg	Medium_e26_stereo_44KHz.wav
4	21	1	1	1	C	2	1	1133	1	poli_8sides 12_whiteLine3.jpg	MediumLong_e17_cut2_stereo_44KHz.wav
4	22	2	2	1	C	1	0	1042	0	poli_8sides 2_whiteLine3.jpg	MediumLong_b10_cut2_L_stereo_44KHz.wav
4	23	3	3	2	I	2	0	873	0	poli_8sides 13_whiteLine3.jpg	Medium_e01_cut1_stereo_44KHz.wav
4	24	4	4	2	I	1	0	1380	0	poli_8sides 11_whiteLine3.jpg	Medium_e26_stereo_44KHz.wav
4	25	3	3	2	I	2	0	1495	1	poli_8sides 13_whiteLine3.jpg	Medium_e01_cut1_stereo_44KHz.wav
4	26	4	3	2	I	2	0	1628	0	poli_8sides 11_whiteLine3.jpg	Medium_e01_cut1_stereo_44KHz.wav
4	27	1	1	1	C	2	1	1439	1	poli_8sides 12_whiteLine3.jpg	MediumLong_e17_cut2_stereo_44KHz.wav
4	28	2	2	1	C	0	0	0	0	poli_8sides 2_whiteLine3.jpg	MediumLong_b10_cut2_L_stereo_44KHz.wav
4	29	4	4	2	I	2	0	1218	0	poli_8sides 11_whiteLine3.jpg	Medium_e26_stereo_44KHz.wav
4	30	2	1	0	C	1	1	1067	1	poli_8sides 2_whiteLine3.jpg	MediumLong_e17_cut2_stereo_44KHz.wav
4	31	1	2	0	C	1	1	1014	1	poli_8sides 12_whiteLine3.jpg	MediumLong_b10_cut2_L_stereo_44KHz.wav
4	32	3	4	2	I	1	0	1274	0	poli_8sides 13_whiteLine3.jpg	Medium_e26_stereo_44KHz.wav
4	33	4	3	2	I	1	0	1460	1	poli_8sides 11_whiteLine3.jpg	Medium_e01_cut1_stereo_44KHz.wav
4	34	2	1	0	C	2	0	1392	0	poli_8sides 2_whiteLine3.jpg	MediumLong_e17_cut2_stereo_44KHz.wav
4	35	3	4	2	I	1	0	845	1	poli_8sides 13_whiteLine3.jpg	Medium_e26_stereo_44KHz.wav
4	36	1	2	0	C	2	0	1287	0	poli_8sides 12_whiteLine3.jpg	MediumLong_b10_cut2_L_stereo_44KHz.wav
4	37	3	3	2	I	2	0	1197	1	poli_8sides 13_whiteLine3.jpg	Medium_e01_cut1_stereo_44KHz.wav
4	38	1	1	1	C	2	1	873	1	poli_8sides 12_whiteLine3.jpg	MediumLong_e17_cut2_stereo_44KHz.wav
4	39	2	2	1	C	1	0	1604	0	poli_8sides 2_whiteLine3.jpg	MediumLong_b10_cut2_L_stereo_44KHz.wav
4	40	4	4	2	I	2	0	1366	1	poli_8sides 11_whiteLine3.jpg	Medium_e26_stereo_44KHz.wav
4	41	1	1	1	C	1	0	1174	0	poli_8sides 12_whiteLine3.jpg	MediumLong_e17_cut2_stereo_44KHz.wav
4	42	2	1	0	C	1	1	915	1	poli_8sides 2_whiteLine3.jpg	MediumLong_e17_cut2_stereo_44KHz.wav
4	43	3	4	2	I	1	0	955	1	poli_8sides 13_whiteLine3.jpg	Medium_e26_stereo_44KHz.wav
4	44	4	4	2	I	1	0	1300	0	poli_8sides 11_whiteLine3.jpg	Medium_e26_stereo_44KHz.wav
4	45	2	2	1	C	1	0	1710	0	poli_8sides 2_whiteLine3.jpg	MediumLong_b10_cut2_L_stereo_44KHz.wav
4	46	4	3	2	I	2	0	840	0	poli_8sides 11_whiteLine3.jpg	Medium_e01_cut1_stereo_44KHz.wav
4	47	3	3	2	I	2	0	1356	0	poli_8sides 13_whiteLine3.jpg	Medium_e01_cut1_stereo_44KHz.wav
4	48	1	2	0	C	1	1	1083	1	poli_8sides 12_whiteLine3.jpg	MediumLong_b10_cut2_L_stereo_44KHz.wav
4	49	4	3	2	I	1	0	931	1	poli_8sides 11_whiteLine3.jpg	Medium_e01_cut1_stereo_44KHz.wav
4	50	1	2	0	C	1	1	934	1	poli_8sides 12_whiteLine3.jpg	MediumLong_b10_cut2_L_stereo_44KHz.wav
4	51	2	1	0	C	2	0	1381	0	poli_8sides 2_whiteLine3.jpg	MediumLong_e17_cut2_stereo_44KHz.wav
4	52	3	4	2	I	1	0	940	0	poli_8sides 13_whiteLine3.jpg	Medium_e26_stereo_44KHz.wav
4	53	1	1	1	C	2	1	1041	1	poli_8sides 12_whiteLine3.jpg	MediumLong_e17_cut2_stereo_44KHz.wav
4	54	3	3	2	I	2	0	1001	0	poli_8sides 13_whiteLine3.jpg	Medium_e01_cut1_stereo_44KHz.wav
4	55	4	4	2	I	1	0	1675	1	poli_8sides 11_whiteLine3.jpg	Medium_e26_stereo_44KHz.wav
4	56	2	2	1	C	1	0	1139	0	poli_8sides 2_whiteLine3.jpg	MediumLong_b10_cut2_L_stereo_44KHz.wav
4	57	3	3	2	I	2	0	1907	0	poli_8sides 13_whiteLine3.jpg	Medium_e01_cut1_stereo_44KHz.wav
4	58	1	1	1	C	2	1	801	1	poli_8sides 12_whiteLine3.jpg	MediumLong_e17_cut2_stereo_44KHz.wav
4	59	2	1	0	C	1	1	1079	1	poli_8sides 2_whiteLine3.jpg	MediumLong_e17_cut2_stereo_44KHz.wav
4	60	4	3	2	I	2	0	1167	1	poli_8sides 11_whiteLine3.jpg	Medium_e01_cut1_stereo_44KHz.wav
4	61	2	2	1	C	1	0	1409	0	poli_8sides 2_whiteLine3.jpg	MediumLong_b10_cut2_L_stereo_44KHz.wav
4	62	3	4	2	I	1	0	1493	0	poli_8sides 13_whiteLine3.jpg	Medium_e26_stereo_44KHz.wav
4	63	1	2	0	C	1	1	1016	1	poli_8sides 12_whiteLine3.jpg	MediumLong_b10_cut2_L_stereo_44KHz.wav
4	64	4	4	2	I	1	0	1164	1	poli_8sides 11_whiteLine3.jpg	Medium_e26_stereo_44KHz.wav
4	65	3	3	2	I	2	0	1344	0	poli_8sides 13_whiteLine3.jpg	Medium_e01_cut1_stereo_44KHz.wav
4	66	2	2	1	C	1	0	946	0	poli_8sides 2_whiteLine3.jpg	MediumLong_b10_cut2_L_stereo_44KHz.wav
4	67	1	2	0	C	1	1	814	1	poli_8sides 12_whiteLine3.jpg	MediumLong_b10_cut2_L_stereo_44KHz.wav
4	68	4	3	2	I	1	0	882	0	poli_8sides 11_whiteLine3.jpg	Medium_e01_cut1_stereo_44KHz.wav
4	69	1	1	1	C	2	1	899	1	poli_8sides 12_whiteLine3.jpg	MediumLong_e17_cut2_stereo_44KHz.wav
4	70	3	4	2	I	1	0	879	1	poli_8sides 13_whiteLine3.jpg	Medium_e26_stereo_44KHz.wav
4	71	2	1	0	C	2	0	890	0	poli_8sides 2_whiteLine3.jpg	MediumLong_e17_cut2_stereo_44KHz.wav
4	72	4	4	2	I	0	0	0	0	poli_8sides 11_whiteLine3.jpg	Medium_e26_stereo_44KHz.wav
4	73	1	1	1	C	2	1	1204	1	poli_8sides 12_whiteLine3.jpg	MediumLong_e17_cut2_stereo_44KHz.wav
4	74	3	3	2	I	2	0	1323	1	poli_8sides 13_whiteLine3.jpg	Medium_e01_cut1_stereo_44KHz.wav
4	75	4	3	2	I	0	0	0	0	poli_8sides 11_whiteLine3.jpg	Medium_e01_cut1_stereo_44KHz.wav
4	76	2	2	1	C	1	0	1287	0	poli_8sides 2_whiteLine3.jpg	MediumLong_b10_cut2_L_stereo_44KHz.wav
4	77	3	4	2	I	1	0	922	1	poli_8sides 13_whiteLine3.jpg	Medium_e26_stereo_44KHz.wav
4	78	4	4	2	I	2	0	1101	0	poli_8sides 11_whiteLine3.jpg	Medium_e26_stereo_44KHz.wav
4	79	1	2	0	C	1	1	856	1	poli_8sides 12_whiteLine3.jpg	MediumLong_b10_cut2_L_stereo_44KHz.wav
4	80	2	1	0	C	2	0	1148	0	poli_8sides 2_whiteLine3.jpg	MediumLong_e17_cut2_stereo_44KHz.wav
4	81	1	2	0	C	1	1	1244	1	poli_8sides 12_whiteLine3.jpg	MediumLong_b10_cut2_L_stereo_44KHz.wav
4	82	3	4	2	I	1	0	945	1	poli_8sides 13_whiteLine3.jpg	Medium_e26_stereo_44KHz.wav
4	83	4	3	2	I	1	0	1272	1	poli_8sides 11_whiteLine3.jpg	Medium_e01_cut1_stereo_44KHz.wav
4	84	2	1	0	C	1	1	997	1	poli_8sides 2_whiteLine3.jpg	MediumLong_e17_cut2_stereo_44KHz.wav
4	85	4	4	2	I	2	0	1183	1	poli_8sides 11_whiteLine3.jpg	Medium_e26_stereo_44KHz.wav
4	86	3	3	2	I	2	0	1299	0	poli_8sides 13_whiteLine3.jpg	Medium_e01_cut1_stereo_44KHz.wav
4	87	2	2	1	C	2	1	1302	1	poli_8sides 2_whiteLine3.jpg	MediumLong_b10_cut2_L_stereo_44KHz.wav
4	88	1	1	1	C	1	0	1201	0	poli_8sides 12_whiteLine3.jpg	MediumLong_e17_cut2_stereo_44KHz.wav
4	89	2	2	1	C	2	1	1661	1	poli_8sides 2_whiteLine3.jpg	MediumLong_b10_cut2_L_stereo_44KHz.wav
4	90	1	1	1	C	2	1	1429	1	poli_8sides 12_whiteLine3.jpg	MediumLong_e17_cut2_stereo_44KHz.wav
4	91	4	4	2	I	2	0	923	0	poli_8sides 11_whiteLine3.jpg	Medium_e26_stereo_44KHz.wav
4	92	3	3	2	I	1	0	1734	0	poli_8sides 13_whiteLine3.jpg	Medium_e01_cut1_stereo_44KHz.wav
4	93	2	1	0	C	1	1	1066	1	poli_8sides 2_whiteLine3.jpg	MediumLong_e17_cut2_stereo_44KHz.wav
4	94	3	4	2	I	1	0	744	1	poli_8sides 13_whiteLine3.jpg	Medium_e26_stereo_44KHz.wav
4	95	1	2	0	C	1	1	1089	1	poli_8sides 12_whiteLine3.jpg	MediumLong_b10_cut2_L_stereo_44KHz.wav
4	96	4	3	2	I	2	0	785	1	poli_8sides 11_whiteLine3.jpg	Medium_e01_cut1_stereo_44KHz.wav
4	97	1	1	1	C	2	1	1003	1	poli_8sides 12_whiteLine3.jpg	MediumLong_e17_cut2_stereo_44KHz.wav
4	98	4	4	2	I	2	0	1557	1	poli_8sides 11_whiteLine3.jpg	Medium_e26_stereo_44KHz.wav
4	99	3	4	2	I	1	0	807	1	poli_8sides 13_whiteLine3.jpg	Medium_e26_stereo_44KHz.wav
4	100	2	2	1	C	2	1	1334	1	poli_8sides 2_whiteLine3.jpg	MediumLong_b10_cut2_L_stereo_44KHz.wav
4	101	1	2	0	C	1	1	1207	1	poli_8sides 12_whiteLine3.jpg	MediumLong_b10_cut2_L_stereo_44KHz.wav
4	102	4	3	2	I	2	0	1183	1	poli_8sides 11_whiteLine3.jpg	Medium_e01_cut1_stereo_44KHz.wav
4	103	3	3	2	I	1	0	1172	0	poli_8sides 13_whiteLine3.jpg	Medium_e01_cut1_stereo_44KHz.wav
4	104	2	1	0	C	1	1	1230	1	poli_8sides 2_whiteLine3.jpg	MediumLong_e17_cut2_stereo_44KHz.wav
4	105	3	3	2	I	2	0	1160	0	poli_8sides 13_whiteLine3.jpg	Medium_e01_cut1_stereo_44KHz.wav
4	106	1	2	0	C	1	1	729	1	poli_8sides 12_whiteLine3.jpg	MediumLong_b10_cut2_L_stereo_44KHz.wav
4	107	2	1	0	C	2	0	884	0	poli_8sides 2_whiteLine3.jpg	MediumLong_e17_cut2_stereo_44KHz.wav
4	108	4	3	2	I	1	0	1111	0	poli_8sides 11_whiteLine3.jpg	Medium_e01_cut1_stereo_44KHz.wav
4	109	2	2	1	C	2	1	733	1	poli_8sides 2_whiteLine3.jpg	MediumLong_b10_cut2_L_stereo_44KHz.wav
4	110	3	4	2	I	1	0	1097	1	poli_8sides 13_whiteLine3.jpg	Medium_e26_stereo_44KHz.wav
4	111	4	4	2	I	2	0	740	1	poli_8sides 11_whiteLine3.jpg	Medium_e26_stereo_44KHz.wav
4	112	1	1	1	C	2	1	1302	1	poli_8sides 12_whiteLine3.jpg	MediumLong_e17_cut2_stereo_44KHz.wav
4	113	3	4	2	I	1	0	1489	0	poli_8sides 13_whiteLine3.jpg	Medium_e26_stereo_44KHz.wav
4	114	1	2	0	C	1	1	937	1	poli_8sides 12_whiteLine3.jpg	MediumLong_b10_cut2_L_stereo_44KHz.wav
4	115	4	4	2	I	2	0	725	1	poli_8sides 11_whiteLine3.jpg	Medium_e26_stereo_44KHz.wav
4	116	2	1	0	C	1	1	1142	1	poli_8sides 2_whiteLine3.jpg	MediumLong_e17_cut2_stereo_44KHz.wav
4	117	4	3	2	I	1	0	1052	1	poli_8sides 11_whiteLine3.jpg	Medium_e01_cut1_stereo_44KHz.wav
4	118	2	2	1	C	2	1	1141	1	poli_8sides 2_whiteLine3.jpg	MediumLong_b10_cut2_L_stereo_44KHz.wav
4	119	3	3	2	I	2	0	875	0	poli_8sides 13_whiteLine3.jpg	Medium_e01_cut1_stereo_44KHz.wav
4	120	1	1	1	C	2	1	1168	1	poli_8sides 12_whiteLine3.jpg	MediumLong_e17_cut2_stereo_44KHz.wav
4	121	4	4	2	I	1	0	1183	0	poli_8sides 11_whiteLine3.jpg	Medium_e26_stereo_44KHz.wav
4	122	1	1	1	C	2	1	1487	1	poli_8sides 12_whiteLine3.jpg	MediumLong_e17_cut2_stereo_44KHz.wav
4	123	3	4	2	I	1	0	749	0	poli_8sides 13_whiteLine3.jpg	Medium_e26_stereo_44KHz.wav
4	124	2	2	1	C	2	1	1153	1	poli_8sides 2_whiteLine3.jpg	MediumLong_b10_cut2_L_stereo_44KHz.wav
4	125	1	2	0	C	1	1	944	1	poli_8sides 12_whiteLine3.jpg	MediumLong_b10_cut2_L_stereo_44KHz.wav
4	126	3	3	2	I	2	0	1069	1	poli_8sides 13_whiteLine3.jpg	Medium_e01_cut1_stereo_44KHz.wav
4	127	2	1	0	C	1	1	1354	1	poli_8sides 2_whiteLine3.jpg	MediumLong_e17_cut2_stereo_44KHz.wav
4	128	4	3	2	I	1	0	1026	0	poli_8sides 11_whiteLine3.jpg	Medium_e01_cut1_stereo_44KHz.wav
4	129	3	3	2	I	2	0	1206	0	poli_8sides 13_whiteLine3.jpg	Medium_e01_cut1_stereo_44KHz.wav
4	130	2	2	1	C	1	0	726	0	poli_8sides 2_whiteLine3.jpg	MediumLong_b10_cut2_L_stereo_44KHz.wav
4	131	4	3	2	I	1	0	924	1	poli_8sides 11_whiteLine3.jpg	Medium_e01_cut1_stereo_44KHz.wav
4	132	1	2	0	C	2	0	663	0	poli_8sides 12_whiteLine3.jpg	MediumLong_b10_cut2_L_stereo_44KHz.wav
4	133	4	4	2	I	1	0	1076	0	poli_8sides 11_whiteLine3.jpg	Medium_e26_stereo_44KHz.wav
4	134	3	4	2	I	1	0	987	0	poli_8sides 13_whiteLine3.jpg	Medium_e26_stereo_44KHz.wav
4	135	1	1	1	C	1	0	924	0	poli_8sides 12_whiteLine3.jpg	MediumLong_e17_cut2_stereo_44KHz.wav
4	136	2	1	0	C	2	0	1156	0	poli_8sides 2_whiteLine3.jpg	MediumLong_e17_cut2_stereo_44KHz.wav
4	137	4	3	2	I	1	0	932	0	poli_8sides 11_whiteLine3.jpg	Medium_e01_cut1_stereo_44KHz.wav
4	138	1	1	1	C	2	1	1311	1	poli_8sides 12_whiteLine3.jpg	MediumLong_e17_cut2_stereo_44KHz.wav
4	139	2	1	0	C	1	1	1001	1	poli_8sides 2_whiteLine3.jpg	MediumLong_e17_cut2_stereo_44KHz.wav
4	140	3	4	2	I	1	0	1005	1	poli_8sides 13_whiteLine3.jpg	Medium_e26_stereo_44KHz.wav
4	141	2	2	1	C	1	0	1333	0	poli_8sides 2_whiteLine3.jpg	MediumLong_b10_cut2_L_stereo_44KHz.wav
4	142	3	3	2	I	2	0	1284	1	poli_8sides 13_whiteLine3.jpg	Medium_e01_cut1_stereo_44KHz.wav
4	143	4	4	2	I	2	0	1188	1	poli_8sides 11_whiteLine3.jpg	Medium_e26_stereo_44KHz.wav
4	144	1	2	0	C	1	1	1011	1	poli_8sides 12_whiteLine3.jpg	MediumLong_b10_cut2_L_stereo_44KHz.wav
4	145	2	2	1	C	2	1	1357	1	poli_8sides 2_whiteLine3.jpg	MediumLong_b10_cut2_L_stereo_44KHz.wav
4	146	1	2	0	C	1	1	929	1	poli_8sides 12_whiteLine3.jpg	MediumLong_b10_cut2_L_stereo_44KHz.wav
4	147	4	3	2	I	1	0	781	0	poli_8sides 11_whiteLine3.jpg	Medium_e01_cut1_stereo_44KHz.wav
4	148	3	3	2	I	2	0	1024	1	poli_8sides 13_whiteLine3.jpg	Medium_e01_cut1_stereo_44KHz.wav
4	149	2	1	0	C	1	1	928	1	poli_8sides 2_whiteLine3.jpg	MediumLong_e17_cut2_stereo_44KHz.wav
4	150	1	1	1	C	2	1	781	1	poli_8sides 12_whiteLine3.jpg	MediumLong_e17_cut2_stereo_44KHz.wav
4	151	4	4	2	I	1	0	1073	0	poli_8sides 11_whiteLine3.jpg	Medium_e26_stereo_44KHz.wav
4	152	3	4	2	I	1	0	1122	0	poli_8sides 13_whiteLine3.jpg	Medium_e26_stereo_44KHz.wav
4	153	4	3	2	I	2	0	732	0	poli_8sides 11_whiteLine3.jpg	Medium_e01_cut1_stereo_44KHz.wav
4	154	3	4	2	I	1	0	1443	0	poli_8sides 13_whiteLine3.jpg	Medium_e26_stereo_44KHz.wav
4	155	1	2	0	C	1	1	1502	1	poli_8sides 12_whiteLine3.jpg	MediumLong_b10_cut2_L_stereo_44KHz.wav
4	156	2	2	1	C	2	1	790	1	poli_8sides 2_whiteLine3.jpg	MediumLong_b10_cut2_L_stereo_44KHz.wav
4	157	1	1	1	C	2	1	933	1	poli_8sides 12_whiteLine3.jpg	MediumLong_e17_cut2_stereo_44KHz.wav
4	158	3	3	2	I	2	0	921	1	poli_8sides 13_whiteLine3.jpg	Medium_e01_cut1_stereo_44KHz.wav
4	159	4	4	2	I	1	0	1296	1	poli_8sides 11_whiteLine3.jpg	Medium_e26_stereo_44KHz.wav
4	160	2	1	0	C	2	0	884	0	poli_8sides 2_whiteLine3.jpg	MediumLong_e17_cut2_stereo_44KHz.wav
4	161	1	2	0	C	1	1	867	1	poli_8sides 12_whiteLine3.jpg	MediumLong_b10_cut2_L_stereo_44KHz.wav
4	162	4	4	2	I	1	0	971	0	poli_8sides 11_whiteLine3.jpg	Medium_e26_stereo_44KHz.wav
4	163	3	4	2	I	1	0	932	1	poli_8sides 13_whiteLine3.jpg	Medium_e26_stereo_44KHz.wav
4	164	2	2	1	C	2	1	1018	1	poli_8sides 2_whiteLine3.jpg	MediumLong_b10_cut2_L_stereo_44KHz.wav
4	165	4	3	2	I	2	0	1020	0	poli_8sides 11_whiteLine3.jpg	Medium_e01_cut1_stereo_44KHz.wav
4	166	1	1	1	C	2	1	1264	1	poli_8sides 12_whiteLine3.jpg	MediumLong_e17_cut2_stereo_44KHz.wav
4	167	3	3	2	I	2	0	1616	1	poli_8sides 13_whiteLine3.jpg	Medium_e01_cut1_stereo_44KHz.wav
4	168	2	1	0	C	1	1	1441	1	poli_8sides 2_whiteLine3.jpg	MediumLong_e17_cut2_stereo_44KHz.wav
4	169	4	4	2	I	2	0	1420	1	poli_8sides 11_whiteLine3.jpg	Medium_e26_stereo_44KHz.wav
4	170	3	4	2	I	1	0	1327	0	poli_8sides 13_whiteLine3.jpg	Medium_e26_stereo_44KHz.wav
4	171	1	2	0	C	1	1	938	1	poli_8sides 12_whiteLine3.jpg	MediumLong_b10_cut2_L_stereo_44KHz.wav
4	172	2	2	1	C	1	0	1550	0	poli_8sides 2_whiteLine3.jpg	MediumLong_b10_cut2_L_stereo_44KHz.wav
4	173	4	3	2	I	1	0	1523	1	poli_8sides 11_whiteLine3.jpg	Medium_e01_cut1_stereo_44KHz.wav
4	174	1	1	1	C	2	1	976	1	poli_8sides 12_whiteLine3.jpg	MediumLong_e17_cut2_stereo_44KHz.wav
4	175	2	1	0	C	2	0	1248	0	poli_8sides 2_whiteLine3.jpg	MediumLong_e17_cut2_stereo_44KHz.wav
4	176	3	3	2	I	2	0	1523	1	poli_8sides 13_whiteLine3.jpg	Medium_e01_cut1_stereo_44KHz.wav
4	177	2	1	0	C	2	0	977	0	poli_8sides 2_whiteLine3.jpg	MediumLong_e17_cut2_stereo_44KHz.wav
4	178	4	3	2	I	1	0	802	0	poli_8sides 11_whiteLine3.jpg	Medium_e01_cut1_stereo_44KHz.wav
4	179	1	2	0	C	2	0	842	0	poli_8sides 12_whiteLine3.jpg	MediumLong_b10_cut2_L_stereo_44KHz.wav
4	180	3	4	2	I	1	0	702	0	poli_8sides 13_whiteLine3.jpg	Medium_e26_stereo_44KHz.wav
4	181	4	4	2	I	2	0	1286	0	poli_8sides 11_whiteLine3.jpg	Medium_e26_stereo_44KHz.wav
4	182	3	3	2	I	2	0	1000	0	poli_8sides 13_whiteLine3.jpg	Medium_e01_cut1_stereo_44KHz.wav
4	183	1	1	1	C	2	1	1702	1	poli_8sides 12_whiteLine3.jpg	MediumLong_e17_cut2_stereo_44KHz.wav
4	184	2	2	1	C	2	1	1424	1	poli_8sides 2_whiteLine3.jpg	MediumLong_b10_cut2_L_stereo_44KHz.wav
4	185	4	4	2	I	1	0	1359	1	poli_8sides 11_whiteLine3.jpg	Medium_e26_stereo_44KHz.wav
4	186	1	1	1	C	2	1	1180	1	poli_8sides 12_whiteLine3.jpg	MediumLong_e17_cut2_stereo_44KHz.wav
4	187	3	3	2	I	2	0	929	1	poli_8sides 13_whiteLine3.jpg	Medium_e01_cut1_stereo_44KHz.wav
4	188	2	2	1	C	2	1	1048	1	poli_8sides 2_whiteLine3.jpg	MediumLong_b10_cut2_L_stereo_44KHz.wav
4	189	4	3	2	I	2	0	749	1	poli_8sides 11_whiteLine3.jpg	Medium_e01_cut1_stereo_44KHz.wav
4	190	3	4	2	I	1	0	893	0	poli_8sides 13_whiteLine3.jpg	Medium_e26_stereo_44KHz.wav
4	191	1	2	0	C	1	1	834	1	poli_8sides 12_whiteLine3.jpg	MediumLong_b10_cut2_L_stereo_44KHz.wav
4	192	2	1	0	C	2	0	1586	0	poli_8sides 2_whiteLine3.jpg	MediumLong_e17_cut2_stereo_44KHz.wav
4	193	3	4	2	I	1	0	799	1	poli_8sides 13_whiteLine3.jpg	Medium_e26_stereo_44KHz.wav
4	194	4	3	2	I	2	0	949	1	poli_8sides 11_whiteLine3.jpg	Medium_e01_cut1_stereo_44KHz.wav
4	195	1	2	0	C	1	1	1853	1	poli_8sides 12_whiteLine3.jpg	MediumLong_b10_cut2_L_stereo_44KHz.wav
4	196	2	2	1	C	2	1	1659	1	poli_8sides 2_whiteLine3.jpg	MediumLong_b10_cut2_L_stereo_44KHz.wav
4	197	1	1	1	C	2	1	955	1	poli_8sides 12_whiteLine3.jpg	MediumLong_e17_cut2_stereo_44KHz.wav
4	198	4	4	2	I	1	0	1599	0	poli_8sides 11_whiteLine3.jpg	Medium_e26_stereo_44KHz.wav
4	199	3	3	2	I	1	0	1652	1	poli_8sides 13_whiteLine3.jpg	Medium_e01_cut1_stereo_44KHz.wav
4	200	2	1	0	C	1	1	785	1	poli_8sides 2_whiteLine3.jpg	MediumLong_e17_cut2_stereo_44KHz.wav
