block	trial	Vstim	Astim	match	C/I	resp	.result	RT	fb	V-file	A-file
RL

0	1	1	1	1	C	1	1	836	1	Ⴉ	cut_ee_stereo_44KHz.wav
0	2	2	3	1	C	2	0	669	0	Ⴞ	cut_g_stereo_44KHz.wav
0	3	2	4	0	C	1	0	959	0	Ⴞ	cut_eeuw_stereo_44KHz.wav
0	4	1	2	0	C	1	0	924	0	Ⴉ	cut_oo_stereo_44KHz.wav
0	5	2	3	1	C	2	0	510	0	Ⴞ	cut_g_stereo_44KHz.wav
0	6	2	4	0	C	2	1	350	1	Ⴞ	cut_eeuw_stereo_44KHz.wav
0	7	1	1	1	C	1	1	717	1	Ⴉ	cut_ee_stereo_44KHz.wav
0	8	1	2	0	C	2	1	699	1	Ⴉ	cut_oo_stereo_44KHz.wav
0	9	1	2	0	C	2	1	668	1	Ⴉ	cut_oo_stereo_44KHz.wav
0	10	2	4	0	C	2	1	589	1	Ⴞ	cut_eeuw_stereo_44KHz.wav
0	11	2	3	1	C	2	0	690	0	Ⴞ	cut_g_stereo_44KHz.wav
0	12	1	1	1	C	1	1	790	1	Ⴉ	cut_ee_stereo_44KHz.wav
0	13	2	3	1	C	1	1	989	1	Ⴞ	cut_g_stereo_44KHz.wav
0	14	1	2	0	C	2	1	483	1	Ⴉ	cut_oo_stereo_44KHz.wav
0	15	1	1	1	C	1	1	648	1	Ⴉ	cut_ee_stereo_44KHz.wav
0	16	2	4	0	C	2	1	761	1	Ⴞ	cut_eeuw_stereo_44KHz.wav
0	17	1	2	0	C	2	1	1127	1	Ⴉ	cut_oo_stereo_44KHz.wav
0	18	1	1	1	C	1	1	828	1	Ⴉ	cut_ee_stereo_44KHz.wav
0	19	2	4	0	C	2	1	841	1	Ⴞ	cut_eeuw_stereo_44KHz.wav
0	20	2	3	1	C	1	1	787	1	Ⴞ	cut_g_stereo_44KHz.wav
0	21	2	4	0	C	2	1	947	1	Ⴞ	cut_eeuw_stereo_44KHz.wav
0	22	2	3	1	C	1	1	650	1	Ⴞ	cut_g_stereo_44KHz.wav
0	23	1	2	0	C	2	1	603	1	Ⴉ	cut_oo_stereo_44KHz.wav
0	24	1	1	1	C	1	1	709	1	Ⴉ	cut_ee_stereo_44KHz.wav
0	25	1	1	1	C	1	1	603	1	Ⴉ	cut_ee_stereo_44KHz.wav
0	26	2	3	1	C	1	1	650	1	Ⴞ	cut_g_stereo_44KHz.wav
0	27	1	2	0	C	2	1	641	1	Ⴉ	cut_oo_stereo_44KHz.wav
0	28	2	4	0	C	2	1	645	1	Ⴞ	cut_eeuw_stereo_44KHz.wav
0	29	1	1	1	C	1	1	584	1	Ⴉ	cut_ee_stereo_44KHz.wav
0	30	2	4	0	C	2	1	613	1	Ⴞ	cut_eeuw_stereo_44KHz.wav
avg_resp = 710
1	1	4	4	2	I	1	0	764	0	Ⴃ	cut_o_stereo_44KHz.wav
1	2	1	1	1	C	2	0	579	0	Ⴂ	cut_u_stereo_44KHz.wav
1	3	2	2	1	C	2	0	721	0	Ⴜ	cut_k_stereo_44KHz.wav
1	4	3	3	2	I	2	0	745	0	Ⴇ	cut_a_stereo_44KHz.wav
1	5	2	1	0	C	1	0	564	0	Ⴜ	cut_u_stereo_44KHz.wav
1	6	4	3	2	I	2	0	690	0	Ⴃ	cut_a_stereo_44KHz.wav
1	7	3	4	2	I	1	0	488	0	Ⴇ	cut_o_stereo_44KHz.wav
1	8	1	2	0	C	2	1	528	1	Ⴂ	cut_k_stereo_44KHz.wav
1	9	2	1	0	C	2	1	735	1	Ⴜ	cut_u_stereo_44KHz.wav
1	10	4	4	2	I	1	0	866	1	Ⴃ	cut_o_stereo_44KHz.wav
1	11	1	2	0	C	2	1	732	1	Ⴂ	cut_k_stereo_44KHz.wav
1	12	3	3	2	I	1	0	706	0	Ⴇ	cut_a_stereo_44KHz.wav
1	13	2	2	1	C	2	0	761	0	Ⴜ	cut_k_stereo_44KHz.wav
1	14	3	4	2	I	1	0	837	1	Ⴇ	cut_o_stereo_44KHz.wav
1	15	1	1	1	C	2	0	1118	0	Ⴂ	cut_u_stereo_44KHz.wav
1	16	4	3	2	I	2	0	850	0	Ⴃ	cut_a_stereo_44KHz.wav
1	17	1	1	1	C	1	1	993	1	Ⴂ	cut_u_stereo_44KHz.wav
1	18	3	4	2	I	2	0	845	1	Ⴇ	cut_o_stereo_44KHz.wav
1	19	2	2	1	C	2	0	672	0	Ⴜ	cut_k_stereo_44KHz.wav
1	20	4	3	2	I	2	0	915	1	Ⴃ	cut_a_stereo_44KHz.wav
1	21	3	3	2	I	1	0	667	0	Ⴇ	cut_a_stereo_44KHz.wav
1	22	1	2	0	C	2	1	969	1	Ⴂ	cut_k_stereo_44KHz.wav
1	23	4	4	2	I	1	0	862	0	Ⴃ	cut_o_stereo_44KHz.wav
1	24	2	1	0	C	2	1	792	1	Ⴜ	cut_u_stereo_44KHz.wav
1	25	1	1	1	C	1	1	757	1	Ⴂ	cut_u_stereo_44KHz.wav
1	26	4	4	2	I	1	0	781	1	Ⴃ	cut_o_stereo_44KHz.wav
1	27	3	4	2	I	2	0	824	1	Ⴇ	cut_o_stereo_44KHz.wav
1	28	2	2	1	C	2	0	956	0	Ⴜ	cut_k_stereo_44KHz.wav
1	29	4	3	2	I	2	0	1151	1	Ⴃ	cut_a_stereo_44KHz.wav
1	30	1	2	0	C	2	1	763	1	Ⴂ	cut_k_stereo_44KHz.wav
1	31	3	3	2	I	2	0	1109	0	Ⴇ	cut_a_stereo_44KHz.wav
1	32	2	1	0	C	2	1	1068	1	Ⴜ	cut_u_stereo_44KHz.wav
1	33	4	3	2	I	2	0	741	1	Ⴃ	cut_a_stereo_44KHz.wav
1	34	1	1	1	C	2	0	832	0	Ⴂ	cut_u_stereo_44KHz.wav
1	35	3	3	2	I	1	0	1047	1	Ⴇ	cut_a_stereo_44KHz.wav
1	36	2	1	0	C	2	1	1035	1	Ⴜ	cut_u_stereo_44KHz.wav
1	37	4	4	2	I	1	0	780	1	Ⴃ	cut_o_stereo_44KHz.wav
1	38	2	2	1	C	2	0	661	0	Ⴜ	cut_k_stereo_44KHz.wav
1	39	1	2	0	C	2	1	756	1	Ⴂ	cut_k_stereo_44KHz.wav
1	40	3	4	2	I	2	0	838	1	Ⴇ	cut_o_stereo_44KHz.wav
1	41	1	2	0	C	2	1	712	1	Ⴂ	cut_k_stereo_44KHz.wav
1	42	2	2	1	C	1	1	606	1	Ⴜ	cut_k_stereo_44KHz.wav
1	43	4	4	2	I	1	0	736	1	Ⴃ	cut_o_stereo_44KHz.wav
1	44	3	3	2	I	2	0	689	0	Ⴇ	cut_a_stereo_44KHz.wav
1	45	2	1	0	C	2	1	754	1	Ⴜ	cut_u_stereo_44KHz.wav
1	46	3	4	2	I	2	0	807	0	Ⴇ	cut_o_stereo_44KHz.wav
1	47	4	3	2	I	2	0	961	1	Ⴃ	cut_a_stereo_44KHz.wav
1	48	1	1	1	C	2	0	869	0	Ⴂ	cut_u_stereo_44KHz.wav
1	49	2	1	0	C	2	1	558	1	Ⴜ	cut_u_stereo_44KHz.wav
1	50	4	4	2	I	1	0	842	0	Ⴃ	cut_o_stereo_44KHz.wav
1	51	3	3	2	I	2	0	632	0	Ⴇ	cut_a_stereo_44KHz.wav
1	52	1	2	0	C	2	1	633	1	Ⴂ	cut_k_stereo_44KHz.wav
1	53	4	3	2	I	1	0	945	0	Ⴃ	cut_a_stereo_44KHz.wav
1	54	3	4	2	I	2	0	639	1	Ⴇ	cut_o_stereo_44KHz.wav
1	55	1	1	1	C	2	0	890	0	Ⴂ	cut_u_stereo_44KHz.wav
1	56	2	2	1	C	2	0	622	0	Ⴜ	cut_k_stereo_44KHz.wav
1	57	3	3	2	I	2	0	678	0	Ⴇ	cut_a_stereo_44KHz.wav
1	58	2	1	0	C	2	1	655	1	Ⴜ	cut_u_stereo_44KHz.wav
1	59	1	1	1	C	1	1	703	1	Ⴂ	cut_u_stereo_44KHz.wav
1	60	4	3	2	I	2	0	690	0	Ⴃ	cut_a_stereo_44KHz.wav
1	61	2	2	1	C	1	1	883	1	Ⴜ	cut_k_stereo_44KHz.wav
1	62	3	4	2	I	2	0	747	0	Ⴇ	cut_o_stereo_44KHz.wav
1	63	1	2	0	C	2	1	780	1	Ⴂ	cut_k_stereo_44KHz.wav
1	64	4	4	2	I	1	0	872	1	Ⴃ	cut_o_stereo_44KHz.wav
1	65	1	1	1	C	2	0	927	0	Ⴂ	cut_u_stereo_44KHz.wav
1	66	4	3	2	I	2	0	875	1	Ⴃ	cut_a_stereo_44KHz.wav
1	67	3	3	2	I	1	0	911	0	Ⴇ	cut_a_stereo_44KHz.wav
1	68	2	1	0	C	2	1	779	1	Ⴜ	cut_u_stereo_44KHz.wav
1	69	4	4	2	I	1	0	837	1	Ⴃ	cut_o_stereo_44KHz.wav
1	70	1	2	0	C	2	1	911	1	Ⴂ	cut_k_stereo_44KHz.wav
1	71	3	4	2	I	2	0	933	1	Ⴇ	cut_o_stereo_44KHz.wav
1	72	2	2	1	C	2	0	902	0	Ⴜ	cut_k_stereo_44KHz.wav
1	73	4	3	2	I	2	0	1053	0	Ⴃ	cut_a_stereo_44KHz.wav
1	74	2	2	1	C	2	0	865	0	Ⴜ	cut_k_stereo_44KHz.wav
1	75	3	4	2	I	2	0	788	1	Ⴇ	cut_o_stereo_44KHz.wav
1	76	1	1	1	C	1	1	968	1	Ⴂ	cut_u_stereo_44KHz.wav
1	77	4	4	2	I	1	0	793	0	Ⴃ	cut_o_stereo_44KHz.wav
1	78	3	3	2	I	1	0	1265	0	Ⴇ	cut_a_stereo_44KHz.wav
1	79	1	2	0	C	2	1	829	1	Ⴂ	cut_k_stereo_44KHz.wav
1	80	2	1	0	C	2	1	853	1	Ⴜ	cut_u_stereo_44KHz.wav
1	81	1	1	1	C	1	1	1214	1	Ⴂ	cut_u_stereo_44KHz.wav
1	82	4	4	2	I	1	0	1136	0	Ⴃ	cut_o_stereo_44KHz.wav
1	83	3	3	2	I	2	0	730	1	Ⴇ	cut_a_stereo_44KHz.wav
1	84	2	2	1	C	1	1	954	1	Ⴜ	cut_k_stereo_44KHz.wav
1	85	1	2	0	C	1	0	833	0	Ⴂ	cut_k_stereo_44KHz.wav
1	86	2	1	0	C	1	0	1440	0	Ⴜ	cut_u_stereo_44KHz.wav
1	87	4	3	2	I	2	0	658	1	Ⴃ	cut_a_stereo_44KHz.wav
1	88	3	4	2	I	2	0	841	1	Ⴇ	cut_o_stereo_44KHz.wav
1	89	1	2	0	C	2	1	939	1	Ⴂ	cut_k_stereo_44KHz.wav
1	90	2	1	0	C	1	0	526	0	Ⴜ	cut_u_stereo_44KHz.wav
1	91	4	4	2	I	2	0	685	0	Ⴃ	cut_o_stereo_44KHz.wav
1	92	3	3	2	I	2	0	1121	1	Ⴇ	cut_a_stereo_44KHz.wav
1	93	4	3	2	I	2	0	744	1	Ⴃ	cut_a_stereo_44KHz.wav
1	94	3	4	2	I	2	0	966	0	Ⴇ	cut_o_stereo_44KHz.wav
1	95	1	1	1	C	2	0	1275	0	Ⴂ	cut_u_stereo_44KHz.wav
1	96	2	2	1	C	1	1	1035	1	Ⴜ	cut_k_stereo_44KHz.wav
1	97	1	1	1	C	2	0	860	0	Ⴂ	cut_u_stereo_44KHz.wav
1	98	3	3	2	I	2	0	769	1	Ⴇ	cut_a_stereo_44KHz.wav
1	99	4	4	2	I	2	0	940	1	Ⴃ	cut_o_stereo_44KHz.wav
1	100	2	1	0	C	2	1	1092	1	Ⴜ	cut_u_stereo_44KHz.wav
1	101	4	3	2	I	2	0	748	1	Ⴃ	cut_a_stereo_44KHz.wav
1	102	2	2	1	C	1	1	997	1	Ⴜ	cut_k_stereo_44KHz.wav
1	103	1	2	0	C	2	1	631	1	Ⴂ	cut_k_stereo_44KHz.wav
1	104	3	4	2	I	2	0	993	1	Ⴇ	cut_o_stereo_44KHz.wav
1	105	2	1	0	C	1	0	1193	0	Ⴜ	cut_u_stereo_44KHz.wav
1	106	4	4	2	I	2	0	899	0	Ⴃ	cut_o_stereo_44KHz.wav
1	107	1	1	1	C	2	0	704	0	Ⴂ	cut_u_stereo_44KHz.wav
1	108	3	4	2	I	2	0	738	0	Ⴇ	cut_o_stereo_44KHz.wav
1	109	1	2	0	C	2	1	878	1	Ⴂ	cut_k_stereo_44KHz.wav
1	110	2	2	1	C	1	1	611	1	Ⴜ	cut_k_stereo_44KHz.wav
1	111	4	3	2	I	2	0	703	0	Ⴃ	cut_a_stereo_44KHz.wav
1	112	3	3	2	I	2	0	856	1	Ⴇ	cut_a_stereo_44KHz.wav
1	113	2	2	1	C	1	1	910	1	Ⴜ	cut_k_stereo_44KHz.wav
1	114	4	3	2	I	2	0	725	1	Ⴃ	cut_a_stereo_44KHz.wav
1	115	1	1	1	C	2	0	1033	0	Ⴂ	cut_u_stereo_44KHz.wav
1	116	3	3	2	I	2	0	680	0	Ⴇ	cut_a_stereo_44KHz.wav
1	117	2	1	0	C	2	1	645	1	Ⴜ	cut_u_stereo_44KHz.wav
1	118	4	4	2	I	2	0	825	1	Ⴃ	cut_o_stereo_44KHz.wav
1	119	3	4	2	I	1	0	780	1	Ⴇ	cut_o_stereo_44KHz.wav
1	120	1	2	0	C	2	1	811	1	Ⴂ	cut_k_stereo_44KHz.wav
1	121	2	2	1	C	1	1	672	1	Ⴜ	cut_k_stereo_44KHz.wav
1	122	4	3	2	I	2	0	701	1	Ⴃ	cut_a_stereo_44KHz.wav
1	123	3	4	2	I	1	0	1240	0	Ⴇ	cut_o_stereo_44KHz.wav
1	124	1	2	0	C	2	1	677	1	Ⴂ	cut_k_stereo_44KHz.wav
1	125	3	3	2	I	2	0	665	0	Ⴇ	cut_a_stereo_44KHz.wav
1	126	4	4	2	I	2	0	761	0	Ⴃ	cut_o_stereo_44KHz.wav
1	127	1	1	1	C	1	1	882	1	Ⴂ	cut_u_stereo_44KHz.wav
1	128	2	1	0	C	1	0	707	0	Ⴜ	cut_u_stereo_44KHz.wav
1	129	1	1	1	C	1	1	968	1	Ⴂ	cut_u_stereo_44KHz.wav
1	130	2	2	1	C	2	0	518	0	Ⴜ	cut_k_stereo_44KHz.wav
1	131	3	3	2	I	2	0	676	0	Ⴇ	cut_a_stereo_44KHz.wav
1	132	4	3	2	I	2	0	615	0	Ⴃ	cut_a_stereo_44KHz.wav
1	133	1	2	0	C	2	1	891	1	Ⴂ	cut_k_stereo_44KHz.wav
1	134	2	1	0	C	2	1	502	1	Ⴜ	cut_u_stereo_44KHz.wav
1	135	3	4	2	I	2	0	638	1	Ⴇ	cut_o_stereo_44KHz.wav
1	136	4	4	2	I	1	0	902	0	Ⴃ	cut_o_stereo_44KHz.wav
1	137	2	2	1	C	1	1	943	1	Ⴜ	cut_k_stereo_44KHz.wav
1	138	3	3	2	I	2	0	683	1	Ⴇ	cut_a_stereo_44KHz.wav
1	139	1	2	0	C	2	1	780	1	Ⴂ	cut_k_stereo_44KHz.wav
1	140	4	3	2	I	2	0	660	0	Ⴃ	cut_a_stereo_44KHz.wav
1	141	2	1	0	C	2	1	1179	1	Ⴜ	cut_u_stereo_44KHz.wav
1	142	4	4	2	I	2	0	655	0	Ⴃ	cut_o_stereo_44KHz.wav
1	143	3	4	2	I	2	0	621	0	Ⴇ	cut_o_stereo_44KHz.wav
1	144	1	1	1	C	1	1	1107	1	Ⴂ	cut_u_stereo_44KHz.wav
1	145	4	4	2	I	2	0	691	0	Ⴃ	cut_o_stereo_44KHz.wav
1	146	3	3	2	I	2	0	566	1	Ⴇ	cut_a_stereo_44KHz.wav
1	147	2	1	0	C	2	1	843	1	Ⴜ	cut_u_stereo_44KHz.wav
1	148	1	1	1	C	1	1	622	1	Ⴂ	cut_u_stereo_44KHz.wav
1	149	3	4	2	I	2	0	685	0	Ⴇ	cut_o_stereo_44KHz.wav
1	150	2	2	1	C	1	1	950	1	Ⴜ	cut_k_stereo_44KHz.wav
1	151	1	2	0	C	2	1	692	1	Ⴂ	cut_k_stereo_44KHz.wav
1	152	4	3	2	I	2	0	711	0	Ⴃ	cut_a_stereo_44KHz.wav
1	153	3	4	2	I	2	0	675	1	Ⴇ	cut_o_stereo_44KHz.wav
1	154	2	1	0	C	2	1	751	1	Ⴜ	cut_u_stereo_44KHz.wav
1	155	1	1	1	C	1	1	635	1	Ⴂ	cut_u_stereo_44KHz.wav
1	156	4	4	2	I	2	0	710	1	Ⴃ	cut_o_stereo_44KHz.wav
1	157	1	2	0	C	2	1	968	1	Ⴂ	cut_k_stereo_44KHz.wav
1	158	4	3	2	I	2	0	759	0	Ⴃ	cut_a_stereo_44KHz.wav
1	159	3	3	2	I	2	0	556	1	Ⴇ	cut_a_stereo_44KHz.wav
1	160	2	2	1	C	1	1	906	1	Ⴜ	cut_k_stereo_44KHz.wav
1	161	1	2	0	C	2	1	651	1	Ⴂ	cut_k_stereo_44KHz.wav
1	162	2	1	0	C	2	1	748	1	Ⴜ	cut_u_stereo_44KHz.wav
1	163	3	4	2	I	2	0	746	1	Ⴇ	cut_o_stereo_44KHz.wav
1	164	4	4	2	I	1	0	619	1	Ⴃ	cut_o_stereo_44KHz.wav
1	165	1	1	1	C	1	1	865	1	Ⴂ	cut_u_stereo_44KHz.wav
1	166	3	3	2	I	2	0	730	0	Ⴇ	cut_a_stereo_44KHz.wav
1	167	2	2	1	C	1	1	1021	1	Ⴜ	cut_k_stereo_44KHz.wav
1	168	4	3	2	I	2	0	614	1	Ⴃ	cut_a_stereo_44KHz.wav
1	169	2	2	1	C	1	1	1152	1	Ⴜ	cut_k_stereo_44KHz.wav
1	170	3	3	2	I	2	0	783	1	Ⴇ	cut_a_stereo_44KHz.wav
1	171	4	3	2	I	2	0	764	0	Ⴃ	cut_a_stereo_44KHz.wav
1	172	1	1	1	C	2	0	617	0	Ⴂ	cut_u_stereo_44KHz.wav
1	173	3	4	2	I	2	0	637	0	Ⴇ	cut_o_stereo_44KHz.wav
1	174	4	4	2	I	2	0	737	1	Ⴃ	cut_o_stereo_44KHz.wav
1	175	2	1	0	C	2	1	766	1	Ⴜ	cut_u_stereo_44KHz.wav
1	176	1	2	0	C	2	1	479	1	Ⴂ	cut_k_stereo_44KHz.wav
1	177	4	3	2	I	1	0	498	0	Ⴃ	cut_a_stereo_44KHz.wav
1	178	2	1	0	C	2	1	685	1	Ⴜ	cut_u_stereo_44KHz.wav
1	179	3	4	2	I	2	0	872	1	Ⴇ	cut_o_stereo_44KHz.wav
1	180	1	2	0	C	2	1	678	1	Ⴂ	cut_k_stereo_44KHz.wav
1	181	4	4	2	I	1	0	576	0	Ⴃ	cut_o_stereo_44KHz.wav
1	182	3	3	2	I	2	0	655	1	Ⴇ	cut_a_stereo_44KHz.wav
1	183	2	2	1	C	1	1	889	1	Ⴜ	cut_k_stereo_44KHz.wav
1	184	1	1	1	C	2	0	577	0	Ⴂ	cut_u_stereo_44KHz.wav
1	185	3	3	2	I	2	0	805	0	Ⴇ	cut_a_stereo_44KHz.wav
1	186	4	4	2	I	2	0	658	1	Ⴃ	cut_o_stereo_44KHz.wav
1	187	2	1	0	C	2	1	820	1	Ⴜ	cut_u_stereo_44KHz.wav
1	188	1	1	1	C	1	1	775	1	Ⴂ	cut_u_stereo_44KHz.wav
1	189	3	4	2	I	2	0	848	0	Ⴇ	cut_o_stereo_44KHz.wav
1	190	4	3	2	I	2	0	805	1	Ⴃ	cut_a_stereo_44KHz.wav
1	191	2	2	1	C	1	1	854	1	Ⴜ	cut_k_stereo_44KHz.wav
1	192	1	2	0	C	2	1	490	1	Ⴂ	cut_k_stereo_44KHz.wav
1	193	3	3	2	I	2	0	743	0	Ⴇ	cut_a_stereo_44KHz.wav
1	194	2	2	1	C	1	1	788	1	Ⴜ	cut_k_stereo_44KHz.wav
1	195	4	4	2	I	2	0	683	0	Ⴃ	cut_o_stereo_44KHz.wav
1	196	1	2	0	C	2	1	660	1	Ⴂ	cut_k_stereo_44KHz.wav
1	197	3	4	2	I	1	0	754	1	Ⴇ	cut_o_stereo_44KHz.wav
1	198	4	3	2	I	1	0	766	1	Ⴃ	cut_a_stereo_44KHz.wav
1	199	1	1	1	C	1	1	974	1	Ⴂ	cut_u_stereo_44KHz.wav
1	200	2	1	0	C	2	1	1119	1	Ⴜ	cut_u_stereo_44KHz.wav
2	1	4	3	2	I	1	0	1126	0	Ⴖ	cut_j_stereo_44KHz.wav
2	2	3	4	2	I	2	0	740	1	Ⴕ	cut_oei_stereo_44KHz.wav
2	3	2	2	1	C	2	0	988	0	Ⴉ	cut_s_stereo_44KHz.wav
2	4	1	2	0	C	2	1	668	1	Ⴐ	cut_s_stereo_44KHz.wav
2	5	2	1	0	C	2	1	985	1	Ⴉ	cut_ui_stereo_44KHz.wav
2	6	3	3	2	I	1	0	606	1	Ⴕ	cut_j_stereo_44KHz.wav
2	7	1	1	1	C	1	1	888	1	Ⴐ	cut_ui_stereo_44KHz.wav
2	8	4	4	2	I	1	0	991	0	Ⴖ	cut_oei_stereo_44KHz.wav
2	9	1	2	0	C	2	1	812	1	Ⴐ	cut_s_stereo_44KHz.wav
2	10	3	4	2	I	2	0	645	0	Ⴕ	cut_oei_stereo_44KHz.wav
2	11	4	4	2	I	2	0	657	0	Ⴖ	cut_oei_stereo_44KHz.wav
2	12	2	1	0	C	2	1	721	1	Ⴉ	cut_ui_stereo_44KHz.wav
2	13	1	1	1	C	1	1	782	1	Ⴐ	cut_ui_stereo_44KHz.wav
2	14	4	3	2	I	2	0	927	0	Ⴖ	cut_j_stereo_44KHz.wav
2	15	2	2	1	C	1	1	1020	1	Ⴉ	cut_s_stereo_44KHz.wav
2	16	3	3	2	I	1	0	861	0	Ⴕ	cut_j_stereo_44KHz.wav
2	17	2	1	0	C	1	0	956	0	Ⴉ	cut_ui_stereo_44KHz.wav
2	18	3	3	2	I	1	0	792	1	Ⴕ	cut_j_stereo_44KHz.wav
2	19	4	3	2	I	1	0	877	0	Ⴖ	cut_j_stereo_44KHz.wav
2	20	1	2	0	C	2	1	737	1	Ⴐ	cut_s_stereo_44KHz.wav
2	21	2	2	1	C	1	1	766	1	Ⴉ	cut_s_stereo_44KHz.wav
2	22	4	4	2	I	2	0	773	0	Ⴖ	cut_oei_stereo_44KHz.wav
2	23	1	1	1	C	2	0	788	0	Ⴐ	cut_ui_stereo_44KHz.wav
2	24	3	4	2	I	2	0	713	1	Ⴕ	cut_oei_stereo_44KHz.wav
2	25	2	1	0	C	1	0	894	0	Ⴉ	cut_ui_stereo_44KHz.wav
2	26	3	3	2	I	2	0	856	0	Ⴕ	cut_j_stereo_44KHz.wav
2	27	4	3	2	I	2	0	987	1	Ⴖ	cut_j_stereo_44KHz.wav
2	28	1	2	0	C	2	1	629	1	Ⴐ	cut_s_stereo_44KHz.wav
2	29	2	2	1	C	1	1	1244	1	Ⴉ	cut_s_stereo_44KHz.wav
2	30	1	1	1	C	1	1	742	1	Ⴐ	cut_ui_stereo_44KHz.wav
2	31	4	4	2	I	2	0	683	1	Ⴖ	cut_oei_stereo_44KHz.wav
2	32	3	4	2	I	1	0	1060	0	Ⴕ	cut_oei_stereo_44KHz.wav
2	33	4	3	2	I	2	0	964	1	Ⴖ	cut_j_stereo_44KHz.wav
2	34	3	3	2	I	1	0	882	1	Ⴕ	cut_j_stereo_44KHz.wav
2	35	2	2	1	C	1	1	1285	1	Ⴉ	cut_s_stereo_44KHz.wav
2	36	1	2	0	C	2	1	751	1	Ⴐ	cut_s_stereo_44KHz.wav
2	37	3	4	2	I	1	0	868	0	Ⴕ	cut_oei_stereo_44KHz.wav
2	38	1	1	1	C	1	1	832	1	Ⴐ	cut_ui_stereo_44KHz.wav
2	39	4	4	2	I	2	0	1150	1	Ⴖ	cut_oei_stereo_44KHz.wav
2	40	2	1	0	C	2	1	744	1	Ⴉ	cut_ui_stereo_44KHz.wav
2	41	1	2	0	C	2	1	923	1	Ⴐ	cut_s_stereo_44KHz.wav
2	42	3	3	2	I	2	0	913	0	Ⴕ	cut_j_stereo_44KHz.wav
2	43	2	2	1	C	1	1	1084	1	Ⴉ	cut_s_stereo_44KHz.wav
2	44	4	3	2	I	2	0	708	0	Ⴖ	cut_j_stereo_44KHz.wav
2	45	1	1	1	C	1	1	682	1	Ⴐ	cut_ui_stereo_44KHz.wav
2	46	3	4	2	I	2	0	746	1	Ⴕ	cut_oei_stereo_44KHz.wav
2	47	4	4	2	I	1	0	703	1	Ⴖ	cut_oei_stereo_44KHz.wav
2	48	2	1	0	C	2	1	849	1	Ⴉ	cut_ui_stereo_44KHz.wav
2	49	1	1	1	C	1	1	580	1	Ⴐ	cut_ui_stereo_44KHz.wav
2	50	4	3	2	I	2	0	793	1	Ⴖ	cut_j_stereo_44KHz.wav
2	51	3	4	2	I	2	0	870	0	Ⴕ	cut_oei_stereo_44KHz.wav
2	52	2	2	1	C	2	0	754	0	Ⴉ	cut_s_stereo_44KHz.wav
2	53	3	3	2	I	2	0	828	0	Ⴕ	cut_j_stereo_44KHz.wav
2	54	4	4	2	I	2	0	819	1	Ⴖ	cut_oei_stereo_44KHz.wav
2	55	2	1	0	C	2	1	831	1	Ⴉ	cut_ui_stereo_44KHz.wav
2	56	1	2	0	C	2	1	1081	1	Ⴐ	cut_s_stereo_44KHz.wav
2	57	2	1	0	C	2	1	1181	1	Ⴉ	cut_ui_stereo_44KHz.wav
2	58	4	3	2	I	2	0	1248	1	Ⴖ	cut_j_stereo_44KHz.wav
2	59	1	2	0	C	2	1	599	1	Ⴐ	cut_s_stereo_44KHz.wav
2	60	3	4	2	I	1	0	1010	1	Ⴕ	cut_oei_stereo_44KHz.wav
2	61	1	1	1	C	1	1	744	1	Ⴐ	cut_ui_stereo_44KHz.wav
2	62	2	2	1	C	1	1	833	1	Ⴉ	cut_s_stereo_44KHz.wav
2	63	4	4	2	I	2	0	827	1	Ⴖ	cut_oei_stereo_44KHz.wav
2	64	3	3	2	I	2	0	791	0	Ⴕ	cut_j_stereo_44KHz.wav
2	65	2	1	0	C	2	1	901	1	Ⴉ	cut_ui_stereo_44KHz.wav
2	66	1	1	1	C	1	1	598	1	Ⴐ	cut_ui_stereo_44KHz.wav
2	67	4	3	2	I	2	0	711	1	Ⴖ	cut_j_stereo_44KHz.wav
2	68	3	4	2	I	2	0	748	1	Ⴕ	cut_oei_stereo_44KHz.wav
2	69	2	2	1	C	1	1	814	1	Ⴉ	cut_s_stereo_44KHz.wav
2	70	1	2	0	C	2	1	518	1	Ⴐ	cut_s_stereo_44KHz.wav
2	71	4	4	2	I	2	0	728	1	Ⴖ	cut_oei_stereo_44KHz.wav
2	72	3	3	2	I	2	0	1095	1	Ⴕ	cut_j_stereo_44KHz.wav
2	73	2	2	1	C	1	1	893	1	Ⴉ	cut_s_stereo_44KHz.wav
2	74	1	2	0	C	2	1	432	1	Ⴐ	cut_s_stereo_44KHz.wav
2	75	4	4	2	I	2	0	745	1	Ⴖ	cut_oei_stereo_44KHz.wav
2	76	3	3	2	I	2	0	721	1	Ⴕ	cut_j_stereo_44KHz.wav
2	77	4	3	2	I	2	0	732	0	Ⴖ	cut_j_stereo_44KHz.wav
2	78	3	4	2	I	2	0	793	0	Ⴕ	cut_oei_stereo_44KHz.wav
2	79	2	1	0	C	2	1	717	1	Ⴉ	cut_ui_stereo_44KHz.wav
2	80	1	1	1	C	1	1	687	1	Ⴐ	cut_ui_stereo_44KHz.wav
2	81	3	4	2	I	2	0	636	1	Ⴕ	cut_oei_stereo_44KHz.wav
2	82	1	1	1	C	1	1	719	1	Ⴐ	cut_ui_stereo_44KHz.wav
2	83	4	4	2	I	2	0	692	0	Ⴖ	cut_oei_stereo_44KHz.wav
2	84	2	2	1	C	1	1	771	1	Ⴉ	cut_s_stereo_44KHz.wav
2	85	4	3	2	I	2	0	777	0	Ⴖ	cut_j_stereo_44KHz.wav
2	86	1	2	0	C	2	1	650	1	Ⴐ	cut_s_stereo_44KHz.wav
2	87	2	1	0	C	2	1	1313	1	Ⴉ	cut_ui_stereo_44KHz.wav
2	88	3	3	2	I	2	0	855	1	Ⴕ	cut_j_stereo_44KHz.wav
2	89	4	3	2	I	1	0	808	1	Ⴖ	cut_j_stereo_44KHz.wav
2	90	2	1	0	C	2	1	669	1	Ⴉ	cut_ui_stereo_44KHz.wav
2	91	1	1	1	C	1	1	699	1	Ⴐ	cut_ui_stereo_44KHz.wav
2	92	3	3	2	I	2	0	945	1	Ⴕ	cut_j_stereo_44KHz.wav
2	93	1	2	0	C	2	1	677	1	Ⴐ	cut_s_stereo_44KHz.wav
2	94	2	2	1	C	1	1	865	1	Ⴉ	cut_s_stereo_44KHz.wav
2	95	3	4	2	I	2	0	831	0	Ⴕ	cut_oei_stereo_44KHz.wav
2	96	4	4	2	I	2	0	1004	1	Ⴖ	cut_oei_stereo_44KHz.wav
2	97	1	1	1	C	1	1	938	1	Ⴐ	cut_ui_stereo_44KHz.wav
2	98	4	3	2	I	2	0	825	0	Ⴖ	cut_j_stereo_44KHz.wav
2	99	2	1	0	C	2	1	985	1	Ⴉ	cut_ui_stereo_44KHz.wav
2	100	3	3	2	I	2	0	780	0	Ⴕ	cut_j_stereo_44KHz.wav
2	101	2	2	1	C	1	1	1021	1	Ⴉ	cut_s_stereo_44KHz.wav
2	102	4	4	2	I	2	0	654	1	Ⴖ	cut_oei_stereo_44KHz.wav
2	103	3	4	2	I	1	0	924	0	Ⴕ	cut_oei_stereo_44KHz.wav
2	104	1	2	0	C	2	1	650	1	Ⴐ	cut_s_stereo_44KHz.wav
2	105	3	4	2	I	1	0	818	1	Ⴕ	cut_oei_stereo_44KHz.wav
2	106	2	2	1	C	1	1	747	1	Ⴉ	cut_s_stereo_44KHz.wav
2	107	1	1	1	C	1	1	906	1	Ⴐ	cut_ui_stereo_44KHz.wav
2	108	4	3	2	I	2	0	916	0	Ⴖ	cut_j_stereo_44KHz.wav
2	109	1	2	0	C	2	1	756	1	Ⴐ	cut_s_stereo_44KHz.wav
2	110	2	1	0	C	2	1	668	1	Ⴉ	cut_ui_stereo_44KHz.wav
2	111	3	3	2	I	2	0	726	0	Ⴕ	cut_j_stereo_44KHz.wav
2	112	4	4	2	I	1	0	1039	0	Ⴖ	cut_oei_stereo_44KHz.wav
2	113	3	3	2	I	2	0	653	0	Ⴕ	cut_j_stereo_44KHz.wav
2	114	2	2	1	C	1	1	839	1	Ⴉ	cut_s_stereo_44KHz.wav
2	115	1	2	0	C	2	1	678	1	Ⴐ	cut_s_stereo_44KHz.wav
2	116	4	3	2	I	2	0	821	1	Ⴖ	cut_j_stereo_44KHz.wav
2	117	3	4	2	I	2	0	636	1	Ⴕ	cut_oei_stereo_44KHz.wav
2	118	2	1	0	C	2	1	620	1	Ⴉ	cut_ui_stereo_44KHz.wav
2	119	4	4	2	I	2	0	786	0	Ⴖ	cut_oei_stereo_44KHz.wav
2	120	1	1	1	C	1	1	784	1	Ⴐ	cut_ui_stereo_44KHz.wav
2	121	2	2	1	C	1	1	818	1	Ⴉ	cut_s_stereo_44KHz.wav
2	122	3	3	2	I	2	0	734	0	Ⴕ	cut_j_stereo_44KHz.wav
2	123	4	3	2	I	2	0	645	0	Ⴖ	cut_j_stereo_44KHz.wav
2	124	1	2	0	C	2	1	740	1	Ⴐ	cut_s_stereo_44KHz.wav
2	125	4	4	2	I	2	0	668	0	Ⴖ	cut_oei_stereo_44KHz.wav
2	126	2	1	0	C	2	1	890	1	Ⴉ	cut_ui_stereo_44KHz.wav
2	127	1	1	1	C	1	1	834	1	Ⴐ	cut_ui_stereo_44KHz.wav
2	128	3	4	2	I	2	0	712	1	Ⴕ	cut_oei_stereo_44KHz.wav
2	129	1	1	1	C	1	1	806	1	Ⴐ	cut_ui_stereo_44KHz.wav
2	130	4	4	2	I	2	0	683	1	Ⴖ	cut_oei_stereo_44KHz.wav
2	131	3	3	2	I	2	0	698	1	Ⴕ	cut_j_stereo_44KHz.wav
2	132	2	2	1	C	1	1	859	1	Ⴉ	cut_s_stereo_44KHz.wav
2	133	4	3	2	I	2	0	673	0	Ⴖ	cut_j_stereo_44KHz.wav
2	134	3	4	2	I	2	0	673	0	Ⴕ	cut_oei_stereo_44KHz.wav
2	135	1	2	0	C	2	1	873	1	Ⴐ	cut_s_stereo_44KHz.wav
2	136	2	1	0	C	2	1	778	1	Ⴉ	cut_ui_stereo_44KHz.wav
2	137	1	1	1	C	1	1	739	1	Ⴐ	cut_ui_stereo_44KHz.wav
2	138	4	3	2	I	2	0	699	0	Ⴖ	cut_j_stereo_44KHz.wav
2	139	2	2	1	C	1	1	791	1	Ⴉ	cut_s_stereo_44KHz.wav
2	140	3	4	2	I	2	0	673	0	Ⴕ	cut_oei_stereo_44KHz.wav
2	141	2	1	0	C	2	1	776	1	Ⴉ	cut_ui_stereo_44KHz.wav
2	142	3	3	2	I	2	0	1189	0	Ⴕ	cut_j_stereo_44KHz.wav
2	143	1	2	0	C	2	1	896	1	Ⴐ	cut_s_stereo_44KHz.wav
2	144	4	4	2	I	1	0	794	1	Ⴖ	cut_oei_stereo_44KHz.wav
2	145	2	2	1	C	1	1	798	1	Ⴉ	cut_s_stereo_44KHz.wav
2	146	3	4	2	I	2	0	740	1	Ⴕ	cut_oei_stereo_44KHz.wav
2	147	4	3	2	I	2	0	659	0	Ⴖ	cut_j_stereo_44KHz.wav
2	148	1	1	1	C	1	1	797	1	Ⴐ	cut_ui_stereo_44KHz.wav
2	149	3	3	2	I	2	0	684	1	Ⴕ	cut_j_stereo_44KHz.wav
2	150	4	4	2	I	2	0	626	0	Ⴖ	cut_oei_stereo_44KHz.wav
2	151	1	2	0	C	2	1	678	1	Ⴐ	cut_s_stereo_44KHz.wav
2	152	2	1	0	C	2	1	705	1	Ⴉ	cut_ui_stereo_44KHz.wav
2	153	4	4	2	I	2	0	705	1	Ⴖ	cut_oei_stereo_44KHz.wav
2	154	1	2	0	C	2	1	796	1	Ⴐ	cut_s_stereo_44KHz.wav
2	155	2	2	1	C	1	1	692	1	Ⴉ	cut_s_stereo_44KHz.wav
2	156	3	4	2	I	2	0	615	0	Ⴕ	cut_oei_stereo_44KHz.wav
2	157	1	1	1	C	1	1	787	1	Ⴐ	cut_ui_stereo_44KHz.wav
2	158	3	3	2	I	2	0	605	1	Ⴕ	cut_j_stereo_44KHz.wav
2	159	2	1	0	C	1	0	1089	0	Ⴉ	cut_ui_stereo_44KHz.wav
2	160	4	3	2	I	2	0	670	0	Ⴖ	cut_j_stereo_44KHz.wav
2	161	3	4	2	I	2	0	618	0	Ⴕ	cut_oei_stereo_44KHz.wav
2	162	4	3	2	I	2	0	960	1	Ⴖ	cut_j_stereo_44KHz.wav
2	163	1	1	1	C	1	1	611	1	Ⴐ	cut_ui_stereo_44KHz.wav
2	164	2	1	0	C	2	1	597	1	Ⴉ	cut_ui_stereo_44KHz.wav
2	165	3	3	2	I	2	0	773	1	Ⴕ	cut_j_stereo_44KHz.wav
2	166	2	2	1	C	2	0	979	0	Ⴉ	cut_s_stereo_44KHz.wav
2	167	4	4	2	I	2	0	960	1	Ⴖ	cut_oei_stereo_44KHz.wav
2	168	1	2	0	C	2	1	903	1	Ⴐ	cut_s_stereo_44KHz.wav
2	169	2	2	1	C	1	1	729	1	Ⴉ	cut_s_stereo_44KHz.wav
2	170	4	3	2	I	2	0	781	0	Ⴖ	cut_j_stereo_44KHz.wav
2	171	3	4	2	I	2	0	667	1	Ⴕ	cut_oei_stereo_44KHz.wav
2	172	1	1	1	C	1	1	797	1	Ⴐ	cut_ui_stereo_44KHz.wav
2	173	3	3	2	I	2	0	819	1	Ⴕ	cut_j_stereo_44KHz.wav
2	174	2	1	0	C	2	1	1035	1	Ⴉ	cut_ui_stereo_44KHz.wav
2	175	4	4	2	I	2	0	785	0	Ⴖ	cut_oei_stereo_44KHz.wav
2	176	1	2	0	C	2	1	676	1	Ⴐ	cut_s_stereo_44KHz.wav
2	177	2	2	1	C	1	1	698	1	Ⴉ	cut_s_stereo_44KHz.wav
2	178	4	3	2	I	2	0	874	1	Ⴖ	cut_j_stereo_44KHz.wav
2	179	3	4	2	I	2	0	937	0	Ⴕ	cut_oei_stereo_44KHz.wav
2	180	1	2	0	C	2	1	739	1	Ⴐ	cut_s_stereo_44KHz.wav
2	181	3	3	2	I	1	0	1029	0	Ⴕ	cut_j_stereo_44KHz.wav
2	182	2	1	0	C	2	1	906	1	Ⴉ	cut_ui_stereo_44KHz.wav
2	183	1	1	1	C	1	1	693	1	Ⴐ	cut_ui_stereo_44KHz.wav
2	184	4	4	2	I	2	0	944	0	Ⴖ	cut_oei_stereo_44KHz.wav
2	185	1	2	0	C	2	1	861	1	Ⴐ	cut_s_stereo_44KHz.wav
2	186	2	1	0	C	2	1	631	1	Ⴉ	cut_ui_stereo_44KHz.wav
2	187	3	4	2	I	1	0	357	1	Ⴕ	cut_oei_stereo_44KHz.wav
2	188	4	4	2	I	2	0	756	0	Ⴖ	cut_oei_stereo_44KHz.wav
2	189	3	3	2	I	2	0	1637	1	Ⴕ	cut_j_stereo_44KHz.wav
2	190	1	1	1	C	1	1	861	1	Ⴐ	cut_ui_stereo_44KHz.wav
2	191	4	3	2	I	2	0	618	1	Ⴖ	cut_j_stereo_44KHz.wav
2	192	2	2	1	C	1	1	994	1	Ⴉ	cut_s_stereo_44KHz.wav
2	193	4	3	2	I	2	0	705	1	Ⴖ	cut_j_stereo_44KHz.wav
2	194	3	3	2	I	2	0	601	0	Ⴕ	cut_j_stereo_44KHz.wav
2	195	2	2	1	C	1	1	762	1	Ⴉ	cut_s_stereo_44KHz.wav
2	196	1	2	0	C	2	1	913	1	Ⴐ	cut_s_stereo_44KHz.wav
2	197	4	4	2	I	1	0	568	1	Ⴖ	cut_oei_stereo_44KHz.wav
2	198	1	1	1	C	1	1	677	1	Ⴐ	cut_ui_stereo_44KHz.wav
2	199	3	4	2	I	2	0	590	0	Ⴕ	cut_oei_stereo_44KHz.wav
2	200	2	1	0	C	2	1	808	1	Ⴉ	cut_ui_stereo_44KHz.wav
3	1	2	2	1	C	2	0	951	0	Ⴟ	cut_n_stereo_44KHz.wav
3	2	4	4	2	I	2	0	768	0	Ⴁ	cut_f_stereo_44KHz.wav
3	3	3	4	2	I	2	0	794	1	Ⴊ	cut_f_stereo_44KHz.wav
3	4	1	1	1	C	2	0	869	0	Ⴡ	cut_ei_stereo_44KHz.wav
3	5	4	3	2	I	2	0	979	0	Ⴁ	cut_r_stereo_44KHz.wav
3	6	1	2	0	C	1	0	680	0	Ⴡ	cut_n_stereo_44KHz.wav
3	7	3	3	2	I	2	0	810	0	Ⴊ	cut_r_stereo_44KHz.wav
3	8	2	1	0	C	1	0	554	0	Ⴟ	cut_ei_stereo_44KHz.wav
3	9	4	4	2	I	2	0	592	1	Ⴁ	cut_f_stereo_44KHz.wav
3	10	1	2	0	C	2	1	893	1	Ⴡ	cut_n_stereo_44KHz.wav
3	11	3	3	2	I	2	0	826	1	Ⴊ	cut_r_stereo_44KHz.wav
3	12	2	1	0	C	1	0	764	0	Ⴟ	cut_ei_stereo_44KHz.wav
3	13	1	1	1	C	2	0	617	0	Ⴡ	cut_ei_stereo_44KHz.wav
3	14	3	4	2	I	2	0	939	0	Ⴊ	cut_f_stereo_44KHz.wav
3	15	2	2	1	C	2	0	799	0	Ⴟ	cut_n_stereo_44KHz.wav
3	16	4	3	2	I	2	0	677	1	Ⴁ	cut_r_stereo_44KHz.wav
3	17	3	3	2	I	1	0	866	1	Ⴊ	cut_r_stereo_44KHz.wav
3	18	2	1	0	C	2	1	860	1	Ⴟ	cut_ei_stereo_44KHz.wav
3	19	4	3	2	I	2	0	772	0	Ⴁ	cut_r_stereo_44KHz.wav
3	20	1	2	0	C	2	1	632	1	Ⴡ	cut_n_stereo_44KHz.wav
3	21	4	4	2	I	2	0	871	0	Ⴁ	cut_f_stereo_44KHz.wav
3	22	1	1	1	C	1	1	797	1	Ⴡ	cut_ei_stereo_44KHz.wav
3	23	2	2	1	C	1	1	751	1	Ⴟ	cut_n_stereo_44KHz.wav
3	24	3	4	2	I	2	0	828	0	Ⴊ	cut_f_stereo_44KHz.wav
3	25	1	2	0	C	2	1	765	1	Ⴡ	cut_n_stereo_44KHz.wav
3	26	3	4	2	I	1	0	909	1	Ⴊ	cut_f_stereo_44KHz.wav
3	27	2	1	0	C	2	1	575	1	Ⴟ	cut_ei_stereo_44KHz.wav
3	28	4	3	2	I	2	0	627	0	Ⴁ	cut_r_stereo_44KHz.wav
3	29	2	2	1	C	1	1	934	1	Ⴟ	cut_n_stereo_44KHz.wav
3	30	3	3	2	I	2	0	752	1	Ⴊ	cut_r_stereo_44KHz.wav
3	31	4	4	2	I	2	0	710	1	Ⴁ	cut_f_stereo_44KHz.wav
3	32	1	1	1	C	1	1	765	1	Ⴡ	cut_ei_stereo_44KHz.wav
3	33	2	1	0	C	2	1	470	1	Ⴟ	cut_ei_stereo_44KHz.wav
3	34	4	3	2	I	2	0	667	0	Ⴁ	cut_r_stereo_44KHz.wav
3	35	3	3	2	I	2	0	667	0	Ⴊ	cut_r_stereo_44KHz.wav
3	36	1	1	1	C	1	1	673	1	Ⴡ	cut_ei_stereo_44KHz.wav
3	37	4	4	2	I	2	0	800	1	Ⴁ	cut_f_stereo_44KHz.wav
3	38	3	4	2	I	1	0	788	0	Ⴊ	cut_f_stereo_44KHz.wav
3	39	1	2	0	C	2	1	796	1	Ⴡ	cut_n_stereo_44KHz.wav
3	40	2	2	1	C	1	1	708	1	Ⴟ	cut_n_stereo_44KHz.wav
3	41	3	4	2	I	2	0	711	0	Ⴊ	cut_f_stereo_44KHz.wav
3	42	1	2	0	C	2	1	750	1	Ⴡ	cut_n_stereo_44KHz.wav
3	43	2	2	1	C	1	1	702	1	Ⴟ	cut_n_stereo_44KHz.wav
3	44	4	3	2	I	2	0	672	1	Ⴁ	cut_r_stereo_44KHz.wav
3	45	2	1	0	C	1	0	842	0	Ⴟ	cut_ei_stereo_44KHz.wav
3	46	4	4	2	I	2	0	671	0	Ⴁ	cut_f_stereo_44KHz.wav
3	47	1	1	1	C	1	1	692	1	Ⴡ	cut_ei_stereo_44KHz.wav
3	48	3	3	2	I	2	0	685	1	Ⴊ	cut_r_stereo_44KHz.wav
3	49	2	1	0	C	2	1	463	1	Ⴟ	cut_ei_stereo_44KHz.wav
3	50	3	4	2	I	2	0	587	0	Ⴊ	cut_f_stereo_44KHz.wav
3	51	4	4	2	I	2	0	628	0	Ⴁ	cut_f_stereo_44KHz.wav
3	52	1	1	1	C	1	1	782	1	Ⴡ	cut_ei_stereo_44KHz.wav
3	53	2	2	1	C	1	1	765	1	Ⴟ	cut_n_stereo_44KHz.wav
3	54	4	3	2	I	2	0	755	0	Ⴁ	cut_r_stereo_44KHz.wav
3	55	3	3	2	I	2	0	604	0	Ⴊ	cut_r_stereo_44KHz.wav
3	56	1	2	0	C	1	0	667	0	Ⴡ	cut_n_stereo_44KHz.wav
3	57	3	4	2	I	2	0	756	1	Ⴊ	cut_f_stereo_44KHz.wav
3	58	1	2	0	C	2	1	716	1	Ⴡ	cut_n_stereo_44KHz.wav
3	59	2	1	0	C	2	1	660	1	Ⴟ	cut_ei_stereo_44KHz.wav
3	60	4	4	2	I	2	0	781	1	Ⴁ	cut_f_stereo_44KHz.wav
3	61	2	2	1	C	1	1	967	1	Ⴟ	cut_n_stereo_44KHz.wav
3	62	4	3	2	I	2	0	701	1	Ⴁ	cut_r_stereo_44KHz.wav
3	63	1	1	1	C	1	1	609	1	Ⴡ	cut_ei_stereo_44KHz.wav
3	64	3	3	2	I	2	0	647	0	Ⴊ	cut_r_stereo_44KHz.wav
3	65	1	1	1	C	1	1	921	1	Ⴡ	cut_ei_stereo_44KHz.wav
3	66	3	3	2	I	2	0	719	0	Ⴊ	cut_r_stereo_44KHz.wav
3	67	4	3	2	I	2	0	703	1	Ⴁ	cut_r_stereo_44KHz.wav
3	68	2	2	1	C	1	1	760	1	Ⴟ	cut_n_stereo_44KHz.wav
3	69	4	4	2	I	2	0	814	0	Ⴁ	cut_f_stereo_44KHz.wav
3	70	2	1	0	C	2	1	602	1	Ⴟ	cut_ei_stereo_44KHz.wav
3	71	1	2	0	C	2	1	822	1	Ⴡ	cut_n_stereo_44KHz.wav
3	72	3	4	2	I	2	0	892	1	Ⴊ	cut_f_stereo_44KHz.wav
3	73	4	3	2	I	2	0	687	0	Ⴁ	cut_r_stereo_44KHz.wav
3	74	3	3	2	I	2	0	1306	0	Ⴊ	cut_r_stereo_44KHz.wav
3	75	1	1	1	C	1	1	647	1	Ⴡ	cut_ei_stereo_44KHz.wav
3	76	2	2	1	C	1	1	617	1	Ⴟ	cut_n_stereo_44KHz.wav
3	77	3	4	2	I	1	0	483	1	Ⴊ	cut_f_stereo_44KHz.wav
3	78	4	4	2	I	1	0	502	0	Ⴁ	cut_f_stereo_44KHz.wav
3	79	2	1	0	C	2	1	592	1	Ⴟ	cut_ei_stereo_44KHz.wav
3	80	1	2	0	C	2	1	767	1	Ⴡ	cut_n_stereo_44KHz.wav
3	81	4	4	2	I	2	0	735	0	Ⴁ	cut_f_stereo_44KHz.wav
3	82	1	1	1	C	1	1	763	1	Ⴡ	cut_ei_stereo_44KHz.wav
3	83	3	4	2	I	2	0	697	0	Ⴊ	cut_f_stereo_44KHz.wav
3	84	2	2	1	C	1	1	687	1	Ⴟ	cut_n_stereo_44KHz.wav
3	85	4	3	2	I	2	0	990	0	Ⴁ	cut_r_stereo_44KHz.wav
3	86	2	1	0	C	2	1	768	1	Ⴟ	cut_ei_stereo_44KHz.wav
3	87	1	2	0	C	2	1	948	1	Ⴡ	cut_n_stereo_44KHz.wav
3	88	3	3	2	I	2	0	634	0	Ⴊ	cut_r_stereo_44KHz.wav
3	89	4	4	2	I	2	0	684	0	Ⴁ	cut_f_stereo_44KHz.wav
3	90	2	1	0	C	2	1	1106	1	Ⴟ	cut_ei_stereo_44KHz.wav
3	91	3	3	2	I	2	0	698	1	Ⴊ	cut_r_stereo_44KHz.wav
3	92	1	1	1	C	1	1	677	1	Ⴡ	cut_ei_stereo_44KHz.wav
3	93	2	2	1	C	1	1	691	1	Ⴟ	cut_n_stereo_44KHz.wav
3	94	3	4	2	I	2	0	879	0	Ⴊ	cut_f_stereo_44KHz.wav
3	95	4	3	2	I	2	0	921	0	Ⴁ	cut_r_stereo_44KHz.wav
3	96	1	2	0	C	2	1	875	1	Ⴡ	cut_n_stereo_44KHz.wav
3	97	4	4	2	I	2	0	837	0	Ⴁ	cut_f_stereo_44KHz.wav
3	98	2	1	0	C	2	1	724	1	Ⴟ	cut_ei_stereo_44KHz.wav
3	99	1	2	0	C	2	1	607	1	Ⴡ	cut_n_stereo_44KHz.wav
3	100	3	4	2	I	2	0	918	1	Ⴊ	cut_f_stereo_44KHz.wav
3	101	1	1	1	C	1	1	1069	1	Ⴡ	cut_ei_stereo_44KHz.wav
3	102	4	3	2	I	2	0	939	0	Ⴁ	cut_r_stereo_44KHz.wav
3	103	3	3	2	I	2	0	588	1	Ⴊ	cut_r_stereo_44KHz.wav
3	104	2	2	1	C	1	1	700	1	Ⴟ	cut_n_stereo_44KHz.wav
3	105	4	4	2	I	2	0	645	0	Ⴁ	cut_f_stereo_44KHz.wav
3	106	2	2	1	C	1	1	954	1	Ⴟ	cut_n_stereo_44KHz.wav
3	107	3	3	2	I	2	0	678	0	Ⴊ	cut_r_stereo_44KHz.wav
3	108	1	1	1	C	1	1	897	1	Ⴡ	cut_ei_stereo_44KHz.wav
3	109	3	4	2	I	2	0	668	1	Ⴊ	cut_f_stereo_44KHz.wav
3	110	2	1	0	C	2	1	888	1	Ⴟ	cut_ei_stereo_44KHz.wav
3	111	4	3	2	I	2	0	799	1	Ⴁ	cut_r_stereo_44KHz.wav
3	112	1	2	0	C	2	1	700	1	Ⴡ	cut_n_stereo_44KHz.wav
3	113	2	1	0	C	2	1	577	1	Ⴟ	cut_ei_stereo_44KHz.wav
3	114	1	1	1	C	1	1	589	1	Ⴡ	cut_ei_stereo_44KHz.wav
3	115	3	3	2	I	2	0	854	1	Ⴊ	cut_r_stereo_44KHz.wav
3	116	4	3	2	I	1	0	1171	1	Ⴁ	cut_r_stereo_44KHz.wav
3	117	1	2	0	C	2	1	610	1	Ⴡ	cut_n_stereo_44KHz.wav
3	118	2	2	1	C	1	1	913	1	Ⴟ	cut_n_stereo_44KHz.wav
3	119	3	4	2	I	2	0	690	1	Ⴊ	cut_f_stereo_44KHz.wav
3	120	4	4	2	I	1	0	925	1	Ⴁ	cut_f_stereo_44KHz.wav
3	121	1	1	1	C	1	1	712	1	Ⴡ	cut_ei_stereo_44KHz.wav
3	122	4	4	2	I	2	0	762	1	Ⴁ	cut_f_stereo_44KHz.wav
3	123	3	4	2	I	1	0	770	1	Ⴊ	cut_f_stereo_44KHz.wav
3	124	2	1	0	C	2	1	722	1	Ⴟ	cut_ei_stereo_44KHz.wav
3	125	4	3	2	I	2	0	735	1	Ⴁ	cut_r_stereo_44KHz.wav
3	126	3	3	2	I	1	0	501	1	Ⴊ	cut_r_stereo_44KHz.wav
3	127	2	2	1	C	1	1	707	1	Ⴟ	cut_n_stereo_44KHz.wav
3	128	1	2	0	C	2	1	788	1	Ⴡ	cut_n_stereo_44KHz.wav
3	129	3	4	2	I	2	0	794	0	Ⴊ	cut_f_stereo_44KHz.wav
3	130	4	4	2	I	1	0	656	0	Ⴁ	cut_f_stereo_44KHz.wav
3	131	1	2	0	C	2	1	572	1	Ⴡ	cut_n_stereo_44KHz.wav
3	132	2	1	0	C	2	1	568	1	Ⴟ	cut_ei_stereo_44KHz.wav
3	133	1	1	1	C	1	1	1275	1	Ⴡ	cut_ei_stereo_44KHz.wav
3	134	2	2	1	C	1	1	1028	1	Ⴟ	cut_n_stereo_44KHz.wav
3	135	4	3	2	I	2	0	1085	0	Ⴁ	cut_r_stereo_44KHz.wav
3	136	3	3	2	I	2	0	690	0	Ⴊ	cut_r_stereo_44KHz.wav
3	137	4	3	2	I	2	0	830	1	Ⴁ	cut_r_stereo_44KHz.wav
3	138	1	1	1	C	1	1	731	1	Ⴡ	cut_ei_stereo_44KHz.wav
3	139	2	2	1	C	1	1	647	1	Ⴟ	cut_n_stereo_44KHz.wav
3	140	3	4	2	I	2	0	627	1	Ⴊ	cut_f_stereo_44KHz.wav
3	141	2	1	0	C	2	1	1025	1	Ⴟ	cut_ei_stereo_44KHz.wav
3	142	4	4	2	I	2	0	768	0	Ⴁ	cut_f_stereo_44KHz.wav
3	143	3	3	2	I	1	0	651	1	Ⴊ	cut_r_stereo_44KHz.wav
3	144	1	2	0	C	2	1	708	1	Ⴡ	cut_n_stereo_44KHz.wav
3	145	4	3	2	I	2	0	610	1	Ⴁ	cut_r_stereo_44KHz.wav
3	146	2	2	1	C	1	1	679	1	Ⴟ	cut_n_stereo_44KHz.wav
3	147	1	2	0	C	2	1	655	1	Ⴡ	cut_n_stereo_44KHz.wav
3	148	3	4	2	I	2	0	640	0	Ⴊ	cut_f_stereo_44KHz.wav
3	149	1	1	1	C	1	1	835	1	Ⴡ	cut_ei_stereo_44KHz.wav
3	150	4	4	2	I	2	0	659	1	Ⴁ	cut_f_stereo_44KHz.wav
3	151	2	1	0	C	2	1	631	1	Ⴟ	cut_ei_stereo_44KHz.wav
3	152	3	3	2	I	2	0	605	0	Ⴊ	cut_r_stereo_44KHz.wav
3	153	4	4	2	I	2	0	622	1	Ⴁ	cut_f_stereo_44KHz.wav
3	154	1	2	0	C	2	1	623	1	Ⴡ	cut_n_stereo_44KHz.wav
3	155	3	4	2	I	2	0	779	1	Ⴊ	cut_f_stereo_44KHz.wav
3	156	2	2	1	C	1	1	655	1	Ⴟ	cut_n_stereo_44KHz.wav
3	157	3	3	2	I	2	0	653	0	Ⴊ	cut_r_stereo_44KHz.wav
3	158	4	3	2	I	2	0	562	1	Ⴁ	cut_r_stereo_44KHz.wav
3	159	2	1	0	C	2	1	546	1	Ⴟ	cut_ei_stereo_44KHz.wav
3	160	1	1	1	C	1	1	613	1	Ⴡ	cut_ei_stereo_44KHz.wav
3	161	4	3	2	I	2	0	776	0	Ⴁ	cut_r_stereo_44KHz.wav
3	162	3	4	2	I	2	0	637	1	Ⴊ	cut_f_stereo_44KHz.wav
3	163	1	2	0	C	2	1	602	1	Ⴡ	cut_n_stereo_44KHz.wav
3	164	2	2	1	C	1	1	625	1	Ⴟ	cut_n_stereo_44KHz.wav
3	165	1	1	1	C	1	1	718	1	Ⴡ	cut_ei_stereo_44KHz.wav
3	166	2	1	0	C	2	1	725	1	Ⴟ	cut_ei_stereo_44KHz.wav
3	167	3	3	2	I	2	0	668	0	Ⴊ	cut_r_stereo_44KHz.wav
3	168	4	4	2	I	2	0	679	1	Ⴁ	cut_f_stereo_44KHz.wav
3	169	2	1	0	C	2	1	535	1	Ⴟ	cut_ei_stereo_44KHz.wav
3	170	4	4	2	I	2	0	799	1	Ⴁ	cut_f_stereo_44KHz.wav
3	171	1	1	1	C	1	1	750	1	Ⴡ	cut_ei_stereo_44KHz.wav
3	172	3	4	2	I	2	0	642	1	Ⴊ	cut_f_stereo_44KHz.wav
3	173	1	2	0	C	2	1	980	1	Ⴡ	cut_n_stereo_44KHz.wav
3	174	3	3	2	I	1	0	907	0	Ⴊ	cut_r_stereo_44KHz.wav
3	175	2	2	1	C	1	1	810	1	Ⴟ	cut_n_stereo_44KHz.wav
3	176	4	3	2	I	2	0	653	0	Ⴁ	cut_r_stereo_44KHz.wav
3	177	2	2	1	C	1	1	734	1	Ⴟ	cut_n_stereo_44KHz.wav
3	178	4	3	2	I	2	0	709	1	Ⴁ	cut_r_stereo_44KHz.wav
3	179	1	2	0	C	2	1	904	1	Ⴡ	cut_n_stereo_44KHz.wav
3	180	3	3	2	I	2	0	679	1	Ⴊ	cut_r_stereo_44KHz.wav
3	181	1	1	1	C	1	1	774	1	Ⴡ	cut_ei_stereo_44KHz.wav
3	182	2	1	0	C	2	1	496	1	Ⴟ	cut_ei_stereo_44KHz.wav
3	183	4	4	2	I	2	0	607	1	Ⴁ	cut_f_stereo_44KHz.wav
3	184	3	4	2	I	1	0	678	1	Ⴊ	cut_f_stereo_44KHz.wav
3	185	1	2	0	C	2	1	731	1	Ⴡ	cut_n_stereo_44KHz.wav
3	186	4	3	2	I	2	0	674	1	Ⴁ	cut_r_stereo_44KHz.wav
3	187	3	4	2	I	2	0	831	0	Ⴊ	cut_f_stereo_44KHz.wav
3	188	2	2	1	C	1	1	758	1	Ⴟ	cut_n_stereo_44KHz.wav
3	189	4	4	2	I	2	0	710	0	Ⴁ	cut_f_stereo_44KHz.wav
3	190	2	1	0	C	2	1	510	1	Ⴟ	cut_ei_stereo_44KHz.wav
3	191	3	3	2	I	2	0	629	0	Ⴊ	cut_r_stereo_44KHz.wav
3	192	1	1	1	C	1	1	708	1	Ⴡ	cut_ei_stereo_44KHz.wav
3	193	4	3	2	I	2	0	761	1	Ⴁ	cut_r_stereo_44KHz.wav
3	194	2	2	1	C	1	1	721	1	Ⴟ	cut_n_stereo_44KHz.wav
3	195	1	2	0	C	2	1	937	1	Ⴡ	cut_n_stereo_44KHz.wav
3	196	3	4	2	I	2	0	767	1	Ⴊ	cut_f_stereo_44KHz.wav
3	197	2	1	0	C	2	1	578	1	Ⴟ	cut_ei_stereo_44KHz.wav
3	198	4	4	2	I	2	0	691	1	Ⴁ	cut_f_stereo_44KHz.wav
3	199	3	3	2	I	2	0	631	0	Ⴊ	cut_r_stereo_44KHz.wav
3	200	1	1	1	C	1	1	687	1	Ⴡ	cut_ei_stereo_44KHz.wav
4	1	4	3	2	I	1	0	767	0	Ⴒ	cut_h_stereo_44KHz.wav
4	2	2	2	1	C	2	0	627	0	Ⴔ	cut_g_stereo_44KHz.wav
4	3	3	4	2	I	2	0	636	0	Ⴏ	cut_w_stereo_44KHz.wav
4	4	1	1	1	C	2	0	764	0	Ⴌ	cut_l_stereo_44KHz.wav
4	5	3	3	2	I	2	0	684	0	Ⴏ	cut_h_stereo_44KHz.wav
4	6	2	1	0	C	2	1	502	1	Ⴔ	cut_l_stereo_44KHz.wav
4	7	1	2	0	C	2	1	647	1	Ⴌ	cut_g_stereo_44KHz.wav
4	8	4	4	2	I	1	0	519	1	Ⴒ	cut_w_stereo_44KHz.wav
4	9	3	3	2	I	2	0	740	0	Ⴏ	cut_h_stereo_44KHz.wav
4	10	2	2	1	C	2	0	656	0	Ⴔ	cut_g_stereo_44KHz.wav
4	11	4	4	2	I	1	0	814	1	Ⴒ	cut_w_stereo_44KHz.wav
4	12	1	2	0	C	2	1	682	1	Ⴌ	cut_g_stereo_44KHz.wav
4	13	2	1	0	C	2	1	731	1	Ⴔ	cut_l_stereo_44KHz.wav
4	14	4	3	2	I	2	0	962	1	Ⴒ	cut_h_stereo_44KHz.wav
4	15	3	4	2	I	2	0	1011	0	Ⴏ	cut_w_stereo_44KHz.wav
4	16	1	1	1	C	2	0	813	0	Ⴌ	cut_l_stereo_44KHz.wav
4	17	2	1	0	C	2	1	618	1	Ⴔ	cut_l_stereo_44KHz.wav
4	18	4	3	2	I	2	0	634	1	Ⴒ	cut_h_stereo_44KHz.wav
4	19	3	4	2	I	1	0	1141	0	Ⴏ	cut_w_stereo_44KHz.wav
4	20	1	2	0	C	2	1	711	1	Ⴌ	cut_g_stereo_44KHz.wav
4	21	2	2	1	C	1	1	676	1	Ⴔ	cut_g_stereo_44KHz.wav
4	22	3	3	2	I	2	0	599	1	Ⴏ	cut_h_stereo_44KHz.wav
4	23	1	1	1	C	1	1	1220	1	Ⴌ	cut_l_stereo_44KHz.wav
4	24	4	4	2	I	2	0	1105	0	Ⴒ	cut_w_stereo_44KHz.wav
4	25	3	4	2	I	2	0	691	0	Ⴏ	cut_w_stereo_44KHz.wav
4	26	2	2	1	C	1	1	669	1	Ⴔ	cut_g_stereo_44KHz.wav
4	27	1	2	0	C	2	1	626	1	Ⴌ	cut_g_stereo_44KHz.wav
4	28	4	4	2	I	2	0	652	1	Ⴒ	cut_w_stereo_44KHz.wav
4	29	1	1	1	C	1	1	917	1	Ⴌ	cut_l_stereo_44KHz.wav
4	30	4	3	2	I	2	0	657	0	Ⴒ	cut_h_stereo_44KHz.wav
4	31	2	1	0	C	2	1	471	1	Ⴔ	cut_l_stereo_44KHz.wav
4	32	3	3	2	I	2	0	631	1	Ⴏ	cut_h_stereo_44KHz.wav
4	33	2	2	1	C	1	1	706	1	Ⴔ	cut_g_stereo_44KHz.wav
4	34	1	2	0	C	2	1	577	1	Ⴌ	cut_g_stereo_44KHz.wav
4	35	3	4	2	I	2	0	690	1	Ⴏ	cut_w_stereo_44KHz.wav
4	36	4	3	2	I	2	0	683	1	Ⴒ	cut_h_stereo_44KHz.wav
4	37	1	1	1	C	1	1	813	1	Ⴌ	cut_l_stereo_44KHz.wav
4	38	3	3	2	I	2	0	666	1	Ⴏ	cut_h_stereo_44KHz.wav
4	39	2	1	0	C	2	1	524	1	Ⴔ	cut_l_stereo_44KHz.wav
4	40	4	4	2	I	2	0	703	1	Ⴒ	cut_w_stereo_44KHz.wav
4	41	1	1	1	C	1	1	759	1	Ⴌ	cut_l_stereo_44KHz.wav
4	42	3	3	2	I	2	0	701	0	Ⴏ	cut_h_stereo_44KHz.wav
4	43	4	4	2	I	2	0	725	0	Ⴒ	cut_w_stereo_44KHz.wav
4	44	2	1	0	C	2	1	556	1	Ⴔ	cut_l_stereo_44KHz.wav
4	45	4	3	2	I	2	0	781	1	Ⴒ	cut_h_stereo_44KHz.wav
4	46	2	2	1	C	1	1	656	1	Ⴔ	cut_g_stereo_44KHz.wav
4	47	3	4	2	I	2	0	614	0	Ⴏ	cut_w_stereo_44KHz.wav
4	48	1	2	0	C	2	1	654	1	Ⴌ	cut_g_stereo_44KHz.wav
4	49	3	4	2	I	2	0	693	1	Ⴏ	cut_w_stereo_44KHz.wav
4	50	2	2	1	C	1	1	624	1	Ⴔ	cut_g_stereo_44KHz.wav
4	51	1	2	0	C	2	1	781	1	Ⴌ	cut_g_stereo_44KHz.wav
4	52	4	3	2	I	2	0	719	1	Ⴒ	cut_h_stereo_44KHz.wav
4	53	2	1	0	C	2	1	754	1	Ⴔ	cut_l_stereo_44KHz.wav
4	54	4	4	2	I	2	0	664	1	Ⴒ	cut_w_stereo_44KHz.wav
4	55	3	3	2	I	2	0	664	0	Ⴏ	cut_h_stereo_44KHz.wav
4	56	1	1	1	C	2	0	985	0	Ⴌ	cut_l_stereo_44KHz.wav
4	57	3	4	2	I	2	0	773	0	Ⴏ	cut_w_stereo_44KHz.wav
4	58	4	4	2	I	2	0	753	0	Ⴒ	cut_w_stereo_44KHz.wav
4	59	2	2	1	C	1	1	677	1	Ⴔ	cut_g_stereo_44KHz.wav
4	60	1	1	1	C	2	0	767	0	Ⴌ	cut_l_stereo_44KHz.wav
4	61	2	1	0	C	2	1	401	1	Ⴔ	cut_l_stereo_44KHz.wav
4	62	1	2	0	C	2	1	796	1	Ⴌ	cut_g_stereo_44KHz.wav
4	63	4	3	2	I	2	0	464	0	Ⴒ	cut_h_stereo_44KHz.wav
4	64	3	3	2	I	2	0	450	1	Ⴏ	cut_h_stereo_44KHz.wav
4	65	2	1	0	C	2	1	478	1	Ⴔ	cut_l_stereo_44KHz.wav
4	66	4	3	2	I	1	0	586	0	Ⴒ	cut_h_stereo_44KHz.wav
4	67	3	4	2	I	2	0	600	1	Ⴏ	cut_w_stereo_44KHz.wav
4	68	1	1	1	C	1	1	706	1	Ⴌ	cut_l_stereo_44KHz.wav
4	69	3	3	2	I	1	0	1051	0	Ⴏ	cut_h_stereo_44KHz.wav
4	70	1	2	0	C	1	0	1140	0	Ⴌ	cut_g_stereo_44KHz.wav
4	71	2	2	1	C	1	1	626	1	Ⴔ	cut_g_stereo_44KHz.wav
4	72	4	4	2	I	2	0	890	1	Ⴒ	cut_w_stereo_44KHz.wav
4	73	3	3	2	I	2	0	698	0	Ⴏ	cut_h_stereo_44KHz.wav
4	74	1	2	0	C	2	1	668	1	Ⴌ	cut_g_stereo_44KHz.wav
4	75	4	4	2	I	1	0	1231	0	Ⴒ	cut_w_stereo_44KHz.wav
4	76	2	2	1	C	1	1	734	1	Ⴔ	cut_g_stereo_44KHz.wav
4	77	3	4	2	I	2	0	642	0	Ⴏ	cut_w_stereo_44KHz.wav
4	78	1	1	1	C	1	1	815	1	Ⴌ	cut_l_stereo_44KHz.wav
4	79	2	1	0	C	2	1	478	1	Ⴔ	cut_l_stereo_44KHz.wav
4	80	4	3	2	I	2	0	635	0	Ⴒ	cut_h_stereo_44KHz.wav
4	81	3	3	2	I	2	0	619	0	Ⴏ	cut_h_stereo_44KHz.wav
4	82	2	2	1	C	1	1	595	1	Ⴔ	cut_g_stereo_44KHz.wav
4	83	4	4	2	I	1	0	862	1	Ⴒ	cut_w_stereo_44KHz.wav
4	84	1	2	0	C	2	1	540	1	Ⴌ	cut_g_stereo_44KHz.wav
4	85	2	1	0	C	2	1	448	1	Ⴔ	cut_l_stereo_44KHz.wav
4	86	1	1	1	C	1	1	780	1	Ⴌ	cut_l_stereo_44KHz.wav
4	87	4	3	2	I	2	0	750	1	Ⴒ	cut_h_stereo_44KHz.wav
4	88	3	4	2	I	2	0	772	1	Ⴏ	cut_w_stereo_44KHz.wav
4	89	4	4	2	I	1	0	840	1	Ⴒ	cut_w_stereo_44KHz.wav
4	90	1	1	1	C	1	1	681	1	Ⴌ	cut_l_stereo_44KHz.wav
4	91	2	2	1	C	1	1	712	1	Ⴔ	cut_g_stereo_44KHz.wav
4	92	3	3	2	I	2	0	718	0	Ⴏ	cut_h_stereo_44KHz.wav
4	93	1	2	0	C	1	0	965	0	Ⴌ	cut_g_stereo_44KHz.wav
4	94	3	4	2	I	2	0	615	1	Ⴏ	cut_w_stereo_44KHz.wav
4	95	2	1	0	C	2	1	504	1	Ⴔ	cut_l_stereo_44KHz.wav
4	96	4	3	2	I	2	0	951	1	Ⴒ	cut_h_stereo_44KHz.wav
4	97	3	3	2	I	1	0	778	1	Ⴏ	cut_h_stereo_44KHz.wav
4	98	1	2	0	C	2	1	642	1	Ⴌ	cut_g_stereo_44KHz.wav
4	99	4	3	2	I	2	0	702	1	Ⴒ	cut_h_stereo_44KHz.wav
4	100	2	2	1	C	1	1	684	1	Ⴔ	cut_g_stereo_44KHz.wav
4	101	3	4	2	I	2	0	647	1	Ⴏ	cut_w_stereo_44KHz.wav
4	102	1	1	1	C	1	1	678	1	Ⴌ	cut_l_stereo_44KHz.wav
4	103	4	4	2	I	2	0	693	0	Ⴒ	cut_w_stereo_44KHz.wav
4	104	2	1	0	C	2	1	580	1	Ⴔ	cut_l_stereo_44KHz.wav
4	105	3	3	2	I	2	0	664	1	Ⴏ	cut_h_stereo_44KHz.wav
4	106	4	4	2	I	1	0	1023	1	Ⴒ	cut_w_stereo_44KHz.wav
4	107	1	1	1	C	1	1	796	1	Ⴌ	cut_l_stereo_44KHz.wav
4	108	2	2	1	C	1	1	690	1	Ⴔ	cut_g_stereo_44KHz.wav
4	109	1	2	0	C	2	1	668	1	Ⴌ	cut_g_stereo_44KHz.wav
4	110	4	3	2	I	2	0	751	0	Ⴒ	cut_h_stereo_44KHz.wav
4	111	3	4	2	I	1	0	629	1	Ⴏ	cut_w_stereo_44KHz.wav
4	112	2	1	0	C	2	1	555	1	Ⴔ	cut_l_stereo_44KHz.wav
4	113	3	4	2	I	2	0	675	1	Ⴏ	cut_w_stereo_44KHz.wav
4	114	1	2	0	C	2	1	762	1	Ⴌ	cut_g_stereo_44KHz.wav
4	115	2	1	0	C	2	1	560	1	Ⴔ	cut_l_stereo_44KHz.wav
4	116	4	3	2	I	2	0	670	0	Ⴒ	cut_h_stereo_44KHz.wav
4	117	2	2	1	C	1	1	689	1	Ⴔ	cut_g_stereo_44KHz.wav
4	118	1	1	1	C	1	1	815	1	Ⴌ	cut_l_stereo_44KHz.wav
4	119	4	4	2	I	1	0	737	0	Ⴒ	cut_w_stereo_44KHz.wav
4	120	3	3	2	I	2	0	786	1	Ⴏ	cut_h_stereo_44KHz.wav
4	121	4	4	2	I	1	0	1095	0	Ⴒ	cut_w_stereo_44KHz.wav
4	122	1	1	1	C	1	1	1056	1	Ⴌ	cut_l_stereo_44KHz.wav
4	123	3	3	2	I	2	0	618	0	Ⴏ	cut_h_stereo_44KHz.wav
4	124	2	2	1	C	1	1	622	1	Ⴔ	cut_g_stereo_44KHz.wav
4	125	3	4	2	I	2	0	618	1	Ⴏ	cut_w_stereo_44KHz.wav
4	126	2	1	0	C	2	1	587	1	Ⴔ	cut_l_stereo_44KHz.wav
4	127	1	2	0	C	2	1	748	1	Ⴌ	cut_g_stereo_44KHz.wav
4	128	4	3	2	I	2	0	767	1	Ⴒ	cut_h_stereo_44KHz.wav
4	129	3	3	2	I	1	0	772	1	Ⴏ	cut_h_stereo_44KHz.wav
4	130	2	1	0	C	2	1	503	1	Ⴔ	cut_l_stereo_44KHz.wav
4	131	1	2	0	C	2	1	750	1	Ⴌ	cut_g_stereo_44KHz.wav
4	132	4	4	2	I	2	0	689	0	Ⴒ	cut_w_stereo_44KHz.wav
4	133	3	4	2	I	2	0	600	1	Ⴏ	cut_w_stereo_44KHz.wav
4	134	4	3	2	I	1	0	927	0	Ⴒ	cut_h_stereo_44KHz.wav
4	135	2	2	1	C	1	1	674	1	Ⴔ	cut_g_stereo_44KHz.wav
4	136	1	1	1	C	1	1	843	1	Ⴌ	cut_l_stereo_44KHz.wav
4	137	3	4	2	I	2	0	654	0	Ⴏ	cut_w_stereo_44KHz.wav
4	138	1	1	1	C	1	1	868	1	Ⴌ	cut_l_stereo_44KHz.wav
4	139	4	4	2	I	2	0	825	0	Ⴒ	cut_w_stereo_44KHz.wav
4	140	2	1	0	C	2	1	577	1	Ⴔ	cut_l_stereo_44KHz.wav
4	141	3	3	2	I	2	0	678	0	Ⴏ	cut_h_stereo_44KHz.wav
4	142	2	2	1	C	1	1	703	1	Ⴔ	cut_g_stereo_44KHz.wav
4	143	1	2	0	C	2	1	422	1	Ⴌ	cut_g_stereo_44KHz.wav
4	144	4	3	2	I	2	0	699	1	Ⴒ	cut_h_stereo_44KHz.wav
4	145	1	1	1	C	1	1	792	1	Ⴌ	cut_l_stereo_44KHz.wav
4	146	2	1	0	C	2	1	560	1	Ⴔ	cut_l_stereo_44KHz.wav
4	147	3	4	2	I	2	0	653	1	Ⴏ	cut_w_stereo_44KHz.wav
4	148	4	3	2	I	1	0	1079	1	Ⴒ	cut_h_stereo_44KHz.wav
4	149	3	3	2	I	2	0	682	0	Ⴏ	cut_h_stereo_44KHz.wav
4	150	2	2	1	C	1	1	697	1	Ⴔ	cut_g_stereo_44KHz.wav
4	151	1	2	0	C	2	1	643	1	Ⴌ	cut_g_stereo_44KHz.wav
4	152	4	4	2	I	2	0	791	0	Ⴒ	cut_w_stereo_44KHz.wav
4	153	1	2	0	C	2	1	634	1	Ⴌ	cut_g_stereo_44KHz.wav
4	154	2	2	1	C	1	1	689	1	Ⴔ	cut_g_stereo_44KHz.wav
4	155	3	3	2	I	1	0	1128	0	Ⴏ	cut_h_stereo_44KHz.wav
4	156	4	4	2	I	2	0	719	0	Ⴒ	cut_w_stereo_44KHz.wav
4	157	1	1	1	C	1	1	745	1	Ⴌ	cut_l_stereo_44KHz.wav
4	158	3	4	2	I	2	0	844	0	Ⴏ	cut_w_stereo_44KHz.wav
4	159	4	3	2	I	2	0	855	0	Ⴒ	cut_h_stereo_44KHz.wav
4	160	2	1	0	C	2	1	565	1	Ⴔ	cut_l_stereo_44KHz.wav
4	161	3	4	2	I	2	0	990	1	Ⴏ	cut_w_stereo_44KHz.wav
4	162	4	4	2	I	1	0	1027	0	Ⴒ	cut_w_stereo_44KHz.wav
4	163	2	2	1	C	1	1	778	1	Ⴔ	cut_g_stereo_44KHz.wav
4	164	1	1	1	C	1	1	1223	1	Ⴌ	cut_l_stereo_44KHz.wav
4	165	2	1	0	C	2	1	585	1	Ⴔ	cut_l_stereo_44KHz.wav
4	166	4	3	2	I	2	0	714	1	Ⴒ	cut_h_stereo_44KHz.wav
4	167	1	2	0	C	1	0	1282	0	Ⴌ	cut_g_stereo_44KHz.wav
4	168	3	3	2	I	2	0	863	0	Ⴏ	cut_h_stereo_44KHz.wav
4	169	2	1	0	C	2	1	487	1	Ⴔ	cut_l_stereo_44KHz.wav
4	170	3	4	2	I	2	0	821	1	Ⴏ	cut_w_stereo_44KHz.wav
4	171	1	1	1	C	1	1	770	1	Ⴌ	cut_l_stereo_44KHz.wav
4	172	4	4	2	I	2	0	645	1	Ⴒ	cut_w_stereo_44KHz.wav
4	173	2	2	1	C	1	1	755	1	Ⴔ	cut_g_stereo_44KHz.wav
4	174	3	3	2	I	2	0	657	1	Ⴏ	cut_h_stereo_44KHz.wav
4	175	4	3	2	I	2	0	689	1	Ⴒ	cut_h_stereo_44KHz.wav
4	176	1	2	0	C	2	1	798	1	Ⴌ	cut_g_stereo_44KHz.wav
4	177	2	1	0	C	2	1	534	1	Ⴔ	cut_l_stereo_44KHz.wav
4	178	4	4	2	I	2	0	733	0	Ⴒ	cut_w_stereo_44KHz.wav
4	179	1	2	0	C	2	1	736	1	Ⴌ	cut_g_stereo_44KHz.wav
4	180	3	4	2	I	2	0	714	0	Ⴏ	cut_w_stereo_44KHz.wav
4	181	2	2	1	C	1	1	678	1	Ⴔ	cut_g_stereo_44KHz.wav
4	182	3	3	2	I	2	0	618	0	Ⴏ	cut_h_stereo_44KHz.wav
4	183	4	3	2	I	2	0	965	0	Ⴒ	cut_h_stereo_44KHz.wav
4	184	1	1	1	C	1	1	848	1	Ⴌ	cut_l_stereo_44KHz.wav
4	185	3	3	2	I	2	0	602	1	Ⴏ	cut_h_stereo_44KHz.wav
4	186	1	1	1	C	1	1	1431	1	Ⴌ	cut_l_stereo_44KHz.wav
4	187	4	3	2	I	2	0	670	1	Ⴒ	cut_h_stereo_44KHz.wav
4	188	2	2	1	C	1	1	567	1	Ⴔ	cut_g_stereo_44KHz.wav
4	189	4	4	2	I	2	0	794	1	Ⴒ	cut_w_stereo_44KHz.wav
4	190	3	4	2	I	1	0	996	1	Ⴏ	cut_w_stereo_44KHz.wav
4	191	1	2	0	C	2	1	603	1	Ⴌ	cut_g_stereo_44KHz.wav
4	192	2	1	0	C	2	1	639	1	Ⴔ	cut_l_stereo_44KHz.wav
4	193	1	1	1	C	1	1	641	1	Ⴌ	cut_l_stereo_44KHz.wav
4	194	2	1	0	C	2	1	541	1	Ⴔ	cut_l_stereo_44KHz.wav
4	195	3	3	2	I	2	0	944	1	Ⴏ	cut_h_stereo_44KHz.wav
4	196	4	3	2	I	1	0	671	0	Ⴒ	cut_h_stereo_44KHz.wav
4	197	2	2	1	C	1	1	733	1	Ⴔ	cut_g_stereo_44KHz.wav
4	198	3	4	2	I	2	0	694	0	Ⴏ	cut_w_stereo_44KHz.wav
4	199	4	4	2	I	2	0	710	0	Ⴒ	cut_w_stereo_44KHz.wav
4	200	1	2	0	C	2	1	682	1	Ⴌ	cut_g_stereo_44KHz.wav
