block	trial	Vstim	Astim	match	C/I	resp	result	RT	fb	V-file	A-file
LR

0	1	2	3	1	C	0	0	0	0	poli_8sides 21_whiteLine3.jpg	Practice1_b27_cut1_stereo_44KHz.wav
0	2	2	4	0	C	1	1	613	1	poli_8sides 21_whiteLine3.jpg	Practice4_b26_stereo_44KHz.wav
0	3	1	2	0	C	2	0	789	0	poli_8sides 24_whiteLine3.jpg	Practice2_b27_cut2_stereo_44KHz.wav
0	4	1	1	1	C	1	0	847	0	poli_8sides 24_whiteLine3.jpg	Practice3_b26_cut1_stereo_44KHz.wav
0	5	2	3	1	C	1	0	765	0	poli_8sides 21_whiteLine3.jpg	Practice1_b27_cut1_stereo_44KHz.wav
0	6	1	2	0	C	1	1	694	1	poli_8sides 24_whiteLine3.jpg	Practice2_b27_cut2_stereo_44KHz.wav
0	7	2	4	0	C	2	0	440	0	poli_8sides 21_whiteLine3.jpg	Practice4_b26_stereo_44KHz.wav
0	8	1	1	1	C	2	1	653	1	poli_8sides 24_whiteLine3.jpg	Practice3_b26_cut1_stereo_44KHz.wav
0	9	2	3	1	C	1	0	563	0	poli_8sides 21_whiteLine3.jpg	Practice1_b27_cut1_stereo_44KHz.wav
0	10	1	2	0	C	1	1	389	1	poli_8sides 24_whiteLine3.jpg	Practice2_b27_cut2_stereo_44KHz.wav
0	11	2	4	0	C	2	0	383	0	poli_8sides 21_whiteLine3.jpg	Practice4_b26_stereo_44KHz.wav
0	12	1	1	1	C	2	1	620	1	poli_8sides 24_whiteLine3.jpg	Practice3_b26_cut1_stereo_44KHz.wav
0	13	1	2	0	C	1	1	622	1	poli_8sides 24_whiteLine3.jpg	Practice2_b27_cut2_stereo_44KHz.wav
0	14	2	4	0	C	1	1	732	1	poli_8sides 21_whiteLine3.jpg	Practice4_b26_stereo_44KHz.wav
0	15	1	1	1	C	1	0	402	0	poli_8sides 24_whiteLine3.jpg	Practice3_b26_cut1_stereo_44KHz.wav
0	16	2	3	1	C	2	1	781	1	poli_8sides 21_whiteLine3.jpg	Practice1_b27_cut1_stereo_44KHz.wav
0	17	1	1	1	C	2	1	969	1	poli_8sides 24_whiteLine3.jpg	Practice3_b26_cut1_stereo_44KHz.wav
0	18	2	4	0	C	2	0	994	0	poli_8sides 21_whiteLine3.jpg	Practice4_b26_stereo_44KHz.wav
0	19	1	2	0	C	1	1	761	1	poli_8sides 24_whiteLine3.jpg	Practice2_b27_cut2_stereo_44KHz.wav
0	20	2	3	1	C	2	1	858	1	poli_8sides 21_whiteLine3.jpg	Practice1_b27_cut1_stereo_44KHz.wav
0	21	1	2	0	C	1	1	652	1	poli_8sides 24_whiteLine3.jpg	Practice2_b27_cut2_stereo_44KHz.wav
0	22	2	4	0	C	1	1	616	1	poli_8sides 21_whiteLine3.jpg	Practice4_b26_stereo_44KHz.wav
0	23	2	3	1	C	2	1	738	1	poli_8sides 21_whiteLine3.jpg	Practice1_b27_cut1_stereo_44KHz.wav
0	24	1	1	1	C	2	1	877	1	poli_8sides 24_whiteLine3.jpg	Practice3_b26_cut1_stereo_44KHz.wav
0	25	2	4	0	C	2	0	1208	0	poli_8sides 21_whiteLine3.jpg	Practice4_b26_stereo_44KHz.wav
0	26	1	1	1	C	2	1	856	1	poli_8sides 24_whiteLine3.jpg	Practice3_b26_cut1_stereo_44KHz.wav
0	27	1	2	0	C	1	1	530	1	poli_8sides 24_whiteLine3.jpg	Practice2_b27_cut2_stereo_44KHz.wav
0	28	2	3	1	C	2	1	604	1	poli_8sides 21_whiteLine3.jpg	Practice1_b27_cut1_stereo_44KHz.wav
0	29	2	4	0	C	1	1	1040	1	poli_8sides 21_whiteLine3.jpg	Practice4_b26_stereo_44KHz.wav
0	30	2	3	1	C	2	1	626	1	poli_8sides 21_whiteLine3.jpg	Practice1_b27_cut1_stereo_44KHz.wav
avg_resp = 712
1	1	3	4	2	I	1	0	1474	0	poli_8sides 12_whiteLine3.jpg	MediumShort_b16_cut3_MS_stereo_44KHz.wav
1	2	2	2	1	C	1	0	710	0	poli_8sides 10_whiteLine3.jpg	MediumShort_e22_cut1_stereo_44KHz.wav
1	3	4	4	2	I	1	0	719	0	poli_8sides 5_whiteLine3.jpg	MediumShort_b16_cut3_MS_stereo_44KHz.wav
1	4	1	1	1	C	1	0	602	0	poli_8sides 4_whiteLine3.jpg	MediumShort_b10_cut1_MS_stereo_44KHz.wav
1	5	2	1	0	C	1	1	408	1	poli_8sides 10_whiteLine3.jpg	MediumShort_b10_cut1_MS_stereo_44KHz.wav
1	6	1	2	0	C	2	0	656	0	poli_8sides 4_whiteLine3.jpg	MediumShort_e22_cut1_stereo_44KHz.wav
1	7	3	3	2	I	1	0	514	0	poli_8sides 12_whiteLine3.jpg	MediumShort_e16_cut1_stereo_44KHz.wav
1	8	4	3	2	I	1	0	670	1	poli_8sides 5_whiteLine3.jpg	MediumShort_e16_cut1_stereo_44KHz.wav
1	9	2	1	0	C	2	0	609	0	poli_8sides 10_whiteLine3.jpg	MediumShort_b10_cut1_MS_stereo_44KHz.wav
1	10	3	4	2	I	1	0	850	1	poli_8sides 12_whiteLine3.jpg	MediumShort_b16_cut3_MS_stereo_44KHz.wav
1	11	4	3	2	I	1	0	960	0	poli_8sides 5_whiteLine3.jpg	MediumShort_e16_cut1_stereo_44KHz.wav
1	12	1	2	0	C	1	1	740	1	poli_8sides 4_whiteLine3.jpg	MediumShort_e22_cut1_stereo_44KHz.wav
1	13	2	2	1	C	2	1	608	1	poli_8sides 10_whiteLine3.jpg	MediumShort_e22_cut1_stereo_44KHz.wav
1	14	1	1	1	C	1	0	660	0	poli_8sides 4_whiteLine3.jpg	MediumShort_b10_cut1_MS_stereo_44KHz.wav
1	15	3	3	2	I	2	0	922	0	poli_8sides 12_whiteLine3.jpg	MediumShort_e16_cut1_stereo_44KHz.wav
1	16	4	4	2	I	1	0	759	0	poli_8sides 5_whiteLine3.jpg	MediumShort_b16_cut3_MS_stereo_44KHz.wav
1	17	1	1	1	C	1	0	729	0	poli_8sides 4_whiteLine3.jpg	MediumShort_b10_cut1_MS_stereo_44KHz.wav
1	18	4	3	2	I	1	0	1020	1	poli_8sides 5_whiteLine3.jpg	MediumShort_e16_cut1_stereo_44KHz.wav
1	19	2	2	1	C	2	1	493	1	poli_8sides 10_whiteLine3.jpg	MediumShort_e22_cut1_stereo_44KHz.wav
1	20	3	3	2	I	2	0	750	1	poli_8sides 12_whiteLine3.jpg	MediumShort_e16_cut1_stereo_44KHz.wav
1	21	1	2	0	C	1	1	744	1	poli_8sides 4_whiteLine3.jpg	MediumShort_e22_cut1_stereo_44KHz.wav
1	22	2	1	0	C	2	0	785	0	poli_8sides 10_whiteLine3.jpg	MediumShort_b10_cut1_MS_stereo_44KHz.wav
1	23	3	4	2	I	2	0	861	1	poli_8sides 12_whiteLine3.jpg	MediumShort_b16_cut3_MS_stereo_44KHz.wav
1	24	4	4	2	I	2	0	805	1	poli_8sides 5_whiteLine3.jpg	MediumShort_b16_cut3_MS_stereo_44KHz.wav
1	25	3	4	2	I	2	0	722	0	poli_8sides 12_whiteLine3.jpg	MediumShort_b16_cut3_MS_stereo_44KHz.wav
1	26	1	1	1	C	2	1	790	1	poli_8sides 4_whiteLine3.jpg	MediumShort_b10_cut1_MS_stereo_44KHz.wav
1	27	2	1	0	C	2	0	671	0	poli_8sides 10_whiteLine3.jpg	MediumShort_b10_cut1_MS_stereo_44KHz.wav
1	28	4	4	2	I	2	0	703	0	poli_8sides 5_whiteLine3.jpg	MediumShort_b16_cut3_MS_stereo_44KHz.wav
1	29	1	2	0	C	1	1	581	1	poli_8sides 4_whiteLine3.jpg	MediumShort_e22_cut1_stereo_44KHz.wav
1	30	3	3	2	I	1	0	568	1	poli_8sides 12_whiteLine3.jpg	MediumShort_e16_cut1_stereo_44KHz.wav
1	31	4	3	2	I	2	0	599	1	poli_8sides 5_whiteLine3.jpg	MediumShort_e16_cut1_stereo_44KHz.wav
1	32	2	2	1	C	2	1	1237	1	poli_8sides 10_whiteLine3.jpg	MediumShort_e22_cut1_stereo_44KHz.wav
1	33	4	3	2	I	2	0	853	1	poli_8sides 5_whiteLine3.jpg	MediumShort_e16_cut1_stereo_44KHz.wav
1	34	3	3	2	I	1	0	1241	0	poli_8sides 12_whiteLine3.jpg	MediumShort_e16_cut1_stereo_44KHz.wav
1	35	2	2	1	C	1	0	1124	0	poli_8sides 10_whiteLine3.jpg	MediumShort_e22_cut1_stereo_44KHz.wav
1	36	1	2	0	C	1	1	533	1	poli_8sides 4_whiteLine3.jpg	MediumShort_e22_cut1_stereo_44KHz.wav
1	37	2	1	0	C	1	1	827	1	poli_8sides 10_whiteLine3.jpg	MediumShort_b10_cut1_MS_stereo_44KHz.wav
1	38	1	1	1	C	2	1	578	1	poli_8sides 4_whiteLine3.jpg	MediumShort_b10_cut1_MS_stereo_44KHz.wav
1	39	3	4	2	I	2	0	1006	0	poli_8sides 12_whiteLine3.jpg	MediumShort_b16_cut3_MS_stereo_44KHz.wav
1	40	4	4	2	I	2	0	727	0	poli_8sides 5_whiteLine3.jpg	MediumShort_b16_cut3_MS_stereo_44KHz.wav
1	41	2	1	0	C	2	0	843	0	poli_8sides 10_whiteLine3.jpg	MediumShort_b10_cut1_MS_stereo_44KHz.wav
1	42	3	3	2	I	1	0	936	0	poli_8sides 12_whiteLine3.jpg	MediumShort_e16_cut1_stereo_44KHz.wav
1	43	1	2	0	C	1	1	547	1	poli_8sides 4_whiteLine3.jpg	MediumShort_e22_cut1_stereo_44KHz.wav
1	44	4	3	2	I	2	0	951	0	poli_8sides 5_whiteLine3.jpg	MediumShort_e16_cut1_stereo_44KHz.wav
1	45	3	4	2	I	2	0	1198	0	poli_8sides 12_whiteLine3.jpg	MediumShort_b16_cut3_MS_stereo_44KHz.wav
1	46	2	2	1	C	2	1	876	1	poli_8sides 10_whiteLine3.jpg	MediumShort_e22_cut1_stereo_44KHz.wav
1	47	1	1	1	C	2	1	859	1	poli_8sides 4_whiteLine3.jpg	MediumShort_b10_cut1_MS_stereo_44KHz.wav
1	48	4	4	2	I	2	0	924	1	poli_8sides 5_whiteLine3.jpg	MediumShort_b16_cut3_MS_stereo_44KHz.wav
1	49	3	4	2	I	2	0	1271	1	poli_8sides 12_whiteLine3.jpg	MediumShort_b16_cut3_MS_stereo_44KHz.wav
1	50	1	2	0	C	1	1	813	1	poli_8sides 4_whiteLine3.jpg	MediumShort_e22_cut1_stereo_44KHz.wav
1	51	4	3	2	I	1	0	840	1	poli_8sides 5_whiteLine3.jpg	MediumShort_e16_cut1_stereo_44KHz.wav
1	52	2	1	0	C	1	1	1052	1	poli_8sides 10_whiteLine3.jpg	MediumShort_b10_cut1_MS_stereo_44KHz.wav
1	53	3	3	2	I	2	0	895	1	poli_8sides 12_whiteLine3.jpg	MediumShort_e16_cut1_stereo_44KHz.wav
1	54	1	1	1	C	2	1	964	1	poli_8sides 4_whiteLine3.jpg	MediumShort_b10_cut1_MS_stereo_44KHz.wav
1	55	2	2	1	C	2	1	987	1	poli_8sides 10_whiteLine3.jpg	MediumShort_e22_cut1_stereo_44KHz.wav
1	56	4	4	2	I	1	0	1202	0	poli_8sides 5_whiteLine3.jpg	MediumShort_b16_cut3_MS_stereo_44KHz.wav
1	57	1	1	1	C	2	1	1394	1	poli_8sides 4_whiteLine3.jpg	MediumShort_b10_cut1_MS_stereo_44KHz.wav
1	58	3	3	2	I	1	0	1188	0	poli_8sides 12_whiteLine3.jpg	MediumShort_e16_cut1_stereo_44KHz.wav
1	59	2	2	1	C	2	1	1154	1	poli_8sides 10_whiteLine3.jpg	MediumShort_e22_cut1_stereo_44KHz.wav
1	60	4	4	2	I	1	0	1265	0	poli_8sides 5_whiteLine3.jpg	MediumShort_b16_cut3_MS_stereo_44KHz.wav
1	61	1	2	0	C	1	1	1063	1	poli_8sides 4_whiteLine3.jpg	MediumShort_e22_cut1_stereo_44KHz.wav
1	62	4	3	2	I	1	0	771	1	poli_8sides 5_whiteLine3.jpg	MediumShort_e16_cut1_stereo_44KHz.wav
1	63	2	1	0	C	1	1	983	1	poli_8sides 10_whiteLine3.jpg	MediumShort_b10_cut1_MS_stereo_44KHz.wav
1	64	3	4	2	I	2	0	719	0	poli_8sides 12_whiteLine3.jpg	MediumShort_b16_cut3_MS_stereo_44KHz.wav
1	65	2	1	0	C	1	1	955	1	poli_8sides 10_whiteLine3.jpg	MediumShort_b10_cut1_MS_stereo_44KHz.wav
1	66	4	4	2	I	1	0	975	1	poli_8sides 5_whiteLine3.jpg	MediumShort_b16_cut3_MS_stereo_44KHz.wav
1	67	1	2	0	C	1	1	597	1	poli_8sides 4_whiteLine3.jpg	MediumShort_e22_cut1_stereo_44KHz.wav
1	68	3	3	2	I	2	0	1042	1	poli_8sides 12_whiteLine3.jpg	MediumShort_e16_cut1_stereo_44KHz.wav
1	69	2	2	1	C	2	1	1065	1	poli_8sides 10_whiteLine3.jpg	MediumShort_e22_cut1_stereo_44KHz.wav
1	70	3	4	2	I	2	0	1209	1	poli_8sides 12_whiteLine3.jpg	MediumShort_b16_cut3_MS_stereo_44KHz.wav
1	71	1	1	1	C	1	0	589	0	poli_8sides 4_whiteLine3.jpg	MediumShort_b10_cut1_MS_stereo_44KHz.wav
1	72	4	3	2	I	1	0	833	1	poli_8sides 5_whiteLine3.jpg	MediumShort_e16_cut1_stereo_44KHz.wav
1	73	3	3	2	I	2	0	888	1	poli_8sides 12_whiteLine3.jpg	MediumShort_e16_cut1_stereo_44KHz.wav
1	74	2	2	1	C	2	1	825	1	poli_8sides 10_whiteLine3.jpg	MediumShort_e22_cut1_stereo_44KHz.wav
1	75	1	2	0	C	1	1	629	1	poli_8sides 4_whiteLine3.jpg	MediumShort_e22_cut1_stereo_44KHz.wav
1	76	4	3	2	I	1	0	892	1	poli_8sides 5_whiteLine3.jpg	MediumShort_e16_cut1_stereo_44KHz.wav
1	77	1	1	1	C	2	1	684	1	poli_8sides 4_whiteLine3.jpg	MediumShort_b10_cut1_MS_stereo_44KHz.wav
1	78	4	4	2	I	1	0	844	0	poli_8sides 5_whiteLine3.jpg	MediumShort_b16_cut3_MS_stereo_44KHz.wav
1	79	2	1	0	C	2	0	1046	0	poli_8sides 10_whiteLine3.jpg	MediumShort_b10_cut1_MS_stereo_44KHz.wav
1	80	3	4	2	I	2	0	1057	1	poli_8sides 12_whiteLine3.jpg	MediumShort_b16_cut3_MS_stereo_44KHz.wav
1	81	1	1	1	C	2	1	746	1	poli_8sides 4_whiteLine3.jpg	MediumShort_b10_cut1_MS_stereo_44KHz.wav
1	82	2	2	1	C	2	1	853	1	poli_8sides 10_whiteLine3.jpg	MediumShort_e22_cut1_stereo_44KHz.wav
1	83	3	3	2	I	2	0	1233	0	poli_8sides 12_whiteLine3.jpg	MediumShort_e16_cut1_stereo_44KHz.wav
1	84	4	4	2	I	1	0	741	1	poli_8sides 5_whiteLine3.jpg	MediumShort_b16_cut3_MS_stereo_44KHz.wav
1	85	1	2	0	C	1	1	624	1	poli_8sides 4_whiteLine3.jpg	MediumShort_e22_cut1_stereo_44KHz.wav
1	86	2	1	0	C	1	1	1133	1	poli_8sides 10_whiteLine3.jpg	MediumShort_b10_cut1_MS_stereo_44KHz.wav
1	87	3	4	2	I	2	0	1011	0	poli_8sides 12_whiteLine3.jpg	MediumShort_b16_cut3_MS_stereo_44KHz.wav
1	88	4	3	2	I	1	0	519	0	poli_8sides 5_whiteLine3.jpg	MediumShort_e16_cut1_stereo_44KHz.wav
1	89	1	1	1	C	2	1	801	1	poli_8sides 4_whiteLine3.jpg	MediumShort_b10_cut1_MS_stereo_44KHz.wav
1	90	3	4	2	I	2	0	1187	1	poli_8sides 12_whiteLine3.jpg	MediumShort_b16_cut3_MS_stereo_44KHz.wav
1	91	2	1	0	C	2	0	985	0	poli_8sides 10_whiteLine3.jpg	MediumShort_b10_cut1_MS_stereo_44KHz.wav
1	92	4	3	2	I	1	0	911	1	poli_8sides 5_whiteLine3.jpg	MediumShort_e16_cut1_stereo_44KHz.wav
1	93	2	2	1	C	2	1	645	1	poli_8sides 10_whiteLine3.jpg	MediumShort_e22_cut1_stereo_44KHz.wav
1	94	1	2	0	C	1	1	535	1	poli_8sides 4_whiteLine3.jpg	MediumShort_e22_cut1_stereo_44KHz.wav
1	95	4	4	2	I	1	0	763	0	poli_8sides 5_whiteLine3.jpg	MediumShort_b16_cut3_MS_stereo_44KHz.wav
1	96	3	3	2	I	2	0	1152	1	poli_8sides 12_whiteLine3.jpg	MediumShort_e16_cut1_stereo_44KHz.wav
1	97	4	4	2	I	2	0	594	1	poli_8sides 5_whiteLine3.jpg	MediumShort_b16_cut3_MS_stereo_44KHz.wav
1	98	1	1	1	C	1	0	503	0	poli_8sides 4_whiteLine3.jpg	MediumShort_b10_cut1_MS_stereo_44KHz.wav
1	99	3	4	2	I	2	0	922	1	poli_8sides 12_whiteLine3.jpg	MediumShort_b16_cut3_MS_stereo_44KHz.wav
1	100	2	1	0	C	1	1	1107	1	poli_8sides 10_whiteLine3.jpg	MediumShort_b10_cut1_MS_stereo_44KHz.wav
1	101	4	3	2	I	1	0	1033	1	poli_8sides 5_whiteLine3.jpg	MediumShort_e16_cut1_stereo_44KHz.wav
1	102	3	3	2	I	2	0	897	1	poli_8sides 12_whiteLine3.jpg	MediumShort_e16_cut1_stereo_44KHz.wav
1	103	2	2	1	C	1	0	616	0	poli_8sides 10_whiteLine3.jpg	MediumShort_e22_cut1_stereo_44KHz.wav
1	104	1	2	0	C	1	1	583	1	poli_8sides 4_whiteLine3.jpg	MediumShort_e22_cut1_stereo_44KHz.wav
1	105	4	3	2	I	1	0	1227	0	poli_8sides 5_whiteLine3.jpg	MediumShort_e16_cut1_stereo_44KHz.wav
1	106	3	3	2	I	2	0	838	0	poli_8sides 12_whiteLine3.jpg	MediumShort_e16_cut1_stereo_44KHz.wav
1	107	2	1	0	C	2	0	1184	0	poli_8sides 10_whiteLine3.jpg	MediumShort_b10_cut1_MS_stereo_44KHz.wav
1	108	1	2	0	C	1	1	617	1	poli_8sides 4_whiteLine3.jpg	MediumShort_e22_cut1_stereo_44KHz.wav
1	109	2	2	1	C	2	1	800	1	poli_8sides 10_whiteLine3.jpg	MediumShort_e22_cut1_stereo_44KHz.wav
1	110	3	4	2	I	2	0	1175	0	poli_8sides 12_whiteLine3.jpg	MediumShort_b16_cut3_MS_stereo_44KHz.wav
1	111	4	4	2	I	2	0	1016	0	poli_8sides 5_whiteLine3.jpg	MediumShort_b16_cut3_MS_stereo_44KHz.wav
1	112	1	1	1	C	2	1	893	1	poli_8sides 4_whiteLine3.jpg	MediumShort_b10_cut1_MS_stereo_44KHz.wav
1	113	3	3	2	I	2	0	1198	0	poli_8sides 12_whiteLine3.jpg	MediumShort_e16_cut1_stereo_44KHz.wav
1	114	4	4	2	I	2	0	888	0	poli_8sides 5_whiteLine3.jpg	MediumShort_b16_cut3_MS_stereo_44KHz.wav
1	115	2	2	1	C	2	1	810	1	poli_8sides 10_whiteLine3.jpg	MediumShort_e22_cut1_stereo_44KHz.wav
1	116	1	2	0	C	1	1	881	1	poli_8sides 4_whiteLine3.jpg	MediumShort_e22_cut1_stereo_44KHz.wav
1	117	2	1	0	C	2	0	705	0	poli_8sides 10_whiteLine3.jpg	MediumShort_b10_cut1_MS_stereo_44KHz.wav
1	118	3	4	2	I	2	0	781	0	poli_8sides 12_whiteLine3.jpg	MediumShort_b16_cut3_MS_stereo_44KHz.wav
1	119	4	3	2	I	1	0	1052	1	poli_8sides 5_whiteLine3.jpg	MediumShort_e16_cut1_stereo_44KHz.wav
1	120	1	1	1	C	2	1	710	1	poli_8sides 4_whiteLine3.jpg	MediumShort_b10_cut1_MS_stereo_44KHz.wav
1	121	4	3	2	I	2	0	1082	1	poli_8sides 5_whiteLine3.jpg	MediumShort_e16_cut1_stereo_44KHz.wav
1	122	2	2	1	C	2	1	1239	1	poli_8sides 10_whiteLine3.jpg	MediumShort_e22_cut1_stereo_44KHz.wav
1	123	1	1	1	C	2	1	782	1	poli_8sides 4_whiteLine3.jpg	MediumShort_b10_cut1_MS_stereo_44KHz.wav
1	124	3	3	2	I	1	0	865	1	poli_8sides 12_whiteLine3.jpg	MediumShort_e16_cut1_stereo_44KHz.wav
1	125	2	1	0	C	1	1	960	1	poli_8sides 10_whiteLine3.jpg	MediumShort_b10_cut1_MS_stereo_44KHz.wav
1	126	1	2	0	C	1	1	804	1	poli_8sides 4_whiteLine3.jpg	MediumShort_e22_cut1_stereo_44KHz.wav
1	127	3	4	2	I	1	0	942	1	poli_8sides 12_whiteLine3.jpg	MediumShort_b16_cut3_MS_stereo_44KHz.wav
1	128	4	4	2	I	2	0	591	0	poli_8sides 5_whiteLine3.jpg	MediumShort_b16_cut3_MS_stereo_44KHz.wav
1	129	3	4	2	I	1	0	573	0	poli_8sides 12_whiteLine3.jpg	MediumShort_b16_cut3_MS_stereo_44KHz.wav
1	130	1	1	1	C	2	1	668	1	poli_8sides 4_whiteLine3.jpg	MediumShort_b10_cut1_MS_stereo_44KHz.wav
1	131	4	3	2	I	1	0	887	1	poli_8sides 5_whiteLine3.jpg	MediumShort_e16_cut1_stereo_44KHz.wav
1	132	2	1	0	C	1	1	847	1	poli_8sides 10_whiteLine3.jpg	MediumShort_b10_cut1_MS_stereo_44KHz.wav
1	133	3	3	2	I	1	0	792	0	poli_8sides 12_whiteLine3.jpg	MediumShort_e16_cut1_stereo_44KHz.wav
1	134	4	4	2	I	2	0	1207	0	poli_8sides 5_whiteLine3.jpg	MediumShort_b16_cut3_MS_stereo_44KHz.wav
1	135	1	2	0	C	1	1	623	1	poli_8sides 4_whiteLine3.jpg	MediumShort_e22_cut1_stereo_44KHz.wav
1	136	2	2	1	C	2	1	796	1	poli_8sides 10_whiteLine3.jpg	MediumShort_e22_cut1_stereo_44KHz.wav
1	137	3	4	2	I	1	0	875	0	poli_8sides 12_whiteLine3.jpg	MediumShort_b16_cut3_MS_stereo_44KHz.wav
1	138	2	2	1	C	2	1	788	1	poli_8sides 10_whiteLine3.jpg	MediumShort_e22_cut1_stereo_44KHz.wav
1	139	1	2	0	C	1	1	589	1	poli_8sides 4_whiteLine3.jpg	MediumShort_e22_cut1_stereo_44KHz.wav
1	140	4	3	2	I	1	0	764	1	poli_8sides 5_whiteLine3.jpg	MediumShort_e16_cut1_stereo_44KHz.wav
1	141	3	3	2	I	1	0	727	1	poli_8sides 12_whiteLine3.jpg	MediumShort_e16_cut1_stereo_44KHz.wav
1	142	2	1	0	C	1	1	1018	1	poli_8sides 10_whiteLine3.jpg	MediumShort_b10_cut1_MS_stereo_44KHz.wav
1	143	4	4	2	I	1	0	1123	0	poli_8sides 5_whiteLine3.jpg	MediumShort_b16_cut3_MS_stereo_44KHz.wav
1	144	1	1	1	C	2	1	758	1	poli_8sides 4_whiteLine3.jpg	MediumShort_b10_cut1_MS_stereo_44KHz.wav
1	145	2	2	1	C	2	1	1194	1	poli_8sides 10_whiteLine3.jpg	MediumShort_e22_cut1_stereo_44KHz.wav
1	146	4	4	2	I	2	0	1281	0	poli_8sides 5_whiteLine3.jpg	MediumShort_b16_cut3_MS_stereo_44KHz.wav
1	147	1	2	0	C	1	1	774	1	poli_8sides 4_whiteLine3.jpg	MediumShort_e22_cut1_stereo_44KHz.wav
1	148	3	3	2	I	1	0	723	1	poli_8sides 12_whiteLine3.jpg	MediumShort_e16_cut1_stereo_44KHz.wav
1	149	1	1	1	C	2	1	762	1	poli_8sides 4_whiteLine3.jpg	MediumShort_b10_cut1_MS_stereo_44KHz.wav
1	150	3	4	2	I	1	0	1079	0	poli_8sides 12_whiteLine3.jpg	MediumShort_b16_cut3_MS_stereo_44KHz.wav
1	151	2	1	0	C	2	0	931	0	poli_8sides 10_whiteLine3.jpg	MediumShort_b10_cut1_MS_stereo_44KHz.wav
1	152	4	3	2	I	1	0	758	1	poli_8sides 5_whiteLine3.jpg	MediumShort_e16_cut1_stereo_44KHz.wav
1	153	2	1	0	C	1	1	646	1	poli_8sides 10_whiteLine3.jpg	MediumShort_b10_cut1_MS_stereo_44KHz.wav
1	154	4	3	2	I	1	0	733	0	poli_8sides 5_whiteLine3.jpg	MediumShort_e16_cut1_stereo_44KHz.wav
1	155	3	3	2	I	1	0	586	1	poli_8sides 12_whiteLine3.jpg	MediumShort_e16_cut1_stereo_44KHz.wav
1	156	1	2	0	C	1	1	542	1	poli_8sides 4_whiteLine3.jpg	MediumShort_e22_cut1_stereo_44KHz.wav
1	157	2	2	1	C	1	0	555	0	poli_8sides 10_whiteLine3.jpg	MediumShort_e22_cut1_stereo_44KHz.wav
1	158	1	1	1	C	2	1	759	1	poli_8sides 4_whiteLine3.jpg	MediumShort_b10_cut1_MS_stereo_44KHz.wav
1	159	3	4	2	I	1	0	1164	0	poli_8sides 12_whiteLine3.jpg	MediumShort_b16_cut3_MS_stereo_44KHz.wav
1	160	4	4	2	I	1	0	863	1	poli_8sides 5_whiteLine3.jpg	MediumShort_b16_cut3_MS_stereo_44KHz.wav
1	161	2	1	0	C	1	1	1066	1	poli_8sides 10_whiteLine3.jpg	MediumShort_b10_cut1_MS_stereo_44KHz.wav
1	162	1	1	1	C	2	1	842	1	poli_8sides 4_whiteLine3.jpg	MediumShort_b10_cut1_MS_stereo_44KHz.wav
1	163	3	4	2	I	1	0	759	0	poli_8sides 12_whiteLine3.jpg	MediumShort_b16_cut3_MS_stereo_44KHz.wav
1	164	4	4	2	I	1	0	581	0	poli_8sides 5_whiteLine3.jpg	MediumShort_b16_cut3_MS_stereo_44KHz.wav
1	165	3	3	2	I	1	0	638	0	poli_8sides 12_whiteLine3.jpg	MediumShort_e16_cut1_stereo_44KHz.wav
1	166	2	2	1	C	2	1	796	1	poli_8sides 10_whiteLine3.jpg	MediumShort_e22_cut1_stereo_44KHz.wav
1	167	1	2	0	C	1	1	490	1	poli_8sides 4_whiteLine3.jpg	MediumShort_e22_cut1_stereo_44KHz.wav
1	168	4	3	2	I	1	0	616	1	poli_8sides 5_whiteLine3.jpg	MediumShort_e16_cut1_stereo_44KHz.wav
1	169	3	4	2	I	2	0	887	1	poli_8sides 12_whiteLine3.jpg	MediumShort_b16_cut3_MS_stereo_44KHz.wav
1	170	1	1	1	C	2	1	781	1	poli_8sides 4_whiteLine3.jpg	MediumShort_b10_cut1_MS_stereo_44KHz.wav
1	171	4	4	2	I	2	0	1155	0	poli_8sides 5_whiteLine3.jpg	MediumShort_b16_cut3_MS_stereo_44KHz.wav
1	172	2	1	0	C	2	0	976	0	poli_8sides 10_whiteLine3.jpg	MediumShort_b10_cut1_MS_stereo_44KHz.wav
1	173	4	3	2	I	1	0	1056	1	poli_8sides 5_whiteLine3.jpg	MediumShort_e16_cut1_stereo_44KHz.wav
1	174	3	3	2	I	1	0	828	1	poli_8sides 12_whiteLine3.jpg	MediumShort_e16_cut1_stereo_44KHz.wav
1	175	2	2	1	C	2	1	851	1	poli_8sides 10_whiteLine3.jpg	MediumShort_e22_cut1_stereo_44KHz.wav
1	176	1	2	0	C	1	1	500	1	poli_8sides 4_whiteLine3.jpg	MediumShort_e22_cut1_stereo_44KHz.wav
1	177	2	2	1	C	2	1	695	1	poli_8sides 10_whiteLine3.jpg	MediumShort_e22_cut1_stereo_44KHz.wav
1	178	3	3	2	I	1	0	710	0	poli_8sides 12_whiteLine3.jpg	MediumShort_e16_cut1_stereo_44KHz.wav
1	179	4	4	2	I	1	0	790	0	poli_8sides 5_whiteLine3.jpg	MediumShort_b16_cut3_MS_stereo_44KHz.wav
1	180	1	2	0	C	1	1	531	1	poli_8sides 4_whiteLine3.jpg	MediumShort_e22_cut1_stereo_44KHz.wav
1	181	4	3	2	I	2	0	1012	0	poli_8sides 5_whiteLine3.jpg	MediumShort_e16_cut1_stereo_44KHz.wav
1	182	2	1	0	C	1	1	764	1	poli_8sides 10_whiteLine3.jpg	MediumShort_b10_cut1_MS_stereo_44KHz.wav
1	183	1	1	1	C	2	1	661	1	poli_8sides 4_whiteLine3.jpg	MediumShort_b10_cut1_MS_stereo_44KHz.wav
1	184	3	4	2	I	1	0	859	1	poli_8sides 12_whiteLine3.jpg	MediumShort_b16_cut3_MS_stereo_44KHz.wav
1	185	4	3	2	I	2	0	901	0	poli_8sides 5_whiteLine3.jpg	MediumShort_e16_cut1_stereo_44KHz.wav
1	186	1	1	1	C	2	1	815	1	poli_8sides 4_whiteLine3.jpg	MediumShort_b10_cut1_MS_stereo_44KHz.wav
1	187	2	1	0	C	1	1	1074	1	poli_8sides 10_whiteLine3.jpg	MediumShort_b10_cut1_MS_stereo_44KHz.wav
1	188	3	3	2	I	1	0	663	1	poli_8sides 12_whiteLine3.jpg	MediumShort_e16_cut1_stereo_44KHz.wav
1	189	4	4	2	I	1	0	871	1	poli_8sides 5_whiteLine3.jpg	MediumShort_b16_cut3_MS_stereo_44KHz.wav
1	190	2	2	1	C	2	1	685	1	poli_8sides 10_whiteLine3.jpg	MediumShort_e22_cut1_stereo_44KHz.wav
1	191	3	4	2	I	1	0	892	1	poli_8sides 12_whiteLine3.jpg	MediumShort_b16_cut3_MS_stereo_44KHz.wav
1	192	1	2	0	C	1	1	822	1	poli_8sides 4_whiteLine3.jpg	MediumShort_e22_cut1_stereo_44KHz.wav
1	193	4	4	2	I	1	0	947	1	poli_8sides 5_whiteLine3.jpg	MediumShort_b16_cut3_MS_stereo_44KHz.wav
1	194	1	1	1	C	2	1	713	1	poli_8sides 4_whiteLine3.jpg	MediumShort_b10_cut1_MS_stereo_44KHz.wav
1	195	3	3	2	I	1	0	1228	0	poli_8sides 12_whiteLine3.jpg	MediumShort_e16_cut1_stereo_44KHz.wav
1	196	2	1	0	C	1	1	886	1	poli_8sides 10_whiteLine3.jpg	MediumShort_b10_cut1_MS_stereo_44KHz.wav
1	197	3	4	2	I	2	0	966	1	poli_8sides 12_whiteLine3.jpg	MediumShort_b16_cut3_MS_stereo_44KHz.wav
1	198	2	2	1	C	2	1	1014	1	poli_8sides 10_whiteLine3.jpg	MediumShort_e22_cut1_stereo_44KHz.wav
1	199	4	3	2	I	1	0	1055	0	poli_8sides 5_whiteLine3.jpg	MediumShort_e16_cut1_stereo_44KHz.wav
1	200	1	2	0	C	1	1	638	1	poli_8sides 4_whiteLine3.jpg	MediumShort_e22_cut1_stereo_44KHz.wav
2	1	1	2	0	C	1	1	1342	1	poli_8sides 9_whiteLine3.jpg	Short_b20_cut1_stereo_44KHz.wav
2	2	4	3	2	I	2	0	499	1	poli_8sides 8_whiteLine3.jpg	Short_b23_cut1_stereo_44KHz.wav
2	3	2	2	1	C	2	1	721	1	poli_8sides 1_whiteLine3.jpg	Short_b20_cut1_stereo_44KHz.wav
2	4	3	4	2	I	2	0	653	1	poli_8sides 7_whiteLine3.jpg	Short_b22_cut1_stereo_44KHz.wav
2	5	2	1	0	C	2	0	544	0	poli_8sides 1_whiteLine3.jpg	Short_b09_cut1_stereo_44KHz.wav
2	6	1	1	1	C	2	1	771	1	poli_8sides 9_whiteLine3.jpg	Short_b09_cut1_stereo_44KHz.wav
2	7	4	4	2	I	1	0	736	1	poli_8sides 8_whiteLine3.jpg	Short_b22_cut1_stereo_44KHz.wav
2	8	3	3	2	I	2	0	504	1	poli_8sides 7_whiteLine3.jpg	Short_b23_cut1_stereo_44KHz.wav
2	9	1	2	0	C	2	0	927	0	poli_8sides 9_whiteLine3.jpg	Short_b20_cut1_stereo_44KHz.wav
2	10	4	3	2	I	1	0	536	0	poli_8sides 8_whiteLine3.jpg	Short_b23_cut1_stereo_44KHz.wav
2	11	2	2	1	C	2	1	560	1	poli_8sides 1_whiteLine3.jpg	Short_b20_cut1_stereo_44KHz.wav
2	12	3	3	2	I	1	0	627	0	poli_8sides 7_whiteLine3.jpg	Short_b23_cut1_stereo_44KHz.wav
2	13	1	1	1	C	1	0	747	0	poli_8sides 9_whiteLine3.jpg	Short_b09_cut1_stereo_44KHz.wav
2	14	2	1	0	C	1	1	678	1	poli_8sides 1_whiteLine3.jpg	Short_b09_cut1_stereo_44KHz.wav
2	15	3	4	2	I	1	0	592	1	poli_8sides 7_whiteLine3.jpg	Short_b22_cut1_stereo_44KHz.wav
2	16	4	4	2	I	1	0	420	0	poli_8sides 8_whiteLine3.jpg	Short_b22_cut1_stereo_44KHz.wav
2	17	1	2	0	C	1	1	610	1	poli_8sides 9_whiteLine3.jpg	Short_b20_cut1_stereo_44KHz.wav
2	18	3	3	2	I	1	0	576	1	poli_8sides 7_whiteLine3.jpg	Short_b23_cut1_stereo_44KHz.wav
2	19	2	2	1	C	2	1	625	1	poli_8sides 1_whiteLine3.jpg	Short_b20_cut1_stereo_44KHz.wav
2	20	4	3	2	I	1	0	498	1	poli_8sides 8_whiteLine3.jpg	Short_b23_cut1_stereo_44KHz.wav
2	21	2	1	0	C	2	0	591	0	poli_8sides 1_whiteLine3.jpg	Short_b09_cut1_stereo_44KHz.wav
2	22	1	1	1	C	1	0	549	0	poli_8sides 9_whiteLine3.jpg	Short_b09_cut1_stereo_44KHz.wav
2	23	3	4	2	I	1	0	609	0	poli_8sides 7_whiteLine3.jpg	Short_b22_cut1_stereo_44KHz.wav
2	24	4	4	2	I	2	0	870	1	poli_8sides 8_whiteLine3.jpg	Short_b22_cut1_stereo_44KHz.wav
2	25	3	3	2	I	1	0	658	0	poli_8sides 7_whiteLine3.jpg	Short_b23_cut1_stereo_44KHz.wav
2	26	2	1	0	C	2	0	630	0	poli_8sides 1_whiteLine3.jpg	Short_b09_cut1_stereo_44KHz.wav
2	27	4	4	2	I	1	0	691	0	poli_8sides 8_whiteLine3.jpg	Short_b22_cut1_stereo_44KHz.wav
2	28	1	1	1	C	1	0	700	0	poli_8sides 9_whiteLine3.jpg	Short_b09_cut1_stereo_44KHz.wav
2	29	2	2	1	C	2	1	617	1	poli_8sides 1_whiteLine3.jpg	Short_b20_cut1_stereo_44KHz.wav
2	30	4	3	2	I	1	0	782	1	poli_8sides 8_whiteLine3.jpg	Short_b23_cut1_stereo_44KHz.wav
2	31	3	4	2	I	1	0	1168	0	poli_8sides 7_whiteLine3.jpg	Short_b22_cut1_stereo_44KHz.wav
2	32	1	2	0	C	2	0	936	0	poli_8sides 9_whiteLine3.jpg	Short_b20_cut1_stereo_44KHz.wav
2	33	4	4	2	I	1	0	782	1	poli_8sides 8_whiteLine3.jpg	Short_b22_cut1_stereo_44KHz.wav
2	34	3	3	2	I	2	0	759	1	poli_8sides 7_whiteLine3.jpg	Short_b23_cut1_stereo_44KHz.wav
2	35	1	1	1	C	1	0	659	0	poli_8sides 9_whiteLine3.jpg	Short_b09_cut1_stereo_44KHz.wav
2	36	2	1	0	C	1	1	597	1	poli_8sides 1_whiteLine3.jpg	Short_b09_cut1_stereo_44KHz.wav
2	37	3	4	2	I	1	0	1078	0	poli_8sides 7_whiteLine3.jpg	Short_b22_cut1_stereo_44KHz.wav
2	38	4	3	2	I	1	0	687	1	poli_8sides 8_whiteLine3.jpg	Short_b23_cut1_stereo_44KHz.wav
2	39	2	2	1	C	1	0	1122	0	poli_8sides 1_whiteLine3.jpg	Short_b20_cut1_stereo_44KHz.wav
2	40	1	2	0	C	1	1	592	1	poli_8sides 9_whiteLine3.jpg	Short_b20_cut1_stereo_44KHz.wav
2	41	2	1	0	C	1	1	691	1	poli_8sides 1_whiteLine3.jpg	Short_b09_cut1_stereo_44KHz.wav
2	42	3	4	2	I	2	0	746	1	poli_8sides 7_whiteLine3.jpg	Short_b22_cut1_stereo_44KHz.wav
2	43	1	2	0	C	2	0	1002	0	poli_8sides 9_whiteLine3.jpg	Short_b20_cut1_stereo_44KHz.wav
2	44	4	3	2	I	1	0	607	0	poli_8sides 8_whiteLine3.jpg	Short_b23_cut1_stereo_44KHz.wav
2	45	3	3	2	I	1	0	556	1	poli_8sides 7_whiteLine3.jpg	Short_b23_cut1_stereo_44KHz.wav
2	46	1	1	1	C	2	1	997	1	poli_8sides 9_whiteLine3.jpg	Short_b09_cut1_stereo_44KHz.wav
2	47	4	4	2	I	1	0	765	0	poli_8sides 8_whiteLine3.jpg	Short_b22_cut1_stereo_44KHz.wav
2	48	2	2	1	C	1	0	716	0	poli_8sides 1_whiteLine3.jpg	Short_b20_cut1_stereo_44KHz.wav
2	49	3	3	2	I	1	0	639	1	poli_8sides 7_whiteLine3.jpg	Short_b23_cut1_stereo_44KHz.wav
2	50	2	1	0	C	1	1	644	1	poli_8sides 1_whiteLine3.jpg	Short_b09_cut1_stereo_44KHz.wav
2	51	1	1	1	C	2	1	717	1	poli_8sides 9_whiteLine3.jpg	Short_b09_cut1_stereo_44KHz.wav
2	52	4	3	2	I	1	0	657	1	poli_8sides 8_whiteLine3.jpg	Short_b23_cut1_stereo_44KHz.wav
2	53	3	4	2	I	1	0	826	0	poli_8sides 7_whiteLine3.jpg	Short_b22_cut1_stereo_44KHz.wav
2	54	2	2	1	C	1	0	746	0	poli_8sides 1_whiteLine3.jpg	Short_b20_cut1_stereo_44KHz.wav
2	55	4	4	2	I	1	0	636	1	poli_8sides 8_whiteLine3.jpg	Short_b22_cut1_stereo_44KHz.wav
2	56	1	2	0	C	1	1	897	1	poli_8sides 9_whiteLine3.jpg	Short_b20_cut1_stereo_44KHz.wav
2	57	4	4	2	I	1	0	604	1	poli_8sides 8_whiteLine3.jpg	Short_b22_cut1_stereo_44KHz.wav
2	58	3	3	2	I	1	0	769	1	poli_8sides 7_whiteLine3.jpg	Short_b23_cut1_stereo_44KHz.wav
2	59	2	2	1	C	2	1	790	1	poli_8sides 1_whiteLine3.jpg	Short_b20_cut1_stereo_44KHz.wav
2	60	1	2	0	C	1	1	637	1	poli_8sides 9_whiteLine3.jpg	Short_b20_cut1_stereo_44KHz.wav
2	61	4	3	2	I	1	0	606	0	poli_8sides 8_whiteLine3.jpg	Short_b23_cut1_stereo_44KHz.wav
2	62	1	1	1	C	2	1	815	1	poli_8sides 9_whiteLine3.jpg	Short_b09_cut1_stereo_44KHz.wav
2	63	2	1	0	C	1	1	646	1	poli_8sides 1_whiteLine3.jpg	Short_b09_cut1_stereo_44KHz.wav
2	64	3	4	2	I	1	0	679	1	poli_8sides 7_whiteLine3.jpg	Short_b22_cut1_stereo_44KHz.wav
2	65	2	1	0	C	1	1	747	1	poli_8sides 1_whiteLine3.jpg	Short_b09_cut1_stereo_44KHz.wav
2	66	3	4	2	I	2	0	1273	1	poli_8sides 7_whiteLine3.jpg	Short_b22_cut1_stereo_44KHz.wav
2	67	4	4	2	I	1	0	737	0	poli_8sides 8_whiteLine3.jpg	Short_b22_cut1_stereo_44KHz.wav
2	68	1	2	0	C	1	1	886	1	poli_8sides 9_whiteLine3.jpg	Short_b20_cut1_stereo_44KHz.wav
2	69	3	3	2	I	1	0	702	0	poli_8sides 7_whiteLine3.jpg	Short_b23_cut1_stereo_44KHz.wav
2	70	1	1	1	C	2	1	780	1	poli_8sides 9_whiteLine3.jpg	Short_b09_cut1_stereo_44KHz.wav
2	71	4	3	2	I	1	0	616	1	poli_8sides 8_whiteLine3.jpg	Short_b23_cut1_stereo_44KHz.wav
2	72	2	2	1	C	2	1	1120	1	poli_8sides 1_whiteLine3.jpg	Short_b20_cut1_stereo_44KHz.wav
2	73	1	2	0	C	1	1	564	1	poli_8sides 9_whiteLine3.jpg	Short_b20_cut1_stereo_44KHz.wav
2	74	2	1	0	C	1	1	1145	1	poli_8sides 1_whiteLine3.jpg	Short_b09_cut1_stereo_44KHz.wav
2	75	4	3	2	I	1	0	675	1	poli_8sides 8_whiteLine3.jpg	Short_b23_cut1_stereo_44KHz.wav
2	76	3	3	2	I	2	0	632	0	poli_8sides 7_whiteLine3.jpg	Short_b23_cut1_stereo_44KHz.wav
2	77	2	2	1	C	1	0	733	0	poli_8sides 1_whiteLine3.jpg	Short_b20_cut1_stereo_44KHz.wav
2	78	4	4	2	I	1	0	676	0	poli_8sides 8_whiteLine3.jpg	Short_b22_cut1_stereo_44KHz.wav
2	79	1	1	1	C	2	1	777	1	poli_8sides 9_whiteLine3.jpg	Short_b09_cut1_stereo_44KHz.wav
2	80	3	4	2	I	2	0	930	1	poli_8sides 7_whiteLine3.jpg	Short_b22_cut1_stereo_44KHz.wav
2	81	2	2	1	C	2	1	879	1	poli_8sides 1_whiteLine3.jpg	Short_b20_cut1_stereo_44KHz.wav
2	82	4	4	2	I	1	0	696	0	poli_8sides 8_whiteLine3.jpg	Short_b22_cut1_stereo_44KHz.wav
2	83	1	2	0	C	1	1	833	1	poli_8sides 9_whiteLine3.jpg	Short_b20_cut1_stereo_44KHz.wav
2	84	3	3	2	I	1	0	699	0	poli_8sides 7_whiteLine3.jpg	Short_b23_cut1_stereo_44KHz.wav
2	85	2	1	0	C	2	0	726	0	poli_8sides 1_whiteLine3.jpg	Short_b09_cut1_stereo_44KHz.wav
2	86	1	1	1	C	2	1	761	1	poli_8sides 9_whiteLine3.jpg	Short_b09_cut1_stereo_44KHz.wav
2	87	3	4	2	I	1	0	644	0	poli_8sides 7_whiteLine3.jpg	Short_b22_cut1_stereo_44KHz.wav
2	88	4	3	2	I	1	0	586	1	poli_8sides 8_whiteLine3.jpg	Short_b23_cut1_stereo_44KHz.wav
2	89	3	3	2	I	2	0	624	1	poli_8sides 7_whiteLine3.jpg	Short_b23_cut1_stereo_44KHz.wav
2	90	4	4	2	I	2	0	1212	0	poli_8sides 8_whiteLine3.jpg	Short_b22_cut1_stereo_44KHz.wav
2	91	1	2	0	C	1	1	727	1	poli_8sides 9_whiteLine3.jpg	Short_b20_cut1_stereo_44KHz.wav
2	92	2	1	0	C	1	1	729	1	poli_8sides 1_whiteLine3.jpg	Short_b09_cut1_stereo_44KHz.wav
2	93	3	4	2	I	1	0	1084	0	poli_8sides 7_whiteLine3.jpg	Short_b22_cut1_stereo_44KHz.wav
2	94	1	1	1	C	1	0	747	0	poli_8sides 9_whiteLine3.jpg	Short_b09_cut1_stereo_44KHz.wav
2	95	4	3	2	I	1	0	657	0	poli_8sides 8_whiteLine3.jpg	Short_b23_cut1_stereo_44KHz.wav
2	96	2	2	1	C	2	1	1016	1	poli_8sides 1_whiteLine3.jpg	Short_b20_cut1_stereo_44KHz.wav
2	97	3	4	2	I	2	0	869	1	poli_8sides 7_whiteLine3.jpg	Short_b22_cut1_stereo_44KHz.wav
2	98	1	1	1	C	2	1	1313	1	poli_8sides 9_whiteLine3.jpg	Short_b09_cut1_stereo_44KHz.wav
2	99	4	4	2	I	1	0	806	0	poli_8sides 8_whiteLine3.jpg	Short_b22_cut1_stereo_44KHz.wav
2	100	2	2	1	C	2	1	970	1	poli_8sides 1_whiteLine3.jpg	Short_b20_cut1_stereo_44KHz.wav
2	101	1	2	0	C	1	1	716	1	poli_8sides 9_whiteLine3.jpg	Short_b20_cut1_stereo_44KHz.wav
2	102	4	3	2	I	1	0	764	1	poli_8sides 8_whiteLine3.jpg	Short_b23_cut1_stereo_44KHz.wav
2	103	3	3	2	I	2	0	650	0	poli_8sides 7_whiteLine3.jpg	Short_b23_cut1_stereo_44KHz.wav
2	104	2	1	0	C	1	1	1479	1	poli_8sides 1_whiteLine3.jpg	Short_b09_cut1_stereo_44KHz.wav
2	105	1	2	0	C	1	1	625	1	poli_8sides 9_whiteLine3.jpg	Short_b20_cut1_stereo_44KHz.wav
2	106	2	1	0	C	1	1	842	1	poli_8sides 1_whiteLine3.jpg	Short_b09_cut1_stereo_44KHz.wav
2	107	3	3	2	I	1	0	1044	0	poli_8sides 7_whiteLine3.jpg	Short_b23_cut1_stereo_44KHz.wav
2	108	4	3	2	I	1	0	519	1	poli_8sides 8_whiteLine3.jpg	Short_b23_cut1_stereo_44KHz.wav
2	109	3	4	2	I	2	0	739	0	poli_8sides 7_whiteLine3.jpg	Short_b22_cut1_stereo_44KHz.wav
2	110	2	2	1	C	2	1	977	1	poli_8sides 1_whiteLine3.jpg	Short_b20_cut1_stereo_44KHz.wav
2	111	1	1	1	C	1	0	889	0	poli_8sides 9_whiteLine3.jpg	Short_b09_cut1_stereo_44KHz.wav
2	112	4	4	2	I	2	0	935	0	poli_8sides 8_whiteLine3.jpg	Short_b22_cut1_stereo_44KHz.wav
2	113	1	2	0	C	2	0	1002	0	poli_8sides 9_whiteLine3.jpg	Short_b20_cut1_stereo_44KHz.wav
2	114	3	3	2	I	2	0	888	0	poli_8sides 7_whiteLine3.jpg	Short_b23_cut1_stereo_44KHz.wav
2	115	2	2	1	C	2	1	721	1	poli_8sides 1_whiteLine3.jpg	Short_b20_cut1_stereo_44KHz.wav
2	116	4	3	2	I	1	0	715	1	poli_8sides 8_whiteLine3.jpg	Short_b23_cut1_stereo_44KHz.wav
2	117	3	4	2	I	1	0	901	0	poli_8sides 7_whiteLine3.jpg	Short_b22_cut1_stereo_44KHz.wav
2	118	1	1	1	C	2	1	800	1	poli_8sides 9_whiteLine3.jpg	Short_b09_cut1_stereo_44KHz.wav
2	119	4	4	2	I	1	0	622	1	poli_8sides 8_whiteLine3.jpg	Short_b22_cut1_stereo_44KHz.wav
2	120	2	1	0	C	1	1	886	1	poli_8sides 1_whiteLine3.jpg	Short_b09_cut1_stereo_44KHz.wav
2	121	3	4	2	I	2	0	906	1	poli_8sides 7_whiteLine3.jpg	Short_b22_cut1_stereo_44KHz.wav
2	122	1	1	1	C	2	1	1195	1	poli_8sides 9_whiteLine3.jpg	Short_b09_cut1_stereo_44KHz.wav
2	123	4	4	2	I	1	0	680	1	poli_8sides 8_whiteLine3.jpg	Short_b22_cut1_stereo_44KHz.wav
2	124	2	1	0	C	1	1	729	1	poli_8sides 1_whiteLine3.jpg	Short_b09_cut1_stereo_44KHz.wav
2	125	1	2	0	C	2	0	800	0	poli_8sides 9_whiteLine3.jpg	Short_b20_cut1_stereo_44KHz.wav
2	126	2	2	1	C	2	1	766	1	poli_8sides 1_whiteLine3.jpg	Short_b20_cut1_stereo_44KHz.wav
2	127	3	3	2	I	1	0	860	1	poli_8sides 7_whiteLine3.jpg	Short_b23_cut1_stereo_44KHz.wav
2	128	4	3	2	I	1	0	815	1	poli_8sides 8_whiteLine3.jpg	Short_b23_cut1_stereo_44KHz.wav
2	129	2	2	1	C	2	1	965	1	poli_8sides 1_whiteLine3.jpg	Short_b20_cut1_stereo_44KHz.wav
2	130	4	3	2	I	1	0	849	1	poli_8sides 8_whiteLine3.jpg	Short_b23_cut1_stereo_44KHz.wav
2	131	1	1	1	C	2	1	967	1	poli_8sides 9_whiteLine3.jpg	Short_b09_cut1_stereo_44KHz.wav
2	132	3	3	2	I	1	0	829	1	poli_8sides 7_whiteLine3.jpg	Short_b23_cut1_stereo_44KHz.wav
2	133	2	1	0	C	1	1	1168	1	poli_8sides 1_whiteLine3.jpg	Short_b09_cut1_stereo_44KHz.wav
2	134	1	2	0	C	1	1	635	1	poli_8sides 9_whiteLine3.jpg	Short_b20_cut1_stereo_44KHz.wav
2	135	4	4	2	I	2	0	1243	0	poli_8sides 8_whiteLine3.jpg	Short_b22_cut1_stereo_44KHz.wav
2	136	3	4	2	I	1	0	595	0	poli_8sides 7_whiteLine3.jpg	Short_b22_cut1_stereo_44KHz.wav
2	137	4	4	2	I	1	0	616	0	poli_8sides 8_whiteLine3.jpg	Short_b22_cut1_stereo_44KHz.wav
2	138	2	2	1	C	2	1	795	1	poli_8sides 1_whiteLine3.jpg	Short_b20_cut1_stereo_44KHz.wav
2	139	3	3	2	I	1	0	717	0	poli_8sides 7_whiteLine3.jpg	Short_b23_cut1_stereo_44KHz.wav
2	140	1	2	0	C	1	1	906	1	poli_8sides 9_whiteLine3.jpg	Short_b20_cut1_stereo_44KHz.wav
2	141	4	3	2	I	1	0	555	1	poli_8sides 8_whiteLine3.jpg	Short_b23_cut1_stereo_44KHz.wav
2	142	3	4	2	I	2	0	920	1	poli_8sides 7_whiteLine3.jpg	Short_b22_cut1_stereo_44KHz.wav
2	143	1	1	1	C	2	1	947	1	poli_8sides 9_whiteLine3.jpg	Short_b09_cut1_stereo_44KHz.wav
2	144	2	1	0	C	1	1	619	1	poli_8sides 1_whiteLine3.jpg	Short_b09_cut1_stereo_44KHz.wav
2	145	1	2	0	C	1	1	662	1	poli_8sides 9_whiteLine3.jpg	Short_b20_cut1_stereo_44KHz.wav
2	146	2	1	0	C	2	0	840	0	poli_8sides 1_whiteLine3.jpg	Short_b09_cut1_stereo_44KHz.wav
2	147	4	3	2	I	1	0	651	1	poli_8sides 8_whiteLine3.jpg	Short_b23_cut1_stereo_44KHz.wav
2	148	3	4	2	I	1	0	649	1	poli_8sides 7_whiteLine3.jpg	Short_b22_cut1_stereo_44KHz.wav
2	149	2	2	1	C	2	1	1114	1	poli_8sides 1_whiteLine3.jpg	Short_b20_cut1_stereo_44KHz.wav
2	150	1	1	1	C	2	1	1052	1	poli_8sides 9_whiteLine3.jpg	Short_b09_cut1_stereo_44KHz.wav
2	151	4	4	2	I	1	0	656	0	poli_8sides 8_whiteLine3.jpg	Short_b22_cut1_stereo_44KHz.wav
2	152	3	3	2	I	2	0	1084	0	poli_8sides 7_whiteLine3.jpg	Short_b23_cut1_stereo_44KHz.wav
2	153	2	2	1	C	2	1	854	1	poli_8sides 1_whiteLine3.jpg	Short_b20_cut1_stereo_44KHz.wav
2	154	3	4	2	I	1	0	717	0	poli_8sides 7_whiteLine3.jpg	Short_b22_cut1_stereo_44KHz.wav
2	155	1	2	0	C	1	1	798	1	poli_8sides 9_whiteLine3.jpg	Short_b20_cut1_stereo_44KHz.wav
2	156	4	4	2	I	1	0	720	0	poli_8sides 8_whiteLine3.jpg	Short_b22_cut1_stereo_44KHz.wav
2	157	1	1	1	C	2	1	787	1	poli_8sides 9_whiteLine3.jpg	Short_b09_cut1_stereo_44KHz.wav
2	158	2	1	0	C	2	0	1028	0	poli_8sides 1_whiteLine3.jpg	Short_b09_cut1_stereo_44KHz.wav
2	159	4	3	2	I	1	0	713	0	poli_8sides 8_whiteLine3.jpg	Short_b23_cut1_stereo_44KHz.wav
2	160	3	3	2	I	1	0	745	1	poli_8sides 7_whiteLine3.jpg	Short_b23_cut1_stereo_44KHz.wav
2	161	1	1	1	C	2	1	973	1	poli_8sides 9_whiteLine3.jpg	Short_b09_cut1_stereo_44KHz.wav
2	162	2	2	1	C	2	1	734	1	poli_8sides 1_whiteLine3.jpg	Short_b20_cut1_stereo_44KHz.wav
2	163	4	4	2	I	1	0	797	0	poli_8sides 8_whiteLine3.jpg	Short_b22_cut1_stereo_44KHz.wav
2	164	3	3	2	I	1	0	795	1	poli_8sides 7_whiteLine3.jpg	Short_b23_cut1_stereo_44KHz.wav
2	165	1	2	0	C	1	1	1007	1	poli_8sides 9_whiteLine3.jpg	Short_b20_cut1_stereo_44KHz.wav
2	166	4	3	2	I	1	0	884	1	poli_8sides 8_whiteLine3.jpg	Short_b23_cut1_stereo_44KHz.wav
2	167	3	4	2	I	2	0	777	0	poli_8sides 7_whiteLine3.jpg	Short_b22_cut1_stereo_44KHz.wav
2	168	2	1	0	C	2	0	925	0	poli_8sides 1_whiteLine3.jpg	Short_b09_cut1_stereo_44KHz.wav
2	169	4	3	2	I	1	0	644	0	poli_8sides 8_whiteLine3.jpg	Short_b23_cut1_stereo_44KHz.wav
2	170	2	2	1	C	2	1	893	1	poli_8sides 1_whiteLine3.jpg	Short_b20_cut1_stereo_44KHz.wav
2	171	3	4	2	I	1	0	982	1	poli_8sides 7_whiteLine3.jpg	Short_b22_cut1_stereo_44KHz.wav
2	172	1	1	1	C	2	1	880	1	poli_8sides 9_whiteLine3.jpg	Short_b09_cut1_stereo_44KHz.wav
2	173	4	4	2	I	1	0	722	0	poli_8sides 8_whiteLine3.jpg	Short_b22_cut1_stereo_44KHz.wav
2	174	1	2	0	C	1	1	1410	1	poli_8sides 9_whiteLine3.jpg	Short_b20_cut1_stereo_44KHz.wav
2	175	2	1	0	C	1	1	678	1	poli_8sides 1_whiteLine3.jpg	Short_b09_cut1_stereo_44KHz.wav
2	176	3	3	2	I	1	0	765	1	poli_8sides 7_whiteLine3.jpg	Short_b23_cut1_stereo_44KHz.wav
2	177	2	1	0	C	1	1	841	1	poli_8sides 1_whiteLine3.jpg	Short_b09_cut1_stereo_44KHz.wav
2	178	1	1	1	C	2	1	593	1	poli_8sides 9_whiteLine3.jpg	Short_b09_cut1_stereo_44KHz.wav
2	179	3	4	2	I	1	0	691	0	poli_8sides 7_whiteLine3.jpg	Short_b22_cut1_stereo_44KHz.wav
2	180	4	4	2	I	2	0	858	0	poli_8sides 8_whiteLine3.jpg	Short_b22_cut1_stereo_44KHz.wav
2	181	1	2	0	C	1	1	1149	1	poli_8sides 9_whiteLine3.jpg	Short_b20_cut1_stereo_44KHz.wav
2	182	4	3	2	I	1	0	958	0	poli_8sides 8_whiteLine3.jpg	Short_b23_cut1_stereo_44KHz.wav
2	183	2	2	1	C	2	1	958	1	poli_8sides 1_whiteLine3.jpg	Short_b20_cut1_stereo_44KHz.wav
2	184	3	3	2	I	1	0	802	1	poli_8sides 7_whiteLine3.jpg	Short_b23_cut1_stereo_44KHz.wav
2	185	2	1	0	C	2	0	882	0	poli_8sides 1_whiteLine3.jpg	Short_b09_cut1_stereo_44KHz.wav
2	186	4	3	2	I	1	0	685	0	poli_8sides 8_whiteLine3.jpg	Short_b23_cut1_stereo_44KHz.wav
2	187	3	4	2	I	2	0	936	0	poli_8sides 7_whiteLine3.jpg	Short_b22_cut1_stereo_44KHz.wav
2	188	1	1	1	C	2	1	848	1	poli_8sides 9_whiteLine3.jpg	Short_b09_cut1_stereo_44KHz.wav
2	189	3	3	2	I	1	0	633	0	poli_8sides 7_whiteLine3.jpg	Short_b23_cut1_stereo_44KHz.wav
2	190	2	2	1	C	1	0	1199	0	poli_8sides 1_whiteLine3.jpg	Short_b20_cut1_stereo_44KHz.wav
2	191	4	4	2	I	1	0	749	1	poli_8sides 8_whiteLine3.jpg	Short_b22_cut1_stereo_44KHz.wav
2	192	1	2	0	C	1	1	736	1	poli_8sides 9_whiteLine3.jpg	Short_b20_cut1_stereo_44KHz.wav
2	193	3	4	2	I	1	0	871	0	poli_8sides 7_whiteLine3.jpg	Short_b22_cut1_stereo_44KHz.wav
2	194	2	2	1	C	2	1	1075	1	poli_8sides 1_whiteLine3.jpg	Short_b20_cut1_stereo_44KHz.wav
2	195	4	4	2	I	1	0	774	1	poli_8sides 8_whiteLine3.jpg	Short_b22_cut1_stereo_44KHz.wav
2	196	1	1	1	C	2	1	820	1	poli_8sides 9_whiteLine3.jpg	Short_b09_cut1_stereo_44KHz.wav
2	197	2	1	0	C	1	1	517	1	poli_8sides 1_whiteLine3.jpg	Short_b09_cut1_stereo_44KHz.wav
2	198	1	2	0	C	1	1	1004	1	poli_8sides 9_whiteLine3.jpg	Short_b20_cut1_stereo_44KHz.wav
2	199	3	3	2	I	1	0	740	1	poli_8sides 7_whiteLine3.jpg	Short_b23_cut1_stereo_44KHz.wav
2	200	4	3	2	I	1	0	820	0	poli_8sides 8_whiteLine3.jpg	Short_b23_cut1_stereo_44KHz.wav
3	1	1	1	1	C	1	0	944	0	poli_8sides 6_whiteLine3.jpg	MediumLong_b10_cut2_L_stereo_44KHz.wav
3	2	4	4	2	I	1	0	353	1	poli_8sides 18_whiteLine3.jpg	MediumLong_e19_stereo_44KHz.wav
3	3	3	3	2	I	2	0	685	0	poli_8sides 16_whiteLine3.jpg	MediumLong_e17_cut2_stereo_44KHz.wav
3	4	2	1	0	C	1	1	995	1	poli_8sides 2_whiteLine3.jpg	MediumLong_b10_cut2_L_stereo_44KHz.wav
3	5	1	2	0	C	2	0	935	0	poli_8sides 6_whiteLine3.jpg	Medium_e13_stereo_44KHz.wav
3	6	2	2	1	C	1	0	709	0	poli_8sides 2_whiteLine3.jpg	Medium_e13_stereo_44KHz.wav
3	7	4	3	2	I	1	0	898	1	poli_8sides 18_whiteLine3.jpg	MediumLong_e17_cut2_stereo_44KHz.wav
3	8	3	4	2	I	2	0	934	0	poli_8sides 16_whiteLine3.jpg	MediumLong_e19_stereo_44KHz.wav
3	9	1	2	0	C	1	1	657	1	poli_8sides 6_whiteLine3.jpg	Medium_e13_stereo_44KHz.wav
3	10	3	4	2	I	1	0	721	0	poli_8sides 16_whiteLine3.jpg	MediumLong_e19_stereo_44KHz.wav
3	11	2	1	0	C	1	1	1070	1	poli_8sides 2_whiteLine3.jpg	MediumLong_b10_cut2_L_stereo_44KHz.wav
3	12	4	4	2	I	1	0	855	0	poli_8sides 18_whiteLine3.jpg	MediumLong_e19_stereo_44KHz.wav
3	13	1	1	1	C	2	1	929	1	poli_8sides 6_whiteLine3.jpg	MediumLong_b10_cut2_L_stereo_44KHz.wav
3	14	3	3	2	I	1	0	737	1	poli_8sides 16_whiteLine3.jpg	MediumLong_e17_cut2_stereo_44KHz.wav
3	15	4	3	2	I	1	0	838	0	poli_8sides 18_whiteLine3.jpg	MediumLong_e17_cut2_stereo_44KHz.wav
3	16	2	2	1	C	2	1	920	1	poli_8sides 2_whiteLine3.jpg	Medium_e13_stereo_44KHz.wav
3	17	3	3	2	I	1	0	648	1	poli_8sides 16_whiteLine3.jpg	MediumLong_e17_cut2_stereo_44KHz.wav
3	18	2	2	1	C	2	1	1200	1	poli_8sides 2_whiteLine3.jpg	Medium_e13_stereo_44KHz.wav
3	19	1	2	0	C	1	1	1155	1	poli_8sides 6_whiteLine3.jpg	Medium_e13_stereo_44KHz.wav
3	20	4	4	2	I	1	0	882	1	poli_8sides 18_whiteLine3.jpg	MediumLong_e19_stereo_44KHz.wav
3	21	3	4	2	I	2	0	766	1	poli_8sides 16_whiteLine3.jpg	MediumLong_e19_stereo_44KHz.wav
3	22	4	3	2	I	2	0	889	1	poli_8sides 18_whiteLine3.jpg	MediumLong_e17_cut2_stereo_44KHz.wav
3	23	2	1	0	C	1	1	628	1	poli_8sides 2_whiteLine3.jpg	MediumLong_b10_cut2_L_stereo_44KHz.wav
3	24	1	1	1	C	2	1	645	1	poli_8sides 6_whiteLine3.jpg	MediumLong_b10_cut2_L_stereo_44KHz.wav
3	25	3	4	2	I	1	0	950	1	poli_8sides 16_whiteLine3.jpg	MediumLong_e19_stereo_44KHz.wav
3	26	1	2	0	C	1	1	973	1	poli_8sides 6_whiteLine3.jpg	Medium_e13_stereo_44KHz.wav
3	27	4	3	2	I	1	0	609	0	poli_8sides 18_whiteLine3.jpg	MediumLong_e17_cut2_stereo_44KHz.wav
3	28	2	1	0	C	1	1	964	1	poli_8sides 2_whiteLine3.jpg	MediumLong_b10_cut2_L_stereo_44KHz.wav
3	29	3	3	2	I	1	0	653	0	poli_8sides 16_whiteLine3.jpg	MediumLong_e17_cut2_stereo_44KHz.wav
3	30	4	4	2	I	1	0	1082	1	poli_8sides 18_whiteLine3.jpg	MediumLong_e19_stereo_44KHz.wav
3	31	2	2	1	C	2	1	865	1	poli_8sides 2_whiteLine3.jpg	Medium_e13_stereo_44KHz.wav
3	32	1	1	1	C	2	1	778	1	poli_8sides 6_whiteLine3.jpg	MediumLong_b10_cut2_L_stereo_44KHz.wav
3	33	4	4	2	I	1	0	1006	1	poli_8sides 18_whiteLine3.jpg	MediumLong_e19_stereo_44KHz.wav
3	34	3	4	2	I	2	0	761	1	poli_8sides 16_whiteLine3.jpg	MediumLong_e19_stereo_44KHz.wav
3	35	2	1	0	C	1	1	849	1	poli_8sides 2_whiteLine3.jpg	MediumLong_b10_cut2_L_stereo_44KHz.wav
3	36	1	2	0	C	1	1	731	1	poli_8sides 6_whiteLine3.jpg	Medium_e13_stereo_44KHz.wav
3	37	2	2	1	C	2	1	697	1	poli_8sides 2_whiteLine3.jpg	Medium_e13_stereo_44KHz.wav
3	38	3	3	2	I	1	0	663	1	poli_8sides 16_whiteLine3.jpg	MediumLong_e17_cut2_stereo_44KHz.wav
3	39	4	3	2	I	2	0	637	0	poli_8sides 18_whiteLine3.jpg	MediumLong_e17_cut2_stereo_44KHz.wav
3	40	1	1	1	C	1	0	763	0	poli_8sides 6_whiteLine3.jpg	MediumLong_b10_cut2_L_stereo_44KHz.wav
3	41	4	4	2	I	1	0	828	1	poli_8sides 18_whiteLine3.jpg	MediumLong_e19_stereo_44KHz.wav
3	42	1	1	1	C	1	0	673	0	poli_8sides 6_whiteLine3.jpg	MediumLong_b10_cut2_L_stereo_44KHz.wav
3	43	2	1	0	C	2	0	680	0	poli_8sides 2_whiteLine3.jpg	MediumLong_b10_cut2_L_stereo_44KHz.wav
3	44	3	4	2	I	1	0	750	0	poli_8sides 16_whiteLine3.jpg	MediumLong_e19_stereo_44KHz.wav
3	45	2	2	1	C	2	1	810	1	poli_8sides 2_whiteLine3.jpg	Medium_e13_stereo_44KHz.wav
3	46	4	3	2	I	2	0	981	0	poli_8sides 18_whiteLine3.jpg	MediumLong_e17_cut2_stereo_44KHz.wav
3	47	1	2	0	C	1	1	818	1	poli_8sides 6_whiteLine3.jpg	Medium_e13_stereo_44KHz.wav
3	48	3	3	2	I	1	0	659	1	poli_8sides 16_whiteLine3.jpg	MediumLong_e17_cut2_stereo_44KHz.wav
3	49	2	2	1	C	2	1	783	1	poli_8sides 2_whiteLine3.jpg	Medium_e13_stereo_44KHz.wav
3	50	3	4	2	I	2	0	906	1	poli_8sides 16_whiteLine3.jpg	MediumLong_e19_stereo_44KHz.wav
3	51	4	4	2	I	1	0	806	1	poli_8sides 18_whiteLine3.jpg	MediumLong_e19_stereo_44KHz.wav
3	52	1	1	1	C	2	1	1043	1	poli_8sides 6_whiteLine3.jpg	MediumLong_b10_cut2_L_stereo_44KHz.wav
3	53	3	3	2	I	1	0	678	0	poli_8sides 16_whiteLine3.jpg	MediumLong_e17_cut2_stereo_44KHz.wav
3	54	4	3	2	I	1	0	720	0	poli_8sides 18_whiteLine3.jpg	MediumLong_e17_cut2_stereo_44KHz.wav
3	55	2	1	0	C	1	1	993	1	poli_8sides 2_whiteLine3.jpg	MediumLong_b10_cut2_L_stereo_44KHz.wav
3	56	1	2	0	C	1	1	672	1	poli_8sides 6_whiteLine3.jpg	Medium_e13_stereo_44KHz.wav
3	57	3	4	2	I	1	0	518	0	poli_8sides 16_whiteLine3.jpg	MediumLong_e19_stereo_44KHz.wav
3	58	2	1	0	C	1	1	951	1	poli_8sides 2_whiteLine3.jpg	MediumLong_b10_cut2_L_stereo_44KHz.wav
3	59	1	2	0	C	1	1	605	1	poli_8sides 6_whiteLine3.jpg	Medium_e13_stereo_44KHz.wav
3	60	4	3	2	I	2	0	820	0	poli_8sides 18_whiteLine3.jpg	MediumLong_e17_cut2_stereo_44KHz.wav
3	61	3	3	2	I	1	0	525	0	poli_8sides 16_whiteLine3.jpg	MediumLong_e17_cut2_stereo_44KHz.wav
3	62	2	2	1	C	2	1	926	1	poli_8sides 2_whiteLine3.jpg	Medium_e13_stereo_44KHz.wav
3	63	1	1	1	C	2	1	898	1	poli_8sides 6_whiteLine3.jpg	MediumLong_b10_cut2_L_stereo_44KHz.wav
3	64	4	4	2	I	1	0	792	1	poli_8sides 18_whiteLine3.jpg	MediumLong_e19_stereo_44KHz.wav
3	65	1	1	1	C	2	1	824	1	poli_8sides 6_whiteLine3.jpg	MediumLong_b10_cut2_L_stereo_44KHz.wav
3	66	2	1	0	C	1	1	883	1	poli_8sides 2_whiteLine3.jpg	MediumLong_b10_cut2_L_stereo_44KHz.wav
3	67	3	4	2	I	2	0	1126	1	poli_8sides 16_whiteLine3.jpg	MediumLong_e19_stereo_44KHz.wav
3	68	4	4	2	I	1	0	758	1	poli_8sides 18_whiteLine3.jpg	MediumLong_e19_stereo_44KHz.wav
3	69	2	2	1	C	2	1	742	1	poli_8sides 2_whiteLine3.jpg	Medium_e13_stereo_44KHz.wav
3	70	4	3	2	I	1	0	739	0	poli_8sides 18_whiteLine3.jpg	MediumLong_e17_cut2_stereo_44KHz.wav
3	71	3	3	2	I	1	0	637	1	poli_8sides 16_whiteLine3.jpg	MediumLong_e17_cut2_stereo_44KHz.wav
3	72	1	2	0	C	1	1	850	1	poli_8sides 6_whiteLine3.jpg	Medium_e13_stereo_44KHz.wav
3	73	2	2	1	C	2	1	633	1	poli_8sides 2_whiteLine3.jpg	Medium_e13_stereo_44KHz.wav
3	74	3	4	2	I	2	0	801	0	poli_8sides 16_whiteLine3.jpg	MediumLong_e19_stereo_44KHz.wav
3	75	1	2	0	C	1	1	720	1	poli_8sides 6_whiteLine3.jpg	Medium_e13_stereo_44KHz.wav
3	76	4	3	2	I	1	0	817	1	poli_8sides 18_whiteLine3.jpg	MediumLong_e17_cut2_stereo_44KHz.wav
3	77	1	1	1	C	2	1	658	1	poli_8sides 6_whiteLine3.jpg	MediumLong_b10_cut2_L_stereo_44KHz.wav
3	78	4	4	2	I	1	0	902	0	poli_8sides 18_whiteLine3.jpg	MediumLong_e19_stereo_44KHz.wav
3	79	3	3	2	I	1	0	689	1	poli_8sides 16_whiteLine3.jpg	MediumLong_e17_cut2_stereo_44KHz.wav
3	80	2	1	0	C	1	1	753	1	poli_8sides 2_whiteLine3.jpg	MediumLong_b10_cut2_L_stereo_44KHz.wav
3	81	1	2	0	C	1	1	731	1	poli_8sides 6_whiteLine3.jpg	Medium_e13_stereo_44KHz.wav
3	82	4	3	2	I	1	0	851	0	poli_8sides 18_whiteLine3.jpg	MediumLong_e17_cut2_stereo_44KHz.wav
3	83	3	3	2	I	1	0	565	0	poli_8sides 16_whiteLine3.jpg	MediumLong_e17_cut2_stereo_44KHz.wav
3	84	2	1	0	C	1	1	889	1	poli_8sides 2_whiteLine3.jpg	MediumLong_b10_cut2_L_stereo_44KHz.wav
3	85	3	4	2	I	1	0	955	1	poli_8sides 16_whiteLine3.jpg	MediumLong_e19_stereo_44KHz.wav
3	86	1	1	1	C	2	1	843	1	poli_8sides 6_whiteLine3.jpg	MediumLong_b10_cut2_L_stereo_44KHz.wav
3	87	2	2	1	C	2	1	786	1	poli_8sides 2_whiteLine3.jpg	Medium_e13_stereo_44KHz.wav
3	88	4	4	2	I	1	0	790	0	poli_8sides 18_whiteLine3.jpg	MediumLong_e19_stereo_44KHz.wav
3	89	3	3	2	I	1	0	632	1	poli_8sides 16_whiteLine3.jpg	MediumLong_e17_cut2_stereo_44KHz.wav
3	90	4	4	2	I	2	0	729	0	poli_8sides 18_whiteLine3.jpg	MediumLong_e19_stereo_44KHz.wav
3	91	1	2	0	C	1	1	866	1	poli_8sides 6_whiteLine3.jpg	Medium_e13_stereo_44KHz.wav
3	92	2	1	0	C	1	1	477	1	poli_8sides 2_whiteLine3.jpg	MediumLong_b10_cut2_L_stereo_44KHz.wav
3	93	3	4	2	I	1	0	797	0	poli_8sides 16_whiteLine3.jpg	MediumLong_e19_stereo_44KHz.wav
3	94	2	2	1	C	2	1	739	1	poli_8sides 2_whiteLine3.jpg	Medium_e13_stereo_44KHz.wav
3	95	1	1	1	C	2	1	718	1	poli_8sides 6_whiteLine3.jpg	MediumLong_b10_cut2_L_stereo_44KHz.wav
3	96	4	3	2	I	1	0	1036	0	poli_8sides 18_whiteLine3.jpg	MediumLong_e17_cut2_stereo_44KHz.wav
3	97	2	1	0	C	1	1	730	1	poli_8sides 2_whiteLine3.jpg	MediumLong_b10_cut2_L_stereo_44KHz.wav
3	98	4	3	2	I	1	0	655	1	poli_8sides 18_whiteLine3.jpg	MediumLong_e17_cut2_stereo_44KHz.wav
3	99	3	4	2	I	2	0	869	1	poli_8sides 16_whiteLine3.jpg	MediumLong_e19_stereo_44KHz.wav
3	100	1	2	0	C	1	1	938	1	poli_8sides 6_whiteLine3.jpg	Medium_e13_stereo_44KHz.wav
3	101	2	2	1	C	2	1	530	1	poli_8sides 2_whiteLine3.jpg	Medium_e13_stereo_44KHz.wav
3	102	3	3	2	I	1	0	862	1	poli_8sides 16_whiteLine3.jpg	MediumLong_e17_cut2_stereo_44KHz.wav
3	103	1	1	1	C	2	1	726	1	poli_8sides 6_whiteLine3.jpg	MediumLong_b10_cut2_L_stereo_44KHz.wav
3	104	4	4	2	I	1	0	817	1	poli_8sides 18_whiteLine3.jpg	MediumLong_e19_stereo_44KHz.wav
3	105	2	1	0	C	1	1	691	1	poli_8sides 2_whiteLine3.jpg	MediumLong_b10_cut2_L_stereo_44KHz.wav
3	106	1	1	1	C	2	1	703	1	poli_8sides 6_whiteLine3.jpg	MediumLong_b10_cut2_L_stereo_44KHz.wav
3	107	3	4	2	I	1	0	737	0	poli_8sides 16_whiteLine3.jpg	MediumLong_e19_stereo_44KHz.wav
3	108	4	3	2	I	1	0	622	0	poli_8sides 18_whiteLine3.jpg	MediumLong_e17_cut2_stereo_44KHz.wav
3	109	3	3	2	I	1	0	563	0	poli_8sides 16_whiteLine3.jpg	MediumLong_e17_cut2_stereo_44KHz.wav
3	110	2	2	1	C	2	1	855	1	poli_8sides 2_whiteLine3.jpg	Medium_e13_stereo_44KHz.wav
3	111	4	4	2	I	1	0	708	0	poli_8sides 18_whiteLine3.jpg	MediumLong_e19_stereo_44KHz.wav
3	112	1	2	0	C	1	1	596	1	poli_8sides 6_whiteLine3.jpg	Medium_e13_stereo_44KHz.wav
3	113	2	2	1	C	2	1	540	1	poli_8sides 2_whiteLine3.jpg	Medium_e13_stereo_44KHz.wav
3	114	4	3	2	I	2	0	843	0	poli_8sides 18_whiteLine3.jpg	MediumLong_e17_cut2_stereo_44KHz.wav
3	115	1	2	0	C	1	1	806	1	poli_8sides 6_whiteLine3.jpg	Medium_e13_stereo_44KHz.wav
3	116	3	3	2	I	1	0	647	0	poli_8sides 16_whiteLine3.jpg	MediumLong_e17_cut2_stereo_44KHz.wav
3	117	2	1	0	C	1	1	866	1	poli_8sides 2_whiteLine3.jpg	MediumLong_b10_cut2_L_stereo_44KHz.wav
3	118	4	4	2	I	1	0	734	0	poli_8sides 18_whiteLine3.jpg	MediumLong_e19_stereo_44KHz.wav
3	119	1	1	1	C	2	1	898	1	poli_8sides 6_whiteLine3.jpg	MediumLong_b10_cut2_L_stereo_44KHz.wav
3	120	3	4	2	I	2	0	998	0	poli_8sides 16_whiteLine3.jpg	MediumLong_e19_stereo_44KHz.wav
3	121	4	3	2	I	2	0	881	0	poli_8sides 18_whiteLine3.jpg	MediumLong_e17_cut2_stereo_44KHz.wav
3	122	3	3	2	I	1	0	553	1	poli_8sides 16_whiteLine3.jpg	MediumLong_e17_cut2_stereo_44KHz.wav
3	123	1	1	1	C	2	1	670	1	poli_8sides 6_whiteLine3.jpg	MediumLong_b10_cut2_L_stereo_44KHz.wav
3	124	2	1	0	C	1	1	683	1	poli_8sides 2_whiteLine3.jpg	MediumLong_b10_cut2_L_stereo_44KHz.wav
3	125	1	2	0	C	1	1	875	1	poli_8sides 6_whiteLine3.jpg	Medium_e13_stereo_44KHz.wav
3	126	3	4	2	I	1	0	710	1	poli_8sides 16_whiteLine3.jpg	MediumLong_e19_stereo_44KHz.wav
3	127	4	4	2	I	1	0	1005	1	poli_8sides 18_whiteLine3.jpg	MediumLong_e19_stereo_44KHz.wav
3	128	2	2	1	C	2	1	1010	1	poli_8sides 2_whiteLine3.jpg	Medium_e13_stereo_44KHz.wav
3	129	3	3	2	I	1	0	795	0	poli_8sides 16_whiteLine3.jpg	MediumLong_e17_cut2_stereo_44KHz.wav
3	130	2	2	1	C	2	1	843	1	poli_8sides 2_whiteLine3.jpg	Medium_e13_stereo_44KHz.wav
3	131	4	4	2	I	1	0	785	1	poli_8sides 18_whiteLine3.jpg	MediumLong_e19_stereo_44KHz.wav
3	132	1	2	0	C	1	1	633	1	poli_8sides 6_whiteLine3.jpg	Medium_e13_stereo_44KHz.wav
3	133	3	4	2	I	2	0	882	0	poli_8sides 16_whiteLine3.jpg	MediumLong_e19_stereo_44KHz.wav
3	134	4	3	2	I	2	0	899	0	poli_8sides 18_whiteLine3.jpg	MediumLong_e17_cut2_stereo_44KHz.wav
3	135	1	1	1	C	2	1	813	1	poli_8sides 6_whiteLine3.jpg	MediumLong_b10_cut2_L_stereo_44KHz.wav
3	136	2	1	0	C	1	1	615	1	poli_8sides 2_whiteLine3.jpg	MediumLong_b10_cut2_L_stereo_44KHz.wav
3	137	1	1	1	C	2	1	678	1	poli_8sides 6_whiteLine3.jpg	MediumLong_b10_cut2_L_stereo_44KHz.wav
3	138	2	1	0	C	1	1	730	1	poli_8sides 2_whiteLine3.jpg	MediumLong_b10_cut2_L_stereo_44KHz.wav
3	139	3	4	2	I	1	0	726	1	poli_8sides 16_whiteLine3.jpg	MediumLong_e19_stereo_44KHz.wav
3	140	4	3	2	I	1	0	686	0	poli_8sides 18_whiteLine3.jpg	MediumLong_e17_cut2_stereo_44KHz.wav
3	141	3	3	2	I	1	0	587	1	poli_8sides 16_whiteLine3.jpg	MediumLong_e17_cut2_stereo_44KHz.wav
3	142	4	4	2	I	1	0	727	0	poli_8sides 18_whiteLine3.jpg	MediumLong_e19_stereo_44KHz.wav
3	143	2	2	1	C	2	1	742	1	poli_8sides 2_whiteLine3.jpg	Medium_e13_stereo_44KHz.wav
3	144	1	2	0	C	1	1	543	1	poli_8sides 6_whiteLine3.jpg	Medium_e13_stereo_44KHz.wav
3	145	2	2	1	C	2	1	681	1	poli_8sides 2_whiteLine3.jpg	Medium_e13_stereo_44KHz.wav
3	146	1	2	0	C	1	1	708	1	poli_8sides 6_whiteLine3.jpg	Medium_e13_stereo_44KHz.wav
3	147	4	3	2	I	1	0	1038	1	poli_8sides 18_whiteLine3.jpg	MediumLong_e17_cut2_stereo_44KHz.wav
3	148	3	4	2	I	2	0	1275	0	poli_8sides 16_whiteLine3.jpg	MediumLong_e19_stereo_44KHz.wav
3	149	4	4	2	I	1	0	1210	0	poli_8sides 18_whiteLine3.jpg	MediumLong_e19_stereo_44KHz.wav
3	150	1	1	1	C	2	1	733	1	poli_8sides 6_whiteLine3.jpg	MediumLong_b10_cut2_L_stereo_44KHz.wav
3	151	3	3	2	I	2	0	790	0	poli_8sides 16_whiteLine3.jpg	MediumLong_e17_cut2_stereo_44KHz.wav
3	152	2	1	0	C	2	0	821	0	poli_8sides 2_whiteLine3.jpg	MediumLong_b10_cut2_L_stereo_44KHz.wav
3	153	3	3	2	I	1	0	730	0	poli_8sides 16_whiteLine3.jpg	MediumLong_e17_cut2_stereo_44KHz.wav
3	154	4	4	2	I	1	0	793	1	poli_8sides 18_whiteLine3.jpg	MediumLong_e19_stereo_44KHz.wav
3	155	2	1	0	C	1	1	626	1	poli_8sides 2_whiteLine3.jpg	MediumLong_b10_cut2_L_stereo_44KHz.wav
3	156	1	2	0	C	1	1	524	1	poli_8sides 6_whiteLine3.jpg	Medium_e13_stereo_44KHz.wav
3	157	4	3	2	I	2	0	914	1	poli_8sides 18_whiteLine3.jpg	MediumLong_e17_cut2_stereo_44KHz.wav
3	158	3	4	2	I	1	0	700	0	poli_8sides 16_whiteLine3.jpg	MediumLong_e19_stereo_44KHz.wav
3	159	2	2	1	C	2	1	838	1	poli_8sides 2_whiteLine3.jpg	Medium_e13_stereo_44KHz.wav
3	160	1	1	1	C	2	1	895	1	poli_8sides 6_whiteLine3.jpg	MediumLong_b10_cut2_L_stereo_44KHz.wav
3	161	4	3	2	I	1	0	883	1	poli_8sides 18_whiteLine3.jpg	MediumLong_e17_cut2_stereo_44KHz.wav
3	162	3	4	2	I	2	0	1102	1	poli_8sides 16_whiteLine3.jpg	MediumLong_e19_stereo_44KHz.wav
3	163	2	2	1	C	2	1	824	1	poli_8sides 2_whiteLine3.jpg	Medium_e13_stereo_44KHz.wav
3	164	1	1	1	C	2	1	834	1	poli_8sides 6_whiteLine3.jpg	MediumLong_b10_cut2_L_stereo_44KHz.wav
3	165	4	4	2	I	1	0	961	1	poli_8sides 18_whiteLine3.jpg	MediumLong_e19_stereo_44KHz.wav
3	166	1	2	0	C	1	1	654	1	poli_8sides 6_whiteLine3.jpg	Medium_e13_stereo_44KHz.wav
3	167	3	3	2	I	1	0	819	0	poli_8sides 16_whiteLine3.jpg	MediumLong_e17_cut2_stereo_44KHz.wav
3	168	2	1	0	C	1	1	905	1	poli_8sides 2_whiteLine3.jpg	MediumLong_b10_cut2_L_stereo_44KHz.wav
3	169	3	4	2	I	2	0	917	0	poli_8sides 16_whiteLine3.jpg	MediumLong_e19_stereo_44KHz.wav
3	170	2	2	1	C	2	1	787	1	poli_8sides 2_whiteLine3.jpg	Medium_e13_stereo_44KHz.wav
3	171	4	3	2	I	2	0	1018	1	poli_8sides 18_whiteLine3.jpg	MediumLong_e17_cut2_stereo_44KHz.wav
3	172	1	1	1	C	2	1	972	1	poli_8sides 6_whiteLine3.jpg	MediumLong_b10_cut2_L_stereo_44KHz.wav
3	173	2	1	0	C	1	1	701	1	poli_8sides 2_whiteLine3.jpg	MediumLong_b10_cut2_L_stereo_44KHz.wav
3	174	1	2	0	C	1	1	1119	1	poli_8sides 6_whiteLine3.jpg	Medium_e13_stereo_44KHz.wav
3	175	3	3	2	I	1	0	860	1	poli_8sides 16_whiteLine3.jpg	MediumLong_e17_cut2_stereo_44KHz.wav
3	176	4	4	2	I	1	0	978	0	poli_8sides 18_whiteLine3.jpg	MediumLong_e19_stereo_44KHz.wav
3	177	3	4	2	I	1	0	637	1	poli_8sides 16_whiteLine3.jpg	MediumLong_e19_stereo_44KHz.wav
3	178	4	3	2	I	2	0	977	0	poli_8sides 18_whiteLine3.jpg	MediumLong_e17_cut2_stereo_44KHz.wav
3	179	2	1	0	C	1	1	787	1	poli_8sides 2_whiteLine3.jpg	MediumLong_b10_cut2_L_stereo_44KHz.wav
3	180	1	1	1	C	2	1	966	1	poli_8sides 6_whiteLine3.jpg	MediumLong_b10_cut2_L_stereo_44KHz.wav
3	181	4	4	2	I	1	0	726	1	poli_8sides 18_whiteLine3.jpg	MediumLong_e19_stereo_44KHz.wav
3	182	1	2	0	C	1	1	975	1	poli_8sides 6_whiteLine3.jpg	Medium_e13_stereo_44KHz.wav
3	183	3	3	2	I	1	0	760	1	poli_8sides 16_whiteLine3.jpg	MediumLong_e17_cut2_stereo_44KHz.wav
3	184	2	2	1	C	2	1	797	1	poli_8sides 2_whiteLine3.jpg	Medium_e13_stereo_44KHz.wav
3	185	1	1	1	C	2	1	843	1	poli_8sides 6_whiteLine3.jpg	MediumLong_b10_cut2_L_stereo_44KHz.wav
3	186	4	3	2	I	2	0	1080	1	poli_8sides 18_whiteLine3.jpg	MediumLong_e17_cut2_stereo_44KHz.wav
3	187	2	2	1	C	2	1	817	1	poli_8sides 2_whiteLine3.jpg	Medium_e13_stereo_44KHz.wav
3	188	3	3	2	I	1	0	869	0	poli_8sides 16_whiteLine3.jpg	MediumLong_e17_cut2_stereo_44KHz.wav
3	189	4	4	2	I	1	0	867	1	poli_8sides 18_whiteLine3.jpg	MediumLong_e19_stereo_44KHz.wav
3	190	3	4	2	I	1	0	983	1	poli_8sides 16_whiteLine3.jpg	MediumLong_e19_stereo_44KHz.wav
3	191	2	1	0	C	1	1	668	1	poli_8sides 2_whiteLine3.jpg	MediumLong_b10_cut2_L_stereo_44KHz.wav
3	192	1	2	0	C	1	1	826	1	poli_8sides 6_whiteLine3.jpg	Medium_e13_stereo_44KHz.wav
3	193	3	4	2	I	1	0	761	0	poli_8sides 16_whiteLine3.jpg	MediumLong_e19_stereo_44KHz.wav
3	194	2	1	0	C	1	1	753	1	poli_8sides 2_whiteLine3.jpg	MediumLong_b10_cut2_L_stereo_44KHz.wav
3	195	4	3	2	I	1	0	709	0	poli_8sides 18_whiteLine3.jpg	MediumLong_e17_cut2_stereo_44KHz.wav
3	196	1	1	1	C	2	1	812	1	poli_8sides 6_whiteLine3.jpg	MediumLong_b10_cut2_L_stereo_44KHz.wav
3	197	2	2	1	C	2	1	807	1	poli_8sides 2_whiteLine3.jpg	Medium_e13_stereo_44KHz.wav
3	198	1	2	0	C	1	1	817	1	poli_8sides 6_whiteLine3.jpg	Medium_e13_stereo_44KHz.wav
3	199	3	3	2	I	1	0	889	1	poli_8sides 16_whiteLine3.jpg	MediumLong_e17_cut2_stereo_44KHz.wav
3	200	4	4	2	I	1	0	800	1	poli_8sides 18_whiteLine3.jpg	MediumLong_e19_stereo_44KHz.wav
4	1	1	1	1	C	0	0	0	0	poli_8sides 3_whiteLine3.jpg	Medium_e21_stereo_44KHz.wav
4	2	2	1	0	C	1	1	588	1	poli_8sides 15_whiteLine3.jpg	Medium_e21_stereo_44KHz.wav
4	3	3	3	2	I	2	0	760	0	poli_8sides 11_whiteLine3.jpg	Medium_e01_cut1_stereo_44KHz.wav
4	4	4	3	2	I	2	0	708	1	poli_8sides 13_whiteLine3.jpg	Medium_e01_cut1_stereo_44KHz.wav
4	5	2	2	1	C	1	0	929	0	poli_8sides 15_whiteLine3.jpg	MediumLong_e04_stereo_44KHz.wav
4	6	3	4	2	I	2	0	767	1	poli_8sides 11_whiteLine3.jpg	Medium_e26_stereo_44KHz.wav
4	7	4	4	2	I	1	0	869	1	poli_8sides 13_whiteLine3.jpg	Medium_e26_stereo_44KHz.wav
4	8	1	2	0	C	2	0	907	0	poli_8sides 3_whiteLine3.jpg	MediumLong_e04_stereo_44KHz.wav
4	9	2	1	0	C	2	0	891	0	poli_8sides 15_whiteLine3.jpg	Medium_e21_stereo_44KHz.wav
4	10	4	4	2	I	1	0	784	1	poli_8sides 13_whiteLine3.jpg	Medium_e26_stereo_44KHz.wav
4	11	3	3	2	I	1	0	772	1	poli_8sides 11_whiteLine3.jpg	Medium_e01_cut1_stereo_44KHz.wav
4	12	1	1	1	C	2	1	854	1	poli_8sides 3_whiteLine3.jpg	Medium_e21_stereo_44KHz.wav
4	13	2	2	1	C	2	1	886	1	poli_8sides 15_whiteLine3.jpg	MediumLong_e04_stereo_44KHz.wav
4	14	3	4	2	I	2	0	1161	0	poli_8sides 11_whiteLine3.jpg	Medium_e26_stereo_44KHz.wav
4	15	4	3	2	I	2	0	990	0	poli_8sides 13_whiteLine3.jpg	Medium_e01_cut1_stereo_44KHz.wav
4	16	1	2	0	C	1	1	1069	1	poli_8sides 3_whiteLine3.jpg	MediumLong_e04_stereo_44KHz.wav
4	17	3	3	2	I	1	0	888	1	poli_8sides 11_whiteLine3.jpg	Medium_e01_cut1_stereo_44KHz.wav
4	18	2	2	1	C	2	1	1013	1	poli_8sides 15_whiteLine3.jpg	MediumLong_e04_stereo_44KHz.wav
4	19	4	4	2	I	1	0	493	1	poli_8sides 13_whiteLine3.jpg	Medium_e26_stereo_44KHz.wav
4	20	1	2	0	C	1	1	766	1	poli_8sides 3_whiteLine3.jpg	MediumLong_e04_stereo_44KHz.wav
4	21	3	4	2	I	1	0	703	1	poli_8sides 11_whiteLine3.jpg	Medium_e26_stereo_44KHz.wav
4	22	2	1	0	C	1	1	828	1	poli_8sides 15_whiteLine3.jpg	Medium_e21_stereo_44KHz.wav
4	23	1	1	1	C	2	1	866	1	poli_8sides 3_whiteLine3.jpg	Medium_e21_stereo_44KHz.wav
4	24	4	3	2	I	1	0	684	1	poli_8sides 13_whiteLine3.jpg	Medium_e01_cut1_stereo_44KHz.wav
4	25	2	2	1	C	2	1	1029	1	poli_8sides 15_whiteLine3.jpg	MediumLong_e04_stereo_44KHz.wav
4	26	3	3	2	I	1	0	781	0	poli_8sides 11_whiteLine3.jpg	Medium_e01_cut1_stereo_44KHz.wav
4	27	4	4	2	I	1	0	718	0	poli_8sides 13_whiteLine3.jpg	Medium_e26_stereo_44KHz.wav
4	28	1	1	1	C	2	1	1010	1	poli_8sides 3_whiteLine3.jpg	Medium_e21_stereo_44KHz.wav
4	29	3	4	2	I	1	0	706	1	poli_8sides 11_whiteLine3.jpg	Medium_e26_stereo_44KHz.wav
4	30	2	1	0	C	1	1	798	1	poli_8sides 15_whiteLine3.jpg	Medium_e21_stereo_44KHz.wav
4	31	4	3	2	I	1	0	553	0	poli_8sides 13_whiteLine3.jpg	Medium_e01_cut1_stereo_44KHz.wav
4	32	1	2	0	C	1	1	785	1	poli_8sides 3_whiteLine3.jpg	MediumLong_e04_stereo_44KHz.wav
4	33	2	2	1	C	2	1	833	1	poli_8sides 15_whiteLine3.jpg	MediumLong_e04_stereo_44KHz.wav
4	34	3	4	2	I	2	0	884	1	poli_8sides 11_whiteLine3.jpg	Medium_e26_stereo_44KHz.wav
4	35	4	3	2	I	1	0	980	0	poli_8sides 13_whiteLine3.jpg	Medium_e01_cut1_stereo_44KHz.wav
4	36	1	1	1	C	2	1	775	1	poli_8sides 3_whiteLine3.jpg	Medium_e21_stereo_44KHz.wav
4	37	4	4	2	I	1	0	666	0	poli_8sides 13_whiteLine3.jpg	Medium_e26_stereo_44KHz.wav
4	38	3	3	2	I	2	0	1008	1	poli_8sides 11_whiteLine3.jpg	Medium_e01_cut1_stereo_44KHz.wav
4	39	2	1	0	C	1	1	703	1	poli_8sides 15_whiteLine3.jpg	Medium_e21_stereo_44KHz.wav
4	40	1	2	0	C	1	1	725	1	poli_8sides 3_whiteLine3.jpg	MediumLong_e04_stereo_44KHz.wav
4	41	4	4	2	I	1	0	690	0	poli_8sides 13_whiteLine3.jpg	Medium_e26_stereo_44KHz.wav
4	42	1	1	1	C	2	1	727	1	poli_8sides 3_whiteLine3.jpg	Medium_e21_stereo_44KHz.wav
4	43	2	2	1	C	2	1	787	1	poli_8sides 15_whiteLine3.jpg	MediumLong_e04_stereo_44KHz.wav
4	44	3	4	2	I	1	0	688	0	poli_8sides 11_whiteLine3.jpg	Medium_e26_stereo_44KHz.wav
4	45	4	3	2	I	1	0	867	0	poli_8sides 13_whiteLine3.jpg	Medium_e01_cut1_stereo_44KHz.wav
4	46	2	1	0	C	1	1	731	1	poli_8sides 15_whiteLine3.jpg	Medium_e21_stereo_44KHz.wav
4	47	3	3	2	I	1	0	762	0	poli_8sides 11_whiteLine3.jpg	Medium_e01_cut1_stereo_44KHz.wav
4	48	1	2	0	C	1	1	617	1	poli_8sides 3_whiteLine3.jpg	MediumLong_e04_stereo_44KHz.wav
4	49	2	1	0	C	1	1	532	1	poli_8sides 15_whiteLine3.jpg	Medium_e21_stereo_44KHz.wav
4	50	1	2	0	C	1	1	576	1	poli_8sides 3_whiteLine3.jpg	MediumLong_e04_stereo_44KHz.wav
4	51	3	3	2	I	1	0	711	0	poli_8sides 11_whiteLine3.jpg	Medium_e01_cut1_stereo_44KHz.wav
4	52	4	4	2	I	2	0	959	1	poli_8sides 13_whiteLine3.jpg	Medium_e26_stereo_44KHz.wav
4	53	1	1	1	C	2	1	766	1	poli_8sides 3_whiteLine3.jpg	Medium_e21_stereo_44KHz.wav
4	54	3	4	2	I	1	0	693	0	poli_8sides 11_whiteLine3.jpg	Medium_e26_stereo_44KHz.wav
4	55	2	2	1	C	2	1	757	1	poli_8sides 15_whiteLine3.jpg	MediumLong_e04_stereo_44KHz.wav
4	56	4	3	2	I	2	0	559	1	poli_8sides 13_whiteLine3.jpg	Medium_e01_cut1_stereo_44KHz.wav
4	57	2	1	0	C	1	1	889	1	poli_8sides 15_whiteLine3.jpg	Medium_e21_stereo_44KHz.wav
4	58	4	3	2	I	2	0	829	1	poli_8sides 13_whiteLine3.jpg	Medium_e01_cut1_stereo_44KHz.wav
4	59	3	3	2	I	2	0	502	0	poli_8sides 11_whiteLine3.jpg	Medium_e01_cut1_stereo_44KHz.wav
4	60	1	2	0	C	1	1	580	1	poli_8sides 3_whiteLine3.jpg	MediumLong_e04_stereo_44KHz.wav
4	61	2	2	1	C	2	1	708	1	poli_8sides 15_whiteLine3.jpg	MediumLong_e04_stereo_44KHz.wav
4	62	4	4	2	I	2	0	811	0	poli_8sides 13_whiteLine3.jpg	Medium_e26_stereo_44KHz.wav
4	63	1	1	1	C	2	1	756	1	poli_8sides 3_whiteLine3.jpg	Medium_e21_stereo_44KHz.wav
4	64	3	4	2	I	2	0	875	0	poli_8sides 11_whiteLine3.jpg	Medium_e26_stereo_44KHz.wav
4	65	2	1	0	C	1	1	595	1	poli_8sides 15_whiteLine3.jpg	Medium_e21_stereo_44KHz.wav
4	66	4	3	2	I	1	0	580	0	poli_8sides 13_whiteLine3.jpg	Medium_e01_cut1_stereo_44KHz.wav
4	67	3	3	2	I	1	0	427	0	poli_8sides 11_whiteLine3.jpg	Medium_e01_cut1_stereo_44KHz.wav
4	68	1	2	0	C	1	1	697	1	poli_8sides 3_whiteLine3.jpg	MediumLong_e04_stereo_44KHz.wav
4	69	4	4	2	I	2	0	492	1	poli_8sides 13_whiteLine3.jpg	Medium_e26_stereo_44KHz.wav
4	70	2	2	1	C	2	1	717	1	poli_8sides 15_whiteLine3.jpg	MediumLong_e04_stereo_44KHz.wav
4	71	3	4	2	I	2	0	658	0	poli_8sides 11_whiteLine3.jpg	Medium_e26_stereo_44KHz.wav
4	72	1	1	1	C	2	1	875	1	poli_8sides 3_whiteLine3.jpg	Medium_e21_stereo_44KHz.wav
4	73	3	4	2	I	1	0	899	1	poli_8sides 11_whiteLine3.jpg	Medium_e26_stereo_44KHz.wav
4	74	2	1	0	C	1	1	695	1	poli_8sides 15_whiteLine3.jpg	Medium_e21_stereo_44KHz.wav
4	75	4	4	2	I	2	0	935	0	poli_8sides 13_whiteLine3.jpg	Medium_e26_stereo_44KHz.wav
4	76	1	2	0	C	1	1	602	1	poli_8sides 3_whiteLine3.jpg	MediumLong_e04_stereo_44KHz.wav
4	77	4	3	2	I	2	0	431	0	poli_8sides 13_whiteLine3.jpg	Medium_e01_cut1_stereo_44KHz.wav
4	78	3	3	2	I	2	0	834	0	poli_8sides 11_whiteLine3.jpg	Medium_e01_cut1_stereo_44KHz.wav
4	79	1	1	1	C	2	1	1176	1	poli_8sides 3_whiteLine3.jpg	Medium_e21_stereo_44KHz.wav
4	80	2	2	1	C	2	1	721	1	poli_8sides 15_whiteLine3.jpg	MediumLong_e04_stereo_44KHz.wav
4	81	3	3	2	I	2	0	1000	0	poli_8sides 11_whiteLine3.jpg	Medium_e01_cut1_stereo_44KHz.wav
4	82	1	1	1	C	2	1	673	1	poli_8sides 3_whiteLine3.jpg	Medium_e21_stereo_44KHz.wav
4	83	4	4	2	I	1	0	825	1	poli_8sides 13_whiteLine3.jpg	Medium_e26_stereo_44KHz.wav
4	84	2	2	1	C	2	1	1120	1	poli_8sides 15_whiteLine3.jpg	MediumLong_e04_stereo_44KHz.wav
4	85	3	4	2	I	1	0	847	1	poli_8sides 11_whiteLine3.jpg	Medium_e26_stereo_44KHz.wav
4	86	1	2	0	C	1	1	681	1	poli_8sides 3_whiteLine3.jpg	MediumLong_e04_stereo_44KHz.wav
4	87	2	1	0	C	1	1	699	1	poli_8sides 15_whiteLine3.jpg	Medium_e21_stereo_44KHz.wav
4	88	4	3	2	I	2	0	547	1	poli_8sides 13_whiteLine3.jpg	Medium_e01_cut1_stereo_44KHz.wav
4	89	2	2	1	C	2	1	815	1	poli_8sides 15_whiteLine3.jpg	MediumLong_e04_stereo_44KHz.wav
4	90	3	3	2	I	2	0	769	1	poli_8sides 11_whiteLine3.jpg	Medium_e01_cut1_stereo_44KHz.wav
4	91	1	1	1	C	2	1	766	1	poli_8sides 3_whiteLine3.jpg	Medium_e21_stereo_44KHz.wav
4	92	4	3	2	I	2	0	815	0	poli_8sides 13_whiteLine3.jpg	Medium_e01_cut1_stereo_44KHz.wav
4	93	3	4	2	I	2	0	981	0	poli_8sides 11_whiteLine3.jpg	Medium_e26_stereo_44KHz.wav
4	94	1	2	0	C	2	0	779	0	poli_8sides 3_whiteLine3.jpg	MediumLong_e04_stereo_44KHz.wav
4	95	2	1	0	C	1	1	641	1	poli_8sides 15_whiteLine3.jpg	Medium_e21_stereo_44KHz.wav
4	96	4	4	2	I	1	0	680	1	poli_8sides 13_whiteLine3.jpg	Medium_e26_stereo_44KHz.wav
4	97	2	1	0	C	1	1	634	1	poli_8sides 15_whiteLine3.jpg	Medium_e21_stereo_44KHz.wav
4	98	1	2	0	C	1	1	659	1	poli_8sides 3_whiteLine3.jpg	MediumLong_e04_stereo_44KHz.wav
4	99	3	3	2	I	1	0	1063	1	poli_8sides 11_whiteLine3.jpg	Medium_e01_cut1_stereo_44KHz.wav
4	100	4	4	2	I	1	0	749	1	poli_8sides 13_whiteLine3.jpg	Medium_e26_stereo_44KHz.wav
4	101	1	1	1	C	2	1	596	1	poli_8sides 3_whiteLine3.jpg	Medium_e21_stereo_44KHz.wav
4	102	2	2	1	C	2	1	1014	1	poli_8sides 15_whiteLine3.jpg	MediumLong_e04_stereo_44KHz.wav
4	103	3	4	2	I	1	0	796	0	poli_8sides 11_whiteLine3.jpg	Medium_e26_stereo_44KHz.wav
4	104	4	3	2	I	1	0	1067	0	poli_8sides 13_whiteLine3.jpg	Medium_e01_cut1_stereo_44KHz.wav
4	105	2	2	1	C	2	1	1011	1	poli_8sides 15_whiteLine3.jpg	MediumLong_e04_stereo_44KHz.wav
4	106	4	3	2	I	2	0	562	1	poli_8sides 13_whiteLine3.jpg	Medium_e01_cut1_stereo_44KHz.wav
4	107	1	1	1	C	2	1	948	1	poli_8sides 3_whiteLine3.jpg	Medium_e21_stereo_44KHz.wav
4	108	3	4	2	I	2	0	766	1	poli_8sides 11_whiteLine3.jpg	Medium_e26_stereo_44KHz.wav
4	109	1	2	0	C	1	1	655	1	poli_8sides 3_whiteLine3.jpg	MediumLong_e04_stereo_44KHz.wav
4	110	2	1	0	C	1	1	880	1	poli_8sides 15_whiteLine3.jpg	Medium_e21_stereo_44KHz.wav
4	111	4	4	2	I	1	0	801	0	poli_8sides 13_whiteLine3.jpg	Medium_e26_stereo_44KHz.wav
4	112	3	3	2	I	2	0	794	0	poli_8sides 11_whiteLine3.jpg	Medium_e01_cut1_stereo_44KHz.wav
4	113	1	1	1	C	2	1	753	1	poli_8sides 3_whiteLine3.jpg	Medium_e21_stereo_44KHz.wav
4	114	3	3	2	I	1	0	728	0	poli_8sides 11_whiteLine3.jpg	Medium_e01_cut1_stereo_44KHz.wav
4	115	4	3	2	I	1	0	655	1	poli_8sides 13_whiteLine3.jpg	Medium_e01_cut1_stereo_44KHz.wav
4	116	2	2	1	C	2	1	730	1	poli_8sides 15_whiteLine3.jpg	MediumLong_e04_stereo_44KHz.wav
4	117	4	4	2	I	1	0	904	0	poli_8sides 13_whiteLine3.jpg	Medium_e26_stereo_44KHz.wav
4	118	3	4	2	I	1	0	747	1	poli_8sides 11_whiteLine3.jpg	Medium_e26_stereo_44KHz.wav
4	119	1	2	0	C	1	1	675	1	poli_8sides 3_whiteLine3.jpg	MediumLong_e04_stereo_44KHz.wav
4	120	2	1	0	C	1	1	731	1	poli_8sides 15_whiteLine3.jpg	Medium_e21_stereo_44KHz.wav
4	121	3	4	2	I	1	0	716	0	poli_8sides 11_whiteLine3.jpg	Medium_e26_stereo_44KHz.wav
4	122	2	1	0	C	1	1	705	1	poli_8sides 15_whiteLine3.jpg	Medium_e21_stereo_44KHz.wav
4	123	1	1	1	C	1	0	689	0	poli_8sides 3_whiteLine3.jpg	Medium_e21_stereo_44KHz.wav
4	124	4	4	2	I	2	0	768	0	poli_8sides 13_whiteLine3.jpg	Medium_e26_stereo_44KHz.wav
4	125	2	2	1	C	2	1	819	1	poli_8sides 15_whiteLine3.jpg	MediumLong_e04_stereo_44KHz.wav
4	126	4	3	2	I	2	0	795	0	poli_8sides 13_whiteLine3.jpg	Medium_e01_cut1_stereo_44KHz.wav
4	127	1	2	0	C	1	1	660	1	poli_8sides 3_whiteLine3.jpg	MediumLong_e04_stereo_44KHz.wav
4	128	3	3	2	I	1	0	669	0	poli_8sides 11_whiteLine3.jpg	Medium_e01_cut1_stereo_44KHz.wav
4	129	2	2	1	C	2	1	586	1	poli_8sides 15_whiteLine3.jpg	MediumLong_e04_stereo_44KHz.wav
4	130	3	3	2	I	1	0	632	1	poli_8sides 11_whiteLine3.jpg	Medium_e01_cut1_stereo_44KHz.wav
4	131	1	2	0	C	2	0	629	0	poli_8sides 3_whiteLine3.jpg	MediumLong_e04_stereo_44KHz.wav
4	132	4	4	2	I	1	0	824	1	poli_8sides 13_whiteLine3.jpg	Medium_e26_stereo_44KHz.wav
4	133	2	1	0	C	1	1	591	1	poli_8sides 15_whiteLine3.jpg	Medium_e21_stereo_44KHz.wav
4	134	3	4	2	I	1	0	1096	1	poli_8sides 11_whiteLine3.jpg	Medium_e26_stereo_44KHz.wav
4	135	4	3	2	I	1	0	1042	0	poli_8sides 13_whiteLine3.jpg	Medium_e01_cut1_stereo_44KHz.wav
4	136	1	1	1	C	2	1	767	1	poli_8sides 3_whiteLine3.jpg	Medium_e21_stereo_44KHz.wav
4	137	3	3	2	I	2	0	1378	0	poli_8sides 11_whiteLine3.jpg	Medium_e01_cut1_stereo_44KHz.wav
4	138	2	1	0	C	1	1	765	1	poli_8sides 15_whiteLine3.jpg	Medium_e21_stereo_44KHz.wav
4	139	1	2	0	C	1	1	525	1	poli_8sides 3_whiteLine3.jpg	MediumLong_e04_stereo_44KHz.wav
4	140	4	3	2	I	1	0	1209	1	poli_8sides 13_whiteLine3.jpg	Medium_e01_cut1_stereo_44KHz.wav
4	141	1	1	1	C	2	1	762	1	poli_8sides 3_whiteLine3.jpg	Medium_e21_stereo_44KHz.wav
4	142	3	4	2	I	2	0	1299	1	poli_8sides 11_whiteLine3.jpg	Medium_e26_stereo_44KHz.wav
4	143	2	2	1	C	2	1	691	1	poli_8sides 15_whiteLine3.jpg	MediumLong_e04_stereo_44KHz.wav
4	144	4	4	2	I	1	0	1000	0	poli_8sides 13_whiteLine3.jpg	Medium_e26_stereo_44KHz.wav
4	145	2	2	1	C	2	1	638	1	poli_8sides 15_whiteLine3.jpg	MediumLong_e04_stereo_44KHz.wav
4	146	3	3	2	I	1	0	995	0	poli_8sides 11_whiteLine3.jpg	Medium_e01_cut1_stereo_44KHz.wav
4	147	1	1	1	C	2	1	882	1	poli_8sides 3_whiteLine3.jpg	Medium_e21_stereo_44KHz.wav
4	148	4	3	2	I	2	0	906	0	poli_8sides 13_whiteLine3.jpg	Medium_e01_cut1_stereo_44KHz.wav
4	149	2	1	0	C	1	1	727	1	poli_8sides 15_whiteLine3.jpg	Medium_e21_stereo_44KHz.wav
4	150	4	4	2	I	1	0	1101	1	poli_8sides 13_whiteLine3.jpg	Medium_e26_stereo_44KHz.wav
4	151	3	4	2	I	1	0	720	1	poli_8sides 11_whiteLine3.jpg	Medium_e26_stereo_44KHz.wav
4	152	1	2	0	C	2	0	574	0	poli_8sides 3_whiteLine3.jpg	MediumLong_e04_stereo_44KHz.wav
4	153	2	2	1	C	2	1	671	1	poli_8sides 15_whiteLine3.jpg	MediumLong_e04_stereo_44KHz.wav
4	154	4	3	2	I	1	0	1220	1	poli_8sides 13_whiteLine3.jpg	Medium_e01_cut1_stereo_44KHz.wav
4	155	1	1	1	C	2	1	719	1	poli_8sides 3_whiteLine3.jpg	Medium_e21_stereo_44KHz.wav
4	156	3	3	2	I	1	0	863	0	poli_8sides 11_whiteLine3.jpg	Medium_e01_cut1_stereo_44KHz.wav
4	157	4	4	2	I	1	0	868	1	poli_8sides 13_whiteLine3.jpg	Medium_e26_stereo_44KHz.wav
4	158	3	4	2	I	1	0	813	1	poli_8sides 11_whiteLine3.jpg	Medium_e26_stereo_44KHz.wav
4	159	1	2	0	C	1	1	705	1	poli_8sides 3_whiteLine3.jpg	MediumLong_e04_stereo_44KHz.wav
4	160	2	1	0	C	1	1	820	1	poli_8sides 15_whiteLine3.jpg	Medium_e21_stereo_44KHz.wav
4	161	4	3	2	I	2	0	561	0	poli_8sides 13_whiteLine3.jpg	Medium_e01_cut1_stereo_44KHz.wav
4	162	3	4	2	I	2	0	771	1	poli_8sides 11_whiteLine3.jpg	Medium_e26_stereo_44KHz.wav
4	163	2	2	1	C	2	1	1205	1	poli_8sides 15_whiteLine3.jpg	MediumLong_e04_stereo_44KHz.wav
4	164	1	1	1	C	2	1	704	1	poli_8sides 3_whiteLine3.jpg	Medium_e21_stereo_44KHz.wav
4	165	4	4	2	I	1	0	753	0	poli_8sides 13_whiteLine3.jpg	Medium_e26_stereo_44KHz.wav
4	166	1	2	0	C	1	1	721	1	poli_8sides 3_whiteLine3.jpg	MediumLong_e04_stereo_44KHz.wav
4	167	2	1	0	C	1	1	682	1	poli_8sides 15_whiteLine3.jpg	Medium_e21_stereo_44KHz.wav
4	168	3	3	2	I	1	0	1077	0	poli_8sides 11_whiteLine3.jpg	Medium_e01_cut1_stereo_44KHz.wav
4	169	2	2	1	C	2	1	678	1	poli_8sides 15_whiteLine3.jpg	MediumLong_e04_stereo_44KHz.wav
4	170	4	4	2	I	1	0	1109	0	poli_8sides 13_whiteLine3.jpg	Medium_e26_stereo_44KHz.wav
4	171	1	2	0	C	1	1	855	1	poli_8sides 3_whiteLine3.jpg	MediumLong_e04_stereo_44KHz.wav
4	172	3	3	2	I	2	0	597	1	poli_8sides 11_whiteLine3.jpg	Medium_e01_cut1_stereo_44KHz.wav
4	173	1	1	1	C	2	1	755	1	poli_8sides 3_whiteLine3.jpg	Medium_e21_stereo_44KHz.wav
4	174	3	4	2	I	2	0	775	0	poli_8sides 11_whiteLine3.jpg	Medium_e26_stereo_44KHz.wav
4	175	4	3	2	I	2	0	795	1	poli_8sides 13_whiteLine3.jpg	Medium_e01_cut1_stereo_44KHz.wav
4	176	2	1	0	C	1	1	756	1	poli_8sides 15_whiteLine3.jpg	Medium_e21_stereo_44KHz.wav
4	177	4	3	2	I	2	0	915	1	poli_8sides 13_whiteLine3.jpg	Medium_e01_cut1_stereo_44KHz.wav
4	178	3	3	2	I	1	0	845	1	poli_8sides 11_whiteLine3.jpg	Medium_e01_cut1_stereo_44KHz.wav
4	179	2	1	0	C	1	1	610	1	poli_8sides 15_whiteLine3.jpg	Medium_e21_stereo_44KHz.wav
4	180	1	1	1	C	2	1	636	1	poli_8sides 3_whiteLine3.jpg	Medium_e21_stereo_44KHz.wav
4	181	2	2	1	C	2	1	641	1	poli_8sides 15_whiteLine3.jpg	MediumLong_e04_stereo_44KHz.wav
4	182	4	4	2	I	1	0	720	1	poli_8sides 13_whiteLine3.jpg	Medium_e26_stereo_44KHz.wav
4	183	1	2	0	C	1	1	619	1	poli_8sides 3_whiteLine3.jpg	MediumLong_e04_stereo_44KHz.wav
4	184	3	4	2	I	1	0	965	0	poli_8sides 11_whiteLine3.jpg	Medium_e26_stereo_44KHz.wav
4	185	2	2	1	C	2	1	653	1	poli_8sides 15_whiteLine3.jpg	MediumLong_e04_stereo_44KHz.wav
4	186	1	2	0	C	1	1	585	1	poli_8sides 3_whiteLine3.jpg	MediumLong_e04_stereo_44KHz.wav
4	187	3	3	2	I	1	0	973	1	poli_8sides 11_whiteLine3.jpg	Medium_e01_cut1_stereo_44KHz.wav
4	188	4	3	2	I	1	0	776	0	poli_8sides 13_whiteLine3.jpg	Medium_e01_cut1_stereo_44KHz.wav
4	189	2	1	0	C	1	1	564	1	poli_8sides 15_whiteLine3.jpg	Medium_e21_stereo_44KHz.wav
4	190	3	4	2	I	2	0	990	1	poli_8sides 11_whiteLine3.jpg	Medium_e26_stereo_44KHz.wav
4	191	4	4	2	I	1	0	701	1	poli_8sides 13_whiteLine3.jpg	Medium_e26_stereo_44KHz.wav
4	192	1	1	1	C	2	1	730	1	poli_8sides 3_whiteLine3.jpg	Medium_e21_stereo_44KHz.wav
4	193	2	2	1	C	2	1	956	1	poli_8sides 15_whiteLine3.jpg	MediumLong_e04_stereo_44KHz.wav
4	194	4	4	2	I	1	0	1211	1	poli_8sides 13_whiteLine3.jpg	Medium_e26_stereo_44KHz.wav
4	195	1	1	1	C	2	1	688	1	poli_8sides 3_whiteLine3.jpg	Medium_e21_stereo_44KHz.wav
4	196	3	4	2	I	1	0	1090	1	poli_8sides 11_whiteLine3.jpg	Medium_e26_stereo_44KHz.wav
4	197	2	1	0	C	1	1	666	1	poli_8sides 15_whiteLine3.jpg	Medium_e21_stereo_44KHz.wav
4	198	4	3	2	I	2	0	496	0	poli_8sides 13_whiteLine3.jpg	Medium_e01_cut1_stereo_44KHz.wav
4	199	1	2	0	C	1	1	683	1	poli_8sides 3_whiteLine3.jpg	MediumLong_e04_stereo_44KHz.wav
4	200	3	3	2	I	1	0	673	1	poli_8sides 11_whiteLine3.jpg	Medium_e01_cut1_stereo_44KHz.wav
