block	trial	Vstim	Astim	match	C/I	resp	.result	RT	fb	V-file	A-file
LR

0	1	2	4	0	C	0	0	0	0	Ⴢ	cut_eeuw_stereo_44KHz.wav
0	2	2	3	1	C	2	1	1026	1	Ⴢ	cut_oo_stereo_44KHz.wav
0	3	1	1	1	C	1	0	1288	0	Ⴞ	cut_g_stereo_44KHz.wav
0	4	1	2	0	C	2	0	697	0	Ⴞ	cut_ee_stereo_44KHz.wav
0	5	1	2	0	C	1	1	915	1	Ⴞ	cut_ee_stereo_44KHz.wav
0	6	2	3	1	C	1	0	749	0	Ⴢ	cut_oo_stereo_44KHz.wav
0	7	1	1	1	C	1	0	666	0	Ⴞ	cut_g_stereo_44KHz.wav
0	8	2	4	0	C	1	1	837	1	Ⴢ	cut_eeuw_stereo_44KHz.wav
0	9	2	3	1	C	2	1	761	1	Ⴢ	cut_oo_stereo_44KHz.wav
0	10	1	2	0	C	2	0	652	0	Ⴞ	cut_ee_stereo_44KHz.wav
0	11	1	1	1	C	2	1	746	1	Ⴞ	cut_g_stereo_44KHz.wav
0	12	2	4	0	C	1	1	849	1	Ⴢ	cut_eeuw_stereo_44KHz.wav
0	13	2	4	0	C	1	1	748	1	Ⴢ	cut_eeuw_stereo_44KHz.wav
0	14	1	2	0	C	1	1	507	1	Ⴞ	cut_ee_stereo_44KHz.wav
0	15	1	1	1	C	2	1	636	1	Ⴞ	cut_g_stereo_44KHz.wav
0	16	2	3	1	C	1	0	1682	0	Ⴢ	cut_oo_stereo_44KHz.wav
0	17	1	1	1	C	2	1	867	1	Ⴞ	cut_g_stereo_44KHz.wav
0	18	2	3	1	C	1	0	669	0	Ⴢ	cut_oo_stereo_44KHz.wav
0	19	1	2	0	C	1	1	554	1	Ⴞ	cut_ee_stereo_44KHz.wav
0	20	2	4	0	C	1	1	672	1	Ⴢ	cut_eeuw_stereo_44KHz.wav
0	21	1	1	1	C	2	1	1205	1	Ⴞ	cut_g_stereo_44KHz.wav
0	22	1	2	0	C	1	1	606	1	Ⴞ	cut_ee_stereo_44KHz.wav
0	23	2	4	0	C	1	1	831	1	Ⴢ	cut_eeuw_stereo_44KHz.wav
0	24	2	3	1	C	2	1	1508	1	Ⴢ	cut_oo_stereo_44KHz.wav
0	25	2	3	1	C	1	0	1080	0	Ⴢ	cut_oo_stereo_44KHz.wav
0	26	2	4	0	C	1	1	1014	1	Ⴢ	cut_eeuw_stereo_44KHz.wav
0	27	1	1	1	C	2	1	1294	1	Ⴞ	cut_g_stereo_44KHz.wav
0	28	1	2	0	C	1	1	764	1	Ⴞ	cut_ee_stereo_44KHz.wav
0	29	2	3	1	C	2	1	588	1	Ⴢ	cut_oo_stereo_44KHz.wav
0	30	2	4	0	C	1	1	762	1	Ⴢ	cut_eeuw_stereo_44KHz.wav
avg_resp = 842
1	1	1	1	1	C	2	1	856	1	Ⴟ	cut_u_stereo_44KHz.wav
1	2	3	4	2	I	1	0	531	0	Ⴊ	cut_a_stereo_44KHz.wav
1	3	2	1	0	C	1	1	881	1	Ⴃ	cut_u_stereo_44KHz.wav
1	4	4	3	2	I	2	0	664	0	Ⴜ	cut_o_stereo_44KHz.wav
1	5	1	2	0	C	2	0	828	0	Ⴟ	cut_k_stereo_44KHz.wav
1	6	4	4	2	I	2	0	776	1	Ⴜ	cut_a_stereo_44KHz.wav
1	7	2	2	1	C	1	0	631	0	Ⴃ	cut_k_stereo_44KHz.wav
1	8	3	3	2	I	2	0	776	1	Ⴊ	cut_o_stereo_44KHz.wav
1	9	4	3	2	I	1	0	847	0	Ⴜ	cut_o_stereo_44KHz.wav
1	10	1	1	1	C	1	0	785	0	Ⴟ	cut_u_stereo_44KHz.wav
1	11	2	2	1	C	2	1	703	1	Ⴃ	cut_k_stereo_44KHz.wav
1	12	3	3	2	I	2	0	729	1	Ⴊ	cut_o_stereo_44KHz.wav
1	13	2	1	0	C	1	1	710	1	Ⴃ	cut_u_stereo_44KHz.wav
1	14	1	2	0	C	1	1	667	1	Ⴟ	cut_k_stereo_44KHz.wav
1	15	4	4	2	I	2	0	506	1	Ⴜ	cut_a_stereo_44KHz.wav
1	16	3	4	2	I	2	0	581	1	Ⴊ	cut_a_stereo_44KHz.wav
1	17	1	2	0	C	1	1	840	1	Ⴟ	cut_k_stereo_44KHz.wav
1	18	4	3	2	I	2	0	524	1	Ⴜ	cut_o_stereo_44KHz.wav
1	19	3	4	2	I	2	0	800	1	Ⴊ	cut_a_stereo_44KHz.wav
1	20	2	1	0	C	1	1	491	1	Ⴃ	cut_u_stereo_44KHz.wav
1	21	1	1	1	C	1	0	847	0	Ⴟ	cut_u_stereo_44KHz.wav
1	22	3	3	2	I	2	0	577	1	Ⴊ	cut_o_stereo_44KHz.wav
1	23	2	2	1	C	2	1	836	1	Ⴃ	cut_k_stereo_44KHz.wav
1	24	4	4	2	I	2	0	642	0	Ⴜ	cut_a_stereo_44KHz.wav
1	25	3	3	2	I	2	0	639	0	Ⴊ	cut_o_stereo_44KHz.wav
1	26	2	2	1	C	2	1	976	1	Ⴃ	cut_k_stereo_44KHz.wav
1	27	1	1	1	C	2	1	1168	1	Ⴟ	cut_u_stereo_44KHz.wav
1	28	4	3	2	I	1	0	950	1	Ⴜ	cut_o_stereo_44KHz.wav
1	29	3	4	2	I	2	0	692	0	Ⴊ	cut_a_stereo_44KHz.wav
1	30	1	2	0	C	1	1	598	1	Ⴟ	cut_k_stereo_44KHz.wav
1	31	2	1	0	C	1	1	927	1	Ⴃ	cut_u_stereo_44KHz.wav
1	32	4	4	2	I	1	0	672	0	Ⴜ	cut_a_stereo_44KHz.wav
1	33	2	2	1	C	2	1	734	1	Ⴃ	cut_k_stereo_44KHz.wav
1	34	3	3	2	I	2	0	1000	0	Ⴊ	cut_o_stereo_44KHz.wav
1	35	1	2	0	C	1	1	654	1	Ⴟ	cut_k_stereo_44KHz.wav
1	36	4	4	2	I	1	0	696	0	Ⴜ	cut_a_stereo_44KHz.wav
1	37	1	1	1	C	2	1	629	1	Ⴟ	cut_u_stereo_44KHz.wav
1	38	3	4	2	I	2	0	939	1	Ⴊ	cut_a_stereo_44KHz.wav
1	39	4	3	2	I	1	0	855	0	Ⴜ	cut_o_stereo_44KHz.wav
1	40	2	1	0	C	2	0	769	0	Ⴃ	cut_u_stereo_44KHz.wav
1	41	1	2	0	C	1	1	536	1	Ⴟ	cut_k_stereo_44KHz.wav
1	42	4	4	2	I	2	0	854	1	Ⴜ	cut_a_stereo_44KHz.wav
1	43	3	4	2	I	2	0	883	0	Ⴊ	cut_a_stereo_44KHz.wav
1	44	2	2	1	C	2	1	750	1	Ⴃ	cut_k_stereo_44KHz.wav
1	45	4	3	2	I	1	0	878	1	Ⴜ	cut_o_stereo_44KHz.wav
1	46	2	1	0	C	1	1	793	1	Ⴃ	cut_u_stereo_44KHz.wav
1	47	3	3	2	I	2	0	1491	0	Ⴊ	cut_o_stereo_44KHz.wav
1	48	1	1	1	C	2	1	825	1	Ⴟ	cut_u_stereo_44KHz.wav
1	49	3	4	2	I	1	0	808	0	Ⴊ	cut_a_stereo_44KHz.wav
1	50	4	4	2	I	1	0	634	1	Ⴜ	cut_a_stereo_44KHz.wav
1	51	2	1	0	C	1	1	962	1	Ⴃ	cut_u_stereo_44KHz.wav
1	52	1	1	1	C	1	0	725	0	Ⴟ	cut_u_stereo_44KHz.wav
1	53	4	3	2	I	2	0	719	1	Ⴜ	cut_o_stereo_44KHz.wav
1	54	1	2	0	C	1	1	803	1	Ⴟ	cut_k_stereo_44KHz.wav
1	55	2	2	1	C	2	1	829	1	Ⴃ	cut_k_stereo_44KHz.wav
1	56	3	3	2	I	2	0	820	0	Ⴊ	cut_o_stereo_44KHz.wav
1	57	1	2	0	C	1	1	635	1	Ⴟ	cut_k_stereo_44KHz.wav
1	58	4	3	2	I	1	0	737	1	Ⴜ	cut_o_stereo_44KHz.wav
1	59	2	1	0	C	1	1	820	1	Ⴃ	cut_u_stereo_44KHz.wav
1	60	3	4	2	I	1	0	940	0	Ⴊ	cut_a_stereo_44KHz.wav
1	61	1	1	1	C	2	1	613	1	Ⴟ	cut_u_stereo_44KHz.wav
1	62	4	4	2	I	1	0	612	1	Ⴜ	cut_a_stereo_44KHz.wav
1	63	2	2	1	C	2	1	731	1	Ⴃ	cut_k_stereo_44KHz.wav
1	64	3	3	2	I	1	0	765	0	Ⴊ	cut_o_stereo_44KHz.wav
1	65	2	2	1	C	2	1	656	1	Ⴃ	cut_k_stereo_44KHz.wav
1	66	3	4	2	I	1	0	872	0	Ⴊ	cut_a_stereo_44KHz.wav
1	67	4	4	2	I	1	0	641	0	Ⴜ	cut_a_stereo_44KHz.wav
1	68	1	2	0	C	1	1	636	1	Ⴟ	cut_k_stereo_44KHz.wav
1	69	2	1	0	C	1	1	624	1	Ⴃ	cut_u_stereo_44KHz.wav
1	70	1	1	1	C	2	1	686	1	Ⴟ	cut_u_stereo_44KHz.wav
1	71	4	3	2	I	1	0	850	1	Ⴜ	cut_o_stereo_44KHz.wav
1	72	3	3	2	I	2	0	657	1	Ⴊ	cut_o_stereo_44KHz.wav
1	73	1	2	0	C	1	1	607	1	Ⴟ	cut_k_stereo_44KHz.wav
1	74	4	4	2	I	1	0	1119	1	Ⴜ	cut_a_stereo_44KHz.wav
1	75	3	3	2	I	1	0	613	1	Ⴊ	cut_o_stereo_44KHz.wav
1	76	2	1	0	C	1	1	604	1	Ⴃ	cut_u_stereo_44KHz.wav
1	77	4	3	2	I	2	0	677	0	Ⴜ	cut_o_stereo_44KHz.wav
1	78	1	1	1	C	2	1	725	1	Ⴟ	cut_u_stereo_44KHz.wav
1	79	2	2	1	C	2	1	669	1	Ⴃ	cut_k_stereo_44KHz.wav
1	80	3	4	2	I	1	0	705	1	Ⴊ	cut_a_stereo_44KHz.wav
1	81	4	3	2	I	2	0	501	0	Ⴜ	cut_o_stereo_44KHz.wav
1	82	3	4	2	I	2	0	712	0	Ⴊ	cut_a_stereo_44KHz.wav
1	83	2	1	0	C	1	1	954	1	Ⴃ	cut_u_stereo_44KHz.wav
1	84	1	1	1	C	2	1	544	1	Ⴟ	cut_u_stereo_44KHz.wav
1	85	3	3	2	I	1	0	714	1	Ⴊ	cut_o_stereo_44KHz.wav
1	86	2	2	1	C	2	1	772	1	Ⴃ	cut_k_stereo_44KHz.wav
1	87	4	4	2	I	1	0	756	0	Ⴜ	cut_a_stereo_44KHz.wav
1	88	1	2	0	C	2	0	510	0	Ⴟ	cut_k_stereo_44KHz.wav
1	89	4	4	2	I	1	0	1022	0	Ⴜ	cut_a_stereo_44KHz.wav
1	90	3	3	2	I	1	0	749	0	Ⴊ	cut_o_stereo_44KHz.wav
1	91	1	1	1	C	2	1	627	1	Ⴟ	cut_u_stereo_44KHz.wav
1	92	2	1	0	C	2	0	1043	0	Ⴃ	cut_u_stereo_44KHz.wav
1	93	4	3	2	I	2	0	670	0	Ⴜ	cut_o_stereo_44KHz.wav
1	94	1	2	0	C	1	1	978	1	Ⴟ	cut_k_stereo_44KHz.wav
1	95	3	4	2	I	1	0	887	1	Ⴊ	cut_a_stereo_44KHz.wav
1	96	2	2	1	C	2	1	752	1	Ⴃ	cut_k_stereo_44KHz.wav
1	97	4	4	2	I	1	0	748	0	Ⴜ	cut_a_stereo_44KHz.wav
1	98	3	4	2	I	1	0	638	1	Ⴊ	cut_a_stereo_44KHz.wav
1	99	1	2	0	C	1	1	853	1	Ⴟ	cut_k_stereo_44KHz.wav
1	100	2	2	1	C	2	1	578	1	Ⴃ	cut_k_stereo_44KHz.wav
1	101	4	3	2	I	2	0	845	1	Ⴜ	cut_o_stereo_44KHz.wav
1	102	1	1	1	C	1	0	779	0	Ⴟ	cut_u_stereo_44KHz.wav
1	103	2	1	0	C	1	1	705	1	Ⴃ	cut_u_stereo_44KHz.wav
1	104	3	3	2	I	1	0	881	0	Ⴊ	cut_o_stereo_44KHz.wav
1	105	2	2	1	C	2	1	886	1	Ⴃ	cut_k_stereo_44KHz.wav
1	106	3	3	2	I	1	0	928	0	Ⴊ	cut_o_stereo_44KHz.wav
1	107	1	1	1	C	2	1	754	1	Ⴟ	cut_u_stereo_44KHz.wav
1	108	4	3	2	I	2	0	773	1	Ⴜ	cut_o_stereo_44KHz.wav
1	109	1	2	0	C	1	1	882	1	Ⴟ	cut_k_stereo_44KHz.wav
1	110	3	4	2	I	2	0	704	1	Ⴊ	cut_a_stereo_44KHz.wav
1	111	4	4	2	I	1	0	678	0	Ⴜ	cut_a_stereo_44KHz.wav
1	112	2	1	0	C	1	1	857	1	Ⴃ	cut_u_stereo_44KHz.wav
1	113	1	1	1	C	2	1	623	1	Ⴟ	cut_u_stereo_44KHz.wav
1	114	4	3	2	I	1	0	967	1	Ⴜ	cut_o_stereo_44KHz.wav
1	115	2	1	0	C	1	1	692	1	Ⴃ	cut_u_stereo_44KHz.wav
1	116	3	4	2	I	2	0	726	0	Ⴊ	cut_a_stereo_44KHz.wav
1	117	1	2	0	C	1	1	523	1	Ⴟ	cut_k_stereo_44KHz.wav
1	118	2	2	1	C	2	1	643	1	Ⴃ	cut_k_stereo_44KHz.wav
1	119	4	4	2	I	1	0	621	0	Ⴜ	cut_a_stereo_44KHz.wav
1	120	3	3	2	I	2	0	605	0	Ⴊ	cut_o_stereo_44KHz.wav
1	121	1	2	0	C	2	0	564	0	Ⴟ	cut_k_stereo_44KHz.wav
1	122	2	2	1	C	2	1	596	1	Ⴃ	cut_k_stereo_44KHz.wav
1	123	3	4	2	I	1	0	784	0	Ⴊ	cut_a_stereo_44KHz.wav
1	124	4	3	2	I	1	0	567	0	Ⴜ	cut_o_stereo_44KHz.wav
1	125	3	3	2	I	1	0	798	0	Ⴊ	cut_o_stereo_44KHz.wav
1	126	2	1	0	C	1	1	604	1	Ⴃ	cut_u_stereo_44KHz.wav
1	127	1	1	1	C	2	1	596	1	Ⴟ	cut_u_stereo_44KHz.wav
1	128	4	4	2	I	2	0	968	0	Ⴜ	cut_a_stereo_44KHz.wav
1	129	3	4	2	I	2	0	1019	0	Ⴊ	cut_a_stereo_44KHz.wav
1	130	1	1	1	C	2	1	699	1	Ⴟ	cut_u_stereo_44KHz.wav
1	131	4	3	2	I	1	0	661	1	Ⴜ	cut_o_stereo_44KHz.wav
1	132	2	2	1	C	2	1	639	1	Ⴃ	cut_k_stereo_44KHz.wav
1	133	4	4	2	I	1	0	731	1	Ⴜ	cut_a_stereo_44KHz.wav
1	134	3	3	2	I	1	0	1081	1	Ⴊ	cut_o_stereo_44KHz.wav
1	135	1	2	0	C	2	0	532	0	Ⴟ	cut_k_stereo_44KHz.wav
1	136	2	1	0	C	1	1	779	1	Ⴃ	cut_u_stereo_44KHz.wav
1	137	1	2	0	C	1	1	525	1	Ⴟ	cut_k_stereo_44KHz.wav
1	138	3	3	2	I	1	0	911	0	Ⴊ	cut_o_stereo_44KHz.wav
1	139	2	2	1	C	2	1	674	1	Ⴃ	cut_k_stereo_44KHz.wav
1	140	4	3	2	I	1	0	684	0	Ⴜ	cut_o_stereo_44KHz.wav
1	141	2	1	0	C	1	1	569	1	Ⴃ	cut_u_stereo_44KHz.wav
1	142	4	4	2	I	2	0	516	0	Ⴜ	cut_a_stereo_44KHz.wav
1	143	1	1	1	C	2	1	735	1	Ⴟ	cut_u_stereo_44KHz.wav
1	144	3	4	2	I	1	0	656	1	Ⴊ	cut_a_stereo_44KHz.wav
1	145	1	2	0	C	1	1	646	1	Ⴟ	cut_k_stereo_44KHz.wav
1	146	4	3	2	I	2	0	633	1	Ⴜ	cut_o_stereo_44KHz.wav
1	147	3	4	2	I	1	0	660	1	Ⴊ	cut_a_stereo_44KHz.wav
1	148	2	2	1	C	2	1	1034	1	Ⴃ	cut_k_stereo_44KHz.wav
1	149	1	1	1	C	1	0	691	0	Ⴟ	cut_u_stereo_44KHz.wav
1	150	3	3	2	I	2	0	1204	1	Ⴊ	cut_o_stereo_44KHz.wav
1	151	2	1	0	C	1	1	736	1	Ⴃ	cut_u_stereo_44KHz.wav
1	152	4	4	2	I	2	0	1044	1	Ⴜ	cut_a_stereo_44KHz.wav
1	153	2	2	1	C	2	1	720	1	Ⴃ	cut_k_stereo_44KHz.wav
1	154	3	3	2	I	2	0	888	1	Ⴊ	cut_o_stereo_44KHz.wav
1	155	1	2	0	C	1	1	603	1	Ⴟ	cut_k_stereo_44KHz.wav
1	156	4	4	2	I	2	0	618	1	Ⴜ	cut_a_stereo_44KHz.wav
1	157	3	4	2	I	2	0	601	0	Ⴊ	cut_a_stereo_44KHz.wav
1	158	1	1	1	C	2	1	626	1	Ⴟ	cut_u_stereo_44KHz.wav
1	159	4	3	2	I	1	0	702	0	Ⴜ	cut_o_stereo_44KHz.wav
1	160	2	1	0	C	1	1	865	1	Ⴃ	cut_u_stereo_44KHz.wav
1	161	1	1	1	C	2	1	710	1	Ⴟ	cut_u_stereo_44KHz.wav
1	162	2	2	1	C	2	1	742	1	Ⴃ	cut_k_stereo_44KHz.wav
1	163	3	3	2	I	1	0	941	1	Ⴊ	cut_o_stereo_44KHz.wav
1	164	4	3	2	I	2	0	809	1	Ⴜ	cut_o_stereo_44KHz.wav
1	165	2	1	0	C	1	1	874	1	Ⴃ	cut_u_stereo_44KHz.wav
1	166	4	4	2	I	2	0	770	0	Ⴜ	cut_a_stereo_44KHz.wav
1	167	1	2	0	C	1	1	526	1	Ⴟ	cut_k_stereo_44KHz.wav
1	168	3	4	2	I	2	0	958	0	Ⴊ	cut_a_stereo_44KHz.wav
1	169	1	1	1	C	2	1	656	1	Ⴟ	cut_u_stereo_44KHz.wav
1	170	2	1	0	C	1	1	705	1	Ⴃ	cut_u_stereo_44KHz.wav
1	171	3	4	2	I	1	0	569	0	Ⴊ	cut_a_stereo_44KHz.wav
1	172	4	4	2	I	1	0	483	0	Ⴜ	cut_a_stereo_44KHz.wav
1	173	2	2	1	C	2	1	749	1	Ⴃ	cut_k_stereo_44KHz.wav
1	174	3	3	2	I	2	0	676	1	Ⴊ	cut_o_stereo_44KHz.wav
1	175	1	2	0	C	1	1	547	1	Ⴟ	cut_k_stereo_44KHz.wav
1	176	4	3	2	I	2	0	720	1	Ⴜ	cut_o_stereo_44KHz.wav
1	177	1	1	1	C	2	1	670	1	Ⴟ	cut_u_stereo_44KHz.wav
1	178	3	4	2	I	2	0	628	1	Ⴊ	cut_a_stereo_44KHz.wav
1	179	2	1	0	C	1	1	876	1	Ⴃ	cut_u_stereo_44KHz.wav
1	180	4	4	2	I	2	0	795	0	Ⴜ	cut_a_stereo_44KHz.wav
1	181	3	3	2	I	1	0	607	0	Ⴊ	cut_o_stereo_44KHz.wav
1	182	4	3	2	I	2	0	791	1	Ⴜ	cut_o_stereo_44KHz.wav
1	183	2	2	1	C	2	1	777	1	Ⴃ	cut_k_stereo_44KHz.wav
1	184	1	2	0	C	1	1	622	1	Ⴟ	cut_k_stereo_44KHz.wav
1	185	2	1	0	C	1	1	1156	1	Ⴃ	cut_u_stereo_44KHz.wav
1	186	3	4	2	I	1	0	825	1	Ⴊ	cut_a_stereo_44KHz.wav
1	187	1	2	0	C	1	1	593	1	Ⴟ	cut_k_stereo_44KHz.wav
1	188	4	3	2	I	2	0	779	1	Ⴜ	cut_o_stereo_44KHz.wav
1	189	3	3	2	I	2	0	625	1	Ⴊ	cut_o_stereo_44KHz.wav
1	190	4	4	2	I	2	0	506	1	Ⴜ	cut_a_stereo_44KHz.wav
1	191	1	1	1	C	2	1	780	1	Ⴟ	cut_u_stereo_44KHz.wav
1	192	2	2	1	C	2	1	661	1	Ⴃ	cut_k_stereo_44KHz.wav
1	193	3	3	2	I	2	0	596	1	Ⴊ	cut_o_stereo_44KHz.wav
1	194	4	3	2	I	2	0	562	0	Ⴜ	cut_o_stereo_44KHz.wav
1	195	2	2	1	C	2	1	843	1	Ⴃ	cut_k_stereo_44KHz.wav
1	196	1	1	1	C	2	1	731	1	Ⴟ	cut_u_stereo_44KHz.wav
1	197	2	1	0	C	1	1	738	1	Ⴃ	cut_u_stereo_44KHz.wav
1	198	4	4	2	I	1	0	553	0	Ⴜ	cut_a_stereo_44KHz.wav
1	199	3	4	2	I	1	0	515	1	Ⴊ	cut_a_stereo_44KHz.wav
1	200	1	2	0	C	1	1	855	1	Ⴟ	cut_k_stereo_44KHz.wav
2	1	4	3	2	I	1	0	1436	0	Ⴕ	cut_oei_stereo_44KHz.wav
2	2	1	2	0	C	1	1	233	1	Ⴌ	cut_ei_stereo_44KHz.wav
2	3	2	1	0	C	2	0	673	0	Ⴏ	cut_r_stereo_44KHz.wav
2	4	3	4	2	I	1	0	486	0	Ⴖ	cut_ui_stereo_44KHz.wav
2	5	1	1	1	C	1	0	704	0	Ⴌ	cut_r_stereo_44KHz.wav
2	6	3	3	2	I	2	0	760	0	Ⴖ	cut_oei_stereo_44KHz.wav
2	7	4	4	2	I	2	0	1111	1	Ⴕ	cut_ui_stereo_44KHz.wav
2	8	2	2	1	C	1	0	894	0	Ⴏ	cut_ei_stereo_44KHz.wav
2	9	4	4	2	I	1	0	813	0	Ⴕ	cut_ui_stereo_44KHz.wav
2	10	1	1	1	C	1	0	817	0	Ⴌ	cut_r_stereo_44KHz.wav
2	11	3	4	2	I	1	0	558	1	Ⴖ	cut_ui_stereo_44KHz.wav
2	12	2	2	1	C	1	0	582	0	Ⴏ	cut_ei_stereo_44KHz.wav
2	13	3	3	2	I	1	0	951	0	Ⴖ	cut_oei_stereo_44KHz.wav
2	14	1	2	0	C	1	1	747	1	Ⴌ	cut_ei_stereo_44KHz.wav
2	15	4	3	2	I	2	0	641	1	Ⴕ	cut_oei_stereo_44KHz.wav
2	16	2	1	0	C	2	0	884	0	Ⴏ	cut_r_stereo_44KHz.wav
2	17	4	4	2	I	2	0	631	1	Ⴕ	cut_ui_stereo_44KHz.wav
2	18	3	4	2	I	1	0	1080	1	Ⴖ	cut_ui_stereo_44KHz.wav
2	19	2	1	0	C	1	1	739	1	Ⴏ	cut_r_stereo_44KHz.wav
2	20	1	1	1	C	2	1	751	1	Ⴌ	cut_r_stereo_44KHz.wav
2	21	4	3	2	I	2	0	691	1	Ⴕ	cut_oei_stereo_44KHz.wav
2	22	1	2	0	C	1	1	788	1	Ⴌ	cut_ei_stereo_44KHz.wav
2	23	2	2	1	C	2	1	681	1	Ⴏ	cut_ei_stereo_44KHz.wav
2	24	3	3	2	I	2	0	991	1	Ⴖ	cut_oei_stereo_44KHz.wav
2	25	2	1	0	C	1	1	663	1	Ⴏ	cut_r_stereo_44KHz.wav
2	26	3	4	2	I	1	0	1042	0	Ⴖ	cut_ui_stereo_44KHz.wav
2	27	1	2	0	C	1	1	688	1	Ⴌ	cut_ei_stereo_44KHz.wav
2	28	4	3	2	I	2	0	511	0	Ⴕ	cut_oei_stereo_44KHz.wav
2	29	1	1	1	C	2	1	1014	1	Ⴌ	cut_r_stereo_44KHz.wav
2	30	3	3	2	I	1	0	749	1	Ⴖ	cut_oei_stereo_44KHz.wav
2	31	2	2	1	C	2	1	805	1	Ⴏ	cut_ei_stereo_44KHz.wav
2	32	4	4	2	I	2	0	812	1	Ⴕ	cut_ui_stereo_44KHz.wav
2	33	2	2	1	C	2	1	950	1	Ⴏ	cut_ei_stereo_44KHz.wav
2	34	1	2	0	C	1	1	612	1	Ⴌ	cut_ei_stereo_44KHz.wav
2	35	3	3	2	I	1	0	698	0	Ⴖ	cut_oei_stereo_44KHz.wav
2	36	4	4	2	I	2	0	802	1	Ⴕ	cut_ui_stereo_44KHz.wav
2	37	3	4	2	I	1	0	592	1	Ⴖ	cut_ui_stereo_44KHz.wav
2	38	4	3	2	I	2	0	751	1	Ⴕ	cut_oei_stereo_44KHz.wav
2	39	1	1	1	C	2	1	821	1	Ⴌ	cut_r_stereo_44KHz.wav
2	40	2	1	0	C	1	1	650	1	Ⴏ	cut_r_stereo_44KHz.wav
2	41	1	1	1	C	2	1	577	1	Ⴌ	cut_r_stereo_44KHz.wav
2	42	3	4	2	I	1	0	679	1	Ⴖ	cut_ui_stereo_44KHz.wav
2	43	4	3	2	I	1	0	383	1	Ⴕ	cut_oei_stereo_44KHz.wav
2	44	2	1	0	C	2	0	978	0	Ⴏ	cut_r_stereo_44KHz.wav
2	45	3	3	2	I	2	0	794	0	Ⴖ	cut_oei_stereo_44KHz.wav
2	46	2	2	1	C	1	0	1528	0	Ⴏ	cut_ei_stereo_44KHz.wav
2	47	1	2	0	C	1	1	615	1	Ⴌ	cut_ei_stereo_44KHz.wav
2	48	4	4	2	I	2	0	917	1	Ⴕ	cut_ui_stereo_44KHz.wav
2	49	3	3	2	I	1	0	740	0	Ⴖ	cut_oei_stereo_44KHz.wav
2	50	1	2	0	C	1	1	850	1	Ⴌ	cut_ei_stereo_44KHz.wav
2	51	4	4	2	I	2	0	658	1	Ⴕ	cut_ui_stereo_44KHz.wav
2	52	2	2	1	C	2	1	988	1	Ⴏ	cut_ei_stereo_44KHz.wav
2	53	1	1	1	C	2	1	756	1	Ⴌ	cut_r_stereo_44KHz.wav
2	54	3	4	2	I	1	0	1037	1	Ⴖ	cut_ui_stereo_44KHz.wav
2	55	2	1	0	C	1	1	781	1	Ⴏ	cut_r_stereo_44KHz.wav
2	56	4	3	2	I	2	0	684	1	Ⴕ	cut_oei_stereo_44KHz.wav
2	57	1	2	0	C	1	1	700	1	Ⴌ	cut_ei_stereo_44KHz.wav
2	58	2	2	1	C	2	1	659	1	Ⴏ	cut_ei_stereo_44KHz.wav
2	59	3	4	2	I	1	0	636	0	Ⴖ	cut_ui_stereo_44KHz.wav
2	60	4	3	2	I	1	0	543	1	Ⴕ	cut_oei_stereo_44KHz.wav
2	61	1	1	1	C	2	1	896	1	Ⴌ	cut_r_stereo_44KHz.wav
2	62	3	3	2	I	1	0	686	0	Ⴖ	cut_oei_stereo_44KHz.wav
2	63	2	1	0	C	1	1	873	1	Ⴏ	cut_r_stereo_44KHz.wav
2	64	4	4	2	I	2	0	713	0	Ⴕ	cut_ui_stereo_44KHz.wav
2	65	2	2	1	C	1	0	964	0	Ⴏ	cut_ei_stereo_44KHz.wav
2	66	3	3	2	I	1	0	712	1	Ⴖ	cut_oei_stereo_44KHz.wav
2	67	4	4	2	I	2	0	713	1	Ⴕ	cut_ui_stereo_44KHz.wav
2	68	1	1	1	C	2	1	857	1	Ⴌ	cut_r_stereo_44KHz.wav
2	69	3	4	2	I	1	0	664	0	Ⴖ	cut_ui_stereo_44KHz.wav
2	70	4	3	2	I	1	0	703	0	Ⴕ	cut_oei_stereo_44KHz.wav
2	71	2	1	0	C	1	1	935	1	Ⴏ	cut_r_stereo_44KHz.wav
2	72	1	2	0	C	1	1	622	1	Ⴌ	cut_ei_stereo_44KHz.wav
2	73	2	2	1	C	2	1	801	1	Ⴏ	cut_ei_stereo_44KHz.wav
2	74	4	3	2	I	1	0	601	1	Ⴕ	cut_oei_stereo_44KHz.wav
2	75	3	4	2	I	2	0	604	1	Ⴖ	cut_ui_stereo_44KHz.wav
2	76	1	2	0	C	1	1	1107	1	Ⴌ	cut_ei_stereo_44KHz.wav
2	77	4	4	2	I	2	0	749	1	Ⴕ	cut_ui_stereo_44KHz.wav
2	78	2	1	0	C	1	1	958	1	Ⴏ	cut_r_stereo_44KHz.wav
2	79	1	1	1	C	2	1	613	1	Ⴌ	cut_r_stereo_44KHz.wav
2	80	3	3	2	I	2	0	800	1	Ⴖ	cut_oei_stereo_44KHz.wav
2	81	2	1	0	C	1	1	750	1	Ⴏ	cut_r_stereo_44KHz.wav
2	82	4	4	2	I	2	0	515	0	Ⴕ	cut_ui_stereo_44KHz.wav
2	83	3	3	2	I	1	0	585	0	Ⴖ	cut_oei_stereo_44KHz.wav
2	84	1	2	0	C	2	0	997	0	Ⴌ	cut_ei_stereo_44KHz.wav
2	85	4	3	2	I	1	0	697	1	Ⴕ	cut_oei_stereo_44KHz.wav
2	86	2	2	1	C	2	1	1110	1	Ⴏ	cut_ei_stereo_44KHz.wav
2	87	1	1	1	C	2	1	1375	1	Ⴌ	cut_r_stereo_44KHz.wav
2	88	3	4	2	I	1	0	649	0	Ⴖ	cut_ui_stereo_44KHz.wav
2	89	2	2	1	C	2	1	891	1	Ⴏ	cut_ei_stereo_44KHz.wav
2	90	3	4	2	I	1	0	765	1	Ⴖ	cut_ui_stereo_44KHz.wav
2	91	1	2	0	C	1	1	804	1	Ⴌ	cut_ei_stereo_44KHz.wav
2	92	4	4	2	I	2	0	682	0	Ⴕ	cut_ui_stereo_44KHz.wav
2	93	3	3	2	I	2	0	981	0	Ⴖ	cut_oei_stereo_44KHz.wav
2	94	2	1	0	C	1	1	835	1	Ⴏ	cut_r_stereo_44KHz.wav
2	95	1	1	1	C	2	1	644	1	Ⴌ	cut_r_stereo_44KHz.wav
2	96	4	3	2	I	1	0	645	0	Ⴕ	cut_oei_stereo_44KHz.wav
2	97	1	2	0	C	1	1	795	1	Ⴌ	cut_ei_stereo_44KHz.wav
2	98	4	4	2	I	1	0	677	0	Ⴕ	cut_ui_stereo_44KHz.wav
2	99	3	4	2	I	1	0	594	0	Ⴖ	cut_ui_stereo_44KHz.wav
2	100	2	1	0	C	1	1	762	1	Ⴏ	cut_r_stereo_44KHz.wav
2	101	3	3	2	I	1	0	541	1	Ⴖ	cut_oei_stereo_44KHz.wav
2	102	4	3	2	I	1	0	946	0	Ⴕ	cut_oei_stereo_44KHz.wav
2	103	2	2	1	C	2	1	1075	1	Ⴏ	cut_ei_stereo_44KHz.wav
2	104	1	1	1	C	2	1	892	1	Ⴌ	cut_r_stereo_44KHz.wav
2	105	2	1	0	C	1	1	736	1	Ⴏ	cut_r_stereo_44KHz.wav
2	106	1	1	1	C	2	1	1178	1	Ⴌ	cut_r_stereo_44KHz.wav
2	107	3	4	2	I	1	0	618	0	Ⴖ	cut_ui_stereo_44KHz.wav
2	108	4	4	2	I	1	0	769	0	Ⴕ	cut_ui_stereo_44KHz.wav
2	109	1	2	0	C	1	1	1366	1	Ⴌ	cut_ei_stereo_44KHz.wav
2	110	3	3	2	I	1	0	781	1	Ⴖ	cut_oei_stereo_44KHz.wav
2	111	4	3	2	I	1	0	789	1	Ⴕ	cut_oei_stereo_44KHz.wav
2	112	2	2	1	C	2	1	758	1	Ⴏ	cut_ei_stereo_44KHz.wav
2	113	1	2	0	C	1	1	864	1	Ⴌ	cut_ei_stereo_44KHz.wav
2	114	4	4	2	I	1	0	1032	0	Ⴕ	cut_ui_stereo_44KHz.wav
2	115	3	4	2	I	1	0	747	0	Ⴖ	cut_ui_stereo_44KHz.wav
2	116	2	1	0	C	1	1	887	1	Ⴏ	cut_r_stereo_44KHz.wav
2	117	4	3	2	I	1	0	956	1	Ⴕ	cut_oei_stereo_44KHz.wav
2	118	1	1	1	C	2	1	868	1	Ⴌ	cut_r_stereo_44KHz.wav
2	119	3	3	2	I	1	0	602	1	Ⴖ	cut_oei_stereo_44KHz.wav
2	120	2	2	1	C	2	1	1274	1	Ⴏ	cut_ei_stereo_44KHz.wav
2	121	3	3	2	I	1	0	557	1	Ⴖ	cut_oei_stereo_44KHz.wav
2	122	1	2	0	C	1	1	1243	1	Ⴌ	cut_ei_stereo_44KHz.wav
2	123	2	1	0	C	1	1	929	1	Ⴏ	cut_r_stereo_44KHz.wav
2	124	4	4	2	I	2	0	1363	1	Ⴕ	cut_ui_stereo_44KHz.wav
2	125	1	1	1	C	2	1	1136	1	Ⴌ	cut_r_stereo_44KHz.wav
2	126	2	2	1	C	2	1	1574	1	Ⴏ	cut_ei_stereo_44KHz.wav
2	127	4	3	2	I	1	0	973	1	Ⴕ	cut_oei_stereo_44KHz.wav
2	128	3	4	2	I	2	0	910	0	Ⴖ	cut_ui_stereo_44KHz.wav
2	129	4	3	2	I	1	0	491	0	Ⴕ	cut_oei_stereo_44KHz.wav
2	130	1	1	1	C	2	1	1078	1	Ⴌ	cut_r_stereo_44KHz.wav
2	131	3	4	2	I	1	0	646	1	Ⴖ	cut_ui_stereo_44KHz.wav
2	132	2	1	0	C	1	1	1031	1	Ⴏ	cut_r_stereo_44KHz.wav
2	133	1	2	0	C	2	0	1010	0	Ⴌ	cut_ei_stereo_44KHz.wav
2	134	3	3	2	I	1	0	569	0	Ⴖ	cut_oei_stereo_44KHz.wav
2	135	4	4	2	I	2	0	798	0	Ⴕ	cut_ui_stereo_44KHz.wav
2	136	2	2	1	C	2	1	681	1	Ⴏ	cut_ei_stereo_44KHz.wav
2	137	4	3	2	I	1	0	808	1	Ⴕ	cut_oei_stereo_44KHz.wav
2	138	1	2	0	C	1	1	760	1	Ⴌ	cut_ei_stereo_44KHz.wav
2	139	2	2	1	C	2	1	1160	1	Ⴏ	cut_ei_stereo_44KHz.wav
2	140	3	3	2	I	1	0	702	0	Ⴖ	cut_oei_stereo_44KHz.wav
2	141	2	1	0	C	1	1	898	1	Ⴏ	cut_r_stereo_44KHz.wav
2	142	3	4	2	I	2	0	659	1	Ⴖ	cut_ui_stereo_44KHz.wav
2	143	4	4	2	I	2	0	752	0	Ⴕ	cut_ui_stereo_44KHz.wav
2	144	1	1	1	C	2	1	935	1	Ⴌ	cut_r_stereo_44KHz.wav
2	145	2	2	1	C	2	1	1558	1	Ⴏ	cut_ei_stereo_44KHz.wav
2	146	4	4	2	I	1	0	768	0	Ⴕ	cut_ui_stereo_44KHz.wav
2	147	3	4	2	I	1	0	595	1	Ⴖ	cut_ui_stereo_44KHz.wav
2	148	1	1	1	C	2	1	1573	1	Ⴌ	cut_r_stereo_44KHz.wav
2	149	4	3	2	I	1	0	666	0	Ⴕ	cut_oei_stereo_44KHz.wav
2	150	2	1	0	C	1	1	910	1	Ⴏ	cut_r_stereo_44KHz.wav
2	151	3	3	2	I	2	0	662	0	Ⴖ	cut_oei_stereo_44KHz.wav
2	152	1	2	0	C	2	0	328	0	Ⴌ	cut_ei_stereo_44KHz.wav
2	153	4	3	2	I	2	0	584	0	Ⴕ	cut_oei_stereo_44KHz.wav
2	154	2	1	0	C	1	1	1193	1	Ⴏ	cut_r_stereo_44KHz.wav
2	155	3	3	2	I	1	0	758	1	Ⴖ	cut_oei_stereo_44KHz.wav
2	156	1	2	0	C	1	1	971	1	Ⴌ	cut_ei_stereo_44KHz.wav
2	157	2	2	1	C	2	1	662	1	Ⴏ	cut_ei_stereo_44KHz.wav
2	158	4	4	2	I	1	0	794	0	Ⴕ	cut_ui_stereo_44KHz.wav
2	159	1	1	1	C	1	0	739	0	Ⴌ	cut_r_stereo_44KHz.wav
2	160	3	4	2	I	1	0	683	0	Ⴖ	cut_ui_stereo_44KHz.wav
2	161	1	1	1	C	2	1	813	1	Ⴌ	cut_r_stereo_44KHz.wav
2	162	3	3	2	I	1	0	627	0	Ⴖ	cut_oei_stereo_44KHz.wav
2	163	2	2	1	C	2	1	948	1	Ⴏ	cut_ei_stereo_44KHz.wav
2	164	4	3	2	I	1	0	729	1	Ⴕ	cut_oei_stereo_44KHz.wav
2	165	1	2	0	C	1	1	623	1	Ⴌ	cut_ei_stereo_44KHz.wav
2	166	3	4	2	I	1	0	612	0	Ⴖ	cut_ui_stereo_44KHz.wav
2	167	4	4	2	I	1	0	622	0	Ⴕ	cut_ui_stereo_44KHz.wav
2	168	2	1	0	C	2	0	809	0	Ⴏ	cut_r_stereo_44KHz.wav
2	169	4	4	2	I	2	0	950	0	Ⴕ	cut_ui_stereo_44KHz.wav
2	170	1	2	0	C	1	1	784	1	Ⴌ	cut_ei_stereo_44KHz.wav
2	171	3	3	2	I	1	0	853	1	Ⴖ	cut_oei_stereo_44KHz.wav
2	172	2	2	1	C	2	1	1099	1	Ⴏ	cut_ei_stereo_44KHz.wav
2	173	4	3	2	I	1	0	839	0	Ⴕ	cut_oei_stereo_44KHz.wav
2	174	1	1	1	C	2	1	862	1	Ⴌ	cut_r_stereo_44KHz.wav
2	175	3	4	2	I	1	0	576	1	Ⴖ	cut_ui_stereo_44KHz.wav
2	176	2	1	0	C	1	1	1331	1	Ⴏ	cut_r_stereo_44KHz.wav
2	177	3	4	2	I	1	0	707	1	Ⴖ	cut_ui_stereo_44KHz.wav
2	178	4	3	2	I	2	0	873	0	Ⴕ	cut_oei_stereo_44KHz.wav
2	179	2	2	1	C	2	1	1185	1	Ⴏ	cut_ei_stereo_44KHz.wav
2	180	1	1	1	C	2	1	969	1	Ⴌ	cut_r_stereo_44KHz.wav
2	181	3	3	2	I	1	0	678	1	Ⴖ	cut_oei_stereo_44KHz.wav
2	182	1	2	0	C	1	1	867	1	Ⴌ	cut_ei_stereo_44KHz.wav
2	183	4	4	2	I	2	0	651	1	Ⴕ	cut_ui_stereo_44KHz.wav
2	184	2	1	0	C	1	1	738	1	Ⴏ	cut_r_stereo_44KHz.wav
2	185	3	3	2	I	1	0	689	1	Ⴖ	cut_oei_stereo_44KHz.wav
2	186	1	1	1	C	2	1	1464	1	Ⴌ	cut_r_stereo_44KHz.wav
2	187	4	4	2	I	1	0	1043	1	Ⴕ	cut_ui_stereo_44KHz.wav
2	188	2	2	1	C	1	0	1532	0	Ⴏ	cut_ei_stereo_44KHz.wav
2	189	4	3	2	I	1	0	708	1	Ⴕ	cut_oei_stereo_44KHz.wav
2	190	2	1	0	C	1	1	908	1	Ⴏ	cut_r_stereo_44KHz.wav
2	191	1	2	0	C	1	1	968	1	Ⴌ	cut_ei_stereo_44KHz.wav
2	192	3	4	2	I	2	0	1086	0	Ⴖ	cut_ui_stereo_44KHz.wav
2	193	1	1	1	C	2	1	947	1	Ⴌ	cut_r_stereo_44KHz.wav
2	194	2	2	1	C	2	1	937	1	Ⴏ	cut_ei_stereo_44KHz.wav
2	195	3	4	2	I	1	0	576	1	Ⴖ	cut_ui_stereo_44KHz.wav
2	196	4	3	2	I	1	0	792	0	Ⴕ	cut_oei_stereo_44KHz.wav
2	197	3	3	2	I	2	0	617	0	Ⴖ	cut_oei_stereo_44KHz.wav
2	198	4	4	2	I	1	0	725	0	Ⴕ	cut_ui_stereo_44KHz.wav
2	199	1	2	0	C	1	1	783	1	Ⴌ	cut_ei_stereo_44KHz.wav
2	200	2	1	0	C	1	1	692	1	Ⴏ	cut_r_stereo_44KHz.wav
3	1	4	4	2	I	2	0	1627	0	Ⴇ	cut_g_stereo_44KHz.wav
3	2	1	2	0	C	1	1	273	1	Ⴂ	cut_l_stereo_44KHz.wav
3	3	2	2	1	C	2	1	893	1	Ⴡ	cut_l_stereo_44KHz.wav
3	4	3	3	2	I	2	0	649	1	Ⴁ	cut_w_stereo_44KHz.wav
3	5	1	1	1	C	1	0	943	0	Ⴂ	cut_h_stereo_44KHz.wav
3	6	4	3	2	I	2	0	513	0	Ⴇ	cut_w_stereo_44KHz.wav
3	7	2	1	0	C	2	0	858	0	Ⴡ	cut_h_stereo_44KHz.wav
3	8	3	4	2	I	1	0	904	0	Ⴁ	cut_g_stereo_44KHz.wav
3	9	4	3	2	I	2	0	1122	1	Ⴇ	cut_w_stereo_44KHz.wav
3	10	3	3	2	I	2	0	999	0	Ⴁ	cut_w_stereo_44KHz.wav
3	11	1	1	1	C	2	1	1035	1	Ⴂ	cut_h_stereo_44KHz.wav
3	12	2	2	1	C	2	1	786	1	Ⴡ	cut_l_stereo_44KHz.wav
3	13	4	4	2	I	2	0	792	1	Ⴇ	cut_g_stereo_44KHz.wav
3	14	1	2	0	C	1	1	810	1	Ⴂ	cut_l_stereo_44KHz.wav
3	15	2	1	0	C	1	1	739	1	Ⴡ	cut_h_stereo_44KHz.wav
3	16	3	4	2	I	2	0	778	0	Ⴁ	cut_g_stereo_44KHz.wav
3	17	2	1	0	C	1	1	704	1	Ⴡ	cut_h_stereo_44KHz.wav
3	18	4	3	2	I	2	0	850	1	Ⴇ	cut_w_stereo_44KHz.wav
3	19	1	1	1	C	2	1	830	1	Ⴂ	cut_h_stereo_44KHz.wav
3	20	3	3	2	I	1	0	1062	0	Ⴁ	cut_w_stereo_44KHz.wav
3	21	2	2	1	C	2	1	819	1	Ⴡ	cut_l_stereo_44KHz.wav
3	22	4	4	2	I	1	0	873	1	Ⴇ	cut_g_stereo_44KHz.wav
3	23	3	4	2	I	2	0	1018	1	Ⴁ	cut_g_stereo_44KHz.wav
3	24	1	2	0	C	1	1	663	1	Ⴂ	cut_l_stereo_44KHz.wav
3	25	4	4	2	I	1	0	1118	0	Ⴇ	cut_g_stereo_44KHz.wav
3	26	1	2	0	C	1	1	642	1	Ⴂ	cut_l_stereo_44KHz.wav
3	27	2	1	0	C	1	1	597	1	Ⴡ	cut_h_stereo_44KHz.wav
3	28	3	3	2	I	2	0	825	1	Ⴁ	cut_w_stereo_44KHz.wav
3	29	4	3	2	I	1	0	848	0	Ⴇ	cut_w_stereo_44KHz.wav
3	30	1	1	1	C	2	1	805	1	Ⴂ	cut_h_stereo_44KHz.wav
3	31	2	2	1	C	2	1	750	1	Ⴡ	cut_l_stereo_44KHz.wav
3	32	3	4	2	I	1	0	1114	1	Ⴁ	cut_g_stereo_44KHz.wav
3	33	1	2	0	C	1	1	894	1	Ⴂ	cut_l_stereo_44KHz.wav
3	34	4	3	2	I	2	0	766	0	Ⴇ	cut_w_stereo_44KHz.wav
3	35	2	2	1	C	2	1	960	1	Ⴡ	cut_l_stereo_44KHz.wav
3	36	3	4	2	I	2	0	728	1	Ⴁ	cut_g_stereo_44KHz.wav
3	37	1	1	1	C	2	1	740	1	Ⴂ	cut_h_stereo_44KHz.wav
3	38	3	3	2	I	2	0	778	0	Ⴁ	cut_w_stereo_44KHz.wav
3	39	2	1	0	C	1	1	717	1	Ⴡ	cut_h_stereo_44KHz.wav
3	40	4	4	2	I	2	0	647	1	Ⴇ	cut_g_stereo_44KHz.wav
3	41	3	3	2	I	1	0	972	0	Ⴁ	cut_w_stereo_44KHz.wav
3	42	1	1	1	C	2	1	901	1	Ⴂ	cut_h_stereo_44KHz.wav
3	43	4	4	2	I	1	0	699	1	Ⴇ	cut_g_stereo_44KHz.wav
3	44	2	2	1	C	2	1	673	1	Ⴡ	cut_l_stereo_44KHz.wav
3	45	1	2	0	C	1	1	987	1	Ⴂ	cut_l_stereo_44KHz.wav
3	46	2	1	0	C	1	1	626	1	Ⴡ	cut_h_stereo_44KHz.wav
3	47	3	4	2	I	2	0	650	1	Ⴁ	cut_g_stereo_44KHz.wav
3	48	4	3	2	I	1	0	787	1	Ⴇ	cut_w_stereo_44KHz.wav
3	49	2	1	0	C	1	1	874	1	Ⴡ	cut_h_stereo_44KHz.wav
3	50	4	4	2	I	2	0	1255	1	Ⴇ	cut_g_stereo_44KHz.wav
3	51	1	1	1	C	2	1	713	1	Ⴂ	cut_h_stereo_44KHz.wav
3	52	3	4	2	I	2	0	710	1	Ⴁ	cut_g_stereo_44KHz.wav
3	53	2	2	1	C	2	1	947	1	Ⴡ	cut_l_stereo_44KHz.wav
3	54	1	2	0	C	1	1	839	1	Ⴂ	cut_l_stereo_44KHz.wav
3	55	4	3	2	I	2	0	851	0	Ⴇ	cut_w_stereo_44KHz.wav
3	56	3	3	2	I	2	0	701	1	Ⴁ	cut_w_stereo_44KHz.wav
3	57	4	3	2	I	1	0	814	0	Ⴇ	cut_w_stereo_44KHz.wav
3	58	3	4	2	I	2	0	541	1	Ⴁ	cut_g_stereo_44KHz.wav
3	59	2	2	1	C	2	1	804	1	Ⴡ	cut_l_stereo_44KHz.wav
3	60	1	2	0	C	1	1	789	1	Ⴂ	cut_l_stereo_44KHz.wav
3	61	3	3	2	I	2	0	606	1	Ⴁ	cut_w_stereo_44KHz.wav
3	62	4	4	2	I	1	0	951	0	Ⴇ	cut_g_stereo_44KHz.wav
3	63	2	1	0	C	1	1	933	1	Ⴡ	cut_h_stereo_44KHz.wav
3	64	1	1	1	C	2	1	754	1	Ⴂ	cut_h_stereo_44KHz.wav
3	65	3	3	2	I	2	0	551	1	Ⴁ	cut_w_stereo_44KHz.wav
3	66	1	2	0	C	1	1	1349	1	Ⴂ	cut_l_stereo_44KHz.wav
3	67	2	1	0	C	1	1	637	1	Ⴡ	cut_h_stereo_44KHz.wav
3	68	4	3	2	I	2	0	699	1	Ⴇ	cut_w_stereo_44KHz.wav
3	69	3	4	2	I	1	0	753	1	Ⴁ	cut_g_stereo_44KHz.wav
3	70	2	2	1	C	2	1	696	1	Ⴡ	cut_l_stereo_44KHz.wav
3	71	4	4	2	I	1	0	771	0	Ⴇ	cut_g_stereo_44KHz.wav
3	72	1	1	1	C	2	1	819	1	Ⴂ	cut_h_stereo_44KHz.wav
3	73	2	2	1	C	2	1	723	1	Ⴡ	cut_l_stereo_44KHz.wav
3	74	1	2	0	C	1	1	601	1	Ⴂ	cut_l_stereo_44KHz.wav
3	75	4	4	2	I	2	0	613	1	Ⴇ	cut_g_stereo_44KHz.wav
3	76	3	3	2	I	1	0	941	0	Ⴁ	cut_w_stereo_44KHz.wav
3	77	2	1	0	C	1	1	761	1	Ⴡ	cut_h_stereo_44KHz.wav
3	78	3	4	2	I	2	0	709	0	Ⴁ	cut_g_stereo_44KHz.wav
3	79	1	1	1	C	2	1	976	1	Ⴂ	cut_h_stereo_44KHz.wav
3	80	4	3	2	I	1	0	650	1	Ⴇ	cut_w_stereo_44KHz.wav
3	81	1	1	1	C	2	1	779	1	Ⴂ	cut_h_stereo_44KHz.wav
3	82	3	3	2	I	2	0	691	1	Ⴁ	cut_w_stereo_44KHz.wav
3	83	2	1	0	C	1	1	668	1	Ⴡ	cut_h_stereo_44KHz.wav
3	84	4	4	2	I	2	0	643	1	Ⴇ	cut_g_stereo_44KHz.wav
3	85	3	4	2	I	2	0	906	0	Ⴁ	cut_g_stereo_44KHz.wav
3	86	1	2	0	C	1	1	637	1	Ⴂ	cut_l_stereo_44KHz.wav
3	87	2	2	1	C	2	1	861	1	Ⴡ	cut_l_stereo_44KHz.wav
3	88	4	3	2	I	1	0	721	1	Ⴇ	cut_w_stereo_44KHz.wav
3	89	2	1	0	C	1	1	574	1	Ⴡ	cut_h_stereo_44KHz.wav
3	90	4	4	2	I	1	0	637	0	Ⴇ	cut_g_stereo_44KHz.wav
3	91	1	1	1	C	2	1	749	1	Ⴂ	cut_h_stereo_44KHz.wav
3	92	3	4	2	I	2	0	665	0	Ⴁ	cut_g_stereo_44KHz.wav
3	93	1	2	0	C	1	1	755	1	Ⴂ	cut_l_stereo_44KHz.wav
3	94	4	3	2	I	1	0	646	1	Ⴇ	cut_w_stereo_44KHz.wav
3	95	3	3	2	I	2	0	662	1	Ⴁ	cut_w_stereo_44KHz.wav
3	96	2	2	1	C	2	1	753	1	Ⴡ	cut_l_stereo_44KHz.wav
3	97	3	3	2	I	2	0	701	0	Ⴁ	cut_w_stereo_44KHz.wav
3	98	4	4	2	I	1	0	630	0	Ⴇ	cut_g_stereo_44KHz.wav
3	99	2	2	1	C	2	1	670	1	Ⴡ	cut_l_stereo_44KHz.wav
3	100	1	2	0	C	1	1	596	1	Ⴂ	cut_l_stereo_44KHz.wav
3	101	4	3	2	I	1	0	795	1	Ⴇ	cut_w_stereo_44KHz.wav
3	102	1	1	1	C	2	1	738	1	Ⴂ	cut_h_stereo_44KHz.wav
3	103	2	1	0	C	1	1	540	1	Ⴡ	cut_h_stereo_44KHz.wav
3	104	3	4	2	I	2	0	834	1	Ⴁ	cut_g_stereo_44KHz.wav
3	105	4	4	2	I	1	0	657	0	Ⴇ	cut_g_stereo_44KHz.wav
3	106	3	4	2	I	2	0	768	0	Ⴁ	cut_g_stereo_44KHz.wav
3	107	1	2	0	C	1	1	870	1	Ⴂ	cut_l_stereo_44KHz.wav
3	108	2	2	1	C	2	1	693	1	Ⴡ	cut_l_stereo_44KHz.wav
3	109	3	3	2	I	1	0	825	1	Ⴁ	cut_w_stereo_44KHz.wav
3	110	4	3	2	I	2	0	639	0	Ⴇ	cut_w_stereo_44KHz.wav
3	111	2	1	0	C	1	1	625	1	Ⴡ	cut_h_stereo_44KHz.wav
3	112	1	1	1	C	2	1	809	1	Ⴂ	cut_h_stereo_44KHz.wav
3	113	2	2	1	C	2	1	751	1	Ⴡ	cut_l_stereo_44KHz.wav
3	114	1	1	1	C	2	1	738	1	Ⴂ	cut_h_stereo_44KHz.wav
3	115	3	3	2	I	1	0	695	0	Ⴁ	cut_w_stereo_44KHz.wav
3	116	4	4	2	I	2	0	649	1	Ⴇ	cut_g_stereo_44KHz.wav
3	117	2	1	0	C	1	1	605	1	Ⴡ	cut_h_stereo_44KHz.wav
3	118	1	2	0	C	1	1	938	1	Ⴂ	cut_l_stereo_44KHz.wav
3	119	3	4	2	I	2	0	562	0	Ⴁ	cut_g_stereo_44KHz.wav
3	120	4	3	2	I	1	0	514	0	Ⴇ	cut_w_stereo_44KHz.wav
3	121	1	2	0	C	1	1	671	1	Ⴂ	cut_l_stereo_44KHz.wav
3	122	3	4	2	I	2	0	631	0	Ⴁ	cut_g_stereo_44KHz.wav
3	123	2	1	0	C	1	1	638	1	Ⴡ	cut_h_stereo_44KHz.wav
3	124	4	3	2	I	2	0	543	0	Ⴇ	cut_w_stereo_44KHz.wav
3	125	2	2	1	C	2	1	1002	1	Ⴡ	cut_l_stereo_44KHz.wav
3	126	3	3	2	I	2	0	593	0	Ⴁ	cut_w_stereo_44KHz.wav
3	127	4	4	2	I	1	0	566	1	Ⴇ	cut_g_stereo_44KHz.wav
3	128	1	1	1	C	2	1	764	1	Ⴂ	cut_h_stereo_44KHz.wav
3	129	4	3	2	I	2	0	612	1	Ⴇ	cut_w_stereo_44KHz.wav
3	130	3	4	2	I	1	0	661	1	Ⴁ	cut_g_stereo_44KHz.wav
3	131	1	2	0	C	1	1	872	1	Ⴂ	cut_l_stereo_44KHz.wav
3	132	2	1	0	C	1	1	727	1	Ⴡ	cut_h_stereo_44KHz.wav
3	133	3	3	2	I	2	0	656	1	Ⴁ	cut_w_stereo_44KHz.wav
3	134	2	2	1	C	2	1	899	1	Ⴡ	cut_l_stereo_44KHz.wav
3	135	1	1	1	C	2	1	730	1	Ⴂ	cut_h_stereo_44KHz.wav
3	136	4	4	2	I	1	0	755	0	Ⴇ	cut_g_stereo_44KHz.wav
3	137	3	4	2	I	2	0	779	1	Ⴁ	cut_g_stereo_44KHz.wav
3	138	1	2	0	C	1	1	1024	1	Ⴂ	cut_l_stereo_44KHz.wav
3	139	2	1	0	C	1	1	562	1	Ⴡ	cut_h_stereo_44KHz.wav
3	140	4	4	2	I	2	0	631	0	Ⴇ	cut_g_stereo_44KHz.wav
3	141	1	1	1	C	2	1	846	1	Ⴂ	cut_h_stereo_44KHz.wav
3	142	3	3	2	I	1	0	565	1	Ⴁ	cut_w_stereo_44KHz.wav
3	143	4	3	2	I	1	0	669	0	Ⴇ	cut_w_stereo_44KHz.wav
3	144	2	2	1	C	2	1	723	1	Ⴡ	cut_l_stereo_44KHz.wav
3	145	4	4	2	I	1	0	969	1	Ⴇ	cut_g_stereo_44KHz.wav
3	146	1	2	0	C	1	1	648	1	Ⴂ	cut_l_stereo_44KHz.wav
3	147	2	1	0	C	1	1	707	1	Ⴡ	cut_h_stereo_44KHz.wav
3	148	3	4	2	I	2	0	1181	0	Ⴁ	cut_g_stereo_44KHz.wav
3	149	4	3	2	I	1	0	698	0	Ⴇ	cut_w_stereo_44KHz.wav
3	150	1	1	1	C	2	1	867	1	Ⴂ	cut_h_stereo_44KHz.wav
3	151	2	2	1	C	2	1	1035	1	Ⴡ	cut_l_stereo_44KHz.wav
3	152	3	3	2	I	1	0	785	0	Ⴁ	cut_w_stereo_44KHz.wav
3	153	2	2	1	C	2	1	757	1	Ⴡ	cut_l_stereo_44KHz.wav
3	154	3	3	2	I	1	0	708	0	Ⴁ	cut_w_stereo_44KHz.wav
3	155	4	3	2	I	1	0	637	0	Ⴇ	cut_w_stereo_44KHz.wav
3	156	1	2	0	C	1	1	930	1	Ⴂ	cut_l_stereo_44KHz.wav
3	157	2	1	0	C	1	1	693	1	Ⴡ	cut_h_stereo_44KHz.wav
3	158	1	1	1	C	2	1	670	1	Ⴂ	cut_h_stereo_44KHz.wav
3	159	4	4	2	I	1	0	670	0	Ⴇ	cut_g_stereo_44KHz.wav
3	160	3	4	2	I	1	0	849	1	Ⴁ	cut_g_stereo_44KHz.wav
3	161	4	4	2	I	2	0	573	0	Ⴇ	cut_g_stereo_44KHz.wav
3	162	3	3	2	I	1	0	1187	0	Ⴁ	cut_w_stereo_44KHz.wav
3	163	2	2	1	C	2	1	991	1	Ⴡ	cut_l_stereo_44KHz.wav
3	164	1	2	0	C	1	1	1049	1	Ⴂ	cut_l_stereo_44KHz.wav
3	165	4	3	2	I	1	0	743	0	Ⴇ	cut_w_stereo_44KHz.wav
3	166	3	4	2	I	2	0	578	1	Ⴁ	cut_g_stereo_44KHz.wav
3	167	2	1	0	C	1	1	973	1	Ⴡ	cut_h_stereo_44KHz.wav
3	168	1	1	1	C	2	1	734	1	Ⴂ	cut_h_stereo_44KHz.wav
3	169	3	4	2	I	2	0	944	0	Ⴁ	cut_g_stereo_44KHz.wav
3	170	2	1	0	C	1	1	848	1	Ⴡ	cut_h_stereo_44KHz.wav
3	171	4	4	2	I	2	0	677	1	Ⴇ	cut_g_stereo_44KHz.wav
3	172	1	2	0	C	1	1	704	1	Ⴂ	cut_l_stereo_44KHz.wav
3	173	2	2	1	C	2	1	635	1	Ⴡ	cut_l_stereo_44KHz.wav
3	174	3	3	2	I	2	0	1238	1	Ⴁ	cut_w_stereo_44KHz.wav
3	175	1	1	1	C	2	1	986	1	Ⴂ	cut_h_stereo_44KHz.wav
3	176	4	3	2	I	1	0	951	1	Ⴇ	cut_w_stereo_44KHz.wav
3	177	3	4	2	I	2	0	798	0	Ⴁ	cut_g_stereo_44KHz.wav
3	178	2	2	1	C	2	1	1635	1	Ⴡ	cut_l_stereo_44KHz.wav
3	179	4	3	2	I	2	0	762	0	Ⴇ	cut_w_stereo_44KHz.wav
3	180	1	2	0	C	1	1	850	1	Ⴂ	cut_l_stereo_44KHz.wav
3	181	3	3	2	I	2	0	693	1	Ⴁ	cut_w_stereo_44KHz.wav
3	182	1	1	1	C	2	1	734	1	Ⴂ	cut_h_stereo_44KHz.wav
3	183	4	4	2	I	2	0	725	1	Ⴇ	cut_g_stereo_44KHz.wav
3	184	2	1	0	C	1	1	1015	1	Ⴡ	cut_h_stereo_44KHz.wav
3	185	4	4	2	I	2	0	774	1	Ⴇ	cut_g_stereo_44KHz.wav
3	186	1	1	1	C	2	1	838	1	Ⴂ	cut_h_stereo_44KHz.wav
3	187	2	1	0	C	1	1	558	1	Ⴡ	cut_h_stereo_44KHz.wav
3	188	3	4	2	I	2	0	741	0	Ⴁ	cut_g_stereo_44KHz.wav
3	189	4	3	2	I	1	0	485	1	Ⴇ	cut_w_stereo_44KHz.wav
3	190	1	2	0	C	1	1	732	1	Ⴂ	cut_l_stereo_44KHz.wav
3	191	3	3	2	I	2	0	723	0	Ⴁ	cut_w_stereo_44KHz.wav
3	192	2	2	1	C	2	1	879	1	Ⴡ	cut_l_stereo_44KHz.wav
3	193	1	2	0	C	1	1	803	1	Ⴂ	cut_l_stereo_44KHz.wav
3	194	3	4	2	I	2	0	719	0	Ⴁ	cut_g_stereo_44KHz.wav
3	195	4	4	2	I	1	0	687	0	Ⴇ	cut_g_stereo_44KHz.wav
3	196	2	1	0	C	1	1	1223	1	Ⴡ	cut_h_stereo_44KHz.wav
3	197	4	3	2	I	1	0	1058	1	Ⴇ	cut_w_stereo_44KHz.wav
3	198	1	1	1	C	2	1	1102	1	Ⴂ	cut_h_stereo_44KHz.wav
3	199	3	3	2	I	2	0	666	1	Ⴁ	cut_w_stereo_44KHz.wav
3	200	2	2	1	C	2	1	1303	1	Ⴡ	cut_l_stereo_44KHz.wav
4	1	2	1	0	C	2	0	1060	0	Ⴉ	cut_s_stereo_44KHz.wav
4	2	4	4	2	I	2	0	663	1	Ⴒ	cut_j_stereo_44KHz.wav
4	3	3	3	2	I	2	0	678	0	Ⴔ	cut_f_stereo_44KHz.wav
4	4	1	2	0	C	2	0	620	0	Ⴐ	cut_n_stereo_44KHz.wav
4	5	2	2	1	C	2	1	822	1	Ⴉ	cut_n_stereo_44KHz.wav
4	6	3	4	2	I	1	0	739	0	Ⴔ	cut_j_stereo_44KHz.wav
4	7	4	3	2	I	1	0	755	0	Ⴒ	cut_f_stereo_44KHz.wav
4	8	1	1	1	C	2	1	497	1	Ⴐ	cut_s_stereo_44KHz.wav
4	9	3	4	2	I	2	0	791	1	Ⴔ	cut_j_stereo_44KHz.wav
4	10	1	2	0	C	2	0	1126	0	Ⴐ	cut_n_stereo_44KHz.wav
4	11	2	1	0	C	1	1	741	1	Ⴉ	cut_s_stereo_44KHz.wav
4	12	4	3	2	I	1	0	784	1	Ⴒ	cut_f_stereo_44KHz.wav
4	13	1	1	1	C	2	1	827	1	Ⴐ	cut_s_stereo_44KHz.wav
4	14	2	2	1	C	2	1	719	1	Ⴉ	cut_n_stereo_44KHz.wav
4	15	3	3	2	I	2	0	983	0	Ⴔ	cut_f_stereo_44KHz.wav
4	16	4	4	2	I	2	0	1465	1	Ⴒ	cut_j_stereo_44KHz.wav
4	17	2	1	0	C	1	1	627	1	Ⴉ	cut_s_stereo_44KHz.wav
4	18	3	3	2	I	1	0	794	1	Ⴔ	cut_f_stereo_44KHz.wav
4	19	1	1	1	C	2	1	746	1	Ⴐ	cut_s_stereo_44KHz.wav
4	20	4	4	2	I	1	0	682	1	Ⴒ	cut_j_stereo_44KHz.wav
4	21	1	2	0	C	2	0	685	0	Ⴐ	cut_n_stereo_44KHz.wav
4	22	3	4	2	I	2	0	730	0	Ⴔ	cut_j_stereo_44KHz.wav
4	23	2	2	1	C	2	1	626	1	Ⴉ	cut_n_stereo_44KHz.wav
4	24	4	3	2	I	2	0	892	0	Ⴒ	cut_f_stereo_44KHz.wav
4	25	3	4	2	I	2	0	1163	0	Ⴔ	cut_j_stereo_44KHz.wav
4	26	1	2	0	C	1	1	612	1	Ⴐ	cut_n_stereo_44KHz.wav
4	27	4	4	2	I	2	0	1083	0	Ⴒ	cut_j_stereo_44KHz.wav
4	28	2	2	1	C	2	1	738	1	Ⴉ	cut_n_stereo_44KHz.wav
4	29	1	1	1	C	2	1	1287	1	Ⴐ	cut_s_stereo_44KHz.wav
4	30	4	3	2	I	2	0	1079	1	Ⴒ	cut_f_stereo_44KHz.wav
4	31	2	1	0	C	1	1	742	1	Ⴉ	cut_s_stereo_44KHz.wav
4	32	3	3	2	I	1	0	981	0	Ⴔ	cut_f_stereo_44KHz.wav
4	33	2	2	1	C	2	1	631	1	Ⴉ	cut_n_stereo_44KHz.wav
4	34	4	4	2	I	1	0	1118	1	Ⴒ	cut_j_stereo_44KHz.wav
4	35	1	2	0	C	1	1	799	1	Ⴐ	cut_n_stereo_44KHz.wav
4	36	3	4	2	I	2	0	690	1	Ⴔ	cut_j_stereo_44KHz.wav
4	37	1	1	1	C	2	1	851	1	Ⴐ	cut_s_stereo_44KHz.wav
4	38	2	1	0	C	1	1	675	1	Ⴉ	cut_s_stereo_44KHz.wav
4	39	3	3	2	I	1	0	815	1	Ⴔ	cut_f_stereo_44KHz.wav
4	40	4	3	2	I	0	0	0	0	Ⴒ	cut_f_stereo_44KHz.wav
4	41	2	1	0	C	1	1	644	1	Ⴉ	cut_s_stereo_44KHz.wav
4	42	3	4	2	I	2	0	790	1	Ⴔ	cut_j_stereo_44KHz.wav
4	43	4	3	2	I	2	0	776	1	Ⴒ	cut_f_stereo_44KHz.wav
4	44	1	1	1	C	2	1	711	1	Ⴐ	cut_s_stereo_44KHz.wav
4	45	2	2	1	C	2	1	698	1	Ⴉ	cut_n_stereo_44KHz.wav
4	46	1	2	0	C	2	0	583	0	Ⴐ	cut_n_stereo_44KHz.wav
4	47	4	4	2	I	1	0	915	1	Ⴒ	cut_j_stereo_44KHz.wav
4	48	3	3	2	I	1	0	770	1	Ⴔ	cut_f_stereo_44KHz.wav
4	49	2	2	1	C	2	1	601	1	Ⴉ	cut_n_stereo_44KHz.wav
4	50	3	3	2	I	1	0	670	0	Ⴔ	cut_f_stereo_44KHz.wav
4	51	4	3	2	I	2	0	623	0	Ⴒ	cut_f_stereo_44KHz.wav
4	52	1	1	1	C	2	1	752	1	Ⴐ	cut_s_stereo_44KHz.wav
4	53	3	4	2	I	2	0	783	1	Ⴔ	cut_j_stereo_44KHz.wav
4	54	4	4	2	I	1	0	751	0	Ⴒ	cut_j_stereo_44KHz.wav
4	55	1	2	0	C	1	1	925	1	Ⴐ	cut_n_stereo_44KHz.wav
4	56	2	1	0	C	1	1	720	1	Ⴉ	cut_s_stereo_44KHz.wav
4	57	3	4	2	I	2	0	771	0	Ⴔ	cut_j_stereo_44KHz.wav
4	58	2	2	1	C	1	0	811	0	Ⴉ	cut_n_stereo_44KHz.wav
4	59	1	1	1	C	2	1	976	1	Ⴐ	cut_s_stereo_44KHz.wav
4	60	4	4	2	I	2	0	977	0	Ⴒ	cut_j_stereo_44KHz.wav
4	61	1	2	0	C	1	1	928	1	Ⴐ	cut_n_stereo_44KHz.wav
4	62	3	3	2	I	1	0	1188	1	Ⴔ	cut_f_stereo_44KHz.wav
4	63	4	3	2	I	2	0	801	1	Ⴒ	cut_f_stereo_44KHz.wav
4	64	2	1	0	C	1	1	675	1	Ⴉ	cut_s_stereo_44KHz.wav
4	65	3	4	2	I	2	0	719	0	Ⴔ	cut_j_stereo_44KHz.wav
4	66	1	2	0	C	1	1	977	1	Ⴐ	cut_n_stereo_44KHz.wav
4	67	4	3	2	I	1	0	812	1	Ⴒ	cut_f_stereo_44KHz.wav
4	68	2	2	1	C	2	1	851	1	Ⴉ	cut_n_stereo_44KHz.wav
4	69	1	1	1	C	2	1	726	1	Ⴐ	cut_s_stereo_44KHz.wav
4	70	4	4	2	I	1	0	814	1	Ⴒ	cut_j_stereo_44KHz.wav
4	71	3	3	2	I	2	0	812	0	Ⴔ	cut_f_stereo_44KHz.wav
4	72	2	1	0	C	1	1	561	1	Ⴉ	cut_s_stereo_44KHz.wav
4	73	3	4	2	I	2	0	694	1	Ⴔ	cut_j_stereo_44KHz.wav
4	74	1	2	0	C	1	1	736	1	Ⴐ	cut_n_stereo_44KHz.wav
4	75	2	1	0	C	1	1	632	1	Ⴉ	cut_s_stereo_44KHz.wav
4	76	4	4	2	I	1	0	965	1	Ⴒ	cut_j_stereo_44KHz.wav
4	77	1	1	1	C	2	1	1009	1	Ⴐ	cut_s_stereo_44KHz.wav
4	78	3	3	2	I	1	0	725	1	Ⴔ	cut_f_stereo_44KHz.wav
4	79	4	3	2	I	2	0	746	1	Ⴒ	cut_f_stereo_44KHz.wav
4	80	2	2	1	C	2	1	839	1	Ⴉ	cut_n_stereo_44KHz.wav
4	81	4	3	2	I	2	0	1079	0	Ⴒ	cut_f_stereo_44KHz.wav
4	82	3	4	2	I	2	0	1134	1	Ⴔ	cut_j_stereo_44KHz.wav
4	83	2	1	0	C	1	1	612	1	Ⴉ	cut_s_stereo_44KHz.wav
4	84	1	1	1	C	2	1	992	1	Ⴐ	cut_s_stereo_44KHz.wav
4	85	4	4	2	I	1	0	1203	1	Ⴒ	cut_j_stereo_44KHz.wav
4	86	3	3	2	I	1	0	697	0	Ⴔ	cut_f_stereo_44KHz.wav
4	87	2	2	1	C	2	1	738	1	Ⴉ	cut_n_stereo_44KHz.wav
4	88	1	2	0	C	1	1	703	1	Ⴐ	cut_n_stereo_44KHz.wav
4	89	4	4	2	I	2	0	654	1	Ⴒ	cut_j_stereo_44KHz.wav
4	90	3	4	2	I	1	0	919	0	Ⴔ	cut_j_stereo_44KHz.wav
4	91	1	2	0	C	1	1	725	1	Ⴐ	cut_n_stereo_44KHz.wav
4	92	2	1	0	C	1	1	845	1	Ⴉ	cut_s_stereo_44KHz.wav
4	93	1	1	1	C	2	1	641	1	Ⴐ	cut_s_stereo_44KHz.wav
4	94	2	2	1	C	2	1	775	1	Ⴉ	cut_n_stereo_44KHz.wav
4	95	4	3	2	I	2	0	817	0	Ⴒ	cut_f_stereo_44KHz.wav
4	96	3	3	2	I	1	0	609	0	Ⴔ	cut_f_stereo_44KHz.wav
4	97	4	4	2	I	1	0	741	0	Ⴒ	cut_j_stereo_44KHz.wav
4	98	2	2	1	C	2	1	754	1	Ⴉ	cut_n_stereo_44KHz.wav
4	99	1	1	1	C	2	1	792	1	Ⴐ	cut_s_stereo_44KHz.wav
4	100	3	4	2	I	1	0	723	0	Ⴔ	cut_j_stereo_44KHz.wav
4	101	1	2	0	C	1	1	1163	1	Ⴐ	cut_n_stereo_44KHz.wav
4	102	4	3	2	I	1	0	1271	0	Ⴒ	cut_f_stereo_44KHz.wav
4	103	2	1	0	C	1	1	642	1	Ⴉ	cut_s_stereo_44KHz.wav
4	104	3	3	2	I	2	0	737	1	Ⴔ	cut_f_stereo_44KHz.wav
4	105	1	1	1	C	2	1	746	1	Ⴐ	cut_s_stereo_44KHz.wav
4	106	3	3	2	I	1	0	1082	0	Ⴔ	cut_f_stereo_44KHz.wav
4	107	2	2	1	C	2	1	690	1	Ⴉ	cut_n_stereo_44KHz.wav
4	108	4	3	2	I	2	0	771	0	Ⴒ	cut_f_stereo_44KHz.wav
4	109	1	2	0	C	1	1	1130	1	Ⴐ	cut_n_stereo_44KHz.wav
4	110	4	4	2	I	1	0	945	1	Ⴒ	cut_j_stereo_44KHz.wav
4	111	2	1	0	C	1	1	633	1	Ⴉ	cut_s_stereo_44KHz.wav
4	112	3	4	2	I	1	0	636	1	Ⴔ	cut_j_stereo_44KHz.wav
4	113	4	3	2	I	2	0	895	0	Ⴒ	cut_f_stereo_44KHz.wav
4	114	2	1	0	C	1	1	1312	1	Ⴉ	cut_s_stereo_44KHz.wav
4	115	1	1	1	C	2	1	923	1	Ⴐ	cut_s_stereo_44KHz.wav
4	116	3	3	2	I	1	0	829	1	Ⴔ	cut_f_stereo_44KHz.wav
4	117	2	2	1	C	2	1	686	1	Ⴉ	cut_n_stereo_44KHz.wav
4	118	1	2	0	C	1	1	1259	1	Ⴐ	cut_n_stereo_44KHz.wav
4	119	3	4	2	I	1	0	1038	0	Ⴔ	cut_j_stereo_44KHz.wav
4	120	4	4	2	I	1	0	959	1	Ⴒ	cut_j_stereo_44KHz.wav
4	121	1	1	1	C	2	1	900	1	Ⴐ	cut_s_stereo_44KHz.wav
4	122	2	1	0	C	1	1	812	1	Ⴉ	cut_s_stereo_44KHz.wav
4	123	3	4	2	I	2	0	707	0	Ⴔ	cut_j_stereo_44KHz.wav
4	124	4	3	2	I	1	0	722	0	Ⴒ	cut_f_stereo_44KHz.wav
4	125	1	2	0	C	2	0	669	0	Ⴐ	cut_n_stereo_44KHz.wav
4	126	2	2	1	C	2	1	650	1	Ⴉ	cut_n_stereo_44KHz.wav
4	127	4	4	2	I	1	0	810	0	Ⴒ	cut_j_stereo_44KHz.wav
4	128	3	3	2	I	1	0	666	1	Ⴔ	cut_f_stereo_44KHz.wav
4	129	2	2	1	C	2	1	774	1	Ⴉ	cut_n_stereo_44KHz.wav
4	130	3	4	2	I	1	0	662	1	Ⴔ	cut_j_stereo_44KHz.wav
4	131	1	1	1	C	2	1	829	1	Ⴐ	cut_s_stereo_44KHz.wav
4	132	4	3	2	I	1	0	822	1	Ⴒ	cut_f_stereo_44KHz.wav
4	133	1	2	0	C	1	1	1163	1	Ⴐ	cut_n_stereo_44KHz.wav
4	134	4	4	2	I	1	0	1106	1	Ⴒ	cut_j_stereo_44KHz.wav
4	135	3	3	2	I	1	0	752	1	Ⴔ	cut_f_stereo_44KHz.wav
4	136	2	1	0	C	1	1	1261	1	Ⴉ	cut_s_stereo_44KHz.wav
4	137	3	4	2	I	1	0	1027	0	Ⴔ	cut_j_stereo_44KHz.wav
4	138	1	1	1	C	2	1	1233	1	Ⴐ	cut_s_stereo_44KHz.wav
4	139	4	4	2	I	1	0	1213	0	Ⴒ	cut_j_stereo_44KHz.wav
4	140	2	2	1	C	2	1	1270	1	Ⴉ	cut_n_stereo_44KHz.wav
4	141	4	3	2	I	1	0	953	0	Ⴒ	cut_f_stereo_44KHz.wav
4	142	1	2	0	C	1	1	1114	1	Ⴐ	cut_n_stereo_44KHz.wav
4	143	2	1	0	C	1	1	1020	1	Ⴉ	cut_s_stereo_44KHz.wav
4	144	3	3	2	I	1	0	810	0	Ⴔ	cut_f_stereo_44KHz.wav
4	145	1	1	1	C	2	1	867	1	Ⴐ	cut_s_stereo_44KHz.wav
4	146	3	4	2	I	1	0	735	0	Ⴔ	cut_j_stereo_44KHz.wav
4	147	2	1	0	C	1	1	658	1	Ⴉ	cut_s_stereo_44KHz.wav
4	148	4	3	2	I	2	0	908	1	Ⴒ	cut_f_stereo_44KHz.wav
4	149	2	2	1	C	2	1	1089	1	Ⴉ	cut_n_stereo_44KHz.wav
4	150	3	3	2	I	1	0	726	1	Ⴔ	cut_f_stereo_44KHz.wav
4	151	1	2	0	C	1	1	1756	1	Ⴐ	cut_n_stereo_44KHz.wav
4	152	4	4	2	I	1	0	1469	0	Ⴒ	cut_j_stereo_44KHz.wav
4	153	3	3	2	I	1	0	751	1	Ⴔ	cut_f_stereo_44KHz.wav
4	154	2	1	0	C	1	1	782	1	Ⴉ	cut_s_stereo_44KHz.wav
4	155	4	3	2	I	2	0	747	0	Ⴒ	cut_f_stereo_44KHz.wav
4	156	1	1	1	C	2	1	707	1	Ⴐ	cut_s_stereo_44KHz.wav
4	157	2	2	1	C	2	1	654	1	Ⴉ	cut_n_stereo_44KHz.wav
4	158	3	4	2	I	1	0	808	1	Ⴔ	cut_j_stereo_44KHz.wav
4	159	1	2	0	C	2	0	781	0	Ⴐ	cut_n_stereo_44KHz.wav
4	160	4	4	2	I	2	0	787	1	Ⴒ	cut_j_stereo_44KHz.wav
4	161	1	1	1	C	2	1	1327	1	Ⴐ	cut_s_stereo_44KHz.wav
4	162	3	3	2	I	1	0	701	1	Ⴔ	cut_f_stereo_44KHz.wav
4	163	4	3	2	I	2	0	799	0	Ⴒ	cut_f_stereo_44KHz.wav
4	164	2	1	0	C	1	1	901	1	Ⴉ	cut_s_stereo_44KHz.wav
4	165	3	4	2	I	2	0	1058	0	Ⴔ	cut_j_stereo_44KHz.wav
4	166	4	4	2	I	1	0	936	0	Ⴒ	cut_j_stereo_44KHz.wav
4	167	2	2	1	C	2	1	1112	1	Ⴉ	cut_n_stereo_44KHz.wav
4	168	1	2	0	C	0	0	0	0	Ⴐ	cut_n_stereo_44KHz.wav
4	169	2	2	1	C	2	1	1048	1	Ⴉ	cut_n_stereo_44KHz.wav
4	170	4	4	2	I	1	0	925	0	Ⴒ	cut_j_stereo_44KHz.wav
4	171	3	4	2	I	1	0	1165	1	Ⴔ	cut_j_stereo_44KHz.wav
4	172	1	1	1	C	2	1	825	1	Ⴐ	cut_s_stereo_44KHz.wav
4	173	3	3	2	I	1	0	1139	0	Ⴔ	cut_f_stereo_44KHz.wav
4	174	4	3	2	I	2	0	715	1	Ⴒ	cut_f_stereo_44KHz.wav
4	175	1	2	0	C	1	1	1338	1	Ⴐ	cut_n_stereo_44KHz.wav
4	176	2	1	0	C	1	1	789	1	Ⴉ	cut_s_stereo_44KHz.wav
4	177	4	3	2	I	2	0	610	1	Ⴒ	cut_f_stereo_44KHz.wav
4	178	1	1	1	C	1	0	614	0	Ⴐ	cut_s_stereo_44KHz.wav
4	179	2	1	0	C	1	1	655	1	Ⴉ	cut_s_stereo_44KHz.wav
4	180	3	3	2	I	1	0	1115	0	Ⴔ	cut_f_stereo_44KHz.wav
4	181	4	4	2	I	1	0	798	1	Ⴒ	cut_j_stereo_44KHz.wav
4	182	1	2	0	C	1	1	1005	1	Ⴐ	cut_n_stereo_44KHz.wav
4	183	2	2	1	C	2	1	705	1	Ⴉ	cut_n_stereo_44KHz.wav
4	184	3	4	2	I	1	0	692	0	Ⴔ	cut_j_stereo_44KHz.wav
4	185	4	4	2	I	1	0	522	0	Ⴒ	cut_j_stereo_44KHz.wav
4	186	1	1	1	C	2	1	761	1	Ⴐ	cut_s_stereo_44KHz.wav
4	187	3	3	2	I	2	0	683	1	Ⴔ	cut_f_stereo_44KHz.wav
4	188	2	1	0	C	1	1	636	1	Ⴉ	cut_s_stereo_44KHz.wav
4	189	4	3	2	I	1	0	665	1	Ⴒ	cut_f_stereo_44KHz.wav
4	190	1	2	0	C	1	1	860	1	Ⴐ	cut_n_stereo_44KHz.wav
4	191	2	2	1	C	2	1	1058	1	Ⴉ	cut_n_stereo_44KHz.wav
4	192	3	4	2	I	1	0	981	1	Ⴔ	cut_j_stereo_44KHz.wav
4	193	4	4	2	I	1	0	744	0	Ⴒ	cut_j_stereo_44KHz.wav
4	194	2	2	1	C	2	1	1064	1	Ⴉ	cut_n_stereo_44KHz.wav
4	195	1	1	1	C	2	1	1146	1	Ⴐ	cut_s_stereo_44KHz.wav
4	196	3	4	2	I	1	0	1722	1	Ⴔ	cut_j_stereo_44KHz.wav
4	197	1	2	0	C	1	1	1320	1	Ⴐ	cut_n_stereo_44KHz.wav
4	198	4	3	2	I	1	0	1887	0	Ⴒ	cut_f_stereo_44KHz.wav
4	199	3	3	2	I	1	0	1125	0	Ⴔ	cut_f_stereo_44KHz.wav
4	200	2	1	0	C	1	1	1156	1	Ⴉ	cut_s_stereo_44KHz.wav
