block	trial	Vstim	Astim	match	C/I	resp	.result	RT	fb	V-file	A-file
RL

0	1	1	2	0	C	2	1	1710	1	Ⴋ	cut_ee_stereo_44KHz.wav
0	2	2	3	1	C	1	1	819	1	Ⴢ	cut_oo_stereo_44KHz.wav
0	3	1	1	1	C	1	1	1359	1	Ⴋ	cut_g_stereo_44KHz.wav
0	4	2	4	0	C	2	1	863	1	Ⴢ	cut_eeuw_stereo_44KHz.wav
0	5	2	4	0	C	2	1	701	1	Ⴢ	cut_eeuw_stereo_44KHz.wav
0	6	2	3	1	C	1	1	988	1	Ⴢ	cut_oo_stereo_44KHz.wav
0	7	1	1	1	C	1	1	855	1	Ⴋ	cut_g_stereo_44KHz.wav
0	8	1	2	0	C	2	1	809	1	Ⴋ	cut_ee_stereo_44KHz.wav
0	9	2	3	1	C	1	1	1378	1	Ⴢ	cut_oo_stereo_44KHz.wav
0	10	2	4	0	C	2	1	973	1	Ⴢ	cut_eeuw_stereo_44KHz.wav
0	11	1	2	0	C	2	1	422	1	Ⴋ	cut_ee_stereo_44KHz.wav
0	12	1	1	1	C	1	1	719	1	Ⴋ	cut_g_stereo_44KHz.wav
0	13	2	3	1	C	1	1	1008	1	Ⴢ	cut_oo_stereo_44KHz.wav
0	14	2	4	0	C	2	1	661	1	Ⴢ	cut_eeuw_stereo_44KHz.wav
0	15	1	1	1	C	1	1	724	1	Ⴋ	cut_g_stereo_44KHz.wav
0	16	1	2	0	C	2	1	780	1	Ⴋ	cut_ee_stereo_44KHz.wav
0	17	1	1	1	C	1	1	802	1	Ⴋ	cut_g_stereo_44KHz.wav
0	18	2	3	1	C	1	1	787	1	Ⴢ	cut_oo_stereo_44KHz.wav
0	19	1	2	0	C	2	1	556	1	Ⴋ	cut_ee_stereo_44KHz.wav
0	20	2	4	0	C	1	0	502	0	Ⴢ	cut_eeuw_stereo_44KHz.wav
0	21	1	1	1	C	1	1	1293	1	Ⴋ	cut_g_stereo_44KHz.wav
0	22	2	4	0	C	2	1	700	1	Ⴢ	cut_eeuw_stereo_44KHz.wav
0	23	1	2	0	C	2	1	739	1	Ⴋ	cut_ee_stereo_44KHz.wav
0	24	2	3	1	C	1	1	890	1	Ⴢ	cut_oo_stereo_44KHz.wav
0	25	1	2	0	C	2	1	546	1	Ⴋ	cut_ee_stereo_44KHz.wav
0	26	1	1	1	C	1	1	590	1	Ⴋ	cut_g_stereo_44KHz.wav
0	27	2	4	0	C	2	1	888	1	Ⴢ	cut_eeuw_stereo_44KHz.wav
0	28	2	3	1	C	1	1	978	1	Ⴢ	cut_oo_stereo_44KHz.wav
0	29	1	1	1	C	1	1	783	1	Ⴋ	cut_g_stereo_44KHz.wav
0	30	2	3	1	C	1	1	764	1	Ⴢ	cut_oo_stereo_44KHz.wav
avg_resp = 865
1	1	2	2	1	C	2	0	1225	0	Ⴐ	cut_l_stereo_44KHz.wav
1	2	1	2	0	C	2	1	1029	1	Ⴌ	cut_l_stereo_44KHz.wav
1	3	4	4	2	I	2	0	1146	0	Ⴖ	cut_w_stereo_44KHz.wav
1	4	3	3	2	I	2	0	1178	1	Ⴔ	cut_g_stereo_44KHz.wav
1	5	4	3	2	I	1	0	1002	0	Ⴖ	cut_g_stereo_44KHz.wav
1	6	1	1	1	C	1	1	1334	1	Ⴌ	cut_h_stereo_44KHz.wav
1	7	3	4	2	I	2	0	1091	0	Ⴔ	cut_w_stereo_44KHz.wav
1	8	2	1	0	C	1	0	1607	0	Ⴐ	cut_h_stereo_44KHz.wav
1	9	4	4	2	I	2	0	847	0	Ⴖ	cut_w_stereo_44KHz.wav
1	10	1	2	0	C	2	1	1147	1	Ⴌ	cut_l_stereo_44KHz.wav
1	11	2	1	0	C	2	1	1119	1	Ⴐ	cut_h_stereo_44KHz.wav
1	12	3	3	2	I	2	0	974	1	Ⴔ	cut_g_stereo_44KHz.wav
1	13	1	1	1	C	1	1	1174	1	Ⴌ	cut_h_stereo_44KHz.wav
1	14	4	3	2	I	2	0	1212	1	Ⴖ	cut_g_stereo_44KHz.wav
1	15	2	2	1	C	1	1	1144	1	Ⴐ	cut_l_stereo_44KHz.wav
1	16	3	4	2	I	2	0	1135	1	Ⴔ	cut_w_stereo_44KHz.wav
1	17	1	2	0	C	2	1	1399	1	Ⴌ	cut_l_stereo_44KHz.wav
1	18	3	4	2	I	2	0	981	1	Ⴔ	cut_w_stereo_44KHz.wav
1	19	2	2	1	C	2	0	917	0	Ⴐ	cut_l_stereo_44KHz.wav
1	20	4	3	2	I	2	0	1141	1	Ⴖ	cut_g_stereo_44KHz.wav
1	21	1	1	1	C	1	1	801	1	Ⴌ	cut_h_stereo_44KHz.wav
1	22	2	1	0	C	2	1	1131	1	Ⴐ	cut_h_stereo_44KHz.wav
1	23	3	3	2	I	1	0	1686	1	Ⴔ	cut_g_stereo_44KHz.wav
1	24	4	4	2	I	1	0	1483	1	Ⴖ	cut_w_stereo_44KHz.wav
1	25	2	1	0	C	2	1	1074	1	Ⴐ	cut_h_stereo_44KHz.wav
1	26	3	4	2	I	2	0	952	1	Ⴔ	cut_w_stereo_44KHz.wav
1	27	4	4	2	I	1	0	1842	0	Ⴖ	cut_w_stereo_44KHz.wav
1	28	1	2	0	C	2	1	1028	1	Ⴌ	cut_l_stereo_44KHz.wav
1	29	2	2	1	C	1	1	1316	1	Ⴐ	cut_l_stereo_44KHz.wav
1	30	3	3	2	I	2	0	720	0	Ⴔ	cut_g_stereo_44KHz.wav
1	31	1	1	1	C	1	1	1021	1	Ⴌ	cut_h_stereo_44KHz.wav
1	32	4	3	2	I	2	0	1217	0	Ⴖ	cut_g_stereo_44KHz.wav
1	33	1	1	1	C	1	1	1089	1	Ⴌ	cut_h_stereo_44KHz.wav
1	34	2	1	0	C	1	0	1729	0	Ⴐ	cut_h_stereo_44KHz.wav
1	35	4	4	2	I	2	0	1272	1	Ⴖ	cut_w_stereo_44KHz.wav
1	36	3	4	2	I	1	0	1053	0	Ⴔ	cut_w_stereo_44KHz.wav
1	37	4	3	2	I	2	0	1179	1	Ⴖ	cut_g_stereo_44KHz.wav
1	38	1	2	0	C	2	1	1370	1	Ⴌ	cut_l_stereo_44KHz.wav
1	39	2	2	1	C	1	1	989	1	Ⴐ	cut_l_stereo_44KHz.wav
1	40	3	3	2	I	2	0	1098	1	Ⴔ	cut_g_stereo_44KHz.wav
1	41	4	3	2	I	1	0	1808	1	Ⴖ	cut_g_stereo_44KHz.wav
1	42	1	1	1	C	1	1	1672	1	Ⴌ	cut_h_stereo_44KHz.wav
1	43	2	1	0	C	2	1	858	1	Ⴐ	cut_h_stereo_44KHz.wav
1	44	3	3	2	I	2	0	1334	1	Ⴔ	cut_g_stereo_44KHz.wav
1	45	2	2	1	C	1	1	1336	1	Ⴐ	cut_l_stereo_44KHz.wav
1	46	3	4	2	I	2	0	1245	1	Ⴔ	cut_w_stereo_44KHz.wav
1	47	1	2	0	C	2	1	1201	1	Ⴌ	cut_l_stereo_44KHz.wav
1	48	4	4	2	I	2	0	1190	1	Ⴖ	cut_w_stereo_44KHz.wav
1	49	1	1	1	C	1	1	954	1	Ⴌ	cut_h_stereo_44KHz.wav
1	50	4	4	2	I	2	0	690	1	Ⴖ	cut_w_stereo_44KHz.wav
1	51	3	4	2	I	2	0	884	1	Ⴔ	cut_w_stereo_44KHz.wav
1	52	2	2	1	C	2	0	1361	0	Ⴐ	cut_l_stereo_44KHz.wav
1	53	1	2	0	C	2	1	513	1	Ⴌ	cut_l_stereo_44KHz.wav
1	54	4	3	2	I	2	0	1010	1	Ⴖ	cut_g_stereo_44KHz.wav
1	55	2	1	0	C	2	1	1722	1	Ⴐ	cut_h_stereo_44KHz.wav
1	56	3	3	2	I	2	0	955	0	Ⴔ	cut_g_stereo_44KHz.wav
1	57	2	2	1	C	2	0	885	0	Ⴐ	cut_l_stereo_44KHz.wav
1	58	3	3	2	I	2	0	1056	0	Ⴔ	cut_g_stereo_44KHz.wav
1	59	4	4	2	I	2	0	840	1	Ⴖ	cut_w_stereo_44KHz.wav
1	60	1	2	0	C	2	1	1064	1	Ⴌ	cut_l_stereo_44KHz.wav
1	61	4	3	2	I	2	0	1091	0	Ⴖ	cut_g_stereo_44KHz.wav
1	62	3	4	2	I	1	0	1220	1	Ⴔ	cut_w_stereo_44KHz.wav
1	63	2	1	0	C	1	0	1590	0	Ⴐ	cut_h_stereo_44KHz.wav
1	64	1	1	1	C	1	1	945	1	Ⴌ	cut_h_stereo_44KHz.wav
1	65	3	3	2	I	2	0	1214	1	Ⴔ	cut_g_stereo_44KHz.wav
1	66	4	3	2	I	2	0	1069	1	Ⴖ	cut_g_stereo_44KHz.wav
1	67	1	1	1	C	1	1	873	1	Ⴌ	cut_h_stereo_44KHz.wav
1	68	2	2	1	C	1	1	1149	1	Ⴐ	cut_l_stereo_44KHz.wav
1	69	4	4	2	I	2	0	1320	1	Ⴖ	cut_w_stereo_44KHz.wav
1	70	3	4	2	I	2	0	1049	0	Ⴔ	cut_w_stereo_44KHz.wav
1	71	1	2	0	C	2	1	1101	1	Ⴌ	cut_l_stereo_44KHz.wav
1	72	2	1	0	C	2	1	586	1	Ⴐ	cut_h_stereo_44KHz.wav
1	73	1	2	0	C	2	1	1488	1	Ⴌ	cut_l_stereo_44KHz.wav
1	74	2	1	0	C	2	1	1168	1	Ⴐ	cut_h_stereo_44KHz.wav
1	75	4	3	2	I	2	0	1274	1	Ⴖ	cut_g_stereo_44KHz.wav
1	76	3	3	2	I	2	0	1102	1	Ⴔ	cut_g_stereo_44KHz.wav
1	77	4	4	2	I	2	0	776	0	Ⴖ	cut_w_stereo_44KHz.wav
1	78	2	2	1	C	1	1	1583	1	Ⴐ	cut_l_stereo_44KHz.wav
1	79	1	1	1	C	1	1	900	1	Ⴌ	cut_h_stereo_44KHz.wav
1	80	3	4	2	I	2	0	809	1	Ⴔ	cut_w_stereo_44KHz.wav
1	81	1	1	1	C	1	1	1280	1	Ⴌ	cut_h_stereo_44KHz.wav
1	82	3	4	2	I	2	0	960	0	Ⴔ	cut_w_stereo_44KHz.wav
1	83	4	4	2	I	2	0	728	1	Ⴖ	cut_w_stereo_44KHz.wav
1	84	2	2	1	C	2	0	1260	0	Ⴐ	cut_l_stereo_44KHz.wav
1	85	3	3	2	I	2	0	1341	0	Ⴔ	cut_g_stereo_44KHz.wav
1	86	2	1	0	C	2	1	885	1	Ⴐ	cut_h_stereo_44KHz.wav
1	87	4	3	2	I	2	0	784	0	Ⴖ	cut_g_stereo_44KHz.wav
1	88	1	2	0	C	2	1	1281	1	Ⴌ	cut_l_stereo_44KHz.wav
1	89	4	4	2	I	2	0	929	0	Ⴖ	cut_w_stereo_44KHz.wav
1	90	1	2	0	C	2	1	944	1	Ⴌ	cut_l_stereo_44KHz.wav
1	91	2	1	0	C	2	1	825	1	Ⴐ	cut_h_stereo_44KHz.wav
1	92	3	3	2	I	2	0	1243	1	Ⴔ	cut_g_stereo_44KHz.wav
1	93	1	1	1	C	1	1	883	1	Ⴌ	cut_h_stereo_44KHz.wav
1	94	3	4	2	I	2	0	1159	0	Ⴔ	cut_w_stereo_44KHz.wav
1	95	2	2	1	C	2	0	1109	0	Ⴐ	cut_l_stereo_44KHz.wav
1	96	4	3	2	I	2	0	1355	0	Ⴖ	cut_g_stereo_44KHz.wav
1	97	1	2	0	C	2	1	928	1	Ⴌ	cut_l_stereo_44KHz.wav
1	98	4	3	2	I	2	0	1271	0	Ⴖ	cut_g_stereo_44KHz.wav
1	99	3	3	2	I	2	0	629	1	Ⴔ	cut_g_stereo_44KHz.wav
1	100	2	2	1	C	2	0	1179	0	Ⴐ	cut_l_stereo_44KHz.wav
1	101	1	1	1	C	1	1	905	1	Ⴌ	cut_h_stereo_44KHz.wav
1	102	4	4	2	I	2	0	1144	1	Ⴖ	cut_w_stereo_44KHz.wav
1	103	3	4	2	I	1	0	945	0	Ⴔ	cut_w_stereo_44KHz.wav
1	104	2	1	0	C	2	1	1176	1	Ⴐ	cut_h_stereo_44KHz.wav
1	105	3	4	2	I	2	0	674	0	Ⴔ	cut_w_stereo_44KHz.wav
1	106	4	3	2	I	1	0	1542	0	Ⴖ	cut_g_stereo_44KHz.wav
1	107	2	1	0	C	2	1	1004	1	Ⴐ	cut_h_stereo_44KHz.wav
1	108	1	2	0	C	2	1	1656	1	Ⴌ	cut_l_stereo_44KHz.wav
1	109	4	4	2	I	2	0	1145	1	Ⴖ	cut_w_stereo_44KHz.wav
1	110	2	2	1	C	1	1	1865	1	Ⴐ	cut_l_stereo_44KHz.wav
1	111	1	1	1	C	1	1	1670	1	Ⴌ	cut_h_stereo_44KHz.wav
1	112	3	3	2	I	2	0	1069	1	Ⴔ	cut_g_stereo_44KHz.wav
1	113	4	4	2	I	2	0	920	1	Ⴖ	cut_w_stereo_44KHz.wav
1	114	1	1	1	C	1	1	1037	1	Ⴌ	cut_h_stereo_44KHz.wav
1	115	3	4	2	I	2	0	1505	0	Ⴔ	cut_w_stereo_44KHz.wav
1	116	2	1	0	C	2	1	1109	1	Ⴐ	cut_h_stereo_44KHz.wav
1	117	4	3	2	I	2	0	1679	0	Ⴖ	cut_g_stereo_44KHz.wav
1	118	2	2	1	C	1	1	1130	1	Ⴐ	cut_l_stereo_44KHz.wav
1	119	3	3	2	I	2	0	783	0	Ⴔ	cut_g_stereo_44KHz.wav
1	120	1	2	0	C	2	1	1498	1	Ⴌ	cut_l_stereo_44KHz.wav
1	121	3	3	2	I	2	0	864	1	Ⴔ	cut_g_stereo_44KHz.wav
1	122	1	2	0	C	2	1	1054	1	Ⴌ	cut_l_stereo_44KHz.wav
1	123	4	4	2	I	2	0	1103	0	Ⴖ	cut_w_stereo_44KHz.wav
1	124	2	1	0	C	1	0	1746	0	Ⴐ	cut_h_stereo_44KHz.wav
1	125	4	3	2	I	1	0	1603	0	Ⴖ	cut_g_stereo_44KHz.wav
1	126	3	4	2	I	2	0	1466	0	Ⴔ	cut_w_stereo_44KHz.wav
1	127	2	2	1	C	1	1	1607	1	Ⴐ	cut_l_stereo_44KHz.wav
1	128	1	1	1	C	2	0	1181	0	Ⴌ	cut_h_stereo_44KHz.wav
1	129	2	1	0	C	2	1	688	1	Ⴐ	cut_h_stereo_44KHz.wav
1	130	4	4	2	I	2	0	1189	0	Ⴖ	cut_w_stereo_44KHz.wav
1	131	1	1	1	C	1	1	1038	1	Ⴌ	cut_h_stereo_44KHz.wav
1	132	3	4	2	I	2	0	1207	1	Ⴔ	cut_w_stereo_44KHz.wav
1	133	4	3	2	I	1	0	1757	1	Ⴖ	cut_g_stereo_44KHz.wav
1	134	2	2	1	C	1	1	1856	1	Ⴐ	cut_l_stereo_44KHz.wav
1	135	3	3	2	I	2	0	1295	0	Ⴔ	cut_g_stereo_44KHz.wav
1	136	1	2	0	C	2	1	1167	1	Ⴌ	cut_l_stereo_44KHz.wav
1	137	4	4	2	I	1	0	1265	1	Ⴖ	cut_w_stereo_44KHz.wav
1	138	2	1	0	C	2	1	1038	1	Ⴐ	cut_h_stereo_44KHz.wav
1	139	3	3	2	I	2	0	1349	1	Ⴔ	cut_g_stereo_44KHz.wav
1	140	1	2	0	C	2	1	1021	1	Ⴌ	cut_l_stereo_44KHz.wav
1	141	2	2	1	C	1	1	1224	1	Ⴐ	cut_l_stereo_44KHz.wav
1	142	1	1	1	C	1	1	790	1	Ⴌ	cut_h_stereo_44KHz.wav
1	143	4	3	2	I	2	0	1333	1	Ⴖ	cut_g_stereo_44KHz.wav
1	144	3	4	2	I	2	0	1009	0	Ⴔ	cut_w_stereo_44KHz.wav
1	145	2	1	0	C	2	1	985	1	Ⴐ	cut_h_stereo_44KHz.wav
1	146	1	1	1	C	1	1	914	1	Ⴌ	cut_h_stereo_44KHz.wav
1	147	3	4	2	I	2	0	1064	0	Ⴔ	cut_w_stereo_44KHz.wav
1	148	4	4	2	I	2	0	925	1	Ⴖ	cut_w_stereo_44KHz.wav
1	149	3	3	2	I	2	0	1123	1	Ⴔ	cut_g_stereo_44KHz.wav
1	150	1	2	0	C	2	1	1231	1	Ⴌ	cut_l_stereo_44KHz.wav
1	151	4	3	2	I	1	0	1428	1	Ⴖ	cut_g_stereo_44KHz.wav
1	152	2	2	1	C	1	1	1320	1	Ⴐ	cut_l_stereo_44KHz.wav
1	153	1	1	1	C	1	1	953	1	Ⴌ	cut_h_stereo_44KHz.wav
1	154	3	3	2	I	2	0	1484	0	Ⴔ	cut_g_stereo_44KHz.wav
1	155	4	3	2	I	1	0	1137	0	Ⴖ	cut_g_stereo_44KHz.wav
1	156	2	1	0	C	1	0	1772	0	Ⴐ	cut_h_stereo_44KHz.wav
1	157	4	4	2	I	2	0	1359	0	Ⴖ	cut_w_stereo_44KHz.wav
1	158	1	2	0	C	2	1	988	1	Ⴌ	cut_l_stereo_44KHz.wav
1	159	2	2	1	C	1	1	1123	1	Ⴐ	cut_l_stereo_44KHz.wav
1	160	3	4	2	I	1	0	1284	0	Ⴔ	cut_w_stereo_44KHz.wav
1	161	1	2	0	C	2	1	890	1	Ⴌ	cut_l_stereo_44KHz.wav
1	162	2	1	0	C	2	1	1226	1	Ⴐ	cut_h_stereo_44KHz.wav
1	163	3	4	2	I	2	0	1302	0	Ⴔ	cut_w_stereo_44KHz.wav
1	164	4	3	2	I	1	0	1342	0	Ⴖ	cut_g_stereo_44KHz.wav
1	165	3	3	2	I	2	0	1271	0	Ⴔ	cut_g_stereo_44KHz.wav
1	166	4	4	2	I	2	0	1225	0	Ⴖ	cut_w_stereo_44KHz.wav
1	167	1	1	1	C	1	1	1416	1	Ⴌ	cut_h_stereo_44KHz.wav
1	168	2	2	1	C	1	1	962	1	Ⴐ	cut_l_stereo_44KHz.wav
1	169	1	1	1	C	1	1	1073	1	Ⴌ	cut_h_stereo_44KHz.wav
1	170	3	3	2	I	2	0	1166	0	Ⴔ	cut_g_stereo_44KHz.wav
1	171	2	1	0	C	2	1	1194	1	Ⴐ	cut_h_stereo_44KHz.wav
1	172	4	4	2	I	2	0	1278	0	Ⴖ	cut_w_stereo_44KHz.wav
1	173	1	2	0	C	2	1	1203	1	Ⴌ	cut_l_stereo_44KHz.wav
1	174	3	4	2	I	2	0	1602	1	Ⴔ	cut_w_stereo_44KHz.wav
1	175	2	2	1	C	2	0	1101	0	Ⴐ	cut_l_stereo_44KHz.wav
1	176	4	3	2	I	2	0	1836	1	Ⴖ	cut_g_stereo_44KHz.wav
1	177	1	2	0	C	2	1	1134	1	Ⴌ	cut_l_stereo_44KHz.wav
1	178	2	2	1	C	1	1	1418	1	Ⴐ	cut_l_stereo_44KHz.wav
1	179	3	3	2	I	2	0	1220	0	Ⴔ	cut_g_stereo_44KHz.wav
1	180	4	4	2	I	2	0	1212	1	Ⴖ	cut_w_stereo_44KHz.wav
1	181	3	4	2	I	1	0	998	1	Ⴔ	cut_w_stereo_44KHz.wav
1	182	1	1	1	C	1	1	912	1	Ⴌ	cut_h_stereo_44KHz.wav
1	183	4	3	2	I	2	0	1486	0	Ⴖ	cut_g_stereo_44KHz.wav
1	184	2	1	0	C	2	1	857	1	Ⴐ	cut_h_stereo_44KHz.wav
1	185	4	4	2	I	2	0	1289	0	Ⴖ	cut_w_stereo_44KHz.wav
1	186	1	1	1	C	1	1	835	1	Ⴌ	cut_h_stereo_44KHz.wav
1	187	3	4	2	I	1	0	1224	0	Ⴔ	cut_w_stereo_44KHz.wav
1	188	2	2	1	C	1	1	1205	1	Ⴐ	cut_l_stereo_44KHz.wav
1	189	3	3	2	I	2	0	1522	0	Ⴔ	cut_g_stereo_44KHz.wav
1	190	2	1	0	C	2	1	1163	1	Ⴐ	cut_h_stereo_44KHz.wav
1	191	1	2	0	C	2	1	983	1	Ⴌ	cut_l_stereo_44KHz.wav
1	192	4	3	2	I	1	0	1566	0	Ⴖ	cut_g_stereo_44KHz.wav
1	193	3	4	2	I	2	0	1066	1	Ⴔ	cut_w_stereo_44KHz.wav
1	194	4	4	2	I	2	0	609	0	Ⴖ	cut_w_stereo_44KHz.wav
1	195	2	2	1	C	1	1	1326	1	Ⴐ	cut_l_stereo_44KHz.wav
1	196	1	1	1	C	1	1	1102	1	Ⴌ	cut_h_stereo_44KHz.wav
1	197	4	3	2	I	2	0	1247	1	Ⴖ	cut_g_stereo_44KHz.wav
1	198	2	1	0	C	2	1	1053	1	Ⴐ	cut_h_stereo_44KHz.wav
1	199	3	3	2	I	2	0	1107	1	Ⴔ	cut_g_stereo_44KHz.wav
1	200	1	2	0	C	2	1	1130	1	Ⴌ	cut_l_stereo_44KHz.wav
2	1	2	1	0	C	2	1	1080	1	Ⴊ	cut_a_stereo_44KHz.wav
2	2	4	4	2	I	2	0	1226	1	Ⴜ	cut_u_stereo_44KHz.wav
2	3	3	4	2	I	2	0	1272	1	Ⴃ	cut_u_stereo_44KHz.wav
2	4	1	2	0	C	2	1	1293	1	Ⴂ	cut_k_stereo_44KHz.wav
2	5	4	3	2	I	2	0	1138	0	Ⴜ	cut_o_stereo_44KHz.wav
2	6	1	1	1	C	1	1	1378	1	Ⴂ	cut_a_stereo_44KHz.wav
2	7	3	3	2	I	2	0	830	0	Ⴃ	cut_o_stereo_44KHz.wav
2	8	2	2	1	C	1	1	972	1	Ⴊ	cut_k_stereo_44KHz.wav
2	9	3	3	2	I	1	0	799	0	Ⴃ	cut_o_stereo_44KHz.wav
2	10	2	1	0	C	2	1	733	1	Ⴊ	cut_a_stereo_44KHz.wav
2	11	1	1	1	C	1	1	788	1	Ⴂ	cut_a_stereo_44KHz.wav
2	12	4	3	2	I	2	0	1037	1	Ⴜ	cut_o_stereo_44KHz.wav
2	13	2	2	1	C	1	1	898	1	Ⴊ	cut_k_stereo_44KHz.wav
2	14	3	4	2	I	2	0	1178	0	Ⴃ	cut_u_stereo_44KHz.wav
2	15	1	2	0	C	2	1	908	1	Ⴂ	cut_k_stereo_44KHz.wav
2	16	4	4	2	I	2	0	1069	0	Ⴜ	cut_u_stereo_44KHz.wav
2	17	3	4	2	I	2	0	1097	0	Ⴃ	cut_u_stereo_44KHz.wav
2	18	2	1	0	C	2	1	731	1	Ⴊ	cut_a_stereo_44KHz.wav
2	19	1	2	0	C	2	1	599	1	Ⴂ	cut_k_stereo_44KHz.wav
2	20	4	3	2	I	2	0	1226	1	Ⴜ	cut_o_stereo_44KHz.wav
2	21	1	1	1	C	1	1	800	1	Ⴂ	cut_a_stereo_44KHz.wav
2	22	4	4	2	I	2	0	1273	0	Ⴜ	cut_u_stereo_44KHz.wav
2	23	2	2	1	C	1	1	1057	1	Ⴊ	cut_k_stereo_44KHz.wav
2	24	3	3	2	I	2	0	895	0	Ⴃ	cut_o_stereo_44KHz.wav
2	25	1	1	1	C	1	1	637	1	Ⴂ	cut_a_stereo_44KHz.wav
2	26	2	1	0	C	2	1	847	1	Ⴊ	cut_a_stereo_44KHz.wav
2	27	4	4	2	I	2	0	843	1	Ⴜ	cut_u_stereo_44KHz.wav
2	28	3	3	2	I	1	0	952	0	Ⴃ	cut_o_stereo_44KHz.wav
2	29	2	2	1	C	1	1	1404	1	Ⴊ	cut_k_stereo_44KHz.wav
2	30	1	2	0	C	2	1	755	1	Ⴂ	cut_k_stereo_44KHz.wav
2	31	4	3	2	I	1	0	1121	0	Ⴜ	cut_o_stereo_44KHz.wav
2	32	3	4	2	I	2	0	1374	1	Ⴃ	cut_u_stereo_44KHz.wav
2	33	2	1	0	C	2	1	918	1	Ⴊ	cut_a_stereo_44KHz.wav
2	34	1	2	0	C	2	1	750	1	Ⴂ	cut_k_stereo_44KHz.wav
2	35	3	3	2	I	2	0	786	0	Ⴃ	cut_o_stereo_44KHz.wav
2	36	4	4	2	I	2	0	1403	0	Ⴜ	cut_u_stereo_44KHz.wav
2	37	3	4	2	I	2	0	1248	0	Ⴃ	cut_u_stereo_44KHz.wav
2	38	4	3	2	I	2	0	998	0	Ⴜ	cut_o_stereo_44KHz.wav
2	39	1	1	1	C	1	1	931	1	Ⴂ	cut_a_stereo_44KHz.wav
2	40	2	2	1	C	1	1	989	1	Ⴊ	cut_k_stereo_44KHz.wav
2	41	4	3	2	I	2	0	1008	0	Ⴜ	cut_o_stereo_44KHz.wav
2	42	3	3	2	I	2	0	706	0	Ⴃ	cut_o_stereo_44KHz.wav
2	43	2	1	0	C	2	1	695	1	Ⴊ	cut_a_stereo_44KHz.wav
2	44	1	2	0	C	2	1	480	1	Ⴂ	cut_k_stereo_44KHz.wav
2	45	4	4	2	I	1	0	887	0	Ⴜ	cut_u_stereo_44KHz.wav
2	46	3	4	2	I	2	0	1178	1	Ⴃ	cut_u_stereo_44KHz.wav
2	47	2	2	1	C	1	1	844	1	Ⴊ	cut_k_stereo_44KHz.wav
2	48	1	1	1	C	1	1	763	1	Ⴂ	cut_a_stereo_44KHz.wav
2	49	3	3	2	I	1	0	996	0	Ⴃ	cut_o_stereo_44KHz.wav
2	50	4	4	2	I	1	0	1251	0	Ⴜ	cut_u_stereo_44KHz.wav
2	51	2	2	1	C	1	1	1190	1	Ⴊ	cut_k_stereo_44KHz.wav
2	52	1	2	0	C	2	1	636	1	Ⴂ	cut_k_stereo_44KHz.wav
2	53	3	4	2	I	2	0	1219	0	Ⴃ	cut_u_stereo_44KHz.wav
2	54	4	3	2	I	2	0	1178	0	Ⴜ	cut_o_stereo_44KHz.wav
2	55	1	1	1	C	1	1	1019	1	Ⴂ	cut_a_stereo_44KHz.wav
2	56	2	1	0	C	2	1	649	1	Ⴊ	cut_a_stereo_44KHz.wav
2	57	3	3	2	I	1	0	1255	1	Ⴃ	cut_o_stereo_44KHz.wav
2	58	1	2	0	C	2	1	830	1	Ⴂ	cut_k_stereo_44KHz.wav
2	59	4	4	2	I	2	0	1135	1	Ⴜ	cut_u_stereo_44KHz.wav
2	60	2	2	1	C	1	1	1265	1	Ⴊ	cut_k_stereo_44KHz.wav
2	61	4	3	2	I	2	0	1056	0	Ⴜ	cut_o_stereo_44KHz.wav
2	62	1	1	1	C	1	1	718	1	Ⴂ	cut_a_stereo_44KHz.wav
2	63	3	4	2	I	2	0	920	0	Ⴃ	cut_u_stereo_44KHz.wav
2	64	2	1	0	C	2	1	614	1	Ⴊ	cut_a_stereo_44KHz.wav
2	65	3	3	2	I	1	0	1065	1	Ⴃ	cut_o_stereo_44KHz.wav
2	66	2	2	1	C	1	1	920	1	Ⴊ	cut_k_stereo_44KHz.wav
2	67	4	3	2	I	1	0	758	0	Ⴜ	cut_o_stereo_44KHz.wav
2	68	1	2	0	C	2	1	776	1	Ⴂ	cut_k_stereo_44KHz.wav
2	69	4	4	2	I	1	0	1277	1	Ⴜ	cut_u_stereo_44KHz.wav
2	70	3	4	2	I	1	0	808	0	Ⴃ	cut_u_stereo_44KHz.wav
2	71	1	1	1	C	1	1	1485	1	Ⴂ	cut_a_stereo_44KHz.wav
2	72	2	1	0	C	2	1	627	1	Ⴊ	cut_a_stereo_44KHz.wav
2	73	1	2	0	C	2	1	702	1	Ⴂ	cut_k_stereo_44KHz.wav
2	74	3	4	2	I	2	0	957	1	Ⴃ	cut_u_stereo_44KHz.wav
2	75	4	4	2	I	1	0	845	1	Ⴜ	cut_u_stereo_44KHz.wav
2	76	2	1	0	C	2	1	757	1	Ⴊ	cut_a_stereo_44KHz.wav
2	77	1	1	1	C	1	1	668	1	Ⴂ	cut_a_stereo_44KHz.wav
2	78	2	2	1	C	1	1	920	1	Ⴊ	cut_k_stereo_44KHz.wav
2	79	4	3	2	I	1	0	1292	1	Ⴜ	cut_o_stereo_44KHz.wav
2	80	3	3	2	I	1	0	998	0	Ⴃ	cut_o_stereo_44KHz.wav
2	81	1	1	1	C	1	1	820	1	Ⴂ	cut_a_stereo_44KHz.wav
2	82	3	3	2	I	2	0	1658	1	Ⴃ	cut_o_stereo_44KHz.wav
2	83	2	2	1	C	1	1	1229	1	Ⴊ	cut_k_stereo_44KHz.wav
2	84	4	4	2	I	2	0	1512	0	Ⴜ	cut_u_stereo_44KHz.wav
2	85	3	4	2	I	2	0	1211	1	Ⴃ	cut_u_stereo_44KHz.wav
2	86	4	3	2	I	1	0	1442	1	Ⴜ	cut_o_stereo_44KHz.wav
2	87	1	2	0	C	2	1	692	1	Ⴂ	cut_k_stereo_44KHz.wav
2	88	2	1	0	C	2	1	661	1	Ⴊ	cut_a_stereo_44KHz.wav
2	89	1	1	1	C	1	1	734	1	Ⴂ	cut_a_stereo_44KHz.wav
2	90	4	4	2	I	2	0	1268	1	Ⴜ	cut_u_stereo_44KHz.wav
2	91	3	3	2	I	1	0	1077	1	Ⴃ	cut_o_stereo_44KHz.wav
2	92	2	1	0	C	2	1	630	1	Ⴊ	cut_a_stereo_44KHz.wav
2	93	4	3	2	I	1	0	983	0	Ⴜ	cut_o_stereo_44KHz.wav
2	94	3	4	2	I	2	0	1402	1	Ⴃ	cut_u_stereo_44KHz.wav
2	95	1	2	0	C	2	1	917	1	Ⴂ	cut_k_stereo_44KHz.wav
2	96	2	2	1	C	1	1	738	1	Ⴊ	cut_k_stereo_44KHz.wav
2	97	1	2	0	C	2	1	688	1	Ⴂ	cut_k_stereo_44KHz.wav
2	98	2	1	0	C	2	1	938	1	Ⴊ	cut_a_stereo_44KHz.wav
2	99	4	3	2	I	1	0	1621	1	Ⴜ	cut_o_stereo_44KHz.wav
2	100	3	4	2	I	2	0	986	1	Ⴃ	cut_u_stereo_44KHz.wav
2	101	2	2	1	C	1	1	843	1	Ⴊ	cut_k_stereo_44KHz.wav
2	102	3	3	2	I	1	0	1172	0	Ⴃ	cut_o_stereo_44KHz.wav
2	103	1	1	1	C	1	1	819	1	Ⴂ	cut_a_stereo_44KHz.wav
2	104	4	4	2	I	2	0	1170	0	Ⴜ	cut_u_stereo_44KHz.wav
2	105	3	3	2	I	2	0	1025	0	Ⴃ	cut_o_stereo_44KHz.wav
2	106	4	4	2	I	2	0	1179	0	Ⴜ	cut_u_stereo_44KHz.wav
2	107	1	2	0	C	2	1	802	1	Ⴂ	cut_k_stereo_44KHz.wav
2	108	2	1	0	C	2	1	618	1	Ⴊ	cut_a_stereo_44KHz.wav
2	109	3	4	2	I	2	0	1071	0	Ⴃ	cut_u_stereo_44KHz.wav
2	110	4	3	2	I	1	0	1202	1	Ⴜ	cut_o_stereo_44KHz.wav
2	111	2	2	1	C	2	0	761	0	Ⴊ	cut_k_stereo_44KHz.wav
2	112	1	1	1	C	1	1	1035	1	Ⴂ	cut_a_stereo_44KHz.wav
2	113	4	3	2	I	1	0	946	0	Ⴜ	cut_o_stereo_44KHz.wav
2	114	3	3	2	I	1	0	700	1	Ⴃ	cut_o_stereo_44KHz.wav
2	115	1	1	1	C	1	1	901	1	Ⴂ	cut_a_stereo_44KHz.wav
2	116	2	2	1	C	1	1	1024	1	Ⴊ	cut_k_stereo_44KHz.wav
2	117	3	4	2	I	1	0	986	1	Ⴃ	cut_u_stereo_44KHz.wav
2	118	2	1	0	C	2	1	975	1	Ⴊ	cut_a_stereo_44KHz.wav
2	119	4	4	2	I	1	0	1151	1	Ⴜ	cut_u_stereo_44KHz.wav
2	120	1	2	0	C	2	1	658	1	Ⴂ	cut_k_stereo_44KHz.wav
2	121	3	3	2	I	1	0	1165	1	Ⴃ	cut_o_stereo_44KHz.wav
2	122	2	1	0	C	2	1	624	1	Ⴊ	cut_a_stereo_44KHz.wav
2	123	1	2	0	C	2	1	714	1	Ⴂ	cut_k_stereo_44KHz.wav
2	124	4	3	2	I	1	0	826	1	Ⴜ	cut_o_stereo_44KHz.wav
2	125	2	2	1	C	0	0	0	0	Ⴊ	cut_k_stereo_44KHz.wav
2	126	4	4	2	I	1	0	894	0	Ⴜ	cut_u_stereo_44KHz.wav
2	127	3	4	2	I	1	0	1078	1	Ⴃ	cut_u_stereo_44KHz.wav
2	128	1	1	1	C	1	1	741	1	Ⴂ	cut_a_stereo_44KHz.wav
2	129	3	4	2	I	1	0	824	1	Ⴃ	cut_u_stereo_44KHz.wav
2	130	4	4	2	I	1	0	783	1	Ⴜ	cut_u_stereo_44KHz.wav
2	131	2	2	1	C	1	1	932	1	Ⴊ	cut_k_stereo_44KHz.wav
2	132	1	2	0	C	2	1	759	1	Ⴂ	cut_k_stereo_44KHz.wav
2	133	2	1	0	C	2	1	879	1	Ⴊ	cut_a_stereo_44KHz.wav
2	134	3	3	2	I	1	0	1217	1	Ⴃ	cut_o_stereo_44KHz.wav
2	135	4	3	2	I	1	0	831	0	Ⴜ	cut_o_stereo_44KHz.wav
2	136	1	1	1	C	1	1	825	1	Ⴂ	cut_a_stereo_44KHz.wav
2	137	2	1	0	C	2	1	555	1	Ⴊ	cut_a_stereo_44KHz.wav
2	138	4	3	2	I	1	0	913	0	Ⴜ	cut_o_stereo_44KHz.wav
2	139	3	4	2	I	1	0	1122	0	Ⴃ	cut_u_stereo_44KHz.wav
2	140	1	2	0	C	2	1	817	1	Ⴂ	cut_k_stereo_44KHz.wav
2	141	2	2	1	C	1	1	964	1	Ⴊ	cut_k_stereo_44KHz.wav
2	142	1	1	1	C	1	1	778	1	Ⴂ	cut_a_stereo_44KHz.wav
2	143	3	3	2	I	1	0	1690	1	Ⴃ	cut_o_stereo_44KHz.wav
2	144	4	4	2	I	1	0	754	1	Ⴜ	cut_u_stereo_44KHz.wav
2	145	1	2	0	C	2	1	669	1	Ⴂ	cut_k_stereo_44KHz.wav
2	146	3	3	2	I	1	0	1018	0	Ⴃ	cut_o_stereo_44KHz.wav
2	147	2	2	1	C	1	1	1010	1	Ⴊ	cut_k_stereo_44KHz.wav
2	148	4	3	2	I	1	0	938	1	Ⴜ	cut_o_stereo_44KHz.wav
2	149	2	1	0	C	2	1	699	1	Ⴊ	cut_a_stereo_44KHz.wav
2	150	3	4	2	I	1	0	1054	1	Ⴃ	cut_u_stereo_44KHz.wav
2	151	4	4	2	I	1	0	946	1	Ⴜ	cut_u_stereo_44KHz.wav
2	152	1	1	1	C	1	1	1268	1	Ⴂ	cut_a_stereo_44KHz.wav
2	153	2	2	1	C	1	1	1521	1	Ⴊ	cut_k_stereo_44KHz.wav
2	154	1	1	1	C	1	1	613	1	Ⴂ	cut_a_stereo_44KHz.wav
2	155	4	3	2	I	1	0	683	1	Ⴜ	cut_o_stereo_44KHz.wav
2	156	3	4	2	I	1	0	1110	1	Ⴃ	cut_u_stereo_44KHz.wav
2	157	4	4	2	I	1	0	963	0	Ⴜ	cut_u_stereo_44KHz.wav
2	158	1	2	0	C	2	1	767	1	Ⴂ	cut_k_stereo_44KHz.wav
2	159	2	1	0	C	2	1	591	1	Ⴊ	cut_a_stereo_44KHz.wav
2	160	3	3	2	I	1	0	854	0	Ⴃ	cut_o_stereo_44KHz.wav
2	161	1	2	0	C	2	1	625	1	Ⴂ	cut_k_stereo_44KHz.wav
2	162	2	2	1	C	1	1	956	1	Ⴊ	cut_k_stereo_44KHz.wav
2	163	4	4	2	I	1	0	597	1	Ⴜ	cut_u_stereo_44KHz.wav
2	164	3	3	2	I	1	0	638	1	Ⴃ	cut_o_stereo_44KHz.wav
2	165	1	1	1	C	1	1	642	1	Ⴂ	cut_a_stereo_44KHz.wav
2	166	3	4	2	I	1	0	808	0	Ⴃ	cut_u_stereo_44KHz.wav
2	167	4	3	2	I	1	0	620	0	Ⴜ	cut_o_stereo_44KHz.wav
2	168	2	1	0	C	2	1	734	1	Ⴊ	cut_a_stereo_44KHz.wav
2	169	3	4	2	I	1	0	581	0	Ⴃ	cut_u_stereo_44KHz.wav
2	170	2	1	0	C	2	1	723	1	Ⴊ	cut_a_stereo_44KHz.wav
2	171	1	1	1	C	1	1	1143	1	Ⴂ	cut_a_stereo_44KHz.wav
2	172	4	4	2	I	1	0	1575	0	Ⴜ	cut_u_stereo_44KHz.wav
2	173	2	2	1	C	1	1	1052	1	Ⴊ	cut_k_stereo_44KHz.wav
2	174	4	3	2	I	1	0	763	1	Ⴜ	cut_o_stereo_44KHz.wav
2	175	3	3	2	I	1	0	664	0	Ⴃ	cut_o_stereo_44KHz.wav
2	176	1	2	0	C	2	1	708	1	Ⴂ	cut_k_stereo_44KHz.wav
2	177	4	3	2	I	1	0	1043	0	Ⴜ	cut_o_stereo_44KHz.wav
2	178	2	1	0	C	2	1	580	1	Ⴊ	cut_a_stereo_44KHz.wav
2	179	3	3	2	I	1	0	772	1	Ⴃ	cut_o_stereo_44KHz.wav
2	180	1	2	0	C	2	1	671	1	Ⴂ	cut_k_stereo_44KHz.wav
2	181	3	4	2	I	1	0	867	1	Ⴃ	cut_u_stereo_44KHz.wav
2	182	4	4	2	I	1	0	520	1	Ⴜ	cut_u_stereo_44KHz.wav
2	183	1	1	1	C	1	1	701	1	Ⴂ	cut_a_stereo_44KHz.wav
2	184	2	2	1	C	1	1	752	1	Ⴊ	cut_k_stereo_44KHz.wav
2	185	4	3	2	I	2	0	1171	0	Ⴜ	cut_o_stereo_44KHz.wav
2	186	1	2	0	C	2	1	686	1	Ⴂ	cut_k_stereo_44KHz.wav
2	187	3	3	2	I	1	0	977	0	Ⴃ	cut_o_stereo_44KHz.wav
2	188	2	1	0	C	2	1	1157	1	Ⴊ	cut_a_stereo_44KHz.wav
2	189	3	4	2	I	1	0	1779	1	Ⴃ	cut_u_stereo_44KHz.wav
2	190	4	4	2	I	1	0	655	1	Ⴜ	cut_u_stereo_44KHz.wav
2	191	1	1	1	C	1	1	772	1	Ⴂ	cut_a_stereo_44KHz.wav
2	192	2	2	1	C	1	1	763	1	Ⴊ	cut_k_stereo_44KHz.wav
2	193	3	4	2	I	1	0	820	0	Ⴃ	cut_u_stereo_44KHz.wav
2	194	1	2	0	C	2	1	714	1	Ⴂ	cut_k_stereo_44KHz.wav
2	195	2	1	0	C	2	1	609	1	Ⴊ	cut_a_stereo_44KHz.wav
2	196	4	4	2	I	1	0	628	1	Ⴜ	cut_u_stereo_44KHz.wav
2	197	1	1	1	C	1	1	1097	1	Ⴂ	cut_a_stereo_44KHz.wav
2	198	2	2	1	C	1	1	621	1	Ⴊ	cut_k_stereo_44KHz.wav
2	199	4	3	2	I	1	0	938	1	Ⴜ	cut_o_stereo_44KHz.wav
2	200	3	3	2	I	1	0	694	1	Ⴃ	cut_o_stereo_44KHz.wav
3	1	2	2	1	C	2	0	1544	0	Ⴁ	cut_ei_stereo_44KHz.wav
3	2	4	3	2	I	2	0	1138	1	Ⴟ	cut_r_stereo_44KHz.wav
3	3	3	3	2	I	1	0	1001	0	Ⴡ	cut_r_stereo_44KHz.wav
3	4	1	2	0	C	2	1	872	1	Ⴇ	cut_ei_stereo_44KHz.wav
3	5	4	4	2	I	1	0	1246	1	Ⴟ	cut_s_stereo_44KHz.wav
3	6	1	1	1	C	1	1	877	1	Ⴇ	cut_n_stereo_44KHz.wav
3	7	2	1	0	C	2	1	991	1	Ⴁ	cut_n_stereo_44KHz.wav
3	8	3	4	2	I	2	0	1497	0	Ⴡ	cut_s_stereo_44KHz.wav
3	9	2	1	0	C	2	1	1205	1	Ⴁ	cut_n_stereo_44KHz.wav
3	10	3	3	2	I	2	0	890	1	Ⴡ	cut_r_stereo_44KHz.wav
3	11	4	4	2	I	2	0	1431	1	Ⴟ	cut_s_stereo_44KHz.wav
3	12	1	1	1	C	1	1	1113	1	Ⴇ	cut_n_stereo_44KHz.wav
3	13	3	4	2	I	2	0	1115	0	Ⴡ	cut_s_stereo_44KHz.wav
3	14	2	2	1	C	1	1	1171	1	Ⴁ	cut_ei_stereo_44KHz.wav
3	15	4	3	2	I	2	0	1781	1	Ⴟ	cut_r_stereo_44KHz.wav
3	16	1	2	0	C	2	1	1077	1	Ⴇ	cut_ei_stereo_44KHz.wav
3	17	3	3	2	I	2	0	1286	1	Ⴡ	cut_r_stereo_44KHz.wav
3	18	4	3	2	I	2	0	1007	0	Ⴟ	cut_r_stereo_44KHz.wav
3	19	2	1	0	C	2	1	873	1	Ⴁ	cut_n_stereo_44KHz.wav
3	20	1	2	0	C	2	1	605	1	Ⴇ	cut_ei_stereo_44KHz.wav
3	21	2	2	1	C	1	1	915	1	Ⴁ	cut_ei_stereo_44KHz.wav
3	22	4	4	2	I	2	0	1113	1	Ⴟ	cut_s_stereo_44KHz.wav
3	23	3	4	2	I	1	0	1250	1	Ⴡ	cut_s_stereo_44KHz.wav
3	24	1	1	1	C	1	1	889	1	Ⴇ	cut_n_stereo_44KHz.wav
3	25	4	3	2	I	2	0	1203	0	Ⴟ	cut_r_stereo_44KHz.wav
3	26	2	2	1	C	1	1	1114	1	Ⴁ	cut_ei_stereo_44KHz.wav
3	27	1	2	0	C	2	1	1408	1	Ⴇ	cut_ei_stereo_44KHz.wav
3	28	3	4	2	I	2	0	1531	1	Ⴡ	cut_s_stereo_44KHz.wav
3	29	2	1	0	C	2	1	747	1	Ⴁ	cut_n_stereo_44KHz.wav
3	30	1	1	1	C	1	1	809	1	Ⴇ	cut_n_stereo_44KHz.wav
3	31	4	4	2	I	2	0	1493	1	Ⴟ	cut_s_stereo_44KHz.wav
3	32	3	3	2	I	1	0	1143	1	Ⴡ	cut_r_stereo_44KHz.wav
3	33	1	1	1	C	1	1	819	1	Ⴇ	cut_n_stereo_44KHz.wav
3	34	4	4	2	I	2	0	1150	0	Ⴟ	cut_s_stereo_44KHz.wav
3	35	3	3	2	I	2	0	754	1	Ⴡ	cut_r_stereo_44KHz.wav
3	36	2	2	1	C	1	1	782	1	Ⴁ	cut_ei_stereo_44KHz.wav
3	37	1	2	0	C	2	1	600	1	Ⴇ	cut_ei_stereo_44KHz.wav
3	38	2	1	0	C	2	1	758	1	Ⴁ	cut_n_stereo_44KHz.wav
3	39	3	4	2	I	2	0	923	0	Ⴡ	cut_s_stereo_44KHz.wav
3	40	4	3	2	I	2	0	605	1	Ⴟ	cut_r_stereo_44KHz.wav
3	41	3	4	2	I	2	0	711	0	Ⴡ	cut_s_stereo_44KHz.wav
3	42	4	3	2	I	2	0	937	1	Ⴟ	cut_r_stereo_44KHz.wav
3	43	2	1	0	C	2	1	689	1	Ⴁ	cut_n_stereo_44KHz.wav
3	44	1	2	0	C	2	1	552	1	Ⴇ	cut_ei_stereo_44KHz.wav
3	45	4	4	2	I	1	0	1474	1	Ⴟ	cut_s_stereo_44KHz.wav
3	46	1	1	1	C	1	1	743	1	Ⴇ	cut_n_stereo_44KHz.wav
3	47	3	3	2	I	2	0	1401	0	Ⴡ	cut_r_stereo_44KHz.wav
3	48	2	2	1	C	1	1	857	1	Ⴁ	cut_ei_stereo_44KHz.wav
3	49	3	3	2	I	1	0	1411	1	Ⴡ	cut_r_stereo_44KHz.wav
3	50	2	2	1	C	1	1	634	1	Ⴁ	cut_ei_stereo_44KHz.wav
3	51	1	1	1	C	1	1	1086	1	Ⴇ	cut_n_stereo_44KHz.wav
3	52	4	4	2	I	1	0	1436	0	Ⴟ	cut_s_stereo_44KHz.wav
3	53	2	1	0	C	2	1	912	1	Ⴁ	cut_n_stereo_44KHz.wav
3	54	1	2	0	C	2	1	881	1	Ⴇ	cut_ei_stereo_44KHz.wav
3	55	4	3	2	I	2	0	1180	1	Ⴟ	cut_r_stereo_44KHz.wav
3	56	3	4	2	I	2	0	992	1	Ⴡ	cut_s_stereo_44KHz.wav
3	57	2	2	1	C	1	1	700	1	Ⴁ	cut_ei_stereo_44KHz.wav
3	58	3	4	2	I	2	0	1183	0	Ⴡ	cut_s_stereo_44KHz.wav
3	59	1	1	1	C	1	1	1239	1	Ⴇ	cut_n_stereo_44KHz.wav
3	60	4	4	2	I	2	0	1504	0	Ⴟ	cut_s_stereo_44KHz.wav
3	61	3	3	2	I	2	0	966	1	Ⴡ	cut_r_stereo_44KHz.wav
3	62	4	3	2	I	2	0	1008	0	Ⴟ	cut_r_stereo_44KHz.wav
3	63	1	2	0	C	2	1	716	1	Ⴇ	cut_ei_stereo_44KHz.wav
3	64	2	1	0	C	1	0	592	0	Ⴁ	cut_n_stereo_44KHz.wav
3	65	1	1	1	C	1	1	1261	1	Ⴇ	cut_n_stereo_44KHz.wav
3	66	4	3	2	I	2	0	1099	0	Ⴟ	cut_r_stereo_44KHz.wav
3	67	3	3	2	I	2	0	1355	1	Ⴡ	cut_r_stereo_44KHz.wav
3	68	2	1	0	C	2	1	853	1	Ⴁ	cut_n_stereo_44KHz.wav
3	69	4	4	2	I	2	0	1147	1	Ⴟ	cut_s_stereo_44KHz.wav
3	70	1	2	0	C	2	1	668	1	Ⴇ	cut_ei_stereo_44KHz.wav
3	71	3	4	2	I	2	0	1361	0	Ⴡ	cut_s_stereo_44KHz.wav
3	72	2	2	1	C	1	1	1122	1	Ⴁ	cut_ei_stereo_44KHz.wav
3	73	3	3	2	I	2	0	1224	0	Ⴡ	cut_r_stereo_44KHz.wav
3	74	4	3	2	I	2	0	698	1	Ⴟ	cut_r_stereo_44KHz.wav
3	75	1	2	0	C	2	1	652	1	Ⴇ	cut_ei_stereo_44KHz.wav
3	76	2	2	1	C	1	1	931	1	Ⴁ	cut_ei_stereo_44KHz.wav
3	77	1	1	1	C	1	1	830	1	Ⴇ	cut_n_stereo_44KHz.wav
3	78	3	4	2	I	2	0	1274	1	Ⴡ	cut_s_stereo_44KHz.wav
3	79	4	4	2	I	1	0	770	0	Ⴟ	cut_s_stereo_44KHz.wav
3	80	2	1	0	C	2	1	850	1	Ⴁ	cut_n_stereo_44KHz.wav
3	81	3	4	2	I	2	0	1115	1	Ⴡ	cut_s_stereo_44KHz.wav
3	82	1	2	0	C	2	1	700	1	Ⴇ	cut_ei_stereo_44KHz.wav
3	83	4	3	2	I	2	0	1156	0	Ⴟ	cut_r_stereo_44KHz.wav
3	84	2	2	1	C	1	1	854	1	Ⴁ	cut_ei_stereo_44KHz.wav
3	85	3	3	2	I	2	0	1424	0	Ⴡ	cut_r_stereo_44KHz.wav
3	86	4	4	2	I	1	0	1582	1	Ⴟ	cut_s_stereo_44KHz.wav
3	87	2	1	0	C	2	1	1188	1	Ⴁ	cut_n_stereo_44KHz.wav
3	88	1	1	1	C	1	1	852	1	Ⴇ	cut_n_stereo_44KHz.wav
3	89	3	3	2	I	1	0	1485	1	Ⴡ	cut_r_stereo_44KHz.wav
3	90	1	2	0	C	2	1	1033	1	Ⴇ	cut_ei_stereo_44KHz.wav
3	91	4	3	2	I	2	0	1515	0	Ⴟ	cut_r_stereo_44KHz.wav
3	92	2	2	1	C	1	1	945	1	Ⴁ	cut_ei_stereo_44KHz.wav
3	93	1	1	1	C	1	1	1378	1	Ⴇ	cut_n_stereo_44KHz.wav
3	94	4	4	2	I	1	0	1464	1	Ⴟ	cut_s_stereo_44KHz.wav
3	95	2	1	0	C	2	1	929	1	Ⴁ	cut_n_stereo_44KHz.wav
3	96	3	4	2	I	2	0	1038	0	Ⴡ	cut_s_stereo_44KHz.wav
3	97	4	4	2	I	1	0	1476	0	Ⴟ	cut_s_stereo_44KHz.wav
3	98	1	2	0	C	2	1	718	1	Ⴇ	cut_ei_stereo_44KHz.wav
3	99	2	2	1	C	1	1	1066	1	Ⴁ	cut_ei_stereo_44KHz.wav
3	100	3	4	2	I	2	0	1448	1	Ⴡ	cut_s_stereo_44KHz.wav
3	101	2	1	0	C	2	1	1026	1	Ⴁ	cut_n_stereo_44KHz.wav
3	102	3	3	2	I	1	0	1114	1	Ⴡ	cut_r_stereo_44KHz.wav
3	103	1	1	1	C	1	1	963	1	Ⴇ	cut_n_stereo_44KHz.wav
3	104	4	3	2	I	2	0	1252	0	Ⴟ	cut_r_stereo_44KHz.wav
3	105	1	1	1	C	2	0	1820	0	Ⴇ	cut_n_stereo_44KHz.wav
3	106	4	4	2	I	1	0	1296	0	Ⴟ	cut_s_stereo_44KHz.wav
3	107	3	3	2	I	1	0	1269	0	Ⴡ	cut_r_stereo_44KHz.wav
3	108	2	2	1	C	1	1	842	1	Ⴁ	cut_ei_stereo_44KHz.wav
3	109	4	3	2	I	1	0	1405	1	Ⴟ	cut_r_stereo_44KHz.wav
3	110	3	4	2	I	2	0	1230	1	Ⴡ	cut_s_stereo_44KHz.wav
3	111	2	1	0	C	2	1	862	1	Ⴁ	cut_n_stereo_44KHz.wav
3	112	1	2	0	C	2	1	646	1	Ⴇ	cut_ei_stereo_44KHz.wav
3	113	3	3	2	I	1	0	1217	0	Ⴡ	cut_r_stereo_44KHz.wav
3	114	2	2	1	C	1	1	1209	1	Ⴁ	cut_ei_stereo_44KHz.wav
3	115	4	3	2	I	2	0	1280	0	Ⴟ	cut_r_stereo_44KHz.wav
3	116	1	1	1	C	1	1	1787	1	Ⴇ	cut_n_stereo_44KHz.wav
3	117	3	4	2	I	2	0	668	1	Ⴡ	cut_s_stereo_44KHz.wav
3	118	2	1	0	C	2	1	818	1	Ⴁ	cut_n_stereo_44KHz.wav
3	119	1	2	0	C	2	1	631	1	Ⴇ	cut_ei_stereo_44KHz.wav
3	120	4	4	2	I	1	0	1219	0	Ⴟ	cut_s_stereo_44KHz.wav
3	121	1	1	1	C	1	1	768	1	Ⴇ	cut_n_stereo_44KHz.wav
3	122	4	3	2	I	1	0	979	0	Ⴟ	cut_r_stereo_44KHz.wav
3	123	3	3	2	I	2	0	1452	0	Ⴡ	cut_r_stereo_44KHz.wav
3	124	2	2	1	C	1	1	707	1	Ⴁ	cut_ei_stereo_44KHz.wav
3	125	3	4	2	I	2	0	1194	1	Ⴡ	cut_s_stereo_44KHz.wav
3	126	2	1	0	C	2	1	770	1	Ⴁ	cut_n_stereo_44KHz.wav
3	127	1	2	0	C	2	1	942	1	Ⴇ	cut_ei_stereo_44KHz.wav
3	128	4	4	2	I	1	0	1614	1	Ⴟ	cut_s_stereo_44KHz.wav
3	129	3	3	2	I	1	0	1673	1	Ⴡ	cut_r_stereo_44KHz.wav
3	130	2	2	1	C	1	1	874	1	Ⴁ	cut_ei_stereo_44KHz.wav
3	131	1	2	0	C	2	1	581	1	Ⴇ	cut_ei_stereo_44KHz.wav
3	132	4	3	2	I	1	0	1796	1	Ⴟ	cut_r_stereo_44KHz.wav
3	133	1	1	1	C	1	1	1373	1	Ⴇ	cut_n_stereo_44KHz.wav
3	134	4	4	2	I	2	0	1509	0	Ⴟ	cut_s_stereo_44KHz.wav
3	135	2	1	0	C	2	1	788	1	Ⴁ	cut_n_stereo_44KHz.wav
3	136	3	4	2	I	2	0	1389	0	Ⴡ	cut_s_stereo_44KHz.wav
3	137	1	1	1	C	1	1	793	1	Ⴇ	cut_n_stereo_44KHz.wav
3	138	4	4	2	I	2	0	1435	1	Ⴟ	cut_s_stereo_44KHz.wav
3	139	3	3	2	I	2	0	896	1	Ⴡ	cut_r_stereo_44KHz.wav
3	140	2	2	1	C	1	1	898	1	Ⴁ	cut_ei_stereo_44KHz.wav
3	141	4	3	2	I	1	0	1455	0	Ⴟ	cut_r_stereo_44KHz.wav
3	142	1	2	0	C	2	1	830	1	Ⴇ	cut_ei_stereo_44KHz.wav
3	143	3	4	2	I	1	0	1530	1	Ⴡ	cut_s_stereo_44KHz.wav
3	144	2	1	0	C	2	1	693	1	Ⴁ	cut_n_stereo_44KHz.wav
3	145	1	2	0	C	2	1	596	1	Ⴇ	cut_ei_stereo_44KHz.wav
3	146	4	4	2	I	2	0	1168	1	Ⴟ	cut_s_stereo_44KHz.wav
3	147	3	4	2	I	1	0	870	1	Ⴡ	cut_s_stereo_44KHz.wav
3	148	2	1	0	C	2	1	680	1	Ⴁ	cut_n_stereo_44KHz.wav
3	149	1	1	1	C	1	1	765	1	Ⴇ	cut_n_stereo_44KHz.wav
3	150	4	3	2	I	1	0	1458	1	Ⴟ	cut_r_stereo_44KHz.wav
3	151	2	2	1	C	1	1	838	1	Ⴁ	cut_ei_stereo_44KHz.wav
3	152	3	3	2	I	1	0	1620	0	Ⴡ	cut_r_stereo_44KHz.wav
3	153	4	3	2	I	1	0	1159	0	Ⴟ	cut_r_stereo_44KHz.wav
3	154	3	3	2	I	2	0	695	1	Ⴡ	cut_r_stereo_44KHz.wav
3	155	1	2	0	C	2	1	954	1	Ⴇ	cut_ei_stereo_44KHz.wav
3	156	2	1	0	C	2	1	843	1	Ⴁ	cut_n_stereo_44KHz.wav
3	157	3	4	2	I	2	0	1816	0	Ⴡ	cut_s_stereo_44KHz.wav
3	158	4	4	2	I	2	0	952	0	Ⴟ	cut_s_stereo_44KHz.wav
3	159	1	1	1	C	1	1	833	1	Ⴇ	cut_n_stereo_44KHz.wav
3	160	2	2	1	C	1	1	835	1	Ⴁ	cut_ei_stereo_44KHz.wav
3	161	3	3	2	I	2	0	1771	0	Ⴡ	cut_r_stereo_44KHz.wav
3	162	4	3	2	I	1	0	1133	0	Ⴟ	cut_r_stereo_44KHz.wav
3	163	2	2	1	C	0	0	0	0	Ⴁ	cut_ei_stereo_44KHz.wav
3	164	1	2	0	C	2	1	647	1	Ⴇ	cut_ei_stereo_44KHz.wav
3	165	4	4	2	I	2	0	1460	1	Ⴟ	cut_s_stereo_44KHz.wav
3	166	3	4	2	I	1	0	1769	0	Ⴡ	cut_s_stereo_44KHz.wav
3	167	2	1	0	C	2	1	779	1	Ⴁ	cut_n_stereo_44KHz.wav
3	168	1	1	1	C	1	1	1036	1	Ⴇ	cut_n_stereo_44KHz.wav
3	169	2	1	0	C	2	1	886	1	Ⴁ	cut_n_stereo_44KHz.wav
3	170	1	2	0	C	2	1	782	1	Ⴇ	cut_ei_stereo_44KHz.wav
3	171	3	3	2	I	2	0	1797	1	Ⴡ	cut_r_stereo_44KHz.wav
3	172	4	4	2	I	2	0	966	0	Ⴟ	cut_s_stereo_44KHz.wav
3	173	3	4	2	I	2	0	1639	0	Ⴡ	cut_s_stereo_44KHz.wav
3	174	2	2	1	C	1	1	801	1	Ⴁ	cut_ei_stereo_44KHz.wav
3	175	1	1	1	C	1	1	1097	1	Ⴇ	cut_n_stereo_44KHz.wav
3	176	4	3	2	I	1	0	1124	1	Ⴟ	cut_r_stereo_44KHz.wav
3	177	2	1	0	C	2	1	939	1	Ⴁ	cut_n_stereo_44KHz.wav
3	178	3	4	2	I	2	0	1661	0	Ⴡ	cut_s_stereo_44KHz.wav
3	179	4	4	2	I	2	0	852	1	Ⴟ	cut_s_stereo_44KHz.wav
3	180	1	1	1	C	1	1	1440	1	Ⴇ	cut_n_stereo_44KHz.wav
3	181	2	2	1	C	1	1	803	1	Ⴁ	cut_ei_stereo_44KHz.wav
3	182	4	3	2	I	1	0	1414	0	Ⴟ	cut_r_stereo_44KHz.wav
3	183	3	3	2	I	1	0	1206	0	Ⴡ	cut_r_stereo_44KHz.wav
3	184	1	2	0	C	2	1	904	1	Ⴇ	cut_ei_stereo_44KHz.wav
3	185	3	4	2	I	1	0	1638	0	Ⴡ	cut_s_stereo_44KHz.wav
3	186	2	2	1	C	1	1	880	1	Ⴁ	cut_ei_stereo_44KHz.wav
3	187	1	1	1	C	1	1	1431	1	Ⴇ	cut_n_stereo_44KHz.wav
3	188	4	3	2	I	1	0	1168	0	Ⴟ	cut_r_stereo_44KHz.wav
3	189	1	2	0	C	2	1	928	1	Ⴇ	cut_ei_stereo_44KHz.wav
3	190	3	3	2	I	2	0	1807	1	Ⴡ	cut_r_stereo_44KHz.wav
3	191	2	1	0	C	2	1	1021	1	Ⴁ	cut_n_stereo_44KHz.wav
3	192	4	4	2	I	2	0	1471	1	Ⴟ	cut_s_stereo_44KHz.wav
3	193	2	1	0	C	2	1	1759	1	Ⴁ	cut_n_stereo_44KHz.wav
3	194	3	4	2	I	1	0	1743	0	Ⴡ	cut_s_stereo_44KHz.wav
3	195	4	4	2	I	1	0	1912	1	Ⴟ	cut_s_stereo_44KHz.wav
3	196	1	1	1	C	1	1	937	1	Ⴇ	cut_n_stereo_44KHz.wav
3	197	3	3	2	I	2	0	1575	0	Ⴡ	cut_r_stereo_44KHz.wav
3	198	1	2	0	C	2	1	903	1	Ⴇ	cut_ei_stereo_44KHz.wav
3	199	2	2	1	C	1	1	1257	1	Ⴁ	cut_ei_stereo_44KHz.wav
3	200	4	3	2	I	2	0	1689	0	Ⴟ	cut_r_stereo_44KHz.wav
4	1	2	1	0	C	2	1	1504	1	Ⴕ	cut_oei_stereo_44KHz.wav
4	2	4	3	2	I	2	0	1180	0	Ⴉ	cut_ui_stereo_44KHz.wav
4	3	1	1	1	C	1	1	795	1	Ⴏ	cut_oei_stereo_44KHz.wav
4	4	3	4	2	I	2	0	1402	0	Ⴒ	cut_j_stereo_44KHz.wav
4	5	1	2	0	C	1	0	1833	0	Ⴏ	cut_f_stereo_44KHz.wav
4	6	4	4	2	I	1	0	1413	1	Ⴉ	cut_j_stereo_44KHz.wav
4	7	2	2	1	C	1	1	1268	1	Ⴕ	cut_f_stereo_44KHz.wav
4	8	3	3	2	I	1	0	1868	1	Ⴒ	cut_ui_stereo_44KHz.wav
4	9	1	2	0	C	2	1	1606	1	Ⴏ	cut_f_stereo_44KHz.wav
4	10	2	1	0	C	2	1	693	1	Ⴕ	cut_oei_stereo_44KHz.wav
4	11	4	4	2	I	0	0	0	0	Ⴉ	cut_j_stereo_44KHz.wav
4	12	3	3	2	I	2	0	1072	1	Ⴒ	cut_ui_stereo_44KHz.wav
4	13	4	3	2	I	2	0	875	1	Ⴉ	cut_ui_stereo_44KHz.wav
4	14	2	2	1	C	1	1	1066	1	Ⴕ	cut_f_stereo_44KHz.wav
4	15	1	1	1	C	1	1	1114	1	Ⴏ	cut_oei_stereo_44KHz.wav
4	16	3	4	2	I	2	0	1163	0	Ⴒ	cut_j_stereo_44KHz.wav
4	17	4	3	2	I	2	0	898	1	Ⴉ	cut_ui_stereo_44KHz.wav
4	18	1	1	1	C	1	1	795	1	Ⴏ	cut_oei_stereo_44KHz.wav
4	19	3	4	2	I	2	0	1522	0	Ⴒ	cut_j_stereo_44KHz.wav
4	20	2	2	1	C	1	1	854	1	Ⴕ	cut_f_stereo_44KHz.wav
4	21	3	3	2	I	1	0	1618	1	Ⴒ	cut_ui_stereo_44KHz.wav
4	22	2	1	0	C	2	1	636	1	Ⴕ	cut_oei_stereo_44KHz.wav
4	23	1	2	0	C	2	1	845	1	Ⴏ	cut_f_stereo_44KHz.wav
4	24	4	4	2	I	2	0	1389	1	Ⴉ	cut_j_stereo_44KHz.wav
4	25	2	1	0	C	2	1	612	1	Ⴕ	cut_oei_stereo_44KHz.wav
4	26	4	4	2	I	2	0	819	1	Ⴉ	cut_j_stereo_44KHz.wav
4	27	1	2	0	C	2	1	584	1	Ⴏ	cut_f_stereo_44KHz.wav
4	28	3	3	2	I	2	0	1255	0	Ⴒ	cut_ui_stereo_44KHz.wav
4	29	2	2	1	C	1	1	821	1	Ⴕ	cut_f_stereo_44KHz.wav
4	30	4	3	2	I	1	0	1283	0	Ⴉ	cut_ui_stereo_44KHz.wav
4	31	1	1	1	C	1	1	818	1	Ⴏ	cut_oei_stereo_44KHz.wav
4	32	3	4	2	I	2	0	1432	1	Ⴒ	cut_j_stereo_44KHz.wav
4	33	4	3	2	I	2	0	1148	0	Ⴉ	cut_ui_stereo_44KHz.wav
4	34	1	1	1	C	1	1	870	1	Ⴏ	cut_oei_stereo_44KHz.wav
4	35	2	2	1	C	1	1	790	1	Ⴕ	cut_f_stereo_44KHz.wav
4	36	3	3	2	I	2	0	721	0	Ⴒ	cut_ui_stereo_44KHz.wav
4	37	2	1	0	C	2	1	922	1	Ⴕ	cut_oei_stereo_44KHz.wav
4	38	3	4	2	I	2	0	1344	0	Ⴒ	cut_j_stereo_44KHz.wav
4	39	1	2	0	C	2	1	725	1	Ⴏ	cut_f_stereo_44KHz.wav
4	40	4	4	2	I	2	0	981	0	Ⴉ	cut_j_stereo_44KHz.wav
4	41	1	2	0	C	2	1	1116	1	Ⴏ	cut_f_stereo_44KHz.wav
4	42	2	1	0	C	2	1	604	1	Ⴕ	cut_oei_stereo_44KHz.wav
4	43	4	4	2	I	2	0	840	0	Ⴉ	cut_j_stereo_44KHz.wav
4	44	3	4	2	I	2	0	1001	1	Ⴒ	cut_j_stereo_44KHz.wav
4	45	2	2	1	C	1	1	858	1	Ⴕ	cut_f_stereo_44KHz.wav
4	46	4	3	2	I	1	0	1237	1	Ⴉ	cut_ui_stereo_44KHz.wav
4	47	1	1	1	C	1	1	1030	1	Ⴏ	cut_oei_stereo_44KHz.wav
4	48	3	3	2	I	1	0	1013	0	Ⴒ	cut_ui_stereo_44KHz.wav
4	49	4	3	2	I	2	0	852	0	Ⴉ	cut_ui_stereo_44KHz.wav
4	50	3	4	2	I	2	0	1489	1	Ⴒ	cut_j_stereo_44KHz.wav
4	51	2	2	1	C	1	1	910	1	Ⴕ	cut_f_stereo_44KHz.wav
4	52	1	2	0	C	2	1	763	1	Ⴏ	cut_f_stereo_44KHz.wav
4	53	2	1	0	C	2	1	589	1	Ⴕ	cut_oei_stereo_44KHz.wav
4	54	4	4	2	I	2	0	1145	1	Ⴉ	cut_j_stereo_44KHz.wav
4	55	3	3	2	I	2	0	1218	0	Ⴒ	cut_ui_stereo_44KHz.wav
4	56	1	1	1	C	1	1	731	1	Ⴏ	cut_oei_stereo_44KHz.wav
4	57	4	3	2	I	2	0	1536	0	Ⴉ	cut_ui_stereo_44KHz.wav
4	58	1	2	0	C	2	1	637	1	Ⴏ	cut_f_stereo_44KHz.wav
4	59	3	3	2	I	2	0	1394	0	Ⴒ	cut_ui_stereo_44KHz.wav
4	60	2	2	1	C	1	1	825	1	Ⴕ	cut_f_stereo_44KHz.wav
4	61	1	1	1	C	1	1	912	1	Ⴏ	cut_oei_stereo_44KHz.wav
4	62	3	4	2	I	1	0	1365	0	Ⴒ	cut_j_stereo_44KHz.wav
4	63	4	4	2	I	1	0	1031	0	Ⴉ	cut_j_stereo_44KHz.wav
4	64	2	1	0	C	2	1	697	1	Ⴕ	cut_oei_stereo_44KHz.wav
4	65	4	3	2	I	1	0	1230	0	Ⴉ	cut_ui_stereo_44KHz.wav
4	66	3	4	2	I	2	0	1223	1	Ⴒ	cut_j_stereo_44KHz.wav
4	67	1	1	1	C	1	1	790	1	Ⴏ	cut_oei_stereo_44KHz.wav
4	68	2	1	0	C	2	1	688	1	Ⴕ	cut_oei_stereo_44KHz.wav
4	69	1	2	0	C	2	1	1085	1	Ⴏ	cut_f_stereo_44KHz.wav
4	70	2	2	1	C	1	1	884	1	Ⴕ	cut_f_stereo_44KHz.wav
4	71	4	4	2	I	2	0	1052	1	Ⴉ	cut_j_stereo_44KHz.wav
4	72	3	3	2	I	1	0	1275	0	Ⴒ	cut_ui_stereo_44KHz.wav
4	73	2	1	0	C	2	1	586	1	Ⴕ	cut_oei_stereo_44KHz.wav
4	74	1	1	1	C	1	1	924	1	Ⴏ	cut_oei_stereo_44KHz.wav
4	75	3	4	2	I	2	0	1585	0	Ⴒ	cut_j_stereo_44KHz.wav
4	76	4	3	2	I	1	0	882	1	Ⴉ	cut_ui_stereo_44KHz.wav
4	77	2	2	1	C	1	1	871	1	Ⴕ	cut_f_stereo_44KHz.wav
4	78	1	2	0	C	2	1	1074	1	Ⴏ	cut_f_stereo_44KHz.wav
4	79	3	3	2	I	1	0	1584	1	Ⴒ	cut_ui_stereo_44KHz.wav
4	80	4	4	2	I	2	0	1179	1	Ⴉ	cut_j_stereo_44KHz.wav
4	81	3	4	2	I	1	0	1379	1	Ⴒ	cut_j_stereo_44KHz.wav
4	82	4	3	2	I	1	0	1586	0	Ⴉ	cut_ui_stereo_44KHz.wav
4	83	2	2	1	C	1	1	839	1	Ⴕ	cut_f_stereo_44KHz.wav
4	84	1	1	1	C	1	1	678	1	Ⴏ	cut_oei_stereo_44KHz.wav
4	85	4	4	2	I	2	0	1209	0	Ⴉ	cut_j_stereo_44KHz.wav
4	86	2	1	0	C	2	1	856	1	Ⴕ	cut_oei_stereo_44KHz.wav
4	87	1	2	0	C	2	1	1030	1	Ⴏ	cut_f_stereo_44KHz.wav
4	88	3	3	2	I	1	0	1457	0	Ⴒ	cut_ui_stereo_44KHz.wav
4	89	1	1	1	C	1	1	1120	1	Ⴏ	cut_oei_stereo_44KHz.wav
4	90	4	4	2	I	2	0	1138	0	Ⴉ	cut_j_stereo_44KHz.wav
4	91	2	2	1	C	1	1	876	1	Ⴕ	cut_f_stereo_44KHz.wav
4	92	3	4	2	I	2	0	1551	0	Ⴒ	cut_j_stereo_44KHz.wav
4	93	2	1	0	C	2	1	602	1	Ⴕ	cut_oei_stereo_44KHz.wav
4	94	4	3	2	I	1	0	991	0	Ⴉ	cut_ui_stereo_44KHz.wav
4	95	3	3	2	I	1	0	838	0	Ⴒ	cut_ui_stereo_44KHz.wav
4	96	1	2	0	C	2	1	1239	1	Ⴏ	cut_f_stereo_44KHz.wav
4	97	2	1	0	C	2	1	925	1	Ⴕ	cut_oei_stereo_44KHz.wav
4	98	3	3	2	I	1	0	1375	1	Ⴒ	cut_ui_stereo_44KHz.wav
4	99	1	2	0	C	2	1	770	1	Ⴏ	cut_f_stereo_44KHz.wav
4	100	4	3	2	I	1	0	1445	1	Ⴉ	cut_ui_stereo_44KHz.wav
4	101	2	2	1	C	1	1	921	1	Ⴕ	cut_f_stereo_44KHz.wav
4	102	1	1	1	C	1	1	737	1	Ⴏ	cut_oei_stereo_44KHz.wav
4	103	3	4	2	I	1	0	1396	0	Ⴒ	cut_j_stereo_44KHz.wav
4	104	4	4	2	I	1	0	555	1	Ⴉ	cut_j_stereo_44KHz.wav
4	105	1	1	1	C	1	1	775	1	Ⴏ	cut_oei_stereo_44KHz.wav
4	106	4	4	2	I	1	0	1554	1	Ⴉ	cut_j_stereo_44KHz.wav
4	107	3	3	2	I	1	0	1420	1	Ⴒ	cut_ui_stereo_44KHz.wav
4	108	2	1	0	C	2	1	772	1	Ⴕ	cut_oei_stereo_44KHz.wav
4	109	4	3	2	I	1	0	1387	1	Ⴉ	cut_ui_stereo_44KHz.wav
4	110	3	4	2	I	1	0	1021	0	Ⴒ	cut_j_stereo_44KHz.wav
4	111	1	2	0	C	2	1	773	1	Ⴏ	cut_f_stereo_44KHz.wav
4	112	2	2	1	C	1	1	778	1	Ⴕ	cut_f_stereo_44KHz.wav
4	113	3	3	2	I	1	0	1305	0	Ⴒ	cut_ui_stereo_44KHz.wav
4	114	1	2	0	C	2	1	925	1	Ⴏ	cut_f_stereo_44KHz.wav
4	115	2	2	1	C	1	1	1071	1	Ⴕ	cut_f_stereo_44KHz.wav
4	116	4	4	2	I	2	0	1423	0	Ⴉ	cut_j_stereo_44KHz.wav
4	117	2	1	0	C	2	1	1336	1	Ⴕ	cut_oei_stereo_44KHz.wav
4	118	4	3	2	I	1	0	1123	0	Ⴉ	cut_ui_stereo_44KHz.wav
4	119	1	1	1	C	1	1	811	1	Ⴏ	cut_oei_stereo_44KHz.wav
4	120	3	4	2	I	1	0	1069	0	Ⴒ	cut_j_stereo_44KHz.wav
4	121	4	3	2	I	1	0	895	0	Ⴉ	cut_ui_stereo_44KHz.wav
4	122	2	2	1	C	1	1	887	1	Ⴕ	cut_f_stereo_44KHz.wav
4	123	3	4	2	I	1	0	1271	1	Ⴒ	cut_j_stereo_44KHz.wav
4	124	1	2	0	C	2	1	822	1	Ⴏ	cut_f_stereo_44KHz.wav
4	125	3	3	2	I	1	0	1294	1	Ⴒ	cut_ui_stereo_44KHz.wav
4	126	1	1	1	C	1	1	1554	1	Ⴏ	cut_oei_stereo_44KHz.wav
4	127	4	4	2	I	1	0	1237	0	Ⴉ	cut_j_stereo_44KHz.wav
4	128	2	1	0	C	2	1	938	1	Ⴕ	cut_oei_stereo_44KHz.wav
4	129	3	3	2	I	1	0	794	0	Ⴒ	cut_ui_stereo_44KHz.wav
4	130	4	3	2	I	1	0	727	1	Ⴉ	cut_ui_stereo_44KHz.wav
4	131	1	1	1	C	1	1	1099	1	Ⴏ	cut_oei_stereo_44KHz.wav
4	132	2	2	1	C	1	1	630	1	Ⴕ	cut_f_stereo_44KHz.wav
4	133	3	4	2	I	1	0	1379	1	Ⴒ	cut_j_stereo_44KHz.wav
4	134	4	4	2	I	1	0	734	0	Ⴉ	cut_j_stereo_44KHz.wav
4	135	1	2	0	C	2	1	760	1	Ⴏ	cut_f_stereo_44KHz.wav
4	136	2	1	0	C	2	1	627	1	Ⴕ	cut_oei_stereo_44KHz.wav
4	137	1	1	1	C	2	0	1548	0	Ⴏ	cut_oei_stereo_44KHz.wav
4	138	2	2	1	C	1	1	775	1	Ⴕ	cut_f_stereo_44KHz.wav
4	139	4	4	2	I	1	0	1143	0	Ⴉ	cut_j_stereo_44KHz.wav
4	140	3	3	2	I	1	0	1186	0	Ⴒ	cut_ui_stereo_44KHz.wav
4	141	4	3	2	I	1	0	795	1	Ⴉ	cut_ui_stereo_44KHz.wav
4	142	1	2	0	C	2	1	1366	1	Ⴏ	cut_f_stereo_44KHz.wav
4	143	2	1	0	C	2	1	960	1	Ⴕ	cut_oei_stereo_44KHz.wav
4	144	3	4	2	I	1	0	1211	0	Ⴒ	cut_j_stereo_44KHz.wav
4	145	2	2	1	C	1	1	749	1	Ⴕ	cut_f_stereo_44KHz.wav
4	146	4	3	2	I	2	0	1552	1	Ⴉ	cut_ui_stereo_44KHz.wav
4	147	3	3	2	I	1	0	1165	1	Ⴒ	cut_ui_stereo_44KHz.wav
4	148	1	2	0	C	2	1	914	1	Ⴏ	cut_f_stereo_44KHz.wav
4	149	2	1	0	C	2	1	589	1	Ⴕ	cut_oei_stereo_44KHz.wav
4	150	3	4	2	I	1	0	1408	0	Ⴒ	cut_j_stereo_44KHz.wav
4	151	4	4	2	I	1	0	806	0	Ⴉ	cut_j_stereo_44KHz.wav
4	152	1	1	1	C	1	1	1531	1	Ⴏ	cut_oei_stereo_44KHz.wav
4	153	3	3	2	I	1	0	1151	1	Ⴒ	cut_ui_stereo_44KHz.wav
4	154	1	1	1	C	1	1	901	1	Ⴏ	cut_oei_stereo_44KHz.wav
4	155	2	2	1	C	1	1	774	1	Ⴕ	cut_f_stereo_44KHz.wav
4	156	4	4	2	I	1	0	1533	1	Ⴉ	cut_j_stereo_44KHz.wav
4	157	1	2	0	C	2	1	1032	1	Ⴏ	cut_f_stereo_44KHz.wav
4	158	4	3	2	I	1	0	1506	0	Ⴉ	cut_ui_stereo_44KHz.wav
4	159	3	4	2	I	1	0	1117	1	Ⴒ	cut_j_stereo_44KHz.wav
4	160	2	1	0	C	2	1	821	1	Ⴕ	cut_oei_stereo_44KHz.wav
4	161	1	1	1	C	1	1	685	1	Ⴏ	cut_oei_stereo_44KHz.wav
4	162	3	3	2	I	1	0	1178	1	Ⴒ	cut_ui_stereo_44KHz.wav
4	163	4	3	2	I	2	0	1378	1	Ⴉ	cut_ui_stereo_44KHz.wav
4	164	2	1	0	C	2	1	691	1	Ⴕ	cut_oei_stereo_44KHz.wav
4	165	3	4	2	I	1	0	1726	1	Ⴒ	cut_j_stereo_44KHz.wav
4	166	1	2	0	C	2	1	674	1	Ⴏ	cut_f_stereo_44KHz.wav
4	167	2	2	1	C	1	1	1780	1	Ⴕ	cut_f_stereo_44KHz.wav
4	168	4	4	2	I	1	0	1007	0	Ⴉ	cut_j_stereo_44KHz.wav
4	169	2	1	0	C	2	1	566	1	Ⴕ	cut_oei_stereo_44KHz.wav
4	170	4	4	2	I	1	0	928	1	Ⴉ	cut_j_stereo_44KHz.wav
4	171	3	3	2	I	1	0	1207	1	Ⴒ	cut_ui_stereo_44KHz.wav
4	172	1	1	1	C	1	1	1199	1	Ⴏ	cut_oei_stereo_44KHz.wav
4	173	3	4	2	I	1	0	1576	0	Ⴒ	cut_j_stereo_44KHz.wav
4	174	4	3	2	I	1	0	1368	1	Ⴉ	cut_ui_stereo_44KHz.wav
4	175	1	2	0	C	2	1	916	1	Ⴏ	cut_f_stereo_44KHz.wav
4	176	2	2	1	C	1	1	784	1	Ⴕ	cut_f_stereo_44KHz.wav
4	177	4	4	2	I	2	0	1337	0	Ⴉ	cut_j_stereo_44KHz.wav
4	178	1	2	0	C	2	1	797	1	Ⴏ	cut_f_stereo_44KHz.wav
4	179	2	1	0	C	2	1	647	1	Ⴕ	cut_oei_stereo_44KHz.wav
4	180	3	3	2	I	1	0	1103	0	Ⴒ	cut_ui_stereo_44KHz.wav
4	181	1	1	1	C	1	1	718	1	Ⴏ	cut_oei_stereo_44KHz.wav
4	182	3	4	2	I	1	0	715	1	Ⴒ	cut_j_stereo_44KHz.wav
4	183	4	3	2	I	1	0	1595	1	Ⴉ	cut_ui_stereo_44KHz.wav
4	184	2	2	1	C	1	1	745	1	Ⴕ	cut_f_stereo_44KHz.wav
4	185	1	1	1	C	1	1	1059	1	Ⴏ	cut_oei_stereo_44KHz.wav
4	186	3	3	2	I	1	0	1467	1	Ⴒ	cut_ui_stereo_44KHz.wav
4	187	4	4	2	I	2	0	1878	0	Ⴉ	cut_j_stereo_44KHz.wav
4	188	2	2	1	C	1	1	1191	1	Ⴕ	cut_f_stereo_44KHz.wav
4	189	3	4	2	I	2	0	1761	1	Ⴒ	cut_j_stereo_44KHz.wav
4	190	1	2	0	C	2	1	1169	1	Ⴏ	cut_f_stereo_44KHz.wav
4	191	4	3	2	I	1	0	1365	1	Ⴉ	cut_ui_stereo_44KHz.wav
4	192	2	1	0	C	2	1	673	1	Ⴕ	cut_oei_stereo_44KHz.wav
4	193	3	4	2	I	1	0	1132	1	Ⴒ	cut_j_stereo_44KHz.wav
4	194	1	2	0	C	2	1	1152	1	Ⴏ	cut_f_stereo_44KHz.wav
4	195	4	4	2	I	1	0	1261	0	Ⴉ	cut_j_stereo_44KHz.wav
4	196	2	1	0	C	2	1	911	1	Ⴕ	cut_oei_stereo_44KHz.wav
4	197	1	1	1	C	1	1	618	1	Ⴏ	cut_oei_stereo_44KHz.wav
4	198	2	2	1	C	1	1	591	1	Ⴕ	cut_f_stereo_44KHz.wav
4	199	4	3	2	I	1	0	561	1	Ⴉ	cut_ui_stereo_44KHz.wav
4	200	3	3	2	I	2	0	895	1	Ⴒ	cut_ui_stereo_44KHz.wav
