block	trial	Vstim	Astim	match	C/I	resp	result	RT	fb	V-file	A-file
LR

0	1	2	4	0	C	0	0	0	0	Ⴉ	cut_eeuw_stereo_44KHz.wav
0	2	2	3	1	C	2	1	528	1	Ⴉ	cut_ee_stereo_44KHz.wav
0	3	1	1	1	C	2	1	525	1	Ⴋ	cut_g_stereo_44KHz.wav
0	4	1	2	0	C	1	1	636	1	Ⴋ	cut_oo_stereo_44KHz.wav
0	5	1	1	1	C	2	1	570	1	Ⴋ	cut_g_stereo_44KHz.wav
0	6	1	2	0	C	1	1	429	1	Ⴋ	cut_oo_stereo_44KHz.wav
0	7	2	3	1	C	1	0	632	0	Ⴉ	cut_ee_stereo_44KHz.wav
0	8	2	4	0	C	2	0	526	0	Ⴉ	cut_eeuw_stereo_44KHz.wav
0	9	2	4	0	C	1	1	581	1	Ⴉ	cut_eeuw_stereo_44KHz.wav
0	10	1	1	1	C	2	1	587	1	Ⴋ	cut_g_stereo_44KHz.wav
0	11	1	2	0	C	2	0	601	0	Ⴋ	cut_oo_stereo_44KHz.wav
0	12	2	3	1	C	1	0	425	0	Ⴉ	cut_ee_stereo_44KHz.wav
0	13	1	1	1	C	2	1	471	1	Ⴋ	cut_g_stereo_44KHz.wav
0	14	1	2	0	C	2	0	646	0	Ⴋ	cut_oo_stereo_44KHz.wav
0	15	2	3	1	C	1	0	400	0	Ⴉ	cut_ee_stereo_44KHz.wav
0	16	2	4	0	C	2	0	755	0	Ⴉ	cut_eeuw_stereo_44KHz.wav
0	17	2	3	1	C	1	0	1217	0	Ⴉ	cut_ee_stereo_44KHz.wav
0	18	1	2	0	C	2	0	682	0	Ⴋ	cut_oo_stereo_44KHz.wav
0	19	2	4	0	C	2	0	1323	0	Ⴉ	cut_eeuw_stereo_44KHz.wav
0	20	1	1	1	C	1	0	901	0	Ⴋ	cut_g_stereo_44KHz.wav
0	21	1	2	0	C	2	0	1827	0	Ⴋ	cut_oo_stereo_44KHz.wav
0	22	1	1	1	C	1	0	703	0	Ⴋ	cut_g_stereo_44KHz.wav
0	23	2	4	0	C	2	0	725	0	Ⴉ	cut_eeuw_stereo_44KHz.wav
0	24	2	3	1	C	1	0	697	0	Ⴉ	cut_ee_stereo_44KHz.wav
0	25	1	1	1	C	2	1	637	1	Ⴋ	cut_g_stereo_44KHz.wav
0	26	2	3	1	C	2	1	1241	1	Ⴉ	cut_ee_stereo_44KHz.wav
0	27	1	2	0	C	2	0	438	0	Ⴋ	cut_oo_stereo_44KHz.wav
0	28	2	4	0	C	1	1	407	1	Ⴉ	cut_eeuw_stereo_44KHz.wav
0	29	2	3	1	C	1	0	428	0	Ⴉ	cut_ee_stereo_44KHz.wav
0	30	1	2	0	C	2	0	482	0	Ⴋ	cut_oo_stereo_44KHz.wav
avg_resp = 601
1	1	1	1	1	C	1	0	1430	0	Ⴉ	cut_f_stereo_44KHz.wav
1	2	4	4	2	I	2	0	1056	1	Ⴕ	cut_s_stereo_44KHz.wav
1	3	2	1	0	C	2	0	759	0	Ⴌ	cut_f_stereo_44KHz.wav
1	4	3	4	2	I	1	0	296	0	Ⴔ	cut_s_stereo_44KHz.wav
1	5	2	2	1	C	2	1	1201	1	Ⴌ	cut_ui_stereo_44KHz.wav
1	6	1	2	0	C	2	0	766	0	Ⴉ	cut_ui_stereo_44KHz.wav
1	7	3	3	2	I	1	0	656	1	Ⴔ	cut_oei_stereo_44KHz.wav
1	8	4	3	2	I	1	0	654	0	Ⴕ	cut_oei_stereo_44KHz.wav
1	9	3	3	2	I	2	0	561	1	Ⴔ	cut_oei_stereo_44KHz.wav
1	10	1	2	0	C	2	0	552	0	Ⴉ	cut_ui_stereo_44KHz.wav
1	11	2	1	0	C	1	1	444	1	Ⴌ	cut_f_stereo_44KHz.wav
1	12	4	4	2	I	1	0	501	1	Ⴕ	cut_s_stereo_44KHz.wav
1	13	3	4	2	I	1	0	410	0	Ⴔ	cut_s_stereo_44KHz.wav
1	14	1	1	1	C	2	1	458	1	Ⴉ	cut_f_stereo_44KHz.wav
1	15	2	2	1	C	1	0	474	0	Ⴌ	cut_ui_stereo_44KHz.wav
1	16	4	3	2	I	2	0	542	0	Ⴕ	cut_oei_stereo_44KHz.wav
1	17	3	3	2	I	1	0	372	0	Ⴔ	cut_oei_stereo_44KHz.wav
1	18	1	1	1	C	2	1	971	1	Ⴉ	cut_f_stereo_44KHz.wav
1	19	2	2	1	C	2	1	469	1	Ⴌ	cut_ui_stereo_44KHz.wav
1	20	4	3	2	I	2	0	818	1	Ⴕ	cut_oei_stereo_44KHz.wav
1	21	1	2	0	C	2	0	799	0	Ⴉ	cut_ui_stereo_44KHz.wav
1	22	4	4	2	I	1	0	414	0	Ⴕ	cut_s_stereo_44KHz.wav
1	23	2	1	0	C	2	0	716	0	Ⴌ	cut_f_stereo_44KHz.wav
1	24	3	4	2	I	2	0	1095	0	Ⴔ	cut_s_stereo_44KHz.wav
1	25	2	2	1	C	2	1	843	1	Ⴌ	cut_ui_stereo_44KHz.wav
1	26	3	4	2	I	2	0	662	0	Ⴔ	cut_s_stereo_44KHz.wav
1	27	4	3	2	I	1	0	1940	1	Ⴕ	cut_oei_stereo_44KHz.wav
1	28	1	2	0	C	1	1	594	1	Ⴉ	cut_ui_stereo_44KHz.wav
1	29	2	1	0	C	2	0	905	0	Ⴌ	cut_f_stereo_44KHz.wav
1	30	1	1	1	C	2	1	1709	1	Ⴉ	cut_f_stereo_44KHz.wav
1	31	3	3	2	I	1	0	1205	0	Ⴔ	cut_oei_stereo_44KHz.wav
1	32	4	4	2	I	2	0	1253	0	Ⴕ	cut_s_stereo_44KHz.wav
1	33	1	2	0	C	1	1	1193	1	Ⴉ	cut_ui_stereo_44KHz.wav
1	34	2	1	0	C	2	0	954	0	Ⴌ	cut_f_stereo_44KHz.wav
1	35	4	3	2	I	1	0	541	1	Ⴕ	cut_oei_stereo_44KHz.wav
1	36	3	3	2	I	1	0	813	1	Ⴔ	cut_oei_stereo_44KHz.wav
1	37	2	2	1	C	2	1	724	1	Ⴌ	cut_ui_stereo_44KHz.wav
1	38	1	1	1	C	2	1	699	1	Ⴉ	cut_f_stereo_44KHz.wav
1	39	4	4	2	I	2	0	783	0	Ⴕ	cut_s_stereo_44KHz.wav
1	40	3	4	2	I	1	0	1311	1	Ⴔ	cut_s_stereo_44KHz.wav
1	41	1	2	0	C	1	1	1006	1	Ⴉ	cut_ui_stereo_44KHz.wav
1	42	3	3	2	I	2	0	935	0	Ⴔ	cut_oei_stereo_44KHz.wav
1	43	2	1	0	C	1	1	222	1	Ⴌ	cut_f_stereo_44KHz.wav
1	44	4	4	2	I	2	0	776	1	Ⴕ	cut_s_stereo_44KHz.wav
1	45	3	4	2	I	2	0	1480	0	Ⴔ	cut_s_stereo_44KHz.wav
1	46	4	3	2	I	1	0	124	0	Ⴕ	cut_oei_stereo_44KHz.wav
1	47	2	2	1	C	2	1	1165	1	Ⴌ	cut_ui_stereo_44KHz.wav
1	48	1	1	1	C	1	0	689	0	Ⴉ	cut_f_stereo_44KHz.wav
1	49	4	3	2	I	2	0	518	0	Ⴕ	cut_oei_stereo_44KHz.wav
1	50	1	2	0	C	1	1	431	1	Ⴉ	cut_ui_stereo_44KHz.wav
1	51	3	4	2	I	2	0	746	1	Ⴔ	cut_s_stereo_44KHz.wav
1	52	2	2	1	C	2	1	678	1	Ⴌ	cut_ui_stereo_44KHz.wav
1	53	1	1	1	C	1	0	668	0	Ⴉ	cut_f_stereo_44KHz.wav
1	54	3	3	2	I	2	0	832	0	Ⴔ	cut_oei_stereo_44KHz.wav
1	55	2	1	0	C	1	1	649	1	Ⴌ	cut_f_stereo_44KHz.wav
1	56	4	4	2	I	2	0	747	0	Ⴕ	cut_s_stereo_44KHz.wav
1	57	2	1	0	C	1	1	458	1	Ⴌ	cut_f_stereo_44KHz.wav
1	58	3	4	2	I	1	0	780	1	Ⴔ	cut_s_stereo_44KHz.wav
1	59	4	4	2	I	1	0	532	1	Ⴕ	cut_s_stereo_44KHz.wav
1	60	1	1	1	C	1	0	606	0	Ⴉ	cut_f_stereo_44KHz.wav
1	61	2	2	1	C	2	1	440	1	Ⴌ	cut_ui_stereo_44KHz.wav
1	62	4	3	2	I	2	0	1805	1	Ⴕ	cut_oei_stereo_44KHz.wav
1	63	3	3	2	I	2	0	1245	1	Ⴔ	cut_oei_stereo_44KHz.wav
1	64	1	2	0	C	2	0	716	0	Ⴉ	cut_ui_stereo_44KHz.wav
1	65	3	3	2	I	1	0	489	1	Ⴔ	cut_oei_stereo_44KHz.wav
1	66	1	1	1	C	2	1	1524	1	Ⴉ	cut_f_stereo_44KHz.wav
1	67	2	1	0	C	1	1	738	1	Ⴌ	cut_f_stereo_44KHz.wav
1	68	4	4	2	I	2	0	1346	1	Ⴕ	cut_s_stereo_44KHz.wav
1	69	3	4	2	I	1	0	1149	0	Ⴔ	cut_s_stereo_44KHz.wav
1	70	4	3	2	I	2	0	1640	0	Ⴕ	cut_oei_stereo_44KHz.wav
1	71	2	2	1	C	1	0	1193	0	Ⴌ	cut_ui_stereo_44KHz.wav
1	72	1	2	0	C	2	0	773	0	Ⴉ	cut_ui_stereo_44KHz.wav
1	73	4	4	2	I	1	0	541	0	Ⴕ	cut_s_stereo_44KHz.wav
1	74	3	3	2	I	2	0	556	1	Ⴔ	cut_oei_stereo_44KHz.wav
1	75	2	1	0	C	2	0	544	0	Ⴌ	cut_f_stereo_44KHz.wav
1	76	1	2	0	C	1	1	469	1	Ⴉ	cut_ui_stereo_44KHz.wav
1	77	3	4	2	I	2	0	632	1	Ⴔ	cut_s_stereo_44KHz.wav
1	78	1	1	1	C	2	1	943	1	Ⴉ	cut_f_stereo_44KHz.wav
1	79	4	3	2	I	2	0	1167	1	Ⴕ	cut_oei_stereo_44KHz.wav
1	80	2	2	1	C	2	1	1062	1	Ⴌ	cut_ui_stereo_44KHz.wav
1	81	1	1	1	C	2	1	503	1	Ⴉ	cut_f_stereo_44KHz.wav
1	82	3	3	2	I	2	0	692	1	Ⴔ	cut_oei_stereo_44KHz.wav
1	83	4	3	2	I	2	0	1235	1	Ⴕ	cut_oei_stereo_44KHz.wav
1	84	2	2	1	C	2	1	1101	1	Ⴌ	cut_ui_stereo_44KHz.wav
1	85	3	4	2	I	1	0	1237	0	Ⴔ	cut_s_stereo_44KHz.wav
1	86	4	4	2	I	2	0	982	0	Ⴕ	cut_s_stereo_44KHz.wav
1	87	2	1	0	C	1	1	411	1	Ⴌ	cut_f_stereo_44KHz.wav
1	88	1	2	0	C	2	0	520	0	Ⴉ	cut_ui_stereo_44KHz.wav
1	89	3	3	2	I	1	0	397	1	Ⴔ	cut_oei_stereo_44KHz.wav
1	90	4	4	2	I	1	0	557	1	Ⴕ	cut_s_stereo_44KHz.wav
1	91	1	1	1	C	2	1	723	1	Ⴉ	cut_f_stereo_44KHz.wav
1	92	2	1	0	C	2	0	526	0	Ⴌ	cut_f_stereo_44KHz.wav
1	93	4	3	2	I	1	0	374	0	Ⴕ	cut_oei_stereo_44KHz.wav
1	94	1	2	0	C	2	0	451	0	Ⴉ	cut_ui_stereo_44KHz.wav
1	95	3	4	2	I	0	0	0	0	Ⴔ	cut_s_stereo_44KHz.wav
1	96	2	2	1	C	2	1	721	1	Ⴌ	cut_ui_stereo_44KHz.wav
1	97	4	4	2	I	0	0	0	0	Ⴕ	cut_s_stereo_44KHz.wav
1	98	2	1	0	C	2	0	485	0	Ⴌ	cut_f_stereo_44KHz.wav
1	99	3	4	2	I	1	0	654	1	Ⴔ	cut_s_stereo_44KHz.wav
1	100	1	1	1	C	1	0	560	0	Ⴉ	cut_f_stereo_44KHz.wav
1	101	4	3	2	I	2	0	491	1	Ⴕ	cut_oei_stereo_44KHz.wav
1	102	1	2	0	C	2	0	730	0	Ⴉ	cut_ui_stereo_44KHz.wav
1	103	2	2	1	C	1	0	626	0	Ⴌ	cut_ui_stereo_44KHz.wav
1	104	3	3	2	I	2	0	524	0	Ⴔ	cut_oei_stereo_44KHz.wav
1	105	1	1	1	C	1	0	788	0	Ⴉ	cut_f_stereo_44KHz.wav
1	106	4	4	2	I	2	0	526	1	Ⴕ	cut_s_stereo_44KHz.wav
1	107	2	1	0	C	2	0	569	0	Ⴌ	cut_f_stereo_44KHz.wav
1	108	3	3	2	I	1	0	397	0	Ⴔ	cut_oei_stereo_44KHz.wav
1	109	4	3	2	I	2	0	1001	1	Ⴕ	cut_oei_stereo_44KHz.wav
1	110	3	4	2	I	2	0	1905	0	Ⴔ	cut_s_stereo_44KHz.wav
1	111	2	2	1	C	2	1	507	1	Ⴌ	cut_ui_stereo_44KHz.wav
1	112	1	2	0	C	2	0	728	0	Ⴉ	cut_ui_stereo_44KHz.wav
1	113	3	3	2	I	1	0	421	1	Ⴔ	cut_oei_stereo_44KHz.wav
1	114	1	1	1	C	2	1	647	1	Ⴉ	cut_f_stereo_44KHz.wav
1	115	2	2	1	C	2	1	589	1	Ⴌ	cut_ui_stereo_44KHz.wav
1	116	4	4	2	I	2	0	961	0	Ⴕ	cut_s_stereo_44KHz.wav
1	117	2	1	0	C	1	1	477	1	Ⴌ	cut_f_stereo_44KHz.wav
1	118	1	2	0	C	1	1	867	1	Ⴉ	cut_ui_stereo_44KHz.wav
1	119	4	3	2	I	2	0	871	1	Ⴕ	cut_oei_stereo_44KHz.wav
1	120	3	4	2	I	2	0	720	1	Ⴔ	cut_s_stereo_44KHz.wav
1	121	4	4	2	I	2	0	876	1	Ⴕ	cut_s_stereo_44KHz.wav
1	122	2	2	1	C	2	1	556	1	Ⴌ	cut_ui_stereo_44KHz.wav
1	123	3	4	2	I	2	0	625	0	Ⴔ	cut_s_stereo_44KHz.wav
1	124	1	1	1	C	1	0	549	0	Ⴉ	cut_f_stereo_44KHz.wav
1	125	3	3	2	I	2	0	424	0	Ⴔ	cut_oei_stereo_44KHz.wav
1	126	1	2	0	C	1	1	633	1	Ⴉ	cut_ui_stereo_44KHz.wav
1	127	2	1	0	C	2	0	680	0	Ⴌ	cut_f_stereo_44KHz.wav
1	128	4	3	2	I	1	0	449	1	Ⴕ	cut_oei_stereo_44KHz.wav
1	129	2	2	1	C	2	1	803	1	Ⴌ	cut_ui_stereo_44KHz.wav
1	130	3	4	2	I	2	0	771	1	Ⴔ	cut_s_stereo_44KHz.wav
1	131	4	4	2	I	2	0	976	0	Ⴕ	cut_s_stereo_44KHz.wav
1	132	1	1	1	C	1	0	563	0	Ⴉ	cut_f_stereo_44KHz.wav
1	133	2	1	0	C	2	0	497	0	Ⴌ	cut_f_stereo_44KHz.wav
1	134	4	3	2	I	1	0	713	1	Ⴕ	cut_oei_stereo_44KHz.wav
1	135	1	2	0	C	2	0	570	0	Ⴉ	cut_ui_stereo_44KHz.wav
1	136	3	3	2	I	1	0	382	0	Ⴔ	cut_oei_stereo_44KHz.wav
1	137	4	3	2	I	2	0	650	1	Ⴕ	cut_oei_stereo_44KHz.wav
1	138	1	2	0	C	2	0	583	0	Ⴉ	cut_ui_stereo_44KHz.wav
1	139	3	3	2	I	1	0	494	1	Ⴔ	cut_oei_stereo_44KHz.wav
1	140	2	1	0	C	2	0	587	0	Ⴌ	cut_f_stereo_44KHz.wav
1	141	3	4	2	I	1	0	513	0	Ⴔ	cut_s_stereo_44KHz.wav
1	142	2	2	1	C	2	1	437	1	Ⴌ	cut_ui_stereo_44KHz.wav
1	143	1	1	1	C	2	1	713	1	Ⴉ	cut_f_stereo_44KHz.wav
1	144	4	4	2	I	2	0	555	0	Ⴕ	cut_s_stereo_44KHz.wav
1	145	1	2	0	C	2	0	674	0	Ⴉ	cut_ui_stereo_44KHz.wav
1	146	4	3	2	I	2	0	1122	1	Ⴕ	cut_oei_stereo_44KHz.wav
1	147	2	2	1	C	2	1	1164	1	Ⴌ	cut_ui_stereo_44KHz.wav
1	148	3	3	2	I	2	0	1147	1	Ⴔ	cut_oei_stereo_44KHz.wav
1	149	1	1	1	C	2	1	938	1	Ⴉ	cut_f_stereo_44KHz.wav
1	150	4	4	2	I	2	0	868	0	Ⴕ	cut_s_stereo_44KHz.wav
1	151	3	4	2	I	1	0	1002	1	Ⴔ	cut_s_stereo_44KHz.wav
1	152	2	1	0	C	2	0	583	0	Ⴌ	cut_f_stereo_44KHz.wav
1	153	1	1	1	C	1	0	489	0	Ⴉ	cut_f_stereo_44KHz.wav
1	154	4	3	2	I	2	0	411	0	Ⴕ	cut_oei_stereo_44KHz.wav
1	155	2	1	0	C	2	0	1003	0	Ⴌ	cut_f_stereo_44KHz.wav
1	156	3	4	2	I	2	0	734	0	Ⴔ	cut_s_stereo_44KHz.wav
1	157	1	2	0	C	2	0	492	0	Ⴉ	cut_ui_stereo_44KHz.wav
1	158	2	2	1	C	2	1	598	1	Ⴌ	cut_ui_stereo_44KHz.wav
1	159	3	3	2	I	2	0	704	0	Ⴔ	cut_oei_stereo_44KHz.wav
1	160	4	4	2	I	1	0	418	0	Ⴕ	cut_s_stereo_44KHz.wav
1	161	2	1	0	C	2	0	579	0	Ⴌ	cut_f_stereo_44KHz.wav
1	162	3	3	2	I	2	0	879	1	Ⴔ	cut_oei_stereo_44KHz.wav
1	163	4	3	2	I	2	0	876	1	Ⴕ	cut_oei_stereo_44KHz.wav
1	164	1	1	1	C	2	1	906	1	Ⴉ	cut_f_stereo_44KHz.wav
1	165	4	4	2	I	2	0	1010	0	Ⴕ	cut_s_stereo_44KHz.wav
1	166	1	2	0	C	1	1	392	1	Ⴉ	cut_ui_stereo_44KHz.wav
1	167	2	2	1	C	2	1	1006	1	Ⴌ	cut_ui_stereo_44KHz.wav
1	168	3	4	2	I	2	0	817	1	Ⴔ	cut_s_stereo_44KHz.wav
1	169	2	2	1	C	2	1	1116	1	Ⴌ	cut_ui_stereo_44KHz.wav
1	170	1	1	1	C	2	1	529	1	Ⴉ	cut_f_stereo_44KHz.wav
1	171	3	3	2	I	2	0	466	1	Ⴔ	cut_oei_stereo_44KHz.wav
1	172	4	3	2	I	2	0	528	0	Ⴕ	cut_oei_stereo_44KHz.wav
1	173	2	1	0	C	1	1	480	1	Ⴌ	cut_f_stereo_44KHz.wav
1	174	1	2	0	C	2	0	1484	0	Ⴉ	cut_ui_stereo_44KHz.wav
1	175	3	4	2	I	1	0	329	1	Ⴔ	cut_s_stereo_44KHz.wav
1	176	4	4	2	I	1	0	620	1	Ⴕ	cut_s_stereo_44KHz.wav
1	177	1	2	0	C	2	0	463	0	Ⴉ	cut_ui_stereo_44KHz.wav
1	178	4	3	2	I	1	0	426	0	Ⴕ	cut_oei_stereo_44KHz.wav
1	179	2	2	1	C	2	1	449	1	Ⴌ	cut_ui_stereo_44KHz.wav
1	180	3	3	2	I	2	0	870	0	Ⴔ	cut_oei_stereo_44KHz.wav
1	181	4	4	2	I	1	0	429	1	Ⴕ	cut_s_stereo_44KHz.wav
1	182	2	1	0	C	1	1	580	1	Ⴌ	cut_f_stereo_44KHz.wav
1	183	3	4	2	I	2	0	626	0	Ⴔ	cut_s_stereo_44KHz.wav
1	184	1	1	1	C	0	0	0	0	Ⴉ	cut_f_stereo_44KHz.wav
1	185	3	4	2	I	2	0	912	0	Ⴔ	cut_s_stereo_44KHz.wav
1	186	1	1	1	C	1	0	468	0	Ⴉ	cut_f_stereo_44KHz.wav
1	187	4	4	2	I	2	0	672	0	Ⴕ	cut_s_stereo_44KHz.wav
1	188	2	1	0	C	1	1	1279	1	Ⴌ	cut_f_stereo_44KHz.wav
1	189	3	3	2	I	2	0	1326	1	Ⴔ	cut_oei_stereo_44KHz.wav
1	190	4	3	2	I	2	0	636	0	Ⴕ	cut_oei_stereo_44KHz.wav
1	191	1	2	0	C	2	0	515	0	Ⴉ	cut_ui_stereo_44KHz.wav
1	192	2	2	1	C	1	0	1199	0	Ⴌ	cut_ui_stereo_44KHz.wav
1	193	3	4	2	I	2	0	503	1	Ⴔ	cut_s_stereo_44KHz.wav
1	194	4	3	2	I	2	0	582	1	Ⴕ	cut_oei_stereo_44KHz.wav
1	195	2	2	1	C	2	1	635	1	Ⴌ	cut_ui_stereo_44KHz.wav
1	196	1	1	1	C	2	1	474	1	Ⴉ	cut_f_stereo_44KHz.wav
1	197	4	4	2	I	2	0	529	0	Ⴕ	cut_s_stereo_44KHz.wav
1	198	2	1	0	C	1	1	365	1	Ⴌ	cut_f_stereo_44KHz.wav
1	199	3	3	2	I	1	0	446	0	Ⴔ	cut_oei_stereo_44KHz.wav
1	200	1	2	0	C	2	0	457	0	Ⴉ	cut_ui_stereo_44KHz.wav
2	1	4	3	2	I	2	0	1651	1	Ⴡ	cut_a_stereo_44KHz.wav
2	2	1	1	1	C	2	1	553	1	Ⴟ	cut_k_stereo_44KHz.wav
2	3	2	1	0	C	2	0	936	0	Ⴁ	cut_k_stereo_44KHz.wav
2	4	3	3	2	I	1	0	544	1	Ⴊ	cut_a_stereo_44KHz.wav
2	5	4	4	2	I	1	0	563	0	Ⴡ	cut_u_stereo_44KHz.wav
2	6	1	2	0	C	2	0	527	0	Ⴟ	cut_o_stereo_44KHz.wav
2	7	2	2	1	C	2	1	719	1	Ⴁ	cut_o_stereo_44KHz.wav
2	8	3	4	2	I	2	0	594	0	Ⴊ	cut_u_stereo_44KHz.wav
2	9	4	4	2	I	1	0	399	0	Ⴡ	cut_u_stereo_44KHz.wav
2	10	3	4	2	I	2	0	600	1	Ⴊ	cut_u_stereo_44KHz.wav
2	11	2	2	1	C	2	1	867	1	Ⴁ	cut_o_stereo_44KHz.wav
2	12	1	2	0	C	2	0	524	0	Ⴟ	cut_o_stereo_44KHz.wav
2	13	3	3	2	I	1	0	473	1	Ⴊ	cut_a_stereo_44KHz.wav
2	14	1	1	1	C	2	1	697	1	Ⴟ	cut_k_stereo_44KHz.wav
2	15	2	1	0	C	2	0	414	0	Ⴁ	cut_k_stereo_44KHz.wav
2	16	4	3	2	I	1	0	477	1	Ⴡ	cut_a_stereo_44KHz.wav
2	17	1	1	1	C	2	1	455	1	Ⴟ	cut_k_stereo_44KHz.wav
2	18	2	2	1	C	2	1	849	1	Ⴁ	cut_o_stereo_44KHz.wav
2	19	4	3	2	I	1	0	446	0	Ⴡ	cut_a_stereo_44KHz.wav
2	20	3	4	2	I	2	0	599	0	Ⴊ	cut_u_stereo_44KHz.wav
2	21	2	1	0	C	2	0	382	0	Ⴁ	cut_k_stereo_44KHz.wav
2	22	3	3	2	I	1	0	302	1	Ⴊ	cut_a_stereo_44KHz.wav
2	23	4	4	2	I	2	0	673	0	Ⴡ	cut_u_stereo_44KHz.wav
2	24	1	2	0	C	1	1	379	1	Ⴟ	cut_o_stereo_44KHz.wav
2	25	3	4	2	I	1	0	602	1	Ⴊ	cut_u_stereo_44KHz.wav
2	26	1	2	0	C	2	0	632	0	Ⴟ	cut_o_stereo_44KHz.wav
2	27	2	2	1	C	1	0	422	0	Ⴁ	cut_o_stereo_44KHz.wav
2	28	4	4	2	I	2	0	280	0	Ⴡ	cut_u_stereo_44KHz.wav
2	29	2	1	0	C	1	1	416	1	Ⴁ	cut_k_stereo_44KHz.wav
2	30	3	3	2	I	2	0	472	0	Ⴊ	cut_a_stereo_44KHz.wav
2	31	4	3	2	I	1	0	606	0	Ⴡ	cut_a_stereo_44KHz.wav
2	32	1	1	1	C	2	1	513	1	Ⴟ	cut_k_stereo_44KHz.wav
2	33	2	1	0	C	1	1	528	1	Ⴁ	cut_k_stereo_44KHz.wav
2	34	3	4	2	I	2	0	750	0	Ⴊ	cut_u_stereo_44KHz.wav
2	35	1	1	1	C	1	0	420	0	Ⴟ	cut_k_stereo_44KHz.wav
2	36	4	3	2	I	2	0	922	0	Ⴡ	cut_a_stereo_44KHz.wav
2	37	3	3	2	I	2	0	555	1	Ⴊ	cut_a_stereo_44KHz.wav
2	38	4	4	2	I	2	0	432	1	Ⴡ	cut_u_stereo_44KHz.wav
2	39	1	2	0	C	2	0	435	0	Ⴟ	cut_o_stereo_44KHz.wav
2	40	2	2	1	C	2	1	950	1	Ⴁ	cut_o_stereo_44KHz.wav
2	41	4	3	2	I	2	0	603	1	Ⴡ	cut_a_stereo_44KHz.wav
2	42	3	4	2	I	2	0	434	0	Ⴊ	cut_u_stereo_44KHz.wav
2	43	1	2	0	C	2	0	460	0	Ⴟ	cut_o_stereo_44KHz.wav
2	44	2	1	0	C	1	1	455	1	Ⴁ	cut_k_stereo_44KHz.wav
2	45	3	3	2	I	2	0	743	0	Ⴊ	cut_a_stereo_44KHz.wav
2	46	2	2	1	C	2	1	482	1	Ⴁ	cut_o_stereo_44KHz.wav
2	47	4	4	2	I	1	0	837	1	Ⴡ	cut_u_stereo_44KHz.wav
2	48	1	1	1	C	0	0	0	0	Ⴟ	cut_k_stereo_44KHz.wav
2	49	4	3	2	I	2	0	901	1	Ⴡ	cut_a_stereo_44KHz.wav
2	50	3	4	2	I	0	0	0	0	Ⴊ	cut_u_stereo_44KHz.wav
2	51	2	1	0	C	2	0	371	0	Ⴁ	cut_k_stereo_44KHz.wav
2	52	1	1	1	C	2	1	613	1	Ⴟ	cut_k_stereo_44KHz.wav
2	53	3	3	2	I	2	0	461	0	Ⴊ	cut_a_stereo_44KHz.wav
2	54	4	4	2	I	1	0	443	0	Ⴡ	cut_u_stereo_44KHz.wav
2	55	2	2	1	C	1	0	436	0	Ⴁ	cut_o_stereo_44KHz.wav
2	56	1	2	0	C	2	0	314	0	Ⴟ	cut_o_stereo_44KHz.wav
2	57	4	3	2	I	1	0	399	1	Ⴡ	cut_a_stereo_44KHz.wav
2	58	1	1	1	C	1	0	337	0	Ⴟ	cut_k_stereo_44KHz.wav
2	59	3	4	2	I	2	0	748	1	Ⴊ	cut_u_stereo_44KHz.wav
2	60	2	2	1	C	2	1	688	1	Ⴁ	cut_o_stereo_44KHz.wav
2	61	3	3	2	I	2	0	504	0	Ⴊ	cut_a_stereo_44KHz.wav
2	62	2	1	0	C	1	1	558	1	Ⴁ	cut_k_stereo_44KHz.wav
2	63	1	2	0	C	0	0	0	0	Ⴟ	cut_o_stereo_44KHz.wav
2	64	4	4	2	I	1	0	417	1	Ⴡ	cut_u_stereo_44KHz.wav
2	65	2	2	1	C	1	0	846	0	Ⴁ	cut_o_stereo_44KHz.wav
2	66	1	1	1	C	2	1	1629	1	Ⴟ	cut_k_stereo_44KHz.wav
2	67	3	4	2	I	1	0	617	0	Ⴊ	cut_u_stereo_44KHz.wav
2	68	4	3	2	I	2	0	717	1	Ⴡ	cut_a_stereo_44KHz.wav
2	69	3	3	2	I	2	0	453	0	Ⴊ	cut_a_stereo_44KHz.wav
2	70	2	1	0	C	1	1	375	1	Ⴁ	cut_k_stereo_44KHz.wav
2	71	1	2	0	C	2	0	531	0	Ⴟ	cut_o_stereo_44KHz.wav
2	72	4	4	2	I	1	0	505	0	Ⴡ	cut_u_stereo_44KHz.wav
2	73	2	1	0	C	2	0	410	0	Ⴁ	cut_k_stereo_44KHz.wav
2	74	3	3	2	I	1	0	270	1	Ⴊ	cut_a_stereo_44KHz.wav
2	75	1	1	1	C	2	1	701	1	Ⴟ	cut_k_stereo_44KHz.wav
2	76	4	3	2	I	2	0	682	1	Ⴡ	cut_a_stereo_44KHz.wav
2	77	3	4	2	I	2	0	526	1	Ⴊ	cut_u_stereo_44KHz.wav
2	78	4	4	2	I	2	0	648	1	Ⴡ	cut_u_stereo_44KHz.wav
2	79	1	2	0	C	2	0	464	0	Ⴟ	cut_o_stereo_44KHz.wav
2	80	2	2	1	C	2	1	1253	1	Ⴁ	cut_o_stereo_44KHz.wav
2	81	3	3	2	I	1	0	1079	0	Ⴊ	cut_a_stereo_44KHz.wav
2	82	4	3	2	I	2	0	423	1	Ⴡ	cut_a_stereo_44KHz.wav
2	83	1	2	0	C	1	1	1263	1	Ⴟ	cut_o_stereo_44KHz.wav
2	84	2	2	1	C	2	1	559	1	Ⴁ	cut_o_stereo_44KHz.wav
2	85	4	4	2	I	1	0	638	1	Ⴡ	cut_u_stereo_44KHz.wav
2	86	1	1	1	C	2	1	543	1	Ⴟ	cut_k_stereo_44KHz.wav
2	87	3	4	2	I	1	0	304	1	Ⴊ	cut_u_stereo_44KHz.wav
2	88	2	1	0	C	2	0	338	0	Ⴁ	cut_k_stereo_44KHz.wav
2	89	3	3	2	I	1	0	389	1	Ⴊ	cut_a_stereo_44KHz.wav
2	90	2	1	0	C	2	0	568	0	Ⴁ	cut_k_stereo_44KHz.wav
2	91	1	1	1	C	1	0	284	0	Ⴟ	cut_k_stereo_44KHz.wav
2	92	4	3	2	I	2	0	429	0	Ⴡ	cut_a_stereo_44KHz.wav
2	93	2	2	1	C	1	0	405	0	Ⴁ	cut_o_stereo_44KHz.wav
2	94	1	2	0	C	2	0	584	0	Ⴟ	cut_o_stereo_44KHz.wav
2	95	3	4	2	I	0	0	0	0	Ⴊ	cut_u_stereo_44KHz.wav
2	96	4	4	2	I	1	0	611	1	Ⴡ	cut_u_stereo_44KHz.wav
2	97	2	1	0	C	1	1	360	1	Ⴁ	cut_k_stereo_44KHz.wav
2	98	3	3	2	I	2	0	358	0	Ⴊ	cut_a_stereo_44KHz.wav
2	99	4	4	2	I	2	0	385	0	Ⴡ	cut_u_stereo_44KHz.wav
2	100	1	2	0	C	1	1	441	1	Ⴟ	cut_o_stereo_44KHz.wav
2	101	2	2	1	C	2	1	557	1	Ⴁ	cut_o_stereo_44KHz.wav
2	102	3	4	2	I	1	0	591	0	Ⴊ	cut_u_stereo_44KHz.wav
2	103	4	3	2	I	0	0	0	0	Ⴡ	cut_a_stereo_44KHz.wav
2	104	1	1	1	C	2	1	1380	1	Ⴟ	cut_k_stereo_44KHz.wav
2	105	3	3	2	I	2	0	590	0	Ⴊ	cut_a_stereo_44KHz.wav
2	106	4	3	2	I	2	0	669	0	Ⴡ	cut_a_stereo_44KHz.wav
2	107	1	1	1	C	0	0	0	0	Ⴟ	cut_k_stereo_44KHz.wav
2	108	2	2	1	C	1	0	601	0	Ⴁ	cut_o_stereo_44KHz.wav
2	109	4	4	2	I	2	0	453	1	Ⴡ	cut_u_stereo_44KHz.wav
2	110	1	2	0	C	2	0	813	0	Ⴟ	cut_o_stereo_44KHz.wav
2	111	3	4	2	I	1	0	462	0	Ⴊ	cut_u_stereo_44KHz.wav
2	112	2	1	0	C	2	0	655	0	Ⴁ	cut_k_stereo_44KHz.wav
2	113	1	1	1	C	1	0	458	0	Ⴟ	cut_k_stereo_44KHz.wav
2	114	4	4	2	I	2	0	405	0	Ⴡ	cut_u_stereo_44KHz.wav
2	115	3	3	2	I	2	0	609	1	Ⴊ	cut_a_stereo_44KHz.wav
2	116	2	1	0	C	2	0	1623	0	Ⴁ	cut_k_stereo_44KHz.wav
2	117	4	3	2	I	1	0	669	1	Ⴡ	cut_a_stereo_44KHz.wav
2	118	3	4	2	I	2	0	494	1	Ⴊ	cut_u_stereo_44KHz.wav
2	119	1	2	0	C	2	0	877	0	Ⴟ	cut_o_stereo_44KHz.wav
2	120	2	2	1	C	1	0	418	0	Ⴁ	cut_o_stereo_44KHz.wav
2	121	4	4	2	I	1	0	819	0	Ⴡ	cut_u_stereo_44KHz.wav
2	122	1	1	1	C	2	1	526	1	Ⴟ	cut_k_stereo_44KHz.wav
2	123	2	2	1	C	2	1	424	1	Ⴁ	cut_o_stereo_44KHz.wav
2	124	3	4	2	I	2	0	1557	1	Ⴊ	cut_u_stereo_44KHz.wav
2	125	4	3	2	I	2	0	1478	0	Ⴡ	cut_a_stereo_44KHz.wav
2	126	1	2	0	C	0	0	0	0	Ⴟ	cut_o_stereo_44KHz.wav
2	127	3	3	2	I	2	0	1039	0	Ⴊ	cut_a_stereo_44KHz.wav
2	128	2	1	0	C	2	0	823	0	Ⴁ	cut_k_stereo_44KHz.wav
2	129	4	3	2	I	0	0	0	0	Ⴡ	cut_a_stereo_44KHz.wav
2	130	1	2	0	C	2	0	348	0	Ⴟ	cut_o_stereo_44KHz.wav
2	131	3	3	2	I	1	0	492	1	Ⴊ	cut_a_stereo_44KHz.wav
2	132	2	1	0	C	2	0	408	0	Ⴁ	cut_k_stereo_44KHz.wav
2	133	4	4	2	I	1	0	379	0	Ⴡ	cut_u_stereo_44KHz.wav
2	134	2	2	1	C	2	1	292	1	Ⴁ	cut_o_stereo_44KHz.wav
2	135	3	4	2	I	1	0	575	0	Ⴊ	cut_u_stereo_44KHz.wav
2	136	1	1	1	C	2	1	353	1	Ⴟ	cut_k_stereo_44KHz.wav
2	137	3	4	2	I	2	0	433	1	Ⴊ	cut_u_stereo_44KHz.wav
2	138	1	2	0	C	2	0	526	0	Ⴟ	cut_o_stereo_44KHz.wav
2	139	4	4	2	I	1	0	668	1	Ⴡ	cut_u_stereo_44KHz.wav
2	140	2	1	0	C	2	0	371	0	Ⴁ	cut_k_stereo_44KHz.wav
2	141	4	3	2	I	1	0	536	1	Ⴡ	cut_a_stereo_44KHz.wav
2	142	2	2	1	C	1	0	524	0	Ⴁ	cut_o_stereo_44KHz.wav
2	143	3	3	2	I	2	0	332	1	Ⴊ	cut_a_stereo_44KHz.wav
2	144	1	1	1	C	2	1	367	1	Ⴟ	cut_k_stereo_44KHz.wav
2	145	3	3	2	I	2	0	528	1	Ⴊ	cut_a_stereo_44KHz.wav
2	146	4	3	2	I	2	0	382	0	Ⴡ	cut_a_stereo_44KHz.wav
2	147	2	1	0	C	2	0	475	0	Ⴁ	cut_k_stereo_44KHz.wav
2	148	1	2	0	C	2	0	1142	0	Ⴟ	cut_o_stereo_44KHz.wav
2	149	2	2	1	C	2	1	366	1	Ⴁ	cut_o_stereo_44KHz.wav
2	150	3	4	2	I	2	0	552	0	Ⴊ	cut_u_stereo_44KHz.wav
2	151	1	1	1	C	2	1	328	1	Ⴟ	cut_k_stereo_44KHz.wav
2	152	4	4	2	I	2	0	594	0	Ⴡ	cut_u_stereo_44KHz.wav
2	153	2	1	0	C	2	0	487	0	Ⴁ	cut_k_stereo_44KHz.wav
2	154	3	3	2	I	2	0	470	1	Ⴊ	cut_a_stereo_44KHz.wav
2	155	1	2	0	C	2	0	618	0	Ⴟ	cut_o_stereo_44KHz.wav
2	156	4	4	2	I	2	0	103	1	Ⴡ	cut_u_stereo_44KHz.wav
2	157	3	4	2	I	2	0	391	1	Ⴊ	cut_u_stereo_44KHz.wav
2	158	4	3	2	I	2	0	1303	0	Ⴡ	cut_a_stereo_44KHz.wav
2	159	2	2	1	C	2	1	525	1	Ⴁ	cut_o_stereo_44KHz.wav
2	160	1	1	1	C	1	0	427	0	Ⴟ	cut_k_stereo_44KHz.wav
2	161	2	2	1	C	2	1	599	1	Ⴁ	cut_o_stereo_44KHz.wav
2	162	1	2	0	C	2	0	1100	0	Ⴟ	cut_o_stereo_44KHz.wav
2	163	4	3	2	I	1	0	763	1	Ⴡ	cut_a_stereo_44KHz.wav
2	164	3	4	2	I	2	0	905	1	Ⴊ	cut_u_stereo_44KHz.wav
2	165	2	1	0	C	2	0	390	0	Ⴁ	cut_k_stereo_44KHz.wav
2	166	4	4	2	I	1	0	298	0	Ⴡ	cut_u_stereo_44KHz.wav
2	167	1	1	1	C	2	1	343	1	Ⴟ	cut_k_stereo_44KHz.wav
2	168	3	3	2	I	2	0	321	1	Ⴊ	cut_a_stereo_44KHz.wav
2	169	2	1	0	C	2	0	510	0	Ⴁ	cut_k_stereo_44KHz.wav
2	170	1	1	1	C	0	0	0	0	Ⴟ	cut_k_stereo_44KHz.wav
2	171	4	4	2	I	1	0	466	0	Ⴡ	cut_u_stereo_44KHz.wav
2	172	3	4	2	I	2	0	326	0	Ⴊ	cut_u_stereo_44KHz.wav
2	173	4	3	2	I	2	0	316	0	Ⴡ	cut_a_stereo_44KHz.wav
2	174	1	2	0	C	1	1	609	1	Ⴟ	cut_o_stereo_44KHz.wav
2	175	2	2	1	C	1	0	938	0	Ⴁ	cut_o_stereo_44KHz.wav
2	176	3	3	2	I	2	0	315	1	Ⴊ	cut_a_stereo_44KHz.wav
2	177	4	3	2	I	2	0	849	1	Ⴡ	cut_a_stereo_44KHz.wav
2	178	3	3	2	I	2	0	252	0	Ⴊ	cut_a_stereo_44KHz.wav
2	179	1	1	1	C	2	1	1881	1	Ⴟ	cut_k_stereo_44KHz.wav
2	180	2	1	0	C	1	1	342	1	Ⴁ	cut_k_stereo_44KHz.wav
2	181	4	4	2	I	2	0	784	0	Ⴡ	cut_u_stereo_44KHz.wav
2	182	1	2	0	C	2	0	883	0	Ⴟ	cut_o_stereo_44KHz.wav
2	183	2	2	1	C	2	1	827	1	Ⴁ	cut_o_stereo_44KHz.wav
2	184	3	4	2	I	1	0	424	0	Ⴊ	cut_u_stereo_44KHz.wav
2	185	1	2	0	C	2	0	959	0	Ⴟ	cut_o_stereo_44KHz.wav
2	186	3	4	2	I	2	0	525	0	Ⴊ	cut_u_stereo_44KHz.wav
2	187	2	1	0	C	1	1	638	1	Ⴁ	cut_k_stereo_44KHz.wav
2	188	4	3	2	I	1	0	671	1	Ⴡ	cut_a_stereo_44KHz.wav
2	189	3	3	2	I	1	0	412	0	Ⴊ	cut_a_stereo_44KHz.wav
2	190	1	1	1	C	2	1	533	1	Ⴟ	cut_k_stereo_44KHz.wav
2	191	2	2	1	C	2	1	651	1	Ⴁ	cut_o_stereo_44KHz.wav
2	192	4	4	2	I	1	0	387	0	Ⴡ	cut_u_stereo_44KHz.wav
2	193	1	2	0	C	2	0	415	0	Ⴟ	cut_o_stereo_44KHz.wav
2	194	4	3	2	I	1	0	315	1	Ⴡ	cut_a_stereo_44KHz.wav
2	195	2	2	1	C	1	0	387	0	Ⴁ	cut_o_stereo_44KHz.wav
2	196	3	4	2	I	2	0	466	1	Ⴊ	cut_u_stereo_44KHz.wav
2	197	4	4	2	I	2	0	1941	1	Ⴡ	cut_u_stereo_44KHz.wav
2	198	1	1	1	C	2	1	369	1	Ⴟ	cut_k_stereo_44KHz.wav
2	199	3	3	2	I	2	0	232	0	Ⴊ	cut_a_stereo_44KHz.wav
2	200	2	1	0	C	2	0	381	0	Ⴁ	cut_k_stereo_44KHz.wav
