block	trial	Vstim	Astim	match	C/I	resp	result	RT	fb	V-file	A-file
RL

0	1	2	3	1	C	2	0	984	0	poli_8sides 23_whiteLine3.jpg	Practice2_b27_cut2_stereo_44KHz.wav
0	2	1	1	1	C	2	0	573	0	poli_8sides 21_whiteLine3.jpg	Practice1_b27_cut1_stereo_44KHz.wav
0	3	2	4	0	C	2	1	444	1	poli_8sides 23_whiteLine3.jpg	Practice3_b26_cut1_stereo_44KHz.wav
0	4	1	2	0	C	2	1	531	1	poli_8sides 21_whiteLine3.jpg	Practice4_b26_stereo_44KHz.wav
0	5	2	4	0	C	2	1	840	1	poli_8sides 23_whiteLine3.jpg	Practice3_b26_cut1_stereo_44KHz.wav
0	6	1	2	0	C	2	1	589	1	poli_8sides 21_whiteLine3.jpg	Practice4_b26_stereo_44KHz.wav
0	7	1	1	1	C	1	1	1276	1	poli_8sides 21_whiteLine3.jpg	Practice1_b27_cut1_stereo_44KHz.wav
0	8	2	3	1	C	2	0	571	0	poli_8sides 23_whiteLine3.jpg	Practice2_b27_cut2_stereo_44KHz.wav
0	9	2	4	0	C	2	1	1240	1	poli_8sides 23_whiteLine3.jpg	Practice3_b26_cut1_stereo_44KHz.wav
0	10	1	2	0	C	2	1	720	1	poli_8sides 21_whiteLine3.jpg	Practice4_b26_stereo_44KHz.wav
0	11	1	1	1	C	1	1	934	1	poli_8sides 21_whiteLine3.jpg	Practice1_b27_cut1_stereo_44KHz.wav
0	12	2	3	1	C	2	0	837	0	poli_8sides 23_whiteLine3.jpg	Practice2_b27_cut2_stereo_44KHz.wav
0	13	1	2	0	C	2	1	854	1	poli_8sides 21_whiteLine3.jpg	Practice4_b26_stereo_44KHz.wav
0	14	2	3	1	C	1	1	1108	1	poli_8sides 23_whiteLine3.jpg	Practice2_b27_cut2_stereo_44KHz.wav
0	15	2	4	0	C	2	1	1214	1	poli_8sides 23_whiteLine3.jpg	Practice3_b26_cut1_stereo_44KHz.wav
0	16	1	1	1	C	2	0	1491	0	poli_8sides 21_whiteLine3.jpg	Practice1_b27_cut1_stereo_44KHz.wav
0	17	1	2	0	C	2	1	754	1	poli_8sides 21_whiteLine3.jpg	Practice4_b26_stereo_44KHz.wav
0	18	2	3	1	C	2	0	1071	0	poli_8sides 23_whiteLine3.jpg	Practice2_b27_cut2_stereo_44KHz.wav
0	19	2	4	0	C	2	1	1041	1	poli_8sides 23_whiteLine3.jpg	Practice3_b26_cut1_stereo_44KHz.wav
0	20	1	1	1	C	2	0	1236	0	poli_8sides 21_whiteLine3.jpg	Practice1_b27_cut1_stereo_44KHz.wav
0	21	1	1	1	C	2	0	690	0	poli_8sides 21_whiteLine3.jpg	Practice1_b27_cut1_stereo_44KHz.wav
0	22	1	2	0	C	2	1	1115	1	poli_8sides 21_whiteLine3.jpg	Practice4_b26_stereo_44KHz.wav
0	23	2	3	1	C	1	1	945	1	poli_8sides 23_whiteLine3.jpg	Practice2_b27_cut2_stereo_44KHz.wav
0	24	2	4	0	C	2	1	1080	1	poli_8sides 23_whiteLine3.jpg	Practice3_b26_cut1_stereo_44KHz.wav
0	25	2	3	1	C	1	1	790	1	poli_8sides 23_whiteLine3.jpg	Practice2_b27_cut2_stereo_44KHz.wav
0	26	1	2	0	C	2	1	898	1	poli_8sides 21_whiteLine3.jpg	Practice4_b26_stereo_44KHz.wav
0	27	1	1	1	C	2	0	1154	0	poli_8sides 21_whiteLine3.jpg	Practice1_b27_cut1_stereo_44KHz.wav
0	28	2	4	0	C	2	1	826	1	poli_8sides 23_whiteLine3.jpg	Practice3_b26_cut1_stereo_44KHz.wav
0	29	1	2	0	C	2	1	754	1	poli_8sides 21_whiteLine3.jpg	Practice4_b26_stereo_44KHz.wav
0	30	1	1	1	C	2	0	1677	0	poli_8sides 21_whiteLine3.jpg	Practice1_b27_cut1_stereo_44KHz.wav
avg_resp = 898
1	1	3	3	2	I	2	0	825	1	poli_8sides 7_whiteLine3.jpg	Medium_e21_stereo_44KHz.wav
1	2	2	2	1	C	2	0	665	0	poli_8sides 5_whiteLine3.jpg	Medium_e13_stereo_44KHz.wav
1	3	1	1	1	C	2	0	648	0	poli_8sides 9_whiteLine3.jpg	MediumLong_b10_cut2_L_stereo_44KHz.wav
1	4	4	4	2	I	2	0	678	0	poli_8sides 13_whiteLine3.jpg	MediumLong_e04_stereo_44KHz.wav
1	5	1	2	0	C	2	1	501	1	poli_8sides 9_whiteLine3.jpg	Medium_e13_stereo_44KHz.wav
1	6	2	1	0	C	2	1	884	1	poli_8sides 5_whiteLine3.jpg	MediumLong_b10_cut2_L_stereo_44KHz.wav
1	7	4	3	2	I	2	0	598	1	poli_8sides 13_whiteLine3.jpg	Medium_e21_stereo_44KHz.wav
1	8	3	4	2	I	2	0	542	0	poli_8sides 7_whiteLine3.jpg	MediumLong_e04_stereo_44KHz.wav
1	9	4	3	2	I	2	0	602	1	poli_8sides 13_whiteLine3.jpg	Medium_e21_stereo_44KHz.wav
1	10	3	4	2	I	2	0	821	1	poli_8sides 7_whiteLine3.jpg	MediumLong_e04_stereo_44KHz.wav
1	11	1	2	0	C	2	1	678	1	poli_8sides 9_whiteLine3.jpg	Medium_e13_stereo_44KHz.wav
1	12	2	2	1	C	1	1	1129	1	poli_8sides 5_whiteLine3.jpg	Medium_e13_stereo_44KHz.wav
1	13	4	4	2	I	1	0	678	1	poli_8sides 13_whiteLine3.jpg	MediumLong_e04_stereo_44KHz.wav
1	14	3	3	2	I	2	0	728	1	poli_8sides 7_whiteLine3.jpg	Medium_e21_stereo_44KHz.wav
1	15	2	1	0	C	1	0	927	0	poli_8sides 5_whiteLine3.jpg	MediumLong_b10_cut2_L_stereo_44KHz.wav
1	16	1	1	1	C	2	0	1000	0	poli_8sides 9_whiteLine3.jpg	MediumLong_b10_cut2_L_stereo_44KHz.wav
1	17	3	4	2	I	2	0	597	0	poli_8sides 7_whiteLine3.jpg	MediumLong_e04_stereo_44KHz.wav
1	18	1	2	0	C	2	1	688	1	poli_8sides 9_whiteLine3.jpg	Medium_e13_stereo_44KHz.wav
1	19	4	3	2	I	2	0	687	1	poli_8sides 13_whiteLine3.jpg	Medium_e21_stereo_44KHz.wav
1	20	2	2	1	C	2	0	979	0	poli_8sides 5_whiteLine3.jpg	Medium_e13_stereo_44KHz.wav
1	21	1	1	1	C	1	1	969	1	poli_8sides 9_whiteLine3.jpg	MediumLong_b10_cut2_L_stereo_44KHz.wav
1	22	3	3	2	I	2	0	560	1	poli_8sides 7_whiteLine3.jpg	Medium_e21_stereo_44KHz.wav
1	23	2	1	0	C	1	0	814	0	poli_8sides 5_whiteLine3.jpg	MediumLong_b10_cut2_L_stereo_44KHz.wav
1	24	4	4	2	I	1	0	784	1	poli_8sides 13_whiteLine3.jpg	MediumLong_e04_stereo_44KHz.wav
1	25	2	1	0	C	1	0	841	0	poli_8sides 5_whiteLine3.jpg	MediumLong_b10_cut2_L_stereo_44KHz.wav
1	26	3	3	2	I	2	0	849	0	poli_8sides 7_whiteLine3.jpg	Medium_e21_stereo_44KHz.wav
1	27	1	1	1	C	2	0	743	0	poli_8sides 9_whiteLine3.jpg	MediumLong_b10_cut2_L_stereo_44KHz.wav
1	28	4	3	2	I	2	0	626	0	poli_8sides 13_whiteLine3.jpg	Medium_e21_stereo_44KHz.wav
1	29	1	2	0	C	2	1	637	1	poli_8sides 9_whiteLine3.jpg	Medium_e13_stereo_44KHz.wav
1	30	2	2	1	C	1	1	1385	1	poli_8sides 5_whiteLine3.jpg	Medium_e13_stereo_44KHz.wav
1	31	4	4	2	I	2	0	726	1	poli_8sides 13_whiteLine3.jpg	MediumLong_e04_stereo_44KHz.wav
1	32	3	4	2	I	1	0	657	0	poli_8sides 7_whiteLine3.jpg	MediumLong_e04_stereo_44KHz.wav
1	33	4	3	2	I	2	0	557	0	poli_8sides 13_whiteLine3.jpg	Medium_e21_stereo_44KHz.wav
1	34	1	2	0	C	2	1	524	1	poli_8sides 9_whiteLine3.jpg	Medium_e13_stereo_44KHz.wav
1	35	2	2	1	C	2	0	664	0	poli_8sides 5_whiteLine3.jpg	Medium_e13_stereo_44KHz.wav
1	36	3	4	2	I	2	0	539	0	poli_8sides 7_whiteLine3.jpg	MediumLong_e04_stereo_44KHz.wav
1	37	2	1	0	C	1	0	866	0	poli_8sides 5_whiteLine3.jpg	MediumLong_b10_cut2_L_stereo_44KHz.wav
1	38	3	3	2	I	2	0	417	0	poli_8sides 7_whiteLine3.jpg	Medium_e21_stereo_44KHz.wav
1	39	4	4	2	I	2	0	748	1	poli_8sides 13_whiteLine3.jpg	MediumLong_e04_stereo_44KHz.wav
1	40	1	1	1	C	2	0	499	0	poli_8sides 9_whiteLine3.jpg	MediumLong_b10_cut2_L_stereo_44KHz.wav
1	41	2	2	1	C	2	0	571	0	poli_8sides 5_whiteLine3.jpg	Medium_e13_stereo_44KHz.wav
1	42	4	3	2	I	2	0	491	1	poli_8sides 13_whiteLine3.jpg	Medium_e21_stereo_44KHz.wav
1	43	3	3	2	I	2	0	812	0	poli_8sides 7_whiteLine3.jpg	Medium_e21_stereo_44KHz.wav
1	44	1	1	1	C	2	0	452	0	poli_8sides 9_whiteLine3.jpg	MediumLong_b10_cut2_L_stereo_44KHz.wav
1	45	4	4	2	I	2	0	394	1	poli_8sides 13_whiteLine3.jpg	MediumLong_e04_stereo_44KHz.wav
1	46	3	4	2	I	2	0	476	0	poli_8sides 7_whiteLine3.jpg	MediumLong_e04_stereo_44KHz.wav
1	47	2	1	0	C	2	1	585	1	poli_8sides 5_whiteLine3.jpg	MediumLong_b10_cut2_L_stereo_44KHz.wav
1	48	1	2	0	C	2	1	450	1	poli_8sides 9_whiteLine3.jpg	Medium_e13_stereo_44KHz.wav
1	49	2	2	1	C	2	0	479	0	poli_8sides 5_whiteLine3.jpg	Medium_e13_stereo_44KHz.wav
1	50	1	1	1	C	2	0	524	0	poli_8sides 9_whiteLine3.jpg	MediumLong_b10_cut2_L_stereo_44KHz.wav
1	51	4	3	2	I	2	0	507	0	poli_8sides 13_whiteLine3.jpg	Medium_e21_stereo_44KHz.wav
1	52	3	4	2	I	2	0	420	1	poli_8sides 7_whiteLine3.jpg	MediumLong_e04_stereo_44KHz.wav
1	53	4	4	2	I	2	0	983	1	poli_8sides 13_whiteLine3.jpg	MediumLong_e04_stereo_44KHz.wav
1	54	2	1	0	C	1	0	742	0	poli_8sides 5_whiteLine3.jpg	MediumLong_b10_cut2_L_stereo_44KHz.wav
1	55	3	3	2	I	2	0	505	1	poli_8sides 7_whiteLine3.jpg	Medium_e21_stereo_44KHz.wav
1	56	1	2	0	C	2	1	738	1	poli_8sides 9_whiteLine3.jpg	Medium_e13_stereo_44KHz.wav
1	57	3	4	2	I	2	0	579	1	poli_8sides 7_whiteLine3.jpg	MediumLong_e04_stereo_44KHz.wav
1	58	2	2	1	C	2	0	482	0	poli_8sides 5_whiteLine3.jpg	Medium_e13_stereo_44KHz.wav
1	59	1	2	0	C	2	1	1098	1	poli_8sides 9_whiteLine3.jpg	Medium_e13_stereo_44KHz.wav
1	60	4	4	2	I	2	0	645	0	poli_8sides 13_whiteLine3.jpg	MediumLong_e04_stereo_44KHz.wav
1	61	2	1	0	C	1	0	841	0	poli_8sides 5_whiteLine3.jpg	MediumLong_b10_cut2_L_stereo_44KHz.wav
1	62	4	3	2	I	2	0	524	0	poli_8sides 13_whiteLine3.jpg	Medium_e21_stereo_44KHz.wav
1	63	3	3	2	I	2	0	380	1	poli_8sides 7_whiteLine3.jpg	Medium_e21_stereo_44KHz.wav
1	64	1	1	1	C	2	0	510	0	poli_8sides 9_whiteLine3.jpg	MediumLong_b10_cut2_L_stereo_44KHz.wav
1	65	4	3	2	I	2	0	370	0	poli_8sides 13_whiteLine3.jpg	Medium_e21_stereo_44KHz.wav
1	66	1	2	0	C	2	1	485	1	poli_8sides 9_whiteLine3.jpg	Medium_e13_stereo_44KHz.wav
1	67	3	3	2	I	2	0	440	0	poli_8sides 7_whiteLine3.jpg	Medium_e21_stereo_44KHz.wav
1	68	2	2	1	C	2	0	492	0	poli_8sides 5_whiteLine3.jpg	Medium_e13_stereo_44KHz.wav
1	69	3	4	2	I	2	0	1038	1	poli_8sides 7_whiteLine3.jpg	MediumLong_e04_stereo_44KHz.wav
1	70	4	4	2	I	2	0	623	1	poli_8sides 13_whiteLine3.jpg	MediumLong_e04_stereo_44KHz.wav
1	71	1	1	1	C	2	0	514	0	poli_8sides 9_whiteLine3.jpg	MediumLong_b10_cut2_L_stereo_44KHz.wav
1	72	2	1	0	C	2	1	596	1	poli_8sides 5_whiteLine3.jpg	MediumLong_b10_cut2_L_stereo_44KHz.wav
1	73	3	4	2	I	2	0	445	1	poli_8sides 7_whiteLine3.jpg	MediumLong_e04_stereo_44KHz.wav
1	74	1	1	1	C	2	0	560	0	poli_8sides 9_whiteLine3.jpg	MediumLong_b10_cut2_L_stereo_44KHz.wav
1	75	2	1	0	C	2	1	515	1	poli_8sides 5_whiteLine3.jpg	MediumLong_b10_cut2_L_stereo_44KHz.wav
1	76	4	4	2	I	2	0	444	0	poli_8sides 13_whiteLine3.jpg	MediumLong_e04_stereo_44KHz.wav
1	77	1	2	0	C	2	1	599	1	poli_8sides 9_whiteLine3.jpg	Medium_e13_stereo_44KHz.wav
1	78	2	2	1	C	1	1	564	1	poli_8sides 5_whiteLine3.jpg	Medium_e13_stereo_44KHz.wav
1	79	3	3	2	I	2	0	391	0	poli_8sides 7_whiteLine3.jpg	Medium_e21_stereo_44KHz.wav
1	80	4	3	2	I	2	0	758	0	poli_8sides 13_whiteLine3.jpg	Medium_e21_stereo_44KHz.wav
1	81	1	2	0	C	2	1	467	1	poli_8sides 9_whiteLine3.jpg	Medium_e13_stereo_44KHz.wav
1	82	2	2	1	C	2	0	449	0	poli_8sides 5_whiteLine3.jpg	Medium_e13_stereo_44KHz.wav
1	83	4	3	2	I	2	0	388	0	poli_8sides 13_whiteLine3.jpg	Medium_e21_stereo_44KHz.wav
1	84	3	3	2	I	2	0	470	1	poli_8sides 7_whiteLine3.jpg	Medium_e21_stereo_44KHz.wav
1	85	4	4	2	I	2	0	494	1	poli_8sides 13_whiteLine3.jpg	MediumLong_e04_stereo_44KHz.wav
1	86	2	1	0	C	2	1	474	1	poli_8sides 5_whiteLine3.jpg	MediumLong_b10_cut2_L_stereo_44KHz.wav
1	87	3	4	2	I	2	0	465	0	poli_8sides 7_whiteLine3.jpg	MediumLong_e04_stereo_44KHz.wav
1	88	1	1	1	C	2	0	479	0	poli_8sides 9_whiteLine3.jpg	MediumLong_b10_cut2_L_stereo_44KHz.wav
1	89	3	3	2	I	2	0	437	1	poli_8sides 7_whiteLine3.jpg	Medium_e21_stereo_44KHz.wav
1	90	4	4	2	I	2	0	378	0	poli_8sides 13_whiteLine3.jpg	MediumLong_e04_stereo_44KHz.wav
1	91	1	1	1	C	2	0	491	0	poli_8sides 9_whiteLine3.jpg	MediumLong_b10_cut2_L_stereo_44KHz.wav
1	92	2	1	0	C	2	1	293	1	poli_8sides 5_whiteLine3.jpg	MediumLong_b10_cut2_L_stereo_44KHz.wav
1	93	1	2	0	C	2	1	523	1	poli_8sides 9_whiteLine3.jpg	Medium_e13_stereo_44KHz.wav
1	94	4	3	2	I	2	0	557	0	poli_8sides 13_whiteLine3.jpg	Medium_e21_stereo_44KHz.wav
1	95	2	2	1	C	2	0	562	0	poli_8sides 5_whiteLine3.jpg	Medium_e13_stereo_44KHz.wav
1	96	3	4	2	I	2	0	491	0	poli_8sides 7_whiteLine3.jpg	MediumLong_e04_stereo_44KHz.wav
1	97	4	3	2	I	2	0	685	1	poli_8sides 13_whiteLine3.jpg	Medium_e21_stereo_44KHz.wav
1	98	1	2	0	C	2	1	658	1	poli_8sides 9_whiteLine3.jpg	Medium_e13_stereo_44KHz.wav
1	99	2	2	1	C	2	0	486	0	poli_8sides 5_whiteLine3.jpg	Medium_e13_stereo_44KHz.wav
1	100	3	4	2	I	2	0	549	0	poli_8sides 7_whiteLine3.jpg	MediumLong_e04_stereo_44KHz.wav
1	101	2	1	0	C	2	1	317	1	poli_8sides 5_whiteLine3.jpg	MediumLong_b10_cut2_L_stereo_44KHz.wav
1	102	3	3	2	I	2	0	465	1	poli_8sides 7_whiteLine3.jpg	Medium_e21_stereo_44KHz.wav
1	103	1	1	1	C	2	0	347	0	poli_8sides 9_whiteLine3.jpg	MediumLong_b10_cut2_L_stereo_44KHz.wav
1	104	4	4	2	I	1	0	994	0	poli_8sides 13_whiteLine3.jpg	MediumLong_e04_stereo_44KHz.wav
1	105	1	2	0	C	2	1	449	1	poli_8sides 9_whiteLine3.jpg	Medium_e13_stereo_44KHz.wav
1	106	2	1	0	C	2	1	556	1	poli_8sides 5_whiteLine3.jpg	MediumLong_b10_cut2_L_stereo_44KHz.wav
1	107	4	4	2	I	2	0	476	1	poli_8sides 13_whiteLine3.jpg	MediumLong_e04_stereo_44KHz.wav
1	108	3	4	2	I	1	0	664	1	poli_8sides 7_whiteLine3.jpg	MediumLong_e04_stereo_44KHz.wav
1	109	4	3	2	I	2	0	431	0	poli_8sides 13_whiteLine3.jpg	Medium_e21_stereo_44KHz.wav
1	110	1	1	1	C	2	0	504	0	poli_8sides 9_whiteLine3.jpg	MediumLong_b10_cut2_L_stereo_44KHz.wav
1	111	2	2	1	C	2	0	386	0	poli_8sides 5_whiteLine3.jpg	Medium_e13_stereo_44KHz.wav
1	112	3	3	2	I	2	0	336	0	poli_8sides 7_whiteLine3.jpg	Medium_e21_stereo_44KHz.wav
1	113	4	3	2	I	2	0	459	0	poli_8sides 13_whiteLine3.jpg	Medium_e21_stereo_44KHz.wav
1	114	1	2	0	C	2	1	396	1	poli_8sides 9_whiteLine3.jpg	Medium_e13_stereo_44KHz.wav
1	115	3	4	2	I	2	0	379	0	poli_8sides 7_whiteLine3.jpg	MediumLong_e04_stereo_44KHz.wav
1	116	2	1	0	C	2	1	637	1	poli_8sides 5_whiteLine3.jpg	MediumLong_b10_cut2_L_stereo_44KHz.wav
1	117	1	1	1	C	2	0	718	0	poli_8sides 9_whiteLine3.jpg	MediumLong_b10_cut2_L_stereo_44KHz.wav
1	118	3	3	2	I	2	0	438	0	poli_8sides 7_whiteLine3.jpg	Medium_e21_stereo_44KHz.wav
1	119	2	2	1	C	2	0	552	0	poli_8sides 5_whiteLine3.jpg	Medium_e13_stereo_44KHz.wav
1	120	4	4	2	I	2	0	416	0	poli_8sides 13_whiteLine3.jpg	MediumLong_e04_stereo_44KHz.wav
1	121	2	2	1	C	1	1	317	1	poli_8sides 5_whiteLine3.jpg	Medium_e13_stereo_44KHz.wav
1	122	4	3	2	I	2	0	569	0	poli_8sides 13_whiteLine3.jpg	Medium_e21_stereo_44KHz.wav
1	123	1	1	1	C	2	0	891	0	poli_8sides 9_whiteLine3.jpg	MediumLong_b10_cut2_L_stereo_44KHz.wav
1	124	3	3	2	I	2	0	332	1	poli_8sides 7_whiteLine3.jpg	Medium_e21_stereo_44KHz.wav
1	125	1	2	0	C	2	1	576	1	poli_8sides 9_whiteLine3.jpg	Medium_e13_stereo_44KHz.wav
1	126	3	4	2	I	2	0	385	0	poli_8sides 7_whiteLine3.jpg	MediumLong_e04_stereo_44KHz.wav
1	127	2	1	0	C	2	1	624	1	poli_8sides 5_whiteLine3.jpg	MediumLong_b10_cut2_L_stereo_44KHz.wav
1	128	4	4	2	I	2	0	761	0	poli_8sides 13_whiteLine3.jpg	MediumLong_e04_stereo_44KHz.wav
1	129	2	2	1	C	2	0	516	0	poli_8sides 5_whiteLine3.jpg	Medium_e13_stereo_44KHz.wav
1	130	3	4	2	I	2	0	1714	1	poli_8sides 7_whiteLine3.jpg	MediumLong_e04_stereo_44KHz.wav
1	131	4	4	2	I	1	0	767	1	poli_8sides 13_whiteLine3.jpg	MediumLong_e04_stereo_44KHz.wav
1	132	1	2	0	C	2	1	523	1	poli_8sides 9_whiteLine3.jpg	Medium_e13_stereo_44KHz.wav
1	133	2	1	0	C	2	1	576	1	poli_8sides 5_whiteLine3.jpg	MediumLong_b10_cut2_L_stereo_44KHz.wav
1	134	1	1	1	C	2	0	610	0	poli_8sides 9_whiteLine3.jpg	MediumLong_b10_cut2_L_stereo_44KHz.wav
1	135	4	3	2	I	2	0	490	1	poli_8sides 13_whiteLine3.jpg	Medium_e21_stereo_44KHz.wav
1	136	3	3	2	I	2	0	434	1	poli_8sides 7_whiteLine3.jpg	Medium_e21_stereo_44KHz.wav
1	137	2	2	1	C	2	0	725	0	poli_8sides 5_whiteLine3.jpg	Medium_e13_stereo_44KHz.wav
1	138	1	2	0	C	2	1	840	1	poli_8sides 9_whiteLine3.jpg	Medium_e13_stereo_44KHz.wav
1	139	4	3	2	I	2	0	956	1	poli_8sides 13_whiteLine3.jpg	Medium_e21_stereo_44KHz.wav
1	140	3	3	2	I	1	0	917	0	poli_8sides 7_whiteLine3.jpg	Medium_e21_stereo_44KHz.wav
1	141	2	1	0	C	2	1	561	1	poli_8sides 5_whiteLine3.jpg	MediumLong_b10_cut2_L_stereo_44KHz.wav
1	142	1	1	1	C	2	0	456	0	poli_8sides 9_whiteLine3.jpg	MediumLong_b10_cut2_L_stereo_44KHz.wav
1	143	4	4	2	I	2	0	645	1	poli_8sides 13_whiteLine3.jpg	MediumLong_e04_stereo_44KHz.wav
1	144	3	4	2	I	2	0	781	1	poli_8sides 7_whiteLine3.jpg	MediumLong_e04_stereo_44KHz.wav
1	145	1	1	1	C	2	0	680	0	poli_8sides 9_whiteLine3.jpg	MediumLong_b10_cut2_L_stereo_44KHz.wav
1	146	4	3	2	I	2	0	528	1	poli_8sides 13_whiteLine3.jpg	Medium_e21_stereo_44KHz.wav
1	147	3	4	2	I	1	0	1269	0	poli_8sides 7_whiteLine3.jpg	MediumLong_e04_stereo_44KHz.wav
1	148	2	2	1	C	2	0	563	0	poli_8sides 5_whiteLine3.jpg	Medium_e13_stereo_44KHz.wav
1	149	1	2	0	C	2	1	774	1	poli_8sides 9_whiteLine3.jpg	Medium_e13_stereo_44KHz.wav
1	150	3	3	2	I	2	0	796	0	poli_8sides 7_whiteLine3.jpg	Medium_e21_stereo_44KHz.wav
1	151	2	1	0	C	2	1	596	1	poli_8sides 5_whiteLine3.jpg	MediumLong_b10_cut2_L_stereo_44KHz.wav
1	152	4	4	2	I	2	0	607	0	poli_8sides 13_whiteLine3.jpg	MediumLong_e04_stereo_44KHz.wav
1	153	3	3	2	I	1	0	883	1	poli_8sides 7_whiteLine3.jpg	Medium_e21_stereo_44KHz.wav
1	154	1	2	0	C	2	1	422	1	poli_8sides 9_whiteLine3.jpg	Medium_e13_stereo_44KHz.wav
1	155	2	2	1	C	2	0	244	0	poli_8sides 5_whiteLine3.jpg	Medium_e13_stereo_44KHz.wav
1	156	4	3	2	I	2	0	863	1	poli_8sides 13_whiteLine3.jpg	Medium_e21_stereo_44KHz.wav
1	157	1	1	1	C	2	0	507	0	poli_8sides 9_whiteLine3.jpg	MediumLong_b10_cut2_L_stereo_44KHz.wav
1	158	4	4	2	I	2	0	588	0	poli_8sides 13_whiteLine3.jpg	MediumLong_e04_stereo_44KHz.wav
1	159	2	1	0	C	2	1	506	1	poli_8sides 5_whiteLine3.jpg	MediumLong_b10_cut2_L_stereo_44KHz.wav
1	160	3	4	2	I	1	0	869	1	poli_8sides 7_whiteLine3.jpg	MediumLong_e04_stereo_44KHz.wav
1	161	1	2	0	C	2	1	1420	1	poli_8sides 9_whiteLine3.jpg	Medium_e13_stereo_44KHz.wav
1	162	3	4	2	I	2	0	697	0	poli_8sides 7_whiteLine3.jpg	MediumLong_e04_stereo_44KHz.wav
1	163	4	4	2	I	2	0	477	0	poli_8sides 13_whiteLine3.jpg	MediumLong_e04_stereo_44KHz.wav
1	164	2	1	0	C	2	1	783	1	poli_8sides 5_whiteLine3.jpg	MediumLong_b10_cut2_L_stereo_44KHz.wav
1	165	1	1	1	C	2	0	890	0	poli_8sides 9_whiteLine3.jpg	MediumLong_b10_cut2_L_stereo_44KHz.wav
1	166	3	3	2	I	2	0	712	1	poli_8sides 7_whiteLine3.jpg	Medium_e21_stereo_44KHz.wav
1	167	2	2	1	C	2	0	574	0	poli_8sides 5_whiteLine3.jpg	Medium_e13_stereo_44KHz.wav
1	168	4	3	2	I	2	0	253	1	poli_8sides 13_whiteLine3.jpg	Medium_e21_stereo_44KHz.wav
1	169	1	2	0	C	2	1	523	1	poli_8sides 9_whiteLine3.jpg	Medium_e13_stereo_44KHz.wav
1	170	4	3	2	I	2	0	363	0	poli_8sides 13_whiteLine3.jpg	Medium_e21_stereo_44KHz.wav
1	171	2	2	1	C	2	0	789	0	poli_8sides 5_whiteLine3.jpg	Medium_e13_stereo_44KHz.wav
1	172	3	3	2	I	2	0	434	1	poli_8sides 7_whiteLine3.jpg	Medium_e21_stereo_44KHz.wav
1	173	1	1	1	C	2	0	582	0	poli_8sides 9_whiteLine3.jpg	MediumLong_b10_cut2_L_stereo_44KHz.wav
1	174	3	4	2	I	2	0	531	0	poli_8sides 7_whiteLine3.jpg	MediumLong_e04_stereo_44KHz.wav
1	175	2	1	0	C	2	1	491	1	poli_8sides 5_whiteLine3.jpg	MediumLong_b10_cut2_L_stereo_44KHz.wav
1	176	4	4	2	I	2	0	375	1	poli_8sides 13_whiteLine3.jpg	MediumLong_e04_stereo_44KHz.wav
1	177	2	2	1	C	2	0	381	0	poli_8sides 5_whiteLine3.jpg	Medium_e13_stereo_44KHz.wav
1	178	1	1	1	C	2	0	363	0	poli_8sides 9_whiteLine3.jpg	MediumLong_b10_cut2_L_stereo_44KHz.wav
1	179	3	3	2	I	2	0	329	1	poli_8sides 7_whiteLine3.jpg	Medium_e21_stereo_44KHz.wav
1	180	4	3	2	I	2	0	270	1	poli_8sides 13_whiteLine3.jpg	Medium_e21_stereo_44KHz.wav
1	181	3	4	2	I	2	0	258	1	poli_8sides 7_whiteLine3.jpg	MediumLong_e04_stereo_44KHz.wav
1	182	2	1	0	C	2	1	627	1	poli_8sides 5_whiteLine3.jpg	MediumLong_b10_cut2_L_stereo_44KHz.wav
1	183	4	4	2	I	2	0	615	0	poli_8sides 13_whiteLine3.jpg	MediumLong_e04_stereo_44KHz.wav
1	184	1	2	0	C	2	1	487	1	poli_8sides 9_whiteLine3.jpg	Medium_e13_stereo_44KHz.wav
1	185	4	3	2	I	2	0	624	0	poli_8sides 13_whiteLine3.jpg	Medium_e21_stereo_44KHz.wav
1	186	1	1	1	C	2	0	299	0	poli_8sides 9_whiteLine3.jpg	MediumLong_b10_cut2_L_stereo_44KHz.wav
1	187	3	3	2	I	2	0	525	0	poli_8sides 7_whiteLine3.jpg	Medium_e21_stereo_44KHz.wav
1	188	2	2	1	C	2	0	340	0	poli_8sides 5_whiteLine3.jpg	Medium_e13_stereo_44KHz.wav
1	189	3	4	2	I	2	0	315	1	poli_8sides 7_whiteLine3.jpg	MediumLong_e04_stereo_44KHz.wav
1	190	1	2	0	C	2	1	431	1	poli_8sides 9_whiteLine3.jpg	Medium_e13_stereo_44KHz.wav
1	191	4	4	2	I	2	0	331	1	poli_8sides 13_whiteLine3.jpg	MediumLong_e04_stereo_44KHz.wav
1	192	2	1	0	C	2	1	661	1	poli_8sides 5_whiteLine3.jpg	MediumLong_b10_cut2_L_stereo_44KHz.wav
1	193	3	4	2	I	2	0	632	0	poli_8sides 7_whiteLine3.jpg	MediumLong_e04_stereo_44KHz.wav
1	194	1	2	0	C	2	1	461	1	poli_8sides 9_whiteLine3.jpg	Medium_e13_stereo_44KHz.wav
1	195	2	1	0	C	2	1	347	1	poli_8sides 5_whiteLine3.jpg	MediumLong_b10_cut2_L_stereo_44KHz.wav
1	196	4	3	2	I	2	0	735	1	poli_8sides 13_whiteLine3.jpg	Medium_e21_stereo_44KHz.wav
1	197	2	2	1	C	2	0	1233	0	poli_8sides 5_whiteLine3.jpg	Medium_e13_stereo_44KHz.wav
1	198	1	1	1	C	2	0	833	0	poli_8sides 9_whiteLine3.jpg	MediumLong_b10_cut2_L_stereo_44KHz.wav
1	199	4	4	2	I	2	0	953	0	poli_8sides 13_whiteLine3.jpg	MediumLong_e04_stereo_44KHz.wav
1	200	3	3	2	I	2	0	695	0	poli_8sides 7_whiteLine3.jpg	Medium_e21_stereo_44KHz.wav
2	1	3	4	2	I	2	0	789	0	poli_8sides 11_whiteLine3.jpg	Short_b20_cut1_stereo_44KHz.wav
2	2	2	2	1	C	2	0	527	0	poli_8sides 16_whiteLine3.jpg	Short_b23_cut1_stereo_44KHz.wav
2	3	1	1	1	C	2	0	370	0	poli_8sides 4_whiteLine3.jpg	Short_b09_cut1_stereo_44KHz.wav
2	4	4	4	2	I	2	0	320	1	poli_8sides 6_whiteLine3.jpg	Short_b20_cut1_stereo_44KHz.wav
2	5	3	3	2	I	2	0	471	0	poli_8sides 11_whiteLine3.jpg	Short_b22_cut1_stereo_44KHz.wav
2	6	2	1	0	C	2	1	566	1	poli_8sides 16_whiteLine3.jpg	Short_b09_cut1_stereo_44KHz.wav
2	7	1	2	0	C	2	1	668	1	poli_8sides 4_whiteLine3.jpg	Short_b23_cut1_stereo_44KHz.wav
2	8	4	3	2	I	2	0	623	0	poli_8sides 6_whiteLine3.jpg	Short_b22_cut1_stereo_44KHz.wav
2	9	2	1	0	C	2	1	486	1	poli_8sides 16_whiteLine3.jpg	Short_b09_cut1_stereo_44KHz.wav
2	10	1	1	1	C	2	0	387	0	poli_8sides 4_whiteLine3.jpg	Short_b09_cut1_stereo_44KHz.wav
2	11	3	3	2	I	1	0	998	1	poli_8sides 11_whiteLine3.jpg	Short_b22_cut1_stereo_44KHz.wav
2	12	4	3	2	I	2	0	559	0	poli_8sides 6_whiteLine3.jpg	Short_b22_cut1_stereo_44KHz.wav
2	13	2	2	1	C	2	0	509	0	poli_8sides 16_whiteLine3.jpg	Short_b23_cut1_stereo_44KHz.wav
2	14	3	4	2	I	1	0	576	0	poli_8sides 11_whiteLine3.jpg	Short_b20_cut1_stereo_44KHz.wav
2	15	1	2	0	C	2	1	439	1	poli_8sides 4_whiteLine3.jpg	Short_b23_cut1_stereo_44KHz.wav
2	16	4	4	2	I	2	0	627	0	poli_8sides 6_whiteLine3.jpg	Short_b20_cut1_stereo_44KHz.wav
2	17	1	2	0	C	2	1	636	1	poli_8sides 4_whiteLine3.jpg	Short_b23_cut1_stereo_44KHz.wav
2	18	2	1	0	C	2	1	578	1	poli_8sides 16_whiteLine3.jpg	Short_b09_cut1_stereo_44KHz.wav
2	19	3	3	2	I	2	0	837	1	poli_8sides 11_whiteLine3.jpg	Short_b22_cut1_stereo_44KHz.wav
2	20	4	4	2	I	2	0	808	1	poli_8sides 6_whiteLine3.jpg	Short_b20_cut1_stereo_44KHz.wav
2	21	1	1	1	C	2	0	607	0	poli_8sides 4_whiteLine3.jpg	Short_b09_cut1_stereo_44KHz.wav
2	22	4	3	2	I	2	0	748	1	poli_8sides 6_whiteLine3.jpg	Short_b22_cut1_stereo_44KHz.wav
2	23	3	4	2	I	2	0	1142	0	poli_8sides 11_whiteLine3.jpg	Short_b20_cut1_stereo_44KHz.wav
2	24	2	2	1	C	1	1	1080	1	poli_8sides 16_whiteLine3.jpg	Short_b23_cut1_stereo_44KHz.wav
2	25	1	1	1	C	1	1	841	1	poli_8sides 4_whiteLine3.jpg	Short_b09_cut1_stereo_44KHz.wav
2	26	3	3	2	I	2	0	870	1	poli_8sides 11_whiteLine3.jpg	Short_b22_cut1_stereo_44KHz.wav
2	27	2	2	1	C	1	1	755	1	poli_8sides 16_whiteLine3.jpg	Short_b23_cut1_stereo_44KHz.wav
2	28	4	4	2	I	2	0	864	0	poli_8sides 6_whiteLine3.jpg	Short_b20_cut1_stereo_44KHz.wav
2	29	2	1	0	C	2	1	566	1	poli_8sides 16_whiteLine3.jpg	Short_b09_cut1_stereo_44KHz.wav
2	30	3	4	2	I	2	0	775	1	poli_8sides 11_whiteLine3.jpg	Short_b20_cut1_stereo_44KHz.wav
2	31	1	2	0	C	2	1	462	1	poli_8sides 4_whiteLine3.jpg	Short_b23_cut1_stereo_44KHz.wav
2	32	4	3	2	I	2	0	619	1	poli_8sides 6_whiteLine3.jpg	Short_b22_cut1_stereo_44KHz.wav
2	33	2	1	0	C	2	1	857	1	poli_8sides 16_whiteLine3.jpg	Short_b09_cut1_stereo_44KHz.wav
2	34	1	2	0	C	2	1	507	1	poli_8sides 4_whiteLine3.jpg	Short_b23_cut1_stereo_44KHz.wav
2	35	4	4	2	I	1	0	729	1	poli_8sides 6_whiteLine3.jpg	Short_b20_cut1_stereo_44KHz.wav
2	36	3	4	2	I	2	0	546	1	poli_8sides 11_whiteLine3.jpg	Short_b20_cut1_stereo_44KHz.wav
2	37	2	2	1	C	2	0	1206	0	poli_8sides 16_whiteLine3.jpg	Short_b23_cut1_stereo_44KHz.wav
2	38	1	1	1	C	1	1	616	1	poli_8sides 4_whiteLine3.jpg	Short_b09_cut1_stereo_44KHz.wav
2	39	3	3	2	I	1	0	860	1	poli_8sides 11_whiteLine3.jpg	Short_b22_cut1_stereo_44KHz.wav
2	40	4	3	2	I	2	0	987	0	poli_8sides 6_whiteLine3.jpg	Short_b22_cut1_stereo_44KHz.wav
2	41	3	4	2	I	2	0	756	0	poli_8sides 11_whiteLine3.jpg	Short_b20_cut1_stereo_44KHz.wav
2	42	2	1	0	C	2	1	822	1	poli_8sides 16_whiteLine3.jpg	Short_b09_cut1_stereo_44KHz.wav
2	43	4	3	2	I	2	0	741	1	poli_8sides 6_whiteLine3.jpg	Short_b22_cut1_stereo_44KHz.wav
2	44	1	1	1	C	2	0	635	0	poli_8sides 4_whiteLine3.jpg	Short_b09_cut1_stereo_44KHz.wav
2	45	3	3	2	I	2	0	461	1	poli_8sides 11_whiteLine3.jpg	Short_b22_cut1_stereo_44KHz.wav
2	46	4	4	2	I	2	0	591	0	poli_8sides 6_whiteLine3.jpg	Short_b20_cut1_stereo_44KHz.wav
2	47	1	2	0	C	2	1	424	1	poli_8sides 4_whiteLine3.jpg	Short_b23_cut1_stereo_44KHz.wav
2	48	2	2	1	C	1	1	736	1	poli_8sides 16_whiteLine3.jpg	Short_b23_cut1_stereo_44KHz.wav
2	49	4	4	2	I	2	0	306	0	poli_8sides 6_whiteLine3.jpg	Short_b20_cut1_stereo_44KHz.wav
2	50	2	2	1	C	2	0	304	0	poli_8sides 16_whiteLine3.jpg	Short_b23_cut1_stereo_44KHz.wav
2	51	3	4	2	I	2	0	323	0	poli_8sides 11_whiteLine3.jpg	Short_b20_cut1_stereo_44KHz.wav
2	52	1	2	0	C	2	1	601	1	poli_8sides 4_whiteLine3.jpg	Short_b23_cut1_stereo_44KHz.wav
2	53	3	3	2	I	1	0	681	0	poli_8sides 11_whiteLine3.jpg	Short_b22_cut1_stereo_44KHz.wav
2	54	2	1	0	C	2	1	1056	1	poli_8sides 16_whiteLine3.jpg	Short_b09_cut1_stereo_44KHz.wav
2	55	1	1	1	C	1	1	829	1	poli_8sides 4_whiteLine3.jpg	Short_b09_cut1_stereo_44KHz.wav
2	56	4	3	2	I	2	0	619	0	poli_8sides 6_whiteLine3.jpg	Short_b22_cut1_stereo_44KHz.wav
2	57	2	2	1	C	1	1	771	1	poli_8sides 16_whiteLine3.jpg	Short_b23_cut1_stereo_44KHz.wav
2	58	3	4	2	I	1	0	732	0	poli_8sides 11_whiteLine3.jpg	Short_b20_cut1_stereo_44KHz.wav
2	59	4	4	2	I	1	0	839	0	poli_8sides 6_whiteLine3.jpg	Short_b20_cut1_stereo_44KHz.wav
2	60	1	1	1	C	1	1	743	1	poli_8sides 4_whiteLine3.jpg	Short_b09_cut1_stereo_44KHz.wav
2	61	3	3	2	I	1	0	889	1	poli_8sides 11_whiteLine3.jpg	Short_b22_cut1_stereo_44KHz.wav
2	62	1	2	0	C	2	1	903	1	poli_8sides 4_whiteLine3.jpg	Short_b23_cut1_stereo_44KHz.wav
2	63	4	3	2	I	1	0	907	0	poli_8sides 6_whiteLine3.jpg	Short_b22_cut1_stereo_44KHz.wav
2	64	2	1	0	C	2	1	492	1	poli_8sides 16_whiteLine3.jpg	Short_b09_cut1_stereo_44KHz.wav
2	65	3	4	2	I	2	0	981	0	poli_8sides 11_whiteLine3.jpg	Short_b20_cut1_stereo_44KHz.wav
2	66	1	2	0	C	2	1	629	1	poli_8sides 4_whiteLine3.jpg	Short_b23_cut1_stereo_44KHz.wav
2	67	2	1	0	C	2	1	710	1	poli_8sides 16_whiteLine3.jpg	Short_b09_cut1_stereo_44KHz.wav
2	68	4	3	2	I	2	0	737	1	poli_8sides 6_whiteLine3.jpg	Short_b22_cut1_stereo_44KHz.wav
2	69	3	3	2	I	2	0	718	1	poli_8sides 11_whiteLine3.jpg	Short_b22_cut1_stereo_44KHz.wav
2	70	2	2	1	C	2	0	412	0	poli_8sides 16_whiteLine3.jpg	Short_b23_cut1_stereo_44KHz.wav
2	71	1	1	1	C	2	0	532	0	poli_8sides 4_whiteLine3.jpg	Short_b09_cut1_stereo_44KHz.wav
2	72	4	4	2	I	2	0	552	1	poli_8sides 6_whiteLine3.jpg	Short_b20_cut1_stereo_44KHz.wav
2	73	1	1	1	C	2	0	446	0	poli_8sides 4_whiteLine3.jpg	Short_b09_cut1_stereo_44KHz.wav
2	74	2	2	1	C	1	1	895	1	poli_8sides 16_whiteLine3.jpg	Short_b23_cut1_stereo_44KHz.wav
2	75	4	3	2	I	1	0	678	1	poli_8sides 6_whiteLine3.jpg	Short_b22_cut1_stereo_44KHz.wav
2	76	3	4	2	I	2	0	610	0	poli_8sides 11_whiteLine3.jpg	Short_b20_cut1_stereo_44KHz.wav
2	77	2	1	0	C	2	1	681	1	poli_8sides 16_whiteLine3.jpg	Short_b09_cut1_stereo_44KHz.wav
2	78	1	2	0	C	2	1	658	1	poli_8sides 4_whiteLine3.jpg	Short_b23_cut1_stereo_44KHz.wav
2	79	3	3	2	I	1	0	702	0	poli_8sides 11_whiteLine3.jpg	Short_b22_cut1_stereo_44KHz.wav
2	80	4	4	2	I	1	0	1133	1	poli_8sides 6_whiteLine3.jpg	Short_b20_cut1_stereo_44KHz.wav
2	81	2	1	0	C	2	1	601	1	poli_8sides 16_whiteLine3.jpg	Short_b09_cut1_stereo_44KHz.wav
2	82	3	4	2	I	2	0	704	1	poli_8sides 11_whiteLine3.jpg	Short_b20_cut1_stereo_44KHz.wav
2	83	4	4	2	I	2	0	714	0	poli_8sides 6_whiteLine3.jpg	Short_b20_cut1_stereo_44KHz.wav
2	84	1	2	0	C	2	1	709	1	poli_8sides 4_whiteLine3.jpg	Short_b23_cut1_stereo_44KHz.wav
2	85	4	3	2	I	2	0	922	1	poli_8sides 6_whiteLine3.jpg	Short_b22_cut1_stereo_44KHz.wav
2	86	1	1	1	C	1	1	686	1	poli_8sides 4_whiteLine3.jpg	Short_b09_cut1_stereo_44KHz.wav
2	87	3	3	2	I	1	0	1329	1	poli_8sides 11_whiteLine3.jpg	Short_b22_cut1_stereo_44KHz.wav
2	88	2	2	1	C	1	1	1061	1	poli_8sides 16_whiteLine3.jpg	Short_b23_cut1_stereo_44KHz.wav
2	89	3	3	2	I	1	0	1259	0	poli_8sides 11_whiteLine3.jpg	Short_b22_cut1_stereo_44KHz.wav
2	90	4	4	2	I	1	0	830	1	poli_8sides 6_whiteLine3.jpg	Short_b20_cut1_stereo_44KHz.wav
2	91	2	2	1	C	1	1	1130	1	poli_8sides 16_whiteLine3.jpg	Short_b23_cut1_stereo_44KHz.wav
2	92	1	1	1	C	1	1	633	1	poli_8sides 4_whiteLine3.jpg	Short_b09_cut1_stereo_44KHz.wav
2	93	2	1	0	C	1	0	668	0	poli_8sides 16_whiteLine3.jpg	Short_b09_cut1_stereo_44KHz.wav
2	94	4	3	2	I	1	0	708	1	poli_8sides 6_whiteLine3.jpg	Short_b22_cut1_stereo_44KHz.wav
2	95	1	2	0	C	2	1	735	1	poli_8sides 4_whiteLine3.jpg	Short_b23_cut1_stereo_44KHz.wav
2	96	3	4	2	I	2	0	763	1	poli_8sides 11_whiteLine3.jpg	Short_b20_cut1_stereo_44KHz.wav
2	97	2	1	0	C	2	1	780	1	poli_8sides 16_whiteLine3.jpg	Short_b09_cut1_stereo_44KHz.wav
2	98	4	3	2	I	1	0	785	0	poli_8sides 6_whiteLine3.jpg	Short_b22_cut1_stereo_44KHz.wav
2	99	3	4	2	I	2	0	462	1	poli_8sides 11_whiteLine3.jpg	Short_b20_cut1_stereo_44KHz.wav
2	100	1	1	1	C	2	0	576	0	poli_8sides 4_whiteLine3.jpg	Short_b09_cut1_stereo_44KHz.wav
2	101	2	2	1	C	2	0	1024	0	poli_8sides 16_whiteLine3.jpg	Short_b23_cut1_stereo_44KHz.wav
2	102	1	2	0	C	2	1	738	1	poli_8sides 4_whiteLine3.jpg	Short_b23_cut1_stereo_44KHz.wav
2	103	4	4	2	I	1	0	768	1	poli_8sides 6_whiteLine3.jpg	Short_b20_cut1_stereo_44KHz.wav
2	104	3	3	2	I	1	0	927	0	poli_8sides 11_whiteLine3.jpg	Short_b22_cut1_stereo_44KHz.wav
2	105	2	1	0	C	2	1	603	1	poli_8sides 16_whiteLine3.jpg	Short_b09_cut1_stereo_44KHz.wav
2	106	1	2	0	C	2	1	630	1	poli_8sides 4_whiteLine3.jpg	Short_b23_cut1_stereo_44KHz.wav
2	107	3	3	2	I	1	0	906	0	poli_8sides 11_whiteLine3.jpg	Short_b22_cut1_stereo_44KHz.wav
2	108	4	3	2	I	1	0	1073	1	poli_8sides 6_whiteLine3.jpg	Short_b22_cut1_stereo_44KHz.wav
2	109	3	4	2	I	2	0	1620	1	poli_8sides 11_whiteLine3.jpg	Short_b20_cut1_stereo_44KHz.wav
2	110	1	1	1	C	1	1	963	1	poli_8sides 4_whiteLine3.jpg	Short_b09_cut1_stereo_44KHz.wav
2	111	4	4	2	I	1	0	793	1	poli_8sides 6_whiteLine3.jpg	Short_b20_cut1_stereo_44KHz.wav
2	112	2	2	1	C	2	0	880	0	poli_8sides 16_whiteLine3.jpg	Short_b23_cut1_stereo_44KHz.wav
2	113	3	3	2	I	1	0	756	1	poli_8sides 11_whiteLine3.jpg	Short_b22_cut1_stereo_44KHz.wav
2	114	1	1	1	C	1	1	780	1	poli_8sides 4_whiteLine3.jpg	Short_b09_cut1_stereo_44KHz.wav
2	115	4	3	2	I	1	0	787	1	poli_8sides 6_whiteLine3.jpg	Short_b22_cut1_stereo_44KHz.wav
2	116	2	2	1	C	1	1	1016	1	poli_8sides 16_whiteLine3.jpg	Short_b23_cut1_stereo_44KHz.wav
2	117	1	2	0	C	2	1	560	1	poli_8sides 4_whiteLine3.jpg	Short_b23_cut1_stereo_44KHz.wav
2	118	3	4	2	I	2	0	712	0	poli_8sides 11_whiteLine3.jpg	Short_b20_cut1_stereo_44KHz.wav
2	119	4	4	2	I	1	0	682	0	poli_8sides 6_whiteLine3.jpg	Short_b20_cut1_stereo_44KHz.wav
2	120	2	1	0	C	2	1	683	1	poli_8sides 16_whiteLine3.jpg	Short_b09_cut1_stereo_44KHz.wav
2	121	1	1	1	C	2	0	603	0	poli_8sides 4_whiteLine3.jpg	Short_b09_cut1_stereo_44KHz.wav
2	122	4	3	2	I	1	0	668	1	poli_8sides 6_whiteLine3.jpg	Short_b22_cut1_stereo_44KHz.wav
2	123	3	3	2	I	2	0	811	0	poli_8sides 11_whiteLine3.jpg	Short_b22_cut1_stereo_44KHz.wav
2	124	2	2	1	C	2	0	799	0	poli_8sides 16_whiteLine3.jpg	Short_b23_cut1_stereo_44KHz.wav
2	125	4	4	2	I	1	0	763	0	poli_8sides 6_whiteLine3.jpg	Short_b20_cut1_stereo_44KHz.wav
2	126	3	4	2	I	2	0	481	0	poli_8sides 11_whiteLine3.jpg	Short_b20_cut1_stereo_44KHz.wav
2	127	1	2	0	C	2	1	893	1	poli_8sides 4_whiteLine3.jpg	Short_b23_cut1_stereo_44KHz.wav
2	128	2	1	0	C	2	1	816	1	poli_8sides 16_whiteLine3.jpg	Short_b09_cut1_stereo_44KHz.wav
2	129	4	4	2	I	1	0	701	0	poli_8sides 6_whiteLine3.jpg	Short_b20_cut1_stereo_44KHz.wav
2	130	2	2	1	C	1	1	1151	1	poli_8sides 16_whiteLine3.jpg	Short_b23_cut1_stereo_44KHz.wav
2	131	3	4	2	I	1	0	917	1	poli_8sides 11_whiteLine3.jpg	Short_b20_cut1_stereo_44KHz.wav
2	132	1	2	0	C	2	1	668	1	poli_8sides 4_whiteLine3.jpg	Short_b23_cut1_stereo_44KHz.wav
2	133	4	3	2	I	1	0	1398	0	poli_8sides 6_whiteLine3.jpg	Short_b22_cut1_stereo_44KHz.wav
2	134	3	3	2	I	2	0	1001	0	poli_8sides 11_whiteLine3.jpg	Short_b22_cut1_stereo_44KHz.wav
2	135	2	1	0	C	2	1	642	1	poli_8sides 16_whiteLine3.jpg	Short_b09_cut1_stereo_44KHz.wav
2	136	1	1	1	C	2	0	807	0	poli_8sides 4_whiteLine3.jpg	Short_b09_cut1_stereo_44KHz.wav
2	137	2	1	0	C	1	0	547	0	poli_8sides 16_whiteLine3.jpg	Short_b09_cut1_stereo_44KHz.wav
2	138	4	3	2	I	2	0	668	0	poli_8sides 6_whiteLine3.jpg	Short_b22_cut1_stereo_44KHz.wav
2	139	3	3	2	I	2	0	567	1	poli_8sides 11_whiteLine3.jpg	Short_b22_cut1_stereo_44KHz.wav
2	140	1	1	1	C	1	1	1470	1	poli_8sides 4_whiteLine3.jpg	Short_b09_cut1_stereo_44KHz.wav
2	141	4	4	2	I	2	0	1804	0	poli_8sides 6_whiteLine3.jpg	Short_b20_cut1_stereo_44KHz.wav
2	142	3	4	2	I	2	0	649	1	poli_8sides 11_whiteLine3.jpg	Short_b20_cut1_stereo_44KHz.wav
2	143	2	2	1	C	1	1	959	1	poli_8sides 16_whiteLine3.jpg	Short_b23_cut1_stereo_44KHz.wav
2	144	1	2	0	C	2	1	524	1	poli_8sides 4_whiteLine3.jpg	Short_b23_cut1_stereo_44KHz.wav
2	145	3	3	2	I	1	0	667	1	poli_8sides 11_whiteLine3.jpg	Short_b22_cut1_stereo_44KHz.wav
2	146	2	1	0	C	1	0	727	0	poli_8sides 16_whiteLine3.jpg	Short_b09_cut1_stereo_44KHz.wav
2	147	4	3	2	I	1	0	802	0	poli_8sides 6_whiteLine3.jpg	Short_b22_cut1_stereo_44KHz.wav
2	148	1	1	1	C	1	1	795	1	poli_8sides 4_whiteLine3.jpg	Short_b09_cut1_stereo_44KHz.wav
2	149	4	4	2	I	2	0	1040	0	poli_8sides 6_whiteLine3.jpg	Short_b20_cut1_stereo_44KHz.wav
2	150	2	2	1	C	1	1	615	1	poli_8sides 16_whiteLine3.jpg	Short_b23_cut1_stereo_44KHz.wav
2	151	3	4	2	I	2	0	581	1	poli_8sides 11_whiteLine3.jpg	Short_b20_cut1_stereo_44KHz.wav
2	152	1	2	0	C	1	0	570	0	poli_8sides 4_whiteLine3.jpg	Short_b23_cut1_stereo_44KHz.wav
2	153	2	2	1	C	1	1	789	1	poli_8sides 16_whiteLine3.jpg	Short_b23_cut1_stereo_44KHz.wav
2	154	4	3	2	I	2	0	685	0	poli_8sides 6_whiteLine3.jpg	Short_b22_cut1_stereo_44KHz.wav
2	155	1	2	0	C	0	0	0	0	poli_8sides 4_whiteLine3.jpg	Short_b23_cut1_stereo_44KHz.wav
2	156	3	3	2	I	1	0	711	0	poli_8sides 11_whiteLine3.jpg	Short_b22_cut1_stereo_44KHz.wav
2	157	4	4	2	I	1	0	671	1	poli_8sides 6_whiteLine3.jpg	Short_b20_cut1_stereo_44KHz.wav
2	158	3	4	2	I	2	0	522	1	poli_8sides 11_whiteLine3.jpg	Short_b20_cut1_stereo_44KHz.wav
2	159	2	1	0	C	1	0	596	0	poli_8sides 16_whiteLine3.jpg	Short_b09_cut1_stereo_44KHz.wav
2	160	1	1	1	C	1	1	1322	1	poli_8sides 4_whiteLine3.jpg	Short_b09_cut1_stereo_44KHz.wav
2	161	4	3	2	I	1	0	737	0	poli_8sides 6_whiteLine3.jpg	Short_b22_cut1_stereo_44KHz.wav
2	162	2	2	1	C	1	1	718	1	poli_8sides 16_whiteLine3.jpg	Short_b23_cut1_stereo_44KHz.wav
2	163	1	1	1	C	1	1	785	1	poli_8sides 4_whiteLine3.jpg	Short_b09_cut1_stereo_44KHz.wav
2	164	3	3	2	I	1	0	877	0	poli_8sides 11_whiteLine3.jpg	Short_b22_cut1_stereo_44KHz.wav
2	165	2	1	0	C	1	0	647	0	poli_8sides 16_whiteLine3.jpg	Short_b09_cut1_stereo_44KHz.wav
2	166	3	4	2	I	2	0	1265	1	poli_8sides 11_whiteLine3.jpg	Short_b20_cut1_stereo_44KHz.wav
2	167	1	2	0	C	2	1	541	1	poli_8sides 4_whiteLine3.jpg	Short_b23_cut1_stereo_44KHz.wav
2	168	4	4	2	I	2	0	653	1	poli_8sides 6_whiteLine3.jpg	Short_b20_cut1_stereo_44KHz.wav
2	169	3	4	2	I	2	0	490	0	poli_8sides 11_whiteLine3.jpg	Short_b20_cut1_stereo_44KHz.wav
2	170	1	1	1	C	2	0	760	0	poli_8sides 4_whiteLine3.jpg	Short_b09_cut1_stereo_44KHz.wav
2	171	2	1	0	C	2	1	693	1	poli_8sides 16_whiteLine3.jpg	Short_b09_cut1_stereo_44KHz.wav
2	172	4	4	2	I	2	0	529	1	poli_8sides 6_whiteLine3.jpg	Short_b20_cut1_stereo_44KHz.wav
2	173	2	2	1	C	1	1	524	1	poli_8sides 16_whiteLine3.jpg	Short_b23_cut1_stereo_44KHz.wav
2	174	1	2	0	C	2	1	604	1	poli_8sides 4_whiteLine3.jpg	Short_b23_cut1_stereo_44KHz.wav
2	175	4	3	2	I	2	0	816	0	poli_8sides 6_whiteLine3.jpg	Short_b22_cut1_stereo_44KHz.wav
2	176	3	3	2	I	2	0	485	0	poli_8sides 11_whiteLine3.jpg	Short_b22_cut1_stereo_44KHz.wav
2	177	1	2	0	C	2	1	461	1	poli_8sides 4_whiteLine3.jpg	Short_b23_cut1_stereo_44KHz.wav
2	178	2	2	1	C	2	0	346	0	poli_8sides 16_whiteLine3.jpg	Short_b23_cut1_stereo_44KHz.wav
2	179	4	3	2	I	2	0	444	1	poli_8sides 6_whiteLine3.jpg	Short_b22_cut1_stereo_44KHz.wav
2	180	3	3	2	I	2	0	385	0	poli_8sides 11_whiteLine3.jpg	Short_b22_cut1_stereo_44KHz.wav
2	181	4	4	2	I	1	0	885	1	poli_8sides 6_whiteLine3.jpg	Short_b20_cut1_stereo_44KHz.wav
2	182	2	1	0	C	2	1	585	1	poli_8sides 16_whiteLine3.jpg	Short_b09_cut1_stereo_44KHz.wav
2	183	1	1	1	C	2	0	704	0	poli_8sides 4_whiteLine3.jpg	Short_b09_cut1_stereo_44KHz.wav
2	184	3	4	2	I	2	0	428	0	poli_8sides 11_whiteLine3.jpg	Short_b20_cut1_stereo_44KHz.wav
2	185	1	1	1	C	2	0	543	0	poli_8sides 4_whiteLine3.jpg	Short_b09_cut1_stereo_44KHz.wav
2	186	2	2	1	C	2	0	614	0	poli_8sides 16_whiteLine3.jpg	Short_b23_cut1_stereo_44KHz.wav
2	187	3	3	2	I	2	0	425	1	poli_8sides 11_whiteLine3.jpg	Short_b22_cut1_stereo_44KHz.wav
2	188	4	4	2	I	2	0	547	0	poli_8sides 6_whiteLine3.jpg	Short_b20_cut1_stereo_44KHz.wav
2	189	3	4	2	I	2	0	639	1	poli_8sides 11_whiteLine3.jpg	Short_b20_cut1_stereo_44KHz.wav
2	190	4	3	2	I	2	0	350	1	poli_8sides 6_whiteLine3.jpg	Short_b22_cut1_stereo_44KHz.wav
2	191	1	2	0	C	2	1	504	1	poli_8sides 4_whiteLine3.jpg	Short_b23_cut1_stereo_44KHz.wav
2	192	2	1	0	C	2	1	561	1	poli_8sides 16_whiteLine3.jpg	Short_b09_cut1_stereo_44KHz.wav
2	193	3	4	2	I	1	0	543	0	poli_8sides 11_whiteLine3.jpg	Short_b20_cut1_stereo_44KHz.wav
2	194	4	3	2	I	1	0	836	0	poli_8sides 6_whiteLine3.jpg	Short_b22_cut1_stereo_44KHz.wav
2	195	1	1	1	C	1	1	842	1	poli_8sides 4_whiteLine3.jpg	Short_b09_cut1_stereo_44KHz.wav
2	196	2	1	0	C	2	1	710	1	poli_8sides 16_whiteLine3.jpg	Short_b09_cut1_stereo_44KHz.wav
2	197	4	4	2	I	1	0	760	1	poli_8sides 6_whiteLine3.jpg	Short_b20_cut1_stereo_44KHz.wav
2	198	1	2	0	C	2	1	1017	1	poli_8sides 4_whiteLine3.jpg	Short_b23_cut1_stereo_44KHz.wav
2	199	2	2	1	C	1	1	1048	1	poli_8sides 16_whiteLine3.jpg	Short_b23_cut1_stereo_44KHz.wav
2	200	3	3	2	I	1	0	667	1	poli_8sides 11_whiteLine3.jpg	Short_b22_cut1_stereo_44KHz.wav
3	1	1	1	1	C	2	0	840	0	poli_8sides 10_whiteLine3.jpg	MediumShort_b16_cut3_MS_stereo_44KHz.wav
3	2	4	4	2	I	2	0	519	0	poli_8sides 8_whiteLine3.jpg	MediumShort_e16_cut1_stereo_44KHz.wav
3	3	3	4	2	I	2	0	393	1	poli_8sides 2_whiteLine3.jpg	MediumShort_e16_cut1_stereo_44KHz.wav
3	4	2	1	0	C	2	1	750	1	poli_8sides 18_whiteLine3.jpg	MediumShort_b16_cut3_MS_stereo_44KHz.wav
3	5	4	3	2	I	2	0	706	1	poli_8sides 8_whiteLine3.jpg	MediumShort_b10_cut1_MS_stereo_44KHz.wav
3	6	1	2	0	C	2	1	1372	1	poli_8sides 10_whiteLine3.jpg	MediumShort_e22_cut1_stereo_44KHz.wav
3	7	2	2	1	C	2	0	579	0	poli_8sides 18_whiteLine3.jpg	MediumShort_e22_cut1_stereo_44KHz.wav
3	8	3	3	2	I	2	0	681	0	poli_8sides 2_whiteLine3.jpg	MediumShort_b10_cut1_MS_stereo_44KHz.wav
3	9	4	4	2	I	2	0	591	0	poli_8sides 8_whiteLine3.jpg	MediumShort_e16_cut1_stereo_44KHz.wav
3	10	3	3	2	I	2	0	469	1	poli_8sides 2_whiteLine3.jpg	MediumShort_b10_cut1_MS_stereo_44KHz.wav
3	11	1	1	1	C	2	0	581	0	poli_8sides 10_whiteLine3.jpg	MediumShort_b16_cut3_MS_stereo_44KHz.wav
3	12	2	1	0	C	2	1	559	1	poli_8sides 18_whiteLine3.jpg	MediumShort_b16_cut3_MS_stereo_44KHz.wav
3	13	3	4	2	I	2	0	689	0	poli_8sides 2_whiteLine3.jpg	MediumShort_e16_cut1_stereo_44KHz.wav
3	14	1	2	0	C	2	1	946	1	poli_8sides 10_whiteLine3.jpg	MediumShort_e22_cut1_stereo_44KHz.wav
3	15	2	2	1	C	1	1	953	1	poli_8sides 18_whiteLine3.jpg	MediumShort_e22_cut1_stereo_44KHz.wav
3	16	4	3	2	I	2	0	843	1	poli_8sides 8_whiteLine3.jpg	MediumShort_b10_cut1_MS_stereo_44KHz.wav
3	17	2	2	1	C	2	0	692	0	poli_8sides 18_whiteLine3.jpg	MediumShort_e22_cut1_stereo_44KHz.wav
3	18	4	4	2	I	2	0	513	0	poli_8sides 8_whiteLine3.jpg	MediumShort_e16_cut1_stereo_44KHz.wav
3	19	1	2	0	C	2	1	778	1	poli_8sides 10_whiteLine3.jpg	MediumShort_e22_cut1_stereo_44KHz.wav
3	20	3	4	2	I	1	0	912	0	poli_8sides 2_whiteLine3.jpg	MediumShort_e16_cut1_stereo_44KHz.wav
3	21	4	3	2	I	2	0	694	1	poli_8sides 8_whiteLine3.jpg	MediumShort_b10_cut1_MS_stereo_44KHz.wav
3	22	3	3	2	I	1	0	740	1	poli_8sides 2_whiteLine3.jpg	MediumShort_b10_cut1_MS_stereo_44KHz.wav
3	23	2	1	0	C	2	1	692	1	poli_8sides 18_whiteLine3.jpg	MediumShort_b16_cut3_MS_stereo_44KHz.wav
3	24	1	1	1	C	1	1	521	1	poli_8sides 10_whiteLine3.jpg	MediumShort_b16_cut3_MS_stereo_44KHz.wav
3	25	3	4	2	I	1	0	795	1	poli_8sides 2_whiteLine3.jpg	MediumShort_e16_cut1_stereo_44KHz.wav
3	26	1	1	1	C	2	0	707	0	poli_8sides 10_whiteLine3.jpg	MediumShort_b16_cut3_MS_stereo_44KHz.wav
3	27	4	3	2	I	2	0	763	1	poli_8sides 8_whiteLine3.jpg	MediumShort_b10_cut1_MS_stereo_44KHz.wav
3	28	2	1	0	C	2	1	1126	1	poli_8sides 18_whiteLine3.jpg	MediumShort_b16_cut3_MS_stereo_44KHz.wav
3	29	1	2	0	C	2	1	777	1	poli_8sides 10_whiteLine3.jpg	MediumShort_e22_cut1_stereo_44KHz.wav
3	30	4	4	2	I	1	0	989	1	poli_8sides 8_whiteLine3.jpg	MediumShort_e16_cut1_stereo_44KHz.wav
3	31	2	2	1	C	2	0	775	0	poli_8sides 18_whiteLine3.jpg	MediumShort_e22_cut1_stereo_44KHz.wav
3	32	3	3	2	I	1	0	987	1	poli_8sides 2_whiteLine3.jpg	MediumShort_b10_cut1_MS_stereo_44KHz.wav
3	33	2	1	0	C	2	1	649	1	poli_8sides 18_whiteLine3.jpg	MediumShort_b16_cut3_MS_stereo_44KHz.wav
3	34	1	2	0	C	2	1	1060	1	poli_8sides 10_whiteLine3.jpg	MediumShort_e22_cut1_stereo_44KHz.wav
3	35	3	3	2	I	1	0	917	1	poli_8sides 2_whiteLine3.jpg	MediumShort_b10_cut1_MS_stereo_44KHz.wav
3	36	4	4	2	I	2	0	972	1	poli_8sides 8_whiteLine3.jpg	MediumShort_e16_cut1_stereo_44KHz.wav
3	37	2	2	1	C	2	0	660	0	poli_8sides 18_whiteLine3.jpg	MediumShort_e22_cut1_stereo_44KHz.wav
3	38	1	1	1	C	1	1	835	1	poli_8sides 10_whiteLine3.jpg	MediumShort_b16_cut3_MS_stereo_44KHz.wav
3	39	3	4	2	I	1	0	830	1	poli_8sides 2_whiteLine3.jpg	MediumShort_e16_cut1_stereo_44KHz.wav
3	40	4	3	2	I	2	0	773	0	poli_8sides 8_whiteLine3.jpg	MediumShort_b10_cut1_MS_stereo_44KHz.wav
3	41	1	2	0	C	2	1	1023	1	poli_8sides 10_whiteLine3.jpg	MediumShort_e22_cut1_stereo_44KHz.wav
3	42	3	3	2	I	1	0	950	1	poli_8sides 2_whiteLine3.jpg	MediumShort_b10_cut1_MS_stereo_44KHz.wav
3	43	4	4	2	I	2	0	649	0	poli_8sides 8_whiteLine3.jpg	MediumShort_e16_cut1_stereo_44KHz.wav
3	44	2	2	1	C	1	1	811	1	poli_8sides 18_whiteLine3.jpg	MediumShort_e22_cut1_stereo_44KHz.wav
3	45	3	4	2	I	1	0	611	1	poli_8sides 2_whiteLine3.jpg	MediumShort_e16_cut1_stereo_44KHz.wav
3	46	2	1	0	C	2	1	750	1	poli_8sides 18_whiteLine3.jpg	MediumShort_b16_cut3_MS_stereo_44KHz.wav
3	47	1	1	1	C	1	1	859	1	poli_8sides 10_whiteLine3.jpg	MediumShort_b16_cut3_MS_stereo_44KHz.wav
3	48	4	3	2	I	2	0	686	1	poli_8sides 8_whiteLine3.jpg	MediumShort_b10_cut1_MS_stereo_44KHz.wav
3	49	2	1	0	C	1	0	793	0	poli_8sides 18_whiteLine3.jpg	MediumShort_b16_cut3_MS_stereo_44KHz.wav
3	50	3	3	2	I	2	0	571	0	poli_8sides 2_whiteLine3.jpg	MediumShort_b10_cut1_MS_stereo_44KHz.wav
3	51	4	3	2	I	2	0	711	1	poli_8sides 8_whiteLine3.jpg	MediumShort_b10_cut1_MS_stereo_44KHz.wav
3	52	1	1	1	C	2	0	699	0	poli_8sides 10_whiteLine3.jpg	MediumShort_b16_cut3_MS_stereo_44KHz.wav
3	53	3	4	2	I	2	0	680	0	poli_8sides 2_whiteLine3.jpg	MediumShort_e16_cut1_stereo_44KHz.wav
3	54	1	2	0	C	2	1	745	1	poli_8sides 10_whiteLine3.jpg	MediumShort_e22_cut1_stereo_44KHz.wav
3	55	2	2	1	C	2	0	619	0	poli_8sides 18_whiteLine3.jpg	MediumShort_e22_cut1_stereo_44KHz.wav
3	56	4	4	2	I	2	0	478	1	poli_8sides 8_whiteLine3.jpg	MediumShort_e16_cut1_stereo_44KHz.wav
3	57	2	1	0	C	2	1	656	1	poli_8sides 18_whiteLine3.jpg	MediumShort_b16_cut3_MS_stereo_44KHz.wav
3	58	1	2	0	C	2	1	535	1	poli_8sides 10_whiteLine3.jpg	MediumShort_e22_cut1_stereo_44KHz.wav
3	59	4	4	2	I	1	0	1229	0	poli_8sides 8_whiteLine3.jpg	MediumShort_e16_cut1_stereo_44KHz.wav
3	60	3	3	2	I	2	0	1373	0	poli_8sides 2_whiteLine3.jpg	MediumShort_b10_cut1_MS_stereo_44KHz.wav
3	61	2	2	1	C	1	1	1117	1	poli_8sides 18_whiteLine3.jpg	MediumShort_e22_cut1_stereo_44KHz.wav
3	62	1	1	1	C	2	0	698	0	poli_8sides 10_whiteLine3.jpg	MediumShort_b16_cut3_MS_stereo_44KHz.wav
3	63	4	3	2	I	2	0	1047	0	poli_8sides 8_whiteLine3.jpg	MediumShort_b10_cut1_MS_stereo_44KHz.wav
3	64	3	4	2	I	1	0	878	1	poli_8sides 2_whiteLine3.jpg	MediumShort_e16_cut1_stereo_44KHz.wav
3	65	4	3	2	I	2	0	547	0	poli_8sides 8_whiteLine3.jpg	MediumShort_b10_cut1_MS_stereo_44KHz.wav
3	66	2	1	0	C	2	1	591	1	poli_8sides 18_whiteLine3.jpg	MediumShort_b16_cut3_MS_stereo_44KHz.wav
3	67	1	2	0	C	1	0	718	0	poli_8sides 10_whiteLine3.jpg	MediumShort_e22_cut1_stereo_44KHz.wav
3	68	3	4	2	I	2	0	885	1	poli_8sides 2_whiteLine3.jpg	MediumShort_e16_cut1_stereo_44KHz.wav
3	69	1	1	1	C	2	0	475	0	poli_8sides 10_whiteLine3.jpg	MediumShort_b16_cut3_MS_stereo_44KHz.wav
3	70	4	4	2	I	2	0	542	0	poli_8sides 8_whiteLine3.jpg	MediumShort_e16_cut1_stereo_44KHz.wav
3	71	2	2	1	C	2	0	875	0	poli_8sides 18_whiteLine3.jpg	MediumShort_e22_cut1_stereo_44KHz.wav
3	72	3	3	2	I	1	0	613	0	poli_8sides 2_whiteLine3.jpg	MediumShort_b10_cut1_MS_stereo_44KHz.wav
3	73	4	4	2	I	2	0	425	0	poli_8sides 8_whiteLine3.jpg	MediumShort_e16_cut1_stereo_44KHz.wav
3	74	3	4	2	I	1	0	647	0	poli_8sides 2_whiteLine3.jpg	MediumShort_e16_cut1_stereo_44KHz.wav
3	75	2	2	1	C	2	0	573	0	poli_8sides 18_whiteLine3.jpg	MediumShort_e22_cut1_stereo_44KHz.wav
3	76	1	1	1	C	2	0	732	0	poli_8sides 10_whiteLine3.jpg	MediumShort_b16_cut3_MS_stereo_44KHz.wav
3	77	3	3	2	I	2	0	484	0	poli_8sides 2_whiteLine3.jpg	MediumShort_b10_cut1_MS_stereo_44KHz.wav
3	78	4	3	2	I	2	0	614	0	poli_8sides 8_whiteLine3.jpg	MediumShort_b10_cut1_MS_stereo_44KHz.wav
3	79	1	2	0	C	2	1	644	1	poli_8sides 10_whiteLine3.jpg	MediumShort_e22_cut1_stereo_44KHz.wav
3	80	2	1	0	C	1	0	613	0	poli_8sides 18_whiteLine3.jpg	MediumShort_b16_cut3_MS_stereo_44KHz.wav
3	81	3	4	2	I	1	0	615	1	poli_8sides 2_whiteLine3.jpg	MediumShort_e16_cut1_stereo_44KHz.wav
3	82	2	2	1	C	2	0	451	0	poli_8sides 18_whiteLine3.jpg	MediumShort_e22_cut1_stereo_44KHz.wav
3	83	4	3	2	I	2	0	517	1	poli_8sides 8_whiteLine3.jpg	MediumShort_b10_cut1_MS_stereo_44KHz.wav
3	84	1	2	0	C	1	0	591	0	poli_8sides 10_whiteLine3.jpg	MediumShort_e22_cut1_stereo_44KHz.wav
3	85	3	3	2	I	2	0	498	1	poli_8sides 2_whiteLine3.jpg	MediumShort_b10_cut1_MS_stereo_44KHz.wav
3	86	1	1	1	C	2	0	616	0	poli_8sides 10_whiteLine3.jpg	MediumShort_b16_cut3_MS_stereo_44KHz.wav
3	87	2	1	0	C	1	0	486	0	poli_8sides 18_whiteLine3.jpg	MediumShort_b16_cut3_MS_stereo_44KHz.wav
3	88	4	4	2	I	2	0	518	1	poli_8sides 8_whiteLine3.jpg	MediumShort_e16_cut1_stereo_44KHz.wav
3	89	2	2	1	C	1	1	685	1	poli_8sides 18_whiteLine3.jpg	MediumShort_e22_cut1_stereo_44KHz.wav
3	90	1	2	0	C	2	1	705	1	poli_8sides 10_whiteLine3.jpg	MediumShort_e22_cut1_stereo_44KHz.wav
3	91	4	4	2	I	2	0	400	1	poli_8sides 8_whiteLine3.jpg	MediumShort_e16_cut1_stereo_44KHz.wav
3	92	3	4	2	I	2	0	400	1	poli_8sides 2_whiteLine3.jpg	MediumShort_e16_cut1_stereo_44KHz.wav
3	93	1	1	1	C	2	0	513	0	poli_8sides 10_whiteLine3.jpg	MediumShort_b16_cut3_MS_stereo_44KHz.wav
3	94	4	3	2	I	2	0	534	0	poli_8sides 8_whiteLine3.jpg	MediumShort_b10_cut1_MS_stereo_44KHz.wav
3	95	2	1	0	C	1	0	775	0	poli_8sides 18_whiteLine3.jpg	MediumShort_b16_cut3_MS_stereo_44KHz.wav
3	96	3	3	2	I	2	0	678	1	poli_8sides 2_whiteLine3.jpg	MediumShort_b10_cut1_MS_stereo_44KHz.wav
3	97	2	1	0	C	2	1	386	1	poli_8sides 18_whiteLine3.jpg	MediumShort_b16_cut3_MS_stereo_44KHz.wav
3	98	1	1	1	C	2	0	572	0	poli_8sides 10_whiteLine3.jpg	MediumShort_b16_cut3_MS_stereo_44KHz.wav
3	99	3	4	2	I	2	0	356	0	poli_8sides 2_whiteLine3.jpg	MediumShort_e16_cut1_stereo_44KHz.wav
3	100	4	3	2	I	2	0	468	1	poli_8sides 8_whiteLine3.jpg	MediumShort_b10_cut1_MS_stereo_44KHz.wav
3	101	2	2	1	C	2	0	501	0	poli_8sides 18_whiteLine3.jpg	MediumShort_e22_cut1_stereo_44KHz.wav
3	102	4	4	2	I	1	0	440	0	poli_8sides 8_whiteLine3.jpg	MediumShort_e16_cut1_stereo_44KHz.wav
3	103	3	3	2	I	2	0	322	0	poli_8sides 2_whiteLine3.jpg	MediumShort_b10_cut1_MS_stereo_44KHz.wav
3	104	1	2	0	C	2	1	335	1	poli_8sides 10_whiteLine3.jpg	MediumShort_e22_cut1_stereo_44KHz.wav
3	105	4	3	2	I	2	0	268	0	poli_8sides 8_whiteLine3.jpg	MediumShort_b10_cut1_MS_stereo_44KHz.wav
3	106	2	1	0	C	2	1	297	1	poli_8sides 18_whiteLine3.jpg	MediumShort_b16_cut3_MS_stereo_44KHz.wav
3	107	1	2	0	C	2	1	478	1	poli_8sides 10_whiteLine3.jpg	MediumShort_e22_cut1_stereo_44KHz.wav
3	108	3	3	2	I	2	0	369	1	poli_8sides 2_whiteLine3.jpg	MediumShort_b10_cut1_MS_stereo_44KHz.wav
3	109	4	4	2	I	2	0	243	1	poli_8sides 8_whiteLine3.jpg	MediumShort_e16_cut1_stereo_44KHz.wav
3	110	1	1	1	C	2	0	236	0	poli_8sides 10_whiteLine3.jpg	MediumShort_b16_cut3_MS_stereo_44KHz.wav
3	111	2	2	1	C	2	0	451	0	poli_8sides 18_whiteLine3.jpg	MediumShort_e22_cut1_stereo_44KHz.wav
3	112	3	4	2	I	2	0	435	0	poli_8sides 2_whiteLine3.jpg	MediumShort_e16_cut1_stereo_44KHz.wav
3	113	4	3	2	I	2	0	499	1	poli_8sides 8_whiteLine3.jpg	MediumShort_b10_cut1_MS_stereo_44KHz.wav
3	114	3	3	2	I	1	0	642	1	poli_8sides 2_whiteLine3.jpg	MediumShort_b10_cut1_MS_stereo_44KHz.wav
3	115	2	1	0	C	2	1	863	1	poli_8sides 18_whiteLine3.jpg	MediumShort_b16_cut3_MS_stereo_44KHz.wav
3	116	1	1	1	C	1	1	815	1	poli_8sides 10_whiteLine3.jpg	MediumShort_b16_cut3_MS_stereo_44KHz.wav
3	117	3	4	2	I	1	0	727	1	poli_8sides 2_whiteLine3.jpg	MediumShort_e16_cut1_stereo_44KHz.wav
3	118	1	2	0	C	2	1	602	1	poli_8sides 10_whiteLine3.jpg	MediumShort_e22_cut1_stereo_44KHz.wav
3	119	2	2	1	C	1	1	539	1	poli_8sides 18_whiteLine3.jpg	MediumShort_e22_cut1_stereo_44KHz.wav
3	120	4	4	2	I	1	0	637	1	poli_8sides 8_whiteLine3.jpg	MediumShort_e16_cut1_stereo_44KHz.wav
3	121	1	2	0	C	1	0	692	0	poli_8sides 10_whiteLine3.jpg	MediumShort_e22_cut1_stereo_44KHz.wav
3	122	4	3	2	I	1	0	612	1	poli_8sides 8_whiteLine3.jpg	MediumShort_b10_cut1_MS_stereo_44KHz.wav
3	123	2	2	1	C	1	1	497	1	poli_8sides 18_whiteLine3.jpg	MediumShort_e22_cut1_stereo_44KHz.wav
3	124	3	4	2	I	1	0	536	0	poli_8sides 2_whiteLine3.jpg	MediumShort_e16_cut1_stereo_44KHz.wav
3	125	2	1	0	C	2	1	410	1	poli_8sides 18_whiteLine3.jpg	MediumShort_b16_cut3_MS_stereo_44KHz.wav
3	126	1	1	1	C	2	0	836	0	poli_8sides 10_whiteLine3.jpg	MediumShort_b16_cut3_MS_stereo_44KHz.wav
3	127	3	3	2	I	1	0	508	0	poli_8sides 2_whiteLine3.jpg	MediumShort_b10_cut1_MS_stereo_44KHz.wav
3	128	4	4	2	I	1	0	447	0	poli_8sides 8_whiteLine3.jpg	MediumShort_e16_cut1_stereo_44KHz.wav
3	129	2	1	0	C	1	0	551	0	poli_8sides 18_whiteLine3.jpg	MediumShort_b16_cut3_MS_stereo_44KHz.wav
3	130	3	4	2	I	1	0	485	1	poli_8sides 2_whiteLine3.jpg	MediumShort_e16_cut1_stereo_44KHz.wav
3	131	1	2	0	C	2	1	546	1	poli_8sides 10_whiteLine3.jpg	MediumShort_e22_cut1_stereo_44KHz.wav
3	132	4	4	2	I	2	0	578	1	poli_8sides 8_whiteLine3.jpg	MediumShort_e16_cut1_stereo_44KHz.wav
3	133	3	3	2	I	1	0	567	0	poli_8sides 2_whiteLine3.jpg	MediumShort_b10_cut1_MS_stereo_44KHz.wav
3	134	4	3	2	I	2	0	354	0	poli_8sides 8_whiteLine3.jpg	MediumShort_b10_cut1_MS_stereo_44KHz.wav
3	135	2	2	1	C	1	1	359	1	poli_8sides 18_whiteLine3.jpg	MediumShort_e22_cut1_stereo_44KHz.wav
3	136	1	1	1	C	1	1	306	1	poli_8sides 10_whiteLine3.jpg	MediumShort_b16_cut3_MS_stereo_44KHz.wav
3	137	2	1	0	C	2	1	322	1	poli_8sides 18_whiteLine3.jpg	MediumShort_b16_cut3_MS_stereo_44KHz.wav
3	138	3	3	2	I	2	0	515	0	poli_8sides 2_whiteLine3.jpg	MediumShort_b10_cut1_MS_stereo_44KHz.wav
3	139	4	4	2	I	2	0	494	0	poli_8sides 8_whiteLine3.jpg	MediumShort_e16_cut1_stereo_44KHz.wav
3	140	1	2	0	C	2	1	649	1	poli_8sides 10_whiteLine3.jpg	MediumShort_e22_cut1_stereo_44KHz.wav
3	141	4	3	2	I	2	0	553	0	poli_8sides 8_whiteLine3.jpg	MediumShort_b10_cut1_MS_stereo_44KHz.wav
3	142	3	4	2	I	2	0	874	0	poli_8sides 2_whiteLine3.jpg	MediumShort_e16_cut1_stereo_44KHz.wav
3	143	1	1	1	C	2	0	226	0	poli_8sides 10_whiteLine3.jpg	MediumShort_b16_cut3_MS_stereo_44KHz.wav
3	144	2	2	1	C	2	0	464	0	poli_8sides 18_whiteLine3.jpg	MediumShort_e22_cut1_stereo_44KHz.wav
3	145	4	3	2	I	1	0	358	0	poli_8sides 8_whiteLine3.jpg	MediumShort_b10_cut1_MS_stereo_44KHz.wav
3	146	1	2	0	C	2	1	340	1	poli_8sides 10_whiteLine3.jpg	MediumShort_e22_cut1_stereo_44KHz.wav
3	147	2	2	1	C	2	0	576	0	poli_8sides 18_whiteLine3.jpg	MediumShort_e22_cut1_stereo_44KHz.wav
3	148	3	4	2	I	1	0	327	1	poli_8sides 2_whiteLine3.jpg	MediumShort_e16_cut1_stereo_44KHz.wav
3	149	1	1	1	C	2	0	814	0	poli_8sides 10_whiteLine3.jpg	MediumShort_b16_cut3_MS_stereo_44KHz.wav
3	150	2	1	0	C	2	1	507	1	poli_8sides 18_whiteLine3.jpg	MediumShort_b16_cut3_MS_stereo_44KHz.wav
3	151	3	3	2	I	2	0	305	0	poli_8sides 2_whiteLine3.jpg	MediumShort_b10_cut1_MS_stereo_44KHz.wav
3	152	4	4	2	I	2	0	398	0	poli_8sides 8_whiteLine3.jpg	MediumShort_e16_cut1_stereo_44KHz.wav
3	153	1	1	1	C	2	0	488	0	poli_8sides 10_whiteLine3.jpg	MediumShort_b16_cut3_MS_stereo_44KHz.wav
3	154	2	1	0	C	2	1	344	1	poli_8sides 18_whiteLine3.jpg	MediumShort_b16_cut3_MS_stereo_44KHz.wav
3	155	3	4	2	I	2	0	531	1	poli_8sides 2_whiteLine3.jpg	MediumShort_e16_cut1_stereo_44KHz.wav
3	156	4	3	2	I	2	0	535	1	poli_8sides 8_whiteLine3.jpg	MediumShort_b10_cut1_MS_stereo_44KHz.wav
3	157	3	3	2	I	2	0	536	0	poli_8sides 2_whiteLine3.jpg	MediumShort_b10_cut1_MS_stereo_44KHz.wav
3	158	1	2	0	C	2	1	864	1	poli_8sides 10_whiteLine3.jpg	MediumShort_e22_cut1_stereo_44KHz.wav
3	159	4	4	2	I	2	0	524	1	poli_8sides 8_whiteLine3.jpg	MediumShort_e16_cut1_stereo_44KHz.wav
3	160	2	2	1	C	2	0	360	0	poli_8sides 18_whiteLine3.jpg	MediumShort_e22_cut1_stereo_44KHz.wav
3	161	1	2	0	C	1	0	415	0	poli_8sides 10_whiteLine3.jpg	MediumShort_e22_cut1_stereo_44KHz.wav
3	162	2	1	0	C	2	1	415	1	poli_8sides 18_whiteLine3.jpg	MediumShort_b16_cut3_MS_stereo_44KHz.wav
3	163	3	4	2	I	2	0	361	0	poli_8sides 2_whiteLine3.jpg	MediumShort_e16_cut1_stereo_44KHz.wav
3	164	4	4	2	I	2	0	775	1	poli_8sides 8_whiteLine3.jpg	MediumShort_e16_cut1_stereo_44KHz.wav
3	165	2	2	1	C	2	0	434	0	poli_8sides 18_whiteLine3.jpg	MediumShort_e22_cut1_stereo_44KHz.wav
3	166	3	3	2	I	1	0	780	0	poli_8sides 2_whiteLine3.jpg	MediumShort_b10_cut1_MS_stereo_44KHz.wav
3	167	4	3	2	I	2	0	429	1	poli_8sides 8_whiteLine3.jpg	MediumShort_b10_cut1_MS_stereo_44KHz.wav
3	168	1	1	1	C	2	0	349	0	poli_8sides 10_whiteLine3.jpg	MediumShort_b16_cut3_MS_stereo_44KHz.wav
3	169	3	4	2	I	2	0	576	1	poli_8sides 2_whiteLine3.jpg	MediumShort_e16_cut1_stereo_44KHz.wav
3	170	2	1	0	C	2	1	787	1	poli_8sides 18_whiteLine3.jpg	MediumShort_b16_cut3_MS_stereo_44KHz.wav
3	171	1	1	1	C	2	0	675	0	poli_8sides 10_whiteLine3.jpg	MediumShort_b16_cut3_MS_stereo_44KHz.wav
3	172	4	4	2	I	2	0	834	0	poli_8sides 8_whiteLine3.jpg	MediumShort_e16_cut1_stereo_44KHz.wav
3	173	1	2	0	C	2	1	360	1	poli_8sides 10_whiteLine3.jpg	MediumShort_e22_cut1_stereo_44KHz.wav
3	174	2	2	1	C	2	0	416	0	poli_8sides 18_whiteLine3.jpg	MediumShort_e22_cut1_stereo_44KHz.wav
3	175	4	3	2	I	1	0	600	0	poli_8sides 8_whiteLine3.jpg	MediumShort_b10_cut1_MS_stereo_44KHz.wav
3	176	3	3	2	I	2	0	399	0	poli_8sides 2_whiteLine3.jpg	MediumShort_b10_cut1_MS_stereo_44KHz.wav
3	177	4	4	2	I	1	0	574	0	poli_8sides 8_whiteLine3.jpg	MediumShort_e16_cut1_stereo_44KHz.wav
3	178	3	3	2	I	2	0	413	0	poli_8sides 2_whiteLine3.jpg	MediumShort_b10_cut1_MS_stereo_44KHz.wav
3	179	1	1	1	C	2	0	445	0	poli_8sides 10_whiteLine3.jpg	MediumShort_b16_cut3_MS_stereo_44KHz.wav
3	180	2	1	0	C	1	0	328	0	poli_8sides 18_whiteLine3.jpg	MediumShort_b16_cut3_MS_stereo_44KHz.wav
3	181	1	2	0	C	2	1	186	1	poli_8sides 10_whiteLine3.jpg	MediumShort_e22_cut1_stereo_44KHz.wav
3	182	2	2	1	C	2	0	314	0	poli_8sides 18_whiteLine3.jpg	MediumShort_e22_cut1_stereo_44KHz.wav
3	183	4	3	2	I	1	0	364	0	poli_8sides 8_whiteLine3.jpg	MediumShort_b10_cut1_MS_stereo_44KHz.wav
3	184	3	4	2	I	2	0	571	0	poli_8sides 2_whiteLine3.jpg	MediumShort_e16_cut1_stereo_44KHz.wav
3	185	1	1	1	C	2	0	285	0	poli_8sides 10_whiteLine3.jpg	MediumShort_b16_cut3_MS_stereo_44KHz.wav
3	186	4	3	2	I	2	0	291	1	poli_8sides 8_whiteLine3.jpg	MediumShort_b10_cut1_MS_stereo_44KHz.wav
3	187	2	1	0	C	1	0	331	0	poli_8sides 18_whiteLine3.jpg	MediumShort_b16_cut3_MS_stereo_44KHz.wav
3	188	3	3	2	I	2	0	666	0	poli_8sides 2_whiteLine3.jpg	MediumShort_b10_cut1_MS_stereo_44KHz.wav
3	189	2	2	1	C	2	0	513	0	poli_8sides 18_whiteLine3.jpg	MediumShort_e22_cut1_stereo_44KHz.wav
3	190	3	4	2	I	2	0	285	1	poli_8sides 2_whiteLine3.jpg	MediumShort_e16_cut1_stereo_44KHz.wav
3	191	4	4	2	I	2	0	370	1	poli_8sides 8_whiteLine3.jpg	MediumShort_e16_cut1_stereo_44KHz.wav
3	192	1	2	0	C	2	1	313	1	poli_8sides 10_whiteLine3.jpg	MediumShort_e22_cut1_stereo_44KHz.wav
3	193	2	2	1	C	2	0	317	0	poli_8sides 18_whiteLine3.jpg	MediumShort_e22_cut1_stereo_44KHz.wav
3	194	3	3	2	I	2	0	328	1	poli_8sides 2_whiteLine3.jpg	MediumShort_b10_cut1_MS_stereo_44KHz.wav
3	195	4	4	2	I	1	0	526	1	poli_8sides 8_whiteLine3.jpg	MediumShort_e16_cut1_stereo_44KHz.wav
3	196	1	2	0	C	2	1	819	1	poli_8sides 10_whiteLine3.jpg	MediumShort_e22_cut1_stereo_44KHz.wav
3	197	3	4	2	I	1	0	758	1	poli_8sides 2_whiteLine3.jpg	MediumShort_e16_cut1_stereo_44KHz.wav
3	198	2	1	0	C	2	1	562	1	poli_8sides 18_whiteLine3.jpg	MediumShort_b16_cut3_MS_stereo_44KHz.wav
3	199	4	3	2	I	2	0	543	0	poli_8sides 8_whiteLine3.jpg	MediumShort_b10_cut1_MS_stereo_44KHz.wav
3	200	1	1	1	C	2	0	409	0	poli_8sides 10_whiteLine3.jpg	MediumShort_b16_cut3_MS_stereo_44KHz.wav
4	1	1	1	1	C	2	0	901	0	poli_8sides 12_whiteLine3.jpg	Medium_e01_cut1_stereo_44KHz.wav
4	2	4	4	2	I	2	0	579	0	poli_8sides 15_whiteLine3.jpg	Medium_e26_stereo_44KHz.wav
4	3	3	3	2	I	2	0	560	1	poli_8sides 1_whiteLine3.jpg	MediumLong_e19_stereo_44KHz.wav
4	4	2	2	1	C	2	0	540	0	poli_8sides 3_whiteLine3.jpg	MediumLong_e17_cut2_stereo_44KHz.wav
4	5	3	4	2	I	2	0	528	0	poli_8sides 1_whiteLine3.jpg	Medium_e26_stereo_44KHz.wav
4	6	2	1	0	C	1	0	880	0	poli_8sides 3_whiteLine3.jpg	Medium_e01_cut1_stereo_44KHz.wav
4	7	1	2	0	C	2	1	974	1	poli_8sides 12_whiteLine3.jpg	MediumLong_e17_cut2_stereo_44KHz.wav
4	8	4	3	2	I	1	0	938	1	poli_8sides 15_whiteLine3.jpg	MediumLong_e19_stereo_44KHz.wav
4	9	3	3	2	I	2	0	562	0	poli_8sides 1_whiteLine3.jpg	MediumLong_e19_stereo_44KHz.wav
4	10	2	2	1	C	2	0	630	0	poli_8sides 3_whiteLine3.jpg	MediumLong_e17_cut2_stereo_44KHz.wav
4	11	1	2	0	C	2	1	605	1	poli_8sides 12_whiteLine3.jpg	MediumLong_e17_cut2_stereo_44KHz.wav
4	12	4	4	2	I	2	0	782	1	poli_8sides 15_whiteLine3.jpg	Medium_e26_stereo_44KHz.wav
4	13	1	1	1	C	2	0	880	0	poli_8sides 12_whiteLine3.jpg	Medium_e01_cut1_stereo_44KHz.wav
4	14	2	1	0	C	2	1	596	1	poli_8sides 3_whiteLine3.jpg	Medium_e01_cut1_stereo_44KHz.wav
4	15	3	4	2	I	2	0	639	1	poli_8sides 1_whiteLine3.jpg	Medium_e26_stereo_44KHz.wav
4	16	4	3	2	I	1	0	983	0	poli_8sides 15_whiteLine3.jpg	MediumLong_e19_stereo_44KHz.wav
4	17	3	4	2	I	2	0	684	0	poli_8sides 1_whiteLine3.jpg	Medium_e26_stereo_44KHz.wav
4	18	2	2	1	C	1	1	875	1	poli_8sides 3_whiteLine3.jpg	MediumLong_e17_cut2_stereo_44KHz.wav
4	19	1	1	1	C	2	0	706	0	poli_8sides 12_whiteLine3.jpg	Medium_e01_cut1_stereo_44KHz.wav
4	20	4	4	2	I	2	0	736	0	poli_8sides 15_whiteLine3.jpg	Medium_e26_stereo_44KHz.wav
4	21	1	2	0	C	2	1	1197	1	poli_8sides 12_whiteLine3.jpg	MediumLong_e17_cut2_stereo_44KHz.wav
4	22	4	3	2	I	2	0	671	1	poli_8sides 15_whiteLine3.jpg	MediumLong_e19_stereo_44KHz.wav
4	23	3	3	2	I	2	0	594	0	poli_8sides 1_whiteLine3.jpg	MediumLong_e19_stereo_44KHz.wav
4	24	2	1	0	C	2	1	811	1	poli_8sides 3_whiteLine3.jpg	Medium_e01_cut1_stereo_44KHz.wav
4	25	1	1	1	C	1	1	738	1	poli_8sides 12_whiteLine3.jpg	Medium_e01_cut1_stereo_44KHz.wav
4	26	4	3	2	I	2	0	594	1	poli_8sides 15_whiteLine3.jpg	MediumLong_e19_stereo_44KHz.wav
4	27	2	1	0	C	2	1	577	1	poli_8sides 3_whiteLine3.jpg	Medium_e01_cut1_stereo_44KHz.wav
4	28	3	4	2	I	2	0	708	0	poli_8sides 1_whiteLine3.jpg	Medium_e26_stereo_44KHz.wav
4	29	4	4	2	I	2	0	473	0	poli_8sides 15_whiteLine3.jpg	Medium_e26_stereo_44KHz.wav
4	30	2	2	1	C	2	0	526	0	poli_8sides 3_whiteLine3.jpg	MediumLong_e17_cut2_stereo_44KHz.wav
4	31	1	2	0	C	2	1	527	1	poli_8sides 12_whiteLine3.jpg	MediumLong_e17_cut2_stereo_44KHz.wav
4	32	3	3	2	I	2	0	717	0	poli_8sides 1_whiteLine3.jpg	MediumLong_e19_stereo_44KHz.wav
4	33	4	3	2	I	2	0	600	0	poli_8sides 15_whiteLine3.jpg	MediumLong_e19_stereo_44KHz.wav
4	34	1	1	1	C	1	1	655	1	poli_8sides 12_whiteLine3.jpg	Medium_e01_cut1_stereo_44KHz.wav
4	35	2	2	1	C	1	1	1021	1	poli_8sides 3_whiteLine3.jpg	MediumLong_e17_cut2_stereo_44KHz.wav
4	36	3	3	2	I	2	0	796	1	poli_8sides 1_whiteLine3.jpg	MediumLong_e19_stereo_44KHz.wav
4	37	1	2	0	C	2	1	745	1	poli_8sides 12_whiteLine3.jpg	MediumLong_e17_cut2_stereo_44KHz.wav
4	38	3	4	2	I	1	0	940	0	poli_8sides 1_whiteLine3.jpg	Medium_e26_stereo_44KHz.wav
4	39	2	1	0	C	2	1	709	1	poli_8sides 3_whiteLine3.jpg	Medium_e01_cut1_stereo_44KHz.wav
4	40	4	4	2	I	1	0	617	0	poli_8sides 15_whiteLine3.jpg	Medium_e26_stereo_44KHz.wav
4	41	2	1	0	C	2	1	558	1	poli_8sides 3_whiteLine3.jpg	Medium_e01_cut1_stereo_44KHz.wav
4	42	4	4	2	I	2	0	672	1	poli_8sides 15_whiteLine3.jpg	Medium_e26_stereo_44KHz.wav
4	43	3	4	2	I	2	0	471	0	poli_8sides 1_whiteLine3.jpg	Medium_e26_stereo_44KHz.wav
4	44	1	1	1	C	1	1	1168	1	poli_8sides 12_whiteLine3.jpg	Medium_e01_cut1_stereo_44KHz.wav
4	45	3	3	2	I	2	0	692	1	poli_8sides 1_whiteLine3.jpg	MediumLong_e19_stereo_44KHz.wav
4	46	2	2	1	C	1	1	670	1	poli_8sides 3_whiteLine3.jpg	MediumLong_e17_cut2_stereo_44KHz.wav
4	47	1	2	0	C	1	0	816	0	poli_8sides 12_whiteLine3.jpg	MediumLong_e17_cut2_stereo_44KHz.wav
4	48	4	3	2	I	2	0	712	1	poli_8sides 15_whiteLine3.jpg	MediumLong_e19_stereo_44KHz.wav
4	49	1	2	0	C	2	1	783	1	poli_8sides 12_whiteLine3.jpg	MediumLong_e17_cut2_stereo_44KHz.wav
4	50	4	3	2	I	2	0	757	1	poli_8sides 15_whiteLine3.jpg	MediumLong_e19_stereo_44KHz.wav
4	51	3	3	2	I	2	0	1076	1	poli_8sides 1_whiteLine3.jpg	MediumLong_e19_stereo_44KHz.wav
4	52	2	2	1	C	2	0	594	0	poli_8sides 3_whiteLine3.jpg	MediumLong_e17_cut2_stereo_44KHz.wav
4	53	1	1	1	C	1	1	928	1	poli_8sides 12_whiteLine3.jpg	Medium_e01_cut1_stereo_44KHz.wav
4	54	3	4	2	I	2	0	1342	1	poli_8sides 1_whiteLine3.jpg	Medium_e26_stereo_44KHz.wav
4	55	2	1	0	C	1	0	504	0	poli_8sides 3_whiteLine3.jpg	Medium_e01_cut1_stereo_44KHz.wav
4	56	4	4	2	I	2	0	811	1	poli_8sides 15_whiteLine3.jpg	Medium_e26_stereo_44KHz.wav
4	57	3	3	2	I	2	0	835	1	poli_8sides 1_whiteLine3.jpg	MediumLong_e19_stereo_44KHz.wav
4	58	2	2	1	C	1	1	718	1	poli_8sides 3_whiteLine3.jpg	MediumLong_e17_cut2_stereo_44KHz.wav
4	59	4	4	2	I	2	0	1077	0	poli_8sides 15_whiteLine3.jpg	Medium_e26_stereo_44KHz.wav
4	60	1	1	1	C	1	1	664	1	poli_8sides 12_whiteLine3.jpg	Medium_e01_cut1_stereo_44KHz.wav
4	61	4	3	2	I	2	0	916	1	poli_8sides 15_whiteLine3.jpg	MediumLong_e19_stereo_44KHz.wav
4	62	2	1	0	C	2	1	915	1	poli_8sides 3_whiteLine3.jpg	Medium_e01_cut1_stereo_44KHz.wav
4	63	1	2	0	C	2	1	795	1	poli_8sides 12_whiteLine3.jpg	MediumLong_e17_cut2_stereo_44KHz.wav
4	64	3	4	2	I	2	0	584	1	poli_8sides 1_whiteLine3.jpg	Medium_e26_stereo_44KHz.wav
4	65	4	4	2	I	2	0	608	0	poli_8sides 15_whiteLine3.jpg	Medium_e26_stereo_44KHz.wav
4	66	1	2	0	C	2	1	524	1	poli_8sides 12_whiteLine3.jpg	MediumLong_e17_cut2_stereo_44KHz.wav
4	67	3	3	2	I	2	0	673	1	poli_8sides 1_whiteLine3.jpg	MediumLong_e19_stereo_44KHz.wav
4	68	2	2	1	C	1	1	726	1	poli_8sides 3_whiteLine3.jpg	MediumLong_e17_cut2_stereo_44KHz.wav
4	69	4	3	2	I	2	0	1458	0	poli_8sides 15_whiteLine3.jpg	MediumLong_e19_stereo_44KHz.wav
4	70	2	1	0	C	2	1	1107	1	poli_8sides 3_whiteLine3.jpg	Medium_e01_cut1_stereo_44KHz.wav
4	71	1	1	1	C	2	0	730	0	poli_8sides 12_whiteLine3.jpg	Medium_e01_cut1_stereo_44KHz.wav
4	72	3	4	2	I	2	0	787	1	poli_8sides 1_whiteLine3.jpg	Medium_e26_stereo_44KHz.wav
4	73	2	1	0	C	2	1	753	1	poli_8sides 3_whiteLine3.jpg	Medium_e01_cut1_stereo_44KHz.wav
4	74	3	3	2	I	2	0	686	0	poli_8sides 1_whiteLine3.jpg	MediumLong_e19_stereo_44KHz.wav
4	75	1	1	1	C	2	0	592	0	poli_8sides 12_whiteLine3.jpg	Medium_e01_cut1_stereo_44KHz.wav
4	76	4	3	2	I	2	0	622	0	poli_8sides 15_whiteLine3.jpg	MediumLong_e19_stereo_44KHz.wav
4	77	1	2	0	C	2	1	1033	1	poli_8sides 12_whiteLine3.jpg	MediumLong_e17_cut2_stereo_44KHz.wav
4	78	3	4	2	I	2	0	689	1	poli_8sides 1_whiteLine3.jpg	Medium_e26_stereo_44KHz.wav
4	79	2	2	1	C	1	1	836	1	poli_8sides 3_whiteLine3.jpg	MediumLong_e17_cut2_stereo_44KHz.wav
4	80	4	4	2	I	2	0	827	1	poli_8sides 15_whiteLine3.jpg	Medium_e26_stereo_44KHz.wav
4	81	2	2	1	C	1	1	1298	1	poli_8sides 3_whiteLine3.jpg	MediumLong_e17_cut2_stereo_44KHz.wav
4	82	3	3	2	I	2	0	963	0	poli_8sides 1_whiteLine3.jpg	MediumLong_e19_stereo_44KHz.wav
4	83	1	2	0	C	2	1	1178	1	poli_8sides 12_whiteLine3.jpg	MediumLong_e17_cut2_stereo_44KHz.wav
4	84	4	4	2	I	2	0	662	0	poli_8sides 15_whiteLine3.jpg	Medium_e26_stereo_44KHz.wav
4	85	2	1	0	C	2	1	736	1	poli_8sides 3_whiteLine3.jpg	Medium_e01_cut1_stereo_44KHz.wav
4	86	4	3	2	I	2	0	712	1	poli_8sides 15_whiteLine3.jpg	MediumLong_e19_stereo_44KHz.wav
4	87	3	4	2	I	2	0	636	1	poli_8sides 1_whiteLine3.jpg	Medium_e26_stereo_44KHz.wav
4	88	1	1	1	C	1	1	1187	1	poli_8sides 12_whiteLine3.jpg	Medium_e01_cut1_stereo_44KHz.wav
4	89	4	3	2	I	2	0	1044	0	poli_8sides 15_whiteLine3.jpg	MediumLong_e19_stereo_44KHz.wav
4	90	1	2	0	C	2	1	924	1	poli_8sides 12_whiteLine3.jpg	MediumLong_e17_cut2_stereo_44KHz.wav
4	91	2	2	1	C	1	1	738	1	poli_8sides 3_whiteLine3.jpg	MediumLong_e17_cut2_stereo_44KHz.wav
4	92	3	4	2	I	2	0	547	1	poli_8sides 1_whiteLine3.jpg	Medium_e26_stereo_44KHz.wav
4	93	4	4	2	I	2	0	437	0	poli_8sides 15_whiteLine3.jpg	Medium_e26_stereo_44KHz.wav
4	94	3	3	2	I	2	0	536	0	poli_8sides 1_whiteLine3.jpg	MediumLong_e19_stereo_44KHz.wav
4	95	1	1	1	C	1	1	876	1	poli_8sides 12_whiteLine3.jpg	Medium_e01_cut1_stereo_44KHz.wav
4	96	2	1	0	C	2	1	580	1	poli_8sides 3_whiteLine3.jpg	Medium_e01_cut1_stereo_44KHz.wav
4	97	4	3	2	I	2	0	545	1	poli_8sides 15_whiteLine3.jpg	MediumLong_e19_stereo_44KHz.wav
4	98	2	2	1	C	1	1	935	1	poli_8sides 3_whiteLine3.jpg	MediumLong_e17_cut2_stereo_44KHz.wav
4	99	1	1	1	C	1	1	904	1	poli_8sides 12_whiteLine3.jpg	Medium_e01_cut1_stereo_44KHz.wav
4	100	3	4	2	I	2	0	624	1	poli_8sides 1_whiteLine3.jpg	Medium_e26_stereo_44KHz.wav
4	101	4	4	2	I	2	0	843	1	poli_8sides 15_whiteLine3.jpg	Medium_e26_stereo_44KHz.wav
4	102	1	2	0	C	2	1	741	1	poli_8sides 12_whiteLine3.jpg	MediumLong_e17_cut2_stereo_44KHz.wav
4	103	2	1	0	C	2	1	1264	1	poli_8sides 3_whiteLine3.jpg	Medium_e01_cut1_stereo_44KHz.wav
4	104	3	3	2	I	2	0	586	0	poli_8sides 1_whiteLine3.jpg	MediumLong_e19_stereo_44KHz.wav
4	105	1	1	1	C	1	1	651	1	poli_8sides 12_whiteLine3.jpg	Medium_e01_cut1_stereo_44KHz.wav
4	106	4	4	2	I	2	0	803	1	poli_8sides 15_whiteLine3.jpg	Medium_e26_stereo_44KHz.wav
4	107	3	4	2	I	2	0	593	1	poli_8sides 1_whiteLine3.jpg	Medium_e26_stereo_44KHz.wav
4	108	2	2	1	C	1	1	744	1	poli_8sides 3_whiteLine3.jpg	MediumLong_e17_cut2_stereo_44KHz.wav
4	109	3	3	2	I	2	0	844	0	poli_8sides 1_whiteLine3.jpg	MediumLong_e19_stereo_44KHz.wav
4	110	1	2	0	C	2	1	954	1	poli_8sides 12_whiteLine3.jpg	MediumLong_e17_cut2_stereo_44KHz.wav
4	111	4	3	2	I	2	0	884	1	poli_8sides 15_whiteLine3.jpg	MediumLong_e19_stereo_44KHz.wav
4	112	2	1	0	C	2	1	690	1	poli_8sides 3_whiteLine3.jpg	Medium_e01_cut1_stereo_44KHz.wav
4	113	3	3	2	I	2	0	776	1	poli_8sides 1_whiteLine3.jpg	MediumLong_e19_stereo_44KHz.wav
4	114	4	3	2	I	2	0	865	0	poli_8sides 15_whiteLine3.jpg	MediumLong_e19_stereo_44KHz.wav
4	115	2	2	1	C	1	1	767	1	poli_8sides 3_whiteLine3.jpg	MediumLong_e17_cut2_stereo_44KHz.wav
4	116	1	1	1	C	1	1	844	1	poli_8sides 12_whiteLine3.jpg	Medium_e01_cut1_stereo_44KHz.wav
4	117	3	4	2	I	2	0	702	0	poli_8sides 1_whiteLine3.jpg	Medium_e26_stereo_44KHz.wav
4	118	2	1	0	C	2	1	951	1	poli_8sides 3_whiteLine3.jpg	Medium_e01_cut1_stereo_44KHz.wav
4	119	1	2	0	C	2	1	708	1	poli_8sides 12_whiteLine3.jpg	MediumLong_e17_cut2_stereo_44KHz.wav
4	120	4	4	2	I	2	0	605	0	poli_8sides 15_whiteLine3.jpg	Medium_e26_stereo_44KHz.wav
4	121	1	1	1	C	1	1	755	1	poli_8sides 12_whiteLine3.jpg	Medium_e01_cut1_stereo_44KHz.wav
4	122	3	4	2	I	2	0	676	0	poli_8sides 1_whiteLine3.jpg	Medium_e26_stereo_44KHz.wav
4	123	2	2	1	C	1	1	647	1	poli_8sides 3_whiteLine3.jpg	MediumLong_e17_cut2_stereo_44KHz.wav
4	124	4	3	2	I	2	0	574	0	poli_8sides 15_whiteLine3.jpg	MediumLong_e19_stereo_44KHz.wav
4	125	1	2	0	C	2	1	995	1	poli_8sides 12_whiteLine3.jpg	MediumLong_e17_cut2_stereo_44KHz.wav
4	126	4	4	2	I	2	0	851	0	poli_8sides 15_whiteLine3.jpg	Medium_e26_stereo_44KHz.wav
4	127	2	1	0	C	2	1	597	1	poli_8sides 3_whiteLine3.jpg	Medium_e01_cut1_stereo_44KHz.wav
4	128	3	3	2	I	2	0	711	1	poli_8sides 1_whiteLine3.jpg	MediumLong_e19_stereo_44KHz.wav
4	129	2	1	0	C	2	1	543	1	poli_8sides 3_whiteLine3.jpg	Medium_e01_cut1_stereo_44KHz.wav
4	130	4	3	2	I	2	0	645	1	poli_8sides 15_whiteLine3.jpg	MediumLong_e19_stereo_44KHz.wav
4	131	1	2	0	C	2	1	814	1	poli_8sides 12_whiteLine3.jpg	MediumLong_e17_cut2_stereo_44KHz.wav
4	132	3	3	2	I	2	0	706	0	poli_8sides 1_whiteLine3.jpg	MediumLong_e19_stereo_44KHz.wav
4	133	1	1	1	C	2	0	1144	0	poli_8sides 12_whiteLine3.jpg	Medium_e01_cut1_stereo_44KHz.wav
4	134	3	4	2	I	2	0	485	1	poli_8sides 1_whiteLine3.jpg	Medium_e26_stereo_44KHz.wav
4	135	4	4	2	I	2	0	443	0	poli_8sides 15_whiteLine3.jpg	Medium_e26_stereo_44KHz.wav
4	136	2	2	1	C	1	1	679	1	poli_8sides 3_whiteLine3.jpg	MediumLong_e17_cut2_stereo_44KHz.wav
4	137	1	2	0	C	2	1	792	1	poli_8sides 12_whiteLine3.jpg	MediumLong_e17_cut2_stereo_44KHz.wav
4	138	2	1	0	C	2	1	565	1	poli_8sides 3_whiteLine3.jpg	Medium_e01_cut1_stereo_44KHz.wav
4	139	4	4	2	I	2	0	621	0	poli_8sides 15_whiteLine3.jpg	Medium_e26_stereo_44KHz.wav
4	140	3	4	2	I	2	0	385	0	poli_8sides 1_whiteLine3.jpg	Medium_e26_stereo_44KHz.wav
4	141	1	1	1	C	1	1	909	1	poli_8sides 12_whiteLine3.jpg	Medium_e01_cut1_stereo_44KHz.wav
4	142	3	3	2	I	2	0	766	0	poli_8sides 1_whiteLine3.jpg	MediumLong_e19_stereo_44KHz.wav
4	143	4	3	2	I	2	0	519	0	poli_8sides 15_whiteLine3.jpg	MediumLong_e19_stereo_44KHz.wav
4	144	2	2	1	C	1	1	1401	1	poli_8sides 3_whiteLine3.jpg	MediumLong_e17_cut2_stereo_44KHz.wav
4	145	3	3	2	I	2	0	546	1	poli_8sides 1_whiteLine3.jpg	MediumLong_e19_stereo_44KHz.wav
4	146	2	2	1	C	1	1	720	1	poli_8sides 3_whiteLine3.jpg	MediumLong_e17_cut2_stereo_44KHz.wav
4	147	4	3	2	I	2	0	795	0	poli_8sides 15_whiteLine3.jpg	MediumLong_e19_stereo_44KHz.wav
4	148	1	1	1	C	1	1	724	1	poli_8sides 12_whiteLine3.jpg	Medium_e01_cut1_stereo_44KHz.wav
4	149	3	4	2	I	2	0	680	1	poli_8sides 1_whiteLine3.jpg	Medium_e26_stereo_44KHz.wav
4	150	2	1	0	C	2	1	853	1	poli_8sides 3_whiteLine3.jpg	Medium_e01_cut1_stereo_44KHz.wav
4	151	4	4	2	I	2	0	567	1	poli_8sides 15_whiteLine3.jpg	Medium_e26_stereo_44KHz.wav
4	152	1	2	0	C	1	0	680	0	poli_8sides 12_whiteLine3.jpg	MediumLong_e17_cut2_stereo_44KHz.wav
4	153	3	4	2	I	2	0	484	0	poli_8sides 1_whiteLine3.jpg	Medium_e26_stereo_44KHz.wav
4	154	4	3	2	I	2	0	356	1	poli_8sides 15_whiteLine3.jpg	MediumLong_e19_stereo_44KHz.wav
4	155	2	1	0	C	2	1	465	1	poli_8sides 3_whiteLine3.jpg	Medium_e01_cut1_stereo_44KHz.wav
4	156	1	2	0	C	2	1	1080	1	poli_8sides 12_whiteLine3.jpg	MediumLong_e17_cut2_stereo_44KHz.wav
4	157	3	3	2	I	2	0	575	1	poli_8sides 1_whiteLine3.jpg	MediumLong_e19_stereo_44KHz.wav
4	158	2	2	1	C	1	1	953	1	poli_8sides 3_whiteLine3.jpg	MediumLong_e17_cut2_stereo_44KHz.wav
4	159	4	4	2	I	2	0	591	1	poli_8sides 15_whiteLine3.jpg	Medium_e26_stereo_44KHz.wav
4	160	1	1	1	C	1	1	966	1	poli_8sides 12_whiteLine3.jpg	Medium_e01_cut1_stereo_44KHz.wav
4	161	2	2	1	C	1	1	726	1	poli_8sides 3_whiteLine3.jpg	MediumLong_e17_cut2_stereo_44KHz.wav
4	162	4	3	2	I	2	0	561	0	poli_8sides 15_whiteLine3.jpg	MediumLong_e19_stereo_44KHz.wav
4	163	3	4	2	I	2	0	510	1	poli_8sides 1_whiteLine3.jpg	Medium_e26_stereo_44KHz.wav
4	164	1	1	1	C	1	1	614	1	poli_8sides 12_whiteLine3.jpg	Medium_e01_cut1_stereo_44KHz.wav
4	165	2	1	0	C	2	1	517	1	poli_8sides 3_whiteLine3.jpg	Medium_e01_cut1_stereo_44KHz.wav
4	166	3	3	2	I	2	0	536	0	poli_8sides 1_whiteLine3.jpg	MediumLong_e19_stereo_44KHz.wav
4	167	1	2	0	C	2	1	562	1	poli_8sides 12_whiteLine3.jpg	MediumLong_e17_cut2_stereo_44KHz.wav
4	168	4	4	2	I	2	0	908	1	poli_8sides 15_whiteLine3.jpg	Medium_e26_stereo_44KHz.wav
4	169	3	4	2	I	1	0	798	1	poli_8sides 1_whiteLine3.jpg	Medium_e26_stereo_44KHz.wav
4	170	1	2	0	C	2	1	778	1	poli_8sides 12_whiteLine3.jpg	MediumLong_e17_cut2_stereo_44KHz.wav
4	171	4	3	2	I	1	0	1608	1	poli_8sides 15_whiteLine3.jpg	MediumLong_e19_stereo_44KHz.wav
4	172	2	2	1	C	1	1	770	1	poli_8sides 3_whiteLine3.jpg	MediumLong_e17_cut2_stereo_44KHz.wav
4	173	4	4	2	I	2	0	636	1	poli_8sides 15_whiteLine3.jpg	Medium_e26_stereo_44KHz.wav
4	174	1	1	1	C	1	1	844	1	poli_8sides 12_whiteLine3.jpg	Medium_e01_cut1_stereo_44KHz.wav
4	175	2	1	0	C	2	1	570	1	poli_8sides 3_whiteLine3.jpg	Medium_e01_cut1_stereo_44KHz.wav
4	176	3	3	2	I	2	0	942	0	poli_8sides 1_whiteLine3.jpg	MediumLong_e19_stereo_44KHz.wav
4	177	4	3	2	I	1	0	1239	0	poli_8sides 15_whiteLine3.jpg	MediumLong_e19_stereo_44KHz.wav
4	178	3	3	2	I	2	0	532	0	poli_8sides 1_whiteLine3.jpg	MediumLong_e19_stereo_44KHz.wav
4	179	2	1	0	C	2	1	448	1	poli_8sides 3_whiteLine3.jpg	Medium_e01_cut1_stereo_44KHz.wav
4	180	1	1	1	C	1	1	620	1	poli_8sides 12_whiteLine3.jpg	Medium_e01_cut1_stereo_44KHz.wav
4	181	4	4	2	I	2	0	496	1	poli_8sides 15_whiteLine3.jpg	Medium_e26_stereo_44KHz.wav
4	182	1	2	0	C	2	1	681	1	poli_8sides 12_whiteLine3.jpg	MediumLong_e17_cut2_stereo_44KHz.wav
4	183	3	4	2	I	2	0	458	0	poli_8sides 1_whiteLine3.jpg	Medium_e26_stereo_44KHz.wav
4	184	2	2	1	C	1	1	775	1	poli_8sides 3_whiteLine3.jpg	MediumLong_e17_cut2_stereo_44KHz.wav
4	185	3	3	2	I	2	0	615	0	poli_8sides 1_whiteLine3.jpg	MediumLong_e19_stereo_44KHz.wav
4	186	1	1	1	C	1	1	701	1	poli_8sides 12_whiteLine3.jpg	Medium_e01_cut1_stereo_44KHz.wav
4	187	4	4	2	I	2	0	527	0	poli_8sides 15_whiteLine3.jpg	Medium_e26_stereo_44KHz.wav
4	188	2	2	1	C	2	0	110	0	poli_8sides 3_whiteLine3.jpg	MediumLong_e17_cut2_stereo_44KHz.wav
4	189	4	3	2	I	1	0	901	1	poli_8sides 15_whiteLine3.jpg	MediumLong_e19_stereo_44KHz.wav
4	190	2	1	0	C	2	1	463	1	poli_8sides 3_whiteLine3.jpg	Medium_e01_cut1_stereo_44KHz.wav
4	191	1	2	0	C	1	0	585	0	poli_8sides 12_whiteLine3.jpg	MediumLong_e17_cut2_stereo_44KHz.wav
4	192	3	4	2	I	2	0	482	0	poli_8sides 1_whiteLine3.jpg	Medium_e26_stereo_44KHz.wav
4	193	1	2	0	C	2	1	526	1	poli_8sides 12_whiteLine3.jpg	MediumLong_e17_cut2_stereo_44KHz.wav
4	194	3	3	2	I	2	0	870	1	poli_8sides 1_whiteLine3.jpg	MediumLong_e19_stereo_44KHz.wav
4	195	2	2	1	C	1	1	628	1	poli_8sides 3_whiteLine3.jpg	MediumLong_e17_cut2_stereo_44KHz.wav
4	196	4	3	2	I	2	0	548	1	poli_8sides 15_whiteLine3.jpg	MediumLong_e19_stereo_44KHz.wav
4	197	1	1	1	C	1	1	497	1	poli_8sides 12_whiteLine3.jpg	Medium_e01_cut1_stereo_44KHz.wav
4	198	4	4	2	I	2	0	583	0	poli_8sides 15_whiteLine3.jpg	Medium_e26_stereo_44KHz.wav
4	199	2	1	0	C	1	0	451	0	poli_8sides 3_whiteLine3.jpg	Medium_e01_cut1_stereo_44KHz.wav
4	200	3	4	2	I	2	0	632	1	poli_8sides 1_whiteLine3.jpg	Medium_e26_stereo_44KHz.wav
