block	trial	Vstim	Astim	match	C/I	resp	.result	RT	fb	V-file	A-file
LR

0	1	2	3	1	C	2	1	1560	1	Ⴞ	cut_ee_stereo_44KHz.wav
0	2	1	1	1	C	1	0	1052	0	Ⴢ	cut_g_stereo_44KHz.wav
0	3	2	4	0	C	2	0	953	0	Ⴞ	cut_oo_stereo_44KHz.wav
0	4	1	2	0	C	2	0	906	0	Ⴢ	cut_eeuw_stereo_44KHz.wav
0	5	1	2	0	C	2	0	838	0	Ⴢ	cut_eeuw_stereo_44KHz.wav
0	6	1	1	1	C	2	1	1204	1	Ⴢ	cut_g_stereo_44KHz.wav
0	7	2	4	0	C	1	1	1109	1	Ⴞ	cut_oo_stereo_44KHz.wav
0	8	2	3	1	C	1	0	985	0	Ⴞ	cut_ee_stereo_44KHz.wav
0	9	2	3	1	C	2	1	941	1	Ⴞ	cut_ee_stereo_44KHz.wav
0	10	1	1	1	C	1	0	867	0	Ⴢ	cut_g_stereo_44KHz.wav
0	11	1	2	0	C	2	0	741	0	Ⴢ	cut_eeuw_stereo_44KHz.wav
0	12	2	4	0	C	1	1	1120	1	Ⴞ	cut_oo_stereo_44KHz.wav
0	13	2	3	1	C	2	1	979	1	Ⴞ	cut_ee_stereo_44KHz.wav
0	14	2	4	0	C	1	1	1417	1	Ⴞ	cut_oo_stereo_44KHz.wav
0	15	1	1	1	C	1	0	851	0	Ⴢ	cut_g_stereo_44KHz.wav
0	16	1	2	0	C	1	1	1098	1	Ⴢ	cut_eeuw_stereo_44KHz.wav
0	17	1	2	0	C	1	1	1085	1	Ⴢ	cut_eeuw_stereo_44KHz.wav
0	18	2	3	1	C	2	1	1182	1	Ⴞ	cut_ee_stereo_44KHz.wav
0	19	2	4	0	C	1	1	996	1	Ⴞ	cut_oo_stereo_44KHz.wav
0	20	1	1	1	C	2	1	820	1	Ⴢ	cut_g_stereo_44KHz.wav
0	21	1	2	0	C	1	1	830	1	Ⴢ	cut_eeuw_stereo_44KHz.wav
0	22	2	4	0	C	1	1	604	1	Ⴞ	cut_oo_stereo_44KHz.wav
0	23	2	3	1	C	1	0	908	0	Ⴞ	cut_ee_stereo_44KHz.wav
0	24	1	1	1	C	2	1	976	1	Ⴢ	cut_g_stereo_44KHz.wav
0	25	2	4	0	C	1	1	986	1	Ⴞ	cut_oo_stereo_44KHz.wav
0	26	1	2	0	C	1	1	1022	1	Ⴢ	cut_eeuw_stereo_44KHz.wav
0	27	2	3	1	C	2	1	901	1	Ⴞ	cut_ee_stereo_44KHz.wav
0	28	1	1	1	C	1	0	855	0	Ⴢ	cut_g_stereo_44KHz.wav
0	29	2	3	1	C	2	1	1280	1	Ⴞ	cut_ee_stereo_44KHz.wav
0	30	1	1	1	C	2	1	1175	1	Ⴢ	cut_g_stereo_44KHz.wav
avg_resp = 1064
1	1	1	2	0	C	1	1	1370	1	Ⴒ	cut_f_stereo_44KHz.wav
1	2	3	3	2	I	2	0	1071	0	Ⴔ	cut_s_stereo_44KHz.wav
1	3	2	2	1	C	2	1	1082	1	Ⴉ	cut_f_stereo_44KHz.wav
1	4	4	3	2	I	2	0	1053	0	Ⴕ	cut_s_stereo_44KHz.wav
1	5	1	1	1	C	1	0	1028	0	Ⴒ	cut_oei_stereo_44KHz.wav
1	6	2	1	0	C	1	1	1015	1	Ⴉ	cut_oei_stereo_44KHz.wav
1	7	4	4	2	I	2	0	1330	0	Ⴕ	cut_j_stereo_44KHz.wav
1	8	3	4	2	I	2	0	1019	1	Ⴔ	cut_j_stereo_44KHz.wav
1	9	4	4	2	I	1	0	803	0	Ⴕ	cut_j_stereo_44KHz.wav
1	10	1	1	1	C	2	1	1080	1	Ⴒ	cut_oei_stereo_44KHz.wav
1	11	3	4	2	I	1	0	1180	1	Ⴔ	cut_j_stereo_44KHz.wav
1	12	2	1	0	C	1	1	758	1	Ⴉ	cut_oei_stereo_44KHz.wav
1	13	3	3	2	I	2	0	832	1	Ⴔ	cut_s_stereo_44KHz.wav
1	14	1	2	0	C	1	1	959	1	Ⴒ	cut_f_stereo_44KHz.wav
1	15	2	2	1	C	2	1	1003	1	Ⴉ	cut_f_stereo_44KHz.wav
1	16	4	3	2	I	2	0	927	1	Ⴕ	cut_s_stereo_44KHz.wav
1	17	2	2	1	C	2	1	868	1	Ⴉ	cut_f_stereo_44KHz.wav
1	18	3	3	2	I	1	0	1671	1	Ⴔ	cut_s_stereo_44KHz.wav
1	19	1	2	0	C	1	1	1118	1	Ⴒ	cut_f_stereo_44KHz.wav
1	20	4	4	2	I	1	0	1073	1	Ⴕ	cut_j_stereo_44KHz.wav
1	21	3	4	2	I	2	0	1027	0	Ⴔ	cut_j_stereo_44KHz.wav
1	22	4	3	2	I	1	0	894	1	Ⴕ	cut_s_stereo_44KHz.wav
1	23	2	1	0	C	1	1	792	1	Ⴉ	cut_oei_stereo_44KHz.wav
1	24	1	1	1	C	2	1	727	1	Ⴒ	cut_oei_stereo_44KHz.wav
1	25	3	4	2	I	1	0	1021	1	Ⴔ	cut_j_stereo_44KHz.wav
1	26	4	4	2	I	2	0	856	0	Ⴕ	cut_j_stereo_44KHz.wav
1	27	1	2	0	C	1	1	698	1	Ⴒ	cut_f_stereo_44KHz.wav
1	28	2	1	0	C	1	1	713	1	Ⴉ	cut_oei_stereo_44KHz.wav
1	29	1	1	1	C	2	1	959	1	Ⴒ	cut_oei_stereo_44KHz.wav
1	30	2	2	1	C	2	1	923	1	Ⴉ	cut_f_stereo_44KHz.wav
1	31	3	3	2	I	1	0	1061	0	Ⴔ	cut_s_stereo_44KHz.wav
1	32	4	3	2	I	1	0	1000	0	Ⴕ	cut_s_stereo_44KHz.wav
1	33	3	4	2	I	1	0	1004	0	Ⴔ	cut_j_stereo_44KHz.wav
1	34	1	1	1	C	2	1	943	1	Ⴒ	cut_oei_stereo_44KHz.wav
1	35	2	1	0	C	1	1	711	1	Ⴉ	cut_oei_stereo_44KHz.wav
1	36	4	3	2	I	1	0	798	0	Ⴕ	cut_s_stereo_44KHz.wav
1	37	3	3	2	I	1	0	684	1	Ⴔ	cut_s_stereo_44KHz.wav
1	38	2	2	1	C	2	1	1090	1	Ⴉ	cut_f_stereo_44KHz.wav
1	39	4	4	2	I	1	0	689	1	Ⴕ	cut_j_stereo_44KHz.wav
1	40	1	2	0	C	1	1	753	1	Ⴒ	cut_f_stereo_44KHz.wav
1	41	2	2	1	C	2	1	1027	1	Ⴉ	cut_f_stereo_44KHz.wav
1	42	1	2	0	C	1	1	733	1	Ⴒ	cut_f_stereo_44KHz.wav
1	43	3	3	2	I	1	0	1030	1	Ⴔ	cut_s_stereo_44KHz.wav
1	44	4	4	2	I	1	0	676	0	Ⴕ	cut_j_stereo_44KHz.wav
1	45	2	1	0	C	1	1	887	1	Ⴉ	cut_oei_stereo_44KHz.wav
1	46	4	3	2	I	1	0	800	1	Ⴕ	cut_s_stereo_44KHz.wav
1	47	1	1	1	C	2	1	1051	1	Ⴒ	cut_oei_stereo_44KHz.wav
1	48	3	4	2	I	1	0	1024	1	Ⴔ	cut_j_stereo_44KHz.wav
1	49	4	3	2	I	1	0	735	0	Ⴕ	cut_s_stereo_44KHz.wav
1	50	1	2	0	C	1	1	931	1	Ⴒ	cut_f_stereo_44KHz.wav
1	51	2	1	0	C	1	1	668	1	Ⴉ	cut_oei_stereo_44KHz.wav
1	52	3	4	2	I	1	0	822	1	Ⴔ	cut_j_stereo_44KHz.wav
1	53	2	2	1	C	2	1	864	1	Ⴉ	cut_f_stereo_44KHz.wav
1	54	4	4	2	I	1	0	771	0	Ⴕ	cut_j_stereo_44KHz.wav
1	55	1	1	1	C	2	1	832	1	Ⴒ	cut_oei_stereo_44KHz.wav
1	56	3	3	2	I	1	0	1096	0	Ⴔ	cut_s_stereo_44KHz.wav
1	57	4	4	2	I	1	0	963	1	Ⴕ	cut_j_stereo_44KHz.wav
1	58	3	4	2	I	1	0	1080	0	Ⴔ	cut_j_stereo_44KHz.wav
1	59	2	2	1	C	2	1	993	1	Ⴉ	cut_f_stereo_44KHz.wav
1	60	1	2	0	C	1	1	925	1	Ⴒ	cut_f_stereo_44KHz.wav
1	61	3	3	2	I	1	0	878	1	Ⴔ	cut_s_stereo_44KHz.wav
1	62	2	1	0	C	1	1	1197	1	Ⴉ	cut_oei_stereo_44KHz.wav
1	63	1	1	1	C	2	1	742	1	Ⴒ	cut_oei_stereo_44KHz.wav
1	64	4	3	2	I	1	0	811	1	Ⴕ	cut_s_stereo_44KHz.wav
1	65	3	4	2	I	1	0	744	1	Ⴔ	cut_j_stereo_44KHz.wav
1	66	4	4	2	I	1	0	817	1	Ⴕ	cut_j_stereo_44KHz.wav
1	67	1	2	0	C	1	1	757	1	Ⴒ	cut_f_stereo_44KHz.wav
1	68	2	2	1	C	2	1	1034	1	Ⴉ	cut_f_stereo_44KHz.wav
1	69	4	3	2	I	1	0	724	0	Ⴕ	cut_s_stereo_44KHz.wav
1	70	2	1	0	C	1	1	681	1	Ⴉ	cut_oei_stereo_44KHz.wav
1	71	1	1	1	C	2	1	795	1	Ⴒ	cut_oei_stereo_44KHz.wav
1	72	3	3	2	I	1	0	788	0	Ⴔ	cut_s_stereo_44KHz.wav
1	73	1	1	1	C	2	1	895	1	Ⴒ	cut_oei_stereo_44KHz.wav
1	74	3	3	2	I	1	0	676	1	Ⴔ	cut_s_stereo_44KHz.wav
1	75	4	4	2	I	1	0	774	1	Ⴕ	cut_j_stereo_44KHz.wav
1	76	2	1	0	C	1	1	654	1	Ⴉ	cut_oei_stereo_44KHz.wav
1	77	1	2	0	C	1	1	1022	1	Ⴒ	cut_f_stereo_44KHz.wav
1	78	4	3	2	I	1	0	686	0	Ⴕ	cut_s_stereo_44KHz.wav
1	79	2	2	1	C	2	1	988	1	Ⴉ	cut_f_stereo_44KHz.wav
1	80	3	4	2	I	1	0	1246	0	Ⴔ	cut_j_stereo_44KHz.wav
1	81	4	4	2	I	1	0	1024	0	Ⴕ	cut_j_stereo_44KHz.wav
1	82	1	1	1	C	2	1	1070	1	Ⴒ	cut_oei_stereo_44KHz.wav
1	83	3	4	2	I	1	0	776	0	Ⴔ	cut_j_stereo_44KHz.wav
1	84	2	1	0	C	1	1	695	1	Ⴉ	cut_oei_stereo_44KHz.wav
1	85	3	3	2	I	1	0	1052	0	Ⴔ	cut_s_stereo_44KHz.wav
1	86	1	2	0	C	1	1	776	1	Ⴒ	cut_f_stereo_44KHz.wav
1	87	2	2	1	C	2	1	970	1	Ⴉ	cut_f_stereo_44KHz.wav
1	88	4	3	2	I	1	0	1036	0	Ⴕ	cut_s_stereo_44KHz.wav
1	89	3	3	2	I	1	0	865	0	Ⴔ	cut_s_stereo_44KHz.wav
1	90	1	2	0	C	1	1	721	1	Ⴒ	cut_f_stereo_44KHz.wav
1	91	4	4	2	I	2	0	1325	1	Ⴕ	cut_j_stereo_44KHz.wav
1	92	2	2	1	C	2	1	871	1	Ⴉ	cut_f_stereo_44KHz.wav
1	93	4	3	2	I	2	0	1206	1	Ⴕ	cut_s_stereo_44KHz.wav
1	94	1	1	1	C	2	1	854	1	Ⴒ	cut_oei_stereo_44KHz.wav
1	95	2	1	0	C	1	1	1053	1	Ⴉ	cut_oei_stereo_44KHz.wav
1	96	3	4	2	I	1	0	1147	1	Ⴔ	cut_j_stereo_44KHz.wav
1	97	4	4	2	I	2	0	840	1	Ⴕ	cut_j_stereo_44KHz.wav
1	98	3	4	2	I	1	0	942	0	Ⴔ	cut_j_stereo_44KHz.wav
1	99	2	1	0	C	1	1	666	1	Ⴉ	cut_oei_stereo_44KHz.wav
1	100	1	2	0	C	1	1	803	1	Ⴒ	cut_f_stereo_44KHz.wav
1	101	4	3	2	I	2	0	949	0	Ⴕ	cut_s_stereo_44KHz.wav
1	102	2	2	1	C	2	1	908	1	Ⴉ	cut_f_stereo_44KHz.wav
1	103	1	1	1	C	2	1	918	1	Ⴒ	cut_oei_stereo_44KHz.wav
1	104	3	3	2	I	2	0	1222	0	Ⴔ	cut_s_stereo_44KHz.wav
1	105	2	2	1	C	2	1	925	1	Ⴉ	cut_f_stereo_44KHz.wav
1	106	1	2	0	C	1	1	844	1	Ⴒ	cut_f_stereo_44KHz.wav
1	107	4	3	2	I	2	0	1059	1	Ⴕ	cut_s_stereo_44KHz.wav
1	108	3	4	2	I	1	0	864	1	Ⴔ	cut_j_stereo_44KHz.wav
1	109	4	4	2	I	2	0	826	1	Ⴕ	cut_j_stereo_44KHz.wav
1	110	1	1	1	C	2	1	817	1	Ⴒ	cut_oei_stereo_44KHz.wav
1	111	2	1	0	C	1	1	988	1	Ⴉ	cut_oei_stereo_44KHz.wav
1	112	3	3	2	I	2	0	887	1	Ⴔ	cut_s_stereo_44KHz.wav
1	113	1	2	0	C	1	1	1121	1	Ⴒ	cut_f_stereo_44KHz.wav
1	114	3	4	2	I	1	0	947	0	Ⴔ	cut_j_stereo_44KHz.wav
1	115	4	4	2	I	1	0	1583	1	Ⴕ	cut_j_stereo_44KHz.wav
1	116	2	2	1	C	2	1	750	1	Ⴉ	cut_f_stereo_44KHz.wav
1	117	3	3	2	I	2	0	1152	1	Ⴔ	cut_s_stereo_44KHz.wav
1	118	4	3	2	I	2	0	1004	0	Ⴕ	cut_s_stereo_44KHz.wav
1	119	2	1	0	C	1	1	1018	1	Ⴉ	cut_oei_stereo_44KHz.wav
1	120	1	1	1	C	2	1	719	1	Ⴒ	cut_oei_stereo_44KHz.wav
1	121	3	4	2	I	1	0	1134	1	Ⴔ	cut_j_stereo_44KHz.wav
1	122	4	3	2	I	2	0	983	1	Ⴕ	cut_s_stereo_44KHz.wav
1	123	1	1	1	C	2	1	868	1	Ⴒ	cut_oei_stereo_44KHz.wav
1	124	2	1	0	C	1	1	1106	1	Ⴉ	cut_oei_stereo_44KHz.wav
1	125	3	3	2	I	1	0	839	1	Ⴔ	cut_s_stereo_44KHz.wav
1	126	2	2	1	C	2	1	869	1	Ⴉ	cut_f_stereo_44KHz.wav
1	127	1	2	0	C	1	1	803	1	Ⴒ	cut_f_stereo_44KHz.wav
1	128	4	4	2	I	2	0	1025	0	Ⴕ	cut_j_stereo_44KHz.wav
1	129	2	2	1	C	2	1	838	1	Ⴉ	cut_f_stereo_44KHz.wav
1	130	1	1	1	C	2	1	781	1	Ⴒ	cut_oei_stereo_44KHz.wav
1	131	3	4	2	I	1	0	1214	1	Ⴔ	cut_j_stereo_44KHz.wav
1	132	4	3	2	I	2	0	1065	1	Ⴕ	cut_s_stereo_44KHz.wav
1	133	3	3	2	I	2	0	1014	1	Ⴔ	cut_s_stereo_44KHz.wav
1	134	4	4	2	I	2	0	1196	0	Ⴕ	cut_j_stereo_44KHz.wav
1	135	2	1	0	C	1	1	982	1	Ⴉ	cut_oei_stereo_44KHz.wav
1	136	1	2	0	C	1	1	709	1	Ⴒ	cut_f_stereo_44KHz.wav
1	137	2	1	0	C	1	1	675	1	Ⴉ	cut_oei_stereo_44KHz.wav
1	138	3	4	2	I	1	0	947	0	Ⴔ	cut_j_stereo_44KHz.wav
1	139	1	1	1	C	2	1	889	1	Ⴒ	cut_oei_stereo_44KHz.wav
1	140	4	4	2	I	1	0	1191	0	Ⴕ	cut_j_stereo_44KHz.wav
1	141	1	2	0	C	1	1	708	1	Ⴒ	cut_f_stereo_44KHz.wav
1	142	4	3	2	I	2	0	896	1	Ⴕ	cut_s_stereo_44KHz.wav
1	143	3	3	2	I	2	0	838	0	Ⴔ	cut_s_stereo_44KHz.wav
1	144	2	2	1	C	2	1	1110	1	Ⴉ	cut_f_stereo_44KHz.wav
1	145	4	4	2	I	1	0	1030	0	Ⴕ	cut_j_stereo_44KHz.wav
1	146	3	3	2	I	1	0	1248	0	Ⴔ	cut_s_stereo_44KHz.wav
1	147	1	2	0	C	1	1	776	1	Ⴒ	cut_f_stereo_44KHz.wav
1	148	2	2	1	C	2	1	839	1	Ⴉ	cut_f_stereo_44KHz.wav
1	149	3	4	2	I	1	0	718	1	Ⴔ	cut_j_stereo_44KHz.wav
1	150	2	1	0	C	1	1	1039	1	Ⴉ	cut_oei_stereo_44KHz.wav
1	151	1	1	1	C	2	1	830	1	Ⴒ	cut_oei_stereo_44KHz.wav
1	152	4	3	2	I	2	0	1471	1	Ⴕ	cut_s_stereo_44KHz.wav
1	153	3	3	2	I	2	0	1348	1	Ⴔ	cut_s_stereo_44KHz.wav
1	154	1	1	1	C	2	1	839	1	Ⴒ	cut_oei_stereo_44KHz.wav
1	155	2	2	1	C	2	1	837	1	Ⴉ	cut_f_stereo_44KHz.wav
1	156	4	4	2	I	2	0	1109	0	Ⴕ	cut_j_stereo_44KHz.wav
1	157	3	4	2	I	1	0	712	0	Ⴔ	cut_j_stereo_44KHz.wav
1	158	1	2	0	C	1	1	967	1	Ⴒ	cut_f_stereo_44KHz.wav
1	159	2	1	0	C	1	1	984	1	Ⴉ	cut_oei_stereo_44KHz.wav
1	160	4	3	2	I	2	0	1179	1	Ⴕ	cut_s_stereo_44KHz.wav
1	161	2	1	0	C	1	1	968	1	Ⴉ	cut_oei_stereo_44KHz.wav
1	162	1	2	0	C	1	1	1056	1	Ⴒ	cut_f_stereo_44KHz.wav
1	163	3	3	2	I	1	0	1053	1	Ⴔ	cut_s_stereo_44KHz.wav
1	164	4	4	2	I	1	0	943	0	Ⴕ	cut_j_stereo_44KHz.wav
1	165	3	4	2	I	1	0	872	1	Ⴔ	cut_j_stereo_44KHz.wav
1	166	4	3	2	I	1	0	1069	1	Ⴕ	cut_s_stereo_44KHz.wav
1	167	1	1	1	C	2	1	822	1	Ⴒ	cut_oei_stereo_44KHz.wav
1	168	2	2	1	C	2	1	1102	1	Ⴉ	cut_f_stereo_44KHz.wav
1	169	1	1	1	C	2	1	724	1	Ⴒ	cut_oei_stereo_44KHz.wav
1	170	4	4	2	I	1	0	914	1	Ⴕ	cut_j_stereo_44KHz.wav
1	171	2	2	1	C	2	1	995	1	Ⴉ	cut_f_stereo_44KHz.wav
1	172	3	3	2	I	1	0	1834	0	Ⴔ	cut_s_stereo_44KHz.wav
1	173	1	2	0	C	1	1	910	1	Ⴒ	cut_f_stereo_44KHz.wav
1	174	2	1	0	C	1	1	648	1	Ⴉ	cut_oei_stereo_44KHz.wav
1	175	3	4	2	I	1	0	833	0	Ⴔ	cut_j_stereo_44KHz.wav
1	176	4	3	2	I	1	0	882	0	Ⴕ	cut_s_stereo_44KHz.wav
1	177	2	1	0	C	1	1	660	1	Ⴉ	cut_oei_stereo_44KHz.wav
1	178	3	4	2	I	1	0	742	0	Ⴔ	cut_j_stereo_44KHz.wav
1	179	4	3	2	I	2	0	1163	1	Ⴕ	cut_s_stereo_44KHz.wav
1	180	1	2	0	C	1	1	827	1	Ⴒ	cut_f_stereo_44KHz.wav
1	181	2	2	1	C	2	1	963	1	Ⴉ	cut_f_stereo_44KHz.wav
1	182	3	3	2	I	2	0	1181	0	Ⴔ	cut_s_stereo_44KHz.wav
1	183	4	4	2	I	1	0	988	0	Ⴕ	cut_j_stereo_44KHz.wav
1	184	1	1	1	C	2	1	755	1	Ⴒ	cut_oei_stereo_44KHz.wav
1	185	2	1	0	C	1	1	698	1	Ⴉ	cut_oei_stereo_44KHz.wav
1	186	3	4	2	I	2	0	1355	0	Ⴔ	cut_j_stereo_44KHz.wav
1	187	4	4	2	I	1	0	1190	0	Ⴕ	cut_j_stereo_44KHz.wav
1	188	1	2	0	C	1	1	704	1	Ⴒ	cut_f_stereo_44KHz.wav
1	189	3	3	2	I	2	0	974	1	Ⴔ	cut_s_stereo_44KHz.wav
1	190	1	1	1	C	2	1	970	1	Ⴒ	cut_oei_stereo_44KHz.wav
1	191	4	3	2	I	2	0	1086	1	Ⴕ	cut_s_stereo_44KHz.wav
1	192	2	2	1	C	2	1	864	1	Ⴉ	cut_f_stereo_44KHz.wav
1	193	1	1	1	C	2	1	840	1	Ⴒ	cut_oei_stereo_44KHz.wav
1	194	2	2	1	C	2	1	1027	1	Ⴉ	cut_f_stereo_44KHz.wav
1	195	3	3	2	I	2	0	1052	0	Ⴔ	cut_s_stereo_44KHz.wav
1	196	4	3	2	I	2	0	1603	1	Ⴕ	cut_s_stereo_44KHz.wav
1	197	3	4	2	I	2	0	1042	0	Ⴔ	cut_j_stereo_44KHz.wav
1	198	2	1	0	C	1	1	1133	1	Ⴉ	cut_oei_stereo_44KHz.wav
1	199	4	4	2	I	2	0	1752	0	Ⴕ	cut_j_stereo_44KHz.wav
1	200	1	2	0	C	1	1	1281	1	Ⴒ	cut_f_stereo_44KHz.wav
2	1	1	1	1	C	2	1	1239	1	Ⴖ	cut_w_stereo_44KHz.wav
2	2	2	2	1	C	1	0	851	0	Ⴌ	cut_g_stereo_44KHz.wav
2	3	3	3	2	I	2	0	831	0	Ⴏ	cut_l_stereo_44KHz.wav
2	4	4	4	2	I	1	0	687	0	Ⴐ	cut_h_stereo_44KHz.wav
2	5	1	2	0	C	1	1	556	1	Ⴖ	cut_g_stereo_44KHz.wav
2	6	4	3	2	I	1	0	545	1	Ⴐ	cut_l_stereo_44KHz.wav
2	7	2	1	0	C	1	1	692	1	Ⴌ	cut_w_stereo_44KHz.wav
2	8	3	4	2	I	2	0	1013	0	Ⴏ	cut_h_stereo_44KHz.wav
2	9	4	3	2	I	1	0	757	1	Ⴐ	cut_l_stereo_44KHz.wav
2	10	1	1	1	C	2	1	1228	1	Ⴖ	cut_w_stereo_44KHz.wav
2	11	2	1	0	C	1	1	1098	1	Ⴌ	cut_w_stereo_44KHz.wav
2	12	3	3	2	I	2	0	972	0	Ⴏ	cut_l_stereo_44KHz.wav
2	13	2	2	1	C	1	0	1089	0	Ⴌ	cut_g_stereo_44KHz.wav
2	14	4	4	2	I	2	0	1164	0	Ⴐ	cut_h_stereo_44KHz.wav
2	15	1	2	0	C	1	1	782	1	Ⴖ	cut_g_stereo_44KHz.wav
2	16	3	4	2	I	2	0	873	1	Ⴏ	cut_h_stereo_44KHz.wav
2	17	2	2	1	C	1	0	1194	0	Ⴌ	cut_g_stereo_44KHz.wav
2	18	1	1	1	C	1	0	904	0	Ⴖ	cut_w_stereo_44KHz.wav
2	19	4	4	2	I	2	0	1027	0	Ⴐ	cut_h_stereo_44KHz.wav
2	20	3	4	2	I	2	0	911	1	Ⴏ	cut_h_stereo_44KHz.wav
2	21	4	3	2	I	1	0	1126	1	Ⴐ	cut_l_stereo_44KHz.wav
2	22	3	3	2	I	2	0	776	0	Ⴏ	cut_l_stereo_44KHz.wav
2	23	1	2	0	C	2	0	907	0	Ⴖ	cut_g_stereo_44KHz.wav
2	24	2	1	0	C	2	0	1498	0	Ⴌ	cut_w_stereo_44KHz.wav
2	25	4	3	2	I	1	0	720	1	Ⴐ	cut_l_stereo_44KHz.wav
2	26	3	4	2	I	2	0	1324	0	Ⴏ	cut_h_stereo_44KHz.wav
2	27	2	2	1	C	1	0	883	0	Ⴌ	cut_g_stereo_44KHz.wav
2	28	1	1	1	C	2	1	1417	1	Ⴖ	cut_w_stereo_44KHz.wav
2	29	2	1	0	C	2	0	1821	0	Ⴌ	cut_w_stereo_44KHz.wav
2	30	3	3	2	I	1	0	945	0	Ⴏ	cut_l_stereo_44KHz.wav
2	31	4	4	2	I	1	0	934	0	Ⴐ	cut_h_stereo_44KHz.wav
2	32	1	2	0	C	2	0	1162	0	Ⴖ	cut_g_stereo_44KHz.wav
2	33	3	3	2	I	1	0	938	1	Ⴏ	cut_l_stereo_44KHz.wav
2	34	4	4	2	I	2	0	1543	1	Ⴐ	cut_h_stereo_44KHz.wav
2	35	2	1	0	C	1	1	1218	1	Ⴌ	cut_w_stereo_44KHz.wav
2	36	1	2	0	C	1	1	784	1	Ⴖ	cut_g_stereo_44KHz.wav
2	37	3	4	2	I	1	0	1508	0	Ⴏ	cut_h_stereo_44KHz.wav
2	38	4	3	2	I	1	0	887	1	Ⴐ	cut_l_stereo_44KHz.wav
2	39	2	2	1	C	2	1	1181	1	Ⴌ	cut_g_stereo_44KHz.wav
2	40	1	1	1	C	2	1	964	1	Ⴖ	cut_w_stereo_44KHz.wav
2	41	4	3	2	I	1	0	748	0	Ⴐ	cut_l_stereo_44KHz.wav
2	42	3	4	2	I	2	0	840	0	Ⴏ	cut_h_stereo_44KHz.wav
2	43	2	1	0	C	2	0	878	0	Ⴌ	cut_w_stereo_44KHz.wav
2	44	1	1	1	C	1	0	1490	0	Ⴖ	cut_w_stereo_44KHz.wav
2	45	3	3	2	I	1	0	740	1	Ⴏ	cut_l_stereo_44KHz.wav
2	46	4	4	2	I	2	0	1236	1	Ⴐ	cut_h_stereo_44KHz.wav
2	47	2	2	1	C	2	1	1091	1	Ⴌ	cut_g_stereo_44KHz.wav
2	48	1	2	0	C	1	1	822	1	Ⴖ	cut_g_stereo_44KHz.wav
2	49	3	4	2	I	1	0	1226	1	Ⴏ	cut_h_stereo_44KHz.wav
2	50	1	1	1	C	2	1	930	1	Ⴖ	cut_w_stereo_44KHz.wav
2	51	2	1	0	C	1	1	1253	1	Ⴌ	cut_w_stereo_44KHz.wav
2	52	4	4	2	I	2	0	1334	0	Ⴐ	cut_h_stereo_44KHz.wav
2	53	1	2	0	C	1	1	873	1	Ⴖ	cut_g_stereo_44KHz.wav
2	54	4	3	2	I	1	0	867	0	Ⴐ	cut_l_stereo_44KHz.wav
2	55	3	3	2	I	1	0	737	1	Ⴏ	cut_l_stereo_44KHz.wav
2	56	2	2	1	C	2	1	836	1	Ⴌ	cut_g_stereo_44KHz.wav
2	57	4	4	2	I	1	0	759	1	Ⴐ	cut_h_stereo_44KHz.wav
2	58	1	2	0	C	1	1	773	1	Ⴖ	cut_g_stereo_44KHz.wav
2	59	2	1	0	C	2	0	1134	0	Ⴌ	cut_w_stereo_44KHz.wav
2	60	3	4	2	I	1	0	870	1	Ⴏ	cut_h_stereo_44KHz.wav
2	61	4	3	2	I	1	0	971	0	Ⴐ	cut_l_stereo_44KHz.wav
2	62	2	2	1	C	2	1	926	1	Ⴌ	cut_g_stereo_44KHz.wav
2	63	3	3	2	I	2	0	1699	1	Ⴏ	cut_l_stereo_44KHz.wav
2	64	1	1	1	C	2	1	840	1	Ⴖ	cut_w_stereo_44KHz.wav
2	65	2	2	1	C	2	1	736	1	Ⴌ	cut_g_stereo_44KHz.wav
2	66	1	1	1	C	2	1	1126	1	Ⴖ	cut_w_stereo_44KHz.wav
2	67	3	3	2	I	1	0	852	1	Ⴏ	cut_l_stereo_44KHz.wav
2	68	4	4	2	I	1	0	1248	1	Ⴐ	cut_h_stereo_44KHz.wav
2	69	1	2	0	C	1	1	1176	1	Ⴖ	cut_g_stereo_44KHz.wav
2	70	4	3	2	I	1	0	778	0	Ⴐ	cut_l_stereo_44KHz.wav
2	71	3	4	2	I	1	0	681	1	Ⴏ	cut_h_stereo_44KHz.wav
2	72	2	1	0	C	2	0	810	0	Ⴌ	cut_w_stereo_44KHz.wav
2	73	1	1	1	C	2	1	882	1	Ⴖ	cut_w_stereo_44KHz.wav
2	74	2	2	1	C	2	1	924	1	Ⴌ	cut_g_stereo_44KHz.wav
2	75	3	4	2	I	1	0	1131	1	Ⴏ	cut_h_stereo_44KHz.wav
2	76	4	4	2	I	2	0	956	1	Ⴐ	cut_h_stereo_44KHz.wav
2	77	3	3	2	I	1	0	1215	1	Ⴏ	cut_l_stereo_44KHz.wav
2	78	1	2	0	C	1	1	821	1	Ⴖ	cut_g_stereo_44KHz.wav
2	79	2	1	0	C	2	0	1038	0	Ⴌ	cut_w_stereo_44KHz.wav
2	80	4	3	2	I	1	0	1137	1	Ⴐ	cut_l_stereo_44KHz.wav
2	81	3	4	2	I	1	0	1336	0	Ⴏ	cut_h_stereo_44KHz.wav
2	82	2	2	1	C	2	1	934	1	Ⴌ	cut_g_stereo_44KHz.wav
2	83	1	2	0	C	1	1	699	1	Ⴖ	cut_g_stereo_44KHz.wav
2	84	4	4	2	I	2	0	949	1	Ⴐ	cut_h_stereo_44KHz.wav
2	85	3	3	2	I	2	0	1163	0	Ⴏ	cut_l_stereo_44KHz.wav
2	86	2	1	0	C	1	1	1623	1	Ⴌ	cut_w_stereo_44KHz.wav
2	87	4	3	2	I	1	0	1173	1	Ⴐ	cut_l_stereo_44KHz.wav
2	88	1	1	1	C	2	1	969	1	Ⴖ	cut_w_stereo_44KHz.wav
2	89	2	1	0	C	2	0	753	0	Ⴌ	cut_w_stereo_44KHz.wav
2	90	4	4	2	I	2	0	1374	0	Ⴐ	cut_h_stereo_44KHz.wav
2	91	3	4	2	I	1	0	602	1	Ⴏ	cut_h_stereo_44KHz.wav
2	92	1	2	0	C	1	1	822	1	Ⴖ	cut_g_stereo_44KHz.wav
2	93	2	2	1	C	2	1	851	1	Ⴌ	cut_g_stereo_44KHz.wav
2	94	3	3	2	I	1	0	1148	1	Ⴏ	cut_l_stereo_44KHz.wav
2	95	1	1	1	C	2	1	1285	1	Ⴖ	cut_w_stereo_44KHz.wav
2	96	4	3	2	I	1	0	1015	1	Ⴐ	cut_l_stereo_44KHz.wav
2	97	1	1	1	C	2	1	839	1	Ⴖ	cut_w_stereo_44KHz.wav
2	98	3	3	2	I	1	0	1155	0	Ⴏ	cut_l_stereo_44KHz.wav
2	99	2	2	1	C	2	1	730	1	Ⴌ	cut_g_stereo_44KHz.wav
2	100	4	3	2	I	1	0	857	0	Ⴐ	cut_l_stereo_44KHz.wav
2	101	3	4	2	I	1	0	1016	0	Ⴏ	cut_h_stereo_44KHz.wav
2	102	4	4	2	I	2	0	1386	0	Ⴐ	cut_h_stereo_44KHz.wav
2	103	1	2	0	C	1	1	846	1	Ⴖ	cut_g_stereo_44KHz.wav
2	104	2	1	0	C	1	1	1477	1	Ⴌ	cut_w_stereo_44KHz.wav
2	105	1	1	1	C	2	1	894	1	Ⴖ	cut_w_stereo_44KHz.wav
2	106	2	1	0	C	1	1	1494	1	Ⴌ	cut_w_stereo_44KHz.wav
2	107	4	3	2	I	1	0	1055	1	Ⴐ	cut_l_stereo_44KHz.wav
2	108	3	4	2	I	1	0	1238	1	Ⴏ	cut_h_stereo_44KHz.wav
2	109	1	2	0	C	1	1	1367	1	Ⴖ	cut_g_stereo_44KHz.wav
2	110	4	4	2	I	1	0	1064	1	Ⴐ	cut_h_stereo_44KHz.wav
2	111	3	3	2	I	1	0	1338	0	Ⴏ	cut_l_stereo_44KHz.wav
2	112	2	2	1	C	2	1	939	1	Ⴌ	cut_g_stereo_44KHz.wav
2	113	3	3	2	I	1	0	904	1	Ⴏ	cut_l_stereo_44KHz.wav
2	114	1	1	1	C	2	1	989	1	Ⴖ	cut_w_stereo_44KHz.wav
2	115	2	1	0	C	1	1	1140	1	Ⴌ	cut_w_stereo_44KHz.wav
2	116	4	3	2	I	1	0	936	0	Ⴐ	cut_l_stereo_44KHz.wav
2	117	1	2	0	C	1	1	715	1	Ⴖ	cut_g_stereo_44KHz.wav
2	118	2	2	1	C	2	1	957	1	Ⴌ	cut_g_stereo_44KHz.wav
2	119	3	4	2	I	1	0	1200	0	Ⴏ	cut_h_stereo_44KHz.wav
2	120	4	4	2	I	2	0	998	0	Ⴐ	cut_h_stereo_44KHz.wav
2	121	1	1	1	C	2	1	1284	1	Ⴖ	cut_w_stereo_44KHz.wav
2	122	2	1	0	C	2	0	660	0	Ⴌ	cut_w_stereo_44KHz.wav
2	123	3	4	2	I	1	0	938	0	Ⴏ	cut_h_stereo_44KHz.wav
2	124	4	4	2	I	2	0	599	1	Ⴐ	cut_h_stereo_44KHz.wav
2	125	3	3	2	I	1	0	1056	1	Ⴏ	cut_l_stereo_44KHz.wav
2	126	4	3	2	I	1	0	819	1	Ⴐ	cut_l_stereo_44KHz.wav
2	127	2	2	1	C	2	1	1289	1	Ⴌ	cut_g_stereo_44KHz.wav
2	128	1	2	0	C	1	1	898	1	Ⴖ	cut_g_stereo_44KHz.wav
2	129	3	4	2	I	1	0	1149	1	Ⴏ	cut_h_stereo_44KHz.wav
2	130	2	2	1	C	2	1	1028	1	Ⴌ	cut_g_stereo_44KHz.wav
2	131	4	3	2	I	1	0	1295	1	Ⴐ	cut_l_stereo_44KHz.wav
2	132	1	2	0	C	1	1	1622	1	Ⴖ	cut_g_stereo_44KHz.wav
2	133	2	1	0	C	1	1	1249	1	Ⴌ	cut_w_stereo_44KHz.wav
2	134	1	1	1	C	2	1	924	1	Ⴖ	cut_w_stereo_44KHz.wav
2	135	3	3	2	I	1	0	689	1	Ⴏ	cut_l_stereo_44KHz.wav
2	136	4	4	2	I	2	0	962	0	Ⴐ	cut_h_stereo_44KHz.wav
2	137	3	3	2	I	1	0	878	1	Ⴏ	cut_l_stereo_44KHz.wav
2	138	1	2	0	C	1	1	845	1	Ⴖ	cut_g_stereo_44KHz.wav
2	139	4	3	2	I	1	0	865	1	Ⴐ	cut_l_stereo_44KHz.wav
2	140	2	2	1	C	2	1	748	1	Ⴌ	cut_g_stereo_44KHz.wav
2	141	3	4	2	I	2	0	988	0	Ⴏ	cut_h_stereo_44KHz.wav
2	142	4	4	2	I	2	0	1157	0	Ⴐ	cut_h_stereo_44KHz.wav
2	143	1	1	1	C	2	1	775	1	Ⴖ	cut_w_stereo_44KHz.wav
2	144	2	1	0	C	2	0	881	0	Ⴌ	cut_w_stereo_44KHz.wav
2	145	3	4	2	I	1	0	1019	0	Ⴏ	cut_h_stereo_44KHz.wav
2	146	4	3	2	I	1	0	992	0	Ⴐ	cut_l_stereo_44KHz.wav
2	147	2	2	1	C	2	1	792	1	Ⴌ	cut_g_stereo_44KHz.wav
2	148	1	1	1	C	2	1	723	1	Ⴖ	cut_w_stereo_44KHz.wav
2	149	2	1	0	C	2	0	893	0	Ⴌ	cut_w_stereo_44KHz.wav
2	150	1	2	0	C	1	1	1181	1	Ⴖ	cut_g_stereo_44KHz.wav
2	151	4	4	2	I	1	0	1862	0	Ⴐ	cut_h_stereo_44KHz.wav
2	152	3	3	2	I	2	0	1282	0	Ⴏ	cut_l_stereo_44KHz.wav
2	153	1	2	0	C	1	1	727	1	Ⴖ	cut_g_stereo_44KHz.wav
2	154	2	2	1	C	2	1	1344	1	Ⴌ	cut_g_stereo_44KHz.wav
2	155	3	3	2	I	1	0	1472	0	Ⴏ	cut_l_stereo_44KHz.wav
2	156	4	3	2	I	1	0	1798	0	Ⴐ	cut_l_stereo_44KHz.wav
2	157	1	1	1	C	2	1	1104	1	Ⴖ	cut_w_stereo_44KHz.wav
2	158	2	1	0	C	1	1	1452	1	Ⴌ	cut_w_stereo_44KHz.wav
2	159	3	4	2	I	1	0	995	1	Ⴏ	cut_h_stereo_44KHz.wav
2	160	4	4	2	I	2	0	1166	0	Ⴐ	cut_h_stereo_44KHz.wav
2	161	2	1	0	C	1	1	1068	1	Ⴌ	cut_w_stereo_44KHz.wav
2	162	3	3	2	I	1	0	1664	0	Ⴏ	cut_l_stereo_44KHz.wav
2	163	1	2	0	C	1	1	645	1	Ⴖ	cut_g_stereo_44KHz.wav
2	164	4	3	2	I	1	0	1349	1	Ⴐ	cut_l_stereo_44KHz.wav
2	165	2	2	1	C	2	1	1757	1	Ⴌ	cut_g_stereo_44KHz.wav
2	166	1	1	1	C	2	1	1597	1	Ⴖ	cut_w_stereo_44KHz.wav
2	167	4	4	2	I	2	0	1443	0	Ⴐ	cut_h_stereo_44KHz.wav
2	168	3	4	2	I	1	0	946	1	Ⴏ	cut_h_stereo_44KHz.wav
2	169	1	1	1	C	2	1	1426	1	Ⴖ	cut_w_stereo_44KHz.wav
2	170	3	4	2	I	1	0	1120	1	Ⴏ	cut_h_stereo_44KHz.wav
2	171	4	3	2	I	1	0	1383	0	Ⴐ	cut_l_stereo_44KHz.wav
2	172	2	1	0	C	2	0	1393	0	Ⴌ	cut_w_stereo_44KHz.wav
2	173	3	3	2	I	0	0	0	0	Ⴏ	cut_l_stereo_44KHz.wav
2	174	2	2	1	C	2	1	1363	1	Ⴌ	cut_g_stereo_44KHz.wav
2	175	1	2	0	C	1	1	947	1	Ⴖ	cut_g_stereo_44KHz.wav
2	176	4	4	2	I	0	0	0	0	Ⴐ	cut_h_stereo_44KHz.wav
2	177	1	2	0	C	1	1	669	1	Ⴖ	cut_g_stereo_44KHz.wav
2	178	3	3	2	I	2	0	1157	1	Ⴏ	cut_l_stereo_44KHz.wav
2	179	2	2	1	C	2	1	1190	1	Ⴌ	cut_g_stereo_44KHz.wav
2	180	4	3	2	I	1	0	1167	0	Ⴐ	cut_l_stereo_44KHz.wav
2	181	3	4	2	I	1	0	903	0	Ⴏ	cut_h_stereo_44KHz.wav
2	182	2	1	0	C	2	0	1294	0	Ⴌ	cut_w_stereo_44KHz.wav
2	183	1	1	1	C	2	1	735	1	Ⴖ	cut_w_stereo_44KHz.wav
2	184	4	4	2	I	2	0	1358	0	Ⴐ	cut_h_stereo_44KHz.wav
2	185	3	3	2	I	2	0	1812	0	Ⴏ	cut_l_stereo_44KHz.wav
2	186	1	1	1	C	2	1	1155	1	Ⴖ	cut_w_stereo_44KHz.wav
2	187	4	3	2	I	1	0	1432	1	Ⴐ	cut_l_stereo_44KHz.wav
2	188	2	2	1	C	2	1	1286	1	Ⴌ	cut_g_stereo_44KHz.wav
2	189	1	2	0	C	1	1	1405	1	Ⴖ	cut_g_stereo_44KHz.wav
2	190	4	4	2	I	2	0	1272	1	Ⴐ	cut_h_stereo_44KHz.wav
2	191	3	4	2	I	1	0	1456	0	Ⴏ	cut_h_stereo_44KHz.wav
2	192	2	1	0	C	2	0	979	0	Ⴌ	cut_w_stereo_44KHz.wav
2	193	4	3	2	I	1	0	1312	0	Ⴐ	cut_l_stereo_44KHz.wav
2	194	2	2	1	C	2	1	1018	1	Ⴌ	cut_g_stereo_44KHz.wav
2	195	3	4	2	I	1	0	1020	1	Ⴏ	cut_h_stereo_44KHz.wav
2	196	1	1	1	C	2	1	995	1	Ⴖ	cut_w_stereo_44KHz.wav
2	197	3	3	2	I	1	0	1116	0	Ⴏ	cut_l_stereo_44KHz.wav
2	198	2	1	0	C	2	0	1549	0	Ⴌ	cut_w_stereo_44KHz.wav
2	199	4	4	2	I	2	0	1414	1	Ⴐ	cut_h_stereo_44KHz.wav
2	200	1	2	0	C	1	1	943	1	Ⴖ	cut_g_stereo_44KHz.wav
3	1	2	2	1	C	1	0	903	0	Ⴟ	cut_a_stereo_44KHz.wav
3	2	4	3	2	I	1	0	530	0	Ⴜ	cut_k_stereo_44KHz.wav
3	3	1	1	1	C	1	0	518	0	Ⴇ	cut_o_stereo_44KHz.wav
3	4	3	3	2	I	1	0	442	1	Ⴃ	cut_k_stereo_44KHz.wav
3	5	4	4	2	I	1	0	380	0	Ⴜ	cut_u_stereo_44KHz.wav
3	6	1	2	0	C	1	1	474	1	Ⴇ	cut_a_stereo_44KHz.wav
3	7	2	1	0	C	1	1	487	1	Ⴟ	cut_o_stereo_44KHz.wav
3	8	3	4	2	I	1	0	414	1	Ⴃ	cut_u_stereo_44KHz.wav
3	9	1	1	1	C	2	1	1429	1	Ⴇ	cut_o_stereo_44KHz.wav
3	10	4	3	2	I	2	0	874	0	Ⴜ	cut_k_stereo_44KHz.wav
3	11	2	1	0	C	1	1	674	1	Ⴟ	cut_o_stereo_44KHz.wav
3	12	3	3	2	I	1	0	890	0	Ⴃ	cut_k_stereo_44KHz.wav
3	13	4	4	2	I	2	0	698	1	Ⴜ	cut_u_stereo_44KHz.wav
3	14	2	2	1	C	1	0	1117	0	Ⴟ	cut_a_stereo_44KHz.wav
3	15	1	2	0	C	1	1	833	1	Ⴇ	cut_a_stereo_44KHz.wav
3	16	3	4	2	I	1	0	537	0	Ⴃ	cut_u_stereo_44KHz.wav
3	17	1	2	0	C	1	1	550	1	Ⴇ	cut_a_stereo_44KHz.wav
3	18	2	1	0	C	1	1	720	1	Ⴟ	cut_o_stereo_44KHz.wav
3	19	3	3	2	I	2	0	1681	1	Ⴃ	cut_k_stereo_44KHz.wav
3	20	4	3	2	I	1	0	803	0	Ⴜ	cut_k_stereo_44KHz.wav
3	21	1	1	1	C	1	0	557	0	Ⴇ	cut_o_stereo_44KHz.wav
3	22	4	4	2	I	1	0	976	0	Ⴜ	cut_u_stereo_44KHz.wav
3	23	3	4	2	I	1	0	598	0	Ⴃ	cut_u_stereo_44KHz.wav
3	24	2	2	1	C	2	1	1178	1	Ⴟ	cut_a_stereo_44KHz.wav
3	25	3	4	2	I	1	0	993	0	Ⴃ	cut_u_stereo_44KHz.wav
3	26	1	1	1	C	2	1	1386	1	Ⴇ	cut_o_stereo_44KHz.wav
3	27	4	3	2	I	1	0	1011	0	Ⴜ	cut_k_stereo_44KHz.wav
3	28	2	1	0	C	1	1	1143	1	Ⴟ	cut_o_stereo_44KHz.wav
3	29	4	4	2	I	1	0	1124	0	Ⴜ	cut_u_stereo_44KHz.wav
3	30	2	2	1	C	2	1	1536	1	Ⴟ	cut_a_stereo_44KHz.wav
3	31	1	2	0	C	1	1	941	1	Ⴇ	cut_a_stereo_44KHz.wav
3	32	3	3	2	I	2	0	1336	0	Ⴃ	cut_k_stereo_44KHz.wav
3	33	1	1	1	C	2	1	1522	1	Ⴇ	cut_o_stereo_44KHz.wav
3	34	4	4	2	I	1	0	1301	0	Ⴜ	cut_u_stereo_44KHz.wav
3	35	2	2	1	C	2	1	897	1	Ⴟ	cut_a_stereo_44KHz.wav
3	36	3	3	2	I	1	0	985	1	Ⴃ	cut_k_stereo_44KHz.wav
3	37	2	1	0	C	1	1	1381	1	Ⴟ	cut_o_stereo_44KHz.wav
3	38	4	3	2	I	2	0	751	0	Ⴜ	cut_k_stereo_44KHz.wav
3	39	3	4	2	I	1	0	766	0	Ⴃ	cut_u_stereo_44KHz.wav
3	40	1	2	0	C	1	1	899	1	Ⴇ	cut_a_stereo_44KHz.wav
3	41	3	4	2	I	1	0	927	1	Ⴃ	cut_u_stereo_44KHz.wav
3	42	1	2	0	C	1	1	644	1	Ⴇ	cut_a_stereo_44KHz.wav
3	43	4	4	2	I	2	0	639	0	Ⴜ	cut_u_stereo_44KHz.wav
3	44	2	1	0	C	1	1	764	1	Ⴟ	cut_o_stereo_44KHz.wav
3	45	1	1	1	C	2	1	896	1	Ⴇ	cut_o_stereo_44KHz.wav
3	46	2	2	1	C	2	1	1027	1	Ⴟ	cut_a_stereo_44KHz.wav
3	47	3	3	2	I	1	0	996	0	Ⴃ	cut_k_stereo_44KHz.wav
3	48	4	3	2	I	1	0	1020	1	Ⴜ	cut_k_stereo_44KHz.wav
3	49	3	4	2	I	1	0	1029	1	Ⴃ	cut_u_stereo_44KHz.wav
3	50	2	2	1	C	2	1	1136	1	Ⴟ	cut_a_stereo_44KHz.wav
3	51	1	2	0	C	1	1	744	1	Ⴇ	cut_a_stereo_44KHz.wav
3	52	4	3	2	I	1	0	1142	1	Ⴜ	cut_k_stereo_44KHz.wav
3	53	2	1	0	C	1	1	1067	1	Ⴟ	cut_o_stereo_44KHz.wav
3	54	3	3	2	I	2	0	1317	0	Ⴃ	cut_k_stereo_44KHz.wav
3	55	1	1	1	C	2	1	1182	1	Ⴇ	cut_o_stereo_44KHz.wav
3	56	4	4	2	I	1	0	744	1	Ⴜ	cut_u_stereo_44KHz.wav
3	57	3	3	2	I	1	0	1465	1	Ⴃ	cut_k_stereo_44KHz.wav
3	58	1	1	1	C	2	1	1420	1	Ⴇ	cut_o_stereo_44KHz.wav
3	59	2	1	0	C	2	0	1571	0	Ⴟ	cut_o_stereo_44KHz.wav
3	60	4	4	2	I	2	0	1007	0	Ⴜ	cut_u_stereo_44KHz.wav
3	61	1	2	0	C	1	1	928	1	Ⴇ	cut_a_stereo_44KHz.wav
3	62	2	2	1	C	2	1	788	1	Ⴟ	cut_a_stereo_44KHz.wav
3	63	4	3	2	I	1	0	832	1	Ⴜ	cut_k_stereo_44KHz.wav
3	64	3	4	2	I	1	0	712	0	Ⴃ	cut_u_stereo_44KHz.wav
3	65	1	1	1	C	1	0	748	0	Ⴇ	cut_o_stereo_44KHz.wav
3	66	2	2	1	C	2	1	1030	1	Ⴟ	cut_a_stereo_44KHz.wav
3	67	3	3	2	I	1	0	790	1	Ⴃ	cut_k_stereo_44KHz.wav
3	68	4	4	2	I	2	0	951	0	Ⴜ	cut_u_stereo_44KHz.wav
3	69	2	1	0	C	1	1	958	1	Ⴟ	cut_o_stereo_44KHz.wav
3	70	3	4	2	I	1	0	1046	0	Ⴃ	cut_u_stereo_44KHz.wav
3	71	1	2	0	C	1	1	1004	1	Ⴇ	cut_a_stereo_44KHz.wav
3	72	4	3	2	I	1	0	842	0	Ⴜ	cut_k_stereo_44KHz.wav
3	73	3	3	2	I	1	0	950	0	Ⴃ	cut_k_stereo_44KHz.wav
3	74	2	1	0	C	0	0	0	0	Ⴟ	cut_o_stereo_44KHz.wav
3	75	1	1	1	C	2	1	1019	1	Ⴇ	cut_o_stereo_44KHz.wav
3	76	4	3	2	I	1	0	766	1	Ⴜ	cut_k_stereo_44KHz.wav
3	77	2	2	1	C	2	1	1033	1	Ⴟ	cut_a_stereo_44KHz.wav
3	78	3	4	2	I	1	0	1273	0	Ⴃ	cut_u_stereo_44KHz.wav
3	79	4	4	2	I	1	0	1217	0	Ⴜ	cut_u_stereo_44KHz.wav
3	80	1	2	0	C	1	1	843	1	Ⴇ	cut_a_stereo_44KHz.wav
3	81	2	1	0	C	1	1	1245	1	Ⴟ	cut_o_stereo_44KHz.wav
3	82	3	3	2	I	1	0	1001	0	Ⴃ	cut_k_stereo_44KHz.wav
3	83	1	1	1	C	2	1	994	1	Ⴇ	cut_o_stereo_44KHz.wav
3	84	4	3	2	I	1	0	1150	1	Ⴜ	cut_k_stereo_44KHz.wav
3	85	2	2	1	C	2	1	1012	1	Ⴟ	cut_a_stereo_44KHz.wav
3	86	4	4	2	I	2	0	894	1	Ⴜ	cut_u_stereo_44KHz.wav
3	87	3	4	2	I	1	0	948	1	Ⴃ	cut_u_stereo_44KHz.wav
3	88	1	2	0	C	1	1	1015	1	Ⴇ	cut_a_stereo_44KHz.wav
3	89	4	3	2	I	1	0	795	1	Ⴜ	cut_k_stereo_44KHz.wav
3	90	3	4	2	I	1	0	1283	0	Ⴃ	cut_u_stereo_44KHz.wav
3	91	2	1	0	C	1	1	976	1	Ⴟ	cut_o_stereo_44KHz.wav
3	92	1	1	1	C	2	1	1395	1	Ⴇ	cut_o_stereo_44KHz.wav
3	93	4	4	2	I	2	0	1208	0	Ⴜ	cut_u_stereo_44KHz.wav
3	94	3	3	2	I	1	0	935	0	Ⴃ	cut_k_stereo_44KHz.wav
3	95	1	2	0	C	1	1	774	1	Ⴇ	cut_a_stereo_44KHz.wav
3	96	2	2	1	C	2	1	791	1	Ⴟ	cut_a_stereo_44KHz.wav
3	97	4	4	2	I	2	0	1244	0	Ⴜ	cut_u_stereo_44KHz.wav
3	98	1	1	1	C	2	1	1193	1	Ⴇ	cut_o_stereo_44KHz.wav
3	99	3	3	2	I	1	0	795	1	Ⴃ	cut_k_stereo_44KHz.wav
3	100	2	2	1	C	2	1	836	1	Ⴟ	cut_a_stereo_44KHz.wav
3	101	4	3	2	I	1	0	1184	0	Ⴜ	cut_k_stereo_44KHz.wav
3	102	1	2	0	C	1	1	1341	1	Ⴇ	cut_a_stereo_44KHz.wav
3	103	2	1	0	C	1	1	1088	1	Ⴟ	cut_o_stereo_44KHz.wav
3	104	3	4	2	I	1	0	1133	1	Ⴃ	cut_u_stereo_44KHz.wav
3	105	1	1	1	C	2	1	864	1	Ⴇ	cut_o_stereo_44KHz.wav
3	106	3	3	2	I	2	0	1387	1	Ⴃ	cut_k_stereo_44KHz.wav
3	107	4	3	2	I	1	0	878	1	Ⴜ	cut_k_stereo_44KHz.wav
3	108	2	2	1	C	2	1	991	1	Ⴟ	cut_a_stereo_44KHz.wav
3	109	4	4	2	I	2	0	804	1	Ⴜ	cut_u_stereo_44KHz.wav
3	110	2	1	0	C	1	1	998	1	Ⴟ	cut_o_stereo_44KHz.wav
3	111	1	2	0	C	1	1	815	1	Ⴇ	cut_a_stereo_44KHz.wav
3	112	3	4	2	I	2	0	1398	1	Ⴃ	cut_u_stereo_44KHz.wav
3	113	2	1	0	C	1	1	747	1	Ⴟ	cut_o_stereo_44KHz.wav
3	114	4	3	2	I	1	0	1012	1	Ⴜ	cut_k_stereo_44KHz.wav
3	115	1	2	0	C	1	1	1391	1	Ⴇ	cut_a_stereo_44KHz.wav
3	116	3	4	2	I	1	0	1133	1	Ⴃ	cut_u_stereo_44KHz.wav
3	117	2	2	1	C	2	1	1364	1	Ⴟ	cut_a_stereo_44KHz.wav
3	118	1	1	1	C	2	1	1533	1	Ⴇ	cut_o_stereo_44KHz.wav
3	119	4	4	2	I	2	0	1119	1	Ⴜ	cut_u_stereo_44KHz.wav
3	120	3	3	2	I	2	0	1014	0	Ⴃ	cut_k_stereo_44KHz.wav
3	121	2	1	0	C	2	0	1390	0	Ⴟ	cut_o_stereo_44KHz.wav
3	122	3	4	2	I	1	0	1837	0	Ⴃ	cut_u_stereo_44KHz.wav
3	123	1	2	0	C	1	1	1447	1	Ⴇ	cut_a_stereo_44KHz.wav
3	124	4	4	2	I	2	0	1057	0	Ⴜ	cut_u_stereo_44KHz.wav
3	125	1	1	1	C	2	1	1140	1	Ⴇ	cut_o_stereo_44KHz.wav
3	126	3	3	2	I	1	0	1010	1	Ⴃ	cut_k_stereo_44KHz.wav
3	127	2	2	1	C	2	1	976	1	Ⴟ	cut_a_stereo_44KHz.wav
3	128	4	3	2	I	2	0	853	0	Ⴜ	cut_k_stereo_44KHz.wav
3	129	2	1	0	C	1	1	1183	1	Ⴟ	cut_o_stereo_44KHz.wav
3	130	4	4	2	I	2	0	1204	1	Ⴜ	cut_u_stereo_44KHz.wav
3	131	3	4	2	I	1	0	830	1	Ⴃ	cut_u_stereo_44KHz.wav
3	132	1	1	1	C	2	1	1660	1	Ⴇ	cut_o_stereo_44KHz.wav
3	133	4	3	2	I	1	0	1211	1	Ⴜ	cut_k_stereo_44KHz.wav
3	134	3	3	2	I	1	0	1233	1	Ⴃ	cut_k_stereo_44KHz.wav
3	135	1	2	0	C	1	1	1201	1	Ⴇ	cut_a_stereo_44KHz.wav
3	136	2	2	1	C	2	1	1164	1	Ⴟ	cut_a_stereo_44KHz.wav
3	137	1	2	0	C	1	1	636	1	Ⴇ	cut_a_stereo_44KHz.wav
3	138	3	3	2	I	1	0	976	1	Ⴃ	cut_k_stereo_44KHz.wav
3	139	2	1	0	C	1	1	1628	1	Ⴟ	cut_o_stereo_44KHz.wav
3	140	4	4	2	I	0	0	0	0	Ⴜ	cut_u_stereo_44KHz.wav
3	141	3	4	2	I	2	0	1234	0	Ⴃ	cut_u_stereo_44KHz.wav
3	142	4	3	2	I	1	0	945	0	Ⴜ	cut_k_stereo_44KHz.wav
3	143	1	1	1	C	2	1	842	1	Ⴇ	cut_o_stereo_44KHz.wav
3	144	2	2	1	C	2	1	978	1	Ⴟ	cut_a_stereo_44KHz.wav
3	145	4	4	2	I	2	0	1017	0	Ⴜ	cut_u_stereo_44KHz.wav
3	146	3	3	2	I	1	0	819	1	Ⴃ	cut_k_stereo_44KHz.wav
3	147	2	2	1	C	2	1	994	1	Ⴟ	cut_a_stereo_44KHz.wav
3	148	1	1	1	C	2	1	1138	1	Ⴇ	cut_o_stereo_44KHz.wav
3	149	2	1	0	C	1	1	1934	1	Ⴟ	cut_o_stereo_44KHz.wav
3	150	4	3	2	I	1	0	947	0	Ⴜ	cut_k_stereo_44KHz.wav
3	151	3	4	2	I	1	0	1102	1	Ⴃ	cut_u_stereo_44KHz.wav
3	152	1	2	0	C	1	1	1303	1	Ⴇ	cut_a_stereo_44KHz.wav
3	153	2	2	1	C	2	1	1035	1	Ⴟ	cut_a_stereo_44KHz.wav
3	154	3	3	2	I	1	0	1294	1	Ⴃ	cut_k_stereo_44KHz.wav
3	155	1	2	0	C	1	1	831	1	Ⴇ	cut_a_stereo_44KHz.wav
3	156	4	4	2	I	2	0	1739	1	Ⴜ	cut_u_stereo_44KHz.wav
3	157	1	1	1	C	2	1	1035	1	Ⴇ	cut_o_stereo_44KHz.wav
3	158	2	1	0	C	2	0	1897	0	Ⴟ	cut_o_stereo_44KHz.wav
3	159	4	3	2	I	1	0	1269	1	Ⴜ	cut_k_stereo_44KHz.wav
3	160	3	4	2	I	1	0	1004	0	Ⴃ	cut_u_stereo_44KHz.wav
3	161	2	1	0	C	1	1	817	1	Ⴟ	cut_o_stereo_44KHz.wav
3	162	1	1	1	C	1	0	1055	0	Ⴇ	cut_o_stereo_44KHz.wav
3	163	4	4	2	I	1	0	1330	1	Ⴜ	cut_u_stereo_44KHz.wav
3	164	3	3	2	I	1	0	789	0	Ⴃ	cut_k_stereo_44KHz.wav
3	165	4	3	2	I	1	0	743	0	Ⴜ	cut_k_stereo_44KHz.wav
3	166	3	4	2	I	1	0	765	1	Ⴃ	cut_u_stereo_44KHz.wav
3	167	1	2	0	C	1	1	768	1	Ⴇ	cut_a_stereo_44KHz.wav
3	168	2	2	1	C	2	1	794	1	Ⴟ	cut_a_stereo_44KHz.wav
3	169	3	4	2	I	1	0	1518	0	Ⴃ	cut_u_stereo_44KHz.wav
3	170	2	2	1	C	2	1	1079	1	Ⴟ	cut_a_stereo_44KHz.wav
3	171	1	1	1	C	2	1	1173	1	Ⴇ	cut_o_stereo_44KHz.wav
3	172	4	4	2	I	1	0	852	1	Ⴜ	cut_u_stereo_44KHz.wav
3	173	3	3	2	I	1	0	851	0	Ⴃ	cut_k_stereo_44KHz.wav
3	174	4	3	2	I	1	0	1498	1	Ⴜ	cut_k_stereo_44KHz.wav
3	175	2	1	0	C	1	1	1667	1	Ⴟ	cut_o_stereo_44KHz.wav
3	176	1	2	0	C	1	1	799	1	Ⴇ	cut_a_stereo_44KHz.wav
3	177	3	4	2	I	1	0	1034	1	Ⴃ	cut_u_stereo_44KHz.wav
3	178	4	3	2	I	1	0	865	1	Ⴜ	cut_k_stereo_44KHz.wav
3	179	2	2	1	C	2	1	1928	1	Ⴟ	cut_a_stereo_44KHz.wav
3	180	1	2	0	C	1	1	671	1	Ⴇ	cut_a_stereo_44KHz.wav
3	181	2	1	0	C	0	0	0	0	Ⴟ	cut_o_stereo_44KHz.wav
3	182	4	4	2	I	2	0	934	1	Ⴜ	cut_u_stereo_44KHz.wav
3	183	3	3	2	I	1	0	1312	0	Ⴃ	cut_k_stereo_44KHz.wav
3	184	1	1	1	C	2	1	781	1	Ⴇ	cut_o_stereo_44KHz.wav
3	185	2	2	1	C	2	1	941	1	Ⴟ	cut_a_stereo_44KHz.wav
3	186	3	3	2	I	1	0	788	1	Ⴃ	cut_k_stereo_44KHz.wav
3	187	4	3	2	I	2	0	835	0	Ⴜ	cut_k_stereo_44KHz.wav
3	188	1	1	1	C	2	1	1714	1	Ⴇ	cut_o_stereo_44KHz.wav
3	189	2	1	0	C	1	1	505	1	Ⴟ	cut_o_stereo_44KHz.wav
3	190	1	2	0	C	1	1	1351	1	Ⴇ	cut_a_stereo_44KHz.wav
3	191	3	4	2	I	2	0	1147	1	Ⴃ	cut_u_stereo_44KHz.wav
3	192	4	4	2	I	1	0	930	1	Ⴜ	cut_u_stereo_44KHz.wav
3	193	3	4	2	I	2	0	744	0	Ⴃ	cut_u_stereo_44KHz.wav
3	194	2	1	0	C	1	1	939	1	Ⴟ	cut_o_stereo_44KHz.wav
3	195	4	3	2	I	1	0	1270	1	Ⴜ	cut_k_stereo_44KHz.wav
3	196	1	1	1	C	2	1	1138	1	Ⴇ	cut_o_stereo_44KHz.wav
3	197	4	4	2	I	2	0	1512	1	Ⴜ	cut_u_stereo_44KHz.wav
3	198	1	2	0	C	2	0	973	0	Ⴇ	cut_a_stereo_44KHz.wav
3	199	2	2	1	C	2	1	854	1	Ⴟ	cut_a_stereo_44KHz.wav
3	200	3	3	2	I	0	0	0	0	Ⴃ	cut_k_stereo_44KHz.wav
4	1	1	2	0	C	2	0	1236	0	Ⴊ	cut_r_stereo_44KHz.wav
4	2	2	1	0	C	1	1	1074	1	Ⴂ	cut_ei_stereo_44KHz.wav
4	3	3	3	2	I	2	0	717	1	Ⴁ	cut_ui_stereo_44KHz.wav
4	4	4	4	2	I	1	0	964	1	Ⴡ	cut_n_stereo_44KHz.wav
4	5	3	4	2	I	2	0	913	1	Ⴁ	cut_n_stereo_44KHz.wav
4	6	1	1	1	C	1	0	733	0	Ⴊ	cut_ei_stereo_44KHz.wav
4	7	4	3	2	I	2	0	876	1	Ⴡ	cut_ui_stereo_44KHz.wav
4	8	2	2	1	C	1	0	883	0	Ⴂ	cut_r_stereo_44KHz.wav
4	9	4	3	2	I	1	0	1023	0	Ⴡ	cut_ui_stereo_44KHz.wav
4	10	1	2	0	C	1	1	744	1	Ⴊ	cut_r_stereo_44KHz.wav
4	11	3	3	2	I	1	0	768	0	Ⴁ	cut_ui_stereo_44KHz.wav
4	12	2	1	0	C	1	1	879	1	Ⴂ	cut_ei_stereo_44KHz.wav
4	13	1	1	1	C	2	1	922	1	Ⴊ	cut_ei_stereo_44KHz.wav
4	14	2	2	1	C	2	1	861	1	Ⴂ	cut_r_stereo_44KHz.wav
4	15	3	4	2	I	1	0	926	0	Ⴁ	cut_n_stereo_44KHz.wav
4	16	4	4	2	I	1	0	655	0	Ⴡ	cut_n_stereo_44KHz.wav
4	17	3	3	2	I	1	0	754	1	Ⴁ	cut_ui_stereo_44KHz.wav
4	18	1	2	0	C	1	1	862	1	Ⴊ	cut_r_stereo_44KHz.wav
4	19	2	1	0	C	1	1	867	1	Ⴂ	cut_ei_stereo_44KHz.wav
4	20	4	4	2	I	1	0	735	1	Ⴡ	cut_n_stereo_44KHz.wav
4	21	3	4	2	I	2	0	678	1	Ⴁ	cut_n_stereo_44KHz.wav
4	22	2	2	1	C	2	1	857	1	Ⴂ	cut_r_stereo_44KHz.wav
4	23	1	1	1	C	2	1	803	1	Ⴊ	cut_ei_stereo_44KHz.wav
4	24	4	3	2	I	1	0	831	1	Ⴡ	cut_ui_stereo_44KHz.wav
4	25	3	4	2	I	2	0	714	0	Ⴁ	cut_n_stereo_44KHz.wav
4	26	4	3	2	I	2	0	768	1	Ⴡ	cut_ui_stereo_44KHz.wav
4	27	2	1	0	C	1	1	1155	1	Ⴂ	cut_ei_stereo_44KHz.wav
4	28	1	1	1	C	2	1	784	1	Ⴊ	cut_ei_stereo_44KHz.wav
4	29	3	3	2	I	2	0	916	1	Ⴁ	cut_ui_stereo_44KHz.wav
4	30	2	2	1	C	2	1	888	1	Ⴂ	cut_r_stereo_44KHz.wav
4	31	4	4	2	I	1	0	795	0	Ⴡ	cut_n_stereo_44KHz.wav
4	32	1	2	0	C	1	1	992	1	Ⴊ	cut_r_stereo_44KHz.wav
4	33	3	3	2	I	2	0	791	0	Ⴁ	cut_ui_stereo_44KHz.wav
4	34	1	1	1	C	2	1	729	1	Ⴊ	cut_ei_stereo_44KHz.wav
4	35	2	2	1	C	2	1	919	1	Ⴂ	cut_r_stereo_44KHz.wav
4	36	4	4	2	I	1	0	773	0	Ⴡ	cut_n_stereo_44KHz.wav
4	37	1	2	0	C	1	1	809	1	Ⴊ	cut_r_stereo_44KHz.wav
4	38	4	3	2	I	1	0	788	1	Ⴡ	cut_ui_stereo_44KHz.wav
4	39	2	1	0	C	1	1	851	1	Ⴂ	cut_ei_stereo_44KHz.wav
4	40	3	4	2	I	2	0	1005	1	Ⴁ	cut_n_stereo_44KHz.wav
4	41	2	1	0	C	1	1	997	1	Ⴂ	cut_ei_stereo_44KHz.wav
4	42	4	4	2	I	1	0	967	1	Ⴡ	cut_n_stereo_44KHz.wav
4	43	3	3	2	I	2	0	821	0	Ⴁ	cut_ui_stereo_44KHz.wav
4	44	1	2	0	C	1	1	903	1	Ⴊ	cut_r_stereo_44KHz.wav
4	45	2	2	1	C	1	0	723	0	Ⴂ	cut_r_stereo_44KHz.wav
4	46	1	1	1	C	2	1	958	1	Ⴊ	cut_ei_stereo_44KHz.wav
4	47	4	3	2	I	1	0	913	0	Ⴡ	cut_ui_stereo_44KHz.wav
4	48	3	4	2	I	2	0	859	1	Ⴁ	cut_n_stereo_44KHz.wav
4	49	2	2	1	C	2	1	1081	1	Ⴂ	cut_r_stereo_44KHz.wav
4	50	4	4	2	I	1	0	865	1	Ⴡ	cut_n_stereo_44KHz.wav
4	51	3	4	2	I	2	0	787	0	Ⴁ	cut_n_stereo_44KHz.wav
4	52	1	1	1	C	2	1	728	1	Ⴊ	cut_ei_stereo_44KHz.wav
4	53	2	1	0	C	2	0	962	0	Ⴂ	cut_ei_stereo_44KHz.wav
4	54	3	3	2	I	2	0	798	0	Ⴁ	cut_ui_stereo_44KHz.wav
4	55	4	3	2	I	2	0	1418	0	Ⴡ	cut_ui_stereo_44KHz.wav
4	56	1	2	0	C	1	1	1018	1	Ⴊ	cut_r_stereo_44KHz.wav
4	57	2	2	1	C	2	1	843	1	Ⴂ	cut_r_stereo_44KHz.wav
4	58	1	1	1	C	2	1	1211	1	Ⴊ	cut_ei_stereo_44KHz.wav
4	59	3	4	2	I	1	0	930	1	Ⴁ	cut_n_stereo_44KHz.wav
4	60	4	3	2	I	1	0	1167	0	Ⴡ	cut_ui_stereo_44KHz.wav
4	61	2	1	0	C	1	1	1621	1	Ⴂ	cut_ei_stereo_44KHz.wav
4	62	4	4	2	I	1	0	1064	1	Ⴡ	cut_n_stereo_44KHz.wav
4	63	1	2	0	C	2	0	992	0	Ⴊ	cut_r_stereo_44KHz.wav
4	64	3	3	2	I	2	0	825	1	Ⴁ	cut_ui_stereo_44KHz.wav
4	65	4	3	2	I	2	0	974	1	Ⴡ	cut_ui_stereo_44KHz.wav
4	66	2	2	1	C	2	1	892	1	Ⴂ	cut_r_stereo_44KHz.wav
4	67	1	2	0	C	1	1	835	1	Ⴊ	cut_r_stereo_44KHz.wav
4	68	3	4	2	I	1	0	941	0	Ⴁ	cut_n_stereo_44KHz.wav
4	69	2	1	0	C	1	1	1328	1	Ⴂ	cut_ei_stereo_44KHz.wav
4	70	1	1	1	C	2	1	755	1	Ⴊ	cut_ei_stereo_44KHz.wav
4	71	4	4	2	I	1	0	802	0	Ⴡ	cut_n_stereo_44KHz.wav
4	72	3	3	2	I	2	0	1025	0	Ⴁ	cut_ui_stereo_44KHz.wav
4	73	2	2	1	C	2	1	820	1	Ⴂ	cut_r_stereo_44KHz.wav
4	74	1	1	1	C	2	1	838	1	Ⴊ	cut_ei_stereo_44KHz.wav
4	75	4	3	2	I	1	0	697	1	Ⴡ	cut_ui_stereo_44KHz.wav
4	76	3	4	2	I	2	0	1165	1	Ⴁ	cut_n_stereo_44KHz.wav
4	77	4	4	2	I	1	0	930	1	Ⴡ	cut_n_stereo_44KHz.wav
4	78	1	2	0	C	1	1	710	1	Ⴊ	cut_r_stereo_44KHz.wav
4	79	3	3	2	I	1	0	1011	1	Ⴁ	cut_ui_stereo_44KHz.wav
4	80	2	1	0	C	1	1	1507	1	Ⴂ	cut_ei_stereo_44KHz.wav
4	81	1	1	1	C	2	1	782	1	Ⴊ	cut_ei_stereo_44KHz.wav
4	82	4	4	2	I	1	0	892	1	Ⴡ	cut_n_stereo_44KHz.wav
4	83	2	1	0	C	1	1	1109	1	Ⴂ	cut_ei_stereo_44KHz.wav
4	84	3	3	2	I	1	0	1606	1	Ⴁ	cut_ui_stereo_44KHz.wav
4	85	4	3	2	I	1	0	655	1	Ⴡ	cut_ui_stereo_44KHz.wav
4	86	1	2	0	C	1	1	1014	1	Ⴊ	cut_r_stereo_44KHz.wav
4	87	3	4	2	I	2	0	1469	1	Ⴁ	cut_n_stereo_44KHz.wav
4	88	2	2	1	C	1	0	1045	0	Ⴂ	cut_r_stereo_44KHz.wav
4	89	3	3	2	I	1	0	1348	0	Ⴁ	cut_ui_stereo_44KHz.wav
4	90	1	2	0	C	1	1	917	1	Ⴊ	cut_r_stereo_44KHz.wav
4	91	2	1	0	C	1	1	1231	1	Ⴂ	cut_ei_stereo_44KHz.wav
4	92	4	4	2	I	1	0	692	0	Ⴡ	cut_n_stereo_44KHz.wav
4	93	2	2	1	C	2	1	1229	1	Ⴂ	cut_r_stereo_44KHz.wav
4	94	1	1	1	C	2	1	768	1	Ⴊ	cut_ei_stereo_44KHz.wav
4	95	4	3	2	I	1	0	711	0	Ⴡ	cut_ui_stereo_44KHz.wav
4	96	3	4	2	I	2	0	1251	1	Ⴁ	cut_n_stereo_44KHz.wav
4	97	1	2	0	C	1	1	839	1	Ⴊ	cut_r_stereo_44KHz.wav
4	98	2	1	0	C	1	1	732	1	Ⴂ	cut_ei_stereo_44KHz.wav
4	99	3	3	2	I	2	0	801	1	Ⴁ	cut_ui_stereo_44KHz.wav
4	100	4	4	2	I	1	0	590	0	Ⴡ	cut_n_stereo_44KHz.wav
4	101	2	2	1	C	2	1	887	1	Ⴂ	cut_r_stereo_44KHz.wav
4	102	4	3	2	I	1	0	650	0	Ⴡ	cut_ui_stereo_44KHz.wav
4	103	1	1	1	C	2	1	898	1	Ⴊ	cut_ei_stereo_44KHz.wav
4	104	3	4	2	I	1	0	1518	1	Ⴁ	cut_n_stereo_44KHz.wav
4	105	2	1	0	C	1	1	1096	1	Ⴂ	cut_ei_stereo_44KHz.wav
4	106	1	1	1	C	2	1	1241	1	Ⴊ	cut_ei_stereo_44KHz.wav
4	107	3	4	2	I	1	0	1061	0	Ⴁ	cut_n_stereo_44KHz.wav
4	108	4	3	2	I	1	0	1837	1	Ⴡ	cut_ui_stereo_44KHz.wav
4	109	1	2	0	C	1	1	836	1	Ⴊ	cut_r_stereo_44KHz.wav
4	110	2	2	1	C	2	1	1118	1	Ⴂ	cut_r_stereo_44KHz.wav
4	111	3	3	2	I	2	0	1211	0	Ⴁ	cut_ui_stereo_44KHz.wav
4	112	4	4	2	I	1	0	1171	0	Ⴡ	cut_n_stereo_44KHz.wav
4	113	3	4	2	I	1	0	716	0	Ⴁ	cut_n_stereo_44KHz.wav
4	114	4	4	2	I	1	0	712	0	Ⴡ	cut_n_stereo_44KHz.wav
4	115	2	1	0	C	1	1	948	1	Ⴂ	cut_ei_stereo_44KHz.wav
4	116	1	2	0	C	1	1	724	1	Ⴊ	cut_r_stereo_44KHz.wav
4	117	4	3	2	I	1	0	916	0	Ⴡ	cut_ui_stereo_44KHz.wav
4	118	2	2	1	C	2	1	829	1	Ⴂ	cut_r_stereo_44KHz.wav
4	119	1	1	1	C	2	1	839	1	Ⴊ	cut_ei_stereo_44KHz.wav
4	120	3	3	2	I	1	0	1133	0	Ⴁ	cut_ui_stereo_44KHz.wav
4	121	1	2	0	C	1	1	966	1	Ⴊ	cut_r_stereo_44KHz.wav
4	122	4	4	2	I	1	0	924	1	Ⴡ	cut_n_stereo_44KHz.wav
4	123	3	4	2	I	2	0	887	0	Ⴁ	cut_n_stereo_44KHz.wav
4	124	2	1	0	C	1	1	1177	1	Ⴂ	cut_ei_stereo_44KHz.wav
4	125	3	3	2	I	1	0	1037	1	Ⴁ	cut_ui_stereo_44KHz.wav
4	126	2	2	1	C	2	1	1088	1	Ⴂ	cut_r_stereo_44KHz.wav
4	127	1	1	1	C	2	1	753	1	Ⴊ	cut_ei_stereo_44KHz.wav
4	128	4	3	2	I	1	0	953	0	Ⴡ	cut_ui_stereo_44KHz.wav
4	129	1	1	1	C	2	1	1098	1	Ⴊ	cut_ei_stereo_44KHz.wav
4	130	4	4	2	I	1	0	745	0	Ⴡ	cut_n_stereo_44KHz.wav
4	131	3	3	2	I	1	0	1149	1	Ⴁ	cut_ui_stereo_44KHz.wav
4	132	2	1	0	C	1	1	861	1	Ⴂ	cut_ei_stereo_44KHz.wav
4	133	1	2	0	C	1	1	854	1	Ⴊ	cut_r_stereo_44KHz.wav
4	134	4	3	2	I	1	0	1039	0	Ⴡ	cut_ui_stereo_44KHz.wav
4	135	2	2	1	C	2	1	762	1	Ⴂ	cut_r_stereo_44KHz.wav
4	136	3	4	2	I	2	0	1298	1	Ⴁ	cut_n_stereo_44KHz.wav
4	137	2	1	0	C	1	1	1151	1	Ⴂ	cut_ei_stereo_44KHz.wav
4	138	3	3	2	I	1	0	1784	1	Ⴁ	cut_ui_stereo_44KHz.wav
4	139	4	3	2	I	1	0	1608	1	Ⴡ	cut_ui_stereo_44KHz.wav
4	140	1	1	1	C	2	1	1185	1	Ⴊ	cut_ei_stereo_44KHz.wav
4	141	4	4	2	I	1	0	1135	0	Ⴡ	cut_n_stereo_44KHz.wav
4	142	2	2	1	C	2	1	813	1	Ⴂ	cut_r_stereo_44KHz.wav
4	143	3	4	2	I	1	0	1183	1	Ⴁ	cut_n_stereo_44KHz.wav
4	144	1	2	0	C	1	1	1172	1	Ⴊ	cut_r_stereo_44KHz.wav
4	145	3	3	2	I	0	0	0	0	Ⴁ	cut_ui_stereo_44KHz.wav
4	146	1	1	1	C	2	1	846	1	Ⴊ	cut_ei_stereo_44KHz.wav
4	147	2	2	1	C	2	1	1157	1	Ⴂ	cut_r_stereo_44KHz.wav
4	148	4	3	2	I	1	0	968	1	Ⴡ	cut_ui_stereo_44KHz.wav
4	149	1	2	0	C	1	1	783	1	Ⴊ	cut_r_stereo_44KHz.wav
4	150	3	4	2	I	2	0	991	0	Ⴁ	cut_n_stereo_44KHz.wav
4	151	4	4	2	I	1	0	844	0	Ⴡ	cut_n_stereo_44KHz.wav
4	152	2	1	0	C	2	0	879	0	Ⴂ	cut_ei_stereo_44KHz.wav
4	153	1	2	0	C	1	1	772	1	Ⴊ	cut_r_stereo_44KHz.wav
4	154	3	3	2	I	1	0	808	0	Ⴁ	cut_ui_stereo_44KHz.wav
4	155	4	3	2	I	1	0	759	0	Ⴡ	cut_ui_stereo_44KHz.wav
4	156	2	1	0	C	1	1	690	1	Ⴂ	cut_ei_stereo_44KHz.wav
4	157	3	4	2	I	2	0	1135	0	Ⴁ	cut_n_stereo_44KHz.wav
4	158	4	4	2	I	1	0	953	1	Ⴡ	cut_n_stereo_44KHz.wav
4	159	2	2	1	C	2	1	842	1	Ⴂ	cut_r_stereo_44KHz.wav
4	160	1	1	1	C	2	1	750	1	Ⴊ	cut_ei_stereo_44KHz.wav
4	161	2	1	0	C	1	1	689	1	Ⴂ	cut_ei_stereo_44KHz.wav
4	162	3	3	2	I	1	0	874	1	Ⴁ	cut_ui_stereo_44KHz.wav
4	163	1	1	1	C	2	1	715	1	Ⴊ	cut_ei_stereo_44KHz.wav
4	164	4	4	2	I	1	0	895	0	Ⴡ	cut_n_stereo_44KHz.wav
4	165	3	4	2	I	1	0	741	0	Ⴁ	cut_n_stereo_44KHz.wav
4	166	1	2	0	C	1	1	788	1	Ⴊ	cut_r_stereo_44KHz.wav
4	167	4	3	2	I	1	0	902	1	Ⴡ	cut_ui_stereo_44KHz.wav
4	168	2	2	1	C	2	1	822	1	Ⴂ	cut_r_stereo_44KHz.wav
4	169	3	3	2	I	1	0	1255	0	Ⴁ	cut_ui_stereo_44KHz.wav
4	170	2	1	0	C	2	0	1605	0	Ⴂ	cut_ei_stereo_44KHz.wav
4	171	1	2	0	C	1	1	717	1	Ⴊ	cut_r_stereo_44KHz.wav
4	172	4	3	2	I	1	0	1208	1	Ⴡ	cut_ui_stereo_44KHz.wav
4	173	2	2	1	C	2	1	986	1	Ⴂ	cut_r_stereo_44KHz.wav
4	174	3	4	2	I	1	0	1399	0	Ⴁ	cut_n_stereo_44KHz.wav
4	175	1	1	1	C	2	1	835	1	Ⴊ	cut_ei_stereo_44KHz.wav
4	176	4	4	2	I	1	0	814	0	Ⴡ	cut_n_stereo_44KHz.wav
4	177	1	1	1	C	2	1	850	1	Ⴊ	cut_ei_stereo_44KHz.wav
4	178	3	3	2	I	2	0	955	0	Ⴁ	cut_ui_stereo_44KHz.wav
4	179	2	2	1	C	2	1	913	1	Ⴂ	cut_r_stereo_44KHz.wav
4	180	4	3	2	I	1	0	747	1	Ⴡ	cut_ui_stereo_44KHz.wav
4	181	1	2	0	C	1	1	781	1	Ⴊ	cut_r_stereo_44KHz.wav
4	182	3	4	2	I	1	0	947	0	Ⴁ	cut_n_stereo_44KHz.wav
4	183	4	4	2	I	1	0	738	1	Ⴡ	cut_n_stereo_44KHz.wav
4	184	2	1	0	C	1	1	1416	1	Ⴂ	cut_ei_stereo_44KHz.wav
4	185	4	3	2	I	1	0	1089	1	Ⴡ	cut_ui_stereo_44KHz.wav
4	186	3	4	2	I	1	0	918	1	Ⴁ	cut_n_stereo_44KHz.wav
4	187	2	2	1	C	2	1	894	1	Ⴂ	cut_r_stereo_44KHz.wav
4	188	1	2	0	C	1	1	734	1	Ⴊ	cut_r_stereo_44KHz.wav
4	189	3	3	2	I	1	0	941	0	Ⴁ	cut_ui_stereo_44KHz.wav
4	190	4	4	2	I	1	0	833	1	Ⴡ	cut_n_stereo_44KHz.wav
4	191	1	1	1	C	1	0	944	0	Ⴊ	cut_ei_stereo_44KHz.wav
4	192	2	1	0	C	1	1	514	1	Ⴂ	cut_ei_stereo_44KHz.wav
4	193	1	1	1	C	2	1	712	1	Ⴊ	cut_ei_stereo_44KHz.wav
4	194	2	2	1	C	2	1	1218	1	Ⴂ	cut_r_stereo_44KHz.wav
4	195	4	4	2	I	1	0	1157	0	Ⴡ	cut_n_stereo_44KHz.wav
4	196	3	4	2	I	1	0	904	1	Ⴁ	cut_n_stereo_44KHz.wav
4	197	4	3	2	I	1	0	831	0	Ⴡ	cut_ui_stereo_44KHz.wav
4	198	3	3	2	I	1	0	528	1	Ⴁ	cut_ui_stereo_44KHz.wav
4	199	2	1	0	C	2	0	745	0	Ⴂ	cut_ei_stereo_44KHz.wav
4	200	1	2	0	C	1	1	570	1	Ⴊ	cut_r_stereo_44KHz.wav
