block	trial	Vstim	Astim	match	C/I	resp	.result	RT	fb	V-file	A-file
LR

0	1	2	3	1	C	1	0	1244	0	Ⴋ	cut_ee_stereo_44KHz.wav
0	2	1	1	1	C	2	1	696	1	Ⴉ	cut_oo_stereo_44KHz.wav
0	3	1	2	0	C	2	0	711	0	Ⴉ	cut_eeuw_stereo_44KHz.wav
0	4	2	4	0	C	1	1	1048	1	Ⴋ	cut_g_stereo_44KHz.wav
0	5	1	2	0	C	1	1	1324	1	Ⴉ	cut_eeuw_stereo_44KHz.wav
0	6	1	1	1	C	1	0	1343	0	Ⴉ	cut_oo_stereo_44KHz.wav
0	7	2	3	1	C	1	0	936	0	Ⴋ	cut_ee_stereo_44KHz.wav
0	8	2	4	0	C	1	1	791	1	Ⴋ	cut_g_stereo_44KHz.wav
0	9	1	1	1	C	2	1	552	1	Ⴉ	cut_oo_stereo_44KHz.wav
0	10	1	2	0	C	2	0	745	0	Ⴉ	cut_eeuw_stereo_44KHz.wav
0	11	2	4	0	C	1	1	852	1	Ⴋ	cut_g_stereo_44KHz.wav
0	12	2	3	1	C	1	0	940	0	Ⴋ	cut_ee_stereo_44KHz.wav
0	13	2	3	1	C	1	0	682	0	Ⴋ	cut_ee_stereo_44KHz.wav
0	14	2	4	0	C	2	0	1032	0	Ⴋ	cut_g_stereo_44KHz.wav
0	15	1	1	1	C	2	1	849	1	Ⴉ	cut_oo_stereo_44KHz.wav
0	16	1	2	0	C	1	1	837	1	Ⴉ	cut_eeuw_stereo_44KHz.wav
0	17	1	1	1	C	2	1	965	1	Ⴉ	cut_oo_stereo_44KHz.wav
0	18	1	2	0	C	1	1	876	1	Ⴉ	cut_eeuw_stereo_44KHz.wav
0	19	2	4	0	C	2	0	1154	0	Ⴋ	cut_g_stereo_44KHz.wav
0	20	2	3	1	C	1	0	1037	0	Ⴋ	cut_ee_stereo_44KHz.wav
0	21	2	4	0	C	1	1	741	1	Ⴋ	cut_g_stereo_44KHz.wav
0	22	1	1	1	C	2	1	961	1	Ⴉ	cut_oo_stereo_44KHz.wav
0	23	1	2	0	C	1	1	963	1	Ⴉ	cut_eeuw_stereo_44KHz.wav
0	24	2	3	1	C	2	1	1257	1	Ⴋ	cut_ee_stereo_44KHz.wav
0	25	2	3	1	C	2	1	704	1	Ⴋ	cut_ee_stereo_44KHz.wav
0	26	1	1	1	C	2	1	1185	1	Ⴉ	cut_oo_stereo_44KHz.wav
0	27	2	4	0	C	1	1	1316	1	Ⴋ	cut_g_stereo_44KHz.wav
0	28	1	2	0	C	2	0	920	0	Ⴉ	cut_eeuw_stereo_44KHz.wav
0	29	2	4	0	C	1	1	1389	1	Ⴋ	cut_g_stereo_44KHz.wav
0	30	2	3	1	C	2	1	1849	1	Ⴋ	cut_ee_stereo_44KHz.wav
avg_resp = 1008
1	1	3	4	2	I	2	0	1298	0	Ⴜ	cut_o_stereo_44KHz.wav
1	2	1	1	1	C	2	1	1041	1	Ⴃ	cut_u_stereo_44KHz.wav
1	3	2	2	1	C	2	1	824	1	Ⴡ	cut_a_stereo_44KHz.wav
1	4	4	4	2	I	1	0	1015	1	Ⴟ	cut_o_stereo_44KHz.wav
1	5	1	2	0	C	1	1	1100	1	Ⴃ	cut_a_stereo_44KHz.wav
1	6	2	1	0	C	2	0	1364	0	Ⴡ	cut_u_stereo_44KHz.wav
1	7	3	3	2	I	2	0	943	1	Ⴜ	cut_k_stereo_44KHz.wav
1	8	4	3	2	I	1	0	978	0	Ⴟ	cut_k_stereo_44KHz.wav
1	9	2	2	1	C	1	0	914	0	Ⴡ	cut_a_stereo_44KHz.wav
1	10	3	3	2	I	1	0	967	0	Ⴜ	cut_k_stereo_44KHz.wav
1	11	4	4	2	I	1	0	825	1	Ⴟ	cut_o_stereo_44KHz.wav
1	12	1	2	0	C	1	1	928	1	Ⴃ	cut_a_stereo_44KHz.wav
1	13	4	3	2	I	2	0	835	0	Ⴟ	cut_k_stereo_44KHz.wav
1	14	1	1	1	C	2	1	1149	1	Ⴃ	cut_u_stereo_44KHz.wav
1	15	2	1	0	C	1	1	969	1	Ⴡ	cut_u_stereo_44KHz.wav
1	16	3	4	2	I	2	0	868	1	Ⴜ	cut_o_stereo_44KHz.wav
1	17	4	3	2	I	1	0	878	1	Ⴟ	cut_k_stereo_44KHz.wav
1	18	2	1	0	C	1	1	614	1	Ⴡ	cut_u_stereo_44KHz.wav
1	19	1	2	0	C	2	0	827	0	Ⴃ	cut_a_stereo_44KHz.wav
1	20	3	4	2	I	2	0	788	1	Ⴜ	cut_o_stereo_44KHz.wav
1	21	1	1	1	C	1	0	681	0	Ⴃ	cut_u_stereo_44KHz.wav
1	22	4	4	2	I	2	0	741	1	Ⴟ	cut_o_stereo_44KHz.wav
1	23	3	3	2	I	2	0	737	1	Ⴜ	cut_k_stereo_44KHz.wav
1	24	2	2	1	C	1	0	714	0	Ⴡ	cut_a_stereo_44KHz.wav
1	25	4	3	2	I	1	0	695	1	Ⴟ	cut_k_stereo_44KHz.wav
1	26	1	2	0	C	1	1	894	1	Ⴃ	cut_a_stereo_44KHz.wav
1	27	2	2	1	C	2	1	966	1	Ⴡ	cut_a_stereo_44KHz.wav
1	28	3	3	2	I	1	0	1015	0	Ⴜ	cut_k_stereo_44KHz.wav
1	29	2	1	0	C	1	1	1105	1	Ⴡ	cut_u_stereo_44KHz.wav
1	30	4	4	2	I	2	0	1538	1	Ⴟ	cut_o_stereo_44KHz.wav
1	31	1	1	1	C	1	0	1320	0	Ⴃ	cut_u_stereo_44KHz.wav
1	32	3	4	2	I	2	0	983	1	Ⴜ	cut_o_stereo_44KHz.wav
1	33	2	2	1	C	1	0	678	0	Ⴡ	cut_a_stereo_44KHz.wav
1	34	4	4	2	I	2	0	1160	0	Ⴟ	cut_o_stereo_44KHz.wav
1	35	3	4	2	I	2	0	715	0	Ⴜ	cut_o_stereo_44KHz.wav
1	36	1	2	0	C	1	1	777	1	Ⴃ	cut_a_stereo_44KHz.wav
1	37	4	3	2	I	1	0	975	0	Ⴟ	cut_k_stereo_44KHz.wav
1	38	2	1	0	C	1	1	619	1	Ⴡ	cut_u_stereo_44KHz.wav
1	39	1	1	1	C	2	1	868	1	Ⴃ	cut_u_stereo_44KHz.wav
1	40	3	3	2	I	2	0	734	1	Ⴜ	cut_k_stereo_44KHz.wav
1	41	1	1	1	C	2	1	829	1	Ⴃ	cut_u_stereo_44KHz.wav
1	42	3	3	2	I	2	0	654	0	Ⴜ	cut_k_stereo_44KHz.wav
1	43	4	4	2	I	1	0	727	1	Ⴟ	cut_o_stereo_44KHz.wav
1	44	2	2	1	C	1	0	524	0	Ⴡ	cut_a_stereo_44KHz.wav
1	45	3	4	2	I	2	0	757	1	Ⴜ	cut_o_stereo_44KHz.wav
1	46	2	1	0	C	1	1	938	1	Ⴡ	cut_u_stereo_44KHz.wav
1	47	4	3	2	I	2	0	807	1	Ⴟ	cut_k_stereo_44KHz.wav
1	48	1	2	0	C	1	1	561	1	Ⴃ	cut_a_stereo_44KHz.wav
1	49	3	4	2	I	2	0	720	0	Ⴜ	cut_o_stereo_44KHz.wav
1	50	2	1	0	C	1	1	657	1	Ⴡ	cut_u_stereo_44KHz.wav
1	51	4	4	2	I	2	0	920	0	Ⴟ	cut_o_stereo_44KHz.wav
1	52	1	2	0	C	1	1	583	1	Ⴃ	cut_a_stereo_44KHz.wav
1	53	3	3	2	I	2	0	724	0	Ⴜ	cut_k_stereo_44KHz.wav
1	54	4	3	2	I	1	0	804	0	Ⴟ	cut_k_stereo_44KHz.wav
1	55	2	2	1	C	2	1	1042	1	Ⴡ	cut_a_stereo_44KHz.wav
1	56	1	1	1	C	2	1	808	1	Ⴃ	cut_u_stereo_44KHz.wav
1	57	4	4	2	I	1	0	1040	0	Ⴟ	cut_o_stereo_44KHz.wav
1	58	3	3	2	I	1	0	840	1	Ⴜ	cut_k_stereo_44KHz.wav
1	59	1	2	0	C	1	1	766	1	Ⴃ	cut_a_stereo_44KHz.wav
1	60	2	1	0	C	1	1	728	1	Ⴡ	cut_u_stereo_44KHz.wav
1	61	3	4	2	I	1	0	1068	0	Ⴜ	cut_o_stereo_44KHz.wav
1	62	4	3	2	I	1	0	1127	0	Ⴟ	cut_k_stereo_44KHz.wav
1	63	1	1	1	C	2	1	698	1	Ⴃ	cut_u_stereo_44KHz.wav
1	64	2	2	1	C	1	0	1145	0	Ⴡ	cut_a_stereo_44KHz.wav
1	65	4	3	2	I	1	0	1200	1	Ⴟ	cut_k_stereo_44KHz.wav
1	66	2	2	1	C	1	0	806	0	Ⴡ	cut_a_stereo_44KHz.wav
1	67	3	3	2	I	2	0	894	0	Ⴜ	cut_k_stereo_44KHz.wav
1	68	1	2	0	C	1	1	536	1	Ⴃ	cut_a_stereo_44KHz.wav
1	69	2	1	0	C	1	1	977	1	Ⴡ	cut_u_stereo_44KHz.wav
1	70	3	4	2	I	2	0	938	0	Ⴜ	cut_o_stereo_44KHz.wav
1	71	1	1	1	C	2	1	1032	1	Ⴃ	cut_u_stereo_44KHz.wav
1	72	4	4	2	I	1	0	1225	0	Ⴟ	cut_o_stereo_44KHz.wav
1	73	3	4	2	I	2	0	699	1	Ⴜ	cut_o_stereo_44KHz.wav
1	74	2	2	1	C	2	1	1149	1	Ⴡ	cut_a_stereo_44KHz.wav
1	75	1	1	1	C	2	1	768	1	Ⴃ	cut_u_stereo_44KHz.wav
1	76	4	3	2	I	1	0	1378	0	Ⴟ	cut_k_stereo_44KHz.wav
1	77	1	2	0	C	1	1	957	1	Ⴃ	cut_a_stereo_44KHz.wav
1	78	4	4	2	I	1	0	999	0	Ⴟ	cut_o_stereo_44KHz.wav
1	79	3	3	2	I	2	0	758	1	Ⴜ	cut_k_stereo_44KHz.wav
1	80	2	1	0	C	2	0	909	0	Ⴡ	cut_u_stereo_44KHz.wav
1	81	4	4	2	I	1	0	1028	1	Ⴟ	cut_o_stereo_44KHz.wav
1	82	3	3	2	I	2	0	728	1	Ⴜ	cut_k_stereo_44KHz.wav
1	83	1	2	0	C	1	1	519	1	Ⴃ	cut_a_stereo_44KHz.wav
1	84	2	2	1	C	2	1	905	1	Ⴡ	cut_a_stereo_44KHz.wav
1	85	4	3	2	I	2	0	1012	0	Ⴟ	cut_k_stereo_44KHz.wav
1	86	3	4	2	I	2	0	939	0	Ⴜ	cut_o_stereo_44KHz.wav
1	87	2	1	0	C	2	0	1390	0	Ⴡ	cut_u_stereo_44KHz.wav
1	88	1	1	1	C	2	1	860	1	Ⴃ	cut_u_stereo_44KHz.wav
1	89	4	4	2	I	1	0	637	0	Ⴟ	cut_o_stereo_44KHz.wav
1	90	3	4	2	I	2	0	558	1	Ⴜ	cut_o_stereo_44KHz.wav
1	91	1	1	1	C	2	1	607	1	Ⴃ	cut_u_stereo_44KHz.wav
1	92	2	2	1	C	1	0	969	0	Ⴡ	cut_a_stereo_44KHz.wav
1	93	4	3	2	I	1	0	877	0	Ⴟ	cut_k_stereo_44KHz.wav
1	94	3	3	2	I	2	0	614	1	Ⴜ	cut_k_stereo_44KHz.wav
1	95	2	1	0	C	2	0	668	0	Ⴡ	cut_u_stereo_44KHz.wav
1	96	1	2	0	C	1	1	475	1	Ⴃ	cut_a_stereo_44KHz.wav
1	97	2	2	1	C	2	1	1029	1	Ⴡ	cut_a_stereo_44KHz.wav
1	98	4	4	2	I	2	0	898	0	Ⴟ	cut_o_stereo_44KHz.wav
1	99	1	1	1	C	2	1	889	1	Ⴃ	cut_u_stereo_44KHz.wav
1	100	3	4	2	I	2	0	608	0	Ⴜ	cut_o_stereo_44KHz.wav
1	101	1	2	0	C	1	1	542	1	Ⴃ	cut_a_stereo_44KHz.wav
1	102	4	3	2	I	1	0	918	0	Ⴟ	cut_k_stereo_44KHz.wav
1	103	3	3	2	I	1	0	826	1	Ⴜ	cut_k_stereo_44KHz.wav
1	104	2	1	0	C	1	1	978	1	Ⴡ	cut_u_stereo_44KHz.wav
1	105	3	3	2	I	2	0	988	0	Ⴜ	cut_k_stereo_44KHz.wav
1	106	1	2	0	C	1	1	720	1	Ⴃ	cut_a_stereo_44KHz.wav
1	107	4	3	2	I	1	0	806	1	Ⴟ	cut_k_stereo_44KHz.wav
1	108	2	1	0	C	1	1	735	1	Ⴡ	cut_u_stereo_44KHz.wav
1	109	4	4	2	I	2	0	783	0	Ⴟ	cut_o_stereo_44KHz.wav
1	110	3	4	2	I	1	0	732	0	Ⴜ	cut_o_stereo_44KHz.wav
1	111	1	1	1	C	2	1	820	1	Ⴃ	cut_u_stereo_44KHz.wav
1	112	2	2	1	C	1	0	858	0	Ⴡ	cut_a_stereo_44KHz.wav
1	113	3	3	2	I	2	0	1217	0	Ⴜ	cut_k_stereo_44KHz.wav
1	114	4	4	2	I	1	0	730	1	Ⴟ	cut_o_stereo_44KHz.wav
1	115	2	1	0	C	1	1	884	1	Ⴡ	cut_u_stereo_44KHz.wav
1	116	1	1	1	C	2	1	675	1	Ⴃ	cut_u_stereo_44KHz.wav
1	117	4	3	2	I	1	0	870	1	Ⴟ	cut_k_stereo_44KHz.wav
1	118	2	2	1	C	2	1	949	1	Ⴡ	cut_a_stereo_44KHz.wav
1	119	1	2	0	C	1	1	423	1	Ⴃ	cut_a_stereo_44KHz.wav
1	120	3	4	2	I	1	0	954	0	Ⴜ	cut_o_stereo_44KHz.wav
1	121	1	1	1	C	2	1	764	1	Ⴃ	cut_u_stereo_44KHz.wav
1	122	4	3	2	I	1	0	1019	1	Ⴟ	cut_k_stereo_44KHz.wav
1	123	3	3	2	I	2	0	664	1	Ⴜ	cut_k_stereo_44KHz.wav
1	124	2	1	0	C	1	1	964	1	Ⴡ	cut_u_stereo_44KHz.wav
1	125	4	4	2	I	1	0	792	1	Ⴟ	cut_o_stereo_44KHz.wav
1	126	1	2	0	C	1	1	625	1	Ⴃ	cut_a_stereo_44KHz.wav
1	127	3	4	2	I	2	0	589	1	Ⴜ	cut_o_stereo_44KHz.wav
1	128	2	2	1	C	2	1	1223	1	Ⴡ	cut_a_stereo_44KHz.wav
1	129	3	4	2	I	2	0	1074	1	Ⴜ	cut_o_stereo_44KHz.wav
1	130	1	1	1	C	2	1	717	1	Ⴃ	cut_u_stereo_44KHz.wav
1	131	4	3	2	I	1	0	744	1	Ⴟ	cut_k_stereo_44KHz.wav
1	132	2	2	1	C	2	1	1196	1	Ⴡ	cut_a_stereo_44KHz.wav
1	133	4	4	2	I	1	0	804	0	Ⴟ	cut_o_stereo_44KHz.wav
1	134	2	1	0	C	2	0	670	0	Ⴡ	cut_u_stereo_44KHz.wav
1	135	1	2	0	C	1	1	544	1	Ⴃ	cut_a_stereo_44KHz.wav
1	136	3	3	2	I	2	0	976	1	Ⴜ	cut_k_stereo_44KHz.wav
1	137	1	1	1	C	2	1	673	1	Ⴃ	cut_u_stereo_44KHz.wav
1	138	3	4	2	I	2	0	1078	1	Ⴜ	cut_o_stereo_44KHz.wav
1	139	4	3	2	I	1	0	1057	0	Ⴟ	cut_k_stereo_44KHz.wav
1	140	2	1	0	C	1	1	756	1	Ⴡ	cut_u_stereo_44KHz.wav
1	141	4	4	2	I	2	0	755	0	Ⴟ	cut_o_stereo_44KHz.wav
1	142	2	2	1	C	2	1	972	1	Ⴡ	cut_a_stereo_44KHz.wav
1	143	3	3	2	I	2	0	1339	0	Ⴜ	cut_k_stereo_44KHz.wav
1	144	1	2	0	C	1	1	537	1	Ⴃ	cut_a_stereo_44KHz.wav
1	145	2	2	1	C	2	1	663	1	Ⴡ	cut_a_stereo_44KHz.wav
1	146	4	3	2	I	1	0	932	0	Ⴟ	cut_k_stereo_44KHz.wav
1	147	1	2	0	C	1	1	707	1	Ⴃ	cut_a_stereo_44KHz.wav
1	148	3	4	2	I	2	0	1343	1	Ⴜ	cut_o_stereo_44KHz.wav
1	149	1	1	1	C	2	1	766	1	Ⴃ	cut_u_stereo_44KHz.wav
1	150	2	1	0	C	1	1	918	1	Ⴡ	cut_u_stereo_44KHz.wav
1	151	4	4	2	I	1	0	1364	1	Ⴟ	cut_o_stereo_44KHz.wav
1	152	3	3	2	I	1	0	1237	0	Ⴜ	cut_k_stereo_44KHz.wav
1	153	4	4	2	I	1	0	534	0	Ⴟ	cut_o_stereo_44KHz.wav
1	154	2	1	0	C	1	1	883	1	Ⴡ	cut_u_stereo_44KHz.wav
1	155	3	4	2	I	1	0	784	1	Ⴜ	cut_o_stereo_44KHz.wav
1	156	1	2	0	C	1	1	677	1	Ⴃ	cut_a_stereo_44KHz.wav
1	157	4	3	2	I	1	0	925	1	Ⴟ	cut_k_stereo_44KHz.wav
1	158	1	1	1	C	2	1	780	1	Ⴃ	cut_u_stereo_44KHz.wav
1	159	3	3	2	I	2	0	951	1	Ⴜ	cut_k_stereo_44KHz.wav
1	160	2	2	1	C	2	1	819	1	Ⴡ	cut_a_stereo_44KHz.wav
1	161	3	4	2	I	2	0	1045	1	Ⴜ	cut_o_stereo_44KHz.wav
1	162	1	2	0	C	1	1	628	1	Ⴃ	cut_a_stereo_44KHz.wav
1	163	2	1	0	C	1	1	917	1	Ⴡ	cut_u_stereo_44KHz.wav
1	164	4	4	2	I	2	0	840	1	Ⴟ	cut_o_stereo_44KHz.wav
1	165	3	3	2	I	2	0	1760	0	Ⴜ	cut_k_stereo_44KHz.wav
1	166	2	2	1	C	2	1	1031	1	Ⴡ	cut_a_stereo_44KHz.wav
1	167	1	1	1	C	2	1	802	1	Ⴃ	cut_u_stereo_44KHz.wav
1	168	4	3	2	I	1	0	861	0	Ⴟ	cut_k_stereo_44KHz.wav
1	169	3	4	2	I	1	0	1212	0	Ⴜ	cut_o_stereo_44KHz.wav
1	170	1	1	1	C	2	1	729	1	Ⴃ	cut_u_stereo_44KHz.wav
1	171	4	3	2	I	1	0	653	1	Ⴟ	cut_k_stereo_44KHz.wav
1	172	2	1	0	C	2	0	1046	0	Ⴡ	cut_u_stereo_44KHz.wav
1	173	3	3	2	I	1	0	1071	0	Ⴜ	cut_k_stereo_44KHz.wav
1	174	4	4	2	I	1	0	859	1	Ⴟ	cut_o_stereo_44KHz.wav
1	175	2	2	1	C	2	1	836	1	Ⴡ	cut_a_stereo_44KHz.wav
1	176	1	2	0	C	1	1	605	1	Ⴃ	cut_a_stereo_44KHz.wav
1	177	3	4	2	I	1	0	1284	0	Ⴜ	cut_o_stereo_44KHz.wav
1	178	1	1	1	C	2	1	761	1	Ⴃ	cut_u_stereo_44KHz.wav
1	179	2	1	0	C	1	1	931	1	Ⴡ	cut_u_stereo_44KHz.wav
1	180	4	4	2	I	1	0	880	1	Ⴟ	cut_o_stereo_44KHz.wav
1	181	1	2	0	C	1	1	687	1	Ⴃ	cut_a_stereo_44KHz.wav
1	182	4	3	2	I	2	0	1001	1	Ⴟ	cut_k_stereo_44KHz.wav
1	183	2	2	1	C	2	1	867	1	Ⴡ	cut_a_stereo_44KHz.wav
1	184	3	3	2	I	1	0	1027	0	Ⴜ	cut_k_stereo_44KHz.wav
1	185	1	1	1	C	2	1	723	1	Ⴃ	cut_u_stereo_44KHz.wav
1	186	4	3	2	I	1	0	736	0	Ⴟ	cut_k_stereo_44KHz.wav
1	187	2	1	0	C	1	1	974	1	Ⴡ	cut_u_stereo_44KHz.wav
1	188	3	4	2	I	1	0	1109	0	Ⴜ	cut_o_stereo_44KHz.wav
1	189	4	4	2	I	1	0	716	1	Ⴟ	cut_o_stereo_44KHz.wav
1	190	1	2	0	C	1	1	665	1	Ⴃ	cut_a_stereo_44KHz.wav
1	191	3	3	2	I	1	0	1114	0	Ⴜ	cut_k_stereo_44KHz.wav
1	192	2	2	1	C	2	1	831	1	Ⴡ	cut_a_stereo_44KHz.wav
1	193	3	3	2	I	2	0	1110	1	Ⴜ	cut_k_stereo_44KHz.wav
1	194	4	4	2	I	1	0	1143	1	Ⴟ	cut_o_stereo_44KHz.wav
1	195	1	2	0	C	1	1	536	1	Ⴃ	cut_a_stereo_44KHz.wav
1	196	2	1	0	C	1	1	1078	1	Ⴡ	cut_u_stereo_44KHz.wav
1	197	1	1	1	C	2	1	1127	1	Ⴃ	cut_u_stereo_44KHz.wav
1	198	3	4	2	I	1	0	1232	1	Ⴜ	cut_o_stereo_44KHz.wav
1	199	4	3	2	I	1	0	1298	0	Ⴟ	cut_k_stereo_44KHz.wav
1	200	2	2	1	C	1	0	684	0	Ⴡ	cut_a_stereo_44KHz.wav
2	1	3	4	2	I	2	0	1322	0	Ⴖ	cut_l_stereo_44KHz.wav
2	2	2	2	1	C	1	0	992	0	Ⴏ	cut_w_stereo_44KHz.wav
2	3	4	3	2	I	1	0	705	0	Ⴐ	cut_g_stereo_44KHz.wav
2	4	1	1	1	C	2	1	772	1	Ⴉ	cut_h_stereo_44KHz.wav
2	5	2	1	0	C	1	1	1003	1	Ⴏ	cut_h_stereo_44KHz.wav
2	6	4	4	2	I	1	0	887	1	Ⴐ	cut_l_stereo_44KHz.wav
2	7	1	2	0	C	2	0	893	0	Ⴉ	cut_w_stereo_44KHz.wav
2	8	3	3	2	I	2	0	588	1	Ⴖ	cut_g_stereo_44KHz.wav
2	9	4	4	2	I	1	0	851	1	Ⴐ	cut_l_stereo_44KHz.wav
2	10	3	3	2	I	2	0	1247	0	Ⴖ	cut_g_stereo_44KHz.wav
2	11	1	1	1	C	2	1	756	1	Ⴉ	cut_h_stereo_44KHz.wav
2	12	2	2	1	C	1	0	1135	0	Ⴏ	cut_w_stereo_44KHz.wav
2	13	4	3	2	I	1	0	645	1	Ⴐ	cut_g_stereo_44KHz.wav
2	14	3	4	2	I	1	0	1364	0	Ⴖ	cut_l_stereo_44KHz.wav
2	15	1	2	0	C	2	0	1255	0	Ⴉ	cut_w_stereo_44KHz.wav
2	16	2	1	0	C	2	0	1396	0	Ⴏ	cut_h_stereo_44KHz.wav
2	17	1	2	0	C	1	1	960	1	Ⴉ	cut_w_stereo_44KHz.wav
2	18	4	4	2	I	1	0	1055	1	Ⴐ	cut_l_stereo_44KHz.wav
2	19	2	1	0	C	2	0	966	0	Ⴏ	cut_h_stereo_44KHz.wav
2	20	3	4	2	I	2	0	1001	1	Ⴖ	cut_l_stereo_44KHz.wav
2	21	2	2	1	C	1	0	777	0	Ⴏ	cut_w_stereo_44KHz.wav
2	22	1	1	1	C	1	0	1658	0	Ⴉ	cut_h_stereo_44KHz.wav
2	23	3	3	2	I	1	0	1062	1	Ⴖ	cut_g_stereo_44KHz.wav
2	24	4	3	2	I	1	0	1205	1	Ⴐ	cut_g_stereo_44KHz.wav
2	25	1	1	1	C	2	1	1409	1	Ⴉ	cut_h_stereo_44KHz.wav
2	26	2	1	0	C	1	1	944	1	Ⴏ	cut_h_stereo_44KHz.wav
2	27	3	3	2	I	1	0	758	1	Ⴖ	cut_g_stereo_44KHz.wav
2	28	4	3	2	I	1	0	766	1	Ⴐ	cut_g_stereo_44KHz.wav
2	29	3	4	2	I	2	0	830	1	Ⴖ	cut_l_stereo_44KHz.wav
2	30	1	2	0	C	2	0	874	0	Ⴉ	cut_w_stereo_44KHz.wav
2	31	4	4	2	I	1	0	813	1	Ⴐ	cut_l_stereo_44KHz.wav
2	32	2	2	1	C	1	0	1314	0	Ⴏ	cut_w_stereo_44KHz.wav
2	33	4	4	2	I	1	0	712	0	Ⴐ	cut_l_stereo_44KHz.wav
2	34	3	4	2	I	2	0	843	1	Ⴖ	cut_l_stereo_44KHz.wav
2	35	1	2	0	C	1	1	880	1	Ⴉ	cut_w_stereo_44KHz.wav
2	36	2	2	1	C	1	0	991	0	Ⴏ	cut_w_stereo_44KHz.wav
2	37	1	1	1	C	1	0	948	0	Ⴉ	cut_h_stereo_44KHz.wav
2	38	4	3	2	I	1	0	506	0	Ⴐ	cut_g_stereo_44KHz.wav
2	39	3	3	2	I	1	0	633	0	Ⴖ	cut_g_stereo_44KHz.wav
2	40	2	1	0	C	1	1	733	1	Ⴏ	cut_h_stereo_44KHz.wav
2	41	3	4	2	I	2	0	1021	1	Ⴖ	cut_l_stereo_44KHz.wav
2	42	4	3	2	I	2	0	1160	0	Ⴐ	cut_g_stereo_44KHz.wav
2	43	1	1	1	C	1	0	700	0	Ⴉ	cut_h_stereo_44KHz.wav
2	44	2	2	1	C	1	0	587	0	Ⴏ	cut_w_stereo_44KHz.wav
2	45	1	2	0	C	1	1	667	1	Ⴉ	cut_w_stereo_44KHz.wav
2	46	4	4	2	I	1	0	880	1	Ⴐ	cut_l_stereo_44KHz.wav
2	47	3	3	2	I	1	0	1048	0	Ⴖ	cut_g_stereo_44KHz.wav
2	48	2	1	0	C	1	1	643	1	Ⴏ	cut_h_stereo_44KHz.wav
2	49	3	3	2	I	1	0	676	1	Ⴖ	cut_g_stereo_44KHz.wav
2	50	4	4	2	I	1	0	1101	1	Ⴐ	cut_l_stereo_44KHz.wav
2	51	2	1	0	C	1	1	729	1	Ⴏ	cut_h_stereo_44KHz.wav
2	52	1	1	1	C	2	1	696	1	Ⴉ	cut_h_stereo_44KHz.wav
2	53	4	3	2	I	2	0	1141	1	Ⴐ	cut_g_stereo_44KHz.wav
2	54	3	4	2	I	2	0	1150	0	Ⴖ	cut_l_stereo_44KHz.wav
2	55	2	2	1	C	1	0	907	0	Ⴏ	cut_w_stereo_44KHz.wav
2	56	1	2	0	C	1	1	922	1	Ⴉ	cut_w_stereo_44KHz.wav
2	57	4	4	2	I	1	0	857	0	Ⴐ	cut_l_stereo_44KHz.wav
2	58	1	2	0	C	1	1	692	1	Ⴉ	cut_w_stereo_44KHz.wav
2	59	3	4	2	I	2	0	927	0	Ⴖ	cut_l_stereo_44KHz.wav
2	60	2	1	0	C	1	1	676	1	Ⴏ	cut_h_stereo_44KHz.wav
2	61	3	3	2	I	1	0	919	1	Ⴖ	cut_g_stereo_44KHz.wav
2	62	1	1	1	C	1	0	1113	0	Ⴉ	cut_h_stereo_44KHz.wav
2	63	2	2	1	C	1	0	627	0	Ⴏ	cut_w_stereo_44KHz.wav
2	64	4	3	2	I	1	0	706	0	Ⴐ	cut_g_stereo_44KHz.wav
2	65	2	1	0	C	1	1	640	1	Ⴏ	cut_h_stereo_44KHz.wav
2	66	3	3	2	I	1	0	753	0	Ⴖ	cut_g_stereo_44KHz.wav
2	67	1	1	1	C	1	0	770	0	Ⴉ	cut_h_stereo_44KHz.wav
2	68	4	3	2	I	2	0	1624	0	Ⴐ	cut_g_stereo_44KHz.wav
2	69	2	2	1	C	1	0	897	0	Ⴏ	cut_w_stereo_44KHz.wav
2	70	1	2	0	C	1	1	1070	1	Ⴉ	cut_w_stereo_44KHz.wav
2	71	4	4	2	I	1	0	935	1	Ⴐ	cut_l_stereo_44KHz.wav
2	72	3	4	2	I	2	0	889	1	Ⴖ	cut_l_stereo_44KHz.wav
2	73	4	4	2	I	1	0	751	0	Ⴐ	cut_l_stereo_44KHz.wav
2	74	1	1	1	C	2	1	1253	1	Ⴉ	cut_h_stereo_44KHz.wav
2	75	3	4	2	I	2	0	895	1	Ⴖ	cut_l_stereo_44KHz.wav
2	76	2	2	1	C	1	0	1064	0	Ⴏ	cut_w_stereo_44KHz.wav
2	77	1	2	0	C	1	1	831	1	Ⴉ	cut_w_stereo_44KHz.wav
2	78	3	3	2	I	1	0	750	0	Ⴖ	cut_g_stereo_44KHz.wav
2	79	4	3	2	I	1	0	990	1	Ⴐ	cut_g_stereo_44KHz.wav
2	80	2	1	0	C	2	0	873	0	Ⴏ	cut_h_stereo_44KHz.wav
2	81	3	4	2	I	2	0	895	0	Ⴖ	cut_l_stereo_44KHz.wav
2	82	1	1	1	C	1	0	959	0	Ⴉ	cut_h_stereo_44KHz.wav
2	83	2	2	1	C	2	1	953	1	Ⴏ	cut_w_stereo_44KHz.wav
2	84	4	4	2	I	1	0	771	0	Ⴐ	cut_l_stereo_44KHz.wav
2	85	3	3	2	I	1	0	807	1	Ⴖ	cut_g_stereo_44KHz.wav
2	86	2	1	0	C	1	1	661	1	Ⴏ	cut_h_stereo_44KHz.wav
2	87	4	3	2	I	1	0	1090	0	Ⴐ	cut_g_stereo_44KHz.wav
2	88	1	2	0	C	1	1	754	1	Ⴉ	cut_w_stereo_44KHz.wav
2	89	4	3	2	I	2	0	980	1	Ⴐ	cut_g_stereo_44KHz.wav
2	90	1	2	0	C	1	1	1226	1	Ⴉ	cut_w_stereo_44KHz.wav
2	91	3	4	2	I	2	0	679	1	Ⴖ	cut_l_stereo_44KHz.wav
2	92	2	1	0	C	1	1	772	1	Ⴏ	cut_h_stereo_44KHz.wav
2	93	3	3	2	I	1	0	858	1	Ⴖ	cut_g_stereo_44KHz.wav
2	94	2	2	1	C	1	0	749	0	Ⴏ	cut_w_stereo_44KHz.wav
2	95	1	1	1	C	2	1	709	1	Ⴉ	cut_h_stereo_44KHz.wav
2	96	4	4	2	I	1	0	1321	0	Ⴐ	cut_l_stereo_44KHz.wav
2	97	2	2	1	C	1	0	1300	0	Ⴏ	cut_w_stereo_44KHz.wav
2	98	4	3	2	I	1	0	967	1	Ⴐ	cut_g_stereo_44KHz.wav
2	99	1	2	0	C	2	0	620	0	Ⴉ	cut_w_stereo_44KHz.wav
2	100	3	3	2	I	1	0	1017	0	Ⴖ	cut_g_stereo_44KHz.wav
2	101	2	1	0	C	1	1	723	1	Ⴏ	cut_h_stereo_44KHz.wav
2	102	4	4	2	I	1	0	718	1	Ⴐ	cut_l_stereo_44KHz.wav
2	103	1	1	1	C	2	1	908	1	Ⴉ	cut_h_stereo_44KHz.wav
2	104	3	4	2	I	2	0	864	0	Ⴖ	cut_l_stereo_44KHz.wav
2	105	2	1	0	C	1	1	883	1	Ⴏ	cut_h_stereo_44KHz.wav
2	106	1	1	1	C	2	1	904	1	Ⴉ	cut_h_stereo_44KHz.wav
2	107	3	4	2	I	2	0	942	1	Ⴖ	cut_l_stereo_44KHz.wav
2	108	4	3	2	I	2	0	891	1	Ⴐ	cut_g_stereo_44KHz.wav
2	109	2	2	1	C	2	1	1268	1	Ⴏ	cut_w_stereo_44KHz.wav
2	110	3	3	2	I	1	0	865	0	Ⴖ	cut_g_stereo_44KHz.wav
2	111	4	4	2	I	2	0	718	1	Ⴐ	cut_l_stereo_44KHz.wav
2	112	1	2	0	C	2	0	839	0	Ⴉ	cut_w_stereo_44KHz.wav
2	113	3	4	2	I	2	0	740	0	Ⴖ	cut_l_stereo_44KHz.wav
2	114	1	2	0	C	1	1	944	1	Ⴉ	cut_w_stereo_44KHz.wav
2	115	2	1	0	C	1	1	805	1	Ⴏ	cut_h_stereo_44KHz.wav
2	116	4	3	2	I	2	0	798	1	Ⴐ	cut_g_stereo_44KHz.wav
2	117	1	1	1	C	1	0	854	0	Ⴉ	cut_h_stereo_44KHz.wav
2	118	2	2	1	C	1	0	1216	0	Ⴏ	cut_w_stereo_44KHz.wav
2	119	3	3	2	I	1	0	691	0	Ⴖ	cut_g_stereo_44KHz.wav
2	120	4	4	2	I	1	0	768	0	Ⴐ	cut_l_stereo_44KHz.wav
2	121	3	4	2	I	2	0	709	0	Ⴖ	cut_l_stereo_44KHz.wav
2	122	4	3	2	I	1	0	733	0	Ⴐ	cut_g_stereo_44KHz.wav
2	123	2	2	1	C	2	1	1020	1	Ⴏ	cut_w_stereo_44KHz.wav
2	124	1	2	0	C	2	0	1233	0	Ⴉ	cut_w_stereo_44KHz.wav
2	125	2	1	0	C	1	1	520	1	Ⴏ	cut_h_stereo_44KHz.wav
2	126	4	4	2	I	1	0	788	1	Ⴐ	cut_l_stereo_44KHz.wav
2	127	1	1	1	C	1	0	1023	0	Ⴉ	cut_h_stereo_44KHz.wav
2	128	3	3	2	I	1	0	626	0	Ⴖ	cut_g_stereo_44KHz.wav
2	129	4	4	2	I	1	0	743	0	Ⴐ	cut_l_stereo_44KHz.wav
2	130	3	3	2	I	1	0	796	0	Ⴖ	cut_g_stereo_44KHz.wav
2	131	1	1	1	C	1	0	947	0	Ⴉ	cut_h_stereo_44KHz.wav
2	132	2	1	0	C	1	1	629	1	Ⴏ	cut_h_stereo_44KHz.wav
2	133	3	4	2	I	2	0	732	0	Ⴖ	cut_l_stereo_44KHz.wav
2	134	4	3	2	I	1	0	1127	0	Ⴐ	cut_g_stereo_44KHz.wav
2	135	1	2	0	C	1	1	721	1	Ⴉ	cut_w_stereo_44KHz.wav
2	136	2	2	1	C	2	1	857	1	Ⴏ	cut_w_stereo_44KHz.wav
2	137	1	2	0	C	1	1	1168	1	Ⴉ	cut_w_stereo_44KHz.wav
2	138	2	2	1	C	2	1	810	1	Ⴏ	cut_w_stereo_44KHz.wav
2	139	4	4	2	I	1	0	936	1	Ⴐ	cut_l_stereo_44KHz.wav
2	140	3	3	2	I	2	0	1139	1	Ⴖ	cut_g_stereo_44KHz.wav
2	141	2	1	0	C	1	1	817	1	Ⴏ	cut_h_stereo_44KHz.wav
2	142	3	4	2	I	2	0	886	0	Ⴖ	cut_l_stereo_44KHz.wav
2	143	4	3	2	I	2	0	1029	0	Ⴐ	cut_g_stereo_44KHz.wav
2	144	1	1	1	C	1	0	647	0	Ⴉ	cut_h_stereo_44KHz.wav
2	145	4	3	2	I	1	0	1011	0	Ⴐ	cut_g_stereo_44KHz.wav
2	146	2	1	0	C	2	0	1269	0	Ⴏ	cut_h_stereo_44KHz.wav
2	147	1	1	1	C	1	0	1145	0	Ⴉ	cut_h_stereo_44KHz.wav
2	148	3	3	2	I	2	0	858	1	Ⴖ	cut_g_stereo_44KHz.wav
2	149	1	2	0	C	2	0	1284	0	Ⴉ	cut_w_stereo_44KHz.wav
2	150	2	2	1	C	1	0	853	0	Ⴏ	cut_w_stereo_44KHz.wav
2	151	3	4	2	I	2	0	880	0	Ⴖ	cut_l_stereo_44KHz.wav
2	152	4	4	2	I	1	0	1002	1	Ⴐ	cut_l_stereo_44KHz.wav
2	153	2	1	0	C	1	1	686	1	Ⴏ	cut_h_stereo_44KHz.wav
2	154	4	4	2	I	2	0	832	1	Ⴐ	cut_l_stereo_44KHz.wav
2	155	3	3	2	I	2	0	1220	1	Ⴖ	cut_g_stereo_44KHz.wav
2	156	1	1	1	C	1	0	644	0	Ⴉ	cut_h_stereo_44KHz.wav
2	157	4	3	2	I	2	0	640	0	Ⴐ	cut_g_stereo_44KHz.wav
2	158	3	4	2	I	2	0	657	1	Ⴖ	cut_l_stereo_44KHz.wav
2	159	2	2	1	C	2	1	653	1	Ⴏ	cut_w_stereo_44KHz.wav
2	160	1	2	0	C	1	1	643	1	Ⴉ	cut_w_stereo_44KHz.wav
2	161	3	4	2	I	2	0	611	0	Ⴖ	cut_l_stereo_44KHz.wav
2	162	2	2	1	C	1	0	1020	0	Ⴏ	cut_w_stereo_44KHz.wav
2	163	4	3	2	I	2	0	650	1	Ⴐ	cut_g_stereo_44KHz.wav
2	164	1	2	0	C	1	1	916	1	Ⴉ	cut_w_stereo_44KHz.wav
2	165	4	4	2	I	2	0	994	1	Ⴐ	cut_l_stereo_44KHz.wav
2	166	3	3	2	I	2	0	759	1	Ⴖ	cut_g_stereo_44KHz.wav
2	167	2	1	0	C	2	0	767	0	Ⴏ	cut_h_stereo_44KHz.wav
2	168	1	1	1	C	1	0	943	0	Ⴉ	cut_h_stereo_44KHz.wav
2	169	2	1	0	C	1	1	658	1	Ⴏ	cut_h_stereo_44KHz.wav
2	170	3	4	2	I	2	0	531	1	Ⴖ	cut_l_stereo_44KHz.wav
2	171	1	1	1	C	1	0	793	0	Ⴉ	cut_h_stereo_44KHz.wav
2	172	4	3	2	I	2	0	792	0	Ⴐ	cut_g_stereo_44KHz.wav
2	173	3	3	2	I	2	0	702	0	Ⴖ	cut_g_stereo_44KHz.wav
2	174	2	2	1	C	1	0	560	0	Ⴏ	cut_w_stereo_44KHz.wav
2	175	4	4	2	I	1	0	616	0	Ⴐ	cut_l_stereo_44KHz.wav
2	176	1	2	0	C	1	1	843	1	Ⴉ	cut_w_stereo_44KHz.wav
2	177	2	1	0	C	1	1	1066	1	Ⴏ	cut_h_stereo_44KHz.wav
2	178	1	1	1	C	2	1	840	1	Ⴉ	cut_h_stereo_44KHz.wav
2	179	4	4	2	I	1	0	756	0	Ⴐ	cut_l_stereo_44KHz.wav
2	180	3	3	2	I	2	0	913	1	Ⴖ	cut_g_stereo_44KHz.wav
2	181	4	3	2	I	2	0	843	0	Ⴐ	cut_g_stereo_44KHz.wav
2	182	1	2	0	C	1	1	740	1	Ⴉ	cut_w_stereo_44KHz.wav
2	183	2	2	1	C	2	1	723	1	Ⴏ	cut_w_stereo_44KHz.wav
2	184	3	4	2	I	1	0	821	0	Ⴖ	cut_l_stereo_44KHz.wav
2	185	4	3	2	I	2	0	1328	0	Ⴐ	cut_g_stereo_44KHz.wav
2	186	3	3	2	I	2	0	712	1	Ⴖ	cut_g_stereo_44KHz.wav
2	187	1	2	0	C	1	1	882	1	Ⴉ	cut_w_stereo_44KHz.wav
2	188	2	1	0	C	1	1	786	1	Ⴏ	cut_h_stereo_44KHz.wav
2	189	3	4	2	I	1	0	991	1	Ⴖ	cut_l_stereo_44KHz.wav
2	190	1	1	1	C	1	0	815	0	Ⴉ	cut_h_stereo_44KHz.wav
2	191	4	4	2	I	2	0	792	0	Ⴐ	cut_l_stereo_44KHz.wav
2	192	2	2	1	C	1	0	863	0	Ⴏ	cut_w_stereo_44KHz.wav
2	193	3	4	2	I	1	0	786	0	Ⴖ	cut_l_stereo_44KHz.wav
2	194	4	3	2	I	1	0	1087	0	Ⴐ	cut_g_stereo_44KHz.wav
2	195	1	2	0	C	1	1	640	1	Ⴉ	cut_w_stereo_44KHz.wav
2	196	2	2	1	C	1	0	683	0	Ⴏ	cut_w_stereo_44KHz.wav
2	197	3	3	2	I	2	0	911	1	Ⴖ	cut_g_stereo_44KHz.wav
2	198	4	4	2	I	1	0	1008	1	Ⴐ	cut_l_stereo_44KHz.wav
2	199	1	1	1	C	1	0	639	0	Ⴉ	cut_h_stereo_44KHz.wav
2	200	2	1	0	C	1	1	515	1	Ⴏ	cut_h_stereo_44KHz.wav
3	1	3	4	2	I	2	0	1105	1	Ⴁ	cut_ei_stereo_44KHz.wav
3	2	4	4	2	I	1	0	809	0	Ⴇ	cut_ei_stereo_44KHz.wav
3	3	2	2	1	C	1	0	1704	0	Ⴊ	cut_j_stereo_44KHz.wav
3	4	1	2	0	C	2	0	518	0	Ⴂ	cut_j_stereo_44KHz.wav
3	5	2	1	0	C	1	1	1190	1	Ⴊ	cut_ui_stereo_44KHz.wav
3	6	4	3	2	I	1	0	1170	1	Ⴇ	cut_s_stereo_44KHz.wav
3	7	3	3	2	I	1	0	871	1	Ⴁ	cut_s_stereo_44KHz.wav
3	8	1	1	1	C	2	1	945	1	Ⴂ	cut_ui_stereo_44KHz.wav
3	9	4	3	2	I	2	0	594	0	Ⴇ	cut_s_stereo_44KHz.wav
3	10	3	3	2	I	1	0	411	0	Ⴁ	cut_s_stereo_44KHz.wav
3	11	1	1	1	C	1	0	786	0	Ⴂ	cut_ui_stereo_44KHz.wav
3	12	2	1	0	C	1	1	450	1	Ⴊ	cut_ui_stereo_44KHz.wav
3	13	1	2	0	C	1	1	780	1	Ⴂ	cut_j_stereo_44KHz.wav
3	14	4	4	2	I	2	0	654	0	Ⴇ	cut_ei_stereo_44KHz.wav
3	15	2	2	1	C	1	0	738	0	Ⴊ	cut_j_stereo_44KHz.wav
3	16	3	4	2	I	2	0	508	1	Ⴁ	cut_ei_stereo_44KHz.wav
3	17	4	3	2	I	2	0	950	0	Ⴇ	cut_s_stereo_44KHz.wav
3	18	3	4	2	I	1	0	557	0	Ⴁ	cut_ei_stereo_44KHz.wav
3	19	1	2	0	C	2	0	897	0	Ⴂ	cut_j_stereo_44KHz.wav
3	20	2	2	1	C	1	0	615	0	Ⴊ	cut_j_stereo_44KHz.wav
3	21	4	4	2	I	2	0	606	1	Ⴇ	cut_ei_stereo_44KHz.wav
3	22	1	1	1	C	2	1	743	1	Ⴂ	cut_ui_stereo_44KHz.wav
3	23	3	3	2	I	1	0	1038	1	Ⴁ	cut_s_stereo_44KHz.wav
3	24	2	1	0	C	1	1	561	1	Ⴊ	cut_ui_stereo_44KHz.wav
3	25	3	4	2	I	2	0	819	1	Ⴁ	cut_ei_stereo_44KHz.wav
3	26	1	1	1	C	2	1	776	1	Ⴂ	cut_ui_stereo_44KHz.wav
3	27	2	1	0	C	1	1	702	1	Ⴊ	cut_ui_stereo_44KHz.wav
3	28	4	4	2	I	2	0	656	1	Ⴇ	cut_ei_stereo_44KHz.wav
3	29	3	3	2	I	1	0	910	1	Ⴁ	cut_s_stereo_44KHz.wav
3	30	4	3	2	I	2	0	967	1	Ⴇ	cut_s_stereo_44KHz.wav
3	31	1	2	0	C	1	1	913	1	Ⴂ	cut_j_stereo_44KHz.wav
3	32	2	2	1	C	2	1	639	1	Ⴊ	cut_j_stereo_44KHz.wav
3	33	3	4	2	I	2	0	1171	0	Ⴁ	cut_ei_stereo_44KHz.wav
3	34	2	1	0	C	1	1	1027	1	Ⴊ	cut_ui_stereo_44KHz.wav
3	35	1	2	0	C	1	1	889	1	Ⴂ	cut_j_stereo_44KHz.wav
3	36	4	4	2	I	2	0	568	1	Ⴇ	cut_ei_stereo_44KHz.wav
3	37	3	3	2	I	1	0	1148	0	Ⴁ	cut_s_stereo_44KHz.wav
3	38	4	3	2	I	2	0	668	0	Ⴇ	cut_s_stereo_44KHz.wav
3	39	1	1	1	C	1	0	736	0	Ⴂ	cut_ui_stereo_44KHz.wav
3	40	2	2	1	C	2	1	1157	1	Ⴊ	cut_j_stereo_44KHz.wav
3	41	4	3	2	I	1	0	1198	1	Ⴇ	cut_s_stereo_44KHz.wav
3	42	3	4	2	I	1	0	633	0	Ⴁ	cut_ei_stereo_44KHz.wav
3	43	2	1	0	C	1	1	654	1	Ⴊ	cut_ui_stereo_44KHz.wav
3	44	1	1	1	C	2	1	997	1	Ⴂ	cut_ui_stereo_44KHz.wav
3	45	4	4	2	I	2	0	1007	0	Ⴇ	cut_ei_stereo_44KHz.wav
3	46	1	2	0	C	1	1	889	1	Ⴂ	cut_j_stereo_44KHz.wav
3	47	3	3	2	I	1	0	912	0	Ⴁ	cut_s_stereo_44KHz.wav
3	48	2	2	1	C	2	1	1016	1	Ⴊ	cut_j_stereo_44KHz.wav
3	49	3	3	2	I	1	0	926	1	Ⴁ	cut_s_stereo_44KHz.wav
3	50	4	3	2	I	2	0	712	1	Ⴇ	cut_s_stereo_44KHz.wav
3	51	1	1	1	C	2	1	690	1	Ⴂ	cut_ui_stereo_44KHz.wav
3	52	2	2	1	C	2	1	686	1	Ⴊ	cut_j_stereo_44KHz.wav
3	53	3	4	2	I	2	0	1030	0	Ⴁ	cut_ei_stereo_44KHz.wav
3	54	1	2	0	C	2	0	1129	0	Ⴂ	cut_j_stereo_44KHz.wav
3	55	4	4	2	I	2	0	633	0	Ⴇ	cut_ei_stereo_44KHz.wav
3	56	2	1	0	C	1	1	556	1	Ⴊ	cut_ui_stereo_44KHz.wav
3	57	1	2	0	C	2	0	937	0	Ⴂ	cut_j_stereo_44KHz.wav
3	58	4	4	2	I	2	0	838	1	Ⴇ	cut_ei_stereo_44KHz.wav
3	59	3	3	2	I	1	0	840	0	Ⴁ	cut_s_stereo_44KHz.wav
3	60	2	1	0	C	1	1	595	1	Ⴊ	cut_ui_stereo_44KHz.wav
3	61	1	1	1	C	1	0	806	0	Ⴂ	cut_ui_stereo_44KHz.wav
3	62	4	3	2	I	2	0	503	1	Ⴇ	cut_s_stereo_44KHz.wav
3	63	3	4	2	I	2	0	612	0	Ⴁ	cut_ei_stereo_44KHz.wav
3	64	2	2	1	C	2	1	1244	1	Ⴊ	cut_j_stereo_44KHz.wav
3	65	1	1	1	C	1	0	787	0	Ⴂ	cut_ui_stereo_44KHz.wav
3	66	4	3	2	I	2	0	830	1	Ⴇ	cut_s_stereo_44KHz.wav
3	67	3	4	2	I	1	0	880	0	Ⴁ	cut_ei_stereo_44KHz.wav
3	68	2	1	0	C	1	1	673	1	Ⴊ	cut_ui_stereo_44KHz.wav
3	69	4	4	2	I	2	0	748	0	Ⴇ	cut_ei_stereo_44KHz.wav
3	70	3	3	2	I	1	0	1257	1	Ⴁ	cut_s_stereo_44KHz.wav
3	71	1	2	0	C	2	0	962	0	Ⴂ	cut_j_stereo_44KHz.wav
3	72	2	2	1	C	2	1	1153	1	Ⴊ	cut_j_stereo_44KHz.wav
3	73	4	4	2	I	1	0	1086	0	Ⴇ	cut_ei_stereo_44KHz.wav
3	74	2	2	1	C	2	1	679	1	Ⴊ	cut_j_stereo_44KHz.wav
3	75	3	4	2	I	2	0	869	0	Ⴁ	cut_ei_stereo_44KHz.wav
3	76	1	2	0	C	1	1	879	1	Ⴂ	cut_j_stereo_44KHz.wav
3	77	2	1	0	C	1	1	681	1	Ⴊ	cut_ui_stereo_44KHz.wav
3	78	1	1	1	C	1	0	1006	0	Ⴂ	cut_ui_stereo_44KHz.wav
3	79	4	3	2	I	2	0	582	1	Ⴇ	cut_s_stereo_44KHz.wav
3	80	3	3	2	I	2	0	908	1	Ⴁ	cut_s_stereo_44KHz.wav
3	81	1	2	0	C	2	0	892	0	Ⴂ	cut_j_stereo_44KHz.wav
3	82	4	4	2	I	1	0	792	0	Ⴇ	cut_ei_stereo_44KHz.wav
3	83	2	1	0	C	1	1	490	1	Ⴊ	cut_ui_stereo_44KHz.wav
3	84	3	3	2	I	1	0	923	1	Ⴁ	cut_s_stereo_44KHz.wav
3	85	2	2	1	C	2	1	865	1	Ⴊ	cut_j_stereo_44KHz.wav
3	86	3	4	2	I	1	0	996	1	Ⴁ	cut_ei_stereo_44KHz.wav
3	87	4	3	2	I	1	0	1661	0	Ⴇ	cut_s_stereo_44KHz.wav
3	88	1	1	1	C	2	1	1264	1	Ⴂ	cut_ui_stereo_44KHz.wav
3	89	2	2	1	C	2	1	885	1	Ⴊ	cut_j_stereo_44KHz.wav
3	90	1	2	0	C	2	0	782	0	Ⴂ	cut_j_stereo_44KHz.wav
3	91	3	4	2	I	2	0	850	1	Ⴁ	cut_ei_stereo_44KHz.wav
3	92	4	3	2	I	2	0	1233	1	Ⴇ	cut_s_stereo_44KHz.wav
3	93	1	1	1	C	1	0	1175	0	Ⴂ	cut_ui_stereo_44KHz.wav
3	94	3	3	2	I	1	0	723	1	Ⴁ	cut_s_stereo_44KHz.wav
3	95	4	4	2	I	2	0	797	1	Ⴇ	cut_ei_stereo_44KHz.wav
3	96	2	1	0	C	1	1	958	1	Ⴊ	cut_ui_stereo_44KHz.wav
3	97	4	3	2	I	2	0	773	0	Ⴇ	cut_s_stereo_44KHz.wav
3	98	2	2	1	C	2	1	875	1	Ⴊ	cut_j_stereo_44KHz.wav
3	99	3	3	2	I	1	0	762	0	Ⴁ	cut_s_stereo_44KHz.wav
3	100	1	1	1	C	2	1	808	1	Ⴂ	cut_ui_stereo_44KHz.wav
3	101	4	4	2	I	2	0	689	1	Ⴇ	cut_ei_stereo_44KHz.wav
3	102	1	2	0	C	1	1	1021	1	Ⴂ	cut_j_stereo_44KHz.wav
3	103	2	1	0	C	1	1	559	1	Ⴊ	cut_ui_stereo_44KHz.wav
3	104	3	4	2	I	1	0	1093	0	Ⴁ	cut_ei_stereo_44KHz.wav
3	105	4	3	2	I	2	0	953	0	Ⴇ	cut_s_stereo_44KHz.wav
3	106	1	1	1	C	2	1	837	1	Ⴂ	cut_ui_stereo_44KHz.wav
3	107	2	2	1	C	2	1	724	1	Ⴊ	cut_j_stereo_44KHz.wav
3	108	3	3	2	I	1	0	854	0	Ⴁ	cut_s_stereo_44KHz.wav
3	109	1	2	0	C	2	0	1049	0	Ⴂ	cut_j_stereo_44KHz.wav
3	110	4	4	2	I	2	0	952	0	Ⴇ	cut_ei_stereo_44KHz.wav
3	111	3	4	2	I	1	0	742	1	Ⴁ	cut_ei_stereo_44KHz.wav
3	112	2	1	0	C	1	1	614	1	Ⴊ	cut_ui_stereo_44KHz.wav
3	113	3	3	2	I	1	0	1182	0	Ⴁ	cut_s_stereo_44KHz.wav
3	114	4	4	2	I	2	0	744	1	Ⴇ	cut_ei_stereo_44KHz.wav
3	115	2	1	0	C	1	1	942	1	Ⴊ	cut_ui_stereo_44KHz.wav
3	116	1	1	1	C	2	1	809	1	Ⴂ	cut_ui_stereo_44KHz.wav
3	117	2	2	1	C	2	1	827	1	Ⴊ	cut_j_stereo_44KHz.wav
3	118	4	3	2	I	2	0	1114	1	Ⴇ	cut_s_stereo_44KHz.wav
3	119	1	2	0	C	2	0	1037	0	Ⴂ	cut_j_stereo_44KHz.wav
3	120	3	4	2	I	2	0	1044	1	Ⴁ	cut_ei_stereo_44KHz.wav
3	121	4	3	2	I	2	0	792	0	Ⴇ	cut_s_stereo_44KHz.wav
3	122	1	2	0	C	2	0	639	0	Ⴂ	cut_j_stereo_44KHz.wav
3	123	2	1	0	C	1	1	643	1	Ⴊ	cut_ui_stereo_44KHz.wav
3	124	3	3	2	I	1	0	1077	0	Ⴁ	cut_s_stereo_44KHz.wav
3	125	2	2	1	C	2	1	791	1	Ⴊ	cut_j_stereo_44KHz.wav
3	126	4	4	2	I	2	0	624	1	Ⴇ	cut_ei_stereo_44KHz.wav
3	127	1	1	1	C	2	1	736	1	Ⴂ	cut_ui_stereo_44KHz.wav
3	128	3	4	2	I	1	0	1257	1	Ⴁ	cut_ei_stereo_44KHz.wav
3	129	4	4	2	I	2	0	617	0	Ⴇ	cut_ei_stereo_44KHz.wav
3	130	1	2	0	C	2	0	741	0	Ⴂ	cut_j_stereo_44KHz.wav
3	131	2	1	0	C	1	1	619	1	Ⴊ	cut_ui_stereo_44KHz.wav
3	132	3	4	2	I	1	0	982	0	Ⴁ	cut_ei_stereo_44KHz.wav
3	133	1	1	1	C	2	1	727	1	Ⴂ	cut_ui_stereo_44KHz.wav
3	134	4	3	2	I	2	0	691	1	Ⴇ	cut_s_stereo_44KHz.wav
3	135	3	3	2	I	2	0	935	1	Ⴁ	cut_s_stereo_44KHz.wav
3	136	2	2	1	C	2	1	978	1	Ⴊ	cut_j_stereo_44KHz.wav
3	137	1	2	0	C	2	0	708	0	Ⴂ	cut_j_stereo_44KHz.wav
3	138	4	3	2	I	2	0	628	1	Ⴇ	cut_s_stereo_44KHz.wav
3	139	2	1	0	C	1	1	844	1	Ⴊ	cut_ui_stereo_44KHz.wav
3	140	3	3	2	I	1	0	844	1	Ⴁ	cut_s_stereo_44KHz.wav
3	141	1	1	1	C	2	1	752	1	Ⴂ	cut_ui_stereo_44KHz.wav
3	142	4	4	2	I	2	0	598	1	Ⴇ	cut_ei_stereo_44KHz.wav
3	143	2	2	1	C	2	1	827	1	Ⴊ	cut_j_stereo_44KHz.wav
3	144	3	4	2	I	2	0	1123	0	Ⴁ	cut_ei_stereo_44KHz.wav
3	145	2	2	1	C	2	1	1056	1	Ⴊ	cut_j_stereo_44KHz.wav
3	146	4	4	2	I	2	0	1141	0	Ⴇ	cut_ei_stereo_44KHz.wav
3	147	1	1	1	C	2	1	743	1	Ⴂ	cut_ui_stereo_44KHz.wav
3	148	3	3	2	I	2	0	836	1	Ⴁ	cut_s_stereo_44KHz.wav
3	149	2	1	0	C	1	1	704	1	Ⴊ	cut_ui_stereo_44KHz.wav
3	150	4	3	2	I	2	0	650	0	Ⴇ	cut_s_stereo_44KHz.wav
3	151	1	2	0	C	2	0	805	0	Ⴂ	cut_j_stereo_44KHz.wav
3	152	3	4	2	I	1	0	600	0	Ⴁ	cut_ei_stereo_44KHz.wav
3	153	2	2	1	C	2	1	842	1	Ⴊ	cut_j_stereo_44KHz.wav
3	154	1	2	0	C	2	0	712	0	Ⴂ	cut_j_stereo_44KHz.wav
3	155	4	4	2	I	2	0	629	1	Ⴇ	cut_ei_stereo_44KHz.wav
3	156	3	3	2	I	1	0	1149	1	Ⴁ	cut_s_stereo_44KHz.wav
3	157	2	1	0	C	1	1	689	1	Ⴊ	cut_ui_stereo_44KHz.wav
3	158	4	3	2	I	2	0	765	0	Ⴇ	cut_s_stereo_44KHz.wav
3	159	1	1	1	C	2	1	633	1	Ⴂ	cut_ui_stereo_44KHz.wav
3	160	3	4	2	I	2	0	601	1	Ⴁ	cut_ei_stereo_44KHz.wav
3	161	4	4	2	I	2	0	593	0	Ⴇ	cut_ei_stereo_44KHz.wav
3	162	1	2	0	C	2	0	623	0	Ⴂ	cut_j_stereo_44KHz.wav
3	163	2	1	0	C	1	1	642	1	Ⴊ	cut_ui_stereo_44KHz.wav
3	164	3	4	2	I	2	0	842	0	Ⴁ	cut_ei_stereo_44KHz.wav
3	165	1	1	1	C	2	1	675	1	Ⴂ	cut_ui_stereo_44KHz.wav
3	166	2	2	1	C	2	1	828	1	Ⴊ	cut_j_stereo_44KHz.wav
3	167	3	3	2	I	2	0	721	1	Ⴁ	cut_s_stereo_44KHz.wav
3	168	4	3	2	I	2	0	625	0	Ⴇ	cut_s_stereo_44KHz.wav
3	169	2	1	0	C	1	1	661	1	Ⴊ	cut_ui_stereo_44KHz.wav
3	170	3	3	2	I	1	0	1138	0	Ⴁ	cut_s_stereo_44KHz.wav
3	171	4	4	2	I	2	0	561	1	Ⴇ	cut_ei_stereo_44KHz.wav
3	172	1	2	0	C	2	0	1064	0	Ⴂ	cut_j_stereo_44KHz.wav
3	173	2	2	1	C	1	0	412	0	Ⴊ	cut_j_stereo_44KHz.wav
3	174	1	1	1	C	2	1	766	1	Ⴂ	cut_ui_stereo_44KHz.wav
3	175	4	3	2	I	2	0	652	1	Ⴇ	cut_s_stereo_44KHz.wav
3	176	3	4	2	I	2	0	755	1	Ⴁ	cut_ei_stereo_44KHz.wav
3	177	4	4	2	I	2	0	645	0	Ⴇ	cut_ei_stereo_44KHz.wav
3	178	1	1	1	C	2	1	636	1	Ⴂ	cut_ui_stereo_44KHz.wav
3	179	2	2	1	C	1	0	525	0	Ⴊ	cut_j_stereo_44KHz.wav
3	180	3	4	2	I	1	0	1116	0	Ⴁ	cut_ei_stereo_44KHz.wav
3	181	1	2	0	C	2	0	676	0	Ⴂ	cut_j_stereo_44KHz.wav
3	182	4	3	2	I	2	0	541	1	Ⴇ	cut_s_stereo_44KHz.wav
3	183	2	1	0	C	1	1	580	1	Ⴊ	cut_ui_stereo_44KHz.wav
3	184	3	3	2	I	2	0	666	0	Ⴁ	cut_s_stereo_44KHz.wav
3	185	1	1	1	C	2	1	863	1	Ⴂ	cut_ui_stereo_44KHz.wav
3	186	3	3	2	I	1	0	723	0	Ⴁ	cut_s_stereo_44KHz.wav
3	187	2	1	0	C	1	1	626	1	Ⴊ	cut_ui_stereo_44KHz.wav
3	188	4	3	2	I	2	0	1165	0	Ⴇ	cut_s_stereo_44KHz.wav
3	189	3	4	2	I	1	0	688	1	Ⴁ	cut_ei_stereo_44KHz.wav
3	190	4	4	2	I	1	0	1121	1	Ⴇ	cut_ei_stereo_44KHz.wav
3	191	1	2	0	C	2	0	732	0	Ⴂ	cut_j_stereo_44KHz.wav
3	192	2	2	1	C	2	1	870	1	Ⴊ	cut_j_stereo_44KHz.wav
3	193	1	2	0	C	2	0	523	0	Ⴂ	cut_j_stereo_44KHz.wav
3	194	3	3	2	I	1	0	827	1	Ⴁ	cut_s_stereo_44KHz.wav
3	195	4	4	2	I	2	0	659	0	Ⴇ	cut_ei_stereo_44KHz.wav
3	196	2	1	0	C	1	1	541	1	Ⴊ	cut_ui_stereo_44KHz.wav
3	197	4	3	2	I	1	0	931	0	Ⴇ	cut_s_stereo_44KHz.wav
3	198	3	4	2	I	2	0	834	0	Ⴁ	cut_ei_stereo_44KHz.wav
3	199	1	1	1	C	2	1	621	1	Ⴂ	cut_ui_stereo_44KHz.wav
3	200	2	2	1	C	2	1	881	1	Ⴊ	cut_j_stereo_44KHz.wav
4	1	4	3	2	I	2	0	1145	1	Ⴒ	cut_f_stereo_44KHz.wav
4	2	2	2	1	C	2	1	1543	1	Ⴌ	cut_r_stereo_44KHz.wav
4	3	3	3	2	I	2	0	917	0	Ⴔ	cut_f_stereo_44KHz.wav
4	4	1	1	1	C	2	1	865	1	Ⴕ	cut_n_stereo_44KHz.wav
4	5	4	4	2	I	2	0	870	1	Ⴒ	cut_oei_stereo_44KHz.wav
4	6	2	1	0	C	2	0	955	0	Ⴌ	cut_n_stereo_44KHz.wav
4	7	3	4	2	I	1	0	860	1	Ⴔ	cut_oei_stereo_44KHz.wav
4	8	1	2	0	C	2	0	634	0	Ⴕ	cut_r_stereo_44KHz.wav
4	9	2	1	0	C	2	0	878	0	Ⴌ	cut_n_stereo_44KHz.wav
4	10	4	4	2	I	1	0	501	0	Ⴒ	cut_oei_stereo_44KHz.wav
4	11	1	1	1	C	1	0	502	0	Ⴕ	cut_n_stereo_44KHz.wav
4	12	3	3	2	I	1	0	684	0	Ⴔ	cut_f_stereo_44KHz.wav
4	13	1	2	0	C	1	1	627	1	Ⴕ	cut_r_stereo_44KHz.wav
4	14	3	4	2	I	1	0	750	1	Ⴔ	cut_oei_stereo_44KHz.wav
4	15	2	2	1	C	2	1	815	1	Ⴌ	cut_r_stereo_44KHz.wav
4	16	4	3	2	I	2	0	775	0	Ⴒ	cut_f_stereo_44KHz.wav
4	17	1	1	1	C	1	0	938	0	Ⴕ	cut_n_stereo_44KHz.wav
4	18	4	4	2	I	2	0	755	1	Ⴒ	cut_oei_stereo_44KHz.wav
4	19	3	3	2	I	1	0	613	1	Ⴔ	cut_f_stereo_44KHz.wav
4	20	2	1	0	C	2	0	711	0	Ⴌ	cut_n_stereo_44KHz.wav
4	21	3	4	2	I	1	0	809	0	Ⴔ	cut_oei_stereo_44KHz.wav
4	22	4	3	2	I	2	0	733	0	Ⴒ	cut_f_stereo_44KHz.wav
4	23	2	2	1	C	1	0	528	0	Ⴌ	cut_r_stereo_44KHz.wav
4	24	1	2	0	C	2	0	761	0	Ⴕ	cut_r_stereo_44KHz.wav
4	25	3	4	2	I	1	0	544	0	Ⴔ	cut_oei_stereo_44KHz.wav
4	26	4	3	2	I	1	0	1228	1	Ⴒ	cut_f_stereo_44KHz.wav
4	27	1	1	1	C	2	1	649	1	Ⴕ	cut_n_stereo_44KHz.wav
4	28	2	2	1	C	2	1	824	1	Ⴌ	cut_r_stereo_44KHz.wav
4	29	4	4	2	I	1	0	718	0	Ⴒ	cut_oei_stereo_44KHz.wav
4	30	3	3	2	I	1	0	598	1	Ⴔ	cut_f_stereo_44KHz.wav
4	31	2	1	0	C	1	1	1028	1	Ⴌ	cut_n_stereo_44KHz.wav
4	32	1	2	0	C	1	1	725	1	Ⴕ	cut_r_stereo_44KHz.wav
4	33	3	3	2	I	1	0	789	0	Ⴔ	cut_f_stereo_44KHz.wav
4	34	2	2	1	C	2	1	960	1	Ⴌ	cut_r_stereo_44KHz.wav
4	35	4	4	2	I	1	0	664	0	Ⴒ	cut_oei_stereo_44KHz.wav
4	36	1	1	1	C	1	0	844	0	Ⴕ	cut_n_stereo_44KHz.wav
4	37	4	3	2	I	1	0	702	1	Ⴒ	cut_f_stereo_44KHz.wav
4	38	3	4	2	I	1	0	1162	1	Ⴔ	cut_oei_stereo_44KHz.wav
4	39	2	1	0	C	1	1	722	1	Ⴌ	cut_n_stereo_44KHz.wav
4	40	1	2	0	C	2	0	695	0	Ⴕ	cut_r_stereo_44KHz.wav
4	41	3	4	2	I	1	0	511	1	Ⴔ	cut_oei_stereo_44KHz.wav
4	42	1	1	1	C	1	0	536	0	Ⴕ	cut_n_stereo_44KHz.wav
4	43	2	2	1	C	2	1	759	1	Ⴌ	cut_r_stereo_44KHz.wav
4	44	4	4	2	I	2	0	1367	0	Ⴒ	cut_oei_stereo_44KHz.wav
4	45	3	3	2	I	1	0	468	1	Ⴔ	cut_f_stereo_44KHz.wav
4	46	1	2	0	C	2	0	876	0	Ⴕ	cut_r_stereo_44KHz.wav
4	47	4	3	2	I	1	0	1020	1	Ⴒ	cut_f_stereo_44KHz.wav
4	48	2	1	0	C	1	1	816	1	Ⴌ	cut_n_stereo_44KHz.wav
4	49	3	4	2	I	1	0	736	0	Ⴔ	cut_oei_stereo_44KHz.wav
4	50	2	1	0	C	1	1	750	1	Ⴌ	cut_n_stereo_44KHz.wav
4	51	1	1	1	C	2	1	832	1	Ⴕ	cut_n_stereo_44KHz.wav
4	52	4	4	2	I	1	0	785	1	Ⴒ	cut_oei_stereo_44KHz.wav
4	53	2	2	1	C	2	1	881	1	Ⴌ	cut_r_stereo_44KHz.wav
4	54	4	3	2	I	1	0	559	0	Ⴒ	cut_f_stereo_44KHz.wav
4	55	3	3	2	I	1	0	654	0	Ⴔ	cut_f_stereo_44KHz.wav
4	56	1	2	0	C	2	0	796	0	Ⴕ	cut_r_stereo_44KHz.wav
4	57	4	3	2	I	1	0	646	1	Ⴒ	cut_f_stereo_44KHz.wav
4	58	3	3	2	I	1	0	767	0	Ⴔ	cut_f_stereo_44KHz.wav
4	59	1	1	1	C	2	1	276	1	Ⴕ	cut_n_stereo_44KHz.wav
4	60	2	2	1	C	1	0	750	0	Ⴌ	cut_r_stereo_44KHz.wav
4	61	4	4	2	I	1	0	1024	1	Ⴒ	cut_oei_stereo_44KHz.wav
4	62	3	4	2	I	2	0	793	1	Ⴔ	cut_oei_stereo_44KHz.wav
4	63	2	1	0	C	2	0	639	0	Ⴌ	cut_n_stereo_44KHz.wav
4	64	1	2	0	C	1	1	570	1	Ⴕ	cut_r_stereo_44KHz.wav
4	65	4	3	2	I	1	0	677	0	Ⴒ	cut_f_stereo_44KHz.wav
4	66	3	4	2	I	2	0	773	1	Ⴔ	cut_oei_stereo_44KHz.wav
4	67	1	1	1	C	1	0	736	0	Ⴕ	cut_n_stereo_44KHz.wav
4	68	2	1	0	C	2	0	714	0	Ⴌ	cut_n_stereo_44KHz.wav
4	69	4	4	2	I	1	0	700	1	Ⴒ	cut_oei_stereo_44KHz.wav
4	70	2	2	1	C	1	0	621	0	Ⴌ	cut_r_stereo_44KHz.wav
4	71	3	3	2	I	1	0	847	0	Ⴔ	cut_f_stereo_44KHz.wav
4	72	1	2	0	C	1	1	531	1	Ⴕ	cut_r_stereo_44KHz.wav
4	73	3	4	2	I	1	0	913	0	Ⴔ	cut_oei_stereo_44KHz.wav
4	74	4	3	2	I	1	0	579	0	Ⴒ	cut_f_stereo_44KHz.wav
4	75	2	1	0	C	1	1	557	1	Ⴌ	cut_n_stereo_44KHz.wav
4	76	1	2	0	C	1	1	797	1	Ⴕ	cut_r_stereo_44KHz.wav
4	77	3	3	2	I	2	0	784	1	Ⴔ	cut_f_stereo_44KHz.wav
4	78	1	1	1	C	2	1	787	1	Ⴕ	cut_n_stereo_44KHz.wav
4	79	2	2	1	C	1	0	793	0	Ⴌ	cut_r_stereo_44KHz.wav
4	80	4	4	2	I	2	0	958	1	Ⴒ	cut_oei_stereo_44KHz.wav
4	81	1	2	0	C	1	1	863	1	Ⴕ	cut_r_stereo_44KHz.wav
4	82	2	1	0	C	1	1	672	1	Ⴌ	cut_n_stereo_44KHz.wav
4	83	4	3	2	I	1	0	818	1	Ⴒ	cut_f_stereo_44KHz.wav
4	84	3	3	2	I	2	0	936	1	Ⴔ	cut_f_stereo_44KHz.wav
4	85	1	1	1	C	1	0	685	0	Ⴕ	cut_n_stereo_44KHz.wav
4	86	3	4	2	I	1	0	660	0	Ⴔ	cut_oei_stereo_44KHz.wav
4	87	2	2	1	C	1	0	654	0	Ⴌ	cut_r_stereo_44KHz.wav
4	88	4	4	2	I	1	0	691	1	Ⴒ	cut_oei_stereo_44KHz.wav
4	89	2	1	0	C	1	1	780	1	Ⴌ	cut_n_stereo_44KHz.wav
4	90	4	4	2	I	1	0	682	0	Ⴒ	cut_oei_stereo_44KHz.wav
4	91	3	4	2	I	1	0	798	0	Ⴔ	cut_oei_stereo_44KHz.wav
4	92	1	2	0	C	2	0	575	0	Ⴕ	cut_r_stereo_44KHz.wav
4	93	2	2	1	C	1	0	635	0	Ⴌ	cut_r_stereo_44KHz.wav
4	94	4	3	2	I	1	0	626	0	Ⴒ	cut_f_stereo_44KHz.wav
4	95	1	1	1	C	1	0	806	0	Ⴕ	cut_n_stereo_44KHz.wav
4	96	3	3	2	I	1	0	628	0	Ⴔ	cut_f_stereo_44KHz.wav
4	97	1	2	0	C	1	1	703	1	Ⴕ	cut_r_stereo_44KHz.wav
4	98	4	3	2	I	2	0	903	0	Ⴒ	cut_f_stereo_44KHz.wav
4	99	2	1	0	C	1	1	764	1	Ⴌ	cut_n_stereo_44KHz.wav
4	100	3	4	2	I	1	0	703	0	Ⴔ	cut_oei_stereo_44KHz.wav
4	101	2	2	1	C	1	0	563	0	Ⴌ	cut_r_stereo_44KHz.wav
4	102	3	3	2	I	1	0	604	0	Ⴔ	cut_f_stereo_44KHz.wav
4	103	1	1	1	C	2	1	508	1	Ⴕ	cut_n_stereo_44KHz.wav
4	104	4	4	2	I	1	0	664	1	Ⴒ	cut_oei_stereo_44KHz.wav
4	105	3	3	2	I	1	0	485	1	Ⴔ	cut_f_stereo_44KHz.wav
4	106	1	2	0	C	2	0	748	0	Ⴕ	cut_r_stereo_44KHz.wav
4	107	4	4	2	I	1	0	740	0	Ⴒ	cut_oei_stereo_44KHz.wav
4	108	2	1	0	C	1	1	706	1	Ⴌ	cut_n_stereo_44KHz.wav
4	109	3	4	2	I	1	0	732	1	Ⴔ	cut_oei_stereo_44KHz.wav
4	110	4	3	2	I	1	0	466	1	Ⴒ	cut_f_stereo_44KHz.wav
4	111	2	2	1	C	2	1	509	1	Ⴌ	cut_r_stereo_44KHz.wav
4	112	1	1	1	C	2	1	484	1	Ⴕ	cut_n_stereo_44KHz.wav
4	113	3	3	2	I	1	0	444	0	Ⴔ	cut_f_stereo_44KHz.wav
4	114	2	1	0	C	1	1	539	1	Ⴌ	cut_n_stereo_44KHz.wav
4	115	1	2	0	C	1	1	308	1	Ⴕ	cut_r_stereo_44KHz.wav
4	116	4	4	2	I	1	0	709	0	Ⴒ	cut_oei_stereo_44KHz.wav
4	117	2	2	1	C	1	0	390	0	Ⴌ	cut_r_stereo_44KHz.wav
4	118	1	1	1	C	2	1	622	1	Ⴕ	cut_n_stereo_44KHz.wav
4	119	4	3	2	I	1	0	884	0	Ⴒ	cut_f_stereo_44KHz.wav
4	120	3	4	2	I	1	0	526	0	Ⴔ	cut_oei_stereo_44KHz.wav
4	121	4	4	2	I	1	0	753	0	Ⴒ	cut_oei_stereo_44KHz.wav
4	122	1	1	1	C	1	0	534	0	Ⴕ	cut_n_stereo_44KHz.wav
4	123	3	3	2	I	2	0	811	0	Ⴔ	cut_f_stereo_44KHz.wav
4	124	2	1	0	C	2	0	756	0	Ⴌ	cut_n_stereo_44KHz.wav
4	125	3	4	2	I	2	0	906	1	Ⴔ	cut_oei_stereo_44KHz.wav
4	126	4	3	2	I	1	0	672	1	Ⴒ	cut_f_stereo_44KHz.wav
4	127	2	2	1	C	2	1	837	1	Ⴌ	cut_r_stereo_44KHz.wav
4	128	1	2	0	C	1	1	732	1	Ⴕ	cut_r_stereo_44KHz.wav
4	129	2	1	0	C	2	0	871	0	Ⴌ	cut_n_stereo_44KHz.wav
4	130	4	4	2	I	1	0	604	0	Ⴒ	cut_oei_stereo_44KHz.wav
4	131	1	2	0	C	1	1	725	1	Ⴕ	cut_r_stereo_44KHz.wav
4	132	3	3	2	I	1	0	602	1	Ⴔ	cut_f_stereo_44KHz.wav
4	133	2	2	1	C	1	0	667	0	Ⴌ	cut_r_stereo_44KHz.wav
4	134	4	3	2	I	1	0	472	1	Ⴒ	cut_f_stereo_44KHz.wav
4	135	3	4	2	I	2	0	783	1	Ⴔ	cut_oei_stereo_44KHz.wav
4	136	1	1	1	C	1	0	758	0	Ⴕ	cut_n_stereo_44KHz.wav
4	137	3	3	2	I	1	0	162	1	Ⴔ	cut_f_stereo_44KHz.wav
4	138	1	1	1	C	2	1	791	1	Ⴕ	cut_n_stereo_44KHz.wav
4	139	4	3	2	I	1	0	1273	1	Ⴒ	cut_f_stereo_44KHz.wav
4	140	2	1	0	C	2	0	728	0	Ⴌ	cut_n_stereo_44KHz.wav
4	141	4	4	2	I	1	0	703	1	Ⴒ	cut_oei_stereo_44KHz.wav
4	142	1	2	0	C	2	0	808	0	Ⴕ	cut_r_stereo_44KHz.wav
4	143	3	4	2	I	2	0	1040	1	Ⴔ	cut_oei_stereo_44KHz.wav
4	144	2	2	1	C	1	0	671	0	Ⴌ	cut_r_stereo_44KHz.wav
4	145	4	4	2	I	1	0	795	0	Ⴒ	cut_oei_stereo_44KHz.wav
4	146	3	4	2	I	1	0	595	0	Ⴔ	cut_oei_stereo_44KHz.wav
4	147	1	1	1	C	2	1	592	1	Ⴕ	cut_n_stereo_44KHz.wav
4	148	2	2	1	C	2	1	665	1	Ⴌ	cut_r_stereo_44KHz.wav
4	149	3	3	2	I	2	0	795	0	Ⴔ	cut_f_stereo_44KHz.wav
4	150	4	3	2	I	1	0	543	0	Ⴒ	cut_f_stereo_44KHz.wav
4	151	2	1	0	C	1	1	488	1	Ⴌ	cut_n_stereo_44KHz.wav
4	152	1	2	0	C	1	1	661	1	Ⴕ	cut_r_stereo_44KHz.wav
4	153	2	2	1	C	2	1	776	1	Ⴌ	cut_r_stereo_44KHz.wav
4	154	3	3	2	I	1	0	574	1	Ⴔ	cut_f_stereo_44KHz.wav
4	155	4	3	2	I	1	0	707	1	Ⴒ	cut_f_stereo_44KHz.wav
4	156	1	2	0	C	1	1	742	1	Ⴕ	cut_r_stereo_44KHz.wav
4	157	2	1	0	C	2	0	643	0	Ⴌ	cut_n_stereo_44KHz.wav
4	158	1	1	1	C	2	1	604	1	Ⴕ	cut_n_stereo_44KHz.wav
4	159	3	4	2	I	1	0	720	0	Ⴔ	cut_oei_stereo_44KHz.wav
4	160	4	4	2	I	1	0	617	0	Ⴒ	cut_oei_stereo_44KHz.wav
4	161	2	1	0	C	2	0	505	0	Ⴌ	cut_n_stereo_44KHz.wav
4	162	4	3	2	I	1	0	115	0	Ⴒ	cut_f_stereo_44KHz.wav
4	163	3	3	2	I	1	0	547	0	Ⴔ	cut_f_stereo_44KHz.wav
4	164	1	2	0	C	1	1	533	1	Ⴕ	cut_r_stereo_44KHz.wav
4	165	2	2	1	C	1	0	649	0	Ⴌ	cut_r_stereo_44KHz.wav
4	166	3	4	2	I	1	0	535	0	Ⴔ	cut_oei_stereo_44KHz.wav
4	167	4	4	2	I	1	0	561	1	Ⴒ	cut_oei_stereo_44KHz.wav
4	168	1	1	1	C	2	1	530	1	Ⴕ	cut_n_stereo_44KHz.wav
4	169	2	1	0	C	2	0	519	0	Ⴌ	cut_n_stereo_44KHz.wav
4	170	1	1	1	C	2	1	566	1	Ⴕ	cut_n_stereo_44KHz.wav
4	171	3	3	2	I	1	0	605	1	Ⴔ	cut_f_stereo_44KHz.wav
4	172	4	4	2	I	1	0	699	1	Ⴒ	cut_oei_stereo_44KHz.wav
4	173	3	4	2	I	2	0	769	1	Ⴔ	cut_oei_stereo_44KHz.wav
4	174	2	2	1	C	1	0	604	0	Ⴌ	cut_r_stereo_44KHz.wav
4	175	1	2	0	C	1	1	488	1	Ⴕ	cut_r_stereo_44KHz.wav
4	176	4	3	2	I	1	0	633	0	Ⴒ	cut_f_stereo_44KHz.wav
4	177	2	2	1	C	2	1	462	1	Ⴌ	cut_r_stereo_44KHz.wav
4	178	1	2	0	C	2	0	526	0	Ⴕ	cut_r_stereo_44KHz.wav
4	179	3	3	2	I	1	0	423	1	Ⴔ	cut_f_stereo_44KHz.wav
4	180	4	3	2	I	2	0	504	0	Ⴒ	cut_f_stereo_44KHz.wav
4	181	1	1	1	C	1	0	671	0	Ⴕ	cut_n_stereo_44KHz.wav
4	182	4	4	2	I	1	0	508	1	Ⴒ	cut_oei_stereo_44KHz.wav
4	183	3	4	2	I	1	0	416	0	Ⴔ	cut_oei_stereo_44KHz.wav
4	184	2	1	0	C	2	0	628	0	Ⴌ	cut_n_stereo_44KHz.wav
4	185	3	4	2	I	1	0	450	1	Ⴔ	cut_oei_stereo_44KHz.wav
4	186	4	3	2	I	2	0	509	0	Ⴒ	cut_f_stereo_44KHz.wav
4	187	2	1	0	C	1	1	745	1	Ⴌ	cut_n_stereo_44KHz.wav
4	188	1	2	0	C	2	0	669	0	Ⴕ	cut_r_stereo_44KHz.wav
4	189	4	4	2	I	1	0	727	1	Ⴒ	cut_oei_stereo_44KHz.wav
4	190	3	3	2	I	1	0	609	0	Ⴔ	cut_f_stereo_44KHz.wav
4	191	2	2	1	C	2	1	665	1	Ⴌ	cut_r_stereo_44KHz.wav
4	192	1	1	1	C	1	0	770	0	Ⴕ	cut_n_stereo_44KHz.wav
4	193	2	2	1	C	2	1	724	1	Ⴌ	cut_r_stereo_44KHz.wav
4	194	4	4	2	I	1	0	782	0	Ⴒ	cut_oei_stereo_44KHz.wav
4	195	1	1	1	C	2	1	585	1	Ⴕ	cut_n_stereo_44KHz.wav
4	196	3	3	2	I	1	0	673	1	Ⴔ	cut_f_stereo_44KHz.wav
4	197	2	1	0	C	2	0	688	0	Ⴌ	cut_n_stereo_44KHz.wav
4	198	4	3	2	I	1	0	551	1	Ⴒ	cut_f_stereo_44KHz.wav
4	199	3	4	2	I	1	0	820	1	Ⴔ	cut_oei_stereo_44KHz.wav
4	200	1	2	0	C	1	1	699	1	Ⴕ	cut_r_stereo_44KHz.wav
