block	trial	Vstim	Astim	match	C/I	resp	result	RT	fb	V-file	A-file
LR

0	1	2	4	0	C	2	0	1389	0	poli_8sides 22_whiteLine3.jpg	Practice4_b26_stereo_44KHz.wav
0	2	1	1	1	C	1	0	564	0	poli_8sides 24_whiteLine3.jpg	Practice3_b26_cut1_stereo_44KHz.wav
0	3	2	3	1	C	1	0	652	0	poli_8sides 22_whiteLine3.jpg	Practice1_b27_cut1_stereo_44KHz.wav
0	4	1	2	0	C	1	1	749	1	poli_8sides 24_whiteLine3.jpg	Practice2_b27_cut2_stereo_44KHz.wav
0	5	1	1	1	C	2	1	781	1	poli_8sides 24_whiteLine3.jpg	Practice3_b26_cut1_stereo_44KHz.wav
0	6	2	3	1	C	1	0	491	0	poli_8sides 22_whiteLine3.jpg	Practice1_b27_cut1_stereo_44KHz.wav
0	7	1	2	0	C	1	1	553	1	poli_8sides 24_whiteLine3.jpg	Practice2_b27_cut2_stereo_44KHz.wav
0	8	2	4	0	C	2	0	685	0	poli_8sides 22_whiteLine3.jpg	Practice4_b26_stereo_44KHz.wav
0	9	2	4	0	C	1	1	976	1	poli_8sides 22_whiteLine3.jpg	Practice4_b26_stereo_44KHz.wav
0	10	2	3	1	C	1	0	471	0	poli_8sides 22_whiteLine3.jpg	Practice1_b27_cut1_stereo_44KHz.wav
0	11	1	2	0	C	1	1	611	1	poli_8sides 24_whiteLine3.jpg	Practice2_b27_cut2_stereo_44KHz.wav
0	12	1	1	1	C	2	1	578	1	poli_8sides 24_whiteLine3.jpg	Practice3_b26_cut1_stereo_44KHz.wav
0	13	2	4	0	C	2	0	693	0	poli_8sides 22_whiteLine3.jpg	Practice4_b26_stereo_44KHz.wav
0	14	2	3	1	C	2	1	846	1	poli_8sides 22_whiteLine3.jpg	Practice1_b27_cut1_stereo_44KHz.wav
0	15	1	1	1	C	1	0	547	0	poli_8sides 24_whiteLine3.jpg	Practice3_b26_cut1_stereo_44KHz.wav
0	16	1	2	0	C	1	1	560	1	poli_8sides 24_whiteLine3.jpg	Practice2_b27_cut2_stereo_44KHz.wav
0	17	1	2	0	C	1	1	563	1	poli_8sides 24_whiteLine3.jpg	Practice2_b27_cut2_stereo_44KHz.wav
0	18	2	4	0	C	2	0	548	0	poli_8sides 22_whiteLine3.jpg	Practice4_b26_stereo_44KHz.wav
0	19	1	1	1	C	1	0	409	0	poli_8sides 24_whiteLine3.jpg	Practice3_b26_cut1_stereo_44KHz.wav
0	20	2	3	1	C	2	1	935	1	poli_8sides 22_whiteLine3.jpg	Practice1_b27_cut1_stereo_44KHz.wav
0	21	1	1	1	C	2	1	763	1	poli_8sides 24_whiteLine3.jpg	Practice3_b26_cut1_stereo_44KHz.wav
0	22	2	3	1	C	2	1	1072	1	poli_8sides 22_whiteLine3.jpg	Practice1_b27_cut1_stereo_44KHz.wav
0	23	1	2	0	C	1	1	508	1	poli_8sides 24_whiteLine3.jpg	Practice2_b27_cut2_stereo_44KHz.wav
0	24	2	4	0	C	1	1	853	1	poli_8sides 22_whiteLine3.jpg	Practice4_b26_stereo_44KHz.wav
0	25	1	2	0	C	1	1	577	1	poli_8sides 24_whiteLine3.jpg	Practice2_b27_cut2_stereo_44KHz.wav
0	26	2	3	1	C	1	0	980	0	poli_8sides 22_whiteLine3.jpg	Practice1_b27_cut1_stereo_44KHz.wav
0	27	1	1	1	C	2	1	707	1	poli_8sides 24_whiteLine3.jpg	Practice3_b26_cut1_stereo_44KHz.wav
0	28	2	4	0	C	1	1	857	1	poli_8sides 22_whiteLine3.jpg	Practice4_b26_stereo_44KHz.wav
0	29	1	2	0	C	1	1	876	1	poli_8sides 24_whiteLine3.jpg	Practice2_b27_cut2_stereo_44KHz.wav
0	30	2	4	0	C	1	1	646	1	poli_8sides 22_whiteLine3.jpg	Practice4_b26_stereo_44KHz.wav
avg_resp = 737
1	1	3	4	2	I	2	0	1222	0	poli_8sides 4_whiteLine3.jpg	MediumLong_e04_stereo_44KHz.wav
1	2	2	2	1	C	1	0	1003	0	poli_8sides 15_whiteLine3.jpg	MediumLong_b10_cut2_L_stereo_44KHz.wav
1	3	1	2	0	C	1	1	849	1	poli_8sides 11_whiteLine3.jpg	MediumLong_b10_cut2_L_stereo_44KHz.wav
1	4	4	3	2	I	2	0	614	0	poli_8sides 9_whiteLine3.jpg	Medium_e21_stereo_44KHz.wav
1	5	1	1	1	C	2	1	1012	1	poli_8sides 11_whiteLine3.jpg	MediumLong_e17_cut2_stereo_44KHz.wav
1	6	4	4	2	I	1	0	1159	1	poli_8sides 9_whiteLine3.jpg	MediumLong_e04_stereo_44KHz.wav
1	7	3	3	2	I	1	0	676	1	poli_8sides 4_whiteLine3.jpg	Medium_e21_stereo_44KHz.wav
1	8	2	1	0	C	2	0	664	0	poli_8sides 15_whiteLine3.jpg	MediumLong_e17_cut2_stereo_44KHz.wav
1	9	1	1	1	C	1	0	798	0	poli_8sides 11_whiteLine3.jpg	MediumLong_e17_cut2_stereo_44KHz.wav
1	10	2	1	0	C	1	1	645	1	poli_8sides 15_whiteLine3.jpg	MediumLong_e17_cut2_stereo_44KHz.wav
1	11	4	4	2	I	1	0	970	0	poli_8sides 9_whiteLine3.jpg	MediumLong_e04_stereo_44KHz.wav
1	12	3	3	2	I	1	0	409	1	poli_8sides 4_whiteLine3.jpg	Medium_e21_stereo_44KHz.wav
1	13	4	3	2	I	2	0	702	1	poli_8sides 9_whiteLine3.jpg	Medium_e21_stereo_44KHz.wav
1	14	2	2	1	C	2	1	773	1	poli_8sides 15_whiteLine3.jpg	MediumLong_b10_cut2_L_stereo_44KHz.wav
1	15	1	2	0	C	1	1	830	1	poli_8sides 11_whiteLine3.jpg	MediumLong_b10_cut2_L_stereo_44KHz.wav
1	16	3	4	2	I	2	0	926	1	poli_8sides 4_whiteLine3.jpg	MediumLong_e04_stereo_44KHz.wav
1	17	1	2	0	C	2	0	880	0	poli_8sides 11_whiteLine3.jpg	MediumLong_b10_cut2_L_stereo_44KHz.wav
1	18	2	1	0	C	1	1	693	1	poli_8sides 15_whiteLine3.jpg	MediumLong_e17_cut2_stereo_44KHz.wav
1	19	4	3	2	I	2	0	612	1	poli_8sides 9_whiteLine3.jpg	Medium_e21_stereo_44KHz.wav
1	20	3	3	2	I	1	0	1020	1	poli_8sides 4_whiteLine3.jpg	Medium_e21_stereo_44KHz.wav
1	21	4	4	2	I	1	0	836	1	poli_8sides 9_whiteLine3.jpg	MediumLong_e04_stereo_44KHz.wav
1	22	3	4	2	I	1	0	483	0	poli_8sides 4_whiteLine3.jpg	MediumLong_e04_stereo_44KHz.wav
1	23	1	1	1	C	2	1	833	1	poli_8sides 11_whiteLine3.jpg	MediumLong_e17_cut2_stereo_44KHz.wav
1	24	2	2	1	C	1	0	933	0	poli_8sides 15_whiteLine3.jpg	MediumLong_b10_cut2_L_stereo_44KHz.wav
1	25	3	3	2	I	1	0	852	1	poli_8sides 4_whiteLine3.jpg	Medium_e21_stereo_44KHz.wav
1	26	4	3	2	I	2	0	728	0	poli_8sides 9_whiteLine3.jpg	Medium_e21_stereo_44KHz.wav
1	27	1	1	1	C	1	0	834	0	poli_8sides 11_whiteLine3.jpg	MediumLong_e17_cut2_stereo_44KHz.wav
1	28	2	1	0	C	1	1	568	1	poli_8sides 15_whiteLine3.jpg	MediumLong_e17_cut2_stereo_44KHz.wav
1	29	1	2	0	C	1	1	760	1	poli_8sides 11_whiteLine3.jpg	MediumLong_b10_cut2_L_stereo_44KHz.wav
1	30	4	4	2	I	1	0	700	1	poli_8sides 9_whiteLine3.jpg	MediumLong_e04_stereo_44KHz.wav
1	31	3	4	2	I	2	0	616	1	poli_8sides 4_whiteLine3.jpg	MediumLong_e04_stereo_44KHz.wav
1	32	2	2	1	C	2	1	953	1	poli_8sides 15_whiteLine3.jpg	MediumLong_b10_cut2_L_stereo_44KHz.wav
1	33	3	3	2	I	1	0	822	1	poli_8sides 4_whiteLine3.jpg	Medium_e21_stereo_44KHz.wav
1	34	4	4	2	I	2	0	553	0	poli_8sides 9_whiteLine3.jpg	MediumLong_e04_stereo_44KHz.wav
1	35	1	2	0	C	1	1	638	1	poli_8sides 11_whiteLine3.jpg	MediumLong_b10_cut2_L_stereo_44KHz.wav
1	36	2	2	1	C	1	0	838	0	poli_8sides 15_whiteLine3.jpg	MediumLong_b10_cut2_L_stereo_44KHz.wav
1	37	4	3	2	I	2	0	805	1	poli_8sides 9_whiteLine3.jpg	Medium_e21_stereo_44KHz.wav
1	38	1	1	1	C	1	0	955	0	poli_8sides 11_whiteLine3.jpg	MediumLong_e17_cut2_stereo_44KHz.wav
1	39	2	1	0	C	1	1	787	1	poli_8sides 15_whiteLine3.jpg	MediumLong_e17_cut2_stereo_44KHz.wav
1	40	3	4	2	I	2	0	588	1	poli_8sides 4_whiteLine3.jpg	MediumLong_e04_stereo_44KHz.wav
1	41	1	2	0	C	1	1	720	1	poli_8sides 11_whiteLine3.jpg	MediumLong_b10_cut2_L_stereo_44KHz.wav
1	42	4	4	2	I	2	0	742	0	poli_8sides 9_whiteLine3.jpg	MediumLong_e04_stereo_44KHz.wav
1	43	3	3	2	I	1	0	693	1	poli_8sides 4_whiteLine3.jpg	Medium_e21_stereo_44KHz.wav
1	44	2	1	0	C	2	0	732	0	poli_8sides 15_whiteLine3.jpg	MediumLong_e17_cut2_stereo_44KHz.wav
1	45	4	3	2	I	2	0	942	1	poli_8sides 9_whiteLine3.jpg	Medium_e21_stereo_44KHz.wav
1	46	3	4	2	I	1	0	785	0	poli_8sides 4_whiteLine3.jpg	MediumLong_e04_stereo_44KHz.wav
1	47	1	1	1	C	2	1	935	1	poli_8sides 11_whiteLine3.jpg	MediumLong_e17_cut2_stereo_44KHz.wav
1	48	2	2	1	C	2	1	644	1	poli_8sides 15_whiteLine3.jpg	MediumLong_b10_cut2_L_stereo_44KHz.wav
1	49	1	1	1	C	2	1	655	1	poli_8sides 11_whiteLine3.jpg	MediumLong_e17_cut2_stereo_44KHz.wav
1	50	4	4	2	I	1	0	757	0	poli_8sides 9_whiteLine3.jpg	MediumLong_e04_stereo_44KHz.wav
1	51	2	1	0	C	1	1	856	1	poli_8sides 15_whiteLine3.jpg	MediumLong_e17_cut2_stereo_44KHz.wav
1	52	3	3	2	I	1	0	816	0	poli_8sides 4_whiteLine3.jpg	Medium_e21_stereo_44KHz.wav
1	53	1	2	0	C	1	1	679	1	poli_8sides 11_whiteLine3.jpg	MediumLong_b10_cut2_L_stereo_44KHz.wav
1	54	2	2	1	C	2	1	675	1	poli_8sides 15_whiteLine3.jpg	MediumLong_b10_cut2_L_stereo_44KHz.wav
1	55	3	4	2	I	1	0	732	0	poli_8sides 4_whiteLine3.jpg	MediumLong_e04_stereo_44KHz.wav
1	56	4	3	2	I	2	0	706	1	poli_8sides 9_whiteLine3.jpg	Medium_e21_stereo_44KHz.wav
1	57	3	4	2	I	2	0	673	1	poli_8sides 4_whiteLine3.jpg	MediumLong_e04_stereo_44KHz.wav
1	58	4	4	2	I	1	0	513	1	poli_8sides 9_whiteLine3.jpg	MediumLong_e04_stereo_44KHz.wav
1	59	1	1	1	C	2	1	706	1	poli_8sides 11_whiteLine3.jpg	MediumLong_e17_cut2_stereo_44KHz.wav
1	60	2	1	0	C	1	1	760	1	poli_8sides 15_whiteLine3.jpg	MediumLong_e17_cut2_stereo_44KHz.wav
1	61	3	3	2	I	1	0	872	0	poli_8sides 4_whiteLine3.jpg	Medium_e21_stereo_44KHz.wav
1	62	2	2	1	C	1	0	782	0	poli_8sides 15_whiteLine3.jpg	MediumLong_b10_cut2_L_stereo_44KHz.wav
1	63	1	2	0	C	1	1	580	1	poli_8sides 11_whiteLine3.jpg	MediumLong_b10_cut2_L_stereo_44KHz.wav
1	64	4	3	2	I	2	0	808	1	poli_8sides 9_whiteLine3.jpg	Medium_e21_stereo_44KHz.wav
1	65	2	1	0	C	1	1	739	1	poli_8sides 15_whiteLine3.jpg	MediumLong_e17_cut2_stereo_44KHz.wav
1	66	1	1	1	C	2	1	714	1	poli_8sides 11_whiteLine3.jpg	MediumLong_e17_cut2_stereo_44KHz.wav
1	67	4	4	2	I	1	0	875	1	poli_8sides 9_whiteLine3.jpg	MediumLong_e04_stereo_44KHz.wav
1	68	3	3	2	I	1	0	845	0	poli_8sides 4_whiteLine3.jpg	Medium_e21_stereo_44KHz.wav
1	69	1	2	0	C	1	1	830	1	poli_8sides 11_whiteLine3.jpg	MediumLong_b10_cut2_L_stereo_44KHz.wav
1	70	2	2	1	C	2	1	765	1	poli_8sides 15_whiteLine3.jpg	MediumLong_b10_cut2_L_stereo_44KHz.wav
1	71	3	4	2	I	2	0	911	0	poli_8sides 4_whiteLine3.jpg	MediumLong_e04_stereo_44KHz.wav
1	72	4	3	2	I	2	0	839	0	poli_8sides 9_whiteLine3.jpg	Medium_e21_stereo_44KHz.wav
1	73	3	3	2	I	1	0	1690	0	poli_8sides 4_whiteLine3.jpg	Medium_e21_stereo_44KHz.wav
1	74	1	1	1	C	1	0	578	0	poli_8sides 11_whiteLine3.jpg	MediumLong_e17_cut2_stereo_44KHz.wav
1	75	4	3	2	I	2	0	712	1	poli_8sides 9_whiteLine3.jpg	Medium_e21_stereo_44KHz.wav
1	76	2	1	0	C	1	1	785	1	poli_8sides 15_whiteLine3.jpg	MediumLong_e17_cut2_stereo_44KHz.wav
1	77	3	4	2	I	2	0	1279	1	poli_8sides 4_whiteLine3.jpg	MediumLong_e04_stereo_44KHz.wav
1	78	1	2	0	C	1	1	619	1	poli_8sides 11_whiteLine3.jpg	MediumLong_b10_cut2_L_stereo_44KHz.wav
1	79	2	2	1	C	2	1	672	1	poli_8sides 15_whiteLine3.jpg	MediumLong_b10_cut2_L_stereo_44KHz.wav
1	80	4	4	2	I	1	0	841	1	poli_8sides 9_whiteLine3.jpg	MediumLong_e04_stereo_44KHz.wav
1	81	3	3	2	I	2	0	702	1	poli_8sides 4_whiteLine3.jpg	Medium_e21_stereo_44KHz.wav
1	82	2	1	0	C	2	0	1075	0	poli_8sides 15_whiteLine3.jpg	MediumLong_e17_cut2_stereo_44KHz.wav
1	83	4	3	2	I	2	0	768	0	poli_8sides 9_whiteLine3.jpg	Medium_e21_stereo_44KHz.wav
1	84	1	2	0	C	1	1	403	1	poli_8sides 11_whiteLine3.jpg	MediumLong_b10_cut2_L_stereo_44KHz.wav
1	85	2	2	1	C	2	1	698	1	poli_8sides 15_whiteLine3.jpg	MediumLong_b10_cut2_L_stereo_44KHz.wav
1	86	3	4	2	I	2	0	701	0	poli_8sides 4_whiteLine3.jpg	MediumLong_e04_stereo_44KHz.wav
1	87	1	1	1	C	1	0	753	0	poli_8sides 11_whiteLine3.jpg	MediumLong_e17_cut2_stereo_44KHz.wav
1	88	4	4	2	I	1	0	967	0	poli_8sides 9_whiteLine3.jpg	MediumLong_e04_stereo_44KHz.wav
1	89	2	1	0	C	1	1	873	1	poli_8sides 15_whiteLine3.jpg	MediumLong_e17_cut2_stereo_44KHz.wav
1	90	1	1	1	C	1	0	872	0	poli_8sides 11_whiteLine3.jpg	MediumLong_e17_cut2_stereo_44KHz.wav
1	91	3	3	2	I	2	0	963	1	poli_8sides 4_whiteLine3.jpg	Medium_e21_stereo_44KHz.wav
1	92	4	4	2	I	1	0	708	0	poli_8sides 9_whiteLine3.jpg	MediumLong_e04_stereo_44KHz.wav
1	93	1	2	0	C	1	1	716	1	poli_8sides 11_whiteLine3.jpg	MediumLong_b10_cut2_L_stereo_44KHz.wav
1	94	2	2	1	C	2	1	634	1	poli_8sides 15_whiteLine3.jpg	MediumLong_b10_cut2_L_stereo_44KHz.wav
1	95	3	4	2	I	2	0	621	0	poli_8sides 4_whiteLine3.jpg	MediumLong_e04_stereo_44KHz.wav
1	96	4	3	2	I	2	0	666	1	poli_8sides 9_whiteLine3.jpg	Medium_e21_stereo_44KHz.wav
1	97	3	4	2	I	2	0	585	1	poli_8sides 4_whiteLine3.jpg	MediumLong_e04_stereo_44KHz.wav
1	98	2	2	1	C	2	1	718	1	poli_8sides 15_whiteLine3.jpg	MediumLong_b10_cut2_L_stereo_44KHz.wav
1	99	1	2	0	C	1	1	1104	1	poli_8sides 11_whiteLine3.jpg	MediumLong_b10_cut2_L_stereo_44KHz.wav
1	100	4	4	2	I	2	0	777	0	poli_8sides 9_whiteLine3.jpg	MediumLong_e04_stereo_44KHz.wav
1	101	1	1	1	C	1	0	524	0	poli_8sides 11_whiteLine3.jpg	MediumLong_e17_cut2_stereo_44KHz.wav
1	102	3	3	2	I	2	0	657	1	poli_8sides 4_whiteLine3.jpg	Medium_e21_stereo_44KHz.wav
1	103	2	1	0	C	2	0	723	0	poli_8sides 15_whiteLine3.jpg	MediumLong_e17_cut2_stereo_44KHz.wav
1	104	4	3	2	I	2	0	918	0	poli_8sides 9_whiteLine3.jpg	Medium_e21_stereo_44KHz.wav
1	105	2	2	1	C	1	0	632	0	poli_8sides 15_whiteLine3.jpg	MediumLong_b10_cut2_L_stereo_44KHz.wav
1	106	4	3	2	I	2	0	573	0	poli_8sides 9_whiteLine3.jpg	Medium_e21_stereo_44KHz.wav
1	107	1	1	1	C	2	1	778	1	poli_8sides 11_whiteLine3.jpg	MediumLong_e17_cut2_stereo_44KHz.wav
1	108	3	3	2	I	2	0	1036	0	poli_8sides 4_whiteLine3.jpg	Medium_e21_stereo_44KHz.wav
1	109	4	4	2	I	1	0	653	1	poli_8sides 9_whiteLine3.jpg	MediumLong_e04_stereo_44KHz.wav
1	110	3	4	2	I	2	0	763	1	poli_8sides 4_whiteLine3.jpg	MediumLong_e04_stereo_44KHz.wav
1	111	2	1	0	C	2	0	900	0	poli_8sides 15_whiteLine3.jpg	MediumLong_e17_cut2_stereo_44KHz.wav
1	112	1	2	0	C	1	1	699	1	poli_8sides 11_whiteLine3.jpg	MediumLong_b10_cut2_L_stereo_44KHz.wav
1	113	3	3	2	I	1	0	739	1	poli_8sides 4_whiteLine3.jpg	Medium_e21_stereo_44KHz.wav
1	114	2	2	1	C	2	1	965	1	poli_8sides 15_whiteLine3.jpg	MediumLong_b10_cut2_L_stereo_44KHz.wav
1	115	4	3	2	I	2	0	829	0	poli_8sides 9_whiteLine3.jpg	Medium_e21_stereo_44KHz.wav
1	116	1	1	1	C	1	0	561	0	poli_8sides 11_whiteLine3.jpg	MediumLong_e17_cut2_stereo_44KHz.wav
1	117	3	4	2	I	2	0	598	1	poli_8sides 4_whiteLine3.jpg	MediumLong_e04_stereo_44KHz.wav
1	118	1	2	0	C	1	1	928	1	poli_8sides 11_whiteLine3.jpg	MediumLong_b10_cut2_L_stereo_44KHz.wav
1	119	2	1	0	C	2	0	672	0	poli_8sides 15_whiteLine3.jpg	MediumLong_e17_cut2_stereo_44KHz.wav
1	120	4	4	2	I	1	0	599	1	poli_8sides 9_whiteLine3.jpg	MediumLong_e04_stereo_44KHz.wav
1	121	2	1	0	C	1	1	749	1	poli_8sides 15_whiteLine3.jpg	MediumLong_e17_cut2_stereo_44KHz.wav
1	122	4	3	2	I	2	0	731	0	poli_8sides 9_whiteLine3.jpg	Medium_e21_stereo_44KHz.wav
1	123	3	4	2	I	2	0	1074	0	poli_8sides 4_whiteLine3.jpg	MediumLong_e04_stereo_44KHz.wav
1	124	1	2	0	C	1	1	772	1	poli_8sides 11_whiteLine3.jpg	MediumLong_b10_cut2_L_stereo_44KHz.wav
1	125	2	2	1	C	2	1	710	1	poli_8sides 15_whiteLine3.jpg	MediumLong_b10_cut2_L_stereo_44KHz.wav
1	126	1	1	1	C	2	1	788	1	poli_8sides 11_whiteLine3.jpg	MediumLong_e17_cut2_stereo_44KHz.wav
1	127	3	3	2	I	2	0	688	1	poli_8sides 4_whiteLine3.jpg	Medium_e21_stereo_44KHz.wav
1	128	4	4	2	I	1	0	619	0	poli_8sides 9_whiteLine3.jpg	MediumLong_e04_stereo_44KHz.wav
1	129	3	3	2	I	1	0	692	1	poli_8sides 4_whiteLine3.jpg	Medium_e21_stereo_44KHz.wav
1	130	2	1	0	C	2	0	654	0	poli_8sides 15_whiteLine3.jpg	MediumLong_e17_cut2_stereo_44KHz.wav
1	131	1	1	1	C	2	1	905	1	poli_8sides 11_whiteLine3.jpg	MediumLong_e17_cut2_stereo_44KHz.wav
1	132	4	3	2	I	2	0	664	0	poli_8sides 9_whiteLine3.jpg	Medium_e21_stereo_44KHz.wav
1	133	1	2	0	C	1	1	775	1	poli_8sides 11_whiteLine3.jpg	MediumLong_b10_cut2_L_stereo_44KHz.wav
1	134	2	2	1	C	2	1	1099	1	poli_8sides 15_whiteLine3.jpg	MediumLong_b10_cut2_L_stereo_44KHz.wav
1	135	4	4	2	I	1	0	670	0	poli_8sides 9_whiteLine3.jpg	MediumLong_e04_stereo_44KHz.wav
1	136	3	4	2	I	1	0	671	0	poli_8sides 4_whiteLine3.jpg	MediumLong_e04_stereo_44KHz.wav
1	137	2	1	0	C	1	1	758	1	poli_8sides 15_whiteLine3.jpg	MediumLong_e17_cut2_stereo_44KHz.wav
1	138	3	3	2	I	2	0	523	0	poli_8sides 4_whiteLine3.jpg	Medium_e21_stereo_44KHz.wav
1	139	4	3	2	I	2	0	816	1	poli_8sides 9_whiteLine3.jpg	Medium_e21_stereo_44KHz.wav
1	140	1	1	1	C	2	1	686	1	poli_8sides 11_whiteLine3.jpg	MediumLong_e17_cut2_stereo_44KHz.wav
1	141	4	4	2	I	1	0	643	1	poli_8sides 9_whiteLine3.jpg	MediumLong_e04_stereo_44KHz.wav
1	142	3	4	2	I	2	0	676	0	poli_8sides 4_whiteLine3.jpg	MediumLong_e04_stereo_44KHz.wav
1	143	2	2	1	C	2	1	829	1	poli_8sides 15_whiteLine3.jpg	MediumLong_b10_cut2_L_stereo_44KHz.wav
1	144	1	2	0	C	2	0	866	0	poli_8sides 11_whiteLine3.jpg	MediumLong_b10_cut2_L_stereo_44KHz.wav
1	145	3	3	2	I	1	0	1009	0	poli_8sides 4_whiteLine3.jpg	Medium_e21_stereo_44KHz.wav
1	146	4	3	2	I	2	0	635	0	poli_8sides 9_whiteLine3.jpg	Medium_e21_stereo_44KHz.wav
1	147	1	1	1	C	2	1	678	1	poli_8sides 11_whiteLine3.jpg	MediumLong_e17_cut2_stereo_44KHz.wav
1	148	2	1	0	C	1	1	601	1	poli_8sides 15_whiteLine3.jpg	MediumLong_e17_cut2_stereo_44KHz.wav
1	149	3	4	2	I	2	0	721	0	poli_8sides 4_whiteLine3.jpg	MediumLong_e04_stereo_44KHz.wav
1	150	4	4	2	I	1	0	545	1	poli_8sides 9_whiteLine3.jpg	MediumLong_e04_stereo_44KHz.wav
1	151	1	2	0	C	1	1	1031	1	poli_8sides 11_whiteLine3.jpg	MediumLong_b10_cut2_L_stereo_44KHz.wav
1	152	2	2	1	C	2	1	646	1	poli_8sides 15_whiteLine3.jpg	MediumLong_b10_cut2_L_stereo_44KHz.wav
1	153	1	2	0	C	2	0	401	0	poli_8sides 11_whiteLine3.jpg	MediumLong_b10_cut2_L_stereo_44KHz.wav
1	154	4	3	2	I	2	0	655	1	poli_8sides 9_whiteLine3.jpg	Medium_e21_stereo_44KHz.wav
1	155	3	4	2	I	1	0	704	0	poli_8sides 4_whiteLine3.jpg	MediumLong_e04_stereo_44KHz.wav
1	156	2	1	0	C	1	1	613	1	poli_8sides 15_whiteLine3.jpg	MediumLong_e17_cut2_stereo_44KHz.wav
1	157	3	3	2	I	2	0	749	0	poli_8sides 4_whiteLine3.jpg	Medium_e21_stereo_44KHz.wav
1	158	2	2	1	C	2	1	704	1	poli_8sides 15_whiteLine3.jpg	MediumLong_b10_cut2_L_stereo_44KHz.wav
1	159	4	4	2	I	1	0	516	1	poli_8sides 9_whiteLine3.jpg	MediumLong_e04_stereo_44KHz.wav
1	160	1	1	1	C	1	0	830	0	poli_8sides 11_whiteLine3.jpg	MediumLong_e17_cut2_stereo_44KHz.wav
1	161	2	1	0	C	1	1	617	1	poli_8sides 15_whiteLine3.jpg	MediumLong_e17_cut2_stereo_44KHz.wav
1	162	1	1	1	C	2	1	886	1	poli_8sides 11_whiteLine3.jpg	MediumLong_e17_cut2_stereo_44KHz.wav
1	163	4	3	2	I	2	0	656	1	poli_8sides 9_whiteLine3.jpg	Medium_e21_stereo_44KHz.wav
1	164	3	3	2	I	1	0	874	0	poli_8sides 4_whiteLine3.jpg	Medium_e21_stereo_44KHz.wav
1	165	1	2	0	C	1	1	704	1	poli_8sides 11_whiteLine3.jpg	MediumLong_b10_cut2_L_stereo_44KHz.wav
1	166	4	4	2	I	1	0	896	0	poli_8sides 9_whiteLine3.jpg	MediumLong_e04_stereo_44KHz.wav
1	167	2	2	1	C	1	0	795	0	poli_8sides 15_whiteLine3.jpg	MediumLong_b10_cut2_L_stereo_44KHz.wav
1	168	3	4	2	I	1	0	768	0	poli_8sides 4_whiteLine3.jpg	MediumLong_e04_stereo_44KHz.wav
1	169	4	4	2	I	1	0	564	0	poli_8sides 9_whiteLine3.jpg	MediumLong_e04_stereo_44KHz.wav
1	170	3	3	2	I	1	0	625	1	poli_8sides 4_whiteLine3.jpg	Medium_e21_stereo_44KHz.wav
1	171	2	2	1	C	1	0	491	0	poli_8sides 15_whiteLine3.jpg	MediumLong_b10_cut2_L_stereo_44KHz.wav
1	172	1	1	1	C	2	1	1046	1	poli_8sides 11_whiteLine3.jpg	MediumLong_e17_cut2_stereo_44KHz.wav
1	173	4	3	2	I	2	0	724	0	poli_8sides 9_whiteLine3.jpg	Medium_e21_stereo_44KHz.wav
1	174	1	2	0	C	1	1	799	1	poli_8sides 11_whiteLine3.jpg	MediumLong_b10_cut2_L_stereo_44KHz.wav
1	175	3	4	2	I	1	0	742	1	poli_8sides 4_whiteLine3.jpg	MediumLong_e04_stereo_44KHz.wav
1	176	2	1	0	C	2	0	605	0	poli_8sides 15_whiteLine3.jpg	MediumLong_e17_cut2_stereo_44KHz.wav
1	177	1	1	1	C	1	0	663	0	poli_8sides 11_whiteLine3.jpg	MediumLong_e17_cut2_stereo_44KHz.wav
1	178	2	2	1	C	1	0	880	0	poli_8sides 15_whiteLine3.jpg	MediumLong_b10_cut2_L_stereo_44KHz.wav
1	179	4	3	2	I	1	0	529	1	poli_8sides 9_whiteLine3.jpg	Medium_e21_stereo_44KHz.wav
1	180	3	3	2	I	2	0	675	1	poli_8sides 4_whiteLine3.jpg	Medium_e21_stereo_44KHz.wav
1	181	1	2	0	C	1	1	768	1	poli_8sides 11_whiteLine3.jpg	MediumLong_b10_cut2_L_stereo_44KHz.wav
1	182	3	4	2	I	1	0	1109	0	poli_8sides 4_whiteLine3.jpg	MediumLong_e04_stereo_44KHz.wav
1	183	4	4	2	I	1	0	893	1	poli_8sides 9_whiteLine3.jpg	MediumLong_e04_stereo_44KHz.wav
1	184	2	1	0	C	1	1	973	1	poli_8sides 15_whiteLine3.jpg	MediumLong_e17_cut2_stereo_44KHz.wav
1	185	3	4	2	I	2	0	863	0	poli_8sides 4_whiteLine3.jpg	MediumLong_e04_stereo_44KHz.wav
1	186	1	1	1	C	2	1	876	1	poli_8sides 11_whiteLine3.jpg	MediumLong_e17_cut2_stereo_44KHz.wav
1	187	2	2	1	C	2	1	680	1	poli_8sides 15_whiteLine3.jpg	MediumLong_b10_cut2_L_stereo_44KHz.wav
1	188	4	3	2	I	2	0	810	1	poli_8sides 9_whiteLine3.jpg	Medium_e21_stereo_44KHz.wav
1	189	3	3	2	I	2	0	688	1	poli_8sides 4_whiteLine3.jpg	Medium_e21_stereo_44KHz.wav
1	190	4	4	2	I	1	0	805	0	poli_8sides 9_whiteLine3.jpg	MediumLong_e04_stereo_44KHz.wav
1	191	2	1	0	C	2	0	516	0	poli_8sides 15_whiteLine3.jpg	MediumLong_e17_cut2_stereo_44KHz.wav
1	192	1	2	0	C	2	0	718	0	poli_8sides 11_whiteLine3.jpg	MediumLong_b10_cut2_L_stereo_44KHz.wav
1	193	4	4	2	I	1	0	972	0	poli_8sides 9_whiteLine3.jpg	MediumLong_e04_stereo_44KHz.wav
1	194	2	2	1	C	1	0	612	0	poli_8sides 15_whiteLine3.jpg	MediumLong_b10_cut2_L_stereo_44KHz.wav
1	195	3	3	2	I	1	0	608	1	poli_8sides 4_whiteLine3.jpg	Medium_e21_stereo_44KHz.wav
1	196	1	2	0	C	1	1	685	1	poli_8sides 11_whiteLine3.jpg	MediumLong_b10_cut2_L_stereo_44KHz.wav
1	197	4	3	2	I	2	0	642	0	poli_8sides 9_whiteLine3.jpg	Medium_e21_stereo_44KHz.wav
1	198	3	4	2	I	1	0	1055	0	poli_8sides 4_whiteLine3.jpg	MediumLong_e04_stereo_44KHz.wav
1	199	1	1	1	C	2	1	698	1	poli_8sides 11_whiteLine3.jpg	MediumLong_e17_cut2_stereo_44KHz.wav
1	200	2	1	0	C	2	0	599	0	poli_8sides 15_whiteLine3.jpg	MediumLong_e17_cut2_stereo_44KHz.wav
2	1	3	4	2	I	2	0	1164	0	poli_8sides 1_whiteLine3.jpg	Medium_e26_stereo_44KHz.wav
2	2	2	1	0	C	2	0	735	0	poli_8sides 2_whiteLine3.jpg	Medium_e13_stereo_44KHz.wav
2	3	4	3	2	I	1	0	530	0	poli_8sides 3_whiteLine3.jpg	Medium_e01_cut1_stereo_44KHz.wav
2	4	1	1	1	C	2	1	814	1	poli_8sides 6_whiteLine3.jpg	Medium_e13_stereo_44KHz.wav
2	5	3	3	2	I	1	0	814	1	poli_8sides 1_whiteLine3.jpg	Medium_e01_cut1_stereo_44KHz.wav
2	6	4	4	2	I	2	0	573	0	poli_8sides 3_whiteLine3.jpg	Medium_e26_stereo_44KHz.wav
2	7	2	2	1	C	1	0	633	0	poli_8sides 2_whiteLine3.jpg	MediumLong_e19_stereo_44KHz.wav
2	8	1	2	0	C	1	1	724	1	poli_8sides 6_whiteLine3.jpg	MediumLong_e19_stereo_44KHz.wav
2	9	2	2	1	C	1	0	757	0	poli_8sides 2_whiteLine3.jpg	MediumLong_e19_stereo_44KHz.wav
2	10	4	3	2	I	2	0	887	0	poli_8sides 3_whiteLine3.jpg	Medium_e01_cut1_stereo_44KHz.wav
2	11	3	4	2	I	1	0	475	0	poli_8sides 1_whiteLine3.jpg	Medium_e26_stereo_44KHz.wav
2	12	1	1	1	C	2	1	700	1	poli_8sides 6_whiteLine3.jpg	Medium_e13_stereo_44KHz.wav
2	13	2	1	0	C	1	1	865	1	poli_8sides 2_whiteLine3.jpg	Medium_e13_stereo_44KHz.wav
2	14	3	3	2	I	2	0	1052	0	poli_8sides 1_whiteLine3.jpg	Medium_e01_cut1_stereo_44KHz.wav
2	15	4	4	2	I	1	0	968	1	poli_8sides 3_whiteLine3.jpg	Medium_e26_stereo_44KHz.wav
2	16	1	2	0	C	1	1	809	1	poli_8sides 6_whiteLine3.jpg	MediumLong_e19_stereo_44KHz.wav
2	17	4	4	2	I	1	0	730	0	poli_8sides 3_whiteLine3.jpg	Medium_e26_stereo_44KHz.wav
2	18	2	1	0	C	2	0	599	0	poli_8sides 2_whiteLine3.jpg	Medium_e13_stereo_44KHz.wav
2	19	1	1	1	C	2	1	618	1	poli_8sides 6_whiteLine3.jpg	Medium_e13_stereo_44KHz.wav
2	20	3	3	2	I	1	0	686	0	poli_8sides 1_whiteLine3.jpg	Medium_e01_cut1_stereo_44KHz.wav
2	21	4	3	2	I	2	0	835	0	poli_8sides 3_whiteLine3.jpg	Medium_e01_cut1_stereo_44KHz.wav
2	22	1	2	0	C	1	1	1009	1	poli_8sides 6_whiteLine3.jpg	MediumLong_e19_stereo_44KHz.wav
2	23	2	2	1	C	1	0	618	0	poli_8sides 2_whiteLine3.jpg	MediumLong_e19_stereo_44KHz.wav
2	24	3	4	2	I	1	0	592	0	poli_8sides 1_whiteLine3.jpg	Medium_e26_stereo_44KHz.wav
2	25	2	2	1	C	1	0	785	0	poli_8sides 2_whiteLine3.jpg	MediumLong_e19_stereo_44KHz.wav
2	26	1	2	0	C	1	1	547	1	poli_8sides 6_whiteLine3.jpg	MediumLong_e19_stereo_44KHz.wav
2	27	3	3	2	I	2	0	665	1	poli_8sides 1_whiteLine3.jpg	Medium_e01_cut1_stereo_44KHz.wav
2	28	4	4	2	I	1	0	712	0	poli_8sides 3_whiteLine3.jpg	Medium_e26_stereo_44KHz.wav
2	29	1	1	1	C	2	1	724	1	poli_8sides 6_whiteLine3.jpg	Medium_e13_stereo_44KHz.wav
2	30	2	1	0	C	1	1	694	1	poli_8sides 2_whiteLine3.jpg	Medium_e13_stereo_44KHz.wav
2	31	3	4	2	I	2	0	666	1	poli_8sides 1_whiteLine3.jpg	Medium_e26_stereo_44KHz.wav
2	32	4	3	2	I	2	0	726	1	poli_8sides 3_whiteLine3.jpg	Medium_e01_cut1_stereo_44KHz.wav
2	33	2	1	0	C	1	1	649	1	poli_8sides 2_whiteLine3.jpg	Medium_e13_stereo_44KHz.wav
2	34	3	4	2	I	2	0	616	1	poli_8sides 1_whiteLine3.jpg	Medium_e26_stereo_44KHz.wav
2	35	4	4	2	I	2	0	514	1	poli_8sides 3_whiteLine3.jpg	Medium_e26_stereo_44KHz.wav
2	36	1	2	0	C	1	1	469	1	poli_8sides 6_whiteLine3.jpg	MediumLong_e19_stereo_44KHz.wav
2	37	2	2	1	C	2	1	574	1	poli_8sides 2_whiteLine3.jpg	MediumLong_e19_stereo_44KHz.wav
2	38	1	1	1	C	1	0	779	0	poli_8sides 6_whiteLine3.jpg	Medium_e13_stereo_44KHz.wav
2	39	3	3	2	I	2	0	709	1	poli_8sides 1_whiteLine3.jpg	Medium_e01_cut1_stereo_44KHz.wav
2	40	4	3	2	I	2	0	715	1	poli_8sides 3_whiteLine3.jpg	Medium_e01_cut1_stereo_44KHz.wav
2	41	2	2	1	C	2	1	575	1	poli_8sides 2_whiteLine3.jpg	MediumLong_e19_stereo_44KHz.wav
2	42	1	2	0	C	1	1	521	1	poli_8sides 6_whiteLine3.jpg	MediumLong_e19_stereo_44KHz.wav
2	43	4	4	2	I	2	0	693	0	poli_8sides 3_whiteLine3.jpg	Medium_e26_stereo_44KHz.wav
2	44	3	4	2	I	2	0	683	0	poli_8sides 1_whiteLine3.jpg	Medium_e26_stereo_44KHz.wav
2	45	2	1	0	C	2	0	518	0	poli_8sides 2_whiteLine3.jpg	Medium_e13_stereo_44KHz.wav
2	46	3	3	2	I	2	0	671	1	poli_8sides 1_whiteLine3.jpg	Medium_e01_cut1_stereo_44KHz.wav
2	47	1	1	1	C	1	0	827	0	poli_8sides 6_whiteLine3.jpg	Medium_e13_stereo_44KHz.wav
2	48	4	3	2	I	2	0	729	0	poli_8sides 3_whiteLine3.jpg	Medium_e01_cut1_stereo_44KHz.wav
2	49	1	2	0	C	2	0	546	0	poli_8sides 6_whiteLine3.jpg	MediumLong_e19_stereo_44KHz.wav
2	50	2	1	0	C	1	1	455	1	poli_8sides 2_whiteLine3.jpg	Medium_e13_stereo_44KHz.wav
2	51	4	3	2	I	2	0	528	0	poli_8sides 3_whiteLine3.jpg	Medium_e01_cut1_stereo_44KHz.wav
2	52	3	3	2	I	2	0	577	0	poli_8sides 1_whiteLine3.jpg	Medium_e01_cut1_stereo_44KHz.wav
2	53	1	1	1	C	1	0	488	0	poli_8sides 6_whiteLine3.jpg	Medium_e13_stereo_44KHz.wav
2	54	3	4	2	I	2	0	605	0	poli_8sides 1_whiteLine3.jpg	Medium_e26_stereo_44KHz.wav
2	55	2	2	1	C	1	0	663	0	poli_8sides 2_whiteLine3.jpg	MediumLong_e19_stereo_44KHz.wav
2	56	4	4	2	I	2	0	648	0	poli_8sides 3_whiteLine3.jpg	Medium_e26_stereo_44KHz.wav
2	57	1	2	0	C	1	1	488	1	poli_8sides 6_whiteLine3.jpg	MediumLong_e19_stereo_44KHz.wav
2	58	3	3	2	I	2	0	623	0	poli_8sides 1_whiteLine3.jpg	Medium_e01_cut1_stereo_44KHz.wav
2	59	4	3	2	I	1	0	606	1	poli_8sides 3_whiteLine3.jpg	Medium_e01_cut1_stereo_44KHz.wav
2	60	2	2	1	C	2	1	458	1	poli_8sides 2_whiteLine3.jpg	MediumLong_e19_stereo_44KHz.wav
2	61	4	4	2	I	1	0	515	1	poli_8sides 3_whiteLine3.jpg	Medium_e26_stereo_44KHz.wav
2	62	1	1	1	C	2	1	708	1	poli_8sides 6_whiteLine3.jpg	Medium_e13_stereo_44KHz.wav
2	63	3	4	2	I	1	0	524	1	poli_8sides 1_whiteLine3.jpg	Medium_e26_stereo_44KHz.wav
2	64	2	1	0	C	1	1	746	1	poli_8sides 2_whiteLine3.jpg	Medium_e13_stereo_44KHz.wav
2	65	3	4	2	I	2	0	641	1	poli_8sides 1_whiteLine3.jpg	Medium_e26_stereo_44KHz.wav
2	66	4	4	2	I	2	0	815	1	poli_8sides 3_whiteLine3.jpg	Medium_e26_stereo_44KHz.wav
2	67	2	1	0	C	2	0	560	0	poli_8sides 2_whiteLine3.jpg	Medium_e13_stereo_44KHz.wav
2	68	1	1	1	C	1	0	512	0	poli_8sides 6_whiteLine3.jpg	Medium_e13_stereo_44KHz.wav
2	69	4	3	2	I	2	0	658	1	poli_8sides 3_whiteLine3.jpg	Medium_e01_cut1_stereo_44KHz.wav
2	70	3	3	2	I	1	0	857	0	poli_8sides 1_whiteLine3.jpg	Medium_e01_cut1_stereo_44KHz.wav
2	71	1	2	0	C	1	1	450	1	poli_8sides 6_whiteLine3.jpg	MediumLong_e19_stereo_44KHz.wav
2	72	2	2	1	C	1	0	745	0	poli_8sides 2_whiteLine3.jpg	MediumLong_e19_stereo_44KHz.wav
2	73	3	3	2	I	2	0	636	0	poli_8sides 1_whiteLine3.jpg	Medium_e01_cut1_stereo_44KHz.wav
2	74	1	2	0	C	1	1	493	1	poli_8sides 6_whiteLine3.jpg	MediumLong_e19_stereo_44KHz.wav
2	75	4	4	2	I	2	0	613	0	poli_8sides 3_whiteLine3.jpg	Medium_e26_stereo_44KHz.wav
2	76	2	2	1	C	2	1	547	1	poli_8sides 2_whiteLine3.jpg	MediumLong_e19_stereo_44KHz.wav
2	77	1	1	1	C	1	0	692	0	poli_8sides 6_whiteLine3.jpg	Medium_e13_stereo_44KHz.wav
2	78	3	4	2	I	1	0	667	0	poli_8sides 1_whiteLine3.jpg	Medium_e26_stereo_44KHz.wav
2	79	4	3	2	I	1	0	580	0	poli_8sides 3_whiteLine3.jpg	Medium_e01_cut1_stereo_44KHz.wav
2	80	2	1	0	C	2	0	370	0	poli_8sides 2_whiteLine3.jpg	Medium_e13_stereo_44KHz.wav
2	81	4	3	2	I	1	0	807	0	poli_8sides 3_whiteLine3.jpg	Medium_e01_cut1_stereo_44KHz.wav
2	82	2	1	0	C	1	1	773	1	poli_8sides 2_whiteLine3.jpg	Medium_e13_stereo_44KHz.wav
2	83	3	3	2	I	2	0	697	0	poli_8sides 1_whiteLine3.jpg	Medium_e01_cut1_stereo_44KHz.wav
2	84	1	1	1	C	1	0	754	0	poli_8sides 6_whiteLine3.jpg	Medium_e13_stereo_44KHz.wav
2	85	2	2	1	C	2	1	767	1	poli_8sides 2_whiteLine3.jpg	MediumLong_e19_stereo_44KHz.wav
2	86	4	4	2	I	1	0	835	0	poli_8sides 3_whiteLine3.jpg	Medium_e26_stereo_44KHz.wav
2	87	1	2	0	C	1	1	697	1	poli_8sides 6_whiteLine3.jpg	MediumLong_e19_stereo_44KHz.wav
2	88	3	4	2	I	1	0	726	1	poli_8sides 1_whiteLine3.jpg	Medium_e26_stereo_44KHz.wav
2	89	2	2	1	C	1	0	744	0	poli_8sides 2_whiteLine3.jpg	MediumLong_e19_stereo_44KHz.wav
2	90	1	1	1	C	1	0	472	0	poli_8sides 6_whiteLine3.jpg	Medium_e13_stereo_44KHz.wav
2	91	3	4	2	I	1	0	474	1	poli_8sides 1_whiteLine3.jpg	Medium_e26_stereo_44KHz.wav
2	92	4	3	2	I	2	0	539	1	poli_8sides 3_whiteLine3.jpg	Medium_e01_cut1_stereo_44KHz.wav
2	93	3	3	2	I	2	0	885	1	poli_8sides 1_whiteLine3.jpg	Medium_e01_cut1_stereo_44KHz.wav
2	94	2	1	0	C	2	0	604	0	poli_8sides 2_whiteLine3.jpg	Medium_e13_stereo_44KHz.wav
2	95	1	2	0	C	1	1	601	1	poli_8sides 6_whiteLine3.jpg	MediumLong_e19_stereo_44KHz.wav
2	96	4	4	2	I	2	0	620	1	poli_8sides 3_whiteLine3.jpg	Medium_e26_stereo_44KHz.wav
2	97	2	2	1	C	2	1	521	1	poli_8sides 2_whiteLine3.jpg	MediumLong_e19_stereo_44KHz.wav
2	98	3	3	2	I	2	0	856	0	poli_8sides 1_whiteLine3.jpg	Medium_e01_cut1_stereo_44KHz.wav
2	99	4	4	2	I	2	0	473	1	poli_8sides 3_whiteLine3.jpg	Medium_e26_stereo_44KHz.wav
2	100	1	1	1	C	1	0	680	0	poli_8sides 6_whiteLine3.jpg	Medium_e13_stereo_44KHz.wav
2	101	3	4	2	I	1	0	529	0	poli_8sides 1_whiteLine3.jpg	Medium_e26_stereo_44KHz.wav
2	102	1	2	0	C	1	1	517	1	poli_8sides 6_whiteLine3.jpg	MediumLong_e19_stereo_44KHz.wav
2	103	2	1	0	C	1	1	989	1	poli_8sides 2_whiteLine3.jpg	Medium_e13_stereo_44KHz.wav
2	104	4	3	2	I	2	0	609	0	poli_8sides 3_whiteLine3.jpg	Medium_e01_cut1_stereo_44KHz.wav
2	105	3	3	2	I	1	0	261	0	poli_8sides 1_whiteLine3.jpg	Medium_e01_cut1_stereo_44KHz.wav
2	106	1	1	1	C	1	0	835	0	poli_8sides 6_whiteLine3.jpg	Medium_e13_stereo_44KHz.wav
2	107	4	3	2	I	1	0	1022	1	poli_8sides 3_whiteLine3.jpg	Medium_e01_cut1_stereo_44KHz.wav
2	108	2	2	1	C	1	0	863	0	poli_8sides 2_whiteLine3.jpg	MediumLong_e19_stereo_44KHz.wav
2	109	1	2	0	C	1	1	850	1	poli_8sides 6_whiteLine3.jpg	MediumLong_e19_stereo_44KHz.wav
2	110	4	4	2	I	2	0	758	0	poli_8sides 3_whiteLine3.jpg	Medium_e26_stereo_44KHz.wav
2	111	3	4	2	I	1	0	989	0	poli_8sides 1_whiteLine3.jpg	Medium_e26_stereo_44KHz.wav
2	112	2	1	0	C	1	1	1119	1	poli_8sides 2_whiteLine3.jpg	Medium_e13_stereo_44KHz.wav
2	113	4	3	2	I	2	0	822	0	poli_8sides 3_whiteLine3.jpg	Medium_e01_cut1_stereo_44KHz.wav
2	114	3	3	2	I	1	0	540	1	poli_8sides 1_whiteLine3.jpg	Medium_e01_cut1_stereo_44KHz.wav
2	115	1	1	1	C	2	1	763	1	poli_8sides 6_whiteLine3.jpg	Medium_e13_stereo_44KHz.wav
2	116	2	2	1	C	2	1	651	1	poli_8sides 2_whiteLine3.jpg	MediumLong_e19_stereo_44KHz.wav
2	117	1	2	0	C	2	0	504	0	poli_8sides 6_whiteLine3.jpg	MediumLong_e19_stereo_44KHz.wav
2	118	2	1	0	C	2	0	796	0	poli_8sides 2_whiteLine3.jpg	Medium_e13_stereo_44KHz.wav
2	119	3	4	2	I	1	0	728	1	poli_8sides 1_whiteLine3.jpg	Medium_e26_stereo_44KHz.wav
2	120	4	4	2	I	1	0	724	1	poli_8sides 3_whiteLine3.jpg	Medium_e26_stereo_44KHz.wav
2	121	3	4	2	I	2	0	673	1	poli_8sides 1_whiteLine3.jpg	Medium_e26_stereo_44KHz.wav
2	122	4	3	2	I	2	0	727	1	poli_8sides 3_whiteLine3.jpg	Medium_e01_cut1_stereo_44KHz.wav
2	123	2	2	1	C	1	0	657	0	poli_8sides 2_whiteLine3.jpg	MediumLong_e19_stereo_44KHz.wav
2	124	1	1	1	C	1	0	628	0	poli_8sides 6_whiteLine3.jpg	Medium_e13_stereo_44KHz.wav
2	125	3	3	2	I	1	0	846	1	poli_8sides 1_whiteLine3.jpg	Medium_e01_cut1_stereo_44KHz.wav
2	126	1	2	0	C	2	0	905	0	poli_8sides 6_whiteLine3.jpg	MediumLong_e19_stereo_44KHz.wav
2	127	4	4	2	I	2	0	1014	1	poli_8sides 3_whiteLine3.jpg	Medium_e26_stereo_44KHz.wav
2	128	2	1	0	C	2	0	875	0	poli_8sides 2_whiteLine3.jpg	Medium_e13_stereo_44KHz.wav
2	129	3	4	2	I	2	0	1036	0	poli_8sides 1_whiteLine3.jpg	Medium_e26_stereo_44KHz.wav
2	130	1	1	1	C	1	0	705	0	poli_8sides 6_whiteLine3.jpg	Medium_e13_stereo_44KHz.wav
2	131	2	1	0	C	1	1	519	1	poli_8sides 2_whiteLine3.jpg	Medium_e13_stereo_44KHz.wav
2	132	4	4	2	I	1	0	1173	1	poli_8sides 3_whiteLine3.jpg	Medium_e26_stereo_44KHz.wav
2	133	2	2	1	C	2	1	554	1	poli_8sides 2_whiteLine3.jpg	MediumLong_e19_stereo_44KHz.wav
2	134	4	3	2	I	2	0	1332	0	poli_8sides 3_whiteLine3.jpg	Medium_e01_cut1_stereo_44KHz.wav
2	135	3	3	2	I	1	0	558	1	poli_8sides 1_whiteLine3.jpg	Medium_e01_cut1_stereo_44KHz.wav
2	136	1	2	0	C	2	0	649	0	poli_8sides 6_whiteLine3.jpg	MediumLong_e19_stereo_44KHz.wav
2	137	2	1	0	C	2	0	537	0	poli_8sides 2_whiteLine3.jpg	Medium_e13_stereo_44KHz.wav
2	138	4	3	2	I	1	0	668	1	poli_8sides 3_whiteLine3.jpg	Medium_e01_cut1_stereo_44KHz.wav
2	139	1	1	1	C	1	0	519	0	poli_8sides 6_whiteLine3.jpg	Medium_e13_stereo_44KHz.wav
2	140	3	3	2	I	1	0	381	1	poli_8sides 1_whiteLine3.jpg	Medium_e01_cut1_stereo_44KHz.wav
2	141	2	2	1	C	2	1	675	1	poli_8sides 2_whiteLine3.jpg	MediumLong_e19_stereo_44KHz.wav
2	142	1	2	0	C	2	0	961	0	poli_8sides 6_whiteLine3.jpg	MediumLong_e19_stereo_44KHz.wav
2	143	3	4	2	I	1	0	648	0	poli_8sides 1_whiteLine3.jpg	Medium_e26_stereo_44KHz.wav
2	144	4	4	2	I	2	0	730	0	poli_8sides 3_whiteLine3.jpg	Medium_e26_stereo_44KHz.wav
2	145	2	2	1	C	1	0	856	0	poli_8sides 2_whiteLine3.jpg	MediumLong_e19_stereo_44KHz.wav
2	146	3	4	2	I	1	0	456	1	poli_8sides 1_whiteLine3.jpg	Medium_e26_stereo_44KHz.wav
2	147	1	1	1	C	2	1	718	1	poli_8sides 6_whiteLine3.jpg	Medium_e13_stereo_44KHz.wav
2	148	4	3	2	I	1	0	1105	0	poli_8sides 3_whiteLine3.jpg	Medium_e01_cut1_stereo_44KHz.wav
2	149	2	1	0	C	2	0	277	0	poli_8sides 2_whiteLine3.jpg	Medium_e13_stereo_44KHz.wav
2	150	1	2	0	C	1	1	446	1	poli_8sides 6_whiteLine3.jpg	MediumLong_e19_stereo_44KHz.wav
2	151	4	4	2	I	1	0	859	0	poli_8sides 3_whiteLine3.jpg	Medium_e26_stereo_44KHz.wav
2	152	3	3	2	I	2	0	872	0	poli_8sides 1_whiteLine3.jpg	Medium_e01_cut1_stereo_44KHz.wav
2	153	1	1	1	C	1	0	591	0	poli_8sides 6_whiteLine3.jpg	Medium_e13_stereo_44KHz.wav
2	154	3	4	2	I	1	0	446	1	poli_8sides 1_whiteLine3.jpg	Medium_e26_stereo_44KHz.wav
2	155	2	2	1	C	1	0	795	0	poli_8sides 2_whiteLine3.jpg	MediumLong_e19_stereo_44KHz.wav
2	156	4	3	2	I	2	0	878	1	poli_8sides 3_whiteLine3.jpg	Medium_e01_cut1_stereo_44KHz.wav
2	157	3	3	2	I	2	0	661	1	poli_8sides 1_whiteLine3.jpg	Medium_e01_cut1_stereo_44KHz.wav
2	158	1	2	0	C	1	1	467	1	poli_8sides 6_whiteLine3.jpg	MediumLong_e19_stereo_44KHz.wav
2	159	4	4	2	I	1	0	835	0	poli_8sides 3_whiteLine3.jpg	Medium_e26_stereo_44KHz.wav
2	160	2	1	0	C	1	1	736	1	poli_8sides 2_whiteLine3.jpg	Medium_e13_stereo_44KHz.wav
2	161	4	3	2	I	2	0	694	1	poli_8sides 3_whiteLine3.jpg	Medium_e01_cut1_stereo_44KHz.wav
2	162	3	4	2	I	1	0	407	0	poli_8sides 1_whiteLine3.jpg	Medium_e26_stereo_44KHz.wav
2	163	1	2	0	C	1	1	654	1	poli_8sides 6_whiteLine3.jpg	MediumLong_e19_stereo_44KHz.wav
2	164	2	1	0	C	2	0	518	0	poli_8sides 2_whiteLine3.jpg	Medium_e13_stereo_44KHz.wav
2	165	1	1	1	C	2	1	255	1	poli_8sides 6_whiteLine3.jpg	Medium_e13_stereo_44KHz.wav
2	166	4	4	2	I	1	0	1168	0	poli_8sides 3_whiteLine3.jpg	Medium_e26_stereo_44KHz.wav
2	167	2	2	1	C	1	0	1403	0	poli_8sides 2_whiteLine3.jpg	MediumLong_e19_stereo_44KHz.wav
2	168	3	3	2	I	1	0	547	0	poli_8sides 1_whiteLine3.jpg	Medium_e01_cut1_stereo_44KHz.wav
2	169	1	2	0	C	2	0	653	0	poli_8sides 6_whiteLine3.jpg	MediumLong_e19_stereo_44KHz.wav
2	170	3	4	2	I	1	0	548	0	poli_8sides 1_whiteLine3.jpg	Medium_e26_stereo_44KHz.wav
2	171	2	1	0	C	1	1	761	1	poli_8sides 2_whiteLine3.jpg	Medium_e13_stereo_44KHz.wav
2	172	4	3	2	I	1	0	1381	1	poli_8sides 3_whiteLine3.jpg	Medium_e01_cut1_stereo_44KHz.wav
2	173	3	3	2	I	2	0	640	0	poli_8sides 1_whiteLine3.jpg	Medium_e01_cut1_stereo_44KHz.wav
2	174	1	1	1	C	1	0	780	0	poli_8sides 6_whiteLine3.jpg	Medium_e13_stereo_44KHz.wav
2	175	4	4	2	I	2	0	680	1	poli_8sides 3_whiteLine3.jpg	Medium_e26_stereo_44KHz.wav
2	176	2	2	1	C	1	0	919	0	poli_8sides 2_whiteLine3.jpg	MediumLong_e19_stereo_44KHz.wav
2	177	4	4	2	I	1	0	1207	1	poli_8sides 3_whiteLine3.jpg	Medium_e26_stereo_44KHz.wav
2	178	3	4	2	I	1	0	824	1	poli_8sides 1_whiteLine3.jpg	Medium_e26_stereo_44KHz.wav
2	179	1	1	1	C	2	1	462	1	poli_8sides 6_whiteLine3.jpg	Medium_e13_stereo_44KHz.wav
2	180	2	2	1	C	2	1	633	1	poli_8sides 2_whiteLine3.jpg	MediumLong_e19_stereo_44KHz.wav
2	181	4	3	2	I	1	0	567	1	poli_8sides 3_whiteLine3.jpg	Medium_e01_cut1_stereo_44KHz.wav
2	182	1	2	0	C	1	1	712	1	poli_8sides 6_whiteLine3.jpg	MediumLong_e19_stereo_44KHz.wav
2	183	2	1	0	C	2	0	692	0	poli_8sides 2_whiteLine3.jpg	Medium_e13_stereo_44KHz.wav
2	184	3	3	2	I	1	0	717	1	poli_8sides 1_whiteLine3.jpg	Medium_e01_cut1_stereo_44KHz.wav
2	185	4	4	2	I	1	0	779	1	poli_8sides 3_whiteLine3.jpg	Medium_e26_stereo_44KHz.wav
2	186	2	2	1	C	1	0	788	0	poli_8sides 2_whiteLine3.jpg	MediumLong_e19_stereo_44KHz.wav
2	187	1	1	1	C	2	1	689	1	poli_8sides 6_whiteLine3.jpg	Medium_e13_stereo_44KHz.wav
2	188	3	3	2	I	1	0	523	1	poli_8sides 1_whiteLine3.jpg	Medium_e01_cut1_stereo_44KHz.wav
2	189	1	2	0	C	2	0	740	0	poli_8sides 6_whiteLine3.jpg	MediumLong_e19_stereo_44KHz.wav
2	190	2	1	0	C	1	1	671	1	poli_8sides 2_whiteLine3.jpg	Medium_e13_stereo_44KHz.wav
2	191	4	3	2	I	1	0	716	0	poli_8sides 3_whiteLine3.jpg	Medium_e01_cut1_stereo_44KHz.wav
2	192	3	4	2	I	2	0	496	1	poli_8sides 1_whiteLine3.jpg	Medium_e26_stereo_44KHz.wav
2	193	2	1	0	C	2	0	633	0	poli_8sides 2_whiteLine3.jpg	Medium_e13_stereo_44KHz.wav
2	194	3	4	2	I	2	0	822	0	poli_8sides 1_whiteLine3.jpg	Medium_e26_stereo_44KHz.wav
2	195	1	2	0	C	1	1	644	1	poli_8sides 6_whiteLine3.jpg	MediumLong_e19_stereo_44KHz.wav
2	196	4	3	2	I	1	0	864	0	poli_8sides 3_whiteLine3.jpg	Medium_e01_cut1_stereo_44KHz.wav
2	197	1	1	1	C	2	1	786	1	poli_8sides 6_whiteLine3.jpg	Medium_e13_stereo_44KHz.wav
2	198	3	3	2	I	2	0	682	1	poli_8sides 1_whiteLine3.jpg	Medium_e01_cut1_stereo_44KHz.wav
2	199	2	2	1	C	1	0	710	0	poli_8sides 2_whiteLine3.jpg	MediumLong_e19_stereo_44KHz.wav
2	200	4	4	2	I	1	0	673	1	poli_8sides 3_whiteLine3.jpg	Medium_e26_stereo_44KHz.wav
3	1	1	1	1	C	2	1	959	1	poli_8sides 8_whiteLine3.jpg	Short_b20_cut1_stereo_44KHz.wav
3	2	2	1	0	C	1	1	643	1	poli_8sides 7_whiteLine3.jpg	Short_b20_cut1_stereo_44KHz.wav
3	3	3	4	2	I	1	0	813	1	poli_8sides 10_whiteLine3.jpg	Short_b23_cut1_stereo_44KHz.wav
3	4	4	3	2	I	2	0	653	1	poli_8sides 12_whiteLine3.jpg	Short_b09_cut1_stereo_44KHz.wav
3	5	1	2	0	C	1	1	691	1	poli_8sides 8_whiteLine3.jpg	Short_b22_cut1_stereo_44KHz.wav
3	6	2	2	1	C	2	1	698	1	poli_8sides 7_whiteLine3.jpg	Short_b22_cut1_stereo_44KHz.wav
3	7	4	4	2	I	1	0	475	0	poli_8sides 12_whiteLine3.jpg	Short_b23_cut1_stereo_44KHz.wav
3	8	3	3	2	I	2	0	650	0	poli_8sides 10_whiteLine3.jpg	Short_b09_cut1_stereo_44KHz.wav
3	9	1	2	0	C	1	1	820	1	poli_8sides 8_whiteLine3.jpg	Short_b22_cut1_stereo_44KHz.wav
3	10	2	2	1	C	2	1	685	1	poli_8sides 7_whiteLine3.jpg	Short_b22_cut1_stereo_44KHz.wav
3	11	3	3	2	I	2	0	583	1	poli_8sides 10_whiteLine3.jpg	Short_b09_cut1_stereo_44KHz.wav
3	12	4	3	2	I	2	0	731	0	poli_8sides 12_whiteLine3.jpg	Short_b09_cut1_stereo_44KHz.wav
3	13	3	4	2	I	1	0	427	0	poli_8sides 10_whiteLine3.jpg	Short_b23_cut1_stereo_44KHz.wav
3	14	2	1	0	C	2	0	598	0	poli_8sides 7_whiteLine3.jpg	Short_b20_cut1_stereo_44KHz.wav
3	15	1	1	1	C	1	0	397	0	poli_8sides 8_whiteLine3.jpg	Short_b20_cut1_stereo_44KHz.wav
3	16	4	4	2	I	1	0	342	1	poli_8sides 12_whiteLine3.jpg	Short_b23_cut1_stereo_44KHz.wav
3	17	2	1	0	C	2	0	518	0	poli_8sides 7_whiteLine3.jpg	Short_b20_cut1_stereo_44KHz.wav
3	18	1	2	0	C	1	1	534	1	poli_8sides 8_whiteLine3.jpg	Short_b22_cut1_stereo_44KHz.wav
3	19	3	4	2	I	1	0	718	0	poli_8sides 10_whiteLine3.jpg	Short_b23_cut1_stereo_44KHz.wav
3	20	4	3	2	I	1	0	797	1	poli_8sides 12_whiteLine3.jpg	Short_b09_cut1_stereo_44KHz.wav
3	21	1	1	1	C	1	0	695	0	poli_8sides 8_whiteLine3.jpg	Short_b20_cut1_stereo_44KHz.wav
3	22	2	2	1	C	1	0	378	0	poli_8sides 7_whiteLine3.jpg	Short_b22_cut1_stereo_44KHz.wav
3	23	3	3	2	I	2	0	504	1	poli_8sides 10_whiteLine3.jpg	Short_b09_cut1_stereo_44KHz.wav
3	24	4	4	2	I	1	0	485	0	poli_8sides 12_whiteLine3.jpg	Short_b23_cut1_stereo_44KHz.wav
3	25	2	2	1	C	1	0	884	0	poli_8sides 7_whiteLine3.jpg	Short_b22_cut1_stereo_44KHz.wav
3	26	4	3	2	I	2	0	671	0	poli_8sides 12_whiteLine3.jpg	Short_b09_cut1_stereo_44KHz.wav
3	27	1	1	1	C	2	1	758	1	poli_8sides 8_whiteLine3.jpg	Short_b20_cut1_stereo_44KHz.wav
3	28	3	3	2	I	2	0	601	1	poli_8sides 10_whiteLine3.jpg	Short_b09_cut1_stereo_44KHz.wav
3	29	2	1	0	C	2	0	621	0	poli_8sides 7_whiteLine3.jpg	Short_b20_cut1_stereo_44KHz.wav
3	30	1	2	0	C	1	1	474	1	poli_8sides 8_whiteLine3.jpg	Short_b22_cut1_stereo_44KHz.wav
3	31	3	4	2	I	2	0	653	0	poli_8sides 10_whiteLine3.jpg	Short_b23_cut1_stereo_44KHz.wav
3	32	4	4	2	I	1	0	580	0	poli_8sides 12_whiteLine3.jpg	Short_b23_cut1_stereo_44KHz.wav
3	33	3	3	2	I	2	0	564	0	poli_8sides 10_whiteLine3.jpg	Short_b09_cut1_stereo_44KHz.wav
3	34	1	1	1	C	1	0	509	0	poli_8sides 8_whiteLine3.jpg	Short_b20_cut1_stereo_44KHz.wav
3	35	2	2	1	C	1	0	1326	0	poli_8sides 7_whiteLine3.jpg	Short_b22_cut1_stereo_44KHz.wav
3	36	4	4	2	I	2	0	791	0	poli_8sides 12_whiteLine3.jpg	Short_b23_cut1_stereo_44KHz.wav
3	37	2	1	0	C	2	0	927	0	poli_8sides 7_whiteLine3.jpg	Short_b20_cut1_stereo_44KHz.wav
3	38	4	3	2	I	2	0	669	0	poli_8sides 12_whiteLine3.jpg	Short_b09_cut1_stereo_44KHz.wav
3	39	3	4	2	I	1	0	833	1	poli_8sides 10_whiteLine3.jpg	Short_b23_cut1_stereo_44KHz.wav
3	40	1	2	0	C	1	1	769	1	poli_8sides 8_whiteLine3.jpg	Short_b22_cut1_stereo_44KHz.wav
3	41	4	4	2	I	2	0	615	0	poli_8sides 12_whiteLine3.jpg	Short_b23_cut1_stereo_44KHz.wav
3	42	1	1	1	C	2	1	563	1	poli_8sides 8_whiteLine3.jpg	Short_b20_cut1_stereo_44KHz.wav
3	43	3	4	2	I	2	0	613	0	poli_8sides 10_whiteLine3.jpg	Short_b23_cut1_stereo_44KHz.wav
3	44	2	2	1	C	2	1	439	1	poli_8sides 7_whiteLine3.jpg	Short_b22_cut1_stereo_44KHz.wav
3	45	4	3	2	I	2	0	526	0	poli_8sides 12_whiteLine3.jpg	Short_b09_cut1_stereo_44KHz.wav
3	46	1	2	0	C	1	1	531	1	poli_8sides 8_whiteLine3.jpg	Short_b22_cut1_stereo_44KHz.wav
3	47	3	3	2	I	2	0	554	1	poli_8sides 10_whiteLine3.jpg	Short_b09_cut1_stereo_44KHz.wav
3	48	2	1	0	C	2	0	860	0	poli_8sides 7_whiteLine3.jpg	Short_b20_cut1_stereo_44KHz.wav
3	49	3	4	2	I	2	0	581	1	poli_8sides 10_whiteLine3.jpg	Short_b23_cut1_stereo_44KHz.wav
3	50	1	1	1	C	2	1	681	1	poli_8sides 8_whiteLine3.jpg	Short_b20_cut1_stereo_44KHz.wav
3	51	4	4	2	I	2	0	878	1	poli_8sides 12_whiteLine3.jpg	Short_b23_cut1_stereo_44KHz.wav
3	52	2	1	0	C	2	0	559	0	poli_8sides 7_whiteLine3.jpg	Short_b20_cut1_stereo_44KHz.wav
3	53	4	3	2	I	2	0	558	0	poli_8sides 12_whiteLine3.jpg	Short_b09_cut1_stereo_44KHz.wav
3	54	1	2	0	C	2	0	851	0	poli_8sides 8_whiteLine3.jpg	Short_b22_cut1_stereo_44KHz.wav
3	55	3	3	2	I	1	0	699	0	poli_8sides 10_whiteLine3.jpg	Short_b09_cut1_stereo_44KHz.wav
3	56	2	2	1	C	1	0	751	0	poli_8sides 7_whiteLine3.jpg	Short_b22_cut1_stereo_44KHz.wav
3	57	1	2	0	C	1	1	562	1	poli_8sides 8_whiteLine3.jpg	Short_b22_cut1_stereo_44KHz.wav
3	58	3	4	2	I	2	0	561	1	poli_8sides 10_whiteLine3.jpg	Short_b23_cut1_stereo_44KHz.wav
3	59	2	2	1	C	2	1	1018	1	poli_8sides 7_whiteLine3.jpg	Short_b22_cut1_stereo_44KHz.wav
3	60	4	3	2	I	1	0	738	0	poli_8sides 12_whiteLine3.jpg	Short_b09_cut1_stereo_44KHz.wav
3	61	1	1	1	C	1	0	515	0	poli_8sides 8_whiteLine3.jpg	Short_b20_cut1_stereo_44KHz.wav
3	62	3	3	2	I	2	0	727	1	poli_8sides 10_whiteLine3.jpg	Short_b09_cut1_stereo_44KHz.wav
3	63	2	1	0	C	1	1	460	1	poli_8sides 7_whiteLine3.jpg	Short_b20_cut1_stereo_44KHz.wav
3	64	4	4	2	I	2	0	494	0	poli_8sides 12_whiteLine3.jpg	Short_b23_cut1_stereo_44KHz.wav
3	65	2	1	0	C	2	0	964	0	poli_8sides 7_whiteLine3.jpg	Short_b20_cut1_stereo_44KHz.wav
3	66	4	4	2	I	1	0	625	0	poli_8sides 12_whiteLine3.jpg	Short_b23_cut1_stereo_44KHz.wav
3	67	1	2	0	C	1	1	698	1	poli_8sides 8_whiteLine3.jpg	Short_b22_cut1_stereo_44KHz.wav
3	68	3	3	2	I	1	0	333	1	poli_8sides 10_whiteLine3.jpg	Short_b09_cut1_stereo_44KHz.wav
3	69	1	1	1	C	2	1	776	1	poli_8sides 8_whiteLine3.jpg	Short_b20_cut1_stereo_44KHz.wav
3	70	2	2	1	C	1	0	617	0	poli_8sides 7_whiteLine3.jpg	Short_b22_cut1_stereo_44KHz.wav
3	71	4	3	2	I	1	0	591	0	poli_8sides 12_whiteLine3.jpg	Short_b09_cut1_stereo_44KHz.wav
3	72	3	4	2	I	1	0	636	0	poli_8sides 10_whiteLine3.jpg	Short_b23_cut1_stereo_44KHz.wav
3	73	2	1	0	C	1	1	564	1	poli_8sides 7_whiteLine3.jpg	Short_b20_cut1_stereo_44KHz.wav
3	74	4	3	2	I	2	0	534	0	poli_8sides 12_whiteLine3.jpg	Short_b09_cut1_stereo_44KHz.wav
3	75	3	3	2	I	1	0	768	0	poli_8sides 10_whiteLine3.jpg	Short_b09_cut1_stereo_44KHz.wav
3	76	1	1	1	C	2	1	759	1	poli_8sides 8_whiteLine3.jpg	Short_b20_cut1_stereo_44KHz.wav
3	77	2	2	1	C	1	0	737	0	poli_8sides 7_whiteLine3.jpg	Short_b22_cut1_stereo_44KHz.wav
3	78	1	2	0	C	1	1	658	1	poli_8sides 8_whiteLine3.jpg	Short_b22_cut1_stereo_44KHz.wav
3	79	3	4	2	I	2	0	808	1	poli_8sides 10_whiteLine3.jpg	Short_b23_cut1_stereo_44KHz.wav
3	80	4	4	2	I	2	0	1108	1	poli_8sides 12_whiteLine3.jpg	Short_b23_cut1_stereo_44KHz.wav
3	81	2	1	0	C	2	0	648	0	poli_8sides 7_whiteLine3.jpg	Short_b20_cut1_stereo_44KHz.wav
3	82	3	4	2	I	1	0	430	1	poli_8sides 10_whiteLine3.jpg	Short_b23_cut1_stereo_44KHz.wav
3	83	4	3	2	I	1	0	880	0	poli_8sides 12_whiteLine3.jpg	Short_b09_cut1_stereo_44KHz.wav
3	84	1	1	1	C	2	1	709	1	poli_8sides 8_whiteLine3.jpg	Short_b20_cut1_stereo_44KHz.wav
3	85	4	4	2	I	2	0	778	1	poli_8sides 12_whiteLine3.jpg	Short_b23_cut1_stereo_44KHz.wav
3	86	1	2	0	C	2	0	739	0	poli_8sides 8_whiteLine3.jpg	Short_b22_cut1_stereo_44KHz.wav
3	87	2	2	1	C	2	1	652	1	poli_8sides 7_whiteLine3.jpg	Short_b22_cut1_stereo_44KHz.wav
3	88	3	3	2	I	1	0	519	0	poli_8sides 10_whiteLine3.jpg	Short_b09_cut1_stereo_44KHz.wav
3	89	2	1	0	C	1	1	566	1	poli_8sides 7_whiteLine3.jpg	Short_b20_cut1_stereo_44KHz.wav
3	90	1	2	0	C	1	1	818	1	poli_8sides 8_whiteLine3.jpg	Short_b22_cut1_stereo_44KHz.wav
3	91	3	3	2	I	1	0	694	0	poli_8sides 10_whiteLine3.jpg	Short_b09_cut1_stereo_44KHz.wav
3	92	4	4	2	I	1	0	929	0	poli_8sides 12_whiteLine3.jpg	Short_b23_cut1_stereo_44KHz.wav
3	93	3	4	2	I	1	0	742	1	poli_8sides 10_whiteLine3.jpg	Short_b23_cut1_stereo_44KHz.wav
3	94	2	2	1	C	1	0	543	0	poli_8sides 7_whiteLine3.jpg	Short_b22_cut1_stereo_44KHz.wav
3	95	4	3	2	I	2	0	328	0	poli_8sides 12_whiteLine3.jpg	Short_b09_cut1_stereo_44KHz.wav
3	96	1	1	1	C	1	0	643	0	poli_8sides 8_whiteLine3.jpg	Short_b20_cut1_stereo_44KHz.wav
3	97	4	3	2	I	2	0	596	1	poli_8sides 12_whiteLine3.jpg	Short_b09_cut1_stereo_44KHz.wav
3	98	1	2	0	C	1	1	495	1	poli_8sides 8_whiteLine3.jpg	Short_b22_cut1_stereo_44KHz.wav
3	99	2	2	1	C	1	0	630	0	poli_8sides 7_whiteLine3.jpg	Short_b22_cut1_stereo_44KHz.wav
3	100	3	3	2	I	1	0	623	0	poli_8sides 10_whiteLine3.jpg	Short_b09_cut1_stereo_44KHz.wav
3	101	2	1	0	C	2	0	549	0	poli_8sides 7_whiteLine3.jpg	Short_b20_cut1_stereo_44KHz.wav
3	102	1	1	1	C	2	1	706	1	poli_8sides 8_whiteLine3.jpg	Short_b20_cut1_stereo_44KHz.wav
3	103	3	4	2	I	1	0	491	0	poli_8sides 10_whiteLine3.jpg	Short_b23_cut1_stereo_44KHz.wav
3	104	4	4	2	I	1	0	474	1	poli_8sides 12_whiteLine3.jpg	Short_b23_cut1_stereo_44KHz.wav
3	105	3	3	2	I	2	0	543	1	poli_8sides 10_whiteLine3.jpg	Short_b09_cut1_stereo_44KHz.wav
3	106	1	2	0	C	2	0	472	0	poli_8sides 8_whiteLine3.jpg	Short_b22_cut1_stereo_44KHz.wav
3	107	4	3	2	I	1	0	717	1	poli_8sides 12_whiteLine3.jpg	Short_b09_cut1_stereo_44KHz.wav
3	108	2	2	1	C	1	0	418	0	poli_8sides 7_whiteLine3.jpg	Short_b22_cut1_stereo_44KHz.wav
3	109	3	4	2	I	2	0	331	1	poli_8sides 10_whiteLine3.jpg	Short_b23_cut1_stereo_44KHz.wav
3	110	2	1	0	C	2	0	552	0	poli_8sides 7_whiteLine3.jpg	Short_b20_cut1_stereo_44KHz.wav
3	111	1	1	1	C	1	0	615	0	poli_8sides 8_whiteLine3.jpg	Short_b20_cut1_stereo_44KHz.wav
3	112	4	4	2	I	1	0	509	1	poli_8sides 12_whiteLine3.jpg	Short_b23_cut1_stereo_44KHz.wav
3	113	2	1	0	C	2	0	575	0	poli_8sides 7_whiteLine3.jpg	Short_b20_cut1_stereo_44KHz.wav
3	114	1	1	1	C	2	1	536	1	poli_8sides 8_whiteLine3.jpg	Short_b20_cut1_stereo_44KHz.wav
3	115	4	3	2	I	2	0	541	1	poli_8sides 12_whiteLine3.jpg	Short_b09_cut1_stereo_44KHz.wav
3	116	3	3	2	I	2	0	541	1	poli_8sides 10_whiteLine3.jpg	Short_b09_cut1_stereo_44KHz.wav
3	117	2	2	1	C	1	0	474	0	poli_8sides 7_whiteLine3.jpg	Short_b22_cut1_stereo_44KHz.wav
3	118	3	4	2	I	2	0	544	0	poli_8sides 10_whiteLine3.jpg	Short_b23_cut1_stereo_44KHz.wav
3	119	1	2	0	C	1	1	494	1	poli_8sides 8_whiteLine3.jpg	Short_b22_cut1_stereo_44KHz.wav
3	120	4	4	2	I	2	0	403	1	poli_8sides 12_whiteLine3.jpg	Short_b23_cut1_stereo_44KHz.wav
3	121	2	2	1	C	1	0	477	0	poli_8sides 7_whiteLine3.jpg	Short_b22_cut1_stereo_44KHz.wav
3	122	4	4	2	I	1	0	454	0	poli_8sides 12_whiteLine3.jpg	Short_b23_cut1_stereo_44KHz.wav
3	123	1	2	0	C	1	1	675	1	poli_8sides 8_whiteLine3.jpg	Short_b22_cut1_stereo_44KHz.wav
3	124	3	4	2	I	2	0	548	1	poli_8sides 10_whiteLine3.jpg	Short_b23_cut1_stereo_44KHz.wav
3	125	4	3	2	I	1	0	765	1	poli_8sides 12_whiteLine3.jpg	Short_b09_cut1_stereo_44KHz.wav
3	126	3	3	2	I	1	0	668	1	poli_8sides 10_whiteLine3.jpg	Short_b09_cut1_stereo_44KHz.wav
3	127	1	1	1	C	1	0	851	0	poli_8sides 8_whiteLine3.jpg	Short_b20_cut1_stereo_44KHz.wav
3	128	2	1	0	C	2	0	575	0	poli_8sides 7_whiteLine3.jpg	Short_b20_cut1_stereo_44KHz.wav
3	129	3	3	2	I	2	0	940	0	poli_8sides 10_whiteLine3.jpg	Short_b09_cut1_stereo_44KHz.wav
3	130	1	2	0	C	2	0	668	0	poli_8sides 8_whiteLine3.jpg	Short_b22_cut1_stereo_44KHz.wav
3	131	4	3	2	I	2	0	597	1	poli_8sides 12_whiteLine3.jpg	Short_b09_cut1_stereo_44KHz.wav
3	132	2	2	1	C	1	0	777	0	poli_8sides 7_whiteLine3.jpg	Short_b22_cut1_stereo_44KHz.wav
3	133	3	4	2	I	2	0	723	0	poli_8sides 10_whiteLine3.jpg	Short_b23_cut1_stereo_44KHz.wav
3	134	2	1	0	C	1	1	449	1	poli_8sides 7_whiteLine3.jpg	Short_b20_cut1_stereo_44KHz.wav
3	135	1	1	1	C	1	0	577	0	poli_8sides 8_whiteLine3.jpg	Short_b20_cut1_stereo_44KHz.wav
3	136	4	4	2	I	2	0	583	1	poli_8sides 12_whiteLine3.jpg	Short_b23_cut1_stereo_44KHz.wav
3	137	1	2	0	C	1	1	1042	1	poli_8sides 8_whiteLine3.jpg	Short_b22_cut1_stereo_44KHz.wav
3	138	4	3	2	I	2	0	820	0	poli_8sides 12_whiteLine3.jpg	Short_b09_cut1_stereo_44KHz.wav
3	139	2	2	1	C	1	0	728	0	poli_8sides 7_whiteLine3.jpg	Short_b22_cut1_stereo_44KHz.wav
3	140	3	4	2	I	2	0	1034	1	poli_8sides 10_whiteLine3.jpg	Short_b23_cut1_stereo_44KHz.wav
3	141	2	1	0	C	1	1	898	1	poli_8sides 7_whiteLine3.jpg	Short_b20_cut1_stereo_44KHz.wav
3	142	4	4	2	I	2	0	620	0	poli_8sides 12_whiteLine3.jpg	Short_b23_cut1_stereo_44KHz.wav
3	143	1	1	1	C	1	0	522	0	poli_8sides 8_whiteLine3.jpg	Short_b20_cut1_stereo_44KHz.wav
3	144	3	3	2	I	2	0	495	0	poli_8sides 10_whiteLine3.jpg	Short_b09_cut1_stereo_44KHz.wav
3	145	2	1	0	C	1	1	756	1	poli_8sides 7_whiteLine3.jpg	Short_b20_cut1_stereo_44KHz.wav
3	146	4	3	2	I	2	0	445	1	poli_8sides 12_whiteLine3.jpg	Short_b09_cut1_stereo_44KHz.wav
3	147	1	1	1	C	2	1	791	1	poli_8sides 8_whiteLine3.jpg	Short_b20_cut1_stereo_44KHz.wav
3	148	3	4	2	I	1	0	507	0	poli_8sides 10_whiteLine3.jpg	Short_b23_cut1_stereo_44KHz.wav
3	149	1	2	0	C	1	1	571	1	poli_8sides 8_whiteLine3.jpg	Short_b22_cut1_stereo_44KHz.wav
3	150	2	2	1	C	2	1	1069	1	poli_8sides 7_whiteLine3.jpg	Short_b22_cut1_stereo_44KHz.wav
3	151	4	4	2	I	2	0	661	0	poli_8sides 12_whiteLine3.jpg	Short_b23_cut1_stereo_44KHz.wav
3	152	3	3	2	I	1	0	484	0	poli_8sides 10_whiteLine3.jpg	Short_b09_cut1_stereo_44KHz.wav
3	153	4	4	2	I	1	0	535	1	poli_8sides 12_whiteLine3.jpg	Short_b23_cut1_stereo_44KHz.wav
3	154	2	1	0	C	1	1	741	1	poli_8sides 7_whiteLine3.jpg	Short_b20_cut1_stereo_44KHz.wav
3	155	1	1	1	C	1	0	453	0	poli_8sides 8_whiteLine3.jpg	Short_b20_cut1_stereo_44KHz.wav
3	156	3	4	2	I	2	0	1018	1	poli_8sides 10_whiteLine3.jpg	Short_b23_cut1_stereo_44KHz.wav
3	157	1	2	0	C	1	1	990	1	poli_8sides 8_whiteLine3.jpg	Short_b22_cut1_stereo_44KHz.wav
3	158	4	3	2	I	2	0	653	1	poli_8sides 12_whiteLine3.jpg	Short_b09_cut1_stereo_44KHz.wav
3	159	3	3	2	I	2	0	840	1	poli_8sides 10_whiteLine3.jpg	Short_b09_cut1_stereo_44KHz.wav
3	160	2	2	1	C	1	0	642	0	poli_8sides 7_whiteLine3.jpg	Short_b22_cut1_stereo_44KHz.wav
3	161	4	3	2	I	2	0	1072	0	poli_8sides 12_whiteLine3.jpg	Short_b09_cut1_stereo_44KHz.wav
3	162	1	2	0	C	1	1	692	1	poli_8sides 8_whiteLine3.jpg	Short_b22_cut1_stereo_44KHz.wav
3	163	2	2	1	C	1	0	631	0	poli_8sides 7_whiteLine3.jpg	Short_b22_cut1_stereo_44KHz.wav
3	164	3	3	2	I	2	0	707	1	poli_8sides 10_whiteLine3.jpg	Short_b09_cut1_stereo_44KHz.wav
3	165	1	1	1	C	2	1	1325	1	poli_8sides 8_whiteLine3.jpg	Short_b20_cut1_stereo_44KHz.wav
3	166	3	4	2	I	2	0	620	0	poli_8sides 10_whiteLine3.jpg	Short_b23_cut1_stereo_44KHz.wav
3	167	4	4	2	I	1	0	808	0	poli_8sides 12_whiteLine3.jpg	Short_b23_cut1_stereo_44KHz.wav
3	168	2	1	0	C	1	1	898	1	poli_8sides 7_whiteLine3.jpg	Short_b20_cut1_stereo_44KHz.wav
3	169	4	3	2	I	2	0	840	1	poli_8sides 12_whiteLine3.jpg	Short_b09_cut1_stereo_44KHz.wav
3	170	3	3	2	I	1	0	760	0	poli_8sides 10_whiteLine3.jpg	Short_b09_cut1_stereo_44KHz.wav
3	171	1	1	1	C	2	1	1149	1	poli_8sides 8_whiteLine3.jpg	Short_b20_cut1_stereo_44KHz.wav
3	172	2	1	0	C	1	1	914	1	poli_8sides 7_whiteLine3.jpg	Short_b20_cut1_stereo_44KHz.wav
3	173	3	4	2	I	2	0	721	0	poli_8sides 10_whiteLine3.jpg	Short_b23_cut1_stereo_44KHz.wav
3	174	1	2	0	C	2	0	925	0	poli_8sides 8_whiteLine3.jpg	Short_b22_cut1_stereo_44KHz.wav
3	175	4	4	2	I	2	0	686	1	poli_8sides 12_whiteLine3.jpg	Short_b23_cut1_stereo_44KHz.wav
3	176	2	2	1	C	1	0	780	0	poli_8sides 7_whiteLine3.jpg	Short_b22_cut1_stereo_44KHz.wav
3	177	4	3	2	I	1	0	892	1	poli_8sides 12_whiteLine3.jpg	Short_b09_cut1_stereo_44KHz.wav
3	178	1	1	1	C	2	1	826	1	poli_8sides 8_whiteLine3.jpg	Short_b20_cut1_stereo_44KHz.wav
3	179	3	4	2	I	2	0	777	1	poli_8sides 10_whiteLine3.jpg	Short_b23_cut1_stereo_44KHz.wav
3	180	2	1	0	C	1	1	820	1	poli_8sides 7_whiteLine3.jpg	Short_b20_cut1_stereo_44KHz.wav
3	181	3	3	2	I	2	0	610	0	poli_8sides 10_whiteLine3.jpg	Short_b09_cut1_stereo_44KHz.wav
3	182	4	4	2	I	2	0	832	0	poli_8sides 12_whiteLine3.jpg	Short_b23_cut1_stereo_44KHz.wav
3	183	1	2	0	C	1	1	850	1	poli_8sides 8_whiteLine3.jpg	Short_b22_cut1_stereo_44KHz.wav
3	184	2	2	1	C	2	1	789	1	poli_8sides 7_whiteLine3.jpg	Short_b22_cut1_stereo_44KHz.wav
3	185	3	4	2	I	2	0	911	0	poli_8sides 10_whiteLine3.jpg	Short_b23_cut1_stereo_44KHz.wav
3	186	4	4	2	I	1	0	494	1	poli_8sides 12_whiteLine3.jpg	Short_b23_cut1_stereo_44KHz.wav
3	187	2	1	0	C	1	1	605	1	poli_8sides 7_whiteLine3.jpg	Short_b20_cut1_stereo_44KHz.wav
3	188	1	1	1	C	2	1	869	1	poli_8sides 8_whiteLine3.jpg	Short_b20_cut1_stereo_44KHz.wav
3	189	4	3	2	I	2	0	604	1	poli_8sides 12_whiteLine3.jpg	Short_b09_cut1_stereo_44KHz.wav
3	190	1	2	0	C	2	0	762	0	poli_8sides 8_whiteLine3.jpg	Short_b22_cut1_stereo_44KHz.wav
3	191	3	3	2	I	2	0	563	1	poli_8sides 10_whiteLine3.jpg	Short_b09_cut1_stereo_44KHz.wav
3	192	2	2	1	C	2	1	872	1	poli_8sides 7_whiteLine3.jpg	Short_b22_cut1_stereo_44KHz.wav
3	193	4	3	2	I	2	0	594	1	poli_8sides 12_whiteLine3.jpg	Short_b09_cut1_stereo_44KHz.wav
3	194	1	1	1	C	2	1	814	1	poli_8sides 8_whiteLine3.jpg	Short_b20_cut1_stereo_44KHz.wav
3	195	2	1	0	C	1	1	692	1	poli_8sides 7_whiteLine3.jpg	Short_b20_cut1_stereo_44KHz.wav
3	196	3	3	2	I	2	0	580	0	poli_8sides 10_whiteLine3.jpg	Short_b09_cut1_stereo_44KHz.wav
3	197	1	2	0	C	1	1	940	1	poli_8sides 8_whiteLine3.jpg	Short_b22_cut1_stereo_44KHz.wav
3	198	2	2	1	C	2	1	1179	1	poli_8sides 7_whiteLine3.jpg	Short_b22_cut1_stereo_44KHz.wav
3	199	4	4	2	I	2	0	612	1	poli_8sides 12_whiteLine3.jpg	Short_b23_cut1_stereo_44KHz.wav
3	200	3	4	2	I	2	0	627	1	poli_8sides 10_whiteLine3.jpg	Short_b23_cut1_stereo_44KHz.wav
4	1	2	1	0	C	2	0	870	0	poli_8sides 16_whiteLine3.jpg	MediumShort_e16_cut1_stereo_44KHz.wav
4	2	4	4	2	I	1	0	936	0	poli_8sides 5_whiteLine3.jpg	MediumShort_b16_cut3_MS_stereo_44KHz.wav
4	3	3	4	2	I	1	0	480	0	poli_8sides 18_whiteLine3.jpg	MediumShort_b16_cut3_MS_stereo_44KHz.wav
4	4	1	2	0	C	1	1	582	1	poli_8sides 13_whiteLine3.jpg	MediumShort_b10_cut1_MS_stereo_44KHz.wav
4	5	2	2	1	C	2	1	689	1	poli_8sides 16_whiteLine3.jpg	MediumShort_b10_cut1_MS_stereo_44KHz.wav
4	6	4	3	2	I	2	0	487	1	poli_8sides 5_whiteLine3.jpg	MediumShort_e22_cut1_stereo_44KHz.wav
4	7	3	3	2	I	1	0	842	1	poli_8sides 18_whiteLine3.jpg	MediumShort_e22_cut1_stereo_44KHz.wav
4	8	1	1	1	C	1	0	826	0	poli_8sides 13_whiteLine3.jpg	MediumShort_e16_cut1_stereo_44KHz.wav
4	9	3	3	2	I	1	0	662	0	poli_8sides 18_whiteLine3.jpg	MediumShort_e22_cut1_stereo_44KHz.wav
4	10	1	2	0	C	1	1	501	1	poli_8sides 13_whiteLine3.jpg	MediumShort_b10_cut1_MS_stereo_44KHz.wav
4	11	4	3	2	I	2	0	694	0	poli_8sides 5_whiteLine3.jpg	MediumShort_e22_cut1_stereo_44KHz.wav
4	12	2	1	0	C	1	1	696	1	poli_8sides 16_whiteLine3.jpg	MediumShort_e16_cut1_stereo_44KHz.wav
4	13	1	1	1	C	1	0	784	0	poli_8sides 13_whiteLine3.jpg	MediumShort_e16_cut1_stereo_44KHz.wav
4	14	2	2	1	C	1	0	602	0	poli_8sides 16_whiteLine3.jpg	MediumShort_b10_cut1_MS_stereo_44KHz.wav
4	15	3	4	2	I	2	0	888	0	poli_8sides 18_whiteLine3.jpg	MediumShort_b16_cut3_MS_stereo_44KHz.wav
4	16	4	4	2	I	2	0	826	0	poli_8sides 5_whiteLine3.jpg	MediumShort_b16_cut3_MS_stereo_44KHz.wav
4	17	1	2	0	C	1	1	452	1	poli_8sides 13_whiteLine3.jpg	MediumShort_b10_cut1_MS_stereo_44KHz.wav
4	18	3	4	2	I	1	0	813	1	poli_8sides 18_whiteLine3.jpg	MediumShort_b16_cut3_MS_stereo_44KHz.wav
4	19	2	2	1	C	1	0	780	0	poli_8sides 16_whiteLine3.jpg	MediumShort_b10_cut1_MS_stereo_44KHz.wav
4	20	4	4	2	I	2	0	670	0	poli_8sides 5_whiteLine3.jpg	MediumShort_b16_cut3_MS_stereo_44KHz.wav
4	21	3	3	2	I	1	0	581	1	poli_8sides 18_whiteLine3.jpg	MediumShort_e22_cut1_stereo_44KHz.wav
4	22	2	1	0	C	2	0	449	0	poli_8sides 16_whiteLine3.jpg	MediumShort_e16_cut1_stereo_44KHz.wav
4	23	4	3	2	I	2	0	590	1	poli_8sides 5_whiteLine3.jpg	MediumShort_e22_cut1_stereo_44KHz.wav
4	24	1	1	1	C	1	0	623	0	poli_8sides 13_whiteLine3.jpg	MediumShort_e16_cut1_stereo_44KHz.wav
4	25	2	1	0	C	1	1	609	1	poli_8sides 16_whiteLine3.jpg	MediumShort_e16_cut1_stereo_44KHz.wav
4	26	1	2	0	C	1	1	604	1	poli_8sides 13_whiteLine3.jpg	MediumShort_b10_cut1_MS_stereo_44KHz.wav
4	27	4	4	2	I	2	0	643	1	poli_8sides 5_whiteLine3.jpg	MediumShort_b16_cut3_MS_stereo_44KHz.wav
4	28	3	3	2	I	2	0	837	1	poli_8sides 18_whiteLine3.jpg	MediumShort_e22_cut1_stereo_44KHz.wav
4	29	4	3	2	I	2	0	612	0	poli_8sides 5_whiteLine3.jpg	MediumShort_e22_cut1_stereo_44KHz.wav
4	30	3	4	2	I	1	0	919	0	poli_8sides 18_whiteLine3.jpg	MediumShort_b16_cut3_MS_stereo_44KHz.wav
4	31	2	2	1	C	1	0	748	0	poli_8sides 16_whiteLine3.jpg	MediumShort_b10_cut1_MS_stereo_44KHz.wav
4	32	1	1	1	C	2	1	704	1	poli_8sides 13_whiteLine3.jpg	MediumShort_e16_cut1_stereo_44KHz.wav
4	33	3	4	2	I	1	0	556	0	poli_8sides 18_whiteLine3.jpg	MediumShort_b16_cut3_MS_stereo_44KHz.wav
4	34	1	1	1	C	2	1	881	1	poli_8sides 13_whiteLine3.jpg	MediumShort_e16_cut1_stereo_44KHz.wav
4	35	2	1	0	C	2	0	1107	0	poli_8sides 16_whiteLine3.jpg	MediumShort_e16_cut1_stereo_44KHz.wav
4	36	4	3	2	I	1	0	692	0	poli_8sides 5_whiteLine3.jpg	MediumShort_e22_cut1_stereo_44KHz.wav
4	37	2	2	1	C	1	0	596	0	poli_8sides 16_whiteLine3.jpg	MediumShort_b10_cut1_MS_stereo_44KHz.wav
4	38	1	2	0	C	2	0	821	0	poli_8sides 13_whiteLine3.jpg	MediumShort_b10_cut1_MS_stereo_44KHz.wav
4	39	4	4	2	I	1	0	549	1	poli_8sides 5_whiteLine3.jpg	MediumShort_b16_cut3_MS_stereo_44KHz.wav
4	40	3	3	2	I	1	0	614	1	poli_8sides 18_whiteLine3.jpg	MediumShort_e22_cut1_stereo_44KHz.wav
4	41	4	4	2	I	2	0	622	1	poli_8sides 5_whiteLine3.jpg	MediumShort_b16_cut3_MS_stereo_44KHz.wav
4	42	3	3	2	I	1	0	1052	1	poli_8sides 18_whiteLine3.jpg	MediumShort_e22_cut1_stereo_44KHz.wav
4	43	1	1	1	C	2	1	696	1	poli_8sides 13_whiteLine3.jpg	MediumShort_e16_cut1_stereo_44KHz.wav
4	44	2	2	1	C	1	0	934	0	poli_8sides 16_whiteLine3.jpg	MediumShort_b10_cut1_MS_stereo_44KHz.wav
4	45	1	2	0	C	2	0	768	0	poli_8sides 13_whiteLine3.jpg	MediumShort_b10_cut1_MS_stereo_44KHz.wav
4	46	3	4	2	I	1	0	457	1	poli_8sides 18_whiteLine3.jpg	MediumShort_b16_cut3_MS_stereo_44KHz.wav
4	47	2	1	0	C	2	0	757	0	poli_8sides 16_whiteLine3.jpg	MediumShort_e16_cut1_stereo_44KHz.wav
4	48	4	3	2	I	1	0	716	1	poli_8sides 5_whiteLine3.jpg	MediumShort_e22_cut1_stereo_44KHz.wav
4	49	1	2	0	C	2	0	775	0	poli_8sides 13_whiteLine3.jpg	MediumShort_b10_cut1_MS_stereo_44KHz.wav
4	50	3	4	2	I	2	0	532	1	poli_8sides 18_whiteLine3.jpg	MediumShort_b16_cut3_MS_stereo_44KHz.wav
4	51	2	1	0	C	1	1	423	1	poli_8sides 16_whiteLine3.jpg	MediumShort_e16_cut1_stereo_44KHz.wav
4	52	4	4	2	I	1	0	815	1	poli_8sides 5_whiteLine3.jpg	MediumShort_b16_cut3_MS_stereo_44KHz.wav
4	53	2	2	1	C	2	1	725	1	poli_8sides 16_whiteLine3.jpg	MediumShort_b10_cut1_MS_stereo_44KHz.wav
4	54	3	3	2	I	2	0	459	0	poli_8sides 18_whiteLine3.jpg	MediumShort_e22_cut1_stereo_44KHz.wav
4	55	1	1	1	C	2	1	600	1	poli_8sides 13_whiteLine3.jpg	MediumShort_e16_cut1_stereo_44KHz.wav
4	56	4	3	2	I	1	0	736	1	poli_8sides 5_whiteLine3.jpg	MediumShort_e22_cut1_stereo_44KHz.wav
4	57	1	2	0	C	2	0	542	0	poli_8sides 13_whiteLine3.jpg	MediumShort_b10_cut1_MS_stereo_44KHz.wav
4	58	2	1	0	C	1	1	394	1	poli_8sides 16_whiteLine3.jpg	MediumShort_e16_cut1_stereo_44KHz.wav
4	59	4	4	2	I	1	0	825	1	poli_8sides 5_whiteLine3.jpg	MediumShort_b16_cut3_MS_stereo_44KHz.wav
4	60	3	4	2	I	2	0	676	1	poli_8sides 18_whiteLine3.jpg	MediumShort_b16_cut3_MS_stereo_44KHz.wav
4	61	4	3	2	I	1	0	652	0	poli_8sides 5_whiteLine3.jpg	MediumShort_e22_cut1_stereo_44KHz.wav
4	62	2	2	1	C	1	0	682	0	poli_8sides 16_whiteLine3.jpg	MediumShort_b10_cut1_MS_stereo_44KHz.wav
4	63	1	1	1	C	2	1	641	1	poli_8sides 13_whiteLine3.jpg	MediumShort_e16_cut1_stereo_44KHz.wav
4	64	3	3	2	I	1	0	679	1	poli_8sides 18_whiteLine3.jpg	MediumShort_e22_cut1_stereo_44KHz.wav
4	65	1	2	0	C	2	0	596	0	poli_8sides 13_whiteLine3.jpg	MediumShort_b10_cut1_MS_stereo_44KHz.wav
4	66	3	4	2	I	1	0	530	1	poli_8sides 18_whiteLine3.jpg	MediumShort_b16_cut3_MS_stereo_44KHz.wav
4	67	2	1	0	C	1	1	794	1	poli_8sides 16_whiteLine3.jpg	MediumShort_e16_cut1_stereo_44KHz.wav
4	68	4	4	2	I	1	0	684	1	poli_8sides 5_whiteLine3.jpg	MediumShort_b16_cut3_MS_stereo_44KHz.wav
4	69	1	1	1	C	2	1	694	1	poli_8sides 13_whiteLine3.jpg	MediumShort_e16_cut1_stereo_44KHz.wav
4	70	2	2	1	C	2	1	927	1	poli_8sides 16_whiteLine3.jpg	MediumShort_b10_cut1_MS_stereo_44KHz.wav
4	71	4	3	2	I	1	0	515	0	poli_8sides 5_whiteLine3.jpg	MediumShort_e22_cut1_stereo_44KHz.wav
4	72	3	3	2	I	1	0	635	1	poli_8sides 18_whiteLine3.jpg	MediumShort_e22_cut1_stereo_44KHz.wav
4	73	2	1	0	C	1	1	770	1	poli_8sides 16_whiteLine3.jpg	MediumShort_e16_cut1_stereo_44KHz.wav
4	74	1	2	0	C	2	0	777	0	poli_8sides 13_whiteLine3.jpg	MediumShort_b10_cut1_MS_stereo_44KHz.wav
4	75	4	4	2	I	2	0	1296	0	poli_8sides 5_whiteLine3.jpg	MediumShort_b16_cut3_MS_stereo_44KHz.wav
4	76	3	4	2	I	1	0	650	0	poli_8sides 18_whiteLine3.jpg	MediumShort_b16_cut3_MS_stereo_44KHz.wav
4	77	2	2	1	C	2	1	993	1	poli_8sides 16_whiteLine3.jpg	MediumShort_b10_cut1_MS_stereo_44KHz.wav
4	78	3	3	2	I	2	0	555	0	poli_8sides 18_whiteLine3.jpg	MediumShort_e22_cut1_stereo_44KHz.wav
4	79	4	3	2	I	1	0	872	1	poli_8sides 5_whiteLine3.jpg	MediumShort_e22_cut1_stereo_44KHz.wav
4	80	1	1	1	C	1	0	752	0	poli_8sides 13_whiteLine3.jpg	MediumShort_e16_cut1_stereo_44KHz.wav
4	81	2	2	1	C	2	1	855	1	poli_8sides 16_whiteLine3.jpg	MediumShort_b10_cut1_MS_stereo_44KHz.wav
4	82	3	3	2	I	2	0	454	0	poli_8sides 18_whiteLine3.jpg	MediumShort_e22_cut1_stereo_44KHz.wav
4	83	4	3	2	I	1	0	688	0	poli_8sides 5_whiteLine3.jpg	MediumShort_e22_cut1_stereo_44KHz.wav
4	84	1	2	0	C	1	1	918	1	poli_8sides 13_whiteLine3.jpg	MediumShort_b10_cut1_MS_stereo_44KHz.wav
4	85	4	4	2	I	1	0	607	0	poli_8sides 5_whiteLine3.jpg	MediumShort_b16_cut3_MS_stereo_44KHz.wav
4	86	3	4	2	I	1	0	467	1	poli_8sides 18_whiteLine3.jpg	MediumShort_b16_cut3_MS_stereo_44KHz.wav
4	87	1	1	1	C	1	0	663	0	poli_8sides 13_whiteLine3.jpg	MediumShort_e16_cut1_stereo_44KHz.wav
4	88	2	1	0	C	1	1	573	1	poli_8sides 16_whiteLine3.jpg	MediumShort_e16_cut1_stereo_44KHz.wav
4	89	4	4	2	I	1	0	598	0	poli_8sides 5_whiteLine3.jpg	MediumShort_b16_cut3_MS_stereo_44KHz.wav
4	90	1	1	1	C	1	0	732	0	poli_8sides 13_whiteLine3.jpg	MediumShort_e16_cut1_stereo_44KHz.wav
4	91	2	1	0	C	1	1	896	1	poli_8sides 16_whiteLine3.jpg	MediumShort_e16_cut1_stereo_44KHz.wav
4	92	3	3	2	I	2	0	746	0	poli_8sides 18_whiteLine3.jpg	MediumShort_e22_cut1_stereo_44KHz.wav
4	93	4	3	2	I	2	0	457	1	poli_8sides 5_whiteLine3.jpg	MediumShort_e22_cut1_stereo_44KHz.wav
4	94	3	4	2	I	2	0	1091	0	poli_8sides 18_whiteLine3.jpg	MediumShort_b16_cut3_MS_stereo_44KHz.wav
4	95	1	2	0	C	1	1	494	1	poli_8sides 13_whiteLine3.jpg	MediumShort_b10_cut1_MS_stereo_44KHz.wav
4	96	2	2	1	C	1	0	681	0	poli_8sides 16_whiteLine3.jpg	MediumShort_b10_cut1_MS_stereo_44KHz.wav
4	97	3	4	2	I	1	0	796	0	poli_8sides 18_whiteLine3.jpg	MediumShort_b16_cut3_MS_stereo_44KHz.wav
4	98	4	3	2	I	2	0	598	1	poli_8sides 5_whiteLine3.jpg	MediumShort_e22_cut1_stereo_44KHz.wav
4	99	1	1	1	C	1	0	605	0	poli_8sides 13_whiteLine3.jpg	MediumShort_e16_cut1_stereo_44KHz.wav
4	100	2	1	0	C	1	1	529	1	poli_8sides 16_whiteLine3.jpg	MediumShort_e16_cut1_stereo_44KHz.wav
4	101	4	4	2	I	2	0	684	0	poli_8sides 5_whiteLine3.jpg	MediumShort_b16_cut3_MS_stereo_44KHz.wav
4	102	2	2	1	C	2	1	833	1	poli_8sides 16_whiteLine3.jpg	MediumShort_b10_cut1_MS_stereo_44KHz.wav
4	103	3	3	2	I	2	0	694	0	poli_8sides 18_whiteLine3.jpg	MediumShort_e22_cut1_stereo_44KHz.wav
4	104	1	2	0	C	1	1	975	1	poli_8sides 13_whiteLine3.jpg	MediumShort_b10_cut1_MS_stereo_44KHz.wav
4	105	3	4	2	I	2	0	544	0	poli_8sides 18_whiteLine3.jpg	MediumShort_b16_cut3_MS_stereo_44KHz.wav
4	106	4	3	2	I	1	0	1067	1	poli_8sides 5_whiteLine3.jpg	MediumShort_e22_cut1_stereo_44KHz.wav
4	107	2	1	0	C	1	1	1101	1	poli_8sides 16_whiteLine3.jpg	MediumShort_e16_cut1_stereo_44KHz.wav
4	108	1	1	1	C	2	1	1034	1	poli_8sides 13_whiteLine3.jpg	MediumShort_e16_cut1_stereo_44KHz.wav
4	109	3	3	2	I	2	0	755	1	poli_8sides 18_whiteLine3.jpg	MediumShort_e22_cut1_stereo_44KHz.wav
4	110	2	2	1	C	2	1	975	1	poli_8sides 16_whiteLine3.jpg	MediumShort_b10_cut1_MS_stereo_44KHz.wav
4	111	4	4	2	I	1	0	863	0	poli_8sides 5_whiteLine3.jpg	MediumShort_b16_cut3_MS_stereo_44KHz.wav
4	112	1	2	0	C	1	1	847	1	poli_8sides 13_whiteLine3.jpg	MediumShort_b10_cut1_MS_stereo_44KHz.wav
4	113	4	3	2	I	2	0	676	1	poli_8sides 5_whiteLine3.jpg	MediumShort_e22_cut1_stereo_44KHz.wav
4	114	3	3	2	I	2	0	698	1	poli_8sides 18_whiteLine3.jpg	MediumShort_e22_cut1_stereo_44KHz.wav
4	115	1	2	0	C	1	1	916	1	poli_8sides 13_whiteLine3.jpg	MediumShort_b10_cut1_MS_stereo_44KHz.wav
4	116	2	1	0	C	2	0	872	0	poli_8sides 16_whiteLine3.jpg	MediumShort_e16_cut1_stereo_44KHz.wav
4	117	4	4	2	I	1	0	755	1	poli_8sides 5_whiteLine3.jpg	MediumShort_b16_cut3_MS_stereo_44KHz.wav
4	118	2	2	1	C	2	1	733	1	poli_8sides 16_whiteLine3.jpg	MediumShort_b10_cut1_MS_stereo_44KHz.wav
4	119	3	4	2	I	2	0	607	1	poli_8sides 18_whiteLine3.jpg	MediumShort_b16_cut3_MS_stereo_44KHz.wav
4	120	1	1	1	C	1	0	729	0	poli_8sides 13_whiteLine3.jpg	MediumShort_e16_cut1_stereo_44KHz.wav
4	121	3	3	2	I	1	0	848	1	poli_8sides 18_whiteLine3.jpg	MediumShort_e22_cut1_stereo_44KHz.wav
4	122	2	2	1	C	2	1	909	1	poli_8sides 16_whiteLine3.jpg	MediumShort_b10_cut1_MS_stereo_44KHz.wav
4	123	4	3	2	I	2	0	987	0	poli_8sides 5_whiteLine3.jpg	MediumShort_e22_cut1_stereo_44KHz.wav
4	124	1	1	1	C	1	0	583	0	poli_8sides 13_whiteLine3.jpg	MediumShort_e16_cut1_stereo_44KHz.wav
4	125	2	1	0	C	1	1	835	1	poli_8sides 16_whiteLine3.jpg	MediumShort_e16_cut1_stereo_44KHz.wav
4	126	3	4	2	I	2	0	1237	1	poli_8sides 18_whiteLine3.jpg	MediumShort_b16_cut3_MS_stereo_44KHz.wav
4	127	4	4	2	I	1	0	835	1	poli_8sides 5_whiteLine3.jpg	MediumShort_b16_cut3_MS_stereo_44KHz.wav
4	128	1	2	0	C	1	1	1044	1	poli_8sides 13_whiteLine3.jpg	MediumShort_b10_cut1_MS_stereo_44KHz.wav
4	129	3	3	2	I	1	0	792	1	poli_8sides 18_whiteLine3.jpg	MediumShort_e22_cut1_stereo_44KHz.wav
4	130	2	2	1	C	2	1	1293	1	poli_8sides 16_whiteLine3.jpg	MediumShort_b10_cut1_MS_stereo_44KHz.wav
4	131	1	2	0	C	1	1	594	1	poli_8sides 13_whiteLine3.jpg	MediumShort_b10_cut1_MS_stereo_44KHz.wav
4	132	4	3	2	I	1	0	777	1	poli_8sides 5_whiteLine3.jpg	MediumShort_e22_cut1_stereo_44KHz.wav
4	133	3	4	2	I	2	0	759	0	poli_8sides 18_whiteLine3.jpg	MediumShort_b16_cut3_MS_stereo_44KHz.wav
4	134	4	4	2	I	1	0	733	1	poli_8sides 5_whiteLine3.jpg	MediumShort_b16_cut3_MS_stereo_44KHz.wav
4	135	1	1	1	C	1	0	697	0	poli_8sides 13_whiteLine3.jpg	MediumShort_e16_cut1_stereo_44KHz.wav
4	136	2	1	0	C	2	0	1287	0	poli_8sides 16_whiteLine3.jpg	MediumShort_e16_cut1_stereo_44KHz.wav
4	137	1	2	0	C	1	1	726	1	poli_8sides 13_whiteLine3.jpg	MediumShort_b10_cut1_MS_stereo_44KHz.wav
4	138	3	4	2	I	1	0	885	1	poli_8sides 18_whiteLine3.jpg	MediumShort_b16_cut3_MS_stereo_44KHz.wav
4	139	4	4	2	I	1	0	879	0	poli_8sides 5_whiteLine3.jpg	MediumShort_b16_cut3_MS_stereo_44KHz.wav
4	140	2	2	1	C	2	1	925	1	poli_8sides 16_whiteLine3.jpg	MediumShort_b10_cut1_MS_stereo_44KHz.wav
4	141	4	3	2	I	1	0	654	1	poli_8sides 5_whiteLine3.jpg	MediumShort_e22_cut1_stereo_44KHz.wav
4	142	3	3	2	I	1	0	996	0	poli_8sides 18_whiteLine3.jpg	MediumShort_e22_cut1_stereo_44KHz.wav
4	143	2	1	0	C	1	1	933	1	poli_8sides 16_whiteLine3.jpg	MediumShort_e16_cut1_stereo_44KHz.wav
4	144	1	1	1	C	2	1	756	1	poli_8sides 13_whiteLine3.jpg	MediumShort_e16_cut1_stereo_44KHz.wav
4	145	4	4	2	I	2	0	649	0	poli_8sides 5_whiteLine3.jpg	MediumShort_b16_cut3_MS_stereo_44KHz.wav
4	146	2	2	1	C	2	1	970	1	poli_8sides 16_whiteLine3.jpg	MediumShort_b10_cut1_MS_stereo_44KHz.wav
4	147	1	1	1	C	1	0	810	0	poli_8sides 13_whiteLine3.jpg	MediumShort_e16_cut1_stereo_44KHz.wav
4	148	3	4	2	I	1	0	998	0	poli_8sides 18_whiteLine3.jpg	MediumShort_b16_cut3_MS_stereo_44KHz.wav
4	149	1	2	0	C	1	1	831	1	poli_8sides 13_whiteLine3.jpg	MediumShort_b10_cut1_MS_stereo_44KHz.wav
4	150	2	1	0	C	1	1	1036	1	poli_8sides 16_whiteLine3.jpg	MediumShort_e16_cut1_stereo_44KHz.wav
4	151	3	3	2	I	1	0	565	0	poli_8sides 18_whiteLine3.jpg	MediumShort_e22_cut1_stereo_44KHz.wav
4	152	4	3	2	I	1	0	702	1	poli_8sides 5_whiteLine3.jpg	MediumShort_e22_cut1_stereo_44KHz.wav
4	153	3	3	2	I	1	0	839	0	poli_8sides 18_whiteLine3.jpg	MediumShort_e22_cut1_stereo_44KHz.wav
4	154	4	3	2	I	1	0	757	0	poli_8sides 5_whiteLine3.jpg	MediumShort_e22_cut1_stereo_44KHz.wav
4	155	1	2	0	C	1	1	567	1	poli_8sides 13_whiteLine3.jpg	MediumShort_b10_cut1_MS_stereo_44KHz.wav
4	156	2	2	1	C	2	1	950	1	poli_8sides 16_whiteLine3.jpg	MediumShort_b10_cut1_MS_stereo_44KHz.wav
4	157	1	1	1	C	2	1	1098	1	poli_8sides 13_whiteLine3.jpg	MediumShort_e16_cut1_stereo_44KHz.wav
4	158	4	4	2	I	1	0	677	0	poli_8sides 5_whiteLine3.jpg	MediumShort_b16_cut3_MS_stereo_44KHz.wav
4	159	2	1	0	C	1	1	805	1	poli_8sides 16_whiteLine3.jpg	MediumShort_e16_cut1_stereo_44KHz.wav
4	160	3	4	2	I	1	0	1008	1	poli_8sides 18_whiteLine3.jpg	MediumShort_b16_cut3_MS_stereo_44KHz.wav
4	161	4	3	2	I	2	0	410	0	poli_8sides 5_whiteLine3.jpg	MediumShort_e22_cut1_stereo_44KHz.wav
4	162	2	2	1	C	2	1	937	1	poli_8sides 16_whiteLine3.jpg	MediumShort_b10_cut1_MS_stereo_44KHz.wav
4	163	1	1	1	C	2	1	1035	1	poli_8sides 13_whiteLine3.jpg	MediumShort_e16_cut1_stereo_44KHz.wav
4	164	3	3	2	I	2	0	1115	0	poli_8sides 18_whiteLine3.jpg	MediumShort_e22_cut1_stereo_44KHz.wav
4	165	1	2	0	C	1	1	667	1	poli_8sides 13_whiteLine3.jpg	MediumShort_b10_cut1_MS_stereo_44KHz.wav
4	166	3	4	2	I	1	0	1010	0	poli_8sides 18_whiteLine3.jpg	MediumShort_b16_cut3_MS_stereo_44KHz.wav
4	167	2	1	0	C	1	1	798	1	poli_8sides 16_whiteLine3.jpg	MediumShort_e16_cut1_stereo_44KHz.wav
4	168	4	4	2	I	1	0	863	0	poli_8sides 5_whiteLine3.jpg	MediumShort_b16_cut3_MS_stereo_44KHz.wav
4	169	2	1	0	C	1	1	904	1	poli_8sides 16_whiteLine3.jpg	MediumShort_e16_cut1_stereo_44KHz.wav
4	170	4	3	2	I	1	0	834	0	poli_8sides 5_whiteLine3.jpg	MediumShort_e22_cut1_stereo_44KHz.wav
4	171	3	3	2	I	1	0	653	1	poli_8sides 18_whiteLine3.jpg	MediumShort_e22_cut1_stereo_44KHz.wav
4	172	1	1	1	C	2	1	1094	1	poli_8sides 13_whiteLine3.jpg	MediumShort_e16_cut1_stereo_44KHz.wav
4	173	3	4	2	I	2	0	834	0	poli_8sides 18_whiteLine3.jpg	MediumShort_b16_cut3_MS_stereo_44KHz.wav
4	174	4	4	2	I	2	0	1263	1	poli_8sides 5_whiteLine3.jpg	MediumShort_b16_cut3_MS_stereo_44KHz.wav
4	175	1	2	0	C	1	1	599	1	poli_8sides 13_whiteLine3.jpg	MediumShort_b10_cut1_MS_stereo_44KHz.wav
4	176	2	2	1	C	2	1	1125	1	poli_8sides 16_whiteLine3.jpg	MediumShort_b10_cut1_MS_stereo_44KHz.wav
4	177	1	1	1	C	2	1	926	1	poli_8sides 13_whiteLine3.jpg	MediumShort_e16_cut1_stereo_44KHz.wav
4	178	3	4	2	I	1	0	1052	1	poli_8sides 18_whiteLine3.jpg	MediumShort_b16_cut3_MS_stereo_44KHz.wav
4	179	2	1	0	C	1	1	924	1	poli_8sides 16_whiteLine3.jpg	MediumShort_e16_cut1_stereo_44KHz.wav
4	180	4	3	2	I	1	0	767	1	poli_8sides 5_whiteLine3.jpg	MediumShort_e22_cut1_stereo_44KHz.wav
4	181	3	3	2	I	1	0	544	1	poli_8sides 18_whiteLine3.jpg	MediumShort_e22_cut1_stereo_44KHz.wav
4	182	1	2	0	C	1	1	754	1	poli_8sides 13_whiteLine3.jpg	MediumShort_b10_cut1_MS_stereo_44KHz.wav
4	183	4	4	2	I	1	0	1374	0	poli_8sides 5_whiteLine3.jpg	MediumShort_b16_cut3_MS_stereo_44KHz.wav
4	184	2	2	1	C	2	1	763	1	poli_8sides 16_whiteLine3.jpg	MediumShort_b10_cut1_MS_stereo_44KHz.wav
4	185	1	2	0	C	1	1	1070	1	poli_8sides 13_whiteLine3.jpg	MediumShort_b10_cut1_MS_stereo_44KHz.wav
4	186	4	4	2	I	1	0	765	1	poli_8sides 5_whiteLine3.jpg	MediumShort_b16_cut3_MS_stereo_44KHz.wav
4	187	3	4	2	I	2	0	959	0	poli_8sides 18_whiteLine3.jpg	MediumShort_b16_cut3_MS_stereo_44KHz.wav
4	188	2	1	0	C	1	1	784	1	poli_8sides 16_whiteLine3.jpg	MediumShort_e16_cut1_stereo_44KHz.wav
4	189	4	3	2	I	1	0	647	0	poli_8sides 5_whiteLine3.jpg	MediumShort_e22_cut1_stereo_44KHz.wav
4	190	1	1	1	C	2	1	1020	1	poli_8sides 13_whiteLine3.jpg	MediumShort_e16_cut1_stereo_44KHz.wav
4	191	2	2	1	C	2	1	1067	1	poli_8sides 16_whiteLine3.jpg	MediumShort_b10_cut1_MS_stereo_44KHz.wav
4	192	3	3	2	I	1	0	655	1	poli_8sides 18_whiteLine3.jpg	MediumShort_e22_cut1_stereo_44KHz.wav
4	193	2	1	0	C	1	1	1039	1	poli_8sides 16_whiteLine3.jpg	MediumShort_e16_cut1_stereo_44KHz.wav
4	194	4	3	2	I	1	0	1692	0	poli_8sides 5_whiteLine3.jpg	MediumShort_e22_cut1_stereo_44KHz.wav
4	195	3	3	2	I	1	0	1233	0	poli_8sides 18_whiteLine3.jpg	MediumShort_e22_cut1_stereo_44KHz.wav
4	196	1	1	1	C	2	1	684	1	poli_8sides 13_whiteLine3.jpg	MediumShort_e16_cut1_stereo_44KHz.wav
4	197	2	2	1	C	2	1	878	1	poli_8sides 16_whiteLine3.jpg	MediumShort_b10_cut1_MS_stereo_44KHz.wav
4	198	4	4	2	I	1	0	750	1	poli_8sides 5_whiteLine3.jpg	MediumShort_b16_cut3_MS_stereo_44KHz.wav
4	199	1	2	0	C	1	1	983	1	poli_8sides 13_whiteLine3.jpg	MediumShort_b10_cut1_MS_stereo_44KHz.wav
4	200	3	4	2	I	2	0	912	0	poli_8sides 18_whiteLine3.jpg	MediumShort_b16_cut3_MS_stereo_44KHz.wav
