block	trial	Vstim	Astim	match	C/I	resp	.result	RT	fb	V-file	A-file
RL

0	1	2	4	0	C	2	1	1842	1	Ⴉ	cut_oo_stereo_44KHz.wav
0	2	2	3	1	C	1	1	1435	1	Ⴉ	cut_ee_stereo_44KHz.wav
0	3	1	1	1	C	1	1	858	1	Ⴞ	cut_eeuw_stereo_44KHz.wav
0	4	1	2	0	C	1	0	628	0	Ⴞ	cut_g_stereo_44KHz.wav
0	5	2	4	0	C	2	1	654	1	Ⴉ	cut_oo_stereo_44KHz.wav
0	6	1	2	0	C	2	1	964	1	Ⴞ	cut_g_stereo_44KHz.wav
0	7	2	3	1	C	2	0	751	0	Ⴉ	cut_ee_stereo_44KHz.wav
0	8	1	1	1	C	2	0	1147	0	Ⴞ	cut_eeuw_stereo_44KHz.wav
0	9	1	1	1	C	2	0	751	0	Ⴞ	cut_eeuw_stereo_44KHz.wav
0	10	2	4	0	C	2	1	737	1	Ⴉ	cut_oo_stereo_44KHz.wav
0	11	1	2	0	C	2	1	883	1	Ⴞ	cut_g_stereo_44KHz.wav
0	12	2	3	1	C	0	0	0	0	Ⴉ	cut_ee_stereo_44KHz.wav
0	13	1	1	1	C	1	1	1110	1	Ⴞ	cut_eeuw_stereo_44KHz.wav
0	14	2	4	0	C	2	1	721	1	Ⴉ	cut_oo_stereo_44KHz.wav
0	15	2	3	1	C	1	1	1029	1	Ⴉ	cut_ee_stereo_44KHz.wav
0	16	1	2	0	C	2	1	966	1	Ⴞ	cut_g_stereo_44KHz.wav
0	17	1	1	1	C	1	1	932	1	Ⴞ	cut_eeuw_stereo_44KHz.wav
0	18	1	2	0	C	2	1	947	1	Ⴞ	cut_g_stereo_44KHz.wav
0	19	2	4	0	C	2	1	711	1	Ⴉ	cut_oo_stereo_44KHz.wav
0	20	2	3	1	C	1	1	881	1	Ⴉ	cut_ee_stereo_44KHz.wav
0	21	1	2	0	C	2	1	901	1	Ⴞ	cut_g_stereo_44KHz.wav
0	22	2	3	1	C	1	1	1175	1	Ⴉ	cut_ee_stereo_44KHz.wav
0	23	2	4	0	C	2	1	697	1	Ⴉ	cut_oo_stereo_44KHz.wav
0	24	1	1	1	C	1	1	1236	1	Ⴞ	cut_eeuw_stereo_44KHz.wav
0	25	2	4	0	C	2	1	602	1	Ⴉ	cut_oo_stereo_44KHz.wav
0	26	1	2	0	C	2	1	679	1	Ⴞ	cut_g_stereo_44KHz.wav
0	27	1	1	1	C	1	1	1363	1	Ⴞ	cut_eeuw_stereo_44KHz.wav
0	28	2	3	1	C	2	0	1092	0	Ⴉ	cut_ee_stereo_44KHz.wav
0	29	1	2	0	C	2	1	661	1	Ⴞ	cut_g_stereo_44KHz.wav
0	30	1	1	1	C	1	1	619	1	Ⴞ	cut_eeuw_stereo_44KHz.wav
avg_resp = 942
1	1	1	1	1	C	2	0	1116	0	Ⴜ	cut_g_stereo_44KHz.wav
1	2	4	4	2	I	2	0	1063	1	Ⴊ	cut_w_stereo_44KHz.wav
1	3	3	4	2	I	1	0	628	0	Ⴃ	cut_w_stereo_44KHz.wav
1	4	2	1	0	C	2	1	777	1	Ⴂ	cut_g_stereo_44KHz.wav
1	5	4	3	2	I	1	0	1063	1	Ⴊ	cut_h_stereo_44KHz.wav
1	6	1	2	0	C	1	0	861	0	Ⴜ	cut_l_stereo_44KHz.wav
1	7	3	3	2	I	2	0	872	0	Ⴃ	cut_h_stereo_44KHz.wav
1	8	2	2	1	C	2	0	690	0	Ⴂ	cut_l_stereo_44KHz.wav
1	9	3	3	2	I	1	0	987	0	Ⴃ	cut_h_stereo_44KHz.wav
1	10	4	3	2	I	1	0	1253	0	Ⴊ	cut_h_stereo_44KHz.wav
1	11	1	1	1	C	2	0	730	0	Ⴜ	cut_g_stereo_44KHz.wav
1	12	2	1	0	C	1	0	1041	0	Ⴂ	cut_g_stereo_44KHz.wav
1	13	1	2	0	C	1	0	1036	0	Ⴜ	cut_l_stereo_44KHz.wav
1	14	2	2	1	C	1	1	1102	1	Ⴂ	cut_l_stereo_44KHz.wav
1	15	3	4	2	I	1	0	1201	0	Ⴃ	cut_w_stereo_44KHz.wav
1	16	4	4	2	I	2	0	1031	1	Ⴊ	cut_w_stereo_44KHz.wav
1	17	2	1	0	C	1	0	1165	0	Ⴂ	cut_g_stereo_44KHz.wav
1	18	4	3	2	I	1	0	1104	0	Ⴊ	cut_h_stereo_44KHz.wav
1	19	3	3	2	I	2	0	1011	1	Ⴃ	cut_h_stereo_44KHz.wav
1	20	1	1	1	C	1	1	1108	1	Ⴜ	cut_g_stereo_44KHz.wav
1	21	3	4	2	I	2	0	891	1	Ⴃ	cut_w_stereo_44KHz.wav
1	22	1	2	0	C	2	1	1242	1	Ⴜ	cut_l_stereo_44KHz.wav
1	23	4	4	2	I	2	0	988	0	Ⴊ	cut_w_stereo_44KHz.wav
1	24	2	2	1	C	1	1	1211	1	Ⴂ	cut_l_stereo_44KHz.wav
1	25	4	3	2	I	1	0	977	0	Ⴊ	cut_h_stereo_44KHz.wav
1	26	3	4	2	I	2	0	675	0	Ⴃ	cut_w_stereo_44KHz.wav
1	27	2	2	1	C	1	1	881	1	Ⴂ	cut_l_stereo_44KHz.wav
1	28	1	1	1	C	2	0	949	0	Ⴜ	cut_g_stereo_44KHz.wav
1	29	4	4	2	I	1	0	1087	1	Ⴊ	cut_w_stereo_44KHz.wav
1	30	2	1	0	C	1	0	913	0	Ⴂ	cut_g_stereo_44KHz.wav
1	31	1	2	0	C	2	1	1006	1	Ⴜ	cut_l_stereo_44KHz.wav
1	32	3	3	2	I	2	0	673	1	Ⴃ	cut_h_stereo_44KHz.wav
1	33	1	1	1	C	1	1	830	1	Ⴜ	cut_g_stereo_44KHz.wav
1	34	3	4	2	I	1	0	875	1	Ⴃ	cut_w_stereo_44KHz.wav
1	35	4	4	2	I	1	0	690	1	Ⴊ	cut_w_stereo_44KHz.wav
1	36	2	1	0	C	1	0	775	0	Ⴂ	cut_g_stereo_44KHz.wav
1	37	1	2	0	C	1	0	813	0	Ⴜ	cut_l_stereo_44KHz.wav
1	38	3	3	2	I	2	0	840	0	Ⴃ	cut_h_stereo_44KHz.wav
1	39	4	3	2	I	1	0	927	1	Ⴊ	cut_h_stereo_44KHz.wav
1	40	2	2	1	C	2	0	907	0	Ⴂ	cut_l_stereo_44KHz.wav
1	41	1	1	1	C	1	1	1007	1	Ⴜ	cut_g_stereo_44KHz.wav
1	42	4	4	2	I	2	0	843	0	Ⴊ	cut_w_stereo_44KHz.wav
1	43	3	4	2	I	2	0	939	1	Ⴃ	cut_w_stereo_44KHz.wav
1	44	2	1	0	C	1	0	1245	0	Ⴂ	cut_g_stereo_44KHz.wav
1	45	4	3	2	I	1	0	984	0	Ⴊ	cut_h_stereo_44KHz.wav
1	46	3	3	2	I	2	0	1186	0	Ⴃ	cut_h_stereo_44KHz.wav
1	47	1	2	0	C	1	0	1080	0	Ⴜ	cut_l_stereo_44KHz.wav
1	48	2	2	1	C	2	0	789	0	Ⴂ	cut_l_stereo_44KHz.wav
1	49	3	3	2	I	2	0	864	0	Ⴃ	cut_h_stereo_44KHz.wav
1	50	2	1	0	C	2	1	690	1	Ⴂ	cut_g_stereo_44KHz.wav
1	51	1	1	1	C	1	1	657	1	Ⴜ	cut_g_stereo_44KHz.wav
1	52	4	4	2	I	2	0	1513	0	Ⴊ	cut_w_stereo_44KHz.wav
1	53	2	2	1	C	2	0	931	0	Ⴂ	cut_l_stereo_44KHz.wav
1	54	4	3	2	I	1	0	803	1	Ⴊ	cut_h_stereo_44KHz.wav
1	55	1	2	0	C	2	1	915	1	Ⴜ	cut_l_stereo_44KHz.wav
1	56	3	4	2	I	2	0	858	0	Ⴃ	cut_w_stereo_44KHz.wav
1	57	1	2	0	C	2	1	1046	1	Ⴜ	cut_l_stereo_44KHz.wav
1	58	4	4	2	I	1	0	606	1	Ⴊ	cut_w_stereo_44KHz.wav
1	59	3	4	2	I	2	0	601	1	Ⴃ	cut_w_stereo_44KHz.wav
1	60	2	1	0	C	1	0	692	0	Ⴂ	cut_g_stereo_44KHz.wav
1	61	4	3	2	I	2	0	654	0	Ⴊ	cut_h_stereo_44KHz.wav
1	62	1	1	1	C	2	0	541	0	Ⴜ	cut_g_stereo_44KHz.wav
1	63	2	2	1	C	1	1	755	1	Ⴂ	cut_l_stereo_44KHz.wav
1	64	3	3	2	I	2	0	1288	1	Ⴃ	cut_h_stereo_44KHz.wav
1	65	1	1	1	C	1	1	849	1	Ⴜ	cut_g_stereo_44KHz.wav
1	66	4	4	2	I	2	0	747	1	Ⴊ	cut_w_stereo_44KHz.wav
1	67	3	3	2	I	2	0	742	1	Ⴃ	cut_h_stereo_44KHz.wav
1	68	2	1	0	C	1	0	1511	0	Ⴂ	cut_g_stereo_44KHz.wav
1	69	1	2	0	C	2	1	1654	1	Ⴜ	cut_l_stereo_44KHz.wav
1	70	3	4	2	I	2	0	1321	1	Ⴃ	cut_w_stereo_44KHz.wav
1	71	2	2	1	C	2	0	1087	0	Ⴂ	cut_l_stereo_44KHz.wav
1	72	4	3	2	I	1	0	830	1	Ⴊ	cut_h_stereo_44KHz.wav
1	73	3	4	2	I	2	0	944	1	Ⴃ	cut_w_stereo_44KHz.wav
1	74	4	3	2	I	2	0	1213	0	Ⴊ	cut_h_stereo_44KHz.wav
1	75	2	1	0	C	2	1	1041	1	Ⴂ	cut_g_stereo_44KHz.wav
1	76	1	1	1	C	1	1	1040	1	Ⴜ	cut_g_stereo_44KHz.wav
1	77	2	2	1	C	1	1	843	1	Ⴂ	cut_l_stereo_44KHz.wav
1	78	3	3	2	I	2	0	1010	0	Ⴃ	cut_h_stereo_44KHz.wav
1	79	1	2	0	C	2	1	918	1	Ⴜ	cut_l_stereo_44KHz.wav
1	80	4	4	2	I	2	0	819	0	Ⴊ	cut_w_stereo_44KHz.wav
1	81	3	4	2	I	1	0	1488	1	Ⴃ	cut_w_stereo_44KHz.wav
1	82	1	2	0	C	2	1	993	1	Ⴜ	cut_l_stereo_44KHz.wav
1	83	2	1	0	C	2	1	919	1	Ⴂ	cut_g_stereo_44KHz.wav
1	84	4	4	2	I	2	0	714	1	Ⴊ	cut_w_stereo_44KHz.wav
1	85	1	1	1	C	1	1	1048	1	Ⴜ	cut_g_stereo_44KHz.wav
1	86	2	2	1	C	1	1	1018	1	Ⴂ	cut_l_stereo_44KHz.wav
1	87	4	3	2	I	2	0	650	0	Ⴊ	cut_h_stereo_44KHz.wav
1	88	3	3	2	I	2	0	779	1	Ⴃ	cut_h_stereo_44KHz.wav
1	89	1	2	0	C	2	1	945	1	Ⴜ	cut_l_stereo_44KHz.wav
1	90	2	1	0	C	2	1	691	1	Ⴂ	cut_g_stereo_44KHz.wav
1	91	3	3	2	I	2	0	873	1	Ⴃ	cut_h_stereo_44KHz.wav
1	92	4	3	2	I	1	0	776	0	Ⴊ	cut_h_stereo_44KHz.wav
1	93	3	4	2	I	2	0	1251	1	Ⴃ	cut_w_stereo_44KHz.wav
1	94	4	4	2	I	1	0	1071	0	Ⴊ	cut_w_stereo_44KHz.wav
1	95	1	1	1	C	1	1	819	1	Ⴜ	cut_g_stereo_44KHz.wav
1	96	2	2	1	C	1	1	892	1	Ⴂ	cut_l_stereo_44KHz.wav
1	97	3	3	2	I	2	0	833	1	Ⴃ	cut_h_stereo_44KHz.wav
1	98	4	4	2	I	1	0	755	0	Ⴊ	cut_w_stereo_44KHz.wav
1	99	2	1	0	C	1	0	838	0	Ⴂ	cut_g_stereo_44KHz.wav
1	100	1	1	1	C	2	0	691	0	Ⴜ	cut_g_stereo_44KHz.wav
1	101	2	2	1	C	1	1	1068	1	Ⴂ	cut_l_stereo_44KHz.wav
1	102	3	4	2	I	1	0	997	0	Ⴃ	cut_w_stereo_44KHz.wav
1	103	4	3	2	I	1	0	1290	1	Ⴊ	cut_h_stereo_44KHz.wav
1	104	1	2	0	C	2	1	754	1	Ⴜ	cut_l_stereo_44KHz.wav
1	105	2	1	0	C	1	0	1326	0	Ⴂ	cut_g_stereo_44KHz.wav
1	106	4	3	2	I	2	0	953	0	Ⴊ	cut_h_stereo_44KHz.wav
1	107	1	1	1	C	1	1	1261	1	Ⴜ	cut_g_stereo_44KHz.wav
1	108	3	4	2	I	1	0	965	0	Ⴃ	cut_w_stereo_44KHz.wav
1	109	4	4	2	I	2	0	809	1	Ⴊ	cut_w_stereo_44KHz.wav
1	110	2	2	1	C	2	0	743	0	Ⴂ	cut_l_stereo_44KHz.wav
1	111	3	3	2	I	1	0	834	0	Ⴃ	cut_h_stereo_44KHz.wav
1	112	1	2	0	C	1	0	747	0	Ⴜ	cut_l_stereo_44KHz.wav
1	113	3	4	2	I	1	0	1299	0	Ⴃ	cut_w_stereo_44KHz.wav
1	114	4	4	2	I	2	0	845	1	Ⴊ	cut_w_stereo_44KHz.wav
1	115	1	2	0	C	2	1	958	1	Ⴜ	cut_l_stereo_44KHz.wav
1	116	2	2	1	C	1	1	771	1	Ⴂ	cut_l_stereo_44KHz.wav
1	117	1	1	1	C	2	0	992	0	Ⴜ	cut_g_stereo_44KHz.wav
1	118	4	3	2	I	1	0	868	1	Ⴊ	cut_h_stereo_44KHz.wav
1	119	3	3	2	I	2	0	837	1	Ⴃ	cut_h_stereo_44KHz.wav
1	120	2	1	0	C	1	0	923	0	Ⴂ	cut_g_stereo_44KHz.wav
1	121	1	1	1	C	2	0	853	0	Ⴜ	cut_g_stereo_44KHz.wav
1	122	3	3	2	I	2	0	1079	1	Ⴃ	cut_h_stereo_44KHz.wav
1	123	2	1	0	C	1	0	824	0	Ⴂ	cut_g_stereo_44KHz.wav
1	124	4	3	2	I	2	0	583	1	Ⴊ	cut_h_stereo_44KHz.wav
1	125	2	2	1	C	2	0	827	0	Ⴂ	cut_l_stereo_44KHz.wav
1	126	4	4	2	I	2	0	1311	0	Ⴊ	cut_w_stereo_44KHz.wav
1	127	3	4	2	I	1	0	612	1	Ⴃ	cut_w_stereo_44KHz.wav
1	128	1	2	0	C	2	1	1162	1	Ⴜ	cut_l_stereo_44KHz.wav
1	129	2	1	0	C	1	0	872	0	Ⴂ	cut_g_stereo_44KHz.wav
1	130	4	3	2	I	2	0	906	0	Ⴊ	cut_h_stereo_44KHz.wav
1	131	3	3	2	I	2	0	873	1	Ⴃ	cut_h_stereo_44KHz.wav
1	132	1	2	0	C	1	0	1378	0	Ⴜ	cut_l_stereo_44KHz.wav
1	133	2	2	1	C	2	0	938	0	Ⴂ	cut_l_stereo_44KHz.wav
1	134	3	4	2	I	2	0	1010	1	Ⴃ	cut_w_stereo_44KHz.wav
1	135	4	4	2	I	2	0	780	1	Ⴊ	cut_w_stereo_44KHz.wav
1	136	1	1	1	C	2	0	1341	0	Ⴜ	cut_g_stereo_44KHz.wav
1	137	2	2	1	C	2	0	662	0	Ⴂ	cut_l_stereo_44KHz.wav
1	138	1	2	0	C	1	0	1008	0	Ⴜ	cut_l_stereo_44KHz.wav
1	139	4	4	2	I	2	0	1045	1	Ⴊ	cut_w_stereo_44KHz.wav
1	140	3	3	2	I	1	0	1013	0	Ⴃ	cut_h_stereo_44KHz.wav
1	141	4	3	2	I	1	0	887	0	Ⴊ	cut_h_stereo_44KHz.wav
1	142	1	1	1	C	2	0	752	0	Ⴜ	cut_g_stereo_44KHz.wav
1	143	3	4	2	I	2	0	1274	0	Ⴃ	cut_w_stereo_44KHz.wav
1	144	2	1	0	C	1	0	615	0	Ⴂ	cut_g_stereo_44KHz.wav
1	145	4	4	2	I	1	0	1070	1	Ⴊ	cut_w_stereo_44KHz.wav
1	146	3	3	2	I	2	0	1096	0	Ⴃ	cut_h_stereo_44KHz.wav
1	147	1	1	1	C	2	0	909	0	Ⴜ	cut_g_stereo_44KHz.wav
1	148	2	2	1	C	1	1	683	1	Ⴂ	cut_l_stereo_44KHz.wav
1	149	1	2	0	C	2	1	748	1	Ⴜ	cut_l_stereo_44KHz.wav
1	150	3	4	2	I	1	0	1055	1	Ⴃ	cut_w_stereo_44KHz.wav
1	151	4	3	2	I	2	0	950	1	Ⴊ	cut_h_stereo_44KHz.wav
1	152	2	1	0	C	2	1	887	1	Ⴂ	cut_g_stereo_44KHz.wav
1	153	1	1	1	C	1	1	981	1	Ⴜ	cut_g_stereo_44KHz.wav
1	154	2	2	1	C	1	1	1314	1	Ⴂ	cut_l_stereo_44KHz.wav
1	155	3	4	2	I	2	0	841	0	Ⴃ	cut_w_stereo_44KHz.wav
1	156	4	4	2	I	2	0	701	1	Ⴊ	cut_w_stereo_44KHz.wav
1	157	3	3	2	I	1	0	1018	0	Ⴃ	cut_h_stereo_44KHz.wav
1	158	2	1	0	C	2	1	948	1	Ⴂ	cut_g_stereo_44KHz.wav
1	159	4	3	2	I	1	0	1181	0	Ⴊ	cut_h_stereo_44KHz.wav
1	160	1	2	0	C	2	1	1344	1	Ⴜ	cut_l_stereo_44KHz.wav
1	161	2	1	0	C	0	0	0	0	Ⴂ	cut_g_stereo_44KHz.wav
1	162	4	3	2	I	2	0	736	1	Ⴊ	cut_h_stereo_44KHz.wav
1	163	1	2	0	C	1	0	748	0	Ⴜ	cut_l_stereo_44KHz.wav
1	164	3	3	2	I	2	0	925	1	Ⴃ	cut_h_stereo_44KHz.wav
1	165	2	2	1	C	2	0	884	0	Ⴂ	cut_l_stereo_44KHz.wav
1	166	3	4	2	I	1	0	1368	0	Ⴃ	cut_w_stereo_44KHz.wav
1	167	1	1	1	C	2	0	807	0	Ⴜ	cut_g_stereo_44KHz.wav
1	168	4	4	2	I	2	0	869	0	Ⴊ	cut_w_stereo_44KHz.wav
1	169	3	3	2	I	2	0	869	0	Ⴃ	cut_h_stereo_44KHz.wav
1	170	4	4	2	I	2	0	916	0	Ⴊ	cut_w_stereo_44KHz.wav
1	171	2	2	1	C	1	1	721	1	Ⴂ	cut_l_stereo_44KHz.wav
1	172	1	2	0	C	2	1	990	1	Ⴜ	cut_l_stereo_44KHz.wav
1	173	2	1	0	C	2	1	975	1	Ⴂ	cut_g_stereo_44KHz.wav
1	174	4	3	2	I	2	0	932	0	Ⴊ	cut_h_stereo_44KHz.wav
1	175	3	4	2	I	1	0	708	0	Ⴃ	cut_w_stereo_44KHz.wav
1	176	1	1	1	C	1	1	1383	1	Ⴜ	cut_g_stereo_44KHz.wav
1	177	2	2	1	C	2	0	979	0	Ⴂ	cut_l_stereo_44KHz.wav
1	178	1	1	1	C	1	1	826	1	Ⴜ	cut_g_stereo_44KHz.wav
1	179	3	4	2	I	1	0	1048	0	Ⴃ	cut_w_stereo_44KHz.wav
1	180	4	3	2	I	2	0	1084	1	Ⴊ	cut_h_stereo_44KHz.wav
1	181	3	3	2	I	2	0	725	0	Ⴃ	cut_h_stereo_44KHz.wav
1	182	4	4	2	I	1	0	712	0	Ⴊ	cut_w_stereo_44KHz.wav
1	183	1	2	0	C	2	1	566	1	Ⴜ	cut_l_stereo_44KHz.wav
1	184	2	1	0	C	1	0	845	0	Ⴂ	cut_g_stereo_44KHz.wav
1	185	3	3	2	I	2	0	836	0	Ⴃ	cut_h_stereo_44KHz.wav
1	186	2	2	1	C	1	1	1222	1	Ⴂ	cut_l_stereo_44KHz.wav
1	187	1	1	1	C	1	1	1169	1	Ⴜ	cut_g_stereo_44KHz.wav
1	188	4	3	2	I	1	0	1488	0	Ⴊ	cut_h_stereo_44KHz.wav
1	189	3	4	2	I	1	0	919	1	Ⴃ	cut_w_stereo_44KHz.wav
1	190	1	2	0	C	1	0	1103	0	Ⴜ	cut_l_stereo_44KHz.wav
1	191	2	1	0	C	1	0	696	0	Ⴂ	cut_g_stereo_44KHz.wav
1	192	4	4	2	I	2	0	1455	1	Ⴊ	cut_w_stereo_44KHz.wav
1	193	1	2	0	C	1	0	1056	0	Ⴜ	cut_l_stereo_44KHz.wav
1	194	2	2	1	C	1	1	729	1	Ⴂ	cut_l_stereo_44KHz.wav
1	195	3	4	2	I	2	0	766	1	Ⴃ	cut_w_stereo_44KHz.wav
1	196	4	3	2	I	2	0	809	1	Ⴊ	cut_h_stereo_44KHz.wav
1	197	1	1	1	C	1	1	862	1	Ⴜ	cut_g_stereo_44KHz.wav
1	198	2	1	0	C	2	1	1037	1	Ⴂ	cut_g_stereo_44KHz.wav
1	199	4	4	2	I	1	0	1361	0	Ⴊ	cut_w_stereo_44KHz.wav
1	200	3	3	2	I	2	0	720	1	Ⴃ	cut_h_stereo_44KHz.wav
2	1	1	2	0	C	2	1	1052	1	Ⴁ	cut_ei_stereo_44KHz.wav
2	2	3	4	2	I	2	0	1287	1	Ⴇ	cut_s_stereo_44KHz.wav
2	3	2	2	1	C	1	1	908	1	Ⴡ	cut_ei_stereo_44KHz.wav
2	4	4	3	2	I	1	0	807	0	Ⴟ	cut_oei_stereo_44KHz.wav
2	5	3	3	2	I	1	0	755	0	Ⴇ	cut_oei_stereo_44KHz.wav
2	6	1	1	1	C	1	1	966	1	Ⴁ	cut_r_stereo_44KHz.wav
2	7	4	4	2	I	2	0	1026	1	Ⴟ	cut_s_stereo_44KHz.wav
2	8	2	1	0	C	1	0	861	0	Ⴡ	cut_r_stereo_44KHz.wav
2	9	1	1	1	C	2	0	825	0	Ⴁ	cut_r_stereo_44KHz.wav
2	10	2	1	0	C	2	1	772	1	Ⴡ	cut_r_stereo_44KHz.wav
2	11	4	4	2	I	1	0	1018	0	Ⴟ	cut_s_stereo_44KHz.wav
2	12	3	3	2	I	2	0	1328	1	Ⴇ	cut_oei_stereo_44KHz.wav
2	13	4	3	2	I	1	0	857	1	Ⴟ	cut_oei_stereo_44KHz.wav
2	14	1	2	0	C	2	1	787	1	Ⴁ	cut_ei_stereo_44KHz.wav
2	15	2	2	1	C	1	1	650	1	Ⴡ	cut_ei_stereo_44KHz.wav
2	16	3	4	2	I	2	0	1293	1	Ⴇ	cut_s_stereo_44KHz.wav
2	17	1	1	1	C	1	1	821	1	Ⴁ	cut_r_stereo_44KHz.wav
2	18	2	1	0	C	1	0	900	0	Ⴡ	cut_r_stereo_44KHz.wav
2	19	4	3	2	I	2	0	1025	0	Ⴟ	cut_oei_stereo_44KHz.wav
2	20	3	4	2	I	2	0	743	0	Ⴇ	cut_s_stereo_44KHz.wav
2	21	2	2	1	C	2	0	767	0	Ⴡ	cut_ei_stereo_44KHz.wav
2	22	3	3	2	I	1	0	1071	1	Ⴇ	cut_oei_stereo_44KHz.wav
2	23	1	2	0	C	2	1	556	1	Ⴁ	cut_ei_stereo_44KHz.wav
2	24	4	4	2	I	2	0	669	1	Ⴟ	cut_s_stereo_44KHz.wav
2	25	2	2	1	C	1	1	877	1	Ⴡ	cut_ei_stereo_44KHz.wav
2	26	3	3	2	I	1	0	1405	1	Ⴇ	cut_oei_stereo_44KHz.wav
2	27	1	2	0	C	2	1	878	1	Ⴁ	cut_ei_stereo_44KHz.wav
2	28	4	4	2	I	1	0	1196	0	Ⴟ	cut_s_stereo_44KHz.wav
2	29	3	4	2	I	2	0	761	1	Ⴇ	cut_s_stereo_44KHz.wav
2	30	4	3	2	I	2	0	827	1	Ⴟ	cut_oei_stereo_44KHz.wav
2	31	1	1	1	C	1	1	822	1	Ⴁ	cut_r_stereo_44KHz.wav
2	32	2	1	0	C	2	1	858	1	Ⴡ	cut_r_stereo_44KHz.wav
2	33	1	2	0	C	2	1	659	1	Ⴁ	cut_ei_stereo_44KHz.wav
2	34	2	1	0	C	2	1	660	1	Ⴡ	cut_r_stereo_44KHz.wav
2	35	3	3	2	I	1	0	1261	0	Ⴇ	cut_oei_stereo_44KHz.wav
2	36	4	4	2	I	2	0	869	0	Ⴟ	cut_s_stereo_44KHz.wav
2	37	1	1	1	C	1	1	826	1	Ⴁ	cut_r_stereo_44KHz.wav
2	38	3	4	2	I	2	0	1312	1	Ⴇ	cut_s_stereo_44KHz.wav
2	39	2	2	1	C	1	1	934	1	Ⴡ	cut_ei_stereo_44KHz.wav
2	40	4	3	2	I	2	0	632	0	Ⴟ	cut_oei_stereo_44KHz.wav
2	41	2	1	0	C	0	0	0	0	Ⴡ	cut_r_stereo_44KHz.wav
2	42	4	4	2	I	2	0	743	0	Ⴟ	cut_s_stereo_44KHz.wav
2	43	1	1	1	C	1	1	1010	1	Ⴁ	cut_r_stereo_44KHz.wav
2	44	3	4	2	I	2	0	942	0	Ⴇ	cut_s_stereo_44KHz.wav
2	45	1	2	0	C	2	1	769	1	Ⴁ	cut_ei_stereo_44KHz.wav
2	46	3	3	2	I	1	0	1610	0	Ⴇ	cut_oei_stereo_44KHz.wav
2	47	2	2	1	C	1	1	782	1	Ⴡ	cut_ei_stereo_44KHz.wav
2	48	4	3	2	I	2	0	1165	0	Ⴟ	cut_oei_stereo_44KHz.wav
2	49	3	4	2	I	2	0	919	1	Ⴇ	cut_s_stereo_44KHz.wav
2	50	4	4	2	I	1	0	984	0	Ⴟ	cut_s_stereo_44KHz.wav
2	51	1	2	0	C	2	1	599	1	Ⴁ	cut_ei_stereo_44KHz.wav
2	52	2	2	1	C	1	1	660	1	Ⴡ	cut_ei_stereo_44KHz.wav
2	53	3	3	2	I	2	0	844	1	Ⴇ	cut_oei_stereo_44KHz.wav
2	54	2	1	0	C	2	1	921	1	Ⴡ	cut_r_stereo_44KHz.wav
2	55	1	1	1	C	1	1	585	1	Ⴁ	cut_r_stereo_44KHz.wav
2	56	4	3	2	I	1	0	951	0	Ⴟ	cut_oei_stereo_44KHz.wav
2	57	3	4	2	I	2	0	793	1	Ⴇ	cut_s_stereo_44KHz.wav
2	58	2	1	0	C	2	1	768	1	Ⴡ	cut_r_stereo_44KHz.wav
2	59	1	2	0	C	2	1	739	1	Ⴁ	cut_ei_stereo_44KHz.wav
2	60	4	3	2	I	1	0	768	0	Ⴟ	cut_oei_stereo_44KHz.wav
2	61	3	3	2	I	2	0	913	1	Ⴇ	cut_oei_stereo_44KHz.wav
2	62	1	1	1	C	1	1	801	1	Ⴁ	cut_r_stereo_44KHz.wav
2	63	2	2	1	C	1	1	1062	1	Ⴡ	cut_ei_stereo_44KHz.wav
2	64	4	4	2	I	1	0	903	1	Ⴟ	cut_s_stereo_44KHz.wav
2	65	1	2	0	C	2	1	709	1	Ⴁ	cut_ei_stereo_44KHz.wav
2	66	4	3	2	I	1	0	934	1	Ⴟ	cut_oei_stereo_44KHz.wav
2	67	3	3	2	I	1	0	1637	1	Ⴇ	cut_oei_stereo_44KHz.wav
2	68	2	1	0	C	2	1	896	1	Ⴡ	cut_r_stereo_44KHz.wav
2	69	4	4	2	I	1	0	1176	1	Ⴟ	cut_s_stereo_44KHz.wav
2	70	1	1	1	C	1	1	1033	1	Ⴁ	cut_r_stereo_44KHz.wav
2	71	2	2	1	C	1	1	736	1	Ⴡ	cut_ei_stereo_44KHz.wav
2	72	3	4	2	I	2	0	812	0	Ⴇ	cut_s_stereo_44KHz.wav
2	73	1	1	1	C	1	1	1392	1	Ⴁ	cut_r_stereo_44KHz.wav
2	74	3	4	2	I	2	0	804	0	Ⴇ	cut_s_stereo_44KHz.wav
2	75	2	1	0	C	2	1	1104	1	Ⴡ	cut_r_stereo_44KHz.wav
2	76	4	3	2	I	1	0	719	1	Ⴟ	cut_oei_stereo_44KHz.wav
2	77	1	2	0	C	2	1	1516	1	Ⴁ	cut_ei_stereo_44KHz.wav
2	78	4	4	2	I	1	0	898	1	Ⴟ	cut_s_stereo_44KHz.wav
2	79	2	2	1	C	1	1	741	1	Ⴡ	cut_ei_stereo_44KHz.wav
2	80	3	3	2	I	1	0	728	0	Ⴇ	cut_oei_stereo_44KHz.wav
2	81	2	1	0	C	1	0	1040	0	Ⴡ	cut_r_stereo_44KHz.wav
2	82	1	2	0	C	2	1	1867	1	Ⴁ	cut_ei_stereo_44KHz.wav
2	83	4	3	2	I	1	0	748	1	Ⴟ	cut_oei_stereo_44KHz.wav
2	84	3	4	2	I	2	0	614	1	Ⴇ	cut_s_stereo_44KHz.wav
2	85	4	4	2	I	1	0	852	1	Ⴟ	cut_s_stereo_44KHz.wav
2	86	3	3	2	I	2	0	592	0	Ⴇ	cut_oei_stereo_44KHz.wav
2	87	1	1	1	C	1	1	741	1	Ⴁ	cut_r_stereo_44KHz.wav
2	88	2	2	1	C	1	1	1303	1	Ⴡ	cut_ei_stereo_44KHz.wav
2	89	4	4	2	I	1	0	755	1	Ⴟ	cut_s_stereo_44KHz.wav
2	90	1	1	1	C	1	1	965	1	Ⴁ	cut_r_stereo_44KHz.wav
2	91	3	3	2	I	1	0	985	0	Ⴇ	cut_oei_stereo_44KHz.wav
2	92	2	2	1	C	1	1	663	1	Ⴡ	cut_ei_stereo_44KHz.wav
2	93	4	3	2	I	2	0	823	1	Ⴟ	cut_oei_stereo_44KHz.wav
2	94	1	2	0	C	2	1	593	1	Ⴁ	cut_ei_stereo_44KHz.wav
2	95	2	1	0	C	2	1	935	1	Ⴡ	cut_r_stereo_44KHz.wav
2	96	3	4	2	I	1	0	1779	0	Ⴇ	cut_s_stereo_44KHz.wav
2	97	4	4	2	I	1	0	1124	1	Ⴟ	cut_s_stereo_44KHz.wav
2	98	1	2	0	C	2	1	632	1	Ⴁ	cut_ei_stereo_44KHz.wav
2	99	2	1	0	C	2	1	840	1	Ⴡ	cut_r_stereo_44KHz.wav
2	100	3	4	2	I	1	0	1423	0	Ⴇ	cut_s_stereo_44KHz.wav
2	101	4	3	2	I	2	0	751	0	Ⴟ	cut_oei_stereo_44KHz.wav
2	102	1	1	1	C	1	1	1012	1	Ⴁ	cut_r_stereo_44KHz.wav
2	103	3	3	2	I	1	0	859	1	Ⴇ	cut_oei_stereo_44KHz.wav
2	104	2	2	1	C	1	1	1202	1	Ⴡ	cut_ei_stereo_44KHz.wav
2	105	4	3	2	I	2	0	708	0	Ⴟ	cut_oei_stereo_44KHz.wav
2	106	2	2	1	C	1	1	760	1	Ⴡ	cut_ei_stereo_44KHz.wav
2	107	1	1	1	C	1	1	686	1	Ⴁ	cut_r_stereo_44KHz.wav
2	108	3	3	2	I	1	0	696	0	Ⴇ	cut_oei_stereo_44KHz.wav
2	109	4	4	2	I	1	0	959	1	Ⴟ	cut_s_stereo_44KHz.wav
2	110	1	2	0	C	2	1	613	1	Ⴁ	cut_ei_stereo_44KHz.wav
2	111	3	4	2	I	2	0	935	0	Ⴇ	cut_s_stereo_44KHz.wav
2	112	2	1	0	C	0	0	0	0	Ⴡ	cut_r_stereo_44KHz.wav
2	113	3	3	2	I	1	0	1001	0	Ⴇ	cut_oei_stereo_44KHz.wav
2	114	2	2	1	C	1	1	1124	1	Ⴡ	cut_ei_stereo_44KHz.wav
2	115	4	4	2	I	2	0	838	1	Ⴟ	cut_s_stereo_44KHz.wav
2	116	1	1	1	C	1	1	1016	1	Ⴁ	cut_r_stereo_44KHz.wav
2	117	3	4	2	I	2	0	754	1	Ⴇ	cut_s_stereo_44KHz.wav
2	118	2	1	0	C	2	1	833	1	Ⴡ	cut_r_stereo_44KHz.wav
2	119	4	3	2	I	2	0	1122	1	Ⴟ	cut_oei_stereo_44KHz.wav
2	120	1	2	0	C	2	1	712	1	Ⴁ	cut_ei_stereo_44KHz.wav
2	121	3	3	2	I	2	0	1165	1	Ⴇ	cut_oei_stereo_44KHz.wav
2	122	4	3	2	I	2	0	701	0	Ⴟ	cut_oei_stereo_44KHz.wav
2	123	2	1	0	C	2	1	801	1	Ⴡ	cut_r_stereo_44KHz.wav
2	124	1	2	0	C	2	1	703	1	Ⴁ	cut_ei_stereo_44KHz.wav
2	125	4	4	2	I	2	0	822	0	Ⴟ	cut_s_stereo_44KHz.wav
2	126	2	2	1	C	1	1	1155	1	Ⴡ	cut_ei_stereo_44KHz.wav
2	127	3	4	2	I	1	0	857	0	Ⴇ	cut_s_stereo_44KHz.wav
2	128	1	1	1	C	1	1	778	1	Ⴁ	cut_r_stereo_44KHz.wav
2	129	2	2	1	C	2	0	1034	0	Ⴡ	cut_ei_stereo_44KHz.wav
2	130	1	2	0	C	2	1	611	1	Ⴁ	cut_ei_stereo_44KHz.wav
2	131	3	3	2	I	1	0	754	1	Ⴇ	cut_oei_stereo_44KHz.wav
2	132	4	4	2	I	1	0	928	0	Ⴟ	cut_s_stereo_44KHz.wav
2	133	2	1	0	C	1	0	871	0	Ⴡ	cut_r_stereo_44KHz.wav
2	134	3	4	2	I	2	0	1321	0	Ⴇ	cut_s_stereo_44KHz.wav
2	135	4	3	2	I	2	0	708	1	Ⴟ	cut_oei_stereo_44KHz.wav
2	136	1	1	1	C	1	1	756	1	Ⴁ	cut_r_stereo_44KHz.wav
2	137	3	3	2	I	2	0	741	0	Ⴇ	cut_oei_stereo_44KHz.wav
2	138	1	2	0	C	2	1	1372	1	Ⴁ	cut_ei_stereo_44KHz.wav
2	139	2	2	1	C	1	1	858	1	Ⴡ	cut_ei_stereo_44KHz.wav
2	140	4	3	2	I	2	0	732	1	Ⴟ	cut_oei_stereo_44KHz.wav
2	141	2	1	0	C	1	0	660	0	Ⴡ	cut_r_stereo_44KHz.wav
2	142	3	4	2	I	2	0	671	1	Ⴇ	cut_s_stereo_44KHz.wav
2	143	1	1	1	C	2	0	1102	0	Ⴁ	cut_r_stereo_44KHz.wav
2	144	4	4	2	I	1	0	1053	0	Ⴟ	cut_s_stereo_44KHz.wav
2	145	3	3	2	I	2	0	780	0	Ⴇ	cut_oei_stereo_44KHz.wav
2	146	1	1	1	C	1	1	827	1	Ⴁ	cut_r_stereo_44KHz.wav
2	147	2	2	1	C	1	1	892	1	Ⴡ	cut_ei_stereo_44KHz.wav
2	148	4	3	2	I	2	0	1283	0	Ⴟ	cut_oei_stereo_44KHz.wav
2	149	1	2	0	C	2	1	624	1	Ⴁ	cut_ei_stereo_44KHz.wav
2	150	3	4	2	I	2	0	1070	1	Ⴇ	cut_s_stereo_44KHz.wav
2	151	4	4	2	I	2	0	839	0	Ⴟ	cut_s_stereo_44KHz.wav
2	152	2	1	0	C	2	1	713	1	Ⴡ	cut_r_stereo_44KHz.wav
2	153	4	3	2	I	1	0	965	1	Ⴟ	cut_oei_stereo_44KHz.wav
2	154	2	1	0	C	2	1	736	1	Ⴡ	cut_r_stereo_44KHz.wav
2	155	3	3	2	I	2	0	983	0	Ⴇ	cut_oei_stereo_44KHz.wav
2	156	1	1	1	C	1	1	849	1	Ⴁ	cut_r_stereo_44KHz.wav
2	157	4	4	2	I	2	0	743	1	Ⴟ	cut_s_stereo_44KHz.wav
2	158	1	2	0	C	2	1	731	1	Ⴁ	cut_ei_stereo_44KHz.wav
2	159	2	2	1	C	1	1	786	1	Ⴡ	cut_ei_stereo_44KHz.wav
2	160	3	4	2	I	2	0	764	1	Ⴇ	cut_s_stereo_44KHz.wav
2	161	4	4	2	I	2	0	653	0	Ⴟ	cut_s_stereo_44KHz.wav
2	162	1	2	0	C	2	1	703	1	Ⴁ	cut_ei_stereo_44KHz.wav
2	163	2	2	1	C	1	1	815	1	Ⴡ	cut_ei_stereo_44KHz.wav
2	164	3	3	2	I	2	0	837	1	Ⴇ	cut_oei_stereo_44KHz.wav
2	165	4	3	2	I	2	0	772	0	Ⴟ	cut_oei_stereo_44KHz.wav
2	166	3	4	2	I	2	0	666	1	Ⴇ	cut_s_stereo_44KHz.wav
2	167	2	1	0	C	2	1	1115	1	Ⴡ	cut_r_stereo_44KHz.wav
2	168	1	1	1	C	1	1	894	1	Ⴁ	cut_r_stereo_44KHz.wav
2	169	2	1	0	C	1	0	1036	0	Ⴡ	cut_r_stereo_44KHz.wav
2	170	4	3	2	I	2	0	696	0	Ⴟ	cut_oei_stereo_44KHz.wav
2	171	3	4	2	I	2	0	676	1	Ⴇ	cut_s_stereo_44KHz.wav
2	172	1	1	1	C	1	1	767	1	Ⴁ	cut_r_stereo_44KHz.wav
2	173	2	2	1	C	1	1	945	1	Ⴡ	cut_ei_stereo_44KHz.wav
2	174	3	3	2	I	2	0	624	1	Ⴇ	cut_oei_stereo_44KHz.wav
2	175	4	4	2	I	1	0	1480	1	Ⴟ	cut_s_stereo_44KHz.wav
2	176	1	2	0	C	2	1	570	1	Ⴁ	cut_ei_stereo_44KHz.wav
2	177	3	4	2	I	2	0	688	0	Ⴇ	cut_s_stereo_44KHz.wav
2	178	4	3	2	I	2	0	1034	0	Ⴟ	cut_oei_stereo_44KHz.wav
2	179	2	1	0	C	2	1	731	1	Ⴡ	cut_r_stereo_44KHz.wav
2	180	1	1	1	C	1	1	1192	1	Ⴁ	cut_r_stereo_44KHz.wav
2	181	4	4	2	I	2	0	997	1	Ⴟ	cut_s_stereo_44KHz.wav
2	182	3	3	2	I	2	0	778	0	Ⴇ	cut_oei_stereo_44KHz.wav
2	183	2	2	1	C	1	1	774	1	Ⴡ	cut_ei_stereo_44KHz.wav
2	184	1	2	0	C	2	1	602	1	Ⴁ	cut_ei_stereo_44KHz.wav
2	185	3	3	2	I	2	0	823	0	Ⴇ	cut_oei_stereo_44KHz.wav
2	186	4	3	2	I	2	0	1051	0	Ⴟ	cut_oei_stereo_44KHz.wav
2	187	1	2	0	C	2	1	704	1	Ⴁ	cut_ei_stereo_44KHz.wav
2	188	2	1	0	C	2	1	746	1	Ⴡ	cut_r_stereo_44KHz.wav
2	189	1	1	1	C	1	1	868	1	Ⴁ	cut_r_stereo_44KHz.wav
2	190	2	2	1	C	1	1	743	1	Ⴡ	cut_ei_stereo_44KHz.wav
2	191	3	4	2	I	1	0	1108	0	Ⴇ	cut_s_stereo_44KHz.wav
2	192	4	4	2	I	2	0	652	1	Ⴟ	cut_s_stereo_44KHz.wav
2	193	1	2	0	C	2	1	918	1	Ⴁ	cut_ei_stereo_44KHz.wav
2	194	3	4	2	I	1	0	1496	0	Ⴇ	cut_s_stereo_44KHz.wav
2	195	2	1	0	C	2	1	794	1	Ⴡ	cut_r_stereo_44KHz.wav
2	196	4	3	2	I	1	0	903	1	Ⴟ	cut_oei_stereo_44KHz.wav
2	197	1	1	1	C	1	1	1067	1	Ⴁ	cut_r_stereo_44KHz.wav
2	198	4	4	2	I	2	0	650	0	Ⴟ	cut_s_stereo_44KHz.wav
2	199	3	3	2	I	1	0	712	1	Ⴇ	cut_oei_stereo_44KHz.wav
2	200	2	2	1	C	1	1	871	1	Ⴡ	cut_ei_stereo_44KHz.wav
3	1	4	4	2	I	2	0	893	1	Ⴌ	cut_u_stereo_44KHz.wav
3	2	1	1	1	C	1	1	565	1	Ⴐ	cut_o_stereo_44KHz.wav
3	3	3	3	2	I	2	0	653	1	Ⴖ	cut_a_stereo_44KHz.wav
3	4	2	2	1	C	2	0	949	0	Ⴔ	cut_k_stereo_44KHz.wav
3	5	3	4	2	I	1	0	991	0	Ⴖ	cut_u_stereo_44KHz.wav
3	6	1	2	0	C	2	1	1152	1	Ⴐ	cut_k_stereo_44KHz.wav
3	7	4	3	2	I	2	0	862	1	Ⴌ	cut_a_stereo_44KHz.wav
3	8	2	1	0	C	2	1	756	1	Ⴔ	cut_o_stereo_44KHz.wav
3	9	3	4	2	I	2	0	788	1	Ⴖ	cut_u_stereo_44KHz.wav
3	10	2	1	0	C	2	1	569	1	Ⴔ	cut_o_stereo_44KHz.wav
3	11	4	4	2	I	1	0	1269	1	Ⴌ	cut_u_stereo_44KHz.wav
3	12	1	1	1	C	1	1	1076	1	Ⴐ	cut_o_stereo_44KHz.wav
3	13	3	3	2	I	1	0	815	0	Ⴖ	cut_a_stereo_44KHz.wav
3	14	4	3	2	I	2	0	630	0	Ⴌ	cut_a_stereo_44KHz.wav
3	15	1	2	0	C	2	1	538	1	Ⴐ	cut_k_stereo_44KHz.wav
3	16	2	2	1	C	1	1	705	1	Ⴔ	cut_k_stereo_44KHz.wav
3	17	4	3	2	I	2	0	626	1	Ⴌ	cut_a_stereo_44KHz.wav
3	18	3	4	2	I	2	0	564	1	Ⴖ	cut_u_stereo_44KHz.wav
3	19	1	2	0	C	2	1	667	1	Ⴐ	cut_k_stereo_44KHz.wav
3	20	2	2	1	C	1	1	1303	1	Ⴔ	cut_k_stereo_44KHz.wav
3	21	3	3	2	I	1	0	681	1	Ⴖ	cut_a_stereo_44KHz.wav
3	22	4	4	2	I	2	0	14	1	Ⴌ	cut_u_stereo_44KHz.wav
3	23	1	1	1	C	1	1	808	1	Ⴐ	cut_o_stereo_44KHz.wav
3	24	2	1	0	C	2	1	923	1	Ⴔ	cut_o_stereo_44KHz.wav
3	25	1	1	1	C	1	1	729	1	Ⴐ	cut_o_stereo_44KHz.wav
3	26	3	4	2	I	2	0	648	0	Ⴖ	cut_u_stereo_44KHz.wav
3	27	4	3	2	I	2	0	605	1	Ⴌ	cut_a_stereo_44KHz.wav
3	28	2	1	0	C	2	1	1001	1	Ⴔ	cut_o_stereo_44KHz.wav
3	29	3	3	2	I	1	0	720	0	Ⴖ	cut_a_stereo_44KHz.wav
3	30	2	2	1	C	1	1	787	1	Ⴔ	cut_k_stereo_44KHz.wav
3	31	4	4	2	I	1	0	659	0	Ⴌ	cut_u_stereo_44KHz.wav
3	32	1	2	0	C	2	1	733	1	Ⴐ	cut_k_stereo_44KHz.wav
3	33	2	1	0	C	2	1	697	1	Ⴔ	cut_o_stereo_44KHz.wav
3	34	3	4	2	I	2	0	887	0	Ⴖ	cut_u_stereo_44KHz.wav
3	35	1	2	0	C	2	1	628	1	Ⴐ	cut_k_stereo_44KHz.wav
3	36	4	3	2	I	2	0	663	1	Ⴌ	cut_a_stereo_44KHz.wav
3	37	1	1	1	C	1	1	756	1	Ⴐ	cut_o_stereo_44KHz.wav
3	38	3	3	2	I	2	0	693	0	Ⴖ	cut_a_stereo_44KHz.wav
3	39	4	4	2	I	2	0	557	0	Ⴌ	cut_u_stereo_44KHz.wav
3	40	2	2	1	C	1	1	729	1	Ⴔ	cut_k_stereo_44KHz.wav
3	41	1	2	0	C	2	1	646	1	Ⴐ	cut_k_stereo_44KHz.wav
3	42	4	3	2	I	1	0	1085	1	Ⴌ	cut_a_stereo_44KHz.wav
3	43	3	4	2	I	2	0	468	0	Ⴖ	cut_u_stereo_44KHz.wav
3	44	2	1	0	C	2	1	656	1	Ⴔ	cut_o_stereo_44KHz.wav
3	45	4	4	2	I	2	0	778	0	Ⴌ	cut_u_stereo_44KHz.wav
3	46	1	1	1	C	1	1	792	1	Ⴐ	cut_o_stereo_44KHz.wav
3	47	3	3	2	I	2	0	665	0	Ⴖ	cut_a_stereo_44KHz.wav
3	48	2	2	1	C	2	0	564	0	Ⴔ	cut_k_stereo_44KHz.wav
3	49	1	1	1	C	1	1	1310	1	Ⴐ	cut_o_stereo_44KHz.wav
3	50	4	3	2	I	2	0	811	1	Ⴌ	cut_a_stereo_44KHz.wav
3	51	3	3	2	I	1	0	785	1	Ⴖ	cut_a_stereo_44KHz.wav
3	52	2	1	0	C	2	1	808	1	Ⴔ	cut_o_stereo_44KHz.wav
3	53	1	2	0	C	2	1	446	1	Ⴐ	cut_k_stereo_44KHz.wav
3	54	3	4	2	I	2	0	658	0	Ⴖ	cut_u_stereo_44KHz.wav
3	55	2	2	1	C	1	1	785	1	Ⴔ	cut_k_stereo_44KHz.wav
3	56	4	4	2	I	1	0	893	0	Ⴌ	cut_u_stereo_44KHz.wav
3	57	2	1	0	C	2	1	976	1	Ⴔ	cut_o_stereo_44KHz.wav
3	58	4	3	2	I	2	0	767	1	Ⴌ	cut_a_stereo_44KHz.wav
3	59	1	1	1	C	1	1	706	1	Ⴐ	cut_o_stereo_44KHz.wav
3	60	3	3	2	I	1	0	656	1	Ⴖ	cut_a_stereo_44KHz.wav
3	61	4	4	2	I	2	0	827	0	Ⴌ	cut_u_stereo_44KHz.wav
3	62	2	2	1	C	1	1	821	1	Ⴔ	cut_k_stereo_44KHz.wav
3	63	1	2	0	C	2	1	662	1	Ⴐ	cut_k_stereo_44KHz.wav
3	64	3	4	2	I	2	0	740	0	Ⴖ	cut_u_stereo_44KHz.wav
3	65	4	3	2	I	1	0	1004	1	Ⴌ	cut_a_stereo_44KHz.wav
3	66	1	2	0	C	2	1	776	1	Ⴐ	cut_k_stereo_44KHz.wav
3	67	3	3	2	I	1	0	639	0	Ⴖ	cut_a_stereo_44KHz.wav
3	68	2	1	0	C	2	1	816	1	Ⴔ	cut_o_stereo_44KHz.wav
3	69	1	1	1	C	1	1	730	1	Ⴐ	cut_o_stereo_44KHz.wav
3	70	4	4	2	I	1	0	737	0	Ⴌ	cut_u_stereo_44KHz.wav
3	71	2	2	1	C	1	1	729	1	Ⴔ	cut_k_stereo_44KHz.wav
3	72	3	4	2	I	2	0	484	0	Ⴖ	cut_u_stereo_44KHz.wav
3	73	4	4	2	I	1	0	702	1	Ⴌ	cut_u_stereo_44KHz.wav
3	74	2	1	0	C	2	1	700	1	Ⴔ	cut_o_stereo_44KHz.wav
3	75	1	2	0	C	2	1	756	1	Ⴐ	cut_k_stereo_44KHz.wav
3	76	3	4	2	I	2	0	690	0	Ⴖ	cut_u_stereo_44KHz.wav
3	77	2	2	1	C	1	1	738	1	Ⴔ	cut_k_stereo_44KHz.wav
3	78	1	1	1	C	1	1	712	1	Ⴐ	cut_o_stereo_44KHz.wav
3	79	3	3	2	I	1	0	654	1	Ⴖ	cut_a_stereo_44KHz.wav
3	80	4	3	2	I	2	0	659	0	Ⴌ	cut_a_stereo_44KHz.wav
3	81	3	4	2	I	2	0	715	1	Ⴖ	cut_u_stereo_44KHz.wav
3	82	4	3	2	I	2	0	621	0	Ⴌ	cut_a_stereo_44KHz.wav
3	83	1	1	1	C	1	1	784	1	Ⴐ	cut_o_stereo_44KHz.wav
3	84	2	2	1	C	1	1	825	1	Ⴔ	cut_k_stereo_44KHz.wav
3	85	3	3	2	I	1	0	644	0	Ⴖ	cut_a_stereo_44KHz.wav
3	86	1	2	0	C	2	1	563	1	Ⴐ	cut_k_stereo_44KHz.wav
3	87	4	4	2	I	1	0	1321	0	Ⴌ	cut_u_stereo_44KHz.wav
3	88	2	1	0	C	2	1	1071	1	Ⴔ	cut_o_stereo_44KHz.wav
3	89	4	3	2	I	1	0	722	0	Ⴌ	cut_a_stereo_44KHz.wav
3	90	3	4	2	I	2	0	644	1	Ⴖ	cut_u_stereo_44KHz.wav
3	91	2	2	1	C	1	1	766	1	Ⴔ	cut_k_stereo_44KHz.wav
3	92	1	1	1	C	1	1	800	1	Ⴐ	cut_o_stereo_44KHz.wav
3	93	4	4	2	I	1	0	688	0	Ⴌ	cut_u_stereo_44KHz.wav
3	94	3	3	2	I	1	0	744	1	Ⴖ	cut_a_stereo_44KHz.wav
3	95	1	2	0	C	2	1	695	1	Ⴐ	cut_k_stereo_44KHz.wav
3	96	2	1	0	C	2	1	609	1	Ⴔ	cut_o_stereo_44KHz.wav
3	97	4	4	2	I	1	0	654	1	Ⴌ	cut_u_stereo_44KHz.wav
3	98	2	1	0	C	2	1	548	1	Ⴔ	cut_o_stereo_44KHz.wav
3	99	3	3	2	I	1	0	811	0	Ⴖ	cut_a_stereo_44KHz.wav
3	100	1	1	1	C	1	1	829	1	Ⴐ	cut_o_stereo_44KHz.wav
3	101	4	3	2	I	2	0	789	0	Ⴌ	cut_a_stereo_44KHz.wav
3	102	2	2	1	C	1	1	1085	1	Ⴔ	cut_k_stereo_44KHz.wav
3	103	1	2	0	C	2	1	714	1	Ⴐ	cut_k_stereo_44KHz.wav
3	104	3	4	2	I	1	0	622	0	Ⴖ	cut_u_stereo_44KHz.wav
3	105	1	2	0	C	2	1	657	1	Ⴐ	cut_k_stereo_44KHz.wav
3	106	3	3	2	I	1	0	828	1	Ⴖ	cut_a_stereo_44KHz.wav
3	107	2	1	0	C	2	1	731	1	Ⴔ	cut_o_stereo_44KHz.wav
3	108	4	4	2	I	2	0	772	1	Ⴌ	cut_u_stereo_44KHz.wav
3	109	1	1	1	C	1	1	821	1	Ⴐ	cut_o_stereo_44KHz.wav
3	110	3	4	2	I	2	0	623	1	Ⴖ	cut_u_stereo_44KHz.wav
3	111	4	3	2	I	2	0	690	1	Ⴌ	cut_a_stereo_44KHz.wav
3	112	2	2	1	C	1	1	757	1	Ⴔ	cut_k_stereo_44KHz.wav
3	113	4	4	2	I	1	0	772	1	Ⴌ	cut_u_stereo_44KHz.wav
3	114	2	1	0	C	1	0	702	0	Ⴔ	cut_o_stereo_44KHz.wav
3	115	3	4	2	I	2	0	1091	0	Ⴖ	cut_u_stereo_44KHz.wav
3	116	1	2	0	C	2	1	661	1	Ⴐ	cut_k_stereo_44KHz.wav
3	117	4	3	2	I	2	0	684	0	Ⴌ	cut_a_stereo_44KHz.wav
3	118	2	2	1	C	2	0	501	0	Ⴔ	cut_k_stereo_44KHz.wav
3	119	3	3	2	I	2	0	567	0	Ⴖ	cut_a_stereo_44KHz.wav
3	120	1	1	1	C	1	1	890	1	Ⴐ	cut_o_stereo_44KHz.wav
3	121	4	4	2	I	1	0	637	1	Ⴌ	cut_u_stereo_44KHz.wav
3	122	1	1	1	C	1	1	641	1	Ⴐ	cut_o_stereo_44KHz.wav
3	123	3	3	2	I	1	0	551	1	Ⴖ	cut_a_stereo_44KHz.wav
3	124	2	2	1	C	1	1	598	1	Ⴔ	cut_k_stereo_44KHz.wav
3	125	1	2	0	C	2	1	672	1	Ⴐ	cut_k_stereo_44KHz.wav
3	126	2	1	0	C	1	0	668	0	Ⴔ	cut_o_stereo_44KHz.wav
3	127	3	4	2	I	2	0	975	0	Ⴖ	cut_u_stereo_44KHz.wav
3	128	4	3	2	I	2	0	789	1	Ⴌ	cut_a_stereo_44KHz.wav
3	129	2	2	1	C	1	1	897	1	Ⴔ	cut_k_stereo_44KHz.wav
3	130	1	1	1	C	1	1	805	1	Ⴐ	cut_o_stereo_44KHz.wav
3	131	3	3	2	I	1	0	674	1	Ⴖ	cut_a_stereo_44KHz.wav
3	132	4	4	2	I	2	0	113	0	Ⴌ	cut_u_stereo_44KHz.wav
3	133	3	4	2	I	2	0	951	0	Ⴖ	cut_u_stereo_44KHz.wav
3	134	4	3	2	I	2	0	660	1	Ⴌ	cut_a_stereo_44KHz.wav
3	135	2	1	0	C	2	1	1155	1	Ⴔ	cut_o_stereo_44KHz.wav
3	136	1	2	0	C	2	1	614	1	Ⴐ	cut_k_stereo_44KHz.wav
3	137	2	1	0	C	2	1	541	1	Ⴔ	cut_o_stereo_44KHz.wav
3	138	1	1	1	C	1	1	1189	1	Ⴐ	cut_o_stereo_44KHz.wav
3	139	3	3	2	I	1	0	635	1	Ⴖ	cut_a_stereo_44KHz.wav
3	140	4	4	2	I	1	0	632	1	Ⴌ	cut_u_stereo_44KHz.wav
3	141	3	4	2	I	2	0	651	0	Ⴖ	cut_u_stereo_44KHz.wav
3	142	1	2	0	C	2	1	830	1	Ⴐ	cut_k_stereo_44KHz.wav
3	143	2	2	1	C	1	1	708	1	Ⴔ	cut_k_stereo_44KHz.wav
3	144	4	3	2	I	2	0	865	0	Ⴌ	cut_a_stereo_44KHz.wav
3	145	1	1	1	C	1	1	637	1	Ⴐ	cut_o_stereo_44KHz.wav
3	146	3	4	2	I	2	0	657	1	Ⴖ	cut_u_stereo_44KHz.wav
3	147	2	1	0	C	2	1	618	1	Ⴔ	cut_o_stereo_44KHz.wav
3	148	4	3	2	I	1	0	838	0	Ⴌ	cut_a_stereo_44KHz.wav
3	149	2	2	1	C	1	1	690	1	Ⴔ	cut_k_stereo_44KHz.wav
3	150	1	2	0	C	1	0	561	0	Ⴐ	cut_k_stereo_44KHz.wav
3	151	3	3	2	I	1	0	678	1	Ⴖ	cut_a_stereo_44KHz.wav
3	152	4	4	2	I	1	0	683	1	Ⴌ	cut_u_stereo_44KHz.wav
3	153	3	4	2	I	1	0	662	1	Ⴖ	cut_u_stereo_44KHz.wav
3	154	4	3	2	I	2	0	660	1	Ⴌ	cut_a_stereo_44KHz.wav
3	155	1	2	0	C	2	1	723	1	Ⴐ	cut_k_stereo_44KHz.wav
3	156	2	2	1	C	1	1	726	1	Ⴔ	cut_k_stereo_44KHz.wav
3	157	3	3	2	I	1	0	760	1	Ⴖ	cut_a_stereo_44KHz.wav
3	158	4	4	2	I	1	0	946	0	Ⴌ	cut_u_stereo_44KHz.wav
3	159	1	1	1	C	1	1	635	1	Ⴐ	cut_o_stereo_44KHz.wav
3	160	2	1	0	C	1	0	687	0	Ⴔ	cut_o_stereo_44KHz.wav
3	161	3	3	2	I	1	0	735	1	Ⴖ	cut_a_stereo_44KHz.wav
3	162	1	1	1	C	1	1	954	1	Ⴐ	cut_o_stereo_44KHz.wav
3	163	4	4	2	I	1	0	812	0	Ⴌ	cut_u_stereo_44KHz.wav
3	164	2	1	0	C	2	1	568	1	Ⴔ	cut_o_stereo_44KHz.wav
3	165	3	4	2	I	2	0	744	1	Ⴖ	cut_u_stereo_44KHz.wav
3	166	2	2	1	C	1	1	935	1	Ⴔ	cut_k_stereo_44KHz.wav
3	167	4	3	2	I	2	0	1141	1	Ⴌ	cut_a_stereo_44KHz.wav
3	168	1	2	0	C	2	1	997	1	Ⴐ	cut_k_stereo_44KHz.wav
3	169	3	3	2	I	1	0	664	1	Ⴖ	cut_a_stereo_44KHz.wav
3	170	2	2	1	C	1	1	1343	1	Ⴔ	cut_k_stereo_44KHz.wav
3	171	4	3	2	I	2	0	628	1	Ⴌ	cut_a_stereo_44KHz.wav
3	172	1	1	1	C	1	1	871	1	Ⴐ	cut_o_stereo_44KHz.wav
3	173	2	1	0	C	2	1	704	1	Ⴔ	cut_o_stereo_44KHz.wav
3	174	1	2	0	C	2	1	801	1	Ⴐ	cut_k_stereo_44KHz.wav
3	175	4	4	2	I	1	0	913	1	Ⴌ	cut_u_stereo_44KHz.wav
3	176	3	4	2	I	2	0	669	1	Ⴖ	cut_u_stereo_44KHz.wav
3	177	1	2	0	C	2	1	816	1	Ⴐ	cut_k_stereo_44KHz.wav
3	178	4	4	2	I	1	0	659	0	Ⴌ	cut_u_stereo_44KHz.wav
3	179	2	1	0	C	2	1	708	1	Ⴔ	cut_o_stereo_44KHz.wav
3	180	3	4	2	I	2	0	514	1	Ⴖ	cut_u_stereo_44KHz.wav
3	181	4	3	2	I	1	0	818	0	Ⴌ	cut_a_stereo_44KHz.wav
3	182	1	1	1	C	1	1	916	1	Ⴐ	cut_o_stereo_44KHz.wav
3	183	3	3	2	I	1	0	686	0	Ⴖ	cut_a_stereo_44KHz.wav
3	184	2	2	1	C	1	1	1004	1	Ⴔ	cut_k_stereo_44KHz.wav
3	185	4	4	2	I	2	0	929	0	Ⴌ	cut_u_stereo_44KHz.wav
3	186	1	2	0	C	2	1	660	1	Ⴐ	cut_k_stereo_44KHz.wav
3	187	3	3	2	I	1	0	706	0	Ⴖ	cut_a_stereo_44KHz.wav
3	188	2	2	1	C	1	1	802	1	Ⴔ	cut_k_stereo_44KHz.wav
3	189	3	4	2	I	2	0	1220	1	Ⴖ	cut_u_stereo_44KHz.wav
3	190	1	1	1	C	1	1	1249	1	Ⴐ	cut_o_stereo_44KHz.wav
3	191	4	3	2	I	2	0	863	0	Ⴌ	cut_a_stereo_44KHz.wav
3	192	2	1	0	C	2	1	636	1	Ⴔ	cut_o_stereo_44KHz.wav
3	193	4	3	2	I	1	0	554	0	Ⴌ	cut_a_stereo_44KHz.wav
3	194	1	1	1	C	1	1	754	1	Ⴐ	cut_o_stereo_44KHz.wav
3	195	3	3	2	I	2	0	644	0	Ⴖ	cut_a_stereo_44KHz.wav
3	196	2	1	0	C	2	1	600	1	Ⴔ	cut_o_stereo_44KHz.wav
3	197	4	4	2	I	1	0	773	0	Ⴌ	cut_u_stereo_44KHz.wav
3	198	3	4	2	I	2	0	623	0	Ⴖ	cut_u_stereo_44KHz.wav
3	199	1	2	0	C	2	1	524	1	Ⴐ	cut_k_stereo_44KHz.wav
3	200	2	2	1	C	1	1	677	1	Ⴔ	cut_k_stereo_44KHz.wav
4	1	1	1	1	C	2	0	1074	0	Ⴉ	cut_n_stereo_44KHz.wav
4	2	4	3	2	I	1	0	1045	1	Ⴒ	cut_j_stereo_44KHz.wav
4	3	2	2	1	C	2	0	960	0	Ⴕ	cut_f_stereo_44KHz.wav
4	4	3	4	2	I	2	0	891	0	Ⴏ	cut_ui_stereo_44KHz.wav
4	5	1	2	0	C	2	1	962	1	Ⴉ	cut_f_stereo_44KHz.wav
4	6	2	1	0	C	2	1	1500	1	Ⴕ	cut_n_stereo_44KHz.wav
4	7	4	4	2	I	2	0	1165	1	Ⴒ	cut_ui_stereo_44KHz.wav
4	8	3	3	2	I	1	0	1148	1	Ⴏ	cut_j_stereo_44KHz.wav
4	9	2	1	0	C	2	1	1046	1	Ⴕ	cut_n_stereo_44KHz.wav
4	10	3	3	2	I	1	0	966	1	Ⴏ	cut_j_stereo_44KHz.wav
4	11	1	1	1	C	2	0	1052	0	Ⴉ	cut_n_stereo_44KHz.wav
4	12	4	3	2	I	2	0	1273	1	Ⴒ	cut_j_stereo_44KHz.wav
4	13	2	2	1	C	1	1	989	1	Ⴕ	cut_f_stereo_44KHz.wav
4	14	1	2	0	C	2	1	1025	1	Ⴉ	cut_f_stereo_44KHz.wav
4	15	4	4	2	I	2	0	767	1	Ⴒ	cut_ui_stereo_44KHz.wav
4	16	3	4	2	I	1	0	1200	0	Ⴏ	cut_ui_stereo_44KHz.wav
4	17	4	4	2	I	2	0	788	1	Ⴒ	cut_ui_stereo_44KHz.wav
4	18	2	1	0	C	2	1	826	1	Ⴕ	cut_n_stereo_44KHz.wav
4	19	3	3	2	I	1	0	910	0	Ⴏ	cut_j_stereo_44KHz.wav
4	20	1	1	1	C	2	0	723	0	Ⴉ	cut_n_stereo_44KHz.wav
4	21	4	3	2	I	1	0	1386	1	Ⴒ	cut_j_stereo_44KHz.wav
4	22	2	2	1	C	1	1	872	1	Ⴕ	cut_f_stereo_44KHz.wav
4	23	3	4	2	I	2	0	709	0	Ⴏ	cut_ui_stereo_44KHz.wav
4	24	1	2	0	C	2	1	941	1	Ⴉ	cut_f_stereo_44KHz.wav
4	25	2	1	0	C	2	1	645	1	Ⴕ	cut_n_stereo_44KHz.wav
4	26	4	3	2	I	1	0	1312	0	Ⴒ	cut_j_stereo_44KHz.wav
4	27	1	2	0	C	2	1	1035	1	Ⴉ	cut_f_stereo_44KHz.wav
4	28	3	3	2	I	2	0	1226	1	Ⴏ	cut_j_stereo_44KHz.wav
4	29	2	2	1	C	1	1	956	1	Ⴕ	cut_f_stereo_44KHz.wav
4	30	4	4	2	I	2	0	986	1	Ⴒ	cut_ui_stereo_44KHz.wav
4	31	1	1	1	C	1	1	978	1	Ⴉ	cut_n_stereo_44KHz.wav
4	32	3	4	2	I	1	0	1167	1	Ⴏ	cut_ui_stereo_44KHz.wav
4	33	2	2	1	C	1	1	734	1	Ⴕ	cut_f_stereo_44KHz.wav
4	34	4	3	2	I	2	0	1030	0	Ⴒ	cut_j_stereo_44KHz.wav
4	35	3	4	2	I	1	0	1147	0	Ⴏ	cut_ui_stereo_44KHz.wav
4	36	1	1	1	C	1	1	1132	1	Ⴉ	cut_n_stereo_44KHz.wav
4	37	2	1	0	C	2	1	688	1	Ⴕ	cut_n_stereo_44KHz.wav
4	38	3	3	2	I	2	0	1253	1	Ⴏ	cut_j_stereo_44KHz.wav
4	39	1	2	0	C	2	1	940	1	Ⴉ	cut_f_stereo_44KHz.wav
4	40	4	4	2	I	2	0	1103	0	Ⴒ	cut_ui_stereo_44KHz.wav
4	41	2	1	0	C	2	1	866	1	Ⴕ	cut_n_stereo_44KHz.wav
4	42	3	4	2	I	1	0	988	0	Ⴏ	cut_ui_stereo_44KHz.wav
4	43	1	2	0	C	2	1	850	1	Ⴉ	cut_f_stereo_44KHz.wav
4	44	4	4	2	I	2	0	813	0	Ⴒ	cut_ui_stereo_44KHz.wav
4	45	1	1	1	C	1	1	851	1	Ⴉ	cut_n_stereo_44KHz.wav
4	46	3	3	2	I	2	0	1199	1	Ⴏ	cut_j_stereo_44KHz.wav
4	47	4	3	2	I	2	0	1281	0	Ⴒ	cut_j_stereo_44KHz.wav
4	48	2	2	1	C	1	1	737	1	Ⴕ	cut_f_stereo_44KHz.wav
4	49	4	3	2	I	2	0	812	0	Ⴒ	cut_j_stereo_44KHz.wav
4	50	2	2	1	C	1	1	995	1	Ⴕ	cut_f_stereo_44KHz.wav
4	51	3	3	2	I	2	0	668	0	Ⴏ	cut_j_stereo_44KHz.wav
4	52	1	2	0	C	2	1	1299	1	Ⴉ	cut_f_stereo_44KHz.wav
4	53	4	4	2	I	2	0	1083	0	Ⴒ	cut_ui_stereo_44KHz.wav
4	54	3	4	2	I	1	0	895	0	Ⴏ	cut_ui_stereo_44KHz.wav
4	55	1	1	1	C	1	1	1143	1	Ⴉ	cut_n_stereo_44KHz.wav
4	56	2	1	0	C	2	1	625	1	Ⴕ	cut_n_stereo_44KHz.wav
4	57	1	1	1	C	1	1	876	1	Ⴉ	cut_n_stereo_44KHz.wav
4	58	4	4	2	I	2	0	736	0	Ⴒ	cut_ui_stereo_44KHz.wav
4	59	3	4	2	I	1	0	974	0	Ⴏ	cut_ui_stereo_44KHz.wav
4	60	2	2	1	C	2	0	879	0	Ⴕ	cut_f_stereo_44KHz.wav
4	61	3	3	2	I	2	0	749	1	Ⴏ	cut_j_stereo_44KHz.wav
4	62	1	2	0	C	1	0	986	0	Ⴉ	cut_f_stereo_44KHz.wav
4	63	2	1	0	C	2	1	741	1	Ⴕ	cut_n_stereo_44KHz.wav
4	64	4	3	2	I	2	0	1474	0	Ⴒ	cut_j_stereo_44KHz.wav
4	65	1	2	0	C	2	1	983	1	Ⴉ	cut_f_stereo_44KHz.wav
4	66	4	3	2	I	1	0	1860	0	Ⴒ	cut_j_stereo_44KHz.wav
4	67	2	1	0	C	2	1	683	1	Ⴕ	cut_n_stereo_44KHz.wav
4	68	3	4	2	I	1	0	984	1	Ⴏ	cut_ui_stereo_44KHz.wav
4	69	1	1	1	C	1	1	1582	1	Ⴉ	cut_n_stereo_44KHz.wav
4	70	3	3	2	I	2	0	857	1	Ⴏ	cut_j_stereo_44KHz.wav
4	71	2	2	1	C	1	1	993	1	Ⴕ	cut_f_stereo_44KHz.wav
4	72	4	4	2	I	2	0	905	0	Ⴒ	cut_ui_stereo_44KHz.wav
4	73	2	2	1	C	1	1	876	1	Ⴕ	cut_f_stereo_44KHz.wav
4	74	3	3	2	I	1	0	769	1	Ⴏ	cut_j_stereo_44KHz.wav
4	75	4	3	2	I	2	0	936	1	Ⴒ	cut_j_stereo_44KHz.wav
4	76	1	1	1	C	1	1	1194	1	Ⴉ	cut_n_stereo_44KHz.wav
4	77	4	4	2	I	2	0	1132	1	Ⴒ	cut_ui_stereo_44KHz.wav
4	78	2	1	0	C	2	1	733	1	Ⴕ	cut_n_stereo_44KHz.wav
4	79	1	2	0	C	2	1	1112	1	Ⴉ	cut_f_stereo_44KHz.wav
4	80	3	4	2	I	1	0	969	1	Ⴏ	cut_ui_stereo_44KHz.wav
4	81	1	2	0	C	2	1	781	1	Ⴉ	cut_f_stereo_44KHz.wav
4	82	2	2	1	C	1	1	658	1	Ⴕ	cut_f_stereo_44KHz.wav
4	83	4	3	2	I	2	0	1107	1	Ⴒ	cut_j_stereo_44KHz.wav
4	84	3	4	2	I	2	0	1306	1	Ⴏ	cut_ui_stereo_44KHz.wav
4	85	1	1	1	C	1	1	1004	1	Ⴉ	cut_n_stereo_44KHz.wav
4	86	2	1	0	C	2	1	760	1	Ⴕ	cut_n_stereo_44KHz.wav
4	87	4	4	2	I	2	0	803	1	Ⴒ	cut_ui_stereo_44KHz.wav
4	88	3	3	2	I	2	0	900	1	Ⴏ	cut_j_stereo_44KHz.wav
4	89	1	1	1	C	1	1	1065	1	Ⴉ	cut_n_stereo_44KHz.wav
4	90	2	2	1	C	1	1	1968	1	Ⴕ	cut_f_stereo_44KHz.wav
4	91	4	4	2	I	1	0	1018	0	Ⴒ	cut_ui_stereo_44KHz.wav
4	92	3	3	2	I	2	0	710	1	Ⴏ	cut_j_stereo_44KHz.wav
4	93	4	3	2	I	1	0	943	1	Ⴒ	cut_j_stereo_44KHz.wav
4	94	1	2	0	C	2	1	1476	1	Ⴉ	cut_f_stereo_44KHz.wav
4	95	3	4	2	I	2	0	968	1	Ⴏ	cut_ui_stereo_44KHz.wav
4	96	2	1	0	C	2	1	997	1	Ⴕ	cut_n_stereo_44KHz.wav
4	97	4	4	2	I	1	0	1004	0	Ⴒ	cut_ui_stereo_44KHz.wav
4	98	2	2	1	C	1	1	1381	1	Ⴕ	cut_f_stereo_44KHz.wav
4	99	1	1	1	C	1	1	695	1	Ⴉ	cut_n_stereo_44KHz.wav
4	100	3	3	2	I	2	0	946	0	Ⴏ	cut_j_stereo_44KHz.wav
4	101	2	1	0	C	2	1	687	1	Ⴕ	cut_n_stereo_44KHz.wav
4	102	3	4	2	I	2	0	824	0	Ⴏ	cut_ui_stereo_44KHz.wav
4	103	1	2	0	C	2	1	723	1	Ⴉ	cut_f_stereo_44KHz.wav
4	104	4	3	2	I	1	0	1257	1	Ⴒ	cut_j_stereo_44KHz.wav
4	105	2	2	1	C	1	1	758	1	Ⴕ	cut_f_stereo_44KHz.wav
4	106	3	3	2	I	2	0	728	1	Ⴏ	cut_j_stereo_44KHz.wav
4	107	1	1	1	C	1	1	1174	1	Ⴉ	cut_n_stereo_44KHz.wav
4	108	4	3	2	I	2	0	794	0	Ⴒ	cut_j_stereo_44KHz.wav
4	109	2	1	0	C	2	1	807	1	Ⴕ	cut_n_stereo_44KHz.wav
4	110	4	4	2	I	2	0	858	0	Ⴒ	cut_ui_stereo_44KHz.wav
4	111	1	2	0	C	2	1	886	1	Ⴉ	cut_f_stereo_44KHz.wav
4	112	3	4	2	I	1	0	658	0	Ⴏ	cut_ui_stereo_44KHz.wav
4	113	4	4	2	I	1	0	895	0	Ⴒ	cut_ui_stereo_44KHz.wav
4	114	1	1	1	C	1	1	1146	1	Ⴉ	cut_n_stereo_44KHz.wav
4	115	2	2	1	C	1	1	1151	1	Ⴕ	cut_f_stereo_44KHz.wav
4	116	3	3	2	I	2	0	1135	1	Ⴏ	cut_j_stereo_44KHz.wav
4	117	1	2	0	C	2	1	751	1	Ⴉ	cut_f_stereo_44KHz.wav
4	118	4	3	2	I	1	0	1432	0	Ⴒ	cut_j_stereo_44KHz.wav
4	119	3	4	2	I	2	0	806	0	Ⴏ	cut_ui_stereo_44KHz.wav
4	120	2	1	0	C	2	1	1085	1	Ⴕ	cut_n_stereo_44KHz.wav
4	121	3	4	2	I	1	0	1319	0	Ⴏ	cut_ui_stereo_44KHz.wav
4	122	2	1	0	C	2	1	1559	1	Ⴕ	cut_n_stereo_44KHz.wav
4	123	4	4	2	I	1	0	691	0	Ⴒ	cut_ui_stereo_44KHz.wav
4	124	1	1	1	C	1	1	899	1	Ⴉ	cut_n_stereo_44KHz.wav
4	125	4	3	2	I	2	0	1802	1	Ⴒ	cut_j_stereo_44KHz.wav
4	126	3	3	2	I	1	0	816	1	Ⴏ	cut_j_stereo_44KHz.wav
4	127	1	2	0	C	2	1	1379	1	Ⴉ	cut_f_stereo_44KHz.wav
4	128	2	2	1	C	1	1	777	1	Ⴕ	cut_f_stereo_44KHz.wav
4	129	1	2	0	C	2	1	1563	1	Ⴉ	cut_f_stereo_44KHz.wav
4	130	4	4	2	I	2	0	536	0	Ⴒ	cut_ui_stereo_44KHz.wav
4	131	2	1	0	C	2	1	786	1	Ⴕ	cut_n_stereo_44KHz.wav
4	132	3	3	2	I	1	0	513	0	Ⴏ	cut_j_stereo_44KHz.wav
4	133	4	3	2	I	1	0	1144	1	Ⴒ	cut_j_stereo_44KHz.wav
4	134	2	2	1	C	2	0	848	0	Ⴕ	cut_f_stereo_44KHz.wav
4	135	3	4	2	I	2	0	773	1	Ⴏ	cut_ui_stereo_44KHz.wav
4	136	1	1	1	C	1	1	1400	1	Ⴉ	cut_n_stereo_44KHz.wav
4	137	3	4	2	I	1	0	1017	0	Ⴏ	cut_ui_stereo_44KHz.wav
4	138	1	2	0	C	2	1	931	1	Ⴉ	cut_f_stereo_44KHz.wav
4	139	2	1	0	C	2	1	732	1	Ⴕ	cut_n_stereo_44KHz.wav
4	140	4	4	2	I	1	0	489	0	Ⴒ	cut_ui_stereo_44KHz.wav
4	141	2	2	1	C	1	1	861	1	Ⴕ	cut_f_stereo_44KHz.wav
4	142	4	3	2	I	2	0	1253	1	Ⴒ	cut_j_stereo_44KHz.wav
4	143	3	3	2	I	1	0	857	0	Ⴏ	cut_j_stereo_44KHz.wav
4	144	1	1	1	C	1	1	1328	1	Ⴉ	cut_n_stereo_44KHz.wav
4	145	3	4	2	I	1	0	945	1	Ⴏ	cut_ui_stereo_44KHz.wav
4	146	1	1	1	C	1	1	972	1	Ⴉ	cut_n_stereo_44KHz.wav
4	147	2	2	1	C	1	1	965	1	Ⴕ	cut_f_stereo_44KHz.wav
4	148	4	4	2	I	2	0	1012	1	Ⴒ	cut_ui_stereo_44KHz.wav
4	149	3	3	2	I	1	0	937	0	Ⴏ	cut_j_stereo_44KHz.wav
4	150	4	3	2	I	1	0	1352	1	Ⴒ	cut_j_stereo_44KHz.wav
4	151	2	1	0	C	2	1	967	1	Ⴕ	cut_n_stereo_44KHz.wav
4	152	1	2	0	C	2	1	544	1	Ⴉ	cut_f_stereo_44KHz.wav
4	153	4	4	2	I	2	0	1208	1	Ⴒ	cut_ui_stereo_44KHz.wav
4	154	3	3	2	I	2	0	1137	0	Ⴏ	cut_j_stereo_44KHz.wav
4	155	2	2	1	C	1	1	851	1	Ⴕ	cut_f_stereo_44KHz.wav
4	156	1	1	1	C	2	0	1162	0	Ⴉ	cut_n_stereo_44KHz.wav
4	157	4	3	2	I	1	0	1704	1	Ⴒ	cut_j_stereo_44KHz.wav
4	158	2	1	0	C	2	1	1012	1	Ⴕ	cut_n_stereo_44KHz.wav
4	159	1	2	0	C	1	0	927	0	Ⴉ	cut_f_stereo_44KHz.wav
4	160	3	4	2	I	1	0	784	0	Ⴏ	cut_ui_stereo_44KHz.wav
4	161	4	4	2	I	2	0	1098	0	Ⴒ	cut_ui_stereo_44KHz.wav
4	162	2	1	0	C	2	1	697	1	Ⴕ	cut_n_stereo_44KHz.wav
4	163	3	4	2	I	1	0	1213	1	Ⴏ	cut_ui_stereo_44KHz.wav
4	164	1	2	0	C	2	1	838	1	Ⴉ	cut_f_stereo_44KHz.wav
4	165	2	2	1	C	1	1	772	1	Ⴕ	cut_f_stereo_44KHz.wav
4	166	3	3	2	I	2	0	832	0	Ⴏ	cut_j_stereo_44KHz.wav
4	167	4	3	2	I	1	0	1367	0	Ⴒ	cut_j_stereo_44KHz.wav
4	168	1	1	1	C	1	1	1173	1	Ⴉ	cut_n_stereo_44KHz.wav
4	169	2	1	0	C	2	1	984	1	Ⴕ	cut_n_stereo_44KHz.wav
4	170	4	3	2	I	2	0	1184	0	Ⴒ	cut_j_stereo_44KHz.wav
4	171	3	3	2	I	2	0	1042	1	Ⴏ	cut_j_stereo_44KHz.wav
4	172	1	2	0	C	2	1	896	1	Ⴉ	cut_f_stereo_44KHz.wav
4	173	3	4	2	I	1	0	1080	1	Ⴏ	cut_ui_stereo_44KHz.wav
4	174	4	4	2	I	2	0	863	1	Ⴒ	cut_ui_stereo_44KHz.wav
4	175	2	2	1	C	1	1	1385	1	Ⴕ	cut_f_stereo_44KHz.wav
4	176	1	1	1	C	1	1	872	1	Ⴉ	cut_n_stereo_44KHz.wav
4	177	4	4	2	I	1	0	1270	1	Ⴒ	cut_ui_stereo_44KHz.wav
4	178	3	4	2	I	1	0	1330	0	Ⴏ	cut_ui_stereo_44KHz.wav
4	179	1	1	1	C	1	1	1528	1	Ⴉ	cut_n_stereo_44KHz.wav
4	180	2	1	0	C	2	1	701	1	Ⴕ	cut_n_stereo_44KHz.wav
4	181	4	3	2	I	1	0	1146	0	Ⴒ	cut_j_stereo_44KHz.wav
4	182	2	2	1	C	1	1	829	1	Ⴕ	cut_f_stereo_44KHz.wav
4	183	3	3	2	I	2	0	781	0	Ⴏ	cut_j_stereo_44KHz.wav
4	184	1	2	0	C	2	1	750	1	Ⴉ	cut_f_stereo_44KHz.wav
4	185	4	4	2	I	1	0	769	0	Ⴒ	cut_ui_stereo_44KHz.wav
4	186	1	2	0	C	2	1	861	1	Ⴉ	cut_f_stereo_44KHz.wav
4	187	3	3	2	I	1	0	386	0	Ⴏ	cut_j_stereo_44KHz.wav
4	188	2	1	0	C	2	1	869	1	Ⴕ	cut_n_stereo_44KHz.wav
4	189	3	4	2	I	2	0	1067	1	Ⴏ	cut_ui_stereo_44KHz.wav
4	190	2	2	1	C	1	1	898	1	Ⴕ	cut_f_stereo_44KHz.wav
4	191	4	3	2	I	1	0	924	1	Ⴒ	cut_j_stereo_44KHz.wav
4	192	1	1	1	C	1	1	556	1	Ⴉ	cut_n_stereo_44KHz.wav
4	193	2	2	1	C	1	1	973	1	Ⴕ	cut_f_stereo_44KHz.wav
4	194	1	2	0	C	2	1	763	1	Ⴉ	cut_f_stereo_44KHz.wav
4	195	3	4	2	I	1	0	1062	0	Ⴏ	cut_ui_stereo_44KHz.wav
4	196	4	4	2	I	2	0	864	1	Ⴒ	cut_ui_stereo_44KHz.wav
4	197	2	1	0	C	2	1	901	1	Ⴕ	cut_n_stereo_44KHz.wav
4	198	4	3	2	I	1	0	1328	1	Ⴒ	cut_j_stereo_44KHz.wav
4	199	3	3	2	I	2	0	712	1	Ⴏ	cut_j_stereo_44KHz.wav
4	200	1	1	1	C	1	1	890	1	Ⴉ	cut_n_stereo_44KHz.wav
