block	trial	Vstim	Astim	match	C/I	resp	result	RT	fb	V-file	A-file
LR

0	1	2	4	0	C	0	0	0	0	poli_8sides 22_whiteLine3.jpg	Practice2_b27_cut2_stereo_44KHz.wav
0	2	1	1	1	C	1	0	860	0	poli_8sides 21_whiteLine3.jpg	Practice3_b26_cut1_stereo_44KHz.wav
0	3	2	3	1	C	2	1	764	1	poli_8sides 22_whiteLine3.jpg	Practice1_b27_cut1_stereo_44KHz.wav
0	4	1	2	0	C	2	0	848	0	poli_8sides 21_whiteLine3.jpg	Practice4_b26_stereo_44KHz.wav
0	5	2	4	0	C	1	1	1416	1	poli_8sides 22_whiteLine3.jpg	Practice2_b27_cut2_stereo_44KHz.wav
0	6	1	2	0	C	2	0	950	0	poli_8sides 21_whiteLine3.jpg	Practice4_b26_stereo_44KHz.wav
0	7	2	3	1	C	2	1	1075	1	poli_8sides 22_whiteLine3.jpg	Practice1_b27_cut1_stereo_44KHz.wav
0	8	1	1	1	C	1	0	630	0	poli_8sides 21_whiteLine3.jpg	Practice3_b26_cut1_stereo_44KHz.wav
0	9	1	2	0	C	2	0	1176	0	poli_8sides 21_whiteLine3.jpg	Practice4_b26_stereo_44KHz.wav
0	10	2	3	1	C	2	1	958	1	poli_8sides 22_whiteLine3.jpg	Practice1_b27_cut1_stereo_44KHz.wav
0	11	2	4	0	C	2	0	1226	0	poli_8sides 22_whiteLine3.jpg	Practice2_b27_cut2_stereo_44KHz.wav
0	12	1	1	1	C	2	1	1314	1	poli_8sides 21_whiteLine3.jpg	Practice3_b26_cut1_stereo_44KHz.wav
0	13	1	2	0	C	1	1	1247	1	poli_8sides 21_whiteLine3.jpg	Practice4_b26_stereo_44KHz.wav
0	14	2	3	1	C	1	0	1386	0	poli_8sides 22_whiteLine3.jpg	Practice1_b27_cut1_stereo_44KHz.wav
0	15	1	1	1	C	1	0	1328	0	poli_8sides 21_whiteLine3.jpg	Practice3_b26_cut1_stereo_44KHz.wav
0	16	2	4	0	C	2	0	759	0	poli_8sides 22_whiteLine3.jpg	Practice2_b27_cut2_stereo_44KHz.wav
0	17	2	4	0	C	1	1	948	1	poli_8sides 22_whiteLine3.jpg	Practice2_b27_cut2_stereo_44KHz.wav
0	18	1	2	0	C	2	0	845	0	poli_8sides 21_whiteLine3.jpg	Practice4_b26_stereo_44KHz.wav
0	19	1	1	1	C	1	0	1075	0	poli_8sides 21_whiteLine3.jpg	Practice3_b26_cut1_stereo_44KHz.wav
0	20	2	3	1	C	2	1	1313	1	poli_8sides 22_whiteLine3.jpg	Practice1_b27_cut1_stereo_44KHz.wav
0	21	1	2	0	C	1	1	1346	1	poli_8sides 21_whiteLine3.jpg	Practice4_b26_stereo_44KHz.wav
0	22	2	3	1	C	2	1	1221	1	poli_8sides 22_whiteLine3.jpg	Practice1_b27_cut1_stereo_44KHz.wav
0	23	2	4	0	C	1	1	1049	1	poli_8sides 22_whiteLine3.jpg	Practice2_b27_cut2_stereo_44KHz.wav
0	24	1	1	1	C	2	1	1011	1	poli_8sides 21_whiteLine3.jpg	Practice3_b26_cut1_stereo_44KHz.wav
0	25	2	4	0	C	1	1	1189	1	poli_8sides 22_whiteLine3.jpg	Practice2_b27_cut2_stereo_44KHz.wav
0	26	2	3	1	C	2	1	928	1	poli_8sides 22_whiteLine3.jpg	Practice1_b27_cut1_stereo_44KHz.wav
0	27	1	2	0	C	1	1	989	1	poli_8sides 21_whiteLine3.jpg	Practice4_b26_stereo_44KHz.wav
0	28	1	1	1	C	2	1	789	1	poli_8sides 21_whiteLine3.jpg	Practice3_b26_cut1_stereo_44KHz.wav
0	29	2	3	1	C	2	1	853	1	poli_8sides 22_whiteLine3.jpg	Practice1_b27_cut1_stereo_44KHz.wav
0	30	1	2	0	C	1	1	776	1	poli_8sides 21_whiteLine3.jpg	Practice4_b26_stereo_44KHz.wav
avg_resp = 1066
1	1	2	2	1	C	2	1	988	1	poli_8sides 12_whiteLine3.jpg	Medium_e01_cut1_stereo_44KHz.wav
1	2	4	4	2	I	1	0	785	1	poli_8sides 7_whiteLine3.jpg	Medium_e21_stereo_44KHz.wav
1	3	1	2	0	C	2	0	847	0	poli_8sides 6_whiteLine3.jpg	Medium_e01_cut1_stereo_44KHz.wav
1	4	3	4	2	I	2	0	986	0	poli_8sides 4_whiteLine3.jpg	Medium_e21_stereo_44KHz.wav
1	5	1	1	1	C	1	0	1124	0	poli_8sides 6_whiteLine3.jpg	MediumLong_b10_cut2_L_stereo_44KHz.wav
1	6	2	1	0	C	1	1	1275	1	poli_8sides 12_whiteLine3.jpg	MediumLong_b10_cut2_L_stereo_44KHz.wav
1	7	3	3	2	I	2	0	880	1	poli_8sides 4_whiteLine3.jpg	Medium_e26_stereo_44KHz.wav
1	8	4	3	2	I	2	0	1393	1	poli_8sides 7_whiteLine3.jpg	Medium_e26_stereo_44KHz.wav
1	9	3	4	2	I	1	0	1123	0	poli_8sides 4_whiteLine3.jpg	Medium_e21_stereo_44KHz.wav
1	10	1	2	0	C	2	0	1181	0	poli_8sides 6_whiteLine3.jpg	Medium_e01_cut1_stereo_44KHz.wav
1	11	4	3	2	I	1	0	1000	1	poli_8sides 7_whiteLine3.jpg	Medium_e26_stereo_44KHz.wav
1	12	2	1	0	C	2	0	1482	0	poli_8sides 12_whiteLine3.jpg	MediumLong_b10_cut2_L_stereo_44KHz.wav
1	13	3	3	2	I	2	0	1318	0	poli_8sides 4_whiteLine3.jpg	Medium_e26_stereo_44KHz.wav
1	14	2	2	1	C	1	0	936	0	poli_8sides 12_whiteLine3.jpg	Medium_e01_cut1_stereo_44KHz.wav
1	15	1	1	1	C	1	0	944	0	poli_8sides 6_whiteLine3.jpg	MediumLong_b10_cut2_L_stereo_44KHz.wav
1	16	4	4	2	I	1	0	954	1	poli_8sides 7_whiteLine3.jpg	Medium_e21_stereo_44KHz.wav
1	17	2	1	0	C	2	0	1093	0	poli_8sides 12_whiteLine3.jpg	MediumLong_b10_cut2_L_stereo_44KHz.wav
1	18	4	4	2	I	1	0	846	0	poli_8sides 7_whiteLine3.jpg	Medium_e21_stereo_44KHz.wav
1	19	3	3	2	I	2	0	868	1	poli_8sides 4_whiteLine3.jpg	Medium_e26_stereo_44KHz.wav
1	20	1	2	0	C	2	0	1267	0	poli_8sides 6_whiteLine3.jpg	Medium_e01_cut1_stereo_44KHz.wav
1	21	2	2	1	C	1	0	1062	0	poli_8sides 12_whiteLine3.jpg	Medium_e01_cut1_stereo_44KHz.wav
1	22	3	4	2	I	1	0	683	1	poli_8sides 4_whiteLine3.jpg	Medium_e21_stereo_44KHz.wav
1	23	4	3	2	I	1	0	745	0	poli_8sides 7_whiteLine3.jpg	Medium_e26_stereo_44KHz.wav
1	24	1	1	1	C	2	1	956	1	poli_8sides 6_whiteLine3.jpg	MediumLong_b10_cut2_L_stereo_44KHz.wav
1	25	4	3	2	I	1	0	903	0	poli_8sides 7_whiteLine3.jpg	Medium_e26_stereo_44KHz.wav
1	26	1	1	1	C	1	0	1077	0	poli_8sides 6_whiteLine3.jpg	MediumLong_b10_cut2_L_stereo_44KHz.wav
1	27	2	2	1	C	2	1	872	1	poli_8sides 12_whiteLine3.jpg	Medium_e01_cut1_stereo_44KHz.wav
1	28	3	4	2	I	1	0	869	0	poli_8sides 4_whiteLine3.jpg	Medium_e21_stereo_44KHz.wav
1	29	1	2	0	C	1	1	706	1	poli_8sides 6_whiteLine3.jpg	Medium_e01_cut1_stereo_44KHz.wav
1	30	4	4	2	I	2	0	644	0	poli_8sides 7_whiteLine3.jpg	Medium_e21_stereo_44KHz.wav
1	31	2	1	0	C	1	1	1230	1	poli_8sides 12_whiteLine3.jpg	MediumLong_b10_cut2_L_stereo_44KHz.wav
1	32	3	3	2	I	1	0	707	1	poli_8sides 4_whiteLine3.jpg	Medium_e26_stereo_44KHz.wav
1	33	4	4	2	I	2	0	630	0	poli_8sides 7_whiteLine3.jpg	Medium_e21_stereo_44KHz.wav
1	34	1	1	1	C	1	0	891	0	poli_8sides 6_whiteLine3.jpg	MediumLong_b10_cut2_L_stereo_44KHz.wav
1	35	3	4	2	I	1	0	895	1	poli_8sides 4_whiteLine3.jpg	Medium_e21_stereo_44KHz.wav
1	36	2	1	0	C	1	1	1283	1	poli_8sides 12_whiteLine3.jpg	MediumLong_b10_cut2_L_stereo_44KHz.wav
1	37	1	2	0	C	2	0	803	0	poli_8sides 6_whiteLine3.jpg	Medium_e01_cut1_stereo_44KHz.wav
1	38	2	2	1	C	2	1	1285	1	poli_8sides 12_whiteLine3.jpg	Medium_e01_cut1_stereo_44KHz.wav
1	39	4	3	2	I	1	0	882	0	poli_8sides 7_whiteLine3.jpg	Medium_e26_stereo_44KHz.wav
1	40	3	3	2	I	1	0	436	1	poli_8sides 4_whiteLine3.jpg	Medium_e26_stereo_44KHz.wav
1	41	1	2	0	C	1	1	1026	1	poli_8sides 6_whiteLine3.jpg	Medium_e01_cut1_stereo_44KHz.wav
1	42	3	4	2	I	2	0	971	1	poli_8sides 4_whiteLine3.jpg	Medium_e21_stereo_44KHz.wav
1	43	2	2	1	C	2	1	1004	1	poli_8sides 12_whiteLine3.jpg	Medium_e01_cut1_stereo_44KHz.wav
1	44	4	3	2	I	1	0	623	1	poli_8sides 7_whiteLine3.jpg	Medium_e26_stereo_44KHz.wav
1	45	3	3	2	I	1	0	562	1	poli_8sides 4_whiteLine3.jpg	Medium_e26_stereo_44KHz.wav
1	46	4	4	2	I	1	0	611	1	poli_8sides 7_whiteLine3.jpg	Medium_e21_stereo_44KHz.wav
1	47	2	1	0	C	2	0	675	0	poli_8sides 12_whiteLine3.jpg	MediumLong_b10_cut2_L_stereo_44KHz.wav
1	48	1	1	1	C	1	0	509	0	poli_8sides 6_whiteLine3.jpg	MediumLong_b10_cut2_L_stereo_44KHz.wav
1	49	2	1	0	C	2	0	371	0	poli_8sides 12_whiteLine3.jpg	MediumLong_b10_cut2_L_stereo_44KHz.wav
1	50	1	1	1	C	1	0	646	0	poli_8sides 6_whiteLine3.jpg	MediumLong_b10_cut2_L_stereo_44KHz.wav
1	51	3	4	2	I	1	0	467	1	poli_8sides 4_whiteLine3.jpg	Medium_e21_stereo_44KHz.wav
1	52	4	3	2	I	1	0	587	0	poli_8sides 7_whiteLine3.jpg	Medium_e26_stereo_44KHz.wav
1	53	3	3	2	I	1	0	502	0	poli_8sides 4_whiteLine3.jpg	Medium_e26_stereo_44KHz.wav
1	54	1	2	0	C	2	0	890	0	poli_8sides 6_whiteLine3.jpg	Medium_e01_cut1_stereo_44KHz.wav
1	55	4	4	2	I	1	0	908	0	poli_8sides 7_whiteLine3.jpg	Medium_e21_stereo_44KHz.wav
1	56	2	2	1	C	1	0	1101	0	poli_8sides 12_whiteLine3.jpg	Medium_e01_cut1_stereo_44KHz.wav
1	57	3	3	2	I	1	0	726	0	poli_8sides 4_whiteLine3.jpg	Medium_e26_stereo_44KHz.wav
1	58	2	1	0	C	2	0	840	0	poli_8sides 12_whiteLine3.jpg	MediumLong_b10_cut2_L_stereo_44KHz.wav
1	59	1	2	0	C	1	1	716	1	poli_8sides 6_whiteLine3.jpg	Medium_e01_cut1_stereo_44KHz.wav
1	60	4	3	2	I	2	0	872	0	poli_8sides 7_whiteLine3.jpg	Medium_e26_stereo_44KHz.wav
1	61	1	1	1	C	1	0	728	0	poli_8sides 6_whiteLine3.jpg	MediumLong_b10_cut2_L_stereo_44KHz.wav
1	62	2	2	1	C	1	0	848	0	poli_8sides 12_whiteLine3.jpg	Medium_e01_cut1_stereo_44KHz.wav
1	63	4	4	2	I	1	0	718	0	poli_8sides 7_whiteLine3.jpg	Medium_e21_stereo_44KHz.wav
1	64	3	4	2	I	1	0	609	0	poli_8sides 4_whiteLine3.jpg	Medium_e21_stereo_44KHz.wav
1	65	2	2	1	C	2	1	787	1	poli_8sides 12_whiteLine3.jpg	Medium_e01_cut1_stereo_44KHz.wav
1	66	4	4	2	I	1	0	991	0	poli_8sides 7_whiteLine3.jpg	Medium_e21_stereo_44KHz.wav
1	67	3	4	2	I	1	0	745	0	poli_8sides 4_whiteLine3.jpg	Medium_e21_stereo_44KHz.wav
1	68	1	2	0	C	1	1	756	1	poli_8sides 6_whiteLine3.jpg	Medium_e01_cut1_stereo_44KHz.wav
1	69	4	3	2	I	2	0	1063	0	poli_8sides 7_whiteLine3.jpg	Medium_e26_stereo_44KHz.wav
1	70	3	3	2	I	2	0	518	0	poli_8sides 4_whiteLine3.jpg	Medium_e26_stereo_44KHz.wav
1	71	1	1	1	C	1	0	1035	0	poli_8sides 6_whiteLine3.jpg	MediumLong_b10_cut2_L_stereo_44KHz.wav
1	72	2	1	0	C	1	1	856	1	poli_8sides 12_whiteLine3.jpg	MediumLong_b10_cut2_L_stereo_44KHz.wav
1	73	1	2	0	C	2	0	884	0	poli_8sides 6_whiteLine3.jpg	Medium_e01_cut1_stereo_44KHz.wav
1	74	3	3	2	I	1	0	943	1	poli_8sides 4_whiteLine3.jpg	Medium_e26_stereo_44KHz.wav
1	75	4	3	2	I	2	0	731	0	poli_8sides 7_whiteLine3.jpg	Medium_e26_stereo_44KHz.wav
1	76	2	2	1	C	1	0	745	0	poli_8sides 12_whiteLine3.jpg	Medium_e01_cut1_stereo_44KHz.wav
1	77	4	4	2	I	2	0	736	1	poli_8sides 7_whiteLine3.jpg	Medium_e21_stereo_44KHz.wav
1	78	1	1	1	C	1	0	1241	0	poli_8sides 6_whiteLine3.jpg	MediumLong_b10_cut2_L_stereo_44KHz.wav
1	79	3	4	2	I	1	0	706	1	poli_8sides 4_whiteLine3.jpg	Medium_e21_stereo_44KHz.wav
1	80	2	1	0	C	1	1	751	1	poli_8sides 12_whiteLine3.jpg	MediumLong_b10_cut2_L_stereo_44KHz.wav
1	81	4	4	2	I	2	0	618	0	poli_8sides 7_whiteLine3.jpg	Medium_e21_stereo_44KHz.wav
1	82	3	3	2	I	2	0	847	1	poli_8sides 4_whiteLine3.jpg	Medium_e26_stereo_44KHz.wav
1	83	2	2	1	C	2	1	792	1	poli_8sides 12_whiteLine3.jpg	Medium_e01_cut1_stereo_44KHz.wav
1	84	1	2	0	C	1	1	618	1	poli_8sides 6_whiteLine3.jpg	Medium_e01_cut1_stereo_44KHz.wav
1	85	3	4	2	I	2	0	896	0	poli_8sides 4_whiteLine3.jpg	Medium_e21_stereo_44KHz.wav
1	86	4	3	2	I	2	0	788	1	poli_8sides 7_whiteLine3.jpg	Medium_e26_stereo_44KHz.wav
1	87	1	1	1	C	1	0	914	0	poli_8sides 6_whiteLine3.jpg	MediumLong_b10_cut2_L_stereo_44KHz.wav
1	88	2	1	0	C	2	0	809	0	poli_8sides 12_whiteLine3.jpg	MediumLong_b10_cut2_L_stereo_44KHz.wav
1	89	3	4	2	I	1	0	961	1	poli_8sides 4_whiteLine3.jpg	Medium_e21_stereo_44KHz.wav
1	90	1	1	1	C	2	1	852	1	poli_8sides 6_whiteLine3.jpg	MediumLong_b10_cut2_L_stereo_44KHz.wav
1	91	4	4	2	I	2	0	843	0	poli_8sides 7_whiteLine3.jpg	Medium_e21_stereo_44KHz.wav
1	92	2	2	1	C	1	0	605	0	poli_8sides 12_whiteLine3.jpg	Medium_e01_cut1_stereo_44KHz.wav
1	93	1	2	0	C	1	1	822	1	poli_8sides 6_whiteLine3.jpg	Medium_e01_cut1_stereo_44KHz.wav
1	94	3	3	2	I	2	0	624	1	poli_8sides 4_whiteLine3.jpg	Medium_e26_stereo_44KHz.wav
1	95	4	3	2	I	1	0	609	1	poli_8sides 7_whiteLine3.jpg	Medium_e26_stereo_44KHz.wav
1	96	2	1	0	C	1	1	1035	1	poli_8sides 12_whiteLine3.jpg	MediumLong_b10_cut2_L_stereo_44KHz.wav
1	97	1	2	0	C	1	1	1054	1	poli_8sides 6_whiteLine3.jpg	Medium_e01_cut1_stereo_44KHz.wav
1	98	3	4	2	I	1	0	806	0	poli_8sides 4_whiteLine3.jpg	Medium_e21_stereo_44KHz.wav
1	99	4	4	2	I	1	0	628	1	poli_8sides 7_whiteLine3.jpg	Medium_e21_stereo_44KHz.wav
1	100	2	2	1	C	2	1	577	1	poli_8sides 12_whiteLine3.jpg	Medium_e01_cut1_stereo_44KHz.wav
1	101	3	3	2	I	2	0	592	0	poli_8sides 4_whiteLine3.jpg	Medium_e26_stereo_44KHz.wav
1	102	2	1	0	C	1	1	680	1	poli_8sides 12_whiteLine3.jpg	MediumLong_b10_cut2_L_stereo_44KHz.wav
1	103	4	3	2	I	2	0	375	1	poli_8sides 7_whiteLine3.jpg	Medium_e26_stereo_44KHz.wav
1	104	1	1	1	C	2	1	569	1	poli_8sides 6_whiteLine3.jpg	MediumLong_b10_cut2_L_stereo_44KHz.wav
1	105	4	4	2	I	2	0	502	0	poli_8sides 7_whiteLine3.jpg	Medium_e21_stereo_44KHz.wav
1	106	1	1	1	C	1	0	486	0	poli_8sides 6_whiteLine3.jpg	MediumLong_b10_cut2_L_stereo_44KHz.wav
1	107	3	4	2	I	2	0	395	0	poli_8sides 4_whiteLine3.jpg	Medium_e21_stereo_44KHz.wav
1	108	2	1	0	C	1	1	681	1	poli_8sides 12_whiteLine3.jpg	MediumLong_b10_cut2_L_stereo_44KHz.wav
1	109	4	3	2	I	1	0	499	1	poli_8sides 7_whiteLine3.jpg	Medium_e26_stereo_44KHz.wav
1	110	1	2	0	C	2	0	480	0	poli_8sides 6_whiteLine3.jpg	Medium_e01_cut1_stereo_44KHz.wav
1	111	3	3	2	I	1	0	557	1	poli_8sides 4_whiteLine3.jpg	Medium_e26_stereo_44KHz.wav
1	112	2	2	1	C	2	1	354	1	poli_8sides 12_whiteLine3.jpg	Medium_e01_cut1_stereo_44KHz.wav
1	113	4	3	2	I	1	0	706	0	poli_8sides 7_whiteLine3.jpg	Medium_e26_stereo_44KHz.wav
1	114	2	2	1	C	1	0	625	0	poli_8sides 12_whiteLine3.jpg	Medium_e01_cut1_stereo_44KHz.wav
1	115	3	4	2	I	2	0	710	0	poli_8sides 4_whiteLine3.jpg	Medium_e21_stereo_44KHz.wav
1	116	1	1	1	C	1	0	1024	0	poli_8sides 6_whiteLine3.jpg	MediumLong_b10_cut2_L_stereo_44KHz.wav
1	117	3	3	2	I	2	0	655	1	poli_8sides 4_whiteLine3.jpg	Medium_e26_stereo_44KHz.wav
1	118	2	1	0	C	2	0	634	0	poli_8sides 12_whiteLine3.jpg	MediumLong_b10_cut2_L_stereo_44KHz.wav
1	119	1	2	0	C	1	1	750	1	poli_8sides 6_whiteLine3.jpg	Medium_e01_cut1_stereo_44KHz.wav
1	120	4	4	2	I	2	0	937	0	poli_8sides 7_whiteLine3.jpg	Medium_e21_stereo_44KHz.wav
1	121	1	2	0	C	1	1	465	1	poli_8sides 6_whiteLine3.jpg	Medium_e01_cut1_stereo_44KHz.wav
1	122	2	2	1	C	2	1	759	1	poli_8sides 12_whiteLine3.jpg	Medium_e01_cut1_stereo_44KHz.wav
1	123	4	3	2	I	1	0	469	1	poli_8sides 7_whiteLine3.jpg	Medium_e26_stereo_44KHz.wav
1	124	3	3	2	I	1	0	497	0	poli_8sides 4_whiteLine3.jpg	Medium_e26_stereo_44KHz.wav
1	125	4	4	2	I	1	0	476	1	poli_8sides 7_whiteLine3.jpg	Medium_e21_stereo_44KHz.wav
1	126	3	4	2	I	1	0	478	0	poli_8sides 4_whiteLine3.jpg	Medium_e21_stereo_44KHz.wav
1	127	2	1	0	C	2	0	316	0	poli_8sides 12_whiteLine3.jpg	MediumLong_b10_cut2_L_stereo_44KHz.wav
1	128	1	1	1	C	1	0	713	0	poli_8sides 6_whiteLine3.jpg	MediumLong_b10_cut2_L_stereo_44KHz.wav
1	129	3	3	2	I	2	0	442	0	poli_8sides 4_whiteLine3.jpg	Medium_e26_stereo_44KHz.wav
1	130	4	3	2	I	2	0	468	0	poli_8sides 7_whiteLine3.jpg	Medium_e26_stereo_44KHz.wav
1	131	2	1	0	C	2	0	714	0	poli_8sides 12_whiteLine3.jpg	MediumLong_b10_cut2_L_stereo_44KHz.wav
1	132	1	1	1	C	1	0	232	0	poli_8sides 6_whiteLine3.jpg	MediumLong_b10_cut2_L_stereo_44KHz.wav
1	133	3	4	2	I	2	0	309	0	poli_8sides 4_whiteLine3.jpg	Medium_e21_stereo_44KHz.wav
1	134	2	2	1	C	1	0	867	0	poli_8sides 12_whiteLine3.jpg	Medium_e01_cut1_stereo_44KHz.wav
1	135	4	4	2	I	1	0	696	1	poli_8sides 7_whiteLine3.jpg	Medium_e21_stereo_44KHz.wav
1	136	1	2	0	C	2	0	648	0	poli_8sides 6_whiteLine3.jpg	Medium_e01_cut1_stereo_44KHz.wav
1	137	4	3	2	I	1	0	498	0	poli_8sides 7_whiteLine3.jpg	Medium_e26_stereo_44KHz.wav
1	138	3	3	2	I	1	0	1112	1	poli_8sides 4_whiteLine3.jpg	Medium_e26_stereo_44KHz.wav
1	139	1	1	1	C	2	1	814	1	poli_8sides 6_whiteLine3.jpg	MediumLong_b10_cut2_L_stereo_44KHz.wav
1	140	2	2	1	C	2	1	793	1	poli_8sides 12_whiteLine3.jpg	Medium_e01_cut1_stereo_44KHz.wav
1	141	1	2	0	C	1	1	959	1	poli_8sides 6_whiteLine3.jpg	Medium_e01_cut1_stereo_44KHz.wav
1	142	4	4	2	I	1	0	1028	1	poli_8sides 7_whiteLine3.jpg	Medium_e21_stereo_44KHz.wav
1	143	3	4	2	I	1	0	897	1	poli_8sides 4_whiteLine3.jpg	Medium_e21_stereo_44KHz.wav
1	144	2	1	0	C	2	0	932	0	poli_8sides 12_whiteLine3.jpg	MediumLong_b10_cut2_L_stereo_44KHz.wav
1	145	4	4	2	I	1	0	848	1	poli_8sides 7_whiteLine3.jpg	Medium_e21_stereo_44KHz.wav
1	146	2	2	1	C	2	1	865	1	poli_8sides 12_whiteLine3.jpg	Medium_e01_cut1_stereo_44KHz.wav
1	147	3	4	2	I	1	0	693	1	poli_8sides 4_whiteLine3.jpg	Medium_e21_stereo_44KHz.wav
1	148	1	2	0	C	2	0	627	0	poli_8sides 6_whiteLine3.jpg	Medium_e01_cut1_stereo_44KHz.wav
1	149	2	1	0	C	2	0	860	0	poli_8sides 12_whiteLine3.jpg	MediumLong_b10_cut2_L_stereo_44KHz.wav
1	150	3	3	2	I	1	0	855	0	poli_8sides 4_whiteLine3.jpg	Medium_e26_stereo_44KHz.wav
1	151	4	3	2	I	1	0	538	0	poli_8sides 7_whiteLine3.jpg	Medium_e26_stereo_44KHz.wav
1	152	1	1	1	C	1	0	745	0	poli_8sides 6_whiteLine3.jpg	MediumLong_b10_cut2_L_stereo_44KHz.wav
1	153	3	3	2	I	1	0	736	1	poli_8sides 4_whiteLine3.jpg	Medium_e26_stereo_44KHz.wav
1	154	4	4	2	I	1	0	1092	1	poli_8sides 7_whiteLine3.jpg	Medium_e21_stereo_44KHz.wav
1	155	1	1	1	C	2	1	562	1	poli_8sides 6_whiteLine3.jpg	MediumLong_b10_cut2_L_stereo_44KHz.wav
1	156	2	1	0	C	2	0	711	0	poli_8sides 12_whiteLine3.jpg	MediumLong_b10_cut2_L_stereo_44KHz.wav
1	157	1	2	0	C	1	1	833	1	poli_8sides 6_whiteLine3.jpg	Medium_e01_cut1_stereo_44KHz.wav
1	158	3	4	2	I	1	0	719	0	poli_8sides 4_whiteLine3.jpg	Medium_e21_stereo_44KHz.wav
1	159	4	3	2	I	1	0	675	1	poli_8sides 7_whiteLine3.jpg	Medium_e26_stereo_44KHz.wav
1	160	2	2	1	C	1	0	892	0	poli_8sides 12_whiteLine3.jpg	Medium_e01_cut1_stereo_44KHz.wav
1	161	4	3	2	I	1	0	701	1	poli_8sides 7_whiteLine3.jpg	Medium_e26_stereo_44KHz.wav
1	162	2	1	0	C	2	0	1007	0	poli_8sides 12_whiteLine3.jpg	MediumLong_b10_cut2_L_stereo_44KHz.wav
1	163	1	1	1	C	1	0	1960	0	poli_8sides 6_whiteLine3.jpg	MediumLong_b10_cut2_L_stereo_44KHz.wav
1	164	3	3	2	I	1	0	736	0	poli_8sides 4_whiteLine3.jpg	Medium_e26_stereo_44KHz.wav
1	165	1	2	0	C	2	0	767	0	poli_8sides 6_whiteLine3.jpg	Medium_e01_cut1_stereo_44KHz.wav
1	166	2	2	1	C	1	0	601	0	poli_8sides 12_whiteLine3.jpg	Medium_e01_cut1_stereo_44KHz.wav
1	167	3	4	2	I	1	0	541	0	poli_8sides 4_whiteLine3.jpg	Medium_e21_stereo_44KHz.wav
1	168	4	4	2	I	1	0	401	0	poli_8sides 7_whiteLine3.jpg	Medium_e21_stereo_44KHz.wav
1	169	1	2	0	C	2	0	593	0	poli_8sides 6_whiteLine3.jpg	Medium_e01_cut1_stereo_44KHz.wav
1	170	2	1	0	C	1	1	538	1	poli_8sides 12_whiteLine3.jpg	MediumLong_b10_cut2_L_stereo_44KHz.wav
1	171	3	3	2	I	1	0	509	1	poli_8sides 4_whiteLine3.jpg	Medium_e26_stereo_44KHz.wav
1	172	4	4	2	I	1	0	492	0	poli_8sides 7_whiteLine3.jpg	Medium_e21_stereo_44KHz.wav
1	173	3	4	2	I	2	0	322	1	poli_8sides 4_whiteLine3.jpg	Medium_e21_stereo_44KHz.wav
1	174	2	2	1	C	2	1	396	1	poli_8sides 12_whiteLine3.jpg	Medium_e01_cut1_stereo_44KHz.wav
1	175	4	3	2	I	1	0	611	1	poli_8sides 7_whiteLine3.jpg	Medium_e26_stereo_44KHz.wav
1	176	1	1	1	C	2	1	606	1	poli_8sides 6_whiteLine3.jpg	MediumLong_b10_cut2_L_stereo_44KHz.wav
1	177	2	1	0	C	2	0	571	0	poli_8sides 12_whiteLine3.jpg	MediumLong_b10_cut2_L_stereo_44KHz.wav
1	178	3	3	2	I	1	0	446	0	poli_8sides 4_whiteLine3.jpg	Medium_e26_stereo_44KHz.wav
1	179	1	2	0	C	1	1	401	1	poli_8sides 6_whiteLine3.jpg	Medium_e01_cut1_stereo_44KHz.wav
1	180	4	4	2	I	1	0	715	1	poli_8sides 7_whiteLine3.jpg	Medium_e21_stereo_44KHz.wav
1	181	3	4	2	I	2	0	756	1	poli_8sides 4_whiteLine3.jpg	Medium_e21_stereo_44KHz.wav
1	182	1	1	1	C	2	1	644	1	poli_8sides 6_whiteLine3.jpg	MediumLong_b10_cut2_L_stereo_44KHz.wav
1	183	4	3	2	I	2	0	790	0	poli_8sides 7_whiteLine3.jpg	Medium_e26_stereo_44KHz.wav
1	184	2	2	1	C	1	0	628	0	poli_8sides 12_whiteLine3.jpg	Medium_e01_cut1_stereo_44KHz.wav
1	185	3	3	2	I	1	0	929	0	poli_8sides 4_whiteLine3.jpg	Medium_e26_stereo_44KHz.wav
1	186	4	4	2	I	1	0	785	1	poli_8sides 7_whiteLine3.jpg	Medium_e21_stereo_44KHz.wav
1	187	1	2	0	C	2	0	597	0	poli_8sides 6_whiteLine3.jpg	Medium_e01_cut1_stereo_44KHz.wav
1	188	2	2	1	C	2	1	547	1	poli_8sides 12_whiteLine3.jpg	Medium_e01_cut1_stereo_44KHz.wav
1	189	1	1	1	C	2	1	514	1	poli_8sides 6_whiteLine3.jpg	MediumLong_b10_cut2_L_stereo_44KHz.wav
1	190	3	4	2	I	1	0	568	1	poli_8sides 4_whiteLine3.jpg	Medium_e21_stereo_44KHz.wav
1	191	2	1	0	C	1	1	594	1	poli_8sides 12_whiteLine3.jpg	MediumLong_b10_cut2_L_stereo_44KHz.wav
1	192	4	3	2	I	2	0	540	0	poli_8sides 7_whiteLine3.jpg	Medium_e26_stereo_44KHz.wav
1	193	1	2	0	C	1	1	634	1	poli_8sides 6_whiteLine3.jpg	Medium_e01_cut1_stereo_44KHz.wav
1	194	4	3	2	I	1	0	640	1	poli_8sides 7_whiteLine3.jpg	Medium_e26_stereo_44KHz.wav
1	195	2	1	0	C	2	0	537	0	poli_8sides 12_whiteLine3.jpg	MediumLong_b10_cut2_L_stereo_44KHz.wav
1	196	3	4	2	I	1	0	420	0	poli_8sides 4_whiteLine3.jpg	Medium_e21_stereo_44KHz.wav
1	197	1	1	1	C	2	1	323	1	poli_8sides 6_whiteLine3.jpg	MediumLong_b10_cut2_L_stereo_44KHz.wav
1	198	3	3	2	I	1	0	607	1	poli_8sides 4_whiteLine3.jpg	Medium_e26_stereo_44KHz.wav
1	199	4	4	2	I	1	0	697	1	poli_8sides 7_whiteLine3.jpg	Medium_e21_stereo_44KHz.wav
1	200	2	2	1	C	2	1	455	1	poli_8sides 12_whiteLine3.jpg	Medium_e01_cut1_stereo_44KHz.wav
2	1	2	2	1	C	1	0	1185	0	poli_8sides 3_whiteLine3.jpg	MediumLong_e17_cut2_stereo_44KHz.wav
2	2	4	4	2	I	2	0	738	1	poli_8sides 16_whiteLine3.jpg	Medium_e13_stereo_44KHz.wav
2	3	3	3	2	I	2	0	922	0	poli_8sides 9_whiteLine3.jpg	MediumLong_e19_stereo_44KHz.wav
2	4	1	2	0	C	2	0	727	0	poli_8sides 2_whiteLine3.jpg	MediumLong_e17_cut2_stereo_44KHz.wav
2	5	3	4	2	I	2	0	797	0	poli_8sides 9_whiteLine3.jpg	Medium_e13_stereo_44KHz.wav
2	6	2	1	0	C	1	1	519	1	poli_8sides 3_whiteLine3.jpg	MediumLong_e04_stereo_44KHz.wav
2	7	4	3	2	I	1	0	917	1	poli_8sides 16_whiteLine3.jpg	MediumLong_e19_stereo_44KHz.wav
2	8	1	1	1	C	2	1	1058	1	poli_8sides 2_whiteLine3.jpg	MediumLong_e04_stereo_44KHz.wav
2	9	4	4	2	I	1	0	999	0	poli_8sides 16_whiteLine3.jpg	Medium_e13_stereo_44KHz.wav
2	10	2	1	0	C	2	0	1097	0	poli_8sides 3_whiteLine3.jpg	MediumLong_e04_stereo_44KHz.wav
2	11	1	2	0	C	2	0	939	0	poli_8sides 2_whiteLine3.jpg	MediumLong_e17_cut2_stereo_44KHz.wav
2	12	3	4	2	I	2	0	733	1	poli_8sides 9_whiteLine3.jpg	Medium_e13_stereo_44KHz.wav
2	13	2	2	1	C	0	0	0	0	poli_8sides 3_whiteLine3.jpg	MediumLong_e17_cut2_stereo_44KHz.wav
2	14	4	3	2	I	1	0	778	1	poli_8sides 16_whiteLine3.jpg	MediumLong_e19_stereo_44KHz.wav
2	15	3	3	2	I	2	0	894	0	poli_8sides 9_whiteLine3.jpg	MediumLong_e19_stereo_44KHz.wav
2	16	1	1	1	C	2	1	1015	1	poli_8sides 2_whiteLine3.jpg	MediumLong_e04_stereo_44KHz.wav
2	17	2	2	1	C	2	1	948	1	poli_8sides 3_whiteLine3.jpg	MediumLong_e17_cut2_stereo_44KHz.wav
2	18	1	1	1	C	1	0	836	0	poli_8sides 2_whiteLine3.jpg	MediumLong_e04_stereo_44KHz.wav
2	19	4	3	2	I	2	0	1041	0	poli_8sides 16_whiteLine3.jpg	MediumLong_e19_stereo_44KHz.wav
2	20	3	3	2	I	2	0	685	0	poli_8sides 9_whiteLine3.jpg	MediumLong_e19_stereo_44KHz.wav
2	21	1	2	0	C	1	1	917	1	poli_8sides 2_whiteLine3.jpg	MediumLong_e17_cut2_stereo_44KHz.wav
2	22	3	4	2	I	1	0	756	0	poli_8sides 9_whiteLine3.jpg	Medium_e13_stereo_44KHz.wav
2	23	4	4	2	I	2	0	718	1	poli_8sides 16_whiteLine3.jpg	Medium_e13_stereo_44KHz.wav
2	24	2	1	0	C	2	0	869	0	poli_8sides 3_whiteLine3.jpg	MediumLong_e04_stereo_44KHz.wav
2	25	3	3	2	I	2	0	534	1	poli_8sides 9_whiteLine3.jpg	MediumLong_e19_stereo_44KHz.wav
2	26	2	2	1	C	1	0	668	0	poli_8sides 3_whiteLine3.jpg	MediumLong_e17_cut2_stereo_44KHz.wav
2	27	1	1	1	C	2	1	616	1	poli_8sides 2_whiteLine3.jpg	MediumLong_e04_stereo_44KHz.wav
2	28	4	4	2	I	1	0	615	1	poli_8sides 16_whiteLine3.jpg	Medium_e13_stereo_44KHz.wav
2	29	3	4	2	I	1	0	630	0	poli_8sides 9_whiteLine3.jpg	Medium_e13_stereo_44KHz.wav
2	30	4	3	2	I	1	0	496	1	poli_8sides 16_whiteLine3.jpg	MediumLong_e19_stereo_44KHz.wav
2	31	1	2	0	C	2	0	651	0	poli_8sides 2_whiteLine3.jpg	MediumLong_e17_cut2_stereo_44KHz.wav
2	32	2	1	0	C	1	1	885	1	poli_8sides 3_whiteLine3.jpg	MediumLong_e04_stereo_44KHz.wav
2	33	4	3	2	I	1	0	694	0	poli_8sides 16_whiteLine3.jpg	MediumLong_e19_stereo_44KHz.wav
2	34	1	1	1	C	2	1	1072	1	poli_8sides 2_whiteLine3.jpg	MediumLong_e04_stereo_44KHz.wav
2	35	2	2	1	C	1	0	884	0	poli_8sides 3_whiteLine3.jpg	MediumLong_e17_cut2_stereo_44KHz.wav
2	36	3	4	2	I	1	0	639	0	poli_8sides 9_whiteLine3.jpg	Medium_e13_stereo_44KHz.wav
2	37	2	1	0	C	1	1	827	1	poli_8sides 3_whiteLine3.jpg	MediumLong_e04_stereo_44KHz.wav
2	38	3	3	2	I	1	0	487	1	poli_8sides 9_whiteLine3.jpg	MediumLong_e19_stereo_44KHz.wav
2	39	1	2	0	C	1	1	584	1	poli_8sides 2_whiteLine3.jpg	MediumLong_e17_cut2_stereo_44KHz.wav
2	40	4	4	2	I	1	0	585	0	poli_8sides 16_whiteLine3.jpg	Medium_e13_stereo_44KHz.wav
2	41	3	4	2	I	2	0	647	0	poli_8sides 9_whiteLine3.jpg	Medium_e13_stereo_44KHz.wav
2	42	2	2	1	C	1	0	479	0	poli_8sides 3_whiteLine3.jpg	MediumLong_e17_cut2_stereo_44KHz.wav
2	43	1	2	0	C	1	1	509	1	poli_8sides 2_whiteLine3.jpg	MediumLong_e17_cut2_stereo_44KHz.wav
2	44	4	3	2	I	1	0	729	1	poli_8sides 16_whiteLine3.jpg	MediumLong_e19_stereo_44KHz.wav
2	45	2	1	0	C	1	1	815	1	poli_8sides 3_whiteLine3.jpg	MediumLong_e04_stereo_44KHz.wav
2	46	1	1	1	C	1	0	758	0	poli_8sides 2_whiteLine3.jpg	MediumLong_e04_stereo_44KHz.wav
2	47	3	3	2	I	1	0	666	1	poli_8sides 9_whiteLine3.jpg	MediumLong_e19_stereo_44KHz.wav
2	48	4	4	2	I	1	0	740	0	poli_8sides 16_whiteLine3.jpg	Medium_e13_stereo_44KHz.wav
2	49	2	1	0	C	1	1	733	1	poli_8sides 3_whiteLine3.jpg	MediumLong_e04_stereo_44KHz.wav
2	50	3	4	2	I	2	0	578	1	poli_8sides 9_whiteLine3.jpg	Medium_e13_stereo_44KHz.wav
2	51	1	2	0	C	1	1	741	1	poli_8sides 2_whiteLine3.jpg	MediumLong_e17_cut2_stereo_44KHz.wav
2	52	4	3	2	I	1	0	716	0	poli_8sides 16_whiteLine3.jpg	MediumLong_e19_stereo_44KHz.wav
2	53	1	1	1	C	1	0	523	0	poli_8sides 2_whiteLine3.jpg	MediumLong_e04_stereo_44KHz.wav
2	54	2	2	1	C	2	1	530	1	poli_8sides 3_whiteLine3.jpg	MediumLong_e17_cut2_stereo_44KHz.wav
2	55	3	3	2	I	2	0	561	1	poli_8sides 9_whiteLine3.jpg	MediumLong_e19_stereo_44KHz.wav
2	56	4	4	2	I	1	0	631	0	poli_8sides 16_whiteLine3.jpg	Medium_e13_stereo_44KHz.wav
2	57	2	2	1	C	1	0	696	0	poli_8sides 3_whiteLine3.jpg	MediumLong_e17_cut2_stereo_44KHz.wav
2	58	4	4	2	I	2	0	927	0	poli_8sides 16_whiteLine3.jpg	Medium_e13_stereo_44KHz.wav
2	59	1	2	0	C	1	1	643	1	poli_8sides 2_whiteLine3.jpg	MediumLong_e17_cut2_stereo_44KHz.wav
2	60	3	3	2	I	1	0	448	1	poli_8sides 9_whiteLine3.jpg	MediumLong_e19_stereo_44KHz.wav
2	61	4	3	2	I	2	0	714	0	poli_8sides 16_whiteLine3.jpg	MediumLong_e19_stereo_44KHz.wav
2	62	3	4	2	I	1	0	519	0	poli_8sides 9_whiteLine3.jpg	Medium_e13_stereo_44KHz.wav
2	63	1	1	1	C	1	0	576	0	poli_8sides 2_whiteLine3.jpg	MediumLong_e04_stereo_44KHz.wav
2	64	2	1	0	C	1	1	431	1	poli_8sides 3_whiteLine3.jpg	MediumLong_e04_stereo_44KHz.wav
2	65	3	3	2	I	1	0	621	0	poli_8sides 9_whiteLine3.jpg	MediumLong_e19_stereo_44KHz.wav
2	66	4	4	2	I	1	0	416	1	poli_8sides 16_whiteLine3.jpg	Medium_e13_stereo_44KHz.wav
2	67	2	2	1	C	1	0	834	0	poli_8sides 3_whiteLine3.jpg	MediumLong_e17_cut2_stereo_44KHz.wav
2	68	1	2	0	C	2	0	318	0	poli_8sides 2_whiteLine3.jpg	MediumLong_e17_cut2_stereo_44KHz.wav
2	69	4	3	2	I	1	0	428	1	poli_8sides 16_whiteLine3.jpg	MediumLong_e19_stereo_44KHz.wav
2	70	1	1	1	C	1	0	848	0	poli_8sides 2_whiteLine3.jpg	MediumLong_e04_stereo_44KHz.wav
2	71	3	4	2	I	2	0	496	1	poli_8sides 9_whiteLine3.jpg	Medium_e13_stereo_44KHz.wav
2	72	2	1	0	C	2	0	825	0	poli_8sides 3_whiteLine3.jpg	MediumLong_e04_stereo_44KHz.wav
2	73	1	2	0	C	1	1	679	1	poli_8sides 2_whiteLine3.jpg	MediumLong_e17_cut2_stereo_44KHz.wav
2	74	4	3	2	I	1	0	457	1	poli_8sides 16_whiteLine3.jpg	MediumLong_e19_stereo_44KHz.wav
2	75	3	3	2	I	1	0	512	0	poli_8sides 9_whiteLine3.jpg	MediumLong_e19_stereo_44KHz.wav
2	76	2	2	1	C	2	1	413	1	poli_8sides 3_whiteLine3.jpg	MediumLong_e17_cut2_stereo_44KHz.wav
2	77	1	1	1	C	2	1	680	1	poli_8sides 2_whiteLine3.jpg	MediumLong_e04_stereo_44KHz.wav
2	78	4	4	2	I	2	0	638	0	poli_8sides 16_whiteLine3.jpg	Medium_e13_stereo_44KHz.wav
2	79	2	1	0	C	1	1	593	1	poli_8sides 3_whiteLine3.jpg	MediumLong_e04_stereo_44KHz.wav
2	80	3	4	2	I	1	0	577	0	poli_8sides 9_whiteLine3.jpg	Medium_e13_stereo_44KHz.wav
2	81	4	3	2	I	1	0	386	0	poli_8sides 16_whiteLine3.jpg	MediumLong_e19_stereo_44KHz.wav
2	82	1	1	1	C	1	0	472	0	poli_8sides 2_whiteLine3.jpg	MediumLong_e04_stereo_44KHz.wav
2	83	2	1	0	C	2	0	474	0	poli_8sides 3_whiteLine3.jpg	MediumLong_e04_stereo_44KHz.wav
2	84	3	4	2	I	1	0	483	1	poli_8sides 9_whiteLine3.jpg	Medium_e13_stereo_44KHz.wav
2	85	1	2	0	C	1	1	874	1	poli_8sides 2_whiteLine3.jpg	MediumLong_e17_cut2_stereo_44KHz.wav
2	86	2	2	1	C	1	0	673	0	poli_8sides 3_whiteLine3.jpg	MediumLong_e17_cut2_stereo_44KHz.wav
2	87	4	4	2	I	2	0	403	0	poli_8sides 16_whiteLine3.jpg	Medium_e13_stereo_44KHz.wav
2	88	3	3	2	I	2	0	282	1	poli_8sides 9_whiteLine3.jpg	MediumLong_e19_stereo_44KHz.wav
2	89	1	1	1	C	2	1	756	1	poli_8sides 2_whiteLine3.jpg	MediumLong_e04_stereo_44KHz.wav
2	90	2	1	0	C	2	0	578	0	poli_8sides 3_whiteLine3.jpg	MediumLong_e04_stereo_44KHz.wav
2	91	4	3	2	I	2	0	677	0	poli_8sides 16_whiteLine3.jpg	MediumLong_e19_stereo_44KHz.wav
2	92	3	4	2	I	1	0	392	1	poli_8sides 9_whiteLine3.jpg	Medium_e13_stereo_44KHz.wav
2	93	2	2	1	C	1	0	777	0	poli_8sides 3_whiteLine3.jpg	MediumLong_e17_cut2_stereo_44KHz.wav
2	94	1	2	0	C	1	1	661	1	poli_8sides 2_whiteLine3.jpg	MediumLong_e17_cut2_stereo_44KHz.wav
2	95	4	4	2	I	2	0	509	0	poli_8sides 16_whiteLine3.jpg	Medium_e13_stereo_44KHz.wav
2	96	3	3	2	I	1	0	462	0	poli_8sides 9_whiteLine3.jpg	MediumLong_e19_stereo_44KHz.wav
2	97	4	4	2	I	2	0	463	0	poli_8sides 16_whiteLine3.jpg	Medium_e13_stereo_44KHz.wav
2	98	2	2	1	C	1	0	345	0	poli_8sides 3_whiteLine3.jpg	MediumLong_e17_cut2_stereo_44KHz.wav
2	99	3	3	2	I	2	0	390	1	poli_8sides 9_whiteLine3.jpg	MediumLong_e19_stereo_44KHz.wav
2	100	1	1	1	C	2	1	632	1	poli_8sides 2_whiteLine3.jpg	MediumLong_e04_stereo_44KHz.wav
2	101	2	1	0	C	2	0	585	0	poli_8sides 3_whiteLine3.jpg	MediumLong_e04_stereo_44KHz.wav
2	102	1	2	0	C	1	1	655	1	poli_8sides 2_whiteLine3.jpg	MediumLong_e17_cut2_stereo_44KHz.wav
2	103	3	4	2	I	1	0	744	1	poli_8sides 9_whiteLine3.jpg	Medium_e13_stereo_44KHz.wav
2	104	4	3	2	I	1	0	689	1	poli_8sides 16_whiteLine3.jpg	MediumLong_e19_stereo_44KHz.wav
2	105	2	1	0	C	2	0	591	0	poli_8sides 3_whiteLine3.jpg	MediumLong_e04_stereo_44KHz.wav
2	106	4	4	2	I	2	0	622	0	poli_8sides 16_whiteLine3.jpg	Medium_e13_stereo_44KHz.wav
2	107	3	3	2	I	1	0	714	0	poli_8sides 9_whiteLine3.jpg	MediumLong_e19_stereo_44KHz.wav
2	108	1	1	1	C	1	0	736	0	poli_8sides 2_whiteLine3.jpg	MediumLong_e04_stereo_44KHz.wav
2	109	3	4	2	I	2	0	355	1	poli_8sides 9_whiteLine3.jpg	Medium_e13_stereo_44KHz.wav
2	110	1	2	0	C	2	0	626	0	poli_8sides 2_whiteLine3.jpg	MediumLong_e17_cut2_stereo_44KHz.wav
2	111	4	3	2	I	1	0	485	1	poli_8sides 16_whiteLine3.jpg	MediumLong_e19_stereo_44KHz.wav
2	112	2	2	1	C	1	0	1015	0	poli_8sides 3_whiteLine3.jpg	MediumLong_e17_cut2_stereo_44KHz.wav
2	113	1	1	1	C	2	1	473	1	poli_8sides 2_whiteLine3.jpg	MediumLong_e04_stereo_44KHz.wav
2	114	2	2	1	C	2	1	638	1	poli_8sides 3_whiteLine3.jpg	MediumLong_e17_cut2_stereo_44KHz.wav
2	115	4	3	2	I	1	0	652	1	poli_8sides 16_whiteLine3.jpg	MediumLong_e19_stereo_44KHz.wav
2	116	3	4	2	I	1	0	560	0	poli_8sides 9_whiteLine3.jpg	Medium_e13_stereo_44KHz.wav
2	117	1	2	0	C	1	1	397	1	poli_8sides 2_whiteLine3.jpg	MediumLong_e17_cut2_stereo_44KHz.wav
2	118	4	4	2	I	1	0	649	1	poli_8sides 16_whiteLine3.jpg	Medium_e13_stereo_44KHz.wav
2	119	2	1	0	C	2	0	581	0	poli_8sides 3_whiteLine3.jpg	MediumLong_e04_stereo_44KHz.wav
2	120	3	3	2	I	1	0	382	1	poli_8sides 9_whiteLine3.jpg	MediumLong_e19_stereo_44KHz.wav
2	121	2	2	1	C	1	0	764	0	poli_8sides 3_whiteLine3.jpg	MediumLong_e17_cut2_stereo_44KHz.wav
2	122	4	3	2	I	2	0	427	1	poli_8sides 16_whiteLine3.jpg	MediumLong_e19_stereo_44KHz.wav
2	123	1	1	1	C	2	1	575	1	poli_8sides 2_whiteLine3.jpg	MediumLong_e04_stereo_44KHz.wav
2	124	3	3	2	I	2	0	589	1	poli_8sides 9_whiteLine3.jpg	MediumLong_e19_stereo_44KHz.wav
2	125	4	4	2	I	2	0	563	1	poli_8sides 16_whiteLine3.jpg	Medium_e13_stereo_44KHz.wav
2	126	2	1	0	C	2	0	571	0	poli_8sides 3_whiteLine3.jpg	MediumLong_e04_stereo_44KHz.wav
2	127	3	4	2	I	2	0	756	1	poli_8sides 9_whiteLine3.jpg	Medium_e13_stereo_44KHz.wav
2	128	1	2	0	C	1	1	1015	1	poli_8sides 2_whiteLine3.jpg	MediumLong_e17_cut2_stereo_44KHz.wav
2	129	4	3	2	I	2	0	635	1	poli_8sides 16_whiteLine3.jpg	MediumLong_e19_stereo_44KHz.wav
2	130	3	4	2	I	2	0	935	0	poli_8sides 9_whiteLine3.jpg	Medium_e13_stereo_44KHz.wav
2	131	2	1	0	C	2	0	830	0	poli_8sides 3_whiteLine3.jpg	MediumLong_e04_stereo_44KHz.wav
2	132	1	1	1	C	2	1	1002	1	poli_8sides 2_whiteLine3.jpg	MediumLong_e04_stereo_44KHz.wav
2	133	3	3	2	I	2	0	787	0	poli_8sides 9_whiteLine3.jpg	MediumLong_e19_stereo_44KHz.wav
2	134	1	2	0	C	2	0	441	0	poli_8sides 2_whiteLine3.jpg	MediumLong_e17_cut2_stereo_44KHz.wav
2	135	4	4	2	I	1	0	509	1	poli_8sides 16_whiteLine3.jpg	Medium_e13_stereo_44KHz.wav
2	136	2	2	1	C	1	0	822	0	poli_8sides 3_whiteLine3.jpg	MediumLong_e17_cut2_stereo_44KHz.wav
2	137	3	3	2	I	2	0	537	1	poli_8sides 9_whiteLine3.jpg	MediumLong_e19_stereo_44KHz.wav
2	138	2	2	1	C	2	1	322	1	poli_8sides 3_whiteLine3.jpg	MediumLong_e17_cut2_stereo_44KHz.wav
2	139	1	1	1	C	2	1	941	1	poli_8sides 2_whiteLine3.jpg	MediumLong_e04_stereo_44KHz.wav
2	140	4	4	2	I	2	0	561	0	poli_8sides 16_whiteLine3.jpg	Medium_e13_stereo_44KHz.wav
2	141	3	4	2	I	1	0	345	0	poli_8sides 9_whiteLine3.jpg	Medium_e13_stereo_44KHz.wav
2	142	4	3	2	I	2	0	441	1	poli_8sides 16_whiteLine3.jpg	MediumLong_e19_stereo_44KHz.wav
2	143	2	1	0	C	1	1	770	1	poli_8sides 3_whiteLine3.jpg	MediumLong_e04_stereo_44KHz.wav
2	144	1	2	0	C	2	0	744	0	poli_8sides 2_whiteLine3.jpg	MediumLong_e17_cut2_stereo_44KHz.wav
2	145	3	4	2	I	1	0	547	1	poli_8sides 9_whiteLine3.jpg	Medium_e13_stereo_44KHz.wav
2	146	2	2	1	C	1	0	764	0	poli_8sides 3_whiteLine3.jpg	MediumLong_e17_cut2_stereo_44KHz.wav
2	147	4	3	2	I	1	0	301	1	poli_8sides 16_whiteLine3.jpg	MediumLong_e19_stereo_44KHz.wav
2	148	1	1	1	C	1	0	475	0	poli_8sides 2_whiteLine3.jpg	MediumLong_e04_stereo_44KHz.wav
2	149	3	3	2	I	2	0	704	0	poli_8sides 9_whiteLine3.jpg	MediumLong_e19_stereo_44KHz.wav
2	150	1	2	0	C	1	1	512	1	poli_8sides 2_whiteLine3.jpg	MediumLong_e17_cut2_stereo_44KHz.wav
2	151	2	1	0	C	1	1	640	1	poli_8sides 3_whiteLine3.jpg	MediumLong_e04_stereo_44KHz.wav
2	152	4	4	2	I	1	0	629	1	poli_8sides 16_whiteLine3.jpg	Medium_e13_stereo_44KHz.wav
2	153	1	1	1	C	1	0	574	0	poli_8sides 2_whiteLine3.jpg	MediumLong_e04_stereo_44KHz.wav
2	154	4	3	2	I	2	0	346	0	poli_8sides 16_whiteLine3.jpg	MediumLong_e19_stereo_44KHz.wav
2	155	3	4	2	I	1	0	574	0	poli_8sides 9_whiteLine3.jpg	Medium_e13_stereo_44KHz.wav
2	156	2	2	1	C	2	1	877	1	poli_8sides 3_whiteLine3.jpg	MediumLong_e17_cut2_stereo_44KHz.wav
2	157	4	4	2	I	1	0	568	1	poli_8sides 16_whiteLine3.jpg	Medium_e13_stereo_44KHz.wav
2	158	2	1	0	C	1	1	842	1	poli_8sides 3_whiteLine3.jpg	MediumLong_e04_stereo_44KHz.wav
2	159	1	2	0	C	2	0	613	0	poli_8sides 2_whiteLine3.jpg	MediumLong_e17_cut2_stereo_44KHz.wav
2	160	3	3	2	I	2	0	527	1	poli_8sides 9_whiteLine3.jpg	MediumLong_e19_stereo_44KHz.wav
2	161	2	2	1	C	2	1	647	1	poli_8sides 3_whiteLine3.jpg	MediumLong_e17_cut2_stereo_44KHz.wav
2	162	3	4	2	I	2	0	521	0	poli_8sides 9_whiteLine3.jpg	Medium_e13_stereo_44KHz.wav
2	163	1	1	1	C	1	0	446	0	poli_8sides 2_whiteLine3.jpg	MediumLong_e04_stereo_44KHz.wav
2	164	4	4	2	I	2	0	719	1	poli_8sides 16_whiteLine3.jpg	Medium_e13_stereo_44KHz.wav
2	165	3	3	2	I	1	0	699	0	poli_8sides 9_whiteLine3.jpg	MediumLong_e19_stereo_44KHz.wav
2	166	2	1	0	C	2	0	575	0	poli_8sides 3_whiteLine3.jpg	MediumLong_e04_stereo_44KHz.wav
2	167	4	3	2	I	1	0	465	0	poli_8sides 16_whiteLine3.jpg	MediumLong_e19_stereo_44KHz.wav
2	168	1	2	0	C	1	1	579	1	poli_8sides 2_whiteLine3.jpg	MediumLong_e17_cut2_stereo_44KHz.wav
2	169	2	2	1	C	1	0	750	0	poli_8sides 3_whiteLine3.jpg	MediumLong_e17_cut2_stereo_44KHz.wav
2	170	3	4	2	I	1	0	766	0	poli_8sides 9_whiteLine3.jpg	Medium_e13_stereo_44KHz.wav
2	171	1	2	0	C	2	0	516	0	poli_8sides 2_whiteLine3.jpg	MediumLong_e17_cut2_stereo_44KHz.wav
2	172	4	4	2	I	1	0	504	1	poli_8sides 16_whiteLine3.jpg	Medium_e13_stereo_44KHz.wav
2	173	3	3	2	I	1	0	619	1	poli_8sides 9_whiteLine3.jpg	MediumLong_e19_stereo_44KHz.wav
2	174	2	1	0	C	1	1	810	1	poli_8sides 3_whiteLine3.jpg	MediumLong_e04_stereo_44KHz.wav
2	175	1	1	1	C	1	0	970	0	poli_8sides 2_whiteLine3.jpg	MediumLong_e04_stereo_44KHz.wav
2	176	4	3	2	I	1	0	634	0	poli_8sides 16_whiteLine3.jpg	MediumLong_e19_stereo_44KHz.wav
2	177	3	3	2	I	2	0	569	1	poli_8sides 9_whiteLine3.jpg	MediumLong_e19_stereo_44KHz.wav
2	178	2	1	0	C	1	1	750	1	poli_8sides 3_whiteLine3.jpg	MediumLong_e04_stereo_44KHz.wav
2	179	4	4	2	I	1	0	695	0	poli_8sides 16_whiteLine3.jpg	Medium_e13_stereo_44KHz.wav
2	180	1	1	1	C	1	0	672	0	poli_8sides 2_whiteLine3.jpg	MediumLong_e04_stereo_44KHz.wav
2	181	2	2	1	C	1	0	682	0	poli_8sides 3_whiteLine3.jpg	MediumLong_e17_cut2_stereo_44KHz.wav
2	182	1	2	0	C	2	0	896	0	poli_8sides 2_whiteLine3.jpg	MediumLong_e17_cut2_stereo_44KHz.wav
2	183	4	3	2	I	1	0	851	1	poli_8sides 16_whiteLine3.jpg	MediumLong_e19_stereo_44KHz.wav
2	184	3	4	2	I	1	0	700	0	poli_8sides 9_whiteLine3.jpg	Medium_e13_stereo_44KHz.wav
2	185	1	1	1	C	1	0	660	0	poli_8sides 2_whiteLine3.jpg	MediumLong_e04_stereo_44KHz.wav
2	186	2	1	0	C	1	1	651	1	poli_8sides 3_whiteLine3.jpg	MediumLong_e04_stereo_44KHz.wav
2	187	3	3	2	I	1	0	711	0	poli_8sides 9_whiteLine3.jpg	MediumLong_e19_stereo_44KHz.wav
2	188	4	3	2	I	1	0	575	0	poli_8sides 16_whiteLine3.jpg	MediumLong_e19_stereo_44KHz.wav
2	189	1	2	0	C	1	1	625	1	poli_8sides 2_whiteLine3.jpg	MediumLong_e17_cut2_stereo_44KHz.wav
2	190	2	2	1	C	1	0	892	0	poli_8sides 3_whiteLine3.jpg	MediumLong_e17_cut2_stereo_44KHz.wav
2	191	4	4	2	I	1	0	709	0	poli_8sides 16_whiteLine3.jpg	Medium_e13_stereo_44KHz.wav
2	192	3	4	2	I	2	0	361	1	poli_8sides 9_whiteLine3.jpg	Medium_e13_stereo_44KHz.wav
2	193	1	1	1	C	2	1	559	1	poli_8sides 2_whiteLine3.jpg	MediumLong_e04_stereo_44KHz.wav
2	194	4	3	2	I	1	0	823	0	poli_8sides 16_whiteLine3.jpg	MediumLong_e19_stereo_44KHz.wav
2	195	3	3	2	I	1	0	635	1	poli_8sides 9_whiteLine3.jpg	MediumLong_e19_stereo_44KHz.wav
2	196	2	1	0	C	1	1	812	1	poli_8sides 3_whiteLine3.jpg	MediumLong_e04_stereo_44KHz.wav
2	197	1	2	0	C	1	1	798	1	poli_8sides 2_whiteLine3.jpg	MediumLong_e17_cut2_stereo_44KHz.wav
2	198	4	4	2	I	2	0	692	0	poli_8sides 16_whiteLine3.jpg	Medium_e13_stereo_44KHz.wav
2	199	3	4	2	I	1	0	567	1	poli_8sides 9_whiteLine3.jpg	Medium_e13_stereo_44KHz.wav
2	200	2	2	1	C	1	0	711	0	poli_8sides 3_whiteLine3.jpg	MediumLong_e17_cut2_stereo_44KHz.wav
3	1	4	3	2	I	1	0	1395	1	poli_8sides 10_whiteLine3.jpg	Short_b23_cut1_stereo_44KHz.wav
3	2	2	2	1	C	2	1	601	1	poli_8sides 11_whiteLine3.jpg	Short_b09_cut1_stereo_44KHz.wav
3	3	1	1	1	C	2	1	993	1	poli_8sides 5_whiteLine3.jpg	Short_b22_cut1_stereo_44KHz.wav
3	4	3	3	2	I	2	0	787	1	poli_8sides 13_whiteLine3.jpg	Short_b23_cut1_stereo_44KHz.wav
3	5	2	1	0	C	1	1	776	1	poli_8sides 11_whiteLine3.jpg	Short_b22_cut1_stereo_44KHz.wav
3	6	4	4	2	I	2	0	505	0	poli_8sides 10_whiteLine3.jpg	Short_b20_cut1_stereo_44KHz.wav
3	7	3	4	2	I	1	0	404	0	poli_8sides 13_whiteLine3.jpg	Short_b20_cut1_stereo_44KHz.wav
3	8	1	2	0	C	2	0	503	0	poli_8sides 5_whiteLine3.jpg	Short_b09_cut1_stereo_44KHz.wav
3	9	3	4	2	I	1	0	597	0	poli_8sides 13_whiteLine3.jpg	Short_b20_cut1_stereo_44KHz.wav
3	10	2	1	0	C	2	0	370	0	poli_8sides 11_whiteLine3.jpg	Short_b22_cut1_stereo_44KHz.wav
3	11	4	3	2	I	1	0	398	1	poli_8sides 10_whiteLine3.jpg	Short_b23_cut1_stereo_44KHz.wav
3	12	1	1	1	C	1	0	548	0	poli_8sides 5_whiteLine3.jpg	Short_b22_cut1_stereo_44KHz.wav
3	13	4	4	2	I	2	0	454	0	poli_8sides 10_whiteLine3.jpg	Short_b20_cut1_stereo_44KHz.wav
3	14	3	3	2	I	2	0	508	1	poli_8sides 13_whiteLine3.jpg	Short_b23_cut1_stereo_44KHz.wav
3	15	2	2	1	C	2	1	576	1	poli_8sides 11_whiteLine3.jpg	Short_b09_cut1_stereo_44KHz.wav
3	16	1	2	0	C	1	1	763	1	poli_8sides 5_whiteLine3.jpg	Short_b09_cut1_stereo_44KHz.wav
3	17	3	4	2	I	2	0	780	1	poli_8sides 13_whiteLine3.jpg	Short_b20_cut1_stereo_44KHz.wav
3	18	2	2	1	C	2	1	479	1	poli_8sides 11_whiteLine3.jpg	Short_b09_cut1_stereo_44KHz.wav
3	19	4	4	2	I	2	0	753	0	poli_8sides 10_whiteLine3.jpg	Short_b20_cut1_stereo_44KHz.wav
3	20	1	2	0	C	1	1	284	1	poli_8sides 5_whiteLine3.jpg	Short_b09_cut1_stereo_44KHz.wav
3	21	2	1	0	C	1	1	478	1	poli_8sides 11_whiteLine3.jpg	Short_b22_cut1_stereo_44KHz.wav
3	22	3	3	2	I	2	0	580	0	poli_8sides 13_whiteLine3.jpg	Short_b23_cut1_stereo_44KHz.wav
3	23	1	1	1	C	1	0	283	0	poli_8sides 5_whiteLine3.jpg	Short_b22_cut1_stereo_44KHz.wav
3	24	4	3	2	I	1	0	482	0	poli_8sides 10_whiteLine3.jpg	Short_b23_cut1_stereo_44KHz.wav
3	25	3	4	2	I	1	0	688	0	poli_8sides 13_whiteLine3.jpg	Short_b20_cut1_stereo_44KHz.wav
3	26	2	1	0	C	2	0	300	0	poli_8sides 11_whiteLine3.jpg	Short_b22_cut1_stereo_44KHz.wav
3	27	4	4	2	I	1	0	494	0	poli_8sides 10_whiteLine3.jpg	Short_b20_cut1_stereo_44KHz.wav
3	28	1	1	1	C	1	0	437	0	poli_8sides 5_whiteLine3.jpg	Short_b22_cut1_stereo_44KHz.wav
3	29	4	3	2	I	2	0	406	1	poli_8sides 10_whiteLine3.jpg	Short_b23_cut1_stereo_44KHz.wav
3	30	1	2	0	C	2	0	612	0	poli_8sides 5_whiteLine3.jpg	Short_b09_cut1_stereo_44KHz.wav
3	31	2	2	1	C	2	1	411	1	poli_8sides 11_whiteLine3.jpg	Short_b09_cut1_stereo_44KHz.wav
3	32	3	3	2	I	2	0	583	0	poli_8sides 13_whiteLine3.jpg	Short_b23_cut1_stereo_44KHz.wav
3	33	4	3	2	I	1	0	289	1	poli_8sides 10_whiteLine3.jpg	Short_b23_cut1_stereo_44KHz.wav
3	34	1	1	1	C	1	0	455	0	poli_8sides 5_whiteLine3.jpg	Short_b22_cut1_stereo_44KHz.wav
3	35	2	2	1	C	2	1	290	1	poli_8sides 11_whiteLine3.jpg	Short_b09_cut1_stereo_44KHz.wav
3	36	3	4	2	I	2	0	488	1	poli_8sides 13_whiteLine3.jpg	Short_b20_cut1_stereo_44KHz.wav
3	37	4	4	2	I	2	0	501	1	poli_8sides 10_whiteLine3.jpg	Short_b20_cut1_stereo_44KHz.wav
3	38	2	1	0	C	2	0	437	0	poli_8sides 11_whiteLine3.jpg	Short_b22_cut1_stereo_44KHz.wav
3	39	3	3	2	I	1	0	569	1	poli_8sides 13_whiteLine3.jpg	Short_b23_cut1_stereo_44KHz.wav
3	40	1	2	0	C	1	1	416	1	poli_8sides 5_whiteLine3.jpg	Short_b09_cut1_stereo_44KHz.wav
3	41	3	3	2	I	2	0	408	0	poli_8sides 13_whiteLine3.jpg	Short_b23_cut1_stereo_44KHz.wav
3	42	2	2	1	C	1	0	458	0	poli_8sides 11_whiteLine3.jpg	Short_b09_cut1_stereo_44KHz.wav
3	43	4	4	2	I	2	0	258	0	poli_8sides 10_whiteLine3.jpg	Short_b20_cut1_stereo_44KHz.wav
3	44	1	1	1	C	2	1	395	1	poli_8sides 5_whiteLine3.jpg	Short_b22_cut1_stereo_44KHz.wav
3	45	3	4	2	I	2	0	356	0	poli_8sides 13_whiteLine3.jpg	Short_b20_cut1_stereo_44KHz.wav
3	46	2	1	0	C	2	0	394	0	poli_8sides 11_whiteLine3.jpg	Short_b22_cut1_stereo_44KHz.wav
3	47	1	2	0	C	1	1	380	1	poli_8sides 5_whiteLine3.jpg	Short_b09_cut1_stereo_44KHz.wav
3	48	4	3	2	I	1	0	808	0	poli_8sides 10_whiteLine3.jpg	Short_b23_cut1_stereo_44KHz.wav
3	49	2	1	0	C	1	1	358	1	poli_8sides 11_whiteLine3.jpg	Short_b22_cut1_stereo_44KHz.wav
3	50	4	3	2	I	1	0	597	0	poli_8sides 10_whiteLine3.jpg	Short_b23_cut1_stereo_44KHz.wav
3	51	3	3	2	I	1	0	440	0	poli_8sides 13_whiteLine3.jpg	Short_b23_cut1_stereo_44KHz.wav
3	52	1	2	0	C	2	0	621	0	poli_8sides 5_whiteLine3.jpg	Short_b09_cut1_stereo_44KHz.wav
3	53	3	4	2	I	2	0	470	1	poli_8sides 13_whiteLine3.jpg	Short_b20_cut1_stereo_44KHz.wav
3	54	1	1	1	C	2	1	475	1	poli_8sides 5_whiteLine3.jpg	Short_b22_cut1_stereo_44KHz.wav
3	55	2	2	1	C	2	1	702	1	poli_8sides 11_whiteLine3.jpg	Short_b09_cut1_stereo_44KHz.wav
3	56	4	4	2	I	2	0	546	1	poli_8sides 10_whiteLine3.jpg	Short_b20_cut1_stereo_44KHz.wav
3	57	2	1	0	C	2	0	427	0	poli_8sides 11_whiteLine3.jpg	Short_b22_cut1_stereo_44KHz.wav
3	58	1	1	1	C	2	1	487	1	poli_8sides 5_whiteLine3.jpg	Short_b22_cut1_stereo_44KHz.wav
3	59	4	3	2	I	2	0	585	1	poli_8sides 10_whiteLine3.jpg	Short_b23_cut1_stereo_44KHz.wav
3	60	3	3	2	I	1	0	480	1	poli_8sides 13_whiteLine3.jpg	Short_b23_cut1_stereo_44KHz.wav
3	61	2	2	1	C	1	0	528	0	poli_8sides 11_whiteLine3.jpg	Short_b09_cut1_stereo_44KHz.wav
3	62	3	4	2	I	1	0	462	1	poli_8sides 13_whiteLine3.jpg	Short_b20_cut1_stereo_44KHz.wav
3	63	1	2	0	C	1	1	508	1	poli_8sides 5_whiteLine3.jpg	Short_b09_cut1_stereo_44KHz.wav
3	64	4	4	2	I	1	0	477	0	poli_8sides 10_whiteLine3.jpg	Short_b20_cut1_stereo_44KHz.wav
3	65	2	2	1	C	2	1	444	1	poli_8sides 11_whiteLine3.jpg	Short_b09_cut1_stereo_44KHz.wav
3	66	1	1	1	C	2	1	473	1	poli_8sides 5_whiteLine3.jpg	Short_b22_cut1_stereo_44KHz.wav
3	67	3	4	2	I	2	0	423	1	poli_8sides 13_whiteLine3.jpg	Short_b20_cut1_stereo_44KHz.wav
3	68	4	4	2	I	2	0	401	0	poli_8sides 10_whiteLine3.jpg	Short_b20_cut1_stereo_44KHz.wav
3	69	2	1	0	C	2	0	501	0	poli_8sides 11_whiteLine3.jpg	Short_b22_cut1_stereo_44KHz.wav
3	70	1	2	0	C	1	1	765	1	poli_8sides 5_whiteLine3.jpg	Short_b09_cut1_stereo_44KHz.wav
3	71	3	3	2	I	2	0	648	0	poli_8sides 13_whiteLine3.jpg	Short_b23_cut1_stereo_44KHz.wav
3	72	4	3	2	I	1	0	414	1	poli_8sides 10_whiteLine3.jpg	Short_b23_cut1_stereo_44KHz.wav
3	73	3	4	2	I	1	0	483	1	poli_8sides 13_whiteLine3.jpg	Short_b20_cut1_stereo_44KHz.wav
3	74	1	2	0	C	1	1	570	1	poli_8sides 5_whiteLine3.jpg	Short_b09_cut1_stereo_44KHz.wav
3	75	4	3	2	I	1	0	572	0	poli_8sides 10_whiteLine3.jpg	Short_b23_cut1_stereo_44KHz.wav
3	76	2	1	0	C	1	1	680	1	poli_8sides 11_whiteLine3.jpg	Short_b22_cut1_stereo_44KHz.wav
3	77	3	3	2	I	1	0	535	1	poli_8sides 13_whiteLine3.jpg	Short_b23_cut1_stereo_44KHz.wav
3	78	1	1	1	C	1	0	526	0	poli_8sides 5_whiteLine3.jpg	Short_b22_cut1_stereo_44KHz.wav
3	79	2	2	1	C	1	0	410	0	poli_8sides 11_whiteLine3.jpg	Short_b09_cut1_stereo_44KHz.wav
3	80	4	4	2	I	2	0	344	0	poli_8sides 10_whiteLine3.jpg	Short_b20_cut1_stereo_44KHz.wav
3	81	3	3	2	I	1	0	391	1	poli_8sides 13_whiteLine3.jpg	Short_b23_cut1_stereo_44KHz.wav
3	82	1	2	0	C	1	1	457	1	poli_8sides 5_whiteLine3.jpg	Short_b09_cut1_stereo_44KHz.wav
3	83	4	4	2	I	1	0	423	1	poli_8sides 10_whiteLine3.jpg	Short_b20_cut1_stereo_44KHz.wav
3	84	2	2	1	C	1	0	349	0	poli_8sides 11_whiteLine3.jpg	Short_b09_cut1_stereo_44KHz.wav
3	85	4	3	2	I	2	0	506	1	poli_8sides 10_whiteLine3.jpg	Short_b23_cut1_stereo_44KHz.wav
3	86	1	1	1	C	2	1	347	1	poli_8sides 5_whiteLine3.jpg	Short_b22_cut1_stereo_44KHz.wav
3	87	2	1	0	C	2	0	413	0	poli_8sides 11_whiteLine3.jpg	Short_b22_cut1_stereo_44KHz.wav
3	88	3	4	2	I	2	0	570	1	poli_8sides 13_whiteLine3.jpg	Short_b20_cut1_stereo_44KHz.wav
3	89	2	2	1	C	2	1	661	1	poli_8sides 11_whiteLine3.jpg	Short_b09_cut1_stereo_44KHz.wav
3	90	1	2	0	C	2	0	688	0	poli_8sides 5_whiteLine3.jpg	Short_b09_cut1_stereo_44KHz.wav
3	91	4	4	2	I	1	0	389	1	poli_8sides 10_whiteLine3.jpg	Short_b20_cut1_stereo_44KHz.wav
3	92	3	4	2	I	1	0	375	0	poli_8sides 13_whiteLine3.jpg	Short_b20_cut1_stereo_44KHz.wav
3	93	2	1	0	C	1	1	793	1	poli_8sides 11_whiteLine3.jpg	Short_b22_cut1_stereo_44KHz.wav
3	94	4	3	2	I	1	0	667	0	poli_8sides 10_whiteLine3.jpg	Short_b23_cut1_stereo_44KHz.wav
3	95	1	1	1	C	1	0	414	0	poli_8sides 5_whiteLine3.jpg	Short_b22_cut1_stereo_44KHz.wav
3	96	3	3	2	I	1	0	386	0	poli_8sides 13_whiteLine3.jpg	Short_b23_cut1_stereo_44KHz.wav
3	97	1	1	1	C	2	1	350	1	poli_8sides 5_whiteLine3.jpg	Short_b22_cut1_stereo_44KHz.wav
3	98	3	3	2	I	2	0	460	0	poli_8sides 13_whiteLine3.jpg	Short_b23_cut1_stereo_44KHz.wav
3	99	4	3	2	I	1	0	483	1	poli_8sides 10_whiteLine3.jpg	Short_b23_cut1_stereo_44KHz.wav
3	100	2	2	1	C	1	0	623	0	poli_8sides 11_whiteLine3.jpg	Short_b09_cut1_stereo_44KHz.wav
3	101	1	2	0	C	1	1	637	1	poli_8sides 5_whiteLine3.jpg	Short_b09_cut1_stereo_44KHz.wav
3	102	2	1	0	C	1	1	509	1	poli_8sides 11_whiteLine3.jpg	Short_b22_cut1_stereo_44KHz.wav
3	103	4	4	2	I	1	0	462	1	poli_8sides 10_whiteLine3.jpg	Short_b20_cut1_stereo_44KHz.wav
3	104	3	4	2	I	1	0	421	0	poli_8sides 13_whiteLine3.jpg	Short_b20_cut1_stereo_44KHz.wav
3	105	2	1	0	C	1	1	539	1	poli_8sides 11_whiteLine3.jpg	Short_b22_cut1_stereo_44KHz.wav
3	106	1	1	1	C	1	0	452	0	poli_8sides 5_whiteLine3.jpg	Short_b22_cut1_stereo_44KHz.wav
3	107	3	4	2	I	1	0	494	1	poli_8sides 13_whiteLine3.jpg	Short_b20_cut1_stereo_44KHz.wav
3	108	4	4	2	I	1	0	571	1	poli_8sides 10_whiteLine3.jpg	Short_b20_cut1_stereo_44KHz.wav
3	109	3	3	2	I	1	0	579	0	poli_8sides 13_whiteLine3.jpg	Short_b23_cut1_stereo_44KHz.wav
3	110	2	2	1	C	2	1	251	1	poli_8sides 11_whiteLine3.jpg	Short_b09_cut1_stereo_44KHz.wav
3	111	1	2	0	C	2	0	380	0	poli_8sides 5_whiteLine3.jpg	Short_b09_cut1_stereo_44KHz.wav
3	112	4	3	2	I	2	0	371	0	poli_8sides 10_whiteLine3.jpg	Short_b23_cut1_stereo_44KHz.wav
3	113	3	4	2	I	2	0	334	1	poli_8sides 13_whiteLine3.jpg	Short_b20_cut1_stereo_44KHz.wav
3	114	4	4	2	I	2	0	499	0	poli_8sides 10_whiteLine3.jpg	Short_b20_cut1_stereo_44KHz.wav
3	115	2	2	1	C	1	0	375	0	poli_8sides 11_whiteLine3.jpg	Short_b09_cut1_stereo_44KHz.wav
3	116	1	2	0	C	2	0	325	0	poli_8sides 5_whiteLine3.jpg	Short_b09_cut1_stereo_44KHz.wav
3	117	2	1	0	C	2	0	476	0	poli_8sides 11_whiteLine3.jpg	Short_b22_cut1_stereo_44KHz.wav
3	118	4	3	2	I	1	0	436	0	poli_8sides 10_whiteLine3.jpg	Short_b23_cut1_stereo_44KHz.wav
3	119	3	3	2	I	2	0	455	1	poli_8sides 13_whiteLine3.jpg	Short_b23_cut1_stereo_44KHz.wav
3	120	1	1	1	C	2	1	948	1	poli_8sides 5_whiteLine3.jpg	Short_b22_cut1_stereo_44KHz.wav
3	121	2	2	1	C	1	0	579	0	poli_8sides 11_whiteLine3.jpg	Short_b09_cut1_stereo_44KHz.wav
3	122	4	3	2	I	2	0	460	1	poli_8sides 10_whiteLine3.jpg	Short_b23_cut1_stereo_44KHz.wav
3	123	3	4	2	I	2	0	757	1	poli_8sides 13_whiteLine3.jpg	Short_b20_cut1_stereo_44KHz.wav
3	124	1	2	0	C	2	0	520	0	poli_8sides 5_whiteLine3.jpg	Short_b09_cut1_stereo_44KHz.wav
3	125	4	4	2	I	1	0	461	1	poli_8sides 10_whiteLine3.jpg	Short_b20_cut1_stereo_44KHz.wav
3	126	1	1	1	C	1	0	437	0	poli_8sides 5_whiteLine3.jpg	Short_b22_cut1_stereo_44KHz.wav
3	127	3	3	2	I	1	0	411	0	poli_8sides 13_whiteLine3.jpg	Short_b23_cut1_stereo_44KHz.wav
3	128	2	1	0	C	1	1	388	1	poli_8sides 11_whiteLine3.jpg	Short_b22_cut1_stereo_44KHz.wav
3	129	1	1	1	C	1	0	792	0	poli_8sides 5_whiteLine3.jpg	Short_b22_cut1_stereo_44KHz.wav
3	130	3	4	2	I	1	0	661	1	poli_8sides 13_whiteLine3.jpg	Short_b20_cut1_stereo_44KHz.wav
3	131	2	1	0	C	1	1	446	1	poli_8sides 11_whiteLine3.jpg	Short_b22_cut1_stereo_44KHz.wav
3	132	4	4	2	I	1	0	349	0	poli_8sides 10_whiteLine3.jpg	Short_b20_cut1_stereo_44KHz.wav
3	133	1	2	0	C	1	1	444	1	poli_8sides 5_whiteLine3.jpg	Short_b09_cut1_stereo_44KHz.wav
3	134	4	3	2	I	1	0	488	1	poli_8sides 10_whiteLine3.jpg	Short_b23_cut1_stereo_44KHz.wav
3	135	3	3	2	I	1	0	442	0	poli_8sides 13_whiteLine3.jpg	Short_b23_cut1_stereo_44KHz.wav
3	136	2	2	1	C	1	0	463	0	poli_8sides 11_whiteLine3.jpg	Short_b09_cut1_stereo_44KHz.wav
3	137	4	3	2	I	1	0	484	1	poli_8sides 10_whiteLine3.jpg	Short_b23_cut1_stereo_44KHz.wav
3	138	2	1	0	C	1	1	448	1	poli_8sides 11_whiteLine3.jpg	Short_b22_cut1_stereo_44KHz.wav
3	139	3	4	2	I	1	0	455	0	poli_8sides 13_whiteLine3.jpg	Short_b20_cut1_stereo_44KHz.wav
3	140	1	2	0	C	1	1	436	1	poli_8sides 5_whiteLine3.jpg	Short_b09_cut1_stereo_44KHz.wav
3	141	2	2	1	C	1	0	421	0	poli_8sides 11_whiteLine3.jpg	Short_b09_cut1_stereo_44KHz.wav
3	142	1	1	1	C	1	0	484	0	poli_8sides 5_whiteLine3.jpg	Short_b22_cut1_stereo_44KHz.wav
3	143	3	3	2	I	1	0	453	1	poli_8sides 13_whiteLine3.jpg	Short_b23_cut1_stereo_44KHz.wav
3	144	4	4	2	I	2	0	437	1	poli_8sides 10_whiteLine3.jpg	Short_b20_cut1_stereo_44KHz.wav
3	145	2	1	0	C	2	0	637	0	poli_8sides 11_whiteLine3.jpg	Short_b22_cut1_stereo_44KHz.wav
3	146	1	2	0	C	2	0	405	0	poli_8sides 5_whiteLine3.jpg	Short_b09_cut1_stereo_44KHz.wav
3	147	3	4	2	I	1	0	306	0	poli_8sides 13_whiteLine3.jpg	Short_b20_cut1_stereo_44KHz.wav
3	148	4	4	2	I	2	0	380	1	poli_8sides 10_whiteLine3.jpg	Short_b20_cut1_stereo_44KHz.wav
3	149	3	3	2	I	2	0	423	1	poli_8sides 13_whiteLine3.jpg	Short_b23_cut1_stereo_44KHz.wav
3	150	4	3	2	I	2	0	426	0	poli_8sides 10_whiteLine3.jpg	Short_b23_cut1_stereo_44KHz.wav
3	151	1	1	1	C	2	1	462	1	poli_8sides 5_whiteLine3.jpg	Short_b22_cut1_stereo_44KHz.wav
3	152	2	2	1	C	2	1	477	1	poli_8sides 11_whiteLine3.jpg	Short_b09_cut1_stereo_44KHz.wav
3	153	4	3	2	I	2	0	469	1	poli_8sides 10_whiteLine3.jpg	Short_b23_cut1_stereo_44KHz.wav
3	154	1	2	0	C	2	0	309	0	poli_8sides 5_whiteLine3.jpg	Short_b09_cut1_stereo_44KHz.wav
3	155	3	4	2	I	1	0	738	0	poli_8sides 13_whiteLine3.jpg	Short_b20_cut1_stereo_44KHz.wav
3	156	2	2	1	C	2	1	271	1	poli_8sides 11_whiteLine3.jpg	Short_b09_cut1_stereo_44KHz.wav
3	157	4	4	2	I	2	0	386	1	poli_8sides 10_whiteLine3.jpg	Short_b20_cut1_stereo_44KHz.wav
3	158	2	1	0	C	2	0	718	0	poli_8sides 11_whiteLine3.jpg	Short_b22_cut1_stereo_44KHz.wav
3	159	1	1	1	C	1	0	411	0	poli_8sides 5_whiteLine3.jpg	Short_b22_cut1_stereo_44KHz.wav
3	160	3	3	2	I	2	0	406	0	poli_8sides 13_whiteLine3.jpg	Short_b23_cut1_stereo_44KHz.wav
3	161	1	1	1	C	1	0	491	0	poli_8sides 5_whiteLine3.jpg	Short_b22_cut1_stereo_44KHz.wav
3	162	3	4	2	I	2	0	392	0	poli_8sides 13_whiteLine3.jpg	Short_b20_cut1_stereo_44KHz.wav
3	163	2	1	0	C	1	1	700	1	poli_8sides 11_whiteLine3.jpg	Short_b22_cut1_stereo_44KHz.wav
3	164	4	4	2	I	1	0	504	0	poli_8sides 10_whiteLine3.jpg	Short_b20_cut1_stereo_44KHz.wav
3	165	1	2	0	C	1	1	505	1	poli_8sides 5_whiteLine3.jpg	Short_b09_cut1_stereo_44KHz.wav
3	166	4	3	2	I	1	0	472	1	poli_8sides 10_whiteLine3.jpg	Short_b23_cut1_stereo_44KHz.wav
3	167	3	3	2	I	1	0	437	1	poli_8sides 13_whiteLine3.jpg	Short_b23_cut1_stereo_44KHz.wav
3	168	2	2	1	C	1	0	432	0	poli_8sides 11_whiteLine3.jpg	Short_b09_cut1_stereo_44KHz.wav
3	169	4	3	2	I	1	0	332	1	poli_8sides 10_whiteLine3.jpg	Short_b23_cut1_stereo_44KHz.wav
3	170	1	2	0	C	1	1	414	1	poli_8sides 5_whiteLine3.jpg	Short_b09_cut1_stereo_44KHz.wav
3	171	3	3	2	I	1	0	564	1	poli_8sides 13_whiteLine3.jpg	Short_b23_cut1_stereo_44KHz.wav
3	172	2	1	0	C	1	1	497	1	poli_8sides 11_whiteLine3.jpg	Short_b22_cut1_stereo_44KHz.wav
3	173	3	4	2	I	1	0	356	0	poli_8sides 13_whiteLine3.jpg	Short_b20_cut1_stereo_44KHz.wav
3	174	1	1	1	C	1	0	472	0	poli_8sides 5_whiteLine3.jpg	Short_b22_cut1_stereo_44KHz.wav
3	175	2	2	1	C	1	0	254	0	poli_8sides 11_whiteLine3.jpg	Short_b09_cut1_stereo_44KHz.wav
3	176	4	4	2	I	1	0	623	0	poli_8sides 10_whiteLine3.jpg	Short_b20_cut1_stereo_44KHz.wav
3	177	1	2	0	C	2	0	590	0	poli_8sides 5_whiteLine3.jpg	Short_b09_cut1_stereo_44KHz.wav
3	178	3	3	2	I	1	0	318	1	poli_8sides 13_whiteLine3.jpg	Short_b23_cut1_stereo_44KHz.wav
3	179	2	1	0	C	1	1	335	1	poli_8sides 11_whiteLine3.jpg	Short_b22_cut1_stereo_44KHz.wav
3	180	4	3	2	I	1	0	469	0	poli_8sides 10_whiteLine3.jpg	Short_b23_cut1_stereo_44KHz.wav
3	181	3	4	2	I	2	0	499	1	poli_8sides 13_whiteLine3.jpg	Short_b20_cut1_stereo_44KHz.wav
3	182	2	2	1	C	2	1	434	1	poli_8sides 11_whiteLine3.jpg	Short_b09_cut1_stereo_44KHz.wav
3	183	4	4	2	I	2	0	419	0	poli_8sides 10_whiteLine3.jpg	Short_b20_cut1_stereo_44KHz.wav
3	184	1	1	1	C	1	0	304	0	poli_8sides 5_whiteLine3.jpg	Short_b22_cut1_stereo_44KHz.wav
3	185	4	4	2	I	1	0	311	0	poli_8sides 10_whiteLine3.jpg	Short_b20_cut1_stereo_44KHz.wav
3	186	1	1	1	C	2	1	273	1	poli_8sides 5_whiteLine3.jpg	Short_b22_cut1_stereo_44KHz.wav
3	187	2	1	0	C	2	0	254	0	poli_8sides 11_whiteLine3.jpg	Short_b22_cut1_stereo_44KHz.wav
3	188	3	4	2	I	2	0	420	0	poli_8sides 13_whiteLine3.jpg	Short_b20_cut1_stereo_44KHz.wav
3	189	2	2	1	C	2	1	436	1	poli_8sides 11_whiteLine3.jpg	Short_b09_cut1_stereo_44KHz.wav
3	190	3	3	2	I	2	0	644	0	poli_8sides 13_whiteLine3.jpg	Short_b23_cut1_stereo_44KHz.wav
3	191	1	2	0	C	1	1	355	1	poli_8sides 5_whiteLine3.jpg	Short_b09_cut1_stereo_44KHz.wav
3	192	4	3	2	I	1	0	515	1	poli_8sides 10_whiteLine3.jpg	Short_b23_cut1_stereo_44KHz.wav
3	193	1	2	0	C	1	1	392	1	poli_8sides 5_whiteLine3.jpg	Short_b09_cut1_stereo_44KHz.wav
3	194	2	2	1	C	1	0	495	0	poli_8sides 11_whiteLine3.jpg	Short_b09_cut1_stereo_44KHz.wav
3	195	4	4	2	I	1	0	525	0	poli_8sides 10_whiteLine3.jpg	Short_b20_cut1_stereo_44KHz.wav
3	196	3	3	2	I	1	0	675	0	poli_8sides 13_whiteLine3.jpg	Short_b23_cut1_stereo_44KHz.wav
3	197	4	3	2	I	1	0	260	0	poli_8sides 10_whiteLine3.jpg	Short_b23_cut1_stereo_44KHz.wav
3	198	3	4	2	I	1	0	370	1	poli_8sides 13_whiteLine3.jpg	Short_b20_cut1_stereo_44KHz.wav
3	199	2	1	0	C	1	1	461	1	poli_8sides 11_whiteLine3.jpg	Short_b22_cut1_stereo_44KHz.wav
3	200	1	1	1	C	1	0	582	0	poli_8sides 5_whiteLine3.jpg	Short_b22_cut1_stereo_44KHz.wav
4	1	1	2	0	C	2	0	1112	0	poli_8sides 18_whiteLine3.jpg	MediumShort_b16_cut3_MS_stereo_44KHz.wav
4	2	2	2	1	C	2	1	519	1	poli_8sides 1_whiteLine3.jpg	MediumShort_b16_cut3_MS_stereo_44KHz.wav
4	3	3	3	2	I	2	0	509	0	poli_8sides 15_whiteLine3.jpg	MediumShort_b10_cut1_MS_stereo_44KHz.wav
4	4	4	4	2	I	2	0	372	0	poli_8sides 8_whiteLine3.jpg	MediumShort_e22_cut1_stereo_44KHz.wav
4	5	1	1	1	C	1	0	525	0	poli_8sides 18_whiteLine3.jpg	MediumShort_e16_cut1_stereo_44KHz.wav
4	6	2	1	0	C	2	0	496	0	poli_8sides 1_whiteLine3.jpg	MediumShort_e16_cut1_stereo_44KHz.wav
4	7	4	3	2	I	1	0	567	0	poli_8sides 8_whiteLine3.jpg	MediumShort_b10_cut1_MS_stereo_44KHz.wav
4	8	3	4	2	I	1	0	292	0	poli_8sides 15_whiteLine3.jpg	MediumShort_e22_cut1_stereo_44KHz.wav
4	9	2	2	1	C	1	0	262	0	poli_8sides 1_whiteLine3.jpg	MediumShort_b16_cut3_MS_stereo_44KHz.wav
4	10	1	1	1	C	2	1	218	1	poli_8sides 18_whiteLine3.jpg	MediumShort_e16_cut1_stereo_44KHz.wav
4	11	3	3	2	I	2	0	797	0	poli_8sides 15_whiteLine3.jpg	MediumShort_b10_cut1_MS_stereo_44KHz.wav
4	12	4	3	2	I	1	0	634	0	poli_8sides 8_whiteLine3.jpg	MediumShort_b10_cut1_MS_stereo_44KHz.wav
4	13	3	4	2	I	2	0	562	0	poli_8sides 15_whiteLine3.jpg	MediumShort_e22_cut1_stereo_44KHz.wav
4	14	2	1	0	C	2	0	735	0	poli_8sides 1_whiteLine3.jpg	MediumShort_e16_cut1_stereo_44KHz.wav
4	15	4	4	2	I	2	0	698	1	poli_8sides 8_whiteLine3.jpg	MediumShort_e22_cut1_stereo_44KHz.wav
4	16	1	2	0	C	2	0	625	0	poli_8sides 18_whiteLine3.jpg	MediumShort_b16_cut3_MS_stereo_44KHz.wav
4	17	4	4	2	I	1	0	743	1	poli_8sides 8_whiteLine3.jpg	MediumShort_e22_cut1_stereo_44KHz.wav
4	18	1	1	1	C	2	1	664	1	poli_8sides 18_whiteLine3.jpg	MediumShort_e16_cut1_stereo_44KHz.wav
4	19	3	3	2	I	1	0	730	1	poli_8sides 15_whiteLine3.jpg	MediumShort_b10_cut1_MS_stereo_44KHz.wav
4	20	2	1	0	C	2	0	1059	0	poli_8sides 1_whiteLine3.jpg	MediumShort_e16_cut1_stereo_44KHz.wav
4	21	3	4	2	I	2	0	644	0	poli_8sides 15_whiteLine3.jpg	MediumShort_e22_cut1_stereo_44KHz.wav
4	22	1	2	0	C	1	1	623	1	poli_8sides 18_whiteLine3.jpg	MediumShort_b16_cut3_MS_stereo_44KHz.wav
4	23	4	3	2	I	1	0	677	1	poli_8sides 8_whiteLine3.jpg	MediumShort_b10_cut1_MS_stereo_44KHz.wav
4	24	2	2	1	C	1	0	758	0	poli_8sides 1_whiteLine3.jpg	MediumShort_b16_cut3_MS_stereo_44KHz.wav
4	25	3	3	2	I	1	0	613	1	poli_8sides 15_whiteLine3.jpg	MediumShort_b10_cut1_MS_stereo_44KHz.wav
4	26	2	2	1	C	1	0	651	0	poli_8sides 1_whiteLine3.jpg	MediumShort_b16_cut3_MS_stereo_44KHz.wav
4	27	4	4	2	I	1	0	668	1	poli_8sides 8_whiteLine3.jpg	MediumShort_e22_cut1_stereo_44KHz.wav
4	28	1	1	1	C	1	0	626	0	poli_8sides 18_whiteLine3.jpg	MediumShort_e16_cut1_stereo_44KHz.wav
4	29	4	3	2	I	1	0	702	0	poli_8sides 8_whiteLine3.jpg	MediumShort_b10_cut1_MS_stereo_44KHz.wav
4	30	3	4	2	I	1	0	920	1	poli_8sides 15_whiteLine3.jpg	MediumShort_e22_cut1_stereo_44KHz.wav
4	31	2	1	0	C	2	0	614	0	poli_8sides 1_whiteLine3.jpg	MediumShort_e16_cut1_stereo_44KHz.wav
4	32	1	2	0	C	1	1	600	1	poli_8sides 18_whiteLine3.jpg	MediumShort_b16_cut3_MS_stereo_44KHz.wav
4	33	4	3	2	I	1	0	694	1	poli_8sides 8_whiteLine3.jpg	MediumShort_b10_cut1_MS_stereo_44KHz.wav
4	34	1	1	1	C	1	0	789	0	poli_8sides 18_whiteLine3.jpg	MediumShort_e16_cut1_stereo_44KHz.wav
4	35	3	4	2	I	1	0	870	1	poli_8sides 15_whiteLine3.jpg	MediumShort_e22_cut1_stereo_44KHz.wav
4	36	2	2	1	C	1	0	676	0	poli_8sides 1_whiteLine3.jpg	MediumShort_b16_cut3_MS_stereo_44KHz.wav
4	37	1	2	0	C	1	1	639	1	poli_8sides 18_whiteLine3.jpg	MediumShort_b16_cut3_MS_stereo_44KHz.wav
4	38	3	3	2	I	1	0	895	1	poli_8sides 15_whiteLine3.jpg	MediumShort_b10_cut1_MS_stereo_44KHz.wav
4	39	4	4	2	I	1	0	552	0	poli_8sides 8_whiteLine3.jpg	MediumShort_e22_cut1_stereo_44KHz.wav
4	40	2	1	0	C	1	1	475	1	poli_8sides 1_whiteLine3.jpg	MediumShort_e16_cut1_stereo_44KHz.wav
4	41	1	1	1	C	1	0	981	0	poli_8sides 18_whiteLine3.jpg	MediumShort_e16_cut1_stereo_44KHz.wav
4	42	2	2	1	C	1	0	610	0	poli_8sides 1_whiteLine3.jpg	MediumShort_b16_cut3_MS_stereo_44KHz.wav
4	43	4	4	2	I	2	0	429	1	poli_8sides 8_whiteLine3.jpg	MediumShort_e22_cut1_stereo_44KHz.wav
4	44	3	4	2	I	2	0	554	0	poli_8sides 15_whiteLine3.jpg	MediumShort_e22_cut1_stereo_44KHz.wav
4	45	2	1	0	C	1	1	316	1	poli_8sides 1_whiteLine3.jpg	MediumShort_e16_cut1_stereo_44KHz.wav
4	46	3	3	2	I	1	0	647	0	poli_8sides 15_whiteLine3.jpg	MediumShort_b10_cut1_MS_stereo_44KHz.wav
4	47	4	3	2	I	2	0	537	0	poli_8sides 8_whiteLine3.jpg	MediumShort_b10_cut1_MS_stereo_44KHz.wav
4	48	1	2	0	C	1	1	662	1	poli_8sides 18_whiteLine3.jpg	MediumShort_b16_cut3_MS_stereo_44KHz.wav
4	49	3	4	2	I	1	0	783	0	poli_8sides 15_whiteLine3.jpg	MediumShort_e22_cut1_stereo_44KHz.wav
4	50	2	2	1	C	1	0	593	0	poli_8sides 1_whiteLine3.jpg	MediumShort_b16_cut3_MS_stereo_44KHz.wav
4	51	4	3	2	I	2	0	489	0	poli_8sides 8_whiteLine3.jpg	MediumShort_b10_cut1_MS_stereo_44KHz.wav
4	52	1	2	0	C	2	0	727	0	poli_8sides 18_whiteLine3.jpg	MediumShort_b16_cut3_MS_stereo_44KHz.wav
4	53	4	4	2	I	2	0	453	1	poli_8sides 8_whiteLine3.jpg	MediumShort_e22_cut1_stereo_44KHz.wav
4	54	3	3	2	I	2	0	604	0	poli_8sides 15_whiteLine3.jpg	MediumShort_b10_cut1_MS_stereo_44KHz.wav
4	55	2	1	0	C	1	1	480	1	poli_8sides 1_whiteLine3.jpg	MediumShort_e16_cut1_stereo_44KHz.wav
4	56	1	1	1	C	1	0	647	0	poli_8sides 18_whiteLine3.jpg	MediumShort_e16_cut1_stereo_44KHz.wav
4	57	2	2	1	C	1	0	498	0	poli_8sides 1_whiteLine3.jpg	MediumShort_b16_cut3_MS_stereo_44KHz.wav
4	58	1	2	0	C	2	0	493	0	poli_8sides 18_whiteLine3.jpg	MediumShort_b16_cut3_MS_stereo_44KHz.wav
4	59	3	4	2	I	1	0	410	1	poli_8sides 15_whiteLine3.jpg	MediumShort_e22_cut1_stereo_44KHz.wav
4	60	4	3	2	I	1	0	587	0	poli_8sides 8_whiteLine3.jpg	MediumShort_b10_cut1_MS_stereo_44KHz.wav
4	61	3	3	2	I	1	0	535	1	poli_8sides 15_whiteLine3.jpg	MediumShort_b10_cut1_MS_stereo_44KHz.wav
4	62	2	1	0	C	1	1	840	1	poli_8sides 1_whiteLine3.jpg	MediumShort_e16_cut1_stereo_44KHz.wav
4	63	1	1	1	C	1	0	660	0	poli_8sides 18_whiteLine3.jpg	MediumShort_e16_cut1_stereo_44KHz.wav
4	64	4	4	2	I	1	0	451	0	poli_8sides 8_whiteLine3.jpg	MediumShort_e22_cut1_stereo_44KHz.wav
4	65	1	2	0	C	1	1	352	1	poli_8sides 18_whiteLine3.jpg	MediumShort_b16_cut3_MS_stereo_44KHz.wav
4	66	4	3	2	I	1	0	640	0	poli_8sides 8_whiteLine3.jpg	MediumShort_b10_cut1_MS_stereo_44KHz.wav
4	67	3	3	2	I	1	0	530	0	poli_8sides 15_whiteLine3.jpg	MediumShort_b10_cut1_MS_stereo_44KHz.wav
4	68	2	2	1	C	1	0	308	0	poli_8sides 1_whiteLine3.jpg	MediumShort_b16_cut3_MS_stereo_44KHz.wav
4	69	4	4	2	I	1	0	509	1	poli_8sides 8_whiteLine3.jpg	MediumShort_e22_cut1_stereo_44KHz.wav
4	70	1	1	1	C	2	1	745	1	poli_8sides 18_whiteLine3.jpg	MediumShort_e16_cut1_stereo_44KHz.wav
4	71	3	4	2	I	2	0	749	1	poli_8sides 15_whiteLine3.jpg	MediumShort_e22_cut1_stereo_44KHz.wav
4	72	2	1	0	C	1	1	539	1	poli_8sides 1_whiteLine3.jpg	MediumShort_e16_cut1_stereo_44KHz.wav
4	73	3	4	2	I	1	0	516	0	poli_8sides 15_whiteLine3.jpg	MediumShort_e22_cut1_stereo_44KHz.wav
4	74	1	1	1	C	1	0	676	0	poli_8sides 18_whiteLine3.jpg	MediumShort_e16_cut1_stereo_44KHz.wav
4	75	2	1	0	C	2	0	435	0	poli_8sides 1_whiteLine3.jpg	MediumShort_e16_cut1_stereo_44KHz.wav
4	76	4	3	2	I	1	0	546	0	poli_8sides 8_whiteLine3.jpg	MediumShort_b10_cut1_MS_stereo_44KHz.wav
4	77	1	2	0	C	2	0	638	0	poli_8sides 18_whiteLine3.jpg	MediumShort_b16_cut3_MS_stereo_44KHz.wav
4	78	4	4	2	I	2	0	521	1	poli_8sides 8_whiteLine3.jpg	MediumShort_e22_cut1_stereo_44KHz.wav
4	79	3	3	2	I	2	0	649	0	poli_8sides 15_whiteLine3.jpg	MediumShort_b10_cut1_MS_stereo_44KHz.wav
4	80	2	2	1	C	2	1	847	1	poli_8sides 1_whiteLine3.jpg	MediumShort_b16_cut3_MS_stereo_44KHz.wav
4	81	1	2	0	C	1	1	517	1	poli_8sides 18_whiteLine3.jpg	MediumShort_b16_cut3_MS_stereo_44KHz.wav
4	82	3	4	2	I	1	0	735	0	poli_8sides 15_whiteLine3.jpg	MediumShort_e22_cut1_stereo_44KHz.wav
4	83	4	4	2	I	1	0	564	1	poli_8sides 8_whiteLine3.jpg	MediumShort_e22_cut1_stereo_44KHz.wav
4	84	2	1	0	C	1	1	596	1	poli_8sides 1_whiteLine3.jpg	MediumShort_e16_cut1_stereo_44KHz.wav
4	85	3	3	2	I	1	0	351	0	poli_8sides 15_whiteLine3.jpg	MediumShort_b10_cut1_MS_stereo_44KHz.wav
4	86	1	1	1	C	1	0	485	0	poli_8sides 18_whiteLine3.jpg	MediumShort_e16_cut1_stereo_44KHz.wav
4	87	4	3	2	I	2	0	617	0	poli_8sides 8_whiteLine3.jpg	MediumShort_b10_cut1_MS_stereo_44KHz.wav
4	88	2	2	1	C	2	1	407	1	poli_8sides 1_whiteLine3.jpg	MediumShort_b16_cut3_MS_stereo_44KHz.wav
4	89	1	2	0	C	2	0	1174	0	poli_8sides 18_whiteLine3.jpg	MediumShort_b16_cut3_MS_stereo_44KHz.wav
4	90	4	3	2	I	2	0	416	1	poli_8sides 8_whiteLine3.jpg	MediumShort_b10_cut1_MS_stereo_44KHz.wav
4	91	3	4	2	I	2	0	855	0	poli_8sides 15_whiteLine3.jpg	MediumShort_e22_cut1_stereo_44KHz.wav
4	92	2	1	0	C	1	1	673	1	poli_8sides 1_whiteLine3.jpg	MediumShort_e16_cut1_stereo_44KHz.wav
4	93	3	3	2	I	1	0	795	1	poli_8sides 15_whiteLine3.jpg	MediumShort_b10_cut1_MS_stereo_44KHz.wav
4	94	4	4	2	I	1	0	625	0	poli_8sides 8_whiteLine3.jpg	MediumShort_e22_cut1_stereo_44KHz.wav
4	95	1	1	1	C	2	1	479	1	poli_8sides 18_whiteLine3.jpg	MediumShort_e16_cut1_stereo_44KHz.wav
4	96	2	2	1	C	2	1	1124	1	poli_8sides 1_whiteLine3.jpg	MediumShort_b16_cut3_MS_stereo_44KHz.wav
4	97	1	2	0	C	2	0	695	0	poli_8sides 18_whiteLine3.jpg	MediumShort_b16_cut3_MS_stereo_44KHz.wav
4	98	3	4	2	I	1	0	613	1	poli_8sides 15_whiteLine3.jpg	MediumShort_e22_cut1_stereo_44KHz.wav
4	99	2	2	1	C	1	0	750	0	poli_8sides 1_whiteLine3.jpg	MediumShort_b16_cut3_MS_stereo_44KHz.wav
4	100	4	4	2	I	1	0	640	1	poli_8sides 8_whiteLine3.jpg	MediumShort_e22_cut1_stereo_44KHz.wav
4	101	3	3	2	I	2	0	719	1	poli_8sides 15_whiteLine3.jpg	MediumShort_b10_cut1_MS_stereo_44KHz.wav
4	102	2	1	0	C	2	0	592	0	poli_8sides 1_whiteLine3.jpg	MediumShort_e16_cut1_stereo_44KHz.wav
4	103	4	3	2	I	1	0	483	0	poli_8sides 8_whiteLine3.jpg	MediumShort_b10_cut1_MS_stereo_44KHz.wav
4	104	1	1	1	C	1	0	1355	0	poli_8sides 18_whiteLine3.jpg	MediumShort_e16_cut1_stereo_44KHz.wav
4	105	4	4	2	I	2	0	531	1	poli_8sides 8_whiteLine3.jpg	MediumShort_e22_cut1_stereo_44KHz.wav
4	106	2	2	1	C	2	1	800	1	poli_8sides 1_whiteLine3.jpg	MediumShort_b16_cut3_MS_stereo_44KHz.wav
4	107	3	3	2	I	2	0	874	1	poli_8sides 15_whiteLine3.jpg	MediumShort_b10_cut1_MS_stereo_44KHz.wav
4	108	1	1	1	C	2	1	703	1	poli_8sides 18_whiteLine3.jpg	MediumShort_e16_cut1_stereo_44KHz.wav
4	109	2	1	0	C	2	0	601	0	poli_8sides 1_whiteLine3.jpg	MediumShort_e16_cut1_stereo_44KHz.wav
4	110	1	2	0	C	2	0	693	0	poli_8sides 18_whiteLine3.jpg	MediumShort_b16_cut3_MS_stereo_44KHz.wav
4	111	3	4	2	I	1	0	441	0	poli_8sides 15_whiteLine3.jpg	MediumShort_e22_cut1_stereo_44KHz.wav
4	112	4	3	2	I	2	0	551	0	poli_8sides 8_whiteLine3.jpg	MediumShort_b10_cut1_MS_stereo_44KHz.wav
4	113	3	3	2	I	2	0	538	1	poli_8sides 15_whiteLine3.jpg	MediumShort_b10_cut1_MS_stereo_44KHz.wav
4	114	2	1	0	C	2	0	690	0	poli_8sides 1_whiteLine3.jpg	MediumShort_e16_cut1_stereo_44KHz.wav
4	115	1	2	0	C	1	1	533	1	poli_8sides 18_whiteLine3.jpg	MediumShort_b16_cut3_MS_stereo_44KHz.wav
4	116	4	3	2	I	1	0	727	1	poli_8sides 8_whiteLine3.jpg	MediumShort_b10_cut1_MS_stereo_44KHz.wav
4	117	3	4	2	I	1	0	901	0	poli_8sides 15_whiteLine3.jpg	MediumShort_e22_cut1_stereo_44KHz.wav
4	118	2	2	1	C	2	1	576	1	poli_8sides 1_whiteLine3.jpg	MediumShort_b16_cut3_MS_stereo_44KHz.wav
4	119	1	1	1	C	2	1	724	1	poli_8sides 18_whiteLine3.jpg	MediumShort_e16_cut1_stereo_44KHz.wav
4	120	4	4	2	I	2	0	935	0	poli_8sides 8_whiteLine3.jpg	MediumShort_e22_cut1_stereo_44KHz.wav
4	121	3	3	2	I	1	0	553	0	poli_8sides 15_whiteLine3.jpg	MediumShort_b10_cut1_MS_stereo_44KHz.wav
4	122	4	4	2	I	2	0	607	1	poli_8sides 8_whiteLine3.jpg	MediumShort_e22_cut1_stereo_44KHz.wav
4	123	1	2	0	C	2	0	592	0	poli_8sides 18_whiteLine3.jpg	MediumShort_b16_cut3_MS_stereo_44KHz.wav
4	124	2	1	0	C	2	0	812	0	poli_8sides 1_whiteLine3.jpg	MediumShort_e16_cut1_stereo_44KHz.wav
4	125	3	4	2	I	1	0	585	0	poli_8sides 15_whiteLine3.jpg	MediumShort_e22_cut1_stereo_44KHz.wav
4	126	4	3	2	I	2	0	400	1	poli_8sides 8_whiteLine3.jpg	MediumShort_b10_cut1_MS_stereo_44KHz.wav
4	127	1	1	1	C	2	1	531	1	poli_8sides 18_whiteLine3.jpg	MediumShort_e16_cut1_stereo_44KHz.wav
4	128	2	2	1	C	2	1	681	1	poli_8sides 1_whiteLine3.jpg	MediumShort_b16_cut3_MS_stereo_44KHz.wav
4	129	4	3	2	I	2	0	879	0	poli_8sides 8_whiteLine3.jpg	MediumShort_b10_cut1_MS_stereo_44KHz.wav
4	130	2	1	0	C	1	1	337	1	poli_8sides 1_whiteLine3.jpg	MediumShort_e16_cut1_stereo_44KHz.wav
4	131	1	1	1	C	1	0	669	0	poli_8sides 18_whiteLine3.jpg	MediumShort_e16_cut1_stereo_44KHz.wav
4	132	3	3	2	I	1	0	571	1	poli_8sides 15_whiteLine3.jpg	MediumShort_b10_cut1_MS_stereo_44KHz.wav
4	133	2	2	1	C	1	0	404	0	poli_8sides 1_whiteLine3.jpg	MediumShort_b16_cut3_MS_stereo_44KHz.wav
4	134	1	2	0	C	1	1	428	1	poli_8sides 18_whiteLine3.jpg	MediumShort_b16_cut3_MS_stereo_44KHz.wav
4	135	3	4	2	I	1	0	671	0	poli_8sides 15_whiteLine3.jpg	MediumShort_e22_cut1_stereo_44KHz.wav
4	136	4	4	2	I	1	0	586	0	poli_8sides 8_whiteLine3.jpg	MediumShort_e22_cut1_stereo_44KHz.wav
4	137	3	3	2	I	2	0	703	1	poli_8sides 15_whiteLine3.jpg	MediumShort_b10_cut1_MS_stereo_44KHz.wav
4	138	4	3	2	I	2	0	576	0	poli_8sides 8_whiteLine3.jpg	MediumShort_b10_cut1_MS_stereo_44KHz.wav
4	139	1	1	1	C	1	0	343	0	poli_8sides 18_whiteLine3.jpg	MediumShort_e16_cut1_stereo_44KHz.wav
4	140	2	2	1	C	2	1	438	1	poli_8sides 1_whiteLine3.jpg	MediumShort_b16_cut3_MS_stereo_44KHz.wav
4	141	1	2	0	C	2	0	794	0	poli_8sides 18_whiteLine3.jpg	MediumShort_b16_cut3_MS_stereo_44KHz.wav
4	142	4	4	2	I	2	0	459	0	poli_8sides 8_whiteLine3.jpg	MediumShort_e22_cut1_stereo_44KHz.wav
4	143	2	1	0	C	2	0	528	0	poli_8sides 1_whiteLine3.jpg	MediumShort_e16_cut1_stereo_44KHz.wav
4	144	3	4	2	I	2	0	558	1	poli_8sides 15_whiteLine3.jpg	MediumShort_e22_cut1_stereo_44KHz.wav
4	145	4	4	2	I	2	0	701	1	poli_8sides 8_whiteLine3.jpg	MediumShort_e22_cut1_stereo_44KHz.wav
4	146	3	3	2	I	2	0	672	1	poli_8sides 15_whiteLine3.jpg	MediumShort_b10_cut1_MS_stereo_44KHz.wav
4	147	2	1	0	C	2	0	525	0	poli_8sides 1_whiteLine3.jpg	MediumShort_e16_cut1_stereo_44KHz.wav
4	148	1	1	1	C	2	1	459	1	poli_8sides 18_whiteLine3.jpg	MediumShort_e16_cut1_stereo_44KHz.wav
4	149	3	4	2	I	1	0	587	1	poli_8sides 15_whiteLine3.jpg	MediumShort_e22_cut1_stereo_44KHz.wav
4	150	4	3	2	I	1	0	546	1	poli_8sides 8_whiteLine3.jpg	MediumShort_b10_cut1_MS_stereo_44KHz.wav
4	151	1	2	0	C	1	1	621	1	poli_8sides 18_whiteLine3.jpg	MediumShort_b16_cut3_MS_stereo_44KHz.wav
4	152	2	2	1	C	1	0	709	0	poli_8sides 1_whiteLine3.jpg	MediumShort_b16_cut3_MS_stereo_44KHz.wav
4	153	1	2	0	C	1	1	628	1	poli_8sides 18_whiteLine3.jpg	MediumShort_b16_cut3_MS_stereo_44KHz.wav
4	154	3	3	2	I	1	0	445	1	poli_8sides 15_whiteLine3.jpg	MediumShort_b10_cut1_MS_stereo_44KHz.wav
4	155	2	2	1	C	1	0	690	0	poli_8sides 1_whiteLine3.jpg	MediumShort_b16_cut3_MS_stereo_44KHz.wav
4	156	4	3	2	I	2	0	624	1	poli_8sides 8_whiteLine3.jpg	MediumShort_b10_cut1_MS_stereo_44KHz.wav
4	157	2	1	0	C	2	0	476	0	poli_8sides 1_whiteLine3.jpg	MediumShort_e16_cut1_stereo_44KHz.wav
4	158	4	4	2	I	1	0	878	0	poli_8sides 8_whiteLine3.jpg	MediumShort_e22_cut1_stereo_44KHz.wav
4	159	1	1	1	C	1	0	568	0	poli_8sides 18_whiteLine3.jpg	MediumShort_e16_cut1_stereo_44KHz.wav
4	160	3	4	2	I	1	0	484	1	poli_8sides 15_whiteLine3.jpg	MediumShort_e22_cut1_stereo_44KHz.wav
4	161	1	1	1	C	1	0	650	0	poli_8sides 18_whiteLine3.jpg	MediumShort_e16_cut1_stereo_44KHz.wav
4	162	4	4	2	I	1	0	535	0	poli_8sides 8_whiteLine3.jpg	MediumShort_e22_cut1_stereo_44KHz.wav
4	163	3	4	2	I	1	0	620	1	poli_8sides 15_whiteLine3.jpg	MediumShort_e22_cut1_stereo_44KHz.wav
4	164	2	2	1	C	1	0	706	0	poli_8sides 1_whiteLine3.jpg	MediumShort_b16_cut3_MS_stereo_44KHz.wav
4	165	1	2	0	C	2	0	590	0	poli_8sides 18_whiteLine3.jpg	MediumShort_b16_cut3_MS_stereo_44KHz.wav
4	166	4	3	2	I	1	0	569	1	poli_8sides 8_whiteLine3.jpg	MediumShort_b10_cut1_MS_stereo_44KHz.wav
4	167	3	3	2	I	1	0	570	1	poli_8sides 15_whiteLine3.jpg	MediumShort_b10_cut1_MS_stereo_44KHz.wav
4	168	2	1	0	C	1	1	559	1	poli_8sides 1_whiteLine3.jpg	MediumShort_e16_cut1_stereo_44KHz.wav
4	169	3	3	2	I	1	0	339	0	poli_8sides 15_whiteLine3.jpg	MediumShort_b10_cut1_MS_stereo_44KHz.wav
4	170	2	2	1	C	2	1	510	1	poli_8sides 1_whiteLine3.jpg	MediumShort_b16_cut3_MS_stereo_44KHz.wav
4	171	1	1	1	C	2	1	782	1	poli_8sides 18_whiteLine3.jpg	MediumShort_e16_cut1_stereo_44KHz.wav
4	172	4	4	2	I	2	0	534	0	poli_8sides 8_whiteLine3.jpg	MediumShort_e22_cut1_stereo_44KHz.wav
4	173	2	1	0	C	1	1	624	1	poli_8sides 1_whiteLine3.jpg	MediumShort_e16_cut1_stereo_44KHz.wav
4	174	4	3	2	I	1	0	862	0	poli_8sides 8_whiteLine3.jpg	MediumShort_b10_cut1_MS_stereo_44KHz.wav
4	175	3	4	2	I	1	0	1130	0	poli_8sides 15_whiteLine3.jpg	MediumShort_e22_cut1_stereo_44KHz.wav
4	176	1	2	0	C	1	1	549	1	poli_8sides 18_whiteLine3.jpg	MediumShort_b16_cut3_MS_stereo_44KHz.wav
4	177	2	2	1	C	1	0	741	0	poli_8sides 1_whiteLine3.jpg	MediumShort_b16_cut3_MS_stereo_44KHz.wav
4	178	1	2	0	C	2	0	416	0	poli_8sides 18_whiteLine3.jpg	MediumShort_b16_cut3_MS_stereo_44KHz.wav
4	179	3	4	2	I	1	0	555	0	poli_8sides 15_whiteLine3.jpg	MediumShort_e22_cut1_stereo_44KHz.wav
4	180	4	4	2	I	1	0	628	1	poli_8sides 8_whiteLine3.jpg	MediumShort_e22_cut1_stereo_44KHz.wav
4	181	2	1	0	C	1	1	575	1	poli_8sides 1_whiteLine3.jpg	MediumShort_e16_cut1_stereo_44KHz.wav
4	182	3	3	2	I	1	0	676	0	poli_8sides 15_whiteLine3.jpg	MediumShort_b10_cut1_MS_stereo_44KHz.wav
4	183	1	1	1	C	1	0	528	0	poli_8sides 18_whiteLine3.jpg	MediumShort_e16_cut1_stereo_44KHz.wav
4	184	4	3	2	I	2	0	466	1	poli_8sides 8_whiteLine3.jpg	MediumShort_b10_cut1_MS_stereo_44KHz.wav
4	185	1	2	0	C	2	0	483	0	poli_8sides 18_whiteLine3.jpg	MediumShort_b16_cut3_MS_stereo_44KHz.wav
4	186	4	4	2	I	1	0	600	1	poli_8sides 8_whiteLine3.jpg	MediumShort_e22_cut1_stereo_44KHz.wav
4	187	2	2	1	C	1	0	708	0	poli_8sides 1_whiteLine3.jpg	MediumShort_b16_cut3_MS_stereo_44KHz.wav
4	188	3	3	2	I	1	0	539	1	poli_8sides 15_whiteLine3.jpg	MediumShort_b10_cut1_MS_stereo_44KHz.wav
4	189	4	3	2	I	1	0	535	1	poli_8sides 8_whiteLine3.jpg	MediumShort_b10_cut1_MS_stereo_44KHz.wav
4	190	1	1	1	C	1	0	746	0	poli_8sides 18_whiteLine3.jpg	MediumShort_e16_cut1_stereo_44KHz.wav
4	191	2	1	0	C	1	1	532	1	poli_8sides 1_whiteLine3.jpg	MediumShort_e16_cut1_stereo_44KHz.wav
4	192	3	4	2	I	1	0	538	0	poli_8sides 15_whiteLine3.jpg	MediumShort_e22_cut1_stereo_44KHz.wav
4	193	2	2	1	C	1	0	444	0	poli_8sides 1_whiteLine3.jpg	MediumShort_b16_cut3_MS_stereo_44KHz.wav
4	194	1	1	1	C	2	1	392	1	poli_8sides 18_whiteLine3.jpg	MediumShort_e16_cut1_stereo_44KHz.wav
4	195	3	3	2	I	2	0	650	1	poli_8sides 15_whiteLine3.jpg	MediumShort_b10_cut1_MS_stereo_44KHz.wav
4	196	4	3	2	I	2	0	486	0	poli_8sides 8_whiteLine3.jpg	MediumShort_b10_cut1_MS_stereo_44KHz.wav
4	197	1	2	0	C	2	0	323	0	poli_8sides 18_whiteLine3.jpg	MediumShort_b16_cut3_MS_stereo_44KHz.wav
4	198	3	4	2	I	1	0	288	1	poli_8sides 15_whiteLine3.jpg	MediumShort_e22_cut1_stereo_44KHz.wav
4	199	4	4	2	I	1	0	545	1	poli_8sides 8_whiteLine3.jpg	MediumShort_e22_cut1_stereo_44KHz.wav
4	200	2	1	0	C	1	1	638	1	poli_8sides 1_whiteLine3.jpg	MediumShort_e16_cut1_stereo_44KHz.wav
