block	trial	Vstim	Astim	match	C/I	resp	.result	RT	fb	V-file	A-file
LR

0	1	1	1	1	C	2	1	1152	1	Ⴋ	cut_oo_stereo_44KHz.wav
0	2	2	3	1	C	1	0	859	0	Ⴞ	cut_g_stereo_44KHz.wav
0	3	2	4	0	C	2	0	753	0	Ⴞ	cut_ee_stereo_44KHz.wav
0	4	1	2	0	C	2	0	880	0	Ⴋ	cut_eeuw_stereo_44KHz.wav
0	5	1	2	0	C	1	1	1074	1	Ⴋ	cut_eeuw_stereo_44KHz.wav
0	6	2	3	1	C	2	1	992	1	Ⴞ	cut_g_stereo_44KHz.wav
0	7	2	4	0	C	2	0	1106	0	Ⴞ	cut_ee_stereo_44KHz.wav
0	8	1	1	1	C	1	0	639	0	Ⴋ	cut_oo_stereo_44KHz.wav
0	9	2	3	1	C	2	1	764	1	Ⴞ	cut_g_stereo_44KHz.wav
0	10	1	1	1	C	2	1	626	1	Ⴋ	cut_oo_stereo_44KHz.wav
0	11	1	2	0	C	2	0	744	0	Ⴋ	cut_eeuw_stereo_44KHz.wav
0	12	2	4	0	C	1	1	533	1	Ⴞ	cut_ee_stereo_44KHz.wav
0	13	2	4	0	C	1	1	600	1	Ⴞ	cut_ee_stereo_44KHz.wav
0	14	1	1	1	C	1	0	737	0	Ⴋ	cut_oo_stereo_44KHz.wav
0	15	2	3	1	C	1	0	619	0	Ⴞ	cut_g_stereo_44KHz.wav
0	16	1	2	0	C	2	0	915	0	Ⴋ	cut_eeuw_stereo_44KHz.wav
0	17	1	1	1	C	1	0	631	0	Ⴋ	cut_oo_stereo_44KHz.wav
0	18	2	3	1	C	2	1	657	1	Ⴞ	cut_g_stereo_44KHz.wav
0	19	1	2	0	C	2	0	662	0	Ⴋ	cut_eeuw_stereo_44KHz.wav
0	20	2	4	0	C	1	1	656	1	Ⴞ	cut_ee_stereo_44KHz.wav
0	21	2	3	1	C	1	0	710	0	Ⴞ	cut_g_stereo_44KHz.wav
0	22	1	1	1	C	2	1	861	1	Ⴋ	cut_oo_stereo_44KHz.wav
0	23	2	4	0	C	2	0	820	0	Ⴞ	cut_ee_stereo_44KHz.wav
0	24	1	2	0	C	1	1	931	1	Ⴋ	cut_eeuw_stereo_44KHz.wav
0	25	1	2	0	C	1	1	835	1	Ⴋ	cut_eeuw_stereo_44KHz.wav
0	26	2	4	0	C	2	0	708	0	Ⴞ	cut_ee_stereo_44KHz.wav
0	27	2	3	1	C	2	1	1013	1	Ⴞ	cut_g_stereo_44KHz.wav
0	28	1	1	1	C	1	0	913	0	Ⴋ	cut_oo_stereo_44KHz.wav
0	29	1	1	1	C	1	0	737	0	Ⴋ	cut_oo_stereo_44KHz.wav
0	30	2	3	1	C	2	1	839	1	Ⴞ	cut_g_stereo_44KHz.wav
avg_resp = 824
1	1	2	1	0	C	2	0	1105	0	Ⴂ	cut_a_stereo_44KHz.wav
1	2	3	3	2	I	2	0	789	0	Ⴜ	cut_k_stereo_44KHz.wav
1	3	4	3	2	I	2	0	645	0	Ⴡ	cut_k_stereo_44KHz.wav
1	4	1	1	1	C	2	1	718	1	Ⴃ	cut_a_stereo_44KHz.wav
1	5	3	4	2	I	1	0	547	0	Ⴜ	cut_o_stereo_44KHz.wav
1	6	4	4	2	I	2	0	562	1	Ⴡ	cut_o_stereo_44KHz.wav
1	7	2	2	1	C	2	1	629	1	Ⴂ	cut_u_stereo_44KHz.wav
1	8	1	2	0	C	2	0	595	0	Ⴃ	cut_u_stereo_44KHz.wav
1	9	4	3	2	I	2	0	583	1	Ⴡ	cut_k_stereo_44KHz.wav
1	10	1	2	0	C	1	1	511	1	Ⴃ	cut_u_stereo_44KHz.wav
1	11	3	4	2	I	2	0	505	1	Ⴜ	cut_o_stereo_44KHz.wav
1	12	2	2	1	C	1	0	658	0	Ⴂ	cut_u_stereo_44KHz.wav
1	13	1	1	1	C	2	1	438	1	Ⴃ	cut_a_stereo_44KHz.wav
1	14	4	4	2	I	2	0	523	0	Ⴡ	cut_o_stereo_44KHz.wav
1	15	2	1	0	C	1	1	432	1	Ⴂ	cut_a_stereo_44KHz.wav
1	16	3	3	2	I	2	0	547	1	Ⴜ	cut_k_stereo_44KHz.wav
1	17	1	2	0	C	1	1	460	1	Ⴃ	cut_u_stereo_44KHz.wav
1	18	3	3	2	I	2	0	541	0	Ⴜ	cut_k_stereo_44KHz.wav
1	19	2	1	0	C	2	0	481	0	Ⴂ	cut_a_stereo_44KHz.wav
1	20	4	4	2	I	1	0	465	1	Ⴡ	cut_o_stereo_44KHz.wav
1	21	3	4	2	I	1	0	443	0	Ⴜ	cut_o_stereo_44KHz.wav
1	22	1	1	1	C	2	1	377	1	Ⴃ	cut_a_stereo_44KHz.wav
1	23	4	3	2	I	2	0	460	1	Ⴡ	cut_k_stereo_44KHz.wav
1	24	2	2	1	C	2	1	592	1	Ⴂ	cut_u_stereo_44KHz.wav
1	25	1	2	0	C	1	1	362	1	Ⴃ	cut_u_stereo_44KHz.wav
1	26	4	4	2	I	1	0	438	1	Ⴡ	cut_o_stereo_44KHz.wav
1	27	3	4	2	I	1	0	503	0	Ⴜ	cut_o_stereo_44KHz.wav
1	28	2	1	0	C	2	0	400	0	Ⴂ	cut_a_stereo_44KHz.wav
1	29	1	1	1	C	1	0	396	0	Ⴃ	cut_a_stereo_44KHz.wav
1	30	4	3	2	I	2	0	432	1	Ⴡ	cut_k_stereo_44KHz.wav
1	31	2	2	1	C	2	1	539	1	Ⴂ	cut_u_stereo_44KHz.wav
1	32	3	3	2	I	2	0	549	1	Ⴜ	cut_k_stereo_44KHz.wav
1	33	1	2	0	C	2	0	435	0	Ⴃ	cut_u_stereo_44KHz.wav
1	34	4	3	2	I	1	0	407	0	Ⴡ	cut_k_stereo_44KHz.wav
1	35	3	3	2	I	2	0	750	0	Ⴜ	cut_k_stereo_44KHz.wav
1	36	2	2	1	C	1	0	402	0	Ⴂ	cut_u_stereo_44KHz.wav
1	37	4	4	2	I	1	0	454	0	Ⴡ	cut_o_stereo_44KHz.wav
1	38	1	1	1	C	1	0	341	0	Ⴃ	cut_a_stereo_44KHz.wav
1	39	3	4	2	I	2	0	459	0	Ⴜ	cut_o_stereo_44KHz.wav
1	40	2	1	0	C	1	1	375	1	Ⴂ	cut_a_stereo_44KHz.wav
1	41	1	2	0	C	1	1	409	1	Ⴃ	cut_u_stereo_44KHz.wav
1	42	2	1	0	C	1	1	426	1	Ⴂ	cut_a_stereo_44KHz.wav
1	43	3	3	2	I	2	0	797	0	Ⴜ	cut_k_stereo_44KHz.wav
1	44	4	3	2	I	1	0	373	1	Ⴡ	cut_k_stereo_44KHz.wav
1	45	3	4	2	I	1	0	483	1	Ⴜ	cut_o_stereo_44KHz.wav
1	46	1	1	1	C	1	0	377	0	Ⴃ	cut_a_stereo_44KHz.wav
1	47	2	2	1	C	2	1	346	1	Ⴂ	cut_u_stereo_44KHz.wav
1	48	4	4	2	I	2	0	354	0	Ⴡ	cut_o_stereo_44KHz.wav
1	49	1	1	1	C	2	1	413	1	Ⴃ	cut_a_stereo_44KHz.wav
1	50	2	1	0	C	2	0	386	0	Ⴂ	cut_a_stereo_44KHz.wav
1	51	4	4	2	I	1	0	384	0	Ⴡ	cut_o_stereo_44KHz.wav
1	52	3	3	2	I	2	0	478	0	Ⴜ	cut_k_stereo_44KHz.wav
1	53	2	2	1	C	2	1	473	1	Ⴂ	cut_u_stereo_44KHz.wav
1	54	1	2	0	C	2	0	441	0	Ⴃ	cut_u_stereo_44KHz.wav
1	55	3	4	2	I	1	0	366	1	Ⴜ	cut_o_stereo_44KHz.wav
1	56	4	3	2	I	1	0	445	0	Ⴡ	cut_k_stereo_44KHz.wav
1	57	3	3	2	I	2	0	346	1	Ⴜ	cut_k_stereo_44KHz.wav
1	58	1	2	0	C	2	0	392	0	Ⴃ	cut_u_stereo_44KHz.wav
1	59	4	3	2	I	2	0	369	1	Ⴡ	cut_k_stereo_44KHz.wav
1	60	2	2	1	C	1	0	402	0	Ⴂ	cut_u_stereo_44KHz.wav
1	61	3	4	2	I	2	0	368	0	Ⴜ	cut_o_stereo_44KHz.wav
1	62	2	1	0	C	1	1	396	1	Ⴂ	cut_a_stereo_44KHz.wav
1	63	4	4	2	I	1	0	474	0	Ⴡ	cut_o_stereo_44KHz.wav
1	64	1	1	1	C	2	1	358	1	Ⴃ	cut_a_stereo_44KHz.wav
1	65	2	1	0	C	2	0	469	0	Ⴂ	cut_a_stereo_44KHz.wav
1	66	3	4	2	I	1	0	619	1	Ⴜ	cut_o_stereo_44KHz.wav
1	67	4	4	2	I	1	0	448	1	Ⴡ	cut_o_stereo_44KHz.wav
1	68	1	2	0	C	1	1	483	1	Ⴃ	cut_u_stereo_44KHz.wav
1	69	2	2	1	C	1	0	451	0	Ⴂ	cut_u_stereo_44KHz.wav
1	70	3	3	2	I	2	0	377	1	Ⴜ	cut_k_stereo_44KHz.wav
1	71	1	1	1	C	2	1	605	1	Ⴃ	cut_a_stereo_44KHz.wav
1	72	4	3	2	I	2	0	442	0	Ⴡ	cut_k_stereo_44KHz.wav
1	73	1	2	0	C	1	1	274	1	Ⴃ	cut_u_stereo_44KHz.wav
1	74	2	2	1	C	1	0	643	0	Ⴂ	cut_u_stereo_44KHz.wav
1	75	4	4	2	I	1	0	422	1	Ⴡ	cut_o_stereo_44KHz.wav
1	76	3	3	2	I	1	0	392	1	Ⴜ	cut_k_stereo_44KHz.wav
1	77	2	1	0	C	1	1	364	1	Ⴂ	cut_a_stereo_44KHz.wav
1	78	4	3	2	I	1	0	388	1	Ⴡ	cut_k_stereo_44KHz.wav
1	79	1	1	1	C	1	0	422	0	Ⴃ	cut_a_stereo_44KHz.wav
1	80	3	4	2	I	2	0	440	1	Ⴜ	cut_o_stereo_44KHz.wav
1	81	1	2	0	C	1	1	400	1	Ⴃ	cut_u_stereo_44KHz.wav
1	82	2	1	0	C	1	1	466	1	Ⴂ	cut_a_stereo_44KHz.wav
1	83	3	3	2	I	1	0	565	1	Ⴜ	cut_k_stereo_44KHz.wav
1	84	4	4	2	I	1	0	430	1	Ⴡ	cut_o_stereo_44KHz.wav
1	85	2	2	1	C	1	0	576	0	Ⴂ	cut_u_stereo_44KHz.wav
1	86	4	3	2	I	2	0	421	0	Ⴡ	cut_k_stereo_44KHz.wav
1	87	1	1	1	C	1	0	381	0	Ⴃ	cut_a_stereo_44KHz.wav
1	88	3	4	2	I	2	0	434	1	Ⴜ	cut_o_stereo_44KHz.wav
1	89	4	4	2	I	2	0	402	1	Ⴡ	cut_o_stereo_44KHz.wav
1	90	1	1	1	C	2	1	373	1	Ⴃ	cut_a_stereo_44KHz.wav
1	91	2	1	0	C	2	0	503	0	Ⴂ	cut_a_stereo_44KHz.wav
1	92	3	4	2	I	1	0	330	0	Ⴜ	cut_o_stereo_44KHz.wav
1	93	1	2	0	C	2	0	277	0	Ⴃ	cut_u_stereo_44KHz.wav
1	94	3	3	2	I	1	0	460	1	Ⴜ	cut_k_stereo_44KHz.wav
1	95	2	2	1	C	1	0	470	0	Ⴂ	cut_u_stereo_44KHz.wav
1	96	4	3	2	I	2	0	402	0	Ⴡ	cut_k_stereo_44KHz.wav
1	97	3	4	2	I	1	0	394	0	Ⴜ	cut_o_stereo_44KHz.wav
1	98	4	3	2	I	2	0	328	0	Ⴡ	cut_k_stereo_44KHz.wav
1	99	1	1	1	C	1	0	923	0	Ⴃ	cut_a_stereo_44KHz.wav
1	100	2	1	0	C	2	0	513	0	Ⴂ	cut_a_stereo_44KHz.wav
1	101	3	3	2	I	2	0	223	1	Ⴜ	cut_k_stereo_44KHz.wav
1	102	2	2	1	C	2	1	494	1	Ⴂ	cut_u_stereo_44KHz.wav
1	103	4	4	2	I	2	0	409	1	Ⴡ	cut_o_stereo_44KHz.wav
1	104	1	2	0	C	2	0	416	0	Ⴃ	cut_u_stereo_44KHz.wav
1	105	4	4	2	I	2	0	426	0	Ⴡ	cut_o_stereo_44KHz.wav
1	106	1	2	0	C	1	1	467	1	Ⴃ	cut_u_stereo_44KHz.wav
1	107	2	2	1	C	2	1	533	1	Ⴂ	cut_u_stereo_44KHz.wav
1	108	3	4	2	I	2	0	714	1	Ⴜ	cut_o_stereo_44KHz.wav
1	109	4	3	2	I	2	0	483	0	Ⴡ	cut_k_stereo_44KHz.wav
1	110	2	1	0	C	1	1	484	1	Ⴂ	cut_a_stereo_44KHz.wav
1	111	3	3	2	I	1	0	595	0	Ⴜ	cut_k_stereo_44KHz.wav
1	112	1	1	1	C	2	1	254	1	Ⴃ	cut_a_stereo_44KHz.wav
1	113	3	3	2	I	2	0	415	0	Ⴜ	cut_k_stereo_44KHz.wav
1	114	1	1	1	C	2	1	745	1	Ⴃ	cut_a_stereo_44KHz.wav
1	115	4	4	2	I	2	0	381	1	Ⴡ	cut_o_stereo_44KHz.wav
1	116	2	1	0	C	2	0	462	0	Ⴂ	cut_a_stereo_44KHz.wav
1	117	4	3	2	I	2	0	297	1	Ⴡ	cut_k_stereo_44KHz.wav
1	118	2	2	1	C	2	1	454	1	Ⴂ	cut_u_stereo_44KHz.wav
1	119	1	2	0	C	1	1	556	1	Ⴃ	cut_u_stereo_44KHz.wav
1	120	3	4	2	I	1	0	497	0	Ⴜ	cut_o_stereo_44KHz.wav
1	121	4	3	2	I	2	0	346	1	Ⴡ	cut_k_stereo_44KHz.wav
1	122	1	2	0	C	1	1	418	1	Ⴃ	cut_u_stereo_44KHz.wav
1	123	3	3	2	I	1	0	418	1	Ⴜ	cut_k_stereo_44KHz.wav
1	124	2	2	1	C	1	0	383	0	Ⴂ	cut_u_stereo_44KHz.wav
1	125	3	4	2	I	2	0	438	0	Ⴜ	cut_o_stereo_44KHz.wav
1	126	1	1	1	C	2	1	814	1	Ⴃ	cut_a_stereo_44KHz.wav
1	127	2	1	0	C	2	0	454	0	Ⴂ	cut_a_stereo_44KHz.wav
1	128	4	4	2	I	1	0	468	0	Ⴡ	cut_o_stereo_44KHz.wav
1	129	1	1	1	C	2	1	840	1	Ⴃ	cut_a_stereo_44KHz.wav
1	130	3	3	2	I	2	0	405	1	Ⴜ	cut_k_stereo_44KHz.wav
1	131	4	4	2	I	2	0	474	0	Ⴡ	cut_o_stereo_44KHz.wav
1	132	2	2	1	C	2	1	488	1	Ⴂ	cut_u_stereo_44KHz.wav
1	133	1	2	0	C	1	1	487	1	Ⴃ	cut_u_stereo_44KHz.wav
1	134	4	3	2	I	2	0	413	0	Ⴡ	cut_k_stereo_44KHz.wav
1	135	3	4	2	I	2	0	426	0	Ⴜ	cut_o_stereo_44KHz.wav
1	136	2	1	0	C	1	1	428	1	Ⴂ	cut_a_stereo_44KHz.wav
1	137	1	1	1	C	2	1	803	1	Ⴃ	cut_a_stereo_44KHz.wav
1	138	3	3	2	I	2	0	384	0	Ⴜ	cut_k_stereo_44KHz.wav
1	139	2	1	0	C	2	0	380	0	Ⴂ	cut_a_stereo_44KHz.wav
1	140	4	3	2	I	1	0	466	1	Ⴡ	cut_k_stereo_44KHz.wav
1	141	3	4	2	I	1	0	598	0	Ⴜ	cut_o_stereo_44KHz.wav
1	142	2	2	1	C	1	0	496	0	Ⴂ	cut_u_stereo_44KHz.wav
1	143	1	2	0	C	1	1	826	1	Ⴃ	cut_u_stereo_44KHz.wav
1	144	4	4	2	I	2	0	470	0	Ⴡ	cut_o_stereo_44KHz.wav
1	145	3	3	2	I	2	0	436	1	Ⴜ	cut_k_stereo_44KHz.wav
1	146	2	2	1	C	2	1	416	1	Ⴂ	cut_u_stereo_44KHz.wav
1	147	1	2	0	C	1	1	562	1	Ⴃ	cut_u_stereo_44KHz.wav
1	148	4	3	2	I	2	0	393	1	Ⴡ	cut_k_stereo_44KHz.wav
1	149	1	1	1	C	1	0	508	0	Ⴃ	cut_a_stereo_44KHz.wav
1	150	3	4	2	I	2	0	400	0	Ⴜ	cut_o_stereo_44KHz.wav
1	151	4	4	2	I	2	0	513	0	Ⴡ	cut_o_stereo_44KHz.wav
1	152	2	1	0	C	2	0	510	0	Ⴂ	cut_a_stereo_44KHz.wav
1	153	1	1	1	C	1	0	536	0	Ⴃ	cut_a_stereo_44KHz.wav
1	154	3	3	2	I	2	0	521	0	Ⴜ	cut_k_stereo_44KHz.wav
1	155	4	3	2	I	1	0	600	0	Ⴡ	cut_k_stereo_44KHz.wav
1	156	2	2	1	C	2	1	456	1	Ⴂ	cut_u_stereo_44KHz.wav
1	157	4	4	2	I	2	0	450	0	Ⴡ	cut_o_stereo_44KHz.wav
1	158	3	4	2	I	2	0	447	0	Ⴜ	cut_o_stereo_44KHz.wav
1	159	1	2	0	C	1	1	631	1	Ⴃ	cut_u_stereo_44KHz.wav
1	160	2	1	0	C	2	0	442	0	Ⴂ	cut_a_stereo_44KHz.wav
1	161	1	1	1	C	1	0	574	0	Ⴃ	cut_a_stereo_44KHz.wav
1	162	3	4	2	I	2	0	605	0	Ⴜ	cut_o_stereo_44KHz.wav
1	163	2	1	0	C	2	0	568	0	Ⴂ	cut_a_stereo_44KHz.wav
1	164	4	4	2	I	1	0	649	1	Ⴡ	cut_o_stereo_44KHz.wav
1	165	3	3	2	I	2	0	500	1	Ⴜ	cut_k_stereo_44KHz.wav
1	166	2	2	1	C	2	1	427	1	Ⴂ	cut_u_stereo_44KHz.wav
1	167	4	3	2	I	2	0	503	1	Ⴡ	cut_k_stereo_44KHz.wav
1	168	1	2	0	C	1	1	555	1	Ⴃ	cut_u_stereo_44KHz.wav
1	169	3	4	2	I	2	0	441	1	Ⴜ	cut_o_stereo_44KHz.wav
1	170	4	3	2	I	2	0	439	1	Ⴡ	cut_k_stereo_44KHz.wav
1	171	1	2	0	C	1	1	766	1	Ⴃ	cut_u_stereo_44KHz.wav
1	172	2	2	1	C	2	1	465	1	Ⴂ	cut_u_stereo_44KHz.wav
1	173	3	3	2	I	2	0	452	1	Ⴜ	cut_k_stereo_44KHz.wav
1	174	4	4	2	I	1	0	455	0	Ⴡ	cut_o_stereo_44KHz.wav
1	175	1	1	1	C	2	1	828	1	Ⴃ	cut_a_stereo_44KHz.wav
1	176	2	1	0	C	2	0	594	0	Ⴂ	cut_a_stereo_44KHz.wav
1	177	4	3	2	I	1	0	440	0	Ⴡ	cut_k_stereo_44KHz.wav
1	178	3	4	2	I	2	0	514	1	Ⴜ	cut_o_stereo_44KHz.wav
1	179	1	2	0	C	1	1	569	1	Ⴃ	cut_u_stereo_44KHz.wav
1	180	2	1	0	C	2	0	586	0	Ⴂ	cut_a_stereo_44KHz.wav
1	181	3	3	2	I	1	0	771	0	Ⴜ	cut_k_stereo_44KHz.wav
1	182	1	1	1	C	2	1	1008	1	Ⴃ	cut_a_stereo_44KHz.wav
1	183	2	2	1	C	2	1	412	1	Ⴂ	cut_u_stereo_44KHz.wav
1	184	4	4	2	I	2	0	387	1	Ⴡ	cut_o_stereo_44KHz.wav
1	185	3	3	2	I	2	0	457	0	Ⴜ	cut_k_stereo_44KHz.wav
1	186	2	1	0	C	2	0	471	0	Ⴂ	cut_a_stereo_44KHz.wav
1	187	4	3	2	I	1	0	475	1	Ⴡ	cut_k_stereo_44KHz.wav
1	188	1	2	0	C	1	1	563	1	Ⴃ	cut_u_stereo_44KHz.wav
1	189	2	2	1	C	2	1	439	1	Ⴂ	cut_u_stereo_44KHz.wav
1	190	4	4	2	I	2	0	456	0	Ⴡ	cut_o_stereo_44KHz.wav
1	191	3	4	2	I	2	0	459	1	Ⴜ	cut_o_stereo_44KHz.wav
1	192	1	1	1	C	1	0	528	0	Ⴃ	cut_a_stereo_44KHz.wav
1	193	2	1	0	C	2	0	434	0	Ⴂ	cut_a_stereo_44KHz.wav
1	194	4	4	2	I	2	0	431	1	Ⴡ	cut_o_stereo_44KHz.wav
1	195	1	2	0	C	1	1	642	1	Ⴃ	cut_u_stereo_44KHz.wav
1	196	3	4	2	I	2	0	793	1	Ⴜ	cut_o_stereo_44KHz.wav
1	197	2	2	1	C	2	1	444	1	Ⴂ	cut_u_stereo_44KHz.wav
1	198	1	1	1	C	1	0	597	0	Ⴃ	cut_a_stereo_44KHz.wav
1	199	3	3	2	I	2	0	425	1	Ⴜ	cut_k_stereo_44KHz.wav
1	200	4	3	2	I	2	0	502	0	Ⴡ	cut_k_stereo_44KHz.wav
2	1	4	3	2	I	2	0	1179	1	Ⴟ	cut_ei_stereo_44KHz.wav
2	2	2	1	0	C	2	0	827	0	Ⴁ	cut_r_stereo_44KHz.wav
2	3	1	1	1	C	1	0	538	0	Ⴊ	cut_r_stereo_44KHz.wav
2	4	3	3	2	I	2	0	371	1	Ⴇ	cut_ei_stereo_44KHz.wav
2	5	1	2	0	C	2	0	480	0	Ⴊ	cut_n_stereo_44KHz.wav
2	6	4	4	2	I	1	0	542	1	Ⴟ	cut_j_stereo_44KHz.wav
2	7	2	2	1	C	1	0	635	0	Ⴁ	cut_n_stereo_44KHz.wav
2	8	3	4	2	I	2	0	536	1	Ⴇ	cut_j_stereo_44KHz.wav
2	9	4	4	2	I	2	0	922	1	Ⴟ	cut_j_stereo_44KHz.wav
2	10	1	2	0	C	2	0	813	0	Ⴊ	cut_n_stereo_44KHz.wav
2	11	2	2	1	C	1	0	499	0	Ⴁ	cut_n_stereo_44KHz.wav
2	12	3	3	2	I	2	0	185	1	Ⴇ	cut_ei_stereo_44KHz.wav
2	13	2	1	0	C	2	0	705	0	Ⴁ	cut_r_stereo_44KHz.wav
2	14	3	4	2	I	2	0	926	1	Ⴇ	cut_j_stereo_44KHz.wav
2	15	1	1	1	C	1	0	609	0	Ⴊ	cut_r_stereo_44KHz.wav
2	16	4	3	2	I	2	0	872	0	Ⴟ	cut_ei_stereo_44KHz.wav
2	17	3	4	2	I	1	0	778	1	Ⴇ	cut_j_stereo_44KHz.wav
2	18	4	3	2	I	2	0	651	0	Ⴟ	cut_ei_stereo_44KHz.wav
2	19	2	2	1	C	1	0	615	0	Ⴁ	cut_n_stereo_44KHz.wav
2	20	1	2	0	C	2	0	902	0	Ⴊ	cut_n_stereo_44KHz.wav
2	21	2	1	0	C	1	1	638	1	Ⴁ	cut_r_stereo_44KHz.wav
2	22	4	4	2	I	1	0	907	0	Ⴟ	cut_j_stereo_44KHz.wav
2	23	3	3	2	I	2	0	815	1	Ⴇ	cut_ei_stereo_44KHz.wav
2	24	1	1	1	C	2	1	792	1	Ⴊ	cut_r_stereo_44KHz.wav
2	25	2	1	0	C	2	0	708	0	Ⴁ	cut_r_stereo_44KHz.wav
2	26	4	4	2	I	1	0	764	1	Ⴟ	cut_j_stereo_44KHz.wav
2	27	1	2	0	C	1	1	761	1	Ⴊ	cut_n_stereo_44KHz.wav
2	28	3	4	2	I	1	0	694	0	Ⴇ	cut_j_stereo_44KHz.wav
2	29	1	1	1	C	2	1	471	1	Ⴊ	cut_r_stereo_44KHz.wav
2	30	2	2	1	C	2	1	556	1	Ⴁ	cut_n_stereo_44KHz.wav
2	31	4	3	2	I	2	0	688	1	Ⴟ	cut_ei_stereo_44KHz.wav
2	32	3	3	2	I	2	0	673	1	Ⴇ	cut_ei_stereo_44KHz.wav
2	33	4	4	2	I	2	0	571	0	Ⴟ	cut_j_stereo_44KHz.wav
2	34	3	4	2	I	1	0	510	0	Ⴇ	cut_j_stereo_44KHz.wav
2	35	1	1	1	C	2	1	590	1	Ⴊ	cut_r_stereo_44KHz.wav
2	36	2	1	0	C	2	0	1069	0	Ⴁ	cut_r_stereo_44KHz.wav
2	37	3	3	2	I	1	0	412	1	Ⴇ	cut_ei_stereo_44KHz.wav
2	38	4	3	2	I	1	0	670	1	Ⴟ	cut_ei_stereo_44KHz.wav
2	39	2	2	1	C	1	0	712	0	Ⴁ	cut_n_stereo_44KHz.wav
2	40	1	2	0	C	2	0	509	0	Ⴊ	cut_n_stereo_44KHz.wav
2	41	2	2	1	C	1	0	317	0	Ⴁ	cut_n_stereo_44KHz.wav
2	42	4	3	2	I	2	0	439	0	Ⴟ	cut_ei_stereo_44KHz.wav
2	43	1	2	0	C	1	1	453	1	Ⴊ	cut_n_stereo_44KHz.wav
2	44	3	4	2	I	2	0	646	0	Ⴇ	cut_j_stereo_44KHz.wav
2	45	1	1	1	C	1	0	609	0	Ⴊ	cut_r_stereo_44KHz.wav
2	46	2	1	0	C	2	0	799	0	Ⴁ	cut_r_stereo_44KHz.wav
2	47	3	3	2	I	1	0	506	0	Ⴇ	cut_ei_stereo_44KHz.wav
2	48	4	4	2	I	2	0	756	0	Ⴟ	cut_j_stereo_44KHz.wav
2	49	1	2	0	C	2	0	753	0	Ⴊ	cut_n_stereo_44KHz.wav
2	50	3	4	2	I	2	0	975	0	Ⴇ	cut_j_stereo_44KHz.wav
2	51	2	2	1	C	1	0	362	0	Ⴁ	cut_n_stereo_44KHz.wav
2	52	4	4	2	I	1	0	650	1	Ⴟ	cut_j_stereo_44KHz.wav
2	53	2	1	0	C	1	1	691	1	Ⴁ	cut_r_stereo_44KHz.wav
2	54	3	3	2	I	1	0	512	1	Ⴇ	cut_ei_stereo_44KHz.wav
2	55	4	3	2	I	1	0	636	1	Ⴟ	cut_ei_stereo_44KHz.wav
2	56	1	1	1	C	1	0	669	0	Ⴊ	cut_r_stereo_44KHz.wav
2	57	4	4	2	I	1	0	468	0	Ⴟ	cut_j_stereo_44KHz.wav
2	58	2	2	1	C	2	1	632	1	Ⴁ	cut_n_stereo_44KHz.wav
2	59	3	3	2	I	2	0	660	0	Ⴇ	cut_ei_stereo_44KHz.wav
2	60	1	1	1	C	1	0	683	0	Ⴊ	cut_r_stereo_44KHz.wav
2	61	4	3	2	I	2	0	484	1	Ⴟ	cut_ei_stereo_44KHz.wav
2	62	1	2	0	C	2	0	692	0	Ⴊ	cut_n_stereo_44KHz.wav
2	63	3	4	2	I	1	0	387	1	Ⴇ	cut_j_stereo_44KHz.wav
2	64	2	1	0	C	1	1	591	1	Ⴁ	cut_r_stereo_44KHz.wav
2	65	1	1	1	C	1	0	591	0	Ⴊ	cut_r_stereo_44KHz.wav
2	66	4	3	2	I	1	0	680	0	Ⴟ	cut_ei_stereo_44KHz.wav
2	67	2	1	0	C	2	0	572	0	Ⴁ	cut_r_stereo_44KHz.wav
2	68	3	4	2	I	1	0	640	0	Ⴇ	cut_j_stereo_44KHz.wav
2	69	2	2	1	C	2	1	781	1	Ⴁ	cut_n_stereo_44KHz.wav
2	70	4	4	2	I	2	0	731	0	Ⴟ	cut_j_stereo_44KHz.wav
2	71	1	2	0	C	2	0	547	0	Ⴊ	cut_n_stereo_44KHz.wav
2	72	3	3	2	I	1	0	599	1	Ⴇ	cut_ei_stereo_44KHz.wav
2	73	1	2	0	C	1	1	628	1	Ⴊ	cut_n_stereo_44KHz.wav
2	74	4	3	2	I	1	0	764	1	Ⴟ	cut_ei_stereo_44KHz.wav
2	75	2	1	0	C	1	1	611	1	Ⴁ	cut_r_stereo_44KHz.wav
2	76	3	3	2	I	1	0	725	0	Ⴇ	cut_ei_stereo_44KHz.wav
2	77	2	2	1	C	2	1	626	1	Ⴁ	cut_n_stereo_44KHz.wav
2	78	1	1	1	C	2	1	230	1	Ⴊ	cut_r_stereo_44KHz.wav
2	79	4	4	2	I	2	0	548	0	Ⴟ	cut_j_stereo_44KHz.wav
2	80	3	4	2	I	1	0	572	0	Ⴇ	cut_j_stereo_44KHz.wav
2	81	1	2	0	C	1	1	579	1	Ⴊ	cut_n_stereo_44KHz.wav
2	82	2	2	1	C	2	1	537	1	Ⴁ	cut_n_stereo_44KHz.wav
2	83	4	4	2	I	1	0	600	1	Ⴟ	cut_j_stereo_44KHz.wav
2	84	3	4	2	I	1	0	521	0	Ⴇ	cut_j_stereo_44KHz.wav
2	85	1	1	1	C	2	1	758	1	Ⴊ	cut_r_stereo_44KHz.wav
2	86	3	3	2	I	2	0	641	0	Ⴇ	cut_ei_stereo_44KHz.wav
2	87	2	1	0	C	1	1	501	1	Ⴁ	cut_r_stereo_44KHz.wav
2	88	4	3	2	I	1	0	545	1	Ⴟ	cut_ei_stereo_44KHz.wav
2	89	3	4	2	I	1	0	548	1	Ⴇ	cut_j_stereo_44KHz.wav
2	90	2	2	1	C	1	0	674	0	Ⴁ	cut_n_stereo_44KHz.wav
2	91	1	1	1	C	1	0	606	0	Ⴊ	cut_r_stereo_44KHz.wav
2	92	4	4	2	I	2	0	1001	1	Ⴟ	cut_j_stereo_44KHz.wav
2	93	3	3	2	I	2	0	597	1	Ⴇ	cut_ei_stereo_44KHz.wav
2	94	4	3	2	I	2	0	462	1	Ⴟ	cut_ei_stereo_44KHz.wav
2	95	1	2	0	C	2	0	487	0	Ⴊ	cut_n_stereo_44KHz.wav
2	96	2	1	0	C	1	1	475	1	Ⴁ	cut_r_stereo_44KHz.wav
2	97	1	1	1	C	1	0	816	0	Ⴊ	cut_r_stereo_44KHz.wav
2	98	4	3	2	I	2	0	371	1	Ⴟ	cut_ei_stereo_44KHz.wav
2	99	3	4	2	I	2	0	489	0	Ⴇ	cut_j_stereo_44KHz.wav
2	100	2	2	1	C	2	1	401	1	Ⴁ	cut_n_stereo_44KHz.wav
2	101	3	3	2	I	2	0	511	0	Ⴇ	cut_ei_stereo_44KHz.wav
2	102	4	4	2	I	1	0	363	0	Ⴟ	cut_j_stereo_44KHz.wav
2	103	1	2	0	C	2	0	480	0	Ⴊ	cut_n_stereo_44KHz.wav
2	104	2	1	0	C	2	0	536	0	Ⴁ	cut_r_stereo_44KHz.wav
2	105	1	2	0	C	1	1	419	1	Ⴊ	cut_n_stereo_44KHz.wav
2	106	3	4	2	I	1	0	757	1	Ⴇ	cut_j_stereo_44KHz.wav
2	107	4	4	2	I	1	0	462	0	Ⴟ	cut_j_stereo_44KHz.wav
2	108	2	2	1	C	1	0	687	0	Ⴁ	cut_n_stereo_44KHz.wav
2	109	4	3	2	I	2	0	588	1	Ⴟ	cut_ei_stereo_44KHz.wav
2	110	2	1	0	C	2	0	627	0	Ⴁ	cut_r_stereo_44KHz.wav
2	111	1	1	1	C	1	0	917	0	Ⴊ	cut_r_stereo_44KHz.wav
2	112	3	3	2	I	2	0	569	0	Ⴇ	cut_ei_stereo_44KHz.wav
2	113	2	1	0	C	1	1	706	1	Ⴁ	cut_r_stereo_44KHz.wav
2	114	4	4	2	I	1	0	746	0	Ⴟ	cut_j_stereo_44KHz.wav
2	115	1	2	0	C	2	0	1077	0	Ⴊ	cut_n_stereo_44KHz.wav
2	116	3	3	2	I	1	0	401	0	Ⴇ	cut_ei_stereo_44KHz.wav
2	117	4	3	2	I	2	0	491	1	Ⴟ	cut_ei_stereo_44KHz.wav
2	118	3	4	2	I	2	0	558	1	Ⴇ	cut_j_stereo_44KHz.wav
2	119	1	1	1	C	1	0	576	0	Ⴊ	cut_r_stereo_44KHz.wav
2	120	2	2	1	C	2	1	541	1	Ⴁ	cut_n_stereo_44KHz.wav
2	121	1	1	1	C	2	1	592	1	Ⴊ	cut_r_stereo_44KHz.wav
2	122	3	3	2	I	2	0	491	0	Ⴇ	cut_ei_stereo_44KHz.wav
2	123	2	1	0	C	1	1	211	1	Ⴁ	cut_r_stereo_44KHz.wav
2	124	4	4	2	I	1	0	410	0	Ⴟ	cut_j_stereo_44KHz.wav
2	125	2	2	1	C	2	1	471	1	Ⴁ	cut_n_stereo_44KHz.wav
2	126	3	4	2	I	2	0	671	0	Ⴇ	cut_j_stereo_44KHz.wav
2	127	1	2	0	C	2	0	637	0	Ⴊ	cut_n_stereo_44KHz.wav
2	128	4	3	2	I	1	0	579	1	Ⴟ	cut_ei_stereo_44KHz.wav
2	129	2	2	1	C	1	0	775	0	Ⴁ	cut_n_stereo_44KHz.wav
2	130	3	3	2	I	1	0	632	0	Ⴇ	cut_ei_stereo_44KHz.wav
2	131	1	1	1	C	2	1	571	1	Ⴊ	cut_r_stereo_44KHz.wav
2	132	4	4	2	I	2	0	996	0	Ⴟ	cut_j_stereo_44KHz.wav
2	133	2	1	0	C	1	1	579	1	Ⴁ	cut_r_stereo_44KHz.wav
2	134	1	2	0	C	1	1	754	1	Ⴊ	cut_n_stereo_44KHz.wav
2	135	4	3	2	I	2	0	669	1	Ⴟ	cut_ei_stereo_44KHz.wav
2	136	3	4	2	I	2	0	632	1	Ⴇ	cut_j_stereo_44KHz.wav
2	137	1	1	1	C	1	0	556	0	Ⴊ	cut_r_stereo_44KHz.wav
2	138	2	1	0	C	2	0	750	0	Ⴁ	cut_r_stereo_44KHz.wav
2	139	4	4	2	I	2	0	733	1	Ⴟ	cut_j_stereo_44KHz.wav
2	140	3	3	2	I	2	0	873	1	Ⴇ	cut_ei_stereo_44KHz.wav
2	141	2	2	1	C	2	1	711	1	Ⴁ	cut_n_stereo_44KHz.wav
2	142	3	4	2	I	2	0	683	1	Ⴇ	cut_j_stereo_44KHz.wav
2	143	4	3	2	I	2	0	580	0	Ⴟ	cut_ei_stereo_44KHz.wav
2	144	1	2	0	C	1	1	469	1	Ⴊ	cut_n_stereo_44KHz.wav
2	145	3	3	2	I	1	0	522	0	Ⴇ	cut_ei_stereo_44KHz.wav
2	146	1	2	0	C	2	0	681	0	Ⴊ	cut_n_stereo_44KHz.wav
2	147	4	4	2	I	1	0	450	1	Ⴟ	cut_j_stereo_44KHz.wav
2	148	2	1	0	C	1	1	694	1	Ⴁ	cut_r_stereo_44KHz.wav
2	149	3	4	2	I	1	0	625	1	Ⴇ	cut_j_stereo_44KHz.wav
2	150	2	2	1	C	1	0	617	0	Ⴁ	cut_n_stereo_44KHz.wav
2	151	1	1	1	C	2	1	558	1	Ⴊ	cut_r_stereo_44KHz.wav
2	152	4	3	2	I	2	0	582	0	Ⴟ	cut_ei_stereo_44KHz.wav
2	153	2	1	0	C	1	1	673	1	Ⴁ	cut_r_stereo_44KHz.wav
2	154	4	3	2	I	1	0	603	1	Ⴟ	cut_ei_stereo_44KHz.wav
2	155	1	1	1	C	1	0	649	0	Ⴊ	cut_r_stereo_44KHz.wav
2	156	3	4	2	I	1	0	451	1	Ⴇ	cut_j_stereo_44KHz.wav
2	157	2	2	1	C	1	0	589	0	Ⴁ	cut_n_stereo_44KHz.wav
2	158	4	4	2	I	2	0	638	0	Ⴟ	cut_j_stereo_44KHz.wav
2	159	3	3	2	I	1	0	526	0	Ⴇ	cut_ei_stereo_44KHz.wav
2	160	1	2	0	C	2	0	637	0	Ⴊ	cut_n_stereo_44KHz.wav
2	161	4	3	2	I	1	0	606	1	Ⴟ	cut_ei_stereo_44KHz.wav
2	162	3	4	2	I	1	0	628	0	Ⴇ	cut_j_stereo_44KHz.wav
2	163	2	2	1	C	1	0	558	0	Ⴁ	cut_n_stereo_44KHz.wav
2	164	1	1	1	C	2	1	630	1	Ⴊ	cut_r_stereo_44KHz.wav
2	165	2	1	0	C	2	0	889	0	Ⴁ	cut_r_stereo_44KHz.wav
2	166	3	3	2	I	1	0	572	0	Ⴇ	cut_ei_stereo_44KHz.wav
2	167	1	2	0	C	1	1	446	1	Ⴊ	cut_n_stereo_44KHz.wav
2	168	4	4	2	I	1	0	703	1	Ⴟ	cut_j_stereo_44KHz.wav
2	169	2	2	1	C	1	0	721	0	Ⴁ	cut_n_stereo_44KHz.wav
2	170	3	3	2	I	2	0	504	1	Ⴇ	cut_ei_stereo_44KHz.wav
2	171	4	4	2	I	2	0	718	0	Ⴟ	cut_j_stereo_44KHz.wav
2	172	1	2	0	C	1	1	541	1	Ⴊ	cut_n_stereo_44KHz.wav
2	173	2	1	0	C	1	1	622	1	Ⴁ	cut_r_stereo_44KHz.wav
2	174	4	3	2	I	1	0	525	1	Ⴟ	cut_ei_stereo_44KHz.wav
2	175	3	4	2	I	1	0	676	1	Ⴇ	cut_j_stereo_44KHz.wav
2	176	1	1	1	C	1	0	412	0	Ⴊ	cut_r_stereo_44KHz.wav
2	177	3	4	2	I	2	0	734	1	Ⴇ	cut_j_stereo_44KHz.wav
2	178	4	4	2	I	2	0	520	0	Ⴟ	cut_j_stereo_44KHz.wav
2	179	2	2	1	C	1	0	348	0	Ⴁ	cut_n_stereo_44KHz.wav
2	180	1	2	0	C	2	0	594	0	Ⴊ	cut_n_stereo_44KHz.wav
2	181	4	3	2	I	1	0	456	0	Ⴟ	cut_ei_stereo_44KHz.wav
2	182	3	3	2	I	1	0	513	1	Ⴇ	cut_ei_stereo_44KHz.wav
2	183	2	1	0	C	1	1	700	1	Ⴁ	cut_r_stereo_44KHz.wav
2	184	1	1	1	C	1	0	641	0	Ⴊ	cut_r_stereo_44KHz.wav
2	185	2	1	0	C	2	0	614	0	Ⴁ	cut_r_stereo_44KHz.wav
2	186	3	3	2	I	1	0	550	0	Ⴇ	cut_ei_stereo_44KHz.wav
2	187	4	4	2	I	2	0	609	0	Ⴟ	cut_j_stereo_44KHz.wav
2	188	1	1	1	C	1	0	421	0	Ⴊ	cut_r_stereo_44KHz.wav
2	189	3	4	2	I	2	0	624	1	Ⴇ	cut_j_stereo_44KHz.wav
2	190	4	3	2	I	2	0	576	0	Ⴟ	cut_ei_stereo_44KHz.wav
2	191	2	2	1	C	1	0	608	0	Ⴁ	cut_n_stereo_44KHz.wav
2	192	1	2	0	C	1	1	472	1	Ⴊ	cut_n_stereo_44KHz.wav
2	193	2	1	0	C	1	1	594	1	Ⴁ	cut_r_stereo_44KHz.wav
2	194	4	4	2	I	1	0	616	0	Ⴟ	cut_j_stereo_44KHz.wav
2	195	3	4	2	I	1	0	520	0	Ⴇ	cut_j_stereo_44KHz.wav
2	196	1	2	0	C	2	0	636	0	Ⴊ	cut_n_stereo_44KHz.wav
2	197	2	2	1	C	1	0	505	0	Ⴁ	cut_n_stereo_44KHz.wav
2	198	1	1	1	C	2	1	546	1	Ⴊ	cut_r_stereo_44KHz.wav
2	199	4	3	2	I	2	0	665	0	Ⴟ	cut_ei_stereo_44KHz.wav
2	200	3	3	2	I	2	0	708	0	Ⴇ	cut_ei_stereo_44KHz.wav
3	1	2	2	1	C	2	1	1058	1	Ⴖ	cut_w_stereo_44KHz.wav
3	2	3	4	2	I	2	0	656	0	Ⴔ	cut_h_stereo_44KHz.wav
3	3	1	2	0	C	1	1	482	1	Ⴐ	cut_w_stereo_44KHz.wav
3	4	4	4	2	I	2	0	404	1	Ⴉ	cut_h_stereo_44KHz.wav
3	5	3	3	2	I	1	0	428	0	Ⴔ	cut_l_stereo_44KHz.wav
3	6	4	3	2	I	2	0	292	0	Ⴉ	cut_l_stereo_44KHz.wav
3	7	2	1	0	C	2	0	417	0	Ⴖ	cut_g_stereo_44KHz.wav
3	8	1	1	1	C	1	0	735	0	Ⴐ	cut_g_stereo_44KHz.wav
3	9	3	4	2	I	2	0	683	0	Ⴔ	cut_h_stereo_44KHz.wav
3	10	4	4	2	I	2	0	628	0	Ⴉ	cut_h_stereo_44KHz.wav
3	11	1	2	0	C	1	1	668	1	Ⴐ	cut_w_stereo_44KHz.wav
3	12	2	2	1	C	2	1	752	1	Ⴖ	cut_w_stereo_44KHz.wav
3	13	4	3	2	I	1	0	644	1	Ⴉ	cut_l_stereo_44KHz.wav
3	14	1	1	1	C	2	1	849	1	Ⴐ	cut_g_stereo_44KHz.wav
3	15	2	1	0	C	1	1	522	1	Ⴖ	cut_g_stereo_44KHz.wav
3	16	3	3	2	I	1	0	588	1	Ⴔ	cut_l_stereo_44KHz.wav
3	17	4	4	2	I	1	0	700	0	Ⴉ	cut_h_stereo_44KHz.wav
3	18	1	1	1	C	2	1	534	1	Ⴐ	cut_g_stereo_44KHz.wav
3	19	3	4	2	I	2	0	565	0	Ⴔ	cut_h_stereo_44KHz.wav
3	20	2	1	0	C	2	0	584	0	Ⴖ	cut_g_stereo_44KHz.wav
3	21	4	3	2	I	1	0	427	0	Ⴉ	cut_l_stereo_44KHz.wav
3	22	1	2	0	C	2	0	361	0	Ⴐ	cut_w_stereo_44KHz.wav
3	23	2	2	1	C	1	0	549	0	Ⴖ	cut_w_stereo_44KHz.wav
3	24	3	3	2	I	2	0	542	0	Ⴔ	cut_l_stereo_44KHz.wav
3	25	2	2	1	C	1	0	548	0	Ⴖ	cut_w_stereo_44KHz.wav
3	26	1	2	0	C	1	1	548	1	Ⴐ	cut_w_stereo_44KHz.wav
3	27	3	4	2	I	2	0	544	1	Ⴔ	cut_h_stereo_44KHz.wav
3	28	4	3	2	I	2	0	596	1	Ⴉ	cut_l_stereo_44KHz.wav
3	29	1	1	1	C	2	1	804	1	Ⴐ	cut_g_stereo_44KHz.wav
3	30	4	4	2	I	2	0	776	1	Ⴉ	cut_h_stereo_44KHz.wav
3	31	2	1	0	C	2	0	625	0	Ⴖ	cut_g_stereo_44KHz.wav
3	32	3	3	2	I	1	0	303	0	Ⴔ	cut_l_stereo_44KHz.wav
3	33	4	3	2	I	2	0	869	1	Ⴉ	cut_l_stereo_44KHz.wav
3	34	3	3	2	I	1	0	468	0	Ⴔ	cut_l_stereo_44KHz.wav
3	35	1	1	1	C	2	1	507	1	Ⴐ	cut_g_stereo_44KHz.wav
3	36	2	2	1	C	2	1	527	1	Ⴖ	cut_w_stereo_44KHz.wav
3	37	3	4	2	I	2	0	497	0	Ⴔ	cut_h_stereo_44KHz.wav
3	38	2	1	0	C	2	0	633	0	Ⴖ	cut_g_stereo_44KHz.wav
3	39	1	2	0	C	1	1	452	1	Ⴐ	cut_w_stereo_44KHz.wav
3	40	4	4	2	I	1	0	506	0	Ⴉ	cut_h_stereo_44KHz.wav
3	41	2	2	1	C	2	1	476	1	Ⴖ	cut_w_stereo_44KHz.wav
3	42	3	4	2	I	2	0	526	1	Ⴔ	cut_h_stereo_44KHz.wav
3	43	4	3	2	I	2	0	613	0	Ⴉ	cut_l_stereo_44KHz.wav
3	44	1	2	0	C	1	1	528	1	Ⴐ	cut_w_stereo_44KHz.wav
3	45	4	4	2	I	2	0	621	0	Ⴉ	cut_h_stereo_44KHz.wav
3	46	1	1	1	C	1	0	427	0	Ⴐ	cut_g_stereo_44KHz.wav
3	47	2	1	0	C	2	0	535	0	Ⴖ	cut_g_stereo_44KHz.wav
3	48	3	3	2	I	2	0	515	0	Ⴔ	cut_l_stereo_44KHz.wav
3	49	4	3	2	I	1	0	596	0	Ⴉ	cut_l_stereo_44KHz.wav
3	50	1	1	1	C	2	1	710	1	Ⴐ	cut_g_stereo_44KHz.wav
3	51	3	4	2	I	2	0	786	1	Ⴔ	cut_h_stereo_44KHz.wav
3	52	2	1	0	C	2	0	882	0	Ⴖ	cut_g_stereo_44KHz.wav
3	53	4	4	2	I	1	0	582	1	Ⴉ	cut_h_stereo_44KHz.wav
3	54	2	2	1	C	1	0	569	0	Ⴖ	cut_w_stereo_44KHz.wav
3	55	1	2	0	C	2	0	396	0	Ⴐ	cut_w_stereo_44KHz.wav
3	56	3	3	2	I	2	0	185	1	Ⴔ	cut_l_stereo_44KHz.wav
3	57	4	3	2	I	2	0	687	0	Ⴉ	cut_l_stereo_44KHz.wav
3	58	2	1	0	C	1	1	1542	1	Ⴖ	cut_g_stereo_44KHz.wav
3	59	3	4	2	I	2	0	1430	0	Ⴔ	cut_h_stereo_44KHz.wav
3	60	1	1	1	C	1	0	1384	0	Ⴐ	cut_g_stereo_44KHz.wav
3	61	3	3	2	I	1	0	1602	1	Ⴔ	cut_l_stereo_44KHz.wav
3	62	1	2	0	C	2	0	772	0	Ⴐ	cut_w_stereo_44KHz.wav
3	63	2	2	1	C	1	0	751	0	Ⴖ	cut_w_stereo_44KHz.wav
3	64	4	4	2	I	2	0	683	1	Ⴉ	cut_h_stereo_44KHz.wav
3	65	2	2	1	C	2	1	1129	1	Ⴖ	cut_w_stereo_44KHz.wav
3	66	4	3	2	I	2	0	823	1	Ⴉ	cut_l_stereo_44KHz.wav
3	67	1	1	1	C	0	0	0	0	Ⴐ	cut_g_stereo_44KHz.wav
3	68	3	3	2	I	2	0	553	1	Ⴔ	cut_l_stereo_44KHz.wav
3	69	2	1	0	C	2	0	739	0	Ⴖ	cut_g_stereo_44KHz.wav
3	70	3	4	2	I	2	0	735	1	Ⴔ	cut_h_stereo_44KHz.wav
3	71	1	2	0	C	1	1	583	1	Ⴐ	cut_w_stereo_44KHz.wav
3	72	4	4	2	I	1	0	744	1	Ⴉ	cut_h_stereo_44KHz.wav
3	73	2	2	1	C	1	0	553	0	Ⴖ	cut_w_stereo_44KHz.wav
3	74	4	3	2	I	2	0	486	1	Ⴉ	cut_l_stereo_44KHz.wav
3	75	1	1	1	C	2	1	613	1	Ⴐ	cut_g_stereo_44KHz.wav
3	76	3	3	2	I	2	0	591	1	Ⴔ	cut_l_stereo_44KHz.wav
3	77	1	2	0	C	2	0	686	0	Ⴐ	cut_w_stereo_44KHz.wav
3	78	2	1	0	C	1	1	585	1	Ⴖ	cut_g_stereo_44KHz.wav
3	79	3	4	2	I	1	0	562	0	Ⴔ	cut_h_stereo_44KHz.wav
3	80	4	4	2	I	2	0	640	1	Ⴉ	cut_h_stereo_44KHz.wav
3	81	2	1	0	C	2	0	797	0	Ⴖ	cut_g_stereo_44KHz.wav
3	82	1	1	1	C	1	0	533	0	Ⴐ	cut_g_stereo_44KHz.wav
3	83	4	3	2	I	2	0	485	0	Ⴉ	cut_l_stereo_44KHz.wav
3	84	3	4	2	I	2	0	579	1	Ⴔ	cut_h_stereo_44KHz.wav
3	85	2	2	1	C	1	0	606	0	Ⴖ	cut_w_stereo_44KHz.wav
3	86	3	3	2	I	2	0	580	0	Ⴔ	cut_l_stereo_44KHz.wav
3	87	1	2	0	C	1	1	611	1	Ⴐ	cut_w_stereo_44KHz.wav
3	88	4	4	2	I	1	0	619	0	Ⴉ	cut_h_stereo_44KHz.wav
3	89	2	2	1	C	2	1	674	1	Ⴖ	cut_w_stereo_44KHz.wav
3	90	3	3	2	I	2	0	779	1	Ⴔ	cut_l_stereo_44KHz.wav
3	91	1	2	0	C	2	0	676	0	Ⴐ	cut_w_stereo_44KHz.wav
3	92	4	4	2	I	2	0	742	1	Ⴉ	cut_h_stereo_44KHz.wav
3	93	2	1	0	C	1	1	807	1	Ⴖ	cut_g_stereo_44KHz.wav
3	94	3	4	2	I	2	0	447	1	Ⴔ	cut_h_stereo_44KHz.wav
3	95	4	3	2	I	2	0	754	1	Ⴉ	cut_l_stereo_44KHz.wav
3	96	1	1	1	C	2	1	657	1	Ⴐ	cut_g_stereo_44KHz.wav
3	97	4	4	2	I	2	0	663	0	Ⴉ	cut_h_stereo_44KHz.wav
3	98	2	2	1	C	1	0	915	0	Ⴖ	cut_w_stereo_44KHz.wav
3	99	3	3	2	I	2	0	639	0	Ⴔ	cut_l_stereo_44KHz.wav
3	100	1	2	0	C	1	1	676	1	Ⴐ	cut_w_stereo_44KHz.wav
3	101	3	4	2	I	1	0	830	0	Ⴔ	cut_h_stereo_44KHz.wav
3	102	2	1	0	C	2	0	666	0	Ⴖ	cut_g_stereo_44KHz.wav
3	103	1	1	1	C	2	1	647	1	Ⴐ	cut_g_stereo_44KHz.wav
3	104	4	3	2	I	2	0	712	1	Ⴉ	cut_l_stereo_44KHz.wav
3	105	1	2	0	C	2	0	583	0	Ⴐ	cut_w_stereo_44KHz.wav
3	106	2	2	1	C	1	0	501	0	Ⴖ	cut_w_stereo_44KHz.wav
3	107	3	3	2	I	2	0	827	1	Ⴔ	cut_l_stereo_44KHz.wav
3	108	4	3	2	I	2	0	1036	1	Ⴉ	cut_l_stereo_44KHz.wav
3	109	2	1	0	C	2	0	817	0	Ⴖ	cut_g_stereo_44KHz.wav
3	110	1	1	1	C	2	1	582	1	Ⴐ	cut_g_stereo_44KHz.wav
3	111	3	4	2	I	0	0	0	0	Ⴔ	cut_h_stereo_44KHz.wav
3	112	4	4	2	I	2	0	652	1	Ⴉ	cut_h_stereo_44KHz.wav
3	113	3	3	2	I	2	0	1020	1	Ⴔ	cut_l_stereo_44KHz.wav
3	114	1	1	1	C	2	1	728	1	Ⴐ	cut_g_stereo_44KHz.wav
3	115	2	2	1	C	2	1	747	1	Ⴖ	cut_w_stereo_44KHz.wav
3	116	4	3	2	I	1	0	718	1	Ⴉ	cut_l_stereo_44KHz.wav
3	117	3	4	2	I	1	0	665	1	Ⴔ	cut_h_stereo_44KHz.wav
3	118	4	4	2	I	2	0	450	1	Ⴉ	cut_h_stereo_44KHz.wav
3	119	2	1	0	C	1	1	717	1	Ⴖ	cut_g_stereo_44KHz.wav
3	120	1	2	0	C	2	0	1341	0	Ⴐ	cut_w_stereo_44KHz.wav
3	121	4	3	2	I	1	0	525	0	Ⴉ	cut_l_stereo_44KHz.wav
3	122	3	3	2	I	2	0	345	0	Ⴔ	cut_l_stereo_44KHz.wav
3	123	2	1	0	C	1	1	726	1	Ⴖ	cut_g_stereo_44KHz.wav
3	124	1	1	1	C	1	0	562	0	Ⴐ	cut_g_stereo_44KHz.wav
3	125	2	2	1	C	2	1	656	1	Ⴖ	cut_w_stereo_44KHz.wav
3	126	4	4	2	I	2	0	878	1	Ⴉ	cut_h_stereo_44KHz.wav
3	127	3	4	2	I	2	0	645	1	Ⴔ	cut_h_stereo_44KHz.wav
3	128	1	2	0	C	2	0	599	0	Ⴐ	cut_w_stereo_44KHz.wav
3	129	2	2	1	C	1	0	335	0	Ⴖ	cut_w_stereo_44KHz.wav
3	130	4	4	2	I	2	0	491	0	Ⴉ	cut_h_stereo_44KHz.wav
3	131	3	3	2	I	2	0	978	0	Ⴔ	cut_l_stereo_44KHz.wav
3	132	1	2	0	C	1	1	512	1	Ⴐ	cut_w_stereo_44KHz.wav
3	133	2	1	0	C	1	1	730	1	Ⴖ	cut_g_stereo_44KHz.wav
3	134	3	4	2	I	1	0	727	0	Ⴔ	cut_h_stereo_44KHz.wav
3	135	1	1	1	C	2	1	786	1	Ⴐ	cut_g_stereo_44KHz.wav
3	136	4	3	2	I	2	0	1079	1	Ⴉ	cut_l_stereo_44KHz.wav
3	137	1	2	0	C	2	0	807	0	Ⴐ	cut_w_stereo_44KHz.wav
3	138	3	4	2	I	1	0	432	0	Ⴔ	cut_h_stereo_44KHz.wav
3	139	4	4	2	I	2	0	44	0	Ⴉ	cut_h_stereo_44KHz.wav
3	140	2	1	0	C	2	0	964	0	Ⴖ	cut_g_stereo_44KHz.wav
3	141	3	3	2	I	2	0	847	1	Ⴔ	cut_l_stereo_44KHz.wav
3	142	4	3	2	I	2	0	691	1	Ⴉ	cut_l_stereo_44KHz.wav
3	143	1	1	1	C	2	1	728	1	Ⴐ	cut_g_stereo_44KHz.wav
3	144	2	2	1	C	2	1	614	1	Ⴖ	cut_w_stereo_44KHz.wav
3	145	1	2	0	C	2	0	792	0	Ⴐ	cut_w_stereo_44KHz.wav
3	146	4	3	2	I	1	0	638	0	Ⴉ	cut_l_stereo_44KHz.wav
3	147	2	2	1	C	1	0	672	0	Ⴖ	cut_w_stereo_44KHz.wav
3	148	3	3	2	I	2	0	360	0	Ⴔ	cut_l_stereo_44KHz.wav
3	149	4	4	2	I	2	0	765	0	Ⴉ	cut_h_stereo_44KHz.wav
3	150	1	1	1	C	1	0	1025	0	Ⴐ	cut_g_stereo_44KHz.wav
3	151	3	4	2	I	2	0	516	1	Ⴔ	cut_h_stereo_44KHz.wav
3	152	2	1	0	C	2	0	1158	0	Ⴖ	cut_g_stereo_44KHz.wav
3	153	1	1	1	C	2	1	621	1	Ⴐ	cut_g_stereo_44KHz.wav
3	154	4	4	2	I	2	0	1306	1	Ⴉ	cut_h_stereo_44KHz.wav
3	155	3	4	2	I	2	0	1379	1	Ⴔ	cut_h_stereo_44KHz.wav
3	156	2	1	0	C	2	0	1425	0	Ⴖ	cut_g_stereo_44KHz.wav
3	157	1	2	0	C	1	1	499	1	Ⴐ	cut_w_stereo_44KHz.wav
3	158	4	3	2	I	1	0	794	0	Ⴉ	cut_l_stereo_44KHz.wav
3	159	2	2	1	C	2	1	816	1	Ⴖ	cut_w_stereo_44KHz.wav
3	160	3	3	2	I	2	0	663	0	Ⴔ	cut_l_stereo_44KHz.wav
3	161	1	1	1	C	2	1	562	1	Ⴐ	cut_g_stereo_44KHz.wav
3	162	4	4	2	I	2	0	592	0	Ⴉ	cut_h_stereo_44KHz.wav
3	163	3	4	2	I	1	0	341	1	Ⴔ	cut_h_stereo_44KHz.wav
3	164	2	1	0	C	1	1	655	1	Ⴖ	cut_g_stereo_44KHz.wav
3	165	3	3	2	I	1	0	499	0	Ⴔ	cut_l_stereo_44KHz.wav
3	166	2	2	1	C	2	1	675	1	Ⴖ	cut_w_stereo_44KHz.wav
3	167	4	3	2	I	2	0	618	0	Ⴉ	cut_l_stereo_44KHz.wav
3	168	1	2	0	C	2	0	531	0	Ⴐ	cut_w_stereo_44KHz.wav
3	169	4	4	2	I	1	0	852	1	Ⴉ	cut_h_stereo_44KHz.wav
3	170	2	1	0	C	1	1	1050	1	Ⴖ	cut_g_stereo_44KHz.wav
3	171	3	3	2	I	2	0	750	1	Ⴔ	cut_l_stereo_44KHz.wav
3	172	1	2	0	C	2	0	550	0	Ⴐ	cut_w_stereo_44KHz.wav
3	173	2	2	1	C	1	0	808	0	Ⴖ	cut_w_stereo_44KHz.wav
3	174	3	4	2	I	2	0	610	1	Ⴔ	cut_h_stereo_44KHz.wav
3	175	1	1	1	C	2	1	685	1	Ⴐ	cut_g_stereo_44KHz.wav
3	176	4	3	2	I	2	0	828	0	Ⴉ	cut_l_stereo_44KHz.wav
3	177	2	1	0	C	1	1	443	1	Ⴖ	cut_g_stereo_44KHz.wav
3	178	4	3	2	I	1	0	885	1	Ⴉ	cut_l_stereo_44KHz.wav
3	179	1	2	0	C	1	1	1209	1	Ⴐ	cut_w_stereo_44KHz.wav
3	180	3	3	2	I	2	0	815	0	Ⴔ	cut_l_stereo_44KHz.wav
3	181	2	2	1	C	2	1	738	1	Ⴖ	cut_w_stereo_44KHz.wav
3	182	1	1	1	C	1	0	673	0	Ⴐ	cut_g_stereo_44KHz.wav
3	183	4	4	2	I	2	0	481	0	Ⴉ	cut_h_stereo_44KHz.wav
3	184	3	4	2	I	1	0	1463	1	Ⴔ	cut_h_stereo_44KHz.wav
3	185	1	2	0	C	1	1	422	1	Ⴐ	cut_w_stereo_44KHz.wav
3	186	3	3	2	I	1	0	375	0	Ⴔ	cut_l_stereo_44KHz.wav
3	187	4	3	2	I	2	0	624	0	Ⴉ	cut_l_stereo_44KHz.wav
3	188	2	1	0	C	2	0	471	0	Ⴖ	cut_g_stereo_44KHz.wav
3	189	3	4	2	I	2	0	347	1	Ⴔ	cut_h_stereo_44KHz.wav
3	190	4	4	2	I	1	0	431	0	Ⴉ	cut_h_stereo_44KHz.wav
3	191	1	1	1	C	2	1	654	1	Ⴐ	cut_g_stereo_44KHz.wav
3	192	2	2	1	C	2	1	508	1	Ⴖ	cut_w_stereo_44KHz.wav
3	193	3	4	2	I	2	0	385	0	Ⴔ	cut_h_stereo_44KHz.wav
3	194	4	3	2	I	1	0	626	1	Ⴉ	cut_l_stereo_44KHz.wav
3	195	1	1	1	C	1	0	495	0	Ⴐ	cut_g_stereo_44KHz.wav
3	196	2	1	0	C	2	0	445	0	Ⴖ	cut_g_stereo_44KHz.wav
3	197	1	2	0	C	2	0	551	0	Ⴐ	cut_w_stereo_44KHz.wav
3	198	2	2	1	C	1	0	430	0	Ⴖ	cut_w_stereo_44KHz.wav
3	199	3	3	2	I	2	0	317	1	Ⴔ	cut_l_stereo_44KHz.wav
3	200	4	4	2	I	2	0	875	0	Ⴉ	cut_h_stereo_44KHz.wav
4	1	2	1	0	C	2	0	705	0	Ⴕ	cut_ui_stereo_44KHz.wav
4	2	4	4	2	I	2	0	424	0	Ⴏ	cut_oei_stereo_44KHz.wav
4	3	3	3	2	I	1	0	232	1	Ⴌ	cut_f_stereo_44KHz.wav
4	4	1	1	1	C	2	1	608	1	Ⴒ	cut_ui_stereo_44KHz.wav
4	5	4	3	2	I	2	0	489	0	Ⴏ	cut_f_stereo_44KHz.wav
4	6	2	2	1	C	1	0	373	0	Ⴕ	cut_s_stereo_44KHz.wav
4	7	1	2	0	C	2	0	558	0	Ⴒ	cut_s_stereo_44KHz.wav
4	8	3	4	2	I	1	0	558	0	Ⴌ	cut_oei_stereo_44KHz.wav
4	9	2	1	0	C	2	0	544	0	Ⴕ	cut_ui_stereo_44KHz.wav
4	10	4	3	2	I	1	0	556	1	Ⴏ	cut_f_stereo_44KHz.wav
4	11	1	1	1	C	1	0	726	0	Ⴒ	cut_ui_stereo_44KHz.wav
4	12	3	3	2	I	1	0	527	1	Ⴌ	cut_f_stereo_44KHz.wav
4	13	1	2	0	C	1	1	873	1	Ⴒ	cut_s_stereo_44KHz.wav
4	14	3	4	2	I	1	0	660	1	Ⴌ	cut_oei_stereo_44KHz.wav
4	15	4	4	2	I	1	0	670	1	Ⴏ	cut_oei_stereo_44KHz.wav
4	16	2	2	1	C	1	0	600	0	Ⴕ	cut_s_stereo_44KHz.wav
4	17	1	2	0	C	2	0	774	0	Ⴒ	cut_s_stereo_44KHz.wav
4	18	4	4	2	I	1	0	727	1	Ⴏ	cut_oei_stereo_44KHz.wav
4	19	3	3	2	I	1	0	642	1	Ⴌ	cut_f_stereo_44KHz.wav
4	20	2	2	1	C	1	0	719	0	Ⴕ	cut_s_stereo_44KHz.wav
4	21	4	3	2	I	2	0	887	0	Ⴏ	cut_f_stereo_44KHz.wav
4	22	2	1	0	C	1	1	386	1	Ⴕ	cut_ui_stereo_44KHz.wav
4	23	3	4	2	I	1	0	668	0	Ⴌ	cut_oei_stereo_44KHz.wav
4	24	1	1	1	C	2	1	867	1	Ⴒ	cut_ui_stereo_44KHz.wav
4	25	4	3	2	I	2	0	850	1	Ⴏ	cut_f_stereo_44KHz.wav
4	26	1	2	0	C	2	0	747	0	Ⴒ	cut_s_stereo_44KHz.wav
4	27	2	2	1	C	2	1	746	1	Ⴕ	cut_s_stereo_44KHz.wav
4	28	3	4	2	I	2	0	597	0	Ⴌ	cut_oei_stereo_44KHz.wav
4	29	1	1	1	C	1	0	770	0	Ⴒ	cut_ui_stereo_44KHz.wav
4	30	3	3	2	I	2	0	582	0	Ⴌ	cut_f_stereo_44KHz.wav
4	31	2	1	0	C	1	1	688	1	Ⴕ	cut_ui_stereo_44KHz.wav
4	32	4	4	2	I	2	0	551	0	Ⴏ	cut_oei_stereo_44KHz.wav
4	33	3	3	2	I	1	0	365	1	Ⴌ	cut_f_stereo_44KHz.wav
4	34	4	3	2	I	1	0	676	0	Ⴏ	cut_f_stereo_44KHz.wav
4	35	2	2	1	C	2	1	588	1	Ⴕ	cut_s_stereo_44KHz.wav
4	36	1	2	0	C	2	0	847	0	Ⴒ	cut_s_stereo_44KHz.wav
4	37	2	1	0	C	2	0	569	0	Ⴕ	cut_ui_stereo_44KHz.wav
4	38	4	4	2	I	1	0	562	1	Ⴏ	cut_oei_stereo_44KHz.wav
4	39	1	1	1	C	1	0	638	0	Ⴒ	cut_ui_stereo_44KHz.wav
4	40	3	4	2	I	2	0	488	0	Ⴌ	cut_oei_stereo_44KHz.wav
4	41	2	1	0	C	1	1	519	1	Ⴕ	cut_ui_stereo_44KHz.wav
4	42	3	3	2	I	1	0	500	1	Ⴌ	cut_f_stereo_44KHz.wav
4	43	1	1	1	C	1	0	646	0	Ⴒ	cut_ui_stereo_44KHz.wav
4	44	4	4	2	I	2	0	530	0	Ⴏ	cut_oei_stereo_44KHz.wav
4	45	2	2	1	C	2	1	1028	1	Ⴕ	cut_s_stereo_44KHz.wav
4	46	1	2	0	C	2	0	415	0	Ⴒ	cut_s_stereo_44KHz.wav
4	47	3	4	2	I	2	0	539	0	Ⴌ	cut_oei_stereo_44KHz.wav
4	48	4	3	2	I	1	0	360	1	Ⴏ	cut_f_stereo_44KHz.wav
4	49	2	1	0	C	1	1	807	1	Ⴕ	cut_ui_stereo_44KHz.wav
4	50	3	4	2	I	1	0	707	0	Ⴌ	cut_oei_stereo_44KHz.wav
4	51	1	2	0	C	2	0	693	0	Ⴒ	cut_s_stereo_44KHz.wav
4	52	4	3	2	I	1	0	548	0	Ⴏ	cut_f_stereo_44KHz.wav
4	53	3	3	2	I	2	0	596	0	Ⴌ	cut_f_stereo_44KHz.wav
4	54	4	4	2	I	1	0	638	1	Ⴏ	cut_oei_stereo_44KHz.wav
4	55	1	1	1	C	1	0	705	0	Ⴒ	cut_ui_stereo_44KHz.wav
4	56	2	2	1	C	2	1	649	1	Ⴕ	cut_s_stereo_44KHz.wav
4	57	1	2	0	C	2	0	704	0	Ⴒ	cut_s_stereo_44KHz.wav
4	58	3	4	2	I	2	0	576	1	Ⴌ	cut_oei_stereo_44KHz.wav
4	59	4	3	2	I	2	0	638	0	Ⴏ	cut_f_stereo_44KHz.wav
4	60	2	2	1	C	2	1	680	1	Ⴕ	cut_s_stereo_44KHz.wav
4	61	1	1	1	C	2	1	614	1	Ⴒ	cut_ui_stereo_44KHz.wav
4	62	4	4	2	I	1	0	637	1	Ⴏ	cut_oei_stereo_44KHz.wav
4	63	2	1	0	C	1	1	537	1	Ⴕ	cut_ui_stereo_44KHz.wav
4	64	3	3	2	I	1	0	501	1	Ⴌ	cut_f_stereo_44KHz.wav
4	65	1	1	1	C	1	0	510	0	Ⴒ	cut_ui_stereo_44KHz.wav
4	66	4	3	2	I	2	0	509	1	Ⴏ	cut_f_stereo_44KHz.wav
4	67	2	1	0	C	1	1	597	1	Ⴕ	cut_ui_stereo_44KHz.wav
4	68	3	4	2	I	1	0	353	0	Ⴌ	cut_oei_stereo_44KHz.wav
4	69	1	2	0	C	1	1	388	1	Ⴒ	cut_s_stereo_44KHz.wav
4	70	3	3	2	I	2	0	366	1	Ⴌ	cut_f_stereo_44KHz.wav
4	71	2	2	1	C	2	1	611	1	Ⴕ	cut_s_stereo_44KHz.wav
4	72	4	4	2	I	2	0	602	0	Ⴏ	cut_oei_stereo_44KHz.wav
4	73	1	1	1	C	1	0	635	0	Ⴒ	cut_ui_stereo_44KHz.wav
4	74	4	4	2	I	2	0	609	0	Ⴏ	cut_oei_stereo_44KHz.wav
4	75	3	4	2	I	1	0	604	0	Ⴌ	cut_oei_stereo_44KHz.wav
4	76	2	1	0	C	2	0	603	0	Ⴕ	cut_ui_stereo_44KHz.wav
4	77	4	3	2	I	1	0	532	0	Ⴏ	cut_f_stereo_44KHz.wav
4	78	1	2	0	C	2	0	711	0	Ⴒ	cut_s_stereo_44KHz.wav
4	79	2	2	1	C	2	1	648	1	Ⴕ	cut_s_stereo_44KHz.wav
4	80	3	3	2	I	2	0	635	1	Ⴌ	cut_f_stereo_44KHz.wav
4	81	1	1	1	C	2	1	589	1	Ⴒ	cut_ui_stereo_44KHz.wav
4	82	4	3	2	I	2	0	682	1	Ⴏ	cut_f_stereo_44KHz.wav
4	83	2	2	1	C	2	1	633	1	Ⴕ	cut_s_stereo_44KHz.wav
4	84	3	4	2	I	2	0	429	1	Ⴌ	cut_oei_stereo_44KHz.wav
4	85	1	2	0	C	2	0	436	0	Ⴒ	cut_s_stereo_44KHz.wav
4	86	2	1	0	C	2	0	561	0	Ⴕ	cut_ui_stereo_44KHz.wav
4	87	3	3	2	I	2	0	579	1	Ⴌ	cut_f_stereo_44KHz.wav
4	88	4	4	2	I	2	0	725	1	Ⴏ	cut_oei_stereo_44KHz.wav
4	89	2	2	1	C	2	1	706	1	Ⴕ	cut_s_stereo_44KHz.wav
4	90	3	3	2	I	2	0	651	0	Ⴌ	cut_f_stereo_44KHz.wav
4	91	4	3	2	I	1	0	667	0	Ⴏ	cut_f_stereo_44KHz.wav
4	92	1	1	1	C	2	1	757	1	Ⴒ	cut_ui_stereo_44KHz.wav
4	93	3	4	2	I	2	0	491	0	Ⴌ	cut_oei_stereo_44KHz.wav
4	94	1	2	0	C	2	0	508	0	Ⴒ	cut_s_stereo_44KHz.wav
4	95	2	1	0	C	2	0	554	0	Ⴕ	cut_ui_stereo_44KHz.wav
4	96	4	4	2	I	1	0	451	0	Ⴏ	cut_oei_stereo_44KHz.wav
4	97	1	2	0	C	2	0	623	0	Ⴒ	cut_s_stereo_44KHz.wav
4	98	2	2	1	C	2	1	364	1	Ⴕ	cut_s_stereo_44KHz.wav
4	99	3	4	2	I	1	0	568	0	Ⴌ	cut_oei_stereo_44KHz.wav
4	100	4	4	2	I	2	0	574	1	Ⴏ	cut_oei_stereo_44KHz.wav
4	101	2	1	0	C	2	0	808	0	Ⴕ	cut_ui_stereo_44KHz.wav
4	102	3	3	2	I	1	0	586	0	Ⴌ	cut_f_stereo_44KHz.wav
4	103	4	3	2	I	2	0	504	1	Ⴏ	cut_f_stereo_44KHz.wav
4	104	1	1	1	C	2	1	492	1	Ⴒ	cut_ui_stereo_44KHz.wav
4	105	4	3	2	I	2	0	661	1	Ⴏ	cut_f_stereo_44KHz.wav
4	106	3	3	2	I	2	0	684	1	Ⴌ	cut_f_stereo_44KHz.wav
4	107	2	2	1	C	2	1	525	1	Ⴕ	cut_s_stereo_44KHz.wav
4	108	1	2	0	C	2	0	709	0	Ⴒ	cut_s_stereo_44KHz.wav
4	109	4	4	2	I	2	0	588	0	Ⴏ	cut_oei_stereo_44KHz.wav
4	110	1	1	1	C	2	1	577	1	Ⴒ	cut_ui_stereo_44KHz.wav
4	111	3	4	2	I	2	0	668	0	Ⴌ	cut_oei_stereo_44KHz.wav
4	112	2	1	0	C	1	1	810	1	Ⴕ	cut_ui_stereo_44KHz.wav
4	113	4	4	2	I	1	0	661	1	Ⴏ	cut_oei_stereo_44KHz.wav
4	114	3	3	2	I	2	0	489	0	Ⴌ	cut_f_stereo_44KHz.wav
4	115	1	2	0	C	1	1	559	1	Ⴒ	cut_s_stereo_44KHz.wav
4	116	2	2	1	C	1	0	599	0	Ⴕ	cut_s_stereo_44KHz.wav
4	117	3	4	2	I	2	0	491	1	Ⴌ	cut_oei_stereo_44KHz.wav
4	118	1	1	1	C	2	1	562	1	Ⴒ	cut_ui_stereo_44KHz.wav
4	119	2	1	0	C	2	0	625	0	Ⴕ	cut_ui_stereo_44KHz.wav
4	120	4	3	2	I	2	0	555	1	Ⴏ	cut_f_stereo_44KHz.wav
4	121	3	4	2	I	2	0	537	1	Ⴌ	cut_oei_stereo_44KHz.wav
4	122	2	2	1	C	2	1	743	1	Ⴕ	cut_s_stereo_44KHz.wav
4	123	4	4	2	I	2	0	481	1	Ⴏ	cut_oei_stereo_44KHz.wav
4	124	1	2	0	C	2	0	711	0	Ⴒ	cut_s_stereo_44KHz.wav
4	125	3	3	2	I	1	0	577	1	Ⴌ	cut_f_stereo_44KHz.wav
4	126	2	1	0	C	1	1	450	1	Ⴕ	cut_ui_stereo_44KHz.wav
4	127	4	3	2	I	2	0	504	1	Ⴏ	cut_f_stereo_44KHz.wav
4	128	1	1	1	C	2	1	399	1	Ⴒ	cut_ui_stereo_44KHz.wav
4	129	3	3	2	I	2	0	439	0	Ⴌ	cut_f_stereo_44KHz.wav
4	130	4	4	2	I	1	0	436	1	Ⴏ	cut_oei_stereo_44KHz.wav
4	131	1	1	1	C	1	0	484	0	Ⴒ	cut_ui_stereo_44KHz.wav
4	132	2	1	0	C	2	0	528	0	Ⴕ	cut_ui_stereo_44KHz.wav
4	133	3	4	2	I	1	0	481	1	Ⴌ	cut_oei_stereo_44KHz.wav
4	134	1	2	0	C	1	1	631	1	Ⴒ	cut_s_stereo_44KHz.wav
4	135	4	3	2	I	1	0	855	0	Ⴏ	cut_f_stereo_44KHz.wav
4	136	2	2	1	C	2	1	502	1	Ⴕ	cut_s_stereo_44KHz.wav
4	137	3	3	2	I	1	0	616	1	Ⴌ	cut_f_stereo_44KHz.wav
4	138	1	2	0	C	2	0	650	0	Ⴒ	cut_s_stereo_44KHz.wav
4	139	4	3	2	I	1	0	579	0	Ⴏ	cut_f_stereo_44KHz.wav
4	140	2	2	1	C	2	1	534	1	Ⴕ	cut_s_stereo_44KHz.wav
4	141	4	4	2	I	2	0	606	1	Ⴏ	cut_oei_stereo_44KHz.wav
4	142	1	1	1	C	2	1	652	1	Ⴒ	cut_ui_stereo_44KHz.wav
4	143	3	4	2	I	2	0	487	1	Ⴌ	cut_oei_stereo_44KHz.wav
4	144	2	1	0	C	2	0	683	0	Ⴕ	cut_ui_stereo_44KHz.wav
4	145	3	3	2	I	2	0	579	0	Ⴌ	cut_f_stereo_44KHz.wav
4	146	1	1	1	C	1	0	395	0	Ⴒ	cut_ui_stereo_44KHz.wav
4	147	2	2	1	C	2	1	654	1	Ⴕ	cut_s_stereo_44KHz.wav
4	148	4	3	2	I	2	0	509	0	Ⴏ	cut_f_stereo_44KHz.wav
4	149	1	2	0	C	1	1	551	1	Ⴒ	cut_s_stereo_44KHz.wav
4	150	4	4	2	I	2	0	571	0	Ⴏ	cut_oei_stereo_44KHz.wav
4	151	2	1	0	C	1	1	607	1	Ⴕ	cut_ui_stereo_44KHz.wav
4	152	3	4	2	I	1	0	544	0	Ⴌ	cut_oei_stereo_44KHz.wav
4	153	2	2	1	C	2	1	475	1	Ⴕ	cut_s_stereo_44KHz.wav
4	154	4	4	2	I	2	0	542	0	Ⴏ	cut_oei_stereo_44KHz.wav
4	155	1	1	1	C	2	1	584	1	Ⴒ	cut_ui_stereo_44KHz.wav
4	156	3	4	2	I	1	0	466	1	Ⴌ	cut_oei_stereo_44KHz.wav
4	157	1	2	0	C	1	1	445	1	Ⴒ	cut_s_stereo_44KHz.wav
4	158	3	3	2	I	2	0	808	1	Ⴌ	cut_f_stereo_44KHz.wav
4	159	2	1	0	C	2	0	566	0	Ⴕ	cut_ui_stereo_44KHz.wav
4	160	4	3	2	I	1	0	556	0	Ⴏ	cut_f_stereo_44KHz.wav
4	161	3	3	2	I	2	0	626	0	Ⴌ	cut_f_stereo_44KHz.wav
4	162	1	2	0	C	2	0	566	0	Ⴒ	cut_s_stereo_44KHz.wav
4	163	4	3	2	I	2	0	599	0	Ⴏ	cut_f_stereo_44KHz.wav
4	164	2	1	0	C	1	1	409	1	Ⴕ	cut_ui_stereo_44KHz.wav
4	165	3	4	2	I	1	0	565	1	Ⴌ	cut_oei_stereo_44KHz.wav
4	166	4	4	2	I	1	0	444	0	Ⴏ	cut_oei_stereo_44KHz.wav
4	167	1	1	1	C	2	1	520	1	Ⴒ	cut_ui_stereo_44KHz.wav
4	168	2	2	1	C	1	0	488	0	Ⴕ	cut_s_stereo_44KHz.wav
4	169	4	3	2	I	2	0	563	0	Ⴏ	cut_f_stereo_44KHz.wav
4	170	1	2	0	C	2	0	476	0	Ⴒ	cut_s_stereo_44KHz.wav
4	171	2	1	0	C	1	1	332	1	Ⴕ	cut_ui_stereo_44KHz.wav
4	172	3	3	2	I	1	0	688	1	Ⴌ	cut_f_stereo_44KHz.wav
4	173	1	1	1	C	1	0	607	0	Ⴒ	cut_ui_stereo_44KHz.wav
4	174	2	2	1	C	2	1	438	1	Ⴕ	cut_s_stereo_44KHz.wav
4	175	3	4	2	I	2	0	591	0	Ⴌ	cut_oei_stereo_44KHz.wav
4	176	4	4	2	I	2	0	621	1	Ⴏ	cut_oei_stereo_44KHz.wav
4	177	2	1	0	C	2	0	503	0	Ⴕ	cut_ui_stereo_44KHz.wav
4	178	1	2	0	C	1	1	710	1	Ⴒ	cut_s_stereo_44KHz.wav
4	179	3	4	2	I	1	0	923	0	Ⴌ	cut_oei_stereo_44KHz.wav
4	180	4	4	2	I	2	0	402	1	Ⴏ	cut_oei_stereo_44KHz.wav
4	181	1	1	1	C	2	1	547	1	Ⴒ	cut_ui_stereo_44KHz.wav
4	182	4	3	2	I	2	0	534	0	Ⴏ	cut_f_stereo_44KHz.wav
4	183	2	2	1	C	2	1	560	1	Ⴕ	cut_s_stereo_44KHz.wav
4	184	3	3	2	I	2	0	625	1	Ⴌ	cut_f_stereo_44KHz.wav
4	185	2	1	0	C	2	0	738	0	Ⴕ	cut_ui_stereo_44KHz.wav
4	186	3	3	2	I	1	0	371	0	Ⴌ	cut_f_stereo_44KHz.wav
4	187	4	4	2	I	2	0	511	1	Ⴏ	cut_oei_stereo_44KHz.wav
4	188	1	2	0	C	0	0	0	0	Ⴒ	cut_s_stereo_44KHz.wav
4	189	4	3	2	I	2	0	639	1	Ⴏ	cut_f_stereo_44KHz.wav
4	190	2	2	1	C	2	1	596	1	Ⴕ	cut_s_stereo_44KHz.wav
4	191	1	1	1	C	1	0	500	0	Ⴒ	cut_ui_stereo_44KHz.wav
4	192	3	4	2	I	2	0	597	1	Ⴌ	cut_oei_stereo_44KHz.wav
4	193	1	1	1	C	2	1	780	1	Ⴒ	cut_ui_stereo_44KHz.wav
4	194	2	2	1	C	2	1	671	1	Ⴕ	cut_s_stereo_44KHz.wav
4	195	3	4	2	I	2	0	522	0	Ⴌ	cut_oei_stereo_44KHz.wav
4	196	4	4	2	I	1	0	372	0	Ⴏ	cut_oei_stereo_44KHz.wav
4	197	2	1	0	C	2	0	262	0	Ⴕ	cut_ui_stereo_44KHz.wav
4	198	1	2	0	C	2	0	628	0	Ⴒ	cut_s_stereo_44KHz.wav
4	199	4	3	2	I	1	0	504	1	Ⴏ	cut_f_stereo_44KHz.wav
4	200	3	3	2	I	1	0	389	0	Ⴌ	cut_f_stereo_44KHz.wav
