block	trial	Vstim	Astim	match	C/I	resp	result	RT	fb	V-file	A-file
RL

0	1	2	4	0	C	2	1	1618	1	poli_8sides 24_whiteLine3.jpg	Practice3_b26_cut1_stereo_44KHz.wav
0	2	1	2	0	C	1	0	881	0	poli_8sides 21_whiteLine3.jpg	Practice4_b26_stereo_44KHz.wav
0	3	2	3	1	C	2	0	513	0	poli_8sides 24_whiteLine3.jpg	Practice1_b27_cut1_stereo_44KHz.wav
0	4	1	1	1	C	2	0	625	0	poli_8sides 21_whiteLine3.jpg	Practice2_b27_cut2_stereo_44KHz.wav
0	5	1	2	0	C	1	0	952	0	poli_8sides 21_whiteLine3.jpg	Practice4_b26_stereo_44KHz.wav
0	6	1	1	1	C	2	0	751	0	poli_8sides 21_whiteLine3.jpg	Practice2_b27_cut2_stereo_44KHz.wav
0	7	2	3	1	C	2	0	1539	0	poli_8sides 24_whiteLine3.jpg	Practice1_b27_cut1_stereo_44KHz.wav
0	8	2	4	0	C	2	1	869	1	poli_8sides 24_whiteLine3.jpg	Practice3_b26_cut1_stereo_44KHz.wav
0	9	1	1	1	C	1	1	865	1	poli_8sides 21_whiteLine3.jpg	Practice2_b27_cut2_stereo_44KHz.wav
0	10	2	4	0	C	2	1	879	1	poli_8sides 24_whiteLine3.jpg	Practice3_b26_cut1_stereo_44KHz.wav
0	11	1	2	0	C	1	0	682	0	poli_8sides 21_whiteLine3.jpg	Practice4_b26_stereo_44KHz.wav
0	12	2	3	1	C	2	0	901	0	poli_8sides 24_whiteLine3.jpg	Practice1_b27_cut1_stereo_44KHz.wav
0	13	2	3	1	C	2	0	843	0	poli_8sides 24_whiteLine3.jpg	Practice1_b27_cut1_stereo_44KHz.wav
0	14	1	2	0	C	2	1	1385	1	poli_8sides 21_whiteLine3.jpg	Practice4_b26_stereo_44KHz.wav
0	15	1	1	1	C	1	1	763	1	poli_8sides 21_whiteLine3.jpg	Practice2_b27_cut2_stereo_44KHz.wav
0	16	2	4	0	C	2	1	662	1	poli_8sides 24_whiteLine3.jpg	Practice3_b26_cut1_stereo_44KHz.wav
0	17	1	2	0	C	1	0	933	0	poli_8sides 21_whiteLine3.jpg	Practice4_b26_stereo_44KHz.wav
0	18	2	4	0	C	2	1	668	1	poli_8sides 24_whiteLine3.jpg	Practice3_b26_cut1_stereo_44KHz.wav
0	19	2	3	1	C	1	1	849	1	poli_8sides 24_whiteLine3.jpg	Practice1_b27_cut1_stereo_44KHz.wav
0	20	1	1	1	C	2	0	752	0	poli_8sides 21_whiteLine3.jpg	Practice2_b27_cut2_stereo_44KHz.wav
0	21	1	1	1	C	1	1	860	1	poli_8sides 21_whiteLine3.jpg	Practice2_b27_cut2_stereo_44KHz.wav
0	22	2	4	0	C	2	1	904	1	poli_8sides 24_whiteLine3.jpg	Practice3_b26_cut1_stereo_44KHz.wav
0	23	2	3	1	C	1	1	822	1	poli_8sides 24_whiteLine3.jpg	Practice1_b27_cut1_stereo_44KHz.wav
0	24	1	2	0	C	2	1	463	1	poli_8sides 21_whiteLine3.jpg	Practice4_b26_stereo_44KHz.wav
0	25	2	4	0	C	2	1	843	1	poli_8sides 24_whiteLine3.jpg	Practice3_b26_cut1_stereo_44KHz.wav
0	26	1	1	1	C	1	1	767	1	poli_8sides 21_whiteLine3.jpg	Practice2_b27_cut2_stereo_44KHz.wav
0	27	2	3	1	C	1	1	779	1	poli_8sides 24_whiteLine3.jpg	Practice1_b27_cut1_stereo_44KHz.wav
0	28	1	2	0	C	2	1	668	1	poli_8sides 21_whiteLine3.jpg	Practice4_b26_stereo_44KHz.wav
0	29	2	3	1	C	1	1	617	1	poli_8sides 24_whiteLine3.jpg	Practice1_b27_cut1_stereo_44KHz.wav
0	30	2	4	0	C	1	0	797	0	poli_8sides 24_whiteLine3.jpg	Practice3_b26_cut1_stereo_44KHz.wav
avg_resp = 849
1	1	2	2	1	C	2	0	1627	0	poli_8sides 10_whiteLine3.jpg	MediumLong_b10_cut2_L_stereo_44KHz.wav
1	2	1	2	0	C	2	1	764	1	poli_8sides 5_whiteLine3.jpg	MediumLong_b10_cut2_L_stereo_44KHz.wav
1	3	4	4	2	I	1	0	1148	0	poli_8sides 15_whiteLine3.jpg	Medium_e26_stereo_44KHz.wav
1	4	3	3	2	I	2	0	1305	0	poli_8sides 8_whiteLine3.jpg	Medium_e13_stereo_44KHz.wav
1	5	1	1	1	C	2	0	1264	0	poli_8sides 5_whiteLine3.jpg	MediumLong_e04_stereo_44KHz.wav
1	6	3	4	2	I	1	0	1368	1	poli_8sides 8_whiteLine3.jpg	Medium_e26_stereo_44KHz.wav
1	7	4	3	2	I	1	0	974	1	poli_8sides 15_whiteLine3.jpg	Medium_e13_stereo_44KHz.wav
1	8	2	1	0	C	2	1	1096	1	poli_8sides 10_whiteLine3.jpg	MediumLong_e04_stereo_44KHz.wav
1	9	1	2	0	C	2	1	947	1	poli_8sides 5_whiteLine3.jpg	MediumLong_b10_cut2_L_stereo_44KHz.wav
1	10	3	4	2	I	1	0	1053	0	poli_8sides 8_whiteLine3.jpg	Medium_e26_stereo_44KHz.wav
1	11	2	2	1	C	1	1	850	1	poli_8sides 10_whiteLine3.jpg	MediumLong_b10_cut2_L_stereo_44KHz.wav
1	12	4	3	2	I	2	0	960	0	poli_8sides 15_whiteLine3.jpg	Medium_e13_stereo_44KHz.wav
1	13	1	1	1	C	2	0	999	0	poli_8sides 5_whiteLine3.jpg	MediumLong_e04_stereo_44KHz.wav
1	14	4	4	2	I	1	0	1156	0	poli_8sides 15_whiteLine3.jpg	Medium_e26_stereo_44KHz.wav
1	15	3	3	2	I	1	0	791	0	poli_8sides 8_whiteLine3.jpg	Medium_e13_stereo_44KHz.wav
1	16	2	1	0	C	1	0	837	0	poli_8sides 10_whiteLine3.jpg	MediumLong_e04_stereo_44KHz.wav
1	17	4	3	2	I	1	0	999	0	poli_8sides 15_whiteLine3.jpg	Medium_e13_stereo_44KHz.wav
1	18	3	4	2	I	1	0	782	1	poli_8sides 8_whiteLine3.jpg	Medium_e26_stereo_44KHz.wav
1	19	2	2	1	C	1	1	858	1	poli_8sides 10_whiteLine3.jpg	MediumLong_b10_cut2_L_stereo_44KHz.wav
1	20	1	1	1	C	1	1	1001	1	poli_8sides 5_whiteLine3.jpg	MediumLong_e04_stereo_44KHz.wav
1	21	2	1	0	C	2	1	734	1	poli_8sides 10_whiteLine3.jpg	MediumLong_e04_stereo_44KHz.wav
1	22	1	2	0	C	2	1	782	1	poli_8sides 5_whiteLine3.jpg	MediumLong_b10_cut2_L_stereo_44KHz.wav
1	23	3	3	2	I	2	0	783	0	poli_8sides 8_whiteLine3.jpg	Medium_e13_stereo_44KHz.wav
1	24	4	4	2	I	2	0	831	1	poli_8sides 15_whiteLine3.jpg	Medium_e26_stereo_44KHz.wav
1	25	3	4	2	I	1	0	1200	1	poli_8sides 8_whiteLine3.jpg	Medium_e26_stereo_44KHz.wav
1	26	2	1	0	C	2	1	721	1	poli_8sides 10_whiteLine3.jpg	MediumLong_e04_stereo_44KHz.wav
1	27	1	1	1	C	1	1	689	1	poli_8sides 5_whiteLine3.jpg	MediumLong_e04_stereo_44KHz.wav
1	28	4	3	2	I	1	0	819	1	poli_8sides 15_whiteLine3.jpg	Medium_e13_stereo_44KHz.wav
1	29	2	2	1	C	2	0	944	0	poli_8sides 10_whiteLine3.jpg	MediumLong_b10_cut2_L_stereo_44KHz.wav
1	30	1	2	0	C	2	1	525	1	poli_8sides 5_whiteLine3.jpg	MediumLong_b10_cut2_L_stereo_44KHz.wav
1	31	3	3	2	I	2	0	1175	1	poli_8sides 8_whiteLine3.jpg	Medium_e13_stereo_44KHz.wav
1	32	4	4	2	I	1	0	765	0	poli_8sides 15_whiteLine3.jpg	Medium_e26_stereo_44KHz.wav
1	33	1	1	1	C	1	1	748	1	poli_8sides 5_whiteLine3.jpg	MediumLong_e04_stereo_44KHz.wav
1	34	2	1	0	C	2	1	406	1	poli_8sides 10_whiteLine3.jpg	MediumLong_e04_stereo_44KHz.wav
1	35	4	4	2	I	2	0	808	1	poli_8sides 15_whiteLine3.jpg	Medium_e26_stereo_44KHz.wav
1	36	3	3	2	I	2	0	620	1	poli_8sides 8_whiteLine3.jpg	Medium_e13_stereo_44KHz.wav
1	37	4	3	2	I	1	0	745	0	poli_8sides 15_whiteLine3.jpg	Medium_e13_stereo_44KHz.wav
1	38	1	2	0	C	2	1	838	1	poli_8sides 5_whiteLine3.jpg	MediumLong_b10_cut2_L_stereo_44KHz.wav
1	39	3	4	2	I	1	0	1301	1	poli_8sides 8_whiteLine3.jpg	Medium_e26_stereo_44KHz.wav
1	40	2	2	1	C	2	0	857	0	poli_8sides 10_whiteLine3.jpg	MediumLong_b10_cut2_L_stereo_44KHz.wav
1	41	4	4	2	I	2	0	642	0	poli_8sides 15_whiteLine3.jpg	Medium_e26_stereo_44KHz.wav
1	42	2	2	1	C	2	0	814	0	poli_8sides 10_whiteLine3.jpg	MediumLong_b10_cut2_L_stereo_44KHz.wav
1	43	3	3	2	I	2	0	685	1	poli_8sides 8_whiteLine3.jpg	Medium_e13_stereo_44KHz.wav
1	44	1	2	0	C	2	1	881	1	poli_8sides 5_whiteLine3.jpg	MediumLong_b10_cut2_L_stereo_44KHz.wav
1	45	2	1	0	C	2	1	849	1	poli_8sides 10_whiteLine3.jpg	MediumLong_e04_stereo_44KHz.wav
1	46	4	3	2	I	2	0	809	1	poli_8sides 15_whiteLine3.jpg	Medium_e13_stereo_44KHz.wav
1	47	1	1	1	C	1	1	976	1	poli_8sides 5_whiteLine3.jpg	MediumLong_e04_stereo_44KHz.wav
1	48	3	4	2	I	2	0	793	0	poli_8sides 8_whiteLine3.jpg	Medium_e26_stereo_44KHz.wav
1	49	1	1	1	C	1	1	736	1	poli_8sides 5_whiteLine3.jpg	MediumLong_e04_stereo_44KHz.wav
1	50	2	2	1	C	1	1	889	1	poli_8sides 10_whiteLine3.jpg	MediumLong_b10_cut2_L_stereo_44KHz.wav
1	51	3	3	2	I	1	0	1014	1	poli_8sides 8_whiteLine3.jpg	Medium_e13_stereo_44KHz.wav
1	52	4	3	2	I	1	0	778	1	poli_8sides 15_whiteLine3.jpg	Medium_e13_stereo_44KHz.wav
1	53	1	2	0	C	2	1	694	1	poli_8sides 5_whiteLine3.jpg	MediumLong_b10_cut2_L_stereo_44KHz.wav
1	54	2	1	0	C	2	1	702	1	poli_8sides 10_whiteLine3.jpg	MediumLong_e04_stereo_44KHz.wav
1	55	3	4	2	I	1	0	870	0	poli_8sides 8_whiteLine3.jpg	Medium_e26_stereo_44KHz.wav
1	56	4	4	2	I	2	0	498	0	poli_8sides 15_whiteLine3.jpg	Medium_e26_stereo_44KHz.wav
1	57	1	2	0	C	2	1	1228	1	poli_8sides 5_whiteLine3.jpg	MediumLong_b10_cut2_L_stereo_44KHz.wav
1	58	4	4	2	I	1	0	1364	0	poli_8sides 15_whiteLine3.jpg	Medium_e26_stereo_44KHz.wav
1	59	2	1	0	C	2	1	567	1	poli_8sides 10_whiteLine3.jpg	MediumLong_e04_stereo_44KHz.wav
1	60	3	3	2	I	2	0	603	1	poli_8sides 8_whiteLine3.jpg	Medium_e13_stereo_44KHz.wav
1	61	4	3	2	I	1	0	759	1	poli_8sides 15_whiteLine3.jpg	Medium_e13_stereo_44KHz.wav
1	62	2	2	1	C	2	0	551	0	poli_8sides 10_whiteLine3.jpg	MediumLong_b10_cut2_L_stereo_44KHz.wav
1	63	3	4	2	I	2	0	884	1	poli_8sides 8_whiteLine3.jpg	Medium_e26_stereo_44KHz.wav
1	64	1	1	1	C	1	1	755	1	poli_8sides 5_whiteLine3.jpg	MediumLong_e04_stereo_44KHz.wav
1	65	4	3	2	I	2	0	719	1	poli_8sides 15_whiteLine3.jpg	Medium_e13_stereo_44KHz.wav
1	66	3	3	2	I	2	0	666	1	poli_8sides 8_whiteLine3.jpg	Medium_e13_stereo_44KHz.wav
1	67	2	1	0	C	2	1	705	1	poli_8sides 10_whiteLine3.jpg	MediumLong_e04_stereo_44KHz.wav
1	68	1	2	0	C	2	1	936	1	poli_8sides 5_whiteLine3.jpg	MediumLong_b10_cut2_L_stereo_44KHz.wav
1	69	2	2	1	C	1	1	923	1	poli_8sides 10_whiteLine3.jpg	MediumLong_b10_cut2_L_stereo_44KHz.wav
1	70	4	4	2	I	1	0	887	1	poli_8sides 15_whiteLine3.jpg	Medium_e26_stereo_44KHz.wav
1	71	3	4	2	I	2	0	743	0	poli_8sides 8_whiteLine3.jpg	Medium_e26_stereo_44KHz.wav
1	72	1	1	1	C	1	1	721	1	poli_8sides 5_whiteLine3.jpg	MediumLong_e04_stereo_44KHz.wav
1	73	2	1	0	C	2	1	514	1	poli_8sides 10_whiteLine3.jpg	MediumLong_e04_stereo_44KHz.wav
1	74	4	3	2	I	1	0	730	0	poli_8sides 15_whiteLine3.jpg	Medium_e13_stereo_44KHz.wav
1	75	1	1	1	C	1	1	1528	1	poli_8sides 5_whiteLine3.jpg	MediumLong_e04_stereo_44KHz.wav
1	76	3	4	2	I	2	0	675	0	poli_8sides 8_whiteLine3.jpg	Medium_e26_stereo_44KHz.wav
1	77	4	4	2	I	1	0	731	1	poli_8sides 15_whiteLine3.jpg	Medium_e26_stereo_44KHz.wav
1	78	3	3	2	I	2	0	750	0	poli_8sides 8_whiteLine3.jpg	Medium_e13_stereo_44KHz.wav
1	79	2	2	1	C	2	0	1101	0	poli_8sides 10_whiteLine3.jpg	MediumLong_b10_cut2_L_stereo_44KHz.wav
1	80	1	2	0	C	2	1	821	1	poli_8sides 5_whiteLine3.jpg	MediumLong_b10_cut2_L_stereo_44KHz.wav
1	81	2	2	1	C	1	1	1016	1	poli_8sides 10_whiteLine3.jpg	MediumLong_b10_cut2_L_stereo_44KHz.wav
1	82	1	2	0	C	2	1	753	1	poli_8sides 5_whiteLine3.jpg	MediumLong_b10_cut2_L_stereo_44KHz.wav
1	83	3	3	2	I	2	0	1350	1	poli_8sides 8_whiteLine3.jpg	Medium_e13_stereo_44KHz.wav
1	84	4	3	2	I	2	0	864	1	poli_8sides 15_whiteLine3.jpg	Medium_e13_stereo_44KHz.wav
1	85	1	1	1	C	1	1	594	1	poli_8sides 5_whiteLine3.jpg	MediumLong_e04_stereo_44KHz.wav
1	86	3	4	2	I	2	0	977	0	poli_8sides 8_whiteLine3.jpg	Medium_e26_stereo_44KHz.wav
1	87	4	4	2	I	1	0	948	0	poli_8sides 15_whiteLine3.jpg	Medium_e26_stereo_44KHz.wav
1	88	2	1	0	C	2	1	559	1	poli_8sides 10_whiteLine3.jpg	MediumLong_e04_stereo_44KHz.wav
1	89	4	3	2	I	1	0	763	1	poli_8sides 15_whiteLine3.jpg	Medium_e13_stereo_44KHz.wav
1	90	2	2	1	C	1	1	755	1	poli_8sides 10_whiteLine3.jpg	MediumLong_b10_cut2_L_stereo_44KHz.wav
1	91	3	4	2	I	2	0	964	1	poli_8sides 8_whiteLine3.jpg	Medium_e26_stereo_44KHz.wav
1	92	1	1	1	C	1	1	591	1	poli_8sides 5_whiteLine3.jpg	MediumLong_e04_stereo_44KHz.wav
1	93	4	4	2	I	1	0	722	1	poli_8sides 15_whiteLine3.jpg	Medium_e26_stereo_44KHz.wav
1	94	3	3	2	I	2	0	908	0	poli_8sides 8_whiteLine3.jpg	Medium_e13_stereo_44KHz.wav
1	95	2	1	0	C	1	0	518	0	poli_8sides 10_whiteLine3.jpg	MediumLong_e04_stereo_44KHz.wav
1	96	1	2	0	C	2	1	858	1	poli_8sides 5_whiteLine3.jpg	MediumLong_b10_cut2_L_stereo_44KHz.wav
1	97	2	2	1	C	1	1	831	1	poli_8sides 10_whiteLine3.jpg	MediumLong_b10_cut2_L_stereo_44KHz.wav
1	98	1	1	1	C	1	1	671	1	poli_8sides 5_whiteLine3.jpg	MediumLong_e04_stereo_44KHz.wav
1	99	4	3	2	I	1	0	888	0	poli_8sides 15_whiteLine3.jpg	Medium_e13_stereo_44KHz.wav
1	100	3	3	2	I	2	0	837	0	poli_8sides 8_whiteLine3.jpg	Medium_e13_stereo_44KHz.wav
1	101	4	4	2	I	1	0	1153	0	poli_8sides 15_whiteLine3.jpg	Medium_e26_stereo_44KHz.wav
1	102	2	1	0	C	2	1	613	1	poli_8sides 10_whiteLine3.jpg	MediumLong_e04_stereo_44KHz.wav
1	103	1	2	0	C	2	1	821	1	poli_8sides 5_whiteLine3.jpg	MediumLong_b10_cut2_L_stereo_44KHz.wav
1	104	3	4	2	I	2	0	867	1	poli_8sides 8_whiteLine3.jpg	Medium_e26_stereo_44KHz.wav
1	105	1	1	1	C	1	1	899	1	poli_8sides 5_whiteLine3.jpg	MediumLong_e04_stereo_44KHz.wav
1	106	4	4	2	I	2	0	837	0	poli_8sides 15_whiteLine3.jpg	Medium_e26_stereo_44KHz.wav
1	107	2	1	0	C	2	1	492	1	poli_8sides 10_whiteLine3.jpg	MediumLong_e04_stereo_44KHz.wav
1	108	3	4	2	I	1	0	944	0	poli_8sides 8_whiteLine3.jpg	Medium_e26_stereo_44KHz.wav
1	109	1	2	0	C	2	1	914	1	poli_8sides 5_whiteLine3.jpg	MediumLong_b10_cut2_L_stereo_44KHz.wav
1	110	4	3	2	I	1	0	894	0	poli_8sides 15_whiteLine3.jpg	Medium_e13_stereo_44KHz.wav
1	111	2	2	1	C	1	1	1078	1	poli_8sides 10_whiteLine3.jpg	MediumLong_b10_cut2_L_stereo_44KHz.wav
1	112	3	3	2	I	2	0	861	1	poli_8sides 8_whiteLine3.jpg	Medium_e13_stereo_44KHz.wav
1	113	2	2	1	C	2	0	730	0	poli_8sides 10_whiteLine3.jpg	MediumLong_b10_cut2_L_stereo_44KHz.wav
1	114	3	4	2	I	2	0	759	1	poli_8sides 8_whiteLine3.jpg	Medium_e26_stereo_44KHz.wav
1	115	4	3	2	I	1	0	850	0	poli_8sides 15_whiteLine3.jpg	Medium_e13_stereo_44KHz.wav
1	116	1	1	1	C	1	1	1201	1	poli_8sides 5_whiteLine3.jpg	MediumLong_e04_stereo_44KHz.wav
1	117	3	3	2	I	2	0	768	1	poli_8sides 8_whiteLine3.jpg	Medium_e13_stereo_44KHz.wav
1	118	1	2	0	C	2	1	769	1	poli_8sides 5_whiteLine3.jpg	MediumLong_b10_cut2_L_stereo_44KHz.wav
1	119	2	1	0	C	2	1	747	1	poli_8sides 10_whiteLine3.jpg	MediumLong_e04_stereo_44KHz.wav
1	120	4	4	2	I	2	0	940	0	poli_8sides 15_whiteLine3.jpg	Medium_e26_stereo_44KHz.wav
1	121	3	4	2	I	2	0	794	0	poli_8sides 8_whiteLine3.jpg	Medium_e26_stereo_44KHz.wav
1	122	4	4	2	I	2	0	938	0	poli_8sides 15_whiteLine3.jpg	Medium_e26_stereo_44KHz.wav
1	123	2	1	0	C	2	1	608	1	poli_8sides 10_whiteLine3.jpg	MediumLong_e04_stereo_44KHz.wav
1	124	1	2	0	C	2	1	745	1	poli_8sides 5_whiteLine3.jpg	MediumLong_b10_cut2_L_stereo_44KHz.wav
1	125	2	2	1	C	1	1	661	1	poli_8sides 10_whiteLine3.jpg	MediumLong_b10_cut2_L_stereo_44KHz.wav
1	126	3	3	2	I	2	0	745	0	poli_8sides 8_whiteLine3.jpg	Medium_e13_stereo_44KHz.wav
1	127	1	1	1	C	1	1	704	1	poli_8sides 5_whiteLine3.jpg	MediumLong_e04_stereo_44KHz.wav
1	128	4	3	2	I	2	0	1013	1	poli_8sides 15_whiteLine3.jpg	Medium_e13_stereo_44KHz.wav
1	129	2	1	0	C	2	1	646	1	poli_8sides 10_whiteLine3.jpg	MediumLong_e04_stereo_44KHz.wav
1	130	1	1	1	C	1	1	591	1	poli_8sides 5_whiteLine3.jpg	MediumLong_e04_stereo_44KHz.wav
1	131	4	3	2	I	1	0	1406	0	poli_8sides 15_whiteLine3.jpg	Medium_e13_stereo_44KHz.wav
1	132	3	3	2	I	1	0	699	0	poli_8sides 8_whiteLine3.jpg	Medium_e13_stereo_44KHz.wav
1	133	4	4	2	I	1	0	958	1	poli_8sides 15_whiteLine3.jpg	Medium_e26_stereo_44KHz.wav
1	134	1	2	0	C	2	1	795	1	poli_8sides 5_whiteLine3.jpg	MediumLong_b10_cut2_L_stereo_44KHz.wav
1	135	2	2	1	C	1	1	751	1	poli_8sides 10_whiteLine3.jpg	MediumLong_b10_cut2_L_stereo_44KHz.wav
1	136	3	4	2	I	1	0	1192	0	poli_8sides 8_whiteLine3.jpg	Medium_e26_stereo_44KHz.wav
1	137	4	3	2	I	2	0	824	1	poli_8sides 15_whiteLine3.jpg	Medium_e13_stereo_44KHz.wav
1	138	2	1	0	C	2	1	681	1	poli_8sides 10_whiteLine3.jpg	MediumLong_e04_stereo_44KHz.wav
1	139	1	2	0	C	2	1	800	1	poli_8sides 5_whiteLine3.jpg	MediumLong_b10_cut2_L_stereo_44KHz.wav
1	140	3	3	2	I	2	0	658	0	poli_8sides 8_whiteLine3.jpg	Medium_e13_stereo_44KHz.wav
1	141	1	1	1	C	1	1	878	1	poli_8sides 5_whiteLine3.jpg	MediumLong_e04_stereo_44KHz.wav
1	142	4	4	2	I	2	0	1145	1	poli_8sides 15_whiteLine3.jpg	Medium_e26_stereo_44KHz.wav
1	143	2	2	1	C	1	1	904	1	poli_8sides 10_whiteLine3.jpg	MediumLong_b10_cut2_L_stereo_44KHz.wav
1	144	3	4	2	I	1	0	856	0	poli_8sides 8_whiteLine3.jpg	Medium_e26_stereo_44KHz.wav
1	145	4	3	2	I	2	0	970	1	poli_8sides 15_whiteLine3.jpg	Medium_e13_stereo_44KHz.wav
1	146	1	2	0	C	2	1	679	1	poli_8sides 5_whiteLine3.jpg	MediumLong_b10_cut2_L_stereo_44KHz.wav
1	147	2	1	0	C	1	0	566	0	poli_8sides 10_whiteLine3.jpg	MediumLong_e04_stereo_44KHz.wav
1	148	3	3	2	I	1	0	1291	1	poli_8sides 8_whiteLine3.jpg	Medium_e13_stereo_44KHz.wav
1	149	2	2	1	C	1	1	1160	1	poli_8sides 10_whiteLine3.jpg	MediumLong_b10_cut2_L_stereo_44KHz.wav
1	150	1	1	1	C	1	1	1079	1	poli_8sides 5_whiteLine3.jpg	MediumLong_e04_stereo_44KHz.wav
1	151	4	4	2	I	1	0	1190	0	poli_8sides 15_whiteLine3.jpg	Medium_e26_stereo_44KHz.wav
1	152	3	4	2	I	2	0	1947	1	poli_8sides 8_whiteLine3.jpg	Medium_e26_stereo_44KHz.wav
1	153	4	4	2	I	2	0	840	0	poli_8sides 15_whiteLine3.jpg	Medium_e26_stereo_44KHz.wav
1	154	3	4	2	I	2	0	602	0	poli_8sides 8_whiteLine3.jpg	Medium_e26_stereo_44KHz.wav
1	155	2	1	0	C	2	1	700	1	poli_8sides 10_whiteLine3.jpg	MediumLong_e04_stereo_44KHz.wav
1	156	1	2	0	C	2	1	858	1	poli_8sides 5_whiteLine3.jpg	MediumLong_b10_cut2_L_stereo_44KHz.wav
1	157	2	2	1	C	2	0	501	0	poli_8sides 10_whiteLine3.jpg	MediumLong_b10_cut2_L_stereo_44KHz.wav
1	158	1	1	1	C	1	1	1063	1	poli_8sides 5_whiteLine3.jpg	MediumLong_e04_stereo_44KHz.wav
1	159	4	3	2	I	1	0	815	0	poli_8sides 15_whiteLine3.jpg	Medium_e13_stereo_44KHz.wav
1	160	3	3	2	I	2	0	601	1	poli_8sides 8_whiteLine3.jpg	Medium_e13_stereo_44KHz.wav
1	161	4	3	2	I	2	0	442	1	poli_8sides 15_whiteLine3.jpg	Medium_e13_stereo_44KHz.wav
1	162	2	2	1	C	2	0	825	0	poli_8sides 10_whiteLine3.jpg	MediumLong_b10_cut2_L_stereo_44KHz.wav
1	163	3	3	2	I	2	0	633	1	poli_8sides 8_whiteLine3.jpg	Medium_e13_stereo_44KHz.wav
1	164	1	1	1	C	1	1	560	1	poli_8sides 5_whiteLine3.jpg	MediumLong_e04_stereo_44KHz.wav
1	165	2	1	0	C	2	1	687	1	poli_8sides 10_whiteLine3.jpg	MediumLong_e04_stereo_44KHz.wav
1	166	3	4	2	I	1	0	1352	0	poli_8sides 8_whiteLine3.jpg	Medium_e26_stereo_44KHz.wav
1	167	1	2	0	C	2	1	947	1	poli_8sides 5_whiteLine3.jpg	MediumLong_b10_cut2_L_stereo_44KHz.wav
1	168	4	4	2	I	2	0	1405	0	poli_8sides 15_whiteLine3.jpg	Medium_e26_stereo_44KHz.wav
1	169	1	1	1	C	1	1	674	1	poli_8sides 5_whiteLine3.jpg	MediumLong_e04_stereo_44KHz.wav
1	170	3	4	2	I	2	0	776	0	poli_8sides 8_whiteLine3.jpg	Medium_e26_stereo_44KHz.wav
1	171	2	2	1	C	1	1	1267	1	poli_8sides 10_whiteLine3.jpg	MediumLong_b10_cut2_L_stereo_44KHz.wav
1	172	4	3	2	I	2	0	1423	1	poli_8sides 15_whiteLine3.jpg	Medium_e13_stereo_44KHz.wav
1	173	2	1	0	C	2	1	556	1	poli_8sides 10_whiteLine3.jpg	MediumLong_e04_stereo_44KHz.wav
1	174	3	3	2	I	2	0	974	0	poli_8sides 8_whiteLine3.jpg	Medium_e13_stereo_44KHz.wav
1	175	1	2	0	C	2	1	647	1	poli_8sides 5_whiteLine3.jpg	MediumLong_b10_cut2_L_stereo_44KHz.wav
1	176	4	4	2	I	2	0	632	0	poli_8sides 15_whiteLine3.jpg	Medium_e26_stereo_44KHz.wav
1	177	2	1	0	C	2	1	503	1	poli_8sides 10_whiteLine3.jpg	MediumLong_e04_stereo_44KHz.wav
1	178	4	4	2	I	1	0	1244	1	poli_8sides 15_whiteLine3.jpg	Medium_e26_stereo_44KHz.wav
1	179	3	4	2	I	1	0	1378	1	poli_8sides 8_whiteLine3.jpg	Medium_e26_stereo_44KHz.wav
1	180	1	2	0	C	2	1	664	1	poli_8sides 5_whiteLine3.jpg	MediumLong_b10_cut2_L_stereo_44KHz.wav
1	181	2	2	1	C	1	1	710	1	poli_8sides 10_whiteLine3.jpg	MediumLong_b10_cut2_L_stereo_44KHz.wav
1	182	1	1	1	C	1	1	936	1	poli_8sides 5_whiteLine3.jpg	MediumLong_e04_stereo_44KHz.wav
1	183	3	3	2	I	2	0	1244	1	poli_8sides 8_whiteLine3.jpg	Medium_e13_stereo_44KHz.wav
1	184	4	3	2	I	2	0	1030	1	poli_8sides 15_whiteLine3.jpg	Medium_e13_stereo_44KHz.wav
1	185	2	1	0	C	2	1	684	1	poli_8sides 10_whiteLine3.jpg	MediumLong_e04_stereo_44KHz.wav
1	186	3	3	2	I	2	0	1012	1	poli_8sides 8_whiteLine3.jpg	Medium_e13_stereo_44KHz.wav
1	187	1	2	0	C	2	1	1596	1	poli_8sides 5_whiteLine3.jpg	MediumLong_b10_cut2_L_stereo_44KHz.wav
1	188	4	3	2	I	1	0	668	1	poli_8sides 15_whiteLine3.jpg	Medium_e13_stereo_44KHz.wav
1	189	3	4	2	I	1	0	1588	0	poli_8sides 8_whiteLine3.jpg	Medium_e26_stereo_44KHz.wav
1	190	2	2	1	C	1	1	1046	1	poli_8sides 10_whiteLine3.jpg	MediumLong_b10_cut2_L_stereo_44KHz.wav
1	191	1	1	1	C	1	1	784	1	poli_8sides 5_whiteLine3.jpg	MediumLong_e04_stereo_44KHz.wav
1	192	4	4	2	I	2	0	812	1	poli_8sides 15_whiteLine3.jpg	Medium_e26_stereo_44KHz.wav
1	193	3	3	2	I	0	0	0	0	poli_8sides 8_whiteLine3.jpg	Medium_e13_stereo_44KHz.wav
1	194	4	3	2	I	2	0	559	0	poli_8sides 15_whiteLine3.jpg	Medium_e13_stereo_44KHz.wav
1	195	1	2	0	C	2	1	1063	1	poli_8sides 5_whiteLine3.jpg	MediumLong_b10_cut2_L_stereo_44KHz.wav
1	196	2	2	1	C	1	1	789	1	poli_8sides 10_whiteLine3.jpg	MediumLong_b10_cut2_L_stereo_44KHz.wav
1	197	3	4	2	I	2	0	1120	0	poli_8sides 8_whiteLine3.jpg	Medium_e26_stereo_44KHz.wav
1	198	2	1	0	C	1	0	492	0	poli_8sides 10_whiteLine3.jpg	MediumLong_e04_stereo_44KHz.wav
1	199	4	4	2	I	1	0	1477	1	poli_8sides 15_whiteLine3.jpg	Medium_e26_stereo_44KHz.wav
1	200	1	1	1	C	2	0	477	0	poli_8sides 5_whiteLine3.jpg	MediumLong_e04_stereo_44KHz.wav
2	1	3	4	2	I	0	0	0	0	poli_8sides 16_whiteLine3.jpg	MediumShort_e22_cut1_stereo_44KHz.wav
2	2	2	1	0	C	1	0	816	0	poli_8sides 6_whiteLine3.jpg	MediumShort_b10_cut1_MS_stereo_44KHz.wav
2	3	1	2	0	C	2	1	996	1	poli_8sides 2_whiteLine3.jpg	MediumShort_b16_cut3_MS_stereo_44KHz.wav
2	4	4	4	2	I	2	0	1366	1	poli_8sides 1_whiteLine3.jpg	MediumShort_e22_cut1_stereo_44KHz.wav
2	5	1	1	1	C	2	0	613	0	poli_8sides 2_whiteLine3.jpg	MediumShort_b10_cut1_MS_stereo_44KHz.wav
2	6	2	2	1	C	2	0	1007	0	poli_8sides 6_whiteLine3.jpg	MediumShort_b16_cut3_MS_stereo_44KHz.wav
2	7	4	3	2	I	2	0	1294	1	poli_8sides 1_whiteLine3.jpg	MediumShort_e16_cut1_stereo_44KHz.wav
2	8	3	3	2	I	1	0	807	0	poli_8sides 16_whiteLine3.jpg	MediumShort_e16_cut1_stereo_44KHz.wav
2	9	4	4	2	I	2	0	975	0	poli_8sides 1_whiteLine3.jpg	MediumShort_e22_cut1_stereo_44KHz.wav
2	10	1	2	0	C	2	1	811	1	poli_8sides 2_whiteLine3.jpg	MediumShort_b16_cut3_MS_stereo_44KHz.wav
2	11	3	3	2	I	2	0	868	1	poli_8sides 16_whiteLine3.jpg	MediumShort_e16_cut1_stereo_44KHz.wav
2	12	2	1	0	C	1	0	1319	0	poli_8sides 6_whiteLine3.jpg	MediumShort_b10_cut1_MS_stereo_44KHz.wav
2	13	1	1	1	C	1	1	1020	1	poli_8sides 2_whiteLine3.jpg	MediumShort_b10_cut1_MS_stereo_44KHz.wav
2	14	2	2	1	C	2	0	877	0	poli_8sides 6_whiteLine3.jpg	MediumShort_b16_cut3_MS_stereo_44KHz.wav
2	15	3	4	2	I	1	0	1150	1	poli_8sides 16_whiteLine3.jpg	MediumShort_e22_cut1_stereo_44KHz.wav
2	16	4	3	2	I	2	0	718	1	poli_8sides 1_whiteLine3.jpg	MediumShort_e16_cut1_stereo_44KHz.wav
2	17	1	1	1	C	1	1	784	1	poli_8sides 2_whiteLine3.jpg	MediumShort_b10_cut1_MS_stereo_44KHz.wav
2	18	2	2	1	C	2	0	695	0	poli_8sides 6_whiteLine3.jpg	MediumShort_b16_cut3_MS_stereo_44KHz.wav
2	19	4	3	2	I	2	0	997	1	poli_8sides 1_whiteLine3.jpg	MediumShort_e16_cut1_stereo_44KHz.wav
2	20	3	3	2	I	2	0	611	0	poli_8sides 16_whiteLine3.jpg	MediumShort_e16_cut1_stereo_44KHz.wav
2	21	2	1	0	C	1	0	1149	0	poli_8sides 6_whiteLine3.jpg	MediumShort_b10_cut1_MS_stereo_44KHz.wav
2	22	4	4	2	I	2	0	574	1	poli_8sides 1_whiteLine3.jpg	MediumShort_e22_cut1_stereo_44KHz.wav
2	23	1	2	0	C	1	0	751	0	poli_8sides 2_whiteLine3.jpg	MediumShort_b16_cut3_MS_stereo_44KHz.wav
2	24	3	4	2	I	2	0	1123	1	poli_8sides 16_whiteLine3.jpg	MediumShort_e22_cut1_stereo_44KHz.wav
2	25	4	4	2	I	1	0	795	1	poli_8sides 1_whiteLine3.jpg	MediumShort_e22_cut1_stereo_44KHz.wav
2	26	1	1	1	C	1	1	852	1	poli_8sides 2_whiteLine3.jpg	MediumShort_b10_cut1_MS_stereo_44KHz.wav
2	27	3	4	2	I	2	0	814	0	poli_8sides 16_whiteLine3.jpg	MediumShort_e22_cut1_stereo_44KHz.wav
2	28	2	1	0	C	2	1	1071	1	poli_8sides 6_whiteLine3.jpg	MediumShort_b10_cut1_MS_stereo_44KHz.wav
2	29	1	2	0	C	2	1	720	1	poli_8sides 2_whiteLine3.jpg	MediumShort_b16_cut3_MS_stereo_44KHz.wav
2	30	4	3	2	I	1	0	859	0	poli_8sides 1_whiteLine3.jpg	MediumShort_e16_cut1_stereo_44KHz.wav
2	31	3	3	2	I	2	0	542	1	poli_8sides 16_whiteLine3.jpg	MediumShort_e16_cut1_stereo_44KHz.wav
2	32	2	2	1	C	1	1	759	1	poli_8sides 6_whiteLine3.jpg	MediumShort_b16_cut3_MS_stereo_44KHz.wav
2	33	1	2	0	C	2	1	742	1	poli_8sides 2_whiteLine3.jpg	MediumShort_b16_cut3_MS_stereo_44KHz.wav
2	34	3	4	2	I	1	0	982	0	poli_8sides 16_whiteLine3.jpg	MediumShort_e22_cut1_stereo_44KHz.wav
2	35	4	3	2	I	2	0	839	0	poli_8sides 1_whiteLine3.jpg	MediumShort_e16_cut1_stereo_44KHz.wav
2	36	2	1	0	C	2	1	517	1	poli_8sides 6_whiteLine3.jpg	MediumShort_b10_cut1_MS_stereo_44KHz.wav
2	37	4	4	2	I	1	0	615	0	poli_8sides 1_whiteLine3.jpg	MediumShort_e22_cut1_stereo_44KHz.wav
2	38	3	3	2	I	2	0	581	1	poli_8sides 16_whiteLine3.jpg	MediumShort_e16_cut1_stereo_44KHz.wav
2	39	2	2	1	C	1	1	723	1	poli_8sides 6_whiteLine3.jpg	MediumShort_b16_cut3_MS_stereo_44KHz.wav
2	40	1	1	1	C	2	0	876	0	poli_8sides 2_whiteLine3.jpg	MediumShort_b10_cut1_MS_stereo_44KHz.wav
2	41	3	4	2	I	2	0	1000	1	poli_8sides 16_whiteLine3.jpg	MediumShort_e22_cut1_stereo_44KHz.wav
2	42	2	2	1	C	1	1	729	1	poli_8sides 6_whiteLine3.jpg	MediumShort_b16_cut3_MS_stereo_44KHz.wav
2	43	4	3	2	I	1	0	960	1	poli_8sides 1_whiteLine3.jpg	MediumShort_e16_cut1_stereo_44KHz.wav
2	44	1	2	0	C	2	1	677	1	poli_8sides 2_whiteLine3.jpg	MediumShort_b16_cut3_MS_stereo_44KHz.wav
2	45	2	1	0	C	1	0	765	0	poli_8sides 6_whiteLine3.jpg	MediumShort_b10_cut1_MS_stereo_44KHz.wav
2	46	4	4	2	I	2	0	643	1	poli_8sides 1_whiteLine3.jpg	MediumShort_e22_cut1_stereo_44KHz.wav
2	47	3	3	2	I	2	0	690	0	poli_8sides 16_whiteLine3.jpg	MediumShort_e16_cut1_stereo_44KHz.wav
2	48	1	1	1	C	1	1	784	1	poli_8sides 2_whiteLine3.jpg	MediumShort_b10_cut1_MS_stereo_44KHz.wav
2	49	2	2	1	C	1	1	786	1	poli_8sides 6_whiteLine3.jpg	MediumShort_b16_cut3_MS_stereo_44KHz.wav
2	50	1	1	1	C	1	1	1270	1	poli_8sides 2_whiteLine3.jpg	MediumShort_b10_cut1_MS_stereo_44KHz.wav
2	51	4	4	2	I	2	0	839	1	poli_8sides 1_whiteLine3.jpg	MediumShort_e22_cut1_stereo_44KHz.wav
2	52	3	4	2	I	1	0	568	0	poli_8sides 16_whiteLine3.jpg	MediumShort_e22_cut1_stereo_44KHz.wav
2	53	4	3	2	I	1	0	744	1	poli_8sides 1_whiteLine3.jpg	MediumShort_e16_cut1_stereo_44KHz.wav
2	54	1	2	0	C	2	1	793	1	poli_8sides 2_whiteLine3.jpg	MediumShort_b16_cut3_MS_stereo_44KHz.wav
2	55	3	3	2	I	2	0	1273	1	poli_8sides 16_whiteLine3.jpg	MediumShort_e16_cut1_stereo_44KHz.wav
2	56	2	1	0	C	1	0	708	0	poli_8sides 6_whiteLine3.jpg	MediumShort_b10_cut1_MS_stereo_44KHz.wav
2	57	1	1	1	C	1	1	759	1	poli_8sides 2_whiteLine3.jpg	MediumShort_b10_cut1_MS_stereo_44KHz.wav
2	58	4	4	2	I	2	0	640	1	poli_8sides 1_whiteLine3.jpg	MediumShort_e22_cut1_stereo_44KHz.wav
2	59	3	4	2	I	1	0	536	1	poli_8sides 16_whiteLine3.jpg	MediumShort_e22_cut1_stereo_44KHz.wav
2	60	2	2	1	C	1	1	793	1	poli_8sides 6_whiteLine3.jpg	MediumShort_b16_cut3_MS_stereo_44KHz.wav
2	61	4	3	2	I	1	0	682	0	poli_8sides 1_whiteLine3.jpg	MediumShort_e16_cut1_stereo_44KHz.wav
2	62	3	3	2	I	2	0	653	0	poli_8sides 16_whiteLine3.jpg	MediumShort_e16_cut1_stereo_44KHz.wav
2	63	2	1	0	C	2	1	754	1	poli_8sides 6_whiteLine3.jpg	MediumShort_b10_cut1_MS_stereo_44KHz.wav
2	64	1	2	0	C	2	1	777	1	poli_8sides 2_whiteLine3.jpg	MediumShort_b16_cut3_MS_stereo_44KHz.wav
2	65	2	1	0	C	2	1	809	1	poli_8sides 6_whiteLine3.jpg	MediumShort_b10_cut1_MS_stereo_44KHz.wav
2	66	3	4	2	I	1	0	1139	1	poli_8sides 16_whiteLine3.jpg	MediumShort_e22_cut1_stereo_44KHz.wav
2	67	4	3	2	I	1	0	766	0	poli_8sides 1_whiteLine3.jpg	MediumShort_e16_cut1_stereo_44KHz.wav
2	68	1	2	0	C	2	1	649	1	poli_8sides 2_whiteLine3.jpg	MediumShort_b16_cut3_MS_stereo_44KHz.wav
2	69	2	2	1	C	1	1	661	1	poli_8sides 6_whiteLine3.jpg	MediumShort_b16_cut3_MS_stereo_44KHz.wav
2	70	4	4	2	I	2	0	858	0	poli_8sides 1_whiteLine3.jpg	MediumShort_e22_cut1_stereo_44KHz.wav
2	71	3	3	2	I	2	0	679	0	poli_8sides 16_whiteLine3.jpg	MediumShort_e16_cut1_stereo_44KHz.wav
2	72	1	1	1	C	1	1	937	1	poli_8sides 2_whiteLine3.jpg	MediumShort_b10_cut1_MS_stereo_44KHz.wav
2	73	4	3	2	I	2	0	1123	0	poli_8sides 1_whiteLine3.jpg	MediumShort_e16_cut1_stereo_44KHz.wav
2	74	2	1	0	C	2	1	567	1	poli_8sides 6_whiteLine3.jpg	MediumShort_b10_cut1_MS_stereo_44KHz.wav
2	75	3	4	2	I	2	0	1185	0	poli_8sides 16_whiteLine3.jpg	MediumShort_e22_cut1_stereo_44KHz.wav
2	76	1	2	0	C	1	0	1143	0	poli_8sides 2_whiteLine3.jpg	MediumShort_b16_cut3_MS_stereo_44KHz.wav
2	77	4	4	2	I	2	0	961	0	poli_8sides 1_whiteLine3.jpg	MediumShort_e22_cut1_stereo_44KHz.wav
2	78	1	1	1	C	1	1	949	1	poli_8sides 2_whiteLine3.jpg	MediumShort_b10_cut1_MS_stereo_44KHz.wav
2	79	3	3	2	I	2	0	910	1	poli_8sides 16_whiteLine3.jpg	MediumShort_e16_cut1_stereo_44KHz.wav
2	80	2	2	1	C	1	1	848	1	poli_8sides 6_whiteLine3.jpg	MediumShort_b16_cut3_MS_stereo_44KHz.wav
2	81	3	3	2	I	1	0	957	0	poli_8sides 16_whiteLine3.jpg	MediumShort_e16_cut1_stereo_44KHz.wav
2	82	1	2	0	C	2	1	930	1	poli_8sides 2_whiteLine3.jpg	MediumShort_b16_cut3_MS_stereo_44KHz.wav
2	83	2	1	0	C	2	1	718	1	poli_8sides 6_whiteLine3.jpg	MediumShort_b10_cut1_MS_stereo_44KHz.wav
2	84	4	4	2	I	2	0	879	1	poli_8sides 1_whiteLine3.jpg	MediumShort_e22_cut1_stereo_44KHz.wav
2	85	2	2	1	C	1	1	806	1	poli_8sides 6_whiteLine3.jpg	MediumShort_b16_cut3_MS_stereo_44KHz.wav
2	86	1	1	1	C	1	1	1188	1	poli_8sides 2_whiteLine3.jpg	MediumShort_b10_cut1_MS_stereo_44KHz.wav
2	87	4	3	2	I	2	0	915	0	poli_8sides 1_whiteLine3.jpg	MediumShort_e16_cut1_stereo_44KHz.wav
2	88	3	4	2	I	1	0	649	0	poli_8sides 16_whiteLine3.jpg	MediumShort_e22_cut1_stereo_44KHz.wav
2	89	1	2	0	C	2	1	661	1	poli_8sides 2_whiteLine3.jpg	MediumShort_b16_cut3_MS_stereo_44KHz.wav
2	90	3	4	2	I	2	0	595	0	poli_8sides 16_whiteLine3.jpg	MediumShort_e22_cut1_stereo_44KHz.wav
2	91	4	3	2	I	2	0	573	1	poli_8sides 1_whiteLine3.jpg	MediumShort_e16_cut1_stereo_44KHz.wav
2	92	2	1	0	C	1	0	1058	0	poli_8sides 6_whiteLine3.jpg	MediumShort_b10_cut1_MS_stereo_44KHz.wav
2	93	3	3	2	I	2	0	593	1	poli_8sides 16_whiteLine3.jpg	MediumShort_e16_cut1_stereo_44KHz.wav
2	94	2	2	1	C	1	1	739	1	poli_8sides 6_whiteLine3.jpg	MediumShort_b16_cut3_MS_stereo_44KHz.wav
2	95	1	1	1	C	1	1	883	1	poli_8sides 2_whiteLine3.jpg	MediumShort_b10_cut1_MS_stereo_44KHz.wav
2	96	4	4	2	I	2	0	643	0	poli_8sides 1_whiteLine3.jpg	MediumShort_e22_cut1_stereo_44KHz.wav
2	97	1	2	0	C	2	1	637	1	poli_8sides 2_whiteLine3.jpg	MediumShort_b16_cut3_MS_stereo_44KHz.wav
2	98	4	3	2	I	1	0	1254	1	poli_8sides 1_whiteLine3.jpg	MediumShort_e16_cut1_stereo_44KHz.wav
2	99	3	3	2	I	2	0	548	0	poli_8sides 16_whiteLine3.jpg	MediumShort_e16_cut1_stereo_44KHz.wav
2	100	2	1	0	C	2	1	642	1	poli_8sides 6_whiteLine3.jpg	MediumShort_b10_cut1_MS_stereo_44KHz.wav
2	101	4	4	2	I	2	0	651	0	poli_8sides 1_whiteLine3.jpg	MediumShort_e22_cut1_stereo_44KHz.wav
2	102	3	4	2	I	2	0	405	1	poli_8sides 16_whiteLine3.jpg	MediumShort_e22_cut1_stereo_44KHz.wav
2	103	2	2	1	C	1	1	581	1	poli_8sides 6_whiteLine3.jpg	MediumShort_b16_cut3_MS_stereo_44KHz.wav
2	104	1	1	1	C	1	1	585	1	poli_8sides 2_whiteLine3.jpg	MediumShort_b10_cut1_MS_stereo_44KHz.wav
2	105	3	4	2	I	2	0	1043	1	poli_8sides 16_whiteLine3.jpg	MediumShort_e22_cut1_stereo_44KHz.wav
2	106	2	1	0	C	1	0	1074	0	poli_8sides 6_whiteLine3.jpg	MediumShort_b10_cut1_MS_stereo_44KHz.wav
2	107	1	1	1	C	1	1	1135	1	poli_8sides 2_whiteLine3.jpg	MediumShort_b10_cut1_MS_stereo_44KHz.wav
2	108	4	3	2	I	2	0	920	0	poli_8sides 1_whiteLine3.jpg	MediumShort_e16_cut1_stereo_44KHz.wav
2	109	1	2	0	C	2	1	768	1	poli_8sides 2_whiteLine3.jpg	MediumShort_b16_cut3_MS_stereo_44KHz.wav
2	110	2	2	1	C	1	1	522	1	poli_8sides 6_whiteLine3.jpg	MediumShort_b16_cut3_MS_stereo_44KHz.wav
2	111	4	4	2	I	2	0	866	0	poli_8sides 1_whiteLine3.jpg	MediumShort_e22_cut1_stereo_44KHz.wav
2	112	3	3	2	I	2	0	484	0	poli_8sides 16_whiteLine3.jpg	MediumShort_e16_cut1_stereo_44KHz.wav
2	113	2	1	0	C	1	0	807	0	poli_8sides 6_whiteLine3.jpg	MediumShort_b10_cut1_MS_stereo_44KHz.wav
2	114	3	4	2	I	2	0	1160	0	poli_8sides 16_whiteLine3.jpg	MediumShort_e22_cut1_stereo_44KHz.wav
2	115	1	2	0	C	2	1	580	1	poli_8sides 2_whiteLine3.jpg	MediumShort_b16_cut3_MS_stereo_44KHz.wav
2	116	4	3	2	I	1	0	939	0	poli_8sides 1_whiteLine3.jpg	MediumShort_e16_cut1_stereo_44KHz.wav
2	117	2	2	1	C	1	1	1191	1	poli_8sides 6_whiteLine3.jpg	MediumShort_b16_cut3_MS_stereo_44KHz.wav
2	118	4	4	2	I	2	0	1101	1	poli_8sides 1_whiteLine3.jpg	MediumShort_e22_cut1_stereo_44KHz.wav
2	119	1	1	1	C	1	1	661	1	poli_8sides 2_whiteLine3.jpg	MediumShort_b10_cut1_MS_stereo_44KHz.wav
2	120	3	3	2	I	2	0	568	1	poli_8sides 16_whiteLine3.jpg	MediumShort_e16_cut1_stereo_44KHz.wav
2	121	1	1	1	C	2	0	764	0	poli_8sides 2_whiteLine3.jpg	MediumShort_b10_cut1_MS_stereo_44KHz.wav
2	122	3	4	2	I	2	0	629	0	poli_8sides 16_whiteLine3.jpg	MediumShort_e22_cut1_stereo_44KHz.wav
2	123	4	3	2	I	1	0	880	0	poli_8sides 1_whiteLine3.jpg	MediumShort_e16_cut1_stereo_44KHz.wav
2	124	2	1	0	C	2	1	621	1	poli_8sides 6_whiteLine3.jpg	MediumShort_b10_cut1_MS_stereo_44KHz.wav
2	125	4	4	2	I	2	0	659	0	poli_8sides 1_whiteLine3.jpg	MediumShort_e22_cut1_stereo_44KHz.wav
2	126	2	2	1	C	1	1	849	1	poli_8sides 6_whiteLine3.jpg	MediumShort_b16_cut3_MS_stereo_44KHz.wav
2	127	1	2	0	C	2	1	622	1	poli_8sides 2_whiteLine3.jpg	MediumShort_b16_cut3_MS_stereo_44KHz.wav
2	128	3	3	2	I	2	0	602	0	poli_8sides 16_whiteLine3.jpg	MediumShort_e16_cut1_stereo_44KHz.wav
2	129	2	2	1	C	2	0	684	0	poli_8sides 6_whiteLine3.jpg	MediumShort_b16_cut3_MS_stereo_44KHz.wav
2	130	1	2	0	C	2	1	493	1	poli_8sides 2_whiteLine3.jpg	MediumShort_b16_cut3_MS_stereo_44KHz.wav
2	131	3	4	2	I	2	0	770	1	poli_8sides 16_whiteLine3.jpg	MediumShort_e22_cut1_stereo_44KHz.wav
2	132	4	4	2	I	1	0	820	0	poli_8sides 1_whiteLine3.jpg	MediumShort_e22_cut1_stereo_44KHz.wav
2	133	3	3	2	I	2	0	606	1	poli_8sides 16_whiteLine3.jpg	MediumShort_e16_cut1_stereo_44KHz.wav
2	134	1	1	1	C	1	1	642	1	poli_8sides 2_whiteLine3.jpg	MediumShort_b10_cut1_MS_stereo_44KHz.wav
2	135	2	1	0	C	2	1	704	1	poli_8sides 6_whiteLine3.jpg	MediumShort_b10_cut1_MS_stereo_44KHz.wav
2	136	4	3	2	I	2	0	722	1	poli_8sides 1_whiteLine3.jpg	MediumShort_e16_cut1_stereo_44KHz.wav
2	137	2	1	0	C	1	0	582	0	poli_8sides 6_whiteLine3.jpg	MediumShort_b10_cut1_MS_stereo_44KHz.wav
2	138	3	4	2	I	2	0	876	1	poli_8sides 16_whiteLine3.jpg	MediumShort_e22_cut1_stereo_44KHz.wav
2	139	1	1	1	C	2	0	705	0	poli_8sides 2_whiteLine3.jpg	MediumShort_b10_cut1_MS_stereo_44KHz.wav
2	140	4	3	2	I	2	0	817	0	poli_8sides 1_whiteLine3.jpg	MediumShort_e16_cut1_stereo_44KHz.wav
2	141	1	2	0	C	2	1	491	1	poli_8sides 2_whiteLine3.jpg	MediumShort_b16_cut3_MS_stereo_44KHz.wav
2	142	2	2	1	C	1	1	662	1	poli_8sides 6_whiteLine3.jpg	MediumShort_b16_cut3_MS_stereo_44KHz.wav
2	143	4	4	2	I	2	0	915	1	poli_8sides 1_whiteLine3.jpg	MediumShort_e22_cut1_stereo_44KHz.wav
2	144	3	3	2	I	2	0	603	1	poli_8sides 16_whiteLine3.jpg	MediumShort_e16_cut1_stereo_44KHz.wav
2	145	4	3	2	I	1	0	604	1	poli_8sides 1_whiteLine3.jpg	MediumShort_e16_cut1_stereo_44KHz.wav
2	146	3	3	2	I	2	0	485	0	poli_8sides 16_whiteLine3.jpg	MediumShort_e16_cut1_stereo_44KHz.wav
2	147	1	1	1	C	1	1	678	1	poli_8sides 2_whiteLine3.jpg	MediumShort_b10_cut1_MS_stereo_44KHz.wav
2	148	2	2	1	C	1	1	777	1	poli_8sides 6_whiteLine3.jpg	MediumShort_b16_cut3_MS_stereo_44KHz.wav
2	149	4	4	2	I	2	0	800	0	poli_8sides 1_whiteLine3.jpg	MediumShort_e22_cut1_stereo_44KHz.wav
2	150	2	1	0	C	1	0	846	0	poli_8sides 6_whiteLine3.jpg	MediumShort_b10_cut1_MS_stereo_44KHz.wav
2	151	3	4	2	I	2	0	843	1	poli_8sides 16_whiteLine3.jpg	MediumShort_e22_cut1_stereo_44KHz.wav
2	152	1	2	0	C	2	1	765	1	poli_8sides 2_whiteLine3.jpg	MediumShort_b16_cut3_MS_stereo_44KHz.wav
2	153	4	3	2	I	1	0	686	0	poli_8sides 1_whiteLine3.jpg	MediumShort_e16_cut1_stereo_44KHz.wav
2	154	2	2	1	C	1	1	741	1	poli_8sides 6_whiteLine3.jpg	MediumShort_b16_cut3_MS_stereo_44KHz.wav
2	155	1	2	0	C	2	1	510	1	poli_8sides 2_whiteLine3.jpg	MediumShort_b16_cut3_MS_stereo_44KHz.wav
2	156	3	3	2	I	2	0	1058	0	poli_8sides 16_whiteLine3.jpg	MediumShort_e16_cut1_stereo_44KHz.wav
2	157	4	4	2	I	1	0	423	1	poli_8sides 1_whiteLine3.jpg	MediumShort_e22_cut1_stereo_44KHz.wav
2	158	3	4	2	I	2	0	542	0	poli_8sides 16_whiteLine3.jpg	MediumShort_e22_cut1_stereo_44KHz.wav
2	159	1	1	1	C	2	0	711	0	poli_8sides 2_whiteLine3.jpg	MediumShort_b10_cut1_MS_stereo_44KHz.wav
2	160	2	1	0	C	2	1	575	1	poli_8sides 6_whiteLine3.jpg	MediumShort_b10_cut1_MS_stereo_44KHz.wav
2	161	4	3	2	I	1	0	814	0	poli_8sides 1_whiteLine3.jpg	MediumShort_e16_cut1_stereo_44KHz.wav
2	162	1	1	1	C	2	0	613	0	poli_8sides 2_whiteLine3.jpg	MediumShort_b10_cut1_MS_stereo_44KHz.wav
2	163	2	2	1	C	1	1	652	1	poli_8sides 6_whiteLine3.jpg	MediumShort_b16_cut3_MS_stereo_44KHz.wav
2	164	3	4	2	I	1	0	1019	0	poli_8sides 16_whiteLine3.jpg	MediumShort_e22_cut1_stereo_44KHz.wav
2	165	1	2	0	C	2	1	735	1	poli_8sides 2_whiteLine3.jpg	MediumShort_b16_cut3_MS_stereo_44KHz.wav
2	166	3	3	2	I	2	0	576	0	poli_8sides 16_whiteLine3.jpg	MediumShort_e16_cut1_stereo_44KHz.wav
2	167	2	1	0	C	2	1	1062	1	poli_8sides 6_whiteLine3.jpg	MediumShort_b10_cut1_MS_stereo_44KHz.wav
2	168	4	4	2	I	2	0	900	1	poli_8sides 1_whiteLine3.jpg	MediumShort_e22_cut1_stereo_44KHz.wav
2	169	3	3	2	I	2	0	755	1	poli_8sides 16_whiteLine3.jpg	MediumShort_e16_cut1_stereo_44KHz.wav
2	170	1	2	0	C	2	1	529	1	poli_8sides 2_whiteLine3.jpg	MediumShort_b16_cut3_MS_stereo_44KHz.wav
2	171	4	3	2	I	1	0	821	1	poli_8sides 1_whiteLine3.jpg	MediumShort_e16_cut1_stereo_44KHz.wav
2	172	2	1	0	C	2	1	461	1	poli_8sides 6_whiteLine3.jpg	MediumShort_b10_cut1_MS_stereo_44KHz.wav
2	173	1	1	1	C	1	1	615	1	poli_8sides 2_whiteLine3.jpg	MediumShort_b10_cut1_MS_stereo_44KHz.wav
2	174	2	2	1	C	1	1	708	1	poli_8sides 6_whiteLine3.jpg	MediumShort_b16_cut3_MS_stereo_44KHz.wav
2	175	4	4	2	I	2	0	544	1	poli_8sides 1_whiteLine3.jpg	MediumShort_e22_cut1_stereo_44KHz.wav
2	176	3	4	2	I	1	0	568	1	poli_8sides 16_whiteLine3.jpg	MediumShort_e22_cut1_stereo_44KHz.wav
2	177	4	3	2	I	1	0	704	1	poli_8sides 1_whiteLine3.jpg	MediumShort_e16_cut1_stereo_44KHz.wav
2	178	2	2	1	C	1	1	592	1	poli_8sides 6_whiteLine3.jpg	MediumShort_b16_cut3_MS_stereo_44KHz.wav
2	179	3	4	2	I	1	0	699	0	poli_8sides 16_whiteLine3.jpg	MediumShort_e22_cut1_stereo_44KHz.wav
2	180	1	2	0	C	2	1	616	1	poli_8sides 2_whiteLine3.jpg	MediumShort_b16_cut3_MS_stereo_44KHz.wav
2	181	4	4	2	I	2	0	649	0	poli_8sides 1_whiteLine3.jpg	MediumShort_e22_cut1_stereo_44KHz.wav
2	182	3	3	2	I	1	0	854	0	poli_8sides 16_whiteLine3.jpg	MediumShort_e16_cut1_stereo_44KHz.wav
2	183	1	1	1	C	1	1	898	1	poli_8sides 2_whiteLine3.jpg	MediumShort_b10_cut1_MS_stereo_44KHz.wav
2	184	2	1	0	C	1	0	502	0	poli_8sides 6_whiteLine3.jpg	MediumShort_b10_cut1_MS_stereo_44KHz.wav
2	185	1	1	1	C	2	0	604	0	poli_8sides 2_whiteLine3.jpg	MediumShort_b10_cut1_MS_stereo_44KHz.wav
2	186	3	4	2	I	2	0	1047	0	poli_8sides 16_whiteLine3.jpg	MediumShort_e22_cut1_stereo_44KHz.wav
2	187	2	2	1	C	1	1	941	1	poli_8sides 6_whiteLine3.jpg	MediumShort_b16_cut3_MS_stereo_44KHz.wav
2	188	4	3	2	I	1	0	715	1	poli_8sides 1_whiteLine3.jpg	MediumShort_e16_cut1_stereo_44KHz.wav
2	189	1	2	0	C	2	1	1002	1	poli_8sides 2_whiteLine3.jpg	MediumShort_b16_cut3_MS_stereo_44KHz.wav
2	190	3	3	2	I	2	0	917	1	poli_8sides 16_whiteLine3.jpg	MediumShort_e16_cut1_stereo_44KHz.wav
2	191	2	1	0	C	2	1	984	1	poli_8sides 6_whiteLine3.jpg	MediumShort_b10_cut1_MS_stereo_44KHz.wav
2	192	4	4	2	I	2	0	689	1	poli_8sides 1_whiteLine3.jpg	MediumShort_e22_cut1_stereo_44KHz.wav
2	193	2	2	1	C	1	1	743	1	poli_8sides 6_whiteLine3.jpg	MediumShort_b16_cut3_MS_stereo_44KHz.wav
2	194	3	4	2	I	1	0	1119	1	poli_8sides 16_whiteLine3.jpg	MediumShort_e22_cut1_stereo_44KHz.wav
2	195	4	3	2	I	1	0	680	0	poli_8sides 1_whiteLine3.jpg	MediumShort_e16_cut1_stereo_44KHz.wav
2	196	1	2	0	C	2	1	655	1	poli_8sides 2_whiteLine3.jpg	MediumShort_b16_cut3_MS_stereo_44KHz.wav
2	197	4	4	2	I	2	0	821	0	poli_8sides 1_whiteLine3.jpg	MediumShort_e22_cut1_stereo_44KHz.wav
2	198	2	1	0	C	2	1	844	1	poli_8sides 6_whiteLine3.jpg	MediumShort_b10_cut1_MS_stereo_44KHz.wav
2	199	1	1	1	C	2	0	866	0	poli_8sides 2_whiteLine3.jpg	MediumShort_b10_cut1_MS_stereo_44KHz.wav
2	200	3	3	2	I	2	0	672	1	poli_8sides 16_whiteLine3.jpg	MediumShort_e16_cut1_stereo_44KHz.wav
3	1	2	1	0	C	2	1	1000	1	poli_8sides 4_whiteLine3.jpg	Short_b22_cut1_stereo_44KHz.wav
3	2	3	3	2	I	1	0	684	0	poli_8sides 12_whiteLine3.jpg	Short_b20_cut1_stereo_44KHz.wav
3	3	4	3	2	I	1	0	1186	1	poli_8sides 7_whiteLine3.jpg	Short_b20_cut1_stereo_44KHz.wav
3	4	1	1	1	C	2	0	580	0	poli_8sides 3_whiteLine3.jpg	Short_b22_cut1_stereo_44KHz.wav
3	5	2	2	1	C	2	0	848	0	poli_8sides 4_whiteLine3.jpg	Short_b23_cut1_stereo_44KHz.wav
3	6	3	4	2	I	1	0	1315	0	poli_8sides 12_whiteLine3.jpg	Short_b09_cut1_stereo_44KHz.wav
3	7	4	4	2	I	1	0	999	0	poli_8sides 7_whiteLine3.jpg	Short_b09_cut1_stereo_44KHz.wav
3	8	1	2	0	C	2	1	648	1	poli_8sides 3_whiteLine3.jpg	Short_b23_cut1_stereo_44KHz.wav
3	9	3	3	2	I	1	0	730	0	poli_8sides 12_whiteLine3.jpg	Short_b20_cut1_stereo_44KHz.wav
3	10	2	1	0	C	2	1	683	1	poli_8sides 4_whiteLine3.jpg	Short_b22_cut1_stereo_44KHz.wav
3	11	1	2	0	C	1	0	712	0	poli_8sides 3_whiteLine3.jpg	Short_b23_cut1_stereo_44KHz.wav
3	12	4	4	2	I	2	0	538	0	poli_8sides 7_whiteLine3.jpg	Short_b09_cut1_stereo_44KHz.wav
3	13	3	4	2	I	2	0	530	1	poli_8sides 12_whiteLine3.jpg	Short_b09_cut1_stereo_44KHz.wav
3	14	1	1	1	C	2	0	637	0	poli_8sides 3_whiteLine3.jpg	Short_b22_cut1_stereo_44KHz.wav
3	15	2	2	1	C	2	0	574	0	poli_8sides 4_whiteLine3.jpg	Short_b23_cut1_stereo_44KHz.wav
3	16	4	3	2	I	2	0	644	0	poli_8sides 7_whiteLine3.jpg	Short_b20_cut1_stereo_44KHz.wav
3	17	2	1	0	C	1	0	1016	0	poli_8sides 4_whiteLine3.jpg	Short_b22_cut1_stereo_44KHz.wav
3	18	4	4	2	I	2	0	1082	0	poli_8sides 7_whiteLine3.jpg	Short_b09_cut1_stereo_44KHz.wav
3	19	3	4	2	I	1	0	613	0	poli_8sides 12_whiteLine3.jpg	Short_b09_cut1_stereo_44KHz.wav
3	20	1	2	0	C	1	0	713	0	poli_8sides 3_whiteLine3.jpg	Short_b23_cut1_stereo_44KHz.wav
3	21	2	2	1	C	1	1	846	1	poli_8sides 4_whiteLine3.jpg	Short_b23_cut1_stereo_44KHz.wav
3	22	3	3	2	I	1	0	1009	0	poli_8sides 12_whiteLine3.jpg	Short_b20_cut1_stereo_44KHz.wav
3	23	1	1	1	C	2	0	635	0	poli_8sides 3_whiteLine3.jpg	Short_b22_cut1_stereo_44KHz.wav
3	24	4	3	2	I	2	0	744	0	poli_8sides 7_whiteLine3.jpg	Short_b20_cut1_stereo_44KHz.wav
3	25	3	3	2	I	1	0	491	1	poli_8sides 12_whiteLine3.jpg	Short_b20_cut1_stereo_44KHz.wav
3	26	4	3	2	I	1	0	670	0	poli_8sides 7_whiteLine3.jpg	Short_b20_cut1_stereo_44KHz.wav
3	27	1	2	0	C	2	1	914	1	poli_8sides 3_whiteLine3.jpg	Short_b23_cut1_stereo_44KHz.wav
3	28	2	2	1	C	1	1	1892	1	poli_8sides 4_whiteLine3.jpg	Short_b23_cut1_stereo_44KHz.wav
3	29	4	4	2	I	2	0	610	1	poli_8sides 7_whiteLine3.jpg	Short_b09_cut1_stereo_44KHz.wav
3	30	3	4	2	I	1	0	556	0	poli_8sides 12_whiteLine3.jpg	Short_b09_cut1_stereo_44KHz.wav
3	31	2	1	0	C	1	0	1306	0	poli_8sides 4_whiteLine3.jpg	Short_b22_cut1_stereo_44KHz.wav
3	32	1	1	1	C	2	0	662	0	poli_8sides 3_whiteLine3.jpg	Short_b22_cut1_stereo_44KHz.wav
3	33	3	3	2	I	1	0	673	1	poli_8sides 12_whiteLine3.jpg	Short_b20_cut1_stereo_44KHz.wav
3	34	2	1	0	C	2	1	1230	1	poli_8sides 4_whiteLine3.jpg	Short_b22_cut1_stereo_44KHz.wav
3	35	1	2	0	C	1	0	677	0	poli_8sides 3_whiteLine3.jpg	Short_b23_cut1_stereo_44KHz.wav
3	36	4	3	2	I	1	0	1012	1	poli_8sides 7_whiteLine3.jpg	Short_b20_cut1_stereo_44KHz.wav
3	37	3	4	2	I	2	0	853	1	poli_8sides 12_whiteLine3.jpg	Short_b09_cut1_stereo_44KHz.wav
3	38	4	4	2	I	1	0	1227	1	poli_8sides 7_whiteLine3.jpg	Short_b09_cut1_stereo_44KHz.wav
3	39	1	1	1	C	1	1	760	1	poli_8sides 3_whiteLine3.jpg	Short_b22_cut1_stereo_44KHz.wav
3	40	2	2	1	C	2	0	882	0	poli_8sides 4_whiteLine3.jpg	Short_b23_cut1_stereo_44KHz.wav
3	41	4	4	2	I	2	0	575	1	poli_8sides 7_whiteLine3.jpg	Short_b09_cut1_stereo_44KHz.wav
3	42	2	2	1	C	1	1	614	1	poli_8sides 4_whiteLine3.jpg	Short_b23_cut1_stereo_44KHz.wav
3	43	1	2	0	C	1	0	768	0	poli_8sides 3_whiteLine3.jpg	Short_b23_cut1_stereo_44KHz.wav
3	44	3	3	2	I	2	0	893	1	poli_8sides 12_whiteLine3.jpg	Short_b20_cut1_stereo_44KHz.wav
3	45	1	1	1	C	2	0	888	0	poli_8sides 3_whiteLine3.jpg	Short_b22_cut1_stereo_44KHz.wav
3	46	2	1	0	C	1	0	1206	0	poli_8sides 4_whiteLine3.jpg	Short_b22_cut1_stereo_44KHz.wav
3	47	3	4	2	I	2	0	553	0	poli_8sides 12_whiteLine3.jpg	Short_b09_cut1_stereo_44KHz.wav
3	48	4	3	2	I	1	0	1066	1	poli_8sides 7_whiteLine3.jpg	Short_b20_cut1_stereo_44KHz.wav
3	49	1	2	0	C	2	1	808	1	poli_8sides 3_whiteLine3.jpg	Short_b23_cut1_stereo_44KHz.wav
3	50	3	3	2	I	2	0	703	0	poli_8sides 12_whiteLine3.jpg	Short_b20_cut1_stereo_44KHz.wav
3	51	4	4	2	I	1	0	867	0	poli_8sides 7_whiteLine3.jpg	Short_b09_cut1_stereo_44KHz.wav
3	52	2	1	0	C	1	0	818	0	poli_8sides 4_whiteLine3.jpg	Short_b22_cut1_stereo_44KHz.wav
3	53	4	3	2	I	2	0	907	0	poli_8sides 7_whiteLine3.jpg	Short_b20_cut1_stereo_44KHz.wav
3	54	3	4	2	I	2	0	693	0	poli_8sides 12_whiteLine3.jpg	Short_b09_cut1_stereo_44KHz.wav
3	55	2	2	1	C	2	0	1059	0	poli_8sides 4_whiteLine3.jpg	Short_b23_cut1_stereo_44KHz.wav
3	56	1	1	1	C	1	1	925	1	poli_8sides 3_whiteLine3.jpg	Short_b22_cut1_stereo_44KHz.wav
3	57	4	4	2	I	1	0	1030	0	poli_8sides 7_whiteLine3.jpg	Short_b09_cut1_stereo_44KHz.wav
3	58	2	1	0	C	1	0	648	0	poli_8sides 4_whiteLine3.jpg	Short_b22_cut1_stereo_44KHz.wav
3	59	3	3	2	I	2	0	642	0	poli_8sides 12_whiteLine3.jpg	Short_b20_cut1_stereo_44KHz.wav
3	60	1	1	1	C	1	1	715	1	poli_8sides 3_whiteLine3.jpg	Short_b22_cut1_stereo_44KHz.wav
3	61	3	4	2	I	2	0	818	1	poli_8sides 12_whiteLine3.jpg	Short_b09_cut1_stereo_44KHz.wav
3	62	4	3	2	I	1	0	893	0	poli_8sides 7_whiteLine3.jpg	Short_b20_cut1_stereo_44KHz.wav
3	63	1	2	0	C	2	1	894	1	poli_8sides 3_whiteLine3.jpg	Short_b23_cut1_stereo_44KHz.wav
3	64	2	2	1	C	1	1	874	1	poli_8sides 4_whiteLine3.jpg	Short_b23_cut1_stereo_44KHz.wav
3	65	3	3	2	I	1	0	788	1	poli_8sides 12_whiteLine3.jpg	Short_b20_cut1_stereo_44KHz.wav
3	66	1	1	1	C	2	0	964	0	poli_8sides 3_whiteLine3.jpg	Short_b22_cut1_stereo_44KHz.wav
3	67	2	1	0	C	2	1	1046	1	poli_8sides 4_whiteLine3.jpg	Short_b22_cut1_stereo_44KHz.wav
3	68	4	3	2	I	1	0	743	1	poli_8sides 7_whiteLine3.jpg	Short_b20_cut1_stereo_44KHz.wav
3	69	1	2	0	C	2	1	1238	1	poli_8sides 3_whiteLine3.jpg	Short_b23_cut1_stereo_44KHz.wav
3	70	2	2	1	C	1	1	808	1	poli_8sides 4_whiteLine3.jpg	Short_b23_cut1_stereo_44KHz.wav
3	71	4	4	2	I	1	0	853	0	poli_8sides 7_whiteLine3.jpg	Short_b09_cut1_stereo_44KHz.wav
3	72	3	4	2	I	1	0	811	0	poli_8sides 12_whiteLine3.jpg	Short_b09_cut1_stereo_44KHz.wav
3	73	4	3	2	I	2	0	893	1	poli_8sides 7_whiteLine3.jpg	Short_b20_cut1_stereo_44KHz.wav
3	74	1	2	0	C	1	0	724	0	poli_8sides 3_whiteLine3.jpg	Short_b23_cut1_stereo_44KHz.wav
3	75	3	4	2	I	1	0	760	0	poli_8sides 12_whiteLine3.jpg	Short_b09_cut1_stereo_44KHz.wav
3	76	2	2	1	C	2	0	915	0	poli_8sides 4_whiteLine3.jpg	Short_b23_cut1_stereo_44KHz.wav
3	77	4	4	2	I	1	0	714	0	poli_8sides 7_whiteLine3.jpg	Short_b09_cut1_stereo_44KHz.wav
3	78	3	3	2	I	2	0	1210	0	poli_8sides 12_whiteLine3.jpg	Short_b20_cut1_stereo_44KHz.wav
3	79	1	1	1	C	2	0	843	0	poli_8sides 3_whiteLine3.jpg	Short_b22_cut1_stereo_44KHz.wav
3	80	2	1	0	C	2	1	540	1	poli_8sides 4_whiteLine3.jpg	Short_b22_cut1_stereo_44KHz.wav
3	81	1	2	0	C	1	0	1100	0	poli_8sides 3_whiteLine3.jpg	Short_b23_cut1_stereo_44KHz.wav
3	82	2	2	1	C	2	0	591	0	poli_8sides 4_whiteLine3.jpg	Short_b23_cut1_stereo_44KHz.wav
3	83	3	3	2	I	2	0	1011	1	poli_8sides 12_whiteLine3.jpg	Short_b20_cut1_stereo_44KHz.wav
3	84	4	4	2	I	2	0	471	1	poli_8sides 7_whiteLine3.jpg	Short_b09_cut1_stereo_44KHz.wav
3	85	3	4	2	I	1	0	666	1	poli_8sides 12_whiteLine3.jpg	Short_b09_cut1_stereo_44KHz.wav
3	86	2	1	0	C	2	1	775	1	poli_8sides 4_whiteLine3.jpg	Short_b22_cut1_stereo_44KHz.wav
3	87	1	1	1	C	1	1	605	1	poli_8sides 3_whiteLine3.jpg	Short_b22_cut1_stereo_44KHz.wav
3	88	4	3	2	I	2	0	805	0	poli_8sides 7_whiteLine3.jpg	Short_b20_cut1_stereo_44KHz.wav
3	89	2	1	0	C	2	1	1139	1	poli_8sides 4_whiteLine3.jpg	Short_b22_cut1_stereo_44KHz.wav
3	90	3	4	2	I	2	0	816	0	poli_8sides 12_whiteLine3.jpg	Short_b09_cut1_stereo_44KHz.wav
3	91	1	2	0	C	2	1	1256	1	poli_8sides 3_whiteLine3.jpg	Short_b23_cut1_stereo_44KHz.wav
3	92	4	4	2	I	2	0	731	1	poli_8sides 7_whiteLine3.jpg	Short_b09_cut1_stereo_44KHz.wav
3	93	3	3	2	I	2	0	600	1	poli_8sides 12_whiteLine3.jpg	Short_b20_cut1_stereo_44KHz.wav
3	94	2	2	1	C	1	1	715	1	poli_8sides 4_whiteLine3.jpg	Short_b23_cut1_stereo_44KHz.wav
3	95	4	3	2	I	2	0	673	1	poli_8sides 7_whiteLine3.jpg	Short_b20_cut1_stereo_44KHz.wav
3	96	1	1	1	C	1	1	1253	1	poli_8sides 3_whiteLine3.jpg	Short_b22_cut1_stereo_44KHz.wav
3	97	3	3	2	I	2	0	1064	1	poli_8sides 12_whiteLine3.jpg	Short_b20_cut1_stereo_44KHz.wav
3	98	2	1	0	C	1	0	1289	0	poli_8sides 4_whiteLine3.jpg	Short_b22_cut1_stereo_44KHz.wav
3	99	4	4	2	I	2	0	603	0	poli_8sides 7_whiteLine3.jpg	Short_b09_cut1_stereo_44KHz.wav
3	100	1	1	1	C	2	0	1099	0	poli_8sides 3_whiteLine3.jpg	Short_b22_cut1_stereo_44KHz.wav
3	101	2	2	1	C	2	0	622	0	poli_8sides 4_whiteLine3.jpg	Short_b23_cut1_stereo_44KHz.wav
3	102	1	2	0	C	2	1	631	1	poli_8sides 3_whiteLine3.jpg	Short_b23_cut1_stereo_44KHz.wav
3	103	4	3	2	I	2	0	419	1	poli_8sides 7_whiteLine3.jpg	Short_b20_cut1_stereo_44KHz.wav
3	104	3	4	2	I	2	0	570	0	poli_8sides 12_whiteLine3.jpg	Short_b09_cut1_stereo_44KHz.wav
3	105	2	2	1	C	2	0	720	0	poli_8sides 4_whiteLine3.jpg	Short_b23_cut1_stereo_44KHz.wav
3	106	4	3	2	I	2	0	500	0	poli_8sides 7_whiteLine3.jpg	Short_b20_cut1_stereo_44KHz.wav
3	107	3	3	2	I	1	0	960	1	poli_8sides 12_whiteLine3.jpg	Short_b20_cut1_stereo_44KHz.wav
3	108	1	2	0	C	2	1	1297	1	poli_8sides 3_whiteLine3.jpg	Short_b23_cut1_stereo_44KHz.wav
3	109	4	4	2	I	2	0	571	0	poli_8sides 7_whiteLine3.jpg	Short_b09_cut1_stereo_44KHz.wav
3	110	1	1	1	C	2	0	1022	0	poli_8sides 3_whiteLine3.jpg	Short_b22_cut1_stereo_44KHz.wav
3	111	3	4	2	I	2	0	1030	0	poli_8sides 12_whiteLine3.jpg	Short_b09_cut1_stereo_44KHz.wav
3	112	2	1	0	C	1	0	650	0	poli_8sides 4_whiteLine3.jpg	Short_b22_cut1_stereo_44KHz.wav
3	113	1	1	1	C	2	0	1184	0	poli_8sides 3_whiteLine3.jpg	Short_b22_cut1_stereo_44KHz.wav
3	114	2	1	0	C	2	1	1367	1	poli_8sides 4_whiteLine3.jpg	Short_b22_cut1_stereo_44KHz.wav
3	115	3	4	2	I	2	0	1046	1	poli_8sides 12_whiteLine3.jpg	Short_b09_cut1_stereo_44KHz.wav
3	116	4	4	2	I	1	0	964	0	poli_8sides 7_whiteLine3.jpg	Short_b09_cut1_stereo_44KHz.wav
3	117	2	2	1	C	1	1	1404	1	poli_8sides 4_whiteLine3.jpg	Short_b23_cut1_stereo_44KHz.wav
3	118	3	3	2	I	2	0	727	0	poli_8sides 12_whiteLine3.jpg	Short_b20_cut1_stereo_44KHz.wav
3	119	1	2	0	C	2	1	1258	1	poli_8sides 3_whiteLine3.jpg	Short_b23_cut1_stereo_44KHz.wav
3	120	4	3	2	I	1	0	1880	1	poli_8sides 7_whiteLine3.jpg	Short_b20_cut1_stereo_44KHz.wav
3	121	3	4	2	I	2	0	553	0	poli_8sides 12_whiteLine3.jpg	Short_b09_cut1_stereo_44KHz.wav
3	122	1	1	1	C	2	0	976	0	poli_8sides 3_whiteLine3.jpg	Short_b22_cut1_stereo_44KHz.wav
3	123	2	1	0	C	2	1	856	1	poli_8sides 4_whiteLine3.jpg	Short_b22_cut1_stereo_44KHz.wav
3	124	4	4	2	I	2	0	780	1	poli_8sides 7_whiteLine3.jpg	Short_b09_cut1_stereo_44KHz.wav
3	125	3	3	2	I	1	0	704	0	poli_8sides 12_whiteLine3.jpg	Short_b20_cut1_stereo_44KHz.wav
3	126	1	2	0	C	2	1	573	1	poli_8sides 3_whiteLine3.jpg	Short_b23_cut1_stereo_44KHz.wav
3	127	2	2	1	C	1	1	773	1	poli_8sides 4_whiteLine3.jpg	Short_b23_cut1_stereo_44KHz.wav
3	128	4	3	2	I	2	0	698	0	poli_8sides 7_whiteLine3.jpg	Short_b20_cut1_stereo_44KHz.wav
3	129	3	3	2	I	2	0	1030	0	poli_8sides 12_whiteLine3.jpg	Short_b20_cut1_stereo_44KHz.wav
3	130	4	3	2	I	2	0	1030	1	poli_8sides 7_whiteLine3.jpg	Short_b20_cut1_stereo_44KHz.wav
3	131	2	2	1	C	1	1	1138	1	poli_8sides 4_whiteLine3.jpg	Short_b23_cut1_stereo_44KHz.wav
3	132	1	1	1	C	2	0	811	0	poli_8sides 3_whiteLine3.jpg	Short_b22_cut1_stereo_44KHz.wav
3	133	2	1	0	C	1	0	1005	0	poli_8sides 4_whiteLine3.jpg	Short_b22_cut1_stereo_44KHz.wav
3	134	4	4	2	I	2	0	911	1	poli_8sides 7_whiteLine3.jpg	Short_b09_cut1_stereo_44KHz.wav
3	135	3	4	2	I	1	0	695	1	poli_8sides 12_whiteLine3.jpg	Short_b09_cut1_stereo_44KHz.wav
3	136	1	2	0	C	2	1	752	1	poli_8sides 3_whiteLine3.jpg	Short_b23_cut1_stereo_44KHz.wav
3	137	4	4	2	I	2	0	1228	1	poli_8sides 7_whiteLine3.jpg	Short_b09_cut1_stereo_44KHz.wav
3	138	3	3	2	I	1	0	786	1	poli_8sides 12_whiteLine3.jpg	Short_b20_cut1_stereo_44KHz.wav
3	139	2	2	1	C	2	0	1222	0	poli_8sides 4_whiteLine3.jpg	Short_b23_cut1_stereo_44KHz.wav
3	140	1	1	1	C	2	0	699	0	poli_8sides 3_whiteLine3.jpg	Short_b22_cut1_stereo_44KHz.wav
3	141	4	3	2	I	1	0	974	0	poli_8sides 7_whiteLine3.jpg	Short_b20_cut1_stereo_44KHz.wav
3	142	3	4	2	I	2	0	760	1	poli_8sides 12_whiteLine3.jpg	Short_b09_cut1_stereo_44KHz.wav
3	143	2	1	0	C	2	1	919	1	poli_8sides 4_whiteLine3.jpg	Short_b22_cut1_stereo_44KHz.wav
3	144	1	2	0	C	1	0	554	0	poli_8sides 3_whiteLine3.jpg	Short_b23_cut1_stereo_44KHz.wav
3	145	3	4	2	I	1	0	1281	1	poli_8sides 12_whiteLine3.jpg	Short_b09_cut1_stereo_44KHz.wav
3	146	1	2	0	C	2	1	1226	1	poli_8sides 3_whiteLine3.jpg	Short_b23_cut1_stereo_44KHz.wav
3	147	2	1	0	C	1	0	724	0	poli_8sides 4_whiteLine3.jpg	Short_b22_cut1_stereo_44KHz.wav
3	148	4	3	2	I	1	0	899	0	poli_8sides 7_whiteLine3.jpg	Short_b20_cut1_stereo_44KHz.wav
3	149	2	2	1	C	2	0	756	0	poli_8sides 4_whiteLine3.jpg	Short_b23_cut1_stereo_44KHz.wav
3	150	3	3	2	I	2	0	459	0	poli_8sides 12_whiteLine3.jpg	Short_b20_cut1_stereo_44KHz.wav
3	151	1	1	1	C	2	0	1238	0	poli_8sides 3_whiteLine3.jpg	Short_b22_cut1_stereo_44KHz.wav
3	152	4	4	2	I	2	0	971	0	poli_8sides 7_whiteLine3.jpg	Short_b09_cut1_stereo_44KHz.wav
3	153	3	3	2	I	2	0	692	1	poli_8sides 12_whiteLine3.jpg	Short_b20_cut1_stereo_44KHz.wav
3	154	1	2	0	C	1	0	1231	0	poli_8sides 3_whiteLine3.jpg	Short_b23_cut1_stereo_44KHz.wav
3	155	4	4	2	I	2	0	681	0	poli_8sides 7_whiteLine3.jpg	Short_b09_cut1_stereo_44KHz.wav
3	156	2	2	1	C	1	1	733	1	poli_8sides 4_whiteLine3.jpg	Short_b23_cut1_stereo_44KHz.wav
3	157	1	1	1	C	2	0	562	0	poli_8sides 3_whiteLine3.jpg	Short_b22_cut1_stereo_44KHz.wav
3	158	3	4	2	I	2	0	541	0	poli_8sides 12_whiteLine3.jpg	Short_b09_cut1_stereo_44KHz.wav
3	159	2	1	0	C	2	1	893	1	poli_8sides 4_whiteLine3.jpg	Short_b22_cut1_stereo_44KHz.wav
3	160	4	3	2	I	2	0	730	0	poli_8sides 7_whiteLine3.jpg	Short_b20_cut1_stereo_44KHz.wav
3	161	3	4	2	I	1	0	769	1	poli_8sides 12_whiteLine3.jpg	Short_b09_cut1_stereo_44KHz.wav
3	162	2	1	0	C	2	1	711	1	poli_8sides 4_whiteLine3.jpg	Short_b22_cut1_stereo_44KHz.wav
3	163	1	1	1	C	1	1	902	1	poli_8sides 3_whiteLine3.jpg	Short_b22_cut1_stereo_44KHz.wav
3	164	4	4	2	I	2	0	833	1	poli_8sides 7_whiteLine3.jpg	Short_b09_cut1_stereo_44KHz.wav
3	165	3	3	2	I	2	0	449	1	poli_8sides 12_whiteLine3.jpg	Short_b20_cut1_stereo_44KHz.wav
3	166	1	2	0	C	1	0	583	0	poli_8sides 3_whiteLine3.jpg	Short_b23_cut1_stereo_44KHz.wav
3	167	4	3	2	I	2	0	1014	1	poli_8sides 7_whiteLine3.jpg	Short_b20_cut1_stereo_44KHz.wav
3	168	2	2	1	C	2	0	1084	0	poli_8sides 4_whiteLine3.jpg	Short_b23_cut1_stereo_44KHz.wav
3	169	3	3	2	I	2	0	842	0	poli_8sides 12_whiteLine3.jpg	Short_b20_cut1_stereo_44KHz.wav
3	170	1	2	0	C	2	1	736	1	poli_8sides 3_whiteLine3.jpg	Short_b23_cut1_stereo_44KHz.wav
3	171	2	2	1	C	1	1	647	1	poli_8sides 4_whiteLine3.jpg	Short_b23_cut1_stereo_44KHz.wav
3	172	4	3	2	I	2	0	787	1	poli_8sides 7_whiteLine3.jpg	Short_b20_cut1_stereo_44KHz.wav
3	173	2	1	0	C	2	1	749	1	poli_8sides 4_whiteLine3.jpg	Short_b22_cut1_stereo_44KHz.wav
3	174	4	4	2	I	1	0	724	1	poli_8sides 7_whiteLine3.jpg	Short_b09_cut1_stereo_44KHz.wav
3	175	3	4	2	I	2	0	679	1	poli_8sides 12_whiteLine3.jpg	Short_b09_cut1_stereo_44KHz.wav
3	176	1	1	1	C	1	1	683	1	poli_8sides 3_whiteLine3.jpg	Short_b22_cut1_stereo_44KHz.wav
3	177	4	3	2	I	2	0	722	0	poli_8sides 7_whiteLine3.jpg	Short_b20_cut1_stereo_44KHz.wav
3	178	2	2	1	C	2	0	612	0	poli_8sides 4_whiteLine3.jpg	Short_b23_cut1_stereo_44KHz.wav
3	179	1	2	0	C	2	1	792	1	poli_8sides 3_whiteLine3.jpg	Short_b23_cut1_stereo_44KHz.wav
3	180	3	3	2	I	1	0	478	1	poli_8sides 12_whiteLine3.jpg	Short_b20_cut1_stereo_44KHz.wav
3	181	2	1	0	C	2	1	845	1	poli_8sides 4_whiteLine3.jpg	Short_b22_cut1_stereo_44KHz.wav
3	182	1	1	1	C	1	1	805	1	poli_8sides 3_whiteLine3.jpg	Short_b22_cut1_stereo_44KHz.wav
3	183	4	4	2	I	2	0	538	0	poli_8sides 7_whiteLine3.jpg	Short_b09_cut1_stereo_44KHz.wav
3	184	3	4	2	I	2	0	581	1	poli_8sides 12_whiteLine3.jpg	Short_b09_cut1_stereo_44KHz.wav
3	185	4	4	2	I	1	0	717	1	poli_8sides 7_whiteLine3.jpg	Short_b09_cut1_stereo_44KHz.wav
3	186	1	1	1	C	2	0	631	0	poli_8sides 3_whiteLine3.jpg	Short_b22_cut1_stereo_44KHz.wav
3	187	2	1	0	C	2	1	687	1	poli_8sides 4_whiteLine3.jpg	Short_b22_cut1_stereo_44KHz.wav
3	188	3	4	2	I	2	0	880	0	poli_8sides 12_whiteLine3.jpg	Short_b09_cut1_stereo_44KHz.wav
3	189	2	2	1	C	1	1	875	1	poli_8sides 4_whiteLine3.jpg	Short_b23_cut1_stereo_44KHz.wav
3	190	4	3	2	I	2	0	523	1	poli_8sides 7_whiteLine3.jpg	Short_b20_cut1_stereo_44KHz.wav
3	191	1	2	0	C	2	1	948	1	poli_8sides 3_whiteLine3.jpg	Short_b23_cut1_stereo_44KHz.wav
3	192	3	3	2	I	2	0	551	1	poli_8sides 12_whiteLine3.jpg	Short_b20_cut1_stereo_44KHz.wav
3	193	4	4	2	I	2	0	501	1	poli_8sides 7_whiteLine3.jpg	Short_b09_cut1_stereo_44KHz.wav
3	194	1	1	1	C	1	1	584	1	poli_8sides 3_whiteLine3.jpg	Short_b22_cut1_stereo_44KHz.wav
3	195	2	2	1	C	2	0	516	0	poli_8sides 4_whiteLine3.jpg	Short_b23_cut1_stereo_44KHz.wav
3	196	3	3	2	I	2	0	572	0	poli_8sides 12_whiteLine3.jpg	Short_b20_cut1_stereo_44KHz.wav
3	197	1	2	0	C	1	0	441	0	poli_8sides 3_whiteLine3.jpg	Short_b23_cut1_stereo_44KHz.wav
3	198	4	3	2	I	2	0	497	1	poli_8sides 7_whiteLine3.jpg	Short_b20_cut1_stereo_44KHz.wav
3	199	3	4	2	I	2	0	441	1	poli_8sides 12_whiteLine3.jpg	Short_b09_cut1_stereo_44KHz.wav
3	200	2	1	0	C	1	0	437	0	poli_8sides 4_whiteLine3.jpg	Short_b22_cut1_stereo_44KHz.wav
4	1	3	4	2	I	2	0	871	1	poli_8sides 9_whiteLine3.jpg	MediumLong_e19_stereo_44KHz.wav
4	2	1	1	1	C	1	1	945	1	poli_8sides 11_whiteLine3.jpg	MediumLong_e17_cut2_stereo_44KHz.wav
4	3	2	2	1	C	1	1	741	1	poli_8sides 13_whiteLine3.jpg	Medium_e01_cut1_stereo_44KHz.wav
4	4	4	3	2	I	2	0	641	1	poli_8sides 18_whiteLine3.jpg	Medium_e21_stereo_44KHz.wav
4	5	1	2	0	C	1	0	515	0	poli_8sides 11_whiteLine3.jpg	Medium_e01_cut1_stereo_44KHz.wav
4	6	3	3	2	I	2	0	683	1	poli_8sides 9_whiteLine3.jpg	Medium_e21_stereo_44KHz.wav
4	7	4	4	2	I	2	0	640	1	poli_8sides 18_whiteLine3.jpg	MediumLong_e19_stereo_44KHz.wav
4	8	2	1	0	C	2	1	1098	1	poli_8sides 13_whiteLine3.jpg	MediumLong_e17_cut2_stereo_44KHz.wav
4	9	3	3	2	I	2	0	817	0	poli_8sides 9_whiteLine3.jpg	Medium_e21_stereo_44KHz.wav
4	10	4	3	2	I	2	0	711	0	poli_8sides 18_whiteLine3.jpg	Medium_e21_stereo_44KHz.wav
4	11	2	1	0	C	2	1	1137	1	poli_8sides 13_whiteLine3.jpg	MediumLong_e17_cut2_stereo_44KHz.wav
4	12	1	1	1	C	1	1	838	1	poli_8sides 11_whiteLine3.jpg	MediumLong_e17_cut2_stereo_44KHz.wav
4	13	3	4	2	I	2	0	706	1	poli_8sides 9_whiteLine3.jpg	MediumLong_e19_stereo_44KHz.wav
4	14	2	2	1	C	2	0	767	0	poli_8sides 13_whiteLine3.jpg	Medium_e01_cut1_stereo_44KHz.wav
4	15	4	4	2	I	2	0	1131	1	poli_8sides 18_whiteLine3.jpg	MediumLong_e19_stereo_44KHz.wav
4	16	1	2	0	C	2	1	752	1	poli_8sides 11_whiteLine3.jpg	Medium_e01_cut1_stereo_44KHz.wav
4	17	4	3	2	I	2	0	1138	0	poli_8sides 18_whiteLine3.jpg	Medium_e21_stereo_44KHz.wav
4	18	3	4	2	I	2	0	841	1	poli_8sides 9_whiteLine3.jpg	MediumLong_e19_stereo_44KHz.wav
4	19	1	1	1	C	1	1	729	1	poli_8sides 11_whiteLine3.jpg	MediumLong_e17_cut2_stereo_44KHz.wav
4	20	2	2	1	C	2	0	774	0	poli_8sides 13_whiteLine3.jpg	Medium_e01_cut1_stereo_44KHz.wav
4	21	3	3	2	I	2	0	840	1	poli_8sides 9_whiteLine3.jpg	Medium_e21_stereo_44KHz.wav
4	22	2	1	0	C	2	1	844	1	poli_8sides 13_whiteLine3.jpg	MediumLong_e17_cut2_stereo_44KHz.wav
4	23	1	2	0	C	2	1	933	1	poli_8sides 11_whiteLine3.jpg	Medium_e01_cut1_stereo_44KHz.wav
4	24	4	4	2	I	1	0	945	1	poli_8sides 18_whiteLine3.jpg	MediumLong_e19_stereo_44KHz.wav
4	25	2	2	1	C	2	0	540	0	poli_8sides 13_whiteLine3.jpg	Medium_e01_cut1_stereo_44KHz.wav
4	26	3	3	2	I	2	0	1175	0	poli_8sides 9_whiteLine3.jpg	Medium_e21_stereo_44KHz.wav
4	27	1	1	1	C	1	1	1083	1	poli_8sides 11_whiteLine3.jpg	MediumLong_e17_cut2_stereo_44KHz.wav
4	28	4	4	2	I	2	0	767	1	poli_8sides 18_whiteLine3.jpg	MediumLong_e19_stereo_44KHz.wav
4	29	1	2	0	C	2	1	595	1	poli_8sides 11_whiteLine3.jpg	Medium_e01_cut1_stereo_44KHz.wav
4	30	3	4	2	I	2	0	787	1	poli_8sides 9_whiteLine3.jpg	MediumLong_e19_stereo_44KHz.wav
4	31	2	1	0	C	2	1	968	1	poli_8sides 13_whiteLine3.jpg	MediumLong_e17_cut2_stereo_44KHz.wav
4	32	4	3	2	I	1	0	1169	0	poli_8sides 18_whiteLine3.jpg	Medium_e21_stereo_44KHz.wav
4	33	3	4	2	I	2	0	647	1	poli_8sides 9_whiteLine3.jpg	MediumLong_e19_stereo_44KHz.wav
4	34	1	1	1	C	1	1	989	1	poli_8sides 11_whiteLine3.jpg	MediumLong_e17_cut2_stereo_44KHz.wav
4	35	2	1	0	C	2	1	937	1	poli_8sides 13_whiteLine3.jpg	MediumLong_e17_cut2_stereo_44KHz.wav
4	36	4	4	2	I	2	0	783	0	poli_8sides 18_whiteLine3.jpg	MediumLong_e19_stereo_44KHz.wav
4	37	1	2	0	C	2	1	704	1	poli_8sides 11_whiteLine3.jpg	Medium_e01_cut1_stereo_44KHz.wav
4	38	2	2	1	C	2	0	614	0	poli_8sides 13_whiteLine3.jpg	Medium_e01_cut1_stereo_44KHz.wav
4	39	3	3	2	I	2	0	686	0	poli_8sides 9_whiteLine3.jpg	Medium_e21_stereo_44KHz.wav
4	40	4	3	2	I	2	0	685	0	poli_8sides 18_whiteLine3.jpg	Medium_e21_stereo_44KHz.wav
4	41	2	1	0	C	2	1	762	1	poli_8sides 13_whiteLine3.jpg	MediumLong_e17_cut2_stereo_44KHz.wav
4	42	4	4	2	I	2	0	893	0	poli_8sides 18_whiteLine3.jpg	MediumLong_e19_stereo_44KHz.wav
4	43	3	4	2	I	1	0	907	1	poli_8sides 9_whiteLine3.jpg	MediumLong_e19_stereo_44KHz.wav
4	44	1	2	0	C	2	1	686	1	poli_8sides 11_whiteLine3.jpg	Medium_e01_cut1_stereo_44KHz.wav
4	45	2	2	1	C	2	0	577	0	poli_8sides 13_whiteLine3.jpg	Medium_e01_cut1_stereo_44KHz.wav
4	46	1	1	1	C	1	1	1071	1	poli_8sides 11_whiteLine3.jpg	MediumLong_e17_cut2_stereo_44KHz.wav
4	47	4	3	2	I	1	0	976	1	poli_8sides 18_whiteLine3.jpg	Medium_e21_stereo_44KHz.wav
4	48	3	3	2	I	1	0	776	0	poli_8sides 9_whiteLine3.jpg	Medium_e21_stereo_44KHz.wav
4	49	2	1	0	C	2	1	836	1	poli_8sides 13_whiteLine3.jpg	MediumLong_e17_cut2_stereo_44KHz.wav
4	50	1	2	0	C	2	1	608	1	poli_8sides 11_whiteLine3.jpg	Medium_e01_cut1_stereo_44KHz.wav
4	51	3	4	2	I	1	0	744	1	poli_8sides 9_whiteLine3.jpg	MediumLong_e19_stereo_44KHz.wav
4	52	4	4	2	I	2	0	899	1	poli_8sides 18_whiteLine3.jpg	MediumLong_e19_stereo_44KHz.wav
4	53	1	1	1	C	1	1	906	1	poli_8sides 11_whiteLine3.jpg	MediumLong_e17_cut2_stereo_44KHz.wav
4	54	2	2	1	C	2	0	509	0	poli_8sides 13_whiteLine3.jpg	Medium_e01_cut1_stereo_44KHz.wav
4	55	4	3	2	I	2	0	829	1	poli_8sides 18_whiteLine3.jpg	Medium_e21_stereo_44KHz.wav
4	56	3	3	2	I	1	0	808	0	poli_8sides 9_whiteLine3.jpg	Medium_e21_stereo_44KHz.wav
4	57	2	2	1	C	2	0	886	0	poli_8sides 13_whiteLine3.jpg	Medium_e01_cut1_stereo_44KHz.wav
4	58	4	4	2	I	1	0	847	0	poli_8sides 18_whiteLine3.jpg	MediumLong_e19_stereo_44KHz.wav
4	59	3	4	2	I	2	0	1033	0	poli_8sides 9_whiteLine3.jpg	MediumLong_e19_stereo_44KHz.wav
4	60	1	1	1	C	1	1	766	1	poli_8sides 11_whiteLine3.jpg	MediumLong_e17_cut2_stereo_44KHz.wav
4	61	3	3	2	I	2	0	846	1	poli_8sides 9_whiteLine3.jpg	Medium_e21_stereo_44KHz.wav
4	62	1	2	0	C	2	1	626	1	poli_8sides 11_whiteLine3.jpg	Medium_e01_cut1_stereo_44KHz.wav
4	63	2	1	0	C	2	1	839	1	poli_8sides 13_whiteLine3.jpg	MediumLong_e17_cut2_stereo_44KHz.wav
4	64	4	3	2	I	2	0	1451	1	poli_8sides 18_whiteLine3.jpg	Medium_e21_stereo_44KHz.wav
4	65	1	2	0	C	2	1	599	1	poli_8sides 11_whiteLine3.jpg	Medium_e01_cut1_stereo_44KHz.wav
4	66	4	4	2	I	1	0	921	0	poli_8sides 18_whiteLine3.jpg	MediumLong_e19_stereo_44KHz.wav
4	67	3	4	2	I	2	0	878	0	poli_8sides 9_whiteLine3.jpg	MediumLong_e19_stereo_44KHz.wav
4	68	2	1	0	C	2	1	415	1	poli_8sides 13_whiteLine3.jpg	MediumLong_e17_cut2_stereo_44KHz.wav
4	69	3	3	2	I	1	0	806	0	poli_8sides 9_whiteLine3.jpg	Medium_e21_stereo_44KHz.wav
4	70	2	2	1	C	2	0	527	0	poli_8sides 13_whiteLine3.jpg	Medium_e01_cut1_stereo_44KHz.wav
4	71	4	3	2	I	2	0	837	1	poli_8sides 18_whiteLine3.jpg	Medium_e21_stereo_44KHz.wav
4	72	1	1	1	C	1	1	785	1	poli_8sides 11_whiteLine3.jpg	MediumLong_e17_cut2_stereo_44KHz.wav
4	73	2	2	1	C	1	1	685	1	poli_8sides 13_whiteLine3.jpg	Medium_e01_cut1_stereo_44KHz.wav
4	74	3	4	2	I	2	0	1006	0	poli_8sides 9_whiteLine3.jpg	MediumLong_e19_stereo_44KHz.wav
4	75	4	3	2	I	2	0	819	0	poli_8sides 18_whiteLine3.jpg	Medium_e21_stereo_44KHz.wav
4	76	1	2	0	C	2	1	697	1	poli_8sides 11_whiteLine3.jpg	Medium_e01_cut1_stereo_44KHz.wav
4	77	2	1	0	C	2	1	505	1	poli_8sides 13_whiteLine3.jpg	MediumLong_e17_cut2_stereo_44KHz.wav
4	78	1	1	1	C	1	1	721	1	poli_8sides 11_whiteLine3.jpg	MediumLong_e17_cut2_stereo_44KHz.wav
4	79	4	4	2	I	2	0	968	0	poli_8sides 18_whiteLine3.jpg	MediumLong_e19_stereo_44KHz.wav
4	80	3	3	2	I	1	0	724	1	poli_8sides 9_whiteLine3.jpg	Medium_e21_stereo_44KHz.wav
4	81	4	4	2	I	1	0	783	0	poli_8sides 18_whiteLine3.jpg	MediumLong_e19_stereo_44KHz.wav
4	82	1	2	0	C	2	1	796	1	poli_8sides 11_whiteLine3.jpg	Medium_e01_cut1_stereo_44KHz.wav
4	83	2	1	0	C	2	1	1104	1	poli_8sides 13_whiteLine3.jpg	MediumLong_e17_cut2_stereo_44KHz.wav
4	84	3	3	2	I	2	0	943	0	poli_8sides 9_whiteLine3.jpg	Medium_e21_stereo_44KHz.wav
4	85	2	2	1	C	2	0	635	0	poli_8sides 13_whiteLine3.jpg	Medium_e01_cut1_stereo_44KHz.wav
4	86	1	1	1	C	1	1	780	1	poli_8sides 11_whiteLine3.jpg	MediumLong_e17_cut2_stereo_44KHz.wav
4	87	4	3	2	I	1	0	1332	0	poli_8sides 18_whiteLine3.jpg	Medium_e21_stereo_44KHz.wav
4	88	3	4	2	I	2	0	1408	0	poli_8sides 9_whiteLine3.jpg	MediumLong_e19_stereo_44KHz.wav
4	89	2	2	1	C	1	1	791	1	poli_8sides 13_whiteLine3.jpg	Medium_e01_cut1_stereo_44KHz.wav
4	90	1	2	0	C	2	1	592	1	poli_8sides 11_whiteLine3.jpg	Medium_e01_cut1_stereo_44KHz.wav
4	91	4	4	2	I	1	0	1206	0	poli_8sides 18_whiteLine3.jpg	MediumLong_e19_stereo_44KHz.wav
4	92	3	4	2	I	2	0	640	0	poli_8sides 9_whiteLine3.jpg	MediumLong_e19_stereo_44KHz.wav
4	93	1	1	1	C	1	1	1059	1	poli_8sides 11_whiteLine3.jpg	MediumLong_e17_cut2_stereo_44KHz.wav
4	94	3	3	2	I	2	0	1086	0	poli_8sides 9_whiteLine3.jpg	Medium_e21_stereo_44KHz.wav
4	95	2	1	0	C	2	1	705	1	poli_8sides 13_whiteLine3.jpg	MediumLong_e17_cut2_stereo_44KHz.wav
4	96	4	3	2	I	1	0	863	1	poli_8sides 18_whiteLine3.jpg	Medium_e21_stereo_44KHz.wav
4	97	3	3	2	I	1	0	780	1	poli_8sides 9_whiteLine3.jpg	Medium_e21_stereo_44KHz.wav
4	98	2	1	0	C	2	1	727	1	poli_8sides 13_whiteLine3.jpg	MediumLong_e17_cut2_stereo_44KHz.wav
4	99	4	4	2	I	1	0	959	0	poli_8sides 18_whiteLine3.jpg	MediumLong_e19_stereo_44KHz.wav
4	100	1	1	1	C	1	1	911	1	poli_8sides 11_whiteLine3.jpg	MediumLong_e17_cut2_stereo_44KHz.wav
4	101	4	3	2	I	1	0	1168	0	poli_8sides 18_whiteLine3.jpg	Medium_e21_stereo_44KHz.wav
4	102	1	2	0	C	2	1	583	1	poli_8sides 11_whiteLine3.jpg	Medium_e01_cut1_stereo_44KHz.wav
4	103	3	4	2	I	2	0	1463	1	poli_8sides 9_whiteLine3.jpg	MediumLong_e19_stereo_44KHz.wav
4	104	2	2	1	C	1	1	1037	1	poli_8sides 13_whiteLine3.jpg	Medium_e01_cut1_stereo_44KHz.wav
4	105	1	1	1	C	1	1	927	1	poli_8sides 11_whiteLine3.jpg	MediumLong_e17_cut2_stereo_44KHz.wav
4	106	2	1	0	C	2	1	750	1	poli_8sides 13_whiteLine3.jpg	MediumLong_e17_cut2_stereo_44KHz.wav
4	107	4	3	2	I	2	0	945	0	poli_8sides 18_whiteLine3.jpg	Medium_e21_stereo_44KHz.wav
4	108	3	4	2	I	1	0	686	1	poli_8sides 9_whiteLine3.jpg	MediumLong_e19_stereo_44KHz.wav
4	109	4	4	2	I	2	0	975	1	poli_8sides 18_whiteLine3.jpg	MediumLong_e19_stereo_44KHz.wav
4	110	1	2	0	C	2	1	674	1	poli_8sides 11_whiteLine3.jpg	Medium_e01_cut1_stereo_44KHz.wav
4	111	3	3	2	I	1	0	969	0	poli_8sides 9_whiteLine3.jpg	Medium_e21_stereo_44KHz.wav
4	112	2	2	1	C	2	0	510	0	poli_8sides 13_whiteLine3.jpg	Medium_e01_cut1_stereo_44KHz.wav
4	113	3	3	2	I	1	0	703	0	poli_8sides 9_whiteLine3.jpg	Medium_e21_stereo_44KHz.wav
4	114	4	3	2	I	2	0	1350	0	poli_8sides 18_whiteLine3.jpg	Medium_e21_stereo_44KHz.wav
4	115	1	1	1	C	1	1	912	1	poli_8sides 11_whiteLine3.jpg	MediumLong_e17_cut2_stereo_44KHz.wav
4	116	2	2	1	C	2	0	519	0	poli_8sides 13_whiteLine3.jpg	Medium_e01_cut1_stereo_44KHz.wav
4	117	4	4	2	I	1	0	1086	1	poli_8sides 18_whiteLine3.jpg	MediumLong_e19_stereo_44KHz.wav
4	118	1	2	0	C	2	1	608	1	poli_8sides 11_whiteLine3.jpg	Medium_e01_cut1_stereo_44KHz.wav
4	119	2	1	0	C	2	1	691	1	poli_8sides 13_whiteLine3.jpg	MediumLong_e17_cut2_stereo_44KHz.wav
4	120	3	4	2	I	1	0	1091	1	poli_8sides 9_whiteLine3.jpg	MediumLong_e19_stereo_44KHz.wav
4	121	2	2	1	C	1	1	761	1	poli_8sides 13_whiteLine3.jpg	Medium_e01_cut1_stereo_44KHz.wav
4	122	1	1	1	C	1	1	965	1	poli_8sides 11_whiteLine3.jpg	MediumLong_e17_cut2_stereo_44KHz.wav
4	123	3	4	2	I	2	0	1422	1	poli_8sides 9_whiteLine3.jpg	MediumLong_e19_stereo_44KHz.wav
4	124	4	4	2	I	1	0	750	1	poli_8sides 18_whiteLine3.jpg	MediumLong_e19_stereo_44KHz.wav
4	125	2	1	0	C	2	1	780	1	poli_8sides 13_whiteLine3.jpg	MediumLong_e17_cut2_stereo_44KHz.wav
4	126	1	2	0	C	1	0	537	0	poli_8sides 11_whiteLine3.jpg	Medium_e01_cut1_stereo_44KHz.wav
4	127	4	3	2	I	1	0	855	0	poli_8sides 18_whiteLine3.jpg	Medium_e21_stereo_44KHz.wav
4	128	3	3	2	I	1	0	1172	1	poli_8sides 9_whiteLine3.jpg	Medium_e21_stereo_44KHz.wav
4	129	2	2	1	C	2	0	565	0	poli_8sides 13_whiteLine3.jpg	Medium_e01_cut1_stereo_44KHz.wav
4	130	3	4	2	I	2	0	1497	1	poli_8sides 9_whiteLine3.jpg	MediumLong_e19_stereo_44KHz.wav
4	131	4	3	2	I	1	0	1307	1	poli_8sides 18_whiteLine3.jpg	Medium_e21_stereo_44KHz.wav
4	132	1	2	0	C	2	1	624	1	poli_8sides 11_whiteLine3.jpg	Medium_e01_cut1_stereo_44KHz.wav
4	133	2	1	0	C	2	1	962	1	poli_8sides 13_whiteLine3.jpg	MediumLong_e17_cut2_stereo_44KHz.wav
4	134	3	3	2	I	1	0	1029	0	poli_8sides 9_whiteLine3.jpg	Medium_e21_stereo_44KHz.wav
4	135	1	1	1	C	1	1	897	1	poli_8sides 11_whiteLine3.jpg	MediumLong_e17_cut2_stereo_44KHz.wav
4	136	4	4	2	I	2	0	1309	0	poli_8sides 18_whiteLine3.jpg	MediumLong_e19_stereo_44KHz.wav
4	137	1	2	0	C	2	1	829	1	poli_8sides 11_whiteLine3.jpg	Medium_e01_cut1_stereo_44KHz.wav
4	138	4	3	2	I	2	0	1225	0	poli_8sides 18_whiteLine3.jpg	Medium_e21_stereo_44KHz.wav
4	139	2	2	1	C	1	1	816	1	poli_8sides 13_whiteLine3.jpg	Medium_e01_cut1_stereo_44KHz.wav
4	140	3	4	2	I	2	0	879	1	poli_8sides 9_whiteLine3.jpg	MediumLong_e19_stereo_44KHz.wav
4	141	2	1	0	C	2	1	714	1	poli_8sides 13_whiteLine3.jpg	MediumLong_e17_cut2_stereo_44KHz.wav
4	142	1	1	1	C	1	1	875	1	poli_8sides 11_whiteLine3.jpg	MediumLong_e17_cut2_stereo_44KHz.wav
4	143	4	4	2	I	2	0	884	1	poli_8sides 18_whiteLine3.jpg	MediumLong_e19_stereo_44KHz.wav
4	144	3	3	2	I	1	0	953	0	poli_8sides 9_whiteLine3.jpg	Medium_e21_stereo_44KHz.wav
4	145	1	2	0	C	2	1	728	1	poli_8sides 11_whiteLine3.jpg	Medium_e01_cut1_stereo_44KHz.wav
4	146	4	4	2	I	1	0	663	0	poli_8sides 18_whiteLine3.jpg	MediumLong_e19_stereo_44KHz.wav
4	147	2	2	1	C	2	0	553	0	poli_8sides 13_whiteLine3.jpg	Medium_e01_cut1_stereo_44KHz.wav
4	148	3	4	2	I	1	0	848	0	poli_8sides 9_whiteLine3.jpg	MediumLong_e19_stereo_44KHz.wav
4	149	1	1	1	C	0	0	0	0	poli_8sides 11_whiteLine3.jpg	MediumLong_e17_cut2_stereo_44KHz.wav
4	150	4	3	2	I	1	0	923	1	poli_8sides 18_whiteLine3.jpg	Medium_e21_stereo_44KHz.wav
4	151	3	3	2	I	2	0	964	1	poli_8sides 9_whiteLine3.jpg	Medium_e21_stereo_44KHz.wav
4	152	2	1	0	C	2	1	958	1	poli_8sides 13_whiteLine3.jpg	MediumLong_e17_cut2_stereo_44KHz.wav
4	153	3	4	2	I	1	0	1462	0	poli_8sides 9_whiteLine3.jpg	MediumLong_e19_stereo_44KHz.wav
4	154	4	4	2	I	2	0	1660	0	poli_8sides 18_whiteLine3.jpg	MediumLong_e19_stereo_44KHz.wav
4	155	2	2	1	C	1	1	664	1	poli_8sides 13_whiteLine3.jpg	Medium_e01_cut1_stereo_44KHz.wav
4	156	1	1	1	C	1	1	958	1	poli_8sides 11_whiteLine3.jpg	MediumLong_e17_cut2_stereo_44KHz.wav
4	157	4	3	2	I	2	0	978	1	poli_8sides 18_whiteLine3.jpg	Medium_e21_stereo_44KHz.wav
4	158	3	3	2	I	2	0	782	1	poli_8sides 9_whiteLine3.jpg	Medium_e21_stereo_44KHz.wav
4	159	2	1	0	C	2	1	1106	1	poli_8sides 13_whiteLine3.jpg	MediumLong_e17_cut2_stereo_44KHz.wav
4	160	1	2	0	C	2	1	650	1	poli_8sides 11_whiteLine3.jpg	Medium_e01_cut1_stereo_44KHz.wav
4	161	4	3	2	I	1	0	1166	1	poli_8sides 18_whiteLine3.jpg	Medium_e21_stereo_44KHz.wav
4	162	3	3	2	I	2	0	910	1	poli_8sides 9_whiteLine3.jpg	Medium_e21_stereo_44KHz.wav
4	163	1	1	1	C	1	1	1370	1	poli_8sides 11_whiteLine3.jpg	MediumLong_e17_cut2_stereo_44KHz.wav
4	164	2	2	1	C	1	1	691	1	poli_8sides 13_whiteLine3.jpg	Medium_e01_cut1_stereo_44KHz.wav
4	165	1	2	0	C	2	1	418	1	poli_8sides 11_whiteLine3.jpg	Medium_e01_cut1_stereo_44KHz.wav
4	166	3	4	2	I	1	0	956	0	poli_8sides 9_whiteLine3.jpg	MediumLong_e19_stereo_44KHz.wav
4	167	2	1	0	C	2	1	757	1	poli_8sides 13_whiteLine3.jpg	MediumLong_e17_cut2_stereo_44KHz.wav
4	168	4	4	2	I	1	0	1517	1	poli_8sides 18_whiteLine3.jpg	MediumLong_e19_stereo_44KHz.wav
4	169	1	2	0	C	2	1	859	1	poli_8sides 11_whiteLine3.jpg	Medium_e01_cut1_stereo_44KHz.wav
4	170	2	2	1	C	1	1	707	1	poli_8sides 13_whiteLine3.jpg	Medium_e01_cut1_stereo_44KHz.wav
4	171	4	3	2	I	2	0	994	1	poli_8sides 18_whiteLine3.jpg	Medium_e21_stereo_44KHz.wav
4	172	3	3	2	I	1	0	1165	0	poli_8sides 9_whiteLine3.jpg	Medium_e21_stereo_44KHz.wav
4	173	1	1	1	C	1	1	1199	1	poli_8sides 11_whiteLine3.jpg	MediumLong_e17_cut2_stereo_44KHz.wav
4	174	3	4	2	I	2	0	818	0	poli_8sides 9_whiteLine3.jpg	MediumLong_e19_stereo_44KHz.wav
4	175	2	1	0	C	2	1	771	1	poli_8sides 13_whiteLine3.jpg	MediumLong_e17_cut2_stereo_44KHz.wav
4	176	4	4	2	I	2	0	1411	1	poli_8sides 18_whiteLine3.jpg	MediumLong_e19_stereo_44KHz.wav
4	177	1	2	0	C	2	1	703	1	poli_8sides 11_whiteLine3.jpg	Medium_e01_cut1_stereo_44KHz.wav
4	178	4	4	2	I	2	0	904	0	poli_8sides 18_whiteLine3.jpg	MediumLong_e19_stereo_44KHz.wav
4	179	2	2	1	C	1	1	795	1	poli_8sides 13_whiteLine3.jpg	Medium_e01_cut1_stereo_44KHz.wav
4	180	3	3	2	I	1	0	976	1	poli_8sides 9_whiteLine3.jpg	Medium_e21_stereo_44KHz.wav
4	181	2	1	0	C	2	1	876	1	poli_8sides 13_whiteLine3.jpg	MediumLong_e17_cut2_stereo_44KHz.wav
4	182	4	3	2	I	2	0	1123	0	poli_8sides 18_whiteLine3.jpg	Medium_e21_stereo_44KHz.wav
4	183	1	1	1	C	2	0	1036	0	poli_8sides 11_whiteLine3.jpg	MediumLong_e17_cut2_stereo_44KHz.wav
4	184	3	4	2	I	2	0	1053	0	poli_8sides 9_whiteLine3.jpg	MediumLong_e19_stereo_44KHz.wav
4	185	2	1	0	C	2	1	850	1	poli_8sides 13_whiteLine3.jpg	MediumLong_e17_cut2_stereo_44KHz.wav
4	186	1	2	0	C	2	1	657	1	poli_8sides 11_whiteLine3.jpg	Medium_e01_cut1_stereo_44KHz.wav
4	187	4	3	2	I	1	0	874	1	poli_8sides 18_whiteLine3.jpg	Medium_e21_stereo_44KHz.wav
4	188	3	4	2	I	2	0	687	1	poli_8sides 9_whiteLine3.jpg	MediumLong_e19_stereo_44KHz.wav
4	189	2	2	1	C	2	0	555	0	poli_8sides 13_whiteLine3.jpg	Medium_e01_cut1_stereo_44KHz.wav
4	190	3	3	2	I	2	0	1403	1	poli_8sides 9_whiteLine3.jpg	Medium_e21_stereo_44KHz.wav
4	191	4	4	2	I	1	0	861	1	poli_8sides 18_whiteLine3.jpg	MediumLong_e19_stereo_44KHz.wav
4	192	1	1	1	C	1	1	1036	1	poli_8sides 11_whiteLine3.jpg	MediumLong_e17_cut2_stereo_44KHz.wav
4	193	3	4	2	I	2	0	1061	0	poli_8sides 9_whiteLine3.jpg	MediumLong_e19_stereo_44KHz.wav
4	194	1	1	1	C	1	1	905	1	poli_8sides 11_whiteLine3.jpg	MediumLong_e17_cut2_stereo_44KHz.wav
4	195	2	1	0	C	2	1	679	1	poli_8sides 13_whiteLine3.jpg	MediumLong_e17_cut2_stereo_44KHz.wav
4	196	4	3	2	I	2	0	970	0	poli_8sides 18_whiteLine3.jpg	Medium_e21_stereo_44KHz.wav
4	197	3	3	2	I	2	0	648	0	poli_8sides 9_whiteLine3.jpg	Medium_e21_stereo_44KHz.wav
4	198	1	2	0	C	2	1	622	1	poli_8sides 11_whiteLine3.jpg	Medium_e01_cut1_stereo_44KHz.wav
4	199	2	2	1	C	1	1	519	1	poli_8sides 13_whiteLine3.jpg	Medium_e01_cut1_stereo_44KHz.wav
4	200	4	4	2	I	2	0	1302	1	poli_8sides 18_whiteLine3.jpg	MediumLong_e19_stereo_44KHz.wav
