block	trial	Vstim	Astim	match	C/I	resp	.result	RT	fb	V-file	A-file
RL

0	1	1	1	1	C	0	0	0	0	Ⴢ	cut_eeuw_stereo_44KHz.wav
0	2	2	4	0	C	2	1	992	1	Ⴞ	cut_g_stereo_44KHz.wav
0	3	1	2	0	C	1	0	673	0	Ⴢ	cut_oo_stereo_44KHz.wav
0	4	2	3	1	C	1	1	765	1	Ⴞ	cut_ee_stereo_44KHz.wav
0	5	2	3	1	C	2	0	849	0	Ⴞ	cut_ee_stereo_44KHz.wav
0	6	1	2	0	C	2	1	593	1	Ⴢ	cut_oo_stereo_44KHz.wav
0	7	2	4	0	C	1	0	795	0	Ⴞ	cut_g_stereo_44KHz.wav
0	8	1	1	1	C	2	0	495	0	Ⴢ	cut_eeuw_stereo_44KHz.wav
0	9	2	4	0	C	2	1	1128	1	Ⴞ	cut_g_stereo_44KHz.wav
0	10	1	1	1	C	1	1	923	1	Ⴢ	cut_eeuw_stereo_44KHz.wav
0	11	1	2	0	C	2	1	1063	1	Ⴢ	cut_oo_stereo_44KHz.wav
0	12	2	3	1	C	1	1	600	1	Ⴞ	cut_ee_stereo_44KHz.wav
0	13	1	2	0	C	2	1	708	1	Ⴢ	cut_oo_stereo_44KHz.wav
0	14	2	4	0	C	1	0	666	0	Ⴞ	cut_g_stereo_44KHz.wav
0	15	1	1	1	C	2	0	738	0	Ⴢ	cut_eeuw_stereo_44KHz.wav
0	16	2	3	1	C	1	1	828	1	Ⴞ	cut_ee_stereo_44KHz.wav
0	17	2	3	1	C	1	1	1147	1	Ⴞ	cut_ee_stereo_44KHz.wav
0	18	2	4	0	C	2	1	670	1	Ⴞ	cut_g_stereo_44KHz.wav
0	19	1	2	0	C	2	1	947	1	Ⴢ	cut_oo_stereo_44KHz.wav
0	20	1	1	1	C	1	1	554	1	Ⴢ	cut_eeuw_stereo_44KHz.wav
0	21	1	1	1	C	2	0	844	0	Ⴢ	cut_eeuw_stereo_44KHz.wav
0	22	2	4	0	C	2	1	740	1	Ⴞ	cut_g_stereo_44KHz.wav
0	23	1	2	0	C	1	0	727	0	Ⴢ	cut_oo_stereo_44KHz.wav
0	24	2	3	1	C	1	1	473	1	Ⴞ	cut_ee_stereo_44KHz.wav
0	25	1	1	1	C	1	1	1095	1	Ⴢ	cut_eeuw_stereo_44KHz.wav
0	26	2	4	0	C	2	1	664	1	Ⴞ	cut_g_stereo_44KHz.wav
0	27	1	2	0	C	2	1	410	1	Ⴢ	cut_oo_stereo_44KHz.wav
0	28	2	3	1	C	1	1	661	1	Ⴞ	cut_ee_stereo_44KHz.wav
0	29	2	4	0	C	2	1	679	1	Ⴞ	cut_g_stereo_44KHz.wav
0	30	1	2	0	C	2	1	614	1	Ⴢ	cut_oo_stereo_44KHz.wav
avg_resp = 774
1	1	1	1	1	C	2	0	1048	0	Ⴐ	cut_ui_stereo_44KHz.wav
1	2	4	4	2	I	2	0	803	0	Ⴖ	cut_j_stereo_44KHz.wav
1	3	2	1	0	C	2	1	714	1	Ⴒ	cut_ui_stereo_44KHz.wav
1	4	3	3	2	I	1	0	1120	1	Ⴉ	cut_f_stereo_44KHz.wav
1	5	4	3	2	I	1	0	1196	1	Ⴖ	cut_f_stereo_44KHz.wav
1	6	1	2	0	C	2	1	978	1	Ⴐ	cut_ei_stereo_44KHz.wav
1	7	3	4	2	I	1	0	926	1	Ⴉ	cut_j_stereo_44KHz.wav
1	8	2	2	1	C	2	0	672	0	Ⴒ	cut_ei_stereo_44KHz.wav
1	9	4	3	2	I	2	0	1011	1	Ⴖ	cut_f_stereo_44KHz.wav
1	10	1	1	1	C	2	0	663	0	Ⴐ	cut_ui_stereo_44KHz.wav
1	11	3	3	2	I	1	0	926	1	Ⴉ	cut_f_stereo_44KHz.wav
1	12	2	2	1	C	1	1	778	1	Ⴒ	cut_ei_stereo_44KHz.wav
1	13	3	4	2	I	1	0	663	0	Ⴉ	cut_j_stereo_44KHz.wav
1	14	1	2	0	C	2	1	690	1	Ⴐ	cut_ei_stereo_44KHz.wav
1	15	2	1	0	C	1	0	670	0	Ⴒ	cut_ui_stereo_44KHz.wav
1	16	4	4	2	I	1	0	1565	0	Ⴖ	cut_j_stereo_44KHz.wav
1	17	3	3	2	I	1	0	1036	1	Ⴉ	cut_f_stereo_44KHz.wav
1	18	1	2	0	C	2	1	539	1	Ⴐ	cut_ei_stereo_44KHz.wav
1	19	4	4	2	I	2	0	810	1	Ⴖ	cut_j_stereo_44KHz.wav
1	20	2	2	1	C	1	1	896	1	Ⴒ	cut_ei_stereo_44KHz.wav
1	21	3	4	2	I	1	0	968	0	Ⴉ	cut_j_stereo_44KHz.wav
1	22	4	3	2	I	2	0	825	1	Ⴖ	cut_f_stereo_44KHz.wav
1	23	1	1	1	C	2	0	711	0	Ⴐ	cut_ui_stereo_44KHz.wav
1	24	2	1	0	C	2	1	597	1	Ⴒ	cut_ui_stereo_44KHz.wav
1	25	3	3	2	I	2	0	1259	0	Ⴉ	cut_f_stereo_44KHz.wav
1	26	4	4	2	I	1	0	950	1	Ⴖ	cut_j_stereo_44KHz.wav
1	27	1	1	1	C	2	0	619	0	Ⴐ	cut_ui_stereo_44KHz.wav
1	28	2	2	1	C	1	1	817	1	Ⴒ	cut_ei_stereo_44KHz.wav
1	29	1	2	0	C	2	1	772	1	Ⴐ	cut_ei_stereo_44KHz.wav
1	30	4	3	2	I	2	0	786	1	Ⴖ	cut_f_stereo_44KHz.wav
1	31	2	1	0	C	2	1	1347	1	Ⴒ	cut_ui_stereo_44KHz.wav
1	32	3	4	2	I	2	0	1068	1	Ⴉ	cut_j_stereo_44KHz.wav
1	33	2	1	0	C	2	1	793	1	Ⴒ	cut_ui_stereo_44KHz.wav
1	34	1	1	1	C	1	1	785	1	Ⴐ	cut_ui_stereo_44KHz.wav
1	35	3	4	2	I	1	0	879	0	Ⴉ	cut_j_stereo_44KHz.wav
1	36	4	4	2	I	2	0	1081	0	Ⴖ	cut_j_stereo_44KHz.wav
1	37	1	2	0	C	2	1	990	1	Ⴐ	cut_ei_stereo_44KHz.wav
1	38	3	3	2	I	2	0	703	0	Ⴉ	cut_f_stereo_44KHz.wav
1	39	4	3	2	I	2	0	571	0	Ⴖ	cut_f_stereo_44KHz.wav
1	40	2	2	1	C	1	1	1137	1	Ⴒ	cut_ei_stereo_44KHz.wav
1	41	3	3	2	I	2	0	1012	0	Ⴉ	cut_f_stereo_44KHz.wav
1	42	1	2	0	C	2	1	606	1	Ⴐ	cut_ei_stereo_44KHz.wav
1	43	2	2	1	C	1	1	731	1	Ⴒ	cut_ei_stereo_44KHz.wav
1	44	4	3	2	I	2	0	1223	1	Ⴖ	cut_f_stereo_44KHz.wav
1	45	2	1	0	C	2	1	1097	1	Ⴒ	cut_ui_stereo_44KHz.wav
1	46	1	1	1	C	1	1	648	1	Ⴐ	cut_ui_stereo_44KHz.wav
1	47	3	4	2	I	2	0	899	0	Ⴉ	cut_j_stereo_44KHz.wav
1	48	4	4	2	I	2	0	709	0	Ⴖ	cut_j_stereo_44KHz.wav
1	49	1	2	0	C	2	1	604	1	Ⴐ	cut_ei_stereo_44KHz.wav
1	50	3	3	2	I	1	0	888	1	Ⴉ	cut_f_stereo_44KHz.wav
1	51	2	2	1	C	1	1	934	1	Ⴒ	cut_ei_stereo_44KHz.wav
1	52	4	4	2	I	1	0	1031	0	Ⴖ	cut_j_stereo_44KHz.wav
1	53	2	1	0	C	2	1	950	1	Ⴒ	cut_ui_stereo_44KHz.wav
1	54	1	1	1	C	1	1	782	1	Ⴐ	cut_ui_stereo_44KHz.wav
1	55	4	3	2	I	2	0	1530	0	Ⴖ	cut_f_stereo_44KHz.wav
1	56	3	4	2	I	1	0	761	0	Ⴉ	cut_j_stereo_44KHz.wav
1	57	1	1	1	C	1	1	1088	1	Ⴐ	cut_ui_stereo_44KHz.wav
1	58	3	3	2	I	2	0	952	0	Ⴉ	cut_f_stereo_44KHz.wav
1	59	2	2	1	C	2	0	1169	0	Ⴒ	cut_ei_stereo_44KHz.wav
1	60	4	3	2	I	2	0	968	1	Ⴖ	cut_f_stereo_44KHz.wav
1	61	3	4	2	I	1	0	1005	1	Ⴉ	cut_j_stereo_44KHz.wav
1	62	4	4	2	I	1	0	716	1	Ⴖ	cut_j_stereo_44KHz.wav
1	63	1	2	0	C	2	1	863	1	Ⴐ	cut_ei_stereo_44KHz.wav
1	64	2	1	0	C	1	0	648	0	Ⴒ	cut_ui_stereo_44KHz.wav
1	65	3	4	2	I	1	0	1129	0	Ⴉ	cut_j_stereo_44KHz.wav
1	66	1	2	0	C	2	1	990	1	Ⴐ	cut_ei_stereo_44KHz.wav
1	67	2	1	0	C	1	0	658	0	Ⴒ	cut_ui_stereo_44KHz.wav
1	68	4	4	2	I	2	0	866	0	Ⴖ	cut_j_stereo_44KHz.wav
1	69	3	3	2	I	2	0	674	0	Ⴉ	cut_f_stereo_44KHz.wav
1	70	4	3	2	I	2	0	500	0	Ⴖ	cut_f_stereo_44KHz.wav
1	71	1	1	1	C	2	0	636	0	Ⴐ	cut_ui_stereo_44KHz.wav
1	72	2	2	1	C	1	1	690	1	Ⴒ	cut_ei_stereo_44KHz.wav
1	73	3	4	2	I	1	0	1026	1	Ⴉ	cut_j_stereo_44KHz.wav
1	74	1	2	0	C	2	1	633	1	Ⴐ	cut_ei_stereo_44KHz.wav
1	75	2	2	1	C	1	1	550	1	Ⴒ	cut_ei_stereo_44KHz.wav
1	76	4	3	2	I	2	0	701	0	Ⴖ	cut_f_stereo_44KHz.wav
1	77	3	3	2	I	2	0	691	0	Ⴉ	cut_f_stereo_44KHz.wav
1	78	1	1	1	C	1	1	1011	1	Ⴐ	cut_ui_stereo_44KHz.wav
1	79	4	4	2	I	2	0	1193	0	Ⴖ	cut_j_stereo_44KHz.wav
1	80	2	1	0	C	1	0	871	0	Ⴒ	cut_ui_stereo_44KHz.wav
1	81	1	2	0	C	2	1	785	1	Ⴐ	cut_ei_stereo_44KHz.wav
1	82	3	4	2	I	1	0	1045	1	Ⴉ	cut_j_stereo_44KHz.wav
1	83	4	4	2	I	1	0	1032	1	Ⴖ	cut_j_stereo_44KHz.wav
1	84	2	1	0	C	2	1	868	1	Ⴒ	cut_ui_stereo_44KHz.wav
1	85	4	3	2	I	1	0	874	0	Ⴖ	cut_f_stereo_44KHz.wav
1	86	1	1	1	C	2	0	812	0	Ⴐ	cut_ui_stereo_44KHz.wav
1	87	2	2	1	C	1	1	667	1	Ⴒ	cut_ei_stereo_44KHz.wav
1	88	3	3	2	I	1	0	1487	0	Ⴉ	cut_f_stereo_44KHz.wav
1	89	4	3	2	I	2	0	690	1	Ⴖ	cut_f_stereo_44KHz.wav
1	90	1	2	0	C	2	1	725	1	Ⴐ	cut_ei_stereo_44KHz.wav
1	91	3	4	2	I	1	0	898	0	Ⴉ	cut_j_stereo_44KHz.wav
1	92	2	2	1	C	1	1	878	1	Ⴒ	cut_ei_stereo_44KHz.wav
1	93	4	4	2	I	1	0	863	1	Ⴖ	cut_j_stereo_44KHz.wav
1	94	2	1	0	C	2	1	446	1	Ⴒ	cut_ui_stereo_44KHz.wav
1	95	1	1	1	C	1	1	655	1	Ⴐ	cut_ui_stereo_44KHz.wav
1	96	3	3	2	I	1	0	726	0	Ⴉ	cut_f_stereo_44KHz.wav
1	97	4	4	2	I	2	0	696	0	Ⴖ	cut_j_stereo_44KHz.wav
1	98	2	2	1	C	1	1	844	1	Ⴒ	cut_ei_stereo_44KHz.wav
1	99	1	2	0	C	2	1	384	1	Ⴐ	cut_ei_stereo_44KHz.wav
1	100	3	3	2	I	2	0	595	1	Ⴉ	cut_f_stereo_44KHz.wav
1	101	4	3	2	I	1	0	714	0	Ⴖ	cut_f_stereo_44KHz.wav
1	102	2	1	0	C	2	1	1228	1	Ⴒ	cut_ui_stereo_44KHz.wav
1	103	1	1	1	C	1	1	639	1	Ⴐ	cut_ui_stereo_44KHz.wav
1	104	3	4	2	I	2	0	648	0	Ⴉ	cut_j_stereo_44KHz.wav
1	105	2	2	1	C	2	0	743	0	Ⴒ	cut_ei_stereo_44KHz.wav
1	106	4	4	2	I	2	0	1043	1	Ⴖ	cut_j_stereo_44KHz.wav
1	107	3	3	2	I	2	0	681	1	Ⴉ	cut_f_stereo_44KHz.wav
1	108	1	2	0	C	2	1	578	1	Ⴐ	cut_ei_stereo_44KHz.wav
1	109	3	4	2	I	2	0	706	0	Ⴉ	cut_j_stereo_44KHz.wav
1	110	1	1	1	C	2	0	674	0	Ⴐ	cut_ui_stereo_44KHz.wav
1	111	4	3	2	I	2	0	859	0	Ⴖ	cut_f_stereo_44KHz.wav
1	112	2	1	0	C	2	1	829	1	Ⴒ	cut_ui_stereo_44KHz.wav
1	113	3	3	2	I	2	0	871	1	Ⴉ	cut_f_stereo_44KHz.wav
1	114	4	4	2	I	1	0	1003	1	Ⴖ	cut_j_stereo_44KHz.wav
1	115	1	2	0	C	2	1	628	1	Ⴐ	cut_ei_stereo_44KHz.wav
1	116	2	2	1	C	1	1	704	1	Ⴒ	cut_ei_stereo_44KHz.wav
1	117	3	4	2	I	2	0	708	0	Ⴉ	cut_j_stereo_44KHz.wav
1	118	1	1	1	C	2	0	1146	0	Ⴐ	cut_ui_stereo_44KHz.wav
1	119	4	3	2	I	2	0	698	1	Ⴖ	cut_f_stereo_44KHz.wav
1	120	2	1	0	C	2	1	875	1	Ⴒ	cut_ui_stereo_44KHz.wav
1	121	1	2	0	C	1	0	845	0	Ⴐ	cut_ei_stereo_44KHz.wav
1	122	3	4	2	I	2	0	854	1	Ⴉ	cut_j_stereo_44KHz.wav
1	123	4	4	2	I	1	0	624	1	Ⴖ	cut_j_stereo_44KHz.wav
1	124	2	1	0	C	2	1	878	1	Ⴒ	cut_ui_stereo_44KHz.wav
1	125	3	3	2	I	2	0	671	1	Ⴉ	cut_f_stereo_44KHz.wav
1	126	2	2	1	C	1	1	910	1	Ⴒ	cut_ei_stereo_44KHz.wav
1	127	4	3	2	I	2	0	739	0	Ⴖ	cut_f_stereo_44KHz.wav
1	128	1	1	1	C	1	1	1244	1	Ⴐ	cut_ui_stereo_44KHz.wav
1	129	2	1	0	C	2	1	660	1	Ⴒ	cut_ui_stereo_44KHz.wav
1	130	4	4	2	I	1	0	873	0	Ⴖ	cut_j_stereo_44KHz.wav
1	131	1	1	1	C	2	0	762	0	Ⴐ	cut_ui_stereo_44KHz.wav
1	132	3	3	2	I	2	0	716	0	Ⴉ	cut_f_stereo_44KHz.wav
1	133	2	2	1	C	1	1	894	1	Ⴒ	cut_ei_stereo_44KHz.wav
1	134	4	3	2	I	1	0	845	1	Ⴖ	cut_f_stereo_44KHz.wav
1	135	3	4	2	I	1	0	925	1	Ⴉ	cut_j_stereo_44KHz.wav
1	136	1	2	0	C	2	1	827	1	Ⴐ	cut_ei_stereo_44KHz.wav
1	137	2	2	1	C	1	1	742	1	Ⴒ	cut_ei_stereo_44KHz.wav
1	138	1	1	1	C	1	1	1019	1	Ⴐ	cut_ui_stereo_44KHz.wav
1	139	3	4	2	I	1	0	1312	1	Ⴉ	cut_j_stereo_44KHz.wav
1	140	4	3	2	I	2	0	517	0	Ⴖ	cut_f_stereo_44KHz.wav
1	141	1	2	0	C	2	1	684	1	Ⴐ	cut_ei_stereo_44KHz.wav
1	142	4	4	2	I	1	0	953	0	Ⴖ	cut_j_stereo_44KHz.wav
1	143	3	3	2	I	2	0	1019	0	Ⴉ	cut_f_stereo_44KHz.wav
1	144	2	1	0	C	2	1	1141	1	Ⴒ	cut_ui_stereo_44KHz.wav
1	145	4	3	2	I	2	0	1152	0	Ⴖ	cut_f_stereo_44KHz.wav
1	146	1	2	0	C	2	1	842	1	Ⴐ	cut_ei_stereo_44KHz.wav
1	147	3	4	2	I	2	0	1117	0	Ⴉ	cut_j_stereo_44KHz.wav
1	148	2	1	0	C	1	0	855	0	Ⴒ	cut_ui_stereo_44KHz.wav
1	149	3	3	2	I	2	0	678	1	Ⴉ	cut_f_stereo_44KHz.wav
1	150	1	1	1	C	2	0	1308	0	Ⴐ	cut_ui_stereo_44KHz.wav
1	151	4	4	2	I	2	0	1001	1	Ⴖ	cut_j_stereo_44KHz.wav
1	152	2	2	1	C	1	1	1280	1	Ⴒ	cut_ei_stereo_44KHz.wav
1	153	3	3	2	I	2	0	738	1	Ⴉ	cut_f_stereo_44KHz.wav
1	154	4	4	2	I	2	0	626	1	Ⴖ	cut_j_stereo_44KHz.wav
1	155	1	1	1	C	1	1	1307	1	Ⴐ	cut_ui_stereo_44KHz.wav
1	156	2	2	1	C	2	0	523	0	Ⴒ	cut_ei_stereo_44KHz.wav
1	157	3	4	2	I	1	0	1196	1	Ⴉ	cut_j_stereo_44KHz.wav
1	158	4	3	2	I	2	0	597	0	Ⴖ	cut_f_stereo_44KHz.wav
1	159	2	1	0	C	2	1	885	1	Ⴒ	cut_ui_stereo_44KHz.wav
1	160	1	2	0	C	2	1	496	1	Ⴐ	cut_ei_stereo_44KHz.wav
1	161	4	4	2	I	2	0	820	0	Ⴖ	cut_j_stereo_44KHz.wav
1	162	3	4	2	I	1	0	685	1	Ⴉ	cut_j_stereo_44KHz.wav
1	163	1	1	1	C	2	0	693	0	Ⴐ	cut_ui_stereo_44KHz.wav
1	164	2	1	0	C	2	1	648	1	Ⴒ	cut_ui_stereo_44KHz.wav
1	165	4	3	2	I	2	0	657	1	Ⴖ	cut_f_stereo_44KHz.wav
1	166	3	3	2	I	2	0	537	0	Ⴉ	cut_f_stereo_44KHz.wav
1	167	1	2	0	C	2	1	674	1	Ⴐ	cut_ei_stereo_44KHz.wav
1	168	2	2	1	C	1	1	813	1	Ⴒ	cut_ei_stereo_44KHz.wav
1	169	1	1	1	C	1	1	871	1	Ⴐ	cut_ui_stereo_44KHz.wav
1	170	4	4	2	I	1	0	971	1	Ⴖ	cut_j_stereo_44KHz.wav
1	171	2	2	1	C	1	1	865	1	Ⴒ	cut_ei_stereo_44KHz.wav
1	172	3	3	2	I	2	0	815	0	Ⴉ	cut_f_stereo_44KHz.wav
1	173	4	3	2	I	2	0	477	0	Ⴖ	cut_f_stereo_44KHz.wav
1	174	3	4	2	I	2	0	1063	1	Ⴉ	cut_j_stereo_44KHz.wav
1	175	2	1	0	C	1	0	857	0	Ⴒ	cut_ui_stereo_44KHz.wav
1	176	1	2	0	C	2	1	591	1	Ⴐ	cut_ei_stereo_44KHz.wav
1	177	3	4	2	I	2	0	984	1	Ⴉ	cut_j_stereo_44KHz.wav
1	178	2	2	1	C	1	1	824	1	Ⴒ	cut_ei_stereo_44KHz.wav
1	179	4	4	2	I	1	0	920	1	Ⴖ	cut_j_stereo_44KHz.wav
1	180	1	1	1	C	1	1	999	1	Ⴐ	cut_ui_stereo_44KHz.wav
1	181	3	3	2	I	2	0	698	1	Ⴉ	cut_f_stereo_44KHz.wav
1	182	1	2	0	C	2	1	911	1	Ⴐ	cut_ei_stereo_44KHz.wav
1	183	2	1	0	C	2	1	1090	1	Ⴒ	cut_ui_stereo_44KHz.wav
1	184	4	3	2	I	1	0	850	0	Ⴖ	cut_f_stereo_44KHz.wav
1	185	3	3	2	I	1	0	917	1	Ⴉ	cut_f_stereo_44KHz.wav
1	186	2	2	1	C	1	1	740	1	Ⴒ	cut_ei_stereo_44KHz.wav
1	187	4	4	2	I	1	0	966	1	Ⴖ	cut_j_stereo_44KHz.wav
1	188	1	1	1	C	2	0	907	0	Ⴐ	cut_ui_stereo_44KHz.wav
1	189	4	3	2	I	1	0	730	1	Ⴖ	cut_f_stereo_44KHz.wav
1	190	2	1	0	C	1	0	871	0	Ⴒ	cut_ui_stereo_44KHz.wav
1	191	1	2	0	C	2	1	609	1	Ⴐ	cut_ei_stereo_44KHz.wav
1	192	3	4	2	I	2	0	1011	0	Ⴉ	cut_j_stereo_44KHz.wav
1	193	2	2	1	C	2	0	1015	0	Ⴒ	cut_ei_stereo_44KHz.wav
1	194	1	1	1	C	1	1	813	1	Ⴐ	cut_ui_stereo_44KHz.wav
1	195	4	3	2	I	2	0	924	1	Ⴖ	cut_f_stereo_44KHz.wav
1	196	3	3	2	I	1	0	592	1	Ⴉ	cut_f_stereo_44KHz.wav
1	197	2	1	0	C	2	1	1168	1	Ⴒ	cut_ui_stereo_44KHz.wav
1	198	4	4	2	I	2	0	1089	0	Ⴖ	cut_j_stereo_44KHz.wav
1	199	1	2	0	C	2	1	1208	1	Ⴐ	cut_ei_stereo_44KHz.wav
1	200	3	4	2	I	2	0	934	0	Ⴉ	cut_j_stereo_44KHz.wav
2	1	4	3	2	I	2	0	1509	1	Ⴕ	cut_h_stereo_44KHz.wav
2	2	3	3	2	I	1	0	685	0	Ⴌ	cut_h_stereo_44KHz.wav
2	3	2	1	0	C	2	1	902	1	Ⴔ	cut_g_stereo_44KHz.wav
2	4	1	2	0	C	1	0	662	0	Ⴏ	cut_w_stereo_44KHz.wav
2	5	2	2	1	C	1	1	1367	1	Ⴔ	cut_w_stereo_44KHz.wav
2	6	4	4	2	I	1	0	1015	1	Ⴕ	cut_l_stereo_44KHz.wav
2	7	1	1	1	C	2	0	786	0	Ⴏ	cut_g_stereo_44KHz.wav
2	8	3	4	2	I	1	0	829	1	Ⴌ	cut_l_stereo_44KHz.wav
2	9	1	1	1	C	1	1	981	1	Ⴏ	cut_g_stereo_44KHz.wav
2	10	3	3	2	I	1	0	908	1	Ⴌ	cut_h_stereo_44KHz.wav
2	11	4	4	2	I	2	0	690	0	Ⴕ	cut_l_stereo_44KHz.wav
2	12	2	1	0	C	1	0	839	0	Ⴔ	cut_g_stereo_44KHz.wav
2	13	4	3	2	I	2	0	615	1	Ⴕ	cut_h_stereo_44KHz.wav
2	14	1	2	0	C	2	1	1190	1	Ⴏ	cut_w_stereo_44KHz.wav
2	15	2	2	1	C	1	1	1579	1	Ⴔ	cut_w_stereo_44KHz.wav
2	16	3	4	2	I	1	0	1663	1	Ⴌ	cut_l_stereo_44KHz.wav
2	17	2	1	0	C	1	0	935	0	Ⴔ	cut_g_stereo_44KHz.wav
2	18	1	1	1	C	1	1	685	1	Ⴏ	cut_g_stereo_44KHz.wav
2	19	4	3	2	I	2	0	634	0	Ⴕ	cut_h_stereo_44KHz.wav
2	20	3	4	2	I	1	0	695	0	Ⴌ	cut_l_stereo_44KHz.wav
2	21	2	2	1	C	1	1	651	1	Ⴔ	cut_w_stereo_44KHz.wav
2	22	4	4	2	I	2	0	689	0	Ⴕ	cut_l_stereo_44KHz.wav
2	23	1	2	0	C	1	0	755	0	Ⴏ	cut_w_stereo_44KHz.wav
2	24	3	3	2	I	1	0	860	0	Ⴌ	cut_h_stereo_44KHz.wav
2	25	4	3	2	I	2	0	555	1	Ⴕ	cut_h_stereo_44KHz.wav
2	26	2	1	0	C	2	1	849	1	Ⴔ	cut_g_stereo_44KHz.wav
2	27	1	1	1	C	1	1	684	1	Ⴏ	cut_g_stereo_44KHz.wav
2	28	3	3	2	I	2	0	609	1	Ⴌ	cut_h_stereo_44KHz.wav
2	29	2	2	1	C	1	1	639	1	Ⴔ	cut_w_stereo_44KHz.wav
2	30	1	2	0	C	1	0	674	0	Ⴏ	cut_w_stereo_44KHz.wav
2	31	3	4	2	I	1	0	834	1	Ⴌ	cut_l_stereo_44KHz.wav
2	32	4	4	2	I	1	0	709	1	Ⴕ	cut_l_stereo_44KHz.wav
2	33	3	4	2	I	1	0	513	0	Ⴌ	cut_l_stereo_44KHz.wav
2	34	2	2	1	C	1	1	766	1	Ⴔ	cut_w_stereo_44KHz.wav
2	35	4	3	2	I	2	0	689	0	Ⴕ	cut_h_stereo_44KHz.wav
2	36	1	1	1	C	1	1	810	1	Ⴏ	cut_g_stereo_44KHz.wav
2	37	2	1	0	C	2	1	950	1	Ⴔ	cut_g_stereo_44KHz.wav
2	38	4	4	2	I	1	0	968	1	Ⴕ	cut_l_stereo_44KHz.wav
2	39	1	2	0	C	1	0	771	0	Ⴏ	cut_w_stereo_44KHz.wav
2	40	3	3	2	I	2	0	624	0	Ⴌ	cut_h_stereo_44KHz.wav
2	41	1	2	0	C	2	1	838	1	Ⴏ	cut_w_stereo_44KHz.wav
2	42	2	1	0	C	2	1	854	1	Ⴔ	cut_g_stereo_44KHz.wav
2	43	3	3	2	I	2	0	662	0	Ⴌ	cut_h_stereo_44KHz.wav
2	44	4	3	2	I	2	0	629	0	Ⴕ	cut_h_stereo_44KHz.wav
2	45	3	4	2	I	2	0	948	0	Ⴌ	cut_l_stereo_44KHz.wav
2	46	2	2	1	C	1	1	630	1	Ⴔ	cut_w_stereo_44KHz.wav
2	47	1	1	1	C	2	0	778	0	Ⴏ	cut_g_stereo_44KHz.wav
2	48	4	4	2	I	1	0	901	1	Ⴕ	cut_l_stereo_44KHz.wav
2	49	3	4	2	I	1	0	816	1	Ⴌ	cut_l_stereo_44KHz.wav
2	50	1	2	0	C	2	1	987	1	Ⴏ	cut_w_stereo_44KHz.wav
2	51	4	3	2	I	2	0	1041	0	Ⴕ	cut_h_stereo_44KHz.wav
2	52	2	1	0	C	2	1	917	1	Ⴔ	cut_g_stereo_44KHz.wav
2	53	3	3	2	I	1	0	720	0	Ⴌ	cut_h_stereo_44KHz.wav
2	54	2	2	1	C	1	1	721	1	Ⴔ	cut_w_stereo_44KHz.wav
2	55	1	1	1	C	1	1	816	1	Ⴏ	cut_g_stereo_44KHz.wav
2	56	4	4	2	I	1	0	803	0	Ⴕ	cut_l_stereo_44KHz.wav
2	57	3	4	2	I	2	0	934	0	Ⴌ	cut_l_stereo_44KHz.wav
2	58	1	1	1	C	1	1	657	1	Ⴏ	cut_g_stereo_44KHz.wav
2	59	2	1	0	C	2	1	559	1	Ⴔ	cut_g_stereo_44KHz.wav
2	60	4	3	2	I	1	0	842	1	Ⴕ	cut_h_stereo_44KHz.wav
2	61	2	2	1	C	1	1	1697	1	Ⴔ	cut_w_stereo_44KHz.wav
2	62	1	2	0	C	2	1	844	1	Ⴏ	cut_w_stereo_44KHz.wav
2	63	3	3	2	I	2	0	640	1	Ⴌ	cut_h_stereo_44KHz.wav
2	64	4	4	2	I	1	0	805	0	Ⴕ	cut_l_stereo_44KHz.wav
2	65	2	2	1	C	1	1	852	1	Ⴔ	cut_w_stereo_44KHz.wav
2	66	4	4	2	I	2	0	968	0	Ⴕ	cut_l_stereo_44KHz.wav
2	67	1	2	0	C	2	1	1182	1	Ⴏ	cut_w_stereo_44KHz.wav
2	68	3	4	2	I	2	0	844	0	Ⴌ	cut_l_stereo_44KHz.wav
2	69	4	3	2	I	1	0	836	1	Ⴕ	cut_h_stereo_44KHz.wav
2	70	3	3	2	I	2	0	906	0	Ⴌ	cut_h_stereo_44KHz.wav
2	71	2	1	0	C	2	1	671	1	Ⴔ	cut_g_stereo_44KHz.wav
2	72	1	1	1	C	1	1	731	1	Ⴏ	cut_g_stereo_44KHz.wav
2	73	2	1	0	C	2	1	558	1	Ⴔ	cut_g_stereo_44KHz.wav
2	74	3	3	2	I	1	0	643	1	Ⴌ	cut_h_stereo_44KHz.wav
2	75	4	4	2	I	1	0	844	0	Ⴕ	cut_l_stereo_44KHz.wav
2	76	1	1	1	C	1	1	836	1	Ⴏ	cut_g_stereo_44KHz.wav
2	77	2	2	1	C	1	1	767	1	Ⴔ	cut_w_stereo_44KHz.wav
2	78	3	4	2	I	1	0	608	1	Ⴌ	cut_l_stereo_44KHz.wav
2	79	1	2	0	C	2	1	690	1	Ⴏ	cut_w_stereo_44KHz.wav
2	80	4	3	2	I	2	0	858	1	Ⴕ	cut_h_stereo_44KHz.wav
2	81	3	3	2	I	1	0	527	0	Ⴌ	cut_h_stereo_44KHz.wav
2	82	4	4	2	I	2	0	1330	0	Ⴕ	cut_l_stereo_44KHz.wav
2	83	1	1	1	C	1	1	757	1	Ⴏ	cut_g_stereo_44KHz.wav
2	84	2	1	0	C	2	1	365	1	Ⴔ	cut_g_stereo_44KHz.wav
2	85	3	4	2	I	1	0	810	1	Ⴌ	cut_l_stereo_44KHz.wav
2	86	2	2	1	C	1	1	640	1	Ⴔ	cut_w_stereo_44KHz.wav
2	87	1	2	0	C	1	0	792	0	Ⴏ	cut_w_stereo_44KHz.wav
2	88	4	3	2	I	2	0	598	1	Ⴕ	cut_h_stereo_44KHz.wav
2	89	1	1	1	C	1	1	450	1	Ⴏ	cut_g_stereo_44KHz.wav
2	90	4	4	2	I	1	0	896	1	Ⴕ	cut_l_stereo_44KHz.wav
2	91	3	3	2	I	2	0	519	1	Ⴌ	cut_h_stereo_44KHz.wav
2	92	2	1	0	C	2	1	770	1	Ⴔ	cut_g_stereo_44KHz.wav
2	93	4	3	2	I	2	0	578	0	Ⴕ	cut_h_stereo_44KHz.wav
2	94	3	4	2	I	2	0	742	1	Ⴌ	cut_l_stereo_44KHz.wav
2	95	2	2	1	C	1	1	767	1	Ⴔ	cut_w_stereo_44KHz.wav
2	96	1	2	0	C	2	1	583	1	Ⴏ	cut_w_stereo_44KHz.wav
2	97	3	4	2	I	2	0	989	0	Ⴌ	cut_l_stereo_44KHz.wav
2	98	1	1	1	C	2	0	252	0	Ⴏ	cut_g_stereo_44KHz.wav
2	99	2	1	0	C	2	1	757	1	Ⴔ	cut_g_stereo_44KHz.wav
2	100	4	3	2	I	1	0	923	1	Ⴕ	cut_h_stereo_44KHz.wav
2	101	3	3	2	I	1	0	937	1	Ⴌ	cut_h_stereo_44KHz.wav
2	102	4	4	2	I	1	0	589	1	Ⴕ	cut_l_stereo_44KHz.wav
2	103	1	2	0	C	2	1	604	1	Ⴏ	cut_w_stereo_44KHz.wav
2	104	2	2	1	C	1	1	666	1	Ⴔ	cut_w_stereo_44KHz.wav
2	105	3	4	2	I	1	0	558	1	Ⴌ	cut_l_stereo_44KHz.wav
2	106	2	2	1	C	1	1	862	1	Ⴔ	cut_w_stereo_44KHz.wav
2	107	4	3	2	I	1	0	481	1	Ⴕ	cut_h_stereo_44KHz.wav
2	108	1	1	1	C	2	0	503	0	Ⴏ	cut_g_stereo_44KHz.wav
2	109	4	4	2	I	1	0	538	0	Ⴕ	cut_l_stereo_44KHz.wav
2	110	1	2	0	C	2	1	1026	1	Ⴏ	cut_w_stereo_44KHz.wav
2	111	2	1	0	C	2	1	645	1	Ⴔ	cut_g_stereo_44KHz.wav
2	112	3	3	2	I	1	0	1361	0	Ⴌ	cut_h_stereo_44KHz.wav
2	113	1	2	0	C	2	1	780	1	Ⴏ	cut_w_stereo_44KHz.wav
2	114	4	4	2	I	1	0	840	0	Ⴕ	cut_l_stereo_44KHz.wav
2	115	3	4	2	I	1	0	885	0	Ⴌ	cut_l_stereo_44KHz.wav
2	116	2	2	1	C	1	1	1063	1	Ⴔ	cut_w_stereo_44KHz.wav
2	117	1	1	1	C	2	0	578	0	Ⴏ	cut_g_stereo_44KHz.wav
2	118	3	3	2	I	2	0	703	0	Ⴌ	cut_h_stereo_44KHz.wav
2	119	4	3	2	I	2	0	649	0	Ⴕ	cut_h_stereo_44KHz.wav
2	120	2	1	0	C	2	1	518	1	Ⴔ	cut_g_stereo_44KHz.wav
2	121	1	2	0	C	1	0	558	0	Ⴏ	cut_w_stereo_44KHz.wav
2	122	3	4	2	I	2	0	642	0	Ⴌ	cut_l_stereo_44KHz.wav
2	123	2	2	1	C	1	1	796	1	Ⴔ	cut_w_stereo_44KHz.wav
2	124	4	4	2	I	2	0	753	0	Ⴕ	cut_l_stereo_44KHz.wav
2	125	3	3	2	I	1	0	527	1	Ⴌ	cut_h_stereo_44KHz.wav
2	126	4	3	2	I	1	0	659	0	Ⴕ	cut_h_stereo_44KHz.wav
2	127	2	1	0	C	2	1	629	1	Ⴔ	cut_g_stereo_44KHz.wav
2	128	1	1	1	C	1	1	634	1	Ⴏ	cut_g_stereo_44KHz.wav
2	129	4	3	2	I	1	0	520	1	Ⴕ	cut_h_stereo_44KHz.wav
2	130	3	3	2	I	2	0	439	0	Ⴌ	cut_h_stereo_44KHz.wav
2	131	1	2	0	C	2	1	923	1	Ⴏ	cut_w_stereo_44KHz.wav
2	132	2	2	1	C	1	1	736	1	Ⴔ	cut_w_stereo_44KHz.wav
2	133	1	1	1	C	1	1	831	1	Ⴏ	cut_g_stereo_44KHz.wav
2	134	3	4	2	I	2	0	743	0	Ⴌ	cut_l_stereo_44KHz.wav
2	135	2	1	0	C	2	1	706	1	Ⴔ	cut_g_stereo_44KHz.wav
2	136	4	4	2	I	1	0	1036	0	Ⴕ	cut_l_stereo_44KHz.wav
2	137	1	2	0	C	1	0	766	0	Ⴏ	cut_w_stereo_44KHz.wav
2	138	2	2	1	C	1	1	928	1	Ⴔ	cut_w_stereo_44KHz.wav
2	139	4	4	2	I	2	0	1374	0	Ⴕ	cut_l_stereo_44KHz.wav
2	140	3	4	2	I	2	0	998	1	Ⴌ	cut_l_stereo_44KHz.wav
2	141	4	3	2	I	2	0	866	0	Ⴕ	cut_h_stereo_44KHz.wav
2	142	1	1	1	C	1	1	773	1	Ⴏ	cut_g_stereo_44KHz.wav
2	143	2	1	0	C	2	1	552	1	Ⴔ	cut_g_stereo_44KHz.wav
2	144	3	3	2	I	2	0	548	0	Ⴌ	cut_h_stereo_44KHz.wav
2	145	1	1	1	C	1	1	769	1	Ⴏ	cut_g_stereo_44KHz.wav
2	146	2	2	1	C	1	1	684	1	Ⴔ	cut_w_stereo_44KHz.wav
2	147	4	4	2	I	1	0	894	1	Ⴕ	cut_l_stereo_44KHz.wav
2	148	3	4	2	I	1	0	620	0	Ⴌ	cut_l_stereo_44KHz.wav
2	149	4	3	2	I	1	0	836	1	Ⴕ	cut_h_stereo_44KHz.wav
2	150	1	2	0	C	2	1	873	1	Ⴏ	cut_w_stereo_44KHz.wav
2	151	3	3	2	I	1	0	798	0	Ⴌ	cut_h_stereo_44KHz.wav
2	152	2	1	0	C	2	1	753	1	Ⴔ	cut_g_stereo_44KHz.wav
2	153	3	3	2	I	2	0	663	0	Ⴌ	cut_h_stereo_44KHz.wav
2	154	2	2	1	C	1	1	807	1	Ⴔ	cut_w_stereo_44KHz.wav
2	155	4	4	2	I	2	0	726	1	Ⴕ	cut_l_stereo_44KHz.wav
2	156	1	2	0	C	1	0	779	0	Ⴏ	cut_w_stereo_44KHz.wav
2	157	4	3	2	I	2	0	915	0	Ⴕ	cut_h_stereo_44KHz.wav
2	158	1	1	1	C	1	1	840	1	Ⴏ	cut_g_stereo_44KHz.wav
2	159	2	1	0	C	2	1	551	1	Ⴔ	cut_g_stereo_44KHz.wav
2	160	3	4	2	I	2	0	702	0	Ⴌ	cut_l_stereo_44KHz.wav
2	161	1	2	0	C	2	1	686	1	Ⴏ	cut_w_stereo_44KHz.wav
2	162	2	1	0	C	2	1	679	1	Ⴔ	cut_g_stereo_44KHz.wav
2	163	3	4	2	I	2	0	1033	1	Ⴌ	cut_l_stereo_44KHz.wav
2	164	4	4	2	I	1	0	670	1	Ⴕ	cut_l_stereo_44KHz.wav
2	165	3	3	2	I	1	0	1089	1	Ⴌ	cut_h_stereo_44KHz.wav
2	166	1	1	1	C	1	1	1376	1	Ⴏ	cut_g_stereo_44KHz.wav
2	167	4	3	2	I	2	0	833	0	Ⴕ	cut_h_stereo_44KHz.wav
2	168	2	2	1	C	1	1	638	1	Ⴔ	cut_w_stereo_44KHz.wav
2	169	4	4	2	I	1	0	755	0	Ⴕ	cut_l_stereo_44KHz.wav
2	170	1	1	1	C	1	1	843	1	Ⴏ	cut_g_stereo_44KHz.wav
2	171	3	4	2	I	1	0	481	1	Ⴌ	cut_l_stereo_44KHz.wav
2	172	2	1	0	C	2	1	330	1	Ⴔ	cut_g_stereo_44KHz.wav
2	173	1	2	0	C	1	0	639	0	Ⴏ	cut_w_stereo_44KHz.wav
2	174	2	2	1	C	1	1	654	1	Ⴔ	cut_w_stereo_44KHz.wav
2	175	4	3	2	I	1	0	598	0	Ⴕ	cut_h_stereo_44KHz.wav
2	176	3	3	2	I	2	0	832	0	Ⴌ	cut_h_stereo_44KHz.wav
2	177	2	1	0	C	2	1	674	1	Ⴔ	cut_g_stereo_44KHz.wav
2	178	1	1	1	C	1	1	584	1	Ⴏ	cut_g_stereo_44KHz.wav
2	179	4	4	2	I	2	0	810	0	Ⴕ	cut_l_stereo_44KHz.wav
2	180	3	3	2	I	2	0	568	1	Ⴌ	cut_h_stereo_44KHz.wav
2	181	1	2	0	C	2	1	1084	1	Ⴏ	cut_w_stereo_44KHz.wav
2	182	3	4	2	I	2	0	864	1	Ⴌ	cut_l_stereo_44KHz.wav
2	183	2	2	1	C	1	1	706	1	Ⴔ	cut_w_stereo_44KHz.wav
2	184	4	3	2	I	1	0	778	1	Ⴕ	cut_h_stereo_44KHz.wav
2	185	2	1	0	C	2	1	812	1	Ⴔ	cut_g_stereo_44KHz.wav
2	186	3	3	2	I	1	0	897	1	Ⴌ	cut_h_stereo_44KHz.wav
2	187	4	3	2	I	1	0	672	1	Ⴕ	cut_h_stereo_44KHz.wav
2	188	1	2	0	C	2	1	1207	1	Ⴏ	cut_w_stereo_44KHz.wav
2	189	4	4	2	I	2	0	737	1	Ⴕ	cut_l_stereo_44KHz.wav
2	190	3	4	2	I	1	0	583	1	Ⴌ	cut_l_stereo_44KHz.wav
2	191	2	2	1	C	2	0	617	0	Ⴔ	cut_w_stereo_44KHz.wav
2	192	1	1	1	C	1	1	645	1	Ⴏ	cut_g_stereo_44KHz.wav
2	193	3	4	2	I	1	0	491	1	Ⴌ	cut_l_stereo_44KHz.wav
2	194	2	2	1	C	2	0	413	0	Ⴔ	cut_w_stereo_44KHz.wav
2	195	4	4	2	I	1	0	729	1	Ⴕ	cut_l_stereo_44KHz.wav
2	196	1	2	0	C	2	1	1024	1	Ⴏ	cut_w_stereo_44KHz.wav
2	197	2	1	0	C	2	1	676	1	Ⴔ	cut_g_stereo_44KHz.wav
2	198	1	1	1	C	1	1	754	1	Ⴏ	cut_g_stereo_44KHz.wav
2	199	4	3	2	I	2	0	682	1	Ⴕ	cut_h_stereo_44KHz.wav
2	200	3	3	2	I	1	0	532	1	Ⴌ	cut_h_stereo_44KHz.wav
3	1	1	2	0	C	2	1	1190	1	Ⴜ	cut_u_stereo_44KHz.wav
3	2	2	1	0	C	1	0	1277	0	Ⴟ	cut_a_stereo_44KHz.wav
3	3	4	4	2	I	1	0	727	1	Ⴇ	cut_o_stereo_44KHz.wav
3	4	3	4	2	I	2	0	641	1	Ⴂ	cut_o_stereo_44KHz.wav
3	5	1	1	1	C	2	0	762	0	Ⴜ	cut_a_stereo_44KHz.wav
3	6	2	2	1	C	1	1	688	1	Ⴟ	cut_u_stereo_44KHz.wav
3	7	3	3	2	I	2	0	414	0	Ⴂ	cut_k_stereo_44KHz.wav
3	8	4	3	2	I	2	0	726	0	Ⴇ	cut_k_stereo_44KHz.wav
3	9	3	4	2	I	1	0	850	1	Ⴂ	cut_o_stereo_44KHz.wav
3	10	1	1	1	C	2	0	664	0	Ⴜ	cut_a_stereo_44KHz.wav
3	11	2	1	0	C	2	1	457	1	Ⴟ	cut_a_stereo_44KHz.wav
3	12	4	3	2	I	1	0	410	0	Ⴇ	cut_k_stereo_44KHz.wav
3	13	3	3	2	I	2	0	413	1	Ⴂ	cut_k_stereo_44KHz.wav
3	14	4	4	2	I	1	0	739	0	Ⴇ	cut_o_stereo_44KHz.wav
3	15	2	2	1	C	2	0	557	0	Ⴟ	cut_u_stereo_44KHz.wav
3	16	1	2	0	C	2	1	373	1	Ⴜ	cut_u_stereo_44KHz.wav
3	17	2	1	0	C	2	1	404	1	Ⴟ	cut_a_stereo_44KHz.wav
3	18	4	4	2	I	1	0	469	1	Ⴇ	cut_o_stereo_44KHz.wav
3	19	3	4	2	I	1	0	609	1	Ⴂ	cut_o_stereo_44KHz.wav
3	20	1	1	1	C	2	0	542	0	Ⴜ	cut_a_stereo_44KHz.wav
3	21	3	3	2	I	1	0	449	1	Ⴂ	cut_k_stereo_44KHz.wav
3	22	4	3	2	I	1	0	406	0	Ⴇ	cut_k_stereo_44KHz.wav
3	23	2	2	1	C	2	0	704	0	Ⴟ	cut_u_stereo_44KHz.wav
3	24	1	2	0	C	2	1	512	1	Ⴜ	cut_u_stereo_44KHz.wav
3	25	2	2	1	C	2	0	850	0	Ⴟ	cut_u_stereo_44KHz.wav
3	26	4	4	2	I	1	0	436	1	Ⴇ	cut_o_stereo_44KHz.wav
3	27	1	2	0	C	2	1	579	1	Ⴜ	cut_u_stereo_44KHz.wav
3	28	3	4	2	I	1	0	480	1	Ⴂ	cut_o_stereo_44KHz.wav
3	29	1	1	1	C	2	0	492	0	Ⴜ	cut_a_stereo_44KHz.wav
3	30	4	3	2	I	2	0	545	1	Ⴇ	cut_k_stereo_44KHz.wav
3	31	3	3	2	I	1	0	746	1	Ⴂ	cut_k_stereo_44KHz.wav
3	32	2	1	0	C	2	1	518	1	Ⴟ	cut_a_stereo_44KHz.wav
3	33	4	4	2	I	1	0	451	1	Ⴇ	cut_o_stereo_44KHz.wav
3	34	1	2	0	C	2	1	551	1	Ⴜ	cut_u_stereo_44KHz.wav
3	35	2	2	1	C	2	0	346	0	Ⴟ	cut_u_stereo_44KHz.wav
3	36	3	3	2	I	1	0	314	1	Ⴂ	cut_k_stereo_44KHz.wav
3	37	2	1	0	C	1	0	758	0	Ⴟ	cut_a_stereo_44KHz.wav
3	38	4	3	2	I	2	0	743	1	Ⴇ	cut_k_stereo_44KHz.wav
3	39	3	4	2	I	2	0	476	0	Ⴂ	cut_o_stereo_44KHz.wav
3	40	1	1	1	C	1	1	423	1	Ⴜ	cut_a_stereo_44KHz.wav
3	41	4	4	2	I	2	0	466	0	Ⴇ	cut_o_stereo_44KHz.wav
3	42	1	1	1	C	1	1	263	1	Ⴜ	cut_a_stereo_44KHz.wav
3	43	2	2	1	C	2	0	812	0	Ⴟ	cut_u_stereo_44KHz.wav
3	44	3	4	2	I	1	0	335	0	Ⴂ	cut_o_stereo_44KHz.wav
3	45	2	1	0	C	2	1	419	1	Ⴟ	cut_a_stereo_44KHz.wav
3	46	1	2	0	C	2	1	385	1	Ⴜ	cut_u_stereo_44KHz.wav
3	47	4	3	2	I	1	0	560	1	Ⴇ	cut_k_stereo_44KHz.wav
3	48	3	3	2	I	1	0	516	0	Ⴂ	cut_k_stereo_44KHz.wav
3	49	2	1	0	C	2	1	792	1	Ⴟ	cut_a_stereo_44KHz.wav
3	50	1	1	1	C	1	1	370	1	Ⴜ	cut_a_stereo_44KHz.wav
3	51	4	4	2	I	1	0	463	1	Ⴇ	cut_o_stereo_44KHz.wav
3	52	3	4	2	I	2	0	242	1	Ⴂ	cut_o_stereo_44KHz.wav
3	53	1	2	0	C	1	0	331	0	Ⴜ	cut_u_stereo_44KHz.wav
3	54	2	2	1	C	1	1	436	1	Ⴟ	cut_u_stereo_44KHz.wav
3	55	3	3	2	I	2	0	286	0	Ⴂ	cut_k_stereo_44KHz.wav
3	56	4	3	2	I	2	0	352	1	Ⴇ	cut_k_stereo_44KHz.wav
3	57	3	3	2	I	1	0	550	1	Ⴂ	cut_k_stereo_44KHz.wav
3	58	4	3	2	I	1	0	500	1	Ⴇ	cut_k_stereo_44KHz.wav
3	59	2	1	0	C	2	1	529	1	Ⴟ	cut_a_stereo_44KHz.wav
3	60	1	1	1	C	1	1	571	1	Ⴜ	cut_a_stereo_44KHz.wav
3	61	4	4	2	I	1	0	1198	1	Ⴇ	cut_o_stereo_44KHz.wav
3	62	2	2	1	C	2	0	392	0	Ⴟ	cut_u_stereo_44KHz.wav
3	63	3	4	2	I	2	0	360	1	Ⴂ	cut_o_stereo_44KHz.wav
3	64	1	2	0	C	1	0	331	0	Ⴜ	cut_u_stereo_44KHz.wav
3	65	4	4	2	I	1	0	556	1	Ⴇ	cut_o_stereo_44KHz.wav
3	66	1	2	0	C	2	1	419	1	Ⴜ	cut_u_stereo_44KHz.wav
3	67	3	4	2	I	1	0	369	0	Ⴂ	cut_o_stereo_44KHz.wav
3	68	2	2	1	C	2	0	416	0	Ⴟ	cut_u_stereo_44KHz.wav
3	69	4	3	2	I	1	0	413	1	Ⴇ	cut_k_stereo_44KHz.wav
3	70	3	3	2	I	2	0	337	1	Ⴂ	cut_k_stereo_44KHz.wav
3	71	2	1	0	C	1	0	300	0	Ⴟ	cut_a_stereo_44KHz.wav
3	72	1	1	1	C	2	0	331	0	Ⴜ	cut_a_stereo_44KHz.wav
3	73	2	2	1	C	1	1	226	1	Ⴟ	cut_u_stereo_44KHz.wav
3	74	1	1	1	C	1	1	370	1	Ⴜ	cut_a_stereo_44KHz.wav
3	75	3	4	2	I	2	0	470	0	Ⴂ	cut_o_stereo_44KHz.wav
3	76	4	4	2	I	2	0	203	0	Ⴇ	cut_o_stereo_44KHz.wav
3	77	2	1	0	C	2	1	322	1	Ⴟ	cut_a_stereo_44KHz.wav
3	78	3	3	2	I	1	0	380	1	Ⴂ	cut_k_stereo_44KHz.wav
3	79	1	2	0	C	2	1	364	1	Ⴜ	cut_u_stereo_44KHz.wav
3	80	4	3	2	I	1	0	244	1	Ⴇ	cut_k_stereo_44KHz.wav
3	81	1	2	0	C	2	1	554	1	Ⴜ	cut_u_stereo_44KHz.wav
3	82	3	4	2	I	1	0	333	1	Ⴂ	cut_o_stereo_44KHz.wav
3	83	4	4	2	I	2	0	488	0	Ⴇ	cut_o_stereo_44KHz.wav
3	84	2	2	1	C	2	0	515	0	Ⴟ	cut_u_stereo_44KHz.wav
3	85	4	3	2	I	1	0	457	0	Ⴇ	cut_k_stereo_44KHz.wav
3	86	2	1	0	C	2	1	388	1	Ⴟ	cut_a_stereo_44KHz.wav
3	87	1	1	1	C	1	1	344	1	Ⴜ	cut_a_stereo_44KHz.wav
3	88	3	3	2	I	1	0	474	0	Ⴂ	cut_k_stereo_44KHz.wav
3	89	1	1	1	C	1	1	441	1	Ⴜ	cut_a_stereo_44KHz.wav
3	90	3	4	2	I	2	0	323	1	Ⴂ	cut_o_stereo_44KHz.wav
3	91	4	4	2	I	1	0	874	1	Ⴇ	cut_o_stereo_44KHz.wav
3	92	2	2	1	C	2	0	442	0	Ⴟ	cut_u_stereo_44KHz.wav
3	93	3	3	2	I	1	0	451	0	Ⴂ	cut_k_stereo_44KHz.wav
3	94	1	2	0	C	2	1	449	1	Ⴜ	cut_u_stereo_44KHz.wav
3	95	4	3	2	I	1	0	608	0	Ⴇ	cut_k_stereo_44KHz.wav
3	96	2	1	0	C	1	0	520	0	Ⴟ	cut_a_stereo_44KHz.wav
3	97	4	4	2	I	1	0	481	1	Ⴇ	cut_o_stereo_44KHz.wav
3	98	2	2	1	C	2	0	750	0	Ⴟ	cut_u_stereo_44KHz.wav
3	99	3	3	2	I	1	0	547	0	Ⴂ	cut_k_stereo_44KHz.wav
3	100	1	2	0	C	2	1	294	1	Ⴜ	cut_u_stereo_44KHz.wav
3	101	4	3	2	I	2	0	279	0	Ⴇ	cut_k_stereo_44KHz.wav
3	102	3	4	2	I	1	0	308	0	Ⴂ	cut_o_stereo_44KHz.wav
3	103	1	1	1	C	1	1	396	1	Ⴜ	cut_a_stereo_44KHz.wav
3	104	2	1	0	C	2	1	482	1	Ⴟ	cut_a_stereo_44KHz.wav
3	105	1	1	1	C	2	0	536	0	Ⴜ	cut_a_stereo_44KHz.wav
3	106	3	3	2	I	1	0	417	0	Ⴂ	cut_k_stereo_44KHz.wav
3	107	2	2	1	C	2	0	190	0	Ⴟ	cut_u_stereo_44KHz.wav
3	108	4	4	2	I	2	0	202	1	Ⴇ	cut_o_stereo_44KHz.wav
3	109	2	1	0	C	2	1	354	1	Ⴟ	cut_a_stereo_44KHz.wav
3	110	1	2	0	C	1	0	303	0	Ⴜ	cut_u_stereo_44KHz.wav
3	111	3	4	2	I	1	0	465	0	Ⴂ	cut_o_stereo_44KHz.wav
3	112	4	3	2	I	1	0	585	0	Ⴇ	cut_k_stereo_44KHz.wav
3	113	2	2	1	C	2	0	363	0	Ⴟ	cut_u_stereo_44KHz.wav
3	114	4	4	2	I	2	0	179	0	Ⴇ	cut_o_stereo_44KHz.wav
3	115	1	1	1	C	2	0	380	0	Ⴜ	cut_a_stereo_44KHz.wav
3	116	3	4	2	I	2	0	361	0	Ⴂ	cut_o_stereo_44KHz.wav
3	117	1	2	0	C	2	1	361	1	Ⴜ	cut_u_stereo_44KHz.wav
3	118	4	3	2	I	1	0	196	1	Ⴇ	cut_k_stereo_44KHz.wav
3	119	3	3	2	I	2	0	544	0	Ⴂ	cut_k_stereo_44KHz.wav
3	120	2	1	0	C	2	1	324	1	Ⴟ	cut_a_stereo_44KHz.wav
3	121	4	4	2	I	1	0	610	1	Ⴇ	cut_o_stereo_44KHz.wav
3	122	1	2	0	C	2	1	456	1	Ⴜ	cut_u_stereo_44KHz.wav
3	123	3	3	2	I	1	0	650	0	Ⴂ	cut_k_stereo_44KHz.wav
3	124	2	2	1	C	1	1	353	1	Ⴟ	cut_u_stereo_44KHz.wav
3	125	4	3	2	I	2	0	602	0	Ⴇ	cut_k_stereo_44KHz.wav
3	126	3	4	2	I	2	0	190	0	Ⴂ	cut_o_stereo_44KHz.wav
3	127	2	1	0	C	1	0	294	0	Ⴟ	cut_a_stereo_44KHz.wav
3	128	1	1	1	C	1	1	343	1	Ⴜ	cut_a_stereo_44KHz.wav
3	129	4	4	2	I	1	0	426	1	Ⴇ	cut_o_stereo_44KHz.wav
3	130	1	2	0	C	2	1	198	1	Ⴜ	cut_u_stereo_44KHz.wav
3	131	3	4	2	I	2	0	368	1	Ⴂ	cut_o_stereo_44KHz.wav
3	132	2	2	1	C	1	1	267	1	Ⴟ	cut_u_stereo_44KHz.wav
3	133	3	3	2	I	2	0	366	0	Ⴂ	cut_k_stereo_44KHz.wav
3	134	1	1	1	C	1	1	331	1	Ⴜ	cut_a_stereo_44KHz.wav
3	135	4	3	2	I	1	0	43	1	Ⴇ	cut_k_stereo_44KHz.wav
3	136	2	1	0	C	2	1	257	1	Ⴟ	cut_a_stereo_44KHz.wav
3	137	1	1	1	C	1	1	325	1	Ⴜ	cut_a_stereo_44KHz.wav
3	138	2	2	1	C	1	1	569	1	Ⴟ	cut_u_stereo_44KHz.wav
3	139	3	3	2	I	2	0	179	1	Ⴂ	cut_k_stereo_44KHz.wav
3	140	4	4	2	I	1	0	432	1	Ⴇ	cut_o_stereo_44KHz.wav
3	141	2	1	0	C	2	1	295	1	Ⴟ	cut_a_stereo_44KHz.wav
3	142	4	3	2	I	1	0	248	1	Ⴇ	cut_k_stereo_44KHz.wav
3	143	3	4	2	I	2	0	207	0	Ⴂ	cut_o_stereo_44KHz.wav
3	144	1	2	0	C	1	0	340	0	Ⴜ	cut_u_stereo_44KHz.wav
3	145	3	4	2	I	1	0	529	1	Ⴂ	cut_o_stereo_44KHz.wav
3	146	1	1	1	C	2	0	466	0	Ⴜ	cut_a_stereo_44KHz.wav
3	147	2	2	1	C	1	1	644	1	Ⴟ	cut_u_stereo_44KHz.wav
3	148	4	3	2	I	1	0	473	0	Ⴇ	cut_k_stereo_44KHz.wav
3	149	3	3	2	I	1	0	445	1	Ⴂ	cut_k_stereo_44KHz.wav
3	150	4	4	2	I	1	0	450	1	Ⴇ	cut_o_stereo_44KHz.wav
3	151	1	2	0	C	2	1	412	1	Ⴜ	cut_u_stereo_44KHz.wav
3	152	2	1	0	C	2	1	693	1	Ⴟ	cut_a_stereo_44KHz.wav
3	153	4	4	2	I	1	0	463	0	Ⴇ	cut_o_stereo_44KHz.wav
3	154	2	1	0	C	2	1	426	1	Ⴟ	cut_a_stereo_44KHz.wav
3	155	3	4	2	I	1	0	583	0	Ⴂ	cut_o_stereo_44KHz.wav
3	156	1	2	0	C	1	0	614	0	Ⴜ	cut_u_stereo_44KHz.wav
3	157	3	3	2	I	1	0	791	1	Ⴂ	cut_k_stereo_44KHz.wav
3	158	4	3	2	I	1	0	572	0	Ⴇ	cut_k_stereo_44KHz.wav
3	159	2	2	1	C	2	0	397	0	Ⴟ	cut_u_stereo_44KHz.wav
3	160	1	1	1	C	2	0	641	0	Ⴜ	cut_a_stereo_44KHz.wav
3	161	2	1	0	C	2	1	926	1	Ⴟ	cut_a_stereo_44KHz.wav
3	162	3	3	2	I	1	0	358	1	Ⴂ	cut_k_stereo_44KHz.wav
3	163	1	2	0	C	2	1	528	1	Ⴜ	cut_u_stereo_44KHz.wav
3	164	4	4	2	I	1	0	324	0	Ⴇ	cut_o_stereo_44KHz.wav
3	165	1	1	1	C	2	0	326	0	Ⴜ	cut_a_stereo_44KHz.wav
3	166	2	2	1	C	2	0	524	0	Ⴟ	cut_u_stereo_44KHz.wav
3	167	3	4	2	I	1	0	400	0	Ⴂ	cut_o_stereo_44KHz.wav
3	168	4	3	2	I	1	0	492	0	Ⴇ	cut_k_stereo_44KHz.wav
3	169	3	3	2	I	2	0	346	1	Ⴂ	cut_k_stereo_44KHz.wav
3	170	1	2	0	C	2	1	510	1	Ⴜ	cut_u_stereo_44KHz.wav
3	171	2	1	0	C	1	0	352	0	Ⴟ	cut_a_stereo_44KHz.wav
3	172	4	3	2	I	2	0	421	0	Ⴇ	cut_k_stereo_44KHz.wav
3	173	2	2	1	C	2	0	420	0	Ⴟ	cut_u_stereo_44KHz.wav
3	174	1	1	1	C	2	0	261	0	Ⴜ	cut_a_stereo_44KHz.wav
3	175	3	4	2	I	1	0	287	1	Ⴂ	cut_o_stereo_44KHz.wav
3	176	4	4	2	I	2	0	457	0	Ⴇ	cut_o_stereo_44KHz.wav
3	177	3	4	2	I	1	0	414	0	Ⴂ	cut_o_stereo_44KHz.wav
3	178	1	2	0	C	1	0	366	0	Ⴜ	cut_u_stereo_44KHz.wav
3	179	4	4	2	I	2	0	730	0	Ⴇ	cut_o_stereo_44KHz.wav
3	180	2	2	1	C	1	1	408	1	Ⴟ	cut_u_stereo_44KHz.wav
3	181	4	3	2	I	2	0	575	0	Ⴇ	cut_k_stereo_44KHz.wav
3	182	3	3	2	I	2	0	442	0	Ⴂ	cut_k_stereo_44KHz.wav
3	183	1	1	1	C	1	1	354	1	Ⴜ	cut_a_stereo_44KHz.wav
3	184	2	1	0	C	2	1	832	1	Ⴟ	cut_a_stereo_44KHz.wav
3	185	3	3	2	I	2	0	730	0	Ⴂ	cut_k_stereo_44KHz.wav
3	186	4	4	2	I	1	0	1046	0	Ⴇ	cut_o_stereo_44KHz.wav
3	187	2	1	0	C	2	1	519	1	Ⴟ	cut_a_stereo_44KHz.wav
3	188	1	1	1	C	1	1	775	1	Ⴜ	cut_a_stereo_44KHz.wav
3	189	4	3	2	I	1	0	329	1	Ⴇ	cut_k_stereo_44KHz.wav
3	190	2	2	1	C	1	1	550	1	Ⴟ	cut_u_stereo_44KHz.wav
3	191	3	4	2	I	2	0	526	0	Ⴂ	cut_o_stereo_44KHz.wav
3	192	1	2	0	C	2	1	790	1	Ⴜ	cut_u_stereo_44KHz.wav
3	193	4	4	2	I	1	0	356	0	Ⴇ	cut_o_stereo_44KHz.wav
3	194	2	1	0	C	1	0	552	0	Ⴟ	cut_a_stereo_44KHz.wav
3	195	1	1	1	C	1	1	536	1	Ⴜ	cut_a_stereo_44KHz.wav
3	196	3	4	2	I	2	0	711	1	Ⴂ	cut_o_stereo_44KHz.wav
3	197	4	3	2	I	1	0	452	0	Ⴇ	cut_k_stereo_44KHz.wav
3	198	3	3	2	I	1	0	564	1	Ⴂ	cut_k_stereo_44KHz.wav
3	199	2	2	1	C	2	0	536	0	Ⴟ	cut_u_stereo_44KHz.wav
3	200	1	2	0	C	1	0	658	0	Ⴜ	cut_u_stereo_44KHz.wav
4	1	3	4	2	I	2	0	927	1	Ⴃ	cut_oei_stereo_44KHz.wav
4	2	4	3	2	I	1	0	368	1	Ⴁ	cut_r_stereo_44KHz.wav
4	3	2	1	0	C	2	1	887	1	Ⴡ	cut_n_stereo_44KHz.wav
4	4	1	1	1	C	1	1	723	1	Ⴊ	cut_n_stereo_44KHz.wav
4	5	3	3	2	I	1	0	1163	1	Ⴃ	cut_r_stereo_44KHz.wav
4	6	2	2	1	C	2	0	724	0	Ⴡ	cut_s_stereo_44KHz.wav
4	7	1	2	0	C	2	1	510	1	Ⴊ	cut_s_stereo_44KHz.wav
4	8	4	4	2	I	2	0	719	0	Ⴁ	cut_oei_stereo_44KHz.wav
4	9	1	1	1	C	1	1	501	1	Ⴊ	cut_n_stereo_44KHz.wav
4	10	4	4	2	I	2	0	373	0	Ⴁ	cut_oei_stereo_44KHz.wav
4	11	2	1	0	C	2	1	409	1	Ⴡ	cut_n_stereo_44KHz.wav
4	12	3	4	2	I	1	0	459	0	Ⴃ	cut_oei_stereo_44KHz.wav
4	13	4	3	2	I	1	0	433	1	Ⴁ	cut_r_stereo_44KHz.wav
4	14	2	2	1	C	2	0	475	0	Ⴡ	cut_s_stereo_44KHz.wav
4	15	3	3	2	I	2	0	805	1	Ⴃ	cut_r_stereo_44KHz.wav
4	16	1	2	0	C	1	0	966	0	Ⴊ	cut_s_stereo_44KHz.wav
4	17	3	4	2	I	2	0	551	1	Ⴃ	cut_oei_stereo_44KHz.wav
4	18	2	2	1	C	1	1	896	1	Ⴡ	cut_s_stereo_44KHz.wav
4	19	1	1	1	C	2	0	1128	0	Ⴊ	cut_n_stereo_44KHz.wav
4	20	4	3	2	I	2	0	673	0	Ⴁ	cut_r_stereo_44KHz.wav
4	21	2	1	0	C	1	0	653	0	Ⴡ	cut_n_stereo_44KHz.wav
4	22	3	3	2	I	1	0	896	0	Ⴃ	cut_r_stereo_44KHz.wav
4	23	1	2	0	C	1	0	871	0	Ⴊ	cut_s_stereo_44KHz.wav
4	24	4	4	2	I	2	0	1211	1	Ⴁ	cut_oei_stereo_44KHz.wav
4	25	2	1	0	C	1	0	738	0	Ⴡ	cut_n_stereo_44KHz.wav
4	26	1	2	0	C	1	0	650	0	Ⴊ	cut_s_stereo_44KHz.wav
4	27	3	4	2	I	2	0	848	0	Ⴃ	cut_oei_stereo_44KHz.wav
4	28	4	4	2	I	2	0	617	1	Ⴁ	cut_oei_stereo_44KHz.wav
4	29	1	1	1	C	2	0	604	0	Ⴊ	cut_n_stereo_44KHz.wav
4	30	4	3	2	I	2	0	803	1	Ⴁ	cut_r_stereo_44KHz.wav
4	31	3	3	2	I	2	0	941	0	Ⴃ	cut_r_stereo_44KHz.wav
4	32	2	2	1	C	2	0	913	0	Ⴡ	cut_s_stereo_44KHz.wav
4	33	4	4	2	I	2	0	913	0	Ⴁ	cut_oei_stereo_44KHz.wav
4	34	2	1	0	C	1	0	557	0	Ⴡ	cut_n_stereo_44KHz.wav
4	35	3	4	2	I	1	0	811	1	Ⴃ	cut_oei_stereo_44KHz.wav
4	36	1	1	1	C	2	0	1021	0	Ⴊ	cut_n_stereo_44KHz.wav
4	37	3	3	2	I	1	0	821	0	Ⴃ	cut_r_stereo_44KHz.wav
4	38	2	2	1	C	2	0	829	0	Ⴡ	cut_s_stereo_44KHz.wav
4	39	1	2	0	C	2	1	944	1	Ⴊ	cut_s_stereo_44KHz.wav
4	40	4	3	2	I	1	0	1078	0	Ⴁ	cut_r_stereo_44KHz.wav
4	41	2	2	1	C	1	1	965	1	Ⴡ	cut_s_stereo_44KHz.wav
4	42	3	3	2	I	1	0	877	1	Ⴃ	cut_r_stereo_44KHz.wav
4	43	4	4	2	I	2	0	1289	1	Ⴁ	cut_oei_stereo_44KHz.wav
4	44	1	2	0	C	1	0	451	0	Ⴊ	cut_s_stereo_44KHz.wav
4	45	2	1	0	C	1	0	625	0	Ⴡ	cut_n_stereo_44KHz.wav
4	46	3	4	2	I	1	0	674	1	Ⴃ	cut_oei_stereo_44KHz.wav
4	47	4	3	2	I	1	0	934	1	Ⴁ	cut_r_stereo_44KHz.wav
4	48	1	1	1	C	2	0	838	0	Ⴊ	cut_n_stereo_44KHz.wav
4	49	3	4	2	I	1	0	755	1	Ⴃ	cut_oei_stereo_44KHz.wav
4	50	4	3	2	I	2	0	999	1	Ⴁ	cut_r_stereo_44KHz.wav
4	51	2	2	1	C	2	0	817	0	Ⴡ	cut_s_stereo_44KHz.wav
4	52	1	2	0	C	2	1	831	1	Ⴊ	cut_s_stereo_44KHz.wav
4	53	3	3	2	I	1	0	644	0	Ⴃ	cut_r_stereo_44KHz.wav
4	54	1	1	1	C	2	0	1129	0	Ⴊ	cut_n_stereo_44KHz.wav
4	55	4	4	2	I	2	0	720	0	Ⴁ	cut_oei_stereo_44KHz.wav
4	56	2	1	0	C	1	0	1060	0	Ⴡ	cut_n_stereo_44KHz.wav
4	57	3	3	2	I	1	0	857	1	Ⴃ	cut_r_stereo_44KHz.wav
4	58	2	2	1	C	2	0	1056	0	Ⴡ	cut_s_stereo_44KHz.wav
4	59	1	2	0	C	2	1	472	1	Ⴊ	cut_s_stereo_44KHz.wav
4	60	4	3	2	I	1	0	1028	1	Ⴁ	cut_r_stereo_44KHz.wav
4	61	2	1	0	C	2	1	842	1	Ⴡ	cut_n_stereo_44KHz.wav
4	62	1	1	1	C	1	1	726	1	Ⴊ	cut_n_stereo_44KHz.wav
4	63	4	4	2	I	1	0	504	1	Ⴁ	cut_oei_stereo_44KHz.wav
4	64	3	4	2	I	2	0	862	0	Ⴃ	cut_oei_stereo_44KHz.wav
4	65	1	2	0	C	2	1	646	1	Ⴊ	cut_s_stereo_44KHz.wav
4	66	3	3	2	I	1	0	933	0	Ⴃ	cut_r_stereo_44KHz.wav
4	67	2	1	0	C	1	0	709	0	Ⴡ	cut_n_stereo_44KHz.wav
4	68	4	4	2	I	2	0	942	1	Ⴁ	cut_oei_stereo_44KHz.wav
4	69	2	2	1	C	2	0	1052	0	Ⴡ	cut_s_stereo_44KHz.wav
4	70	3	4	2	I	1	0	920	0	Ⴃ	cut_oei_stereo_44KHz.wav
4	71	4	3	2	I	1	0	754	1	Ⴁ	cut_r_stereo_44KHz.wav
4	72	1	1	1	C	2	0	854	0	Ⴊ	cut_n_stereo_44KHz.wav
4	73	2	2	1	C	1	1	871	1	Ⴡ	cut_s_stereo_44KHz.wav
4	74	4	4	2	I	2	0	869	0	Ⴁ	cut_oei_stereo_44KHz.wav
4	75	1	2	0	C	2	1	718	1	Ⴊ	cut_s_stereo_44KHz.wav
4	76	3	3	2	I	2	0	557	0	Ⴃ	cut_r_stereo_44KHz.wav
4	77	1	1	1	C	2	0	812	0	Ⴊ	cut_n_stereo_44KHz.wav
4	78	2	1	0	C	2	1	872	1	Ⴡ	cut_n_stereo_44KHz.wav
4	79	4	3	2	I	1	0	726	0	Ⴁ	cut_r_stereo_44KHz.wav
4	80	3	4	2	I	1	0	755	0	Ⴃ	cut_oei_stereo_44KHz.wav
4	81	2	2	1	C	1	1	829	1	Ⴡ	cut_s_stereo_44KHz.wav
4	82	1	2	0	C	1	0	1035	0	Ⴊ	cut_s_stereo_44KHz.wav
4	83	3	3	2	I	2	0	617	0	Ⴃ	cut_r_stereo_44KHz.wav
4	84	4	3	2	I	1	0	839	1	Ⴁ	cut_r_stereo_44KHz.wav
4	85	1	1	1	C	2	0	925	0	Ⴊ	cut_n_stereo_44KHz.wav
4	86	2	1	0	C	2	1	1376	1	Ⴡ	cut_n_stereo_44KHz.wav
4	87	3	4	2	I	1	0	1104	1	Ⴃ	cut_oei_stereo_44KHz.wav
4	88	4	4	2	I	2	0	356	0	Ⴁ	cut_oei_stereo_44KHz.wav
4	89	3	4	2	I	1	0	421	0	Ⴃ	cut_oei_stereo_44KHz.wav
4	90	1	1	1	C	1	1	585	1	Ⴊ	cut_n_stereo_44KHz.wav
4	91	4	4	2	I	2	0	542	1	Ⴁ	cut_oei_stereo_44KHz.wav
4	92	2	1	0	C	1	0	722	0	Ⴡ	cut_n_stereo_44KHz.wav
4	93	4	3	2	I	1	0	523	0	Ⴁ	cut_r_stereo_44KHz.wav
4	94	1	2	0	C	2	1	660	1	Ⴊ	cut_s_stereo_44KHz.wav
4	95	2	2	1	C	1	1	433	1	Ⴡ	cut_s_stereo_44KHz.wav
4	96	3	3	2	I	2	0	461	1	Ⴃ	cut_r_stereo_44KHz.wav
4	97	2	2	1	C	1	1	320	1	Ⴡ	cut_s_stereo_44KHz.wav
4	98	1	1	1	C	2	0	650	0	Ⴊ	cut_n_stereo_44KHz.wav
4	99	3	3	2	I	2	0	1057	0	Ⴃ	cut_r_stereo_44KHz.wav
4	100	4	3	2	I	2	0	451	0	Ⴁ	cut_r_stereo_44KHz.wav
4	101	1	2	0	C	1	0	979	0	Ⴊ	cut_s_stereo_44KHz.wav
4	102	3	4	2	I	1	0	843	1	Ⴃ	cut_oei_stereo_44KHz.wav
4	103	2	1	0	C	2	1	743	1	Ⴡ	cut_n_stereo_44KHz.wav
4	104	4	4	2	I	2	0	908	0	Ⴁ	cut_oei_stereo_44KHz.wav
4	105	2	1	0	C	1	0	884	0	Ⴡ	cut_n_stereo_44KHz.wav
4	106	4	3	2	I	1	0	1027	1	Ⴁ	cut_r_stereo_44KHz.wav
4	107	3	4	2	I	1	0	682	0	Ⴃ	cut_oei_stereo_44KHz.wav
4	108	1	2	0	C	2	1	437	1	Ⴊ	cut_s_stereo_44KHz.wav
4	109	4	4	2	I	1	0	569	1	Ⴁ	cut_oei_stereo_44KHz.wav
4	110	2	2	1	C	1	1	860	1	Ⴡ	cut_s_stereo_44KHz.wav
4	111	3	3	2	I	1	0	841	1	Ⴃ	cut_r_stereo_44KHz.wav
4	112	1	1	1	C	1	1	889	1	Ⴊ	cut_n_stereo_44KHz.wav
4	113	2	1	0	C	1	0	621	0	Ⴡ	cut_n_stereo_44KHz.wav
4	114	3	4	2	I	1	0	1307	1	Ⴃ	cut_oei_stereo_44KHz.wav
4	115	4	4	2	I	2	0	690	0	Ⴁ	cut_oei_stereo_44KHz.wav
4	116	1	1	1	C	1	1	1059	1	Ⴊ	cut_n_stereo_44KHz.wav
4	117	2	2	1	C	1	1	1132	1	Ⴡ	cut_s_stereo_44KHz.wav
4	118	3	3	2	I	1	0	870	1	Ⴃ	cut_r_stereo_44KHz.wav
4	119	4	3	2	I	1	0	924	0	Ⴁ	cut_r_stereo_44KHz.wav
4	120	1	2	0	C	2	1	915	1	Ⴊ	cut_s_stereo_44KHz.wav
4	121	4	3	2	I	1	0	578	1	Ⴁ	cut_r_stereo_44KHz.wav
4	122	3	3	2	I	1	0	769	0	Ⴃ	cut_r_stereo_44KHz.wav
4	123	1	2	0	C	1	0	483	0	Ⴊ	cut_s_stereo_44KHz.wav
4	124	2	1	0	C	2	1	935	1	Ⴡ	cut_n_stereo_44KHz.wav
4	125	3	4	2	I	1	0	786	1	Ⴃ	cut_oei_stereo_44KHz.wav
4	126	2	2	1	C	2	0	643	0	Ⴡ	cut_s_stereo_44KHz.wav
4	127	1	1	1	C	1	1	682	1	Ⴊ	cut_n_stereo_44KHz.wav
4	128	4	4	2	I	2	0	730	0	Ⴁ	cut_oei_stereo_44KHz.wav
4	129	2	1	0	C	2	1	911	1	Ⴡ	cut_n_stereo_44KHz.wav
4	130	1	1	1	C	1	1	557	1	Ⴊ	cut_n_stereo_44KHz.wav
4	131	4	3	2	I	2	0	899	1	Ⴁ	cut_r_stereo_44KHz.wav
4	132	3	4	2	I	1	0	692	1	Ⴃ	cut_oei_stereo_44KHz.wav
4	133	2	2	1	C	1	1	814	1	Ⴡ	cut_s_stereo_44KHz.wav
4	134	3	3	2	I	1	0	600	0	Ⴃ	cut_r_stereo_44KHz.wav
4	135	4	4	2	I	2	0	870	0	Ⴁ	cut_oei_stereo_44KHz.wav
4	136	1	2	0	C	2	1	618	1	Ⴊ	cut_s_stereo_44KHz.wav
4	137	2	1	0	C	2	1	881	1	Ⴡ	cut_n_stereo_44KHz.wav
4	138	3	3	2	I	1	0	725	1	Ⴃ	cut_r_stereo_44KHz.wav
4	139	4	3	2	I	2	0	519	1	Ⴁ	cut_r_stereo_44KHz.wav
4	140	1	1	1	C	1	1	997	1	Ⴊ	cut_n_stereo_44KHz.wav
4	141	3	4	2	I	1	0	939	1	Ⴃ	cut_oei_stereo_44KHz.wav
4	142	2	2	1	C	1	1	846	1	Ⴡ	cut_s_stereo_44KHz.wav
4	143	4	4	2	I	1	0	987	1	Ⴁ	cut_oei_stereo_44KHz.wav
4	144	1	2	0	C	2	1	520	1	Ⴊ	cut_s_stereo_44KHz.wav
4	145	3	4	2	I	1	0	877	0	Ⴃ	cut_oei_stereo_44KHz.wav
4	146	1	1	1	C	1	1	837	1	Ⴊ	cut_n_stereo_44KHz.wav
4	147	4	4	2	I	2	0	1047	0	Ⴁ	cut_oei_stereo_44KHz.wav
4	148	2	2	1	C	1	1	784	1	Ⴡ	cut_s_stereo_44KHz.wav
4	149	3	3	2	I	2	0	1055	1	Ⴃ	cut_r_stereo_44KHz.wav
4	150	2	1	0	C	2	1	799	1	Ⴡ	cut_n_stereo_44KHz.wav
4	151	4	3	2	I	2	0	801	1	Ⴁ	cut_r_stereo_44KHz.wav
4	152	1	2	0	C	2	1	762	1	Ⴊ	cut_s_stereo_44KHz.wav
4	153	4	3	2	I	2	0	709	0	Ⴁ	cut_r_stereo_44KHz.wav
4	154	1	1	1	C	1	1	1094	1	Ⴊ	cut_n_stereo_44KHz.wav
4	155	3	3	2	I	2	0	793	1	Ⴃ	cut_r_stereo_44KHz.wav
4	156	2	2	1	C	1	1	986	1	Ⴡ	cut_s_stereo_44KHz.wav
4	157	1	2	0	C	2	1	410	1	Ⴊ	cut_s_stereo_44KHz.wav
4	158	4	4	2	I	1	0	677	0	Ⴁ	cut_oei_stereo_44KHz.wav
4	159	3	4	2	I	1	0	1069	0	Ⴃ	cut_oei_stereo_44KHz.wav
4	160	2	1	0	C	2	1	859	1	Ⴡ	cut_n_stereo_44KHz.wav
4	161	3	3	2	I	2	0	808	0	Ⴃ	cut_r_stereo_44KHz.wav
4	162	1	2	0	C	2	1	627	1	Ⴊ	cut_s_stereo_44KHz.wav
4	163	2	1	0	C	2	1	733	1	Ⴡ	cut_n_stereo_44KHz.wav
4	164	4	3	2	I	2	0	682	0	Ⴁ	cut_r_stereo_44KHz.wav
4	165	1	1	1	C	1	1	829	1	Ⴊ	cut_n_stereo_44KHz.wav
4	166	4	4	2	I	1	0	855	1	Ⴁ	cut_oei_stereo_44KHz.wav
4	167	2	2	1	C	1	1	737	1	Ⴡ	cut_s_stereo_44KHz.wav
4	168	3	4	2	I	1	0	852	1	Ⴃ	cut_oei_stereo_44KHz.wav
4	169	4	3	2	I	2	0	740	1	Ⴁ	cut_r_stereo_44KHz.wav
4	170	3	4	2	I	1	0	741	0	Ⴃ	cut_oei_stereo_44KHz.wav
4	171	1	2	0	C	2	1	694	1	Ⴊ	cut_s_stereo_44KHz.wav
4	172	2	2	1	C	2	0	523	0	Ⴡ	cut_s_stereo_44KHz.wav
4	173	4	4	2	I	2	0	797	0	Ⴁ	cut_oei_stereo_44KHz.wav
4	174	1	1	1	C	1	1	841	1	Ⴊ	cut_n_stereo_44KHz.wav
4	175	2	1	0	C	1	0	617	0	Ⴡ	cut_n_stereo_44KHz.wav
4	176	3	3	2	I	2	0	1168	1	Ⴃ	cut_r_stereo_44KHz.wav
4	177	1	2	0	C	2	1	517	1	Ⴊ	cut_s_stereo_44KHz.wav
4	178	3	4	2	I	2	0	1010	0	Ⴃ	cut_oei_stereo_44KHz.wav
4	179	4	3	2	I	2	0	928	0	Ⴁ	cut_r_stereo_44KHz.wav
4	180	2	2	1	C	1	1	431	1	Ⴡ	cut_s_stereo_44KHz.wav
4	181	4	4	2	I	1	0	560	0	Ⴁ	cut_oei_stereo_44KHz.wav
4	182	2	1	0	C	2	1	1147	1	Ⴡ	cut_n_stereo_44KHz.wav
4	183	3	3	2	I	2	0	1054	1	Ⴃ	cut_r_stereo_44KHz.wav
4	184	1	1	1	C	1	1	745	1	Ⴊ	cut_n_stereo_44KHz.wav
4	185	2	2	1	C	1	1	428	1	Ⴡ	cut_s_stereo_44KHz.wav
4	186	3	4	2	I	1	0	748	0	Ⴃ	cut_oei_stereo_44KHz.wav
4	187	4	3	2	I	2	0	668	0	Ⴁ	cut_r_stereo_44KHz.wav
4	188	1	2	0	C	2	1	889	1	Ⴊ	cut_s_stereo_44KHz.wav
4	189	3	3	2	I	1	0	815	0	Ⴃ	cut_r_stereo_44KHz.wav
4	190	2	1	0	C	2	1	1122	1	Ⴡ	cut_n_stereo_44KHz.wav
4	191	1	1	1	C	1	1	944	1	Ⴊ	cut_n_stereo_44KHz.wav
4	192	4	4	2	I	1	0	722	1	Ⴁ	cut_oei_stereo_44KHz.wav
4	193	3	4	2	I	1	0	707	1	Ⴃ	cut_oei_stereo_44KHz.wav
4	194	1	1	1	C	1	1	661	1	Ⴊ	cut_n_stereo_44KHz.wav
4	195	2	2	1	C	1	1	661	1	Ⴡ	cut_s_stereo_44KHz.wav
4	196	4	3	2	I	1	0	624	1	Ⴁ	cut_r_stereo_44KHz.wav
4	197	3	3	2	I	1	0	624	0	Ⴃ	cut_r_stereo_44KHz.wav
4	198	1	2	0	C	2	1	523	1	Ⴊ	cut_s_stereo_44KHz.wav
4	199	2	1	0	C	1	0	613	0	Ⴡ	cut_n_stereo_44KHz.wav
4	200	4	4	2	I	2	0	757	0	Ⴁ	cut_oei_stereo_44KHz.wav
