block	trial	Vstim	Astim	match	C/I	resp	.result	RT	fb	V-file	A-file
RL

0	1	2	4	0	C	2	1	1226	1	Ⴞ	cut_oo_stereo_44KHz.wav
0	2	1	2	0	C	1	0	928	0	Ⴉ	cut_g_stereo_44KHz.wav
0	3	1	1	1	C	1	1	883	1	Ⴉ	cut_ee_stereo_44KHz.wav
0	4	2	3	1	C	1	1	700	1	Ⴞ	cut_eeuw_stereo_44KHz.wav
0	5	2	4	0	C	2	1	755	1	Ⴞ	cut_oo_stereo_44KHz.wav
0	6	1	1	1	C	2	0	590	0	Ⴉ	cut_ee_stereo_44KHz.wav
0	7	2	3	1	C	1	1	965	1	Ⴞ	cut_eeuw_stereo_44KHz.wav
0	8	1	2	0	C	2	1	916	1	Ⴉ	cut_g_stereo_44KHz.wav
0	9	2	4	0	C	2	1	718	1	Ⴞ	cut_oo_stereo_44KHz.wav
0	10	1	1	1	C	1	1	819	1	Ⴉ	cut_ee_stereo_44KHz.wav
0	11	2	3	1	C	1	1	864	1	Ⴞ	cut_eeuw_stereo_44KHz.wav
0	12	1	2	0	C	2	1	824	1	Ⴉ	cut_g_stereo_44KHz.wav
0	13	1	2	0	C	2	1	833	1	Ⴉ	cut_g_stereo_44KHz.wav
0	14	2	4	0	C	2	1	868	1	Ⴞ	cut_oo_stereo_44KHz.wav
0	15	2	3	1	C	1	1	888	1	Ⴞ	cut_eeuw_stereo_44KHz.wav
0	16	1	1	1	C	1	1	572	1	Ⴉ	cut_ee_stereo_44KHz.wav
0	17	2	3	1	C	1	1	774	1	Ⴞ	cut_eeuw_stereo_44KHz.wav
0	18	2	4	0	C	2	1	581	1	Ⴞ	cut_oo_stereo_44KHz.wav
0	19	1	1	1	C	1	1	757	1	Ⴉ	cut_ee_stereo_44KHz.wav
0	20	1	2	0	C	2	1	784	1	Ⴉ	cut_g_stereo_44KHz.wav
0	21	1	2	0	C	2	1	902	1	Ⴉ	cut_g_stereo_44KHz.wav
0	22	1	1	1	C	1	1	493	1	Ⴉ	cut_ee_stereo_44KHz.wav
0	23	2	4	0	C	2	1	943	1	Ⴞ	cut_oo_stereo_44KHz.wav
0	24	2	3	1	C	1	1	791	1	Ⴞ	cut_eeuw_stereo_44KHz.wav
0	25	2	3	1	C	1	1	935	1	Ⴞ	cut_eeuw_stereo_44KHz.wav
0	26	1	1	1	C	1	1	583	1	Ⴉ	cut_ee_stereo_44KHz.wav
0	27	1	2	0	C	2	1	860	1	Ⴉ	cut_g_stereo_44KHz.wav
0	28	2	4	0	C	2	1	846	1	Ⴞ	cut_oo_stereo_44KHz.wav
0	29	1	2	0	C	2	1	645	1	Ⴉ	cut_g_stereo_44KHz.wav
0	30	1	1	1	C	1	1	740	1	Ⴉ	cut_ee_stereo_44KHz.wav
avg_resp = 802
1	1	3	4	2	I	2	0	1249	0	Ⴉ	cut_g_stereo_44KHz.wav
1	2	4	4	2	I	2	0	820	0	Ⴕ	cut_g_stereo_44KHz.wav
1	3	2	1	0	C	2	1	1174	1	Ⴏ	cut_w_stereo_44KHz.wav
1	4	1	1	1	C	1	1	710	1	Ⴔ	cut_w_stereo_44KHz.wav
1	5	4	3	2	I	2	0	1019	0	Ⴕ	cut_h_stereo_44KHz.wav
1	6	2	2	1	C	1	1	679	1	Ⴏ	cut_l_stereo_44KHz.wav
1	7	1	2	0	C	2	1	820	1	Ⴔ	cut_l_stereo_44KHz.wav
1	8	3	3	2	I	1	0	744	0	Ⴉ	cut_h_stereo_44KHz.wav
1	9	2	1	0	C	2	1	812	1	Ⴏ	cut_w_stereo_44KHz.wav
1	10	4	3	2	I	1	0	1145	1	Ⴕ	cut_h_stereo_44KHz.wav
1	11	3	3	2	I	2	0	710	1	Ⴉ	cut_h_stereo_44KHz.wav
1	12	1	1	1	C	1	1	1036	1	Ⴔ	cut_w_stereo_44KHz.wav
1	13	2	2	1	C	1	1	942	1	Ⴏ	cut_l_stereo_44KHz.wav
1	14	1	2	0	C	2	1	561	1	Ⴔ	cut_l_stereo_44KHz.wav
1	15	4	4	2	I	2	0	1081	0	Ⴕ	cut_g_stereo_44KHz.wav
1	16	3	4	2	I	1	0	784	0	Ⴉ	cut_g_stereo_44KHz.wav
1	17	2	1	0	C	2	1	852	1	Ⴏ	cut_w_stereo_44KHz.wav
1	18	3	3	2	I	2	0	819	1	Ⴉ	cut_h_stereo_44KHz.wav
1	19	4	4	2	I	1	0	1014	0	Ⴕ	cut_g_stereo_44KHz.wav
1	20	1	2	0	C	2	1	691	1	Ⴔ	cut_l_stereo_44KHz.wav
1	21	2	2	1	C	1	1	997	1	Ⴏ	cut_l_stereo_44KHz.wav
1	22	1	1	1	C	1	1	893	1	Ⴔ	cut_w_stereo_44KHz.wav
1	23	3	4	2	I	2	0	781	0	Ⴉ	cut_g_stereo_44KHz.wav
1	24	4	3	2	I	1	0	1047	0	Ⴕ	cut_h_stereo_44KHz.wav
1	25	2	2	1	C	1	1	990	1	Ⴏ	cut_l_stereo_44KHz.wav
1	26	4	4	2	I	2	0	710	1	Ⴕ	cut_g_stereo_44KHz.wav
1	27	3	4	2	I	1	0	926	1	Ⴉ	cut_g_stereo_44KHz.wav
1	28	1	1	1	C	1	1	1020	1	Ⴔ	cut_w_stereo_44KHz.wav
1	29	2	1	0	C	2	1	763	1	Ⴏ	cut_w_stereo_44KHz.wav
1	30	4	3	2	I	1	0	1124	1	Ⴕ	cut_h_stereo_44KHz.wav
1	31	3	3	2	I	2	0	926	1	Ⴉ	cut_h_stereo_44KHz.wav
1	32	1	2	0	C	2	1	921	1	Ⴔ	cut_l_stereo_44KHz.wav
1	33	4	3	2	I	1	0	826	0	Ⴕ	cut_h_stereo_44KHz.wav
1	34	3	3	2	I	2	0	983	0	Ⴉ	cut_h_stereo_44KHz.wav
1	35	2	1	0	C	2	1	741	1	Ⴏ	cut_w_stereo_44KHz.wav
1	36	1	2	0	C	2	1	639	1	Ⴔ	cut_l_stereo_44KHz.wav
1	37	3	4	2	I	1	0	965	0	Ⴉ	cut_g_stereo_44KHz.wav
1	38	4	4	2	I	2	0	1409	0	Ⴕ	cut_g_stereo_44KHz.wav
1	39	1	1	1	C	1	1	855	1	Ⴔ	cut_w_stereo_44KHz.wav
1	40	2	2	1	C	1	1	917	1	Ⴏ	cut_l_stereo_44KHz.wav
1	41	3	3	2	I	2	0	1067	1	Ⴉ	cut_h_stereo_44KHz.wav
1	42	2	1	0	C	2	1	812	1	Ⴏ	cut_w_stereo_44KHz.wav
1	43	1	1	1	C	1	1	742	1	Ⴔ	cut_w_stereo_44KHz.wav
1	44	4	3	2	I	2	0	585	1	Ⴕ	cut_h_stereo_44KHz.wav
1	45	2	2	1	C	1	1	1045	1	Ⴏ	cut_l_stereo_44KHz.wav
1	46	3	4	2	I	2	0	966	0	Ⴉ	cut_g_stereo_44KHz.wav
1	47	1	2	0	C	2	1	1111	1	Ⴔ	cut_l_stereo_44KHz.wav
1	48	4	4	2	I	2	0	892	1	Ⴕ	cut_g_stereo_44KHz.wav
1	49	3	3	2	I	2	0	733	1	Ⴉ	cut_h_stereo_44KHz.wav
1	50	1	2	0	C	2	1	702	1	Ⴔ	cut_l_stereo_44KHz.wav
1	51	2	1	0	C	2	1	693	1	Ⴏ	cut_w_stereo_44KHz.wav
1	52	4	3	2	I	2	0	836	0	Ⴕ	cut_h_stereo_44KHz.wav
1	53	1	1	1	C	1	1	872	1	Ⴔ	cut_w_stereo_44KHz.wav
1	54	3	4	2	I	2	0	1587	1	Ⴉ	cut_g_stereo_44KHz.wav
1	55	2	2	1	C	1	1	1130	1	Ⴏ	cut_l_stereo_44KHz.wav
1	56	4	4	2	I	2	0	714	1	Ⴕ	cut_g_stereo_44KHz.wav
1	57	3	4	2	I	2	0	639	0	Ⴉ	cut_g_stereo_44KHz.wav
1	58	4	3	2	I	1	0	1052	0	Ⴕ	cut_h_stereo_44KHz.wav
1	59	1	1	1	C	1	1	986	1	Ⴔ	cut_w_stereo_44KHz.wav
1	60	2	2	1	C	2	0	864	0	Ⴏ	cut_l_stereo_44KHz.wav
1	61	4	4	2	I	2	0	1220	1	Ⴕ	cut_g_stereo_44KHz.wav
1	62	1	2	0	C	2	1	867	1	Ⴔ	cut_l_stereo_44KHz.wav
1	63	2	1	0	C	2	1	694	1	Ⴏ	cut_w_stereo_44KHz.wav
1	64	3	3	2	I	2	0	1007	0	Ⴉ	cut_h_stereo_44KHz.wav
1	65	2	1	0	C	2	1	731	1	Ⴏ	cut_w_stereo_44KHz.wav
1	66	1	1	1	C	1	1	807	1	Ⴔ	cut_w_stereo_44KHz.wav
1	67	4	3	2	I	2	0	879	1	Ⴕ	cut_h_stereo_44KHz.wav
1	68	3	3	2	I	2	0	740	0	Ⴉ	cut_h_stereo_44KHz.wav
1	69	2	2	1	C	1	1	937	1	Ⴏ	cut_l_stereo_44KHz.wav
1	70	1	2	0	C	2	1	770	1	Ⴔ	cut_l_stereo_44KHz.wav
1	71	3	4	2	I	2	0	1096	0	Ⴉ	cut_g_stereo_44KHz.wav
1	72	4	4	2	I	2	0	663	1	Ⴕ	cut_g_stereo_44KHz.wav
1	73	3	4	2	I	1	0	894	0	Ⴉ	cut_g_stereo_44KHz.wav
1	74	4	4	2	I	2	0	1222	0	Ⴕ	cut_g_stereo_44KHz.wav
1	75	2	2	1	C	1	1	1690	1	Ⴏ	cut_l_stereo_44KHz.wav
1	76	1	1	1	C	1	1	868	1	Ⴔ	cut_w_stereo_44KHz.wav
1	77	2	1	0	C	2	1	802	1	Ⴏ	cut_w_stereo_44KHz.wav
1	78	3	3	2	I	2	0	657	1	Ⴉ	cut_h_stereo_44KHz.wav
1	79	4	3	2	I	1	0	458	0	Ⴕ	cut_h_stereo_44KHz.wav
1	80	1	2	0	C	2	1	800	1	Ⴔ	cut_l_stereo_44KHz.wav
1	81	4	3	2	I	1	0	1301	1	Ⴕ	cut_h_stereo_44KHz.wav
1	82	3	3	2	I	1	0	1166	0	Ⴉ	cut_h_stereo_44KHz.wav
1	83	2	2	1	C	1	1	899	1	Ⴏ	cut_l_stereo_44KHz.wav
1	84	1	1	1	C	1	1	782	1	Ⴔ	cut_w_stereo_44KHz.wav
1	85	3	4	2	I	0	0	0	0	Ⴉ	cut_g_stereo_44KHz.wav
1	86	2	1	0	C	2	1	760	1	Ⴏ	cut_w_stereo_44KHz.wav
1	87	4	4	2	I	2	0	1025	1	Ⴕ	cut_g_stereo_44KHz.wav
1	88	1	2	0	C	2	1	1084	1	Ⴔ	cut_l_stereo_44KHz.wav
1	89	4	4	2	I	2	0	708	1	Ⴕ	cut_g_stereo_44KHz.wav
1	90	1	2	0	C	2	1	1061	1	Ⴔ	cut_l_stereo_44KHz.wav
1	91	3	4	2	I	2	0	1267	1	Ⴉ	cut_g_stereo_44KHz.wav
1	92	2	1	0	C	2	1	1001	1	Ⴏ	cut_w_stereo_44KHz.wav
1	93	4	3	2	I	1	0	1046	0	Ⴕ	cut_h_stereo_44KHz.wav
1	94	1	1	1	C	1	1	990	1	Ⴔ	cut_w_stereo_44KHz.wav
1	95	3	3	2	I	2	0	763	0	Ⴉ	cut_h_stereo_44KHz.wav
1	96	2	2	1	C	1	1	929	1	Ⴏ	cut_l_stereo_44KHz.wav
1	97	4	3	2	I	1	0	1011	1	Ⴕ	cut_h_stereo_44KHz.wav
1	98	3	3	2	I	2	0	766	1	Ⴉ	cut_h_stereo_44KHz.wav
1	99	2	1	0	C	2	1	779	1	Ⴏ	cut_w_stereo_44KHz.wav
1	100	1	2	0	C	2	1	604	1	Ⴔ	cut_l_stereo_44KHz.wav
1	101	3	4	2	I	2	0	1194	0	Ⴉ	cut_g_stereo_44KHz.wav
1	102	4	4	2	I	2	0	667	1	Ⴕ	cut_g_stereo_44KHz.wav
1	103	1	1	1	C	1	1	834	1	Ⴔ	cut_w_stereo_44KHz.wav
1	104	2	2	1	C	1	1	1033	1	Ⴏ	cut_l_stereo_44KHz.wav
1	105	3	4	2	I	2	0	739	0	Ⴉ	cut_g_stereo_44KHz.wav
1	106	1	1	1	C	1	1	728	1	Ⴔ	cut_w_stereo_44KHz.wav
1	107	4	3	2	I	1	0	1387	0	Ⴕ	cut_h_stereo_44KHz.wav
1	108	2	2	1	C	1	1	924	1	Ⴏ	cut_l_stereo_44KHz.wav
1	109	3	3	2	I	2	0	961	1	Ⴉ	cut_h_stereo_44KHz.wav
1	110	2	1	0	C	2	1	1141	1	Ⴏ	cut_w_stereo_44KHz.wav
1	111	4	4	2	I	2	0	748	1	Ⴕ	cut_g_stereo_44KHz.wav
1	112	1	2	0	C	1	0	799	0	Ⴔ	cut_l_stereo_44KHz.wav
1	113	2	1	0	C	2	1	688	1	Ⴏ	cut_w_stereo_44KHz.wav
1	114	1	2	0	C	2	1	889	1	Ⴔ	cut_l_stereo_44KHz.wav
1	115	4	4	2	I	2	0	746	1	Ⴕ	cut_g_stereo_44KHz.wav
1	116	3	3	2	I	2	0	982	0	Ⴉ	cut_h_stereo_44KHz.wav
1	117	1	1	1	C	1	1	704	1	Ⴔ	cut_w_stereo_44KHz.wav
1	118	2	2	1	C	1	1	642	1	Ⴏ	cut_l_stereo_44KHz.wav
1	119	3	4	2	I	2	0	721	1	Ⴉ	cut_g_stereo_44KHz.wav
1	120	4	3	2	I	2	0	826	0	Ⴕ	cut_h_stereo_44KHz.wav
1	121	1	2	0	C	2	1	713	1	Ⴔ	cut_l_stereo_44KHz.wav
1	122	2	2	1	C	1	1	732	1	Ⴏ	cut_l_stereo_44KHz.wav
1	123	3	3	2	I	2	0	788	1	Ⴉ	cut_h_stereo_44KHz.wav
1	124	4	3	2	I	1	0	1003	1	Ⴕ	cut_h_stereo_44KHz.wav
1	125	2	1	0	C	2	1	663	1	Ⴏ	cut_w_stereo_44KHz.wav
1	126	1	1	1	C	1	1	721	1	Ⴔ	cut_w_stereo_44KHz.wav
1	127	3	4	2	I	2	0	1175	1	Ⴉ	cut_g_stereo_44KHz.wav
1	128	4	4	2	I	1	0	1251	1	Ⴕ	cut_g_stereo_44KHz.wav
1	129	3	3	2	I	2	0	1300	1	Ⴉ	cut_h_stereo_44KHz.wav
1	130	4	4	2	I	2	0	1389	0	Ⴕ	cut_g_stereo_44KHz.wav
1	131	2	1	0	C	2	1	726	1	Ⴏ	cut_w_stereo_44KHz.wav
1	132	1	2	0	C	2	1	881	1	Ⴔ	cut_l_stereo_44KHz.wav
1	133	4	3	2	I	2	0	778	1	Ⴕ	cut_h_stereo_44KHz.wav
1	134	2	2	1	C	1	1	897	1	Ⴏ	cut_l_stereo_44KHz.wav
1	135	1	1	1	C	1	1	762	1	Ⴔ	cut_w_stereo_44KHz.wav
1	136	3	4	2	I	2	0	849	0	Ⴉ	cut_g_stereo_44KHz.wav
1	137	2	1	0	C	2	1	761	1	Ⴏ	cut_w_stereo_44KHz.wav
1	138	1	1	1	C	1	1	655	1	Ⴔ	cut_w_stereo_44KHz.wav
1	139	4	3	2	I	2	0	1073	1	Ⴕ	cut_h_stereo_44KHz.wav
1	140	3	4	2	I	2	0	1041	1	Ⴉ	cut_g_stereo_44KHz.wav
1	141	2	2	1	C	1	1	886	1	Ⴏ	cut_l_stereo_44KHz.wav
1	142	3	3	2	I	2	0	939	1	Ⴉ	cut_h_stereo_44KHz.wav
1	143	1	2	0	C	2	1	828	1	Ⴔ	cut_l_stereo_44KHz.wav
1	144	4	4	2	I	1	0	1136	0	Ⴕ	cut_g_stereo_44KHz.wav
1	145	2	1	0	C	2	1	698	1	Ⴏ	cut_w_stereo_44KHz.wav
1	146	3	3	2	I	2	0	870	0	Ⴉ	cut_h_stereo_44KHz.wav
1	147	1	2	0	C	2	1	668	1	Ⴔ	cut_l_stereo_44KHz.wav
1	148	4	3	2	I	1	0	1029	0	Ⴕ	cut_h_stereo_44KHz.wav
1	149	2	2	1	C	1	1	892	1	Ⴏ	cut_l_stereo_44KHz.wav
1	150	4	4	2	I	2	0	768	0	Ⴕ	cut_g_stereo_44KHz.wav
1	151	1	1	1	C	1	1	818	1	Ⴔ	cut_w_stereo_44KHz.wav
1	152	3	4	2	I	2	0	894	0	Ⴉ	cut_g_stereo_44KHz.wav
1	153	4	3	2	I	1	0	854	1	Ⴕ	cut_h_stereo_44KHz.wav
1	154	3	3	2	I	1	0	950	0	Ⴉ	cut_h_stereo_44KHz.wav
1	155	1	1	1	C	1	1	910	1	Ⴔ	cut_w_stereo_44KHz.wav
1	156	2	1	0	C	2	1	666	1	Ⴏ	cut_w_stereo_44KHz.wav
1	157	1	2	0	C	2	1	1012	1	Ⴔ	cut_l_stereo_44KHz.wav
1	158	4	4	2	I	1	0	1036	0	Ⴕ	cut_g_stereo_44KHz.wav
1	159	3	4	2	I	2	0	1542	1	Ⴉ	cut_g_stereo_44KHz.wav
1	160	2	2	1	C	1	1	921	1	Ⴏ	cut_l_stereo_44KHz.wav
1	161	3	4	2	I	1	0	1326	1	Ⴉ	cut_g_stereo_44KHz.wav
1	162	4	3	2	I	2	0	1000	1	Ⴕ	cut_h_stereo_44KHz.wav
1	163	1	2	0	C	2	1	777	1	Ⴔ	cut_l_stereo_44KHz.wav
1	164	2	1	0	C	2	1	669	1	Ⴏ	cut_w_stereo_44KHz.wav
1	165	1	1	1	C	1	1	634	1	Ⴔ	cut_w_stereo_44KHz.wav
1	166	2	2	1	C	1	1	685	1	Ⴏ	cut_l_stereo_44KHz.wav
1	167	3	3	2	I	1	0	816	1	Ⴉ	cut_h_stereo_44KHz.wav
1	168	4	4	2	I	2	0	847	0	Ⴕ	cut_g_stereo_44KHz.wav
1	169	3	3	2	I	2	0	805	0	Ⴉ	cut_h_stereo_44KHz.wav
1	170	4	3	2	I	1	0	888	0	Ⴕ	cut_h_stereo_44KHz.wav
1	171	1	2	0	C	2	1	669	1	Ⴔ	cut_l_stereo_44KHz.wav
1	172	2	1	0	C	1	0	549	0	Ⴏ	cut_w_stereo_44KHz.wav
1	173	1	1	1	C	1	1	825	1	Ⴔ	cut_w_stereo_44KHz.wav
1	174	4	4	2	I	2	0	714	1	Ⴕ	cut_g_stereo_44KHz.wav
1	175	3	4	2	I	2	0	1017	1	Ⴉ	cut_g_stereo_44KHz.wav
1	176	2	2	1	C	1	1	860	1	Ⴏ	cut_l_stereo_44KHz.wav
1	177	3	4	2	I	1	0	1200	1	Ⴉ	cut_g_stereo_44KHz.wav
1	178	1	1	1	C	1	1	1032	1	Ⴔ	cut_w_stereo_44KHz.wav
1	179	2	2	1	C	1	1	784	1	Ⴏ	cut_l_stereo_44KHz.wav
1	180	4	4	2	I	1	0	1042	0	Ⴕ	cut_g_stereo_44KHz.wav
1	181	2	1	0	C	2	1	696	1	Ⴏ	cut_w_stereo_44KHz.wav
1	182	3	3	2	I	1	0	911	0	Ⴉ	cut_h_stereo_44KHz.wav
1	183	1	2	0	C	2	1	758	1	Ⴔ	cut_l_stereo_44KHz.wav
1	184	4	3	2	I	1	0	850	0	Ⴕ	cut_h_stereo_44KHz.wav
1	185	3	3	2	I	2	0	659	0	Ⴉ	cut_h_stereo_44KHz.wav
1	186	4	3	2	I	2	0	735	1	Ⴕ	cut_h_stereo_44KHz.wav
1	187	1	2	0	C	2	1	696	1	Ⴔ	cut_l_stereo_44KHz.wav
1	188	2	1	0	C	1	0	776	0	Ⴏ	cut_w_stereo_44KHz.wav
1	189	1	1	1	C	1	1	853	1	Ⴔ	cut_w_stereo_44KHz.wav
1	190	3	4	2	I	1	0	1245	1	Ⴉ	cut_g_stereo_44KHz.wav
1	191	4	4	2	I	1	0	1100	0	Ⴕ	cut_g_stereo_44KHz.wav
1	192	2	2	1	C	1	1	1449	1	Ⴏ	cut_l_stereo_44KHz.wav
1	193	1	1	1	C	2	0	697	0	Ⴔ	cut_w_stereo_44KHz.wav
1	194	2	1	0	C	2	1	638	1	Ⴏ	cut_w_stereo_44KHz.wav
1	195	3	4	2	I	1	0	1039	1	Ⴉ	cut_g_stereo_44KHz.wav
1	196	4	4	2	I	2	0	789	1	Ⴕ	cut_g_stereo_44KHz.wav
1	197	2	2	1	C	1	1	1093	1	Ⴏ	cut_l_stereo_44KHz.wav
1	198	4	3	2	I	2	0	810	0	Ⴕ	cut_h_stereo_44KHz.wav
1	199	1	2	0	C	2	1	860	1	Ⴔ	cut_l_stereo_44KHz.wav
1	200	3	3	2	I	2	0	811	0	Ⴉ	cut_h_stereo_44KHz.wav
2	1	2	1	0	C	2	1	1099	1	Ⴇ	cut_r_stereo_44KHz.wav
2	2	1	1	1	C	1	1	770	1	Ⴂ	cut_r_stereo_44KHz.wav
2	3	4	4	2	I	1	0	658	0	Ⴁ	cut_oei_stereo_44KHz.wav
2	4	3	4	2	I	1	0	685	0	Ⴃ	cut_oei_stereo_44KHz.wav
2	5	4	3	2	I	1	0	1143	1	Ⴁ	cut_ei_stereo_44KHz.wav
2	6	3	3	2	I	2	0	603	0	Ⴃ	cut_ei_stereo_44KHz.wav
2	7	2	2	1	C	1	1	729	1	Ⴇ	cut_j_stereo_44KHz.wav
2	8	1	2	0	C	2	1	651	1	Ⴂ	cut_j_stereo_44KHz.wav
2	9	4	3	2	I	1	0	1123	1	Ⴁ	cut_ei_stereo_44KHz.wav
2	10	3	3	2	I	1	0	735	0	Ⴃ	cut_ei_stereo_44KHz.wav
2	11	1	1	1	C	1	1	812	1	Ⴂ	cut_r_stereo_44KHz.wav
2	12	2	1	0	C	2	1	582	1	Ⴇ	cut_r_stereo_44KHz.wav
2	13	1	2	0	C	2	1	896	1	Ⴂ	cut_j_stereo_44KHz.wav
2	14	4	4	2	I	2	0	797	0	Ⴁ	cut_oei_stereo_44KHz.wav
2	15	2	2	1	C	1	1	843	1	Ⴇ	cut_j_stereo_44KHz.wav
2	16	3	4	2	I	2	0	683	1	Ⴃ	cut_oei_stereo_44KHz.wav
2	17	4	3	2	I	1	0	691	1	Ⴁ	cut_ei_stereo_44KHz.wav
2	18	2	1	0	C	2	1	718	1	Ⴇ	cut_r_stereo_44KHz.wav
2	19	3	4	2	I	2	0	838	1	Ⴃ	cut_oei_stereo_44KHz.wav
2	20	1	2	0	C	2	1	678	1	Ⴂ	cut_j_stereo_44KHz.wav
2	21	3	3	2	I	1	0	716	0	Ⴃ	cut_ei_stereo_44KHz.wav
2	22	2	2	1	C	1	1	1076	1	Ⴇ	cut_j_stereo_44KHz.wav
2	23	1	1	1	C	1	1	819	1	Ⴂ	cut_r_stereo_44KHz.wav
2	24	4	4	2	I	1	0	782	1	Ⴁ	cut_oei_stereo_44KHz.wav
2	25	3	4	2	I	2	0	592	1	Ⴃ	cut_oei_stereo_44KHz.wav
2	26	1	1	1	C	1	1	853	1	Ⴂ	cut_r_stereo_44KHz.wav
2	27	4	3	2	I	2	0	1019	0	Ⴁ	cut_ei_stereo_44KHz.wav
2	28	2	2	1	C	1	1	700	1	Ⴇ	cut_j_stereo_44KHz.wav
2	29	1	2	0	C	2	1	796	1	Ⴂ	cut_j_stereo_44KHz.wav
2	30	2	1	0	C	1	0	726	0	Ⴇ	cut_r_stereo_44KHz.wav
2	31	3	3	2	I	1	0	994	0	Ⴃ	cut_ei_stereo_44KHz.wav
2	32	4	4	2	I	1	0	966	1	Ⴁ	cut_oei_stereo_44KHz.wav
2	33	2	2	1	C	1	1	793	1	Ⴇ	cut_j_stereo_44KHz.wav
2	34	3	4	2	I	2	0	854	1	Ⴃ	cut_oei_stereo_44KHz.wav
2	35	1	2	0	C	2	1	682	1	Ⴂ	cut_j_stereo_44KHz.wav
2	36	4	4	2	I	1	0	737	0	Ⴁ	cut_oei_stereo_44KHz.wav
2	37	2	1	0	C	2	1	776	1	Ⴇ	cut_r_stereo_44KHz.wav
2	38	1	1	1	C	1	1	911	1	Ⴂ	cut_r_stereo_44KHz.wav
2	39	4	3	2	I	2	0	1139	0	Ⴁ	cut_ei_stereo_44KHz.wav
2	40	3	3	2	I	1	0	1138	0	Ⴃ	cut_ei_stereo_44KHz.wav
2	41	4	3	2	I	2	0	1083	1	Ⴁ	cut_ei_stereo_44KHz.wav
2	42	1	2	0	C	2	1	1600	1	Ⴂ	cut_j_stereo_44KHz.wav
2	43	2	2	1	C	1	1	797	1	Ⴇ	cut_j_stereo_44KHz.wav
2	44	3	3	2	I	1	0	998	1	Ⴃ	cut_ei_stereo_44KHz.wav
2	45	2	1	0	C	2	1	806	1	Ⴇ	cut_r_stereo_44KHz.wav
2	46	4	4	2	I	1	0	964	1	Ⴁ	cut_oei_stereo_44KHz.wav
2	47	1	1	1	C	1	1	828	1	Ⴂ	cut_r_stereo_44KHz.wav
2	48	3	4	2	I	2	0	658	1	Ⴃ	cut_oei_stereo_44KHz.wav
2	49	1	1	1	C	1	1	700	1	Ⴂ	cut_r_stereo_44KHz.wav
2	50	4	3	2	I	2	0	778	1	Ⴁ	cut_ei_stereo_44KHz.wav
2	51	3	3	2	I	2	0	559	0	Ⴃ	cut_ei_stereo_44KHz.wav
2	52	2	1	0	C	2	1	1005	1	Ⴇ	cut_r_stereo_44KHz.wav
2	53	4	4	2	I	1	0	856	0	Ⴁ	cut_oei_stereo_44KHz.wav
2	54	3	4	2	I	2	0	573	1	Ⴃ	cut_oei_stereo_44KHz.wav
2	55	1	2	0	C	2	1	812	1	Ⴂ	cut_j_stereo_44KHz.wav
2	56	2	2	1	C	1	1	687	1	Ⴇ	cut_j_stereo_44KHz.wav
2	57	4	4	2	I	2	0	847	0	Ⴁ	cut_oei_stereo_44KHz.wav
2	58	2	2	1	C	1	1	873	1	Ⴇ	cut_j_stereo_44KHz.wav
2	59	1	2	0	C	2	1	738	1	Ⴂ	cut_j_stereo_44KHz.wav
2	60	3	3	2	I	1	0	851	1	Ⴃ	cut_ei_stereo_44KHz.wav
2	61	1	1	1	C	1	1	886	1	Ⴂ	cut_r_stereo_44KHz.wav
2	62	4	3	2	I	2	0	586	0	Ⴁ	cut_ei_stereo_44KHz.wav
2	63	2	1	0	C	2	1	773	1	Ⴇ	cut_r_stereo_44KHz.wav
2	64	3	4	2	I	2	0	808	1	Ⴃ	cut_oei_stereo_44KHz.wav
2	65	1	2	0	C	2	1	725	1	Ⴂ	cut_j_stereo_44KHz.wav
2	66	3	3	2	I	2	0	995	1	Ⴃ	cut_ei_stereo_44KHz.wav
2	67	4	4	2	I	2	0	939	1	Ⴁ	cut_oei_stereo_44KHz.wav
2	68	2	2	1	C	1	1	740	1	Ⴇ	cut_j_stereo_44KHz.wav
2	69	4	3	2	I	1	0	1125	1	Ⴁ	cut_ei_stereo_44KHz.wav
2	70	3	4	2	I	2	0	746	0	Ⴃ	cut_oei_stereo_44KHz.wav
2	71	2	1	0	C	2	1	663	1	Ⴇ	cut_r_stereo_44KHz.wav
2	72	1	1	1	C	1	1	649	1	Ⴂ	cut_r_stereo_44KHz.wav
2	73	2	2	1	C	1	1	819	1	Ⴇ	cut_j_stereo_44KHz.wav
2	74	4	3	2	I	1	0	1308	0	Ⴁ	cut_ei_stereo_44KHz.wav
2	75	3	4	2	I	2	0	1010	0	Ⴃ	cut_oei_stereo_44KHz.wav
2	76	1	2	0	C	2	1	745	1	Ⴂ	cut_j_stereo_44KHz.wav
2	77	4	4	2	I	1	0	678	0	Ⴁ	cut_oei_stereo_44KHz.wav
2	78	1	1	1	C	1	1	827	1	Ⴂ	cut_r_stereo_44KHz.wav
2	79	2	1	0	C	2	1	680	1	Ⴇ	cut_r_stereo_44KHz.wav
2	80	3	3	2	I	1	0	678	1	Ⴃ	cut_ei_stereo_44KHz.wav
2	81	2	2	1	C	1	1	992	1	Ⴇ	cut_j_stereo_44KHz.wav
2	82	4	3	2	I	1	0	866	0	Ⴁ	cut_ei_stereo_44KHz.wav
2	83	3	4	2	I	2	0	1108	1	Ⴃ	cut_oei_stereo_44KHz.wav
2	84	1	2	0	C	2	1	663	1	Ⴂ	cut_j_stereo_44KHz.wav
2	85	4	4	2	I	1	0	1096	0	Ⴁ	cut_oei_stereo_44KHz.wav
2	86	3	3	2	I	2	0	1160	0	Ⴃ	cut_ei_stereo_44KHz.wav
2	87	2	1	0	C	2	1	884	1	Ⴇ	cut_r_stereo_44KHz.wav
2	88	1	1	1	C	1	1	718	1	Ⴂ	cut_r_stereo_44KHz.wav
2	89	4	3	2	I	2	0	1671	1	Ⴁ	cut_ei_stereo_44KHz.wav
2	90	3	3	2	I	2	0	992	1	Ⴃ	cut_ei_stereo_44KHz.wav
2	91	2	1	0	C	2	1	669	1	Ⴇ	cut_r_stereo_44KHz.wav
2	92	1	1	1	C	1	1	684	1	Ⴂ	cut_r_stereo_44KHz.wav
2	93	3	4	2	I	2	0	807	0	Ⴃ	cut_oei_stereo_44KHz.wav
2	94	1	2	0	C	2	1	777	1	Ⴂ	cut_j_stereo_44KHz.wav
2	95	2	2	1	C	1	1	871	1	Ⴇ	cut_j_stereo_44KHz.wav
2	96	4	4	2	I	2	0	1205	1	Ⴁ	cut_oei_stereo_44KHz.wav
2	97	2	1	0	C	2	1	708	1	Ⴇ	cut_r_stereo_44KHz.wav
2	98	3	3	2	I	2	0	1113	1	Ⴃ	cut_ei_stereo_44KHz.wav
2	99	4	3	2	I	2	0	1261	0	Ⴁ	cut_ei_stereo_44KHz.wav
2	100	1	2	0	C	2	1	649	1	Ⴂ	cut_j_stereo_44KHz.wav
2	101	4	4	2	I	1	0	1172	0	Ⴁ	cut_oei_stereo_44KHz.wav
2	102	3	4	2	I	2	0	615	0	Ⴃ	cut_oei_stereo_44KHz.wav
2	103	1	1	1	C	1	1	919	1	Ⴂ	cut_r_stereo_44KHz.wav
2	104	2	2	1	C	1	1	812	1	Ⴇ	cut_j_stereo_44KHz.wav
2	105	3	3	2	I	1	0	1032	1	Ⴃ	cut_ei_stereo_44KHz.wav
2	106	1	1	1	C	1	1	775	1	Ⴂ	cut_r_stereo_44KHz.wav
2	107	2	1	0	C	2	1	663	1	Ⴇ	cut_r_stereo_44KHz.wav
2	108	4	3	2	I	2	0	1119	0	Ⴁ	cut_ei_stereo_44KHz.wav
2	109	1	2	0	C	2	1	927	1	Ⴂ	cut_j_stereo_44KHz.wav
2	110	4	4	2	I	1	0	1110	1	Ⴁ	cut_oei_stereo_44KHz.wav
2	111	2	2	1	C	1	1	824	1	Ⴇ	cut_j_stereo_44KHz.wav
2	112	3	4	2	I	2	0	673	1	Ⴃ	cut_oei_stereo_44KHz.wav
2	113	4	4	2	I	2	0	894	0	Ⴁ	cut_oei_stereo_44KHz.wav
2	114	3	4	2	I	2	0	1097	1	Ⴃ	cut_oei_stereo_44KHz.wav
2	115	2	1	0	C	2	1	636	1	Ⴇ	cut_r_stereo_44KHz.wav
2	116	1	2	0	C	2	1	708	1	Ⴂ	cut_j_stereo_44KHz.wav
2	117	2	2	1	C	1	1	701	1	Ⴇ	cut_j_stereo_44KHz.wav
2	118	3	3	2	I	2	0	1203	1	Ⴃ	cut_ei_stereo_44KHz.wav
2	119	1	1	1	C	1	1	780	1	Ⴂ	cut_r_stereo_44KHz.wav
2	120	4	3	2	I	2	0	850	1	Ⴁ	cut_ei_stereo_44KHz.wav
2	121	1	2	0	C	2	1	751	1	Ⴂ	cut_j_stereo_44KHz.wav
2	122	2	2	1	C	1	1	697	1	Ⴇ	cut_j_stereo_44KHz.wav
2	123	3	3	2	I	2	0	1083	0	Ⴃ	cut_ei_stereo_44KHz.wav
2	124	4	3	2	I	1	0	721	1	Ⴁ	cut_ei_stereo_44KHz.wav
2	125	3	4	2	I	2	0	1383	1	Ⴃ	cut_oei_stereo_44KHz.wav
2	126	1	1	1	C	1	1	718	1	Ⴂ	cut_r_stereo_44KHz.wav
2	127	4	4	2	I	2	0	703	0	Ⴁ	cut_oei_stereo_44KHz.wav
2	128	2	1	0	C	2	1	678	1	Ⴇ	cut_r_stereo_44KHz.wav
2	129	1	1	1	C	1	1	638	1	Ⴂ	cut_r_stereo_44KHz.wav
2	130	4	4	2	I	1	0	1323	0	Ⴁ	cut_oei_stereo_44KHz.wav
2	131	3	3	2	I	2	0	805	0	Ⴃ	cut_ei_stereo_44KHz.wav
2	132	2	2	1	C	1	1	751	1	Ⴇ	cut_j_stereo_44KHz.wav
2	133	1	2	0	C	2	1	974	1	Ⴂ	cut_j_stereo_44KHz.wav
2	134	2	1	0	C	2	1	730	1	Ⴇ	cut_r_stereo_44KHz.wav
2	135	4	3	2	I	2	0	961	0	Ⴁ	cut_ei_stereo_44KHz.wav
2	136	3	4	2	I	2	0	753	0	Ⴃ	cut_oei_stereo_44KHz.wav
2	137	4	4	2	I	2	0	704	1	Ⴁ	cut_oei_stereo_44KHz.wav
2	138	3	4	2	I	2	0	1180	0	Ⴃ	cut_oei_stereo_44KHz.wav
2	139	1	2	0	C	2	1	651	1	Ⴂ	cut_j_stereo_44KHz.wav
2	140	2	1	0	C	2	1	652	1	Ⴇ	cut_r_stereo_44KHz.wav
2	141	1	1	1	C	1	1	822	1	Ⴂ	cut_r_stereo_44KHz.wav
2	142	4	3	2	I	2	0	543	1	Ⴁ	cut_ei_stereo_44KHz.wav
2	143	3	3	2	I	2	0	690	0	Ⴃ	cut_ei_stereo_44KHz.wav
2	144	2	2	1	C	1	1	749	1	Ⴇ	cut_j_stereo_44KHz.wav
2	145	3	4	2	I	2	0	691	1	Ⴃ	cut_oei_stereo_44KHz.wav
2	146	2	1	0	C	2	1	783	1	Ⴇ	cut_r_stereo_44KHz.wav
2	147	1	2	0	C	2	1	802	1	Ⴂ	cut_j_stereo_44KHz.wav
2	148	4	3	2	I	1	0	640	1	Ⴁ	cut_ei_stereo_44KHz.wav
2	149	2	2	1	C	1	1	737	1	Ⴇ	cut_j_stereo_44KHz.wav
2	150	3	3	2	I	2	0	657	0	Ⴃ	cut_ei_stereo_44KHz.wav
2	151	1	1	1	C	1	1	907	1	Ⴂ	cut_r_stereo_44KHz.wav
2	152	4	4	2	I	2	0	749	1	Ⴁ	cut_oei_stereo_44KHz.wav
2	153	3	3	2	I	2	0	1020	0	Ⴃ	cut_ei_stereo_44KHz.wav
2	154	2	1	0	C	2	1	576	1	Ⴇ	cut_r_stereo_44KHz.wav
2	155	4	3	2	I	2	0	1199	0	Ⴁ	cut_ei_stereo_44KHz.wav
2	156	1	1	1	C	1	1	977	1	Ⴂ	cut_r_stereo_44KHz.wav
2	157	2	2	1	C	1	1	700	1	Ⴇ	cut_j_stereo_44KHz.wav
2	158	3	4	2	I	2	0	1331	0	Ⴃ	cut_oei_stereo_44KHz.wav
2	159	4	4	2	I	2	0	930	0	Ⴁ	cut_oei_stereo_44KHz.wav
2	160	1	2	0	C	2	1	699	1	Ⴂ	cut_j_stereo_44KHz.wav
2	161	4	4	2	I	1	0	1257	1	Ⴁ	cut_oei_stereo_44KHz.wav
2	162	2	2	1	C	1	1	725	1	Ⴇ	cut_j_stereo_44KHz.wav
2	163	3	3	2	I	2	0	1163	0	Ⴃ	cut_ei_stereo_44KHz.wav
2	164	1	1	1	C	1	1	704	1	Ⴂ	cut_r_stereo_44KHz.wav
2	165	4	3	2	I	2	0	1155	1	Ⴁ	cut_ei_stereo_44KHz.wav
2	166	2	1	0	C	2	1	932	1	Ⴇ	cut_r_stereo_44KHz.wav
2	167	1	2	0	C	2	1	835	1	Ⴂ	cut_j_stereo_44KHz.wav
2	168	3	4	2	I	1	0	890	0	Ⴃ	cut_oei_stereo_44KHz.wav
2	169	2	1	0	C	2	1	767	1	Ⴇ	cut_r_stereo_44KHz.wav
2	170	3	4	2	I	2	0	1129	1	Ⴃ	cut_oei_stereo_44KHz.wav
2	171	1	1	1	C	1	1	901	1	Ⴂ	cut_r_stereo_44KHz.wav
2	172	4	4	2	I	2	0	1007	0	Ⴁ	cut_oei_stereo_44KHz.wav
2	173	2	2	1	C	1	1	757	1	Ⴇ	cut_j_stereo_44KHz.wav
2	174	1	2	0	C	2	1	721	1	Ⴂ	cut_j_stereo_44KHz.wav
2	175	4	3	2	I	2	0	905	1	Ⴁ	cut_ei_stereo_44KHz.wav
2	176	3	3	2	I	1	0	948	1	Ⴃ	cut_ei_stereo_44KHz.wav
2	177	4	4	2	I	2	0	923	0	Ⴁ	cut_oei_stereo_44KHz.wav
2	178	3	4	2	I	1	0	401	0	Ⴃ	cut_oei_stereo_44KHz.wav
2	179	2	1	0	C	2	1	731	1	Ⴇ	cut_r_stereo_44KHz.wav
2	180	1	2	0	C	2	1	632	1	Ⴂ	cut_j_stereo_44KHz.wav
2	181	3	3	2	I	2	0	1113	0	Ⴃ	cut_ei_stereo_44KHz.wav
2	182	1	1	1	C	1	1	819	1	Ⴂ	cut_r_stereo_44KHz.wav
2	183	4	3	2	I	2	0	1197	0	Ⴁ	cut_ei_stereo_44KHz.wav
2	184	2	2	1	C	1	1	736	1	Ⴇ	cut_j_stereo_44KHz.wav
2	185	4	4	2	I	1	0	1123	0	Ⴁ	cut_oei_stereo_44KHz.wav
2	186	3	3	2	I	1	0	1171	1	Ⴃ	cut_ei_stereo_44KHz.wav
2	187	1	2	0	C	2	1	748	1	Ⴂ	cut_j_stereo_44KHz.wav
2	188	2	1	0	C	2	1	808	1	Ⴇ	cut_r_stereo_44KHz.wav
2	189	4	3	2	I	1	0	968	1	Ⴁ	cut_ei_stereo_44KHz.wav
2	190	1	1	1	C	1	1	959	1	Ⴂ	cut_r_stereo_44KHz.wav
2	191	2	2	1	C	1	1	818	1	Ⴇ	cut_j_stereo_44KHz.wav
2	192	3	4	2	I	2	0	1206	1	Ⴃ	cut_oei_stereo_44KHz.wav
2	193	4	3	2	I	1	0	866	1	Ⴁ	cut_ei_stereo_44KHz.wav
2	194	1	1	1	C	1	1	741	1	Ⴂ	cut_r_stereo_44KHz.wav
2	195	3	3	2	I	1	0	1085	0	Ⴃ	cut_ei_stereo_44KHz.wav
2	196	2	1	0	C	2	1	665	1	Ⴇ	cut_r_stereo_44KHz.wav
2	197	1	2	0	C	2	1	764	1	Ⴂ	cut_j_stereo_44KHz.wav
2	198	2	2	1	C	1	1	916	1	Ⴇ	cut_j_stereo_44KHz.wav
2	199	3	4	2	I	2	0	583	1	Ⴃ	cut_oei_stereo_44KHz.wav
2	200	4	4	2	I	1	0	1007	1	Ⴁ	cut_oei_stereo_44KHz.wav
3	1	1	2	0	C	2	1	1001	1	Ⴖ	cut_o_stereo_44KHz.wav
3	2	2	2	1	C	1	1	1575	1	Ⴌ	cut_o_stereo_44KHz.wav
3	3	4	3	2	I	1	0	702	0	Ⴒ	cut_u_stereo_44KHz.wav
3	4	3	4	2	I	2	0	1076	0	Ⴐ	cut_k_stereo_44KHz.wav
3	5	1	1	1	C	1	1	859	1	Ⴖ	cut_a_stereo_44KHz.wav
3	6	2	1	0	C	2	1	703	1	Ⴌ	cut_a_stereo_44KHz.wav
3	7	4	4	2	I	1	0	1084	1	Ⴒ	cut_k_stereo_44KHz.wav
3	8	3	3	2	I	2	0	1261	0	Ⴐ	cut_u_stereo_44KHz.wav
3	9	2	1	0	C	1	0	1020	0	Ⴌ	cut_a_stereo_44KHz.wav
3	10	3	3	2	I	2	0	857	1	Ⴐ	cut_u_stereo_44KHz.wav
3	11	1	2	0	C	2	1	645	1	Ⴖ	cut_o_stereo_44KHz.wav
3	12	4	3	2	I	2	0	961	1	Ⴒ	cut_u_stereo_44KHz.wav
3	13	2	2	1	C	1	1	667	1	Ⴌ	cut_o_stereo_44KHz.wav
3	14	1	1	1	C	2	0	1415	0	Ⴖ	cut_a_stereo_44KHz.wav
3	15	4	4	2	I	2	0	1594	1	Ⴒ	cut_k_stereo_44KHz.wav
3	16	3	4	2	I	1	0	656	0	Ⴐ	cut_k_stereo_44KHz.wav
3	17	2	1	0	C	2	1	1091	1	Ⴌ	cut_a_stereo_44KHz.wav
3	18	1	1	1	C	1	1	750	1	Ⴖ	cut_a_stereo_44KHz.wav
3	19	3	4	2	I	2	0	819	1	Ⴐ	cut_k_stereo_44KHz.wav
3	20	4	4	2	I	1	0	590	0	Ⴒ	cut_k_stereo_44KHz.wav
3	21	1	2	0	C	2	1	592	1	Ⴖ	cut_o_stereo_44KHz.wav
3	22	2	2	1	C	1	1	649	1	Ⴌ	cut_o_stereo_44KHz.wav
3	23	4	3	2	I	2	0	799	0	Ⴒ	cut_u_stereo_44KHz.wav
3	24	3	3	2	I	2	0	825	1	Ⴐ	cut_u_stereo_44KHz.wav
3	25	2	1	0	C	2	1	934	1	Ⴌ	cut_a_stereo_44KHz.wav
3	26	1	2	0	C	2	1	674	1	Ⴖ	cut_o_stereo_44KHz.wav
3	27	3	3	2	I	1	0	1148	1	Ⴐ	cut_u_stereo_44KHz.wav
3	28	4	3	2	I	2	0	516	0	Ⴒ	cut_u_stereo_44KHz.wav
3	29	1	1	1	C	1	1	978	1	Ⴖ	cut_a_stereo_44KHz.wav
3	30	2	2	1	C	1	1	751	1	Ⴌ	cut_o_stereo_44KHz.wav
3	31	4	4	2	I	2	0	716	1	Ⴒ	cut_k_stereo_44KHz.wav
3	32	3	4	2	I	1	0	607	1	Ⴐ	cut_k_stereo_44KHz.wav
3	33	4	3	2	I	2	0	943	0	Ⴒ	cut_u_stereo_44KHz.wav
3	34	2	2	1	C	1	1	1119	1	Ⴌ	cut_o_stereo_44KHz.wav
3	35	3	4	2	I	2	0	1333	0	Ⴐ	cut_k_stereo_44KHz.wav
3	36	1	1	1	C	1	1	1223	1	Ⴖ	cut_a_stereo_44KHz.wav
3	37	4	4	2	I	2	0	682	0	Ⴒ	cut_k_stereo_44KHz.wav
3	38	3	3	2	I	2	0	1518	1	Ⴐ	cut_u_stereo_44KHz.wav
3	39	1	2	0	C	2	1	665	1	Ⴖ	cut_o_stereo_44KHz.wav
3	40	2	1	0	C	2	1	1347	1	Ⴌ	cut_a_stereo_44KHz.wav
3	41	1	1	1	C	1	1	684	1	Ⴖ	cut_a_stereo_44KHz.wav
3	42	2	2	1	C	1	1	1036	1	Ⴌ	cut_o_stereo_44KHz.wav
3	43	3	3	2	I	2	0	827	1	Ⴐ	cut_u_stereo_44KHz.wav
3	44	4	4	2	I	2	0	954	0	Ⴒ	cut_k_stereo_44KHz.wav
3	45	2	1	0	C	1	0	873	0	Ⴌ	cut_a_stereo_44KHz.wav
3	46	3	4	2	I	2	0	1229	1	Ⴐ	cut_k_stereo_44KHz.wav
3	47	4	3	2	I	2	0	1041	0	Ⴒ	cut_u_stereo_44KHz.wav
3	48	1	2	0	C	2	1	776	1	Ⴖ	cut_o_stereo_44KHz.wav
3	49	4	4	2	I	1	0	968	0	Ⴒ	cut_k_stereo_44KHz.wav
3	50	2	1	0	C	2	1	1008	1	Ⴌ	cut_a_stereo_44KHz.wav
3	51	1	1	1	C	1	1	908	1	Ⴖ	cut_a_stereo_44KHz.wav
3	52	3	4	2	I	2	0	691	1	Ⴐ	cut_k_stereo_44KHz.wav
3	53	4	3	2	I	1	0	804	0	Ⴒ	cut_u_stereo_44KHz.wav
3	54	2	2	1	C	1	1	894	1	Ⴌ	cut_o_stereo_44KHz.wav
3	55	1	2	0	C	2	1	770	1	Ⴖ	cut_o_stereo_44KHz.wav
3	56	3	3	2	I	1	0	611	0	Ⴐ	cut_u_stereo_44KHz.wav
3	57	4	4	2	I	2	0	877	0	Ⴒ	cut_k_stereo_44KHz.wav
3	58	2	1	0	C	2	1	942	1	Ⴌ	cut_a_stereo_44KHz.wav
3	59	1	1	1	C	1	1	727	1	Ⴖ	cut_a_stereo_44KHz.wav
3	60	3	4	2	I	2	0	851	0	Ⴐ	cut_k_stereo_44KHz.wav
3	61	4	3	2	I	2	0	886	1	Ⴒ	cut_u_stereo_44KHz.wav
3	62	3	3	2	I	1	0	596	0	Ⴐ	cut_u_stereo_44KHz.wav
3	63	2	2	1	C	1	1	662	1	Ⴌ	cut_o_stereo_44KHz.wav
3	64	1	2	0	C	2	1	572	1	Ⴖ	cut_o_stereo_44KHz.wav
3	65	2	2	1	C	1	1	585	1	Ⴌ	cut_o_stereo_44KHz.wav
3	66	4	4	2	I	2	0	947	0	Ⴒ	cut_k_stereo_44KHz.wav
3	67	3	4	2	I	2	0	781	0	Ⴐ	cut_k_stereo_44KHz.wav
3	68	1	2	0	C	2	1	695	1	Ⴖ	cut_o_stereo_44KHz.wav
3	69	3	3	2	I	1	0	720	0	Ⴐ	cut_u_stereo_44KHz.wav
3	70	1	1	1	C	1	1	738	1	Ⴖ	cut_a_stereo_44KHz.wav
3	71	2	1	0	C	2	1	1076	1	Ⴌ	cut_a_stereo_44KHz.wav
3	72	4	3	2	I	2	0	857	1	Ⴒ	cut_u_stereo_44KHz.wav
3	73	2	2	1	C	1	1	886	1	Ⴌ	cut_o_stereo_44KHz.wav
3	74	4	3	2	I	1	0	1888	1	Ⴒ	cut_u_stereo_44KHz.wav
3	75	3	4	2	I	2	0	757	1	Ⴐ	cut_k_stereo_44KHz.wav
3	76	1	1	1	C	1	1	778	1	Ⴖ	cut_a_stereo_44KHz.wav
3	77	3	3	2	I	2	0	835	0	Ⴐ	cut_u_stereo_44KHz.wav
3	78	2	1	0	C	1	0	644	0	Ⴌ	cut_a_stereo_44KHz.wav
3	79	4	4	2	I	1	0	801	0	Ⴒ	cut_k_stereo_44KHz.wav
3	80	1	2	0	C	2	1	594	1	Ⴖ	cut_o_stereo_44KHz.wav
3	81	2	1	0	C	2	1	977	1	Ⴌ	cut_a_stereo_44KHz.wav
3	82	1	2	0	C	2	1	653	1	Ⴖ	cut_o_stereo_44KHz.wav
3	83	4	4	2	I	2	0	859	1	Ⴒ	cut_k_stereo_44KHz.wav
3	84	3	4	2	I	1	0	665	0	Ⴐ	cut_k_stereo_44KHz.wav
3	85	2	2	1	C	1	1	841	1	Ⴌ	cut_o_stereo_44KHz.wav
3	86	1	1	1	C	1	1	692	1	Ⴖ	cut_a_stereo_44KHz.wav
3	87	3	3	2	I	2	0	1010	0	Ⴐ	cut_u_stereo_44KHz.wav
3	88	4	3	2	I	2	0	859	1	Ⴒ	cut_u_stereo_44KHz.wav
3	89	2	2	1	C	1	1	903	1	Ⴌ	cut_o_stereo_44KHz.wav
3	90	1	1	1	C	1	1	686	1	Ⴖ	cut_a_stereo_44KHz.wav
3	91	4	3	2	I	1	0	1068	0	Ⴒ	cut_u_stereo_44KHz.wav
3	92	3	3	2	I	1	0	1139	1	Ⴐ	cut_u_stereo_44KHz.wav
3	93	2	1	0	C	2	1	830	1	Ⴌ	cut_a_stereo_44KHz.wav
3	94	4	4	2	I	1	0	788	0	Ⴒ	cut_k_stereo_44KHz.wav
3	95	1	2	0	C	2	1	683	1	Ⴖ	cut_o_stereo_44KHz.wav
3	96	3	4	2	I	2	0	1251	0	Ⴐ	cut_k_stereo_44KHz.wav
3	97	4	4	2	I	2	0	761	1	Ⴒ	cut_k_stereo_44KHz.wav
3	98	1	1	1	C	1	1	698	1	Ⴖ	cut_a_stereo_44KHz.wav
3	99	3	3	2	I	1	0	910	0	Ⴐ	cut_u_stereo_44KHz.wav
3	100	2	2	1	C	1	1	607	1	Ⴌ	cut_o_stereo_44KHz.wav
3	101	1	2	0	C	2	1	583	1	Ⴖ	cut_o_stereo_44KHz.wav
3	102	2	1	0	C	1	0	631	0	Ⴌ	cut_a_stereo_44KHz.wav
3	103	4	3	2	I	2	0	1184	1	Ⴒ	cut_u_stereo_44KHz.wav
3	104	3	4	2	I	1	0	1291	1	Ⴐ	cut_k_stereo_44KHz.wav
3	105	1	2	0	C	2	1	605	1	Ⴖ	cut_o_stereo_44KHz.wav
3	106	3	4	2	I	2	0	1424	0	Ⴐ	cut_k_stereo_44KHz.wav
3	107	2	1	0	C	1	0	750	0	Ⴌ	cut_a_stereo_44KHz.wav
3	108	4	4	2	I	1	0	772	1	Ⴒ	cut_k_stereo_44KHz.wav
3	109	2	2	1	C	1	1	1085	1	Ⴌ	cut_o_stereo_44KHz.wav
3	110	3	3	2	I	1	0	806	0	Ⴐ	cut_u_stereo_44KHz.wav
3	111	4	3	2	I	2	0	674	1	Ⴒ	cut_u_stereo_44KHz.wav
3	112	1	1	1	C	1	1	822	1	Ⴖ	cut_a_stereo_44KHz.wav
3	113	3	4	2	I	1	0	664	1	Ⴐ	cut_k_stereo_44KHz.wav
3	114	4	3	2	I	1	0	642	1	Ⴒ	cut_u_stereo_44KHz.wav
3	115	1	1	1	C	1	1	643	1	Ⴖ	cut_a_stereo_44KHz.wav
3	116	2	1	0	C	2	1	778	1	Ⴌ	cut_a_stereo_44KHz.wav
3	117	1	2	0	C	2	1	643	1	Ⴖ	cut_o_stereo_44KHz.wav
3	118	4	4	2	I	1	0	1317	1	Ⴒ	cut_k_stereo_44KHz.wav
3	119	2	2	1	C	1	1	800	1	Ⴌ	cut_o_stereo_44KHz.wav
3	120	3	3	2	I	1	0	1783	1	Ⴐ	cut_u_stereo_44KHz.wav
3	121	1	1	1	C	1	1	738	1	Ⴖ	cut_a_stereo_44KHz.wav
3	122	4	4	2	I	2	0	820	0	Ⴒ	cut_k_stereo_44KHz.wav
3	123	2	1	0	C	2	1	679	1	Ⴌ	cut_a_stereo_44KHz.wav
3	124	3	3	2	I	2	0	1035	0	Ⴐ	cut_u_stereo_44KHz.wav
3	125	1	2	0	C	2	1	703	1	Ⴖ	cut_o_stereo_44KHz.wav
3	126	3	4	2	I	2	0	1351	0	Ⴐ	cut_k_stereo_44KHz.wav
3	127	4	3	2	I	2	0	848	0	Ⴒ	cut_u_stereo_44KHz.wav
3	128	2	2	1	C	1	1	745	1	Ⴌ	cut_o_stereo_44KHz.wav
3	129	4	3	2	I	2	0	665	0	Ⴒ	cut_u_stereo_44KHz.wav
3	130	2	1	0	C	2	1	747	1	Ⴌ	cut_a_stereo_44KHz.wav
3	131	3	4	2	I	1	0	769	0	Ⴐ	cut_k_stereo_44KHz.wav
3	132	1	2	0	C	2	1	652	1	Ⴖ	cut_o_stereo_44KHz.wav
3	133	2	2	1	C	1	1	812	1	Ⴌ	cut_o_stereo_44KHz.wav
3	134	1	1	1	C	1	1	811	1	Ⴖ	cut_a_stereo_44KHz.wav
3	135	3	3	2	I	0	0	0	0	Ⴐ	cut_u_stereo_44KHz.wav
3	136	4	4	2	I	2	0	898	1	Ⴒ	cut_k_stereo_44KHz.wav
3	137	1	2	0	C	2	1	579	1	Ⴖ	cut_o_stereo_44KHz.wav
3	138	2	1	0	C	2	1	658	1	Ⴌ	cut_a_stereo_44KHz.wav
3	139	4	4	2	I	1	0	714	0	Ⴒ	cut_k_stereo_44KHz.wav
3	140	3	4	2	I	2	0	684	0	Ⴐ	cut_k_stereo_44KHz.wav
3	141	4	3	2	I	2	0	683	0	Ⴒ	cut_u_stereo_44KHz.wav
3	142	2	2	1	C	1	1	765	1	Ⴌ	cut_o_stereo_44KHz.wav
3	143	1	1	1	C	2	0	519	0	Ⴖ	cut_a_stereo_44KHz.wav
3	144	3	3	2	I	2	0	1075	1	Ⴐ	cut_u_stereo_44KHz.wav
3	145	2	1	0	C	2	1	908	1	Ⴌ	cut_a_stereo_44KHz.wav
3	146	4	4	2	I	1	0	1091	1	Ⴒ	cut_k_stereo_44KHz.wav
3	147	1	2	0	C	2	1	536	1	Ⴖ	cut_o_stereo_44KHz.wav
3	148	3	4	2	I	1	0	777	1	Ⴐ	cut_k_stereo_44KHz.wav
3	149	4	3	2	I	1	0	747	0	Ⴒ	cut_u_stereo_44KHz.wav
3	150	1	1	1	C	1	1	804	1	Ⴖ	cut_a_stereo_44KHz.wav
3	151	2	2	1	C	1	1	825	1	Ⴌ	cut_o_stereo_44KHz.wav
3	152	3	3	2	I	1	0	1578	0	Ⴐ	cut_u_stereo_44KHz.wav
3	153	4	4	2	I	2	0	563	0	Ⴒ	cut_k_stereo_44KHz.wav
3	154	3	3	2	I	1	0	782	1	Ⴐ	cut_u_stereo_44KHz.wav
3	155	2	2	1	C	1	1	770	1	Ⴌ	cut_o_stereo_44KHz.wav
3	156	1	1	1	C	1	1	651	1	Ⴖ	cut_a_stereo_44KHz.wav
3	157	2	1	0	C	2	1	694	1	Ⴌ	cut_a_stereo_44KHz.wav
3	158	3	4	2	I	1	0	766	1	Ⴐ	cut_k_stereo_44KHz.wav
3	159	1	2	0	C	2	1	566	1	Ⴖ	cut_o_stereo_44KHz.wav
3	160	4	3	2	I	1	0	956	1	Ⴒ	cut_u_stereo_44KHz.wav
3	161	1	2	0	C	2	1	586	1	Ⴖ	cut_o_stereo_44KHz.wav
3	162	3	4	2	I	2	0	695	1	Ⴐ	cut_k_stereo_44KHz.wav
3	163	2	1	0	C	2	1	712	1	Ⴌ	cut_a_stereo_44KHz.wav
3	164	4	4	2	I	2	0	1173	1	Ⴒ	cut_k_stereo_44KHz.wav
3	165	3	3	2	I	1	0	630	1	Ⴐ	cut_u_stereo_44KHz.wav
3	166	1	1	1	C	1	1	788	1	Ⴖ	cut_a_stereo_44KHz.wav
3	167	4	3	2	I	1	0	945	1	Ⴒ	cut_u_stereo_44KHz.wav
3	168	2	2	1	C	1	1	929	1	Ⴌ	cut_o_stereo_44KHz.wav
3	169	3	3	2	I	2	0	881	0	Ⴐ	cut_u_stereo_44KHz.wav
3	170	4	4	2	I	1	0	756	1	Ⴒ	cut_k_stereo_44KHz.wav
3	171	2	2	1	C	1	1	852	1	Ⴌ	cut_o_stereo_44KHz.wav
3	172	1	1	1	C	1	1	837	1	Ⴖ	cut_a_stereo_44KHz.wav
3	173	4	3	2	I	2	0	751	0	Ⴒ	cut_u_stereo_44KHz.wav
3	174	1	2	0	C	2	1	672	1	Ⴖ	cut_o_stereo_44KHz.wav
3	175	2	1	0	C	2	1	777	1	Ⴌ	cut_a_stereo_44KHz.wav
3	176	3	4	2	I	1	0	704	0	Ⴐ	cut_k_stereo_44KHz.wav
3	177	1	2	0	C	2	1	808	1	Ⴖ	cut_o_stereo_44KHz.wav
3	178	4	3	2	I	1	0	726	0	Ⴒ	cut_u_stereo_44KHz.wav
3	179	3	3	2	I	1	0	1019	1	Ⴐ	cut_u_stereo_44KHz.wav
3	180	2	1	0	C	2	1	943	1	Ⴌ	cut_a_stereo_44KHz.wav
3	181	3	4	2	I	1	0	715	0	Ⴐ	cut_k_stereo_44KHz.wav
3	182	4	4	2	I	2	0	607	1	Ⴒ	cut_k_stereo_44KHz.wav
3	183	1	1	1	C	1	1	858	1	Ⴖ	cut_a_stereo_44KHz.wav
3	184	2	2	1	C	1	1	767	1	Ⴌ	cut_o_stereo_44KHz.wav
3	185	1	2	0	C	2	1	743	1	Ⴖ	cut_o_stereo_44KHz.wav
3	186	4	3	2	I	2	0	846	1	Ⴒ	cut_u_stereo_44KHz.wav
3	187	3	3	2	I	1	0	561	1	Ⴐ	cut_u_stereo_44KHz.wav
3	188	2	2	1	C	1	1	834	1	Ⴌ	cut_o_stereo_44KHz.wav
3	189	3	4	2	I	1	0	691	1	Ⴐ	cut_k_stereo_44KHz.wav
3	190	2	1	0	C	1	0	840	0	Ⴌ	cut_a_stereo_44KHz.wav
3	191	1	1	1	C	1	1	735	1	Ⴖ	cut_a_stereo_44KHz.wav
3	192	4	4	2	I	2	0	1066	1	Ⴒ	cut_k_stereo_44KHz.wav
3	193	3	3	2	I	2	0	853	1	Ⴐ	cut_u_stereo_44KHz.wav
3	194	2	1	0	C	2	1	914	1	Ⴌ	cut_a_stereo_44KHz.wav
3	195	4	4	2	I	2	0	1453	0	Ⴒ	cut_k_stereo_44KHz.wav
3	196	1	2	0	C	2	1	675	1	Ⴖ	cut_o_stereo_44KHz.wav
3	197	4	3	2	I	2	0	875	1	Ⴒ	cut_u_stereo_44KHz.wav
3	198	1	1	1	C	1	1	800	1	Ⴖ	cut_a_stereo_44KHz.wav
3	199	3	4	2	I	1	0	705	1	Ⴐ	cut_k_stereo_44KHz.wav
3	200	2	2	1	C	1	1	861	1	Ⴌ	cut_o_stereo_44KHz.wav
4	1	3	4	2	I	2	0	978	0	Ⴡ	cut_n_stereo_44KHz.wav
4	2	2	2	1	C	1	1	972	1	Ⴊ	cut_f_stereo_44KHz.wav
4	3	4	3	2	I	2	0	1369	1	Ⴜ	cut_ui_stereo_44KHz.wav
4	4	1	2	0	C	1	0	918	0	Ⴟ	cut_f_stereo_44KHz.wav
4	5	2	1	0	C	2	1	1723	1	Ⴊ	cut_s_stereo_44KHz.wav
4	6	4	4	2	I	1	0	916	0	Ⴜ	cut_n_stereo_44KHz.wav
4	7	1	1	1	C	1	1	838	1	Ⴟ	cut_s_stereo_44KHz.wav
4	8	3	3	2	I	2	0	797	1	Ⴡ	cut_ui_stereo_44KHz.wav
4	9	1	1	1	C	1	1	1139	1	Ⴟ	cut_s_stereo_44KHz.wav
4	10	3	4	2	I	2	0	858	1	Ⴡ	cut_n_stereo_44KHz.wav
4	11	4	4	2	I	1	0	908	1	Ⴜ	cut_n_stereo_44KHz.wav
4	12	2	2	1	C	2	0	1487	0	Ⴊ	cut_f_stereo_44KHz.wav
4	13	4	3	2	I	1	0	705	1	Ⴜ	cut_ui_stereo_44KHz.wav
4	14	2	1	0	C	1	0	1340	0	Ⴊ	cut_s_stereo_44KHz.wav
4	15	1	2	0	C	2	1	975	1	Ⴟ	cut_f_stereo_44KHz.wav
4	16	3	3	2	I	2	0	879	1	Ⴡ	cut_ui_stereo_44KHz.wav
4	17	2	1	0	C	1	0	722	0	Ⴊ	cut_s_stereo_44KHz.wav
4	18	1	1	1	C	2	0	1019	0	Ⴟ	cut_s_stereo_44KHz.wav
4	19	3	3	2	I	2	0	812	0	Ⴡ	cut_ui_stereo_44KHz.wav
4	20	4	4	2	I	2	0	847	0	Ⴜ	cut_n_stereo_44KHz.wav
4	21	1	2	0	C	2	1	1304	1	Ⴟ	cut_f_stereo_44KHz.wav
4	22	4	3	2	I	2	0	1433	0	Ⴜ	cut_ui_stereo_44KHz.wav
4	23	3	4	2	I	1	0	845	0	Ⴡ	cut_n_stereo_44KHz.wav
4	24	2	2	1	C	2	0	1427	0	Ⴊ	cut_f_stereo_44KHz.wav
4	25	3	3	2	I	2	0	1238	1	Ⴡ	cut_ui_stereo_44KHz.wav
4	26	2	2	1	C	2	0	854	0	Ⴊ	cut_f_stereo_44KHz.wav
4	27	4	3	2	I	2	0	945	0	Ⴜ	cut_ui_stereo_44KHz.wav
4	28	1	1	1	C	2	0	857	0	Ⴟ	cut_s_stereo_44KHz.wav
4	29	2	1	0	C	1	0	518	0	Ⴊ	cut_s_stereo_44KHz.wav
4	30	3	4	2	I	2	0	781	1	Ⴡ	cut_n_stereo_44KHz.wav
4	31	4	4	2	I	1	0	897	1	Ⴜ	cut_n_stereo_44KHz.wav
4	32	1	2	0	C	2	1	1396	1	Ⴟ	cut_f_stereo_44KHz.wav
4	33	2	2	1	C	1	1	729	1	Ⴊ	cut_f_stereo_44KHz.wav
4	34	4	3	2	I	2	0	824	1	Ⴜ	cut_ui_stereo_44KHz.wav
4	35	3	3	2	I	1	0	801	1	Ⴡ	cut_ui_stereo_44KHz.wav
4	36	1	2	0	C	2	1	929	1	Ⴟ	cut_f_stereo_44KHz.wav
4	37	3	4	2	I	2	0	954	0	Ⴡ	cut_n_stereo_44KHz.wav
4	38	1	1	1	C	1	1	756	1	Ⴟ	cut_s_stereo_44KHz.wav
4	39	4	4	2	I	2	0	1034	0	Ⴜ	cut_n_stereo_44KHz.wav
4	40	2	1	0	C	2	1	996	1	Ⴊ	cut_s_stereo_44KHz.wav
4	41	1	1	1	C	1	1	927	1	Ⴟ	cut_s_stereo_44KHz.wav
4	42	3	3	2	I	2	0	863	1	Ⴡ	cut_ui_stereo_44KHz.wav
4	43	2	1	0	C	1	0	788	0	Ⴊ	cut_s_stereo_44KHz.wav
4	44	4	3	2	I	2	0	726	1	Ⴜ	cut_ui_stereo_44KHz.wav
4	45	1	2	0	C	2	1	1050	1	Ⴟ	cut_f_stereo_44KHz.wav
4	46	4	4	2	I	2	0	1142	0	Ⴜ	cut_n_stereo_44KHz.wav
4	47	2	2	1	C	1	1	649	1	Ⴊ	cut_f_stereo_44KHz.wav
4	48	3	4	2	I	2	0	728	1	Ⴡ	cut_n_stereo_44KHz.wav
4	49	1	2	0	C	2	1	774	1	Ⴟ	cut_f_stereo_44KHz.wav
4	50	4	4	2	I	2	0	924	1	Ⴜ	cut_n_stereo_44KHz.wav
4	51	3	4	2	I	2	0	1079	0	Ⴡ	cut_n_stereo_44KHz.wav
4	52	2	2	1	C	2	0	763	0	Ⴊ	cut_f_stereo_44KHz.wav
4	53	4	3	2	I	2	0	640	0	Ⴜ	cut_ui_stereo_44KHz.wav
4	54	1	1	1	C	2	0	951	0	Ⴟ	cut_s_stereo_44KHz.wav
4	55	2	1	0	C	2	1	670	1	Ⴊ	cut_s_stereo_44KHz.wav
4	56	3	3	2	I	2	0	963	0	Ⴡ	cut_ui_stereo_44KHz.wav
4	57	1	2	0	C	2	1	912	1	Ⴟ	cut_f_stereo_44KHz.wav
4	58	3	3	2	I	2	0	699	0	Ⴡ	cut_ui_stereo_44KHz.wav
4	59	2	1	0	C	2	1	764	1	Ⴊ	cut_s_stereo_44KHz.wav
4	60	4	3	2	I	2	0	696	0	Ⴜ	cut_ui_stereo_44KHz.wav
4	61	3	4	2	I	2	0	719	1	Ⴡ	cut_n_stereo_44KHz.wav
4	62	1	1	1	C	1	1	796	1	Ⴟ	cut_s_stereo_44KHz.wav
4	63	4	4	2	I	2	0	731	1	Ⴜ	cut_n_stereo_44KHz.wav
4	64	2	2	1	C	1	1	924	1	Ⴊ	cut_f_stereo_44KHz.wav
4	65	3	4	2	I	2	0	729	1	Ⴡ	cut_n_stereo_44KHz.wav
4	66	4	4	2	I	1	0	742	1	Ⴜ	cut_n_stereo_44KHz.wav
4	67	1	2	0	C	2	1	717	1	Ⴟ	cut_f_stereo_44KHz.wav
4	68	2	1	0	C	2	1	853	1	Ⴊ	cut_s_stereo_44KHz.wav
4	69	1	1	1	C	1	1	669	1	Ⴟ	cut_s_stereo_44KHz.wav
4	70	2	2	1	C	2	0	655	0	Ⴊ	cut_f_stereo_44KHz.wav
4	71	3	3	2	I	1	0	786	1	Ⴡ	cut_ui_stereo_44KHz.wav
4	72	4	3	2	I	2	0	568	0	Ⴜ	cut_ui_stereo_44KHz.wav
4	73	3	4	2	I	1	0	611	0	Ⴡ	cut_n_stereo_44KHz.wav
4	74	1	2	0	C	2	1	640	1	Ⴟ	cut_f_stereo_44KHz.wav
4	75	4	3	2	I	2	0	1237	1	Ⴜ	cut_ui_stereo_44KHz.wav
4	76	2	1	0	C	1	0	586	0	Ⴊ	cut_s_stereo_44KHz.wav
4	77	1	1	1	C	1	1	1000	1	Ⴟ	cut_s_stereo_44KHz.wav
4	78	2	2	1	C	2	0	834	0	Ⴊ	cut_f_stereo_44KHz.wav
4	79	4	4	2	I	1	0	863	1	Ⴜ	cut_n_stereo_44KHz.wav
4	80	3	3	2	I	2	0	655	0	Ⴡ	cut_ui_stereo_44KHz.wav
4	81	1	1	1	C	1	1	786	1	Ⴟ	cut_s_stereo_44KHz.wav
4	82	4	4	2	I	2	0	1105	0	Ⴜ	cut_n_stereo_44KHz.wav
4	83	3	3	2	I	1	0	1188	0	Ⴡ	cut_ui_stereo_44KHz.wav
4	84	2	1	0	C	2	1	1479	1	Ⴊ	cut_s_stereo_44KHz.wav
4	85	1	2	0	C	1	0	949	0	Ⴟ	cut_f_stereo_44KHz.wav
4	86	3	4	2	I	1	0	738	0	Ⴡ	cut_n_stereo_44KHz.wav
4	87	4	3	2	I	1	0	1055	0	Ⴜ	cut_ui_stereo_44KHz.wav
4	88	2	2	1	C	1	1	1361	1	Ⴊ	cut_f_stereo_44KHz.wav
4	89	1	2	0	C	2	1	824	1	Ⴟ	cut_f_stereo_44KHz.wav
4	90	3	3	2	I	1	0	745	1	Ⴡ	cut_ui_stereo_44KHz.wav
4	91	4	3	2	I	2	0	962	1	Ⴜ	cut_ui_stereo_44KHz.wav
4	92	2	1	0	C	2	1	1118	1	Ⴊ	cut_s_stereo_44KHz.wav
4	93	1	1	1	C	1	1	960	1	Ⴟ	cut_s_stereo_44KHz.wav
4	94	3	4	2	I	1	0	1030	1	Ⴡ	cut_n_stereo_44KHz.wav
4	95	2	2	1	C	1	1	1131	1	Ⴊ	cut_f_stereo_44KHz.wav
4	96	4	4	2	I	2	0	1104	0	Ⴜ	cut_n_stereo_44KHz.wav
4	97	1	1	1	C	1	1	1407	1	Ⴟ	cut_s_stereo_44KHz.wav
4	98	2	2	1	C	1	1	1024	1	Ⴊ	cut_f_stereo_44KHz.wav
4	99	4	3	2	I	2	0	1423	0	Ⴜ	cut_ui_stereo_44KHz.wav
4	100	3	4	2	I	1	0	759	1	Ⴡ	cut_n_stereo_44KHz.wav
4	101	1	2	0	C	2	1	972	1	Ⴟ	cut_f_stereo_44KHz.wav
4	102	4	4	2	I	1	0	800	0	Ⴜ	cut_n_stereo_44KHz.wav
4	103	3	3	2	I	1	0	1635	0	Ⴡ	cut_ui_stereo_44KHz.wav
4	104	2	1	0	C	2	1	687	1	Ⴊ	cut_s_stereo_44KHz.wav
4	105	4	4	2	I	1	0	1725	0	Ⴜ	cut_n_stereo_44KHz.wav
4	106	3	3	2	I	2	0	1095	0	Ⴡ	cut_ui_stereo_44KHz.wav
4	107	1	1	1	C	1	1	1412	1	Ⴟ	cut_s_stereo_44KHz.wav
4	108	2	2	1	C	1	1	1074	1	Ⴊ	cut_f_stereo_44KHz.wav
4	109	1	2	0	C	2	1	1038	1	Ⴟ	cut_f_stereo_44KHz.wav
4	110	4	3	2	I	1	0	1274	1	Ⴜ	cut_ui_stereo_44KHz.wav
4	111	3	4	2	I	2	0	1351	1	Ⴡ	cut_n_stereo_44KHz.wav
4	112	2	1	0	C	2	1	1007	1	Ⴊ	cut_s_stereo_44KHz.wav
4	113	1	1	1	C	1	1	1696	1	Ⴟ	cut_s_stereo_44KHz.wav
4	114	3	4	2	I	1	0	1437	1	Ⴡ	cut_n_stereo_44KHz.wav
4	115	4	4	2	I	2	0	892	0	Ⴜ	cut_n_stereo_44KHz.wav
4	116	2	1	0	C	2	1	1119	1	Ⴊ	cut_s_stereo_44KHz.wav
4	117	3	3	2	I	1	0	1755	0	Ⴡ	cut_ui_stereo_44KHz.wav
4	118	1	2	0	C	2	1	843	1	Ⴟ	cut_f_stereo_44KHz.wav
4	119	2	2	1	C	1	1	742	1	Ⴊ	cut_f_stereo_44KHz.wav
4	120	4	3	2	I	1	0	1093	1	Ⴜ	cut_ui_stereo_44KHz.wav
4	121	1	2	0	C	2	1	719	1	Ⴟ	cut_f_stereo_44KHz.wav
4	122	4	3	2	I	1	0	824	1	Ⴜ	cut_ui_stereo_44KHz.wav
4	123	2	1	0	C	2	1	718	1	Ⴊ	cut_s_stereo_44KHz.wav
4	124	3	4	2	I	1	0	1247	0	Ⴡ	cut_n_stereo_44KHz.wav
4	125	2	2	1	C	1	1	1305	1	Ⴊ	cut_f_stereo_44KHz.wav
4	126	3	3	2	I	1	0	1290	0	Ⴡ	cut_ui_stereo_44KHz.wav
4	127	4	4	2	I	2	0	740	1	Ⴜ	cut_n_stereo_44KHz.wav
4	128	1	1	1	C	1	1	883	1	Ⴟ	cut_s_stereo_44KHz.wav
4	129	4	4	2	I	1	0	621	0	Ⴜ	cut_n_stereo_44KHz.wav
4	130	1	1	1	C	1	1	918	1	Ⴟ	cut_s_stereo_44KHz.wav
4	131	2	1	0	C	2	1	1032	1	Ⴊ	cut_s_stereo_44KHz.wav
4	132	3	3	2	I	1	0	626	0	Ⴡ	cut_ui_stereo_44KHz.wav
4	133	4	3	2	I	2	0	688	1	Ⴜ	cut_ui_stereo_44KHz.wav
4	134	2	2	1	C	1	1	811	1	Ⴊ	cut_f_stereo_44KHz.wav
4	135	3	4	2	I	1	0	749	1	Ⴡ	cut_n_stereo_44KHz.wav
4	136	1	2	0	C	2	1	1359	1	Ⴟ	cut_f_stereo_44KHz.wav
4	137	2	2	1	C	1	1	810	1	Ⴊ	cut_f_stereo_44KHz.wav
4	138	3	4	2	I	1	0	1040	1	Ⴡ	cut_n_stereo_44KHz.wav
4	139	1	2	0	C	2	1	953	1	Ⴟ	cut_f_stereo_44KHz.wav
4	140	4	3	2	I	1	0	798	1	Ⴜ	cut_ui_stereo_44KHz.wav
4	141	1	1	1	C	1	1	823	1	Ⴟ	cut_s_stereo_44KHz.wav
4	142	3	3	2	I	1	0	816	1	Ⴡ	cut_ui_stereo_44KHz.wav
4	143	2	1	0	C	2	1	895	1	Ⴊ	cut_s_stereo_44KHz.wav
4	144	4	4	2	I	2	0	1266	1	Ⴜ	cut_n_stereo_44KHz.wav
4	145	1	2	0	C	2	1	1497	1	Ⴟ	cut_f_stereo_44KHz.wav
4	146	3	4	2	I	1	0	970	1	Ⴡ	cut_n_stereo_44KHz.wav
4	147	2	1	0	C	2	1	829	1	Ⴊ	cut_s_stereo_44KHz.wav
4	148	4	4	2	I	1	0	1306	1	Ⴜ	cut_n_stereo_44KHz.wav
4	149	1	1	1	C	1	1	1169	1	Ⴟ	cut_s_stereo_44KHz.wav
4	150	3	3	2	I	1	0	1016	0	Ⴡ	cut_ui_stereo_44KHz.wav
4	151	4	3	2	I	1	0	1143	1	Ⴜ	cut_ui_stereo_44KHz.wav
4	152	2	2	1	C	1	1	852	1	Ⴊ	cut_f_stereo_44KHz.wav
4	153	3	3	2	I	1	0	1006	0	Ⴡ	cut_ui_stereo_44KHz.wav
4	154	1	2	0	C	2	1	842	1	Ⴟ	cut_f_stereo_44KHz.wav
4	155	4	4	2	I	1	0	717	0	Ⴜ	cut_n_stereo_44KHz.wav
4	156	2	1	0	C	2	1	735	1	Ⴊ	cut_s_stereo_44KHz.wav
4	157	1	1	1	C	1	1	664	1	Ⴟ	cut_s_stereo_44KHz.wav
4	158	3	4	2	I	1	0	915	0	Ⴡ	cut_n_stereo_44KHz.wav
4	159	2	2	1	C	1	1	944	1	Ⴊ	cut_f_stereo_44KHz.wav
4	160	4	3	2	I	1	0	788	0	Ⴜ	cut_ui_stereo_44KHz.wav
4	161	2	1	0	C	2	1	877	1	Ⴊ	cut_s_stereo_44KHz.wav
4	162	1	1	1	C	1	1	719	1	Ⴟ	cut_s_stereo_44KHz.wav
4	163	3	4	2	I	1	0	1337	1	Ⴡ	cut_n_stereo_44KHz.wav
4	164	4	3	2	I	1	0	1164	0	Ⴜ	cut_ui_stereo_44KHz.wav
4	165	3	3	2	I	2	0	1247	0	Ⴡ	cut_ui_stereo_44KHz.wav
4	166	2	2	1	C	1	1	974	1	Ⴊ	cut_f_stereo_44KHz.wav
4	167	4	4	2	I	1	0	1749	0	Ⴜ	cut_n_stereo_44KHz.wav
4	168	1	2	0	C	2	1	1232	1	Ⴟ	cut_f_stereo_44KHz.wav
4	169	4	3	2	I	1	0	1326	1	Ⴜ	cut_ui_stereo_44KHz.wav
4	170	3	3	2	I	1	0	1059	1	Ⴡ	cut_ui_stereo_44KHz.wav
4	171	1	1	1	C	1	1	898	1	Ⴟ	cut_s_stereo_44KHz.wav
4	172	2	2	1	C	1	1	1025	1	Ⴊ	cut_f_stereo_44KHz.wav
4	173	4	4	2	I	0	0	0	0	Ⴜ	cut_n_stereo_44KHz.wav
4	174	1	2	0	C	2	1	908	1	Ⴟ	cut_f_stereo_44KHz.wav
4	175	3	4	2	I	2	0	1448	0	Ⴡ	cut_n_stereo_44KHz.wav
4	176	2	1	0	C	2	1	752	1	Ⴊ	cut_s_stereo_44KHz.wav
4	177	4	3	2	I	1	0	1236	0	Ⴜ	cut_ui_stereo_44KHz.wav
4	178	3	3	2	I	1	0	996	0	Ⴡ	cut_ui_stereo_44KHz.wav
4	179	2	2	1	C	1	1	809	1	Ⴊ	cut_f_stereo_44KHz.wav
4	180	1	2	0	C	2	1	844	1	Ⴟ	cut_f_stereo_44KHz.wav
4	181	4	4	2	I	1	0	1436	1	Ⴜ	cut_n_stereo_44KHz.wav
4	182	3	4	2	I	1	0	1131	0	Ⴡ	cut_n_stereo_44KHz.wav
4	183	1	1	1	C	1	1	921	1	Ⴟ	cut_s_stereo_44KHz.wav
4	184	2	1	0	C	2	1	1591	1	Ⴊ	cut_s_stereo_44KHz.wav
4	185	3	4	2	I	2	0	1200	1	Ⴡ	cut_n_stereo_44KHz.wav
4	186	2	2	1	C	1	1	784	1	Ⴊ	cut_f_stereo_44KHz.wav
4	187	1	2	0	C	2	1	860	1	Ⴟ	cut_f_stereo_44KHz.wav
4	188	4	3	2	I	2	0	1260	0	Ⴜ	cut_ui_stereo_44KHz.wav
4	189	2	1	0	C	2	1	1184	1	Ⴊ	cut_s_stereo_44KHz.wav
4	190	1	1	1	C	1	1	872	1	Ⴟ	cut_s_stereo_44KHz.wav
4	191	3	3	2	I	2	0	1168	1	Ⴡ	cut_ui_stereo_44KHz.wav
4	192	4	4	2	I	1	0	791	0	Ⴜ	cut_n_stereo_44KHz.wav
4	193	3	3	2	I	2	0	1112	1	Ⴡ	cut_ui_stereo_44KHz.wav
4	194	1	1	1	C	1	1	925	1	Ⴟ	cut_s_stereo_44KHz.wav
4	195	4	3	2	I	1	0	960	0	Ⴜ	cut_ui_stereo_44KHz.wav
4	196	2	1	0	C	2	1	918	1	Ⴊ	cut_s_stereo_44KHz.wav
4	197	3	4	2	I	1	0	830	0	Ⴡ	cut_n_stereo_44KHz.wav
4	198	2	2	1	C	1	1	783	1	Ⴊ	cut_f_stereo_44KHz.wav
4	199	1	2	0	C	2	1	797	1	Ⴟ	cut_f_stereo_44KHz.wav
4	200	4	4	2	I	2	0	1302	1	Ⴜ	cut_n_stereo_44KHz.wav
