block	trial	Vstim	Astim	match	C/I	resp	result	RT	fb	V-file	A-file
LR

0	1	1	1	1	C	2	1	806	1	poli_8sides 22_whiteLine3.jpg	Practice4_b26_stereo_44KHz.wav
0	2	2	3	1	C	1	0	800	0	poli_8sides 23_whiteLine3.jpg	Practice3_b26_cut1_stereo_44KHz.wav
0	3	1	2	0	C	1	1	1140	1	poli_8sides 22_whiteLine3.jpg	Practice2_b27_cut2_stereo_44KHz.wav
0	4	2	4	0	C	1	1	749	1	poli_8sides 23_whiteLine3.jpg	Practice1_b27_cut1_stereo_44KHz.wav
0	5	1	1	1	C	2	1	735	1	poli_8sides 22_whiteLine3.jpg	Practice4_b26_stereo_44KHz.wav
0	6	2	3	1	C	1	0	844	0	poli_8sides 23_whiteLine3.jpg	Practice3_b26_cut1_stereo_44KHz.wav
0	7	2	4	0	C	1	1	754	1	poli_8sides 23_whiteLine3.jpg	Practice1_b27_cut1_stereo_44KHz.wav
0	8	1	2	0	C	1	1	729	1	poli_8sides 22_whiteLine3.jpg	Practice2_b27_cut2_stereo_44KHz.wav
0	9	2	3	1	C	2	1	707	1	poli_8sides 23_whiteLine3.jpg	Practice3_b26_cut1_stereo_44KHz.wav
0	10	1	2	0	C	1	1	320	1	poli_8sides 22_whiteLine3.jpg	Practice2_b27_cut2_stereo_44KHz.wav
0	11	2	4	0	C	1	1	619	1	poli_8sides 23_whiteLine3.jpg	Practice1_b27_cut1_stereo_44KHz.wav
0	12	1	1	1	C	1	0	515	0	poli_8sides 22_whiteLine3.jpg	Practice4_b26_stereo_44KHz.wav
0	13	2	3	1	C	1	0	1124	0	poli_8sides 23_whiteLine3.jpg	Practice3_b26_cut1_stereo_44KHz.wav
0	14	1	1	1	C	1	0	982	0	poli_8sides 22_whiteLine3.jpg	Practice4_b26_stereo_44KHz.wav
0	15	1	2	0	C	1	1	814	1	poli_8sides 22_whiteLine3.jpg	Practice2_b27_cut2_stereo_44KHz.wav
0	16	2	4	0	C	1	1	660	1	poli_8sides 23_whiteLine3.jpg	Practice1_b27_cut1_stereo_44KHz.wav
0	17	1	2	0	C	1	1	610	1	poli_8sides 22_whiteLine3.jpg	Practice2_b27_cut2_stereo_44KHz.wav
0	18	1	1	1	C	2	1	780	1	poli_8sides 22_whiteLine3.jpg	Practice4_b26_stereo_44KHz.wav
0	19	2	3	1	C	2	1	842	1	poli_8sides 23_whiteLine3.jpg	Practice3_b26_cut1_stereo_44KHz.wav
0	20	2	4	0	C	2	0	1018	0	poli_8sides 23_whiteLine3.jpg	Practice1_b27_cut1_stereo_44KHz.wav
0	21	2	3	1	C	2	1	825	1	poli_8sides 23_whiteLine3.jpg	Practice3_b26_cut1_stereo_44KHz.wav
0	22	1	2	0	C	1	1	874	1	poli_8sides 22_whiteLine3.jpg	Practice2_b27_cut2_stereo_44KHz.wav
0	23	1	1	1	C	2	1	624	1	poli_8sides 22_whiteLine3.jpg	Practice4_b26_stereo_44KHz.wav
0	24	2	4	0	C	1	1	474	1	poli_8sides 23_whiteLine3.jpg	Practice1_b27_cut1_stereo_44KHz.wav
0	25	1	1	1	C	1	0	757	0	poli_8sides 22_whiteLine3.jpg	Practice4_b26_stereo_44KHz.wav
0	26	2	3	1	C	1	0	964	0	poli_8sides 23_whiteLine3.jpg	Practice3_b26_cut1_stereo_44KHz.wav
0	27	1	2	0	C	1	1	642	1	poli_8sides 22_whiteLine3.jpg	Practice2_b27_cut2_stereo_44KHz.wav
0	28	2	4	0	C	1	1	750	1	poli_8sides 23_whiteLine3.jpg	Practice1_b27_cut1_stereo_44KHz.wav
0	29	2	3	1	C	2	1	1106	1	poli_8sides 23_whiteLine3.jpg	Practice3_b26_cut1_stereo_44KHz.wav
0	30	1	2	0	C	1	1	413	1	poli_8sides 22_whiteLine3.jpg	Practice2_b27_cut2_stereo_44KHz.wav
avg_resp = 726
1	1	4	4	2	I	2	0	910	0	poli_8sides 13_whiteLine3.jpg	Medium_e01_cut1_stereo_44KHz.wav
1	2	1	1	1	C	1	0	814	0	poli_8sides 1_whiteLine3.jpg	Medium_e13_stereo_44KHz.wav
1	3	3	4	2	I	2	0	1139	0	poli_8sides 18_whiteLine3.jpg	Medium_e01_cut1_stereo_44KHz.wav
1	4	2	1	0	C	1	1	738	1	poli_8sides 15_whiteLine3.jpg	Medium_e13_stereo_44KHz.wav
1	5	1	2	0	C	2	0	746	0	poli_8sides 1_whiteLine3.jpg	MediumLong_e04_stereo_44KHz.wav
1	6	2	2	1	C	2	1	1318	1	poli_8sides 15_whiteLine3.jpg	MediumLong_e04_stereo_44KHz.wav
1	7	3	3	2	I	1	0	1319	1	poli_8sides 18_whiteLine3.jpg	MediumLong_e17_cut2_stereo_44KHz.wav
1	8	4	3	2	I	2	0	891	1	poli_8sides 13_whiteLine3.jpg	MediumLong_e17_cut2_stereo_44KHz.wav
1	9	1	2	0	C	1	1	967	1	poli_8sides 1_whiteLine3.jpg	MediumLong_e04_stereo_44KHz.wav
1	10	4	4	2	I	2	0	675	1	poli_8sides 13_whiteLine3.jpg	Medium_e01_cut1_stereo_44KHz.wav
1	11	2	1	0	C	1	1	505	1	poli_8sides 15_whiteLine3.jpg	Medium_e13_stereo_44KHz.wav
1	12	3	3	2	I	1	0	718	0	poli_8sides 18_whiteLine3.jpg	MediumLong_e17_cut2_stereo_44KHz.wav
1	13	2	2	1	C	2	1	806	1	poli_8sides 15_whiteLine3.jpg	MediumLong_e04_stereo_44KHz.wav
1	14	4	3	2	I	1	0	903	1	poli_8sides 13_whiteLine3.jpg	MediumLong_e17_cut2_stereo_44KHz.wav
1	15	1	1	1	C	2	1	731	1	poli_8sides 1_whiteLine3.jpg	Medium_e13_stereo_44KHz.wav
1	16	3	4	2	I	2	0	1014	1	poli_8sides 18_whiteLine3.jpg	Medium_e01_cut1_stereo_44KHz.wav
1	17	2	1	0	C	1	1	724	1	poli_8sides 15_whiteLine3.jpg	Medium_e13_stereo_44KHz.wav
1	18	1	1	1	C	2	1	629	1	poli_8sides 1_whiteLine3.jpg	Medium_e13_stereo_44KHz.wav
1	19	4	4	2	I	2	0	600	0	poli_8sides 13_whiteLine3.jpg	Medium_e01_cut1_stereo_44KHz.wav
1	20	3	3	2	I	1	0	661	1	poli_8sides 18_whiteLine3.jpg	MediumLong_e17_cut2_stereo_44KHz.wav
1	21	4	3	2	I	2	0	1217	1	poli_8sides 13_whiteLine3.jpg	MediumLong_e17_cut2_stereo_44KHz.wav
1	22	3	4	2	I	2	0	922	1	poli_8sides 18_whiteLine3.jpg	Medium_e01_cut1_stereo_44KHz.wav
1	23	1	2	0	C	1	1	814	1	poli_8sides 1_whiteLine3.jpg	MediumLong_e04_stereo_44KHz.wav
1	24	2	2	1	C	2	1	747	1	poli_8sides 15_whiteLine3.jpg	MediumLong_e04_stereo_44KHz.wav
1	25	1	1	1	C	2	1	737	1	poli_8sides 1_whiteLine3.jpg	Medium_e13_stereo_44KHz.wav
1	26	4	4	2	I	2	0	800	0	poli_8sides 13_whiteLine3.jpg	Medium_e01_cut1_stereo_44KHz.wav
1	27	3	4	2	I	2	0	701	1	poli_8sides 18_whiteLine3.jpg	Medium_e01_cut1_stereo_44KHz.wav
1	28	2	1	0	C	1	1	689	1	poli_8sides 15_whiteLine3.jpg	Medium_e13_stereo_44KHz.wav
1	29	1	2	0	C	1	1	695	1	poli_8sides 1_whiteLine3.jpg	MediumLong_e04_stereo_44KHz.wav
1	30	3	3	2	I	1	0	975	1	poli_8sides 18_whiteLine3.jpg	MediumLong_e17_cut2_stereo_44KHz.wav
1	31	2	2	1	C	2	1	996	1	poli_8sides 15_whiteLine3.jpg	MediumLong_e04_stereo_44KHz.wav
1	32	4	3	2	I	2	0	677	0	poli_8sides 13_whiteLine3.jpg	MediumLong_e17_cut2_stereo_44KHz.wav
1	33	1	2	0	C	1	1	714	1	poli_8sides 1_whiteLine3.jpg	MediumLong_e04_stereo_44KHz.wav
1	34	4	3	2	I	2	0	1116	1	poli_8sides 13_whiteLine3.jpg	MediumLong_e17_cut2_stereo_44KHz.wav
1	35	2	2	1	C	2	1	619	1	poli_8sides 15_whiteLine3.jpg	MediumLong_e04_stereo_44KHz.wav
1	36	3	4	2	I	2	0	654	0	poli_8sides 18_whiteLine3.jpg	Medium_e01_cut1_stereo_44KHz.wav
1	37	4	4	2	I	2	0	643	0	poli_8sides 13_whiteLine3.jpg	Medium_e01_cut1_stereo_44KHz.wav
1	38	1	1	1	C	2	1	910	1	poli_8sides 1_whiteLine3.jpg	Medium_e13_stereo_44KHz.wav
1	39	3	3	2	I	2	0	696	0	poli_8sides 18_whiteLine3.jpg	MediumLong_e17_cut2_stereo_44KHz.wav
1	40	2	1	0	C	1	1	576	1	poli_8sides 15_whiteLine3.jpg	Medium_e13_stereo_44KHz.wav
1	41	3	4	2	I	2	0	706	0	poli_8sides 18_whiteLine3.jpg	Medium_e01_cut1_stereo_44KHz.wav
1	42	2	1	0	C	1	1	546	1	poli_8sides 15_whiteLine3.jpg	Medium_e13_stereo_44KHz.wav
1	43	1	1	1	C	2	1	557	1	poli_8sides 1_whiteLine3.jpg	Medium_e13_stereo_44KHz.wav
1	44	4	3	2	I	2	0	678	0	poli_8sides 13_whiteLine3.jpg	MediumLong_e17_cut2_stereo_44KHz.wav
1	45	2	2	1	C	2	1	702	1	poli_8sides 15_whiteLine3.jpg	MediumLong_e04_stereo_44KHz.wav
1	46	1	2	0	C	2	0	406	0	poli_8sides 1_whiteLine3.jpg	MediumLong_e04_stereo_44KHz.wav
1	47	3	3	2	I	2	0	673	0	poli_8sides 18_whiteLine3.jpg	MediumLong_e17_cut2_stereo_44KHz.wav
1	48	4	4	2	I	1	0	944	1	poli_8sides 13_whiteLine3.jpg	Medium_e01_cut1_stereo_44KHz.wav
1	49	3	3	2	I	1	0	654	0	poli_8sides 18_whiteLine3.jpg	MediumLong_e17_cut2_stereo_44KHz.wav
1	50	1	1	1	C	2	1	867	1	poli_8sides 1_whiteLine3.jpg	Medium_e13_stereo_44KHz.wav
1	51	2	2	1	C	2	1	655	1	poli_8sides 15_whiteLine3.jpg	MediumLong_e04_stereo_44KHz.wav
1	52	4	3	2	I	2	0	619	0	poli_8sides 13_whiteLine3.jpg	MediumLong_e17_cut2_stereo_44KHz.wav
1	53	1	2	0	C	2	0	583	0	poli_8sides 1_whiteLine3.jpg	MediumLong_e04_stereo_44KHz.wav
1	54	2	1	0	C	1	1	521	1	poli_8sides 15_whiteLine3.jpg	Medium_e13_stereo_44KHz.wav
1	55	4	4	2	I	1	0	817	0	poli_8sides 13_whiteLine3.jpg	Medium_e01_cut1_stereo_44KHz.wav
1	56	3	4	2	I	1	0	668	0	poli_8sides 18_whiteLine3.jpg	Medium_e01_cut1_stereo_44KHz.wav
1	57	1	1	1	C	2	1	670	1	poli_8sides 1_whiteLine3.jpg	Medium_e13_stereo_44KHz.wav
1	58	3	4	2	I	2	0	728	0	poli_8sides 18_whiteLine3.jpg	Medium_e01_cut1_stereo_44KHz.wav
1	59	4	3	2	I	1	0	685	0	poli_8sides 13_whiteLine3.jpg	MediumLong_e17_cut2_stereo_44KHz.wav
1	60	2	1	0	C	1	1	576	1	poli_8sides 15_whiteLine3.jpg	Medium_e13_stereo_44KHz.wav
1	61	1	2	0	C	1	1	605	1	poli_8sides 1_whiteLine3.jpg	MediumLong_e04_stereo_44KHz.wav
1	62	4	4	2	I	1	0	459	1	poli_8sides 13_whiteLine3.jpg	Medium_e01_cut1_stereo_44KHz.wav
1	63	2	2	1	C	2	1	658	1	poli_8sides 15_whiteLine3.jpg	MediumLong_e04_stereo_44KHz.wav
1	64	3	3	2	I	2	0	653	0	poli_8sides 18_whiteLine3.jpg	MediumLong_e17_cut2_stereo_44KHz.wav
1	65	2	1	0	C	1	1	675	1	poli_8sides 15_whiteLine3.jpg	Medium_e13_stereo_44KHz.wav
1	66	4	4	2	I	2	0	1274	0	poli_8sides 13_whiteLine3.jpg	Medium_e01_cut1_stereo_44KHz.wav
1	67	1	2	0	C	1	1	644	1	poli_8sides 1_whiteLine3.jpg	MediumLong_e04_stereo_44KHz.wav
1	68	3	3	2	I	1	0	541	0	poli_8sides 18_whiteLine3.jpg	MediumLong_e17_cut2_stereo_44KHz.wav
1	69	2	2	1	C	2	1	727	1	poli_8sides 15_whiteLine3.jpg	MediumLong_e04_stereo_44KHz.wav
1	70	3	4	2	I	1	0	842	1	poli_8sides 18_whiteLine3.jpg	Medium_e01_cut1_stereo_44KHz.wav
1	71	4	3	2	I	1	0	585	1	poli_8sides 13_whiteLine3.jpg	MediumLong_e17_cut2_stereo_44KHz.wav
1	72	1	1	1	C	2	1	715	1	poli_8sides 1_whiteLine3.jpg	Medium_e13_stereo_44KHz.wav
1	73	2	1	0	C	1	1	781	1	poli_8sides 15_whiteLine3.jpg	Medium_e13_stereo_44KHz.wav
1	74	1	2	0	C	1	1	671	1	poli_8sides 1_whiteLine3.jpg	MediumLong_e04_stereo_44KHz.wav
1	75	3	4	2	I	2	0	929	0	poli_8sides 18_whiteLine3.jpg	Medium_e01_cut1_stereo_44KHz.wav
1	76	4	3	2	I	2	0	828	0	poli_8sides 13_whiteLine3.jpg	MediumLong_e17_cut2_stereo_44KHz.wav
1	77	2	2	1	C	2	1	674	1	poli_8sides 15_whiteLine3.jpg	MediumLong_e04_stereo_44KHz.wav
1	78	3	3	2	I	2	0	1167	1	poli_8sides 18_whiteLine3.jpg	MediumLong_e17_cut2_stereo_44KHz.wav
1	79	1	1	1	C	2	1	802	1	poli_8sides 1_whiteLine3.jpg	Medium_e13_stereo_44KHz.wav
1	80	4	4	2	I	2	0	568	0	poli_8sides 13_whiteLine3.jpg	Medium_e01_cut1_stereo_44KHz.wav
1	81	1	2	0	C	1	1	744	1	poli_8sides 1_whiteLine3.jpg	MediumLong_e04_stereo_44KHz.wav
1	82	4	4	2	I	1	0	814	0	poli_8sides 13_whiteLine3.jpg	Medium_e01_cut1_stereo_44KHz.wav
1	83	3	4	2	I	2	0	631	1	poli_8sides 18_whiteLine3.jpg	Medium_e01_cut1_stereo_44KHz.wav
1	84	2	1	0	C	1	1	680	1	poli_8sides 15_whiteLine3.jpg	Medium_e13_stereo_44KHz.wav
1	85	1	1	1	C	2	1	687	1	poli_8sides 1_whiteLine3.jpg	Medium_e13_stereo_44KHz.wav
1	86	4	3	2	I	2	0	585	1	poli_8sides 13_whiteLine3.jpg	MediumLong_e17_cut2_stereo_44KHz.wav
1	87	3	3	2	I	2	0	1039	0	poli_8sides 18_whiteLine3.jpg	MediumLong_e17_cut2_stereo_44KHz.wav
1	88	2	2	1	C	2	1	849	1	poli_8sides 15_whiteLine3.jpg	MediumLong_e04_stereo_44KHz.wav
1	89	3	4	2	I	1	0	612	0	poli_8sides 18_whiteLine3.jpg	Medium_e01_cut1_stereo_44KHz.wav
1	90	4	3	2	I	2	0	577	1	poli_8sides 13_whiteLine3.jpg	MediumLong_e17_cut2_stereo_44KHz.wav
1	91	2	1	0	C	1	1	776	1	poli_8sides 15_whiteLine3.jpg	Medium_e13_stereo_44KHz.wav
1	92	1	1	1	C	2	1	675	1	poli_8sides 1_whiteLine3.jpg	Medium_e13_stereo_44KHz.wav
1	93	4	4	2	I	2	0	655	1	poli_8sides 13_whiteLine3.jpg	Medium_e01_cut1_stereo_44KHz.wav
1	94	3	3	2	I	1	0	503	1	poli_8sides 18_whiteLine3.jpg	MediumLong_e17_cut2_stereo_44KHz.wav
1	95	2	2	1	C	2	1	777	1	poli_8sides 15_whiteLine3.jpg	MediumLong_e04_stereo_44KHz.wav
1	96	1	2	0	C	2	0	507	0	poli_8sides 1_whiteLine3.jpg	MediumLong_e04_stereo_44KHz.wav
1	97	3	3	2	I	2	0	566	1	poli_8sides 18_whiteLine3.jpg	MediumLong_e17_cut2_stereo_44KHz.wav
1	98	1	1	1	C	1	0	970	0	poli_8sides 1_whiteLine3.jpg	Medium_e13_stereo_44KHz.wav
1	99	4	4	2	I	2	0	710	0	poli_8sides 13_whiteLine3.jpg	Medium_e01_cut1_stereo_44KHz.wav
1	100	2	1	0	C	1	1	592	1	poli_8sides 15_whiteLine3.jpg	Medium_e13_stereo_44KHz.wav
1	101	3	4	2	I	2	0	811	1	poli_8sides 18_whiteLine3.jpg	Medium_e01_cut1_stereo_44KHz.wav
1	102	4	3	2	I	1	0	454	1	poli_8sides 13_whiteLine3.jpg	MediumLong_e17_cut2_stereo_44KHz.wav
1	103	1	2	0	C	2	0	707	0	poli_8sides 1_whiteLine3.jpg	MediumLong_e04_stereo_44KHz.wav
1	104	2	2	1	C	2	1	754	1	poli_8sides 15_whiteLine3.jpg	MediumLong_e04_stereo_44KHz.wav
1	105	3	4	2	I	1	0	849	0	poli_8sides 18_whiteLine3.jpg	Medium_e01_cut1_stereo_44KHz.wav
1	106	4	3	2	I	2	0	812	1	poli_8sides 13_whiteLine3.jpg	MediumLong_e17_cut2_stereo_44KHz.wav
1	107	2	2	1	C	2	1	726	1	poli_8sides 15_whiteLine3.jpg	MediumLong_e04_stereo_44KHz.wav
1	108	1	2	0	C	1	1	766	1	poli_8sides 1_whiteLine3.jpg	MediumLong_e04_stereo_44KHz.wav
1	109	3	3	2	I	1	0	758	1	poli_8sides 18_whiteLine3.jpg	MediumLong_e17_cut2_stereo_44KHz.wav
1	110	1	1	1	C	2	1	945	1	poli_8sides 1_whiteLine3.jpg	Medium_e13_stereo_44KHz.wav
1	111	2	1	0	C	1	1	720	1	poli_8sides 15_whiteLine3.jpg	Medium_e13_stereo_44KHz.wav
1	112	4	4	2	I	1	0	760	1	poli_8sides 13_whiteLine3.jpg	Medium_e01_cut1_stereo_44KHz.wav
1	113	1	1	1	C	2	1	702	1	poli_8sides 1_whiteLine3.jpg	Medium_e13_stereo_44KHz.wav
1	114	3	4	2	I	2	0	820	0	poli_8sides 18_whiteLine3.jpg	Medium_e01_cut1_stereo_44KHz.wav
1	115	4	3	2	I	1	0	1376	1	poli_8sides 13_whiteLine3.jpg	MediumLong_e17_cut2_stereo_44KHz.wav
1	116	2	2	1	C	2	1	755	1	poli_8sides 15_whiteLine3.jpg	MediumLong_e04_stereo_44KHz.wav
1	117	1	2	0	C	1	1	749	1	poli_8sides 1_whiteLine3.jpg	MediumLong_e04_stereo_44KHz.wav
1	118	4	4	2	I	1	0	887	0	poli_8sides 13_whiteLine3.jpg	Medium_e01_cut1_stereo_44KHz.wav
1	119	2	1	0	C	1	1	694	1	poli_8sides 15_whiteLine3.jpg	Medium_e13_stereo_44KHz.wav
1	120	3	3	2	I	2	0	1173	0	poli_8sides 18_whiteLine3.jpg	MediumLong_e17_cut2_stereo_44KHz.wav
1	121	4	4	2	I	1	0	649	0	poli_8sides 13_whiteLine3.jpg	Medium_e01_cut1_stereo_44KHz.wav
1	122	3	3	2	I	2	0	977	1	poli_8sides 18_whiteLine3.jpg	MediumLong_e17_cut2_stereo_44KHz.wav
1	123	1	1	1	C	2	1	878	1	poli_8sides 1_whiteLine3.jpg	Medium_e13_stereo_44KHz.wav
1	124	2	1	0	C	1	1	682	1	poli_8sides 15_whiteLine3.jpg	Medium_e13_stereo_44KHz.wav
1	125	3	4	2	I	2	0	619	0	poli_8sides 18_whiteLine3.jpg	Medium_e01_cut1_stereo_44KHz.wav
1	126	1	2	0	C	2	0	639	0	poli_8sides 1_whiteLine3.jpg	MediumLong_e04_stereo_44KHz.wav
1	127	4	3	2	I	2	0	655	0	poli_8sides 13_whiteLine3.jpg	MediumLong_e17_cut2_stereo_44KHz.wav
1	128	2	2	1	C	2	1	664	1	poli_8sides 15_whiteLine3.jpg	MediumLong_e04_stereo_44KHz.wav
1	129	1	2	0	C	2	0	755	0	poli_8sides 1_whiteLine3.jpg	MediumLong_e04_stereo_44KHz.wav
1	130	2	1	0	C	1	1	664	1	poli_8sides 15_whiteLine3.jpg	Medium_e13_stereo_44KHz.wav
1	131	3	3	2	I	2	0	725	0	poli_8sides 18_whiteLine3.jpg	MediumLong_e17_cut2_stereo_44KHz.wav
1	132	4	4	2	I	2	0	658	1	poli_8sides 13_whiteLine3.jpg	Medium_e01_cut1_stereo_44KHz.wav
1	133	1	1	1	C	2	1	737	1	poli_8sides 1_whiteLine3.jpg	Medium_e13_stereo_44KHz.wav
1	134	2	2	1	C	2	1	678	1	poli_8sides 15_whiteLine3.jpg	MediumLong_e04_stereo_44KHz.wav
1	135	3	4	2	I	2	0	618	1	poli_8sides 18_whiteLine3.jpg	Medium_e01_cut1_stereo_44KHz.wav
1	136	4	3	2	I	2	0	715	1	poli_8sides 13_whiteLine3.jpg	MediumLong_e17_cut2_stereo_44KHz.wav
1	137	3	3	2	I	1	0	814	0	poli_8sides 18_whiteLine3.jpg	MediumLong_e17_cut2_stereo_44KHz.wav
1	138	4	4	2	I	2	0	959	0	poli_8sides 13_whiteLine3.jpg	Medium_e01_cut1_stereo_44KHz.wav
1	139	1	2	0	C	1	1	1184	1	poli_8sides 1_whiteLine3.jpg	MediumLong_e04_stereo_44KHz.wav
1	140	2	2	1	C	2	1	714	1	poli_8sides 15_whiteLine3.jpg	MediumLong_e04_stereo_44KHz.wav
1	141	4	3	2	I	2	0	701	0	poli_8sides 13_whiteLine3.jpg	MediumLong_e17_cut2_stereo_44KHz.wav
1	142	1	1	1	C	2	1	1237	1	poli_8sides 1_whiteLine3.jpg	Medium_e13_stereo_44KHz.wav
1	143	3	4	2	I	2	0	762	1	poli_8sides 18_whiteLine3.jpg	Medium_e01_cut1_stereo_44KHz.wav
1	144	2	1	0	C	1	1	551	1	poli_8sides 15_whiteLine3.jpg	Medium_e13_stereo_44KHz.wav
1	145	4	4	2	I	2	0	802	1	poli_8sides 13_whiteLine3.jpg	Medium_e01_cut1_stereo_44KHz.wav
1	146	3	4	2	I	2	0	694	0	poli_8sides 18_whiteLine3.jpg	Medium_e01_cut1_stereo_44KHz.wav
1	147	1	2	0	C	1	1	644	1	poli_8sides 1_whiteLine3.jpg	MediumLong_e04_stereo_44KHz.wav
1	148	2	1	0	C	1	1	504	1	poli_8sides 15_whiteLine3.jpg	Medium_e13_stereo_44KHz.wav
1	149	1	1	1	C	2	1	816	1	poli_8sides 1_whiteLine3.jpg	Medium_e13_stereo_44KHz.wav
1	150	2	2	1	C	2	1	929	1	poli_8sides 15_whiteLine3.jpg	MediumLong_e04_stereo_44KHz.wav
1	151	3	3	2	I	2	0	739	1	poli_8sides 18_whiteLine3.jpg	MediumLong_e17_cut2_stereo_44KHz.wav
1	152	4	3	2	I	1	0	880	0	poli_8sides 13_whiteLine3.jpg	MediumLong_e17_cut2_stereo_44KHz.wav
1	153	2	1	0	C	1	1	1001	1	poli_8sides 15_whiteLine3.jpg	Medium_e13_stereo_44KHz.wav
1	154	4	3	2	I	2	0	584	0	poli_8sides 13_whiteLine3.jpg	MediumLong_e17_cut2_stereo_44KHz.wav
1	155	3	4	2	I	2	0	601	1	poli_8sides 18_whiteLine3.jpg	Medium_e01_cut1_stereo_44KHz.wav
1	156	1	2	0	C	1	1	803	1	poli_8sides 1_whiteLine3.jpg	MediumLong_e04_stereo_44KHz.wav
1	157	3	3	2	I	1	0	1601	0	poli_8sides 18_whiteLine3.jpg	MediumLong_e17_cut2_stereo_44KHz.wav
1	158	2	2	1	C	2	1	1085	1	poli_8sides 15_whiteLine3.jpg	MediumLong_e04_stereo_44KHz.wav
1	159	1	1	1	C	2	1	1018	1	poli_8sides 1_whiteLine3.jpg	Medium_e13_stereo_44KHz.wav
1	160	4	4	2	I	2	0	723	1	poli_8sides 13_whiteLine3.jpg	Medium_e01_cut1_stereo_44KHz.wav
1	161	1	2	0	C	1	1	770	1	poli_8sides 1_whiteLine3.jpg	MediumLong_e04_stereo_44KHz.wav
1	162	3	3	2	I	2	0	690	1	poli_8sides 18_whiteLine3.jpg	MediumLong_e17_cut2_stereo_44KHz.wav
1	163	4	4	2	I	1	0	1822	0	poli_8sides 13_whiteLine3.jpg	Medium_e01_cut1_stereo_44KHz.wav
1	164	2	2	1	C	2	1	687	1	poli_8sides 15_whiteLine3.jpg	MediumLong_e04_stereo_44KHz.wav
1	165	3	4	2	I	1	0	766	1	poli_8sides 18_whiteLine3.jpg	Medium_e01_cut1_stereo_44KHz.wav
1	166	1	1	1	C	2	1	909	1	poli_8sides 1_whiteLine3.jpg	Medium_e13_stereo_44KHz.wav
1	167	4	3	2	I	1	0	728	1	poli_8sides 13_whiteLine3.jpg	MediumLong_e17_cut2_stereo_44KHz.wav
1	168	2	1	0	C	1	1	714	1	poli_8sides 15_whiteLine3.jpg	Medium_e13_stereo_44KHz.wav
1	169	3	4	2	I	1	0	962	0	poli_8sides 18_whiteLine3.jpg	Medium_e01_cut1_stereo_44KHz.wav
1	170	4	3	2	I	2	0	1593	1	poli_8sides 13_whiteLine3.jpg	MediumLong_e17_cut2_stereo_44KHz.wav
1	171	1	1	1	C	2	1	947	1	poli_8sides 1_whiteLine3.jpg	Medium_e13_stereo_44KHz.wav
1	172	2	1	0	C	1	1	715	1	poli_8sides 15_whiteLine3.jpg	Medium_e13_stereo_44KHz.wav
1	173	3	3	2	I	2	0	900	0	poli_8sides 18_whiteLine3.jpg	MediumLong_e17_cut2_stereo_44KHz.wav
1	174	1	2	0	C	1	1	704	1	poli_8sides 1_whiteLine3.jpg	MediumLong_e04_stereo_44KHz.wav
1	175	2	2	1	C	2	1	813	1	poli_8sides 15_whiteLine3.jpg	MediumLong_e04_stereo_44KHz.wav
1	176	4	4	2	I	1	0	771	1	poli_8sides 13_whiteLine3.jpg	Medium_e01_cut1_stereo_44KHz.wav
1	177	3	4	2	I	2	0	738	1	poli_8sides 18_whiteLine3.jpg	Medium_e01_cut1_stereo_44KHz.wav
1	178	2	2	1	C	2	1	751	1	poli_8sides 15_whiteLine3.jpg	MediumLong_e04_stereo_44KHz.wav
1	179	1	1	1	C	2	1	682	1	poli_8sides 1_whiteLine3.jpg	Medium_e13_stereo_44KHz.wav
1	180	4	4	2	I	2	0	796	0	poli_8sides 13_whiteLine3.jpg	Medium_e01_cut1_stereo_44KHz.wav
1	181	1	2	0	C	2	0	766	0	poli_8sides 1_whiteLine3.jpg	MediumLong_e04_stereo_44KHz.wav
1	182	4	3	2	I	2	0	651	0	poli_8sides 13_whiteLine3.jpg	MediumLong_e17_cut2_stereo_44KHz.wav
1	183	3	3	2	I	2	0	856	1	poli_8sides 18_whiteLine3.jpg	MediumLong_e17_cut2_stereo_44KHz.wav
1	184	2	1	0	C	1	1	721	1	poli_8sides 15_whiteLine3.jpg	Medium_e13_stereo_44KHz.wav
1	185	3	4	2	I	1	0	842	1	poli_8sides 18_whiteLine3.jpg	Medium_e01_cut1_stereo_44KHz.wav
1	186	4	3	2	I	1	0	543	1	poli_8sides 13_whiteLine3.jpg	MediumLong_e17_cut2_stereo_44KHz.wav
1	187	2	2	1	C	2	1	1254	1	poli_8sides 15_whiteLine3.jpg	MediumLong_e04_stereo_44KHz.wav
1	188	1	2	0	C	1	1	961	1	poli_8sides 1_whiteLine3.jpg	MediumLong_e04_stereo_44KHz.wav
1	189	2	1	0	C	1	1	731	1	poli_8sides 15_whiteLine3.jpg	Medium_e13_stereo_44KHz.wav
1	190	1	1	1	C	2	1	791	1	poli_8sides 1_whiteLine3.jpg	Medium_e13_stereo_44KHz.wav
1	191	4	4	2	I	2	0	739	1	poli_8sides 13_whiteLine3.jpg	Medium_e01_cut1_stereo_44KHz.wav
1	192	3	3	2	I	2	0	658	0	poli_8sides 18_whiteLine3.jpg	MediumLong_e17_cut2_stereo_44KHz.wav
1	193	1	1	1	C	2	1	695	1	poli_8sides 1_whiteLine3.jpg	Medium_e13_stereo_44KHz.wav
1	194	4	4	2	I	1	0	702	0	poli_8sides 13_whiteLine3.jpg	Medium_e01_cut1_stereo_44KHz.wav
1	195	3	4	2	I	1	0	705	1	poli_8sides 18_whiteLine3.jpg	Medium_e01_cut1_stereo_44KHz.wav
1	196	2	2	1	C	2	1	644	1	poli_8sides 15_whiteLine3.jpg	MediumLong_e04_stereo_44KHz.wav
1	197	3	3	2	I	2	0	906	1	poli_8sides 18_whiteLine3.jpg	MediumLong_e17_cut2_stereo_44KHz.wav
1	198	2	1	0	C	1	1	757	1	poli_8sides 15_whiteLine3.jpg	Medium_e13_stereo_44KHz.wav
1	199	1	2	0	C	1	1	1649	1	poli_8sides 1_whiteLine3.jpg	MediumLong_e04_stereo_44KHz.wav
1	200	4	3	2	I	2	0	967	1	poli_8sides 13_whiteLine3.jpg	MediumLong_e17_cut2_stereo_44KHz.wav
2	1	3	4	2	I	2	0	903	1	poli_8sides 2_whiteLine3.jpg	MediumShort_b10_cut1_MS_stereo_44KHz.wav
2	2	4	3	2	I	1	0	675	0	poli_8sides 4_whiteLine3.jpg	MediumShort_e22_cut1_stereo_44KHz.wav
2	3	2	1	0	C	1	1	1037	1	poli_8sides 9_whiteLine3.jpg	MediumShort_e16_cut1_stereo_44KHz.wav
2	4	1	1	1	C	2	1	758	1	poli_8sides 6_whiteLine3.jpg	MediumShort_e16_cut1_stereo_44KHz.wav
2	5	4	4	2	I	2	0	769	0	poli_8sides 4_whiteLine3.jpg	MediumShort_b10_cut1_MS_stereo_44KHz.wav
2	6	1	2	0	C	1	1	879	1	poli_8sides 6_whiteLine3.jpg	MediumShort_b16_cut3_MS_stereo_44KHz.wav
2	7	3	3	2	I	2	0	629	1	poli_8sides 2_whiteLine3.jpg	MediumShort_e22_cut1_stereo_44KHz.wav
2	8	2	2	1	C	1	0	878	0	poli_8sides 9_whiteLine3.jpg	MediumShort_b16_cut3_MS_stereo_44KHz.wav
2	9	1	1	1	C	2	1	778	1	poli_8sides 6_whiteLine3.jpg	MediumShort_e16_cut1_stereo_44KHz.wav
2	10	4	3	2	I	1	0	724	1	poli_8sides 4_whiteLine3.jpg	MediumShort_e22_cut1_stereo_44KHz.wav
2	11	2	1	0	C	1	1	901	1	poli_8sides 9_whiteLine3.jpg	MediumShort_e16_cut1_stereo_44KHz.wav
2	12	3	4	2	I	2	0	855	0	poli_8sides 2_whiteLine3.jpg	MediumShort_b10_cut1_MS_stereo_44KHz.wav
2	13	4	4	2	I	1	0	893	0	poli_8sides 4_whiteLine3.jpg	MediumShort_b10_cut1_MS_stereo_44KHz.wav
2	14	3	3	2	I	2	0	913	0	poli_8sides 2_whiteLine3.jpg	MediumShort_e22_cut1_stereo_44KHz.wav
2	15	1	2	0	C	1	1	746	1	poli_8sides 6_whiteLine3.jpg	MediumShort_b16_cut3_MS_stereo_44KHz.wav
2	16	2	2	1	C	2	1	660	1	poli_8sides 9_whiteLine3.jpg	MediumShort_b16_cut3_MS_stereo_44KHz.wav
2	17	1	2	0	C	1	1	861	1	poli_8sides 6_whiteLine3.jpg	MediumShort_b16_cut3_MS_stereo_44KHz.wav
2	18	3	4	2	I	2	0	724	0	poli_8sides 2_whiteLine3.jpg	MediumShort_b10_cut1_MS_stereo_44KHz.wav
2	19	2	2	1	C	2	1	1081	1	poli_8sides 9_whiteLine3.jpg	MediumShort_b16_cut3_MS_stereo_44KHz.wav
2	20	4	4	2	I	2	0	723	1	poli_8sides 4_whiteLine3.jpg	MediumShort_b10_cut1_MS_stereo_44KHz.wav
2	21	3	3	2	I	2	0	778	0	poli_8sides 2_whiteLine3.jpg	MediumShort_e22_cut1_stereo_44KHz.wav
2	22	4	3	2	I	1	0	1414	0	poli_8sides 4_whiteLine3.jpg	MediumShort_e22_cut1_stereo_44KHz.wav
2	23	1	1	1	C	2	1	922	1	poli_8sides 6_whiteLine3.jpg	MediumShort_e16_cut1_stereo_44KHz.wav
2	24	2	1	0	C	1	1	837	1	poli_8sides 9_whiteLine3.jpg	MediumShort_e16_cut1_stereo_44KHz.wav
2	25	4	4	2	I	2	0	766	0	poli_8sides 4_whiteLine3.jpg	MediumShort_b10_cut1_MS_stereo_44KHz.wav
2	26	2	1	0	C	1	1	878	1	poli_8sides 9_whiteLine3.jpg	MediumShort_e16_cut1_stereo_44KHz.wav
2	27	1	1	1	C	2	1	638	1	poli_8sides 6_whiteLine3.jpg	MediumShort_e16_cut1_stereo_44KHz.wav
2	28	3	3	2	I	2	0	699	1	poli_8sides 2_whiteLine3.jpg	MediumShort_e22_cut1_stereo_44KHz.wav
2	29	4	3	2	I	1	0	814	1	poli_8sides 4_whiteLine3.jpg	MediumShort_e22_cut1_stereo_44KHz.wav
2	30	3	4	2	I	2	0	969	1	poli_8sides 2_whiteLine3.jpg	MediumShort_b10_cut1_MS_stereo_44KHz.wav
2	31	1	2	0	C	1	1	877	1	poli_8sides 6_whiteLine3.jpg	MediumShort_b16_cut3_MS_stereo_44KHz.wav
2	32	2	2	1	C	2	1	1003	1	poli_8sides 9_whiteLine3.jpg	MediumShort_b16_cut3_MS_stereo_44KHz.wav
2	33	4	3	2	I	1	0	801	1	poli_8sides 4_whiteLine3.jpg	MediumShort_e22_cut1_stereo_44KHz.wav
2	34	1	2	0	C	1	1	775	1	poli_8sides 6_whiteLine3.jpg	MediumShort_b16_cut3_MS_stereo_44KHz.wav
2	35	3	4	2	I	2	0	805	1	poli_8sides 2_whiteLine3.jpg	MediumShort_b10_cut1_MS_stereo_44KHz.wav
2	36	2	2	1	C	2	1	930	1	poli_8sides 9_whiteLine3.jpg	MediumShort_b16_cut3_MS_stereo_44KHz.wav
2	37	3	3	2	I	2	0	1017	1	poli_8sides 2_whiteLine3.jpg	MediumShort_e22_cut1_stereo_44KHz.wav
2	38	4	4	2	I	2	0	749	0	poli_8sides 4_whiteLine3.jpg	MediumShort_b10_cut1_MS_stereo_44KHz.wav
2	39	2	1	0	C	1	1	813	1	poli_8sides 9_whiteLine3.jpg	MediumShort_e16_cut1_stereo_44KHz.wav
2	40	1	1	1	C	2	1	749	1	poli_8sides 6_whiteLine3.jpg	MediumShort_e16_cut1_stereo_44KHz.wav
2	41	3	3	2	I	2	0	753	0	poli_8sides 2_whiteLine3.jpg	MediumShort_e22_cut1_stereo_44KHz.wav
2	42	2	1	0	C	1	1	777	1	poli_8sides 9_whiteLine3.jpg	MediumShort_e16_cut1_stereo_44KHz.wav
2	43	4	3	2	I	1	0	860	1	poli_8sides 4_whiteLine3.jpg	MediumShort_e22_cut1_stereo_44KHz.wav
2	44	1	1	1	C	2	1	788	1	poli_8sides 6_whiteLine3.jpg	MediumShort_e16_cut1_stereo_44KHz.wav
2	45	3	4	2	I	2	0	722	1	poli_8sides 2_whiteLine3.jpg	MediumShort_b10_cut1_MS_stereo_44KHz.wav
2	46	2	2	1	C	2	1	955	1	poli_8sides 9_whiteLine3.jpg	MediumShort_b16_cut3_MS_stereo_44KHz.wav
2	47	1	2	0	C	1	1	675	1	poli_8sides 6_whiteLine3.jpg	MediumShort_b16_cut3_MS_stereo_44KHz.wav
2	48	4	4	2	I	1	0	1257	0	poli_8sides 4_whiteLine3.jpg	MediumShort_b10_cut1_MS_stereo_44KHz.wav
2	49	1	2	0	C	1	1	695	1	poli_8sides 6_whiteLine3.jpg	MediumShort_b16_cut3_MS_stereo_44KHz.wav
2	50	2	1	0	C	1	1	685	1	poli_8sides 9_whiteLine3.jpg	MediumShort_e16_cut1_stereo_44KHz.wav
2	51	4	3	2	I	1	0	841	1	poli_8sides 4_whiteLine3.jpg	MediumShort_e22_cut1_stereo_44KHz.wav
2	52	3	3	2	I	2	0	662	1	poli_8sides 2_whiteLine3.jpg	MediumShort_e22_cut1_stereo_44KHz.wav
2	53	1	1	1	C	2	1	652	1	poli_8sides 6_whiteLine3.jpg	MediumShort_e16_cut1_stereo_44KHz.wav
2	54	2	2	1	C	2	1	633	1	poli_8sides 9_whiteLine3.jpg	MediumShort_b16_cut3_MS_stereo_44KHz.wav
2	55	3	4	2	I	1	0	838	1	poli_8sides 2_whiteLine3.jpg	MediumShort_b10_cut1_MS_stereo_44KHz.wav
2	56	4	4	2	I	2	0	990	1	poli_8sides 4_whiteLine3.jpg	MediumShort_b10_cut1_MS_stereo_44KHz.wav
2	57	1	2	0	C	1	1	901	1	poli_8sides 6_whiteLine3.jpg	MediumShort_b16_cut3_MS_stereo_44KHz.wav
2	58	3	3	2	I	2	0	910	0	poli_8sides 2_whiteLine3.jpg	MediumShort_e22_cut1_stereo_44KHz.wav
2	59	4	4	2	I	2	0	1267	1	poli_8sides 4_whiteLine3.jpg	MediumShort_b10_cut1_MS_stereo_44KHz.wav
2	60	2	1	0	C	1	1	899	1	poli_8sides 9_whiteLine3.jpg	MediumShort_e16_cut1_stereo_44KHz.wav
2	61	1	1	1	C	2	1	760	1	poli_8sides 6_whiteLine3.jpg	MediumShort_e16_cut1_stereo_44KHz.wav
2	62	4	3	2	I	0	0	0	0	poli_8sides 4_whiteLine3.jpg	MediumShort_e22_cut1_stereo_44KHz.wav
2	63	2	2	1	C	2	1	831	1	poli_8sides 9_whiteLine3.jpg	MediumShort_b16_cut3_MS_stereo_44KHz.wav
2	64	3	4	2	I	1	0	752	1	poli_8sides 2_whiteLine3.jpg	MediumShort_b10_cut1_MS_stereo_44KHz.wav
2	65	2	2	1	C	2	1	716	1	poli_8sides 9_whiteLine3.jpg	MediumShort_b16_cut3_MS_stereo_44KHz.wav
2	66	3	4	2	I	2	0	671	0	poli_8sides 2_whiteLine3.jpg	MediumShort_b10_cut1_MS_stereo_44KHz.wav
2	67	1	1	1	C	2	1	707	1	poli_8sides 6_whiteLine3.jpg	MediumShort_e16_cut1_stereo_44KHz.wav
2	68	4	4	2	I	2	0	822	1	poli_8sides 4_whiteLine3.jpg	MediumShort_b10_cut1_MS_stereo_44KHz.wav
2	69	2	1	0	C	1	1	660	1	poli_8sides 9_whiteLine3.jpg	MediumShort_e16_cut1_stereo_44KHz.wav
2	70	4	3	2	I	1	0	850	1	poli_8sides 4_whiteLine3.jpg	MediumShort_e22_cut1_stereo_44KHz.wav
2	71	3	3	2	I	2	0	903	1	poli_8sides 2_whiteLine3.jpg	MediumShort_e22_cut1_stereo_44KHz.wav
2	72	1	2	0	C	1	1	1194	1	poli_8sides 6_whiteLine3.jpg	MediumShort_b16_cut3_MS_stereo_44KHz.wav
2	73	3	4	2	I	2	0	797	0	poli_8sides 2_whiteLine3.jpg	MediumShort_b10_cut1_MS_stereo_44KHz.wav
2	74	1	1	1	C	2	1	805	1	poli_8sides 6_whiteLine3.jpg	MediumShort_e16_cut1_stereo_44KHz.wav
2	75	4	3	2	I	1	0	1645	1	poli_8sides 4_whiteLine3.jpg	MediumShort_e22_cut1_stereo_44KHz.wav
2	76	2	1	0	C	2	0	592	0	poli_8sides 9_whiteLine3.jpg	MediumShort_e16_cut1_stereo_44KHz.wav
2	77	3	3	2	I	2	0	641	0	poli_8sides 2_whiteLine3.jpg	MediumShort_e22_cut1_stereo_44KHz.wav
2	78	2	2	1	C	2	1	704	1	poli_8sides 9_whiteLine3.jpg	MediumShort_b16_cut3_MS_stereo_44KHz.wav
2	79	1	2	0	C	1	1	842	1	poli_8sides 6_whiteLine3.jpg	MediumShort_b16_cut3_MS_stereo_44KHz.wav
2	80	4	4	2	I	2	0	726	0	poli_8sides 4_whiteLine3.jpg	MediumShort_b10_cut1_MS_stereo_44KHz.wav
2	81	2	2	1	C	2	1	716	1	poli_8sides 9_whiteLine3.jpg	MediumShort_b16_cut3_MS_stereo_44KHz.wav
2	82	4	4	2	I	2	0	699	0	poli_8sides 4_whiteLine3.jpg	MediumShort_b10_cut1_MS_stereo_44KHz.wav
2	83	1	1	1	C	2	1	694	1	poli_8sides 6_whiteLine3.jpg	MediumShort_e16_cut1_stereo_44KHz.wav
2	84	3	4	2	I	2	0	799	1	poli_8sides 2_whiteLine3.jpg	MediumShort_b10_cut1_MS_stereo_44KHz.wav
2	85	2	1	0	C	1	1	823	1	poli_8sides 9_whiteLine3.jpg	MediumShort_e16_cut1_stereo_44KHz.wav
2	86	4	3	2	I	1	0	608	0	poli_8sides 4_whiteLine3.jpg	MediumShort_e22_cut1_stereo_44KHz.wav
2	87	3	3	2	I	2	0	1043	1	poli_8sides 2_whiteLine3.jpg	MediumShort_e22_cut1_stereo_44KHz.wav
2	88	1	2	0	C	2	0	1739	0	poli_8sides 6_whiteLine3.jpg	MediumShort_b16_cut3_MS_stereo_44KHz.wav
2	89	4	4	2	I	2	0	789	1	poli_8sides 4_whiteLine3.jpg	MediumShort_b10_cut1_MS_stereo_44KHz.wav
2	90	3	4	2	I	2	0	1110	1	poli_8sides 2_whiteLine3.jpg	MediumShort_b10_cut1_MS_stereo_44KHz.wav
2	91	1	2	0	C	1	1	754	1	poli_8sides 6_whiteLine3.jpg	MediumShort_b16_cut3_MS_stereo_44KHz.wav
2	92	2	1	0	C	1	1	813	1	poli_8sides 9_whiteLine3.jpg	MediumShort_e16_cut1_stereo_44KHz.wav
2	93	1	1	1	C	2	1	437	1	poli_8sides 6_whiteLine3.jpg	MediumShort_e16_cut1_stereo_44KHz.wav
2	94	3	3	2	I	1	0	664	0	poli_8sides 2_whiteLine3.jpg	MediumShort_e22_cut1_stereo_44KHz.wav
2	95	2	2	1	C	2	1	1039	1	poli_8sides 9_whiteLine3.jpg	MediumShort_b16_cut3_MS_stereo_44KHz.wav
2	96	4	3	2	I	2	0	664	0	poli_8sides 4_whiteLine3.jpg	MediumShort_e22_cut1_stereo_44KHz.wav
2	97	2	1	0	C	1	1	732	1	poli_8sides 9_whiteLine3.jpg	MediumShort_e16_cut1_stereo_44KHz.wav
2	98	4	4	2	I	2	0	558	1	poli_8sides 4_whiteLine3.jpg	MediumShort_b10_cut1_MS_stereo_44KHz.wav
2	99	1	2	0	C	1	1	752	1	poli_8sides 6_whiteLine3.jpg	MediumShort_b16_cut3_MS_stereo_44KHz.wav
2	100	3	4	2	I	1	0	680	1	poli_8sides 2_whiteLine3.jpg	MediumShort_b10_cut1_MS_stereo_44KHz.wav
2	101	1	1	1	C	2	1	844	1	poli_8sides 6_whiteLine3.jpg	MediumShort_e16_cut1_stereo_44KHz.wav
2	102	2	2	1	C	2	1	833	1	poli_8sides 9_whiteLine3.jpg	MediumShort_b16_cut3_MS_stereo_44KHz.wav
2	103	4	3	2	I	1	0	486	1	poli_8sides 4_whiteLine3.jpg	MediumShort_e22_cut1_stereo_44KHz.wav
2	104	3	3	2	I	2	0	741	0	poli_8sides 2_whiteLine3.jpg	MediumShort_e22_cut1_stereo_44KHz.wav
2	105	4	3	2	I	1	0	859	1	poli_8sides 4_whiteLine3.jpg	MediumShort_e22_cut1_stereo_44KHz.wav
2	106	1	2	0	C	1	1	871	1	poli_8sides 6_whiteLine3.jpg	MediumShort_b16_cut3_MS_stereo_44KHz.wav
2	107	3	4	2	I	1	0	1072	1	poli_8sides 2_whiteLine3.jpg	MediumShort_b10_cut1_MS_stereo_44KHz.wav
2	108	2	1	0	C	1	1	914	1	poli_8sides 9_whiteLine3.jpg	MediumShort_e16_cut1_stereo_44KHz.wav
2	109	1	1	1	C	2	1	771	1	poli_8sides 6_whiteLine3.jpg	MediumShort_e16_cut1_stereo_44KHz.wav
2	110	4	4	2	I	2	0	771	1	poli_8sides 4_whiteLine3.jpg	MediumShort_b10_cut1_MS_stereo_44KHz.wav
2	111	2	2	1	C	2	1	766	1	poli_8sides 9_whiteLine3.jpg	MediumShort_b16_cut3_MS_stereo_44KHz.wav
2	112	3	3	2	I	2	0	843	0	poli_8sides 2_whiteLine3.jpg	MediumShort_e22_cut1_stereo_44KHz.wav
2	113	4	3	2	I	1	0	666	0	poli_8sides 4_whiteLine3.jpg	MediumShort_e22_cut1_stereo_44KHz.wav
2	114	3	4	2	I	1	0	899	1	poli_8sides 2_whiteLine3.jpg	MediumShort_b10_cut1_MS_stereo_44KHz.wav
2	115	1	1	1	C	2	1	886	1	poli_8sides 6_whiteLine3.jpg	MediumShort_e16_cut1_stereo_44KHz.wav
2	116	2	2	1	C	2	1	1074	1	poli_8sides 9_whiteLine3.jpg	MediumShort_b16_cut3_MS_stereo_44KHz.wav
2	117	1	2	0	C	1	1	361	1	poli_8sides 6_whiteLine3.jpg	MediumShort_b16_cut3_MS_stereo_44KHz.wav
2	118	2	1	0	C	1	1	950	1	poli_8sides 9_whiteLine3.jpg	MediumShort_e16_cut1_stereo_44KHz.wav
2	119	4	4	2	I	1	0	776	1	poli_8sides 4_whiteLine3.jpg	MediumShort_b10_cut1_MS_stereo_44KHz.wav
2	120	3	3	2	I	2	0	1033	0	poli_8sides 2_whiteLine3.jpg	MediumShort_e22_cut1_stereo_44KHz.wav
2	121	4	4	2	I	2	0	732	0	poli_8sides 4_whiteLine3.jpg	MediumShort_b10_cut1_MS_stereo_44KHz.wav
2	122	3	3	2	I	2	0	819	0	poli_8sides 2_whiteLine3.jpg	MediumShort_e22_cut1_stereo_44KHz.wav
2	123	1	2	0	C	1	1	755	1	poli_8sides 6_whiteLine3.jpg	MediumShort_b16_cut3_MS_stereo_44KHz.wav
2	124	2	1	0	C	0	0	0	0	poli_8sides 9_whiteLine3.jpg	MediumShort_e16_cut1_stereo_44KHz.wav
2	125	3	4	2	I	1	0	673	1	poli_8sides 2_whiteLine3.jpg	MediumShort_b10_cut1_MS_stereo_44KHz.wav
2	126	1	1	1	C	2	1	724	1	poli_8sides 6_whiteLine3.jpg	MediumShort_e16_cut1_stereo_44KHz.wav
2	127	2	2	1	C	2	1	892	1	poli_8sides 9_whiteLine3.jpg	MediumShort_b16_cut3_MS_stereo_44KHz.wav
2	128	4	3	2	I	1	0	680	1	poli_8sides 4_whiteLine3.jpg	MediumShort_e22_cut1_stereo_44KHz.wav
2	129	2	2	1	C	2	1	523	1	poli_8sides 9_whiteLine3.jpg	MediumShort_b16_cut3_MS_stereo_44KHz.wav
2	130	4	4	2	I	2	0	565	0	poli_8sides 4_whiteLine3.jpg	MediumShort_b10_cut1_MS_stereo_44KHz.wav
2	131	1	2	0	C	1	1	692	1	poli_8sides 6_whiteLine3.jpg	MediumShort_b16_cut3_MS_stereo_44KHz.wav
2	132	3	3	2	I	2	0	772	0	poli_8sides 2_whiteLine3.jpg	MediumShort_e22_cut1_stereo_44KHz.wav
2	133	1	1	1	C	2	1	689	1	poli_8sides 6_whiteLine3.jpg	MediumShort_e16_cut1_stereo_44KHz.wav
2	134	3	4	2	I	1	0	682	0	poli_8sides 2_whiteLine3.jpg	MediumShort_b10_cut1_MS_stereo_44KHz.wav
2	135	2	1	0	C	2	0	617	0	poli_8sides 9_whiteLine3.jpg	MediumShort_e16_cut1_stereo_44KHz.wav
2	136	4	3	2	I	1	0	794	1	poli_8sides 4_whiteLine3.jpg	MediumShort_e22_cut1_stereo_44KHz.wav
2	137	3	4	2	I	2	0	691	0	poli_8sides 2_whiteLine3.jpg	MediumShort_b10_cut1_MS_stereo_44KHz.wav
2	138	2	2	1	C	1	0	844	0	poli_8sides 9_whiteLine3.jpg	MediumShort_b16_cut3_MS_stereo_44KHz.wav
2	139	4	4	2	I	2	0	757	0	poli_8sides 4_whiteLine3.jpg	MediumShort_b10_cut1_MS_stereo_44KHz.wav
2	140	1	1	1	C	2	1	617	1	poli_8sides 6_whiteLine3.jpg	MediumShort_e16_cut1_stereo_44KHz.wav
2	141	3	3	2	I	2	0	661	0	poli_8sides 2_whiteLine3.jpg	MediumShort_e22_cut1_stereo_44KHz.wav
2	142	2	1	0	C	2	0	635	0	poli_8sides 9_whiteLine3.jpg	MediumShort_e16_cut1_stereo_44KHz.wav
2	143	1	2	0	C	1	1	813	1	poli_8sides 6_whiteLine3.jpg	MediumShort_b16_cut3_MS_stereo_44KHz.wav
2	144	4	3	2	I	1	0	1096	0	poli_8sides 4_whiteLine3.jpg	MediumShort_e22_cut1_stereo_44KHz.wav
2	145	3	4	2	I	2	0	1002	1	poli_8sides 2_whiteLine3.jpg	MediumShort_b10_cut1_MS_stereo_44KHz.wav
2	146	4	3	2	I	1	0	736	0	poli_8sides 4_whiteLine3.jpg	MediumShort_e22_cut1_stereo_44KHz.wav
2	147	2	2	1	C	2	1	896	1	poli_8sides 9_whiteLine3.jpg	MediumShort_b16_cut3_MS_stereo_44KHz.wav
2	148	1	2	0	C	2	0	1000	0	poli_8sides 6_whiteLine3.jpg	MediumShort_b16_cut3_MS_stereo_44KHz.wav
2	149	4	4	2	I	2	0	894	1	poli_8sides 4_whiteLine3.jpg	MediumShort_b10_cut1_MS_stereo_44KHz.wav
2	150	1	1	1	C	1	0	547	0	poli_8sides 6_whiteLine3.jpg	MediumShort_e16_cut1_stereo_44KHz.wav
2	151	2	1	0	C	1	1	655	1	poli_8sides 9_whiteLine3.jpg	MediumShort_e16_cut1_stereo_44KHz.wav
2	152	3	3	2	I	2	0	720	0	poli_8sides 2_whiteLine3.jpg	MediumShort_e22_cut1_stereo_44KHz.wav
2	153	4	3	2	I	1	0	751	0	poli_8sides 4_whiteLine3.jpg	MediumShort_e22_cut1_stereo_44KHz.wav
2	154	2	1	0	C	1	1	1005	1	poli_8sides 9_whiteLine3.jpg	MediumShort_e16_cut1_stereo_44KHz.wav
2	155	3	3	2	I	2	0	1097	1	poli_8sides 2_whiteLine3.jpg	MediumShort_e22_cut1_stereo_44KHz.wav
2	156	1	2	0	C	1	1	731	1	poli_8sides 6_whiteLine3.jpg	MediumShort_b16_cut3_MS_stereo_44KHz.wav
2	157	3	4	2	I	2	0	770	0	poli_8sides 2_whiteLine3.jpg	MediumShort_b10_cut1_MS_stereo_44KHz.wav
2	158	1	1	1	C	2	1	938	1	poli_8sides 6_whiteLine3.jpg	MediumShort_e16_cut1_stereo_44KHz.wav
2	159	2	2	1	C	2	1	1305	1	poli_8sides 9_whiteLine3.jpg	MediumShort_b16_cut3_MS_stereo_44KHz.wav
2	160	4	4	2	I	2	0	952	0	poli_8sides 4_whiteLine3.jpg	MediumShort_b10_cut1_MS_stereo_44KHz.wav
2	161	2	1	0	C	2	0	618	0	poli_8sides 9_whiteLine3.jpg	MediumShort_e16_cut1_stereo_44KHz.wav
2	162	3	4	2	I	2	0	515	1	poli_8sides 2_whiteLine3.jpg	MediumShort_b10_cut1_MS_stereo_44KHz.wav
2	163	4	4	2	I	1	0	530	1	poli_8sides 4_whiteLine3.jpg	MediumShort_b10_cut1_MS_stereo_44KHz.wav
2	164	1	2	0	C	1	1	993	1	poli_8sides 6_whiteLine3.jpg	MediumShort_b16_cut3_MS_stereo_44KHz.wav
2	165	4	3	2	I	2	0	737	1	poli_8sides 4_whiteLine3.jpg	MediumShort_e22_cut1_stereo_44KHz.wav
2	166	2	2	1	C	1	0	1222	0	poli_8sides 9_whiteLine3.jpg	MediumShort_b16_cut3_MS_stereo_44KHz.wav
2	167	1	1	1	C	2	1	1710	1	poli_8sides 6_whiteLine3.jpg	MediumShort_e16_cut1_stereo_44KHz.wav
2	168	3	3	2	I	1	0	930	0	poli_8sides 2_whiteLine3.jpg	MediumShort_e22_cut1_stereo_44KHz.wav
2	169	1	2	0	C	1	1	778	1	poli_8sides 6_whiteLine3.jpg	MediumShort_b16_cut3_MS_stereo_44KHz.wav
2	170	4	4	2	I	2	0	549	0	poli_8sides 4_whiteLine3.jpg	MediumShort_b10_cut1_MS_stereo_44KHz.wav
2	171	3	3	2	I	2	0	602	0	poli_8sides 2_whiteLine3.jpg	MediumShort_e22_cut1_stereo_44KHz.wav
2	172	2	2	1	C	2	1	557	1	poli_8sides 9_whiteLine3.jpg	MediumShort_b16_cut3_MS_stereo_44KHz.wav
2	173	3	4	2	I	2	0	530	1	poli_8sides 2_whiteLine3.jpg	MediumShort_b10_cut1_MS_stereo_44KHz.wav
2	174	2	1	0	C	2	0	605	0	poli_8sides 9_whiteLine3.jpg	MediumShort_e16_cut1_stereo_44KHz.wav
2	175	1	1	1	C	2	1	750	1	poli_8sides 6_whiteLine3.jpg	MediumShort_e16_cut1_stereo_44KHz.wav
2	176	4	3	2	I	1	0	594	0	poli_8sides 4_whiteLine3.jpg	MediumShort_e22_cut1_stereo_44KHz.wav
2	177	2	2	1	C	2	1	562	1	poli_8sides 9_whiteLine3.jpg	MediumShort_b16_cut3_MS_stereo_44KHz.wav
2	178	1	1	1	C	2	1	571	1	poli_8sides 6_whiteLine3.jpg	MediumShort_e16_cut1_stereo_44KHz.wav
2	179	4	4	2	I	2	0	552	1	poli_8sides 4_whiteLine3.jpg	MediumShort_b10_cut1_MS_stereo_44KHz.wav
2	180	3	3	2	I	1	0	559	1	poli_8sides 2_whiteLine3.jpg	MediumShort_e22_cut1_stereo_44KHz.wav
2	181	2	1	0	C	2	0	1313	0	poli_8sides 9_whiteLine3.jpg	MediumShort_e16_cut1_stereo_44KHz.wav
2	182	3	4	2	I	2	0	783	0	poli_8sides 2_whiteLine3.jpg	MediumShort_b10_cut1_MS_stereo_44KHz.wav
2	183	4	3	2	I	1	0	666	1	poli_8sides 4_whiteLine3.jpg	MediumShort_e22_cut1_stereo_44KHz.wav
2	184	1	2	0	C	1	1	843	1	poli_8sides 6_whiteLine3.jpg	MediumShort_b16_cut3_MS_stereo_44KHz.wav
2	185	4	4	2	I	2	0	667	1	poli_8sides 4_whiteLine3.jpg	MediumShort_b10_cut1_MS_stereo_44KHz.wav
2	186	1	2	0	C	1	1	1123	1	poli_8sides 6_whiteLine3.jpg	MediumShort_b16_cut3_MS_stereo_44KHz.wav
2	187	3	3	2	I	2	0	566	0	poli_8sides 2_whiteLine3.jpg	MediumShort_e22_cut1_stereo_44KHz.wav
2	188	2	2	1	C	2	1	644	1	poli_8sides 9_whiteLine3.jpg	MediumShort_b16_cut3_MS_stereo_44KHz.wav
2	189	3	4	2	I	2	0	741	0	poli_8sides 2_whiteLine3.jpg	MediumShort_b10_cut1_MS_stereo_44KHz.wav
2	190	1	1	1	C	1	0	644	0	poli_8sides 6_whiteLine3.jpg	MediumShort_e16_cut1_stereo_44KHz.wav
2	191	2	1	0	C	1	1	1123	1	poli_8sides 9_whiteLine3.jpg	MediumShort_e16_cut1_stereo_44KHz.wav
2	192	4	3	2	I	1	0	754	0	poli_8sides 4_whiteLine3.jpg	MediumShort_e22_cut1_stereo_44KHz.wav
2	193	1	1	1	C	2	1	887	1	poli_8sides 6_whiteLine3.jpg	MediumShort_e16_cut1_stereo_44KHz.wav
2	194	3	3	2	I	2	0	753	1	poli_8sides 2_whiteLine3.jpg	MediumShort_e22_cut1_stereo_44KHz.wav
2	195	4	3	2	I	1	0	716	0	poli_8sides 4_whiteLine3.jpg	MediumShort_e22_cut1_stereo_44KHz.wav
2	196	2	1	0	C	2	0	1287	0	poli_8sides 9_whiteLine3.jpg	MediumShort_e16_cut1_stereo_44KHz.wav
2	197	4	4	2	I	2	0	915	0	poli_8sides 4_whiteLine3.jpg	MediumShort_b10_cut1_MS_stereo_44KHz.wav
2	198	3	4	2	I	2	0	1007	1	poli_8sides 2_whiteLine3.jpg	MediumShort_b10_cut1_MS_stereo_44KHz.wav
2	199	2	2	1	C	2	1	1025	1	poli_8sides 9_whiteLine3.jpg	MediumShort_b16_cut3_MS_stereo_44KHz.wav
2	200	1	2	0	C	1	1	504	1	poli_8sides 6_whiteLine3.jpg	MediumShort_b16_cut3_MS_stereo_44KHz.wav
3	1	2	1	0	C	2	0	1463	0	poli_8sides 12_whiteLine3.jpg	Short_b23_cut1_stereo_44KHz.wav
3	2	3	3	2	I	1	0	562	0	poli_8sides 7_whiteLine3.jpg	Short_b20_cut1_stereo_44KHz.wav
3	3	4	3	2	I	1	0	849	1	poli_8sides 3_whiteLine3.jpg	Short_b20_cut1_stereo_44KHz.wav
3	4	1	2	0	C	2	0	960	0	poli_8sides 8_whiteLine3.jpg	Short_b22_cut1_stereo_44KHz.wav
3	5	4	4	2	I	2	0	734	1	poli_8sides 3_whiteLine3.jpg	Short_b09_cut1_stereo_44KHz.wav
3	6	2	2	1	C	1	0	553	0	poli_8sides 12_whiteLine3.jpg	Short_b22_cut1_stereo_44KHz.wav
3	7	3	4	2	I	1	0	744	0	poli_8sides 7_whiteLine3.jpg	Short_b09_cut1_stereo_44KHz.wav
3	8	1	1	1	C	2	1	465	1	poli_8sides 8_whiteLine3.jpg	Short_b23_cut1_stereo_44KHz.wav
3	9	4	4	2	I	1	0	675	1	poli_8sides 3_whiteLine3.jpg	Short_b09_cut1_stereo_44KHz.wav
3	10	2	2	1	C	2	1	563	1	poli_8sides 12_whiteLine3.jpg	Short_b22_cut1_stereo_44KHz.wav
3	11	3	3	2	I	2	0	771	0	poli_8sides 7_whiteLine3.jpg	Short_b20_cut1_stereo_44KHz.wav
3	12	1	1	1	C	1	0	814	0	poli_8sides 8_whiteLine3.jpg	Short_b23_cut1_stereo_44KHz.wav
3	13	4	3	2	I	2	0	972	1	poli_8sides 3_whiteLine3.jpg	Short_b20_cut1_stereo_44KHz.wav
3	14	1	2	0	C	2	0	826	0	poli_8sides 8_whiteLine3.jpg	Short_b22_cut1_stereo_44KHz.wav
3	15	3	4	2	I	2	0	635	1	poli_8sides 7_whiteLine3.jpg	Short_b09_cut1_stereo_44KHz.wav
3	16	2	1	0	C	1	1	536	1	poli_8sides 12_whiteLine3.jpg	Short_b23_cut1_stereo_44KHz.wav
3	17	4	3	2	I	2	0	951	0	poli_8sides 3_whiteLine3.jpg	Short_b20_cut1_stereo_44KHz.wav
3	18	2	2	1	C	1	0	831	0	poli_8sides 12_whiteLine3.jpg	Short_b22_cut1_stereo_44KHz.wav
3	19	3	4	2	I	2	0	621	0	poli_8sides 7_whiteLine3.jpg	Short_b09_cut1_stereo_44KHz.wav
3	20	1	1	1	C	1	0	1008	0	poli_8sides 8_whiteLine3.jpg	Short_b23_cut1_stereo_44KHz.wav
3	21	2	1	0	C	1	1	715	1	poli_8sides 12_whiteLine3.jpg	Short_b23_cut1_stereo_44KHz.wav
3	22	4	4	2	I	1	0	1162	0	poli_8sides 3_whiteLine3.jpg	Short_b09_cut1_stereo_44KHz.wav
3	23	1	2	0	C	2	0	621	0	poli_8sides 8_whiteLine3.jpg	Short_b22_cut1_stereo_44KHz.wav
3	24	3	3	2	I	1	0	808	1	poli_8sides 7_whiteLine3.jpg	Short_b20_cut1_stereo_44KHz.wav
3	25	4	3	2	I	2	0	632	1	poli_8sides 3_whiteLine3.jpg	Short_b20_cut1_stereo_44KHz.wav
3	26	1	1	1	C	1	0	1087	0	poli_8sides 8_whiteLine3.jpg	Short_b23_cut1_stereo_44KHz.wav
3	27	3	4	2	I	1	0	935	1	poli_8sides 7_whiteLine3.jpg	Short_b09_cut1_stereo_44KHz.wav
3	28	2	1	0	C	2	0	756	0	poli_8sides 12_whiteLine3.jpg	Short_b23_cut1_stereo_44KHz.wav
3	29	4	4	2	I	2	0	1154	0	poli_8sides 3_whiteLine3.jpg	Short_b09_cut1_stereo_44KHz.wav
3	30	2	2	1	C	0	0	0	0	poli_8sides 12_whiteLine3.jpg	Short_b22_cut1_stereo_44KHz.wav
3	31	3	3	2	I	1	0	416	1	poli_8sides 7_whiteLine3.jpg	Short_b20_cut1_stereo_44KHz.wav
3	32	1	2	0	C	2	0	578	0	poli_8sides 8_whiteLine3.jpg	Short_b22_cut1_stereo_44KHz.wav
3	33	4	3	2	I	2	0	474	1	poli_8sides 3_whiteLine3.jpg	Short_b20_cut1_stereo_44KHz.wav
3	34	1	2	0	C	1	1	447	1	poli_8sides 8_whiteLine3.jpg	Short_b22_cut1_stereo_44KHz.wav
3	35	2	2	1	C	1	0	553	0	poli_8sides 12_whiteLine3.jpg	Short_b22_cut1_stereo_44KHz.wav
3	36	3	4	2	I	2	0	597	1	poli_8sides 7_whiteLine3.jpg	Short_b09_cut1_stereo_44KHz.wav
3	37	4	4	2	I	2	0	383	0	poli_8sides 3_whiteLine3.jpg	Short_b09_cut1_stereo_44KHz.wav
3	38	2	1	0	C	1	1	853	1	poli_8sides 12_whiteLine3.jpg	Short_b23_cut1_stereo_44KHz.wav
3	39	1	1	1	C	2	1	913	1	poli_8sides 8_whiteLine3.jpg	Short_b23_cut1_stereo_44KHz.wav
3	40	3	3	2	I	0	0	0	0	poli_8sides 7_whiteLine3.jpg	Short_b20_cut1_stereo_44KHz.wav
3	41	4	3	2	I	1	0	610	0	poli_8sides 3_whiteLine3.jpg	Short_b20_cut1_stereo_44KHz.wav
3	42	3	4	2	I	2	0	478	0	poli_8sides 7_whiteLine3.jpg	Short_b09_cut1_stereo_44KHz.wav
3	43	2	2	1	C	2	1	485	1	poli_8sides 12_whiteLine3.jpg	Short_b22_cut1_stereo_44KHz.wav
3	44	1	2	0	C	2	0	524	0	poli_8sides 8_whiteLine3.jpg	Short_b22_cut1_stereo_44KHz.wav
3	45	3	3	2	I	1	0	435	0	poli_8sides 7_whiteLine3.jpg	Short_b20_cut1_stereo_44KHz.wav
3	46	4	4	2	I	1	0	651	1	poli_8sides 3_whiteLine3.jpg	Short_b09_cut1_stereo_44KHz.wav
3	47	1	1	1	C	2	1	482	1	poli_8sides 8_whiteLine3.jpg	Short_b23_cut1_stereo_44KHz.wav
3	48	2	1	0	C	2	0	390	0	poli_8sides 12_whiteLine3.jpg	Short_b23_cut1_stereo_44KHz.wav
3	49	4	4	2	I	1	0	594	0	poli_8sides 3_whiteLine3.jpg	Short_b09_cut1_stereo_44KHz.wav
3	50	3	4	2	I	1	0	239	1	poli_8sides 7_whiteLine3.jpg	Short_b09_cut1_stereo_44KHz.wav
3	51	2	2	1	C	2	1	588	1	poli_8sides 12_whiteLine3.jpg	Short_b22_cut1_stereo_44KHz.wav
3	52	1	1	1	C	2	1	644	1	poli_8sides 8_whiteLine3.jpg	Short_b23_cut1_stereo_44KHz.wav
3	53	2	1	0	C	2	0	665	0	poli_8sides 12_whiteLine3.jpg	Short_b23_cut1_stereo_44KHz.wav
3	54	3	3	2	I	1	0	964	1	poli_8sides 7_whiteLine3.jpg	Short_b20_cut1_stereo_44KHz.wav
3	55	4	3	2	I	2	0	834	1	poli_8sides 3_whiteLine3.jpg	Short_b20_cut1_stereo_44KHz.wav
3	56	1	2	0	C	1	1	491	1	poli_8sides 8_whiteLine3.jpg	Short_b22_cut1_stereo_44KHz.wav
3	57	4	3	2	I	2	0	484	0	poli_8sides 3_whiteLine3.jpg	Short_b20_cut1_stereo_44KHz.wav
3	58	1	1	1	C	2	1	747	1	poli_8sides 8_whiteLine3.jpg	Short_b23_cut1_stereo_44KHz.wav
3	59	2	2	1	C	1	0	507	0	poli_8sides 12_whiteLine3.jpg	Short_b22_cut1_stereo_44KHz.wav
3	60	3	3	2	I	1	0	344	1	poli_8sides 7_whiteLine3.jpg	Short_b20_cut1_stereo_44KHz.wav
3	61	1	2	0	C	2	0	493	0	poli_8sides 8_whiteLine3.jpg	Short_b22_cut1_stereo_44KHz.wav
3	62	3	4	2	I	1	0	484	0	poli_8sides 7_whiteLine3.jpg	Short_b09_cut1_stereo_44KHz.wav
3	63	4	4	2	I	1	0	204	0	poli_8sides 3_whiteLine3.jpg	Short_b09_cut1_stereo_44KHz.wav
3	64	2	1	0	C	2	0	434	0	poli_8sides 12_whiteLine3.jpg	Short_b23_cut1_stereo_44KHz.wav
3	65	4	4	2	I	2	0	274	0	poli_8sides 3_whiteLine3.jpg	Short_b09_cut1_stereo_44KHz.wav
3	66	1	2	0	C	1	1	751	1	poli_8sides 8_whiteLine3.jpg	Short_b22_cut1_stereo_44KHz.wav
3	67	2	1	0	C	2	0	628	0	poli_8sides 12_whiteLine3.jpg	Short_b23_cut1_stereo_44KHz.wav
3	68	3	3	2	I	2	0	408	0	poli_8sides 7_whiteLine3.jpg	Short_b20_cut1_stereo_44KHz.wav
3	69	1	1	1	C	1	0	369	0	poli_8sides 8_whiteLine3.jpg	Short_b23_cut1_stereo_44KHz.wav
3	70	4	3	2	I	1	0	660	1	poli_8sides 3_whiteLine3.jpg	Short_b20_cut1_stereo_44KHz.wav
3	71	3	4	2	I	2	0	619	0	poli_8sides 7_whiteLine3.jpg	Short_b09_cut1_stereo_44KHz.wav
3	72	2	2	1	C	2	1	837	1	poli_8sides 12_whiteLine3.jpg	Short_b22_cut1_stereo_44KHz.wav
3	73	3	3	2	I	1	0	618	0	poli_8sides 7_whiteLine3.jpg	Short_b20_cut1_stereo_44KHz.wav
3	74	4	4	2	I	2	0	767	1	poli_8sides 3_whiteLine3.jpg	Short_b09_cut1_stereo_44KHz.wav
3	75	1	2	0	C	1	1	559	1	poli_8sides 8_whiteLine3.jpg	Short_b22_cut1_stereo_44KHz.wav
3	76	2	2	1	C	2	1	714	1	poli_8sides 12_whiteLine3.jpg	Short_b22_cut1_stereo_44KHz.wav
3	77	3	4	2	I	1	0	891	1	poli_8sides 7_whiteLine3.jpg	Short_b09_cut1_stereo_44KHz.wav
3	78	2	1	0	C	1	1	826	1	poli_8sides 12_whiteLine3.jpg	Short_b23_cut1_stereo_44KHz.wav
3	79	4	3	2	I	1	0	663	0	poli_8sides 3_whiteLine3.jpg	Short_b20_cut1_stereo_44KHz.wav
3	80	1	1	1	C	2	1	874	1	poli_8sides 8_whiteLine3.jpg	Short_b23_cut1_stereo_44KHz.wav
3	81	2	2	1	C	2	1	794	1	poli_8sides 12_whiteLine3.jpg	Short_b22_cut1_stereo_44KHz.wav
3	82	3	3	2	I	1	0	782	1	poli_8sides 7_whiteLine3.jpg	Short_b20_cut1_stereo_44KHz.wav
3	83	1	1	1	C	2	1	677	1	poli_8sides 8_whiteLine3.jpg	Short_b23_cut1_stereo_44KHz.wav
3	84	4	3	2	I	2	0	695	0	poli_8sides 3_whiteLine3.jpg	Short_b20_cut1_stereo_44KHz.wav
3	85	3	4	2	I	1	0	378	1	poli_8sides 7_whiteLine3.jpg	Short_b09_cut1_stereo_44KHz.wav
3	86	1	2	0	C	1	1	569	1	poli_8sides 8_whiteLine3.jpg	Short_b22_cut1_stereo_44KHz.wav
3	87	2	1	0	C	2	0	771	0	poli_8sides 12_whiteLine3.jpg	Short_b23_cut1_stereo_44KHz.wav
3	88	4	4	2	I	2	0	48	1	poli_8sides 3_whiteLine3.jpg	Short_b09_cut1_stereo_44KHz.wav
3	89	1	2	0	C	1	1	230	1	poli_8sides 8_whiteLine3.jpg	Short_b22_cut1_stereo_44KHz.wav
3	90	2	2	1	C	2	1	778	1	poli_8sides 12_whiteLine3.jpg	Short_b22_cut1_stereo_44KHz.wav
3	91	3	3	2	I	2	0	639	0	poli_8sides 7_whiteLine3.jpg	Short_b20_cut1_stereo_44KHz.wav
3	92	4	3	2	I	2	0	488	1	poli_8sides 3_whiteLine3.jpg	Short_b20_cut1_stereo_44KHz.wav
3	93	3	4	2	I	1	0	415	1	poli_8sides 7_whiteLine3.jpg	Short_b09_cut1_stereo_44KHz.wav
3	94	4	4	2	I	2	0	256	0	poli_8sides 3_whiteLine3.jpg	Short_b09_cut1_stereo_44KHz.wav
3	95	2	1	0	C	1	1	397	1	poli_8sides 12_whiteLine3.jpg	Short_b23_cut1_stereo_44KHz.wav
3	96	1	1	1	C	2	1	472	1	poli_8sides 8_whiteLine3.jpg	Short_b23_cut1_stereo_44KHz.wav
3	97	2	2	1	C	1	0	461	0	poli_8sides 12_whiteLine3.jpg	Short_b22_cut1_stereo_44KHz.wav
3	98	1	1	1	C	1	0	402	0	poli_8sides 8_whiteLine3.jpg	Short_b23_cut1_stereo_44KHz.wav
3	99	3	3	2	I	2	0	349	0	poli_8sides 7_whiteLine3.jpg	Short_b20_cut1_stereo_44KHz.wav
3	100	4	4	2	I	2	0	337	1	poli_8sides 3_whiteLine3.jpg	Short_b09_cut1_stereo_44KHz.wav
3	101	2	1	0	C	1	1	425	1	poli_8sides 12_whiteLine3.jpg	Short_b23_cut1_stereo_44KHz.wav
3	102	4	3	2	I	2	0	401	1	poli_8sides 3_whiteLine3.jpg	Short_b20_cut1_stereo_44KHz.wav
3	103	1	2	0	C	1	1	390	1	poli_8sides 8_whiteLine3.jpg	Short_b22_cut1_stereo_44KHz.wav
3	104	3	4	2	I	2	0	441	0	poli_8sides 7_whiteLine3.jpg	Short_b09_cut1_stereo_44KHz.wav
3	105	2	2	1	C	2	1	878	1	poli_8sides 12_whiteLine3.jpg	Short_b22_cut1_stereo_44KHz.wav
3	106	3	3	2	I	1	0	524	1	poli_8sides 7_whiteLine3.jpg	Short_b20_cut1_stereo_44KHz.wav
3	107	4	3	2	I	2	0	925	0	poli_8sides 3_whiteLine3.jpg	Short_b20_cut1_stereo_44KHz.wav
3	108	1	2	0	C	1	1	950	1	poli_8sides 8_whiteLine3.jpg	Short_b22_cut1_stereo_44KHz.wav
3	109	4	4	2	I	2	0	688	1	poli_8sides 3_whiteLine3.jpg	Short_b09_cut1_stereo_44KHz.wav
3	110	1	1	1	C	1	0	431	0	poli_8sides 8_whiteLine3.jpg	Short_b23_cut1_stereo_44KHz.wav
3	111	3	4	2	I	2	0	397	0	poli_8sides 7_whiteLine3.jpg	Short_b09_cut1_stereo_44KHz.wav
3	112	2	1	0	C	2	0	498	0	poli_8sides 12_whiteLine3.jpg	Short_b23_cut1_stereo_44KHz.wav
3	113	1	1	1	C	1	0	547	0	poli_8sides 8_whiteLine3.jpg	Short_b23_cut1_stereo_44KHz.wav
3	114	4	3	2	I	1	0	158	0	poli_8sides 3_whiteLine3.jpg	Short_b20_cut1_stereo_44KHz.wav
3	115	2	1	0	C	2	0	657	0	poli_8sides 12_whiteLine3.jpg	Short_b23_cut1_stereo_44KHz.wav
3	116	3	4	2	I	2	0	448	0	poli_8sides 7_whiteLine3.jpg	Short_b09_cut1_stereo_44KHz.wav
3	117	1	2	0	C	1	1	696	1	poli_8sides 8_whiteLine3.jpg	Short_b22_cut1_stereo_44KHz.wav
3	118	3	3	2	I	2	0	220	0	poli_8sides 7_whiteLine3.jpg	Short_b20_cut1_stereo_44KHz.wav
3	119	4	4	2	I	2	0	476	1	poli_8sides 3_whiteLine3.jpg	Short_b09_cut1_stereo_44KHz.wav
3	120	2	2	1	C	1	0	379	0	poli_8sides 12_whiteLine3.jpg	Short_b22_cut1_stereo_44KHz.wav
3	121	3	4	2	I	2	0	709	0	poli_8sides 7_whiteLine3.jpg	Short_b09_cut1_stereo_44KHz.wav
3	122	4	3	2	I	2	0	412	0	poli_8sides 3_whiteLine3.jpg	Short_b20_cut1_stereo_44KHz.wav
3	123	2	2	1	C	1	0	621	0	poli_8sides 12_whiteLine3.jpg	Short_b22_cut1_stereo_44KHz.wav
3	124	1	2	0	C	1	1	538	1	poli_8sides 8_whiteLine3.jpg	Short_b22_cut1_stereo_44KHz.wav
3	125	3	3	2	I	1	0	711	1	poli_8sides 7_whiteLine3.jpg	Short_b20_cut1_stereo_44KHz.wav
3	126	4	4	2	I	2	0	449	0	poli_8sides 3_whiteLine3.jpg	Short_b09_cut1_stereo_44KHz.wav
3	127	2	1	0	C	2	0	599	0	poli_8sides 12_whiteLine3.jpg	Short_b23_cut1_stereo_44KHz.wav
3	128	1	1	1	C	2	1	646	1	poli_8sides 8_whiteLine3.jpg	Short_b23_cut1_stereo_44KHz.wav
3	129	3	3	2	I	1	0	625	1	poli_8sides 7_whiteLine3.jpg	Short_b20_cut1_stereo_44KHz.wav
3	130	2	1	0	C	2	0	801	0	poli_8sides 12_whiteLine3.jpg	Short_b23_cut1_stereo_44KHz.wav
3	131	4	3	2	I	2	0	417	1	poli_8sides 3_whiteLine3.jpg	Short_b20_cut1_stereo_44KHz.wav
3	132	1	2	0	C	1	1	387	1	poli_8sides 8_whiteLine3.jpg	Short_b22_cut1_stereo_44KHz.wav
3	133	4	4	2	I	2	0	303	0	poli_8sides 3_whiteLine3.jpg	Short_b09_cut1_stereo_44KHz.wav
3	134	1	1	1	C	2	1	374	1	poli_8sides 8_whiteLine3.jpg	Short_b23_cut1_stereo_44KHz.wav
3	135	2	2	1	C	1	0	307	0	poli_8sides 12_whiteLine3.jpg	Short_b22_cut1_stereo_44KHz.wav
3	136	3	4	2	I	2	0	238	0	poli_8sides 7_whiteLine3.jpg	Short_b09_cut1_stereo_44KHz.wav
3	137	2	2	1	C	2	1	343	1	poli_8sides 12_whiteLine3.jpg	Short_b22_cut1_stereo_44KHz.wav
3	138	1	1	1	C	1	0	219	0	poli_8sides 8_whiteLine3.jpg	Short_b23_cut1_stereo_44KHz.wav
3	139	3	4	2	I	1	0	576	1	poli_8sides 7_whiteLine3.jpg	Short_b09_cut1_stereo_44KHz.wav
3	140	4	4	2	I	2	0	594	1	poli_8sides 3_whiteLine3.jpg	Short_b09_cut1_stereo_44KHz.wav
3	141	1	2	0	C	2	0	385	0	poli_8sides 8_whiteLine3.jpg	Short_b22_cut1_stereo_44KHz.wav
3	142	2	1	0	C	1	1	419	1	poli_8sides 12_whiteLine3.jpg	Short_b23_cut1_stereo_44KHz.wav
3	143	3	3	2	I	1	0	516	1	poli_8sides 7_whiteLine3.jpg	Short_b20_cut1_stereo_44KHz.wav
3	144	4	3	2	I	2	0	634	1	poli_8sides 3_whiteLine3.jpg	Short_b20_cut1_stereo_44KHz.wav
3	145	2	1	0	C	2	0	451	0	poli_8sides 12_whiteLine3.jpg	Short_b23_cut1_stereo_44KHz.wav
3	146	1	2	0	C	1	1	341	1	poli_8sides 8_whiteLine3.jpg	Short_b22_cut1_stereo_44KHz.wav
3	147	3	4	2	I	1	0	409	0	poli_8sides 7_whiteLine3.jpg	Short_b09_cut1_stereo_44KHz.wav
3	148	4	3	2	I	2	0	578	0	poli_8sides 3_whiteLine3.jpg	Short_b20_cut1_stereo_44KHz.wav
3	149	3	3	2	I	1	0	522	1	poli_8sides 7_whiteLine3.jpg	Short_b20_cut1_stereo_44KHz.wav
3	150	2	2	1	C	1	0	559	0	poli_8sides 12_whiteLine3.jpg	Short_b22_cut1_stereo_44KHz.wav
3	151	4	4	2	I	2	0	544	0	poli_8sides 3_whiteLine3.jpg	Short_b09_cut1_stereo_44KHz.wav
3	152	1	1	1	C	2	1	407	1	poli_8sides 8_whiteLine3.jpg	Short_b23_cut1_stereo_44KHz.wav
3	153	4	3	2	I	2	0	508	1	poli_8sides 3_whiteLine3.jpg	Short_b20_cut1_stereo_44KHz.wav
3	154	1	2	0	C	1	1	666	1	poli_8sides 8_whiteLine3.jpg	Short_b22_cut1_stereo_44KHz.wav
3	155	3	3	2	I	1	0	662	1	poli_8sides 7_whiteLine3.jpg	Short_b20_cut1_stereo_44KHz.wav
3	156	2	1	0	C	2	0	631	0	poli_8sides 12_whiteLine3.jpg	Short_b23_cut1_stereo_44KHz.wav
3	157	4	4	2	I	1	0	769	1	poli_8sides 3_whiteLine3.jpg	Short_b09_cut1_stereo_44KHz.wav
3	158	2	2	1	C	2	1	514	1	poli_8sides 12_whiteLine3.jpg	Short_b22_cut1_stereo_44KHz.wav
3	159	1	1	1	C	2	1	471	1	poli_8sides 8_whiteLine3.jpg	Short_b23_cut1_stereo_44KHz.wav
3	160	3	4	2	I	1	0	425	1	poli_8sides 7_whiteLine3.jpg	Short_b09_cut1_stereo_44KHz.wav
3	161	2	1	0	C	1	1	451	1	poli_8sides 12_whiteLine3.jpg	Short_b23_cut1_stereo_44KHz.wav
3	162	1	1	1	C	1	0	365	0	poli_8sides 8_whiteLine3.jpg	Short_b23_cut1_stereo_44KHz.wav
3	163	3	4	2	I	1	0	876	0	poli_8sides 7_whiteLine3.jpg	Short_b09_cut1_stereo_44KHz.wav
3	164	4	4	2	I	2	0	623	0	poli_8sides 3_whiteLine3.jpg	Short_b09_cut1_stereo_44KHz.wav
3	165	1	2	0	C	1	1	501	1	poli_8sides 8_whiteLine3.jpg	Short_b22_cut1_stereo_44KHz.wav
3	166	4	3	2	I	1	0	500	0	poli_8sides 3_whiteLine3.jpg	Short_b20_cut1_stereo_44KHz.wav
3	167	2	2	1	C	2	1	551	1	poli_8sides 12_whiteLine3.jpg	Short_b22_cut1_stereo_44KHz.wav
3	168	3	3	2	I	2	0	637	1	poli_8sides 7_whiteLine3.jpg	Short_b20_cut1_stereo_44KHz.wav
3	169	1	2	0	C	1	1	799	1	poli_8sides 8_whiteLine3.jpg	Short_b22_cut1_stereo_44KHz.wav
3	170	3	3	2	I	1	0	277	0	poli_8sides 7_whiteLine3.jpg	Short_b20_cut1_stereo_44KHz.wav
3	171	4	4	2	I	2	0	240	0	poli_8sides 3_whiteLine3.jpg	Short_b09_cut1_stereo_44KHz.wav
3	172	2	1	0	C	2	0	494	0	poli_8sides 12_whiteLine3.jpg	Short_b23_cut1_stereo_44KHz.wav
3	173	4	3	2	I	1	0	364	1	poli_8sides 3_whiteLine3.jpg	Short_b20_cut1_stereo_44KHz.wav
3	174	1	1	1	C	2	1	573	1	poli_8sides 8_whiteLine3.jpg	Short_b23_cut1_stereo_44KHz.wav
3	175	3	4	2	I	2	0	541	1	poli_8sides 7_whiteLine3.jpg	Short_b09_cut1_stereo_44KHz.wav
3	176	2	2	1	C	1	0	451	0	poli_8sides 12_whiteLine3.jpg	Short_b22_cut1_stereo_44KHz.wav
3	177	1	1	1	C	1	0	838	0	poli_8sides 8_whiteLine3.jpg	Short_b23_cut1_stereo_44KHz.wav
3	178	4	4	2	I	2	0	359	1	poli_8sides 3_whiteLine3.jpg	Short_b09_cut1_stereo_44KHz.wav
3	179	3	4	2	I	1	0	492	1	poli_8sides 7_whiteLine3.jpg	Short_b09_cut1_stereo_44KHz.wav
3	180	2	1	0	C	1	1	496	1	poli_8sides 12_whiteLine3.jpg	Short_b23_cut1_stereo_44KHz.wav
3	181	3	3	2	I	1	0	1052	0	poli_8sides 7_whiteLine3.jpg	Short_b20_cut1_stereo_44KHz.wav
3	182	4	3	2	I	2	0	841	1	poli_8sides 3_whiteLine3.jpg	Short_b20_cut1_stereo_44KHz.wav
3	183	2	2	1	C	1	0	863	0	poli_8sides 12_whiteLine3.jpg	Short_b22_cut1_stereo_44KHz.wav
3	184	1	2	0	C	2	0	703	0	poli_8sides 8_whiteLine3.jpg	Short_b22_cut1_stereo_44KHz.wav
3	185	2	1	0	C	1	1	340	1	poli_8sides 12_whiteLine3.jpg	Short_b23_cut1_stereo_44KHz.wav
3	186	4	3	2	I	2	0	384	1	poli_8sides 3_whiteLine3.jpg	Short_b20_cut1_stereo_44KHz.wav
3	187	3	4	2	I	1	0	495	0	poli_8sides 7_whiteLine3.jpg	Short_b09_cut1_stereo_44KHz.wav
3	188	1	2	0	C	2	0	430	0	poli_8sides 8_whiteLine3.jpg	Short_b22_cut1_stereo_44KHz.wav
3	189	2	2	1	C	1	0	342	0	poli_8sides 12_whiteLine3.jpg	Short_b22_cut1_stereo_44KHz.wav
3	190	3	3	2	I	1	0	336	1	poli_8sides 7_whiteLine3.jpg	Short_b20_cut1_stereo_44KHz.wav
3	191	1	1	1	C	2	1	747	1	poli_8sides 8_whiteLine3.jpg	Short_b23_cut1_stereo_44KHz.wav
3	192	4	4	2	I	1	0	651	0	poli_8sides 3_whiteLine3.jpg	Short_b09_cut1_stereo_44KHz.wav
3	193	3	3	2	I	2	0	628	1	poli_8sides 7_whiteLine3.jpg	Short_b20_cut1_stereo_44KHz.wav
3	194	2	2	1	C	1	0	1029	0	poli_8sides 12_whiteLine3.jpg	Short_b22_cut1_stereo_44KHz.wav
3	195	1	1	1	C	1	0	727	0	poli_8sides 8_whiteLine3.jpg	Short_b23_cut1_stereo_44KHz.wav
3	196	4	4	2	I	2	0	359	0	poli_8sides 3_whiteLine3.jpg	Short_b09_cut1_stereo_44KHz.wav
3	197	2	1	0	C	2	0	603	0	poli_8sides 12_whiteLine3.jpg	Short_b23_cut1_stereo_44KHz.wav
3	198	1	2	0	C	2	0	324	0	poli_8sides 8_whiteLine3.jpg	Short_b22_cut1_stereo_44KHz.wav
3	199	3	4	2	I	1	0	418	0	poli_8sides 7_whiteLine3.jpg	Short_b09_cut1_stereo_44KHz.wav
3	200	4	3	2	I	1	0	356	0	poli_8sides 3_whiteLine3.jpg	Short_b20_cut1_stereo_44KHz.wav
4	1	3	4	2	I	2	0	1574	0	poli_8sides 10_whiteLine3.jpg	Medium_e21_stereo_44KHz.wav
4	2	1	1	1	C	1	0	832	0	poli_8sides 16_whiteLine3.jpg	Medium_e26_stereo_44KHz.wav
4	3	4	4	2	I	2	0	710	1	poli_8sides 5_whiteLine3.jpg	Medium_e21_stereo_44KHz.wav
4	4	2	2	1	C	1	0	740	0	poli_8sides 11_whiteLine3.jpg	MediumLong_e19_stereo_44KHz.wav
4	5	3	3	2	I	2	0	724	1	poli_8sides 10_whiteLine3.jpg	MediumLong_b10_cut2_L_stereo_44KHz.wav
4	6	4	3	2	I	2	0	601	0	poli_8sides 5_whiteLine3.jpg	MediumLong_b10_cut2_L_stereo_44KHz.wav
4	7	1	2	0	C	1	1	716	1	poli_8sides 16_whiteLine3.jpg	MediumLong_e19_stereo_44KHz.wav
4	8	2	1	0	C	1	1	887	1	poli_8sides 11_whiteLine3.jpg	Medium_e26_stereo_44KHz.wav
4	9	3	4	2	I	1	0	708	0	poli_8sides 10_whiteLine3.jpg	Medium_e21_stereo_44KHz.wav
4	10	1	2	0	C	2	0	682	0	poli_8sides 16_whiteLine3.jpg	MediumLong_e19_stereo_44KHz.wav
4	11	2	2	1	C	1	0	996	0	poli_8sides 11_whiteLine3.jpg	MediumLong_e19_stereo_44KHz.wav
4	12	4	3	2	I	2	0	813	0	poli_8sides 5_whiteLine3.jpg	MediumLong_b10_cut2_L_stereo_44KHz.wav
4	13	1	1	1	C	1	0	862	0	poli_8sides 16_whiteLine3.jpg	Medium_e26_stereo_44KHz.wav
4	14	2	1	0	C	1	1	563	1	poli_8sides 11_whiteLine3.jpg	Medium_e26_stereo_44KHz.wav
4	15	4	4	2	I	2	0	881	0	poli_8sides 5_whiteLine3.jpg	Medium_e21_stereo_44KHz.wav
4	16	3	3	2	I	1	0	945	1	poli_8sides 10_whiteLine3.jpg	MediumLong_b10_cut2_L_stereo_44KHz.wav
4	17	4	4	2	I	2	0	978	0	poli_8sides 5_whiteLine3.jpg	Medium_e21_stereo_44KHz.wav
4	18	2	1	0	C	1	1	931	1	poli_8sides 11_whiteLine3.jpg	Medium_e26_stereo_44KHz.wav
4	19	3	3	2	I	1	0	699	0	poli_8sides 10_whiteLine3.jpg	MediumLong_b10_cut2_L_stereo_44KHz.wav
4	20	1	2	0	C	1	1	983	1	poli_8sides 16_whiteLine3.jpg	MediumLong_e19_stereo_44KHz.wav
4	21	4	3	2	I	1	0	834	0	poli_8sides 5_whiteLine3.jpg	MediumLong_b10_cut2_L_stereo_44KHz.wav
4	22	1	1	1	C	1	0	940	0	poli_8sides 16_whiteLine3.jpg	Medium_e26_stereo_44KHz.wav
4	23	2	2	1	C	1	0	832	0	poli_8sides 11_whiteLine3.jpg	MediumLong_e19_stereo_44KHz.wav
4	24	3	4	2	I	2	0	731	1	poli_8sides 10_whiteLine3.jpg	Medium_e21_stereo_44KHz.wav
4	25	1	1	1	C	1	0	726	0	poli_8sides 16_whiteLine3.jpg	Medium_e26_stereo_44KHz.wav
4	26	3	3	2	I	1	0	693	0	poli_8sides 10_whiteLine3.jpg	MediumLong_b10_cut2_L_stereo_44KHz.wav
4	27	4	4	2	I	1	0	941	1	poli_8sides 5_whiteLine3.jpg	Medium_e21_stereo_44KHz.wav
4	28	2	2	1	C	2	1	1155	1	poli_8sides 11_whiteLine3.jpg	MediumLong_e19_stereo_44KHz.wav
4	29	1	2	0	C	1	1	926	1	poli_8sides 16_whiteLine3.jpg	MediumLong_e19_stereo_44KHz.wav
4	30	4	3	2	I	1	0	690	0	poli_8sides 5_whiteLine3.jpg	MediumLong_b10_cut2_L_stereo_44KHz.wav
4	31	3	4	2	I	1	0	1072	0	poli_8sides 10_whiteLine3.jpg	Medium_e21_stereo_44KHz.wav
4	32	2	1	0	C	2	0	708	0	poli_8sides 11_whiteLine3.jpg	Medium_e26_stereo_44KHz.wav
4	33	4	3	2	I	1	0	1054	0	poli_8sides 5_whiteLine3.jpg	MediumLong_b10_cut2_L_stereo_44KHz.wav
4	34	1	2	0	C	2	0	738	0	poli_8sides 16_whiteLine3.jpg	MediumLong_e19_stereo_44KHz.wav
4	35	3	3	2	I	1	0	834	1	poli_8sides 10_whiteLine3.jpg	MediumLong_b10_cut2_L_stereo_44KHz.wav
4	36	2	1	0	C	1	1	661	1	poli_8sides 11_whiteLine3.jpg	Medium_e26_stereo_44KHz.wav
4	37	3	4	2	I	2	0	896	1	poli_8sides 10_whiteLine3.jpg	Medium_e21_stereo_44KHz.wav
4	38	1	1	1	C	1	0	660	0	poli_8sides 16_whiteLine3.jpg	Medium_e26_stereo_44KHz.wav
4	39	2	2	1	C	2	1	887	1	poli_8sides 11_whiteLine3.jpg	MediumLong_e19_stereo_44KHz.wav
4	40	4	4	2	I	2	0	831	1	poli_8sides 5_whiteLine3.jpg	Medium_e21_stereo_44KHz.wav
4	41	1	1	1	C	1	0	769	0	poli_8sides 16_whiteLine3.jpg	Medium_e26_stereo_44KHz.wav
4	42	3	4	2	I	2	0	1060	0	poli_8sides 10_whiteLine3.jpg	Medium_e21_stereo_44KHz.wav
4	43	4	3	2	I	1	0	971	0	poli_8sides 5_whiteLine3.jpg	MediumLong_b10_cut2_L_stereo_44KHz.wav
4	44	2	1	0	C	1	1	587	1	poli_8sides 11_whiteLine3.jpg	Medium_e26_stereo_44KHz.wav
4	45	3	3	2	I	1	0	619	0	poli_8sides 10_whiteLine3.jpg	MediumLong_b10_cut2_L_stereo_44KHz.wav
4	46	2	2	1	C	2	1	775	1	poli_8sides 11_whiteLine3.jpg	MediumLong_e19_stereo_44KHz.wav
4	47	4	4	2	I	1	0	648	1	poli_8sides 5_whiteLine3.jpg	Medium_e21_stereo_44KHz.wav
4	48	1	2	0	C	1	1	861	1	poli_8sides 16_whiteLine3.jpg	MediumLong_e19_stereo_44KHz.wav
4	49	3	4	2	I	2	0	1093	1	poli_8sides 10_whiteLine3.jpg	Medium_e21_stereo_44KHz.wav
4	50	1	2	0	C	2	0	1359	0	poli_8sides 16_whiteLine3.jpg	MediumLong_e19_stereo_44KHz.wav
4	51	2	2	1	C	2	1	748	1	poli_8sides 11_whiteLine3.jpg	MediumLong_e19_stereo_44KHz.wav
4	52	4	3	2	I	2	0	964	0	poli_8sides 5_whiteLine3.jpg	MediumLong_b10_cut2_L_stereo_44KHz.wav
4	53	3	3	2	I	2	0	918	0	poli_8sides 10_whiteLine3.jpg	MediumLong_b10_cut2_L_stereo_44KHz.wav
4	54	4	4	2	I	2	0	1264	0	poli_8sides 5_whiteLine3.jpg	Medium_e21_stereo_44KHz.wav
4	55	2	1	0	C	1	1	716	1	poli_8sides 11_whiteLine3.jpg	Medium_e26_stereo_44KHz.wav
4	56	1	1	1	C	2	1	728	1	poli_8sides 16_whiteLine3.jpg	Medium_e26_stereo_44KHz.wav
4	57	2	2	1	C	2	1	773	1	poli_8sides 11_whiteLine3.jpg	MediumLong_e19_stereo_44KHz.wav
4	58	3	4	2	I	2	0	1205	1	poli_8sides 10_whiteLine3.jpg	Medium_e21_stereo_44KHz.wav
4	59	4	4	2	I	1	0	890	1	poli_8sides 5_whiteLine3.jpg	Medium_e21_stereo_44KHz.wav
4	60	1	1	1	C	2	1	808	1	poli_8sides 16_whiteLine3.jpg	Medium_e26_stereo_44KHz.wav
4	61	3	3	2	I	2	0	668	0	poli_8sides 10_whiteLine3.jpg	MediumLong_b10_cut2_L_stereo_44KHz.wav
4	62	4	3	2	I	2	0	629	0	poli_8sides 5_whiteLine3.jpg	MediumLong_b10_cut2_L_stereo_44KHz.wav
4	63	1	2	0	C	2	0	673	0	poli_8sides 16_whiteLine3.jpg	MediumLong_e19_stereo_44KHz.wav
4	64	2	1	0	C	1	1	658	1	poli_8sides 11_whiteLine3.jpg	Medium_e26_stereo_44KHz.wav
4	65	1	1	1	C	2	1	745	1	poli_8sides 16_whiteLine3.jpg	Medium_e26_stereo_44KHz.wav
4	66	3	3	2	I	2	0	743	0	poli_8sides 10_whiteLine3.jpg	MediumLong_b10_cut2_L_stereo_44KHz.wav
4	67	4	3	2	I	1	0	916	1	poli_8sides 5_whiteLine3.jpg	MediumLong_b10_cut2_L_stereo_44KHz.wav
4	68	2	2	1	C	2	1	768	1	poli_8sides 11_whiteLine3.jpg	MediumLong_e19_stereo_44KHz.wav
4	69	4	4	2	I	2	0	676	1	poli_8sides 5_whiteLine3.jpg	Medium_e21_stereo_44KHz.wav
4	70	2	1	0	C	1	1	737	1	poli_8sides 11_whiteLine3.jpg	Medium_e26_stereo_44KHz.wav
4	71	3	4	2	I	2	0	574	0	poli_8sides 10_whiteLine3.jpg	Medium_e21_stereo_44KHz.wav
4	72	1	2	0	C	2	0	799	0	poli_8sides 16_whiteLine3.jpg	MediumLong_e19_stereo_44KHz.wav
4	73	4	3	2	I	2	0	895	1	poli_8sides 5_whiteLine3.jpg	MediumLong_b10_cut2_L_stereo_44KHz.wav
4	74	1	2	0	C	1	1	568	1	poli_8sides 16_whiteLine3.jpg	MediumLong_e19_stereo_44KHz.wav
4	75	3	3	2	I	1	0	1005	0	poli_8sides 10_whiteLine3.jpg	MediumLong_b10_cut2_L_stereo_44KHz.wav
4	76	2	2	1	C	2	1	817	1	poli_8sides 11_whiteLine3.jpg	MediumLong_e19_stereo_44KHz.wav
4	77	3	4	2	I	2	0	1173	0	poli_8sides 10_whiteLine3.jpg	Medium_e21_stereo_44KHz.wav
4	78	4	4	2	I	1	0	921	0	poli_8sides 5_whiteLine3.jpg	Medium_e21_stereo_44KHz.wav
4	79	1	1	1	C	1	0	736	0	poli_8sides 16_whiteLine3.jpg	Medium_e26_stereo_44KHz.wav
4	80	2	1	0	C	1	1	494	1	poli_8sides 11_whiteLine3.jpg	Medium_e26_stereo_44KHz.wav
4	81	3	4	2	I	2	0	541	1	poli_8sides 10_whiteLine3.jpg	Medium_e21_stereo_44KHz.wav
4	82	4	3	2	I	1	0	874	0	poli_8sides 5_whiteLine3.jpg	MediumLong_b10_cut2_L_stereo_44KHz.wav
4	83	1	2	0	C	1	1	842	1	poli_8sides 16_whiteLine3.jpg	MediumLong_e19_stereo_44KHz.wav
4	84	2	2	1	C	2	1	769	1	poli_8sides 11_whiteLine3.jpg	MediumLong_e19_stereo_44KHz.wav
4	85	4	4	2	I	1	0	721	0	poli_8sides 5_whiteLine3.jpg	Medium_e21_stereo_44KHz.wav
4	86	1	1	1	C	2	1	953	1	poli_8sides 16_whiteLine3.jpg	Medium_e26_stereo_44KHz.wav
4	87	2	1	0	C	1	1	1056	1	poli_8sides 11_whiteLine3.jpg	Medium_e26_stereo_44KHz.wav
4	88	3	3	2	I	2	0	966	0	poli_8sides 10_whiteLine3.jpg	MediumLong_b10_cut2_L_stereo_44KHz.wav
4	89	2	1	0	C	1	1	762	1	poli_8sides 11_whiteLine3.jpg	Medium_e26_stereo_44KHz.wav
4	90	4	4	2	I	1	0	762	1	poli_8sides 5_whiteLine3.jpg	Medium_e21_stereo_44KHz.wav
4	91	3	3	2	I	2	0	904	0	poli_8sides 10_whiteLine3.jpg	MediumLong_b10_cut2_L_stereo_44KHz.wav
4	92	1	1	1	C	1	0	738	0	poli_8sides 16_whiteLine3.jpg	Medium_e26_stereo_44KHz.wav
4	93	2	2	1	C	2	1	776	1	poli_8sides 11_whiteLine3.jpg	MediumLong_e19_stereo_44KHz.wav
4	94	4	3	2	I	2	0	1319	0	poli_8sides 5_whiteLine3.jpg	MediumLong_b10_cut2_L_stereo_44KHz.wav
4	95	1	2	0	C	1	1	734	1	poli_8sides 16_whiteLine3.jpg	MediumLong_e19_stereo_44KHz.wav
4	96	3	4	2	I	2	0	814	1	poli_8sides 10_whiteLine3.jpg	Medium_e21_stereo_44KHz.wav
4	97	2	2	1	C	1	0	1001	0	poli_8sides 11_whiteLine3.jpg	MediumLong_e19_stereo_44KHz.wav
4	98	3	3	2	I	1	0	1046	1	poli_8sides 10_whiteLine3.jpg	MediumLong_b10_cut2_L_stereo_44KHz.wav
4	99	4	3	2	I	2	0	1216	1	poli_8sides 5_whiteLine3.jpg	MediumLong_b10_cut2_L_stereo_44KHz.wav
4	100	1	1	1	C	1	0	1198	0	poli_8sides 16_whiteLine3.jpg	Medium_e26_stereo_44KHz.wav
4	101	3	4	2	I	1	0	996	0	poli_8sides 10_whiteLine3.jpg	Medium_e21_stereo_44KHz.wav
4	102	1	2	0	C	2	0	809	0	poli_8sides 16_whiteLine3.jpg	MediumLong_e19_stereo_44KHz.wav
4	103	4	4	2	I	1	0	875	1	poli_8sides 5_whiteLine3.jpg	Medium_e21_stereo_44KHz.wav
4	104	2	1	0	C	1	1	613	1	poli_8sides 11_whiteLine3.jpg	Medium_e26_stereo_44KHz.wav
4	105	3	3	2	I	1	0	1028	0	poli_8sides 10_whiteLine3.jpg	MediumLong_b10_cut2_L_stereo_44KHz.wav
4	106	4	3	2	I	2	0	1254	0	poli_8sides 5_whiteLine3.jpg	MediumLong_b10_cut2_L_stereo_44KHz.wav
4	107	1	1	1	C	1	0	1094	0	poli_8sides 16_whiteLine3.jpg	Medium_e26_stereo_44KHz.wav
4	108	2	1	0	C	1	1	913	1	poli_8sides 11_whiteLine3.jpg	Medium_e26_stereo_44KHz.wav
4	109	4	4	2	I	1	0	794	1	poli_8sides 5_whiteLine3.jpg	Medium_e21_stereo_44KHz.wav
4	110	3	4	2	I	2	0	619	1	poli_8sides 10_whiteLine3.jpg	Medium_e21_stereo_44KHz.wav
4	111	1	2	0	C	1	1	1050	1	poli_8sides 16_whiteLine3.jpg	MediumLong_e19_stereo_44KHz.wav
4	112	2	2	1	C	2	1	791	1	poli_8sides 11_whiteLine3.jpg	MediumLong_e19_stereo_44KHz.wav
4	113	3	4	2	I	2	0	638	1	poli_8sides 10_whiteLine3.jpg	Medium_e21_stereo_44KHz.wav
4	114	4	4	2	I	1	0	601	1	poli_8sides 5_whiteLine3.jpg	Medium_e21_stereo_44KHz.wav
4	115	2	2	1	C	2	1	1126	1	poli_8sides 11_whiteLine3.jpg	MediumLong_e19_stereo_44KHz.wav
4	116	1	2	0	C	1	1	720	1	poli_8sides 16_whiteLine3.jpg	MediumLong_e19_stereo_44KHz.wav
4	117	3	3	2	I	1	0	793	1	poli_8sides 10_whiteLine3.jpg	MediumLong_b10_cut2_L_stereo_44KHz.wav
4	118	1	1	1	C	2	1	1090	1	poli_8sides 16_whiteLine3.jpg	Medium_e26_stereo_44KHz.wav
4	119	4	3	2	I	2	0	884	1	poli_8sides 5_whiteLine3.jpg	MediumLong_b10_cut2_L_stereo_44KHz.wav
4	120	2	1	0	C	1	1	765	1	poli_8sides 11_whiteLine3.jpg	Medium_e26_stereo_44KHz.wav
4	121	4	4	2	I	1	0	824	0	poli_8sides 5_whiteLine3.jpg	Medium_e21_stereo_44KHz.wav
4	122	2	1	0	C	1	1	800	1	poli_8sides 11_whiteLine3.jpg	Medium_e26_stereo_44KHz.wav
4	123	3	3	2	I	1	0	831	1	poli_8sides 10_whiteLine3.jpg	MediumLong_b10_cut2_L_stereo_44KHz.wav
4	124	1	1	1	C	1	0	980	0	poli_8sides 16_whiteLine3.jpg	Medium_e26_stereo_44KHz.wav
4	125	4	3	2	I	2	0	670	1	poli_8sides 5_whiteLine3.jpg	MediumLong_b10_cut2_L_stereo_44KHz.wav
4	126	2	2	1	C	2	1	1021	1	poli_8sides 11_whiteLine3.jpg	MediumLong_e19_stereo_44KHz.wav
4	127	3	4	2	I	1	0	614	0	poli_8sides 10_whiteLine3.jpg	Medium_e21_stereo_44KHz.wav
4	128	1	2	0	C	1	1	1035	1	poli_8sides 16_whiteLine3.jpg	MediumLong_e19_stereo_44KHz.wav
4	129	3	3	2	I	2	0	606	1	poli_8sides 10_whiteLine3.jpg	MediumLong_b10_cut2_L_stereo_44KHz.wav
4	130	1	2	0	C	1	1	979	1	poli_8sides 16_whiteLine3.jpg	MediumLong_e19_stereo_44KHz.wav
4	131	2	2	1	C	1	0	705	0	poli_8sides 11_whiteLine3.jpg	MediumLong_e19_stereo_44KHz.wav
4	132	4	3	2	I	1	0	800	1	poli_8sides 5_whiteLine3.jpg	MediumLong_b10_cut2_L_stereo_44KHz.wav
4	133	1	1	1	C	2	1	1519	1	poli_8sides 16_whiteLine3.jpg	Medium_e26_stereo_44KHz.wav
4	134	2	1	0	C	1	1	710	1	poli_8sides 11_whiteLine3.jpg	Medium_e26_stereo_44KHz.wav
4	135	3	4	2	I	1	0	737	0	poli_8sides 10_whiteLine3.jpg	Medium_e21_stereo_44KHz.wav
4	136	4	4	2	I	1	0	697	1	poli_8sides 5_whiteLine3.jpg	Medium_e21_stereo_44KHz.wav
4	137	1	1	1	C	2	1	1213	1	poli_8sides 16_whiteLine3.jpg	Medium_e26_stereo_44KHz.wav
4	138	2	1	0	C	1	1	597	1	poli_8sides 11_whiteLine3.jpg	Medium_e26_stereo_44KHz.wav
4	139	3	3	2	I	2	0	710	1	poli_8sides 10_whiteLine3.jpg	MediumLong_b10_cut2_L_stereo_44KHz.wav
4	140	4	4	2	I	1	0	914	1	poli_8sides 5_whiteLine3.jpg	Medium_e21_stereo_44KHz.wav
4	141	2	2	1	C	2	1	872	1	poli_8sides 11_whiteLine3.jpg	MediumLong_e19_stereo_44KHz.wav
4	142	4	3	2	I	2	0	948	1	poli_8sides 5_whiteLine3.jpg	MediumLong_b10_cut2_L_stereo_44KHz.wav
4	143	3	4	2	I	2	0	1510	0	poli_8sides 10_whiteLine3.jpg	Medium_e21_stereo_44KHz.wav
4	144	1	2	0	C	1	1	972	1	poli_8sides 16_whiteLine3.jpg	MediumLong_e19_stereo_44KHz.wav
4	145	4	3	2	I	1	0	850	0	poli_8sides 5_whiteLine3.jpg	MediumLong_b10_cut2_L_stereo_44KHz.wav
4	146	1	2	0	C	1	1	899	1	poli_8sides 16_whiteLine3.jpg	MediumLong_e19_stereo_44KHz.wav
4	147	3	4	2	I	2	0	1302	1	poli_8sides 10_whiteLine3.jpg	Medium_e21_stereo_44KHz.wav
4	148	2	2	1	C	2	1	1027	1	poli_8sides 11_whiteLine3.jpg	MediumLong_e19_stereo_44KHz.wav
4	149	4	4	2	I	1	0	757	1	poli_8sides 5_whiteLine3.jpg	Medium_e21_stereo_44KHz.wav
4	150	1	1	1	C	2	1	968	1	poli_8sides 16_whiteLine3.jpg	Medium_e26_stereo_44KHz.wav
4	151	2	1	0	C	1	1	734	1	poli_8sides 11_whiteLine3.jpg	Medium_e26_stereo_44KHz.wav
4	152	3	3	2	I	2	0	601	1	poli_8sides 10_whiteLine3.jpg	MediumLong_b10_cut2_L_stereo_44KHz.wav
4	153	2	1	0	C	2	0	1080	0	poli_8sides 11_whiteLine3.jpg	Medium_e26_stereo_44KHz.wav
4	154	4	3	2	I	1	0	527	1	poli_8sides 5_whiteLine3.jpg	MediumLong_b10_cut2_L_stereo_44KHz.wav
4	155	1	1	1	C	2	1	1133	1	poli_8sides 16_whiteLine3.jpg	Medium_e26_stereo_44KHz.wav
4	156	3	4	2	I	2	0	678	0	poli_8sides 10_whiteLine3.jpg	Medium_e21_stereo_44KHz.wav
4	157	4	4	2	I	2	0	768	1	poli_8sides 5_whiteLine3.jpg	Medium_e21_stereo_44KHz.wav
4	158	1	2	0	C	1	1	1013	1	poli_8sides 16_whiteLine3.jpg	MediumLong_e19_stereo_44KHz.wav
4	159	3	3	2	I	2	0	892	1	poli_8sides 10_whiteLine3.jpg	MediumLong_b10_cut2_L_stereo_44KHz.wav
4	160	2	2	1	C	2	1	1033	1	poli_8sides 11_whiteLine3.jpg	MediumLong_e19_stereo_44KHz.wav
4	161	1	1	1	C	1	0	791	0	poli_8sides 16_whiteLine3.jpg	Medium_e26_stereo_44KHz.wav
4	162	4	3	2	I	2	0	596	1	poli_8sides 5_whiteLine3.jpg	MediumLong_b10_cut2_L_stereo_44KHz.wav
4	163	2	2	1	C	2	1	1025	1	poli_8sides 11_whiteLine3.jpg	MediumLong_e19_stereo_44KHz.wav
4	164	3	3	2	I	2	0	561	0	poli_8sides 10_whiteLine3.jpg	MediumLong_b10_cut2_L_stereo_44KHz.wav
4	165	2	1	0	C	1	1	956	1	poli_8sides 11_whiteLine3.jpg	Medium_e26_stereo_44KHz.wav
4	166	4	4	2	I	2	0	617	0	poli_8sides 5_whiteLine3.jpg	Medium_e21_stereo_44KHz.wav
4	167	1	2	0	C	1	1	840	1	poli_8sides 16_whiteLine3.jpg	MediumLong_e19_stereo_44KHz.wav
4	168	3	4	2	I	2	0	552	1	poli_8sides 10_whiteLine3.jpg	Medium_e21_stereo_44KHz.wav
4	169	2	2	1	C	1	0	647	0	poli_8sides 11_whiteLine3.jpg	MediumLong_e19_stereo_44KHz.wav
4	170	1	1	1	C	2	1	1036	1	poli_8sides 16_whiteLine3.jpg	Medium_e26_stereo_44KHz.wav
4	171	4	4	2	I	2	0	655	1	poli_8sides 5_whiteLine3.jpg	Medium_e21_stereo_44KHz.wav
4	172	3	4	2	I	2	0	489	0	poli_8sides 10_whiteLine3.jpg	Medium_e21_stereo_44KHz.wav
4	173	4	3	2	I	1	0	435	0	poli_8sides 5_whiteLine3.jpg	MediumLong_b10_cut2_L_stereo_44KHz.wav
4	174	3	3	2	I	2	0	714	1	poli_8sides 10_whiteLine3.jpg	MediumLong_b10_cut2_L_stereo_44KHz.wav
4	175	2	1	0	C	1	1	893	1	poli_8sides 11_whiteLine3.jpg	Medium_e26_stereo_44KHz.wav
4	176	1	2	0	C	1	1	813	1	poli_8sides 16_whiteLine3.jpg	MediumLong_e19_stereo_44KHz.wav
4	177	4	3	2	I	2	0	524	0	poli_8sides 5_whiteLine3.jpg	MediumLong_b10_cut2_L_stereo_44KHz.wav
4	178	3	4	2	I	1	0	638	1	poli_8sides 10_whiteLine3.jpg	Medium_e21_stereo_44KHz.wav
4	179	1	2	0	C	1	1	955	1	poli_8sides 16_whiteLine3.jpg	MediumLong_e19_stereo_44KHz.wav
4	180	2	2	1	C	2	1	767	1	poli_8sides 11_whiteLine3.jpg	MediumLong_e19_stereo_44KHz.wav
4	181	3	3	2	I	2	0	601	1	poli_8sides 10_whiteLine3.jpg	MediumLong_b10_cut2_L_stereo_44KHz.wav
4	182	2	1	0	C	1	1	402	1	poli_8sides 11_whiteLine3.jpg	Medium_e26_stereo_44KHz.wav
4	183	1	1	1	C	2	1	773	1	poli_8sides 16_whiteLine3.jpg	Medium_e26_stereo_44KHz.wav
4	184	4	4	2	I	2	0	543	0	poli_8sides 5_whiteLine3.jpg	Medium_e21_stereo_44KHz.wav
4	185	2	1	0	C	1	1	453	1	poli_8sides 11_whiteLine3.jpg	Medium_e26_stereo_44KHz.wav
4	186	1	2	0	C	1	1	692	1	poli_8sides 16_whiteLine3.jpg	MediumLong_e19_stereo_44KHz.wav
4	187	3	4	2	I	2	0	568	1	poli_8sides 10_whiteLine3.jpg	Medium_e21_stereo_44KHz.wav
4	188	4	3	2	I	2	0	843	0	poli_8sides 5_whiteLine3.jpg	MediumLong_b10_cut2_L_stereo_44KHz.wav
4	189	3	3	2	I	1	0	1064	1	poli_8sides 10_whiteLine3.jpg	MediumLong_b10_cut2_L_stereo_44KHz.wav
4	190	4	4	2	I	2	0	637	1	poli_8sides 5_whiteLine3.jpg	Medium_e21_stereo_44KHz.wav
4	191	2	2	1	C	2	1	941	1	poli_8sides 11_whiteLine3.jpg	MediumLong_e19_stereo_44KHz.wav
4	192	1	1	1	C	2	1	781	1	poli_8sides 16_whiteLine3.jpg	Medium_e26_stereo_44KHz.wav
4	193	3	3	2	I	2	0	534	0	poli_8sides 10_whiteLine3.jpg	MediumLong_b10_cut2_L_stereo_44KHz.wav
4	194	1	2	0	C	1	1	1662	1	poli_8sides 16_whiteLine3.jpg	MediumLong_e19_stereo_44KHz.wav
4	195	4	3	2	I	1	0	958	0	poli_8sides 5_whiteLine3.jpg	MediumLong_b10_cut2_L_stereo_44KHz.wav
4	196	2	2	1	C	2	1	903	1	poli_8sides 11_whiteLine3.jpg	MediumLong_e19_stereo_44KHz.wav
4	197	3	4	2	I	2	0	516	0	poli_8sides 10_whiteLine3.jpg	Medium_e21_stereo_44KHz.wav
4	198	4	4	2	I	1	0	597	0	poli_8sides 5_whiteLine3.jpg	Medium_e21_stereo_44KHz.wav
4	199	2	1	0	C	2	0	706	0	poli_8sides 11_whiteLine3.jpg	Medium_e26_stereo_44KHz.wav
4	200	1	1	1	C	2	1	632	1	poli_8sides 16_whiteLine3.jpg	Medium_e26_stereo_44KHz.wav
