block	trial	Vstim	Astim	match	C/I	resp	.result	RT	fb	V-file	A-file
LR

0	1	1	2	0	C	2	0	994	0	Ⴋ	cut_eeuw_stereo_44KHz.wav
0	2	2	4	0	C	1	1	861	1	Ⴞ	cut_g_stereo_44KHz.wav
0	3	2	3	1	C	2	1	1133	1	Ⴞ	cut_ee_stereo_44KHz.wav
0	4	1	1	1	C	2	1	1443	1	Ⴋ	cut_oo_stereo_44KHz.wav
0	5	1	1	1	C	1	0	779	0	Ⴋ	cut_oo_stereo_44KHz.wav
0	6	2	3	1	C	2	1	1157	1	Ⴞ	cut_ee_stereo_44KHz.wav
0	7	1	2	0	C	1	1	766	1	Ⴋ	cut_eeuw_stereo_44KHz.wav
0	8	2	4	0	C	1	1	643	1	Ⴞ	cut_g_stereo_44KHz.wav
0	9	2	3	1	C	2	1	817	1	Ⴞ	cut_ee_stereo_44KHz.wav
0	10	1	2	0	C	1	1	834	1	Ⴋ	cut_eeuw_stereo_44KHz.wav
0	11	1	1	1	C	1	0	1023	0	Ⴋ	cut_oo_stereo_44KHz.wav
0	12	2	4	0	C	1	1	428	1	Ⴞ	cut_g_stereo_44KHz.wav
0	13	1	1	1	C	2	1	987	1	Ⴋ	cut_oo_stereo_44KHz.wav
0	14	2	4	0	C	1	1	554	1	Ⴞ	cut_g_stereo_44KHz.wav
0	15	2	3	1	C	2	1	587	1	Ⴞ	cut_ee_stereo_44KHz.wav
0	16	1	2	0	C	1	1	507	1	Ⴋ	cut_eeuw_stereo_44KHz.wav
0	17	2	3	1	C	2	1	685	1	Ⴞ	cut_ee_stereo_44KHz.wav
0	18	1	1	1	C	2	1	722	1	Ⴋ	cut_oo_stereo_44KHz.wav
0	19	1	2	0	C	1	1	617	1	Ⴋ	cut_eeuw_stereo_44KHz.wav
0	20	2	4	0	C	1	1	599	1	Ⴞ	cut_g_stereo_44KHz.wav
0	21	2	3	1	C	2	1	568	1	Ⴞ	cut_ee_stereo_44KHz.wav
0	22	1	1	1	C	2	1	783	1	Ⴋ	cut_oo_stereo_44KHz.wav
0	23	2	4	0	C	1	1	747	1	Ⴞ	cut_g_stereo_44KHz.wav
0	24	1	2	0	C	1	1	945	1	Ⴋ	cut_eeuw_stereo_44KHz.wav
0	25	2	3	1	C	2	1	644	1	Ⴞ	cut_ee_stereo_44KHz.wav
0	26	1	2	0	C	1	1	557	1	Ⴋ	cut_eeuw_stereo_44KHz.wav
0	27	1	1	1	C	2	1	509	1	Ⴋ	cut_oo_stereo_44KHz.wav
0	28	2	4	0	C	1	1	659	1	Ⴞ	cut_g_stereo_44KHz.wav
0	29	2	3	1	C	2	1	746	1	Ⴞ	cut_ee_stereo_44KHz.wav
0	30	1	1	1	C	1	0	528	0	Ⴋ	cut_oo_stereo_44KHz.wav
avg_resp = 750
1	1	4	4	2	I	2	0	1360	0	Ⴡ	cut_l_stereo_44KHz.wav
1	2	1	2	0	C	1	1	1018	1	Ⴜ	cut_h_stereo_44KHz.wav
1	3	3	3	2	I	1	0	1200	0	Ⴃ	cut_g_stereo_44KHz.wav
1	4	2	1	0	C	1	1	1194	1	Ⴇ	cut_w_stereo_44KHz.wav
1	5	3	4	2	I	2	0	735	0	Ⴃ	cut_l_stereo_44KHz.wav
1	6	4	3	2	I	2	0	884	0	Ⴡ	cut_g_stereo_44KHz.wav
1	7	1	1	1	C	2	1	1183	1	Ⴜ	cut_w_stereo_44KHz.wav
1	8	2	2	1	C	1	0	1100	0	Ⴇ	cut_h_stereo_44KHz.wav
1	9	4	3	2	I	1	0	880	1	Ⴡ	cut_g_stereo_44KHz.wav
1	10	2	1	0	C	2	0	1146	0	Ⴇ	cut_w_stereo_44KHz.wav
1	11	3	4	2	I	1	0	818	0	Ⴃ	cut_l_stereo_44KHz.wav
1	12	1	1	1	C	2	1	1252	1	Ⴜ	cut_w_stereo_44KHz.wav
1	13	4	4	2	I	2	0	870	1	Ⴡ	cut_l_stereo_44KHz.wav
1	14	3	3	2	I	1	0	982	0	Ⴃ	cut_g_stereo_44KHz.wav
1	15	1	2	0	C	2	0	947	0	Ⴜ	cut_h_stereo_44KHz.wav
1	16	2	2	1	C	1	0	1075	0	Ⴇ	cut_h_stereo_44KHz.wav
1	17	3	3	2	I	2	0	1097	0	Ⴃ	cut_g_stereo_44KHz.wav
1	18	1	1	1	C	2	1	933	1	Ⴜ	cut_w_stereo_44KHz.wav
1	19	4	4	2	I	2	0	906	1	Ⴡ	cut_l_stereo_44KHz.wav
1	20	2	1	0	C	1	1	808	1	Ⴇ	cut_w_stereo_44KHz.wav
1	21	1	2	0	C	2	0	1130	0	Ⴜ	cut_h_stereo_44KHz.wav
1	22	2	2	1	C	1	0	925	0	Ⴇ	cut_h_stereo_44KHz.wav
1	23	4	3	2	I	2	0	1023	1	Ⴡ	cut_g_stereo_44KHz.wav
1	24	3	4	2	I	2	0	1433	0	Ⴃ	cut_l_stereo_44KHz.wav
1	25	4	4	2	I	2	0	835	0	Ⴡ	cut_l_stereo_44KHz.wav
1	26	3	4	2	I	1	0	960	0	Ⴃ	cut_l_stereo_44KHz.wav
1	27	2	1	0	C	1	1	921	1	Ⴇ	cut_w_stereo_44KHz.wav
1	28	1	2	0	C	1	1	1057	1	Ⴜ	cut_h_stereo_44KHz.wav
1	29	2	2	1	C	1	0	1117	0	Ⴇ	cut_h_stereo_44KHz.wav
1	30	3	3	2	I	1	0	1022	0	Ⴃ	cut_g_stereo_44KHz.wav
1	31	1	1	1	C	2	1	1610	1	Ⴜ	cut_w_stereo_44KHz.wav
1	32	4	3	2	I	1	0	1177	0	Ⴡ	cut_g_stereo_44KHz.wav
1	33	1	2	0	C	1	1	904	1	Ⴜ	cut_h_stereo_44KHz.wav
1	34	4	4	2	I	1	0	1601	0	Ⴡ	cut_l_stereo_44KHz.wav
1	35	3	4	2	I	1	0	867	1	Ⴃ	cut_l_stereo_44KHz.wav
1	36	2	1	0	C	1	1	944	1	Ⴇ	cut_w_stereo_44KHz.wav
1	37	1	1	1	C	2	1	1624	1	Ⴜ	cut_w_stereo_44KHz.wav
1	38	4	3	2	I	1	0	1314	0	Ⴡ	cut_g_stereo_44KHz.wav
1	39	3	3	2	I	1	0	591	1	Ⴃ	cut_g_stereo_44KHz.wav
1	40	2	2	1	C	1	0	884	0	Ⴇ	cut_h_stereo_44KHz.wav
1	41	4	4	2	I	2	0	1110	1	Ⴡ	cut_l_stereo_44KHz.wav
1	42	1	2	0	C	1	1	827	1	Ⴜ	cut_h_stereo_44KHz.wav
1	43	2	2	1	C	2	1	743	1	Ⴇ	cut_h_stereo_44KHz.wav
1	44	3	4	2	I	2	0	1509	1	Ⴃ	cut_l_stereo_44KHz.wav
1	45	4	3	2	I	0	0	0	0	Ⴡ	cut_g_stereo_44KHz.wav
1	46	3	3	2	I	1	0	766	1	Ⴃ	cut_g_stereo_44KHz.wav
1	47	1	1	1	C	1	0	867	0	Ⴜ	cut_w_stereo_44KHz.wav
1	48	2	1	0	C	1	1	1157	1	Ⴇ	cut_w_stereo_44KHz.wav
1	49	3	3	2	I	1	0	733	1	Ⴃ	cut_g_stereo_44KHz.wav
1	50	4	4	2	I	2	0	934	1	Ⴡ	cut_l_stereo_44KHz.wav
1	51	1	2	0	C	1	1	797	1	Ⴜ	cut_h_stereo_44KHz.wav
1	52	2	2	1	C	2	1	758	1	Ⴇ	cut_h_stereo_44KHz.wav
1	53	1	1	1	C	2	1	1111	1	Ⴜ	cut_w_stereo_44KHz.wav
1	54	3	4	2	I	2	0	777	0	Ⴃ	cut_l_stereo_44KHz.wav
1	55	2	1	0	C	2	0	1488	0	Ⴇ	cut_w_stereo_44KHz.wav
1	56	4	3	2	I	2	0	834	1	Ⴡ	cut_g_stereo_44KHz.wav
1	57	3	4	2	I	1	0	834	1	Ⴃ	cut_l_stereo_44KHz.wav
1	58	1	1	1	C	1	0	1167	0	Ⴜ	cut_w_stereo_44KHz.wav
1	59	4	4	2	I	2	0	878	1	Ⴡ	cut_l_stereo_44KHz.wav
1	60	2	2	1	C	2	1	1349	1	Ⴇ	cut_h_stereo_44KHz.wav
1	61	3	3	2	I	1	0	967	0	Ⴃ	cut_g_stereo_44KHz.wav
1	62	2	1	0	C	2	0	1000	0	Ⴇ	cut_w_stereo_44KHz.wav
1	63	4	3	2	I	1	0	1178	1	Ⴡ	cut_g_stereo_44KHz.wav
1	64	1	2	0	C	1	1	755	1	Ⴜ	cut_h_stereo_44KHz.wav
1	65	4	4	2	I	2	0	1206	0	Ⴡ	cut_l_stereo_44KHz.wav
1	66	2	2	1	C	2	1	1495	1	Ⴇ	cut_h_stereo_44KHz.wav
1	67	1	1	1	C	2	1	1470	1	Ⴜ	cut_w_stereo_44KHz.wav
1	68	3	4	2	I	1	0	634	1	Ⴃ	cut_l_stereo_44KHz.wav
1	69	4	3	2	I	2	0	1369	0	Ⴡ	cut_g_stereo_44KHz.wav
1	70	3	3	2	I	2	0	1163	1	Ⴃ	cut_g_stereo_44KHz.wav
1	71	1	2	0	C	1	1	712	1	Ⴜ	cut_h_stereo_44KHz.wav
1	72	2	1	0	C	1	1	1388	1	Ⴇ	cut_w_stereo_44KHz.wav
1	73	3	3	2	I	1	0	1461	1	Ⴃ	cut_g_stereo_44KHz.wav
1	74	1	2	0	C	1	1	727	1	Ⴜ	cut_h_stereo_44KHz.wav
1	75	2	1	0	C	2	0	859	0	Ⴇ	cut_w_stereo_44KHz.wav
1	76	4	3	2	I	2	0	1093	0	Ⴡ	cut_g_stereo_44KHz.wav
1	77	1	1	1	C	2	1	1056	1	Ⴜ	cut_w_stereo_44KHz.wav
1	78	3	4	2	I	1	0	796	0	Ⴃ	cut_l_stereo_44KHz.wav
1	79	2	2	1	C	1	0	780	0	Ⴇ	cut_h_stereo_44KHz.wav
1	80	4	4	2	I	2	0	923	0	Ⴡ	cut_l_stereo_44KHz.wav
1	81	2	2	1	C	2	1	1320	1	Ⴇ	cut_h_stereo_44KHz.wav
1	82	3	3	2	I	2	0	1413	1	Ⴃ	cut_g_stereo_44KHz.wav
1	83	1	1	1	C	2	1	1225	1	Ⴜ	cut_w_stereo_44KHz.wav
1	84	4	4	2	I	2	0	1366	0	Ⴡ	cut_l_stereo_44KHz.wav
1	85	2	1	0	C	1	1	1082	1	Ⴇ	cut_w_stereo_44KHz.wav
1	86	4	3	2	I	2	0	1692	0	Ⴡ	cut_g_stereo_44KHz.wav
1	87	1	2	0	C	1	1	1305	1	Ⴜ	cut_h_stereo_44KHz.wav
1	88	3	4	2	I	2	0	1337	0	Ⴃ	cut_l_stereo_44KHz.wav
1	89	4	3	2	I	1	0	733	0	Ⴡ	cut_g_stereo_44KHz.wav
1	90	3	3	2	I	1	0	768	1	Ⴃ	cut_g_stereo_44KHz.wav
1	91	1	2	0	C	1	1	901	1	Ⴜ	cut_h_stereo_44KHz.wav
1	92	2	1	0	C	1	1	1222	1	Ⴇ	cut_w_stereo_44KHz.wav
1	93	3	4	2	I	2	0	1403	0	Ⴃ	cut_l_stereo_44KHz.wav
1	94	1	1	1	C	1	0	1054	0	Ⴜ	cut_w_stereo_44KHz.wav
1	95	4	4	2	I	1	0	1213	1	Ⴡ	cut_l_stereo_44KHz.wav
1	96	2	2	1	C	0	0	0	0	Ⴇ	cut_h_stereo_44KHz.wav
1	97	3	3	2	I	1	0	953	0	Ⴃ	cut_g_stereo_44KHz.wav
1	98	4	3	2	I	1	0	573	0	Ⴡ	cut_g_stereo_44KHz.wav
1	99	2	2	1	C	1	0	1268	0	Ⴇ	cut_h_stereo_44KHz.wav
1	100	1	2	0	C	1	1	603	1	Ⴜ	cut_h_stereo_44KHz.wav
1	101	2	1	0	C	1	1	839	1	Ⴇ	cut_w_stereo_44KHz.wav
1	102	4	4	2	I	1	0	1083	1	Ⴡ	cut_l_stereo_44KHz.wav
1	103	3	4	2	I	2	0	1013	0	Ⴃ	cut_l_stereo_44KHz.wav
1	104	1	1	1	C	1	0	525	0	Ⴜ	cut_w_stereo_44KHz.wav
1	105	4	3	2	I	2	0	1603	0	Ⴡ	cut_g_stereo_44KHz.wav
1	106	3	4	2	I	2	0	1115	1	Ⴃ	cut_l_stereo_44KHz.wav
1	107	2	2	1	C	2	1	1547	1	Ⴇ	cut_h_stereo_44KHz.wav
1	108	1	2	0	C	1	1	730	1	Ⴜ	cut_h_stereo_44KHz.wav
1	109	2	1	0	C	1	1	835	1	Ⴇ	cut_w_stereo_44KHz.wav
1	110	3	3	2	I	1	0	802	1	Ⴃ	cut_g_stereo_44KHz.wav
1	111	1	1	1	C	2	1	1125	1	Ⴜ	cut_w_stereo_44KHz.wav
1	112	4	4	2	I	1	0	812	1	Ⴡ	cut_l_stereo_44KHz.wav
1	113	1	1	1	C	2	1	981	1	Ⴜ	cut_w_stereo_44KHz.wav
1	114	2	2	1	C	2	1	1166	1	Ⴇ	cut_h_stereo_44KHz.wav
1	115	3	3	2	I	1	0	1136	0	Ⴃ	cut_g_stereo_44KHz.wav
1	116	4	4	2	I	2	0	1342	0	Ⴡ	cut_l_stereo_44KHz.wav
1	117	3	4	2	I	1	0	790	1	Ⴃ	cut_l_stereo_44KHz.wav
1	118	1	2	0	C	1	1	760	1	Ⴜ	cut_h_stereo_44KHz.wav
1	119	4	3	2	I	1	0	1160	1	Ⴡ	cut_g_stereo_44KHz.wav
1	120	2	1	0	C	1	1	1587	1	Ⴇ	cut_w_stereo_44KHz.wav
1	121	4	3	2	I	1	0	679	0	Ⴡ	cut_g_stereo_44KHz.wav
1	122	1	1	1	C	2	1	1214	1	Ⴜ	cut_w_stereo_44KHz.wav
1	123	2	2	1	C	2	1	1523	1	Ⴇ	cut_h_stereo_44KHz.wav
1	124	3	3	2	I	1	0	1123	1	Ⴃ	cut_g_stereo_44KHz.wav
1	125	1	2	0	C	1	1	1028	1	Ⴜ	cut_h_stereo_44KHz.wav
1	126	2	1	0	C	1	1	1200	1	Ⴇ	cut_w_stereo_44KHz.wav
1	127	3	4	2	I	2	0	836	1	Ⴃ	cut_l_stereo_44KHz.wav
1	128	4	4	2	I	1	0	628	1	Ⴡ	cut_l_stereo_44KHz.wav
1	129	2	2	1	C	2	1	770	1	Ⴇ	cut_h_stereo_44KHz.wav
1	130	4	4	2	I	1	0	565	0	Ⴡ	cut_l_stereo_44KHz.wav
1	131	3	4	2	I	2	0	995	0	Ⴃ	cut_l_stereo_44KHz.wav
1	132	1	1	1	C	2	1	863	1	Ⴜ	cut_w_stereo_44KHz.wav
1	133	4	3	2	I	1	0	918	1	Ⴡ	cut_g_stereo_44KHz.wav
1	134	3	3	2	I	2	0	729	0	Ⴃ	cut_g_stereo_44KHz.wav
1	135	1	2	0	C	1	1	1769	1	Ⴜ	cut_h_stereo_44KHz.wav
1	136	2	1	0	C	1	1	717	1	Ⴇ	cut_w_stereo_44KHz.wav
1	137	1	2	0	C	1	1	799	1	Ⴜ	cut_h_stereo_44KHz.wav
1	138	4	3	2	I	1	0	618	1	Ⴡ	cut_g_stereo_44KHz.wav
1	139	3	3	2	I	1	0	424	0	Ⴃ	cut_g_stereo_44KHz.wav
1	140	2	2	1	C	2	1	1310	1	Ⴇ	cut_h_stereo_44KHz.wav
1	141	4	4	2	I	1	0	869	1	Ⴡ	cut_l_stereo_44KHz.wav
1	142	2	1	0	C	1	1	1157	1	Ⴇ	cut_w_stereo_44KHz.wav
1	143	3	4	2	I	2	0	832	1	Ⴃ	cut_l_stereo_44KHz.wav
1	144	1	1	1	C	1	0	675	0	Ⴜ	cut_w_stereo_44KHz.wav
1	145	3	4	2	I	2	0	1271	1	Ⴃ	cut_l_stereo_44KHz.wav
1	146	1	2	0	C	1	1	728	1	Ⴜ	cut_h_stereo_44KHz.wav
1	147	2	1	0	C	1	1	869	1	Ⴇ	cut_w_stereo_44KHz.wav
1	148	4	4	2	I	1	0	841	0	Ⴡ	cut_l_stereo_44KHz.wav
1	149	1	1	1	C	2	1	1061	1	Ⴜ	cut_w_stereo_44KHz.wav
1	150	3	3	2	I	2	0	1216	0	Ⴃ	cut_g_stereo_44KHz.wav
1	151	4	3	2	I	1	0	713	1	Ⴡ	cut_g_stereo_44KHz.wav
1	152	2	2	1	C	1	0	1453	0	Ⴇ	cut_h_stereo_44KHz.wav
1	153	3	3	2	I	1	0	1003	1	Ⴃ	cut_g_stereo_44KHz.wav
1	154	1	2	0	C	1	1	851	1	Ⴜ	cut_h_stereo_44KHz.wav
1	155	2	2	1	C	2	1	825	1	Ⴇ	cut_h_stereo_44KHz.wav
1	156	4	3	2	I	2	0	941	1	Ⴡ	cut_g_stereo_44KHz.wav
1	157	2	1	0	C	1	1	946	1	Ⴇ	cut_w_stereo_44KHz.wav
1	158	4	4	2	I	1	0	800	0	Ⴡ	cut_l_stereo_44KHz.wav
1	159	3	4	2	I	2	0	941	0	Ⴃ	cut_l_stereo_44KHz.wav
1	160	1	1	1	C	2	1	1204	1	Ⴜ	cut_w_stereo_44KHz.wav
1	161	4	4	2	I	2	0	971	1	Ⴡ	cut_l_stereo_44KHz.wav
1	162	3	3	2	I	2	0	1310	0	Ⴃ	cut_g_stereo_44KHz.wav
1	163	1	2	0	C	1	1	784	1	Ⴜ	cut_h_stereo_44KHz.wav
1	164	2	1	0	C	1	1	806	1	Ⴇ	cut_w_stereo_44KHz.wav
1	165	4	3	2	I	2	0	684	0	Ⴡ	cut_g_stereo_44KHz.wav
1	166	2	2	1	C	2	1	1347	1	Ⴇ	cut_h_stereo_44KHz.wav
1	167	3	4	2	I	2	0	1046	1	Ⴃ	cut_l_stereo_44KHz.wav
1	168	1	1	1	C	2	1	910	1	Ⴜ	cut_w_stereo_44KHz.wav
1	169	2	2	1	C	2	1	891	1	Ⴇ	cut_h_stereo_44KHz.wav
1	170	1	1	1	C	2	1	840	1	Ⴜ	cut_w_stereo_44KHz.wav
1	171	4	3	2	I	2	0	913	1	Ⴡ	cut_g_stereo_44KHz.wav
1	172	3	3	2	I	1	0	712	1	Ⴃ	cut_g_stereo_44KHz.wav
1	173	1	2	0	C	2	0	671	0	Ⴜ	cut_h_stereo_44KHz.wav
1	174	2	1	0	C	1	1	1021	1	Ⴇ	cut_w_stereo_44KHz.wav
1	175	3	4	2	I	1	0	983	0	Ⴃ	cut_l_stereo_44KHz.wav
1	176	4	4	2	I	2	0	782	1	Ⴡ	cut_l_stereo_44KHz.wav
1	177	1	1	1	C	2	1	850	1	Ⴜ	cut_w_stereo_44KHz.wav
1	178	4	4	2	I	1	0	1313	1	Ⴡ	cut_l_stereo_44KHz.wav
1	179	2	2	1	C	1	0	939	0	Ⴇ	cut_h_stereo_44KHz.wav
1	180	3	3	2	I	1	0	1297	0	Ⴃ	cut_g_stereo_44KHz.wav
1	181	4	3	2	I	1	0	1203	0	Ⴡ	cut_g_stereo_44KHz.wav
1	182	1	2	0	C	1	1	803	1	Ⴜ	cut_h_stereo_44KHz.wav
1	183	2	1	0	C	2	0	794	0	Ⴇ	cut_w_stereo_44KHz.wav
1	184	3	4	2	I	2	0	1139	1	Ⴃ	cut_l_stereo_44KHz.wav
1	185	2	2	1	C	2	1	1039	1	Ⴇ	cut_h_stereo_44KHz.wav
1	186	3	4	2	I	1	0	1037	1	Ⴃ	cut_l_stereo_44KHz.wav
1	187	1	1	1	C	2	1	875	1	Ⴜ	cut_w_stereo_44KHz.wav
1	188	4	3	2	I	2	0	784	0	Ⴡ	cut_g_stereo_44KHz.wav
1	189	2	1	0	C	1	1	996	1	Ⴇ	cut_w_stereo_44KHz.wav
1	190	1	2	0	C	1	1	945	1	Ⴜ	cut_h_stereo_44KHz.wav
1	191	3	3	2	I	1	0	1398	0	Ⴃ	cut_g_stereo_44KHz.wav
1	192	4	4	2	I	2	0	868	1	Ⴡ	cut_l_stereo_44KHz.wav
1	193	2	2	1	C	2	1	1347	1	Ⴇ	cut_h_stereo_44KHz.wav
1	194	3	4	2	I	1	0	805	1	Ⴃ	cut_l_stereo_44KHz.wav
1	195	4	3	2	I	1	0	795	0	Ⴡ	cut_g_stereo_44KHz.wav
1	196	1	1	1	C	2	1	919	1	Ⴜ	cut_w_stereo_44KHz.wav
1	197	2	1	0	C	1	1	859	1	Ⴇ	cut_w_stereo_44KHz.wav
1	198	4	4	2	I	1	0	627	0	Ⴡ	cut_l_stereo_44KHz.wav
1	199	3	3	2	I	2	0	1514	1	Ⴃ	cut_g_stereo_44KHz.wav
1	200	1	2	0	C	1	1	815	1	Ⴜ	cut_h_stereo_44KHz.wav
2	1	2	2	1	C	2	1	1923	1	Ⴁ	cut_s_stereo_44KHz.wav
2	2	4	4	2	I	1	0	811	1	Ⴂ	cut_f_stereo_44KHz.wav
2	3	3	3	2	I	1	0	1013	1	Ⴊ	cut_j_stereo_44KHz.wav
2	4	1	2	0	C	2	0	1384	0	Ⴟ	cut_s_stereo_44KHz.wav
2	5	2	1	0	C	1	1	1307	1	Ⴁ	cut_r_stereo_44KHz.wav
2	6	1	1	1	C	2	1	711	1	Ⴟ	cut_r_stereo_44KHz.wav
2	7	3	4	2	I	2	0	611	1	Ⴊ	cut_f_stereo_44KHz.wav
2	8	4	3	2	I	2	0	663	0	Ⴂ	cut_j_stereo_44KHz.wav
2	9	1	2	0	C	2	0	883	0	Ⴟ	cut_s_stereo_44KHz.wav
2	10	4	4	2	I	1	0	898	1	Ⴂ	cut_f_stereo_44KHz.wav
2	11	3	4	2	I	2	0	758	0	Ⴊ	cut_f_stereo_44KHz.wav
2	12	2	2	1	C	1	0	1171	0	Ⴁ	cut_s_stereo_44KHz.wav
2	13	4	3	2	I	1	0	778	1	Ⴂ	cut_j_stereo_44KHz.wav
2	14	2	1	0	C	2	0	605	0	Ⴁ	cut_r_stereo_44KHz.wav
2	15	1	1	1	C	2	1	1210	1	Ⴟ	cut_r_stereo_44KHz.wav
2	16	3	3	2	I	2	0	1004	0	Ⴊ	cut_j_stereo_44KHz.wav
2	17	2	1	0	C	2	0	1448	0	Ⴁ	cut_r_stereo_44KHz.wav
2	18	3	3	2	I	1	0	573	1	Ⴊ	cut_j_stereo_44KHz.wav
2	19	1	2	0	C	1	1	946	1	Ⴟ	cut_s_stereo_44KHz.wav
2	20	4	3	2	I	1	0	843	0	Ⴂ	cut_j_stereo_44KHz.wav
2	21	2	2	1	C	2	1	790	1	Ⴁ	cut_s_stereo_44KHz.wav
2	22	1	1	1	C	2	1	726	1	Ⴟ	cut_r_stereo_44KHz.wav
2	23	4	4	2	I	1	0	1076	1	Ⴂ	cut_f_stereo_44KHz.wav
2	24	3	4	2	I	2	0	717	0	Ⴊ	cut_f_stereo_44KHz.wav
2	25	2	1	0	C	2	0	870	0	Ⴁ	cut_r_stereo_44KHz.wav
2	26	3	4	2	I	1	0	847	0	Ⴊ	cut_f_stereo_44KHz.wav
2	27	4	3	2	I	1	0	982	0	Ⴂ	cut_j_stereo_44KHz.wav
2	28	1	1	1	C	2	1	1093	1	Ⴟ	cut_r_stereo_44KHz.wav
2	29	4	4	2	I	1	0	1106	1	Ⴂ	cut_f_stereo_44KHz.wav
2	30	1	2	0	C	2	0	1035	0	Ⴟ	cut_s_stereo_44KHz.wav
2	31	3	3	2	I	1	0	972	1	Ⴊ	cut_j_stereo_44KHz.wav
2	32	2	2	1	C	2	1	696	1	Ⴁ	cut_s_stereo_44KHz.wav
2	33	1	1	1	C	2	1	1309	1	Ⴟ	cut_r_stereo_44KHz.wav
2	34	4	3	2	I	2	0	993	1	Ⴂ	cut_j_stereo_44KHz.wav
2	35	3	4	2	I	2	0	887	0	Ⴊ	cut_f_stereo_44KHz.wav
2	36	2	1	0	C	2	0	1325	0	Ⴁ	cut_r_stereo_44KHz.wav
2	37	4	4	2	I	1	0	821	0	Ⴂ	cut_f_stereo_44KHz.wav
2	38	3	3	2	I	2	0	1087	0	Ⴊ	cut_j_stereo_44KHz.wav
2	39	1	2	0	C	1	1	819	1	Ⴟ	cut_s_stereo_44KHz.wav
2	40	2	2	1	C	2	1	681	1	Ⴁ	cut_s_stereo_44KHz.wav
2	41	1	1	1	C	2	1	831	1	Ⴟ	cut_r_stereo_44KHz.wav
2	42	2	1	0	C	1	1	857	1	Ⴁ	cut_r_stereo_44KHz.wav
2	43	3	4	2	I	2	0	914	0	Ⴊ	cut_f_stereo_44KHz.wav
2	44	4	3	2	I	1	0	804	1	Ⴂ	cut_j_stereo_44KHz.wav
2	45	3	3	2	I	2	0	692	0	Ⴊ	cut_j_stereo_44KHz.wav
2	46	4	4	2	I	1	0	640	1	Ⴂ	cut_f_stereo_44KHz.wav
2	47	1	2	0	C	1	1	721	1	Ⴟ	cut_s_stereo_44KHz.wav
2	48	2	2	1	C	2	1	884	1	Ⴁ	cut_s_stereo_44KHz.wav
2	49	4	4	2	I	1	0	778	0	Ⴂ	cut_f_stereo_44KHz.wav
2	50	3	4	2	I	2	0	859	0	Ⴊ	cut_f_stereo_44KHz.wav
2	51	1	2	0	C	1	1	671	1	Ⴟ	cut_s_stereo_44KHz.wav
2	52	2	2	1	C	2	1	915	1	Ⴁ	cut_s_stereo_44KHz.wav
2	53	3	3	2	I	1	0	875	1	Ⴊ	cut_j_stereo_44KHz.wav
2	54	4	3	2	I	2	0	986	1	Ⴂ	cut_j_stereo_44KHz.wav
2	55	1	1	1	C	2	1	915	1	Ⴟ	cut_r_stereo_44KHz.wav
2	56	2	1	0	C	1	1	916	1	Ⴁ	cut_r_stereo_44KHz.wav
2	57	4	4	2	I	1	0	972	1	Ⴂ	cut_f_stereo_44KHz.wav
2	58	1	2	0	C	1	1	736	1	Ⴟ	cut_s_stereo_44KHz.wav
2	59	2	1	0	C	1	1	842	1	Ⴁ	cut_r_stereo_44KHz.wav
2	60	3	3	2	I	1	0	767	1	Ⴊ	cut_j_stereo_44KHz.wav
2	61	4	3	2	I	2	0	755	0	Ⴂ	cut_j_stereo_44KHz.wav
2	62	2	2	1	C	2	1	1031	1	Ⴁ	cut_s_stereo_44KHz.wav
2	63	3	4	2	I	1	0	744	1	Ⴊ	cut_f_stereo_44KHz.wav
2	64	1	1	1	C	2	1	969	1	Ⴟ	cut_r_stereo_44KHz.wav
2	65	4	3	2	I	2	0	884	1	Ⴂ	cut_j_stereo_44KHz.wav
2	66	2	2	1	C	2	1	704	1	Ⴁ	cut_s_stereo_44KHz.wav
2	67	1	1	1	C	2	1	777	1	Ⴟ	cut_r_stereo_44KHz.wav
2	68	3	4	2	I	2	0	788	0	Ⴊ	cut_f_stereo_44KHz.wav
2	69	2	1	0	C	1	1	968	1	Ⴁ	cut_r_stereo_44KHz.wav
2	70	3	3	2	I	2	0	891	1	Ⴊ	cut_j_stereo_44KHz.wav
2	71	4	4	2	I	2	0	832	1	Ⴂ	cut_f_stereo_44KHz.wav
2	72	1	2	0	C	1	1	940	1	Ⴟ	cut_s_stereo_44KHz.wav
2	73	3	4	2	I	2	0	1126	1	Ⴊ	cut_f_stereo_44KHz.wav
2	74	4	3	2	I	1	0	1238	0	Ⴂ	cut_j_stereo_44KHz.wav
2	75	2	1	0	C	1	1	1133	1	Ⴁ	cut_r_stereo_44KHz.wav
2	76	1	2	0	C	1	1	636	1	Ⴟ	cut_s_stereo_44KHz.wav
2	77	3	3	2	I	1	0	1092	0	Ⴊ	cut_j_stereo_44KHz.wav
2	78	1	1	1	C	2	1	938	1	Ⴟ	cut_r_stereo_44KHz.wav
2	79	4	4	2	I	2	0	798	1	Ⴂ	cut_f_stereo_44KHz.wav
2	80	2	2	1	C	2	1	866	1	Ⴁ	cut_s_stereo_44KHz.wav
2	81	1	1	1	C	2	1	1040	1	Ⴟ	cut_r_stereo_44KHz.wav
2	82	4	3	2	I	2	0	1038	0	Ⴂ	cut_j_stereo_44KHz.wav
2	83	2	2	1	C	2	1	961	1	Ⴁ	cut_s_stereo_44KHz.wav
2	84	3	4	2	I	1	0	1411	1	Ⴊ	cut_f_stereo_44KHz.wav
2	85	1	2	0	C	1	1	1082	1	Ⴟ	cut_s_stereo_44KHz.wav
2	86	2	1	0	C	1	1	907	1	Ⴁ	cut_r_stereo_44KHz.wav
2	87	3	3	2	I	1	0	910	1	Ⴊ	cut_j_stereo_44KHz.wav
2	88	4	4	2	I	2	0	1238	0	Ⴂ	cut_f_stereo_44KHz.wav
2	89	3	4	2	I	2	0	746	1	Ⴊ	cut_f_stereo_44KHz.wav
2	90	1	2	0	C	1	1	892	1	Ⴟ	cut_s_stereo_44KHz.wav
2	91	4	4	2	I	2	0	924	0	Ⴂ	cut_f_stereo_44KHz.wav
2	92	2	1	0	C	1	1	843	1	Ⴁ	cut_r_stereo_44KHz.wav
2	93	1	1	1	C	2	1	652	1	Ⴟ	cut_r_stereo_44KHz.wav
2	94	2	2	1	C	2	1	1043	1	Ⴁ	cut_s_stereo_44KHz.wav
2	95	3	3	2	I	1	0	716	0	Ⴊ	cut_j_stereo_44KHz.wav
2	96	4	3	2	I	1	0	907	1	Ⴂ	cut_j_stereo_44KHz.wav
2	97	2	2	1	C	2	1	780	1	Ⴁ	cut_s_stereo_44KHz.wav
2	98	3	3	2	I	2	0	748	0	Ⴊ	cut_j_stereo_44KHz.wav
2	99	1	2	0	C	1	1	909	1	Ⴟ	cut_s_stereo_44KHz.wav
2	100	4	4	2	I	2	0	783	0	Ⴂ	cut_f_stereo_44KHz.wav
2	101	2	1	0	C	1	1	892	1	Ⴁ	cut_r_stereo_44KHz.wav
2	102	1	1	1	C	2	1	728	1	Ⴟ	cut_r_stereo_44KHz.wav
2	103	4	3	2	I	1	0	802	0	Ⴂ	cut_j_stereo_44KHz.wav
2	104	3	4	2	I	2	0	1023	1	Ⴊ	cut_f_stereo_44KHz.wav
2	105	4	4	2	I	1	0	884	0	Ⴂ	cut_f_stereo_44KHz.wav
2	106	3	3	2	I	1	0	705	1	Ⴊ	cut_j_stereo_44KHz.wav
2	107	2	1	0	C	1	1	1181	1	Ⴁ	cut_r_stereo_44KHz.wav
2	108	1	2	0	C	2	0	1206	0	Ⴟ	cut_s_stereo_44KHz.wav
2	109	3	4	2	I	2	0	778	0	Ⴊ	cut_f_stereo_44KHz.wav
2	110	2	2	1	C	2	1	749	1	Ⴁ	cut_s_stereo_44KHz.wav
2	111	1	1	1	C	2	1	1037	1	Ⴟ	cut_r_stereo_44KHz.wav
2	112	4	3	2	I	1	0	956	0	Ⴂ	cut_j_stereo_44KHz.wav
2	113	3	4	2	I	2	0	1071	1	Ⴊ	cut_f_stereo_44KHz.wav
2	114	4	3	2	I	2	0	1240	1	Ⴂ	cut_j_stereo_44KHz.wav
2	115	2	2	1	C	2	1	912	1	Ⴁ	cut_s_stereo_44KHz.wav
2	116	1	2	0	C	1	1	860	1	Ⴟ	cut_s_stereo_44KHz.wav
2	117	3	3	2	I	1	0	954	1	Ⴊ	cut_j_stereo_44KHz.wav
2	118	4	4	2	I	1	0	754	0	Ⴂ	cut_f_stereo_44KHz.wav
2	119	1	1	1	C	2	1	784	1	Ⴟ	cut_r_stereo_44KHz.wav
2	120	2	1	0	C	1	1	949	1	Ⴁ	cut_r_stereo_44KHz.wav
2	121	4	4	2	I	1	0	1002	0	Ⴂ	cut_f_stereo_44KHz.wav
2	122	2	1	0	C	1	1	860	1	Ⴁ	cut_r_stereo_44KHz.wav
2	123	3	3	2	I	1	0	1015	0	Ⴊ	cut_j_stereo_44KHz.wav
2	124	1	2	0	C	1	1	906	1	Ⴟ	cut_s_stereo_44KHz.wav
2	125	3	4	2	I	2	0	869	0	Ⴊ	cut_f_stereo_44KHz.wav
2	126	1	1	1	C	2	1	853	1	Ⴟ	cut_r_stereo_44KHz.wav
2	127	2	2	1	C	2	1	1105	1	Ⴁ	cut_s_stereo_44KHz.wav
2	128	4	3	2	I	1	0	859	1	Ⴂ	cut_j_stereo_44KHz.wav
2	129	2	1	0	C	1	1	1059	1	Ⴁ	cut_r_stereo_44KHz.wav
2	130	4	3	2	I	1	0	856	0	Ⴂ	cut_j_stereo_44KHz.wav
2	131	3	4	2	I	1	0	1558	1	Ⴊ	cut_f_stereo_44KHz.wav
2	132	1	1	1	C	2	1	781	1	Ⴟ	cut_r_stereo_44KHz.wav
2	133	3	3	2	I	1	0	652	1	Ⴊ	cut_j_stereo_44KHz.wav
2	134	4	4	2	I	1	0	655	1	Ⴂ	cut_f_stereo_44KHz.wav
2	135	1	2	0	C	1	1	980	1	Ⴟ	cut_s_stereo_44KHz.wav
2	136	2	2	1	C	2	1	1388	1	Ⴁ	cut_s_stereo_44KHz.wav
2	137	4	3	2	I	1	0	1029	0	Ⴂ	cut_j_stereo_44KHz.wav
2	138	2	2	1	C	2	1	865	1	Ⴁ	cut_s_stereo_44KHz.wav
2	139	1	2	0	C	1	1	786	1	Ⴟ	cut_s_stereo_44KHz.wav
2	140	3	3	2	I	1	0	835	0	Ⴊ	cut_j_stereo_44KHz.wav
2	141	4	4	2	I	2	0	772	1	Ⴂ	cut_f_stereo_44KHz.wav
2	142	1	1	1	C	2	1	847	1	Ⴟ	cut_r_stereo_44KHz.wav
2	143	2	1	0	C	1	1	919	1	Ⴁ	cut_r_stereo_44KHz.wav
2	144	3	4	2	I	2	0	1226	0	Ⴊ	cut_f_stereo_44KHz.wav
2	145	2	1	0	C	1	1	933	1	Ⴁ	cut_r_stereo_44KHz.wav
2	146	3	3	2	I	2	0	999	1	Ⴊ	cut_j_stereo_44KHz.wav
2	147	1	2	0	C	1	1	744	1	Ⴟ	cut_s_stereo_44KHz.wav
2	148	4	4	2	I	1	0	956	0	Ⴂ	cut_f_stereo_44KHz.wav
2	149	2	2	1	C	2	1	1123	1	Ⴁ	cut_s_stereo_44KHz.wav
2	150	4	3	2	I	1	0	739	0	Ⴂ	cut_j_stereo_44KHz.wav
2	151	3	4	2	I	1	0	1197	0	Ⴊ	cut_f_stereo_44KHz.wav
2	152	1	1	1	C	2	1	849	1	Ⴟ	cut_r_stereo_44KHz.wav
2	153	4	4	2	I	1	0	976	1	Ⴂ	cut_f_stereo_44KHz.wav
2	154	1	1	1	C	2	1	1129	1	Ⴟ	cut_r_stereo_44KHz.wav
2	155	2	2	1	C	2	1	1004	1	Ⴁ	cut_s_stereo_44KHz.wav
2	156	3	4	2	I	2	0	853	1	Ⴊ	cut_f_stereo_44KHz.wav
2	157	4	3	2	I	2	0	744	0	Ⴂ	cut_j_stereo_44KHz.wav
2	158	1	2	0	C	1	1	1107	1	Ⴟ	cut_s_stereo_44KHz.wav
2	159	2	1	0	C	1	1	867	1	Ⴁ	cut_r_stereo_44KHz.wav
2	160	3	3	2	I	2	0	950	0	Ⴊ	cut_j_stereo_44KHz.wav
2	161	2	1	0	C	2	0	919	0	Ⴁ	cut_r_stereo_44KHz.wav
2	162	4	4	2	I	1	0	827	0	Ⴂ	cut_f_stereo_44KHz.wav
2	163	1	2	0	C	1	1	834	1	Ⴟ	cut_s_stereo_44KHz.wav
2	164	3	3	2	I	1	0	970	0	Ⴊ	cut_j_stereo_44KHz.wav
2	165	2	2	1	C	2	1	899	1	Ⴁ	cut_s_stereo_44KHz.wav
2	166	3	4	2	I	2	0	1198	0	Ⴊ	cut_f_stereo_44KHz.wav
2	167	4	3	2	I	1	0	886	0	Ⴂ	cut_j_stereo_44KHz.wav
2	168	1	1	1	C	2	1	1106	1	Ⴟ	cut_r_stereo_44KHz.wav
2	169	4	4	2	I	1	0	799	1	Ⴂ	cut_f_stereo_44KHz.wav
2	170	2	1	0	C	1	1	1055	1	Ⴁ	cut_r_stereo_44KHz.wav
2	171	1	2	0	C	1	1	759	1	Ⴟ	cut_s_stereo_44KHz.wav
2	172	3	4	2	I	2	0	739	1	Ⴊ	cut_f_stereo_44KHz.wav
2	173	1	1	1	C	2	1	878	1	Ⴟ	cut_r_stereo_44KHz.wav
2	174	4	3	2	I	2	0	985	0	Ⴂ	cut_j_stereo_44KHz.wav
2	175	3	3	2	I	1	0	714	1	Ⴊ	cut_j_stereo_44KHz.wav
2	176	2	2	1	C	2	1	1038	1	Ⴁ	cut_s_stereo_44KHz.wav
2	177	3	3	2	I	1	0	1013	0	Ⴊ	cut_j_stereo_44KHz.wav
2	178	2	2	1	C	2	1	1018	1	Ⴁ	cut_s_stereo_44KHz.wav
2	179	4	4	2	I	1	0	753	0	Ⴂ	cut_f_stereo_44KHz.wav
2	180	1	2	0	C	1	1	1020	1	Ⴟ	cut_s_stereo_44KHz.wav
2	181	2	1	0	C	1	1	916	1	Ⴁ	cut_r_stereo_44KHz.wav
2	182	1	1	1	C	2	1	785	1	Ⴟ	cut_r_stereo_44KHz.wav
2	183	3	4	2	I	2	0	1341	1	Ⴊ	cut_f_stereo_44KHz.wav
2	184	4	3	2	I	2	0	1013	1	Ⴂ	cut_j_stereo_44KHz.wav
2	185	2	1	0	C	1	1	1140	1	Ⴁ	cut_r_stereo_44KHz.wav
2	186	4	3	2	I	2	0	932	1	Ⴂ	cut_j_stereo_44KHz.wav
2	187	3	3	2	I	1	0	630	0	Ⴊ	cut_j_stereo_44KHz.wav
2	188	1	1	1	C	2	1	939	1	Ⴟ	cut_r_stereo_44KHz.wav
2	189	2	2	1	C	2	1	783	1	Ⴁ	cut_s_stereo_44KHz.wav
2	190	4	4	2	I	1	0	739	1	Ⴂ	cut_f_stereo_44KHz.wav
2	191	1	2	0	C	1	1	1111	1	Ⴟ	cut_s_stereo_44KHz.wav
2	192	3	4	2	I	2	0	940	0	Ⴊ	cut_f_stereo_44KHz.wav
2	193	1	2	0	C	2	0	753	0	Ⴟ	cut_s_stereo_44KHz.wav
2	194	3	3	2	I	1	0	643	1	Ⴊ	cut_j_stereo_44KHz.wav
2	195	4	3	2	I	2	0	737	1	Ⴂ	cut_j_stereo_44KHz.wav
2	196	2	1	0	C	1	1	860	1	Ⴁ	cut_r_stereo_44KHz.wav
2	197	1	1	1	C	2	1	767	1	Ⴟ	cut_r_stereo_44KHz.wav
2	198	2	2	1	C	2	1	1009	1	Ⴁ	cut_s_stereo_44KHz.wav
2	199	4	4	2	I	1	0	696	1	Ⴂ	cut_f_stereo_44KHz.wav
2	200	3	4	2	I	2	0	662	1	Ⴊ	cut_f_stereo_44KHz.wav
3	1	1	1	1	C	1	0	1705	0	Ⴉ	cut_oei_stereo_44KHz.wav
3	2	4	4	2	I	2	0	985	0	Ⴔ	cut_n_stereo_44KHz.wav
3	3	2	2	1	C	1	0	935	0	Ⴏ	cut_ui_stereo_44KHz.wav
3	4	3	3	2	I	2	0	726	0	Ⴐ	cut_ei_stereo_44KHz.wav
3	5	2	1	0	C	2	0	1095	0	Ⴏ	cut_oei_stereo_44KHz.wav
3	6	3	4	2	I	2	0	864	1	Ⴐ	cut_n_stereo_44KHz.wav
3	7	1	2	0	C	1	1	687	1	Ⴉ	cut_ui_stereo_44KHz.wav
3	8	4	3	2	I	1	0	776	0	Ⴔ	cut_ei_stereo_44KHz.wav
3	9	1	2	0	C	1	1	534	1	Ⴉ	cut_ui_stereo_44KHz.wav
3	10	4	4	2	I	0	0	0	0	Ⴔ	cut_n_stereo_44KHz.wav
3	11	2	2	1	C	1	0	672	0	Ⴏ	cut_ui_stereo_44KHz.wav
3	12	3	4	2	I	1	0	1062	0	Ⴐ	cut_n_stereo_44KHz.wav
3	13	2	1	0	C	1	1	653	1	Ⴏ	cut_oei_stereo_44KHz.wav
3	14	1	1	1	C	2	1	634	1	Ⴉ	cut_oei_stereo_44KHz.wav
3	15	3	3	2	I	1	0	984	0	Ⴐ	cut_ei_stereo_44KHz.wav
3	16	4	3	2	I	1	0	654	0	Ⴔ	cut_ei_stereo_44KHz.wav
3	17	3	3	2	I	1	0	511	0	Ⴐ	cut_ei_stereo_44KHz.wav
3	18	4	3	2	I	2	0	513	1	Ⴔ	cut_ei_stereo_44KHz.wav
3	19	2	2	1	C	2	1	1015	1	Ⴏ	cut_ui_stereo_44KHz.wav
3	20	1	1	1	C	2	1	690	1	Ⴉ	cut_oei_stereo_44KHz.wav
3	21	2	1	0	C	1	1	496	1	Ⴏ	cut_oei_stereo_44KHz.wav
3	22	4	4	2	I	1	0	998	1	Ⴔ	cut_n_stereo_44KHz.wav
3	23	3	4	2	I	2	0	719	0	Ⴐ	cut_n_stereo_44KHz.wav
3	24	1	2	0	C	1	1	1000	1	Ⴉ	cut_ui_stereo_44KHz.wav
3	25	2	2	1	C	2	1	734	1	Ⴏ	cut_ui_stereo_44KHz.wav
3	26	1	1	1	C	2	1	764	1	Ⴉ	cut_oei_stereo_44KHz.wav
3	27	3	4	2	I	2	0	656	1	Ⴐ	cut_n_stereo_44KHz.wav
3	28	4	4	2	I	1	0	777	1	Ⴔ	cut_n_stereo_44KHz.wav
3	29	1	2	0	C	2	0	736	0	Ⴉ	cut_ui_stereo_44KHz.wav
3	30	3	3	2	I	2	0	711	0	Ⴐ	cut_ei_stereo_44KHz.wav
3	31	4	3	2	I	2	0	783	1	Ⴔ	cut_ei_stereo_44KHz.wav
3	32	2	1	0	C	1	1	625	1	Ⴏ	cut_oei_stereo_44KHz.wav
3	33	1	2	0	C	2	0	646	0	Ⴉ	cut_ui_stereo_44KHz.wav
3	34	4	3	2	I	2	0	676	0	Ⴔ	cut_ei_stereo_44KHz.wav
3	35	3	3	2	I	1	0	983	0	Ⴐ	cut_ei_stereo_44KHz.wav
3	36	2	1	0	C	1	1	1279	1	Ⴏ	cut_oei_stereo_44KHz.wav
3	37	4	4	2	I	2	0	931	1	Ⴔ	cut_n_stereo_44KHz.wav
3	38	1	1	1	C	2	1	773	1	Ⴉ	cut_oei_stereo_44KHz.wav
3	39	3	4	2	I	1	0	755	0	Ⴐ	cut_n_stereo_44KHz.wav
3	40	2	2	1	C	1	0	773	0	Ⴏ	cut_ui_stereo_44KHz.wav
3	41	4	3	2	I	2	0	834	0	Ⴔ	cut_ei_stereo_44KHz.wav
3	42	2	1	0	C	1	1	787	1	Ⴏ	cut_oei_stereo_44KHz.wav
3	43	1	2	0	C	2	0	791	0	Ⴉ	cut_ui_stereo_44KHz.wav
3	44	3	4	2	I	1	0	1068	0	Ⴐ	cut_n_stereo_44KHz.wav
3	45	1	1	1	C	2	1	1162	1	Ⴉ	cut_oei_stereo_44KHz.wav
3	46	3	3	2	I	2	0	1188	0	Ⴐ	cut_ei_stereo_44KHz.wav
3	47	2	2	1	C	1	0	789	0	Ⴏ	cut_ui_stereo_44KHz.wav
3	48	4	4	2	I	2	0	731	0	Ⴔ	cut_n_stereo_44KHz.wav
3	49	3	4	2	I	1	0	848	0	Ⴐ	cut_n_stereo_44KHz.wav
3	50	4	4	2	I	1	0	1033	0	Ⴔ	cut_n_stereo_44KHz.wav
3	51	2	1	0	C	1	1	768	1	Ⴏ	cut_oei_stereo_44KHz.wav
3	52	1	2	0	C	1	1	1146	1	Ⴉ	cut_ui_stereo_44KHz.wav
3	53	2	2	1	C	1	0	1089	0	Ⴏ	cut_ui_stereo_44KHz.wav
3	54	3	3	2	I	1	0	940	1	Ⴐ	cut_ei_stereo_44KHz.wav
3	55	4	3	2	I	2	0	848	1	Ⴔ	cut_ei_stereo_44KHz.wav
3	56	1	1	1	C	2	1	822	1	Ⴉ	cut_oei_stereo_44KHz.wav
3	57	2	2	1	C	2	1	661	1	Ⴏ	cut_ui_stereo_44KHz.wav
3	58	4	4	2	I	1	0	843	1	Ⴔ	cut_n_stereo_44KHz.wav
3	59	1	2	0	C	2	0	557	0	Ⴉ	cut_ui_stereo_44KHz.wav
3	60	3	4	2	I	2	0	1220	1	Ⴐ	cut_n_stereo_44KHz.wav
3	61	2	1	0	C	1	1	613	1	Ⴏ	cut_oei_stereo_44KHz.wav
3	62	4	3	2	I	2	0	766	1	Ⴔ	cut_ei_stereo_44KHz.wav
3	63	1	1	1	C	1	0	1069	0	Ⴉ	cut_oei_stereo_44KHz.wav
3	64	3	3	2	I	2	0	824	0	Ⴐ	cut_ei_stereo_44KHz.wav
3	65	2	1	0	C	1	1	628	1	Ⴏ	cut_oei_stereo_44KHz.wav
3	66	3	3	2	I	1	0	385	1	Ⴐ	cut_ei_stereo_44KHz.wav
3	67	4	3	2	I	2	0	727	1	Ⴔ	cut_ei_stereo_44KHz.wav
3	68	1	2	0	C	2	0	981	0	Ⴉ	cut_ui_stereo_44KHz.wav
3	69	4	4	2	I	1	0	1010	0	Ⴔ	cut_n_stereo_44KHz.wav
3	70	1	1	1	C	1	0	764	0	Ⴉ	cut_oei_stereo_44KHz.wav
3	71	3	4	2	I	2	0	1050	0	Ⴐ	cut_n_stereo_44KHz.wav
3	72	2	2	1	C	1	0	816	0	Ⴏ	cut_ui_stereo_44KHz.wav
3	73	4	3	2	I	2	0	832	0	Ⴔ	cut_ei_stereo_44KHz.wav
3	74	3	3	2	I	1	0	969	1	Ⴐ	cut_ei_stereo_44KHz.wav
3	75	2	1	0	C	1	1	1370	1	Ⴏ	cut_oei_stereo_44KHz.wav
3	76	1	1	1	C	2	1	724	1	Ⴉ	cut_oei_stereo_44KHz.wav
3	77	3	4	2	I	2	0	920	1	Ⴐ	cut_n_stereo_44KHz.wav
3	78	1	2	0	C	1	1	841	1	Ⴉ	cut_ui_stereo_44KHz.wav
3	79	4	4	2	I	1	0	1165	1	Ⴔ	cut_n_stereo_44KHz.wav
3	80	2	2	1	C	1	0	975	0	Ⴏ	cut_ui_stereo_44KHz.wav
3	81	4	4	2	I	1	0	799	0	Ⴔ	cut_n_stereo_44KHz.wav
3	82	3	4	2	I	2	0	751	0	Ⴐ	cut_n_stereo_44KHz.wav
3	83	1	1	1	C	1	0	1070	0	Ⴉ	cut_oei_stereo_44KHz.wav
3	84	2	1	0	C	1	1	863	1	Ⴏ	cut_oei_stereo_44KHz.wav
3	85	4	3	2	I	2	0	1188	1	Ⴔ	cut_ei_stereo_44KHz.wav
3	86	1	2	0	C	1	1	853	1	Ⴉ	cut_ui_stereo_44KHz.wav
3	87	3	3	2	I	1	0	822	1	Ⴐ	cut_ei_stereo_44KHz.wav
3	88	2	2	1	C	1	0	1461	0	Ⴏ	cut_ui_stereo_44KHz.wav
3	89	1	1	1	C	1	0	928	0	Ⴉ	cut_oei_stereo_44KHz.wav
3	90	2	1	0	C	2	0	1268	0	Ⴏ	cut_oei_stereo_44KHz.wav
3	91	3	4	2	I	2	0	1012	1	Ⴐ	cut_n_stereo_44KHz.wav
3	92	4	3	2	I	2	0	837	0	Ⴔ	cut_ei_stereo_44KHz.wav
3	93	1	2	0	C	1	1	745	1	Ⴉ	cut_ui_stereo_44KHz.wav
3	94	3	3	2	I	2	0	1003	0	Ⴐ	cut_ei_stereo_44KHz.wav
3	95	2	2	1	C	2	1	1424	1	Ⴏ	cut_ui_stereo_44KHz.wav
3	96	4	4	2	I	1	0	1371	0	Ⴔ	cut_n_stereo_44KHz.wav
3	97	3	4	2	I	1	0	1719	1	Ⴐ	cut_n_stereo_44KHz.wav
3	98	2	2	1	C	2	1	1196	1	Ⴏ	cut_ui_stereo_44KHz.wav
3	99	4	4	2	I	2	0	1101	1	Ⴔ	cut_n_stereo_44KHz.wav
3	100	1	2	0	C	1	1	906	1	Ⴉ	cut_ui_stereo_44KHz.wav
3	101	3	3	2	I	2	0	833	1	Ⴐ	cut_ei_stereo_44KHz.wav
3	102	4	3	2	I	1	0	908	0	Ⴔ	cut_ei_stereo_44KHz.wav
3	103	1	1	1	C	2	1	960	1	Ⴉ	cut_oei_stereo_44KHz.wav
3	104	2	1	0	C	1	1	885	1	Ⴏ	cut_oei_stereo_44KHz.wav
3	105	4	3	2	I	1	0	1204	1	Ⴔ	cut_ei_stereo_44KHz.wav
3	106	3	3	2	I	2	0	1021	1	Ⴐ	cut_ei_stereo_44KHz.wav
3	107	1	2	0	C	1	1	1046	1	Ⴉ	cut_ui_stereo_44KHz.wav
3	108	2	2	1	C	2	1	1072	1	Ⴏ	cut_ui_stereo_44KHz.wav
3	109	3	4	2	I	2	0	1026	1	Ⴐ	cut_n_stereo_44KHz.wav
3	110	4	4	2	I	2	0	643	0	Ⴔ	cut_n_stereo_44KHz.wav
3	111	2	1	0	C	1	1	848	1	Ⴏ	cut_oei_stereo_44KHz.wav
3	112	1	1	1	C	1	0	787	0	Ⴉ	cut_oei_stereo_44KHz.wav
3	113	4	4	2	I	2	0	960	1	Ⴔ	cut_n_stereo_44KHz.wav
3	114	1	1	1	C	1	0	789	0	Ⴉ	cut_oei_stereo_44KHz.wav
3	115	3	3	2	I	2	0	792	0	Ⴐ	cut_ei_stereo_44KHz.wav
3	116	2	2	1	C	2	1	1183	1	Ⴏ	cut_ui_stereo_44KHz.wav
3	117	4	3	2	I	1	0	965	1	Ⴔ	cut_ei_stereo_44KHz.wav
3	118	3	4	2	I	1	0	582	0	Ⴐ	cut_n_stereo_44KHz.wav
3	119	1	2	0	C	1	1	680	1	Ⴉ	cut_ui_stereo_44KHz.wav
3	120	2	1	0	C	1	1	1222	1	Ⴏ	cut_oei_stereo_44KHz.wav
3	121	1	1	1	C	2	1	864	1	Ⴉ	cut_oei_stereo_44KHz.wav
3	122	3	3	2	I	2	0	799	0	Ⴐ	cut_ei_stereo_44KHz.wav
3	123	4	4	2	I	2	0	859	1	Ⴔ	cut_n_stereo_44KHz.wav
3	124	2	1	0	C	1	1	788	1	Ⴏ	cut_oei_stereo_44KHz.wav
3	125	1	2	0	C	1	1	667	1	Ⴉ	cut_ui_stereo_44KHz.wav
3	126	4	3	2	I	1	0	897	0	Ⴔ	cut_ei_stereo_44KHz.wav
3	127	2	2	1	C	2	1	1044	1	Ⴏ	cut_ui_stereo_44KHz.wav
3	128	3	4	2	I	2	0	49	0	Ⴐ	cut_n_stereo_44KHz.wav
3	129	1	2	0	C	1	1	556	1	Ⴉ	cut_ui_stereo_44KHz.wav
3	130	3	3	2	I	1	0	892	1	Ⴐ	cut_ei_stereo_44KHz.wav
3	131	2	2	1	C	1	0	898	0	Ⴏ	cut_ui_stereo_44KHz.wav
3	132	4	4	2	I	2	0	868	0	Ⴔ	cut_n_stereo_44KHz.wav
3	133	3	4	2	I	2	0	1103	1	Ⴐ	cut_n_stereo_44KHz.wav
3	134	2	1	0	C	1	1	1282	1	Ⴏ	cut_oei_stereo_44KHz.wav
3	135	1	1	1	C	2	1	1038	1	Ⴉ	cut_oei_stereo_44KHz.wav
3	136	4	3	2	I	2	0	707	0	Ⴔ	cut_ei_stereo_44KHz.wav
3	137	3	4	2	I	0	0	0	0	Ⴐ	cut_n_stereo_44KHz.wav
3	138	1	2	0	C	1	1	668	1	Ⴉ	cut_ui_stereo_44KHz.wav
3	139	4	3	2	I	2	0	606	0	Ⴔ	cut_ei_stereo_44KHz.wav
3	140	2	1	0	C	1	1	739	1	Ⴏ	cut_oei_stereo_44KHz.wav
3	141	3	3	2	I	2	0	765	1	Ⴐ	cut_ei_stereo_44KHz.wav
3	142	1	1	1	C	1	0	635	0	Ⴉ	cut_oei_stereo_44KHz.wav
3	143	4	4	2	I	1	0	1370	1	Ⴔ	cut_n_stereo_44KHz.wav
3	144	2	2	1	C	2	1	1062	1	Ⴏ	cut_ui_stereo_44KHz.wav
3	145	3	3	2	I	1	0	916	0	Ⴐ	cut_ei_stereo_44KHz.wav
3	146	1	1	1	C	2	1	1001	1	Ⴉ	cut_oei_stereo_44KHz.wav
3	147	2	1	0	C	1	1	645	1	Ⴏ	cut_oei_stereo_44KHz.wav
3	148	4	3	2	I	2	0	1073	0	Ⴔ	cut_ei_stereo_44KHz.wav
3	149	3	4	2	I	1	0	1106	1	Ⴐ	cut_n_stereo_44KHz.wav
3	150	1	2	0	C	1	1	1184	1	Ⴉ	cut_ui_stereo_44KHz.wav
3	151	2	2	1	C	2	1	842	1	Ⴏ	cut_ui_stereo_44KHz.wav
3	152	4	4	2	I	2	0	841	0	Ⴔ	cut_n_stereo_44KHz.wav
3	153	3	3	2	I	2	0	1462	0	Ⴐ	cut_ei_stereo_44KHz.wav
3	154	4	3	2	I	2	0	706	1	Ⴔ	cut_ei_stereo_44KHz.wav
3	155	2	1	0	C	1	1	744	1	Ⴏ	cut_oei_stereo_44KHz.wav
3	156	1	1	1	C	2	1	681	1	Ⴉ	cut_oei_stereo_44KHz.wav
3	157	3	4	2	I	1	0	1464	1	Ⴐ	cut_n_stereo_44KHz.wav
3	158	1	2	0	C	1	1	777	1	Ⴉ	cut_ui_stereo_44KHz.wav
3	159	4	4	2	I	2	0	794	1	Ⴔ	cut_n_stereo_44KHz.wav
3	160	2	2	1	C	2	1	773	1	Ⴏ	cut_ui_stereo_44KHz.wav
3	161	4	4	2	I	1	0	1380	1	Ⴔ	cut_n_stereo_44KHz.wav
3	162	3	3	2	I	1	0	987	1	Ⴐ	cut_ei_stereo_44KHz.wav
3	163	1	1	1	C	1	0	1113	0	Ⴉ	cut_oei_stereo_44KHz.wav
3	164	2	2	1	C	2	1	1133	1	Ⴏ	cut_ui_stereo_44KHz.wav
3	165	4	3	2	I	2	0	582	0	Ⴔ	cut_ei_stereo_44KHz.wav
3	166	2	1	0	C	1	1	865	1	Ⴏ	cut_oei_stereo_44KHz.wav
3	167	1	2	0	C	2	0	858	0	Ⴉ	cut_ui_stereo_44KHz.wav
3	168	3	4	2	I	2	0	697	0	Ⴐ	cut_n_stereo_44KHz.wav
3	169	4	4	2	I	2	0	660	1	Ⴔ	cut_n_stereo_44KHz.wav
3	170	2	2	1	C	1	0	763	0	Ⴏ	cut_ui_stereo_44KHz.wav
3	171	3	3	2	I	1	0	787	1	Ⴐ	cut_ei_stereo_44KHz.wav
3	172	1	1	1	C	2	1	1089	1	Ⴉ	cut_oei_stereo_44KHz.wav
3	173	3	4	2	I	2	0	769	1	Ⴐ	cut_n_stereo_44KHz.wav
3	174	4	3	2	I	2	0	782	1	Ⴔ	cut_ei_stereo_44KHz.wav
3	175	1	2	0	C	1	1	967	1	Ⴉ	cut_ui_stereo_44KHz.wav
3	176	2	1	0	C	1	1	887	1	Ⴏ	cut_oei_stereo_44KHz.wav
3	177	4	3	2	I	2	0	750	0	Ⴔ	cut_ei_stereo_44KHz.wav
3	178	3	4	2	I	1	0	985	1	Ⴐ	cut_n_stereo_44KHz.wav
3	179	1	2	0	C	2	0	936	0	Ⴉ	cut_ui_stereo_44KHz.wav
3	180	2	2	1	C	2	1	987	1	Ⴏ	cut_ui_stereo_44KHz.wav
3	181	4	4	2	I	1	0	1067	1	Ⴔ	cut_n_stereo_44KHz.wav
3	182	2	1	0	C	1	1	1057	1	Ⴏ	cut_oei_stereo_44KHz.wav
3	183	3	3	2	I	2	0	916	0	Ⴐ	cut_ei_stereo_44KHz.wav
3	184	1	1	1	C	2	1	1059	1	Ⴉ	cut_oei_stereo_44KHz.wav
3	185	3	4	2	I	2	0	632	0	Ⴐ	cut_n_stereo_44KHz.wav
3	186	1	1	1	C	2	1	768	1	Ⴉ	cut_oei_stereo_44KHz.wav
3	187	2	2	1	C	1	0	674	0	Ⴏ	cut_ui_stereo_44KHz.wav
3	188	4	4	2	I	1	0	896	0	Ⴔ	cut_n_stereo_44KHz.wav
3	189	1	2	0	C	1	1	1201	1	Ⴉ	cut_ui_stereo_44KHz.wav
3	190	2	1	0	C	2	0	885	0	Ⴏ	cut_oei_stereo_44KHz.wav
3	191	3	3	2	I	1	0	1132	1	Ⴐ	cut_ei_stereo_44KHz.wav
3	192	4	3	2	I	2	0	1022	0	Ⴔ	cut_ei_stereo_44KHz.wav
3	193	1	2	0	C	1	1	884	1	Ⴉ	cut_ui_stereo_44KHz.wav
3	194	4	3	2	I	2	0	1791	1	Ⴔ	cut_ei_stereo_44KHz.wav
3	195	3	3	2	I	1	0	902	1	Ⴐ	cut_ei_stereo_44KHz.wav
3	196	2	2	1	C	2	1	967	1	Ⴏ	cut_ui_stereo_44KHz.wav
3	197	3	4	2	I	2	0	797	1	Ⴐ	cut_n_stereo_44KHz.wav
3	198	4	4	2	I	2	0	609	0	Ⴔ	cut_n_stereo_44KHz.wav
3	199	2	1	0	C	0	0	0	0	Ⴏ	cut_oei_stereo_44KHz.wav
3	200	1	1	1	C	1	0	697	0	Ⴉ	cut_oei_stereo_44KHz.wav
4	1	3	3	2	I	2	0	1626	0	Ⴖ	cut_a_stereo_44KHz.wav
4	2	1	1	1	C	1	0	729	0	Ⴕ	cut_u_stereo_44KHz.wav
4	3	2	2	1	C	2	1	1022	1	Ⴒ	cut_o_stereo_44KHz.wav
4	4	4	3	2	I	1	0	530	1	Ⴌ	cut_a_stereo_44KHz.wav
4	5	1	2	0	C	2	0	751	0	Ⴕ	cut_o_stereo_44KHz.wav
4	6	2	1	0	C	1	1	814	1	Ⴒ	cut_u_stereo_44KHz.wav
4	7	4	4	2	I	2	0	930	0	Ⴌ	cut_k_stereo_44KHz.wav
4	8	3	4	2	I	2	0	743	0	Ⴖ	cut_k_stereo_44KHz.wav
4	9	1	1	1	C	2	1	874	1	Ⴕ	cut_u_stereo_44KHz.wav
4	10	3	3	2	I	1	0	653	1	Ⴖ	cut_a_stereo_44KHz.wav
4	11	4	4	2	I	1	0	507	1	Ⴌ	cut_k_stereo_44KHz.wav
4	12	2	2	1	C	2	1	1039	1	Ⴒ	cut_o_stereo_44KHz.wav
4	13	3	4	2	I	1	0	563	0	Ⴖ	cut_k_stereo_44KHz.wav
4	14	4	3	2	I	1	0	848	1	Ⴌ	cut_a_stereo_44KHz.wav
4	15	2	1	0	C	2	0	697	0	Ⴒ	cut_u_stereo_44KHz.wav
4	16	1	2	0	C	1	1	660	1	Ⴕ	cut_o_stereo_44KHz.wav
4	17	2	2	1	C	2	1	643	1	Ⴒ	cut_o_stereo_44KHz.wav
4	18	3	4	2	I	2	0	1155	1	Ⴖ	cut_k_stereo_44KHz.wav
4	19	1	1	1	C	2	1	966	1	Ⴕ	cut_u_stereo_44KHz.wav
4	20	4	4	2	I	1	0	917	1	Ⴌ	cut_k_stereo_44KHz.wav
4	21	3	3	2	I	2	0	883	0	Ⴖ	cut_a_stereo_44KHz.wav
4	22	4	3	2	I	1	0	647	0	Ⴌ	cut_a_stereo_44KHz.wav
4	23	1	2	0	C	1	1	776	1	Ⴕ	cut_o_stereo_44KHz.wav
4	24	2	1	0	C	2	0	579	0	Ⴒ	cut_u_stereo_44KHz.wav
4	25	3	3	2	I	1	0	577	0	Ⴖ	cut_a_stereo_44KHz.wav
4	26	2	2	1	C	2	1	607	1	Ⴒ	cut_o_stereo_44KHz.wav
4	27	4	4	2	I	1	0	654	0	Ⴌ	cut_k_stereo_44KHz.wav
4	28	1	2	0	C	1	1	682	1	Ⴕ	cut_o_stereo_44KHz.wav
4	29	3	4	2	I	2	0	1182	1	Ⴖ	cut_k_stereo_44KHz.wav
4	30	2	1	0	C	1	1	742	1	Ⴒ	cut_u_stereo_44KHz.wav
4	31	1	1	1	C	2	1	692	1	Ⴕ	cut_u_stereo_44KHz.wav
4	32	4	3	2	I	1	0	555	0	Ⴌ	cut_a_stereo_44KHz.wav
4	33	1	1	1	C	2	1	746	1	Ⴕ	cut_u_stereo_44KHz.wav
4	34	3	4	2	I	1	0	652	0	Ⴖ	cut_k_stereo_44KHz.wav
4	35	4	4	2	I	1	0	542	1	Ⴌ	cut_k_stereo_44KHz.wav
4	36	2	2	1	C	2	1	1234	1	Ⴒ	cut_o_stereo_44KHz.wav
4	37	1	2	0	C	1	1	618	1	Ⴕ	cut_o_stereo_44KHz.wav
4	38	4	3	2	I	1	0	495	1	Ⴌ	cut_a_stereo_44KHz.wav
4	39	2	1	0	C	1	1	807	1	Ⴒ	cut_u_stereo_44KHz.wav
4	40	3	3	2	I	2	0	887	0	Ⴖ	cut_a_stereo_44KHz.wav
4	41	2	1	0	C	1	1	804	1	Ⴒ	cut_u_stereo_44KHz.wav
4	42	4	3	2	I	1	0	458	0	Ⴌ	cut_a_stereo_44KHz.wav
4	43	1	2	0	C	1	1	721	1	Ⴕ	cut_o_stereo_44KHz.wav
4	44	3	4	2	I	2	0	870	1	Ⴖ	cut_k_stereo_44KHz.wav
4	45	1	1	1	C	2	1	750	1	Ⴕ	cut_u_stereo_44KHz.wav
4	46	3	3	2	I	1	0	675	0	Ⴖ	cut_a_stereo_44KHz.wav
4	47	2	2	1	C	2	1	673	1	Ⴒ	cut_o_stereo_44KHz.wav
4	48	4	4	2	I	2	0	800	1	Ⴌ	cut_k_stereo_44KHz.wav
4	49	3	3	2	I	1	0	577	1	Ⴖ	cut_a_stereo_44KHz.wav
4	50	1	1	1	C	2	1	721	1	Ⴕ	cut_u_stereo_44KHz.wav
4	51	2	2	1	C	2	1	640	1	Ⴒ	cut_o_stereo_44KHz.wav
4	52	4	3	2	I	1	0	722	1	Ⴌ	cut_a_stereo_44KHz.wav
4	53	3	4	2	I	2	0	856	0	Ⴖ	cut_k_stereo_44KHz.wav
4	54	1	2	0	C	1	1	612	1	Ⴕ	cut_o_stereo_44KHz.wav
4	55	4	4	2	I	2	0	745	0	Ⴌ	cut_k_stereo_44KHz.wav
4	56	2	1	0	C	1	1	822	1	Ⴒ	cut_u_stereo_44KHz.wav
4	57	1	1	1	C	2	1	727	1	Ⴕ	cut_u_stereo_44KHz.wav
4	58	2	1	0	C	2	0	608	0	Ⴒ	cut_u_stereo_44KHz.wav
4	59	3	4	2	I	1	0	836	1	Ⴖ	cut_k_stereo_44KHz.wav
4	60	4	3	2	I	1	0	559	0	Ⴌ	cut_a_stereo_44KHz.wav
4	61	2	2	1	C	2	1	890	1	Ⴒ	cut_o_stereo_44KHz.wav
4	62	3	3	2	I	1	0	810	1	Ⴖ	cut_a_stereo_44KHz.wav
4	63	1	2	0	C	1	1	625	1	Ⴕ	cut_o_stereo_44KHz.wav
4	64	4	4	2	I	2	0	844	1	Ⴌ	cut_k_stereo_44KHz.wav
4	65	1	2	0	C	1	1	555	1	Ⴕ	cut_o_stereo_44KHz.wav
4	66	2	1	0	C	1	1	935	1	Ⴒ	cut_u_stereo_44KHz.wav
4	67	3	3	2	I	2	0	805	0	Ⴖ	cut_a_stereo_44KHz.wav
4	68	4	3	2	I	1	0	754	0	Ⴌ	cut_a_stereo_44KHz.wav
4	69	2	2	1	C	2	1	906	1	Ⴒ	cut_o_stereo_44KHz.wav
4	70	4	4	2	I	1	0	754	0	Ⴌ	cut_k_stereo_44KHz.wav
4	71	3	4	2	I	1	0	840	1	Ⴖ	cut_k_stereo_44KHz.wav
4	72	1	1	1	C	2	1	729	1	Ⴕ	cut_u_stereo_44KHz.wav
4	73	2	2	1	C	2	1	929	1	Ⴒ	cut_o_stereo_44KHz.wav
4	74	3	4	2	I	1	0	831	1	Ⴖ	cut_k_stereo_44KHz.wav
4	75	4	4	2	I	2	0	644	1	Ⴌ	cut_k_stereo_44KHz.wav
4	76	1	2	0	C	1	1	635	1	Ⴕ	cut_o_stereo_44KHz.wav
4	77	4	3	2	I	1	0	533	1	Ⴌ	cut_a_stereo_44KHz.wav
4	78	1	1	1	C	2	1	688	1	Ⴕ	cut_u_stereo_44KHz.wav
4	79	2	1	0	C	2	0	775	0	Ⴒ	cut_u_stereo_44KHz.wav
4	80	3	3	2	I	2	0	1056	1	Ⴖ	cut_a_stereo_44KHz.wav
4	81	2	2	1	C	2	1	833	1	Ⴒ	cut_o_stereo_44KHz.wav
4	82	1	2	0	C	1	1	706	1	Ⴕ	cut_o_stereo_44KHz.wav
4	83	4	4	2	I	1	0	798	0	Ⴌ	cut_k_stereo_44KHz.wav
4	84	3	3	2	I	2	0	764	0	Ⴖ	cut_a_stereo_44KHz.wav
4	85	4	3	2	I	1	0	535	0	Ⴌ	cut_a_stereo_44KHz.wav
4	86	1	1	1	C	2	1	702	1	Ⴕ	cut_u_stereo_44KHz.wav
4	87	2	1	0	C	2	0	648	0	Ⴒ	cut_u_stereo_44KHz.wav
4	88	3	4	2	I	2	0	666	0	Ⴖ	cut_k_stereo_44KHz.wav
4	89	2	2	1	C	2	1	876	1	Ⴒ	cut_o_stereo_44KHz.wav
4	90	4	3	2	I	1	0	657	1	Ⴌ	cut_a_stereo_44KHz.wav
4	91	1	2	0	C	1	1	642	1	Ⴕ	cut_o_stereo_44KHz.wav
4	92	3	4	2	I	1	0	768	1	Ⴖ	cut_k_stereo_44KHz.wav
4	93	2	1	0	C	1	1	670	1	Ⴒ	cut_u_stereo_44KHz.wav
4	94	1	1	1	C	2	1	732	1	Ⴕ	cut_u_stereo_44KHz.wav
4	95	4	4	2	I	2	0	629	0	Ⴌ	cut_k_stereo_44KHz.wav
4	96	3	3	2	I	1	0	841	0	Ⴖ	cut_a_stereo_44KHz.wav
4	97	4	4	2	I	2	0	733	1	Ⴌ	cut_k_stereo_44KHz.wav
4	98	1	2	0	C	1	1	621	1	Ⴕ	cut_o_stereo_44KHz.wav
4	99	2	1	0	C	1	1	754	1	Ⴒ	cut_u_stereo_44KHz.wav
4	100	3	3	2	I	2	0	683	1	Ⴖ	cut_a_stereo_44KHz.wav
4	101	4	3	2	I	1	0	789	0	Ⴌ	cut_a_stereo_44KHz.wav
4	102	1	1	1	C	2	1	677	1	Ⴕ	cut_u_stereo_44KHz.wav
4	103	2	2	1	C	2	1	672	1	Ⴒ	cut_o_stereo_44KHz.wav
4	104	3	4	2	I	1	0	833	1	Ⴖ	cut_k_stereo_44KHz.wav
4	105	2	1	0	C	2	0	667	0	Ⴒ	cut_u_stereo_44KHz.wav
4	106	4	3	2	I	1	0	539	1	Ⴌ	cut_a_stereo_44KHz.wav
4	107	3	3	2	I	1	0	822	0	Ⴖ	cut_a_stereo_44KHz.wav
4	108	1	1	1	C	2	1	741	1	Ⴕ	cut_u_stereo_44KHz.wav
4	109	3	4	2	I	2	0	809	0	Ⴖ	cut_k_stereo_44KHz.wav
4	110	2	2	1	C	2	1	668	1	Ⴒ	cut_o_stereo_44KHz.wav
4	111	4	4	2	I	2	0	646	1	Ⴌ	cut_k_stereo_44KHz.wav
4	112	1	2	0	C	1	1	630	1	Ⴕ	cut_o_stereo_44KHz.wav
4	113	3	4	2	I	1	0	817	1	Ⴖ	cut_k_stereo_44KHz.wav
4	114	1	2	0	C	1	1	957	1	Ⴕ	cut_o_stereo_44KHz.wav
4	115	4	3	2	I	1	0	614	0	Ⴌ	cut_a_stereo_44KHz.wav
4	116	2	1	0	C	1	1	766	1	Ⴒ	cut_u_stereo_44KHz.wav
4	117	3	3	2	I	1	0	730	1	Ⴖ	cut_a_stereo_44KHz.wav
4	118	2	2	1	C	2	1	860	1	Ⴒ	cut_o_stereo_44KHz.wav
4	119	4	4	2	I	1	0	561	1	Ⴌ	cut_k_stereo_44KHz.wav
4	120	1	1	1	C	2	1	785	1	Ⴕ	cut_u_stereo_44KHz.wav
4	121	4	4	2	I	1	0	623	1	Ⴌ	cut_k_stereo_44KHz.wav
4	122	3	4	2	I	2	0	684	0	Ⴖ	cut_k_stereo_44KHz.wav
4	123	2	1	0	C	1	1	904	1	Ⴒ	cut_u_stereo_44KHz.wav
4	124	1	1	1	C	2	1	669	1	Ⴕ	cut_u_stereo_44KHz.wav
4	125	2	2	1	C	2	1	772	1	Ⴒ	cut_o_stereo_44KHz.wav
4	126	3	3	2	I	1	0	1084	1	Ⴖ	cut_a_stereo_44KHz.wav
4	127	4	3	2	I	2	0	813	1	Ⴌ	cut_a_stereo_44KHz.wav
4	128	1	2	0	C	1	1	617	1	Ⴕ	cut_o_stereo_44KHz.wav
4	129	3	3	2	I	2	0	702	1	Ⴖ	cut_a_stereo_44KHz.wav
4	130	2	1	0	C	1	1	869	1	Ⴒ	cut_u_stereo_44KHz.wav
4	131	1	2	0	C	1	1	595	1	Ⴕ	cut_o_stereo_44KHz.wav
4	132	4	3	2	I	2	0	586	1	Ⴌ	cut_a_stereo_44KHz.wav
4	133	3	4	2	I	1	0	587	0	Ⴖ	cut_k_stereo_44KHz.wav
4	134	1	1	1	C	2	1	733	1	Ⴕ	cut_u_stereo_44KHz.wav
4	135	4	4	2	I	2	0	679	1	Ⴌ	cut_k_stereo_44KHz.wav
4	136	2	2	1	C	2	1	733	1	Ⴒ	cut_o_stereo_44KHz.wav
4	137	4	3	2	I	1	0	527	0	Ⴌ	cut_a_stereo_44KHz.wav
4	138	2	2	1	C	2	1	661	1	Ⴒ	cut_o_stereo_44KHz.wav
4	139	1	2	0	C	1	1	734	1	Ⴕ	cut_o_stereo_44KHz.wav
4	140	3	3	2	I	1	0	913	1	Ⴖ	cut_a_stereo_44KHz.wav
4	141	2	1	0	C	1	1	1233	1	Ⴒ	cut_u_stereo_44KHz.wav
4	142	1	1	1	C	2	1	671	1	Ⴕ	cut_u_stereo_44KHz.wav
4	143	3	4	2	I	2	0	960	1	Ⴖ	cut_k_stereo_44KHz.wav
4	144	4	4	2	I	1	0	647	0	Ⴌ	cut_k_stereo_44KHz.wav
4	145	3	3	2	I	1	0	713	0	Ⴖ	cut_a_stereo_44KHz.wav
4	146	2	2	1	C	2	1	1124	1	Ⴒ	cut_o_stereo_44KHz.wav
4	147	4	4	2	I	2	0	749	0	Ⴌ	cut_k_stereo_44KHz.wav
4	148	1	2	0	C	1	1	660	1	Ⴕ	cut_o_stereo_44KHz.wav
4	149	3	4	2	I	2	0	708	1	Ⴖ	cut_k_stereo_44KHz.wav
4	150	4	3	2	I	1	0	543	1	Ⴌ	cut_a_stereo_44KHz.wav
4	151	2	1	0	C	2	0	712	0	Ⴒ	cut_u_stereo_44KHz.wav
4	152	1	1	1	C	2	1	685	1	Ⴕ	cut_u_stereo_44KHz.wav
4	153	3	3	2	I	1	0	605	1	Ⴖ	cut_a_stereo_44KHz.wav
4	154	1	1	1	C	2	1	843	1	Ⴕ	cut_u_stereo_44KHz.wav
4	155	2	1	0	C	2	0	605	0	Ⴒ	cut_u_stereo_44KHz.wav
4	156	4	3	2	I	1	0	802	1	Ⴌ	cut_a_stereo_44KHz.wav
4	157	3	4	2	I	2	0	619	1	Ⴖ	cut_k_stereo_44KHz.wav
4	158	1	2	0	C	1	1	853	1	Ⴕ	cut_o_stereo_44KHz.wav
4	159	2	2	1	C	1	0	364	0	Ⴒ	cut_o_stereo_44KHz.wav
4	160	4	4	2	I	2	0	289	0	Ⴌ	cut_k_stereo_44KHz.wav
4	161	2	1	0	C	1	1	684	1	Ⴒ	cut_u_stereo_44KHz.wav
4	162	4	3	2	I	1	0	649	0	Ⴌ	cut_a_stereo_44KHz.wav
4	163	1	2	0	C	1	1	586	1	Ⴕ	cut_o_stereo_44KHz.wav
4	164	3	4	2	I	2	0	622	0	Ⴖ	cut_k_stereo_44KHz.wav
4	165	2	2	1	C	2	1	912	1	Ⴒ	cut_o_stereo_44KHz.wav
4	166	4	4	2	I	1	0	560	1	Ⴌ	cut_k_stereo_44KHz.wav
4	167	1	1	1	C	2	1	707	1	Ⴕ	cut_u_stereo_44KHz.wav
4	168	3	3	2	I	1	0	882	0	Ⴖ	cut_a_stereo_44KHz.wav
4	169	2	1	0	C	1	1	1028	1	Ⴒ	cut_u_stereo_44KHz.wav
4	170	1	2	0	C	1	1	616	1	Ⴕ	cut_o_stereo_44KHz.wav
4	171	4	3	2	I	1	0	966	1	Ⴌ	cut_a_stereo_44KHz.wav
4	172	3	3	2	I	2	0	627	0	Ⴖ	cut_a_stereo_44KHz.wav
4	173	4	4	2	I	2	0	819	0	Ⴌ	cut_k_stereo_44KHz.wav
4	174	2	2	1	C	2	1	1173	1	Ⴒ	cut_o_stereo_44KHz.wav
4	175	1	1	1	C	2	1	549	1	Ⴕ	cut_u_stereo_44KHz.wav
4	176	3	4	2	I	1	0	633	1	Ⴖ	cut_k_stereo_44KHz.wav
4	177	4	3	2	I	2	0	287	0	Ⴌ	cut_a_stereo_44KHz.wav
4	178	1	2	0	C	1	1	536	1	Ⴕ	cut_o_stereo_44KHz.wav
4	179	2	2	1	C	2	1	614	1	Ⴒ	cut_o_stereo_44KHz.wav
4	180	3	3	2	I	2	0	676	1	Ⴖ	cut_a_stereo_44KHz.wav
4	181	1	1	1	C	2	1	725	1	Ⴕ	cut_u_stereo_44KHz.wav
4	182	2	1	0	C	1	1	771	1	Ⴒ	cut_u_stereo_44KHz.wav
4	183	4	4	2	I	2	0	830	0	Ⴌ	cut_k_stereo_44KHz.wav
4	184	3	4	2	I	1	0	788	0	Ⴖ	cut_k_stereo_44KHz.wav
4	185	4	4	2	I	1	0	580	0	Ⴌ	cut_k_stereo_44KHz.wav
4	186	3	4	2	I	2	0	527	0	Ⴖ	cut_k_stereo_44KHz.wav
4	187	1	1	1	C	2	1	762	1	Ⴕ	cut_u_stereo_44KHz.wav
4	188	2	1	0	C	1	1	922	1	Ⴒ	cut_u_stereo_44KHz.wav
4	189	1	2	0	C	2	0	749	0	Ⴕ	cut_o_stereo_44KHz.wav
4	190	3	3	2	I	1	0	761	0	Ⴖ	cut_a_stereo_44KHz.wav
4	191	4	3	2	I	1	0	626	0	Ⴌ	cut_a_stereo_44KHz.wav
4	192	2	2	1	C	2	1	1314	1	Ⴒ	cut_o_stereo_44KHz.wav
4	193	3	3	2	I	1	0	635	0	Ⴖ	cut_a_stereo_44KHz.wav
4	194	4	4	2	I	1	0	758	1	Ⴌ	cut_k_stereo_44KHz.wav
4	195	2	1	0	C	1	1	746	1	Ⴒ	cut_u_stereo_44KHz.wav
4	196	1	1	1	C	2	1	1423	1	Ⴕ	cut_u_stereo_44KHz.wav
4	197	2	2	1	C	2	1	866	1	Ⴒ	cut_o_stereo_44KHz.wav
4	198	3	4	2	I	2	0	560	1	Ⴖ	cut_k_stereo_44KHz.wav
4	199	1	2	0	C	1	1	664	1	Ⴕ	cut_o_stereo_44KHz.wav
4	200	4	3	2	I	2	0	618	0	Ⴌ	cut_a_stereo_44KHz.wav
