block	trial	Vstim	Astim	match	C/I	resp	result	RT	fb	V-file	A-file
RL

0	1	2	3	1	C	1	1	1839	1	Ⴉ	cut_oo_stereo_44KHz.wav
0	2	2	4	0	C	1	0	1007	0	Ⴉ	cut_eeuw_stereo_44KHz.wav
0	3	1	1	1	C	2	0	1089	0	Ⴢ	cut_ee_stereo_44KHz.wav
0	4	1	2	0	C	2	1	1009	1	Ⴢ	cut_g_stereo_44KHz.wav
0	5	1	1	1	C	0	0	0	0	Ⴢ	cut_ee_stereo_44KHz.wav
0	6	2	4	0	C	2	1	1610	1	Ⴉ	cut_eeuw_stereo_44KHz.wav
0	7	2	3	1	C	1	1	1045	1	Ⴉ	cut_oo_stereo_44KHz.wav
0	8	1	2	0	C	2	1	1580	1	Ⴢ	cut_g_stereo_44KHz.wav
0	9	2	4	0	C	1	0	1407	0	Ⴉ	cut_eeuw_stereo_44KHz.wav
0	10	1	1	1	C	1	1	1283	1	Ⴢ	cut_ee_stereo_44KHz.wav
0	11	1	2	0	C	2	1	1117	1	Ⴢ	cut_g_stereo_44KHz.wav
0	12	2	3	1	C	1	1	978	1	Ⴉ	cut_oo_stereo_44KHz.wav
0	13	2	4	0	C	2	1	1596	1	Ⴉ	cut_eeuw_stereo_44KHz.wav
0	14	2	3	1	C	1	1	786	1	Ⴉ	cut_oo_stereo_44KHz.wav
0	15	1	2	0	C	2	1	1048	1	Ⴢ	cut_g_stereo_44KHz.wav
0	16	1	1	1	C	1	1	1186	1	Ⴢ	cut_ee_stereo_44KHz.wav
0	17	1	1	1	C	1	1	853	1	Ⴢ	cut_ee_stereo_44KHz.wav
0	18	2	4	0	C	2	1	931	1	Ⴉ	cut_eeuw_stereo_44KHz.wav
0	19	1	2	0	C	2	1	586	1	Ⴢ	cut_g_stereo_44KHz.wav
0	20	2	3	1	C	1	1	1397	1	Ⴉ	cut_oo_stereo_44KHz.wav
0	21	2	4	0	C	2	1	1697	1	Ⴉ	cut_eeuw_stereo_44KHz.wav
0	22	1	2	0	C	0	0	0	0	Ⴢ	cut_g_stereo_44KHz.wav
0	23	1	1	1	C	1	1	988	1	Ⴢ	cut_ee_stereo_44KHz.wav
0	24	2	3	1	C	1	1	1145	1	Ⴉ	cut_oo_stereo_44KHz.wav
0	25	2	4	0	C	2	1	1140	1	Ⴉ	cut_eeuw_stereo_44KHz.wav
0	26	2	3	1	C	0	0	0	0	Ⴉ	cut_oo_stereo_44KHz.wav
0	27	1	1	1	C	1	1	908	1	Ⴢ	cut_ee_stereo_44KHz.wav
0	28	1	2	0	C	2	1	662	1	Ⴢ	cut_g_stereo_44KHz.wav
0	29	1	1	1	C	1	1	784	1	Ⴢ	cut_ee_stereo_44KHz.wav
0	30	2	3	1	C	1	1	1902	1	Ⴉ	cut_oo_stereo_44KHz.wav
avg_resp = 1170
1	1	4	4	2	I	2	0	1083	0	Ⴁ	cut_r_stereo_44KHz.wav
1	2	1	1	1	C	2	0	1259	0	Ⴇ	cut_n_stereo_44KHz.wav
1	3	3	4	2	I	2	0	1175	0	Ⴊ	cut_r_stereo_44KHz.wav
1	4	2	1	0	C	2	1	1023	1	Ⴃ	cut_n_stereo_44KHz.wav
1	5	3	3	2	I	2	0	671	0	Ⴊ	cut_j_stereo_44KHz.wav
1	6	4	3	2	I	2	0	607	0	Ⴁ	cut_j_stereo_44KHz.wav
1	7	1	2	0	C	2	1	674	1	Ⴇ	cut_ei_stereo_44KHz.wav
1	8	2	2	1	C	2	0	823	0	Ⴃ	cut_ei_stereo_44KHz.wav
1	9	1	1	1	C	1	1	1480	1	Ⴇ	cut_n_stereo_44KHz.wav
1	10	4	3	2	I	2	0	785	0	Ⴁ	cut_j_stereo_44KHz.wav
1	11	3	3	2	I	2	0	888	1	Ⴊ	cut_j_stereo_44KHz.wav
1	12	2	1	0	C	2	1	1343	1	Ⴃ	cut_n_stereo_44KHz.wav
1	13	1	2	0	C	1	0	1363	0	Ⴇ	cut_ei_stereo_44KHz.wav
1	14	4	4	2	I	2	0	1367	1	Ⴁ	cut_r_stereo_44KHz.wav
1	15	2	2	1	C	1	1	818	1	Ⴃ	cut_ei_stereo_44KHz.wav
1	16	3	4	2	I	1	0	877	0	Ⴊ	cut_r_stereo_44KHz.wav
1	17	4	3	2	I	2	0	771	1	Ⴁ	cut_j_stereo_44KHz.wav
1	18	1	2	0	C	2	1	1003	1	Ⴇ	cut_ei_stereo_44KHz.wav
1	19	3	4	2	I	2	0	745	0	Ⴊ	cut_r_stereo_44KHz.wav
1	20	2	1	0	C	2	1	721	1	Ⴃ	cut_n_stereo_44KHz.wav
1	21	3	3	2	I	2	0	686	0	Ⴊ	cut_j_stereo_44KHz.wav
1	22	1	1	1	C	1	1	1099	1	Ⴇ	cut_n_stereo_44KHz.wav
1	23	2	2	1	C	1	1	867	1	Ⴃ	cut_ei_stereo_44KHz.wav
1	24	4	4	2	I	1	0	1302	1	Ⴁ	cut_r_stereo_44KHz.wav
1	25	1	2	0	C	1	0	1103	0	Ⴇ	cut_ei_stereo_44KHz.wav
1	26	2	2	1	C	1	1	1391	1	Ⴃ	cut_ei_stereo_44KHz.wav
1	27	4	4	2	I	2	0	1006	1	Ⴁ	cut_r_stereo_44KHz.wav
1	28	3	4	2	I	2	0	1082	0	Ⴊ	cut_r_stereo_44KHz.wav
1	29	1	1	1	C	1	1	805	1	Ⴇ	cut_n_stereo_44KHz.wav
1	30	3	3	2	I	2	0	1555	0	Ⴊ	cut_j_stereo_44KHz.wav
1	31	4	3	2	I	2	0	1081	1	Ⴁ	cut_j_stereo_44KHz.wav
1	32	2	1	0	C	2	1	1246	1	Ⴃ	cut_n_stereo_44KHz.wav
1	33	3	3	2	I	2	0	695	0	Ⴊ	cut_j_stereo_44KHz.wav
1	34	2	2	1	C	2	0	531	0	Ⴃ	cut_ei_stereo_44KHz.wav
1	35	4	4	2	I	2	0	1031	0	Ⴁ	cut_r_stereo_44KHz.wav
1	36	1	2	0	C	2	1	1448	1	Ⴇ	cut_ei_stereo_44KHz.wav
1	37	4	3	2	I	2	0	837	1	Ⴁ	cut_j_stereo_44KHz.wav
1	38	3	4	2	I	1	0	1421	0	Ⴊ	cut_r_stereo_44KHz.wav
1	39	1	1	1	C	0	0	0	0	Ⴇ	cut_n_stereo_44KHz.wav
1	40	2	1	0	C	2	1	693	1	Ⴃ	cut_n_stereo_44KHz.wav
1	41	1	2	0	C	2	1	795	1	Ⴇ	cut_ei_stereo_44KHz.wav
1	42	3	3	2	I	2	0	965	1	Ⴊ	cut_j_stereo_44KHz.wav
1	43	4	3	2	I	2	0	1845	1	Ⴁ	cut_j_stereo_44KHz.wav
1	44	2	1	0	C	2	1	1129	1	Ⴃ	cut_n_stereo_44KHz.wav
1	45	4	4	2	I	2	0	866	1	Ⴁ	cut_r_stereo_44KHz.wav
1	46	2	2	1	C	1	1	759	1	Ⴃ	cut_ei_stereo_44KHz.wav
1	47	1	1	1	C	1	1	1101	1	Ⴇ	cut_n_stereo_44KHz.wav
1	48	3	4	2	I	1	0	1175	0	Ⴊ	cut_r_stereo_44KHz.wav
1	49	1	2	0	C	2	1	806	1	Ⴇ	cut_ei_stereo_44KHz.wav
1	50	4	4	2	I	2	0	1026	1	Ⴁ	cut_r_stereo_44KHz.wav
1	51	3	3	2	I	2	0	756	1	Ⴊ	cut_j_stereo_44KHz.wav
1	52	2	1	0	C	2	1	641	1	Ⴃ	cut_n_stereo_44KHz.wav
1	53	1	1	1	C	1	1	830	1	Ⴇ	cut_n_stereo_44KHz.wav
1	54	4	3	2	I	2	0	519	1	Ⴁ	cut_j_stereo_44KHz.wav
1	55	2	2	1	C	1	1	738	1	Ⴃ	cut_ei_stereo_44KHz.wav
1	56	3	4	2	I	2	0	946	1	Ⴊ	cut_r_stereo_44KHz.wav
1	57	2	1	0	C	2	1	731	1	Ⴃ	cut_n_stereo_44KHz.wav
1	58	4	4	2	I	2	0	599	0	Ⴁ	cut_r_stereo_44KHz.wav
1	59	3	4	2	I	2	0	776	1	Ⴊ	cut_r_stereo_44KHz.wav
1	60	1	2	0	C	2	1	721	1	Ⴇ	cut_ei_stereo_44KHz.wav
1	61	4	3	2	I	2	0	755	0	Ⴁ	cut_j_stereo_44KHz.wav
1	62	2	2	1	C	2	0	502	0	Ⴃ	cut_ei_stereo_44KHz.wav
1	63	3	3	2	I	2	0	683	0	Ⴊ	cut_j_stereo_44KHz.wav
1	64	1	1	1	C	1	1	997	1	Ⴇ	cut_n_stereo_44KHz.wav
1	65	2	1	0	C	2	1	720	1	Ⴃ	cut_n_stereo_44KHz.wav
1	66	3	4	2	I	2	0	1096	0	Ⴊ	cut_r_stereo_44KHz.wav
1	67	1	1	1	C	2	0	890	0	Ⴇ	cut_n_stereo_44KHz.wav
1	68	4	3	2	I	1	0	753	1	Ⴁ	cut_j_stereo_44KHz.wav
1	69	2	2	1	C	1	1	744	1	Ⴃ	cut_ei_stereo_44KHz.wav
1	70	4	4	2	I	1	0	870	0	Ⴁ	cut_r_stereo_44KHz.wav
1	71	1	2	0	C	1	0	1316	0	Ⴇ	cut_ei_stereo_44KHz.wav
1	72	3	3	2	I	2	0	938	1	Ⴊ	cut_j_stereo_44KHz.wav
1	73	2	2	1	C	2	0	952	0	Ⴃ	cut_ei_stereo_44KHz.wav
1	74	4	4	2	I	2	0	816	0	Ⴁ	cut_r_stereo_44KHz.wav
1	75	1	1	1	C	2	0	1229	0	Ⴇ	cut_n_stereo_44KHz.wav
1	76	3	3	2	I	2	0	668	1	Ⴊ	cut_j_stereo_44KHz.wav
1	77	4	3	2	I	2	0	1194	1	Ⴁ	cut_j_stereo_44KHz.wav
1	78	1	2	0	C	2	1	1084	1	Ⴇ	cut_ei_stereo_44KHz.wav
1	79	3	4	2	I	2	0	823	0	Ⴊ	cut_r_stereo_44KHz.wav
1	80	2	1	0	C	2	1	839	1	Ⴃ	cut_n_stereo_44KHz.wav
1	81	1	1	1	C	2	0	883	0	Ⴇ	cut_n_stereo_44KHz.wav
1	82	2	1	0	C	2	1	617	1	Ⴃ	cut_n_stereo_44KHz.wav
1	83	3	4	2	I	2	0	1098	1	Ⴊ	cut_r_stereo_44KHz.wav
1	84	4	3	2	I	2	0	631	0	Ⴁ	cut_j_stereo_44KHz.wav
1	85	3	3	2	I	2	0	593	1	Ⴊ	cut_j_stereo_44KHz.wav
1	86	1	2	0	C	2	1	690	1	Ⴇ	cut_ei_stereo_44KHz.wav
1	87	2	2	1	C	1	1	1068	1	Ⴃ	cut_ei_stereo_44KHz.wav
1	88	4	4	2	I	2	0	552	1	Ⴁ	cut_r_stereo_44KHz.wav
1	89	2	1	0	C	2	1	1371	1	Ⴃ	cut_n_stereo_44KHz.wav
1	90	4	4	2	I	2	0	798	1	Ⴁ	cut_r_stereo_44KHz.wav
1	91	3	3	2	I	2	0	630	0	Ⴊ	cut_j_stereo_44KHz.wav
1	92	1	1	1	C	2	0	864	0	Ⴇ	cut_n_stereo_44KHz.wav
1	93	4	3	2	I	2	0	533	0	Ⴁ	cut_j_stereo_44KHz.wav
1	94	2	2	1	C	2	0	747	0	Ⴃ	cut_ei_stereo_44KHz.wav
1	95	3	4	2	I	2	0	685	1	Ⴊ	cut_r_stereo_44KHz.wav
1	96	1	2	0	C	2	1	692	1	Ⴇ	cut_ei_stereo_44KHz.wav
1	97	3	3	2	I	2	0	793	1	Ⴊ	cut_j_stereo_44KHz.wav
1	98	1	1	1	C	0	0	0	0	Ⴇ	cut_n_stereo_44KHz.wav
1	99	2	2	1	C	1	1	1242	1	Ⴃ	cut_ei_stereo_44KHz.wav
1	100	4	4	2	I	2	0	845	1	Ⴁ	cut_r_stereo_44KHz.wav
1	101	2	1	0	C	2	1	630	1	Ⴃ	cut_n_stereo_44KHz.wav
1	102	1	2	0	C	2	1	1196	1	Ⴇ	cut_ei_stereo_44KHz.wav
1	103	3	4	2	I	2	0	651	0	Ⴊ	cut_r_stereo_44KHz.wav
1	104	4	3	2	I	2	0	577	0	Ⴁ	cut_j_stereo_44KHz.wav
1	105	3	3	2	I	2	0	603	0	Ⴊ	cut_j_stereo_44KHz.wav
1	106	2	2	1	C	1	1	898	1	Ⴃ	cut_ei_stereo_44KHz.wav
1	107	4	4	2	I	2	0	894	0	Ⴁ	cut_r_stereo_44KHz.wav
1	108	1	1	1	C	1	1	825	1	Ⴇ	cut_n_stereo_44KHz.wav
1	109	4	3	2	I	2	0	867	0	Ⴁ	cut_j_stereo_44KHz.wav
1	110	3	4	2	I	2	0	759	0	Ⴊ	cut_r_stereo_44KHz.wav
1	111	2	1	0	C	2	1	937	1	Ⴃ	cut_n_stereo_44KHz.wav
1	112	1	2	0	C	1	0	668	0	Ⴇ	cut_ei_stereo_44KHz.wav
1	113	3	4	2	I	2	0	611	1	Ⴊ	cut_r_stereo_44KHz.wav
1	114	1	2	0	C	2	1	589	1	Ⴇ	cut_ei_stereo_44KHz.wav
1	115	2	1	0	C	2	1	543	1	Ⴃ	cut_n_stereo_44KHz.wav
1	116	4	3	2	I	2	0	562	1	Ⴁ	cut_j_stereo_44KHz.wav
1	117	3	3	2	I	2	0	680	0	Ⴊ	cut_j_stereo_44KHz.wav
1	118	4	4	2	I	2	0	513	1	Ⴁ	cut_r_stereo_44KHz.wav
1	119	1	1	1	C	2	0	753	0	Ⴇ	cut_n_stereo_44KHz.wav
1	120	2	2	1	C	2	0	587	0	Ⴃ	cut_ei_stereo_44KHz.wav
1	121	3	3	2	I	2	0	1254	1	Ⴊ	cut_j_stereo_44KHz.wav
1	122	4	3	2	I	2	0	593	1	Ⴁ	cut_j_stereo_44KHz.wav
1	123	2	2	1	C	2	0	673	0	Ⴃ	cut_ei_stereo_44KHz.wav
1	124	1	1	1	C	1	1	822	1	Ⴇ	cut_n_stereo_44KHz.wav
1	125	4	4	2	I	2	0	676	0	Ⴁ	cut_r_stereo_44KHz.wav
1	126	2	1	0	C	1	0	1602	0	Ⴃ	cut_n_stereo_44KHz.wav
1	127	3	4	2	I	2	0	702	0	Ⴊ	cut_r_stereo_44KHz.wav
1	128	1	2	0	C	2	1	761	1	Ⴇ	cut_ei_stereo_44KHz.wav
1	129	3	4	2	I	2	0	557	0	Ⴊ	cut_r_stereo_44KHz.wav
1	130	4	4	2	I	2	0	681	0	Ⴁ	cut_r_stereo_44KHz.wav
1	131	2	1	0	C	2	1	649	1	Ⴃ	cut_n_stereo_44KHz.wav
1	132	1	2	0	C	2	1	680	1	Ⴇ	cut_ei_stereo_44KHz.wav
1	133	3	3	2	I	2	0	623	1	Ⴊ	cut_j_stereo_44KHz.wav
1	134	4	3	2	I	2	0	550	1	Ⴁ	cut_j_stereo_44KHz.wav
1	135	2	2	1	C	2	0	1072	0	Ⴃ	cut_ei_stereo_44KHz.wav
1	136	1	1	1	C	2	0	763	0	Ⴇ	cut_n_stereo_44KHz.wav
1	137	3	3	2	I	2	0	1682	1	Ⴊ	cut_j_stereo_44KHz.wav
1	138	2	1	0	C	2	1	656	1	Ⴃ	cut_n_stereo_44KHz.wav
1	139	1	1	1	C	1	1	699	1	Ⴇ	cut_n_stereo_44KHz.wav
1	140	4	3	2	I	2	0	607	1	Ⴁ	cut_j_stereo_44KHz.wav
1	141	2	2	1	C	2	0	660	0	Ⴃ	cut_ei_stereo_44KHz.wav
1	142	3	4	2	I	2	0	704	1	Ⴊ	cut_r_stereo_44KHz.wav
1	143	1	2	0	C	1	0	1245	0	Ⴇ	cut_ei_stereo_44KHz.wav
1	144	4	4	2	I	2	0	620	1	Ⴁ	cut_r_stereo_44KHz.wav
1	145	2	1	0	C	2	1	839	1	Ⴃ	cut_n_stereo_44KHz.wav
1	146	1	1	1	C	1	1	1814	1	Ⴇ	cut_n_stereo_44KHz.wav
1	147	4	4	2	I	2	0	933	0	Ⴁ	cut_r_stereo_44KHz.wav
1	148	3	4	2	I	1	0	819	1	Ⴊ	cut_r_stereo_44KHz.wav
1	149	4	3	2	I	2	0	642	0	Ⴁ	cut_j_stereo_44KHz.wav
1	150	3	3	2	I	2	0	797	1	Ⴊ	cut_j_stereo_44KHz.wav
1	151	1	2	0	C	2	1	978	1	Ⴇ	cut_ei_stereo_44KHz.wav
1	152	2	2	1	C	2	0	871	0	Ⴃ	cut_ei_stereo_44KHz.wav
1	153	1	2	0	C	2	1	654	1	Ⴇ	cut_ei_stereo_44KHz.wav
1	154	4	3	2	I	2	0	658	1	Ⴁ	cut_j_stereo_44KHz.wav
1	155	2	1	0	C	2	1	695	1	Ⴃ	cut_n_stereo_44KHz.wav
1	156	3	3	2	I	2	0	726	1	Ⴊ	cut_j_stereo_44KHz.wav
1	157	1	1	1	C	2	0	590	0	Ⴇ	cut_n_stereo_44KHz.wav
1	158	4	4	2	I	0	0	0	0	Ⴁ	cut_r_stereo_44KHz.wav
1	159	3	4	2	I	2	0	530	1	Ⴊ	cut_r_stereo_44KHz.wav
1	160	2	2	1	C	2	0	640	0	Ⴃ	cut_ei_stereo_44KHz.wav
1	161	1	2	0	C	2	1	578	1	Ⴇ	cut_ei_stereo_44KHz.wav
1	162	3	3	2	I	2	0	658	1	Ⴊ	cut_j_stereo_44KHz.wav
1	163	4	3	2	I	2	0	643	0	Ⴁ	cut_j_stereo_44KHz.wav
1	164	2	2	1	C	2	0	664	0	Ⴃ	cut_ei_stereo_44KHz.wav
1	165	1	1	1	C	1	1	1113	1	Ⴇ	cut_n_stereo_44KHz.wav
1	166	3	4	2	I	2	0	658	1	Ⴊ	cut_r_stereo_44KHz.wav
1	167	4	4	2	I	2	0	578	0	Ⴁ	cut_r_stereo_44KHz.wav
1	168	2	1	0	C	2	1	877	1	Ⴃ	cut_n_stereo_44KHz.wav
1	169	4	3	2	I	2	0	724	0	Ⴁ	cut_j_stereo_44KHz.wav
1	170	3	4	2	I	2	0	647	0	Ⴊ	cut_r_stereo_44KHz.wav
1	171	2	2	1	C	1	1	817	1	Ⴃ	cut_ei_stereo_44KHz.wav
1	172	1	1	1	C	1	1	1075	1	Ⴇ	cut_n_stereo_44KHz.wav
1	173	2	1	0	C	1	0	1503	0	Ⴃ	cut_n_stereo_44KHz.wav
1	174	4	4	2	I	2	0	656	1	Ⴁ	cut_r_stereo_44KHz.wav
1	175	1	2	0	C	2	1	829	1	Ⴇ	cut_ei_stereo_44KHz.wav
1	176	3	3	2	I	2	0	596	0	Ⴊ	cut_j_stereo_44KHz.wav
1	177	4	3	2	I	2	0	516	0	Ⴁ	cut_j_stereo_44KHz.wav
1	178	3	3	2	I	2	0	659	1	Ⴊ	cut_j_stereo_44KHz.wav
1	179	2	2	1	C	2	0	827	0	Ⴃ	cut_ei_stereo_44KHz.wav
1	180	1	1	1	C	1	1	1123	1	Ⴇ	cut_n_stereo_44KHz.wav
1	181	4	4	2	I	2	0	717	1	Ⴁ	cut_r_stereo_44KHz.wav
1	182	3	4	2	I	2	0	666	1	Ⴊ	cut_r_stereo_44KHz.wav
1	183	2	1	0	C	2	1	1008	1	Ⴃ	cut_n_stereo_44KHz.wav
1	184	1	2	0	C	1	0	930	0	Ⴇ	cut_ei_stereo_44KHz.wav
1	185	2	1	0	C	2	1	564	1	Ⴃ	cut_n_stereo_44KHz.wav
1	186	4	4	2	I	2	0	916	0	Ⴁ	cut_r_stereo_44KHz.wav
1	187	3	3	2	I	2	0	566	0	Ⴊ	cut_j_stereo_44KHz.wav
1	188	1	1	1	C	1	1	1025	1	Ⴇ	cut_n_stereo_44KHz.wav
1	189	3	4	2	I	2	0	1196	0	Ⴊ	cut_r_stereo_44KHz.wav
1	190	2	2	1	C	1	1	922	1	Ⴃ	cut_ei_stereo_44KHz.wav
1	191	1	2	0	C	2	1	859	1	Ⴇ	cut_ei_stereo_44KHz.wav
1	192	4	3	2	I	2	0	1036	1	Ⴁ	cut_j_stereo_44KHz.wav
1	193	3	3	2	I	2	0	635	1	Ⴊ	cut_j_stereo_44KHz.wav
1	194	2	2	1	C	1	1	881	1	Ⴃ	cut_ei_stereo_44KHz.wav
1	195	1	2	0	C	2	1	638	1	Ⴇ	cut_ei_stereo_44KHz.wav
1	196	4	4	2	I	2	0	931	0	Ⴁ	cut_r_stereo_44KHz.wav
1	197	3	4	2	I	2	0	593	0	Ⴊ	cut_r_stereo_44KHz.wav
1	198	2	1	0	C	2	1	720	1	Ⴃ	cut_n_stereo_44KHz.wav
1	199	1	1	1	C	1	1	865	1	Ⴇ	cut_n_stereo_44KHz.wav
1	200	4	3	2	I	1	0	1302	0	Ⴁ	cut_j_stereo_44KHz.wav
2	1	4	3	2	I	2	0	1905	1	Ⴂ	cut_o_stereo_44KHz.wav
2	2	3	3	2	I	1	0	956	1	Ⴡ	cut_o_stereo_44KHz.wav
2	3	2	2	1	C	2	0	1505	0	Ⴟ	cut_a_stereo_44KHz.wav
2	4	1	2	0	C	2	1	577	1	Ⴜ	cut_a_stereo_44KHz.wav
2	5	3	4	2	I	1	0	1109	1	Ⴡ	cut_k_stereo_44KHz.wav
2	6	1	1	1	C	1	1	1157	1	Ⴜ	cut_u_stereo_44KHz.wav
2	7	4	4	2	I	2	0	1162	1	Ⴂ	cut_k_stereo_44KHz.wav
2	8	2	1	0	C	2	1	935	1	Ⴟ	cut_u_stereo_44KHz.wav
2	9	4	3	2	I	1	0	1459	1	Ⴂ	cut_o_stereo_44KHz.wav
2	10	3	4	2	I	1	0	804	1	Ⴡ	cut_k_stereo_44KHz.wav
2	11	2	2	1	C	2	0	684	0	Ⴟ	cut_a_stereo_44KHz.wav
2	12	1	2	0	C	2	1	759	1	Ⴜ	cut_a_stereo_44KHz.wav
2	13	2	1	0	C	2	1	1059	1	Ⴟ	cut_u_stereo_44KHz.wav
2	14	4	4	2	I	1	0	757	0	Ⴂ	cut_k_stereo_44KHz.wav
2	15	3	3	2	I	1	0	841	0	Ⴡ	cut_o_stereo_44KHz.wav
2	16	1	1	1	C	1	1	1077	1	Ⴜ	cut_u_stereo_44KHz.wav
2	17	4	3	2	I	2	0	641	0	Ⴂ	cut_o_stereo_44KHz.wav
2	18	2	1	0	C	2	1	679	1	Ⴟ	cut_u_stereo_44KHz.wav
2	19	3	4	2	I	1	0	883	0	Ⴡ	cut_k_stereo_44KHz.wav
2	20	1	1	1	C	1	1	848	1	Ⴜ	cut_u_stereo_44KHz.wav
2	21	4	4	2	I	2	0	782	0	Ⴂ	cut_k_stereo_44KHz.wav
2	22	3	3	2	I	2	0	921	0	Ⴡ	cut_o_stereo_44KHz.wav
2	23	2	2	1	C	2	0	617	0	Ⴟ	cut_a_stereo_44KHz.wav
2	24	1	2	0	C	2	1	944	1	Ⴜ	cut_a_stereo_44KHz.wav
2	25	4	4	2	I	1	0	938	0	Ⴂ	cut_k_stereo_44KHz.wav
2	26	3	4	2	I	2	0	745	1	Ⴡ	cut_k_stereo_44KHz.wav
2	27	2	2	1	C	1	1	970	1	Ⴟ	cut_a_stereo_44KHz.wav
2	28	1	2	0	C	2	1	794	1	Ⴜ	cut_a_stereo_44KHz.wav
2	29	4	3	2	I	2	0	1287	0	Ⴂ	cut_o_stereo_44KHz.wav
2	30	2	1	0	C	1	0	942	0	Ⴟ	cut_u_stereo_44KHz.wav
2	31	3	3	2	I	1	0	852	1	Ⴡ	cut_o_stereo_44KHz.wav
2	32	1	1	1	C	1	1	1005	1	Ⴜ	cut_u_stereo_44KHz.wav
2	33	3	3	2	I	2	0	1236	1	Ⴡ	cut_o_stereo_44KHz.wav
2	34	1	2	0	C	2	1	699	1	Ⴜ	cut_a_stereo_44KHz.wav
2	35	4	3	2	I	1	0	693	0	Ⴂ	cut_o_stereo_44KHz.wav
2	36	2	2	1	C	2	0	682	0	Ⴟ	cut_a_stereo_44KHz.wav
2	37	3	4	2	I	1	0	832	1	Ⴡ	cut_k_stereo_44KHz.wav
2	38	4	4	2	I	1	0	771	0	Ⴂ	cut_k_stereo_44KHz.wav
2	39	2	1	0	C	2	1	1405	1	Ⴟ	cut_u_stereo_44KHz.wav
2	40	1	1	1	C	1	1	812	1	Ⴜ	cut_u_stereo_44KHz.wav
2	41	2	2	1	C	2	0	395	0	Ⴟ	cut_a_stereo_44KHz.wav
2	42	4	3	2	I	1	0	770	1	Ⴂ	cut_o_stereo_44KHz.wav
2	43	3	3	2	I	1	0	652	0	Ⴡ	cut_o_stereo_44KHz.wav
2	44	1	2	0	C	2	1	534	1	Ⴜ	cut_a_stereo_44KHz.wav
2	45	4	4	2	I	2	0	990	1	Ⴂ	cut_k_stereo_44KHz.wav
2	46	1	1	1	C	2	0	620	0	Ⴜ	cut_u_stereo_44KHz.wav
2	47	2	1	0	C	2	1	982	1	Ⴟ	cut_u_stereo_44KHz.wav
2	48	3	4	2	I	2	0	1053	0	Ⴡ	cut_k_stereo_44KHz.wav
2	49	2	1	0	C	2	1	818	1	Ⴟ	cut_u_stereo_44KHz.wav
2	50	3	3	2	I	2	0	900	0	Ⴡ	cut_o_stereo_44KHz.wav
2	51	1	2	0	C	2	1	735	1	Ⴜ	cut_a_stereo_44KHz.wav
2	52	4	4	2	I	2	0	860	0	Ⴂ	cut_k_stereo_44KHz.wav
2	53	2	2	1	C	2	0	632	0	Ⴟ	cut_a_stereo_44KHz.wav
2	54	4	3	2	I	2	0	1027	1	Ⴂ	cut_o_stereo_44KHz.wav
2	55	3	4	2	I	2	0	995	1	Ⴡ	cut_k_stereo_44KHz.wav
2	56	1	1	1	C	1	1	1766	1	Ⴜ	cut_u_stereo_44KHz.wav
2	57	4	3	2	I	2	0	907	1	Ⴂ	cut_o_stereo_44KHz.wav
2	58	1	1	1	C	1	1	961	1	Ⴜ	cut_u_stereo_44KHz.wav
2	59	3	4	2	I	2	0	878	1	Ⴡ	cut_k_stereo_44KHz.wav
2	60	2	1	0	C	2	1	743	1	Ⴟ	cut_u_stereo_44KHz.wav
2	61	4	4	2	I	2	0	787	1	Ⴂ	cut_k_stereo_44KHz.wav
2	62	2	2	1	C	1	1	1438	1	Ⴟ	cut_a_stereo_44KHz.wav
2	63	3	3	2	I	2	0	852	0	Ⴡ	cut_o_stereo_44KHz.wav
2	64	1	2	0	C	2	1	1143	1	Ⴜ	cut_a_stereo_44KHz.wav
2	65	4	3	2	I	2	0	1703	1	Ⴂ	cut_o_stereo_44KHz.wav
2	66	1	1	1	C	1	1	849	1	Ⴜ	cut_u_stereo_44KHz.wav
2	67	2	1	0	C	2	1	752	1	Ⴟ	cut_u_stereo_44KHz.wav
2	68	3	3	2	I	2	0	870	1	Ⴡ	cut_o_stereo_44KHz.wav
2	69	2	2	1	C	1	1	899	1	Ⴟ	cut_a_stereo_44KHz.wav
2	70	4	4	2	I	2	0	875	0	Ⴂ	cut_k_stereo_44KHz.wav
2	71	1	2	0	C	2	1	999	1	Ⴜ	cut_a_stereo_44KHz.wav
2	72	3	4	2	I	2	0	702	1	Ⴡ	cut_k_stereo_44KHz.wav
2	73	1	1	1	C	1	1	843	1	Ⴜ	cut_u_stereo_44KHz.wav
2	74	2	2	1	C	1	1	846	1	Ⴟ	cut_a_stereo_44KHz.wav
2	75	3	4	2	I	2	0	804	1	Ⴡ	cut_k_stereo_44KHz.wav
2	76	4	3	2	I	2	0	1575	0	Ⴂ	cut_o_stereo_44KHz.wav
2	77	2	1	0	C	2	1	964	1	Ⴟ	cut_u_stereo_44KHz.wav
2	78	3	3	2	I	2	0	994	0	Ⴡ	cut_o_stereo_44KHz.wav
2	79	1	2	0	C	2	1	852	1	Ⴜ	cut_a_stereo_44KHz.wav
2	80	4	4	2	I	2	0	1286	1	Ⴂ	cut_k_stereo_44KHz.wav
2	81	1	1	1	C	1	1	838	1	Ⴜ	cut_u_stereo_44KHz.wav
2	82	3	3	2	I	2	0	696	0	Ⴡ	cut_o_stereo_44KHz.wav
2	83	4	4	2	I	2	0	841	1	Ⴂ	cut_k_stereo_44KHz.wav
2	84	2	1	0	C	2	1	601	1	Ⴟ	cut_u_stereo_44KHz.wav
2	85	4	3	2	I	2	0	776	0	Ⴂ	cut_o_stereo_44KHz.wav
2	86	3	4	2	I	2	0	924	0	Ⴡ	cut_k_stereo_44KHz.wav
2	87	1	2	0	C	2	1	773	1	Ⴜ	cut_a_stereo_44KHz.wav
2	88	2	2	1	C	1	1	938	1	Ⴟ	cut_a_stereo_44KHz.wav
2	89	3	4	2	I	2	0	747	1	Ⴡ	cut_k_stereo_44KHz.wav
2	90	1	1	1	C	1	1	1058	1	Ⴜ	cut_u_stereo_44KHz.wav
2	91	4	4	2	I	2	0	679	0	Ⴂ	cut_k_stereo_44KHz.wav
2	92	2	2	1	C	1	1	697	1	Ⴟ	cut_a_stereo_44KHz.wav
2	93	3	3	2	I	2	0	784	1	Ⴡ	cut_o_stereo_44KHz.wav
2	94	1	2	0	C	2	1	891	1	Ⴜ	cut_a_stereo_44KHz.wav
2	95	4	3	2	I	2	0	862	0	Ⴂ	cut_o_stereo_44KHz.wav
2	96	2	1	0	C	2	1	889	1	Ⴟ	cut_u_stereo_44KHz.wav
2	97	4	3	2	I	2	0	811	0	Ⴂ	cut_o_stereo_44KHz.wav
2	98	2	2	1	C	2	0	1007	0	Ⴟ	cut_a_stereo_44KHz.wav
2	99	3	3	2	I	2	0	1579	1	Ⴡ	cut_o_stereo_44KHz.wav
2	100	1	1	1	C	1	1	912	1	Ⴜ	cut_u_stereo_44KHz.wav
2	101	4	4	2	I	2	0	703	0	Ⴂ	cut_k_stereo_44KHz.wav
2	102	1	2	0	C	2	1	1087	1	Ⴜ	cut_a_stereo_44KHz.wav
2	103	3	4	2	I	2	0	751	1	Ⴡ	cut_k_stereo_44KHz.wav
2	104	2	1	0	C	2	1	975	1	Ⴟ	cut_u_stereo_44KHz.wav
2	105	3	3	2	I	2	0	683	1	Ⴡ	cut_o_stereo_44KHz.wav
2	106	4	4	2	I	2	0	807	1	Ⴂ	cut_k_stereo_44KHz.wav
2	107	1	2	0	C	2	1	1068	1	Ⴜ	cut_a_stereo_44KHz.wav
2	108	2	1	0	C	2	1	1330	1	Ⴟ	cut_u_stereo_44KHz.wav
2	109	4	3	2	I	2	0	708	0	Ⴂ	cut_o_stereo_44KHz.wav
2	110	3	4	2	I	2	0	1020	0	Ⴡ	cut_k_stereo_44KHz.wav
2	111	2	2	1	C	1	1	1191	1	Ⴟ	cut_a_stereo_44KHz.wav
2	112	1	1	1	C	1	1	1078	1	Ⴜ	cut_u_stereo_44KHz.wav
2	113	2	1	0	C	2	1	976	1	Ⴟ	cut_u_stereo_44KHz.wav
2	114	1	2	0	C	2	1	761	1	Ⴜ	cut_a_stereo_44KHz.wav
2	115	3	4	2	I	2	0	892	0	Ⴡ	cut_k_stereo_44KHz.wav
2	116	4	4	2	I	2	0	655	0	Ⴂ	cut_k_stereo_44KHz.wav
2	117	1	1	1	C	2	0	641	0	Ⴜ	cut_u_stereo_44KHz.wav
2	118	4	3	2	I	2	0	727	0	Ⴂ	cut_o_stereo_44KHz.wav
2	119	3	3	2	I	2	0	846	0	Ⴡ	cut_o_stereo_44KHz.wav
2	120	2	2	1	C	1	1	1108	1	Ⴟ	cut_a_stereo_44KHz.wav
2	121	1	1	1	C	1	1	928	1	Ⴜ	cut_u_stereo_44KHz.wav
2	122	2	1	0	C	1	0	1108	0	Ⴟ	cut_u_stereo_44KHz.wav
2	123	4	4	2	I	2	0	712	1	Ⴂ	cut_k_stereo_44KHz.wav
2	124	3	4	2	I	2	0	1033	0	Ⴡ	cut_k_stereo_44KHz.wav
2	125	1	2	0	C	2	1	621	1	Ⴜ	cut_a_stereo_44KHz.wav
2	126	2	2	1	C	1	1	934	1	Ⴟ	cut_a_stereo_44KHz.wav
2	127	3	3	2	I	2	0	1030	1	Ⴡ	cut_o_stereo_44KHz.wav
2	128	4	3	2	I	2	0	655	0	Ⴂ	cut_o_stereo_44KHz.wav
2	129	3	4	2	I	2	0	609	0	Ⴡ	cut_k_stereo_44KHz.wav
2	130	4	3	2	I	2	0	594	1	Ⴂ	cut_o_stereo_44KHz.wav
2	131	2	2	1	C	2	0	581	0	Ⴟ	cut_a_stereo_44KHz.wav
2	132	1	1	1	C	2	0	700	0	Ⴜ	cut_u_stereo_44KHz.wav
2	133	3	3	2	I	2	0	662	0	Ⴡ	cut_o_stereo_44KHz.wav
2	134	1	2	0	C	2	1	662	1	Ⴜ	cut_a_stereo_44KHz.wav
2	135	4	4	2	I	2	0	596	0	Ⴂ	cut_k_stereo_44KHz.wav
2	136	2	1	0	C	2	1	853	1	Ⴟ	cut_u_stereo_44KHz.wav
2	137	3	3	2	I	2	0	682	1	Ⴡ	cut_o_stereo_44KHz.wav
2	138	1	2	0	C	2	1	793	1	Ⴜ	cut_a_stereo_44KHz.wav
2	139	2	1	0	C	2	1	737	1	Ⴟ	cut_u_stereo_44KHz.wav
2	140	4	3	2	I	2	0	986	1	Ⴂ	cut_o_stereo_44KHz.wav
2	141	1	1	1	C	1	1	940	1	Ⴜ	cut_u_stereo_44KHz.wav
2	142	2	2	1	C	2	0	826	0	Ⴟ	cut_a_stereo_44KHz.wav
2	143	4	4	2	I	2	0	769	1	Ⴂ	cut_k_stereo_44KHz.wav
2	144	3	4	2	I	2	0	768	0	Ⴡ	cut_k_stereo_44KHz.wav
2	145	2	2	1	C	1	1	957	1	Ⴟ	cut_a_stereo_44KHz.wav
2	146	3	3	2	I	2	0	802	0	Ⴡ	cut_o_stereo_44KHz.wav
2	147	1	1	1	C	1	1	850	1	Ⴜ	cut_u_stereo_44KHz.wav
2	148	4	4	2	I	2	0	615	1	Ⴂ	cut_k_stereo_44KHz.wav
2	149	3	4	2	I	2	0	930	1	Ⴡ	cut_k_stereo_44KHz.wav
2	150	2	1	0	C	1	0	959	0	Ⴟ	cut_u_stereo_44KHz.wav
2	151	1	2	0	C	2	1	596	1	Ⴜ	cut_a_stereo_44KHz.wav
2	152	4	3	2	I	2	0	679	0	Ⴂ	cut_o_stereo_44KHz.wav
2	153	1	2	0	C	2	1	1048	1	Ⴜ	cut_a_stereo_44KHz.wav
2	154	2	2	1	C	1	1	897	1	Ⴟ	cut_a_stereo_44KHz.wav
2	155	4	3	2	I	2	0	543	1	Ⴂ	cut_o_stereo_44KHz.wav
2	156	3	4	2	I	2	0	757	0	Ⴡ	cut_k_stereo_44KHz.wav
2	157	4	4	2	I	2	0	713	0	Ⴂ	cut_k_stereo_44KHz.wav
2	158	3	3	2	I	2	0	826	0	Ⴡ	cut_o_stereo_44KHz.wav
2	159	2	1	0	C	2	1	681	1	Ⴟ	cut_u_stereo_44KHz.wav
2	160	1	1	1	C	1	1	1112	1	Ⴜ	cut_u_stereo_44KHz.wav
2	161	2	2	1	C	1	1	981	1	Ⴟ	cut_a_stereo_44KHz.wav
2	162	4	4	2	I	2	0	817	1	Ⴂ	cut_k_stereo_44KHz.wav
2	163	3	3	2	I	2	0	704	1	Ⴡ	cut_o_stereo_44KHz.wav
2	164	1	2	0	C	2	1	690	1	Ⴜ	cut_a_stereo_44KHz.wav
2	165	3	4	2	I	2	0	624	0	Ⴡ	cut_k_stereo_44KHz.wav
2	166	1	1	1	C	1	1	796	1	Ⴜ	cut_u_stereo_44KHz.wav
2	167	4	3	2	I	2	0	955	1	Ⴂ	cut_o_stereo_44KHz.wav
2	168	2	1	0	C	2	1	1017	1	Ⴟ	cut_u_stereo_44KHz.wav
2	169	3	4	2	I	2	0	638	0	Ⴡ	cut_k_stereo_44KHz.wav
2	170	2	1	0	C	2	1	867	1	Ⴟ	cut_u_stereo_44KHz.wav
2	171	1	1	1	C	1	1	783	1	Ⴜ	cut_u_stereo_44KHz.wav
2	172	4	4	2	I	2	0	937	1	Ⴂ	cut_k_stereo_44KHz.wav
2	173	3	3	2	I	2	0	620	0	Ⴡ	cut_o_stereo_44KHz.wav
2	174	1	2	0	C	2	1	1129	1	Ⴜ	cut_a_stereo_44KHz.wav
2	175	4	3	2	I	2	0	925	0	Ⴂ	cut_o_stereo_44KHz.wav
2	176	2	2	1	C	1	1	772	1	Ⴟ	cut_a_stereo_44KHz.wav
2	177	3	4	2	I	2	0	659	1	Ⴡ	cut_k_stereo_44KHz.wav
2	178	1	2	0	C	2	1	1026	1	Ⴜ	cut_a_stereo_44KHz.wav
2	179	4	3	2	I	2	0	604	1	Ⴂ	cut_o_stereo_44KHz.wav
2	180	2	1	0	C	2	1	1425	1	Ⴟ	cut_u_stereo_44KHz.wav
2	181	1	1	1	C	1	1	847	1	Ⴜ	cut_u_stereo_44KHz.wav
2	182	3	3	2	I	2	0	784	0	Ⴡ	cut_o_stereo_44KHz.wav
2	183	2	2	1	C	1	1	1052	1	Ⴟ	cut_a_stereo_44KHz.wav
2	184	4	4	2	I	2	0	730	0	Ⴂ	cut_k_stereo_44KHz.wav
2	185	3	3	2	I	2	0	802	1	Ⴡ	cut_o_stereo_44KHz.wav
2	186	2	1	0	C	2	1	1029	1	Ⴟ	cut_u_stereo_44KHz.wav
2	187	1	1	1	C	1	1	1447	1	Ⴜ	cut_u_stereo_44KHz.wav
2	188	4	3	2	I	2	0	909	1	Ⴂ	cut_o_stereo_44KHz.wav
2	189	3	4	2	I	2	0	604	1	Ⴡ	cut_k_stereo_44KHz.wav
2	190	1	2	0	C	2	1	836	1	Ⴜ	cut_a_stereo_44KHz.wav
2	191	4	4	2	I	2	0	756	1	Ⴂ	cut_k_stereo_44KHz.wav
2	192	2	2	1	C	1	1	737	1	Ⴟ	cut_a_stereo_44KHz.wav
2	193	1	1	1	C	1	1	751	1	Ⴜ	cut_u_stereo_44KHz.wav
2	194	2	1	0	C	2	1	1333	1	Ⴟ	cut_u_stereo_44KHz.wav
2	195	4	3	2	I	2	0	1050	0	Ⴂ	cut_o_stereo_44KHz.wav
2	196	3	4	2	I	2	0	589	1	Ⴡ	cut_k_stereo_44KHz.wav
2	197	4	4	2	I	2	0	743	1	Ⴂ	cut_k_stereo_44KHz.wav
2	198	3	3	2	I	2	0	649	0	Ⴡ	cut_o_stereo_44KHz.wav
2	199	2	2	1	C	1	1	1158	1	Ⴟ	cut_a_stereo_44KHz.wav
2	200	1	2	0	C	2	1	824	1	Ⴜ	cut_a_stereo_44KHz.wav
3	1	2	2	1	C	0	0	0	0	Ⴒ	cut_g_stereo_44KHz.wav
3	2	3	4	2	I	2	0	915	0	Ⴉ	cut_h_stereo_44KHz.wav
3	3	4	4	2	I	1	0	1277	1	Ⴖ	cut_h_stereo_44KHz.wav
3	4	1	2	0	C	1	0	1016	0	Ⴐ	cut_g_stereo_44KHz.wav
3	5	2	1	0	C	2	1	901	1	Ⴒ	cut_w_stereo_44KHz.wav
3	6	3	3	2	I	2	0	822	1	Ⴉ	cut_l_stereo_44KHz.wav
3	7	4	3	2	I	2	0	660	0	Ⴖ	cut_l_stereo_44KHz.wav
3	8	1	1	1	C	2	0	707	0	Ⴐ	cut_w_stereo_44KHz.wav
3	9	2	1	0	C	2	1	634	1	Ⴒ	cut_w_stereo_44KHz.wav
3	10	4	4	2	I	2	0	627	0	Ⴖ	cut_h_stereo_44KHz.wav
3	11	1	1	1	C	2	0	595	0	Ⴐ	cut_w_stereo_44KHz.wav
3	12	3	4	2	I	2	0	716	0	Ⴉ	cut_h_stereo_44KHz.wav
3	13	4	3	2	I	2	0	506	1	Ⴖ	cut_l_stereo_44KHz.wav
3	14	1	2	0	C	2	1	912	1	Ⴐ	cut_g_stereo_44KHz.wav
3	15	3	3	2	I	2	0	611	0	Ⴉ	cut_l_stereo_44KHz.wav
3	16	2	2	1	C	2	0	694	0	Ⴒ	cut_g_stereo_44KHz.wav
3	17	1	2	0	C	2	1	562	1	Ⴐ	cut_g_stereo_44KHz.wav
3	18	2	2	1	C	1	1	979	1	Ⴒ	cut_g_stereo_44KHz.wav
3	19	4	4	2	I	2	0	907	0	Ⴖ	cut_h_stereo_44KHz.wav
3	20	3	4	2	I	2	0	831	0	Ⴉ	cut_h_stereo_44KHz.wav
3	21	1	1	1	C	1	1	1061	1	Ⴐ	cut_w_stereo_44KHz.wav
3	22	4	3	2	I	2	0	1118	1	Ⴖ	cut_l_stereo_44KHz.wav
3	23	3	3	2	I	2	0	974	0	Ⴉ	cut_l_stereo_44KHz.wav
3	24	2	1	0	C	2	1	931	1	Ⴒ	cut_w_stereo_44KHz.wav
3	25	3	4	2	I	2	0	879	1	Ⴉ	cut_h_stereo_44KHz.wav
3	26	2	2	1	C	2	0	613	0	Ⴒ	cut_g_stereo_44KHz.wav
3	27	1	1	1	C	2	0	615	0	Ⴐ	cut_w_stereo_44KHz.wav
3	28	4	3	2	I	2	0	1380	0	Ⴖ	cut_l_stereo_44KHz.wav
3	29	2	1	0	C	2	1	557	1	Ⴒ	cut_w_stereo_44KHz.wav
3	30	1	2	0	C	2	1	1038	1	Ⴐ	cut_g_stereo_44KHz.wav
3	31	4	4	2	I	2	0	783	0	Ⴖ	cut_h_stereo_44KHz.wav
3	32	3	3	2	I	2	0	787	0	Ⴉ	cut_l_stereo_44KHz.wav
3	33	1	1	1	C	2	0	604	0	Ⴐ	cut_w_stereo_44KHz.wav
3	34	3	4	2	I	2	0	1134	1	Ⴉ	cut_h_stereo_44KHz.wav
3	35	4	3	2	I	2	0	822	1	Ⴖ	cut_l_stereo_44KHz.wav
3	36	2	2	1	C	1	1	888	1	Ⴒ	cut_g_stereo_44KHz.wav
3	37	4	4	2	I	2	0	767	0	Ⴖ	cut_h_stereo_44KHz.wav
3	38	3	3	2	I	2	0	626	0	Ⴉ	cut_l_stereo_44KHz.wav
3	39	1	2	0	C	2	1	895	1	Ⴐ	cut_g_stereo_44KHz.wav
3	40	2	1	0	C	1	0	1045	0	Ⴒ	cut_w_stereo_44KHz.wav
3	41	1	1	1	C	2	0	738	0	Ⴐ	cut_w_stereo_44KHz.wav
3	42	3	3	2	I	2	0	770	1	Ⴉ	cut_l_stereo_44KHz.wav
3	43	4	3	2	I	2	0	753	1	Ⴖ	cut_l_stereo_44KHz.wav
3	44	2	1	0	C	2	1	729	1	Ⴒ	cut_w_stereo_44KHz.wav
3	45	4	4	2	I	2	0	641	0	Ⴖ	cut_h_stereo_44KHz.wav
3	46	1	2	0	C	2	1	629	1	Ⴐ	cut_g_stereo_44KHz.wav
3	47	3	4	2	I	2	0	706	1	Ⴉ	cut_h_stereo_44KHz.wav
3	48	2	2	1	C	2	0	626	0	Ⴒ	cut_g_stereo_44KHz.wav
3	49	4	3	2	I	2	0	689	0	Ⴖ	cut_l_stereo_44KHz.wav
3	50	2	2	1	C	1	1	839	1	Ⴒ	cut_g_stereo_44KHz.wav
3	51	1	2	0	C	2	1	737	1	Ⴐ	cut_g_stereo_44KHz.wav
3	52	3	4	2	I	2	0	817	1	Ⴉ	cut_h_stereo_44KHz.wav
3	53	1	1	1	C	1	1	971	1	Ⴐ	cut_w_stereo_44KHz.wav
3	54	4	4	2	I	2	0	726	0	Ⴖ	cut_h_stereo_44KHz.wav
3	55	3	3	2	I	2	0	966	0	Ⴉ	cut_l_stereo_44KHz.wav
3	56	2	1	0	C	2	1	609	1	Ⴒ	cut_w_stereo_44KHz.wav
3	57	3	4	2	I	2	0	811	0	Ⴉ	cut_h_stereo_44KHz.wav
3	58	2	2	1	C	2	0	713	0	Ⴒ	cut_g_stereo_44KHz.wav
3	59	1	1	1	C	1	1	883	1	Ⴐ	cut_w_stereo_44KHz.wav
3	60	4	4	2	I	2	0	683	0	Ⴖ	cut_h_stereo_44KHz.wav
3	61	2	1	0	C	2	1	786	1	Ⴒ	cut_w_stereo_44KHz.wav
3	62	1	2	0	C	2	1	965	1	Ⴐ	cut_g_stereo_44KHz.wav
3	63	4	3	2	I	2	0	626	0	Ⴖ	cut_l_stereo_44KHz.wav
3	64	3	3	2	I	2	0	808	1	Ⴉ	cut_l_stereo_44KHz.wav
3	65	4	4	2	I	2	0	658	1	Ⴖ	cut_h_stereo_44KHz.wav
3	66	1	2	0	C	2	1	584	1	Ⴐ	cut_g_stereo_44KHz.wav
3	67	2	2	1	C	1	1	1080	1	Ⴒ	cut_g_stereo_44KHz.wav
3	68	3	4	2	I	2	0	1133	1	Ⴉ	cut_h_stereo_44KHz.wav
3	69	4	3	2	I	2	0	538	1	Ⴖ	cut_l_stereo_44KHz.wav
3	70	1	1	1	C	2	0	867	0	Ⴐ	cut_w_stereo_44KHz.wav
3	71	3	3	2	I	2	0	638	0	Ⴉ	cut_l_stereo_44KHz.wav
3	72	2	1	0	C	2	1	866	1	Ⴒ	cut_w_stereo_44KHz.wav
3	73	1	1	1	C	1	1	1464	1	Ⴐ	cut_w_stereo_44KHz.wav
3	74	3	3	2	I	2	0	891	1	Ⴉ	cut_l_stereo_44KHz.wav
3	75	2	1	0	C	2	1	874	1	Ⴒ	cut_w_stereo_44KHz.wav
3	76	4	4	2	I	2	0	564	1	Ⴖ	cut_h_stereo_44KHz.wav
3	77	1	2	0	C	2	1	588	1	Ⴐ	cut_g_stereo_44KHz.wav
3	78	4	3	2	I	2	0	596	1	Ⴖ	cut_l_stereo_44KHz.wav
3	79	2	2	1	C	2	0	767	0	Ⴒ	cut_g_stereo_44KHz.wav
3	80	3	4	2	I	2	0	793	1	Ⴉ	cut_h_stereo_44KHz.wav
3	81	1	1	1	C	1	1	882	1	Ⴐ	cut_w_stereo_44KHz.wav
3	82	3	3	2	I	2	0	1499	1	Ⴉ	cut_l_stereo_44KHz.wav
3	83	2	1	0	C	2	1	1024	1	Ⴒ	cut_w_stereo_44KHz.wav
3	84	4	3	2	I	2	0	614	0	Ⴖ	cut_l_stereo_44KHz.wav
3	85	3	4	2	I	2	0	586	0	Ⴉ	cut_h_stereo_44KHz.wav
3	86	2	2	1	C	1	1	687	1	Ⴒ	cut_g_stereo_44KHz.wav
3	87	1	2	0	C	2	1	768	1	Ⴐ	cut_g_stereo_44KHz.wav
3	88	4	4	2	I	2	0	559	0	Ⴖ	cut_h_stereo_44KHz.wav
3	89	1	1	1	C	1	1	815	1	Ⴐ	cut_w_stereo_44KHz.wav
3	90	2	1	0	C	2	1	1069	1	Ⴒ	cut_w_stereo_44KHz.wav
3	91	3	3	2	I	2	0	687	1	Ⴉ	cut_l_stereo_44KHz.wav
3	92	4	4	2	I	2	0	588	0	Ⴖ	cut_h_stereo_44KHz.wav
3	93	1	2	0	C	2	1	611	1	Ⴐ	cut_g_stereo_44KHz.wav
3	94	4	3	2	I	2	0	562	1	Ⴖ	cut_l_stereo_44KHz.wav
3	95	3	4	2	I	2	0	562	1	Ⴉ	cut_h_stereo_44KHz.wav
3	96	2	2	1	C	2	0	915	0	Ⴒ	cut_g_stereo_44KHz.wav
3	97	4	3	2	I	2	0	455	0	Ⴖ	cut_l_stereo_44KHz.wav
3	98	3	3	2	I	2	0	661	0	Ⴉ	cut_l_stereo_44KHz.wav
3	99	2	1	0	C	2	1	756	1	Ⴒ	cut_w_stereo_44KHz.wav
3	100	1	1	1	C	1	1	1005	1	Ⴐ	cut_w_stereo_44KHz.wav
3	101	3	4	2	I	2	0	1049	0	Ⴉ	cut_h_stereo_44KHz.wav
3	102	1	2	0	C	2	1	577	1	Ⴐ	cut_g_stereo_44KHz.wav
3	103	2	2	1	C	1	1	989	1	Ⴒ	cut_g_stereo_44KHz.wav
3	104	4	4	2	I	2	0	1112	1	Ⴖ	cut_h_stereo_44KHz.wav
3	105	1	2	0	C	2	1	534	1	Ⴐ	cut_g_stereo_44KHz.wav
3	106	2	1	0	C	2	1	1107	1	Ⴒ	cut_w_stereo_44KHz.wav
3	107	3	4	2	I	2	0	867	0	Ⴉ	cut_h_stereo_44KHz.wav
3	108	4	4	2	I	2	0	720	1	Ⴖ	cut_h_stereo_44KHz.wav
3	109	2	2	1	C	2	0	757	0	Ⴒ	cut_g_stereo_44KHz.wav
3	110	1	1	1	C	2	0	726	0	Ⴐ	cut_w_stereo_44KHz.wav
3	111	3	3	2	I	2	0	504	1	Ⴉ	cut_l_stereo_44KHz.wav
3	112	4	3	2	I	2	0	900	0	Ⴖ	cut_l_stereo_44KHz.wav
3	113	3	4	2	I	2	0	889	0	Ⴉ	cut_h_stereo_44KHz.wav
3	114	2	2	1	C	1	1	893	1	Ⴒ	cut_g_stereo_44KHz.wav
3	115	1	2	0	C	2	1	594	1	Ⴐ	cut_g_stereo_44KHz.wav
3	116	4	3	2	I	2	0	639	1	Ⴖ	cut_l_stereo_44KHz.wav
3	117	2	1	0	C	2	1	728	1	Ⴒ	cut_w_stereo_44KHz.wav
3	118	4	4	2	I	2	0	744	1	Ⴖ	cut_h_stereo_44KHz.wav
3	119	1	1	1	C	1	1	1171	1	Ⴐ	cut_w_stereo_44KHz.wav
3	120	3	3	2	I	2	0	1172	1	Ⴉ	cut_l_stereo_44KHz.wav
3	121	1	2	0	C	2	1	666	1	Ⴐ	cut_g_stereo_44KHz.wav
3	122	4	3	2	I	2	0	717	1	Ⴖ	cut_l_stereo_44KHz.wav
3	123	2	1	0	C	2	1	915	1	Ⴒ	cut_w_stereo_44KHz.wav
3	124	3	3	2	I	2	0	915	1	Ⴉ	cut_l_stereo_44KHz.wav
3	125	2	2	1	C	2	0	650	0	Ⴒ	cut_g_stereo_44KHz.wav
3	126	3	4	2	I	2	0	811	1	Ⴉ	cut_h_stereo_44KHz.wav
3	127	4	4	2	I	2	0	839	1	Ⴖ	cut_h_stereo_44KHz.wav
3	128	1	1	1	C	1	1	964	1	Ⴐ	cut_w_stereo_44KHz.wav
3	129	2	2	1	C	1	1	1423	1	Ⴒ	cut_g_stereo_44KHz.wav
3	130	4	4	2	I	2	0	849	1	Ⴖ	cut_h_stereo_44KHz.wav
3	131	3	4	2	I	2	0	1208	0	Ⴉ	cut_h_stereo_44KHz.wav
3	132	1	2	0	C	2	1	954	1	Ⴐ	cut_g_stereo_44KHz.wav
3	133	3	3	2	I	2	0	1571	0	Ⴉ	cut_l_stereo_44KHz.wav
3	134	4	3	2	I	2	0	778	0	Ⴖ	cut_l_stereo_44KHz.wav
3	135	1	1	1	C	2	0	807	0	Ⴐ	cut_w_stereo_44KHz.wav
3	136	2	1	0	C	2	1	916	1	Ⴒ	cut_w_stereo_44KHz.wav
3	137	1	2	0	C	2	1	772	1	Ⴐ	cut_g_stereo_44KHz.wav
3	138	4	4	2	I	2	0	872	0	Ⴖ	cut_h_stereo_44KHz.wav
3	139	2	1	0	C	2	1	1167	1	Ⴒ	cut_w_stereo_44KHz.wav
3	140	3	4	2	I	2	0	652	0	Ⴉ	cut_h_stereo_44KHz.wav
3	141	2	2	1	C	1	1	948	1	Ⴒ	cut_g_stereo_44KHz.wav
3	142	1	1	1	C	1	1	1090	1	Ⴐ	cut_w_stereo_44KHz.wav
3	143	3	3	2	I	2	0	1800	1	Ⴉ	cut_l_stereo_44KHz.wav
3	144	4	3	2	I	2	0	1252	1	Ⴖ	cut_l_stereo_44KHz.wav
3	145	1	2	0	C	2	1	696	1	Ⴐ	cut_g_stereo_44KHz.wav
3	146	3	4	2	I	2	0	725	1	Ⴉ	cut_h_stereo_44KHz.wav
3	147	2	1	0	C	2	1	1206	1	Ⴒ	cut_w_stereo_44KHz.wav
3	148	4	4	2	I	2	0	1055	1	Ⴖ	cut_h_stereo_44KHz.wav
3	149	1	1	1	C	1	1	865	1	Ⴐ	cut_w_stereo_44KHz.wav
3	150	4	3	2	I	2	0	726	0	Ⴖ	cut_l_stereo_44KHz.wav
3	151	3	3	2	I	2	0	691	0	Ⴉ	cut_l_stereo_44KHz.wav
3	152	2	2	1	C	1	1	787	1	Ⴒ	cut_g_stereo_44KHz.wav
3	153	1	1	1	C	1	1	1522	1	Ⴐ	cut_w_stereo_44KHz.wav
3	154	4	4	2	I	2	0	709	0	Ⴖ	cut_h_stereo_44KHz.wav
3	155	3	4	2	I	2	0	814	1	Ⴉ	cut_h_stereo_44KHz.wav
3	156	2	1	0	C	2	1	1163	1	Ⴒ	cut_w_stereo_44KHz.wav
3	157	4	3	2	I	2	0	599	1	Ⴖ	cut_l_stereo_44KHz.wav
3	158	1	2	0	C	2	1	625	1	Ⴐ	cut_g_stereo_44KHz.wav
3	159	3	3	2	I	2	0	694	1	Ⴉ	cut_l_stereo_44KHz.wav
3	160	2	2	1	C	2	0	768	0	Ⴒ	cut_g_stereo_44KHz.wav
3	161	1	2	0	C	2	1	591	1	Ⴐ	cut_g_stereo_44KHz.wav
3	162	4	3	2	I	2	0	565	0	Ⴖ	cut_l_stereo_44KHz.wav
3	163	3	3	2	I	2	0	803	0	Ⴉ	cut_l_stereo_44KHz.wav
3	164	2	2	1	C	2	0	555	0	Ⴒ	cut_g_stereo_44KHz.wav
3	165	1	1	1	C	2	0	523	0	Ⴐ	cut_w_stereo_44KHz.wav
3	166	3	4	2	I	2	0	693	0	Ⴉ	cut_h_stereo_44KHz.wav
3	167	2	1	0	C	2	1	1204	1	Ⴒ	cut_w_stereo_44KHz.wav
3	168	4	4	2	I	2	0	738	1	Ⴖ	cut_h_stereo_44KHz.wav
3	169	1	1	1	C	0	0	0	0	Ⴐ	cut_w_stereo_44KHz.wav
3	170	3	3	2	I	2	0	679	0	Ⴉ	cut_l_stereo_44KHz.wav
3	171	2	2	1	C	0	0	0	0	Ⴒ	cut_g_stereo_44KHz.wav
3	172	4	3	2	I	2	0	790	1	Ⴖ	cut_l_stereo_44KHz.wav
3	173	2	1	0	C	2	1	968	1	Ⴒ	cut_w_stereo_44KHz.wav
3	174	1	2	0	C	2	1	759	1	Ⴐ	cut_g_stereo_44KHz.wav
3	175	3	4	2	I	2	0	667	1	Ⴉ	cut_h_stereo_44KHz.wav
3	176	4	4	2	I	2	0	550	0	Ⴖ	cut_h_stereo_44KHz.wav
3	177	1	2	0	C	2	1	620	1	Ⴐ	cut_g_stereo_44KHz.wav
3	178	4	4	2	I	2	0	733	0	Ⴖ	cut_h_stereo_44KHz.wav
3	179	3	4	2	I	2	0	655	0	Ⴉ	cut_h_stereo_44KHz.wav
3	180	2	1	0	C	2	1	674	1	Ⴒ	cut_w_stereo_44KHz.wav
3	181	3	3	2	I	2	0	582	1	Ⴉ	cut_l_stereo_44KHz.wav
3	182	1	1	1	C	1	1	1033	1	Ⴐ	cut_w_stereo_44KHz.wav
3	183	4	3	2	I	2	0	546	1	Ⴖ	cut_l_stereo_44KHz.wav
3	184	2	2	1	C	2	0	734	0	Ⴒ	cut_g_stereo_44KHz.wav
3	185	3	4	2	I	2	0	599	1	Ⴉ	cut_h_stereo_44KHz.wav
3	186	4	4	2	I	2	0	552	1	Ⴖ	cut_h_stereo_44KHz.wav
3	187	1	2	0	C	2	1	708	1	Ⴐ	cut_g_stereo_44KHz.wav
3	188	2	2	1	C	1	1	805	1	Ⴒ	cut_g_stereo_44KHz.wav
3	189	3	3	2	I	2	0	581	0	Ⴉ	cut_l_stereo_44KHz.wav
3	190	2	1	0	C	2	1	770	1	Ⴒ	cut_w_stereo_44KHz.wav
3	191	4	3	2	I	2	0	495	0	Ⴖ	cut_l_stereo_44KHz.wav
3	192	1	1	1	C	1	1	840	1	Ⴐ	cut_w_stereo_44KHz.wav
3	193	4	4	2	I	2	0	538	0	Ⴖ	cut_h_stereo_44KHz.wav
3	194	1	2	0	C	2	1	671	1	Ⴐ	cut_g_stereo_44KHz.wav
3	195	3	4	2	I	2	0	671	1	Ⴉ	cut_h_stereo_44KHz.wav
3	196	2	1	0	C	2	1	848	1	Ⴒ	cut_w_stereo_44KHz.wav
3	197	3	3	2	I	2	0	1011	0	Ⴉ	cut_l_stereo_44KHz.wav
3	198	1	1	1	C	1	1	999	1	Ⴐ	cut_w_stereo_44KHz.wav
3	199	2	2	1	C	1	1	1321	1	Ⴒ	cut_g_stereo_44KHz.wav
3	200	4	3	2	I	2	0	533	1	Ⴖ	cut_l_stereo_44KHz.wav
4	1	4	3	2	I	2	0	1319	0	Ⴔ	cut_s_stereo_44KHz.wav
4	2	3	3	2	I	2	0	680	1	Ⴕ	cut_s_stereo_44KHz.wav
4	3	1	2	0	C	2	1	777	1	Ⴏ	cut_oei_stereo_44KHz.wav
4	4	2	1	0	C	2	1	872	1	Ⴌ	cut_ui_stereo_44KHz.wav
4	5	1	1	1	C	1	1	1015	1	Ⴏ	cut_ui_stereo_44KHz.wav
4	6	4	4	2	I	2	0	920	1	Ⴔ	cut_f_stereo_44KHz.wav
4	7	3	4	2	I	2	0	1214	0	Ⴕ	cut_f_stereo_44KHz.wav
4	8	2	2	1	C	1	1	1589	1	Ⴌ	cut_oei_stereo_44KHz.wav
4	9	1	1	1	C	2	0	1293	0	Ⴏ	cut_ui_stereo_44KHz.wav
4	10	4	3	2	I	1	0	1225	0	Ⴔ	cut_s_stereo_44KHz.wav
4	11	2	2	1	C	2	0	1152	0	Ⴌ	cut_oei_stereo_44KHz.wav
4	12	3	4	2	I	2	0	1157	1	Ⴕ	cut_f_stereo_44KHz.wav
4	13	4	4	2	I	2	0	859	1	Ⴔ	cut_f_stereo_44KHz.wav
4	14	3	3	2	I	2	0	1566	1	Ⴕ	cut_s_stereo_44KHz.wav
4	15	1	2	0	C	2	1	1081	1	Ⴏ	cut_oei_stereo_44KHz.wav
4	16	2	1	0	C	2	1	648	1	Ⴌ	cut_ui_stereo_44KHz.wav
4	17	3	3	2	I	2	0	915	1	Ⴕ	cut_s_stereo_44KHz.wav
4	18	1	2	0	C	2	1	627	1	Ⴏ	cut_oei_stereo_44KHz.wav
4	19	2	2	1	C	2	0	550	0	Ⴌ	cut_oei_stereo_44KHz.wav
4	20	4	3	2	I	2	0	801	1	Ⴔ	cut_s_stereo_44KHz.wav
4	21	3	4	2	I	2	0	740	0	Ⴕ	cut_f_stereo_44KHz.wav
4	22	4	4	2	I	2	0	535	0	Ⴔ	cut_f_stereo_44KHz.wav
4	23	1	1	1	C	2	0	604	0	Ⴏ	cut_ui_stereo_44KHz.wav
4	24	2	1	0	C	2	1	597	1	Ⴌ	cut_ui_stereo_44KHz.wav
4	25	1	1	1	C	1	1	1083	1	Ⴏ	cut_ui_stereo_44KHz.wav
4	26	4	4	2	I	2	0	672	0	Ⴔ	cut_f_stereo_44KHz.wav
4	27	3	4	2	I	2	0	695	1	Ⴕ	cut_f_stereo_44KHz.wav
4	28	2	2	1	C	2	0	714	0	Ⴌ	cut_oei_stereo_44KHz.wav
4	29	3	3	2	I	2	0	1330	1	Ⴕ	cut_s_stereo_44KHz.wav
4	30	1	2	0	C	2	1	905	1	Ⴏ	cut_oei_stereo_44KHz.wav
4	31	4	3	2	I	2	0	869	1	Ⴔ	cut_s_stereo_44KHz.wav
4	32	2	1	0	C	2	1	548	1	Ⴌ	cut_ui_stereo_44KHz.wav
4	33	1	2	0	C	2	1	670	1	Ⴏ	cut_oei_stereo_44KHz.wav
4	34	3	4	2	I	2	0	759	0	Ⴕ	cut_f_stereo_44KHz.wav
4	35	2	1	0	C	2	1	465	1	Ⴌ	cut_ui_stereo_44KHz.wav
4	36	4	3	2	I	2	0	453	1	Ⴔ	cut_s_stereo_44KHz.wav
4	37	1	1	1	C	2	0	1010	0	Ⴏ	cut_ui_stereo_44KHz.wav
4	38	3	3	2	I	2	0	614	1	Ⴕ	cut_s_stereo_44KHz.wav
4	39	2	2	1	C	2	0	701	0	Ⴌ	cut_oei_stereo_44KHz.wav
4	40	4	4	2	I	2	0	568	0	Ⴔ	cut_f_stereo_44KHz.wav
4	41	3	4	2	I	2	0	533	1	Ⴕ	cut_f_stereo_44KHz.wav
4	42	2	2	1	C	1	1	1115	1	Ⴌ	cut_oei_stereo_44KHz.wav
4	43	1	2	0	C	2	1	628	1	Ⴏ	cut_oei_stereo_44KHz.wav
4	44	4	3	2	I	2	0	621	0	Ⴔ	cut_s_stereo_44KHz.wav
4	45	2	1	0	C	2	1	427	1	Ⴌ	cut_ui_stereo_44KHz.wav
4	46	1	1	1	C	1	1	1250	1	Ⴏ	cut_ui_stereo_44KHz.wav
4	47	3	3	2	I	2	0	661	0	Ⴕ	cut_s_stereo_44KHz.wav
4	48	4	4	2	I	2	0	759	1	Ⴔ	cut_f_stereo_44KHz.wav
4	49	2	2	1	C	2	0	878	0	Ⴌ	cut_oei_stereo_44KHz.wav
4	50	1	2	0	C	2	1	541	1	Ⴏ	cut_oei_stereo_44KHz.wav
4	51	3	3	2	I	2	0	949	0	Ⴕ	cut_s_stereo_44KHz.wav
4	52	4	3	2	I	2	0	818	1	Ⴔ	cut_s_stereo_44KHz.wav
4	53	2	1	0	C	2	1	1118	1	Ⴌ	cut_ui_stereo_44KHz.wav
4	54	4	4	2	I	2	0	579	1	Ⴔ	cut_f_stereo_44KHz.wav
4	55	1	1	1	C	1	1	1043	1	Ⴏ	cut_ui_stereo_44KHz.wav
4	56	3	4	2	I	2	0	619	1	Ⴕ	cut_f_stereo_44KHz.wav
4	57	1	1	1	C	2	0	481	0	Ⴏ	cut_ui_stereo_44KHz.wav
4	58	2	2	1	C	1	1	1259	1	Ⴌ	cut_oei_stereo_44KHz.wav
4	59	4	3	2	I	2	0	767	0	Ⴔ	cut_s_stereo_44KHz.wav
4	60	3	3	2	I	2	0	1091	0	Ⴕ	cut_s_stereo_44KHz.wav
4	61	2	1	0	C	2	1	890	1	Ⴌ	cut_ui_stereo_44KHz.wav
4	62	1	2	0	C	2	1	531	1	Ⴏ	cut_oei_stereo_44KHz.wav
4	63	3	4	2	I	2	0	673	0	Ⴕ	cut_f_stereo_44KHz.wav
4	64	4	4	2	I	2	0	713	0	Ⴔ	cut_f_stereo_44KHz.wav
4	65	3	3	2	I	2	0	622	1	Ⴕ	cut_s_stereo_44KHz.wav
4	66	1	2	0	C	2	1	792	1	Ⴏ	cut_oei_stereo_44KHz.wav
4	67	2	2	1	C	2	0	466	0	Ⴌ	cut_oei_stereo_44KHz.wav
4	68	4	3	2	I	2	0	713	0	Ⴔ	cut_s_stereo_44KHz.wav
4	69	1	1	1	C	2	0	1153	0	Ⴏ	cut_ui_stereo_44KHz.wav
4	70	3	4	2	I	2	0	581	1	Ⴕ	cut_f_stereo_44KHz.wav
4	71	2	1	0	C	2	1	1132	1	Ⴌ	cut_ui_stereo_44KHz.wav
4	72	4	4	2	I	2	0	586	0	Ⴔ	cut_f_stereo_44KHz.wav
4	73	3	3	2	I	2	0	651	0	Ⴕ	cut_s_stereo_44KHz.wav
4	74	1	1	1	C	2	0	982	0	Ⴏ	cut_ui_stereo_44KHz.wav
4	75	4	3	2	I	2	0	758	1	Ⴔ	cut_s_stereo_44KHz.wav
4	76	2	1	0	C	2	1	662	1	Ⴌ	cut_ui_stereo_44KHz.wav
4	77	1	2	0	C	2	1	682	1	Ⴏ	cut_oei_stereo_44KHz.wav
4	78	2	2	1	C	1	1	1265	1	Ⴌ	cut_oei_stereo_44KHz.wav
4	79	4	4	2	I	2	0	571	0	Ⴔ	cut_f_stereo_44KHz.wav
4	80	3	4	2	I	2	0	582	0	Ⴕ	cut_f_stereo_44KHz.wav
4	81	4	3	2	I	2	0	609	1	Ⴔ	cut_s_stereo_44KHz.wav
4	82	1	1	1	C	2	0	549	0	Ⴏ	cut_ui_stereo_44KHz.wav
4	83	2	2	1	C	2	0	672	0	Ⴌ	cut_oei_stereo_44KHz.wav
4	84	3	4	2	I	2	0	639	0	Ⴕ	cut_f_stereo_44KHz.wav
4	85	4	4	2	I	2	0	613	1	Ⴔ	cut_f_stereo_44KHz.wav
4	86	1	2	0	C	2	1	1308	1	Ⴏ	cut_oei_stereo_44KHz.wav
4	87	2	1	0	C	2	1	678	1	Ⴌ	cut_ui_stereo_44KHz.wav
4	88	3	3	2	I	2	0	644	0	Ⴕ	cut_s_stereo_44KHz.wav
4	89	2	2	1	C	2	0	645	0	Ⴌ	cut_oei_stereo_44KHz.wav
4	90	3	4	2	I	2	0	704	0	Ⴕ	cut_f_stereo_44KHz.wav
4	91	1	2	0	C	2	1	970	1	Ⴏ	cut_oei_stereo_44KHz.wav
4	92	4	4	2	I	2	0	665	0	Ⴔ	cut_f_stereo_44KHz.wav
4	93	1	1	1	C	2	0	924	0	Ⴏ	cut_ui_stereo_44KHz.wav
4	94	3	3	2	I	2	0	644	0	Ⴕ	cut_s_stereo_44KHz.wav
4	95	4	3	2	I	2	0	569	0	Ⴔ	cut_s_stereo_44KHz.wav
4	96	2	1	0	C	2	1	942	1	Ⴌ	cut_ui_stereo_44KHz.wav
4	97	1	1	1	C	1	1	1659	1	Ⴏ	cut_ui_stereo_44KHz.wav
4	98	2	2	1	C	2	0	801	0	Ⴌ	cut_oei_stereo_44KHz.wav
4	99	4	3	2	I	2	0	634	0	Ⴔ	cut_s_stereo_44KHz.wav
4	100	3	4	2	I	2	0	611	0	Ⴕ	cut_f_stereo_44KHz.wav
4	101	2	1	0	C	2	1	1334	1	Ⴌ	cut_ui_stereo_44KHz.wav
4	102	3	3	2	I	2	0	723	1	Ⴕ	cut_s_stereo_44KHz.wav
4	103	4	4	2	I	2	0	619	0	Ⴔ	cut_f_stereo_44KHz.wav
4	104	1	2	0	C	2	1	1230	1	Ⴏ	cut_oei_stereo_44KHz.wav
4	105	3	4	2	I	2	0	594	0	Ⴕ	cut_f_stereo_44KHz.wav
4	106	2	2	1	C	0	0	0	0	Ⴌ	cut_oei_stereo_44KHz.wav
4	107	4	4	2	I	2	0	613	0	Ⴔ	cut_f_stereo_44KHz.wav
4	108	1	2	0	C	2	1	832	1	Ⴏ	cut_oei_stereo_44KHz.wav
4	109	3	3	2	I	2	0	610	0	Ⴕ	cut_s_stereo_44KHz.wav
4	110	1	1	1	C	2	0	871	0	Ⴏ	cut_ui_stereo_44KHz.wav
4	111	4	3	2	I	2	0	527	0	Ⴔ	cut_s_stereo_44KHz.wav
4	112	2	1	0	C	2	1	935	1	Ⴌ	cut_ui_stereo_44KHz.wav
4	113	3	3	2	I	2	0	1113	0	Ⴕ	cut_s_stereo_44KHz.wav
4	114	2	2	1	C	1	1	985	1	Ⴌ	cut_oei_stereo_44KHz.wav
4	115	1	2	0	C	2	1	853	1	Ⴏ	cut_oei_stereo_44KHz.wav
4	116	4	4	2	I	2	0	671	1	Ⴔ	cut_f_stereo_44KHz.wav
4	117	2	1	0	C	2	1	973	1	Ⴌ	cut_ui_stereo_44KHz.wav
4	118	1	1	1	C	1	1	1339	1	Ⴏ	cut_ui_stereo_44KHz.wav
4	119	4	3	2	I	2	0	733	1	Ⴔ	cut_s_stereo_44KHz.wav
4	120	3	4	2	I	2	0	700	0	Ⴕ	cut_f_stereo_44KHz.wav
4	121	2	2	1	C	1	1	999	1	Ⴌ	cut_oei_stereo_44KHz.wav
4	122	1	2	0	C	2	1	1242	1	Ⴏ	cut_oei_stereo_44KHz.wav
4	123	3	4	2	I	2	0	777	1	Ⴕ	cut_f_stereo_44KHz.wav
4	124	4	4	2	I	2	0	655	1	Ⴔ	cut_f_stereo_44KHz.wav
4	125	1	1	1	C	1	1	1003	1	Ⴏ	cut_ui_stereo_44KHz.wav
4	126	4	3	2	I	2	0	820	0	Ⴔ	cut_s_stereo_44KHz.wav
4	127	2	1	0	C	2	1	630	1	Ⴌ	cut_ui_stereo_44KHz.wav
4	128	3	3	2	I	2	0	1051	1	Ⴕ	cut_s_stereo_44KHz.wav
4	129	4	4	2	I	2	0	626	1	Ⴔ	cut_f_stereo_44KHz.wav
4	130	3	3	2	I	2	0	556	0	Ⴕ	cut_s_stereo_44KHz.wav
4	131	2	2	1	C	2	0	1148	0	Ⴌ	cut_oei_stereo_44KHz.wav
4	132	1	1	1	C	1	1	730	1	Ⴏ	cut_ui_stereo_44KHz.wav
4	133	3	4	2	I	2	0	612	1	Ⴕ	cut_f_stereo_44KHz.wav
4	134	1	2	0	C	2	1	884	1	Ⴏ	cut_oei_stereo_44KHz.wav
4	135	4	3	2	I	2	0	683	0	Ⴔ	cut_s_stereo_44KHz.wav
4	136	2	1	0	C	2	1	829	1	Ⴌ	cut_ui_stereo_44KHz.wav
4	137	4	3	2	I	2	0	746	1	Ⴔ	cut_s_stereo_44KHz.wav
4	138	2	2	1	C	2	0	606	0	Ⴌ	cut_oei_stereo_44KHz.wav
4	139	3	3	2	I	2	0	608	1	Ⴕ	cut_s_stereo_44KHz.wav
4	140	1	1	1	C	1	1	1595	1	Ⴏ	cut_ui_stereo_44KHz.wav
4	141	4	4	2	I	2	0	652	1	Ⴔ	cut_f_stereo_44KHz.wav
4	142	3	4	2	I	2	0	599	1	Ⴕ	cut_f_stereo_44KHz.wav
4	143	1	2	0	C	2	1	1019	1	Ⴏ	cut_oei_stereo_44KHz.wav
4	144	2	1	0	C	2	1	1070	1	Ⴌ	cut_ui_stereo_44KHz.wav
4	145	1	1	1	C	1	1	1141	1	Ⴏ	cut_ui_stereo_44KHz.wav
4	146	4	3	2	I	2	0	572	1	Ⴔ	cut_s_stereo_44KHz.wav
4	147	3	3	2	I	2	0	965	1	Ⴕ	cut_s_stereo_44KHz.wav
4	148	2	1	0	C	2	1	796	1	Ⴌ	cut_ui_stereo_44KHz.wav
4	149	4	4	2	I	2	0	672	1	Ⴔ	cut_f_stereo_44KHz.wav
4	150	3	4	2	I	2	0	533	1	Ⴕ	cut_f_stereo_44KHz.wav
4	151	2	2	1	C	2	0	845	0	Ⴌ	cut_oei_stereo_44KHz.wav
4	152	1	2	0	C	2	1	523	1	Ⴏ	cut_oei_stereo_44KHz.wav
4	153	4	3	2	I	2	0	648	0	Ⴔ	cut_s_stereo_44KHz.wav
4	154	3	3	2	I	2	0	573	1	Ⴕ	cut_s_stereo_44KHz.wav
4	155	1	2	0	C	2	1	627	1	Ⴏ	cut_oei_stereo_44KHz.wav
4	156	2	2	1	C	2	0	532	0	Ⴌ	cut_oei_stereo_44KHz.wav
4	157	4	4	2	I	2	0	662	0	Ⴔ	cut_f_stereo_44KHz.wav
4	158	1	1	1	C	1	1	1294	1	Ⴏ	cut_ui_stereo_44KHz.wav
4	159	2	1	0	C	2	1	916	1	Ⴌ	cut_ui_stereo_44KHz.wav
4	160	3	4	2	I	2	0	680	1	Ⴕ	cut_f_stereo_44KHz.wav
4	161	2	2	1	C	2	0	714	0	Ⴌ	cut_oei_stereo_44KHz.wav
4	162	1	2	0	C	2	1	884	1	Ⴏ	cut_oei_stereo_44KHz.wav
4	163	3	3	2	I	2	0	1272	0	Ⴕ	cut_s_stereo_44KHz.wav
4	164	4	3	2	I	2	0	1569	1	Ⴔ	cut_s_stereo_44KHz.wav
4	165	3	4	2	I	2	0	596	0	Ⴕ	cut_f_stereo_44KHz.wav
4	166	4	4	2	I	2	0	507	0	Ⴔ	cut_f_stereo_44KHz.wav
4	167	1	1	1	C	1	1	1268	1	Ⴏ	cut_ui_stereo_44KHz.wav
4	168	2	1	0	C	2	1	736	1	Ⴌ	cut_ui_stereo_44KHz.wav
4	169	1	2	0	C	2	1	773	1	Ⴏ	cut_oei_stereo_44KHz.wav
4	170	3	4	2	I	2	0	684	0	Ⴕ	cut_f_stereo_44KHz.wav
4	171	2	2	1	C	2	0	860	0	Ⴌ	cut_oei_stereo_44KHz.wav
4	172	4	3	2	I	2	0	788	1	Ⴔ	cut_s_stereo_44KHz.wav
4	173	1	1	1	C	1	1	1057	1	Ⴏ	cut_ui_stereo_44KHz.wav
4	174	4	4	2	I	2	0	618	0	Ⴔ	cut_f_stereo_44KHz.wav
4	175	3	3	2	I	2	0	608	0	Ⴕ	cut_s_stereo_44KHz.wav
4	176	2	1	0	C	2	1	1188	1	Ⴌ	cut_ui_stereo_44KHz.wav
4	177	1	2	0	C	2	1	698	1	Ⴏ	cut_oei_stereo_44KHz.wav
4	178	3	3	2	I	2	0	646	1	Ⴕ	cut_s_stereo_44KHz.wav
4	179	2	2	1	C	1	1	891	1	Ⴌ	cut_oei_stereo_44KHz.wav
4	180	4	4	2	I	2	0	579	0	Ⴔ	cut_f_stereo_44KHz.wav
4	181	2	1	0	C	2	1	702	1	Ⴌ	cut_ui_stereo_44KHz.wav
4	182	3	4	2	I	2	0	601	1	Ⴕ	cut_f_stereo_44KHz.wav
4	183	4	3	2	I	2	0	717	0	Ⴔ	cut_s_stereo_44KHz.wav
4	184	1	1	1	C	2	0	982	0	Ⴏ	cut_ui_stereo_44KHz.wav
4	185	2	1	0	C	2	1	605	1	Ⴌ	cut_ui_stereo_44KHz.wav
4	186	3	4	2	I	2	0	522	0	Ⴕ	cut_f_stereo_44KHz.wav
4	187	1	2	0	C	2	1	1014	1	Ⴏ	cut_oei_stereo_44KHz.wav
4	188	4	3	2	I	2	0	619	1	Ⴔ	cut_s_stereo_44KHz.wav
4	189	1	1	1	C	1	1	955	1	Ⴏ	cut_ui_stereo_44KHz.wav
4	190	4	4	2	I	2	0	673	1	Ⴔ	cut_f_stereo_44KHz.wav
4	191	2	2	1	C	2	0	613	0	Ⴌ	cut_oei_stereo_44KHz.wav
4	192	3	3	2	I	2	0	915	1	Ⴕ	cut_s_stereo_44KHz.wav
4	193	2	2	1	C	1	1	960	1	Ⴌ	cut_oei_stereo_44KHz.wav
4	194	3	3	2	I	2	0	484	0	Ⴕ	cut_s_stereo_44KHz.wav
4	195	4	4	2	I	2	0	441	1	Ⴔ	cut_f_stereo_44KHz.wav
4	196	1	2	0	C	2	1	1067	1	Ⴏ	cut_oei_stereo_44KHz.wav
4	197	3	4	2	I	2	0	591	1	Ⴕ	cut_f_stereo_44KHz.wav
4	198	2	1	0	C	2	1	1389	1	Ⴌ	cut_ui_stereo_44KHz.wav
4	199	1	1	1	C	1	1	740	1	Ⴏ	cut_ui_stereo_44KHz.wav
4	200	4	3	2	I	2	0	919	1	Ⴔ	cut_s_stereo_44KHz.wav
