block	trial	Vstim	Astim	match	C/I	resp	result	RT	fb	V-file	A-file
RL

0	1	1	1	1	C	2	0	1195	0	poli_8sides 24_whiteLine3.jpg	Practice3_b26_cut1_stereo_44KHz.wav
0	2	2	4	0	C	2	1	635	1	poli_8sides 23_whiteLine3.jpg	Practice4_b26_stereo_44KHz.wav
0	3	1	2	0	C	2	1	949	1	poli_8sides 24_whiteLine3.jpg	Practice2_b27_cut2_stereo_44KHz.wav
0	4	2	3	1	C	2	0	791	0	poli_8sides 23_whiteLine3.jpg	Practice1_b27_cut1_stereo_44KHz.wav
0	5	1	2	0	C	2	1	747	1	poli_8sides 24_whiteLine3.jpg	Practice2_b27_cut2_stereo_44KHz.wav
0	6	2	4	0	C	2	1	1060	1	poli_8sides 23_whiteLine3.jpg	Practice4_b26_stereo_44KHz.wav
0	7	1	1	1	C	2	0	469	0	poli_8sides 24_whiteLine3.jpg	Practice3_b26_cut1_stereo_44KHz.wav
0	8	2	3	1	C	2	0	547	0	poli_8sides 23_whiteLine3.jpg	Practice1_b27_cut1_stereo_44KHz.wav
0	9	1	2	0	C	2	1	553	1	poli_8sides 24_whiteLine3.jpg	Practice2_b27_cut2_stereo_44KHz.wav
0	10	2	3	1	C	2	0	732	0	poli_8sides 23_whiteLine3.jpg	Practice1_b27_cut1_stereo_44KHz.wav
0	11	1	1	1	C	2	0	549	0	poli_8sides 24_whiteLine3.jpg	Practice3_b26_cut1_stereo_44KHz.wav
0	12	2	4	0	C	2	1	1178	1	poli_8sides 23_whiteLine3.jpg	Practice4_b26_stereo_44KHz.wav
0	13	1	2	0	C	2	1	996	1	poli_8sides 24_whiteLine3.jpg	Practice2_b27_cut2_stereo_44KHz.wav
0	14	2	3	1	C	1	1	1133	1	poli_8sides 23_whiteLine3.jpg	Practice1_b27_cut1_stereo_44KHz.wav
0	15	1	1	1	C	1	1	1177	1	poli_8sides 24_whiteLine3.jpg	Practice3_b26_cut1_stereo_44KHz.wav
0	16	2	4	0	C	2	1	646	1	poli_8sides 23_whiteLine3.jpg	Practice4_b26_stereo_44KHz.wav
0	17	2	4	0	C	1	0	743	0	poli_8sides 23_whiteLine3.jpg	Practice4_b26_stereo_44KHz.wav
0	18	1	1	1	C	2	0	597	0	poli_8sides 24_whiteLine3.jpg	Practice3_b26_cut1_stereo_44KHz.wav
0	19	2	3	1	C	2	0	864	0	poli_8sides 23_whiteLine3.jpg	Practice1_b27_cut1_stereo_44KHz.wav
0	20	1	2	0	C	2	1	868	1	poli_8sides 24_whiteLine3.jpg	Practice2_b27_cut2_stereo_44KHz.wav
0	21	2	4	0	C	2	1	1050	1	poli_8sides 23_whiteLine3.jpg	Practice4_b26_stereo_44KHz.wav
0	22	1	1	1	C	2	0	940	0	poli_8sides 24_whiteLine3.jpg	Practice3_b26_cut1_stereo_44KHz.wav
0	23	2	3	1	C	2	0	708	0	poli_8sides 23_whiteLine3.jpg	Practice1_b27_cut1_stereo_44KHz.wav
0	24	1	2	0	C	2	1	657	1	poli_8sides 24_whiteLine3.jpg	Practice2_b27_cut2_stereo_44KHz.wav
0	25	2	3	1	C	2	0	609	0	poli_8sides 23_whiteLine3.jpg	Practice1_b27_cut1_stereo_44KHz.wav
0	26	1	2	0	C	2	1	761	1	poli_8sides 24_whiteLine3.jpg	Practice2_b27_cut2_stereo_44KHz.wav
0	27	2	4	0	C	1	0	1296	0	poli_8sides 23_whiteLine3.jpg	Practice4_b26_stereo_44KHz.wav
0	28	1	1	1	C	1	1	780	1	poli_8sides 24_whiteLine3.jpg	Practice3_b26_cut1_stereo_44KHz.wav
0	29	2	4	0	C	2	1	1119	1	poli_8sides 23_whiteLine3.jpg	Practice4_b26_stereo_44KHz.wav
0	30	1	1	1	C	1	1	862	1	poli_8sides 24_whiteLine3.jpg	Practice3_b26_cut1_stereo_44KHz.wav
avg_resp = 892
1	1	4	3	2	I	2	0	1118	1	poli_8sides 1_whiteLine3.jpg	MediumLong_e19_stereo_44KHz.wav
1	2	2	1	0	C	2	1	661	1	poli_8sides 5_whiteLine3.jpg	MediumLong_b10_cut2_L_stereo_44KHz.wav
1	3	1	1	1	C	2	0	640	0	poli_8sides 2_whiteLine3.jpg	MediumLong_b10_cut2_L_stereo_44KHz.wav
1	4	3	4	2	I	2	0	1060	0	poli_8sides 12_whiteLine3.jpg	Medium_e01_cut1_stereo_44KHz.wav
1	5	2	2	1	C	2	0	878	0	poli_8sides 5_whiteLine3.jpg	Medium_e13_stereo_44KHz.wav
1	6	1	2	0	C	1	0	305	0	poli_8sides 2_whiteLine3.jpg	Medium_e13_stereo_44KHz.wav
1	7	4	4	2	I	1	0	243	1	poli_8sides 1_whiteLine3.jpg	Medium_e01_cut1_stereo_44KHz.wav
1	8	3	3	2	I	2	0	56	0	poli_8sides 12_whiteLine3.jpg	MediumLong_e19_stereo_44KHz.wav
1	9	2	1	0	C	2	1	793	1	poli_8sides 5_whiteLine3.jpg	MediumLong_b10_cut2_L_stereo_44KHz.wav
1	10	4	3	2	I	2	0	961	0	poli_8sides 1_whiteLine3.jpg	MediumLong_e19_stereo_44KHz.wav
1	11	1	2	0	C	2	1	260	1	poli_8sides 2_whiteLine3.jpg	Medium_e13_stereo_44KHz.wav
1	12	3	3	2	I	2	0	918	1	poli_8sides 12_whiteLine3.jpg	MediumLong_e19_stereo_44KHz.wav
1	13	4	4	2	I	1	0	376	0	poli_8sides 1_whiteLine3.jpg	Medium_e01_cut1_stereo_44KHz.wav
1	14	2	2	1	C	2	0	122	0	poli_8sides 5_whiteLine3.jpg	Medium_e13_stereo_44KHz.wav
1	15	1	1	1	C	1	1	110	1	poli_8sides 2_whiteLine3.jpg	MediumLong_b10_cut2_L_stereo_44KHz.wav
1	16	3	4	2	I	2	0	1136	0	poli_8sides 12_whiteLine3.jpg	Medium_e01_cut1_stereo_44KHz.wav
1	17	4	3	2	I	2	0	498	1	poli_8sides 1_whiteLine3.jpg	MediumLong_e19_stereo_44KHz.wav
1	18	3	4	2	I	2	0	551	1	poli_8sides 12_whiteLine3.jpg	Medium_e01_cut1_stereo_44KHz.wav
1	19	2	2	1	C	2	0	315	0	poli_8sides 5_whiteLine3.jpg	Medium_e13_stereo_44KHz.wav
1	20	1	2	0	C	2	1	399	1	poli_8sides 2_whiteLine3.jpg	Medium_e13_stereo_44KHz.wav
1	21	4	4	2	I	2	0	420	0	poli_8sides 1_whiteLine3.jpg	Medium_e01_cut1_stereo_44KHz.wav
1	22	2	1	0	C	2	1	571	1	poli_8sides 5_whiteLine3.jpg	MediumLong_b10_cut2_L_stereo_44KHz.wav
1	23	1	1	1	C	2	0	263	0	poli_8sides 2_whiteLine3.jpg	MediumLong_b10_cut2_L_stereo_44KHz.wav
1	24	3	3	2	I	2	0	158	1	poli_8sides 12_whiteLine3.jpg	MediumLong_e19_stereo_44KHz.wav
1	25	2	1	0	C	2	1	1178	1	poli_8sides 5_whiteLine3.jpg	MediumLong_b10_cut2_L_stereo_44KHz.wav
1	26	4	4	2	I	2	0	1048	0	poli_8sides 1_whiteLine3.jpg	Medium_e01_cut1_stereo_44KHz.wav
1	27	3	3	2	I	1	0	656	0	poli_8sides 12_whiteLine3.jpg	MediumLong_e19_stereo_44KHz.wav
1	28	1	1	1	C	2	0	763	0	poli_8sides 2_whiteLine3.jpg	MediumLong_b10_cut2_L_stereo_44KHz.wav
1	29	2	2	1	C	2	0	952	0	poli_8sides 5_whiteLine3.jpg	Medium_e13_stereo_44KHz.wav
1	30	3	4	2	I	1	0	850	0	poli_8sides 12_whiteLine3.jpg	Medium_e01_cut1_stereo_44KHz.wav
1	31	1	2	0	C	2	1	517	1	poli_8sides 2_whiteLine3.jpg	Medium_e13_stereo_44KHz.wav
1	32	4	3	2	I	2	0	583	0	poli_8sides 1_whiteLine3.jpg	MediumLong_e19_stereo_44KHz.wav
1	33	1	2	0	C	1	0	695	0	poli_8sides 2_whiteLine3.jpg	Medium_e13_stereo_44KHz.wav
1	34	4	4	2	I	2	0	1095	0	poli_8sides 1_whiteLine3.jpg	Medium_e01_cut1_stereo_44KHz.wav
1	35	3	3	2	I	2	0	1121	0	poli_8sides 12_whiteLine3.jpg	MediumLong_e19_stereo_44KHz.wav
1	36	2	1	0	C	2	1	602	1	poli_8sides 5_whiteLine3.jpg	MediumLong_b10_cut2_L_stereo_44KHz.wav
1	37	4	3	2	I	2	0	971	1	poli_8sides 1_whiteLine3.jpg	MediumLong_e19_stereo_44KHz.wav
1	38	3	4	2	I	2	0	460	1	poli_8sides 12_whiteLine3.jpg	Medium_e01_cut1_stereo_44KHz.wav
1	39	1	1	1	C	2	0	441	0	poli_8sides 2_whiteLine3.jpg	MediumLong_b10_cut2_L_stereo_44KHz.wav
1	40	2	2	1	C	2	0	183	0	poli_8sides 5_whiteLine3.jpg	Medium_e13_stereo_44KHz.wav
1	41	3	3	2	I	2	0	900	1	poli_8sides 12_whiteLine3.jpg	MediumLong_e19_stereo_44KHz.wav
1	42	1	1	1	C	1	1	662	1	poli_8sides 2_whiteLine3.jpg	MediumLong_b10_cut2_L_stereo_44KHz.wav
1	43	4	4	2	I	2	0	932	1	poli_8sides 1_whiteLine3.jpg	Medium_e01_cut1_stereo_44KHz.wav
1	44	2	1	0	C	2	1	1151	1	poli_8sides 5_whiteLine3.jpg	MediumLong_b10_cut2_L_stereo_44KHz.wav
1	45	3	4	2	I	1	0	321	1	poli_8sides 12_whiteLine3.jpg	Medium_e01_cut1_stereo_44KHz.wav
1	46	2	2	1	C	2	0	517	0	poli_8sides 5_whiteLine3.jpg	Medium_e13_stereo_44KHz.wav
1	47	4	3	2	I	2	0	524	1	poli_8sides 1_whiteLine3.jpg	MediumLong_e19_stereo_44KHz.wav
1	48	1	2	0	C	1	0	1024	0	poli_8sides 2_whiteLine3.jpg	Medium_e13_stereo_44KHz.wav
1	49	2	2	1	C	1	1	820	1	poli_8sides 5_whiteLine3.jpg	Medium_e13_stereo_44KHz.wav
1	50	4	4	2	I	1	0	415	0	poli_8sides 1_whiteLine3.jpg	Medium_e01_cut1_stereo_44KHz.wav
1	51	1	1	1	C	2	0	796	0	poli_8sides 2_whiteLine3.jpg	MediumLong_b10_cut2_L_stereo_44KHz.wav
1	52	3	3	2	I	2	0	433	0	poli_8sides 12_whiteLine3.jpg	MediumLong_e19_stereo_44KHz.wav
1	53	4	3	2	I	2	0	435	0	poli_8sides 1_whiteLine3.jpg	MediumLong_e19_stereo_44KHz.wav
1	54	1	2	0	C	2	1	568	1	poli_8sides 2_whiteLine3.jpg	Medium_e13_stereo_44KHz.wav
1	55	3	4	2	I	1	0	622	1	poli_8sides 12_whiteLine3.jpg	Medium_e01_cut1_stereo_44KHz.wav
1	56	2	1	0	C	2	1	1275	1	poli_8sides 5_whiteLine3.jpg	MediumLong_b10_cut2_L_stereo_44KHz.wav
1	57	1	1	1	C	2	0	676	0	poli_8sides 2_whiteLine3.jpg	MediumLong_b10_cut2_L_stereo_44KHz.wav
1	58	4	4	2	I	2	0	512	0	poli_8sides 1_whiteLine3.jpg	Medium_e01_cut1_stereo_44KHz.wav
1	59	2	1	0	C	2	1	469	1	poli_8sides 5_whiteLine3.jpg	MediumLong_b10_cut2_L_stereo_44KHz.wav
1	60	3	3	2	I	2	0	468	1	poli_8sides 12_whiteLine3.jpg	MediumLong_e19_stereo_44KHz.wav
1	61	2	2	1	C	2	0	638	0	poli_8sides 5_whiteLine3.jpg	Medium_e13_stereo_44KHz.wav
1	62	4	3	2	I	2	0	532	1	poli_8sides 1_whiteLine3.jpg	MediumLong_e19_stereo_44KHz.wav
1	63	1	2	0	C	2	1	636	1	poli_8sides 2_whiteLine3.jpg	Medium_e13_stereo_44KHz.wav
1	64	3	4	2	I	2	0	532	1	poli_8sides 12_whiteLine3.jpg	Medium_e01_cut1_stereo_44KHz.wav
1	65	1	1	1	C	2	0	1232	0	poli_8sides 2_whiteLine3.jpg	MediumLong_b10_cut2_L_stereo_44KHz.wav
1	66	3	4	2	I	2	0	495	0	poli_8sides 12_whiteLine3.jpg	Medium_e01_cut1_stereo_44KHz.wav
1	67	4	3	2	I	2	0	605	1	poli_8sides 1_whiteLine3.jpg	MediumLong_e19_stereo_44KHz.wav
1	68	2	2	1	C	2	0	548	0	poli_8sides 5_whiteLine3.jpg	Medium_e13_stereo_44KHz.wav
1	69	4	4	2	I	2	0	360	0	poli_8sides 1_whiteLine3.jpg	Medium_e01_cut1_stereo_44KHz.wav
1	70	3	3	2	I	2	0	548	0	poli_8sides 12_whiteLine3.jpg	MediumLong_e19_stereo_44KHz.wav
1	71	1	2	0	C	2	1	533	1	poli_8sides 2_whiteLine3.jpg	Medium_e13_stereo_44KHz.wav
1	72	2	1	0	C	2	1	513	1	poli_8sides 5_whiteLine3.jpg	MediumLong_b10_cut2_L_stereo_44KHz.wav
1	73	4	3	2	I	2	0	503	1	poli_8sides 1_whiteLine3.jpg	MediumLong_e19_stereo_44KHz.wav
1	74	2	2	1	C	2	0	560	0	poli_8sides 5_whiteLine3.jpg	Medium_e13_stereo_44KHz.wav
1	75	1	2	0	C	2	1	652	1	poli_8sides 2_whiteLine3.jpg	Medium_e13_stereo_44KHz.wav
1	76	3	4	2	I	2	0	557	1	poli_8sides 12_whiteLine3.jpg	Medium_e01_cut1_stereo_44KHz.wav
1	77	2	1	0	C	2	1	819	1	poli_8sides 5_whiteLine3.jpg	MediumLong_b10_cut2_L_stereo_44KHz.wav
1	78	4	4	2	I	1	0	139	1	poli_8sides 1_whiteLine3.jpg	Medium_e01_cut1_stereo_44KHz.wav
1	79	1	1	1	C	2	0	678	0	poli_8sides 2_whiteLine3.jpg	MediumLong_b10_cut2_L_stereo_44KHz.wav
1	80	3	3	2	I	2	0	525	1	poli_8sides 12_whiteLine3.jpg	MediumLong_e19_stereo_44KHz.wav
1	81	1	2	0	C	1	0	302	0	poli_8sides 2_whiteLine3.jpg	Medium_e13_stereo_44KHz.wav
1	82	2	2	1	C	2	0	396	0	poli_8sides 5_whiteLine3.jpg	Medium_e13_stereo_44KHz.wav
1	83	3	3	2	I	2	0	423	1	poli_8sides 12_whiteLine3.jpg	MediumLong_e19_stereo_44KHz.wav
1	84	4	3	2	I	2	0	548	0	poli_8sides 1_whiteLine3.jpg	MediumLong_e19_stereo_44KHz.wav
1	85	1	1	1	C	2	0	595	0	poli_8sides 2_whiteLine3.jpg	MediumLong_b10_cut2_L_stereo_44KHz.wav
1	86	2	1	0	C	2	1	623	1	poli_8sides 5_whiteLine3.jpg	MediumLong_b10_cut2_L_stereo_44KHz.wav
1	87	4	4	2	I	2	0	884	1	poli_8sides 1_whiteLine3.jpg	Medium_e01_cut1_stereo_44KHz.wav
1	88	3	4	2	I	2	0	563	0	poli_8sides 12_whiteLine3.jpg	Medium_e01_cut1_stereo_44KHz.wav
1	89	2	1	0	C	1	0	472	0	poli_8sides 5_whiteLine3.jpg	MediumLong_b10_cut2_L_stereo_44KHz.wav
1	90	3	3	2	I	2	0	393	0	poli_8sides 12_whiteLine3.jpg	MediumLong_e19_stereo_44KHz.wav
1	91	1	2	0	C	2	1	424	1	poli_8sides 2_whiteLine3.jpg	Medium_e13_stereo_44KHz.wav
1	92	4	4	2	I	2	0	429	0	poli_8sides 1_whiteLine3.jpg	Medium_e01_cut1_stereo_44KHz.wav
1	93	2	2	1	C	2	0	455	0	poli_8sides 5_whiteLine3.jpg	Medium_e13_stereo_44KHz.wav
1	94	4	3	2	I	2	0	435	1	poli_8sides 1_whiteLine3.jpg	MediumLong_e19_stereo_44KHz.wav
1	95	3	4	2	I	2	0	468	0	poli_8sides 12_whiteLine3.jpg	Medium_e01_cut1_stereo_44KHz.wav
1	96	1	1	1	C	2	0	595	0	poli_8sides 2_whiteLine3.jpg	MediumLong_b10_cut2_L_stereo_44KHz.wav
1	97	4	3	2	I	2	0	552	0	poli_8sides 1_whiteLine3.jpg	MediumLong_e19_stereo_44KHz.wav
1	98	2	1	0	C	2	1	444	1	poli_8sides 5_whiteLine3.jpg	MediumLong_b10_cut2_L_stereo_44KHz.wav
1	99	3	4	2	I	2	0	438	1	poli_8sides 12_whiteLine3.jpg	Medium_e01_cut1_stereo_44KHz.wav
1	100	1	1	1	C	2	0	424	0	poli_8sides 2_whiteLine3.jpg	MediumLong_b10_cut2_L_stereo_44KHz.wav
1	101	3	3	2	I	2	0	357	0	poli_8sides 12_whiteLine3.jpg	MediumLong_e19_stereo_44KHz.wav
1	102	1	2	0	C	2	1	390	1	poli_8sides 2_whiteLine3.jpg	Medium_e13_stereo_44KHz.wav
1	103	2	2	1	C	2	0	532	0	poli_8sides 5_whiteLine3.jpg	Medium_e13_stereo_44KHz.wav
1	104	4	4	2	I	1	0	510	1	poli_8sides 1_whiteLine3.jpg	Medium_e01_cut1_stereo_44KHz.wav
1	105	3	4	2	I	2	0	558	1	poli_8sides 12_whiteLine3.jpg	Medium_e01_cut1_stereo_44KHz.wav
1	106	1	2	0	C	2	1	437	1	poli_8sides 2_whiteLine3.jpg	Medium_e13_stereo_44KHz.wav
1	107	2	1	0	C	2	1	404	1	poli_8sides 5_whiteLine3.jpg	MediumLong_b10_cut2_L_stereo_44KHz.wav
1	108	4	4	2	I	2	0	564	0	poli_8sides 1_whiteLine3.jpg	Medium_e01_cut1_stereo_44KHz.wav
1	109	1	1	1	C	2	0	359	0	poli_8sides 2_whiteLine3.jpg	MediumLong_b10_cut2_L_stereo_44KHz.wav
1	110	3	3	2	I	2	0	362	1	poli_8sides 12_whiteLine3.jpg	MediumLong_e19_stereo_44KHz.wav
1	111	2	2	1	C	2	0	392	0	poli_8sides 5_whiteLine3.jpg	Medium_e13_stereo_44KHz.wav
1	112	4	3	2	I	2	0	505	1	poli_8sides 1_whiteLine3.jpg	MediumLong_e19_stereo_44KHz.wav
1	113	3	3	2	I	2	0	360	1	poli_8sides 12_whiteLine3.jpg	MediumLong_e19_stereo_44KHz.wav
1	114	2	1	0	C	2	1	233	1	poli_8sides 5_whiteLine3.jpg	MediumLong_b10_cut2_L_stereo_44KHz.wav
1	115	1	1	1	C	2	0	458	0	poli_8sides 2_whiteLine3.jpg	MediumLong_b10_cut2_L_stereo_44KHz.wav
1	116	4	4	2	I	2	0	471	0	poli_8sides 1_whiteLine3.jpg	Medium_e01_cut1_stereo_44KHz.wav
1	117	2	2	1	C	1	1	436	1	poli_8sides 5_whiteLine3.jpg	Medium_e13_stereo_44KHz.wav
1	118	4	3	2	I	1	0	311	1	poli_8sides 1_whiteLine3.jpg	MediumLong_e19_stereo_44KHz.wav
1	119	1	2	0	C	2	1	516	1	poli_8sides 2_whiteLine3.jpg	Medium_e13_stereo_44KHz.wav
1	120	3	4	2	I	2	0	489	1	poli_8sides 12_whiteLine3.jpg	Medium_e01_cut1_stereo_44KHz.wav
1	121	1	2	0	C	2	1	429	1	poli_8sides 2_whiteLine3.jpg	Medium_e13_stereo_44KHz.wav
1	122	2	2	1	C	2	0	591	0	poli_8sides 5_whiteLine3.jpg	Medium_e13_stereo_44KHz.wav
1	123	3	3	2	I	1	0	591	0	poli_8sides 12_whiteLine3.jpg	MediumLong_e19_stereo_44KHz.wav
1	124	4	3	2	I	2	0	541	1	poli_8sides 1_whiteLine3.jpg	MediumLong_e19_stereo_44KHz.wav
1	125	2	1	0	C	2	1	302	1	poli_8sides 5_whiteLine3.jpg	MediumLong_b10_cut2_L_stereo_44KHz.wav
1	126	1	1	1	C	2	0	470	0	poli_8sides 2_whiteLine3.jpg	MediumLong_b10_cut2_L_stereo_44KHz.wav
1	127	3	4	2	I	1	0	362	1	poli_8sides 12_whiteLine3.jpg	Medium_e01_cut1_stereo_44KHz.wav
1	128	4	4	2	I	2	0	533	0	poli_8sides 1_whiteLine3.jpg	Medium_e01_cut1_stereo_44KHz.wav
1	129	3	4	2	I	1	0	448	1	poli_8sides 12_whiteLine3.jpg	Medium_e01_cut1_stereo_44KHz.wav
1	130	2	1	0	C	2	1	555	1	poli_8sides 5_whiteLine3.jpg	MediumLong_b10_cut2_L_stereo_44KHz.wav
1	131	4	4	2	I	2	0	506	0	poli_8sides 1_whiteLine3.jpg	Medium_e01_cut1_stereo_44KHz.wav
1	132	1	2	0	C	2	1	426	1	poli_8sides 2_whiteLine3.jpg	Medium_e13_stereo_44KHz.wav
1	133	2	2	1	C	2	0	405	0	poli_8sides 5_whiteLine3.jpg	Medium_e13_stereo_44KHz.wav
1	134	3	3	2	I	2	0	343	1	poli_8sides 12_whiteLine3.jpg	MediumLong_e19_stereo_44KHz.wav
1	135	1	1	1	C	2	0	407	0	poli_8sides 2_whiteLine3.jpg	MediumLong_b10_cut2_L_stereo_44KHz.wav
1	136	4	3	2	I	2	0	408	0	poli_8sides 1_whiteLine3.jpg	MediumLong_e19_stereo_44KHz.wav
1	137	1	2	0	C	2	1	284	1	poli_8sides 2_whiteLine3.jpg	Medium_e13_stereo_44KHz.wav
1	138	2	1	0	C	2	1	240	1	poli_8sides 5_whiteLine3.jpg	MediumLong_b10_cut2_L_stereo_44KHz.wav
1	139	3	4	2	I	2	0	349	0	poli_8sides 12_whiteLine3.jpg	Medium_e01_cut1_stereo_44KHz.wav
1	140	4	3	2	I	2	0	354	1	poli_8sides 1_whiteLine3.jpg	MediumLong_e19_stereo_44KHz.wav
1	141	3	3	2	I	2	0	341	1	poli_8sides 12_whiteLine3.jpg	MediumLong_e19_stereo_44KHz.wav
1	142	4	4	2	I	2	0	313	1	poli_8sides 1_whiteLine3.jpg	Medium_e01_cut1_stereo_44KHz.wav
1	143	2	2	1	C	2	0	503	0	poli_8sides 5_whiteLine3.jpg	Medium_e13_stereo_44KHz.wav
1	144	1	1	1	C	2	0	433	0	poli_8sides 2_whiteLine3.jpg	MediumLong_b10_cut2_L_stereo_44KHz.wav
1	145	3	4	2	I	2	0	388	0	poli_8sides 12_whiteLine3.jpg	Medium_e01_cut1_stereo_44KHz.wav
1	146	1	2	0	C	1	0	439	0	poli_8sides 2_whiteLine3.jpg	Medium_e13_stereo_44KHz.wav
1	147	4	3	2	I	1	0	865	1	poli_8sides 1_whiteLine3.jpg	MediumLong_e19_stereo_44KHz.wav
1	148	2	1	0	C	2	1	504	1	poli_8sides 5_whiteLine3.jpg	MediumLong_b10_cut2_L_stereo_44KHz.wav
1	149	4	4	2	I	2	0	458	0	poli_8sides 1_whiteLine3.jpg	Medium_e01_cut1_stereo_44KHz.wav
1	150	1	1	1	C	1	1	475	1	poli_8sides 2_whiteLine3.jpg	MediumLong_b10_cut2_L_stereo_44KHz.wav
1	151	2	2	1	C	2	0	440	0	poli_8sides 5_whiteLine3.jpg	Medium_e13_stereo_44KHz.wav
1	152	3	3	2	I	2	0	273	1	poli_8sides 12_whiteLine3.jpg	MediumLong_e19_stereo_44KHz.wav
1	153	4	4	2	I	2	0	398	1	poli_8sides 1_whiteLine3.jpg	Medium_e01_cut1_stereo_44KHz.wav
1	154	2	2	1	C	2	0	351	0	poli_8sides 5_whiteLine3.jpg	Medium_e13_stereo_44KHz.wav
1	155	1	2	0	C	2	1	413	1	poli_8sides 2_whiteLine3.jpg	Medium_e13_stereo_44KHz.wav
1	156	3	3	2	I	2	0	468	0	poli_8sides 12_whiteLine3.jpg	MediumLong_e19_stereo_44KHz.wav
1	157	4	3	2	I	2	0	351	1	poli_8sides 1_whiteLine3.jpg	MediumLong_e19_stereo_44KHz.wav
1	158	2	1	0	C	2	1	390	1	poli_8sides 5_whiteLine3.jpg	MediumLong_b10_cut2_L_stereo_44KHz.wav
1	159	3	4	2	I	2	0	499	0	poli_8sides 12_whiteLine3.jpg	Medium_e01_cut1_stereo_44KHz.wav
1	160	1	1	1	C	2	0	519	0	poli_8sides 2_whiteLine3.jpg	MediumLong_b10_cut2_L_stereo_44KHz.wav
1	161	4	4	2	I	1	0	498	1	poli_8sides 1_whiteLine3.jpg	Medium_e01_cut1_stereo_44KHz.wav
1	162	3	3	2	I	1	0	458	0	poli_8sides 12_whiteLine3.jpg	MediumLong_e19_stereo_44KHz.wav
1	163	2	2	1	C	2	0	458	0	poli_8sides 5_whiteLine3.jpg	Medium_e13_stereo_44KHz.wav
1	164	1	2	0	C	2	1	514	1	poli_8sides 2_whiteLine3.jpg	Medium_e13_stereo_44KHz.wav
1	165	4	3	2	I	2	0	403	0	poli_8sides 1_whiteLine3.jpg	MediumLong_e19_stereo_44KHz.wav
1	166	1	1	1	C	1	1	610	1	poli_8sides 2_whiteLine3.jpg	MediumLong_b10_cut2_L_stereo_44KHz.wav
1	167	3	4	2	I	2	0	698	0	poli_8sides 12_whiteLine3.jpg	Medium_e01_cut1_stereo_44KHz.wav
1	168	2	1	0	C	2	1	421	1	poli_8sides 5_whiteLine3.jpg	MediumLong_b10_cut2_L_stereo_44KHz.wav
1	169	3	4	2	I	1	0	525	0	poli_8sides 12_whiteLine3.jpg	Medium_e01_cut1_stereo_44KHz.wav
1	170	2	2	1	C	2	0	639	0	poli_8sides 5_whiteLine3.jpg	Medium_e13_stereo_44KHz.wav
1	171	4	3	2	I	2	0	798	1	poli_8sides 1_whiteLine3.jpg	MediumLong_e19_stereo_44KHz.wav
1	172	1	2	0	C	2	1	410	1	poli_8sides 2_whiteLine3.jpg	Medium_e13_stereo_44KHz.wav
1	173	3	3	2	I	1	0	507	1	poli_8sides 12_whiteLine3.jpg	MediumLong_e19_stereo_44KHz.wav
1	174	4	4	2	I	2	0	1103	1	poli_8sides 1_whiteLine3.jpg	Medium_e01_cut1_stereo_44KHz.wav
1	175	2	1	0	C	2	1	448	1	poli_8sides 5_whiteLine3.jpg	MediumLong_b10_cut2_L_stereo_44KHz.wav
1	176	1	1	1	C	1	1	763	1	poli_8sides 2_whiteLine3.jpg	MediumLong_b10_cut2_L_stereo_44KHz.wav
1	177	3	4	2	I	2	0	856	0	poli_8sides 12_whiteLine3.jpg	Medium_e01_cut1_stereo_44KHz.wav
1	178	2	1	0	C	2	1	938	1	poli_8sides 5_whiteLine3.jpg	MediumLong_b10_cut2_L_stereo_44KHz.wav
1	179	4	4	2	I	2	0	508	0	poli_8sides 1_whiteLine3.jpg	Medium_e01_cut1_stereo_44KHz.wav
1	180	1	1	1	C	1	1	1120	1	poli_8sides 2_whiteLine3.jpg	MediumLong_b10_cut2_L_stereo_44KHz.wav
1	181	4	3	2	I	2	0	606	1	poli_8sides 1_whiteLine3.jpg	MediumLong_e19_stereo_44KHz.wav
1	182	2	2	1	C	2	0	735	0	poli_8sides 5_whiteLine3.jpg	Medium_e13_stereo_44KHz.wav
1	183	3	3	2	I	2	0	680	0	poli_8sides 12_whiteLine3.jpg	MediumLong_e19_stereo_44KHz.wav
1	184	1	2	0	C	2	1	518	1	poli_8sides 2_whiteLine3.jpg	Medium_e13_stereo_44KHz.wav
1	185	4	4	2	I	2	0	438	0	poli_8sides 1_whiteLine3.jpg	Medium_e01_cut1_stereo_44KHz.wav
1	186	2	1	0	C	2	1	314	1	poli_8sides 5_whiteLine3.jpg	MediumLong_b10_cut2_L_stereo_44KHz.wav
1	187	3	3	2	I	2	0	413	1	poli_8sides 12_whiteLine3.jpg	MediumLong_e19_stereo_44KHz.wav
1	188	1	2	0	C	2	1	746	1	poli_8sides 2_whiteLine3.jpg	Medium_e13_stereo_44KHz.wav
1	189	3	4	2	I	2	0	786	1	poli_8sides 12_whiteLine3.jpg	Medium_e01_cut1_stereo_44KHz.wav
1	190	2	2	1	C	2	0	574	0	poli_8sides 5_whiteLine3.jpg	Medium_e13_stereo_44KHz.wav
1	191	1	1	1	C	2	0	485	0	poli_8sides 2_whiteLine3.jpg	MediumLong_b10_cut2_L_stereo_44KHz.wav
1	192	4	3	2	I	2	0	388	0	poli_8sides 1_whiteLine3.jpg	MediumLong_e19_stereo_44KHz.wav
1	193	2	2	1	C	2	0	346	0	poli_8sides 5_whiteLine3.jpg	Medium_e13_stereo_44KHz.wav
1	194	1	1	1	C	2	0	582	0	poli_8sides 2_whiteLine3.jpg	MediumLong_b10_cut2_L_stereo_44KHz.wav
1	195	3	3	2	I	2	0	644	0	poli_8sides 12_whiteLine3.jpg	MediumLong_e19_stereo_44KHz.wav
1	196	4	4	2	I	2	0	477	0	poli_8sides 1_whiteLine3.jpg	Medium_e01_cut1_stereo_44KHz.wav
1	197	2	1	0	C	2	1	407	1	poli_8sides 5_whiteLine3.jpg	MediumLong_b10_cut2_L_stereo_44KHz.wav
1	198	4	3	2	I	2	0	381	0	poli_8sides 1_whiteLine3.jpg	MediumLong_e19_stereo_44KHz.wav
1	199	1	2	0	C	1	0	366	0	poli_8sides 2_whiteLine3.jpg	Medium_e13_stereo_44KHz.wav
1	200	3	4	2	I	1	0	451	0	poli_8sides 12_whiteLine3.jpg	Medium_e01_cut1_stereo_44KHz.wav
2	1	2	2	1	C	2	0	1303	0	poli_8sides 18_whiteLine3.jpg	Medium_e21_stereo_44KHz.wav
2	2	4	3	2	I	2	0	1044	1	poli_8sides 4_whiteLine3.jpg	Medium_e26_stereo_44KHz.wav
2	3	1	2	0	C	2	1	1311	1	poli_8sides 10_whiteLine3.jpg	Medium_e21_stereo_44KHz.wav
2	4	3	3	2	I	2	0	1251	0	poli_8sides 7_whiteLine3.jpg	Medium_e26_stereo_44KHz.wav
2	5	1	1	1	C	1	1	1090	1	poli_8sides 10_whiteLine3.jpg	MediumLong_e17_cut2_stereo_44KHz.wav
2	6	2	1	0	C	1	0	1370	0	poli_8sides 18_whiteLine3.jpg	MediumLong_e17_cut2_stereo_44KHz.wav
2	7	3	4	2	I	2	0	967	0	poli_8sides 7_whiteLine3.jpg	MediumLong_e04_stereo_44KHz.wav
2	8	4	4	2	I	2	0	993	1	poli_8sides 4_whiteLine3.jpg	MediumLong_e04_stereo_44KHz.wav
2	9	3	3	2	I	2	0	918	0	poli_8sides 7_whiteLine3.jpg	Medium_e26_stereo_44KHz.wav
2	10	1	2	0	C	2	1	728	1	poli_8sides 10_whiteLine3.jpg	Medium_e21_stereo_44KHz.wav
2	11	4	3	2	I	2	0	677	1	poli_8sides 4_whiteLine3.jpg	Medium_e26_stereo_44KHz.wav
2	12	2	2	1	C	2	0	885	0	poli_8sides 18_whiteLine3.jpg	Medium_e21_stereo_44KHz.wav
2	13	1	1	1	C	2	0	1031	0	poli_8sides 10_whiteLine3.jpg	MediumLong_e17_cut2_stereo_44KHz.wav
2	14	2	1	0	C	2	1	520	1	poli_8sides 18_whiteLine3.jpg	MediumLong_e17_cut2_stereo_44KHz.wav
2	15	3	4	2	I	2	0	570	1	poli_8sides 7_whiteLine3.jpg	MediumLong_e04_stereo_44KHz.wav
2	16	4	4	2	I	2	0	626	1	poli_8sides 4_whiteLine3.jpg	MediumLong_e04_stereo_44KHz.wav
2	17	3	4	2	I	2	0	833	1	poli_8sides 7_whiteLine3.jpg	MediumLong_e04_stereo_44KHz.wav
2	18	1	2	0	C	1	0	549	0	poli_8sides 10_whiteLine3.jpg	Medium_e21_stereo_44KHz.wav
2	19	4	3	2	I	2	0	632	0	poli_8sides 4_whiteLine3.jpg	Medium_e26_stereo_44KHz.wav
2	20	2	2	1	C	2	0	480	0	poli_8sides 18_whiteLine3.jpg	Medium_e21_stereo_44KHz.wav
2	21	3	3	2	I	2	0	793	0	poli_8sides 7_whiteLine3.jpg	Medium_e26_stereo_44KHz.wav
2	22	1	1	1	C	2	0	517	0	poli_8sides 10_whiteLine3.jpg	MediumLong_e17_cut2_stereo_44KHz.wav
2	23	4	4	2	I	2	0	638	1	poli_8sides 4_whiteLine3.jpg	MediumLong_e04_stereo_44KHz.wav
2	24	2	1	0	C	2	1	674	1	poli_8sides 18_whiteLine3.jpg	MediumLong_e17_cut2_stereo_44KHz.wav
2	25	3	3	2	I	2	0	1392	0	poli_8sides 7_whiteLine3.jpg	Medium_e26_stereo_44KHz.wav
2	26	1	2	0	C	2	1	474	1	poli_8sides 10_whiteLine3.jpg	Medium_e21_stereo_44KHz.wav
2	27	2	2	1	C	2	0	672	0	poli_8sides 18_whiteLine3.jpg	Medium_e21_stereo_44KHz.wav
2	28	4	3	2	I	2	0	380	0	poli_8sides 4_whiteLine3.jpg	Medium_e26_stereo_44KHz.wav
2	29	3	4	2	I	2	0	431	1	poli_8sides 7_whiteLine3.jpg	MediumLong_e04_stereo_44KHz.wav
2	30	4	4	2	I	2	0	445	0	poli_8sides 4_whiteLine3.jpg	MediumLong_e04_stereo_44KHz.wav
2	31	2	1	0	C	2	1	482	1	poli_8sides 18_whiteLine3.jpg	MediumLong_e17_cut2_stereo_44KHz.wav
2	32	1	1	1	C	2	0	482	0	poli_8sides 10_whiteLine3.jpg	MediumLong_e17_cut2_stereo_44KHz.wav
2	33	2	1	0	C	2	1	550	1	poli_8sides 18_whiteLine3.jpg	MediumLong_e17_cut2_stereo_44KHz.wav
2	34	3	3	2	I	2	0	678	1	poli_8sides 7_whiteLine3.jpg	Medium_e26_stereo_44KHz.wav
2	35	4	3	2	I	2	0	1114	0	poli_8sides 4_whiteLine3.jpg	Medium_e26_stereo_44KHz.wav
2	36	1	2	0	C	2	1	666	1	poli_8sides 10_whiteLine3.jpg	Medium_e21_stereo_44KHz.wav
2	37	2	2	1	C	2	0	571	0	poli_8sides 18_whiteLine3.jpg	Medium_e21_stereo_44KHz.wav
2	38	4	4	2	I	1	0	579	1	poli_8sides 4_whiteLine3.jpg	MediumLong_e04_stereo_44KHz.wav
2	39	3	4	2	I	0	0	0	0	poli_8sides 7_whiteLine3.jpg	MediumLong_e04_stereo_44KHz.wav
2	40	1	1	1	C	2	0	982	0	poli_8sides 10_whiteLine3.jpg	MediumLong_e17_cut2_stereo_44KHz.wav
2	41	2	1	0	C	2	1	572	1	poli_8sides 18_whiteLine3.jpg	MediumLong_e17_cut2_stereo_44KHz.wav
2	42	1	2	0	C	2	1	788	1	poli_8sides 10_whiteLine3.jpg	Medium_e21_stereo_44KHz.wav
2	43	4	4	2	I	1	0	581	1	poli_8sides 4_whiteLine3.jpg	MediumLong_e04_stereo_44KHz.wav
2	44	3	3	2	I	2	0	898	1	poli_8sides 7_whiteLine3.jpg	Medium_e26_stereo_44KHz.wav
2	45	4	3	2	I	2	0	554	0	poli_8sides 4_whiteLine3.jpg	Medium_e26_stereo_44KHz.wav
2	46	3	4	2	I	2	0	641	1	poli_8sides 7_whiteLine3.jpg	MediumLong_e04_stereo_44KHz.wav
2	47	1	1	1	C	2	0	897	0	poli_8sides 10_whiteLine3.jpg	MediumLong_e17_cut2_stereo_44KHz.wav
2	48	2	2	1	C	2	0	506	0	poli_8sides 18_whiteLine3.jpg	Medium_e21_stereo_44KHz.wav
2	49	4	4	2	I	2	0	618	0	poli_8sides 4_whiteLine3.jpg	MediumLong_e04_stereo_44KHz.wav
2	50	3	4	2	I	2	0	609	0	poli_8sides 7_whiteLine3.jpg	MediumLong_e04_stereo_44KHz.wav
2	51	1	1	1	C	1	1	676	1	poli_8sides 10_whiteLine3.jpg	MediumLong_e17_cut2_stereo_44KHz.wav
2	52	2	1	0	C	2	1	916	1	poli_8sides 18_whiteLine3.jpg	MediumLong_e17_cut2_stereo_44KHz.wav
2	53	1	2	0	C	2	1	723	1	poli_8sides 10_whiteLine3.jpg	Medium_e21_stereo_44KHz.wav
2	54	3	3	2	I	2	0	637	1	poli_8sides 7_whiteLine3.jpg	Medium_e26_stereo_44KHz.wav
2	55	4	3	2	I	2	0	431	0	poli_8sides 4_whiteLine3.jpg	Medium_e26_stereo_44KHz.wav
2	56	2	2	1	C	2	0	823	0	poli_8sides 18_whiteLine3.jpg	Medium_e21_stereo_44KHz.wav
2	57	4	4	2	I	2	0	577	1	poli_8sides 4_whiteLine3.jpg	MediumLong_e04_stereo_44KHz.wav
2	58	3	4	2	I	2	0	627	1	poli_8sides 7_whiteLine3.jpg	MediumLong_e04_stereo_44KHz.wav
2	59	2	2	1	C	2	0	819	0	poli_8sides 18_whiteLine3.jpg	Medium_e21_stereo_44KHz.wav
2	60	1	2	0	C	2	1	430	1	poli_8sides 10_whiteLine3.jpg	Medium_e21_stereo_44KHz.wav
2	61	3	3	2	I	2	0	464	0	poli_8sides 7_whiteLine3.jpg	Medium_e26_stereo_44KHz.wav
2	62	2	1	0	C	2	1	666	1	poli_8sides 18_whiteLine3.jpg	MediumLong_e17_cut2_stereo_44KHz.wav
2	63	1	1	1	C	2	0	463	0	poli_8sides 10_whiteLine3.jpg	MediumLong_e17_cut2_stereo_44KHz.wav
2	64	4	3	2	I	2	0	361	0	poli_8sides 4_whiteLine3.jpg	Medium_e26_stereo_44KHz.wav
2	65	3	4	2	I	2	0	381	0	poli_8sides 7_whiteLine3.jpg	MediumLong_e04_stereo_44KHz.wav
2	66	2	1	0	C	1	0	340	0	poli_8sides 18_whiteLine3.jpg	MediumLong_e17_cut2_stereo_44KHz.wav
2	67	1	1	1	C	2	0	433	0	poli_8sides 10_whiteLine3.jpg	MediumLong_e17_cut2_stereo_44KHz.wav
2	68	4	4	2	I	2	0	609	1	poli_8sides 4_whiteLine3.jpg	MediumLong_e04_stereo_44KHz.wav
2	69	1	2	0	C	2	1	387	1	poli_8sides 10_whiteLine3.jpg	Medium_e21_stereo_44KHz.wav
2	70	2	2	1	C	2	0	722	0	poli_8sides 18_whiteLine3.jpg	Medium_e21_stereo_44KHz.wav
2	71	3	3	2	I	1	0	385	0	poli_8sides 7_whiteLine3.jpg	Medium_e26_stereo_44KHz.wav
2	72	4	3	2	I	2	0	779	0	poli_8sides 4_whiteLine3.jpg	Medium_e26_stereo_44KHz.wav
2	73	3	4	2	I	2	0	457	1	poli_8sides 7_whiteLine3.jpg	MediumLong_e04_stereo_44KHz.wav
2	74	4	3	2	I	2	0	618	0	poli_8sides 4_whiteLine3.jpg	Medium_e26_stereo_44KHz.wav
2	75	2	1	0	C	2	1	501	1	poli_8sides 18_whiteLine3.jpg	MediumLong_e17_cut2_stereo_44KHz.wav
2	76	1	2	0	C	2	1	939	1	poli_8sides 10_whiteLine3.jpg	Medium_e21_stereo_44KHz.wav
2	77	3	3	2	I	2	0	1157	0	poli_8sides 7_whiteLine3.jpg	Medium_e26_stereo_44KHz.wav
2	78	1	1	1	C	2	0	970	0	poli_8sides 10_whiteLine3.jpg	MediumLong_e17_cut2_stereo_44KHz.wav
2	79	2	2	1	C	1	1	545	1	poli_8sides 18_whiteLine3.jpg	Medium_e21_stereo_44KHz.wav
2	80	4	4	2	I	2	0	594	1	poli_8sides 4_whiteLine3.jpg	MediumLong_e04_stereo_44KHz.wav
2	81	2	2	1	C	2	0	715	0	poli_8sides 18_whiteLine3.jpg	Medium_e21_stereo_44KHz.wav
2	82	1	2	0	C	2	1	415	1	poli_8sides 10_whiteLine3.jpg	Medium_e21_stereo_44KHz.wav
2	83	3	4	2	I	2	0	725	1	poli_8sides 7_whiteLine3.jpg	MediumLong_e04_stereo_44KHz.wav
2	84	4	3	2	I	2	0	542	0	poli_8sides 4_whiteLine3.jpg	Medium_e26_stereo_44KHz.wav
2	85	3	3	2	I	2	0	639	1	poli_8sides 7_whiteLine3.jpg	Medium_e26_stereo_44KHz.wav
2	86	2	1	0	C	0	0	0	0	poli_8sides 18_whiteLine3.jpg	MediumLong_e17_cut2_stereo_44KHz.wav
2	87	1	1	1	C	2	0	395	0	poli_8sides 10_whiteLine3.jpg	MediumLong_e17_cut2_stereo_44KHz.wav
2	88	4	4	2	I	2	0	274	0	poli_8sides 4_whiteLine3.jpg	MediumLong_e04_stereo_44KHz.wav
2	89	2	2	1	C	2	0	1191	0	poli_8sides 18_whiteLine3.jpg	Medium_e21_stereo_44KHz.wav
2	90	4	4	2	I	2	0	755	1	poli_8sides 4_whiteLine3.jpg	MediumLong_e04_stereo_44KHz.wav
2	91	1	2	0	C	2	1	771	1	poli_8sides 10_whiteLine3.jpg	Medium_e21_stereo_44KHz.wav
2	92	3	4	2	I	2	0	403	1	poli_8sides 7_whiteLine3.jpg	MediumLong_e04_stereo_44KHz.wav
2	93	4	3	2	I	1	0	1135	1	poli_8sides 4_whiteLine3.jpg	Medium_e26_stereo_44KHz.wav
2	94	1	1	1	C	2	0	1181	0	poli_8sides 10_whiteLine3.jpg	MediumLong_e17_cut2_stereo_44KHz.wav
2	95	2	1	0	C	2	1	560	1	poli_8sides 18_whiteLine3.jpg	MediumLong_e17_cut2_stereo_44KHz.wav
2	96	3	3	2	I	2	0	599	0	poli_8sides 7_whiteLine3.jpg	Medium_e26_stereo_44KHz.wav
2	97	2	1	0	C	2	1	761	1	poli_8sides 18_whiteLine3.jpg	MediumLong_e17_cut2_stereo_44KHz.wav
2	98	1	1	1	C	2	0	946	0	poli_8sides 10_whiteLine3.jpg	MediumLong_e17_cut2_stereo_44KHz.wav
2	99	4	3	2	I	2	0	764	0	poli_8sides 4_whiteLine3.jpg	Medium_e26_stereo_44KHz.wav
2	100	3	3	2	I	2	0	698	1	poli_8sides 7_whiteLine3.jpg	Medium_e26_stereo_44KHz.wav
2	101	1	2	0	C	2	1	362	1	poli_8sides 10_whiteLine3.jpg	Medium_e21_stereo_44KHz.wav
2	102	4	4	2	I	2	0	406	0	poli_8sides 4_whiteLine3.jpg	MediumLong_e04_stereo_44KHz.wav
2	103	2	2	1	C	2	0	628	0	poli_8sides 18_whiteLine3.jpg	Medium_e21_stereo_44KHz.wav
2	104	3	4	2	I	2	0	428	0	poli_8sides 7_whiteLine3.jpg	MediumLong_e04_stereo_44KHz.wav
2	105	1	1	1	C	2	0	481	0	poli_8sides 10_whiteLine3.jpg	MediumLong_e17_cut2_stereo_44KHz.wav
2	106	3	4	2	I	2	0	426	0	poli_8sides 7_whiteLine3.jpg	MediumLong_e04_stereo_44KHz.wav
2	107	2	2	1	C	2	0	542	0	poli_8sides 18_whiteLine3.jpg	Medium_e21_stereo_44KHz.wav
2	108	4	3	2	I	2	0	483	1	poli_8sides 4_whiteLine3.jpg	Medium_e26_stereo_44KHz.wav
2	109	1	2	0	C	2	1	459	1	poli_8sides 10_whiteLine3.jpg	Medium_e21_stereo_44KHz.wav
2	110	4	4	2	I	2	0	436	0	poli_8sides 4_whiteLine3.jpg	MediumLong_e04_stereo_44KHz.wav
2	111	3	3	2	I	2	0	432	1	poli_8sides 7_whiteLine3.jpg	Medium_e26_stereo_44KHz.wav
2	112	2	1	0	C	2	1	429	1	poli_8sides 18_whiteLine3.jpg	MediumLong_e17_cut2_stereo_44KHz.wav
2	113	3	4	2	I	2	0	494	1	poli_8sides 7_whiteLine3.jpg	MediumLong_e04_stereo_44KHz.wav
2	114	1	2	0	C	2	1	487	1	poli_8sides 10_whiteLine3.jpg	Medium_e21_stereo_44KHz.wav
2	115	2	1	0	C	2	1	627	1	poli_8sides 18_whiteLine3.jpg	MediumLong_e17_cut2_stereo_44KHz.wav
2	116	4	3	2	I	1	0	468	1	poli_8sides 4_whiteLine3.jpg	Medium_e26_stereo_44KHz.wav
2	117	2	2	1	C	2	0	406	0	poli_8sides 18_whiteLine3.jpg	Medium_e21_stereo_44KHz.wav
2	118	1	1	1	C	2	0	361	0	poli_8sides 10_whiteLine3.jpg	MediumLong_e17_cut2_stereo_44KHz.wav
2	119	3	3	2	I	1	0	474	1	poli_8sides 7_whiteLine3.jpg	Medium_e26_stereo_44KHz.wav
2	120	4	4	2	I	2	0	408	1	poli_8sides 4_whiteLine3.jpg	MediumLong_e04_stereo_44KHz.wav
2	121	2	2	1	C	2	0	478	0	poli_8sides 18_whiteLine3.jpg	Medium_e21_stereo_44KHz.wav
2	122	3	4	2	I	2	0	584	1	poli_8sides 7_whiteLine3.jpg	MediumLong_e04_stereo_44KHz.wav
2	123	4	4	2	I	2	0	436	0	poli_8sides 4_whiteLine3.jpg	MediumLong_e04_stereo_44KHz.wav
2	124	1	2	0	C	1	0	445	0	poli_8sides 10_whiteLine3.jpg	Medium_e21_stereo_44KHz.wav
2	125	4	3	2	I	2	0	374	0	poli_8sides 4_whiteLine3.jpg	Medium_e26_stereo_44KHz.wav
2	126	1	1	1	C	2	0	372	0	poli_8sides 10_whiteLine3.jpg	MediumLong_e17_cut2_stereo_44KHz.wav
2	127	3	3	2	I	2	0	425	0	poli_8sides 7_whiteLine3.jpg	Medium_e26_stereo_44KHz.wav
2	128	2	1	0	C	2	1	427	1	poli_8sides 18_whiteLine3.jpg	MediumLong_e17_cut2_stereo_44KHz.wav
2	129	1	2	0	C	2	1	374	1	poli_8sides 10_whiteLine3.jpg	Medium_e21_stereo_44KHz.wav
2	130	3	3	2	I	2	0	400	0	poli_8sides 7_whiteLine3.jpg	Medium_e26_stereo_44KHz.wav
2	131	2	2	1	C	2	0	342	0	poli_8sides 18_whiteLine3.jpg	Medium_e21_stereo_44KHz.wav
2	132	4	3	2	I	1	0	424	1	poli_8sides 4_whiteLine3.jpg	Medium_e26_stereo_44KHz.wav
2	133	1	1	1	C	2	0	816	0	poli_8sides 10_whiteLine3.jpg	MediumLong_e17_cut2_stereo_44KHz.wav
2	134	2	1	0	C	2	1	652	1	poli_8sides 18_whiteLine3.jpg	MediumLong_e17_cut2_stereo_44KHz.wav
2	135	4	4	2	I	2	0	418	0	poli_8sides 4_whiteLine3.jpg	MediumLong_e04_stereo_44KHz.wav
2	136	3	4	2	I	2	0	571	1	poli_8sides 7_whiteLine3.jpg	MediumLong_e04_stereo_44KHz.wav
2	137	1	2	0	C	2	1	324	1	poli_8sides 10_whiteLine3.jpg	Medium_e21_stereo_44KHz.wav
2	138	2	1	0	C	2	1	441	1	poli_8sides 18_whiteLine3.jpg	MediumLong_e17_cut2_stereo_44KHz.wav
2	139	3	3	2	I	2	0	322	1	poli_8sides 7_whiteLine3.jpg	Medium_e26_stereo_44KHz.wav
2	140	4	3	2	I	2	0	421	1	poli_8sides 4_whiteLine3.jpg	Medium_e26_stereo_44KHz.wav
2	141	1	1	1	C	2	0	283	0	poli_8sides 10_whiteLine3.jpg	MediumLong_e17_cut2_stereo_44KHz.wav
2	142	3	4	2	I	1	0	451	0	poli_8sides 7_whiteLine3.jpg	MediumLong_e04_stereo_44KHz.wav
2	143	2	2	1	C	2	0	402	0	poli_8sides 18_whiteLine3.jpg	Medium_e21_stereo_44KHz.wav
2	144	4	4	2	I	2	0	356	1	poli_8sides 4_whiteLine3.jpg	MediumLong_e04_stereo_44KHz.wav
2	145	3	4	2	I	2	0	415	0	poli_8sides 7_whiteLine3.jpg	MediumLong_e04_stereo_44KHz.wav
2	146	4	4	2	I	1	0	480	0	poli_8sides 4_whiteLine3.jpg	MediumLong_e04_stereo_44KHz.wav
2	147	1	2	0	C	2	1	428	1	poli_8sides 10_whiteLine3.jpg	Medium_e21_stereo_44KHz.wav
2	148	2	1	0	C	1	0	633	0	poli_8sides 18_whiteLine3.jpg	MediumLong_e17_cut2_stereo_44KHz.wav
2	149	4	3	2	I	2	0	436	1	poli_8sides 4_whiteLine3.jpg	Medium_e26_stereo_44KHz.wav
2	150	1	1	1	C	2	0	380	0	poli_8sides 10_whiteLine3.jpg	MediumLong_e17_cut2_stereo_44KHz.wav
2	151	3	3	2	I	2	0	320	0	poli_8sides 7_whiteLine3.jpg	Medium_e26_stereo_44KHz.wav
2	152	2	2	1	C	1	1	462	1	poli_8sides 18_whiteLine3.jpg	Medium_e21_stereo_44KHz.wav
2	153	4	4	2	I	1	0	461	1	poli_8sides 4_whiteLine3.jpg	MediumLong_e04_stereo_44KHz.wav
2	154	1	1	1	C	2	0	192	0	poli_8sides 10_whiteLine3.jpg	MediumLong_e17_cut2_stereo_44KHz.wav
2	155	2	2	1	C	2	0	611	0	poli_8sides 18_whiteLine3.jpg	Medium_e21_stereo_44KHz.wav
2	156	3	3	2	I	2	0	457	0	poli_8sides 7_whiteLine3.jpg	Medium_e26_stereo_44KHz.wav
2	157	2	1	0	C	2	1	453	1	poli_8sides 18_whiteLine3.jpg	MediumLong_e17_cut2_stereo_44KHz.wav
2	158	4	3	2	I	2	0	565	0	poli_8sides 4_whiteLine3.jpg	Medium_e26_stereo_44KHz.wav
2	159	3	4	2	I	1	0	810	0	poli_8sides 7_whiteLine3.jpg	MediumLong_e04_stereo_44KHz.wav
2	160	1	2	0	C	2	1	438	1	poli_8sides 10_whiteLine3.jpg	Medium_e21_stereo_44KHz.wav
2	161	4	4	2	I	2	0	320	0	poli_8sides 4_whiteLine3.jpg	MediumLong_e04_stereo_44KHz.wav
2	162	2	1	0	C	1	0	697	0	poli_8sides 18_whiteLine3.jpg	MediumLong_e17_cut2_stereo_44KHz.wav
2	163	3	3	2	I	2	0	362	1	poli_8sides 7_whiteLine3.jpg	Medium_e26_stereo_44KHz.wav
2	164	1	2	0	C	2	1	473	1	poli_8sides 10_whiteLine3.jpg	Medium_e21_stereo_44KHz.wav
2	165	2	2	1	C	2	0	432	0	poli_8sides 18_whiteLine3.jpg	Medium_e21_stereo_44KHz.wav
2	166	4	3	2	I	1	0	480	0	poli_8sides 4_whiteLine3.jpg	Medium_e26_stereo_44KHz.wav
2	167	1	1	1	C	1	1	633	1	poli_8sides 10_whiteLine3.jpg	MediumLong_e17_cut2_stereo_44KHz.wav
2	168	3	4	2	I	2	0	613	1	poli_8sides 7_whiteLine3.jpg	MediumLong_e04_stereo_44KHz.wav
2	169	4	4	2	I	2	0	1875	0	poli_8sides 4_whiteLine3.jpg	MediumLong_e04_stereo_44KHz.wav
2	170	1	2	0	C	1	0	422	0	poli_8sides 10_whiteLine3.jpg	Medium_e21_stereo_44KHz.wav
2	171	2	1	0	C	2	1	449	1	poli_8sides 18_whiteLine3.jpg	MediumLong_e17_cut2_stereo_44KHz.wav
2	172	3	3	2	I	2	0	705	0	poli_8sides 7_whiteLine3.jpg	Medium_e26_stereo_44KHz.wav
2	173	1	1	1	C	2	0	586	0	poli_8sides 10_whiteLine3.jpg	MediumLong_e17_cut2_stereo_44KHz.wav
2	174	3	4	2	I	1	0	243	0	poli_8sides 7_whiteLine3.jpg	MediumLong_e04_stereo_44KHz.wav
2	175	4	3	2	I	2	0	1372	1	poli_8sides 4_whiteLine3.jpg	Medium_e26_stereo_44KHz.wav
2	176	2	2	1	C	2	0	634	0	poli_8sides 18_whiteLine3.jpg	Medium_e21_stereo_44KHz.wav
2	177	3	3	2	I	1	0	812	1	poli_8sides 7_whiteLine3.jpg	Medium_e26_stereo_44KHz.wav
2	178	2	1	0	C	0	0	0	0	poli_8sides 18_whiteLine3.jpg	MediumLong_e17_cut2_stereo_44KHz.wav
2	179	1	1	1	C	2	0	1938	0	poli_8sides 10_whiteLine3.jpg	MediumLong_e17_cut2_stereo_44KHz.wav
2	180	4	4	2	I	2	0	318	1	poli_8sides 4_whiteLine3.jpg	MediumLong_e04_stereo_44KHz.wav
2	181	2	2	1	C	2	0	97	0	poli_8sides 18_whiteLine3.jpg	Medium_e21_stereo_44KHz.wav
2	182	4	3	2	I	2	0	574	0	poli_8sides 4_whiteLine3.jpg	Medium_e26_stereo_44KHz.wav
2	183	3	4	2	I	2	0	586	1	poli_8sides 7_whiteLine3.jpg	MediumLong_e04_stereo_44KHz.wav
2	184	1	2	0	C	1	0	568	0	poli_8sides 10_whiteLine3.jpg	Medium_e21_stereo_44KHz.wav
2	185	4	3	2	I	1	0	542	1	poli_8sides 4_whiteLine3.jpg	Medium_e26_stereo_44KHz.wav
2	186	1	1	1	C	2	0	849	0	poli_8sides 10_whiteLine3.jpg	MediumLong_e17_cut2_stereo_44KHz.wav
2	187	3	3	2	I	1	0	380	0	poli_8sides 7_whiteLine3.jpg	Medium_e26_stereo_44KHz.wav
2	188	2	2	1	C	2	0	477	0	poli_8sides 18_whiteLine3.jpg	Medium_e21_stereo_44KHz.wav
2	189	3	4	2	I	2	0	567	0	poli_8sides 7_whiteLine3.jpg	MediumLong_e04_stereo_44KHz.wav
2	190	4	4	2	I	2	0	620	1	poli_8sides 4_whiteLine3.jpg	MediumLong_e04_stereo_44KHz.wav
2	191	1	2	0	C	2	1	501	1	poli_8sides 10_whiteLine3.jpg	Medium_e21_stereo_44KHz.wav
2	192	2	1	0	C	2	1	652	1	poli_8sides 18_whiteLine3.jpg	MediumLong_e17_cut2_stereo_44KHz.wav
2	193	1	1	1	C	1	1	479	1	poli_8sides 10_whiteLine3.jpg	MediumLong_e17_cut2_stereo_44KHz.wav
2	194	4	3	2	I	2	0	470	0	poli_8sides 4_whiteLine3.jpg	Medium_e26_stereo_44KHz.wav
2	195	3	4	2	I	2	0	516	1	poli_8sides 7_whiteLine3.jpg	MediumLong_e04_stereo_44KHz.wav
2	196	2	2	1	C	2	0	520	0	poli_8sides 18_whiteLine3.jpg	Medium_e21_stereo_44KHz.wav
2	197	1	2	0	C	2	1	537	1	poli_8sides 10_whiteLine3.jpg	Medium_e21_stereo_44KHz.wav
2	198	4	4	2	I	2	0	605	1	poli_8sides 4_whiteLine3.jpg	MediumLong_e04_stereo_44KHz.wav
2	199	2	1	0	C	2	1	602	1	poli_8sides 18_whiteLine3.jpg	MediumLong_e17_cut2_stereo_44KHz.wav
2	200	3	3	2	I	2	0	495	0	poli_8sides 7_whiteLine3.jpg	Medium_e26_stereo_44KHz.wav
3	1	3	4	2	I	2	0	826	0	poli_8sides 15_whiteLine3.jpg	Short_b20_cut1_stereo_44KHz.wav
3	2	1	2	0	C	2	1	368	1	poli_8sides 16_whiteLine3.jpg	Short_b09_cut1_stereo_44KHz.wav
3	3	2	2	1	C	2	0	413	0	poli_8sides 6_whiteLine3.jpg	Short_b09_cut1_stereo_44KHz.wav
3	4	4	3	2	I	2	0	443	1	poli_8sides 3_whiteLine3.jpg	Short_b22_cut1_stereo_44KHz.wav
3	5	1	1	1	C	2	0	292	0	poli_8sides 16_whiteLine3.jpg	Short_b23_cut1_stereo_44KHz.wav
3	6	4	4	2	I	2	0	538	1	poli_8sides 3_whiteLine3.jpg	Short_b20_cut1_stereo_44KHz.wav
3	7	2	1	0	C	2	1	612	1	poli_8sides 6_whiteLine3.jpg	Short_b23_cut1_stereo_44KHz.wav
3	8	3	3	2	I	2	0	714	0	poli_8sides 15_whiteLine3.jpg	Short_b22_cut1_stereo_44KHz.wav
3	9	4	4	2	I	1	0	381	0	poli_8sides 3_whiteLine3.jpg	Short_b20_cut1_stereo_44KHz.wav
3	10	2	1	0	C	2	1	504	1	poli_8sides 6_whiteLine3.jpg	Short_b23_cut1_stereo_44KHz.wav
3	11	1	1	1	C	2	0	445	0	poli_8sides 16_whiteLine3.jpg	Short_b23_cut1_stereo_44KHz.wav
3	12	3	4	2	I	2	0	382	1	poli_8sides 15_whiteLine3.jpg	Short_b20_cut1_stereo_44KHz.wav
3	13	1	2	0	C	2	1	443	1	poli_8sides 16_whiteLine3.jpg	Short_b09_cut1_stereo_44KHz.wav
3	14	3	3	2	I	1	0	477	0	poli_8sides 15_whiteLine3.jpg	Short_b22_cut1_stereo_44KHz.wav
3	15	4	3	2	I	2	0	662	1	poli_8sides 3_whiteLine3.jpg	Short_b22_cut1_stereo_44KHz.wav
3	16	2	2	1	C	2	0	550	0	poli_8sides 6_whiteLine3.jpg	Short_b09_cut1_stereo_44KHz.wav
3	17	3	3	2	I	1	0	573	1	poli_8sides 15_whiteLine3.jpg	Short_b22_cut1_stereo_44KHz.wav
3	18	1	2	0	C	2	1	465	1	poli_8sides 16_whiteLine3.jpg	Short_b09_cut1_stereo_44KHz.wav
3	19	2	1	0	C	2	1	848	1	poli_8sides 6_whiteLine3.jpg	Short_b23_cut1_stereo_44KHz.wav
3	20	4	4	2	I	1	0	739	0	poli_8sides 3_whiteLine3.jpg	Short_b20_cut1_stereo_44KHz.wav
3	21	3	4	2	I	2	0	550	0	poli_8sides 15_whiteLine3.jpg	Short_b20_cut1_stereo_44KHz.wav
3	22	2	2	1	C	2	0	598	0	poli_8sides 6_whiteLine3.jpg	Short_b09_cut1_stereo_44KHz.wav
3	23	1	1	1	C	2	0	360	0	poli_8sides 16_whiteLine3.jpg	Short_b23_cut1_stereo_44KHz.wav
3	24	4	3	2	I	2	0	527	0	poli_8sides 3_whiteLine3.jpg	Short_b22_cut1_stereo_44KHz.wav
3	25	3	4	2	I	2	0	577	1	poli_8sides 15_whiteLine3.jpg	Short_b20_cut1_stereo_44KHz.wav
3	26	2	2	1	C	2	0	383	0	poli_8sides 6_whiteLine3.jpg	Short_b09_cut1_stereo_44KHz.wav
3	27	4	4	2	I	2	0	442	0	poli_8sides 3_whiteLine3.jpg	Short_b20_cut1_stereo_44KHz.wav
3	28	1	1	1	C	2	0	510	0	poli_8sides 16_whiteLine3.jpg	Short_b23_cut1_stereo_44KHz.wav
3	29	4	3	2	I	2	0	488	0	poli_8sides 3_whiteLine3.jpg	Short_b22_cut1_stereo_44KHz.wav
3	30	1	2	0	C	2	1	595	1	poli_8sides 16_whiteLine3.jpg	Short_b09_cut1_stereo_44KHz.wav
3	31	3	3	2	I	2	0	704	1	poli_8sides 15_whiteLine3.jpg	Short_b22_cut1_stereo_44KHz.wav
3	32	2	1	0	C	2	1	407	1	poli_8sides 6_whiteLine3.jpg	Short_b23_cut1_stereo_44KHz.wav
3	33	4	3	2	I	1	0	582	1	poli_8sides 3_whiteLine3.jpg	Short_b22_cut1_stereo_44KHz.wav
3	34	1	1	1	C	1	1	906	1	poli_8sides 16_whiteLine3.jpg	Short_b23_cut1_stereo_44KHz.wav
3	35	3	4	2	I	2	0	738	0	poli_8sides 15_whiteLine3.jpg	Short_b20_cut1_stereo_44KHz.wav
3	36	2	2	1	C	2	0	1443	0	poli_8sides 6_whiteLine3.jpg	Short_b09_cut1_stereo_44KHz.wav
3	37	3	3	2	I	2	0	694	0	poli_8sides 15_whiteLine3.jpg	Short_b22_cut1_stereo_44KHz.wav
3	38	4	4	2	I	2	0	477	0	poli_8sides 3_whiteLine3.jpg	Short_b20_cut1_stereo_44KHz.wav
3	39	1	2	0	C	2	1	760	1	poli_8sides 16_whiteLine3.jpg	Short_b09_cut1_stereo_44KHz.wav
3	40	2	1	0	C	2	1	480	1	poli_8sides 6_whiteLine3.jpg	Short_b23_cut1_stereo_44KHz.wav
3	41	3	3	2	I	1	0	575	0	poli_8sides 15_whiteLine3.jpg	Short_b22_cut1_stereo_44KHz.wav
3	42	2	2	1	C	1	1	1126	1	poli_8sides 6_whiteLine3.jpg	Short_b09_cut1_stereo_44KHz.wav
3	43	1	2	0	C	2	1	711	1	poli_8sides 16_whiteLine3.jpg	Short_b09_cut1_stereo_44KHz.wav
3	44	4	3	2	I	2	0	883	0	poli_8sides 3_whiteLine3.jpg	Short_b22_cut1_stereo_44KHz.wav
3	45	3	4	2	I	1	0	827	0	poli_8sides 15_whiteLine3.jpg	Short_b20_cut1_stereo_44KHz.wav
3	46	4	4	2	I	2	0	829	0	poli_8sides 3_whiteLine3.jpg	Short_b20_cut1_stereo_44KHz.wav
3	47	2	1	0	C	2	1	674	1	poli_8sides 6_whiteLine3.jpg	Short_b23_cut1_stereo_44KHz.wav
3	48	1	1	1	C	2	0	705	0	poli_8sides 16_whiteLine3.jpg	Short_b23_cut1_stereo_44KHz.wav
3	49	4	3	2	I	1	0	1205	0	poli_8sides 3_whiteLine3.jpg	Short_b22_cut1_stereo_44KHz.wav
3	50	3	4	2	I	2	0	915	1	poli_8sides 15_whiteLine3.jpg	Short_b20_cut1_stereo_44KHz.wav
3	51	1	2	0	C	2	1	615	1	poli_8sides 16_whiteLine3.jpg	Short_b09_cut1_stereo_44KHz.wav
3	52	2	2	1	C	2	0	523	0	poli_8sides 6_whiteLine3.jpg	Short_b09_cut1_stereo_44KHz.wav
3	53	3	3	2	I	1	0	855	0	poli_8sides 15_whiteLine3.jpg	Short_b22_cut1_stereo_44KHz.wav
3	54	4	4	2	I	0	0	0	0	poli_8sides 3_whiteLine3.jpg	Short_b20_cut1_stereo_44KHz.wav
3	55	2	1	0	C	2	1	504	1	poli_8sides 6_whiteLine3.jpg	Short_b23_cut1_stereo_44KHz.wav
3	56	1	1	1	C	2	0	441	0	poli_8sides 16_whiteLine3.jpg	Short_b23_cut1_stereo_44KHz.wav
3	57	4	4	2	I	1	0	270	0	poli_8sides 3_whiteLine3.jpg	Short_b20_cut1_stereo_44KHz.wav
3	58	1	2	0	C	2	1	609	1	poli_8sides 16_whiteLine3.jpg	Short_b09_cut1_stereo_44KHz.wav
3	59	3	4	2	I	2	0	811	0	poli_8sides 15_whiteLine3.jpg	Short_b20_cut1_stereo_44KHz.wav
3	60	2	2	1	C	2	0	733	0	poli_8sides 6_whiteLine3.jpg	Short_b09_cut1_stereo_44KHz.wav
3	61	1	1	1	C	2	0	732	0	poli_8sides 16_whiteLine3.jpg	Short_b23_cut1_stereo_44KHz.wav
3	62	3	3	2	I	1	0	711	0	poli_8sides 15_whiteLine3.jpg	Short_b22_cut1_stereo_44KHz.wav
3	63	4	3	2	I	2	0	388	1	poli_8sides 3_whiteLine3.jpg	Short_b22_cut1_stereo_44KHz.wav
3	64	2	1	0	C	2	1	697	1	poli_8sides 6_whiteLine3.jpg	Short_b23_cut1_stereo_44KHz.wav
3	65	3	3	2	I	2	0	748	1	poli_8sides 15_whiteLine3.jpg	Short_b22_cut1_stereo_44KHz.wav
3	66	2	2	1	C	2	0	1592	0	poli_8sides 6_whiteLine3.jpg	Short_b09_cut1_stereo_44KHz.wav
3	67	1	2	0	C	2	1	738	1	poli_8sides 16_whiteLine3.jpg	Short_b09_cut1_stereo_44KHz.wav
3	68	4	4	2	I	2	0	439	0	poli_8sides 3_whiteLine3.jpg	Short_b20_cut1_stereo_44KHz.wav
3	69	3	4	2	I	1	0	620	1	poli_8sides 15_whiteLine3.jpg	Short_b20_cut1_stereo_44KHz.wav
3	70	1	1	1	C	2	0	321	0	poli_8sides 16_whiteLine3.jpg	Short_b23_cut1_stereo_44KHz.wav
3	71	4	3	2	I	2	0	410	0	poli_8sides 3_whiteLine3.jpg	Short_b22_cut1_stereo_44KHz.wav
3	72	2	1	0	C	2	1	829	1	poli_8sides 6_whiteLine3.jpg	Short_b23_cut1_stereo_44KHz.wav
3	73	3	3	2	I	2	0	487	1	poli_8sides 15_whiteLine3.jpg	Short_b22_cut1_stereo_44KHz.wav
3	74	2	2	1	C	1	1	1001	1	poli_8sides 6_whiteLine3.jpg	Short_b09_cut1_stereo_44KHz.wav
3	75	4	3	2	I	2	0	512	1	poli_8sides 3_whiteLine3.jpg	Short_b22_cut1_stereo_44KHz.wav
3	76	1	1	1	C	1	1	913	1	poli_8sides 16_whiteLine3.jpg	Short_b23_cut1_stereo_44KHz.wav
3	77	3	4	2	I	2	0	455	0	poli_8sides 15_whiteLine3.jpg	Short_b20_cut1_stereo_44KHz.wav
3	78	2	1	0	C	1	0	864	0	poli_8sides 6_whiteLine3.jpg	Short_b23_cut1_stereo_44KHz.wav
3	79	1	2	0	C	2	1	614	1	poli_8sides 16_whiteLine3.jpg	Short_b09_cut1_stereo_44KHz.wav
3	80	4	4	2	I	2	0	555	1	poli_8sides 3_whiteLine3.jpg	Short_b20_cut1_stereo_44KHz.wav
3	81	3	4	2	I	2	0	514	0	poli_8sides 15_whiteLine3.jpg	Short_b20_cut1_stereo_44KHz.wav
3	82	1	2	0	C	1	0	497	0	poli_8sides 16_whiteLine3.jpg	Short_b09_cut1_stereo_44KHz.wav
3	83	4	3	2	I	2	0	379	0	poli_8sides 3_whiteLine3.jpg	Short_b22_cut1_stereo_44KHz.wav
3	84	2	2	1	C	2	0	1467	0	poli_8sides 6_whiteLine3.jpg	Short_b09_cut1_stereo_44KHz.wav
3	85	1	1	1	C	1	1	997	1	poli_8sides 16_whiteLine3.jpg	Short_b23_cut1_stereo_44KHz.wav
3	86	3	3	2	I	2	0	440	1	poli_8sides 15_whiteLine3.jpg	Short_b22_cut1_stereo_44KHz.wav
3	87	4	4	2	I	2	0	455	1	poli_8sides 3_whiteLine3.jpg	Short_b20_cut1_stereo_44KHz.wav
3	88	2	1	0	C	2	1	503	1	poli_8sides 6_whiteLine3.jpg	Short_b23_cut1_stereo_44KHz.wav
3	89	3	4	2	I	2	0	429	0	poli_8sides 15_whiteLine3.jpg	Short_b20_cut1_stereo_44KHz.wav
3	90	4	4	2	I	1	0	614	1	poli_8sides 3_whiteLine3.jpg	Short_b20_cut1_stereo_44KHz.wav
3	91	2	1	0	C	2	1	779	1	poli_8sides 6_whiteLine3.jpg	Short_b23_cut1_stereo_44KHz.wav
3	92	1	2	0	C	2	1	441	1	poli_8sides 16_whiteLine3.jpg	Short_b09_cut1_stereo_44KHz.wav
3	93	3	3	2	I	1	0	515	1	poli_8sides 15_whiteLine3.jpg	Short_b22_cut1_stereo_44KHz.wav
3	94	2	2	1	C	2	0	441	0	poli_8sides 6_whiteLine3.jpg	Short_b09_cut1_stereo_44KHz.wav
3	95	4	3	2	I	2	0	441	0	poli_8sides 3_whiteLine3.jpg	Short_b22_cut1_stereo_44KHz.wav
3	96	1	1	1	C	1	1	1382	1	poli_8sides 16_whiteLine3.jpg	Short_b23_cut1_stereo_44KHz.wav
3	97	3	3	2	I	2	0	535	1	poli_8sides 15_whiteLine3.jpg	Short_b22_cut1_stereo_44KHz.wav
3	98	1	2	0	C	2	1	447	1	poli_8sides 16_whiteLine3.jpg	Short_b09_cut1_stereo_44KHz.wav
3	99	2	2	1	C	2	0	521	0	poli_8sides 6_whiteLine3.jpg	Short_b09_cut1_stereo_44KHz.wav
3	100	4	3	2	I	2	0	330	1	poli_8sides 3_whiteLine3.jpg	Short_b22_cut1_stereo_44KHz.wav
3	101	1	1	1	C	2	0	640	0	poli_8sides 16_whiteLine3.jpg	Short_b23_cut1_stereo_44KHz.wav
3	102	4	4	2	I	2	0	946	1	poli_8sides 3_whiteLine3.jpg	Short_b20_cut1_stereo_44KHz.wav
3	103	2	1	0	C	2	1	570	1	poli_8sides 6_whiteLine3.jpg	Short_b23_cut1_stereo_44KHz.wav
3	104	3	4	2	I	2	0	426	0	poli_8sides 15_whiteLine3.jpg	Short_b20_cut1_stereo_44KHz.wav
3	105	1	2	0	C	1	0	987	0	poli_8sides 16_whiteLine3.jpg	Short_b09_cut1_stereo_44KHz.wav
3	106	4	3	2	I	2	0	706	1	poli_8sides 3_whiteLine3.jpg	Short_b22_cut1_stereo_44KHz.wav
3	107	3	4	2	I	1	0	732	0	poli_8sides 15_whiteLine3.jpg	Short_b20_cut1_stereo_44KHz.wav
3	108	2	2	1	C	2	0	463	0	poli_8sides 6_whiteLine3.jpg	Short_b09_cut1_stereo_44KHz.wav
3	109	1	1	1	C	2	0	861	0	poli_8sides 16_whiteLine3.jpg	Short_b23_cut1_stereo_44KHz.wav
3	110	3	3	2	I	2	0	1427	1	poli_8sides 15_whiteLine3.jpg	Short_b22_cut1_stereo_44KHz.wav
3	111	4	4	2	I	1	0	936	1	poli_8sides 3_whiteLine3.jpg	Short_b20_cut1_stereo_44KHz.wav
3	112	2	1	0	C	1	0	1186	0	poli_8sides 6_whiteLine3.jpg	Short_b23_cut1_stereo_44KHz.wav
3	113	3	3	2	I	2	0	532	0	poli_8sides 15_whiteLine3.jpg	Short_b22_cut1_stereo_44KHz.wav
3	114	1	1	1	C	2	0	441	0	poli_8sides 16_whiteLine3.jpg	Short_b23_cut1_stereo_44KHz.wav
3	115	4	3	2	I	0	0	0	0	poli_8sides 3_whiteLine3.jpg	Short_b22_cut1_stereo_44KHz.wav
3	116	2	2	1	C	2	0	1571	0	poli_8sides 6_whiteLine3.jpg	Short_b09_cut1_stereo_44KHz.wav
3	117	3	4	2	I	1	0	429	1	poli_8sides 15_whiteLine3.jpg	Short_b20_cut1_stereo_44KHz.wav
3	118	4	4	2	I	2	0	562	1	poli_8sides 3_whiteLine3.jpg	Short_b20_cut1_stereo_44KHz.wav
3	119	1	2	0	C	2	1	946	1	poli_8sides 16_whiteLine3.jpg	Short_b09_cut1_stereo_44KHz.wav
3	120	2	1	0	C	2	1	532	1	poli_8sides 6_whiteLine3.jpg	Short_b23_cut1_stereo_44KHz.wav
3	121	3	3	2	I	2	0	392	1	poli_8sides 15_whiteLine3.jpg	Short_b22_cut1_stereo_44KHz.wav
3	122	2	1	0	C	2	1	397	1	poli_8sides 6_whiteLine3.jpg	Short_b23_cut1_stereo_44KHz.wav
3	123	1	1	1	C	1	1	689	1	poli_8sides 16_whiteLine3.jpg	Short_b23_cut1_stereo_44KHz.wav
3	124	4	4	2	I	2	0	977	0	poli_8sides 3_whiteLine3.jpg	Short_b20_cut1_stereo_44KHz.wav
3	125	2	2	1	C	2	0	321	0	poli_8sides 6_whiteLine3.jpg	Short_b09_cut1_stereo_44KHz.wav
3	126	1	2	0	C	2	1	769	1	poli_8sides 16_whiteLine3.jpg	Short_b09_cut1_stereo_44KHz.wav
3	127	4	3	2	I	2	0	1015	1	poli_8sides 3_whiteLine3.jpg	Short_b22_cut1_stereo_44KHz.wav
3	128	3	4	2	I	2	0	615	0	poli_8sides 15_whiteLine3.jpg	Short_b20_cut1_stereo_44KHz.wav
3	129	2	2	1	C	1	1	571	1	poli_8sides 6_whiteLine3.jpg	Short_b09_cut1_stereo_44KHz.wav
3	130	4	3	2	I	2	0	395	0	poli_8sides 3_whiteLine3.jpg	Short_b22_cut1_stereo_44KHz.wav
3	131	1	1	1	C	2	0	603	0	poli_8sides 16_whiteLine3.jpg	Short_b23_cut1_stereo_44KHz.wav
3	132	3	4	2	I	1	0	667	0	poli_8sides 15_whiteLine3.jpg	Short_b20_cut1_stereo_44KHz.wav
3	133	4	4	2	I	2	0	1051	1	poli_8sides 3_whiteLine3.jpg	Short_b20_cut1_stereo_44KHz.wav
3	134	1	2	0	C	2	1	366	1	poli_8sides 16_whiteLine3.jpg	Short_b09_cut1_stereo_44KHz.wav
3	135	2	1	0	C	2	1	737	1	poli_8sides 6_whiteLine3.jpg	Short_b23_cut1_stereo_44KHz.wav
3	136	3	3	2	I	2	0	862	0	poli_8sides 15_whiteLine3.jpg	Short_b22_cut1_stereo_44KHz.wav
3	137	2	1	0	C	1	0	866	0	poli_8sides 6_whiteLine3.jpg	Short_b23_cut1_stereo_44KHz.wav
3	138	4	4	2	I	2	0	730	0	poli_8sides 3_whiteLine3.jpg	Short_b20_cut1_stereo_44KHz.wav
3	139	1	1	1	C	2	0	470	0	poli_8sides 16_whiteLine3.jpg	Short_b23_cut1_stereo_44KHz.wav
3	140	3	4	2	I	2	0	458	1	poli_8sides 15_whiteLine3.jpg	Short_b20_cut1_stereo_44KHz.wav
3	141	1	2	0	C	2	1	393	1	poli_8sides 16_whiteLine3.jpg	Short_b09_cut1_stereo_44KHz.wav
3	142	3	3	2	I	1	0	489	0	poli_8sides 15_whiteLine3.jpg	Short_b22_cut1_stereo_44KHz.wav
3	143	4	3	2	I	2	0	500	1	poli_8sides 3_whiteLine3.jpg	Short_b22_cut1_stereo_44KHz.wav
3	144	2	2	1	C	2	0	506	0	poli_8sides 6_whiteLine3.jpg	Short_b09_cut1_stereo_44KHz.wav
3	145	1	1	1	C	2	0	439	0	poli_8sides 16_whiteLine3.jpg	Short_b23_cut1_stereo_44KHz.wav
3	146	4	3	2	I	2	0	422	1	poli_8sides 3_whiteLine3.jpg	Short_b22_cut1_stereo_44KHz.wav
3	147	3	4	2	I	2	0	372	0	poli_8sides 15_whiteLine3.jpg	Short_b20_cut1_stereo_44KHz.wav
3	148	2	1	0	C	1	0	581	0	poli_8sides 6_whiteLine3.jpg	Short_b23_cut1_stereo_44KHz.wav
3	149	3	3	2	I	2	0	454	1	poli_8sides 15_whiteLine3.jpg	Short_b22_cut1_stereo_44KHz.wav
3	150	2	2	1	C	1	1	614	1	poli_8sides 6_whiteLine3.jpg	Short_b09_cut1_stereo_44KHz.wav
3	151	1	2	0	C	2	1	480	1	poli_8sides 16_whiteLine3.jpg	Short_b09_cut1_stereo_44KHz.wav
3	152	4	4	2	I	2	0	693	0	poli_8sides 3_whiteLine3.jpg	Short_b20_cut1_stereo_44KHz.wav
3	153	3	3	2	I	2	0	494	1	poli_8sides 15_whiteLine3.jpg	Short_b22_cut1_stereo_44KHz.wav
3	154	4	4	2	I	2	0	554	0	poli_8sides 3_whiteLine3.jpg	Short_b20_cut1_stereo_44KHz.wav
3	155	1	2	0	C	2	1	662	1	poli_8sides 16_whiteLine3.jpg	Short_b09_cut1_stereo_44KHz.wav
3	156	2	1	0	C	1	0	511	0	poli_8sides 6_whiteLine3.jpg	Short_b23_cut1_stereo_44KHz.wav
3	157	3	4	2	I	2	0	367	1	poli_8sides 15_whiteLine3.jpg	Short_b20_cut1_stereo_44KHz.wav
3	158	1	1	1	C	2	0	432	0	poli_8sides 16_whiteLine3.jpg	Short_b23_cut1_stereo_44KHz.wav
3	159	4	3	2	I	2	0	476	1	poli_8sides 3_whiteLine3.jpg	Short_b22_cut1_stereo_44KHz.wav
3	160	2	2	1	C	2	0	382	0	poli_8sides 6_whiteLine3.jpg	Short_b09_cut1_stereo_44KHz.wav
3	161	1	2	0	C	2	1	483	1	poli_8sides 16_whiteLine3.jpg	Short_b09_cut1_stereo_44KHz.wav
3	162	2	2	1	C	2	0	501	0	poli_8sides 6_whiteLine3.jpg	Short_b09_cut1_stereo_44KHz.wav
3	163	3	3	2	I	2	0	448	0	poli_8sides 15_whiteLine3.jpg	Short_b22_cut1_stereo_44KHz.wav
3	164	4	3	2	I	2	0	607	0	poli_8sides 3_whiteLine3.jpg	Short_b22_cut1_stereo_44KHz.wav
3	165	2	1	0	C	2	1	631	1	poli_8sides 6_whiteLine3.jpg	Short_b23_cut1_stereo_44KHz.wav
3	166	3	4	2	I	1	0	613	1	poli_8sides 15_whiteLine3.jpg	Short_b20_cut1_stereo_44KHz.wav
3	167	4	4	2	I	1	0	1833	0	poli_8sides 3_whiteLine3.jpg	Short_b20_cut1_stereo_44KHz.wav
3	168	1	1	1	C	2	0	476	0	poli_8sides 16_whiteLine3.jpg	Short_b23_cut1_stereo_44KHz.wav
3	169	3	3	2	I	2	0	908	1	poli_8sides 15_whiteLine3.jpg	Short_b22_cut1_stereo_44KHz.wav
3	170	2	2	1	C	2	0	486	0	poli_8sides 6_whiteLine3.jpg	Short_b09_cut1_stereo_44KHz.wav
3	171	4	4	2	I	2	0	570	0	poli_8sides 3_whiteLine3.jpg	Short_b20_cut1_stereo_44KHz.wav
3	172	1	2	0	C	2	1	513	1	poli_8sides 16_whiteLine3.jpg	Short_b09_cut1_stereo_44KHz.wav
3	173	4	3	2	I	2	0	944	1	poli_8sides 3_whiteLine3.jpg	Short_b22_cut1_stereo_44KHz.wav
3	174	1	1	1	C	2	0	795	0	poli_8sides 16_whiteLine3.jpg	Short_b23_cut1_stereo_44KHz.wav
3	175	3	4	2	I	2	0	1032	0	poli_8sides 15_whiteLine3.jpg	Short_b20_cut1_stereo_44KHz.wav
3	176	2	1	0	C	2	1	918	1	poli_8sides 6_whiteLine3.jpg	Short_b23_cut1_stereo_44KHz.wav
3	177	1	2	0	C	2	1	581	1	poli_8sides 16_whiteLine3.jpg	Short_b09_cut1_stereo_44KHz.wav
3	178	4	4	2	I	2	0	472	0	poli_8sides 3_whiteLine3.jpg	Short_b20_cut1_stereo_44KHz.wav
3	179	3	4	2	I	2	0	1903	1	poli_8sides 15_whiteLine3.jpg	Short_b20_cut1_stereo_44KHz.wav
3	180	2	2	1	C	2	0	864	0	poli_8sides 6_whiteLine3.jpg	Short_b09_cut1_stereo_44KHz.wav
3	181	3	3	2	I	2	0	559	1	poli_8sides 15_whiteLine3.jpg	Short_b22_cut1_stereo_44KHz.wav
3	182	2	1	0	C	0	0	0	0	poli_8sides 6_whiteLine3.jpg	Short_b23_cut1_stereo_44KHz.wav
3	183	4	3	2	I	2	0	525	1	poli_8sides 3_whiteLine3.jpg	Short_b22_cut1_stereo_44KHz.wav
3	184	1	1	1	C	2	0	1123	0	poli_8sides 16_whiteLine3.jpg	Short_b23_cut1_stereo_44KHz.wav
3	185	4	4	2	I	2	0	307	1	poli_8sides 3_whiteLine3.jpg	Short_b20_cut1_stereo_44KHz.wav
3	186	2	1	0	C	2	1	1068	1	poli_8sides 6_whiteLine3.jpg	Short_b23_cut1_stereo_44KHz.wav
3	187	1	2	0	C	2	1	867	1	poli_8sides 16_whiteLine3.jpg	Short_b09_cut1_stereo_44KHz.wav
3	188	3	4	2	I	1	0	866	0	poli_8sides 15_whiteLine3.jpg	Short_b20_cut1_stereo_44KHz.wav
3	189	2	2	1	C	1	1	919	1	poli_8sides 6_whiteLine3.jpg	Short_b09_cut1_stereo_44KHz.wav
3	190	3	3	2	I	2	0	1034	1	poli_8sides 15_whiteLine3.jpg	Short_b22_cut1_stereo_44KHz.wav
3	191	1	1	1	C	2	0	592	0	poli_8sides 16_whiteLine3.jpg	Short_b23_cut1_stereo_44KHz.wav
3	192	4	3	2	I	2	0	371	1	poli_8sides 3_whiteLine3.jpg	Short_b22_cut1_stereo_44KHz.wav
3	193	2	2	1	C	2	0	314	0	poli_8sides 6_whiteLine3.jpg	Short_b09_cut1_stereo_44KHz.wav
3	194	4	3	2	I	2	0	516	0	poli_8sides 3_whiteLine3.jpg	Short_b22_cut1_stereo_44KHz.wav
3	195	1	2	0	C	2	1	1349	1	poli_8sides 16_whiteLine3.jpg	Short_b09_cut1_stereo_44KHz.wav
3	196	3	3	2	I	2	0	598	1	poli_8sides 15_whiteLine3.jpg	Short_b22_cut1_stereo_44KHz.wav
3	197	1	1	1	C	2	0	853	0	poli_8sides 16_whiteLine3.jpg	Short_b23_cut1_stereo_44KHz.wav
3	198	2	1	0	C	2	1	1497	1	poli_8sides 6_whiteLine3.jpg	Short_b23_cut1_stereo_44KHz.wav
3	199	4	4	2	I	1	0	968	1	poli_8sides 3_whiteLine3.jpg	Short_b20_cut1_stereo_44KHz.wav
3	200	3	4	2	I	2	0	577	1	poli_8sides 15_whiteLine3.jpg	Short_b20_cut1_stereo_44KHz.wav
4	1	1	2	0	C	1	0	1408	0	poli_8sides 13_whiteLine3.jpg	MediumShort_e16_cut1_stereo_44KHz.wav
4	2	2	1	0	C	2	1	957	1	poli_8sides 11_whiteLine3.jpg	MediumShort_e22_cut1_stereo_44KHz.wav
4	3	3	3	2	I	2	0	949	0	poli_8sides 9_whiteLine3.jpg	MediumShort_b10_cut1_MS_stereo_44KHz.wav
4	4	4	4	2	I	2	0	1152	1	poli_8sides 8_whiteLine3.jpg	MediumShort_b16_cut3_MS_stereo_44KHz.wav
4	5	3	4	2	I	2	0	1057	1	poli_8sides 9_whiteLine3.jpg	MediumShort_b16_cut3_MS_stereo_44KHz.wav
4	6	2	2	1	C	2	0	915	0	poli_8sides 11_whiteLine3.jpg	MediumShort_e16_cut1_stereo_44KHz.wav
4	7	1	1	1	C	1	1	1359	1	poli_8sides 13_whiteLine3.jpg	MediumShort_e22_cut1_stereo_44KHz.wav
4	8	4	3	2	I	1	0	1172	1	poli_8sides 8_whiteLine3.jpg	MediumShort_b10_cut1_MS_stereo_44KHz.wav
4	9	3	3	2	I	2	0	1002	1	poli_8sides 9_whiteLine3.jpg	MediumShort_b10_cut1_MS_stereo_44KHz.wav
4	10	2	2	1	C	2	0	612	0	poli_8sides 11_whiteLine3.jpg	MediumShort_e16_cut1_stereo_44KHz.wav
4	11	4	3	2	I	2	0	692	0	poli_8sides 8_whiteLine3.jpg	MediumShort_b10_cut1_MS_stereo_44KHz.wav
4	12	1	2	0	C	0	0	0	0	poli_8sides 13_whiteLine3.jpg	MediumShort_e16_cut1_stereo_44KHz.wav
4	13	4	4	2	I	2	0	775	1	poli_8sides 8_whiteLine3.jpg	MediumShort_b16_cut3_MS_stereo_44KHz.wav
4	14	1	1	1	C	2	0	1558	0	poli_8sides 13_whiteLine3.jpg	MediumShort_e22_cut1_stereo_44KHz.wav
4	15	2	1	0	C	2	1	754	1	poli_8sides 11_whiteLine3.jpg	MediumShort_e22_cut1_stereo_44KHz.wav
4	16	3	4	2	I	2	0	1124	1	poli_8sides 9_whiteLine3.jpg	MediumShort_b16_cut3_MS_stereo_44KHz.wav
4	17	2	2	1	C	1	1	1208	1	poli_8sides 11_whiteLine3.jpg	MediumShort_e16_cut1_stereo_44KHz.wav
4	18	1	2	0	C	1	0	1008	0	poli_8sides 13_whiteLine3.jpg	MediumShort_e16_cut1_stereo_44KHz.wav
4	19	4	4	2	I	1	0	849	1	poli_8sides 8_whiteLine3.jpg	MediumShort_b16_cut3_MS_stereo_44KHz.wav
4	20	3	3	2	I	1	0	671	1	poli_8sides 9_whiteLine3.jpg	MediumShort_b10_cut1_MS_stereo_44KHz.wav
4	21	4	3	2	I	2	0	1314	0	poli_8sides 8_whiteLine3.jpg	MediumShort_b10_cut1_MS_stereo_44KHz.wav
4	22	2	1	0	C	2	1	630	1	poli_8sides 11_whiteLine3.jpg	MediumShort_e22_cut1_stereo_44KHz.wav
4	23	1	1	1	C	2	0	908	0	poli_8sides 13_whiteLine3.jpg	MediumShort_e22_cut1_stereo_44KHz.wav
4	24	3	4	2	I	1	0	946	1	poli_8sides 9_whiteLine3.jpg	MediumShort_b16_cut3_MS_stereo_44KHz.wav
4	25	1	1	1	C	2	0	1294	0	poli_8sides 13_whiteLine3.jpg	MediumShort_e22_cut1_stereo_44KHz.wav
4	26	4	3	2	I	2	0	724	0	poli_8sides 8_whiteLine3.jpg	MediumShort_b10_cut1_MS_stereo_44KHz.wav
4	27	3	4	2	I	2	0	1633	0	poli_8sides 9_whiteLine3.jpg	MediumShort_b16_cut3_MS_stereo_44KHz.wav
4	28	2	1	0	C	2	1	520	1	poli_8sides 11_whiteLine3.jpg	MediumShort_e22_cut1_stereo_44KHz.wav
4	29	1	2	0	C	1	0	592	0	poli_8sides 13_whiteLine3.jpg	MediumShort_e16_cut1_stereo_44KHz.wav
4	30	4	4	2	I	2	0	697	1	poli_8sides 8_whiteLine3.jpg	MediumShort_b16_cut3_MS_stereo_44KHz.wav
4	31	3	3	2	I	2	0	501	1	poli_8sides 9_whiteLine3.jpg	MediumShort_b10_cut1_MS_stereo_44KHz.wav
4	32	2	2	1	C	1	1	1131	1	poli_8sides 11_whiteLine3.jpg	MediumShort_e16_cut1_stereo_44KHz.wav
4	33	4	4	2	I	2	0	1177	0	poli_8sides 8_whiteLine3.jpg	MediumShort_b16_cut3_MS_stereo_44KHz.wav
4	34	2	2	1	C	2	0	1135	0	poli_8sides 11_whiteLine3.jpg	MediumShort_e16_cut1_stereo_44KHz.wav
4	35	1	2	0	C	2	1	1061	1	poli_8sides 13_whiteLine3.jpg	MediumShort_e16_cut1_stereo_44KHz.wav
4	36	3	3	2	I	2	0	705	1	poli_8sides 9_whiteLine3.jpg	MediumShort_b10_cut1_MS_stereo_44KHz.wav
4	37	4	3	2	I	2	0	641	1	poli_8sides 8_whiteLine3.jpg	MediumShort_b10_cut1_MS_stereo_44KHz.wav
4	38	1	1	1	C	2	0	559	0	poli_8sides 13_whiteLine3.jpg	MediumShort_e22_cut1_stereo_44KHz.wav
4	39	2	1	0	C	2	1	585	1	poli_8sides 11_whiteLine3.jpg	MediumShort_e22_cut1_stereo_44KHz.wav
4	40	3	4	2	I	2	0	906	0	poli_8sides 9_whiteLine3.jpg	MediumShort_b16_cut3_MS_stereo_44KHz.wav
4	41	2	2	1	C	2	0	1721	0	poli_8sides 11_whiteLine3.jpg	MediumShort_e16_cut1_stereo_44KHz.wav
4	42	1	2	0	C	1	0	1799	0	poli_8sides 13_whiteLine3.jpg	MediumShort_e16_cut1_stereo_44KHz.wav
4	43	3	4	2	I	2	0	742	1	poli_8sides 9_whiteLine3.jpg	MediumShort_b16_cut3_MS_stereo_44KHz.wav
4	44	4	4	2	I	2	0	915	1	poli_8sides 8_whiteLine3.jpg	MediumShort_b16_cut3_MS_stereo_44KHz.wav
4	45	3	3	2	I	2	0	684	0	poli_8sides 9_whiteLine3.jpg	MediumShort_b10_cut1_MS_stereo_44KHz.wav
4	46	4	3	2	I	2	0	575	0	poli_8sides 8_whiteLine3.jpg	MediumShort_b10_cut1_MS_stereo_44KHz.wav
4	47	2	1	0	C	2	1	1144	1	poli_8sides 11_whiteLine3.jpg	MediumShort_e22_cut1_stereo_44KHz.wav
4	48	1	1	1	C	2	0	541	0	poli_8sides 13_whiteLine3.jpg	MediumShort_e22_cut1_stereo_44KHz.wav
4	49	4	4	2	I	2	0	613	0	poli_8sides 8_whiteLine3.jpg	MediumShort_b16_cut3_MS_stereo_44KHz.wav
4	50	1	2	0	C	1	0	903	0	poli_8sides 13_whiteLine3.jpg	MediumShort_e16_cut1_stereo_44KHz.wav
4	51	2	2	1	C	2	0	699	0	poli_8sides 11_whiteLine3.jpg	MediumShort_e16_cut1_stereo_44KHz.wav
4	52	3	3	2	I	2	0	1345	0	poli_8sides 9_whiteLine3.jpg	MediumShort_b10_cut1_MS_stereo_44KHz.wav
4	53	2	1	0	C	2	1	1143	1	poli_8sides 11_whiteLine3.jpg	MediumShort_e22_cut1_stereo_44KHz.wav
4	54	1	1	1	C	1	1	1756	1	poli_8sides 13_whiteLine3.jpg	MediumShort_e22_cut1_stereo_44KHz.wav
4	55	4	3	2	I	2	0	889	1	poli_8sides 8_whiteLine3.jpg	MediumShort_b10_cut1_MS_stereo_44KHz.wav
4	56	3	4	2	I	2	0	1042	0	poli_8sides 9_whiteLine3.jpg	MediumShort_b16_cut3_MS_stereo_44KHz.wav
4	57	2	2	1	C	1	1	1004	1	poli_8sides 11_whiteLine3.jpg	MediumShort_e16_cut1_stereo_44KHz.wav
4	58	3	4	2	I	2	0	982	0	poli_8sides 9_whiteLine3.jpg	MediumShort_b16_cut3_MS_stereo_44KHz.wav
4	59	1	2	0	C	1	0	768	0	poli_8sides 13_whiteLine3.jpg	MediumShort_e16_cut1_stereo_44KHz.wav
4	60	4	4	2	I	2	0	1658	1	poli_8sides 8_whiteLine3.jpg	MediumShort_b16_cut3_MS_stereo_44KHz.wav
4	61	2	1	0	C	2	1	746	1	poli_8sides 11_whiteLine3.jpg	MediumShort_e22_cut1_stereo_44KHz.wav
4	62	3	3	2	I	2	0	724	0	poli_8sides 9_whiteLine3.jpg	MediumShort_b10_cut1_MS_stereo_44KHz.wav
4	63	1	1	1	C	2	0	1032	0	poli_8sides 13_whiteLine3.jpg	MediumShort_e22_cut1_stereo_44KHz.wav
4	64	4	3	2	I	2	0	695	1	poli_8sides 8_whiteLine3.jpg	MediumShort_b10_cut1_MS_stereo_44KHz.wav
4	65	3	4	2	I	1	0	639	1	poli_8sides 9_whiteLine3.jpg	MediumShort_b16_cut3_MS_stereo_44KHz.wav
4	66	1	1	1	C	2	0	933	0	poli_8sides 13_whiteLine3.jpg	MediumShort_e22_cut1_stereo_44KHz.wav
4	67	4	3	2	I	2	0	758	0	poli_8sides 8_whiteLine3.jpg	MediumShort_b10_cut1_MS_stereo_44KHz.wav
4	68	2	1	0	C	2	1	993	1	poli_8sides 11_whiteLine3.jpg	MediumShort_e22_cut1_stereo_44KHz.wav
4	69	4	4	2	I	2	0	591	0	poli_8sides 8_whiteLine3.jpg	MediumShort_b16_cut3_MS_stereo_44KHz.wav
4	70	1	2	0	C	2	1	1005	1	poli_8sides 13_whiteLine3.jpg	MediumShort_e16_cut1_stereo_44KHz.wav
4	71	2	2	1	C	2	0	641	0	poli_8sides 11_whiteLine3.jpg	MediumShort_e16_cut1_stereo_44KHz.wav
4	72	3	3	2	I	2	0	812	1	poli_8sides 9_whiteLine3.jpg	MediumShort_b10_cut1_MS_stereo_44KHz.wav
4	73	4	4	2	I	2	0	636	1	poli_8sides 8_whiteLine3.jpg	MediumShort_b16_cut3_MS_stereo_44KHz.wav
4	74	2	1	0	C	2	1	582	1	poli_8sides 11_whiteLine3.jpg	MediumShort_e22_cut1_stereo_44KHz.wav
4	75	1	1	1	C	1	1	1105	1	poli_8sides 13_whiteLine3.jpg	MediumShort_e22_cut1_stereo_44KHz.wav
4	76	3	4	2	I	2	0	451	0	poli_8sides 9_whiteLine3.jpg	MediumShort_b16_cut3_MS_stereo_44KHz.wav
4	77	4	3	2	I	2	0	712	0	poli_8sides 8_whiteLine3.jpg	MediumShort_b10_cut1_MS_stereo_44KHz.wav
4	78	3	3	2	I	2	0	835	0	poli_8sides 9_whiteLine3.jpg	MediumShort_b10_cut1_MS_stereo_44KHz.wav
4	79	1	2	0	C	2	1	428	1	poli_8sides 13_whiteLine3.jpg	MediumShort_e16_cut1_stereo_44KHz.wav
4	80	2	2	1	C	2	0	515	0	poli_8sides 11_whiteLine3.jpg	MediumShort_e16_cut1_stereo_44KHz.wav
4	81	3	3	2	I	2	0	573	0	poli_8sides 9_whiteLine3.jpg	MediumShort_b10_cut1_MS_stereo_44KHz.wav
4	82	1	1	1	C	2	0	903	0	poli_8sides 13_whiteLine3.jpg	MediumShort_e22_cut1_stereo_44KHz.wav
4	83	4	3	2	I	2	0	1058	0	poli_8sides 8_whiteLine3.jpg	MediumShort_b10_cut1_MS_stereo_44KHz.wav
4	84	2	1	0	C	2	1	417	1	poli_8sides 11_whiteLine3.jpg	MediumShort_e22_cut1_stereo_44KHz.wav
4	85	1	2	0	C	2	1	488	1	poli_8sides 13_whiteLine3.jpg	MediumShort_e16_cut1_stereo_44KHz.wav
4	86	3	4	2	I	2	0	494	1	poli_8sides 9_whiteLine3.jpg	MediumShort_b16_cut3_MS_stereo_44KHz.wav
4	87	4	4	2	I	2	0	600	0	poli_8sides 8_whiteLine3.jpg	MediumShort_b16_cut3_MS_stereo_44KHz.wav
4	88	2	2	1	C	2	0	574	0	poli_8sides 11_whiteLine3.jpg	MediumShort_e16_cut1_stereo_44KHz.wav
4	89	4	4	2	I	2	0	506	0	poli_8sides 8_whiteLine3.jpg	MediumShort_b16_cut3_MS_stereo_44KHz.wav
4	90	3	4	2	I	2	0	663	0	poli_8sides 9_whiteLine3.jpg	MediumShort_b16_cut3_MS_stereo_44KHz.wav
4	91	1	2	0	C	2	1	475	1	poli_8sides 13_whiteLine3.jpg	MediumShort_e16_cut1_stereo_44KHz.wav
4	92	2	2	1	C	2	0	740	0	poli_8sides 11_whiteLine3.jpg	MediumShort_e16_cut1_stereo_44KHz.wav
4	93	4	3	2	I	2	0	1095	0	poli_8sides 8_whiteLine3.jpg	MediumShort_b10_cut1_MS_stereo_44KHz.wav
4	94	3	3	2	I	2	0	730	1	poli_8sides 9_whiteLine3.jpg	MediumShort_b10_cut1_MS_stereo_44KHz.wav
4	95	1	1	1	C	2	0	746	0	poli_8sides 13_whiteLine3.jpg	MediumShort_e22_cut1_stereo_44KHz.wav
4	96	2	1	0	C	2	1	622	1	poli_8sides 11_whiteLine3.jpg	MediumShort_e22_cut1_stereo_44KHz.wav
4	97	1	2	0	C	1	0	691	0	poli_8sides 13_whiteLine3.jpg	MediumShort_e16_cut1_stereo_44KHz.wav
4	98	4	3	2	I	2	0	721	1	poli_8sides 8_whiteLine3.jpg	MediumShort_b10_cut1_MS_stereo_44KHz.wav
4	99	3	4	2	I	2	0	624	1	poli_8sides 9_whiteLine3.jpg	MediumShort_b16_cut3_MS_stereo_44KHz.wav
4	100	2	2	1	C	2	0	417	0	poli_8sides 11_whiteLine3.jpg	MediumShort_e16_cut1_stereo_44KHz.wav
4	101	3	3	2	I	2	0	418	1	poli_8sides 9_whiteLine3.jpg	MediumShort_b10_cut1_MS_stereo_44KHz.wav
4	102	2	1	0	C	2	1	690	1	poli_8sides 11_whiteLine3.jpg	MediumShort_e22_cut1_stereo_44KHz.wav
4	103	1	1	1	C	2	0	330	0	poli_8sides 13_whiteLine3.jpg	MediumShort_e22_cut1_stereo_44KHz.wav
4	104	4	4	2	I	2	0	526	1	poli_8sides 8_whiteLine3.jpg	MediumShort_b16_cut3_MS_stereo_44KHz.wav
4	105	3	3	2	I	2	0	589	1	poli_8sides 9_whiteLine3.jpg	MediumShort_b10_cut1_MS_stereo_44KHz.wav
4	106	4	3	2	I	2	0	499	1	poli_8sides 8_whiteLine3.jpg	MediumShort_b10_cut1_MS_stereo_44KHz.wav
4	107	1	1	1	C	2	0	506	0	poli_8sides 13_whiteLine3.jpg	MediumShort_e22_cut1_stereo_44KHz.wav
4	108	2	2	1	C	2	0	1011	0	poli_8sides 11_whiteLine3.jpg	MediumShort_e16_cut1_stereo_44KHz.wav
4	109	3	4	2	I	1	0	350	1	poli_8sides 9_whiteLine3.jpg	MediumShort_b16_cut3_MS_stereo_44KHz.wav
4	110	2	1	0	C	2	1	504	1	poli_8sides 11_whiteLine3.jpg	MediumShort_e22_cut1_stereo_44KHz.wav
4	111	4	4	2	I	2	0	562	1	poli_8sides 8_whiteLine3.jpg	MediumShort_b16_cut3_MS_stereo_44KHz.wav
4	112	1	2	0	C	2	1	849	1	poli_8sides 13_whiteLine3.jpg	MediumShort_e16_cut1_stereo_44KHz.wav
4	113	3	3	2	I	2	0	572	1	poli_8sides 9_whiteLine3.jpg	MediumShort_b10_cut1_MS_stereo_44KHz.wav
4	114	4	4	2	I	1	0	841	1	poli_8sides 8_whiteLine3.jpg	MediumShort_b16_cut3_MS_stereo_44KHz.wav
4	115	1	1	1	C	2	0	675	0	poli_8sides 13_whiteLine3.jpg	MediumShort_e22_cut1_stereo_44KHz.wav
4	116	2	2	1	C	2	0	569	0	poli_8sides 11_whiteLine3.jpg	MediumShort_e16_cut1_stereo_44KHz.wav
4	117	3	4	2	I	2	0	441	0	poli_8sides 9_whiteLine3.jpg	MediumShort_b16_cut3_MS_stereo_44KHz.wav
4	118	4	3	2	I	1	0	573	1	poli_8sides 8_whiteLine3.jpg	MediumShort_b10_cut1_MS_stereo_44KHz.wav
4	119	1	2	0	C	2	1	670	1	poli_8sides 13_whiteLine3.jpg	MediumShort_e16_cut1_stereo_44KHz.wav
4	120	2	1	0	C	2	1	490	1	poli_8sides 11_whiteLine3.jpg	MediumShort_e22_cut1_stereo_44KHz.wav
4	121	1	2	0	C	2	1	728	1	poli_8sides 13_whiteLine3.jpg	MediumShort_e16_cut1_stereo_44KHz.wav
4	122	4	4	2	I	2	0	444	0	poli_8sides 8_whiteLine3.jpg	MediumShort_b16_cut3_MS_stereo_44KHz.wav
4	123	3	3	2	I	2	0	598	0	poli_8sides 9_whiteLine3.jpg	MediumShort_b10_cut1_MS_stereo_44KHz.wav
4	124	2	2	1	C	2	0	785	0	poli_8sides 11_whiteLine3.jpg	MediumShort_e16_cut1_stereo_44KHz.wav
4	125	4	3	2	I	1	0	659	0	poli_8sides 8_whiteLine3.jpg	MediumShort_b10_cut1_MS_stereo_44KHz.wav
4	126	1	1	1	C	2	0	628	0	poli_8sides 13_whiteLine3.jpg	MediumShort_e22_cut1_stereo_44KHz.wav
4	127	2	1	0	C	2	1	785	1	poli_8sides 11_whiteLine3.jpg	MediumShort_e22_cut1_stereo_44KHz.wav
4	128	3	4	2	I	2	0	641	0	poli_8sides 9_whiteLine3.jpg	MediumShort_b16_cut3_MS_stereo_44KHz.wav
4	129	2	1	0	C	2	1	572	1	poli_8sides 11_whiteLine3.jpg	MediumShort_e22_cut1_stereo_44KHz.wav
4	130	3	4	2	I	2	0	481	0	poli_8sides 9_whiteLine3.jpg	MediumShort_b16_cut3_MS_stereo_44KHz.wav
4	131	1	2	0	C	1	0	739	0	poli_8sides 13_whiteLine3.jpg	MediumShort_e16_cut1_stereo_44KHz.wav
4	132	4	4	2	I	2	0	997	1	poli_8sides 8_whiteLine3.jpg	MediumShort_b16_cut3_MS_stereo_44KHz.wav
4	133	1	1	1	C	2	0	559	0	poli_8sides 13_whiteLine3.jpg	MediumShort_e22_cut1_stereo_44KHz.wav
4	134	2	2	1	C	1	1	506	1	poli_8sides 11_whiteLine3.jpg	MediumShort_e16_cut1_stereo_44KHz.wav
4	135	3	3	2	I	2	0	402	0	poli_8sides 9_whiteLine3.jpg	MediumShort_b10_cut1_MS_stereo_44KHz.wav
4	136	4	3	2	I	2	0	481	1	poli_8sides 8_whiteLine3.jpg	MediumShort_b10_cut1_MS_stereo_44KHz.wav
4	137	1	1	1	C	2	0	541	0	poli_8sides 13_whiteLine3.jpg	MediumShort_e22_cut1_stereo_44KHz.wav
4	138	2	2	1	C	2	0	431	0	poli_8sides 11_whiteLine3.jpg	MediumShort_e16_cut1_stereo_44KHz.wav
4	139	4	4	2	I	2	0	592	1	poli_8sides 8_whiteLine3.jpg	MediumShort_b16_cut3_MS_stereo_44KHz.wav
4	140	3	4	2	I	2	0	439	1	poli_8sides 9_whiteLine3.jpg	MediumShort_b16_cut3_MS_stereo_44KHz.wav
4	141	1	2	0	C	2	1	1024	1	poli_8sides 13_whiteLine3.jpg	MediumShort_e16_cut1_stereo_44KHz.wav
4	142	4	3	2	I	2	0	467	0	poli_8sides 8_whiteLine3.jpg	MediumShort_b10_cut1_MS_stereo_44KHz.wav
4	143	2	1	0	C	2	1	316	1	poli_8sides 11_whiteLine3.jpg	MediumShort_e22_cut1_stereo_44KHz.wav
4	144	3	3	2	I	2	0	446	0	poli_8sides 9_whiteLine3.jpg	MediumShort_b10_cut1_MS_stereo_44KHz.wav
4	145	1	2	0	C	2	1	614	1	poli_8sides 13_whiteLine3.jpg	MediumShort_e16_cut1_stereo_44KHz.wav
4	146	2	2	1	C	2	0	674	0	poli_8sides 11_whiteLine3.jpg	MediumShort_e16_cut1_stereo_44KHz.wav
4	147	4	3	2	I	2	0	667	0	poli_8sides 8_whiteLine3.jpg	MediumShort_b10_cut1_MS_stereo_44KHz.wav
4	148	3	3	2	I	2	0	696	0	poli_8sides 9_whiteLine3.jpg	MediumShort_b10_cut1_MS_stereo_44KHz.wav
4	149	2	1	0	C	2	1	435	1	poli_8sides 11_whiteLine3.jpg	MediumShort_e22_cut1_stereo_44KHz.wav
4	150	3	4	2	I	2	0	907	0	poli_8sides 9_whiteLine3.jpg	MediumShort_b16_cut3_MS_stereo_44KHz.wav
4	151	4	4	2	I	2	0	537	0	poli_8sides 8_whiteLine3.jpg	MediumShort_b16_cut3_MS_stereo_44KHz.wav
4	152	1	1	1	C	2	0	658	0	poli_8sides 13_whiteLine3.jpg	MediumShort_e22_cut1_stereo_44KHz.wav
4	153	4	4	2	I	2	0	462	0	poli_8sides 8_whiteLine3.jpg	MediumShort_b16_cut3_MS_stereo_44KHz.wav
4	154	2	1	0	C	2	1	709	1	poli_8sides 11_whiteLine3.jpg	MediumShort_e22_cut1_stereo_44KHz.wav
4	155	1	1	1	C	2	0	630	0	poli_8sides 13_whiteLine3.jpg	MediumShort_e22_cut1_stereo_44KHz.wav
4	156	3	3	2	I	2	0	792	0	poli_8sides 9_whiteLine3.jpg	MediumShort_b10_cut1_MS_stereo_44KHz.wav
4	157	4	3	2	I	2	0	522	1	poli_8sides 8_whiteLine3.jpg	MediumShort_b10_cut1_MS_stereo_44KHz.wav
4	158	3	4	2	I	2	0	675	0	poli_8sides 9_whiteLine3.jpg	MediumShort_b16_cut3_MS_stereo_44KHz.wav
4	159	1	2	0	C	2	1	665	1	poli_8sides 13_whiteLine3.jpg	MediumShort_e16_cut1_stereo_44KHz.wav
4	160	2	2	1	C	2	0	531	0	poli_8sides 11_whiteLine3.jpg	MediumShort_e16_cut1_stereo_44KHz.wav
4	161	3	3	2	I	2	0	638	0	poli_8sides 9_whiteLine3.jpg	MediumShort_b10_cut1_MS_stereo_44KHz.wav
4	162	4	3	2	I	2	0	888	0	poli_8sides 8_whiteLine3.jpg	MediumShort_b10_cut1_MS_stereo_44KHz.wav
4	163	2	1	0	C	1	0	647	0	poli_8sides 11_whiteLine3.jpg	MediumShort_e22_cut1_stereo_44KHz.wav
4	164	1	1	1	C	2	0	610	0	poli_8sides 13_whiteLine3.jpg	MediumShort_e22_cut1_stereo_44KHz.wav
4	165	2	2	1	C	2	0	561	0	poli_8sides 11_whiteLine3.jpg	MediumShort_e16_cut1_stereo_44KHz.wav
4	166	4	4	2	I	2	0	619	0	poli_8sides 8_whiteLine3.jpg	MediumShort_b16_cut3_MS_stereo_44KHz.wav
4	167	3	4	2	I	2	0	590	1	poli_8sides 9_whiteLine3.jpg	MediumShort_b16_cut3_MS_stereo_44KHz.wav
4	168	1	2	0	C	2	1	921	1	poli_8sides 13_whiteLine3.jpg	MediumShort_e16_cut1_stereo_44KHz.wav
4	169	3	4	2	I	2	0	1162	1	poli_8sides 9_whiteLine3.jpg	MediumShort_b16_cut3_MS_stereo_44KHz.wav
4	170	1	2	0	C	1	0	1028	0	poli_8sides 13_whiteLine3.jpg	MediumShort_e16_cut1_stereo_44KHz.wav
4	171	4	3	2	I	2	0	513	1	poli_8sides 8_whiteLine3.jpg	MediumShort_b10_cut1_MS_stereo_44KHz.wav
4	172	2	2	1	C	2	0	583	0	poli_8sides 11_whiteLine3.jpg	MediumShort_e16_cut1_stereo_44KHz.wav
4	173	4	4	2	I	2	0	529	0	poli_8sides 8_whiteLine3.jpg	MediumShort_b16_cut3_MS_stereo_44KHz.wav
4	174	2	1	0	C	2	1	485	1	poli_8sides 11_whiteLine3.jpg	MediumShort_e22_cut1_stereo_44KHz.wav
4	175	3	3	2	I	2	0	698	0	poli_8sides 9_whiteLine3.jpg	MediumShort_b10_cut1_MS_stereo_44KHz.wav
4	176	1	1	1	C	2	0	940	0	poli_8sides 13_whiteLine3.jpg	MediumShort_e22_cut1_stereo_44KHz.wav
4	177	2	1	0	C	2	1	792	1	poli_8sides 11_whiteLine3.jpg	MediumShort_e22_cut1_stereo_44KHz.wav
4	178	1	1	1	C	2	0	1255	0	poli_8sides 13_whiteLine3.jpg	MediumShort_e22_cut1_stereo_44KHz.wav
4	179	3	3	2	I	2	0	1180	1	poli_8sides 9_whiteLine3.jpg	MediumShort_b10_cut1_MS_stereo_44KHz.wav
4	180	4	3	2	I	2	0	994	0	poli_8sides 8_whiteLine3.jpg	MediumShort_b10_cut1_MS_stereo_44KHz.wav
4	181	2	2	1	C	2	0	612	0	poli_8sides 11_whiteLine3.jpg	MediumShort_e16_cut1_stereo_44KHz.wav
4	182	4	4	2	I	2	0	687	0	poli_8sides 8_whiteLine3.jpg	MediumShort_b16_cut3_MS_stereo_44KHz.wav
4	183	3	4	2	I	2	0	469	0	poli_8sides 9_whiteLine3.jpg	MediumShort_b16_cut3_MS_stereo_44KHz.wav
4	184	1	2	0	C	2	1	382	1	poli_8sides 13_whiteLine3.jpg	MediumShort_e16_cut1_stereo_44KHz.wav
4	185	4	4	2	I	1	0	589	1	poli_8sides 8_whiteLine3.jpg	MediumShort_b16_cut3_MS_stereo_44KHz.wav
4	186	2	1	0	C	1	0	1018	0	poli_8sides 11_whiteLine3.jpg	MediumShort_e22_cut1_stereo_44KHz.wav
4	187	1	1	1	C	2	0	421	0	poli_8sides 13_whiteLine3.jpg	MediumShort_e22_cut1_stereo_44KHz.wav
4	188	3	4	2	I	2	0	1243	1	poli_8sides 9_whiteLine3.jpg	MediumShort_b16_cut3_MS_stereo_44KHz.wav
4	189	2	2	1	C	2	0	1004	0	poli_8sides 11_whiteLine3.jpg	MediumShort_e16_cut1_stereo_44KHz.wav
4	190	4	3	2	I	2	0	898	0	poli_8sides 8_whiteLine3.jpg	MediumShort_b10_cut1_MS_stereo_44KHz.wav
4	191	1	2	0	C	1	0	819	0	poli_8sides 13_whiteLine3.jpg	MediumShort_e16_cut1_stereo_44KHz.wav
4	192	3	3	2	I	2	0	636	1	poli_8sides 9_whiteLine3.jpg	MediumShort_b10_cut1_MS_stereo_44KHz.wav
4	193	4	4	2	I	2	0	713	1	poli_8sides 8_whiteLine3.jpg	MediumShort_b16_cut3_MS_stereo_44KHz.wav
4	194	2	2	1	C	2	0	669	0	poli_8sides 11_whiteLine3.jpg	MediumShort_e16_cut1_stereo_44KHz.wav
4	195	3	3	2	I	2	0	635	1	poli_8sides 9_whiteLine3.jpg	MediumShort_b10_cut1_MS_stereo_44KHz.wav
4	196	1	2	0	C	2	1	551	1	poli_8sides 13_whiteLine3.jpg	MediumShort_e16_cut1_stereo_44KHz.wav
4	197	2	1	0	C	2	1	608	1	poli_8sides 11_whiteLine3.jpg	MediumShort_e22_cut1_stereo_44KHz.wav
4	198	4	3	2	I	2	0	665	1	poli_8sides 8_whiteLine3.jpg	MediumShort_b10_cut1_MS_stereo_44KHz.wav
4	199	3	4	2	I	2	0	670	1	poli_8sides 9_whiteLine3.jpg	MediumShort_b16_cut3_MS_stereo_44KHz.wav
4	200	1	1	1	C	2	0	870	0	poli_8sides 13_whiteLine3.jpg	MediumShort_e22_cut1_stereo_44KHz.wav
