block	trial	Vstim	Astim	match	C/I	resp	result	RT	fb	V-file	A-file
LR

0	1	1	2	0	C	1	1	1828	1	poli_8sides 23_whiteLine3.jpg	Practice2_b27_cut2_stereo_44KHz.wav
0	2	2	4	0	C	2	0	569	0	poli_8sides 22_whiteLine3.jpg	Practice3_b26_cut1_stereo_44KHz.wav
0	3	2	3	1	C	2	1	643	1	poli_8sides 22_whiteLine3.jpg	Practice1_b27_cut1_stereo_44KHz.wav
0	4	1	1	1	C	2	1	805	1	poli_8sides 23_whiteLine3.jpg	Practice4_b26_stereo_44KHz.wav
0	5	1	2	0	C	1	1	589	1	poli_8sides 23_whiteLine3.jpg	Practice2_b27_cut2_stereo_44KHz.wav
0	6	1	1	1	C	2	1	1070	1	poli_8sides 23_whiteLine3.jpg	Practice4_b26_stereo_44KHz.wav
0	7	2	3	1	C	2	1	769	1	poli_8sides 22_whiteLine3.jpg	Practice1_b27_cut1_stereo_44KHz.wav
0	8	2	4	0	C	1	1	705	1	poli_8sides 22_whiteLine3.jpg	Practice3_b26_cut1_stereo_44KHz.wav
0	9	2	3	1	C	1	0	439	0	poli_8sides 22_whiteLine3.jpg	Practice1_b27_cut1_stereo_44KHz.wav
0	10	1	2	0	C	1	1	703	1	poli_8sides 23_whiteLine3.jpg	Practice2_b27_cut2_stereo_44KHz.wav
0	11	2	4	0	C	1	1	587	1	poli_8sides 22_whiteLine3.jpg	Practice3_b26_cut1_stereo_44KHz.wav
0	12	1	1	1	C	2	1	691	1	poli_8sides 23_whiteLine3.jpg	Practice4_b26_stereo_44KHz.wav
0	13	1	2	0	C	1	1	750	1	poli_8sides 23_whiteLine3.jpg	Practice2_b27_cut2_stereo_44KHz.wav
0	14	1	1	1	C	2	1	529	1	poli_8sides 23_whiteLine3.jpg	Practice4_b26_stereo_44KHz.wav
0	15	2	4	0	C	1	1	704	1	poli_8sides 22_whiteLine3.jpg	Practice3_b26_cut1_stereo_44KHz.wav
0	16	2	3	1	C	2	1	546	1	poli_8sides 22_whiteLine3.jpg	Practice1_b27_cut1_stereo_44KHz.wav
0	17	1	1	1	C	2	1	998	1	poli_8sides 23_whiteLine3.jpg	Practice4_b26_stereo_44KHz.wav
0	18	2	4	0	C	2	0	567	0	poli_8sides 22_whiteLine3.jpg	Practice3_b26_cut1_stereo_44KHz.wav
0	19	1	2	0	C	1	1	1094	1	poli_8sides 23_whiteLine3.jpg	Practice2_b27_cut2_stereo_44KHz.wav
0	20	2	3	1	C	2	1	1578	1	poli_8sides 22_whiteLine3.jpg	Practice1_b27_cut1_stereo_44KHz.wav
0	21	2	4	0	C	1	1	604	1	poli_8sides 22_whiteLine3.jpg	Practice3_b26_cut1_stereo_44KHz.wav
0	22	1	1	1	C	2	1	804	1	poli_8sides 23_whiteLine3.jpg	Practice4_b26_stereo_44KHz.wav
0	23	1	2	0	C	1	1	869	1	poli_8sides 23_whiteLine3.jpg	Practice2_b27_cut2_stereo_44KHz.wav
0	24	2	3	1	C	2	1	877	1	poli_8sides 22_whiteLine3.jpg	Practice1_b27_cut1_stereo_44KHz.wav
0	25	1	2	0	C	1	1	1321	1	poli_8sides 23_whiteLine3.jpg	Practice2_b27_cut2_stereo_44KHz.wav
0	26	2	4	0	C	1	1	719	1	poli_8sides 22_whiteLine3.jpg	Practice3_b26_cut1_stereo_44KHz.wav
0	27	2	3	1	C	2	1	1364	1	poli_8sides 22_whiteLine3.jpg	Practice1_b27_cut1_stereo_44KHz.wav
0	28	1	1	1	C	2	1	581	1	poli_8sides 23_whiteLine3.jpg	Practice4_b26_stereo_44KHz.wav
0	29	2	4	0	C	1	1	1159	1	poli_8sides 22_whiteLine3.jpg	Practice3_b26_cut1_stereo_44KHz.wav
0	30	1	1	1	C	2	1	642	1	poli_8sides 23_whiteLine3.jpg	Practice4_b26_stereo_44KHz.wav
avg_resp = 871
1	1	4	3	2	I	1	0	999	1	poli_8sides 18_whiteLine3.jpg	MediumShort_e22_cut1_stereo_44KHz.wav
1	2	3	3	2	I	2	0	764	1	poli_8sides 3_whiteLine3.jpg	MediumShort_e22_cut1_stereo_44KHz.wav
1	3	1	2	0	C	1	1	807	1	poli_8sides 8_whiteLine3.jpg	MediumShort_e16_cut1_stereo_44KHz.wav
1	4	2	1	0	C	1	1	745	1	poli_8sides 2_whiteLine3.jpg	MediumShort_b16_cut3_MS_stereo_44KHz.wav
1	5	1	1	1	C	2	1	824	1	poli_8sides 8_whiteLine3.jpg	MediumShort_b16_cut3_MS_stereo_44KHz.wav
1	6	2	2	1	C	1	0	915	0	poli_8sides 2_whiteLine3.jpg	MediumShort_e16_cut1_stereo_44KHz.wav
1	7	3	4	2	I	1	0	1294	1	poli_8sides 3_whiteLine3.jpg	MediumShort_b10_cut1_MS_stereo_44KHz.wav
1	8	4	4	2	I	2	0	603	0	poli_8sides 18_whiteLine3.jpg	MediumShort_b10_cut1_MS_stereo_44KHz.wav
1	9	2	2	1	C	2	1	1168	1	poli_8sides 2_whiteLine3.jpg	MediumShort_e16_cut1_stereo_44KHz.wav
1	10	1	2	0	C	1	1	628	1	poli_8sides 8_whiteLine3.jpg	MediumShort_e16_cut1_stereo_44KHz.wav
1	11	3	4	2	I	1	0	913	0	poli_8sides 3_whiteLine3.jpg	MediumShort_b10_cut1_MS_stereo_44KHz.wav
1	12	4	3	2	I	1	0	837	0	poli_8sides 18_whiteLine3.jpg	MediumShort_e22_cut1_stereo_44KHz.wav
1	13	1	1	1	C	2	1	1960	1	poli_8sides 8_whiteLine3.jpg	MediumShort_b16_cut3_MS_stereo_44KHz.wav
1	14	2	1	0	C	1	1	872	1	poli_8sides 2_whiteLine3.jpg	MediumShort_b16_cut3_MS_stereo_44KHz.wav
1	15	4	4	2	I	1	0	1283	1	poli_8sides 18_whiteLine3.jpg	MediumShort_b10_cut1_MS_stereo_44KHz.wav
1	16	3	3	2	I	1	0	945	0	poli_8sides 3_whiteLine3.jpg	MediumShort_e22_cut1_stereo_44KHz.wav
1	17	2	2	1	C	2	1	1003	1	poli_8sides 2_whiteLine3.jpg	MediumShort_e16_cut1_stereo_44KHz.wav
1	18	1	2	0	C	1	1	643	1	poli_8sides 8_whiteLine3.jpg	MediumShort_e16_cut1_stereo_44KHz.wav
1	19	3	3	2	I	2	0	1029	0	poli_8sides 3_whiteLine3.jpg	MediumShort_e22_cut1_stereo_44KHz.wav
1	20	4	3	2	I	2	0	1264	0	poli_8sides 18_whiteLine3.jpg	MediumShort_e22_cut1_stereo_44KHz.wav
1	21	1	1	1	C	2	1	1105	1	poli_8sides 8_whiteLine3.jpg	MediumShort_b16_cut3_MS_stereo_44KHz.wav
1	22	3	4	2	I	1	0	1554	1	poli_8sides 3_whiteLine3.jpg	MediumShort_b10_cut1_MS_stereo_44KHz.wav
1	23	2	1	0	C	1	1	1359	1	poli_8sides 2_whiteLine3.jpg	MediumShort_b16_cut3_MS_stereo_44KHz.wav
1	24	4	4	2	I	1	0	1241	0	poli_8sides 18_whiteLine3.jpg	MediumShort_b10_cut1_MS_stereo_44KHz.wav
1	25	2	2	1	C	2	1	901	1	poli_8sides 2_whiteLine3.jpg	MediumShort_e16_cut1_stereo_44KHz.wav
1	26	4	3	2	I	1	0	1339	1	poli_8sides 18_whiteLine3.jpg	MediumShort_e22_cut1_stereo_44KHz.wav
1	27	1	1	1	C	2	1	861	1	poli_8sides 8_whiteLine3.jpg	MediumShort_b16_cut3_MS_stereo_44KHz.wav
1	28	3	4	2	I	1	0	920	1	poli_8sides 3_whiteLine3.jpg	MediumShort_b10_cut1_MS_stereo_44KHz.wav
1	29	1	2	0	C	1	1	1038	1	poli_8sides 8_whiteLine3.jpg	MediumShort_e16_cut1_stereo_44KHz.wav
1	30	2	1	0	C	1	1	813	1	poli_8sides 2_whiteLine3.jpg	MediumShort_b16_cut3_MS_stereo_44KHz.wav
1	31	3	3	2	I	1	0	1247	0	poli_8sides 3_whiteLine3.jpg	MediumShort_e22_cut1_stereo_44KHz.wav
1	32	4	4	2	I	2	0	1169	0	poli_8sides 18_whiteLine3.jpg	MediumShort_b10_cut1_MS_stereo_44KHz.wav
1	33	3	3	2	I	2	0	1423	1	poli_8sides 3_whiteLine3.jpg	MediumShort_e22_cut1_stereo_44KHz.wav
1	34	2	2	1	C	2	1	841	1	poli_8sides 2_whiteLine3.jpg	MediumShort_e16_cut1_stereo_44KHz.wav
1	35	4	3	2	I	1	0	938	1	poli_8sides 18_whiteLine3.jpg	MediumShort_e22_cut1_stereo_44KHz.wav
1	36	1	1	1	C	2	1	783	1	poli_8sides 8_whiteLine3.jpg	MediumShort_b16_cut3_MS_stereo_44KHz.wav
1	37	3	4	2	I	1	0	754	0	poli_8sides 3_whiteLine3.jpg	MediumShort_b10_cut1_MS_stereo_44KHz.wav
1	38	4	4	2	I	2	0	1276	0	poli_8sides 18_whiteLine3.jpg	MediumShort_b10_cut1_MS_stereo_44KHz.wav
1	39	1	2	0	C	1	1	808	1	poli_8sides 8_whiteLine3.jpg	MediumShort_e16_cut1_stereo_44KHz.wav
1	40	2	1	0	C	2	0	843	0	poli_8sides 2_whiteLine3.jpg	MediumShort_b16_cut3_MS_stereo_44KHz.wav
1	41	1	2	0	C	1	1	541	1	poli_8sides 8_whiteLine3.jpg	MediumShort_e16_cut1_stereo_44KHz.wav
1	42	3	3	2	I	2	0	1215	1	poli_8sides 3_whiteLine3.jpg	MediumShort_e22_cut1_stereo_44KHz.wav
1	43	4	4	2	I	1	0	1838	0	poli_8sides 18_whiteLine3.jpg	MediumShort_b10_cut1_MS_stereo_44KHz.wav
1	44	2	1	0	C	1	1	827	1	poli_8sides 2_whiteLine3.jpg	MediumShort_b16_cut3_MS_stereo_44KHz.wav
1	45	3	4	2	I	1	0	644	1	poli_8sides 3_whiteLine3.jpg	MediumShort_b10_cut1_MS_stereo_44KHz.wav
1	46	4	3	2	I	1	0	892	0	poli_8sides 18_whiteLine3.jpg	MediumShort_e22_cut1_stereo_44KHz.wav
1	47	2	2	1	C	2	1	766	1	poli_8sides 2_whiteLine3.jpg	MediumShort_e16_cut1_stereo_44KHz.wav
1	48	1	1	1	C	2	1	643	1	poli_8sides 8_whiteLine3.jpg	MediumShort_b16_cut3_MS_stereo_44KHz.wav
1	49	4	4	2	I	1	0	1628	1	poli_8sides 18_whiteLine3.jpg	MediumShort_b10_cut1_MS_stereo_44KHz.wav
1	50	2	2	1	C	2	1	698	1	poli_8sides 2_whiteLine3.jpg	MediumShort_e16_cut1_stereo_44KHz.wav
1	51	1	1	1	C	2	1	822	1	poli_8sides 8_whiteLine3.jpg	MediumShort_b16_cut3_MS_stereo_44KHz.wav
1	52	3	3	2	I	2	0	863	0	poli_8sides 3_whiteLine3.jpg	MediumShort_e22_cut1_stereo_44KHz.wav
1	53	4	3	2	I	1	0	1128	1	poli_8sides 18_whiteLine3.jpg	MediumShort_e22_cut1_stereo_44KHz.wav
1	54	2	1	0	C	1	1	983	1	poli_8sides 2_whiteLine3.jpg	MediumShort_b16_cut3_MS_stereo_44KHz.wav
1	55	1	2	0	C	1	1	591	1	poli_8sides 8_whiteLine3.jpg	MediumShort_e16_cut1_stereo_44KHz.wav
1	56	3	4	2	I	1	0	809	0	poli_8sides 3_whiteLine3.jpg	MediumShort_b10_cut1_MS_stereo_44KHz.wav
1	57	2	1	0	C	1	1	1078	1	poli_8sides 2_whiteLine3.jpg	MediumShort_b16_cut3_MS_stereo_44KHz.wav
1	58	4	4	2	I	1	0	954	1	poli_8sides 18_whiteLine3.jpg	MediumShort_b10_cut1_MS_stereo_44KHz.wav
1	59	3	3	2	I	2	0	1463	1	poli_8sides 3_whiteLine3.jpg	MediumShort_e22_cut1_stereo_44KHz.wav
1	60	1	1	1	C	2	1	817	1	poli_8sides 8_whiteLine3.jpg	MediumShort_b16_cut3_MS_stereo_44KHz.wav
1	61	3	4	2	I	1	0	850	1	poli_8sides 3_whiteLine3.jpg	MediumShort_b10_cut1_MS_stereo_44KHz.wav
1	62	1	2	0	C	1	1	589	1	poli_8sides 8_whiteLine3.jpg	MediumShort_e16_cut1_stereo_44KHz.wav
1	63	4	3	2	I	1	0	920	0	poli_8sides 18_whiteLine3.jpg	MediumShort_e22_cut1_stereo_44KHz.wav
1	64	2	2	1	C	2	1	906	1	poli_8sides 2_whiteLine3.jpg	MediumShort_e16_cut1_stereo_44KHz.wav
1	65	1	1	1	C	2	1	677	1	poli_8sides 8_whiteLine3.jpg	MediumShort_b16_cut3_MS_stereo_44KHz.wav
1	66	4	3	2	I	1	0	939	1	poli_8sides 18_whiteLine3.jpg	MediumShort_e22_cut1_stereo_44KHz.wav
1	67	3	3	2	I	1	0	784	1	poli_8sides 3_whiteLine3.jpg	MediumShort_e22_cut1_stereo_44KHz.wav
1	68	2	1	0	C	1	1	1062	1	poli_8sides 2_whiteLine3.jpg	MediumShort_b16_cut3_MS_stereo_44KHz.wav
1	69	1	2	0	C	1	1	962	1	poli_8sides 8_whiteLine3.jpg	MediumShort_e16_cut1_stereo_44KHz.wav
1	70	4	4	2	I	1	0	798	1	poli_8sides 18_whiteLine3.jpg	MediumShort_b10_cut1_MS_stereo_44KHz.wav
1	71	2	2	1	C	2	1	714	1	poli_8sides 2_whiteLine3.jpg	MediumShort_e16_cut1_stereo_44KHz.wav
1	72	3	4	2	I	1	0	790	1	poli_8sides 3_whiteLine3.jpg	MediumShort_b10_cut1_MS_stereo_44KHz.wav
1	73	1	1	1	C	2	1	737	1	poli_8sides 8_whiteLine3.jpg	MediumShort_b16_cut3_MS_stereo_44KHz.wav
1	74	3	3	2	I	1	0	1459	1	poli_8sides 3_whiteLine3.jpg	MediumShort_e22_cut1_stereo_44KHz.wav
1	75	2	2	1	C	2	1	605	1	poli_8sides 2_whiteLine3.jpg	MediumShort_e16_cut1_stereo_44KHz.wav
1	76	4	4	2	I	1	0	996	1	poli_8sides 18_whiteLine3.jpg	MediumShort_b10_cut1_MS_stereo_44KHz.wav
1	77	3	4	2	I	1	0	871	0	poli_8sides 3_whiteLine3.jpg	MediumShort_b10_cut1_MS_stereo_44KHz.wav
1	78	1	2	0	C	1	1	730	1	poli_8sides 8_whiteLine3.jpg	MediumShort_e16_cut1_stereo_44KHz.wav
1	79	2	1	0	C	1	1	1010	1	poli_8sides 2_whiteLine3.jpg	MediumShort_b16_cut3_MS_stereo_44KHz.wav
1	80	4	3	2	I	1	0	976	0	poli_8sides 18_whiteLine3.jpg	MediumShort_e22_cut1_stereo_44KHz.wav
1	81	2	1	0	C	1	1	1970	1	poli_8sides 2_whiteLine3.jpg	MediumShort_b16_cut3_MS_stereo_44KHz.wav
1	82	3	3	2	I	2	0	831	1	poli_8sides 3_whiteLine3.jpg	MediumShort_e22_cut1_stereo_44KHz.wav
1	83	1	2	0	C	1	1	931	1	poli_8sides 8_whiteLine3.jpg	MediumShort_e16_cut1_stereo_44KHz.wav
1	84	4	3	2	I	1	0	1218	0	poli_8sides 18_whiteLine3.jpg	MediumShort_e22_cut1_stereo_44KHz.wav
1	85	2	2	1	C	2	1	735	1	poli_8sides 2_whiteLine3.jpg	MediumShort_e16_cut1_stereo_44KHz.wav
1	86	4	4	2	I	1	0	637	0	poli_8sides 18_whiteLine3.jpg	MediumShort_b10_cut1_MS_stereo_44KHz.wav
1	87	1	1	1	C	2	1	1138	1	poli_8sides 8_whiteLine3.jpg	MediumShort_b16_cut3_MS_stereo_44KHz.wav
1	88	3	4	2	I	1	0	775	1	poli_8sides 3_whiteLine3.jpg	MediumShort_b10_cut1_MS_stereo_44KHz.wav
1	89	1	2	0	C	1	1	653	1	poli_8sides 8_whiteLine3.jpg	MediumShort_e16_cut1_stereo_44KHz.wav
1	90	3	3	2	I	1	0	1326	1	poli_8sides 3_whiteLine3.jpg	MediumShort_e22_cut1_stereo_44KHz.wav
1	91	2	2	1	C	2	1	762	1	poli_8sides 2_whiteLine3.jpg	MediumShort_e16_cut1_stereo_44KHz.wav
1	92	4	3	2	I	2	0	1420	1	poli_8sides 18_whiteLine3.jpg	MediumShort_e22_cut1_stereo_44KHz.wav
1	93	1	1	1	C	2	1	650	1	poli_8sides 8_whiteLine3.jpg	MediumShort_b16_cut3_MS_stereo_44KHz.wav
1	94	2	1	0	C	1	1	770	1	poli_8sides 2_whiteLine3.jpg	MediumShort_b16_cut3_MS_stereo_44KHz.wav
1	95	4	4	2	I	2	0	1158	1	poli_8sides 18_whiteLine3.jpg	MediumShort_b10_cut1_MS_stereo_44KHz.wav
1	96	3	4	2	I	1	0	586	0	poli_8sides 3_whiteLine3.jpg	MediumShort_b10_cut1_MS_stereo_44KHz.wav
1	97	1	1	1	C	2	1	770	1	poli_8sides 8_whiteLine3.jpg	MediumShort_b16_cut3_MS_stereo_44KHz.wav
1	98	3	4	2	I	1	0	731	0	poli_8sides 3_whiteLine3.jpg	MediumShort_b10_cut1_MS_stereo_44KHz.wav
1	99	2	2	1	C	2	1	1267	1	poli_8sides 2_whiteLine3.jpg	MediumShort_e16_cut1_stereo_44KHz.wav
1	100	4	3	2	I	1	0	876	0	poli_8sides 18_whiteLine3.jpg	MediumShort_e22_cut1_stereo_44KHz.wav
1	101	3	3	2	I	1	0	670	0	poli_8sides 3_whiteLine3.jpg	MediumShort_e22_cut1_stereo_44KHz.wav
1	102	1	2	0	C	1	1	701	1	poli_8sides 8_whiteLine3.jpg	MediumShort_e16_cut1_stereo_44KHz.wav
1	103	4	4	2	I	1	0	1084	1	poli_8sides 18_whiteLine3.jpg	MediumShort_b10_cut1_MS_stereo_44KHz.wav
1	104	2	1	0	C	1	1	708	1	poli_8sides 2_whiteLine3.jpg	MediumShort_b16_cut3_MS_stereo_44KHz.wav
1	105	1	2	0	C	1	1	595	1	poli_8sides 8_whiteLine3.jpg	MediumShort_e16_cut1_stereo_44KHz.wav
1	106	2	2	1	C	2	1	711	1	poli_8sides 2_whiteLine3.jpg	MediumShort_e16_cut1_stereo_44KHz.wav
1	107	3	3	2	I	2	0	1306	0	poli_8sides 3_whiteLine3.jpg	MediumShort_e22_cut1_stereo_44KHz.wav
1	108	4	3	2	I	1	0	953	1	poli_8sides 18_whiteLine3.jpg	MediumShort_e22_cut1_stereo_44KHz.wav
1	109	3	4	2	I	1	0	757	0	poli_8sides 3_whiteLine3.jpg	MediumShort_b10_cut1_MS_stereo_44KHz.wav
1	110	4	4	2	I	1	0	646	0	poli_8sides 18_whiteLine3.jpg	MediumShort_b10_cut1_MS_stereo_44KHz.wav
1	111	2	1	0	C	1	1	790	1	poli_8sides 2_whiteLine3.jpg	MediumShort_b16_cut3_MS_stereo_44KHz.wav
1	112	1	1	1	C	2	1	914	1	poli_8sides 8_whiteLine3.jpg	MediumShort_b16_cut3_MS_stereo_44KHz.wav
1	113	2	2	1	C	2	1	715	1	poli_8sides 2_whiteLine3.jpg	MediumShort_e16_cut1_stereo_44KHz.wav
1	114	4	3	2	I	2	0	813	0	poli_8sides 18_whiteLine3.jpg	MediumShort_e22_cut1_stereo_44KHz.wav
1	115	3	3	2	I	2	0	1010	1	poli_8sides 3_whiteLine3.jpg	MediumShort_e22_cut1_stereo_44KHz.wav
1	116	1	2	0	C	1	1	585	1	poli_8sides 8_whiteLine3.jpg	MediumShort_e16_cut1_stereo_44KHz.wav
1	117	3	4	2	I	1	0	909	1	poli_8sides 3_whiteLine3.jpg	MediumShort_b10_cut1_MS_stereo_44KHz.wav
1	118	2	1	0	C	1	1	882	1	poli_8sides 2_whiteLine3.jpg	MediumShort_b16_cut3_MS_stereo_44KHz.wav
1	119	1	1	1	C	2	1	782	1	poli_8sides 8_whiteLine3.jpg	MediumShort_b16_cut3_MS_stereo_44KHz.wav
1	120	4	4	2	I	1	0	737	0	poli_8sides 18_whiteLine3.jpg	MediumShort_b10_cut1_MS_stereo_44KHz.wav
1	121	2	2	1	C	2	1	1064	1	poli_8sides 2_whiteLine3.jpg	MediumShort_e16_cut1_stereo_44KHz.wav
1	122	4	3	2	I	1	0	969	1	poli_8sides 18_whiteLine3.jpg	MediumShort_e22_cut1_stereo_44KHz.wav
1	123	3	4	2	I	1	0	1192	0	poli_8sides 3_whiteLine3.jpg	MediumShort_b10_cut1_MS_stereo_44KHz.wav
1	124	1	1	1	C	2	1	759	1	poli_8sides 8_whiteLine3.jpg	MediumShort_b16_cut3_MS_stereo_44KHz.wav
1	125	4	4	2	I	2	0	1364	0	poli_8sides 18_whiteLine3.jpg	MediumShort_b10_cut1_MS_stereo_44KHz.wav
1	126	2	1	0	C	1	1	845	1	poli_8sides 2_whiteLine3.jpg	MediumShort_b16_cut3_MS_stereo_44KHz.wav
1	127	3	3	2	I	1	0	958	0	poli_8sides 3_whiteLine3.jpg	MediumShort_e22_cut1_stereo_44KHz.wav
1	128	1	2	0	C	1	1	814	1	poli_8sides 8_whiteLine3.jpg	MediumShort_e16_cut1_stereo_44KHz.wav
1	129	2	2	1	C	2	1	743	1	poli_8sides 2_whiteLine3.jpg	MediumShort_e16_cut1_stereo_44KHz.wav
1	130	3	4	2	I	1	0	824	0	poli_8sides 3_whiteLine3.jpg	MediumShort_b10_cut1_MS_stereo_44KHz.wav
1	131	4	3	2	I	1	0	1023	0	poli_8sides 18_whiteLine3.jpg	MediumShort_e22_cut1_stereo_44KHz.wav
1	132	1	1	1	C	2	1	865	1	poli_8sides 8_whiteLine3.jpg	MediumShort_b16_cut3_MS_stereo_44KHz.wav
1	133	2	1	0	C	1	1	1097	1	poli_8sides 2_whiteLine3.jpg	MediumShort_b16_cut3_MS_stereo_44KHz.wav
1	134	3	3	2	I	1	0	866	0	poli_8sides 3_whiteLine3.jpg	MediumShort_e22_cut1_stereo_44KHz.wav
1	135	1	2	0	C	1	1	739	1	poli_8sides 8_whiteLine3.jpg	MediumShort_e16_cut1_stereo_44KHz.wav
1	136	4	4	2	I	1	0	785	0	poli_8sides 18_whiteLine3.jpg	MediumShort_b10_cut1_MS_stereo_44KHz.wav
1	137	1	2	0	C	1	1	746	1	poli_8sides 8_whiteLine3.jpg	MediumShort_e16_cut1_stereo_44KHz.wav
1	138	4	3	2	I	1	0	1106	1	poli_8sides 18_whiteLine3.jpg	MediumShort_e22_cut1_stereo_44KHz.wav
1	139	2	1	0	C	1	1	972	1	poli_8sides 2_whiteLine3.jpg	MediumShort_b16_cut3_MS_stereo_44KHz.wav
1	140	3	3	2	I	2	0	1719	1	poli_8sides 3_whiteLine3.jpg	MediumShort_e22_cut1_stereo_44KHz.wav
1	141	4	4	2	I	2	0	1172	1	poli_8sides 18_whiteLine3.jpg	MediumShort_b10_cut1_MS_stereo_44KHz.wav
1	142	1	1	1	C	2	1	777	1	poli_8sides 8_whiteLine3.jpg	MediumShort_b16_cut3_MS_stereo_44KHz.wav
1	143	3	4	2	I	1	0	739	1	poli_8sides 3_whiteLine3.jpg	MediumShort_b10_cut1_MS_stereo_44KHz.wav
1	144	2	2	1	C	2	1	773	1	poli_8sides 2_whiteLine3.jpg	MediumShort_e16_cut1_stereo_44KHz.wav
1	145	4	4	2	I	2	0	1017	1	poli_8sides 18_whiteLine3.jpg	MediumShort_b10_cut1_MS_stereo_44KHz.wav
1	146	3	4	2	I	1	0	678	0	poli_8sides 3_whiteLine3.jpg	MediumShort_b10_cut1_MS_stereo_44KHz.wav
1	147	2	1	0	C	1	1	893	1	poli_8sides 2_whiteLine3.jpg	MediumShort_b16_cut3_MS_stereo_44KHz.wav
1	148	1	2	0	C	1	1	704	1	poli_8sides 8_whiteLine3.jpg	MediumShort_e16_cut1_stereo_44KHz.wav
1	149	3	3	2	I	1	0	1076	0	poli_8sides 3_whiteLine3.jpg	MediumShort_e22_cut1_stereo_44KHz.wav
1	150	2	2	1	C	2	1	823	1	poli_8sides 2_whiteLine3.jpg	MediumShort_e16_cut1_stereo_44KHz.wav
1	151	4	3	2	I	2	0	675	0	poli_8sides 18_whiteLine3.jpg	MediumShort_e22_cut1_stereo_44KHz.wav
1	152	1	1	1	C	2	1	1566	1	poli_8sides 8_whiteLine3.jpg	MediumShort_b16_cut3_MS_stereo_44KHz.wav
1	153	2	1	0	C	1	1	966	1	poli_8sides 2_whiteLine3.jpg	MediumShort_b16_cut3_MS_stereo_44KHz.wav
1	154	1	2	0	C	1	1	758	1	poli_8sides 8_whiteLine3.jpg	MediumShort_e16_cut1_stereo_44KHz.wav
1	155	3	3	2	I	1	0	837	0	poli_8sides 3_whiteLine3.jpg	MediumShort_e22_cut1_stereo_44KHz.wav
1	156	4	3	2	I	1	0	723	1	poli_8sides 18_whiteLine3.jpg	MediumShort_e22_cut1_stereo_44KHz.wav
1	157	3	4	2	I	1	0	799	1	poli_8sides 3_whiteLine3.jpg	MediumShort_b10_cut1_MS_stereo_44KHz.wav
1	158	1	1	1	C	2	1	1026	1	poli_8sides 8_whiteLine3.jpg	MediumShort_b16_cut3_MS_stereo_44KHz.wav
1	159	2	2	1	C	2	1	935	1	poli_8sides 2_whiteLine3.jpg	MediumShort_e16_cut1_stereo_44KHz.wav
1	160	4	4	2	I	2	0	1157	0	poli_8sides 18_whiteLine3.jpg	MediumShort_b10_cut1_MS_stereo_44KHz.wav
1	161	1	1	1	C	2	1	1032	1	poli_8sides 8_whiteLine3.jpg	MediumShort_b16_cut3_MS_stereo_44KHz.wav
1	162	2	1	0	C	1	1	1004	1	poli_8sides 2_whiteLine3.jpg	MediumShort_b16_cut3_MS_stereo_44KHz.wav
1	163	3	4	2	I	1	0	830	0	poli_8sides 3_whiteLine3.jpg	MediumShort_b10_cut1_MS_stereo_44KHz.wav
1	164	4	3	2	I	1	0	1262	1	poli_8sides 18_whiteLine3.jpg	MediumShort_e22_cut1_stereo_44KHz.wav
1	165	2	2	1	C	2	1	700	1	poli_8sides 2_whiteLine3.jpg	MediumShort_e16_cut1_stereo_44KHz.wav
1	166	4	4	2	I	2	0	1204	0	poli_8sides 18_whiteLine3.jpg	MediumShort_b10_cut1_MS_stereo_44KHz.wav
1	167	3	3	2	I	1	0	837	0	poli_8sides 3_whiteLine3.jpg	MediumShort_e22_cut1_stereo_44KHz.wav
1	168	1	2	0	C	1	1	745	1	poli_8sides 8_whiteLine3.jpg	MediumShort_e16_cut1_stereo_44KHz.wav
1	169	2	1	0	C	1	1	763	1	poli_8sides 2_whiteLine3.jpg	MediumShort_b16_cut3_MS_stereo_44KHz.wav
1	170	3	4	2	I	1	0	776	0	poli_8sides 3_whiteLine3.jpg	MediumShort_b10_cut1_MS_stereo_44KHz.wav
1	171	4	4	2	I	2	0	1094	0	poli_8sides 18_whiteLine3.jpg	MediumShort_b10_cut1_MS_stereo_44KHz.wav
1	172	1	1	1	C	2	1	799	1	poli_8sides 8_whiteLine3.jpg	MediumShort_b16_cut3_MS_stereo_44KHz.wav
1	173	2	2	1	C	2	1	731	1	poli_8sides 2_whiteLine3.jpg	MediumShort_e16_cut1_stereo_44KHz.wav
1	174	3	3	2	I	1	0	1450	1	poli_8sides 3_whiteLine3.jpg	MediumShort_e22_cut1_stereo_44KHz.wav
1	175	4	3	2	I	2	0	1216	0	poli_8sides 18_whiteLine3.jpg	MediumShort_e22_cut1_stereo_44KHz.wav
1	176	1	2	0	C	1	1	758	1	poli_8sides 8_whiteLine3.jpg	MediumShort_e16_cut1_stereo_44KHz.wav
1	177	4	3	2	I	2	0	677	0	poli_8sides 18_whiteLine3.jpg	MediumShort_e22_cut1_stereo_44KHz.wav
1	178	1	2	0	C	1	1	597	1	poli_8sides 8_whiteLine3.jpg	MediumShort_e16_cut1_stereo_44KHz.wav
1	179	2	1	0	C	1	1	735	1	poli_8sides 2_whiteLine3.jpg	MediumShort_b16_cut3_MS_stereo_44KHz.wav
1	180	3	4	2	I	1	0	676	0	poli_8sides 3_whiteLine3.jpg	MediumShort_b10_cut1_MS_stereo_44KHz.wav
1	181	4	4	2	I	1	0	613	1	poli_8sides 18_whiteLine3.jpg	MediumShort_b10_cut1_MS_stereo_44KHz.wav
1	182	3	3	2	I	1	0	626	0	poli_8sides 3_whiteLine3.jpg	MediumShort_e22_cut1_stereo_44KHz.wav
1	183	1	1	1	C	2	1	975	1	poli_8sides 8_whiteLine3.jpg	MediumShort_b16_cut3_MS_stereo_44KHz.wav
1	184	2	2	1	C	2	1	592	1	poli_8sides 2_whiteLine3.jpg	MediumShort_e16_cut1_stereo_44KHz.wav
1	185	1	1	1	C	2	1	768	1	poli_8sides 8_whiteLine3.jpg	MediumShort_b16_cut3_MS_stereo_44KHz.wav
1	186	3	4	2	I	1	0	756	1	poli_8sides 3_whiteLine3.jpg	MediumShort_b10_cut1_MS_stereo_44KHz.wav
1	187	2	2	1	C	2	1	1114	1	poli_8sides 2_whiteLine3.jpg	MediumShort_e16_cut1_stereo_44KHz.wav
1	188	4	3	2	I	1	0	1436	1	poli_8sides 18_whiteLine3.jpg	MediumShort_e22_cut1_stereo_44KHz.wav
1	189	1	2	0	C	1	1	1095	1	poli_8sides 8_whiteLine3.jpg	MediumShort_e16_cut1_stereo_44KHz.wav
1	190	3	3	2	I	1	0	1017	1	poli_8sides 3_whiteLine3.jpg	MediumShort_e22_cut1_stereo_44KHz.wav
1	191	4	4	2	I	1	0	1316	1	poli_8sides 18_whiteLine3.jpg	MediumShort_b10_cut1_MS_stereo_44KHz.wav
1	192	2	1	0	C	1	1	972	1	poli_8sides 2_whiteLine3.jpg	MediumShort_b16_cut3_MS_stereo_44KHz.wav
1	193	1	2	0	C	1	1	935	1	poli_8sides 8_whiteLine3.jpg	MediumShort_e16_cut1_stereo_44KHz.wav
1	194	4	4	2	I	1	0	632	1	poli_8sides 18_whiteLine3.jpg	MediumShort_b10_cut1_MS_stereo_44KHz.wav
1	195	3	4	2	I	1	0	862	1	poli_8sides 3_whiteLine3.jpg	MediumShort_b10_cut1_MS_stereo_44KHz.wav
1	196	2	2	1	C	2	1	858	1	poli_8sides 2_whiteLine3.jpg	MediumShort_e16_cut1_stereo_44KHz.wav
1	197	4	3	2	I	1	0	1059	1	poli_8sides 18_whiteLine3.jpg	MediumShort_e22_cut1_stereo_44KHz.wav
1	198	1	1	1	C	2	1	823	1	poli_8sides 8_whiteLine3.jpg	MediumShort_b16_cut3_MS_stereo_44KHz.wav
1	199	3	3	2	I	1	0	743	1	poli_8sides 3_whiteLine3.jpg	MediumShort_e22_cut1_stereo_44KHz.wav
1	200	2	1	0	C	2	0	625	0	poli_8sides 2_whiteLine3.jpg	MediumShort_b16_cut3_MS_stereo_44KHz.wav
2	1	2	2	1	C	1	0	1304	0	poli_8sides 16_whiteLine3.jpg	Medium_e26_stereo_44KHz.wav
2	2	1	2	0	C	1	1	653	1	poli_8sides 13_whiteLine3.jpg	Medium_e26_stereo_44KHz.wav
2	3	3	4	2	I	1	0	1692	0	poli_8sides 12_whiteLine3.jpg	Medium_e01_cut1_stereo_44KHz.wav
2	4	4	3	2	I	1	0	701	1	poli_8sides 10_whiteLine3.jpg	MediumLong_e04_stereo_44KHz.wav
2	5	3	3	2	I	2	0	1341	0	poli_8sides 12_whiteLine3.jpg	MediumLong_e04_stereo_44KHz.wav
2	6	2	1	0	C	2	0	891	0	poli_8sides 16_whiteLine3.jpg	MediumLong_e17_cut2_stereo_44KHz.wav
2	7	1	1	1	C	2	1	661	1	poli_8sides 13_whiteLine3.jpg	MediumLong_e17_cut2_stereo_44KHz.wav
2	8	4	4	2	I	2	0	841	1	poli_8sides 10_whiteLine3.jpg	Medium_e01_cut1_stereo_44KHz.wav
2	9	3	4	2	I	1	0	1359	0	poli_8sides 12_whiteLine3.jpg	Medium_e01_cut1_stereo_44KHz.wav
2	10	2	2	1	C	1	0	1165	0	poli_8sides 16_whiteLine3.jpg	Medium_e26_stereo_44KHz.wav
2	11	4	3	2	I	1	0	575	1	poli_8sides 10_whiteLine3.jpg	MediumLong_e04_stereo_44KHz.wav
2	12	1	1	1	C	0	0	0	0	poli_8sides 13_whiteLine3.jpg	MediumLong_e17_cut2_stereo_44KHz.wav
2	13	2	1	0	C	1	1	1111	1	poli_8sides 16_whiteLine3.jpg	MediumLong_e17_cut2_stereo_44KHz.wav
2	14	1	2	0	C	1	1	771	1	poli_8sides 13_whiteLine3.jpg	Medium_e26_stereo_44KHz.wav
2	15	3	3	2	I	2	0	720	0	poli_8sides 12_whiteLine3.jpg	MediumLong_e04_stereo_44KHz.wav
2	16	4	4	2	I	2	0	810	0	poli_8sides 10_whiteLine3.jpg	Medium_e01_cut1_stereo_44KHz.wav
2	17	2	2	1	C	2	1	756	1	poli_8sides 16_whiteLine3.jpg	Medium_e26_stereo_44KHz.wav
2	18	4	4	2	I	1	0	310	0	poli_8sides 10_whiteLine3.jpg	Medium_e01_cut1_stereo_44KHz.wav
2	19	3	3	2	I	2	0	1453	0	poli_8sides 12_whiteLine3.jpg	MediumLong_e04_stereo_44KHz.wav
2	20	1	1	1	C	1	0	740	0	poli_8sides 13_whiteLine3.jpg	MediumLong_e17_cut2_stereo_44KHz.wav
2	21	3	4	2	I	1	0	1016	1	poli_8sides 12_whiteLine3.jpg	Medium_e01_cut1_stereo_44KHz.wav
2	22	2	1	0	C	1	1	509	1	poli_8sides 16_whiteLine3.jpg	MediumLong_e17_cut2_stereo_44KHz.wav
2	23	1	2	0	C	1	1	1071	1	poli_8sides 13_whiteLine3.jpg	Medium_e26_stereo_44KHz.wav
2	24	4	3	2	I	1	0	709	1	poli_8sides 10_whiteLine3.jpg	MediumLong_e04_stereo_44KHz.wav
2	25	3	3	2	I	2	0	607	1	poli_8sides 12_whiteLine3.jpg	MediumLong_e04_stereo_44KHz.wav
2	26	1	1	1	C	1	0	782	0	poli_8sides 13_whiteLine3.jpg	MediumLong_e17_cut2_stereo_44KHz.wav
2	27	2	2	1	C	1	0	346	0	poli_8sides 16_whiteLine3.jpg	Medium_e26_stereo_44KHz.wav
2	28	4	3	2	I	1	0	256	1	poli_8sides 10_whiteLine3.jpg	MediumLong_e04_stereo_44KHz.wav
2	29	3	4	2	I	2	0	833	1	poli_8sides 12_whiteLine3.jpg	Medium_e01_cut1_stereo_44KHz.wav
2	30	2	1	0	C	1	1	864	1	poli_8sides 16_whiteLine3.jpg	MediumLong_e17_cut2_stereo_44KHz.wav
2	31	4	4	2	I	2	0	1201	0	poli_8sides 10_whiteLine3.jpg	Medium_e01_cut1_stereo_44KHz.wav
2	32	1	2	0	C	1	1	990	1	poli_8sides 13_whiteLine3.jpg	Medium_e26_stereo_44KHz.wav
2	33	3	4	2	I	1	0	620	1	poli_8sides 12_whiteLine3.jpg	Medium_e01_cut1_stereo_44KHz.wav
2	34	2	1	0	C	1	1	557	1	poli_8sides 16_whiteLine3.jpg	MediumLong_e17_cut2_stereo_44KHz.wav
2	35	4	4	2	I	2	0	413	1	poli_8sides 10_whiteLine3.jpg	Medium_e01_cut1_stereo_44KHz.wav
2	36	1	2	0	C	2	0	550	0	poli_8sides 13_whiteLine3.jpg	Medium_e26_stereo_44KHz.wav
2	37	3	3	2	I	1	0	223	1	poli_8sides 12_whiteLine3.jpg	MediumLong_e04_stereo_44KHz.wav
2	38	4	3	2	I	1	0	422	0	poli_8sides 10_whiteLine3.jpg	MediumLong_e04_stereo_44KHz.wav
2	39	1	1	1	C	2	1	432	1	poli_8sides 13_whiteLine3.jpg	MediumLong_e17_cut2_stereo_44KHz.wav
2	40	2	2	1	C	1	0	400	0	poli_8sides 16_whiteLine3.jpg	Medium_e26_stereo_44KHz.wav
2	41	3	3	2	I	0	0	0	0	poli_8sides 12_whiteLine3.jpg	MediumLong_e04_stereo_44KHz.wav
2	42	2	1	0	C	1	1	1017	1	poli_8sides 16_whiteLine3.jpg	MediumLong_e17_cut2_stereo_44KHz.wav
2	43	1	1	1	C	2	1	387	1	poli_8sides 13_whiteLine3.jpg	MediumLong_e17_cut2_stereo_44KHz.wav
2	44	4	4	2	I	1	0	577	1	poli_8sides 10_whiteLine3.jpg	Medium_e01_cut1_stereo_44KHz.wav
2	45	1	2	0	C	2	0	452	0	poli_8sides 13_whiteLine3.jpg	Medium_e26_stereo_44KHz.wav
2	46	4	3	2	I	2	0	213	1	poli_8sides 10_whiteLine3.jpg	MediumLong_e04_stereo_44KHz.wav
2	47	2	2	1	C	2	1	599	1	poli_8sides 16_whiteLine3.jpg	Medium_e26_stereo_44KHz.wav
2	48	3	4	2	I	1	0	540	1	poli_8sides 12_whiteLine3.jpg	Medium_e01_cut1_stereo_44KHz.wav
2	49	4	4	2	I	1	0	497	0	poli_8sides 10_whiteLine3.jpg	Medium_e01_cut1_stereo_44KHz.wav
2	50	3	4	2	I	1	0	432	1	poli_8sides 12_whiteLine3.jpg	Medium_e01_cut1_stereo_44KHz.wav
2	51	1	1	1	C	2	1	373	1	poli_8sides 13_whiteLine3.jpg	MediumLong_e17_cut2_stereo_44KHz.wav
2	52	2	2	1	C	2	1	209	1	poli_8sides 16_whiteLine3.jpg	Medium_e26_stereo_44KHz.wav
2	53	1	2	0	C	2	0	308	0	poli_8sides 13_whiteLine3.jpg	Medium_e26_stereo_44KHz.wav
2	54	4	3	2	I	2	0	195	0	poli_8sides 10_whiteLine3.jpg	MediumLong_e04_stereo_44KHz.wav
2	55	2	1	0	C	2	0	587	0	poli_8sides 16_whiteLine3.jpg	MediumLong_e17_cut2_stereo_44KHz.wav
2	56	3	3	2	I	2	0	1218	0	poli_8sides 12_whiteLine3.jpg	MediumLong_e04_stereo_44KHz.wav
2	57	4	4	2	I	1	0	401	0	poli_8sides 10_whiteLine3.jpg	Medium_e01_cut1_stereo_44KHz.wav
2	58	1	2	0	C	1	1	973	1	poli_8sides 13_whiteLine3.jpg	Medium_e26_stereo_44KHz.wav
2	59	2	2	1	C	1	0	1156	0	poli_8sides 16_whiteLine3.jpg	Medium_e26_stereo_44KHz.wav
2	60	3	4	2	I	1	0	785	1	poli_8sides 12_whiteLine3.jpg	Medium_e01_cut1_stereo_44KHz.wav
2	61	4	3	2	I	1	0	877	0	poli_8sides 10_whiteLine3.jpg	MediumLong_e04_stereo_44KHz.wav
2	62	1	1	1	C	1	0	662	0	poli_8sides 13_whiteLine3.jpg	MediumLong_e17_cut2_stereo_44KHz.wav
2	63	3	3	2	I	1	0	432	0	poli_8sides 12_whiteLine3.jpg	MediumLong_e04_stereo_44KHz.wav
2	64	2	1	0	C	1	1	487	1	poli_8sides 16_whiteLine3.jpg	MediumLong_e17_cut2_stereo_44KHz.wav
2	65	3	4	2	I	1	0	276	1	poli_8sides 12_whiteLine3.jpg	Medium_e01_cut1_stereo_44KHz.wav
2	66	2	1	0	C	1	1	880	1	poli_8sides 16_whiteLine3.jpg	MediumLong_e17_cut2_stereo_44KHz.wav
2	67	4	3	2	I	1	0	583	1	poli_8sides 10_whiteLine3.jpg	MediumLong_e04_stereo_44KHz.wav
2	68	1	2	0	C	2	0	487	0	poli_8sides 13_whiteLine3.jpg	Medium_e26_stereo_44KHz.wav
2	69	2	2	1	C	1	0	277	0	poli_8sides 16_whiteLine3.jpg	Medium_e26_stereo_44KHz.wav
2	70	4	4	2	I	2	0	876	0	poli_8sides 10_whiteLine3.jpg	Medium_e01_cut1_stereo_44KHz.wav
2	71	3	3	2	I	2	0	1797	1	poli_8sides 12_whiteLine3.jpg	MediumLong_e04_stereo_44KHz.wav
2	72	1	1	1	C	1	0	664	0	poli_8sides 13_whiteLine3.jpg	MediumLong_e17_cut2_stereo_44KHz.wav
2	73	2	2	1	C	1	0	712	0	poli_8sides 16_whiteLine3.jpg	Medium_e26_stereo_44KHz.wav
2	74	3	4	2	I	1	0	1305	0	poli_8sides 12_whiteLine3.jpg	Medium_e01_cut1_stereo_44KHz.wav
2	75	1	2	0	C	1	1	353	1	poli_8sides 13_whiteLine3.jpg	Medium_e26_stereo_44KHz.wav
2	76	4	3	2	I	1	0	402	0	poli_8sides 10_whiteLine3.jpg	MediumLong_e04_stereo_44KHz.wav
2	77	3	3	2	I	1	0	346	1	poli_8sides 12_whiteLine3.jpg	MediumLong_e04_stereo_44KHz.wav
2	78	1	1	1	C	1	0	829	0	poli_8sides 13_whiteLine3.jpg	MediumLong_e17_cut2_stereo_44KHz.wav
2	79	2	1	0	C	1	1	555	1	poli_8sides 16_whiteLine3.jpg	MediumLong_e17_cut2_stereo_44KHz.wav
2	80	4	4	2	I	1	0	532	1	poli_8sides 10_whiteLine3.jpg	Medium_e01_cut1_stereo_44KHz.wav
2	81	2	2	1	C	2	1	825	1	poli_8sides 16_whiteLine3.jpg	Medium_e26_stereo_44KHz.wav
2	82	1	2	0	C	1	1	696	1	poli_8sides 13_whiteLine3.jpg	Medium_e26_stereo_44KHz.wav
2	83	3	3	2	I	2	0	972	1	poli_8sides 12_whiteLine3.jpg	MediumLong_e04_stereo_44KHz.wav
2	84	4	3	2	I	1	0	711	0	poli_8sides 10_whiteLine3.jpg	MediumLong_e04_stereo_44KHz.wav
2	85	3	4	2	I	1	0	897	0	poli_8sides 12_whiteLine3.jpg	Medium_e01_cut1_stereo_44KHz.wav
2	86	1	1	1	C	1	0	670	0	poli_8sides 13_whiteLine3.jpg	MediumLong_e17_cut2_stereo_44KHz.wav
2	87	2	1	0	C	1	1	382	1	poli_8sides 16_whiteLine3.jpg	MediumLong_e17_cut2_stereo_44KHz.wav
2	88	4	4	2	I	1	0	423	1	poli_8sides 10_whiteLine3.jpg	Medium_e01_cut1_stereo_44KHz.wav
2	89	2	2	1	C	1	0	332	0	poli_8sides 16_whiteLine3.jpg	Medium_e26_stereo_44KHz.wav
2	90	4	4	2	I	1	0	285	0	poli_8sides 10_whiteLine3.jpg	Medium_e01_cut1_stereo_44KHz.wav
2	91	3	4	2	I	1	0	61	0	poli_8sides 12_whiteLine3.jpg	Medium_e01_cut1_stereo_44KHz.wav
2	92	1	2	0	C	2	0	832	0	poli_8sides 13_whiteLine3.jpg	Medium_e26_stereo_44KHz.wav
2	93	4	3	2	I	1	0	542	0	poli_8sides 10_whiteLine3.jpg	MediumLong_e04_stereo_44KHz.wav
2	94	1	1	1	C	1	0	541	0	poli_8sides 13_whiteLine3.jpg	MediumLong_e17_cut2_stereo_44KHz.wav
2	95	3	3	2	I	1	0	538	0	poli_8sides 12_whiteLine3.jpg	MediumLong_e04_stereo_44KHz.wav
2	96	2	1	0	C	1	1	660	1	poli_8sides 16_whiteLine3.jpg	MediumLong_e17_cut2_stereo_44KHz.wav
2	97	3	4	2	I	1	0	581	0	poli_8sides 12_whiteLine3.jpg	Medium_e01_cut1_stereo_44KHz.wav
2	98	1	2	0	C	1	1	556	1	poli_8sides 13_whiteLine3.jpg	Medium_e26_stereo_44KHz.wav
2	99	2	2	1	C	2	1	957	1	poli_8sides 16_whiteLine3.jpg	Medium_e26_stereo_44KHz.wav
2	100	4	4	2	I	1	0	566	0	poli_8sides 10_whiteLine3.jpg	Medium_e01_cut1_stereo_44KHz.wav
2	101	3	3	2	I	2	0	1291	1	poli_8sides 12_whiteLine3.jpg	MediumLong_e04_stereo_44KHz.wav
2	102	4	3	2	I	1	0	818	1	poli_8sides 10_whiteLine3.jpg	MediumLong_e04_stereo_44KHz.wav
2	103	2	1	0	C	1	1	976	1	poli_8sides 16_whiteLine3.jpg	MediumLong_e17_cut2_stereo_44KHz.wav
2	104	1	1	1	C	2	1	653	1	poli_8sides 13_whiteLine3.jpg	MediumLong_e17_cut2_stereo_44KHz.wav
2	105	4	4	2	I	1	0	1157	0	poli_8sides 10_whiteLine3.jpg	Medium_e01_cut1_stereo_44KHz.wav
2	106	2	1	0	C	1	1	605	1	poli_8sides 16_whiteLine3.jpg	MediumLong_e17_cut2_stereo_44KHz.wav
2	107	1	2	0	C	1	1	672	1	poli_8sides 13_whiteLine3.jpg	Medium_e26_stereo_44KHz.wav
2	108	3	3	2	I	1	0	742	0	poli_8sides 12_whiteLine3.jpg	MediumLong_e04_stereo_44KHz.wav
2	109	2	2	1	C	1	0	687	0	poli_8sides 16_whiteLine3.jpg	Medium_e26_stereo_44KHz.wav
2	110	1	1	1	C	1	0	762	0	poli_8sides 13_whiteLine3.jpg	MediumLong_e17_cut2_stereo_44KHz.wav
2	111	4	3	2	I	1	0	799	1	poli_8sides 10_whiteLine3.jpg	MediumLong_e04_stereo_44KHz.wav
2	112	3	4	2	I	1	0	881	1	poli_8sides 12_whiteLine3.jpg	Medium_e01_cut1_stereo_44KHz.wav
2	113	2	2	1	C	1	0	847	0	poli_8sides 16_whiteLine3.jpg	Medium_e26_stereo_44KHz.wav
2	114	3	3	2	I	1	0	1159	1	poli_8sides 12_whiteLine3.jpg	MediumLong_e04_stereo_44KHz.wav
2	115	4	3	2	I	1	0	686	1	poli_8sides 10_whiteLine3.jpg	MediumLong_e04_stereo_44KHz.wav
2	116	1	1	1	C	1	0	587	0	poli_8sides 13_whiteLine3.jpg	MediumLong_e17_cut2_stereo_44KHz.wav
2	117	2	1	0	C	1	1	512	1	poli_8sides 16_whiteLine3.jpg	MediumLong_e17_cut2_stereo_44KHz.wav
2	118	3	4	2	I	1	0	781	0	poli_8sides 12_whiteLine3.jpg	Medium_e01_cut1_stereo_44KHz.wav
2	119	4	4	2	I	1	0	807	1	poli_8sides 10_whiteLine3.jpg	Medium_e01_cut1_stereo_44KHz.wav
2	120	1	2	0	C	1	1	764	1	poli_8sides 13_whiteLine3.jpg	Medium_e26_stereo_44KHz.wav
2	121	2	2	1	C	1	0	810	0	poli_8sides 16_whiteLine3.jpg	Medium_e26_stereo_44KHz.wav
2	122	3	4	2	I	1	0	832	0	poli_8sides 12_whiteLine3.jpg	Medium_e01_cut1_stereo_44KHz.wav
2	123	1	2	0	C	1	1	729	1	poli_8sides 13_whiteLine3.jpg	Medium_e26_stereo_44KHz.wav
2	124	4	4	2	I	1	0	702	1	poli_8sides 10_whiteLine3.jpg	Medium_e01_cut1_stereo_44KHz.wav
2	125	1	1	1	C	1	0	1133	0	poli_8sides 13_whiteLine3.jpg	MediumLong_e17_cut2_stereo_44KHz.wav
2	126	3	3	2	I	1	0	979	0	poli_8sides 12_whiteLine3.jpg	MediumLong_e04_stereo_44KHz.wav
2	127	4	3	2	I	1	0	601	0	poli_8sides 10_whiteLine3.jpg	MediumLong_e04_stereo_44KHz.wav
2	128	2	1	0	C	1	1	1037	1	poli_8sides 16_whiteLine3.jpg	MediumLong_e17_cut2_stereo_44KHz.wav
2	129	3	3	2	I	1	0	886	1	poli_8sides 12_whiteLine3.jpg	MediumLong_e04_stereo_44KHz.wav
2	130	4	4	2	I	1	0	930	0	poli_8sides 10_whiteLine3.jpg	Medium_e01_cut1_stereo_44KHz.wav
2	131	2	1	0	C	1	1	1117	1	poli_8sides 16_whiteLine3.jpg	MediumLong_e17_cut2_stereo_44KHz.wav
2	132	1	1	1	C	1	0	1178	0	poli_8sides 13_whiteLine3.jpg	MediumLong_e17_cut2_stereo_44KHz.wav
2	133	3	4	2	I	1	0	877	0	poli_8sides 12_whiteLine3.jpg	Medium_e01_cut1_stereo_44KHz.wav
2	134	4	3	2	I	1	0	696	1	poli_8sides 10_whiteLine3.jpg	MediumLong_e04_stereo_44KHz.wav
2	135	2	2	1	C	1	0	847	0	poli_8sides 16_whiteLine3.jpg	Medium_e26_stereo_44KHz.wav
2	136	1	2	0	C	1	1	595	1	poli_8sides 13_whiteLine3.jpg	Medium_e26_stereo_44KHz.wav
2	137	2	2	1	C	2	1	844	1	poli_8sides 16_whiteLine3.jpg	Medium_e26_stereo_44KHz.wav
2	138	3	3	2	I	1	0	837	0	poli_8sides 12_whiteLine3.jpg	MediumLong_e04_stereo_44KHz.wav
2	139	1	2	0	C	1	1	1190	1	poli_8sides 13_whiteLine3.jpg	Medium_e26_stereo_44KHz.wav
2	140	4	4	2	I	1	0	662	0	poli_8sides 10_whiteLine3.jpg	Medium_e01_cut1_stereo_44KHz.wav
2	141	3	4	2	I	1	0	799	1	poli_8sides 12_whiteLine3.jpg	Medium_e01_cut1_stereo_44KHz.wav
2	142	4	3	2	I	1	0	682	1	poli_8sides 10_whiteLine3.jpg	MediumLong_e04_stereo_44KHz.wav
2	143	1	1	1	C	1	0	925	0	poli_8sides 13_whiteLine3.jpg	MediumLong_e17_cut2_stereo_44KHz.wav
2	144	2	1	0	C	1	1	594	1	poli_8sides 16_whiteLine3.jpg	MediumLong_e17_cut2_stereo_44KHz.wav
2	145	1	1	1	C	1	0	953	0	poli_8sides 13_whiteLine3.jpg	MediumLong_e17_cut2_stereo_44KHz.wav
2	146	4	4	2	I	1	0	1106	1	poli_8sides 10_whiteLine3.jpg	Medium_e01_cut1_stereo_44KHz.wav
2	147	2	2	1	C	1	0	803	0	poli_8sides 16_whiteLine3.jpg	Medium_e26_stereo_44KHz.wav
2	148	3	4	2	I	1	0	1022	0	poli_8sides 12_whiteLine3.jpg	Medium_e01_cut1_stereo_44KHz.wav
2	149	2	1	0	C	1	1	967	1	poli_8sides 16_whiteLine3.jpg	MediumLong_e17_cut2_stereo_44KHz.wav
2	150	1	2	0	C	2	0	882	0	poli_8sides 13_whiteLine3.jpg	Medium_e26_stereo_44KHz.wav
2	151	3	3	2	I	1	0	854	1	poli_8sides 12_whiteLine3.jpg	MediumLong_e04_stereo_44KHz.wav
2	152	4	3	2	I	1	0	1015	1	poli_8sides 10_whiteLine3.jpg	MediumLong_e04_stereo_44KHz.wav
2	153	3	3	2	I	1	0	740	0	poli_8sides 12_whiteLine3.jpg	MediumLong_e04_stereo_44KHz.wav
2	154	1	1	1	C	1	0	670	0	poli_8sides 13_whiteLine3.jpg	MediumLong_e17_cut2_stereo_44KHz.wav
2	155	2	2	1	C	1	0	651	0	poli_8sides 16_whiteLine3.jpg	Medium_e26_stereo_44KHz.wav
2	156	4	3	2	I	1	0	791	0	poli_8sides 10_whiteLine3.jpg	MediumLong_e04_stereo_44KHz.wav
2	157	1	2	0	C	1	1	485	1	poli_8sides 13_whiteLine3.jpg	Medium_e26_stereo_44KHz.wav
2	158	3	4	2	I	1	0	608	1	poli_8sides 12_whiteLine3.jpg	Medium_e01_cut1_stereo_44KHz.wav
2	159	4	4	2	I	1	0	427	0	poli_8sides 10_whiteLine3.jpg	Medium_e01_cut1_stereo_44KHz.wav
2	160	2	1	0	C	2	0	770	0	poli_8sides 16_whiteLine3.jpg	MediumLong_e17_cut2_stereo_44KHz.wav
2	161	1	2	0	C	1	1	637	1	poli_8sides 13_whiteLine3.jpg	Medium_e26_stereo_44KHz.wav
2	162	4	3	2	I	1	0	635	1	poli_8sides 10_whiteLine3.jpg	MediumLong_e04_stereo_44KHz.wav
2	163	3	3	2	I	2	0	754	1	poli_8sides 12_whiteLine3.jpg	MediumLong_e04_stereo_44KHz.wav
2	164	2	1	0	C	1	1	572	1	poli_8sides 16_whiteLine3.jpg	MediumLong_e17_cut2_stereo_44KHz.wav
2	165	3	4	2	I	1	0	817	0	poli_8sides 12_whiteLine3.jpg	Medium_e01_cut1_stereo_44KHz.wav
2	166	4	4	2	I	1	0	615	1	poli_8sides 10_whiteLine3.jpg	Medium_e01_cut1_stereo_44KHz.wav
2	167	1	1	1	C	1	0	760	0	poli_8sides 13_whiteLine3.jpg	MediumLong_e17_cut2_stereo_44KHz.wav
2	168	2	2	1	C	1	0	856	0	poli_8sides 16_whiteLine3.jpg	Medium_e26_stereo_44KHz.wav
2	169	1	1	1	C	1	0	324	0	poli_8sides 13_whiteLine3.jpg	MediumLong_e17_cut2_stereo_44KHz.wav
2	170	2	2	1	C	1	0	378	0	poli_8sides 16_whiteLine3.jpg	Medium_e26_stereo_44KHz.wav
2	171	3	3	2	I	1	0	178	0	poli_8sides 12_whiteLine3.jpg	MediumLong_e04_stereo_44KHz.wav
2	172	4	4	2	I	1	0	563	1	poli_8sides 10_whiteLine3.jpg	Medium_e01_cut1_stereo_44KHz.wav
2	173	3	4	2	I	1	0	675	0	poli_8sides 12_whiteLine3.jpg	Medium_e01_cut1_stereo_44KHz.wav
2	174	2	1	0	C	2	0	691	0	poli_8sides 16_whiteLine3.jpg	MediumLong_e17_cut2_stereo_44KHz.wav
2	175	1	2	0	C	1	1	393	1	poli_8sides 13_whiteLine3.jpg	Medium_e26_stereo_44KHz.wav
2	176	4	3	2	I	1	0	384	0	poli_8sides 10_whiteLine3.jpg	MediumLong_e04_stereo_44KHz.wav
2	177	1	1	1	C	1	0	410	0	poli_8sides 13_whiteLine3.jpg	MediumLong_e17_cut2_stereo_44KHz.wav
2	178	3	3	2	I	1	0	1643	0	poli_8sides 12_whiteLine3.jpg	MediumLong_e04_stereo_44KHz.wav
2	179	4	4	2	I	1	0	326	0	poli_8sides 10_whiteLine3.jpg	Medium_e01_cut1_stereo_44KHz.wav
2	180	2	1	0	C	1	1	366	1	poli_8sides 16_whiteLine3.jpg	MediumLong_e17_cut2_stereo_44KHz.wav
2	181	3	4	2	I	1	0	444	0	poli_8sides 12_whiteLine3.jpg	Medium_e01_cut1_stereo_44KHz.wav
2	182	4	3	2	I	1	0	270	0	poli_8sides 10_whiteLine3.jpg	MediumLong_e04_stereo_44KHz.wav
2	183	2	2	1	C	1	0	584	0	poli_8sides 16_whiteLine3.jpg	Medium_e26_stereo_44KHz.wav
2	184	1	2	0	C	1	1	313	1	poli_8sides 13_whiteLine3.jpg	Medium_e26_stereo_44KHz.wav
2	185	4	4	2	I	1	0	560	0	poli_8sides 10_whiteLine3.jpg	Medium_e01_cut1_stereo_44KHz.wav
2	186	2	1	0	C	2	0	437	0	poli_8sides 16_whiteLine3.jpg	MediumLong_e17_cut2_stereo_44KHz.wav
2	187	1	1	1	C	1	0	611	0	poli_8sides 13_whiteLine3.jpg	MediumLong_e17_cut2_stereo_44KHz.wav
2	188	3	4	2	I	1	0	838	1	poli_8sides 12_whiteLine3.jpg	Medium_e01_cut1_stereo_44KHz.wav
2	189	2	2	1	C	1	0	676	0	poli_8sides 16_whiteLine3.jpg	Medium_e26_stereo_44KHz.wav
2	190	1	2	0	C	2	0	301	0	poli_8sides 13_whiteLine3.jpg	Medium_e26_stereo_44KHz.wav
2	191	4	3	2	I	2	0	225	1	poli_8sides 10_whiteLine3.jpg	MediumLong_e04_stereo_44KHz.wav
2	192	3	3	2	I	2	0	683	1	poli_8sides 12_whiteLine3.jpg	MediumLong_e04_stereo_44KHz.wav
2	193	2	1	0	C	1	1	635	1	poli_8sides 16_whiteLine3.jpg	MediumLong_e17_cut2_stereo_44KHz.wav
2	194	4	4	2	I	1	0	590	0	poli_8sides 10_whiteLine3.jpg	Medium_e01_cut1_stereo_44KHz.wav
2	195	1	1	1	C	1	0	611	0	poli_8sides 13_whiteLine3.jpg	MediumLong_e17_cut2_stereo_44KHz.wav
2	196	3	3	2	I	1	0	432	1	poli_8sides 12_whiteLine3.jpg	MediumLong_e04_stereo_44KHz.wav
2	197	1	2	0	C	1	1	716	1	poli_8sides 13_whiteLine3.jpg	Medium_e26_stereo_44KHz.wav
2	198	3	4	2	I	1	0	552	1	poli_8sides 12_whiteLine3.jpg	Medium_e01_cut1_stereo_44KHz.wav
2	199	2	2	1	C	1	0	667	0	poli_8sides 16_whiteLine3.jpg	Medium_e26_stereo_44KHz.wav
2	200	4	3	2	I	1	0	611	1	poli_8sides 10_whiteLine3.jpg	MediumLong_e04_stereo_44KHz.wav
3	1	1	2	0	C	1	1	961	1	poli_8sides 4_whiteLine3.jpg	Short_b22_cut1_stereo_44KHz.wav
3	2	3	4	2	I	1	0	1104	0	poli_8sides 6_whiteLine3.jpg	Short_b20_cut1_stereo_44KHz.wav
3	3	2	1	0	C	1	1	245	1	poli_8sides 7_whiteLine3.jpg	Short_b23_cut1_stereo_44KHz.wav
3	4	4	3	2	I	1	0	259	1	poli_8sides 15_whiteLine3.jpg	Short_b09_cut1_stereo_44KHz.wav
3	5	2	2	1	C	1	0	381	0	poli_8sides 7_whiteLine3.jpg	Short_b22_cut1_stereo_44KHz.wav
3	6	4	4	2	I	1	0	437	1	poli_8sides 15_whiteLine3.jpg	Short_b20_cut1_stereo_44KHz.wav
3	7	3	3	2	I	1	0	257	0	poli_8sides 6_whiteLine3.jpg	Short_b09_cut1_stereo_44KHz.wav
3	8	1	1	1	C	1	0	260	0	poli_8sides 4_whiteLine3.jpg	Short_b23_cut1_stereo_44KHz.wav
3	9	2	2	1	C	2	1	364	1	poli_8sides 7_whiteLine3.jpg	Short_b22_cut1_stereo_44KHz.wav
3	10	3	3	2	I	2	0	489	1	poli_8sides 6_whiteLine3.jpg	Short_b09_cut1_stereo_44KHz.wav
3	11	4	4	2	I	2	0	243	0	poli_8sides 15_whiteLine3.jpg	Short_b20_cut1_stereo_44KHz.wav
3	12	1	1	1	C	1	0	249	0	poli_8sides 4_whiteLine3.jpg	Short_b23_cut1_stereo_44KHz.wav
3	13	3	4	2	I	1	0	472	0	poli_8sides 6_whiteLine3.jpg	Short_b20_cut1_stereo_44KHz.wav
3	14	4	3	2	I	2	0	128	1	poli_8sides 15_whiteLine3.jpg	Short_b09_cut1_stereo_44KHz.wav
3	15	1	2	0	C	2	0	212	0	poli_8sides 4_whiteLine3.jpg	Short_b22_cut1_stereo_44KHz.wav
3	16	2	1	0	C	1	1	581	1	poli_8sides 7_whiteLine3.jpg	Short_b23_cut1_stereo_44KHz.wav
3	17	1	2	0	C	1	1	306	1	poli_8sides 4_whiteLine3.jpg	Short_b22_cut1_stereo_44KHz.wav
3	18	3	4	2	I	1	0	355	0	poli_8sides 6_whiteLine3.jpg	Short_b20_cut1_stereo_44KHz.wav
3	19	4	4	2	I	1	0	716	1	poli_8sides 15_whiteLine3.jpg	Short_b20_cut1_stereo_44KHz.wav
3	20	2	2	1	C	1	0	357	0	poli_8sides 7_whiteLine3.jpg	Short_b22_cut1_stereo_44KHz.wav
3	21	1	1	1	C	2	1	324	1	poli_8sides 4_whiteLine3.jpg	Short_b23_cut1_stereo_44KHz.wav
3	22	2	1	0	C	2	0	122	0	poli_8sides 7_whiteLine3.jpg	Short_b23_cut1_stereo_44KHz.wav
3	23	4	3	2	I	2	0	245	0	poli_8sides 15_whiteLine3.jpg	Short_b09_cut1_stereo_44KHz.wav
3	24	3	3	2	I	2	0	261	0	poli_8sides 6_whiteLine3.jpg	Short_b09_cut1_stereo_44KHz.wav
3	25	1	1	1	C	1	0	228	0	poli_8sides 4_whiteLine3.jpg	Short_b23_cut1_stereo_44KHz.wav
3	26	3	4	2	I	2	0	206	1	poli_8sides 6_whiteLine3.jpg	Short_b20_cut1_stereo_44KHz.wav
3	27	2	2	1	C	1	0	512	0	poli_8sides 7_whiteLine3.jpg	Short_b22_cut1_stereo_44KHz.wav
3	28	4	4	2	I	2	0	373	1	poli_8sides 15_whiteLine3.jpg	Short_b20_cut1_stereo_44KHz.wav
3	29	3	3	2	I	2	0	260	1	poli_8sides 6_whiteLine3.jpg	Short_b09_cut1_stereo_44KHz.wav
3	30	2	1	0	C	1	1	303	1	poli_8sides 7_whiteLine3.jpg	Short_b23_cut1_stereo_44KHz.wav
3	31	1	2	0	C	1	1	326	1	poli_8sides 4_whiteLine3.jpg	Short_b22_cut1_stereo_44KHz.wav
3	32	4	3	2	I	1	0	293	1	poli_8sides 15_whiteLine3.jpg	Short_b09_cut1_stereo_44KHz.wav
3	33	1	2	0	C	1	1	522	1	poli_8sides 4_whiteLine3.jpg	Short_b22_cut1_stereo_44KHz.wav
3	34	2	1	0	C	1	1	232	1	poli_8sides 7_whiteLine3.jpg	Short_b23_cut1_stereo_44KHz.wav
3	35	3	3	2	I	1	0	316	1	poli_8sides 6_whiteLine3.jpg	Short_b09_cut1_stereo_44KHz.wav
3	36	4	4	2	I	1	0	445	0	poli_8sides 15_whiteLine3.jpg	Short_b20_cut1_stereo_44KHz.wav
3	37	2	2	1	C	2	1	425	1	poli_8sides 7_whiteLine3.jpg	Short_b22_cut1_stereo_44KHz.wav
3	38	4	3	2	I	2	0	326	0	poli_8sides 15_whiteLine3.jpg	Short_b09_cut1_stereo_44KHz.wav
3	39	1	1	1	C	1	0	238	0	poli_8sides 4_whiteLine3.jpg	Short_b23_cut1_stereo_44KHz.wav
3	40	3	4	2	I	2	0	1277	1	poli_8sides 6_whiteLine3.jpg	Short_b20_cut1_stereo_44KHz.wav
3	41	4	4	2	I	1	0	281	0	poli_8sides 15_whiteLine3.jpg	Short_b20_cut1_stereo_44KHz.wav
3	42	2	1	0	C	2	0	370	0	poli_8sides 7_whiteLine3.jpg	Short_b23_cut1_stereo_44KHz.wav
3	43	1	1	1	C	1	0	300	0	poli_8sides 4_whiteLine3.jpg	Short_b23_cut1_stereo_44KHz.wav
3	44	3	3	2	I	1	0	266	1	poli_8sides 6_whiteLine3.jpg	Short_b09_cut1_stereo_44KHz.wav
3	45	2	2	1	C	1	0	292	0	poli_8sides 7_whiteLine3.jpg	Short_b22_cut1_stereo_44KHz.wav
3	46	1	2	0	C	1	1	383	1	poli_8sides 4_whiteLine3.jpg	Short_b22_cut1_stereo_44KHz.wav
3	47	4	3	2	I	1	0	318	0	poli_8sides 15_whiteLine3.jpg	Short_b09_cut1_stereo_44KHz.wav
3	48	3	4	2	I	1	0	338	1	poli_8sides 6_whiteLine3.jpg	Short_b20_cut1_stereo_44KHz.wav
3	49	4	4	2	I	2	0	94	1	poli_8sides 15_whiteLine3.jpg	Short_b20_cut1_stereo_44KHz.wav
3	50	1	1	1	C	1	0	333	0	poli_8sides 4_whiteLine3.jpg	Short_b23_cut1_stereo_44KHz.wav
3	51	2	2	1	C	2	1	108	1	poli_8sides 7_whiteLine3.jpg	Short_b22_cut1_stereo_44KHz.wav
3	52	3	4	2	I	2	0	132	0	poli_8sides 6_whiteLine3.jpg	Short_b20_cut1_stereo_44KHz.wav
3	53	2	1	0	C	1	1	303	1	poli_8sides 7_whiteLine3.jpg	Short_b23_cut1_stereo_44KHz.wav
3	54	3	3	2	I	1	0	634	0	poli_8sides 6_whiteLine3.jpg	Short_b09_cut1_stereo_44KHz.wav
3	55	1	2	0	C	1	1	340	1	poli_8sides 4_whiteLine3.jpg	Short_b22_cut1_stereo_44KHz.wav
3	56	4	3	2	I	1	0	256	1	poli_8sides 15_whiteLine3.jpg	Short_b09_cut1_stereo_44KHz.wav
3	57	1	2	0	C	1	1	337	1	poli_8sides 4_whiteLine3.jpg	Short_b22_cut1_stereo_44KHz.wav
3	58	4	4	2	I	2	0	315	0	poli_8sides 15_whiteLine3.jpg	Short_b20_cut1_stereo_44KHz.wav
3	59	3	4	2	I	1	0	271	0	poli_8sides 6_whiteLine3.jpg	Short_b20_cut1_stereo_44KHz.wav
3	60	2	1	0	C	1	1	297	1	poli_8sides 7_whiteLine3.jpg	Short_b23_cut1_stereo_44KHz.wav
3	61	1	1	1	C	1	0	231	0	poli_8sides 4_whiteLine3.jpg	Short_b23_cut1_stereo_44KHz.wav
3	62	4	3	2	I	1	0	452	1	poli_8sides 15_whiteLine3.jpg	Short_b09_cut1_stereo_44KHz.wav
3	63	2	2	1	C	1	0	267	0	poli_8sides 7_whiteLine3.jpg	Short_b22_cut1_stereo_44KHz.wav
3	64	3	3	2	I	2	0	306	0	poli_8sides 6_whiteLine3.jpg	Short_b09_cut1_stereo_44KHz.wav
3	65	2	1	0	C	2	0	291	0	poli_8sides 7_whiteLine3.jpg	Short_b23_cut1_stereo_44KHz.wav
3	66	4	4	2	I	2	0	303	0	poli_8sides 15_whiteLine3.jpg	Short_b20_cut1_stereo_44KHz.wav
3	67	3	4	2	I	1	0	235	0	poli_8sides 6_whiteLine3.jpg	Short_b20_cut1_stereo_44KHz.wav
3	68	1	2	0	C	1	1	470	1	poli_8sides 4_whiteLine3.jpg	Short_b22_cut1_stereo_44KHz.wav
3	69	4	3	2	I	2	0	261	0	poli_8sides 15_whiteLine3.jpg	Short_b09_cut1_stereo_44KHz.wav
3	70	3	3	2	I	1	0	567	0	poli_8sides 6_whiteLine3.jpg	Short_b09_cut1_stereo_44KHz.wav
3	71	1	1	1	C	1	0	329	0	poli_8sides 4_whiteLine3.jpg	Short_b23_cut1_stereo_44KHz.wav
3	72	2	2	1	C	1	0	62	0	poli_8sides 7_whiteLine3.jpg	Short_b22_cut1_stereo_44KHz.wav
3	73	1	1	1	C	1	0	71	0	poli_8sides 4_whiteLine3.jpg	Short_b23_cut1_stereo_44KHz.wav
3	74	4	3	2	I	2	0	1548	1	poli_8sides 15_whiteLine3.jpg	Short_b09_cut1_stereo_44KHz.wav
3	75	2	2	1	C	1	0	618	0	poli_8sides 7_whiteLine3.jpg	Short_b22_cut1_stereo_44KHz.wav
3	76	3	3	2	I	1	0	681	1	poli_8sides 6_whiteLine3.jpg	Short_b09_cut1_stereo_44KHz.wav
3	77	2	1	0	C	1	1	696	1	poli_8sides 7_whiteLine3.jpg	Short_b23_cut1_stereo_44KHz.wav
3	78	3	4	2	I	1	0	827	1	poli_8sides 6_whiteLine3.jpg	Short_b20_cut1_stereo_44KHz.wav
3	79	1	2	0	C	1	1	630	1	poli_8sides 4_whiteLine3.jpg	Short_b22_cut1_stereo_44KHz.wav
3	80	4	4	2	I	1	0	475	1	poli_8sides 15_whiteLine3.jpg	Short_b20_cut1_stereo_44KHz.wav
3	81	3	3	2	I	1	0	364	1	poli_8sides 6_whiteLine3.jpg	Short_b09_cut1_stereo_44KHz.wav
3	82	1	1	1	C	1	0	372	0	poli_8sides 4_whiteLine3.jpg	Short_b23_cut1_stereo_44KHz.wav
3	83	2	1	0	C	1	1	514	1	poli_8sides 7_whiteLine3.jpg	Short_b23_cut1_stereo_44KHz.wav
3	84	4	4	2	I	2	0	852	0	poli_8sides 15_whiteLine3.jpg	Short_b20_cut1_stereo_44KHz.wav
3	85	2	2	1	C	1	0	454	0	poli_8sides 7_whiteLine3.jpg	Short_b22_cut1_stereo_44KHz.wav
3	86	3	4	2	I	2	0	814	1	poli_8sides 6_whiteLine3.jpg	Short_b20_cut1_stereo_44KHz.wav
3	87	4	3	2	I	1	0	707	0	poli_8sides 15_whiteLine3.jpg	Short_b09_cut1_stereo_44KHz.wav
3	88	1	2	0	C	1	1	300	1	poli_8sides 4_whiteLine3.jpg	Short_b22_cut1_stereo_44KHz.wav
3	89	3	4	2	I	1	0	458	0	poli_8sides 6_whiteLine3.jpg	Short_b20_cut1_stereo_44KHz.wav
3	90	1	2	0	C	1	1	321	1	poli_8sides 4_whiteLine3.jpg	Short_b22_cut1_stereo_44KHz.wav
3	91	2	2	1	C	1	0	486	0	poli_8sides 7_whiteLine3.jpg	Short_b22_cut1_stereo_44KHz.wav
3	92	4	4	2	I	1	0	290	1	poli_8sides 15_whiteLine3.jpg	Short_b20_cut1_stereo_44KHz.wav
3	93	3	3	2	I	1	0	393	1	poli_8sides 6_whiteLine3.jpg	Short_b09_cut1_stereo_44KHz.wav
3	94	4	3	2	I	1	0	769	0	poli_8sides 15_whiteLine3.jpg	Short_b09_cut1_stereo_44KHz.wav
3	95	1	1	1	C	1	0	431	0	poli_8sides 4_whiteLine3.jpg	Short_b23_cut1_stereo_44KHz.wav
3	96	2	1	0	C	1	1	113	1	poli_8sides 7_whiteLine3.jpg	Short_b23_cut1_stereo_44KHz.wav
3	97	4	4	2	I	2	0	763	1	poli_8sides 15_whiteLine3.jpg	Short_b20_cut1_stereo_44KHz.wav
3	98	3	4	2	I	1	0	1044	0	poli_8sides 6_whiteLine3.jpg	Short_b20_cut1_stereo_44KHz.wav
3	99	1	1	1	C	1	0	578	0	poli_8sides 4_whiteLine3.jpg	Short_b23_cut1_stereo_44KHz.wav
3	100	2	1	0	C	1	1	934	1	poli_8sides 7_whiteLine3.jpg	Short_b23_cut1_stereo_44KHz.wav
3	101	1	2	0	C	1	1	293	1	poli_8sides 4_whiteLine3.jpg	Short_b22_cut1_stereo_44KHz.wav
3	102	3	3	2	I	2	0	401	1	poli_8sides 6_whiteLine3.jpg	Short_b09_cut1_stereo_44KHz.wav
3	103	4	3	2	I	1	0	330	0	poli_8sides 15_whiteLine3.jpg	Short_b09_cut1_stereo_44KHz.wav
3	104	2	2	1	C	1	0	91	0	poli_8sides 7_whiteLine3.jpg	Short_b22_cut1_stereo_44KHz.wav
3	105	3	4	2	I	1	0	162	1	poli_8sides 6_whiteLine3.jpg	Short_b20_cut1_stereo_44KHz.wav
3	106	4	4	2	I	1	0	380	0	poli_8sides 15_whiteLine3.jpg	Short_b20_cut1_stereo_44KHz.wav
3	107	1	2	0	C	1	1	247	1	poli_8sides 4_whiteLine3.jpg	Short_b22_cut1_stereo_44KHz.wav
3	108	2	1	0	C	2	0	770	0	poli_8sides 7_whiteLine3.jpg	Short_b23_cut1_stereo_44KHz.wav
3	109	1	1	1	C	1	0	228	0	poli_8sides 4_whiteLine3.jpg	Short_b23_cut1_stereo_44KHz.wav
3	110	3	3	2	I	1	0	149	1	poli_8sides 6_whiteLine3.jpg	Short_b09_cut1_stereo_44KHz.wav
3	111	2	2	1	C	2	1	1196	1	poli_8sides 7_whiteLine3.jpg	Short_b22_cut1_stereo_44KHz.wav
3	112	4	3	2	I	2	0	208	0	poli_8sides 15_whiteLine3.jpg	Short_b09_cut1_stereo_44KHz.wav
3	113	2	1	0	C	2	0	205	0	poli_8sides 7_whiteLine3.jpg	Short_b23_cut1_stereo_44KHz.wav
3	114	3	4	2	I	1	0	114	1	poli_8sides 6_whiteLine3.jpg	Short_b20_cut1_stereo_44KHz.wav
3	115	4	3	2	I	1	0	404	1	poli_8sides 15_whiteLine3.jpg	Short_b09_cut1_stereo_44KHz.wav
3	116	1	2	0	C	1	1	459	1	poli_8sides 4_whiteLine3.jpg	Short_b22_cut1_stereo_44KHz.wav
3	117	4	4	2	I	1	0	573	0	poli_8sides 15_whiteLine3.jpg	Short_b20_cut1_stereo_44KHz.wav
3	118	3	3	2	I	1	0	859	0	poli_8sides 6_whiteLine3.jpg	Short_b09_cut1_stereo_44KHz.wav
3	119	2	2	1	C	1	0	617	0	poli_8sides 7_whiteLine3.jpg	Short_b22_cut1_stereo_44KHz.wav
3	120	1	1	1	C	1	0	570	0	poli_8sides 4_whiteLine3.jpg	Short_b23_cut1_stereo_44KHz.wav
3	121	2	2	1	C	2	1	832	1	poli_8sides 7_whiteLine3.jpg	Short_b22_cut1_stereo_44KHz.wav
3	122	1	2	0	C	1	1	405	1	poli_8sides 4_whiteLine3.jpg	Short_b22_cut1_stereo_44KHz.wav
3	123	3	4	2	I	1	0	474	0	poli_8sides 6_whiteLine3.jpg	Short_b20_cut1_stereo_44KHz.wav
3	124	4	3	2	I	1	0	861	1	poli_8sides 15_whiteLine3.jpg	Short_b09_cut1_stereo_44KHz.wav
3	125	1	1	1	C	1	0	357	0	poli_8sides 4_whiteLine3.jpg	Short_b23_cut1_stereo_44KHz.wav
3	126	4	4	2	I	1	0	146	1	poli_8sides 15_whiteLine3.jpg	Short_b20_cut1_stereo_44KHz.wav
3	127	2	1	0	C	1	1	195	1	poli_8sides 7_whiteLine3.jpg	Short_b23_cut1_stereo_44KHz.wav
3	128	3	3	2	I	1	0	211	1	poli_8sides 6_whiteLine3.jpg	Short_b09_cut1_stereo_44KHz.wav
3	129	2	1	0	C	2	0	258	0	poli_8sides 7_whiteLine3.jpg	Short_b23_cut1_stereo_44KHz.wav
3	130	1	2	0	C	2	0	1028	0	poli_8sides 4_whiteLine3.jpg	Short_b22_cut1_stereo_44KHz.wav
3	131	3	4	2	I	1	0	523	0	poli_8sides 6_whiteLine3.jpg	Short_b20_cut1_stereo_44KHz.wav
3	132	4	3	2	I	1	0	525	0	poli_8sides 15_whiteLine3.jpg	Short_b09_cut1_stereo_44KHz.wav
3	133	2	2	1	C	2	1	1252	1	poli_8sides 7_whiteLine3.jpg	Short_b22_cut1_stereo_44KHz.wav
3	134	3	3	2	I	2	0	1000	1	poli_8sides 6_whiteLine3.jpg	Short_b09_cut1_stereo_44KHz.wav
3	135	4	4	2	I	1	0	1207	0	poli_8sides 15_whiteLine3.jpg	Short_b20_cut1_stereo_44KHz.wav
3	136	1	1	1	C	1	0	650	0	poli_8sides 4_whiteLine3.jpg	Short_b23_cut1_stereo_44KHz.wav
3	137	4	3	2	I	1	0	678	1	poli_8sides 15_whiteLine3.jpg	Short_b09_cut1_stereo_44KHz.wav
3	138	2	2	1	C	1	0	526	0	poli_8sides 7_whiteLine3.jpg	Short_b22_cut1_stereo_44KHz.wav
3	139	1	1	1	C	2	1	979	1	poli_8sides 4_whiteLine3.jpg	Short_b23_cut1_stereo_44KHz.wav
3	140	3	3	2	I	2	0	1047	0	poli_8sides 6_whiteLine3.jpg	Short_b09_cut1_stereo_44KHz.wav
3	141	1	2	0	C	1	1	697	1	poli_8sides 4_whiteLine3.jpg	Short_b22_cut1_stereo_44KHz.wav
3	142	3	4	2	I	1	0	225	0	poli_8sides 6_whiteLine3.jpg	Short_b20_cut1_stereo_44KHz.wav
3	143	4	4	2	I	1	0	166	0	poli_8sides 15_whiteLine3.jpg	Short_b20_cut1_stereo_44KHz.wav
3	144	2	1	0	C	2	0	217	0	poli_8sides 7_whiteLine3.jpg	Short_b23_cut1_stereo_44KHz.wav
3	145	1	1	1	C	1	0	431	0	poli_8sides 4_whiteLine3.jpg	Short_b23_cut1_stereo_44KHz.wav
3	146	3	3	2	I	1	0	504	1	poli_8sides 6_whiteLine3.jpg	Short_b09_cut1_stereo_44KHz.wav
3	147	2	2	1	C	1	0	620	0	poli_8sides 7_whiteLine3.jpg	Short_b22_cut1_stereo_44KHz.wav
3	148	4	3	2	I	1	0	790	0	poli_8sides 15_whiteLine3.jpg	Short_b09_cut1_stereo_44KHz.wav
3	149	3	4	2	I	2	0	1210	1	poli_8sides 6_whiteLine3.jpg	Short_b20_cut1_stereo_44KHz.wav
3	150	4	4	2	I	2	0	867	0	poli_8sides 15_whiteLine3.jpg	Short_b20_cut1_stereo_44KHz.wav
3	151	2	1	0	C	1	1	636	1	poli_8sides 7_whiteLine3.jpg	Short_b23_cut1_stereo_44KHz.wav
3	152	1	2	0	C	1	1	436	1	poli_8sides 4_whiteLine3.jpg	Short_b22_cut1_stereo_44KHz.wav
3	153	3	4	2	I	1	0	322	0	poli_8sides 6_whiteLine3.jpg	Short_b20_cut1_stereo_44KHz.wav
3	154	1	2	0	C	1	1	209	1	poli_8sides 4_whiteLine3.jpg	Short_b22_cut1_stereo_44KHz.wav
3	155	2	2	1	C	1	0	208	0	poli_8sides 7_whiteLine3.jpg	Short_b22_cut1_stereo_44KHz.wav
3	156	4	3	2	I	1	0	578	1	poli_8sides 15_whiteLine3.jpg	Short_b09_cut1_stereo_44KHz.wav
3	157	2	1	0	C	1	1	619	1	poli_8sides 7_whiteLine3.jpg	Short_b23_cut1_stereo_44KHz.wav
3	158	1	1	1	C	1	0	499	0	poli_8sides 4_whiteLine3.jpg	Short_b23_cut1_stereo_44KHz.wav
3	159	3	3	2	I	1	0	675	0	poli_8sides 6_whiteLine3.jpg	Short_b09_cut1_stereo_44KHz.wav
3	160	4	4	2	I	1	0	223	1	poli_8sides 15_whiteLine3.jpg	Short_b20_cut1_stereo_44KHz.wav
3	161	3	3	2	I	2	0	309	0	poli_8sides 6_whiteLine3.jpg	Short_b09_cut1_stereo_44KHz.wav
3	162	2	1	0	C	1	1	281	1	poli_8sides 7_whiteLine3.jpg	Short_b23_cut1_stereo_44KHz.wav
3	163	1	2	0	C	1	1	401	1	poli_8sides 4_whiteLine3.jpg	Short_b22_cut1_stereo_44KHz.wav
3	164	4	4	2	I	1	0	182	1	poli_8sides 15_whiteLine3.jpg	Short_b20_cut1_stereo_44KHz.wav
3	165	2	2	1	C	1	0	741	0	poli_8sides 7_whiteLine3.jpg	Short_b22_cut1_stereo_44KHz.wav
3	166	1	1	1	C	1	0	382	0	poli_8sides 4_whiteLine3.jpg	Short_b23_cut1_stereo_44KHz.wav
3	167	3	4	2	I	1	0	249	1	poli_8sides 6_whiteLine3.jpg	Short_b20_cut1_stereo_44KHz.wav
3	168	4	3	2	I	1	0	227	1	poli_8sides 15_whiteLine3.jpg	Short_b09_cut1_stereo_44KHz.wav
3	169	2	2	1	C	1	0	469	0	poli_8sides 7_whiteLine3.jpg	Short_b22_cut1_stereo_44KHz.wav
3	170	3	4	2	I	2	0	532	0	poli_8sides 6_whiteLine3.jpg	Short_b20_cut1_stereo_44KHz.wav
3	171	4	4	2	I	1	0	296	1	poli_8sides 15_whiteLine3.jpg	Short_b20_cut1_stereo_44KHz.wav
3	172	1	2	0	C	2	0	630	0	poli_8sides 4_whiteLine3.jpg	Short_b22_cut1_stereo_44KHz.wav
3	173	3	3	2	I	1	0	368	0	poli_8sides 6_whiteLine3.jpg	Short_b09_cut1_stereo_44KHz.wav
3	174	4	3	2	I	1	0	275	1	poli_8sides 15_whiteLine3.jpg	Short_b09_cut1_stereo_44KHz.wav
3	175	1	1	1	C	1	0	594	0	poli_8sides 4_whiteLine3.jpg	Short_b23_cut1_stereo_44KHz.wav
3	176	2	1	0	C	1	1	256	1	poli_8sides 7_whiteLine3.jpg	Short_b23_cut1_stereo_44KHz.wav
3	177	3	4	2	I	1	0	625	1	poli_8sides 6_whiteLine3.jpg	Short_b20_cut1_stereo_44KHz.wav
3	178	2	2	1	C	1	0	274	0	poli_8sides 7_whiteLine3.jpg	Short_b22_cut1_stereo_44KHz.wav
3	179	4	3	2	I	1	0	363	0	poli_8sides 15_whiteLine3.jpg	Short_b09_cut1_stereo_44KHz.wav
3	180	1	2	0	C	2	0	224	0	poli_8sides 4_whiteLine3.jpg	Short_b22_cut1_stereo_44KHz.wav
3	181	4	4	2	I	1	0	415	1	poli_8sides 15_whiteLine3.jpg	Short_b20_cut1_stereo_44KHz.wav
3	182	3	3	2	I	1	0	109	1	poli_8sides 6_whiteLine3.jpg	Short_b09_cut1_stereo_44KHz.wav
3	183	2	1	0	C	1	1	377	1	poli_8sides 7_whiteLine3.jpg	Short_b23_cut1_stereo_44KHz.wav
3	184	1	1	1	C	1	0	206	0	poli_8sides 4_whiteLine3.jpg	Short_b23_cut1_stereo_44KHz.wav
3	185	4	4	2	I	1	0	541	1	poli_8sides 15_whiteLine3.jpg	Short_b20_cut1_stereo_44KHz.wav
3	186	1	2	0	C	1	1	362	1	poli_8sides 4_whiteLine3.jpg	Short_b22_cut1_stereo_44KHz.wav
3	187	2	2	1	C	2	1	408	1	poli_8sides 7_whiteLine3.jpg	Short_b22_cut1_stereo_44KHz.wav
3	188	3	3	2	I	2	0	1480	1	poli_8sides 6_whiteLine3.jpg	Short_b09_cut1_stereo_44KHz.wav
3	189	1	1	1	C	1	0	628	0	poli_8sides 4_whiteLine3.jpg	Short_b23_cut1_stereo_44KHz.wav
3	190	3	4	2	I	1	0	666	0	poli_8sides 6_whiteLine3.jpg	Short_b20_cut1_stereo_44KHz.wav
3	191	4	3	2	I	2	0	373	0	poli_8sides 15_whiteLine3.jpg	Short_b09_cut1_stereo_44KHz.wav
3	192	2	1	0	C	1	1	679	1	poli_8sides 7_whiteLine3.jpg	Short_b23_cut1_stereo_44KHz.wav
3	193	3	3	2	I	1	0	701	1	poli_8sides 6_whiteLine3.jpg	Short_b09_cut1_stereo_44KHz.wav
3	194	1	2	0	C	1	1	619	1	poli_8sides 4_whiteLine3.jpg	Short_b22_cut1_stereo_44KHz.wav
3	195	4	4	2	I	2	0	796	0	poli_8sides 15_whiteLine3.jpg	Short_b20_cut1_stereo_44KHz.wav
3	196	2	2	1	C	1	0	333	0	poli_8sides 7_whiteLine3.jpg	Short_b22_cut1_stereo_44KHz.wav
3	197	3	4	2	I	1	0	841	0	poli_8sides 6_whiteLine3.jpg	Short_b20_cut1_stereo_44KHz.wav
3	198	2	1	0	C	1	1	281	1	poli_8sides 7_whiteLine3.jpg	Short_b23_cut1_stereo_44KHz.wav
3	199	4	3	2	I	1	0	639	0	poli_8sides 15_whiteLine3.jpg	Short_b09_cut1_stereo_44KHz.wav
3	200	1	1	1	C	1	0	441	0	poli_8sides 4_whiteLine3.jpg	Short_b23_cut1_stereo_44KHz.wav
4	1	4	3	2	I	1	0	343	0	poli_8sides 11_whiteLine3.jpg	MediumLong_e19_stereo_44KHz.wav
4	2	1	1	1	C	2	1	245	1	poli_8sides 9_whiteLine3.jpg	Medium_e13_stereo_44KHz.wav
4	3	3	3	2	I	1	0	526	1	poli_8sides 1_whiteLine3.jpg	MediumLong_e19_stereo_44KHz.wav
4	4	2	2	1	C	1	0	701	0	poli_8sides 5_whiteLine3.jpg	MediumLong_b10_cut2_L_stereo_44KHz.wav
4	5	4	4	2	I	1	0	1321	0	poli_8sides 11_whiteLine3.jpg	Medium_e21_stereo_44KHz.wav
4	6	1	2	0	C	1	1	1455	1	poli_8sides 9_whiteLine3.jpg	MediumLong_b10_cut2_L_stereo_44KHz.wav
4	7	3	4	2	I	1	0	716	0	poli_8sides 1_whiteLine3.jpg	Medium_e21_stereo_44KHz.wav
4	8	2	1	0	C	1	1	1012	1	poli_8sides 5_whiteLine3.jpg	Medium_e13_stereo_44KHz.wav
4	9	1	1	1	C	2	1	827	1	poli_8sides 9_whiteLine3.jpg	Medium_e13_stereo_44KHz.wav
4	10	3	4	2	I	1	0	705	1	poli_8sides 1_whiteLine3.jpg	Medium_e21_stereo_44KHz.wav
4	11	2	2	1	C	2	1	981	1	poli_8sides 5_whiteLine3.jpg	MediumLong_b10_cut2_L_stereo_44KHz.wav
4	12	4	4	2	I	2	0	1123	1	poli_8sides 11_whiteLine3.jpg	Medium_e21_stereo_44KHz.wav
4	13	1	2	0	C	2	0	1406	0	poli_8sides 9_whiteLine3.jpg	MediumLong_b10_cut2_L_stereo_44KHz.wav
4	14	4	3	2	I	2	0	1560	0	poli_8sides 11_whiteLine3.jpg	MediumLong_e19_stereo_44KHz.wav
4	15	2	1	0	C	1	1	950	1	poli_8sides 5_whiteLine3.jpg	Medium_e13_stereo_44KHz.wav
4	16	3	3	2	I	1	0	932	1	poli_8sides 1_whiteLine3.jpg	MediumLong_e19_stereo_44KHz.wav
4	17	1	1	1	C	2	1	970	1	poli_8sides 9_whiteLine3.jpg	Medium_e13_stereo_44KHz.wav
4	18	4	4	2	I	1	0	1223	0	poli_8sides 11_whiteLine3.jpg	Medium_e21_stereo_44KHz.wav
4	19	2	1	0	C	1	1	1060	1	poli_8sides 5_whiteLine3.jpg	Medium_e13_stereo_44KHz.wav
4	20	3	3	2	I	1	0	1136	0	poli_8sides 1_whiteLine3.jpg	MediumLong_e19_stereo_44KHz.wav
4	21	4	3	2	I	1	0	1012	0	poli_8sides 11_whiteLine3.jpg	MediumLong_e19_stereo_44KHz.wav
4	22	2	2	1	C	2	1	936	1	poli_8sides 5_whiteLine3.jpg	MediumLong_b10_cut2_L_stereo_44KHz.wav
4	23	3	4	2	I	1	0	800	1	poli_8sides 1_whiteLine3.jpg	Medium_e21_stereo_44KHz.wav
4	24	1	2	0	C	1	1	1078	1	poli_8sides 9_whiteLine3.jpg	MediumLong_b10_cut2_L_stereo_44KHz.wav
4	25	4	4	2	I	1	0	770	1	poli_8sides 11_whiteLine3.jpg	Medium_e21_stereo_44KHz.wav
4	26	1	1	1	C	1	0	764	0	poli_8sides 9_whiteLine3.jpg	Medium_e13_stereo_44KHz.wav
4	27	2	1	0	C	1	1	618	1	poli_8sides 5_whiteLine3.jpg	Medium_e13_stereo_44KHz.wav
4	28	3	3	2	I	1	0	878	1	poli_8sides 1_whiteLine3.jpg	MediumLong_e19_stereo_44KHz.wav
4	29	2	2	1	C	2	1	974	1	poli_8sides 5_whiteLine3.jpg	MediumLong_b10_cut2_L_stereo_44KHz.wav
4	30	3	4	2	I	1	0	987	1	poli_8sides 1_whiteLine3.jpg	Medium_e21_stereo_44KHz.wav
4	31	1	2	0	C	1	1	972	1	poli_8sides 9_whiteLine3.jpg	MediumLong_b10_cut2_L_stereo_44KHz.wav
4	32	4	3	2	I	1	0	990	0	poli_8sides 11_whiteLine3.jpg	MediumLong_e19_stereo_44KHz.wav
4	33	2	2	1	C	2	1	1100	1	poli_8sides 5_whiteLine3.jpg	MediumLong_b10_cut2_L_stereo_44KHz.wav
4	34	3	4	2	I	1	0	642	1	poli_8sides 1_whiteLine3.jpg	Medium_e21_stereo_44KHz.wav
4	35	1	1	1	C	1	0	1343	0	poli_8sides 9_whiteLine3.jpg	Medium_e13_stereo_44KHz.wav
4	36	4	3	2	I	1	0	1160	0	poli_8sides 11_whiteLine3.jpg	MediumLong_e19_stereo_44KHz.wav
4	37	2	1	0	C	1	1	746	1	poli_8sides 5_whiteLine3.jpg	Medium_e13_stereo_44KHz.wav
4	38	3	3	2	I	1	0	690	0	poli_8sides 1_whiteLine3.jpg	MediumLong_e19_stereo_44KHz.wav
4	39	4	4	2	I	1	0	1267	1	poli_8sides 11_whiteLine3.jpg	Medium_e21_stereo_44KHz.wav
4	40	1	2	0	C	1	1	810	1	poli_8sides 9_whiteLine3.jpg	MediumLong_b10_cut2_L_stereo_44KHz.wav
4	41	2	2	1	C	2	1	799	1	poli_8sides 5_whiteLine3.jpg	MediumLong_b10_cut2_L_stereo_44KHz.wav
4	42	3	4	2	I	1	0	764	1	poli_8sides 1_whiteLine3.jpg	Medium_e21_stereo_44KHz.wav
4	43	1	2	0	C	1	1	890	1	poli_8sides 9_whiteLine3.jpg	MediumLong_b10_cut2_L_stereo_44KHz.wav
4	44	4	3	2	I	1	0	1676	0	poli_8sides 11_whiteLine3.jpg	MediumLong_e19_stereo_44KHz.wav
4	45	2	1	0	C	1	1	517	1	poli_8sides 5_whiteLine3.jpg	Medium_e13_stereo_44KHz.wav
4	46	3	3	2	I	1	0	824	0	poli_8sides 1_whiteLine3.jpg	MediumLong_e19_stereo_44KHz.wav
4	47	1	1	1	C	2	1	933	1	poli_8sides 9_whiteLine3.jpg	Medium_e13_stereo_44KHz.wav
4	48	4	4	2	I	1	0	840	1	poli_8sides 11_whiteLine3.jpg	Medium_e21_stereo_44KHz.wav
4	49	1	2	0	C	1	1	785	1	poli_8sides 9_whiteLine3.jpg	MediumLong_b10_cut2_L_stereo_44KHz.wav
4	50	3	3	2	I	1	0	786	1	poli_8sides 1_whiteLine3.jpg	MediumLong_e19_stereo_44KHz.wav
4	51	4	4	2	I	1	0	1459	0	poli_8sides 11_whiteLine3.jpg	Medium_e21_stereo_44KHz.wav
4	52	2	2	1	C	1	0	838	0	poli_8sides 5_whiteLine3.jpg	MediumLong_b10_cut2_L_stereo_44KHz.wav
4	53	3	4	2	I	1	0	795	0	poli_8sides 1_whiteLine3.jpg	Medium_e21_stereo_44KHz.wav
4	54	2	1	0	C	1	1	1306	1	poli_8sides 5_whiteLine3.jpg	Medium_e13_stereo_44KHz.wav
4	55	1	1	1	C	2	1	648	1	poli_8sides 9_whiteLine3.jpg	Medium_e13_stereo_44KHz.wav
4	56	4	3	2	I	1	0	796	1	poli_8sides 11_whiteLine3.jpg	MediumLong_e19_stereo_44KHz.wav
4	57	1	1	1	C	2	1	712	1	poli_8sides 9_whiteLine3.jpg	Medium_e13_stereo_44KHz.wav
4	58	3	3	2	I	1	0	783	0	poli_8sides 1_whiteLine3.jpg	MediumLong_e19_stereo_44KHz.wav
4	59	2	2	1	C	2	1	854	1	poli_8sides 5_whiteLine3.jpg	MediumLong_b10_cut2_L_stereo_44KHz.wav
4	60	4	3	2	I	1	0	717	1	poli_8sides 11_whiteLine3.jpg	MediumLong_e19_stereo_44KHz.wav
4	61	1	2	0	C	1	1	818	1	poli_8sides 9_whiteLine3.jpg	MediumLong_b10_cut2_L_stereo_44KHz.wav
4	62	4	4	2	I	1	0	805	0	poli_8sides 11_whiteLine3.jpg	Medium_e21_stereo_44KHz.wav
4	63	3	4	2	I	1	0	689	0	poli_8sides 1_whiteLine3.jpg	Medium_e21_stereo_44KHz.wav
4	64	2	1	0	C	1	1	922	1	poli_8sides 5_whiteLine3.jpg	Medium_e13_stereo_44KHz.wav
4	65	4	4	2	I	1	0	922	0	poli_8sides 11_whiteLine3.jpg	Medium_e21_stereo_44KHz.wav
4	66	2	1	0	C	1	1	764	1	poli_8sides 5_whiteLine3.jpg	Medium_e13_stereo_44KHz.wav
4	67	1	1	1	C	2	1	883	1	poli_8sides 9_whiteLine3.jpg	Medium_e13_stereo_44KHz.wav
4	68	3	3	2	I	1	0	922	1	poli_8sides 1_whiteLine3.jpg	MediumLong_e19_stereo_44KHz.wav
4	69	4	3	2	I	2	0	846	1	poli_8sides 11_whiteLine3.jpg	MediumLong_e19_stereo_44KHz.wav
4	70	3	4	2	I	1	0	842	1	poli_8sides 1_whiteLine3.jpg	Medium_e21_stereo_44KHz.wav
4	71	1	2	0	C	1	1	733	1	poli_8sides 9_whiteLine3.jpg	MediumLong_b10_cut2_L_stereo_44KHz.wav
4	72	2	2	1	C	1	0	697	0	poli_8sides 5_whiteLine3.jpg	MediumLong_b10_cut2_L_stereo_44KHz.wav
4	73	3	4	2	I	1	0	1113	0	poli_8sides 1_whiteLine3.jpg	Medium_e21_stereo_44KHz.wav
4	74	2	1	0	C	1	1	968	1	poli_8sides 5_whiteLine3.jpg	Medium_e13_stereo_44KHz.wav
4	75	4	4	2	I	2	0	1800	1	poli_8sides 11_whiteLine3.jpg	Medium_e21_stereo_44KHz.wav
4	76	1	2	0	C	1	1	1130	1	poli_8sides 9_whiteLine3.jpg	MediumLong_b10_cut2_L_stereo_44KHz.wav
4	77	2	2	1	C	2	1	725	1	poli_8sides 5_whiteLine3.jpg	MediumLong_b10_cut2_L_stereo_44KHz.wav
4	78	4	3	2	I	1	0	1117	0	poli_8sides 11_whiteLine3.jpg	MediumLong_e19_stereo_44KHz.wav
4	79	1	1	1	C	2	1	1272	1	poli_8sides 9_whiteLine3.jpg	Medium_e13_stereo_44KHz.wav
4	80	3	3	2	I	1	0	1770	0	poli_8sides 1_whiteLine3.jpg	MediumLong_e19_stereo_44KHz.wav
4	81	1	1	1	C	2	1	699	1	poli_8sides 9_whiteLine3.jpg	Medium_e13_stereo_44KHz.wav
4	82	3	3	2	I	1	0	784	1	poli_8sides 1_whiteLine3.jpg	MediumLong_e19_stereo_44KHz.wav
4	83	4	3	2	I	2	0	1133	1	poli_8sides 11_whiteLine3.jpg	MediumLong_e19_stereo_44KHz.wav
4	84	2	2	1	C	2	1	1113	1	poli_8sides 5_whiteLine3.jpg	MediumLong_b10_cut2_L_stereo_44KHz.wav
4	85	3	4	2	I	1	0	803	1	poli_8sides 1_whiteLine3.jpg	Medium_e21_stereo_44KHz.wav
4	86	2	1	0	C	1	1	968	1	poli_8sides 5_whiteLine3.jpg	Medium_e13_stereo_44KHz.wav
4	87	1	2	0	C	1	1	852	1	poli_8sides 9_whiteLine3.jpg	MediumLong_b10_cut2_L_stereo_44KHz.wav
4	88	4	4	2	I	0	0	0	0	poli_8sides 11_whiteLine3.jpg	Medium_e21_stereo_44KHz.wav
4	89	1	2	0	C	1	1	685	1	poli_8sides 9_whiteLine3.jpg	MediumLong_b10_cut2_L_stereo_44KHz.wav
4	90	2	1	0	C	1	1	811	1	poli_8sides 5_whiteLine3.jpg	Medium_e13_stereo_44KHz.wav
4	91	4	4	2	I	2	0	1325	1	poli_8sides 11_whiteLine3.jpg	Medium_e21_stereo_44KHz.wav
4	92	3	4	2	I	1	0	755	0	poli_8sides 1_whiteLine3.jpg	Medium_e21_stereo_44KHz.wav
4	93	2	2	1	C	1	0	772	0	poli_8sides 5_whiteLine3.jpg	MediumLong_b10_cut2_L_stereo_44KHz.wav
4	94	4	3	2	I	1	0	1352	1	poli_8sides 11_whiteLine3.jpg	MediumLong_e19_stereo_44KHz.wav
4	95	1	1	1	C	2	1	860	1	poli_8sides 9_whiteLine3.jpg	Medium_e13_stereo_44KHz.wav
4	96	3	3	2	I	1	0	1260	0	poli_8sides 1_whiteLine3.jpg	MediumLong_e19_stereo_44KHz.wav
4	97	1	1	1	C	2	1	1069	1	poli_8sides 9_whiteLine3.jpg	Medium_e13_stereo_44KHz.wav
4	98	3	4	2	I	1	0	778	0	poli_8sides 1_whiteLine3.jpg	Medium_e21_stereo_44KHz.wav
4	99	2	1	0	C	1	1	741	1	poli_8sides 5_whiteLine3.jpg	Medium_e13_stereo_44KHz.wav
4	100	4	3	2	I	1	0	990	0	poli_8sides 11_whiteLine3.jpg	MediumLong_e19_stereo_44KHz.wav
4	101	2	2	1	C	2	1	779	1	poli_8sides 5_whiteLine3.jpg	MediumLong_b10_cut2_L_stereo_44KHz.wav
4	102	4	4	2	I	1	0	1144	1	poli_8sides 11_whiteLine3.jpg	Medium_e21_stereo_44KHz.wav
4	103	3	3	2	I	1	0	1014	1	poli_8sides 1_whiteLine3.jpg	MediumLong_e19_stereo_44KHz.wav
4	104	1	2	0	C	1	1	1012	1	poli_8sides 9_whiteLine3.jpg	MediumLong_b10_cut2_L_stereo_44KHz.wav
4	105	4	3	2	I	1	0	1121	1	poli_8sides 11_whiteLine3.jpg	MediumLong_e19_stereo_44KHz.wav
4	106	3	3	2	I	1	0	762	0	poli_8sides 1_whiteLine3.jpg	MediumLong_e19_stereo_44KHz.wav
4	107	1	2	0	C	1	1	661	1	poli_8sides 9_whiteLine3.jpg	MediumLong_b10_cut2_L_stereo_44KHz.wav
4	108	2	1	0	C	1	1	858	1	poli_8sides 5_whiteLine3.jpg	Medium_e13_stereo_44KHz.wav
4	109	3	4	2	I	1	0	819	1	poli_8sides 1_whiteLine3.jpg	Medium_e21_stereo_44KHz.wav
4	110	4	4	2	I	2	0	1455	1	poli_8sides 11_whiteLine3.jpg	Medium_e21_stereo_44KHz.wav
4	111	1	1	1	C	2	1	1013	1	poli_8sides 9_whiteLine3.jpg	Medium_e13_stereo_44KHz.wav
4	112	2	2	1	C	2	1	1230	1	poli_8sides 5_whiteLine3.jpg	MediumLong_b10_cut2_L_stereo_44KHz.wav
4	113	3	3	2	I	1	0	1386	1	poli_8sides 1_whiteLine3.jpg	MediumLong_e19_stereo_44KHz.wav
4	114	1	1	1	C	2	1	660	1	poli_8sides 9_whiteLine3.jpg	Medium_e13_stereo_44KHz.wav
4	115	4	3	2	I	1	0	1096	1	poli_8sides 11_whiteLine3.jpg	MediumLong_e19_stereo_44KHz.wav
4	116	2	1	0	C	1	1	639	1	poli_8sides 5_whiteLine3.jpg	Medium_e13_stereo_44KHz.wav
4	117	4	4	2	I	1	0	1071	0	poli_8sides 11_whiteLine3.jpg	Medium_e21_stereo_44KHz.wav
4	118	3	4	2	I	1	0	1222	0	poli_8sides 1_whiteLine3.jpg	Medium_e21_stereo_44KHz.wav
4	119	2	2	1	C	2	1	892	1	poli_8sides 5_whiteLine3.jpg	MediumLong_b10_cut2_L_stereo_44KHz.wav
4	120	1	2	0	C	1	1	1069	1	poli_8sides 9_whiteLine3.jpg	MediumLong_b10_cut2_L_stereo_44KHz.wav
4	121	3	4	2	I	1	0	974	1	poli_8sides 1_whiteLine3.jpg	Medium_e21_stereo_44KHz.wav
4	122	4	4	2	I	2	0	1071	0	poli_8sides 11_whiteLine3.jpg	Medium_e21_stereo_44KHz.wav
4	123	1	2	0	C	1	1	1451	1	poli_8sides 9_whiteLine3.jpg	MediumLong_b10_cut2_L_stereo_44KHz.wav
4	124	2	1	0	C	1	1	756	1	poli_8sides 5_whiteLine3.jpg	Medium_e13_stereo_44KHz.wav
4	125	4	3	2	I	1	0	872	0	poli_8sides 11_whiteLine3.jpg	MediumLong_e19_stereo_44KHz.wav
4	126	3	3	2	I	1	0	678	0	poli_8sides 1_whiteLine3.jpg	MediumLong_e19_stereo_44KHz.wav
4	127	2	2	1	C	2	1	891	1	poli_8sides 5_whiteLine3.jpg	MediumLong_b10_cut2_L_stereo_44KHz.wav
4	128	1	1	1	C	2	1	887	1	poli_8sides 9_whiteLine3.jpg	Medium_e13_stereo_44KHz.wav
4	129	2	1	0	C	1	1	593	1	poli_8sides 5_whiteLine3.jpg	Medium_e13_stereo_44KHz.wav
4	130	3	3	2	I	1	0	903	0	poli_8sides 1_whiteLine3.jpg	MediumLong_e19_stereo_44KHz.wav
4	131	4	4	2	I	2	0	1155	1	poli_8sides 11_whiteLine3.jpg	Medium_e21_stereo_44KHz.wav
4	132	1	2	0	C	2	0	672	0	poli_8sides 9_whiteLine3.jpg	MediumLong_b10_cut2_L_stereo_44KHz.wav
4	133	3	4	2	I	1	0	764	0	poli_8sides 1_whiteLine3.jpg	Medium_e21_stereo_44KHz.wav
4	134	4	3	2	I	2	0	1266	0	poli_8sides 11_whiteLine3.jpg	MediumLong_e19_stereo_44KHz.wav
4	135	1	1	1	C	2	1	784	1	poli_8sides 9_whiteLine3.jpg	Medium_e13_stereo_44KHz.wav
4	136	2	2	1	C	2	1	990	1	poli_8sides 5_whiteLine3.jpg	MediumLong_b10_cut2_L_stereo_44KHz.wav
4	137	3	3	2	I	1	0	822	1	poli_8sides 1_whiteLine3.jpg	MediumLong_e19_stereo_44KHz.wav
4	138	1	1	1	C	2	1	825	1	poli_8sides 9_whiteLine3.jpg	Medium_e13_stereo_44KHz.wav
4	139	2	1	0	C	1	1	837	1	poli_8sides 5_whiteLine3.jpg	Medium_e13_stereo_44KHz.wav
4	140	4	4	2	I	1	0	1018	1	poli_8sides 11_whiteLine3.jpg	Medium_e21_stereo_44KHz.wav
4	141	2	2	1	C	2	1	845	1	poli_8sides 5_whiteLine3.jpg	MediumLong_b10_cut2_L_stereo_44KHz.wav
4	142	4	3	2	I	2	0	1621	1	poli_8sides 11_whiteLine3.jpg	MediumLong_e19_stereo_44KHz.wav
4	143	1	2	0	C	1	1	882	1	poli_8sides 9_whiteLine3.jpg	MediumLong_b10_cut2_L_stereo_44KHz.wav
4	144	3	4	2	I	2	0	1212	0	poli_8sides 1_whiteLine3.jpg	Medium_e21_stereo_44KHz.wav
4	145	2	1	0	C	1	1	910	1	poli_8sides 5_whiteLine3.jpg	Medium_e13_stereo_44KHz.wav
4	146	3	3	2	I	1	0	1351	0	poli_8sides 1_whiteLine3.jpg	MediumLong_e19_stereo_44KHz.wav
4	147	4	4	2	I	1	0	1181	0	poli_8sides 11_whiteLine3.jpg	Medium_e21_stereo_44KHz.wav
4	148	1	1	1	C	2	1	813	1	poli_8sides 9_whiteLine3.jpg	Medium_e13_stereo_44KHz.wav
4	149	3	4	2	I	1	0	1493	0	poli_8sides 1_whiteLine3.jpg	Medium_e21_stereo_44KHz.wav
4	150	2	2	1	C	2	1	758	1	poli_8sides 5_whiteLine3.jpg	MediumLong_b10_cut2_L_stereo_44KHz.wav
4	151	4	3	2	I	2	0	1384	1	poli_8sides 11_whiteLine3.jpg	MediumLong_e19_stereo_44KHz.wav
4	152	1	2	0	C	1	1	729	1	poli_8sides 9_whiteLine3.jpg	MediumLong_b10_cut2_L_stereo_44KHz.wav
4	153	4	3	2	I	2	0	1292	0	poli_8sides 11_whiteLine3.jpg	MediumLong_e19_stereo_44KHz.wav
4	154	3	3	2	I	1	0	618	1	poli_8sides 1_whiteLine3.jpg	MediumLong_e19_stereo_44KHz.wav
4	155	1	1	1	C	2	1	1504	1	poli_8sides 9_whiteLine3.jpg	Medium_e13_stereo_44KHz.wav
4	156	2	2	1	C	1	0	569	0	poli_8sides 5_whiteLine3.jpg	MediumLong_b10_cut2_L_stereo_44KHz.wav
4	157	3	4	2	I	1	0	864	1	poli_8sides 1_whiteLine3.jpg	Medium_e21_stereo_44KHz.wav
4	158	4	4	2	I	1	0	812	1	poli_8sides 11_whiteLine3.jpg	Medium_e21_stereo_44KHz.wav
4	159	2	1	0	C	1	1	1016	1	poli_8sides 5_whiteLine3.jpg	Medium_e13_stereo_44KHz.wav
4	160	1	2	0	C	1	1	1157	1	poli_8sides 9_whiteLine3.jpg	MediumLong_b10_cut2_L_stereo_44KHz.wav
4	161	4	4	2	I	1	0	775	1	poli_8sides 11_whiteLine3.jpg	Medium_e21_stereo_44KHz.wav
4	162	3	3	2	I	1	0	704	1	poli_8sides 1_whiteLine3.jpg	MediumLong_e19_stereo_44KHz.wav
4	163	1	1	1	C	2	1	1257	1	poli_8sides 9_whiteLine3.jpg	Medium_e13_stereo_44KHz.wav
4	164	2	2	1	C	2	1	967	1	poli_8sides 5_whiteLine3.jpg	MediumLong_b10_cut2_L_stereo_44KHz.wav
4	165	3	4	2	I	1	0	989	0	poli_8sides 1_whiteLine3.jpg	Medium_e21_stereo_44KHz.wav
4	166	2	1	0	C	1	1	803	1	poli_8sides 5_whiteLine3.jpg	Medium_e13_stereo_44KHz.wav
4	167	4	3	2	I	2	0	822	0	poli_8sides 11_whiteLine3.jpg	MediumLong_e19_stereo_44KHz.wav
4	168	1	2	0	C	2	0	722	0	poli_8sides 9_whiteLine3.jpg	MediumLong_b10_cut2_L_stereo_44KHz.wav
4	169	2	2	1	C	2	1	725	1	poli_8sides 5_whiteLine3.jpg	MediumLong_b10_cut2_L_stereo_44KHz.wav
4	170	1	2	0	C	1	1	1227	1	poli_8sides 9_whiteLine3.jpg	MediumLong_b10_cut2_L_stereo_44KHz.wav
4	171	3	3	2	I	1	0	893	0	poli_8sides 1_whiteLine3.jpg	MediumLong_e19_stereo_44KHz.wav
4	172	4	3	2	I	1	0	724	1	poli_8sides 11_whiteLine3.jpg	MediumLong_e19_stereo_44KHz.wav
4	173	2	1	0	C	1	1	668	1	poli_8sides 5_whiteLine3.jpg	Medium_e13_stereo_44KHz.wav
4	174	3	4	2	I	1	0	983	1	poli_8sides 1_whiteLine3.jpg	Medium_e21_stereo_44KHz.wav
4	175	4	4	2	I	2	0	1113	0	poli_8sides 11_whiteLine3.jpg	Medium_e21_stereo_44KHz.wav
4	176	1	1	1	C	2	1	810	1	poli_8sides 9_whiteLine3.jpg	Medium_e13_stereo_44KHz.wav
4	177	3	4	2	I	1	0	798	0	poli_8sides 1_whiteLine3.jpg	Medium_e21_stereo_44KHz.wav
4	178	2	1	0	C	1	1	641	1	poli_8sides 5_whiteLine3.jpg	Medium_e13_stereo_44KHz.wav
4	179	1	2	0	C	1	1	783	1	poli_8sides 9_whiteLine3.jpg	MediumLong_b10_cut2_L_stereo_44KHz.wav
4	180	4	4	2	I	1	0	727	0	poli_8sides 11_whiteLine3.jpg	Medium_e21_stereo_44KHz.wav
4	181	1	1	1	C	2	1	869	1	poli_8sides 9_whiteLine3.jpg	Medium_e13_stereo_44KHz.wav
4	182	3	3	2	I	1	0	863	1	poli_8sides 1_whiteLine3.jpg	MediumLong_e19_stereo_44KHz.wav
4	183	4	3	2	I	1	0	1040	1	poli_8sides 11_whiteLine3.jpg	MediumLong_e19_stereo_44KHz.wav
4	184	2	2	1	C	2	1	1113	1	poli_8sides 5_whiteLine3.jpg	MediumLong_b10_cut2_L_stereo_44KHz.wav
4	185	3	3	2	I	1	0	748	1	poli_8sides 1_whiteLine3.jpg	MediumLong_e19_stereo_44KHz.wav
4	186	1	2	0	C	1	1	1016	1	poli_8sides 9_whiteLine3.jpg	MediumLong_b10_cut2_L_stereo_44KHz.wav
4	187	4	4	2	I	1	0	811	1	poli_8sides 11_whiteLine3.jpg	Medium_e21_stereo_44KHz.wav
4	188	2	2	1	C	2	1	1208	1	poli_8sides 5_whiteLine3.jpg	MediumLong_b10_cut2_L_stereo_44KHz.wav
4	189	3	4	2	I	1	0	871	0	poli_8sides 1_whiteLine3.jpg	Medium_e21_stereo_44KHz.wav
4	190	1	1	1	C	2	1	979	1	poli_8sides 9_whiteLine3.jpg	Medium_e13_stereo_44KHz.wav
4	191	4	3	2	I	1	0	936	0	poli_8sides 11_whiteLine3.jpg	MediumLong_e19_stereo_44KHz.wav
4	192	2	1	0	C	1	1	848	1	poli_8sides 5_whiteLine3.jpg	Medium_e13_stereo_44KHz.wav
4	193	1	1	1	C	2	1	883	1	poli_8sides 9_whiteLine3.jpg	Medium_e13_stereo_44KHz.wav
4	194	3	3	2	I	1	0	734	1	poli_8sides 1_whiteLine3.jpg	MediumLong_e19_stereo_44KHz.wav
4	195	2	2	1	C	2	1	788	1	poli_8sides 5_whiteLine3.jpg	MediumLong_b10_cut2_L_stereo_44KHz.wav
4	196	4	3	2	I	1	0	926	0	poli_8sides 11_whiteLine3.jpg	MediumLong_e19_stereo_44KHz.wav
4	197	2	1	0	C	1	1	925	1	poli_8sides 5_whiteLine3.jpg	Medium_e13_stereo_44KHz.wav
4	198	4	4	2	I	1	0	826	1	poli_8sides 11_whiteLine3.jpg	Medium_e21_stereo_44KHz.wav
4	199	3	4	2	I	1	0	1025	0	poli_8sides 1_whiteLine3.jpg	Medium_e21_stereo_44KHz.wav
4	200	1	2	0	C	1	1	909	1	poli_8sides 9_whiteLine3.jpg	MediumLong_b10_cut2_L_stereo_44KHz.wav
