block	trial	Vstim	Astim	match	C/I	resp	result	RT	fb	V-file	A-file
RL

0	1	1	2	0	C	0	0	0	0	Ⴋ	cut_g_stereo_44KHz.wav
0	2	2	3	1	C	2	0	882	0	Ⴢ	cut_eeuw_stereo_44KHz.wav
0	3	1	1	1	C	2	0	1227	0	Ⴋ	cut_oo_stereo_44KHz.wav
0	4	2	4	0	C	2	1	1290	1	Ⴢ	cut_ee_stereo_44KHz.wav
0	5	2	4	0	C	2	1	795	1	Ⴢ	cut_ee_stereo_44KHz.wav
0	6	1	1	1	C	1	1	737	1	Ⴋ	cut_oo_stereo_44KHz.wav
0	7	2	3	1	C	1	1	988	1	Ⴢ	cut_eeuw_stereo_44KHz.wav
0	8	1	2	0	C	2	1	795	1	Ⴋ	cut_g_stereo_44KHz.wav
0	9	2	4	0	C	2	1	466	1	Ⴢ	cut_ee_stereo_44KHz.wav
0	10	2	3	1	C	1	1	750	1	Ⴢ	cut_eeuw_stereo_44KHz.wav
0	11	1	2	0	C	2	1	727	1	Ⴋ	cut_g_stereo_44KHz.wav
0	12	1	1	1	C	1	1	603	1	Ⴋ	cut_oo_stereo_44KHz.wav
0	13	2	4	0	C	2	1	602	1	Ⴢ	cut_ee_stereo_44KHz.wav
0	14	1	1	1	C	1	1	1061	1	Ⴋ	cut_oo_stereo_44KHz.wav
0	15	1	2	0	C	2	1	964	1	Ⴋ	cut_g_stereo_44KHz.wav
0	16	2	3	1	C	2	0	1359	0	Ⴢ	cut_eeuw_stereo_44KHz.wav
0	17	1	1	1	C	1	1	864	1	Ⴋ	cut_oo_stereo_44KHz.wav
0	18	2	4	0	C	2	1	626	1	Ⴢ	cut_ee_stereo_44KHz.wav
0	19	1	2	0	C	2	1	822	1	Ⴋ	cut_g_stereo_44KHz.wav
0	20	2	3	1	C	1	1	1007	1	Ⴢ	cut_eeuw_stereo_44KHz.wav
0	21	1	1	1	C	1	1	1125	1	Ⴋ	cut_oo_stereo_44KHz.wav
0	22	2	4	0	C	2	1	573	1	Ⴢ	cut_ee_stereo_44KHz.wav
0	23	1	2	0	C	2	1	848	1	Ⴋ	cut_g_stereo_44KHz.wav
0	24	2	3	1	C	1	1	929	1	Ⴢ	cut_eeuw_stereo_44KHz.wav
0	25	2	4	0	C	2	1	814	1	Ⴢ	cut_ee_stereo_44KHz.wav
0	26	1	2	0	C	2	1	1305	1	Ⴋ	cut_g_stereo_44KHz.wav
0	27	1	1	1	C	1	1	809	1	Ⴋ	cut_oo_stereo_44KHz.wav
0	28	2	3	1	C	1	1	764	1	Ⴢ	cut_eeuw_stereo_44KHz.wav
0	29	1	1	1	C	1	1	919	1	Ⴋ	cut_oo_stereo_44KHz.wav
0	30	2	3	1	C	1	1	887	1	Ⴢ	cut_eeuw_stereo_44KHz.wav
avg_resp = 849
1	1	4	4	2	I	2	0	1046	1	Ⴖ	cut_k_stereo_44KHz.wav
1	2	2	2	1	C	2	0	852	0	Ⴐ	cut_u_stereo_44KHz.wav
1	3	1	2	0	C	2	1	788	1	Ⴔ	cut_u_stereo_44KHz.wav
1	4	3	3	2	I	2	0	872	1	Ⴒ	cut_a_stereo_44KHz.wav
1	5	1	1	1	C	1	1	946	1	Ⴔ	cut_o_stereo_44KHz.wav
1	6	4	3	2	I	1	0	1027	0	Ⴖ	cut_a_stereo_44KHz.wav
1	7	2	1	0	C	2	1	1094	1	Ⴐ	cut_o_stereo_44KHz.wav
1	8	3	4	2	I	2	0	1124	0	Ⴒ	cut_k_stereo_44KHz.wav
1	9	4	3	2	I	2	0	991	0	Ⴖ	cut_a_stereo_44KHz.wav
1	10	1	2	0	C	1	0	1171	0	Ⴔ	cut_u_stereo_44KHz.wav
1	11	2	1	0	C	2	1	1116	1	Ⴐ	cut_o_stereo_44KHz.wav
1	12	3	3	2	I	2	0	1353	0	Ⴒ	cut_a_stereo_44KHz.wav
1	13	1	1	1	C	1	1	1064	1	Ⴔ	cut_o_stereo_44KHz.wav
1	14	4	4	2	I	2	0	1045	1	Ⴖ	cut_k_stereo_44KHz.wav
1	15	2	2	1	C	1	1	1034	1	Ⴐ	cut_u_stereo_44KHz.wav
1	16	3	4	2	I	1	0	1686	1	Ⴒ	cut_k_stereo_44KHz.wav
1	17	2	2	1	C	2	0	1326	0	Ⴐ	cut_u_stereo_44KHz.wav
1	18	1	2	0	C	2	1	1022	1	Ⴔ	cut_u_stereo_44KHz.wav
1	19	4	3	2	I	1	0	1161	0	Ⴖ	cut_a_stereo_44KHz.wav
1	20	3	4	2	I	2	0	1185	0	Ⴒ	cut_k_stereo_44KHz.wav
1	21	2	1	0	C	2	1	1450	1	Ⴐ	cut_o_stereo_44KHz.wav
1	22	3	3	2	I	1	0	1840	1	Ⴒ	cut_a_stereo_44KHz.wav
1	23	1	1	1	C	1	1	1415	1	Ⴔ	cut_o_stereo_44KHz.wav
1	24	4	4	2	I	2	0	959	1	Ⴖ	cut_k_stereo_44KHz.wav
1	25	2	1	0	C	2	1	766	1	Ⴐ	cut_o_stereo_44KHz.wav
1	26	4	3	2	I	1	0	991	0	Ⴖ	cut_a_stereo_44KHz.wav
1	27	3	3	2	I	2	0	1007	1	Ⴒ	cut_a_stereo_44KHz.wav
1	28	1	1	1	C	1	1	743	1	Ⴔ	cut_o_stereo_44KHz.wav
1	29	3	4	2	I	1	0	936	1	Ⴒ	cut_k_stereo_44KHz.wav
1	30	2	2	1	C	1	1	963	1	Ⴐ	cut_u_stereo_44KHz.wav
1	31	1	2	0	C	2	1	960	1	Ⴔ	cut_u_stereo_44KHz.wav
1	32	4	4	2	I	2	0	1287	1	Ⴖ	cut_k_stereo_44KHz.wav
1	33	1	2	0	C	2	1	1178	1	Ⴔ	cut_u_stereo_44KHz.wav
1	34	2	2	1	C	1	1	959	1	Ⴐ	cut_u_stereo_44KHz.wav
1	35	4	3	2	I	1	0	1062	1	Ⴖ	cut_a_stereo_44KHz.wav
1	36	3	4	2	I	1	0	1101	1	Ⴒ	cut_k_stereo_44KHz.wav
1	37	4	4	2	I	2	0	1116	0	Ⴖ	cut_k_stereo_44KHz.wav
1	38	2	1	0	C	2	1	1237	1	Ⴐ	cut_o_stereo_44KHz.wav
1	39	3	3	2	I	2	0	859	0	Ⴒ	cut_a_stereo_44KHz.wav
1	40	1	1	1	C	1	1	797	1	Ⴔ	cut_o_stereo_44KHz.wav
1	41	3	4	2	I	2	0	1086	0	Ⴒ	cut_k_stereo_44KHz.wav
1	42	1	2	0	C	2	1	1158	1	Ⴔ	cut_u_stereo_44KHz.wav
1	43	2	2	1	C	2	0	1197	0	Ⴐ	cut_u_stereo_44KHz.wav
1	44	4	3	2	I	2	0	1026	1	Ⴖ	cut_a_stereo_44KHz.wav
1	45	1	1	1	C	1	1	777	1	Ⴔ	cut_o_stereo_44KHz.wav
1	46	4	4	2	I	1	0	833	0	Ⴖ	cut_k_stereo_44KHz.wav
1	47	2	1	0	C	2	1	742	1	Ⴐ	cut_o_stereo_44KHz.wav
1	48	3	3	2	I	1	0	1143	0	Ⴒ	cut_a_stereo_44KHz.wav
1	49	4	3	2	I	2	0	1136	0	Ⴖ	cut_a_stereo_44KHz.wav
1	50	3	3	2	I	2	0	878	0	Ⴒ	cut_a_stereo_44KHz.wav
1	51	1	2	0	C	2	1	1502	1	Ⴔ	cut_u_stereo_44KHz.wav
1	52	2	1	0	C	2	1	737	1	Ⴐ	cut_o_stereo_44KHz.wav
1	53	3	4	2	I	2	0	1304	1	Ⴒ	cut_k_stereo_44KHz.wav
1	54	4	4	2	I	1	0	1152	0	Ⴖ	cut_k_stereo_44KHz.wav
1	55	2	2	1	C	1	1	1668	1	Ⴐ	cut_u_stereo_44KHz.wav
1	56	1	1	1	C	1	1	874	1	Ⴔ	cut_o_stereo_44KHz.wav
1	57	3	4	2	I	2	0	859	0	Ⴒ	cut_k_stereo_44KHz.wav
1	58	4	4	2	I	2	0	758	0	Ⴖ	cut_k_stereo_44KHz.wav
1	59	1	1	1	C	1	1	1548	1	Ⴔ	cut_o_stereo_44KHz.wav
1	60	2	2	1	C	1	1	931	1	Ⴐ	cut_u_stereo_44KHz.wav
1	61	1	2	0	C	2	1	820	1	Ⴔ	cut_u_stereo_44KHz.wav
1	62	4	3	2	I	1	0	1619	0	Ⴖ	cut_a_stereo_44KHz.wav
1	63	2	1	0	C	2	1	935	1	Ⴐ	cut_o_stereo_44KHz.wav
1	64	3	3	2	I	2	0	971	1	Ⴒ	cut_a_stereo_44KHz.wav
1	65	2	1	0	C	2	1	679	1	Ⴐ	cut_o_stereo_44KHz.wav
1	66	1	1	1	C	1	1	1326	1	Ⴔ	cut_o_stereo_44KHz.wav
1	67	3	4	2	I	2	0	734	1	Ⴒ	cut_k_stereo_44KHz.wav
1	68	4	3	2	I	2	0	917	1	Ⴖ	cut_a_stereo_44KHz.wav
1	69	1	2	0	C	2	1	1084	1	Ⴔ	cut_u_stereo_44KHz.wav
1	70	4	4	2	I	2	0	768	1	Ⴖ	cut_k_stereo_44KHz.wav
1	71	2	2	1	C	1	1	947	1	Ⴐ	cut_u_stereo_44KHz.wav
1	72	3	3	2	I	2	0	1516	0	Ⴒ	cut_a_stereo_44KHz.wav
1	73	1	2	0	C	2	1	1255	1	Ⴔ	cut_u_stereo_44KHz.wav
1	74	4	3	2	I	2	0	1880	1	Ⴖ	cut_a_stereo_44KHz.wav
1	75	3	3	2	I	1	0	1006	1	Ⴒ	cut_a_stereo_44KHz.wav
1	76	2	1	0	C	2	1	787	1	Ⴐ	cut_o_stereo_44KHz.wav
1	77	3	4	2	I	1	0	807	0	Ⴒ	cut_k_stereo_44KHz.wav
1	78	2	2	1	C	2	0	617	0	Ⴐ	cut_u_stereo_44KHz.wav
1	79	1	1	1	C	1	1	809	1	Ⴔ	cut_o_stereo_44KHz.wav
1	80	4	4	2	I	1	0	1427	1	Ⴖ	cut_k_stereo_44KHz.wav
1	81	3	4	2	I	1	0	1543	0	Ⴒ	cut_k_stereo_44KHz.wav
1	82	2	2	1	C	1	1	1120	1	Ⴐ	cut_u_stereo_44KHz.wav
1	83	1	1	1	C	1	1	1414	1	Ⴔ	cut_o_stereo_44KHz.wav
1	84	4	3	2	I	2	0	1376	0	Ⴖ	cut_a_stereo_44KHz.wav
1	85	1	2	0	C	2	1	879	1	Ⴔ	cut_u_stereo_44KHz.wav
1	86	2	1	0	C	2	1	755	1	Ⴐ	cut_o_stereo_44KHz.wav
1	87	4	4	2	I	1	0	1481	1	Ⴖ	cut_k_stereo_44KHz.wav
1	88	3	3	2	I	2	0	816	0	Ⴒ	cut_a_stereo_44KHz.wav
1	89	4	4	2	I	1	0	1248	0	Ⴖ	cut_k_stereo_44KHz.wav
1	90	1	1	1	C	1	1	1228	1	Ⴔ	cut_o_stereo_44KHz.wav
1	91	2	2	1	C	1	1	1336	1	Ⴐ	cut_u_stereo_44KHz.wav
1	92	3	4	2	I	1	0	1404	1	Ⴒ	cut_k_stereo_44KHz.wav
1	93	1	2	0	C	2	1	1154	1	Ⴔ	cut_u_stereo_44KHz.wav
1	94	3	3	2	I	1	0	695	0	Ⴒ	cut_a_stereo_44KHz.wav
1	95	4	3	2	I	2	0	759	0	Ⴖ	cut_a_stereo_44KHz.wav
1	96	2	1	0	C	2	1	930	1	Ⴐ	cut_o_stereo_44KHz.wav
1	97	1	1	1	C	1	1	758	1	Ⴔ	cut_o_stereo_44KHz.wav
1	98	3	4	2	I	2	0	901	0	Ⴒ	cut_k_stereo_44KHz.wav
1	99	2	2	1	C	1	1	1214	1	Ⴐ	cut_u_stereo_44KHz.wav
1	100	4	3	2	I	2	0	939	1	Ⴖ	cut_a_stereo_44KHz.wav
1	101	3	3	2	I	1	0	1155	0	Ⴒ	cut_a_stereo_44KHz.wav
1	102	1	2	0	C	1	0	1032	0	Ⴔ	cut_u_stereo_44KHz.wav
1	103	4	4	2	I	2	0	1118	0	Ⴖ	cut_k_stereo_44KHz.wav
1	104	2	1	0	C	2	1	650	1	Ⴐ	cut_o_stereo_44KHz.wav
1	105	1	2	0	C	2	1	743	1	Ⴔ	cut_u_stereo_44KHz.wav
1	106	2	2	1	C	1	1	1077	1	Ⴐ	cut_u_stereo_44KHz.wav
1	107	3	4	2	I	1	0	1363	1	Ⴒ	cut_k_stereo_44KHz.wav
1	108	4	3	2	I	2	0	1248	1	Ⴖ	cut_a_stereo_44KHz.wav
1	109	3	3	2	I	1	0	1548	0	Ⴒ	cut_a_stereo_44KHz.wav
1	110	2	1	0	C	2	1	1669	1	Ⴐ	cut_o_stereo_44KHz.wav
1	111	1	1	1	C	1	1	1043	1	Ⴔ	cut_o_stereo_44KHz.wav
1	112	4	4	2	I	2	0	1091	0	Ⴖ	cut_k_stereo_44KHz.wav
1	113	1	1	1	C	1	1	907	1	Ⴔ	cut_o_stereo_44KHz.wav
1	114	2	1	0	C	2	1	1510	1	Ⴐ	cut_o_stereo_44KHz.wav
1	115	3	3	2	I	2	0	1916	1	Ⴒ	cut_a_stereo_44KHz.wav
1	116	4	4	2	I	2	0	1120	0	Ⴖ	cut_k_stereo_44KHz.wav
1	117	3	4	2	I	1	0	1890	1	Ⴒ	cut_k_stereo_44KHz.wav
1	118	4	3	2	I	2	0	1186	0	Ⴖ	cut_a_stereo_44KHz.wav
1	119	2	2	1	C	1	1	1060	1	Ⴐ	cut_u_stereo_44KHz.wav
1	120	1	2	0	C	2	1	856	1	Ⴔ	cut_u_stereo_44KHz.wav
1	121	3	3	2	I	2	0	1748	0	Ⴒ	cut_a_stereo_44KHz.wav
1	122	2	2	1	C	1	1	1745	1	Ⴐ	cut_u_stereo_44KHz.wav
1	123	4	3	2	I	2	0	1400	1	Ⴖ	cut_a_stereo_44KHz.wav
1	124	1	1	1	C	0	0	0	0	Ⴔ	cut_o_stereo_44KHz.wav
1	125	3	4	2	I	1	0	1132	0	Ⴒ	cut_k_stereo_44KHz.wav
1	126	4	4	2	I	2	0	996	0	Ⴖ	cut_k_stereo_44KHz.wav
1	127	2	1	0	C	2	1	1409	1	Ⴐ	cut_o_stereo_44KHz.wav
1	128	1	2	0	C	2	1	1143	1	Ⴔ	cut_u_stereo_44KHz.wav
1	129	4	4	2	I	2	0	1146	1	Ⴖ	cut_k_stereo_44KHz.wav
1	130	3	3	2	I	1	0	1742	1	Ⴒ	cut_a_stereo_44KHz.wav
1	131	2	1	0	C	2	1	1323	1	Ⴐ	cut_o_stereo_44KHz.wav
1	132	1	1	1	C	1	1	1258	1	Ⴔ	cut_o_stereo_44KHz.wav
1	133	2	2	1	C	1	1	1208	1	Ⴐ	cut_u_stereo_44KHz.wav
1	134	3	4	2	I	2	0	1386	1	Ⴒ	cut_k_stereo_44KHz.wav
1	135	4	3	2	I	2	0	1395	0	Ⴖ	cut_a_stereo_44KHz.wav
1	136	1	2	0	C	0	0	0	0	Ⴔ	cut_u_stereo_44KHz.wav
1	137	3	3	2	I	1	0	1439	0	Ⴒ	cut_a_stereo_44KHz.wav
1	138	2	1	0	C	2	1	719	1	Ⴐ	cut_o_stereo_44KHz.wav
1	139	1	1	1	C	1	1	709	1	Ⴔ	cut_o_stereo_44KHz.wav
1	140	4	4	2	I	2	0	1000	0	Ⴖ	cut_k_stereo_44KHz.wav
1	141	3	4	2	I	2	0	1182	0	Ⴒ	cut_k_stereo_44KHz.wav
1	142	4	3	2	I	2	0	672	1	Ⴖ	cut_a_stereo_44KHz.wav
1	143	2	2	1	C	1	1	1320	1	Ⴐ	cut_u_stereo_44KHz.wav
1	144	1	2	0	C	2	1	749	1	Ⴔ	cut_u_stereo_44KHz.wav
1	145	4	4	2	I	2	0	1284	0	Ⴖ	cut_k_stereo_44KHz.wav
1	146	3	4	2	I	2	0	927	1	Ⴒ	cut_k_stereo_44KHz.wav
1	147	2	2	1	C	1	1	1943	1	Ⴐ	cut_u_stereo_44KHz.wav
1	148	1	1	1	C	1	1	1530	1	Ⴔ	cut_o_stereo_44KHz.wav
1	149	4	3	2	I	0	0	0	0	Ⴖ	cut_a_stereo_44KHz.wav
1	150	1	2	0	C	2	1	856	1	Ⴔ	cut_u_stereo_44KHz.wav
1	151	2	1	0	C	2	1	1000	1	Ⴐ	cut_o_stereo_44KHz.wav
1	152	3	3	2	I	1	0	1280	0	Ⴒ	cut_a_stereo_44KHz.wav
1	153	4	4	2	I	2	0	1101	1	Ⴖ	cut_k_stereo_44KHz.wav
1	154	1	1	1	C	1	1	1649	1	Ⴔ	cut_o_stereo_44KHz.wav
1	155	3	3	2	I	2	0	1366	0	Ⴒ	cut_a_stereo_44KHz.wav
1	156	2	1	0	C	2	1	728	1	Ⴐ	cut_o_stereo_44KHz.wav
1	157	3	4	2	I	2	0	785	1	Ⴒ	cut_k_stereo_44KHz.wav
1	158	2	2	1	C	2	0	1505	0	Ⴐ	cut_u_stereo_44KHz.wav
1	159	1	2	0	C	2	1	1247	1	Ⴔ	cut_u_stereo_44KHz.wav
1	160	4	3	2	I	2	0	1193	0	Ⴖ	cut_a_stereo_44KHz.wav
1	161	3	4	2	I	2	0	460	0	Ⴒ	cut_k_stereo_44KHz.wav
1	162	1	2	0	C	2	1	925	1	Ⴔ	cut_u_stereo_44KHz.wav
1	163	2	1	0	C	2	1	561	1	Ⴐ	cut_o_stereo_44KHz.wav
1	164	4	3	2	I	0	0	0	0	Ⴖ	cut_a_stereo_44KHz.wav
1	165	2	2	1	C	1	1	1114	1	Ⴐ	cut_u_stereo_44KHz.wav
1	166	1	1	1	C	1	1	1099	1	Ⴔ	cut_o_stereo_44KHz.wav
1	167	4	4	2	I	1	0	1172	0	Ⴖ	cut_k_stereo_44KHz.wav
1	168	3	3	2	I	2	0	831	1	Ⴒ	cut_a_stereo_44KHz.wav
1	169	1	1	1	C	2	0	1188	0	Ⴔ	cut_o_stereo_44KHz.wav
1	170	2	1	0	C	2	1	974	1	Ⴐ	cut_o_stereo_44KHz.wav
1	171	3	3	2	I	1	0	1023	1	Ⴒ	cut_a_stereo_44KHz.wav
1	172	4	4	2	I	1	0	880	1	Ⴖ	cut_k_stereo_44KHz.wav
1	173	1	2	0	C	2	1	1026	1	Ⴔ	cut_u_stereo_44KHz.wav
1	174	3	4	2	I	1	0	781	0	Ⴒ	cut_k_stereo_44KHz.wav
1	175	4	3	2	I	2	0	790	1	Ⴖ	cut_a_stereo_44KHz.wav
1	176	2	2	1	C	1	1	1126	1	Ⴐ	cut_u_stereo_44KHz.wav
1	177	1	1	1	C	1	1	1521	1	Ⴔ	cut_o_stereo_44KHz.wav
1	178	4	4	2	I	2	0	1333	1	Ⴖ	cut_k_stereo_44KHz.wav
1	179	2	1	0	C	2	1	1325	1	Ⴐ	cut_o_stereo_44KHz.wav
1	180	3	4	2	I	0	0	0	0	Ⴒ	cut_k_stereo_44KHz.wav
1	181	1	2	0	C	2	1	1097	1	Ⴔ	cut_u_stereo_44KHz.wav
1	182	3	3	2	I	2	0	1170	1	Ⴒ	cut_a_stereo_44KHz.wav
1	183	4	3	2	I	1	0	696	1	Ⴖ	cut_a_stereo_44KHz.wav
1	184	2	2	1	C	1	1	1132	1	Ⴐ	cut_u_stereo_44KHz.wav
1	185	3	3	2	I	2	0	1217	1	Ⴒ	cut_a_stereo_44KHz.wav
1	186	2	2	1	C	1	1	884	1	Ⴐ	cut_u_stereo_44KHz.wav
1	187	1	2	0	C	2	1	1585	1	Ⴔ	cut_u_stereo_44KHz.wav
1	188	4	3	2	I	1	0	880	0	Ⴖ	cut_a_stereo_44KHz.wav
1	189	3	4	2	I	2	0	1227	1	Ⴒ	cut_k_stereo_44KHz.wav
1	190	4	4	2	I	2	0	825	0	Ⴖ	cut_k_stereo_44KHz.wav
1	191	1	1	1	C	1	1	716	1	Ⴔ	cut_o_stereo_44KHz.wav
1	192	2	1	0	C	2	1	640	1	Ⴐ	cut_o_stereo_44KHz.wav
1	193	3	4	2	I	2	0	710	0	Ⴒ	cut_k_stereo_44KHz.wav
1	194	4	4	2	I	1	0	929	1	Ⴖ	cut_k_stereo_44KHz.wav
1	195	2	2	1	C	2	0	1194	0	Ⴐ	cut_u_stereo_44KHz.wav
1	196	1	2	0	C	2	1	1328	1	Ⴔ	cut_u_stereo_44KHz.wav
1	197	3	3	2	I	2	0	1377	1	Ⴒ	cut_a_stereo_44KHz.wav
1	198	4	3	2	I	1	0	964	1	Ⴖ	cut_a_stereo_44KHz.wav
1	199	2	1	0	C	2	1	1539	1	Ⴐ	cut_o_stereo_44KHz.wav
1	200	1	1	1	C	2	0	1716	0	Ⴔ	cut_o_stereo_44KHz.wav
2	1	1	1	1	C	0	0	0	0	Ⴇ	cut_j_stereo_44KHz.wav
2	2	3	3	2	I	2	0	689	0	Ⴁ	cut_f_stereo_44KHz.wav
2	3	4	3	2	I	2	0	767	0	Ⴜ	cut_f_stereo_44KHz.wav
2	4	2	1	0	C	2	1	984	1	Ⴊ	cut_j_stereo_44KHz.wav
2	5	1	2	0	C	2	1	1049	1	Ⴇ	cut_oei_stereo_44KHz.wav
2	6	2	2	1	C	1	1	753	1	Ⴊ	cut_oei_stereo_44KHz.wav
2	7	4	4	2	I	2	0	1048	0	Ⴜ	cut_s_stereo_44KHz.wav
2	8	3	4	2	I	2	0	1016	0	Ⴁ	cut_s_stereo_44KHz.wav
2	9	1	1	1	C	2	0	1220	0	Ⴇ	cut_j_stereo_44KHz.wav
2	10	4	4	2	I	1	0	1114	1	Ⴜ	cut_s_stereo_44KHz.wav
2	11	3	3	2	I	1	0	1491	1	Ⴁ	cut_f_stereo_44KHz.wav
2	12	2	1	0	C	2	1	944	1	Ⴊ	cut_j_stereo_44KHz.wav
2	13	1	2	0	C	2	1	1137	1	Ⴇ	cut_oei_stereo_44KHz.wav
2	14	3	4	2	I	1	0	1359	1	Ⴁ	cut_s_stereo_44KHz.wav
2	15	2	2	1	C	2	0	751	0	Ⴊ	cut_oei_stereo_44KHz.wav
2	16	4	3	2	I	1	0	1220	0	Ⴜ	cut_f_stereo_44KHz.wav
2	17	2	1	0	C	1	0	1038	0	Ⴊ	cut_j_stereo_44KHz.wav
2	18	4	3	2	I	2	0	920	1	Ⴜ	cut_f_stereo_44KHz.wav
2	19	3	3	2	I	0	0	0	0	Ⴁ	cut_f_stereo_44KHz.wav
2	20	1	2	0	C	2	1	709	1	Ⴇ	cut_oei_stereo_44KHz.wav
2	21	4	4	2	I	1	0	1266	1	Ⴜ	cut_s_stereo_44KHz.wav
2	22	3	4	2	I	0	0	0	0	Ⴁ	cut_s_stereo_44KHz.wav
2	23	2	2	1	C	1	1	1307	1	Ⴊ	cut_oei_stereo_44KHz.wav
2	24	1	1	1	C	1	1	1802	1	Ⴇ	cut_j_stereo_44KHz.wav
2	25	4	3	2	I	2	0	1372	1	Ⴜ	cut_f_stereo_44KHz.wav
2	26	1	2	0	C	2	1	1395	1	Ⴇ	cut_oei_stereo_44KHz.wav
2	27	3	4	2	I	1	0	1111	0	Ⴁ	cut_s_stereo_44KHz.wav
2	28	2	2	1	C	1	1	953	1	Ⴊ	cut_oei_stereo_44KHz.wav
2	29	1	1	1	C	1	1	876	1	Ⴇ	cut_j_stereo_44KHz.wav
2	30	4	4	2	I	1	0	1613	0	Ⴜ	cut_s_stereo_44KHz.wav
2	31	3	3	2	I	1	0	1044	0	Ⴁ	cut_f_stereo_44KHz.wav
2	32	2	1	0	C	1	0	1228	0	Ⴊ	cut_j_stereo_44KHz.wav
2	33	3	4	2	I	1	0	1203	1	Ⴁ	cut_s_stereo_44KHz.wav
2	34	4	3	2	I	2	0	827	1	Ⴜ	cut_f_stereo_44KHz.wav
2	35	2	1	0	C	1	0	801	0	Ⴊ	cut_j_stereo_44KHz.wav
2	36	1	2	0	C	2	1	1214	1	Ⴇ	cut_oei_stereo_44KHz.wav
2	37	4	4	2	I	1	0	986	0	Ⴜ	cut_s_stereo_44KHz.wav
2	38	2	2	1	C	1	1	1502	1	Ⴊ	cut_oei_stereo_44KHz.wav
2	39	1	1	1	C	1	1	1246	1	Ⴇ	cut_j_stereo_44KHz.wav
2	40	3	3	2	I	1	0	725	0	Ⴁ	cut_f_stereo_44KHz.wav
2	41	4	4	2	I	1	0	910	0	Ⴜ	cut_s_stereo_44KHz.wav
2	42	2	2	1	C	1	1	690	1	Ⴊ	cut_oei_stereo_44KHz.wav
2	43	3	3	2	I	1	0	919	0	Ⴁ	cut_f_stereo_44KHz.wav
2	44	1	2	0	C	2	1	1313	1	Ⴇ	cut_oei_stereo_44KHz.wav
2	45	3	4	2	I	2	0	1465	1	Ⴁ	cut_s_stereo_44KHz.wav
2	46	2	1	0	C	1	0	1164	0	Ⴊ	cut_j_stereo_44KHz.wav
2	47	4	3	2	I	2	0	960	0	Ⴜ	cut_f_stereo_44KHz.wav
2	48	1	1	1	C	1	1	832	1	Ⴇ	cut_j_stereo_44KHz.wav
2	49	2	2	1	C	1	1	865	1	Ⴊ	cut_oei_stereo_44KHz.wav
2	50	4	4	2	I	2	0	1049	0	Ⴜ	cut_s_stereo_44KHz.wav
2	51	3	4	2	I	2	0	1345	0	Ⴁ	cut_s_stereo_44KHz.wav
2	52	1	1	1	C	1	1	1489	1	Ⴇ	cut_j_stereo_44KHz.wav
2	53	4	3	2	I	0	0	0	0	Ⴜ	cut_f_stereo_44KHz.wav
2	54	1	2	0	C	2	1	967	1	Ⴇ	cut_oei_stereo_44KHz.wav
2	55	2	1	0	C	1	0	998	0	Ⴊ	cut_j_stereo_44KHz.wav
2	56	3	3	2	I	1	0	1114	0	Ⴁ	cut_f_stereo_44KHz.wav
2	57	4	3	2	I	1	0	1245	0	Ⴜ	cut_f_stereo_44KHz.wav
2	58	3	4	2	I	2	0	1007	1	Ⴁ	cut_s_stereo_44KHz.wav
2	59	2	2	1	C	1	1	1704	1	Ⴊ	cut_oei_stereo_44KHz.wav
2	60	1	1	1	C	1	1	842	1	Ⴇ	cut_j_stereo_44KHz.wav
2	61	3	3	2	I	2	0	1521	0	Ⴁ	cut_f_stereo_44KHz.wav
2	62	1	2	0	C	2	1	711	1	Ⴇ	cut_oei_stereo_44KHz.wav
2	63	2	1	0	C	2	1	1159	1	Ⴊ	cut_j_stereo_44KHz.wav
2	64	4	4	2	I	2	0	937	0	Ⴜ	cut_s_stereo_44KHz.wav
2	65	1	2	0	C	2	1	1216	1	Ⴇ	cut_oei_stereo_44KHz.wav
2	66	4	3	2	I	2	0	1446	0	Ⴜ	cut_f_stereo_44KHz.wav
2	67	2	2	1	C	1	1	881	1	Ⴊ	cut_oei_stereo_44KHz.wav
2	68	3	4	2	I	2	0	771	1	Ⴁ	cut_s_stereo_44KHz.wav
2	69	1	1	1	C	1	1	1310	1	Ⴇ	cut_j_stereo_44KHz.wav
2	70	2	1	0	C	2	1	1248	1	Ⴊ	cut_j_stereo_44KHz.wav
2	71	4	4	2	I	2	0	951	0	Ⴜ	cut_s_stereo_44KHz.wav
2	72	3	3	2	I	1	0	806	1	Ⴁ	cut_f_stereo_44KHz.wav
2	73	1	1	1	C	0	0	0	0	Ⴇ	cut_j_stereo_44KHz.wav
2	74	2	1	0	C	2	1	943	1	Ⴊ	cut_j_stereo_44KHz.wav
2	75	4	3	2	I	1	0	814	0	Ⴜ	cut_f_stereo_44KHz.wav
2	76	3	3	2	I	2	0	873	1	Ⴁ	cut_f_stereo_44KHz.wav
2	77	2	2	1	C	2	0	1143	0	Ⴊ	cut_oei_stereo_44KHz.wav
2	78	4	4	2	I	0	0	0	0	Ⴜ	cut_s_stereo_44KHz.wav
2	79	3	4	2	I	2	0	784	1	Ⴁ	cut_s_stereo_44KHz.wav
2	80	1	2	0	C	2	1	540	1	Ⴇ	cut_oei_stereo_44KHz.wav
2	81	4	3	2	I	1	0	1023	1	Ⴜ	cut_f_stereo_44KHz.wav
2	82	2	1	0	C	2	1	1648	1	Ⴊ	cut_j_stereo_44KHz.wav
2	83	3	4	2	I	2	0	1446	0	Ⴁ	cut_s_stereo_44KHz.wav
2	84	1	1	1	C	2	0	846	0	Ⴇ	cut_j_stereo_44KHz.wav
2	85	2	2	1	C	1	1	1446	1	Ⴊ	cut_oei_stereo_44KHz.wav
2	86	3	3	2	I	2	0	1132	1	Ⴁ	cut_f_stereo_44KHz.wav
2	87	1	2	0	C	2	1	1130	1	Ⴇ	cut_oei_stereo_44KHz.wav
2	88	4	4	2	I	1	0	1492	1	Ⴜ	cut_s_stereo_44KHz.wav
2	89	3	3	2	I	2	0	966	1	Ⴁ	cut_f_stereo_44KHz.wav
2	90	4	4	2	I	2	0	1247	0	Ⴜ	cut_s_stereo_44KHz.wav
2	91	1	1	1	C	1	1	1470	1	Ⴇ	cut_j_stereo_44KHz.wav
2	92	2	2	1	C	1	1	1223	1	Ⴊ	cut_oei_stereo_44KHz.wav
2	93	4	3	2	I	2	0	921	1	Ⴜ	cut_f_stereo_44KHz.wav
2	94	1	2	0	C	2	1	1022	1	Ⴇ	cut_oei_stereo_44KHz.wav
2	95	3	4	2	I	2	0	832	1	Ⴁ	cut_s_stereo_44KHz.wav
2	96	2	1	0	C	1	0	917	0	Ⴊ	cut_j_stereo_44KHz.wav
2	97	1	1	1	C	1	1	754	1	Ⴇ	cut_j_stereo_44KHz.wav
2	98	2	1	0	C	1	0	757	0	Ⴊ	cut_j_stereo_44KHz.wav
2	99	3	4	2	I	2	0	1026	0	Ⴁ	cut_s_stereo_44KHz.wav
2	100	4	3	2	I	2	0	864	1	Ⴜ	cut_f_stereo_44KHz.wav
2	101	2	2	1	C	1	1	1067	1	Ⴊ	cut_oei_stereo_44KHz.wav
2	102	4	4	2	I	1	0	749	1	Ⴜ	cut_s_stereo_44KHz.wav
2	103	1	2	0	C	2	1	698	1	Ⴇ	cut_oei_stereo_44KHz.wav
2	104	3	3	2	I	2	0	900	1	Ⴁ	cut_f_stereo_44KHz.wav
2	105	1	1	1	C	1	1	1360	1	Ⴇ	cut_j_stereo_44KHz.wav
2	106	3	4	2	I	2	0	745	1	Ⴁ	cut_s_stereo_44KHz.wav
2	107	2	2	1	C	1	1	786	1	Ⴊ	cut_oei_stereo_44KHz.wav
2	108	4	3	2	I	2	0	789	1	Ⴜ	cut_f_stereo_44KHz.wav
2	109	1	2	0	C	2	1	1090	1	Ⴇ	cut_oei_stereo_44KHz.wav
2	110	4	4	2	I	2	0	952	1	Ⴜ	cut_s_stereo_44KHz.wav
2	111	2	1	0	C	1	0	1827	0	Ⴊ	cut_j_stereo_44KHz.wav
2	112	3	3	2	I	1	0	1290	0	Ⴁ	cut_f_stereo_44KHz.wav
2	113	1	2	0	C	2	1	1565	1	Ⴇ	cut_oei_stereo_44KHz.wav
2	114	2	2	1	C	1	1	1315	1	Ⴊ	cut_oei_stereo_44KHz.wav
2	115	3	4	2	I	2	0	947	0	Ⴁ	cut_s_stereo_44KHz.wav
2	116	4	4	2	I	2	0	836	1	Ⴜ	cut_s_stereo_44KHz.wav
2	117	1	1	1	C	1	1	782	1	Ⴇ	cut_j_stereo_44KHz.wav
2	118	2	1	0	C	1	0	1117	0	Ⴊ	cut_j_stereo_44KHz.wav
2	119	4	3	2	I	1	0	1136	1	Ⴜ	cut_f_stereo_44KHz.wav
2	120	3	3	2	I	2	0	1384	1	Ⴁ	cut_f_stereo_44KHz.wav
2	121	2	2	1	C	1	1	1062	1	Ⴊ	cut_oei_stereo_44KHz.wav
2	122	1	2	0	C	2	1	1567	1	Ⴇ	cut_oei_stereo_44KHz.wav
2	123	4	3	2	I	2	0	891	1	Ⴜ	cut_f_stereo_44KHz.wav
2	124	3	3	2	I	1	0	1211	1	Ⴁ	cut_f_stereo_44KHz.wav
2	125	1	1	1	C	2	0	1624	0	Ⴇ	cut_j_stereo_44KHz.wav
2	126	4	4	2	I	2	0	1596	0	Ⴜ	cut_s_stereo_44KHz.wav
2	127	3	4	2	I	2	0	758	0	Ⴁ	cut_s_stereo_44KHz.wav
2	128	2	1	0	C	2	1	1245	1	Ⴊ	cut_j_stereo_44KHz.wav
2	129	3	4	2	I	2	0	873	0	Ⴁ	cut_s_stereo_44KHz.wav
2	130	4	4	2	I	0	0	0	0	Ⴜ	cut_s_stereo_44KHz.wav
2	131	1	2	0	C	0	0	0	0	Ⴇ	cut_oei_stereo_44KHz.wav
2	132	2	1	0	C	2	1	147	1	Ⴊ	cut_j_stereo_44KHz.wav
2	133	3	3	2	I	2	0	982	0	Ⴁ	cut_f_stereo_44KHz.wav
2	134	1	1	1	C	1	1	1600	1	Ⴇ	cut_j_stereo_44KHz.wav
2	135	4	3	2	I	2	0	964	0	Ⴜ	cut_f_stereo_44KHz.wav
2	136	2	2	1	C	1	1	915	1	Ⴊ	cut_oei_stereo_44KHz.wav
2	137	1	2	0	C	2	1	1619	1	Ⴇ	cut_oei_stereo_44KHz.wav
2	138	2	1	0	C	2	1	1291	1	Ⴊ	cut_j_stereo_44KHz.wav
2	139	3	3	2	I	2	0	1393	0	Ⴁ	cut_f_stereo_44KHz.wav
2	140	4	4	2	I	2	0	1451	1	Ⴜ	cut_s_stereo_44KHz.wav
2	141	3	4	2	I	2	0	1370	1	Ⴁ	cut_s_stereo_44KHz.wav
2	142	2	2	1	C	1	1	1978	1	Ⴊ	cut_oei_stereo_44KHz.wav
2	143	4	3	2	I	2	0	1375	1	Ⴜ	cut_f_stereo_44KHz.wav
2	144	1	1	1	C	1	1	1236	1	Ⴇ	cut_j_stereo_44KHz.wav
2	145	4	3	2	I	1	0	1131	1	Ⴜ	cut_f_stereo_44KHz.wav
2	146	2	2	1	C	1	1	1387	1	Ⴊ	cut_oei_stereo_44KHz.wav
2	147	3	3	2	I	2	0	1147	0	Ⴁ	cut_f_stereo_44KHz.wav
2	148	1	2	0	C	2	1	1272	1	Ⴇ	cut_oei_stereo_44KHz.wav
2	149	2	1	0	C	0	0	0	0	Ⴊ	cut_j_stereo_44KHz.wav
2	150	4	4	2	I	2	0	883	1	Ⴜ	cut_s_stereo_44KHz.wav
2	151	3	4	2	I	1	0	793	1	Ⴁ	cut_s_stereo_44KHz.wav
2	152	1	1	1	C	2	0	1132	0	Ⴇ	cut_j_stereo_44KHz.wav
2	153	3	3	2	I	2	0	1258	0	Ⴁ	cut_f_stereo_44KHz.wav
2	154	2	2	1	C	1	1	1076	1	Ⴊ	cut_oei_stereo_44KHz.wav
2	155	4	4	2	I	1	0	920	0	Ⴜ	cut_s_stereo_44KHz.wav
2	156	1	1	1	C	1	1	1839	1	Ⴇ	cut_j_stereo_44KHz.wav
2	157	3	4	2	I	1	0	942	1	Ⴁ	cut_s_stereo_44KHz.wav
2	158	1	2	0	C	2	1	913	1	Ⴇ	cut_oei_stereo_44KHz.wav
2	159	4	3	2	I	2	0	1268	0	Ⴜ	cut_f_stereo_44KHz.wav
2	160	2	1	0	C	2	1	825	1	Ⴊ	cut_j_stereo_44KHz.wav
2	161	1	2	0	C	2	1	1365	1	Ⴇ	cut_oei_stereo_44KHz.wav
2	162	4	4	2	I	1	0	1498	0	Ⴜ	cut_s_stereo_44KHz.wav
2	163	3	3	2	I	1	0	1267	0	Ⴁ	cut_f_stereo_44KHz.wav
2	164	2	1	0	C	2	1	732	1	Ⴊ	cut_j_stereo_44KHz.wav
2	165	1	1	1	C	0	0	0	0	Ⴇ	cut_j_stereo_44KHz.wav
2	166	2	2	1	C	1	1	807	1	Ⴊ	cut_oei_stereo_44KHz.wav
2	167	4	3	2	I	1	0	1121	0	Ⴜ	cut_f_stereo_44KHz.wav
2	168	3	4	2	I	2	0	354	1	Ⴁ	cut_s_stereo_44KHz.wav
2	169	4	3	2	I	1	0	1296	1	Ⴜ	cut_f_stereo_44KHz.wav
2	170	1	1	1	C	1	1	1306	1	Ⴇ	cut_j_stereo_44KHz.wav
2	171	2	2	1	C	1	1	1352	1	Ⴊ	cut_oei_stereo_44KHz.wav
2	172	3	3	2	I	2	0	1291	0	Ⴁ	cut_f_stereo_44KHz.wav
2	173	2	1	0	C	2	1	945	1	Ⴊ	cut_j_stereo_44KHz.wav
2	174	1	2	0	C	2	1	893	1	Ⴇ	cut_oei_stereo_44KHz.wav
2	175	4	4	2	I	1	0	1732	0	Ⴜ	cut_s_stereo_44KHz.wav
2	176	3	4	2	I	2	0	1747	1	Ⴁ	cut_s_stereo_44KHz.wav
2	177	2	1	0	C	2	1	997	1	Ⴊ	cut_j_stereo_44KHz.wav
2	178	4	4	2	I	2	0	850	0	Ⴜ	cut_s_stereo_44KHz.wav
2	179	1	2	0	C	2	1	816	1	Ⴇ	cut_oei_stereo_44KHz.wav
2	180	3	4	2	I	2	0	905	1	Ⴁ	cut_s_stereo_44KHz.wav
2	181	2	2	1	C	1	1	1200	1	Ⴊ	cut_oei_stereo_44KHz.wav
2	182	3	3	2	I	1	0	1125	0	Ⴁ	cut_f_stereo_44KHz.wav
2	183	1	1	1	C	1	1	828	1	Ⴇ	cut_j_stereo_44KHz.wav
2	184	4	3	2	I	2	0	1101	1	Ⴜ	cut_f_stereo_44KHz.wav
2	185	3	4	2	I	2	0	1660	0	Ⴁ	cut_s_stereo_44KHz.wav
2	186	1	1	1	C	1	1	667	1	Ⴇ	cut_j_stereo_44KHz.wav
2	187	4	4	2	I	2	0	828	1	Ⴜ	cut_s_stereo_44KHz.wav
2	188	2	1	0	C	1	0	950	0	Ⴊ	cut_j_stereo_44KHz.wav
2	189	3	3	2	I	2	0	1072	1	Ⴁ	cut_f_stereo_44KHz.wav
2	190	4	3	2	I	2	0	797	1	Ⴜ	cut_f_stereo_44KHz.wav
2	191	1	2	0	C	2	1	1323	1	Ⴇ	cut_oei_stereo_44KHz.wav
2	192	2	2	1	C	2	0	779	0	Ⴊ	cut_oei_stereo_44KHz.wav
2	193	4	4	2	I	1	0	243	0	Ⴜ	cut_s_stereo_44KHz.wav
2	194	2	2	1	C	2	0	1250	0	Ⴊ	cut_oei_stereo_44KHz.wav
2	195	1	2	0	C	2	1	1332	1	Ⴇ	cut_oei_stereo_44KHz.wav
2	196	3	4	2	I	2	0	1057	1	Ⴁ	cut_s_stereo_44KHz.wav
2	197	4	3	2	I	1	0	991	0	Ⴜ	cut_f_stereo_44KHz.wav
2	198	2	1	0	C	2	1	942	1	Ⴊ	cut_j_stereo_44KHz.wav
2	199	3	3	2	I	2	0	802	0	Ⴁ	cut_f_stereo_44KHz.wav
2	200	1	1	1	C	0	0	0	0	Ⴇ	cut_j_stereo_44KHz.wav
3	1	3	4	2	I	2	0	936	0	Ⴡ	cut_ui_stereo_44KHz.wav
3	2	1	2	0	C	2	1	708	1	Ⴟ	cut_r_stereo_44KHz.wav
3	3	2	2	1	C	1	1	949	1	Ⴂ	cut_r_stereo_44KHz.wav
3	4	4	3	2	I	2	0	831	1	Ⴃ	cut_ei_stereo_44KHz.wav
3	5	3	3	2	I	1	0	820	0	Ⴡ	cut_ei_stereo_44KHz.wav
3	6	1	1	1	C	2	0	1088	0	Ⴟ	cut_n_stereo_44KHz.wav
3	7	4	4	2	I	2	0	1224	1	Ⴃ	cut_ui_stereo_44KHz.wav
3	8	2	1	0	C	2	1	825	1	Ⴂ	cut_n_stereo_44KHz.wav
3	9	1	2	0	C	1	0	1175	0	Ⴟ	cut_r_stereo_44KHz.wav
3	10	3	3	2	I	2	0	1017	1	Ⴡ	cut_ei_stereo_44KHz.wav
3	11	4	3	2	I	2	0	850	0	Ⴃ	cut_ei_stereo_44KHz.wav
3	12	2	2	1	C	2	0	1090	0	Ⴂ	cut_r_stereo_44KHz.wav
3	13	3	4	2	I	1	0	944	0	Ⴡ	cut_ui_stereo_44KHz.wav
3	14	4	4	2	I	2	0	894	1	Ⴃ	cut_ui_stereo_44KHz.wav
3	15	2	1	0	C	2	1	1216	1	Ⴂ	cut_n_stereo_44KHz.wav
3	16	1	1	1	C	2	0	827	0	Ⴟ	cut_n_stereo_44KHz.wav
3	17	3	4	2	I	2	0	1225	0	Ⴡ	cut_ui_stereo_44KHz.wav
3	18	2	2	1	C	2	0	812	0	Ⴂ	cut_r_stereo_44KHz.wav
3	19	1	2	0	C	2	1	1146	1	Ⴟ	cut_r_stereo_44KHz.wav
3	20	4	4	2	I	2	0	1233	0	Ⴃ	cut_ui_stereo_44KHz.wav
3	21	3	3	2	I	2	0	911	1	Ⴡ	cut_ei_stereo_44KHz.wav
3	22	1	1	1	C	1	1	908	1	Ⴟ	cut_n_stereo_44KHz.wav
3	23	4	3	2	I	2	0	1235	0	Ⴃ	cut_ei_stereo_44KHz.wav
3	24	2	1	0	C	2	1	837	1	Ⴂ	cut_n_stereo_44KHz.wav
3	25	4	3	2	I	1	0	1323	1	Ⴃ	cut_ei_stereo_44KHz.wav
3	26	2	2	1	C	1	1	1292	1	Ⴂ	cut_r_stereo_44KHz.wav
3	27	3	4	2	I	1	0	1101	1	Ⴡ	cut_ui_stereo_44KHz.wav
3	28	1	2	0	C	2	1	897	1	Ⴟ	cut_r_stereo_44KHz.wav
3	29	3	3	2	I	2	0	665	1	Ⴡ	cut_ei_stereo_44KHz.wav
3	30	2	1	0	C	2	1	1086	1	Ⴂ	cut_n_stereo_44KHz.wav
3	31	4	4	2	I	2	0	1069	1	Ⴃ	cut_ui_stereo_44KHz.wav
3	32	1	1	1	C	1	1	1111	1	Ⴟ	cut_n_stereo_44KHz.wav
3	33	2	2	1	C	2	0	1197	0	Ⴂ	cut_r_stereo_44KHz.wav
3	34	3	3	2	I	2	0	789	0	Ⴡ	cut_ei_stereo_44KHz.wav
3	35	1	1	1	C	1	1	1411	1	Ⴟ	cut_n_stereo_44KHz.wav
3	36	4	3	2	I	1	0	1318	1	Ⴃ	cut_ei_stereo_44KHz.wav
3	37	1	2	0	C	2	1	800	1	Ⴟ	cut_r_stereo_44KHz.wav
3	38	2	1	0	C	2	1	1396	1	Ⴂ	cut_n_stereo_44KHz.wav
3	39	4	4	2	I	2	0	1000	0	Ⴃ	cut_ui_stereo_44KHz.wav
3	40	3	4	2	I	2	0	1128	0	Ⴡ	cut_ui_stereo_44KHz.wav
3	41	1	1	1	C	1	1	1055	1	Ⴟ	cut_n_stereo_44KHz.wav
3	42	3	4	2	I	1	0	1039	0	Ⴡ	cut_ui_stereo_44KHz.wav
3	43	2	2	1	C	1	1	1108	1	Ⴂ	cut_r_stereo_44KHz.wav
3	44	4	4	2	I	2	0	777	0	Ⴃ	cut_ui_stereo_44KHz.wav
3	45	3	3	2	I	2	0	771	1	Ⴡ	cut_ei_stereo_44KHz.wav
3	46	2	1	0	C	2	1	1072	1	Ⴂ	cut_n_stereo_44KHz.wav
3	47	1	2	0	C	2	1	827	1	Ⴟ	cut_r_stereo_44KHz.wav
3	48	4	3	2	I	1	0	970	1	Ⴃ	cut_ei_stereo_44KHz.wav
3	49	2	1	0	C	2	1	1004	1	Ⴂ	cut_n_stereo_44KHz.wav
3	50	1	2	0	C	2	1	693	1	Ⴟ	cut_r_stereo_44KHz.wav
3	51	4	4	2	I	1	0	1061	1	Ⴃ	cut_ui_stereo_44KHz.wav
3	52	3	3	2	I	2	0	934	1	Ⴡ	cut_ei_stereo_44KHz.wav
3	53	4	3	2	I	2	0	1199	0	Ⴃ	cut_ei_stereo_44KHz.wav
3	54	3	4	2	I	2	0	799	1	Ⴡ	cut_ui_stereo_44KHz.wav
3	55	1	1	1	C	1	1	1230	1	Ⴟ	cut_n_stereo_44KHz.wav
3	56	2	2	1	C	1	1	1564	1	Ⴂ	cut_r_stereo_44KHz.wav
3	57	1	2	0	C	2	1	687	1	Ⴟ	cut_r_stereo_44KHz.wav
3	58	3	4	2	I	2	0	1247	0	Ⴡ	cut_ui_stereo_44KHz.wav
3	59	2	2	1	C	1	1	874	1	Ⴂ	cut_r_stereo_44KHz.wav
3	60	4	4	2	I	2	0	1372	0	Ⴃ	cut_ui_stereo_44KHz.wav
3	61	3	3	2	I	1	0	792	1	Ⴡ	cut_ei_stereo_44KHz.wav
3	62	1	1	1	C	1	1	1168	1	Ⴟ	cut_n_stereo_44KHz.wav
3	63	4	3	2	I	1	0	759	1	Ⴃ	cut_ei_stereo_44KHz.wav
3	64	2	1	0	C	2	1	1403	1	Ⴂ	cut_n_stereo_44KHz.wav
3	65	4	3	2	I	1	0	712	0	Ⴃ	cut_ei_stereo_44KHz.wav
3	66	1	2	0	C	2	1	1306	1	Ⴟ	cut_r_stereo_44KHz.wav
3	67	2	1	0	C	2	1	1497	1	Ⴂ	cut_n_stereo_44KHz.wav
3	68	3	3	2	I	1	0	1366	1	Ⴡ	cut_ei_stereo_44KHz.wav
3	69	1	1	1	C	1	1	812	1	Ⴟ	cut_n_stereo_44KHz.wav
3	70	2	2	1	C	1	1	1444	1	Ⴂ	cut_r_stereo_44KHz.wav
3	71	3	4	2	I	2	0	671	0	Ⴡ	cut_ui_stereo_44KHz.wav
3	72	4	4	2	I	1	0	740	0	Ⴃ	cut_ui_stereo_44KHz.wav
3	73	1	2	0	C	2	1	1517	1	Ⴟ	cut_r_stereo_44KHz.wav
3	74	4	4	2	I	2	0	1378	1	Ⴃ	cut_ui_stereo_44KHz.wav
3	75	2	2	1	C	1	1	917	1	Ⴂ	cut_r_stereo_44KHz.wav
3	76	3	3	2	I	1	0	1030	0	Ⴡ	cut_ei_stereo_44KHz.wav
3	77	1	1	1	C	0	0	0	0	Ⴟ	cut_n_stereo_44KHz.wav
3	78	2	1	0	C	2	1	1768	1	Ⴂ	cut_n_stereo_44KHz.wav
3	79	4	3	2	I	2	0	1454	1	Ⴃ	cut_ei_stereo_44KHz.wav
3	80	3	4	2	I	1	0	1401	1	Ⴡ	cut_ui_stereo_44KHz.wav
3	81	2	1	0	C	2	1	1403	1	Ⴂ	cut_n_stereo_44KHz.wav
3	82	3	3	2	I	2	0	1441	0	Ⴡ	cut_ei_stereo_44KHz.wav
3	83	1	2	0	C	2	1	693	1	Ⴟ	cut_r_stereo_44KHz.wav
3	84	4	4	2	I	2	0	780	0	Ⴃ	cut_ui_stereo_44KHz.wav
3	85	2	2	1	C	1	1	868	1	Ⴂ	cut_r_stereo_44KHz.wav
3	86	3	4	2	I	1	0	1727	0	Ⴡ	cut_ui_stereo_44KHz.wav
3	87	1	1	1	C	1	1	986	1	Ⴟ	cut_n_stereo_44KHz.wav
3	88	4	3	2	I	2	0	893	1	Ⴃ	cut_ei_stereo_44KHz.wav
3	89	2	2	1	C	1	1	1052	1	Ⴂ	cut_r_stereo_44KHz.wav
3	90	3	3	2	I	1	0	1056	1	Ⴡ	cut_ei_stereo_44KHz.wav
3	91	1	2	0	C	2	1	1388	1	Ⴟ	cut_r_stereo_44KHz.wav
3	92	4	4	2	I	2	0	878	1	Ⴃ	cut_ui_stereo_44KHz.wav
3	93	1	1	1	C	1	1	845	1	Ⴟ	cut_n_stereo_44KHz.wav
3	94	3	4	2	I	2	0	995	1	Ⴡ	cut_ui_stereo_44KHz.wav
3	95	4	3	2	I	2	0	1636	0	Ⴃ	cut_ei_stereo_44KHz.wav
3	96	2	1	0	C	2	1	1496	1	Ⴂ	cut_n_stereo_44KHz.wav
3	97	4	4	2	I	2	0	749	0	Ⴃ	cut_ui_stereo_44KHz.wav
3	98	1	2	0	C	2	1	896	1	Ⴟ	cut_r_stereo_44KHz.wav
3	99	2	2	1	C	1	1	1249	1	Ⴂ	cut_r_stereo_44KHz.wav
3	100	3	3	2	I	2	0	1337	1	Ⴡ	cut_ei_stereo_44KHz.wav
3	101	4	3	2	I	2	0	1358	1	Ⴃ	cut_ei_stereo_44KHz.wav
3	102	3	4	2	I	1	0	1838	0	Ⴡ	cut_ui_stereo_44KHz.wav
3	103	1	1	1	C	2	0	1273	0	Ⴟ	cut_n_stereo_44KHz.wav
3	104	2	1	0	C	1	0	972	0	Ⴂ	cut_n_stereo_44KHz.wav
3	105	1	1	1	C	1	1	1227	1	Ⴟ	cut_n_stereo_44KHz.wav
3	106	2	2	1	C	1	1	1121	1	Ⴂ	cut_r_stereo_44KHz.wav
3	107	4	4	2	I	2	0	1364	1	Ⴃ	cut_ui_stereo_44KHz.wav
3	108	3	3	2	I	2	0	1021	0	Ⴡ	cut_ei_stereo_44KHz.wav
3	109	4	3	2	I	2	0	604	0	Ⴃ	cut_ei_stereo_44KHz.wav
3	110	2	1	0	C	2	1	1173	1	Ⴂ	cut_n_stereo_44KHz.wav
3	111	1	2	0	C	2	1	1653	1	Ⴟ	cut_r_stereo_44KHz.wav
3	112	3	4	2	I	2	0	808	1	Ⴡ	cut_ui_stereo_44KHz.wav
3	113	2	2	1	C	1	1	1081	1	Ⴂ	cut_r_stereo_44KHz.wav
3	114	3	3	2	I	2	0	993	0	Ⴡ	cut_ei_stereo_44KHz.wav
3	115	4	4	2	I	1	0	1175	0	Ⴃ	cut_ui_stereo_44KHz.wav
3	116	1	2	0	C	2	1	922	1	Ⴟ	cut_r_stereo_44KHz.wav
3	117	2	1	0	C	2	1	1010	1	Ⴂ	cut_n_stereo_44KHz.wav
3	118	4	3	2	I	2	0	1179	0	Ⴃ	cut_ei_stereo_44KHz.wav
3	119	1	1	1	C	2	0	1174	0	Ⴟ	cut_n_stereo_44KHz.wav
3	120	3	4	2	I	2	0	931	1	Ⴡ	cut_ui_stereo_44KHz.wav
3	121	4	3	2	I	2	0	733	1	Ⴃ	cut_ei_stereo_44KHz.wav
3	122	3	4	2	I	2	0	1215	0	Ⴡ	cut_ui_stereo_44KHz.wav
3	123	1	1	1	C	1	1	1050	1	Ⴟ	cut_n_stereo_44KHz.wav
3	124	2	1	0	C	2	1	991	1	Ⴂ	cut_n_stereo_44KHz.wav
3	125	1	2	0	C	2	1	1045	1	Ⴟ	cut_r_stereo_44KHz.wav
3	126	2	2	1	C	2	0	776	0	Ⴂ	cut_r_stereo_44KHz.wav
3	127	3	3	2	I	1	0	1115	1	Ⴡ	cut_ei_stereo_44KHz.wav
3	128	4	4	2	I	2	0	1191	1	Ⴃ	cut_ui_stereo_44KHz.wav
3	129	3	3	2	I	2	0	831	0	Ⴡ	cut_ei_stereo_44KHz.wav
3	130	1	2	0	C	2	1	955	1	Ⴟ	cut_r_stereo_44KHz.wav
3	131	4	3	2	I	1	0	1005	0	Ⴃ	cut_ei_stereo_44KHz.wav
3	132	2	1	0	C	2	1	1304	1	Ⴂ	cut_n_stereo_44KHz.wav
3	133	4	4	2	I	2	0	1090	1	Ⴃ	cut_ui_stereo_44KHz.wav
3	134	2	2	1	C	1	1	1566	1	Ⴂ	cut_r_stereo_44KHz.wav
3	135	3	4	2	I	1	0	1192	0	Ⴡ	cut_ui_stereo_44KHz.wav
3	136	1	1	1	C	1	1	900	1	Ⴟ	cut_n_stereo_44KHz.wav
3	137	2	1	0	C	2	1	1640	1	Ⴂ	cut_n_stereo_44KHz.wav
3	138	4	4	2	I	2	0	1255	1	Ⴃ	cut_ui_stereo_44KHz.wav
3	139	3	3	2	I	2	0	802	0	Ⴡ	cut_ei_stereo_44KHz.wav
3	140	1	1	1	C	2	0	1738	0	Ⴟ	cut_n_stereo_44KHz.wav
3	141	3	4	2	I	2	0	1220	1	Ⴡ	cut_ui_stereo_44KHz.wav
3	142	4	3	2	I	2	0	1134	0	Ⴃ	cut_ei_stereo_44KHz.wav
3	143	1	2	0	C	2	1	702	1	Ⴟ	cut_r_stereo_44KHz.wav
3	144	2	2	1	C	1	1	800	1	Ⴂ	cut_r_stereo_44KHz.wav
3	145	4	3	2	I	2	0	1742	0	Ⴃ	cut_ei_stereo_44KHz.wav
3	146	2	2	1	C	1	1	1942	1	Ⴂ	cut_r_stereo_44KHz.wav
3	147	1	2	0	C	2	1	1321	1	Ⴟ	cut_r_stereo_44KHz.wav
3	148	3	4	2	I	2	0	1101	1	Ⴡ	cut_ui_stereo_44KHz.wav
3	149	4	4	2	I	1	0	1539	1	Ⴃ	cut_ui_stereo_44KHz.wav
3	150	1	1	1	C	0	0	0	0	Ⴟ	cut_n_stereo_44KHz.wav
3	151	3	3	2	I	2	0	1077	0	Ⴡ	cut_ei_stereo_44KHz.wav
3	152	2	1	0	C	2	1	1225	1	Ⴂ	cut_n_stereo_44KHz.wav
3	153	4	4	2	I	1	0	1648	0	Ⴃ	cut_ui_stereo_44KHz.wav
3	154	2	1	0	C	2	1	1117	1	Ⴂ	cut_n_stereo_44KHz.wav
3	155	3	3	2	I	1	0	1932	0	Ⴡ	cut_ei_stereo_44KHz.wav
3	156	1	2	0	C	2	1	744	1	Ⴟ	cut_r_stereo_44KHz.wav
3	157	2	2	1	C	2	0	1022	0	Ⴂ	cut_r_stereo_44KHz.wav
3	158	3	4	2	I	2	0	1313	1	Ⴡ	cut_ui_stereo_44KHz.wav
3	159	4	3	2	I	1	0	857	1	Ⴃ	cut_ei_stereo_44KHz.wav
3	160	1	1	1	C	1	1	1014	1	Ⴟ	cut_n_stereo_44KHz.wav
3	161	3	4	2	I	2	0	1073	0	Ⴡ	cut_ui_stereo_44KHz.wav
3	162	2	2	1	C	1	1	1064	1	Ⴂ	cut_r_stereo_44KHz.wav
3	163	4	4	2	I	2	0	1163	0	Ⴃ	cut_ui_stereo_44KHz.wav
3	164	1	1	1	C	1	1	1147	1	Ⴟ	cut_n_stereo_44KHz.wav
3	165	2	1	0	C	2	1	1163	1	Ⴂ	cut_n_stereo_44KHz.wav
3	166	1	2	0	C	2	1	719	1	Ⴟ	cut_r_stereo_44KHz.wav
3	167	3	3	2	I	2	0	1249	1	Ⴡ	cut_ei_stereo_44KHz.wav
3	168	4	3	2	I	1	0	1239	1	Ⴃ	cut_ei_stereo_44KHz.wav
3	169	3	3	2	I	1	0	1132	1	Ⴡ	cut_ei_stereo_44KHz.wav
3	170	1	2	0	C	2	1	996	1	Ⴟ	cut_r_stereo_44KHz.wav
3	171	4	4	2	I	0	0	0	0	Ⴃ	cut_ui_stereo_44KHz.wav
3	172	2	2	1	C	1	1	1111	1	Ⴂ	cut_r_stereo_44KHz.wav
3	173	1	1	1	C	2	0	1933	0	Ⴟ	cut_n_stereo_44KHz.wav
3	174	3	4	2	I	2	0	1072	1	Ⴡ	cut_ui_stereo_44KHz.wav
3	175	4	3	2	I	1	0	1850	0	Ⴃ	cut_ei_stereo_44KHz.wav
3	176	2	1	0	C	2	1	1491	1	Ⴂ	cut_n_stereo_44KHz.wav
3	177	3	3	2	I	2	0	1508	0	Ⴡ	cut_ei_stereo_44KHz.wav
3	178	1	1	1	C	1	1	1275	1	Ⴟ	cut_n_stereo_44KHz.wav
3	179	4	3	2	I	2	0	1229	0	Ⴃ	cut_ei_stereo_44KHz.wav
3	180	2	1	0	C	2	1	1494	1	Ⴂ	cut_n_stereo_44KHz.wav
3	181	1	2	0	C	2	1	1103	1	Ⴟ	cut_r_stereo_44KHz.wav
3	182	3	4	2	I	2	0	1291	0	Ⴡ	cut_ui_stereo_44KHz.wav
3	183	2	2	1	C	1	1	1910	1	Ⴂ	cut_r_stereo_44KHz.wav
3	184	4	4	2	I	2	0	1383	1	Ⴃ	cut_ui_stereo_44KHz.wav
3	185	2	2	1	C	1	1	1073	1	Ⴂ	cut_r_stereo_44KHz.wav
3	186	3	4	2	I	2	0	1193	1	Ⴡ	cut_ui_stereo_44KHz.wav
3	187	1	2	0	C	2	1	1168	1	Ⴟ	cut_r_stereo_44KHz.wav
3	188	4	4	2	I	2	0	1103	0	Ⴃ	cut_ui_stereo_44KHz.wav
3	189	2	1	0	C	2	1	1335	1	Ⴂ	cut_n_stereo_44KHz.wav
3	190	1	1	1	C	1	1	1309	1	Ⴟ	cut_n_stereo_44KHz.wav
3	191	4	3	2	I	1	0	1680	1	Ⴃ	cut_ei_stereo_44KHz.wav
3	192	3	3	2	I	1	0	1418	1	Ⴡ	cut_ei_stereo_44KHz.wav
3	193	4	3	2	I	1	0	1395	0	Ⴃ	cut_ei_stereo_44KHz.wav
3	194	1	1	1	C	1	1	1043	1	Ⴟ	cut_n_stereo_44KHz.wav
3	195	2	2	1	C	1	1	1474	1	Ⴂ	cut_r_stereo_44KHz.wav
3	196	3	4	2	I	2	0	1674	1	Ⴡ	cut_ui_stereo_44KHz.wav
3	197	4	4	2	I	1	0	825	1	Ⴃ	cut_ui_stereo_44KHz.wav
3	198	1	2	0	C	2	1	1296	1	Ⴟ	cut_r_stereo_44KHz.wav
3	199	3	3	2	I	1	0	1912	0	Ⴡ	cut_ei_stereo_44KHz.wav
3	200	2	1	0	C	2	1	1259	1	Ⴂ	cut_n_stereo_44KHz.wav
4	1	2	2	1	C	2	0	932	0	Ⴉ	cut_g_stereo_44KHz.wav
4	2	3	3	2	I	2	0	850	0	Ⴏ	cut_h_stereo_44KHz.wav
4	3	1	2	0	C	1	0	395	0	Ⴕ	cut_g_stereo_44KHz.wav
4	4	4	4	2	I	1	0	1438	0	Ⴌ	cut_w_stereo_44KHz.wav
4	5	2	1	0	C	2	1	1003	1	Ⴉ	cut_l_stereo_44KHz.wav
4	6	4	3	2	I	1	0	972	1	Ⴌ	cut_h_stereo_44KHz.wav
4	7	1	1	1	C	0	0	0	0	Ⴕ	cut_l_stereo_44KHz.wav
4	8	3	4	2	I	1	0	1152	1	Ⴏ	cut_w_stereo_44KHz.wav
4	9	1	2	0	C	2	1	848	1	Ⴕ	cut_g_stereo_44KHz.wav
4	10	2	1	0	C	2	1	1094	1	Ⴉ	cut_l_stereo_44KHz.wav
4	11	4	4	2	I	1	0	1707	1	Ⴌ	cut_w_stereo_44KHz.wav
4	12	3	4	2	I	1	0	1156	1	Ⴏ	cut_w_stereo_44KHz.wav
4	13	4	3	2	I	2	0	1510	1	Ⴌ	cut_h_stereo_44KHz.wav
4	14	3	3	2	I	1	0	1545	0	Ⴏ	cut_h_stereo_44KHz.wav
4	15	1	1	1	C	1	1	1624	1	Ⴕ	cut_l_stereo_44KHz.wav
4	16	2	2	1	C	2	0	1862	0	Ⴉ	cut_g_stereo_44KHz.wav
4	17	1	2	0	C	1	0	904	0	Ⴕ	cut_g_stereo_44KHz.wav
4	18	3	3	2	I	1	0	1013	0	Ⴏ	cut_h_stereo_44KHz.wav
4	19	4	3	2	I	2	0	838	1	Ⴌ	cut_h_stereo_44KHz.wav
4	20	2	1	0	C	1	0	926	0	Ⴉ	cut_l_stereo_44KHz.wav
4	21	1	1	1	C	1	1	1734	1	Ⴕ	cut_l_stereo_44KHz.wav
4	22	3	4	2	I	1	0	1086	1	Ⴏ	cut_w_stereo_44KHz.wav
4	23	2	2	1	C	2	0	682	0	Ⴉ	cut_g_stereo_44KHz.wav
4	24	4	4	2	I	1	0	1132	0	Ⴌ	cut_w_stereo_44KHz.wav
4	25	3	3	2	I	2	0	1327	0	Ⴏ	cut_h_stereo_44KHz.wav
4	26	2	2	1	C	2	0	1600	0	Ⴉ	cut_g_stereo_44KHz.wav
4	27	4	4	2	I	1	0	1462	1	Ⴌ	cut_w_stereo_44KHz.wav
4	28	1	1	1	C	2	0	1451	0	Ⴕ	cut_l_stereo_44KHz.wav
4	29	3	4	2	I	2	0	1018	0	Ⴏ	cut_w_stereo_44KHz.wav
4	30	1	2	0	C	2	1	1361	1	Ⴕ	cut_g_stereo_44KHz.wav
4	31	4	3	2	I	2	0	1289	0	Ⴌ	cut_h_stereo_44KHz.wav
4	32	2	1	0	C	2	1	1962	1	Ⴉ	cut_l_stereo_44KHz.wav
4	33	3	4	2	I	2	0	1154	0	Ⴏ	cut_w_stereo_44KHz.wav
4	34	2	1	0	C	2	1	1189	1	Ⴉ	cut_l_stereo_44KHz.wav
4	35	1	2	0	C	2	1	1489	1	Ⴕ	cut_g_stereo_44KHz.wav
4	36	4	4	2	I	2	0	1584	0	Ⴌ	cut_w_stereo_44KHz.wav
4	37	2	2	1	C	1	1	986	1	Ⴉ	cut_g_stereo_44KHz.wav
4	38	3	3	2	I	1	0	1752	1	Ⴏ	cut_h_stereo_44KHz.wav
4	39	1	1	1	C	1	1	950	1	Ⴕ	cut_l_stereo_44KHz.wav
4	40	4	3	2	I	1	0	1313	0	Ⴌ	cut_h_stereo_44KHz.wav
4	41	2	1	0	C	2	1	1312	1	Ⴉ	cut_l_stereo_44KHz.wav
4	42	4	4	2	I	2	0	1367	1	Ⴌ	cut_w_stereo_44KHz.wav
4	43	1	2	0	C	2	1	1012	1	Ⴕ	cut_g_stereo_44KHz.wav
4	44	3	4	2	I	2	0	1573	1	Ⴏ	cut_w_stereo_44KHz.wav
4	45	1	1	1	C	1	1	1346	1	Ⴕ	cut_l_stereo_44KHz.wav
4	46	2	2	1	C	1	1	1715	1	Ⴉ	cut_g_stereo_44KHz.wav
4	47	3	3	2	I	1	0	1750	0	Ⴏ	cut_h_stereo_44KHz.wav
4	48	4	3	2	I	0	0	0	0	Ⴌ	cut_h_stereo_44KHz.wav
4	49	2	1	0	C	2	1	1137	1	Ⴉ	cut_l_stereo_44KHz.wav
4	50	3	3	2	I	1	0	1423	0	Ⴏ	cut_h_stereo_44KHz.wav
4	51	4	4	2	I	2	0	1481	1	Ⴌ	cut_w_stereo_44KHz.wav
4	52	1	2	0	C	2	1	1097	1	Ⴕ	cut_g_stereo_44KHz.wav
4	53	4	3	2	I	2	0	1718	1	Ⴌ	cut_h_stereo_44KHz.wav
4	54	3	4	2	I	2	0	1359	1	Ⴏ	cut_w_stereo_44KHz.wav
4	55	1	1	1	C	1	1	1318	1	Ⴕ	cut_l_stereo_44KHz.wav
4	56	2	2	1	C	1	1	1344	1	Ⴉ	cut_g_stereo_44KHz.wav
4	57	4	4	2	I	0	0	0	0	Ⴌ	cut_w_stereo_44KHz.wav
4	58	2	1	0	C	2	1	832	1	Ⴉ	cut_l_stereo_44KHz.wav
4	59	1	2	0	C	2	1	1305	1	Ⴕ	cut_g_stereo_44KHz.wav
4	60	3	4	2	I	1	0	817	0	Ⴏ	cut_w_stereo_44KHz.wav
4	61	1	1	1	C	1	1	912	1	Ⴕ	cut_l_stereo_44KHz.wav
4	62	3	3	2	I	2	0	1072	1	Ⴏ	cut_h_stereo_44KHz.wav
4	63	4	3	2	I	2	0	931	1	Ⴌ	cut_h_stereo_44KHz.wav
4	64	2	2	1	C	2	0	884	0	Ⴉ	cut_g_stereo_44KHz.wav
4	65	3	4	2	I	1	0	1412	1	Ⴏ	cut_w_stereo_44KHz.wav
4	66	2	2	1	C	2	0	1308	0	Ⴉ	cut_g_stereo_44KHz.wav
4	67	4	3	2	I	1	0	1172	0	Ⴌ	cut_h_stereo_44KHz.wav
4	68	1	1	1	C	1	1	918	1	Ⴕ	cut_l_stereo_44KHz.wav
4	69	3	3	2	I	2	0	957	0	Ⴏ	cut_h_stereo_44KHz.wav
4	70	4	4	2	I	2	0	1159	1	Ⴌ	cut_w_stereo_44KHz.wav
4	71	1	2	0	C	2	1	1757	1	Ⴕ	cut_g_stereo_44KHz.wav
4	72	2	1	0	C	2	1	1665	1	Ⴉ	cut_l_stereo_44KHz.wav
4	73	1	2	0	C	2	1	1125	1	Ⴕ	cut_g_stereo_44KHz.wav
4	74	2	2	1	C	1	1	1148	1	Ⴉ	cut_g_stereo_44KHz.wav
4	75	3	3	2	I	2	0	1348	0	Ⴏ	cut_h_stereo_44KHz.wav
4	76	4	3	2	I	2	0	657	0	Ⴌ	cut_h_stereo_44KHz.wav
4	77	3	4	2	I	1	0	910	1	Ⴏ	cut_w_stereo_44KHz.wav
4	78	2	1	0	C	2	1	1644	1	Ⴉ	cut_l_stereo_44KHz.wav
4	79	1	1	1	C	1	1	892	1	Ⴕ	cut_l_stereo_44KHz.wav
4	80	4	4	2	I	1	0	1828	0	Ⴌ	cut_w_stereo_44KHz.wav
4	81	3	3	2	I	2	0	905	0	Ⴏ	cut_h_stereo_44KHz.wav
4	82	1	1	1	C	1	1	1177	1	Ⴕ	cut_l_stereo_44KHz.wav
4	83	2	2	1	C	1	1	712	1	Ⴉ	cut_g_stereo_44KHz.wav
4	84	4	4	2	I	1	0	1243	1	Ⴌ	cut_w_stereo_44KHz.wav
4	85	1	2	0	C	2	1	1451	1	Ⴕ	cut_g_stereo_44KHz.wav
4	86	4	3	2	I	1	0	1262	1	Ⴌ	cut_h_stereo_44KHz.wav
4	87	2	1	0	C	2	1	777	1	Ⴉ	cut_l_stereo_44KHz.wav
4	88	3	4	2	I	1	0	764	1	Ⴏ	cut_w_stereo_44KHz.wav
4	89	1	2	0	C	2	1	722	1	Ⴕ	cut_g_stereo_44KHz.wav
4	90	2	2	1	C	1	1	1153	1	Ⴉ	cut_g_stereo_44KHz.wav
4	91	3	3	2	I	1	0	1944	1	Ⴏ	cut_h_stereo_44KHz.wav
4	92	4	3	2	I	1	0	1096	0	Ⴌ	cut_h_stereo_44KHz.wav
4	93	1	1	1	C	2	0	647	0	Ⴕ	cut_l_stereo_44KHz.wav
4	94	2	1	0	C	2	1	723	1	Ⴉ	cut_l_stereo_44KHz.wav
4	95	4	4	2	I	1	0	848	0	Ⴌ	cut_w_stereo_44KHz.wav
4	96	3	4	2	I	1	0	1145	0	Ⴏ	cut_w_stereo_44KHz.wav
4	97	4	4	2	I	2	0	842	1	Ⴌ	cut_w_stereo_44KHz.wav
4	98	3	3	2	I	1	0	1573	1	Ⴏ	cut_h_stereo_44KHz.wav
4	99	2	2	1	C	1	1	1433	1	Ⴉ	cut_g_stereo_44KHz.wav
4	100	1	2	0	C	2	1	786	1	Ⴕ	cut_g_stereo_44KHz.wav
4	101	4	3	2	I	2	0	925	1	Ⴌ	cut_h_stereo_44KHz.wav
4	102	2	1	0	C	2	1	848	1	Ⴉ	cut_l_stereo_44KHz.wav
4	103	3	4	2	I	1	0	1134	0	Ⴏ	cut_w_stereo_44KHz.wav
4	104	1	1	1	C	1	1	1493	1	Ⴕ	cut_l_stereo_44KHz.wav
4	105	2	1	0	C	2	1	1288	1	Ⴉ	cut_l_stereo_44KHz.wav
4	106	3	4	2	I	2	0	1032	0	Ⴏ	cut_w_stereo_44KHz.wav
4	107	1	1	1	C	0	0	0	0	Ⴕ	cut_l_stereo_44KHz.wav
4	108	4	4	2	I	2	0	113	0	Ⴌ	cut_w_stereo_44KHz.wav
4	109	3	3	2	I	2	0	1246	1	Ⴏ	cut_h_stereo_44KHz.wav
4	110	1	2	0	C	2	1	743	1	Ⴕ	cut_g_stereo_44KHz.wav
4	111	4	3	2	I	2	0	892	0	Ⴌ	cut_h_stereo_44KHz.wav
4	112	2	2	1	C	1	1	823	1	Ⴉ	cut_g_stereo_44KHz.wav
4	113	3	4	2	I	2	0	1681	0	Ⴏ	cut_w_stereo_44KHz.wav
4	114	2	1	0	C	2	1	1534	1	Ⴉ	cut_l_stereo_44KHz.wav
4	115	1	2	0	C	2	1	1130	1	Ⴕ	cut_g_stereo_44KHz.wav
4	116	4	3	2	I	2	0	1434	0	Ⴌ	cut_h_stereo_44KHz.wav
4	117	1	1	1	C	1	1	1583	1	Ⴕ	cut_l_stereo_44KHz.wav
4	118	2	2	1	C	1	1	978	1	Ⴉ	cut_g_stereo_44KHz.wav
4	119	3	3	2	I	1	0	869	1	Ⴏ	cut_h_stereo_44KHz.wav
4	120	4	4	2	I	1	0	1009	0	Ⴌ	cut_w_stereo_44KHz.wav
4	121	3	3	2	I	2	0	1148	1	Ⴏ	cut_h_stereo_44KHz.wav
4	122	2	1	0	C	2	1	1278	1	Ⴉ	cut_l_stereo_44KHz.wav
4	123	4	4	2	I	2	0	1248	1	Ⴌ	cut_w_stereo_44KHz.wav
4	124	1	1	1	C	1	1	874	1	Ⴕ	cut_l_stereo_44KHz.wav
4	125	2	2	1	C	1	1	1730	1	Ⴉ	cut_g_stereo_44KHz.wav
4	126	3	4	2	I	1	0	1547	1	Ⴏ	cut_w_stereo_44KHz.wav
4	127	1	2	0	C	2	1	684	1	Ⴕ	cut_g_stereo_44KHz.wav
4	128	4	3	2	I	1	0	1700	1	Ⴌ	cut_h_stereo_44KHz.wav
4	129	1	1	1	C	1	1	1913	1	Ⴕ	cut_l_stereo_44KHz.wav
4	130	4	4	2	I	2	0	801	1	Ⴌ	cut_w_stereo_44KHz.wav
4	131	2	2	1	C	1	1	1453	1	Ⴉ	cut_g_stereo_44KHz.wav
4	132	3	4	2	I	2	0	886	1	Ⴏ	cut_w_stereo_44KHz.wav
4	133	4	3	2	I	2	0	961	0	Ⴌ	cut_h_stereo_44KHz.wav
4	134	3	3	2	I	2	0	778	1	Ⴏ	cut_h_stereo_44KHz.wav
4	135	1	2	0	C	2	1	1656	1	Ⴕ	cut_g_stereo_44KHz.wav
4	136	2	1	0	C	2	1	1490	1	Ⴉ	cut_l_stereo_44KHz.wav
4	137	3	3	2	I	2	0	1548	1	Ⴏ	cut_h_stereo_44KHz.wav
4	138	4	3	2	I	2	0	1438	1	Ⴌ	cut_h_stereo_44KHz.wav
4	139	2	2	1	C	1	1	1858	1	Ⴉ	cut_g_stereo_44KHz.wav
4	140	1	1	1	C	1	1	1618	1	Ⴕ	cut_l_stereo_44KHz.wav
4	141	2	1	0	C	2	1	896	1	Ⴉ	cut_l_stereo_44KHz.wav
4	142	3	4	2	I	1	0	761	0	Ⴏ	cut_w_stereo_44KHz.wav
4	143	4	4	2	I	2	0	1163	0	Ⴌ	cut_w_stereo_44KHz.wav
4	144	1	2	0	C	2	1	1190	1	Ⴕ	cut_g_stereo_44KHz.wav
4	145	3	3	2	I	2	0	1032	0	Ⴏ	cut_h_stereo_44KHz.wav
4	146	1	2	0	C	2	1	1178	1	Ⴕ	cut_g_stereo_44KHz.wav
4	147	2	2	1	C	0	0	0	0	Ⴉ	cut_g_stereo_44KHz.wav
4	148	4	3	2	I	2	0	778	1	Ⴌ	cut_h_stereo_44KHz.wav
4	149	2	1	0	C	2	1	1517	1	Ⴉ	cut_l_stereo_44KHz.wav
4	150	1	1	1	C	2	0	1381	0	Ⴕ	cut_l_stereo_44KHz.wav
4	151	3	4	2	I	1	0	1456	0	Ⴏ	cut_w_stereo_44KHz.wav
4	152	4	4	2	I	1	0	1458	1	Ⴌ	cut_w_stereo_44KHz.wav
4	153	1	1	1	C	0	0	0	0	Ⴕ	cut_l_stereo_44KHz.wav
4	154	4	3	2	I	2	0	1619	1	Ⴌ	cut_h_stereo_44KHz.wav
4	155	2	1	0	C	2	1	1158	1	Ⴉ	cut_l_stereo_44KHz.wav
4	156	3	3	2	I	1	0	871	0	Ⴏ	cut_h_stereo_44KHz.wav
4	157	2	2	1	C	1	1	1071	1	Ⴉ	cut_g_stereo_44KHz.wav
4	158	1	2	0	C	2	1	629	1	Ⴕ	cut_g_stereo_44KHz.wav
4	159	3	4	2	I	1	0	1391	1	Ⴏ	cut_w_stereo_44KHz.wav
4	160	4	4	2	I	2	0	1031	1	Ⴌ	cut_w_stereo_44KHz.wav
4	161	1	1	1	C	1	1	929	1	Ⴕ	cut_l_stereo_44KHz.wav
4	162	2	1	0	C	2	1	1007	1	Ⴉ	cut_l_stereo_44KHz.wav
4	163	3	4	2	I	1	0	1133	0	Ⴏ	cut_w_stereo_44KHz.wav
4	164	4	3	2	I	2	0	1262	0	Ⴌ	cut_h_stereo_44KHz.wav
4	165	2	2	1	C	1	1	1234	1	Ⴉ	cut_g_stereo_44KHz.wav
4	166	4	4	2	I	0	0	0	0	Ⴌ	cut_w_stereo_44KHz.wav
4	167	1	2	0	C	2	1	751	1	Ⴕ	cut_g_stereo_44KHz.wav
4	168	3	3	2	I	2	0	1575	0	Ⴏ	cut_h_stereo_44KHz.wav
4	169	2	2	1	C	1	1	1192	1	Ⴉ	cut_g_stereo_44KHz.wav
4	170	3	3	2	I	1	0	1240	0	Ⴏ	cut_h_stereo_44KHz.wav
4	171	1	1	1	C	1	1	1811	1	Ⴕ	cut_l_stereo_44KHz.wav
4	172	4	4	2	I	2	0	965	0	Ⴌ	cut_w_stereo_44KHz.wav
4	173	3	4	2	I	2	0	852	0	Ⴏ	cut_w_stereo_44KHz.wav
4	174	2	1	0	C	1	0	828	0	Ⴉ	cut_l_stereo_44KHz.wav
4	175	4	3	2	I	1	0	1215	1	Ⴌ	cut_h_stereo_44KHz.wav
4	176	1	2	0	C	2	1	1776	1	Ⴕ	cut_g_stereo_44KHz.wav
4	177	3	4	2	I	1	0	1261	1	Ⴏ	cut_w_stereo_44KHz.wav
4	178	4	4	2	I	2	0	632	0	Ⴌ	cut_w_stereo_44KHz.wav
4	179	1	2	0	C	0	0	0	0	Ⴕ	cut_g_stereo_44KHz.wav
4	180	2	2	1	C	1	1	1686	1	Ⴉ	cut_g_stereo_44KHz.wav
4	181	4	3	2	I	2	0	746	0	Ⴌ	cut_h_stereo_44KHz.wav
4	182	2	1	0	C	2	1	1183	1	Ⴉ	cut_l_stereo_44KHz.wav
4	183	1	1	1	C	0	0	0	0	Ⴕ	cut_l_stereo_44KHz.wav
4	184	3	3	2	I	2	0	1440	0	Ⴏ	cut_h_stereo_44KHz.wav
4	185	2	2	1	C	2	0	1674	0	Ⴉ	cut_g_stereo_44KHz.wav
4	186	3	4	2	I	2	0	856	1	Ⴏ	cut_w_stereo_44KHz.wav
4	187	1	1	1	C	2	0	789	0	Ⴕ	cut_l_stereo_44KHz.wav
4	188	4	3	2	I	1	0	1701	0	Ⴌ	cut_h_stereo_44KHz.wav
4	189	3	3	2	I	1	0	1652	1	Ⴏ	cut_h_stereo_44KHz.wav
4	190	1	2	0	C	2	1	1036	1	Ⴕ	cut_g_stereo_44KHz.wav
4	191	2	1	0	C	2	1	908	1	Ⴉ	cut_l_stereo_44KHz.wav
4	192	4	4	2	I	2	0	1717	1	Ⴌ	cut_w_stereo_44KHz.wav
4	193	2	1	0	C	0	0	0	0	Ⴉ	cut_l_stereo_44KHz.wav
4	194	4	4	2	I	2	0	1112	0	Ⴌ	cut_w_stereo_44KHz.wav
4	195	3	4	2	I	2	0	1335	1	Ⴏ	cut_w_stereo_44KHz.wav
4	196	1	1	1	C	1	1	889	1	Ⴕ	cut_l_stereo_44KHz.wav
4	197	3	3	2	I	2	0	942	1	Ⴏ	cut_h_stereo_44KHz.wav
4	198	2	2	1	C	1	1	1268	1	Ⴉ	cut_g_stereo_44KHz.wav
4	199	1	2	0	C	0	0	0	0	Ⴕ	cut_g_stereo_44KHz.wav
4	200	4	3	2	I	2	0	2	0	Ⴌ	cut_h_stereo_44KHz.wav
