block	trial	Vstim	Astim	match	C/I	resp	result	RT	fb	V-file	A-file
LR

0	1	2	3	1	C	0	0	0	0	poli_8sides 21_whiteLine3.jpg	Practice4_b26_stereo_44KHz.wav
0	2	1	2	0	C	1	1	577	1	poli_8sides 22_whiteLine3.jpg	Practice1_b27_cut1_stereo_44KHz.wav
0	3	1	1	1	C	1	0	1011	0	poli_8sides 22_whiteLine3.jpg	Practice3_b26_cut1_stereo_44KHz.wav
0	4	2	4	0	C	1	1	740	1	poli_8sides 21_whiteLine3.jpg	Practice2_b27_cut2_stereo_44KHz.wav
0	5	1	1	1	C	2	1	777	1	poli_8sides 22_whiteLine3.jpg	Practice3_b26_cut1_stereo_44KHz.wav
0	6	2	3	1	C	1	0	731	0	poli_8sides 21_whiteLine3.jpg	Practice4_b26_stereo_44KHz.wav
0	7	1	2	0	C	1	1	802	1	poli_8sides 22_whiteLine3.jpg	Practice1_b27_cut1_stereo_44KHz.wav
0	8	2	4	0	C	2	0	742	0	poli_8sides 21_whiteLine3.jpg	Practice2_b27_cut2_stereo_44KHz.wav
0	9	1	1	1	C	2	1	840	1	poli_8sides 22_whiteLine3.jpg	Practice3_b26_cut1_stereo_44KHz.wav
0	10	1	2	0	C	1	1	686	1	poli_8sides 22_whiteLine3.jpg	Practice1_b27_cut1_stereo_44KHz.wav
0	11	2	3	1	C	1	0	617	0	poli_8sides 21_whiteLine3.jpg	Practice4_b26_stereo_44KHz.wav
0	12	2	4	0	C	2	0	683	0	poli_8sides 21_whiteLine3.jpg	Practice2_b27_cut2_stereo_44KHz.wav
0	13	1	2	0	C	1	1	771	1	poli_8sides 22_whiteLine3.jpg	Practice1_b27_cut1_stereo_44KHz.wav
0	14	1	1	1	C	2	1	734	1	poli_8sides 22_whiteLine3.jpg	Practice3_b26_cut1_stereo_44KHz.wav
0	15	2	4	0	C	1	1	558	1	poli_8sides 21_whiteLine3.jpg	Practice2_b27_cut2_stereo_44KHz.wav
0	16	2	3	1	C	2	1	659	1	poli_8sides 21_whiteLine3.jpg	Practice4_b26_stereo_44KHz.wav
0	17	2	4	0	C	1	1	566	1	poli_8sides 21_whiteLine3.jpg	Practice2_b27_cut2_stereo_44KHz.wav
0	18	2	3	1	C	2	1	831	1	poli_8sides 21_whiteLine3.jpg	Practice4_b26_stereo_44KHz.wav
0	19	1	1	1	C	2	1	896	1	poli_8sides 22_whiteLine3.jpg	Practice3_b26_cut1_stereo_44KHz.wav
0	20	1	2	0	C	2	0	947	0	poli_8sides 22_whiteLine3.jpg	Practice1_b27_cut1_stereo_44KHz.wav
0	21	2	4	0	C	1	1	514	1	poli_8sides 21_whiteLine3.jpg	Practice2_b27_cut2_stereo_44KHz.wav
0	22	2	3	1	C	2	1	759	1	poli_8sides 21_whiteLine3.jpg	Practice4_b26_stereo_44KHz.wav
0	23	1	2	0	C	1	1	577	1	poli_8sides 22_whiteLine3.jpg	Practice1_b27_cut1_stereo_44KHz.wav
0	24	1	1	1	C	2	1	732	1	poli_8sides 22_whiteLine3.jpg	Practice3_b26_cut1_stereo_44KHz.wav
0	25	2	4	0	C	1	1	569	1	poli_8sides 21_whiteLine3.jpg	Practice2_b27_cut2_stereo_44KHz.wav
0	26	1	2	0	C	1	1	1109	1	poli_8sides 22_whiteLine3.jpg	Practice1_b27_cut1_stereo_44KHz.wav
0	27	1	1	1	C	2	1	772	1	poli_8sides 22_whiteLine3.jpg	Practice3_b26_cut1_stereo_44KHz.wav
0	28	2	3	1	C	1	0	549	0	poli_8sides 21_whiteLine3.jpg	Practice4_b26_stereo_44KHz.wav
0	29	1	2	0	C	2	0	783	0	poli_8sides 22_whiteLine3.jpg	Practice1_b27_cut1_stereo_44KHz.wav
0	30	2	4	0	C	1	1	799	1	poli_8sides 21_whiteLine3.jpg	Practice2_b27_cut2_stereo_44KHz.wav
avg_resp = 727
1	1	3	3	2	I	1	0	1100	0	poli_8sides 3_whiteLine3.jpg	MediumShort_b16_cut3_MS_stereo_44KHz.wav
1	2	2	2	1	C	1	0	883	0	poli_8sides 6_whiteLine3.jpg	MediumShort_e22_cut1_stereo_44KHz.wav
1	3	1	1	1	C	1	0	679	0	poli_8sides 9_whiteLine3.jpg	MediumShort_b10_cut1_MS_stereo_44KHz.wav
1	4	4	3	2	I	1	0	754	1	poli_8sides 11_whiteLine3.jpg	MediumShort_b16_cut3_MS_stereo_44KHz.wav
1	5	3	4	2	I	1	0	1099	1	poli_8sides 3_whiteLine3.jpg	MediumShort_e16_cut1_stereo_44KHz.wav
1	6	2	1	0	C	1	1	902	1	poli_8sides 6_whiteLine3.jpg	MediumShort_b10_cut1_MS_stereo_44KHz.wav
1	7	4	4	2	I	1	0	911	0	poli_8sides 11_whiteLine3.jpg	MediumShort_e16_cut1_stereo_44KHz.wav
1	8	1	2	0	C	1	1	995	1	poli_8sides 9_whiteLine3.jpg	MediumShort_e22_cut1_stereo_44KHz.wav
1	9	4	3	2	I	1	0	754	0	poli_8sides 11_whiteLine3.jpg	MediumShort_b16_cut3_MS_stereo_44KHz.wav
1	10	2	1	0	C	1	1	839	1	poli_8sides 6_whiteLine3.jpg	MediumShort_b10_cut1_MS_stereo_44KHz.wav
1	11	3	3	2	I	2	0	841	0	poli_8sides 3_whiteLine3.jpg	MediumShort_b16_cut3_MS_stereo_44KHz.wav
1	12	1	1	1	C	1	0	557	0	poli_8sides 9_whiteLine3.jpg	MediumShort_b10_cut1_MS_stereo_44KHz.wav
1	13	2	2	1	C	2	1	864	1	poli_8sides 6_whiteLine3.jpg	MediumShort_e22_cut1_stereo_44KHz.wav
1	14	3	4	2	I	2	0	1217	0	poli_8sides 3_whiteLine3.jpg	MediumShort_e16_cut1_stereo_44KHz.wav
1	15	4	4	2	I	2	0	811	0	poli_8sides 11_whiteLine3.jpg	MediumShort_e16_cut1_stereo_44KHz.wav
1	16	1	2	0	C	1	1	649	1	poli_8sides 9_whiteLine3.jpg	MediumShort_e22_cut1_stereo_44KHz.wav
1	17	4	3	2	I	2	0	625	1	poli_8sides 11_whiteLine3.jpg	MediumShort_b16_cut3_MS_stereo_44KHz.wav
1	18	3	3	2	I	2	0	678	1	poli_8sides 3_whiteLine3.jpg	MediumShort_b16_cut3_MS_stereo_44KHz.wav
1	19	1	2	0	C	1	1	673	1	poli_8sides 9_whiteLine3.jpg	MediumShort_e22_cut1_stereo_44KHz.wav
1	20	2	1	0	C	2	0	1112	0	poli_8sides 6_whiteLine3.jpg	MediumShort_b10_cut1_MS_stereo_44KHz.wav
1	21	4	4	2	I	1	0	544	0	poli_8sides 11_whiteLine3.jpg	MediumShort_e16_cut1_stereo_44KHz.wav
1	22	3	4	2	I	1	0	617	1	poli_8sides 3_whiteLine3.jpg	MediumShort_e16_cut1_stereo_44KHz.wav
1	23	2	2	1	C	2	1	675	1	poli_8sides 6_whiteLine3.jpg	MediumShort_e22_cut1_stereo_44KHz.wav
1	24	1	1	1	C	2	1	686	1	poli_8sides 9_whiteLine3.jpg	MediumShort_b10_cut1_MS_stereo_44KHz.wav
1	25	2	2	1	C	1	0	1034	0	poli_8sides 6_whiteLine3.jpg	MediumShort_e22_cut1_stereo_44KHz.wav
1	26	4	4	2	I	1	0	778	1	poli_8sides 11_whiteLine3.jpg	MediumShort_e16_cut1_stereo_44KHz.wav
1	27	1	2	0	C	1	1	555	1	poli_8sides 9_whiteLine3.jpg	MediumShort_e22_cut1_stereo_44KHz.wav
1	28	3	3	2	I	2	0	834	1	poli_8sides 3_whiteLine3.jpg	MediumShort_b16_cut3_MS_stereo_44KHz.wav
1	29	2	1	0	C	2	0	912	0	poli_8sides 6_whiteLine3.jpg	MediumShort_b10_cut1_MS_stereo_44KHz.wav
1	30	4	3	2	I	2	0	773	0	poli_8sides 11_whiteLine3.jpg	MediumShort_b16_cut3_MS_stereo_44KHz.wav
1	31	3	4	2	I	1	0	623	1	poli_8sides 3_whiteLine3.jpg	MediumShort_e16_cut1_stereo_44KHz.wav
1	32	1	1	1	C	2	1	740	1	poli_8sides 9_whiteLine3.jpg	MediumShort_b10_cut1_MS_stereo_44KHz.wav
1	33	4	4	2	I	2	0	634	0	poli_8sides 11_whiteLine3.jpg	MediumShort_e16_cut1_stereo_44KHz.wav
1	34	3	4	2	I	1	0	769	0	poli_8sides 3_whiteLine3.jpg	MediumShort_e16_cut1_stereo_44KHz.wav
1	35	2	2	1	C	2	1	890	1	poli_8sides 6_whiteLine3.jpg	MediumShort_e22_cut1_stereo_44KHz.wav
1	36	1	2	0	C	1	1	632	1	poli_8sides 9_whiteLine3.jpg	MediumShort_e22_cut1_stereo_44KHz.wav
1	37	4	3	2	I	1	0	642	0	poli_8sides 11_whiteLine3.jpg	MediumShort_b16_cut3_MS_stereo_44KHz.wav
1	38	2	1	0	C	2	0	828	0	poli_8sides 6_whiteLine3.jpg	MediumShort_b10_cut1_MS_stereo_44KHz.wav
1	39	1	1	1	C	2	1	765	1	poli_8sides 9_whiteLine3.jpg	MediumShort_b10_cut1_MS_stereo_44KHz.wav
1	40	3	3	2	I	2	0	751	1	poli_8sides 3_whiteLine3.jpg	MediumShort_b16_cut3_MS_stereo_44KHz.wav
1	41	1	1	1	C	2	1	677	1	poli_8sides 9_whiteLine3.jpg	MediumShort_b10_cut1_MS_stereo_44KHz.wav
1	42	2	2	1	C	2	1	705	1	poli_8sides 6_whiteLine3.jpg	MediumShort_e22_cut1_stereo_44KHz.wav
1	43	3	4	2	I	2	0	733	0	poli_8sides 3_whiteLine3.jpg	MediumShort_e16_cut1_stereo_44KHz.wav
1	44	4	4	2	I	1	0	967	0	poli_8sides 11_whiteLine3.jpg	MediumShort_e16_cut1_stereo_44KHz.wav
1	45	3	3	2	I	2	0	970	0	poli_8sides 3_whiteLine3.jpg	MediumShort_b16_cut3_MS_stereo_44KHz.wav
1	46	2	1	0	C	2	0	624	0	poli_8sides 6_whiteLine3.jpg	MediumShort_b10_cut1_MS_stereo_44KHz.wav
1	47	4	3	2	I	2	0	848	1	poli_8sides 11_whiteLine3.jpg	MediumShort_b16_cut3_MS_stereo_44KHz.wav
1	48	1	2	0	C	1	1	746	1	poli_8sides 9_whiteLine3.jpg	MediumShort_e22_cut1_stereo_44KHz.wav
1	49	3	3	2	I	2	0	792	0	poli_8sides 3_whiteLine3.jpg	MediumShort_b16_cut3_MS_stereo_44KHz.wav
1	50	1	1	1	C	2	1	691	1	poli_8sides 9_whiteLine3.jpg	MediumShort_b10_cut1_MS_stereo_44KHz.wav
1	51	2	1	0	C	2	0	664	0	poli_8sides 6_whiteLine3.jpg	MediumShort_b10_cut1_MS_stereo_44KHz.wav
1	52	4	3	2	I	1	0	792	0	poli_8sides 11_whiteLine3.jpg	MediumShort_b16_cut3_MS_stereo_44KHz.wav
1	53	3	4	2	I	1	0	725	1	poli_8sides 3_whiteLine3.jpg	MediumShort_e16_cut1_stereo_44KHz.wav
1	54	1	2	0	C	1	1	694	1	poli_8sides 9_whiteLine3.jpg	MediumShort_e22_cut1_stereo_44KHz.wav
1	55	2	2	1	C	2	1	800	1	poli_8sides 6_whiteLine3.jpg	MediumShort_e22_cut1_stereo_44KHz.wav
1	56	4	4	2	I	1	0	618	0	poli_8sides 11_whiteLine3.jpg	MediumShort_e16_cut1_stereo_44KHz.wav
1	57	2	2	1	C	2	1	685	1	poli_8sides 6_whiteLine3.jpg	MediumShort_e22_cut1_stereo_44KHz.wav
1	58	4	3	2	I	1	0	904	1	poli_8sides 11_whiteLine3.jpg	MediumShort_b16_cut3_MS_stereo_44KHz.wav
1	59	3	3	2	I	2	0	613	1	poli_8sides 3_whiteLine3.jpg	MediumShort_b16_cut3_MS_stereo_44KHz.wav
1	60	1	1	1	C	2	1	760	1	poli_8sides 9_whiteLine3.jpg	MediumShort_b10_cut1_MS_stereo_44KHz.wav
1	61	3	4	2	I	1	0	939	1	poli_8sides 3_whiteLine3.jpg	MediumShort_e16_cut1_stereo_44KHz.wav
1	62	2	1	0	C	2	0	741	0	poli_8sides 6_whiteLine3.jpg	MediumShort_b10_cut1_MS_stereo_44KHz.wav
1	63	1	2	0	C	1	1	728	1	poli_8sides 9_whiteLine3.jpg	MediumShort_e22_cut1_stereo_44KHz.wav
1	64	4	4	2	I	2	0	1271	1	poli_8sides 11_whiteLine3.jpg	MediumShort_e16_cut1_stereo_44KHz.wav
1	65	3	3	2	I	2	0	908	0	poli_8sides 3_whiteLine3.jpg	MediumShort_b16_cut3_MS_stereo_44KHz.wav
1	66	1	1	1	C	2	1	819	1	poli_8sides 9_whiteLine3.jpg	MediumShort_b10_cut1_MS_stereo_44KHz.wav
1	67	2	1	0	C	1	1	1029	1	poli_8sides 6_whiteLine3.jpg	MediumShort_b10_cut1_MS_stereo_44KHz.wav
1	68	4	4	2	I	2	0	739	1	poli_8sides 11_whiteLine3.jpg	MediumShort_e16_cut1_stereo_44KHz.wav
1	69	3	4	2	I	1	0	622	1	poli_8sides 3_whiteLine3.jpg	MediumShort_e16_cut1_stereo_44KHz.wav
1	70	2	2	1	C	2	1	1035	1	poli_8sides 6_whiteLine3.jpg	MediumShort_e22_cut1_stereo_44KHz.wav
1	71	4	3	2	I	1	0	815	1	poli_8sides 11_whiteLine3.jpg	MediumShort_b16_cut3_MS_stereo_44KHz.wav
1	72	1	2	0	C	1	1	631	1	poli_8sides 9_whiteLine3.jpg	MediumShort_e22_cut1_stereo_44KHz.wav
1	73	3	4	2	I	1	0	870	1	poli_8sides 3_whiteLine3.jpg	MediumShort_e16_cut1_stereo_44KHz.wav
1	74	2	2	1	C	2	1	985	1	poli_8sides 6_whiteLine3.jpg	MediumShort_e22_cut1_stereo_44KHz.wav
1	75	4	3	2	I	1	0	663	0	poli_8sides 11_whiteLine3.jpg	MediumShort_b16_cut3_MS_stereo_44KHz.wav
1	76	1	1	1	C	2	1	721	1	poli_8sides 9_whiteLine3.jpg	MediumShort_b10_cut1_MS_stereo_44KHz.wav
1	77	2	1	0	C	1	1	518	1	poli_8sides 6_whiteLine3.jpg	MediumShort_b10_cut1_MS_stereo_44KHz.wav
1	78	3	3	2	I	2	0	677	1	poli_8sides 3_whiteLine3.jpg	MediumShort_b16_cut3_MS_stereo_44KHz.wav
1	79	4	4	2	I	2	0	871	1	poli_8sides 11_whiteLine3.jpg	MediumShort_e16_cut1_stereo_44KHz.wav
1	80	1	2	0	C	1	1	600	1	poli_8sides 9_whiteLine3.jpg	MediumShort_e22_cut1_stereo_44KHz.wav
1	81	3	4	2	I	2	0	622	0	poli_8sides 3_whiteLine3.jpg	MediumShort_e16_cut1_stereo_44KHz.wav
1	82	4	4	2	I	2	0	700	1	poli_8sides 11_whiteLine3.jpg	MediumShort_e16_cut1_stereo_44KHz.wav
1	83	1	2	0	C	1	1	689	1	poli_8sides 9_whiteLine3.jpg	MediumShort_e22_cut1_stereo_44KHz.wav
1	84	2	2	1	C	2	1	714	1	poli_8sides 6_whiteLine3.jpg	MediumShort_e22_cut1_stereo_44KHz.wav
1	85	3	3	2	I	1	0	861	1	poli_8sides 3_whiteLine3.jpg	MediumShort_b16_cut3_MS_stereo_44KHz.wav
1	86	4	3	2	I	2	0	668	1	poli_8sides 11_whiteLine3.jpg	MediumShort_b16_cut3_MS_stereo_44KHz.wav
1	87	2	1	0	C	2	0	729	0	poli_8sides 6_whiteLine3.jpg	MediumShort_b10_cut1_MS_stereo_44KHz.wav
1	88	1	1	1	C	2	1	853	1	poli_8sides 9_whiteLine3.jpg	MediumShort_b10_cut1_MS_stereo_44KHz.wav
1	89	3	3	2	I	2	0	785	1	poli_8sides 3_whiteLine3.jpg	MediumShort_b16_cut3_MS_stereo_44KHz.wav
1	90	4	4	2	I	2	0	1140	1	poli_8sides 11_whiteLine3.jpg	MediumShort_e16_cut1_stereo_44KHz.wav
1	91	1	1	1	C	2	1	817	1	poli_8sides 9_whiteLine3.jpg	MediumShort_b10_cut1_MS_stereo_44KHz.wav
1	92	2	1	0	C	2	0	513	0	poli_8sides 6_whiteLine3.jpg	MediumShort_b10_cut1_MS_stereo_44KHz.wav
1	93	3	4	2	I	2	0	1282	0	poli_8sides 3_whiteLine3.jpg	MediumShort_e16_cut1_stereo_44KHz.wav
1	94	2	2	1	C	2	1	845	1	poli_8sides 6_whiteLine3.jpg	MediumShort_e22_cut1_stereo_44KHz.wav
1	95	1	2	0	C	1	1	644	1	poli_8sides 9_whiteLine3.jpg	MediumShort_e22_cut1_stereo_44KHz.wav
1	96	4	3	2	I	1	0	840	0	poli_8sides 11_whiteLine3.jpg	MediumShort_b16_cut3_MS_stereo_44KHz.wav
1	97	2	2	1	C	1	0	1010	0	poli_8sides 6_whiteLine3.jpg	MediumShort_e22_cut1_stereo_44KHz.wav
1	98	4	3	2	I	1	0	710	0	poli_8sides 11_whiteLine3.jpg	MediumShort_b16_cut3_MS_stereo_44KHz.wav
1	99	1	1	1	C	2	1	654	1	poli_8sides 9_whiteLine3.jpg	MediumShort_b10_cut1_MS_stereo_44KHz.wav
1	100	3	3	2	I	1	0	764	1	poli_8sides 3_whiteLine3.jpg	MediumShort_b16_cut3_MS_stereo_44KHz.wav
1	101	1	2	0	C	2	0	589	0	poli_8sides 9_whiteLine3.jpg	MediumShort_e22_cut1_stereo_44KHz.wav
1	102	2	1	0	C	1	1	1133	1	poli_8sides 6_whiteLine3.jpg	MediumShort_b10_cut1_MS_stereo_44KHz.wav
1	103	3	4	2	I	1	0	947	0	poli_8sides 3_whiteLine3.jpg	MediumShort_e16_cut1_stereo_44KHz.wav
1	104	4	4	2	I	2	0	735	0	poli_8sides 11_whiteLine3.jpg	MediumShort_e16_cut1_stereo_44KHz.wav
1	105	1	1	1	C	2	1	798	1	poli_8sides 9_whiteLine3.jpg	MediumShort_b10_cut1_MS_stereo_44KHz.wav
1	106	2	1	0	C	1	1	967	1	poli_8sides 6_whiteLine3.jpg	MediumShort_b10_cut1_MS_stereo_44KHz.wav
1	107	3	4	2	I	2	0	653	1	poli_8sides 3_whiteLine3.jpg	MediumShort_e16_cut1_stereo_44KHz.wav
1	108	4	4	2	I	2	0	603	1	poli_8sides 11_whiteLine3.jpg	MediumShort_e16_cut1_stereo_44KHz.wav
1	109	1	2	0	C	1	1	596	1	poli_8sides 9_whiteLine3.jpg	MediumShort_e22_cut1_stereo_44KHz.wav
1	110	4	3	2	I	2	0	642	1	poli_8sides 11_whiteLine3.jpg	MediumShort_b16_cut3_MS_stereo_44KHz.wav
1	111	2	2	1	C	2	1	934	1	poli_8sides 6_whiteLine3.jpg	MediumShort_e22_cut1_stereo_44KHz.wav
1	112	3	3	2	I	2	0	594	0	poli_8sides 3_whiteLine3.jpg	MediumShort_b16_cut3_MS_stereo_44KHz.wav
1	113	1	1	1	C	2	1	717	1	poli_8sides 9_whiteLine3.jpg	MediumShort_b10_cut1_MS_stereo_44KHz.wav
1	114	4	4	2	I	2	0	580	0	poli_8sides 11_whiteLine3.jpg	MediumShort_e16_cut1_stereo_44KHz.wav
1	115	3	4	2	I	2	0	798	0	poli_8sides 3_whiteLine3.jpg	MediumShort_e16_cut1_stereo_44KHz.wav
1	116	2	1	0	C	2	0	939	0	poli_8sides 6_whiteLine3.jpg	MediumShort_b10_cut1_MS_stereo_44KHz.wav
1	117	1	2	0	C	1	1	665	1	poli_8sides 9_whiteLine3.jpg	MediumShort_e22_cut1_stereo_44KHz.wav
1	118	2	2	1	C	2	1	829	1	poli_8sides 6_whiteLine3.jpg	MediumShort_e22_cut1_stereo_44KHz.wav
1	119	3	3	2	I	2	0	851	1	poli_8sides 3_whiteLine3.jpg	MediumShort_b16_cut3_MS_stereo_44KHz.wav
1	120	4	3	2	I	2	0	815	1	poli_8sides 11_whiteLine3.jpg	MediumShort_b16_cut3_MS_stereo_44KHz.wav
1	121	2	2	1	C	2	1	951	1	poli_8sides 6_whiteLine3.jpg	MediumShort_e22_cut1_stereo_44KHz.wav
1	122	1	1	1	C	2	1	716	1	poli_8sides 9_whiteLine3.jpg	MediumShort_b10_cut1_MS_stereo_44KHz.wav
1	123	3	3	2	I	2	0	590	0	poli_8sides 3_whiteLine3.jpg	MediumShort_b16_cut3_MS_stereo_44KHz.wav
1	124	4	4	2	I	1	0	912	0	poli_8sides 11_whiteLine3.jpg	MediumShort_e16_cut1_stereo_44KHz.wav
1	125	1	2	0	C	1	1	742	1	poli_8sides 9_whiteLine3.jpg	MediumShort_e22_cut1_stereo_44KHz.wav
1	126	4	3	2	I	2	0	718	0	poli_8sides 11_whiteLine3.jpg	MediumShort_b16_cut3_MS_stereo_44KHz.wav
1	127	2	1	0	C	1	1	815	1	poli_8sides 6_whiteLine3.jpg	MediumShort_b10_cut1_MS_stereo_44KHz.wav
1	128	3	4	2	I	1	0	551	0	poli_8sides 3_whiteLine3.jpg	MediumShort_e16_cut1_stereo_44KHz.wav
1	129	2	2	1	C	2	1	675	1	poli_8sides 6_whiteLine3.jpg	MediumShort_e22_cut1_stereo_44KHz.wav
1	130	4	3	2	I	1	0	563	0	poli_8sides 11_whiteLine3.jpg	MediumShort_b16_cut3_MS_stereo_44KHz.wav
1	131	1	2	0	C	1	1	871	1	poli_8sides 9_whiteLine3.jpg	MediumShort_e22_cut1_stereo_44KHz.wav
1	132	3	3	2	I	2	0	737	0	poli_8sides 3_whiteLine3.jpg	MediumShort_b16_cut3_MS_stereo_44KHz.wav
1	133	1	1	1	C	2	1	680	1	poli_8sides 9_whiteLine3.jpg	MediumShort_b10_cut1_MS_stereo_44KHz.wav
1	134	3	4	2	I	1	0	1029	1	poli_8sides 3_whiteLine3.jpg	MediumShort_e16_cut1_stereo_44KHz.wav
1	135	2	1	0	C	2	0	695	0	poli_8sides 6_whiteLine3.jpg	MediumShort_b10_cut1_MS_stereo_44KHz.wav
1	136	4	4	2	I	2	0	1149	1	poli_8sides 11_whiteLine3.jpg	MediumShort_e16_cut1_stereo_44KHz.wav
1	137	3	3	2	I	1	0	813	0	poli_8sides 3_whiteLine3.jpg	MediumShort_b16_cut3_MS_stereo_44KHz.wav
1	138	4	4	2	I	2	0	983	1	poli_8sides 11_whiteLine3.jpg	MediumShort_e16_cut1_stereo_44KHz.wav
1	139	1	1	1	C	2	1	713	1	poli_8sides 9_whiteLine3.jpg	MediumShort_b10_cut1_MS_stereo_44KHz.wav
1	140	2	1	0	C	2	0	838	0	poli_8sides 6_whiteLine3.jpg	MediumShort_b10_cut1_MS_stereo_44KHz.wav
1	141	1	2	0	C	1	1	777	1	poli_8sides 9_whiteLine3.jpg	MediumShort_e22_cut1_stereo_44KHz.wav
1	142	2	2	1	C	2	1	907	1	poli_8sides 6_whiteLine3.jpg	MediumShort_e22_cut1_stereo_44KHz.wav
1	143	3	4	2	I	2	0	830	0	poli_8sides 3_whiteLine3.jpg	MediumShort_e16_cut1_stereo_44KHz.wav
1	144	4	3	2	I	1	0	833	0	poli_8sides 11_whiteLine3.jpg	MediumShort_b16_cut3_MS_stereo_44KHz.wav
1	145	3	3	2	I	2	0	756	0	poli_8sides 3_whiteLine3.jpg	MediumShort_b16_cut3_MS_stereo_44KHz.wav
1	146	1	1	1	C	2	1	682	1	poli_8sides 9_whiteLine3.jpg	MediumShort_b10_cut1_MS_stereo_44KHz.wav
1	147	2	1	0	C	2	0	680	0	poli_8sides 6_whiteLine3.jpg	MediumShort_b10_cut1_MS_stereo_44KHz.wav
1	148	4	4	2	I	1	0	750	1	poli_8sides 11_whiteLine3.jpg	MediumShort_e16_cut1_stereo_44KHz.wav
1	149	2	2	1	C	2	1	757	1	poli_8sides 6_whiteLine3.jpg	MediumShort_e22_cut1_stereo_44KHz.wav
1	150	3	4	2	I	2	0	915	1	poli_8sides 3_whiteLine3.jpg	MediumShort_e16_cut1_stereo_44KHz.wav
1	151	4	3	2	I	1	0	1015	1	poli_8sides 11_whiteLine3.jpg	MediumShort_b16_cut3_MS_stereo_44KHz.wav
1	152	1	2	0	C	1	1	751	1	poli_8sides 9_whiteLine3.jpg	MediumShort_e22_cut1_stereo_44KHz.wav
1	153	2	2	1	C	2	1	727	1	poli_8sides 6_whiteLine3.jpg	MediumShort_e22_cut1_stereo_44KHz.wav
1	154	1	2	0	C	1	1	636	1	poli_8sides 9_whiteLine3.jpg	MediumShort_e22_cut1_stereo_44KHz.wav
1	155	3	4	2	I	2	0	1050	1	poli_8sides 3_whiteLine3.jpg	MediumShort_e16_cut1_stereo_44KHz.wav
1	156	4	4	2	I	2	0	777	0	poli_8sides 11_whiteLine3.jpg	MediumShort_e16_cut1_stereo_44KHz.wav
1	157	3	3	2	I	2	0	1066	1	poli_8sides 3_whiteLine3.jpg	MediumShort_b16_cut3_MS_stereo_44KHz.wav
1	158	2	1	0	C	1	1	834	1	poli_8sides 6_whiteLine3.jpg	MediumShort_b10_cut1_MS_stereo_44KHz.wav
1	159	1	1	1	C	2	1	767	1	poli_8sides 9_whiteLine3.jpg	MediumShort_b10_cut1_MS_stereo_44KHz.wav
1	160	4	3	2	I	2	0	846	0	poli_8sides 11_whiteLine3.jpg	MediumShort_b16_cut3_MS_stereo_44KHz.wav
1	161	2	2	1	C	2	1	1459	1	poli_8sides 6_whiteLine3.jpg	MediumShort_e22_cut1_stereo_44KHz.wav
1	162	4	3	2	I	1	0	1016	1	poli_8sides 11_whiteLine3.jpg	MediumShort_b16_cut3_MS_stereo_44KHz.wav
1	163	3	3	2	I	2	0	634	1	poli_8sides 3_whiteLine3.jpg	MediumShort_b16_cut3_MS_stereo_44KHz.wav
1	164	1	1	1	C	2	1	708	1	poli_8sides 9_whiteLine3.jpg	MediumShort_b10_cut1_MS_stereo_44KHz.wav
1	165	4	4	2	I	2	0	597	0	poli_8sides 11_whiteLine3.jpg	MediumShort_e16_cut1_stereo_44KHz.wav
1	166	1	2	0	C	1	1	672	1	poli_8sides 9_whiteLine3.jpg	MediumShort_e22_cut1_stereo_44KHz.wav
1	167	2	1	0	C	1	1	1008	1	poli_8sides 6_whiteLine3.jpg	MediumShort_b10_cut1_MS_stereo_44KHz.wav
1	168	3	4	2	I	1	0	949	1	poli_8sides 3_whiteLine3.jpg	MediumShort_e16_cut1_stereo_44KHz.wav
1	169	2	1	0	C	1	1	1003	1	poli_8sides 6_whiteLine3.jpg	MediumShort_b10_cut1_MS_stereo_44KHz.wav
1	170	1	1	1	C	2	1	738	1	poli_8sides 9_whiteLine3.jpg	MediumShort_b10_cut1_MS_stereo_44KHz.wav
1	171	3	4	2	I	1	0	566	1	poli_8sides 3_whiteLine3.jpg	MediumShort_e16_cut1_stereo_44KHz.wav
1	172	4	3	2	I	2	0	993	1	poli_8sides 11_whiteLine3.jpg	MediumShort_b16_cut3_MS_stereo_44KHz.wav
1	173	3	3	2	I	2	0	854	0	poli_8sides 3_whiteLine3.jpg	MediumShort_b16_cut3_MS_stereo_44KHz.wav
1	174	4	4	2	I	2	0	740	1	poli_8sides 11_whiteLine3.jpg	MediumShort_e16_cut1_stereo_44KHz.wav
1	175	1	2	0	C	1	1	643	1	poli_8sides 9_whiteLine3.jpg	MediumShort_e22_cut1_stereo_44KHz.wav
1	176	2	2	1	C	2	1	715	1	poli_8sides 6_whiteLine3.jpg	MediumShort_e22_cut1_stereo_44KHz.wav
1	177	3	4	2	I	2	0	700	0	poli_8sides 3_whiteLine3.jpg	MediumShort_e16_cut1_stereo_44KHz.wav
1	178	2	2	1	C	2	1	1215	1	poli_8sides 6_whiteLine3.jpg	MediumShort_e22_cut1_stereo_44KHz.wav
1	179	1	2	0	C	1	1	519	1	poli_8sides 9_whiteLine3.jpg	MediumShort_e22_cut1_stereo_44KHz.wav
1	180	4	3	2	I	2	0	741	1	poli_8sides 11_whiteLine3.jpg	MediumShort_b16_cut3_MS_stereo_44KHz.wav
1	181	2	1	0	C	2	0	620	0	poli_8sides 6_whiteLine3.jpg	MediumShort_b10_cut1_MS_stereo_44KHz.wav
1	182	3	3	2	I	2	0	891	0	poli_8sides 3_whiteLine3.jpg	MediumShort_b16_cut3_MS_stereo_44KHz.wav
1	183	1	1	1	C	2	1	721	1	poli_8sides 9_whiteLine3.jpg	MediumShort_b10_cut1_MS_stereo_44KHz.wav
1	184	4	4	2	I	2	0	692	0	poli_8sides 11_whiteLine3.jpg	MediumShort_e16_cut1_stereo_44KHz.wav
1	185	1	1	1	C	2	1	781	1	poli_8sides 9_whiteLine3.jpg	MediumShort_b10_cut1_MS_stereo_44KHz.wav
1	186	2	2	1	C	2	1	871	1	poli_8sides 6_whiteLine3.jpg	MediumShort_e22_cut1_stereo_44KHz.wav
1	187	3	4	2	I	2	0	701	1	poli_8sides 3_whiteLine3.jpg	MediumShort_e16_cut1_stereo_44KHz.wav
1	188	4	3	2	I	2	0	1189	1	poli_8sides 11_whiteLine3.jpg	MediumShort_b16_cut3_MS_stereo_44KHz.wav
1	189	1	2	0	C	1	1	668	1	poli_8sides 9_whiteLine3.jpg	MediumShort_e22_cut1_stereo_44KHz.wav
1	190	4	4	2	I	2	0	816	0	poli_8sides 11_whiteLine3.jpg	MediumShort_e16_cut1_stereo_44KHz.wav
1	191	2	1	0	C	2	0	1051	0	poli_8sides 6_whiteLine3.jpg	MediumShort_b10_cut1_MS_stereo_44KHz.wav
1	192	3	3	2	I	2	0	916	0	poli_8sides 3_whiteLine3.jpg	MediumShort_b16_cut3_MS_stereo_44KHz.wav
1	193	4	3	2	I	2	0	887	1	poli_8sides 11_whiteLine3.jpg	MediumShort_b16_cut3_MS_stereo_44KHz.wav
1	194	2	1	0	C	1	1	649	1	poli_8sides 6_whiteLine3.jpg	MediumShort_b10_cut1_MS_stereo_44KHz.wav
1	195	1	2	0	C	1	1	638	1	poli_8sides 9_whiteLine3.jpg	MediumShort_e22_cut1_stereo_44KHz.wav
1	196	3	3	2	I	2	0	798	0	poli_8sides 3_whiteLine3.jpg	MediumShort_b16_cut3_MS_stereo_44KHz.wav
1	197	4	4	2	I	1	0	653	0	poli_8sides 11_whiteLine3.jpg	MediumShort_e16_cut1_stereo_44KHz.wav
1	198	1	1	1	C	2	1	756	1	poli_8sides 9_whiteLine3.jpg	MediumShort_b10_cut1_MS_stereo_44KHz.wav
1	199	2	2	1	C	2	1	737	1	poli_8sides 6_whiteLine3.jpg	MediumShort_e22_cut1_stereo_44KHz.wav
1	200	3	4	2	I	1	0	1170	0	poli_8sides 3_whiteLine3.jpg	MediumShort_e16_cut1_stereo_44KHz.wav
2	1	4	3	2	I	1	0	1185	0	poli_8sides 16_whiteLine3.jpg	Medium_e13_stereo_44KHz.wav
2	2	2	2	1	C	1	0	738	0	poli_8sides 1_whiteLine3.jpg	Medium_e01_cut1_stereo_44KHz.wav
2	3	3	3	2	I	1	0	574	1	poli_8sides 5_whiteLine3.jpg	Medium_e13_stereo_44KHz.wav
2	4	1	2	0	C	1	1	1046	1	poli_8sides 10_whiteLine3.jpg	Medium_e01_cut1_stereo_44KHz.wav
2	5	3	4	2	I	1	0	803	1	poli_8sides 5_whiteLine3.jpg	Medium_e21_stereo_44KHz.wav
2	6	1	1	1	C	2	1	718	1	poli_8sides 10_whiteLine3.jpg	MediumLong_b10_cut2_L_stereo_44KHz.wav
2	7	2	1	0	C	1	1	1456	1	poli_8sides 1_whiteLine3.jpg	MediumLong_b10_cut2_L_stereo_44KHz.wav
2	8	4	4	2	I	2	0	1030	0	poli_8sides 16_whiteLine3.jpg	Medium_e21_stereo_44KHz.wav
2	9	3	4	2	I	2	0	1131	1	poli_8sides 5_whiteLine3.jpg	Medium_e21_stereo_44KHz.wav
2	10	2	2	1	C	1	0	1156	0	poli_8sides 1_whiteLine3.jpg	Medium_e01_cut1_stereo_44KHz.wav
2	11	4	3	2	I	2	0	1191	1	poli_8sides 16_whiteLine3.jpg	Medium_e13_stereo_44KHz.wav
2	12	1	2	0	C	1	1	668	1	poli_8sides 10_whiteLine3.jpg	Medium_e01_cut1_stereo_44KHz.wav
2	13	4	4	2	I	2	0	1146	1	poli_8sides 16_whiteLine3.jpg	Medium_e21_stereo_44KHz.wav
2	14	1	1	1	C	2	1	933	1	poli_8sides 10_whiteLine3.jpg	MediumLong_b10_cut2_L_stereo_44KHz.wav
2	15	2	1	0	C	1	1	668	1	poli_8sides 1_whiteLine3.jpg	MediumLong_b10_cut2_L_stereo_44KHz.wav
2	16	3	3	2	I	1	0	779	0	poli_8sides 5_whiteLine3.jpg	Medium_e13_stereo_44KHz.wav
2	17	4	4	2	I	2	0	1423	0	poli_8sides 16_whiteLine3.jpg	Medium_e21_stereo_44KHz.wav
2	18	3	3	2	I	1	0	928	0	poli_8sides 5_whiteLine3.jpg	Medium_e13_stereo_44KHz.wav
2	19	2	2	1	C	2	1	1162	1	poli_8sides 1_whiteLine3.jpg	Medium_e01_cut1_stereo_44KHz.wav
2	20	1	2	0	C	1	1	593	1	poli_8sides 10_whiteLine3.jpg	Medium_e01_cut1_stereo_44KHz.wav
2	21	3	4	2	I	1	0	780	0	poli_8sides 5_whiteLine3.jpg	Medium_e21_stereo_44KHz.wav
2	22	4	3	2	I	1	0	1150	1	poli_8sides 16_whiteLine3.jpg	Medium_e13_stereo_44KHz.wav
2	23	1	1	1	C	2	1	1117	1	poli_8sides 10_whiteLine3.jpg	MediumLong_b10_cut2_L_stereo_44KHz.wav
2	24	2	1	0	C	1	1	710	1	poli_8sides 1_whiteLine3.jpg	MediumLong_b10_cut2_L_stereo_44KHz.wav
2	25	1	1	1	C	1	0	633	0	poli_8sides 10_whiteLine3.jpg	MediumLong_b10_cut2_L_stereo_44KHz.wav
2	26	4	3	2	I	1	0	955	1	poli_8sides 16_whiteLine3.jpg	Medium_e13_stereo_44KHz.wav
2	27	2	2	1	C	2	1	860	1	poli_8sides 1_whiteLine3.jpg	Medium_e01_cut1_stereo_44KHz.wav
2	28	3	3	2	I	1	0	949	0	poli_8sides 5_whiteLine3.jpg	Medium_e13_stereo_44KHz.wav
2	29	1	2	0	C	1	1	694	1	poli_8sides 10_whiteLine3.jpg	Medium_e01_cut1_stereo_44KHz.wav
2	30	4	4	2	I	2	0	1185	0	poli_8sides 16_whiteLine3.jpg	Medium_e21_stereo_44KHz.wav
2	31	3	4	2	I	1	0	1079	1	poli_8sides 5_whiteLine3.jpg	Medium_e21_stereo_44KHz.wav
2	32	2	1	0	C	1	1	1150	1	poli_8sides 1_whiteLine3.jpg	MediumLong_b10_cut2_L_stereo_44KHz.wav
2	33	3	4	2	I	2	0	1515	1	poli_8sides 5_whiteLine3.jpg	Medium_e21_stereo_44KHz.wav
2	34	1	2	0	C	1	1	640	1	poli_8sides 10_whiteLine3.jpg	Medium_e01_cut1_stereo_44KHz.wav
2	35	4	4	2	I	1	0	1006	0	poli_8sides 16_whiteLine3.jpg	Medium_e21_stereo_44KHz.wav
2	36	2	1	0	C	1	1	919	1	poli_8sides 1_whiteLine3.jpg	MediumLong_b10_cut2_L_stereo_44KHz.wav
2	37	3	3	2	I	1	0	750	0	poli_8sides 5_whiteLine3.jpg	Medium_e13_stereo_44KHz.wav
2	38	2	2	1	C	2	1	946	1	poli_8sides 1_whiteLine3.jpg	Medium_e01_cut1_stereo_44KHz.wav
2	39	1	1	1	C	1	0	717	0	poli_8sides 10_whiteLine3.jpg	MediumLong_b10_cut2_L_stereo_44KHz.wav
2	40	4	3	2	I	2	0	1106	0	poli_8sides 16_whiteLine3.jpg	Medium_e13_stereo_44KHz.wav
2	41	1	2	0	C	1	1	734	1	poli_8sides 10_whiteLine3.jpg	Medium_e01_cut1_stereo_44KHz.wav
2	42	4	4	2	I	1	0	1232	0	poli_8sides 16_whiteLine3.jpg	Medium_e21_stereo_44KHz.wav
2	43	2	1	0	C	1	1	847	1	poli_8sides 1_whiteLine3.jpg	MediumLong_b10_cut2_L_stereo_44KHz.wav
2	44	3	3	2	I	2	0	922	1	poli_8sides 5_whiteLine3.jpg	Medium_e13_stereo_44KHz.wav
2	45	2	2	1	C	2	1	842	1	poli_8sides 1_whiteLine3.jpg	Medium_e01_cut1_stereo_44KHz.wav
2	46	4	3	2	I	1	0	893	1	poli_8sides 16_whiteLine3.jpg	Medium_e13_stereo_44KHz.wav
2	47	3	4	2	I	1	0	815	0	poli_8sides 5_whiteLine3.jpg	Medium_e21_stereo_44KHz.wav
2	48	1	1	1	C	2	1	1030	1	poli_8sides 10_whiteLine3.jpg	MediumLong_b10_cut2_L_stereo_44KHz.wav
2	49	3	3	2	I	2	0	851	1	poli_8sides 5_whiteLine3.jpg	Medium_e13_stereo_44KHz.wav
2	50	4	3	2	I	1	0	613	0	poli_8sides 16_whiteLine3.jpg	Medium_e13_stereo_44KHz.wav
2	51	2	1	0	C	1	1	771	1	poli_8sides 1_whiteLine3.jpg	MediumLong_b10_cut2_L_stereo_44KHz.wav
2	52	1	2	0	C	1	1	985	1	poli_8sides 10_whiteLine3.jpg	Medium_e01_cut1_stereo_44KHz.wav
2	53	4	4	2	I	1	0	1167	0	poli_8sides 16_whiteLine3.jpg	Medium_e21_stereo_44KHz.wav
2	54	1	1	1	C	1	0	738	0	poli_8sides 10_whiteLine3.jpg	MediumLong_b10_cut2_L_stereo_44KHz.wav
2	55	2	2	1	C	2	1	897	1	poli_8sides 1_whiteLine3.jpg	Medium_e01_cut1_stereo_44KHz.wav
2	56	3	4	2	I	1	0	949	1	poli_8sides 5_whiteLine3.jpg	Medium_e21_stereo_44KHz.wav
2	57	4	3	2	I	1	0	769	0	poli_8sides 16_whiteLine3.jpg	Medium_e13_stereo_44KHz.wav
2	58	2	1	0	C	1	1	818	1	poli_8sides 1_whiteLine3.jpg	MediumLong_b10_cut2_L_stereo_44KHz.wav
2	59	1	1	1	C	2	1	922	1	poli_8sides 10_whiteLine3.jpg	MediumLong_b10_cut2_L_stereo_44KHz.wav
2	60	3	4	2	I	1	0	792	1	poli_8sides 5_whiteLine3.jpg	Medium_e21_stereo_44KHz.wav
2	61	1	2	0	C	1	1	705	1	poli_8sides 10_whiteLine3.jpg	Medium_e01_cut1_stereo_44KHz.wav
2	62	3	3	2	I	1	0	911	1	poli_8sides 5_whiteLine3.jpg	Medium_e13_stereo_44KHz.wav
2	63	4	4	2	I	2	0	938	0	poli_8sides 16_whiteLine3.jpg	Medium_e21_stereo_44KHz.wav
2	64	2	2	1	C	2	1	898	1	poli_8sides 1_whiteLine3.jpg	Medium_e01_cut1_stereo_44KHz.wav
2	65	4	3	2	I	1	0	901	1	poli_8sides 16_whiteLine3.jpg	Medium_e13_stereo_44KHz.wav
2	66	1	1	1	C	2	1	1086	1	poli_8sides 10_whiteLine3.jpg	MediumLong_b10_cut2_L_stereo_44KHz.wav
2	67	2	1	0	C	1	1	913	1	poli_8sides 1_whiteLine3.jpg	MediumLong_b10_cut2_L_stereo_44KHz.wav
2	68	3	4	2	I	1	0	918	0	poli_8sides 5_whiteLine3.jpg	Medium_e21_stereo_44KHz.wav
2	69	1	2	0	C	1	1	716	1	poli_8sides 10_whiteLine3.jpg	Medium_e01_cut1_stereo_44KHz.wav
2	70	4	4	2	I	1	0	1525	1	poli_8sides 16_whiteLine3.jpg	Medium_e21_stereo_44KHz.wav
2	71	3	3	2	I	1	0	879	1	poli_8sides 5_whiteLine3.jpg	Medium_e13_stereo_44KHz.wav
2	72	2	2	1	C	2	1	883	1	poli_8sides 1_whiteLine3.jpg	Medium_e01_cut1_stereo_44KHz.wav
2	73	1	2	0	C	1	1	842	1	poli_8sides 10_whiteLine3.jpg	Medium_e01_cut1_stereo_44KHz.wav
2	74	3	4	2	I	1	0	918	1	poli_8sides 5_whiteLine3.jpg	Medium_e21_stereo_44KHz.wav
2	75	2	2	1	C	2	1	795	1	poli_8sides 1_whiteLine3.jpg	Medium_e01_cut1_stereo_44KHz.wav
2	76	4	3	2	I	1	0	740	1	poli_8sides 16_whiteLine3.jpg	Medium_e13_stereo_44KHz.wav
2	77	1	1	1	C	1	0	801	0	poli_8sides 10_whiteLine3.jpg	MediumLong_b10_cut2_L_stereo_44KHz.wav
2	78	3	3	2	I	1	0	836	1	poli_8sides 5_whiteLine3.jpg	Medium_e13_stereo_44KHz.wav
2	79	4	4	2	I	1	0	1091	1	poli_8sides 16_whiteLine3.jpg	Medium_e21_stereo_44KHz.wav
2	80	2	1	0	C	1	1	888	1	poli_8sides 1_whiteLine3.jpg	MediumLong_b10_cut2_L_stereo_44KHz.wav
2	81	4	4	2	I	1	0	904	0	poli_8sides 16_whiteLine3.jpg	Medium_e21_stereo_44KHz.wav
2	82	3	3	2	I	1	0	925	0	poli_8sides 5_whiteLine3.jpg	Medium_e13_stereo_44KHz.wav
2	83	1	1	1	C	2	1	820	1	poli_8sides 10_whiteLine3.jpg	MediumLong_b10_cut2_L_stereo_44KHz.wav
2	84	2	2	1	C	1	0	731	0	poli_8sides 1_whiteLine3.jpg	Medium_e01_cut1_stereo_44KHz.wav
2	85	4	3	2	I	1	0	886	1	poli_8sides 16_whiteLine3.jpg	Medium_e13_stereo_44KHz.wav
2	86	3	4	2	I	1	0	1102	0	poli_8sides 5_whiteLine3.jpg	Medium_e21_stereo_44KHz.wav
2	87	1	2	0	C	1	1	751	1	poli_8sides 10_whiteLine3.jpg	Medium_e01_cut1_stereo_44KHz.wav
2	88	2	1	0	C	1	1	849	1	poli_8sides 1_whiteLine3.jpg	MediumLong_b10_cut2_L_stereo_44KHz.wav
2	89	3	4	2	I	1	0	907	0	poli_8sides 5_whiteLine3.jpg	Medium_e21_stereo_44KHz.wav
2	90	2	2	1	C	2	1	871	1	poli_8sides 1_whiteLine3.jpg	Medium_e01_cut1_stereo_44KHz.wav
2	91	4	3	2	I	1	0	879	1	poli_8sides 16_whiteLine3.jpg	Medium_e13_stereo_44KHz.wav
2	92	1	1	1	C	1	0	904	0	poli_8sides 10_whiteLine3.jpg	MediumLong_b10_cut2_L_stereo_44KHz.wav
2	93	3	3	2	I	1	0	894	1	poli_8sides 5_whiteLine3.jpg	Medium_e13_stereo_44KHz.wav
2	94	1	2	0	C	1	1	714	1	poli_8sides 10_whiteLine3.jpg	Medium_e01_cut1_stereo_44KHz.wav
2	95	4	4	2	I	2	0	693	0	poli_8sides 16_whiteLine3.jpg	Medium_e21_stereo_44KHz.wav
2	96	2	1	0	C	1	1	712	1	poli_8sides 1_whiteLine3.jpg	MediumLong_b10_cut2_L_stereo_44KHz.wav
2	97	1	1	1	C	1	0	633	0	poli_8sides 10_whiteLine3.jpg	MediumLong_b10_cut2_L_stereo_44KHz.wav
2	98	4	4	2	I	1	0	792	1	poli_8sides 16_whiteLine3.jpg	Medium_e21_stereo_44KHz.wav
2	99	3	4	2	I	1	0	820	1	poli_8sides 5_whiteLine3.jpg	Medium_e21_stereo_44KHz.wav
2	100	2	1	0	C	1	1	1001	1	poli_8sides 1_whiteLine3.jpg	MediumLong_b10_cut2_L_stereo_44KHz.wav
2	101	3	3	2	I	1	0	940	0	poli_8sides 5_whiteLine3.jpg	Medium_e13_stereo_44KHz.wav
2	102	2	2	1	C	2	1	1038	1	poli_8sides 1_whiteLine3.jpg	Medium_e01_cut1_stereo_44KHz.wav
2	103	4	3	2	I	1	0	832	0	poli_8sides 16_whiteLine3.jpg	Medium_e13_stereo_44KHz.wav
2	104	1	2	0	C	1	1	769	1	poli_8sides 10_whiteLine3.jpg	Medium_e01_cut1_stereo_44KHz.wav
2	105	2	2	1	C	2	1	1092	1	poli_8sides 1_whiteLine3.jpg	Medium_e01_cut1_stereo_44KHz.wav
2	106	3	3	2	I	1	0	870	0	poli_8sides 5_whiteLine3.jpg	Medium_e13_stereo_44KHz.wav
2	107	1	2	0	C	1	1	687	1	poli_8sides 10_whiteLine3.jpg	Medium_e01_cut1_stereo_44KHz.wav
2	108	4	3	2	I	1	0	877	0	poli_8sides 16_whiteLine3.jpg	Medium_e13_stereo_44KHz.wav
2	109	1	1	1	C	2	1	1182	1	poli_8sides 10_whiteLine3.jpg	MediumLong_b10_cut2_L_stereo_44KHz.wav
2	110	2	1	0	C	1	1	785	1	poli_8sides 1_whiteLine3.jpg	MediumLong_b10_cut2_L_stereo_44KHz.wav
2	111	3	4	2	I	1	0	1038	1	poli_8sides 5_whiteLine3.jpg	Medium_e21_stereo_44KHz.wav
2	112	4	4	2	I	2	0	984	1	poli_8sides 16_whiteLine3.jpg	Medium_e21_stereo_44KHz.wav
2	113	2	2	1	C	2	1	738	1	poli_8sides 1_whiteLine3.jpg	Medium_e01_cut1_stereo_44KHz.wav
2	114	4	4	2	I	1	0	1005	1	poli_8sides 16_whiteLine3.jpg	Medium_e21_stereo_44KHz.wav
2	115	1	2	0	C	1	1	766	1	poli_8sides 10_whiteLine3.jpg	Medium_e01_cut1_stereo_44KHz.wav
2	116	3	3	2	I	1	0	1201	0	poli_8sides 5_whiteLine3.jpg	Medium_e13_stereo_44KHz.wav
2	117	1	1	1	C	2	1	1263	1	poli_8sides 10_whiteLine3.jpg	MediumLong_b10_cut2_L_stereo_44KHz.wav
2	118	4	3	2	I	2	0	1129	0	poli_8sides 16_whiteLine3.jpg	Medium_e13_stereo_44KHz.wav
2	119	2	1	0	C	1	1	938	1	poli_8sides 1_whiteLine3.jpg	MediumLong_b10_cut2_L_stereo_44KHz.wav
2	120	3	4	2	I	2	0	852	0	poli_8sides 5_whiteLine3.jpg	Medium_e21_stereo_44KHz.wav
2	121	1	1	1	C	2	1	1334	1	poli_8sides 10_whiteLine3.jpg	MediumLong_b10_cut2_L_stereo_44KHz.wav
2	122	4	4	2	I	2	0	696	0	poli_8sides 16_whiteLine3.jpg	Medium_e21_stereo_44KHz.wav
2	123	3	3	2	I	2	0	722	1	poli_8sides 5_whiteLine3.jpg	Medium_e13_stereo_44KHz.wav
2	124	2	1	0	C	1	1	971	1	poli_8sides 1_whiteLine3.jpg	MediumLong_b10_cut2_L_stereo_44KHz.wav
2	125	4	3	2	I	1	0	1107	1	poli_8sides 16_whiteLine3.jpg	Medium_e13_stereo_44KHz.wav
2	126	1	2	0	C	1	1	879	1	poli_8sides 10_whiteLine3.jpg	Medium_e01_cut1_stereo_44KHz.wav
2	127	2	2	1	C	2	1	870	1	poli_8sides 1_whiteLine3.jpg	Medium_e01_cut1_stereo_44KHz.wav
2	128	3	4	2	I	1	0	1081	0	poli_8sides 5_whiteLine3.jpg	Medium_e21_stereo_44KHz.wav
2	129	1	1	1	C	2	1	941	1	poli_8sides 10_whiteLine3.jpg	MediumLong_b10_cut2_L_stereo_44KHz.wav
2	130	3	4	2	I	1	0	846	0	poli_8sides 5_whiteLine3.jpg	Medium_e21_stereo_44KHz.wav
2	131	4	4	2	I	1	0	1080	1	poli_8sides 16_whiteLine3.jpg	Medium_e21_stereo_44KHz.wav
2	132	2	1	0	C	1	1	847	1	poli_8sides 1_whiteLine3.jpg	MediumLong_b10_cut2_L_stereo_44KHz.wav
2	133	3	3	2	I	1	0	1089	1	poli_8sides 5_whiteLine3.jpg	Medium_e13_stereo_44KHz.wav
2	134	2	2	1	C	1	0	784	0	poli_8sides 1_whiteLine3.jpg	Medium_e01_cut1_stereo_44KHz.wav
2	135	1	2	0	C	1	1	578	1	poli_8sides 10_whiteLine3.jpg	Medium_e01_cut1_stereo_44KHz.wav
2	136	4	3	2	I	1	0	1186	1	poli_8sides 16_whiteLine3.jpg	Medium_e13_stereo_44KHz.wav
2	137	1	1	1	C	2	1	952	1	poli_8sides 10_whiteLine3.jpg	MediumLong_b10_cut2_L_stereo_44KHz.wav
2	138	3	3	2	I	1	0	1110	1	poli_8sides 5_whiteLine3.jpg	Medium_e13_stereo_44KHz.wav
2	139	4	4	2	I	2	0	805	1	poli_8sides 16_whiteLine3.jpg	Medium_e21_stereo_44KHz.wav
2	140	2	1	0	C	1	1	830	1	poli_8sides 1_whiteLine3.jpg	MediumLong_b10_cut2_L_stereo_44KHz.wav
2	141	4	3	2	I	1	0	1115	0	poli_8sides 16_whiteLine3.jpg	Medium_e13_stereo_44KHz.wav
2	142	2	2	1	C	2	1	1378	1	poli_8sides 1_whiteLine3.jpg	Medium_e01_cut1_stereo_44KHz.wav
2	143	1	2	0	C	1	1	591	1	poli_8sides 10_whiteLine3.jpg	Medium_e01_cut1_stereo_44KHz.wav
2	144	3	4	2	I	1	0	1138	0	poli_8sides 5_whiteLine3.jpg	Medium_e21_stereo_44KHz.wav
2	145	1	1	1	C	2	1	981	1	poli_8sides 10_whiteLine3.jpg	MediumLong_b10_cut2_L_stereo_44KHz.wav
2	146	4	3	2	I	2	0	740	1	poli_8sides 16_whiteLine3.jpg	Medium_e13_stereo_44KHz.wav
2	147	2	2	1	C	2	1	892	1	poli_8sides 1_whiteLine3.jpg	Medium_e01_cut1_stereo_44KHz.wav
2	148	3	4	2	I	2	0	790	1	poli_8sides 5_whiteLine3.jpg	Medium_e21_stereo_44KHz.wav
2	149	4	4	2	I	1	0	1061	0	poli_8sides 16_whiteLine3.jpg	Medium_e21_stereo_44KHz.wav
2	150	3	3	2	I	2	0	792	0	poli_8sides 5_whiteLine3.jpg	Medium_e13_stereo_44KHz.wav
2	151	2	1	0	C	1	1	770	1	poli_8sides 1_whiteLine3.jpg	MediumLong_b10_cut2_L_stereo_44KHz.wav
2	152	1	2	0	C	1	1	600	1	poli_8sides 10_whiteLine3.jpg	Medium_e01_cut1_stereo_44KHz.wav
2	153	4	3	2	I	1	0	981	0	poli_8sides 16_whiteLine3.jpg	Medium_e13_stereo_44KHz.wav
2	154	1	2	0	C	1	1	693	1	poli_8sides 10_whiteLine3.jpg	Medium_e01_cut1_stereo_44KHz.wav
2	155	3	3	2	I	1	0	1111	1	poli_8sides 5_whiteLine3.jpg	Medium_e13_stereo_44KHz.wav
2	156	2	2	1	C	2	1	1071	1	poli_8sides 1_whiteLine3.jpg	Medium_e01_cut1_stereo_44KHz.wav
2	157	3	4	2	I	1	0	810	1	poli_8sides 5_whiteLine3.jpg	Medium_e21_stereo_44KHz.wav
2	158	4	4	2	I	2	0	940	0	poli_8sides 16_whiteLine3.jpg	Medium_e21_stereo_44KHz.wav
2	159	1	1	1	C	2	1	955	1	poli_8sides 10_whiteLine3.jpg	MediumLong_b10_cut2_L_stereo_44KHz.wav
2	160	2	1	0	C	1	1	818	1	poli_8sides 1_whiteLine3.jpg	MediumLong_b10_cut2_L_stereo_44KHz.wav
2	161	4	3	2	I	2	0	648	0	poli_8sides 16_whiteLine3.jpg	Medium_e13_stereo_44KHz.wav
2	162	2	2	1	C	2	1	873	1	poli_8sides 1_whiteLine3.jpg	Medium_e01_cut1_stereo_44KHz.wav
2	163	3	3	2	I	1	0	793	0	poli_8sides 5_whiteLine3.jpg	Medium_e13_stereo_44KHz.wav
2	164	1	2	0	C	1	1	838	1	poli_8sides 10_whiteLine3.jpg	Medium_e01_cut1_stereo_44KHz.wav
2	165	4	4	2	I	2	0	1174	0	poli_8sides 16_whiteLine3.jpg	Medium_e21_stereo_44KHz.wav
2	166	1	1	1	C	2	1	830	1	poli_8sides 10_whiteLine3.jpg	MediumLong_b10_cut2_L_stereo_44KHz.wav
2	167	2	1	0	C	1	1	845	1	poli_8sides 1_whiteLine3.jpg	MediumLong_b10_cut2_L_stereo_44KHz.wav
2	168	3	4	2	I	1	0	1026	0	poli_8sides 5_whiteLine3.jpg	Medium_e21_stereo_44KHz.wav
2	169	2	1	0	C	1	1	797	1	poli_8sides 1_whiteLine3.jpg	MediumLong_b10_cut2_L_stereo_44KHz.wav
2	170	4	3	2	I	1	0	873	1	poli_8sides 16_whiteLine3.jpg	Medium_e13_stereo_44KHz.wav
2	171	3	4	2	I	1	0	1055	1	poli_8sides 5_whiteLine3.jpg	Medium_e21_stereo_44KHz.wav
2	172	1	2	0	C	1	1	879	1	poli_8sides 10_whiteLine3.jpg	Medium_e01_cut1_stereo_44KHz.wav
2	173	4	4	2	I	1	0	897	1	poli_8sides 16_whiteLine3.jpg	Medium_e21_stereo_44KHz.wav
2	174	1	1	1	C	1	0	845	0	poli_8sides 10_whiteLine3.jpg	MediumLong_b10_cut2_L_stereo_44KHz.wav
2	175	3	3	2	I	1	0	885	1	poli_8sides 5_whiteLine3.jpg	Medium_e13_stereo_44KHz.wav
2	176	2	2	1	C	2	1	918	1	poli_8sides 1_whiteLine3.jpg	Medium_e01_cut1_stereo_44KHz.wav
2	177	1	1	1	C	1	0	571	0	poli_8sides 10_whiteLine3.jpg	MediumLong_b10_cut2_L_stereo_44KHz.wav
2	178	4	3	2	I	1	0	1018	1	poli_8sides 16_whiteLine3.jpg	Medium_e13_stereo_44KHz.wav
2	179	2	1	0	C	1	1	767	1	poli_8sides 1_whiteLine3.jpg	MediumLong_b10_cut2_L_stereo_44KHz.wav
2	180	3	4	2	I	1	0	786	0	poli_8sides 5_whiteLine3.jpg	Medium_e21_stereo_44KHz.wav
2	181	4	4	2	I	1	0	848	0	poli_8sides 16_whiteLine3.jpg	Medium_e21_stereo_44KHz.wav
2	182	2	2	1	C	2	1	816	1	poli_8sides 1_whiteLine3.jpg	Medium_e01_cut1_stereo_44KHz.wav
2	183	1	2	0	C	1	1	809	1	poli_8sides 10_whiteLine3.jpg	Medium_e01_cut1_stereo_44KHz.wav
2	184	3	3	2	I	1	0	812	1	poli_8sides 5_whiteLine3.jpg	Medium_e13_stereo_44KHz.wav
2	185	4	4	2	I	1	0	866	1	poli_8sides 16_whiteLine3.jpg	Medium_e21_stereo_44KHz.wav
2	186	2	2	1	C	2	1	907	1	poli_8sides 1_whiteLine3.jpg	Medium_e01_cut1_stereo_44KHz.wav
2	187	3	4	2	I	2	0	729	0	poli_8sides 5_whiteLine3.jpg	Medium_e21_stereo_44KHz.wav
2	188	1	2	0	C	1	1	1288	1	poli_8sides 10_whiteLine3.jpg	Medium_e01_cut1_stereo_44KHz.wav
2	189	3	3	2	I	1	0	892	0	poli_8sides 5_whiteLine3.jpg	Medium_e13_stereo_44KHz.wav
2	190	2	1	0	C	1	1	965	1	poli_8sides 1_whiteLine3.jpg	MediumLong_b10_cut2_L_stereo_44KHz.wav
2	191	1	1	1	C	1	0	1034	0	poli_8sides 10_whiteLine3.jpg	MediumLong_b10_cut2_L_stereo_44KHz.wav
2	192	4	3	2	I	1	0	828	1	poli_8sides 16_whiteLine3.jpg	Medium_e13_stereo_44KHz.wav
2	193	3	4	2	I	1	0	1442	0	poli_8sides 5_whiteLine3.jpg	Medium_e21_stereo_44KHz.wav
2	194	4	3	2	I	1	0	682	0	poli_8sides 16_whiteLine3.jpg	Medium_e13_stereo_44KHz.wav
2	195	2	2	1	C	2	1	817	1	poli_8sides 1_whiteLine3.jpg	Medium_e01_cut1_stereo_44KHz.wav
2	196	1	2	0	C	1	1	558	1	poli_8sides 10_whiteLine3.jpg	Medium_e01_cut1_stereo_44KHz.wav
2	197	4	4	2	I	1	0	789	1	poli_8sides 16_whiteLine3.jpg	Medium_e21_stereo_44KHz.wav
2	198	2	1	0	C	1	1	982	1	poli_8sides 1_whiteLine3.jpg	MediumLong_b10_cut2_L_stereo_44KHz.wav
2	199	1	1	1	C	1	0	647	0	poli_8sides 10_whiteLine3.jpg	MediumLong_b10_cut2_L_stereo_44KHz.wav
2	200	3	3	2	I	1	0	847	0	poli_8sides 5_whiteLine3.jpg	Medium_e13_stereo_44KHz.wav
3	1	3	4	2	I	1	0	1026	1	poli_8sides 4_whiteLine3.jpg	MediumLong_e17_cut2_stereo_44KHz.wav
3	2	4	3	2	I	1	0	838	1	poli_8sides 13_whiteLine3.jpg	MediumLong_e19_stereo_44KHz.wav
3	3	2	1	0	C	1	1	779	1	poli_8sides 18_whiteLine3.jpg	Medium_e26_stereo_44KHz.wav
3	4	1	1	1	C	2	1	805	1	poli_8sides 2_whiteLine3.jpg	Medium_e26_stereo_44KHz.wav
3	5	2	2	1	C	2	1	1044	1	poli_8sides 18_whiteLine3.jpg	MediumLong_e04_stereo_44KHz.wav
3	6	1	2	0	C	1	1	848	1	poli_8sides 2_whiteLine3.jpg	MediumLong_e04_stereo_44KHz.wav
3	7	4	4	2	I	1	0	1028	1	poli_8sides 13_whiteLine3.jpg	MediumLong_e17_cut2_stereo_44KHz.wav
3	8	3	3	2	I	1	0	694	0	poli_8sides 4_whiteLine3.jpg	MediumLong_e19_stereo_44KHz.wav
3	9	4	4	2	I	2	0	776	1	poli_8sides 13_whiteLine3.jpg	MediumLong_e17_cut2_stereo_44KHz.wav
3	10	2	1	0	C	1	1	844	1	poli_8sides 18_whiteLine3.jpg	Medium_e26_stereo_44KHz.wav
3	11	1	1	1	C	2	1	898	1	poli_8sides 2_whiteLine3.jpg	Medium_e26_stereo_44KHz.wav
3	12	3	3	2	I	1	0	896	0	poli_8sides 4_whiteLine3.jpg	MediumLong_e19_stereo_44KHz.wav
3	13	4	3	2	I	2	0	1004	0	poli_8sides 13_whiteLine3.jpg	MediumLong_e19_stereo_44KHz.wav
3	14	3	4	2	I	1	0	990	0	poli_8sides 4_whiteLine3.jpg	MediumLong_e17_cut2_stereo_44KHz.wav
3	15	2	2	1	C	2	1	1062	1	poli_8sides 18_whiteLine3.jpg	MediumLong_e04_stereo_44KHz.wav
3	16	1	2	0	C	1	1	716	1	poli_8sides 2_whiteLine3.jpg	MediumLong_e04_stereo_44KHz.wav
3	17	4	3	2	I	1	0	800	1	poli_8sides 13_whiteLine3.jpg	MediumLong_e19_stereo_44KHz.wav
3	18	3	3	2	I	2	0	872	1	poli_8sides 4_whiteLine3.jpg	MediumLong_e19_stereo_44KHz.wav
3	19	2	2	1	C	2	1	907	1	poli_8sides 18_whiteLine3.jpg	MediumLong_e04_stereo_44KHz.wav
3	20	1	1	1	C	2	1	751	1	poli_8sides 2_whiteLine3.jpg	Medium_e26_stereo_44KHz.wav
3	21	2	1	0	C	1	1	961	1	poli_8sides 18_whiteLine3.jpg	Medium_e26_stereo_44KHz.wav
3	22	1	2	0	C	1	1	775	1	poli_8sides 2_whiteLine3.jpg	MediumLong_e04_stereo_44KHz.wav
3	23	3	4	2	I	1	0	899	0	poli_8sides 4_whiteLine3.jpg	MediumLong_e17_cut2_stereo_44KHz.wav
3	24	4	4	2	I	2	0	932	0	poli_8sides 13_whiteLine3.jpg	MediumLong_e17_cut2_stereo_44KHz.wav
3	25	3	3	2	I	1	0	880	1	poli_8sides 4_whiteLine3.jpg	MediumLong_e19_stereo_44KHz.wav
3	26	4	4	2	I	1	0	889	1	poli_8sides 13_whiteLine3.jpg	MediumLong_e17_cut2_stereo_44KHz.wav
3	27	2	2	1	C	2	1	790	1	poli_8sides 18_whiteLine3.jpg	MediumLong_e04_stereo_44KHz.wav
3	28	1	1	1	C	2	1	737	1	poli_8sides 2_whiteLine3.jpg	Medium_e26_stereo_44KHz.wav
3	29	4	3	2	I	2	0	860	1	poli_8sides 13_whiteLine3.jpg	MediumLong_e19_stereo_44KHz.wav
3	30	1	2	0	C	1	1	810	1	poli_8sides 2_whiteLine3.jpg	MediumLong_e04_stereo_44KHz.wav
3	31	2	1	0	C	1	1	737	1	poli_8sides 18_whiteLine3.jpg	Medium_e26_stereo_44KHz.wav
3	32	3	4	2	I	2	0	958	0	poli_8sides 4_whiteLine3.jpg	MediumLong_e17_cut2_stereo_44KHz.wav
3	33	2	1	0	C	1	1	853	1	poli_8sides 18_whiteLine3.jpg	Medium_e26_stereo_44KHz.wav
3	34	3	3	2	I	1	0	739	0	poli_8sides 4_whiteLine3.jpg	MediumLong_e19_stereo_44KHz.wav
3	35	1	2	0	C	1	1	831	1	poli_8sides 2_whiteLine3.jpg	MediumLong_e04_stereo_44KHz.wav
3	36	4	4	2	I	1	0	875	1	poli_8sides 13_whiteLine3.jpg	MediumLong_e17_cut2_stereo_44KHz.wav
3	37	3	4	2	I	2	0	840	0	poli_8sides 4_whiteLine3.jpg	MediumLong_e17_cut2_stereo_44KHz.wav
3	38	2	2	1	C	2	1	902	1	poli_8sides 18_whiteLine3.jpg	MediumLong_e04_stereo_44KHz.wav
3	39	1	1	1	C	2	1	950	1	poli_8sides 2_whiteLine3.jpg	Medium_e26_stereo_44KHz.wav
3	40	4	3	2	I	1	0	865	0	poli_8sides 13_whiteLine3.jpg	MediumLong_e19_stereo_44KHz.wav
3	41	2	2	1	C	2	1	816	1	poli_8sides 18_whiteLine3.jpg	MediumLong_e04_stereo_44KHz.wav
3	42	3	4	2	I	1	0	786	1	poli_8sides 4_whiteLine3.jpg	MediumLong_e17_cut2_stereo_44KHz.wav
3	43	1	2	0	C	1	1	606	1	poli_8sides 2_whiteLine3.jpg	MediumLong_e04_stereo_44KHz.wav
3	44	4	3	2	I	1	0	873	0	poli_8sides 13_whiteLine3.jpg	MediumLong_e19_stereo_44KHz.wav
3	45	3	3	2	I	1	0	834	1	poli_8sides 4_whiteLine3.jpg	MediumLong_e19_stereo_44KHz.wav
3	46	1	1	1	C	2	1	628	1	poli_8sides 2_whiteLine3.jpg	Medium_e26_stereo_44KHz.wav
3	47	2	1	0	C	1	1	898	1	poli_8sides 18_whiteLine3.jpg	Medium_e26_stereo_44KHz.wav
3	48	4	4	2	I	1	0	903	0	poli_8sides 13_whiteLine3.jpg	MediumLong_e17_cut2_stereo_44KHz.wav
3	49	2	1	0	C	2	0	851	0	poli_8sides 18_whiteLine3.jpg	Medium_e26_stereo_44KHz.wav
3	50	1	2	0	C	1	1	607	1	poli_8sides 2_whiteLine3.jpg	MediumLong_e04_stereo_44KHz.wav
3	51	4	4	2	I	1	0	826	0	poli_8sides 13_whiteLine3.jpg	MediumLong_e17_cut2_stereo_44KHz.wav
3	52	3	3	2	I	1	0	777	0	poli_8sides 4_whiteLine3.jpg	MediumLong_e19_stereo_44KHz.wav
3	53	2	2	1	C	1	0	819	0	poli_8sides 18_whiteLine3.jpg	MediumLong_e04_stereo_44KHz.wav
3	54	4	3	2	I	2	0	954	0	poli_8sides 13_whiteLine3.jpg	MediumLong_e19_stereo_44KHz.wav
3	55	3	4	2	I	1	0	735	1	poli_8sides 4_whiteLine3.jpg	MediumLong_e17_cut2_stereo_44KHz.wav
3	56	1	1	1	C	2	1	645	1	poli_8sides 2_whiteLine3.jpg	Medium_e26_stereo_44KHz.wav
3	57	4	4	2	I	2	0	1140	1	poli_8sides 13_whiteLine3.jpg	MediumLong_e17_cut2_stereo_44KHz.wav
3	58	2	1	0	C	1	1	718	1	poli_8sides 18_whiteLine3.jpg	Medium_e26_stereo_44KHz.wav
3	59	1	1	1	C	2	1	811	1	poli_8sides 2_whiteLine3.jpg	Medium_e26_stereo_44KHz.wav
3	60	3	4	2	I	1	0	734	1	poli_8sides 4_whiteLine3.jpg	MediumLong_e17_cut2_stereo_44KHz.wav
3	61	4	3	2	I	2	0	1057	0	poli_8sides 13_whiteLine3.jpg	MediumLong_e19_stereo_44KHz.wav
3	62	3	3	2	I	2	0	1183	0	poli_8sides 4_whiteLine3.jpg	MediumLong_e19_stereo_44KHz.wav
3	63	2	2	1	C	2	1	931	1	poli_8sides 18_whiteLine3.jpg	MediumLong_e04_stereo_44KHz.wav
3	64	1	2	0	C	1	1	604	1	poli_8sides 2_whiteLine3.jpg	MediumLong_e04_stereo_44KHz.wav
3	65	3	4	2	I	1	0	804	0	poli_8sides 4_whiteLine3.jpg	MediumLong_e17_cut2_stereo_44KHz.wav
3	66	4	4	2	I	1	0	1080	0	poli_8sides 13_whiteLine3.jpg	MediumLong_e17_cut2_stereo_44KHz.wav
3	67	1	2	0	C	1	1	683	1	poli_8sides 2_whiteLine3.jpg	MediumLong_e04_stereo_44KHz.wav
3	68	2	2	1	C	2	1	802	1	poli_8sides 18_whiteLine3.jpg	MediumLong_e04_stereo_44KHz.wav
3	69	4	3	2	I	1	0	1113	0	poli_8sides 13_whiteLine3.jpg	MediumLong_e19_stereo_44KHz.wav
3	70	2	1	0	C	2	0	1065	0	poli_8sides 18_whiteLine3.jpg	Medium_e26_stereo_44KHz.wav
3	71	1	1	1	C	2	1	752	1	poli_8sides 2_whiteLine3.jpg	Medium_e26_stereo_44KHz.wav
3	72	3	3	2	I	1	0	801	0	poli_8sides 4_whiteLine3.jpg	MediumLong_e19_stereo_44KHz.wav
3	73	1	2	0	C	1	1	847	1	poli_8sides 2_whiteLine3.jpg	MediumLong_e04_stereo_44KHz.wav
3	74	4	4	2	I	1	0	1131	1	poli_8sides 13_whiteLine3.jpg	MediumLong_e17_cut2_stereo_44KHz.wav
3	75	3	4	2	I	2	0	901	1	poli_8sides 4_whiteLine3.jpg	MediumLong_e17_cut2_stereo_44KHz.wav
3	76	2	2	1	C	2	1	839	1	poli_8sides 18_whiteLine3.jpg	MediumLong_e04_stereo_44KHz.wav
3	77	4	3	2	I	1	0	871	1	poli_8sides 13_whiteLine3.jpg	MediumLong_e19_stereo_44KHz.wav
3	78	1	1	1	C	2	1	833	1	poli_8sides 2_whiteLine3.jpg	Medium_e26_stereo_44KHz.wav
3	79	3	3	2	I	1	0	894	1	poli_8sides 4_whiteLine3.jpg	MediumLong_e19_stereo_44KHz.wav
3	80	2	1	0	C	2	0	1168	0	poli_8sides 18_whiteLine3.jpg	Medium_e26_stereo_44KHz.wav
3	81	1	2	0	C	1	1	599	1	poli_8sides 2_whiteLine3.jpg	MediumLong_e04_stereo_44KHz.wav
3	82	4	4	2	I	1	0	1100	1	poli_8sides 13_whiteLine3.jpg	MediumLong_e17_cut2_stereo_44KHz.wav
3	83	2	1	0	C	1	1	778	1	poli_8sides 18_whiteLine3.jpg	Medium_e26_stereo_44KHz.wav
3	84	3	4	2	I	2	0	1069	1	poli_8sides 4_whiteLine3.jpg	MediumLong_e17_cut2_stereo_44KHz.wav
3	85	2	2	1	C	2	1	820	1	poli_8sides 18_whiteLine3.jpg	MediumLong_e04_stereo_44KHz.wav
3	86	4	3	2	I	1	0	895	1	poli_8sides 13_whiteLine3.jpg	MediumLong_e19_stereo_44KHz.wav
3	87	3	3	2	I	2	0	1118	1	poli_8sides 4_whiteLine3.jpg	MediumLong_e19_stereo_44KHz.wav
3	88	1	1	1	C	2	1	1067	1	poli_8sides 2_whiteLine3.jpg	Medium_e26_stereo_44KHz.wav
3	89	4	4	2	I	1	0	1451	0	poli_8sides 13_whiteLine3.jpg	MediumLong_e17_cut2_stereo_44KHz.wav
3	90	1	1	1	C	2	1	793	1	poli_8sides 2_whiteLine3.jpg	Medium_e26_stereo_44KHz.wav
3	91	2	2	1	C	1	0	556	0	poli_8sides 18_whiteLine3.jpg	MediumLong_e04_stereo_44KHz.wav
3	92	3	3	2	I	1	0	896	1	poli_8sides 4_whiteLine3.jpg	MediumLong_e19_stereo_44KHz.wav
3	93	1	2	0	C	1	1	774	1	poli_8sides 2_whiteLine3.jpg	MediumLong_e04_stereo_44KHz.wav
3	94	4	3	2	I	1	0	1334	1	poli_8sides 13_whiteLine3.jpg	MediumLong_e19_stereo_44KHz.wav
3	95	2	1	0	C	1	1	799	1	poli_8sides 18_whiteLine3.jpg	Medium_e26_stereo_44KHz.wav
3	96	3	4	2	I	1	0	738	0	poli_8sides 4_whiteLine3.jpg	MediumLong_e17_cut2_stereo_44KHz.wav
3	97	1	1	1	C	2	1	783	1	poli_8sides 2_whiteLine3.jpg	Medium_e26_stereo_44KHz.wav
3	98	3	3	2	I	1	0	893	1	poli_8sides 4_whiteLine3.jpg	MediumLong_e19_stereo_44KHz.wav
3	99	4	3	2	I	1	0	1248	1	poli_8sides 13_whiteLine3.jpg	MediumLong_e19_stereo_44KHz.wav
3	100	2	1	0	C	2	0	915	0	poli_8sides 18_whiteLine3.jpg	Medium_e26_stereo_44KHz.wav
3	101	1	2	0	C	1	1	732	1	poli_8sides 2_whiteLine3.jpg	MediumLong_e04_stereo_44KHz.wav
3	102	4	4	2	I	1	0	1343	0	poli_8sides 13_whiteLine3.jpg	MediumLong_e17_cut2_stereo_44KHz.wav
3	103	2	2	1	C	2	1	1252	1	poli_8sides 18_whiteLine3.jpg	MediumLong_e04_stereo_44KHz.wav
3	104	3	4	2	I	2	0	1075	0	poli_8sides 4_whiteLine3.jpg	MediumLong_e17_cut2_stereo_44KHz.wav
3	105	4	4	2	I	1	0	1401	0	poli_8sides 13_whiteLine3.jpg	MediumLong_e17_cut2_stereo_44KHz.wav
3	106	1	2	0	C	1	1	736	1	poli_8sides 2_whiteLine3.jpg	MediumLong_e04_stereo_44KHz.wav
3	107	3	3	2	I	1	0	827	1	poli_8sides 4_whiteLine3.jpg	MediumLong_e19_stereo_44KHz.wav
3	108	2	1	0	C	1	1	730	1	poli_8sides 18_whiteLine3.jpg	Medium_e26_stereo_44KHz.wav
3	109	4	3	2	I	2	0	892	1	poli_8sides 13_whiteLine3.jpg	MediumLong_e19_stereo_44KHz.wav
3	110	3	4	2	I	2	0	794	1	poli_8sides 4_whiteLine3.jpg	MediumLong_e17_cut2_stereo_44KHz.wav
3	111	1	1	1	C	2	1	1022	1	poli_8sides 2_whiteLine3.jpg	Medium_e26_stereo_44KHz.wav
3	112	2	2	1	C	2	1	1072	1	poli_8sides 18_whiteLine3.jpg	MediumLong_e04_stereo_44KHz.wav
3	113	4	3	2	I	2	0	1719	1	poli_8sides 13_whiteLine3.jpg	MediumLong_e19_stereo_44KHz.wav
3	114	2	1	0	C	1	1	892	1	poli_8sides 18_whiteLine3.jpg	Medium_e26_stereo_44KHz.wav
3	115	3	4	2	I	2	0	1480	0	poli_8sides 4_whiteLine3.jpg	MediumLong_e17_cut2_stereo_44KHz.wav
3	116	1	1	1	C	2	1	948	1	poli_8sides 2_whiteLine3.jpg	Medium_e26_stereo_44KHz.wav
3	117	4	4	2	I	2	0	1016	0	poli_8sides 13_whiteLine3.jpg	MediumLong_e17_cut2_stereo_44KHz.wav
3	118	1	2	0	C	1	1	853	1	poli_8sides 2_whiteLine3.jpg	MediumLong_e04_stereo_44KHz.wav
3	119	2	2	1	C	2	1	814	1	poli_8sides 18_whiteLine3.jpg	MediumLong_e04_stereo_44KHz.wav
3	120	3	3	2	I	1	0	1014	1	poli_8sides 4_whiteLine3.jpg	MediumLong_e19_stereo_44KHz.wav
3	121	2	2	1	C	2	1	758	1	poli_8sides 18_whiteLine3.jpg	MediumLong_e04_stereo_44KHz.wav
3	122	4	3	2	I	2	0	856	0	poli_8sides 13_whiteLine3.jpg	MediumLong_e19_stereo_44KHz.wav
3	123	1	2	0	C	1	1	638	1	poli_8sides 2_whiteLine3.jpg	MediumLong_e04_stereo_44KHz.wav
3	124	3	3	2	I	1	0	780	1	poli_8sides 4_whiteLine3.jpg	MediumLong_e19_stereo_44KHz.wav
3	125	1	1	1	C	1	0	957	0	poli_8sides 2_whiteLine3.jpg	Medium_e26_stereo_44KHz.wav
3	126	4	4	2	I	2	0	1525	1	poli_8sides 13_whiteLine3.jpg	MediumLong_e17_cut2_stereo_44KHz.wav
3	127	3	4	2	I	1	0	950	1	poli_8sides 4_whiteLine3.jpg	MediumLong_e17_cut2_stereo_44KHz.wav
3	128	2	1	0	C	1	1	738	1	poli_8sides 18_whiteLine3.jpg	Medium_e26_stereo_44KHz.wav
3	129	1	1	1	C	2	1	777	1	poli_8sides 2_whiteLine3.jpg	Medium_e26_stereo_44KHz.wav
3	130	4	4	2	I	2	0	744	0	poli_8sides 13_whiteLine3.jpg	MediumLong_e17_cut2_stereo_44KHz.wav
3	131	3	4	2	I	1	0	830	1	poli_8sides 4_whiteLine3.jpg	MediumLong_e17_cut2_stereo_44KHz.wav
3	132	2	1	0	C	1	1	874	1	poli_8sides 18_whiteLine3.jpg	Medium_e26_stereo_44KHz.wav
3	133	1	2	0	C	1	1	658	1	poli_8sides 2_whiteLine3.jpg	MediumLong_e04_stereo_44KHz.wav
3	134	3	3	2	I	1	0	1043	0	poli_8sides 4_whiteLine3.jpg	MediumLong_e19_stereo_44KHz.wav
3	135	4	3	2	I	1	0	828	1	poli_8sides 13_whiteLine3.jpg	MediumLong_e19_stereo_44KHz.wav
3	136	2	2	1	C	2	1	1372	1	poli_8sides 18_whiteLine3.jpg	MediumLong_e04_stereo_44KHz.wav
3	137	3	3	2	I	1	0	816	0	poli_8sides 4_whiteLine3.jpg	MediumLong_e19_stereo_44KHz.wav
3	138	4	3	2	I	1	0	998	1	poli_8sides 13_whiteLine3.jpg	MediumLong_e19_stereo_44KHz.wav
3	139	2	1	0	C	1	1	954	1	poli_8sides 18_whiteLine3.jpg	Medium_e26_stereo_44KHz.wav
3	140	1	2	0	C	1	1	702	1	poli_8sides 2_whiteLine3.jpg	MediumLong_e04_stereo_44KHz.wav
3	141	4	4	2	I	1	0	1104	0	poli_8sides 13_whiteLine3.jpg	MediumLong_e17_cut2_stereo_44KHz.wav
3	142	2	2	1	C	2	1	817	1	poli_8sides 18_whiteLine3.jpg	MediumLong_e04_stereo_44KHz.wav
3	143	1	1	1	C	2	1	871	1	poli_8sides 2_whiteLine3.jpg	Medium_e26_stereo_44KHz.wav
3	144	3	4	2	I	1	0	816	0	poli_8sides 4_whiteLine3.jpg	MediumLong_e17_cut2_stereo_44KHz.wav
3	145	1	2	0	C	1	1	819	1	poli_8sides 2_whiteLine3.jpg	MediumLong_e04_stereo_44KHz.wav
3	146	3	3	2	I	1	0	1590	0	poli_8sides 4_whiteLine3.jpg	MediumLong_e19_stereo_44KHz.wav
3	147	4	4	2	I	1	0	836	0	poli_8sides 13_whiteLine3.jpg	MediumLong_e17_cut2_stereo_44KHz.wav
3	148	2	2	1	C	2	1	951	1	poli_8sides 18_whiteLine3.jpg	MediumLong_e04_stereo_44KHz.wav
3	149	3	4	2	I	1	0	756	1	poli_8sides 4_whiteLine3.jpg	MediumLong_e17_cut2_stereo_44KHz.wav
3	150	4	3	2	I	1	0	928	0	poli_8sides 13_whiteLine3.jpg	MediumLong_e19_stereo_44KHz.wav
3	151	2	1	0	C	1	1	812	1	poli_8sides 18_whiteLine3.jpg	Medium_e26_stereo_44KHz.wav
3	152	1	1	1	C	2	1	821	1	poli_8sides 2_whiteLine3.jpg	Medium_e26_stereo_44KHz.wav
3	153	3	4	2	I	1	0	831	1	poli_8sides 4_whiteLine3.jpg	MediumLong_e17_cut2_stereo_44KHz.wav
3	154	4	3	2	I	1	0	835	0	poli_8sides 13_whiteLine3.jpg	MediumLong_e19_stereo_44KHz.wav
3	155	2	2	1	C	2	1	910	1	poli_8sides 18_whiteLine3.jpg	MediumLong_e04_stereo_44KHz.wav
3	156	1	1	1	C	2	1	962	1	poli_8sides 2_whiteLine3.jpg	Medium_e26_stereo_44KHz.wav
3	157	3	3	2	I	1	0	1170	0	poli_8sides 4_whiteLine3.jpg	MediumLong_e19_stereo_44KHz.wav
3	158	1	2	0	C	1	1	1094	1	poli_8sides 2_whiteLine3.jpg	MediumLong_e04_stereo_44KHz.wav
3	159	2	1	0	C	1	1	1051	1	poli_8sides 18_whiteLine3.jpg	Medium_e26_stereo_44KHz.wav
3	160	4	4	2	I	1	0	1087	1	poli_8sides 13_whiteLine3.jpg	MediumLong_e17_cut2_stereo_44KHz.wav
3	161	1	2	0	C	1	1	842	1	poli_8sides 2_whiteLine3.jpg	MediumLong_e04_stereo_44KHz.wav
3	162	4	4	2	I	1	0	826	0	poli_8sides 13_whiteLine3.jpg	MediumLong_e17_cut2_stereo_44KHz.wav
3	163	3	4	2	I	1	0	942	1	poli_8sides 4_whiteLine3.jpg	MediumLong_e17_cut2_stereo_44KHz.wav
3	164	2	1	0	C	1	1	1119	1	poli_8sides 18_whiteLine3.jpg	Medium_e26_stereo_44KHz.wav
3	165	3	3	2	I	1	0	953	1	poli_8sides 4_whiteLine3.jpg	MediumLong_e19_stereo_44KHz.wav
3	166	4	3	2	I	2	0	1148	1	poli_8sides 13_whiteLine3.jpg	MediumLong_e19_stereo_44KHz.wav
3	167	1	1	1	C	2	1	879	1	poli_8sides 2_whiteLine3.jpg	Medium_e26_stereo_44KHz.wav
3	168	2	2	1	C	2	1	774	1	poli_8sides 18_whiteLine3.jpg	MediumLong_e04_stereo_44KHz.wav
3	169	1	1	1	C	2	1	921	1	poli_8sides 2_whiteLine3.jpg	Medium_e26_stereo_44KHz.wav
3	170	3	3	2	I	1	0	1077	1	poli_8sides 4_whiteLine3.jpg	MediumLong_e19_stereo_44KHz.wav
3	171	4	4	2	I	1	0	860	0	poli_8sides 13_whiteLine3.jpg	MediumLong_e17_cut2_stereo_44KHz.wav
3	172	2	2	1	C	2	1	901	1	poli_8sides 18_whiteLine3.jpg	MediumLong_e04_stereo_44KHz.wav
3	173	4	3	2	I	1	0	954	1	poli_8sides 13_whiteLine3.jpg	MediumLong_e19_stereo_44KHz.wav
3	174	3	4	2	I	1	0	1131	1	poli_8sides 4_whiteLine3.jpg	MediumLong_e17_cut2_stereo_44KHz.wav
3	175	2	1	0	C	1	1	1070	1	poli_8sides 18_whiteLine3.jpg	Medium_e26_stereo_44KHz.wav
3	176	1	2	0	C	1	1	749	1	poli_8sides 2_whiteLine3.jpg	MediumLong_e04_stereo_44KHz.wav
3	177	2	2	1	C	2	1	974	1	poli_8sides 18_whiteLine3.jpg	MediumLong_e04_stereo_44KHz.wav
3	178	4	3	2	I	1	0	708	0	poli_8sides 13_whiteLine3.jpg	MediumLong_e19_stereo_44KHz.wav
3	179	3	3	2	I	1	0	830	0	poli_8sides 4_whiteLine3.jpg	MediumLong_e19_stereo_44KHz.wav
3	180	1	2	0	C	1	1	751	1	poli_8sides 2_whiteLine3.jpg	MediumLong_e04_stereo_44KHz.wav
3	181	4	4	2	I	1	0	694	0	poli_8sides 13_whiteLine3.jpg	MediumLong_e17_cut2_stereo_44KHz.wav
3	182	3	4	2	I	1	0	910	0	poli_8sides 4_whiteLine3.jpg	MediumLong_e17_cut2_stereo_44KHz.wav
3	183	1	1	1	C	2	1	730	1	poli_8sides 2_whiteLine3.jpg	Medium_e26_stereo_44KHz.wav
3	184	2	1	0	C	1	1	487	1	poli_8sides 18_whiteLine3.jpg	Medium_e26_stereo_44KHz.wav
3	185	4	4	2	I	1	0	755	1	poli_8sides 13_whiteLine3.jpg	MediumLong_e17_cut2_stereo_44KHz.wav
3	186	3	4	2	I	1	0	638	0	poli_8sides 4_whiteLine3.jpg	MediumLong_e17_cut2_stereo_44KHz.wav
3	187	2	2	1	C	2	1	932	1	poli_8sides 18_whiteLine3.jpg	MediumLong_e04_stereo_44KHz.wav
3	188	1	2	0	C	1	1	801	1	poli_8sides 2_whiteLine3.jpg	MediumLong_e04_stereo_44KHz.wav
3	189	3	3	2	I	2	0	914	0	poli_8sides 4_whiteLine3.jpg	MediumLong_e19_stereo_44KHz.wav
3	190	2	1	0	C	1	1	915	1	poli_8sides 18_whiteLine3.jpg	Medium_e26_stereo_44KHz.wav
3	191	4	3	2	I	2	0	1682	1	poli_8sides 13_whiteLine3.jpg	MediumLong_e19_stereo_44KHz.wav
3	192	1	1	1	C	2	1	862	1	poli_8sides 2_whiteLine3.jpg	Medium_e26_stereo_44KHz.wav
3	193	2	1	0	C	1	1	897	1	poli_8sides 18_whiteLine3.jpg	Medium_e26_stereo_44KHz.wav
3	194	3	4	2	I	1	0	765	0	poli_8sides 4_whiteLine3.jpg	MediumLong_e17_cut2_stereo_44KHz.wav
3	195	1	1	1	C	2	1	877	1	poli_8sides 2_whiteLine3.jpg	Medium_e26_stereo_44KHz.wav
3	196	4	3	2	I	1	0	883	1	poli_8sides 13_whiteLine3.jpg	MediumLong_e19_stereo_44KHz.wav
3	197	1	2	0	C	1	1	1296	1	poli_8sides 2_whiteLine3.jpg	MediumLong_e04_stereo_44KHz.wav
3	198	2	2	1	C	2	1	1399	1	poli_8sides 18_whiteLine3.jpg	MediumLong_e04_stereo_44KHz.wav
3	199	4	4	2	I	1	0	727	0	poli_8sides 13_whiteLine3.jpg	MediumLong_e17_cut2_stereo_44KHz.wav
3	200	3	3	2	I	1	0	907	0	poli_8sides 4_whiteLine3.jpg	MediumLong_e19_stereo_44KHz.wav
4	1	1	1	1	C	1	0	809	0	poli_8sides 8_whiteLine3.jpg	Short_b22_cut1_stereo_44KHz.wav
4	2	3	3	2	I	1	0	732	0	poli_8sides 15_whiteLine3.jpg	Short_b09_cut1_stereo_44KHz.wav
4	3	4	4	2	I	1	0	704	0	poli_8sides 12_whiteLine3.jpg	Short_b23_cut1_stereo_44KHz.wav
4	4	2	1	0	C	1	1	811	1	poli_8sides 7_whiteLine3.jpg	Short_b22_cut1_stereo_44KHz.wav
4	5	1	2	0	C	2	0	791	0	poli_8sides 8_whiteLine3.jpg	Short_b20_cut1_stereo_44KHz.wav
4	6	2	2	1	C	2	1	841	1	poli_8sides 7_whiteLine3.jpg	Short_b20_cut1_stereo_44KHz.wav
4	7	4	3	2	I	1	0	1050	0	poli_8sides 12_whiteLine3.jpg	Short_b09_cut1_stereo_44KHz.wav
4	8	3	4	2	I	1	0	801	1	poli_8sides 15_whiteLine3.jpg	Short_b23_cut1_stereo_44KHz.wav
4	9	2	1	0	C	1	1	519	1	poli_8sides 7_whiteLine3.jpg	Short_b22_cut1_stereo_44KHz.wav
4	10	4	3	2	I	2	0	741	1	poli_8sides 12_whiteLine3.jpg	Short_b09_cut1_stereo_44KHz.wav
4	11	1	1	1	C	1	0	744	0	poli_8sides 8_whiteLine3.jpg	Short_b22_cut1_stereo_44KHz.wav
4	12	3	4	2	I	1	0	558	0	poli_8sides 15_whiteLine3.jpg	Short_b23_cut1_stereo_44KHz.wav
4	13	2	2	1	C	1	0	522	0	poli_8sides 7_whiteLine3.jpg	Short_b20_cut1_stereo_44KHz.wav
4	14	1	2	0	C	1	1	794	1	poli_8sides 8_whiteLine3.jpg	Short_b20_cut1_stereo_44KHz.wav
4	15	3	3	2	I	1	0	868	0	poli_8sides 15_whiteLine3.jpg	Short_b09_cut1_stereo_44KHz.wav
4	16	4	4	2	I	1	0	1117	1	poli_8sides 12_whiteLine3.jpg	Short_b23_cut1_stereo_44KHz.wav
4	17	1	2	0	C	1	1	1077	1	poli_8sides 8_whiteLine3.jpg	Short_b20_cut1_stereo_44KHz.wav
4	18	2	2	1	C	2	1	855	1	poli_8sides 7_whiteLine3.jpg	Short_b20_cut1_stereo_44KHz.wav
4	19	4	4	2	I	1	0	687	0	poli_8sides 12_whiteLine3.jpg	Short_b23_cut1_stereo_44KHz.wav
4	20	3	4	2	I	1	0	669	0	poli_8sides 15_whiteLine3.jpg	Short_b23_cut1_stereo_44KHz.wav
4	21	1	1	1	C	2	1	846	1	poli_8sides 8_whiteLine3.jpg	Short_b22_cut1_stereo_44KHz.wav
4	22	3	3	2	I	1	0	939	0	poli_8sides 15_whiteLine3.jpg	Short_b09_cut1_stereo_44KHz.wav
4	23	2	1	0	C	1	1	660	1	poli_8sides 7_whiteLine3.jpg	Short_b22_cut1_stereo_44KHz.wav
4	24	4	3	2	I	1	0	898	1	poli_8sides 12_whiteLine3.jpg	Short_b09_cut1_stereo_44KHz.wav
4	25	3	4	2	I	2	0	983	1	poli_8sides 15_whiteLine3.jpg	Short_b23_cut1_stereo_44KHz.wav
4	26	4	3	2	I	2	0	1116	1	poli_8sides 12_whiteLine3.jpg	Short_b09_cut1_stereo_44KHz.wav
4	27	1	1	1	C	2	1	1455	1	poli_8sides 8_whiteLine3.jpg	Short_b22_cut1_stereo_44KHz.wav
4	28	2	1	0	C	1	1	1047	1	poli_8sides 7_whiteLine3.jpg	Short_b22_cut1_stereo_44KHz.wav
4	29	4	4	2	I	2	0	1089	0	poli_8sides 12_whiteLine3.jpg	Short_b23_cut1_stereo_44KHz.wav
4	30	3	3	2	I	2	0	1068	0	poli_8sides 15_whiteLine3.jpg	Short_b09_cut1_stereo_44KHz.wav
4	31	2	2	1	C	2	1	811	1	poli_8sides 7_whiteLine3.jpg	Short_b20_cut1_stereo_44KHz.wav
4	32	1	2	0	C	1	1	510	1	poli_8sides 8_whiteLine3.jpg	Short_b20_cut1_stereo_44KHz.wav
4	33	4	4	2	I	2	0	894	1	poli_8sides 12_whiteLine3.jpg	Short_b23_cut1_stereo_44KHz.wav
4	34	1	2	0	C	1	1	905	1	poli_8sides 8_whiteLine3.jpg	Short_b20_cut1_stereo_44KHz.wav
4	35	3	4	2	I	1	0	713	1	poli_8sides 15_whiteLine3.jpg	Short_b23_cut1_stereo_44KHz.wav
4	36	2	1	0	C	1	1	991	1	poli_8sides 7_whiteLine3.jpg	Short_b22_cut1_stereo_44KHz.wav
4	37	4	3	2	I	1	0	1071	1	poli_8sides 12_whiteLine3.jpg	Short_b09_cut1_stereo_44KHz.wav
4	38	2	2	1	C	2	1	838	1	poli_8sides 7_whiteLine3.jpg	Short_b20_cut1_stereo_44KHz.wav
4	39	3	3	2	I	1	0	927	1	poli_8sides 15_whiteLine3.jpg	Short_b09_cut1_stereo_44KHz.wav
4	40	1	1	1	C	2	1	1306	1	poli_8sides 8_whiteLine3.jpg	Short_b22_cut1_stereo_44KHz.wav
4	41	3	4	2	I	1	0	808	0	poli_8sides 15_whiteLine3.jpg	Short_b23_cut1_stereo_44KHz.wav
4	42	2	1	0	C	1	1	694	1	poli_8sides 7_whiteLine3.jpg	Short_b22_cut1_stereo_44KHz.wav
4	43	1	1	1	C	2	1	1059	1	poli_8sides 8_whiteLine3.jpg	Short_b22_cut1_stereo_44KHz.wav
4	44	4	4	2	I	2	0	1476	0	poli_8sides 12_whiteLine3.jpg	Short_b23_cut1_stereo_44KHz.wav
4	45	1	2	0	C	1	1	1061	1	poli_8sides 8_whiteLine3.jpg	Short_b20_cut1_stereo_44KHz.wav
4	46	3	3	2	I	1	0	755	1	poli_8sides 15_whiteLine3.jpg	Short_b09_cut1_stereo_44KHz.wav
4	47	4	3	2	I	1	0	982	1	poli_8sides 12_whiteLine3.jpg	Short_b09_cut1_stereo_44KHz.wav
4	48	2	2	1	C	2	1	809	1	poli_8sides 7_whiteLine3.jpg	Short_b20_cut1_stereo_44KHz.wav
4	49	3	4	2	I	1	0	713	0	poli_8sides 15_whiteLine3.jpg	Short_b23_cut1_stereo_44KHz.wav
4	50	2	2	1	C	2	1	925	1	poli_8sides 7_whiteLine3.jpg	Short_b20_cut1_stereo_44KHz.wav
4	51	4	3	2	I	1	0	991	1	poli_8sides 12_whiteLine3.jpg	Short_b09_cut1_stereo_44KHz.wav
4	52	1	1	1	C	2	1	1030	1	poli_8sides 8_whiteLine3.jpg	Short_b22_cut1_stereo_44KHz.wav
4	53	3	3	2	I	1	0	925	0	poli_8sides 15_whiteLine3.jpg	Short_b09_cut1_stereo_44KHz.wav
4	54	1	2	0	C	1	1	1093	1	poli_8sides 8_whiteLine3.jpg	Short_b20_cut1_stereo_44KHz.wav
4	55	4	4	2	I	1	0	1149	1	poli_8sides 12_whiteLine3.jpg	Short_b23_cut1_stereo_44KHz.wav
4	56	2	1	0	C	1	1	671	1	poli_8sides 7_whiteLine3.jpg	Short_b22_cut1_stereo_44KHz.wav
4	57	4	3	2	I	2	0	1169	0	poli_8sides 12_whiteLine3.jpg	Short_b09_cut1_stereo_44KHz.wav
4	58	2	2	1	C	2	1	842	1	poli_8sides 7_whiteLine3.jpg	Short_b20_cut1_stereo_44KHz.wav
4	59	3	4	2	I	1	0	730	0	poli_8sides 15_whiteLine3.jpg	Short_b23_cut1_stereo_44KHz.wav
4	60	1	2	0	C	1	1	1002	1	poli_8sides 8_whiteLine3.jpg	Short_b20_cut1_stereo_44KHz.wav
4	61	3	3	2	I	1	0	804	1	poli_8sides 15_whiteLine3.jpg	Short_b09_cut1_stereo_44KHz.wav
4	62	4	4	2	I	2	0	695	1	poli_8sides 12_whiteLine3.jpg	Short_b23_cut1_stereo_44KHz.wav
4	63	1	1	1	C	2	1	871	1	poli_8sides 8_whiteLine3.jpg	Short_b22_cut1_stereo_44KHz.wav
4	64	2	1	0	C	1	1	533	1	poli_8sides 7_whiteLine3.jpg	Short_b22_cut1_stereo_44KHz.wav
4	65	1	1	1	C	2	1	1138	1	poli_8sides 8_whiteLine3.jpg	Short_b22_cut1_stereo_44KHz.wav
4	66	2	2	1	C	2	1	755	1	poli_8sides 7_whiteLine3.jpg	Short_b20_cut1_stereo_44KHz.wav
4	67	4	4	2	I	1	0	881	0	poli_8sides 12_whiteLine3.jpg	Short_b23_cut1_stereo_44KHz.wav
4	68	3	3	2	I	2	0	827	1	poli_8sides 15_whiteLine3.jpg	Short_b09_cut1_stereo_44KHz.wav
4	69	4	3	2	I	1	0	724	0	poli_8sides 12_whiteLine3.jpg	Short_b09_cut1_stereo_44KHz.wav
4	70	1	2	0	C	1	1	577	1	poli_8sides 8_whiteLine3.jpg	Short_b20_cut1_stereo_44KHz.wav
4	71	3	4	2	I	1	0	800	0	poli_8sides 15_whiteLine3.jpg	Short_b23_cut1_stereo_44KHz.wav
4	72	2	1	0	C	1	1	980	1	poli_8sides 7_whiteLine3.jpg	Short_b22_cut1_stereo_44KHz.wav
4	73	4	4	2	I	1	0	585	1	poli_8sides 12_whiteLine3.jpg	Short_b23_cut1_stereo_44KHz.wav
4	74	1	2	0	C	1	1	1076	1	poli_8sides 8_whiteLine3.jpg	Short_b20_cut1_stereo_44KHz.wav
4	75	2	1	0	C	1	1	699	1	poli_8sides 7_whiteLine3.jpg	Short_b22_cut1_stereo_44KHz.wav
4	76	3	3	2	I	1	0	850	0	poli_8sides 15_whiteLine3.jpg	Short_b09_cut1_stereo_44KHz.wav
4	77	1	1	1	C	2	1	923	1	poli_8sides 8_whiteLine3.jpg	Short_b22_cut1_stereo_44KHz.wav
4	78	4	3	2	I	2	0	572	1	poli_8sides 12_whiteLine3.jpg	Short_b09_cut1_stereo_44KHz.wav
4	79	2	2	1	C	2	1	731	1	poli_8sides 7_whiteLine3.jpg	Short_b20_cut1_stereo_44KHz.wav
4	80	3	4	2	I	1	0	711	1	poli_8sides 15_whiteLine3.jpg	Short_b23_cut1_stereo_44KHz.wav
4	81	2	1	0	C	1	1	952	1	poli_8sides 7_whiteLine3.jpg	Short_b22_cut1_stereo_44KHz.wav
4	82	3	4	2	I	2	0	1067	0	poli_8sides 15_whiteLine3.jpg	Short_b23_cut1_stereo_44KHz.wav
4	83	1	2	0	C	2	0	929	0	poli_8sides 8_whiteLine3.jpg	Short_b20_cut1_stereo_44KHz.wav
4	84	4	4	2	I	1	0	845	1	poli_8sides 12_whiteLine3.jpg	Short_b23_cut1_stereo_44KHz.wav
4	85	1	1	1	C	2	1	879	1	poli_8sides 8_whiteLine3.jpg	Short_b22_cut1_stereo_44KHz.wav
4	86	4	3	2	I	1	0	709	1	poli_8sides 12_whiteLine3.jpg	Short_b09_cut1_stereo_44KHz.wav
4	87	2	2	1	C	2	1	1181	1	poli_8sides 7_whiteLine3.jpg	Short_b20_cut1_stereo_44KHz.wav
4	88	3	3	2	I	1	0	1355	1	poli_8sides 15_whiteLine3.jpg	Short_b09_cut1_stereo_44KHz.wav
4	89	4	4	2	I	2	0	713	0	poli_8sides 12_whiteLine3.jpg	Short_b23_cut1_stereo_44KHz.wav
4	90	1	2	0	C	1	1	670	1	poli_8sides 8_whiteLine3.jpg	Short_b20_cut1_stereo_44KHz.wav
4	91	2	1	0	C	1	1	693	1	poli_8sides 7_whiteLine3.jpg	Short_b22_cut1_stereo_44KHz.wav
4	92	3	4	2	I	1	0	563	0	poli_8sides 15_whiteLine3.jpg	Short_b23_cut1_stereo_44KHz.wav
4	93	1	1	1	C	1	0	836	0	poli_8sides 8_whiteLine3.jpg	Short_b22_cut1_stereo_44KHz.wav
4	94	4	3	2	I	1	0	740	0	poli_8sides 12_whiteLine3.jpg	Short_b09_cut1_stereo_44KHz.wav
4	95	2	2	1	C	2	1	589	1	poli_8sides 7_whiteLine3.jpg	Short_b20_cut1_stereo_44KHz.wav
4	96	3	3	2	I	1	0	905	0	poli_8sides 15_whiteLine3.jpg	Short_b09_cut1_stereo_44KHz.wav
4	97	2	1	0	C	1	1	681	1	poli_8sides 7_whiteLine3.jpg	Short_b22_cut1_stereo_44KHz.wav
4	98	1	2	0	C	1	1	730	1	poli_8sides 8_whiteLine3.jpg	Short_b20_cut1_stereo_44KHz.wav
4	99	4	4	2	I	1	0	1059	0	poli_8sides 12_whiteLine3.jpg	Short_b23_cut1_stereo_44KHz.wav
4	100	3	4	2	I	2	0	889	1	poli_8sides 15_whiteLine3.jpg	Short_b23_cut1_stereo_44KHz.wav
4	101	1	1	1	C	2	1	1026	1	poli_8sides 8_whiteLine3.jpg	Short_b22_cut1_stereo_44KHz.wav
4	102	3	3	2	I	1	0	1129	0	poli_8sides 15_whiteLine3.jpg	Short_b09_cut1_stereo_44KHz.wav
4	103	2	2	1	C	2	1	839	1	poli_8sides 7_whiteLine3.jpg	Short_b20_cut1_stereo_44KHz.wav
4	104	4	3	2	I	1	0	1287	0	poli_8sides 12_whiteLine3.jpg	Short_b09_cut1_stereo_44KHz.wav
4	105	3	4	2	I	1	0	824	1	poli_8sides 15_whiteLine3.jpg	Short_b23_cut1_stereo_44KHz.wav
4	106	1	1	1	C	2	1	908	1	poli_8sides 8_whiteLine3.jpg	Short_b22_cut1_stereo_44KHz.wav
4	107	2	2	1	C	2	1	879	1	poli_8sides 7_whiteLine3.jpg	Short_b20_cut1_stereo_44KHz.wav
4	108	4	3	2	I	1	0	972	0	poli_8sides 12_whiteLine3.jpg	Short_b09_cut1_stereo_44KHz.wav
4	109	2	1	0	C	1	1	741	1	poli_8sides 7_whiteLine3.jpg	Short_b22_cut1_stereo_44KHz.wav
4	110	4	4	2	I	2	0	660	1	poli_8sides 12_whiteLine3.jpg	Short_b23_cut1_stereo_44KHz.wav
4	111	1	2	0	C	1	1	1021	1	poli_8sides 8_whiteLine3.jpg	Short_b20_cut1_stereo_44KHz.wav
4	112	3	3	2	I	2	0	992	1	poli_8sides 15_whiteLine3.jpg	Short_b09_cut1_stereo_44KHz.wav
4	113	1	1	1	C	2	1	884	1	poli_8sides 8_whiteLine3.jpg	Short_b22_cut1_stereo_44KHz.wav
4	114	2	2	1	C	2	1	764	1	poli_8sides 7_whiteLine3.jpg	Short_b20_cut1_stereo_44KHz.wav
4	115	3	4	2	I	1	0	712	1	poli_8sides 15_whiteLine3.jpg	Short_b23_cut1_stereo_44KHz.wav
4	116	4	3	2	I	1	0	801	1	poli_8sides 12_whiteLine3.jpg	Short_b09_cut1_stereo_44KHz.wav
4	117	3	3	2	I	2	0	663	1	poli_8sides 15_whiteLine3.jpg	Short_b09_cut1_stereo_44KHz.wav
4	118	1	2	0	C	1	1	921	1	poli_8sides 8_whiteLine3.jpg	Short_b20_cut1_stereo_44KHz.wav
4	119	2	1	0	C	1	1	803	1	poli_8sides 7_whiteLine3.jpg	Short_b22_cut1_stereo_44KHz.wav
4	120	4	4	2	I	2	0	956	0	poli_8sides 12_whiteLine3.jpg	Short_b23_cut1_stereo_44KHz.wav
4	121	3	4	2	I	1	0	874	0	poli_8sides 15_whiteLine3.jpg	Short_b23_cut1_stereo_44KHz.wav
4	122	2	1	0	C	1	1	829	1	poli_8sides 7_whiteLine3.jpg	Short_b22_cut1_stereo_44KHz.wav
4	123	4	4	2	I	1	0	781	1	poli_8sides 12_whiteLine3.jpg	Short_b23_cut1_stereo_44KHz.wav
4	124	1	1	1	C	2	1	845	1	poli_8sides 8_whiteLine3.jpg	Short_b22_cut1_stereo_44KHz.wav
4	125	2	2	1	C	2	1	774	1	poli_8sides 7_whiteLine3.jpg	Short_b20_cut1_stereo_44KHz.wav
4	126	4	3	2	I	1	0	931	1	poli_8sides 12_whiteLine3.jpg	Short_b09_cut1_stereo_44KHz.wav
4	127	1	2	0	C	1	1	641	1	poli_8sides 8_whiteLine3.jpg	Short_b20_cut1_stereo_44KHz.wav
4	128	3	3	2	I	1	0	906	1	poli_8sides 15_whiteLine3.jpg	Short_b09_cut1_stereo_44KHz.wav
4	129	1	2	0	C	1	1	812	1	poli_8sides 8_whiteLine3.jpg	Short_b20_cut1_stereo_44KHz.wav
4	130	2	1	0	C	1	1	906	1	poli_8sides 7_whiteLine3.jpg	Short_b22_cut1_stereo_44KHz.wav
4	131	4	3	2	I	1	0	957	0	poli_8sides 12_whiteLine3.jpg	Short_b09_cut1_stereo_44KHz.wav
4	132	3	3	2	I	1	0	696	1	poli_8sides 15_whiteLine3.jpg	Short_b09_cut1_stereo_44KHz.wav
4	133	1	1	1	C	2	1	854	1	poli_8sides 8_whiteLine3.jpg	Short_b22_cut1_stereo_44KHz.wav
4	134	3	4	2	I	2	0	668	1	poli_8sides 15_whiteLine3.jpg	Short_b23_cut1_stereo_44KHz.wav
4	135	4	4	2	I	2	0	781	0	poli_8sides 12_whiteLine3.jpg	Short_b23_cut1_stereo_44KHz.wav
4	136	2	2	1	C	2	1	1107	1	poli_8sides 7_whiteLine3.jpg	Short_b20_cut1_stereo_44KHz.wav
4	137	1	2	0	C	1	1	815	1	poli_8sides 8_whiteLine3.jpg	Short_b20_cut1_stereo_44KHz.wav
4	138	2	2	1	C	2	1	871	1	poli_8sides 7_whiteLine3.jpg	Short_b20_cut1_stereo_44KHz.wav
4	139	4	4	2	I	1	0	1280	0	poli_8sides 12_whiteLine3.jpg	Short_b23_cut1_stereo_44KHz.wav
4	140	3	3	2	I	1	0	1049	1	poli_8sides 15_whiteLine3.jpg	Short_b09_cut1_stereo_44KHz.wav
4	141	2	1	0	C	2	0	968	0	poli_8sides 7_whiteLine3.jpg	Short_b22_cut1_stereo_44KHz.wav
4	142	1	1	1	C	2	1	648	1	poli_8sides 8_whiteLine3.jpg	Short_b22_cut1_stereo_44KHz.wav
4	143	4	3	2	I	1	0	823	1	poli_8sides 12_whiteLine3.jpg	Short_b09_cut1_stereo_44KHz.wav
4	144	3	4	2	I	1	0	726	0	poli_8sides 15_whiteLine3.jpg	Short_b23_cut1_stereo_44KHz.wav
4	145	2	1	0	C	1	1	590	1	poli_8sides 7_whiteLine3.jpg	Short_b22_cut1_stereo_44KHz.wav
4	146	3	3	2	I	1	0	722	0	poli_8sides 15_whiteLine3.jpg	Short_b09_cut1_stereo_44KHz.wav
4	147	1	1	1	C	2	1	867	1	poli_8sides 8_whiteLine3.jpg	Short_b22_cut1_stereo_44KHz.wav
4	148	4	3	2	I	1	0	818	1	poli_8sides 12_whiteLine3.jpg	Short_b09_cut1_stereo_44KHz.wav
4	149	1	2	0	C	1	1	679	1	poli_8sides 8_whiteLine3.jpg	Short_b20_cut1_stereo_44KHz.wav
4	150	4	4	2	I	2	0	1123	1	poli_8sides 12_whiteLine3.jpg	Short_b23_cut1_stereo_44KHz.wav
4	151	3	4	2	I	1	0	858	0	poli_8sides 15_whiteLine3.jpg	Short_b23_cut1_stereo_44KHz.wav
4	152	2	2	1	C	2	1	737	1	poli_8sides 7_whiteLine3.jpg	Short_b20_cut1_stereo_44KHz.wav
4	153	1	1	1	C	2	1	1008	1	poli_8sides 8_whiteLine3.jpg	Short_b22_cut1_stereo_44KHz.wav
4	154	4	4	2	I	2	0	1307	1	poli_8sides 12_whiteLine3.jpg	Short_b23_cut1_stereo_44KHz.wav
4	155	2	1	0	C	1	1	853	1	poli_8sides 7_whiteLine3.jpg	Short_b22_cut1_stereo_44KHz.wav
4	156	3	3	2	I	1	0	1008	1	poli_8sides 15_whiteLine3.jpg	Short_b09_cut1_stereo_44KHz.wav
4	157	4	3	2	I	1	0	1084	0	poli_8sides 12_whiteLine3.jpg	Short_b09_cut1_stereo_44KHz.wav
4	158	1	2	0	C	1	1	882	1	poli_8sides 8_whiteLine3.jpg	Short_b20_cut1_stereo_44KHz.wav
4	159	2	2	1	C	2	1	843	1	poli_8sides 7_whiteLine3.jpg	Short_b20_cut1_stereo_44KHz.wav
4	160	3	4	2	I	2	0	1381	1	poli_8sides 15_whiteLine3.jpg	Short_b23_cut1_stereo_44KHz.wav
4	161	4	4	2	I	2	0	766	1	poli_8sides 12_whiteLine3.jpg	Short_b23_cut1_stereo_44KHz.wav
4	162	1	1	1	C	2	1	1052	1	poli_8sides 8_whiteLine3.jpg	Short_b22_cut1_stereo_44KHz.wav
4	163	2	1	0	C	1	1	1011	1	poli_8sides 7_whiteLine3.jpg	Short_b22_cut1_stereo_44KHz.wav
4	164	3	3	2	I	2	0	958	1	poli_8sides 15_whiteLine3.jpg	Short_b09_cut1_stereo_44KHz.wav
4	165	2	2	1	C	2	1	761	1	poli_8sides 7_whiteLine3.jpg	Short_b20_cut1_stereo_44KHz.wav
4	166	1	2	0	C	1	1	1039	1	poli_8sides 8_whiteLine3.jpg	Short_b20_cut1_stereo_44KHz.wav
4	167	3	4	2	I	1	0	848	0	poli_8sides 15_whiteLine3.jpg	Short_b23_cut1_stereo_44KHz.wav
4	168	4	3	2	I	2	0	1095	0	poli_8sides 12_whiteLine3.jpg	Short_b09_cut1_stereo_44KHz.wav
4	169	2	1	0	C	1	1	959	1	poli_8sides 7_whiteLine3.jpg	Short_b22_cut1_stereo_44KHz.wav
4	170	3	4	2	I	1	0	1115	0	poli_8sides 15_whiteLine3.jpg	Short_b23_cut1_stereo_44KHz.wav
4	171	4	4	2	I	2	0	1061	0	poli_8sides 12_whiteLine3.jpg	Short_b23_cut1_stereo_44KHz.wav
4	172	1	1	1	C	2	1	977	1	poli_8sides 8_whiteLine3.jpg	Short_b22_cut1_stereo_44KHz.wav
4	173	2	2	1	C	0	0	0	0	poli_8sides 7_whiteLine3.jpg	Short_b20_cut1_stereo_44KHz.wav
4	174	3	3	2	I	2	0	688	0	poli_8sides 15_whiteLine3.jpg	Short_b09_cut1_stereo_44KHz.wav
4	175	1	2	0	C	1	1	802	1	poli_8sides 8_whiteLine3.jpg	Short_b20_cut1_stereo_44KHz.wav
4	176	4	3	2	I	1	0	1012	0	poli_8sides 12_whiteLine3.jpg	Short_b09_cut1_stereo_44KHz.wav
4	177	3	3	2	I	1	0	644	1	poli_8sides 15_whiteLine3.jpg	Short_b09_cut1_stereo_44KHz.wav
4	178	4	3	2	I	1	0	598	1	poli_8sides 12_whiteLine3.jpg	Short_b09_cut1_stereo_44KHz.wav
4	179	2	1	0	C	1	1	756	1	poli_8sides 7_whiteLine3.jpg	Short_b22_cut1_stereo_44KHz.wav
4	180	1	2	0	C	1	1	767	1	poli_8sides 8_whiteLine3.jpg	Short_b20_cut1_stereo_44KHz.wav
4	181	3	4	2	I	1	0	833	1	poli_8sides 15_whiteLine3.jpg	Short_b23_cut1_stereo_44KHz.wav
4	182	2	2	1	C	2	1	1306	1	poli_8sides 7_whiteLine3.jpg	Short_b20_cut1_stereo_44KHz.wav
4	183	1	1	1	C	2	1	671	1	poli_8sides 8_whiteLine3.jpg	Short_b22_cut1_stereo_44KHz.wav
4	184	4	4	2	I	2	0	767	0	poli_8sides 12_whiteLine3.jpg	Short_b23_cut1_stereo_44KHz.wav
4	185	1	2	0	C	1	1	871	1	poli_8sides 8_whiteLine3.jpg	Short_b20_cut1_stereo_44KHz.wav
4	186	4	3	2	I	1	0	697	0	poli_8sides 12_whiteLine3.jpg	Short_b09_cut1_stereo_44KHz.wav
4	187	2	2	1	C	2	1	747	1	poli_8sides 7_whiteLine3.jpg	Short_b20_cut1_stereo_44KHz.wav
4	188	3	4	2	I	1	0	640	0	poli_8sides 15_whiteLine3.jpg	Short_b23_cut1_stereo_44KHz.wav
4	189	1	1	1	C	2	1	787	1	poli_8sides 8_whiteLine3.jpg	Short_b22_cut1_stereo_44KHz.wav
4	190	3	3	2	I	1	0	1125	0	poli_8sides 15_whiteLine3.jpg	Short_b09_cut1_stereo_44KHz.wav
4	191	4	4	2	I	1	0	850	0	poli_8sides 12_whiteLine3.jpg	Short_b23_cut1_stereo_44KHz.wav
4	192	2	1	0	C	1	1	799	1	poli_8sides 7_whiteLine3.jpg	Short_b22_cut1_stereo_44KHz.wav
4	193	3	3	2	I	2	0	1149	1	poli_8sides 15_whiteLine3.jpg	Short_b09_cut1_stereo_44KHz.wav
4	194	1	2	0	C	1	1	948	1	poli_8sides 8_whiteLine3.jpg	Short_b20_cut1_stereo_44KHz.wav
4	195	2	1	0	C	1	1	654	1	poli_8sides 7_whiteLine3.jpg	Short_b22_cut1_stereo_44KHz.wav
4	196	4	4	2	I	1	0	788	1	poli_8sides 12_whiteLine3.jpg	Short_b23_cut1_stereo_44KHz.wav
4	197	3	4	2	I	1	0	760	1	poli_8sides 15_whiteLine3.jpg	Short_b23_cut1_stereo_44KHz.wav
4	198	1	1	1	C	2	1	679	1	poli_8sides 8_whiteLine3.jpg	Short_b22_cut1_stereo_44KHz.wav
4	199	4	3	2	I	1	0	944	0	poli_8sides 12_whiteLine3.jpg	Short_b09_cut1_stereo_44KHz.wav
4	200	2	2	1	C	2	1	833	1	poli_8sides 7_whiteLine3.jpg	Short_b20_cut1_stereo_44KHz.wav
