block	trial	Vstim	Astim	match	C/I	resp	result	RT	fb	V-file	A-file
LR

0	1	2	3	1	C	0	0	0	0	poli_8sides 23_whiteLine3.jpg	Practice1_b27_cut1_stereo_44KHz.wav
0	2	1	2	0	C	1	1	1013	1	poli_8sides 21_whiteLine3.jpg	Practice4_b26_stereo_44KHz.wav
0	3	1	1	1	C	2	1	913	1	poli_8sides 21_whiteLine3.jpg	Practice2_b27_cut2_stereo_44KHz.wav
0	4	2	4	0	C	2	0	1226	0	poli_8sides 23_whiteLine3.jpg	Practice3_b26_cut1_stereo_44KHz.wav
0	5	1	2	0	C	1	1	1153	1	poli_8sides 21_whiteLine3.jpg	Practice4_b26_stereo_44KHz.wav
0	6	1	1	1	C	1	0	1041	0	poli_8sides 21_whiteLine3.jpg	Practice2_b27_cut2_stereo_44KHz.wav
0	7	2	3	1	C	2	1	1575	1	poli_8sides 23_whiteLine3.jpg	Practice1_b27_cut1_stereo_44KHz.wav
0	8	2	4	0	C	1	1	1200	1	poli_8sides 23_whiteLine3.jpg	Practice3_b26_cut1_stereo_44KHz.wav
0	9	1	1	1	C	2	1	1819	1	poli_8sides 21_whiteLine3.jpg	Practice2_b27_cut2_stereo_44KHz.wav
0	10	2	4	0	C	1	1	1047	1	poli_8sides 23_whiteLine3.jpg	Practice3_b26_cut1_stereo_44KHz.wav
0	11	2	3	1	C	2	1	1280	1	poli_8sides 23_whiteLine3.jpg	Practice1_b27_cut1_stereo_44KHz.wav
0	12	1	2	0	C	1	1	1677	1	poli_8sides 21_whiteLine3.jpg	Practice4_b26_stereo_44KHz.wav
0	13	1	1	1	C	2	1	1035	1	poli_8sides 21_whiteLine3.jpg	Practice2_b27_cut2_stereo_44KHz.wav
0	14	2	4	0	C	1	1	839	1	poli_8sides 23_whiteLine3.jpg	Practice3_b26_cut1_stereo_44KHz.wav
0	15	2	3	1	C	2	1	996	1	poli_8sides 23_whiteLine3.jpg	Practice1_b27_cut1_stereo_44KHz.wav
0	16	1	2	0	C	1	1	1635	1	poli_8sides 21_whiteLine3.jpg	Practice4_b26_stereo_44KHz.wav
0	17	2	4	0	C	1	1	1579	1	poli_8sides 23_whiteLine3.jpg	Practice3_b26_cut1_stereo_44KHz.wav
0	18	2	3	1	C	2	1	1101	1	poli_8sides 23_whiteLine3.jpg	Practice1_b27_cut1_stereo_44KHz.wav
0	19	1	1	1	C	2	1	1664	1	poli_8sides 21_whiteLine3.jpg	Practice2_b27_cut2_stereo_44KHz.wav
0	20	1	2	0	C	1	1	1146	1	poli_8sides 21_whiteLine3.jpg	Practice4_b26_stereo_44KHz.wav
0	21	2	4	0	C	1	1	1672	1	poli_8sides 23_whiteLine3.jpg	Practice3_b26_cut1_stereo_44KHz.wav
0	22	1	2	0	C	1	1	1000	1	poli_8sides 21_whiteLine3.jpg	Practice4_b26_stereo_44KHz.wav
0	23	1	1	1	C	2	1	1300	1	poli_8sides 21_whiteLine3.jpg	Practice2_b27_cut2_stereo_44KHz.wav
0	24	2	3	1	C	2	1	1504	1	poli_8sides 23_whiteLine3.jpg	Practice1_b27_cut1_stereo_44KHz.wav
0	25	1	1	1	C	2	1	1592	1	poli_8sides 21_whiteLine3.jpg	Practice2_b27_cut2_stereo_44KHz.wav
0	26	2	4	0	C	1	1	1218	1	poli_8sides 23_whiteLine3.jpg	Practice3_b26_cut1_stereo_44KHz.wav
0	27	1	2	0	C	1	1	1455	1	poli_8sides 21_whiteLine3.jpg	Practice4_b26_stereo_44KHz.wav
0	28	2	3	1	C	2	1	1432	1	poli_8sides 23_whiteLine3.jpg	Practice1_b27_cut1_stereo_44KHz.wav
0	29	2	4	0	C	1	1	1200	1	poli_8sides 23_whiteLine3.jpg	Practice3_b26_cut1_stereo_44KHz.wav
0	30	1	2	0	C	1	1	1081	1	poli_8sides 21_whiteLine3.jpg	Practice4_b26_stereo_44KHz.wav
avg_resp = 1301
1	1	1	1	1	C	2	1	1637	1	poli_8sides 10_whiteLine3.jpg	Medium_e21_stereo_44KHz.wav
1	2	4	3	2	I	1	0	1259	0	poli_8sides 2_whiteLine3.jpg	MediumLong_e19_stereo_44KHz.wav
1	3	3	3	2	I	1	0	925	0	poli_8sides 11_whiteLine3.jpg	MediumLong_e19_stereo_44KHz.wav
1	4	2	2	1	C	1	0	1049	0	poli_8sides 4_whiteLine3.jpg	MediumLong_b10_cut2_L_stereo_44KHz.wav
1	5	1	2	0	C	2	0	779	0	poli_8sides 10_whiteLine3.jpg	MediumLong_b10_cut2_L_stereo_44KHz.wav
1	6	2	1	0	C	1	1	688	1	poli_8sides 4_whiteLine3.jpg	Medium_e21_stereo_44KHz.wav
1	7	3	4	2	I	1	0	848	1	poli_8sides 11_whiteLine3.jpg	MediumLong_e17_cut2_stereo_44KHz.wav
1	8	4	4	2	I	2	0	1060	1	poli_8sides 2_whiteLine3.jpg	MediumLong_e17_cut2_stereo_44KHz.wav
1	9	1	2	0	C	1	1	1262	1	poli_8sides 10_whiteLine3.jpg	MediumLong_b10_cut2_L_stereo_44KHz.wav
1	10	2	1	0	C	1	1	848	1	poli_8sides 4_whiteLine3.jpg	Medium_e21_stereo_44KHz.wav
1	11	4	4	2	I	1	0	859	1	poli_8sides 2_whiteLine3.jpg	MediumLong_e17_cut2_stereo_44KHz.wav
1	12	3	4	2	I	2	0	848	1	poli_8sides 11_whiteLine3.jpg	MediumLong_e17_cut2_stereo_44KHz.wav
1	13	1	1	1	C	1	0	711	0	poli_8sides 10_whiteLine3.jpg	Medium_e21_stereo_44KHz.wav
1	14	4	3	2	I	1	0	778	1	poli_8sides 2_whiteLine3.jpg	MediumLong_e19_stereo_44KHz.wav
1	15	3	3	2	I	2	0	1023	0	poli_8sides 11_whiteLine3.jpg	MediumLong_e19_stereo_44KHz.wav
1	16	2	2	1	C	1	0	778	0	poli_8sides 4_whiteLine3.jpg	MediumLong_b10_cut2_L_stereo_44KHz.wav
1	17	1	2	0	C	1	1	674	1	poli_8sides 10_whiteLine3.jpg	MediumLong_b10_cut2_L_stereo_44KHz.wav
1	18	3	3	2	I	1	0	966	1	poli_8sides 11_whiteLine3.jpg	MediumLong_e19_stereo_44KHz.wav
1	19	2	1	0	C	1	1	948	1	poli_8sides 4_whiteLine3.jpg	Medium_e21_stereo_44KHz.wav
1	20	4	3	2	I	1	0	1147	0	poli_8sides 2_whiteLine3.jpg	MediumLong_e19_stereo_44KHz.wav
1	21	2	2	1	C	2	1	931	1	poli_8sides 4_whiteLine3.jpg	MediumLong_b10_cut2_L_stereo_44KHz.wav
1	22	1	1	1	C	2	1	1076	1	poli_8sides 10_whiteLine3.jpg	Medium_e21_stereo_44KHz.wav
1	23	4	4	2	I	2	0	777	1	poli_8sides 2_whiteLine3.jpg	MediumLong_e17_cut2_stereo_44KHz.wav
1	24	3	4	2	I	1	0	895	1	poli_8sides 11_whiteLine3.jpg	MediumLong_e17_cut2_stereo_44KHz.wav
1	25	2	1	0	C	1	1	829	1	poli_8sides 4_whiteLine3.jpg	Medium_e21_stereo_44KHz.wav
1	26	4	3	2	I	2	0	804	1	poli_8sides 2_whiteLine3.jpg	MediumLong_e19_stereo_44KHz.wav
1	27	3	3	2	I	1	0	1430	0	poli_8sides 11_whiteLine3.jpg	MediumLong_e19_stereo_44KHz.wav
1	28	1	2	0	C	1	1	807	1	poli_8sides 10_whiteLine3.jpg	MediumLong_b10_cut2_L_stereo_44KHz.wav
1	29	2	2	1	C	2	1	737	1	poli_8sides 4_whiteLine3.jpg	MediumLong_b10_cut2_L_stereo_44KHz.wav
1	30	3	4	2	I	1	0	775	0	poli_8sides 11_whiteLine3.jpg	MediumLong_e17_cut2_stereo_44KHz.wav
1	31	4	4	2	I	1	0	843	1	poli_8sides 2_whiteLine3.jpg	MediumLong_e17_cut2_stereo_44KHz.wav
1	32	1	1	1	C	2	1	1265	1	poli_8sides 10_whiteLine3.jpg	Medium_e21_stereo_44KHz.wav
1	33	2	2	1	C	2	1	1743	1	poli_8sides 4_whiteLine3.jpg	MediumLong_b10_cut2_L_stereo_44KHz.wav
1	34	4	4	2	I	1	0	1021	1	poli_8sides 2_whiteLine3.jpg	MediumLong_e17_cut2_stereo_44KHz.wav
1	35	1	1	1	C	2	1	687	1	poli_8sides 10_whiteLine3.jpg	Medium_e21_stereo_44KHz.wav
1	36	3	4	2	I	1	0	937	0	poli_8sides 11_whiteLine3.jpg	MediumLong_e17_cut2_stereo_44KHz.wav
1	37	4	3	2	I	2	0	963	0	poli_8sides 2_whiteLine3.jpg	MediumLong_e19_stereo_44KHz.wav
1	38	1	2	0	C	1	1	722	1	poli_8sides 10_whiteLine3.jpg	MediumLong_b10_cut2_L_stereo_44KHz.wav
1	39	3	3	2	I	1	0	1048	1	poli_8sides 11_whiteLine3.jpg	MediumLong_e19_stereo_44KHz.wav
1	40	2	1	0	C	1	1	1489	1	poli_8sides 4_whiteLine3.jpg	Medium_e21_stereo_44KHz.wav
1	41	4	3	2	I	2	0	724	1	poli_8sides 2_whiteLine3.jpg	MediumLong_e19_stereo_44KHz.wav
1	42	3	3	2	I	1	0	746	1	poli_8sides 11_whiteLine3.jpg	MediumLong_e19_stereo_44KHz.wav
1	43	1	1	1	C	2	1	1448	1	poli_8sides 10_whiteLine3.jpg	Medium_e21_stereo_44KHz.wav
1	44	2	2	1	C	2	1	910	1	poli_8sides 4_whiteLine3.jpg	MediumLong_b10_cut2_L_stereo_44KHz.wav
1	45	1	2	0	C	1	1	979	1	poli_8sides 10_whiteLine3.jpg	MediumLong_b10_cut2_L_stereo_44KHz.wav
1	46	4	4	2	I	1	0	1271	0	poli_8sides 2_whiteLine3.jpg	MediumLong_e17_cut2_stereo_44KHz.wav
1	47	2	1	0	C	2	0	807	0	poli_8sides 4_whiteLine3.jpg	Medium_e21_stereo_44KHz.wav
1	48	3	4	2	I	2	0	1020	0	poli_8sides 11_whiteLine3.jpg	MediumLong_e17_cut2_stereo_44KHz.wav
1	49	1	1	1	C	2	1	836	1	poli_8sides 10_whiteLine3.jpg	Medium_e21_stereo_44KHz.wav
1	50	4	4	2	I	1	0	581	1	poli_8sides 2_whiteLine3.jpg	MediumLong_e17_cut2_stereo_44KHz.wav
1	51	2	1	0	C	2	0	1715	0	poli_8sides 4_whiteLine3.jpg	Medium_e21_stereo_44KHz.wav
1	52	3	4	2	I	2	0	1128	1	poli_8sides 11_whiteLine3.jpg	MediumLong_e17_cut2_stereo_44KHz.wav
1	53	2	2	1	C	1	0	956	0	poli_8sides 4_whiteLine3.jpg	MediumLong_b10_cut2_L_stereo_44KHz.wav
1	54	1	2	0	C	1	1	587	1	poli_8sides 10_whiteLine3.jpg	MediumLong_b10_cut2_L_stereo_44KHz.wav
1	55	4	3	2	I	2	0	865	1	poli_8sides 2_whiteLine3.jpg	MediumLong_e19_stereo_44KHz.wav
1	56	3	3	2	I	1	0	1041	0	poli_8sides 11_whiteLine3.jpg	MediumLong_e19_stereo_44KHz.wav
1	57	1	1	1	C	2	1	834	1	poli_8sides 10_whiteLine3.jpg	Medium_e21_stereo_44KHz.wav
1	58	3	4	2	I	2	0	752	0	poli_8sides 11_whiteLine3.jpg	MediumLong_e17_cut2_stereo_44KHz.wav
1	59	4	3	2	I	2	0	872	1	poli_8sides 2_whiteLine3.jpg	MediumLong_e19_stereo_44KHz.wav
1	60	2	2	1	C	2	1	751	1	poli_8sides 4_whiteLine3.jpg	MediumLong_b10_cut2_L_stereo_44KHz.wav
1	61	1	2	0	C	1	1	739	1	poli_8sides 10_whiteLine3.jpg	MediumLong_b10_cut2_L_stereo_44KHz.wav
1	62	4	4	2	I	1	0	814	0	poli_8sides 2_whiteLine3.jpg	MediumLong_e17_cut2_stereo_44KHz.wav
1	63	2	1	0	C	2	0	844	0	poli_8sides 4_whiteLine3.jpg	Medium_e21_stereo_44KHz.wav
1	64	3	3	2	I	2	0	947	1	poli_8sides 11_whiteLine3.jpg	MediumLong_e19_stereo_44KHz.wav
1	65	4	4	2	I	1	0	573	1	poli_8sides 2_whiteLine3.jpg	MediumLong_e17_cut2_stereo_44KHz.wav
1	66	2	2	1	C	1	0	600	0	poli_8sides 4_whiteLine3.jpg	MediumLong_b10_cut2_L_stereo_44KHz.wav
1	67	3	3	2	I	2	0	786	1	poli_8sides 11_whiteLine3.jpg	MediumLong_e19_stereo_44KHz.wav
1	68	1	2	0	C	1	1	1154	1	poli_8sides 10_whiteLine3.jpg	MediumLong_b10_cut2_L_stereo_44KHz.wav
1	69	2	1	0	C	1	1	1666	1	poli_8sides 4_whiteLine3.jpg	Medium_e21_stereo_44KHz.wav
1	70	1	1	1	C	2	1	1137	1	poli_8sides 10_whiteLine3.jpg	Medium_e21_stereo_44KHz.wav
1	71	4	3	2	I	2	0	818	1	poli_8sides 2_whiteLine3.jpg	MediumLong_e19_stereo_44KHz.wav
1	72	3	4	2	I	1	0	1209	1	poli_8sides 11_whiteLine3.jpg	MediumLong_e17_cut2_stereo_44KHz.wav
1	73	2	1	0	C	2	0	841	0	poli_8sides 4_whiteLine3.jpg	Medium_e21_stereo_44KHz.wav
1	74	1	1	1	C	2	1	779	1	poli_8sides 10_whiteLine3.jpg	Medium_e21_stereo_44KHz.wav
1	75	4	3	2	I	2	0	874	0	poli_8sides 2_whiteLine3.jpg	MediumLong_e19_stereo_44KHz.wav
1	76	3	3	2	I	1	0	1168	0	poli_8sides 11_whiteLine3.jpg	MediumLong_e19_stereo_44KHz.wav
1	77	1	2	0	C	1	1	655	1	poli_8sides 10_whiteLine3.jpg	MediumLong_b10_cut2_L_stereo_44KHz.wav
1	78	4	4	2	I	1	0	680	1	poli_8sides 2_whiteLine3.jpg	MediumLong_e17_cut2_stereo_44KHz.wav
1	79	2	2	1	C	2	1	1234	1	poli_8sides 4_whiteLine3.jpg	MediumLong_b10_cut2_L_stereo_44KHz.wav
1	80	3	4	2	I	1	0	900	1	poli_8sides 11_whiteLine3.jpg	MediumLong_e17_cut2_stereo_44KHz.wav
1	81	4	4	2	I	1	0	533	1	poli_8sides 2_whiteLine3.jpg	MediumLong_e17_cut2_stereo_44KHz.wav
1	82	1	1	1	C	2	1	715	1	poli_8sides 10_whiteLine3.jpg	Medium_e21_stereo_44KHz.wav
1	83	2	2	1	C	1	0	884	0	poli_8sides 4_whiteLine3.jpg	MediumLong_b10_cut2_L_stereo_44KHz.wav
1	84	3	4	2	I	1	0	653	0	poli_8sides 11_whiteLine3.jpg	MediumLong_e17_cut2_stereo_44KHz.wav
1	85	1	2	0	C	1	1	944	1	poli_8sides 10_whiteLine3.jpg	MediumLong_b10_cut2_L_stereo_44KHz.wav
1	86	2	1	0	C	1	1	1045	1	poli_8sides 4_whiteLine3.jpg	Medium_e21_stereo_44KHz.wav
1	87	4	3	2	I	2	0	866	0	poli_8sides 2_whiteLine3.jpg	MediumLong_e19_stereo_44KHz.wav
1	88	3	3	2	I	2	0	1005	1	poli_8sides 11_whiteLine3.jpg	MediumLong_e19_stereo_44KHz.wav
1	89	1	1	1	C	2	1	847	1	poli_8sides 10_whiteLine3.jpg	Medium_e21_stereo_44KHz.wav
1	90	4	3	2	I	2	0	718	1	poli_8sides 2_whiteLine3.jpg	MediumLong_e19_stereo_44KHz.wav
1	91	3	4	2	I	1	0	772	0	poli_8sides 11_whiteLine3.jpg	MediumLong_e17_cut2_stereo_44KHz.wav
1	92	2	2	1	C	2	1	957	1	poli_8sides 4_whiteLine3.jpg	MediumLong_b10_cut2_L_stereo_44KHz.wav
1	93	3	3	2	I	1	0	1098	1	poli_8sides 11_whiteLine3.jpg	MediumLong_e19_stereo_44KHz.wav
1	94	2	1	0	C	1	1	757	1	poli_8sides 4_whiteLine3.jpg	Medium_e21_stereo_44KHz.wav
1	95	1	2	0	C	1	1	896	1	poli_8sides 10_whiteLine3.jpg	MediumLong_b10_cut2_L_stereo_44KHz.wav
1	96	4	4	2	I	1	0	572	0	poli_8sides 2_whiteLine3.jpg	MediumLong_e17_cut2_stereo_44KHz.wav
1	97	2	2	1	C	1	0	923	0	poli_8sides 4_whiteLine3.jpg	MediumLong_b10_cut2_L_stereo_44KHz.wav
1	98	4	4	2	I	1	0	550	0	poli_8sides 2_whiteLine3.jpg	MediumLong_e17_cut2_stereo_44KHz.wav
1	99	3	4	2	I	1	0	462	0	poli_8sides 11_whiteLine3.jpg	MediumLong_e17_cut2_stereo_44KHz.wav
1	100	1	2	0	C	1	1	546	1	poli_8sides 10_whiteLine3.jpg	MediumLong_b10_cut2_L_stereo_44KHz.wav
1	101	3	3	2	I	2	0	1271	0	poli_8sides 11_whiteLine3.jpg	MediumLong_e19_stereo_44KHz.wav
1	102	1	1	1	C	2	1	876	1	poli_8sides 10_whiteLine3.jpg	Medium_e21_stereo_44KHz.wav
1	103	4	3	2	I	2	0	749	0	poli_8sides 2_whiteLine3.jpg	MediumLong_e19_stereo_44KHz.wav
1	104	2	1	0	C	1	1	1027	1	poli_8sides 4_whiteLine3.jpg	Medium_e21_stereo_44KHz.wav
1	105	1	2	0	C	1	1	774	1	poli_8sides 10_whiteLine3.jpg	MediumLong_b10_cut2_L_stereo_44KHz.wav
1	106	3	3	2	I	2	0	1319	0	poli_8sides 11_whiteLine3.jpg	MediumLong_e19_stereo_44KHz.wav
1	107	4	3	2	I	2	0	920	0	poli_8sides 2_whiteLine3.jpg	MediumLong_e19_stereo_44KHz.wav
1	108	2	1	0	C	1	1	842	1	poli_8sides 4_whiteLine3.jpg	Medium_e21_stereo_44KHz.wav
1	109	3	4	2	I	1	0	662	0	poli_8sides 11_whiteLine3.jpg	MediumLong_e17_cut2_stereo_44KHz.wav
1	110	4	4	2	I	1	0	763	1	poli_8sides 2_whiteLine3.jpg	MediumLong_e17_cut2_stereo_44KHz.wav
1	111	2	2	1	C	2	1	1191	1	poli_8sides 4_whiteLine3.jpg	MediumLong_b10_cut2_L_stereo_44KHz.wav
1	112	1	1	1	C	2	1	820	1	poli_8sides 10_whiteLine3.jpg	Medium_e21_stereo_44KHz.wav
1	113	3	4	2	I	1	0	1016	1	poli_8sides 11_whiteLine3.jpg	MediumLong_e17_cut2_stereo_44KHz.wav
1	114	2	1	0	C	1	1	978	1	poli_8sides 4_whiteLine3.jpg	Medium_e21_stereo_44KHz.wav
1	115	1	1	1	C	2	1	728	1	poli_8sides 10_whiteLine3.jpg	Medium_e21_stereo_44KHz.wav
1	116	4	3	2	I	2	0	828	0	poli_8sides 2_whiteLine3.jpg	MediumLong_e19_stereo_44KHz.wav
1	117	3	3	2	I	2	0	838	0	poli_8sides 11_whiteLine3.jpg	MediumLong_e19_stereo_44KHz.wav
1	118	2	2	1	C	2	1	865	1	poli_8sides 4_whiteLine3.jpg	MediumLong_b10_cut2_L_stereo_44KHz.wav
1	119	4	4	2	I	1	0	650	1	poli_8sides 2_whiteLine3.jpg	MediumLong_e17_cut2_stereo_44KHz.wav
1	120	1	2	0	C	1	1	961	1	poli_8sides 10_whiteLine3.jpg	MediumLong_b10_cut2_L_stereo_44KHz.wav
1	121	2	2	1	C	2	1	1032	1	poli_8sides 4_whiteLine3.jpg	MediumLong_b10_cut2_L_stereo_44KHz.wav
1	122	3	4	2	I	1	0	1161	0	poli_8sides 11_whiteLine3.jpg	MediumLong_e17_cut2_stereo_44KHz.wav
1	123	4	3	2	I	2	0	1104	0	poli_8sides 2_whiteLine3.jpg	MediumLong_e19_stereo_44KHz.wav
1	124	1	2	0	C	1	1	748	1	poli_8sides 10_whiteLine3.jpg	MediumLong_b10_cut2_L_stereo_44KHz.wav
1	125	4	4	2	I	1	0	677	0	poli_8sides 2_whiteLine3.jpg	MediumLong_e17_cut2_stereo_44KHz.wav
1	126	1	1	1	C	2	1	813	1	poli_8sides 10_whiteLine3.jpg	Medium_e21_stereo_44KHz.wav
1	127	3	3	2	I	1	0	932	0	poli_8sides 11_whiteLine3.jpg	MediumLong_e19_stereo_44KHz.wav
1	128	2	1	0	C	1	1	809	1	poli_8sides 4_whiteLine3.jpg	Medium_e21_stereo_44KHz.wav
1	129	1	2	0	C	1	1	825	1	poli_8sides 10_whiteLine3.jpg	MediumLong_b10_cut2_L_stereo_44KHz.wav
1	130	3	3	2	I	2	0	924	0	poli_8sides 11_whiteLine3.jpg	MediumLong_e19_stereo_44KHz.wav
1	131	2	2	1	C	1	0	588	0	poli_8sides 4_whiteLine3.jpg	MediumLong_b10_cut2_L_stereo_44KHz.wav
1	132	4	4	2	I	1	0	614	0	poli_8sides 2_whiteLine3.jpg	MediumLong_e17_cut2_stereo_44KHz.wav
1	133	3	4	2	I	1	0	491	1	poli_8sides 11_whiteLine3.jpg	MediumLong_e17_cut2_stereo_44KHz.wav
1	134	2	1	0	C	1	1	764	1	poli_8sides 4_whiteLine3.jpg	Medium_e21_stereo_44KHz.wav
1	135	1	1	1	C	1	0	965	0	poli_8sides 10_whiteLine3.jpg	Medium_e21_stereo_44KHz.wav
1	136	4	3	2	I	2	0	1643	1	poli_8sides 2_whiteLine3.jpg	MediumLong_e19_stereo_44KHz.wav
1	137	2	1	0	C	1	1	724	1	poli_8sides 4_whiteLine3.jpg	Medium_e21_stereo_44KHz.wav
1	138	4	3	2	I	1	0	1222	0	poli_8sides 2_whiteLine3.jpg	MediumLong_e19_stereo_44KHz.wav
1	139	3	4	2	I	1	0	826	1	poli_8sides 11_whiteLine3.jpg	MediumLong_e17_cut2_stereo_44KHz.wav
1	140	1	1	1	C	1	0	539	0	poli_8sides 10_whiteLine3.jpg	Medium_e21_stereo_44KHz.wav
1	141	3	3	2	I	1	0	467	1	poli_8sides 11_whiteLine3.jpg	MediumLong_e19_stereo_44KHz.wav
1	142	2	2	1	C	2	1	1118	1	poli_8sides 4_whiteLine3.jpg	MediumLong_b10_cut2_L_stereo_44KHz.wav
1	143	4	4	2	I	1	0	829	1	poli_8sides 2_whiteLine3.jpg	MediumLong_e17_cut2_stereo_44KHz.wav
1	144	1	2	0	C	1	1	848	1	poli_8sides 10_whiteLine3.jpg	MediumLong_b10_cut2_L_stereo_44KHz.wav
1	145	4	3	2	I	2	0	1046	0	poli_8sides 2_whiteLine3.jpg	MediumLong_e19_stereo_44KHz.wav
1	146	3	3	2	I	2	0	789	1	poli_8sides 11_whiteLine3.jpg	MediumLong_e19_stereo_44KHz.wav
1	147	2	1	0	C	1	1	731	1	poli_8sides 4_whiteLine3.jpg	Medium_e21_stereo_44KHz.wav
1	148	1	1	1	C	2	1	776	1	poli_8sides 10_whiteLine3.jpg	Medium_e21_stereo_44KHz.wav
1	149	4	4	2	I	1	0	833	1	poli_8sides 2_whiteLine3.jpg	MediumLong_e17_cut2_stereo_44KHz.wav
1	150	1	2	0	C	2	0	941	0	poli_8sides 10_whiteLine3.jpg	MediumLong_b10_cut2_L_stereo_44KHz.wav
1	151	2	2	1	C	1	0	1296	0	poli_8sides 4_whiteLine3.jpg	MediumLong_b10_cut2_L_stereo_44KHz.wav
1	152	3	4	2	I	1	0	777	1	poli_8sides 11_whiteLine3.jpg	MediumLong_e17_cut2_stereo_44KHz.wav
1	153	2	2	1	C	2	1	1112	1	poli_8sides 4_whiteLine3.jpg	MediumLong_b10_cut2_L_stereo_44KHz.wav
1	154	4	3	2	I	2	0	908	1	poli_8sides 2_whiteLine3.jpg	MediumLong_e19_stereo_44KHz.wav
1	155	3	4	2	I	1	0	667	1	poli_8sides 11_whiteLine3.jpg	MediumLong_e17_cut2_stereo_44KHz.wav
1	156	1	1	1	C	2	1	905	1	poli_8sides 10_whiteLine3.jpg	Medium_e21_stereo_44KHz.wav
1	157	3	3	2	I	2	0	1296	1	poli_8sides 11_whiteLine3.jpg	MediumLong_e19_stereo_44KHz.wav
1	158	4	4	2	I	1	0	1019	1	poli_8sides 2_whiteLine3.jpg	MediumLong_e17_cut2_stereo_44KHz.wav
1	159	2	1	0	C	1	1	898	1	poli_8sides 4_whiteLine3.jpg	Medium_e21_stereo_44KHz.wav
1	160	1	2	0	C	1	1	1072	1	poli_8sides 10_whiteLine3.jpg	MediumLong_b10_cut2_L_stereo_44KHz.wav
1	161	3	4	2	I	1	0	861	0	poli_8sides 11_whiteLine3.jpg	MediumLong_e17_cut2_stereo_44KHz.wav
1	162	1	2	0	C	1	1	718	1	poli_8sides 10_whiteLine3.jpg	MediumLong_b10_cut2_L_stereo_44KHz.wav
1	163	4	3	2	I	2	0	1272	0	poli_8sides 2_whiteLine3.jpg	MediumLong_e19_stereo_44KHz.wav
1	164	2	1	0	C	1	1	846	1	poli_8sides 4_whiteLine3.jpg	Medium_e21_stereo_44KHz.wav
1	165	1	1	1	C	2	1	1633	1	poli_8sides 10_whiteLine3.jpg	Medium_e21_stereo_44KHz.wav
1	166	2	2	1	C	1	0	546	0	poli_8sides 4_whiteLine3.jpg	MediumLong_b10_cut2_L_stereo_44KHz.wav
1	167	3	3	2	I	2	0	913	0	poli_8sides 11_whiteLine3.jpg	MediumLong_e19_stereo_44KHz.wav
1	168	4	4	2	I	1	0	1110	0	poli_8sides 2_whiteLine3.jpg	MediumLong_e17_cut2_stereo_44KHz.wav
1	169	2	1	0	C	1	1	680	1	poli_8sides 4_whiteLine3.jpg	Medium_e21_stereo_44KHz.wav
1	170	1	2	0	C	1	1	1045	1	poli_8sides 10_whiteLine3.jpg	MediumLong_b10_cut2_L_stereo_44KHz.wav
1	171	4	3	2	I	2	0	1234	0	poli_8sides 2_whiteLine3.jpg	MediumLong_e19_stereo_44KHz.wav
1	172	3	3	2	I	2	0	1316	1	poli_8sides 11_whiteLine3.jpg	MediumLong_e19_stereo_44KHz.wav
1	173	1	1	1	C	2	1	1032	1	poli_8sides 10_whiteLine3.jpg	Medium_e21_stereo_44KHz.wav
1	174	4	4	2	I	1	0	1103	0	poli_8sides 2_whiteLine3.jpg	MediumLong_e17_cut2_stereo_44KHz.wav
1	175	2	2	1	C	1	0	624	0	poli_8sides 4_whiteLine3.jpg	MediumLong_b10_cut2_L_stereo_44KHz.wav
1	176	3	4	2	I	1	0	765	0	poli_8sides 11_whiteLine3.jpg	MediumLong_e17_cut2_stereo_44KHz.wav
1	177	4	4	2	I	2	0	1130	0	poli_8sides 2_whiteLine3.jpg	MediumLong_e17_cut2_stereo_44KHz.wav
1	178	1	2	0	C	1	1	1846	1	poli_8sides 10_whiteLine3.jpg	MediumLong_b10_cut2_L_stereo_44KHz.wav
1	179	2	1	0	C	1	1	591	1	poli_8sides 4_whiteLine3.jpg	Medium_e21_stereo_44KHz.wav
1	180	3	4	2	I	1	0	1025	1	poli_8sides 11_whiteLine3.jpg	MediumLong_e17_cut2_stereo_44KHz.wav
1	181	2	2	1	C	2	1	1494	1	poli_8sides 4_whiteLine3.jpg	MediumLong_b10_cut2_L_stereo_44KHz.wav
1	182	3	3	2	I	2	0	806	0	poli_8sides 11_whiteLine3.jpg	MediumLong_e19_stereo_44KHz.wav
1	183	4	3	2	I	2	0	1003	0	poli_8sides 2_whiteLine3.jpg	MediumLong_e19_stereo_44KHz.wav
1	184	1	1	1	C	2	1	1049	1	poli_8sides 10_whiteLine3.jpg	Medium_e21_stereo_44KHz.wav
1	185	3	4	2	I	1	0	971	1	poli_8sides 11_whiteLine3.jpg	MediumLong_e17_cut2_stereo_44KHz.wav
1	186	4	4	2	I	1	0	1294	0	poli_8sides 2_whiteLine3.jpg	MediumLong_e17_cut2_stereo_44KHz.wav
1	187	2	2	1	C	2	1	1047	1	poli_8sides 4_whiteLine3.jpg	MediumLong_b10_cut2_L_stereo_44KHz.wav
1	188	1	2	0	C	1	1	1693	1	poli_8sides 10_whiteLine3.jpg	MediumLong_b10_cut2_L_stereo_44KHz.wav
1	189	3	3	2	I	2	0	724	0	poli_8sides 11_whiteLine3.jpg	MediumLong_e19_stereo_44KHz.wav
1	190	4	3	2	I	1	0	1301	1	poli_8sides 2_whiteLine3.jpg	MediumLong_e19_stereo_44KHz.wav
1	191	1	1	1	C	1	0	891	0	poli_8sides 10_whiteLine3.jpg	Medium_e21_stereo_44KHz.wav
1	192	2	1	0	C	1	1	816	1	poli_8sides 4_whiteLine3.jpg	Medium_e21_stereo_44KHz.wav
1	193	3	4	2	I	1	0	929	1	poli_8sides 11_whiteLine3.jpg	MediumLong_e17_cut2_stereo_44KHz.wav
1	194	2	1	0	C	1	1	823	1	poli_8sides 4_whiteLine3.jpg	Medium_e21_stereo_44KHz.wav
1	195	1	2	0	C	1	1	1741	1	poli_8sides 10_whiteLine3.jpg	MediumLong_b10_cut2_L_stereo_44KHz.wav
1	196	4	4	2	I	1	0	1184	0	poli_8sides 2_whiteLine3.jpg	MediumLong_e17_cut2_stereo_44KHz.wav
1	197	1	1	1	C	1	0	755	0	poli_8sides 10_whiteLine3.jpg	Medium_e21_stereo_44KHz.wav
1	198	3	3	2	I	1	0	1054	0	poli_8sides 11_whiteLine3.jpg	MediumLong_e19_stereo_44KHz.wav
1	199	4	3	2	I	1	0	833	1	poli_8sides 2_whiteLine3.jpg	MediumLong_e19_stereo_44KHz.wav
1	200	2	2	1	C	2	1	1167	1	poli_8sides 4_whiteLine3.jpg	MediumLong_b10_cut2_L_stereo_44KHz.wav
2	1	4	4	2	I	0	0	0	0	poli_8sides 18_whiteLine3.jpg	Medium_e13_stereo_44KHz.wav
2	2	1	2	0	C	2	0	631	0	poli_8sides 13_whiteLine3.jpg	MediumLong_e04_stereo_44KHz.wav
2	3	3	3	2	I	1	0	716	0	poli_8sides 8_whiteLine3.jpg	Medium_e01_cut1_stereo_44KHz.wav
2	4	2	1	0	C	1	1	653	1	poli_8sides 1_whiteLine3.jpg	Medium_e26_stereo_44KHz.wav
2	5	4	3	2	I	1	0	797	0	poli_8sides 18_whiteLine3.jpg	Medium_e01_cut1_stereo_44KHz.wav
2	6	3	4	2	I	1	0	767	1	poli_8sides 8_whiteLine3.jpg	Medium_e13_stereo_44KHz.wav
2	7	2	2	1	C	1	0	894	0	poli_8sides 1_whiteLine3.jpg	MediumLong_e04_stereo_44KHz.wav
2	8	1	1	1	C	1	0	841	0	poli_8sides 13_whiteLine3.jpg	Medium_e26_stereo_44KHz.wav
2	9	3	4	2	I	1	0	1063	1	poli_8sides 8_whiteLine3.jpg	Medium_e13_stereo_44KHz.wav
2	10	2	2	1	C	2	1	854	1	poli_8sides 1_whiteLine3.jpg	MediumLong_e04_stereo_44KHz.wav
2	11	1	2	0	C	1	1	1437	1	poli_8sides 13_whiteLine3.jpg	MediumLong_e04_stereo_44KHz.wav
2	12	4	3	2	I	1	0	989	1	poli_8sides 18_whiteLine3.jpg	Medium_e01_cut1_stereo_44KHz.wav
2	13	3	3	2	I	2	0	791	0	poli_8sides 8_whiteLine3.jpg	Medium_e01_cut1_stereo_44KHz.wav
2	14	1	1	1	C	2	1	946	1	poli_8sides 13_whiteLine3.jpg	Medium_e26_stereo_44KHz.wav
2	15	2	1	0	C	1	1	715	1	poli_8sides 1_whiteLine3.jpg	Medium_e26_stereo_44KHz.wav
2	16	4	4	2	I	2	0	738	1	poli_8sides 18_whiteLine3.jpg	Medium_e13_stereo_44KHz.wav
2	17	1	1	1	C	2	1	880	1	poli_8sides 13_whiteLine3.jpg	Medium_e26_stereo_44KHz.wav
2	18	3	4	2	I	1	0	746	0	poli_8sides 8_whiteLine3.jpg	Medium_e13_stereo_44KHz.wav
2	19	4	3	2	I	2	0	671	1	poli_8sides 18_whiteLine3.jpg	Medium_e01_cut1_stereo_44KHz.wav
2	20	2	2	1	C	2	1	1120	1	poli_8sides 1_whiteLine3.jpg	MediumLong_e04_stereo_44KHz.wav
2	21	4	4	2	I	2	0	736	0	poli_8sides 18_whiteLine3.jpg	Medium_e13_stereo_44KHz.wav
2	22	2	1	0	C	2	0	813	0	poli_8sides 1_whiteLine3.jpg	Medium_e26_stereo_44KHz.wav
2	23	1	2	0	C	2	0	1402	0	poli_8sides 13_whiteLine3.jpg	MediumLong_e04_stereo_44KHz.wav
2	24	3	3	2	I	2	0	836	1	poli_8sides 8_whiteLine3.jpg	Medium_e01_cut1_stereo_44KHz.wav
2	25	2	2	1	C	2	1	956	1	poli_8sides 1_whiteLine3.jpg	MediumLong_e04_stereo_44KHz.wav
2	26	3	4	2	I	1	0	639	0	poli_8sides 8_whiteLine3.jpg	Medium_e13_stereo_44KHz.wav
2	27	4	3	2	I	1	0	1118	1	poli_8sides 18_whiteLine3.jpg	Medium_e01_cut1_stereo_44KHz.wav
2	28	1	2	0	C	1	1	1122	1	poli_8sides 13_whiteLine3.jpg	MediumLong_e04_stereo_44KHz.wav
2	29	3	3	2	I	2	0	891	1	poli_8sides 8_whiteLine3.jpg	Medium_e01_cut1_stereo_44KHz.wav
2	30	2	1	0	C	1	1	838	1	poli_8sides 1_whiteLine3.jpg	Medium_e26_stereo_44KHz.wav
2	31	1	1	1	C	1	0	869	0	poli_8sides 13_whiteLine3.jpg	Medium_e26_stereo_44KHz.wav
2	32	4	4	2	I	2	0	916	1	poli_8sides 18_whiteLine3.jpg	Medium_e13_stereo_44KHz.wav
2	33	1	2	0	C	1	1	1061	1	poli_8sides 13_whiteLine3.jpg	MediumLong_e04_stereo_44KHz.wav
2	34	4	4	2	I	2	0	865	1	poli_8sides 18_whiteLine3.jpg	Medium_e13_stereo_44KHz.wav
2	35	3	3	2	I	2	0	917	1	poli_8sides 8_whiteLine3.jpg	Medium_e01_cut1_stereo_44KHz.wav
2	36	2	2	1	C	1	0	729	0	poli_8sides 1_whiteLine3.jpg	MediumLong_e04_stereo_44KHz.wav
2	37	3	4	2	I	1	0	929	0	poli_8sides 8_whiteLine3.jpg	Medium_e13_stereo_44KHz.wav
2	38	2	1	0	C	1	1	907	1	poli_8sides 1_whiteLine3.jpg	Medium_e26_stereo_44KHz.wav
2	39	4	3	2	I	1	0	1041	0	poli_8sides 18_whiteLine3.jpg	Medium_e01_cut1_stereo_44KHz.wav
2	40	1	1	1	C	1	0	1265	0	poli_8sides 13_whiteLine3.jpg	Medium_e26_stereo_44KHz.wav
2	41	4	3	2	I	1	0	855	0	poli_8sides 18_whiteLine3.jpg	Medium_e01_cut1_stereo_44KHz.wav
2	42	1	2	0	C	2	0	929	0	poli_8sides 13_whiteLine3.jpg	MediumLong_e04_stereo_44KHz.wav
2	43	2	1	0	C	1	1	1198	1	poli_8sides 1_whiteLine3.jpg	Medium_e26_stereo_44KHz.wav
2	44	3	4	2	I	1	0	866	0	poli_8sides 8_whiteLine3.jpg	Medium_e13_stereo_44KHz.wav
2	45	1	1	1	C	1	0	741	0	poli_8sides 13_whiteLine3.jpg	Medium_e26_stereo_44KHz.wav
2	46	4	4	2	I	2	0	1018	1	poli_8sides 18_whiteLine3.jpg	Medium_e13_stereo_44KHz.wav
2	47	3	3	2	I	2	0	970	0	poli_8sides 8_whiteLine3.jpg	Medium_e01_cut1_stereo_44KHz.wav
2	48	2	2	1	C	2	1	952	1	poli_8sides 1_whiteLine3.jpg	MediumLong_e04_stereo_44KHz.wav
2	49	3	4	2	I	2	0	749	1	poli_8sides 8_whiteLine3.jpg	Medium_e13_stereo_44KHz.wav
2	50	4	4	2	I	2	0	774	0	poli_8sides 18_whiteLine3.jpg	Medium_e13_stereo_44KHz.wav
2	51	2	2	1	C	1	0	1943	0	poli_8sides 1_whiteLine3.jpg	MediumLong_e04_stereo_44KHz.wav
2	52	1	1	1	C	1	0	1034	0	poli_8sides 13_whiteLine3.jpg	Medium_e26_stereo_44KHz.wav
2	53	2	1	0	C	1	1	818	1	poli_8sides 1_whiteLine3.jpg	Medium_e26_stereo_44KHz.wav
2	54	3	3	2	I	1	0	1354	1	poli_8sides 8_whiteLine3.jpg	Medium_e01_cut1_stereo_44KHz.wav
2	55	1	2	0	C	1	1	1080	1	poli_8sides 13_whiteLine3.jpg	MediumLong_e04_stereo_44KHz.wav
2	56	4	3	2	I	1	0	906	1	poli_8sides 18_whiteLine3.jpg	Medium_e01_cut1_stereo_44KHz.wav
2	57	3	3	2	I	1	0	895	1	poli_8sides 8_whiteLine3.jpg	Medium_e01_cut1_stereo_44KHz.wav
2	58	1	1	1	C	1	0	1135	0	poli_8sides 13_whiteLine3.jpg	Medium_e26_stereo_44KHz.wav
2	59	4	4	2	I	2	0	762	0	poli_8sides 18_whiteLine3.jpg	Medium_e13_stereo_44KHz.wav
2	60	2	2	1	C	1	0	1927	0	poli_8sides 1_whiteLine3.jpg	MediumLong_e04_stereo_44KHz.wav
2	61	3	4	2	I	2	0	944	1	poli_8sides 8_whiteLine3.jpg	Medium_e13_stereo_44KHz.wav
2	62	2	1	0	C	1	1	728	1	poli_8sides 1_whiteLine3.jpg	Medium_e26_stereo_44KHz.wav
2	63	4	3	2	I	1	0	935	0	poli_8sides 18_whiteLine3.jpg	Medium_e01_cut1_stereo_44KHz.wav
2	64	1	2	0	C	1	1	1002	1	poli_8sides 13_whiteLine3.jpg	MediumLong_e04_stereo_44KHz.wav
2	65	4	4	2	I	1	0	1107	1	poli_8sides 18_whiteLine3.jpg	Medium_e13_stereo_44KHz.wav
2	66	1	1	1	C	1	0	864	0	poli_8sides 13_whiteLine3.jpg	Medium_e26_stereo_44KHz.wav
2	67	3	3	2	I	1	0	870	0	poli_8sides 8_whiteLine3.jpg	Medium_e01_cut1_stereo_44KHz.wav
2	68	2	1	0	C	1	1	839	1	poli_8sides 1_whiteLine3.jpg	Medium_e26_stereo_44KHz.wav
2	69	3	4	2	I	2	0	737	1	poli_8sides 8_whiteLine3.jpg	Medium_e13_stereo_44KHz.wav
2	70	4	3	2	I	2	0	1115	1	poli_8sides 18_whiteLine3.jpg	Medium_e01_cut1_stereo_44KHz.wav
2	71	1	2	0	C	2	0	1045	0	poli_8sides 13_whiteLine3.jpg	MediumLong_e04_stereo_44KHz.wav
2	72	2	2	1	C	2	1	1002	1	poli_8sides 1_whiteLine3.jpg	MediumLong_e04_stereo_44KHz.wav
2	73	4	3	2	I	2	0	817	0	poli_8sides 18_whiteLine3.jpg	Medium_e01_cut1_stereo_44KHz.wav
2	74	2	1	0	C	1	1	1517	1	poli_8sides 1_whiteLine3.jpg	Medium_e26_stereo_44KHz.wav
2	75	3	4	2	I	2	0	706	0	poli_8sides 8_whiteLine3.jpg	Medium_e13_stereo_44KHz.wav
2	76	1	1	1	C	1	0	1064	0	poli_8sides 13_whiteLine3.jpg	Medium_e26_stereo_44KHz.wav
2	77	2	2	1	C	2	1	1092	1	poli_8sides 1_whiteLine3.jpg	MediumLong_e04_stereo_44KHz.wav
2	78	4	4	2	I	2	0	927	1	poli_8sides 18_whiteLine3.jpg	Medium_e13_stereo_44KHz.wav
2	79	1	2	0	C	1	1	914	1	poli_8sides 13_whiteLine3.jpg	MediumLong_e04_stereo_44KHz.wav
2	80	3	3	2	I	2	0	888	1	poli_8sides 8_whiteLine3.jpg	Medium_e01_cut1_stereo_44KHz.wav
2	81	1	1	1	C	1	0	911	0	poli_8sides 13_whiteLine3.jpg	Medium_e26_stereo_44KHz.wav
2	82	2	2	1	C	1	0	1869	0	poli_8sides 1_whiteLine3.jpg	MediumLong_e04_stereo_44KHz.wav
2	83	4	4	2	I	2	0	1128	1	poli_8sides 18_whiteLine3.jpg	Medium_e13_stereo_44KHz.wav
2	84	3	3	2	I	2	0	711	1	poli_8sides 8_whiteLine3.jpg	Medium_e01_cut1_stereo_44KHz.wav
2	85	4	3	2	I	1	0	784	1	poli_8sides 18_whiteLine3.jpg	Medium_e01_cut1_stereo_44KHz.wav
2	86	2	1	0	C	1	1	1184	1	poli_8sides 1_whiteLine3.jpg	Medium_e26_stereo_44KHz.wav
2	87	1	2	0	C	1	1	932	1	poli_8sides 13_whiteLine3.jpg	MediumLong_e04_stereo_44KHz.wav
2	88	3	4	2	I	1	0	721	0	poli_8sides 8_whiteLine3.jpg	Medium_e13_stereo_44KHz.wav
2	89	2	2	1	C	2	1	1160	1	poli_8sides 1_whiteLine3.jpg	MediumLong_e04_stereo_44KHz.wav
2	90	3	3	2	I	2	0	909	0	poli_8sides 8_whiteLine3.jpg	Medium_e01_cut1_stereo_44KHz.wav
2	91	4	4	2	I	1	0	681	0	poli_8sides 18_whiteLine3.jpg	Medium_e13_stereo_44KHz.wav
2	92	1	2	0	C	1	1	676	1	poli_8sides 13_whiteLine3.jpg	MediumLong_e04_stereo_44KHz.wav
2	93	4	3	2	I	1	0	1188	0	poli_8sides 18_whiteLine3.jpg	Medium_e01_cut1_stereo_44KHz.wav
2	94	2	1	0	C	1	1	887	1	poli_8sides 1_whiteLine3.jpg	Medium_e26_stereo_44KHz.wav
2	95	3	4	2	I	2	0	1094	1	poli_8sides 8_whiteLine3.jpg	Medium_e13_stereo_44KHz.wav
2	96	1	1	1	C	2	1	1388	1	poli_8sides 13_whiteLine3.jpg	Medium_e26_stereo_44KHz.wav
2	97	2	2	1	C	2	1	966	1	poli_8sides 1_whiteLine3.jpg	MediumLong_e04_stereo_44KHz.wav
2	98	4	4	2	I	1	0	990	0	poli_8sides 18_whiteLine3.jpg	Medium_e13_stereo_44KHz.wav
2	99	1	2	0	C	1	1	622	1	poli_8sides 13_whiteLine3.jpg	MediumLong_e04_stereo_44KHz.wav
2	100	3	3	2	I	1	0	907	0	poli_8sides 8_whiteLine3.jpg	Medium_e01_cut1_stereo_44KHz.wav
2	101	1	1	1	C	1	0	687	0	poli_8sides 13_whiteLine3.jpg	Medium_e26_stereo_44KHz.wav
2	102	2	1	0	C	1	1	1181	1	poli_8sides 1_whiteLine3.jpg	Medium_e26_stereo_44KHz.wav
2	103	3	4	2	I	2	0	1012	0	poli_8sides 8_whiteLine3.jpg	Medium_e13_stereo_44KHz.wav
2	104	4	3	2	I	2	0	1507	1	poli_8sides 18_whiteLine3.jpg	Medium_e01_cut1_stereo_44KHz.wav
2	105	1	1	1	C	2	1	1080	1	poli_8sides 13_whiteLine3.jpg	Medium_e26_stereo_44KHz.wav
2	106	3	3	2	I	2	0	1193	1	poli_8sides 8_whiteLine3.jpg	Medium_e01_cut1_stereo_44KHz.wav
2	107	4	3	2	I	1	0	1398	1	poli_8sides 18_whiteLine3.jpg	Medium_e01_cut1_stereo_44KHz.wav
2	108	2	1	0	C	1	1	969	1	poli_8sides 1_whiteLine3.jpg	Medium_e26_stereo_44KHz.wav
2	109	3	4	2	I	1	0	956	0	poli_8sides 8_whiteLine3.jpg	Medium_e13_stereo_44KHz.wav
2	110	1	2	0	C	1	1	754	1	poli_8sides 13_whiteLine3.jpg	MediumLong_e04_stereo_44KHz.wav
2	111	4	4	2	I	2	0	802	1	poli_8sides 18_whiteLine3.jpg	Medium_e13_stereo_44KHz.wav
2	112	2	2	1	C	2	1	941	1	poli_8sides 1_whiteLine3.jpg	MediumLong_e04_stereo_44KHz.wav
2	113	4	4	2	I	2	0	845	1	poli_8sides 18_whiteLine3.jpg	Medium_e13_stereo_44KHz.wav
2	114	1	1	1	C	2	1	1136	1	poli_8sides 13_whiteLine3.jpg	Medium_e26_stereo_44KHz.wav
2	115	3	3	2	I	2	0	1349	0	poli_8sides 8_whiteLine3.jpg	Medium_e01_cut1_stereo_44KHz.wav
2	116	2	2	1	C	2	1	1138	1	poli_8sides 1_whiteLine3.jpg	MediumLong_e04_stereo_44KHz.wav
2	117	4	3	2	I	1	0	1103	1	poli_8sides 18_whiteLine3.jpg	Medium_e01_cut1_stereo_44KHz.wav
2	118	1	2	0	C	2	0	1183	0	poli_8sides 13_whiteLine3.jpg	MediumLong_e04_stereo_44KHz.wav
2	119	3	4	2	I	1	0	841	1	poli_8sides 8_whiteLine3.jpg	Medium_e13_stereo_44KHz.wav
2	120	2	1	0	C	1	1	891	1	poli_8sides 1_whiteLine3.jpg	Medium_e26_stereo_44KHz.wav
2	121	3	3	2	I	2	0	927	0	poli_8sides 8_whiteLine3.jpg	Medium_e01_cut1_stereo_44KHz.wav
2	122	1	2	0	C	1	1	814	1	poli_8sides 13_whiteLine3.jpg	MediumLong_e04_stereo_44KHz.wav
2	123	2	1	0	C	1	1	702	1	poli_8sides 1_whiteLine3.jpg	Medium_e26_stereo_44KHz.wav
2	124	4	4	2	I	2	0	846	0	poli_8sides 18_whiteLine3.jpg	Medium_e13_stereo_44KHz.wav
2	125	1	1	1	C	2	1	1369	1	poli_8sides 13_whiteLine3.jpg	Medium_e26_stereo_44KHz.wav
2	126	2	2	1	C	2	1	982	1	poli_8sides 1_whiteLine3.jpg	MediumLong_e04_stereo_44KHz.wav
2	127	4	3	2	I	1	0	829	0	poli_8sides 18_whiteLine3.jpg	Medium_e01_cut1_stereo_44KHz.wav
2	128	3	4	2	I	1	0	981	0	poli_8sides 8_whiteLine3.jpg	Medium_e13_stereo_44KHz.wav
2	129	4	4	2	I	1	0	1662	0	poli_8sides 18_whiteLine3.jpg	Medium_e13_stereo_44KHz.wav
2	130	2	2	1	C	1	0	1235	0	poli_8sides 1_whiteLine3.jpg	MediumLong_e04_stereo_44KHz.wav
2	131	1	2	0	C	1	1	839	1	poli_8sides 13_whiteLine3.jpg	MediumLong_e04_stereo_44KHz.wav
2	132	3	3	2	I	2	0	1208	0	poli_8sides 8_whiteLine3.jpg	Medium_e01_cut1_stereo_44KHz.wav
2	133	4	3	2	I	1	0	676	0	poli_8sides 18_whiteLine3.jpg	Medium_e01_cut1_stereo_44KHz.wav
2	134	3	4	2	I	1	0	1000	1	poli_8sides 8_whiteLine3.jpg	Medium_e13_stereo_44KHz.wav
2	135	1	1	1	C	2	1	1369	1	poli_8sides 13_whiteLine3.jpg	Medium_e26_stereo_44KHz.wav
2	136	2	1	0	C	1	1	794	1	poli_8sides 1_whiteLine3.jpg	Medium_e26_stereo_44KHz.wav
2	137	4	4	2	I	2	0	835	1	poli_8sides 18_whiteLine3.jpg	Medium_e13_stereo_44KHz.wav
2	138	1	2	0	C	2	0	1149	0	poli_8sides 13_whiteLine3.jpg	MediumLong_e04_stereo_44KHz.wav
2	139	3	4	2	I	1	0	788	1	poli_8sides 8_whiteLine3.jpg	Medium_e13_stereo_44KHz.wav
2	140	2	1	0	C	1	1	743	1	poli_8sides 1_whiteLine3.jpg	Medium_e26_stereo_44KHz.wav
2	141	1	1	1	C	2	1	1147	1	poli_8sides 13_whiteLine3.jpg	Medium_e26_stereo_44KHz.wav
2	142	2	2	1	C	2	1	898	1	poli_8sides 1_whiteLine3.jpg	MediumLong_e04_stereo_44KHz.wav
2	143	4	3	2	I	2	0	1046	0	poli_8sides 18_whiteLine3.jpg	Medium_e01_cut1_stereo_44KHz.wav
2	144	3	3	2	I	2	0	762	1	poli_8sides 8_whiteLine3.jpg	Medium_e01_cut1_stereo_44KHz.wav
2	145	1	2	0	C	1	1	737	1	poli_8sides 13_whiteLine3.jpg	MediumLong_e04_stereo_44KHz.wav
2	146	4	3	2	I	1	0	1351	0	poli_8sides 18_whiteLine3.jpg	Medium_e01_cut1_stereo_44KHz.wav
2	147	2	1	0	C	1	1	869	1	poli_8sides 1_whiteLine3.jpg	Medium_e26_stereo_44KHz.wav
2	148	3	4	2	I	1	0	829	1	poli_8sides 8_whiteLine3.jpg	Medium_e13_stereo_44KHz.wav
2	149	2	2	1	C	2	1	1480	1	poli_8sides 1_whiteLine3.jpg	MediumLong_e04_stereo_44KHz.wav
2	150	3	3	2	I	2	0	922	0	poli_8sides 8_whiteLine3.jpg	Medium_e01_cut1_stereo_44KHz.wav
2	151	1	1	1	C	2	1	1119	1	poli_8sides 13_whiteLine3.jpg	Medium_e26_stereo_44KHz.wav
2	152	4	4	2	I	2	0	893	0	poli_8sides 18_whiteLine3.jpg	Medium_e13_stereo_44KHz.wav
2	153	1	2	0	C	1	1	673	1	poli_8sides 13_whiteLine3.jpg	MediumLong_e04_stereo_44KHz.wav
2	154	4	3	2	I	2	0	1481	1	poli_8sides 18_whiteLine3.jpg	Medium_e01_cut1_stereo_44KHz.wav
2	155	2	1	0	C	1	1	819	1	poli_8sides 1_whiteLine3.jpg	Medium_e26_stereo_44KHz.wav
2	156	3	4	2	I	1	0	894	1	poli_8sides 8_whiteLine3.jpg	Medium_e13_stereo_44KHz.wav
2	157	4	4	2	I	1	0	1179	0	poli_8sides 18_whiteLine3.jpg	Medium_e13_stereo_44KHz.wav
2	158	2	2	1	C	2	1	1005	1	poli_8sides 1_whiteLine3.jpg	MediumLong_e04_stereo_44KHz.wav
2	159	3	3	2	I	1	0	1237	1	poli_8sides 8_whiteLine3.jpg	Medium_e01_cut1_stereo_44KHz.wav
2	160	1	1	1	C	2	1	862	1	poli_8sides 13_whiteLine3.jpg	Medium_e26_stereo_44KHz.wav
2	161	4	3	2	I	1	0	1351	1	poli_8sides 18_whiteLine3.jpg	Medium_e01_cut1_stereo_44KHz.wav
2	162	1	2	0	C	1	1	961	1	poli_8sides 13_whiteLine3.jpg	MediumLong_e04_stereo_44KHz.wav
2	163	2	2	1	C	2	1	854	1	poli_8sides 1_whiteLine3.jpg	MediumLong_e04_stereo_44KHz.wav
2	164	3	3	2	I	1	0	1064	0	poli_8sides 8_whiteLine3.jpg	Medium_e01_cut1_stereo_44KHz.wav
2	165	4	4	2	I	1	0	1294	1	poli_8sides 18_whiteLine3.jpg	Medium_e13_stereo_44KHz.wav
2	166	3	4	2	I	1	0	840	0	poli_8sides 8_whiteLine3.jpg	Medium_e13_stereo_44KHz.wav
2	167	2	1	0	C	1	1	1302	1	poli_8sides 1_whiteLine3.jpg	Medium_e26_stereo_44KHz.wav
2	168	1	1	1	C	2	1	1057	1	poli_8sides 13_whiteLine3.jpg	Medium_e26_stereo_44KHz.wav
2	169	3	3	2	I	2	0	963	0	poli_8sides 8_whiteLine3.jpg	Medium_e01_cut1_stereo_44KHz.wav
2	170	4	4	2	I	1	0	1053	0	poli_8sides 18_whiteLine3.jpg	Medium_e13_stereo_44KHz.wav
2	171	1	2	0	C	1	1	1159	1	poli_8sides 13_whiteLine3.jpg	MediumLong_e04_stereo_44KHz.wav
2	172	2	2	1	C	2	1	866	1	poli_8sides 1_whiteLine3.jpg	MediumLong_e04_stereo_44KHz.wav
2	173	4	3	2	I	1	0	1252	1	poli_8sides 18_whiteLine3.jpg	Medium_e01_cut1_stereo_44KHz.wav
2	174	3	4	2	I	1	0	860	1	poli_8sides 8_whiteLine3.jpg	Medium_e13_stereo_44KHz.wav
2	175	1	1	1	C	2	1	930	1	poli_8sides 13_whiteLine3.jpg	Medium_e26_stereo_44KHz.wav
2	176	2	1	0	C	1	1	907	1	poli_8sides 1_whiteLine3.jpg	Medium_e26_stereo_44KHz.wav
2	177	3	4	2	I	1	0	868	0	poli_8sides 8_whiteLine3.jpg	Medium_e13_stereo_44KHz.wav
2	178	1	1	1	C	2	1	1111	1	poli_8sides 13_whiteLine3.jpg	Medium_e26_stereo_44KHz.wav
2	179	2	1	0	C	1	1	1314	1	poli_8sides 1_whiteLine3.jpg	Medium_e26_stereo_44KHz.wav
2	180	4	3	2	I	1	0	1594	0	poli_8sides 18_whiteLine3.jpg	Medium_e01_cut1_stereo_44KHz.wav
2	181	2	2	1	C	2	1	1197	1	poli_8sides 1_whiteLine3.jpg	MediumLong_e04_stereo_44KHz.wav
2	182	4	4	2	I	1	0	913	0	poli_8sides 18_whiteLine3.jpg	Medium_e13_stereo_44KHz.wav
2	183	3	3	2	I	1	0	1124	1	poli_8sides 8_whiteLine3.jpg	Medium_e01_cut1_stereo_44KHz.wav
2	184	1	2	0	C	1	1	633	1	poli_8sides 13_whiteLine3.jpg	MediumLong_e04_stereo_44KHz.wav
2	185	3	4	2	I	1	0	1099	1	poli_8sides 8_whiteLine3.jpg	Medium_e13_stereo_44KHz.wav
2	186	4	3	2	I	1	0	1108	1	poli_8sides 18_whiteLine3.jpg	Medium_e01_cut1_stereo_44KHz.wav
2	187	2	2	1	C	2	1	775	1	poli_8sides 1_whiteLine3.jpg	MediumLong_e04_stereo_44KHz.wav
2	188	1	2	0	C	1	1	1074	1	poli_8sides 13_whiteLine3.jpg	MediumLong_e04_stereo_44KHz.wav
2	189	2	1	0	C	1	1	1140	1	poli_8sides 1_whiteLine3.jpg	Medium_e26_stereo_44KHz.wav
2	190	1	1	1	C	2	1	960	1	poli_8sides 13_whiteLine3.jpg	Medium_e26_stereo_44KHz.wav
2	191	3	3	2	I	2	0	1189	0	poli_8sides 8_whiteLine3.jpg	Medium_e01_cut1_stereo_44KHz.wav
2	192	4	4	2	I	2	0	836	0	poli_8sides 18_whiteLine3.jpg	Medium_e13_stereo_44KHz.wav
2	193	1	2	0	C	1	1	1198	1	poli_8sides 13_whiteLine3.jpg	MediumLong_e04_stereo_44KHz.wav
2	194	2	2	1	C	2	1	1035	1	poli_8sides 1_whiteLine3.jpg	MediumLong_e04_stereo_44KHz.wav
2	195	3	3	2	I	1	0	1111	1	poli_8sides 8_whiteLine3.jpg	Medium_e01_cut1_stereo_44KHz.wav
2	196	4	3	2	I	1	0	1104	0	poli_8sides 18_whiteLine3.jpg	Medium_e01_cut1_stereo_44KHz.wav
2	197	2	1	0	C	2	0	1249	0	poli_8sides 1_whiteLine3.jpg	Medium_e26_stereo_44KHz.wav
2	198	1	1	1	C	2	1	1147	1	poli_8sides 13_whiteLine3.jpg	Medium_e26_stereo_44KHz.wav
2	199	4	4	2	I	1	0	1431	1	poli_8sides 18_whiteLine3.jpg	Medium_e13_stereo_44KHz.wav
2	200	3	4	2	I	2	0	1060	0	poli_8sides 8_whiteLine3.jpg	Medium_e13_stereo_44KHz.wav
3	1	1	2	0	C	1	1	1472	1	poli_8sides 5_whiteLine3.jpg	Short_b22_cut1_stereo_44KHz.wav
3	2	2	2	1	C	2	1	817	1	poli_8sides 9_whiteLine3.jpg	Short_b22_cut1_stereo_44KHz.wav
3	3	3	3	2	I	1	0	1316	0	poli_8sides 12_whiteLine3.jpg	Short_b23_cut1_stereo_44KHz.wav
3	4	4	4	2	I	1	0	906	0	poli_8sides 15_whiteLine3.jpg	Short_b09_cut1_stereo_44KHz.wav
3	5	3	4	2	I	1	0	650	0	poli_8sides 12_whiteLine3.jpg	Short_b09_cut1_stereo_44KHz.wav
3	6	1	1	1	C	1	0	948	0	poli_8sides 5_whiteLine3.jpg	Short_b20_cut1_stereo_44KHz.wav
3	7	4	3	2	I	1	0	819	0	poli_8sides 15_whiteLine3.jpg	Short_b23_cut1_stereo_44KHz.wav
3	8	2	1	0	C	1	1	984	1	poli_8sides 9_whiteLine3.jpg	Short_b20_cut1_stereo_44KHz.wav
3	9	3	3	2	I	1	0	874	1	poli_8sides 12_whiteLine3.jpg	Short_b23_cut1_stereo_44KHz.wav
3	10	4	3	2	I	1	0	735	0	poli_8sides 15_whiteLine3.jpg	Short_b23_cut1_stereo_44KHz.wav
3	11	1	1	1	C	1	0	1092	0	poli_8sides 5_whiteLine3.jpg	Short_b20_cut1_stereo_44KHz.wav
3	12	2	1	0	C	1	1	931	1	poli_8sides 9_whiteLine3.jpg	Short_b20_cut1_stereo_44KHz.wav
3	13	1	2	0	C	1	1	957	1	poli_8sides 5_whiteLine3.jpg	Short_b22_cut1_stereo_44KHz.wav
3	14	2	2	1	C	1	0	1163	0	poli_8sides 9_whiteLine3.jpg	Short_b22_cut1_stereo_44KHz.wav
3	15	4	4	2	I	2	0	1128	1	poli_8sides 15_whiteLine3.jpg	Short_b09_cut1_stereo_44KHz.wav
3	16	3	4	2	I	1	0	1067	0	poli_8sides 12_whiteLine3.jpg	Short_b09_cut1_stereo_44KHz.wav
3	17	4	4	2	I	1	0	657	0	poli_8sides 15_whiteLine3.jpg	Short_b09_cut1_stereo_44KHz.wav
3	18	3	4	2	I	2	0	1266	0	poli_8sides 12_whiteLine3.jpg	Short_b09_cut1_stereo_44KHz.wav
3	19	2	2	1	C	1	0	983	0	poli_8sides 9_whiteLine3.jpg	Short_b22_cut1_stereo_44KHz.wav
3	20	1	2	0	C	1	1	836	1	poli_8sides 5_whiteLine3.jpg	Short_b22_cut1_stereo_44KHz.wav
3	21	2	1	0	C	1	1	1085	1	poli_8sides 9_whiteLine3.jpg	Short_b20_cut1_stereo_44KHz.wav
3	22	4	3	2	I	1	0	711	1	poli_8sides 15_whiteLine3.jpg	Short_b23_cut1_stereo_44KHz.wav
3	23	3	3	2	I	1	0	1330	1	poli_8sides 12_whiteLine3.jpg	Short_b23_cut1_stereo_44KHz.wav
3	24	1	1	1	C	1	0	1540	0	poli_8sides 5_whiteLine3.jpg	Short_b20_cut1_stereo_44KHz.wav
3	25	4	3	2	I	1	0	715	0	poli_8sides 15_whiteLine3.jpg	Short_b23_cut1_stereo_44KHz.wav
3	26	2	2	1	C	1	0	850	0	poli_8sides 9_whiteLine3.jpg	Short_b22_cut1_stereo_44KHz.wav
3	27	3	3	2	I	1	0	702	0	poli_8sides 12_whiteLine3.jpg	Short_b23_cut1_stereo_44KHz.wav
3	28	1	1	1	C	2	1	1035	1	poli_8sides 5_whiteLine3.jpg	Short_b20_cut1_stereo_44KHz.wav
3	29	3	4	2	I	2	0	827	0	poli_8sides 12_whiteLine3.jpg	Short_b09_cut1_stereo_44KHz.wav
3	30	4	4	2	I	2	0	757	1	poli_8sides 15_whiteLine3.jpg	Short_b09_cut1_stereo_44KHz.wav
3	31	2	1	0	C	1	1	918	1	poli_8sides 9_whiteLine3.jpg	Short_b20_cut1_stereo_44KHz.wav
3	32	1	2	0	C	1	1	1305	1	poli_8sides 5_whiteLine3.jpg	Short_b22_cut1_stereo_44KHz.wav
3	33	2	1	0	C	1	1	1037	1	poli_8sides 9_whiteLine3.jpg	Short_b20_cut1_stereo_44KHz.wav
3	34	3	4	2	I	1	0	826	0	poli_8sides 12_whiteLine3.jpg	Short_b09_cut1_stereo_44KHz.wav
3	35	4	3	2	I	1	0	937	0	poli_8sides 15_whiteLine3.jpg	Short_b23_cut1_stereo_44KHz.wav
3	36	1	1	1	C	1	0	1835	0	poli_8sides 5_whiteLine3.jpg	Short_b20_cut1_stereo_44KHz.wav
3	37	4	4	2	I	2	0	758	1	poli_8sides 15_whiteLine3.jpg	Short_b09_cut1_stereo_44KHz.wav
3	38	3	3	2	I	2	0	1081	1	poli_8sides 12_whiteLine3.jpg	Short_b23_cut1_stereo_44KHz.wav
3	39	2	2	1	C	2	1	918	1	poli_8sides 9_whiteLine3.jpg	Short_b22_cut1_stereo_44KHz.wav
3	40	1	2	0	C	1	1	1647	1	poli_8sides 5_whiteLine3.jpg	Short_b22_cut1_stereo_44KHz.wav
3	41	4	4	2	I	2	0	1116	1	poli_8sides 15_whiteLine3.jpg	Short_b09_cut1_stereo_44KHz.wav
3	42	1	1	1	C	2	1	760	1	poli_8sides 5_whiteLine3.jpg	Short_b20_cut1_stereo_44KHz.wav
3	43	3	4	2	I	1	0	906	1	poli_8sides 12_whiteLine3.jpg	Short_b09_cut1_stereo_44KHz.wav
3	44	2	2	1	C	2	1	898	1	poli_8sides 9_whiteLine3.jpg	Short_b22_cut1_stereo_44KHz.wav
3	45	3	3	2	I	2	0	717	1	poli_8sides 12_whiteLine3.jpg	Short_b23_cut1_stereo_44KHz.wav
3	46	2	1	0	C	1	1	1714	1	poli_8sides 9_whiteLine3.jpg	Short_b20_cut1_stereo_44KHz.wav
3	47	4	3	2	I	1	0	926	0	poli_8sides 15_whiteLine3.jpg	Short_b23_cut1_stereo_44KHz.wav
3	48	1	2	0	C	1	1	1062	1	poli_8sides 5_whiteLine3.jpg	Short_b22_cut1_stereo_44KHz.wav
3	49	2	2	1	C	2	1	745	1	poli_8sides 9_whiteLine3.jpg	Short_b22_cut1_stereo_44KHz.wav
3	50	1	2	0	C	1	1	965	1	poli_8sides 5_whiteLine3.jpg	Short_b22_cut1_stereo_44KHz.wav
3	51	4	3	2	I	1	0	853	1	poli_8sides 15_whiteLine3.jpg	Short_b23_cut1_stereo_44KHz.wav
3	52	3	4	2	I	1	0	766	1	poli_8sides 12_whiteLine3.jpg	Short_b09_cut1_stereo_44KHz.wav
3	53	4	4	2	I	2	0	685	1	poli_8sides 15_whiteLine3.jpg	Short_b09_cut1_stereo_44KHz.wav
3	54	1	1	1	C	2	1	867	1	poli_8sides 5_whiteLine3.jpg	Short_b20_cut1_stereo_44KHz.wav
3	55	2	1	0	C	1	1	732	1	poli_8sides 9_whiteLine3.jpg	Short_b20_cut1_stereo_44KHz.wav
3	56	3	3	2	I	2	0	738	0	poli_8sides 12_whiteLine3.jpg	Short_b23_cut1_stereo_44KHz.wav
3	57	4	4	2	I	2	0	656	0	poli_8sides 15_whiteLine3.jpg	Short_b09_cut1_stereo_44KHz.wav
3	58	3	3	2	I	1	0	1032	0	poli_8sides 12_whiteLine3.jpg	Short_b23_cut1_stereo_44KHz.wav
3	59	1	2	0	C	1	1	841	1	poli_8sides 5_whiteLine3.jpg	Short_b22_cut1_stereo_44KHz.wav
3	60	2	2	1	C	2	1	701	1	poli_8sides 9_whiteLine3.jpg	Short_b22_cut1_stereo_44KHz.wav
3	61	1	1	1	C	2	1	739	1	poli_8sides 5_whiteLine3.jpg	Short_b20_cut1_stereo_44KHz.wav
3	62	4	3	2	I	1	0	942	1	poli_8sides 15_whiteLine3.jpg	Short_b23_cut1_stereo_44KHz.wav
3	63	2	1	0	C	1	1	962	1	poli_8sides 9_whiteLine3.jpg	Short_b20_cut1_stereo_44KHz.wav
3	64	3	4	2	I	1	0	806	1	poli_8sides 12_whiteLine3.jpg	Short_b09_cut1_stereo_44KHz.wav
3	65	4	3	2	I	1	0	749	1	poli_8sides 15_whiteLine3.jpg	Short_b23_cut1_stereo_44KHz.wav
3	66	2	2	1	C	2	1	729	1	poli_8sides 9_whiteLine3.jpg	Short_b22_cut1_stereo_44KHz.wav
3	67	1	1	1	C	2	1	999	1	poli_8sides 5_whiteLine3.jpg	Short_b20_cut1_stereo_44KHz.wav
3	68	3	3	2	I	2	0	1125	0	poli_8sides 12_whiteLine3.jpg	Short_b23_cut1_stereo_44KHz.wav
3	69	4	4	2	I	2	0	1099	1	poli_8sides 15_whiteLine3.jpg	Short_b09_cut1_stereo_44KHz.wav
3	70	2	1	0	C	1	1	827	1	poli_8sides 9_whiteLine3.jpg	Short_b20_cut1_stereo_44KHz.wav
3	71	1	2	0	C	2	0	1947	0	poli_8sides 5_whiteLine3.jpg	Short_b22_cut1_stereo_44KHz.wav
3	72	3	4	2	I	1	0	783	1	poli_8sides 12_whiteLine3.jpg	Short_b09_cut1_stereo_44KHz.wav
3	73	4	4	2	I	2	0	660	0	poli_8sides 15_whiteLine3.jpg	Short_b09_cut1_stereo_44KHz.wav
3	74	1	2	0	C	1	1	1301	1	poli_8sides 5_whiteLine3.jpg	Short_b22_cut1_stereo_44KHz.wav
3	75	2	2	1	C	1	0	1257	0	poli_8sides 9_whiteLine3.jpg	Short_b22_cut1_stereo_44KHz.wav
3	76	3	3	2	I	2	0	1149	1	poli_8sides 12_whiteLine3.jpg	Short_b23_cut1_stereo_44KHz.wav
3	77	1	1	1	C	2	1	881	1	poli_8sides 5_whiteLine3.jpg	Short_b20_cut1_stereo_44KHz.wav
3	78	3	4	2	I	1	0	721	0	poli_8sides 12_whiteLine3.jpg	Short_b09_cut1_stereo_44KHz.wav
3	79	2	1	0	C	1	1	1175	1	poli_8sides 9_whiteLine3.jpg	Short_b20_cut1_stereo_44KHz.wav
3	80	4	3	2	I	1	0	936	0	poli_8sides 15_whiteLine3.jpg	Short_b23_cut1_stereo_44KHz.wav
3	81	3	3	2	I	1	0	932	1	poli_8sides 12_whiteLine3.jpg	Short_b23_cut1_stereo_44KHz.wav
3	82	4	3	2	I	1	0	1167	1	poli_8sides 15_whiteLine3.jpg	Short_b23_cut1_stereo_44KHz.wav
3	83	2	2	1	C	2	1	1181	1	poli_8sides 9_whiteLine3.jpg	Short_b22_cut1_stereo_44KHz.wav
3	84	1	1	1	C	2	1	1002	1	poli_8sides 5_whiteLine3.jpg	Short_b20_cut1_stereo_44KHz.wav
3	85	2	1	0	C	1	1	1260	1	poli_8sides 9_whiteLine3.jpg	Short_b20_cut1_stereo_44KHz.wav
3	86	3	4	2	I	1	0	764	0	poli_8sides 12_whiteLine3.jpg	Short_b09_cut1_stereo_44KHz.wav
3	87	4	4	2	I	1	0	1574	0	poli_8sides 15_whiteLine3.jpg	Short_b09_cut1_stereo_44KHz.wav
3	88	1	2	0	C	1	1	906	1	poli_8sides 5_whiteLine3.jpg	Short_b22_cut1_stereo_44KHz.wav
3	89	2	1	0	C	1	1	921	1	poli_8sides 9_whiteLine3.jpg	Short_b20_cut1_stereo_44KHz.wav
3	90	4	3	2	I	1	0	920	0	poli_8sides 15_whiteLine3.jpg	Short_b23_cut1_stereo_44KHz.wav
3	91	3	4	2	I	1	0	762	1	poli_8sides 12_whiteLine3.jpg	Short_b09_cut1_stereo_44KHz.wav
3	92	1	1	1	C	0	0	0	0	poli_8sides 5_whiteLine3.jpg	Short_b20_cut1_stereo_44KHz.wav
3	93	3	3	2	I	2	0	1200	0	poli_8sides 12_whiteLine3.jpg	Short_b23_cut1_stereo_44KHz.wav
3	94	4	4	2	I	1	0	718	1	poli_8sides 15_whiteLine3.jpg	Short_b09_cut1_stereo_44KHz.wav
3	95	2	2	1	C	2	1	879	1	poli_8sides 9_whiteLine3.jpg	Short_b22_cut1_stereo_44KHz.wav
3	96	1	2	0	C	1	1	861	1	poli_8sides 5_whiteLine3.jpg	Short_b22_cut1_stereo_44KHz.wav
3	97	4	3	2	I	1	0	966	1	poli_8sides 15_whiteLine3.jpg	Short_b23_cut1_stereo_44KHz.wav
3	98	1	2	0	C	1	1	953	1	poli_8sides 5_whiteLine3.jpg	Short_b22_cut1_stereo_44KHz.wav
3	99	2	2	1	C	2	1	817	1	poli_8sides 9_whiteLine3.jpg	Short_b22_cut1_stereo_44KHz.wav
3	100	3	3	2	I	1	0	1231	1	poli_8sides 12_whiteLine3.jpg	Short_b23_cut1_stereo_44KHz.wav
3	101	4	4	2	I	2	0	969	1	poli_8sides 15_whiteLine3.jpg	Short_b09_cut1_stereo_44KHz.wav
3	102	1	1	1	C	2	1	1071	1	poli_8sides 5_whiteLine3.jpg	Short_b20_cut1_stereo_44KHz.wav
3	103	2	1	0	C	1	1	847	1	poli_8sides 9_whiteLine3.jpg	Short_b20_cut1_stereo_44KHz.wav
3	104	3	4	2	I	1	0	732	1	poli_8sides 12_whiteLine3.jpg	Short_b09_cut1_stereo_44KHz.wav
3	105	2	1	0	C	1	1	916	1	poli_8sides 9_whiteLine3.jpg	Short_b20_cut1_stereo_44KHz.wav
3	106	1	1	1	C	2	1	842	1	poli_8sides 5_whiteLine3.jpg	Short_b20_cut1_stereo_44KHz.wav
3	107	4	3	2	I	1	0	795	0	poli_8sides 15_whiteLine3.jpg	Short_b23_cut1_stereo_44KHz.wav
3	108	3	3	2	I	1	0	955	1	poli_8sides 12_whiteLine3.jpg	Short_b23_cut1_stereo_44KHz.wav
3	109	4	4	2	I	0	0	0	0	poli_8sides 15_whiteLine3.jpg	Short_b09_cut1_stereo_44KHz.wav
3	110	1	2	0	C	2	0	864	0	poli_8sides 5_whiteLine3.jpg	Short_b22_cut1_stereo_44KHz.wav
3	111	2	2	1	C	2	1	1030	1	poli_8sides 9_whiteLine3.jpg	Short_b22_cut1_stereo_44KHz.wav
3	112	3	4	2	I	1	0	722	0	poli_8sides 12_whiteLine3.jpg	Short_b09_cut1_stereo_44KHz.wav
3	113	4	4	2	I	1	0	989	0	poli_8sides 15_whiteLine3.jpg	Short_b09_cut1_stereo_44KHz.wav
3	114	3	3	2	I	1	0	993	0	poli_8sides 12_whiteLine3.jpg	Short_b23_cut1_stereo_44KHz.wav
3	115	2	1	0	C	1	1	814	1	poli_8sides 9_whiteLine3.jpg	Short_b20_cut1_stereo_44KHz.wav
3	116	1	2	0	C	1	1	1491	1	poli_8sides 5_whiteLine3.jpg	Short_b22_cut1_stereo_44KHz.wav
3	117	3	4	2	I	1	0	616	0	poli_8sides 12_whiteLine3.jpg	Short_b09_cut1_stereo_44KHz.wav
3	118	2	2	1	C	2	1	1163	1	poli_8sides 9_whiteLine3.jpg	Short_b22_cut1_stereo_44KHz.wav
3	119	1	1	1	C	0	0	0	0	poli_8sides 5_whiteLine3.jpg	Short_b20_cut1_stereo_44KHz.wav
3	120	4	3	2	I	1	0	756	0	poli_8sides 15_whiteLine3.jpg	Short_b23_cut1_stereo_44KHz.wav
3	121	2	1	0	C	1	1	1106	1	poli_8sides 9_whiteLine3.jpg	Short_b20_cut1_stereo_44KHz.wav
3	122	4	3	2	I	1	0	943	0	poli_8sides 15_whiteLine3.jpg	Short_b23_cut1_stereo_44KHz.wav
3	123	1	2	0	C	1	1	1039	1	poli_8sides 5_whiteLine3.jpg	Short_b22_cut1_stereo_44KHz.wav
3	124	3	4	2	I	1	0	800	0	poli_8sides 12_whiteLine3.jpg	Short_b09_cut1_stereo_44KHz.wav
3	125	2	2	1	C	2	1	1161	1	poli_8sides 9_whiteLine3.jpg	Short_b22_cut1_stereo_44KHz.wav
3	126	1	1	1	C	2	1	885	1	poli_8sides 5_whiteLine3.jpg	Short_b20_cut1_stereo_44KHz.wav
3	127	3	3	2	I	1	0	773	0	poli_8sides 12_whiteLine3.jpg	Short_b23_cut1_stereo_44KHz.wav
3	128	4	4	2	I	1	0	917	0	poli_8sides 15_whiteLine3.jpg	Short_b09_cut1_stereo_44KHz.wav
3	129	2	1	0	C	1	1	859	1	poli_8sides 9_whiteLine3.jpg	Short_b20_cut1_stereo_44KHz.wav
3	130	4	3	2	I	1	0	1117	1	poli_8sides 15_whiteLine3.jpg	Short_b23_cut1_stereo_44KHz.wav
3	131	3	4	2	I	1	0	743	1	poli_8sides 12_whiteLine3.jpg	Short_b09_cut1_stereo_44KHz.wav
3	132	1	1	1	C	2	1	927	1	poli_8sides 5_whiteLine3.jpg	Short_b20_cut1_stereo_44KHz.wav
3	133	3	3	2	I	2	0	1293	1	poli_8sides 12_whiteLine3.jpg	Short_b23_cut1_stereo_44KHz.wav
3	134	4	4	2	I	2	0	1642	0	poli_8sides 15_whiteLine3.jpg	Short_b09_cut1_stereo_44KHz.wav
3	135	2	2	1	C	2	1	1346	1	poli_8sides 9_whiteLine3.jpg	Short_b22_cut1_stereo_44KHz.wav
3	136	1	2	0	C	1	1	800	1	poli_8sides 5_whiteLine3.jpg	Short_b22_cut1_stereo_44KHz.wav
3	137	3	3	2	I	2	0	831	1	poli_8sides 12_whiteLine3.jpg	Short_b23_cut1_stereo_44KHz.wav
3	138	2	1	0	C	1	1	708	1	poli_8sides 9_whiteLine3.jpg	Short_b20_cut1_stereo_44KHz.wav
3	139	4	3	2	I	1	0	775	0	poli_8sides 15_whiteLine3.jpg	Short_b23_cut1_stereo_44KHz.wav
3	140	1	2	0	C	1	1	1303	1	poli_8sides 5_whiteLine3.jpg	Short_b22_cut1_stereo_44KHz.wav
3	141	3	4	2	I	1	0	824	0	poli_8sides 12_whiteLine3.jpg	Short_b09_cut1_stereo_44KHz.wav
3	142	1	1	1	C	2	1	1578	1	poli_8sides 5_whiteLine3.jpg	Short_b20_cut1_stereo_44KHz.wav
3	143	4	4	2	I	1	0	861	1	poli_8sides 15_whiteLine3.jpg	Short_b09_cut1_stereo_44KHz.wav
3	144	2	2	1	C	2	1	1276	1	poli_8sides 9_whiteLine3.jpg	Short_b22_cut1_stereo_44KHz.wav
3	145	3	3	2	I	1	0	1291	0	poli_8sides 12_whiteLine3.jpg	Short_b23_cut1_stereo_44KHz.wav
3	146	2	2	1	C	2	1	958	1	poli_8sides 9_whiteLine3.jpg	Short_b22_cut1_stereo_44KHz.wav
3	147	1	2	0	C	1	1	913	1	poli_8sides 5_whiteLine3.jpg	Short_b22_cut1_stereo_44KHz.wav
3	148	4	4	2	I	1	0	935	1	poli_8sides 15_whiteLine3.jpg	Short_b09_cut1_stereo_44KHz.wav
3	149	2	1	0	C	1	1	1041	1	poli_8sides 9_whiteLine3.jpg	Short_b20_cut1_stereo_44KHz.wav
3	150	4	3	2	I	1	0	1262	1	poli_8sides 15_whiteLine3.jpg	Short_b23_cut1_stereo_44KHz.wav
3	151	3	4	2	I	1	0	847	0	poli_8sides 12_whiteLine3.jpg	Short_b09_cut1_stereo_44KHz.wav
3	152	1	1	1	C	2	1	987	1	poli_8sides 5_whiteLine3.jpg	Short_b20_cut1_stereo_44KHz.wav
3	153	4	4	2	I	1	0	1006	1	poli_8sides 15_whiteLine3.jpg	Short_b09_cut1_stereo_44KHz.wav
3	154	1	2	0	C	1	1	1434	1	poli_8sides 5_whiteLine3.jpg	Short_b22_cut1_stereo_44KHz.wav
3	155	3	3	2	I	1	0	1183	0	poli_8sides 12_whiteLine3.jpg	Short_b23_cut1_stereo_44KHz.wav
3	156	2	1	0	C	1	1	956	1	poli_8sides 9_whiteLine3.jpg	Short_b20_cut1_stereo_44KHz.wav
3	157	1	1	1	C	2	1	945	1	poli_8sides 5_whiteLine3.jpg	Short_b20_cut1_stereo_44KHz.wav
3	158	4	3	2	I	1	0	1035	1	poli_8sides 15_whiteLine3.jpg	Short_b23_cut1_stereo_44KHz.wav
3	159	3	4	2	I	1	0	821	0	poli_8sides 12_whiteLine3.jpg	Short_b09_cut1_stereo_44KHz.wav
3	160	2	2	1	C	2	1	933	1	poli_8sides 9_whiteLine3.jpg	Short_b22_cut1_stereo_44KHz.wav
3	161	3	4	2	I	1	0	835	1	poli_8sides 12_whiteLine3.jpg	Short_b09_cut1_stereo_44KHz.wav
3	162	2	2	1	C	2	1	1155	1	poli_8sides 9_whiteLine3.jpg	Short_b22_cut1_stereo_44KHz.wav
3	163	4	4	2	I	1	0	1839	1	poli_8sides 15_whiteLine3.jpg	Short_b09_cut1_stereo_44KHz.wav
3	164	1	1	1	C	2	1	860	1	poli_8sides 5_whiteLine3.jpg	Short_b20_cut1_stereo_44KHz.wav
3	165	4	3	2	I	1	0	1079	0	poli_8sides 15_whiteLine3.jpg	Short_b23_cut1_stereo_44KHz.wav
3	166	1	2	0	C	2	0	1209	0	poli_8sides 5_whiteLine3.jpg	Short_b22_cut1_stereo_44KHz.wav
3	167	2	1	0	C	1	1	869	1	poli_8sides 9_whiteLine3.jpg	Short_b20_cut1_stereo_44KHz.wav
3	168	3	3	2	I	1	0	802	1	poli_8sides 12_whiteLine3.jpg	Short_b23_cut1_stereo_44KHz.wav
3	169	4	4	2	I	1	0	1095	1	poli_8sides 15_whiteLine3.jpg	Short_b09_cut1_stereo_44KHz.wav
3	170	3	4	2	I	1	0	971	1	poli_8sides 12_whiteLine3.jpg	Short_b09_cut1_stereo_44KHz.wav
3	171	2	1	0	C	0	0	0	0	poli_8sides 9_whiteLine3.jpg	Short_b20_cut1_stereo_44KHz.wav
3	172	1	2	0	C	1	1	1319	1	poli_8sides 5_whiteLine3.jpg	Short_b22_cut1_stereo_44KHz.wav
3	173	4	3	2	I	1	0	812	0	poli_8sides 15_whiteLine3.jpg	Short_b23_cut1_stereo_44KHz.wav
3	174	3	3	2	I	1	0	841	1	poli_8sides 12_whiteLine3.jpg	Short_b23_cut1_stereo_44KHz.wav
3	175	1	1	1	C	2	1	1111	1	poli_8sides 5_whiteLine3.jpg	Short_b20_cut1_stereo_44KHz.wav
3	176	2	2	1	C	2	1	175	1	poli_8sides 9_whiteLine3.jpg	Short_b22_cut1_stereo_44KHz.wav
3	177	3	3	2	I	2	0	682	1	poli_8sides 12_whiteLine3.jpg	Short_b23_cut1_stereo_44KHz.wav
3	178	1	2	0	C	1	1	1050	1	poli_8sides 5_whiteLine3.jpg	Short_b22_cut1_stereo_44KHz.wav
3	179	4	4	2	I	1	0	1056	1	poli_8sides 15_whiteLine3.jpg	Short_b09_cut1_stereo_44KHz.wav
3	180	2	1	0	C	1	1	830	1	poli_8sides 9_whiteLine3.jpg	Short_b20_cut1_stereo_44KHz.wav
3	181	1	1	1	C	2	1	956	1	poli_8sides 5_whiteLine3.jpg	Short_b20_cut1_stereo_44KHz.wav
3	182	3	4	2	I	1	0	641	1	poli_8sides 12_whiteLine3.jpg	Short_b09_cut1_stereo_44KHz.wav
3	183	4	3	2	I	1	0	939	0	poli_8sides 15_whiteLine3.jpg	Short_b23_cut1_stereo_44KHz.wav
3	184	2	2	1	C	1	0	1557	0	poli_8sides 9_whiteLine3.jpg	Short_b22_cut1_stereo_44KHz.wav
3	185	3	4	2	I	1	0	735	1	poli_8sides 12_whiteLine3.jpg	Short_b09_cut1_stereo_44KHz.wav
3	186	2	1	0	C	1	1	764	1	poli_8sides 9_whiteLine3.jpg	Short_b20_cut1_stereo_44KHz.wav
3	187	1	1	1	C	2	1	923	1	poli_8sides 5_whiteLine3.jpg	Short_b20_cut1_stereo_44KHz.wav
3	188	4	4	2	I	1	0	1006	0	poli_8sides 15_whiteLine3.jpg	Short_b09_cut1_stereo_44KHz.wav
3	189	3	3	2	I	2	0	1067	1	poli_8sides 12_whiteLine3.jpg	Short_b23_cut1_stereo_44KHz.wav
3	190	4	3	2	I	2	0	728	1	poli_8sides 15_whiteLine3.jpg	Short_b23_cut1_stereo_44KHz.wav
3	191	2	2	1	C	2	1	966	1	poli_8sides 9_whiteLine3.jpg	Short_b22_cut1_stereo_44KHz.wav
3	192	1	2	0	C	1	1	1072	1	poli_8sides 5_whiteLine3.jpg	Short_b22_cut1_stereo_44KHz.wav
3	193	2	2	1	C	2	1	1129	1	poli_8sides 9_whiteLine3.jpg	Short_b22_cut1_stereo_44KHz.wav
3	194	4	3	2	I	1	0	1046	1	poli_8sides 15_whiteLine3.jpg	Short_b23_cut1_stereo_44KHz.wav
3	195	3	3	2	I	1	0	832	0	poli_8sides 12_whiteLine3.jpg	Short_b23_cut1_stereo_44KHz.wav
3	196	1	1	1	C	2	1	933	1	poli_8sides 5_whiteLine3.jpg	Short_b20_cut1_stereo_44KHz.wav
3	197	3	4	2	I	1	0	736	0	poli_8sides 12_whiteLine3.jpg	Short_b09_cut1_stereo_44KHz.wav
3	198	1	2	0	C	1	1	991	1	poli_8sides 5_whiteLine3.jpg	Short_b22_cut1_stereo_44KHz.wav
3	199	2	1	0	C	1	1	1064	1	poli_8sides 9_whiteLine3.jpg	Short_b20_cut1_stereo_44KHz.wav
3	200	4	4	2	I	1	0	769	0	poli_8sides 15_whiteLine3.jpg	Short_b09_cut1_stereo_44KHz.wav
4	1	1	1	1	C	1	0	1337	0	poli_8sides 7_whiteLine3.jpg	MediumShort_e16_cut1_stereo_44KHz.wav
4	2	2	2	1	C	1	0	603	0	poli_8sides 3_whiteLine3.jpg	MediumShort_b10_cut1_MS_stereo_44KHz.wav
4	3	3	3	2	I	1	0	569	1	poli_8sides 16_whiteLine3.jpg	MediumShort_b16_cut3_MS_stereo_44KHz.wav
4	4	4	3	2	I	2	0	672	1	poli_8sides 6_whiteLine3.jpg	MediumShort_b16_cut3_MS_stereo_44KHz.wav
4	5	1	2	0	C	1	1	784	1	poli_8sides 7_whiteLine3.jpg	MediumShort_b10_cut1_MS_stereo_44KHz.wav
4	6	3	4	2	I	2	0	1267	0	poli_8sides 16_whiteLine3.jpg	MediumShort_e22_cut1_stereo_44KHz.wav
4	7	2	1	0	C	2	0	621	0	poli_8sides 3_whiteLine3.jpg	MediumShort_e16_cut1_stereo_44KHz.wav
4	8	4	4	2	I	2	0	1276	0	poli_8sides 6_whiteLine3.jpg	MediumShort_e22_cut1_stereo_44KHz.wav
4	9	1	1	1	C	1	0	671	0	poli_8sides 7_whiteLine3.jpg	MediumShort_e16_cut1_stereo_44KHz.wav
4	10	2	1	0	C	2	0	1218	0	poli_8sides 3_whiteLine3.jpg	MediumShort_e16_cut1_stereo_44KHz.wav
4	11	4	3	2	I	2	0	878	0	poli_8sides 6_whiteLine3.jpg	MediumShort_b16_cut3_MS_stereo_44KHz.wav
4	12	3	3	2	I	2	0	1067	1	poli_8sides 16_whiteLine3.jpg	MediumShort_b16_cut3_MS_stereo_44KHz.wav
4	13	2	2	1	C	1	0	743	0	poli_8sides 3_whiteLine3.jpg	MediumShort_b10_cut1_MS_stereo_44KHz.wav
4	14	3	4	2	I	1	0	844	1	poli_8sides 16_whiteLine3.jpg	MediumShort_e22_cut1_stereo_44KHz.wav
4	15	1	2	0	C	1	1	802	1	poli_8sides 7_whiteLine3.jpg	MediumShort_b10_cut1_MS_stereo_44KHz.wav
4	16	4	4	2	I	2	0	1251	0	poli_8sides 6_whiteLine3.jpg	MediumShort_e22_cut1_stereo_44KHz.wav
4	17	1	1	1	C	2	1	883	1	poli_8sides 7_whiteLine3.jpg	MediumShort_e16_cut1_stereo_44KHz.wav
4	18	2	1	0	C	1	1	743	1	poli_8sides 3_whiteLine3.jpg	MediumShort_e16_cut1_stereo_44KHz.wav
4	19	4	4	2	I	1	0	1266	0	poli_8sides 6_whiteLine3.jpg	MediumShort_e22_cut1_stereo_44KHz.wav
4	20	3	4	2	I	1	0	604	1	poli_8sides 16_whiteLine3.jpg	MediumShort_e22_cut1_stereo_44KHz.wav
4	21	2	2	1	C	1	0	983	0	poli_8sides 3_whiteLine3.jpg	MediumShort_b10_cut1_MS_stereo_44KHz.wav
4	22	4	3	2	I	1	0	791	0	poli_8sides 6_whiteLine3.jpg	MediumShort_b16_cut3_MS_stereo_44KHz.wav
4	23	1	2	0	C	1	1	635	1	poli_8sides 7_whiteLine3.jpg	MediumShort_b10_cut1_MS_stereo_44KHz.wav
4	24	3	3	2	I	1	0	861	1	poli_8sides 16_whiteLine3.jpg	MediumShort_b16_cut3_MS_stereo_44KHz.wav
4	25	4	4	2	I	1	0	1311	0	poli_8sides 6_whiteLine3.jpg	MediumShort_e22_cut1_stereo_44KHz.wav
4	26	2	1	0	C	1	1	704	1	poli_8sides 3_whiteLine3.jpg	MediumShort_e16_cut1_stereo_44KHz.wav
4	27	3	4	2	I	1	0	726	1	poli_8sides 16_whiteLine3.jpg	MediumShort_e22_cut1_stereo_44KHz.wav
4	28	1	2	0	C	1	1	633	1	poli_8sides 7_whiteLine3.jpg	MediumShort_b10_cut1_MS_stereo_44KHz.wav
4	29	4	3	2	I	2	0	982	0	poli_8sides 6_whiteLine3.jpg	MediumShort_b16_cut3_MS_stereo_44KHz.wav
4	30	3	3	2	I	1	0	736	1	poli_8sides 16_whiteLine3.jpg	MediumShort_b16_cut3_MS_stereo_44KHz.wav
4	31	1	1	1	C	1	0	613	0	poli_8sides 7_whiteLine3.jpg	MediumShort_e16_cut1_stereo_44KHz.wav
4	32	2	2	1	C	1	0	1157	0	poli_8sides 3_whiteLine3.jpg	MediumShort_b10_cut1_MS_stereo_44KHz.wav
4	33	4	4	2	I	1	0	860	0	poli_8sides 6_whiteLine3.jpg	MediumShort_e22_cut1_stereo_44KHz.wav
4	34	3	4	2	I	1	0	746	0	poli_8sides 16_whiteLine3.jpg	MediumShort_e22_cut1_stereo_44KHz.wav
4	35	2	1	0	C	1	1	797	1	poli_8sides 3_whiteLine3.jpg	MediumShort_e16_cut1_stereo_44KHz.wav
4	36	1	2	0	C	1	1	653	1	poli_8sides 7_whiteLine3.jpg	MediumShort_b10_cut1_MS_stereo_44KHz.wav
4	37	4	3	2	I	1	0	1013	0	poli_8sides 6_whiteLine3.jpg	MediumShort_b16_cut3_MS_stereo_44KHz.wav
4	38	3	3	2	I	1	0	726	1	poli_8sides 16_whiteLine3.jpg	MediumShort_b16_cut3_MS_stereo_44KHz.wav
4	39	1	1	1	C	1	0	769	0	poli_8sides 7_whiteLine3.jpg	MediumShort_e16_cut1_stereo_44KHz.wav
4	40	2	2	1	C	0	0	0	0	poli_8sides 3_whiteLine3.jpg	MediumShort_b10_cut1_MS_stereo_44KHz.wav
4	41	4	4	2	I	2	0	1222	0	poli_8sides 6_whiteLine3.jpg	MediumShort_e22_cut1_stereo_44KHz.wav
4	42	3	3	2	I	1	0	851	1	poli_8sides 16_whiteLine3.jpg	MediumShort_b16_cut3_MS_stereo_44KHz.wav
4	43	1	2	0	C	1	1	672	1	poli_8sides 7_whiteLine3.jpg	MediumShort_b10_cut1_MS_stereo_44KHz.wav
4	44	2	2	1	C	2	1	851	1	poli_8sides 3_whiteLine3.jpg	MediumShort_b10_cut1_MS_stereo_44KHz.wav
4	45	1	1	1	C	2	1	1328	1	poli_8sides 7_whiteLine3.jpg	MediumShort_e16_cut1_stereo_44KHz.wav
4	46	3	4	2	I	1	0	798	1	poli_8sides 16_whiteLine3.jpg	MediumShort_e22_cut1_stereo_44KHz.wav
4	47	4	3	2	I	1	0	793	0	poli_8sides 6_whiteLine3.jpg	MediumShort_b16_cut3_MS_stereo_44KHz.wav
4	48	2	1	0	C	1	1	768	1	poli_8sides 3_whiteLine3.jpg	MediumShort_e16_cut1_stereo_44KHz.wav
4	49	3	3	2	I	1	0	736	0	poli_8sides 16_whiteLine3.jpg	MediumShort_b16_cut3_MS_stereo_44KHz.wav
4	50	4	4	2	I	1	0	822	0	poli_8sides 6_whiteLine3.jpg	MediumShort_e22_cut1_stereo_44KHz.wav
4	51	1	1	1	C	1	0	1016	0	poli_8sides 7_whiteLine3.jpg	MediumShort_e16_cut1_stereo_44KHz.wav
4	52	2	1	0	C	1	1	579	1	poli_8sides 3_whiteLine3.jpg	MediumShort_e16_cut1_stereo_44KHz.wav
4	53	1	2	0	C	1	1	613	1	poli_8sides 7_whiteLine3.jpg	MediumShort_b10_cut1_MS_stereo_44KHz.wav
4	54	2	2	1	C	2	1	722	1	poli_8sides 3_whiteLine3.jpg	MediumShort_b10_cut1_MS_stereo_44KHz.wav
4	55	3	4	2	I	1	0	655	0	poli_8sides 16_whiteLine3.jpg	MediumShort_e22_cut1_stereo_44KHz.wav
4	56	4	3	2	I	2	0	937	0	poli_8sides 6_whiteLine3.jpg	MediumShort_b16_cut3_MS_stereo_44KHz.wav
4	57	2	2	1	C	2	1	920	1	poli_8sides 3_whiteLine3.jpg	MediumShort_b10_cut1_MS_stereo_44KHz.wav
4	58	3	4	2	I	1	0	691	0	poli_8sides 16_whiteLine3.jpg	MediumShort_e22_cut1_stereo_44KHz.wav
4	59	1	2	0	C	1	1	872	1	poli_8sides 7_whiteLine3.jpg	MediumShort_b10_cut1_MS_stereo_44KHz.wav
4	60	4	3	2	I	1	0	843	1	poli_8sides 6_whiteLine3.jpg	MediumShort_b16_cut3_MS_stereo_44KHz.wav
4	61	3	3	2	I	1	0	707	0	poli_8sides 16_whiteLine3.jpg	MediumShort_b16_cut3_MS_stereo_44KHz.wav
4	62	4	4	2	I	2	0	808	1	poli_8sides 6_whiteLine3.jpg	MediumShort_e22_cut1_stereo_44KHz.wav
4	63	2	1	0	C	1	1	1159	1	poli_8sides 3_whiteLine3.jpg	MediumShort_e16_cut1_stereo_44KHz.wav
4	64	1	1	1	C	2	1	628	1	poli_8sides 7_whiteLine3.jpg	MediumShort_e16_cut1_stereo_44KHz.wav
4	65	2	2	1	C	2	1	906	1	poli_8sides 3_whiteLine3.jpg	MediumShort_b10_cut1_MS_stereo_44KHz.wav
4	66	3	3	2	I	1	0	714	0	poli_8sides 16_whiteLine3.jpg	MediumShort_b16_cut3_MS_stereo_44KHz.wav
4	67	1	2	0	C	1	1	697	1	poli_8sides 7_whiteLine3.jpg	MediumShort_b10_cut1_MS_stereo_44KHz.wav
4	68	4	4	2	I	1	0	744	1	poli_8sides 6_whiteLine3.jpg	MediumShort_e22_cut1_stereo_44KHz.wav
4	69	2	1	0	C	2	0	634	0	poli_8sides 3_whiteLine3.jpg	MediumShort_e16_cut1_stereo_44KHz.wav
4	70	4	3	2	I	1	0	673	1	poli_8sides 6_whiteLine3.jpg	MediumShort_b16_cut3_MS_stereo_44KHz.wav
4	71	3	4	2	I	1	0	961	1	poli_8sides 16_whiteLine3.jpg	MediumShort_e22_cut1_stereo_44KHz.wav
4	72	1	1	1	C	1	0	741	0	poli_8sides 7_whiteLine3.jpg	MediumShort_e16_cut1_stereo_44KHz.wav
4	73	3	4	2	I	1	0	747	0	poli_8sides 16_whiteLine3.jpg	MediumShort_e22_cut1_stereo_44KHz.wav
4	74	1	2	0	C	1	1	619	1	poli_8sides 7_whiteLine3.jpg	MediumShort_b10_cut1_MS_stereo_44KHz.wav
4	75	4	4	2	I	1	0	774	0	poli_8sides 6_whiteLine3.jpg	MediumShort_e22_cut1_stereo_44KHz.wav
4	76	2	2	1	C	2	1	1133	1	poli_8sides 3_whiteLine3.jpg	MediumShort_b10_cut1_MS_stereo_44KHz.wav
4	77	1	1	1	C	1	0	897	0	poli_8sides 7_whiteLine3.jpg	MediumShort_e16_cut1_stereo_44KHz.wav
4	78	2	1	0	C	1	1	625	1	poli_8sides 3_whiteLine3.jpg	MediumShort_e16_cut1_stereo_44KHz.wav
4	79	4	3	2	I	1	0	732	1	poli_8sides 6_whiteLine3.jpg	MediumShort_b16_cut3_MS_stereo_44KHz.wav
4	80	3	3	2	I	2	0	1030	1	poli_8sides 16_whiteLine3.jpg	MediumShort_b16_cut3_MS_stereo_44KHz.wav
4	81	1	2	0	C	1	1	739	1	poli_8sides 7_whiteLine3.jpg	MediumShort_b10_cut1_MS_stereo_44KHz.wav
4	82	3	3	2	I	1	0	870	0	poli_8sides 16_whiteLine3.jpg	MediumShort_b16_cut3_MS_stereo_44KHz.wav
4	83	2	2	1	C	1	0	755	0	poli_8sides 3_whiteLine3.jpg	MediumShort_b10_cut1_MS_stereo_44KHz.wav
4	84	4	3	2	I	1	0	783	1	poli_8sides 6_whiteLine3.jpg	MediumShort_b16_cut3_MS_stereo_44KHz.wav
4	85	1	1	1	C	2	1	1213	1	poli_8sides 7_whiteLine3.jpg	MediumShort_e16_cut1_stereo_44KHz.wav
4	86	2	1	0	C	1	1	683	1	poli_8sides 3_whiteLine3.jpg	MediumShort_e16_cut1_stereo_44KHz.wav
4	87	4	4	2	I	2	0	1275	0	poli_8sides 6_whiteLine3.jpg	MediumShort_e22_cut1_stereo_44KHz.wav
4	88	3	4	2	I	1	0	666	1	poli_8sides 16_whiteLine3.jpg	MediumShort_e22_cut1_stereo_44KHz.wav
4	89	4	4	2	I	2	0	1273	0	poli_8sides 6_whiteLine3.jpg	MediumShort_e22_cut1_stereo_44KHz.wav
4	90	3	3	2	I	1	0	1004	0	poli_8sides 16_whiteLine3.jpg	MediumShort_b16_cut3_MS_stereo_44KHz.wav
4	91	2	2	1	C	2	1	983	1	poli_8sides 3_whiteLine3.jpg	MediumShort_b10_cut1_MS_stereo_44KHz.wav
4	92	1	2	0	C	1	1	965	1	poli_8sides 7_whiteLine3.jpg	MediumShort_b10_cut1_MS_stereo_44KHz.wav
4	93	4	3	2	I	1	0	1528	0	poli_8sides 6_whiteLine3.jpg	MediumShort_b16_cut3_MS_stereo_44KHz.wav
4	94	1	1	1	C	2	1	1111	1	poli_8sides 7_whiteLine3.jpg	MediumShort_e16_cut1_stereo_44KHz.wav
4	95	3	4	2	I	1	0	743	1	poli_8sides 16_whiteLine3.jpg	MediumShort_e22_cut1_stereo_44KHz.wav
4	96	2	1	0	C	1	1	880	1	poli_8sides 3_whiteLine3.jpg	MediumShort_e16_cut1_stereo_44KHz.wav
4	97	3	3	2	I	2	0	1280	1	poli_8sides 16_whiteLine3.jpg	MediumShort_b16_cut3_MS_stereo_44KHz.wav
4	98	2	2	1	C	2	1	890	1	poli_8sides 3_whiteLine3.jpg	MediumShort_b10_cut1_MS_stereo_44KHz.wav
4	99	4	4	2	I	1	0	937	1	poli_8sides 6_whiteLine3.jpg	MediumShort_e22_cut1_stereo_44KHz.wav
4	100	1	1	1	C	2	1	859	1	poli_8sides 7_whiteLine3.jpg	MediumShort_e16_cut1_stereo_44KHz.wav
4	101	2	1	0	C	1	1	790	1	poli_8sides 3_whiteLine3.jpg	MediumShort_e16_cut1_stereo_44KHz.wav
4	102	4	3	2	I	1	0	1118	1	poli_8sides 6_whiteLine3.jpg	MediumShort_b16_cut3_MS_stereo_44KHz.wav
4	103	1	2	0	C	1	1	630	1	poli_8sides 7_whiteLine3.jpg	MediumShort_b10_cut1_MS_stereo_44KHz.wav
4	104	3	4	2	I	1	0	767	0	poli_8sides 16_whiteLine3.jpg	MediumShort_e22_cut1_stereo_44KHz.wav
4	105	2	1	0	C	1	1	714	1	poli_8sides 3_whiteLine3.jpg	MediumShort_e16_cut1_stereo_44KHz.wav
4	106	1	1	1	C	2	1	780	1	poli_8sides 7_whiteLine3.jpg	MediumShort_e16_cut1_stereo_44KHz.wav
4	107	3	4	2	I	1	0	910	1	poli_8sides 16_whiteLine3.jpg	MediumShort_e22_cut1_stereo_44KHz.wav
4	108	4	4	2	I	2	0	889	0	poli_8sides 6_whiteLine3.jpg	MediumShort_e22_cut1_stereo_44KHz.wav
4	109	1	2	0	C	1	1	626	1	poli_8sides 7_whiteLine3.jpg	MediumShort_b10_cut1_MS_stereo_44KHz.wav
4	110	3	3	2	I	2	0	1641	1	poli_8sides 16_whiteLine3.jpg	MediumShort_b16_cut3_MS_stereo_44KHz.wav
4	111	2	2	1	C	2	1	1172	1	poli_8sides 3_whiteLine3.jpg	MediumShort_b10_cut1_MS_stereo_44KHz.wav
4	112	4	3	2	I	1	0	906	1	poli_8sides 6_whiteLine3.jpg	MediumShort_b16_cut3_MS_stereo_44KHz.wav
4	113	3	4	2	I	1	0	830	0	poli_8sides 16_whiteLine3.jpg	MediumShort_e22_cut1_stereo_44KHz.wav
4	114	2	1	0	C	1	1	1270	1	poli_8sides 3_whiteLine3.jpg	MediumShort_e16_cut1_stereo_44KHz.wav
4	115	4	4	2	I	2	0	1114	0	poli_8sides 6_whiteLine3.jpg	MediumShort_e22_cut1_stereo_44KHz.wav
4	116	1	1	1	C	2	1	885	1	poli_8sides 7_whiteLine3.jpg	MediumShort_e16_cut1_stereo_44KHz.wav
4	117	4	3	2	I	1	0	806	1	poli_8sides 6_whiteLine3.jpg	MediumShort_b16_cut3_MS_stereo_44KHz.wav
4	118	1	2	0	C	1	1	913	1	poli_8sides 7_whiteLine3.jpg	MediumShort_b10_cut1_MS_stereo_44KHz.wav
4	119	2	2	1	C	2	1	827	1	poli_8sides 3_whiteLine3.jpg	MediumShort_b10_cut1_MS_stereo_44KHz.wav
4	120	3	3	2	I	1	0	1270	1	poli_8sides 16_whiteLine3.jpg	MediumShort_b16_cut3_MS_stereo_44KHz.wav
4	121	4	4	2	I	1	0	1424	1	poli_8sides 6_whiteLine3.jpg	MediumShort_e22_cut1_stereo_44KHz.wav
4	122	1	1	1	C	2	1	777	1	poli_8sides 7_whiteLine3.jpg	MediumShort_e16_cut1_stereo_44KHz.wav
4	123	3	4	2	I	2	0	1136	0	poli_8sides 16_whiteLine3.jpg	MediumShort_e22_cut1_stereo_44KHz.wav
4	124	2	2	1	C	2	1	800	1	poli_8sides 3_whiteLine3.jpg	MediumShort_b10_cut1_MS_stereo_44KHz.wav
4	125	4	3	2	I	1	0	805	0	poli_8sides 6_whiteLine3.jpg	MediumShort_b16_cut3_MS_stereo_44KHz.wav
4	126	3	3	2	I	1	0	603	0	poli_8sides 16_whiteLine3.jpg	MediumShort_b16_cut3_MS_stereo_44KHz.wav
4	127	1	2	0	C	1	1	841	1	poli_8sides 7_whiteLine3.jpg	MediumShort_b10_cut1_MS_stereo_44KHz.wav
4	128	2	1	0	C	1	1	1068	1	poli_8sides 3_whiteLine3.jpg	MediumShort_e16_cut1_stereo_44KHz.wav
4	129	3	4	2	I	1	0	599	0	poli_8sides 16_whiteLine3.jpg	MediumShort_e22_cut1_stereo_44KHz.wav
4	130	2	1	0	C	1	1	643	1	poli_8sides 3_whiteLine3.jpg	MediumShort_e16_cut1_stereo_44KHz.wav
4	131	4	4	2	I	1	0	748	0	poli_8sides 6_whiteLine3.jpg	MediumShort_e22_cut1_stereo_44KHz.wav
4	132	1	2	0	C	1	1	584	1	poli_8sides 7_whiteLine3.jpg	MediumShort_b10_cut1_MS_stereo_44KHz.wav
4	133	3	3	2	I	1	0	907	0	poli_8sides 16_whiteLine3.jpg	MediumShort_b16_cut3_MS_stereo_44KHz.wav
4	134	1	1	1	C	2	1	774	1	poli_8sides 7_whiteLine3.jpg	MediumShort_e16_cut1_stereo_44KHz.wav
4	135	4	3	2	I	1	0	932	1	poli_8sides 6_whiteLine3.jpg	MediumShort_b16_cut3_MS_stereo_44KHz.wav
4	136	2	2	1	C	2	1	808	1	poli_8sides 3_whiteLine3.jpg	MediumShort_b10_cut1_MS_stereo_44KHz.wav
4	137	1	1	1	C	2	1	864	1	poli_8sides 7_whiteLine3.jpg	MediumShort_e16_cut1_stereo_44KHz.wav
4	138	4	4	2	I	2	0	1528	1	poli_8sides 6_whiteLine3.jpg	MediumShort_e22_cut1_stereo_44KHz.wav
4	139	2	1	0	C	1	1	979	1	poli_8sides 3_whiteLine3.jpg	MediumShort_e16_cut1_stereo_44KHz.wav
4	140	3	4	2	I	1	0	1188	1	poli_8sides 16_whiteLine3.jpg	MediumShort_e22_cut1_stereo_44KHz.wav
4	141	2	2	1	C	2	1	932	1	poli_8sides 3_whiteLine3.jpg	MediumShort_b10_cut1_MS_stereo_44KHz.wav
4	142	3	3	2	I	2	0	1090	1	poli_8sides 16_whiteLine3.jpg	MediumShort_b16_cut3_MS_stereo_44KHz.wav
4	143	1	2	0	C	1	1	772	1	poli_8sides 7_whiteLine3.jpg	MediumShort_b10_cut1_MS_stereo_44KHz.wav
4	144	4	3	2	I	2	0	1186	1	poli_8sides 6_whiteLine3.jpg	MediumShort_b16_cut3_MS_stereo_44KHz.wav
4	145	3	3	2	I	2	0	953	0	poli_8sides 16_whiteLine3.jpg	MediumShort_b16_cut3_MS_stereo_44KHz.wav
4	146	4	4	2	I	2	0	1381	1	poli_8sides 6_whiteLine3.jpg	MediumShort_e22_cut1_stereo_44KHz.wav
4	147	2	1	0	C	1	1	849	1	poli_8sides 3_whiteLine3.jpg	MediumShort_e16_cut1_stereo_44KHz.wav
4	148	1	2	0	C	1	1	506	1	poli_8sides 7_whiteLine3.jpg	MediumShort_b10_cut1_MS_stereo_44KHz.wav
4	149	3	4	2	I	1	0	854	1	poli_8sides 16_whiteLine3.jpg	MediumShort_e22_cut1_stereo_44KHz.wav
4	150	2	2	1	C	2	1	795	1	poli_8sides 3_whiteLine3.jpg	MediumShort_b10_cut1_MS_stereo_44KHz.wav
4	151	1	1	1	C	2	1	743	1	poli_8sides 7_whiteLine3.jpg	MediumShort_e16_cut1_stereo_44KHz.wav
4	152	4	3	2	I	1	0	1253	1	poli_8sides 6_whiteLine3.jpg	MediumShort_b16_cut3_MS_stereo_44KHz.wav
4	153	2	1	0	C	1	1	919	1	poli_8sides 3_whiteLine3.jpg	MediumShort_e16_cut1_stereo_44KHz.wav
4	154	1	2	0	C	1	1	1039	1	poli_8sides 7_whiteLine3.jpg	MediumShort_b10_cut1_MS_stereo_44KHz.wav
4	155	3	4	2	I	2	0	1320	0	poli_8sides 16_whiteLine3.jpg	MediumShort_e22_cut1_stereo_44KHz.wav
4	156	4	3	2	I	2	0	1216	1	poli_8sides 6_whiteLine3.jpg	MediumShort_b16_cut3_MS_stereo_44KHz.wav
4	157	2	2	1	C	2	1	1236	1	poli_8sides 3_whiteLine3.jpg	MediumShort_b10_cut1_MS_stereo_44KHz.wav
4	158	3	3	2	I	2	0	1720	0	poli_8sides 16_whiteLine3.jpg	MediumShort_b16_cut3_MS_stereo_44KHz.wav
4	159	4	4	2	I	2	0	1065	1	poli_8sides 6_whiteLine3.jpg	MediumShort_e22_cut1_stereo_44KHz.wav
4	160	1	1	1	C	2	1	761	1	poli_8sides 7_whiteLine3.jpg	MediumShort_e16_cut1_stereo_44KHz.wav
4	161	4	3	2	I	2	0	1274	0	poli_8sides 6_whiteLine3.jpg	MediumShort_b16_cut3_MS_stereo_44KHz.wav
4	162	1	2	0	C	1	1	778	1	poli_8sides 7_whiteLine3.jpg	MediumShort_b10_cut1_MS_stereo_44KHz.wav
4	163	3	3	2	I	1	0	879	1	poli_8sides 16_whiteLine3.jpg	MediumShort_b16_cut3_MS_stereo_44KHz.wav
4	164	2	1	0	C	1	1	789	1	poli_8sides 3_whiteLine3.jpg	MediumShort_e16_cut1_stereo_44KHz.wav
4	165	3	4	2	I	1	0	1215	1	poli_8sides 16_whiteLine3.jpg	MediumShort_e22_cut1_stereo_44KHz.wav
4	166	1	1	1	C	2	1	823	1	poli_8sides 7_whiteLine3.jpg	MediumShort_e16_cut1_stereo_44KHz.wav
4	167	2	2	1	C	2	1	1037	1	poli_8sides 3_whiteLine3.jpg	MediumShort_b10_cut1_MS_stereo_44KHz.wav
4	168	4	4	2	I	0	0	0	0	poli_8sides 6_whiteLine3.jpg	MediumShort_e22_cut1_stereo_44KHz.wav
4	169	1	1	1	C	2	1	780	1	poli_8sides 7_whiteLine3.jpg	MediumShort_e16_cut1_stereo_44KHz.wav
4	170	2	1	0	C	1	1	841	1	poli_8sides 3_whiteLine3.jpg	MediumShort_e16_cut1_stereo_44KHz.wav
4	171	4	3	2	I	2	0	1093	1	poli_8sides 6_whiteLine3.jpg	MediumShort_b16_cut3_MS_stereo_44KHz.wav
4	172	3	3	2	I	1	0	784	0	poli_8sides 16_whiteLine3.jpg	MediumShort_b16_cut3_MS_stereo_44KHz.wav
4	173	2	2	1	C	2	1	1007	1	poli_8sides 3_whiteLine3.jpg	MediumShort_b10_cut1_MS_stereo_44KHz.wav
4	174	3	4	2	I	1	0	774	0	poli_8sides 16_whiteLine3.jpg	MediumShort_e22_cut1_stereo_44KHz.wav
4	175	4	4	2	I	1	0	801	0	poli_8sides 6_whiteLine3.jpg	MediumShort_e22_cut1_stereo_44KHz.wav
4	176	1	2	0	C	1	1	713	1	poli_8sides 7_whiteLine3.jpg	MediumShort_b10_cut1_MS_stereo_44KHz.wav
4	177	3	4	2	I	1	0	663	0	poli_8sides 16_whiteLine3.jpg	MediumShort_e22_cut1_stereo_44KHz.wav
4	178	2	1	0	C	1	1	958	1	poli_8sides 3_whiteLine3.jpg	MediumShort_e16_cut1_stereo_44KHz.wav
4	179	1	1	1	C	2	1	1731	1	poli_8sides 7_whiteLine3.jpg	MediumShort_e16_cut1_stereo_44KHz.wav
4	180	4	3	2	I	2	0	1110	1	poli_8sides 6_whiteLine3.jpg	MediumShort_b16_cut3_MS_stereo_44KHz.wav
4	181	1	2	0	C	1	1	669	1	poli_8sides 7_whiteLine3.jpg	MediumShort_b10_cut1_MS_stereo_44KHz.wav
4	182	2	2	1	C	2	1	1057	1	poli_8sides 3_whiteLine3.jpg	MediumShort_b10_cut1_MS_stereo_44KHz.wav
4	183	4	4	2	I	1	0	799	1	poli_8sides 6_whiteLine3.jpg	MediumShort_e22_cut1_stereo_44KHz.wav
4	184	3	3	2	I	1	0	1243	1	poli_8sides 16_whiteLine3.jpg	MediumShort_b16_cut3_MS_stereo_44KHz.wav
4	185	1	2	0	C	1	1	766	1	poli_8sides 7_whiteLine3.jpg	MediumShort_b10_cut1_MS_stereo_44KHz.wav
4	186	3	4	2	I	1	0	804	1	poli_8sides 16_whiteLine3.jpg	MediumShort_e22_cut1_stereo_44KHz.wav
4	187	2	1	0	C	1	1	792	1	poli_8sides 3_whiteLine3.jpg	MediumShort_e16_cut1_stereo_44KHz.wav
4	188	4	3	2	I	2	0	1361	1	poli_8sides 6_whiteLine3.jpg	MediumShort_b16_cut3_MS_stereo_44KHz.wav
4	189	2	2	1	C	2	1	928	1	poli_8sides 3_whiteLine3.jpg	MediumShort_b10_cut1_MS_stereo_44KHz.wav
4	190	1	1	1	C	2	1	792	1	poli_8sides 7_whiteLine3.jpg	MediumShort_e16_cut1_stereo_44KHz.wav
4	191	4	4	2	I	2	0	1346	0	poli_8sides 6_whiteLine3.jpg	MediumShort_e22_cut1_stereo_44KHz.wav
4	192	3	3	2	I	2	0	840	0	poli_8sides 16_whiteLine3.jpg	MediumShort_b16_cut3_MS_stereo_44KHz.wav
4	193	4	4	2	I	1	0	754	1	poli_8sides 6_whiteLine3.jpg	MediumShort_e22_cut1_stereo_44KHz.wav
4	194	1	1	1	C	2	1	817	1	poli_8sides 7_whiteLine3.jpg	MediumShort_e16_cut1_stereo_44KHz.wav
4	195	3	4	2	I	1	0	945	0	poli_8sides 16_whiteLine3.jpg	MediumShort_e22_cut1_stereo_44KHz.wav
4	196	2	1	0	C	1	1	769	1	poli_8sides 3_whiteLine3.jpg	MediumShort_e16_cut1_stereo_44KHz.wav
4	197	4	3	2	I	1	0	833	0	poli_8sides 6_whiteLine3.jpg	MediumShort_b16_cut3_MS_stereo_44KHz.wav
4	198	1	2	0	C	1	1	803	1	poli_8sides 7_whiteLine3.jpg	MediumShort_b10_cut1_MS_stereo_44KHz.wav
4	199	3	3	2	I	1	0	788	0	poli_8sides 16_whiteLine3.jpg	MediumShort_b16_cut3_MS_stereo_44KHz.wav
4	200	2	2	1	C	2	1	787	1	poli_8sides 3_whiteLine3.jpg	MediumShort_b10_cut1_MS_stereo_44KHz.wav
