block	trial	Vstim	Astim	match	C/I	resp	result	RT	fb	V-file	A-file
RL

0	1	2	4	0	C	1	0	1290	0	Ⴉ	cut_eeuw_stereo_44KHz.wav
0	2	2	3	1	C	2	0	1046	0	Ⴉ	cut_oo_stereo_44KHz.wav
0	3	1	2	0	C	2	1	822	1	Ⴋ	cut_g_stereo_44KHz.wav
0	4	1	1	1	C	1	1	1301	1	Ⴋ	cut_ee_stereo_44KHz.wav
0	5	1	1	1	C	2	0	1027	0	Ⴋ	cut_ee_stereo_44KHz.wav
0	6	2	4	0	C	1	0	965	0	Ⴉ	cut_eeuw_stereo_44KHz.wav
0	7	1	2	0	C	2	1	818	1	Ⴋ	cut_g_stereo_44KHz.wav
0	8	2	3	1	C	1	1	1088	1	Ⴉ	cut_oo_stereo_44KHz.wav
0	9	2	4	0	C	2	1	1026	1	Ⴉ	cut_eeuw_stereo_44KHz.wav
0	10	1	1	1	C	1	1	1150	1	Ⴋ	cut_ee_stereo_44KHz.wav
0	11	2	3	1	C	1	1	871	1	Ⴉ	cut_oo_stereo_44KHz.wav
0	12	1	2	0	C	2	1	679	1	Ⴋ	cut_g_stereo_44KHz.wav
0	13	2	3	1	C	1	1	908	1	Ⴉ	cut_oo_stereo_44KHz.wav
0	14	1	2	0	C	2	1	602	1	Ⴋ	cut_g_stereo_44KHz.wav
0	15	2	4	0	C	2	1	704	1	Ⴉ	cut_eeuw_stereo_44KHz.wav
0	16	1	1	1	C	2	0	608	0	Ⴋ	cut_ee_stereo_44KHz.wav
0	17	2	4	0	C	2	1	981	1	Ⴉ	cut_eeuw_stereo_44KHz.wav
0	18	2	3	1	C	2	0	507	0	Ⴉ	cut_oo_stereo_44KHz.wav
0	19	1	1	1	C	1	1	925	1	Ⴋ	cut_ee_stereo_44KHz.wav
0	20	1	2	0	C	2	1	582	1	Ⴋ	cut_g_stereo_44KHz.wav
0	21	1	1	1	C	1	1	876	1	Ⴋ	cut_ee_stereo_44KHz.wav
0	22	1	2	0	C	2	1	538	1	Ⴋ	cut_g_stereo_44KHz.wav
0	23	2	4	0	C	2	1	927	1	Ⴉ	cut_eeuw_stereo_44KHz.wav
0	24	2	3	1	C	1	1	780	1	Ⴉ	cut_oo_stereo_44KHz.wav
0	25	1	2	0	C	2	1	595	1	Ⴋ	cut_g_stereo_44KHz.wav
0	26	2	3	1	C	1	1	834	1	Ⴉ	cut_oo_stereo_44KHz.wav
0	27	2	4	0	C	2	1	615	1	Ⴉ	cut_eeuw_stereo_44KHz.wav
0	28	1	1	1	C	1	1	802	1	Ⴋ	cut_ee_stereo_44KHz.wav
0	29	1	1	1	C	1	1	1173	1	Ⴋ	cut_ee_stereo_44KHz.wav
0	30	2	4	0	C	2	1	845	1	Ⴉ	cut_eeuw_stereo_44KHz.wav
avg_resp = 852
1	1	3	4	2	I	1	0	768	1	Ⴔ	cut_a_stereo_44KHz.wav
1	2	4	4	2	I	2	0	811	1	Ⴐ	cut_a_stereo_44KHz.wav
1	3	2	2	1	C	2	0	919	0	Ⴕ	cut_o_stereo_44KHz.wav
1	4	1	1	1	C	2	0	773	0	Ⴖ	cut_u_stereo_44KHz.wav
1	5	4	3	2	I	1	0	1009	0	Ⴐ	cut_k_stereo_44KHz.wav
1	6	3	3	2	I	2	0	790	1	Ⴔ	cut_k_stereo_44KHz.wav
1	7	2	1	0	C	2	1	856	1	Ⴕ	cut_u_stereo_44KHz.wav
1	8	1	2	0	C	2	1	761	1	Ⴖ	cut_o_stereo_44KHz.wav
1	9	3	3	2	I	2	0	791	1	Ⴔ	cut_k_stereo_44KHz.wav
1	10	1	2	0	C	2	1	410	1	Ⴖ	cut_o_stereo_44KHz.wav
1	11	2	1	0	C	2	1	794	1	Ⴕ	cut_u_stereo_44KHz.wav
1	12	4	4	2	I	2	0	788	1	Ⴐ	cut_a_stereo_44KHz.wav
1	13	2	2	1	C	1	1	1076	1	Ⴕ	cut_o_stereo_44KHz.wav
1	14	1	1	1	C	2	0	822	0	Ⴖ	cut_u_stereo_44KHz.wav
1	15	3	4	2	I	1	0	1292	1	Ⴔ	cut_a_stereo_44KHz.wav
1	16	4	3	2	I	1	0	1129	1	Ⴐ	cut_k_stereo_44KHz.wav
1	17	3	3	2	I	2	0	822	0	Ⴔ	cut_k_stereo_44KHz.wav
1	18	2	1	0	C	2	1	740	1	Ⴕ	cut_u_stereo_44KHz.wav
1	19	1	1	1	C	1	1	897	1	Ⴖ	cut_u_stereo_44KHz.wav
1	20	4	4	2	I	2	0	993	1	Ⴐ	cut_a_stereo_44KHz.wav
1	21	2	2	1	C	2	0	933	0	Ⴕ	cut_o_stereo_44KHz.wav
1	22	3	4	2	I	1	0	802	0	Ⴔ	cut_a_stereo_44KHz.wav
1	23	4	3	2	I	2	0	1328	1	Ⴐ	cut_k_stereo_44KHz.wav
1	24	1	2	0	C	1	0	1409	0	Ⴖ	cut_o_stereo_44KHz.wav
1	25	4	3	2	I	2	0	615	0	Ⴐ	cut_k_stereo_44KHz.wav
1	26	3	4	2	I	2	0	853	1	Ⴔ	cut_a_stereo_44KHz.wav
1	27	2	2	1	C	1	1	1202	1	Ⴕ	cut_o_stereo_44KHz.wav
1	28	1	2	0	C	2	1	1070	1	Ⴖ	cut_o_stereo_44KHz.wav
1	29	4	4	2	I	1	0	1114	0	Ⴐ	cut_a_stereo_44KHz.wav
1	30	2	1	0	C	2	1	599	1	Ⴕ	cut_u_stereo_44KHz.wav
1	31	1	1	1	C	1	1	818	1	Ⴖ	cut_u_stereo_44KHz.wav
1	32	3	3	2	I	1	0	826	0	Ⴔ	cut_k_stereo_44KHz.wav
1	33	4	4	2	I	2	0	1251	0	Ⴐ	cut_a_stereo_44KHz.wav
1	34	2	2	1	C	1	1	871	1	Ⴕ	cut_o_stereo_44KHz.wav
1	35	1	1	1	C	2	0	1506	0	Ⴖ	cut_u_stereo_44KHz.wav
1	36	3	3	2	I	2	0	926	1	Ⴔ	cut_k_stereo_44KHz.wav
1	37	2	1	0	C	2	1	684	1	Ⴕ	cut_u_stereo_44KHz.wav
1	38	1	2	0	C	2	1	927	1	Ⴖ	cut_o_stereo_44KHz.wav
1	39	3	4	2	I	1	0	1430	0	Ⴔ	cut_a_stereo_44KHz.wav
1	40	4	3	2	I	2	0	1275	0	Ⴐ	cut_k_stereo_44KHz.wav
1	41	1	1	1	C	2	0	1138	0	Ⴖ	cut_u_stereo_44KHz.wav
1	42	4	4	2	I	2	0	1699	0	Ⴐ	cut_a_stereo_44KHz.wav
1	43	2	2	1	C	1	1	885	1	Ⴕ	cut_o_stereo_44KHz.wav
1	44	3	3	2	I	2	0	835	1	Ⴔ	cut_k_stereo_44KHz.wav
1	45	1	2	0	C	2	1	972	1	Ⴖ	cut_o_stereo_44KHz.wav
1	46	3	4	2	I	2	0	1043	0	Ⴔ	cut_a_stereo_44KHz.wav
1	47	2	1	0	C	2	1	587	1	Ⴕ	cut_u_stereo_44KHz.wav
1	48	4	3	2	I	0	0	0	0	Ⴐ	cut_k_stereo_44KHz.wav
1	49	3	4	2	I	2	0	722	0	Ⴔ	cut_a_stereo_44KHz.wav
1	50	4	4	2	I	2	0	681	1	Ⴐ	cut_a_stereo_44KHz.wav
1	51	2	1	0	C	2	1	622	1	Ⴕ	cut_u_stereo_44KHz.wav
1	52	1	2	0	C	2	1	678	1	Ⴖ	cut_o_stereo_44KHz.wav
1	53	4	3	2	I	1	0	920	1	Ⴐ	cut_k_stereo_44KHz.wav
1	54	1	1	1	C	2	0	1291	0	Ⴖ	cut_u_stereo_44KHz.wav
1	55	2	2	1	C	1	1	796	1	Ⴕ	cut_o_stereo_44KHz.wav
1	56	3	3	2	I	2	0	834	1	Ⴔ	cut_k_stereo_44KHz.wav
1	57	2	1	0	C	2	1	584	1	Ⴕ	cut_u_stereo_44KHz.wav
1	58	3	3	2	I	2	0	630	1	Ⴔ	cut_k_stereo_44KHz.wav
1	59	4	3	2	I	1	0	964	1	Ⴐ	cut_k_stereo_44KHz.wav
1	60	1	2	0	C	2	1	379	1	Ⴖ	cut_o_stereo_44KHz.wav
1	61	2	2	1	C	1	1	789	1	Ⴕ	cut_o_stereo_44KHz.wav
1	62	4	4	2	I	2	0	459	0	Ⴐ	cut_a_stereo_44KHz.wav
1	63	3	4	2	I	1	0	876	1	Ⴔ	cut_a_stereo_44KHz.wav
1	64	1	1	1	C	1	1	834	1	Ⴖ	cut_u_stereo_44KHz.wav
1	65	4	4	2	I	2	0	732	1	Ⴐ	cut_a_stereo_44KHz.wav
1	66	3	3	2	I	1	0	800	1	Ⴔ	cut_k_stereo_44KHz.wav
1	67	1	1	1	C	1	1	794	1	Ⴖ	cut_u_stereo_44KHz.wav
1	68	2	1	0	C	2	1	606	1	Ⴕ	cut_u_stereo_44KHz.wav
1	69	4	3	2	I	2	0	1070	1	Ⴐ	cut_k_stereo_44KHz.wav
1	70	2	2	1	C	1	1	824	1	Ⴕ	cut_o_stereo_44KHz.wav
1	71	1	2	0	C	2	1	710	1	Ⴖ	cut_o_stereo_44KHz.wav
1	72	3	4	2	I	1	0	1138	0	Ⴔ	cut_a_stereo_44KHz.wav
1	73	2	1	0	C	2	1	979	1	Ⴕ	cut_u_stereo_44KHz.wav
1	74	1	1	1	C	1	1	716	1	Ⴖ	cut_u_stereo_44KHz.wav
1	75	4	3	2	I	2	0	902	0	Ⴐ	cut_k_stereo_44KHz.wav
1	76	3	4	2	I	1	0	1258	1	Ⴔ	cut_a_stereo_44KHz.wav
1	77	4	4	2	I	2	0	1134	0	Ⴐ	cut_a_stereo_44KHz.wav
1	78	1	2	0	C	2	1	805	1	Ⴖ	cut_o_stereo_44KHz.wav
1	79	3	3	2	I	2	0	720	0	Ⴔ	cut_k_stereo_44KHz.wav
1	80	2	2	1	C	1	1	852	1	Ⴕ	cut_o_stereo_44KHz.wav
1	81	4	3	2	I	2	0	831	1	Ⴐ	cut_k_stereo_44KHz.wav
1	82	1	1	1	C	1	1	847	1	Ⴖ	cut_u_stereo_44KHz.wav
1	83	2	1	0	C	2	1	553	1	Ⴕ	cut_u_stereo_44KHz.wav
1	84	3	3	2	I	1	0	826	0	Ⴔ	cut_k_stereo_44KHz.wav
1	85	1	2	0	C	2	1	825	1	Ⴖ	cut_o_stereo_44KHz.wav
1	86	4	4	2	I	2	0	1051	0	Ⴐ	cut_a_stereo_44KHz.wav
1	87	3	4	2	I	1	0	1302	1	Ⴔ	cut_a_stereo_44KHz.wav
1	88	2	2	1	C	1	1	806	1	Ⴕ	cut_o_stereo_44KHz.wav
1	89	1	1	1	C	1	1	808	1	Ⴖ	cut_u_stereo_44KHz.wav
1	90	4	4	2	I	2	0	748	0	Ⴐ	cut_a_stereo_44KHz.wav
1	91	2	2	1	C	1	1	666	1	Ⴕ	cut_o_stereo_44KHz.wav
1	92	3	3	2	I	2	0	681	0	Ⴔ	cut_k_stereo_44KHz.wav
1	93	4	3	2	I	1	0	1054	0	Ⴐ	cut_k_stereo_44KHz.wav
1	94	2	1	0	C	2	1	834	1	Ⴕ	cut_u_stereo_44KHz.wav
1	95	1	2	0	C	2	1	802	1	Ⴖ	cut_o_stereo_44KHz.wav
1	96	3	4	2	I	2	0	1038	1	Ⴔ	cut_a_stereo_44KHz.wav
1	97	1	2	0	C	2	1	598	1	Ⴖ	cut_o_stereo_44KHz.wav
1	98	3	4	2	I	2	0	885	0	Ⴔ	cut_a_stereo_44KHz.wav
1	99	2	1	0	C	2	1	900	1	Ⴕ	cut_u_stereo_44KHz.wav
1	100	4	4	2	I	2	0	1008	1	Ⴐ	cut_a_stereo_44KHz.wav
1	101	1	1	1	C	1	1	732	1	Ⴖ	cut_u_stereo_44KHz.wav
1	102	3	3	2	I	2	0	1199	1	Ⴔ	cut_k_stereo_44KHz.wav
1	103	2	2	1	C	1	1	883	1	Ⴕ	cut_o_stereo_44KHz.wav
1	104	4	3	2	I	1	0	1136	1	Ⴐ	cut_k_stereo_44KHz.wav
1	105	3	3	2	I	2	0	864	1	Ⴔ	cut_k_stereo_44KHz.wav
1	106	1	1	1	C	1	1	851	1	Ⴖ	cut_u_stereo_44KHz.wav
1	107	2	2	1	C	1	1	696	1	Ⴕ	cut_o_stereo_44KHz.wav
1	108	4	3	2	I	2	0	1088	0	Ⴐ	cut_k_stereo_44KHz.wav
1	109	1	2	0	C	2	1	769	1	Ⴖ	cut_o_stereo_44KHz.wav
1	110	3	4	2	I	2	0	562	0	Ⴔ	cut_a_stereo_44KHz.wav
1	111	4	4	2	I	2	0	626	0	Ⴐ	cut_a_stereo_44KHz.wav
1	112	2	1	0	C	2	1	1505	1	Ⴕ	cut_u_stereo_44KHz.wav
1	113	3	3	2	I	2	0	678	1	Ⴔ	cut_k_stereo_44KHz.wav
1	114	4	4	2	I	2	0	674	0	Ⴐ	cut_a_stereo_44KHz.wav
1	115	2	1	0	C	2	1	793	1	Ⴕ	cut_u_stereo_44KHz.wav
1	116	1	1	1	C	1	1	722	1	Ⴖ	cut_u_stereo_44KHz.wav
1	117	4	3	2	I	1	0	895	1	Ⴐ	cut_k_stereo_44KHz.wav
1	118	3	4	2	I	1	0	888	0	Ⴔ	cut_a_stereo_44KHz.wav
1	119	2	2	1	C	1	1	1063	1	Ⴕ	cut_o_stereo_44KHz.wav
1	120	1	2	0	C	2	1	798	1	Ⴖ	cut_o_stereo_44KHz.wav
1	121	4	3	2	I	2	0	738	1	Ⴐ	cut_k_stereo_44KHz.wav
1	122	3	3	2	I	2	0	507	0	Ⴔ	cut_k_stereo_44KHz.wav
1	123	1	1	1	C	1	1	711	1	Ⴖ	cut_u_stereo_44KHz.wav
1	124	2	2	1	C	1	1	1240	1	Ⴕ	cut_o_stereo_44KHz.wav
1	125	3	4	2	I	2	0	790	1	Ⴔ	cut_a_stereo_44KHz.wav
1	126	1	2	0	C	2	1	688	1	Ⴖ	cut_o_stereo_44KHz.wav
1	127	4	4	2	I	2	0	619	1	Ⴐ	cut_a_stereo_44KHz.wav
1	128	2	1	0	C	2	1	662	1	Ⴕ	cut_u_stereo_44KHz.wav
1	129	3	3	2	I	2	0	701	0	Ⴔ	cut_k_stereo_44KHz.wav
1	130	4	4	2	I	2	0	920	0	Ⴐ	cut_a_stereo_44KHz.wav
1	131	2	1	0	C	2	1	883	1	Ⴕ	cut_u_stereo_44KHz.wav
1	132	1	1	1	C	1	1	796	1	Ⴖ	cut_u_stereo_44KHz.wav
1	133	3	4	2	I	2	0	442	0	Ⴔ	cut_a_stereo_44KHz.wav
1	134	4	3	2	I	2	0	806	1	Ⴐ	cut_k_stereo_44KHz.wav
1	135	2	2	1	C	1	1	1066	1	Ⴕ	cut_o_stereo_44KHz.wav
1	136	1	2	0	C	2	1	749	1	Ⴖ	cut_o_stereo_44KHz.wav
1	137	2	2	1	C	1	1	802	1	Ⴕ	cut_o_stereo_44KHz.wav
1	138	4	4	2	I	2	0	845	1	Ⴐ	cut_a_stereo_44KHz.wav
1	139	1	1	1	C	1	1	848	1	Ⴖ	cut_u_stereo_44KHz.wav
1	140	3	4	2	I	1	0	977	0	Ⴔ	cut_a_stereo_44KHz.wav
1	141	1	2	0	C	2	1	718	1	Ⴖ	cut_o_stereo_44KHz.wav
1	142	2	1	0	C	2	1	699	1	Ⴕ	cut_u_stereo_44KHz.wav
1	143	3	3	2	I	2	0	770	0	Ⴔ	cut_k_stereo_44KHz.wav
1	144	4	3	2	I	2	0	1157	1	Ⴐ	cut_k_stereo_44KHz.wav
1	145	3	3	2	I	2	0	1587	1	Ⴔ	cut_k_stereo_44KHz.wav
1	146	4	4	2	I	2	0	1031	0	Ⴐ	cut_a_stereo_44KHz.wav
1	147	2	2	1	C	1	1	763	1	Ⴕ	cut_o_stereo_44KHz.wav
1	148	1	1	1	C	1	1	796	1	Ⴖ	cut_u_stereo_44KHz.wav
1	149	2	1	0	C	2	1	822	1	Ⴕ	cut_u_stereo_44KHz.wav
1	150	4	3	2	I	2	0	905	1	Ⴐ	cut_k_stereo_44KHz.wav
1	151	1	2	0	C	1	0	785	0	Ⴖ	cut_o_stereo_44KHz.wav
1	152	3	4	2	I	2	0	758	1	Ⴔ	cut_a_stereo_44KHz.wav
1	153	1	2	0	C	2	1	639	1	Ⴖ	cut_o_stereo_44KHz.wav
1	154	4	4	2	I	2	0	755	0	Ⴐ	cut_a_stereo_44KHz.wav
1	155	3	3	2	I	2	0	1099	0	Ⴔ	cut_k_stereo_44KHz.wav
1	156	2	1	0	C	2	1	716	1	Ⴕ	cut_u_stereo_44KHz.wav
1	157	4	3	2	I	2	0	789	0	Ⴐ	cut_k_stereo_44KHz.wav
1	158	2	2	1	C	1	1	791	1	Ⴕ	cut_o_stereo_44KHz.wav
1	159	1	1	1	C	1	1	759	1	Ⴖ	cut_u_stereo_44KHz.wav
1	160	3	4	2	I	2	0	961	0	Ⴔ	cut_a_stereo_44KHz.wav
1	161	2	2	1	C	1	1	877	1	Ⴕ	cut_o_stereo_44KHz.wav
1	162	3	4	2	I	2	0	1094	0	Ⴔ	cut_a_stereo_44KHz.wav
1	163	4	4	2	I	2	0	580	1	Ⴐ	cut_a_stereo_44KHz.wav
1	164	1	2	0	C	2	1	652	1	Ⴖ	cut_o_stereo_44KHz.wav
1	165	3	3	2	I	1	0	537	0	Ⴔ	cut_k_stereo_44KHz.wav
1	166	2	1	0	C	2	1	720	1	Ⴕ	cut_u_stereo_44KHz.wav
1	167	4	3	2	I	1	0	885	0	Ⴐ	cut_k_stereo_44KHz.wav
1	168	1	1	1	C	1	1	800	1	Ⴖ	cut_u_stereo_44KHz.wav
1	169	4	4	2	I	2	0	849	1	Ⴐ	cut_a_stereo_44KHz.wav
1	170	3	4	2	I	1	0	752	1	Ⴔ	cut_a_stereo_44KHz.wav
1	171	1	1	1	C	1	1	759	1	Ⴖ	cut_u_stereo_44KHz.wav
1	172	2	2	1	C	1	1	703	1	Ⴕ	cut_o_stereo_44KHz.wav
1	173	1	2	0	C	2	1	1093	1	Ⴖ	cut_o_stereo_44KHz.wav
1	174	4	3	2	I	2	0	1094	1	Ⴐ	cut_k_stereo_44KHz.wav
1	175	3	3	2	I	2	0	551	0	Ⴔ	cut_k_stereo_44KHz.wav
1	176	2	1	0	C	2	1	929	1	Ⴕ	cut_u_stereo_44KHz.wav
1	177	1	1	1	C	1	1	787	1	Ⴖ	cut_u_stereo_44KHz.wav
1	178	2	1	0	C	2	1	684	1	Ⴕ	cut_u_stereo_44KHz.wav
1	179	3	4	2	I	2	0	983	0	Ⴔ	cut_a_stereo_44KHz.wav
1	180	4	4	2	I	2	0	760	0	Ⴐ	cut_a_stereo_44KHz.wav
1	181	3	3	2	I	2	0	633	1	Ⴔ	cut_k_stereo_44KHz.wav
1	182	2	2	1	C	1	1	686	1	Ⴕ	cut_o_stereo_44KHz.wav
1	183	4	3	2	I	2	0	743	0	Ⴐ	cut_k_stereo_44KHz.wav
1	184	1	2	0	C	2	1	796	1	Ⴖ	cut_o_stereo_44KHz.wav
1	185	4	3	2	I	2	0	733	1	Ⴐ	cut_k_stereo_44KHz.wav
1	186	3	3	2	I	2	0	723	1	Ⴔ	cut_k_stereo_44KHz.wav
1	187	1	1	1	C	1	1	789	1	Ⴖ	cut_u_stereo_44KHz.wav
1	188	2	2	1	C	2	0	910	0	Ⴕ	cut_o_stereo_44KHz.wav
1	189	4	4	2	I	2	0	715	1	Ⴐ	cut_a_stereo_44KHz.wav
1	190	3	4	2	I	2	0	935	1	Ⴔ	cut_a_stereo_44KHz.wav
1	191	1	2	0	C	2	1	640	1	Ⴖ	cut_o_stereo_44KHz.wav
1	192	2	1	0	C	2	1	570	1	Ⴕ	cut_u_stereo_44KHz.wav
1	193	4	3	2	I	2	0	726	0	Ⴐ	cut_k_stereo_44KHz.wav
1	194	1	1	1	C	1	1	875	1	Ⴖ	cut_u_stereo_44KHz.wav
1	195	3	4	2	I	2	0	480	1	Ⴔ	cut_a_stereo_44KHz.wav
1	196	2	2	1	C	1	1	910	1	Ⴕ	cut_o_stereo_44KHz.wav
1	197	4	4	2	I	2	0	628	0	Ⴐ	cut_a_stereo_44KHz.wav
1	198	3	3	2	I	2	0	622	0	Ⴔ	cut_k_stereo_44KHz.wav
1	199	2	1	0	C	2	1	701	1	Ⴕ	cut_u_stereo_44KHz.wav
1	200	1	2	0	C	2	1	373	1	Ⴖ	cut_o_stereo_44KHz.wav
2	1	1	1	1	C	2	0	1097	0	Ⴇ	cut_r_stereo_44KHz.wav
2	2	4	3	2	I	2	0	813	0	Ⴁ	cut_j_stereo_44KHz.wav
2	3	2	2	1	C	2	0	760	0	Ⴜ	cut_ui_stereo_44KHz.wav
2	4	3	4	2	I	2	0	628	1	Ⴟ	cut_s_stereo_44KHz.wav
2	5	1	2	0	C	2	1	1035	1	Ⴇ	cut_ui_stereo_44KHz.wav
2	6	4	4	2	I	1	0	872	1	Ⴁ	cut_s_stereo_44KHz.wav
2	7	2	1	0	C	1	0	1091	0	Ⴜ	cut_r_stereo_44KHz.wav
2	8	3	3	2	I	1	0	1380	0	Ⴟ	cut_j_stereo_44KHz.wav
2	9	2	1	0	C	2	1	852	1	Ⴜ	cut_r_stereo_44KHz.wav
2	10	3	4	2	I	2	0	594	1	Ⴟ	cut_s_stereo_44KHz.wav
2	11	1	2	0	C	2	1	946	1	Ⴇ	cut_ui_stereo_44KHz.wav
2	12	4	4	2	I	1	0	841	1	Ⴁ	cut_s_stereo_44KHz.wav
2	13	2	2	1	C	1	1	891	1	Ⴜ	cut_ui_stereo_44KHz.wav
2	14	3	3	2	I	1	0	710	1	Ⴟ	cut_j_stereo_44KHz.wav
2	15	1	1	1	C	1	1	1159	1	Ⴇ	cut_r_stereo_44KHz.wav
2	16	4	3	2	I	2	0	677	0	Ⴁ	cut_j_stereo_44KHz.wav
2	17	3	3	2	I	1	0	834	1	Ⴟ	cut_j_stereo_44KHz.wav
2	18	2	2	1	C	1	1	768	1	Ⴜ	cut_ui_stereo_44KHz.wav
2	19	1	2	0	C	2	1	798	1	Ⴇ	cut_ui_stereo_44KHz.wav
2	20	4	3	2	I	2	0	795	0	Ⴁ	cut_j_stereo_44KHz.wav
2	21	3	4	2	I	2	0	566	0	Ⴟ	cut_s_stereo_44KHz.wav
2	22	1	1	1	C	1	1	1038	1	Ⴇ	cut_r_stereo_44KHz.wav
2	23	4	4	2	I	1	0	1013	0	Ⴁ	cut_s_stereo_44KHz.wav
2	24	2	1	0	C	2	1	797	1	Ⴜ	cut_r_stereo_44KHz.wav
2	25	4	4	2	I	1	0	707	0	Ⴁ	cut_s_stereo_44KHz.wav
2	26	2	1	0	C	2	1	651	1	Ⴜ	cut_r_stereo_44KHz.wav
2	27	3	4	2	I	2	0	663	0	Ⴟ	cut_s_stereo_44KHz.wav
2	28	1	2	0	C	2	1	818	1	Ⴇ	cut_ui_stereo_44KHz.wav
2	29	4	3	2	I	2	0	742	1	Ⴁ	cut_j_stereo_44KHz.wav
2	30	1	1	1	C	1	1	980	1	Ⴇ	cut_r_stereo_44KHz.wav
2	31	3	3	2	I	2	0	581	0	Ⴟ	cut_j_stereo_44KHz.wav
2	32	2	2	1	C	1	1	1049	1	Ⴜ	cut_ui_stereo_44KHz.wav
2	33	4	3	2	I	2	0	712	1	Ⴁ	cut_j_stereo_44KHz.wav
2	34	3	4	2	I	2	0	749	0	Ⴟ	cut_s_stereo_44KHz.wav
2	35	2	2	1	C	1	1	957	1	Ⴜ	cut_ui_stereo_44KHz.wav
2	36	1	2	0	C	2	1	878	1	Ⴇ	cut_ui_stereo_44KHz.wav
2	37	3	3	2	I	1	0	835	0	Ⴟ	cut_j_stereo_44KHz.wav
2	38	1	1	1	C	2	0	882	0	Ⴇ	cut_r_stereo_44KHz.wav
2	39	4	4	2	I	1	0	884	1	Ⴁ	cut_s_stereo_44KHz.wav
2	40	2	1	0	C	2	1	755	1	Ⴜ	cut_r_stereo_44KHz.wav
2	41	3	3	2	I	1	0	824	1	Ⴟ	cut_j_stereo_44KHz.wav
2	42	2	1	0	C	2	1	658	1	Ⴜ	cut_r_stereo_44KHz.wav
2	43	4	3	2	I	2	0	811	1	Ⴁ	cut_j_stereo_44KHz.wav
2	44	1	2	0	C	2	1	805	1	Ⴇ	cut_ui_stereo_44KHz.wav
2	45	4	4	2	I	1	0	864	0	Ⴁ	cut_s_stereo_44KHz.wav
2	46	1	1	1	C	1	1	1023	1	Ⴇ	cut_r_stereo_44KHz.wav
2	47	2	2	1	C	1	1	834	1	Ⴜ	cut_ui_stereo_44KHz.wav
2	48	3	4	2	I	2	0	712	1	Ⴟ	cut_s_stereo_44KHz.wav
2	49	2	1	0	C	2	1	748	1	Ⴜ	cut_r_stereo_44KHz.wav
2	50	4	4	2	I	2	0	817	0	Ⴁ	cut_s_stereo_44KHz.wav
2	51	3	3	2	I	1	0	942	1	Ⴟ	cut_j_stereo_44KHz.wav
2	52	1	2	0	C	2	1	592	1	Ⴇ	cut_ui_stereo_44KHz.wav
2	53	4	3	2	I	2	0	638	1	Ⴁ	cut_j_stereo_44KHz.wav
2	54	1	1	1	C	1	1	841	1	Ⴇ	cut_r_stereo_44KHz.wav
2	55	3	4	2	I	2	0	680	0	Ⴟ	cut_s_stereo_44KHz.wav
2	56	2	2	1	C	1	1	1031	1	Ⴜ	cut_ui_stereo_44KHz.wav
2	57	3	3	2	I	2	0	713	0	Ⴟ	cut_j_stereo_44KHz.wav
2	58	4	4	2	I	2	0	1019	0	Ⴁ	cut_s_stereo_44KHz.wav
2	59	2	2	1	C	1	1	858	1	Ⴜ	cut_ui_stereo_44KHz.wav
2	60	1	1	1	C	2	0	1087	0	Ⴇ	cut_r_stereo_44KHz.wav
2	61	2	1	0	C	2	1	632	1	Ⴜ	cut_r_stereo_44KHz.wav
2	62	4	3	2	I	2	0	637	0	Ⴁ	cut_j_stereo_44KHz.wav
2	63	1	2	0	C	2	1	790	1	Ⴇ	cut_ui_stereo_44KHz.wav
2	64	3	4	2	I	1	0	885	0	Ⴟ	cut_s_stereo_44KHz.wav
2	65	2	1	0	C	2	1	681	1	Ⴜ	cut_r_stereo_44KHz.wav
2	66	1	1	1	C	1	1	896	1	Ⴇ	cut_r_stereo_44KHz.wav
2	67	4	4	2	I	2	0	931	0	Ⴁ	cut_s_stereo_44KHz.wav
2	68	3	3	2	I	1	0	1096	1	Ⴟ	cut_j_stereo_44KHz.wav
2	69	2	2	1	C	1	1	1340	1	Ⴜ	cut_ui_stereo_44KHz.wav
2	70	4	3	2	I	2	0	641	1	Ⴁ	cut_j_stereo_44KHz.wav
2	71	3	4	2	I	2	0	437	1	Ⴟ	cut_s_stereo_44KHz.wav
2	72	1	2	0	C	2	1	636	1	Ⴇ	cut_ui_stereo_44KHz.wav
2	73	4	3	2	I	2	0	688	1	Ⴁ	cut_j_stereo_44KHz.wav
2	74	2	2	1	C	1	1	555	1	Ⴜ	cut_ui_stereo_44KHz.wav
2	75	3	4	2	I	2	0	686	0	Ⴟ	cut_s_stereo_44KHz.wav
2	76	1	2	0	C	2	1	733	1	Ⴇ	cut_ui_stereo_44KHz.wav
2	77	2	1	0	C	2	1	649	1	Ⴜ	cut_r_stereo_44KHz.wav
2	78	3	3	2	I	1	0	924	1	Ⴟ	cut_j_stereo_44KHz.wav
2	79	4	4	2	I	1	0	841	1	Ⴁ	cut_s_stereo_44KHz.wav
2	80	1	1	1	C	2	0	874	0	Ⴇ	cut_r_stereo_44KHz.wav
2	81	2	1	0	C	2	1	405	1	Ⴜ	cut_r_stereo_44KHz.wav
2	82	1	1	1	C	1	1	655	1	Ⴇ	cut_r_stereo_44KHz.wav
2	83	4	3	2	I	2	0	845	0	Ⴁ	cut_j_stereo_44KHz.wav
2	84	3	4	2	I	2	0	894	0	Ⴟ	cut_s_stereo_44KHz.wav
2	85	4	4	2	I	2	0	973	1	Ⴁ	cut_s_stereo_44KHz.wav
2	86	3	3	2	I	2	0	591	1	Ⴟ	cut_j_stereo_44KHz.wav
2	87	2	2	1	C	1	1	995	1	Ⴜ	cut_ui_stereo_44KHz.wav
2	88	1	2	0	C	2	1	627	1	Ⴇ	cut_ui_stereo_44KHz.wav
2	89	3	3	2	I	1	0	846	0	Ⴟ	cut_j_stereo_44KHz.wav
2	90	1	1	1	C	1	1	908	1	Ⴇ	cut_r_stereo_44KHz.wav
2	91	2	2	1	C	2	0	1049	0	Ⴜ	cut_ui_stereo_44KHz.wav
2	92	4	4	2	I	2	0	576	1	Ⴁ	cut_s_stereo_44KHz.wav
2	93	1	2	0	C	2	1	737	1	Ⴇ	cut_ui_stereo_44KHz.wav
2	94	3	4	2	I	1	0	1013	1	Ⴟ	cut_s_stereo_44KHz.wav
2	95	4	3	2	I	2	0	1308	1	Ⴁ	cut_j_stereo_44KHz.wav
2	96	2	1	0	C	2	1	960	1	Ⴜ	cut_r_stereo_44KHz.wav
2	97	4	4	2	I	1	0	893	1	Ⴁ	cut_s_stereo_44KHz.wav
2	98	1	2	0	C	2	1	797	1	Ⴇ	cut_ui_stereo_44KHz.wav
2	99	2	1	0	C	2	1	600	1	Ⴜ	cut_r_stereo_44KHz.wav
2	100	3	4	2	I	2	0	601	1	Ⴟ	cut_s_stereo_44KHz.wav
2	101	1	1	1	C	1	1	1109	1	Ⴇ	cut_r_stereo_44KHz.wav
2	102	4	3	2	I	2	0	785	0	Ⴁ	cut_j_stereo_44KHz.wav
2	103	2	2	1	C	2	0	634	0	Ⴜ	cut_ui_stereo_44KHz.wav
2	104	3	3	2	I	2	0	647	0	Ⴟ	cut_j_stereo_44KHz.wav
2	105	4	3	2	I	2	0	580	1	Ⴁ	cut_j_stereo_44KHz.wav
2	106	2	2	1	C	1	1	843	1	Ⴜ	cut_ui_stereo_44KHz.wav
2	107	1	2	0	C	2	1	659	1	Ⴇ	cut_ui_stereo_44KHz.wav
2	108	3	3	2	I	2	0	832	0	Ⴟ	cut_j_stereo_44KHz.wav
2	109	4	4	2	I	1	0	849	1	Ⴁ	cut_s_stereo_44KHz.wav
2	110	1	1	1	C	1	1	919	1	Ⴇ	cut_r_stereo_44KHz.wav
2	111	2	1	0	C	2	1	599	1	Ⴜ	cut_r_stereo_44KHz.wav
2	112	3	4	2	I	2	0	580	0	Ⴟ	cut_s_stereo_44KHz.wav
2	113	4	4	2	I	1	0	807	1	Ⴁ	cut_s_stereo_44KHz.wav
2	114	2	1	0	C	2	1	763	1	Ⴜ	cut_r_stereo_44KHz.wav
2	115	1	2	0	C	2	1	784	1	Ⴇ	cut_ui_stereo_44KHz.wav
2	116	3	4	2	I	2	0	691	0	Ⴟ	cut_s_stereo_44KHz.wav
2	117	1	1	1	C	1	1	1546	1	Ⴇ	cut_r_stereo_44KHz.wav
2	118	2	2	1	C	1	1	727	1	Ⴜ	cut_ui_stereo_44KHz.wav
2	119	4	3	2	I	2	0	803	0	Ⴁ	cut_j_stereo_44KHz.wav
2	120	3	3	2	I	2	0	675	0	Ⴟ	cut_j_stereo_44KHz.wav
2	121	2	2	1	C	1	1	981	1	Ⴜ	cut_ui_stereo_44KHz.wav
2	122	1	1	1	C	1	1	861	1	Ⴇ	cut_r_stereo_44KHz.wav
2	123	3	4	2	I	2	0	752	1	Ⴟ	cut_s_stereo_44KHz.wav
2	124	4	3	2	I	2	0	435	1	Ⴁ	cut_j_stereo_44KHz.wav
2	125	3	3	2	I	1	0	766	1	Ⴟ	cut_j_stereo_44KHz.wav
2	126	2	1	0	C	2	1	618	1	Ⴜ	cut_r_stereo_44KHz.wav
2	127	4	4	2	I	1	0	975	0	Ⴁ	cut_s_stereo_44KHz.wav
2	128	1	2	0	C	1	0	759	0	Ⴇ	cut_ui_stereo_44KHz.wav
2	129	2	2	1	C	1	1	747	1	Ⴜ	cut_ui_stereo_44KHz.wav
2	130	1	2	0	C	2	1	694	1	Ⴇ	cut_ui_stereo_44KHz.wav
2	131	4	3	2	I	2	0	558	0	Ⴁ	cut_j_stereo_44KHz.wav
2	132	3	4	2	I	2	0	583	1	Ⴟ	cut_s_stereo_44KHz.wav
2	133	2	1	0	C	2	1	652	1	Ⴜ	cut_r_stereo_44KHz.wav
2	134	1	1	1	C	1	1	786	1	Ⴇ	cut_r_stereo_44KHz.wav
2	135	4	4	2	I	1	0	1053	1	Ⴁ	cut_s_stereo_44KHz.wav
2	136	3	3	2	I	1	0	597	1	Ⴟ	cut_j_stereo_44KHz.wav
2	137	2	1	0	C	2	1	532	1	Ⴜ	cut_r_stereo_44KHz.wav
2	138	1	2	0	C	2	1	694	1	Ⴇ	cut_ui_stereo_44KHz.wav
2	139	3	4	2	I	2	0	677	0	Ⴟ	cut_s_stereo_44KHz.wav
2	140	4	3	2	I	2	0	740	0	Ⴁ	cut_j_stereo_44KHz.wav
2	141	1	1	1	C	1	1	1044	1	Ⴇ	cut_r_stereo_44KHz.wav
2	142	3	3	2	I	1	0	1564	0	Ⴟ	cut_j_stereo_44KHz.wav
2	143	2	2	1	C	1	1	780	1	Ⴜ	cut_ui_stereo_44KHz.wav
2	144	4	4	2	I	2	0	833	1	Ⴁ	cut_s_stereo_44KHz.wav
2	145	1	1	1	C	1	1	1223	1	Ⴇ	cut_r_stereo_44KHz.wav
2	146	3	3	2	I	2	0	893	1	Ⴟ	cut_j_stereo_44KHz.wav
2	147	2	1	0	C	2	1	893	1	Ⴜ	cut_r_stereo_44KHz.wav
2	148	4	4	2	I	2	0	840	1	Ⴁ	cut_s_stereo_44KHz.wav
2	149	3	4	2	I	1	0	1025	1	Ⴟ	cut_s_stereo_44KHz.wav
2	150	2	2	1	C	2	0	731	0	Ⴜ	cut_ui_stereo_44KHz.wav
2	151	4	3	2	I	2	0	1212	0	Ⴁ	cut_j_stereo_44KHz.wav
2	152	1	2	0	C	2	1	715	1	Ⴇ	cut_ui_stereo_44KHz.wav
2	153	2	2	1	C	1	1	906	1	Ⴜ	cut_ui_stereo_44KHz.wav
2	154	3	4	2	I	1	0	1059	0	Ⴟ	cut_s_stereo_44KHz.wav
2	155	4	4	2	I	1	0	1018	1	Ⴁ	cut_s_stereo_44KHz.wav
2	156	1	1	1	C	1	1	978	1	Ⴇ	cut_r_stereo_44KHz.wav
2	157	3	3	2	I	1	0	1111	0	Ⴟ	cut_j_stereo_44KHz.wav
2	158	4	3	2	I	1	0	990	0	Ⴁ	cut_j_stereo_44KHz.wav
2	159	1	2	0	C	2	1	941	1	Ⴇ	cut_ui_stereo_44KHz.wav
2	160	2	1	0	C	2	1	631	1	Ⴜ	cut_r_stereo_44KHz.wav
2	161	1	1	1	C	1	1	681	1	Ⴇ	cut_r_stereo_44KHz.wav
2	162	2	2	1	C	1	1	775	1	Ⴜ	cut_ui_stereo_44KHz.wav
2	163	3	3	2	I	1	0	1089	0	Ⴟ	cut_j_stereo_44KHz.wav
2	164	4	4	2	I	2	0	1078	0	Ⴁ	cut_s_stereo_44KHz.wav
2	165	3	4	2	I	2	0	516	1	Ⴟ	cut_s_stereo_44KHz.wav
2	166	1	2	0	C	2	1	679	1	Ⴇ	cut_ui_stereo_44KHz.wav
2	167	2	1	0	C	2	1	818	1	Ⴜ	cut_r_stereo_44KHz.wav
2	168	4	3	2	I	2	0	696	1	Ⴁ	cut_j_stereo_44KHz.wav
2	169	1	1	1	C	1	1	830	1	Ⴇ	cut_r_stereo_44KHz.wav
2	170	3	4	2	I	2	0	791	1	Ⴟ	cut_s_stereo_44KHz.wav
2	171	4	4	2	I	1	0	794	0	Ⴁ	cut_s_stereo_44KHz.wav
2	172	2	2	1	C	1	1	704	1	Ⴜ	cut_ui_stereo_44KHz.wav
2	173	1	2	0	C	2	1	571	1	Ⴇ	cut_ui_stereo_44KHz.wav
2	174	3	3	2	I	2	0	865	1	Ⴟ	cut_j_stereo_44KHz.wav
2	175	4	3	2	I	2	0	1007	1	Ⴁ	cut_j_stereo_44KHz.wav
2	176	2	1	0	C	2	1	784	1	Ⴜ	cut_r_stereo_44KHz.wav
2	177	4	4	2	I	2	0	829	0	Ⴁ	cut_s_stereo_44KHz.wav
2	178	3	4	2	I	2	0	836	1	Ⴟ	cut_s_stereo_44KHz.wav
2	179	1	2	0	C	2	1	933	1	Ⴇ	cut_ui_stereo_44KHz.wav
2	180	2	1	0	C	2	1	787	1	Ⴜ	cut_r_stereo_44KHz.wav
2	181	4	3	2	I	2	0	745	0	Ⴁ	cut_j_stereo_44KHz.wav
2	182	2	2	1	C	1	1	998	1	Ⴜ	cut_ui_stereo_44KHz.wav
2	183	1	1	1	C	1	1	990	1	Ⴇ	cut_r_stereo_44KHz.wav
2	184	3	3	2	I	2	0	913	1	Ⴟ	cut_j_stereo_44KHz.wav
2	185	2	1	0	C	2	1	845	1	Ⴜ	cut_r_stereo_44KHz.wav
2	186	3	3	2	I	1	0	1303	0	Ⴟ	cut_j_stereo_44KHz.wav
2	187	1	2	0	C	2	1	833	1	Ⴇ	cut_ui_stereo_44KHz.wav
2	188	4	4	2	I	2	0	959	0	Ⴁ	cut_s_stereo_44KHz.wav
2	189	3	4	2	I	2	0	494	0	Ⴟ	cut_s_stereo_44KHz.wav
2	190	2	2	1	C	1	1	848	1	Ⴜ	cut_ui_stereo_44KHz.wav
2	191	1	1	1	C	1	1	862	1	Ⴇ	cut_r_stereo_44KHz.wav
2	192	4	3	2	I	2	0	840	0	Ⴁ	cut_j_stereo_44KHz.wav
2	193	1	2	0	C	2	1	657	1	Ⴇ	cut_ui_stereo_44KHz.wav
2	194	4	4	2	I	2	0	832	0	Ⴁ	cut_s_stereo_44KHz.wav
2	195	3	4	2	I	2	0	861	1	Ⴟ	cut_s_stereo_44KHz.wav
2	196	2	2	1	C	1	1	738	1	Ⴜ	cut_ui_stereo_44KHz.wav
2	197	3	3	2	I	2	0	878	0	Ⴟ	cut_j_stereo_44KHz.wav
2	198	1	1	1	C	1	1	916	1	Ⴇ	cut_r_stereo_44KHz.wav
2	199	4	3	2	I	2	0	654	1	Ⴁ	cut_j_stereo_44KHz.wav
2	200	2	1	0	C	2	1	846	1	Ⴜ	cut_r_stereo_44KHz.wav
3	1	4	3	2	I	2	0	963	1	Ⴒ	cut_oei_stereo_44KHz.wav
3	2	3	3	2	I	1	0	749	0	Ⴏ	cut_oei_stereo_44KHz.wav
3	3	2	2	1	C	2	0	740	0	Ⴌ	cut_ei_stereo_44KHz.wav
3	4	1	2	0	C	1	0	813	0	Ⴉ	cut_ei_stereo_44KHz.wav
3	5	4	4	2	I	1	0	1142	1	Ⴒ	cut_f_stereo_44KHz.wav
3	6	3	4	2	I	2	0	875	1	Ⴏ	cut_f_stereo_44KHz.wav
3	7	2	1	0	C	2	1	953	1	Ⴌ	cut_n_stereo_44KHz.wav
3	8	1	1	1	C	1	1	866	1	Ⴉ	cut_n_stereo_44KHz.wav
3	9	2	2	1	C	2	0	844	0	Ⴌ	cut_ei_stereo_44KHz.wav
3	10	3	3	2	I	1	0	849	0	Ⴏ	cut_oei_stereo_44KHz.wav
3	11	4	3	2	I	2	0	930	1	Ⴒ	cut_oei_stereo_44KHz.wav
3	12	1	1	1	C	1	1	951	1	Ⴉ	cut_n_stereo_44KHz.wav
3	13	2	1	0	C	2	1	813	1	Ⴌ	cut_n_stereo_44KHz.wav
3	14	1	2	0	C	2	1	779	1	Ⴉ	cut_ei_stereo_44KHz.wav
3	15	4	4	2	I	1	0	1393	1	Ⴒ	cut_f_stereo_44KHz.wav
3	16	3	4	2	I	2	0	1002	0	Ⴏ	cut_f_stereo_44KHz.wav
3	17	1	1	1	C	1	1	939	1	Ⴉ	cut_n_stereo_44KHz.wav
3	18	4	3	2	I	2	0	732	1	Ⴒ	cut_oei_stereo_44KHz.wav
3	19	3	3	2	I	1	0	733	1	Ⴏ	cut_oei_stereo_44KHz.wav
3	20	2	1	0	C	2	1	690	1	Ⴌ	cut_n_stereo_44KHz.wav
3	21	4	4	2	I	1	0	702	0	Ⴒ	cut_f_stereo_44KHz.wav
3	22	3	4	2	I	1	0	1034	1	Ⴏ	cut_f_stereo_44KHz.wav
3	23	2	2	1	C	2	0	887	0	Ⴌ	cut_ei_stereo_44KHz.wav
3	24	1	2	0	C	2	1	1175	1	Ⴉ	cut_ei_stereo_44KHz.wav
3	25	2	1	0	C	2	1	492	1	Ⴌ	cut_n_stereo_44KHz.wav
3	26	1	1	1	C	1	1	696	1	Ⴉ	cut_n_stereo_44KHz.wav
3	27	3	4	2	I	2	0	916	1	Ⴏ	cut_f_stereo_44KHz.wav
3	28	4	4	2	I	1	0	939	1	Ⴒ	cut_f_stereo_44KHz.wav
3	29	2	2	1	C	1	1	968	1	Ⴌ	cut_ei_stereo_44KHz.wav
3	30	1	2	0	C	2	1	853	1	Ⴉ	cut_ei_stereo_44KHz.wav
3	31	3	3	2	I	1	0	987	1	Ⴏ	cut_oei_stereo_44KHz.wav
3	32	4	3	2	I	1	0	783	1	Ⴒ	cut_oei_stereo_44KHz.wav
3	33	1	1	1	C	1	1	827	1	Ⴉ	cut_n_stereo_44KHz.wav
3	34	2	2	1	C	1	1	840	1	Ⴌ	cut_ei_stereo_44KHz.wav
3	35	3	4	2	I	2	0	829	1	Ⴏ	cut_f_stereo_44KHz.wav
3	36	4	4	2	I	2	0	979	0	Ⴒ	cut_f_stereo_44KHz.wav
3	37	3	3	2	I	1	0	1180	1	Ⴏ	cut_oei_stereo_44KHz.wav
3	38	2	1	0	C	2	1	605	1	Ⴌ	cut_n_stereo_44KHz.wav
3	39	1	2	0	C	2	1	465	1	Ⴉ	cut_ei_stereo_44KHz.wav
3	40	4	3	2	I	1	0	729	1	Ⴒ	cut_oei_stereo_44KHz.wav
3	41	2	2	1	C	1	1	951	1	Ⴌ	cut_ei_stereo_44KHz.wav
3	42	3	4	2	I	2	0	694	0	Ⴏ	cut_f_stereo_44KHz.wav
3	43	4	3	2	I	2	0	784	0	Ⴒ	cut_oei_stereo_44KHz.wav
3	44	1	1	1	C	1	1	816	1	Ⴉ	cut_n_stereo_44KHz.wav
3	45	4	4	2	I	1	0	757	0	Ⴒ	cut_f_stereo_44KHz.wav
3	46	2	1	0	C	2	1	687	1	Ⴌ	cut_n_stereo_44KHz.wav
3	47	1	2	0	C	1	0	789	0	Ⴉ	cut_ei_stereo_44KHz.wav
3	48	3	3	2	I	1	0	922	0	Ⴏ	cut_oei_stereo_44KHz.wav
3	49	1	1	1	C	1	1	757	1	Ⴉ	cut_n_stereo_44KHz.wav
3	50	3	3	2	I	1	0	921	0	Ⴏ	cut_oei_stereo_44KHz.wav
3	51	4	4	2	I	1	0	819	0	Ⴒ	cut_f_stereo_44KHz.wav
3	52	2	2	1	C	1	1	1036	1	Ⴌ	cut_ei_stereo_44KHz.wav
3	53	1	2	0	C	2	1	815	1	Ⴉ	cut_ei_stereo_44KHz.wav
3	54	2	1	0	C	2	1	740	1	Ⴌ	cut_n_stereo_44KHz.wav
3	55	3	4	2	I	2	0	974	1	Ⴏ	cut_f_stereo_44KHz.wav
3	56	4	3	2	I	2	0	726	0	Ⴒ	cut_oei_stereo_44KHz.wav
3	57	1	2	0	C	2	1	646	1	Ⴉ	cut_ei_stereo_44KHz.wav
3	58	3	4	2	I	2	0	821	1	Ⴏ	cut_f_stereo_44KHz.wav
3	59	4	4	2	I	1	0	922	1	Ⴒ	cut_f_stereo_44KHz.wav
3	60	2	1	0	C	2	1	678	1	Ⴌ	cut_n_stereo_44KHz.wav
3	61	1	1	1	C	1	1	692	1	Ⴉ	cut_n_stereo_44KHz.wav
3	62	2	2	1	C	1	1	777	1	Ⴌ	cut_ei_stereo_44KHz.wav
3	63	3	3	2	I	1	0	967	0	Ⴏ	cut_oei_stereo_44KHz.wav
3	64	4	3	2	I	2	0	880	0	Ⴒ	cut_oei_stereo_44KHz.wav
3	65	3	3	2	I	2	0	763	1	Ⴏ	cut_oei_stereo_44KHz.wav
3	66	2	1	0	C	2	1	678	1	Ⴌ	cut_n_stereo_44KHz.wav
3	67	1	1	1	C	1	1	831	1	Ⴉ	cut_n_stereo_44KHz.wav
3	68	4	4	2	I	2	0	852	1	Ⴒ	cut_f_stereo_44KHz.wav
3	69	3	4	2	I	1	0	782	0	Ⴏ	cut_f_stereo_44KHz.wav
3	70	4	3	2	I	2	0	670	0	Ⴒ	cut_oei_stereo_44KHz.wav
3	71	2	2	1	C	1	1	884	1	Ⴌ	cut_ei_stereo_44KHz.wav
3	72	1	2	0	C	2	1	1006	1	Ⴉ	cut_ei_stereo_44KHz.wav
3	73	3	4	2	I	2	0	910	1	Ⴏ	cut_f_stereo_44KHz.wav
3	74	4	3	2	I	1	0	580	1	Ⴒ	cut_oei_stereo_44KHz.wav
3	75	2	2	1	C	2	0	983	0	Ⴌ	cut_ei_stereo_44KHz.wav
3	76	1	2	0	C	2	1	631	1	Ⴉ	cut_ei_stereo_44KHz.wav
3	77	3	3	2	I	1	0	793	1	Ⴏ	cut_oei_stereo_44KHz.wav
3	78	1	1	1	C	1	1	905	1	Ⴉ	cut_n_stereo_44KHz.wav
3	79	4	4	2	I	1	0	1049	1	Ⴒ	cut_f_stereo_44KHz.wav
3	80	2	1	0	C	2	1	693	1	Ⴌ	cut_n_stereo_44KHz.wav
3	81	3	3	2	I	1	0	753	0	Ⴏ	cut_oei_stereo_44KHz.wav
3	82	4	4	2	I	2	0	473	1	Ⴒ	cut_f_stereo_44KHz.wav
3	83	1	2	0	C	2	1	647	1	Ⴉ	cut_ei_stereo_44KHz.wav
3	84	2	1	0	C	2	1	805	1	Ⴌ	cut_n_stereo_44KHz.wav
3	85	3	4	2	I	1	0	860	1	Ⴏ	cut_f_stereo_44KHz.wav
3	86	4	3	2	I	1	0	917	1	Ⴒ	cut_oei_stereo_44KHz.wav
3	87	2	2	1	C	1	1	882	1	Ⴌ	cut_ei_stereo_44KHz.wav
3	88	1	1	1	C	1	1	785	1	Ⴉ	cut_n_stereo_44KHz.wav
3	89	4	3	2	I	2	0	1148	0	Ⴒ	cut_oei_stereo_44KHz.wav
3	90	2	2	1	C	1	1	808	1	Ⴌ	cut_ei_stereo_44KHz.wav
3	91	3	4	2	I	1	0	1172	1	Ⴏ	cut_f_stereo_44KHz.wav
3	92	1	2	0	C	2	1	734	1	Ⴉ	cut_ei_stereo_44KHz.wav
3	93	3	3	2	I	2	0	1198	1	Ⴏ	cut_oei_stereo_44KHz.wav
3	94	1	1	1	C	1	1	862	1	Ⴉ	cut_n_stereo_44KHz.wav
3	95	2	1	0	C	2	1	972	1	Ⴌ	cut_n_stereo_44KHz.wav
3	96	4	4	2	I	2	0	849	0	Ⴒ	cut_f_stereo_44KHz.wav
3	97	1	2	0	C	2	1	1046	1	Ⴉ	cut_ei_stereo_44KHz.wav
3	98	4	4	2	I	1	0	819	0	Ⴒ	cut_f_stereo_44KHz.wav
3	99	2	2	1	C	1	1	1077	1	Ⴌ	cut_ei_stereo_44KHz.wav
3	100	3	3	2	I	2	0	1336	0	Ⴏ	cut_oei_stereo_44KHz.wav
3	101	1	1	1	C	1	1	924	1	Ⴉ	cut_n_stereo_44KHz.wav
3	102	4	3	2	I	2	0	483	0	Ⴒ	cut_oei_stereo_44KHz.wav
3	103	3	4	2	I	1	0	1208	0	Ⴏ	cut_f_stereo_44KHz.wav
3	104	2	1	0	C	2	1	883	1	Ⴌ	cut_n_stereo_44KHz.wav
3	105	4	3	2	I	2	0	724	1	Ⴒ	cut_oei_stereo_44KHz.wav
3	106	1	1	1	C	1	1	861	1	Ⴉ	cut_n_stereo_44KHz.wav
3	107	3	4	2	I	2	0	1012	1	Ⴏ	cut_f_stereo_44KHz.wav
3	108	2	2	1	C	2	0	1134	0	Ⴌ	cut_ei_stereo_44KHz.wav
3	109	1	2	0	C	2	1	744	1	Ⴉ	cut_ei_stereo_44KHz.wav
3	110	4	4	2	I	1	0	1318	1	Ⴒ	cut_f_stereo_44KHz.wav
3	111	2	1	0	C	2	1	660	1	Ⴌ	cut_n_stereo_44KHz.wav
3	112	3	3	2	I	1	0	1040	0	Ⴏ	cut_oei_stereo_44KHz.wav
3	113	2	1	0	C	2	1	719	1	Ⴌ	cut_n_stereo_44KHz.wav
3	114	3	4	2	I	1	0	1129	1	Ⴏ	cut_f_stereo_44KHz.wav
3	115	1	2	0	C	2	1	591	1	Ⴉ	cut_ei_stereo_44KHz.wav
3	116	4	3	2	I	1	0	847	0	Ⴒ	cut_oei_stereo_44KHz.wav
3	117	2	2	1	C	1	1	666	1	Ⴌ	cut_ei_stereo_44KHz.wav
3	118	3	3	2	I	1	0	839	1	Ⴏ	cut_oei_stereo_44KHz.wav
3	119	1	1	1	C	1	1	1017	1	Ⴉ	cut_n_stereo_44KHz.wav
3	120	4	4	2	I	1	0	811	1	Ⴒ	cut_f_stereo_44KHz.wav
3	121	3	4	2	I	2	0	731	0	Ⴏ	cut_f_stereo_44KHz.wav
3	122	2	2	1	C	1	1	806	1	Ⴌ	cut_ei_stereo_44KHz.wav
3	123	4	4	2	I	2	0	873	1	Ⴒ	cut_f_stereo_44KHz.wav
3	124	1	2	0	C	2	1	875	1	Ⴉ	cut_ei_stereo_44KHz.wav
3	125	3	3	2	I	2	0	730	0	Ⴏ	cut_oei_stereo_44KHz.wav
3	126	1	1	1	C	1	1	1128	1	Ⴉ	cut_n_stereo_44KHz.wav
3	127	4	3	2	I	2	0	599	0	Ⴒ	cut_oei_stereo_44KHz.wav
3	128	2	1	0	C	2	1	824	1	Ⴌ	cut_n_stereo_44KHz.wav
3	129	3	3	2	I	2	0	708	0	Ⴏ	cut_oei_stereo_44KHz.wav
3	130	1	1	1	C	1	1	887	1	Ⴉ	cut_n_stereo_44KHz.wav
3	131	4	3	2	I	2	0	660	0	Ⴒ	cut_oei_stereo_44KHz.wav
3	132	2	1	0	C	2	1	769	1	Ⴌ	cut_n_stereo_44KHz.wav
3	133	3	4	2	I	2	0	797	0	Ⴏ	cut_f_stereo_44KHz.wav
3	134	1	2	0	C	2	1	915	1	Ⴉ	cut_ei_stereo_44KHz.wav
3	135	4	4	2	I	1	0	1163	0	Ⴒ	cut_f_stereo_44KHz.wav
3	136	2	2	1	C	1	1	775	1	Ⴌ	cut_ei_stereo_44KHz.wav
3	137	1	1	1	C	1	1	884	1	Ⴉ	cut_n_stereo_44KHz.wav
3	138	4	4	2	I	2	0	839	0	Ⴒ	cut_f_stereo_44KHz.wav
3	139	3	4	2	I	2	0	766	0	Ⴏ	cut_f_stereo_44KHz.wav
3	140	2	1	0	C	2	1	784	1	Ⴌ	cut_n_stereo_44KHz.wav
3	141	3	3	2	I	2	0	639	1	Ⴏ	cut_oei_stereo_44KHz.wav
3	142	1	2	0	C	2	1	734	1	Ⴉ	cut_ei_stereo_44KHz.wav
3	143	4	3	2	I	1	0	1022	0	Ⴒ	cut_oei_stereo_44KHz.wav
3	144	2	2	1	C	1	1	800	1	Ⴌ	cut_ei_stereo_44KHz.wav
3	145	1	2	0	C	2	1	754	1	Ⴉ	cut_ei_stereo_44KHz.wav
3	146	4	4	2	I	2	0	699	0	Ⴒ	cut_f_stereo_44KHz.wav
3	147	3	4	2	I	2	0	733	1	Ⴏ	cut_f_stereo_44KHz.wav
3	148	2	2	1	C	1	1	930	1	Ⴌ	cut_ei_stereo_44KHz.wav
3	149	3	3	2	I	1	0	1008	0	Ⴏ	cut_oei_stereo_44KHz.wav
3	150	1	1	1	C	1	1	843	1	Ⴉ	cut_n_stereo_44KHz.wav
3	151	2	1	0	C	2	1	895	1	Ⴌ	cut_n_stereo_44KHz.wav
3	152	4	3	2	I	2	0	930	1	Ⴒ	cut_oei_stereo_44KHz.wav
3	153	3	3	2	I	1	0	785	0	Ⴏ	cut_oei_stereo_44KHz.wav
3	154	2	1	0	C	2	1	822	1	Ⴌ	cut_n_stereo_44KHz.wav
3	155	1	1	1	C	1	1	671	1	Ⴉ	cut_n_stereo_44KHz.wav
3	156	4	3	2	I	2	0	710	1	Ⴒ	cut_oei_stereo_44KHz.wav
3	157	3	4	2	I	2	0	593	0	Ⴏ	cut_f_stereo_44KHz.wav
3	158	2	2	1	C	1	1	718	1	Ⴌ	cut_ei_stereo_44KHz.wav
3	159	1	2	0	C	2	1	862	1	Ⴉ	cut_ei_stereo_44KHz.wav
3	160	4	4	2	I	2	0	597	1	Ⴒ	cut_f_stereo_44KHz.wav
3	161	1	2	0	C	2	1	753	1	Ⴉ	cut_ei_stereo_44KHz.wav
3	162	4	4	2	I	1	0	867	0	Ⴒ	cut_f_stereo_44KHz.wav
3	163	2	2	1	C	1	1	966	1	Ⴌ	cut_ei_stereo_44KHz.wav
3	164	3	4	2	I	2	0	627	0	Ⴏ	cut_f_stereo_44KHz.wav
3	165	4	3	2	I	2	0	882	0	Ⴒ	cut_oei_stereo_44KHz.wav
3	166	3	3	2	I	2	0	568	1	Ⴏ	cut_oei_stereo_44KHz.wav
3	167	2	1	0	C	2	1	712	1	Ⴌ	cut_n_stereo_44KHz.wav
3	168	1	1	1	C	1	1	761	1	Ⴉ	cut_n_stereo_44KHz.wav
3	169	4	3	2	I	2	0	600	1	Ⴒ	cut_oei_stereo_44KHz.wav
3	170	1	1	1	C	1	1	730	1	Ⴉ	cut_n_stereo_44KHz.wav
3	171	3	4	2	I	2	0	609	1	Ⴏ	cut_f_stereo_44KHz.wav
3	172	2	1	0	C	2	1	688	1	Ⴌ	cut_n_stereo_44KHz.wav
3	173	3	3	2	I	1	0	1044	1	Ⴏ	cut_oei_stereo_44KHz.wav
3	174	1	2	0	C	2	1	844	1	Ⴉ	cut_ei_stereo_44KHz.wav
3	175	4	4	2	I	2	0	617	0	Ⴒ	cut_f_stereo_44KHz.wav
3	176	2	2	1	C	1	1	731	1	Ⴌ	cut_ei_stereo_44KHz.wav
3	177	3	4	2	I	2	0	774	1	Ⴏ	cut_f_stereo_44KHz.wav
3	178	2	1	0	C	2	1	661	1	Ⴌ	cut_n_stereo_44KHz.wav
3	179	1	1	1	C	1	1	742	1	Ⴉ	cut_n_stereo_44KHz.wav
3	180	4	3	2	I	2	0	560	0	Ⴒ	cut_oei_stereo_44KHz.wav
3	181	3	3	2	I	2	0	465	0	Ⴏ	cut_oei_stereo_44KHz.wav
3	182	4	4	2	I	2	0	661	0	Ⴒ	cut_f_stereo_44KHz.wav
3	183	2	2	1	C	1	1	910	1	Ⴌ	cut_ei_stereo_44KHz.wav
3	184	1	2	0	C	2	1	784	1	Ⴉ	cut_ei_stereo_44KHz.wav
3	185	4	3	2	I	2	0	770	1	Ⴒ	cut_oei_stereo_44KHz.wav
3	186	2	2	1	C	1	1	827	1	Ⴌ	cut_ei_stereo_44KHz.wav
3	187	3	3	2	I	2	0	628	0	Ⴏ	cut_oei_stereo_44KHz.wav
3	188	1	2	0	C	2	1	727	1	Ⴉ	cut_ei_stereo_44KHz.wav
3	189	4	4	2	I	1	0	877	1	Ⴒ	cut_f_stereo_44KHz.wav
3	190	3	4	2	I	2	0	639	1	Ⴏ	cut_f_stereo_44KHz.wav
3	191	2	1	0	C	2	1	744	1	Ⴌ	cut_n_stereo_44KHz.wav
3	192	1	1	1	C	1	1	999	1	Ⴉ	cut_n_stereo_44KHz.wav
3	193	3	4	2	I	2	0	480	0	Ⴏ	cut_f_stereo_44KHz.wav
3	194	1	2	0	C	2	1	984	1	Ⴉ	cut_ei_stereo_44KHz.wav
3	195	2	2	1	C	1	1	615	1	Ⴌ	cut_ei_stereo_44KHz.wav
3	196	4	4	2	I	2	0	690	0	Ⴒ	cut_f_stereo_44KHz.wav
3	197	1	1	1	C	1	1	958	1	Ⴉ	cut_n_stereo_44KHz.wav
3	198	3	3	2	I	2	0	880	0	Ⴏ	cut_oei_stereo_44KHz.wav
3	199	4	3	2	I	2	0	786	1	Ⴒ	cut_oei_stereo_44KHz.wav
3	200	2	1	0	C	2	1	718	1	Ⴌ	cut_n_stereo_44KHz.wav
4	1	4	4	2	I	2	0	994	0	Ⴂ	cut_h_stereo_44KHz.wav
4	2	3	3	2	I	2	0	787	1	Ⴊ	cut_w_stereo_44KHz.wav
4	3	1	2	0	C	2	1	675	1	Ⴡ	cut_g_stereo_44KHz.wav
4	4	2	1	0	C	1	0	758	0	Ⴃ	cut_l_stereo_44KHz.wav
4	5	4	3	2	I	2	0	437	0	Ⴂ	cut_w_stereo_44KHz.wav
4	6	2	2	1	C	2	0	640	0	Ⴃ	cut_g_stereo_44KHz.wav
4	7	1	1	1	C	2	0	722	0	Ⴡ	cut_l_stereo_44KHz.wav
4	8	3	4	2	I	2	0	948	1	Ⴊ	cut_h_stereo_44KHz.wav
4	9	2	2	1	C	2	0	774	0	Ⴃ	cut_g_stereo_44KHz.wav
4	10	4	4	2	I	1	0	1104	1	Ⴂ	cut_h_stereo_44KHz.wav
4	11	3	4	2	I	2	0	650	0	Ⴊ	cut_h_stereo_44KHz.wav
4	12	1	2	0	C	2	1	924	1	Ⴡ	cut_g_stereo_44KHz.wav
4	13	2	1	0	C	1	0	959	0	Ⴃ	cut_l_stereo_44KHz.wav
4	14	4	3	2	I	2	0	1043	0	Ⴂ	cut_w_stereo_44KHz.wav
4	15	3	3	2	I	1	0	1137	0	Ⴊ	cut_w_stereo_44KHz.wav
4	16	1	1	1	C	1	1	1023	1	Ⴡ	cut_l_stereo_44KHz.wav
4	17	2	1	0	C	1	0	765	0	Ⴃ	cut_l_stereo_44KHz.wav
4	18	3	4	2	I	2	0	887	1	Ⴊ	cut_h_stereo_44KHz.wav
4	19	4	4	2	I	1	0	700	1	Ⴂ	cut_h_stereo_44KHz.wav
4	20	1	1	1	C	1	1	1097	1	Ⴡ	cut_l_stereo_44KHz.wav
4	21	3	3	2	I	1	0	788	1	Ⴊ	cut_w_stereo_44KHz.wav
4	22	1	2	0	C	2	1	695	1	Ⴡ	cut_g_stereo_44KHz.wav
4	23	2	2	1	C	1	1	756	1	Ⴃ	cut_g_stereo_44KHz.wav
4	24	4	3	2	I	2	0	1079	0	Ⴂ	cut_w_stereo_44KHz.wav
4	25	2	2	1	C	2	0	966	0	Ⴃ	cut_g_stereo_44KHz.wav
4	26	3	4	2	I	2	0	852	1	Ⴊ	cut_h_stereo_44KHz.wav
4	27	4	3	2	I	1	0	647	1	Ⴂ	cut_w_stereo_44KHz.wav
4	28	1	1	1	C	1	1	749	1	Ⴡ	cut_l_stereo_44KHz.wav
4	29	2	1	0	C	2	1	1281	1	Ⴃ	cut_l_stereo_44KHz.wav
4	30	1	2	0	C	2	1	632	1	Ⴡ	cut_g_stereo_44KHz.wav
4	31	4	4	2	I	2	0	972	0	Ⴂ	cut_h_stereo_44KHz.wav
4	32	3	3	2	I	1	0	578	0	Ⴊ	cut_w_stereo_44KHz.wav
4	33	4	4	2	I	1	0	1068	0	Ⴂ	cut_h_stereo_44KHz.wav
4	34	2	2	1	C	1	1	1001	1	Ⴃ	cut_g_stereo_44KHz.wav
4	35	1	2	0	C	2	1	487	1	Ⴡ	cut_g_stereo_44KHz.wav
4	36	3	4	2	I	2	0	787	0	Ⴊ	cut_h_stereo_44KHz.wav
4	37	4	3	2	I	1	0	872	0	Ⴂ	cut_w_stereo_44KHz.wav
4	38	3	3	2	I	2	0	795	1	Ⴊ	cut_w_stereo_44KHz.wav
4	39	1	1	1	C	1	1	694	1	Ⴡ	cut_l_stereo_44KHz.wav
4	40	2	1	0	C	1	0	990	0	Ⴃ	cut_l_stereo_44KHz.wav
4	41	1	1	1	C	1	1	772	1	Ⴡ	cut_l_stereo_44KHz.wav
4	42	4	4	2	I	2	0	965	1	Ⴂ	cut_h_stereo_44KHz.wav
4	43	3	3	2	I	1	0	1198	1	Ⴊ	cut_w_stereo_44KHz.wav
4	44	2	2	1	C	2	0	746	0	Ⴃ	cut_g_stereo_44KHz.wav
4	45	3	4	2	I	2	0	708	0	Ⴊ	cut_h_stereo_44KHz.wav
4	46	4	3	2	I	2	0	851	0	Ⴂ	cut_w_stereo_44KHz.wav
4	47	2	1	0	C	2	1	1324	1	Ⴃ	cut_l_stereo_44KHz.wav
4	48	1	2	0	C	2	1	599	1	Ⴡ	cut_g_stereo_44KHz.wav
4	49	3	3	2	I	2	0	822	0	Ⴊ	cut_w_stereo_44KHz.wav
4	50	2	2	1	C	1	1	1098	1	Ⴃ	cut_g_stereo_44KHz.wav
4	51	1	1	1	C	1	1	836	1	Ⴡ	cut_l_stereo_44KHz.wav
4	52	4	3	2	I	2	0	923	1	Ⴂ	cut_w_stereo_44KHz.wav
4	53	1	2	0	C	2	1	730	1	Ⴡ	cut_g_stereo_44KHz.wav
4	54	4	4	2	I	2	0	858	0	Ⴂ	cut_h_stereo_44KHz.wav
4	55	2	1	0	C	2	1	769	1	Ⴃ	cut_l_stereo_44KHz.wav
4	56	3	4	2	I	2	0	979	1	Ⴊ	cut_h_stereo_44KHz.wav
4	57	4	3	2	I	2	0	1031	1	Ⴂ	cut_w_stereo_44KHz.wav
4	58	3	3	2	I	1	0	883	0	Ⴊ	cut_w_stereo_44KHz.wav
4	59	1	1	1	C	1	1	579	1	Ⴡ	cut_l_stereo_44KHz.wav
4	60	2	1	0	C	2	1	676	1	Ⴃ	cut_l_stereo_44KHz.wav
4	61	1	2	0	C	2	1	673	1	Ⴡ	cut_g_stereo_44KHz.wav
4	62	2	2	1	C	1	1	823	1	Ⴃ	cut_g_stereo_44KHz.wav
4	63	3	4	2	I	2	0	713	0	Ⴊ	cut_h_stereo_44KHz.wav
4	64	4	4	2	I	2	0	605	1	Ⴂ	cut_h_stereo_44KHz.wav
4	65	3	4	2	I	2	0	687	1	Ⴊ	cut_h_stereo_44KHz.wav
4	66	1	2	0	C	2	1	834	1	Ⴡ	cut_g_stereo_44KHz.wav
4	67	4	3	2	I	2	0	820	0	Ⴂ	cut_w_stereo_44KHz.wav
4	68	2	1	0	C	2	1	726	1	Ⴃ	cut_l_stereo_44KHz.wav
4	69	4	4	2	I	2	0	716	0	Ⴂ	cut_h_stereo_44KHz.wav
4	70	3	3	2	I	2	0	614	0	Ⴊ	cut_w_stereo_44KHz.wav
4	71	1	1	1	C	1	1	749	1	Ⴡ	cut_l_stereo_44KHz.wav
4	72	2	2	1	C	1	1	1182	1	Ⴃ	cut_g_stereo_44KHz.wav
4	73	3	4	2	I	2	0	760	0	Ⴊ	cut_h_stereo_44KHz.wav
4	74	4	3	2	I	2	0	864	0	Ⴂ	cut_w_stereo_44KHz.wav
4	75	2	1	0	C	2	1	974	1	Ⴃ	cut_l_stereo_44KHz.wav
4	76	1	1	1	C	1	1	825	1	Ⴡ	cut_l_stereo_44KHz.wav
4	77	3	3	2	I	2	0	868	0	Ⴊ	cut_w_stereo_44KHz.wav
4	78	4	4	2	I	2	0	846	1	Ⴂ	cut_h_stereo_44KHz.wav
4	79	1	2	0	C	2	1	765	1	Ⴡ	cut_g_stereo_44KHz.wav
4	80	2	2	1	C	1	1	907	1	Ⴃ	cut_g_stereo_44KHz.wav
4	81	3	4	2	I	2	0	1240	1	Ⴊ	cut_h_stereo_44KHz.wav
4	82	4	4	2	I	2	0	724	0	Ⴂ	cut_h_stereo_44KHz.wav
4	83	1	1	1	C	1	1	796	1	Ⴡ	cut_l_stereo_44KHz.wav
4	84	2	1	0	C	2	1	771	1	Ⴃ	cut_l_stereo_44KHz.wav
4	85	1	2	0	C	2	1	717	1	Ⴡ	cut_g_stereo_44KHz.wav
4	86	4	3	2	I	2	0	808	1	Ⴂ	cut_w_stereo_44KHz.wav
4	87	3	3	2	I	2	0	709	1	Ⴊ	cut_w_stereo_44KHz.wav
4	88	2	2	1	C	1	1	722	1	Ⴃ	cut_g_stereo_44KHz.wav
4	89	4	3	2	I	2	0	907	0	Ⴂ	cut_w_stereo_44KHz.wav
4	90	2	1	0	C	2	1	770	1	Ⴃ	cut_l_stereo_44KHz.wav
4	91	1	2	0	C	2	1	545	1	Ⴡ	cut_g_stereo_44KHz.wav
4	92	3	3	2	I	2	0	742	0	Ⴊ	cut_w_stereo_44KHz.wav
4	93	2	2	1	C	1	1	857	1	Ⴃ	cut_g_stereo_44KHz.wav
4	94	3	4	2	I	2	0	872	1	Ⴊ	cut_h_stereo_44KHz.wav
4	95	1	1	1	C	1	1	882	1	Ⴡ	cut_l_stereo_44KHz.wav
4	96	4	4	2	I	2	0	674	0	Ⴂ	cut_h_stereo_44KHz.wav
4	97	1	1	1	C	1	1	712	1	Ⴡ	cut_l_stereo_44KHz.wav
4	98	4	3	2	I	2	0	791	1	Ⴂ	cut_w_stereo_44KHz.wav
4	99	3	3	2	I	2	0	772	1	Ⴊ	cut_w_stereo_44KHz.wav
4	100	2	2	1	C	1	1	689	1	Ⴃ	cut_g_stereo_44KHz.wav
4	101	4	4	2	I	2	0	659	1	Ⴂ	cut_h_stereo_44KHz.wav
4	102	1	2	0	C	2	1	830	1	Ⴡ	cut_g_stereo_44KHz.wav
4	103	2	1	0	C	2	1	743	1	Ⴃ	cut_l_stereo_44KHz.wav
4	104	3	4	2	I	2	0	588	0	Ⴊ	cut_h_stereo_44KHz.wav
4	105	2	1	0	C	2	1	930	1	Ⴃ	cut_l_stereo_44KHz.wav
4	106	1	1	1	C	1	1	611	1	Ⴡ	cut_l_stereo_44KHz.wav
4	107	3	3	2	I	2	0	731	1	Ⴊ	cut_w_stereo_44KHz.wav
4	108	4	4	2	I	2	0	676	0	Ⴂ	cut_h_stereo_44KHz.wav
4	109	1	2	0	C	2	1	603	1	Ⴡ	cut_g_stereo_44KHz.wav
4	110	4	3	2	I	2	0	691	0	Ⴂ	cut_w_stereo_44KHz.wav
4	111	2	2	1	C	2	0	697	0	Ⴃ	cut_g_stereo_44KHz.wav
4	112	3	4	2	I	2	0	706	1	Ⴊ	cut_h_stereo_44KHz.wav
4	113	2	2	1	C	1	1	914	1	Ⴃ	cut_g_stereo_44KHz.wav
4	114	1	1	1	C	1	1	759	1	Ⴡ	cut_l_stereo_44KHz.wav
4	115	4	4	2	I	2	0	664	0	Ⴂ	cut_h_stereo_44KHz.wav
4	116	3	3	2	I	2	0	780	1	Ⴊ	cut_w_stereo_44KHz.wav
4	117	2	1	0	C	1	0	678	0	Ⴃ	cut_l_stereo_44KHz.wav
4	118	4	3	2	I	2	0	647	0	Ⴂ	cut_w_stereo_44KHz.wav
4	119	1	2	0	C	2	1	684	1	Ⴡ	cut_g_stereo_44KHz.wav
4	120	3	4	2	I	2	0	603	0	Ⴊ	cut_h_stereo_44KHz.wav
4	121	4	3	2	I	2	0	641	1	Ⴂ	cut_w_stereo_44KHz.wav
4	122	2	1	0	C	2	1	703	1	Ⴃ	cut_l_stereo_44KHz.wav
4	123	3	3	2	I	2	0	748	0	Ⴊ	cut_w_stereo_44KHz.wav
4	124	1	1	1	C	1	1	1007	1	Ⴡ	cut_l_stereo_44KHz.wav
4	125	3	4	2	I	2	0	715	1	Ⴊ	cut_h_stereo_44KHz.wav
4	126	1	2	0	C	2	1	607	1	Ⴡ	cut_g_stereo_44KHz.wav
4	127	2	2	1	C	1	1	772	1	Ⴃ	cut_g_stereo_44KHz.wav
4	128	4	4	2	I	2	0	584	1	Ⴂ	cut_h_stereo_44KHz.wav
4	129	2	2	1	C	1	1	884	1	Ⴃ	cut_g_stereo_44KHz.wav
4	130	4	3	2	I	2	0	592	0	Ⴂ	cut_w_stereo_44KHz.wav
4	131	3	3	2	I	2	0	536	1	Ⴊ	cut_w_stereo_44KHz.wav
4	132	1	2	0	C	2	1	498	1	Ⴡ	cut_g_stereo_44KHz.wav
4	133	2	1	0	C	2	1	737	1	Ⴃ	cut_l_stereo_44KHz.wav
4	134	3	4	2	I	1	0	747	0	Ⴊ	cut_h_stereo_44KHz.wav
4	135	4	4	2	I	1	0	740	0	Ⴂ	cut_h_stereo_44KHz.wav
4	136	1	1	1	C	1	1	813	1	Ⴡ	cut_l_stereo_44KHz.wav
4	137	4	3	2	I	2	0	796	1	Ⴂ	cut_w_stereo_44KHz.wav
4	138	2	2	1	C	1	1	758	1	Ⴃ	cut_g_stereo_44KHz.wav
4	139	3	3	2	I	2	0	829	1	Ⴊ	cut_w_stereo_44KHz.wav
4	140	1	2	0	C	2	1	601	1	Ⴡ	cut_g_stereo_44KHz.wav
4	141	3	4	2	I	2	0	915	1	Ⴊ	cut_h_stereo_44KHz.wav
4	142	2	1	0	C	2	1	763	1	Ⴃ	cut_l_stereo_44KHz.wav
4	143	4	4	2	I	2	0	876	1	Ⴂ	cut_h_stereo_44KHz.wav
4	144	1	1	1	C	1	1	807	1	Ⴡ	cut_l_stereo_44KHz.wav
4	145	4	3	2	I	2	0	683	0	Ⴂ	cut_w_stereo_44KHz.wav
4	146	2	2	1	C	1	1	841	1	Ⴃ	cut_g_stereo_44KHz.wav
4	147	1	2	0	C	2	1	637	1	Ⴡ	cut_g_stereo_44KHz.wav
4	148	3	4	2	I	2	0	624	0	Ⴊ	cut_h_stereo_44KHz.wav
4	149	2	1	0	C	2	1	695	1	Ⴃ	cut_l_stereo_44KHz.wav
4	150	1	1	1	C	1	1	589	1	Ⴡ	cut_l_stereo_44KHz.wav
4	151	4	4	2	I	2	0	647	1	Ⴂ	cut_h_stereo_44KHz.wav
4	152	3	3	2	I	2	0	732	1	Ⴊ	cut_w_stereo_44KHz.wav
4	153	1	2	0	C	2	1	648	1	Ⴡ	cut_g_stereo_44KHz.wav
4	154	4	4	2	I	2	0	585	1	Ⴂ	cut_h_stereo_44KHz.wav
4	155	3	3	2	I	2	0	758	0	Ⴊ	cut_w_stereo_44KHz.wav
4	156	2	2	1	C	1	1	803	1	Ⴃ	cut_g_stereo_44KHz.wav
4	157	1	1	1	C	1	1	838	1	Ⴡ	cut_l_stereo_44KHz.wav
4	158	4	3	2	I	2	0	733	1	Ⴂ	cut_w_stereo_44KHz.wav
4	159	3	4	2	I	2	0	725	1	Ⴊ	cut_h_stereo_44KHz.wav
4	160	2	1	0	C	2	1	687	1	Ⴃ	cut_l_stereo_44KHz.wav
4	161	3	3	2	I	2	0	670	0	Ⴊ	cut_w_stereo_44KHz.wav
4	162	2	1	0	C	2	1	700	1	Ⴃ	cut_l_stereo_44KHz.wav
4	163	4	3	2	I	2	0	583	1	Ⴂ	cut_w_stereo_44KHz.wav
4	164	1	2	0	C	2	1	625	1	Ⴡ	cut_g_stereo_44KHz.wav
4	165	3	4	2	I	2	0	614	0	Ⴊ	cut_h_stereo_44KHz.wav
4	166	2	2	1	C	1	1	980	1	Ⴃ	cut_g_stereo_44KHz.wav
4	167	1	1	1	C	1	1	811	1	Ⴡ	cut_l_stereo_44KHz.wav
4	168	4	4	2	I	2	0	674	0	Ⴂ	cut_h_stereo_44KHz.wav
4	169	3	3	2	I	2	0	647	1	Ⴊ	cut_w_stereo_44KHz.wav
4	170	2	1	0	C	2	1	726	1	Ⴃ	cut_l_stereo_44KHz.wav
4	171	1	2	0	C	2	1	452	1	Ⴡ	cut_g_stereo_44KHz.wav
4	172	4	3	2	I	2	0	599	1	Ⴂ	cut_w_stereo_44KHz.wav
4	173	1	1	1	C	1	1	805	1	Ⴡ	cut_l_stereo_44KHz.wav
4	174	3	4	2	I	2	0	648	0	Ⴊ	cut_h_stereo_44KHz.wav
4	175	2	2	1	C	1	1	834	1	Ⴃ	cut_g_stereo_44KHz.wav
4	176	4	4	2	I	2	0	672	1	Ⴂ	cut_h_stereo_44KHz.wav
4	177	1	1	1	C	1	1	730	1	Ⴡ	cut_l_stereo_44KHz.wav
4	178	4	4	2	I	2	0	610	1	Ⴂ	cut_h_stereo_44KHz.wav
4	179	2	1	0	C	1	0	698	0	Ⴃ	cut_l_stereo_44KHz.wav
4	180	3	3	2	I	2	0	1093	1	Ⴊ	cut_w_stereo_44KHz.wav
4	181	4	3	2	I	2	0	584	1	Ⴂ	cut_w_stereo_44KHz.wav
4	182	1	2	0	C	2	1	609	1	Ⴡ	cut_g_stereo_44KHz.wav
4	183	3	4	2	I	2	0	716	0	Ⴊ	cut_h_stereo_44KHz.wav
4	184	2	2	1	C	1	1	647	1	Ⴃ	cut_g_stereo_44KHz.wav
4	185	1	1	1	C	1	1	779	1	Ⴡ	cut_l_stereo_44KHz.wav
4	186	3	3	2	I	2	0	669	0	Ⴊ	cut_w_stereo_44KHz.wav
4	187	4	4	2	I	2	0	831	0	Ⴂ	cut_h_stereo_44KHz.wav
4	188	2	1	0	C	2	1	1127	1	Ⴃ	cut_l_stereo_44KHz.wav
4	189	4	3	2	I	1	0	1729	1	Ⴂ	cut_w_stereo_44KHz.wav
4	190	2	2	1	C	1	1	945	1	Ⴃ	cut_g_stereo_44KHz.wav
4	191	1	2	0	C	2	1	719	1	Ⴡ	cut_g_stereo_44KHz.wav
4	192	3	4	2	I	1	0	1032	1	Ⴊ	cut_h_stereo_44KHz.wav
4	193	4	4	2	I	2	0	742	0	Ⴂ	cut_h_stereo_44KHz.wav
4	194	2	1	0	C	1	0	839	0	Ⴃ	cut_l_stereo_44KHz.wav
4	195	1	2	0	C	2	1	650	1	Ⴡ	cut_g_stereo_44KHz.wav
4	196	3	4	2	I	1	0	945	0	Ⴊ	cut_h_stereo_44KHz.wav
4	197	1	1	1	C	1	1	1015	1	Ⴡ	cut_l_stereo_44KHz.wav
4	198	3	3	2	I	2	0	1009	0	Ⴊ	cut_w_stereo_44KHz.wav
4	199	4	3	2	I	2	0	809	1	Ⴂ	cut_w_stereo_44KHz.wav
4	200	2	2	1	C	1	1	1077	1	Ⴃ	cut_g_stereo_44KHz.wav
