block	trial	Vstim	Astim	match	C/I	resp	result	RT	fb	V-file	A-file
RL

0	1	2	4	0	C	2	1	674	1	poli_8sides 23_whiteLine3.jpg	Practice3_b26_cut1_stereo_44KHz.wav
0	2	1	2	0	C	1	0	626	0	poli_8sides 21_whiteLine3.jpg	Practice2_b27_cut2_stereo_44KHz.wav
0	3	1	1	1	C	2	0	755	0	poli_8sides 21_whiteLine3.jpg	Practice4_b26_stereo_44KHz.wav
0	4	2	3	1	C	1	1	648	1	poli_8sides 23_whiteLine3.jpg	Practice1_b27_cut1_stereo_44KHz.wav
0	5	2	4	0	C	2	1	599	1	poli_8sides 23_whiteLine3.jpg	Practice3_b26_cut1_stereo_44KHz.wav
0	6	1	1	1	C	2	0	633	0	poli_8sides 21_whiteLine3.jpg	Practice4_b26_stereo_44KHz.wav
0	7	1	2	0	C	2	1	691	1	poli_8sides 21_whiteLine3.jpg	Practice2_b27_cut2_stereo_44KHz.wav
0	8	2	3	1	C	2	0	504	0	poli_8sides 23_whiteLine3.jpg	Practice1_b27_cut1_stereo_44KHz.wav
0	9	2	3	1	C	1	1	830	1	poli_8sides 23_whiteLine3.jpg	Practice1_b27_cut1_stereo_44KHz.wav
0	10	1	1	1	C	1	1	785	1	poli_8sides 21_whiteLine3.jpg	Practice4_b26_stereo_44KHz.wav
0	11	1	2	0	C	2	1	655	1	poli_8sides 21_whiteLine3.jpg	Practice2_b27_cut2_stereo_44KHz.wav
0	12	2	4	0	C	2	1	671	1	poli_8sides 23_whiteLine3.jpg	Practice3_b26_cut1_stereo_44KHz.wav
0	13	1	2	0	C	2	1	541	1	poli_8sides 21_whiteLine3.jpg	Practice2_b27_cut2_stereo_44KHz.wav
0	14	2	3	1	C	1	1	834	1	poli_8sides 23_whiteLine3.jpg	Practice1_b27_cut1_stereo_44KHz.wav
0	15	2	4	0	C	2	1	559	1	poli_8sides 23_whiteLine3.jpg	Practice3_b26_cut1_stereo_44KHz.wav
0	16	1	1	1	C	1	1	779	1	poli_8sides 21_whiteLine3.jpg	Practice4_b26_stereo_44KHz.wav
0	17	2	4	0	C	2	1	786	1	poli_8sides 23_whiteLine3.jpg	Practice3_b26_cut1_stereo_44KHz.wav
0	18	2	3	1	C	1	1	731	1	poli_8sides 23_whiteLine3.jpg	Practice1_b27_cut1_stereo_44KHz.wav
0	19	1	2	0	C	2	1	534	1	poli_8sides 21_whiteLine3.jpg	Practice2_b27_cut2_stereo_44KHz.wav
0	20	1	1	1	C	1	1	842	1	poli_8sides 21_whiteLine3.jpg	Practice4_b26_stereo_44KHz.wav
0	21	2	4	0	C	2	1	873	1	poli_8sides 23_whiteLine3.jpg	Practice3_b26_cut1_stereo_44KHz.wav
0	22	1	2	0	C	2	1	436	1	poli_8sides 21_whiteLine3.jpg	Practice2_b27_cut2_stereo_44KHz.wav
0	23	1	1	1	C	1	1	633	1	poli_8sides 21_whiteLine3.jpg	Practice4_b26_stereo_44KHz.wav
0	24	2	3	1	C	1	1	921	1	poli_8sides 23_whiteLine3.jpg	Practice1_b27_cut1_stereo_44KHz.wav
0	25	2	3	1	C	1	1	831	1	poli_8sides 23_whiteLine3.jpg	Practice1_b27_cut1_stereo_44KHz.wav
0	26	1	2	0	C	2	1	696	1	poli_8sides 21_whiteLine3.jpg	Practice2_b27_cut2_stereo_44KHz.wav
0	27	1	1	1	C	1	1	691	1	poli_8sides 21_whiteLine3.jpg	Practice4_b26_stereo_44KHz.wav
0	28	2	4	0	C	2	1	565	1	poli_8sides 23_whiteLine3.jpg	Practice3_b26_cut1_stereo_44KHz.wav
0	29	2	3	1	C	1	1	690	1	poli_8sides 23_whiteLine3.jpg	Practice1_b27_cut1_stereo_44KHz.wav
0	30	1	1	1	C	1	1	817	1	poli_8sides 21_whiteLine3.jpg	Practice4_b26_stereo_44KHz.wav
avg_resp = 704
1	1	1	1	1	C	2	0	689	0	poli_8sides 2_whiteLine3.jpg	Short_b22_cut1_stereo_44KHz.wav
1	2	3	4	2	I	2	0	613	1	poli_8sides 7_whiteLine3.jpg	Short_b20_cut1_stereo_44KHz.wav
1	3	4	4	2	I	1	0	691	0	poli_8sides 1_whiteLine3.jpg	Short_b20_cut1_stereo_44KHz.wav
1	4	2	2	1	C	2	0	716	0	poli_8sides 3_whiteLine3.jpg	Short_b23_cut1_stereo_44KHz.wav
1	5	3	3	2	I	2	0	560	1	poli_8sides 7_whiteLine3.jpg	Short_b09_cut1_stereo_44KHz.wav
1	6	2	1	0	C	2	1	816	1	poli_8sides 3_whiteLine3.jpg	Short_b22_cut1_stereo_44KHz.wav
1	7	1	2	0	C	2	1	636	1	poli_8sides 2_whiteLine3.jpg	Short_b23_cut1_stereo_44KHz.wav
1	8	4	3	2	I	1	0	772	0	poli_8sides 1_whiteLine3.jpg	Short_b09_cut1_stereo_44KHz.wav
1	9	3	4	2	I	2	0	613	1	poli_8sides 7_whiteLine3.jpg	Short_b20_cut1_stereo_44KHz.wav
1	10	1	1	1	C	2	0	647	0	poli_8sides 2_whiteLine3.jpg	Short_b22_cut1_stereo_44KHz.wav
1	11	2	2	1	C	2	0	611	0	poli_8sides 3_whiteLine3.jpg	Short_b23_cut1_stereo_44KHz.wav
1	12	4	3	2	I	1	0	602	1	poli_8sides 1_whiteLine3.jpg	Short_b09_cut1_stereo_44KHz.wav
1	13	2	1	0	C	2	1	829	1	poli_8sides 3_whiteLine3.jpg	Short_b22_cut1_stereo_44KHz.wav
1	14	1	2	0	C	2	1	789	1	poli_8sides 2_whiteLine3.jpg	Short_b23_cut1_stereo_44KHz.wav
1	15	4	4	2	I	1	0	574	0	poli_8sides 1_whiteLine3.jpg	Short_b20_cut1_stereo_44KHz.wav
1	16	3	3	2	I	1	0	1044	1	poli_8sides 7_whiteLine3.jpg	Short_b09_cut1_stereo_44KHz.wav
1	17	2	1	0	C	2	1	728	1	poli_8sides 3_whiteLine3.jpg	Short_b22_cut1_stereo_44KHz.wav
1	18	3	3	2	I	1	0	846	1	poli_8sides 7_whiteLine3.jpg	Short_b09_cut1_stereo_44KHz.wav
1	19	4	3	2	I	1	0	643	0	poli_8sides 1_whiteLine3.jpg	Short_b09_cut1_stereo_44KHz.wav
1	20	1	2	0	C	2	1	732	1	poli_8sides 2_whiteLine3.jpg	Short_b23_cut1_stereo_44KHz.wav
1	21	4	4	2	I	1	0	677	0	poli_8sides 1_whiteLine3.jpg	Short_b20_cut1_stereo_44KHz.wav
1	22	2	2	1	C	2	0	633	0	poli_8sides 3_whiteLine3.jpg	Short_b23_cut1_stereo_44KHz.wav
1	23	3	4	2	I	2	0	442	1	poli_8sides 7_whiteLine3.jpg	Short_b20_cut1_stereo_44KHz.wav
1	24	1	1	1	C	2	0	646	0	poli_8sides 2_whiteLine3.jpg	Short_b22_cut1_stereo_44KHz.wav
1	25	2	1	0	C	2	1	599	1	poli_8sides 3_whiteLine3.jpg	Short_b22_cut1_stereo_44KHz.wav
1	26	1	2	0	C	2	1	769	1	poli_8sides 2_whiteLine3.jpg	Short_b23_cut1_stereo_44KHz.wav
1	27	4	4	2	I	1	0	806	1	poli_8sides 1_whiteLine3.jpg	Short_b20_cut1_stereo_44KHz.wav
1	28	3	3	2	I	1	0	945	1	poli_8sides 7_whiteLine3.jpg	Short_b09_cut1_stereo_44KHz.wav
1	29	4	3	2	I	2	0	786	0	poli_8sides 1_whiteLine3.jpg	Short_b09_cut1_stereo_44KHz.wav
1	30	1	1	1	C	2	0	636	0	poli_8sides 2_whiteLine3.jpg	Short_b22_cut1_stereo_44KHz.wav
1	31	3	4	2	I	2	0	605	0	poli_8sides 7_whiteLine3.jpg	Short_b20_cut1_stereo_44KHz.wav
1	32	2	2	1	C	2	0	563	0	poli_8sides 3_whiteLine3.jpg	Short_b23_cut1_stereo_44KHz.wav
1	33	1	2	0	C	2	1	576	1	poli_8sides 2_whiteLine3.jpg	Short_b23_cut1_stereo_44KHz.wav
1	34	4	3	2	I	1	0	782	0	poli_8sides 1_whiteLine3.jpg	Short_b09_cut1_stereo_44KHz.wav
1	35	2	2	1	C	2	0	943	0	poli_8sides 3_whiteLine3.jpg	Short_b23_cut1_stereo_44KHz.wav
1	36	3	3	2	I	2	0	792	1	poli_8sides 7_whiteLine3.jpg	Short_b09_cut1_stereo_44KHz.wav
1	37	4	4	2	I	2	0	680	0	poli_8sides 1_whiteLine3.jpg	Short_b20_cut1_stereo_44KHz.wav
1	38	3	4	2	I	2	0	663	1	poli_8sides 7_whiteLine3.jpg	Short_b20_cut1_stereo_44KHz.wav
1	39	1	1	1	C	2	0	466	0	poli_8sides 2_whiteLine3.jpg	Short_b22_cut1_stereo_44KHz.wav
1	40	2	1	0	C	2	1	661	1	poli_8sides 3_whiteLine3.jpg	Short_b22_cut1_stereo_44KHz.wav
1	41	3	3	2	I	1	0	875	0	poli_8sides 7_whiteLine3.jpg	Short_b09_cut1_stereo_44KHz.wav
1	42	1	2	0	C	2	1	588	1	poli_8sides 2_whiteLine3.jpg	Short_b23_cut1_stereo_44KHz.wav
1	43	2	1	0	C	2	1	701	1	poli_8sides 3_whiteLine3.jpg	Short_b22_cut1_stereo_44KHz.wav
1	44	4	4	2	I	2	0	1051	1	poli_8sides 1_whiteLine3.jpg	Short_b20_cut1_stereo_44KHz.wav
1	45	1	1	1	C	2	0	568	0	poli_8sides 2_whiteLine3.jpg	Short_b22_cut1_stereo_44KHz.wav
1	46	4	3	2	I	2	0	709	1	poli_8sides 1_whiteLine3.jpg	Short_b09_cut1_stereo_44KHz.wav
1	47	2	2	1	C	2	0	512	0	poli_8sides 3_whiteLine3.jpg	Short_b23_cut1_stereo_44KHz.wav
1	48	3	4	2	I	2	0	693	1	poli_8sides 7_whiteLine3.jpg	Short_b20_cut1_stereo_44KHz.wav
1	49	4	3	2	I	2	0	664	0	poli_8sides 1_whiteLine3.jpg	Short_b09_cut1_stereo_44KHz.wav
1	50	1	2	0	C	2	1	571	1	poli_8sides 2_whiteLine3.jpg	Short_b23_cut1_stereo_44KHz.wav
1	51	2	1	0	C	2	1	533	1	poli_8sides 3_whiteLine3.jpg	Short_b22_cut1_stereo_44KHz.wav
1	52	3	3	2	I	2	0	628	1	poli_8sides 7_whiteLine3.jpg	Short_b09_cut1_stereo_44KHz.wav
1	53	1	1	1	C	2	0	395	0	poli_8sides 2_whiteLine3.jpg	Short_b22_cut1_stereo_44KHz.wav
1	54	2	2	1	C	2	0	597	0	poli_8sides 3_whiteLine3.jpg	Short_b23_cut1_stereo_44KHz.wav
1	55	3	4	2	I	2	0	746	1	poli_8sides 7_whiteLine3.jpg	Short_b20_cut1_stereo_44KHz.wav
1	56	4	4	2	I	1	0	879	0	poli_8sides 1_whiteLine3.jpg	Short_b20_cut1_stereo_44KHz.wav
1	57	3	3	2	I	2	0	548	1	poli_8sides 7_whiteLine3.jpg	Short_b09_cut1_stereo_44KHz.wav
1	58	2	1	0	C	2	1	509	1	poli_8sides 3_whiteLine3.jpg	Short_b22_cut1_stereo_44KHz.wav
1	59	4	4	2	I	2	0	652	1	poli_8sides 1_whiteLine3.jpg	Short_b20_cut1_stereo_44KHz.wav
1	60	1	1	1	C	2	0	713	0	poli_8sides 2_whiteLine3.jpg	Short_b22_cut1_stereo_44KHz.wav
1	61	3	4	2	I	2	0	617	0	poli_8sides 7_whiteLine3.jpg	Short_b20_cut1_stereo_44KHz.wav
1	62	2	2	1	C	2	0	739	0	poli_8sides 3_whiteLine3.jpg	Short_b23_cut1_stereo_44KHz.wav
1	63	1	2	0	C	1	0	904	0	poli_8sides 2_whiteLine3.jpg	Short_b23_cut1_stereo_44KHz.wav
1	64	4	3	2	I	2	0	615	1	poli_8sides 1_whiteLine3.jpg	Short_b09_cut1_stereo_44KHz.wav
1	65	3	3	2	I	1	0	720	0	poli_8sides 7_whiteLine3.jpg	Short_b09_cut1_stereo_44KHz.wav
1	66	2	1	0	C	2	1	1111	1	poli_8sides 3_whiteLine3.jpg	Short_b22_cut1_stereo_44KHz.wav
1	67	4	3	2	I	2	0	757	0	poli_8sides 1_whiteLine3.jpg	Short_b09_cut1_stereo_44KHz.wav
1	68	1	2	0	C	2	1	673	1	poli_8sides 2_whiteLine3.jpg	Short_b23_cut1_stereo_44KHz.wav
1	69	3	4	2	I	2	0	605	1	poli_8sides 7_whiteLine3.jpg	Short_b20_cut1_stereo_44KHz.wav
1	70	1	1	1	C	2	0	640	0	poli_8sides 2_whiteLine3.jpg	Short_b22_cut1_stereo_44KHz.wav
1	71	2	2	1	C	2	0	615	0	poli_8sides 3_whiteLine3.jpg	Short_b23_cut1_stereo_44KHz.wav
1	72	4	4	2	I	1	0	846	1	poli_8sides 1_whiteLine3.jpg	Short_b20_cut1_stereo_44KHz.wav
1	73	2	1	0	C	2	1	708	1	poli_8sides 3_whiteLine3.jpg	Short_b22_cut1_stereo_44KHz.wav
1	74	3	3	2	I	2	0	708	1	poli_8sides 7_whiteLine3.jpg	Short_b09_cut1_stereo_44KHz.wav
1	75	1	1	1	C	2	0	564	0	poli_8sides 2_whiteLine3.jpg	Short_b22_cut1_stereo_44KHz.wav
1	76	4	3	2	I	2	0	534	0	poli_8sides 1_whiteLine3.jpg	Short_b09_cut1_stereo_44KHz.wav
1	77	1	2	0	C	2	1	594	1	poli_8sides 2_whiteLine3.jpg	Short_b23_cut1_stereo_44KHz.wav
1	78	4	4	2	I	1	0	747	1	poli_8sides 1_whiteLine3.jpg	Short_b20_cut1_stereo_44KHz.wav
1	79	2	2	1	C	2	0	633	0	poli_8sides 3_whiteLine3.jpg	Short_b23_cut1_stereo_44KHz.wav
1	80	3	4	2	I	2	0	701	1	poli_8sides 7_whiteLine3.jpg	Short_b20_cut1_stereo_44KHz.wav
1	81	2	1	0	C	2	1	576	1	poli_8sides 3_whiteLine3.jpg	Short_b22_cut1_stereo_44KHz.wav
1	82	3	3	2	I	2	0	924	0	poli_8sides 7_whiteLine3.jpg	Short_b09_cut1_stereo_44KHz.wav
1	83	1	2	0	C	2	1	580	1	poli_8sides 2_whiteLine3.jpg	Short_b23_cut1_stereo_44KHz.wav
1	84	4	4	2	I	1	0	730	1	poli_8sides 1_whiteLine3.jpg	Short_b20_cut1_stereo_44KHz.wav
1	85	3	4	2	I	2	0	621	1	poli_8sides 7_whiteLine3.jpg	Short_b20_cut1_stereo_44KHz.wav
1	86	2	2	1	C	2	0	1103	0	poli_8sides 3_whiteLine3.jpg	Short_b23_cut1_stereo_44KHz.wav
1	87	4	3	2	I	2	0	881	1	poli_8sides 1_whiteLine3.jpg	Short_b09_cut1_stereo_44KHz.wav
1	88	1	1	1	C	2	0	584	0	poli_8sides 2_whiteLine3.jpg	Short_b22_cut1_stereo_44KHz.wav
1	89	4	3	2	I	2	0	590	0	poli_8sides 1_whiteLine3.jpg	Short_b09_cut1_stereo_44KHz.wav
1	90	2	2	1	C	2	0	671	0	poli_8sides 3_whiteLine3.jpg	Short_b23_cut1_stereo_44KHz.wav
1	91	1	2	0	C	1	0	728	0	poli_8sides 2_whiteLine3.jpg	Short_b23_cut1_stereo_44KHz.wav
1	92	3	4	2	I	2	0	666	0	poli_8sides 7_whiteLine3.jpg	Short_b20_cut1_stereo_44KHz.wav
1	93	1	1	1	C	2	0	598	0	poli_8sides 2_whiteLine3.jpg	Short_b22_cut1_stereo_44KHz.wav
1	94	3	3	2	I	2	0	506	0	poli_8sides 7_whiteLine3.jpg	Short_b09_cut1_stereo_44KHz.wav
1	95	4	4	2	I	2	0	886	0	poli_8sides 1_whiteLine3.jpg	Short_b20_cut1_stereo_44KHz.wav
1	96	2	1	0	C	2	1	773	1	poli_8sides 3_whiteLine3.jpg	Short_b22_cut1_stereo_44KHz.wav
1	97	4	3	2	I	2	0	726	0	poli_8sides 1_whiteLine3.jpg	Short_b09_cut1_stereo_44KHz.wav
1	98	2	1	0	C	2	1	599	1	poli_8sides 3_whiteLine3.jpg	Short_b22_cut1_stereo_44KHz.wav
1	99	3	4	2	I	2	0	606	0	poli_8sides 7_whiteLine3.jpg	Short_b20_cut1_stereo_44KHz.wav
1	100	1	1	1	C	2	0	673	0	poli_8sides 2_whiteLine3.jpg	Short_b22_cut1_stereo_44KHz.wav
1	101	4	4	2	I	1	0	945	0	poli_8sides 1_whiteLine3.jpg	Short_b20_cut1_stereo_44KHz.wav
1	102	1	2	0	C	2	1	662	1	poli_8sides 2_whiteLine3.jpg	Short_b23_cut1_stereo_44KHz.wav
1	103	3	3	2	I	2	0	718	1	poli_8sides 7_whiteLine3.jpg	Short_b09_cut1_stereo_44KHz.wav
1	104	2	2	1	C	2	0	574	0	poli_8sides 3_whiteLine3.jpg	Short_b23_cut1_stereo_44KHz.wav
1	105	1	1	1	C	1	1	813	1	poli_8sides 2_whiteLine3.jpg	Short_b22_cut1_stereo_44KHz.wav
1	106	4	4	2	I	2	0	733	1	poli_8sides 1_whiteLine3.jpg	Short_b20_cut1_stereo_44KHz.wav
1	107	3	3	2	I	2	0	674	1	poli_8sides 7_whiteLine3.jpg	Short_b09_cut1_stereo_44KHz.wav
1	108	2	2	1	C	2	0	632	0	poli_8sides 3_whiteLine3.jpg	Short_b23_cut1_stereo_44KHz.wav
1	109	1	2	0	C	1	0	791	0	poli_8sides 2_whiteLine3.jpg	Short_b23_cut1_stereo_44KHz.wav
1	110	2	1	0	C	2	1	631	1	poli_8sides 3_whiteLine3.jpg	Short_b22_cut1_stereo_44KHz.wav
1	111	4	3	2	I	2	0	738	0	poli_8sides 1_whiteLine3.jpg	Short_b09_cut1_stereo_44KHz.wav
1	112	3	4	2	I	2	0	579	0	poli_8sides 7_whiteLine3.jpg	Short_b20_cut1_stereo_44KHz.wav
1	113	4	4	2	I	2	0	610	1	poli_8sides 1_whiteLine3.jpg	Short_b20_cut1_stereo_44KHz.wav
1	114	3	4	2	I	2	0	627	0	poli_8sides 7_whiteLine3.jpg	Short_b20_cut1_stereo_44KHz.wav
1	115	1	2	0	C	2	1	653	1	poli_8sides 2_whiteLine3.jpg	Short_b23_cut1_stereo_44KHz.wav
1	116	2	1	0	C	2	1	666	1	poli_8sides 3_whiteLine3.jpg	Short_b22_cut1_stereo_44KHz.wav
1	117	4	3	2	I	1	0	739	1	poli_8sides 1_whiteLine3.jpg	Short_b09_cut1_stereo_44KHz.wav
1	118	2	2	1	C	2	0	650	0	poli_8sides 3_whiteLine3.jpg	Short_b23_cut1_stereo_44KHz.wav
1	119	3	3	2	I	2	0	1203	0	poli_8sides 7_whiteLine3.jpg	Short_b09_cut1_stereo_44KHz.wav
1	120	1	1	1	C	2	0	708	0	poli_8sides 2_whiteLine3.jpg	Short_b22_cut1_stereo_44KHz.wav
1	121	4	3	2	I	1	0	1154	0	poli_8sides 1_whiteLine3.jpg	Short_b09_cut1_stereo_44KHz.wav
1	122	1	2	0	C	1	0	664	0	poli_8sides 2_whiteLine3.jpg	Short_b23_cut1_stereo_44KHz.wav
1	123	3	4	2	I	2	0	588	1	poli_8sides 7_whiteLine3.jpg	Short_b20_cut1_stereo_44KHz.wav
1	124	2	2	1	C	2	0	569	0	poli_8sides 3_whiteLine3.jpg	Short_b23_cut1_stereo_44KHz.wav
1	125	3	3	2	I	1	0	1000	1	poli_8sides 7_whiteLine3.jpg	Short_b09_cut1_stereo_44KHz.wav
1	126	1	1	1	C	1	1	565	1	poli_8sides 2_whiteLine3.jpg	Short_b22_cut1_stereo_44KHz.wav
1	127	2	1	0	C	1	0	756	0	poli_8sides 3_whiteLine3.jpg	Short_b22_cut1_stereo_44KHz.wav
1	128	4	4	2	I	1	0	757	1	poli_8sides 1_whiteLine3.jpg	Short_b20_cut1_stereo_44KHz.wav
1	129	2	1	0	C	2	1	617	1	poli_8sides 3_whiteLine3.jpg	Short_b22_cut1_stereo_44KHz.wav
1	130	1	1	1	C	1	1	821	1	poli_8sides 2_whiteLine3.jpg	Short_b22_cut1_stereo_44KHz.wav
1	131	3	3	2	I	2	0	664	0	poli_8sides 7_whiteLine3.jpg	Short_b09_cut1_stereo_44KHz.wav
1	132	4	4	2	I	1	0	814	1	poli_8sides 1_whiteLine3.jpg	Short_b20_cut1_stereo_44KHz.wav
1	133	3	4	2	I	2	0	589	1	poli_8sides 7_whiteLine3.jpg	Short_b20_cut1_stereo_44KHz.wav
1	134	1	2	0	C	1	0	667	0	poli_8sides 2_whiteLine3.jpg	Short_b23_cut1_stereo_44KHz.wav
1	135	2	2	1	C	2	0	650	0	poli_8sides 3_whiteLine3.jpg	Short_b23_cut1_stereo_44KHz.wav
1	136	4	3	2	I	1	0	597	1	poli_8sides 1_whiteLine3.jpg	Short_b09_cut1_stereo_44KHz.wav
1	137	2	2	1	C	2	0	634	0	poli_8sides 3_whiteLine3.jpg	Short_b23_cut1_stereo_44KHz.wav
1	138	4	3	2	I	1	0	702	0	poli_8sides 1_whiteLine3.jpg	Short_b09_cut1_stereo_44KHz.wav
1	139	1	1	1	C	2	0	557	0	poli_8sides 2_whiteLine3.jpg	Short_b22_cut1_stereo_44KHz.wav
1	140	3	3	2	I	2	0	685	0	poli_8sides 7_whiteLine3.jpg	Short_b09_cut1_stereo_44KHz.wav
1	141	1	2	0	C	1	0	671	0	poli_8sides 2_whiteLine3.jpg	Short_b23_cut1_stereo_44KHz.wav
1	142	4	4	2	I	1	0	1066	1	poli_8sides 1_whiteLine3.jpg	Short_b20_cut1_stereo_44KHz.wav
1	143	2	1	0	C	1	0	833	0	poli_8sides 3_whiteLine3.jpg	Short_b22_cut1_stereo_44KHz.wav
1	144	3	4	2	I	2	0	615	1	poli_8sides 7_whiteLine3.jpg	Short_b20_cut1_stereo_44KHz.wav
1	145	2	2	1	C	2	0	734	0	poli_8sides 3_whiteLine3.jpg	Short_b23_cut1_stereo_44KHz.wav
1	146	4	3	2	I	1	0	919	1	poli_8sides 1_whiteLine3.jpg	Short_b09_cut1_stereo_44KHz.wav
1	147	3	3	2	I	2	0	887	0	poli_8sides 7_whiteLine3.jpg	Short_b09_cut1_stereo_44KHz.wav
1	148	1	1	1	C	2	0	789	0	poli_8sides 2_whiteLine3.jpg	Short_b22_cut1_stereo_44KHz.wav
1	149	4	4	2	I	1	0	850	1	poli_8sides 1_whiteLine3.jpg	Short_b20_cut1_stereo_44KHz.wav
1	150	3	4	2	I	2	0	505	0	poli_8sides 7_whiteLine3.jpg	Short_b20_cut1_stereo_44KHz.wav
1	151	1	2	0	C	2	1	758	1	poli_8sides 2_whiteLine3.jpg	Short_b23_cut1_stereo_44KHz.wav
1	152	2	1	0	C	2	1	730	1	poli_8sides 3_whiteLine3.jpg	Short_b22_cut1_stereo_44KHz.wav
1	153	4	3	2	I	1	0	774	0	poli_8sides 1_whiteLine3.jpg	Short_b09_cut1_stereo_44KHz.wav
1	154	3	4	2	I	2	0	526	0	poli_8sides 7_whiteLine3.jpg	Short_b20_cut1_stereo_44KHz.wav
1	155	2	1	0	C	1	0	689	0	poli_8sides 3_whiteLine3.jpg	Short_b22_cut1_stereo_44KHz.wav
1	156	1	1	1	C	2	0	868	0	poli_8sides 2_whiteLine3.jpg	Short_b22_cut1_stereo_44KHz.wav
1	157	4	4	2	I	1	0	1020	1	poli_8sides 1_whiteLine3.jpg	Short_b20_cut1_stereo_44KHz.wav
1	158	2	2	1	C	2	0	1017	0	poli_8sides 3_whiteLine3.jpg	Short_b23_cut1_stereo_44KHz.wav
1	159	1	2	0	C	2	1	664	1	poli_8sides 2_whiteLine3.jpg	Short_b23_cut1_stereo_44KHz.wav
1	160	3	3	2	I	2	0	675	0	poli_8sides 7_whiteLine3.jpg	Short_b09_cut1_stereo_44KHz.wav
1	161	2	2	1	C	2	0	797	0	poli_8sides 3_whiteLine3.jpg	Short_b23_cut1_stereo_44KHz.wav
1	162	3	3	2	I	1	0	877	0	poli_8sides 7_whiteLine3.jpg	Short_b09_cut1_stereo_44KHz.wav
1	163	4	4	2	I	1	0	701	1	poli_8sides 1_whiteLine3.jpg	Short_b20_cut1_stereo_44KHz.wav
1	164	1	2	0	C	1	0	859	0	poli_8sides 2_whiteLine3.jpg	Short_b23_cut1_stereo_44KHz.wav
1	165	2	1	0	C	1	0	830	0	poli_8sides 3_whiteLine3.jpg	Short_b22_cut1_stereo_44KHz.wav
1	166	3	4	2	I	2	0	482	1	poli_8sides 7_whiteLine3.jpg	Short_b20_cut1_stereo_44KHz.wav
1	167	4	3	2	I	2	0	623	1	poli_8sides 1_whiteLine3.jpg	Short_b09_cut1_stereo_44KHz.wav
1	168	1	1	1	C	2	0	701	0	poli_8sides 2_whiteLine3.jpg	Short_b22_cut1_stereo_44KHz.wav
1	169	2	2	1	C	1	1	499	1	poli_8sides 3_whiteLine3.jpg	Short_b23_cut1_stereo_44KHz.wav
1	170	4	4	2	I	1	0	780	0	poli_8sides 1_whiteLine3.jpg	Short_b20_cut1_stereo_44KHz.wav
1	171	3	4	2	I	2	0	623	0	poli_8sides 7_whiteLine3.jpg	Short_b20_cut1_stereo_44KHz.wav
1	172	1	1	1	C	2	0	664	0	poli_8sides 2_whiteLine3.jpg	Short_b22_cut1_stereo_44KHz.wav
1	173	4	3	2	I	2	0	1019	0	poli_8sides 1_whiteLine3.jpg	Short_b09_cut1_stereo_44KHz.wav
1	174	2	1	0	C	2	1	743	1	poli_8sides 3_whiteLine3.jpg	Short_b22_cut1_stereo_44KHz.wav
1	175	1	2	0	C	2	1	817	1	poli_8sides 2_whiteLine3.jpg	Short_b23_cut1_stereo_44KHz.wav
1	176	3	3	2	I	2	0	798	0	poli_8sides 7_whiteLine3.jpg	Short_b09_cut1_stereo_44KHz.wav
1	177	2	2	1	C	2	0	593	0	poli_8sides 3_whiteLine3.jpg	Short_b23_cut1_stereo_44KHz.wav
1	178	1	2	0	C	2	1	622	1	poli_8sides 2_whiteLine3.jpg	Short_b23_cut1_stereo_44KHz.wav
1	179	4	3	2	I	1	0	691	0	poli_8sides 1_whiteLine3.jpg	Short_b09_cut1_stereo_44KHz.wav
1	180	3	3	2	I	2	0	603	0	poli_8sides 7_whiteLine3.jpg	Short_b09_cut1_stereo_44KHz.wav
1	181	4	4	2	I	1	0	942	1	poli_8sides 1_whiteLine3.jpg	Short_b20_cut1_stereo_44KHz.wav
1	182	2	1	0	C	2	1	766	1	poli_8sides 3_whiteLine3.jpg	Short_b22_cut1_stereo_44KHz.wav
1	183	3	4	2	I	2	0	712	0	poli_8sides 7_whiteLine3.jpg	Short_b20_cut1_stereo_44KHz.wav
1	184	1	1	1	C	2	0	805	0	poli_8sides 2_whiteLine3.jpg	Short_b22_cut1_stereo_44KHz.wav
1	185	2	2	1	C	2	0	685	0	poli_8sides 3_whiteLine3.jpg	Short_b23_cut1_stereo_44KHz.wav
1	186	1	2	0	C	2	1	565	1	poli_8sides 2_whiteLine3.jpg	Short_b23_cut1_stereo_44KHz.wav
1	187	3	4	2	I	2	0	584	0	poli_8sides 7_whiteLine3.jpg	Short_b20_cut1_stereo_44KHz.wav
1	188	4	3	2	I	2	0	613	1	poli_8sides 1_whiteLine3.jpg	Short_b09_cut1_stereo_44KHz.wav
1	189	2	1	0	C	1	0	579	0	poli_8sides 3_whiteLine3.jpg	Short_b22_cut1_stereo_44KHz.wav
1	190	1	1	1	C	2	0	507	0	poli_8sides 2_whiteLine3.jpg	Short_b22_cut1_stereo_44KHz.wav
1	191	4	4	2	I	2	0	754	0	poli_8sides 1_whiteLine3.jpg	Short_b20_cut1_stereo_44KHz.wav
1	192	3	3	2	I	2	0	776	0	poli_8sides 7_whiteLine3.jpg	Short_b09_cut1_stereo_44KHz.wav
1	193	4	4	2	I	1	0	982	0	poli_8sides 1_whiteLine3.jpg	Short_b20_cut1_stereo_44KHz.wav
1	194	3	3	2	I	1	0	735	0	poli_8sides 7_whiteLine3.jpg	Short_b09_cut1_stereo_44KHz.wav
1	195	2	1	0	C	2	1	668	1	poli_8sides 3_whiteLine3.jpg	Short_b22_cut1_stereo_44KHz.wav
1	196	1	2	0	C	2	1	531	1	poli_8sides 2_whiteLine3.jpg	Short_b23_cut1_stereo_44KHz.wav
1	197	4	3	2	I	1	0	945	1	poli_8sides 1_whiteLine3.jpg	Short_b09_cut1_stereo_44KHz.wav
1	198	3	4	2	I	1	0	791	1	poli_8sides 7_whiteLine3.jpg	Short_b20_cut1_stereo_44KHz.wav
1	199	2	2	1	C	1	1	968	1	poli_8sides 3_whiteLine3.jpg	Short_b23_cut1_stereo_44KHz.wav
1	200	1	1	1	C	1	1	538	1	poli_8sides 2_whiteLine3.jpg	Short_b22_cut1_stereo_44KHz.wav
2	1	4	3	2	I	2	0	686	0	poli_8sides 4_whiteLine3.jpg	Medium_e26_stereo_44KHz.wav
2	2	1	2	0	C	2	1	708	1	poli_8sides 8_whiteLine3.jpg	MediumLong_e17_cut2_stereo_44KHz.wav
2	3	3	4	2	I	2	0	770	0	poli_8sides 6_whiteLine3.jpg	Medium_e21_stereo_44KHz.wav
2	4	2	1	0	C	2	1	1137	1	poli_8sides 15_whiteLine3.jpg	MediumLong_b10_cut2_L_stereo_44KHz.wav
2	5	4	4	2	I	1	0	929	1	poli_8sides 4_whiteLine3.jpg	Medium_e21_stereo_44KHz.wav
2	6	3	3	2	I	2	0	764	1	poli_8sides 6_whiteLine3.jpg	Medium_e26_stereo_44KHz.wav
2	7	2	2	1	C	2	0	894	0	poli_8sides 15_whiteLine3.jpg	MediumLong_e17_cut2_stereo_44KHz.wav
2	8	1	1	1	C	2	0	838	0	poli_8sides 8_whiteLine3.jpg	MediumLong_b10_cut2_L_stereo_44KHz.wav
2	9	3	3	2	I	2	0	1101	0	poli_8sides 6_whiteLine3.jpg	Medium_e26_stereo_44KHz.wav
2	10	2	2	1	C	1	1	1165	1	poli_8sides 15_whiteLine3.jpg	MediumLong_e17_cut2_stereo_44KHz.wav
2	11	1	2	0	C	2	1	997	1	poli_8sides 8_whiteLine3.jpg	MediumLong_e17_cut2_stereo_44KHz.wav
2	12	4	4	2	I	2	0	896	0	poli_8sides 4_whiteLine3.jpg	Medium_e21_stereo_44KHz.wav
2	13	3	4	2	I	1	0	794	0	poli_8sides 6_whiteLine3.jpg	Medium_e21_stereo_44KHz.wav
2	14	2	1	0	C	1	0	789	0	poli_8sides 15_whiteLine3.jpg	MediumLong_b10_cut2_L_stereo_44KHz.wav
2	15	4	3	2	I	1	0	936	0	poli_8sides 4_whiteLine3.jpg	Medium_e26_stereo_44KHz.wav
2	16	1	1	1	C	2	0	1402	0	poli_8sides 8_whiteLine3.jpg	MediumLong_b10_cut2_L_stereo_44KHz.wav
2	17	3	3	2	I	2	0	1124	1	poli_8sides 6_whiteLine3.jpg	Medium_e26_stereo_44KHz.wav
2	18	1	2	0	C	2	1	1090	1	poli_8sides 8_whiteLine3.jpg	MediumLong_e17_cut2_stereo_44KHz.wav
2	19	4	3	2	I	2	0	1102	1	poli_8sides 4_whiteLine3.jpg	Medium_e26_stereo_44KHz.wav
2	20	2	2	1	C	2	0	887	0	poli_8sides 15_whiteLine3.jpg	MediumLong_e17_cut2_stereo_44KHz.wav
2	21	4	4	2	I	1	0	1152	1	poli_8sides 4_whiteLine3.jpg	Medium_e21_stereo_44KHz.wav
2	22	3	4	2	I	1	0	1016	1	poli_8sides 6_whiteLine3.jpg	Medium_e21_stereo_44KHz.wav
2	23	1	1	1	C	2	0	789	0	poli_8sides 8_whiteLine3.jpg	MediumLong_b10_cut2_L_stereo_44KHz.wav
2	24	2	1	0	C	1	0	1006	0	poli_8sides 15_whiteLine3.jpg	MediumLong_b10_cut2_L_stereo_44KHz.wav
2	25	3	3	2	I	2	0	790	0	poli_8sides 6_whiteLine3.jpg	Medium_e26_stereo_44KHz.wav
2	26	4	3	2	I	2	0	628	0	poli_8sides 4_whiteLine3.jpg	Medium_e26_stereo_44KHz.wav
2	27	1	1	1	C	2	0	923	0	poli_8sides 8_whiteLine3.jpg	MediumLong_b10_cut2_L_stereo_44KHz.wav
2	28	2	1	0	C	2	1	783	1	poli_8sides 15_whiteLine3.jpg	MediumLong_b10_cut2_L_stereo_44KHz.wav
2	29	1	2	0	C	2	1	841	1	poli_8sides 8_whiteLine3.jpg	MediumLong_e17_cut2_stereo_44KHz.wav
2	30	2	2	1	C	1	1	768	1	poli_8sides 15_whiteLine3.jpg	MediumLong_e17_cut2_stereo_44KHz.wav
2	31	3	4	2	I	1	0	757	0	poli_8sides 6_whiteLine3.jpg	Medium_e21_stereo_44KHz.wav
2	32	4	4	2	I	1	0	1151	0	poli_8sides 4_whiteLine3.jpg	Medium_e21_stereo_44KHz.wav
2	33	3	4	2	I	1	0	793	1	poli_8sides 6_whiteLine3.jpg	Medium_e21_stereo_44KHz.wav
2	34	2	1	0	C	1	0	962	0	poli_8sides 15_whiteLine3.jpg	MediumLong_b10_cut2_L_stereo_44KHz.wav
2	35	4	4	2	I	2	0	618	1	poli_8sides 4_whiteLine3.jpg	Medium_e21_stereo_44KHz.wav
2	36	1	2	0	C	2	1	774	1	poli_8sides 8_whiteLine3.jpg	MediumLong_e17_cut2_stereo_44KHz.wav
2	37	3	3	2	I	1	0	1036	1	poli_8sides 6_whiteLine3.jpg	Medium_e26_stereo_44KHz.wav
2	38	1	1	1	C	1	1	723	1	poli_8sides 8_whiteLine3.jpg	MediumLong_b10_cut2_L_stereo_44KHz.wav
2	39	4	3	2	I	2	0	1110	1	poli_8sides 4_whiteLine3.jpg	Medium_e26_stereo_44KHz.wav
2	40	2	2	1	C	2	0	971	0	poli_8sides 15_whiteLine3.jpg	MediumLong_e17_cut2_stereo_44KHz.wav
2	41	1	1	1	C	2	0	1067	0	poli_8sides 8_whiteLine3.jpg	MediumLong_b10_cut2_L_stereo_44KHz.wav
2	42	2	1	0	C	1	0	982	0	poli_8sides 15_whiteLine3.jpg	MediumLong_b10_cut2_L_stereo_44KHz.wav
2	43	4	3	2	I	2	0	610	1	poli_8sides 4_whiteLine3.jpg	Medium_e26_stereo_44KHz.wav
2	44	3	4	2	I	2	0	940	1	poli_8sides 6_whiteLine3.jpg	Medium_e21_stereo_44KHz.wav
2	45	1	2	0	C	1	0	996	0	poli_8sides 8_whiteLine3.jpg	MediumLong_e17_cut2_stereo_44KHz.wav
2	46	2	2	1	C	1	1	829	1	poli_8sides 15_whiteLine3.jpg	MediumLong_e17_cut2_stereo_44KHz.wav
2	47	4	4	2	I	1	0	1013	1	poli_8sides 4_whiteLine3.jpg	Medium_e21_stereo_44KHz.wav
2	48	3	3	2	I	1	0	901	1	poli_8sides 6_whiteLine3.jpg	Medium_e26_stereo_44KHz.wav
2	49	4	3	2	I	2	0	503	0	poli_8sides 4_whiteLine3.jpg	Medium_e26_stereo_44KHz.wav
2	50	1	2	0	C	2	1	893	1	poli_8sides 8_whiteLine3.jpg	MediumLong_e17_cut2_stereo_44KHz.wav
2	51	2	1	0	C	2	1	1059	1	poli_8sides 15_whiteLine3.jpg	MediumLong_b10_cut2_L_stereo_44KHz.wav
2	52	3	3	2	I	1	0	1210	1	poli_8sides 6_whiteLine3.jpg	Medium_e26_stereo_44KHz.wav
2	53	2	2	1	C	2	0	1040	0	poli_8sides 15_whiteLine3.jpg	MediumLong_e17_cut2_stereo_44KHz.wav
2	54	1	1	1	C	2	0	772	0	poli_8sides 8_whiteLine3.jpg	MediumLong_b10_cut2_L_stereo_44KHz.wav
2	55	3	4	2	I	2	0	1018	0	poli_8sides 6_whiteLine3.jpg	Medium_e21_stereo_44KHz.wav
2	56	4	4	2	I	1	0	1155	1	poli_8sides 4_whiteLine3.jpg	Medium_e21_stereo_44KHz.wav
2	57	1	1	1	C	2	0	831	0	poli_8sides 8_whiteLine3.jpg	MediumLong_b10_cut2_L_stereo_44KHz.wav
2	58	2	2	1	C	2	0	836	0	poli_8sides 15_whiteLine3.jpg	MediumLong_e17_cut2_stereo_44KHz.wav
2	59	4	3	2	I	2	0	697	1	poli_8sides 4_whiteLine3.jpg	Medium_e26_stereo_44KHz.wav
2	60	3	3	2	I	1	0	933	0	poli_8sides 6_whiteLine3.jpg	Medium_e26_stereo_44KHz.wav
2	61	1	2	0	C	2	1	902	1	poli_8sides 8_whiteLine3.jpg	MediumLong_e17_cut2_stereo_44KHz.wav
2	62	3	4	2	I	2	0	872	0	poli_8sides 6_whiteLine3.jpg	Medium_e21_stereo_44KHz.wav
2	63	2	1	0	C	2	1	893	1	poli_8sides 15_whiteLine3.jpg	MediumLong_b10_cut2_L_stereo_44KHz.wav
2	64	4	4	2	I	1	0	932	1	poli_8sides 4_whiteLine3.jpg	Medium_e21_stereo_44KHz.wav
2	65	3	3	2	I	1	0	988	1	poli_8sides 6_whiteLine3.jpg	Medium_e26_stereo_44KHz.wav
2	66	1	1	1	C	2	0	803	0	poli_8sides 8_whiteLine3.jpg	MediumLong_b10_cut2_L_stereo_44KHz.wav
2	67	2	2	1	C	1	1	889	1	poli_8sides 15_whiteLine3.jpg	MediumLong_e17_cut2_stereo_44KHz.wav
2	68	4	3	2	I	2	0	444	1	poli_8sides 4_whiteLine3.jpg	Medium_e26_stereo_44KHz.wav
2	69	3	4	2	I	2	0	790	0	poli_8sides 6_whiteLine3.jpg	Medium_e21_stereo_44KHz.wav
2	70	4	4	2	I	2	0	1018	1	poli_8sides 4_whiteLine3.jpg	Medium_e21_stereo_44KHz.wav
2	71	1	2	0	C	2	1	912	1	poli_8sides 8_whiteLine3.jpg	MediumLong_e17_cut2_stereo_44KHz.wav
2	72	2	1	0	C	1	0	1047	0	poli_8sides 15_whiteLine3.jpg	MediumLong_b10_cut2_L_stereo_44KHz.wav
2	73	3	4	2	I	2	0	954	1	poli_8sides 6_whiteLine3.jpg	Medium_e21_stereo_44KHz.wav
2	74	1	2	0	C	2	1	1003	1	poli_8sides 8_whiteLine3.jpg	MediumLong_e17_cut2_stereo_44KHz.wav
2	75	2	1	0	C	2	1	871	1	poli_8sides 15_whiteLine3.jpg	MediumLong_b10_cut2_L_stereo_44KHz.wav
2	76	4	4	2	I	1	0	623	0	poli_8sides 4_whiteLine3.jpg	Medium_e21_stereo_44KHz.wav
2	77	3	3	2	I	1	0	691	1	poli_8sides 6_whiteLine3.jpg	Medium_e26_stereo_44KHz.wav
2	78	1	1	1	C	2	0	721	0	poli_8sides 8_whiteLine3.jpg	MediumLong_b10_cut2_L_stereo_44KHz.wav
2	79	4	3	2	I	2	0	602	0	poli_8sides 4_whiteLine3.jpg	Medium_e26_stereo_44KHz.wav
2	80	2	2	1	C	2	0	782	0	poli_8sides 15_whiteLine3.jpg	MediumLong_e17_cut2_stereo_44KHz.wav
2	81	1	1	1	C	2	0	708	0	poli_8sides 8_whiteLine3.jpg	MediumLong_b10_cut2_L_stereo_44KHz.wav
2	82	2	1	0	C	2	1	742	1	poli_8sides 15_whiteLine3.jpg	MediumLong_b10_cut2_L_stereo_44KHz.wav
2	83	3	3	2	I	1	0	835	0	poli_8sides 6_whiteLine3.jpg	Medium_e26_stereo_44KHz.wav
2	84	4	4	2	I	1	0	960	0	poli_8sides 4_whiteLine3.jpg	Medium_e21_stereo_44KHz.wav
2	85	2	2	1	C	1	1	1116	1	poli_8sides 15_whiteLine3.jpg	MediumLong_e17_cut2_stereo_44KHz.wav
2	86	3	4	2	I	2	0	1207	0	poli_8sides 6_whiteLine3.jpg	Medium_e21_stereo_44KHz.wav
2	87	1	2	0	C	2	1	766	1	poli_8sides 8_whiteLine3.jpg	MediumLong_e17_cut2_stereo_44KHz.wav
2	88	4	3	2	I	2	0	757	0	poli_8sides 4_whiteLine3.jpg	Medium_e26_stereo_44KHz.wav
2	89	2	2	1	C	1	1	787	1	poli_8sides 15_whiteLine3.jpg	MediumLong_e17_cut2_stereo_44KHz.wav
2	90	3	3	2	I	2	0	1175	0	poli_8sides 6_whiteLine3.jpg	Medium_e26_stereo_44KHz.wav
2	91	1	2	0	C	2	1	917	1	poli_8sides 8_whiteLine3.jpg	MediumLong_e17_cut2_stereo_44KHz.wav
2	92	4	4	2	I	2	0	790	1	poli_8sides 4_whiteLine3.jpg	Medium_e21_stereo_44KHz.wav
2	93	3	4	2	I	1	0	740	1	poli_8sides 6_whiteLine3.jpg	Medium_e21_stereo_44KHz.wav
2	94	4	3	2	I	2	0	693	1	poli_8sides 4_whiteLine3.jpg	Medium_e26_stereo_44KHz.wav
2	95	2	1	0	C	2	1	800	1	poli_8sides 15_whiteLine3.jpg	MediumLong_b10_cut2_L_stereo_44KHz.wav
2	96	1	1	1	C	1	1	906	1	poli_8sides 8_whiteLine3.jpg	MediumLong_b10_cut2_L_stereo_44KHz.wav
2	97	3	3	2	I	1	0	802	0	poli_8sides 6_whiteLine3.jpg	Medium_e26_stereo_44KHz.wav
2	98	1	1	1	C	1	1	832	1	poli_8sides 8_whiteLine3.jpg	MediumLong_b10_cut2_L_stereo_44KHz.wav
2	99	4	3	2	I	2	0	731	0	poli_8sides 4_whiteLine3.jpg	Medium_e26_stereo_44KHz.wav
2	100	2	1	0	C	2	1	806	1	poli_8sides 15_whiteLine3.jpg	MediumLong_b10_cut2_L_stereo_44KHz.wav
2	101	3	4	2	I	1	0	727	0	poli_8sides 6_whiteLine3.jpg	Medium_e21_stereo_44KHz.wav
2	102	2	2	1	C	1	1	663	1	poli_8sides 15_whiteLine3.jpg	MediumLong_e17_cut2_stereo_44KHz.wav
2	103	4	4	2	I	2	0	1008	0	poli_8sides 4_whiteLine3.jpg	Medium_e21_stereo_44KHz.wav
2	104	1	2	0	C	2	1	961	1	poli_8sides 8_whiteLine3.jpg	MediumLong_e17_cut2_stereo_44KHz.wav
2	105	4	4	2	I	1	0	1038	1	poli_8sides 4_whiteLine3.jpg	Medium_e21_stereo_44KHz.wav
2	106	2	2	1	C	2	0	929	0	poli_8sides 15_whiteLine3.jpg	MediumLong_e17_cut2_stereo_44KHz.wav
2	107	1	1	1	C	2	0	777	0	poli_8sides 8_whiteLine3.jpg	MediumLong_b10_cut2_L_stereo_44KHz.wav
2	108	3	3	2	I	1	0	927	1	poli_8sides 6_whiteLine3.jpg	Medium_e26_stereo_44KHz.wav
2	109	2	1	0	C	2	1	984	1	poli_8sides 15_whiteLine3.jpg	MediumLong_b10_cut2_L_stereo_44KHz.wav
2	110	1	2	0	C	2	1	953	1	poli_8sides 8_whiteLine3.jpg	MediumLong_e17_cut2_stereo_44KHz.wav
2	111	3	4	2	I	1	0	977	1	poli_8sides 6_whiteLine3.jpg	Medium_e21_stereo_44KHz.wav
2	112	4	3	2	I	2	0	750	0	poli_8sides 4_whiteLine3.jpg	Medium_e26_stereo_44KHz.wav
2	113	2	1	0	C	2	1	842	1	poli_8sides 15_whiteLine3.jpg	MediumLong_b10_cut2_L_stereo_44KHz.wav
2	114	4	4	2	I	1	0	850	0	poli_8sides 4_whiteLine3.jpg	Medium_e21_stereo_44KHz.wav
2	115	1	1	1	C	2	0	735	0	poli_8sides 8_whiteLine3.jpg	MediumLong_b10_cut2_L_stereo_44KHz.wav
2	116	3	3	2	I	1	0	732	0	poli_8sides 6_whiteLine3.jpg	Medium_e26_stereo_44KHz.wav
2	117	1	2	0	C	2	1	807	1	poli_8sides 8_whiteLine3.jpg	MediumLong_e17_cut2_stereo_44KHz.wav
2	118	3	4	2	I	2	0	787	0	poli_8sides 6_whiteLine3.jpg	Medium_e21_stereo_44KHz.wav
2	119	2	2	1	C	1	1	827	1	poli_8sides 15_whiteLine3.jpg	MediumLong_e17_cut2_stereo_44KHz.wav
2	120	4	3	2	I	2	0	707	0	poli_8sides 4_whiteLine3.jpg	Medium_e26_stereo_44KHz.wav
2	121	2	2	1	C	1	1	917	1	poli_8sides 15_whiteLine3.jpg	MediumLong_e17_cut2_stereo_44KHz.wav
2	122	3	3	2	I	2	0	795	0	poli_8sides 6_whiteLine3.jpg	Medium_e26_stereo_44KHz.wav
2	123	4	4	2	I	1	0	912	0	poli_8sides 4_whiteLine3.jpg	Medium_e21_stereo_44KHz.wav
2	124	1	2	0	C	2	1	982	1	poli_8sides 8_whiteLine3.jpg	MediumLong_e17_cut2_stereo_44KHz.wav
2	125	3	4	2	I	2	0	652	0	poli_8sides 6_whiteLine3.jpg	Medium_e21_stereo_44KHz.wav
2	126	4	3	2	I	2	0	727	0	poli_8sides 4_whiteLine3.jpg	Medium_e26_stereo_44KHz.wav
2	127	1	1	1	C	2	0	791	0	poli_8sides 8_whiteLine3.jpg	MediumLong_b10_cut2_L_stereo_44KHz.wav
2	128	2	1	0	C	2	1	759	1	poli_8sides 15_whiteLine3.jpg	MediumLong_b10_cut2_L_stereo_44KHz.wav
2	129	4	4	2	I	1	0	744	0	poli_8sides 4_whiteLine3.jpg	Medium_e21_stereo_44KHz.wav
2	130	2	1	0	C	1	0	685	0	poli_8sides 15_whiteLine3.jpg	MediumLong_b10_cut2_L_stereo_44KHz.wav
2	131	3	3	2	I	1	0	788	0	poli_8sides 6_whiteLine3.jpg	Medium_e26_stereo_44KHz.wav
2	132	1	1	1	C	2	0	743	0	poli_8sides 8_whiteLine3.jpg	MediumLong_b10_cut2_L_stereo_44KHz.wav
2	133	2	2	1	C	1	1	887	1	poli_8sides 15_whiteLine3.jpg	MediumLong_e17_cut2_stereo_44KHz.wav
2	134	4	3	2	I	2	0	709	1	poli_8sides 4_whiteLine3.jpg	Medium_e26_stereo_44KHz.wav
2	135	1	2	0	C	2	1	947	1	poli_8sides 8_whiteLine3.jpg	MediumLong_e17_cut2_stereo_44KHz.wav
2	136	3	4	2	I	2	0	770	1	poli_8sides 6_whiteLine3.jpg	Medium_e21_stereo_44KHz.wav
2	137	2	2	1	C	1	1	700	1	poli_8sides 15_whiteLine3.jpg	MediumLong_e17_cut2_stereo_44KHz.wav
2	138	3	4	2	I	2	0	690	1	poli_8sides 6_whiteLine3.jpg	Medium_e21_stereo_44KHz.wav
2	139	1	1	1	C	1	1	593	1	poli_8sides 8_whiteLine3.jpg	MediumLong_b10_cut2_L_stereo_44KHz.wav
2	140	4	3	2	I	2	0	675	1	poli_8sides 4_whiteLine3.jpg	Medium_e26_stereo_44KHz.wav
2	141	2	1	0	C	1	0	850	0	poli_8sides 15_whiteLine3.jpg	MediumLong_b10_cut2_L_stereo_44KHz.wav
2	142	4	4	2	I	1	0	818	0	poli_8sides 4_whiteLine3.jpg	Medium_e21_stereo_44KHz.wav
2	143	3	3	2	I	1	0	756	1	poli_8sides 6_whiteLine3.jpg	Medium_e26_stereo_44KHz.wav
2	144	1	2	0	C	2	1	781	1	poli_8sides 8_whiteLine3.jpg	MediumLong_e17_cut2_stereo_44KHz.wav
2	145	2	1	0	C	1	0	710	0	poli_8sides 15_whiteLine3.jpg	MediumLong_b10_cut2_L_stereo_44KHz.wav
2	146	4	4	2	I	2	0	940	1	poli_8sides 4_whiteLine3.jpg	Medium_e21_stereo_44KHz.wav
2	147	1	1	1	C	1	1	592	1	poli_8sides 8_whiteLine3.jpg	MediumLong_b10_cut2_L_stereo_44KHz.wav
2	148	3	3	2	I	1	0	918	1	poli_8sides 6_whiteLine3.jpg	Medium_e26_stereo_44KHz.wav
2	149	4	3	2	I	2	0	859	0	poli_8sides 4_whiteLine3.jpg	Medium_e26_stereo_44KHz.wav
2	150	2	2	1	C	1	1	804	1	poli_8sides 15_whiteLine3.jpg	MediumLong_e17_cut2_stereo_44KHz.wav
2	151	3	4	2	I	2	0	1000	0	poli_8sides 6_whiteLine3.jpg	Medium_e21_stereo_44KHz.wav
2	152	1	2	0	C	2	1	603	1	poli_8sides 8_whiteLine3.jpg	MediumLong_e17_cut2_stereo_44KHz.wav
2	153	2	1	0	C	2	1	996	1	poli_8sides 15_whiteLine3.jpg	MediumLong_b10_cut2_L_stereo_44KHz.wav
2	154	3	3	2	I	1	0	986	0	poli_8sides 6_whiteLine3.jpg	Medium_e26_stereo_44KHz.wav
2	155	1	1	1	C	1	1	1356	1	poli_8sides 8_whiteLine3.jpg	MediumLong_b10_cut2_L_stereo_44KHz.wav
2	156	4	3	2	I	2	0	427	0	poli_8sides 4_whiteLine3.jpg	Medium_e26_stereo_44KHz.wav
2	157	1	2	0	C	2	1	705	1	poli_8sides 8_whiteLine3.jpg	MediumLong_e17_cut2_stereo_44KHz.wav
2	158	4	4	2	I	1	0	819	0	poli_8sides 4_whiteLine3.jpg	Medium_e21_stereo_44KHz.wav
2	159	2	2	1	C	1	1	755	1	poli_8sides 15_whiteLine3.jpg	MediumLong_e17_cut2_stereo_44KHz.wav
2	160	3	4	2	I	2	0	649	1	poli_8sides 6_whiteLine3.jpg	Medium_e21_stereo_44KHz.wav
2	161	2	2	1	C	1	1	832	1	poli_8sides 15_whiteLine3.jpg	MediumLong_e17_cut2_stereo_44KHz.wav
2	162	3	4	2	I	2	0	653	0	poli_8sides 6_whiteLine3.jpg	Medium_e21_stereo_44KHz.wav
2	163	4	3	2	I	2	0	743	1	poli_8sides 4_whiteLine3.jpg	Medium_e26_stereo_44KHz.wav
2	164	1	1	1	C	2	0	802	0	poli_8sides 8_whiteLine3.jpg	MediumLong_b10_cut2_L_stereo_44KHz.wav
2	165	2	1	0	C	2	1	902	1	poli_8sides 15_whiteLine3.jpg	MediumLong_b10_cut2_L_stereo_44KHz.wav
2	166	1	2	0	C	2	1	995	1	poli_8sides 8_whiteLine3.jpg	MediumLong_e17_cut2_stereo_44KHz.wav
2	167	4	4	2	I	1	0	857	1	poli_8sides 4_whiteLine3.jpg	Medium_e21_stereo_44KHz.wav
2	168	3	3	2	I	1	0	979	1	poli_8sides 6_whiteLine3.jpg	Medium_e26_stereo_44KHz.wav
2	169	1	1	1	C	1	1	758	1	poli_8sides 8_whiteLine3.jpg	MediumLong_b10_cut2_L_stereo_44KHz.wav
2	170	2	1	0	C	2	1	681	1	poli_8sides 15_whiteLine3.jpg	MediumLong_b10_cut2_L_stereo_44KHz.wav
2	171	4	4	2	I	1	0	835	1	poli_8sides 4_whiteLine3.jpg	Medium_e21_stereo_44KHz.wav
2	172	3	3	2	I	1	0	796	1	poli_8sides 6_whiteLine3.jpg	Medium_e26_stereo_44KHz.wav
2	173	2	2	1	C	1	1	974	1	poli_8sides 15_whiteLine3.jpg	MediumLong_e17_cut2_stereo_44KHz.wav
2	174	1	2	0	C	2	1	579	1	poli_8sides 8_whiteLine3.jpg	MediumLong_e17_cut2_stereo_44KHz.wav
2	175	3	4	2	I	2	0	741	1	poli_8sides 6_whiteLine3.jpg	Medium_e21_stereo_44KHz.wav
2	176	4	3	2	I	1	0	797	1	poli_8sides 4_whiteLine3.jpg	Medium_e26_stereo_44KHz.wav
2	177	1	2	0	C	2	1	573	1	poli_8sides 8_whiteLine3.jpg	MediumLong_e17_cut2_stereo_44KHz.wav
2	178	3	3	2	I	1	0	590	1	poli_8sides 6_whiteLine3.jpg	Medium_e26_stereo_44KHz.wav
2	179	4	3	2	I	2	0	444	0	poli_8sides 4_whiteLine3.jpg	Medium_e26_stereo_44KHz.wav
2	180	2	1	0	C	2	1	905	1	poli_8sides 15_whiteLine3.jpg	MediumLong_b10_cut2_L_stereo_44KHz.wav
2	181	1	1	1	C	1	1	1011	1	poli_8sides 8_whiteLine3.jpg	MediumLong_b10_cut2_L_stereo_44KHz.wav
2	182	3	4	2	I	2	0	761	0	poli_8sides 6_whiteLine3.jpg	Medium_e21_stereo_44KHz.wav
2	183	4	4	2	I	1	0	807	0	poli_8sides 4_whiteLine3.jpg	Medium_e21_stereo_44KHz.wav
2	184	2	2	1	C	2	0	855	0	poli_8sides 15_whiteLine3.jpg	MediumLong_e17_cut2_stereo_44KHz.wav
2	185	1	2	0	C	2	1	689	1	poli_8sides 8_whiteLine3.jpg	MediumLong_e17_cut2_stereo_44KHz.wav
2	186	2	2	1	C	2	0	779	0	poli_8sides 15_whiteLine3.jpg	MediumLong_e17_cut2_stereo_44KHz.wav
2	187	3	4	2	I	2	0	623	1	poli_8sides 6_whiteLine3.jpg	Medium_e21_stereo_44KHz.wav
2	188	4	3	2	I	2	0	562	0	poli_8sides 4_whiteLine3.jpg	Medium_e26_stereo_44KHz.wav
2	189	1	1	1	C	1	1	997	1	poli_8sides 8_whiteLine3.jpg	MediumLong_b10_cut2_L_stereo_44KHz.wav
2	190	4	4	2	I	2	0	1293	1	poli_8sides 4_whiteLine3.jpg	Medium_e21_stereo_44KHz.wav
2	191	3	3	2	I	1	0	740	0	poli_8sides 6_whiteLine3.jpg	Medium_e26_stereo_44KHz.wav
2	192	2	1	0	C	2	1	821	1	poli_8sides 15_whiteLine3.jpg	MediumLong_b10_cut2_L_stereo_44KHz.wav
2	193	4	3	2	I	2	0	732	1	poli_8sides 4_whiteLine3.jpg	Medium_e26_stereo_44KHz.wav
2	194	3	3	2	I	1	0	740	0	poli_8sides 6_whiteLine3.jpg	Medium_e26_stereo_44KHz.wav
2	195	1	2	0	C	2	1	902	1	poli_8sides 8_whiteLine3.jpg	MediumLong_e17_cut2_stereo_44KHz.wav
2	196	2	2	1	C	1	1	864	1	poli_8sides 15_whiteLine3.jpg	MediumLong_e17_cut2_stereo_44KHz.wav
2	197	3	4	2	I	2	0	651	1	poli_8sides 6_whiteLine3.jpg	Medium_e21_stereo_44KHz.wav
2	198	1	1	1	C	2	0	978	0	poli_8sides 8_whiteLine3.jpg	MediumLong_b10_cut2_L_stereo_44KHz.wav
2	199	2	1	0	C	2	1	802	1	poli_8sides 15_whiteLine3.jpg	MediumLong_b10_cut2_L_stereo_44KHz.wav
2	200	4	4	2	I	1	0	843	1	poli_8sides 4_whiteLine3.jpg	Medium_e21_stereo_44KHz.wav
3	1	4	4	2	I	2	0	871	0	poli_8sides 5_whiteLine3.jpg	MediumShort_e16_cut1_stereo_44KHz.wav
3	2	3	3	2	I	2	0	685	0	poli_8sides 10_whiteLine3.jpg	MediumShort_e22_cut1_stereo_44KHz.wav
3	3	2	2	1	C	2	0	737	0	poli_8sides 11_whiteLine3.jpg	MediumShort_b10_cut1_MS_stereo_44KHz.wav
3	4	1	1	1	C	2	0	419	0	poli_8sides 18_whiteLine3.jpg	MediumShort_b16_cut3_MS_stereo_44KHz.wav
3	5	4	3	2	I	2	0	649	1	poli_8sides 5_whiteLine3.jpg	MediumShort_e22_cut1_stereo_44KHz.wav
3	6	1	2	0	C	2	1	606	1	poli_8sides 18_whiteLine3.jpg	MediumShort_b10_cut1_MS_stereo_44KHz.wav
3	7	3	4	2	I	2	0	741	0	poli_8sides 10_whiteLine3.jpg	MediumShort_e16_cut1_stereo_44KHz.wav
3	8	2	1	0	C	2	1	808	1	poli_8sides 11_whiteLine3.jpg	MediumShort_b16_cut3_MS_stereo_44KHz.wav
3	9	3	3	2	I	2	0	831	1	poli_8sides 10_whiteLine3.jpg	MediumShort_e22_cut1_stereo_44KHz.wav
3	10	4	3	2	I	1	0	697	1	poli_8sides 5_whiteLine3.jpg	MediumShort_e22_cut1_stereo_44KHz.wav
3	11	2	1	0	C	2	1	738	1	poli_8sides 11_whiteLine3.jpg	MediumShort_b16_cut3_MS_stereo_44KHz.wav
3	12	1	1	1	C	1	1	871	1	poli_8sides 18_whiteLine3.jpg	MediumShort_b16_cut3_MS_stereo_44KHz.wav
3	13	4	4	2	I	1	0	924	0	poli_8sides 5_whiteLine3.jpg	MediumShort_e16_cut1_stereo_44KHz.wav
3	14	2	2	1	C	1	1	782	1	poli_8sides 11_whiteLine3.jpg	MediumShort_b10_cut1_MS_stereo_44KHz.wav
3	15	3	4	2	I	1	0	655	0	poli_8sides 10_whiteLine3.jpg	MediumShort_e16_cut1_stereo_44KHz.wav
3	16	1	2	0	C	2	1	781	1	poli_8sides 18_whiteLine3.jpg	MediumShort_b10_cut1_MS_stereo_44KHz.wav
3	17	4	3	2	I	2	0	998	0	poli_8sides 5_whiteLine3.jpg	MediumShort_e22_cut1_stereo_44KHz.wav
3	18	2	2	1	C	2	0	814	0	poli_8sides 11_whiteLine3.jpg	MediumShort_b10_cut1_MS_stereo_44KHz.wav
3	19	3	3	2	I	2	0	807	0	poli_8sides 10_whiteLine3.jpg	MediumShort_e22_cut1_stereo_44KHz.wav
3	20	1	1	1	C	2	0	860	0	poli_8sides 18_whiteLine3.jpg	MediumShort_b16_cut3_MS_stereo_44KHz.wav
3	21	4	4	2	I	1	0	821	1	poli_8sides 5_whiteLine3.jpg	MediumShort_e16_cut1_stereo_44KHz.wav
3	22	1	2	0	C	2	1	682	1	poli_8sides 18_whiteLine3.jpg	MediumShort_b10_cut1_MS_stereo_44KHz.wav
3	23	3	4	2	I	2	0	899	0	poli_8sides 10_whiteLine3.jpg	MediumShort_e16_cut1_stereo_44KHz.wav
3	24	2	1	0	C	2	1	925	1	poli_8sides 11_whiteLine3.jpg	MediumShort_b16_cut3_MS_stereo_44KHz.wav
3	25	4	4	2	I	2	0	884	0	poli_8sides 5_whiteLine3.jpg	MediumShort_e16_cut1_stereo_44KHz.wav
3	26	1	1	1	C	1	1	739	1	poli_8sides 18_whiteLine3.jpg	MediumShort_b16_cut3_MS_stereo_44KHz.wav
3	27	2	1	0	C	2	1	708	1	poli_8sides 11_whiteLine3.jpg	MediumShort_b16_cut3_MS_stereo_44KHz.wav
3	28	3	3	2	I	2	0	1039	1	poli_8sides 10_whiteLine3.jpg	MediumShort_e22_cut1_stereo_44KHz.wav
3	29	2	2	1	C	1	1	748	1	poli_8sides 11_whiteLine3.jpg	MediumShort_b10_cut1_MS_stereo_44KHz.wav
3	30	4	3	2	I	2	0	830	1	poli_8sides 5_whiteLine3.jpg	MediumShort_e22_cut1_stereo_44KHz.wav
3	31	1	2	0	C	2	1	602	1	poli_8sides 18_whiteLine3.jpg	MediumShort_b10_cut1_MS_stereo_44KHz.wav
3	32	3	4	2	I	2	0	807	1	poli_8sides 10_whiteLine3.jpg	MediumShort_e16_cut1_stereo_44KHz.wav
3	33	4	3	2	I	2	0	851	0	poli_8sides 5_whiteLine3.jpg	MediumShort_e22_cut1_stereo_44KHz.wav
3	34	3	4	2	I	2	0	873	1	poli_8sides 10_whiteLine3.jpg	MediumShort_e16_cut1_stereo_44KHz.wav
3	35	1	1	1	C	1	1	805	1	poli_8sides 18_whiteLine3.jpg	MediumShort_b16_cut3_MS_stereo_44KHz.wav
3	36	2	1	0	C	2	1	679	1	poli_8sides 11_whiteLine3.jpg	MediumShort_b16_cut3_MS_stereo_44KHz.wav
3	37	3	3	2	I	2	0	902	1	poli_8sides 10_whiteLine3.jpg	MediumShort_e22_cut1_stereo_44KHz.wav
3	38	2	2	1	C	1	1	821	1	poli_8sides 11_whiteLine3.jpg	MediumShort_b10_cut1_MS_stereo_44KHz.wav
3	39	4	4	2	I	2	0	765	0	poli_8sides 5_whiteLine3.jpg	MediumShort_e16_cut1_stereo_44KHz.wav
3	40	1	2	0	C	2	1	1114	1	poli_8sides 18_whiteLine3.jpg	MediumShort_b10_cut1_MS_stereo_44KHz.wav
3	41	3	3	2	I	2	0	705	1	poli_8sides 10_whiteLine3.jpg	MediumShort_e22_cut1_stereo_44KHz.wav
3	42	4	4	2	I	2	0	766	1	poli_8sides 5_whiteLine3.jpg	MediumShort_e16_cut1_stereo_44KHz.wav
3	43	1	2	0	C	2	1	590	1	poli_8sides 18_whiteLine3.jpg	MediumShort_b10_cut1_MS_stereo_44KHz.wav
3	44	2	2	1	C	1	1	759	1	poli_8sides 11_whiteLine3.jpg	MediumShort_b10_cut1_MS_stereo_44KHz.wav
3	45	4	3	2	I	2	0	800	0	poli_8sides 5_whiteLine3.jpg	MediumShort_e22_cut1_stereo_44KHz.wav
3	46	1	1	1	C	1	1	841	1	poli_8sides 18_whiteLine3.jpg	MediumShort_b16_cut3_MS_stereo_44KHz.wav
3	47	2	1	0	C	2	1	723	1	poli_8sides 11_whiteLine3.jpg	MediumShort_b16_cut3_MS_stereo_44KHz.wav
3	48	3	4	2	I	2	0	661	1	poli_8sides 10_whiteLine3.jpg	MediumShort_e16_cut1_stereo_44KHz.wav
3	49	4	4	2	I	1	0	905	1	poli_8sides 5_whiteLine3.jpg	MediumShort_e16_cut1_stereo_44KHz.wav
3	50	1	1	1	C	1	1	1070	1	poli_8sides 18_whiteLine3.jpg	MediumShort_b16_cut3_MS_stereo_44KHz.wav
3	51	3	4	2	I	2	0	1043	0	poli_8sides 10_whiteLine3.jpg	MediumShort_e16_cut1_stereo_44KHz.wav
3	52	2	1	0	C	2	1	666	1	poli_8sides 11_whiteLine3.jpg	MediumShort_b16_cut3_MS_stereo_44KHz.wav
3	53	3	3	2	I	2	0	825	0	poli_8sides 10_whiteLine3.jpg	MediumShort_e22_cut1_stereo_44KHz.wav
3	54	2	2	1	C	1	1	757	1	poli_8sides 11_whiteLine3.jpg	MediumShort_b10_cut1_MS_stereo_44KHz.wav
3	55	4	3	2	I	2	0	1010	1	poli_8sides 5_whiteLine3.jpg	MediumShort_e22_cut1_stereo_44KHz.wav
3	56	1	2	0	C	2	1	659	1	poli_8sides 18_whiteLine3.jpg	MediumShort_b10_cut1_MS_stereo_44KHz.wav
3	57	4	3	2	I	2	0	617	0	poli_8sides 5_whiteLine3.jpg	MediumShort_e22_cut1_stereo_44KHz.wav
3	58	3	4	2	I	2	0	745	1	poli_8sides 10_whiteLine3.jpg	MediumShort_e16_cut1_stereo_44KHz.wav
3	59	2	1	0	C	2	1	642	1	poli_8sides 11_whiteLine3.jpg	MediumShort_b16_cut3_MS_stereo_44KHz.wav
3	60	1	2	0	C	2	1	557	1	poli_8sides 18_whiteLine3.jpg	MediumShort_b10_cut1_MS_stereo_44KHz.wav
3	61	4	4	2	I	1	0	1021	1	poli_8sides 5_whiteLine3.jpg	MediumShort_e16_cut1_stereo_44KHz.wav
3	62	3	3	2	I	1	0	655	0	poli_8sides 10_whiteLine3.jpg	MediumShort_e22_cut1_stereo_44KHz.wav
3	63	1	1	1	C	1	1	726	1	poli_8sides 18_whiteLine3.jpg	MediumShort_b16_cut3_MS_stereo_44KHz.wav
3	64	2	2	1	C	1	1	742	1	poli_8sides 11_whiteLine3.jpg	MediumShort_b10_cut1_MS_stereo_44KHz.wav
3	65	3	3	2	I	2	0	775	1	poli_8sides 10_whiteLine3.jpg	MediumShort_e22_cut1_stereo_44KHz.wav
3	66	1	2	0	C	2	1	749	1	poli_8sides 18_whiteLine3.jpg	MediumShort_b10_cut1_MS_stereo_44KHz.wav
3	67	2	1	0	C	2	1	526	1	poli_8sides 11_whiteLine3.jpg	MediumShort_b16_cut3_MS_stereo_44KHz.wav
3	68	4	3	2	I	2	0	859	1	poli_8sides 5_whiteLine3.jpg	MediumShort_e22_cut1_stereo_44KHz.wav
3	69	2	2	1	C	1	1	776	1	poli_8sides 11_whiteLine3.jpg	MediumShort_b10_cut1_MS_stereo_44KHz.wav
3	70	4	4	2	I	1	0	1136	1	poli_8sides 5_whiteLine3.jpg	MediumShort_e16_cut1_stereo_44KHz.wav
3	71	3	4	2	I	2	0	620	0	poli_8sides 10_whiteLine3.jpg	MediumShort_e16_cut1_stereo_44KHz.wav
3	72	1	1	1	C	1	1	805	1	poli_8sides 18_whiteLine3.jpg	MediumShort_b16_cut3_MS_stereo_44KHz.wav
3	73	2	2	1	C	1	1	667	1	poli_8sides 11_whiteLine3.jpg	MediumShort_b10_cut1_MS_stereo_44KHz.wav
3	74	3	3	2	I	2	0	773	1	poli_8sides 10_whiteLine3.jpg	MediumShort_e22_cut1_stereo_44KHz.wav
3	75	4	3	2	I	2	0	751	0	poli_8sides 5_whiteLine3.jpg	MediumShort_e22_cut1_stereo_44KHz.wav
3	76	1	1	1	C	1	1	691	1	poli_8sides 18_whiteLine3.jpg	MediumShort_b16_cut3_MS_stereo_44KHz.wav
3	77	3	4	2	I	1	0	472	1	poli_8sides 10_whiteLine3.jpg	MediumShort_e16_cut1_stereo_44KHz.wav
3	78	1	2	0	C	2	1	838	1	poli_8sides 18_whiteLine3.jpg	MediumShort_b10_cut1_MS_stereo_44KHz.wav
3	79	4	4	2	I	2	0	881	0	poli_8sides 5_whiteLine3.jpg	MediumShort_e16_cut1_stereo_44KHz.wav
3	80	2	1	0	C	2	1	635	1	poli_8sides 11_whiteLine3.jpg	MediumShort_b16_cut3_MS_stereo_44KHz.wav
3	81	4	4	2	I	2	0	685	0	poli_8sides 5_whiteLine3.jpg	MediumShort_e16_cut1_stereo_44KHz.wav
3	82	3	4	2	I	2	0	604	0	poli_8sides 10_whiteLine3.jpg	MediumShort_e16_cut1_stereo_44KHz.wav
3	83	2	1	0	C	2	1	677	1	poli_8sides 11_whiteLine3.jpg	MediumShort_b16_cut3_MS_stereo_44KHz.wav
3	84	1	2	0	C	2	1	719	1	poli_8sides 18_whiteLine3.jpg	MediumShort_b10_cut1_MS_stereo_44KHz.wav
3	85	3	3	2	I	1	0	828	1	poli_8sides 10_whiteLine3.jpg	MediumShort_e22_cut1_stereo_44KHz.wav
3	86	4	3	2	I	2	0	460	1	poli_8sides 5_whiteLine3.jpg	MediumShort_e22_cut1_stereo_44KHz.wav
3	87	1	1	1	C	1	1	697	1	poli_8sides 18_whiteLine3.jpg	MediumShort_b16_cut3_MS_stereo_44KHz.wav
3	88	2	2	1	C	1	1	551	1	poli_8sides 11_whiteLine3.jpg	MediumShort_b10_cut1_MS_stereo_44KHz.wav
3	89	1	2	0	C	2	1	676	1	poli_8sides 18_whiteLine3.jpg	MediumShort_b10_cut1_MS_stereo_44KHz.wav
3	90	2	1	0	C	2	1	578	1	poli_8sides 11_whiteLine3.jpg	MediumShort_b16_cut3_MS_stereo_44KHz.wav
3	91	3	3	2	I	1	0	804	1	poli_8sides 10_whiteLine3.jpg	MediumShort_e22_cut1_stereo_44KHz.wav
3	92	4	3	2	I	2	0	401	1	poli_8sides 5_whiteLine3.jpg	MediumShort_e22_cut1_stereo_44KHz.wav
3	93	3	4	2	I	2	0	751	1	poli_8sides 10_whiteLine3.jpg	MediumShort_e16_cut1_stereo_44KHz.wav
3	94	1	1	1	C	1	1	768	1	poli_8sides 18_whiteLine3.jpg	MediumShort_b16_cut3_MS_stereo_44KHz.wav
3	95	2	2	1	C	1	1	748	1	poli_8sides 11_whiteLine3.jpg	MediumShort_b10_cut1_MS_stereo_44KHz.wav
3	96	4	4	2	I	1	0	924	1	poli_8sides 5_whiteLine3.jpg	MediumShort_e16_cut1_stereo_44KHz.wav
3	97	2	1	0	C	2	1	725	1	poli_8sides 11_whiteLine3.jpg	MediumShort_b16_cut3_MS_stereo_44KHz.wav
3	98	4	3	2	I	2	0	796	0	poli_8sides 5_whiteLine3.jpg	MediumShort_e22_cut1_stereo_44KHz.wav
3	99	3	4	2	I	1	0	814	0	poli_8sides 10_whiteLine3.jpg	MediumShort_e16_cut1_stereo_44KHz.wav
3	100	1	1	1	C	1	1	771	1	poli_8sides 18_whiteLine3.jpg	MediumShort_b16_cut3_MS_stereo_44KHz.wav
3	101	2	2	1	C	1	1	608	1	poli_8sides 11_whiteLine3.jpg	MediumShort_b10_cut1_MS_stereo_44KHz.wav
3	102	1	2	0	C	2	1	726	1	poli_8sides 18_whiteLine3.jpg	MediumShort_b10_cut1_MS_stereo_44KHz.wav
3	103	3	3	2	I	2	0	921	0	poli_8sides 10_whiteLine3.jpg	MediumShort_e22_cut1_stereo_44KHz.wav
3	104	4	4	2	I	1	0	663	0	poli_8sides 5_whiteLine3.jpg	MediumShort_e16_cut1_stereo_44KHz.wav
3	105	1	1	1	C	1	1	658	1	poli_8sides 18_whiteLine3.jpg	MediumShort_b16_cut3_MS_stereo_44KHz.wav
3	106	2	2	1	C	1	1	635	1	poli_8sides 11_whiteLine3.jpg	MediumShort_b10_cut1_MS_stereo_44KHz.wav
3	107	3	3	2	I	1	0	839	1	poli_8sides 10_whiteLine3.jpg	MediumShort_e22_cut1_stereo_44KHz.wav
3	108	4	4	2	I	2	0	1102	1	poli_8sides 5_whiteLine3.jpg	MediumShort_e16_cut1_stereo_44KHz.wav
3	109	3	4	2	I	2	0	789	1	poli_8sides 10_whiteLine3.jpg	MediumShort_e16_cut1_stereo_44KHz.wav
3	110	1	2	0	C	2	1	746	1	poli_8sides 18_whiteLine3.jpg	MediumShort_b10_cut1_MS_stereo_44KHz.wav
3	111	2	1	0	C	2	1	633	1	poli_8sides 11_whiteLine3.jpg	MediumShort_b16_cut3_MS_stereo_44KHz.wav
3	112	4	3	2	I	2	0	627	1	poli_8sides 5_whiteLine3.jpg	MediumShort_e22_cut1_stereo_44KHz.wav
3	113	1	2	0	C	2	1	694	1	poli_8sides 18_whiteLine3.jpg	MediumShort_b10_cut1_MS_stereo_44KHz.wav
3	114	4	4	2	I	1	0	1002	0	poli_8sides 5_whiteLine3.jpg	MediumShort_e16_cut1_stereo_44KHz.wav
3	115	2	2	1	C	1	1	733	1	poli_8sides 11_whiteLine3.jpg	MediumShort_b10_cut1_MS_stereo_44KHz.wav
3	116	3	4	2	I	2	0	630	1	poli_8sides 10_whiteLine3.jpg	MediumShort_e16_cut1_stereo_44KHz.wav
3	117	2	1	0	C	2	1	652	1	poli_8sides 11_whiteLine3.jpg	MediumShort_b16_cut3_MS_stereo_44KHz.wav
3	118	1	1	1	C	1	1	971	1	poli_8sides 18_whiteLine3.jpg	MediumShort_b16_cut3_MS_stereo_44KHz.wav
3	119	3	3	2	I	1	0	863	0	poli_8sides 10_whiteLine3.jpg	MediumShort_e22_cut1_stereo_44KHz.wav
3	120	4	3	2	I	2	0	768	1	poli_8sides 5_whiteLine3.jpg	MediumShort_e22_cut1_stereo_44KHz.wav
3	121	1	1	1	C	1	1	597	1	poli_8sides 18_whiteLine3.jpg	MediumShort_b16_cut3_MS_stereo_44KHz.wav
3	122	3	3	2	I	1	0	744	0	poli_8sides 10_whiteLine3.jpg	MediumShort_e22_cut1_stereo_44KHz.wav
3	123	4	4	2	I	2	0	780	1	poli_8sides 5_whiteLine3.jpg	MediumShort_e16_cut1_stereo_44KHz.wav
3	124	2	2	1	C	1	1	694	1	poli_8sides 11_whiteLine3.jpg	MediumShort_b10_cut1_MS_stereo_44KHz.wav
3	125	4	3	2	I	2	0	886	0	poli_8sides 5_whiteLine3.jpg	MediumShort_e22_cut1_stereo_44KHz.wav
3	126	3	4	2	I	2	0	698	1	poli_8sides 10_whiteLine3.jpg	MediumShort_e16_cut1_stereo_44KHz.wav
3	127	1	2	0	C	2	1	738	1	poli_8sides 18_whiteLine3.jpg	MediumShort_b10_cut1_MS_stereo_44KHz.wav
3	128	2	1	0	C	2	1	656	1	poli_8sides 11_whiteLine3.jpg	MediumShort_b16_cut3_MS_stereo_44KHz.wav
3	129	4	4	2	I	1	0	754	0	poli_8sides 5_whiteLine3.jpg	MediumShort_e16_cut1_stereo_44KHz.wav
3	130	3	3	2	I	2	0	715	0	poli_8sides 10_whiteLine3.jpg	MediumShort_e22_cut1_stereo_44KHz.wav
3	131	2	2	1	C	1	1	775	1	poli_8sides 11_whiteLine3.jpg	MediumShort_b10_cut1_MS_stereo_44KHz.wav
3	132	1	1	1	C	1	1	760	1	poli_8sides 18_whiteLine3.jpg	MediumShort_b16_cut3_MS_stereo_44KHz.wav
3	133	4	3	2	I	2	0	671	0	poli_8sides 5_whiteLine3.jpg	MediumShort_e22_cut1_stereo_44KHz.wav
3	134	2	1	0	C	2	1	771	1	poli_8sides 11_whiteLine3.jpg	MediumShort_b16_cut3_MS_stereo_44KHz.wav
3	135	1	2	0	C	2	1	842	1	poli_8sides 18_whiteLine3.jpg	MediumShort_b10_cut1_MS_stereo_44KHz.wav
3	136	3	4	2	I	2	0	699	0	poli_8sides 10_whiteLine3.jpg	MediumShort_e16_cut1_stereo_44KHz.wav
3	137	2	1	0	C	2	1	661	1	poli_8sides 11_whiteLine3.jpg	MediumShort_b16_cut3_MS_stereo_44KHz.wav
3	138	4	4	2	I	1	0	955	1	poli_8sides 5_whiteLine3.jpg	MediumShort_e16_cut1_stereo_44KHz.wav
3	139	3	3	2	I	1	0	695	1	poli_8sides 10_whiteLine3.jpg	MediumShort_e22_cut1_stereo_44KHz.wav
3	140	1	2	0	C	2	1	780	1	poli_8sides 18_whiteLine3.jpg	MediumShort_b10_cut1_MS_stereo_44KHz.wav
3	141	2	2	1	C	1	1	616	1	poli_8sides 11_whiteLine3.jpg	MediumShort_b10_cut1_MS_stereo_44KHz.wav
3	142	4	3	2	I	2	0	881	0	poli_8sides 5_whiteLine3.jpg	MediumShort_e22_cut1_stereo_44KHz.wav
3	143	3	4	2	I	2	0	697	0	poli_8sides 10_whiteLine3.jpg	MediumShort_e16_cut1_stereo_44KHz.wav
3	144	1	1	1	C	2	0	1264	0	poli_8sides 18_whiteLine3.jpg	MediumShort_b16_cut3_MS_stereo_44KHz.wav
3	145	4	4	2	I	2	0	675	0	poli_8sides 5_whiteLine3.jpg	MediumShort_e16_cut1_stereo_44KHz.wav
3	146	2	2	1	C	1	1	814	1	poli_8sides 11_whiteLine3.jpg	MediumShort_b10_cut1_MS_stereo_44KHz.wav
3	147	3	3	2	I	1	0	811	0	poli_8sides 10_whiteLine3.jpg	MediumShort_e22_cut1_stereo_44KHz.wav
3	148	1	1	1	C	1	1	721	1	poli_8sides 18_whiteLine3.jpg	MediumShort_b16_cut3_MS_stereo_44KHz.wav
3	149	2	1	0	C	2	1	551	1	poli_8sides 11_whiteLine3.jpg	MediumShort_b16_cut3_MS_stereo_44KHz.wav
3	150	1	2	0	C	2	1	958	1	poli_8sides 18_whiteLine3.jpg	MediumShort_b10_cut1_MS_stereo_44KHz.wav
3	151	4	3	2	I	2	0	735	1	poli_8sides 5_whiteLine3.jpg	MediumShort_e22_cut1_stereo_44KHz.wav
3	152	3	4	2	I	1	0	523	0	poli_8sides 10_whiteLine3.jpg	MediumShort_e16_cut1_stereo_44KHz.wav
3	153	2	1	0	C	2	1	589	1	poli_8sides 11_whiteLine3.jpg	MediumShort_b16_cut3_MS_stereo_44KHz.wav
3	154	4	3	2	I	2	0	606	1	poli_8sides 5_whiteLine3.jpg	MediumShort_e22_cut1_stereo_44KHz.wav
3	155	3	3	2	I	1	0	806	1	poli_8sides 10_whiteLine3.jpg	MediumShort_e22_cut1_stereo_44KHz.wav
3	156	1	1	1	C	1	1	740	1	poli_8sides 18_whiteLine3.jpg	MediumShort_b16_cut3_MS_stereo_44KHz.wav
3	157	3	4	2	I	2	0	840	1	poli_8sides 10_whiteLine3.jpg	MediumShort_e16_cut1_stereo_44KHz.wav
3	158	4	4	2	I	1	0	666	1	poli_8sides 5_whiteLine3.jpg	MediumShort_e16_cut1_stereo_44KHz.wav
3	159	2	2	1	C	1	1	740	1	poli_8sides 11_whiteLine3.jpg	MediumShort_b10_cut1_MS_stereo_44KHz.wav
3	160	1	2	0	C	1	0	805	0	poli_8sides 18_whiteLine3.jpg	MediumShort_b10_cut1_MS_stereo_44KHz.wav
3	161	2	1	0	C	2	1	609	1	poli_8sides 11_whiteLine3.jpg	MediumShort_b16_cut3_MS_stereo_44KHz.wav
3	162	4	3	2	I	2	0	707	0	poli_8sides 5_whiteLine3.jpg	MediumShort_e22_cut1_stereo_44KHz.wav
3	163	3	4	2	I	2	0	375	0	poli_8sides 10_whiteLine3.jpg	MediumShort_e16_cut1_stereo_44KHz.wav
3	164	1	2	0	C	2	1	576	1	poli_8sides 18_whiteLine3.jpg	MediumShort_b10_cut1_MS_stereo_44KHz.wav
3	165	4	4	2	I	1	0	923	0	poli_8sides 5_whiteLine3.jpg	MediumShort_e16_cut1_stereo_44KHz.wav
3	166	1	1	1	C	1	1	1060	1	poli_8sides 18_whiteLine3.jpg	MediumShort_b16_cut3_MS_stereo_44KHz.wav
3	167	2	2	1	C	1	1	674	1	poli_8sides 11_whiteLine3.jpg	MediumShort_b10_cut1_MS_stereo_44KHz.wav
3	168	3	3	2	I	1	0	903	1	poli_8sides 10_whiteLine3.jpg	MediumShort_e22_cut1_stereo_44KHz.wav
3	169	1	2	0	C	2	1	686	1	poli_8sides 18_whiteLine3.jpg	MediumShort_b10_cut1_MS_stereo_44KHz.wav
3	170	4	4	2	I	1	0	724	1	poli_8sides 5_whiteLine3.jpg	MediumShort_e16_cut1_stereo_44KHz.wav
3	171	3	3	2	I	1	0	1024	1	poli_8sides 10_whiteLine3.jpg	MediumShort_e22_cut1_stereo_44KHz.wav
3	172	2	2	1	C	1	1	710	1	poli_8sides 11_whiteLine3.jpg	MediumShort_b10_cut1_MS_stereo_44KHz.wav
3	173	4	3	2	I	2	0	719	1	poli_8sides 5_whiteLine3.jpg	MediumShort_e22_cut1_stereo_44KHz.wav
3	174	2	1	0	C	2	1	871	1	poli_8sides 11_whiteLine3.jpg	MediumShort_b16_cut3_MS_stereo_44KHz.wav
3	175	3	4	2	I	1	0	847	1	poli_8sides 10_whiteLine3.jpg	MediumShort_e16_cut1_stereo_44KHz.wav
3	176	1	1	1	C	1	1	799	1	poli_8sides 18_whiteLine3.jpg	MediumShort_b16_cut3_MS_stereo_44KHz.wav
3	177	2	2	1	C	1	1	740	1	poli_8sides 11_whiteLine3.jpg	MediumShort_b10_cut1_MS_stereo_44KHz.wav
3	178	1	2	0	C	2	1	712	1	poli_8sides 18_whiteLine3.jpg	MediumShort_b10_cut1_MS_stereo_44KHz.wav
3	179	3	4	2	I	2	0	662	0	poli_8sides 10_whiteLine3.jpg	MediumShort_e16_cut1_stereo_44KHz.wav
3	180	4	3	2	I	2	0	634	1	poli_8sides 5_whiteLine3.jpg	MediumShort_e22_cut1_stereo_44KHz.wav
3	181	3	3	2	I	1	0	700	0	poli_8sides 10_whiteLine3.jpg	MediumShort_e22_cut1_stereo_44KHz.wav
3	182	2	1	0	C	2	1	568	1	poli_8sides 11_whiteLine3.jpg	MediumShort_b16_cut3_MS_stereo_44KHz.wav
3	183	1	1	1	C	1	1	628	1	poli_8sides 18_whiteLine3.jpg	MediumShort_b16_cut3_MS_stereo_44KHz.wav
3	184	4	4	2	I	2	0	580	0	poli_8sides 5_whiteLine3.jpg	MediumShort_e16_cut1_stereo_44KHz.wav
3	185	2	2	1	C	1	1	760	1	poli_8sides 11_whiteLine3.jpg	MediumShort_b10_cut1_MS_stereo_44KHz.wav
3	186	4	4	2	I	2	0	693	0	poli_8sides 5_whiteLine3.jpg	MediumShort_e16_cut1_stereo_44KHz.wav
3	187	3	3	2	I	1	0	756	0	poli_8sides 10_whiteLine3.jpg	MediumShort_e22_cut1_stereo_44KHz.wav
3	188	1	2	0	C	2	1	716	1	poli_8sides 18_whiteLine3.jpg	MediumShort_b10_cut1_MS_stereo_44KHz.wav
3	189	2	1	0	C	2	1	589	1	poli_8sides 11_whiteLine3.jpg	MediumShort_b16_cut3_MS_stereo_44KHz.wav
3	190	1	1	1	C	1	1	761	1	poli_8sides 18_whiteLine3.jpg	MediumShort_b16_cut3_MS_stereo_44KHz.wav
3	191	4	3	2	I	2	0	705	0	poli_8sides 5_whiteLine3.jpg	MediumShort_e22_cut1_stereo_44KHz.wav
3	192	3	4	2	I	2	0	875	0	poli_8sides 10_whiteLine3.jpg	MediumShort_e16_cut1_stereo_44KHz.wav
3	193	1	2	0	C	2	1	533	1	poli_8sides 18_whiteLine3.jpg	MediumShort_b10_cut1_MS_stereo_44KHz.wav
3	194	4	4	2	I	1	0	863	1	poli_8sides 5_whiteLine3.jpg	MediumShort_e16_cut1_stereo_44KHz.wav
3	195	3	3	2	I	1	0	771	1	poli_8sides 10_whiteLine3.jpg	MediumShort_e22_cut1_stereo_44KHz.wav
3	196	2	2	1	C	1	1	659	1	poli_8sides 11_whiteLine3.jpg	MediumShort_b10_cut1_MS_stereo_44KHz.wav
3	197	3	4	2	I	2	0	1000	0	poli_8sides 10_whiteLine3.jpg	MediumShort_e16_cut1_stereo_44KHz.wav
3	198	1	1	1	C	1	1	626	1	poli_8sides 18_whiteLine3.jpg	MediumShort_b16_cut3_MS_stereo_44KHz.wav
3	199	4	3	2	I	2	0	736	0	poli_8sides 5_whiteLine3.jpg	MediumShort_e22_cut1_stereo_44KHz.wav
3	200	2	1	0	C	2	1	722	1	poli_8sides 11_whiteLine3.jpg	MediumShort_b16_cut3_MS_stereo_44KHz.wav
4	1	3	3	2	I	2	0	503	1	poli_8sides 12_whiteLine3.jpg	Medium_e01_cut1_stereo_44KHz.wav
4	2	2	1	0	C	2	1	643	1	poli_8sides 9_whiteLine3.jpg	Medium_e13_stereo_44KHz.wav
4	3	1	1	1	C	1	1	839	1	poli_8sides 16_whiteLine3.jpg	Medium_e13_stereo_44KHz.wav
4	4	4	3	2	I	1	0	603	1	poli_8sides 13_whiteLine3.jpg	Medium_e01_cut1_stereo_44KHz.wav
4	5	3	4	2	I	2	0	816	1	poli_8sides 12_whiteLine3.jpg	MediumLong_e19_stereo_44KHz.wav
4	6	1	2	0	C	2	1	707	1	poli_8sides 16_whiteLine3.jpg	MediumLong_e04_stereo_44KHz.wav
4	7	4	4	2	I	2	0	917	1	poli_8sides 13_whiteLine3.jpg	MediumLong_e19_stereo_44KHz.wav
4	8	2	2	1	C	1	1	919	1	poli_8sides 9_whiteLine3.jpg	MediumLong_e04_stereo_44KHz.wav
4	9	4	3	2	I	1	0	910	0	poli_8sides 13_whiteLine3.jpg	Medium_e01_cut1_stereo_44KHz.wav
4	10	2	2	1	C	2	0	728	0	poli_8sides 9_whiteLine3.jpg	MediumLong_e04_stereo_44KHz.wav
4	11	1	2	0	C	2	1	671	1	poli_8sides 16_whiteLine3.jpg	MediumLong_e04_stereo_44KHz.wav
4	12	3	4	2	I	2	0	972	0	poli_8sides 12_whiteLine3.jpg	MediumLong_e19_stereo_44KHz.wav
4	13	2	1	0	C	2	1	695	1	poli_8sides 9_whiteLine3.jpg	Medium_e13_stereo_44KHz.wav
4	14	3	3	2	I	2	0	649	1	poli_8sides 12_whiteLine3.jpg	Medium_e01_cut1_stereo_44KHz.wav
4	15	4	4	2	I	1	0	881	1	poli_8sides 13_whiteLine3.jpg	MediumLong_e19_stereo_44KHz.wav
4	16	1	1	1	C	2	0	811	0	poli_8sides 16_whiteLine3.jpg	Medium_e13_stereo_44KHz.wav
4	17	3	4	2	I	1	0	790	1	poli_8sides 12_whiteLine3.jpg	MediumLong_e19_stereo_44KHz.wav
4	18	4	4	2	I	2	0	606	1	poli_8sides 13_whiteLine3.jpg	MediumLong_e19_stereo_44KHz.wav
4	19	2	2	1	C	2	0	532	0	poli_8sides 9_whiteLine3.jpg	MediumLong_e04_stereo_44KHz.wav
4	20	1	1	1	C	2	0	767	0	poli_8sides 16_whiteLine3.jpg	Medium_e13_stereo_44KHz.wav
4	21	2	1	0	C	1	0	1066	0	poli_8sides 9_whiteLine3.jpg	Medium_e13_stereo_44KHz.wav
4	22	1	2	0	C	2	1	1386	1	poli_8sides 16_whiteLine3.jpg	MediumLong_e04_stereo_44KHz.wav
4	23	4	3	2	I	1	0	896	0	poli_8sides 13_whiteLine3.jpg	Medium_e01_cut1_stereo_44KHz.wav
4	24	3	3	2	I	2	0	504	1	poli_8sides 12_whiteLine3.jpg	Medium_e01_cut1_stereo_44KHz.wav
4	25	4	4	2	I	2	0	950	0	poli_8sides 13_whiteLine3.jpg	MediumLong_e19_stereo_44KHz.wav
4	26	2	1	0	C	2	1	765	1	poli_8sides 9_whiteLine3.jpg	Medium_e13_stereo_44KHz.wav
4	27	1	1	1	C	1	1	781	1	poli_8sides 16_whiteLine3.jpg	Medium_e13_stereo_44KHz.wav
4	28	3	4	2	I	1	0	677	0	poli_8sides 12_whiteLine3.jpg	MediumLong_e19_stereo_44KHz.wav
4	29	2	2	1	C	1	1	811	1	poli_8sides 9_whiteLine3.jpg	MediumLong_e04_stereo_44KHz.wav
4	30	3	3	2	I	2	0	670	0	poli_8sides 12_whiteLine3.jpg	Medium_e01_cut1_stereo_44KHz.wav
4	31	4	3	2	I	2	0	653	0	poli_8sides 13_whiteLine3.jpg	Medium_e01_cut1_stereo_44KHz.wav
4	32	1	2	0	C	1	0	729	0	poli_8sides 16_whiteLine3.jpg	MediumLong_e04_stereo_44KHz.wav
4	33	4	3	2	I	2	0	840	0	poli_8sides 13_whiteLine3.jpg	Medium_e01_cut1_stereo_44KHz.wav
4	34	1	2	0	C	1	0	709	0	poli_8sides 16_whiteLine3.jpg	MediumLong_e04_stereo_44KHz.wav
4	35	2	1	0	C	2	1	625	1	poli_8sides 9_whiteLine3.jpg	Medium_e13_stereo_44KHz.wav
4	36	3	4	2	I	1	0	701	0	poli_8sides 12_whiteLine3.jpg	MediumLong_e19_stereo_44KHz.wav
4	37	2	2	1	C	1	1	671	1	poli_8sides 9_whiteLine3.jpg	MediumLong_e04_stereo_44KHz.wav
4	38	1	1	1	C	1	1	648	1	poli_8sides 16_whiteLine3.jpg	Medium_e13_stereo_44KHz.wav
4	39	4	4	2	I	2	0	756	0	poli_8sides 13_whiteLine3.jpg	MediumLong_e19_stereo_44KHz.wav
4	40	3	3	2	I	2	0	662	0	poli_8sides 12_whiteLine3.jpg	Medium_e01_cut1_stereo_44KHz.wav
4	41	2	1	0	C	2	1	507	1	poli_8sides 9_whiteLine3.jpg	Medium_e13_stereo_44KHz.wav
4	42	1	1	1	C	1	1	605	1	poli_8sides 16_whiteLine3.jpg	Medium_e13_stereo_44KHz.wav
4	43	4	3	2	I	1	0	900	0	poli_8sides 13_whiteLine3.jpg	Medium_e01_cut1_stereo_44KHz.wav
4	44	3	3	2	I	2	0	569	1	poli_8sides 12_whiteLine3.jpg	Medium_e01_cut1_stereo_44KHz.wav
4	45	1	2	0	C	1	0	752	0	poli_8sides 16_whiteLine3.jpg	MediumLong_e04_stereo_44KHz.wav
4	46	3	4	2	I	1	0	858	0	poli_8sides 12_whiteLine3.jpg	MediumLong_e19_stereo_44KHz.wav
4	47	2	2	1	C	1	1	896	1	poli_8sides 9_whiteLine3.jpg	MediumLong_e04_stereo_44KHz.wav
4	48	4	4	2	I	1	0	694	0	poli_8sides 13_whiteLine3.jpg	MediumLong_e19_stereo_44KHz.wav
4	49	2	1	0	C	2	1	630	1	poli_8sides 9_whiteLine3.jpg	Medium_e13_stereo_44KHz.wav
4	50	3	3	2	I	2	0	631	1	poli_8sides 12_whiteLine3.jpg	Medium_e01_cut1_stereo_44KHz.wav
4	51	1	1	1	C	1	1	750	1	poli_8sides 16_whiteLine3.jpg	Medium_e13_stereo_44KHz.wav
4	52	4	4	2	I	2	0	710	1	poli_8sides 13_whiteLine3.jpg	MediumLong_e19_stereo_44KHz.wav
4	53	2	2	1	C	1	1	547	1	poli_8sides 9_whiteLine3.jpg	MediumLong_e04_stereo_44KHz.wav
4	54	3	4	2	I	1	0	750	0	poli_8sides 12_whiteLine3.jpg	MediumLong_e19_stereo_44KHz.wav
4	55	4	3	2	I	1	0	737	1	poli_8sides 13_whiteLine3.jpg	Medium_e01_cut1_stereo_44KHz.wav
4	56	1	2	0	C	2	1	687	1	poli_8sides 16_whiteLine3.jpg	MediumLong_e04_stereo_44KHz.wav
4	57	3	4	2	I	1	0	721	0	poli_8sides 12_whiteLine3.jpg	MediumLong_e19_stereo_44KHz.wav
4	58	2	1	0	C	2	1	615	1	poli_8sides 9_whiteLine3.jpg	Medium_e13_stereo_44KHz.wav
4	59	4	3	2	I	1	0	797	1	poli_8sides 13_whiteLine3.jpg	Medium_e01_cut1_stereo_44KHz.wav
4	60	1	1	1	C	1	1	949	1	poli_8sides 16_whiteLine3.jpg	Medium_e13_stereo_44KHz.wav
4	61	3	3	2	I	2	0	576	1	poli_8sides 12_whiteLine3.jpg	Medium_e01_cut1_stereo_44KHz.wav
4	62	2	2	1	C	2	0	793	0	poli_8sides 9_whiteLine3.jpg	MediumLong_e04_stereo_44KHz.wav
4	63	4	4	2	I	2	0	689	0	poli_8sides 13_whiteLine3.jpg	MediumLong_e19_stereo_44KHz.wav
4	64	1	2	0	C	2	1	721	1	poli_8sides 16_whiteLine3.jpg	MediumLong_e04_stereo_44KHz.wav
4	65	3	4	2	I	1	0	679	0	poli_8sides 12_whiteLine3.jpg	MediumLong_e19_stereo_44KHz.wav
4	66	2	1	0	C	2	1	479	1	poli_8sides 9_whiteLine3.jpg	Medium_e13_stereo_44KHz.wav
4	67	1	1	1	C	1	1	624	1	poli_8sides 16_whiteLine3.jpg	Medium_e13_stereo_44KHz.wav
4	68	4	4	2	I	2	0	590	0	poli_8sides 13_whiteLine3.jpg	MediumLong_e19_stereo_44KHz.wav
4	69	1	2	0	C	2	1	636	1	poli_8sides 16_whiteLine3.jpg	MediumLong_e04_stereo_44KHz.wav
4	70	3	3	2	I	2	0	693	1	poli_8sides 12_whiteLine3.jpg	Medium_e01_cut1_stereo_44KHz.wav
4	71	4	3	2	I	1	0	607	0	poli_8sides 13_whiteLine3.jpg	Medium_e01_cut1_stereo_44KHz.wav
4	72	2	2	1	C	1	1	628	1	poli_8sides 9_whiteLine3.jpg	MediumLong_e04_stereo_44KHz.wav
4	73	4	4	2	I	2	0	750	0	poli_8sides 13_whiteLine3.jpg	MediumLong_e19_stereo_44KHz.wav
4	74	1	2	0	C	2	1	705	1	poli_8sides 16_whiteLine3.jpg	MediumLong_e04_stereo_44KHz.wav
4	75	2	1	0	C	2	1	674	1	poli_8sides 9_whiteLine3.jpg	Medium_e13_stereo_44KHz.wav
4	76	3	3	2	I	2	0	654	1	poli_8sides 12_whiteLine3.jpg	Medium_e01_cut1_stereo_44KHz.wav
4	77	4	3	2	I	1	0	683	1	poli_8sides 13_whiteLine3.jpg	Medium_e01_cut1_stereo_44KHz.wav
4	78	3	4	2	I	1	0	613	0	poli_8sides 12_whiteLine3.jpg	MediumLong_e19_stereo_44KHz.wav
4	79	1	1	1	C	1	1	739	1	poli_8sides 16_whiteLine3.jpg	Medium_e13_stereo_44KHz.wav
4	80	2	2	1	C	1	1	554	1	poli_8sides 9_whiteLine3.jpg	MediumLong_e04_stereo_44KHz.wav
4	81	1	1	1	C	1	1	660	1	poli_8sides 16_whiteLine3.jpg	Medium_e13_stereo_44KHz.wav
4	82	3	4	2	I	1	0	577	0	poli_8sides 12_whiteLine3.jpg	MediumLong_e19_stereo_44KHz.wav
4	83	4	4	2	I	2	0	869	0	poli_8sides 13_whiteLine3.jpg	MediumLong_e19_stereo_44KHz.wav
4	84	2	2	1	C	1	1	615	1	poli_8sides 9_whiteLine3.jpg	MediumLong_e04_stereo_44KHz.wav
4	85	4	3	2	I	1	0	790	1	poli_8sides 13_whiteLine3.jpg	Medium_e01_cut1_stereo_44KHz.wav
4	86	2	1	0	C	2	1	666	1	poli_8sides 9_whiteLine3.jpg	Medium_e13_stereo_44KHz.wav
4	87	3	3	2	I	2	0	691	1	poli_8sides 12_whiteLine3.jpg	Medium_e01_cut1_stereo_44KHz.wav
4	88	1	2	0	C	2	1	688	1	poli_8sides 16_whiteLine3.jpg	MediumLong_e04_stereo_44KHz.wav
4	89	2	2	1	C	1	1	598	1	poli_8sides 9_whiteLine3.jpg	MediumLong_e04_stereo_44KHz.wav
4	90	1	1	1	C	1	1	778	1	poli_8sides 16_whiteLine3.jpg	Medium_e13_stereo_44KHz.wav
4	91	3	3	2	I	2	0	567	0	poli_8sides 12_whiteLine3.jpg	Medium_e01_cut1_stereo_44KHz.wav
4	92	4	4	2	I	2	0	619	1	poli_8sides 13_whiteLine3.jpg	MediumLong_e19_stereo_44KHz.wav
4	93	1	2	0	C	2	1	599	1	poli_8sides 16_whiteLine3.jpg	MediumLong_e04_stereo_44KHz.wav
4	94	4	3	2	I	1	0	670	1	poli_8sides 13_whiteLine3.jpg	Medium_e01_cut1_stereo_44KHz.wav
4	95	2	1	0	C	2	1	629	1	poli_8sides 9_whiteLine3.jpg	Medium_e13_stereo_44KHz.wav
4	96	3	4	2	I	1	0	616	0	poli_8sides 12_whiteLine3.jpg	MediumLong_e19_stereo_44KHz.wav
4	97	1	1	1	C	1	1	721	1	poli_8sides 16_whiteLine3.jpg	Medium_e13_stereo_44KHz.wav
4	98	4	3	2	I	1	0	676	1	poli_8sides 13_whiteLine3.jpg	Medium_e01_cut1_stereo_44KHz.wav
4	99	3	3	2	I	1	0	626	1	poli_8sides 12_whiteLine3.jpg	Medium_e01_cut1_stereo_44KHz.wav
4	100	2	2	1	C	1	1	558	1	poli_8sides 9_whiteLine3.jpg	MediumLong_e04_stereo_44KHz.wav
4	101	3	4	2	I	2	0	952	1	poli_8sides 12_whiteLine3.jpg	MediumLong_e19_stereo_44KHz.wav
4	102	2	1	0	C	2	1	590	1	poli_8sides 9_whiteLine3.jpg	Medium_e13_stereo_44KHz.wav
4	103	4	4	2	I	2	0	721	1	poli_8sides 13_whiteLine3.jpg	MediumLong_e19_stereo_44KHz.wav
4	104	1	2	0	C	2	1	737	1	poli_8sides 16_whiteLine3.jpg	MediumLong_e04_stereo_44KHz.wav
4	105	3	3	2	I	2	0	594	0	poli_8sides 12_whiteLine3.jpg	Medium_e01_cut1_stereo_44KHz.wav
4	106	2	1	0	C	2	1	544	1	poli_8sides 9_whiteLine3.jpg	Medium_e13_stereo_44KHz.wav
4	107	1	2	0	C	2	1	506	1	poli_8sides 16_whiteLine3.jpg	MediumLong_e04_stereo_44KHz.wav
4	108	4	4	2	I	2	0	595	0	poli_8sides 13_whiteLine3.jpg	MediumLong_e19_stereo_44KHz.wav
4	109	2	2	1	C	1	1	862	1	poli_8sides 9_whiteLine3.jpg	MediumLong_e04_stereo_44KHz.wav
4	110	1	1	1	C	1	1	959	1	poli_8sides 16_whiteLine3.jpg	Medium_e13_stereo_44KHz.wav
4	111	3	4	2	I	2	0	939	1	poli_8sides 12_whiteLine3.jpg	MediumLong_e19_stereo_44KHz.wav
4	112	4	3	2	I	2	0	628	0	poli_8sides 13_whiteLine3.jpg	Medium_e01_cut1_stereo_44KHz.wav
4	113	1	1	1	C	1	1	643	1	poli_8sides 16_whiteLine3.jpg	Medium_e13_stereo_44KHz.wav
4	114	3	4	2	I	2	0	720	1	poli_8sides 12_whiteLine3.jpg	MediumLong_e19_stereo_44KHz.wav
4	115	2	2	1	C	1	1	577	1	poli_8sides 9_whiteLine3.jpg	MediumLong_e04_stereo_44KHz.wav
4	116	4	3	2	I	2	0	774	1	poli_8sides 13_whiteLine3.jpg	Medium_e01_cut1_stereo_44KHz.wav
4	117	1	2	0	C	2	1	609	1	poli_8sides 16_whiteLine3.jpg	MediumLong_e04_stereo_44KHz.wav
4	118	2	1	0	C	2	1	709	1	poli_8sides 9_whiteLine3.jpg	Medium_e13_stereo_44KHz.wav
4	119	3	3	2	I	2	0	815	1	poli_8sides 12_whiteLine3.jpg	Medium_e01_cut1_stereo_44KHz.wav
4	120	4	4	2	I	2	0	760	1	poli_8sides 13_whiteLine3.jpg	MediumLong_e19_stereo_44KHz.wav
4	121	1	1	1	C	1	1	776	1	poli_8sides 16_whiteLine3.jpg	Medium_e13_stereo_44KHz.wav
4	122	2	2	1	C	1	1	544	1	poli_8sides 9_whiteLine3.jpg	MediumLong_e04_stereo_44KHz.wav
4	123	3	3	2	I	2	0	762	0	poli_8sides 12_whiteLine3.jpg	Medium_e01_cut1_stereo_44KHz.wav
4	124	4	4	2	I	2	0	574	1	poli_8sides 13_whiteLine3.jpg	MediumLong_e19_stereo_44KHz.wav
4	125	1	2	0	C	2	1	609	1	poli_8sides 16_whiteLine3.jpg	MediumLong_e04_stereo_44KHz.wav
4	126	3	4	2	I	2	0	797	1	poli_8sides 12_whiteLine3.jpg	MediumLong_e19_stereo_44KHz.wav
4	127	2	1	0	C	2	1	602	1	poli_8sides 9_whiteLine3.jpg	Medium_e13_stereo_44KHz.wav
4	128	4	3	2	I	2	0	742	1	poli_8sides 13_whiteLine3.jpg	Medium_e01_cut1_stereo_44KHz.wav
4	129	1	1	1	C	1	1	711	1	poli_8sides 16_whiteLine3.jpg	Medium_e13_stereo_44KHz.wav
4	130	4	3	2	I	2	0	751	0	poli_8sides 13_whiteLine3.jpg	Medium_e01_cut1_stereo_44KHz.wav
4	131	3	3	2	I	2	0	613	0	poli_8sides 12_whiteLine3.jpg	Medium_e01_cut1_stereo_44KHz.wav
4	132	2	1	0	C	2	1	549	1	poli_8sides 9_whiteLine3.jpg	Medium_e13_stereo_44KHz.wav
4	133	3	4	2	I	2	0	686	1	poli_8sides 12_whiteLine3.jpg	MediumLong_e19_stereo_44KHz.wav
4	134	4	4	2	I	2	0	593	1	poli_8sides 13_whiteLine3.jpg	MediumLong_e19_stereo_44KHz.wav
4	135	2	2	1	C	1	1	515	1	poli_8sides 9_whiteLine3.jpg	MediumLong_e04_stereo_44KHz.wav
4	136	1	2	0	C	2	1	630	1	poli_8sides 16_whiteLine3.jpg	MediumLong_e04_stereo_44KHz.wav
4	137	2	2	1	C	1	1	541	1	poli_8sides 9_whiteLine3.jpg	MediumLong_e04_stereo_44KHz.wav
4	138	4	3	2	I	2	0	516	0	poli_8sides 13_whiteLine3.jpg	Medium_e01_cut1_stereo_44KHz.wav
4	139	1	2	0	C	2	1	646	1	poli_8sides 16_whiteLine3.jpg	MediumLong_e04_stereo_44KHz.wav
4	140	3	3	2	I	2	0	789	0	poli_8sides 12_whiteLine3.jpg	Medium_e01_cut1_stereo_44KHz.wav
4	141	4	4	2	I	1	0	731	0	poli_8sides 13_whiteLine3.jpg	MediumLong_e19_stereo_44KHz.wav
4	142	2	1	0	C	2	1	605	1	poli_8sides 9_whiteLine3.jpg	Medium_e13_stereo_44KHz.wav
4	143	1	1	1	C	1	1	590	1	poli_8sides 16_whiteLine3.jpg	Medium_e13_stereo_44KHz.wav
4	144	3	4	2	I	2	0	500	1	poli_8sides 12_whiteLine3.jpg	MediumLong_e19_stereo_44KHz.wav
4	145	2	2	1	C	1	1	717	1	poli_8sides 9_whiteLine3.jpg	MediumLong_e04_stereo_44KHz.wav
4	146	3	3	2	I	2	0	642	0	poli_8sides 12_whiteLine3.jpg	Medium_e01_cut1_stereo_44KHz.wav
4	147	4	4	2	I	2	0	585	1	poli_8sides 13_whiteLine3.jpg	MediumLong_e19_stereo_44KHz.wav
4	148	1	2	0	C	1	0	556	0	poli_8sides 16_whiteLine3.jpg	MediumLong_e04_stereo_44KHz.wav
4	149	3	4	2	I	2	0	793	1	poli_8sides 12_whiteLine3.jpg	MediumLong_e19_stereo_44KHz.wav
4	150	1	1	1	C	1	1	704	1	poli_8sides 16_whiteLine3.jpg	Medium_e13_stereo_44KHz.wav
4	151	4	3	2	I	2	0	604	0	poli_8sides 13_whiteLine3.jpg	Medium_e01_cut1_stereo_44KHz.wav
4	152	2	1	0	C	2	1	563	1	poli_8sides 9_whiteLine3.jpg	Medium_e13_stereo_44KHz.wav
4	153	3	4	2	I	1	0	661	1	poli_8sides 12_whiteLine3.jpg	MediumLong_e19_stereo_44KHz.wav
4	154	4	4	2	I	2	0	808	0	poli_8sides 13_whiteLine3.jpg	MediumLong_e19_stereo_44KHz.wav
4	155	1	1	1	C	1	1	622	1	poli_8sides 16_whiteLine3.jpg	Medium_e13_stereo_44KHz.wav
4	156	2	1	0	C	2	1	416	1	poli_8sides 9_whiteLine3.jpg	Medium_e13_stereo_44KHz.wav
4	157	1	2	0	C	1	0	561	0	poli_8sides 16_whiteLine3.jpg	MediumLong_e04_stereo_44KHz.wav
4	158	2	2	1	C	1	1	968	1	poli_8sides 9_whiteLine3.jpg	MediumLong_e04_stereo_44KHz.wav
4	159	4	3	2	I	2	0	681	0	poli_8sides 13_whiteLine3.jpg	Medium_e01_cut1_stereo_44KHz.wav
4	160	3	3	2	I	2	0	651	1	poli_8sides 12_whiteLine3.jpg	Medium_e01_cut1_stereo_44KHz.wav
4	161	2	2	1	C	1	1	875	1	poli_8sides 9_whiteLine3.jpg	MediumLong_e04_stereo_44KHz.wav
4	162	3	3	2	I	2	0	627	0	poli_8sides 12_whiteLine3.jpg	Medium_e01_cut1_stereo_44KHz.wav
4	163	1	1	1	C	2	0	993	0	poli_8sides 16_whiteLine3.jpg	Medium_e13_stereo_44KHz.wav
4	164	4	4	2	I	2	0	669	1	poli_8sides 13_whiteLine3.jpg	MediumLong_e19_stereo_44KHz.wav
4	165	3	4	2	I	1	0	873	0	poli_8sides 12_whiteLine3.jpg	MediumLong_e19_stereo_44KHz.wav
4	166	1	2	0	C	2	1	774	1	poli_8sides 16_whiteLine3.jpg	MediumLong_e04_stereo_44KHz.wav
4	167	2	1	0	C	2	1	361	1	poli_8sides 9_whiteLine3.jpg	Medium_e13_stereo_44KHz.wav
4	168	4	3	2	I	2	0	356	1	poli_8sides 13_whiteLine3.jpg	Medium_e01_cut1_stereo_44KHz.wav
4	169	3	4	2	I	2	0	485	0	poli_8sides 12_whiteLine3.jpg	MediumLong_e19_stereo_44KHz.wav
4	170	2	2	1	C	1	1	677	1	poli_8sides 9_whiteLine3.jpg	MediumLong_e04_stereo_44KHz.wav
4	171	1	2	0	C	2	1	427	1	poli_8sides 16_whiteLine3.jpg	MediumLong_e04_stereo_44KHz.wav
4	172	4	4	2	I	2	0	567	0	poli_8sides 13_whiteLine3.jpg	MediumLong_e19_stereo_44KHz.wav
4	173	1	1	1	C	1	1	915	1	poli_8sides 16_whiteLine3.jpg	Medium_e13_stereo_44KHz.wav
4	174	4	3	2	I	2	0	500	0	poli_8sides 13_whiteLine3.jpg	Medium_e01_cut1_stereo_44KHz.wav
4	175	3	3	2	I	2	0	510	0	poli_8sides 12_whiteLine3.jpg	Medium_e01_cut1_stereo_44KHz.wav
4	176	2	1	0	C	2	1	624	1	poli_8sides 9_whiteLine3.jpg	Medium_e13_stereo_44KHz.wav
4	177	4	3	2	I	2	0	910	0	poli_8sides 13_whiteLine3.jpg	Medium_e01_cut1_stereo_44KHz.wav
4	178	1	2	0	C	1	0	537	0	poli_8sides 16_whiteLine3.jpg	MediumLong_e04_stereo_44KHz.wav
4	179	2	1	0	C	2	1	469	1	poli_8sides 9_whiteLine3.jpg	Medium_e13_stereo_44KHz.wav
4	180	3	4	2	I	2	0	619	1	poli_8sides 12_whiteLine3.jpg	MediumLong_e19_stereo_44KHz.wav
4	181	1	1	1	C	2	0	691	0	poli_8sides 16_whiteLine3.jpg	Medium_e13_stereo_44KHz.wav
4	182	4	4	2	I	2	0	590	1	poli_8sides 13_whiteLine3.jpg	MediumLong_e19_stereo_44KHz.wav
4	183	3	3	2	I	1	0	631	0	poli_8sides 12_whiteLine3.jpg	Medium_e01_cut1_stereo_44KHz.wav
4	184	2	2	1	C	1	1	559	1	poli_8sides 9_whiteLine3.jpg	MediumLong_e04_stereo_44KHz.wav
4	185	4	3	2	I	2	0	565	0	poli_8sides 13_whiteLine3.jpg	Medium_e01_cut1_stereo_44KHz.wav
4	186	1	2	0	C	1	0	872	0	poli_8sides 16_whiteLine3.jpg	MediumLong_e04_stereo_44KHz.wav
4	187	2	1	0	C	2	1	475	1	poli_8sides 9_whiteLine3.jpg	Medium_e13_stereo_44KHz.wav
4	188	3	3	2	I	2	0	692	1	poli_8sides 12_whiteLine3.jpg	Medium_e01_cut1_stereo_44KHz.wav
4	189	2	2	1	C	1	1	621	1	poli_8sides 9_whiteLine3.jpg	MediumLong_e04_stereo_44KHz.wav
4	190	4	4	2	I	2	0	696	1	poli_8sides 13_whiteLine3.jpg	MediumLong_e19_stereo_44KHz.wav
4	191	1	1	1	C	1	1	688	1	poli_8sides 16_whiteLine3.jpg	Medium_e13_stereo_44KHz.wav
4	192	3	4	2	I	1	0	685	0	poli_8sides 12_whiteLine3.jpg	MediumLong_e19_stereo_44KHz.wav
4	193	4	4	2	I	2	0	568	1	poli_8sides 13_whiteLine3.jpg	MediumLong_e19_stereo_44KHz.wav
4	194	3	4	2	I	2	0	554	1	poli_8sides 12_whiteLine3.jpg	MediumLong_e19_stereo_44KHz.wav
4	195	1	1	1	C	1	1	817	1	poli_8sides 16_whiteLine3.jpg	Medium_e13_stereo_44KHz.wav
4	196	2	1	0	C	2	1	510	1	poli_8sides 9_whiteLine3.jpg	Medium_e13_stereo_44KHz.wav
4	197	1	2	0	C	1	0	632	0	poli_8sides 16_whiteLine3.jpg	MediumLong_e04_stereo_44KHz.wav
4	198	2	2	1	C	1	1	581	1	poli_8sides 9_whiteLine3.jpg	MediumLong_e04_stereo_44KHz.wav
4	199	3	3	2	I	2	0	635	0	poli_8sides 12_whiteLine3.jpg	Medium_e01_cut1_stereo_44KHz.wav
4	200	4	3	2	I	2	0	566	1	poli_8sides 13_whiteLine3.jpg	Medium_e01_cut1_stereo_44KHz.wav
