block	trial	Vstim	Astim	match	C/I	resp	result	RT	fb	V-file	A-file
LR

0	1	1	2	0	C	1	1	1449	1	Ⴉ	cut_eeuw_stereo_44KHz.wav
0	2	1	1	1	C	2	1	808	1	Ⴉ	cut_ee_stereo_44KHz.wav
0	3	2	3	1	C	2	1	956	1	Ⴞ	cut_oo_stereo_44KHz.wav
0	4	2	4	0	C	2	0	640	0	Ⴞ	cut_g_stereo_44KHz.wav
0	5	1	1	1	C	2	1	1118	1	Ⴉ	cut_ee_stereo_44KHz.wav
0	6	1	2	0	C	1	1	1087	1	Ⴉ	cut_eeuw_stereo_44KHz.wav
0	7	2	4	0	C	1	1	651	1	Ⴞ	cut_g_stereo_44KHz.wav
0	8	2	3	1	C	2	1	878	1	Ⴞ	cut_oo_stereo_44KHz.wav
0	9	1	2	0	C	1	1	594	1	Ⴉ	cut_eeuw_stereo_44KHz.wav
0	10	2	3	1	C	1	0	521	0	Ⴞ	cut_oo_stereo_44KHz.wav
0	11	2	4	0	C	2	0	594	0	Ⴞ	cut_g_stereo_44KHz.wav
0	12	1	1	1	C	1	0	863	0	Ⴉ	cut_ee_stereo_44KHz.wav
0	13	2	3	1	C	2	1	1339	1	Ⴞ	cut_oo_stereo_44KHz.wav
0	14	1	2	0	C	1	1	982	1	Ⴉ	cut_eeuw_stereo_44KHz.wav
0	15	2	4	0	C	1	1	706	1	Ⴞ	cut_g_stereo_44KHz.wav
0	16	1	1	1	C	2	1	918	1	Ⴉ	cut_ee_stereo_44KHz.wav
0	17	2	3	1	C	2	1	858	1	Ⴞ	cut_oo_stereo_44KHz.wav
0	18	1	2	0	C	1	1	894	1	Ⴉ	cut_eeuw_stereo_44KHz.wav
0	19	1	1	1	C	2	1	844	1	Ⴉ	cut_ee_stereo_44KHz.wav
0	20	2	4	0	C	1	1	859	1	Ⴞ	cut_g_stereo_44KHz.wav
0	21	2	4	0	C	1	1	965	1	Ⴞ	cut_g_stereo_44KHz.wav
0	22	1	1	1	C	2	1	633	1	Ⴉ	cut_ee_stereo_44KHz.wav
0	23	2	3	1	C	2	1	1032	1	Ⴞ	cut_oo_stereo_44KHz.wav
0	24	1	2	0	C	1	1	689	1	Ⴉ	cut_eeuw_stereo_44KHz.wav
0	25	2	4	0	C	1	1	811	1	Ⴞ	cut_g_stereo_44KHz.wav
0	26	1	1	1	C	2	1	986	1	Ⴉ	cut_ee_stereo_44KHz.wav
0	27	1	2	0	C	1	1	921	1	Ⴉ	cut_eeuw_stereo_44KHz.wav
0	28	2	3	1	C	2	1	1372	1	Ⴞ	cut_oo_stereo_44KHz.wav
0	29	2	3	1	C	2	1	952	1	Ⴞ	cut_oo_stereo_44KHz.wav
0	30	1	2	0	C	1	1	1117	1	Ⴉ	cut_eeuw_stereo_44KHz.wav
avg_resp = 939
1	1	2	2	1	C	1	0	924	0	Ⴖ	cut_h_stereo_44KHz.wav
1	2	4	4	2	I	1	0	623	0	Ⴌ	cut_l_stereo_44KHz.wav
1	3	1	1	1	C	1	0	607	0	Ⴕ	cut_g_stereo_44KHz.wav
1	4	3	4	2	I	1	0	656	0	Ⴉ	cut_l_stereo_44KHz.wav
1	5	4	3	2	I	1	0	586	1	Ⴌ	cut_w_stereo_44KHz.wav
1	6	1	2	0	C	1	1	930	1	Ⴕ	cut_h_stereo_44KHz.wav
1	7	3	3	2	I	2	0	864	1	Ⴉ	cut_w_stereo_44KHz.wav
1	8	2	1	0	C	1	1	741	1	Ⴖ	cut_g_stereo_44KHz.wav
1	9	3	4	2	I	2	0	780	1	Ⴉ	cut_l_stereo_44KHz.wav
1	10	1	1	1	C	1	0	839	0	Ⴕ	cut_g_stereo_44KHz.wav
1	11	4	4	2	I	2	0	1253	0	Ⴌ	cut_l_stereo_44KHz.wav
1	12	2	2	1	C	2	1	997	1	Ⴖ	cut_h_stereo_44KHz.wav
1	13	3	3	2	I	2	0	795	1	Ⴉ	cut_w_stereo_44KHz.wav
1	14	4	3	2	I	1	0	730	1	Ⴌ	cut_w_stereo_44KHz.wav
1	15	1	2	0	C	1	1	905	1	Ⴕ	cut_h_stereo_44KHz.wav
1	16	2	1	0	C	1	1	666	1	Ⴖ	cut_g_stereo_44KHz.wav
1	17	4	3	2	I	1	0	933	0	Ⴌ	cut_w_stereo_44KHz.wav
1	18	2	1	0	C	1	1	1134	1	Ⴖ	cut_g_stereo_44KHz.wav
1	19	3	4	2	I	2	0	1114	0	Ⴉ	cut_l_stereo_44KHz.wav
1	20	1	2	0	C	1	1	834	1	Ⴕ	cut_h_stereo_44KHz.wav
1	21	3	3	2	I	2	0	1239	0	Ⴉ	cut_w_stereo_44KHz.wav
1	22	1	1	1	C	2	1	965	1	Ⴕ	cut_g_stereo_44KHz.wav
1	23	2	2	1	C	2	1	720	1	Ⴖ	cut_h_stereo_44KHz.wav
1	24	4	4	2	I	2	0	998	0	Ⴌ	cut_l_stereo_44KHz.wav
1	25	3	4	2	I	1	0	916	1	Ⴉ	cut_l_stereo_44KHz.wav
1	26	4	4	2	I	1	0	560	1	Ⴌ	cut_l_stereo_44KHz.wav
1	27	1	2	0	C	1	1	667	1	Ⴕ	cut_h_stereo_44KHz.wav
1	28	2	1	0	C	1	1	679	1	Ⴖ	cut_g_stereo_44KHz.wav
1	29	4	3	2	I	1	0	996	0	Ⴌ	cut_w_stereo_44KHz.wav
1	30	3	3	2	I	1	0	827	1	Ⴉ	cut_w_stereo_44KHz.wav
1	31	2	2	1	C	2	1	711	1	Ⴖ	cut_h_stereo_44KHz.wav
1	32	1	1	1	C	2	1	784	1	Ⴕ	cut_g_stereo_44KHz.wav
1	33	2	2	1	C	2	1	661	1	Ⴖ	cut_h_stereo_44KHz.wav
1	34	4	4	2	I	1	0	829	1	Ⴌ	cut_l_stereo_44KHz.wav
1	35	3	3	2	I	1	0	727	0	Ⴉ	cut_w_stereo_44KHz.wav
1	36	1	1	1	C	2	1	988	1	Ⴕ	cut_g_stereo_44KHz.wav
1	37	2	1	0	C	2	0	674	0	Ⴖ	cut_g_stereo_44KHz.wav
1	38	4	3	2	I	1	0	1012	1	Ⴌ	cut_w_stereo_44KHz.wav
1	39	1	2	0	C	1	1	641	1	Ⴕ	cut_h_stereo_44KHz.wav
1	40	3	4	2	I	1	0	1081	1	Ⴉ	cut_l_stereo_44KHz.wav
1	41	4	3	2	I	1	0	668	0	Ⴌ	cut_w_stereo_44KHz.wav
1	42	1	1	1	C	2	1	837	1	Ⴕ	cut_g_stereo_44KHz.wav
1	43	2	2	1	C	2	1	753	1	Ⴖ	cut_h_stereo_44KHz.wav
1	44	3	4	2	I	2	0	1470	1	Ⴉ	cut_l_stereo_44KHz.wav
1	45	1	2	0	C	1	1	933	1	Ⴕ	cut_h_stereo_44KHz.wav
1	46	2	1	0	C	1	1	616	1	Ⴖ	cut_g_stereo_44KHz.wav
1	47	4	4	2	I	1	0	721	0	Ⴌ	cut_l_stereo_44KHz.wav
1	48	3	3	2	I	2	0	1177	1	Ⴉ	cut_w_stereo_44KHz.wav
1	49	1	2	0	C	1	1	622	1	Ⴕ	cut_h_stereo_44KHz.wav
1	50	2	1	0	C	1	1	1033	1	Ⴖ	cut_g_stereo_44KHz.wav
1	51	4	3	2	I	2	0	955	0	Ⴌ	cut_w_stereo_44KHz.wav
1	52	3	3	2	I	2	0	941	1	Ⴉ	cut_w_stereo_44KHz.wav
1	53	1	1	1	C	2	1	910	1	Ⴕ	cut_g_stereo_44KHz.wav
1	54	4	4	2	I	1	0	972	1	Ⴌ	cut_l_stereo_44KHz.wav
1	55	3	4	2	I	1	0	1086	1	Ⴉ	cut_l_stereo_44KHz.wav
1	56	2	2	1	C	2	1	968	1	Ⴖ	cut_h_stereo_44KHz.wav
1	57	3	3	2	I	1	0	1445	0	Ⴉ	cut_w_stereo_44KHz.wav
1	58	1	1	1	C	2	1	894	1	Ⴕ	cut_g_stereo_44KHz.wav
1	59	4	4	2	I	1	0	1212	0	Ⴌ	cut_l_stereo_44KHz.wav
1	60	2	2	1	C	2	1	802	1	Ⴖ	cut_h_stereo_44KHz.wav
1	61	4	3	2	I	2	0	1115	0	Ⴌ	cut_w_stereo_44KHz.wav
1	62	3	4	2	I	1	0	810	1	Ⴉ	cut_l_stereo_44KHz.wav
1	63	2	1	0	C	1	1	976	1	Ⴖ	cut_g_stereo_44KHz.wav
1	64	1	2	0	C	1	1	828	1	Ⴕ	cut_h_stereo_44KHz.wav
1	65	3	4	2	I	2	0	459	0	Ⴉ	cut_l_stereo_44KHz.wav
1	66	1	1	1	C	2	1	780	1	Ⴕ	cut_g_stereo_44KHz.wav
1	67	4	4	2	I	1	0	1008	1	Ⴌ	cut_l_stereo_44KHz.wav
1	68	2	2	1	C	2	1	971	1	Ⴖ	cut_h_stereo_44KHz.wav
1	69	1	2	0	C	1	1	976	1	Ⴕ	cut_h_stereo_44KHz.wav
1	70	3	3	2	I	2	0	971	0	Ⴉ	cut_w_stereo_44KHz.wav
1	71	2	1	0	C	2	0	1043	0	Ⴖ	cut_g_stereo_44KHz.wav
1	72	4	3	2	I	1	0	777	1	Ⴌ	cut_w_stereo_44KHz.wav
1	73	3	3	2	I	1	0	705	0	Ⴉ	cut_w_stereo_44KHz.wav
1	74	2	2	1	C	2	1	947	1	Ⴖ	cut_h_stereo_44KHz.wav
1	75	4	3	2	I	1	0	907	0	Ⴌ	cut_w_stereo_44KHz.wav
1	76	1	1	1	C	2	1	804	1	Ⴕ	cut_g_stereo_44KHz.wav
1	77	2	1	0	C	1	1	1332	1	Ⴖ	cut_g_stereo_44KHz.wav
1	78	4	4	2	I	1	0	869	0	Ⴌ	cut_l_stereo_44KHz.wav
1	79	1	2	0	C	1	1	607	1	Ⴕ	cut_h_stereo_44KHz.wav
1	80	3	4	2	I	1	0	1312	0	Ⴉ	cut_l_stereo_44KHz.wav
1	81	1	1	1	C	2	1	846	1	Ⴕ	cut_g_stereo_44KHz.wav
1	82	4	4	2	I	1	0	1208	1	Ⴌ	cut_l_stereo_44KHz.wav
1	83	2	1	0	C	1	1	694	1	Ⴖ	cut_g_stereo_44KHz.wav
1	84	3	3	2	I	1	0	1008	0	Ⴉ	cut_w_stereo_44KHz.wav
1	85	1	2	0	C	1	1	715	1	Ⴕ	cut_h_stereo_44KHz.wav
1	86	2	2	1	C	2	1	897	1	Ⴖ	cut_h_stereo_44KHz.wav
1	87	4	3	2	I	1	0	1340	0	Ⴌ	cut_w_stereo_44KHz.wav
1	88	3	4	2	I	1	0	771	1	Ⴉ	cut_l_stereo_44KHz.wav
1	89	2	2	1	C	2	1	675	1	Ⴖ	cut_h_stereo_44KHz.wav
1	90	4	3	2	I	1	0	670	1	Ⴌ	cut_w_stereo_44KHz.wav
1	91	1	1	1	C	2	1	873	1	Ⴕ	cut_g_stereo_44KHz.wav
1	92	3	4	2	I	1	0	832	0	Ⴉ	cut_l_stereo_44KHz.wav
1	93	2	1	0	C	1	1	820	1	Ⴖ	cut_g_stereo_44KHz.wav
1	94	4	4	2	I	1	0	1146	1	Ⴌ	cut_l_stereo_44KHz.wav
1	95	3	3	2	I	2	0	929	0	Ⴉ	cut_w_stereo_44KHz.wav
1	96	1	2	0	C	1	1	645	1	Ⴕ	cut_h_stereo_44KHz.wav
1	97	2	2	1	C	2	1	1469	1	Ⴖ	cut_h_stereo_44KHz.wav
1	98	1	1	1	C	2	1	1523	1	Ⴕ	cut_g_stereo_44KHz.wav
1	99	3	4	2	I	1	0	795	1	Ⴉ	cut_l_stereo_44KHz.wav
1	100	4	3	2	I	1	0	904	1	Ⴌ	cut_w_stereo_44KHz.wav
1	101	3	3	2	I	2	0	1454	1	Ⴉ	cut_w_stereo_44KHz.wav
1	102	2	1	0	C	1	1	658	1	Ⴖ	cut_g_stereo_44KHz.wav
1	103	1	2	0	C	1	1	817	1	Ⴕ	cut_h_stereo_44KHz.wav
1	104	4	4	2	I	1	0	892	1	Ⴌ	cut_l_stereo_44KHz.wav
1	105	3	3	2	I	1	0	1076	1	Ⴉ	cut_w_stereo_44KHz.wav
1	106	1	2	0	C	1	1	535	1	Ⴕ	cut_h_stereo_44KHz.wav
1	107	2	2	1	C	2	1	630	1	Ⴖ	cut_h_stereo_44KHz.wav
1	108	4	4	2	I	1	0	847	1	Ⴌ	cut_l_stereo_44KHz.wav
1	109	1	1	1	C	1	0	825	0	Ⴕ	cut_g_stereo_44KHz.wav
1	110	4	3	2	I	1	0	1048	0	Ⴌ	cut_w_stereo_44KHz.wav
1	111	3	4	2	I	1	0	770	0	Ⴉ	cut_l_stereo_44KHz.wav
1	112	2	1	0	C	1	1	651	1	Ⴖ	cut_g_stereo_44KHz.wav
1	113	3	4	2	I	1	0	783	0	Ⴉ	cut_l_stereo_44KHz.wav
1	114	2	2	1	C	2	1	856	1	Ⴖ	cut_h_stereo_44KHz.wav
1	115	4	4	2	I	1	0	772	0	Ⴌ	cut_l_stereo_44KHz.wav
1	116	1	2	0	C	1	1	885	1	Ⴕ	cut_h_stereo_44KHz.wav
1	117	2	1	0	C	1	1	1095	1	Ⴖ	cut_g_stereo_44KHz.wav
1	118	3	3	2	I	2	0	789	1	Ⴉ	cut_w_stereo_44KHz.wav
1	119	1	1	1	C	2	1	1305	1	Ⴕ	cut_g_stereo_44KHz.wav
1	120	4	3	2	I	1	0	917	1	Ⴌ	cut_w_stereo_44KHz.wav
1	121	2	2	1	C	2	1	1450	1	Ⴖ	cut_h_stereo_44KHz.wav
1	122	1	2	0	C	1	1	567	1	Ⴕ	cut_h_stereo_44KHz.wav
1	123	3	3	2	I	2	0	880	1	Ⴉ	cut_w_stereo_44KHz.wav
1	124	4	4	2	I	1	0	1651	0	Ⴌ	cut_l_stereo_44KHz.wav
1	125	3	4	2	I	1	0	941	0	Ⴉ	cut_l_stereo_44KHz.wav
1	126	4	3	2	I	1	0	650	0	Ⴌ	cut_w_stereo_44KHz.wav
1	127	2	1	0	C	1	1	595	1	Ⴖ	cut_g_stereo_44KHz.wav
1	128	1	1	1	C	2	1	741	1	Ⴕ	cut_g_stereo_44KHz.wav
1	129	4	3	2	I	2	0	1102	1	Ⴌ	cut_w_stereo_44KHz.wav
1	130	2	2	1	C	2	1	916	1	Ⴖ	cut_h_stereo_44KHz.wav
1	131	3	3	2	I	2	0	1168	1	Ⴉ	cut_w_stereo_44KHz.wav
1	132	1	2	0	C	1	1	713	1	Ⴕ	cut_h_stereo_44KHz.wav
1	133	3	4	2	I	2	0	1100	1	Ⴉ	cut_l_stereo_44KHz.wav
1	134	4	4	2	I	2	0	941	0	Ⴌ	cut_l_stereo_44KHz.wav
1	135	1	1	1	C	2	1	831	1	Ⴕ	cut_g_stereo_44KHz.wav
1	136	2	1	0	C	1	1	836	1	Ⴖ	cut_g_stereo_44KHz.wav
1	137	1	2	0	C	1	1	1212	1	Ⴕ	cut_h_stereo_44KHz.wav
1	138	4	3	2	I	1	0	939	1	Ⴌ	cut_w_stereo_44KHz.wav
1	139	2	2	1	C	2	1	721	1	Ⴖ	cut_h_stereo_44KHz.wav
1	140	3	4	2	I	2	0	848	1	Ⴉ	cut_l_stereo_44KHz.wav
1	141	2	1	0	C	1	1	1000	1	Ⴖ	cut_g_stereo_44KHz.wav
1	142	1	1	1	C	2	1	1100	1	Ⴕ	cut_g_stereo_44KHz.wav
1	143	3	3	2	I	2	0	938	0	Ⴉ	cut_w_stereo_44KHz.wav
1	144	4	4	2	I	1	0	1145	1	Ⴌ	cut_l_stereo_44KHz.wav
1	145	2	1	0	C	1	1	759	1	Ⴖ	cut_g_stereo_44KHz.wav
1	146	4	4	2	I	1	0	1321	0	Ⴌ	cut_l_stereo_44KHz.wav
1	147	1	1	1	C	2	1	733	1	Ⴕ	cut_g_stereo_44KHz.wav
1	148	3	3	2	I	2	0	734	1	Ⴉ	cut_w_stereo_44KHz.wav
1	149	1	2	0	C	1	1	639	1	Ⴕ	cut_h_stereo_44KHz.wav
1	150	4	3	2	I	1	0	877	0	Ⴌ	cut_w_stereo_44KHz.wav
1	151	2	2	1	C	2	1	783	1	Ⴖ	cut_h_stereo_44KHz.wav
1	152	3	4	2	I	2	0	777	1	Ⴉ	cut_l_stereo_44KHz.wav
1	153	4	3	2	I	1	0	930	1	Ⴌ	cut_w_stereo_44KHz.wav
1	154	2	1	0	C	1	1	766	1	Ⴖ	cut_g_stereo_44KHz.wav
1	155	1	1	1	C	2	1	991	1	Ⴕ	cut_g_stereo_44KHz.wav
1	156	3	4	2	I	1	0	1170	0	Ⴉ	cut_l_stereo_44KHz.wav
1	157	4	4	2	I	1	0	996	1	Ⴌ	cut_l_stereo_44KHz.wav
1	158	3	3	2	I	2	0	654	1	Ⴉ	cut_w_stereo_44KHz.wav
1	159	2	2	1	C	2	1	804	1	Ⴖ	cut_h_stereo_44KHz.wav
1	160	1	2	0	C	1	1	1380	1	Ⴕ	cut_h_stereo_44KHz.wav
1	161	3	4	2	I	2	0	812	1	Ⴉ	cut_l_stereo_44KHz.wav
1	162	2	1	0	C	1	1	800	1	Ⴖ	cut_g_stereo_44KHz.wav
1	163	4	4	2	I	2	0	1140	0	Ⴌ	cut_l_stereo_44KHz.wav
1	164	1	1	1	C	2	1	1022	1	Ⴕ	cut_g_stereo_44KHz.wav
1	165	2	2	1	C	2	1	1395	1	Ⴖ	cut_h_stereo_44KHz.wav
1	166	4	3	2	I	2	0	839	1	Ⴌ	cut_w_stereo_44KHz.wav
1	167	3	3	2	I	2	0	1580	0	Ⴉ	cut_w_stereo_44KHz.wav
1	168	1	2	0	C	1	1	827	1	Ⴕ	cut_h_stereo_44KHz.wav
1	169	2	2	1	C	2	1	698	1	Ⴖ	cut_h_stereo_44KHz.wav
1	170	3	3	2	I	1	0	1313	0	Ⴉ	cut_w_stereo_44KHz.wav
1	171	1	2	0	C	1	1	957	1	Ⴕ	cut_h_stereo_44KHz.wav
1	172	4	3	2	I	2	0	1031	0	Ⴌ	cut_w_stereo_44KHz.wav
1	173	2	1	0	C	1	1	676	1	Ⴖ	cut_g_stereo_44KHz.wav
1	174	1	1	1	C	2	1	868	1	Ⴕ	cut_g_stereo_44KHz.wav
1	175	3	4	2	I	1	0	1551	1	Ⴉ	cut_l_stereo_44KHz.wav
1	176	4	4	2	I	2	0	859	1	Ⴌ	cut_l_stereo_44KHz.wav
1	177	3	3	2	I	2	0	941	0	Ⴉ	cut_w_stereo_44KHz.wav
1	178	1	2	0	C	1	1	646	1	Ⴕ	cut_h_stereo_44KHz.wav
1	179	2	1	0	C	1	1	972	1	Ⴖ	cut_g_stereo_44KHz.wav
1	180	4	4	2	I	1	0	1072	1	Ⴌ	cut_l_stereo_44KHz.wav
1	181	2	2	1	C	2	1	659	1	Ⴖ	cut_h_stereo_44KHz.wav
1	182	1	1	1	C	2	1	756	1	Ⴕ	cut_g_stereo_44KHz.wav
1	183	3	4	2	I	1	0	1412	0	Ⴉ	cut_l_stereo_44KHz.wav
1	184	4	3	2	I	2	0	896	1	Ⴌ	cut_w_stereo_44KHz.wav
1	185	1	1	1	C	2	1	796	1	Ⴕ	cut_g_stereo_44KHz.wav
1	186	3	4	2	I	1	0	927	0	Ⴉ	cut_l_stereo_44KHz.wav
1	187	2	1	0	C	1	1	1018	1	Ⴖ	cut_g_stereo_44KHz.wav
1	188	4	4	2	I	1	0	846	0	Ⴌ	cut_l_stereo_44KHz.wav
1	189	2	2	1	C	2	1	1243	1	Ⴖ	cut_h_stereo_44KHz.wav
1	190	1	2	0	C	1	1	1425	1	Ⴕ	cut_h_stereo_44KHz.wav
1	191	4	3	2	I	1	0	809	1	Ⴌ	cut_w_stereo_44KHz.wav
1	192	3	3	2	I	2	0	727	0	Ⴉ	cut_w_stereo_44KHz.wav
1	193	1	1	1	C	2	1	866	1	Ⴕ	cut_g_stereo_44KHz.wav
1	194	2	2	1	C	2	1	1174	1	Ⴖ	cut_h_stereo_44KHz.wav
1	195	3	3	2	I	1	0	694	0	Ⴉ	cut_w_stereo_44KHz.wav
1	196	4	3	2	I	1	0	891	0	Ⴌ	cut_w_stereo_44KHz.wav
1	197	2	1	0	C	1	1	1051	1	Ⴖ	cut_g_stereo_44KHz.wav
1	198	1	2	0	C	1	1	1286	1	Ⴕ	cut_h_stereo_44KHz.wav
1	199	4	4	2	I	1	0	1164	0	Ⴌ	cut_l_stereo_44KHz.wav
1	200	3	4	2	I	1	0	931	0	Ⴉ	cut_l_stereo_44KHz.wav
2	1	4	4	2	I	2	0	1786	0	Ⴂ	cut_o_stereo_44KHz.wav
2	2	2	2	1	C	1	0	578	0	Ⴡ	cut_a_stereo_44KHz.wav
2	3	1	1	1	C	1	0	468	0	Ⴇ	cut_u_stereo_44KHz.wav
2	4	3	3	2	I	1	0	523	1	Ⴁ	cut_k_stereo_44KHz.wav
2	5	2	1	0	C	2	0	630	0	Ⴡ	cut_u_stereo_44KHz.wav
2	6	4	3	2	I	1	0	611	0	Ⴂ	cut_k_stereo_44KHz.wav
2	7	1	2	0	C	1	1	510	1	Ⴇ	cut_a_stereo_44KHz.wav
2	8	3	4	2	I	1	0	544	1	Ⴁ	cut_o_stereo_44KHz.wav
2	9	4	4	2	I	2	0	1036	0	Ⴂ	cut_o_stereo_44KHz.wav
2	10	3	3	2	I	1	0	559	0	Ⴁ	cut_k_stereo_44KHz.wav
2	11	1	1	1	C	1	0	510	0	Ⴇ	cut_u_stereo_44KHz.wav
2	12	2	2	1	C	2	1	592	1	Ⴡ	cut_a_stereo_44KHz.wav
2	13	3	4	2	I	1	0	813	0	Ⴁ	cut_o_stereo_44KHz.wav
2	14	1	2	0	C	1	1	555	1	Ⴇ	cut_a_stereo_44KHz.wav
2	15	4	3	2	I	1	0	496	1	Ⴂ	cut_k_stereo_44KHz.wav
2	16	2	1	0	C	1	1	538	1	Ⴡ	cut_u_stereo_44KHz.wav
2	17	3	3	2	I	2	0	564	1	Ⴁ	cut_k_stereo_44KHz.wav
2	18	2	1	0	C	1	1	677	1	Ⴡ	cut_u_stereo_44KHz.wav
2	19	4	4	2	I	2	0	920	1	Ⴂ	cut_o_stereo_44KHz.wav
2	20	1	2	0	C	1	1	613	1	Ⴇ	cut_a_stereo_44KHz.wav
2	21	3	4	2	I	2	0	871	1	Ⴁ	cut_o_stereo_44KHz.wav
2	22	2	2	1	C	2	1	838	1	Ⴡ	cut_a_stereo_44KHz.wav
2	23	4	3	2	I	1	0	582	0	Ⴂ	cut_k_stereo_44KHz.wav
2	24	1	1	1	C	2	1	773	1	Ⴇ	cut_u_stereo_44KHz.wav
2	25	4	4	2	I	2	0	748	0	Ⴂ	cut_o_stereo_44KHz.wav
2	26	3	3	2	I	2	0	748	0	Ⴁ	cut_k_stereo_44KHz.wav
2	27	2	1	0	C	1	1	627	1	Ⴡ	cut_u_stereo_44KHz.wav
2	28	1	1	1	C	2	1	755	1	Ⴇ	cut_u_stereo_44KHz.wav
2	29	4	3	2	I	1	0	1179	1	Ⴂ	cut_k_stereo_44KHz.wav
2	30	1	2	0	C	2	0	812	0	Ⴇ	cut_a_stereo_44KHz.wav
2	31	3	4	2	I	1	0	994	0	Ⴁ	cut_o_stereo_44KHz.wav
2	32	2	2	1	C	2	1	851	1	Ⴡ	cut_a_stereo_44KHz.wav
2	33	3	3	2	I	2	0	643	1	Ⴁ	cut_k_stereo_44KHz.wav
2	34	1	1	1	C	2	1	705	1	Ⴇ	cut_u_stereo_44KHz.wav
2	35	4	3	2	I	1	0	711	1	Ⴂ	cut_k_stereo_44KHz.wav
2	36	2	2	1	C	2	1	603	1	Ⴡ	cut_a_stereo_44KHz.wav
2	37	3	4	2	I	1	0	849	1	Ⴁ	cut_o_stereo_44KHz.wav
2	38	4	4	2	I	2	0	634	1	Ⴂ	cut_o_stereo_44KHz.wav
2	39	2	1	0	C	1	1	564	1	Ⴡ	cut_u_stereo_44KHz.wav
2	40	1	2	0	C	1	1	624	1	Ⴇ	cut_a_stereo_44KHz.wav
2	41	3	3	2	I	2	0	773	0	Ⴁ	cut_k_stereo_44KHz.wav
2	42	4	4	2	I	2	0	710	0	Ⴂ	cut_o_stereo_44KHz.wav
2	43	2	1	0	C	1	1	623	1	Ⴡ	cut_u_stereo_44KHz.wav
2	44	1	1	1	C	2	1	565	1	Ⴇ	cut_u_stereo_44KHz.wav
2	45	2	2	1	C	2	1	608	1	Ⴡ	cut_a_stereo_44KHz.wav
2	46	3	4	2	I	2	0	488	1	Ⴁ	cut_o_stereo_44KHz.wav
2	47	4	3	2	I	2	0	605	1	Ⴂ	cut_k_stereo_44KHz.wav
2	48	1	2	0	C	1	1	496	1	Ⴇ	cut_a_stereo_44KHz.wav
2	49	2	1	0	C	1	1	629	1	Ⴡ	cut_u_stereo_44KHz.wav
2	50	1	1	1	C	2	1	596	1	Ⴇ	cut_u_stereo_44KHz.wav
2	51	4	3	2	I	2	0	723	1	Ⴂ	cut_k_stereo_44KHz.wav
2	52	3	3	2	I	1	0	688	1	Ⴁ	cut_k_stereo_44KHz.wav
2	53	1	2	0	C	1	1	571	1	Ⴇ	cut_a_stereo_44KHz.wav
2	54	2	2	1	C	2	1	664	1	Ⴡ	cut_a_stereo_44KHz.wav
2	55	3	4	2	I	2	0	1177	1	Ⴁ	cut_o_stereo_44KHz.wav
2	56	4	4	2	I	1	0	943	1	Ⴂ	cut_o_stereo_44KHz.wav
2	57	3	3	2	I	1	0	827	0	Ⴁ	cut_k_stereo_44KHz.wav
2	58	4	4	2	I	1	0	893	1	Ⴂ	cut_o_stereo_44KHz.wav
2	59	1	1	1	C	2	1	874	1	Ⴇ	cut_u_stereo_44KHz.wav
2	60	2	1	0	C	1	1	826	1	Ⴡ	cut_u_stereo_44KHz.wav
2	61	3	4	2	I	2	0	873	0	Ⴁ	cut_o_stereo_44KHz.wav
2	62	2	2	1	C	2	1	798	1	Ⴡ	cut_a_stereo_44KHz.wav
2	63	4	3	2	I	1	0	671	1	Ⴂ	cut_k_stereo_44KHz.wav
2	64	1	2	0	C	1	1	594	1	Ⴇ	cut_a_stereo_44KHz.wav
2	65	4	4	2	I	2	0	663	0	Ⴂ	cut_o_stereo_44KHz.wav
2	66	3	4	2	I	1	0	605	1	Ⴁ	cut_o_stereo_44KHz.wav
2	67	1	2	0	C	1	1	523	1	Ⴇ	cut_a_stereo_44KHz.wav
2	68	2	1	0	C	1	1	557	1	Ⴡ	cut_u_stereo_44KHz.wav
2	69	3	3	2	I	1	0	807	0	Ⴁ	cut_k_stereo_44KHz.wav
2	70	2	2	1	C	1	0	608	0	Ⴡ	cut_a_stereo_44KHz.wav
2	71	4	3	2	I	2	0	754	1	Ⴂ	cut_k_stereo_44KHz.wav
2	72	1	1	1	C	2	1	834	1	Ⴇ	cut_u_stereo_44KHz.wav
2	73	4	3	2	I	2	0	1027	1	Ⴂ	cut_k_stereo_44KHz.wav
2	74	2	1	0	C	1	1	699	1	Ⴡ	cut_u_stereo_44KHz.wav
2	75	1	2	0	C	1	1	507	1	Ⴇ	cut_a_stereo_44KHz.wav
2	76	3	3	2	I	1	0	841	1	Ⴁ	cut_k_stereo_44KHz.wav
2	77	1	1	1	C	2	1	733	1	Ⴇ	cut_u_stereo_44KHz.wav
2	78	2	2	1	C	1	0	1231	0	Ⴡ	cut_a_stereo_44KHz.wav
2	79	4	4	2	I	1	0	1014	0	Ⴂ	cut_o_stereo_44KHz.wav
2	80	3	4	2	I	1	0	486	1	Ⴁ	cut_o_stereo_44KHz.wav
2	81	2	2	1	C	2	1	738	1	Ⴡ	cut_a_stereo_44KHz.wav
2	82	1	2	0	C	1	1	539	1	Ⴇ	cut_a_stereo_44KHz.wav
2	83	3	4	2	I	1	0	771	0	Ⴁ	cut_o_stereo_44KHz.wav
2	84	4	4	2	I	1	0	737	1	Ⴂ	cut_o_stereo_44KHz.wav
2	85	3	3	2	I	2	0	700	0	Ⴁ	cut_k_stereo_44KHz.wav
2	86	4	3	2	I	2	0	751	0	Ⴂ	cut_k_stereo_44KHz.wav
2	87	1	1	1	C	2	1	909	1	Ⴇ	cut_u_stereo_44KHz.wav
2	88	2	1	0	C	1	1	562	1	Ⴡ	cut_u_stereo_44KHz.wav
2	89	1	1	1	C	2	1	848	1	Ⴇ	cut_u_stereo_44KHz.wav
2	90	2	1	0	C	1	1	709	1	Ⴡ	cut_u_stereo_44KHz.wav
2	91	4	4	2	I	1	0	1045	0	Ⴂ	cut_o_stereo_44KHz.wav
2	92	3	4	2	I	2	0	795	0	Ⴁ	cut_o_stereo_44KHz.wav
2	93	1	2	0	C	1	1	712	1	Ⴇ	cut_a_stereo_44KHz.wav
2	94	2	2	1	C	2	1	887	1	Ⴡ	cut_a_stereo_44KHz.wav
2	95	4	3	2	I	1	0	681	1	Ⴂ	cut_k_stereo_44KHz.wav
2	96	3	3	2	I	2	0	639	0	Ⴁ	cut_k_stereo_44KHz.wav
2	97	1	2	0	C	1	1	757	1	Ⴇ	cut_a_stereo_44KHz.wav
2	98	3	4	2	I	1	0	916	0	Ⴁ	cut_o_stereo_44KHz.wav
2	99	4	4	2	I	2	0	755	0	Ⴂ	cut_o_stereo_44KHz.wav
2	100	2	1	0	C	1	1	901	1	Ⴡ	cut_u_stereo_44KHz.wav
2	101	1	1	1	C	2	1	656	1	Ⴇ	cut_u_stereo_44KHz.wav
2	102	3	3	2	I	1	0	825	0	Ⴁ	cut_k_stereo_44KHz.wav
2	103	2	2	1	C	2	1	823	1	Ⴡ	cut_a_stereo_44KHz.wav
2	104	4	3	2	I	1	0	1006	0	Ⴂ	cut_k_stereo_44KHz.wav
2	105	3	4	2	I	1	0	690	0	Ⴁ	cut_o_stereo_44KHz.wav
2	106	4	4	2	I	1	0	906	1	Ⴂ	cut_o_stereo_44KHz.wav
2	107	2	1	0	C	1	1	893	1	Ⴡ	cut_u_stereo_44KHz.wav
2	108	1	2	0	C	1	1	470	1	Ⴇ	cut_a_stereo_44KHz.wav
2	109	3	3	2	I	2	0	952	0	Ⴁ	cut_k_stereo_44KHz.wav
2	110	1	1	1	C	2	1	809	1	Ⴇ	cut_u_stereo_44KHz.wav
2	111	2	2	1	C	2	1	989	1	Ⴡ	cut_a_stereo_44KHz.wav
2	112	4	3	2	I	1	0	827	0	Ⴂ	cut_k_stereo_44KHz.wav
2	113	1	2	0	C	1	1	630	1	Ⴇ	cut_a_stereo_44KHz.wav
2	114	2	2	1	C	2	1	642	1	Ⴡ	cut_a_stereo_44KHz.wav
2	115	3	3	2	I	1	0	803	1	Ⴁ	cut_k_stereo_44KHz.wav
2	116	4	3	2	I	2	0	606	1	Ⴂ	cut_k_stereo_44KHz.wav
2	117	1	1	1	C	2	1	886	1	Ⴇ	cut_u_stereo_44KHz.wav
2	118	2	1	0	C	1	1	742	1	Ⴡ	cut_u_stereo_44KHz.wav
2	119	4	4	2	I	1	0	966	0	Ⴂ	cut_o_stereo_44KHz.wav
2	120	3	4	2	I	1	0	556	1	Ⴁ	cut_o_stereo_44KHz.wav
2	121	1	1	1	C	2	1	688	1	Ⴇ	cut_u_stereo_44KHz.wav
2	122	2	2	1	C	1	0	856	0	Ⴡ	cut_a_stereo_44KHz.wav
2	123	3	3	2	I	1	0	847	1	Ⴁ	cut_k_stereo_44KHz.wav
2	124	4	3	2	I	2	0	646	0	Ⴂ	cut_k_stereo_44KHz.wav
2	125	3	4	2	I	1	0	778	0	Ⴁ	cut_o_stereo_44KHz.wav
2	126	1	2	0	C	1	1	665	1	Ⴇ	cut_a_stereo_44KHz.wav
2	127	2	1	0	C	1	1	901	1	Ⴡ	cut_u_stereo_44KHz.wav
2	128	4	4	2	I	1	0	1371	0	Ⴂ	cut_o_stereo_44KHz.wav
2	129	3	3	2	I	1	0	951	1	Ⴁ	cut_k_stereo_44KHz.wav
2	130	2	2	1	C	2	1	937	1	Ⴡ	cut_a_stereo_44KHz.wav
2	131	4	3	2	I	2	0	1114	0	Ⴂ	cut_k_stereo_44KHz.wav
2	132	1	1	1	C	2	1	1207	1	Ⴇ	cut_u_stereo_44KHz.wav
2	133	4	4	2	I	1	0	1347	0	Ⴂ	cut_o_stereo_44KHz.wav
2	134	1	2	0	C	1	1	1157	1	Ⴇ	cut_a_stereo_44KHz.wav
2	135	3	4	2	I	2	0	776	0	Ⴁ	cut_o_stereo_44KHz.wav
2	136	2	1	0	C	1	1	637	1	Ⴡ	cut_u_stereo_44KHz.wav
2	137	4	4	2	I	1	0	982	1	Ⴂ	cut_o_stereo_44KHz.wav
2	138	1	2	0	C	2	0	699	0	Ⴇ	cut_a_stereo_44KHz.wav
2	139	3	3	2	I	1	0	884	1	Ⴁ	cut_k_stereo_44KHz.wav
2	140	2	1	0	C	1	1	824	1	Ⴡ	cut_u_stereo_44KHz.wav
2	141	4	3	2	I	2	0	1180	0	Ⴂ	cut_k_stereo_44KHz.wav
2	142	1	1	1	C	2	1	1087	1	Ⴇ	cut_u_stereo_44KHz.wav
2	143	3	4	2	I	1	0	778	1	Ⴁ	cut_o_stereo_44KHz.wav
2	144	2	2	1	C	2	1	845	1	Ⴡ	cut_a_stereo_44KHz.wav
2	145	3	4	2	I	1	0	1021	0	Ⴁ	cut_o_stereo_44KHz.wav
2	146	4	3	2	I	1	0	943	1	Ⴂ	cut_k_stereo_44KHz.wav
2	147	2	1	0	C	1	1	835	1	Ⴡ	cut_u_stereo_44KHz.wav
2	148	1	2	0	C	1	1	903	1	Ⴇ	cut_a_stereo_44KHz.wav
2	149	2	2	1	C	2	1	1124	1	Ⴡ	cut_a_stereo_44KHz.wav
2	150	1	1	1	C	2	1	792	1	Ⴇ	cut_u_stereo_44KHz.wav
2	151	4	4	2	I	2	0	815	1	Ⴂ	cut_o_stereo_44KHz.wav
2	152	3	3	2	I	2	0	1228	0	Ⴁ	cut_k_stereo_44KHz.wav
2	153	4	4	2	I	2	0	686	0	Ⴂ	cut_o_stereo_44KHz.wav
2	154	1	1	1	C	1	0	541	0	Ⴇ	cut_u_stereo_44KHz.wav
2	155	3	4	2	I	1	0	770	1	Ⴁ	cut_o_stereo_44KHz.wav
2	156	2	1	0	C	1	1	728	1	Ⴡ	cut_u_stereo_44KHz.wav
2	157	3	3	2	I	2	0	636	1	Ⴁ	cut_k_stereo_44KHz.wav
2	158	2	2	1	C	2	1	841	1	Ⴡ	cut_a_stereo_44KHz.wav
2	159	1	2	0	C	1	1	1145	1	Ⴇ	cut_a_stereo_44KHz.wav
2	160	4	3	2	I	2	0	829	1	Ⴂ	cut_k_stereo_44KHz.wav
2	161	2	2	1	C	2	1	866	1	Ⴡ	cut_a_stereo_44KHz.wav
2	162	4	3	2	I	2	0	745	0	Ⴂ	cut_k_stereo_44KHz.wav
2	163	3	4	2	I	1	0	958	0	Ⴁ	cut_o_stereo_44KHz.wav
2	164	1	2	0	C	1	1	585	1	Ⴇ	cut_a_stereo_44KHz.wav
2	165	3	3	2	I	2	0	659	0	Ⴁ	cut_k_stereo_44KHz.wav
2	166	4	4	2	I	2	0	655	1	Ⴂ	cut_o_stereo_44KHz.wav
2	167	1	1	1	C	2	1	840	1	Ⴇ	cut_u_stereo_44KHz.wav
2	168	2	1	0	C	1	1	715	1	Ⴡ	cut_u_stereo_44KHz.wav
2	169	4	4	2	I	2	0	629	1	Ⴂ	cut_o_stereo_44KHz.wav
2	170	1	1	1	C	2	1	718	1	Ⴇ	cut_u_stereo_44KHz.wav
2	171	2	1	0	C	1	1	696	1	Ⴡ	cut_u_stereo_44KHz.wav
2	172	3	4	2	I	2	0	685	1	Ⴁ	cut_o_stereo_44KHz.wav
2	173	1	2	0	C	1	1	722	1	Ⴇ	cut_a_stereo_44KHz.wav
2	174	3	3	2	I	2	0	706	1	Ⴁ	cut_k_stereo_44KHz.wav
2	175	4	3	2	I	2	0	1521	0	Ⴂ	cut_k_stereo_44KHz.wav
2	176	2	2	1	C	2	1	748	1	Ⴡ	cut_a_stereo_44KHz.wav
2	177	4	4	2	I	2	0	757	1	Ⴂ	cut_o_stereo_44KHz.wav
2	178	3	3	2	I	2	0	992	0	Ⴁ	cut_k_stereo_44KHz.wav
2	179	1	2	0	C	1	1	702	1	Ⴇ	cut_a_stereo_44KHz.wav
2	180	2	2	1	C	2	1	726	1	Ⴡ	cut_a_stereo_44KHz.wav
2	181	4	3	2	I	2	0	587	1	Ⴂ	cut_k_stereo_44KHz.wav
2	182	2	1	0	C	2	0	1047	0	Ⴡ	cut_u_stereo_44KHz.wav
2	183	3	4	2	I	2	0	685	1	Ⴁ	cut_o_stereo_44KHz.wav
2	184	1	1	1	C	1	0	1606	0	Ⴇ	cut_u_stereo_44KHz.wav
2	185	4	3	2	I	2	0	697	1	Ⴂ	cut_k_stereo_44KHz.wav
2	186	3	3	2	I	2	0	674	0	Ⴁ	cut_k_stereo_44KHz.wav
2	187	2	1	0	C	1	1	1028	1	Ⴡ	cut_u_stereo_44KHz.wav
2	188	1	2	0	C	1	1	601	1	Ⴇ	cut_a_stereo_44KHz.wav
2	189	2	2	1	C	2	1	1056	1	Ⴡ	cut_a_stereo_44KHz.wav
2	190	1	1	1	C	2	1	1271	1	Ⴇ	cut_u_stereo_44KHz.wav
2	191	3	4	2	I	2	0	982	1	Ⴁ	cut_o_stereo_44KHz.wav
2	192	4	4	2	I	1	0	1288	0	Ⴂ	cut_o_stereo_44KHz.wav
2	193	1	1	1	C	2	1	796	1	Ⴇ	cut_u_stereo_44KHz.wav
2	194	2	2	1	C	1	0	820	0	Ⴡ	cut_a_stereo_44KHz.wav
2	195	3	4	2	I	1	0	894	1	Ⴁ	cut_o_stereo_44KHz.wav
2	196	4	3	2	I	1	0	717	0	Ⴂ	cut_k_stereo_44KHz.wav
2	197	1	2	0	C	1	1	727	1	Ⴇ	cut_a_stereo_44KHz.wav
2	198	3	3	2	I	1	0	957	0	Ⴁ	cut_k_stereo_44KHz.wav
2	199	2	1	0	C	1	1	1027	1	Ⴡ	cut_u_stereo_44KHz.wav
2	200	4	4	2	I	2	0	828	0	Ⴂ	cut_o_stereo_44KHz.wav
3	1	3	4	2	I	1	0	1421	0	Ⴐ	cut_n_stereo_44KHz.wav
3	2	1	1	1	C	1	0	757	0	Ⴒ	cut_s_stereo_44KHz.wav
3	3	4	3	2	I	1	0	492	0	Ⴔ	cut_ui_stereo_44KHz.wav
3	4	2	1	0	C	1	1	541	1	Ⴏ	cut_s_stereo_44KHz.wav
3	5	3	3	2	I	1	0	807	0	Ⴐ	cut_ui_stereo_44KHz.wav
3	6	1	2	0	C	1	1	704	1	Ⴒ	cut_oei_stereo_44KHz.wav
3	7	2	2	1	C	2	1	826	1	Ⴏ	cut_oei_stereo_44KHz.wav
3	8	4	4	2	I	1	0	984	1	Ⴔ	cut_n_stereo_44KHz.wav
3	9	3	4	2	I	2	0	692	1	Ⴐ	cut_n_stereo_44KHz.wav
3	10	4	3	2	I	2	0	1285	0	Ⴔ	cut_ui_stereo_44KHz.wav
3	11	1	1	1	C	1	0	1260	0	Ⴒ	cut_s_stereo_44KHz.wav
3	12	2	1	0	C	1	1	761	1	Ⴏ	cut_s_stereo_44KHz.wav
3	13	4	4	2	I	1	0	1024	1	Ⴔ	cut_n_stereo_44KHz.wav
3	14	2	2	1	C	2	1	1095	1	Ⴏ	cut_oei_stereo_44KHz.wav
3	15	3	3	2	I	2	0	828	1	Ⴐ	cut_ui_stereo_44KHz.wav
3	16	1	2	0	C	1	1	728	1	Ⴒ	cut_oei_stereo_44KHz.wav
3	17	3	3	2	I	2	0	996	0	Ⴐ	cut_ui_stereo_44KHz.wav
3	18	4	3	2	I	1	0	1263	1	Ⴔ	cut_ui_stereo_44KHz.wav
3	19	1	2	0	C	1	1	831	1	Ⴒ	cut_oei_stereo_44KHz.wav
3	20	2	2	1	C	2	1	1667	1	Ⴏ	cut_oei_stereo_44KHz.wav
3	21	1	1	1	C	2	1	917	1	Ⴒ	cut_s_stereo_44KHz.wav
3	22	3	4	2	I	2	0	907	1	Ⴐ	cut_n_stereo_44KHz.wav
3	23	2	1	0	C	1	1	904	1	Ⴏ	cut_s_stereo_44KHz.wav
3	24	4	4	2	I	1	0	981	1	Ⴔ	cut_n_stereo_44KHz.wav
3	25	3	4	2	I	2	0	1307	0	Ⴐ	cut_n_stereo_44KHz.wav
3	26	4	4	2	I	1	0	904	1	Ⴔ	cut_n_stereo_44KHz.wav
3	27	2	2	1	C	2	1	971	1	Ⴏ	cut_oei_stereo_44KHz.wav
3	28	1	2	0	C	1	1	1091	1	Ⴒ	cut_oei_stereo_44KHz.wav
3	29	3	3	2	I	1	0	1218	1	Ⴐ	cut_ui_stereo_44KHz.wav
3	30	1	1	1	C	2	1	863	1	Ⴒ	cut_s_stereo_44KHz.wav
3	31	4	3	2	I	1	0	732	0	Ⴔ	cut_ui_stereo_44KHz.wav
3	32	2	1	0	C	1	1	881	1	Ⴏ	cut_s_stereo_44KHz.wav
3	33	4	3	2	I	1	0	746	0	Ⴔ	cut_ui_stereo_44KHz.wav
3	34	2	1	0	C	1	1	846	1	Ⴏ	cut_s_stereo_44KHz.wav
3	35	3	4	2	I	2	0	811	0	Ⴐ	cut_n_stereo_44KHz.wav
3	36	1	2	0	C	1	1	675	1	Ⴒ	cut_oei_stereo_44KHz.wav
3	37	4	4	2	I	1	0	862	1	Ⴔ	cut_n_stereo_44KHz.wav
3	38	1	1	1	C	2	1	1275	1	Ⴒ	cut_s_stereo_44KHz.wav
3	39	3	3	2	I	1	0	757	1	Ⴐ	cut_ui_stereo_44KHz.wav
3	40	2	2	1	C	2	1	781	1	Ⴏ	cut_oei_stereo_44KHz.wav
3	41	4	4	2	I	1	0	822	1	Ⴔ	cut_n_stereo_44KHz.wav
3	42	1	1	1	C	2	1	904	1	Ⴒ	cut_s_stereo_44KHz.wav
3	43	2	2	1	C	2	1	806	1	Ⴏ	cut_oei_stereo_44KHz.wav
3	44	3	3	2	I	1	0	721	0	Ⴐ	cut_ui_stereo_44KHz.wav
3	45	2	1	0	C	1	1	1000	1	Ⴏ	cut_s_stereo_44KHz.wav
3	46	3	4	2	I	1	0	906	0	Ⴐ	cut_n_stereo_44KHz.wav
3	47	4	3	2	I	1	0	1140	1	Ⴔ	cut_ui_stereo_44KHz.wav
3	48	1	2	0	C	1	1	769	1	Ⴒ	cut_oei_stereo_44KHz.wav
3	49	2	1	0	C	1	1	1009	1	Ⴏ	cut_s_stereo_44KHz.wav
3	50	4	3	2	I	1	0	773	0	Ⴔ	cut_ui_stereo_44KHz.wav
3	51	1	2	0	C	1	1	889	1	Ⴒ	cut_oei_stereo_44KHz.wav
3	52	3	3	2	I	2	0	1122	0	Ⴐ	cut_ui_stereo_44KHz.wav
3	53	1	1	1	C	2	1	723	1	Ⴒ	cut_s_stereo_44KHz.wav
3	54	3	4	2	I	1	0	899	0	Ⴐ	cut_n_stereo_44KHz.wav
3	55	2	2	1	C	2	1	773	1	Ⴏ	cut_oei_stereo_44KHz.wav
3	56	4	4	2	I	1	0	793	0	Ⴔ	cut_n_stereo_44KHz.wav
3	57	3	4	2	I	1	0	620	1	Ⴐ	cut_n_stereo_44KHz.wav
3	58	4	3	2	I	1	0	909	1	Ⴔ	cut_ui_stereo_44KHz.wav
3	59	1	2	0	C	1	1	650	1	Ⴒ	cut_oei_stereo_44KHz.wav
3	60	2	2	1	C	2	1	1015	1	Ⴏ	cut_oei_stereo_44KHz.wav
3	61	1	1	1	C	2	1	756	1	Ⴒ	cut_s_stereo_44KHz.wav
3	62	2	1	0	C	1	1	984	1	Ⴏ	cut_s_stereo_44KHz.wav
3	63	4	4	2	I	1	0	729	1	Ⴔ	cut_n_stereo_44KHz.wav
3	64	3	3	2	I	1	0	1168	1	Ⴐ	cut_ui_stereo_44KHz.wav
3	65	4	3	2	I	2	0	857	1	Ⴔ	cut_ui_stereo_44KHz.wav
3	66	1	2	0	C	1	1	716	1	Ⴒ	cut_oei_stereo_44KHz.wav
3	67	2	1	0	C	1	1	1233	1	Ⴏ	cut_s_stereo_44KHz.wav
3	68	3	3	2	I	1	0	812	0	Ⴐ	cut_ui_stereo_44KHz.wav
3	69	4	4	2	I	1	0	1076	1	Ⴔ	cut_n_stereo_44KHz.wav
3	70	1	1	1	C	2	1	1051	1	Ⴒ	cut_s_stereo_44KHz.wav
3	71	3	4	2	I	1	0	1192	0	Ⴐ	cut_n_stereo_44KHz.wav
3	72	2	2	1	C	2	1	762	1	Ⴏ	cut_oei_stereo_44KHz.wav
3	73	4	4	2	I	2	0	751	1	Ⴔ	cut_n_stereo_44KHz.wav
3	74	2	1	0	C	1	1	704	1	Ⴏ	cut_s_stereo_44KHz.wav
3	75	3	3	2	I	2	0	1522	1	Ⴐ	cut_ui_stereo_44KHz.wav
3	76	1	1	1	C	2	1	1000	1	Ⴒ	cut_s_stereo_44KHz.wav
3	77	4	3	2	I	1	0	1220	0	Ⴔ	cut_ui_stereo_44KHz.wav
3	78	3	4	2	I	1	0	660	0	Ⴐ	cut_n_stereo_44KHz.wav
3	79	2	2	1	C	2	1	759	1	Ⴏ	cut_oei_stereo_44KHz.wav
3	80	1	2	0	C	1	1	651	1	Ⴒ	cut_oei_stereo_44KHz.wav
3	81	3	3	2	I	1	0	1003	1	Ⴐ	cut_ui_stereo_44KHz.wav
3	82	2	2	1	C	2	1	711	1	Ⴏ	cut_oei_stereo_44KHz.wav
3	83	4	4	2	I	1	0	1170	0	Ⴔ	cut_n_stereo_44KHz.wav
3	84	1	1	1	C	2	1	773	1	Ⴒ	cut_s_stereo_44KHz.wav
3	85	4	3	2	I	0	0	0	0	Ⴔ	cut_ui_stereo_44KHz.wav
3	86	1	2	0	C	1	1	824	1	Ⴒ	cut_oei_stereo_44KHz.wav
3	87	3	4	2	I	1	0	743	1	Ⴐ	cut_n_stereo_44KHz.wav
3	88	2	1	0	C	1	1	1002	1	Ⴏ	cut_s_stereo_44KHz.wav
3	89	1	1	1	C	2	1	937	1	Ⴒ	cut_s_stereo_44KHz.wav
3	90	2	2	1	C	2	1	980	1	Ⴏ	cut_oei_stereo_44KHz.wav
3	91	3	3	2	I	1	0	934	0	Ⴐ	cut_ui_stereo_44KHz.wav
3	92	4	4	2	I	1	0	852	0	Ⴔ	cut_n_stereo_44KHz.wav
3	93	3	4	2	I	2	0	1395	0	Ⴐ	cut_n_stereo_44KHz.wav
3	94	4	3	2	I	1	0	686	0	Ⴔ	cut_ui_stereo_44KHz.wav
3	95	2	1	0	C	1	1	1005	1	Ⴏ	cut_s_stereo_44KHz.wav
3	96	1	2	0	C	1	1	1438	1	Ⴒ	cut_oei_stereo_44KHz.wav
3	97	2	1	0	C	1	1	658	1	Ⴏ	cut_s_stereo_44KHz.wav
3	98	3	4	2	I	1	0	792	1	Ⴐ	cut_n_stereo_44KHz.wav
3	99	4	3	2	I	1	0	1205	0	Ⴔ	cut_ui_stereo_44KHz.wav
3	100	1	2	0	C	1	1	794	1	Ⴒ	cut_oei_stereo_44KHz.wav
3	101	4	4	2	I	1	0	671	0	Ⴔ	cut_n_stereo_44KHz.wav
3	102	1	1	1	C	2	1	1447	1	Ⴒ	cut_s_stereo_44KHz.wav
3	103	3	3	2	I	1	0	801	1	Ⴐ	cut_ui_stereo_44KHz.wav
3	104	2	2	1	C	1	0	867	0	Ⴏ	cut_oei_stereo_44KHz.wav
3	105	1	1	1	C	2	1	954	1	Ⴒ	cut_s_stereo_44KHz.wav
3	106	3	3	2	I	1	0	717	1	Ⴐ	cut_ui_stereo_44KHz.wav
3	107	2	1	0	C	1	1	1019	1	Ⴏ	cut_s_stereo_44KHz.wav
3	108	4	3	2	I	1	0	774	1	Ⴔ	cut_ui_stereo_44KHz.wav
3	109	3	4	2	I	1	0	1575	1	Ⴐ	cut_n_stereo_44KHz.wav
3	110	1	2	0	C	1	1	861	1	Ⴒ	cut_oei_stereo_44KHz.wav
3	111	4	4	2	I	1	0	1442	0	Ⴔ	cut_n_stereo_44KHz.wav
3	112	2	2	1	C	2	1	1302	1	Ⴏ	cut_oei_stereo_44KHz.wav
3	113	4	4	2	I	1	0	784	0	Ⴔ	cut_n_stereo_44KHz.wav
3	114	1	1	1	C	2	1	1162	1	Ⴒ	cut_s_stereo_44KHz.wav
3	115	2	1	0	C	1	1	1223	1	Ⴏ	cut_s_stereo_44KHz.wav
3	116	3	3	2	I	1	0	779	1	Ⴐ	cut_ui_stereo_44KHz.wav
3	117	4	3	2	I	1	0	721	1	Ⴔ	cut_ui_stereo_44KHz.wav
3	118	2	2	1	C	2	1	1503	1	Ⴏ	cut_oei_stereo_44KHz.wav
3	119	1	2	0	C	1	1	743	1	Ⴒ	cut_oei_stereo_44KHz.wav
3	120	3	4	2	I	2	0	962	0	Ⴐ	cut_n_stereo_44KHz.wav
3	121	1	2	0	C	1	1	875	1	Ⴒ	cut_oei_stereo_44KHz.wav
3	122	2	2	1	C	2	1	1550	1	Ⴏ	cut_oei_stereo_44KHz.wav
3	123	3	4	2	I	2	0	813	0	Ⴐ	cut_n_stereo_44KHz.wav
3	124	4	4	2	I	1	0	1857	0	Ⴔ	cut_n_stereo_44KHz.wav
3	125	1	1	1	C	2	1	859	1	Ⴒ	cut_s_stereo_44KHz.wav
3	126	4	3	2	I	1	0	732	1	Ⴔ	cut_ui_stereo_44KHz.wav
3	127	2	1	0	C	1	1	1569	1	Ⴏ	cut_s_stereo_44KHz.wav
3	128	3	3	2	I	1	0	873	0	Ⴐ	cut_ui_stereo_44KHz.wav
3	129	1	2	0	C	1	1	1879	1	Ⴒ	cut_oei_stereo_44KHz.wav
3	130	4	4	2	I	1	0	821	0	Ⴔ	cut_n_stereo_44KHz.wav
3	131	2	2	1	C	2	1	1356	1	Ⴏ	cut_oei_stereo_44KHz.wav
3	132	3	3	2	I	0	0	0	0	Ⴐ	cut_ui_stereo_44KHz.wav
3	133	1	1	1	C	2	1	1222	1	Ⴒ	cut_s_stereo_44KHz.wav
3	134	4	3	2	I	1	0	566	0	Ⴔ	cut_ui_stereo_44KHz.wav
3	135	3	4	2	I	1	0	829	1	Ⴐ	cut_n_stereo_44KHz.wav
3	136	2	1	0	C	1	1	982	1	Ⴏ	cut_s_stereo_44KHz.wav
3	137	4	4	2	I	1	0	674	0	Ⴔ	cut_n_stereo_44KHz.wav
3	138	3	4	2	I	1	0	886	1	Ⴐ	cut_n_stereo_44KHz.wav
3	139	1	1	1	C	2	1	1027	1	Ⴒ	cut_s_stereo_44KHz.wav
3	140	2	2	1	C	1	0	939	0	Ⴏ	cut_oei_stereo_44KHz.wav
3	141	3	3	2	I	1	0	713	1	Ⴐ	cut_ui_stereo_44KHz.wav
3	142	4	3	2	I	1	0	923	0	Ⴔ	cut_ui_stereo_44KHz.wav
3	143	2	1	0	C	1	1	1201	1	Ⴏ	cut_s_stereo_44KHz.wav
3	144	1	2	0	C	1	1	902	1	Ⴒ	cut_oei_stereo_44KHz.wav
3	145	4	3	2	I	1	0	653	1	Ⴔ	cut_ui_stereo_44KHz.wav
3	146	1	1	1	C	2	1	981	1	Ⴒ	cut_s_stereo_44KHz.wav
3	147	3	4	2	I	1	0	1793	1	Ⴐ	cut_n_stereo_44KHz.wav
3	148	2	2	1	C	2	1	990	1	Ⴏ	cut_oei_stereo_44KHz.wav
3	149	3	3	2	I	2	0	866	0	Ⴐ	cut_ui_stereo_44KHz.wav
3	150	4	4	2	I	1	0	1337	1	Ⴔ	cut_n_stereo_44KHz.wav
3	151	2	1	0	C	1	1	857	1	Ⴏ	cut_s_stereo_44KHz.wav
3	152	1	2	0	C	1	1	628	1	Ⴒ	cut_oei_stereo_44KHz.wav
3	153	3	4	2	I	1	0	792	1	Ⴐ	cut_n_stereo_44KHz.wav
3	154	2	1	0	C	1	1	705	1	Ⴏ	cut_s_stereo_44KHz.wav
3	155	4	3	2	I	2	0	881	1	Ⴔ	cut_ui_stereo_44KHz.wav
3	156	1	1	1	C	2	1	1043	1	Ⴒ	cut_s_stereo_44KHz.wav
3	157	4	4	2	I	1	0	892	1	Ⴔ	cut_n_stereo_44KHz.wav
3	158	3	3	2	I	1	0	700	0	Ⴐ	cut_ui_stereo_44KHz.wav
3	159	1	2	0	C	1	1	913	1	Ⴒ	cut_oei_stereo_44KHz.wav
3	160	2	2	1	C	1	0	700	0	Ⴏ	cut_oei_stereo_44KHz.wav
3	161	3	4	2	I	1	0	1420	0	Ⴐ	cut_n_stereo_44KHz.wav
3	162	4	4	2	I	1	0	718	1	Ⴔ	cut_n_stereo_44KHz.wav
3	163	1	2	0	C	1	1	736	1	Ⴒ	cut_oei_stereo_44KHz.wav
3	164	2	2	1	C	2	1	1103	1	Ⴏ	cut_oei_stereo_44KHz.wav
3	165	3	3	2	I	1	0	826	0	Ⴐ	cut_ui_stereo_44KHz.wav
3	166	4	3	2	I	2	0	1136	0	Ⴔ	cut_ui_stereo_44KHz.wav
3	167	1	1	1	C	2	1	1178	1	Ⴒ	cut_s_stereo_44KHz.wav
3	168	2	1	0	C	1	1	677	1	Ⴏ	cut_s_stereo_44KHz.wav
3	169	4	4	2	I	2	0	778	1	Ⴔ	cut_n_stereo_44KHz.wav
3	170	2	1	0	C	1	1	795	1	Ⴏ	cut_s_stereo_44KHz.wav
3	171	3	3	2	I	1	0	1118	1	Ⴐ	cut_ui_stereo_44KHz.wav
3	172	1	2	0	C	2	0	614	0	Ⴒ	cut_oei_stereo_44KHz.wav
3	173	4	3	2	I	1	0	697	0	Ⴔ	cut_ui_stereo_44KHz.wav
3	174	3	4	2	I	1	0	765	1	Ⴐ	cut_n_stereo_44KHz.wav
3	175	1	1	1	C	2	1	1444	1	Ⴒ	cut_s_stereo_44KHz.wav
3	176	2	2	1	C	2	1	1110	1	Ⴏ	cut_oei_stereo_44KHz.wav
3	177	4	3	2	I	1	0	1213	1	Ⴔ	cut_ui_stereo_44KHz.wav
3	178	1	2	0	C	1	1	1247	1	Ⴒ	cut_oei_stereo_44KHz.wav
3	179	3	4	2	I	1	0	945	0	Ⴐ	cut_n_stereo_44KHz.wav
3	180	2	2	1	C	2	1	1134	1	Ⴏ	cut_oei_stereo_44KHz.wav
3	181	4	4	2	I	1	0	892	0	Ⴔ	cut_n_stereo_44KHz.wav
3	182	1	1	1	C	2	1	1827	1	Ⴒ	cut_s_stereo_44KHz.wav
3	183	3	3	2	I	2	0	753	0	Ⴐ	cut_ui_stereo_44KHz.wav
3	184	2	1	0	C	1	1	923	1	Ⴏ	cut_s_stereo_44KHz.wav
3	185	3	3	2	I	1	0	634	0	Ⴐ	cut_ui_stereo_44KHz.wav
3	186	2	2	1	C	2	1	1526	1	Ⴏ	cut_oei_stereo_44KHz.wav
3	187	4	4	2	I	1	0	1294	0	Ⴔ	cut_n_stereo_44KHz.wav
3	188	1	2	0	C	1	1	751	1	Ⴒ	cut_oei_stereo_44KHz.wav
3	189	3	4	2	I	2	0	777	0	Ⴐ	cut_n_stereo_44KHz.wav
3	190	2	1	0	C	1	1	735	1	Ⴏ	cut_s_stereo_44KHz.wav
3	191	1	1	1	C	2	1	768	1	Ⴒ	cut_s_stereo_44KHz.wav
3	192	4	3	2	I	1	0	800	1	Ⴔ	cut_ui_stereo_44KHz.wav
3	193	2	1	0	C	1	1	719	1	Ⴏ	cut_s_stereo_44KHz.wav
3	194	4	4	2	I	1	0	1059	1	Ⴔ	cut_n_stereo_44KHz.wav
3	195	3	4	2	I	2	0	808	1	Ⴐ	cut_n_stereo_44KHz.wav
3	196	1	2	0	C	1	1	1220	1	Ⴒ	cut_oei_stereo_44KHz.wav
3	197	2	2	1	C	2	1	540	1	Ⴏ	cut_oei_stereo_44KHz.wav
3	198	1	1	1	C	2	1	748	1	Ⴒ	cut_s_stereo_44KHz.wav
3	199	4	3	2	I	2	0	761	0	Ⴔ	cut_ui_stereo_44KHz.wav
3	200	3	3	2	I	1	0	1876	1	Ⴐ	cut_ui_stereo_44KHz.wav
4	1	4	3	2	I	2	0	1364	1	Ⴟ	cut_j_stereo_44KHz.wav
4	2	1	1	1	C	1	0	644	0	Ⴃ	cut_f_stereo_44KHz.wav
4	3	3	4	2	I	1	0	493	0	Ⴜ	cut_r_stereo_44KHz.wav
4	4	2	2	1	C	1	0	487	0	Ⴊ	cut_ei_stereo_44KHz.wav
4	5	3	3	2	I	1	0	523	0	Ⴜ	cut_j_stereo_44KHz.wav
4	6	2	1	0	C	1	1	489	1	Ⴊ	cut_f_stereo_44KHz.wav
4	7	1	2	0	C	1	1	463	1	Ⴃ	cut_ei_stereo_44KHz.wav
4	8	4	4	2	I	1	0	299	1	Ⴟ	cut_r_stereo_44KHz.wav
4	9	2	1	0	C	1	1	540	1	Ⴊ	cut_f_stereo_44KHz.wav
4	10	4	4	2	I	1	0	548	0	Ⴟ	cut_r_stereo_44KHz.wav
4	11	1	2	0	C	1	1	532	1	Ⴃ	cut_ei_stereo_44KHz.wav
4	12	3	3	2	I	1	0	782	0	Ⴜ	cut_j_stereo_44KHz.wav
4	13	2	2	1	C	2	1	1450	1	Ⴊ	cut_ei_stereo_44KHz.wav
4	14	1	1	1	C	2	1	1074	1	Ⴃ	cut_f_stereo_44KHz.wav
4	15	3	4	2	I	2	0	923	0	Ⴜ	cut_r_stereo_44KHz.wav
4	16	4	3	2	I	2	0	995	1	Ⴟ	cut_j_stereo_44KHz.wav
4	17	1	2	0	C	1	1	1261	1	Ⴃ	cut_ei_stereo_44KHz.wav
4	18	2	1	0	C	1	1	742	1	Ⴊ	cut_f_stereo_44KHz.wav
4	19	4	4	2	I	1	0	617	1	Ⴟ	cut_r_stereo_44KHz.wav
4	20	3	4	2	I	1	0	675	0	Ⴜ	cut_r_stereo_44KHz.wav
4	21	1	1	1	C	2	1	997	1	Ⴃ	cut_f_stereo_44KHz.wav
4	22	2	2	1	C	1	0	1816	0	Ⴊ	cut_ei_stereo_44KHz.wav
4	23	3	3	2	I	2	0	855	1	Ⴜ	cut_j_stereo_44KHz.wav
4	24	4	3	2	I	2	0	743	0	Ⴟ	cut_j_stereo_44KHz.wav
4	25	3	3	2	I	1	0	948	0	Ⴜ	cut_j_stereo_44KHz.wav
4	26	4	4	2	I	1	0	579	0	Ⴟ	cut_r_stereo_44KHz.wav
4	27	2	1	0	C	1	1	664	1	Ⴊ	cut_f_stereo_44KHz.wav
4	28	1	2	0	C	1	1	690	1	Ⴃ	cut_ei_stereo_44KHz.wav
4	29	2	2	1	C	2	1	1047	1	Ⴊ	cut_ei_stereo_44KHz.wav
4	30	3	4	2	I	2	0	941	1	Ⴜ	cut_r_stereo_44KHz.wav
4	31	4	3	2	I	1	0	869	0	Ⴟ	cut_j_stereo_44KHz.wav
4	32	1	1	1	C	2	1	673	1	Ⴃ	cut_f_stereo_44KHz.wav
4	33	3	3	2	I	2	0	874	1	Ⴜ	cut_j_stereo_44KHz.wav
4	34	1	2	0	C	1	1	1039	1	Ⴃ	cut_ei_stereo_44KHz.wav
4	35	4	4	2	I	1	0	710	0	Ⴟ	cut_r_stereo_44KHz.wav
4	36	2	1	0	C	1	1	1318	1	Ⴊ	cut_f_stereo_44KHz.wav
4	37	3	4	2	I	1	0	1061	1	Ⴜ	cut_r_stereo_44KHz.wav
4	38	1	1	1	C	2	1	845	1	Ⴃ	cut_f_stereo_44KHz.wav
4	39	2	2	1	C	2	1	1315	1	Ⴊ	cut_ei_stereo_44KHz.wav
4	40	4	3	2	I	2	0	633	0	Ⴟ	cut_j_stereo_44KHz.wav
4	41	2	1	0	C	1	1	666	1	Ⴊ	cut_f_stereo_44KHz.wav
4	42	1	2	0	C	2	0	668	0	Ⴃ	cut_ei_stereo_44KHz.wav
4	43	3	4	2	I	1	0	678	0	Ⴜ	cut_r_stereo_44KHz.wav
4	44	4	4	2	I	1	0	679	0	Ⴟ	cut_r_stereo_44KHz.wav
4	45	1	1	1	C	2	1	805	1	Ⴃ	cut_f_stereo_44KHz.wav
4	46	3	3	2	I	2	0	260	0	Ⴜ	cut_j_stereo_44KHz.wav
4	47	4	3	2	I	2	0	566	0	Ⴟ	cut_j_stereo_44KHz.wav
4	48	2	2	1	C	2	1	463	1	Ⴊ	cut_ei_stereo_44KHz.wav
4	49	4	4	2	I	2	0	458	1	Ⴟ	cut_r_stereo_44KHz.wav
4	50	3	3	2	I	2	0	540	1	Ⴜ	cut_j_stereo_44KHz.wav
4	51	1	1	1	C	2	1	659	1	Ⴃ	cut_f_stereo_44KHz.wav
4	52	2	2	1	C	2	1	779	1	Ⴊ	cut_ei_stereo_44KHz.wav
4	53	3	4	2	I	2	0	1031	0	Ⴜ	cut_r_stereo_44KHz.wav
4	54	4	3	2	I	1	0	532	1	Ⴟ	cut_j_stereo_44KHz.wav
4	55	2	1	0	C	1	1	660	1	Ⴊ	cut_f_stereo_44KHz.wav
4	56	1	2	0	C	1	1	854	1	Ⴃ	cut_ei_stereo_44KHz.wav
4	57	3	3	2	I	1	0	613	1	Ⴜ	cut_j_stereo_44KHz.wav
4	58	2	1	0	C	1	1	1248	1	Ⴊ	cut_f_stereo_44KHz.wav
4	59	4	4	2	I	1	0	699	0	Ⴟ	cut_r_stereo_44KHz.wav
4	60	1	2	0	C	2	0	456	0	Ⴃ	cut_ei_stereo_44KHz.wav
4	61	4	3	2	I	1	0	629	1	Ⴟ	cut_j_stereo_44KHz.wav
4	62	1	1	1	C	2	1	842	1	Ⴃ	cut_f_stereo_44KHz.wav
4	63	3	4	2	I	1	0	724	0	Ⴜ	cut_r_stereo_44KHz.wav
4	64	2	2	1	C	2	1	970	1	Ⴊ	cut_ei_stereo_44KHz.wav
4	65	3	4	2	I	2	0	642	1	Ⴜ	cut_r_stereo_44KHz.wav
4	66	2	2	1	C	2	1	1515	1	Ⴊ	cut_ei_stereo_44KHz.wav
4	67	1	1	1	C	2	1	795	1	Ⴃ	cut_f_stereo_44KHz.wav
4	68	4	4	2	I	2	0	697	0	Ⴟ	cut_r_stereo_44KHz.wav
4	69	1	2	0	C	2	0	792	0	Ⴃ	cut_ei_stereo_44KHz.wav
4	70	3	3	2	I	2	0	637	0	Ⴜ	cut_j_stereo_44KHz.wav
4	71	2	1	0	C	1	1	678	1	Ⴊ	cut_f_stereo_44KHz.wav
4	72	4	3	2	I	2	0	942	0	Ⴟ	cut_j_stereo_44KHz.wav
4	73	1	1	1	C	2	1	1098	1	Ⴃ	cut_f_stereo_44KHz.wav
4	74	2	1	0	C	1	1	727	1	Ⴊ	cut_f_stereo_44KHz.wav
4	75	4	3	2	I	1	0	863	1	Ⴟ	cut_j_stereo_44KHz.wav
4	76	3	3	2	I	2	0	660	1	Ⴜ	cut_j_stereo_44KHz.wav
4	77	2	2	1	C	2	1	851	1	Ⴊ	cut_ei_stereo_44KHz.wav
4	78	4	4	2	I	2	0	1078	1	Ⴟ	cut_r_stereo_44KHz.wav
4	79	3	4	2	I	2	0	563	0	Ⴜ	cut_r_stereo_44KHz.wav
4	80	1	2	0	C	2	0	784	0	Ⴃ	cut_ei_stereo_44KHz.wav
4	81	2	1	0	C	1	1	1446	1	Ⴊ	cut_f_stereo_44KHz.wav
4	82	1	1	1	C	2	1	752	1	Ⴃ	cut_f_stereo_44KHz.wav
4	83	4	4	2	I	2	0	859	0	Ⴟ	cut_r_stereo_44KHz.wav
4	84	3	4	2	I	1	0	639	0	Ⴜ	cut_r_stereo_44KHz.wav
4	85	4	3	2	I	1	0	796	1	Ⴟ	cut_j_stereo_44KHz.wav
4	86	2	2	1	C	2	1	1775	1	Ⴊ	cut_ei_stereo_44KHz.wav
4	87	1	2	0	C	1	1	758	1	Ⴃ	cut_ei_stereo_44KHz.wav
4	88	3	3	2	I	1	0	1221	1	Ⴜ	cut_j_stereo_44KHz.wav
4	89	2	2	1	C	2	1	789	1	Ⴊ	cut_ei_stereo_44KHz.wav
4	90	3	4	2	I	2	0	909	1	Ⴜ	cut_r_stereo_44KHz.wav
4	91	1	2	0	C	2	0	579	0	Ⴃ	cut_ei_stereo_44KHz.wav
4	92	4	4	2	I	2	0	736	1	Ⴟ	cut_r_stereo_44KHz.wav
4	93	3	3	2	I	1	0	1594	0	Ⴜ	cut_j_stereo_44KHz.wav
4	94	4	3	2	I	2	0	672	1	Ⴟ	cut_j_stereo_44KHz.wav
4	95	2	1	0	C	1	1	792	1	Ⴊ	cut_f_stereo_44KHz.wav
4	96	1	1	1	C	2	1	1224	1	Ⴃ	cut_f_stereo_44KHz.wav
4	97	3	3	2	I	2	0	665	0	Ⴜ	cut_j_stereo_44KHz.wav
4	98	4	4	2	I	1	0	984	1	Ⴟ	cut_r_stereo_44KHz.wav
4	99	2	2	1	C	2	1	848	1	Ⴊ	cut_ei_stereo_44KHz.wav
4	100	1	2	0	C	1	1	689	1	Ⴃ	cut_ei_stereo_44KHz.wav
4	101	4	3	2	I	2	0	834	1	Ⴟ	cut_j_stereo_44KHz.wav
4	102	1	1	1	C	2	1	914	1	Ⴃ	cut_f_stereo_44KHz.wav
4	103	3	4	2	I	2	0	572	0	Ⴜ	cut_r_stereo_44KHz.wav
4	104	2	1	0	C	1	1	905	1	Ⴊ	cut_f_stereo_44KHz.wav
4	105	3	4	2	I	2	0	847	0	Ⴜ	cut_r_stereo_44KHz.wav
4	106	2	1	0	C	1	1	642	1	Ⴊ	cut_f_stereo_44KHz.wav
4	107	1	2	0	C	2	0	568	0	Ⴃ	cut_ei_stereo_44KHz.wav
4	108	4	4	2	I	2	0	791	0	Ⴟ	cut_r_stereo_44KHz.wav
4	109	2	2	1	C	1	0	1143	0	Ⴊ	cut_ei_stereo_44KHz.wav
4	110	3	3	2	I	1	0	654	0	Ⴜ	cut_j_stereo_44KHz.wav
4	111	4	3	2	I	2	0	962	1	Ⴟ	cut_j_stereo_44KHz.wav
4	112	1	1	1	C	2	1	1191	1	Ⴃ	cut_f_stereo_44KHz.wav
4	113	4	3	2	I	2	0	718	1	Ⴟ	cut_j_stereo_44KHz.wav
4	114	3	4	2	I	2	0	792	1	Ⴜ	cut_r_stereo_44KHz.wav
4	115	1	2	0	C	2	0	1443	0	Ⴃ	cut_ei_stereo_44KHz.wav
4	116	2	2	1	C	2	1	919	1	Ⴊ	cut_ei_stereo_44KHz.wav
4	117	4	4	2	I	2	0	581	1	Ⴟ	cut_r_stereo_44KHz.wav
4	118	2	1	0	C	1	1	822	1	Ⴊ	cut_f_stereo_44KHz.wav
4	119	3	3	2	I	1	0	791	0	Ⴜ	cut_j_stereo_44KHz.wav
4	120	1	1	1	C	2	1	982	1	Ⴃ	cut_f_stereo_44KHz.wav
4	121	3	4	2	I	2	0	663	1	Ⴜ	cut_r_stereo_44KHz.wav
4	122	1	2	0	C	1	1	922	1	Ⴃ	cut_ei_stereo_44KHz.wav
4	123	2	2	1	C	2	1	803	1	Ⴊ	cut_ei_stereo_44KHz.wav
4	124	4	4	2	I	1	0	857	0	Ⴟ	cut_r_stereo_44KHz.wav
4	125	1	1	1	C	2	1	766	1	Ⴃ	cut_f_stereo_44KHz.wav
4	126	2	1	0	C	1	1	649	1	Ⴊ	cut_f_stereo_44KHz.wav
4	127	4	3	2	I	1	0	801	0	Ⴟ	cut_j_stereo_44KHz.wav
4	128	3	3	2	I	1	0	851	1	Ⴜ	cut_j_stereo_44KHz.wav
4	129	1	2	0	C	1	1	1418	1	Ⴃ	cut_ei_stereo_44KHz.wav
4	130	4	4	2	I	1	0	1443	0	Ⴟ	cut_r_stereo_44KHz.wav
4	131	2	1	0	C	1	1	772	1	Ⴊ	cut_f_stereo_44KHz.wav
4	132	3	4	2	I	2	0	914	1	Ⴜ	cut_r_stereo_44KHz.wav
4	133	4	3	2	I	1	0	1016	0	Ⴟ	cut_j_stereo_44KHz.wav
4	134	1	1	1	C	2	1	1392	1	Ⴃ	cut_f_stereo_44KHz.wav
4	135	2	2	1	C	2	1	868	1	Ⴊ	cut_ei_stereo_44KHz.wav
4	136	3	3	2	I	2	0	784	1	Ⴜ	cut_j_stereo_44KHz.wav
4	137	2	2	1	C	2	1	1062	1	Ⴊ	cut_ei_stereo_44KHz.wav
4	138	1	2	0	C	1	1	1144	1	Ⴃ	cut_ei_stereo_44KHz.wav
4	139	4	4	2	I	2	0	667	1	Ⴟ	cut_r_stereo_44KHz.wav
4	140	3	3	2	I	2	0	616	1	Ⴜ	cut_j_stereo_44KHz.wav
4	141	4	3	2	I	2	0	636	1	Ⴟ	cut_j_stereo_44KHz.wav
4	142	2	1	0	C	1	1	1068	1	Ⴊ	cut_f_stereo_44KHz.wav
4	143	1	1	1	C	2	1	701	1	Ⴃ	cut_f_stereo_44KHz.wav
4	144	3	4	2	I	2	0	623	1	Ⴜ	cut_r_stereo_44KHz.wav
4	145	2	2	1	C	2	1	959	1	Ⴊ	cut_ei_stereo_44KHz.wav
4	146	4	4	2	I	2	0	548	0	Ⴟ	cut_r_stereo_44KHz.wav
4	147	1	2	0	C	1	1	1116	1	Ⴃ	cut_ei_stereo_44KHz.wav
4	148	3	3	2	I	1	0	727	0	Ⴜ	cut_j_stereo_44KHz.wav
4	149	2	1	0	C	1	1	666	1	Ⴊ	cut_f_stereo_44KHz.wav
4	150	4	3	2	I	2	0	677	0	Ⴟ	cut_j_stereo_44KHz.wav
4	151	1	1	1	C	2	1	1553	1	Ⴃ	cut_f_stereo_44KHz.wav
4	152	3	4	2	I	2	0	567	1	Ⴜ	cut_r_stereo_44KHz.wav
4	153	2	1	0	C	1	1	838	1	Ⴊ	cut_f_stereo_44KHz.wav
4	154	4	4	2	I	1	0	716	1	Ⴟ	cut_r_stereo_44KHz.wav
4	155	3	3	2	I	2	0	1930	0	Ⴜ	cut_j_stereo_44KHz.wav
4	156	1	2	0	C	1	1	951	1	Ⴃ	cut_ei_stereo_44KHz.wav
4	157	3	4	2	I	1	0	1887	1	Ⴜ	cut_r_stereo_44KHz.wav
4	158	2	2	1	C	2	1	1044	1	Ⴊ	cut_ei_stereo_44KHz.wav
4	159	1	1	1	C	2	1	1231	1	Ⴃ	cut_f_stereo_44KHz.wav
4	160	4	3	2	I	2	0	676	1	Ⴟ	cut_j_stereo_44KHz.wav
4	161	3	4	2	I	2	0	704	1	Ⴜ	cut_r_stereo_44KHz.wav
4	162	2	2	1	C	2	1	1221	1	Ⴊ	cut_ei_stereo_44KHz.wav
4	163	1	1	1	C	1	0	1463	0	Ⴃ	cut_f_stereo_44KHz.wav
4	164	4	4	2	I	2	0	776	0	Ⴟ	cut_r_stereo_44KHz.wav
4	165	3	3	2	I	2	0	599	0	Ⴜ	cut_j_stereo_44KHz.wav
4	166	4	3	2	I	2	0	1030	1	Ⴟ	cut_j_stereo_44KHz.wav
4	167	1	2	0	C	1	1	940	1	Ⴃ	cut_ei_stereo_44KHz.wav
4	168	2	1	0	C	1	1	746	1	Ⴊ	cut_f_stereo_44KHz.wav
4	169	1	1	1	C	2	1	943	1	Ⴃ	cut_f_stereo_44KHz.wav
4	170	3	3	2	I	2	0	1131	1	Ⴜ	cut_j_stereo_44KHz.wav
4	171	4	3	2	I	2	0	551	0	Ⴟ	cut_j_stereo_44KHz.wav
4	172	2	1	0	C	1	1	749	1	Ⴊ	cut_f_stereo_44KHz.wav
4	173	3	4	2	I	1	0	835	0	Ⴜ	cut_r_stereo_44KHz.wav
4	174	4	4	2	I	2	0	1441	0	Ⴟ	cut_r_stereo_44KHz.wav
4	175	1	2	0	C	1	1	1052	1	Ⴃ	cut_ei_stereo_44KHz.wav
4	176	2	2	1	C	2	1	782	1	Ⴊ	cut_ei_stereo_44KHz.wav
4	177	4	3	2	I	2	0	648	1	Ⴟ	cut_j_stereo_44KHz.wav
4	178	1	2	0	C	1	1	872	1	Ⴃ	cut_ei_stereo_44KHz.wav
4	179	3	3	2	I	1	0	658	1	Ⴜ	cut_j_stereo_44KHz.wav
4	180	2	2	1	C	2	1	1433	1	Ⴊ	cut_ei_stereo_44KHz.wav
4	181	1	1	1	C	2	1	1008	1	Ⴃ	cut_f_stereo_44KHz.wav
4	182	2	1	0	C	1	1	975	1	Ⴊ	cut_f_stereo_44KHz.wav
4	183	3	4	2	I	2	0	1360	0	Ⴜ	cut_r_stereo_44KHz.wav
4	184	4	4	2	I	2	0	952	0	Ⴟ	cut_r_stereo_44KHz.wav
4	185	1	2	0	C	1	1	799	1	Ⴃ	cut_ei_stereo_44KHz.wav
4	186	2	1	0	C	1	1	796	1	Ⴊ	cut_f_stereo_44KHz.wav
4	187	4	3	2	I	2	0	1377	1	Ⴟ	cut_j_stereo_44KHz.wav
4	188	3	3	2	I	1	0	1137	1	Ⴜ	cut_j_stereo_44KHz.wav
4	189	1	1	1	C	2	1	1540	1	Ⴃ	cut_f_stereo_44KHz.wav
4	190	4	4	2	I	2	0	685	1	Ⴟ	cut_r_stereo_44KHz.wav
4	191	2	2	1	C	2	1	1848	1	Ⴊ	cut_ei_stereo_44KHz.wav
4	192	3	4	2	I	2	0	856	0	Ⴜ	cut_r_stereo_44KHz.wav
4	193	2	2	1	C	2	1	718	1	Ⴊ	cut_ei_stereo_44KHz.wav
4	194	1	1	1	C	2	1	731	1	Ⴃ	cut_f_stereo_44KHz.wav
4	195	4	4	2	I	2	0	579	0	Ⴟ	cut_r_stereo_44KHz.wav
4	196	3	4	2	I	1	0	1304	1	Ⴜ	cut_r_stereo_44KHz.wav
4	197	2	1	0	C	1	1	1255	1	Ⴊ	cut_f_stereo_44KHz.wav
4	198	1	2	0	C	1	1	1185	1	Ⴃ	cut_ei_stereo_44KHz.wav
4	199	4	3	2	I	2	0	1174	0	Ⴟ	cut_j_stereo_44KHz.wav
4	200	3	3	2	I	2	0	577	1	Ⴜ	cut_j_stereo_44KHz.wav
