block	trial	Vstim	Astim	match	C/I	resp	result	RT	fb	V-file	A-file
RL

0	1	2	4	0	C	2	1	1246	1	poli_8sides 23_whiteLine3.jpg	Practice4_b26_stereo_44KHz.wav
0	2	1	2	0	C	1	0	979	0	poli_8sides 21_whiteLine3.jpg	Practice1_b27_cut1_stereo_44KHz.wav
0	3	1	1	1	C	1	1	975	1	poli_8sides 21_whiteLine3.jpg	Practice2_b27_cut2_stereo_44KHz.wav
0	4	2	3	1	C	2	0	1508	0	poli_8sides 23_whiteLine3.jpg	Practice3_b26_cut1_stereo_44KHz.wav
0	5	2	4	0	C	2	1	1300	1	poli_8sides 23_whiteLine3.jpg	Practice4_b26_stereo_44KHz.wav
0	6	1	2	0	C	2	1	962	1	poli_8sides 21_whiteLine3.jpg	Practice1_b27_cut1_stereo_44KHz.wav
0	7	2	3	1	C	2	0	982	0	poli_8sides 23_whiteLine3.jpg	Practice3_b26_cut1_stereo_44KHz.wav
0	8	1	1	1	C	2	0	1317	0	poli_8sides 21_whiteLine3.jpg	Practice2_b27_cut2_stereo_44KHz.wav
0	9	1	2	0	C	1	0	1159	0	poli_8sides 21_whiteLine3.jpg	Practice1_b27_cut1_stereo_44KHz.wav
0	10	1	1	1	C	1	1	1285	1	poli_8sides 21_whiteLine3.jpg	Practice2_b27_cut2_stereo_44KHz.wav
0	11	2	4	0	C	1	0	1319	0	poli_8sides 23_whiteLine3.jpg	Practice4_b26_stereo_44KHz.wav
0	12	2	3	1	C	1	1	959	1	poli_8sides 23_whiteLine3.jpg	Practice3_b26_cut1_stereo_44KHz.wav
0	13	1	1	1	C	1	1	1748	1	poli_8sides 21_whiteLine3.jpg	Practice2_b27_cut2_stereo_44KHz.wav
0	14	2	3	1	C	2	0	1334	0	poli_8sides 23_whiteLine3.jpg	Practice3_b26_cut1_stereo_44KHz.wav
0	15	1	2	0	C	2	1	993	1	poli_8sides 21_whiteLine3.jpg	Practice1_b27_cut1_stereo_44KHz.wav
0	16	2	4	0	C	2	1	1233	1	poli_8sides 23_whiteLine3.jpg	Practice4_b26_stereo_44KHz.wav
0	17	2	4	0	C	2	1	1051	1	poli_8sides 23_whiteLine3.jpg	Practice4_b26_stereo_44KHz.wav
0	18	2	3	1	C	1	1	1608	1	poli_8sides 23_whiteLine3.jpg	Practice3_b26_cut1_stereo_44KHz.wav
0	19	1	1	1	C	1	1	1207	1	poli_8sides 21_whiteLine3.jpg	Practice2_b27_cut2_stereo_44KHz.wav
0	20	1	2	0	C	2	1	848	1	poli_8sides 21_whiteLine3.jpg	Practice1_b27_cut1_stereo_44KHz.wav
0	21	2	3	1	C	1	1	1133	1	poli_8sides 23_whiteLine3.jpg	Practice3_b26_cut1_stereo_44KHz.wav
0	22	1	1	1	C	1	1	1150	1	poli_8sides 21_whiteLine3.jpg	Practice2_b27_cut2_stereo_44KHz.wav
0	23	2	4	0	C	0	0	0	0	poli_8sides 23_whiteLine3.jpg	Practice4_b26_stereo_44KHz.wav
0	24	1	2	0	C	2	1	782	1	poli_8sides 21_whiteLine3.jpg	Practice1_b27_cut1_stereo_44KHz.wav
0	25	2	3	1	C	1	1	1024	1	poli_8sides 23_whiteLine3.jpg	Practice3_b26_cut1_stereo_44KHz.wav
0	26	1	2	0	C	2	1	758	1	poli_8sides 21_whiteLine3.jpg	Practice1_b27_cut1_stereo_44KHz.wav
0	27	2	4	0	C	2	1	677	1	poli_8sides 23_whiteLine3.jpg	Practice4_b26_stereo_44KHz.wav
0	28	1	1	1	C	1	1	1366	1	poli_8sides 21_whiteLine3.jpg	Practice2_b27_cut2_stereo_44KHz.wav
0	29	1	2	0	C	2	1	785	1	poli_8sides 21_whiteLine3.jpg	Practice1_b27_cut1_stereo_44KHz.wav
0	30	2	4	0	C	1	0	765	0	poli_8sides 23_whiteLine3.jpg	Practice4_b26_stereo_44KHz.wav
avg_resp = 1100
1	1	2	2	1	C	2	0	961	0	poli_8sides 7_whiteLine3.jpg	MediumShort_e22_cut1_stereo_44KHz.wav
1	2	3	3	2	I	2	0	576	0	poli_8sides 4_whiteLine3.jpg	MediumShort_b10_cut1_MS_stereo_44KHz.wav
1	3	4	4	2	I	2	0	682	1	poli_8sides 13_whiteLine3.jpg	MediumShort_b16_cut3_MS_stereo_44KHz.wav
1	4	1	2	0	C	2	1	787	1	poli_8sides 16_whiteLine3.jpg	MediumShort_e22_cut1_stereo_44KHz.wav
1	5	2	1	0	C	2	1	716	1	poli_8sides 7_whiteLine3.jpg	MediumShort_e16_cut1_stereo_44KHz.wav
1	6	1	1	1	C	2	0	1116	0	poli_8sides 16_whiteLine3.jpg	MediumShort_e16_cut1_stereo_44KHz.wav
1	7	3	4	2	I	2	0	777	1	poli_8sides 4_whiteLine3.jpg	MediumShort_b16_cut3_MS_stereo_44KHz.wav
1	8	4	3	2	I	2	0	700	1	poli_8sides 13_whiteLine3.jpg	MediumShort_b10_cut1_MS_stereo_44KHz.wav
1	9	2	2	1	C	2	0	1052	0	poli_8sides 7_whiteLine3.jpg	MediumShort_e22_cut1_stereo_44KHz.wav
1	10	3	4	2	I	2	0	973	0	poli_8sides 4_whiteLine3.jpg	MediumShort_b16_cut3_MS_stereo_44KHz.wav
1	11	1	2	0	C	2	1	1110	1	poli_8sides 16_whiteLine3.jpg	MediumShort_e22_cut1_stereo_44KHz.wav
1	12	4	4	2	I	2	0	847	1	poli_8sides 13_whiteLine3.jpg	MediumShort_b16_cut3_MS_stereo_44KHz.wav
1	13	1	1	1	C	1	1	780	1	poli_8sides 16_whiteLine3.jpg	MediumShort_e16_cut1_stereo_44KHz.wav
1	14	2	1	0	C	2	1	1349	1	poli_8sides 7_whiteLine3.jpg	MediumShort_e16_cut1_stereo_44KHz.wav
1	15	4	3	2	I	2	0	978	1	poli_8sides 13_whiteLine3.jpg	MediumShort_b10_cut1_MS_stereo_44KHz.wav
1	16	3	3	2	I	1	0	1262	1	poli_8sides 4_whiteLine3.jpg	MediumShort_b10_cut1_MS_stereo_44KHz.wav
1	17	4	4	2	I	1	0	1335	0	poli_8sides 13_whiteLine3.jpg	MediumShort_b16_cut3_MS_stereo_44KHz.wav
1	18	3	4	2	I	1	0	1225	0	poli_8sides 4_whiteLine3.jpg	MediumShort_b16_cut3_MS_stereo_44KHz.wav
1	19	2	2	1	C	1	1	1396	1	poli_8sides 7_whiteLine3.jpg	MediumShort_e22_cut1_stereo_44KHz.wav
1	20	1	2	0	C	2	1	1294	1	poli_8sides 16_whiteLine3.jpg	MediumShort_e22_cut1_stereo_44KHz.wav
1	21	3	3	2	I	2	0	1360	0	poli_8sides 4_whiteLine3.jpg	MediumShort_b10_cut1_MS_stereo_44KHz.wav
1	22	1	1	1	C	1	1	1021	1	poli_8sides 16_whiteLine3.jpg	MediumShort_e16_cut1_stereo_44KHz.wav
1	23	2	1	0	C	2	1	700	1	poli_8sides 7_whiteLine3.jpg	MediumShort_e16_cut1_stereo_44KHz.wav
1	24	4	3	2	I	2	0	1533	0	poli_8sides 13_whiteLine3.jpg	MediumShort_b10_cut1_MS_stereo_44KHz.wav
1	25	2	1	0	C	2	1	759	1	poli_8sides 7_whiteLine3.jpg	MediumShort_e16_cut1_stereo_44KHz.wav
1	26	4	3	2	I	1	0	1936	1	poli_8sides 13_whiteLine3.jpg	MediumShort_b10_cut1_MS_stereo_44KHz.wav
1	27	1	2	0	C	2	1	1157	1	poli_8sides 16_whiteLine3.jpg	MediumShort_e22_cut1_stereo_44KHz.wav
1	28	3	4	2	I	2	0	1602	0	poli_8sides 4_whiteLine3.jpg	MediumShort_b16_cut3_MS_stereo_44KHz.wav
1	29	1	1	1	C	1	1	881	1	poli_8sides 16_whiteLine3.jpg	MediumShort_e16_cut1_stereo_44KHz.wav
1	30	2	2	1	C	1	1	966	1	poli_8sides 7_whiteLine3.jpg	MediumShort_e22_cut1_stereo_44KHz.wav
1	31	4	4	2	I	1	0	1232	0	poli_8sides 13_whiteLine3.jpg	MediumShort_b16_cut3_MS_stereo_44KHz.wav
1	32	3	3	2	I	2	0	1616	0	poli_8sides 4_whiteLine3.jpg	MediumShort_b10_cut1_MS_stereo_44KHz.wav
1	33	4	3	2	I	1	0	1391	0	poli_8sides 13_whiteLine3.jpg	MediumShort_b10_cut1_MS_stereo_44KHz.wav
1	34	1	1	1	C	2	0	1218	0	poli_8sides 16_whiteLine3.jpg	MediumShort_e16_cut1_stereo_44KHz.wav
1	35	3	3	2	I	2	0	1304	0	poli_8sides 4_whiteLine3.jpg	MediumShort_b10_cut1_MS_stereo_44KHz.wav
1	36	2	2	1	C	1	1	1225	1	poli_8sides 7_whiteLine3.jpg	MediumShort_e22_cut1_stereo_44KHz.wav
1	37	3	4	2	I	2	0	1115	0	poli_8sides 4_whiteLine3.jpg	MediumShort_b16_cut3_MS_stereo_44KHz.wav
1	38	1	2	0	C	2	1	955	1	poli_8sides 16_whiteLine3.jpg	MediumShort_e22_cut1_stereo_44KHz.wav
1	39	4	4	2	I	2	0	1170	0	poli_8sides 13_whiteLine3.jpg	MediumShort_b16_cut3_MS_stereo_44KHz.wav
1	40	2	1	0	C	2	1	894	1	poli_8sides 7_whiteLine3.jpg	MediumShort_e16_cut1_stereo_44KHz.wav
1	41	1	1	1	C	1	1	673	1	poli_8sides 16_whiteLine3.jpg	MediumShort_e16_cut1_stereo_44KHz.wav
1	42	2	1	0	C	1	0	1136	0	poli_8sides 7_whiteLine3.jpg	MediumShort_e16_cut1_stereo_44KHz.wav
1	43	3	4	2	I	2	0	1362	1	poli_8sides 4_whiteLine3.jpg	MediumShort_b16_cut3_MS_stereo_44KHz.wav
1	44	4	4	2	I	1	0	970	1	poli_8sides 13_whiteLine3.jpg	MediumShort_b16_cut3_MS_stereo_44KHz.wav
1	45	1	2	0	C	2	1	1009	1	poli_8sides 16_whiteLine3.jpg	MediumShort_e22_cut1_stereo_44KHz.wav
1	46	4	3	2	I	2	0	1175	0	poli_8sides 13_whiteLine3.jpg	MediumShort_b10_cut1_MS_stereo_44KHz.wav
1	47	3	3	2	I	1	0	1188	1	poli_8sides 4_whiteLine3.jpg	MediumShort_b10_cut1_MS_stereo_44KHz.wav
1	48	2	2	1	C	1	1	981	1	poli_8sides 7_whiteLine3.jpg	MediumShort_e22_cut1_stereo_44KHz.wav
1	49	1	1	1	C	1	1	934	1	poli_8sides 16_whiteLine3.jpg	MediumShort_e16_cut1_stereo_44KHz.wav
1	50	2	2	1	C	1	1	971	1	poli_8sides 7_whiteLine3.jpg	MediumShort_e22_cut1_stereo_44KHz.wav
1	51	3	3	2	I	2	0	1977	0	poli_8sides 4_whiteLine3.jpg	MediumShort_b10_cut1_MS_stereo_44KHz.wav
1	52	4	4	2	I	2	0	1285	1	poli_8sides 13_whiteLine3.jpg	MediumShort_b16_cut3_MS_stereo_44KHz.wav
1	53	3	4	2	I	1	0	1216	0	poli_8sides 4_whiteLine3.jpg	MediumShort_b16_cut3_MS_stereo_44KHz.wav
1	54	2	1	0	C	2	1	1005	1	poli_8sides 7_whiteLine3.jpg	MediumShort_e16_cut1_stereo_44KHz.wav
1	55	1	2	0	C	2	1	1033	1	poli_8sides 16_whiteLine3.jpg	MediumShort_e22_cut1_stereo_44KHz.wav
1	56	4	3	2	I	2	0	1205	1	poli_8sides 13_whiteLine3.jpg	MediumShort_b10_cut1_MS_stereo_44KHz.wav
1	57	3	4	2	I	2	0	1690	0	poli_8sides 4_whiteLine3.jpg	MediumShort_b16_cut3_MS_stereo_44KHz.wav
1	58	4	4	2	I	2	0	1186	1	poli_8sides 13_whiteLine3.jpg	MediumShort_b16_cut3_MS_stereo_44KHz.wav
1	59	2	2	1	C	1	1	1495	1	poli_8sides 7_whiteLine3.jpg	MediumShort_e22_cut1_stereo_44KHz.wav
1	60	1	1	1	C	1	1	932	1	poli_8sides 16_whiteLine3.jpg	MediumShort_e16_cut1_stereo_44KHz.wav
1	61	2	1	0	C	2	1	713	1	poli_8sides 7_whiteLine3.jpg	MediumShort_e16_cut1_stereo_44KHz.wav
1	62	4	3	2	I	2	0	1334	0	poli_8sides 13_whiteLine3.jpg	MediumShort_b10_cut1_MS_stereo_44KHz.wav
1	63	3	3	2	I	2	0	1052	1	poli_8sides 4_whiteLine3.jpg	MediumShort_b10_cut1_MS_stereo_44KHz.wav
1	64	1	2	0	C	2	1	895	1	poli_8sides 16_whiteLine3.jpg	MediumShort_e22_cut1_stereo_44KHz.wav
1	65	3	3	2	I	2	0	1302	1	poli_8sides 4_whiteLine3.jpg	MediumShort_b10_cut1_MS_stereo_44KHz.wav
1	66	4	3	2	I	1	0	875	0	poli_8sides 13_whiteLine3.jpg	MediumShort_b10_cut1_MS_stereo_44KHz.wav
1	67	2	2	1	C	1	1	1092	1	poli_8sides 7_whiteLine3.jpg	MediumShort_e22_cut1_stereo_44KHz.wav
1	68	1	1	1	C	1	1	1560	1	poli_8sides 16_whiteLine3.jpg	MediumShort_e16_cut1_stereo_44KHz.wav
1	69	3	4	2	I	0	0	0	0	poli_8sides 4_whiteLine3.jpg	MediumShort_b16_cut3_MS_stereo_44KHz.wav
1	70	2	1	0	C	2	1	1441	1	poli_8sides 7_whiteLine3.jpg	MediumShort_e16_cut1_stereo_44KHz.wav
1	71	1	2	0	C	2	1	1072	1	poli_8sides 16_whiteLine3.jpg	MediumShort_e22_cut1_stereo_44KHz.wav
1	72	4	4	2	I	2	0	1246	1	poli_8sides 13_whiteLine3.jpg	MediumShort_b16_cut3_MS_stereo_44KHz.wav
1	73	2	1	0	C	2	1	1136	1	poli_8sides 7_whiteLine3.jpg	MediumShort_e16_cut1_stereo_44KHz.wav
1	74	1	1	1	C	1	1	802	1	poli_8sides 16_whiteLine3.jpg	MediumShort_e16_cut1_stereo_44KHz.wav
1	75	4	3	2	I	2	0	1111	1	poli_8sides 13_whiteLine3.jpg	MediumShort_b10_cut1_MS_stereo_44KHz.wav
1	76	3	4	2	I	2	0	1349	1	poli_8sides 4_whiteLine3.jpg	MediumShort_b16_cut3_MS_stereo_44KHz.wav
1	77	4	4	2	I	1	0	1299	1	poli_8sides 13_whiteLine3.jpg	MediumShort_b16_cut3_MS_stereo_44KHz.wav
1	78	2	2	1	C	1	1	1329	1	poli_8sides 7_whiteLine3.jpg	MediumShort_e22_cut1_stereo_44KHz.wav
1	79	3	3	2	I	2	0	1070	1	poli_8sides 4_whiteLine3.jpg	MediumShort_b10_cut1_MS_stereo_44KHz.wav
1	80	1	2	0	C	2	1	846	1	poli_8sides 16_whiteLine3.jpg	MediumShort_e22_cut1_stereo_44KHz.wav
1	81	2	2	1	C	1	1	838	1	poli_8sides 7_whiteLine3.jpg	MediumShort_e22_cut1_stereo_44KHz.wav
1	82	3	3	2	I	2	0	1120	0	poli_8sides 4_whiteLine3.jpg	MediumShort_b10_cut1_MS_stereo_44KHz.wav
1	83	4	3	2	I	2	0	933	1	poli_8sides 13_whiteLine3.jpg	MediumShort_b10_cut1_MS_stereo_44KHz.wav
1	84	1	2	0	C	2	1	792	1	poli_8sides 16_whiteLine3.jpg	MediumShort_e22_cut1_stereo_44KHz.wav
1	85	4	4	2	I	2	0	1542	1	poli_8sides 13_whiteLine3.jpg	MediumShort_b16_cut3_MS_stereo_44KHz.wav
1	86	2	1	0	C	2	1	1619	1	poli_8sides 7_whiteLine3.jpg	MediumShort_e16_cut1_stereo_44KHz.wav
1	87	3	4	2	I	0	0	0	0	poli_8sides 4_whiteLine3.jpg	MediumShort_b16_cut3_MS_stereo_44KHz.wav
1	88	1	1	1	C	2	0	1531	0	poli_8sides 16_whiteLine3.jpg	MediumShort_e16_cut1_stereo_44KHz.wav
1	89	2	1	0	C	2	1	794	1	poli_8sides 7_whiteLine3.jpg	MediumShort_e16_cut1_stereo_44KHz.wav
1	90	3	4	2	I	2	0	1220	1	poli_8sides 4_whiteLine3.jpg	MediumShort_b16_cut3_MS_stereo_44KHz.wav
1	91	4	4	2	I	1	0	927	1	poli_8sides 13_whiteLine3.jpg	MediumShort_b16_cut3_MS_stereo_44KHz.wav
1	92	1	2	0	C	2	1	619	1	poli_8sides 16_whiteLine3.jpg	MediumShort_e22_cut1_stereo_44KHz.wav
1	93	3	3	2	I	1	0	1112	1	poli_8sides 4_whiteLine3.jpg	MediumShort_b10_cut1_MS_stereo_44KHz.wav
1	94	2	2	1	C	2	0	711	0	poli_8sides 7_whiteLine3.jpg	MediumShort_e22_cut1_stereo_44KHz.wav
1	95	4	3	2	I	2	0	1257	0	poli_8sides 13_whiteLine3.jpg	MediumShort_b10_cut1_MS_stereo_44KHz.wav
1	96	1	1	1	C	1	1	1017	1	poli_8sides 16_whiteLine3.jpg	MediumShort_e16_cut1_stereo_44KHz.wav
1	97	3	4	2	I	2	0	1116	1	poli_8sides 4_whiteLine3.jpg	MediumShort_b16_cut3_MS_stereo_44KHz.wav
1	98	4	4	2	I	1	0	927	0	poli_8sides 13_whiteLine3.jpg	MediumShort_b16_cut3_MS_stereo_44KHz.wav
1	99	1	2	0	C	2	1	728	1	poli_8sides 16_whiteLine3.jpg	MediumShort_e22_cut1_stereo_44KHz.wav
1	100	2	1	0	C	2	1	518	1	poli_8sides 7_whiteLine3.jpg	MediumShort_e16_cut1_stereo_44KHz.wav
1	101	4	3	2	I	2	0	955	0	poli_8sides 13_whiteLine3.jpg	MediumShort_b10_cut1_MS_stereo_44KHz.wav
1	102	1	1	1	C	1	1	907	1	poli_8sides 16_whiteLine3.jpg	MediumShort_e16_cut1_stereo_44KHz.wav
1	103	2	2	1	C	1	1	884	1	poli_8sides 7_whiteLine3.jpg	MediumShort_e22_cut1_stereo_44KHz.wav
1	104	3	3	2	I	1	0	1761	1	poli_8sides 4_whiteLine3.jpg	MediumShort_b10_cut1_MS_stereo_44KHz.wav
1	105	1	1	1	C	1	1	1252	1	poli_8sides 16_whiteLine3.jpg	MediumShort_e16_cut1_stereo_44KHz.wav
1	106	4	3	2	I	2	0	1086	1	poli_8sides 13_whiteLine3.jpg	MediumShort_b10_cut1_MS_stereo_44KHz.wav
1	107	3	4	2	I	2	0	1069	0	poli_8sides 4_whiteLine3.jpg	MediumShort_b16_cut3_MS_stereo_44KHz.wav
1	108	2	1	0	C	2	1	1050	1	poli_8sides 7_whiteLine3.jpg	MediumShort_e16_cut1_stereo_44KHz.wav
1	109	3	3	2	I	1	0	1300	1	poli_8sides 4_whiteLine3.jpg	MediumShort_b10_cut1_MS_stereo_44KHz.wav
1	110	4	4	2	I	1	0	1124	0	poli_8sides 13_whiteLine3.jpg	MediumShort_b16_cut3_MS_stereo_44KHz.wav
1	111	1	2	0	C	2	1	483	1	poli_8sides 16_whiteLine3.jpg	MediumShort_e22_cut1_stereo_44KHz.wav
1	112	2	2	1	C	1	1	695	1	poli_8sides 7_whiteLine3.jpg	MediumShort_e22_cut1_stereo_44KHz.wav
1	113	3	3	2	I	2	0	1360	0	poli_8sides 4_whiteLine3.jpg	MediumShort_b10_cut1_MS_stereo_44KHz.wav
1	114	2	2	1	C	1	1	999	1	poli_8sides 7_whiteLine3.jpg	MediumShort_e22_cut1_stereo_44KHz.wav
1	115	1	1	1	C	1	1	707	1	poli_8sides 16_whiteLine3.jpg	MediumShort_e16_cut1_stereo_44KHz.wav
1	116	4	4	2	I	2	0	939	0	poli_8sides 13_whiteLine3.jpg	MediumShort_b16_cut3_MS_stereo_44KHz.wav
1	117	2	1	0	C	2	1	1527	1	poli_8sides 7_whiteLine3.jpg	MediumShort_e16_cut1_stereo_44KHz.wav
1	118	3	4	2	I	1	0	793	0	poli_8sides 4_whiteLine3.jpg	MediumShort_b16_cut3_MS_stereo_44KHz.wav
1	119	1	2	0	C	2	1	975	1	poli_8sides 16_whiteLine3.jpg	MediumShort_e22_cut1_stereo_44KHz.wav
1	120	4	3	2	I	2	0	908	0	poli_8sides 13_whiteLine3.jpg	MediumShort_b10_cut1_MS_stereo_44KHz.wav
1	121	2	2	1	C	1	1	975	1	poli_8sides 7_whiteLine3.jpg	MediumShort_e22_cut1_stereo_44KHz.wav
1	122	1	2	0	C	2	1	831	1	poli_8sides 16_whiteLine3.jpg	MediumShort_e22_cut1_stereo_44KHz.wav
1	123	3	3	2	I	1	0	816	0	poli_8sides 4_whiteLine3.jpg	MediumShort_b10_cut1_MS_stereo_44KHz.wav
1	124	4	3	2	I	2	0	1671	0	poli_8sides 13_whiteLine3.jpg	MediumShort_b10_cut1_MS_stereo_44KHz.wav
1	125	3	4	2	I	2	0	902	0	poli_8sides 4_whiteLine3.jpg	MediumShort_b16_cut3_MS_stereo_44KHz.wav
1	126	2	1	0	C	2	1	856	1	poli_8sides 7_whiteLine3.jpg	MediumShort_e16_cut1_stereo_44KHz.wav
1	127	1	1	1	C	1	1	642	1	poli_8sides 16_whiteLine3.jpg	MediumShort_e16_cut1_stereo_44KHz.wav
1	128	4	4	2	I	2	0	1253	0	poli_8sides 13_whiteLine3.jpg	MediumShort_b16_cut3_MS_stereo_44KHz.wav
1	129	2	1	0	C	2	1	938	1	poli_8sides 7_whiteLine3.jpg	MediumShort_e16_cut1_stereo_44KHz.wav
1	130	1	1	1	C	1	1	712	1	poli_8sides 16_whiteLine3.jpg	MediumShort_e16_cut1_stereo_44KHz.wav
1	131	3	3	2	I	1	0	1808	0	poli_8sides 4_whiteLine3.jpg	MediumShort_b10_cut1_MS_stereo_44KHz.wav
1	132	4	3	2	I	1	0	1272	0	poli_8sides 13_whiteLine3.jpg	MediumShort_b10_cut1_MS_stereo_44KHz.wav
1	133	2	2	1	C	1	1	976	1	poli_8sides 7_whiteLine3.jpg	MediumShort_e22_cut1_stereo_44KHz.wav
1	134	4	4	2	I	1	0	1550	0	poli_8sides 13_whiteLine3.jpg	MediumShort_b16_cut3_MS_stereo_44KHz.wav
1	135	3	4	2	I	2	0	1007	0	poli_8sides 4_whiteLine3.jpg	MediumShort_b16_cut3_MS_stereo_44KHz.wav
1	136	1	2	0	C	2	1	1492	1	poli_8sides 16_whiteLine3.jpg	MediumShort_e22_cut1_stereo_44KHz.wav
1	137	4	3	2	I	2	0	972	0	poli_8sides 13_whiteLine3.jpg	MediumShort_b10_cut1_MS_stereo_44KHz.wav
1	138	3	3	2	I	2	0	823	0	poli_8sides 4_whiteLine3.jpg	MediumShort_b10_cut1_MS_stereo_44KHz.wav
1	139	1	2	0	C	2	1	660	1	poli_8sides 16_whiteLine3.jpg	MediumShort_e22_cut1_stereo_44KHz.wav
1	140	2	1	0	C	2	1	818	1	poli_8sides 7_whiteLine3.jpg	MediumShort_e16_cut1_stereo_44KHz.wav
1	141	4	4	2	I	2	0	951	0	poli_8sides 13_whiteLine3.jpg	MediumShort_b16_cut3_MS_stereo_44KHz.wav
1	142	1	1	1	C	1	1	1149	1	poli_8sides 16_whiteLine3.jpg	MediumShort_e16_cut1_stereo_44KHz.wav
1	143	2	2	1	C	1	1	1138	1	poli_8sides 7_whiteLine3.jpg	MediumShort_e22_cut1_stereo_44KHz.wav
1	144	3	4	2	I	2	0	1313	0	poli_8sides 4_whiteLine3.jpg	MediumShort_b16_cut3_MS_stereo_44KHz.wav
1	145	4	4	2	I	1	0	741	1	poli_8sides 13_whiteLine3.jpg	MediumShort_b16_cut3_MS_stereo_44KHz.wav
1	146	2	2	1	C	1	1	1076	1	poli_8sides 7_whiteLine3.jpg	MediumShort_e22_cut1_stereo_44KHz.wav
1	147	1	1	1	C	1	1	995	1	poli_8sides 16_whiteLine3.jpg	MediumShort_e16_cut1_stereo_44KHz.wav
1	148	3	4	2	I	1	0	969	1	poli_8sides 4_whiteLine3.jpg	MediumShort_b16_cut3_MS_stereo_44KHz.wav
1	149	1	2	0	C	2	1	762	1	poli_8sides 16_whiteLine3.jpg	MediumShort_e22_cut1_stereo_44KHz.wav
1	150	2	1	0	C	2	1	898	1	poli_8sides 7_whiteLine3.jpg	MediumShort_e16_cut1_stereo_44KHz.wav
1	151	4	3	2	I	1	0	1116	1	poli_8sides 13_whiteLine3.jpg	MediumShort_b10_cut1_MS_stereo_44KHz.wav
1	152	3	3	2	I	1	0	688	1	poli_8sides 4_whiteLine3.jpg	MediumShort_b10_cut1_MS_stereo_44KHz.wav
1	153	1	2	0	C	2	1	1097	1	poli_8sides 16_whiteLine3.jpg	MediumShort_e22_cut1_stereo_44KHz.wav
1	154	2	2	1	C	1	1	1090	1	poli_8sides 7_whiteLine3.jpg	MediumShort_e22_cut1_stereo_44KHz.wav
1	155	3	4	2	I	1	0	668	1	poli_8sides 4_whiteLine3.jpg	MediumShort_b16_cut3_MS_stereo_44KHz.wav
1	156	4	3	2	I	1	0	1015	1	poli_8sides 13_whiteLine3.jpg	MediumShort_b10_cut1_MS_stereo_44KHz.wav
1	157	1	1	1	C	1	1	1121	1	poli_8sides 16_whiteLine3.jpg	MediumShort_e16_cut1_stereo_44KHz.wav
1	158	4	4	2	I	1	0	783	1	poli_8sides 13_whiteLine3.jpg	MediumShort_b16_cut3_MS_stereo_44KHz.wav
1	159	2	1	0	C	2	1	1114	1	poli_8sides 7_whiteLine3.jpg	MediumShort_e16_cut1_stereo_44KHz.wav
1	160	3	3	2	I	1	0	1140	1	poli_8sides 4_whiteLine3.jpg	MediumShort_b10_cut1_MS_stereo_44KHz.wav
1	161	2	2	1	C	1	1	1084	1	poli_8sides 7_whiteLine3.jpg	MediumShort_e22_cut1_stereo_44KHz.wav
1	162	1	2	0	C	2	1	829	1	poli_8sides 16_whiteLine3.jpg	MediumShort_e22_cut1_stereo_44KHz.wav
1	163	3	4	2	I	1	0	1233	1	poli_8sides 4_whiteLine3.jpg	MediumShort_b16_cut3_MS_stereo_44KHz.wav
1	164	4	3	2	I	1	0	1039	0	poli_8sides 13_whiteLine3.jpg	MediumShort_b10_cut1_MS_stereo_44KHz.wav
1	165	2	1	0	C	2	1	1099	1	poli_8sides 7_whiteLine3.jpg	MediumShort_e16_cut1_stereo_44KHz.wav
1	166	1	1	1	C	1	1	882	1	poli_8sides 16_whiteLine3.jpg	MediumShort_e16_cut1_stereo_44KHz.wav
1	167	3	3	2	I	1	0	1244	1	poli_8sides 4_whiteLine3.jpg	MediumShort_b10_cut1_MS_stereo_44KHz.wav
1	168	4	4	2	I	1	0	972	1	poli_8sides 13_whiteLine3.jpg	MediumShort_b16_cut3_MS_stereo_44KHz.wav
1	169	1	2	0	C	2	1	849	1	poli_8sides 16_whiteLine3.jpg	MediumShort_e22_cut1_stereo_44KHz.wav
1	170	2	2	1	C	1	1	1006	1	poli_8sides 7_whiteLine3.jpg	MediumShort_e22_cut1_stereo_44KHz.wav
1	171	4	4	2	I	1	0	1665	1	poli_8sides 13_whiteLine3.jpg	MediumShort_b16_cut3_MS_stereo_44KHz.wav
1	172	3	4	2	I	1	0	1231	1	poli_8sides 4_whiteLine3.jpg	MediumShort_b16_cut3_MS_stereo_44KHz.wav
1	173	4	3	2	I	1	0	1653	0	poli_8sides 13_whiteLine3.jpg	MediumShort_b10_cut1_MS_stereo_44KHz.wav
1	174	3	3	2	I	1	0	1069	1	poli_8sides 4_whiteLine3.jpg	MediumShort_b10_cut1_MS_stereo_44KHz.wav
1	175	1	1	1	C	1	1	1404	1	poli_8sides 16_whiteLine3.jpg	MediumShort_e16_cut1_stereo_44KHz.wav
1	176	2	1	0	C	0	0	0	0	poli_8sides 7_whiteLine3.jpg	MediumShort_e16_cut1_stereo_44KHz.wav
1	177	1	2	0	C	2	1	833	1	poli_8sides 16_whiteLine3.jpg	MediumShort_e22_cut1_stereo_44KHz.wav
1	178	3	3	2	I	1	0	1259	0	poli_8sides 4_whiteLine3.jpg	MediumShort_b10_cut1_MS_stereo_44KHz.wav
1	179	4	4	2	I	1	0	1186	0	poli_8sides 13_whiteLine3.jpg	MediumShort_b16_cut3_MS_stereo_44KHz.wav
1	180	2	1	0	C	2	1	888	1	poli_8sides 7_whiteLine3.jpg	MediumShort_e16_cut1_stereo_44KHz.wav
1	181	3	4	2	I	1	0	1071	0	poli_8sides 4_whiteLine3.jpg	MediumShort_b16_cut3_MS_stereo_44KHz.wav
1	182	2	2	1	C	1	1	1059	1	poli_8sides 7_whiteLine3.jpg	MediumShort_e22_cut1_stereo_44KHz.wav
1	183	4	3	2	I	2	0	1180	1	poli_8sides 13_whiteLine3.jpg	MediumShort_b10_cut1_MS_stereo_44KHz.wav
1	184	1	1	1	C	2	0	1068	0	poli_8sides 16_whiteLine3.jpg	MediumShort_e16_cut1_stereo_44KHz.wav
1	185	2	2	1	C	1	1	682	1	poli_8sides 7_whiteLine3.jpg	MediumShort_e22_cut1_stereo_44KHz.wav
1	186	3	3	2	I	1	0	995	1	poli_8sides 4_whiteLine3.jpg	MediumShort_b10_cut1_MS_stereo_44KHz.wav
1	187	1	2	0	C	2	1	1025	1	poli_8sides 16_whiteLine3.jpg	MediumShort_e22_cut1_stereo_44KHz.wav
1	188	4	4	2	I	2	0	1164	0	poli_8sides 13_whiteLine3.jpg	MediumShort_b16_cut3_MS_stereo_44KHz.wav
1	189	2	1	0	C	2	1	1249	1	poli_8sides 7_whiteLine3.jpg	MediumShort_e16_cut1_stereo_44KHz.wav
1	190	4	3	2	I	2	0	1415	0	poli_8sides 13_whiteLine3.jpg	MediumShort_b10_cut1_MS_stereo_44KHz.wav
1	191	3	4	2	I	2	0	1082	1	poli_8sides 4_whiteLine3.jpg	MediumShort_b16_cut3_MS_stereo_44KHz.wav
1	192	1	1	1	C	1	1	1224	1	poli_8sides 16_whiteLine3.jpg	MediumShort_e16_cut1_stereo_44KHz.wav
1	193	4	4	2	I	1	0	1201	1	poli_8sides 13_whiteLine3.jpg	MediumShort_b16_cut3_MS_stereo_44KHz.wav
1	194	1	2	0	C	2	1	1108	1	poli_8sides 16_whiteLine3.jpg	MediumShort_e22_cut1_stereo_44KHz.wav
1	195	3	4	2	I	1	0	883	1	poli_8sides 4_whiteLine3.jpg	MediumShort_b16_cut3_MS_stereo_44KHz.wav
1	196	2	1	0	C	2	1	1145	1	poli_8sides 7_whiteLine3.jpg	MediumShort_e16_cut1_stereo_44KHz.wav
1	197	1	1	1	C	2	0	837	0	poli_8sides 16_whiteLine3.jpg	MediumShort_e16_cut1_stereo_44KHz.wav
1	198	4	3	2	I	2	0	1144	1	poli_8sides 13_whiteLine3.jpg	MediumShort_b10_cut1_MS_stereo_44KHz.wav
1	199	2	2	1	C	1	1	1201	1	poli_8sides 7_whiteLine3.jpg	MediumShort_e22_cut1_stereo_44KHz.wav
1	200	3	3	2	I	1	0	1274	1	poli_8sides 4_whiteLine3.jpg	MediumShort_b10_cut1_MS_stereo_44KHz.wav
2	1	3	4	2	I	2	0	1435	0	poli_8sides 6_whiteLine3.jpg	Medium_e26_stereo_44KHz.wav
2	2	2	1	0	C	2	1	1148	1	poli_8sides 12_whiteLine3.jpg	Medium_e01_cut1_stereo_44KHz.wav
2	3	4	4	2	I	2	0	1493	1	poli_8sides 18_whiteLine3.jpg	Medium_e26_stereo_44KHz.wav
2	4	1	2	0	C	2	1	869	1	poli_8sides 10_whiteLine3.jpg	Medium_e21_stereo_44KHz.wav
2	5	4	3	2	I	1	0	1159	1	poli_8sides 18_whiteLine3.jpg	Medium_e13_stereo_44KHz.wav
2	6	1	1	1	C	2	0	1340	0	poli_8sides 10_whiteLine3.jpg	Medium_e01_cut1_stereo_44KHz.wav
2	7	2	2	1	C	2	0	1073	0	poli_8sides 12_whiteLine3.jpg	Medium_e21_stereo_44KHz.wav
2	8	3	3	2	I	2	0	1467	1	poli_8sides 6_whiteLine3.jpg	Medium_e13_stereo_44KHz.wav
2	9	4	4	2	I	1	0	1108	1	poli_8sides 18_whiteLine3.jpg	Medium_e26_stereo_44KHz.wav
2	10	3	4	2	I	1	0	1540	1	poli_8sides 6_whiteLine3.jpg	Medium_e26_stereo_44KHz.wav
2	11	1	2	0	C	2	1	1533	1	poli_8sides 10_whiteLine3.jpg	Medium_e21_stereo_44KHz.wav
2	12	2	1	0	C	2	1	1678	1	poli_8sides 12_whiteLine3.jpg	Medium_e01_cut1_stereo_44KHz.wav
2	13	3	3	2	I	0	0	0	0	poli_8sides 6_whiteLine3.jpg	Medium_e13_stereo_44KHz.wav
2	14	1	1	1	C	2	0	1294	0	poli_8sides 10_whiteLine3.jpg	Medium_e01_cut1_stereo_44KHz.wav
2	15	2	2	1	C	1	1	1407	1	poli_8sides 12_whiteLine3.jpg	Medium_e21_stereo_44KHz.wav
2	16	4	3	2	I	1	0	1391	1	poli_8sides 18_whiteLine3.jpg	Medium_e13_stereo_44KHz.wav
2	17	2	2	1	C	1	1	1431	1	poli_8sides 12_whiteLine3.jpg	Medium_e21_stereo_44KHz.wav
2	18	4	4	2	I	2	0	1173	1	poli_8sides 18_whiteLine3.jpg	Medium_e26_stereo_44KHz.wav
2	19	1	2	0	C	2	1	1043	1	poli_8sides 10_whiteLine3.jpg	Medium_e21_stereo_44KHz.wav
2	20	3	3	2	I	1	0	1298	0	poli_8sides 6_whiteLine3.jpg	Medium_e13_stereo_44KHz.wav
2	21	1	1	1	C	1	1	1323	1	poli_8sides 10_whiteLine3.jpg	Medium_e01_cut1_stereo_44KHz.wav
2	22	4	3	2	I	2	0	1717	0	poli_8sides 18_whiteLine3.jpg	Medium_e13_stereo_44KHz.wav
2	23	2	1	0	C	2	1	1361	1	poli_8sides 12_whiteLine3.jpg	Medium_e01_cut1_stereo_44KHz.wav
2	24	3	4	2	I	2	0	1269	1	poli_8sides 6_whiteLine3.jpg	Medium_e26_stereo_44KHz.wav
2	25	2	2	1	C	1	1	1686	1	poli_8sides 12_whiteLine3.jpg	Medium_e21_stereo_44KHz.wav
2	26	3	4	2	I	0	0	0	0	poli_8sides 6_whiteLine3.jpg	Medium_e26_stereo_44KHz.wav
2	27	4	3	2	I	1	0	1195	0	poli_8sides 18_whiteLine3.jpg	Medium_e13_stereo_44KHz.wav
2	28	1	1	1	C	1	1	925	1	poli_8sides 10_whiteLine3.jpg	Medium_e01_cut1_stereo_44KHz.wav
2	29	2	1	0	C	2	1	1506	1	poli_8sides 12_whiteLine3.jpg	Medium_e01_cut1_stereo_44KHz.wav
2	30	1	2	0	C	1	0	792	0	poli_8sides 10_whiteLine3.jpg	Medium_e21_stereo_44KHz.wav
2	31	3	3	2	I	2	0	1461	1	poli_8sides 6_whiteLine3.jpg	Medium_e13_stereo_44KHz.wav
2	32	4	4	2	I	2	0	1507	0	poli_8sides 18_whiteLine3.jpg	Medium_e26_stereo_44KHz.wav
2	33	3	3	2	I	2	0	1168	0	poli_8sides 6_whiteLine3.jpg	Medium_e13_stereo_44KHz.wav
2	34	2	2	1	C	1	1	947	1	poli_8sides 12_whiteLine3.jpg	Medium_e21_stereo_44KHz.wav
2	35	1	1	1	C	1	1	1654	1	poli_8sides 10_whiteLine3.jpg	Medium_e01_cut1_stereo_44KHz.wav
2	36	4	3	2	I	2	0	1235	0	poli_8sides 18_whiteLine3.jpg	Medium_e13_stereo_44KHz.wav
2	37	1	2	0	C	2	1	1122	1	poli_8sides 10_whiteLine3.jpg	Medium_e21_stereo_44KHz.wav
2	38	3	4	2	I	2	0	1351	1	poli_8sides 6_whiteLine3.jpg	Medium_e26_stereo_44KHz.wav
2	39	4	4	2	I	2	0	1166	1	poli_8sides 18_whiteLine3.jpg	Medium_e26_stereo_44KHz.wav
2	40	2	1	0	C	2	1	1359	1	poli_8sides 12_whiteLine3.jpg	Medium_e01_cut1_stereo_44KHz.wav
2	41	4	3	2	I	1	0	1586	1	poli_8sides 18_whiteLine3.jpg	Medium_e13_stereo_44KHz.wav
2	42	3	3	2	I	2	0	1655	0	poli_8sides 6_whiteLine3.jpg	Medium_e13_stereo_44KHz.wav
2	43	2	1	0	C	2	1	1144	1	poli_8sides 12_whiteLine3.jpg	Medium_e01_cut1_stereo_44KHz.wav
2	44	1	2	0	C	2	1	996	1	poli_8sides 10_whiteLine3.jpg	Medium_e21_stereo_44KHz.wav
2	45	4	4	2	I	2	0	1121	1	poli_8sides 18_whiteLine3.jpg	Medium_e26_stereo_44KHz.wav
2	46	2	2	1	C	1	1	1327	1	poli_8sides 12_whiteLine3.jpg	Medium_e21_stereo_44KHz.wav
2	47	3	4	2	I	2	0	969	0	poli_8sides 6_whiteLine3.jpg	Medium_e26_stereo_44KHz.wav
2	48	1	1	1	C	1	1	1076	1	poli_8sides 10_whiteLine3.jpg	Medium_e01_cut1_stereo_44KHz.wav
2	49	4	3	2	I	1	0	1907	0	poli_8sides 18_whiteLine3.jpg	Medium_e13_stereo_44KHz.wav
2	50	1	1	1	C	1	1	989	1	poli_8sides 10_whiteLine3.jpg	Medium_e01_cut1_stereo_44KHz.wav
2	51	2	1	0	C	2	1	1173	1	poli_8sides 12_whiteLine3.jpg	Medium_e01_cut1_stereo_44KHz.wav
2	52	3	4	2	I	2	0	994	0	poli_8sides 6_whiteLine3.jpg	Medium_e26_stereo_44KHz.wav
2	53	1	2	0	C	2	1	981	1	poli_8sides 10_whiteLine3.jpg	Medium_e21_stereo_44KHz.wav
2	54	3	3	2	I	2	0	1598	1	poli_8sides 6_whiteLine3.jpg	Medium_e13_stereo_44KHz.wav
2	55	4	4	2	I	2	0	1365	0	poli_8sides 18_whiteLine3.jpg	Medium_e26_stereo_44KHz.wav
2	56	2	2	1	C	1	1	1216	1	poli_8sides 12_whiteLine3.jpg	Medium_e21_stereo_44KHz.wav
2	57	4	3	2	I	1	0	1109	1	poli_8sides 18_whiteLine3.jpg	Medium_e13_stereo_44KHz.wav
2	58	1	1	1	C	1	1	1209	1	poli_8sides 10_whiteLine3.jpg	Medium_e01_cut1_stereo_44KHz.wav
2	59	3	4	2	I	2	0	1910	1	poli_8sides 6_whiteLine3.jpg	Medium_e26_stereo_44KHz.wav
2	60	2	2	1	C	1	1	1481	1	poli_8sides 12_whiteLine3.jpg	Medium_e21_stereo_44KHz.wav
2	61	3	3	2	I	2	0	1252	0	poli_8sides 6_whiteLine3.jpg	Medium_e13_stereo_44KHz.wav
2	62	1	2	0	C	1	0	1131	0	poli_8sides 10_whiteLine3.jpg	Medium_e21_stereo_44KHz.wav
2	63	2	1	0	C	2	1	856	1	poli_8sides 12_whiteLine3.jpg	Medium_e01_cut1_stereo_44KHz.wav
2	64	4	4	2	I	2	0	1077	1	poli_8sides 18_whiteLine3.jpg	Medium_e26_stereo_44KHz.wav
2	65	2	1	0	C	2	1	1300	1	poli_8sides 12_whiteLine3.jpg	Medium_e01_cut1_stereo_44KHz.wav
2	66	4	4	2	I	2	0	1435	0	poli_8sides 18_whiteLine3.jpg	Medium_e26_stereo_44KHz.wav
2	67	1	2	0	C	2	1	1063	1	poli_8sides 10_whiteLine3.jpg	Medium_e21_stereo_44KHz.wav
2	68	3	3	2	I	2	0	1128	0	poli_8sides 6_whiteLine3.jpg	Medium_e13_stereo_44KHz.wav
2	69	4	3	2	I	2	0	758	1	poli_8sides 18_whiteLine3.jpg	Medium_e13_stereo_44KHz.wav
2	70	3	4	2	I	2	0	1205	0	poli_8sides 6_whiteLine3.jpg	Medium_e26_stereo_44KHz.wav
2	71	1	1	1	C	1	1	1063	1	poli_8sides 10_whiteLine3.jpg	Medium_e01_cut1_stereo_44KHz.wav
2	72	2	2	1	C	0	0	0	0	poli_8sides 12_whiteLine3.jpg	Medium_e21_stereo_44KHz.wav
2	73	4	3	2	I	1	0	1360	0	poli_8sides 18_whiteLine3.jpg	Medium_e13_stereo_44KHz.wav
2	74	3	4	2	I	2	0	946	1	poli_8sides 6_whiteLine3.jpg	Medium_e26_stereo_44KHz.wav
2	75	1	1	1	C	1	1	1111	1	poli_8sides 10_whiteLine3.jpg	Medium_e01_cut1_stereo_44KHz.wav
2	76	2	2	1	C	1	1	1124	1	poli_8sides 12_whiteLine3.jpg	Medium_e21_stereo_44KHz.wav
2	77	4	4	2	I	2	0	1517	1	poli_8sides 18_whiteLine3.jpg	Medium_e26_stereo_44KHz.wav
2	78	2	1	0	C	2	1	1321	1	poli_8sides 12_whiteLine3.jpg	Medium_e01_cut1_stereo_44KHz.wav
2	79	1	2	0	C	2	1	870	1	poli_8sides 10_whiteLine3.jpg	Medium_e21_stereo_44KHz.wav
2	80	3	3	2	I	1	0	1436	1	poli_8sides 6_whiteLine3.jpg	Medium_e13_stereo_44KHz.wav
2	81	4	4	2	I	2	0	1169	1	poli_8sides 18_whiteLine3.jpg	Medium_e26_stereo_44KHz.wav
2	82	1	2	0	C	2	1	945	1	poli_8sides 10_whiteLine3.jpg	Medium_e21_stereo_44KHz.wav
2	83	2	1	0	C	2	1	1096	1	poli_8sides 12_whiteLine3.jpg	Medium_e01_cut1_stereo_44KHz.wav
2	84	3	4	2	I	0	0	0	0	poli_8sides 6_whiteLine3.jpg	Medium_e26_stereo_44KHz.wav
2	85	1	1	1	C	1	1	1087	1	poli_8sides 10_whiteLine3.jpg	Medium_e01_cut1_stereo_44KHz.wav
2	86	2	2	1	C	1	1	1201	1	poli_8sides 12_whiteLine3.jpg	Medium_e21_stereo_44KHz.wav
2	87	3	3	2	I	1	0	1320	0	poli_8sides 6_whiteLine3.jpg	Medium_e13_stereo_44KHz.wav
2	88	4	3	2	I	1	0	1134	0	poli_8sides 18_whiteLine3.jpg	Medium_e13_stereo_44KHz.wav
2	89	2	2	1	C	1	1	1571	1	poli_8sides 12_whiteLine3.jpg	Medium_e21_stereo_44KHz.wav
2	90	4	4	2	I	2	0	1011	1	poli_8sides 18_whiteLine3.jpg	Medium_e26_stereo_44KHz.wav
2	91	1	1	1	C	0	0	0	0	poli_8sides 10_whiteLine3.jpg	Medium_e01_cut1_stereo_44KHz.wav
2	92	3	3	2	I	1	0	1186	1	poli_8sides 6_whiteLine3.jpg	Medium_e13_stereo_44KHz.wav
2	93	2	1	0	C	2	1	1089	1	poli_8sides 12_whiteLine3.jpg	Medium_e01_cut1_stereo_44KHz.wav
2	94	1	2	0	C	1	0	1575	0	poli_8sides 10_whiteLine3.jpg	Medium_e21_stereo_44KHz.wav
2	95	4	3	2	I	1	0	1127	0	poli_8sides 18_whiteLine3.jpg	Medium_e13_stereo_44KHz.wav
2	96	3	4	2	I	2	0	987	0	poli_8sides 6_whiteLine3.jpg	Medium_e26_stereo_44KHz.wav
2	97	1	2	0	C	2	1	717	1	poli_8sides 10_whiteLine3.jpg	Medium_e21_stereo_44KHz.wav
2	98	3	3	2	I	1	0	1401	0	poli_8sides 6_whiteLine3.jpg	Medium_e13_stereo_44KHz.wav
2	99	4	3	2	I	2	0	1518	1	poli_8sides 18_whiteLine3.jpg	Medium_e13_stereo_44KHz.wav
2	100	2	1	0	C	2	1	1011	1	poli_8sides 12_whiteLine3.jpg	Medium_e01_cut1_stereo_44KHz.wav
2	101	3	4	2	I	2	0	1405	0	poli_8sides 6_whiteLine3.jpg	Medium_e26_stereo_44KHz.wav
2	102	1	1	1	C	1	1	985	1	poli_8sides 10_whiteLine3.jpg	Medium_e01_cut1_stereo_44KHz.wav
2	103	4	4	2	I	2	0	938	0	poli_8sides 18_whiteLine3.jpg	Medium_e26_stereo_44KHz.wav
2	104	2	2	1	C	1	1	1154	1	poli_8sides 12_whiteLine3.jpg	Medium_e21_stereo_44KHz.wav
2	105	4	3	2	I	2	0	836	1	poli_8sides 18_whiteLine3.jpg	Medium_e13_stereo_44KHz.wav
2	106	2	1	0	C	2	1	1065	1	poli_8sides 12_whiteLine3.jpg	Medium_e01_cut1_stereo_44KHz.wav
2	107	3	4	2	I	2	0	1499	0	poli_8sides 6_whiteLine3.jpg	Medium_e26_stereo_44KHz.wav
2	108	1	1	1	C	1	1	1295	1	poli_8sides 10_whiteLine3.jpg	Medium_e01_cut1_stereo_44KHz.wav
2	109	4	4	2	I	1	0	1523	0	poli_8sides 18_whiteLine3.jpg	Medium_e26_stereo_44KHz.wav
2	110	3	3	2	I	1	0	1350	0	poli_8sides 6_whiteLine3.jpg	Medium_e13_stereo_44KHz.wav
2	111	1	2	0	C	2	1	925	1	poli_8sides 10_whiteLine3.jpg	Medium_e21_stereo_44KHz.wav
2	112	2	2	1	C	1	1	1092	1	poli_8sides 12_whiteLine3.jpg	Medium_e21_stereo_44KHz.wav
2	113	3	4	2	I	2	0	1479	1	poli_8sides 6_whiteLine3.jpg	Medium_e26_stereo_44KHz.wav
2	114	1	2	0	C	2	1	756	1	poli_8sides 10_whiteLine3.jpg	Medium_e21_stereo_44KHz.wav
2	115	2	1	0	C	2	1	999	1	poli_8sides 12_whiteLine3.jpg	Medium_e01_cut1_stereo_44KHz.wav
2	116	4	4	2	I	2	0	1167	1	poli_8sides 18_whiteLine3.jpg	Medium_e26_stereo_44KHz.wav
2	117	2	2	1	C	1	1	1041	1	poli_8sides 12_whiteLine3.jpg	Medium_e21_stereo_44KHz.wav
2	118	1	1	1	C	1	1	1087	1	poli_8sides 10_whiteLine3.jpg	Medium_e01_cut1_stereo_44KHz.wav
2	119	4	3	2	I	2	0	1434	0	poli_8sides 18_whiteLine3.jpg	Medium_e13_stereo_44KHz.wav
2	120	3	3	2	I	1	0	1123	1	poli_8sides 6_whiteLine3.jpg	Medium_e13_stereo_44KHz.wav
2	121	1	1	1	C	1	1	1065	1	poli_8sides 10_whiteLine3.jpg	Medium_e01_cut1_stereo_44KHz.wav
2	122	2	2	1	C	1	1	1522	1	poli_8sides 12_whiteLine3.jpg	Medium_e21_stereo_44KHz.wav
2	123	4	4	2	I	2	0	1145	0	poli_8sides 18_whiteLine3.jpg	Medium_e26_stereo_44KHz.wav
2	124	3	4	2	I	1	0	1277	0	poli_8sides 6_whiteLine3.jpg	Medium_e26_stereo_44KHz.wav
2	125	4	3	2	I	2	0	1480	0	poli_8sides 18_whiteLine3.jpg	Medium_e13_stereo_44KHz.wav
2	126	3	3	2	I	1	0	1253	0	poli_8sides 6_whiteLine3.jpg	Medium_e13_stereo_44KHz.wav
2	127	2	1	0	C	2	1	1314	1	poli_8sides 12_whiteLine3.jpg	Medium_e01_cut1_stereo_44KHz.wav
2	128	1	2	0	C	2	1	1162	1	poli_8sides 10_whiteLine3.jpg	Medium_e21_stereo_44KHz.wav
2	129	4	3	2	I	2	0	957	1	poli_8sides 18_whiteLine3.jpg	Medium_e13_stereo_44KHz.wav
2	130	2	1	0	C	2	1	1359	1	poli_8sides 12_whiteLine3.jpg	Medium_e01_cut1_stereo_44KHz.wav
2	131	3	4	2	I	1	0	1817	1	poli_8sides 6_whiteLine3.jpg	Medium_e26_stereo_44KHz.wav
2	132	1	1	1	C	1	1	1357	1	poli_8sides 10_whiteLine3.jpg	Medium_e01_cut1_stereo_44KHz.wav
2	133	4	4	2	I	2	0	1046	0	poli_8sides 18_whiteLine3.jpg	Medium_e26_stereo_44KHz.wav
2	134	1	2	0	C	1	0	1289	0	poli_8sides 10_whiteLine3.jpg	Medium_e21_stereo_44KHz.wav
2	135	3	3	2	I	2	0	1136	1	poli_8sides 6_whiteLine3.jpg	Medium_e13_stereo_44KHz.wav
2	136	2	2	1	C	1	1	1237	1	poli_8sides 12_whiteLine3.jpg	Medium_e21_stereo_44KHz.wav
2	137	3	3	2	I	1	0	999	1	poli_8sides 6_whiteLine3.jpg	Medium_e13_stereo_44KHz.wav
2	138	1	1	1	C	1	1	1157	1	poli_8sides 10_whiteLine3.jpg	Medium_e01_cut1_stereo_44KHz.wav
2	139	2	2	1	C	1	1	1693	1	poli_8sides 12_whiteLine3.jpg	Medium_e21_stereo_44KHz.wav
2	140	4	4	2	I	1	0	1306	1	poli_8sides 18_whiteLine3.jpg	Medium_e26_stereo_44KHz.wav
2	141	2	1	0	C	2	1	1134	1	poli_8sides 12_whiteLine3.jpg	Medium_e01_cut1_stereo_44KHz.wav
2	142	3	4	2	I	2	0	1537	0	poli_8sides 6_whiteLine3.jpg	Medium_e26_stereo_44KHz.wav
2	143	4	3	2	I	2	0	930	0	poli_8sides 18_whiteLine3.jpg	Medium_e13_stereo_44KHz.wav
2	144	1	2	0	C	2	1	632	1	poli_8sides 10_whiteLine3.jpg	Medium_e21_stereo_44KHz.wav
2	145	4	4	2	I	2	0	1079	1	poli_8sides 18_whiteLine3.jpg	Medium_e26_stereo_44KHz.wav
2	146	3	3	2	I	1	0	714	0	poli_8sides 6_whiteLine3.jpg	Medium_e13_stereo_44KHz.wav
2	147	1	1	1	C	1	1	1198	1	poli_8sides 10_whiteLine3.jpg	Medium_e01_cut1_stereo_44KHz.wav
2	148	2	1	0	C	2	1	1181	1	poli_8sides 12_whiteLine3.jpg	Medium_e01_cut1_stereo_44KHz.wav
2	149	4	3	2	I	2	0	999	0	poli_8sides 18_whiteLine3.jpg	Medium_e13_stereo_44KHz.wav
2	150	3	4	2	I	2	0	849	1	poli_8sides 6_whiteLine3.jpg	Medium_e26_stereo_44KHz.wav
2	151	2	2	1	C	1	1	712	1	poli_8sides 12_whiteLine3.jpg	Medium_e21_stereo_44KHz.wav
2	152	1	2	0	C	2	1	1288	1	poli_8sides 10_whiteLine3.jpg	Medium_e21_stereo_44KHz.wav
2	153	4	4	2	I	2	0	1186	0	poli_8sides 18_whiteLine3.jpg	Medium_e26_stereo_44KHz.wav
2	154	2	2	1	C	1	1	1120	1	poli_8sides 12_whiteLine3.jpg	Medium_e21_stereo_44KHz.wav
2	155	1	2	0	C	2	1	1047	1	poli_8sides 10_whiteLine3.jpg	Medium_e21_stereo_44KHz.wav
2	156	3	4	2	I	2	0	1320	1	poli_8sides 6_whiteLine3.jpg	Medium_e26_stereo_44KHz.wav
2	157	1	1	1	C	1	1	1184	1	poli_8sides 10_whiteLine3.jpg	Medium_e01_cut1_stereo_44KHz.wav
2	158	4	3	2	I	2	0	812	1	poli_8sides 18_whiteLine3.jpg	Medium_e13_stereo_44KHz.wav
2	159	3	3	2	I	2	0	987	1	poli_8sides 6_whiteLine3.jpg	Medium_e13_stereo_44KHz.wav
2	160	2	1	0	C	2	1	1227	1	poli_8sides 12_whiteLine3.jpg	Medium_e01_cut1_stereo_44KHz.wav
2	161	4	4	2	I	2	0	929	0	poli_8sides 18_whiteLine3.jpg	Medium_e26_stereo_44KHz.wav
2	162	1	1	1	C	1	1	1416	1	poli_8sides 10_whiteLine3.jpg	Medium_e01_cut1_stereo_44KHz.wav
2	163	2	2	1	C	1	1	1886	1	poli_8sides 12_whiteLine3.jpg	Medium_e21_stereo_44KHz.wav
2	164	3	4	2	I	1	0	1311	1	poli_8sides 6_whiteLine3.jpg	Medium_e26_stereo_44KHz.wav
2	165	1	2	0	C	2	1	1316	1	poli_8sides 10_whiteLine3.jpg	Medium_e21_stereo_44KHz.wav
2	166	4	3	2	I	1	0	1138	1	poli_8sides 18_whiteLine3.jpg	Medium_e13_stereo_44KHz.wav
2	167	2	1	0	C	1	0	1779	0	poli_8sides 12_whiteLine3.jpg	Medium_e01_cut1_stereo_44KHz.wav
2	168	3	3	2	I	2	0	1433	1	poli_8sides 6_whiteLine3.jpg	Medium_e13_stereo_44KHz.wav
2	169	4	3	2	I	2	0	1569	1	poli_8sides 18_whiteLine3.jpg	Medium_e13_stereo_44KHz.wav
2	170	2	1	0	C	2	1	1375	1	poli_8sides 12_whiteLine3.jpg	Medium_e01_cut1_stereo_44KHz.wav
2	171	3	3	2	I	2	0	1077	0	poli_8sides 6_whiteLine3.jpg	Medium_e13_stereo_44KHz.wav
2	172	1	2	0	C	2	1	1781	1	poli_8sides 10_whiteLine3.jpg	Medium_e21_stereo_44KHz.wav
2	173	3	4	2	I	2	0	794	1	poli_8sides 6_whiteLine3.jpg	Medium_e26_stereo_44KHz.wav
2	174	2	2	1	C	1	1	1342	1	poli_8sides 12_whiteLine3.jpg	Medium_e21_stereo_44KHz.wav
2	175	4	4	2	I	1	0	1699	0	poli_8sides 18_whiteLine3.jpg	Medium_e26_stereo_44KHz.wav
2	176	1	1	1	C	1	1	1898	1	poli_8sides 10_whiteLine3.jpg	Medium_e01_cut1_stereo_44KHz.wav
2	177	2	2	1	C	2	0	1002	0	poli_8sides 12_whiteLine3.jpg	Medium_e21_stereo_44KHz.wav
2	178	4	4	2	I	1	0	1260	0	poli_8sides 18_whiteLine3.jpg	Medium_e26_stereo_44KHz.wav
2	179	1	2	0	C	2	1	1154	1	poli_8sides 10_whiteLine3.jpg	Medium_e21_stereo_44KHz.wav
2	180	3	3	2	I	1	0	1078	1	poli_8sides 6_whiteLine3.jpg	Medium_e13_stereo_44KHz.wav
2	181	1	1	1	C	1	1	1217	1	poli_8sides 10_whiteLine3.jpg	Medium_e01_cut1_stereo_44KHz.wav
2	182	3	4	2	I	2	0	1265	1	poli_8sides 6_whiteLine3.jpg	Medium_e26_stereo_44KHz.wav
2	183	2	1	0	C	2	1	1421	1	poli_8sides 12_whiteLine3.jpg	Medium_e01_cut1_stereo_44KHz.wav
2	184	4	3	2	I	2	0	805	0	poli_8sides 18_whiteLine3.jpg	Medium_e13_stereo_44KHz.wav
2	185	1	1	1	C	1	1	1728	1	poli_8sides 10_whiteLine3.jpg	Medium_e01_cut1_stereo_44KHz.wav
2	186	2	2	1	C	2	0	1726	0	poli_8sides 12_whiteLine3.jpg	Medium_e21_stereo_44KHz.wav
2	187	3	3	2	I	2	0	1640	0	poli_8sides 6_whiteLine3.jpg	Medium_e13_stereo_44KHz.wav
2	188	4	3	2	I	0	0	0	0	poli_8sides 18_whiteLine3.jpg	Medium_e13_stereo_44KHz.wav
2	189	3	4	2	I	2	0	918	1	poli_8sides 6_whiteLine3.jpg	Medium_e26_stereo_44KHz.wav
2	190	4	4	2	I	1	0	884	1	poli_8sides 18_whiteLine3.jpg	Medium_e26_stereo_44KHz.wav
2	191	2	1	0	C	2	1	1313	1	poli_8sides 12_whiteLine3.jpg	Medium_e01_cut1_stereo_44KHz.wav
2	192	1	2	0	C	2	1	961	1	poli_8sides 10_whiteLine3.jpg	Medium_e21_stereo_44KHz.wav
2	193	2	1	0	C	2	1	1353	1	poli_8sides 12_whiteLine3.jpg	Medium_e01_cut1_stereo_44KHz.wav
2	194	3	3	2	I	2	0	1016	0	poli_8sides 6_whiteLine3.jpg	Medium_e13_stereo_44KHz.wav
2	195	4	4	2	I	2	0	1455	0	poli_8sides 18_whiteLine3.jpg	Medium_e26_stereo_44KHz.wav
2	196	1	2	0	C	2	1	1165	1	poli_8sides 10_whiteLine3.jpg	Medium_e21_stereo_44KHz.wav
2	197	4	3	2	I	1	0	988	1	poli_8sides 18_whiteLine3.jpg	Medium_e13_stereo_44KHz.wav
2	198	1	1	1	C	1	1	1423	1	poli_8sides 10_whiteLine3.jpg	Medium_e01_cut1_stereo_44KHz.wav
2	199	3	4	2	I	2	0	885	0	poli_8sides 6_whiteLine3.jpg	Medium_e26_stereo_44KHz.wav
2	200	2	2	1	C	1	1	1356	1	poli_8sides 12_whiteLine3.jpg	Medium_e21_stereo_44KHz.wav
3	1	1	1	1	C	2	0	1092	0	poli_8sides 11_whiteLine3.jpg	MediumLong_b10_cut2_L_stereo_44KHz.wav
3	2	2	1	0	C	2	1	832	1	poli_8sides 9_whiteLine3.jpg	MediumLong_b10_cut2_L_stereo_44KHz.wav
3	3	3	4	2	I	2	0	1814	1	poli_8sides 1_whiteLine3.jpg	MediumLong_e17_cut2_stereo_44KHz.wav
3	4	4	3	2	I	2	0	1856	0	poli_8sides 3_whiteLine3.jpg	MediumLong_e19_stereo_44KHz.wav
3	5	1	2	0	C	2	1	1436	1	poli_8sides 11_whiteLine3.jpg	MediumLong_e04_stereo_44KHz.wav
3	6	3	3	2	I	1	0	1375	1	poli_8sides 1_whiteLine3.jpg	MediumLong_e19_stereo_44KHz.wav
3	7	4	4	2	I	2	0	1976	1	poli_8sides 3_whiteLine3.jpg	MediumLong_e17_cut2_stereo_44KHz.wav
3	8	2	2	1	C	1	1	1301	1	poli_8sides 9_whiteLine3.jpg	MediumLong_e04_stereo_44KHz.wav
3	9	3	4	2	I	1	0	1776	0	poli_8sides 1_whiteLine3.jpg	MediumLong_e17_cut2_stereo_44KHz.wav
3	10	4	4	2	I	1	0	1043	0	poli_8sides 3_whiteLine3.jpg	MediumLong_e17_cut2_stereo_44KHz.wav
3	11	2	1	0	C	2	1	1236	1	poli_8sides 9_whiteLine3.jpg	MediumLong_b10_cut2_L_stereo_44KHz.wav
3	12	1	1	1	C	1	1	1427	1	poli_8sides 11_whiteLine3.jpg	MediumLong_b10_cut2_L_stereo_44KHz.wav
3	13	4	3	2	I	1	0	1264	0	poli_8sides 3_whiteLine3.jpg	MediumLong_e19_stereo_44KHz.wav
3	14	2	2	1	C	1	1	1857	1	poli_8sides 9_whiteLine3.jpg	MediumLong_e04_stereo_44KHz.wav
3	15	3	3	2	I	1	0	1793	1	poli_8sides 1_whiteLine3.jpg	MediumLong_e19_stereo_44KHz.wav
3	16	1	2	0	C	2	1	1064	1	poli_8sides 11_whiteLine3.jpg	MediumLong_e04_stereo_44KHz.wav
3	17	3	4	2	I	2	0	1879	0	poli_8sides 1_whiteLine3.jpg	MediumLong_e17_cut2_stereo_44KHz.wav
3	18	4	4	2	I	2	0	928	0	poli_8sides 3_whiteLine3.jpg	MediumLong_e17_cut2_stereo_44KHz.wav
3	19	2	1	0	C	1	0	1956	0	poli_8sides 9_whiteLine3.jpg	MediumLong_b10_cut2_L_stereo_44KHz.wav
3	20	1	2	0	C	2	1	696	1	poli_8sides 11_whiteLine3.jpg	MediumLong_e04_stereo_44KHz.wav
3	21	3	3	2	I	2	0	1761	0	poli_8sides 1_whiteLine3.jpg	MediumLong_e19_stereo_44KHz.wav
3	22	1	1	1	C	1	1	917	1	poli_8sides 11_whiteLine3.jpg	MediumLong_b10_cut2_L_stereo_44KHz.wav
3	23	2	2	1	C	1	1	1877	1	poli_8sides 9_whiteLine3.jpg	MediumLong_e04_stereo_44KHz.wav
3	24	4	3	2	I	1	0	1835	1	poli_8sides 3_whiteLine3.jpg	MediumLong_e19_stereo_44KHz.wav
3	25	2	2	1	C	1	1	899	1	poli_8sides 9_whiteLine3.jpg	MediumLong_e04_stereo_44KHz.wav
3	26	3	4	2	I	2	0	1157	0	poli_8sides 1_whiteLine3.jpg	MediumLong_e17_cut2_stereo_44KHz.wav
3	27	4	3	2	I	2	0	1118	1	poli_8sides 3_whiteLine3.jpg	MediumLong_e19_stereo_44KHz.wav
3	28	1	2	0	C	2	1	762	1	poli_8sides 11_whiteLine3.jpg	MediumLong_e04_stereo_44KHz.wav
3	29	4	4	2	I	2	0	1112	1	poli_8sides 3_whiteLine3.jpg	MediumLong_e17_cut2_stereo_44KHz.wav
3	30	1	1	1	C	1	1	1291	1	poli_8sides 11_whiteLine3.jpg	MediumLong_b10_cut2_L_stereo_44KHz.wav
3	31	3	3	2	I	1	0	1341	0	poli_8sides 1_whiteLine3.jpg	MediumLong_e19_stereo_44KHz.wav
3	32	2	1	0	C	2	1	1287	1	poli_8sides 9_whiteLine3.jpg	MediumLong_b10_cut2_L_stereo_44KHz.wav
3	33	3	4	2	I	2	0	1100	0	poli_8sides 1_whiteLine3.jpg	MediumLong_e17_cut2_stereo_44KHz.wav
3	34	1	2	0	C	2	1	826	1	poli_8sides 11_whiteLine3.jpg	MediumLong_e04_stereo_44KHz.wav
3	35	2	2	1	C	1	1	937	1	poli_8sides 9_whiteLine3.jpg	MediumLong_e04_stereo_44KHz.wav
3	36	4	4	2	I	2	0	1293	1	poli_8sides 3_whiteLine3.jpg	MediumLong_e17_cut2_stereo_44KHz.wav
3	37	1	1	1	C	1	1	760	1	poli_8sides 11_whiteLine3.jpg	MediumLong_b10_cut2_L_stereo_44KHz.wav
3	38	3	3	2	I	1	0	1517	0	poli_8sides 1_whiteLine3.jpg	MediumLong_e19_stereo_44KHz.wav
3	39	2	1	0	C	2	1	919	1	poli_8sides 9_whiteLine3.jpg	MediumLong_b10_cut2_L_stereo_44KHz.wav
3	40	4	3	2	I	2	0	1719	1	poli_8sides 3_whiteLine3.jpg	MediumLong_e19_stereo_44KHz.wav
3	41	3	3	2	I	1	0	1754	0	poli_8sides 1_whiteLine3.jpg	MediumLong_e19_stereo_44KHz.wav
3	42	2	2	1	C	1	1	1098	1	poli_8sides 9_whiteLine3.jpg	MediumLong_e04_stereo_44KHz.wav
3	43	1	1	1	C	1	1	1219	1	poli_8sides 11_whiteLine3.jpg	MediumLong_b10_cut2_L_stereo_44KHz.wav
3	44	4	3	2	I	2	0	1570	0	poli_8sides 3_whiteLine3.jpg	MediumLong_e19_stereo_44KHz.wav
3	45	2	1	0	C	2	1	940	1	poli_8sides 9_whiteLine3.jpg	MediumLong_b10_cut2_L_stereo_44KHz.wav
3	46	4	4	2	I	1	0	1332	0	poli_8sides 3_whiteLine3.jpg	MediumLong_e17_cut2_stereo_44KHz.wav
3	47	3	4	2	I	0	0	0	0	poli_8sides 1_whiteLine3.jpg	MediumLong_e17_cut2_stereo_44KHz.wav
3	48	1	2	0	C	2	1	827	1	poli_8sides 11_whiteLine3.jpg	MediumLong_e04_stereo_44KHz.wav
3	49	3	4	2	I	2	0	1357	0	poli_8sides 1_whiteLine3.jpg	MediumLong_e17_cut2_stereo_44KHz.wav
3	50	4	4	2	I	2	0	967	0	poli_8sides 3_whiteLine3.jpg	MediumLong_e17_cut2_stereo_44KHz.wav
3	51	2	2	1	C	1	1	902	1	poli_8sides 9_whiteLine3.jpg	MediumLong_e04_stereo_44KHz.wav
3	52	1	2	0	C	2	1	815	1	poli_8sides 11_whiteLine3.jpg	MediumLong_e04_stereo_44KHz.wav
3	53	4	3	2	I	1	0	1262	1	poli_8sides 3_whiteLine3.jpg	MediumLong_e19_stereo_44KHz.wav
3	54	1	1	1	C	1	1	990	1	poli_8sides 11_whiteLine3.jpg	MediumLong_b10_cut2_L_stereo_44KHz.wav
3	55	3	3	2	I	1	0	768	1	poli_8sides 1_whiteLine3.jpg	MediumLong_e19_stereo_44KHz.wav
3	56	2	1	0	C	2	1	804	1	poli_8sides 9_whiteLine3.jpg	MediumLong_b10_cut2_L_stereo_44KHz.wav
3	57	3	3	2	I	1	0	1341	1	poli_8sides 1_whiteLine3.jpg	MediumLong_e19_stereo_44KHz.wav
3	58	1	2	0	C	2	1	725	1	poli_8sides 11_whiteLine3.jpg	MediumLong_e04_stereo_44KHz.wav
3	59	2	2	1	C	1	1	1057	1	poli_8sides 9_whiteLine3.jpg	MediumLong_e04_stereo_44KHz.wav
3	60	4	3	2	I	2	0	1654	1	poli_8sides 3_whiteLine3.jpg	MediumLong_e19_stereo_44KHz.wav
3	61	2	1	0	C	2	1	901	1	poli_8sides 9_whiteLine3.jpg	MediumLong_b10_cut2_L_stereo_44KHz.wav
3	62	1	1	1	C	1	1	889	1	poli_8sides 11_whiteLine3.jpg	MediumLong_b10_cut2_L_stereo_44KHz.wav
3	63	3	4	2	I	2	0	1432	0	poli_8sides 1_whiteLine3.jpg	MediumLong_e17_cut2_stereo_44KHz.wav
3	64	4	4	2	I	2	0	1140	0	poli_8sides 3_whiteLine3.jpg	MediumLong_e17_cut2_stereo_44KHz.wav
3	65	3	3	2	I	1	0	1503	1	poli_8sides 1_whiteLine3.jpg	MediumLong_e19_stereo_44KHz.wav
3	66	2	1	0	C	2	1	863	1	poli_8sides 9_whiteLine3.jpg	MediumLong_b10_cut2_L_stereo_44KHz.wav
3	67	4	4	2	I	2	0	667	1	poli_8sides 3_whiteLine3.jpg	MediumLong_e17_cut2_stereo_44KHz.wav
3	68	1	2	0	C	2	1	667	1	poli_8sides 11_whiteLine3.jpg	MediumLong_e04_stereo_44KHz.wav
3	69	3	4	2	I	1	0	885	0	poli_8sides 1_whiteLine3.jpg	MediumLong_e17_cut2_stereo_44KHz.wav
3	70	1	1	1	C	1	1	1076	1	poli_8sides 11_whiteLine3.jpg	MediumLong_b10_cut2_L_stereo_44KHz.wav
3	71	4	3	2	I	2	0	983	1	poli_8sides 3_whiteLine3.jpg	MediumLong_e19_stereo_44KHz.wav
3	72	2	2	1	C	2	0	870	0	poli_8sides 9_whiteLine3.jpg	MediumLong_e04_stereo_44KHz.wav
3	73	3	4	2	I	2	0	894	1	poli_8sides 1_whiteLine3.jpg	MediumLong_e17_cut2_stereo_44KHz.wav
3	74	4	3	2	I	2	0	870	1	poli_8sides 3_whiteLine3.jpg	MediumLong_e19_stereo_44KHz.wav
3	75	1	1	1	C	0	0	0	0	poli_8sides 11_whiteLine3.jpg	MediumLong_b10_cut2_L_stereo_44KHz.wav
3	76	2	1	0	C	2	1	881	1	poli_8sides 9_whiteLine3.jpg	MediumLong_b10_cut2_L_stereo_44KHz.wav
3	77	4	4	2	I	2	0	800	1	poli_8sides 3_whiteLine3.jpg	MediumLong_e17_cut2_stereo_44KHz.wav
3	78	1	2	0	C	2	1	825	1	poli_8sides 11_whiteLine3.jpg	MediumLong_e04_stereo_44KHz.wav
3	79	2	2	1	C	1	1	1235	1	poli_8sides 9_whiteLine3.jpg	MediumLong_e04_stereo_44KHz.wav
3	80	3	3	2	I	2	0	1765	0	poli_8sides 1_whiteLine3.jpg	MediumLong_e19_stereo_44KHz.wav
3	81	4	3	2	I	2	0	428	0	poli_8sides 3_whiteLine3.jpg	MediumLong_e19_stereo_44KHz.wav
3	82	2	2	1	C	2	0	605	0	poli_8sides 9_whiteLine3.jpg	MediumLong_e04_stereo_44KHz.wav
3	83	1	2	0	C	2	1	474	1	poli_8sides 11_whiteLine3.jpg	MediumLong_e04_stereo_44KHz.wav
3	84	3	3	2	I	1	0	1701	1	poli_8sides 1_whiteLine3.jpg	MediumLong_e19_stereo_44KHz.wav
3	85	1	1	1	C	2	0	961	0	poli_8sides 11_whiteLine3.jpg	MediumLong_b10_cut2_L_stereo_44KHz.wav
3	86	4	4	2	I	2	0	1288	0	poli_8sides 3_whiteLine3.jpg	MediumLong_e17_cut2_stereo_44KHz.wav
3	87	2	1	0	C	2	1	797	1	poli_8sides 9_whiteLine3.jpg	MediumLong_b10_cut2_L_stereo_44KHz.wav
3	88	3	4	2	I	2	0	1732	1	poli_8sides 1_whiteLine3.jpg	MediumLong_e17_cut2_stereo_44KHz.wav
3	89	4	4	2	I	1	0	1194	0	poli_8sides 3_whiteLine3.jpg	MediumLong_e17_cut2_stereo_44KHz.wav
3	90	3	3	2	I	2	0	1537	1	poli_8sides 1_whiteLine3.jpg	MediumLong_e19_stereo_44KHz.wav
3	91	2	2	1	C	1	1	1252	1	poli_8sides 9_whiteLine3.jpg	MediumLong_e04_stereo_44KHz.wav
3	92	1	1	1	C	1	1	1059	1	poli_8sides 11_whiteLine3.jpg	MediumLong_b10_cut2_L_stereo_44KHz.wav
3	93	3	4	2	I	1	0	1623	1	poli_8sides 1_whiteLine3.jpg	MediumLong_e17_cut2_stereo_44KHz.wav
3	94	4	3	2	I	2	0	954	1	poli_8sides 3_whiteLine3.jpg	MediumLong_e19_stereo_44KHz.wav
3	95	1	2	0	C	2	1	1303	1	poli_8sides 11_whiteLine3.jpg	MediumLong_e04_stereo_44KHz.wav
3	96	2	1	0	C	2	1	1481	1	poli_8sides 9_whiteLine3.jpg	MediumLong_b10_cut2_L_stereo_44KHz.wav
3	97	1	1	1	C	1	1	826	1	poli_8sides 11_whiteLine3.jpg	MediumLong_b10_cut2_L_stereo_44KHz.wav
3	98	4	3	2	I	2	0	1246	1	poli_8sides 3_whiteLine3.jpg	MediumLong_e19_stereo_44KHz.wav
3	99	2	2	1	C	1	1	955	1	poli_8sides 9_whiteLine3.jpg	MediumLong_e04_stereo_44KHz.wav
3	100	3	3	2	I	1	0	1475	0	poli_8sides 1_whiteLine3.jpg	MediumLong_e19_stereo_44KHz.wav
3	101	2	1	0	C	2	1	1021	1	poli_8sides 9_whiteLine3.jpg	MediumLong_b10_cut2_L_stereo_44KHz.wav
3	102	1	2	0	C	2	1	872	1	poli_8sides 11_whiteLine3.jpg	MediumLong_e04_stereo_44KHz.wav
3	103	3	4	2	I	2	0	1655	0	poli_8sides 1_whiteLine3.jpg	MediumLong_e17_cut2_stereo_44KHz.wav
3	104	4	4	2	I	1	0	1213	0	poli_8sides 3_whiteLine3.jpg	MediumLong_e17_cut2_stereo_44KHz.wav
3	105	2	2	1	C	1	1	1313	1	poli_8sides 9_whiteLine3.jpg	MediumLong_e04_stereo_44KHz.wav
3	106	4	3	2	I	2	0	1348	1	poli_8sides 3_whiteLine3.jpg	MediumLong_e19_stereo_44KHz.wav
3	107	1	1	1	C	1	1	946	1	poli_8sides 11_whiteLine3.jpg	MediumLong_b10_cut2_L_stereo_44KHz.wav
3	108	3	4	2	I	2	0	1338	0	poli_8sides 1_whiteLine3.jpg	MediumLong_e17_cut2_stereo_44KHz.wav
3	109	1	2	0	C	2	1	1493	1	poli_8sides 11_whiteLine3.jpg	MediumLong_e04_stereo_44KHz.wav
3	110	2	1	0	C	2	1	1754	1	poli_8sides 9_whiteLine3.jpg	MediumLong_b10_cut2_L_stereo_44KHz.wav
3	111	3	3	2	I	1	0	1105	1	poli_8sides 1_whiteLine3.jpg	MediumLong_e19_stereo_44KHz.wav
3	112	4	4	2	I	2	0	1137	1	poli_8sides 3_whiteLine3.jpg	MediumLong_e17_cut2_stereo_44KHz.wav
3	113	3	3	2	I	2	0	1236	1	poli_8sides 1_whiteLine3.jpg	MediumLong_e19_stereo_44KHz.wav
3	114	4	4	2	I	2	0	752	0	poli_8sides 3_whiteLine3.jpg	MediumLong_e17_cut2_stereo_44KHz.wav
3	115	2	1	0	C	2	1	935	1	poli_8sides 9_whiteLine3.jpg	MediumLong_b10_cut2_L_stereo_44KHz.wav
3	116	1	2	0	C	2	1	1256	1	poli_8sides 11_whiteLine3.jpg	MediumLong_e04_stereo_44KHz.wav
3	117	4	3	2	I	2	0	1107	1	poli_8sides 3_whiteLine3.jpg	MediumLong_e19_stereo_44KHz.wav
3	118	2	2	1	C	1	1	1574	1	poli_8sides 9_whiteLine3.jpg	MediumLong_e04_stereo_44KHz.wav
3	119	1	1	1	C	1	1	1077	1	poli_8sides 11_whiteLine3.jpg	MediumLong_b10_cut2_L_stereo_44KHz.wav
3	120	3	4	2	I	2	0	1491	1	poli_8sides 1_whiteLine3.jpg	MediumLong_e17_cut2_stereo_44KHz.wav
3	121	2	1	0	C	2	1	1660	1	poli_8sides 9_whiteLine3.jpg	MediumLong_b10_cut2_L_stereo_44KHz.wav
3	122	3	3	2	I	2	0	1053	1	poli_8sides 1_whiteLine3.jpg	MediumLong_e19_stereo_44KHz.wav
3	123	4	3	2	I	2	0	906	0	poli_8sides 3_whiteLine3.jpg	MediumLong_e19_stereo_44KHz.wav
3	124	1	1	1	C	1	1	1130	1	poli_8sides 11_whiteLine3.jpg	MediumLong_b10_cut2_L_stereo_44KHz.wav
3	125	3	4	2	I	2	0	1506	0	poli_8sides 1_whiteLine3.jpg	MediumLong_e17_cut2_stereo_44KHz.wav
3	126	4	4	2	I	2	0	1298	0	poli_8sides 3_whiteLine3.jpg	MediumLong_e17_cut2_stereo_44KHz.wav
3	127	2	2	1	C	1	1	1798	1	poli_8sides 9_whiteLine3.jpg	MediumLong_e04_stereo_44KHz.wav
3	128	1	2	0	C	2	1	788	1	poli_8sides 11_whiteLine3.jpg	MediumLong_e04_stereo_44KHz.wav
3	129	2	2	1	C	1	1	919	1	poli_8sides 9_whiteLine3.jpg	MediumLong_e04_stereo_44KHz.wav
3	130	1	2	0	C	2	1	950	1	poli_8sides 11_whiteLine3.jpg	MediumLong_e04_stereo_44KHz.wav
3	131	3	4	2	I	2	0	1316	0	poli_8sides 1_whiteLine3.jpg	MediumLong_e17_cut2_stereo_44KHz.wav
3	132	4	4	2	I	2	0	575	1	poli_8sides 3_whiteLine3.jpg	MediumLong_e17_cut2_stereo_44KHz.wav
3	133	1	1	1	C	1	1	1201	1	poli_8sides 11_whiteLine3.jpg	MediumLong_b10_cut2_L_stereo_44KHz.wav
3	134	3	3	2	I	2	0	1540	0	poli_8sides 1_whiteLine3.jpg	MediumLong_e19_stereo_44KHz.wav
3	135	2	1	0	C	2	1	1406	1	poli_8sides 9_whiteLine3.jpg	MediumLong_b10_cut2_L_stereo_44KHz.wav
3	136	4	3	2	I	2	0	1016	1	poli_8sides 3_whiteLine3.jpg	MediumLong_e19_stereo_44KHz.wav
3	137	1	1	1	C	1	1	1404	1	poli_8sides 11_whiteLine3.jpg	MediumLong_b10_cut2_L_stereo_44KHz.wav
3	138	4	4	2	I	1	0	1623	0	poli_8sides 3_whiteLine3.jpg	MediumLong_e17_cut2_stereo_44KHz.wav
3	139	2	2	1	C	1	1	1167	1	poli_8sides 9_whiteLine3.jpg	MediumLong_e04_stereo_44KHz.wav
3	140	3	3	2	I	2	0	1686	1	poli_8sides 1_whiteLine3.jpg	MediumLong_e19_stereo_44KHz.wav
3	141	4	3	2	I	1	0	1822	1	poli_8sides 3_whiteLine3.jpg	MediumLong_e19_stereo_44KHz.wav
3	142	2	1	0	C	2	1	1411	1	poli_8sides 9_whiteLine3.jpg	MediumLong_b10_cut2_L_stereo_44KHz.wav
3	143	1	2	0	C	2	1	844	1	poli_8sides 11_whiteLine3.jpg	MediumLong_e04_stereo_44KHz.wav
3	144	3	4	2	I	2	0	1778	1	poli_8sides 1_whiteLine3.jpg	MediumLong_e17_cut2_stereo_44KHz.wav
3	145	1	2	0	C	2	1	890	1	poli_8sides 11_whiteLine3.jpg	MediumLong_e04_stereo_44KHz.wav
3	146	3	4	2	I	2	0	1635	0	poli_8sides 1_whiteLine3.jpg	MediumLong_e17_cut2_stereo_44KHz.wav
3	147	2	2	1	C	1	1	1763	1	poli_8sides 9_whiteLine3.jpg	MediumLong_e04_stereo_44KHz.wav
3	148	4	3	2	I	2	0	1389	0	poli_8sides 3_whiteLine3.jpg	MediumLong_e19_stereo_44KHz.wav
3	149	3	3	2	I	2	0	1292	1	poli_8sides 1_whiteLine3.jpg	MediumLong_e19_stereo_44KHz.wav
3	150	4	4	2	I	2	0	1643	0	poli_8sides 3_whiteLine3.jpg	MediumLong_e17_cut2_stereo_44KHz.wav
3	151	1	1	1	C	1	1	877	1	poli_8sides 11_whiteLine3.jpg	MediumLong_b10_cut2_L_stereo_44KHz.wav
3	152	2	1	0	C	2	1	1745	1	poli_8sides 9_whiteLine3.jpg	MediumLong_b10_cut2_L_stereo_44KHz.wav
3	153	3	4	2	I	2	0	1000	1	poli_8sides 1_whiteLine3.jpg	MediumLong_e17_cut2_stereo_44KHz.wav
3	154	4	3	2	I	2	0	1518	0	poli_8sides 3_whiteLine3.jpg	MediumLong_e19_stereo_44KHz.wav
3	155	2	2	1	C	2	0	1194	0	poli_8sides 9_whiteLine3.jpg	MediumLong_e04_stereo_44KHz.wav
3	156	1	2	0	C	2	1	646	1	poli_8sides 11_whiteLine3.jpg	MediumLong_e04_stereo_44KHz.wav
3	157	2	1	0	C	2	1	1233	1	poli_8sides 9_whiteLine3.jpg	MediumLong_b10_cut2_L_stereo_44KHz.wav
3	158	4	4	2	I	2	0	1052	0	poli_8sides 3_whiteLine3.jpg	MediumLong_e17_cut2_stereo_44KHz.wav
3	159	1	1	1	C	1	1	909	1	poli_8sides 11_whiteLine3.jpg	MediumLong_b10_cut2_L_stereo_44KHz.wav
3	160	3	3	2	I	2	0	1424	0	poli_8sides 1_whiteLine3.jpg	MediumLong_e19_stereo_44KHz.wav
3	161	1	1	1	C	1	1	1215	1	poli_8sides 11_whiteLine3.jpg	MediumLong_b10_cut2_L_stereo_44KHz.wav
3	162	3	3	2	I	2	0	1779	1	poli_8sides 1_whiteLine3.jpg	MediumLong_e19_stereo_44KHz.wav
3	163	4	3	2	I	1	0	1144	0	poli_8sides 3_whiteLine3.jpg	MediumLong_e19_stereo_44KHz.wav
3	164	2	2	1	C	2	0	999	0	poli_8sides 9_whiteLine3.jpg	MediumLong_e04_stereo_44KHz.wav
3	165	4	4	2	I	1	0	1014	1	poli_8sides 3_whiteLine3.jpg	MediumLong_e17_cut2_stereo_44KHz.wav
3	166	2	1	0	C	2	1	1111	1	poli_8sides 9_whiteLine3.jpg	MediumLong_b10_cut2_L_stereo_44KHz.wav
3	167	1	2	0	C	2	1	753	1	poli_8sides 11_whiteLine3.jpg	MediumLong_e04_stereo_44KHz.wav
3	168	3	4	2	I	2	0	1081	0	poli_8sides 1_whiteLine3.jpg	MediumLong_e17_cut2_stereo_44KHz.wav
3	169	2	2	1	C	2	0	973	0	poli_8sides 9_whiteLine3.jpg	MediumLong_e04_stereo_44KHz.wav
3	170	1	1	1	C	1	1	1242	1	poli_8sides 11_whiteLine3.jpg	MediumLong_b10_cut2_L_stereo_44KHz.wav
3	171	4	3	2	I	2	0	1103	0	poli_8sides 3_whiteLine3.jpg	MediumLong_e19_stereo_44KHz.wav
3	172	3	3	2	I	2	0	1014	1	poli_8sides 1_whiteLine3.jpg	MediumLong_e19_stereo_44KHz.wav
3	173	1	2	0	C	2	1	833	1	poli_8sides 11_whiteLine3.jpg	MediumLong_e04_stereo_44KHz.wav
3	174	3	4	2	I	2	0	1654	1	poli_8sides 1_whiteLine3.jpg	MediumLong_e17_cut2_stereo_44KHz.wav
3	175	2	1	0	C	2	1	950	1	poli_8sides 9_whiteLine3.jpg	MediumLong_b10_cut2_L_stereo_44KHz.wav
3	176	4	4	2	I	2	0	1247	1	poli_8sides 3_whiteLine3.jpg	MediumLong_e17_cut2_stereo_44KHz.wav
3	177	2	1	0	C	2	1	768	1	poli_8sides 9_whiteLine3.jpg	MediumLong_b10_cut2_L_stereo_44KHz.wav
3	178	4	4	2	I	2	0	990	1	poli_8sides 3_whiteLine3.jpg	MediumLong_e17_cut2_stereo_44KHz.wav
3	179	1	1	1	C	1	1	1002	1	poli_8sides 11_whiteLine3.jpg	MediumLong_b10_cut2_L_stereo_44KHz.wav
3	180	3	3	2	I	2	0	1232	0	poli_8sides 1_whiteLine3.jpg	MediumLong_e19_stereo_44KHz.wav
3	181	4	3	2	I	2	0	1455	0	poli_8sides 3_whiteLine3.jpg	MediumLong_e19_stereo_44KHz.wav
3	182	2	2	1	C	1	1	1259	1	poli_8sides 9_whiteLine3.jpg	MediumLong_e04_stereo_44KHz.wav
3	183	1	2	0	C	2	1	972	1	poli_8sides 11_whiteLine3.jpg	MediumLong_e04_stereo_44KHz.wav
3	184	3	4	2	I	1	0	1343	0	poli_8sides 1_whiteLine3.jpg	MediumLong_e17_cut2_stereo_44KHz.wav
3	185	1	1	1	C	1	1	946	1	poli_8sides 11_whiteLine3.jpg	MediumLong_b10_cut2_L_stereo_44KHz.wav
3	186	4	3	2	I	1	0	884	0	poli_8sides 3_whiteLine3.jpg	MediumLong_e19_stereo_44KHz.wav
3	187	3	4	2	I	1	0	820	1	poli_8sides 1_whiteLine3.jpg	MediumLong_e17_cut2_stereo_44KHz.wav
3	188	2	2	1	C	1	1	1260	1	poli_8sides 9_whiteLine3.jpg	MediumLong_e04_stereo_44KHz.wav
3	189	1	2	0	C	2	1	733	1	poli_8sides 11_whiteLine3.jpg	MediumLong_e04_stereo_44KHz.wav
3	190	3	3	2	I	1	0	851	1	poli_8sides 1_whiteLine3.jpg	MediumLong_e19_stereo_44KHz.wav
3	191	2	1	0	C	2	1	1528	1	poli_8sides 9_whiteLine3.jpg	MediumLong_b10_cut2_L_stereo_44KHz.wav
3	192	4	4	2	I	2	0	1055	1	poli_8sides 3_whiteLine3.jpg	MediumLong_e17_cut2_stereo_44KHz.wav
3	193	3	3	2	I	2	0	1257	1	poli_8sides 1_whiteLine3.jpg	MediumLong_e19_stereo_44KHz.wav
3	194	2	1	0	C	2	1	1708	1	poli_8sides 9_whiteLine3.jpg	MediumLong_b10_cut2_L_stereo_44KHz.wav
3	195	4	4	2	I	2	0	1702	1	poli_8sides 3_whiteLine3.jpg	MediumLong_e17_cut2_stereo_44KHz.wav
3	196	1	2	0	C	2	1	842	1	poli_8sides 11_whiteLine3.jpg	MediumLong_e04_stereo_44KHz.wav
3	197	2	2	1	C	1	1	1237	1	poli_8sides 9_whiteLine3.jpg	MediumLong_e04_stereo_44KHz.wav
3	198	3	4	2	I	1	0	1208	0	poli_8sides 1_whiteLine3.jpg	MediumLong_e17_cut2_stereo_44KHz.wav
3	199	1	1	1	C	1	1	968	1	poli_8sides 11_whiteLine3.jpg	MediumLong_b10_cut2_L_stereo_44KHz.wav
3	200	4	3	2	I	2	0	1474	0	poli_8sides 3_whiteLine3.jpg	MediumLong_e19_stereo_44KHz.wav
4	1	4	3	2	I	2	0	835	1	poli_8sides 8_whiteLine3.jpg	Short_b20_cut1_stereo_44KHz.wav
4	2	2	1	0	C	2	1	826	1	poli_8sides 2_whiteLine3.jpg	Short_b23_cut1_stereo_44KHz.wav
4	3	1	1	1	C	2	0	1454	0	poli_8sides 15_whiteLine3.jpg	Short_b23_cut1_stereo_44KHz.wav
4	4	3	4	2	I	2	0	626	1	poli_8sides 5_whiteLine3.jpg	Short_b09_cut1_stereo_44KHz.wav
4	5	2	2	1	C	2	0	596	0	poli_8sides 2_whiteLine3.jpg	Short_b22_cut1_stereo_44KHz.wav
4	6	3	3	2	I	2	0	973	0	poli_8sides 5_whiteLine3.jpg	Short_b20_cut1_stereo_44KHz.wav
4	7	4	4	2	I	2	0	1370	0	poli_8sides 8_whiteLine3.jpg	Short_b09_cut1_stereo_44KHz.wav
4	8	1	2	0	C	2	1	1412	1	poli_8sides 15_whiteLine3.jpg	Short_b22_cut1_stereo_44KHz.wav
4	9	2	2	1	C	1	1	1066	1	poli_8sides 2_whiteLine3.jpg	Short_b22_cut1_stereo_44KHz.wav
4	10	3	4	2	I	2	0	1707	1	poli_8sides 5_whiteLine3.jpg	Short_b09_cut1_stereo_44KHz.wav
4	11	4	4	2	I	1	0	1009	1	poli_8sides 8_whiteLine3.jpg	Short_b09_cut1_stereo_44KHz.wav
4	12	1	2	0	C	2	1	1154	1	poli_8sides 15_whiteLine3.jpg	Short_b22_cut1_stereo_44KHz.wav
4	13	3	3	2	I	1	0	1212	0	poli_8sides 5_whiteLine3.jpg	Short_b20_cut1_stereo_44KHz.wav
4	14	1	1	1	C	1	1	1331	1	poli_8sides 15_whiteLine3.jpg	Short_b23_cut1_stereo_44KHz.wav
4	15	4	3	2	I	0	0	0	0	poli_8sides 8_whiteLine3.jpg	Short_b20_cut1_stereo_44KHz.wav
4	16	2	1	0	C	1	0	1180	0	poli_8sides 2_whiteLine3.jpg	Short_b23_cut1_stereo_44KHz.wav
4	17	4	3	2	I	2	0	925	0	poli_8sides 8_whiteLine3.jpg	Short_b20_cut1_stereo_44KHz.wav
4	18	2	2	1	C	2	0	598	0	poli_8sides 2_whiteLine3.jpg	Short_b22_cut1_stereo_44KHz.wav
4	19	3	3	2	I	2	0	540	0	poli_8sides 5_whiteLine3.jpg	Short_b20_cut1_stereo_44KHz.wav
4	20	1	2	0	C	2	1	551	1	poli_8sides 15_whiteLine3.jpg	Short_b22_cut1_stereo_44KHz.wav
4	21	3	4	2	I	2	0	875	0	poli_8sides 5_whiteLine3.jpg	Short_b09_cut1_stereo_44KHz.wav
4	22	4	4	2	I	2	0	844	0	poli_8sides 8_whiteLine3.jpg	Short_b09_cut1_stereo_44KHz.wav
4	23	2	1	0	C	2	1	847	1	poli_8sides 2_whiteLine3.jpg	Short_b23_cut1_stereo_44KHz.wav
4	24	1	1	1	C	1	1	1065	1	poli_8sides 15_whiteLine3.jpg	Short_b23_cut1_stereo_44KHz.wav
4	25	3	3	2	I	2	0	1280	0	poli_8sides 5_whiteLine3.jpg	Short_b20_cut1_stereo_44KHz.wav
4	26	4	4	2	I	2	0	1071	0	poli_8sides 8_whiteLine3.jpg	Short_b09_cut1_stereo_44KHz.wav
4	27	1	1	1	C	1	1	1327	1	poli_8sides 15_whiteLine3.jpg	Short_b23_cut1_stereo_44KHz.wav
4	28	2	2	1	C	1	1	952	1	poli_8sides 2_whiteLine3.jpg	Short_b22_cut1_stereo_44KHz.wav
4	29	3	4	2	I	1	0	994	0	poli_8sides 5_whiteLine3.jpg	Short_b09_cut1_stereo_44KHz.wav
4	30	1	2	0	C	2	1	963	1	poli_8sides 15_whiteLine3.jpg	Short_b22_cut1_stereo_44KHz.wav
4	31	2	1	0	C	1	0	809	0	poli_8sides 2_whiteLine3.jpg	Short_b23_cut1_stereo_44KHz.wav
4	32	4	3	2	I	1	0	902	0	poli_8sides 8_whiteLine3.jpg	Short_b20_cut1_stereo_44KHz.wav
4	33	3	4	2	I	2	0	1119	0	poli_8sides 5_whiteLine3.jpg	Short_b09_cut1_stereo_44KHz.wav
4	34	2	2	1	C	1	1	939	1	poli_8sides 2_whiteLine3.jpg	Short_b22_cut1_stereo_44KHz.wav
4	35	1	2	0	C	2	1	888	1	poli_8sides 15_whiteLine3.jpg	Short_b22_cut1_stereo_44KHz.wav
4	36	4	4	2	I	1	0	1414	1	poli_8sides 8_whiteLine3.jpg	Short_b09_cut1_stereo_44KHz.wav
4	37	2	1	0	C	2	1	1429	1	poli_8sides 2_whiteLine3.jpg	Short_b23_cut1_stereo_44KHz.wav
4	38	3	3	2	I	2	0	1701	1	poli_8sides 5_whiteLine3.jpg	Short_b20_cut1_stereo_44KHz.wav
4	39	4	3	2	I	0	0	0	0	poli_8sides 8_whiteLine3.jpg	Short_b20_cut1_stereo_44KHz.wav
4	40	1	1	1	C	2	0	1579	0	poli_8sides 15_whiteLine3.jpg	Short_b23_cut1_stereo_44KHz.wav
4	41	2	1	0	C	2	1	1136	1	poli_8sides 2_whiteLine3.jpg	Short_b23_cut1_stereo_44KHz.wav
4	42	1	1	1	C	1	1	1283	1	poli_8sides 15_whiteLine3.jpg	Short_b23_cut1_stereo_44KHz.wav
4	43	3	4	2	I	2	0	1151	0	poli_8sides 5_whiteLine3.jpg	Short_b09_cut1_stereo_44KHz.wav
4	44	4	4	2	I	2	0	811	1	poli_8sides 8_whiteLine3.jpg	Short_b09_cut1_stereo_44KHz.wav
4	45	2	2	1	C	2	0	1280	0	poli_8sides 2_whiteLine3.jpg	Short_b22_cut1_stereo_44KHz.wav
4	46	1	2	0	C	2	1	1184	1	poli_8sides 15_whiteLine3.jpg	Short_b22_cut1_stereo_44KHz.wav
4	47	4	3	2	I	0	0	0	0	poli_8sides 8_whiteLine3.jpg	Short_b20_cut1_stereo_44KHz.wav
4	48	3	3	2	I	2	0	894	1	poli_8sides 5_whiteLine3.jpg	Short_b20_cut1_stereo_44KHz.wav
4	49	4	3	2	I	2	0	1504	0	poli_8sides 8_whiteLine3.jpg	Short_b20_cut1_stereo_44KHz.wav
4	50	3	3	2	I	2	0	932	1	poli_8sides 5_whiteLine3.jpg	Short_b20_cut1_stereo_44KHz.wav
4	51	2	2	1	C	0	0	0	0	poli_8sides 2_whiteLine3.jpg	Short_b22_cut1_stereo_44KHz.wav
4	52	1	2	0	C	2	1	1102	1	poli_8sides 15_whiteLine3.jpg	Short_b22_cut1_stereo_44KHz.wav
4	53	4	4	2	I	1	0	1424	1	poli_8sides 8_whiteLine3.jpg	Short_b09_cut1_stereo_44KHz.wav
4	54	1	1	1	C	0	0	0	0	poli_8sides 15_whiteLine3.jpg	Short_b23_cut1_stereo_44KHz.wav
4	55	2	1	0	C	2	1	992	1	poli_8sides 2_whiteLine3.jpg	Short_b23_cut1_stereo_44KHz.wav
4	56	3	4	2	I	2	0	621	0	poli_8sides 5_whiteLine3.jpg	Short_b09_cut1_stereo_44KHz.wav
4	57	2	1	0	C	2	1	518	1	poli_8sides 2_whiteLine3.jpg	Short_b23_cut1_stereo_44KHz.wav
4	58	4	4	2	I	2	0	936	0	poli_8sides 8_whiteLine3.jpg	Short_b09_cut1_stereo_44KHz.wav
4	59	1	2	0	C	2	1	816	1	poli_8sides 15_whiteLine3.jpg	Short_b22_cut1_stereo_44KHz.wav
4	60	3	4	2	I	1	0	1047	1	poli_8sides 5_whiteLine3.jpg	Short_b09_cut1_stereo_44KHz.wav
4	61	2	2	1	C	2	0	1196	0	poli_8sides 2_whiteLine3.jpg	Short_b22_cut1_stereo_44KHz.wav
4	62	4	3	2	I	2	0	918	0	poli_8sides 8_whiteLine3.jpg	Short_b20_cut1_stereo_44KHz.wav
4	63	1	1	1	C	1	1	1152	1	poli_8sides 15_whiteLine3.jpg	Short_b23_cut1_stereo_44KHz.wav
4	64	3	3	2	I	2	0	1216	1	poli_8sides 5_whiteLine3.jpg	Short_b20_cut1_stereo_44KHz.wav
4	65	2	1	0	C	2	1	924	1	poli_8sides 2_whiteLine3.jpg	Short_b23_cut1_stereo_44KHz.wav
4	66	4	4	2	I	2	0	1054	1	poli_8sides 8_whiteLine3.jpg	Short_b09_cut1_stereo_44KHz.wav
4	67	1	1	1	C	2	0	1078	0	poli_8sides 15_whiteLine3.jpg	Short_b23_cut1_stereo_44KHz.wav
4	68	3	3	2	I	2	0	1183	0	poli_8sides 5_whiteLine3.jpg	Short_b20_cut1_stereo_44KHz.wav
4	69	1	2	0	C	2	1	880	1	poli_8sides 15_whiteLine3.jpg	Short_b22_cut1_stereo_44KHz.wav
4	70	4	3	2	I	2	0	781	1	poli_8sides 8_whiteLine3.jpg	Short_b20_cut1_stereo_44KHz.wav
4	71	2	2	1	C	2	0	1076	0	poli_8sides 2_whiteLine3.jpg	Short_b22_cut1_stereo_44KHz.wav
4	72	3	4	2	I	2	0	819	1	poli_8sides 5_whiteLine3.jpg	Short_b09_cut1_stereo_44KHz.wav
4	73	2	2	1	C	1	1	1153	1	poli_8sides 2_whiteLine3.jpg	Short_b22_cut1_stereo_44KHz.wav
4	74	3	4	2	I	2	0	816	0	poli_8sides 5_whiteLine3.jpg	Short_b09_cut1_stereo_44KHz.wav
4	75	4	3	2	I	2	0	971	1	poli_8sides 8_whiteLine3.jpg	Short_b20_cut1_stereo_44KHz.wav
4	76	1	1	1	C	2	0	1061	0	poli_8sides 15_whiteLine3.jpg	Short_b23_cut1_stereo_44KHz.wav
4	77	2	1	0	C	2	1	1786	1	poli_8sides 2_whiteLine3.jpg	Short_b23_cut1_stereo_44KHz.wav
4	78	1	2	0	C	2	1	795	1	poli_8sides 15_whiteLine3.jpg	Short_b22_cut1_stereo_44KHz.wav
4	79	4	4	2	I	2	0	915	0	poli_8sides 8_whiteLine3.jpg	Short_b09_cut1_stereo_44KHz.wav
4	80	3	3	2	I	2	0	767	1	poli_8sides 5_whiteLine3.jpg	Short_b20_cut1_stereo_44KHz.wav
4	81	1	2	0	C	2	1	1083	1	poli_8sides 15_whiteLine3.jpg	Short_b22_cut1_stereo_44KHz.wav
4	82	4	3	2	I	2	0	1054	0	poli_8sides 8_whiteLine3.jpg	Short_b20_cut1_stereo_44KHz.wav
4	83	2	1	0	C	2	1	711	1	poli_8sides 2_whiteLine3.jpg	Short_b23_cut1_stereo_44KHz.wav
4	84	3	3	2	I	2	0	760	1	poli_8sides 5_whiteLine3.jpg	Short_b20_cut1_stereo_44KHz.wav
4	85	2	2	1	C	2	0	1498	0	poli_8sides 2_whiteLine3.jpg	Short_b22_cut1_stereo_44KHz.wav
4	86	3	4	2	I	2	0	951	0	poli_8sides 5_whiteLine3.jpg	Short_b09_cut1_stereo_44KHz.wav
4	87	4	4	2	I	2	0	955	1	poli_8sides 8_whiteLine3.jpg	Short_b09_cut1_stereo_44KHz.wav
4	88	1	1	1	C	2	0	981	0	poli_8sides 15_whiteLine3.jpg	Short_b23_cut1_stereo_44KHz.wav
4	89	3	3	2	I	2	0	1380	1	poli_8sides 5_whiteLine3.jpg	Short_b20_cut1_stereo_44KHz.wav
4	90	2	1	0	C	1	0	1033	0	poli_8sides 2_whiteLine3.jpg	Short_b23_cut1_stereo_44KHz.wav
4	91	1	1	1	C	1	1	1225	1	poli_8sides 15_whiteLine3.jpg	Short_b23_cut1_stereo_44KHz.wav
4	92	4	3	2	I	1	0	1376	1	poli_8sides 8_whiteLine3.jpg	Short_b20_cut1_stereo_44KHz.wav
4	93	1	2	0	C	2	1	1280	1	poli_8sides 15_whiteLine3.jpg	Short_b22_cut1_stereo_44KHz.wav
4	94	2	2	1	C	1	1	1051	1	poli_8sides 2_whiteLine3.jpg	Short_b22_cut1_stereo_44KHz.wav
4	95	3	4	2	I	2	0	1147	0	poli_8sides 5_whiteLine3.jpg	Short_b09_cut1_stereo_44KHz.wav
4	96	4	4	2	I	2	0	1066	1	poli_8sides 8_whiteLine3.jpg	Short_b09_cut1_stereo_44KHz.wav
4	97	3	3	2	I	1	0	1060	0	poli_8sides 5_whiteLine3.jpg	Short_b20_cut1_stereo_44KHz.wav
4	98	2	1	0	C	2	1	819	1	poli_8sides 2_whiteLine3.jpg	Short_b23_cut1_stereo_44KHz.wav
4	99	1	1	1	C	1	1	1278	1	poli_8sides 15_whiteLine3.jpg	Short_b23_cut1_stereo_44KHz.wav
4	100	4	3	2	I	2	0	1312	1	poli_8sides 8_whiteLine3.jpg	Short_b20_cut1_stereo_44KHz.wav
4	101	1	2	0	C	2	1	1070	1	poli_8sides 15_whiteLine3.jpg	Short_b22_cut1_stereo_44KHz.wav
4	102	3	4	2	I	2	0	860	1	poli_8sides 5_whiteLine3.jpg	Short_b09_cut1_stereo_44KHz.wav
4	103	4	4	2	I	1	0	1366	1	poli_8sides 8_whiteLine3.jpg	Short_b09_cut1_stereo_44KHz.wav
4	104	2	2	1	C	2	0	1146	0	poli_8sides 2_whiteLine3.jpg	Short_b22_cut1_stereo_44KHz.wav
4	105	1	1	1	C	2	0	1267	0	poli_8sides 15_whiteLine3.jpg	Short_b23_cut1_stereo_44KHz.wav
4	106	4	4	2	I	2	0	747	0	poli_8sides 8_whiteLine3.jpg	Short_b09_cut1_stereo_44KHz.wav
4	107	2	2	1	C	2	0	742	0	poli_8sides 2_whiteLine3.jpg	Short_b22_cut1_stereo_44KHz.wav
4	108	3	3	2	I	1	0	1069	0	poli_8sides 5_whiteLine3.jpg	Short_b20_cut1_stereo_44KHz.wav
4	109	2	1	0	C	2	1	989	1	poli_8sides 2_whiteLine3.jpg	Short_b23_cut1_stereo_44KHz.wav
4	110	4	3	2	I	2	0	1026	0	poli_8sides 8_whiteLine3.jpg	Short_b20_cut1_stereo_44KHz.wav
4	111	1	2	0	C	2	1	1079	1	poli_8sides 15_whiteLine3.jpg	Short_b22_cut1_stereo_44KHz.wav
4	112	3	4	2	I	2	0	1122	0	poli_8sides 5_whiteLine3.jpg	Short_b09_cut1_stereo_44KHz.wav
4	113	1	2	0	C	2	1	854	1	poli_8sides 15_whiteLine3.jpg	Short_b22_cut1_stereo_44KHz.wav
4	114	4	4	2	I	2	0	1178	1	poli_8sides 8_whiteLine3.jpg	Short_b09_cut1_stereo_44KHz.wav
4	115	2	1	0	C	2	1	968	1	poli_8sides 2_whiteLine3.jpg	Short_b23_cut1_stereo_44KHz.wav
4	116	3	3	2	I	2	0	1140	0	poli_8sides 5_whiteLine3.jpg	Short_b20_cut1_stereo_44KHz.wav
4	117	2	2	1	C	2	0	913	0	poli_8sides 2_whiteLine3.jpg	Short_b22_cut1_stereo_44KHz.wav
4	118	3	4	2	I	2	0	762	0	poli_8sides 5_whiteLine3.jpg	Short_b09_cut1_stereo_44KHz.wav
4	119	1	1	1	C	1	1	1432	1	poli_8sides 15_whiteLine3.jpg	Short_b23_cut1_stereo_44KHz.wav
4	120	4	3	2	I	2	0	841	1	poli_8sides 8_whiteLine3.jpg	Short_b20_cut1_stereo_44KHz.wav
4	121	3	3	2	I	1	0	1105	1	poli_8sides 5_whiteLine3.jpg	Short_b20_cut1_stereo_44KHz.wav
4	122	2	2	1	C	2	0	960	0	poli_8sides 2_whiteLine3.jpg	Short_b22_cut1_stereo_44KHz.wav
4	123	1	2	0	C	1	0	1101	0	poli_8sides 15_whiteLine3.jpg	Short_b22_cut1_stereo_44KHz.wav
4	124	4	4	2	I	1	0	998	0	poli_8sides 8_whiteLine3.jpg	Short_b09_cut1_stereo_44KHz.wav
4	125	1	1	1	C	2	0	1559	0	poli_8sides 15_whiteLine3.jpg	Short_b23_cut1_stereo_44KHz.wav
4	126	3	4	2	I	2	0	710	0	poli_8sides 5_whiteLine3.jpg	Short_b09_cut1_stereo_44KHz.wav
4	127	2	1	0	C	2	1	874	1	poli_8sides 2_whiteLine3.jpg	Short_b23_cut1_stereo_44KHz.wav
4	128	4	3	2	I	2	0	897	0	poli_8sides 8_whiteLine3.jpg	Short_b20_cut1_stereo_44KHz.wav
4	129	2	1	0	C	2	1	896	1	poli_8sides 2_whiteLine3.jpg	Short_b23_cut1_stereo_44KHz.wav
4	130	4	3	2	I	1	0	871	0	poli_8sides 8_whiteLine3.jpg	Short_b20_cut1_stereo_44KHz.wav
4	131	1	1	1	C	2	0	1025	0	poli_8sides 15_whiteLine3.jpg	Short_b23_cut1_stereo_44KHz.wav
4	132	3	4	2	I	2	0	1254	1	poli_8sides 5_whiteLine3.jpg	Short_b09_cut1_stereo_44KHz.wav
4	133	1	2	0	C	2	1	827	1	poli_8sides 15_whiteLine3.jpg	Short_b22_cut1_stereo_44KHz.wav
4	134	2	2	1	C	1	1	957	1	poli_8sides 2_whiteLine3.jpg	Short_b22_cut1_stereo_44KHz.wav
4	135	4	4	2	I	2	0	896	0	poli_8sides 8_whiteLine3.jpg	Short_b09_cut1_stereo_44KHz.wav
4	136	3	3	2	I	2	0	745	0	poli_8sides 5_whiteLine3.jpg	Short_b20_cut1_stereo_44KHz.wav
4	137	4	3	2	I	1	0	780	0	poli_8sides 8_whiteLine3.jpg	Short_b20_cut1_stereo_44KHz.wav
4	138	3	3	2	I	1	0	781	0	poli_8sides 5_whiteLine3.jpg	Short_b20_cut1_stereo_44KHz.wav
4	139	1	1	1	C	2	0	947	0	poli_8sides 15_whiteLine3.jpg	Short_b23_cut1_stereo_44KHz.wav
4	140	2	2	1	C	2	0	780	0	poli_8sides 2_whiteLine3.jpg	Short_b22_cut1_stereo_44KHz.wav
4	141	1	2	0	C	2	1	786	1	poli_8sides 15_whiteLine3.jpg	Short_b22_cut1_stereo_44KHz.wav
4	142	2	1	0	C	2	1	1286	1	poli_8sides 2_whiteLine3.jpg	Short_b23_cut1_stereo_44KHz.wav
4	143	4	4	2	I	2	0	880	0	poli_8sides 8_whiteLine3.jpg	Short_b09_cut1_stereo_44KHz.wav
4	144	3	4	2	I	1	0	1153	0	poli_8sides 5_whiteLine3.jpg	Short_b09_cut1_stereo_44KHz.wav
4	145	4	3	2	I	2	0	756	1	poli_8sides 8_whiteLine3.jpg	Short_b20_cut1_stereo_44KHz.wav
4	146	2	1	0	C	2	1	930	1	poli_8sides 2_whiteLine3.jpg	Short_b23_cut1_stereo_44KHz.wav
4	147	1	2	0	C	2	1	870	1	poli_8sides 15_whiteLine3.jpg	Short_b22_cut1_stereo_44KHz.wav
4	148	3	3	2	I	2	0	657	1	poli_8sides 5_whiteLine3.jpg	Short_b20_cut1_stereo_44KHz.wav
4	149	1	1	1	C	2	0	1141	0	poli_8sides 15_whiteLine3.jpg	Short_b23_cut1_stereo_44KHz.wav
4	150	4	4	2	I	1	0	1457	1	poli_8sides 8_whiteLine3.jpg	Short_b09_cut1_stereo_44KHz.wav
4	151	2	2	1	C	2	0	977	0	poli_8sides 2_whiteLine3.jpg	Short_b22_cut1_stereo_44KHz.wav
4	152	3	4	2	I	2	0	740	0	poli_8sides 5_whiteLine3.jpg	Short_b09_cut1_stereo_44KHz.wav
4	153	4	3	2	I	2	0	943	0	poli_8sides 8_whiteLine3.jpg	Short_b20_cut1_stereo_44KHz.wav
4	154	3	3	2	I	1	0	1013	1	poli_8sides 5_whiteLine3.jpg	Short_b20_cut1_stereo_44KHz.wav
4	155	2	1	0	C	2	1	1073	1	poli_8sides 2_whiteLine3.jpg	Short_b23_cut1_stereo_44KHz.wav
4	156	1	2	0	C	2	1	979	1	poli_8sides 15_whiteLine3.jpg	Short_b22_cut1_stereo_44KHz.wav
4	157	4	4	2	I	1	0	963	1	poli_8sides 8_whiteLine3.jpg	Short_b09_cut1_stereo_44KHz.wav
4	158	2	2	1	C	1	1	1418	1	poli_8sides 2_whiteLine3.jpg	Short_b22_cut1_stereo_44KHz.wav
4	159	3	4	2	I	1	0	1123	1	poli_8sides 5_whiteLine3.jpg	Short_b09_cut1_stereo_44KHz.wav
4	160	1	1	1	C	1	1	1358	1	poli_8sides 15_whiteLine3.jpg	Short_b23_cut1_stereo_44KHz.wav
4	161	3	4	2	I	1	0	1236	1	poli_8sides 5_whiteLine3.jpg	Short_b09_cut1_stereo_44KHz.wav
4	162	4	4	2	I	1	0	893	0	poli_8sides 8_whiteLine3.jpg	Short_b09_cut1_stereo_44KHz.wav
4	163	2	2	1	C	2	0	903	0	poli_8sides 2_whiteLine3.jpg	Short_b22_cut1_stereo_44KHz.wav
4	164	1	1	1	C	2	0	689	0	poli_8sides 15_whiteLine3.jpg	Short_b23_cut1_stereo_44KHz.wav
4	165	2	1	0	C	1	0	725	0	poli_8sides 2_whiteLine3.jpg	Short_b23_cut1_stereo_44KHz.wav
4	166	3	3	2	I	1	0	968	0	poli_8sides 5_whiteLine3.jpg	Short_b20_cut1_stereo_44KHz.wav
4	167	1	2	0	C	2	1	967	1	poli_8sides 15_whiteLine3.jpg	Short_b22_cut1_stereo_44KHz.wav
4	168	4	3	2	I	2	0	1151	1	poli_8sides 8_whiteLine3.jpg	Short_b20_cut1_stereo_44KHz.wav
4	169	1	2	0	C	2	1	983	1	poli_8sides 15_whiteLine3.jpg	Short_b22_cut1_stereo_44KHz.wav
4	170	2	1	0	C	1	0	752	0	poli_8sides 2_whiteLine3.jpg	Short_b23_cut1_stereo_44KHz.wav
4	171	4	3	2	I	2	0	1233	1	poli_8sides 8_whiteLine3.jpg	Short_b20_cut1_stereo_44KHz.wav
4	172	3	3	2	I	1	0	762	1	poli_8sides 5_whiteLine3.jpg	Short_b20_cut1_stereo_44KHz.wav
4	173	1	1	1	C	2	0	786	0	poli_8sides 15_whiteLine3.jpg	Short_b23_cut1_stereo_44KHz.wav
4	174	3	4	2	I	1	0	676	1	poli_8sides 5_whiteLine3.jpg	Short_b09_cut1_stereo_44KHz.wav
4	175	4	4	2	I	2	0	1279	1	poli_8sides 8_whiteLine3.jpg	Short_b09_cut1_stereo_44KHz.wav
4	176	2	2	1	C	1	1	1129	1	poli_8sides 2_whiteLine3.jpg	Short_b22_cut1_stereo_44KHz.wav
4	177	1	1	1	C	2	0	809	0	poli_8sides 15_whiteLine3.jpg	Short_b23_cut1_stereo_44KHz.wav
4	178	3	3	2	I	1	0	1105	0	poli_8sides 5_whiteLine3.jpg	Short_b20_cut1_stereo_44KHz.wav
4	179	4	3	2	I	1	0	1511	1	poli_8sides 8_whiteLine3.jpg	Short_b20_cut1_stereo_44KHz.wav
4	180	2	1	0	C	1	0	897	0	poli_8sides 2_whiteLine3.jpg	Short_b23_cut1_stereo_44KHz.wav
4	181	3	4	2	I	1	0	625	1	poli_8sides 5_whiteLine3.jpg	Short_b09_cut1_stereo_44KHz.wav
4	182	4	4	2	I	2	0	1390	0	poli_8sides 8_whiteLine3.jpg	Short_b09_cut1_stereo_44KHz.wav
4	183	2	2	1	C	0	0	0	0	poli_8sides 2_whiteLine3.jpg	Short_b22_cut1_stereo_44KHz.wav
4	184	1	2	0	C	2	1	841	1	poli_8sides 15_whiteLine3.jpg	Short_b22_cut1_stereo_44KHz.wav
4	185	2	2	1	C	1	1	848	1	poli_8sides 2_whiteLine3.jpg	Short_b22_cut1_stereo_44KHz.wav
4	186	3	3	2	I	1	0	905	1	poli_8sides 5_whiteLine3.jpg	Short_b20_cut1_stereo_44KHz.wav
4	187	4	3	2	I	2	0	841	0	poli_8sides 8_whiteLine3.jpg	Short_b20_cut1_stereo_44KHz.wav
4	188	1	1	1	C	2	0	790	0	poli_8sides 15_whiteLine3.jpg	Short_b23_cut1_stereo_44KHz.wav
4	189	3	4	2	I	1	0	644	1	poli_8sides 5_whiteLine3.jpg	Short_b09_cut1_stereo_44KHz.wav
4	190	4	4	2	I	1	0	1184	0	poli_8sides 8_whiteLine3.jpg	Short_b09_cut1_stereo_44KHz.wav
4	191	2	1	0	C	1	0	671	0	poli_8sides 2_whiteLine3.jpg	Short_b23_cut1_stereo_44KHz.wav
4	192	1	2	0	C	1	0	1111	0	poli_8sides 15_whiteLine3.jpg	Short_b22_cut1_stereo_44KHz.wav
4	193	2	1	0	C	2	1	661	1	poli_8sides 2_whiteLine3.jpg	Short_b23_cut1_stereo_44KHz.wav
4	194	4	3	2	I	2	0	1275	1	poli_8sides 8_whiteLine3.jpg	Short_b20_cut1_stereo_44KHz.wav
4	195	1	2	0	C	2	1	665	1	poli_8sides 15_whiteLine3.jpg	Short_b22_cut1_stereo_44KHz.wav
4	196	3	4	2	I	1	0	714	1	poli_8sides 5_whiteLine3.jpg	Short_b09_cut1_stereo_44KHz.wav
4	197	1	1	1	C	2	0	861	0	poli_8sides 15_whiteLine3.jpg	Short_b23_cut1_stereo_44KHz.wav
4	198	3	3	2	I	2	0	965	1	poli_8sides 5_whiteLine3.jpg	Short_b20_cut1_stereo_44KHz.wav
4	199	2	2	1	C	1	1	1286	1	poli_8sides 2_whiteLine3.jpg	Short_b22_cut1_stereo_44KHz.wav
4	200	4	4	2	I	1	0	1920	0	poli_8sides 8_whiteLine3.jpg	Short_b09_cut1_stereo_44KHz.wav
