block	trial	Vstim	Astim	match	C/I	resp	result	RT	fb	V-file	A-file
RL

0	1	2	3	1	C	0	0	0	0	Ⴞ	cut_g_stereo_44KHz.wav
0	2	1	1	1	C	1	1	1158	1	Ⴉ	cut_ee_stereo_44KHz.wav
0	3	2	4	0	C	2	1	934	1	Ⴞ	cut_eeuw_stereo_44KHz.wav
0	4	1	2	0	C	2	1	1015	1	Ⴉ	cut_oo_stereo_44KHz.wav
0	5	2	4	0	C	1	0	1231	0	Ⴞ	cut_eeuw_stereo_44KHz.wav
0	6	2	3	1	C	1	1	1078	1	Ⴞ	cut_g_stereo_44KHz.wav
0	7	1	2	0	C	2	1	1168	1	Ⴉ	cut_oo_stereo_44KHz.wav
0	8	1	1	1	C	1	1	1394	1	Ⴉ	cut_ee_stereo_44KHz.wav
0	9	1	2	0	C	2	1	1308	1	Ⴉ	cut_oo_stereo_44KHz.wav
0	10	2	3	1	C	1	1	1146	1	Ⴞ	cut_g_stereo_44KHz.wav
0	11	1	1	1	C	1	1	1193	1	Ⴉ	cut_ee_stereo_44KHz.wav
0	12	2	4	0	C	1	0	939	0	Ⴞ	cut_eeuw_stereo_44KHz.wav
0	13	2	4	0	C	1	0	1266	0	Ⴞ	cut_eeuw_stereo_44KHz.wav
0	14	1	1	1	C	1	1	876	1	Ⴉ	cut_ee_stereo_44KHz.wav
0	15	2	3	1	C	1	1	761	1	Ⴞ	cut_g_stereo_44KHz.wav
0	16	1	2	0	C	2	1	960	1	Ⴉ	cut_oo_stereo_44KHz.wav
0	17	1	1	1	C	1	1	1036	1	Ⴉ	cut_ee_stereo_44KHz.wav
0	18	1	2	0	C	2	1	624	1	Ⴉ	cut_oo_stereo_44KHz.wav
0	19	2	4	0	C	1	0	1413	0	Ⴞ	cut_eeuw_stereo_44KHz.wav
0	20	2	3	1	C	1	1	1262	1	Ⴞ	cut_g_stereo_44KHz.wav
0	21	1	2	0	C	2	1	797	1	Ⴉ	cut_oo_stereo_44KHz.wav
0	22	2	4	0	C	1	0	459	0	Ⴞ	cut_eeuw_stereo_44KHz.wav
0	23	1	1	1	C	1	1	828	1	Ⴉ	cut_ee_stereo_44KHz.wav
0	24	2	3	1	C	2	0	805	0	Ⴞ	cut_g_stereo_44KHz.wav
0	25	1	2	0	C	2	1	1604	1	Ⴉ	cut_oo_stereo_44KHz.wav
0	26	2	3	1	C	1	1	1522	1	Ⴞ	cut_g_stereo_44KHz.wav
0	27	2	4	0	C	2	1	846	1	Ⴞ	cut_eeuw_stereo_44KHz.wav
0	28	1	1	1	C	1	1	1048	1	Ⴉ	cut_ee_stereo_44KHz.wav
0	29	2	4	0	C	2	1	1318	1	Ⴞ	cut_eeuw_stereo_44KHz.wav
0	30	2	3	1	C	1	1	1203	1	Ⴞ	cut_g_stereo_44KHz.wav
avg_resp = 1090
1	1	3	4	2	I	1	0	1516	1	Ⴜ	cut_g_stereo_44KHz.wav
1	2	1	2	0	C	2	1	1260	1	Ⴃ	cut_h_stereo_44KHz.wav
1	3	4	4	2	I	2	0	1361	0	Ⴁ	cut_g_stereo_44KHz.wav
1	4	2	1	0	C	2	1	1392	1	Ⴇ	cut_w_stereo_44KHz.wav
1	5	1	1	1	C	1	1	975	1	Ⴃ	cut_w_stereo_44KHz.wav
1	6	4	3	2	I	1	0	1322	1	Ⴁ	cut_l_stereo_44KHz.wav
1	7	2	2	1	C	1	1	937	1	Ⴇ	cut_h_stereo_44KHz.wav
1	8	3	3	2	I	1	0	1248	0	Ⴜ	cut_l_stereo_44KHz.wav
1	9	4	4	2	I	2	0	1739	1	Ⴁ	cut_g_stereo_44KHz.wav
1	10	2	1	0	C	2	1	772	1	Ⴇ	cut_w_stereo_44KHz.wav
1	11	1	2	0	C	2	1	1254	1	Ⴃ	cut_h_stereo_44KHz.wav
1	12	3	3	2	I	2	0	1139	0	Ⴜ	cut_l_stereo_44KHz.wav
1	13	1	1	1	C	2	0	1577	0	Ⴃ	cut_w_stereo_44KHz.wav
1	14	4	3	2	I	2	0	1262	1	Ⴁ	cut_l_stereo_44KHz.wav
1	15	3	4	2	I	1	0	1031	1	Ⴜ	cut_g_stereo_44KHz.wav
1	16	2	2	1	C	1	1	949	1	Ⴇ	cut_h_stereo_44KHz.wav
1	17	1	1	1	C	1	1	1204	1	Ⴃ	cut_w_stereo_44KHz.wav
1	18	2	2	1	C	1	1	885	1	Ⴇ	cut_h_stereo_44KHz.wav
1	19	3	4	2	I	1	0	1192	0	Ⴜ	cut_g_stereo_44KHz.wav
1	20	4	3	2	I	1	0	898	0	Ⴁ	cut_l_stereo_44KHz.wav
1	21	1	2	0	C	1	0	968	0	Ⴃ	cut_h_stereo_44KHz.wav
1	22	3	3	2	I	2	0	1117	0	Ⴜ	cut_l_stereo_44KHz.wav
1	23	4	4	2	I	2	0	1114	0	Ⴁ	cut_g_stereo_44KHz.wav
1	24	2	1	0	C	1	0	1281	0	Ⴇ	cut_w_stereo_44KHz.wav
1	25	1	1	1	C	1	1	933	1	Ⴃ	cut_w_stereo_44KHz.wav
1	26	4	3	2	I	1	0	1582	0	Ⴁ	cut_l_stereo_44KHz.wav
1	27	3	3	2	I	2	0	927	0	Ⴜ	cut_l_stereo_44KHz.wav
1	28	2	1	0	C	1	0	819	0	Ⴇ	cut_w_stereo_44KHz.wav
1	29	1	2	0	C	2	1	993	1	Ⴃ	cut_h_stereo_44KHz.wav
1	30	4	4	2	I	1	0	1150	1	Ⴁ	cut_g_stereo_44KHz.wav
1	31	2	2	1	C	1	1	1411	1	Ⴇ	cut_h_stereo_44KHz.wav
1	32	3	4	2	I	1	0	894	1	Ⴜ	cut_g_stereo_44KHz.wav
1	33	1	1	1	C	1	1	1089	1	Ⴃ	cut_w_stereo_44KHz.wav
1	34	3	3	2	I	2	0	997	0	Ⴜ	cut_l_stereo_44KHz.wav
1	35	4	4	2	I	1	0	1348	1	Ⴁ	cut_g_stereo_44KHz.wav
1	36	2	2	1	C	1	1	1155	1	Ⴇ	cut_h_stereo_44KHz.wav
1	37	1	2	0	C	2	1	944	1	Ⴃ	cut_h_stereo_44KHz.wav
1	38	2	1	0	C	1	0	965	0	Ⴇ	cut_w_stereo_44KHz.wav
1	39	3	4	2	I	1	0	1237	1	Ⴜ	cut_g_stereo_44KHz.wav
1	40	4	3	2	I	2	0	1361	1	Ⴁ	cut_l_stereo_44KHz.wav
1	41	1	1	1	C	1	1	1340	1	Ⴃ	cut_w_stereo_44KHz.wav
1	42	3	4	2	I	2	0	1710	0	Ⴜ	cut_g_stereo_44KHz.wav
1	43	4	4	2	I	1	0	1577	1	Ⴁ	cut_g_stereo_44KHz.wav
1	44	2	1	0	C	2	1	897	1	Ⴇ	cut_w_stereo_44KHz.wav
1	45	1	2	0	C	2	1	972	1	Ⴃ	cut_h_stereo_44KHz.wav
1	46	2	2	1	C	2	0	955	0	Ⴇ	cut_h_stereo_44KHz.wav
1	47	3	3	2	I	2	0	768	1	Ⴜ	cut_l_stereo_44KHz.wav
1	48	4	3	2	I	2	0	1023	0	Ⴁ	cut_l_stereo_44KHz.wav
1	49	1	1	1	C	1	1	1057	1	Ⴃ	cut_w_stereo_44KHz.wav
1	50	4	3	2	I	2	0	1008	0	Ⴁ	cut_l_stereo_44KHz.wav
1	51	2	1	0	C	2	1	826	1	Ⴇ	cut_w_stereo_44KHz.wav
1	52	3	3	2	I	2	0	837	0	Ⴜ	cut_l_stereo_44KHz.wav
1	53	1	2	0	C	2	1	1008	1	Ⴃ	cut_h_stereo_44KHz.wav
1	54	4	4	2	I	1	0	1196	1	Ⴁ	cut_g_stereo_44KHz.wav
1	55	3	4	2	I	1	0	853	1	Ⴜ	cut_g_stereo_44KHz.wav
1	56	2	2	1	C	1	1	1118	1	Ⴇ	cut_h_stereo_44KHz.wav
1	57	3	4	2	I	2	0	981	1	Ⴜ	cut_g_stereo_44KHz.wav
1	58	2	2	1	C	1	1	784	1	Ⴇ	cut_h_stereo_44KHz.wav
1	59	4	3	2	I	2	0	1044	0	Ⴁ	cut_l_stereo_44KHz.wav
1	60	1	2	0	C	2	1	909	1	Ⴃ	cut_h_stereo_44KHz.wav
1	61	2	1	0	C	2	1	983	1	Ⴇ	cut_w_stereo_44KHz.wav
1	62	3	3	2	I	1	0	878	1	Ⴜ	cut_l_stereo_44KHz.wav
1	63	1	1	1	C	1	1	1234	1	Ⴃ	cut_w_stereo_44KHz.wav
1	64	4	4	2	I	1	0	846	0	Ⴁ	cut_g_stereo_44KHz.wav
1	65	2	1	0	C	2	1	1394	1	Ⴇ	cut_w_stereo_44KHz.wav
1	66	4	3	2	I	1	0	914	0	Ⴁ	cut_l_stereo_44KHz.wav
1	67	3	3	2	I	2	0	1115	0	Ⴜ	cut_l_stereo_44KHz.wav
1	68	1	2	0	C	2	1	833	1	Ⴃ	cut_h_stereo_44KHz.wav
1	69	4	4	2	I	1	0	985	1	Ⴁ	cut_g_stereo_44KHz.wav
1	70	3	4	2	I	1	0	1209	1	Ⴜ	cut_g_stereo_44KHz.wav
1	71	2	2	1	C	1	1	1064	1	Ⴇ	cut_h_stereo_44KHz.wav
1	72	1	1	1	C	1	1	1047	1	Ⴃ	cut_w_stereo_44KHz.wav
1	73	2	1	0	C	2	1	879	1	Ⴇ	cut_w_stereo_44KHz.wav
1	74	1	2	0	C	1	0	982	0	Ⴃ	cut_h_stereo_44KHz.wav
1	75	3	3	2	I	2	0	932	1	Ⴜ	cut_l_stereo_44KHz.wav
1	76	4	3	2	I	1	0	967	1	Ⴁ	cut_l_stereo_44KHz.wav
1	77	1	1	1	C	1	1	1029	1	Ⴃ	cut_w_stereo_44KHz.wav
1	78	2	2	1	C	1	1	1107	1	Ⴇ	cut_h_stereo_44KHz.wav
1	79	3	4	2	I	1	0	903	1	Ⴜ	cut_g_stereo_44KHz.wav
1	80	4	4	2	I	1	0	1124	1	Ⴁ	cut_g_stereo_44KHz.wav
1	81	2	1	0	C	1	0	1257	0	Ⴇ	cut_w_stereo_44KHz.wav
1	82	1	2	0	C	1	0	921	0	Ⴃ	cut_h_stereo_44KHz.wav
1	83	4	4	2	I	1	0	868	1	Ⴁ	cut_g_stereo_44KHz.wav
1	84	3	4	2	I	1	0	907	1	Ⴜ	cut_g_stereo_44KHz.wav
1	85	1	1	1	C	1	1	1063	1	Ⴃ	cut_w_stereo_44KHz.wav
1	86	2	2	1	C	1	1	1107	1	Ⴇ	cut_h_stereo_44KHz.wav
1	87	4	3	2	I	1	0	1114	0	Ⴁ	cut_l_stereo_44KHz.wav
1	88	3	3	2	I	1	0	1175	0	Ⴜ	cut_l_stereo_44KHz.wav
1	89	4	3	2	I	2	0	855	0	Ⴁ	cut_l_stereo_44KHz.wav
1	90	2	2	1	C	2	0	1865	0	Ⴇ	cut_h_stereo_44KHz.wav
1	91	3	4	2	I	1	0	1039	1	Ⴜ	cut_g_stereo_44KHz.wav
1	92	1	1	1	C	2	0	1118	0	Ⴃ	cut_w_stereo_44KHz.wav
1	93	3	3	2	I	2	0	959	0	Ⴜ	cut_l_stereo_44KHz.wav
1	94	4	4	2	I	2	0	1157	1	Ⴁ	cut_g_stereo_44KHz.wav
1	95	1	2	0	C	2	1	1076	1	Ⴃ	cut_h_stereo_44KHz.wav
1	96	2	1	0	C	2	1	1456	1	Ⴇ	cut_w_stereo_44KHz.wav
1	97	3	4	2	I	1	0	998	1	Ⴜ	cut_g_stereo_44KHz.wav
1	98	4	3	2	I	2	0	1401	0	Ⴁ	cut_l_stereo_44KHz.wav
1	99	1	2	0	C	2	1	655	1	Ⴃ	cut_h_stereo_44KHz.wav
1	100	2	2	1	C	1	1	879	1	Ⴇ	cut_h_stereo_44KHz.wav
1	101	1	1	1	C	1	1	1724	1	Ⴃ	cut_w_stereo_44KHz.wav
1	102	2	1	0	C	2	1	828	1	Ⴇ	cut_w_stereo_44KHz.wav
1	103	3	3	2	I	2	0	1260	0	Ⴜ	cut_l_stereo_44KHz.wav
1	104	4	4	2	I	2	0	1382	0	Ⴁ	cut_g_stereo_44KHz.wav
1	105	1	1	1	C	1	1	1759	1	Ⴃ	cut_w_stereo_44KHz.wav
1	106	4	3	2	I	1	0	1384	0	Ⴁ	cut_l_stereo_44KHz.wav
1	107	3	4	2	I	1	0	1190	1	Ⴜ	cut_g_stereo_44KHz.wav
1	108	2	1	0	C	2	1	904	1	Ⴇ	cut_w_stereo_44KHz.wav
1	109	1	2	0	C	2	1	894	1	Ⴃ	cut_h_stereo_44KHz.wav
1	110	2	2	1	C	1	1	849	1	Ⴇ	cut_h_stereo_44KHz.wav
1	111	3	3	2	I	2	0	1857	0	Ⴜ	cut_l_stereo_44KHz.wav
1	112	4	4	2	I	2	0	845	0	Ⴁ	cut_g_stereo_44KHz.wav
1	113	1	1	1	C	2	0	724	0	Ⴃ	cut_w_stereo_44KHz.wav
1	114	3	4	2	I	1	0	1024	0	Ⴜ	cut_g_stereo_44KHz.wav
1	115	4	4	2	I	2	0	944	1	Ⴁ	cut_g_stereo_44KHz.wav
1	116	2	1	0	C	2	1	831	1	Ⴇ	cut_w_stereo_44KHz.wav
1	117	3	3	2	I	2	0	933	0	Ⴜ	cut_l_stereo_44KHz.wav
1	118	2	2	1	C	1	1	976	1	Ⴇ	cut_h_stereo_44KHz.wav
1	119	4	3	2	I	2	0	780	1	Ⴁ	cut_l_stereo_44KHz.wav
1	120	1	2	0	C	2	1	875	1	Ⴃ	cut_h_stereo_44KHz.wav
1	121	2	1	0	C	2	1	730	1	Ⴇ	cut_w_stereo_44KHz.wav
1	122	1	1	1	C	1	1	1329	1	Ⴃ	cut_w_stereo_44KHz.wav
1	123	3	3	2	I	1	0	1456	1	Ⴜ	cut_l_stereo_44KHz.wav
1	124	4	4	2	I	2	0	1133	0	Ⴁ	cut_g_stereo_44KHz.wav
1	125	3	4	2	I	1	0	1392	1	Ⴜ	cut_g_stereo_44KHz.wav
1	126	1	2	0	C	2	1	875	1	Ⴃ	cut_h_stereo_44KHz.wav
1	127	4	3	2	I	2	0	1708	1	Ⴁ	cut_l_stereo_44KHz.wav
1	128	2	2	1	C	1	1	926	1	Ⴇ	cut_h_stereo_44KHz.wav
1	129	3	3	2	I	2	0	1077	1	Ⴜ	cut_l_stereo_44KHz.wav
1	130	2	2	1	C	1	1	851	1	Ⴇ	cut_h_stereo_44KHz.wav
1	131	1	1	1	C	1	1	1144	1	Ⴃ	cut_w_stereo_44KHz.wav
1	132	4	4	2	I	2	0	1076	0	Ⴁ	cut_g_stereo_44KHz.wav
1	133	3	4	2	I	1	0	801	0	Ⴜ	cut_g_stereo_44KHz.wav
1	134	2	1	0	C	2	1	761	1	Ⴇ	cut_w_stereo_44KHz.wav
1	135	4	3	2	I	2	0	941	0	Ⴁ	cut_l_stereo_44KHz.wav
1	136	1	2	0	C	2	1	1006	1	Ⴃ	cut_h_stereo_44KHz.wav
1	137	3	3	2	I	2	0	1699	0	Ⴜ	cut_l_stereo_44KHz.wav
1	138	2	2	1	C	1	1	836	1	Ⴇ	cut_h_stereo_44KHz.wav
1	139	4	4	2	I	2	0	1641	1	Ⴁ	cut_g_stereo_44KHz.wav
1	140	1	1	1	C	2	0	1225	0	Ⴃ	cut_w_stereo_44KHz.wav
1	141	3	4	2	I	1	0	921	1	Ⴜ	cut_g_stereo_44KHz.wav
1	142	2	1	0	C	1	0	848	0	Ⴇ	cut_w_stereo_44KHz.wav
1	143	1	2	0	C	1	0	1124	0	Ⴃ	cut_h_stereo_44KHz.wav
1	144	4	3	2	I	2	0	789	0	Ⴁ	cut_l_stereo_44KHz.wav
1	145	3	3	2	I	2	0	656	1	Ⴜ	cut_l_stereo_44KHz.wav
1	146	1	1	1	C	1	1	1026	1	Ⴃ	cut_w_stereo_44KHz.wav
1	147	4	3	2	I	2	0	802	1	Ⴁ	cut_l_stereo_44KHz.wav
1	148	2	1	0	C	2	1	776	1	Ⴇ	cut_w_stereo_44KHz.wav
1	149	4	4	2	I	1	0	1296	0	Ⴁ	cut_g_stereo_44KHz.wav
1	150	3	4	2	I	1	0	1129	0	Ⴜ	cut_g_stereo_44KHz.wav
1	151	1	2	0	C	2	1	1296	1	Ⴃ	cut_h_stereo_44KHz.wav
1	152	2	2	1	C	2	0	1306	0	Ⴇ	cut_h_stereo_44KHz.wav
1	153	1	2	0	C	2	1	764	1	Ⴃ	cut_h_stereo_44KHz.wav
1	154	3	4	2	I	1	0	1625	0	Ⴜ	cut_g_stereo_44KHz.wav
1	155	4	3	2	I	2	0	754	0	Ⴁ	cut_l_stereo_44KHz.wav
1	156	2	2	1	C	1	1	895	1	Ⴇ	cut_h_stereo_44KHz.wav
1	157	4	4	2	I	2	0	828	1	Ⴁ	cut_g_stereo_44KHz.wav
1	158	3	3	2	I	2	0	755	0	Ⴜ	cut_l_stereo_44KHz.wav
1	159	1	1	1	C	2	0	948	0	Ⴃ	cut_w_stereo_44KHz.wav
1	160	2	1	0	C	2	1	842	1	Ⴇ	cut_w_stereo_44KHz.wav
1	161	1	2	0	C	2	1	736	1	Ⴃ	cut_h_stereo_44KHz.wav
1	162	2	1	0	C	2	1	879	1	Ⴇ	cut_w_stereo_44KHz.wav
1	163	3	3	2	I	1	0	1058	0	Ⴜ	cut_l_stereo_44KHz.wav
1	164	4	3	2	I	1	0	1164	0	Ⴁ	cut_l_stereo_44KHz.wav
1	165	3	4	2	I	1	0	1192	1	Ⴜ	cut_g_stereo_44KHz.wav
1	166	4	4	2	I	1	0	1080	0	Ⴁ	cut_g_stereo_44KHz.wav
1	167	1	1	1	C	2	0	644	0	Ⴃ	cut_w_stereo_44KHz.wav
1	168	2	2	1	C	1	1	940	1	Ⴇ	cut_h_stereo_44KHz.wav
1	169	3	3	2	I	1	0	1128	1	Ⴜ	cut_l_stereo_44KHz.wav
1	170	2	1	0	C	2	1	716	1	Ⴇ	cut_w_stereo_44KHz.wav
1	171	4	4	2	I	1	0	906	1	Ⴁ	cut_g_stereo_44KHz.wav
1	172	1	1	1	C	2	0	1369	0	Ⴃ	cut_w_stereo_44KHz.wav
1	173	3	4	2	I	1	0	1312	1	Ⴜ	cut_g_stereo_44KHz.wav
1	174	1	2	0	C	1	0	1679	0	Ⴃ	cut_h_stereo_44KHz.wav
1	175	4	3	2	I	1	0	972	1	Ⴁ	cut_l_stereo_44KHz.wav
1	176	2	2	1	C	1	1	1288	1	Ⴇ	cut_h_stereo_44KHz.wav
1	177	4	4	2	I	1	0	1146	1	Ⴁ	cut_g_stereo_44KHz.wav
1	178	1	2	0	C	1	0	971	0	Ⴃ	cut_h_stereo_44KHz.wav
1	179	3	3	2	I	1	0	888	1	Ⴜ	cut_l_stereo_44KHz.wav
1	180	2	2	1	C	1	1	1125	1	Ⴇ	cut_h_stereo_44KHz.wav
1	181	1	1	1	C	1	1	1065	1	Ⴃ	cut_w_stereo_44KHz.wav
1	182	2	1	0	C	2	1	859	1	Ⴇ	cut_w_stereo_44KHz.wav
1	183	3	4	2	I	1	0	1279	0	Ⴜ	cut_g_stereo_44KHz.wav
1	184	4	3	2	I	2	0	1511	0	Ⴁ	cut_l_stereo_44KHz.wav
1	185	1	2	0	C	2	1	1388	1	Ⴃ	cut_h_stereo_44KHz.wav
1	186	4	4	2	I	2	0	1503	0	Ⴁ	cut_g_stereo_44KHz.wav
1	187	3	4	2	I	1	0	1549	1	Ⴜ	cut_g_stereo_44KHz.wav
1	188	2	1	0	C	2	1	730	1	Ⴇ	cut_w_stereo_44KHz.wav
1	189	1	1	1	C	1	1	1139	1	Ⴃ	cut_w_stereo_44KHz.wav
1	190	4	3	2	I	2	0	1268	1	Ⴁ	cut_l_stereo_44KHz.wav
1	191	3	3	2	I	2	0	796	0	Ⴜ	cut_l_stereo_44KHz.wav
1	192	2	2	1	C	1	1	894	1	Ⴇ	cut_h_stereo_44KHz.wav
1	193	4	3	2	I	2	0	808	1	Ⴁ	cut_l_stereo_44KHz.wav
1	194	3	4	2	I	1	0	795	0	Ⴜ	cut_g_stereo_44KHz.wav
1	195	2	2	1	C	1	1	908	1	Ⴇ	cut_h_stereo_44KHz.wav
1	196	1	1	1	C	2	0	968	0	Ⴃ	cut_w_stereo_44KHz.wav
1	197	2	1	0	C	1	0	862	0	Ⴇ	cut_w_stereo_44KHz.wav
1	198	3	3	2	I	1	0	1313	0	Ⴜ	cut_l_stereo_44KHz.wav
1	199	1	2	0	C	1	0	1139	0	Ⴃ	cut_h_stereo_44KHz.wav
1	200	4	4	2	I	2	0	939	1	Ⴁ	cut_g_stereo_44KHz.wav
2	1	3	3	2	I	2	0	1685	1	Ⴒ	cut_s_stereo_44KHz.wav
2	2	4	4	2	I	0	0	0	0	Ⴏ	cut_f_stereo_44KHz.wav
2	3	2	1	0	C	2	1	1073	1	Ⴐ	cut_ei_stereo_44KHz.wav
2	4	1	1	1	C	0	0	0	0	Ⴖ	cut_ei_stereo_44KHz.wav
2	5	2	2	1	C	2	0	951	0	Ⴐ	cut_ui_stereo_44KHz.wav
2	6	4	3	2	I	1	0	1580	1	Ⴏ	cut_s_stereo_44KHz.wav
2	7	3	4	2	I	1	0	1307	0	Ⴒ	cut_f_stereo_44KHz.wav
2	8	1	2	0	C	1	0	1733	0	Ⴖ	cut_ui_stereo_44KHz.wav
2	9	4	3	2	I	1	0	1615	0	Ⴏ	cut_s_stereo_44KHz.wav
2	10	3	4	2	I	2	0	1362	0	Ⴒ	cut_f_stereo_44KHz.wav
2	11	2	1	0	C	2	1	1302	1	Ⴐ	cut_ei_stereo_44KHz.wav
2	12	1	1	1	C	1	1	977	1	Ⴖ	cut_ei_stereo_44KHz.wav
2	13	2	2	1	C	2	0	1260	0	Ⴐ	cut_ui_stereo_44KHz.wav
2	14	4	4	2	I	1	0	1323	0	Ⴏ	cut_f_stereo_44KHz.wav
2	15	3	3	2	I	2	0	1177	1	Ⴒ	cut_s_stereo_44KHz.wav
2	16	1	2	0	C	0	0	0	0	Ⴖ	cut_ui_stereo_44KHz.wav
2	17	4	4	2	I	2	0	1005	0	Ⴏ	cut_f_stereo_44KHz.wav
2	18	2	2	1	C	2	0	800	0	Ⴐ	cut_ui_stereo_44KHz.wav
2	19	1	1	1	C	1	1	736	1	Ⴖ	cut_ei_stereo_44KHz.wav
2	20	3	3	2	I	2	0	791	1	Ⴒ	cut_s_stereo_44KHz.wav
2	21	4	3	2	I	2	0	1861	1	Ⴏ	cut_s_stereo_44KHz.wav
2	22	2	1	0	C	2	1	1151	1	Ⴐ	cut_ei_stereo_44KHz.wav
2	23	1	2	0	C	1	0	775	0	Ⴖ	cut_ui_stereo_44KHz.wav
2	24	3	4	2	I	1	0	946	1	Ⴒ	cut_f_stereo_44KHz.wav
2	25	2	2	1	C	2	0	718	0	Ⴐ	cut_ui_stereo_44KHz.wav
2	26	3	4	2	I	1	0	959	1	Ⴒ	cut_f_stereo_44KHz.wav
2	27	4	3	2	I	1	0	1849	0	Ⴏ	cut_s_stereo_44KHz.wav
2	28	1	2	0	C	2	1	1085	1	Ⴖ	cut_ui_stereo_44KHz.wav
2	29	2	1	0	C	2	1	752	1	Ⴐ	cut_ei_stereo_44KHz.wav
2	30	3	3	2	I	2	0	741	0	Ⴒ	cut_s_stereo_44KHz.wav
2	31	4	4	2	I	1	0	1047	0	Ⴏ	cut_f_stereo_44KHz.wav
2	32	1	1	1	C	2	0	842	0	Ⴖ	cut_ei_stereo_44KHz.wav
2	33	2	2	1	C	2	0	641	0	Ⴐ	cut_ui_stereo_44KHz.wav
2	34	3	3	2	I	2	0	1084	1	Ⴒ	cut_s_stereo_44KHz.wav
2	35	1	1	1	C	1	1	1161	1	Ⴖ	cut_ei_stereo_44KHz.wav
2	36	4	3	2	I	1	0	1303	1	Ⴏ	cut_s_stereo_44KHz.wav
2	37	2	1	0	C	2	1	798	1	Ⴐ	cut_ei_stereo_44KHz.wav
2	38	4	4	2	I	2	0	1049	0	Ⴏ	cut_f_stereo_44KHz.wav
2	39	3	4	2	I	1	0	1176	0	Ⴒ	cut_f_stereo_44KHz.wav
2	40	1	2	0	C	2	1	1518	1	Ⴖ	cut_ui_stereo_44KHz.wav
2	41	2	2	1	C	2	0	993	0	Ⴐ	cut_ui_stereo_44KHz.wav
2	42	1	2	0	C	2	1	923	1	Ⴖ	cut_ui_stereo_44KHz.wav
2	43	3	4	2	I	1	0	1104	0	Ⴒ	cut_f_stereo_44KHz.wav
2	44	4	4	2	I	2	0	1136	0	Ⴏ	cut_f_stereo_44KHz.wav
2	45	3	3	2	I	2	0	1196	0	Ⴒ	cut_s_stereo_44KHz.wav
2	46	4	3	2	I	1	0	1722	1	Ⴏ	cut_s_stereo_44KHz.wav
2	47	1	1	1	C	2	0	763	0	Ⴖ	cut_ei_stereo_44KHz.wav
2	48	2	1	0	C	2	1	474	1	Ⴐ	cut_ei_stereo_44KHz.wav
2	49	1	2	0	C	2	1	1196	1	Ⴖ	cut_ui_stereo_44KHz.wav
2	50	4	3	2	I	2	0	1134	0	Ⴏ	cut_s_stereo_44KHz.wav
2	51	3	4	2	I	1	0	1048	1	Ⴒ	cut_f_stereo_44KHz.wav
2	52	2	2	1	C	2	0	994	0	Ⴐ	cut_ui_stereo_44KHz.wav
2	53	1	1	1	C	2	0	1294	0	Ⴖ	cut_ei_stereo_44KHz.wav
2	54	3	3	2	I	2	0	842	1	Ⴒ	cut_s_stereo_44KHz.wav
2	55	2	1	0	C	2	1	690	1	Ⴐ	cut_ei_stereo_44KHz.wav
2	56	4	4	2	I	1	0	1849	1	Ⴏ	cut_f_stereo_44KHz.wav
2	57	3	4	2	I	2	0	739	1	Ⴒ	cut_f_stereo_44KHz.wav
2	58	4	3	2	I	1	0	1956	1	Ⴏ	cut_s_stereo_44KHz.wav
2	59	2	2	1	C	2	0	1030	0	Ⴐ	cut_ui_stereo_44KHz.wav
2	60	1	1	1	C	2	0	778	0	Ⴖ	cut_ei_stereo_44KHz.wav
2	61	4	4	2	I	1	0	1244	0	Ⴏ	cut_f_stereo_44KHz.wav
2	62	1	2	0	C	1	0	1362	0	Ⴖ	cut_ui_stereo_44KHz.wav
2	63	3	3	2	I	1	0	1533	1	Ⴒ	cut_s_stereo_44KHz.wav
2	64	2	1	0	C	1	0	882	0	Ⴐ	cut_ei_stereo_44KHz.wav
2	65	4	4	2	I	1	0	885	1	Ⴏ	cut_f_stereo_44KHz.wav
2	66	1	1	1	C	1	1	777	1	Ⴖ	cut_ei_stereo_44KHz.wav
2	67	2	1	0	C	1	0	834	0	Ⴐ	cut_ei_stereo_44KHz.wav
2	68	3	4	2	I	1	0	804	1	Ⴒ	cut_f_stereo_44KHz.wav
2	69	1	2	0	C	2	1	661	1	Ⴖ	cut_ui_stereo_44KHz.wav
2	70	4	3	2	I	1	0	793	1	Ⴏ	cut_s_stereo_44KHz.wav
2	71	2	2	1	C	2	0	675	0	Ⴐ	cut_ui_stereo_44KHz.wav
2	72	3	3	2	I	2	0	867	0	Ⴒ	cut_s_stereo_44KHz.wav
2	73	1	2	0	C	2	1	613	1	Ⴖ	cut_ui_stereo_44KHz.wav
2	74	3	4	2	I	1	0	938	1	Ⴒ	cut_f_stereo_44KHz.wav
2	75	4	4	2	I	2	0	1102	1	Ⴏ	cut_f_stereo_44KHz.wav
2	76	2	1	0	C	2	1	733	1	Ⴐ	cut_ei_stereo_44KHz.wav
2	77	4	3	2	I	1	0	934	1	Ⴏ	cut_s_stereo_44KHz.wav
2	78	2	2	1	C	1	1	1067	1	Ⴐ	cut_ui_stereo_44KHz.wav
2	79	1	1	1	C	2	0	862	0	Ⴖ	cut_ei_stereo_44KHz.wav
2	80	3	3	2	I	2	0	887	1	Ⴒ	cut_s_stereo_44KHz.wav
2	81	2	2	1	C	1	1	1299	1	Ⴐ	cut_ui_stereo_44KHz.wav
2	82	3	3	2	I	2	0	914	1	Ⴒ	cut_s_stereo_44KHz.wav
2	83	1	2	0	C	1	0	1220	0	Ⴖ	cut_ui_stereo_44KHz.wav
2	84	4	3	2	I	1	0	999	1	Ⴏ	cut_s_stereo_44KHz.wav
2	85	2	1	0	C	2	1	827	1	Ⴐ	cut_ei_stereo_44KHz.wav
2	86	1	1	1	C	2	0	491	0	Ⴖ	cut_ei_stereo_44KHz.wav
2	87	4	4	2	I	1	0	1147	0	Ⴏ	cut_f_stereo_44KHz.wav
2	88	3	4	2	I	1	0	866	0	Ⴒ	cut_f_stereo_44KHz.wav
2	89	4	3	2	I	2	0	538	0	Ⴏ	cut_s_stereo_44KHz.wav
2	90	3	3	2	I	2	0	1012	0	Ⴒ	cut_s_stereo_44KHz.wav
2	91	2	1	0	C	2	1	1111	1	Ⴐ	cut_ei_stereo_44KHz.wav
2	92	1	2	0	C	1	0	904	0	Ⴖ	cut_ui_stereo_44KHz.wav
2	93	4	4	2	I	2	0	1224	0	Ⴏ	cut_f_stereo_44KHz.wav
2	94	1	1	1	C	2	0	719	0	Ⴖ	cut_ei_stereo_44KHz.wav
2	95	2	2	1	C	2	0	922	0	Ⴐ	cut_ui_stereo_44KHz.wav
2	96	3	4	2	I	1	0	549	1	Ⴒ	cut_f_stereo_44KHz.wav
2	97	2	2	1	C	1	1	746	1	Ⴐ	cut_ui_stereo_44KHz.wav
2	98	1	1	1	C	1	1	472	1	Ⴖ	cut_ei_stereo_44KHz.wav
2	99	3	4	2	I	1	0	796	0	Ⴒ	cut_f_stereo_44KHz.wav
2	100	4	3	2	I	1	0	1053	0	Ⴏ	cut_s_stereo_44KHz.wav
2	101	2	1	0	C	2	1	1002	1	Ⴐ	cut_ei_stereo_44KHz.wav
2	102	3	3	2	I	2	0	903	0	Ⴒ	cut_s_stereo_44KHz.wav
2	103	4	4	2	I	2	0	1053	0	Ⴏ	cut_f_stereo_44KHz.wav
2	104	1	2	0	C	2	1	672	1	Ⴖ	cut_ui_stereo_44KHz.wav
2	105	4	3	2	I	1	0	794	0	Ⴏ	cut_s_stereo_44KHz.wav
2	106	2	1	0	C	2	1	706	1	Ⴐ	cut_ei_stereo_44KHz.wav
2	107	1	1	1	C	2	0	578	0	Ⴖ	cut_ei_stereo_44KHz.wav
2	108	3	3	2	I	2	0	776	0	Ⴒ	cut_s_stereo_44KHz.wav
2	109	1	2	0	C	2	1	550	1	Ⴖ	cut_ui_stereo_44KHz.wav
2	110	4	4	2	I	1	0	971	1	Ⴏ	cut_f_stereo_44KHz.wav
2	111	2	2	1	C	1	1	1101	1	Ⴐ	cut_ui_stereo_44KHz.wav
2	112	3	4	2	I	2	0	1551	0	Ⴒ	cut_f_stereo_44KHz.wav
2	113	1	1	1	C	2	0	1281	0	Ⴖ	cut_ei_stereo_44KHz.wav
2	114	4	4	2	I	2	0	1020	0	Ⴏ	cut_f_stereo_44KHz.wav
2	115	2	1	0	C	1	0	1242	0	Ⴐ	cut_ei_stereo_44KHz.wav
2	116	3	3	2	I	2	0	1412	1	Ⴒ	cut_s_stereo_44KHz.wav
2	117	1	2	0	C	2	1	1196	1	Ⴖ	cut_ui_stereo_44KHz.wav
2	118	4	3	2	I	1	0	1036	1	Ⴏ	cut_s_stereo_44KHz.wav
2	119	2	2	1	C	1	1	807	1	Ⴐ	cut_ui_stereo_44KHz.wav
2	120	3	4	2	I	2	0	1476	1	Ⴒ	cut_f_stereo_44KHz.wav
2	121	4	4	2	I	1	0	1195	1	Ⴏ	cut_f_stereo_44KHz.wav
2	122	1	1	1	C	2	0	1162	0	Ⴖ	cut_ei_stereo_44KHz.wav
2	123	2	2	1	C	1	1	439	1	Ⴐ	cut_ui_stereo_44KHz.wav
2	124	3	4	2	I	1	0	1235	0	Ⴒ	cut_f_stereo_44KHz.wav
2	125	2	1	0	C	2	1	793	1	Ⴐ	cut_ei_stereo_44KHz.wav
2	126	4	3	2	I	1	0	1241	0	Ⴏ	cut_s_stereo_44KHz.wav
2	127	1	2	0	C	1	0	1135	0	Ⴖ	cut_ui_stereo_44KHz.wav
2	128	3	3	2	I	2	0	947	1	Ⴒ	cut_s_stereo_44KHz.wav
2	129	1	1	1	C	1	1	914	1	Ⴖ	cut_ei_stereo_44KHz.wav
2	130	2	1	0	C	1	0	925	0	Ⴐ	cut_ei_stereo_44KHz.wav
2	131	3	4	2	I	1	0	906	0	Ⴒ	cut_f_stereo_44KHz.wav
2	132	4	4	2	I	1	0	624	1	Ⴏ	cut_f_stereo_44KHz.wav
2	133	2	2	1	C	1	1	788	1	Ⴐ	cut_ui_stereo_44KHz.wav
2	134	4	3	2	I	2	0	933	0	Ⴏ	cut_s_stereo_44KHz.wav
2	135	3	3	2	I	1	0	410	1	Ⴒ	cut_s_stereo_44KHz.wav
2	136	1	2	0	C	1	0	363	0	Ⴖ	cut_ui_stereo_44KHz.wav
2	137	4	3	2	I	2	0	403	1	Ⴏ	cut_s_stereo_44KHz.wav
2	138	2	2	1	C	2	0	403	0	Ⴐ	cut_ui_stereo_44KHz.wav
2	139	3	4	2	I	1	0	553	1	Ⴒ	cut_f_stereo_44KHz.wav
2	140	1	1	1	C	1	1	266	1	Ⴖ	cut_ei_stereo_44KHz.wav
2	141	4	4	2	I	2	0	797	0	Ⴏ	cut_f_stereo_44KHz.wav
2	142	2	1	0	C	1	0	198	0	Ⴐ	cut_ei_stereo_44KHz.wav
2	143	3	3	2	I	2	0	619	1	Ⴒ	cut_s_stereo_44KHz.wav
2	144	1	2	0	C	2	1	632	1	Ⴖ	cut_ui_stereo_44KHz.wav
2	145	4	3	2	I	1	0	637	1	Ⴏ	cut_s_stereo_44KHz.wav
2	146	3	3	2	I	2	0	920	0	Ⴒ	cut_s_stereo_44KHz.wav
2	147	1	1	1	C	2	0	594	0	Ⴖ	cut_ei_stereo_44KHz.wav
2	148	2	1	0	C	1	0	396	0	Ⴐ	cut_ei_stereo_44KHz.wav
2	149	1	2	0	C	1	0	743	0	Ⴖ	cut_ui_stereo_44KHz.wav
2	150	3	4	2	I	2	0	474	0	Ⴒ	cut_f_stereo_44KHz.wav
2	151	2	2	1	C	2	0	531	0	Ⴐ	cut_ui_stereo_44KHz.wav
2	152	4	4	2	I	1	0	1067	1	Ⴏ	cut_f_stereo_44KHz.wav
2	153	3	3	2	I	1	0	440	0	Ⴒ	cut_s_stereo_44KHz.wav
2	154	4	4	2	I	1	0	263	0	Ⴏ	cut_f_stereo_44KHz.wav
2	155	2	2	1	C	2	0	500	0	Ⴐ	cut_ui_stereo_44KHz.wav
2	156	1	2	0	C	1	0	301	0	Ⴖ	cut_ui_stereo_44KHz.wav
2	157	2	1	0	C	2	1	482	1	Ⴐ	cut_ei_stereo_44KHz.wav
2	158	1	1	1	C	2	0	399	0	Ⴖ	cut_ei_stereo_44KHz.wav
2	159	4	3	2	I	1	0	462	1	Ⴏ	cut_s_stereo_44KHz.wav
2	160	3	4	2	I	1	0	985	0	Ⴒ	cut_f_stereo_44KHz.wav
2	161	4	4	2	I	2	0	351	0	Ⴏ	cut_f_stereo_44KHz.wav
2	162	1	1	1	C	1	1	299	1	Ⴖ	cut_ei_stereo_44KHz.wav
2	163	2	2	1	C	1	1	305	1	Ⴐ	cut_ui_stereo_44KHz.wav
2	164	3	3	2	I	1	0	314	0	Ⴒ	cut_s_stereo_44KHz.wav
2	165	2	1	0	C	2	1	353	1	Ⴐ	cut_ei_stereo_44KHz.wav
2	166	3	4	2	I	1	0	504	1	Ⴒ	cut_f_stereo_44KHz.wav
2	167	1	2	0	C	2	1	723	1	Ⴖ	cut_ui_stereo_44KHz.wav
2	168	4	3	2	I	1	0	628	0	Ⴏ	cut_s_stereo_44KHz.wav
2	169	3	3	2	I	2	0	416	0	Ⴒ	cut_s_stereo_44KHz.wav
2	170	1	1	1	C	2	0	292	0	Ⴖ	cut_ei_stereo_44KHz.wav
2	171	4	4	2	I	2	0	281	0	Ⴏ	cut_f_stereo_44KHz.wav
2	172	2	2	1	C	1	1	396	1	Ⴐ	cut_ui_stereo_44KHz.wav
2	173	1	2	0	C	1	0	326	0	Ⴖ	cut_ui_stereo_44KHz.wav
2	174	3	4	2	I	1	0	863	0	Ⴒ	cut_f_stereo_44KHz.wav
2	175	4	3	2	I	2	0	312	1	Ⴏ	cut_s_stereo_44KHz.wav
2	176	2	1	0	C	2	1	311	1	Ⴐ	cut_ei_stereo_44KHz.wav
2	177	3	3	2	I	2	0	231	1	Ⴒ	cut_s_stereo_44KHz.wav
2	178	1	2	0	C	2	1	300	1	Ⴖ	cut_ui_stereo_44KHz.wav
2	179	2	1	0	C	2	1	322	1	Ⴐ	cut_ei_stereo_44KHz.wav
2	180	4	3	2	I	2	0	430	1	Ⴏ	cut_s_stereo_44KHz.wav
2	181	3	4	2	I	2	0	443	1	Ⴒ	cut_f_stereo_44KHz.wav
2	182	1	1	1	C	1	1	901	1	Ⴖ	cut_ei_stereo_44KHz.wav
2	183	2	2	1	C	1	1	227	1	Ⴐ	cut_ui_stereo_44KHz.wav
2	184	4	4	2	I	1	0	301	1	Ⴏ	cut_f_stereo_44KHz.wav
2	185	3	3	2	I	1	0	314	1	Ⴒ	cut_s_stereo_44KHz.wav
2	186	2	1	0	C	1	0	245	0	Ⴐ	cut_ei_stereo_44KHz.wav
2	187	4	3	2	I	2	0	275	1	Ⴏ	cut_s_stereo_44KHz.wav
2	188	1	2	0	C	2	1	367	1	Ⴖ	cut_ui_stereo_44KHz.wav
2	189	2	2	1	C	2	0	291	0	Ⴐ	cut_ui_stereo_44KHz.wav
2	190	3	4	2	I	1	0	238	0	Ⴒ	cut_f_stereo_44KHz.wav
2	191	4	4	2	I	2	0	284	1	Ⴏ	cut_f_stereo_44KHz.wav
2	192	1	1	1	C	2	0	387	0	Ⴖ	cut_ei_stereo_44KHz.wav
2	193	3	4	2	I	1	0	481	0	Ⴒ	cut_f_stereo_44KHz.wav
2	194	1	2	0	C	2	1	225	1	Ⴖ	cut_ui_stereo_44KHz.wav
2	195	2	2	1	C	2	0	295	0	Ⴐ	cut_ui_stereo_44KHz.wav
2	196	4	3	2	I	2	0	917	0	Ⴏ	cut_s_stereo_44KHz.wav
2	197	2	1	0	C	2	1	642	1	Ⴐ	cut_ei_stereo_44KHz.wav
2	198	4	4	2	I	1	0	507	1	Ⴏ	cut_f_stereo_44KHz.wav
2	199	1	1	1	C	2	0	325	0	Ⴖ	cut_ei_stereo_44KHz.wav
2	200	3	3	2	I	2	0	341	0	Ⴒ	cut_s_stereo_44KHz.wav
3	1	4	4	2	I	2	0	1535	1	Ⴉ	cut_a_stereo_44KHz.wav
3	2	3	3	2	I	1	0	715	1	Ⴌ	cut_k_stereo_44KHz.wav
3	3	2	1	0	C	1	0	1034	0	Ⴕ	cut_u_stereo_44KHz.wav
3	4	1	2	0	C	2	1	910	1	Ⴔ	cut_o_stereo_44KHz.wav
3	5	3	4	2	I	1	0	993	1	Ⴌ	cut_a_stereo_44KHz.wav
3	6	1	1	1	C	1	1	985	1	Ⴔ	cut_u_stereo_44KHz.wav
3	7	2	2	1	C	1	1	1005	1	Ⴕ	cut_o_stereo_44KHz.wav
3	8	4	3	2	I	1	0	1022	1	Ⴉ	cut_k_stereo_44KHz.wav
3	9	2	1	0	C	2	1	1130	1	Ⴕ	cut_u_stereo_44KHz.wav
3	10	1	2	0	C	2	1	683	1	Ⴔ	cut_o_stereo_44KHz.wav
3	11	4	4	2	I	2	0	1283	1	Ⴉ	cut_a_stereo_44KHz.wav
3	12	3	4	2	I	1	0	710	1	Ⴌ	cut_a_stereo_44KHz.wav
3	13	4	3	2	I	1	0	883	1	Ⴉ	cut_k_stereo_44KHz.wav
3	14	1	1	1	C	1	1	980	1	Ⴔ	cut_u_stereo_44KHz.wav
3	15	3	3	2	I	2	0	851	0	Ⴌ	cut_k_stereo_44KHz.wav
3	16	2	2	1	C	2	0	1187	0	Ⴕ	cut_o_stereo_44KHz.wav
3	17	1	2	0	C	2	1	931	1	Ⴔ	cut_o_stereo_44KHz.wav
3	18	4	4	2	I	2	0	1050	0	Ⴉ	cut_a_stereo_44KHz.wav
3	19	3	3	2	I	2	0	784	1	Ⴌ	cut_k_stereo_44KHz.wav
3	20	2	2	1	C	1	1	1058	1	Ⴕ	cut_o_stereo_44KHz.wav
3	21	4	3	2	I	1	0	957	0	Ⴉ	cut_k_stereo_44KHz.wav
3	22	1	1	1	C	1	1	1284	1	Ⴔ	cut_u_stereo_44KHz.wav
3	23	2	1	0	C	2	1	1126	1	Ⴕ	cut_u_stereo_44KHz.wav
3	24	3	4	2	I	1	0	1166	1	Ⴌ	cut_a_stereo_44KHz.wav
3	25	4	4	2	I	2	0	1324	0	Ⴉ	cut_a_stereo_44KHz.wav
3	26	3	3	2	I	2	0	817	0	Ⴌ	cut_k_stereo_44KHz.wav
3	27	2	2	1	C	2	0	1319	0	Ⴕ	cut_o_stereo_44KHz.wav
3	28	1	1	1	C	1	1	846	1	Ⴔ	cut_u_stereo_44KHz.wav
3	29	2	1	0	C	1	0	656	0	Ⴕ	cut_u_stereo_44KHz.wav
3	30	3	4	2	I	1	0	1105	1	Ⴌ	cut_a_stereo_44KHz.wav
3	31	1	2	0	C	1	0	977	0	Ⴔ	cut_o_stereo_44KHz.wav
3	32	4	3	2	I	1	0	865	1	Ⴉ	cut_k_stereo_44KHz.wav
3	33	1	2	0	C	2	1	882	1	Ⴔ	cut_o_stereo_44KHz.wav
3	34	2	2	1	C	1	1	856	1	Ⴕ	cut_o_stereo_44KHz.wav
3	35	3	4	2	I	1	0	937	1	Ⴌ	cut_a_stereo_44KHz.wav
3	36	4	3	2	I	1	0	937	0	Ⴉ	cut_k_stereo_44KHz.wav
3	37	1	1	1	C	1	1	1098	1	Ⴔ	cut_u_stereo_44KHz.wav
3	38	4	4	2	I	2	0	1072	0	Ⴉ	cut_a_stereo_44KHz.wav
3	39	2	1	0	C	1	0	1059	0	Ⴕ	cut_u_stereo_44KHz.wav
3	40	3	3	2	I	2	0	868	0	Ⴌ	cut_k_stereo_44KHz.wav
3	41	4	3	2	I	2	0	1131	1	Ⴉ	cut_k_stereo_44KHz.wav
3	42	1	1	1	C	1	1	886	1	Ⴔ	cut_u_stereo_44KHz.wav
3	43	2	2	1	C	1	1	793	1	Ⴕ	cut_o_stereo_44KHz.wav
3	44	3	3	2	I	1	0	1055	0	Ⴌ	cut_k_stereo_44KHz.wav
3	45	2	1	0	C	1	0	779	0	Ⴕ	cut_u_stereo_44KHz.wav
3	46	4	4	2	I	2	0	1231	1	Ⴉ	cut_a_stereo_44KHz.wav
3	47	1	2	0	C	2	1	999	1	Ⴔ	cut_o_stereo_44KHz.wav
3	48	3	4	2	I	1	0	956	0	Ⴌ	cut_a_stereo_44KHz.wav
3	49	1	1	1	C	1	1	752	1	Ⴔ	cut_u_stereo_44KHz.wav
3	50	3	4	2	I	1	0	733	1	Ⴌ	cut_a_stereo_44KHz.wav
3	51	4	3	2	I	1	0	1026	1	Ⴉ	cut_k_stereo_44KHz.wav
3	52	2	1	0	C	1	0	519	0	Ⴕ	cut_u_stereo_44KHz.wav
3	53	3	3	2	I	2	0	686	1	Ⴌ	cut_k_stereo_44KHz.wav
3	54	1	2	0	C	2	1	936	1	Ⴔ	cut_o_stereo_44KHz.wav
3	55	2	2	1	C	2	0	408	0	Ⴕ	cut_o_stereo_44KHz.wav
3	56	4	4	2	I	1	0	797	1	Ⴉ	cut_a_stereo_44KHz.wav
3	57	2	2	1	C	0	0	0	0	Ⴕ	cut_o_stereo_44KHz.wav
3	58	4	3	2	I	2	0	1278	0	Ⴉ	cut_k_stereo_44KHz.wav
3	59	3	3	2	I	2	0	847	1	Ⴌ	cut_k_stereo_44KHz.wav
3	60	1	1	1	C	1	1	721	1	Ⴔ	cut_u_stereo_44KHz.wav
3	61	3	4	2	I	2	0	1438	1	Ⴌ	cut_a_stereo_44KHz.wav
3	62	2	1	0	C	1	0	819	0	Ⴕ	cut_u_stereo_44KHz.wav
3	63	4	4	2	I	2	0	665	0	Ⴉ	cut_a_stereo_44KHz.wav
3	64	1	2	0	C	2	1	590	1	Ⴔ	cut_o_stereo_44KHz.wav
3	65	3	4	2	I	2	0	754	0	Ⴌ	cut_a_stereo_44KHz.wav
3	66	4	4	2	I	2	0	1008	1	Ⴉ	cut_a_stereo_44KHz.wav
3	67	1	1	1	C	1	1	1079	1	Ⴔ	cut_u_stereo_44KHz.wav
3	68	2	2	1	C	2	0	1019	0	Ⴕ	cut_o_stereo_44KHz.wav
3	69	3	3	2	I	2	0	687	1	Ⴌ	cut_k_stereo_44KHz.wav
3	70	2	1	0	C	2	1	950	1	Ⴕ	cut_u_stereo_44KHz.wav
3	71	1	2	0	C	2	1	664	1	Ⴔ	cut_o_stereo_44KHz.wav
3	72	4	3	2	I	1	0	716	0	Ⴉ	cut_k_stereo_44KHz.wav
3	73	3	4	2	I	1	0	1066	0	Ⴌ	cut_a_stereo_44KHz.wav
3	74	2	1	0	C	2	1	694	1	Ⴕ	cut_u_stereo_44KHz.wav
3	75	4	3	2	I	2	0	655	1	Ⴉ	cut_k_stereo_44KHz.wav
3	76	1	1	1	C	1	1	938	1	Ⴔ	cut_u_stereo_44KHz.wav
3	77	2	2	1	C	1	1	1337	1	Ⴕ	cut_o_stereo_44KHz.wav
3	78	4	4	2	I	1	0	1220	1	Ⴉ	cut_a_stereo_44KHz.wav
3	79	1	2	0	C	1	0	1203	0	Ⴔ	cut_o_stereo_44KHz.wav
3	80	3	3	2	I	2	0	751	1	Ⴌ	cut_k_stereo_44KHz.wav
3	81	2	2	1	C	1	1	1006	1	Ⴕ	cut_o_stereo_44KHz.wav
3	82	4	3	2	I	2	0	673	1	Ⴉ	cut_k_stereo_44KHz.wav
3	83	3	4	2	I	1	0	1409	0	Ⴌ	cut_a_stereo_44KHz.wav
3	84	1	1	1	C	2	0	697	0	Ⴔ	cut_u_stereo_44KHz.wav
3	85	4	4	2	I	2	0	736	1	Ⴉ	cut_a_stereo_44KHz.wav
3	86	3	3	2	I	2	0	605	1	Ⴌ	cut_k_stereo_44KHz.wav
3	87	1	2	0	C	2	1	584	1	Ⴔ	cut_o_stereo_44KHz.wav
3	88	2	1	0	C	1	0	1005	0	Ⴕ	cut_u_stereo_44KHz.wav
3	89	1	1	1	C	2	0	708	0	Ⴔ	cut_u_stereo_44KHz.wav
3	90	4	3	2	I	1	0	493	1	Ⴉ	cut_k_stereo_44KHz.wav
3	91	2	2	1	C	2	0	1034	0	Ⴕ	cut_o_stereo_44KHz.wav
3	92	3	4	2	I	1	0	656	0	Ⴌ	cut_a_stereo_44KHz.wav
3	93	2	1	0	C	1	0	873	0	Ⴕ	cut_u_stereo_44KHz.wav
3	94	1	2	0	C	2	1	399	1	Ⴔ	cut_o_stereo_44KHz.wav
3	95	3	3	2	I	2	0	615	0	Ⴌ	cut_k_stereo_44KHz.wav
3	96	4	4	2	I	2	0	697	0	Ⴉ	cut_a_stereo_44KHz.wav
3	97	3	4	2	I	1	0	946	0	Ⴌ	cut_a_stereo_44KHz.wav
3	98	2	2	1	C	2	0	475	0	Ⴕ	cut_o_stereo_44KHz.wav
3	99	1	2	0	C	2	1	567	1	Ⴔ	cut_o_stereo_44KHz.wav
3	100	4	4	2	I	2	0	938	0	Ⴉ	cut_a_stereo_44KHz.wav
3	101	1	1	1	C	1	1	893	1	Ⴔ	cut_u_stereo_44KHz.wav
3	102	4	3	2	I	1	0	827	0	Ⴉ	cut_k_stereo_44KHz.wav
3	103	3	3	2	I	2	0	659	0	Ⴌ	cut_k_stereo_44KHz.wav
3	104	2	1	0	C	2	1	911	1	Ⴕ	cut_u_stereo_44KHz.wav
3	105	3	4	2	I	1	0	826	0	Ⴌ	cut_a_stereo_44KHz.wav
3	106	4	3	2	I	2	0	1057	0	Ⴉ	cut_k_stereo_44KHz.wav
3	107	1	2	0	C	2	1	596	1	Ⴔ	cut_o_stereo_44KHz.wav
3	108	2	2	1	C	2	0	586	0	Ⴕ	cut_o_stereo_44KHz.wav
3	109	1	1	1	C	2	0	563	0	Ⴔ	cut_u_stereo_44KHz.wav
3	110	3	3	2	I	1	0	327	0	Ⴌ	cut_k_stereo_44KHz.wav
3	111	4	4	2	I	1	0	669	0	Ⴉ	cut_a_stereo_44KHz.wav
3	112	2	1	0	C	2	1	562	1	Ⴕ	cut_u_stereo_44KHz.wav
3	113	4	4	2	I	2	0	402	0	Ⴉ	cut_a_stereo_44KHz.wav
3	114	1	1	1	C	1	1	308	1	Ⴔ	cut_u_stereo_44KHz.wav
3	115	2	2	1	C	1	1	311	1	Ⴕ	cut_o_stereo_44KHz.wav
3	116	3	4	2	I	2	0	549	1	Ⴌ	cut_a_stereo_44KHz.wav
3	117	1	2	0	C	2	1	219	1	Ⴔ	cut_o_stereo_44KHz.wav
3	118	4	3	2	I	2	0	421	1	Ⴉ	cut_k_stereo_44KHz.wav
3	119	3	3	2	I	2	0	288	0	Ⴌ	cut_k_stereo_44KHz.wav
3	120	2	1	0	C	1	0	279	0	Ⴕ	cut_u_stereo_44KHz.wav
3	121	4	3	2	I	2	0	199	0	Ⴉ	cut_k_stereo_44KHz.wav
3	122	3	3	2	I	2	0	251	0	Ⴌ	cut_k_stereo_44KHz.wav
3	123	2	1	0	C	1	0	243	0	Ⴕ	cut_u_stereo_44KHz.wav
3	124	1	2	0	C	2	1	372	1	Ⴔ	cut_o_stereo_44KHz.wav
3	125	4	4	2	I	2	0	265	0	Ⴉ	cut_a_stereo_44KHz.wav
3	126	2	2	1	C	2	0	193	0	Ⴕ	cut_o_stereo_44KHz.wav
3	127	3	4	2	I	1	0	17	1	Ⴌ	cut_a_stereo_44KHz.wav
3	128	1	1	1	C	1	1	285	1	Ⴔ	cut_u_stereo_44KHz.wav
3	129	2	1	0	C	1	0	611	0	Ⴕ	cut_u_stereo_44KHz.wav
3	130	4	3	2	I	0	0	0	0	Ⴉ	cut_k_stereo_44KHz.wav
3	131	3	3	2	I	2	0	255	0	Ⴌ	cut_k_stereo_44KHz.wav
3	132	1	2	0	C	2	1	237	1	Ⴔ	cut_o_stereo_44KHz.wav
3	133	4	4	2	I	2	0	204	0	Ⴉ	cut_a_stereo_44KHz.wav
3	134	2	2	1	C	1	1	216	1	Ⴕ	cut_o_stereo_44KHz.wav
3	135	1	1	1	C	1	1	214	1	Ⴔ	cut_u_stereo_44KHz.wav
3	136	3	4	2	I	1	0	249	1	Ⴌ	cut_a_stereo_44KHz.wav
3	137	4	4	2	I	1	0	220	1	Ⴉ	cut_a_stereo_44KHz.wav
3	138	2	1	0	C	1	0	230	0	Ⴕ	cut_u_stereo_44KHz.wav
3	139	3	3	2	I	2	0	262	0	Ⴌ	cut_k_stereo_44KHz.wav
3	140	1	1	1	C	2	0	619	0	Ⴔ	cut_u_stereo_44KHz.wav
3	141	4	3	2	I	1	0	188	1	Ⴉ	cut_k_stereo_44KHz.wav
3	142	3	4	2	I	1	0	227	0	Ⴌ	cut_a_stereo_44KHz.wav
3	143	1	2	0	C	1	0	284	0	Ⴔ	cut_o_stereo_44KHz.wav
3	144	2	2	1	C	2	0	221	0	Ⴕ	cut_o_stereo_44KHz.wav
3	145	4	3	2	I	2	0	216	1	Ⴉ	cut_k_stereo_44KHz.wav
3	146	1	2	0	C	2	1	202	1	Ⴔ	cut_o_stereo_44KHz.wav
3	147	2	2	1	C	2	0	59	0	Ⴕ	cut_o_stereo_44KHz.wav
3	148	3	3	2	I	1	0	237	1	Ⴌ	cut_k_stereo_44KHz.wav
3	149	4	4	2	I	1	0	197	0	Ⴉ	cut_a_stereo_44KHz.wav
3	150	3	4	2	I	2	0	82	1	Ⴌ	cut_a_stereo_44KHz.wav
3	151	1	1	1	C	2	0	229	0	Ⴔ	cut_u_stereo_44KHz.wav
3	152	2	1	0	C	1	0	296	0	Ⴕ	cut_u_stereo_44KHz.wav
3	153	3	4	2	I	2	0	283	0	Ⴌ	cut_a_stereo_44KHz.wav
3	154	4	3	2	I	2	0	293	1	Ⴉ	cut_k_stereo_44KHz.wav
3	155	1	1	1	C	2	0	268	0	Ⴔ	cut_u_stereo_44KHz.wav
3	156	2	1	0	C	1	0	305	0	Ⴕ	cut_u_stereo_44KHz.wav
3	157	4	4	2	I	2	0	434	0	Ⴉ	cut_a_stereo_44KHz.wav
3	158	2	2	1	C	1	1	837	1	Ⴕ	cut_o_stereo_44KHz.wav
3	159	1	2	0	C	1	0	310	0	Ⴔ	cut_o_stereo_44KHz.wav
3	160	3	3	2	I	2	0	272	0	Ⴌ	cut_k_stereo_44KHz.wav
3	161	4	4	2	I	2	0	239	1	Ⴉ	cut_a_stereo_44KHz.wav
3	162	3	4	2	I	2	0	267	1	Ⴌ	cut_a_stereo_44KHz.wav
3	163	1	2	0	C	2	1	298	1	Ⴔ	cut_o_stereo_44KHz.wav
3	164	2	2	1	C	2	0	302	0	Ⴕ	cut_o_stereo_44KHz.wav
3	165	4	3	2	I	2	0	234	0	Ⴉ	cut_k_stereo_44KHz.wav
3	166	2	1	0	C	2	1	280	1	Ⴕ	cut_u_stereo_44KHz.wav
3	167	3	3	2	I	2	0	295	0	Ⴌ	cut_k_stereo_44KHz.wav
3	168	1	1	1	C	1	1	292	1	Ⴔ	cut_u_stereo_44KHz.wav
3	169	3	4	2	I	2	0	265	1	Ⴌ	cut_a_stereo_44KHz.wav
3	170	4	4	2	I	2	0	302	0	Ⴉ	cut_a_stereo_44KHz.wav
3	171	1	2	0	C	1	0	240	0	Ⴔ	cut_o_stereo_44KHz.wav
3	172	2	2	1	C	0	0	0	0	Ⴕ	cut_o_stereo_44KHz.wav
3	173	4	3	2	I	2	0	372	1	Ⴉ	cut_k_stereo_44KHz.wav
3	174	2	1	0	C	2	1	230	1	Ⴕ	cut_u_stereo_44KHz.wav
3	175	3	3	2	I	2	0	952	1	Ⴌ	cut_k_stereo_44KHz.wav
3	176	1	1	1	C	2	0	383	0	Ⴔ	cut_u_stereo_44KHz.wav
3	177	3	3	2	I	2	0	292	1	Ⴌ	cut_k_stereo_44KHz.wav
3	178	4	3	2	I	2	0	355	0	Ⴉ	cut_k_stereo_44KHz.wav
3	179	1	2	0	C	2	1	305	1	Ⴔ	cut_o_stereo_44KHz.wav
3	180	2	2	1	C	1	1	226	1	Ⴕ	cut_o_stereo_44KHz.wav
3	181	3	4	2	I	1	0	292	0	Ⴌ	cut_a_stereo_44KHz.wav
3	182	4	4	2	I	2	0	461	1	Ⴉ	cut_a_stereo_44KHz.wav
3	183	1	1	1	C	2	0	238	0	Ⴔ	cut_u_stereo_44KHz.wav
3	184	2	1	0	C	2	1	6	1	Ⴕ	cut_u_stereo_44KHz.wav
3	185	4	4	2	I	2	0	407	0	Ⴉ	cut_a_stereo_44KHz.wav
3	186	2	1	0	C	2	1	267	1	Ⴕ	cut_u_stereo_44KHz.wav
3	187	3	4	2	I	0	0	0	0	Ⴌ	cut_a_stereo_44KHz.wav
3	188	1	1	1	C	2	0	483	0	Ⴔ	cut_u_stereo_44KHz.wav
3	189	3	3	2	I	1	0	313	0	Ⴌ	cut_k_stereo_44KHz.wav
3	190	4	3	2	I	2	0	302	0	Ⴉ	cut_k_stereo_44KHz.wav
3	191	2	2	1	C	2	0	297	0	Ⴕ	cut_o_stereo_44KHz.wav
3	192	1	2	0	C	2	1	559	1	Ⴔ	cut_o_stereo_44KHz.wav
3	193	2	1	0	C	2	1	603	1	Ⴕ	cut_u_stereo_44KHz.wav
3	194	3	3	2	I	2	0	519	1	Ⴌ	cut_k_stereo_44KHz.wav
3	195	1	2	0	C	2	1	411	1	Ⴔ	cut_o_stereo_44KHz.wav
3	196	4	4	2	I	2	0	712	1	Ⴉ	cut_a_stereo_44KHz.wav
3	197	1	1	1	C	1	1	798	1	Ⴔ	cut_u_stereo_44KHz.wav
3	198	3	4	2	I	1	0	1001	0	Ⴌ	cut_a_stereo_44KHz.wav
3	199	4	3	2	I	1	0	853	0	Ⴉ	cut_k_stereo_44KHz.wav
3	200	2	2	1	C	1	1	911	1	Ⴕ	cut_o_stereo_44KHz.wav
4	1	3	4	2	I	2	0	1655	0	Ⴟ	cut_j_stereo_44KHz.wav
4	2	2	2	1	C	2	0	721	0	Ⴡ	cut_r_stereo_44KHz.wav
4	3	1	1	1	C	2	0	450	0	Ⴂ	cut_oei_stereo_44KHz.wav
4	4	4	4	2	I	2	0	268	0	Ⴊ	cut_j_stereo_44KHz.wav
4	5	3	3	2	I	2	0	1043	1	Ⴟ	cut_n_stereo_44KHz.wav
4	6	1	2	0	C	1	0	1051	0	Ⴂ	cut_r_stereo_44KHz.wav
4	7	2	1	0	C	1	0	891	0	Ⴡ	cut_oei_stereo_44KHz.wav
4	8	4	3	2	I	1	0	1342	0	Ⴊ	cut_n_stereo_44KHz.wav
4	9	1	2	0	C	1	0	1520	0	Ⴂ	cut_r_stereo_44KHz.wav
4	10	3	4	2	I	2	0	928	0	Ⴟ	cut_j_stereo_44KHz.wav
4	11	4	4	2	I	2	0	807	1	Ⴊ	cut_j_stereo_44KHz.wav
4	12	2	1	0	C	2	1	449	1	Ⴡ	cut_oei_stereo_44KHz.wav
4	13	3	3	2	I	2	0	646	0	Ⴟ	cut_n_stereo_44KHz.wav
4	14	4	3	2	I	2	0	279	0	Ⴊ	cut_n_stereo_44KHz.wav
4	15	1	1	1	C	1	1	1144	1	Ⴂ	cut_oei_stereo_44KHz.wav
4	16	2	2	1	C	2	0	747	0	Ⴡ	cut_r_stereo_44KHz.wav
4	17	3	4	2	I	1	0	961	1	Ⴟ	cut_j_stereo_44KHz.wav
4	18	2	1	0	C	2	1	658	1	Ⴡ	cut_oei_stereo_44KHz.wav
4	19	4	3	2	I	2	0	928	1	Ⴊ	cut_n_stereo_44KHz.wav
4	20	1	2	0	C	1	0	804	0	Ⴂ	cut_r_stereo_44KHz.wav
4	21	2	2	1	C	1	1	951	1	Ⴡ	cut_r_stereo_44KHz.wav
4	22	1	1	1	C	1	1	950	1	Ⴂ	cut_oei_stereo_44KHz.wav
4	23	3	3	2	I	2	0	658	1	Ⴟ	cut_n_stereo_44KHz.wav
4	24	4	4	2	I	1	0	987	1	Ⴊ	cut_j_stereo_44KHz.wav
4	25	2	1	0	C	2	1	584	1	Ⴡ	cut_oei_stereo_44KHz.wav
4	26	4	3	2	I	2	0	671	1	Ⴊ	cut_n_stereo_44KHz.wav
4	27	1	2	0	C	1	0	1122	0	Ⴂ	cut_r_stereo_44KHz.wav
4	28	3	3	2	I	2	0	608	0	Ⴟ	cut_n_stereo_44KHz.wav
4	29	1	1	1	C	1	1	856	1	Ⴂ	cut_oei_stereo_44KHz.wav
4	30	4	4	2	I	1	0	921	0	Ⴊ	cut_j_stereo_44KHz.wav
4	31	2	2	1	C	1	1	1141	1	Ⴡ	cut_r_stereo_44KHz.wav
4	32	3	4	2	I	1	0	937	0	Ⴟ	cut_j_stereo_44KHz.wav
4	33	2	1	0	C	2	1	532	1	Ⴡ	cut_oei_stereo_44KHz.wav
4	34	4	3	2	I	2	0	672	1	Ⴊ	cut_n_stereo_44KHz.wav
4	35	1	1	1	C	2	0	1001	0	Ⴂ	cut_oei_stereo_44KHz.wav
4	36	3	3	2	I	1	0	1091	1	Ⴟ	cut_n_stereo_44KHz.wav
4	37	1	2	0	C	1	0	1087	0	Ⴂ	cut_r_stereo_44KHz.wav
4	38	2	2	1	C	1	1	1406	1	Ⴡ	cut_r_stereo_44KHz.wav
4	39	3	4	2	I	2	0	1141	1	Ⴟ	cut_j_stereo_44KHz.wav
4	40	4	4	2	I	1	0	1168	0	Ⴊ	cut_j_stereo_44KHz.wav
4	41	2	2	1	C	2	0	1104	0	Ⴡ	cut_r_stereo_44KHz.wav
4	42	4	3	2	I	2	0	1114	1	Ⴊ	cut_n_stereo_44KHz.wav
4	43	3	4	2	I	2	0	860	1	Ⴟ	cut_j_stereo_44KHz.wav
4	44	1	2	0	C	2	1	1043	1	Ⴂ	cut_r_stereo_44KHz.wav
4	45	2	1	0	C	2	1	365	1	Ⴡ	cut_oei_stereo_44KHz.wav
4	46	1	1	1	C	1	1	1043	1	Ⴂ	cut_oei_stereo_44KHz.wav
4	47	4	4	2	I	1	0	1276	0	Ⴊ	cut_j_stereo_44KHz.wav
4	48	3	3	2	I	2	0	634	1	Ⴟ	cut_n_stereo_44KHz.wav
4	49	1	1	1	C	1	1	954	1	Ⴂ	cut_oei_stereo_44KHz.wav
4	50	3	4	2	I	2	0	857	0	Ⴟ	cut_j_stereo_44KHz.wav
4	51	2	1	0	C	2	1	628	1	Ⴡ	cut_oei_stereo_44KHz.wav
4	52	4	4	2	I	1	0	1584	1	Ⴊ	cut_j_stereo_44KHz.wav
4	53	3	3	2	I	2	0	591	1	Ⴟ	cut_n_stereo_44KHz.wav
4	54	2	2	1	C	1	1	1021	1	Ⴡ	cut_r_stereo_44KHz.wav
4	55	4	3	2	I	2	0	566	1	Ⴊ	cut_n_stereo_44KHz.wav
4	56	1	2	0	C	1	0	1151	0	Ⴂ	cut_r_stereo_44KHz.wav
4	57	3	4	2	I	2	0	915	1	Ⴟ	cut_j_stereo_44KHz.wav
4	58	2	2	1	C	2	0	649	0	Ⴡ	cut_r_stereo_44KHz.wav
4	59	1	1	1	C	2	0	714	0	Ⴂ	cut_oei_stereo_44KHz.wav
4	60	4	4	2	I	2	0	810	0	Ⴊ	cut_j_stereo_44KHz.wav
4	61	1	2	0	C	2	1	572	1	Ⴂ	cut_r_stereo_44KHz.wav
4	62	2	1	0	C	2	1	494	1	Ⴡ	cut_oei_stereo_44KHz.wav
4	63	4	3	2	I	2	0	636	0	Ⴊ	cut_n_stereo_44KHz.wav
4	64	3	3	2	I	2	0	701	1	Ⴟ	cut_n_stereo_44KHz.wav
4	65	1	1	1	C	1	1	1013	1	Ⴂ	cut_oei_stereo_44KHz.wav
4	66	2	2	1	C	1	1	872	1	Ⴡ	cut_r_stereo_44KHz.wav
4	67	4	4	2	I	1	0	937	0	Ⴊ	cut_j_stereo_44KHz.wav
4	68	3	3	2	I	2	0	603	0	Ⴟ	cut_n_stereo_44KHz.wav
4	69	1	2	0	C	2	1	1460	1	Ⴂ	cut_r_stereo_44KHz.wav
4	70	3	4	2	I	2	0	1196	0	Ⴟ	cut_j_stereo_44KHz.wav
4	71	4	3	2	I	2	0	852	0	Ⴊ	cut_n_stereo_44KHz.wav
4	72	2	1	0	C	2	1	859	1	Ⴡ	cut_oei_stereo_44KHz.wav
4	73	3	4	2	I	2	0	616	0	Ⴟ	cut_j_stereo_44KHz.wav
4	74	2	2	1	C	2	0	594	0	Ⴡ	cut_r_stereo_44KHz.wav
4	75	4	3	2	I	1	0	1481	0	Ⴊ	cut_n_stereo_44KHz.wav
4	76	1	1	1	C	1	1	968	1	Ⴂ	cut_oei_stereo_44KHz.wav
4	77	4	4	2	I	1	0	1061	0	Ⴊ	cut_j_stereo_44KHz.wav
4	78	3	3	2	I	2	0	664	1	Ⴟ	cut_n_stereo_44KHz.wav
4	79	1	2	0	C	2	1	689	1	Ⴂ	cut_r_stereo_44KHz.wav
4	80	2	1	0	C	2	1	313	1	Ⴡ	cut_oei_stereo_44KHz.wav
4	81	4	4	2	I	2	0	1200	0	Ⴊ	cut_j_stereo_44KHz.wav
4	82	1	2	0	C	2	1	660	1	Ⴂ	cut_r_stereo_44KHz.wav
4	83	2	1	0	C	2	1	498	1	Ⴡ	cut_oei_stereo_44KHz.wav
4	84	3	4	2	I	2	0	804	1	Ⴟ	cut_j_stereo_44KHz.wav
4	85	4	3	2	I	1	0	1021	0	Ⴊ	cut_n_stereo_44KHz.wav
4	86	3	3	2	I	2	0	646	1	Ⴟ	cut_n_stereo_44KHz.wav
4	87	2	2	1	C	2	0	740	0	Ⴡ	cut_r_stereo_44KHz.wav
4	88	1	1	1	C	1	1	950	1	Ⴂ	cut_oei_stereo_44KHz.wav
4	89	3	3	2	I	2	0	853	0	Ⴟ	cut_n_stereo_44KHz.wav
4	90	2	1	0	C	2	1	825	1	Ⴡ	cut_oei_stereo_44KHz.wav
4	91	4	3	2	I	1	0	816	1	Ⴊ	cut_n_stereo_44KHz.wav
4	92	1	1	1	C	2	0	747	0	Ⴂ	cut_oei_stereo_44KHz.wav
4	93	4	4	2	I	2	0	823	1	Ⴊ	cut_j_stereo_44KHz.wav
4	94	1	2	0	C	2	1	816	1	Ⴂ	cut_r_stereo_44KHz.wav
4	95	3	4	2	I	1	0	900	1	Ⴟ	cut_j_stereo_44KHz.wav
4	96	2	2	1	C	1	1	802	1	Ⴡ	cut_r_stereo_44KHz.wav
4	97	1	2	0	C	2	1	676	1	Ⴂ	cut_r_stereo_44KHz.wav
4	98	2	2	1	C	1	1	1217	1	Ⴡ	cut_r_stereo_44KHz.wav
4	99	3	3	2	I	2	0	678	1	Ⴟ	cut_n_stereo_44KHz.wav
4	100	4	3	2	I	2	0	949	1	Ⴊ	cut_n_stereo_44KHz.wav
4	101	2	1	0	C	1	0	869	0	Ⴡ	cut_oei_stereo_44KHz.wav
4	102	3	4	2	I	2	0	988	1	Ⴟ	cut_j_stereo_44KHz.wav
4	103	1	1	1	C	1	1	779	1	Ⴂ	cut_oei_stereo_44KHz.wav
4	104	4	4	2	I	1	0	1017	1	Ⴊ	cut_j_stereo_44KHz.wav
4	105	2	2	1	C	2	0	836	0	Ⴡ	cut_r_stereo_44KHz.wav
4	106	1	2	0	C	2	1	620	1	Ⴂ	cut_r_stereo_44KHz.wav
4	107	4	3	2	I	1	0	859	0	Ⴊ	cut_n_stereo_44KHz.wav
4	108	3	4	2	I	1	0	833	0	Ⴟ	cut_j_stereo_44KHz.wav
4	109	4	4	2	I	2	0	769	0	Ⴊ	cut_j_stereo_44KHz.wav
4	110	2	1	0	C	2	1	730	1	Ⴡ	cut_oei_stereo_44KHz.wav
4	111	3	3	2	I	2	0	853	1	Ⴟ	cut_n_stereo_44KHz.wav
4	112	1	1	1	C	1	1	875	1	Ⴂ	cut_oei_stereo_44KHz.wav
4	113	2	2	1	C	1	1	920	1	Ⴡ	cut_r_stereo_44KHz.wav
4	114	3	3	2	I	1	0	960	0	Ⴟ	cut_n_stereo_44KHz.wav
4	115	4	3	2	I	2	0	799	1	Ⴊ	cut_n_stereo_44KHz.wav
4	116	1	1	1	C	1	1	755	1	Ⴂ	cut_oei_stereo_44KHz.wav
4	117	3	4	2	I	1	0	830	0	Ⴟ	cut_j_stereo_44KHz.wav
4	118	1	2	0	C	2	1	786	1	Ⴂ	cut_r_stereo_44KHz.wav
4	119	4	4	2	I	1	0	984	0	Ⴊ	cut_j_stereo_44KHz.wav
4	120	2	1	0	C	2	1	883	1	Ⴡ	cut_oei_stereo_44KHz.wav
4	121	1	1	1	C	1	1	917	1	Ⴂ	cut_oei_stereo_44KHz.wav
4	122	3	4	2	I	2	0	1123	0	Ⴟ	cut_j_stereo_44KHz.wav
4	123	2	2	1	C	1	1	1144	1	Ⴡ	cut_r_stereo_44KHz.wav
4	124	4	3	2	I	1	0	786	0	Ⴊ	cut_n_stereo_44KHz.wav
4	125	3	3	2	I	1	0	838	1	Ⴟ	cut_n_stereo_44KHz.wav
4	126	1	2	0	C	2	1	1129	1	Ⴂ	cut_r_stereo_44KHz.wav
4	127	4	4	2	I	2	0	836	0	Ⴊ	cut_j_stereo_44KHz.wav
4	128	2	1	0	C	2	1	738	1	Ⴡ	cut_oei_stereo_44KHz.wav
4	129	3	3	2	I	2	0	926	1	Ⴟ	cut_n_stereo_44KHz.wav
4	130	1	1	1	C	1	1	726	1	Ⴂ	cut_oei_stereo_44KHz.wav
4	131	2	1	0	C	1	0	728	0	Ⴡ	cut_oei_stereo_44KHz.wav
4	132	4	3	2	I	2	0	829	1	Ⴊ	cut_n_stereo_44KHz.wav
4	133	3	4	2	I	1	0	950	1	Ⴟ	cut_j_stereo_44KHz.wav
4	134	4	4	2	I	2	0	705	0	Ⴊ	cut_j_stereo_44KHz.wav
4	135	1	2	0	C	1	0	984	0	Ⴂ	cut_r_stereo_44KHz.wav
4	136	2	2	1	C	2	0	648	0	Ⴡ	cut_r_stereo_44KHz.wav
4	137	1	2	0	C	2	1	667	1	Ⴂ	cut_r_stereo_44KHz.wav
4	138	3	3	2	I	1	0	972	0	Ⴟ	cut_n_stereo_44KHz.wav
4	139	4	4	2	I	2	0	976	0	Ⴊ	cut_j_stereo_44KHz.wav
4	140	2	1	0	C	2	1	709	1	Ⴡ	cut_oei_stereo_44KHz.wav
4	141	3	4	2	I	2	0	706	0	Ⴟ	cut_j_stereo_44KHz.wav
4	142	2	2	1	C	1	1	870	1	Ⴡ	cut_r_stereo_44KHz.wav
4	143	1	1	1	C	1	1	787	1	Ⴂ	cut_oei_stereo_44KHz.wav
4	144	4	3	2	I	1	0	696	1	Ⴊ	cut_n_stereo_44KHz.wav
4	145	3	3	2	I	2	0	991	1	Ⴟ	cut_n_stereo_44KHz.wav
4	146	2	1	0	C	2	1	687	1	Ⴡ	cut_oei_stereo_44KHz.wav
4	147	4	3	2	I	1	0	672	1	Ⴊ	cut_n_stereo_44KHz.wav
4	148	1	1	1	C	2	0	735	0	Ⴂ	cut_oei_stereo_44KHz.wav
4	149	3	4	2	I	1	0	568	0	Ⴟ	cut_j_stereo_44KHz.wav
4	150	4	4	2	I	1	0	506	1	Ⴊ	cut_j_stereo_44KHz.wav
4	151	2	2	1	C	1	1	836	1	Ⴡ	cut_r_stereo_44KHz.wav
4	152	1	2	0	C	1	0	804	0	Ⴂ	cut_r_stereo_44KHz.wav
4	153	4	4	2	I	1	0	871	1	Ⴊ	cut_j_stereo_44KHz.wav
4	154	3	4	2	I	1	0	874	0	Ⴟ	cut_j_stereo_44KHz.wav
4	155	1	1	1	C	1	1	833	1	Ⴂ	cut_oei_stereo_44KHz.wav
4	156	2	2	1	C	1	1	828	1	Ⴡ	cut_r_stereo_44KHz.wav
4	157	1	2	0	C	2	1	848	1	Ⴂ	cut_r_stereo_44KHz.wav
4	158	2	1	0	C	2	1	821	1	Ⴡ	cut_oei_stereo_44KHz.wav
4	159	3	3	2	I	1	0	798	0	Ⴟ	cut_n_stereo_44KHz.wav
4	160	4	3	2	I	2	0	843	0	Ⴊ	cut_n_stereo_44KHz.wav
4	161	1	2	0	C	2	1	737	1	Ⴂ	cut_r_stereo_44KHz.wav
4	162	2	2	1	C	2	0	759	0	Ⴡ	cut_r_stereo_44KHz.wav
4	163	3	3	2	I	1	0	670	0	Ⴟ	cut_n_stereo_44KHz.wav
4	164	4	4	2	I	1	0	991	1	Ⴊ	cut_j_stereo_44KHz.wav
4	165	3	4	2	I	2	0	989	1	Ⴟ	cut_j_stereo_44KHz.wav
4	166	2	1	0	C	2	1	650	1	Ⴡ	cut_oei_stereo_44KHz.wav
4	167	1	1	1	C	1	1	953	1	Ⴂ	cut_oei_stereo_44KHz.wav
4	168	4	3	2	I	1	0	1038	0	Ⴊ	cut_n_stereo_44KHz.wav
4	169	3	3	2	I	2	0	862	0	Ⴟ	cut_n_stereo_44KHz.wav
4	170	4	3	2	I	2	0	611	1	Ⴊ	cut_n_stereo_44KHz.wav
4	171	1	2	0	C	2	1	616	1	Ⴂ	cut_r_stereo_44KHz.wav
4	172	2	1	0	C	2	1	648	1	Ⴡ	cut_oei_stereo_44KHz.wav
4	173	3	4	2	I	1	0	820	1	Ⴟ	cut_j_stereo_44KHz.wav
4	174	4	4	2	I	2	0	869	1	Ⴊ	cut_j_stereo_44KHz.wav
4	175	1	1	1	C	1	1	1020	1	Ⴂ	cut_oei_stereo_44KHz.wav
4	176	2	2	1	C	1	1	830	1	Ⴡ	cut_r_stereo_44KHz.wav
4	177	1	2	0	C	2	1	733	1	Ⴂ	cut_r_stereo_44KHz.wav
4	178	2	2	1	C	1	1	985	1	Ⴡ	cut_r_stereo_44KHz.wav
4	179	4	3	2	I	2	0	773	0	Ⴊ	cut_n_stereo_44KHz.wav
4	180	3	4	2	I	1	0	893	0	Ⴟ	cut_j_stereo_44KHz.wav
4	181	4	4	2	I	1	0	960	1	Ⴊ	cut_j_stereo_44KHz.wav
4	182	1	1	1	C	1	1	831	1	Ⴂ	cut_oei_stereo_44KHz.wav
4	183	2	1	0	C	2	1	975	1	Ⴡ	cut_oei_stereo_44KHz.wav
4	184	3	3	2	I	1	0	556	0	Ⴟ	cut_n_stereo_44KHz.wav
4	185	4	3	2	I	2	0	664	1	Ⴊ	cut_n_stereo_44KHz.wav
4	186	3	4	2	I	2	0	600	0	Ⴟ	cut_j_stereo_44KHz.wav
4	187	2	1	0	C	2	1	726	1	Ⴡ	cut_oei_stereo_44KHz.wav
4	188	1	1	1	C	1	1	747	1	Ⴂ	cut_oei_stereo_44KHz.wav
4	189	2	2	1	C	1	1	879	1	Ⴡ	cut_r_stereo_44KHz.wav
4	190	4	4	2	I	2	0	820	1	Ⴊ	cut_j_stereo_44KHz.wav
4	191	1	2	0	C	2	1	836	1	Ⴂ	cut_r_stereo_44KHz.wav
4	192	3	3	2	I	2	0	791	1	Ⴟ	cut_n_stereo_44KHz.wav
4	193	4	4	2	I	1	0	738	1	Ⴊ	cut_j_stereo_44KHz.wav
4	194	3	3	2	I	2	0	679	1	Ⴟ	cut_n_stereo_44KHz.wav
4	195	1	1	1	C	1	1	1046	1	Ⴂ	cut_oei_stereo_44KHz.wav
4	196	2	1	0	C	2	1	709	1	Ⴡ	cut_oei_stereo_44KHz.wav
4	197	4	3	2	I	1	0	1132	0	Ⴊ	cut_n_stereo_44KHz.wav
4	198	2	2	1	C	2	0	1378	0	Ⴡ	cut_r_stereo_44KHz.wav
4	199	1	2	0	C	2	1	671	1	Ⴂ	cut_r_stereo_44KHz.wav
4	200	3	4	2	I	1	0	838	0	Ⴟ	cut_j_stereo_44KHz.wav
