block	trial	Vstim	Astim	match	C/I	resp	result	RT	fb	V-file	A-file
LR

0	1	1	1	1	C	2	1	1388	1	poli_8sides 22_whiteLine3.jpg	Practice1_b27_cut1_stereo_44KHz.wav
0	2	2	3	1	C	1	0	1084	0	poli_8sides 23_whiteLine3.jpg	Practice2_b27_cut2_stereo_44KHz.wav
0	3	2	4	0	C	2	0	1649	0	poli_8sides 23_whiteLine3.jpg	Practice4_b26_stereo_44KHz.wav
0	4	1	2	0	C	1	1	1103	1	poli_8sides 22_whiteLine3.jpg	Practice3_b26_cut1_stereo_44KHz.wav
0	5	2	4	0	C	1	1	1209	1	poli_8sides 23_whiteLine3.jpg	Practice4_b26_stereo_44KHz.wav
0	6	1	2	0	C	1	1	634	1	poli_8sides 22_whiteLine3.jpg	Practice3_b26_cut1_stereo_44KHz.wav
0	7	2	3	1	C	0	0	0	0	poli_8sides 23_whiteLine3.jpg	Practice2_b27_cut2_stereo_44KHz.wav
0	8	1	1	1	C	1	0	759	0	poli_8sides 22_whiteLine3.jpg	Practice1_b27_cut1_stereo_44KHz.wav
0	9	2	3	1	C	2	1	1356	1	poli_8sides 23_whiteLine3.jpg	Practice2_b27_cut2_stereo_44KHz.wav
0	10	2	4	0	C	2	0	766	0	poli_8sides 23_whiteLine3.jpg	Practice4_b26_stereo_44KHz.wav
0	11	1	2	0	C	1	1	756	1	poli_8sides 22_whiteLine3.jpg	Practice3_b26_cut1_stereo_44KHz.wav
0	12	1	1	1	C	2	1	785	1	poli_8sides 22_whiteLine3.jpg	Practice1_b27_cut1_stereo_44KHz.wav
0	13	2	3	1	C	2	1	1127	1	poli_8sides 23_whiteLine3.jpg	Practice2_b27_cut2_stereo_44KHz.wav
0	14	1	2	0	C	1	1	555	1	poli_8sides 22_whiteLine3.jpg	Practice3_b26_cut1_stereo_44KHz.wav
0	15	2	4	0	C	1	1	1040	1	poli_8sides 23_whiteLine3.jpg	Practice4_b26_stereo_44KHz.wav
0	16	1	1	1	C	2	1	688	1	poli_8sides 22_whiteLine3.jpg	Practice1_b27_cut1_stereo_44KHz.wav
0	17	1	1	1	C	2	1	1012	1	poli_8sides 22_whiteLine3.jpg	Practice1_b27_cut1_stereo_44KHz.wav
0	18	1	2	0	C	1	1	816	1	poli_8sides 22_whiteLine3.jpg	Practice3_b26_cut1_stereo_44KHz.wav
0	19	2	3	1	C	2	1	604	1	poli_8sides 23_whiteLine3.jpg	Practice2_b27_cut2_stereo_44KHz.wav
0	20	2	4	0	C	1	1	690	1	poli_8sides 23_whiteLine3.jpg	Practice4_b26_stereo_44KHz.wav
0	21	1	2	0	C	1	1	674	1	poli_8sides 22_whiteLine3.jpg	Practice3_b26_cut1_stereo_44KHz.wav
0	22	1	1	1	C	2	1	603	1	poli_8sides 22_whiteLine3.jpg	Practice1_b27_cut1_stereo_44KHz.wav
0	23	2	4	0	C	1	1	867	1	poli_8sides 23_whiteLine3.jpg	Practice4_b26_stereo_44KHz.wav
0	24	2	3	1	C	2	1	891	1	poli_8sides 23_whiteLine3.jpg	Practice2_b27_cut2_stereo_44KHz.wav
0	25	2	4	0	C	1	1	762	1	poli_8sides 23_whiteLine3.jpg	Practice4_b26_stereo_44KHz.wav
0	26	1	1	1	C	2	1	606	1	poli_8sides 22_whiteLine3.jpg	Practice1_b27_cut1_stereo_44KHz.wav
0	27	1	2	0	C	1	1	823	1	poli_8sides 22_whiteLine3.jpg	Practice3_b26_cut1_stereo_44KHz.wav
0	28	2	3	1	C	2	1	648	1	poli_8sides 23_whiteLine3.jpg	Practice2_b27_cut2_stereo_44KHz.wav
0	29	1	1	1	C	2	1	662	1	poli_8sides 22_whiteLine3.jpg	Practice1_b27_cut1_stereo_44KHz.wav
0	30	2	3	1	C	2	1	725	1	poli_8sides 23_whiteLine3.jpg	Practice2_b27_cut2_stereo_44KHz.wav
avg_resp = 841
1	1	1	1	1	C	1	0	1124	0	poli_8sides 5_whiteLine3.jpg	Medium_e13_stereo_44KHz.wav
1	2	2	2	1	C	1	0	1020	0	poli_8sides 7_whiteLine3.jpg	Medium_e21_stereo_44KHz.wav
1	3	4	3	2	I	1	0	682	1	poli_8sides 10_whiteLine3.jpg	MediumLong_b10_cut2_L_stereo_44KHz.wav
1	4	3	3	2	I	2	0	771	1	poli_8sides 9_whiteLine3.jpg	MediumLong_b10_cut2_L_stereo_44KHz.wav
1	5	2	1	0	C	1	1	912	1	poli_8sides 7_whiteLine3.jpg	Medium_e13_stereo_44KHz.wav
1	6	3	4	2	I	1	0	1051	1	poli_8sides 9_whiteLine3.jpg	MediumLong_e17_cut2_stereo_44KHz.wav
1	7	4	4	2	I	2	0	875	0	poli_8sides 10_whiteLine3.jpg	MediumLong_e17_cut2_stereo_44KHz.wav
1	8	1	2	0	C	1	1	916	1	poli_8sides 5_whiteLine3.jpg	Medium_e21_stereo_44KHz.wav
1	9	2	2	1	C	2	1	1064	1	poli_8sides 7_whiteLine3.jpg	Medium_e21_stereo_44KHz.wav
1	10	3	3	2	I	2	0	1134	1	poli_8sides 9_whiteLine3.jpg	MediumLong_b10_cut2_L_stereo_44KHz.wav
1	11	1	2	0	C	1	1	1053	1	poli_8sides 5_whiteLine3.jpg	Medium_e21_stereo_44KHz.wav
1	12	4	4	2	I	1	0	1011	1	poli_8sides 10_whiteLine3.jpg	MediumLong_e17_cut2_stereo_44KHz.wav
1	13	3	4	2	I	2	0	582	0	poli_8sides 9_whiteLine3.jpg	MediumLong_e17_cut2_stereo_44KHz.wav
1	14	2	1	0	C	1	1	955	1	poli_8sides 7_whiteLine3.jpg	Medium_e13_stereo_44KHz.wav
1	15	4	3	2	I	1	0	657	1	poli_8sides 10_whiteLine3.jpg	MediumLong_b10_cut2_L_stereo_44KHz.wav
1	16	1	1	1	C	1	0	1096	0	poli_8sides 5_whiteLine3.jpg	Medium_e13_stereo_44KHz.wav
1	17	3	3	2	I	1	0	811	0	poli_8sides 9_whiteLine3.jpg	MediumLong_b10_cut2_L_stereo_44KHz.wav
1	18	2	2	1	C	1	0	955	0	poli_8sides 7_whiteLine3.jpg	Medium_e21_stereo_44KHz.wav
1	19	4	3	2	I	1	0	692	1	poli_8sides 10_whiteLine3.jpg	MediumLong_b10_cut2_L_stereo_44KHz.wav
1	20	1	1	1	C	1	0	790	0	poli_8sides 5_whiteLine3.jpg	Medium_e13_stereo_44KHz.wav
1	21	3	4	2	I	1	0	1072	1	poli_8sides 9_whiteLine3.jpg	MediumLong_e17_cut2_stereo_44KHz.wav
1	22	1	2	0	C	1	1	723	1	poli_8sides 5_whiteLine3.jpg	Medium_e21_stereo_44KHz.wav
1	23	2	1	0	C	1	1	772	1	poli_8sides 7_whiteLine3.jpg	Medium_e13_stereo_44KHz.wav
1	24	4	4	2	I	1	0	622	0	poli_8sides 10_whiteLine3.jpg	MediumLong_e17_cut2_stereo_44KHz.wav
1	25	3	4	2	I	1	0	745	1	poli_8sides 9_whiteLine3.jpg	MediumLong_e17_cut2_stereo_44KHz.wav
1	26	1	1	1	C	2	1	1074	1	poli_8sides 5_whiteLine3.jpg	Medium_e13_stereo_44KHz.wav
1	27	4	3	2	I	1	0	635	0	poli_8sides 10_whiteLine3.jpg	MediumLong_b10_cut2_L_stereo_44KHz.wav
1	28	2	2	1	C	1	0	948	0	poli_8sides 7_whiteLine3.jpg	Medium_e21_stereo_44KHz.wav
1	29	1	2	0	C	1	1	828	1	poli_8sides 5_whiteLine3.jpg	Medium_e21_stereo_44KHz.wav
1	30	4	4	2	I	1	0	774	1	poli_8sides 10_whiteLine3.jpg	MediumLong_e17_cut2_stereo_44KHz.wav
1	31	3	3	2	I	2	0	964	1	poli_8sides 9_whiteLine3.jpg	MediumLong_b10_cut2_L_stereo_44KHz.wav
1	32	2	1	0	C	1	1	678	1	poli_8sides 7_whiteLine3.jpg	Medium_e13_stereo_44KHz.wav
1	33	3	3	2	I	1	0	1087	1	poli_8sides 9_whiteLine3.jpg	MediumLong_b10_cut2_L_stereo_44KHz.wav
1	34	4	4	2	I	2	0	676	1	poli_8sides 10_whiteLine3.jpg	MediumLong_e17_cut2_stereo_44KHz.wav
1	35	1	2	0	C	1	1	926	1	poli_8sides 5_whiteLine3.jpg	Medium_e21_stereo_44KHz.wav
1	36	2	2	1	C	1	0	968	0	poli_8sides 7_whiteLine3.jpg	Medium_e21_stereo_44KHz.wav
1	37	1	1	1	C	1	0	947	0	poli_8sides 5_whiteLine3.jpg	Medium_e13_stereo_44KHz.wav
1	38	4	3	2	I	1	0	832	1	poli_8sides 10_whiteLine3.jpg	MediumLong_b10_cut2_L_stereo_44KHz.wav
1	39	3	4	2	I	2	0	704	0	poli_8sides 9_whiteLine3.jpg	MediumLong_e17_cut2_stereo_44KHz.wav
1	40	2	1	0	C	1	1	871	1	poli_8sides 7_whiteLine3.jpg	Medium_e13_stereo_44KHz.wav
1	41	3	4	2	I	2	0	894	1	poli_8sides 9_whiteLine3.jpg	MediumLong_e17_cut2_stereo_44KHz.wav
1	42	4	4	2	I	1	0	1133	1	poli_8sides 10_whiteLine3.jpg	MediumLong_e17_cut2_stereo_44KHz.wav
1	43	2	2	1	C	1	0	736	0	poli_8sides 7_whiteLine3.jpg	Medium_e21_stereo_44KHz.wav
1	44	1	2	0	C	2	0	804	0	poli_8sides 5_whiteLine3.jpg	Medium_e21_stereo_44KHz.wav
1	45	2	1	0	C	1	1	736	1	poli_8sides 7_whiteLine3.jpg	Medium_e13_stereo_44KHz.wav
1	46	3	3	2	I	1	0	852	0	poli_8sides 9_whiteLine3.jpg	MediumLong_b10_cut2_L_stereo_44KHz.wav
1	47	4	3	2	I	1	0	784	1	poli_8sides 10_whiteLine3.jpg	MediumLong_b10_cut2_L_stereo_44KHz.wav
1	48	1	1	1	C	2	1	1199	1	poli_8sides 5_whiteLine3.jpg	Medium_e13_stereo_44KHz.wav
1	49	2	1	0	C	1	1	736	1	poli_8sides 7_whiteLine3.jpg	Medium_e13_stereo_44KHz.wav
1	50	1	1	1	C	2	1	809	1	poli_8sides 5_whiteLine3.jpg	Medium_e13_stereo_44KHz.wav
1	51	4	3	2	I	1	0	795	0	poli_8sides 10_whiteLine3.jpg	MediumLong_b10_cut2_L_stereo_44KHz.wav
1	52	3	4	2	I	2	0	1206	0	poli_8sides 9_whiteLine3.jpg	MediumLong_e17_cut2_stereo_44KHz.wav
1	53	2	2	1	C	2	1	881	1	poli_8sides 7_whiteLine3.jpg	Medium_e21_stereo_44KHz.wav
1	54	3	3	2	I	1	0	814	1	poli_8sides 9_whiteLine3.jpg	MediumLong_b10_cut2_L_stereo_44KHz.wav
1	55	1	2	0	C	1	1	1107	1	poli_8sides 5_whiteLine3.jpg	Medium_e21_stereo_44KHz.wav
1	56	4	4	2	I	1	0	1213	0	poli_8sides 10_whiteLine3.jpg	MediumLong_e17_cut2_stereo_44KHz.wav
1	57	2	2	1	C	1	0	1042	0	poli_8sides 7_whiteLine3.jpg	Medium_e21_stereo_44KHz.wav
1	58	4	4	2	I	1	0	792	0	poli_8sides 10_whiteLine3.jpg	MediumLong_e17_cut2_stereo_44KHz.wav
1	59	1	2	0	C	1	1	901	1	poli_8sides 5_whiteLine3.jpg	Medium_e21_stereo_44KHz.wav
1	60	3	4	2	I	2	0	714	0	poli_8sides 9_whiteLine3.jpg	MediumLong_e17_cut2_stereo_44KHz.wav
1	61	2	1	0	C	1	1	1079	1	poli_8sides 7_whiteLine3.jpg	Medium_e13_stereo_44KHz.wav
1	62	3	3	2	I	2	0	989	0	poli_8sides 9_whiteLine3.jpg	MediumLong_b10_cut2_L_stereo_44KHz.wav
1	63	4	3	2	I	1	0	728	1	poli_8sides 10_whiteLine3.jpg	MediumLong_b10_cut2_L_stereo_44KHz.wav
1	64	1	1	1	C	1	0	859	0	poli_8sides 5_whiteLine3.jpg	Medium_e13_stereo_44KHz.wav
1	65	3	3	2	I	2	0	657	1	poli_8sides 9_whiteLine3.jpg	MediumLong_b10_cut2_L_stereo_44KHz.wav
1	66	1	2	0	C	1	1	1046	1	poli_8sides 5_whiteLine3.jpg	Medium_e21_stereo_44KHz.wav
1	67	4	3	2	I	1	0	796	0	poli_8sides 10_whiteLine3.jpg	MediumLong_b10_cut2_L_stereo_44KHz.wav
1	68	2	1	0	C	1	1	765	1	poli_8sides 7_whiteLine3.jpg	Medium_e13_stereo_44KHz.wav
1	69	4	4	2	I	2	0	761	0	poli_8sides 10_whiteLine3.jpg	MediumLong_e17_cut2_stereo_44KHz.wav
1	70	2	2	1	C	2	1	1126	1	poli_8sides 7_whiteLine3.jpg	Medium_e21_stereo_44KHz.wav
1	71	1	1	1	C	1	0	1020	0	poli_8sides 5_whiteLine3.jpg	Medium_e13_stereo_44KHz.wav
1	72	3	4	2	I	1	0	841	0	poli_8sides 9_whiteLine3.jpg	MediumLong_e17_cut2_stereo_44KHz.wav
1	73	2	1	0	C	1	1	770	1	poli_8sides 7_whiteLine3.jpg	Medium_e13_stereo_44KHz.wav
1	74	1	2	0	C	1	1	1033	1	poli_8sides 5_whiteLine3.jpg	Medium_e21_stereo_44KHz.wav
1	75	4	4	2	I	1	0	806	1	poli_8sides 10_whiteLine3.jpg	MediumLong_e17_cut2_stereo_44KHz.wav
1	76	3	4	2	I	1	0	1005	0	poli_8sides 9_whiteLine3.jpg	MediumLong_e17_cut2_stereo_44KHz.wav
1	77	2	2	1	C	2	1	1268	1	poli_8sides 7_whiteLine3.jpg	Medium_e21_stereo_44KHz.wav
1	78	4	3	2	I	1	0	709	1	poli_8sides 10_whiteLine3.jpg	MediumLong_b10_cut2_L_stereo_44KHz.wav
1	79	1	1	1	C	1	0	750	0	poli_8sides 5_whiteLine3.jpg	Medium_e13_stereo_44KHz.wav
1	80	3	3	2	I	1	0	760	0	poli_8sides 9_whiteLine3.jpg	MediumLong_b10_cut2_L_stereo_44KHz.wav
1	81	1	2	0	C	1	1	952	1	poli_8sides 5_whiteLine3.jpg	Medium_e21_stereo_44KHz.wav
1	82	4	3	2	I	1	0	758	0	poli_8sides 10_whiteLine3.jpg	MediumLong_b10_cut2_L_stereo_44KHz.wav
1	83	2	2	1	C	2	1	1095	1	poli_8sides 7_whiteLine3.jpg	Medium_e21_stereo_44KHz.wav
1	84	3	3	2	I	1	0	716	0	poli_8sides 9_whiteLine3.jpg	MediumLong_b10_cut2_L_stereo_44KHz.wav
1	85	1	1	1	C	1	0	827	0	poli_8sides 5_whiteLine3.jpg	Medium_e13_stereo_44KHz.wav
1	86	4	4	2	I	1	0	960	1	poli_8sides 10_whiteLine3.jpg	MediumLong_e17_cut2_stereo_44KHz.wav
1	87	3	4	2	I	1	0	987	0	poli_8sides 9_whiteLine3.jpg	MediumLong_e17_cut2_stereo_44KHz.wav
1	88	2	1	0	C	1	1	736	1	poli_8sides 7_whiteLine3.jpg	Medium_e13_stereo_44KHz.wav
1	89	4	3	2	I	2	0	915	0	poli_8sides 10_whiteLine3.jpg	MediumLong_b10_cut2_L_stereo_44KHz.wav
1	90	1	2	0	C	1	1	711	1	poli_8sides 5_whiteLine3.jpg	Medium_e21_stereo_44KHz.wav
1	91	2	1	0	C	1	1	1047	1	poli_8sides 7_whiteLine3.jpg	Medium_e13_stereo_44KHz.wav
1	92	3	3	2	I	1	0	831	1	poli_8sides 9_whiteLine3.jpg	MediumLong_b10_cut2_L_stereo_44KHz.wav
1	93	1	1	1	C	1	0	649	0	poli_8sides 5_whiteLine3.jpg	Medium_e13_stereo_44KHz.wav
1	94	2	2	1	C	2	1	837	1	poli_8sides 7_whiteLine3.jpg	Medium_e21_stereo_44KHz.wav
1	95	3	4	2	I	2	0	1380	1	poli_8sides 9_whiteLine3.jpg	MediumLong_e17_cut2_stereo_44KHz.wav
1	96	4	4	2	I	1	0	562	1	poli_8sides 10_whiteLine3.jpg	MediumLong_e17_cut2_stereo_44KHz.wav
1	97	3	3	2	I	2	0	834	1	poli_8sides 9_whiteLine3.jpg	MediumLong_b10_cut2_L_stereo_44KHz.wav
1	98	1	1	1	C	1	0	652	0	poli_8sides 5_whiteLine3.jpg	Medium_e13_stereo_44KHz.wav
1	99	2	2	1	C	2	1	799	1	poli_8sides 7_whiteLine3.jpg	Medium_e21_stereo_44KHz.wav
1	100	4	3	2	I	1	0	1238	1	poli_8sides 10_whiteLine3.jpg	MediumLong_b10_cut2_L_stereo_44KHz.wav
1	101	1	2	0	C	1	1	940	1	poli_8sides 5_whiteLine3.jpg	Medium_e21_stereo_44KHz.wav
1	102	3	4	2	I	2	0	963	1	poli_8sides 9_whiteLine3.jpg	MediumLong_e17_cut2_stereo_44KHz.wav
1	103	4	4	2	I	1	0	1013	1	poli_8sides 10_whiteLine3.jpg	MediumLong_e17_cut2_stereo_44KHz.wav
1	104	2	1	0	C	1	1	777	1	poli_8sides 7_whiteLine3.jpg	Medium_e13_stereo_44KHz.wav
1	105	3	3	2	I	1	0	954	1	poli_8sides 9_whiteLine3.jpg	MediumLong_b10_cut2_L_stereo_44KHz.wav
1	106	1	2	0	C	1	1	981	1	poli_8sides 5_whiteLine3.jpg	Medium_e21_stereo_44KHz.wav
1	107	4	3	2	I	1	0	678	1	poli_8sides 10_whiteLine3.jpg	MediumLong_b10_cut2_L_stereo_44KHz.wav
1	108	2	2	1	C	1	0	906	0	poli_8sides 7_whiteLine3.jpg	Medium_e21_stereo_44KHz.wav
1	109	3	4	2	I	2	0	709	1	poli_8sides 9_whiteLine3.jpg	MediumLong_e17_cut2_stereo_44KHz.wav
1	110	4	4	2	I	1	0	687	0	poli_8sides 10_whiteLine3.jpg	MediumLong_e17_cut2_stereo_44KHz.wav
1	111	2	1	0	C	2	0	965	0	poli_8sides 7_whiteLine3.jpg	Medium_e13_stereo_44KHz.wav
1	112	1	1	1	C	2	1	859	1	poli_8sides 5_whiteLine3.jpg	Medium_e13_stereo_44KHz.wav
1	113	3	3	2	I	1	0	782	1	poli_8sides 9_whiteLine3.jpg	MediumLong_b10_cut2_L_stereo_44KHz.wav
1	114	2	1	0	C	1	1	706	1	poli_8sides 7_whiteLine3.jpg	Medium_e13_stereo_44KHz.wav
1	115	4	4	2	I	1	0	873	1	poli_8sides 10_whiteLine3.jpg	MediumLong_e17_cut2_stereo_44KHz.wav
1	116	1	2	0	C	1	1	1501	1	poli_8sides 5_whiteLine3.jpg	Medium_e21_stereo_44KHz.wav
1	117	3	4	2	I	1	0	1011	0	poli_8sides 9_whiteLine3.jpg	MediumLong_e17_cut2_stereo_44KHz.wav
1	118	1	1	1	C	2	1	991	1	poli_8sides 5_whiteLine3.jpg	Medium_e13_stereo_44KHz.wav
1	119	2	2	1	C	2	1	889	1	poli_8sides 7_whiteLine3.jpg	Medium_e21_stereo_44KHz.wav
1	120	4	3	2	I	1	0	979	1	poli_8sides 10_whiteLine3.jpg	MediumLong_b10_cut2_L_stereo_44KHz.wav
1	121	3	3	2	I	1	0	1077	0	poli_8sides 9_whiteLine3.jpg	MediumLong_b10_cut2_L_stereo_44KHz.wav
1	122	1	1	1	C	2	1	785	1	poli_8sides 5_whiteLine3.jpg	Medium_e13_stereo_44KHz.wav
1	123	2	2	1	C	1	0	971	0	poli_8sides 7_whiteLine3.jpg	Medium_e21_stereo_44KHz.wav
1	124	4	3	2	I	1	0	860	1	poli_8sides 10_whiteLine3.jpg	MediumLong_b10_cut2_L_stereo_44KHz.wav
1	125	2	1	0	C	1	1	770	1	poli_8sides 7_whiteLine3.jpg	Medium_e13_stereo_44KHz.wav
1	126	4	4	2	I	1	0	1046	1	poli_8sides 10_whiteLine3.jpg	MediumLong_e17_cut2_stereo_44KHz.wav
1	127	1	2	0	C	1	1	1299	1	poli_8sides 5_whiteLine3.jpg	Medium_e21_stereo_44KHz.wav
1	128	3	4	2	I	1	0	960	0	poli_8sides 9_whiteLine3.jpg	MediumLong_e17_cut2_stereo_44KHz.wav
1	129	1	2	0	C	1	1	968	1	poli_8sides 5_whiteLine3.jpg	Medium_e21_stereo_44KHz.wav
1	130	2	2	1	C	2	1	1019	1	poli_8sides 7_whiteLine3.jpg	Medium_e21_stereo_44KHz.wav
1	131	3	4	2	I	1	0	1287	1	poli_8sides 9_whiteLine3.jpg	MediumLong_e17_cut2_stereo_44KHz.wav
1	132	4	4	2	I	1	0	1017	0	poli_8sides 10_whiteLine3.jpg	MediumLong_e17_cut2_stereo_44KHz.wav
1	133	2	1	0	C	1	1	1091	1	poli_8sides 7_whiteLine3.jpg	Medium_e13_stereo_44KHz.wav
1	134	4	3	2	I	1	0	946	0	poli_8sides 10_whiteLine3.jpg	MediumLong_b10_cut2_L_stereo_44KHz.wav
1	135	3	3	2	I	1	0	862	0	poli_8sides 9_whiteLine3.jpg	MediumLong_b10_cut2_L_stereo_44KHz.wav
1	136	1	1	1	C	2	1	915	1	poli_8sides 5_whiteLine3.jpg	Medium_e13_stereo_44KHz.wav
1	137	2	2	1	C	2	1	843	1	poli_8sides 7_whiteLine3.jpg	Medium_e21_stereo_44KHz.wav
1	138	1	1	1	C	2	1	736	1	poli_8sides 5_whiteLine3.jpg	Medium_e13_stereo_44KHz.wav
1	139	4	4	2	I	1	0	1036	0	poli_8sides 10_whiteLine3.jpg	MediumLong_e17_cut2_stereo_44KHz.wav
1	140	3	4	2	I	2	0	1024	1	poli_8sides 9_whiteLine3.jpg	MediumLong_e17_cut2_stereo_44KHz.wav
1	141	1	2	0	C	1	1	1123	1	poli_8sides 5_whiteLine3.jpg	Medium_e21_stereo_44KHz.wav
1	142	2	1	0	C	1	1	597	1	poli_8sides 7_whiteLine3.jpg	Medium_e13_stereo_44KHz.wav
1	143	3	3	2	I	1	0	794	1	poli_8sides 9_whiteLine3.jpg	MediumLong_b10_cut2_L_stereo_44KHz.wav
1	144	4	3	2	I	1	0	657	0	poli_8sides 10_whiteLine3.jpg	MediumLong_b10_cut2_L_stereo_44KHz.wav
1	145	2	2	1	C	2	1	818	1	poli_8sides 7_whiteLine3.jpg	Medium_e21_stereo_44KHz.wav
1	146	3	3	2	I	1	0	934	0	poli_8sides 9_whiteLine3.jpg	MediumLong_b10_cut2_L_stereo_44KHz.wav
1	147	1	2	0	C	2	0	817	0	poli_8sides 5_whiteLine3.jpg	Medium_e21_stereo_44KHz.wav
1	148	4	4	2	I	1	0	1186	1	poli_8sides 10_whiteLine3.jpg	MediumLong_e17_cut2_stereo_44KHz.wav
1	149	2	1	0	C	2	0	1131	0	poli_8sides 7_whiteLine3.jpg	Medium_e13_stereo_44KHz.wav
1	150	1	1	1	C	2	1	1432	1	poli_8sides 5_whiteLine3.jpg	Medium_e13_stereo_44KHz.wav
1	151	3	4	2	I	1	0	1572	1	poli_8sides 9_whiteLine3.jpg	MediumLong_e17_cut2_stereo_44KHz.wav
1	152	4	3	2	I	2	0	1286	1	poli_8sides 10_whiteLine3.jpg	MediumLong_b10_cut2_L_stereo_44KHz.wav
1	153	1	1	1	C	1	0	990	0	poli_8sides 5_whiteLine3.jpg	Medium_e13_stereo_44KHz.wav
1	154	3	4	2	I	1	0	1464	0	poli_8sides 9_whiteLine3.jpg	MediumLong_e17_cut2_stereo_44KHz.wav
1	155	2	1	0	C	1	1	998	1	poli_8sides 7_whiteLine3.jpg	Medium_e13_stereo_44KHz.wav
1	156	4	3	2	I	2	0	920	0	poli_8sides 10_whiteLine3.jpg	MediumLong_b10_cut2_L_stereo_44KHz.wav
1	157	2	2	1	C	2	1	804	1	poli_8sides 7_whiteLine3.jpg	Medium_e21_stereo_44KHz.wav
1	158	4	4	2	I	1	0	865	1	poli_8sides 10_whiteLine3.jpg	MediumLong_e17_cut2_stereo_44KHz.wav
1	159	3	3	2	I	2	0	879	0	poli_8sides 9_whiteLine3.jpg	MediumLong_b10_cut2_L_stereo_44KHz.wav
1	160	1	2	0	C	1	1	1247	1	poli_8sides 5_whiteLine3.jpg	Medium_e21_stereo_44KHz.wav
1	161	2	1	0	C	2	0	1347	0	poli_8sides 7_whiteLine3.jpg	Medium_e13_stereo_44KHz.wav
1	162	3	4	2	I	2	0	1239	0	poli_8sides 9_whiteLine3.jpg	MediumLong_e17_cut2_stereo_44KHz.wav
1	163	4	4	2	I	1	0	1511	0	poli_8sides 10_whiteLine3.jpg	MediumLong_e17_cut2_stereo_44KHz.wav
1	164	1	2	0	C	1	1	1186	1	poli_8sides 5_whiteLine3.jpg	Medium_e21_stereo_44KHz.wav
1	165	2	2	1	C	2	1	1135	1	poli_8sides 7_whiteLine3.jpg	Medium_e21_stereo_44KHz.wav
1	166	1	1	1	C	2	1	1145	1	poli_8sides 5_whiteLine3.jpg	Medium_e13_stereo_44KHz.wav
1	167	3	3	2	I	1	0	1180	0	poli_8sides 9_whiteLine3.jpg	MediumLong_b10_cut2_L_stereo_44KHz.wav
1	168	4	3	2	I	1	0	909	1	poli_8sides 10_whiteLine3.jpg	MediumLong_b10_cut2_L_stereo_44KHz.wav
1	169	3	4	2	I	1	0	886	1	poli_8sides 9_whiteLine3.jpg	MediumLong_e17_cut2_stereo_44KHz.wav
1	170	1	2	0	C	1	1	1142	1	poli_8sides 5_whiteLine3.jpg	Medium_e21_stereo_44KHz.wav
1	171	2	2	1	C	2	1	791	1	poli_8sides 7_whiteLine3.jpg	Medium_e21_stereo_44KHz.wav
1	172	4	3	2	I	2	0	1073	0	poli_8sides 10_whiteLine3.jpg	MediumLong_b10_cut2_L_stereo_44KHz.wav
1	173	1	1	1	C	2	1	1116	1	poli_8sides 5_whiteLine3.jpg	Medium_e13_stereo_44KHz.wav
1	174	4	4	2	I	1	0	1278	0	poli_8sides 10_whiteLine3.jpg	MediumLong_e17_cut2_stereo_44KHz.wav
1	175	3	3	2	I	2	0	983	1	poli_8sides 9_whiteLine3.jpg	MediumLong_b10_cut2_L_stereo_44KHz.wav
1	176	2	1	0	C	1	1	949	1	poli_8sides 7_whiteLine3.jpg	Medium_e13_stereo_44KHz.wav
1	177	3	3	2	I	2	0	760	0	poli_8sides 9_whiteLine3.jpg	MediumLong_b10_cut2_L_stereo_44KHz.wav
1	178	2	2	1	C	2	1	832	1	poli_8sides 7_whiteLine3.jpg	Medium_e21_stereo_44KHz.wav
1	179	1	1	1	C	2	1	832	1	poli_8sides 5_whiteLine3.jpg	Medium_e13_stereo_44KHz.wav
1	180	4	3	2	I	2	0	1116	0	poli_8sides 10_whiteLine3.jpg	MediumLong_b10_cut2_L_stereo_44KHz.wav
1	181	2	1	0	C	1	1	1144	1	poli_8sides 7_whiteLine3.jpg	Medium_e13_stereo_44KHz.wav
1	182	4	4	2	I	1	0	1016	0	poli_8sides 10_whiteLine3.jpg	MediumLong_e17_cut2_stereo_44KHz.wav
1	183	1	2	0	C	1	1	1384	1	poli_8sides 5_whiteLine3.jpg	Medium_e21_stereo_44KHz.wav
1	184	3	4	2	I	2	0	1181	0	poli_8sides 9_whiteLine3.jpg	MediumLong_e17_cut2_stereo_44KHz.wav
1	185	4	4	2	I	1	0	694	0	poli_8sides 10_whiteLine3.jpg	MediumLong_e17_cut2_stereo_44KHz.wav
1	186	3	3	2	I	2	0	751	0	poli_8sides 9_whiteLine3.jpg	MediumLong_b10_cut2_L_stereo_44KHz.wav
1	187	2	1	0	C	2	0	1515	0	poli_8sides 7_whiteLine3.jpg	Medium_e13_stereo_44KHz.wav
1	188	1	2	0	C	1	1	1398	1	poli_8sides 5_whiteLine3.jpg	Medium_e21_stereo_44KHz.wav
1	189	4	3	2	I	1	0	869	0	poli_8sides 10_whiteLine3.jpg	MediumLong_b10_cut2_L_stereo_44KHz.wav
1	190	3	4	2	I	2	0	1172	1	poli_8sides 9_whiteLine3.jpg	MediumLong_e17_cut2_stereo_44KHz.wav
1	191	2	2	1	C	2	1	855	1	poli_8sides 7_whiteLine3.jpg	Medium_e21_stereo_44KHz.wav
1	192	1	1	1	C	2	1	1017	1	poli_8sides 5_whiteLine3.jpg	Medium_e13_stereo_44KHz.wav
1	193	3	3	2	I	1	0	1025	0	poli_8sides 9_whiteLine3.jpg	MediumLong_b10_cut2_L_stereo_44KHz.wav
1	194	1	1	1	C	2	1	1216	1	poli_8sides 5_whiteLine3.jpg	Medium_e13_stereo_44KHz.wav
1	195	4	4	2	I	1	0	965	0	poli_8sides 10_whiteLine3.jpg	MediumLong_e17_cut2_stereo_44KHz.wav
1	196	2	2	1	C	2	1	840	1	poli_8sides 7_whiteLine3.jpg	Medium_e21_stereo_44KHz.wav
1	197	4	3	2	I	1	0	1329	0	poli_8sides 10_whiteLine3.jpg	MediumLong_b10_cut2_L_stereo_44KHz.wav
1	198	2	1	0	C	2	0	1013	0	poli_8sides 7_whiteLine3.jpg	Medium_e13_stereo_44KHz.wav
1	199	1	2	0	C	1	1	978	1	poli_8sides 5_whiteLine3.jpg	Medium_e21_stereo_44KHz.wav
1	200	3	4	2	I	2	0	959	1	poli_8sides 9_whiteLine3.jpg	MediumLong_e17_cut2_stereo_44KHz.wav
2	1	3	4	2	I	1	0	1538	1	poli_8sides 4_whiteLine3.jpg	MediumShort_b16_cut3_MS_stereo_44KHz.wav
2	2	2	1	0	C	1	1	1091	1	poli_8sides 16_whiteLine3.jpg	MediumShort_e16_cut1_stereo_44KHz.wav
2	3	1	1	1	C	2	1	740	1	poli_8sides 12_whiteLine3.jpg	MediumShort_e16_cut1_stereo_44KHz.wav
2	4	4	3	2	I	1	0	1055	0	poli_8sides 13_whiteLine3.jpg	MediumShort_b10_cut1_MS_stereo_44KHz.wav
2	5	2	2	1	C	2	1	880	1	poli_8sides 16_whiteLine3.jpg	MediumShort_e22_cut1_stereo_44KHz.wav
2	6	1	2	0	C	1	1	1237	1	poli_8sides 12_whiteLine3.jpg	MediumShort_e22_cut1_stereo_44KHz.wav
2	7	3	3	2	I	1	0	1113	1	poli_8sides 4_whiteLine3.jpg	MediumShort_b10_cut1_MS_stereo_44KHz.wav
2	8	4	4	2	I	2	0	1077	1	poli_8sides 13_whiteLine3.jpg	MediumShort_b16_cut3_MS_stereo_44KHz.wav
2	9	1	2	0	C	1	1	893	1	poli_8sides 12_whiteLine3.jpg	MediumShort_e22_cut1_stereo_44KHz.wav
2	10	3	3	2	I	1	0	830	1	poli_8sides 4_whiteLine3.jpg	MediumShort_b10_cut1_MS_stereo_44KHz.wav
2	11	2	1	0	C	1	1	1178	1	poli_8sides 16_whiteLine3.jpg	MediumShort_e16_cut1_stereo_44KHz.wav
2	12	4	4	2	I	1	0	857	0	poli_8sides 13_whiteLine3.jpg	MediumShort_b16_cut3_MS_stereo_44KHz.wav
2	13	1	1	1	C	1	0	729	0	poli_8sides 12_whiteLine3.jpg	MediumShort_e16_cut1_stereo_44KHz.wav
2	14	3	4	2	I	1	0	735	1	poli_8sides 4_whiteLine3.jpg	MediumShort_b16_cut3_MS_stereo_44KHz.wav
2	15	4	3	2	I	1	0	813	0	poli_8sides 13_whiteLine3.jpg	MediumShort_b10_cut1_MS_stereo_44KHz.wav
2	16	2	2	1	C	1	0	782	0	poli_8sides 16_whiteLine3.jpg	MediumShort_e22_cut1_stereo_44KHz.wav
2	17	1	1	1	C	1	0	1072	0	poli_8sides 12_whiteLine3.jpg	MediumShort_e16_cut1_stereo_44KHz.wav
2	18	2	2	1	C	2	1	1171	1	poli_8sides 16_whiteLine3.jpg	MediumShort_e22_cut1_stereo_44KHz.wav
2	19	3	4	2	I	1	0	781	0	poli_8sides 4_whiteLine3.jpg	MediumShort_b16_cut3_MS_stereo_44KHz.wav
2	20	4	3	2	I	1	0	953	0	poli_8sides 13_whiteLine3.jpg	MediumShort_b10_cut1_MS_stereo_44KHz.wav
2	21	2	1	0	C	1	1	879	1	poli_8sides 16_whiteLine3.jpg	MediumShort_e16_cut1_stereo_44KHz.wav
2	22	3	3	2	I	1	0	795	1	poli_8sides 4_whiteLine3.jpg	MediumShort_b10_cut1_MS_stereo_44KHz.wav
2	23	4	4	2	I	2	0	1498	1	poli_8sides 13_whiteLine3.jpg	MediumShort_b16_cut3_MS_stereo_44KHz.wav
2	24	1	2	0	C	1	1	891	1	poli_8sides 12_whiteLine3.jpg	MediumShort_e22_cut1_stereo_44KHz.wav
2	25	4	4	2	I	1	0	834	1	poli_8sides 13_whiteLine3.jpg	MediumShort_b16_cut3_MS_stereo_44KHz.wav
2	26	1	1	1	C	2	1	990	1	poli_8sides 12_whiteLine3.jpg	MediumShort_e16_cut1_stereo_44KHz.wav
2	27	2	1	0	C	1	1	651	1	poli_8sides 16_whiteLine3.jpg	MediumShort_e16_cut1_stereo_44KHz.wav
2	28	3	3	2	I	1	0	757	1	poli_8sides 4_whiteLine3.jpg	MediumShort_b10_cut1_MS_stereo_44KHz.wav
2	29	2	2	1	C	2	1	1023	1	poli_8sides 16_whiteLine3.jpg	MediumShort_e22_cut1_stereo_44KHz.wav
2	30	3	4	2	I	1	0	822	1	poli_8sides 4_whiteLine3.jpg	MediumShort_b16_cut3_MS_stereo_44KHz.wav
2	31	1	2	0	C	2	0	783	0	poli_8sides 12_whiteLine3.jpg	MediumShort_e22_cut1_stereo_44KHz.wav
2	32	4	3	2	I	1	0	753	1	poli_8sides 13_whiteLine3.jpg	MediumShort_b10_cut1_MS_stereo_44KHz.wav
2	33	3	3	2	I	1	0	679	0	poli_8sides 4_whiteLine3.jpg	MediumShort_b10_cut1_MS_stereo_44KHz.wav
2	34	2	2	1	C	2	1	877	1	poli_8sides 16_whiteLine3.jpg	MediumShort_e22_cut1_stereo_44KHz.wav
2	35	4	3	2	I	1	0	723	0	poli_8sides 13_whiteLine3.jpg	MediumShort_b10_cut1_MS_stereo_44KHz.wav
2	36	1	2	0	C	1	1	1163	1	poli_8sides 12_whiteLine3.jpg	MediumShort_e22_cut1_stereo_44KHz.wav
2	37	4	4	2	I	1	0	776	1	poli_8sides 13_whiteLine3.jpg	MediumShort_b16_cut3_MS_stereo_44KHz.wav
2	38	1	1	1	C	2	1	740	1	poli_8sides 12_whiteLine3.jpg	MediumShort_e16_cut1_stereo_44KHz.wav
2	39	3	4	2	I	1	0	731	0	poli_8sides 4_whiteLine3.jpg	MediumShort_b16_cut3_MS_stereo_44KHz.wav
2	40	2	1	0	C	1	1	785	1	poli_8sides 16_whiteLine3.jpg	MediumShort_e16_cut1_stereo_44KHz.wav
2	41	3	3	2	I	1	0	662	0	poli_8sides 4_whiteLine3.jpg	MediumShort_b10_cut1_MS_stereo_44KHz.wav
2	42	4	3	2	I	1	0	669	0	poli_8sides 13_whiteLine3.jpg	MediumShort_b10_cut1_MS_stereo_44KHz.wav
2	43	2	2	1	C	2	1	1252	1	poli_8sides 16_whiteLine3.jpg	MediumShort_e22_cut1_stereo_44KHz.wav
2	44	1	1	1	C	2	1	696	1	poli_8sides 12_whiteLine3.jpg	MediumShort_e16_cut1_stereo_44KHz.wav
2	45	3	4	2	I	1	0	793	0	poli_8sides 4_whiteLine3.jpg	MediumShort_b16_cut3_MS_stereo_44KHz.wav
2	46	1	2	0	C	1	1	707	1	poli_8sides 12_whiteLine3.jpg	MediumShort_e22_cut1_stereo_44KHz.wav
2	47	2	1	0	C	1	1	759	1	poli_8sides 16_whiteLine3.jpg	MediumShort_e16_cut1_stereo_44KHz.wav
2	48	4	4	2	I	2	0	842	1	poli_8sides 13_whiteLine3.jpg	MediumShort_b16_cut3_MS_stereo_44KHz.wav
2	49	2	2	1	C	2	1	902	1	poli_8sides 16_whiteLine3.jpg	MediumShort_e22_cut1_stereo_44KHz.wav
2	50	3	4	2	I	1	0	769	1	poli_8sides 4_whiteLine3.jpg	MediumShort_b16_cut3_MS_stereo_44KHz.wav
2	51	4	3	2	I	1	0	628	1	poli_8sides 13_whiteLine3.jpg	MediumShort_b10_cut1_MS_stereo_44KHz.wav
2	52	1	1	1	C	2	1	751	1	poli_8sides 12_whiteLine3.jpg	MediumShort_e16_cut1_stereo_44KHz.wav
2	53	4	4	2	I	2	0	1080	0	poli_8sides 13_whiteLine3.jpg	MediumShort_b16_cut3_MS_stereo_44KHz.wav
2	54	2	1	0	C	1	1	948	1	poli_8sides 16_whiteLine3.jpg	MediumShort_e16_cut1_stereo_44KHz.wav
2	55	1	2	0	C	1	1	844	1	poli_8sides 12_whiteLine3.jpg	MediumShort_e22_cut1_stereo_44KHz.wav
2	56	3	3	2	I	1	0	744	0	poli_8sides 4_whiteLine3.jpg	MediumShort_b10_cut1_MS_stereo_44KHz.wav
2	57	2	1	0	C	1	1	725	1	poli_8sides 16_whiteLine3.jpg	MediumShort_e16_cut1_stereo_44KHz.wav
2	58	4	3	2	I	1	0	754	1	poli_8sides 13_whiteLine3.jpg	MediumShort_b10_cut1_MS_stereo_44KHz.wav
2	59	3	4	2	I	1	0	678	0	poli_8sides 4_whiteLine3.jpg	MediumShort_b16_cut3_MS_stereo_44KHz.wav
2	60	1	2	0	C	1	1	723	1	poli_8sides 12_whiteLine3.jpg	MediumShort_e22_cut1_stereo_44KHz.wav
2	61	3	3	2	I	1	0	717	1	poli_8sides 4_whiteLine3.jpg	MediumShort_b10_cut1_MS_stereo_44KHz.wav
2	62	1	1	1	C	1	0	724	0	poli_8sides 12_whiteLine3.jpg	MediumShort_e16_cut1_stereo_44KHz.wav
2	63	4	4	2	I	1	0	1076	1	poli_8sides 13_whiteLine3.jpg	MediumShort_b16_cut3_MS_stereo_44KHz.wav
2	64	2	2	1	C	2	1	1084	1	poli_8sides 16_whiteLine3.jpg	MediumShort_e22_cut1_stereo_44KHz.wav
2	65	1	1	1	C	2	1	712	1	poli_8sides 12_whiteLine3.jpg	MediumShort_e16_cut1_stereo_44KHz.wav
2	66	2	2	1	C	2	1	739	1	poli_8sides 16_whiteLine3.jpg	MediumShort_e22_cut1_stereo_44KHz.wav
2	67	3	4	2	I	1	0	1088	1	poli_8sides 4_whiteLine3.jpg	MediumShort_b16_cut3_MS_stereo_44KHz.wav
2	68	4	4	2	I	2	0	778	1	poli_8sides 13_whiteLine3.jpg	MediumShort_b16_cut3_MS_stereo_44KHz.wav
2	69	1	2	0	C	1	1	768	1	poli_8sides 12_whiteLine3.jpg	MediumShort_e22_cut1_stereo_44KHz.wav
2	70	3	3	2	I	1	0	824	1	poli_8sides 4_whiteLine3.jpg	MediumShort_b10_cut1_MS_stereo_44KHz.wav
2	71	2	1	0	C	1	1	1159	1	poli_8sides 16_whiteLine3.jpg	MediumShort_e16_cut1_stereo_44KHz.wav
2	72	4	3	2	I	1	0	705	0	poli_8sides 13_whiteLine3.jpg	MediumShort_b10_cut1_MS_stereo_44KHz.wav
2	73	3	3	2	I	1	0	674	1	poli_8sides 4_whiteLine3.jpg	MediumShort_b10_cut1_MS_stereo_44KHz.wav
2	74	2	2	1	C	2	1	873	1	poli_8sides 16_whiteLine3.jpg	MediumShort_e22_cut1_stereo_44KHz.wav
2	75	1	1	1	C	2	1	724	1	poli_8sides 12_whiteLine3.jpg	MediumShort_e16_cut1_stereo_44KHz.wav
2	76	4	3	2	I	1	0	798	1	poli_8sides 13_whiteLine3.jpg	MediumShort_b10_cut1_MS_stereo_44KHz.wav
2	77	3	4	2	I	1	0	668	0	poli_8sides 4_whiteLine3.jpg	MediumShort_b16_cut3_MS_stereo_44KHz.wav
2	78	2	1	0	C	2	0	940	0	poli_8sides 16_whiteLine3.jpg	MediumShort_e16_cut1_stereo_44KHz.wav
2	79	1	2	0	C	1	1	683	1	poli_8sides 12_whiteLine3.jpg	MediumShort_e22_cut1_stereo_44KHz.wav
2	80	4	4	2	I	1	0	1110	1	poli_8sides 13_whiteLine3.jpg	MediumShort_b16_cut3_MS_stereo_44KHz.wav
2	81	1	2	0	C	2	0	533	0	poli_8sides 12_whiteLine3.jpg	MediumShort_e22_cut1_stereo_44KHz.wav
2	82	3	3	2	I	1	0	690	0	poli_8sides 4_whiteLine3.jpg	MediumShort_b10_cut1_MS_stereo_44KHz.wav
2	83	4	4	2	I	1	0	799	1	poli_8sides 13_whiteLine3.jpg	MediumShort_b16_cut3_MS_stereo_44KHz.wav
2	84	2	2	1	C	2	1	1083	1	poli_8sides 16_whiteLine3.jpg	MediumShort_e22_cut1_stereo_44KHz.wav
2	85	3	4	2	I	1	0	797	1	poli_8sides 4_whiteLine3.jpg	MediumShort_b16_cut3_MS_stereo_44KHz.wav
2	86	1	1	1	C	2	1	774	1	poli_8sides 12_whiteLine3.jpg	MediumShort_e16_cut1_stereo_44KHz.wav
2	87	4	3	2	I	1	0	758	1	poli_8sides 13_whiteLine3.jpg	MediumShort_b10_cut1_MS_stereo_44KHz.wav
2	88	2	1	0	C	1	1	637	1	poli_8sides 16_whiteLine3.jpg	MediumShort_e16_cut1_stereo_44KHz.wav
2	89	1	1	1	C	2	1	587	1	poli_8sides 12_whiteLine3.jpg	MediumShort_e16_cut1_stereo_44KHz.wav
2	90	2	1	0	C	1	1	745	1	poli_8sides 16_whiteLine3.jpg	MediumShort_e16_cut1_stereo_44KHz.wav
2	91	3	4	2	I	1	0	1029	0	poli_8sides 4_whiteLine3.jpg	MediumShort_b16_cut3_MS_stereo_44KHz.wav
2	92	4	4	2	I	2	0	593	1	poli_8sides 13_whiteLine3.jpg	MediumShort_b16_cut3_MS_stereo_44KHz.wav
2	93	2	2	1	C	2	1	962	1	poli_8sides 16_whiteLine3.jpg	MediumShort_e22_cut1_stereo_44KHz.wav
2	94	3	3	2	I	1	0	847	1	poli_8sides 4_whiteLine3.jpg	MediumShort_b10_cut1_MS_stereo_44KHz.wav
2	95	1	2	0	C	1	1	869	1	poli_8sides 12_whiteLine3.jpg	MediumShort_e22_cut1_stereo_44KHz.wav
2	96	4	3	2	I	1	0	898	0	poli_8sides 13_whiteLine3.jpg	MediumShort_b10_cut1_MS_stereo_44KHz.wav
2	97	2	2	1	C	1	0	938	0	poli_8sides 16_whiteLine3.jpg	MediumShort_e22_cut1_stereo_44KHz.wav
2	98	3	4	2	I	1	0	809	0	poli_8sides 4_whiteLine3.jpg	MediumShort_b16_cut3_MS_stereo_44KHz.wav
2	99	4	3	2	I	1	0	730	0	poli_8sides 13_whiteLine3.jpg	MediumShort_b10_cut1_MS_stereo_44KHz.wav
2	100	1	2	0	C	1	1	690	1	poli_8sides 12_whiteLine3.jpg	MediumShort_e22_cut1_stereo_44KHz.wav
2	101	2	1	0	C	1	1	833	1	poli_8sides 16_whiteLine3.jpg	MediumShort_e16_cut1_stereo_44KHz.wav
2	102	3	3	2	I	1	0	839	1	poli_8sides 4_whiteLine3.jpg	MediumShort_b10_cut1_MS_stereo_44KHz.wav
2	103	1	1	1	C	2	1	768	1	poli_8sides 12_whiteLine3.jpg	MediumShort_e16_cut1_stereo_44KHz.wav
2	104	4	4	2	I	1	0	995	0	poli_8sides 13_whiteLine3.jpg	MediumShort_b16_cut3_MS_stereo_44KHz.wav
2	105	1	1	1	C	2	1	707	1	poli_8sides 12_whiteLine3.jpg	MediumShort_e16_cut1_stereo_44KHz.wav
2	106	4	4	2	I	1	0	921	0	poli_8sides 13_whiteLine3.jpg	MediumShort_b16_cut3_MS_stereo_44KHz.wav
2	107	3	4	2	I	1	0	689	1	poli_8sides 4_whiteLine3.jpg	MediumShort_b16_cut3_MS_stereo_44KHz.wav
2	108	2	1	0	C	1	1	649	1	poli_8sides 16_whiteLine3.jpg	MediumShort_e16_cut1_stereo_44KHz.wav
2	109	1	2	0	C	1	1	831	1	poli_8sides 12_whiteLine3.jpg	MediumShort_e22_cut1_stereo_44KHz.wav
2	110	4	3	2	I	1	0	688	0	poli_8sides 13_whiteLine3.jpg	MediumShort_b10_cut1_MS_stereo_44KHz.wav
2	111	2	2	1	C	1	0	603	0	poli_8sides 16_whiteLine3.jpg	MediumShort_e22_cut1_stereo_44KHz.wav
2	112	3	3	2	I	1	0	633	0	poli_8sides 4_whiteLine3.jpg	MediumShort_b10_cut1_MS_stereo_44KHz.wav
2	113	1	2	0	C	1	1	745	1	poli_8sides 12_whiteLine3.jpg	MediumShort_e22_cut1_stereo_44KHz.wav
2	114	3	3	2	I	1	0	634	1	poli_8sides 4_whiteLine3.jpg	MediumShort_b10_cut1_MS_stereo_44KHz.wav
2	115	2	1	0	C	1	1	695	1	poli_8sides 16_whiteLine3.jpg	MediumShort_e16_cut1_stereo_44KHz.wav
2	116	4	4	2	I	1	0	814	0	poli_8sides 13_whiteLine3.jpg	MediumShort_b16_cut3_MS_stereo_44KHz.wav
2	117	3	4	2	I	1	0	720	1	poli_8sides 4_whiteLine3.jpg	MediumShort_b16_cut3_MS_stereo_44KHz.wav
2	118	2	2	1	C	1	0	699	0	poli_8sides 16_whiteLine3.jpg	MediumShort_e22_cut1_stereo_44KHz.wav
2	119	4	3	2	I	1	0	1022	0	poli_8sides 13_whiteLine3.jpg	MediumShort_b10_cut1_MS_stereo_44KHz.wav
2	120	1	1	1	C	2	1	763	1	poli_8sides 12_whiteLine3.jpg	MediumShort_e16_cut1_stereo_44KHz.wav
2	121	4	3	2	I	1	0	863	1	poli_8sides 13_whiteLine3.jpg	MediumShort_b10_cut1_MS_stereo_44KHz.wav
2	122	2	1	0	C	1	1	1093	1	poli_8sides 16_whiteLine3.jpg	MediumShort_e16_cut1_stereo_44KHz.wav
2	123	3	3	2	I	1	0	784	0	poli_8sides 4_whiteLine3.jpg	MediumShort_b10_cut1_MS_stereo_44KHz.wav
2	124	1	2	0	C	1	1	745	1	poli_8sides 12_whiteLine3.jpg	MediumShort_e22_cut1_stereo_44KHz.wav
2	125	3	4	2	I	1	0	819	0	poli_8sides 4_whiteLine3.jpg	MediumShort_b16_cut3_MS_stereo_44KHz.wav
2	126	4	4	2	I	1	0	715	1	poli_8sides 13_whiteLine3.jpg	MediumShort_b16_cut3_MS_stereo_44KHz.wav
2	127	1	1	1	C	2	1	737	1	poli_8sides 12_whiteLine3.jpg	MediumShort_e16_cut1_stereo_44KHz.wav
2	128	2	2	1	C	1	0	757	0	poli_8sides 16_whiteLine3.jpg	MediumShort_e22_cut1_stereo_44KHz.wav
2	129	4	3	2	I	1	0	743	1	poli_8sides 13_whiteLine3.jpg	MediumShort_b10_cut1_MS_stereo_44KHz.wav
2	130	2	1	0	C	1	1	1386	1	poli_8sides 16_whiteLine3.jpg	MediumShort_e16_cut1_stereo_44KHz.wav
2	131	1	1	1	C	2	1	562	1	poli_8sides 12_whiteLine3.jpg	MediumShort_e16_cut1_stereo_44KHz.wav
2	132	3	4	2	I	2	0	729	1	poli_8sides 4_whiteLine3.jpg	MediumShort_b16_cut3_MS_stereo_44KHz.wav
2	133	1	2	0	C	1	1	601	1	poli_8sides 12_whiteLine3.jpg	MediumShort_e22_cut1_stereo_44KHz.wav
2	134	4	4	2	I	2	0	943	1	poli_8sides 13_whiteLine3.jpg	MediumShort_b16_cut3_MS_stereo_44KHz.wav
2	135	3	3	2	I	1	0	595	0	poli_8sides 4_whiteLine3.jpg	MediumShort_b10_cut1_MS_stereo_44KHz.wav
2	136	2	2	1	C	2	1	899	1	poli_8sides 16_whiteLine3.jpg	MediumShort_e22_cut1_stereo_44KHz.wav
2	137	1	1	1	C	2	1	1035	1	poli_8sides 12_whiteLine3.jpg	MediumShort_e16_cut1_stereo_44KHz.wav
2	138	3	3	2	I	1	0	691	1	poli_8sides 4_whiteLine3.jpg	MediumShort_b10_cut1_MS_stereo_44KHz.wav
2	139	2	2	1	C	2	1	899	1	poli_8sides 16_whiteLine3.jpg	MediumShort_e22_cut1_stereo_44KHz.wav
2	140	4	3	2	I	1	0	1003	1	poli_8sides 13_whiteLine3.jpg	MediumShort_b10_cut1_MS_stereo_44KHz.wav
2	141	1	2	0	C	1	1	974	1	poli_8sides 12_whiteLine3.jpg	MediumShort_e22_cut1_stereo_44KHz.wav
2	142	4	4	2	I	2	0	959	0	poli_8sides 13_whiteLine3.jpg	MediumShort_b16_cut3_MS_stereo_44KHz.wav
2	143	2	1	0	C	1	1	728	1	poli_8sides 16_whiteLine3.jpg	MediumShort_e16_cut1_stereo_44KHz.wav
2	144	3	4	2	I	2	0	979	0	poli_8sides 4_whiteLine3.jpg	MediumShort_b16_cut3_MS_stereo_44KHz.wav
2	145	2	2	1	C	1	0	630	0	poli_8sides 16_whiteLine3.jpg	MediumShort_e22_cut1_stereo_44KHz.wav
2	146	3	4	2	I	1	0	867	0	poli_8sides 4_whiteLine3.jpg	MediumShort_b16_cut3_MS_stereo_44KHz.wav
2	147	1	2	0	C	1	1	1099	1	poli_8sides 12_whiteLine3.jpg	MediumShort_e22_cut1_stereo_44KHz.wav
2	148	4	3	2	I	2	0	570	0	poli_8sides 13_whiteLine3.jpg	MediumShort_b10_cut1_MS_stereo_44KHz.wav
2	149	3	3	2	I	1	0	548	1	poli_8sides 4_whiteLine3.jpg	MediumShort_b10_cut1_MS_stereo_44KHz.wav
2	150	1	1	1	C	2	1	692	1	poli_8sides 12_whiteLine3.jpg	MediumShort_e16_cut1_stereo_44KHz.wav
2	151	2	1	0	C	1	1	824	1	poli_8sides 16_whiteLine3.jpg	MediumShort_e16_cut1_stereo_44KHz.wav
2	152	4	4	2	I	2	0	609	0	poli_8sides 13_whiteLine3.jpg	MediumShort_b16_cut3_MS_stereo_44KHz.wav
2	153	3	3	2	I	1	0	472	1	poli_8sides 4_whiteLine3.jpg	MediumShort_b10_cut1_MS_stereo_44KHz.wav
2	154	4	3	2	I	1	0	428	1	poli_8sides 13_whiteLine3.jpg	MediumShort_b10_cut1_MS_stereo_44KHz.wav
2	155	1	2	0	C	1	1	926	1	poli_8sides 12_whiteLine3.jpg	MediumShort_e22_cut1_stereo_44KHz.wav
2	156	2	2	1	C	2	1	689	1	poli_8sides 16_whiteLine3.jpg	MediumShort_e22_cut1_stereo_44KHz.wav
2	157	4	4	2	I	2	0	793	0	poli_8sides 13_whiteLine3.jpg	MediumShort_b16_cut3_MS_stereo_44KHz.wav
2	158	1	1	1	C	2	1	854	1	poli_8sides 12_whiteLine3.jpg	MediumShort_e16_cut1_stereo_44KHz.wav
2	159	3	4	2	I	1	0	1203	1	poli_8sides 4_whiteLine3.jpg	MediumShort_b16_cut3_MS_stereo_44KHz.wav
2	160	2	1	0	C	1	1	1102	1	poli_8sides 16_whiteLine3.jpg	MediumShort_e16_cut1_stereo_44KHz.wav
2	161	3	4	2	I	2	0	707	0	poli_8sides 4_whiteLine3.jpg	MediumShort_b16_cut3_MS_stereo_44KHz.wav
2	162	2	2	1	C	2	1	933	1	poli_8sides 16_whiteLine3.jpg	MediumShort_e22_cut1_stereo_44KHz.wav
2	163	1	2	0	C	1	1	741	1	poli_8sides 12_whiteLine3.jpg	MediumShort_e22_cut1_stereo_44KHz.wav
2	164	4	4	2	I	2	0	732	1	poli_8sides 13_whiteLine3.jpg	MediumShort_b16_cut3_MS_stereo_44KHz.wav
2	165	3	3	2	I	1	0	705	1	poli_8sides 4_whiteLine3.jpg	MediumShort_b10_cut1_MS_stereo_44KHz.wav
2	166	1	1	1	C	2	1	679	1	poli_8sides 12_whiteLine3.jpg	MediumShort_e16_cut1_stereo_44KHz.wav
2	167	4	3	2	I	1	0	744	1	poli_8sides 13_whiteLine3.jpg	MediumShort_b10_cut1_MS_stereo_44KHz.wav
2	168	2	1	0	C	1	1	837	1	poli_8sides 16_whiteLine3.jpg	MediumShort_e16_cut1_stereo_44KHz.wav
2	169	3	3	2	I	2	0	794	0	poli_8sides 4_whiteLine3.jpg	MediumShort_b10_cut1_MS_stereo_44KHz.wav
2	170	4	3	2	I	1	0	821	0	poli_8sides 13_whiteLine3.jpg	MediumShort_b10_cut1_MS_stereo_44KHz.wav
2	171	1	1	1	C	2	1	1375	1	poli_8sides 12_whiteLine3.jpg	MediumShort_e16_cut1_stereo_44KHz.wav
2	172	2	2	1	C	2	1	882	1	poli_8sides 16_whiteLine3.jpg	MediumShort_e22_cut1_stereo_44KHz.wav
2	173	3	4	2	I	1	0	786	1	poli_8sides 4_whiteLine3.jpg	MediumShort_b16_cut3_MS_stereo_44KHz.wav
2	174	4	4	2	I	2	0	554	0	poli_8sides 13_whiteLine3.jpg	MediumShort_b16_cut3_MS_stereo_44KHz.wav
2	175	1	2	0	C	1	1	1000	1	poli_8sides 12_whiteLine3.jpg	MediumShort_e22_cut1_stereo_44KHz.wav
2	176	2	1	0	C	1	1	769	1	poli_8sides 16_whiteLine3.jpg	MediumShort_e16_cut1_stereo_44KHz.wav
2	177	1	2	0	C	1	1	927	1	poli_8sides 12_whiteLine3.jpg	MediumShort_e22_cut1_stereo_44KHz.wav
2	178	3	3	2	I	1	0	1090	0	poli_8sides 4_whiteLine3.jpg	MediumShort_b10_cut1_MS_stereo_44KHz.wav
2	179	2	1	0	C	1	1	740	1	poli_8sides 16_whiteLine3.jpg	MediumShort_e16_cut1_stereo_44KHz.wav
2	180	4	4	2	I	2	0	689	1	poli_8sides 13_whiteLine3.jpg	MediumShort_b16_cut3_MS_stereo_44KHz.wav
2	181	3	4	2	I	1	0	727	0	poli_8sides 4_whiteLine3.jpg	MediumShort_b16_cut3_MS_stereo_44KHz.wav
2	182	1	1	1	C	2	1	1021	1	poli_8sides 12_whiteLine3.jpg	MediumShort_e16_cut1_stereo_44KHz.wav
2	183	2	2	1	C	2	1	886	1	poli_8sides 16_whiteLine3.jpg	MediumShort_e22_cut1_stereo_44KHz.wav
2	184	4	3	2	I	1	0	771	0	poli_8sides 13_whiteLine3.jpg	MediumShort_b10_cut1_MS_stereo_44KHz.wav
2	185	3	4	2	I	2	0	1054	0	poli_8sides 4_whiteLine3.jpg	MediumShort_b16_cut3_MS_stereo_44KHz.wav
2	186	1	2	0	C	1	1	1286	1	poli_8sides 12_whiteLine3.jpg	MediumShort_e22_cut1_stereo_44KHz.wav
2	187	4	4	2	I	1	0	820	1	poli_8sides 13_whiteLine3.jpg	MediumShort_b16_cut3_MS_stereo_44KHz.wav
2	188	2	1	0	C	1	1	938	1	poli_8sides 16_whiteLine3.jpg	MediumShort_e16_cut1_stereo_44KHz.wav
2	189	1	1	1	C	2	1	878	1	poli_8sides 12_whiteLine3.jpg	MediumShort_e16_cut1_stereo_44KHz.wav
2	190	4	3	2	I	2	0	656	0	poli_8sides 13_whiteLine3.jpg	MediumShort_b10_cut1_MS_stereo_44KHz.wav
2	191	3	3	2	I	1	0	743	0	poli_8sides 4_whiteLine3.jpg	MediumShort_b10_cut1_MS_stereo_44KHz.wav
2	192	2	2	1	C	2	1	955	1	poli_8sides 16_whiteLine3.jpg	MediumShort_e22_cut1_stereo_44KHz.wav
2	193	4	4	2	I	2	0	895	0	poli_8sides 13_whiteLine3.jpg	MediumShort_b16_cut3_MS_stereo_44KHz.wav
2	194	1	2	0	C	1	1	698	1	poli_8sides 12_whiteLine3.jpg	MediumShort_e22_cut1_stereo_44KHz.wav
2	195	3	4	2	I	2	0	785	0	poli_8sides 4_whiteLine3.jpg	MediumShort_b16_cut3_MS_stereo_44KHz.wav
2	196	2	2	1	C	2	1	789	1	poli_8sides 16_whiteLine3.jpg	MediumShort_e22_cut1_stereo_44KHz.wav
2	197	1	1	1	C	2	1	1268	1	poli_8sides 12_whiteLine3.jpg	MediumShort_e16_cut1_stereo_44KHz.wav
2	198	2	1	0	C	1	1	675	1	poli_8sides 16_whiteLine3.jpg	MediumShort_e16_cut1_stereo_44KHz.wav
2	199	3	3	2	I	1	0	783	0	poli_8sides 4_whiteLine3.jpg	MediumShort_b10_cut1_MS_stereo_44KHz.wav
2	200	4	3	2	I	2	0	711	0	poli_8sides 13_whiteLine3.jpg	MediumShort_b10_cut1_MS_stereo_44KHz.wav
3	1	4	4	2	I	1	0	1018	1	poli_8sides 8_whiteLine3.jpg	Short_b22_cut1_stereo_44KHz.wav
3	2	2	2	1	C	2	1	675	1	poli_8sides 1_whiteLine3.jpg	Short_b23_cut1_stereo_44KHz.wav
3	3	3	4	2	I	2	0	1114	1	poli_8sides 15_whiteLine3.jpg	Short_b22_cut1_stereo_44KHz.wav
3	4	1	2	0	C	2	0	1023	0	poli_8sides 6_whiteLine3.jpg	Short_b23_cut1_stereo_44KHz.wav
3	5	4	3	2	I	2	0	1237	1	poli_8sides 8_whiteLine3.jpg	Short_b20_cut1_stereo_44KHz.wav
3	6	1	1	1	C	1	0	988	0	poli_8sides 6_whiteLine3.jpg	Short_b09_cut1_stereo_44KHz.wav
3	7	2	1	0	C	2	0	1266	0	poli_8sides 1_whiteLine3.jpg	Short_b09_cut1_stereo_44KHz.wav
3	8	3	3	2	I	1	0	918	1	poli_8sides 15_whiteLine3.jpg	Short_b20_cut1_stereo_44KHz.wav
3	9	2	1	0	C	1	1	1545	1	poli_8sides 1_whiteLine3.jpg	Short_b09_cut1_stereo_44KHz.wav
3	10	1	2	0	C	1	1	1067	1	poli_8sides 6_whiteLine3.jpg	Short_b23_cut1_stereo_44KHz.wav
3	11	4	3	2	I	2	0	1163	1	poli_8sides 8_whiteLine3.jpg	Short_b20_cut1_stereo_44KHz.wav
3	12	3	4	2	I	2	0	1023	0	poli_8sides 15_whiteLine3.jpg	Short_b22_cut1_stereo_44KHz.wav
3	13	2	2	1	C	1	0	782	0	poli_8sides 1_whiteLine3.jpg	Short_b23_cut1_stereo_44KHz.wav
3	14	4	4	2	I	1	0	991	0	poli_8sides 8_whiteLine3.jpg	Short_b22_cut1_stereo_44KHz.wav
3	15	1	1	1	C	2	1	806	1	poli_8sides 6_whiteLine3.jpg	Short_b09_cut1_stereo_44KHz.wav
3	16	3	3	2	I	1	0	912	1	poli_8sides 15_whiteLine3.jpg	Short_b20_cut1_stereo_44KHz.wav
3	17	1	2	0	C	2	0	1027	0	poli_8sides 6_whiteLine3.jpg	Short_b23_cut1_stereo_44KHz.wav
3	18	2	1	0	C	1	1	901	1	poli_8sides 1_whiteLine3.jpg	Short_b09_cut1_stereo_44KHz.wav
3	19	4	3	2	I	2	0	1288	0	poli_8sides 8_whiteLine3.jpg	Short_b20_cut1_stereo_44KHz.wav
3	20	3	4	2	I	1	0	1684	1	poli_8sides 15_whiteLine3.jpg	Short_b22_cut1_stereo_44KHz.wav
3	21	2	2	1	C	1	0	722	0	poli_8sides 1_whiteLine3.jpg	Short_b23_cut1_stereo_44KHz.wav
3	22	4	4	2	I	1	0	901	0	poli_8sides 8_whiteLine3.jpg	Short_b22_cut1_stereo_44KHz.wav
3	23	3	3	2	I	1	0	1058	0	poli_8sides 15_whiteLine3.jpg	Short_b20_cut1_stereo_44KHz.wav
3	24	1	1	1	C	1	0	808	0	poli_8sides 6_whiteLine3.jpg	Short_b09_cut1_stereo_44KHz.wav
3	25	4	3	2	I	2	0	1205	0	poli_8sides 8_whiteLine3.jpg	Short_b20_cut1_stereo_44KHz.wav
3	26	1	2	0	C	0	0	0	0	poli_8sides 6_whiteLine3.jpg	Short_b23_cut1_stereo_44KHz.wav
3	27	2	2	1	C	1	0	695	0	poli_8sides 1_whiteLine3.jpg	Short_b23_cut1_stereo_44KHz.wav
3	28	3	3	2	I	1	0	752	0	poli_8sides 15_whiteLine3.jpg	Short_b20_cut1_stereo_44KHz.wav
3	29	2	1	0	C	1	1	875	1	poli_8sides 1_whiteLine3.jpg	Short_b09_cut1_stereo_44KHz.wav
3	30	3	4	2	I	2	0	1481	1	poli_8sides 15_whiteLine3.jpg	Short_b22_cut1_stereo_44KHz.wav
3	31	1	1	1	C	2	1	987	1	poli_8sides 6_whiteLine3.jpg	Short_b09_cut1_stereo_44KHz.wav
3	32	4	4	2	I	1	0	1355	1	poli_8sides 8_whiteLine3.jpg	Short_b22_cut1_stereo_44KHz.wav
3	33	1	1	1	C	1	0	881	0	poli_8sides 6_whiteLine3.jpg	Short_b09_cut1_stereo_44KHz.wav
3	34	2	1	0	C	1	1	887	1	poli_8sides 1_whiteLine3.jpg	Short_b09_cut1_stereo_44KHz.wav
3	35	3	4	2	I	2	0	761	0	poli_8sides 15_whiteLine3.jpg	Short_b22_cut1_stereo_44KHz.wav
3	36	4	3	2	I	2	0	884	0	poli_8sides 8_whiteLine3.jpg	Short_b20_cut1_stereo_44KHz.wav
3	37	3	3	2	I	1	0	1019	1	poli_8sides 15_whiteLine3.jpg	Short_b20_cut1_stereo_44KHz.wav
3	38	1	2	0	C	1	1	1086	1	poli_8sides 6_whiteLine3.jpg	Short_b23_cut1_stereo_44KHz.wav
3	39	4	4	2	I	2	0	1286	0	poli_8sides 8_whiteLine3.jpg	Short_b22_cut1_stereo_44KHz.wav
3	40	2	2	1	C	1	0	748	0	poli_8sides 1_whiteLine3.jpg	Short_b23_cut1_stereo_44KHz.wav
3	41	4	3	2	I	2	0	601	0	poli_8sides 8_whiteLine3.jpg	Short_b20_cut1_stereo_44KHz.wav
3	42	1	2	0	C	1	1	672	1	poli_8sides 6_whiteLine3.jpg	Short_b23_cut1_stereo_44KHz.wav
3	43	2	2	1	C	1	0	735	0	poli_8sides 1_whiteLine3.jpg	Short_b23_cut1_stereo_44KHz.wav
3	44	3	4	2	I	2	0	1412	1	poli_8sides 15_whiteLine3.jpg	Short_b22_cut1_stereo_44KHz.wav
3	45	1	1	1	C	1	0	444	0	poli_8sides 6_whiteLine3.jpg	Short_b09_cut1_stereo_44KHz.wav
3	46	3	3	2	I	1	0	539	0	poli_8sides 15_whiteLine3.jpg	Short_b20_cut1_stereo_44KHz.wav
3	47	4	4	2	I	1	0	333	0	poli_8sides 8_whiteLine3.jpg	Short_b22_cut1_stereo_44KHz.wav
3	48	2	1	0	C	2	0	253	0	poli_8sides 1_whiteLine3.jpg	Short_b09_cut1_stereo_44KHz.wav
3	49	4	4	2	I	1	0	915	1	poli_8sides 8_whiteLine3.jpg	Short_b22_cut1_stereo_44KHz.wav
3	50	1	2	0	C	1	1	826	1	poli_8sides 6_whiteLine3.jpg	Short_b23_cut1_stereo_44KHz.wav
3	51	3	4	2	I	1	0	862	0	poli_8sides 15_whiteLine3.jpg	Short_b22_cut1_stereo_44KHz.wav
3	52	2	2	1	C	1	0	711	0	poli_8sides 1_whiteLine3.jpg	Short_b23_cut1_stereo_44KHz.wav
3	53	1	1	1	C	2	1	371	1	poli_8sides 6_whiteLine3.jpg	Short_b09_cut1_stereo_44KHz.wav
3	54	3	3	2	I	1	0	613	1	poli_8sides 15_whiteLine3.jpg	Short_b20_cut1_stereo_44KHz.wav
3	55	2	1	0	C	1	1	1106	1	poli_8sides 1_whiteLine3.jpg	Short_b09_cut1_stereo_44KHz.wav
3	56	4	3	2	I	2	0	986	1	poli_8sides 8_whiteLine3.jpg	Short_b20_cut1_stereo_44KHz.wav
3	57	3	3	2	I	2	0	1155	0	poli_8sides 15_whiteLine3.jpg	Short_b20_cut1_stereo_44KHz.wav
3	58	2	1	0	C	1	1	390	1	poli_8sides 1_whiteLine3.jpg	Short_b09_cut1_stereo_44KHz.wav
3	59	4	4	2	I	2	0	433	0	poli_8sides 8_whiteLine3.jpg	Short_b22_cut1_stereo_44KHz.wav
3	60	1	1	1	C	1	0	625	0	poli_8sides 6_whiteLine3.jpg	Short_b09_cut1_stereo_44KHz.wav
3	61	2	2	1	C	1	0	777	0	poli_8sides 1_whiteLine3.jpg	Short_b23_cut1_stereo_44KHz.wav
3	62	3	4	2	I	2	0	1449	1	poli_8sides 15_whiteLine3.jpg	Short_b22_cut1_stereo_44KHz.wav
3	63	1	2	0	C	2	0	1832	0	poli_8sides 6_whiteLine3.jpg	Short_b23_cut1_stereo_44KHz.wav
3	64	4	3	2	I	2	0	1066	1	poli_8sides 8_whiteLine3.jpg	Short_b20_cut1_stereo_44KHz.wav
3	65	2	1	0	C	1	1	719	1	poli_8sides 1_whiteLine3.jpg	Short_b09_cut1_stereo_44KHz.wav
3	66	3	4	2	I	2	0	761	0	poli_8sides 15_whiteLine3.jpg	Short_b22_cut1_stereo_44KHz.wav
3	67	1	2	0	C	2	0	1271	0	poli_8sides 6_whiteLine3.jpg	Short_b23_cut1_stereo_44KHz.wav
3	68	4	4	2	I	1	0	908	1	poli_8sides 8_whiteLine3.jpg	Short_b22_cut1_stereo_44KHz.wav
3	69	2	2	1	C	1	0	847	0	poli_8sides 1_whiteLine3.jpg	Short_b23_cut1_stereo_44KHz.wav
3	70	3	3	2	I	2	0	1178	1	poli_8sides 15_whiteLine3.jpg	Short_b20_cut1_stereo_44KHz.wav
3	71	4	3	2	I	2	0	885	1	poli_8sides 8_whiteLine3.jpg	Short_b20_cut1_stereo_44KHz.wav
3	72	1	1	1	C	1	0	1071	0	poli_8sides 6_whiteLine3.jpg	Short_b09_cut1_stereo_44KHz.wav
3	73	2	1	0	C	2	0	744	0	poli_8sides 1_whiteLine3.jpg	Short_b09_cut1_stereo_44KHz.wav
3	74	4	4	2	I	1	0	864	0	poli_8sides 8_whiteLine3.jpg	Short_b22_cut1_stereo_44KHz.wav
3	75	3	3	2	I	2	0	861	0	poli_8sides 15_whiteLine3.jpg	Short_b20_cut1_stereo_44KHz.wav
3	76	1	2	0	C	1	1	310	1	poli_8sides 6_whiteLine3.jpg	Short_b23_cut1_stereo_44KHz.wav
3	77	2	2	1	C	1	0	873	0	poli_8sides 1_whiteLine3.jpg	Short_b23_cut1_stereo_44KHz.wav
3	78	4	3	2	I	1	0	1247	1	poli_8sides 8_whiteLine3.jpg	Short_b20_cut1_stereo_44KHz.wav
3	79	1	1	1	C	1	0	585	0	poli_8sides 6_whiteLine3.jpg	Short_b09_cut1_stereo_44KHz.wav
3	80	3	4	2	I	2	0	537	0	poli_8sides 15_whiteLine3.jpg	Short_b22_cut1_stereo_44KHz.wav
3	81	2	2	1	C	1	0	730	0	poli_8sides 1_whiteLine3.jpg	Short_b23_cut1_stereo_44KHz.wav
3	82	3	4	2	I	2	0	1330	1	poli_8sides 15_whiteLine3.jpg	Short_b22_cut1_stereo_44KHz.wav
3	83	1	1	1	C	1	0	732	0	poli_8sides 6_whiteLine3.jpg	Short_b09_cut1_stereo_44KHz.wav
3	84	4	3	2	I	2	0	721	1	poli_8sides 8_whiteLine3.jpg	Short_b20_cut1_stereo_44KHz.wav
3	85	3	3	2	I	2	0	730	1	poli_8sides 15_whiteLine3.jpg	Short_b20_cut1_stereo_44KHz.wav
3	86	4	4	2	I	1	0	1352	0	poli_8sides 8_whiteLine3.jpg	Short_b22_cut1_stereo_44KHz.wav
3	87	1	2	0	C	2	0	1266	0	poli_8sides 6_whiteLine3.jpg	Short_b23_cut1_stereo_44KHz.wav
3	88	2	1	0	C	1	1	757	1	poli_8sides 1_whiteLine3.jpg	Short_b09_cut1_stereo_44KHz.wav
3	89	4	3	2	I	2	0	913	0	poli_8sides 8_whiteLine3.jpg	Short_b20_cut1_stereo_44KHz.wav
3	90	2	1	0	C	1	1	870	1	poli_8sides 1_whiteLine3.jpg	Short_b09_cut1_stereo_44KHz.wav
3	91	1	2	0	C	2	0	674	0	poli_8sides 6_whiteLine3.jpg	Short_b23_cut1_stereo_44KHz.wav
3	92	3	3	2	I	1	0	392	1	poli_8sides 15_whiteLine3.jpg	Short_b20_cut1_stereo_44KHz.wav
3	93	1	1	1	C	2	1	588	1	poli_8sides 6_whiteLine3.jpg	Short_b09_cut1_stereo_44KHz.wav
3	94	4	4	2	I	1	0	607	0	poli_8sides 8_whiteLine3.jpg	Short_b22_cut1_stereo_44KHz.wav
3	95	2	2	1	C	2	1	690	1	poli_8sides 1_whiteLine3.jpg	Short_b23_cut1_stereo_44KHz.wav
3	96	3	4	2	I	2	0	632	0	poli_8sides 15_whiteLine3.jpg	Short_b22_cut1_stereo_44KHz.wav
3	97	1	1	1	C	1	0	773	0	poli_8sides 6_whiteLine3.jpg	Short_b09_cut1_stereo_44KHz.wav
3	98	4	4	2	I	2	0	862	1	poli_8sides 8_whiteLine3.jpg	Short_b22_cut1_stereo_44KHz.wav
3	99	3	4	2	I	1	0	483	0	poli_8sides 15_whiteLine3.jpg	Short_b22_cut1_stereo_44KHz.wav
3	100	2	2	1	C	2	1	372	1	poli_8sides 1_whiteLine3.jpg	Short_b23_cut1_stereo_44KHz.wav
3	101	3	3	2	I	1	0	306	0	poli_8sides 15_whiteLine3.jpg	Short_b20_cut1_stereo_44KHz.wav
3	102	2	1	0	C	2	0	230	0	poli_8sides 1_whiteLine3.jpg	Short_b09_cut1_stereo_44KHz.wav
3	103	4	3	2	I	1	0	675	1	poli_8sides 8_whiteLine3.jpg	Short_b20_cut1_stereo_44KHz.wav
3	104	1	2	0	C	2	0	280	0	poli_8sides 6_whiteLine3.jpg	Short_b23_cut1_stereo_44KHz.wav
3	105	2	2	1	C	1	0	562	0	poli_8sides 1_whiteLine3.jpg	Short_b23_cut1_stereo_44KHz.wav
3	106	1	2	0	C	2	0	307	0	poli_8sides 6_whiteLine3.jpg	Short_b23_cut1_stereo_44KHz.wav
3	107	4	3	2	I	1	0	665	1	poli_8sides 8_whiteLine3.jpg	Short_b20_cut1_stereo_44KHz.wav
3	108	3	4	2	I	1	0	580	1	poli_8sides 15_whiteLine3.jpg	Short_b22_cut1_stereo_44KHz.wav
3	109	4	4	2	I	2	0	459	0	poli_8sides 8_whiteLine3.jpg	Short_b22_cut1_stereo_44KHz.wav
3	110	2	1	0	C	1	1	634	1	poli_8sides 1_whiteLine3.jpg	Short_b09_cut1_stereo_44KHz.wav
3	111	3	3	2	I	2	0	603	0	poli_8sides 15_whiteLine3.jpg	Short_b20_cut1_stereo_44KHz.wav
3	112	1	1	1	C	1	0	889	0	poli_8sides 6_whiteLine3.jpg	Short_b09_cut1_stereo_44KHz.wav
3	113	2	2	1	C	2	1	509	1	poli_8sides 1_whiteLine3.jpg	Short_b23_cut1_stereo_44KHz.wav
3	114	4	4	2	I	2	0	596	0	poli_8sides 8_whiteLine3.jpg	Short_b22_cut1_stereo_44KHz.wav
3	115	3	3	2	I	1	0	315	0	poli_8sides 15_whiteLine3.jpg	Short_b20_cut1_stereo_44KHz.wav
3	116	1	2	0	C	2	0	425	0	poli_8sides 6_whiteLine3.jpg	Short_b23_cut1_stereo_44KHz.wav
3	117	4	3	2	I	1	0	425	0	poli_8sides 8_whiteLine3.jpg	Short_b20_cut1_stereo_44KHz.wav
3	118	2	1	0	C	1	1	382	1	poli_8sides 1_whiteLine3.jpg	Short_b09_cut1_stereo_44KHz.wav
3	119	1	1	1	C	2	1	831	1	poli_8sides 6_whiteLine3.jpg	Short_b09_cut1_stereo_44KHz.wav
3	120	3	4	2	I	2	0	566	0	poli_8sides 15_whiteLine3.jpg	Short_b22_cut1_stereo_44KHz.wav
3	121	4	3	2	I	1	0	540	1	poli_8sides 8_whiteLine3.jpg	Short_b20_cut1_stereo_44KHz.wav
3	122	1	1	1	C	2	1	562	1	poli_8sides 6_whiteLine3.jpg	Short_b09_cut1_stereo_44KHz.wav
3	123	3	4	2	I	1	0	340	1	poli_8sides 15_whiteLine3.jpg	Short_b22_cut1_stereo_44KHz.wav
3	124	2	1	0	C	2	0	645	0	poli_8sides 1_whiteLine3.jpg	Short_b09_cut1_stereo_44KHz.wav
3	125	1	2	0	C	1	1	339	1	poli_8sides 6_whiteLine3.jpg	Short_b23_cut1_stereo_44KHz.wav
3	126	3	3	2	I	1	0	629	1	poli_8sides 15_whiteLine3.jpg	Short_b20_cut1_stereo_44KHz.wav
3	127	4	4	2	I	2	0	779	1	poli_8sides 8_whiteLine3.jpg	Short_b22_cut1_stereo_44KHz.wav
3	128	2	2	1	C	1	0	499	0	poli_8sides 1_whiteLine3.jpg	Short_b23_cut1_stereo_44KHz.wav
3	129	3	4	2	I	2	0	499	0	poli_8sides 15_whiteLine3.jpg	Short_b22_cut1_stereo_44KHz.wav
3	130	1	2	0	C	1	1	326	1	poli_8sides 6_whiteLine3.jpg	Short_b23_cut1_stereo_44KHz.wav
3	131	2	2	1	C	2	1	296	1	poli_8sides 1_whiteLine3.jpg	Short_b23_cut1_stereo_44KHz.wav
3	132	4	3	2	I	1	0	468	0	poli_8sides 8_whiteLine3.jpg	Short_b20_cut1_stereo_44KHz.wav
3	133	1	1	1	C	2	1	65	1	poli_8sides 6_whiteLine3.jpg	Short_b09_cut1_stereo_44KHz.wav
3	134	4	4	2	I	1	0	411	1	poli_8sides 8_whiteLine3.jpg	Short_b22_cut1_stereo_44KHz.wav
3	135	2	1	0	C	2	0	429	0	poli_8sides 1_whiteLine3.jpg	Short_b09_cut1_stereo_44KHz.wav
3	136	3	3	2	I	1	0	451	1	poli_8sides 15_whiteLine3.jpg	Short_b20_cut1_stereo_44KHz.wav
3	137	2	1	0	C	1	1	864	1	poli_8sides 1_whiteLine3.jpg	Short_b09_cut1_stereo_44KHz.wav
3	138	4	4	2	I	2	0	489	1	poli_8sides 8_whiteLine3.jpg	Short_b22_cut1_stereo_44KHz.wav
3	139	3	4	2	I	2	0	639	0	poli_8sides 15_whiteLine3.jpg	Short_b22_cut1_stereo_44KHz.wav
3	140	1	1	1	C	1	0	357	0	poli_8sides 6_whiteLine3.jpg	Short_b09_cut1_stereo_44KHz.wav
3	141	2	2	1	C	1	0	428	0	poli_8sides 1_whiteLine3.jpg	Short_b23_cut1_stereo_44KHz.wav
3	142	4	3	2	I	1	0	485	0	poli_8sides 8_whiteLine3.jpg	Short_b20_cut1_stereo_44KHz.wav
3	143	3	3	2	I	2	0	546	1	poli_8sides 15_whiteLine3.jpg	Short_b20_cut1_stereo_44KHz.wav
3	144	1	2	0	C	2	0	209	0	poli_8sides 6_whiteLine3.jpg	Short_b23_cut1_stereo_44KHz.wav
3	145	4	4	2	I	1	0	379	1	poli_8sides 8_whiteLine3.jpg	Short_b22_cut1_stereo_44KHz.wav
3	146	1	2	0	C	2	0	145	0	poli_8sides 6_whiteLine3.jpg	Short_b23_cut1_stereo_44KHz.wav
3	147	3	3	2	I	1	0	784	0	poli_8sides 15_whiteLine3.jpg	Short_b20_cut1_stereo_44KHz.wav
3	148	2	2	1	C	2	1	271	1	poli_8sides 1_whiteLine3.jpg	Short_b23_cut1_stereo_44KHz.wav
3	149	4	3	2	I	1	0	723	1	poli_8sides 8_whiteLine3.jpg	Short_b20_cut1_stereo_44KHz.wav
3	150	2	1	0	C	2	0	388	0	poli_8sides 1_whiteLine3.jpg	Short_b09_cut1_stereo_44KHz.wav
3	151	3	4	2	I	2	0	800	1	poli_8sides 15_whiteLine3.jpg	Short_b22_cut1_stereo_44KHz.wav
3	152	1	1	1	C	1	0	797	0	poli_8sides 6_whiteLine3.jpg	Short_b09_cut1_stereo_44KHz.wav
3	153	4	4	2	I	2	0	606	0	poli_8sides 8_whiteLine3.jpg	Short_b22_cut1_stereo_44KHz.wav
3	154	1	1	1	C	2	1	1500	1	poli_8sides 6_whiteLine3.jpg	Short_b09_cut1_stereo_44KHz.wav
3	155	2	1	0	C	1	1	638	1	poli_8sides 1_whiteLine3.jpg	Short_b09_cut1_stereo_44KHz.wav
3	156	3	3	2	I	1	0	1118	0	poli_8sides 15_whiteLine3.jpg	Short_b20_cut1_stereo_44KHz.wav
3	157	1	2	0	C	2	0	297	0	poli_8sides 6_whiteLine3.jpg	Short_b23_cut1_stereo_44KHz.wav
3	158	3	4	2	I	2	0	838	1	poli_8sides 15_whiteLine3.jpg	Short_b22_cut1_stereo_44KHz.wav
3	159	4	3	2	I	2	0	887	0	poli_8sides 8_whiteLine3.jpg	Short_b20_cut1_stereo_44KHz.wav
3	160	2	2	1	C	1	0	739	0	poli_8sides 1_whiteLine3.jpg	Short_b23_cut1_stereo_44KHz.wav
3	161	3	3	2	I	1	0	854	1	poli_8sides 15_whiteLine3.jpg	Short_b20_cut1_stereo_44KHz.wav
3	162	4	3	2	I	2	0	379	0	poli_8sides 8_whiteLine3.jpg	Short_b20_cut1_stereo_44KHz.wav
3	163	1	1	1	C	1	0	504	0	poli_8sides 6_whiteLine3.jpg	Short_b09_cut1_stereo_44KHz.wav
3	164	2	2	1	C	2	1	308	1	poli_8sides 1_whiteLine3.jpg	Short_b23_cut1_stereo_44KHz.wav
3	165	4	4	2	I	1	0	714	1	poli_8sides 8_whiteLine3.jpg	Short_b22_cut1_stereo_44KHz.wav
3	166	3	4	2	I	2	0	335	0	poli_8sides 15_whiteLine3.jpg	Short_b22_cut1_stereo_44KHz.wav
3	167	2	1	0	C	1	1	470	1	poli_8sides 1_whiteLine3.jpg	Short_b09_cut1_stereo_44KHz.wav
3	168	1	2	0	C	2	0	796	0	poli_8sides 6_whiteLine3.jpg	Short_b23_cut1_stereo_44KHz.wav
3	169	3	3	2	I	1	0	573	0	poli_8sides 15_whiteLine3.jpg	Short_b20_cut1_stereo_44KHz.wav
3	170	4	3	2	I	2	0	1459	0	poli_8sides 8_whiteLine3.jpg	Short_b20_cut1_stereo_44KHz.wav
3	171	1	2	0	C	2	0	832	0	poli_8sides 6_whiteLine3.jpg	Short_b23_cut1_stereo_44KHz.wav
3	172	2	2	1	C	1	0	322	0	poli_8sides 1_whiteLine3.jpg	Short_b23_cut1_stereo_44KHz.wav
3	173	4	4	2	I	2	0	248	1	poli_8sides 8_whiteLine3.jpg	Short_b22_cut1_stereo_44KHz.wav
3	174	2	1	0	C	2	0	716	0	poli_8sides 1_whiteLine3.jpg	Short_b09_cut1_stereo_44KHz.wav
3	175	1	1	1	C	1	0	314	0	poli_8sides 6_whiteLine3.jpg	Short_b09_cut1_stereo_44KHz.wav
3	176	3	4	2	I	2	0	383	1	poli_8sides 15_whiteLine3.jpg	Short_b22_cut1_stereo_44KHz.wav
3	177	4	4	2	I	2	0	681	0	poli_8sides 8_whiteLine3.jpg	Short_b22_cut1_stereo_44KHz.wav
3	178	3	3	2	I	1	0	485	0	poli_8sides 15_whiteLine3.jpg	Short_b20_cut1_stereo_44KHz.wav
3	179	2	2	1	C	2	1	802	1	poli_8sides 1_whiteLine3.jpg	Short_b23_cut1_stereo_44KHz.wav
3	180	1	1	1	C	2	1	467	1	poli_8sides 6_whiteLine3.jpg	Short_b09_cut1_stereo_44KHz.wav
3	181	4	3	2	I	2	0	459	1	poli_8sides 8_whiteLine3.jpg	Short_b20_cut1_stereo_44KHz.wav
3	182	1	2	0	C	1	1	440	1	poli_8sides 6_whiteLine3.jpg	Short_b23_cut1_stereo_44KHz.wav
3	183	2	1	0	C	2	0	1913	0	poli_8sides 1_whiteLine3.jpg	Short_b09_cut1_stereo_44KHz.wav
3	184	3	4	2	I	1	0	1009	1	poli_8sides 15_whiteLine3.jpg	Short_b22_cut1_stereo_44KHz.wav
3	185	1	1	1	C	2	1	667	1	poli_8sides 6_whiteLine3.jpg	Short_b09_cut1_stereo_44KHz.wav
3	186	3	4	2	I	1	0	495	1	poli_8sides 15_whiteLine3.jpg	Short_b22_cut1_stereo_44KHz.wav
3	187	2	1	0	C	2	0	391	0	poli_8sides 1_whiteLine3.jpg	Short_b09_cut1_stereo_44KHz.wav
3	188	4	4	2	I	1	0	430	0	poli_8sides 8_whiteLine3.jpg	Short_b22_cut1_stereo_44KHz.wav
3	189	3	3	2	I	2	0	320	0	poli_8sides 15_whiteLine3.jpg	Short_b20_cut1_stereo_44KHz.wav
3	190	4	3	2	I	1	0	615	0	poli_8sides 8_whiteLine3.jpg	Short_b20_cut1_stereo_44KHz.wav
3	191	2	2	1	C	2	1	891	1	poli_8sides 1_whiteLine3.jpg	Short_b23_cut1_stereo_44KHz.wav
3	192	1	2	0	C	1	1	510	1	poli_8sides 6_whiteLine3.jpg	Short_b23_cut1_stereo_44KHz.wav
3	193	2	1	0	C	2	0	421	0	poli_8sides 1_whiteLine3.jpg	Short_b09_cut1_stereo_44KHz.wav
3	194	3	4	2	I	1	0	302	1	poli_8sides 15_whiteLine3.jpg	Short_b22_cut1_stereo_44KHz.wav
3	195	4	4	2	I	2	0	695	1	poli_8sides 8_whiteLine3.jpg	Short_b22_cut1_stereo_44KHz.wav
3	196	1	2	0	C	1	1	407	1	poli_8sides 6_whiteLine3.jpg	Short_b23_cut1_stereo_44KHz.wav
3	197	4	3	2	I	2	0	827	1	poli_8sides 8_whiteLine3.jpg	Short_b20_cut1_stereo_44KHz.wav
3	198	2	2	1	C	1	0	286	0	poli_8sides 1_whiteLine3.jpg	Short_b23_cut1_stereo_44KHz.wav
3	199	1	1	1	C	2	1	610	1	poli_8sides 6_whiteLine3.jpg	Short_b09_cut1_stereo_44KHz.wav
3	200	3	3	2	I	1	0	307	0	poli_8sides 15_whiteLine3.jpg	Short_b20_cut1_stereo_44KHz.wav
4	1	1	1	1	C	2	1	1250	1	poli_8sides 18_whiteLine3.jpg	Medium_e26_stereo_44KHz.wav
4	2	3	3	2	I	1	0	998	1	poli_8sides 2_whiteLine3.jpg	Medium_e01_cut1_stereo_44KHz.wav
4	3	4	4	2	I	1	0	1195	1	poli_8sides 3_whiteLine3.jpg	MediumLong_e04_stereo_44KHz.wav
4	4	2	2	1	C	1	0	816	0	poli_8sides 11_whiteLine3.jpg	MediumLong_e19_stereo_44KHz.wav
4	5	1	2	0	C	1	1	950	1	poli_8sides 18_whiteLine3.jpg	MediumLong_e19_stereo_44KHz.wav
4	6	3	4	2	I	1	0	866	0	poli_8sides 2_whiteLine3.jpg	MediumLong_e04_stereo_44KHz.wav
4	7	2	1	0	C	2	0	1042	0	poli_8sides 11_whiteLine3.jpg	Medium_e26_stereo_44KHz.wav
4	8	4	3	2	I	2	0	905	0	poli_8sides 3_whiteLine3.jpg	Medium_e01_cut1_stereo_44KHz.wav
4	9	1	2	0	C	1	1	892	1	poli_8sides 18_whiteLine3.jpg	MediumLong_e19_stereo_44KHz.wav
4	10	3	4	2	I	2	0	923	0	poli_8sides 2_whiteLine3.jpg	MediumLong_e04_stereo_44KHz.wav
4	11	4	4	2	I	1	0	901	1	poli_8sides 3_whiteLine3.jpg	MediumLong_e04_stereo_44KHz.wav
4	12	2	1	0	C	2	0	956	0	poli_8sides 11_whiteLine3.jpg	Medium_e26_stereo_44KHz.wav
4	13	1	1	1	C	1	0	808	0	poli_8sides 18_whiteLine3.jpg	Medium_e26_stereo_44KHz.wav
4	14	3	3	2	I	2	0	1013	0	poli_8sides 2_whiteLine3.jpg	Medium_e01_cut1_stereo_44KHz.wav
4	15	2	2	1	C	1	0	591	0	poli_8sides 11_whiteLine3.jpg	MediumLong_e19_stereo_44KHz.wav
4	16	4	3	2	I	2	0	965	0	poli_8sides 3_whiteLine3.jpg	Medium_e01_cut1_stereo_44KHz.wav
4	17	2	1	0	C	1	1	1007	1	poli_8sides 11_whiteLine3.jpg	Medium_e26_stereo_44KHz.wav
4	18	1	1	1	C	1	0	1088	0	poli_8sides 18_whiteLine3.jpg	Medium_e26_stereo_44KHz.wav
4	19	3	4	2	I	1	0	1209	1	poli_8sides 2_whiteLine3.jpg	MediumLong_e04_stereo_44KHz.wav
4	20	4	3	2	I	1	0	1040	0	poli_8sides 3_whiteLine3.jpg	Medium_e01_cut1_stereo_44KHz.wav
4	21	3	3	2	I	1	0	1009	1	poli_8sides 2_whiteLine3.jpg	Medium_e01_cut1_stereo_44KHz.wav
4	22	1	2	0	C	2	0	973	0	poli_8sides 18_whiteLine3.jpg	MediumLong_e19_stereo_44KHz.wav
4	23	2	2	1	C	1	0	611	0	poli_8sides 11_whiteLine3.jpg	MediumLong_e19_stereo_44KHz.wav
4	24	4	4	2	I	1	0	851	0	poli_8sides 3_whiteLine3.jpg	MediumLong_e04_stereo_44KHz.wav
4	25	1	2	0	C	1	1	901	1	poli_8sides 18_whiteLine3.jpg	MediumLong_e19_stereo_44KHz.wav
4	26	2	2	1	C	2	1	616	1	poli_8sides 11_whiteLine3.jpg	MediumLong_e19_stereo_44KHz.wav
4	27	3	3	2	I	1	0	1041	0	poli_8sides 2_whiteLine3.jpg	Medium_e01_cut1_stereo_44KHz.wav
4	28	4	4	2	I	1	0	920	1	poli_8sides 3_whiteLine3.jpg	MediumLong_e04_stereo_44KHz.wav
4	29	3	4	2	I	2	0	804	0	poli_8sides 2_whiteLine3.jpg	MediumLong_e04_stereo_44KHz.wav
4	30	2	1	0	C	1	1	1108	1	poli_8sides 11_whiteLine3.jpg	Medium_e26_stereo_44KHz.wav
4	31	4	3	2	I	2	0	879	1	poli_8sides 3_whiteLine3.jpg	Medium_e01_cut1_stereo_44KHz.wav
4	32	1	1	1	C	2	1	1232	1	poli_8sides 18_whiteLine3.jpg	Medium_e26_stereo_44KHz.wav
4	33	2	1	0	C	2	0	822	0	poli_8sides 11_whiteLine3.jpg	Medium_e26_stereo_44KHz.wav
4	34	3	3	2	I	2	0	1208	0	poli_8sides 2_whiteLine3.jpg	Medium_e01_cut1_stereo_44KHz.wav
4	35	1	1	1	C	2	1	1141	1	poli_8sides 18_whiteLine3.jpg	Medium_e26_stereo_44KHz.wav
4	36	4	4	2	I	1	0	949	1	poli_8sides 3_whiteLine3.jpg	MediumLong_e04_stereo_44KHz.wav
4	37	3	4	2	I	2	0	1001	0	poli_8sides 2_whiteLine3.jpg	MediumLong_e04_stereo_44KHz.wav
4	38	2	2	1	C	2	1	1001	1	poli_8sides 11_whiteLine3.jpg	MediumLong_e19_stereo_44KHz.wav
4	39	1	2	0	C	1	1	1013	1	poli_8sides 18_whiteLine3.jpg	MediumLong_e19_stereo_44KHz.wav
4	40	4	3	2	I	2	0	932	0	poli_8sides 3_whiteLine3.jpg	Medium_e01_cut1_stereo_44KHz.wav
4	41	1	2	0	C	1	1	1017	1	poli_8sides 18_whiteLine3.jpg	MediumLong_e19_stereo_44KHz.wav
4	42	4	3	2	I	1	0	770	0	poli_8sides 3_whiteLine3.jpg	Medium_e01_cut1_stereo_44KHz.wav
4	43	2	1	0	C	1	1	897	1	poli_8sides 11_whiteLine3.jpg	Medium_e26_stereo_44KHz.wav
4	44	3	4	2	I	2	0	1955	1	poli_8sides 2_whiteLine3.jpg	MediumLong_e04_stereo_44KHz.wav
4	45	4	4	2	I	1	0	603	1	poli_8sides 3_whiteLine3.jpg	MediumLong_e04_stereo_44KHz.wav
4	46	2	2	1	C	2	1	981	1	poli_8sides 11_whiteLine3.jpg	MediumLong_e19_stereo_44KHz.wav
4	47	3	3	2	I	1	0	1015	0	poli_8sides 2_whiteLine3.jpg	Medium_e01_cut1_stereo_44KHz.wav
4	48	1	1	1	C	2	1	926	1	poli_8sides 18_whiteLine3.jpg	Medium_e26_stereo_44KHz.wav
4	49	2	2	1	C	2	1	1331	1	poli_8sides 11_whiteLine3.jpg	MediumLong_e19_stereo_44KHz.wav
4	50	3	3	2	I	2	0	1027	0	poli_8sides 2_whiteLine3.jpg	Medium_e01_cut1_stereo_44KHz.wav
4	51	4	3	2	I	2	0	808	1	poli_8sides 3_whiteLine3.jpg	Medium_e01_cut1_stereo_44KHz.wav
4	52	1	1	1	C	2	1	899	1	poli_8sides 18_whiteLine3.jpg	Medium_e26_stereo_44KHz.wav
4	53	2	1	0	C	1	1	739	1	poli_8sides 11_whiteLine3.jpg	Medium_e26_stereo_44KHz.wav
4	54	4	4	2	I	1	0	1152	0	poli_8sides 3_whiteLine3.jpg	MediumLong_e04_stereo_44KHz.wav
4	55	1	2	0	C	1	1	1368	1	poli_8sides 18_whiteLine3.jpg	MediumLong_e19_stereo_44KHz.wav
4	56	3	4	2	I	2	0	1351	0	poli_8sides 2_whiteLine3.jpg	MediumLong_e04_stereo_44KHz.wav
4	57	4	3	2	I	2	0	915	1	poli_8sides 3_whiteLine3.jpg	Medium_e01_cut1_stereo_44KHz.wav
4	58	1	2	0	C	1	1	948	1	poli_8sides 18_whiteLine3.jpg	MediumLong_e19_stereo_44KHz.wav
4	59	2	2	1	C	2	1	834	1	poli_8sides 11_whiteLine3.jpg	MediumLong_e19_stereo_44KHz.wav
4	60	3	3	2	I	2	0	746	0	poli_8sides 2_whiteLine3.jpg	Medium_e01_cut1_stereo_44KHz.wav
4	61	1	1	1	C	2	1	802	1	poli_8sides 18_whiteLine3.jpg	Medium_e26_stereo_44KHz.wav
4	62	4	4	2	I	1	0	999	1	poli_8sides 3_whiteLine3.jpg	MediumLong_e04_stereo_44KHz.wav
4	63	2	1	0	C	1	1	963	1	poli_8sides 11_whiteLine3.jpg	Medium_e26_stereo_44KHz.wav
4	64	3	4	2	I	2	0	1093	1	poli_8sides 2_whiteLine3.jpg	MediumLong_e04_stereo_44KHz.wav
4	65	2	2	1	C	2	1	1016	1	poli_8sides 11_whiteLine3.jpg	MediumLong_e19_stereo_44KHz.wav
4	66	1	2	0	C	1	1	968	1	poli_8sides 18_whiteLine3.jpg	MediumLong_e19_stereo_44KHz.wav
4	67	4	4	2	I	1	0	1046	1	poli_8sides 3_whiteLine3.jpg	MediumLong_e04_stereo_44KHz.wav
4	68	3	3	2	I	2	0	685	0	poli_8sides 2_whiteLine3.jpg	Medium_e01_cut1_stereo_44KHz.wav
4	69	2	1	0	C	2	0	772	0	poli_8sides 11_whiteLine3.jpg	Medium_e26_stereo_44KHz.wav
4	70	4	3	2	I	2	0	1155	1	poli_8sides 3_whiteLine3.jpg	Medium_e01_cut1_stereo_44KHz.wav
4	71	1	1	1	C	2	1	829	1	poli_8sides 18_whiteLine3.jpg	Medium_e26_stereo_44KHz.wav
4	72	3	4	2	I	2	0	1117	1	poli_8sides 2_whiteLine3.jpg	MediumLong_e04_stereo_44KHz.wav
4	73	1	2	0	C	1	1	894	1	poli_8sides 18_whiteLine3.jpg	MediumLong_e19_stereo_44KHz.wav
4	74	3	3	2	I	2	0	659	1	poli_8sides 2_whiteLine3.jpg	Medium_e01_cut1_stereo_44KHz.wav
4	75	4	3	2	I	2	0	692	0	poli_8sides 3_whiteLine3.jpg	Medium_e01_cut1_stereo_44KHz.wav
4	76	2	2	1	C	2	1	1256	1	poli_8sides 11_whiteLine3.jpg	MediumLong_e19_stereo_44KHz.wav
4	77	3	4	2	I	1	0	1184	1	poli_8sides 2_whiteLine3.jpg	MediumLong_e04_stereo_44KHz.wav
4	78	1	1	1	C	2	1	753	1	poli_8sides 18_whiteLine3.jpg	Medium_e26_stereo_44KHz.wav
4	79	4	4	2	I	1	0	849	0	poli_8sides 3_whiteLine3.jpg	MediumLong_e04_stereo_44KHz.wav
4	80	2	1	0	C	1	1	910	1	poli_8sides 11_whiteLine3.jpg	Medium_e26_stereo_44KHz.wav
4	81	3	4	2	I	1	0	1256	0	poli_8sides 2_whiteLine3.jpg	MediumLong_e04_stereo_44KHz.wav
4	82	4	4	2	I	2	0	889	1	poli_8sides 3_whiteLine3.jpg	MediumLong_e04_stereo_44KHz.wav
4	83	2	1	0	C	1	1	882	1	poli_8sides 11_whiteLine3.jpg	Medium_e26_stereo_44KHz.wav
4	84	1	2	0	C	1	1	1248	1	poli_8sides 18_whiteLine3.jpg	MediumLong_e19_stereo_44KHz.wav
4	85	4	3	2	I	2	0	791	0	poli_8sides 3_whiteLine3.jpg	Medium_e01_cut1_stereo_44KHz.wav
4	86	3	3	2	I	1	0	766	1	poli_8sides 2_whiteLine3.jpg	Medium_e01_cut1_stereo_44KHz.wav
4	87	2	2	1	C	2	1	876	1	poli_8sides 11_whiteLine3.jpg	MediumLong_e19_stereo_44KHz.wav
4	88	1	1	1	C	2	1	1042	1	poli_8sides 18_whiteLine3.jpg	Medium_e26_stereo_44KHz.wav
4	89	3	3	2	I	1	0	1303	0	poli_8sides 2_whiteLine3.jpg	Medium_e01_cut1_stereo_44KHz.wav
4	90	1	2	0	C	1	1	1145	1	poli_8sides 18_whiteLine3.jpg	MediumLong_e19_stereo_44KHz.wav
4	91	4	4	2	I	1	0	1718	1	poli_8sides 3_whiteLine3.jpg	MediumLong_e04_stereo_44KHz.wav
4	92	2	2	1	C	2	1	915	1	poli_8sides 11_whiteLine3.jpg	MediumLong_e19_stereo_44KHz.wav
4	93	4	3	2	I	2	0	756	0	poli_8sides 3_whiteLine3.jpg	Medium_e01_cut1_stereo_44KHz.wav
4	94	1	1	1	C	2	1	889	1	poli_8sides 18_whiteLine3.jpg	Medium_e26_stereo_44KHz.wav
4	95	3	4	2	I	1	0	931	1	poli_8sides 2_whiteLine3.jpg	MediumLong_e04_stereo_44KHz.wav
4	96	2	1	0	C	1	1	1490	1	poli_8sides 11_whiteLine3.jpg	Medium_e26_stereo_44KHz.wav
4	97	3	4	2	I	2	0	767	1	poli_8sides 2_whiteLine3.jpg	MediumLong_e04_stereo_44KHz.wav
4	98	1	1	1	C	1	0	941	0	poli_8sides 18_whiteLine3.jpg	Medium_e26_stereo_44KHz.wav
4	99	4	4	2	I	1	0	882	1	poli_8sides 3_whiteLine3.jpg	MediumLong_e04_stereo_44KHz.wav
4	100	2	1	0	C	1	1	1092	1	poli_8sides 11_whiteLine3.jpg	Medium_e26_stereo_44KHz.wav
4	101	1	2	0	C	1	1	725	1	poli_8sides 18_whiteLine3.jpg	MediumLong_e19_stereo_44KHz.wav
4	102	2	2	1	C	2	1	797	1	poli_8sides 11_whiteLine3.jpg	MediumLong_e19_stereo_44KHz.wav
4	103	4	3	2	I	1	0	1335	0	poli_8sides 3_whiteLine3.jpg	Medium_e01_cut1_stereo_44KHz.wav
4	104	3	3	2	I	1	0	828	0	poli_8sides 2_whiteLine3.jpg	Medium_e01_cut1_stereo_44KHz.wav
4	105	2	1	0	C	1	1	1198	1	poli_8sides 11_whiteLine3.jpg	Medium_e26_stereo_44KHz.wav
4	106	3	4	2	I	1	0	974	0	poli_8sides 2_whiteLine3.jpg	MediumLong_e04_stereo_44KHz.wav
4	107	1	1	1	C	2	1	1055	1	poli_8sides 18_whiteLine3.jpg	Medium_e26_stereo_44KHz.wav
4	108	4	4	2	I	2	0	1400	0	poli_8sides 3_whiteLine3.jpg	MediumLong_e04_stereo_44KHz.wav
4	109	3	3	2	I	2	0	720	1	poli_8sides 2_whiteLine3.jpg	Medium_e01_cut1_stereo_44KHz.wav
4	110	2	2	1	C	2	1	872	1	poli_8sides 11_whiteLine3.jpg	MediumLong_e19_stereo_44KHz.wav
4	111	4	3	2	I	2	0	1509	0	poli_8sides 3_whiteLine3.jpg	Medium_e01_cut1_stereo_44KHz.wav
4	112	1	2	0	C	1	1	1180	1	poli_8sides 18_whiteLine3.jpg	MediumLong_e19_stereo_44KHz.wav
4	113	2	1	0	C	1	1	996	1	poli_8sides 11_whiteLine3.jpg	Medium_e26_stereo_44KHz.wav
4	114	4	4	2	I	2	0	1386	0	poli_8sides 3_whiteLine3.jpg	MediumLong_e04_stereo_44KHz.wav
4	115	1	1	1	C	2	1	795	1	poli_8sides 18_whiteLine3.jpg	Medium_e26_stereo_44KHz.wav
4	116	3	4	2	I	2	0	719	0	poli_8sides 2_whiteLine3.jpg	MediumLong_e04_stereo_44KHz.wav
4	117	4	3	2	I	1	0	1859	1	poli_8sides 3_whiteLine3.jpg	Medium_e01_cut1_stereo_44KHz.wav
4	118	2	2	1	C	2	1	741	1	poli_8sides 11_whiteLine3.jpg	MediumLong_e19_stereo_44KHz.wav
4	119	1	2	0	C	1	1	863	1	poli_8sides 18_whiteLine3.jpg	MediumLong_e19_stereo_44KHz.wav
4	120	3	3	2	I	2	0	719	1	poli_8sides 2_whiteLine3.jpg	Medium_e01_cut1_stereo_44KHz.wav
4	121	1	2	0	C	1	1	858	1	poli_8sides 18_whiteLine3.jpg	MediumLong_e19_stereo_44KHz.wav
4	122	3	3	2	I	2	0	518	0	poli_8sides 2_whiteLine3.jpg	Medium_e01_cut1_stereo_44KHz.wav
4	123	4	4	2	I	1	0	842	0	poli_8sides 3_whiteLine3.jpg	MediumLong_e04_stereo_44KHz.wav
4	124	2	2	1	C	2	1	849	1	poli_8sides 11_whiteLine3.jpg	MediumLong_e19_stereo_44KHz.wav
4	125	3	4	2	I	2	0	645	1	poli_8sides 2_whiteLine3.jpg	MediumLong_e04_stereo_44KHz.wav
4	126	1	1	1	C	2	1	903	1	poli_8sides 18_whiteLine3.jpg	Medium_e26_stereo_44KHz.wav
4	127	2	1	0	C	1	1	1033	1	poli_8sides 11_whiteLine3.jpg	Medium_e26_stereo_44KHz.wav
4	128	4	3	2	I	1	0	1028	1	poli_8sides 3_whiteLine3.jpg	Medium_e01_cut1_stereo_44KHz.wav
4	129	3	3	2	I	2	0	448	1	poli_8sides 2_whiteLine3.jpg	Medium_e01_cut1_stereo_44KHz.wav
4	130	1	1	1	C	2	1	1108	1	poli_8sides 18_whiteLine3.jpg	Medium_e26_stereo_44KHz.wav
4	131	2	1	0	C	1	1	744	1	poli_8sides 11_whiteLine3.jpg	Medium_e26_stereo_44KHz.wav
4	132	4	3	2	I	2	0	1145	1	poli_8sides 3_whiteLine3.jpg	Medium_e01_cut1_stereo_44KHz.wav
4	133	2	2	1	C	2	1	773	1	poli_8sides 11_whiteLine3.jpg	MediumLong_e19_stereo_44KHz.wav
4	134	3	4	2	I	2	0	1084	1	poli_8sides 2_whiteLine3.jpg	MediumLong_e04_stereo_44KHz.wav
4	135	4	4	2	I	1	0	848	0	poli_8sides 3_whiteLine3.jpg	MediumLong_e04_stereo_44KHz.wav
4	136	1	2	0	C	1	1	887	1	poli_8sides 18_whiteLine3.jpg	MediumLong_e19_stereo_44KHz.wav
4	137	2	2	1	C	2	1	885	1	poli_8sides 11_whiteLine3.jpg	MediumLong_e19_stereo_44KHz.wav
4	138	4	4	2	I	2	0	878	1	poli_8sides 3_whiteLine3.jpg	MediumLong_e04_stereo_44KHz.wav
4	139	1	1	1	C	2	1	756	1	poli_8sides 18_whiteLine3.jpg	Medium_e26_stereo_44KHz.wav
4	140	3	4	2	I	1	0	614	0	poli_8sides 2_whiteLine3.jpg	MediumLong_e04_stereo_44KHz.wav
4	141	2	1	0	C	2	0	292	0	poli_8sides 11_whiteLine3.jpg	Medium_e26_stereo_44KHz.wav
4	142	1	2	0	C	1	1	570	1	poli_8sides 18_whiteLine3.jpg	MediumLong_e19_stereo_44KHz.wav
4	143	4	3	2	I	2	0	1070	1	poli_8sides 3_whiteLine3.jpg	Medium_e01_cut1_stereo_44KHz.wav
4	144	3	3	2	I	1	0	783	1	poli_8sides 2_whiteLine3.jpg	Medium_e01_cut1_stereo_44KHz.wav
4	145	4	4	2	I	1	0	705	0	poli_8sides 3_whiteLine3.jpg	MediumLong_e04_stereo_44KHz.wav
4	146	3	4	2	I	2	0	855	1	poli_8sides 2_whiteLine3.jpg	MediumLong_e04_stereo_44KHz.wav
4	147	1	1	1	C	2	1	790	1	poli_8sides 18_whiteLine3.jpg	Medium_e26_stereo_44KHz.wav
4	148	2	2	1	C	2	1	830	1	poli_8sides 11_whiteLine3.jpg	MediumLong_e19_stereo_44KHz.wav
4	149	3	3	2	I	2	0	841	1	poli_8sides 2_whiteLine3.jpg	Medium_e01_cut1_stereo_44KHz.wav
4	150	1	2	0	C	2	0	329	0	poli_8sides 18_whiteLine3.jpg	MediumLong_e19_stereo_44KHz.wav
4	151	4	3	2	I	2	0	955	0	poli_8sides 3_whiteLine3.jpg	Medium_e01_cut1_stereo_44KHz.wav
4	152	2	1	0	C	1	1	954	1	poli_8sides 11_whiteLine3.jpg	Medium_e26_stereo_44KHz.wav
4	153	4	3	2	I	2	0	536	0	poli_8sides 3_whiteLine3.jpg	Medium_e01_cut1_stereo_44KHz.wav
4	154	3	4	2	I	1	0	830	1	poli_8sides 2_whiteLine3.jpg	MediumLong_e04_stereo_44KHz.wav
4	155	2	1	0	C	1	1	1306	1	poli_8sides 11_whiteLine3.jpg	Medium_e26_stereo_44KHz.wav
4	156	1	2	0	C	1	1	731	1	poli_8sides 18_whiteLine3.jpg	MediumLong_e19_stereo_44KHz.wav
4	157	2	2	1	C	2	1	794	1	poli_8sides 11_whiteLine3.jpg	MediumLong_e19_stereo_44KHz.wav
4	158	1	1	1	C	2	1	688	1	poli_8sides 18_whiteLine3.jpg	Medium_e26_stereo_44KHz.wav
4	159	4	4	2	I	2	0	889	1	poli_8sides 3_whiteLine3.jpg	MediumLong_e04_stereo_44KHz.wav
4	160	3	3	2	I	2	0	798	0	poli_8sides 2_whiteLine3.jpg	Medium_e01_cut1_stereo_44KHz.wav
4	161	2	1	0	C	1	1	786	1	poli_8sides 11_whiteLine3.jpg	Medium_e26_stereo_44KHz.wav
4	162	1	2	0	C	1	1	1072	1	poli_8sides 18_whiteLine3.jpg	MediumLong_e19_stereo_44KHz.wav
4	163	4	4	2	I	2	0	790	0	poli_8sides 3_whiteLine3.jpg	MediumLong_e04_stereo_44KHz.wav
4	164	3	4	2	I	2	0	794	1	poli_8sides 2_whiteLine3.jpg	MediumLong_e04_stereo_44KHz.wav
4	165	1	1	1	C	1	0	563	0	poli_8sides 18_whiteLine3.jpg	Medium_e26_stereo_44KHz.wav
4	166	4	3	2	I	2	0	1142	0	poli_8sides 3_whiteLine3.jpg	Medium_e01_cut1_stereo_44KHz.wav
4	167	2	2	1	C	2	1	909	1	poli_8sides 11_whiteLine3.jpg	MediumLong_e19_stereo_44KHz.wav
4	168	3	3	2	I	2	0	701	0	poli_8sides 2_whiteLine3.jpg	Medium_e01_cut1_stereo_44KHz.wav
4	169	2	1	0	C	1	1	1015	1	poli_8sides 11_whiteLine3.jpg	Medium_e26_stereo_44KHz.wav
4	170	3	3	2	I	2	0	1532	1	poli_8sides 2_whiteLine3.jpg	Medium_e01_cut1_stereo_44KHz.wav
4	171	4	3	2	I	1	0	559	0	poli_8sides 3_whiteLine3.jpg	Medium_e01_cut1_stereo_44KHz.wav
4	172	1	1	1	C	2	1	936	1	poli_8sides 18_whiteLine3.jpg	Medium_e26_stereo_44KHz.wav
4	173	4	4	2	I	1	0	792	0	poli_8sides 3_whiteLine3.jpg	MediumLong_e04_stereo_44KHz.wav
4	174	2	2	1	C	2	1	1277	1	poli_8sides 11_whiteLine3.jpg	MediumLong_e19_stereo_44KHz.wav
4	175	3	4	2	I	2	0	631	0	poli_8sides 2_whiteLine3.jpg	MediumLong_e04_stereo_44KHz.wav
4	176	1	2	0	C	1	1	840	1	poli_8sides 18_whiteLine3.jpg	MediumLong_e19_stereo_44KHz.wav
4	177	4	4	2	I	2	0	1338	1	poli_8sides 3_whiteLine3.jpg	MediumLong_e04_stereo_44KHz.wav
4	178	3	3	2	I	1	0	828	1	poli_8sides 2_whiteLine3.jpg	Medium_e01_cut1_stereo_44KHz.wav
4	179	2	1	0	C	1	1	979	1	poli_8sides 11_whiteLine3.jpg	Medium_e26_stereo_44KHz.wav
4	180	1	1	1	C	2	1	1005	1	poli_8sides 18_whiteLine3.jpg	Medium_e26_stereo_44KHz.wav
4	181	4	3	2	I	2	0	1266	1	poli_8sides 3_whiteLine3.jpg	Medium_e01_cut1_stereo_44KHz.wav
4	182	1	2	0	C	1	1	706	1	poli_8sides 18_whiteLine3.jpg	MediumLong_e19_stereo_44KHz.wav
4	183	2	2	1	C	2	1	812	1	poli_8sides 11_whiteLine3.jpg	MediumLong_e19_stereo_44KHz.wav
4	184	3	4	2	I	2	0	984	0	poli_8sides 2_whiteLine3.jpg	MediumLong_e04_stereo_44KHz.wav
4	185	1	1	1	C	2	1	779	1	poli_8sides 18_whiteLine3.jpg	Medium_e26_stereo_44KHz.wav
4	186	4	4	2	I	1	0	1085	1	poli_8sides 3_whiteLine3.jpg	MediumLong_e04_stereo_44KHz.wav
4	187	3	3	2	I	1	0	745	0	poli_8sides 2_whiteLine3.jpg	Medium_e01_cut1_stereo_44KHz.wav
4	188	2	1	0	C	1	1	870	1	poli_8sides 11_whiteLine3.jpg	Medium_e26_stereo_44KHz.wav
4	189	3	4	2	I	1	0	755	1	poli_8sides 2_whiteLine3.jpg	MediumLong_e04_stereo_44KHz.wav
4	190	2	2	1	C	2	1	908	1	poli_8sides 11_whiteLine3.jpg	MediumLong_e19_stereo_44KHz.wav
4	191	4	3	2	I	1	0	885	0	poli_8sides 3_whiteLine3.jpg	Medium_e01_cut1_stereo_44KHz.wav
4	192	1	2	0	C	2	0	325	0	poli_8sides 18_whiteLine3.jpg	MediumLong_e19_stereo_44KHz.wav
4	193	2	2	1	C	2	1	706	1	poli_8sides 11_whiteLine3.jpg	MediumLong_e19_stereo_44KHz.wav
4	194	1	1	1	C	2	1	682	1	poli_8sides 18_whiteLine3.jpg	Medium_e26_stereo_44KHz.wav
4	195	3	3	2	I	1	0	1078	0	poli_8sides 2_whiteLine3.jpg	Medium_e01_cut1_stereo_44KHz.wav
4	196	4	3	2	I	1	0	745	1	poli_8sides 3_whiteLine3.jpg	Medium_e01_cut1_stereo_44KHz.wav
4	197	3	4	2	I	1	0	871	1	poli_8sides 2_whiteLine3.jpg	MediumLong_e04_stereo_44KHz.wav
4	198	4	4	2	I	1	0	854	1	poli_8sides 3_whiteLine3.jpg	MediumLong_e04_stereo_44KHz.wav
4	199	1	2	0	C	1	1	1082	1	poli_8sides 18_whiteLine3.jpg	MediumLong_e19_stereo_44KHz.wav
4	200	2	1	0	C	1	1	1092	1	poli_8sides 11_whiteLine3.jpg	Medium_e26_stereo_44KHz.wav
