block	trial	Vstim	Astim	match	C/I	resp	result	RT	fb	V-file	A-file
LR

0	1	1	1	1	C	2	1	1682	1	Ⴋ	cut_g_stereo_44KHz.wav
0	2	2	3	1	C	1	0	1633	0	Ⴢ	cut_oo_stereo_44KHz.wav
0	3	1	2	0	C	1	1	1470	1	Ⴋ	cut_ee_stereo_44KHz.wav
0	4	2	4	0	C	2	0	881	0	Ⴢ	cut_eeuw_stereo_44KHz.wav
0	5	1	1	1	C	2	1	806	1	Ⴋ	cut_g_stereo_44KHz.wav
0	6	2	3	1	C	2	1	1024	1	Ⴢ	cut_oo_stereo_44KHz.wav
0	7	1	2	0	C	1	1	563	1	Ⴋ	cut_ee_stereo_44KHz.wav
0	8	2	4	0	C	1	1	820	1	Ⴢ	cut_eeuw_stereo_44KHz.wav
0	9	1	2	0	C	1	1	567	1	Ⴋ	cut_ee_stereo_44KHz.wav
0	10	2	4	0	C	1	1	704	1	Ⴢ	cut_eeuw_stereo_44KHz.wav
0	11	1	1	1	C	2	1	788	1	Ⴋ	cut_g_stereo_44KHz.wav
0	12	2	3	1	C	2	1	946	1	Ⴢ	cut_oo_stereo_44KHz.wav
0	13	1	1	1	C	2	1	747	1	Ⴋ	cut_g_stereo_44KHz.wav
0	14	2	4	0	C	1	1	861	1	Ⴢ	cut_eeuw_stereo_44KHz.wav
0	15	1	2	0	C	1	1	515	1	Ⴋ	cut_ee_stereo_44KHz.wav
0	16	2	3	1	C	2	1	648	1	Ⴢ	cut_oo_stereo_44KHz.wav
0	17	2	3	1	C	2	1	673	1	Ⴢ	cut_oo_stereo_44KHz.wav
0	18	1	2	0	C	2	0	534	0	Ⴋ	cut_ee_stereo_44KHz.wav
0	19	2	4	0	C	2	0	650	0	Ⴢ	cut_eeuw_stereo_44KHz.wav
0	20	1	1	1	C	2	1	741	1	Ⴋ	cut_g_stereo_44KHz.wav
0	21	2	4	0	C	1	1	697	1	Ⴢ	cut_eeuw_stereo_44KHz.wav
0	22	2	3	1	C	2	1	716	1	Ⴢ	cut_oo_stereo_44KHz.wav
0	23	1	2	0	C	1	1	718	1	Ⴋ	cut_ee_stereo_44KHz.wav
0	24	1	1	1	C	2	1	574	1	Ⴋ	cut_g_stereo_44KHz.wav
0	25	2	3	1	C	1	0	793	0	Ⴢ	cut_oo_stereo_44KHz.wav
0	26	1	2	0	C	1	1	696	1	Ⴋ	cut_ee_stereo_44KHz.wav
0	27	2	4	0	C	1	1	834	1	Ⴢ	cut_eeuw_stereo_44KHz.wav
0	28	1	1	1	C	2	1	674	1	Ⴋ	cut_g_stereo_44KHz.wav
0	29	2	4	0	C	1	1	771	1	Ⴢ	cut_eeuw_stereo_44KHz.wav
0	30	2	3	1	C	2	1	533	1	Ⴢ	cut_oo_stereo_44KHz.wav
avg_resp = 791
1	1	2	2	1	C	1	0	1264	0	Ⴃ	cut_h_stereo_44KHz.wav
1	2	1	1	1	C	1	0	817	0	Ⴟ	cut_g_stereo_44KHz.wav
1	3	3	3	2	I	1	0	814	1	Ⴇ	cut_l_stereo_44KHz.wav
1	4	4	4	2	I	2	0	998	0	Ⴜ	cut_w_stereo_44KHz.wav
1	5	2	1	0	C	1	1	975	1	Ⴃ	cut_g_stereo_44KHz.wav
1	6	3	4	2	I	1	0	767	1	Ⴇ	cut_w_stereo_44KHz.wav
1	7	1	2	0	C	1	1	803	1	Ⴟ	cut_h_stereo_44KHz.wav
1	8	4	3	2	I	1	0	811	1	Ⴜ	cut_l_stereo_44KHz.wav
1	9	3	3	2	I	2	0	738	0	Ⴇ	cut_l_stereo_44KHz.wav
1	10	4	4	2	I	1	0	923	0	Ⴜ	cut_w_stereo_44KHz.wav
1	11	2	2	1	C	2	1	899	1	Ⴃ	cut_h_stereo_44KHz.wav
1	12	1	2	0	C	1	1	887	1	Ⴟ	cut_h_stereo_44KHz.wav
1	13	4	3	2	I	2	0	954	1	Ⴜ	cut_l_stereo_44KHz.wav
1	14	2	1	0	C	1	1	1014	1	Ⴃ	cut_g_stereo_44KHz.wav
1	15	1	1	1	C	2	1	646	1	Ⴟ	cut_g_stereo_44KHz.wav
1	16	3	4	2	I	1	0	1222	1	Ⴇ	cut_w_stereo_44KHz.wav
1	17	4	4	2	I	2	0	1138	0	Ⴜ	cut_w_stereo_44KHz.wav
1	18	1	2	0	C	1	1	898	1	Ⴟ	cut_h_stereo_44KHz.wav
1	19	2	1	0	C	1	1	873	1	Ⴃ	cut_g_stereo_44KHz.wav
1	20	3	4	2	I	2	0	884	1	Ⴇ	cut_w_stereo_44KHz.wav
1	21	4	3	2	I	1	0	636	1	Ⴜ	cut_l_stereo_44KHz.wav
1	22	1	1	1	C	2	1	730	1	Ⴟ	cut_g_stereo_44KHz.wav
1	23	2	2	1	C	2	1	982	1	Ⴃ	cut_h_stereo_44KHz.wav
1	24	3	3	2	I	1	0	933	1	Ⴇ	cut_l_stereo_44KHz.wav
1	25	2	1	0	C	1	1	1177	1	Ⴃ	cut_g_stereo_44KHz.wav
1	26	1	2	0	C	2	0	927	0	Ⴟ	cut_h_stereo_44KHz.wav
1	27	4	4	2	I	1	0	771	1	Ⴜ	cut_w_stereo_44KHz.wav
1	28	3	4	2	I	2	0	922	0	Ⴇ	cut_w_stereo_44KHz.wav
1	29	1	1	1	C	2	1	838	1	Ⴟ	cut_g_stereo_44KHz.wav
1	30	2	2	1	C	2	1	843	1	Ⴃ	cut_h_stereo_44KHz.wav
1	31	3	3	2	I	2	0	948	0	Ⴇ	cut_l_stereo_44KHz.wav
1	32	4	3	2	I	1	0	921	0	Ⴜ	cut_l_stereo_44KHz.wav
1	33	2	1	0	C	1	1	712	1	Ⴃ	cut_g_stereo_44KHz.wav
1	34	1	2	0	C	1	1	880	1	Ⴟ	cut_h_stereo_44KHz.wav
1	35	4	3	2	I	1	0	497	0	Ⴜ	cut_l_stereo_44KHz.wav
1	36	3	4	2	I	1	0	666	1	Ⴇ	cut_w_stereo_44KHz.wav
1	37	2	2	1	C	2	1	755	1	Ⴃ	cut_h_stereo_44KHz.wav
1	38	4	4	2	I	1	0	955	0	Ⴜ	cut_w_stereo_44KHz.wav
1	39	3	3	2	I	2	0	590	1	Ⴇ	cut_l_stereo_44KHz.wav
1	40	1	1	1	C	2	1	735	1	Ⴟ	cut_g_stereo_44KHz.wav
1	41	4	3	2	I	1	0	767	0	Ⴜ	cut_l_stereo_44KHz.wav
1	42	2	1	0	C	1	1	996	1	Ⴃ	cut_g_stereo_44KHz.wav
1	43	3	3	2	I	2	0	1144	1	Ⴇ	cut_l_stereo_44KHz.wav
1	44	1	1	1	C	2	1	790	1	Ⴟ	cut_g_stereo_44KHz.wav
1	45	2	2	1	C	2	1	775	1	Ⴃ	cut_h_stereo_44KHz.wav
1	46	4	4	2	I	2	0	770	0	Ⴜ	cut_w_stereo_44KHz.wav
1	47	1	2	0	C	1	1	388	1	Ⴟ	cut_h_stereo_44KHz.wav
1	48	3	4	2	I	1	0	623	0	Ⴇ	cut_w_stereo_44KHz.wav
1	49	2	1	0	C	1	1	667	1	Ⴃ	cut_g_stereo_44KHz.wav
1	50	1	1	1	C	2	1	914	1	Ⴟ	cut_g_stereo_44KHz.wav
1	51	3	3	2	I	1	0	726	1	Ⴇ	cut_l_stereo_44KHz.wav
1	52	4	4	2	I	1	0	532	1	Ⴜ	cut_w_stereo_44KHz.wav
1	53	3	4	2	I	1	0	646	0	Ⴇ	cut_w_stereo_44KHz.wav
1	54	2	2	1	C	2	1	816	1	Ⴃ	cut_h_stereo_44KHz.wav
1	55	1	2	0	C	1	1	862	1	Ⴟ	cut_h_stereo_44KHz.wav
1	56	4	3	2	I	2	0	681	0	Ⴜ	cut_l_stereo_44KHz.wav
1	57	1	2	0	C	1	1	773	1	Ⴟ	cut_h_stereo_44KHz.wav
1	58	4	4	2	I	2	0	639	0	Ⴜ	cut_w_stereo_44KHz.wav
1	59	3	3	2	I	1	0	653	0	Ⴇ	cut_l_stereo_44KHz.wav
1	60	2	2	1	C	2	1	723	1	Ⴃ	cut_h_stereo_44KHz.wav
1	61	1	1	1	C	2	1	753	1	Ⴟ	cut_g_stereo_44KHz.wav
1	62	3	4	2	I	1	0	740	1	Ⴇ	cut_w_stereo_44KHz.wav
1	63	4	3	2	I	1	0	582	1	Ⴜ	cut_l_stereo_44KHz.wav
1	64	2	1	0	C	1	1	829	1	Ⴃ	cut_g_stereo_44KHz.wav
1	65	4	3	2	I	2	0	719	1	Ⴜ	cut_l_stereo_44KHz.wav
1	66	3	3	2	I	2	0	876	0	Ⴇ	cut_l_stereo_44KHz.wav
1	67	1	1	1	C	2	1	641	1	Ⴟ	cut_g_stereo_44KHz.wav
1	68	2	2	1	C	2	1	1092	1	Ⴃ	cut_h_stereo_44KHz.wav
1	69	3	4	2	I	1	0	1461	1	Ⴇ	cut_w_stereo_44KHz.wav
1	70	4	4	2	I	2	0	804	0	Ⴜ	cut_w_stereo_44KHz.wav
1	71	1	2	0	C	1	1	940	1	Ⴟ	cut_h_stereo_44KHz.wav
1	72	2	1	0	C	1	1	854	1	Ⴃ	cut_g_stereo_44KHz.wav
1	73	3	4	2	I	1	0	657	0	Ⴇ	cut_w_stereo_44KHz.wav
1	74	1	1	1	C	2	1	728	1	Ⴟ	cut_g_stereo_44KHz.wav
1	75	4	3	2	I	1	0	875	1	Ⴜ	cut_l_stereo_44KHz.wav
1	76	2	2	1	C	2	1	850	1	Ⴃ	cut_h_stereo_44KHz.wav
1	77	3	3	2	I	1	0	890	0	Ⴇ	cut_l_stereo_44KHz.wav
1	78	1	2	0	C	1	1	991	1	Ⴟ	cut_h_stereo_44KHz.wav
1	79	4	4	2	I	2	0	688	0	Ⴜ	cut_w_stereo_44KHz.wav
1	80	2	1	0	C	1	1	877	1	Ⴃ	cut_g_stereo_44KHz.wav
1	81	3	3	2	I	2	0	678	1	Ⴇ	cut_l_stereo_44KHz.wav
1	82	4	3	2	I	2	0	894	0	Ⴜ	cut_l_stereo_44KHz.wav
1	83	2	2	1	C	2	1	784	1	Ⴃ	cut_h_stereo_44KHz.wav
1	84	1	2	0	C	1	1	687	1	Ⴟ	cut_h_stereo_44KHz.wav
1	85	4	4	2	I	2	0	740	1	Ⴜ	cut_w_stereo_44KHz.wav
1	86	3	4	2	I	2	0	699	0	Ⴇ	cut_w_stereo_44KHz.wav
1	87	2	1	0	C	1	1	577	1	Ⴃ	cut_g_stereo_44KHz.wav
1	88	1	1	1	C	2	1	685	1	Ⴟ	cut_g_stereo_44KHz.wav
1	89	2	1	0	C	1	1	968	1	Ⴃ	cut_g_stereo_44KHz.wav
1	90	4	4	2	I	2	0	1025	0	Ⴜ	cut_w_stereo_44KHz.wav
1	91	3	3	2	I	1	0	840	1	Ⴇ	cut_l_stereo_44KHz.wav
1	92	1	2	0	C	1	1	780	1	Ⴟ	cut_h_stereo_44KHz.wav
1	93	4	3	2	I	2	0	955	0	Ⴜ	cut_l_stereo_44KHz.wav
1	94	3	4	2	I	1	0	745	1	Ⴇ	cut_w_stereo_44KHz.wav
1	95	2	2	1	C	2	1	775	1	Ⴃ	cut_h_stereo_44KHz.wav
1	96	1	1	1	C	2	1	758	1	Ⴟ	cut_g_stereo_44KHz.wav
1	97	2	1	0	C	1	1	869	1	Ⴃ	cut_g_stereo_44KHz.wav
1	98	4	3	2	I	2	0	626	0	Ⴜ	cut_l_stereo_44KHz.wav
1	99	3	3	2	I	1	0	456	1	Ⴇ	cut_l_stereo_44KHz.wav
1	100	1	1	1	C	2	1	714	1	Ⴟ	cut_g_stereo_44KHz.wav
1	101	4	4	2	I	1	0	644	1	Ⴜ	cut_w_stereo_44KHz.wav
1	102	3	4	2	I	2	0	543	0	Ⴇ	cut_w_stereo_44KHz.wav
1	103	1	2	0	C	1	1	760	1	Ⴟ	cut_h_stereo_44KHz.wav
1	104	2	2	1	C	2	1	654	1	Ⴃ	cut_h_stereo_44KHz.wav
1	105	3	4	2	I	2	0	573	0	Ⴇ	cut_w_stereo_44KHz.wav
1	106	2	2	1	C	2	1	344	1	Ⴃ	cut_h_stereo_44KHz.wav
1	107	4	3	2	I	1	0	686	0	Ⴜ	cut_l_stereo_44KHz.wav
1	108	1	2	0	C	1	1	852	1	Ⴟ	cut_h_stereo_44KHz.wav
1	109	4	4	2	I	2	0	898	1	Ⴜ	cut_w_stereo_44KHz.wav
1	110	1	1	1	C	1	0	1125	0	Ⴟ	cut_g_stereo_44KHz.wav
1	111	2	1	0	C	1	1	602	1	Ⴃ	cut_g_stereo_44KHz.wav
1	112	3	3	2	I	2	0	658	1	Ⴇ	cut_l_stereo_44KHz.wav
1	113	2	2	1	C	2	1	722	1	Ⴃ	cut_h_stereo_44KHz.wav
1	114	4	3	2	I	1	0	698	0	Ⴜ	cut_l_stereo_44KHz.wav
1	115	3	3	2	I	2	0	896	0	Ⴇ	cut_l_stereo_44KHz.wav
1	116	1	2	0	C	1	1	306	1	Ⴟ	cut_h_stereo_44KHz.wav
1	117	3	4	2	I	2	0	589	1	Ⴇ	cut_w_stereo_44KHz.wav
1	118	2	1	0	C	1	1	747	1	Ⴃ	cut_g_stereo_44KHz.wav
1	119	1	1	1	C	2	1	746	1	Ⴟ	cut_g_stereo_44KHz.wav
1	120	4	4	2	I	1	0	716	1	Ⴜ	cut_w_stereo_44KHz.wav
1	121	2	2	1	C	2	1	854	1	Ⴃ	cut_h_stereo_44KHz.wav
1	122	4	3	2	I	1	0	759	1	Ⴜ	cut_l_stereo_44KHz.wav
1	123	1	2	0	C	1	1	931	1	Ⴟ	cut_h_stereo_44KHz.wav
1	124	3	4	2	I	2	0	529	1	Ⴇ	cut_w_stereo_44KHz.wav
1	125	4	4	2	I	1	0	731	0	Ⴜ	cut_w_stereo_44KHz.wav
1	126	1	1	1	C	2	1	813	1	Ⴟ	cut_g_stereo_44KHz.wav
1	127	3	3	2	I	1	0	1240	0	Ⴇ	cut_l_stereo_44KHz.wav
1	128	2	1	0	C	1	1	1744	1	Ⴃ	cut_g_stereo_44KHz.wav
1	129	3	4	2	I	2	0	576	1	Ⴇ	cut_w_stereo_44KHz.wav
1	130	2	1	0	C	1	1	572	1	Ⴃ	cut_g_stereo_44KHz.wav
1	131	1	1	1	C	2	1	665	1	Ⴟ	cut_g_stereo_44KHz.wav
1	132	4	3	2	I	2	0	825	0	Ⴜ	cut_l_stereo_44KHz.wav
1	133	1	2	0	C	1	1	782	1	Ⴟ	cut_h_stereo_44KHz.wav
1	134	3	3	2	I	2	0	592	0	Ⴇ	cut_l_stereo_44KHz.wav
1	135	2	2	1	C	2	1	756	1	Ⴃ	cut_h_stereo_44KHz.wav
1	136	4	4	2	I	1	0	602	1	Ⴜ	cut_w_stereo_44KHz.wav
1	137	2	2	1	C	2	1	649	1	Ⴃ	cut_h_stereo_44KHz.wav
1	138	4	3	2	I	2	0	1281	1	Ⴜ	cut_l_stereo_44KHz.wav
1	139	3	3	2	I	1	0	653	1	Ⴇ	cut_l_stereo_44KHz.wav
1	140	1	1	1	C	2	1	759	1	Ⴟ	cut_g_stereo_44KHz.wav
1	141	3	4	2	I	1	0	628	1	Ⴇ	cut_w_stereo_44KHz.wav
1	142	2	1	0	C	1	1	803	1	Ⴃ	cut_g_stereo_44KHz.wav
1	143	1	2	0	C	2	0	700	0	Ⴟ	cut_h_stereo_44KHz.wav
1	144	4	4	2	I	1	0	694	1	Ⴜ	cut_w_stereo_44KHz.wav
1	145	1	1	1	C	2	1	1178	1	Ⴟ	cut_g_stereo_44KHz.wav
1	146	4	4	2	I	2	0	785	1	Ⴜ	cut_w_stereo_44KHz.wav
1	147	3	4	2	I	1	0	564	0	Ⴇ	cut_w_stereo_44KHz.wav
1	148	2	1	0	C	1	1	680	1	Ⴃ	cut_g_stereo_44KHz.wav
1	149	3	3	2	I	2	0	576	0	Ⴇ	cut_l_stereo_44KHz.wav
1	150	4	3	2	I	1	0	320	1	Ⴜ	cut_l_stereo_44KHz.wav
1	151	2	2	1	C	2	1	613	1	Ⴃ	cut_h_stereo_44KHz.wav
1	152	1	2	0	C	1	1	771	1	Ⴟ	cut_h_stereo_44KHz.wav
1	153	4	4	2	I	2	0	524	1	Ⴜ	cut_w_stereo_44KHz.wav
1	154	2	1	0	C	1	1	692	1	Ⴃ	cut_g_stereo_44KHz.wav
1	155	3	3	2	I	2	0	669	1	Ⴇ	cut_l_stereo_44KHz.wav
1	156	1	2	0	C	1	1	790	1	Ⴟ	cut_h_stereo_44KHz.wav
1	157	3	4	2	I	2	0	609	1	Ⴇ	cut_w_stereo_44KHz.wav
1	158	1	1	1	C	2	1	752	1	Ⴟ	cut_g_stereo_44KHz.wav
1	159	4	3	2	I	1	0	684	0	Ⴜ	cut_l_stereo_44KHz.wav
1	160	2	2	1	C	2	1	695	1	Ⴃ	cut_h_stereo_44KHz.wav
1	161	4	3	2	I	1	0	654	1	Ⴜ	cut_l_stereo_44KHz.wav
1	162	2	2	1	C	2	1	742	1	Ⴃ	cut_h_stereo_44KHz.wav
1	163	3	3	2	I	1	0	632	1	Ⴇ	cut_l_stereo_44KHz.wav
1	164	1	1	1	C	2	1	717	1	Ⴟ	cut_g_stereo_44KHz.wav
1	165	2	1	0	C	1	1	799	1	Ⴃ	cut_g_stereo_44KHz.wav
1	166	1	2	0	C	2	0	732	0	Ⴟ	cut_h_stereo_44KHz.wav
1	167	3	4	2	I	2	0	490	0	Ⴇ	cut_w_stereo_44KHz.wav
1	168	4	4	2	I	1	0	725	0	Ⴜ	cut_w_stereo_44KHz.wav
1	169	2	1	0	C	1	1	711	1	Ⴃ	cut_g_stereo_44KHz.wav
1	170	3	3	2	I	2	0	687	0	Ⴇ	cut_l_stereo_44KHz.wav
1	171	4	3	2	I	2	0	494	1	Ⴜ	cut_l_stereo_44KHz.wav
1	172	1	1	1	C	2	1	771	1	Ⴟ	cut_g_stereo_44KHz.wav
1	173	4	4	2	I	1	0	373	1	Ⴜ	cut_w_stereo_44KHz.wav
1	174	3	4	2	I	2	0	1193	1	Ⴇ	cut_w_stereo_44KHz.wav
1	175	1	2	0	C	1	1	795	1	Ⴟ	cut_h_stereo_44KHz.wav
1	176	2	2	1	C	2	1	783	1	Ⴃ	cut_h_stereo_44KHz.wav
1	177	3	4	2	I	1	0	685	0	Ⴇ	cut_w_stereo_44KHz.wav
1	178	2	2	1	C	2	1	759	1	Ⴃ	cut_h_stereo_44KHz.wav
1	179	1	1	1	C	2	1	757	1	Ⴟ	cut_g_stereo_44KHz.wav
1	180	4	4	2	I	1	0	755	1	Ⴜ	cut_w_stereo_44KHz.wav
1	181	1	2	0	C	2	0	708	0	Ⴟ	cut_h_stereo_44KHz.wav
1	182	3	3	2	I	2	0	600	0	Ⴇ	cut_l_stereo_44KHz.wav
1	183	4	3	2	I	2	0	477	0	Ⴜ	cut_l_stereo_44KHz.wav
1	184	2	1	0	C	1	1	632	1	Ⴃ	cut_g_stereo_44KHz.wav
1	185	4	3	2	I	2	0	557	1	Ⴜ	cut_l_stereo_44KHz.wav
1	186	2	1	0	C	1	1	658	1	Ⴃ	cut_g_stereo_44KHz.wav
1	187	3	4	2	I	2	0	531	0	Ⴇ	cut_w_stereo_44KHz.wav
1	188	1	1	1	C	2	1	853	1	Ⴟ	cut_g_stereo_44KHz.wav
1	189	3	3	2	I	1	0	675	0	Ⴇ	cut_l_stereo_44KHz.wav
1	190	4	4	2	I	1	0	533	0	Ⴜ	cut_w_stereo_44KHz.wav
1	191	1	2	0	C	1	1	1206	1	Ⴟ	cut_h_stereo_44KHz.wav
1	192	2	2	1	C	2	1	908	1	Ⴃ	cut_h_stereo_44KHz.wav
1	193	1	1	1	C	2	1	713	1	Ⴟ	cut_g_stereo_44KHz.wav
1	194	2	1	0	C	1	1	904	1	Ⴃ	cut_g_stereo_44KHz.wav
1	195	3	4	2	I	2	0	655	0	Ⴇ	cut_w_stereo_44KHz.wav
1	196	4	4	2	I	1	0	529	0	Ⴜ	cut_w_stereo_44KHz.wav
1	197	2	2	1	C	2	1	748	1	Ⴃ	cut_h_stereo_44KHz.wav
1	198	1	2	0	C	1	1	731	1	Ⴟ	cut_h_stereo_44KHz.wav
1	199	3	3	2	I	2	0	508	0	Ⴇ	cut_l_stereo_44KHz.wav
1	200	4	3	2	I	1	0	513	1	Ⴜ	cut_l_stereo_44KHz.wav
2	1	2	2	1	C	2	1	1536	1	Ⴖ	cut_s_stereo_44KHz.wav
2	2	4	4	2	I	1	0	887	1	Ⴏ	cut_n_stereo_44KHz.wav
2	3	3	4	2	I	2	0	720	1	Ⴕ	cut_n_stereo_44KHz.wav
2	4	1	1	1	C	1	0	944	0	Ⴒ	cut_oei_stereo_44KHz.wav
2	5	3	3	2	I	1	0	1097	0	Ⴕ	cut_ui_stereo_44KHz.wav
2	6	1	2	0	C	2	0	836	0	Ⴒ	cut_s_stereo_44KHz.wav
2	7	4	3	2	I	1	0	708	0	Ⴏ	cut_ui_stereo_44KHz.wav
2	8	2	1	0	C	1	1	872	1	Ⴖ	cut_oei_stereo_44KHz.wav
2	9	1	1	1	C	2	1	581	1	Ⴒ	cut_oei_stereo_44KHz.wav
2	10	3	4	2	I	1	0	1062	0	Ⴕ	cut_n_stereo_44KHz.wav
2	11	2	1	0	C	1	1	887	1	Ⴖ	cut_oei_stereo_44KHz.wav
2	12	4	3	2	I	2	0	833	1	Ⴏ	cut_ui_stereo_44KHz.wav
2	13	2	2	1	C	2	1	759	1	Ⴖ	cut_s_stereo_44KHz.wav
2	14	3	3	2	I	1	0	759	1	Ⴕ	cut_ui_stereo_44KHz.wav
2	15	1	2	0	C	1	1	717	1	Ⴒ	cut_s_stereo_44KHz.wav
2	16	4	4	2	I	1	0	1125	1	Ⴏ	cut_n_stereo_44KHz.wav
2	17	3	3	2	I	1	0	740	1	Ⴕ	cut_ui_stereo_44KHz.wav
2	18	1	2	0	C	1	1	535	1	Ⴒ	cut_s_stereo_44KHz.wav
2	19	2	1	0	C	1	1	873	1	Ⴖ	cut_oei_stereo_44KHz.wav
2	20	4	3	2	I	2	0	1026	1	Ⴏ	cut_ui_stereo_44KHz.wav
2	21	1	1	1	C	2	1	866	1	Ⴒ	cut_oei_stereo_44KHz.wav
2	22	4	4	2	I	1	0	842	0	Ⴏ	cut_n_stereo_44KHz.wav
2	23	2	2	1	C	2	1	779	1	Ⴖ	cut_s_stereo_44KHz.wav
2	24	3	4	2	I	2	0	763	0	Ⴕ	cut_n_stereo_44KHz.wav
2	25	1	2	0	C	1	1	708	1	Ⴒ	cut_s_stereo_44KHz.wav
2	26	3	4	2	I	1	0	1256	0	Ⴕ	cut_n_stereo_44KHz.wav
2	27	4	4	2	I	1	0	904	1	Ⴏ	cut_n_stereo_44KHz.wav
2	28	2	2	1	C	2	1	842	1	Ⴖ	cut_s_stereo_44KHz.wav
2	29	3	3	2	I	2	0	752	1	Ⴕ	cut_ui_stereo_44KHz.wav
2	30	4	3	2	I	1	0	810	1	Ⴏ	cut_ui_stereo_44KHz.wav
2	31	1	1	1	C	2	1	899	1	Ⴒ	cut_oei_stereo_44KHz.wav
2	32	2	1	0	C	1	1	779	1	Ⴖ	cut_oei_stereo_44KHz.wav
2	33	4	4	2	I	2	0	911	0	Ⴏ	cut_n_stereo_44KHz.wav
2	34	1	2	0	C	1	1	665	1	Ⴒ	cut_s_stereo_44KHz.wav
2	35	2	2	1	C	2	1	741	1	Ⴖ	cut_s_stereo_44KHz.wav
2	36	3	4	2	I	2	0	762	1	Ⴕ	cut_n_stereo_44KHz.wav
2	37	1	1	1	C	2	1	834	1	Ⴒ	cut_oei_stereo_44KHz.wav
2	38	3	3	2	I	1	0	632	1	Ⴕ	cut_ui_stereo_44KHz.wav
2	39	4	3	2	I	2	0	660	0	Ⴏ	cut_ui_stereo_44KHz.wav
2	40	2	1	0	C	1	1	737	1	Ⴖ	cut_oei_stereo_44KHz.wav
2	41	3	4	2	I	1	0	898	1	Ⴕ	cut_n_stereo_44KHz.wav
2	42	2	2	1	C	2	1	708	1	Ⴖ	cut_s_stereo_44KHz.wav
2	43	4	4	2	I	1	0	772	1	Ⴏ	cut_n_stereo_44KHz.wav
2	44	1	1	1	C	2	1	603	1	Ⴒ	cut_oei_stereo_44KHz.wav
2	45	3	3	2	I	1	0	607	1	Ⴕ	cut_ui_stereo_44KHz.wav
2	46	2	1	0	C	1	1	753	1	Ⴖ	cut_oei_stereo_44KHz.wav
2	47	4	3	2	I	2	0	777	0	Ⴏ	cut_ui_stereo_44KHz.wav
2	48	1	2	0	C	1	1	666	1	Ⴒ	cut_s_stereo_44KHz.wav
2	49	2	2	1	C	2	1	763	1	Ⴖ	cut_s_stereo_44KHz.wav
2	50	4	3	2	I	1	0	1071	0	Ⴏ	cut_ui_stereo_44KHz.wav
2	51	3	3	2	I	1	0	1039	0	Ⴕ	cut_ui_stereo_44KHz.wav
2	52	1	2	0	C	1	1	699	1	Ⴒ	cut_s_stereo_44KHz.wav
2	53	2	1	0	C	1	1	671	1	Ⴖ	cut_oei_stereo_44KHz.wav
2	54	1	1	1	C	2	1	689	1	Ⴒ	cut_oei_stereo_44KHz.wav
2	55	3	4	2	I	2	0	838	1	Ⴕ	cut_n_stereo_44KHz.wav
2	56	4	4	2	I	1	0	577	1	Ⴏ	cut_n_stereo_44KHz.wav
2	57	2	2	1	C	2	1	737	1	Ⴖ	cut_s_stereo_44KHz.wav
2	58	4	3	2	I	2	0	1135	1	Ⴏ	cut_ui_stereo_44KHz.wav
2	59	1	2	0	C	1	1	895	1	Ⴒ	cut_s_stereo_44KHz.wav
2	60	3	4	2	I	1	0	954	1	Ⴕ	cut_n_stereo_44KHz.wav
2	61	1	1	1	C	2	1	644	1	Ⴒ	cut_oei_stereo_44KHz.wav
2	62	2	1	0	C	1	1	771	1	Ⴖ	cut_oei_stereo_44KHz.wav
2	63	3	3	2	I	1	0	617	0	Ⴕ	cut_ui_stereo_44KHz.wav
2	64	4	4	2	I	2	0	815	0	Ⴏ	cut_n_stereo_44KHz.wav
2	65	3	3	2	I	1	0	743	0	Ⴕ	cut_ui_stereo_44KHz.wav
2	66	4	4	2	I	1	0	655	0	Ⴏ	cut_n_stereo_44KHz.wav
2	67	2	2	1	C	2	1	799	1	Ⴖ	cut_s_stereo_44KHz.wav
2	68	1	1	1	C	2	1	827	1	Ⴒ	cut_oei_stereo_44KHz.wav
2	69	4	3	2	I	1	0	942	0	Ⴏ	cut_ui_stereo_44KHz.wav
2	70	2	1	0	C	2	0	541	0	Ⴖ	cut_oei_stereo_44KHz.wav
2	71	3	4	2	I	2	0	742	1	Ⴕ	cut_n_stereo_44KHz.wav
2	72	1	2	0	C	1	1	776	1	Ⴒ	cut_s_stereo_44KHz.wav
2	73	3	3	2	I	1	0	866	0	Ⴕ	cut_ui_stereo_44KHz.wav
2	74	4	4	2	I	1	0	843	1	Ⴏ	cut_n_stereo_44KHz.wav
2	75	1	1	1	C	2	1	801	1	Ⴒ	cut_oei_stereo_44KHz.wav
2	76	2	1	0	C	1	1	641	1	Ⴖ	cut_oei_stereo_44KHz.wav
2	77	1	2	0	C	1	1	706	1	Ⴒ	cut_s_stereo_44KHz.wav
2	78	2	2	1	C	2	1	862	1	Ⴖ	cut_s_stereo_44KHz.wav
2	79	4	3	2	I	1	0	634	0	Ⴏ	cut_ui_stereo_44KHz.wav
2	80	3	4	2	I	1	0	607	1	Ⴕ	cut_n_stereo_44KHz.wav
2	81	4	3	2	I	1	0	649	1	Ⴏ	cut_ui_stereo_44KHz.wav
2	82	1	1	1	C	2	1	785	1	Ⴒ	cut_oei_stereo_44KHz.wav
2	83	3	4	2	I	1	0	899	1	Ⴕ	cut_n_stereo_44KHz.wav
2	84	2	1	0	C	1	1	717	1	Ⴖ	cut_oei_stereo_44KHz.wav
2	85	1	2	0	C	1	1	681	1	Ⴒ	cut_s_stereo_44KHz.wav
2	86	3	3	2	I	2	0	710	1	Ⴕ	cut_ui_stereo_44KHz.wav
2	87	4	4	2	I	1	0	610	1	Ⴏ	cut_n_stereo_44KHz.wav
2	88	2	2	1	C	2	1	1065	1	Ⴖ	cut_s_stereo_44KHz.wav
2	89	3	4	2	I	2	0	666	0	Ⴕ	cut_n_stereo_44KHz.wav
2	90	2	2	1	C	2	1	647	1	Ⴖ	cut_s_stereo_44KHz.wav
2	91	4	4	2	I	2	0	613	0	Ⴏ	cut_n_stereo_44KHz.wav
2	92	1	1	1	C	2	1	899	1	Ⴒ	cut_oei_stereo_44KHz.wav
2	93	4	3	2	I	2	0	578	0	Ⴏ	cut_ui_stereo_44KHz.wav
2	94	2	1	0	C	1	1	693	1	Ⴖ	cut_oei_stereo_44KHz.wav
2	95	3	3	2	I	2	0	736	0	Ⴕ	cut_ui_stereo_44KHz.wav
2	96	1	2	0	C	1	1	779	1	Ⴒ	cut_s_stereo_44KHz.wav
2	97	2	1	0	C	2	0	693	0	Ⴖ	cut_oei_stereo_44KHz.wav
2	98	3	4	2	I	2	0	1337	0	Ⴕ	cut_n_stereo_44KHz.wav
2	99	4	3	2	I	2	0	652	1	Ⴏ	cut_ui_stereo_44KHz.wav
2	100	1	1	1	C	2	1	775	1	Ⴒ	cut_oei_stereo_44KHz.wav
2	101	2	2	1	C	2	1	999	1	Ⴖ	cut_s_stereo_44KHz.wav
2	102	1	2	0	C	1	1	918	1	Ⴒ	cut_s_stereo_44KHz.wav
2	103	4	4	2	I	2	0	972	0	Ⴏ	cut_n_stereo_44KHz.wav
2	104	3	3	2	I	1	0	759	0	Ⴕ	cut_ui_stereo_44KHz.wav
2	105	2	1	0	C	1	1	789	1	Ⴖ	cut_oei_stereo_44KHz.wav
2	106	3	3	2	I	1	0	811	0	Ⴕ	cut_ui_stereo_44KHz.wav
2	107	1	2	0	C	1	1	874	1	Ⴒ	cut_s_stereo_44KHz.wav
2	108	4	3	2	I	2	0	1087	1	Ⴏ	cut_ui_stereo_44KHz.wav
2	109	1	1	1	C	2	1	1293	1	Ⴒ	cut_oei_stereo_44KHz.wav
2	110	2	2	1	C	2	1	709	1	Ⴖ	cut_s_stereo_44KHz.wav
2	111	4	4	2	I	2	0	817	1	Ⴏ	cut_n_stereo_44KHz.wav
2	112	3	4	2	I	2	0	671	1	Ⴕ	cut_n_stereo_44KHz.wav
2	113	4	4	2	I	2	0	548	1	Ⴏ	cut_n_stereo_44KHz.wav
2	114	1	1	1	C	2	1	868	1	Ⴒ	cut_oei_stereo_44KHz.wav
2	115	2	1	0	C	1	1	646	1	Ⴖ	cut_oei_stereo_44KHz.wav
2	116	3	3	2	I	2	0	559	1	Ⴕ	cut_ui_stereo_44KHz.wav
2	117	2	2	1	C	2	1	712	1	Ⴖ	cut_s_stereo_44KHz.wav
2	118	3	4	2	I	1	0	709	0	Ⴕ	cut_n_stereo_44KHz.wav
2	119	1	2	0	C	1	1	723	1	Ⴒ	cut_s_stereo_44KHz.wav
2	120	4	3	2	I	2	0	713	1	Ⴏ	cut_ui_stereo_44KHz.wav
2	121	1	1	1	C	2	1	632	1	Ⴒ	cut_oei_stereo_44KHz.wav
2	122	3	3	2	I	2	0	738	0	Ⴕ	cut_ui_stereo_44KHz.wav
2	123	2	1	0	C	1	1	593	1	Ⴖ	cut_oei_stereo_44KHz.wav
2	124	4	3	2	I	2	0	659	1	Ⴏ	cut_ui_stereo_44KHz.wav
2	125	3	4	2	I	1	0	908	0	Ⴕ	cut_n_stereo_44KHz.wav
2	126	4	4	2	I	2	0	562	1	Ⴏ	cut_n_stereo_44KHz.wav
2	127	1	2	0	C	1	1	729	1	Ⴒ	cut_s_stereo_44KHz.wav
2	128	2	2	1	C	2	1	668	1	Ⴖ	cut_s_stereo_44KHz.wav
2	129	3	4	2	I	2	0	680	1	Ⴕ	cut_n_stereo_44KHz.wav
2	130	4	4	2	I	2	0	556	1	Ⴏ	cut_n_stereo_44KHz.wav
2	131	1	1	1	C	2	1	736	1	Ⴒ	cut_oei_stereo_44KHz.wav
2	132	2	1	0	C	1	1	696	1	Ⴖ	cut_oei_stereo_44KHz.wav
2	133	1	2	0	C	1	1	829	1	Ⴒ	cut_s_stereo_44KHz.wav
2	134	4	3	2	I	2	0	597	0	Ⴏ	cut_ui_stereo_44KHz.wav
2	135	2	2	1	C	2	1	659	1	Ⴖ	cut_s_stereo_44KHz.wav
2	136	3	3	2	I	1	0	1023	0	Ⴕ	cut_ui_stereo_44KHz.wav
2	137	2	2	1	C	2	1	669	1	Ⴖ	cut_s_stereo_44KHz.wav
2	138	1	2	0	C	1	1	773	1	Ⴒ	cut_s_stereo_44KHz.wav
2	139	3	4	2	I	2	0	580	0	Ⴕ	cut_n_stereo_44KHz.wav
2	140	4	4	2	I	1	0	607	0	Ⴏ	cut_n_stereo_44KHz.wav
2	141	3	3	2	I	2	0	637	0	Ⴕ	cut_ui_stereo_44KHz.wav
2	142	4	3	2	I	1	0	613	1	Ⴏ	cut_ui_stereo_44KHz.wav
2	143	1	1	1	C	2	1	710	1	Ⴒ	cut_oei_stereo_44KHz.wav
2	144	2	1	0	C	1	1	1104	1	Ⴖ	cut_oei_stereo_44KHz.wav
2	145	3	4	2	I	2	0	1071	1	Ⴕ	cut_n_stereo_44KHz.wav
2	146	1	1	1	C	2	1	938	1	Ⴒ	cut_oei_stereo_44KHz.wav
2	147	4	4	2	I	2	0	765	0	Ⴏ	cut_n_stereo_44KHz.wav
2	148	2	1	0	C	1	1	558	1	Ⴖ	cut_oei_stereo_44KHz.wav
2	149	4	3	2	I	2	0	497	0	Ⴏ	cut_ui_stereo_44KHz.wav
2	150	2	2	1	C	1	0	305	0	Ⴖ	cut_s_stereo_44KHz.wav
2	151	3	3	2	I	2	0	512	1	Ⴕ	cut_ui_stereo_44KHz.wav
2	152	1	2	0	C	1	1	825	1	Ⴒ	cut_s_stereo_44KHz.wav
2	153	2	2	1	C	2	1	574	1	Ⴖ	cut_s_stereo_44KHz.wav
2	154	4	4	2	I	2	0	988	0	Ⴏ	cut_n_stereo_44KHz.wav
2	155	3	3	2	I	1	0	685	0	Ⴕ	cut_ui_stereo_44KHz.wav
2	156	1	2	0	C	1	1	683	1	Ⴒ	cut_s_stereo_44KHz.wav
2	157	3	4	2	I	2	0	579	1	Ⴕ	cut_n_stereo_44KHz.wav
2	158	2	1	0	C	1	1	667	1	Ⴖ	cut_oei_stereo_44KHz.wav
2	159	4	3	2	I	2	0	567	0	Ⴏ	cut_ui_stereo_44KHz.wav
2	160	1	1	1	C	2	1	730	1	Ⴒ	cut_oei_stereo_44KHz.wav
2	161	2	2	1	C	2	1	773	1	Ⴖ	cut_s_stereo_44KHz.wav
2	162	1	1	1	C	2	1	881	1	Ⴒ	cut_oei_stereo_44KHz.wav
2	163	4	3	2	I	2	0	884	0	Ⴏ	cut_ui_stereo_44KHz.wav
2	164	3	4	2	I	2	0	629	1	Ⴕ	cut_n_stereo_44KHz.wav
2	165	4	4	2	I	2	0	550	0	Ⴏ	cut_n_stereo_44KHz.wav
2	166	3	3	2	I	1	0	919	0	Ⴕ	cut_ui_stereo_44KHz.wav
2	167	1	2	0	C	1	1	469	1	Ⴒ	cut_s_stereo_44KHz.wav
2	168	2	1	0	C	1	1	721	1	Ⴖ	cut_oei_stereo_44KHz.wav
2	169	4	3	2	I	2	0	553	1	Ⴏ	cut_ui_stereo_44KHz.wav
2	170	1	1	1	C	2	1	1024	1	Ⴒ	cut_oei_stereo_44KHz.wav
2	171	3	3	2	I	1	0	641	1	Ⴕ	cut_ui_stereo_44KHz.wav
2	172	2	1	0	C	1	1	910	1	Ⴖ	cut_oei_stereo_44KHz.wav
2	173	4	4	2	I	2	0	817	0	Ⴏ	cut_n_stereo_44KHz.wav
2	174	3	4	2	I	1	0	893	1	Ⴕ	cut_n_stereo_44KHz.wav
2	175	2	2	1	C	2	1	820	1	Ⴖ	cut_s_stereo_44KHz.wav
2	176	1	2	0	C	1	1	667	1	Ⴒ	cut_s_stereo_44KHz.wav
2	177	4	4	2	I	2	0	555	1	Ⴏ	cut_n_stereo_44KHz.wav
2	178	1	1	1	C	2	1	780	1	Ⴒ	cut_oei_stereo_44KHz.wav
2	179	2	2	1	C	2	1	849	1	Ⴖ	cut_s_stereo_44KHz.wav
2	180	3	3	2	I	1	0	619	0	Ⴕ	cut_ui_stereo_44KHz.wav
2	181	2	1	0	C	1	1	817	1	Ⴖ	cut_oei_stereo_44KHz.wav
2	182	4	3	2	I	2	0	682	0	Ⴏ	cut_ui_stereo_44KHz.wav
2	183	1	2	0	C	1	1	986	1	Ⴒ	cut_s_stereo_44KHz.wav
2	184	3	4	2	I	2	0	832	0	Ⴕ	cut_n_stereo_44KHz.wav
2	185	4	4	2	I	1	0	1246	0	Ⴏ	cut_n_stereo_44KHz.wav
2	186	1	2	0	C	1	1	864	1	Ⴒ	cut_s_stereo_44KHz.wav
2	187	2	1	0	C	1	1	731	1	Ⴖ	cut_oei_stereo_44KHz.wav
2	188	3	3	2	I	2	0	1161	1	Ⴕ	cut_ui_stereo_44KHz.wav
2	189	2	2	1	C	2	1	733	1	Ⴖ	cut_s_stereo_44KHz.wav
2	190	4	3	2	I	2	0	885	1	Ⴏ	cut_ui_stereo_44KHz.wav
2	191	1	1	1	C	2	1	1216	1	Ⴒ	cut_oei_stereo_44KHz.wav
2	192	3	4	2	I	1	0	737	1	Ⴕ	cut_n_stereo_44KHz.wav
2	193	1	2	0	C	1	1	657	1	Ⴒ	cut_s_stereo_44KHz.wav
2	194	4	3	2	I	2	0	615	1	Ⴏ	cut_ui_stereo_44KHz.wav
2	195	2	2	1	C	2	1	656	1	Ⴖ	cut_s_stereo_44KHz.wav
2	196	3	4	2	I	2	0	596	0	Ⴕ	cut_n_stereo_44KHz.wav
2	197	2	1	0	C	1	1	630	1	Ⴖ	cut_oei_stereo_44KHz.wav
2	198	3	3	2	I	2	0	541	0	Ⴕ	cut_ui_stereo_44KHz.wav
2	199	4	4	2	I	1	0	685	0	Ⴏ	cut_n_stereo_44KHz.wav
2	200	1	1	1	C	2	1	653	1	Ⴒ	cut_oei_stereo_44KHz.wav
3	1	1	2	0	C	2	0	911	0	Ⴊ	cut_ei_stereo_44KHz.wav
3	2	4	3	2	I	1	0	939	0	Ⴡ	cut_j_stereo_44KHz.wav
3	3	3	4	2	I	1	0	814	1	Ⴂ	cut_f_stereo_44KHz.wav
3	4	2	1	0	C	2	0	856	0	Ⴁ	cut_r_stereo_44KHz.wav
3	5	3	3	2	I	1	0	1325	0	Ⴂ	cut_j_stereo_44KHz.wav
3	6	1	1	1	C	1	0	1281	0	Ⴊ	cut_r_stereo_44KHz.wav
3	7	2	2	1	C	2	1	1154	1	Ⴁ	cut_ei_stereo_44KHz.wav
3	8	4	4	2	I	1	0	746	0	Ⴡ	cut_f_stereo_44KHz.wav
3	9	2	1	0	C	1	1	1021	1	Ⴁ	cut_r_stereo_44KHz.wav
3	10	4	3	2	I	1	0	1122	1	Ⴡ	cut_j_stereo_44KHz.wav
3	11	3	4	2	I	1	0	815	0	Ⴂ	cut_f_stereo_44KHz.wav
3	12	1	1	1	C	2	1	1246	1	Ⴊ	cut_r_stereo_44KHz.wav
3	13	4	4	2	I	2	0	975	0	Ⴡ	cut_f_stereo_44KHz.wav
3	14	1	2	0	C	2	0	1010	0	Ⴊ	cut_ei_stereo_44KHz.wav
3	15	2	2	1	C	2	1	1254	1	Ⴁ	cut_ei_stereo_44KHz.wav
3	16	3	3	2	I	2	0	1033	0	Ⴂ	cut_j_stereo_44KHz.wav
3	17	2	1	0	C	2	0	1080	0	Ⴁ	cut_r_stereo_44KHz.wav
3	18	1	1	1	C	1	0	1200	0	Ⴊ	cut_r_stereo_44KHz.wav
3	19	3	3	2	I	2	0	1095	1	Ⴂ	cut_j_stereo_44KHz.wav
3	20	4	4	2	I	1	0	789	1	Ⴡ	cut_f_stereo_44KHz.wav
3	21	3	4	2	I	2	0	689	0	Ⴂ	cut_f_stereo_44KHz.wav
3	22	1	2	0	C	2	0	871	0	Ⴊ	cut_ei_stereo_44KHz.wav
3	23	4	3	2	I	1	0	617	0	Ⴡ	cut_j_stereo_44KHz.wav
3	24	2	2	1	C	2	1	584	1	Ⴁ	cut_ei_stereo_44KHz.wav
3	25	1	2	0	C	2	0	475	0	Ⴊ	cut_ei_stereo_44KHz.wav
3	26	4	4	2	I	1	0	453	0	Ⴡ	cut_f_stereo_44KHz.wav
3	27	2	2	1	C	2	1	581	1	Ⴁ	cut_ei_stereo_44KHz.wav
3	28	3	3	2	I	1	0	451	1	Ⴂ	cut_j_stereo_44KHz.wav
3	29	2	1	0	C	2	0	769	0	Ⴁ	cut_r_stereo_44KHz.wav
3	30	3	4	2	I	1	0	629	1	Ⴂ	cut_f_stereo_44KHz.wav
3	31	4	3	2	I	2	0	683	0	Ⴡ	cut_j_stereo_44KHz.wav
3	32	1	1	1	C	2	1	836	1	Ⴊ	cut_r_stereo_44KHz.wav
3	33	2	2	1	C	1	0	595	0	Ⴁ	cut_ei_stereo_44KHz.wav
3	34	1	2	0	C	1	1	382	1	Ⴊ	cut_ei_stereo_44KHz.wav
3	35	4	4	2	I	1	0	585	1	Ⴡ	cut_f_stereo_44KHz.wav
3	36	3	4	2	I	1	0	483	1	Ⴂ	cut_f_stereo_44KHz.wav
3	37	4	3	2	I	1	0	584	0	Ⴡ	cut_j_stereo_44KHz.wav
3	38	2	1	0	C	1	1	680	1	Ⴁ	cut_r_stereo_44KHz.wav
3	39	3	3	2	I	2	0	819	1	Ⴂ	cut_j_stereo_44KHz.wav
3	40	1	1	1	C	2	1	1762	1	Ⴊ	cut_r_stereo_44KHz.wav
3	41	4	3	2	I	2	0	880	1	Ⴡ	cut_j_stereo_44KHz.wav
3	42	3	4	2	I	1	0	888	0	Ⴂ	cut_f_stereo_44KHz.wav
3	43	1	2	0	C	2	0	531	0	Ⴊ	cut_ei_stereo_44KHz.wav
3	44	2	1	0	C	1	1	452	1	Ⴁ	cut_r_stereo_44KHz.wav
3	45	1	1	1	C	1	0	467	0	Ⴊ	cut_r_stereo_44KHz.wav
3	46	2	2	1	C	2	1	653	1	Ⴁ	cut_ei_stereo_44KHz.wav
3	47	3	3	2	I	2	0	702	0	Ⴂ	cut_j_stereo_44KHz.wav
3	48	4	4	2	I	1	0	445	0	Ⴡ	cut_f_stereo_44KHz.wav
3	49	1	2	0	C	2	0	624	0	Ⴊ	cut_ei_stereo_44KHz.wav
3	50	3	4	2	I	1	0	682	1	Ⴂ	cut_f_stereo_44KHz.wav
3	51	4	3	2	I	1	0	632	0	Ⴡ	cut_j_stereo_44KHz.wav
3	52	2	1	0	C	2	0	648	0	Ⴁ	cut_r_stereo_44KHz.wav
3	53	1	1	1	C	2	1	672	1	Ⴊ	cut_r_stereo_44KHz.wav
3	54	4	4	2	I	1	0	753	1	Ⴡ	cut_f_stereo_44KHz.wav
3	55	2	2	1	C	2	1	998	1	Ⴁ	cut_ei_stereo_44KHz.wav
3	56	3	3	2	I	2	0	782	1	Ⴂ	cut_j_stereo_44KHz.wav
3	57	2	1	0	C	1	1	590	1	Ⴁ	cut_r_stereo_44KHz.wav
3	58	1	1	1	C	2	1	751	1	Ⴊ	cut_r_stereo_44KHz.wav
3	59	3	3	2	I	2	0	866	0	Ⴂ	cut_j_stereo_44KHz.wav
3	60	4	3	2	I	1	0	827	1	Ⴡ	cut_j_stereo_44KHz.wav
3	61	2	2	1	C	2	1	1066	1	Ⴁ	cut_ei_stereo_44KHz.wav
3	62	1	2	0	C	2	0	708	0	Ⴊ	cut_ei_stereo_44KHz.wav
3	63	4	4	2	I	1	0	805	1	Ⴡ	cut_f_stereo_44KHz.wav
3	64	3	4	2	I	2	0	612	1	Ⴂ	cut_f_stereo_44KHz.wav
3	65	4	4	2	I	1	0	801	0	Ⴡ	cut_f_stereo_44KHz.wav
3	66	2	1	0	C	2	0	764	0	Ⴁ	cut_r_stereo_44KHz.wav
3	67	1	2	0	C	2	0	847	0	Ⴊ	cut_ei_stereo_44KHz.wav
3	68	3	4	2	I	2	0	750	1	Ⴂ	cut_f_stereo_44KHz.wav
3	69	2	2	1	C	1	0	804	0	Ⴁ	cut_ei_stereo_44KHz.wav
3	70	4	3	2	I	1	0	704	1	Ⴡ	cut_j_stereo_44KHz.wav
3	71	1	1	1	C	2	1	659	1	Ⴊ	cut_r_stereo_44KHz.wav
3	72	3	3	2	I	2	0	1172	1	Ⴂ	cut_j_stereo_44KHz.wav
3	73	2	2	1	C	2	1	963	1	Ⴁ	cut_ei_stereo_44KHz.wav
3	74	3	4	2	I	2	0	1012	0	Ⴂ	cut_f_stereo_44KHz.wav
3	75	1	1	1	C	2	1	822	1	Ⴊ	cut_r_stereo_44KHz.wav
3	76	4	4	2	I	1	0	928	1	Ⴡ	cut_f_stereo_44KHz.wav
3	77	1	2	0	C	1	1	1013	1	Ⴊ	cut_ei_stereo_44KHz.wav
3	78	4	3	2	I	1	0	724	0	Ⴡ	cut_j_stereo_44KHz.wav
3	79	2	1	0	C	1	1	791	1	Ⴁ	cut_r_stereo_44KHz.wav
3	80	3	3	2	I	2	0	1061	0	Ⴂ	cut_j_stereo_44KHz.wav
3	81	2	2	1	C	2	1	919	1	Ⴁ	cut_ei_stereo_44KHz.wav
3	82	3	4	2	I	2	0	514	0	Ⴂ	cut_f_stereo_44KHz.wav
3	83	4	4	2	I	1	0	699	0	Ⴡ	cut_f_stereo_44KHz.wav
3	84	1	2	0	C	2	0	999	0	Ⴊ	cut_ei_stereo_44KHz.wav
3	85	3	3	2	I	2	0	629	0	Ⴂ	cut_j_stereo_44KHz.wav
3	86	4	3	2	I	2	0	730	0	Ⴡ	cut_j_stereo_44KHz.wav
3	87	1	1	1	C	2	1	974	1	Ⴊ	cut_r_stereo_44KHz.wav
3	88	2	1	0	C	1	1	904	1	Ⴁ	cut_r_stereo_44KHz.wav
3	89	4	4	2	I	2	0	1041	0	Ⴡ	cut_f_stereo_44KHz.wav
3	90	1	1	1	C	2	1	1020	1	Ⴊ	cut_r_stereo_44KHz.wav
3	91	2	2	1	C	2	1	920	1	Ⴁ	cut_ei_stereo_44KHz.wav
3	92	3	4	2	I	2	0	632	0	Ⴂ	cut_f_stereo_44KHz.wav
3	93	1	2	0	C	1	1	939	1	Ⴊ	cut_ei_stereo_44KHz.wav
3	94	4	3	2	I	1	0	790	0	Ⴡ	cut_j_stereo_44KHz.wav
3	95	2	1	0	C	1	1	1119	1	Ⴁ	cut_r_stereo_44KHz.wav
3	96	3	3	2	I	2	0	759	0	Ⴂ	cut_j_stereo_44KHz.wav
3	97	4	4	2	I	1	0	856	1	Ⴡ	cut_f_stereo_44KHz.wav
3	98	2	2	1	C	2	1	760	1	Ⴁ	cut_ei_stereo_44KHz.wav
3	99	1	2	0	C	1	1	834	1	Ⴊ	cut_ei_stereo_44KHz.wav
3	100	3	3	2	I	2	0	1046	0	Ⴂ	cut_j_stereo_44KHz.wav
3	101	1	1	1	C	2	1	908	1	Ⴊ	cut_r_stereo_44KHz.wav
3	102	4	3	2	I	1	0	735	0	Ⴡ	cut_j_stereo_44KHz.wav
3	103	3	4	2	I	1	0	735	0	Ⴂ	cut_f_stereo_44KHz.wav
3	104	2	1	0	C	1	1	1056	1	Ⴁ	cut_r_stereo_44KHz.wav
3	105	3	4	2	I	2	0	430	0	Ⴂ	cut_f_stereo_44KHz.wav
3	106	2	1	0	C	1	1	791	1	Ⴁ	cut_r_stereo_44KHz.wav
3	107	1	2	0	C	1	1	1344	1	Ⴊ	cut_ei_stereo_44KHz.wav
3	108	4	3	2	I	2	0	718	1	Ⴡ	cut_j_stereo_44KHz.wav
3	109	3	3	2	I	1	0	874	0	Ⴂ	cut_j_stereo_44KHz.wav
3	110	1	1	1	C	2	1	919	1	Ⴊ	cut_r_stereo_44KHz.wav
3	111	2	2	1	C	2	1	905	1	Ⴁ	cut_ei_stereo_44KHz.wav
3	112	4	4	2	I	1	0	1662	0	Ⴡ	cut_f_stereo_44KHz.wav
3	113	3	4	2	I	2	0	620	1	Ⴂ	cut_f_stereo_44KHz.wav
3	114	1	1	1	C	2	1	1436	1	Ⴊ	cut_r_stereo_44KHz.wav
3	115	4	4	2	I	1	0	973	1	Ⴡ	cut_f_stereo_44KHz.wav
3	116	2	2	1	C	2	1	1252	1	Ⴁ	cut_ei_stereo_44KHz.wav
3	117	3	3	2	I	2	0	993	0	Ⴂ	cut_j_stereo_44KHz.wav
3	118	4	3	2	I	2	0	745	1	Ⴡ	cut_j_stereo_44KHz.wav
3	119	1	2	0	C	1	1	1102	1	Ⴊ	cut_ei_stereo_44KHz.wav
3	120	2	1	0	C	1	1	881	1	Ⴁ	cut_r_stereo_44KHz.wav
3	121	1	1	1	C	2	1	1031	1	Ⴊ	cut_r_stereo_44KHz.wav
3	122	3	3	2	I	1	0	722	1	Ⴂ	cut_j_stereo_44KHz.wav
3	123	2	2	1	C	2	1	1136	1	Ⴁ	cut_ei_stereo_44KHz.wav
3	124	4	4	2	I	2	0	725	0	Ⴡ	cut_f_stereo_44KHz.wav
3	125	3	4	2	I	1	0	685	1	Ⴂ	cut_f_stereo_44KHz.wav
3	126	1	2	0	C	1	1	947	1	Ⴊ	cut_ei_stereo_44KHz.wav
3	127	2	1	0	C	1	1	734	1	Ⴁ	cut_r_stereo_44KHz.wav
3	128	4	3	2	I	2	0	1128	1	Ⴡ	cut_j_stereo_44KHz.wav
3	129	2	2	1	C	2	1	1078	1	Ⴁ	cut_ei_stereo_44KHz.wav
3	130	3	3	2	I	2	0	692	0	Ⴂ	cut_j_stereo_44KHz.wav
3	131	4	4	2	I	1	0	691	0	Ⴡ	cut_f_stereo_44KHz.wav
3	132	1	1	1	C	2	1	1409	1	Ⴊ	cut_r_stereo_44KHz.wav
3	133	4	3	2	I	2	0	1089	0	Ⴡ	cut_j_stereo_44KHz.wav
3	134	2	1	0	C	1	1	808	1	Ⴁ	cut_r_stereo_44KHz.wav
3	135	3	4	2	I	2	0	1314	1	Ⴂ	cut_f_stereo_44KHz.wav
3	136	1	2	0	C	1	1	863	1	Ⴊ	cut_ei_stereo_44KHz.wav
3	137	4	4	2	I	2	0	1179	1	Ⴡ	cut_f_stereo_44KHz.wav
3	138	2	2	1	C	2	1	1056	1	Ⴁ	cut_ei_stereo_44KHz.wav
3	139	3	3	2	I	2	0	576	1	Ⴂ	cut_j_stereo_44KHz.wav
3	140	1	1	1	C	2	1	1399	1	Ⴊ	cut_r_stereo_44KHz.wav
3	141	2	1	0	C	1	1	1252	1	Ⴁ	cut_r_stereo_44KHz.wav
3	142	3	4	2	I	2	0	636	1	Ⴂ	cut_f_stereo_44KHz.wav
3	143	1	2	0	C	1	1	959	1	Ⴊ	cut_ei_stereo_44KHz.wav
3	144	4	3	2	I	1	0	785	1	Ⴡ	cut_j_stereo_44KHz.wav
3	145	3	3	2	I	2	0	558	1	Ⴂ	cut_j_stereo_44KHz.wav
3	146	2	2	1	C	2	1	928	1	Ⴁ	cut_ei_stereo_44KHz.wav
3	147	1	1	1	C	2	1	1250	1	Ⴊ	cut_r_stereo_44KHz.wav
3	148	4	4	2	I	1	0	594	1	Ⴡ	cut_f_stereo_44KHz.wav
3	149	2	1	0	C	1	1	814	1	Ⴁ	cut_r_stereo_44KHz.wav
3	150	3	4	2	I	2	0	756	1	Ⴂ	cut_f_stereo_44KHz.wav
3	151	1	2	0	C	1	1	1217	1	Ⴊ	cut_ei_stereo_44KHz.wav
3	152	4	3	2	I	2	0	740	1	Ⴡ	cut_j_stereo_44KHz.wav
3	153	2	1	0	C	1	1	639	1	Ⴁ	cut_r_stereo_44KHz.wav
3	154	1	2	0	C	1	1	994	1	Ⴊ	cut_ei_stereo_44KHz.wav
3	155	4	4	2	I	2	0	792	1	Ⴡ	cut_f_stereo_44KHz.wav
3	156	3	4	2	I	2	0	778	0	Ⴂ	cut_f_stereo_44KHz.wav
3	157	4	3	2	I	2	0	722	0	Ⴡ	cut_j_stereo_44KHz.wav
3	158	2	2	1	C	2	1	1005	1	Ⴁ	cut_ei_stereo_44KHz.wav
3	159	3	3	2	I	1	0	932	1	Ⴂ	cut_j_stereo_44KHz.wav
3	160	1	1	1	C	2	1	1297	1	Ⴊ	cut_r_stereo_44KHz.wav
3	161	3	3	2	I	2	0	780	1	Ⴂ	cut_j_stereo_44KHz.wav
3	162	1	1	1	C	2	1	1046	1	Ⴊ	cut_r_stereo_44KHz.wav
3	163	4	4	2	I	2	0	877	1	Ⴡ	cut_f_stereo_44KHz.wav
3	164	2	1	0	C	1	1	1318	1	Ⴁ	cut_r_stereo_44KHz.wav
3	165	3	4	2	I	2	0	793	0	Ⴂ	cut_f_stereo_44KHz.wav
3	166	4	3	2	I	1	0	368	0	Ⴡ	cut_j_stereo_44KHz.wav
3	167	1	2	0	C	1	1	1625	1	Ⴊ	cut_ei_stereo_44KHz.wav
3	168	2	2	1	C	2	1	914	1	Ⴁ	cut_ei_stereo_44KHz.wav
3	169	4	3	2	I	2	0	723	1	Ⴡ	cut_j_stereo_44KHz.wav
3	170	1	2	0	C	1	1	943	1	Ⴊ	cut_ei_stereo_44KHz.wav
3	171	3	3	2	I	2	0	727	0	Ⴂ	cut_j_stereo_44KHz.wav
3	172	2	2	1	C	2	1	690	1	Ⴁ	cut_ei_stereo_44KHz.wav
3	173	3	4	2	I	1	0	714	0	Ⴂ	cut_f_stereo_44KHz.wav
3	174	4	4	2	I	2	0	627	1	Ⴡ	cut_f_stereo_44KHz.wav
3	175	1	1	1	C	2	1	1082	1	Ⴊ	cut_r_stereo_44KHz.wav
3	176	2	1	0	C	1	1	1415	1	Ⴁ	cut_r_stereo_44KHz.wav
3	177	3	4	2	I	2	0	741	0	Ⴂ	cut_f_stereo_44KHz.wav
3	178	2	2	1	C	2	1	857	1	Ⴁ	cut_ei_stereo_44KHz.wav
3	179	4	3	2	I	1	0	798	1	Ⴡ	cut_j_stereo_44KHz.wav
3	180	1	2	0	C	2	0	789	0	Ⴊ	cut_ei_stereo_44KHz.wav
3	181	4	4	2	I	1	0	721	0	Ⴡ	cut_f_stereo_44KHz.wav
3	182	2	1	0	C	1	1	1057	1	Ⴁ	cut_r_stereo_44KHz.wav
3	183	3	3	2	I	2	0	933	1	Ⴂ	cut_j_stereo_44KHz.wav
3	184	1	1	1	C	2	1	1126	1	Ⴊ	cut_r_stereo_44KHz.wav
3	185	2	1	0	C	1	1	748	1	Ⴁ	cut_r_stereo_44KHz.wav
3	186	1	1	1	C	2	1	1262	1	Ⴊ	cut_r_stereo_44KHz.wav
3	187	3	3	2	I	2	0	788	1	Ⴂ	cut_j_stereo_44KHz.wav
3	188	4	3	2	I	1	0	726	1	Ⴡ	cut_j_stereo_44KHz.wav
3	189	3	4	2	I	2	0	975	1	Ⴂ	cut_f_stereo_44KHz.wav
3	190	2	2	1	C	2	1	1357	1	Ⴁ	cut_ei_stereo_44KHz.wav
3	191	1	2	0	C	2	0	663	0	Ⴊ	cut_ei_stereo_44KHz.wav
3	192	4	4	2	I	1	0	828	0	Ⴡ	cut_f_stereo_44KHz.wav
3	193	1	2	0	C	1	1	884	1	Ⴊ	cut_ei_stereo_44KHz.wav
3	194	3	4	2	I	2	0	656	0	Ⴂ	cut_f_stereo_44KHz.wav
3	195	4	4	2	I	2	0	559	1	Ⴡ	cut_f_stereo_44KHz.wav
3	196	2	2	1	C	2	1	1582	1	Ⴁ	cut_ei_stereo_44KHz.wav
3	197	1	1	1	C	2	1	1125	1	Ⴊ	cut_r_stereo_44KHz.wav
3	198	4	3	2	I	2	0	668	0	Ⴡ	cut_j_stereo_44KHz.wav
3	199	2	1	0	C	1	1	1108	1	Ⴁ	cut_r_stereo_44KHz.wav
3	200	3	3	2	I	2	0	932	1	Ⴂ	cut_j_stereo_44KHz.wav
4	1	4	4	2	I	2	0	988	1	Ⴉ	cut_u_stereo_44KHz.wav
4	2	1	1	1	C	1	0	632	0	Ⴌ	cut_k_stereo_44KHz.wav
4	3	3	3	2	I	1	0	830	0	Ⴐ	cut_o_stereo_44KHz.wav
4	4	2	2	1	C	1	0	784	0	Ⴔ	cut_a_stereo_44KHz.wav
4	5	4	3	2	I	1	0	667	0	Ⴉ	cut_o_stereo_44KHz.wav
4	6	3	4	2	I	1	0	538	1	Ⴐ	cut_u_stereo_44KHz.wav
4	7	1	2	0	C	1	1	981	1	Ⴌ	cut_a_stereo_44KHz.wav
4	8	2	1	0	C	1	1	754	1	Ⴔ	cut_k_stereo_44KHz.wav
4	9	1	2	0	C	1	1	801	1	Ⴌ	cut_a_stereo_44KHz.wav
4	10	2	2	1	C	2	1	1056	1	Ⴔ	cut_a_stereo_44KHz.wav
4	11	4	4	2	I	2	0	922	0	Ⴉ	cut_u_stereo_44KHz.wav
4	12	3	3	2	I	2	0	1124	1	Ⴐ	cut_o_stereo_44KHz.wav
4	13	1	1	1	C	2	1	917	1	Ⴌ	cut_k_stereo_44KHz.wav
4	14	2	1	0	C	1	1	831	1	Ⴔ	cut_k_stereo_44KHz.wav
4	15	3	4	2	I	1	0	819	0	Ⴐ	cut_u_stereo_44KHz.wav
4	16	4	3	2	I	1	0	974	1	Ⴉ	cut_o_stereo_44KHz.wav
4	17	3	4	2	I	1	0	1052	1	Ⴐ	cut_u_stereo_44KHz.wav
4	18	4	3	2	I	1	0	848	1	Ⴉ	cut_o_stereo_44KHz.wav
4	19	1	1	1	C	2	1	630	1	Ⴌ	cut_k_stereo_44KHz.wav
4	20	2	2	1	C	2	1	695	1	Ⴔ	cut_a_stereo_44KHz.wav
4	21	4	4	2	I	2	0	679	1	Ⴉ	cut_u_stereo_44KHz.wav
4	22	3	3	2	I	2	0	661	0	Ⴐ	cut_o_stereo_44KHz.wav
4	23	2	1	0	C	1	1	867	1	Ⴔ	cut_k_stereo_44KHz.wav
4	24	1	2	0	C	1	1	479	1	Ⴌ	cut_a_stereo_44KHz.wav
4	25	3	4	2	I	1	0	921	0	Ⴐ	cut_u_stereo_44KHz.wav
4	26	1	2	0	C	1	1	727	1	Ⴌ	cut_a_stereo_44KHz.wav
4	27	4	3	2	I	1	0	988	0	Ⴉ	cut_o_stereo_44KHz.wav
4	28	2	1	0	C	1	1	614	1	Ⴔ	cut_k_stereo_44KHz.wav
4	29	1	1	1	C	2	1	511	1	Ⴌ	cut_k_stereo_44KHz.wav
4	30	3	3	2	I	2	0	772	1	Ⴐ	cut_o_stereo_44KHz.wav
4	31	4	4	2	I	2	0	742	1	Ⴉ	cut_u_stereo_44KHz.wav
4	32	2	2	1	C	2	1	706	1	Ⴔ	cut_a_stereo_44KHz.wav
4	33	3	4	2	I	2	0	664	0	Ⴐ	cut_u_stereo_44KHz.wav
4	34	2	2	1	C	2	1	1606	1	Ⴔ	cut_a_stereo_44KHz.wav
4	35	1	1	1	C	2	1	788	1	Ⴌ	cut_k_stereo_44KHz.wav
4	36	4	4	2	I	2	0	642	1	Ⴉ	cut_u_stereo_44KHz.wav
4	37	3	3	2	I	2	0	686	0	Ⴐ	cut_o_stereo_44KHz.wav
4	38	4	3	2	I	1	0	784	0	Ⴉ	cut_o_stereo_44KHz.wav
4	39	2	1	0	C	1	1	842	1	Ⴔ	cut_k_stereo_44KHz.wav
4	40	1	2	0	C	1	1	459	1	Ⴌ	cut_a_stereo_44KHz.wav
4	41	4	3	2	I	1	0	600	1	Ⴉ	cut_o_stereo_44KHz.wav
4	42	1	1	1	C	2	1	768	1	Ⴌ	cut_k_stereo_44KHz.wav
4	43	3	3	2	I	2	0	623	1	Ⴐ	cut_o_stereo_44KHz.wav
4	44	2	1	0	C	1	1	556	1	Ⴔ	cut_k_stereo_44KHz.wav
4	45	3	4	2	I	1	0	745	0	Ⴐ	cut_u_stereo_44KHz.wav
4	46	1	2	0	C	1	1	635	1	Ⴌ	cut_a_stereo_44KHz.wav
4	47	4	4	2	I	2	0	596	0	Ⴉ	cut_u_stereo_44KHz.wav
4	48	2	2	1	C	2	1	647	1	Ⴔ	cut_a_stereo_44KHz.wav
4	49	1	2	0	C	1	1	1011	1	Ⴌ	cut_a_stereo_44KHz.wav
4	50	4	4	2	I	2	0	532	0	Ⴉ	cut_u_stereo_44KHz.wav
4	51	3	4	2	I	2	0	625	1	Ⴐ	cut_u_stereo_44KHz.wav
4	52	2	1	0	C	1	1	633	1	Ⴔ	cut_k_stereo_44KHz.wav
4	53	3	3	2	I	2	0	651	1	Ⴐ	cut_o_stereo_44KHz.wav
4	54	1	1	1	C	2	1	792	1	Ⴌ	cut_k_stereo_44KHz.wav
4	55	4	3	2	I	1	0	897	0	Ⴉ	cut_o_stereo_44KHz.wav
4	56	2	2	1	C	2	1	734	1	Ⴔ	cut_a_stereo_44KHz.wav
4	57	4	3	2	I	1	0	842	0	Ⴉ	cut_o_stereo_44KHz.wav
4	58	1	2	0	C	1	1	687	1	Ⴌ	cut_a_stereo_44KHz.wav
4	59	2	1	0	C	2	0	749	0	Ⴔ	cut_k_stereo_44KHz.wav
4	60	3	4	2	I	1	0	617	0	Ⴐ	cut_u_stereo_44KHz.wav
4	61	1	1	1	C	2	1	723	1	Ⴌ	cut_k_stereo_44KHz.wav
4	62	4	4	2	I	2	0	766	1	Ⴉ	cut_u_stereo_44KHz.wav
4	63	3	3	2	I	2	0	687	0	Ⴐ	cut_o_stereo_44KHz.wav
4	64	2	2	1	C	2	1	735	1	Ⴔ	cut_a_stereo_44KHz.wav
4	65	4	3	2	I	1	0	600	0	Ⴉ	cut_o_stereo_44KHz.wav
4	66	1	1	1	C	2	1	765	1	Ⴌ	cut_k_stereo_44KHz.wav
4	67	3	4	2	I	1	0	766	1	Ⴐ	cut_u_stereo_44KHz.wav
4	68	2	2	1	C	2	1	667	1	Ⴔ	cut_a_stereo_44KHz.wav
4	69	3	3	2	I	2	0	636	1	Ⴐ	cut_o_stereo_44KHz.wav
4	70	4	4	2	I	2	0	622	0	Ⴉ	cut_u_stereo_44KHz.wav
4	71	1	2	0	C	1	1	735	1	Ⴌ	cut_a_stereo_44KHz.wav
4	72	2	1	0	C	1	1	753	1	Ⴔ	cut_k_stereo_44KHz.wav
4	73	1	1	1	C	2	1	826	1	Ⴌ	cut_k_stereo_44KHz.wav
4	74	4	4	2	I	2	0	659	0	Ⴉ	cut_u_stereo_44KHz.wav
4	75	2	2	1	C	2	1	649	1	Ⴔ	cut_a_stereo_44KHz.wav
4	76	3	3	2	I	2	0	914	0	Ⴐ	cut_o_stereo_44KHz.wav
4	77	2	1	0	C	1	1	1180	1	Ⴔ	cut_k_stereo_44KHz.wav
4	78	4	3	2	I	1	0	830	1	Ⴉ	cut_o_stereo_44KHz.wav
4	79	1	2	0	C	1	1	639	1	Ⴌ	cut_a_stereo_44KHz.wav
4	80	3	4	2	I	1	0	698	1	Ⴐ	cut_u_stereo_44KHz.wav
4	81	4	4	2	I	2	0	786	1	Ⴉ	cut_u_stereo_44KHz.wav
4	82	3	4	2	I	1	0	700	1	Ⴐ	cut_u_stereo_44KHz.wav
4	83	1	1	1	C	1	0	591	0	Ⴌ	cut_k_stereo_44KHz.wav
4	84	2	1	0	C	1	1	718	1	Ⴔ	cut_k_stereo_44KHz.wav
4	85	4	3	2	I	1	0	857	1	Ⴉ	cut_o_stereo_44KHz.wav
4	86	3	3	2	I	2	0	578	1	Ⴐ	cut_o_stereo_44KHz.wav
4	87	1	2	0	C	1	1	688	1	Ⴌ	cut_a_stereo_44KHz.wav
4	88	2	2	1	C	2	1	667	1	Ⴔ	cut_a_stereo_44KHz.wav
4	89	4	3	2	I	1	0	629	0	Ⴉ	cut_o_stereo_44KHz.wav
4	90	1	1	1	C	2	1	608	1	Ⴌ	cut_k_stereo_44KHz.wav
4	91	3	3	2	I	2	0	560	0	Ⴐ	cut_o_stereo_44KHz.wav
4	92	2	1	0	C	1	1	892	1	Ⴔ	cut_k_stereo_44KHz.wav
4	93	4	4	2	I	2	0	677	1	Ⴉ	cut_u_stereo_44KHz.wav
4	94	1	2	0	C	1	1	673	1	Ⴌ	cut_a_stereo_44KHz.wav
4	95	3	4	2	I	1	0	697	1	Ⴐ	cut_u_stereo_44KHz.wav
4	96	2	2	1	C	2	1	435	1	Ⴔ	cut_a_stereo_44KHz.wav
4	97	1	1	1	C	2	1	617	1	Ⴌ	cut_k_stereo_44KHz.wav
4	98	2	1	0	C	1	1	786	1	Ⴔ	cut_k_stereo_44KHz.wav
4	99	4	4	2	I	2	0	674	1	Ⴉ	cut_u_stereo_44KHz.wav
4	100	3	4	2	I	1	0	586	0	Ⴐ	cut_u_stereo_44KHz.wav
4	101	4	3	2	I	1	0	753	1	Ⴉ	cut_o_stereo_44KHz.wav
4	102	3	3	2	I	2	0	755	0	Ⴐ	cut_o_stereo_44KHz.wav
4	103	1	2	0	C	1	1	720	1	Ⴌ	cut_a_stereo_44KHz.wav
4	104	2	2	1	C	2	1	611	1	Ⴔ	cut_a_stereo_44KHz.wav
4	105	3	3	2	I	2	0	595	1	Ⴐ	cut_o_stereo_44KHz.wav
4	106	1	1	1	C	2	1	745	1	Ⴌ	cut_k_stereo_44KHz.wav
4	107	2	2	1	C	2	1	637	1	Ⴔ	cut_a_stereo_44KHz.wav
4	108	4	3	2	I	1	0	557	1	Ⴉ	cut_o_stereo_44KHz.wav
4	109	3	4	2	I	1	0	860	1	Ⴐ	cut_u_stereo_44KHz.wav
4	110	2	1	0	C	2	0	531	0	Ⴔ	cut_k_stereo_44KHz.wav
4	111	4	4	2	I	2	0	873	0	Ⴉ	cut_u_stereo_44KHz.wav
4	112	1	2	0	C	1	1	951	1	Ⴌ	cut_a_stereo_44KHz.wav
4	113	2	1	0	C	1	1	653	1	Ⴔ	cut_k_stereo_44KHz.wav
4	114	3	3	2	I	2	0	766	0	Ⴐ	cut_o_stereo_44KHz.wav
4	115	1	2	0	C	1	1	469	1	Ⴌ	cut_a_stereo_44KHz.wav
4	116	4	4	2	I	2	0	585	0	Ⴉ	cut_u_stereo_44KHz.wav
4	117	1	1	1	C	2	1	711	1	Ⴌ	cut_k_stereo_44KHz.wav
4	118	2	2	1	C	2	1	564	1	Ⴔ	cut_a_stereo_44KHz.wav
4	119	4	3	2	I	1	0	626	0	Ⴉ	cut_o_stereo_44KHz.wav
4	120	3	4	2	I	1	0	745	0	Ⴐ	cut_u_stereo_44KHz.wav
4	121	1	1	1	C	2	1	658	1	Ⴌ	cut_k_stereo_44KHz.wav
4	122	3	3	2	I	2	0	857	0	Ⴐ	cut_o_stereo_44KHz.wav
4	123	4	4	2	I	2	0	824	1	Ⴉ	cut_u_stereo_44KHz.wav
4	124	2	1	0	C	1	1	793	1	Ⴔ	cut_k_stereo_44KHz.wav
4	125	1	2	0	C	1	1	1409	1	Ⴌ	cut_a_stereo_44KHz.wav
4	126	3	4	2	I	1	0	837	1	Ⴐ	cut_u_stereo_44KHz.wav
4	127	4	3	2	I	2	0	530	1	Ⴉ	cut_o_stereo_44KHz.wav
4	128	2	2	1	C	2	1	868	1	Ⴔ	cut_a_stereo_44KHz.wav
4	129	4	4	2	I	2	0	691	1	Ⴉ	cut_u_stereo_44KHz.wav
4	130	2	2	1	C	2	1	837	1	Ⴔ	cut_a_stereo_44KHz.wav
4	131	3	4	2	I	1	0	751	0	Ⴐ	cut_u_stereo_44KHz.wav
4	132	1	2	0	C	1	1	871	1	Ⴌ	cut_a_stereo_44KHz.wav
4	133	2	1	0	C	2	0	649	0	Ⴔ	cut_k_stereo_44KHz.wav
4	134	1	1	1	C	2	1	652	1	Ⴌ	cut_k_stereo_44KHz.wav
4	135	3	3	2	I	2	0	703	0	Ⴐ	cut_o_stereo_44KHz.wav
4	136	4	3	2	I	1	0	627	0	Ⴉ	cut_o_stereo_44KHz.wav
4	137	1	1	1	C	2	1	651	1	Ⴌ	cut_k_stereo_44KHz.wav
4	138	2	2	1	C	2	1	639	1	Ⴔ	cut_a_stereo_44KHz.wav
4	139	3	3	2	I	2	0	651	1	Ⴐ	cut_o_stereo_44KHz.wav
4	140	4	3	2	I	1	0	685	1	Ⴉ	cut_o_stereo_44KHz.wav
4	141	3	4	2	I	1	0	820	1	Ⴐ	cut_u_stereo_44KHz.wav
4	142	2	1	0	C	1	1	761	1	Ⴔ	cut_k_stereo_44KHz.wav
4	143	1	2	0	C	1	1	740	1	Ⴌ	cut_a_stereo_44KHz.wav
4	144	4	4	2	I	2	0	711	0	Ⴉ	cut_u_stereo_44KHz.wav
4	145	2	1	0	C	1	1	653	1	Ⴔ	cut_k_stereo_44KHz.wav
4	146	3	4	2	I	1	0	779	0	Ⴐ	cut_u_stereo_44KHz.wav
4	147	4	4	2	I	2	0	1050	0	Ⴉ	cut_u_stereo_44KHz.wav
4	148	1	1	1	C	2	1	782	1	Ⴌ	cut_k_stereo_44KHz.wav
4	149	2	2	1	C	2	1	646	1	Ⴔ	cut_a_stereo_44KHz.wav
4	150	1	2	0	C	1	1	669	1	Ⴌ	cut_a_stereo_44KHz.wav
4	151	3	3	2	I	2	0	704	1	Ⴐ	cut_o_stereo_44KHz.wav
4	152	4	3	2	I	1	0	744	1	Ⴉ	cut_o_stereo_44KHz.wav
4	153	2	1	0	C	1	1	693	1	Ⴔ	cut_k_stereo_44KHz.wav
4	154	3	3	2	I	2	0	837	0	Ⴐ	cut_o_stereo_44KHz.wav
4	155	4	3	2	I	1	0	642	1	Ⴉ	cut_o_stereo_44KHz.wav
4	156	1	1	1	C	2	1	622	1	Ⴌ	cut_k_stereo_44KHz.wav
4	157	3	4	2	I	1	0	695	1	Ⴐ	cut_u_stereo_44KHz.wav
4	158	4	4	2	I	2	0	551	0	Ⴉ	cut_u_stereo_44KHz.wav
4	159	2	2	1	C	2	1	744	1	Ⴔ	cut_a_stereo_44KHz.wav
4	160	1	2	0	C	1	1	549	1	Ⴌ	cut_a_stereo_44KHz.wav
4	161	2	1	0	C	1	1	611	1	Ⴔ	cut_k_stereo_44KHz.wav
4	162	1	2	0	C	1	1	672	1	Ⴌ	cut_a_stereo_44KHz.wav
4	163	3	4	2	I	1	0	779	0	Ⴐ	cut_u_stereo_44KHz.wav
4	164	4	4	2	I	2	0	602	1	Ⴉ	cut_u_stereo_44KHz.wav
4	165	3	3	2	I	2	0	823	1	Ⴐ	cut_o_stereo_44KHz.wav
4	166	2	2	1	C	2	1	734	1	Ⴔ	cut_a_stereo_44KHz.wav
4	167	4	3	2	I	1	0	625	1	Ⴉ	cut_o_stereo_44KHz.wav
4	168	1	1	1	C	2	1	802	1	Ⴌ	cut_k_stereo_44KHz.wav
4	169	3	3	2	I	2	0	687	0	Ⴐ	cut_o_stereo_44KHz.wav
4	170	4	4	2	I	2	0	712	0	Ⴉ	cut_u_stereo_44KHz.wav
4	171	2	2	1	C	2	1	1045	1	Ⴔ	cut_a_stereo_44KHz.wav
4	172	1	1	1	C	2	1	618	1	Ⴌ	cut_k_stereo_44KHz.wav
4	173	3	4	2	I	1	0	624	0	Ⴐ	cut_u_stereo_44KHz.wav
4	174	2	1	0	C	2	0	442	0	Ⴔ	cut_k_stereo_44KHz.wav
4	175	4	3	2	I	1	0	601	0	Ⴉ	cut_o_stereo_44KHz.wav
4	176	1	2	0	C	1	1	941	1	Ⴌ	cut_a_stereo_44KHz.wav
4	177	4	4	2	I	2	0	641	0	Ⴉ	cut_u_stereo_44KHz.wav
4	178	3	4	2	I	1	0	708	1	Ⴐ	cut_u_stereo_44KHz.wav
4	179	2	1	0	C	1	1	1147	1	Ⴔ	cut_k_stereo_44KHz.wav
4	180	1	1	1	C	2	1	612	1	Ⴌ	cut_k_stereo_44KHz.wav
4	181	4	3	2	I	1	0	762	1	Ⴉ	cut_o_stereo_44KHz.wav
4	182	1	2	0	C	1	1	1015	1	Ⴌ	cut_a_stereo_44KHz.wav
4	183	3	3	2	I	2	0	755	1	Ⴐ	cut_o_stereo_44KHz.wav
4	184	2	2	1	C	2	1	613	1	Ⴔ	cut_a_stereo_44KHz.wav
4	185	3	4	2	I	1	0	804	1	Ⴐ	cut_u_stereo_44KHz.wav
4	186	1	2	0	C	1	1	619	1	Ⴌ	cut_a_stereo_44KHz.wav
4	187	2	2	1	C	2	1	486	1	Ⴔ	cut_a_stereo_44KHz.wav
4	188	4	4	2	I	2	0	640	0	Ⴉ	cut_u_stereo_44KHz.wav
4	189	1	1	1	C	2	1	514	1	Ⴌ	cut_k_stereo_44KHz.wav
4	190	3	3	2	I	2	0	594	1	Ⴐ	cut_o_stereo_44KHz.wav
4	191	2	1	0	C	1	1	693	1	Ⴔ	cut_k_stereo_44KHz.wav
4	192	4	3	2	I	1	0	710	1	Ⴉ	cut_o_stereo_44KHz.wav
4	193	1	2	0	C	1	1	711	1	Ⴌ	cut_a_stereo_44KHz.wav
4	194	4	3	2	I	1	0	748	0	Ⴉ	cut_o_stereo_44KHz.wav
4	195	3	4	2	I	2	0	513	0	Ⴐ	cut_u_stereo_44KHz.wav
4	196	2	2	1	C	2	1	668	1	Ⴔ	cut_a_stereo_44KHz.wav
4	197	4	4	2	I	2	0	858	0	Ⴉ	cut_u_stereo_44KHz.wav
4	198	3	3	2	I	2	0	714	0	Ⴐ	cut_o_stereo_44KHz.wav
4	199	1	1	1	C	2	1	711	1	Ⴌ	cut_k_stereo_44KHz.wav
4	200	2	1	0	C	1	1	826	1	Ⴔ	cut_k_stereo_44KHz.wav
