block	trial	Vstim	Astim	match	C/I	resp	result	RT	fb	V-file	A-file
RL

0	1	2	3	1	C	0	0	0	0	poli_8sides 23_whiteLine3.jpg	Practice1_b27_cut1_stereo_44KHz.wav
0	2	2	4	0	C	2	1	1338	1	poli_8sides 23_whiteLine3.jpg	Practice3_b26_cut1_stereo_44KHz.wav
0	3	1	1	1	C	1	1	1173	1	poli_8sides 24_whiteLine3.jpg	Practice2_b27_cut2_stereo_44KHz.wav
0	4	1	2	0	C	1	0	1231	0	poli_8sides 24_whiteLine3.jpg	Practice4_b26_stereo_44KHz.wav
0	5	2	4	0	C	2	1	1061	1	poli_8sides 23_whiteLine3.jpg	Practice3_b26_cut1_stereo_44KHz.wav
0	6	1	2	0	C	2	1	1470	1	poli_8sides 24_whiteLine3.jpg	Practice4_b26_stereo_44KHz.wav
0	7	1	1	1	C	2	0	1066	0	poli_8sides 24_whiteLine3.jpg	Practice2_b27_cut2_stereo_44KHz.wav
0	8	2	3	1	C	1	1	1131	1	poli_8sides 23_whiteLine3.jpg	Practice1_b27_cut1_stereo_44KHz.wav
0	9	1	1	1	C	2	0	1116	0	poli_8sides 24_whiteLine3.jpg	Practice2_b27_cut2_stereo_44KHz.wav
0	10	2	4	0	C	2	1	1013	1	poli_8sides 23_whiteLine3.jpg	Practice3_b26_cut1_stereo_44KHz.wav
0	11	1	2	0	C	2	1	1279	1	poli_8sides 24_whiteLine3.jpg	Practice4_b26_stereo_44KHz.wav
0	12	2	3	1	C	1	1	889	1	poli_8sides 23_whiteLine3.jpg	Practice1_b27_cut1_stereo_44KHz.wav
0	13	2	3	1	C	1	1	776	1	poli_8sides 23_whiteLine3.jpg	Practice1_b27_cut1_stereo_44KHz.wav
0	14	1	2	0	C	2	1	1075	1	poli_8sides 24_whiteLine3.jpg	Practice4_b26_stereo_44KHz.wav
0	15	2	4	0	C	2	1	729	1	poli_8sides 23_whiteLine3.jpg	Practice3_b26_cut1_stereo_44KHz.wav
0	16	1	1	1	C	1	1	778	1	poli_8sides 24_whiteLine3.jpg	Practice2_b27_cut2_stereo_44KHz.wav
0	17	2	4	0	C	2	1	819	1	poli_8sides 23_whiteLine3.jpg	Practice3_b26_cut1_stereo_44KHz.wav
0	18	2	3	1	C	1	1	756	1	poli_8sides 23_whiteLine3.jpg	Practice1_b27_cut1_stereo_44KHz.wav
0	19	1	1	1	C	1	1	1085	1	poli_8sides 24_whiteLine3.jpg	Practice2_b27_cut2_stereo_44KHz.wav
0	20	1	2	0	C	2	1	795	1	poli_8sides 24_whiteLine3.jpg	Practice4_b26_stereo_44KHz.wav
0	21	2	4	0	C	2	1	628	1	poli_8sides 23_whiteLine3.jpg	Practice3_b26_cut1_stereo_44KHz.wav
0	22	2	3	1	C	1	1	875	1	poli_8sides 23_whiteLine3.jpg	Practice1_b27_cut1_stereo_44KHz.wav
0	23	1	2	0	C	2	1	1002	1	poli_8sides 24_whiteLine3.jpg	Practice4_b26_stereo_44KHz.wav
0	24	1	1	1	C	1	1	998	1	poli_8sides 24_whiteLine3.jpg	Practice2_b27_cut2_stereo_44KHz.wav
0	25	1	2	0	C	2	1	1020	1	poli_8sides 24_whiteLine3.jpg	Practice4_b26_stereo_44KHz.wav
0	26	2	4	0	C	1	0	553	0	poli_8sides 23_whiteLine3.jpg	Practice3_b26_cut1_stereo_44KHz.wav
0	27	1	1	1	C	1	1	1601	1	poli_8sides 24_whiteLine3.jpg	Practice2_b27_cut2_stereo_44KHz.wav
0	28	2	3	1	C	1	1	1113	1	poli_8sides 23_whiteLine3.jpg	Practice1_b27_cut1_stereo_44KHz.wav
0	29	2	4	0	C	2	1	1136	1	poli_8sides 23_whiteLine3.jpg	Practice3_b26_cut1_stereo_44KHz.wav
0	30	2	3	1	C	1	1	965	1	poli_8sides 23_whiteLine3.jpg	Practice1_b27_cut1_stereo_44KHz.wav
avg_resp = 1020
1	1	2	1	0	C	2	1	818	1	poli_8sides 4_whiteLine3.jpg	MediumLong_e19_stereo_44KHz.wav
1	2	1	2	0	C	2	1	1063	1	poli_8sides 6_whiteLine3.jpg	MediumLong_e17_cut2_stereo_44KHz.wav
1	3	3	4	2	I	2	0	686	1	poli_8sides 18_whiteLine3.jpg	Medium_e26_stereo_44KHz.wav
1	4	4	4	2	I	1	0	734	0	poli_8sides 12_whiteLine3.jpg	Medium_e26_stereo_44KHz.wav
1	5	1	1	1	C	1	1	1346	1	poli_8sides 6_whiteLine3.jpg	MediumLong_e19_stereo_44KHz.wav
1	6	4	3	2	I	1	0	995	1	poli_8sides 12_whiteLine3.jpg	Medium_e01_cut1_stereo_44KHz.wav
1	7	2	2	1	C	2	0	880	0	poli_8sides 4_whiteLine3.jpg	MediumLong_e17_cut2_stereo_44KHz.wav
1	8	3	3	2	I	1	0	802	0	poli_8sides 18_whiteLine3.jpg	Medium_e01_cut1_stereo_44KHz.wav
1	9	2	1	0	C	2	1	858	1	poli_8sides 4_whiteLine3.jpg	MediumLong_e19_stereo_44KHz.wav
1	10	3	4	2	I	2	0	850	1	poli_8sides 18_whiteLine3.jpg	Medium_e26_stereo_44KHz.wav
1	11	1	2	0	C	1	0	881	0	poli_8sides 6_whiteLine3.jpg	MediumLong_e17_cut2_stereo_44KHz.wav
1	12	4	3	2	I	1	0	1602	1	poli_8sides 12_whiteLine3.jpg	Medium_e01_cut1_stereo_44KHz.wav
1	13	1	1	1	C	2	0	1373	0	poli_8sides 6_whiteLine3.jpg	MediumLong_e19_stereo_44KHz.wav
1	14	2	2	1	C	2	0	822	0	poli_8sides 4_whiteLine3.jpg	MediumLong_e17_cut2_stereo_44KHz.wav
1	15	4	4	2	I	1	0	736	1	poli_8sides 12_whiteLine3.jpg	Medium_e26_stereo_44KHz.wav
1	16	3	3	2	I	1	0	1168	0	poli_8sides 18_whiteLine3.jpg	Medium_e01_cut1_stereo_44KHz.wav
1	17	4	3	2	I	1	0	799	1	poli_8sides 12_whiteLine3.jpg	Medium_e01_cut1_stereo_44KHz.wav
1	18	1	2	0	C	2	1	961	1	poli_8sides 6_whiteLine3.jpg	MediumLong_e17_cut2_stereo_44KHz.wav
1	19	2	1	0	C	2	1	803	1	poli_8sides 4_whiteLine3.jpg	MediumLong_e19_stereo_44KHz.wav
1	20	3	4	2	I	1	0	1054	0	poli_8sides 18_whiteLine3.jpg	Medium_e26_stereo_44KHz.wav
1	21	4	4	2	I	1	0	1356	0	poli_8sides 12_whiteLine3.jpg	Medium_e26_stereo_44KHz.wav
1	22	3	3	2	I	2	0	834	0	poli_8sides 18_whiteLine3.jpg	Medium_e01_cut1_stereo_44KHz.wav
1	23	1	1	1	C	2	0	1110	0	poli_8sides 6_whiteLine3.jpg	MediumLong_e19_stereo_44KHz.wav
1	24	2	2	1	C	2	0	752	0	poli_8sides 4_whiteLine3.jpg	MediumLong_e17_cut2_stereo_44KHz.wav
1	25	4	3	2	I	2	0	1331	1	poli_8sides 12_whiteLine3.jpg	Medium_e01_cut1_stereo_44KHz.wav
1	26	2	1	0	C	2	1	850	1	poli_8sides 4_whiteLine3.jpg	MediumLong_e19_stereo_44KHz.wav
1	27	3	3	2	I	2	0	836	1	poli_8sides 18_whiteLine3.jpg	Medium_e01_cut1_stereo_44KHz.wav
1	28	1	2	0	C	2	1	1026	1	poli_8sides 6_whiteLine3.jpg	MediumLong_e17_cut2_stereo_44KHz.wav
1	29	4	4	2	I	2	0	1034	1	poli_8sides 12_whiteLine3.jpg	Medium_e26_stereo_44KHz.wav
1	30	3	4	2	I	1	0	829	0	poli_8sides 18_whiteLine3.jpg	Medium_e26_stereo_44KHz.wav
1	31	1	1	1	C	2	0	1173	0	poli_8sides 6_whiteLine3.jpg	MediumLong_e19_stereo_44KHz.wav
1	32	2	2	1	C	2	0	795	0	poli_8sides 4_whiteLine3.jpg	MediumLong_e17_cut2_stereo_44KHz.wav
1	33	1	2	0	C	1	0	1061	0	poli_8sides 6_whiteLine3.jpg	MediumLong_e17_cut2_stereo_44KHz.wav
1	34	4	4	2	I	2	0	1018	0	poli_8sides 12_whiteLine3.jpg	Medium_e26_stereo_44KHz.wav
1	35	2	2	1	C	2	0	857	0	poli_8sides 4_whiteLine3.jpg	MediumLong_e17_cut2_stereo_44KHz.wav
1	36	3	4	2	I	1	0	1591	0	poli_8sides 18_whiteLine3.jpg	Medium_e26_stereo_44KHz.wav
1	37	4	3	2	I	2	0	864	0	poli_8sides 12_whiteLine3.jpg	Medium_e01_cut1_stereo_44KHz.wav
1	38	2	1	0	C	2	1	854	1	poli_8sides 4_whiteLine3.jpg	MediumLong_e19_stereo_44KHz.wav
1	39	3	3	2	I	2	0	923	1	poli_8sides 18_whiteLine3.jpg	Medium_e01_cut1_stereo_44KHz.wav
1	40	1	1	1	C	2	0	862	0	poli_8sides 6_whiteLine3.jpg	MediumLong_e19_stereo_44KHz.wav
1	41	2	2	1	C	2	0	1020	0	poli_8sides 4_whiteLine3.jpg	MediumLong_e17_cut2_stereo_44KHz.wav
1	42	3	3	2	I	2	0	778	1	poli_8sides 18_whiteLine3.jpg	Medium_e01_cut1_stereo_44KHz.wav
1	43	1	1	1	C	2	0	1443	0	poli_8sides 6_whiteLine3.jpg	MediumLong_e19_stereo_44KHz.wav
1	44	4	3	2	I	2	0	773	1	poli_8sides 12_whiteLine3.jpg	Medium_e01_cut1_stereo_44KHz.wav
1	45	1	2	0	C	1	0	783	0	poli_8sides 6_whiteLine3.jpg	MediumLong_e17_cut2_stereo_44KHz.wav
1	46	4	4	2	I	1	0	1122	1	poli_8sides 12_whiteLine3.jpg	Medium_e26_stereo_44KHz.wav
1	47	2	1	0	C	2	1	680	1	poli_8sides 4_whiteLine3.jpg	MediumLong_e19_stereo_44KHz.wav
1	48	3	4	2	I	1	0	879	1	poli_8sides 18_whiteLine3.jpg	Medium_e26_stereo_44KHz.wav
1	49	1	2	0	C	1	0	817	0	poli_8sides 6_whiteLine3.jpg	MediumLong_e17_cut2_stereo_44KHz.wav
1	50	3	4	2	I	1	0	1287	0	poli_8sides 18_whiteLine3.jpg	Medium_e26_stereo_44KHz.wav
1	51	4	4	2	I	1	0	1116	0	poli_8sides 12_whiteLine3.jpg	Medium_e26_stereo_44KHz.wav
1	52	2	1	0	C	2	1	583	1	poli_8sides 4_whiteLine3.jpg	MediumLong_e19_stereo_44KHz.wav
1	53	4	3	2	I	2	0	869	1	poli_8sides 12_whiteLine3.jpg	Medium_e01_cut1_stereo_44KHz.wav
1	54	2	2	1	C	1	1	947	1	poli_8sides 4_whiteLine3.jpg	MediumLong_e17_cut2_stereo_44KHz.wav
1	55	1	1	1	C	2	0	735	0	poli_8sides 6_whiteLine3.jpg	MediumLong_e19_stereo_44KHz.wav
1	56	3	3	2	I	2	0	713	0	poli_8sides 18_whiteLine3.jpg	Medium_e01_cut1_stereo_44KHz.wav
1	57	2	1	0	C	2	1	780	1	poli_8sides 4_whiteLine3.jpg	MediumLong_e19_stereo_44KHz.wav
1	58	3	4	2	I	1	0	1266	1	poli_8sides 18_whiteLine3.jpg	Medium_e26_stereo_44KHz.wav
1	59	4	3	2	I	2	0	705	1	poli_8sides 12_whiteLine3.jpg	Medium_e01_cut1_stereo_44KHz.wav
1	60	1	2	0	C	1	0	798	0	poli_8sides 6_whiteLine3.jpg	MediumLong_e17_cut2_stereo_44KHz.wav
1	61	3	3	2	I	1	0	779	1	poli_8sides 18_whiteLine3.jpg	Medium_e01_cut1_stereo_44KHz.wav
1	62	4	4	2	I	2	0	939	1	poli_8sides 12_whiteLine3.jpg	Medium_e26_stereo_44KHz.wav
1	63	2	2	1	C	2	0	842	0	poli_8sides 4_whiteLine3.jpg	MediumLong_e17_cut2_stereo_44KHz.wav
1	64	1	1	1	C	0	0	0	0	poli_8sides 6_whiteLine3.jpg	MediumLong_e19_stereo_44KHz.wav
1	65	3	3	2	I	2	0	803	1	poli_8sides 18_whiteLine3.jpg	Medium_e01_cut1_stereo_44KHz.wav
1	66	4	4	2	I	2	0	652	0	poli_8sides 12_whiteLine3.jpg	Medium_e26_stereo_44KHz.wav
1	67	1	1	1	C	1	1	1090	1	poli_8sides 6_whiteLine3.jpg	MediumLong_e19_stereo_44KHz.wav
1	68	2	2	1	C	1	1	1008	1	poli_8sides 4_whiteLine3.jpg	MediumLong_e17_cut2_stereo_44KHz.wav
1	69	3	4	2	I	2	0	591	1	poli_8sides 18_whiteLine3.jpg	Medium_e26_stereo_44KHz.wav
1	70	2	1	0	C	2	1	892	1	poli_8sides 4_whiteLine3.jpg	MediumLong_e19_stereo_44KHz.wav
1	71	1	2	0	C	2	1	889	1	poli_8sides 6_whiteLine3.jpg	MediumLong_e17_cut2_stereo_44KHz.wav
1	72	4	3	2	I	2	0	998	0	poli_8sides 12_whiteLine3.jpg	Medium_e01_cut1_stereo_44KHz.wav
1	73	3	4	2	I	2	0	805	1	poli_8sides 18_whiteLine3.jpg	Medium_e26_stereo_44KHz.wav
1	74	2	1	0	C	2	1	653	1	poli_8sides 4_whiteLine3.jpg	MediumLong_e19_stereo_44KHz.wav
1	75	4	4	2	I	2	0	934	1	poli_8sides 12_whiteLine3.jpg	Medium_e26_stereo_44KHz.wav
1	76	1	2	0	C	2	1	1069	1	poli_8sides 6_whiteLine3.jpg	MediumLong_e17_cut2_stereo_44KHz.wav
1	77	2	2	1	C	1	1	970	1	poli_8sides 4_whiteLine3.jpg	MediumLong_e17_cut2_stereo_44KHz.wav
1	78	1	1	1	C	2	0	855	0	poli_8sides 6_whiteLine3.jpg	MediumLong_e19_stereo_44KHz.wav
1	79	3	3	2	I	2	0	667	1	poli_8sides 18_whiteLine3.jpg	Medium_e01_cut1_stereo_44KHz.wav
1	80	4	3	2	I	1	0	726	0	poli_8sides 12_whiteLine3.jpg	Medium_e01_cut1_stereo_44KHz.wav
1	81	2	2	1	C	2	0	922	0	poli_8sides 4_whiteLine3.jpg	MediumLong_e17_cut2_stereo_44KHz.wav
1	82	4	4	2	I	2	0	905	1	poli_8sides 12_whiteLine3.jpg	Medium_e26_stereo_44KHz.wav
1	83	1	2	0	C	2	1	1234	1	poli_8sides 6_whiteLine3.jpg	MediumLong_e17_cut2_stereo_44KHz.wav
1	84	3	3	2	I	1	0	651	0	poli_8sides 18_whiteLine3.jpg	Medium_e01_cut1_stereo_44KHz.wav
1	85	4	3	2	I	2	0	774	0	poli_8sides 12_whiteLine3.jpg	Medium_e01_cut1_stereo_44KHz.wav
1	86	2	1	0	C	2	1	924	1	poli_8sides 4_whiteLine3.jpg	MediumLong_e19_stereo_44KHz.wav
1	87	3	4	2	I	1	0	1028	0	poli_8sides 18_whiteLine3.jpg	Medium_e26_stereo_44KHz.wav
1	88	1	1	1	C	2	0	800	0	poli_8sides 6_whiteLine3.jpg	MediumLong_e19_stereo_44KHz.wav
1	89	2	2	1	C	1	1	1135	1	poli_8sides 4_whiteLine3.jpg	MediumLong_e17_cut2_stereo_44KHz.wav
1	90	1	2	0	C	2	1	939	1	poli_8sides 6_whiteLine3.jpg	MediumLong_e17_cut2_stereo_44KHz.wav
1	91	4	3	2	I	2	0	935	1	poli_8sides 12_whiteLine3.jpg	Medium_e01_cut1_stereo_44KHz.wav
1	92	3	4	2	I	1	0	1051	0	poli_8sides 18_whiteLine3.jpg	Medium_e26_stereo_44KHz.wav
1	93	2	1	0	C	2	1	921	1	poli_8sides 4_whiteLine3.jpg	MediumLong_e19_stereo_44KHz.wav
1	94	1	1	1	C	2	0	864	0	poli_8sides 6_whiteLine3.jpg	MediumLong_e19_stereo_44KHz.wav
1	95	4	4	2	I	1	0	1349	0	poli_8sides 12_whiteLine3.jpg	Medium_e26_stereo_44KHz.wav
1	96	3	3	2	I	1	0	1275	1	poli_8sides 18_whiteLine3.jpg	Medium_e01_cut1_stereo_44KHz.wav
1	97	4	3	2	I	2	0	676	1	poli_8sides 12_whiteLine3.jpg	Medium_e01_cut1_stereo_44KHz.wav
1	98	1	1	1	C	1	1	1039	1	poli_8sides 6_whiteLine3.jpg	MediumLong_e19_stereo_44KHz.wav
1	99	3	4	2	I	1	0	807	1	poli_8sides 18_whiteLine3.jpg	Medium_e26_stereo_44KHz.wav
1	100	2	2	1	C	1	1	1301	1	poli_8sides 4_whiteLine3.jpg	MediumLong_e17_cut2_stereo_44KHz.wav
1	101	1	2	0	C	2	1	681	1	poli_8sides 6_whiteLine3.jpg	MediumLong_e17_cut2_stereo_44KHz.wav
1	102	2	1	0	C	2	1	774	1	poli_8sides 4_whiteLine3.jpg	MediumLong_e19_stereo_44KHz.wav
1	103	4	4	2	I	2	0	982	1	poli_8sides 12_whiteLine3.jpg	Medium_e26_stereo_44KHz.wav
1	104	3	3	2	I	1	0	850	1	poli_8sides 18_whiteLine3.jpg	Medium_e01_cut1_stereo_44KHz.wav
1	105	2	2	1	C	1	1	1096	1	poli_8sides 4_whiteLine3.jpg	MediumLong_e17_cut2_stereo_44KHz.wav
1	106	1	1	1	C	1	1	1011	1	poli_8sides 6_whiteLine3.jpg	MediumLong_e19_stereo_44KHz.wav
1	107	3	3	2	I	2	0	839	0	poli_8sides 18_whiteLine3.jpg	Medium_e01_cut1_stereo_44KHz.wav
1	108	4	3	2	I	2	0	678	0	poli_8sides 12_whiteLine3.jpg	Medium_e01_cut1_stereo_44KHz.wav
1	109	3	4	2	I	2	0	1053	0	poli_8sides 18_whiteLine3.jpg	Medium_e26_stereo_44KHz.wav
1	110	2	1	0	C	2	1	1061	1	poli_8sides 4_whiteLine3.jpg	MediumLong_e19_stereo_44KHz.wav
1	111	4	4	2	I	1	0	1062	0	poli_8sides 12_whiteLine3.jpg	Medium_e26_stereo_44KHz.wav
1	112	1	2	0	C	1	0	1362	0	poli_8sides 6_whiteLine3.jpg	MediumLong_e17_cut2_stereo_44KHz.wav
1	113	2	1	0	C	2	1	1213	1	poli_8sides 4_whiteLine3.jpg	MediumLong_e19_stereo_44KHz.wav
1	114	3	4	2	I	1	0	820	1	poli_8sides 18_whiteLine3.jpg	Medium_e26_stereo_44KHz.wav
1	115	4	3	2	I	2	0	959	0	poli_8sides 12_whiteLine3.jpg	Medium_e01_cut1_stereo_44KHz.wav
1	116	1	2	0	C	2	1	1063	1	poli_8sides 6_whiteLine3.jpg	MediumLong_e17_cut2_stereo_44KHz.wav
1	117	4	4	2	I	1	0	992	0	poli_8sides 12_whiteLine3.jpg	Medium_e26_stereo_44KHz.wav
1	118	1	1	1	C	2	0	957	0	poli_8sides 6_whiteLine3.jpg	MediumLong_e19_stereo_44KHz.wav
1	119	2	2	1	C	1	1	1324	1	poli_8sides 4_whiteLine3.jpg	MediumLong_e17_cut2_stereo_44KHz.wav
1	120	3	3	2	I	2	0	792	0	poli_8sides 18_whiteLine3.jpg	Medium_e01_cut1_stereo_44KHz.wav
1	121	1	1	1	C	2	0	792	0	poli_8sides 6_whiteLine3.jpg	MediumLong_e19_stereo_44KHz.wav
1	122	4	3	2	I	2	0	809	0	poli_8sides 12_whiteLine3.jpg	Medium_e01_cut1_stereo_44KHz.wav
1	123	2	1	0	C	2	1	1172	1	poli_8sides 4_whiteLine3.jpg	MediumLong_e19_stereo_44KHz.wav
1	124	3	4	2	I	1	0	837	0	poli_8sides 18_whiteLine3.jpg	Medium_e26_stereo_44KHz.wav
1	125	4	4	2	I	2	0	700	0	poli_8sides 12_whiteLine3.jpg	Medium_e26_stereo_44KHz.wav
1	126	3	3	2	I	1	0	867	0	poli_8sides 18_whiteLine3.jpg	Medium_e01_cut1_stereo_44KHz.wav
1	127	2	2	1	C	1	1	1043	1	poli_8sides 4_whiteLine3.jpg	MediumLong_e17_cut2_stereo_44KHz.wav
1	128	1	2	0	C	2	1	839	1	poli_8sides 6_whiteLine3.jpg	MediumLong_e17_cut2_stereo_44KHz.wav
1	129	4	4	2	I	2	0	1098	1	poli_8sides 12_whiteLine3.jpg	Medium_e26_stereo_44KHz.wav
1	130	3	3	2	I	2	0	829	1	poli_8sides 18_whiteLine3.jpg	Medium_e01_cut1_stereo_44KHz.wav
1	131	1	2	0	C	2	1	1122	1	poli_8sides 6_whiteLine3.jpg	MediumLong_e17_cut2_stereo_44KHz.wav
1	132	2	2	1	C	1	1	707	1	poli_8sides 4_whiteLine3.jpg	MediumLong_e17_cut2_stereo_44KHz.wav
1	133	4	3	2	I	1	0	1102	1	poli_8sides 12_whiteLine3.jpg	Medium_e01_cut1_stereo_44KHz.wav
1	134	3	4	2	I	1	0	845	0	poli_8sides 18_whiteLine3.jpg	Medium_e26_stereo_44KHz.wav
1	135	1	1	1	C	2	0	785	0	poli_8sides 6_whiteLine3.jpg	MediumLong_e19_stereo_44KHz.wav
1	136	2	1	0	C	2	1	635	1	poli_8sides 4_whiteLine3.jpg	MediumLong_e19_stereo_44KHz.wav
1	137	3	4	2	I	1	0	615	0	poli_8sides 18_whiteLine3.jpg	Medium_e26_stereo_44KHz.wav
1	138	1	2	0	C	2	1	718	1	poli_8sides 6_whiteLine3.jpg	MediumLong_e17_cut2_stereo_44KHz.wav
1	139	2	2	1	C	1	1	726	1	poli_8sides 4_whiteLine3.jpg	MediumLong_e17_cut2_stereo_44KHz.wav
1	140	4	3	2	I	1	0	1020	0	poli_8sides 12_whiteLine3.jpg	Medium_e01_cut1_stereo_44KHz.wav
1	141	1	1	1	C	1	1	867	1	poli_8sides 6_whiteLine3.jpg	MediumLong_e19_stereo_44KHz.wav
1	142	3	3	2	I	1	0	688	0	poli_8sides 18_whiteLine3.jpg	Medium_e01_cut1_stereo_44KHz.wav
1	143	4	4	2	I	1	0	699	1	poli_8sides 12_whiteLine3.jpg	Medium_e26_stereo_44KHz.wav
1	144	2	1	0	C	0	0	0	0	poli_8sides 4_whiteLine3.jpg	MediumLong_e19_stereo_44KHz.wav
1	145	4	4	2	I	0	0	0	0	poli_8sides 12_whiteLine3.jpg	Medium_e26_stereo_44KHz.wav
1	146	3	4	2	I	2	0	915	0	poli_8sides 18_whiteLine3.jpg	Medium_e26_stereo_44KHz.wav
1	147	2	1	0	C	1	0	911	0	poli_8sides 4_whiteLine3.jpg	MediumLong_e19_stereo_44KHz.wav
1	148	1	2	0	C	1	0	679	0	poli_8sides 6_whiteLine3.jpg	MediumLong_e17_cut2_stereo_44KHz.wav
1	149	3	3	2	I	2	0	661	1	poli_8sides 18_whiteLine3.jpg	Medium_e01_cut1_stereo_44KHz.wav
1	150	1	1	1	C	2	0	606	0	poli_8sides 6_whiteLine3.jpg	MediumLong_e19_stereo_44KHz.wav
1	151	2	2	1	C	1	1	674	1	poli_8sides 4_whiteLine3.jpg	MediumLong_e17_cut2_stereo_44KHz.wav
1	152	4	3	2	I	2	0	742	0	poli_8sides 12_whiteLine3.jpg	Medium_e01_cut1_stereo_44KHz.wav
1	153	1	1	1	C	2	0	816	0	poli_8sides 6_whiteLine3.jpg	MediumLong_e19_stereo_44KHz.wav
1	154	4	3	2	I	2	0	701	0	poli_8sides 12_whiteLine3.jpg	Medium_e01_cut1_stereo_44KHz.wav
1	155	3	3	2	I	2	0	640	0	poli_8sides 18_whiteLine3.jpg	Medium_e01_cut1_stereo_44KHz.wav
1	156	2	1	0	C	1	0	581	0	poli_8sides 4_whiteLine3.jpg	MediumLong_e19_stereo_44KHz.wav
1	157	4	4	2	I	2	0	1038	1	poli_8sides 12_whiteLine3.jpg	Medium_e26_stereo_44KHz.wav
1	158	1	2	0	C	2	1	963	1	poli_8sides 6_whiteLine3.jpg	MediumLong_e17_cut2_stereo_44KHz.wav
1	159	2	2	1	C	1	1	1082	1	poli_8sides 4_whiteLine3.jpg	MediumLong_e17_cut2_stereo_44KHz.wav
1	160	3	4	2	I	2	0	1094	1	poli_8sides 18_whiteLine3.jpg	Medium_e26_stereo_44KHz.wav
1	161	1	1	1	C	2	0	937	0	poli_8sides 6_whiteLine3.jpg	MediumLong_e19_stereo_44KHz.wav
1	162	4	3	2	I	2	0	973	0	poli_8sides 12_whiteLine3.jpg	Medium_e01_cut1_stereo_44KHz.wav
1	163	2	1	0	C	2	1	902	1	poli_8sides 4_whiteLine3.jpg	MediumLong_e19_stereo_44KHz.wav
1	164	3	3	2	I	2	0	949	0	poli_8sides 18_whiteLine3.jpg	Medium_e01_cut1_stereo_44KHz.wav
1	165	4	4	2	I	1	0	1127	1	poli_8sides 12_whiteLine3.jpg	Medium_e26_stereo_44KHz.wav
1	166	2	2	1	C	1	1	962	1	poli_8sides 4_whiteLine3.jpg	MediumLong_e17_cut2_stereo_44KHz.wav
1	167	1	2	0	C	1	0	918	0	poli_8sides 6_whiteLine3.jpg	MediumLong_e17_cut2_stereo_44KHz.wav
1	168	3	4	2	I	2	0	704	1	poli_8sides 18_whiteLine3.jpg	Medium_e26_stereo_44KHz.wav
1	169	1	2	0	C	2	1	1067	1	poli_8sides 6_whiteLine3.jpg	MediumLong_e17_cut2_stereo_44KHz.wav
1	170	3	4	2	I	2	0	719	1	poli_8sides 18_whiteLine3.jpg	Medium_e26_stereo_44KHz.wav
1	171	2	1	0	C	2	1	901	1	poli_8sides 4_whiteLine3.jpg	MediumLong_e19_stereo_44KHz.wav
1	172	4	4	2	I	2	0	855	0	poli_8sides 12_whiteLine3.jpg	Medium_e26_stereo_44KHz.wav
1	173	2	2	1	C	1	1	865	1	poli_8sides 4_whiteLine3.jpg	MediumLong_e17_cut2_stereo_44KHz.wav
1	174	1	1	1	C	2	0	773	0	poli_8sides 6_whiteLine3.jpg	MediumLong_e19_stereo_44KHz.wav
1	175	3	3	2	I	1	0	776	1	poli_8sides 18_whiteLine3.jpg	Medium_e01_cut1_stereo_44KHz.wav
1	176	4	3	2	I	2	0	618	1	poli_8sides 12_whiteLine3.jpg	Medium_e01_cut1_stereo_44KHz.wav
1	177	3	4	2	I	1	0	720	0	poli_8sides 18_whiteLine3.jpg	Medium_e26_stereo_44KHz.wav
1	178	2	1	0	C	2	1	826	1	poli_8sides 4_whiteLine3.jpg	MediumLong_e19_stereo_44KHz.wav
1	179	4	4	2	I	2	0	791	0	poli_8sides 12_whiteLine3.jpg	Medium_e26_stereo_44KHz.wav
1	180	1	2	0	C	2	1	891	1	poli_8sides 6_whiteLine3.jpg	MediumLong_e17_cut2_stereo_44KHz.wav
1	181	3	3	2	I	2	0	734	1	poli_8sides 18_whiteLine3.jpg	Medium_e01_cut1_stereo_44KHz.wav
1	182	1	1	1	C	2	0	864	0	poli_8sides 6_whiteLine3.jpg	MediumLong_e19_stereo_44KHz.wav
1	183	2	2	1	C	1	1	994	1	poli_8sides 4_whiteLine3.jpg	MediumLong_e17_cut2_stereo_44KHz.wav
1	184	4	3	2	I	2	0	644	1	poli_8sides 12_whiteLine3.jpg	Medium_e01_cut1_stereo_44KHz.wav
1	185	3	3	2	I	1	0	968	1	poli_8sides 18_whiteLine3.jpg	Medium_e01_cut1_stereo_44KHz.wav
1	186	1	1	1	C	2	0	1010	0	poli_8sides 6_whiteLine3.jpg	MediumLong_e19_stereo_44KHz.wav
1	187	2	2	1	C	1	1	655	1	poli_8sides 4_whiteLine3.jpg	MediumLong_e17_cut2_stereo_44KHz.wav
1	188	4	3	2	I	2	0	679	0	poli_8sides 12_whiteLine3.jpg	Medium_e01_cut1_stereo_44KHz.wav
1	189	3	4	2	I	2	0	708	0	poli_8sides 18_whiteLine3.jpg	Medium_e26_stereo_44KHz.wav
1	190	2	1	0	C	2	1	1052	1	poli_8sides 4_whiteLine3.jpg	MediumLong_e19_stereo_44KHz.wav
1	191	4	4	2	I	2	0	700	1	poli_8sides 12_whiteLine3.jpg	Medium_e26_stereo_44KHz.wav
1	192	1	2	0	C	2	1	664	1	poli_8sides 6_whiteLine3.jpg	MediumLong_e17_cut2_stereo_44KHz.wav
1	193	4	4	2	I	2	0	860	0	poli_8sides 12_whiteLine3.jpg	Medium_e26_stereo_44KHz.wav
1	194	1	2	0	C	2	1	786	1	poli_8sides 6_whiteLine3.jpg	MediumLong_e17_cut2_stereo_44KHz.wav
1	195	2	1	0	C	2	1	759	1	poli_8sides 4_whiteLine3.jpg	MediumLong_e19_stereo_44KHz.wav
1	196	3	3	2	I	1	0	543	1	poli_8sides 18_whiteLine3.jpg	Medium_e01_cut1_stereo_44KHz.wav
1	197	1	1	1	C	2	0	976	0	poli_8sides 6_whiteLine3.jpg	MediumLong_e19_stereo_44KHz.wav
1	198	2	2	1	C	1	1	1213	1	poli_8sides 4_whiteLine3.jpg	MediumLong_e17_cut2_stereo_44KHz.wav
1	199	3	4	2	I	1	0	717	0	poli_8sides 18_whiteLine3.jpg	Medium_e26_stereo_44KHz.wav
1	200	4	3	2	I	2	0	646	1	poli_8sides 12_whiteLine3.jpg	Medium_e01_cut1_stereo_44KHz.wav
2	1	3	4	2	I	0	0	0	0	poli_8sides 13_whiteLine3.jpg	Short_b09_cut1_stereo_44KHz.wav
2	2	1	2	0	C	2	1	519	1	poli_8sides 10_whiteLine3.jpg	Short_b20_cut1_stereo_44KHz.wav
2	3	4	4	2	I	1	0	972	0	poli_8sides 5_whiteLine3.jpg	Short_b09_cut1_stereo_44KHz.wav
2	4	2	1	0	C	1	0	757	0	poli_8sides 11_whiteLine3.jpg	Short_b23_cut1_stereo_44KHz.wav
2	5	4	3	2	I	2	0	941	1	poli_8sides 5_whiteLine3.jpg	Short_b22_cut1_stereo_44KHz.wav
2	6	2	2	1	C	2	0	640	0	poli_8sides 11_whiteLine3.jpg	Short_b20_cut1_stereo_44KHz.wav
2	7	3	3	2	I	2	0	505	1	poli_8sides 13_whiteLine3.jpg	Short_b22_cut1_stereo_44KHz.wav
2	8	1	1	1	C	2	0	481	0	poli_8sides 10_whiteLine3.jpg	Short_b23_cut1_stereo_44KHz.wav
2	9	3	4	2	I	2	0	478	0	poli_8sides 13_whiteLine3.jpg	Short_b09_cut1_stereo_44KHz.wav
2	10	4	3	2	I	2	0	709	1	poli_8sides 5_whiteLine3.jpg	Short_b22_cut1_stereo_44KHz.wav
2	11	2	2	1	C	2	0	710	0	poli_8sides 11_whiteLine3.jpg	Short_b20_cut1_stereo_44KHz.wav
2	12	1	1	1	C	2	0	581	0	poli_8sides 10_whiteLine3.jpg	Short_b23_cut1_stereo_44KHz.wav
2	13	4	4	2	I	1	0	908	0	poli_8sides 5_whiteLine3.jpg	Short_b09_cut1_stereo_44KHz.wav
2	14	2	1	0	C	2	1	565	1	poli_8sides 11_whiteLine3.jpg	Short_b23_cut1_stereo_44KHz.wav
2	15	1	2	0	C	2	1	571	1	poli_8sides 10_whiteLine3.jpg	Short_b20_cut1_stereo_44KHz.wav
2	16	3	3	2	I	2	0	815	1	poli_8sides 13_whiteLine3.jpg	Short_b22_cut1_stereo_44KHz.wav
2	17	1	2	0	C	2	1	629	1	poli_8sides 10_whiteLine3.jpg	Short_b20_cut1_stereo_44KHz.wav
2	18	2	1	0	C	2	1	748	1	poli_8sides 11_whiteLine3.jpg	Short_b23_cut1_stereo_44KHz.wav
2	19	4	3	2	I	2	0	627	0	poli_8sides 5_whiteLine3.jpg	Short_b22_cut1_stereo_44KHz.wav
2	20	3	3	2	I	2	0	722	0	poli_8sides 13_whiteLine3.jpg	Short_b22_cut1_stereo_44KHz.wav
2	21	1	1	1	C	1	1	811	1	poli_8sides 10_whiteLine3.jpg	Short_b23_cut1_stereo_44KHz.wav
2	22	3	4	2	I	2	0	663	1	poli_8sides 13_whiteLine3.jpg	Short_b09_cut1_stereo_44KHz.wav
2	23	4	4	2	I	1	0	710	1	poli_8sides 5_whiteLine3.jpg	Short_b09_cut1_stereo_44KHz.wav
2	24	2	2	1	C	2	0	611	0	poli_8sides 11_whiteLine3.jpg	Short_b20_cut1_stereo_44KHz.wav
2	25	3	4	2	I	2	0	1017	1	poli_8sides 13_whiteLine3.jpg	Short_b09_cut1_stereo_44KHz.wav
2	26	4	3	2	I	2	0	796	1	poli_8sides 5_whiteLine3.jpg	Short_b22_cut1_stereo_44KHz.wav
2	27	2	1	0	C	1	0	761	0	poli_8sides 11_whiteLine3.jpg	Short_b23_cut1_stereo_44KHz.wav
2	28	1	2	0	C	2	1	695	1	poli_8sides 10_whiteLine3.jpg	Short_b20_cut1_stereo_44KHz.wav
2	29	4	4	2	I	1	0	905	0	poli_8sides 5_whiteLine3.jpg	Short_b09_cut1_stereo_44KHz.wav
2	30	2	2	1	C	1	1	881	1	poli_8sides 11_whiteLine3.jpg	Short_b20_cut1_stereo_44KHz.wav
2	31	1	1	1	C	1	1	842	1	poli_8sides 10_whiteLine3.jpg	Short_b23_cut1_stereo_44KHz.wav
2	32	3	3	2	I	1	0	841	0	poli_8sides 13_whiteLine3.jpg	Short_b22_cut1_stereo_44KHz.wav
2	33	2	2	1	C	1	1	838	1	poli_8sides 11_whiteLine3.jpg	Short_b20_cut1_stereo_44KHz.wav
2	34	4	4	2	I	1	0	902	1	poli_8sides 5_whiteLine3.jpg	Short_b09_cut1_stereo_44KHz.wav
2	35	3	3	2	I	2	0	818	0	poli_8sides 13_whiteLine3.jpg	Short_b22_cut1_stereo_44KHz.wav
2	36	1	1	1	C	1	1	833	1	poli_8sides 10_whiteLine3.jpg	Short_b23_cut1_stereo_44KHz.wav
2	37	3	4	2	I	1	0	1093	0	poli_8sides 13_whiteLine3.jpg	Short_b09_cut1_stereo_44KHz.wav
2	38	4	3	2	I	2	0	588	0	poli_8sides 5_whiteLine3.jpg	Short_b22_cut1_stereo_44KHz.wav
2	39	1	2	0	C	2	1	846	1	poli_8sides 10_whiteLine3.jpg	Short_b20_cut1_stereo_44KHz.wav
2	40	2	1	0	C	1	0	960	0	poli_8sides 11_whiteLine3.jpg	Short_b23_cut1_stereo_44KHz.wav
2	41	3	4	2	I	1	0	719	1	poli_8sides 13_whiteLine3.jpg	Short_b09_cut1_stereo_44KHz.wav
2	42	2	2	1	C	1	1	1214	1	poli_8sides 11_whiteLine3.jpg	Short_b20_cut1_stereo_44KHz.wav
2	43	1	1	1	C	1	1	818	1	poli_8sides 10_whiteLine3.jpg	Short_b23_cut1_stereo_44KHz.wav
2	44	4	4	2	I	2	0	693	1	poli_8sides 5_whiteLine3.jpg	Short_b09_cut1_stereo_44KHz.wav
2	45	1	2	0	C	2	1	730	1	poli_8sides 10_whiteLine3.jpg	Short_b20_cut1_stereo_44KHz.wav
2	46	2	1	0	C	2	1	759	1	poli_8sides 11_whiteLine3.jpg	Short_b23_cut1_stereo_44KHz.wav
2	47	4	3	2	I	2	0	1099	1	poli_8sides 5_whiteLine3.jpg	Short_b22_cut1_stereo_44KHz.wav
2	48	3	3	2	I	1	0	804	1	poli_8sides 13_whiteLine3.jpg	Short_b22_cut1_stereo_44KHz.wav
2	49	2	2	1	C	1	1	912	1	poli_8sides 11_whiteLine3.jpg	Short_b20_cut1_stereo_44KHz.wav
2	50	3	4	2	I	1	0	771	0	poli_8sides 13_whiteLine3.jpg	Short_b09_cut1_stereo_44KHz.wav
2	51	4	4	2	I	2	0	837	0	poli_8sides 5_whiteLine3.jpg	Short_b09_cut1_stereo_44KHz.wav
2	52	1	1	1	C	1	1	786	1	poli_8sides 10_whiteLine3.jpg	Short_b23_cut1_stereo_44KHz.wav
2	53	2	1	0	C	1	0	821	0	poli_8sides 11_whiteLine3.jpg	Short_b23_cut1_stereo_44KHz.wav
2	54	4	3	2	I	2	0	638	1	poli_8sides 5_whiteLine3.jpg	Short_b22_cut1_stereo_44KHz.wav
2	55	1	2	0	C	2	1	674	1	poli_8sides 10_whiteLine3.jpg	Short_b20_cut1_stereo_44KHz.wav
2	56	3	3	2	I	2	0	798	1	poli_8sides 13_whiteLine3.jpg	Short_b22_cut1_stereo_44KHz.wav
2	57	4	4	2	I	1	0	1045	0	poli_8sides 5_whiteLine3.jpg	Short_b09_cut1_stereo_44KHz.wav
2	58	3	4	2	I	1	0	858	1	poli_8sides 13_whiteLine3.jpg	Short_b09_cut1_stereo_44KHz.wav
2	59	2	1	0	C	2	1	757	1	poli_8sides 11_whiteLine3.jpg	Short_b23_cut1_stereo_44KHz.wav
2	60	1	2	0	C	2	1	583	1	poli_8sides 10_whiteLine3.jpg	Short_b20_cut1_stereo_44KHz.wav
2	61	2	2	1	C	1	1	1032	1	poli_8sides 11_whiteLine3.jpg	Short_b20_cut1_stereo_44KHz.wav
2	62	3	3	2	I	2	0	1043	1	poli_8sides 13_whiteLine3.jpg	Short_b22_cut1_stereo_44KHz.wav
2	63	4	3	2	I	2	0	670	0	poli_8sides 5_whiteLine3.jpg	Short_b22_cut1_stereo_44KHz.wav
2	64	1	1	1	C	1	1	769	1	poli_8sides 10_whiteLine3.jpg	Short_b23_cut1_stereo_44KHz.wav
2	65	2	2	1	C	1	1	765	1	poli_8sides 11_whiteLine3.jpg	Short_b20_cut1_stereo_44KHz.wav
2	66	1	1	1	C	1	1	730	1	poli_8sides 10_whiteLine3.jpg	Short_b23_cut1_stereo_44KHz.wav
2	67	4	3	2	I	1	0	1085	0	poli_8sides 5_whiteLine3.jpg	Short_b22_cut1_stereo_44KHz.wav
2	68	3	4	2	I	1	0	744	1	poli_8sides 13_whiteLine3.jpg	Short_b09_cut1_stereo_44KHz.wav
2	69	1	2	0	C	2	1	573	1	poli_8sides 10_whiteLine3.jpg	Short_b20_cut1_stereo_44KHz.wav
2	70	2	1	0	C	2	1	1140	1	poli_8sides 11_whiteLine3.jpg	Short_b23_cut1_stereo_44KHz.wav
2	71	3	3	2	I	1	0	994	1	poli_8sides 13_whiteLine3.jpg	Short_b22_cut1_stereo_44KHz.wav
2	72	4	4	2	I	1	0	1110	0	poli_8sides 5_whiteLine3.jpg	Short_b09_cut1_stereo_44KHz.wav
2	73	2	1	0	C	2	1	895	1	poli_8sides 11_whiteLine3.jpg	Short_b23_cut1_stereo_44KHz.wav
2	74	3	4	2	I	1	0	708	0	poli_8sides 13_whiteLine3.jpg	Short_b09_cut1_stereo_44KHz.wav
2	75	4	4	2	I	1	0	846	0	poli_8sides 5_whiteLine3.jpg	Short_b09_cut1_stereo_44KHz.wav
2	76	1	2	0	C	2	1	677	1	poli_8sides 10_whiteLine3.jpg	Short_b20_cut1_stereo_44KHz.wav
2	77	3	3	2	I	1	0	770	0	poli_8sides 13_whiteLine3.jpg	Short_b22_cut1_stereo_44KHz.wav
2	78	1	1	1	C	1	1	845	1	poli_8sides 10_whiteLine3.jpg	Short_b23_cut1_stereo_44KHz.wav
2	79	4	3	2	I	1	0	795	0	poli_8sides 5_whiteLine3.jpg	Short_b22_cut1_stereo_44KHz.wav
2	80	2	2	1	C	1	1	1065	1	poli_8sides 11_whiteLine3.jpg	Short_b20_cut1_stereo_44KHz.wav
2	81	4	4	2	I	2	0	517	1	poli_8sides 5_whiteLine3.jpg	Short_b09_cut1_stereo_44KHz.wav
2	82	3	3	2	I	2	0	602	1	poli_8sides 13_whiteLine3.jpg	Short_b22_cut1_stereo_44KHz.wav
2	83	1	2	0	C	1	0	594	0	poli_8sides 10_whiteLine3.jpg	Short_b20_cut1_stereo_44KHz.wav
2	84	2	1	0	C	2	1	1375	1	poli_8sides 11_whiteLine3.jpg	Short_b23_cut1_stereo_44KHz.wav
2	85	3	4	2	I	2	0	589	1	poli_8sides 13_whiteLine3.jpg	Short_b09_cut1_stereo_44KHz.wav
2	86	2	2	1	C	1	1	1909	1	poli_8sides 11_whiteLine3.jpg	Short_b20_cut1_stereo_44KHz.wav
2	87	1	1	1	C	1	1	732	1	poli_8sides 10_whiteLine3.jpg	Short_b23_cut1_stereo_44KHz.wav
2	88	4	3	2	I	2	0	592	0	poli_8sides 5_whiteLine3.jpg	Short_b22_cut1_stereo_44KHz.wav
2	89	1	1	1	C	1	1	686	1	poli_8sides 10_whiteLine3.jpg	Short_b23_cut1_stereo_44KHz.wav
2	90	3	4	2	I	2	0	843	0	poli_8sides 13_whiteLine3.jpg	Short_b09_cut1_stereo_44KHz.wav
2	91	2	2	1	C	1	1	827	1	poli_8sides 11_whiteLine3.jpg	Short_b20_cut1_stereo_44KHz.wav
2	92	4	4	2	I	2	0	817	1	poli_8sides 5_whiteLine3.jpg	Short_b09_cut1_stereo_44KHz.wav
2	93	2	1	0	C	2	1	786	1	poli_8sides 11_whiteLine3.jpg	Short_b23_cut1_stereo_44KHz.wav
2	94	1	2	0	C	2	1	626	1	poli_8sides 10_whiteLine3.jpg	Short_b20_cut1_stereo_44KHz.wav
2	95	3	3	2	I	1	0	1314	0	poli_8sides 13_whiteLine3.jpg	Short_b22_cut1_stereo_44KHz.wav
2	96	4	3	2	I	2	0	716	1	poli_8sides 5_whiteLine3.jpg	Short_b22_cut1_stereo_44KHz.wav
2	97	1	1	1	C	1	1	817	1	poli_8sides 10_whiteLine3.jpg	Short_b23_cut1_stereo_44KHz.wav
2	98	3	4	2	I	2	0	784	1	poli_8sides 13_whiteLine3.jpg	Short_b09_cut1_stereo_44KHz.wav
2	99	2	2	1	C	1	1	957	1	poli_8sides 11_whiteLine3.jpg	Short_b20_cut1_stereo_44KHz.wav
2	100	4	4	2	I	2	0	784	1	poli_8sides 5_whiteLine3.jpg	Short_b09_cut1_stereo_44KHz.wav
2	101	1	2	0	C	2	1	749	1	poli_8sides 10_whiteLine3.jpg	Short_b20_cut1_stereo_44KHz.wav
2	102	3	3	2	I	2	0	691	0	poli_8sides 13_whiteLine3.jpg	Short_b22_cut1_stereo_44KHz.wav
2	103	4	3	2	I	2	0	717	0	poli_8sides 5_whiteLine3.jpg	Short_b22_cut1_stereo_44KHz.wav
2	104	2	1	0	C	2	1	817	1	poli_8sides 11_whiteLine3.jpg	Short_b23_cut1_stereo_44KHz.wav
2	105	3	3	2	I	2	0	756	1	poli_8sides 13_whiteLine3.jpg	Short_b22_cut1_stereo_44KHz.wav
2	106	4	4	2	I	2	0	564	1	poli_8sides 5_whiteLine3.jpg	Short_b09_cut1_stereo_44KHz.wav
2	107	1	1	1	C	1	1	984	1	poli_8sides 10_whiteLine3.jpg	Short_b23_cut1_stereo_44KHz.wav
2	108	2	2	1	C	1	1	1055	1	poli_8sides 11_whiteLine3.jpg	Short_b20_cut1_stereo_44KHz.wav
2	109	1	2	0	C	2	1	899	1	poli_8sides 10_whiteLine3.jpg	Short_b20_cut1_stereo_44KHz.wav
2	110	4	3	2	I	2	0	797	1	poli_8sides 5_whiteLine3.jpg	Short_b22_cut1_stereo_44KHz.wav
2	111	2	1	0	C	2	1	789	1	poli_8sides 11_whiteLine3.jpg	Short_b23_cut1_stereo_44KHz.wav
2	112	3	4	2	I	2	0	1049	1	poli_8sides 13_whiteLine3.jpg	Short_b09_cut1_stereo_44KHz.wav
2	113	1	1	1	C	1	1	864	1	poli_8sides 10_whiteLine3.jpg	Short_b23_cut1_stereo_44KHz.wav
2	114	3	3	2	I	2	0	693	0	poli_8sides 13_whiteLine3.jpg	Short_b22_cut1_stereo_44KHz.wav
2	115	4	3	2	I	2	0	670	0	poli_8sides 5_whiteLine3.jpg	Short_b22_cut1_stereo_44KHz.wav
2	116	2	1	0	C	2	1	843	1	poli_8sides 11_whiteLine3.jpg	Short_b23_cut1_stereo_44KHz.wav
2	117	3	4	2	I	2	0	720	1	poli_8sides 13_whiteLine3.jpg	Short_b09_cut1_stereo_44KHz.wav
2	118	4	4	2	I	2	0	476	0	poli_8sides 5_whiteLine3.jpg	Short_b09_cut1_stereo_44KHz.wav
2	119	2	2	1	C	1	1	1317	1	poli_8sides 11_whiteLine3.jpg	Short_b20_cut1_stereo_44KHz.wav
2	120	1	2	0	C	2	1	949	1	poli_8sides 10_whiteLine3.jpg	Short_b20_cut1_stereo_44KHz.wav
2	121	2	2	1	C	1	1	907	1	poli_8sides 11_whiteLine3.jpg	Short_b20_cut1_stereo_44KHz.wav
2	122	1	1	1	C	1	1	877	1	poli_8sides 10_whiteLine3.jpg	Short_b23_cut1_stereo_44KHz.wav
2	123	3	4	2	I	2	0	920	0	poli_8sides 13_whiteLine3.jpg	Short_b09_cut1_stereo_44KHz.wav
2	124	4	3	2	I	1	0	914	1	poli_8sides 5_whiteLine3.jpg	Short_b22_cut1_stereo_44KHz.wav
2	125	1	2	0	C	1	0	947	0	poli_8sides 10_whiteLine3.jpg	Short_b20_cut1_stereo_44KHz.wav
2	126	3	3	2	I	1	0	1014	0	poli_8sides 13_whiteLine3.jpg	Short_b22_cut1_stereo_44KHz.wav
2	127	2	1	0	C	2	1	1030	1	poli_8sides 11_whiteLine3.jpg	Short_b23_cut1_stereo_44KHz.wav
2	128	4	4	2	I	2	0	1158	1	poli_8sides 5_whiteLine3.jpg	Short_b09_cut1_stereo_44KHz.wav
2	129	3	3	2	I	2	0	1462	1	poli_8sides 13_whiteLine3.jpg	Short_b22_cut1_stereo_44KHz.wav
2	130	1	1	1	C	1	1	808	1	poli_8sides 10_whiteLine3.jpg	Short_b23_cut1_stereo_44KHz.wav
2	131	4	4	2	I	2	0	824	1	poli_8sides 5_whiteLine3.jpg	Short_b09_cut1_stereo_44KHz.wav
2	132	2	1	0	C	2	1	683	1	poli_8sides 11_whiteLine3.jpg	Short_b23_cut1_stereo_44KHz.wav
2	133	3	4	2	I	2	0	931	0	poli_8sides 13_whiteLine3.jpg	Short_b09_cut1_stereo_44KHz.wav
2	134	1	2	0	C	2	1	818	1	poli_8sides 10_whiteLine3.jpg	Short_b20_cut1_stereo_44KHz.wav
2	135	2	2	1	C	1	1	1265	1	poli_8sides 11_whiteLine3.jpg	Short_b20_cut1_stereo_44KHz.wav
2	136	4	3	2	I	2	0	833	1	poli_8sides 5_whiteLine3.jpg	Short_b22_cut1_stereo_44KHz.wav
2	137	1	1	1	C	1	1	1002	1	poli_8sides 10_whiteLine3.jpg	Short_b23_cut1_stereo_44KHz.wav
2	138	3	4	2	I	2	0	1307	1	poli_8sides 13_whiteLine3.jpg	Short_b09_cut1_stereo_44KHz.wav
2	139	4	4	2	I	1	0	918	1	poli_8sides 5_whiteLine3.jpg	Short_b09_cut1_stereo_44KHz.wav
2	140	2	1	0	C	2	1	1142	1	poli_8sides 11_whiteLine3.jpg	Short_b23_cut1_stereo_44KHz.wav
2	141	1	2	0	C	2	1	828	1	poli_8sides 10_whiteLine3.jpg	Short_b20_cut1_stereo_44KHz.wav
2	142	4	3	2	I	2	0	1038	0	poli_8sides 5_whiteLine3.jpg	Short_b22_cut1_stereo_44KHz.wav
2	143	3	3	2	I	2	0	878	0	poli_8sides 13_whiteLine3.jpg	Short_b22_cut1_stereo_44KHz.wav
2	144	2	2	1	C	1	1	905	1	poli_8sides 11_whiteLine3.jpg	Short_b20_cut1_stereo_44KHz.wav
2	145	4	3	2	I	2	0	731	1	poli_8sides 5_whiteLine3.jpg	Short_b22_cut1_stereo_44KHz.wav
2	146	3	3	2	I	1	0	1011	1	poli_8sides 13_whiteLine3.jpg	Short_b22_cut1_stereo_44KHz.wav
2	147	2	1	0	C	1	0	869	0	poli_8sides 11_whiteLine3.jpg	Short_b23_cut1_stereo_44KHz.wav
2	148	1	1	1	C	1	1	864	1	poli_8sides 10_whiteLine3.jpg	Short_b23_cut1_stereo_44KHz.wav
2	149	4	4	2	I	2	0	1086	0	poli_8sides 5_whiteLine3.jpg	Short_b09_cut1_stereo_44KHz.wav
2	150	1	2	0	C	2	1	816	1	poli_8sides 10_whiteLine3.jpg	Short_b20_cut1_stereo_44KHz.wav
2	151	3	4	2	I	2	0	829	0	poli_8sides 13_whiteLine3.jpg	Short_b09_cut1_stereo_44KHz.wav
2	152	2	2	1	C	1	1	948	1	poli_8sides 11_whiteLine3.jpg	Short_b20_cut1_stereo_44KHz.wav
2	153	4	4	2	I	2	0	966	0	poli_8sides 5_whiteLine3.jpg	Short_b09_cut1_stereo_44KHz.wav
2	154	1	2	0	C	2	1	744	1	poli_8sides 10_whiteLine3.jpg	Short_b20_cut1_stereo_44KHz.wav
2	155	3	3	2	I	2	0	865	0	poli_8sides 13_whiteLine3.jpg	Short_b22_cut1_stereo_44KHz.wav
2	156	2	2	1	C	1	1	812	1	poli_8sides 11_whiteLine3.jpg	Short_b20_cut1_stereo_44KHz.wav
2	157	4	3	2	I	2	0	982	1	poli_8sides 5_whiteLine3.jpg	Short_b22_cut1_stereo_44KHz.wav
2	158	3	4	2	I	1	0	1051	0	poli_8sides 13_whiteLine3.jpg	Short_b09_cut1_stereo_44KHz.wav
2	159	1	1	1	C	1	1	1322	1	poli_8sides 10_whiteLine3.jpg	Short_b23_cut1_stereo_44KHz.wav
2	160	2	1	0	C	1	0	936	0	poli_8sides 11_whiteLine3.jpg	Short_b23_cut1_stereo_44KHz.wav
2	161	1	2	0	C	2	1	647	1	poli_8sides 10_whiteLine3.jpg	Short_b20_cut1_stereo_44KHz.wav
2	162	4	3	2	I	2	0	744	1	poli_8sides 5_whiteLine3.jpg	Short_b22_cut1_stereo_44KHz.wav
2	163	2	2	1	C	1	1	905	1	poli_8sides 11_whiteLine3.jpg	Short_b20_cut1_stereo_44KHz.wav
2	164	3	3	2	I	2	0	1211	1	poli_8sides 13_whiteLine3.jpg	Short_b22_cut1_stereo_44KHz.wav
2	165	4	4	2	I	2	0	799	0	poli_8sides 5_whiteLine3.jpg	Short_b09_cut1_stereo_44KHz.wav
2	166	2	1	0	C	2	1	619	1	poli_8sides 11_whiteLine3.jpg	Short_b23_cut1_stereo_44KHz.wav
2	167	1	1	1	C	1	1	884	1	poli_8sides 10_whiteLine3.jpg	Short_b23_cut1_stereo_44KHz.wav
2	168	3	4	2	I	2	0	889	1	poli_8sides 13_whiteLine3.jpg	Short_b09_cut1_stereo_44KHz.wav
2	169	2	1	0	C	2	1	851	1	poli_8sides 11_whiteLine3.jpg	Short_b23_cut1_stereo_44KHz.wav
2	170	4	4	2	I	2	0	980	1	poli_8sides 5_whiteLine3.jpg	Short_b09_cut1_stereo_44KHz.wav
2	171	3	4	2	I	2	0	883	0	poli_8sides 13_whiteLine3.jpg	Short_b09_cut1_stereo_44KHz.wav
2	172	1	2	0	C	2	1	680	1	poli_8sides 10_whiteLine3.jpg	Short_b20_cut1_stereo_44KHz.wav
2	173	2	2	1	C	1	1	763	1	poli_8sides 11_whiteLine3.jpg	Short_b20_cut1_stereo_44KHz.wav
2	174	1	1	1	C	1	1	760	1	poli_8sides 10_whiteLine3.jpg	Short_b23_cut1_stereo_44KHz.wav
2	175	3	3	2	I	2	0	1039	0	poli_8sides 13_whiteLine3.jpg	Short_b22_cut1_stereo_44KHz.wav
2	176	4	3	2	I	2	0	722	1	poli_8sides 5_whiteLine3.jpg	Short_b22_cut1_stereo_44KHz.wav
2	177	2	1	0	C	2	1	639	1	poli_8sides 11_whiteLine3.jpg	Short_b23_cut1_stereo_44KHz.wav
2	178	3	4	2	I	2	0	785	0	poli_8sides 13_whiteLine3.jpg	Short_b09_cut1_stereo_44KHz.wav
2	179	4	3	2	I	2	0	838	1	poli_8sides 5_whiteLine3.jpg	Short_b22_cut1_stereo_44KHz.wav
2	180	1	1	1	C	1	1	1162	1	poli_8sides 10_whiteLine3.jpg	Short_b23_cut1_stereo_44KHz.wav
2	181	2	2	1	C	1	1	832	1	poli_8sides 11_whiteLine3.jpg	Short_b20_cut1_stereo_44KHz.wav
2	182	4	4	2	I	2	0	810	0	poli_8sides 5_whiteLine3.jpg	Short_b09_cut1_stereo_44KHz.wav
2	183	3	3	2	I	1	0	1105	0	poli_8sides 13_whiteLine3.jpg	Short_b22_cut1_stereo_44KHz.wav
2	184	1	2	0	C	2	1	899	1	poli_8sides 10_whiteLine3.jpg	Short_b20_cut1_stereo_44KHz.wav
2	185	2	1	0	C	1	0	630	0	poli_8sides 11_whiteLine3.jpg	Short_b23_cut1_stereo_44KHz.wav
2	186	1	2	0	C	2	1	540	1	poli_8sides 10_whiteLine3.jpg	Short_b20_cut1_stereo_44KHz.wav
2	187	4	4	2	I	2	0	691	0	poli_8sides 5_whiteLine3.jpg	Short_b09_cut1_stereo_44KHz.wav
2	188	3	4	2	I	2	0	546	0	poli_8sides 13_whiteLine3.jpg	Short_b09_cut1_stereo_44KHz.wav
2	189	4	3	2	I	1	0	1040	0	poli_8sides 5_whiteLine3.jpg	Short_b22_cut1_stereo_44KHz.wav
2	190	1	1	1	C	1	1	874	1	poli_8sides 10_whiteLine3.jpg	Short_b23_cut1_stereo_44KHz.wav
2	191	2	2	1	C	1	1	556	1	poli_8sides 11_whiteLine3.jpg	Short_b20_cut1_stereo_44KHz.wav
2	192	3	3	2	I	2	0	565	1	poli_8sides 13_whiteLine3.jpg	Short_b22_cut1_stereo_44KHz.wav
2	193	1	1	1	C	1	1	781	1	poli_8sides 10_whiteLine3.jpg	Short_b23_cut1_stereo_44KHz.wav
2	194	3	4	2	I	2	0	697	1	poli_8sides 13_whiteLine3.jpg	Short_b09_cut1_stereo_44KHz.wav
2	195	4	4	2	I	2	0	733	0	poli_8sides 5_whiteLine3.jpg	Short_b09_cut1_stereo_44KHz.wav
2	196	2	1	0	C	2	1	703	1	poli_8sides 11_whiteLine3.jpg	Short_b23_cut1_stereo_44KHz.wav
2	197	1	2	0	C	2	1	1055	1	poli_8sides 10_whiteLine3.jpg	Short_b20_cut1_stereo_44KHz.wav
2	198	2	2	1	C	1	1	1211	1	poli_8sides 11_whiteLine3.jpg	Short_b20_cut1_stereo_44KHz.wav
2	199	3	3	2	I	2	0	1005	1	poli_8sides 13_whiteLine3.jpg	Short_b22_cut1_stereo_44KHz.wav
2	200	4	3	2	I	1	0	836	0	poli_8sides 5_whiteLine3.jpg	Short_b22_cut1_stereo_44KHz.wav
3	1	2	2	1	C	0	0	0	0	poli_8sides 15_whiteLine3.jpg	MediumLong_b10_cut2_L_stereo_44KHz.wav
3	2	4	3	2	I	2	0	624	0	poli_8sides 1_whiteLine3.jpg	Medium_e21_stereo_44KHz.wav
3	3	3	4	2	I	2	0	896	0	poli_8sides 9_whiteLine3.jpg	Medium_e13_stereo_44KHz.wav
3	4	1	1	1	C	1	1	528	1	poli_8sides 16_whiteLine3.jpg	MediumLong_e04_stereo_44KHz.wav
3	5	3	3	2	I	1	0	581	0	poli_8sides 9_whiteLine3.jpg	Medium_e21_stereo_44KHz.wav
3	6	2	1	0	C	2	1	839	1	poli_8sides 15_whiteLine3.jpg	MediumLong_e04_stereo_44KHz.wav
3	7	1	2	0	C	2	1	767	1	poli_8sides 16_whiteLine3.jpg	MediumLong_b10_cut2_L_stereo_44KHz.wav
3	8	4	4	2	I	1	0	752	1	poli_8sides 1_whiteLine3.jpg	Medium_e13_stereo_44KHz.wav
3	9	1	2	0	C	2	1	783	1	poli_8sides 16_whiteLine3.jpg	MediumLong_b10_cut2_L_stereo_44KHz.wav
3	10	2	2	1	C	1	1	682	1	poli_8sides 15_whiteLine3.jpg	MediumLong_b10_cut2_L_stereo_44KHz.wav
3	11	4	3	2	I	2	0	668	0	poli_8sides 1_whiteLine3.jpg	Medium_e21_stereo_44KHz.wav
3	12	3	3	2	I	2	0	895	0	poli_8sides 9_whiteLine3.jpg	Medium_e21_stereo_44KHz.wav
3	13	2	1	0	C	1	0	976	0	poli_8sides 15_whiteLine3.jpg	MediumLong_e04_stereo_44KHz.wav
3	14	1	1	1	C	1	1	843	1	poli_8sides 16_whiteLine3.jpg	MediumLong_e04_stereo_44KHz.wav
3	15	4	4	2	I	2	0	696	0	poli_8sides 1_whiteLine3.jpg	Medium_e13_stereo_44KHz.wav
3	16	3	4	2	I	2	0	633	1	poli_8sides 9_whiteLine3.jpg	Medium_e13_stereo_44KHz.wav
3	17	4	3	2	I	2	0	1047	0	poli_8sides 1_whiteLine3.jpg	Medium_e21_stereo_44KHz.wav
3	18	1	1	1	C	1	1	1328	1	poli_8sides 16_whiteLine3.jpg	MediumLong_e04_stereo_44KHz.wav
3	19	2	1	0	C	2	1	671	1	poli_8sides 15_whiteLine3.jpg	MediumLong_e04_stereo_44KHz.wav
3	20	3	3	2	I	2	0	737	0	poli_8sides 9_whiteLine3.jpg	Medium_e21_stereo_44KHz.wav
3	21	1	2	0	C	1	0	600	0	poli_8sides 16_whiteLine3.jpg	MediumLong_b10_cut2_L_stereo_44KHz.wav
3	22	3	4	2	I	2	0	822	1	poli_8sides 9_whiteLine3.jpg	Medium_e13_stereo_44KHz.wav
3	23	2	2	1	C	1	1	986	1	poli_8sides 15_whiteLine3.jpg	MediumLong_b10_cut2_L_stereo_44KHz.wav
3	24	4	4	2	I	2	0	1310	1	poli_8sides 1_whiteLine3.jpg	Medium_e13_stereo_44KHz.wav
3	25	1	2	0	C	1	0	1160	0	poli_8sides 16_whiteLine3.jpg	MediumLong_b10_cut2_L_stereo_44KHz.wav
3	26	4	4	2	I	2	0	766	0	poli_8sides 1_whiteLine3.jpg	Medium_e13_stereo_44KHz.wav
3	27	3	3	2	I	1	0	1389	0	poli_8sides 9_whiteLine3.jpg	Medium_e21_stereo_44KHz.wav
3	28	2	1	0	C	2	1	821	1	poli_8sides 15_whiteLine3.jpg	MediumLong_e04_stereo_44KHz.wav
3	29	3	4	2	I	2	0	859	0	poli_8sides 9_whiteLine3.jpg	Medium_e13_stereo_44KHz.wav
3	30	1	1	1	C	1	1	1017	1	poli_8sides 16_whiteLine3.jpg	MediumLong_e04_stereo_44KHz.wav
3	31	4	3	2	I	2	0	715	1	poli_8sides 1_whiteLine3.jpg	Medium_e21_stereo_44KHz.wav
3	32	2	2	1	C	1	1	816	1	poli_8sides 15_whiteLine3.jpg	MediumLong_b10_cut2_L_stereo_44KHz.wav
3	33	3	3	2	I	2	0	861	1	poli_8sides 9_whiteLine3.jpg	Medium_e21_stereo_44KHz.wav
3	34	2	1	0	C	2	1	701	1	poli_8sides 15_whiteLine3.jpg	MediumLong_e04_stereo_44KHz.wav
3	35	4	4	2	I	2	0	1342	0	poli_8sides 1_whiteLine3.jpg	Medium_e13_stereo_44KHz.wav
3	36	1	2	0	C	2	1	923	1	poli_8sides 16_whiteLine3.jpg	MediumLong_b10_cut2_L_stereo_44KHz.wav
3	37	2	2	1	C	1	1	549	1	poli_8sides 15_whiteLine3.jpg	MediumLong_b10_cut2_L_stereo_44KHz.wav
3	38	3	4	2	I	2	0	775	1	poli_8sides 9_whiteLine3.jpg	Medium_e13_stereo_44KHz.wav
3	39	1	1	1	C	2	0	701	0	poli_8sides 16_whiteLine3.jpg	MediumLong_e04_stereo_44KHz.wav
3	40	4	3	2	I	2	0	1472	0	poli_8sides 1_whiteLine3.jpg	Medium_e21_stereo_44KHz.wav
3	41	2	1	0	C	2	1	745	1	poli_8sides 15_whiteLine3.jpg	MediumLong_e04_stereo_44KHz.wav
3	42	1	2	0	C	2	1	797	1	poli_8sides 16_whiteLine3.jpg	MediumLong_b10_cut2_L_stereo_44KHz.wav
3	43	3	3	2	I	2	0	878	0	poli_8sides 9_whiteLine3.jpg	Medium_e21_stereo_44KHz.wav
3	44	4	3	2	I	2	0	739	0	poli_8sides 1_whiteLine3.jpg	Medium_e21_stereo_44KHz.wav
3	45	2	2	1	C	1	1	1191	1	poli_8sides 15_whiteLine3.jpg	MediumLong_b10_cut2_L_stereo_44KHz.wav
3	46	3	4	2	I	2	0	738	1	poli_8sides 9_whiteLine3.jpg	Medium_e13_stereo_44KHz.wav
3	47	1	1	1	C	1	1	966	1	poli_8sides 16_whiteLine3.jpg	MediumLong_e04_stereo_44KHz.wav
3	48	4	4	2	I	1	0	1369	1	poli_8sides 1_whiteLine3.jpg	Medium_e13_stereo_44KHz.wav
3	49	2	2	1	C	2	0	980	0	poli_8sides 15_whiteLine3.jpg	MediumLong_b10_cut2_L_stereo_44KHz.wav
3	50	3	3	2	I	2	0	1022	0	poli_8sides 9_whiteLine3.jpg	Medium_e21_stereo_44KHz.wav
3	51	4	4	2	I	1	0	1217	1	poli_8sides 1_whiteLine3.jpg	Medium_e13_stereo_44KHz.wav
3	52	1	1	1	C	1	1	976	1	poli_8sides 16_whiteLine3.jpg	MediumLong_e04_stereo_44KHz.wav
3	53	4	3	2	I	2	0	895	0	poli_8sides 1_whiteLine3.jpg	Medium_e21_stereo_44KHz.wav
3	54	1	2	0	C	2	1	1039	1	poli_8sides 16_whiteLine3.jpg	MediumLong_b10_cut2_L_stereo_44KHz.wav
3	55	2	1	0	C	2	1	677	1	poli_8sides 15_whiteLine3.jpg	MediumLong_e04_stereo_44KHz.wav
3	56	3	4	2	I	1	0	1499	0	poli_8sides 9_whiteLine3.jpg	Medium_e13_stereo_44KHz.wav
3	57	2	1	0	C	2	1	789	1	poli_8sides 15_whiteLine3.jpg	MediumLong_e04_stereo_44KHz.wav
3	58	3	4	2	I	2	0	728	1	poli_8sides 9_whiteLine3.jpg	Medium_e13_stereo_44KHz.wav
3	59	1	2	0	C	2	1	1074	1	poli_8sides 16_whiteLine3.jpg	MediumLong_b10_cut2_L_stereo_44KHz.wav
3	60	4	4	2	I	2	0	1419	0	poli_8sides 1_whiteLine3.jpg	Medium_e13_stereo_44KHz.wav
3	61	2	2	1	C	1	1	1111	1	poli_8sides 15_whiteLine3.jpg	MediumLong_b10_cut2_L_stereo_44KHz.wav
3	62	4	3	2	I	2	0	1035	0	poli_8sides 1_whiteLine3.jpg	Medium_e21_stereo_44KHz.wav
3	63	1	1	1	C	2	0	1165	0	poli_8sides 16_whiteLine3.jpg	MediumLong_e04_stereo_44KHz.wav
3	64	3	3	2	I	1	0	1110	0	poli_8sides 9_whiteLine3.jpg	Medium_e21_stereo_44KHz.wav
3	65	1	1	1	C	1	1	1612	1	poli_8sides 16_whiteLine3.jpg	MediumLong_e04_stereo_44KHz.wav
3	66	3	3	2	I	2	0	873	0	poli_8sides 9_whiteLine3.jpg	Medium_e21_stereo_44KHz.wav
3	67	2	2	1	C	1	1	1043	1	poli_8sides 15_whiteLine3.jpg	MediumLong_b10_cut2_L_stereo_44KHz.wav
3	68	4	3	2	I	2	0	804	1	poli_8sides 1_whiteLine3.jpg	Medium_e21_stereo_44KHz.wav
3	69	2	1	0	C	2	1	779	1	poli_8sides 15_whiteLine3.jpg	MediumLong_e04_stereo_44KHz.wav
3	70	4	4	2	I	1	0	1589	1	poli_8sides 1_whiteLine3.jpg	Medium_e13_stereo_44KHz.wav
3	71	3	4	2	I	2	0	727	1	poli_8sides 9_whiteLine3.jpg	Medium_e13_stereo_44KHz.wav
3	72	1	2	0	C	2	1	1398	1	poli_8sides 16_whiteLine3.jpg	MediumLong_b10_cut2_L_stereo_44KHz.wav
3	73	4	4	2	I	2	0	1187	1	poli_8sides 1_whiteLine3.jpg	Medium_e13_stereo_44KHz.wav
3	74	2	2	1	C	1	1	918	1	poli_8sides 15_whiteLine3.jpg	MediumLong_b10_cut2_L_stereo_44KHz.wav
3	75	1	2	0	C	2	1	851	1	poli_8sides 16_whiteLine3.jpg	MediumLong_b10_cut2_L_stereo_44KHz.wav
3	76	3	4	2	I	1	0	811	1	poli_8sides 9_whiteLine3.jpg	Medium_e13_stereo_44KHz.wav
3	77	4	3	2	I	1	0	737	0	poli_8sides 1_whiteLine3.jpg	Medium_e21_stereo_44KHz.wav
3	78	2	1	0	C	2	1	856	1	poli_8sides 15_whiteLine3.jpg	MediumLong_e04_stereo_44KHz.wav
3	79	3	3	2	I	1	0	1206	0	poli_8sides 9_whiteLine3.jpg	Medium_e21_stereo_44KHz.wav
3	80	1	1	1	C	1	1	1118	1	poli_8sides 16_whiteLine3.jpg	MediumLong_e04_stereo_44KHz.wav
3	81	3	4	2	I	1	0	1122	1	poli_8sides 9_whiteLine3.jpg	Medium_e13_stereo_44KHz.wav
3	82	4	3	2	I	1	0	772	1	poli_8sides 1_whiteLine3.jpg	Medium_e21_stereo_44KHz.wav
3	83	1	1	1	C	1	1	945	1	poli_8sides 16_whiteLine3.jpg	MediumLong_e04_stereo_44KHz.wav
3	84	2	2	1	C	1	1	824	1	poli_8sides 15_whiteLine3.jpg	MediumLong_b10_cut2_L_stereo_44KHz.wav
3	85	3	3	2	I	1	0	917	1	poli_8sides 9_whiteLine3.jpg	Medium_e21_stereo_44KHz.wav
3	86	4	4	2	I	2	0	820	0	poli_8sides 1_whiteLine3.jpg	Medium_e13_stereo_44KHz.wav
3	87	2	1	0	C	2	1	1320	1	poli_8sides 15_whiteLine3.jpg	MediumLong_e04_stereo_44KHz.wav
3	88	1	2	0	C	2	1	885	1	poli_8sides 16_whiteLine3.jpg	MediumLong_b10_cut2_L_stereo_44KHz.wav
3	89	2	1	0	C	2	1	1417	1	poli_8sides 15_whiteLine3.jpg	MediumLong_e04_stereo_44KHz.wav
3	90	4	4	2	I	2	0	1031	1	poli_8sides 1_whiteLine3.jpg	Medium_e13_stereo_44KHz.wav
3	91	1	1	1	C	1	1	1274	1	poli_8sides 16_whiteLine3.jpg	MediumLong_e04_stereo_44KHz.wav
3	92	3	4	2	I	1	0	1065	1	poli_8sides 9_whiteLine3.jpg	Medium_e13_stereo_44KHz.wav
3	93	2	2	1	C	2	0	965	0	poli_8sides 15_whiteLine3.jpg	MediumLong_b10_cut2_L_stereo_44KHz.wav
3	94	4	3	2	I	1	0	1158	0	poli_8sides 1_whiteLine3.jpg	Medium_e21_stereo_44KHz.wav
3	95	3	3	2	I	1	0	938	1	poli_8sides 9_whiteLine3.jpg	Medium_e21_stereo_44KHz.wav
3	96	1	2	0	C	1	0	819	0	poli_8sides 16_whiteLine3.jpg	MediumLong_b10_cut2_L_stereo_44KHz.wav
3	97	4	3	2	I	2	0	1155	1	poli_8sides 1_whiteLine3.jpg	Medium_e21_stereo_44KHz.wav
3	98	2	2	1	C	1	1	1016	1	poli_8sides 15_whiteLine3.jpg	MediumLong_b10_cut2_L_stereo_44KHz.wav
3	99	1	1	1	C	1	1	1071	1	poli_8sides 16_whiteLine3.jpg	MediumLong_e04_stereo_44KHz.wav
3	100	3	4	2	I	2	0	848	1	poli_8sides 9_whiteLine3.jpg	Medium_e13_stereo_44KHz.wav
3	101	4	4	2	I	1	0	716	0	poli_8sides 1_whiteLine3.jpg	Medium_e13_stereo_44KHz.wav
3	102	3	3	2	I	1	0	1154	0	poli_8sides 9_whiteLine3.jpg	Medium_e21_stereo_44KHz.wav
3	103	2	1	0	C	2	1	863	1	poli_8sides 15_whiteLine3.jpg	MediumLong_e04_stereo_44KHz.wav
3	104	1	2	0	C	2	1	1042	1	poli_8sides 16_whiteLine3.jpg	MediumLong_b10_cut2_L_stereo_44KHz.wav
3	105	3	3	2	I	2	0	718	1	poli_8sides 9_whiteLine3.jpg	Medium_e21_stereo_44KHz.wav
3	106	4	3	2	I	1	0	1043	0	poli_8sides 1_whiteLine3.jpg	Medium_e21_stereo_44KHz.wav
3	107	1	1	1	C	1	1	1017	1	poli_8sides 16_whiteLine3.jpg	MediumLong_e04_stereo_44KHz.wav
3	108	2	2	1	C	1	1	834	1	poli_8sides 15_whiteLine3.jpg	MediumLong_b10_cut2_L_stereo_44KHz.wav
3	109	3	4	2	I	1	0	1332	0	poli_8sides 9_whiteLine3.jpg	Medium_e13_stereo_44KHz.wav
3	110	1	2	0	C	1	0	1025	0	poli_8sides 16_whiteLine3.jpg	MediumLong_b10_cut2_L_stereo_44KHz.wav
3	111	4	4	2	I	2	0	1230	1	poli_8sides 1_whiteLine3.jpg	Medium_e13_stereo_44KHz.wav
3	112	2	1	0	C	2	1	899	1	poli_8sides 15_whiteLine3.jpg	MediumLong_e04_stereo_44KHz.wav
3	113	1	1	1	C	2	0	743	0	poli_8sides 16_whiteLine3.jpg	MediumLong_e04_stereo_44KHz.wav
3	114	4	4	2	I	2	0	887	1	poli_8sides 1_whiteLine3.jpg	Medium_e13_stereo_44KHz.wav
3	115	3	4	2	I	1	0	1048	0	poli_8sides 9_whiteLine3.jpg	Medium_e13_stereo_44KHz.wav
3	116	2	2	1	C	1	1	925	1	poli_8sides 15_whiteLine3.jpg	MediumLong_b10_cut2_L_stereo_44KHz.wav
3	117	4	3	2	I	2	0	1457	1	poli_8sides 1_whiteLine3.jpg	Medium_e21_stereo_44KHz.wav
3	118	3	3	2	I	2	0	827	0	poli_8sides 9_whiteLine3.jpg	Medium_e21_stereo_44KHz.wav
3	119	1	2	0	C	2	1	874	1	poli_8sides 16_whiteLine3.jpg	MediumLong_b10_cut2_L_stereo_44KHz.wav
3	120	2	1	0	C	2	1	686	1	poli_8sides 15_whiteLine3.jpg	MediumLong_e04_stereo_44KHz.wav
3	121	1	2	0	C	1	0	889	0	poli_8sides 16_whiteLine3.jpg	MediumLong_b10_cut2_L_stereo_44KHz.wav
3	122	2	2	1	C	1	1	1489	1	poli_8sides 15_whiteLine3.jpg	MediumLong_b10_cut2_L_stereo_44KHz.wav
3	123	3	3	2	I	2	0	751	0	poli_8sides 9_whiteLine3.jpg	Medium_e21_stereo_44KHz.wav
3	124	4	3	2	I	2	0	915	1	poli_8sides 1_whiteLine3.jpg	Medium_e21_stereo_44KHz.wav
3	125	2	1	0	C	2	1	999	1	poli_8sides 15_whiteLine3.jpg	MediumLong_e04_stereo_44KHz.wav
3	126	3	4	2	I	2	0	1138	0	poli_8sides 9_whiteLine3.jpg	Medium_e13_stereo_44KHz.wav
3	127	1	1	1	C	1	1	1039	1	poli_8sides 16_whiteLine3.jpg	MediumLong_e04_stereo_44KHz.wav
3	128	4	4	2	I	1	0	1041	0	poli_8sides 1_whiteLine3.jpg	Medium_e13_stereo_44KHz.wav
3	129	1	2	0	C	2	1	1095	1	poli_8sides 16_whiteLine3.jpg	MediumLong_b10_cut2_L_stereo_44KHz.wav
3	130	4	4	2	I	2	0	1314	0	poli_8sides 1_whiteLine3.jpg	Medium_e13_stereo_44KHz.wav
3	131	3	4	2	I	1	0	1110	0	poli_8sides 9_whiteLine3.jpg	Medium_e13_stereo_44KHz.wav
3	132	2	2	1	C	1	1	1091	1	poli_8sides 15_whiteLine3.jpg	MediumLong_b10_cut2_L_stereo_44KHz.wav
3	133	1	1	1	C	0	0	0	0	poli_8sides 16_whiteLine3.jpg	MediumLong_e04_stereo_44KHz.wav
3	134	3	3	2	I	2	0	1079	1	poli_8sides 9_whiteLine3.jpg	Medium_e21_stereo_44KHz.wav
3	135	2	1	0	C	2	1	806	1	poli_8sides 15_whiteLine3.jpg	MediumLong_e04_stereo_44KHz.wav
3	136	4	3	2	I	2	0	971	0	poli_8sides 1_whiteLine3.jpg	Medium_e21_stereo_44KHz.wav
3	137	2	1	0	C	2	1	739	1	poli_8sides 15_whiteLine3.jpg	MediumLong_e04_stereo_44KHz.wav
3	138	1	1	1	C	1	1	1247	1	poli_8sides 16_whiteLine3.jpg	MediumLong_e04_stereo_44KHz.wav
3	139	3	3	2	I	2	0	916	0	poli_8sides 9_whiteLine3.jpg	Medium_e21_stereo_44KHz.wav
3	140	4	3	2	I	2	0	866	0	poli_8sides 1_whiteLine3.jpg	Medium_e21_stereo_44KHz.wav
3	141	3	4	2	I	1	0	1736	1	poli_8sides 9_whiteLine3.jpg	Medium_e13_stereo_44KHz.wav
3	142	1	2	0	C	2	1	962	1	poli_8sides 16_whiteLine3.jpg	MediumLong_b10_cut2_L_stereo_44KHz.wav
3	143	4	4	2	I	2	0	845	0	poli_8sides 1_whiteLine3.jpg	Medium_e13_stereo_44KHz.wav
3	144	2	2	1	C	1	1	1434	1	poli_8sides 15_whiteLine3.jpg	MediumLong_b10_cut2_L_stereo_44KHz.wav
3	145	4	3	2	I	2	0	737	1	poli_8sides 1_whiteLine3.jpg	Medium_e21_stereo_44KHz.wav
3	146	3	4	2	I	2	0	780	1	poli_8sides 9_whiteLine3.jpg	Medium_e13_stereo_44KHz.wav
3	147	2	2	1	C	1	1	1108	1	poli_8sides 15_whiteLine3.jpg	MediumLong_b10_cut2_L_stereo_44KHz.wav
3	148	1	2	0	C	2	1	671	1	poli_8sides 16_whiteLine3.jpg	MediumLong_b10_cut2_L_stereo_44KHz.wav
3	149	4	4	2	I	2	0	888	1	poli_8sides 1_whiteLine3.jpg	Medium_e13_stereo_44KHz.wav
3	150	2	1	0	C	2	1	890	1	poli_8sides 15_whiteLine3.jpg	MediumLong_e04_stereo_44KHz.wav
3	151	1	1	1	C	1	1	999	1	poli_8sides 16_whiteLine3.jpg	MediumLong_e04_stereo_44KHz.wav
3	152	3	3	2	I	2	0	864	1	poli_8sides 9_whiteLine3.jpg	Medium_e21_stereo_44KHz.wav
3	153	2	2	1	C	1	1	1718	1	poli_8sides 15_whiteLine3.jpg	MediumLong_b10_cut2_L_stereo_44KHz.wav
3	154	1	1	1	C	2	0	1709	0	poli_8sides 16_whiteLine3.jpg	MediumLong_e04_stereo_44KHz.wav
3	155	3	3	2	I	2	0	1125	1	poli_8sides 9_whiteLine3.jpg	Medium_e21_stereo_44KHz.wav
3	156	4	4	2	I	2	0	867	1	poli_8sides 1_whiteLine3.jpg	Medium_e13_stereo_44KHz.wav
3	157	3	4	2	I	2	0	674	1	poli_8sides 9_whiteLine3.jpg	Medium_e13_stereo_44KHz.wav
3	158	4	3	2	I	2	0	867	1	poli_8sides 1_whiteLine3.jpg	Medium_e21_stereo_44KHz.wav
3	159	2	1	0	C	1	0	1389	0	poli_8sides 15_whiteLine3.jpg	MediumLong_e04_stereo_44KHz.wav
3	160	1	2	0	C	2	1	801	1	poli_8sides 16_whiteLine3.jpg	MediumLong_b10_cut2_L_stereo_44KHz.wav
3	161	4	3	2	I	2	0	698	0	poli_8sides 1_whiteLine3.jpg	Medium_e21_stereo_44KHz.wav
3	162	1	2	0	C	2	1	1388	1	poli_8sides 16_whiteLine3.jpg	MediumLong_b10_cut2_L_stereo_44KHz.wav
3	163	3	4	2	I	2	0	750	0	poli_8sides 9_whiteLine3.jpg	Medium_e13_stereo_44KHz.wav
3	164	2	1	0	C	2	1	1055	1	poli_8sides 15_whiteLine3.jpg	MediumLong_e04_stereo_44KHz.wav
3	165	3	3	2	I	2	0	1774	1	poli_8sides 9_whiteLine3.jpg	Medium_e21_stereo_44KHz.wav
3	166	1	1	1	C	1	1	1398	1	poli_8sides 16_whiteLine3.jpg	MediumLong_e04_stereo_44KHz.wav
3	167	2	2	1	C	1	1	1275	1	poli_8sides 15_whiteLine3.jpg	MediumLong_b10_cut2_L_stereo_44KHz.wav
3	168	4	4	2	I	2	0	788	0	poli_8sides 1_whiteLine3.jpg	Medium_e13_stereo_44KHz.wav
3	169	2	1	0	C	2	1	1350	1	poli_8sides 15_whiteLine3.jpg	MediumLong_e04_stereo_44KHz.wav
3	170	3	4	2	I	2	0	779	0	poli_8sides 9_whiteLine3.jpg	Medium_e13_stereo_44KHz.wav
3	171	1	2	0	C	2	1	1216	1	poli_8sides 16_whiteLine3.jpg	MediumLong_b10_cut2_L_stereo_44KHz.wav
3	172	4	3	2	I	1	0	1263	1	poli_8sides 1_whiteLine3.jpg	Medium_e21_stereo_44KHz.wav
3	173	3	3	2	I	2	0	794	1	poli_8sides 9_whiteLine3.jpg	Medium_e21_stereo_44KHz.wav
3	174	4	4	2	I	2	0	1260	0	poli_8sides 1_whiteLine3.jpg	Medium_e13_stereo_44KHz.wav
3	175	1	1	1	C	1	1	887	1	poli_8sides 16_whiteLine3.jpg	MediumLong_e04_stereo_44KHz.wav
3	176	2	2	1	C	1	1	1117	1	poli_8sides 15_whiteLine3.jpg	MediumLong_b10_cut2_L_stereo_44KHz.wav
3	177	3	3	2	I	2	0	1025	1	poli_8sides 9_whiteLine3.jpg	Medium_e21_stereo_44KHz.wav
3	178	1	1	1	C	1	1	1058	1	poli_8sides 16_whiteLine3.jpg	MediumLong_e04_stereo_44KHz.wav
3	179	2	1	0	C	2	1	715	1	poli_8sides 15_whiteLine3.jpg	MediumLong_e04_stereo_44KHz.wav
3	180	4	3	2	I	2	0	916	1	poli_8sides 1_whiteLine3.jpg	Medium_e21_stereo_44KHz.wav
3	181	1	2	0	C	2	1	1445	1	poli_8sides 16_whiteLine3.jpg	MediumLong_b10_cut2_L_stereo_44KHz.wav
3	182	4	4	2	I	2	0	742	1	poli_8sides 1_whiteLine3.jpg	Medium_e13_stereo_44KHz.wav
3	183	2	2	1	C	1	1	875	1	poli_8sides 15_whiteLine3.jpg	MediumLong_b10_cut2_L_stereo_44KHz.wav
3	184	3	4	2	I	2	0	714	1	poli_8sides 9_whiteLine3.jpg	Medium_e13_stereo_44KHz.wav
3	185	2	1	0	C	2	1	841	1	poli_8sides 15_whiteLine3.jpg	MediumLong_e04_stereo_44KHz.wav
3	186	3	4	2	I	2	0	972	0	poli_8sides 9_whiteLine3.jpg	Medium_e13_stereo_44KHz.wav
3	187	4	3	2	I	1	0	1129	1	poli_8sides 1_whiteLine3.jpg	Medium_e21_stereo_44KHz.wav
3	188	1	1	1	C	1	1	1192	1	poli_8sides 16_whiteLine3.jpg	MediumLong_e04_stereo_44KHz.wav
3	189	4	4	2	I	1	0	1350	1	poli_8sides 1_whiteLine3.jpg	Medium_e13_stereo_44KHz.wav
3	190	1	2	0	C	2	1	1055	1	poli_8sides 16_whiteLine3.jpg	MediumLong_b10_cut2_L_stereo_44KHz.wav
3	191	3	3	2	I	1	0	1029	0	poli_8sides 9_whiteLine3.jpg	Medium_e21_stereo_44KHz.wav
3	192	2	2	1	C	1	1	1935	1	poli_8sides 15_whiteLine3.jpg	MediumLong_b10_cut2_L_stereo_44KHz.wav
3	193	3	3	2	I	2	0	1096	1	poli_8sides 9_whiteLine3.jpg	Medium_e21_stereo_44KHz.wav
3	194	2	2	1	C	1	1	1693	1	poli_8sides 15_whiteLine3.jpg	MediumLong_b10_cut2_L_stereo_44KHz.wav
3	195	1	1	1	C	1	1	1034	1	poli_8sides 16_whiteLine3.jpg	MediumLong_e04_stereo_44KHz.wav
3	196	4	3	2	I	2	0	1200	0	poli_8sides 1_whiteLine3.jpg	Medium_e21_stereo_44KHz.wav
3	197	2	1	0	C	2	1	1067	1	poli_8sides 15_whiteLine3.jpg	MediumLong_e04_stereo_44KHz.wav
3	198	4	4	2	I	2	0	1275	1	poli_8sides 1_whiteLine3.jpg	Medium_e13_stereo_44KHz.wav
3	199	3	4	2	I	1	0	1156	0	poli_8sides 9_whiteLine3.jpg	Medium_e13_stereo_44KHz.wav
3	200	1	2	0	C	1	0	1504	0	poli_8sides 16_whiteLine3.jpg	MediumLong_b10_cut2_L_stereo_44KHz.wav
4	1	1	1	1	C	1	1	1059	1	poli_8sides 2_whiteLine3.jpg	MediumShort_b16_cut3_MS_stereo_44KHz.wav
4	2	4	3	2	I	1	0	902	0	poli_8sides 7_whiteLine3.jpg	MediumShort_b10_cut1_MS_stereo_44KHz.wav
4	3	2	2	1	C	1	1	697	1	poli_8sides 8_whiteLine3.jpg	MediumShort_e16_cut1_stereo_44KHz.wav
4	4	3	4	2	I	1	0	748	0	poli_8sides 3_whiteLine3.jpg	MediumShort_e22_cut1_stereo_44KHz.wav
4	5	1	2	0	C	1	0	1132	0	poli_8sides 2_whiteLine3.jpg	MediumShort_e16_cut1_stereo_44KHz.wav
4	6	3	3	2	I	2	0	1161	0	poli_8sides 3_whiteLine3.jpg	MediumShort_b10_cut1_MS_stereo_44KHz.wav
4	7	4	4	2	I	1	0	670	0	poli_8sides 7_whiteLine3.jpg	MediumShort_e22_cut1_stereo_44KHz.wav
4	8	2	1	0	C	1	0	882	0	poli_8sides 8_whiteLine3.jpg	MediumShort_b16_cut3_MS_stereo_44KHz.wav
4	9	3	4	2	I	2	0	751	1	poli_8sides 3_whiteLine3.jpg	MediumShort_e22_cut1_stereo_44KHz.wav
4	10	2	1	0	C	2	1	1125	1	poli_8sides 8_whiteLine3.jpg	MediumShort_b16_cut3_MS_stereo_44KHz.wav
4	11	4	3	2	I	2	0	655	0	poli_8sides 7_whiteLine3.jpg	MediumShort_b10_cut1_MS_stereo_44KHz.wav
4	12	1	2	0	C	2	1	709	1	poli_8sides 2_whiteLine3.jpg	MediumShort_e16_cut1_stereo_44KHz.wav
4	13	3	3	2	I	2	0	955	0	poli_8sides 3_whiteLine3.jpg	MediumShort_b10_cut1_MS_stereo_44KHz.wav
4	14	1	1	1	C	2	0	868	0	poli_8sides 2_whiteLine3.jpg	MediumShort_b16_cut3_MS_stereo_44KHz.wav
4	15	2	2	1	C	1	1	1443	1	poli_8sides 8_whiteLine3.jpg	MediumShort_e16_cut1_stereo_44KHz.wav
4	16	4	4	2	I	1	0	1215	0	poli_8sides 7_whiteLine3.jpg	MediumShort_e22_cut1_stereo_44KHz.wav
4	17	3	3	2	I	2	0	769	0	poli_8sides 3_whiteLine3.jpg	MediumShort_b10_cut1_MS_stereo_44KHz.wav
4	18	1	2	0	C	0	0	0	0	poli_8sides 2_whiteLine3.jpg	MediumShort_e16_cut1_stereo_44KHz.wav
4	19	2	2	1	C	2	0	735	0	poli_8sides 8_whiteLine3.jpg	MediumShort_e16_cut1_stereo_44KHz.wav
4	20	4	4	2	I	2	0	1268	0	poli_8sides 7_whiteLine3.jpg	MediumShort_e22_cut1_stereo_44KHz.wav
4	21	1	1	1	C	2	0	774	0	poli_8sides 2_whiteLine3.jpg	MediumShort_b16_cut3_MS_stereo_44KHz.wav
4	22	2	1	0	C	1	0	552	0	poli_8sides 8_whiteLine3.jpg	MediumShort_b16_cut3_MS_stereo_44KHz.wav
4	23	4	3	2	I	1	0	367	1	poli_8sides 7_whiteLine3.jpg	MediumShort_b10_cut1_MS_stereo_44KHz.wav
4	24	3	4	2	I	1	0	407	1	poli_8sides 3_whiteLine3.jpg	MediumShort_e22_cut1_stereo_44KHz.wav
4	25	4	4	2	I	1	0	457	1	poli_8sides 7_whiteLine3.jpg	MediumShort_e22_cut1_stereo_44KHz.wav
4	26	3	4	2	I	1	0	710	0	poli_8sides 3_whiteLine3.jpg	MediumShort_e22_cut1_stereo_44KHz.wav
4	27	2	2	1	C	2	0	1493	0	poli_8sides 8_whiteLine3.jpg	MediumShort_e16_cut1_stereo_44KHz.wav
4	28	1	1	1	C	2	0	886	0	poli_8sides 2_whiteLine3.jpg	MediumShort_b16_cut3_MS_stereo_44KHz.wav
4	29	4	3	2	I	1	0	1034	0	poli_8sides 7_whiteLine3.jpg	MediumShort_b10_cut1_MS_stereo_44KHz.wav
4	30	1	2	0	C	2	1	859	1	poli_8sides 2_whiteLine3.jpg	MediumShort_e16_cut1_stereo_44KHz.wav
4	31	3	3	2	I	1	0	977	1	poli_8sides 3_whiteLine3.jpg	MediumShort_b10_cut1_MS_stereo_44KHz.wav
4	32	2	1	0	C	1	0	1099	0	poli_8sides 8_whiteLine3.jpg	MediumShort_b16_cut3_MS_stereo_44KHz.wav
4	33	4	3	2	I	2	0	739	1	poli_8sides 7_whiteLine3.jpg	MediumShort_b10_cut1_MS_stereo_44KHz.wav
4	34	3	4	2	I	2	0	1071	0	poli_8sides 3_whiteLine3.jpg	MediumShort_e22_cut1_stereo_44KHz.wav
4	35	1	1	1	C	1	1	1219	1	poli_8sides 2_whiteLine3.jpg	MediumShort_b16_cut3_MS_stereo_44KHz.wav
4	36	2	1	0	C	2	1	942	1	poli_8sides 8_whiteLine3.jpg	MediumShort_b16_cut3_MS_stereo_44KHz.wav
4	37	4	4	2	I	1	0	903	1	poli_8sides 7_whiteLine3.jpg	MediumShort_e22_cut1_stereo_44KHz.wav
4	38	1	2	0	C	1	0	1164	0	poli_8sides 2_whiteLine3.jpg	MediumShort_e16_cut1_stereo_44KHz.wav
4	39	3	3	2	I	1	0	907	0	poli_8sides 3_whiteLine3.jpg	MediumShort_b10_cut1_MS_stereo_44KHz.wav
4	40	2	2	1	C	1	1	1026	1	poli_8sides 8_whiteLine3.jpg	MediumShort_e16_cut1_stereo_44KHz.wav
4	41	4	3	2	I	2	0	686	1	poli_8sides 7_whiteLine3.jpg	MediumShort_b10_cut1_MS_stereo_44KHz.wav
4	42	3	3	2	I	2	0	541	1	poli_8sides 3_whiteLine3.jpg	MediumShort_b10_cut1_MS_stereo_44KHz.wav
4	43	1	1	1	C	1	1	898	1	poli_8sides 2_whiteLine3.jpg	MediumShort_b16_cut3_MS_stereo_44KHz.wav
4	44	2	2	1	C	1	1	1020	1	poli_8sides 8_whiteLine3.jpg	MediumShort_e16_cut1_stereo_44KHz.wav
4	45	1	2	0	C	2	1	864	1	poli_8sides 2_whiteLine3.jpg	MediumShort_e16_cut1_stereo_44KHz.wav
4	46	3	4	2	I	2	0	1188	0	poli_8sides 3_whiteLine3.jpg	MediumShort_e22_cut1_stereo_44KHz.wav
4	47	2	1	0	C	2	1	940	1	poli_8sides 8_whiteLine3.jpg	MediumShort_b16_cut3_MS_stereo_44KHz.wav
4	48	4	4	2	I	1	0	1042	1	poli_8sides 7_whiteLine3.jpg	MediumShort_e22_cut1_stereo_44KHz.wav
4	49	2	1	0	C	1	0	1391	0	poli_8sides 8_whiteLine3.jpg	MediumShort_b16_cut3_MS_stereo_44KHz.wav
4	50	1	1	1	C	1	1	721	1	poli_8sides 2_whiteLine3.jpg	MediumShort_b16_cut3_MS_stereo_44KHz.wav
4	51	3	3	2	I	1	0	812	1	poli_8sides 3_whiteLine3.jpg	MediumShort_b10_cut1_MS_stereo_44KHz.wav
4	52	4	4	2	I	1	0	1453	0	poli_8sides 7_whiteLine3.jpg	MediumShort_e22_cut1_stereo_44KHz.wav
4	53	2	2	1	C	1	1	1880	1	poli_8sides 8_whiteLine3.jpg	MediumShort_e16_cut1_stereo_44KHz.wav
4	54	4	3	2	I	2	0	1032	1	poli_8sides 7_whiteLine3.jpg	MediumShort_b10_cut1_MS_stereo_44KHz.wav
4	55	1	2	0	C	2	1	1237	1	poli_8sides 2_whiteLine3.jpg	MediumShort_e16_cut1_stereo_44KHz.wav
4	56	3	4	2	I	2	0	699	0	poli_8sides 3_whiteLine3.jpg	MediumShort_e22_cut1_stereo_44KHz.wav
4	57	2	1	0	C	2	1	721	1	poli_8sides 8_whiteLine3.jpg	MediumShort_b16_cut3_MS_stereo_44KHz.wav
4	58	3	3	2	I	2	0	610	1	poli_8sides 3_whiteLine3.jpg	MediumShort_b10_cut1_MS_stereo_44KHz.wav
4	59	4	4	2	I	1	0	1023	1	poli_8sides 7_whiteLine3.jpg	MediumShort_e22_cut1_stereo_44KHz.wav
4	60	1	2	0	C	2	1	1498	1	poli_8sides 2_whiteLine3.jpg	MediumShort_e16_cut1_stereo_44KHz.wav
4	61	3	4	2	I	1	0	1226	1	poli_8sides 3_whiteLine3.jpg	MediumShort_e22_cut1_stereo_44KHz.wav
4	62	4	3	2	I	2	0	792	1	poli_8sides 7_whiteLine3.jpg	MediumShort_b10_cut1_MS_stereo_44KHz.wav
4	63	2	2	1	C	0	0	0	0	poli_8sides 8_whiteLine3.jpg	MediumShort_e16_cut1_stereo_44KHz.wav
4	64	1	1	1	C	1	1	934	1	poli_8sides 2_whiteLine3.jpg	MediumShort_b16_cut3_MS_stereo_44KHz.wav
4	65	4	4	2	I	1	0	1261	0	poli_8sides 7_whiteLine3.jpg	MediumShort_e22_cut1_stereo_44KHz.wav
4	66	2	1	0	C	2	1	1246	1	poli_8sides 8_whiteLine3.jpg	MediumShort_b16_cut3_MS_stereo_44KHz.wav
4	67	1	1	1	C	1	1	659	1	poli_8sides 2_whiteLine3.jpg	MediumShort_b16_cut3_MS_stereo_44KHz.wav
4	68	3	3	2	I	2	0	933	1	poli_8sides 3_whiteLine3.jpg	MediumShort_b10_cut1_MS_stereo_44KHz.wav
4	69	1	2	0	C	2	1	953	1	poli_8sides 2_whiteLine3.jpg	MediumShort_e16_cut1_stereo_44KHz.wav
4	70	3	4	2	I	2	0	839	1	poli_8sides 3_whiteLine3.jpg	MediumShort_e22_cut1_stereo_44KHz.wav
4	71	4	3	2	I	2	0	681	0	poli_8sides 7_whiteLine3.jpg	MediumShort_b10_cut1_MS_stereo_44KHz.wav
4	72	2	2	1	C	1	1	1402	1	poli_8sides 8_whiteLine3.jpg	MediumShort_e16_cut1_stereo_44KHz.wav
4	73	1	1	1	C	1	1	924	1	poli_8sides 2_whiteLine3.jpg	MediumShort_b16_cut3_MS_stereo_44KHz.wav
4	74	3	3	2	I	2	0	813	0	poli_8sides 3_whiteLine3.jpg	MediumShort_b10_cut1_MS_stereo_44KHz.wav
4	75	4	3	2	I	2	0	985	1	poli_8sides 7_whiteLine3.jpg	MediumShort_b10_cut1_MS_stereo_44KHz.wav
4	76	2	2	1	C	1	1	972	1	poli_8sides 8_whiteLine3.jpg	MediumShort_e16_cut1_stereo_44KHz.wav
4	77	3	4	2	I	2	0	1341	0	poli_8sides 3_whiteLine3.jpg	MediumShort_e22_cut1_stereo_44KHz.wav
4	78	1	2	0	C	2	1	629	1	poli_8sides 2_whiteLine3.jpg	MediumShort_e16_cut1_stereo_44KHz.wav
4	79	2	1	0	C	2	1	603	1	poli_8sides 8_whiteLine3.jpg	MediumShort_b16_cut3_MS_stereo_44KHz.wav
4	80	4	4	2	I	2	0	835	0	poli_8sides 7_whiteLine3.jpg	MediumShort_e22_cut1_stereo_44KHz.wav
4	81	2	2	1	C	1	1	1534	1	poli_8sides 8_whiteLine3.jpg	MediumShort_e16_cut1_stereo_44KHz.wav
4	82	3	4	2	I	2	0	1037	1	poli_8sides 3_whiteLine3.jpg	MediumShort_e22_cut1_stereo_44KHz.wav
4	83	4	4	2	I	2	0	855	1	poli_8sides 7_whiteLine3.jpg	MediumShort_e22_cut1_stereo_44KHz.wav
4	84	1	1	1	C	1	1	916	1	poli_8sides 2_whiteLine3.jpg	MediumShort_b16_cut3_MS_stereo_44KHz.wav
4	85	2	1	0	C	2	1	701	1	poli_8sides 8_whiteLine3.jpg	MediumShort_b16_cut3_MS_stereo_44KHz.wav
4	86	3	3	2	I	2	0	742	1	poli_8sides 3_whiteLine3.jpg	MediumShort_b10_cut1_MS_stereo_44KHz.wav
4	87	1	2	0	C	2	1	1167	1	poli_8sides 2_whiteLine3.jpg	MediumShort_e16_cut1_stereo_44KHz.wav
4	88	4	3	2	I	2	0	603	1	poli_8sides 7_whiteLine3.jpg	MediumShort_b10_cut1_MS_stereo_44KHz.wav
4	89	3	3	2	I	2	0	630	0	poli_8sides 3_whiteLine3.jpg	MediumShort_b10_cut1_MS_stereo_44KHz.wav
4	90	1	2	0	C	2	1	784	1	poli_8sides 2_whiteLine3.jpg	MediumShort_e16_cut1_stereo_44KHz.wav
4	91	2	1	0	C	2	1	1000	1	poli_8sides 8_whiteLine3.jpg	MediumShort_b16_cut3_MS_stereo_44KHz.wav
4	92	4	3	2	I	2	0	671	1	poli_8sides 7_whiteLine3.jpg	MediumShort_b10_cut1_MS_stereo_44KHz.wav
4	93	3	4	2	I	2	0	573	1	poli_8sides 3_whiteLine3.jpg	MediumShort_e22_cut1_stereo_44KHz.wav
4	94	2	2	1	C	1	1	1032	1	poli_8sides 8_whiteLine3.jpg	MediumShort_e16_cut1_stereo_44KHz.wav
4	95	1	1	1	C	1	1	1611	1	poli_8sides 2_whiteLine3.jpg	MediumShort_b16_cut3_MS_stereo_44KHz.wav
4	96	4	4	2	I	1	0	767	0	poli_8sides 7_whiteLine3.jpg	MediumShort_e22_cut1_stereo_44KHz.wav
4	97	1	2	0	C	2	1	908	1	poli_8sides 2_whiteLine3.jpg	MediumShort_e16_cut1_stereo_44KHz.wav
4	98	3	3	2	I	2	0	963	1	poli_8sides 3_whiteLine3.jpg	MediumShort_b10_cut1_MS_stereo_44KHz.wav
4	99	4	4	2	I	2	0	1376	1	poli_8sides 7_whiteLine3.jpg	MediumShort_e22_cut1_stereo_44KHz.wav
4	100	2	2	1	C	1	1	1295	1	poli_8sides 8_whiteLine3.jpg	MediumShort_e16_cut1_stereo_44KHz.wav
4	101	4	3	2	I	2	0	1071	0	poli_8sides 7_whiteLine3.jpg	MediumShort_b10_cut1_MS_stereo_44KHz.wav
4	102	1	1	1	C	2	0	1750	0	poli_8sides 2_whiteLine3.jpg	MediumShort_b16_cut3_MS_stereo_44KHz.wav
4	103	3	4	2	I	2	0	934	1	poli_8sides 3_whiteLine3.jpg	MediumShort_e22_cut1_stereo_44KHz.wav
4	104	2	1	0	C	1	0	358	0	poli_8sides 8_whiteLine3.jpg	MediumShort_b16_cut3_MS_stereo_44KHz.wav
4	105	4	4	2	I	2	0	908	0	poli_8sides 7_whiteLine3.jpg	MediumShort_e22_cut1_stereo_44KHz.wav
4	106	1	2	0	C	2	1	1182	1	poli_8sides 2_whiteLine3.jpg	MediumShort_e16_cut1_stereo_44KHz.wav
4	107	3	4	2	I	2	0	650	0	poli_8sides 3_whiteLine3.jpg	MediumShort_e22_cut1_stereo_44KHz.wav
4	108	2	1	0	C	2	1	581	1	poli_8sides 8_whiteLine3.jpg	MediumShort_b16_cut3_MS_stereo_44KHz.wav
4	109	1	1	1	C	1	1	875	1	poli_8sides 2_whiteLine3.jpg	MediumShort_b16_cut3_MS_stereo_44KHz.wav
4	110	4	3	2	I	2	0	698	1	poli_8sides 7_whiteLine3.jpg	MediumShort_b10_cut1_MS_stereo_44KHz.wav
4	111	2	2	1	C	1	1	1420	1	poli_8sides 8_whiteLine3.jpg	MediumShort_e16_cut1_stereo_44KHz.wav
4	112	3	3	2	I	2	0	820	1	poli_8sides 3_whiteLine3.jpg	MediumShort_b10_cut1_MS_stereo_44KHz.wav
4	113	2	1	0	C	2	1	1687	1	poli_8sides 8_whiteLine3.jpg	MediumShort_b16_cut3_MS_stereo_44KHz.wav
4	114	1	2	0	C	1	0	682	0	poli_8sides 2_whiteLine3.jpg	MediumShort_e16_cut1_stereo_44KHz.wav
4	115	4	3	2	I	2	0	847	1	poli_8sides 7_whiteLine3.jpg	MediumShort_b10_cut1_MS_stereo_44KHz.wav
4	116	3	4	2	I	2	0	1331	1	poli_8sides 3_whiteLine3.jpg	MediumShort_e22_cut1_stereo_44KHz.wav
4	117	2	2	1	C	1	1	1109	1	poli_8sides 8_whiteLine3.jpg	MediumShort_e16_cut1_stereo_44KHz.wav
4	118	3	3	2	I	2	0	812	0	poli_8sides 3_whiteLine3.jpg	MediumShort_b10_cut1_MS_stereo_44KHz.wav
4	119	4	4	2	I	0	0	0	0	poli_8sides 7_whiteLine3.jpg	MediumShort_e22_cut1_stereo_44KHz.wav
4	120	1	1	1	C	1	1	1552	1	poli_8sides 2_whiteLine3.jpg	MediumShort_b16_cut3_MS_stereo_44KHz.wav
4	121	3	3	2	I	2	0	858	1	poli_8sides 3_whiteLine3.jpg	MediumShort_b10_cut1_MS_stereo_44KHz.wav
4	122	4	3	2	I	2	0	756	0	poli_8sides 7_whiteLine3.jpg	MediumShort_b10_cut1_MS_stereo_44KHz.wav
4	123	2	1	0	C	2	1	1928	1	poli_8sides 8_whiteLine3.jpg	MediumShort_b16_cut3_MS_stereo_44KHz.wav
4	124	1	2	0	C	1	0	1118	0	poli_8sides 2_whiteLine3.jpg	MediumShort_e16_cut1_stereo_44KHz.wav
4	125	4	4	2	I	2	0	825	1	poli_8sides 7_whiteLine3.jpg	MediumShort_e22_cut1_stereo_44KHz.wav
4	126	1	1	1	C	1	1	1766	1	poli_8sides 2_whiteLine3.jpg	MediumShort_b16_cut3_MS_stereo_44KHz.wav
4	127	3	4	2	I	2	0	804	1	poli_8sides 3_whiteLine3.jpg	MediumShort_e22_cut1_stereo_44KHz.wav
4	128	2	2	1	C	1	1	1595	1	poli_8sides 8_whiteLine3.jpg	MediumShort_e16_cut1_stereo_44KHz.wav
4	129	4	4	2	I	1	0	999	1	poli_8sides 7_whiteLine3.jpg	MediumShort_e22_cut1_stereo_44KHz.wav
4	130	1	2	0	C	2	1	1847	1	poli_8sides 2_whiteLine3.jpg	MediumShort_e16_cut1_stereo_44KHz.wav
4	131	2	2	1	C	1	1	876	1	poli_8sides 8_whiteLine3.jpg	MediumShort_e16_cut1_stereo_44KHz.wav
4	132	3	3	2	I	2	0	867	0	poli_8sides 3_whiteLine3.jpg	MediumShort_b10_cut1_MS_stereo_44KHz.wav
4	133	4	3	2	I	1	0	1250	0	poli_8sides 7_whiteLine3.jpg	MediumShort_b10_cut1_MS_stereo_44KHz.wav
4	134	1	1	1	C	0	0	0	0	poli_8sides 2_whiteLine3.jpg	MediumShort_b16_cut3_MS_stereo_44KHz.wav
4	135	3	4	2	I	2	0	1102	0	poli_8sides 3_whiteLine3.jpg	MediumShort_e22_cut1_stereo_44KHz.wav
4	136	2	1	0	C	2	1	80	1	poli_8sides 8_whiteLine3.jpg	MediumShort_b16_cut3_MS_stereo_44KHz.wav
4	137	3	4	2	I	2	0	739	1	poli_8sides 3_whiteLine3.jpg	MediumShort_e22_cut1_stereo_44KHz.wav
4	138	2	2	1	C	1	1	966	1	poli_8sides 8_whiteLine3.jpg	MediumShort_e16_cut1_stereo_44KHz.wav
4	139	1	1	1	C	1	1	1053	1	poli_8sides 2_whiteLine3.jpg	MediumShort_b16_cut3_MS_stereo_44KHz.wav
4	140	4	3	2	I	2	0	692	1	poli_8sides 7_whiteLine3.jpg	MediumShort_b10_cut1_MS_stereo_44KHz.wav
4	141	2	1	0	C	2	1	854	1	poli_8sides 8_whiteLine3.jpg	MediumShort_b16_cut3_MS_stereo_44KHz.wav
4	142	4	4	2	I	2	0	1082	1	poli_8sides 7_whiteLine3.jpg	MediumShort_e22_cut1_stereo_44KHz.wav
4	143	3	3	2	I	2	0	1101	0	poli_8sides 3_whiteLine3.jpg	MediumShort_b10_cut1_MS_stereo_44KHz.wav
4	144	1	2	0	C	2	1	988	1	poli_8sides 2_whiteLine3.jpg	MediumShort_e16_cut1_stereo_44KHz.wav
4	145	3	3	2	I	2	0	673	1	poli_8sides 3_whiteLine3.jpg	MediumShort_b10_cut1_MS_stereo_44KHz.wav
4	146	1	1	1	C	1	1	1063	1	poli_8sides 2_whiteLine3.jpg	MediumShort_b16_cut3_MS_stereo_44KHz.wav
4	147	4	3	2	I	2	0	717	1	poli_8sides 7_whiteLine3.jpg	MediumShort_b10_cut1_MS_stereo_44KHz.wav
4	148	2	2	1	C	1	1	1512	1	poli_8sides 8_whiteLine3.jpg	MediumShort_e16_cut1_stereo_44KHz.wav
4	149	3	4	2	I	2	0	697	0	poli_8sides 3_whiteLine3.jpg	MediumShort_e22_cut1_stereo_44KHz.wav
4	150	2	1	0	C	2	1	1489	1	poli_8sides 8_whiteLine3.jpg	MediumShort_b16_cut3_MS_stereo_44KHz.wav
4	151	4	4	2	I	2	0	1217	0	poli_8sides 7_whiteLine3.jpg	MediumShort_e22_cut1_stereo_44KHz.wav
4	152	1	2	0	C	2	1	719	1	poli_8sides 2_whiteLine3.jpg	MediumShort_e16_cut1_stereo_44KHz.wav
4	153	3	4	2	I	2	0	634	0	poli_8sides 3_whiteLine3.jpg	MediumShort_e22_cut1_stereo_44KHz.wav
4	154	2	2	1	C	1	1	1414	1	poli_8sides 8_whiteLine3.jpg	MediumShort_e16_cut1_stereo_44KHz.wav
4	155	4	4	2	I	2	0	708	0	poli_8sides 7_whiteLine3.jpg	MediumShort_e22_cut1_stereo_44KHz.wav
4	156	1	1	1	C	2	0	976	0	poli_8sides 2_whiteLine3.jpg	MediumShort_b16_cut3_MS_stereo_44KHz.wav
4	157	4	3	2	I	2	0	666	0	poli_8sides 7_whiteLine3.jpg	MediumShort_b10_cut1_MS_stereo_44KHz.wav
4	158	1	2	0	C	2	1	728	1	poli_8sides 2_whiteLine3.jpg	MediumShort_e16_cut1_stereo_44KHz.wav
4	159	2	1	0	C	2	1	927	1	poli_8sides 8_whiteLine3.jpg	MediumShort_b16_cut3_MS_stereo_44KHz.wav
4	160	3	3	2	I	2	0	704	1	poli_8sides 3_whiteLine3.jpg	MediumShort_b10_cut1_MS_stereo_44KHz.wav
4	161	1	1	1	C	1	1	1173	1	poli_8sides 2_whiteLine3.jpg	MediumShort_b16_cut3_MS_stereo_44KHz.wav
4	162	2	1	0	C	2	1	939	1	poli_8sides 8_whiteLine3.jpg	MediumShort_b16_cut3_MS_stereo_44KHz.wav
4	163	3	3	2	I	2	0	485	1	poli_8sides 3_whiteLine3.jpg	MediumShort_b10_cut1_MS_stereo_44KHz.wav
4	164	4	4	2	I	2	0	815	0	poli_8sides 7_whiteLine3.jpg	MediumShort_e22_cut1_stereo_44KHz.wav
4	165	1	2	0	C	2	1	1573	1	poli_8sides 2_whiteLine3.jpg	MediumShort_e16_cut1_stereo_44KHz.wav
4	166	3	4	2	I	2	0	639	0	poli_8sides 3_whiteLine3.jpg	MediumShort_e22_cut1_stereo_44KHz.wav
4	167	2	2	1	C	1	1	1224	1	poli_8sides 8_whiteLine3.jpg	MediumShort_e16_cut1_stereo_44KHz.wav
4	168	4	3	2	I	2	0	650	0	poli_8sides 7_whiteLine3.jpg	MediumShort_b10_cut1_MS_stereo_44KHz.wav
4	169	2	1	0	C	2	1	1470	1	poli_8sides 8_whiteLine3.jpg	MediumShort_b16_cut3_MS_stereo_44KHz.wav
4	170	4	4	2	I	2	0	1465	0	poli_8sides 7_whiteLine3.jpg	MediumShort_e22_cut1_stereo_44KHz.wav
4	171	1	1	1	C	0	0	0	0	poli_8sides 2_whiteLine3.jpg	MediumShort_b16_cut3_MS_stereo_44KHz.wav
4	172	3	3	2	I	2	0	623	0	poli_8sides 3_whiteLine3.jpg	MediumShort_b10_cut1_MS_stereo_44KHz.wav
4	173	1	2	0	C	2	1	1058	1	poli_8sides 2_whiteLine3.jpg	MediumShort_e16_cut1_stereo_44KHz.wav
4	174	3	4	2	I	2	0	738	1	poli_8sides 3_whiteLine3.jpg	MediumShort_e22_cut1_stereo_44KHz.wav
4	175	4	3	2	I	2	0	802	0	poli_8sides 7_whiteLine3.jpg	MediumShort_b10_cut1_MS_stereo_44KHz.wav
4	176	2	2	1	C	1	1	1674	1	poli_8sides 8_whiteLine3.jpg	MediumShort_e16_cut1_stereo_44KHz.wav
4	177	1	1	1	C	1	1	1163	1	poli_8sides 2_whiteLine3.jpg	MediumShort_b16_cut3_MS_stereo_44KHz.wav
4	178	4	3	2	I	2	0	582	0	poli_8sides 7_whiteLine3.jpg	MediumShort_b10_cut1_MS_stereo_44KHz.wav
4	179	3	3	2	I	1	0	829	0	poli_8sides 3_whiteLine3.jpg	MediumShort_b10_cut1_MS_stereo_44KHz.wav
4	180	2	2	1	C	1	1	1889	1	poli_8sides 8_whiteLine3.jpg	MediumShort_e16_cut1_stereo_44KHz.wav
4	181	4	4	2	I	2	0	1101	1	poli_8sides 7_whiteLine3.jpg	MediumShort_e22_cut1_stereo_44KHz.wav
4	182	2	1	0	C	2	1	1932	1	poli_8sides 8_whiteLine3.jpg	MediumShort_b16_cut3_MS_stereo_44KHz.wav
4	183	3	4	2	I	2	0	635	0	poli_8sides 3_whiteLine3.jpg	MediumShort_e22_cut1_stereo_44KHz.wav
4	184	1	2	0	C	2	1	1359	1	poli_8sides 2_whiteLine3.jpg	MediumShort_e16_cut1_stereo_44KHz.wav
4	185	2	1	0	C	2	1	849	1	poli_8sides 8_whiteLine3.jpg	MediumShort_b16_cut3_MS_stereo_44KHz.wav
4	186	4	3	2	I	2	0	732	1	poli_8sides 7_whiteLine3.jpg	MediumShort_b10_cut1_MS_stereo_44KHz.wav
4	187	3	3	2	I	2	0	245	1	poli_8sides 3_whiteLine3.jpg	MediumShort_b10_cut1_MS_stereo_44KHz.wav
4	188	1	1	1	C	1	1	868	1	poli_8sides 2_whiteLine3.jpg	MediumShort_b16_cut3_MS_stereo_44KHz.wav
4	189	3	4	2	I	2	0	659	0	poli_8sides 3_whiteLine3.jpg	MediumShort_e22_cut1_stereo_44KHz.wav
4	190	4	4	2	I	1	0	1057	1	poli_8sides 7_whiteLine3.jpg	MediumShort_e22_cut1_stereo_44KHz.wav
4	191	2	2	1	C	1	1	1044	1	poli_8sides 8_whiteLine3.jpg	MediumShort_e16_cut1_stereo_44KHz.wav
4	192	1	2	0	C	2	1	729	1	poli_8sides 2_whiteLine3.jpg	MediumShort_e16_cut1_stereo_44KHz.wav
4	193	4	4	2	I	2	0	761	0	poli_8sides 7_whiteLine3.jpg	MediumShort_e22_cut1_stereo_44KHz.wav
4	194	2	2	1	C	1	1	881	1	poli_8sides 8_whiteLine3.jpg	MediumShort_e16_cut1_stereo_44KHz.wav
4	195	3	3	2	I	2	0	1616	1	poli_8sides 3_whiteLine3.jpg	MediumShort_b10_cut1_MS_stereo_44KHz.wav
4	196	1	1	1	C	1	1	1494	1	poli_8sides 2_whiteLine3.jpg	MediumShort_b16_cut3_MS_stereo_44KHz.wav
4	197	2	1	0	C	2	1	573	1	poli_8sides 8_whiteLine3.jpg	MediumShort_b16_cut3_MS_stereo_44KHz.wav
4	198	1	2	0	C	1	0	1755	0	poli_8sides 2_whiteLine3.jpg	MediumShort_e16_cut1_stereo_44KHz.wav
4	199	4	3	2	I	2	0	612	0	poli_8sides 7_whiteLine3.jpg	MediumShort_b10_cut1_MS_stereo_44KHz.wav
4	200	3	4	2	I	2	0	670	0	poli_8sides 3_whiteLine3.jpg	MediumShort_e22_cut1_stereo_44KHz.wav
