block	trial	Vstim	Astim	match	C/I	resp	result	RT	fb	V-file	A-file
LR

0	1	1	1	1	C	2	1	1386	1	Ⴋ	cut_ee_stereo_44KHz.wav
0	2	2	4	0	C	1	1	944	1	Ⴢ	cut_g_stereo_44KHz.wav
0	3	2	3	1	C	2	1	1563	1	Ⴢ	cut_oo_stereo_44KHz.wav
0	4	1	2	0	C	0	0	0	0	Ⴋ	cut_eeuw_stereo_44KHz.wav
0	5	1	2	0	C	2	0	1089	0	Ⴋ	cut_eeuw_stereo_44KHz.wav
0	6	2	4	0	C	1	1	928	1	Ⴢ	cut_g_stereo_44KHz.wav
0	7	2	3	1	C	2	1	1068	1	Ⴢ	cut_oo_stereo_44KHz.wav
0	8	1	1	1	C	2	1	1270	1	Ⴋ	cut_ee_stereo_44KHz.wav
0	9	2	3	1	C	2	1	1634	1	Ⴢ	cut_oo_stereo_44KHz.wav
0	10	1	1	1	C	2	1	1054	1	Ⴋ	cut_ee_stereo_44KHz.wav
0	11	1	2	0	C	1	1	951	1	Ⴋ	cut_eeuw_stereo_44KHz.wav
0	12	2	4	0	C	1	1	1111	1	Ⴢ	cut_g_stereo_44KHz.wav
0	13	1	1	1	C	2	1	920	1	Ⴋ	cut_ee_stereo_44KHz.wav
0	14	1	2	0	C	1	1	923	1	Ⴋ	cut_eeuw_stereo_44KHz.wav
0	15	2	4	0	C	1	1	583	1	Ⴢ	cut_g_stereo_44KHz.wav
0	16	2	3	1	C	2	1	858	1	Ⴢ	cut_oo_stereo_44KHz.wav
0	17	2	4	0	C	1	1	1141	1	Ⴢ	cut_g_stereo_44KHz.wav
0	18	1	1	1	C	2	1	787	1	Ⴋ	cut_ee_stereo_44KHz.wav
0	19	1	2	0	C	1	1	941	1	Ⴋ	cut_eeuw_stereo_44KHz.wav
0	20	2	3	1	C	2	1	818	1	Ⴢ	cut_oo_stereo_44KHz.wav
0	21	1	1	1	C	2	1	994	1	Ⴋ	cut_ee_stereo_44KHz.wav
0	22	2	4	0	C	1	1	798	1	Ⴢ	cut_g_stereo_44KHz.wav
0	23	1	2	0	C	1	1	926	1	Ⴋ	cut_eeuw_stereo_44KHz.wav
0	24	2	3	1	C	2	1	1336	1	Ⴢ	cut_oo_stereo_44KHz.wav
0	25	1	2	0	C	1	1	865	1	Ⴋ	cut_eeuw_stereo_44KHz.wav
0	26	1	1	1	C	2	1	842	1	Ⴋ	cut_ee_stereo_44KHz.wav
0	27	2	4	0	C	1	1	856	1	Ⴢ	cut_g_stereo_44KHz.wav
0	28	2	3	1	C	2	1	911	1	Ⴢ	cut_oo_stereo_44KHz.wav
0	29	2	4	0	C	1	1	925	1	Ⴢ	cut_g_stereo_44KHz.wav
0	30	1	2	0	C	1	1	1347	1	Ⴋ	cut_eeuw_stereo_44KHz.wav
avg_resp = 1024
1	1	2	1	0	C	1	1	1441	1	Ⴁ	cut_ei_stereo_44KHz.wav
1	2	4	3	2	I	2	0	1153	1	Ⴇ	cut_ui_stereo_44KHz.wav
1	3	1	2	0	C	1	1	997	1	Ⴃ	cut_oei_stereo_44KHz.wav
1	4	3	4	2	I	2	0	1199	0	Ⴟ	cut_s_stereo_44KHz.wav
1	5	2	2	1	C	2	1	1402	1	Ⴁ	cut_oei_stereo_44KHz.wav
1	6	4	4	2	I	2	0	1013	1	Ⴇ	cut_s_stereo_44KHz.wav
1	7	3	3	2	I	2	0	835	0	Ⴟ	cut_ui_stereo_44KHz.wav
1	8	1	1	1	C	2	1	1115	1	Ⴃ	cut_ei_stereo_44KHz.wav
1	9	2	1	0	C	1	1	825	1	Ⴁ	cut_ei_stereo_44KHz.wav
1	10	3	3	2	I	1	0	1529	0	Ⴟ	cut_ui_stereo_44KHz.wav
1	11	4	4	2	I	2	0	948	0	Ⴇ	cut_s_stereo_44KHz.wav
1	12	1	2	0	C	1	1	1011	1	Ⴃ	cut_oei_stereo_44KHz.wav
1	13	3	4	2	I	1	0	1308	0	Ⴟ	cut_s_stereo_44KHz.wav
1	14	4	3	2	I	1	0	1679	0	Ⴇ	cut_ui_stereo_44KHz.wav
1	15	1	1	1	C	2	1	959	1	Ⴃ	cut_ei_stereo_44KHz.wav
1	16	2	2	1	C	2	1	1024	1	Ⴁ	cut_oei_stereo_44KHz.wav
1	17	3	4	2	I	2	0	1588	0	Ⴟ	cut_s_stereo_44KHz.wav
1	18	1	1	1	C	2	1	916	1	Ⴃ	cut_ei_stereo_44KHz.wav
1	19	2	1	0	C	0	0	0	0	Ⴁ	cut_ei_stereo_44KHz.wav
1	20	4	4	2	I	1	0	1266	1	Ⴇ	cut_s_stereo_44KHz.wav
1	21	2	2	1	C	1	0	1170	0	Ⴁ	cut_oei_stereo_44KHz.wav
1	22	1	2	0	C	1	1	1006	1	Ⴃ	cut_oei_stereo_44KHz.wav
1	23	3	3	2	I	2	0	836	1	Ⴟ	cut_ui_stereo_44KHz.wav
1	24	4	3	2	I	2	0	1595	0	Ⴇ	cut_ui_stereo_44KHz.wav
1	25	3	3	2	I	2	0	1011	1	Ⴟ	cut_ui_stereo_44KHz.wav
1	26	4	4	2	I	1	0	965	1	Ⴇ	cut_s_stereo_44KHz.wav
1	27	2	2	1	C	2	1	1251	1	Ⴁ	cut_oei_stereo_44KHz.wav
1	28	1	2	0	C	1	1	1030	1	Ⴃ	cut_oei_stereo_44KHz.wav
1	29	4	3	2	I	2	0	1793	0	Ⴇ	cut_ui_stereo_44KHz.wav
1	30	1	1	1	C	0	0	0	0	Ⴃ	cut_ei_stereo_44KHz.wav
1	31	2	1	0	C	1	1	920	1	Ⴁ	cut_ei_stereo_44KHz.wav
1	32	3	4	2	I	2	0	1353	0	Ⴟ	cut_s_stereo_44KHz.wav
1	33	1	1	1	C	2	1	922	1	Ⴃ	cut_ei_stereo_44KHz.wav
1	34	4	3	2	I	2	0	1041	0	Ⴇ	cut_ui_stereo_44KHz.wav
1	35	2	1	0	C	1	1	1170	1	Ⴁ	cut_ei_stereo_44KHz.wav
1	36	3	4	2	I	1	0	1274	1	Ⴟ	cut_s_stereo_44KHz.wav
1	37	4	4	2	I	2	0	1196	1	Ⴇ	cut_s_stereo_44KHz.wav
1	38	1	2	0	C	1	1	934	1	Ⴃ	cut_oei_stereo_44KHz.wav
1	39	3	3	2	I	2	0	1020	1	Ⴟ	cut_ui_stereo_44KHz.wav
1	40	2	2	1	C	1	0	1092	0	Ⴁ	cut_oei_stereo_44KHz.wav
1	41	4	4	2	I	2	0	1362	1	Ⴇ	cut_s_stereo_44KHz.wav
1	42	2	2	1	C	1	0	670	0	Ⴁ	cut_oei_stereo_44KHz.wav
1	43	1	1	1	C	0	0	0	0	Ⴃ	cut_ei_stereo_44KHz.wav
1	44	3	4	2	I	1	0	871	1	Ⴟ	cut_s_stereo_44KHz.wav
1	45	1	2	0	C	1	1	963	1	Ⴃ	cut_oei_stereo_44KHz.wav
1	46	2	1	0	C	1	1	997	1	Ⴁ	cut_ei_stereo_44KHz.wav
1	47	3	3	2	I	2	0	1048	1	Ⴟ	cut_ui_stereo_44KHz.wav
1	48	4	3	2	I	1	0	1214	1	Ⴇ	cut_ui_stereo_44KHz.wav
1	49	1	1	1	C	2	1	934	1	Ⴃ	cut_ei_stereo_44KHz.wav
1	50	3	4	2	I	1	0	1087	1	Ⴟ	cut_s_stereo_44KHz.wav
1	51	4	4	2	I	2	0	887	1	Ⴇ	cut_s_stereo_44KHz.wav
1	52	2	1	0	C	1	1	720	1	Ⴁ	cut_ei_stereo_44KHz.wav
1	53	1	2	0	C	1	1	1275	1	Ⴃ	cut_oei_stereo_44KHz.wav
1	54	4	3	2	I	2	0	865	0	Ⴇ	cut_ui_stereo_44KHz.wav
1	55	2	2	1	C	2	1	1633	1	Ⴁ	cut_oei_stereo_44KHz.wav
1	56	3	3	2	I	2	0	1014	1	Ⴟ	cut_ui_stereo_44KHz.wav
1	57	1	1	1	C	2	1	1331	1	Ⴃ	cut_ei_stereo_44KHz.wav
1	58	4	3	2	I	2	0	1468	0	Ⴇ	cut_ui_stereo_44KHz.wav
1	59	3	4	2	I	1	0	1112	1	Ⴟ	cut_s_stereo_44KHz.wav
1	60	2	2	1	C	2	1	997	1	Ⴁ	cut_oei_stereo_44KHz.wav
1	61	3	3	2	I	2	0	802	1	Ⴟ	cut_ui_stereo_44KHz.wav
1	62	4	4	2	I	2	0	1426	0	Ⴇ	cut_s_stereo_44KHz.wav
1	63	2	1	0	C	1	1	781	1	Ⴁ	cut_ei_stereo_44KHz.wav
1	64	1	2	0	C	1	1	880	1	Ⴃ	cut_oei_stereo_44KHz.wav
1	65	4	4	2	I	1	0	779	1	Ⴇ	cut_s_stereo_44KHz.wav
1	66	1	1	1	C	2	1	1132	1	Ⴃ	cut_ei_stereo_44KHz.wav
1	67	3	4	2	I	1	0	1350	1	Ⴟ	cut_s_stereo_44KHz.wav
1	68	2	2	1	C	2	1	988	1	Ⴁ	cut_oei_stereo_44KHz.wav
1	69	1	2	0	C	1	1	1021	1	Ⴃ	cut_oei_stereo_44KHz.wav
1	70	2	1	0	C	1	1	872	1	Ⴁ	cut_ei_stereo_44KHz.wav
1	71	4	3	2	I	2	0	1238	0	Ⴇ	cut_ui_stereo_44KHz.wav
1	72	3	3	2	I	0	0	0	0	Ⴟ	cut_ui_stereo_44KHz.wav
1	73	2	2	1	C	2	1	777	1	Ⴁ	cut_oei_stereo_44KHz.wav
1	74	3	4	2	I	1	0	770	0	Ⴟ	cut_s_stereo_44KHz.wav
1	75	4	3	2	I	1	0	1467	1	Ⴇ	cut_ui_stereo_44KHz.wav
1	76	1	2	0	C	1	1	975	1	Ⴃ	cut_oei_stereo_44KHz.wav
1	77	4	4	2	I	2	0	1111	1	Ⴇ	cut_s_stereo_44KHz.wav
1	78	3	3	2	I	1	0	1504	0	Ⴟ	cut_ui_stereo_44KHz.wav
1	79	2	1	0	C	2	0	808	0	Ⴁ	cut_ei_stereo_44KHz.wav
1	80	1	1	1	C	2	1	850	1	Ⴃ	cut_ei_stereo_44KHz.wav
1	81	2	1	0	C	1	1	996	1	Ⴁ	cut_ei_stereo_44KHz.wav
1	82	3	3	2	I	2	0	875	0	Ⴟ	cut_ui_stereo_44KHz.wav
1	83	1	2	0	C	1	1	1428	1	Ⴃ	cut_oei_stereo_44KHz.wav
1	84	4	4	2	I	2	0	1270	1	Ⴇ	cut_s_stereo_44KHz.wav
1	85	2	2	1	C	1	0	1166	0	Ⴁ	cut_oei_stereo_44KHz.wav
1	86	1	1	1	C	2	1	928	1	Ⴃ	cut_ei_stereo_44KHz.wav
1	87	4	3	2	I	1	0	1364	0	Ⴇ	cut_ui_stereo_44KHz.wav
1	88	3	4	2	I	2	0	258	0	Ⴟ	cut_s_stereo_44KHz.wav
1	89	1	1	1	C	2	1	1712	1	Ⴃ	cut_ei_stereo_44KHz.wav
1	90	3	3	2	I	2	0	778	1	Ⴟ	cut_ui_stereo_44KHz.wav
1	91	2	1	0	C	1	1	799	1	Ⴁ	cut_ei_stereo_44KHz.wav
1	92	4	3	2	I	1	0	997	0	Ⴇ	cut_ui_stereo_44KHz.wav
1	93	3	4	2	I	1	0	863	0	Ⴟ	cut_s_stereo_44KHz.wav
1	94	2	2	1	C	2	1	903	1	Ⴁ	cut_oei_stereo_44KHz.wav
1	95	4	4	2	I	1	0	1500	1	Ⴇ	cut_s_stereo_44KHz.wav
1	96	1	2	0	C	2	0	638	0	Ⴃ	cut_oei_stereo_44KHz.wav
1	97	2	1	0	C	1	1	586	1	Ⴁ	cut_ei_stereo_44KHz.wav
1	98	3	3	2	I	2	0	1000	0	Ⴟ	cut_ui_stereo_44KHz.wav
1	99	1	2	0	C	1	1	1138	1	Ⴃ	cut_oei_stereo_44KHz.wav
1	100	4	4	2	I	1	0	875	1	Ⴇ	cut_s_stereo_44KHz.wav
1	101	2	2	1	C	1	0	709	0	Ⴁ	cut_oei_stereo_44KHz.wav
1	102	4	3	2	I	2	0	1171	1	Ⴇ	cut_ui_stereo_44KHz.wav
1	103	1	1	1	C	2	1	1385	1	Ⴃ	cut_ei_stereo_44KHz.wav
1	104	3	4	2	I	1	0	892	1	Ⴟ	cut_s_stereo_44KHz.wav
1	105	1	1	1	C	2	1	1317	1	Ⴃ	cut_ei_stereo_44KHz.wav
1	106	4	4	2	I	1	0	991	0	Ⴇ	cut_s_stereo_44KHz.wav
1	107	2	2	1	C	2	1	1654	1	Ⴁ	cut_oei_stereo_44KHz.wav
1	108	3	4	2	I	1	0	923	0	Ⴟ	cut_s_stereo_44KHz.wav
1	109	4	3	2	I	1	0	1402	0	Ⴇ	cut_ui_stereo_44KHz.wav
1	110	1	2	0	C	1	1	840	1	Ⴃ	cut_oei_stereo_44KHz.wav
1	111	3	3	2	I	2	0	1062	0	Ⴟ	cut_ui_stereo_44KHz.wav
1	112	2	1	0	C	1	1	1108	1	Ⴁ	cut_ei_stereo_44KHz.wav
1	113	1	2	0	C	1	1	737	1	Ⴃ	cut_oei_stereo_44KHz.wav
1	114	4	3	2	I	2	0	800	1	Ⴇ	cut_ui_stereo_44KHz.wav
1	115	2	2	1	C	2	1	1239	1	Ⴁ	cut_oei_stereo_44KHz.wav
1	116	3	4	2	I	1	0	847	1	Ⴟ	cut_s_stereo_44KHz.wav
1	117	1	1	1	C	2	1	820	1	Ⴃ	cut_ei_stereo_44KHz.wav
1	118	2	1	0	C	1	1	773	1	Ⴁ	cut_ei_stereo_44KHz.wav
1	119	3	3	2	I	2	0	1490	0	Ⴟ	cut_ui_stereo_44KHz.wav
1	120	4	4	2	I	2	0	1326	0	Ⴇ	cut_s_stereo_44KHz.wav
1	121	2	2	1	C	2	1	995	1	Ⴁ	cut_oei_stereo_44KHz.wav
1	122	4	3	2	I	2	0	852	0	Ⴇ	cut_ui_stereo_44KHz.wav
1	123	3	3	2	I	2	0	661	0	Ⴟ	cut_ui_stereo_44KHz.wav
1	124	1	2	0	C	1	1	660	1	Ⴃ	cut_oei_stereo_44KHz.wav
1	125	4	4	2	I	2	0	900	0	Ⴇ	cut_s_stereo_44KHz.wav
1	126	2	1	0	C	1	1	757	1	Ⴁ	cut_ei_stereo_44KHz.wav
1	127	1	1	1	C	1	0	547	0	Ⴃ	cut_ei_stereo_44KHz.wav
1	128	3	4	2	I	1	0	1052	0	Ⴟ	cut_s_stereo_44KHz.wav
1	129	2	1	0	C	1	1	805	1	Ⴁ	cut_ei_stereo_44KHz.wav
1	130	1	1	1	C	2	1	912	1	Ⴃ	cut_ei_stereo_44KHz.wav
1	131	4	4	2	I	2	0	799	0	Ⴇ	cut_s_stereo_44KHz.wav
1	132	3	4	2	I	1	0	879	0	Ⴟ	cut_s_stereo_44KHz.wav
1	133	4	3	2	I	2	0	967	0	Ⴇ	cut_ui_stereo_44KHz.wav
1	134	3	3	2	I	2	0	1947	0	Ⴟ	cut_ui_stereo_44KHz.wav
1	135	1	2	0	C	1	1	712	1	Ⴃ	cut_oei_stereo_44KHz.wav
1	136	2	2	1	C	2	1	877	1	Ⴁ	cut_oei_stereo_44KHz.wav
1	137	4	3	2	I	2	0	958	0	Ⴇ	cut_ui_stereo_44KHz.wav
1	138	1	1	1	C	2	1	1362	1	Ⴃ	cut_ei_stereo_44KHz.wav
1	139	3	4	2	I	1	0	923	1	Ⴟ	cut_s_stereo_44KHz.wav
1	140	2	1	0	C	1	1	1119	1	Ⴁ	cut_ei_stereo_44KHz.wav
1	141	3	3	2	I	2	0	692	0	Ⴟ	cut_ui_stereo_44KHz.wav
1	142	1	2	0	C	1	1	1701	1	Ⴃ	cut_oei_stereo_44KHz.wav
1	143	2	2	1	C	2	1	847	1	Ⴁ	cut_oei_stereo_44KHz.wav
1	144	4	4	2	I	1	0	1135	1	Ⴇ	cut_s_stereo_44KHz.wav
1	145	3	3	2	I	2	0	1006	1	Ⴟ	cut_ui_stereo_44KHz.wav
1	146	2	1	0	C	1	1	1189	1	Ⴁ	cut_ei_stereo_44KHz.wav
1	147	4	4	2	I	2	0	940	0	Ⴇ	cut_s_stereo_44KHz.wav
1	148	1	2	0	C	1	1	963	1	Ⴃ	cut_oei_stereo_44KHz.wav
1	149	2	2	1	C	1	0	770	0	Ⴁ	cut_oei_stereo_44KHz.wav
1	150	3	4	2	I	1	0	1169	1	Ⴟ	cut_s_stereo_44KHz.wav
1	151	4	3	2	I	2	0	942	0	Ⴇ	cut_ui_stereo_44KHz.wav
1	152	1	1	1	C	2	1	1245	1	Ⴃ	cut_ei_stereo_44KHz.wav
1	153	3	4	2	I	2	0	1057	0	Ⴟ	cut_s_stereo_44KHz.wav
1	154	4	3	2	I	1	0	1371	1	Ⴇ	cut_ui_stereo_44KHz.wav
1	155	2	1	0	C	1	1	866	1	Ⴁ	cut_ei_stereo_44KHz.wav
1	156	1	1	1	C	2	1	1313	1	Ⴃ	cut_ei_stereo_44KHz.wav
1	157	4	4	2	I	1	0	1247	1	Ⴇ	cut_s_stereo_44KHz.wav
1	158	3	3	2	I	2	0	1758	1	Ⴟ	cut_ui_stereo_44KHz.wav
1	159	2	2	1	C	2	1	923	1	Ⴁ	cut_oei_stereo_44KHz.wav
1	160	1	2	0	C	1	1	848	1	Ⴃ	cut_oei_stereo_44KHz.wav
1	161	3	3	2	I	1	0	1310	1	Ⴟ	cut_ui_stereo_44KHz.wav
1	162	4	4	2	I	2	0	1246	1	Ⴇ	cut_s_stereo_44KHz.wav
1	163	1	1	1	C	2	1	941	1	Ⴃ	cut_ei_stereo_44KHz.wav
1	164	2	2	1	C	2	1	885	1	Ⴁ	cut_oei_stereo_44KHz.wav
1	165	4	3	2	I	2	0	1087	1	Ⴇ	cut_ui_stereo_44KHz.wav
1	166	2	1	0	C	1	1	1142	1	Ⴁ	cut_ei_stereo_44KHz.wav
1	167	3	4	2	I	2	0	1453	1	Ⴟ	cut_s_stereo_44KHz.wav
1	168	1	2	0	C	1	1	870	1	Ⴃ	cut_oei_stereo_44KHz.wav
1	169	3	4	2	I	2	0	914	1	Ⴟ	cut_s_stereo_44KHz.wav
1	170	2	2	1	C	2	1	946	1	Ⴁ	cut_oei_stereo_44KHz.wav
1	171	4	4	2	I	1	0	1381	1	Ⴇ	cut_s_stereo_44KHz.wav
1	172	1	2	0	C	1	1	871	1	Ⴃ	cut_oei_stereo_44KHz.wav
1	173	3	3	2	I	1	0	1103	1	Ⴟ	cut_ui_stereo_44KHz.wav
1	174	2	1	0	C	1	1	795	1	Ⴁ	cut_ei_stereo_44KHz.wav
1	175	4	3	2	I	2	0	1638	0	Ⴇ	cut_ui_stereo_44KHz.wav
1	176	1	1	1	C	2	1	1542	1	Ⴃ	cut_ei_stereo_44KHz.wav
1	177	4	4	2	I	1	0	1496	1	Ⴇ	cut_s_stereo_44KHz.wav
1	178	1	1	1	C	2	1	1039	1	Ⴃ	cut_ei_stereo_44KHz.wav
1	179	2	1	0	C	1	1	867	1	Ⴁ	cut_ei_stereo_44KHz.wav
1	180	3	3	2	I	1	0	1283	1	Ⴟ	cut_ui_stereo_44KHz.wav
1	181	4	3	2	I	2	0	1297	1	Ⴇ	cut_ui_stereo_44KHz.wav
1	182	3	4	2	I	0	0	0	0	Ⴟ	cut_s_stereo_44KHz.wav
1	183	2	2	1	C	2	1	962	1	Ⴁ	cut_oei_stereo_44KHz.wav
1	184	1	2	0	C	1	1	771	1	Ⴃ	cut_oei_stereo_44KHz.wav
1	185	3	4	2	I	2	0	1680	0	Ⴟ	cut_s_stereo_44KHz.wav
1	186	1	2	0	C	1	1	637	1	Ⴃ	cut_oei_stereo_44KHz.wav
1	187	2	2	1	C	2	1	801	1	Ⴁ	cut_oei_stereo_44KHz.wav
1	188	4	3	2	I	2	0	1175	1	Ⴇ	cut_ui_stereo_44KHz.wav
1	189	2	1	0	C	1	1	779	1	Ⴁ	cut_ei_stereo_44KHz.wav
1	190	3	3	2	I	2	0	1758	1	Ⴟ	cut_ui_stereo_44KHz.wav
1	191	4	4	2	I	1	0	1911	0	Ⴇ	cut_s_stereo_44KHz.wav
1	192	1	1	1	C	2	1	1286	1	Ⴃ	cut_ei_stereo_44KHz.wav
1	193	4	3	2	I	1	0	1242	0	Ⴇ	cut_ui_stereo_44KHz.wav
1	194	1	1	1	C	0	0	0	0	Ⴃ	cut_ei_stereo_44KHz.wav
1	195	2	2	1	C	2	1	1628	1	Ⴁ	cut_oei_stereo_44KHz.wav
1	196	3	3	2	I	1	0	1356	0	Ⴟ	cut_ui_stereo_44KHz.wav
1	197	1	2	0	C	1	1	825	1	Ⴃ	cut_oei_stereo_44KHz.wav
1	198	4	4	2	I	1	0	896	0	Ⴇ	cut_s_stereo_44KHz.wav
1	199	2	1	0	C	1	1	996	1	Ⴁ	cut_ei_stereo_44KHz.wav
1	200	3	4	2	I	1	0	769	0	Ⴟ	cut_s_stereo_44KHz.wav
2	1	3	4	2	I	1	0	1503	0	Ⴏ	cut_j_stereo_44KHz.wav
2	2	2	1	0	C	2	0	1190	0	Ⴕ	cut_r_stereo_44KHz.wav
2	3	4	4	2	I	1	0	1031	0	Ⴔ	cut_j_stereo_44KHz.wav
2	4	1	1	1	C	1	0	1302	0	Ⴉ	cut_r_stereo_44KHz.wav
2	5	3	3	2	I	1	0	970	0	Ⴏ	cut_n_stereo_44KHz.wav
2	6	4	3	2	I	1	0	525	1	Ⴔ	cut_n_stereo_44KHz.wav
2	7	1	2	0	C	1	1	1937	1	Ⴉ	cut_f_stereo_44KHz.wav
2	8	2	2	1	C	2	1	1319	1	Ⴕ	cut_f_stereo_44KHz.wav
2	9	4	3	2	I	1	0	752	0	Ⴔ	cut_n_stereo_44KHz.wav
2	10	1	1	1	C	1	0	1591	0	Ⴉ	cut_r_stereo_44KHz.wav
2	11	2	2	1	C	2	1	1277	1	Ⴕ	cut_f_stereo_44KHz.wav
2	12	3	3	2	I	2	0	1542	1	Ⴏ	cut_n_stereo_44KHz.wav
2	13	4	4	2	I	2	0	954	1	Ⴔ	cut_j_stereo_44KHz.wav
2	14	3	4	2	I	1	0	992	0	Ⴏ	cut_j_stereo_44KHz.wav
2	15	2	1	0	C	2	0	779	0	Ⴕ	cut_r_stereo_44KHz.wav
2	16	1	2	0	C	1	1	927	1	Ⴉ	cut_f_stereo_44KHz.wav
2	17	3	4	2	I	2	0	1101	1	Ⴏ	cut_j_stereo_44KHz.wav
2	18	4	3	2	I	1	0	875	1	Ⴔ	cut_n_stereo_44KHz.wav
2	19	2	2	1	C	2	1	892	1	Ⴕ	cut_f_stereo_44KHz.wav
2	20	1	1	1	C	1	0	967	0	Ⴉ	cut_r_stereo_44KHz.wav
2	21	2	1	0	C	2	0	913	0	Ⴕ	cut_r_stereo_44KHz.wav
2	22	4	4	2	I	2	0	1158	1	Ⴔ	cut_j_stereo_44KHz.wav
2	23	1	2	0	C	1	1	913	1	Ⴉ	cut_f_stereo_44KHz.wav
2	24	3	3	2	I	1	0	1334	0	Ⴏ	cut_n_stereo_44KHz.wav
2	25	4	4	2	I	2	0	1109	0	Ⴔ	cut_j_stereo_44KHz.wav
2	26	1	1	1	C	1	0	833	0	Ⴉ	cut_r_stereo_44KHz.wav
2	27	3	3	2	I	2	0	1358	1	Ⴏ	cut_n_stereo_44KHz.wav
2	28	2	1	0	C	1	1	1201	1	Ⴕ	cut_r_stereo_44KHz.wav
2	29	3	4	2	I	1	0	1263	1	Ⴏ	cut_j_stereo_44KHz.wav
2	30	2	2	1	C	1	0	918	0	Ⴕ	cut_f_stereo_44KHz.wav
2	31	1	2	0	C	1	1	649	1	Ⴉ	cut_f_stereo_44KHz.wav
2	32	4	3	2	I	2	0	1078	1	Ⴔ	cut_n_stereo_44KHz.wav
2	33	1	2	0	C	1	1	657	1	Ⴉ	cut_f_stereo_44KHz.wav
2	34	3	4	2	I	2	0	990	0	Ⴏ	cut_j_stereo_44KHz.wav
2	35	2	1	0	C	1	1	585	1	Ⴕ	cut_r_stereo_44KHz.wav
2	36	4	3	2	I	2	0	821	0	Ⴔ	cut_n_stereo_44KHz.wav
2	37	3	3	2	I	1	0	517	1	Ⴏ	cut_n_stereo_44KHz.wav
2	38	2	2	1	C	1	0	676	0	Ⴕ	cut_f_stereo_44KHz.wav
2	39	4	4	2	I	2	0	1327	0	Ⴔ	cut_j_stereo_44KHz.wav
2	40	1	1	1	C	1	0	949	0	Ⴉ	cut_r_stereo_44KHz.wav
2	41	2	2	1	C	1	0	893	0	Ⴕ	cut_f_stereo_44KHz.wav
2	42	4	4	2	I	2	0	857	0	Ⴔ	cut_j_stereo_44KHz.wav
2	43	1	1	1	C	2	1	1015	1	Ⴉ	cut_r_stereo_44KHz.wav
2	44	3	3	2	I	1	0	1219	1	Ⴏ	cut_n_stereo_44KHz.wav
2	45	4	3	2	I	2	0	830	1	Ⴔ	cut_n_stereo_44KHz.wav
2	46	1	2	0	C	1	1	771	1	Ⴉ	cut_f_stereo_44KHz.wav
2	47	2	1	0	C	2	0	767	0	Ⴕ	cut_r_stereo_44KHz.wav
2	48	3	4	2	I	2	0	914	0	Ⴏ	cut_j_stereo_44KHz.wav
2	49	1	1	1	C	2	1	1097	1	Ⴉ	cut_r_stereo_44KHz.wav
2	50	2	1	0	C	2	0	762	0	Ⴕ	cut_r_stereo_44KHz.wav
2	51	4	4	2	I	1	0	594	1	Ⴔ	cut_j_stereo_44KHz.wav
2	52	3	4	2	I	1	0	856	0	Ⴏ	cut_j_stereo_44KHz.wav
2	53	2	2	1	C	2	1	937	1	Ⴕ	cut_f_stereo_44KHz.wav
2	54	3	3	2	I	2	0	951	1	Ⴏ	cut_n_stereo_44KHz.wav
2	55	4	3	2	I	1	0	1217	1	Ⴔ	cut_n_stereo_44KHz.wav
2	56	1	2	0	C	1	1	987	1	Ⴉ	cut_f_stereo_44KHz.wav
2	57	2	2	1	C	2	1	827	1	Ⴕ	cut_f_stereo_44KHz.wav
2	58	1	1	1	C	2	1	1021	1	Ⴉ	cut_r_stereo_44KHz.wav
2	59	4	3	2	I	1	0	1087	1	Ⴔ	cut_n_stereo_44KHz.wav
2	60	3	4	2	I	1	0	1914	0	Ⴏ	cut_j_stereo_44KHz.wav
2	61	4	4	2	I	2	0	1220	1	Ⴔ	cut_j_stereo_44KHz.wav
2	62	1	2	0	C	1	1	1213	1	Ⴉ	cut_f_stereo_44KHz.wav
2	63	2	1	0	C	2	0	1651	0	Ⴕ	cut_r_stereo_44KHz.wav
2	64	3	3	2	I	2	0	1173	1	Ⴏ	cut_n_stereo_44KHz.wav
2	65	2	1	0	C	1	1	941	1	Ⴕ	cut_r_stereo_44KHz.wav
2	66	3	4	2	I	2	0	824	0	Ⴏ	cut_j_stereo_44KHz.wav
2	67	4	3	2	I	1	0	1090	0	Ⴔ	cut_n_stereo_44KHz.wav
2	68	1	1	1	C	2	1	1206	1	Ⴉ	cut_r_stereo_44KHz.wav
2	69	2	2	1	C	2	1	1251	1	Ⴕ	cut_f_stereo_44KHz.wav
2	70	4	4	2	I	2	0	1054	0	Ⴔ	cut_j_stereo_44KHz.wav
2	71	1	2	0	C	1	1	1392	1	Ⴉ	cut_f_stereo_44KHz.wav
2	72	3	3	2	I	1	0	518	1	Ⴏ	cut_n_stereo_44KHz.wav
2	73	1	2	0	C	1	1	739	1	Ⴉ	cut_f_stereo_44KHz.wav
2	74	4	3	2	I	1	0	854	0	Ⴔ	cut_n_stereo_44KHz.wav
2	75	3	3	2	I	2	0	1015	0	Ⴏ	cut_n_stereo_44KHz.wav
2	76	2	2	1	C	2	1	1022	1	Ⴕ	cut_f_stereo_44KHz.wav
2	77	1	1	1	C	2	1	1086	1	Ⴉ	cut_r_stereo_44KHz.wav
2	78	4	4	2	I	2	0	973	0	Ⴔ	cut_j_stereo_44KHz.wav
2	79	2	1	0	C	1	1	1136	1	Ⴕ	cut_r_stereo_44KHz.wav
2	80	3	4	2	I	2	0	1388	1	Ⴏ	cut_j_stereo_44KHz.wav
2	81	1	2	0	C	1	1	720	1	Ⴉ	cut_f_stereo_44KHz.wav
2	82	4	3	2	I	2	0	575	1	Ⴔ	cut_n_stereo_44KHz.wav
2	83	2	1	0	C	1	1	771	1	Ⴕ	cut_r_stereo_44KHz.wav
2	84	3	3	2	I	2	0	501	1	Ⴏ	cut_n_stereo_44KHz.wav
2	85	4	4	2	I	1	0	813	0	Ⴔ	cut_j_stereo_44KHz.wav
2	86	1	1	1	C	2	1	772	1	Ⴉ	cut_r_stereo_44KHz.wav
2	87	2	2	1	C	2	1	729	1	Ⴕ	cut_f_stereo_44KHz.wav
2	88	3	4	2	I	1	0	943	1	Ⴏ	cut_j_stereo_44KHz.wav
2	89	1	1	1	C	2	1	697	1	Ⴉ	cut_r_stereo_44KHz.wav
2	90	2	2	1	C	2	1	802	1	Ⴕ	cut_f_stereo_44KHz.wav
2	91	4	3	2	I	2	0	899	1	Ⴔ	cut_n_stereo_44KHz.wav
2	92	3	3	2	I	2	0	659	0	Ⴏ	cut_n_stereo_44KHz.wav
2	93	2	1	0	C	1	1	685	1	Ⴕ	cut_r_stereo_44KHz.wav
2	94	1	2	0	C	1	1	828	1	Ⴉ	cut_f_stereo_44KHz.wav
2	95	3	4	2	I	2	0	930	0	Ⴏ	cut_j_stereo_44KHz.wav
2	96	4	4	2	I	1	0	995	0	Ⴔ	cut_j_stereo_44KHz.wav
2	97	1	1	1	C	2	1	871	1	Ⴉ	cut_r_stereo_44KHz.wav
2	98	2	1	0	C	1	1	641	1	Ⴕ	cut_r_stereo_44KHz.wav
2	99	4	3	2	I	2	0	844	0	Ⴔ	cut_n_stereo_44KHz.wav
2	100	3	4	2	I	1	0	636	0	Ⴏ	cut_j_stereo_44KHz.wav
2	101	2	2	1	C	2	1	909	1	Ⴕ	cut_f_stereo_44KHz.wav
2	102	3	3	2	I	2	0	1504	0	Ⴏ	cut_n_stereo_44KHz.wav
2	103	4	4	2	I	2	0	1059	1	Ⴔ	cut_j_stereo_44KHz.wav
2	104	1	2	0	C	1	1	684	1	Ⴉ	cut_f_stereo_44KHz.wav
2	105	4	4	2	I	2	0	602	1	Ⴔ	cut_j_stereo_44KHz.wav
2	106	3	4	2	I	2	0	1022	1	Ⴏ	cut_j_stereo_44KHz.wav
2	107	1	1	1	C	2	1	746	1	Ⴉ	cut_r_stereo_44KHz.wav
2	108	2	1	0	C	2	0	869	0	Ⴕ	cut_r_stereo_44KHz.wav
2	109	3	3	2	I	1	0	1652	1	Ⴏ	cut_n_stereo_44KHz.wav
2	110	2	2	1	C	2	1	759	1	Ⴕ	cut_f_stereo_44KHz.wav
2	111	4	3	2	I	1	0	655	0	Ⴔ	cut_n_stereo_44KHz.wav
2	112	1	2	0	C	1	1	717	1	Ⴉ	cut_f_stereo_44KHz.wav
2	113	3	4	2	I	2	0	1189	0	Ⴏ	cut_j_stereo_44KHz.wav
2	114	1	1	1	C	2	1	1103	1	Ⴉ	cut_r_stereo_44KHz.wav
2	115	4	3	2	I	2	0	798	1	Ⴔ	cut_n_stereo_44KHz.wav
2	116	2	2	1	C	2	1	1173	1	Ⴕ	cut_f_stereo_44KHz.wav
2	117	3	3	2	I	2	0	1038	1	Ⴏ	cut_n_stereo_44KHz.wav
2	118	1	2	0	C	1	1	988	1	Ⴉ	cut_f_stereo_44KHz.wav
2	119	4	4	2	I	2	0	806	1	Ⴔ	cut_j_stereo_44KHz.wav
2	120	2	1	0	C	1	1	688	1	Ⴕ	cut_r_stereo_44KHz.wav
2	121	4	3	2	I	2	0	562	1	Ⴔ	cut_n_stereo_44KHz.wav
2	122	1	1	1	C	2	1	1432	1	Ⴉ	cut_r_stereo_44KHz.wav
2	123	2	1	0	C	1	1	737	1	Ⴕ	cut_r_stereo_44KHz.wav
2	124	3	3	2	I	2	0	704	0	Ⴏ	cut_n_stereo_44KHz.wav
2	125	2	2	1	C	2	1	907	1	Ⴕ	cut_f_stereo_44KHz.wav
2	126	1	2	0	C	1	1	709	1	Ⴉ	cut_f_stereo_44KHz.wav
2	127	3	4	2	I	2	0	684	0	Ⴏ	cut_j_stereo_44KHz.wav
2	128	4	4	2	I	2	0	1028	1	Ⴔ	cut_j_stereo_44KHz.wav
2	129	2	1	0	C	1	1	808	1	Ⴕ	cut_r_stereo_44KHz.wav
2	130	3	3	2	I	2	0	594	1	Ⴏ	cut_n_stereo_44KHz.wav
2	131	4	4	2	I	1	0	676	1	Ⴔ	cut_j_stereo_44KHz.wav
2	132	1	2	0	C	2	0	347	0	Ⴉ	cut_f_stereo_44KHz.wav
2	133	2	2	1	C	2	1	1061	1	Ⴕ	cut_f_stereo_44KHz.wav
2	134	4	3	2	I	2	0	667	0	Ⴔ	cut_n_stereo_44KHz.wav
2	135	3	4	2	I	1	0	890	0	Ⴏ	cut_j_stereo_44KHz.wav
2	136	1	1	1	C	2	1	936	1	Ⴉ	cut_r_stereo_44KHz.wav
2	137	3	3	2	I	1	0	739	0	Ⴏ	cut_n_stereo_44KHz.wav
2	138	4	4	2	I	2	0	895	0	Ⴔ	cut_j_stereo_44KHz.wav
2	139	1	1	1	C	2	1	906	1	Ⴉ	cut_r_stereo_44KHz.wav
2	140	2	1	0	C	1	1	731	1	Ⴕ	cut_r_stereo_44KHz.wav
2	141	1	2	0	C	1	1	709	1	Ⴉ	cut_f_stereo_44KHz.wav
2	142	4	3	2	I	2	0	662	0	Ⴔ	cut_n_stereo_44KHz.wav
2	143	3	4	2	I	2	0	665	1	Ⴏ	cut_j_stereo_44KHz.wav
2	144	2	2	1	C	2	1	857	1	Ⴕ	cut_f_stereo_44KHz.wav
2	145	3	4	2	I	1	0	774	1	Ⴏ	cut_j_stereo_44KHz.wav
2	146	2	2	1	C	2	1	791	1	Ⴕ	cut_f_stereo_44KHz.wav
2	147	1	1	1	C	2	1	776	1	Ⴉ	cut_r_stereo_44KHz.wav
2	148	4	3	2	I	2	0	1683	1	Ⴔ	cut_n_stereo_44KHz.wav
2	149	3	3	2	I	2	0	754	0	Ⴏ	cut_n_stereo_44KHz.wav
2	150	4	4	2	I	1	0	906	1	Ⴔ	cut_j_stereo_44KHz.wav
2	151	1	2	0	C	1	1	822	1	Ⴉ	cut_f_stereo_44KHz.wav
2	152	2	1	0	C	2	0	512	0	Ⴕ	cut_r_stereo_44KHz.wav
2	153	1	2	0	C	1	1	1019	1	Ⴉ	cut_f_stereo_44KHz.wav
2	154	2	1	0	C	1	1	476	1	Ⴕ	cut_r_stereo_44KHz.wav
2	155	3	3	2	I	2	0	1228	0	Ⴏ	cut_n_stereo_44KHz.wav
2	156	4	4	2	I	1	0	877	0	Ⴔ	cut_j_stereo_44KHz.wav
2	157	2	2	1	C	2	1	1150	1	Ⴕ	cut_f_stereo_44KHz.wav
2	158	3	4	2	I	1	0	609	0	Ⴏ	cut_j_stereo_44KHz.wav
2	159	1	1	1	C	2	1	1390	1	Ⴉ	cut_r_stereo_44KHz.wav
2	160	4	3	2	I	2	0	677	0	Ⴔ	cut_n_stereo_44KHz.wav
2	161	1	2	0	C	1	1	971	1	Ⴉ	cut_f_stereo_44KHz.wav
2	162	4	4	2	I	2	0	1217	0	Ⴔ	cut_j_stereo_44KHz.wav
2	163	2	1	0	C	1	1	880	1	Ⴕ	cut_r_stereo_44KHz.wav
2	164	3	4	2	I	2	0	601	0	Ⴏ	cut_j_stereo_44KHz.wav
2	165	2	2	1	C	2	1	848	1	Ⴕ	cut_f_stereo_44KHz.wav
2	166	4	3	2	I	2	0	540	0	Ⴔ	cut_n_stereo_44KHz.wav
2	167	1	1	1	C	2	1	756	1	Ⴉ	cut_r_stereo_44KHz.wav
2	168	3	3	2	I	2	0	620	1	Ⴏ	cut_n_stereo_44KHz.wav
2	169	1	1	1	C	2	1	815	1	Ⴉ	cut_r_stereo_44KHz.wav
2	170	3	3	2	I	1	0	924	1	Ⴏ	cut_n_stereo_44KHz.wav
2	171	4	3	2	I	1	0	603	1	Ⴔ	cut_n_stereo_44KHz.wav
2	172	2	1	0	C	1	1	907	1	Ⴕ	cut_r_stereo_44KHz.wav
2	173	1	2	0	C	1	1	1286	1	Ⴉ	cut_f_stereo_44KHz.wav
2	174	2	2	1	C	2	1	845	1	Ⴕ	cut_f_stereo_44KHz.wav
2	175	3	4	2	I	2	0	746	1	Ⴏ	cut_j_stereo_44KHz.wav
2	176	4	4	2	I	2	0	609	0	Ⴔ	cut_j_stereo_44KHz.wav
2	177	2	2	1	C	2	1	855	1	Ⴕ	cut_f_stereo_44KHz.wav
2	178	3	4	2	I	2	0	761	0	Ⴏ	cut_j_stereo_44KHz.wav
2	179	4	4	2	I	2	0	696	0	Ⴔ	cut_j_stereo_44KHz.wav
2	180	1	1	1	C	2	1	873	1	Ⴉ	cut_r_stereo_44KHz.wav
2	181	2	1	0	C	1	1	1342	1	Ⴕ	cut_r_stereo_44KHz.wav
2	182	3	3	2	I	2	0	742	0	Ⴏ	cut_n_stereo_44KHz.wav
2	183	1	2	0	C	1	1	822	1	Ⴉ	cut_f_stereo_44KHz.wav
2	184	4	3	2	I	1	0	1352	0	Ⴔ	cut_n_stereo_44KHz.wav
2	185	3	4	2	I	2	0	735	1	Ⴏ	cut_j_stereo_44KHz.wav
2	186	2	2	1	C	2	1	899	1	Ⴕ	cut_f_stereo_44KHz.wav
2	187	1	1	1	C	2	1	924	1	Ⴉ	cut_r_stereo_44KHz.wav
2	188	4	4	2	I	1	0	1157	1	Ⴔ	cut_j_stereo_44KHz.wav
2	189	3	3	2	I	2	0	778	1	Ⴏ	cut_n_stereo_44KHz.wav
2	190	4	3	2	I	2	0	536	0	Ⴔ	cut_n_stereo_44KHz.wav
2	191	1	2	0	C	1	1	773	1	Ⴉ	cut_f_stereo_44KHz.wav
2	192	2	1	0	C	1	1	1195	1	Ⴕ	cut_r_stereo_44KHz.wav
2	193	3	4	2	I	2	0	744	1	Ⴏ	cut_j_stereo_44KHz.wav
2	194	1	2	0	C	1	1	1009	1	Ⴉ	cut_f_stereo_44KHz.wav
2	195	4	3	2	I	1	0	1142	1	Ⴔ	cut_n_stereo_44KHz.wav
2	196	2	2	1	C	2	1	1422	1	Ⴕ	cut_f_stereo_44KHz.wav
2	197	4	4	2	I	2	0	689	1	Ⴔ	cut_j_stereo_44KHz.wav
2	198	3	3	2	I	2	0	1033	1	Ⴏ	cut_n_stereo_44KHz.wav
2	199	1	1	1	C	2	1	897	1	Ⴉ	cut_r_stereo_44KHz.wav
2	200	2	1	0	C	1	1	854	1	Ⴕ	cut_r_stereo_44KHz.wav
3	1	1	2	0	C	1	1	1353	1	Ⴒ	cut_k_stereo_44KHz.wav
3	2	4	4	2	I	1	0	1354	1	Ⴌ	cut_u_stereo_44KHz.wav
3	3	2	1	0	C	2	0	719	0	Ⴐ	cut_o_stereo_44KHz.wav
3	4	3	3	2	I	1	0	852	1	Ⴖ	cut_a_stereo_44KHz.wav
3	5	4	3	2	I	2	0	819	0	Ⴌ	cut_a_stereo_44KHz.wav
3	6	1	1	1	C	2	1	1081	1	Ⴒ	cut_o_stereo_44KHz.wav
3	7	3	4	2	I	2	0	888	0	Ⴖ	cut_u_stereo_44KHz.wav
3	8	2	2	1	C	1	0	787	0	Ⴐ	cut_k_stereo_44KHz.wav
3	9	3	3	2	I	1	0	944	1	Ⴖ	cut_a_stereo_44KHz.wav
3	10	2	1	0	C	2	0	625	0	Ⴐ	cut_o_stereo_44KHz.wav
3	11	4	4	2	I	1	0	351	1	Ⴌ	cut_u_stereo_44KHz.wav
3	12	1	1	1	C	2	1	1010	1	Ⴒ	cut_o_stereo_44KHz.wav
3	13	3	4	2	I	1	0	1020	0	Ⴖ	cut_u_stereo_44KHz.wav
3	14	1	2	0	C	1	1	890	1	Ⴒ	cut_k_stereo_44KHz.wav
3	15	2	2	1	C	1	0	894	0	Ⴐ	cut_k_stereo_44KHz.wav
3	16	4	3	2	I	2	0	791	1	Ⴌ	cut_a_stereo_44KHz.wav
3	17	3	4	2	I	1	0	1157	1	Ⴖ	cut_u_stereo_44KHz.wav
3	18	4	4	2	I	2	0	1035	0	Ⴌ	cut_u_stereo_44KHz.wav
3	19	2	1	0	C	1	1	1253	1	Ⴐ	cut_o_stereo_44KHz.wav
3	20	1	1	1	C	2	1	885	1	Ⴒ	cut_o_stereo_44KHz.wav
3	21	2	2	1	C	2	1	849	1	Ⴐ	cut_k_stereo_44KHz.wav
3	22	4	3	2	I	1	0	1247	0	Ⴌ	cut_a_stereo_44KHz.wav
3	23	3	3	2	I	1	0	666	1	Ⴖ	cut_a_stereo_44KHz.wav
3	24	1	2	0	C	1	1	1320	1	Ⴒ	cut_k_stereo_44KHz.wav
3	25	2	2	1	C	2	1	794	1	Ⴐ	cut_k_stereo_44KHz.wav
3	26	4	4	2	I	1	0	929	0	Ⴌ	cut_u_stereo_44KHz.wav
3	27	3	4	2	I	2	0	760	1	Ⴖ	cut_u_stereo_44KHz.wav
3	28	1	2	0	C	1	1	745	1	Ⴒ	cut_k_stereo_44KHz.wav
3	29	2	1	0	C	2	0	1000	0	Ⴐ	cut_o_stereo_44KHz.wav
3	30	1	1	1	C	2	1	981	1	Ⴒ	cut_o_stereo_44KHz.wav
3	31	3	3	2	I	2	0	684	0	Ⴖ	cut_a_stereo_44KHz.wav
3	32	4	3	2	I	2	0	937	0	Ⴌ	cut_a_stereo_44KHz.wav
3	33	1	2	0	C	1	1	642	1	Ⴒ	cut_k_stereo_44KHz.wav
3	34	2	1	0	C	1	1	814	1	Ⴐ	cut_o_stereo_44KHz.wav
3	35	4	4	2	I	2	0	667	0	Ⴌ	cut_u_stereo_44KHz.wav
3	36	3	4	2	I	2	0	714	1	Ⴖ	cut_u_stereo_44KHz.wav
3	37	1	1	1	C	2	1	758	1	Ⴒ	cut_o_stereo_44KHz.wav
3	38	2	2	1	C	1	0	912	0	Ⴐ	cut_k_stereo_44KHz.wav
3	39	4	3	2	I	2	0	772	1	Ⴌ	cut_a_stereo_44KHz.wav
3	40	3	3	2	I	2	0	925	1	Ⴖ	cut_a_stereo_44KHz.wav
3	41	4	4	2	I	2	0	778	0	Ⴌ	cut_u_stereo_44KHz.wav
3	42	2	1	0	C	1	1	965	1	Ⴐ	cut_o_stereo_44KHz.wav
3	43	1	1	1	C	2	1	807	1	Ⴒ	cut_o_stereo_44KHz.wav
3	44	3	4	2	I	2	0	671	1	Ⴖ	cut_u_stereo_44KHz.wav
3	45	2	2	1	C	2	1	898	1	Ⴐ	cut_k_stereo_44KHz.wav
3	46	4	3	2	I	1	0	1133	0	Ⴌ	cut_a_stereo_44KHz.wav
3	47	1	2	0	C	1	1	1134	1	Ⴒ	cut_k_stereo_44KHz.wav
3	48	3	3	2	I	2	0	833	1	Ⴖ	cut_a_stereo_44KHz.wav
3	49	4	3	2	I	2	0	993	0	Ⴌ	cut_a_stereo_44KHz.wav
3	50	1	1	1	C	2	1	1371	1	Ⴒ	cut_o_stereo_44KHz.wav
3	51	2	1	0	C	1	1	1064	1	Ⴐ	cut_o_stereo_44KHz.wav
3	52	3	4	2	I	2	0	554	1	Ⴖ	cut_u_stereo_44KHz.wav
3	53	2	2	1	C	1	0	622	0	Ⴐ	cut_k_stereo_44KHz.wav
3	54	4	4	2	I	2	0	675	1	Ⴌ	cut_u_stereo_44KHz.wav
3	55	1	2	0	C	1	1	576	1	Ⴒ	cut_k_stereo_44KHz.wav
3	56	3	3	2	I	2	0	662	1	Ⴖ	cut_a_stereo_44KHz.wav
3	57	2	1	0	C	1	1	981	1	Ⴐ	cut_o_stereo_44KHz.wav
3	58	4	3	2	I	2	0	602	0	Ⴌ	cut_a_stereo_44KHz.wav
3	59	1	2	0	C	1	1	919	1	Ⴒ	cut_k_stereo_44KHz.wav
3	60	3	4	2	I	2	0	678	0	Ⴖ	cut_u_stereo_44KHz.wav
3	61	4	4	2	I	2	0	724	0	Ⴌ	cut_u_stereo_44KHz.wav
3	62	3	3	2	I	1	0	616	1	Ⴖ	cut_a_stereo_44KHz.wav
3	63	1	1	1	C	2	1	922	1	Ⴒ	cut_o_stereo_44KHz.wav
3	64	2	2	1	C	2	1	1271	1	Ⴐ	cut_k_stereo_44KHz.wav
3	65	1	1	1	C	2	1	1233	1	Ⴒ	cut_o_stereo_44KHz.wav
3	66	4	4	2	I	2	0	654	1	Ⴌ	cut_u_stereo_44KHz.wav
3	67	2	2	1	C	1	0	1188	0	Ⴐ	cut_k_stereo_44KHz.wav
3	68	3	4	2	I	2	0	634	0	Ⴖ	cut_u_stereo_44KHz.wav
3	69	4	3	2	I	2	0	754	0	Ⴌ	cut_a_stereo_44KHz.wav
3	70	1	2	0	C	1	1	902	1	Ⴒ	cut_k_stereo_44KHz.wav
3	71	2	1	0	C	1	1	699	1	Ⴐ	cut_o_stereo_44KHz.wav
3	72	3	3	2	I	1	0	748	1	Ⴖ	cut_a_stereo_44KHz.wav
3	73	2	1	0	C	1	1	1011	1	Ⴐ	cut_o_stereo_44KHz.wav
3	74	3	3	2	I	1	0	649	0	Ⴖ	cut_a_stereo_44KHz.wav
3	75	4	3	2	I	2	0	623	0	Ⴌ	cut_a_stereo_44KHz.wav
3	76	1	2	0	C	1	1	887	1	Ⴒ	cut_k_stereo_44KHz.wav
3	77	2	2	1	C	1	0	1101	0	Ⴐ	cut_k_stereo_44KHz.wav
3	78	3	4	2	I	2	0	730	0	Ⴖ	cut_u_stereo_44KHz.wav
3	79	1	1	1	C	2	1	983	1	Ⴒ	cut_o_stereo_44KHz.wav
3	80	4	4	2	I	2	0	838	1	Ⴌ	cut_u_stereo_44KHz.wav
3	81	1	1	1	C	2	1	1028	1	Ⴒ	cut_o_stereo_44KHz.wav
3	82	2	1	0	C	1	1	732	1	Ⴐ	cut_o_stereo_44KHz.wav
3	83	3	3	2	I	1	0	538	0	Ⴖ	cut_a_stereo_44KHz.wav
3	84	4	3	2	I	1	0	731	1	Ⴌ	cut_a_stereo_44KHz.wav
3	85	2	2	1	C	2	1	1242	1	Ⴐ	cut_k_stereo_44KHz.wav
3	86	3	4	2	I	1	0	896	1	Ⴖ	cut_u_stereo_44KHz.wav
3	87	1	2	0	C	1	1	1325	1	Ⴒ	cut_k_stereo_44KHz.wav
3	88	4	4	2	I	1	0	692	0	Ⴌ	cut_u_stereo_44KHz.wav
3	89	1	1	1	C	2	1	891	1	Ⴒ	cut_o_stereo_44KHz.wav
3	90	3	3	2	I	1	0	754	1	Ⴖ	cut_a_stereo_44KHz.wav
3	91	2	1	0	C	1	1	1398	1	Ⴐ	cut_o_stereo_44KHz.wav
3	92	4	4	2	I	2	0	1096	1	Ⴌ	cut_u_stereo_44KHz.wav
3	93	3	4	2	I	1	0	1308	0	Ⴖ	cut_u_stereo_44KHz.wav
3	94	4	3	2	I	2	0	708	1	Ⴌ	cut_a_stereo_44KHz.wav
3	95	2	2	1	C	2	1	1000	1	Ⴐ	cut_k_stereo_44KHz.wav
3	96	1	2	0	C	1	1	800	1	Ⴒ	cut_k_stereo_44KHz.wav
3	97	3	4	2	I	2	0	655	1	Ⴖ	cut_u_stereo_44KHz.wav
3	98	2	1	0	C	2	0	941	0	Ⴐ	cut_o_stereo_44KHz.wav
3	99	1	1	1	C	1	0	601	0	Ⴒ	cut_o_stereo_44KHz.wav
3	100	4	4	2	I	2	0	653	0	Ⴌ	cut_u_stereo_44KHz.wav
3	101	3	3	2	I	1	0	737	1	Ⴖ	cut_a_stereo_44KHz.wav
3	102	1	2	0	C	1	1	696	1	Ⴒ	cut_k_stereo_44KHz.wav
3	103	4	3	2	I	2	0	1027	1	Ⴌ	cut_a_stereo_44KHz.wav
3	104	2	2	1	C	1	0	626	0	Ⴐ	cut_k_stereo_44KHz.wav
3	105	1	1	1	C	2	1	758	1	Ⴒ	cut_o_stereo_44KHz.wav
3	106	4	3	2	I	2	0	761	0	Ⴌ	cut_a_stereo_44KHz.wav
3	107	2	1	0	C	2	0	969	0	Ⴐ	cut_o_stereo_44KHz.wav
3	108	3	3	2	I	2	0	573	0	Ⴖ	cut_a_stereo_44KHz.wav
3	109	1	2	0	C	1	1	799	1	Ⴒ	cut_k_stereo_44KHz.wav
3	110	3	4	2	I	2	0	791	0	Ⴖ	cut_u_stereo_44KHz.wav
3	111	4	4	2	I	2	0	623	1	Ⴌ	cut_u_stereo_44KHz.wav
3	112	2	2	1	C	2	1	1028	1	Ⴐ	cut_k_stereo_44KHz.wav
3	113	3	4	2	I	2	0	500	1	Ⴖ	cut_u_stereo_44KHz.wav
3	114	1	2	0	C	1	1	731	1	Ⴒ	cut_k_stereo_44KHz.wav
3	115	4	3	2	I	2	0	722	0	Ⴌ	cut_a_stereo_44KHz.wav
3	116	2	1	0	C	1	1	860	1	Ⴐ	cut_o_stereo_44KHz.wav
3	117	4	4	2	I	2	0	843	0	Ⴌ	cut_u_stereo_44KHz.wav
3	118	1	1	1	C	2	1	886	1	Ⴒ	cut_o_stereo_44KHz.wav
3	119	3	3	2	I	2	0	588	0	Ⴖ	cut_a_stereo_44KHz.wav
3	120	2	2	1	C	2	1	1013	1	Ⴐ	cut_k_stereo_44KHz.wav
3	121	1	1	1	C	2	1	985	1	Ⴒ	cut_o_stereo_44KHz.wav
3	122	4	4	2	I	2	0	1000	0	Ⴌ	cut_u_stereo_44KHz.wav
3	123	2	1	0	C	1	1	1184	1	Ⴐ	cut_o_stereo_44KHz.wav
3	124	3	4	2	I	2	0	611	0	Ⴖ	cut_u_stereo_44KHz.wav
3	125	4	3	2	I	2	0	1024	1	Ⴌ	cut_a_stereo_44KHz.wav
3	126	1	2	0	C	1	1	1024	1	Ⴒ	cut_k_stereo_44KHz.wav
3	127	3	3	2	I	2	0	604	0	Ⴖ	cut_a_stereo_44KHz.wav
3	128	2	2	1	C	2	1	1294	1	Ⴐ	cut_k_stereo_44KHz.wav
3	129	1	2	0	C	1	1	1013	1	Ⴒ	cut_k_stereo_44KHz.wav
3	130	4	4	2	I	2	0	1169	0	Ⴌ	cut_u_stereo_44KHz.wav
3	131	2	2	1	C	2	1	1050	1	Ⴐ	cut_k_stereo_44KHz.wav
3	132	3	3	2	I	2	0	905	0	Ⴖ	cut_a_stereo_44KHz.wav
3	133	4	3	2	I	1	0	676	1	Ⴌ	cut_a_stereo_44KHz.wav
3	134	3	4	2	I	2	0	623	0	Ⴖ	cut_u_stereo_44KHz.wav
3	135	1	1	1	C	2	1	1552	1	Ⴒ	cut_o_stereo_44KHz.wav
3	136	2	1	0	C	2	0	66	0	Ⴐ	cut_o_stereo_44KHz.wav
3	137	3	4	2	I	1	0	849	1	Ⴖ	cut_u_stereo_44KHz.wav
3	138	4	3	2	I	2	0	1461	1	Ⴌ	cut_a_stereo_44KHz.wav
3	139	2	1	0	C	1	1	946	1	Ⴐ	cut_o_stereo_44KHz.wav
3	140	1	1	1	C	2	1	862	1	Ⴒ	cut_o_stereo_44KHz.wav
3	141	3	3	2	I	2	0	802	0	Ⴖ	cut_a_stereo_44KHz.wav
3	142	4	4	2	I	1	0	770	1	Ⴌ	cut_u_stereo_44KHz.wav
3	143	2	2	1	C	2	1	831	1	Ⴐ	cut_k_stereo_44KHz.wav
3	144	1	2	0	C	1	1	1168	1	Ⴒ	cut_k_stereo_44KHz.wav
3	145	3	3	2	I	2	0	706	1	Ⴖ	cut_a_stereo_44KHz.wav
3	146	4	3	2	I	1	0	724	1	Ⴌ	cut_a_stereo_44KHz.wav
3	147	2	2	1	C	2	1	929	1	Ⴐ	cut_k_stereo_44KHz.wav
3	148	1	2	0	C	1	1	695	1	Ⴒ	cut_k_stereo_44KHz.wav
3	149	4	4	2	I	2	0	696	1	Ⴌ	cut_u_stereo_44KHz.wav
3	150	3	4	2	I	1	0	840	0	Ⴖ	cut_u_stereo_44KHz.wav
3	151	2	1	0	C	2	0	781	0	Ⴐ	cut_o_stereo_44KHz.wav
3	152	1	1	1	C	2	1	722	1	Ⴒ	cut_o_stereo_44KHz.wav
3	153	3	4	2	I	2	0	728	1	Ⴖ	cut_u_stereo_44KHz.wav
3	154	2	2	1	C	2	1	1036	1	Ⴐ	cut_k_stereo_44KHz.wav
3	155	1	1	1	C	2	1	856	1	Ⴒ	cut_o_stereo_44KHz.wav
3	156	4	3	2	I	2	0	804	0	Ⴌ	cut_a_stereo_44KHz.wav
3	157	1	2	0	C	1	1	859	1	Ⴒ	cut_k_stereo_44KHz.wav
3	158	4	4	2	I	2	0	945	1	Ⴌ	cut_u_stereo_44KHz.wav
3	159	2	1	0	C	1	1	1303	1	Ⴐ	cut_o_stereo_44KHz.wav
3	160	3	3	2	I	2	0	596	0	Ⴖ	cut_a_stereo_44KHz.wav
3	161	4	4	2	I	2	0	1135	1	Ⴌ	cut_u_stereo_44KHz.wav
3	162	3	4	2	I	2	0	1311	0	Ⴖ	cut_u_stereo_44KHz.wav
3	163	2	1	0	C	1	1	929	1	Ⴐ	cut_o_stereo_44KHz.wav
3	164	1	2	0	C	1	1	1013	1	Ⴒ	cut_k_stereo_44KHz.wav
3	165	3	3	2	I	1	0	1031	1	Ⴖ	cut_a_stereo_44KHz.wav
3	166	1	1	1	C	2	1	962	1	Ⴒ	cut_o_stereo_44KHz.wav
3	167	4	3	2	I	1	0	890	1	Ⴌ	cut_a_stereo_44KHz.wav
3	168	2	2	1	C	2	1	848	1	Ⴐ	cut_k_stereo_44KHz.wav
3	169	4	3	2	I	1	0	773	1	Ⴌ	cut_a_stereo_44KHz.wav
3	170	1	2	0	C	1	1	849	1	Ⴒ	cut_k_stereo_44KHz.wav
3	171	3	4	2	I	2	0	666	0	Ⴖ	cut_u_stereo_44KHz.wav
3	172	2	2	1	C	2	1	972	1	Ⴐ	cut_k_stereo_44KHz.wav
3	173	3	3	2	I	1	0	302	1	Ⴖ	cut_a_stereo_44KHz.wav
3	174	2	1	0	C	1	1	1001	1	Ⴐ	cut_o_stereo_44KHz.wav
3	175	4	4	2	I	2	0	337	0	Ⴌ	cut_u_stereo_44KHz.wav
3	176	1	1	1	C	2	1	976	1	Ⴒ	cut_o_stereo_44KHz.wav
3	177	4	3	2	I	1	0	738	0	Ⴌ	cut_a_stereo_44KHz.wav
3	178	2	1	0	C	1	1	832	1	Ⴐ	cut_o_stereo_44KHz.wav
3	179	3	3	2	I	2	0	370	1	Ⴖ	cut_a_stereo_44KHz.wav
3	180	1	1	1	C	2	1	1241	1	Ⴒ	cut_o_stereo_44KHz.wav
3	181	2	2	1	C	2	1	847	1	Ⴐ	cut_k_stereo_44KHz.wav
3	182	3	4	2	I	2	0	1353	0	Ⴖ	cut_u_stereo_44KHz.wav
3	183	1	2	0	C	1	1	1085	1	Ⴒ	cut_k_stereo_44KHz.wav
3	184	4	4	2	I	2	0	549	0	Ⴌ	cut_u_stereo_44KHz.wav
3	185	2	1	0	C	1	1	810	1	Ⴐ	cut_o_stereo_44KHz.wav
3	186	1	1	1	C	2	1	905	1	Ⴒ	cut_o_stereo_44KHz.wav
3	187	4	4	2	I	2	0	647	0	Ⴌ	cut_u_stereo_44KHz.wav
3	188	3	4	2	I	2	0	996	0	Ⴖ	cut_u_stereo_44KHz.wav
3	189	2	2	1	C	2	1	1541	1	Ⴐ	cut_k_stereo_44KHz.wav
3	190	1	2	0	C	1	1	701	1	Ⴒ	cut_k_stereo_44KHz.wav
3	191	3	3	2	I	2	0	760	0	Ⴖ	cut_a_stereo_44KHz.wav
3	192	4	3	2	I	1	0	1045	1	Ⴌ	cut_a_stereo_44KHz.wav
3	193	1	1	1	C	2	1	704	1	Ⴒ	cut_o_stereo_44KHz.wav
3	194	3	3	2	I	2	0	1254	0	Ⴖ	cut_a_stereo_44KHz.wav
3	195	4	3	2	I	1	0	1030	1	Ⴌ	cut_a_stereo_44KHz.wav
3	196	2	1	0	C	2	0	879	0	Ⴐ	cut_o_stereo_44KHz.wav
3	197	1	2	0	C	2	0	788	0	Ⴒ	cut_k_stereo_44KHz.wav
3	198	4	4	2	I	2	0	651	1	Ⴌ	cut_u_stereo_44KHz.wav
3	199	2	2	1	C	2	1	937	1	Ⴐ	cut_k_stereo_44KHz.wav
3	200	3	4	2	I	1	0	914	1	Ⴖ	cut_u_stereo_44KHz.wav
4	1	4	4	2	I	1	0	1040	1	Ⴊ	cut_l_stereo_44KHz.wav
4	2	3	4	2	I	1	0	1553	0	Ⴡ	cut_l_stereo_44KHz.wav
4	3	1	2	0	C	1	1	1737	1	Ⴂ	cut_g_stereo_44KHz.wav
4	4	2	1	0	C	1	1	1023	1	Ⴜ	cut_w_stereo_44KHz.wav
4	5	3	3	2	I	2	0	1416	0	Ⴡ	cut_h_stereo_44KHz.wav
4	6	4	3	2	I	1	0	983	1	Ⴊ	cut_h_stereo_44KHz.wav
4	7	1	1	1	C	1	0	1068	0	Ⴂ	cut_w_stereo_44KHz.wav
4	8	2	2	1	C	2	1	1864	1	Ⴜ	cut_g_stereo_44KHz.wav
4	9	1	2	0	C	1	1	954	1	Ⴂ	cut_g_stereo_44KHz.wav
4	10	2	1	0	C	1	1	861	1	Ⴜ	cut_w_stereo_44KHz.wav
4	11	3	3	2	I	1	0	1196	1	Ⴡ	cut_h_stereo_44KHz.wav
4	12	4	3	2	I	1	0	916	1	Ⴊ	cut_h_stereo_44KHz.wav
4	13	1	1	1	C	2	1	1100	1	Ⴂ	cut_w_stereo_44KHz.wav
4	14	2	2	1	C	1	0	1527	0	Ⴜ	cut_g_stereo_44KHz.wav
4	15	4	4	2	I	1	0	1274	1	Ⴊ	cut_l_stereo_44KHz.wav
4	16	3	4	2	I	2	0	1287	0	Ⴡ	cut_l_stereo_44KHz.wav
4	17	1	1	1	C	1	0	1608	0	Ⴂ	cut_w_stereo_44KHz.wav
4	18	2	2	1	C	2	1	1656	1	Ⴜ	cut_g_stereo_44KHz.wav
4	19	3	3	2	I	1	0	1732	1	Ⴡ	cut_h_stereo_44KHz.wav
4	20	4	4	2	I	1	0	1129	0	Ⴊ	cut_l_stereo_44KHz.wav
4	21	3	4	2	I	1	0	1076	0	Ⴡ	cut_l_stereo_44KHz.wav
4	22	1	2	0	C	2	0	1348	0	Ⴂ	cut_g_stereo_44KHz.wav
4	23	4	3	2	I	1	0	1248	1	Ⴊ	cut_h_stereo_44KHz.wav
4	24	2	1	0	C	1	1	1547	1	Ⴜ	cut_w_stereo_44KHz.wav
4	25	4	4	2	I	1	0	1039	1	Ⴊ	cut_l_stereo_44KHz.wav
4	26	3	4	2	I	1	0	1021	0	Ⴡ	cut_l_stereo_44KHz.wav
4	27	2	1	0	C	1	1	782	1	Ⴜ	cut_w_stereo_44KHz.wav
4	28	1	1	1	C	2	1	966	1	Ⴂ	cut_w_stereo_44KHz.wav
4	29	4	3	2	I	2	0	994	1	Ⴊ	cut_h_stereo_44KHz.wav
4	30	2	2	1	C	2	1	1815	1	Ⴜ	cut_g_stereo_44KHz.wav
4	31	1	2	0	C	1	1	1255	1	Ⴂ	cut_g_stereo_44KHz.wav
4	32	3	3	2	I	1	0	1387	1	Ⴡ	cut_h_stereo_44KHz.wav
4	33	1	2	0	C	1	1	1222	1	Ⴂ	cut_g_stereo_44KHz.wav
4	34	4	3	2	I	0	0	0	0	Ⴊ	cut_h_stereo_44KHz.wav
4	35	3	4	2	I	1	0	971	1	Ⴡ	cut_l_stereo_44KHz.wav
4	36	2	1	0	C	1	1	1048	1	Ⴜ	cut_w_stereo_44KHz.wav
4	37	3	3	2	I	1	0	1568	0	Ⴡ	cut_h_stereo_44KHz.wav
4	38	1	1	1	C	2	1	1293	1	Ⴂ	cut_w_stereo_44KHz.wav
4	39	2	2	1	C	2	1	1437	1	Ⴜ	cut_g_stereo_44KHz.wav
4	40	4	4	2	I	1	0	1237	0	Ⴊ	cut_l_stereo_44KHz.wav
4	41	2	2	1	C	2	1	1580	1	Ⴜ	cut_g_stereo_44KHz.wav
4	42	4	3	2	I	1	0	940	1	Ⴊ	cut_h_stereo_44KHz.wav
4	43	1	2	0	C	1	1	1344	1	Ⴂ	cut_g_stereo_44KHz.wav
4	44	3	4	2	I	2	0	777	0	Ⴡ	cut_l_stereo_44KHz.wav
4	45	2	1	0	C	1	1	946	1	Ⴜ	cut_w_stereo_44KHz.wav
4	46	3	3	2	I	1	0	1067	1	Ⴡ	cut_h_stereo_44KHz.wav
4	47	4	4	2	I	2	0	981	1	Ⴊ	cut_l_stereo_44KHz.wav
4	48	1	1	1	C	1	0	1073	0	Ⴂ	cut_w_stereo_44KHz.wav
4	49	2	1	0	C	1	1	823	1	Ⴜ	cut_w_stereo_44KHz.wav
4	50	4	4	2	I	2	0	794	1	Ⴊ	cut_l_stereo_44KHz.wav
4	51	1	2	0	C	1	1	1470	1	Ⴂ	cut_g_stereo_44KHz.wav
4	52	3	3	2	I	1	0	1208	0	Ⴡ	cut_h_stereo_44KHz.wav
4	53	2	2	1	C	2	1	1326	1	Ⴜ	cut_g_stereo_44KHz.wav
4	54	1	1	1	C	2	1	1108	1	Ⴂ	cut_w_stereo_44KHz.wav
4	55	3	4	2	I	1	0	1352	1	Ⴡ	cut_l_stereo_44KHz.wav
4	56	4	3	2	I	1	0	1230	0	Ⴊ	cut_h_stereo_44KHz.wav
4	57	2	2	1	C	2	1	1674	1	Ⴜ	cut_g_stereo_44KHz.wav
4	58	4	3	2	I	1	0	1923	0	Ⴊ	cut_h_stereo_44KHz.wav
4	59	1	2	0	C	1	1	850	1	Ⴂ	cut_g_stereo_44KHz.wav
4	60	3	4	2	I	2	0	767	1	Ⴡ	cut_l_stereo_44KHz.wav
4	61	1	1	1	C	2	1	1071	1	Ⴂ	cut_w_stereo_44KHz.wav
4	62	2	1	0	C	1	1	1006	1	Ⴜ	cut_w_stereo_44KHz.wav
4	63	4	4	2	I	1	0	813	1	Ⴊ	cut_l_stereo_44KHz.wav
4	64	3	3	2	I	2	0	766	1	Ⴡ	cut_h_stereo_44KHz.wav
4	65	4	4	2	I	1	0	863	0	Ⴊ	cut_l_stereo_44KHz.wav
4	66	2	1	0	C	2	0	596	0	Ⴜ	cut_w_stereo_44KHz.wav
4	67	1	2	0	C	1	1	682	1	Ⴂ	cut_g_stereo_44KHz.wav
4	68	3	3	2	I	1	0	853	1	Ⴡ	cut_h_stereo_44KHz.wav
4	69	4	3	2	I	2	0	1230	0	Ⴊ	cut_h_stereo_44KHz.wav
4	70	3	4	2	I	1	0	815	0	Ⴡ	cut_l_stereo_44KHz.wav
4	71	1	1	1	C	2	1	1115	1	Ⴂ	cut_w_stereo_44KHz.wav
4	72	2	2	1	C	0	0	0	0	Ⴜ	cut_g_stereo_44KHz.wav
4	73	4	4	2	I	1	0	938	1	Ⴊ	cut_l_stereo_44KHz.wav
4	74	2	2	1	C	2	1	1012	1	Ⴜ	cut_g_stereo_44KHz.wav
4	75	3	4	2	I	1	0	864	0	Ⴡ	cut_l_stereo_44KHz.wav
4	76	1	2	0	C	1	1	972	1	Ⴂ	cut_g_stereo_44KHz.wav
4	77	3	3	2	I	2	0	739	0	Ⴡ	cut_h_stereo_44KHz.wav
4	78	1	1	1	C	1	0	1178	0	Ⴂ	cut_w_stereo_44KHz.wav
4	79	4	3	2	I	2	0	645	0	Ⴊ	cut_h_stereo_44KHz.wav
4	80	2	1	0	C	1	1	1450	1	Ⴜ	cut_w_stereo_44KHz.wav
4	81	4	4	2	I	2	0	689	1	Ⴊ	cut_l_stereo_44KHz.wav
4	82	3	3	2	I	1	0	726	0	Ⴡ	cut_h_stereo_44KHz.wav
4	83	2	1	0	C	1	1	807	1	Ⴜ	cut_w_stereo_44KHz.wav
4	84	1	1	1	C	2	1	800	1	Ⴂ	cut_w_stereo_44KHz.wav
4	85	4	3	2	I	2	0	806	0	Ⴊ	cut_h_stereo_44KHz.wav
4	86	1	2	0	C	1	1	1327	1	Ⴂ	cut_g_stereo_44KHz.wav
4	87	2	2	1	C	2	1	888	1	Ⴜ	cut_g_stereo_44KHz.wav
4	88	3	4	2	I	1	0	844	1	Ⴡ	cut_l_stereo_44KHz.wav
4	89	2	1	0	C	1	1	1097	1	Ⴜ	cut_w_stereo_44KHz.wav
4	90	1	2	0	C	1	1	894	1	Ⴂ	cut_g_stereo_44KHz.wav
4	91	3	3	2	I	1	0	1310	1	Ⴡ	cut_h_stereo_44KHz.wav
4	92	4	3	2	I	1	0	1616	0	Ⴊ	cut_h_stereo_44KHz.wav
4	93	2	2	1	C	2	1	1203	1	Ⴜ	cut_g_stereo_44KHz.wav
4	94	4	4	2	I	2	0	1515	1	Ⴊ	cut_l_stereo_44KHz.wav
4	95	3	4	2	I	1	0	722	0	Ⴡ	cut_l_stereo_44KHz.wav
4	96	1	1	1	C	2	1	1059	1	Ⴂ	cut_w_stereo_44KHz.wav
4	97	3	4	2	I	1	0	716	0	Ⴡ	cut_l_stereo_44KHz.wav
4	98	4	3	2	I	1	0	727	1	Ⴊ	cut_h_stereo_44KHz.wav
4	99	2	1	0	C	1	1	1165	1	Ⴜ	cut_w_stereo_44KHz.wav
4	100	1	2	0	C	1	1	896	1	Ⴂ	cut_g_stereo_44KHz.wav
4	101	4	4	2	I	2	0	780	0	Ⴊ	cut_l_stereo_44KHz.wav
4	102	3	3	2	I	1	0	752	1	Ⴡ	cut_h_stereo_44KHz.wav
4	103	2	2	1	C	2	1	1307	1	Ⴜ	cut_g_stereo_44KHz.wav
4	104	1	1	1	C	2	1	1423	1	Ⴂ	cut_w_stereo_44KHz.wav
4	105	4	3	2	I	1	0	747	0	Ⴊ	cut_h_stereo_44KHz.wav
4	106	1	2	0	C	1	1	969	1	Ⴂ	cut_g_stereo_44KHz.wav
4	107	2	2	1	C	2	1	1021	1	Ⴜ	cut_g_stereo_44KHz.wav
4	108	3	3	2	I	0	0	0	0	Ⴡ	cut_h_stereo_44KHz.wav
4	109	1	1	1	C	2	1	969	1	Ⴂ	cut_w_stereo_44KHz.wav
4	110	3	4	2	I	0	0	0	0	Ⴡ	cut_l_stereo_44KHz.wav
4	111	4	4	2	I	1	0	526	0	Ⴊ	cut_l_stereo_44KHz.wav
4	112	2	1	0	C	1	1	842	1	Ⴜ	cut_w_stereo_44KHz.wav
4	113	4	3	2	I	2	0	930	1	Ⴊ	cut_h_stereo_44KHz.wav
4	114	1	2	0	C	1	1	839	1	Ⴂ	cut_g_stereo_44KHz.wav
4	115	3	4	2	I	1	0	573	1	Ⴡ	cut_l_stereo_44KHz.wav
4	116	2	1	0	C	1	1	273	1	Ⴜ	cut_w_stereo_44KHz.wav
4	117	4	4	2	I	2	0	541	0	Ⴊ	cut_l_stereo_44KHz.wav
4	118	3	3	2	I	1	0	532	0	Ⴡ	cut_h_stereo_44KHz.wav
4	119	1	1	1	C	2	1	65	1	Ⴂ	cut_w_stereo_44KHz.wav
4	120	2	2	1	C	2	1	845	1	Ⴜ	cut_g_stereo_44KHz.wav
4	121	3	3	2	I	1	0	718	1	Ⴡ	cut_h_stereo_44KHz.wav
4	122	4	4	2	I	1	0	534	1	Ⴊ	cut_l_stereo_44KHz.wav
4	123	1	2	0	C	1	1	996	1	Ⴂ	cut_g_stereo_44KHz.wav
4	124	2	2	1	C	2	1	1287	1	Ⴜ	cut_g_stereo_44KHz.wav
4	125	1	1	1	C	2	1	994	1	Ⴂ	cut_w_stereo_44KHz.wav
4	126	4	3	2	I	2	0	943	0	Ⴊ	cut_h_stereo_44KHz.wav
4	127	2	1	0	C	1	1	1035	1	Ⴜ	cut_w_stereo_44KHz.wav
4	128	3	4	2	I	2	0	1358	1	Ⴡ	cut_l_stereo_44KHz.wav
4	129	2	1	0	C	1	1	748	1	Ⴜ	cut_w_stereo_44KHz.wav
4	130	1	1	1	C	2	1	907	1	Ⴂ	cut_w_stereo_44KHz.wav
4	131	4	3	2	I	1	0	775	0	Ⴊ	cut_h_stereo_44KHz.wav
4	132	3	3	2	I	1	0	629	1	Ⴡ	cut_h_stereo_44KHz.wav
4	133	1	2	0	C	1	1	843	1	Ⴂ	cut_g_stereo_44KHz.wav
4	134	4	4	2	I	2	0	455	1	Ⴊ	cut_l_stereo_44KHz.wav
4	135	2	2	1	C	2	1	479	1	Ⴜ	cut_g_stereo_44KHz.wav
4	136	3	4	2	I	1	0	561	0	Ⴡ	cut_l_stereo_44KHz.wav
4	137	2	1	0	C	1	1	902	1	Ⴜ	cut_w_stereo_44KHz.wav
4	138	4	3	2	I	1	0	482	1	Ⴊ	cut_h_stereo_44KHz.wav
4	139	3	3	2	I	2	0	882	1	Ⴡ	cut_h_stereo_44KHz.wav
4	140	1	2	0	C	1	1	1133	1	Ⴂ	cut_g_stereo_44KHz.wav
4	141	4	4	2	I	2	0	811	0	Ⴊ	cut_l_stereo_44KHz.wav
4	142	3	4	2	I	2	0	288	0	Ⴡ	cut_l_stereo_44KHz.wav
4	143	1	1	1	C	2	1	963	1	Ⴂ	cut_w_stereo_44KHz.wav
4	144	2	2	1	C	2	1	1172	1	Ⴜ	cut_g_stereo_44KHz.wav
4	145	4	4	2	I	1	0	611	0	Ⴊ	cut_l_stereo_44KHz.wav
4	146	1	2	0	C	1	1	1147	1	Ⴂ	cut_g_stereo_44KHz.wav
4	147	3	3	2	I	2	0	767	1	Ⴡ	cut_h_stereo_44KHz.wav
4	148	2	2	1	C	2	1	974	1	Ⴜ	cut_g_stereo_44KHz.wav
4	149	3	4	2	I	1	0	704	0	Ⴡ	cut_l_stereo_44KHz.wav
4	150	1	1	1	C	2	1	1198	1	Ⴂ	cut_w_stereo_44KHz.wav
4	151	2	1	0	C	1	1	867	1	Ⴜ	cut_w_stereo_44KHz.wav
4	152	4	3	2	I	2	0	1138	0	Ⴊ	cut_h_stereo_44KHz.wav
4	153	2	1	0	C	1	1	686	1	Ⴜ	cut_w_stereo_44KHz.wav
4	154	4	4	2	I	1	0	577	0	Ⴊ	cut_l_stereo_44KHz.wav
4	155	3	3	2	I	1	0	703	1	Ⴡ	cut_h_stereo_44KHz.wav
4	156	1	2	0	C	1	1	936	1	Ⴂ	cut_g_stereo_44KHz.wav
4	157	4	3	2	I	2	0	674	0	Ⴊ	cut_h_stereo_44KHz.wav
4	158	2	2	1	C	2	1	933	1	Ⴜ	cut_g_stereo_44KHz.wav
4	159	1	1	1	C	2	1	1157	1	Ⴂ	cut_w_stereo_44KHz.wav
4	160	3	4	2	I	1	0	876	1	Ⴡ	cut_l_stereo_44KHz.wav
4	161	4	3	2	I	2	0	642	0	Ⴊ	cut_h_stereo_44KHz.wav
4	162	2	1	0	C	1	1	844	1	Ⴜ	cut_w_stereo_44KHz.wav
4	163	3	3	2	I	1	0	629	0	Ⴡ	cut_h_stereo_44KHz.wav
4	164	1	2	0	C	1	1	1060	1	Ⴂ	cut_g_stereo_44KHz.wav
4	165	3	4	2	I	1	0	1150	1	Ⴡ	cut_l_stereo_44KHz.wav
4	166	2	2	1	C	2	1	1037	1	Ⴜ	cut_g_stereo_44KHz.wav
4	167	1	1	1	C	1	0	901	0	Ⴂ	cut_w_stereo_44KHz.wav
4	168	4	4	2	I	2	0	688	1	Ⴊ	cut_l_stereo_44KHz.wav
4	169	2	2	1	C	2	1	913	1	Ⴜ	cut_g_stereo_44KHz.wav
4	170	3	3	2	I	1	0	747	1	Ⴡ	cut_h_stereo_44KHz.wav
4	171	4	3	2	I	2	0	480	1	Ⴊ	cut_h_stereo_44KHz.wav
4	172	1	2	0	C	1	1	1136	1	Ⴂ	cut_g_stereo_44KHz.wav
4	173	3	4	2	I	1	0	1170	1	Ⴡ	cut_l_stereo_44KHz.wav
4	174	4	4	2	I	1	0	674	1	Ⴊ	cut_l_stereo_44KHz.wav
4	175	2	1	0	C	1	1	1017	1	Ⴜ	cut_w_stereo_44KHz.wav
4	176	1	1	1	C	2	1	946	1	Ⴂ	cut_w_stereo_44KHz.wav
4	177	4	3	2	I	1	0	852	1	Ⴊ	cut_h_stereo_44KHz.wav
4	178	3	4	2	I	2	0	754	0	Ⴡ	cut_l_stereo_44KHz.wav
4	179	1	1	1	C	2	1	971	1	Ⴂ	cut_w_stereo_44KHz.wav
4	180	2	1	0	C	1	1	1041	1	Ⴜ	cut_w_stereo_44KHz.wav
4	181	4	4	2	I	2	0	854	1	Ⴊ	cut_l_stereo_44KHz.wav
4	182	2	2	1	C	2	1	1088	1	Ⴜ	cut_g_stereo_44KHz.wav
4	183	1	2	0	C	1	1	773	1	Ⴂ	cut_g_stereo_44KHz.wav
4	184	3	3	2	I	2	0	676	1	Ⴡ	cut_h_stereo_44KHz.wav
4	185	1	1	1	C	1	0	428	0	Ⴂ	cut_w_stereo_44KHz.wav
4	186	3	4	2	I	2	0	743	1	Ⴡ	cut_l_stereo_44KHz.wav
4	187	2	2	1	C	2	1	873	1	Ⴜ	cut_g_stereo_44KHz.wav
4	188	4	4	2	I	1	0	757	0	Ⴊ	cut_l_stereo_44KHz.wav
4	189	2	1	0	C	1	1	688	1	Ⴜ	cut_w_stereo_44KHz.wav
4	190	1	2	0	C	1	1	784	1	Ⴂ	cut_g_stereo_44KHz.wav
4	191	4	3	2	I	2	0	738	0	Ⴊ	cut_h_stereo_44KHz.wav
4	192	3	3	2	I	2	0	670	0	Ⴡ	cut_h_stereo_44KHz.wav
4	193	2	1	0	C	1	1	883	1	Ⴜ	cut_w_stereo_44KHz.wav
4	194	4	4	2	I	2	0	1082	1	Ⴊ	cut_l_stereo_44KHz.wav
4	195	1	2	0	C	1	1	1069	1	Ⴂ	cut_g_stereo_44KHz.wav
4	196	3	4	2	I	2	0	662	0	Ⴡ	cut_l_stereo_44KHz.wav
4	197	1	1	1	C	1	0	1029	0	Ⴂ	cut_w_stereo_44KHz.wav
4	198	2	2	1	C	2	1	1121	1	Ⴜ	cut_g_stereo_44KHz.wav
4	199	4	3	2	I	2	0	683	0	Ⴊ	cut_h_stereo_44KHz.wav
4	200	3	3	2	I	2	0	705	0	Ⴡ	cut_h_stereo_44KHz.wav
