block	trial	Vstim	Astim	match	C/I	resp	result	RT	fb	V-file	A-file
LR

0	1	2	4	0	C	0	0	0	0	Ⴢ	cut_oo_stereo_44KHz.wav
0	2	1	1	1	C	2	1	900	1	Ⴉ	cut_eeuw_stereo_44KHz.wav
0	3	1	2	0	C	2	0	1186	0	Ⴉ	cut_g_stereo_44KHz.wav
0	4	2	3	1	C	2	1	757	1	Ⴢ	cut_ee_stereo_44KHz.wav
0	5	1	1	1	C	2	1	1002	1	Ⴉ	cut_eeuw_stereo_44KHz.wav
0	6	1	2	0	C	1	1	859	1	Ⴉ	cut_g_stereo_44KHz.wav
0	7	2	4	0	C	1	1	830	1	Ⴢ	cut_oo_stereo_44KHz.wav
0	8	2	3	1	C	2	1	925	1	Ⴢ	cut_ee_stereo_44KHz.wav
0	9	2	4	0	C	1	1	621	1	Ⴢ	cut_oo_stereo_44KHz.wav
0	10	1	1	1	C	2	1	918	1	Ⴉ	cut_eeuw_stereo_44KHz.wav
0	11	2	3	1	C	2	1	615	1	Ⴢ	cut_ee_stereo_44KHz.wav
0	12	1	2	0	C	2	0	676	0	Ⴉ	cut_g_stereo_44KHz.wav
0	13	2	3	1	C	2	1	1252	1	Ⴢ	cut_ee_stereo_44KHz.wav
0	14	1	1	1	C	2	1	558	1	Ⴉ	cut_eeuw_stereo_44KHz.wav
0	15	2	4	0	C	1	1	652	1	Ⴢ	cut_oo_stereo_44KHz.wav
0	16	1	2	0	C	1	1	639	1	Ⴉ	cut_g_stereo_44KHz.wav
0	17	1	2	0	C	1	1	1002	1	Ⴉ	cut_g_stereo_44KHz.wav
0	18	1	1	1	C	2	1	707	1	Ⴉ	cut_eeuw_stereo_44KHz.wav
0	19	2	4	0	C	1	1	968	1	Ⴢ	cut_oo_stereo_44KHz.wav
0	20	2	3	1	C	1	0	689	0	Ⴢ	cut_ee_stereo_44KHz.wav
0	21	2	4	0	C	1	1	602	1	Ⴢ	cut_oo_stereo_44KHz.wav
0	22	1	1	1	C	2	1	761	1	Ⴉ	cut_eeuw_stereo_44KHz.wav
0	23	1	2	0	C	1	1	692	1	Ⴉ	cut_g_stereo_44KHz.wav
0	24	2	3	1	C	2	1	558	1	Ⴢ	cut_ee_stereo_44KHz.wav
0	25	2	4	0	C	1	1	535	1	Ⴢ	cut_oo_stereo_44KHz.wav
0	26	1	1	1	C	2	1	616	1	Ⴉ	cut_eeuw_stereo_44KHz.wav
0	27	2	3	1	C	2	1	768	1	Ⴢ	cut_ee_stereo_44KHz.wav
0	28	1	2	0	C	1	1	594	1	Ⴉ	cut_g_stereo_44KHz.wav
0	29	1	1	1	C	2	1	790	1	Ⴉ	cut_eeuw_stereo_44KHz.wav
0	30	2	4	0	C	1	1	474	1	Ⴢ	cut_oo_stereo_44KHz.wav
avg_resp = 754
1	1	1	2	0	C	1	1	1063	1	Ⴇ	cut_j_stereo_44KHz.wav
1	2	2	2	1	C	2	1	572	1	Ⴜ	cut_j_stereo_44KHz.wav
1	3	3	3	2	I	1	0	845	1	Ⴊ	cut_r_stereo_44KHz.wav
1	4	4	3	2	I	2	0	530	1	Ⴡ	cut_r_stereo_44KHz.wav
1	5	3	4	2	I	2	0	604	1	Ⴊ	cut_n_stereo_44KHz.wav
1	6	2	1	0	C	2	0	928	0	Ⴜ	cut_ei_stereo_44KHz.wav
1	7	4	4	2	I	1	0	760	0	Ⴡ	cut_n_stereo_44KHz.wav
1	8	1	1	1	C	2	1	1178	1	Ⴇ	cut_ei_stereo_44KHz.wav
1	9	2	1	0	C	1	1	393	1	Ⴜ	cut_ei_stereo_44KHz.wav
1	10	1	2	0	C	2	0	888	0	Ⴇ	cut_j_stereo_44KHz.wav
1	11	4	3	2	I	1	0	775	1	Ⴡ	cut_r_stereo_44KHz.wav
1	12	3	3	2	I	2	0	818	1	Ⴊ	cut_r_stereo_44KHz.wav
1	13	4	4	2	I	1	0	937	0	Ⴡ	cut_n_stereo_44KHz.wav
1	14	1	1	1	C	2	1	900	1	Ⴇ	cut_ei_stereo_44KHz.wav
1	15	2	2	1	C	2	1	632	1	Ⴜ	cut_j_stereo_44KHz.wav
1	16	3	4	2	I	1	0	964	0	Ⴊ	cut_n_stereo_44KHz.wav
1	17	2	1	0	C	1	1	655	1	Ⴜ	cut_ei_stereo_44KHz.wav
1	18	1	1	1	C	2	1	668	1	Ⴇ	cut_ei_stereo_44KHz.wav
1	19	3	3	2	I	1	0	881	0	Ⴊ	cut_r_stereo_44KHz.wav
1	20	4	3	2	I	1	0	960	0	Ⴡ	cut_r_stereo_44KHz.wav
1	21	2	2	1	C	1	0	654	0	Ⴜ	cut_j_stereo_44KHz.wav
1	22	3	4	2	I	2	0	894	1	Ⴊ	cut_n_stereo_44KHz.wav
1	23	1	2	0	C	2	0	834	0	Ⴇ	cut_j_stereo_44KHz.wav
1	24	4	4	2	I	1	0	1229	1	Ⴡ	cut_n_stereo_44KHz.wav
1	25	2	1	0	C	1	1	626	1	Ⴜ	cut_ei_stereo_44KHz.wav
1	26	3	4	2	I	2	0	976	0	Ⴊ	cut_n_stereo_44KHz.wav
1	27	1	2	0	C	2	0	916	0	Ⴇ	cut_j_stereo_44KHz.wav
1	28	4	3	2	I	2	0	1004	1	Ⴡ	cut_r_stereo_44KHz.wav
1	29	1	1	1	C	2	1	506	1	Ⴇ	cut_ei_stereo_44KHz.wav
1	30	3	3	2	I	1	0	1024	0	Ⴊ	cut_r_stereo_44KHz.wav
1	31	2	2	1	C	1	0	647	0	Ⴜ	cut_j_stereo_44KHz.wav
1	32	4	4	2	I	1	0	1042	1	Ⴡ	cut_n_stereo_44KHz.wav
1	33	2	1	0	C	1	1	651	1	Ⴜ	cut_ei_stereo_44KHz.wav
1	34	1	1	1	C	2	1	608	1	Ⴇ	cut_ei_stereo_44KHz.wav
1	35	3	4	2	I	1	0	1136	0	Ⴊ	cut_n_stereo_44KHz.wav
1	36	4	4	2	I	1	0	729	1	Ⴡ	cut_n_stereo_44KHz.wav
1	37	3	3	2	I	1	0	725	0	Ⴊ	cut_r_stereo_44KHz.wav
1	38	2	2	1	C	2	1	863	1	Ⴜ	cut_j_stereo_44KHz.wav
1	39	4	3	2	I	2	0	1039	0	Ⴡ	cut_r_stereo_44KHz.wav
1	40	1	2	0	C	2	0	786	0	Ⴇ	cut_j_stereo_44KHz.wav
1	41	2	2	1	C	1	0	658	0	Ⴜ	cut_j_stereo_44KHz.wav
1	42	1	1	1	C	2	1	753	1	Ⴇ	cut_ei_stereo_44KHz.wav
1	43	4	3	2	I	2	0	966	0	Ⴡ	cut_r_stereo_44KHz.wav
1	44	3	3	2	I	1	0	988	0	Ⴊ	cut_r_stereo_44KHz.wav
1	45	1	2	0	C	1	1	1031	1	Ⴇ	cut_j_stereo_44KHz.wav
1	46	2	1	0	C	1	1	557	1	Ⴜ	cut_ei_stereo_44KHz.wav
1	47	4	4	2	I	1	0	821	0	Ⴡ	cut_n_stereo_44KHz.wav
1	48	3	4	2	I	2	0	1206	1	Ⴊ	cut_n_stereo_44KHz.wav
1	49	2	2	1	C	2	1	732	1	Ⴜ	cut_j_stereo_44KHz.wav
1	50	3	4	2	I	2	0	1237	1	Ⴊ	cut_n_stereo_44KHz.wav
1	51	4	4	2	I	2	0	813	0	Ⴡ	cut_n_stereo_44KHz.wav
1	52	1	1	1	C	2	1	785	1	Ⴇ	cut_ei_stereo_44KHz.wav
1	53	2	1	0	C	1	1	648	1	Ⴜ	cut_ei_stereo_44KHz.wav
1	54	1	2	0	C	1	1	1096	1	Ⴇ	cut_j_stereo_44KHz.wav
1	55	4	3	2	I	2	0	1020	0	Ⴡ	cut_r_stereo_44KHz.wav
1	56	3	3	2	I	1	0	976	0	Ⴊ	cut_r_stereo_44KHz.wav
1	57	2	1	0	C	1	1	555	1	Ⴜ	cut_ei_stereo_44KHz.wav
1	58	1	2	0	C	1	1	1193	1	Ⴇ	cut_j_stereo_44KHz.wav
1	59	3	3	2	I	2	0	1311	0	Ⴊ	cut_r_stereo_44KHz.wav
1	60	4	4	2	I	1	0	971	0	Ⴡ	cut_n_stereo_44KHz.wav
1	61	2	2	1	C	2	1	830	1	Ⴜ	cut_j_stereo_44KHz.wav
1	62	4	3	2	I	2	0	1034	1	Ⴡ	cut_r_stereo_44KHz.wav
1	63	1	1	1	C	2	1	799	1	Ⴇ	cut_ei_stereo_44KHz.wav
1	64	3	4	2	I	2	0	974	1	Ⴊ	cut_n_stereo_44KHz.wav
1	65	4	4	2	I	1	0	975	1	Ⴡ	cut_n_stereo_44KHz.wav
1	66	3	4	2	I	2	0	788	0	Ⴊ	cut_n_stereo_44KHz.wav
1	67	1	2	0	C	1	1	970	1	Ⴇ	cut_j_stereo_44KHz.wav
1	68	2	1	0	C	1	1	569	1	Ⴜ	cut_ei_stereo_44KHz.wav
1	69	3	3	2	I	1	0	882	1	Ⴊ	cut_r_stereo_44KHz.wav
1	70	1	1	1	C	2	1	717	1	Ⴇ	cut_ei_stereo_44KHz.wav
1	71	4	3	2	I	2	0	808	1	Ⴡ	cut_r_stereo_44KHz.wav
1	72	2	2	1	C	2	1	748	1	Ⴜ	cut_j_stereo_44KHz.wav
1	73	1	2	0	C	1	1	981	1	Ⴇ	cut_j_stereo_44KHz.wav
1	74	3	3	2	I	1	0	764	0	Ⴊ	cut_r_stereo_44KHz.wav
1	75	2	1	0	C	1	1	554	1	Ⴜ	cut_ei_stereo_44KHz.wav
1	76	4	3	2	I	2	0	1039	0	Ⴡ	cut_r_stereo_44KHz.wav
1	77	3	4	2	I	2	0	928	0	Ⴊ	cut_n_stereo_44KHz.wav
1	78	1	1	1	C	2	1	772	1	Ⴇ	cut_ei_stereo_44KHz.wav
1	79	2	2	1	C	2	1	702	1	Ⴜ	cut_j_stereo_44KHz.wav
1	80	4	4	2	I	1	0	854	1	Ⴡ	cut_n_stereo_44KHz.wav
1	81	1	2	0	C	1	1	818	1	Ⴇ	cut_j_stereo_44KHz.wav
1	82	2	2	1	C	2	1	584	1	Ⴜ	cut_j_stereo_44KHz.wav
1	83	4	3	2	I	2	0	1029	0	Ⴡ	cut_r_stereo_44KHz.wav
1	84	3	3	2	I	1	0	1019	0	Ⴊ	cut_r_stereo_44KHz.wav
1	85	1	1	1	C	2	1	685	1	Ⴇ	cut_ei_stereo_44KHz.wav
1	86	2	1	0	C	1	1	699	1	Ⴜ	cut_ei_stereo_44KHz.wav
1	87	4	4	2	I	1	0	900	1	Ⴡ	cut_n_stereo_44KHz.wav
1	88	3	4	2	I	2	0	913	1	Ⴊ	cut_n_stereo_44KHz.wav
1	89	4	3	2	I	2	0	853	0	Ⴡ	cut_r_stereo_44KHz.wav
1	90	1	2	0	C	1	1	889	1	Ⴇ	cut_j_stereo_44KHz.wav
1	91	2	1	0	C	1	1	614	1	Ⴜ	cut_ei_stereo_44KHz.wav
1	92	3	3	2	I	1	0	896	1	Ⴊ	cut_r_stereo_44KHz.wav
1	93	1	1	1	C	2	1	751	1	Ⴇ	cut_ei_stereo_44KHz.wav
1	94	2	2	1	C	2	1	770	1	Ⴜ	cut_j_stereo_44KHz.wav
1	95	3	4	2	I	2	0	816	1	Ⴊ	cut_n_stereo_44KHz.wav
1	96	4	4	2	I	1	0	933	1	Ⴡ	cut_n_stereo_44KHz.wav
1	97	3	3	2	I	2	0	700	1	Ⴊ	cut_r_stereo_44KHz.wav
1	98	2	2	1	C	2	1	930	1	Ⴜ	cut_j_stereo_44KHz.wav
1	99	1	2	0	C	1	1	876	1	Ⴇ	cut_j_stereo_44KHz.wav
1	100	4	3	2	I	2	0	1100	0	Ⴡ	cut_r_stereo_44KHz.wav
1	101	1	1	1	C	2	1	735	1	Ⴇ	cut_ei_stereo_44KHz.wav
1	102	4	4	2	I	1	0	774	1	Ⴡ	cut_n_stereo_44KHz.wav
1	103	2	1	0	C	1	1	720	1	Ⴜ	cut_ei_stereo_44KHz.wav
1	104	3	4	2	I	2	0	1053	1	Ⴊ	cut_n_stereo_44KHz.wav
1	105	1	1	1	C	2	1	939	1	Ⴇ	cut_ei_stereo_44KHz.wav
1	106	4	3	2	I	2	0	986	0	Ⴡ	cut_r_stereo_44KHz.wav
1	107	2	2	1	C	2	1	866	1	Ⴜ	cut_j_stereo_44KHz.wav
1	108	3	4	2	I	2	0	874	1	Ⴊ	cut_n_stereo_44KHz.wav
1	109	1	2	0	C	1	1	953	1	Ⴇ	cut_j_stereo_44KHz.wav
1	110	3	3	2	I	1	0	903	0	Ⴊ	cut_r_stereo_44KHz.wav
1	111	2	1	0	C	1	1	926	1	Ⴜ	cut_ei_stereo_44KHz.wav
1	112	4	4	2	I	1	0	815	1	Ⴡ	cut_n_stereo_44KHz.wav
1	113	3	4	2	I	2	0	828	1	Ⴊ	cut_n_stereo_44KHz.wav
1	114	4	3	2	I	2	0	829	0	Ⴡ	cut_r_stereo_44KHz.wav
1	115	2	1	0	C	1	1	580	1	Ⴜ	cut_ei_stereo_44KHz.wav
1	116	1	1	1	C	2	1	568	1	Ⴇ	cut_ei_stereo_44KHz.wav
1	117	2	2	1	C	2	1	516	1	Ⴜ	cut_j_stereo_44KHz.wav
1	118	4	4	2	I	1	0	930	1	Ⴡ	cut_n_stereo_44KHz.wav
1	119	1	2	0	C	2	0	623	0	Ⴇ	cut_j_stereo_44KHz.wav
1	120	3	3	2	I	1	0	829	1	Ⴊ	cut_r_stereo_44KHz.wav
1	121	1	2	0	C	1	1	750	1	Ⴇ	cut_j_stereo_44KHz.wav
1	122	2	2	1	C	2	1	736	1	Ⴜ	cut_j_stereo_44KHz.wav
1	123	3	4	2	I	2	0	1015	1	Ⴊ	cut_n_stereo_44KHz.wav
1	124	4	3	2	I	1	0	1087	1	Ⴡ	cut_r_stereo_44KHz.wav
1	125	2	1	0	C	1	1	629	1	Ⴜ	cut_ei_stereo_44KHz.wav
1	126	1	1	1	C	2	1	726	1	Ⴇ	cut_ei_stereo_44KHz.wav
1	127	3	3	2	I	1	0	771	0	Ⴊ	cut_r_stereo_44KHz.wav
1	128	4	4	2	I	1	0	903	0	Ⴡ	cut_n_stereo_44KHz.wav
1	129	3	3	2	I	2	0	817	1	Ⴊ	cut_r_stereo_44KHz.wav
1	130	1	1	1	C	2	1	915	1	Ⴇ	cut_ei_stereo_44KHz.wav
1	131	4	4	2	I	1	0	840	1	Ⴡ	cut_n_stereo_44KHz.wav
1	132	2	1	0	C	1	1	646	1	Ⴜ	cut_ei_stereo_44KHz.wav
1	133	1	2	0	C	1	1	1046	1	Ⴇ	cut_j_stereo_44KHz.wav
1	134	3	4	2	I	2	0	1022	0	Ⴊ	cut_n_stereo_44KHz.wav
1	135	2	2	1	C	2	1	1074	1	Ⴜ	cut_j_stereo_44KHz.wav
1	136	4	3	2	I	1	0	908	0	Ⴡ	cut_r_stereo_44KHz.wav
1	137	3	3	2	I	1	0	668	1	Ⴊ	cut_r_stereo_44KHz.wav
1	138	1	2	0	C	1	1	786	1	Ⴇ	cut_j_stereo_44KHz.wav
1	139	2	2	1	C	2	1	737	1	Ⴜ	cut_j_stereo_44KHz.wav
1	140	4	3	2	I	2	0	947	1	Ⴡ	cut_r_stereo_44KHz.wav
1	141	3	4	2	I	2	0	715	1	Ⴊ	cut_n_stereo_44KHz.wav
1	142	2	1	0	C	1	1	787	1	Ⴜ	cut_ei_stereo_44KHz.wav
1	143	1	1	1	C	2	1	731	1	Ⴇ	cut_ei_stereo_44KHz.wav
1	144	4	4	2	I	1	0	857	1	Ⴡ	cut_n_stereo_44KHz.wav
1	145	1	1	1	C	2	1	684	1	Ⴇ	cut_ei_stereo_44KHz.wav
1	146	3	4	2	I	2	0	790	0	Ⴊ	cut_n_stereo_44KHz.wav
1	147	4	3	2	I	1	0	862	0	Ⴡ	cut_r_stereo_44KHz.wav
1	148	2	1	0	C	1	1	792	1	Ⴜ	cut_ei_stereo_44KHz.wav
1	149	4	4	2	I	1	0	851	1	Ⴡ	cut_n_stereo_44KHz.wav
1	150	1	2	0	C	2	0	716	0	Ⴇ	cut_j_stereo_44KHz.wav
1	151	3	3	2	I	1	0	843	1	Ⴊ	cut_r_stereo_44KHz.wav
1	152	2	2	1	C	2	1	787	1	Ⴜ	cut_j_stereo_44KHz.wav
1	153	4	3	2	I	2	0	863	0	Ⴡ	cut_r_stereo_44KHz.wav
1	154	1	1	1	C	2	1	836	1	Ⴇ	cut_ei_stereo_44KHz.wav
1	155	2	1	0	C	1	1	619	1	Ⴜ	cut_ei_stereo_44KHz.wav
1	156	3	4	2	I	2	0	881	0	Ⴊ	cut_n_stereo_44KHz.wav
1	157	4	4	2	I	1	0	1024	0	Ⴡ	cut_n_stereo_44KHz.wav
1	158	3	3	2	I	1	0	982	1	Ⴊ	cut_r_stereo_44KHz.wav
1	159	1	2	0	C	1	1	722	1	Ⴇ	cut_j_stereo_44KHz.wav
1	160	2	2	1	C	2	1	815	1	Ⴜ	cut_j_stereo_44KHz.wav
1	161	4	3	2	I	1	0	1276	0	Ⴡ	cut_r_stereo_44KHz.wav
1	162	3	3	2	I	1	0	678	0	Ⴊ	cut_r_stereo_44KHz.wav
1	163	1	2	0	C	1	1	695	1	Ⴇ	cut_j_stereo_44KHz.wav
1	164	2	1	0	C	1	1	522	1	Ⴜ	cut_ei_stereo_44KHz.wav
1	165	4	4	2	I	1	0	707	0	Ⴡ	cut_n_stereo_44KHz.wav
1	166	2	2	1	C	1	0	647	0	Ⴜ	cut_j_stereo_44KHz.wav
1	167	3	4	2	I	2	0	1109	0	Ⴊ	cut_n_stereo_44KHz.wav
1	168	1	1	1	C	2	1	708	1	Ⴇ	cut_ei_stereo_44KHz.wav
1	169	4	3	2	I	1	0	901	1	Ⴡ	cut_r_stereo_44KHz.wav
1	170	2	1	0	C	1	1	960	1	Ⴜ	cut_ei_stereo_44KHz.wav
1	171	3	3	2	I	1	0	1046	0	Ⴊ	cut_r_stereo_44KHz.wav
1	172	1	2	0	C	1	1	850	1	Ⴇ	cut_j_stereo_44KHz.wav
1	173	2	2	1	C	2	1	746	1	Ⴜ	cut_j_stereo_44KHz.wav
1	174	1	1	1	C	2	1	788	1	Ⴇ	cut_ei_stereo_44KHz.wav
1	175	4	4	2	I	1	0	850	0	Ⴡ	cut_n_stereo_44KHz.wav
1	176	3	4	2	I	1	0	1093	0	Ⴊ	cut_n_stereo_44KHz.wav
1	177	1	1	1	C	2	1	997	1	Ⴇ	cut_ei_stereo_44KHz.wav
1	178	4	4	2	I	1	0	739	1	Ⴡ	cut_n_stereo_44KHz.wav
1	179	2	2	1	C	2	1	797	1	Ⴜ	cut_j_stereo_44KHz.wav
1	180	3	4	2	I	1	0	846	0	Ⴊ	cut_n_stereo_44KHz.wav
1	181	4	3	2	I	1	0	515	0	Ⴡ	cut_r_stereo_44KHz.wav
1	182	2	1	0	C	1	1	702	1	Ⴜ	cut_ei_stereo_44KHz.wav
1	183	3	3	2	I	2	0	731	1	Ⴊ	cut_r_stereo_44KHz.wav
1	184	1	2	0	C	1	1	730	1	Ⴇ	cut_j_stereo_44KHz.wav
1	185	4	3	2	I	1	0	738	1	Ⴡ	cut_r_stereo_44KHz.wav
1	186	2	2	1	C	2	1	805	1	Ⴜ	cut_j_stereo_44KHz.wav
1	187	3	3	2	I	1	0	843	1	Ⴊ	cut_r_stereo_44KHz.wav
1	188	1	1	1	C	2	1	737	1	Ⴇ	cut_ei_stereo_44KHz.wav
1	189	3	4	2	I	2	0	838	0	Ⴊ	cut_n_stereo_44KHz.wav
1	190	4	4	2	I	1	0	685	0	Ⴡ	cut_n_stereo_44KHz.wav
1	191	2	1	0	C	1	1	867	1	Ⴜ	cut_ei_stereo_44KHz.wav
1	192	1	2	0	C	1	1	820	1	Ⴇ	cut_j_stereo_44KHz.wav
1	193	3	4	2	I	1	0	908	1	Ⴊ	cut_n_stereo_44KHz.wav
1	194	2	2	1	C	2	1	915	1	Ⴜ	cut_j_stereo_44KHz.wav
1	195	1	1	1	C	2	1	840	1	Ⴇ	cut_ei_stereo_44KHz.wav
1	196	4	3	2	I	1	0	944	1	Ⴡ	cut_r_stereo_44KHz.wav
1	197	2	1	0	C	1	1	847	1	Ⴜ	cut_ei_stereo_44KHz.wav
1	198	3	3	2	I	2	0	858	0	Ⴊ	cut_r_stereo_44KHz.wav
1	199	1	2	0	C	2	0	841	0	Ⴇ	cut_j_stereo_44KHz.wav
1	200	4	4	2	I	1	0	725	1	Ⴡ	cut_n_stereo_44KHz.wav
2	1	1	2	0	C	1	1	1365	1	Ⴉ	cut_u_stereo_44KHz.wav
2	2	2	1	0	C	2	0	909	0	Ⴐ	cut_o_stereo_44KHz.wav
2	3	3	4	2	I	2	0	928	0	Ⴕ	cut_k_stereo_44KHz.wav
2	4	4	4	2	I	1	0	658	1	Ⴔ	cut_k_stereo_44KHz.wav
2	5	3	3	2	I	2	0	1057	1	Ⴕ	cut_a_stereo_44KHz.wav
2	6	4	3	2	I	1	0	813	1	Ⴔ	cut_a_stereo_44KHz.wav
2	7	2	2	1	C	2	1	796	1	Ⴐ	cut_u_stereo_44KHz.wav
2	8	1	1	1	C	1	0	1135	0	Ⴉ	cut_o_stereo_44KHz.wav
2	9	4	4	2	I	2	0	772	1	Ⴔ	cut_k_stereo_44KHz.wav
2	10	3	3	2	I	2	0	837	1	Ⴕ	cut_a_stereo_44KHz.wav
2	11	1	2	0	C	1	1	682	1	Ⴉ	cut_u_stereo_44KHz.wav
2	12	2	1	0	C	1	1	780	1	Ⴐ	cut_o_stereo_44KHz.wav
2	13	1	1	1	C	2	1	689	1	Ⴉ	cut_o_stereo_44KHz.wav
2	14	4	3	2	I	1	0	668	0	Ⴔ	cut_a_stereo_44KHz.wav
2	15	3	4	2	I	1	0	1122	0	Ⴕ	cut_k_stereo_44KHz.wav
2	16	2	2	1	C	2	1	989	1	Ⴐ	cut_u_stereo_44KHz.wav
2	17	1	1	1	C	2	1	641	1	Ⴉ	cut_o_stereo_44KHz.wav
2	18	3	4	2	I	1	0	768	1	Ⴕ	cut_k_stereo_44KHz.wav
2	19	2	2	1	C	2	1	731	1	Ⴐ	cut_u_stereo_44KHz.wav
2	20	4	3	2	I	1	0	602	1	Ⴔ	cut_a_stereo_44KHz.wav
2	21	3	3	2	I	2	0	531	0	Ⴕ	cut_a_stereo_44KHz.wav
2	22	2	1	0	C	2	0	822	0	Ⴐ	cut_o_stereo_44KHz.wav
2	23	1	2	0	C	1	1	384	1	Ⴉ	cut_u_stereo_44KHz.wav
2	24	4	4	2	I	2	0	561	1	Ⴔ	cut_k_stereo_44KHz.wav
2	25	3	4	2	I	2	0	652	0	Ⴕ	cut_k_stereo_44KHz.wav
2	26	4	3	2	I	1	0	547	0	Ⴔ	cut_a_stereo_44KHz.wav
2	27	1	2	0	C	1	1	796	1	Ⴉ	cut_u_stereo_44KHz.wav
2	28	2	2	1	C	2	1	1128	1	Ⴐ	cut_u_stereo_44KHz.wav
2	29	1	1	1	C	2	1	586	1	Ⴉ	cut_o_stereo_44KHz.wav
2	30	2	1	0	C	2	0	672	0	Ⴐ	cut_o_stereo_44KHz.wav
2	31	4	4	2	I	1	0	597	1	Ⴔ	cut_k_stereo_44KHz.wav
2	32	3	3	2	I	2	0	844	0	Ⴕ	cut_a_stereo_44KHz.wav
2	33	4	3	2	I	1	0	633	0	Ⴔ	cut_a_stereo_44KHz.wav
2	34	3	3	2	I	2	0	732	1	Ⴕ	cut_a_stereo_44KHz.wav
2	35	2	1	0	C	2	0	831	0	Ⴐ	cut_o_stereo_44KHz.wav
2	36	1	1	1	C	2	1	673	1	Ⴉ	cut_o_stereo_44KHz.wav
2	37	2	2	1	C	2	1	469	1	Ⴐ	cut_u_stereo_44KHz.wav
2	38	1	2	0	C	1	1	809	1	Ⴉ	cut_u_stereo_44KHz.wav
2	39	3	4	2	I	1	0	654	0	Ⴕ	cut_k_stereo_44KHz.wav
2	40	4	4	2	I	2	0	648	1	Ⴔ	cut_k_stereo_44KHz.wav
2	41	2	2	1	C	1	0	772	0	Ⴐ	cut_u_stereo_44KHz.wav
2	42	1	2	0	C	1	1	407	1	Ⴉ	cut_u_stereo_44KHz.wav
2	43	4	3	2	I	1	0	734	0	Ⴔ	cut_a_stereo_44KHz.wav
2	44	3	3	2	I	1	0	826	1	Ⴕ	cut_a_stereo_44KHz.wav
2	45	1	1	1	C	2	1	652	1	Ⴉ	cut_o_stereo_44KHz.wav
2	46	3	4	2	I	1	0	655	1	Ⴕ	cut_k_stereo_44KHz.wav
2	47	2	1	0	C	2	0	1020	0	Ⴐ	cut_o_stereo_44KHz.wav
2	48	4	4	2	I	1	0	782	0	Ⴔ	cut_k_stereo_44KHz.wav
2	49	2	1	0	C	2	0	986	0	Ⴐ	cut_o_stereo_44KHz.wav
2	50	4	4	2	I	1	0	946	1	Ⴔ	cut_k_stereo_44KHz.wav
2	51	1	1	1	C	2	1	714	1	Ⴉ	cut_o_stereo_44KHz.wav
2	52	3	3	2	I	1	0	895	0	Ⴕ	cut_a_stereo_44KHz.wav
2	53	2	2	1	C	2	1	748	1	Ⴐ	cut_u_stereo_44KHz.wav
2	54	3	4	2	I	1	0	782	1	Ⴕ	cut_k_stereo_44KHz.wav
2	55	1	2	0	C	1	1	836	1	Ⴉ	cut_u_stereo_44KHz.wav
2	56	4	3	2	I	2	0	789	1	Ⴔ	cut_a_stereo_44KHz.wav
2	57	2	2	1	C	1	0	834	0	Ⴐ	cut_u_stereo_44KHz.wav
2	58	3	4	2	I	1	0	908	0	Ⴕ	cut_k_stereo_44KHz.wav
2	59	4	3	2	I	1	0	595	0	Ⴔ	cut_a_stereo_44KHz.wav
2	60	1	1	1	C	2	1	620	1	Ⴉ	cut_o_stereo_44KHz.wav
2	61	3	3	2	I	2	0	744	0	Ⴕ	cut_a_stereo_44KHz.wav
2	62	2	1	0	C	1	1	1074	1	Ⴐ	cut_o_stereo_44KHz.wav
2	63	1	2	0	C	1	1	763	1	Ⴉ	cut_u_stereo_44KHz.wav
2	64	4	4	2	I	2	0	661	1	Ⴔ	cut_k_stereo_44KHz.wav
2	65	3	4	2	I	2	0	694	1	Ⴕ	cut_k_stereo_44KHz.wav
2	66	2	2	1	C	2	1	955	1	Ⴐ	cut_u_stereo_44KHz.wav
2	67	4	4	2	I	1	0	855	0	Ⴔ	cut_k_stereo_44KHz.wav
2	68	1	2	0	C	1	1	509	1	Ⴉ	cut_u_stereo_44KHz.wav
2	69	2	1	0	C	2	0	670	0	Ⴐ	cut_o_stereo_44KHz.wav
2	70	4	3	2	I	1	0	615	1	Ⴔ	cut_a_stereo_44KHz.wav
2	71	1	1	1	C	2	1	622	1	Ⴉ	cut_o_stereo_44KHz.wav
2	72	3	3	2	I	1	0	672	1	Ⴕ	cut_a_stereo_44KHz.wav
2	73	4	4	2	I	2	0	688	0	Ⴔ	cut_k_stereo_44KHz.wav
2	74	3	3	2	I	1	0	696	0	Ⴕ	cut_a_stereo_44KHz.wav
2	75	1	2	0	C	1	1	679	1	Ⴉ	cut_u_stereo_44KHz.wav
2	76	2	2	1	C	2	1	884	1	Ⴐ	cut_u_stereo_44KHz.wav
2	77	4	3	2	I	1	0	682	0	Ⴔ	cut_a_stereo_44KHz.wav
2	78	1	1	1	C	2	1	540	1	Ⴉ	cut_o_stereo_44KHz.wav
2	79	3	4	2	I	1	0	757	1	Ⴕ	cut_k_stereo_44KHz.wav
2	80	2	1	0	C	2	0	678	0	Ⴐ	cut_o_stereo_44KHz.wav
2	81	3	4	2	I	1	0	819	0	Ⴕ	cut_k_stereo_44KHz.wav
2	82	2	1	0	C	1	1	792	1	Ⴐ	cut_o_stereo_44KHz.wav
2	83	1	2	0	C	1	1	574	1	Ⴉ	cut_u_stereo_44KHz.wav
2	84	4	3	2	I	1	0	736	0	Ⴔ	cut_a_stereo_44KHz.wav
2	85	3	3	2	I	2	0	583	1	Ⴕ	cut_a_stereo_44KHz.wav
2	86	1	1	1	C	2	1	662	1	Ⴉ	cut_o_stereo_44KHz.wav
2	87	2	2	1	C	2	1	1025	1	Ⴐ	cut_u_stereo_44KHz.wav
2	88	4	4	2	I	2	0	793	1	Ⴔ	cut_k_stereo_44KHz.wav
2	89	2	1	0	C	1	1	1134	1	Ⴐ	cut_o_stereo_44KHz.wav
2	90	4	3	2	I	1	0	625	1	Ⴔ	cut_a_stereo_44KHz.wav
2	91	3	3	2	I	1	0	904	1	Ⴕ	cut_a_stereo_44KHz.wav
2	92	1	2	0	C	1	1	658	1	Ⴉ	cut_u_stereo_44KHz.wav
2	93	3	4	2	I	2	0	811	0	Ⴕ	cut_k_stereo_44KHz.wav
2	94	1	1	1	C	2	1	639	1	Ⴉ	cut_o_stereo_44KHz.wav
2	95	2	2	1	C	2	1	895	1	Ⴐ	cut_u_stereo_44KHz.wav
2	96	4	4	2	I	2	0	840	0	Ⴔ	cut_k_stereo_44KHz.wav
2	97	2	2	1	C	2	1	893	1	Ⴐ	cut_u_stereo_44KHz.wav
2	98	3	3	2	I	1	0	591	1	Ⴕ	cut_a_stereo_44KHz.wav
2	99	4	4	2	I	1	0	891	0	Ⴔ	cut_k_stereo_44KHz.wav
2	100	1	1	1	C	2	1	671	1	Ⴉ	cut_o_stereo_44KHz.wav
2	101	3	4	2	I	2	0	698	0	Ⴕ	cut_k_stereo_44KHz.wav
2	102	4	3	2	I	1	0	623	0	Ⴔ	cut_a_stereo_44KHz.wav
2	103	2	1	0	C	2	0	688	0	Ⴐ	cut_o_stereo_44KHz.wav
2	104	1	2	0	C	2	0	567	0	Ⴉ	cut_u_stereo_44KHz.wav
2	105	2	2	1	C	2	1	887	1	Ⴐ	cut_u_stereo_44KHz.wav
2	106	1	1	1	C	2	1	615	1	Ⴉ	cut_o_stereo_44KHz.wav
2	107	3	3	2	I	2	0	763	1	Ⴕ	cut_a_stereo_44KHz.wav
2	108	4	4	2	I	2	0	672	0	Ⴔ	cut_k_stereo_44KHz.wav
2	109	2	1	0	C	1	1	833	1	Ⴐ	cut_o_stereo_44KHz.wav
2	110	1	2	0	C	1	1	615	1	Ⴉ	cut_u_stereo_44KHz.wav
2	111	4	3	2	I	1	0	607	1	Ⴔ	cut_a_stereo_44KHz.wav
2	112	3	4	2	I	1	0	742	0	Ⴕ	cut_k_stereo_44KHz.wav
2	113	1	2	0	C	1	1	568	1	Ⴉ	cut_u_stereo_44KHz.wav
2	114	3	4	2	I	2	0	715	0	Ⴕ	cut_k_stereo_44KHz.wav
2	115	2	2	1	C	2	1	857	1	Ⴐ	cut_u_stereo_44KHz.wav
2	116	4	4	2	I	2	0	697	1	Ⴔ	cut_k_stereo_44KHz.wav
2	117	1	1	1	C	2	1	687	1	Ⴉ	cut_o_stereo_44KHz.wav
2	118	2	1	0	C	1	1	830	1	Ⴐ	cut_o_stereo_44KHz.wav
2	119	4	3	2	I	1	0	603	0	Ⴔ	cut_a_stereo_44KHz.wav
2	120	3	3	2	I	1	0	755	1	Ⴕ	cut_a_stereo_44KHz.wav
2	121	4	4	2	I	1	0	647	0	Ⴔ	cut_k_stereo_44KHz.wav
2	122	3	3	2	I	2	0	614	1	Ⴕ	cut_a_stereo_44KHz.wav
2	123	2	2	1	C	2	1	834	1	Ⴐ	cut_u_stereo_44KHz.wav
2	124	1	2	0	C	1	1	599	1	Ⴉ	cut_u_stereo_44KHz.wav
2	125	3	4	2	I	2	0	523	1	Ⴕ	cut_k_stereo_44KHz.wav
2	126	2	1	0	C	2	0	541	0	Ⴐ	cut_o_stereo_44KHz.wav
2	127	4	3	2	I	1	0	597	1	Ⴔ	cut_a_stereo_44KHz.wav
2	128	1	1	1	C	2	1	649	1	Ⴉ	cut_o_stereo_44KHz.wav
2	129	3	3	2	I	1	0	718	0	Ⴕ	cut_a_stereo_44KHz.wav
2	130	4	3	2	I	1	0	529	1	Ⴔ	cut_a_stereo_44KHz.wav
2	131	2	2	1	C	2	1	728	1	Ⴐ	cut_u_stereo_44KHz.wav
2	132	1	1	1	C	2	1	692	1	Ⴉ	cut_o_stereo_44KHz.wav
2	133	3	4	2	I	1	0	664	1	Ⴕ	cut_k_stereo_44KHz.wav
2	134	4	4	2	I	2	0	613	1	Ⴔ	cut_k_stereo_44KHz.wav
2	135	1	2	0	C	1	1	784	1	Ⴉ	cut_u_stereo_44KHz.wav
2	136	2	1	0	C	1	1	1403	1	Ⴐ	cut_o_stereo_44KHz.wav
2	137	4	4	2	I	2	0	700	0	Ⴔ	cut_k_stereo_44KHz.wav
2	138	1	1	1	C	2	1	683	1	Ⴉ	cut_o_stereo_44KHz.wav
2	139	2	1	0	C	1	1	773	1	Ⴐ	cut_o_stereo_44KHz.wav
2	140	3	4	2	I	1	0	604	0	Ⴕ	cut_k_stereo_44KHz.wav
2	141	1	2	0	C	1	1	602	1	Ⴉ	cut_u_stereo_44KHz.wav
2	142	4	3	2	I	1	0	615	1	Ⴔ	cut_a_stereo_44KHz.wav
2	143	3	3	2	I	2	0	565	1	Ⴕ	cut_a_stereo_44KHz.wav
2	144	2	2	1	C	2	1	844	1	Ⴐ	cut_u_stereo_44KHz.wav
2	145	3	3	2	I	2	0	853	1	Ⴕ	cut_a_stereo_44KHz.wav
2	146	2	1	0	C	1	1	801	1	Ⴐ	cut_o_stereo_44KHz.wav
2	147	4	3	2	I	1	0	803	0	Ⴔ	cut_a_stereo_44KHz.wav
2	148	1	2	0	C	1	1	603	1	Ⴉ	cut_u_stereo_44KHz.wav
2	149	3	4	2	I	1	0	733	0	Ⴕ	cut_k_stereo_44KHz.wav
2	150	4	4	2	I	1	0	606	0	Ⴔ	cut_k_stereo_44KHz.wav
2	151	1	1	1	C	2	1	615	1	Ⴉ	cut_o_stereo_44KHz.wav
2	152	2	2	1	C	2	1	887	1	Ⴐ	cut_u_stereo_44KHz.wav
2	153	1	1	1	C	2	1	844	1	Ⴉ	cut_o_stereo_44KHz.wav
2	154	2	2	1	C	2	1	716	1	Ⴐ	cut_u_stereo_44KHz.wav
2	155	3	4	2	I	2	0	532	1	Ⴕ	cut_k_stereo_44KHz.wav
2	156	4	4	2	I	2	0	550	0	Ⴔ	cut_k_stereo_44KHz.wav
2	157	1	2	0	C	1	1	601	1	Ⴉ	cut_u_stereo_44KHz.wav
2	158	2	1	0	C	2	0	599	0	Ⴐ	cut_o_stereo_44KHz.wav
2	159	3	3	2	I	1	0	681	1	Ⴕ	cut_a_stereo_44KHz.wav
2	160	4	3	2	I	1	0	484	0	Ⴔ	cut_a_stereo_44KHz.wav
2	161	2	2	1	C	2	1	783	1	Ⴐ	cut_u_stereo_44KHz.wav
2	162	4	4	2	I	2	0	768	1	Ⴔ	cut_k_stereo_44KHz.wav
2	163	3	4	2	I	2	0	554	0	Ⴕ	cut_k_stereo_44KHz.wav
2	164	1	2	0	C	1	1	521	1	Ⴉ	cut_u_stereo_44KHz.wav
2	165	3	3	2	I	1	0	560	1	Ⴕ	cut_a_stereo_44KHz.wav
2	166	4	3	2	I	1	0	488	1	Ⴔ	cut_a_stereo_44KHz.wav
2	167	1	1	1	C	2	1	699	1	Ⴉ	cut_o_stereo_44KHz.wav
2	168	2	1	0	C	1	1	748	1	Ⴐ	cut_o_stereo_44KHz.wav
2	169	3	4	2	I	2	0	613	0	Ⴕ	cut_k_stereo_44KHz.wav
2	170	4	4	2	I	1	0	887	0	Ⴔ	cut_k_stereo_44KHz.wav
2	171	1	2	0	C	1	1	544	1	Ⴉ	cut_u_stereo_44KHz.wav
2	172	2	1	0	C	1	1	728	1	Ⴐ	cut_o_stereo_44KHz.wav
2	173	1	1	1	C	2	1	601	1	Ⴉ	cut_o_stereo_44KHz.wav
2	174	4	3	2	I	2	0	641	0	Ⴔ	cut_a_stereo_44KHz.wav
2	175	2	2	1	C	2	1	822	1	Ⴐ	cut_u_stereo_44KHz.wav
2	176	3	3	2	I	1	0	834	0	Ⴕ	cut_a_stereo_44KHz.wav
2	177	1	2	0	C	1	1	407	1	Ⴉ	cut_u_stereo_44KHz.wav
2	178	2	2	1	C	2	1	607	1	Ⴐ	cut_u_stereo_44KHz.wav
2	179	4	3	2	I	1	0	679	1	Ⴔ	cut_a_stereo_44KHz.wav
2	180	3	4	2	I	2	0	562	1	Ⴕ	cut_k_stereo_44KHz.wav
2	181	2	1	0	C	2	0	672	0	Ⴐ	cut_o_stereo_44KHz.wav
2	182	3	3	2	I	1	0	768	0	Ⴕ	cut_a_stereo_44KHz.wav
2	183	1	1	1	C	2	1	733	1	Ⴉ	cut_o_stereo_44KHz.wav
2	184	4	4	2	I	2	0	754	1	Ⴔ	cut_k_stereo_44KHz.wav
2	185	3	3	2	I	2	0	731	1	Ⴕ	cut_a_stereo_44KHz.wav
2	186	1	1	1	C	2	1	686	1	Ⴉ	cut_o_stereo_44KHz.wav
2	187	4	3	2	I	1	0	648	0	Ⴔ	cut_a_stereo_44KHz.wav
2	188	2	2	1	C	2	1	909	1	Ⴐ	cut_u_stereo_44KHz.wav
2	189	1	2	0	C	1	1	601	1	Ⴉ	cut_u_stereo_44KHz.wav
2	190	2	1	0	C	2	0	429	0	Ⴐ	cut_o_stereo_44KHz.wav
2	191	4	4	2	I	2	0	928	1	Ⴔ	cut_k_stereo_44KHz.wav
2	192	3	4	2	I	1	0	796	0	Ⴕ	cut_k_stereo_44KHz.wav
2	193	4	4	2	I	2	0	793	1	Ⴔ	cut_k_stereo_44KHz.wav
2	194	2	2	1	C	1	0	784	0	Ⴐ	cut_u_stereo_44KHz.wav
2	195	1	2	0	C	1	1	581	1	Ⴉ	cut_u_stereo_44KHz.wav
2	196	3	4	2	I	2	0	728	0	Ⴕ	cut_k_stereo_44KHz.wav
2	197	2	1	0	C	1	1	867	1	Ⴐ	cut_o_stereo_44KHz.wav
2	198	4	3	2	I	1	0	712	0	Ⴔ	cut_a_stereo_44KHz.wav
2	199	3	3	2	I	2	0	739	0	Ⴕ	cut_a_stereo_44KHz.wav
2	200	1	1	1	C	2	1	714	1	Ⴉ	cut_o_stereo_44KHz.wav
3	1	4	4	2	I	0	0	0	0	Ⴃ	cut_w_stereo_44KHz.wav
3	2	1	1	1	C	1	0	768	0	Ⴂ	cut_l_stereo_44KHz.wav
3	3	3	4	2	I	1	0	579	0	Ⴟ	cut_w_stereo_44KHz.wav
3	4	2	2	1	C	1	0	776	0	Ⴁ	cut_h_stereo_44KHz.wav
3	5	4	3	2	I	1	0	489	1	Ⴃ	cut_g_stereo_44KHz.wav
3	6	2	1	0	C	1	1	1508	1	Ⴁ	cut_l_stereo_44KHz.wav
3	7	1	2	0	C	1	1	706	1	Ⴂ	cut_h_stereo_44KHz.wav
3	8	3	3	2	I	2	0	1141	1	Ⴟ	cut_g_stereo_44KHz.wav
3	9	2	1	0	C	1	1	899	1	Ⴁ	cut_l_stereo_44KHz.wav
3	10	1	2	0	C	1	1	638	1	Ⴂ	cut_h_stereo_44KHz.wav
3	11	4	3	2	I	1	0	547	1	Ⴃ	cut_g_stereo_44KHz.wav
3	12	3	4	2	I	1	0	862	1	Ⴟ	cut_w_stereo_44KHz.wav
3	13	4	4	2	I	2	0	687	0	Ⴃ	cut_w_stereo_44KHz.wav
3	14	2	2	1	C	2	1	864	1	Ⴁ	cut_h_stereo_44KHz.wav
3	15	3	3	2	I	2	0	641	1	Ⴟ	cut_g_stereo_44KHz.wav
3	16	1	1	1	C	2	1	884	1	Ⴂ	cut_l_stereo_44KHz.wav
3	17	3	3	2	I	2	0	1110	0	Ⴟ	cut_g_stereo_44KHz.wav
3	18	2	2	1	C	2	1	839	1	Ⴁ	cut_h_stereo_44KHz.wav
3	19	1	1	1	C	2	1	869	1	Ⴂ	cut_l_stereo_44KHz.wav
3	20	4	3	2	I	2	0	773	1	Ⴃ	cut_g_stereo_44KHz.wav
3	21	1	2	0	C	1	1	819	1	Ⴂ	cut_h_stereo_44KHz.wav
3	22	4	4	2	I	2	0	623	1	Ⴃ	cut_w_stereo_44KHz.wav
3	23	2	1	0	C	1	1	962	1	Ⴁ	cut_l_stereo_44KHz.wav
3	24	3	4	2	I	1	0	963	1	Ⴟ	cut_w_stereo_44KHz.wav
3	25	4	3	2	I	1	0	671	1	Ⴃ	cut_g_stereo_44KHz.wav
3	26	3	4	2	I	1	0	771	0	Ⴟ	cut_w_stereo_44KHz.wav
3	27	1	2	0	C	1	1	731	1	Ⴂ	cut_h_stereo_44KHz.wav
3	28	2	1	0	C	1	1	639	1	Ⴁ	cut_l_stereo_44KHz.wav
3	29	1	1	1	C	1	0	631	0	Ⴂ	cut_l_stereo_44KHz.wav
3	30	2	2	1	C	2	1	843	1	Ⴁ	cut_h_stereo_44KHz.wav
3	31	3	3	2	I	1	0	731	0	Ⴟ	cut_g_stereo_44KHz.wav
3	32	4	4	2	I	1	0	711	1	Ⴃ	cut_w_stereo_44KHz.wav
3	33	1	1	1	C	1	0	629	0	Ⴂ	cut_l_stereo_44KHz.wav
3	34	2	1	0	C	1	1	604	1	Ⴁ	cut_l_stereo_44KHz.wav
3	35	4	4	2	I	2	0	851	0	Ⴃ	cut_w_stereo_44KHz.wav
3	36	3	3	2	I	2	0	815	1	Ⴟ	cut_g_stereo_44KHz.wav
3	37	4	3	2	I	1	0	723	0	Ⴃ	cut_g_stereo_44KHz.wav
3	38	2	2	1	C	2	1	734	1	Ⴁ	cut_h_stereo_44KHz.wav
3	39	1	2	0	C	1	1	982	1	Ⴂ	cut_h_stereo_44KHz.wav
3	40	3	4	2	I	1	0	803	0	Ⴟ	cut_w_stereo_44KHz.wav
3	41	1	1	1	C	1	0	639	0	Ⴂ	cut_l_stereo_44KHz.wav
3	42	3	4	2	I	1	0	1007	0	Ⴟ	cut_w_stereo_44KHz.wav
3	43	4	3	2	I	1	0	596	1	Ⴃ	cut_g_stereo_44KHz.wav
3	44	2	1	0	C	1	1	715	1	Ⴁ	cut_l_stereo_44KHz.wav
3	45	3	3	2	I	2	0	766	0	Ⴟ	cut_g_stereo_44KHz.wav
3	46	2	2	1	C	2	1	979	1	Ⴁ	cut_h_stereo_44KHz.wav
3	47	4	4	2	I	1	0	767	0	Ⴃ	cut_w_stereo_44KHz.wav
3	48	1	2	0	C	1	1	658	1	Ⴂ	cut_h_stereo_44KHz.wav
3	49	2	2	1	C	2	1	835	1	Ⴁ	cut_h_stereo_44KHz.wav
3	50	3	3	2	I	2	0	704	1	Ⴟ	cut_g_stereo_44KHz.wav
3	51	4	4	2	I	2	0	723	0	Ⴃ	cut_w_stereo_44KHz.wav
3	52	1	2	0	C	1	1	693	1	Ⴂ	cut_h_stereo_44KHz.wav
3	53	3	4	2	I	2	0	919	1	Ⴟ	cut_w_stereo_44KHz.wav
3	54	2	1	0	C	1	1	780	1	Ⴁ	cut_l_stereo_44KHz.wav
3	55	1	1	1	C	1	0	612	0	Ⴂ	cut_l_stereo_44KHz.wav
3	56	4	3	2	I	1	0	830	1	Ⴃ	cut_g_stereo_44KHz.wav
3	57	2	2	1	C	2	1	846	1	Ⴁ	cut_h_stereo_44KHz.wav
3	58	4	3	2	I	1	0	723	0	Ⴃ	cut_g_stereo_44KHz.wav
3	59	3	3	2	I	2	0	719	1	Ⴟ	cut_g_stereo_44KHz.wav
3	60	1	1	1	C	2	1	971	1	Ⴂ	cut_l_stereo_44KHz.wav
3	61	2	1	0	C	2	0	768	0	Ⴁ	cut_l_stereo_44KHz.wav
3	62	3	4	2	I	2	0	803	1	Ⴟ	cut_w_stereo_44KHz.wav
3	63	4	4	2	I	1	0	767	0	Ⴃ	cut_w_stereo_44KHz.wav
3	64	1	2	0	C	1	1	786	1	Ⴂ	cut_h_stereo_44KHz.wav
3	65	4	4	2	I	1	0	603	1	Ⴃ	cut_w_stereo_44KHz.wav
3	66	2	1	0	C	1	1	678	1	Ⴁ	cut_l_stereo_44KHz.wav
3	67	3	4	2	I	2	0	646	1	Ⴟ	cut_w_stereo_44KHz.wav
3	68	1	1	1	C	1	0	765	0	Ⴂ	cut_l_stereo_44KHz.wav
3	69	4	3	2	I	2	0	767	0	Ⴃ	cut_g_stereo_44KHz.wav
3	70	1	2	0	C	1	1	806	1	Ⴂ	cut_h_stereo_44KHz.wav
3	71	3	3	2	I	2	0	681	1	Ⴟ	cut_g_stereo_44KHz.wav
3	72	2	2	1	C	1	0	652	0	Ⴁ	cut_h_stereo_44KHz.wav
3	73	3	3	2	I	2	0	934	0	Ⴟ	cut_g_stereo_44KHz.wav
3	74	1	1	1	C	1	0	760	0	Ⴂ	cut_l_stereo_44KHz.wav
3	75	4	3	2	I	2	0	695	1	Ⴃ	cut_g_stereo_44KHz.wav
3	76	2	1	0	C	1	1	761	1	Ⴁ	cut_l_stereo_44KHz.wav
3	77	4	4	2	I	2	0	758	1	Ⴃ	cut_w_stereo_44KHz.wav
3	78	3	4	2	I	2	0	653	0	Ⴟ	cut_w_stereo_44KHz.wav
3	79	1	2	0	C	1	1	695	1	Ⴂ	cut_h_stereo_44KHz.wav
3	80	2	2	1	C	2	1	687	1	Ⴁ	cut_h_stereo_44KHz.wav
3	81	4	3	2	I	1	0	625	1	Ⴃ	cut_g_stereo_44KHz.wav
3	82	1	2	0	C	2	0	734	0	Ⴂ	cut_h_stereo_44KHz.wav
3	83	3	4	2	I	2	0	629	0	Ⴟ	cut_w_stereo_44KHz.wav
3	84	2	1	0	C	1	1	753	1	Ⴁ	cut_l_stereo_44KHz.wav
3	85	3	3	2	I	1	0	869	0	Ⴟ	cut_g_stereo_44KHz.wav
3	86	4	4	2	I	2	0	619	1	Ⴃ	cut_w_stereo_44KHz.wav
3	87	1	1	1	C	1	0	598	0	Ⴂ	cut_l_stereo_44KHz.wav
3	88	2	2	1	C	2	1	805	1	Ⴁ	cut_h_stereo_44KHz.wav
3	89	1	1	1	C	2	1	433	1	Ⴂ	cut_l_stereo_44KHz.wav
3	90	3	4	2	I	1	0	978	0	Ⴟ	cut_w_stereo_44KHz.wav
3	91	4	4	2	I	2	0	637	1	Ⴃ	cut_w_stereo_44KHz.wav
3	92	2	2	1	C	2	1	641	1	Ⴁ	cut_h_stereo_44KHz.wav
3	93	3	3	2	I	1	0	744	0	Ⴟ	cut_g_stereo_44KHz.wav
3	94	2	1	0	C	1	1	802	1	Ⴁ	cut_l_stereo_44KHz.wav
3	95	1	2	0	C	1	1	723	1	Ⴂ	cut_h_stereo_44KHz.wav
3	96	4	3	2	I	1	0	536	1	Ⴃ	cut_g_stereo_44KHz.wav
3	97	1	1	1	C	1	0	599	0	Ⴂ	cut_l_stereo_44KHz.wav
3	98	2	2	1	C	2	1	620	1	Ⴁ	cut_h_stereo_44KHz.wav
3	99	3	3	2	I	2	0	1140	1	Ⴟ	cut_g_stereo_44KHz.wav
3	100	4	3	2	I	1	0	532	0	Ⴃ	cut_g_stereo_44KHz.wav
3	101	1	2	0	C	1	1	790	1	Ⴂ	cut_h_stereo_44KHz.wav
3	102	3	4	2	I	1	0	814	1	Ⴟ	cut_w_stereo_44KHz.wav
3	103	4	4	2	I	2	0	676	0	Ⴃ	cut_w_stereo_44KHz.wav
3	104	2	1	0	C	1	1	665	1	Ⴁ	cut_l_stereo_44KHz.wav
3	105	4	4	2	I	1	0	699	0	Ⴃ	cut_w_stereo_44KHz.wav
3	106	3	3	2	I	1	0	721	1	Ⴟ	cut_g_stereo_44KHz.wav
3	107	1	1	1	C	1	0	605	0	Ⴂ	cut_l_stereo_44KHz.wav
3	108	2	2	1	C	2	1	699	1	Ⴁ	cut_h_stereo_44KHz.wav
3	109	1	2	0	C	1	1	654	1	Ⴂ	cut_h_stereo_44KHz.wav
3	110	4	3	2	I	1	0	653	0	Ⴃ	cut_g_stereo_44KHz.wav
3	111	3	4	2	I	2	0	635	0	Ⴟ	cut_w_stereo_44KHz.wav
3	112	2	1	0	C	1	1	600	1	Ⴁ	cut_l_stereo_44KHz.wav
3	113	1	1	1	C	1	0	531	0	Ⴂ	cut_l_stereo_44KHz.wav
3	114	2	2	1	C	2	1	853	1	Ⴁ	cut_h_stereo_44KHz.wav
3	115	4	4	2	I	1	0	763	0	Ⴃ	cut_w_stereo_44KHz.wav
3	116	3	4	2	I	2	0	697	0	Ⴟ	cut_w_stereo_44KHz.wav
3	117	4	3	2	I	2	0	658	1	Ⴃ	cut_g_stereo_44KHz.wav
3	118	1	2	0	C	1	1	707	1	Ⴂ	cut_h_stereo_44KHz.wav
3	119	3	3	2	I	2	0	577	1	Ⴟ	cut_g_stereo_44KHz.wav
3	120	2	1	0	C	2	0	651	0	Ⴁ	cut_l_stereo_44KHz.wav
3	121	3	3	2	I	1	0	849	1	Ⴟ	cut_g_stereo_44KHz.wav
3	122	4	3	2	I	1	0	725	0	Ⴃ	cut_g_stereo_44KHz.wav
3	123	1	2	0	C	1	1	733	1	Ⴂ	cut_h_stereo_44KHz.wav
3	124	2	2	1	C	2	1	661	1	Ⴁ	cut_h_stereo_44KHz.wav
3	125	1	1	1	C	1	0	1100	0	Ⴂ	cut_l_stereo_44KHz.wav
3	126	4	4	2	I	1	0	701	0	Ⴃ	cut_w_stereo_44KHz.wav
3	127	2	1	0	C	1	1	1088	1	Ⴁ	cut_l_stereo_44KHz.wav
3	128	3	4	2	I	1	0	796	0	Ⴟ	cut_w_stereo_44KHz.wav
3	129	4	4	2	I	2	0	632	0	Ⴃ	cut_w_stereo_44KHz.wav
3	130	2	1	0	C	1	1	756	1	Ⴁ	cut_l_stereo_44KHz.wav
3	131	1	2	0	C	1	1	867	1	Ⴂ	cut_h_stereo_44KHz.wav
3	132	3	4	2	I	2	0	731	0	Ⴟ	cut_w_stereo_44KHz.wav
3	133	2	2	1	C	1	0	691	0	Ⴁ	cut_h_stereo_44KHz.wav
3	134	3	3	2	I	2	0	800	1	Ⴟ	cut_g_stereo_44KHz.wav
3	135	1	1	1	C	2	1	1281	1	Ⴂ	cut_l_stereo_44KHz.wav
3	136	4	3	2	I	1	0	768	0	Ⴃ	cut_g_stereo_44KHz.wav
3	137	1	1	1	C	2	1	806	1	Ⴂ	cut_l_stereo_44KHz.wav
3	138	2	1	0	C	2	0	661	0	Ⴁ	cut_l_stereo_44KHz.wav
3	139	3	3	2	I	2	0	827	1	Ⴟ	cut_g_stereo_44KHz.wav
3	140	4	4	2	I	1	0	1006	0	Ⴃ	cut_w_stereo_44KHz.wav
3	141	1	2	0	C	1	1	931	1	Ⴂ	cut_h_stereo_44KHz.wav
3	142	4	3	2	I	1	0	699	1	Ⴃ	cut_g_stereo_44KHz.wav
3	143	2	2	1	C	2	1	764	1	Ⴁ	cut_h_stereo_44KHz.wav
3	144	3	4	2	I	2	0	629	0	Ⴟ	cut_w_stereo_44KHz.wav
3	145	1	2	0	C	1	1	884	1	Ⴂ	cut_h_stereo_44KHz.wav
3	146	2	1	0	C	1	1	750	1	Ⴁ	cut_l_stereo_44KHz.wav
3	147	4	3	2	I	1	0	590	0	Ⴃ	cut_g_stereo_44KHz.wav
3	148	3	3	2	I	1	0	931	1	Ⴟ	cut_g_stereo_44KHz.wav
3	149	4	4	2	I	1	0	958	1	Ⴃ	cut_w_stereo_44KHz.wav
3	150	2	2	1	C	2	1	786	1	Ⴁ	cut_h_stereo_44KHz.wav
3	151	1	1	1	C	1	0	1145	0	Ⴂ	cut_l_stereo_44KHz.wav
3	152	3	4	2	I	2	0	1182	1	Ⴟ	cut_w_stereo_44KHz.wav
3	153	4	4	2	I	1	0	638	0	Ⴃ	cut_w_stereo_44KHz.wav
3	154	2	1	0	C	1	1	872	1	Ⴁ	cut_l_stereo_44KHz.wav
3	155	3	4	2	I	1	0	761	1	Ⴟ	cut_w_stereo_44KHz.wav
3	156	1	2	0	C	1	1	842	1	Ⴂ	cut_h_stereo_44KHz.wav
3	157	2	2	1	C	2	1	667	1	Ⴁ	cut_h_stereo_44KHz.wav
3	158	1	1	1	C	1	0	675	0	Ⴂ	cut_l_stereo_44KHz.wav
3	159	4	3	2	I	2	0	925	0	Ⴃ	cut_g_stereo_44KHz.wav
3	160	3	3	2	I	1	0	834	0	Ⴟ	cut_g_stereo_44KHz.wav
3	161	1	1	1	C	2	1	802	1	Ⴂ	cut_l_stereo_44KHz.wav
3	162	4	3	2	I	2	0	791	1	Ⴃ	cut_g_stereo_44KHz.wav
3	163	2	1	0	C	1	1	1118	1	Ⴁ	cut_l_stereo_44KHz.wav
3	164	3	4	2	I	2	0	621	0	Ⴟ	cut_w_stereo_44KHz.wav
3	165	2	2	1	C	2	1	710	1	Ⴁ	cut_h_stereo_44KHz.wav
3	166	4	4	2	I	1	0	622	1	Ⴃ	cut_w_stereo_44KHz.wav
3	167	3	3	2	I	2	0	563	0	Ⴟ	cut_g_stereo_44KHz.wav
3	168	1	2	0	C	1	1	767	1	Ⴂ	cut_h_stereo_44KHz.wav
3	169	4	3	2	I	2	0	613	1	Ⴃ	cut_g_stereo_44KHz.wav
3	170	3	4	2	I	2	0	649	0	Ⴟ	cut_w_stereo_44KHz.wav
3	171	2	2	1	C	2	1	711	1	Ⴁ	cut_h_stereo_44KHz.wav
3	172	1	2	0	C	1	1	729	1	Ⴂ	cut_h_stereo_44KHz.wav
3	173	3	3	2	I	2	0	595	1	Ⴟ	cut_g_stereo_44KHz.wav
3	174	1	1	1	C	2	1	838	1	Ⴂ	cut_l_stereo_44KHz.wav
3	175	2	1	0	C	1	1	799	1	Ⴁ	cut_l_stereo_44KHz.wav
3	176	4	4	2	I	2	0	798	0	Ⴃ	cut_w_stereo_44KHz.wav
3	177	1	1	1	C	2	1	930	1	Ⴂ	cut_l_stereo_44KHz.wav
3	178	4	3	2	I	1	0	696	1	Ⴃ	cut_g_stereo_44KHz.wav
3	179	3	3	2	I	2	0	743	1	Ⴟ	cut_g_stereo_44KHz.wav
3	180	2	2	1	C	2	1	700	1	Ⴁ	cut_h_stereo_44KHz.wav
3	181	3	4	2	I	2	0	818	1	Ⴟ	cut_w_stereo_44KHz.wav
3	182	4	4	2	I	1	0	691	0	Ⴃ	cut_w_stereo_44KHz.wav
3	183	2	1	0	C	1	1	794	1	Ⴁ	cut_l_stereo_44KHz.wav
3	184	1	2	0	C	1	1	608	1	Ⴂ	cut_h_stereo_44KHz.wav
3	185	3	4	2	I	2	0	610	0	Ⴟ	cut_w_stereo_44KHz.wav
3	186	4	3	2	I	1	0	747	1	Ⴃ	cut_g_stereo_44KHz.wav
3	187	2	1	0	C	1	1	803	1	Ⴁ	cut_l_stereo_44KHz.wav
3	188	1	1	1	C	2	1	690	1	Ⴂ	cut_l_stereo_44KHz.wav
3	189	2	2	1	C	2	1	828	1	Ⴁ	cut_h_stereo_44KHz.wav
3	190	3	3	2	I	1	0	974	0	Ⴟ	cut_g_stereo_44KHz.wav
3	191	4	4	2	I	2	0	1017	1	Ⴃ	cut_w_stereo_44KHz.wav
3	192	1	2	0	C	2	0	658	0	Ⴂ	cut_h_stereo_44KHz.wav
3	193	3	4	2	I	2	0	718	0	Ⴟ	cut_w_stereo_44KHz.wav
3	194	1	2	0	C	1	1	787	1	Ⴂ	cut_h_stereo_44KHz.wav
3	195	4	3	2	I	1	0	757	0	Ⴃ	cut_g_stereo_44KHz.wav
3	196	2	2	1	C	2	1	660	1	Ⴁ	cut_h_stereo_44KHz.wav
3	197	3	3	2	I	2	0	607	1	Ⴟ	cut_g_stereo_44KHz.wav
3	198	1	1	1	C	1	0	763	0	Ⴂ	cut_l_stereo_44KHz.wav
3	199	2	1	0	C	1	1	996	1	Ⴁ	cut_l_stereo_44KHz.wav
3	200	4	4	2	I	2	0	672	0	Ⴃ	cut_w_stereo_44KHz.wav
4	1	3	3	2	I	2	0	1278	1	Ⴌ	cut_oei_stereo_44KHz.wav
4	2	4	3	2	I	1	0	934	1	Ⴒ	cut_oei_stereo_44KHz.wav
4	3	2	1	0	C	1	1	877	1	Ⴏ	cut_f_stereo_44KHz.wav
4	4	1	1	1	C	2	1	778	1	Ⴖ	cut_f_stereo_44KHz.wav
4	5	2	2	1	C	2	1	953	1	Ⴏ	cut_ui_stereo_44KHz.wav
4	6	1	2	0	C	1	1	665	1	Ⴖ	cut_ui_stereo_44KHz.wav
4	7	4	4	2	I	2	0	754	0	Ⴒ	cut_s_stereo_44KHz.wav
4	8	3	4	2	I	1	0	805	0	Ⴌ	cut_s_stereo_44KHz.wav
4	9	4	4	2	I	1	0	877	0	Ⴒ	cut_s_stereo_44KHz.wav
4	10	1	2	0	C	1	1	694	1	Ⴖ	cut_ui_stereo_44KHz.wav
4	11	2	2	1	C	2	1	588	1	Ⴏ	cut_ui_stereo_44KHz.wav
4	12	3	3	2	I	1	0	811	0	Ⴌ	cut_oei_stereo_44KHz.wav
4	13	4	3	2	I	1	0	527	0	Ⴒ	cut_oei_stereo_44KHz.wav
4	14	1	1	1	C	1	0	681	0	Ⴖ	cut_f_stereo_44KHz.wav
4	15	3	4	2	I	2	0	761	0	Ⴌ	cut_s_stereo_44KHz.wav
4	16	2	1	0	C	1	1	1338	1	Ⴏ	cut_f_stereo_44KHz.wav
4	17	1	2	0	C	1	1	568	1	Ⴖ	cut_ui_stereo_44KHz.wav
4	18	4	4	2	I	2	0	663	1	Ⴒ	cut_s_stereo_44KHz.wav
4	19	2	1	0	C	1	1	1352	1	Ⴏ	cut_f_stereo_44KHz.wav
4	20	3	4	2	I	1	0	804	0	Ⴌ	cut_s_stereo_44KHz.wav
4	21	4	3	2	I	1	0	578	1	Ⴒ	cut_oei_stereo_44KHz.wav
4	22	3	3	2	I	2	0	731	0	Ⴌ	cut_oei_stereo_44KHz.wav
4	23	2	2	1	C	2	1	1063	1	Ⴏ	cut_ui_stereo_44KHz.wav
4	24	1	1	1	C	2	1	784	1	Ⴖ	cut_f_stereo_44KHz.wav
4	25	4	4	2	I	2	0	726	0	Ⴒ	cut_s_stereo_44KHz.wav
4	26	1	1	1	C	2	1	750	1	Ⴖ	cut_f_stereo_44KHz.wav
4	27	3	4	2	I	2	0	837	1	Ⴌ	cut_s_stereo_44KHz.wav
4	28	2	1	0	C	1	1	762	1	Ⴏ	cut_f_stereo_44KHz.wav
4	29	1	2	0	C	1	1	638	1	Ⴖ	cut_ui_stereo_44KHz.wav
4	30	3	3	2	I	2	0	741	1	Ⴌ	cut_oei_stereo_44KHz.wav
4	31	2	2	1	C	2	1	726	1	Ⴏ	cut_ui_stereo_44KHz.wav
4	32	4	3	2	I	1	0	661	1	Ⴒ	cut_oei_stereo_44KHz.wav
4	33	3	3	2	I	2	0	721	0	Ⴌ	cut_oei_stereo_44KHz.wav
4	34	4	3	2	I	1	0	823	1	Ⴒ	cut_oei_stereo_44KHz.wav
4	35	2	1	0	C	1	1	647	1	Ⴏ	cut_f_stereo_44KHz.wav
4	36	1	1	1	C	2	1	727	1	Ⴖ	cut_f_stereo_44KHz.wav
4	37	4	4	2	I	2	0	731	1	Ⴒ	cut_s_stereo_44KHz.wav
4	38	1	2	0	C	1	1	695	1	Ⴖ	cut_ui_stereo_44KHz.wav
4	39	2	2	1	C	2	1	545	1	Ⴏ	cut_ui_stereo_44KHz.wav
4	40	3	4	2	I	2	0	618	1	Ⴌ	cut_s_stereo_44KHz.wav
4	41	1	1	1	C	2	1	579	1	Ⴖ	cut_f_stereo_44KHz.wav
4	42	3	4	2	I	2	0	683	0	Ⴌ	cut_s_stereo_44KHz.wav
4	43	2	2	1	C	2	1	877	1	Ⴏ	cut_ui_stereo_44KHz.wav
4	44	4	3	2	I	1	0	753	0	Ⴒ	cut_oei_stereo_44KHz.wav
4	45	1	2	0	C	1	1	734	1	Ⴖ	cut_ui_stereo_44KHz.wav
4	46	3	3	2	I	2	0	974	1	Ⴌ	cut_oei_stereo_44KHz.wav
4	47	4	4	2	I	1	0	1037	1	Ⴒ	cut_s_stereo_44KHz.wav
4	48	2	1	0	C	2	0	926	0	Ⴏ	cut_f_stereo_44KHz.wav
4	49	4	4	2	I	1	0	912	1	Ⴒ	cut_s_stereo_44KHz.wav
4	50	3	3	2	I	1	0	946	0	Ⴌ	cut_oei_stereo_44KHz.wav
4	51	2	1	0	C	1	1	792	1	Ⴏ	cut_f_stereo_44KHz.wav
4	52	1	1	1	C	2	1	697	1	Ⴖ	cut_f_stereo_44KHz.wav
4	53	3	4	2	I	2	0	1200	0	Ⴌ	cut_s_stereo_44KHz.wav
4	54	1	2	0	C	1	1	648	1	Ⴖ	cut_ui_stereo_44KHz.wav
4	55	4	3	2	I	2	0	1181	0	Ⴒ	cut_oei_stereo_44KHz.wav
4	56	2	2	1	C	2	1	1005	1	Ⴏ	cut_ui_stereo_44KHz.wav
4	57	1	1	1	C	2	1	706	1	Ⴖ	cut_f_stereo_44KHz.wav
4	58	2	1	0	C	1	1	1064	1	Ⴏ	cut_f_stereo_44KHz.wav
4	59	3	4	2	I	2	0	1123	1	Ⴌ	cut_s_stereo_44KHz.wav
4	60	4	3	2	I	1	0	986	1	Ⴒ	cut_oei_stereo_44KHz.wav
4	61	3	3	2	I	1	0	893	0	Ⴌ	cut_oei_stereo_44KHz.wav
4	62	4	4	2	I	2	0	713	1	Ⴒ	cut_s_stereo_44KHz.wav
4	63	2	2	1	C	2	1	725	1	Ⴏ	cut_ui_stereo_44KHz.wav
4	64	1	2	0	C	1	1	781	1	Ⴖ	cut_ui_stereo_44KHz.wav
4	65	2	2	1	C	2	1	789	1	Ⴏ	cut_ui_stereo_44KHz.wav
4	66	1	1	1	C	2	1	677	1	Ⴖ	cut_f_stereo_44KHz.wav
4	67	4	3	2	I	1	0	910	1	Ⴒ	cut_oei_stereo_44KHz.wav
4	68	3	3	2	I	2	0	653	0	Ⴌ	cut_oei_stereo_44KHz.wav
4	69	2	1	0	C	1	1	942	1	Ⴏ	cut_f_stereo_44KHz.wav
4	70	4	4	2	I	2	0	682	0	Ⴒ	cut_s_stereo_44KHz.wav
4	71	1	2	0	C	1	1	674	1	Ⴖ	cut_ui_stereo_44KHz.wav
4	72	3	4	2	I	2	0	723	1	Ⴌ	cut_s_stereo_44KHz.wav
4	73	1	2	0	C	1	1	552	1	Ⴖ	cut_ui_stereo_44KHz.wav
4	74	3	3	2	I	1	0	799	1	Ⴌ	cut_oei_stereo_44KHz.wav
4	75	2	1	0	C	1	1	725	1	Ⴏ	cut_f_stereo_44KHz.wav
4	76	4	4	2	I	2	0	928	1	Ⴒ	cut_s_stereo_44KHz.wav
4	77	1	1	1	C	2	1	715	1	Ⴖ	cut_f_stereo_44KHz.wav
4	78	3	4	2	I	2	0	791	0	Ⴌ	cut_s_stereo_44KHz.wav
4	79	4	3	2	I	1	0	644	0	Ⴒ	cut_oei_stereo_44KHz.wav
4	80	2	2	1	C	2	1	929	1	Ⴏ	cut_ui_stereo_44KHz.wav
4	81	4	4	2	I	2	0	638	1	Ⴒ	cut_s_stereo_44KHz.wav
4	82	2	1	0	C	2	0	1041	0	Ⴏ	cut_f_stereo_44KHz.wav
4	83	1	2	0	C	1	1	572	1	Ⴖ	cut_ui_stereo_44KHz.wav
4	84	3	3	2	I	2	0	601	1	Ⴌ	cut_oei_stereo_44KHz.wav
4	85	1	1	1	C	2	1	735	1	Ⴖ	cut_f_stereo_44KHz.wav
4	86	4	3	2	I	2	0	638	1	Ⴒ	cut_oei_stereo_44KHz.wav
4	87	3	4	2	I	1	0	795	0	Ⴌ	cut_s_stereo_44KHz.wav
4	88	2	2	1	C	2	1	764	1	Ⴏ	cut_ui_stereo_44KHz.wav
4	89	1	1	1	C	2	1	679	1	Ⴖ	cut_f_stereo_44KHz.wav
4	90	2	1	0	C	1	1	768	1	Ⴏ	cut_f_stereo_44KHz.wav
4	91	4	4	2	I	2	0	708	0	Ⴒ	cut_s_stereo_44KHz.wav
4	92	3	3	2	I	1	0	701	0	Ⴌ	cut_oei_stereo_44KHz.wav
4	93	4	3	2	I	1	0	562	0	Ⴒ	cut_oei_stereo_44KHz.wav
4	94	2	2	1	C	2	1	917	1	Ⴏ	cut_ui_stereo_44KHz.wav
4	95	3	4	2	I	1	0	712	1	Ⴌ	cut_s_stereo_44KHz.wav
4	96	1	2	0	C	1	1	636	1	Ⴖ	cut_ui_stereo_44KHz.wav
4	97	2	2	1	C	2	1	827	1	Ⴏ	cut_ui_stereo_44KHz.wav
4	98	1	1	1	C	2	1	708	1	Ⴖ	cut_f_stereo_44KHz.wav
4	99	3	3	2	I	1	0	893	1	Ⴌ	cut_oei_stereo_44KHz.wav
4	100	4	4	2	I	2	0	824	0	Ⴒ	cut_s_stereo_44KHz.wav
4	101	1	2	0	C	2	0	679	0	Ⴖ	cut_ui_stereo_44KHz.wav
4	102	2	1	0	C	1	1	754	1	Ⴏ	cut_f_stereo_44KHz.wav
4	103	4	3	2	I	1	0	767	1	Ⴒ	cut_oei_stereo_44KHz.wav
4	104	3	4	2	I	1	0	789	1	Ⴌ	cut_s_stereo_44KHz.wav
4	105	2	1	0	C	1	1	705	1	Ⴏ	cut_f_stereo_44KHz.wav
4	106	4	3	2	I	1	0	854	0	Ⴒ	cut_oei_stereo_44KHz.wav
4	107	1	2	0	C	1	1	641	1	Ⴖ	cut_ui_stereo_44KHz.wav
4	108	3	3	2	I	2	0	975	1	Ⴌ	cut_oei_stereo_44KHz.wav
4	109	2	2	1	C	1	0	776	0	Ⴏ	cut_ui_stereo_44KHz.wav
4	110	4	4	2	I	2	0	872	1	Ⴒ	cut_s_stereo_44KHz.wav
4	111	3	4	2	I	1	0	629	1	Ⴌ	cut_s_stereo_44KHz.wav
4	112	1	1	1	C	2	1	721	1	Ⴖ	cut_f_stereo_44KHz.wav
4	113	2	2	1	C	2	1	860	1	Ⴏ	cut_ui_stereo_44KHz.wav
4	114	3	3	2	I	1	0	866	1	Ⴌ	cut_oei_stereo_44KHz.wav
4	115	1	1	1	C	2	1	708	1	Ⴖ	cut_f_stereo_44KHz.wav
4	116	4	4	2	I	1	0	1005	1	Ⴒ	cut_s_stereo_44KHz.wav
4	117	1	2	0	C	2	0	641	0	Ⴖ	cut_ui_stereo_44KHz.wav
4	118	2	1	0	C	1	1	804	1	Ⴏ	cut_f_stereo_44KHz.wav
4	119	3	4	2	I	2	0	914	0	Ⴌ	cut_s_stereo_44KHz.wav
4	120	4	3	2	I	1	0	736	0	Ⴒ	cut_oei_stereo_44KHz.wav
4	121	3	4	2	I	2	0	674	0	Ⴌ	cut_s_stereo_44KHz.wav
4	122	4	3	2	I	1	0	617	1	Ⴒ	cut_oei_stereo_44KHz.wav
4	123	2	2	1	C	2	1	817	1	Ⴏ	cut_ui_stereo_44KHz.wav
4	124	1	1	1	C	2	1	656	1	Ⴖ	cut_f_stereo_44KHz.wav
4	125	4	4	2	I	2	0	833	0	Ⴒ	cut_s_stereo_44KHz.wav
4	126	1	2	0	C	1	1	661	1	Ⴖ	cut_ui_stereo_44KHz.wav
4	127	2	1	0	C	1	1	797	1	Ⴏ	cut_f_stereo_44KHz.wav
4	128	3	3	2	I	2	0	610	1	Ⴌ	cut_oei_stereo_44KHz.wav
4	129	2	2	1	C	2	1	960	1	Ⴏ	cut_ui_stereo_44KHz.wav
4	130	3	3	2	I	2	0	769	0	Ⴌ	cut_oei_stereo_44KHz.wav
4	131	1	2	0	C	1	1	668	1	Ⴖ	cut_ui_stereo_44KHz.wav
4	132	4	3	2	I	2	0	835	0	Ⴒ	cut_oei_stereo_44KHz.wav
4	133	1	1	1	C	2	1	751	1	Ⴖ	cut_f_stereo_44KHz.wav
4	134	3	4	2	I	2	0	855	1	Ⴌ	cut_s_stereo_44KHz.wav
4	135	2	1	0	C	1	1	944	1	Ⴏ	cut_f_stereo_44KHz.wav
4	136	4	4	2	I	2	0	730	0	Ⴒ	cut_s_stereo_44KHz.wav
4	137	2	1	0	C	1	1	687	1	Ⴏ	cut_f_stereo_44KHz.wav
4	138	1	2	0	C	1	1	567	1	Ⴖ	cut_ui_stereo_44KHz.wav
4	139	4	4	2	I	2	0	749	1	Ⴒ	cut_s_stereo_44KHz.wav
4	140	3	4	2	I	1	0	997	0	Ⴌ	cut_s_stereo_44KHz.wav
4	141	2	2	1	C	2	1	832	1	Ⴏ	cut_ui_stereo_44KHz.wav
4	142	1	1	1	C	2	1	636	1	Ⴖ	cut_f_stereo_44KHz.wav
4	143	3	3	2	I	2	0	717	0	Ⴌ	cut_oei_stereo_44KHz.wav
4	144	4	3	2	I	1	0	744	0	Ⴒ	cut_oei_stereo_44KHz.wav
4	145	3	3	2	I	1	0	603	0	Ⴌ	cut_oei_stereo_44KHz.wav
4	146	1	1	1	C	2	1	735	1	Ⴖ	cut_f_stereo_44KHz.wav
4	147	4	3	2	I	2	0	757	0	Ⴒ	cut_oei_stereo_44KHz.wav
4	148	2	1	0	C	1	1	675	1	Ⴏ	cut_f_stereo_44KHz.wav
4	149	4	4	2	I	2	0	608	0	Ⴒ	cut_s_stereo_44KHz.wav
4	150	2	2	1	C	2	1	1011	1	Ⴏ	cut_ui_stereo_44KHz.wav
4	151	3	4	2	I	2	0	702	1	Ⴌ	cut_s_stereo_44KHz.wav
4	152	1	2	0	C	1	1	673	1	Ⴖ	cut_ui_stereo_44KHz.wav
4	153	2	2	1	C	2	1	847	1	Ⴏ	cut_ui_stereo_44KHz.wav
4	154	3	3	2	I	2	0	581	0	Ⴌ	cut_oei_stereo_44KHz.wav
4	155	4	4	2	I	1	0	553	0	Ⴒ	cut_s_stereo_44KHz.wav
4	156	1	2	0	C	2	0	303	0	Ⴖ	cut_ui_stereo_44KHz.wav
4	157	2	1	0	C	1	1	665	1	Ⴏ	cut_f_stereo_44KHz.wav
4	158	1	1	1	C	2	1	515	1	Ⴖ	cut_f_stereo_44KHz.wav
4	159	3	4	2	I	2	0	659	0	Ⴌ	cut_s_stereo_44KHz.wav
4	160	4	3	2	I	2	0	681	1	Ⴒ	cut_oei_stereo_44KHz.wav
4	161	2	1	0	C	1	1	687	1	Ⴏ	cut_f_stereo_44KHz.wav
4	162	4	4	2	I	2	0	626	0	Ⴒ	cut_s_stereo_44KHz.wav
4	163	1	1	1	C	2	1	630	1	Ⴖ	cut_f_stereo_44KHz.wav
4	164	3	3	2	I	2	0	725	1	Ⴌ	cut_oei_stereo_44KHz.wav
4	165	4	3	2	I	1	0	1106	1	Ⴒ	cut_oei_stereo_44KHz.wav
4	166	2	2	1	C	2	1	706	1	Ⴏ	cut_ui_stereo_44KHz.wav
4	167	3	4	2	I	2	0	604	0	Ⴌ	cut_s_stereo_44KHz.wav
4	168	1	2	0	C	1	1	656	1	Ⴖ	cut_ui_stereo_44KHz.wav
4	169	2	1	0	C	1	1	822	1	Ⴏ	cut_f_stereo_44KHz.wav
4	170	4	4	2	I	2	0	784	1	Ⴒ	cut_s_stereo_44KHz.wav
4	171	3	3	2	I	1	0	951	1	Ⴌ	cut_oei_stereo_44KHz.wav
4	172	1	1	1	C	2	1	674	1	Ⴖ	cut_f_stereo_44KHz.wav
4	173	2	2	1	C	2	1	738	1	Ⴏ	cut_ui_stereo_44KHz.wav
4	174	4	3	2	I	2	0	768	0	Ⴒ	cut_oei_stereo_44KHz.wav
4	175	1	2	0	C	1	1	515	1	Ⴖ	cut_ui_stereo_44KHz.wav
4	176	3	4	2	I	2	0	675	0	Ⴌ	cut_s_stereo_44KHz.wav
4	177	4	3	2	I	1	0	684	1	Ⴒ	cut_oei_stereo_44KHz.wav
4	178	1	2	0	C	1	1	617	1	Ⴖ	cut_ui_stereo_44KHz.wav
4	179	2	2	1	C	2	1	670	1	Ⴏ	cut_ui_stereo_44KHz.wav
4	180	3	4	2	I	1	0	870	1	Ⴌ	cut_s_stereo_44KHz.wav
4	181	4	4	2	I	2	0	830	1	Ⴒ	cut_s_stereo_44KHz.wav
4	182	2	1	0	C	1	1	856	1	Ⴏ	cut_f_stereo_44KHz.wav
4	183	1	1	1	C	2	1	473	1	Ⴖ	cut_f_stereo_44KHz.wav
4	184	3	3	2	I	2	0	941	1	Ⴌ	cut_oei_stereo_44KHz.wav
4	185	1	2	0	C	1	1	620	1	Ⴖ	cut_ui_stereo_44KHz.wav
4	186	2	2	1	C	2	1	730	1	Ⴏ	cut_ui_stereo_44KHz.wav
4	187	4	4	2	I	2	0	877	0	Ⴒ	cut_s_stereo_44KHz.wav
4	188	3	4	2	I	2	0	792	1	Ⴌ	cut_s_stereo_44KHz.wav
4	189	1	1	1	C	2	1	631	1	Ⴖ	cut_f_stereo_44KHz.wav
4	190	2	1	0	C	1	1	900	1	Ⴏ	cut_f_stereo_44KHz.wav
4	191	4	3	2	I	1	0	694	1	Ⴒ	cut_oei_stereo_44KHz.wav
4	192	3	3	2	I	1	0	761	1	Ⴌ	cut_oei_stereo_44KHz.wav
4	193	4	4	2	I	1	0	725	0	Ⴒ	cut_s_stereo_44KHz.wav
4	194	3	3	2	I	2	0	786	0	Ⴌ	cut_oei_stereo_44KHz.wav
4	195	1	2	0	C	1	1	465	1	Ⴖ	cut_ui_stereo_44KHz.wav
4	196	2	2	1	C	2	1	635	1	Ⴏ	cut_ui_stereo_44KHz.wav
4	197	4	3	2	I	1	0	672	0	Ⴒ	cut_oei_stereo_44KHz.wav
4	198	3	4	2	I	2	0	671	1	Ⴌ	cut_s_stereo_44KHz.wav
4	199	2	1	0	C	1	1	841	1	Ⴏ	cut_f_stereo_44KHz.wav
4	200	1	1	1	C	2	1	553	1	Ⴖ	cut_f_stereo_44KHz.wav
