block	trial	Vstim	Astim	match	C/I	resp	result	RT	fb	V-file	A-file
RL

0	1	1	1	1	C	0	0	0	0	Ⴋ	cut_oo_stereo_44KHz.wav
0	2	2	3	1	C	1	1	873	1	Ⴢ	cut_ee_stereo_44KHz.wav
0	3	1	2	0	C	1	0	1230	0	Ⴋ	cut_g_stereo_44KHz.wav
0	4	2	4	0	C	2	1	927	1	Ⴢ	cut_eeuw_stereo_44KHz.wav
0	5	1	1	1	C	1	1	992	1	Ⴋ	cut_oo_stereo_44KHz.wav
0	6	2	4	0	C	2	1	914	1	Ⴢ	cut_eeuw_stereo_44KHz.wav
0	7	2	3	1	C	1	1	1107	1	Ⴢ	cut_ee_stereo_44KHz.wav
0	8	1	2	0	C	2	1	1026	1	Ⴋ	cut_g_stereo_44KHz.wav
0	9	1	2	0	C	2	1	996	1	Ⴋ	cut_g_stereo_44KHz.wav
0	10	1	1	1	C	2	0	806	0	Ⴋ	cut_oo_stereo_44KHz.wav
0	11	2	4	0	C	2	1	814	1	Ⴢ	cut_eeuw_stereo_44KHz.wav
0	12	2	3	1	C	1	1	1508	1	Ⴢ	cut_ee_stereo_44KHz.wav
0	13	2	3	1	C	2	0	747	0	Ⴢ	cut_ee_stereo_44KHz.wav
0	14	1	1	1	C	1	1	1386	1	Ⴋ	cut_oo_stereo_44KHz.wav
0	15	2	4	0	C	2	1	578	1	Ⴢ	cut_eeuw_stereo_44KHz.wav
0	16	1	2	0	C	1	0	796	0	Ⴋ	cut_g_stereo_44KHz.wav
0	17	2	3	1	C	1	1	1228	1	Ⴢ	cut_ee_stereo_44KHz.wav
0	18	1	2	0	C	2	1	1022	1	Ⴋ	cut_g_stereo_44KHz.wav
0	19	1	1	1	C	1	1	1277	1	Ⴋ	cut_oo_stereo_44KHz.wav
0	20	2	4	0	C	2	1	659	1	Ⴢ	cut_eeuw_stereo_44KHz.wav
0	21	2	3	1	C	2	0	858	0	Ⴢ	cut_ee_stereo_44KHz.wav
0	22	1	2	0	C	2	1	931	1	Ⴋ	cut_g_stereo_44KHz.wav
0	23	2	4	0	C	2	1	786	1	Ⴢ	cut_eeuw_stereo_44KHz.wav
0	24	1	1	1	C	1	1	1238	1	Ⴋ	cut_oo_stereo_44KHz.wav
0	25	1	1	1	C	1	1	1428	1	Ⴋ	cut_oo_stereo_44KHz.wav
0	26	2	4	0	C	2	1	604	1	Ⴢ	cut_eeuw_stereo_44KHz.wav
0	27	2	3	1	C	1	1	1018	1	Ⴢ	cut_ee_stereo_44KHz.wav
0	28	1	2	0	C	2	1	1720	1	Ⴋ	cut_g_stereo_44KHz.wav
0	29	2	3	1	C	1	1	972	1	Ⴢ	cut_ee_stereo_44KHz.wav
0	30	2	4	0	C	2	1	596	1	Ⴢ	cut_eeuw_stereo_44KHz.wav
avg_resp = 1025
1	1	2	1	0	C	2	1	1398	1	Ⴕ	cut_a_stereo_44KHz.wav
1	2	3	4	2	I	1	0	1082	0	Ⴉ	cut_u_stereo_44KHz.wav
1	3	4	3	2	I	1	0	1252	0	Ⴔ	cut_o_stereo_44KHz.wav
1	4	1	1	1	C	2	0	1099	0	Ⴒ	cut_a_stereo_44KHz.wav
1	5	3	3	2	I	2	0	878	1	Ⴉ	cut_o_stereo_44KHz.wav
1	6	4	4	2	I	2	0	1029	0	Ⴔ	cut_u_stereo_44KHz.wav
1	7	2	2	1	C	1	1	1099	1	Ⴕ	cut_k_stereo_44KHz.wav
1	8	1	2	0	C	2	1	1059	1	Ⴒ	cut_k_stereo_44KHz.wav
1	9	3	3	2	I	2	0	867	1	Ⴉ	cut_o_stereo_44KHz.wav
1	10	1	1	1	C	1	1	907	1	Ⴒ	cut_a_stereo_44KHz.wav
1	11	4	3	2	I	2	0	934	1	Ⴔ	cut_o_stereo_44KHz.wav
1	12	2	1	0	C	2	1	810	1	Ⴕ	cut_a_stereo_44KHz.wav
1	13	1	2	0	C	2	1	1390	1	Ⴒ	cut_k_stereo_44KHz.wav
1	14	4	4	2	I	2	0	849	0	Ⴔ	cut_u_stereo_44KHz.wav
1	15	3	4	2	I	2	0	1010	1	Ⴉ	cut_u_stereo_44KHz.wav
1	16	2	2	1	C	1	1	894	1	Ⴕ	cut_k_stereo_44KHz.wav
1	17	4	3	2	I	2	0	1258	0	Ⴔ	cut_o_stereo_44KHz.wav
1	18	3	4	2	I	2	0	835	0	Ⴉ	cut_u_stereo_44KHz.wav
1	19	1	1	1	C	1	1	882	1	Ⴒ	cut_a_stereo_44KHz.wav
1	20	2	1	0	C	2	1	1801	1	Ⴕ	cut_a_stereo_44KHz.wav
1	21	4	4	2	I	1	0	870	0	Ⴔ	cut_u_stereo_44KHz.wav
1	22	3	3	2	I	2	0	1133	0	Ⴉ	cut_o_stereo_44KHz.wav
1	23	2	2	1	C	1	1	872	1	Ⴕ	cut_k_stereo_44KHz.wav
1	24	1	2	0	C	2	1	1516	1	Ⴒ	cut_k_stereo_44KHz.wav
1	25	4	4	2	I	2	0	1657	1	Ⴔ	cut_u_stereo_44KHz.wav
1	26	3	4	2	I	2	0	852	0	Ⴉ	cut_u_stereo_44KHz.wav
1	27	2	2	1	C	1	1	923	1	Ⴕ	cut_k_stereo_44KHz.wav
1	28	1	2	0	C	2	1	1272	1	Ⴒ	cut_k_stereo_44KHz.wav
1	29	3	3	2	I	2	0	739	1	Ⴉ	cut_o_stereo_44KHz.wav
1	30	1	1	1	C	1	1	847	1	Ⴒ	cut_a_stereo_44KHz.wav
1	31	4	3	2	I	2	0	865	0	Ⴔ	cut_o_stereo_44KHz.wav
1	32	2	1	0	C	2	1	662	1	Ⴕ	cut_a_stereo_44KHz.wav
1	33	4	4	2	I	1	0	871	1	Ⴔ	cut_u_stereo_44KHz.wav
1	34	2	2	1	C	1	1	857	1	Ⴕ	cut_k_stereo_44KHz.wav
1	35	1	2	0	C	2	1	1023	1	Ⴒ	cut_k_stereo_44KHz.wav
1	36	3	3	2	I	2	0	1002	0	Ⴉ	cut_o_stereo_44KHz.wav
1	37	4	3	2	I	2	0	1031	1	Ⴔ	cut_o_stereo_44KHz.wav
1	38	1	1	1	C	1	1	1285	1	Ⴒ	cut_a_stereo_44KHz.wav
1	39	3	4	2	I	2	0	879	0	Ⴉ	cut_u_stereo_44KHz.wav
1	40	2	1	0	C	2	1	790	1	Ⴕ	cut_a_stereo_44KHz.wav
1	41	1	2	0	C	2	1	1429	1	Ⴒ	cut_k_stereo_44KHz.wav
1	42	2	1	0	C	2	1	644	1	Ⴕ	cut_a_stereo_44KHz.wav
1	43	3	3	2	I	2	0	1064	0	Ⴉ	cut_o_stereo_44KHz.wav
1	44	4	4	2	I	1	0	1646	1	Ⴔ	cut_u_stereo_44KHz.wav
1	45	3	4	2	I	2	0	1385	1	Ⴉ	cut_u_stereo_44KHz.wav
1	46	4	3	2	I	2	0	898	0	Ⴔ	cut_o_stereo_44KHz.wav
1	47	1	1	1	C	1	1	1006	1	Ⴒ	cut_a_stereo_44KHz.wav
1	48	2	2	1	C	1	1	1903	1	Ⴕ	cut_k_stereo_44KHz.wav
1	49	3	4	2	I	2	0	805	0	Ⴉ	cut_u_stereo_44KHz.wav
1	50	1	2	0	C	2	1	762	1	Ⴒ	cut_k_stereo_44KHz.wav
1	51	4	4	2	I	2	0	758	0	Ⴔ	cut_u_stereo_44KHz.wav
1	52	2	1	0	C	2	1	650	1	Ⴕ	cut_a_stereo_44KHz.wav
1	53	4	3	2	I	1	0	1262	0	Ⴔ	cut_o_stereo_44KHz.wav
1	54	2	2	1	C	1	1	1146	1	Ⴕ	cut_k_stereo_44KHz.wav
1	55	3	3	2	I	1	0	1485	1	Ⴉ	cut_o_stereo_44KHz.wav
1	56	1	1	1	C	1	1	796	1	Ⴒ	cut_a_stereo_44KHz.wav
1	57	4	4	2	I	2	0	760	1	Ⴔ	cut_u_stereo_44KHz.wav
1	58	3	4	2	I	1	0	945	1	Ⴉ	cut_u_stereo_44KHz.wav
1	59	2	2	1	C	1	1	806	1	Ⴕ	cut_k_stereo_44KHz.wav
1	60	1	2	0	C	2	1	874	1	Ⴒ	cut_k_stereo_44KHz.wav
1	61	4	3	2	I	2	0	668	1	Ⴔ	cut_o_stereo_44KHz.wav
1	62	1	1	1	C	1	1	840	1	Ⴒ	cut_a_stereo_44KHz.wav
1	63	2	1	0	C	2	1	649	1	Ⴕ	cut_a_stereo_44KHz.wav
1	64	3	3	2	I	1	0	971	1	Ⴉ	cut_o_stereo_44KHz.wav
1	65	4	4	2	I	2	0	814	1	Ⴔ	cut_u_stereo_44KHz.wav
1	66	3	3	2	I	2	0	1087	0	Ⴉ	cut_o_stereo_44KHz.wav
1	67	2	1	0	C	2	1	749	1	Ⴕ	cut_a_stereo_44KHz.wav
1	68	1	1	1	C	1	1	903	1	Ⴒ	cut_a_stereo_44KHz.wav
1	69	3	4	2	I	2	0	889	0	Ⴉ	cut_u_stereo_44KHz.wav
1	70	4	3	2	I	2	0	757	1	Ⴔ	cut_o_stereo_44KHz.wav
1	71	1	2	0	C	1	0	817	0	Ⴒ	cut_k_stereo_44KHz.wav
1	72	2	2	1	C	1	1	816	1	Ⴕ	cut_k_stereo_44KHz.wav
1	73	1	1	1	C	1	1	1063	1	Ⴒ	cut_a_stereo_44KHz.wav
1	74	3	4	2	I	1	0	1250	0	Ⴉ	cut_u_stereo_44KHz.wav
1	75	2	2	1	C	1	1	1173	1	Ⴕ	cut_k_stereo_44KHz.wav
1	76	4	4	2	I	2	0	1388	0	Ⴔ	cut_u_stereo_44KHz.wav
1	77	3	3	2	I	1	0	1100	1	Ⴉ	cut_o_stereo_44KHz.wav
1	78	1	2	0	C	2	1	1091	1	Ⴒ	cut_k_stereo_44KHz.wav
1	79	2	1	0	C	2	1	604	1	Ⴕ	cut_a_stereo_44KHz.wav
1	80	4	3	2	I	1	0	1538	1	Ⴔ	cut_o_stereo_44KHz.wav
1	81	2	1	0	C	2	1	769	1	Ⴕ	cut_a_stereo_44KHz.wav
1	82	4	3	2	I	1	0	1512	1	Ⴔ	cut_o_stereo_44KHz.wav
1	83	3	4	2	I	0	0	0	0	Ⴉ	cut_u_stereo_44KHz.wav
1	84	1	1	1	C	2	0	897	0	Ⴒ	cut_a_stereo_44KHz.wav
1	85	2	2	1	C	1	1	1010	1	Ⴕ	cut_k_stereo_44KHz.wav
1	86	4	4	2	I	1	0	883	1	Ⴔ	cut_u_stereo_44KHz.wav
1	87	3	3	2	I	1	0	1247	1	Ⴉ	cut_o_stereo_44KHz.wav
1	88	1	2	0	C	2	1	769	1	Ⴒ	cut_k_stereo_44KHz.wav
1	89	2	2	1	C	1	1	699	1	Ⴕ	cut_k_stereo_44KHz.wav
1	90	1	2	0	C	2	1	685	1	Ⴒ	cut_k_stereo_44KHz.wav
1	91	4	4	2	I	1	0	957	1	Ⴔ	cut_u_stereo_44KHz.wav
1	92	3	4	2	I	2	0	872	1	Ⴉ	cut_u_stereo_44KHz.wav
1	93	2	1	0	C	2	1	628	1	Ⴕ	cut_a_stereo_44KHz.wav
1	94	1	1	1	C	1	1	869	1	Ⴒ	cut_a_stereo_44KHz.wav
1	95	4	3	2	I	2	0	1282	0	Ⴔ	cut_o_stereo_44KHz.wav
1	96	3	3	2	I	2	0	627	0	Ⴉ	cut_o_stereo_44KHz.wav
1	97	4	4	2	I	2	0	1304	0	Ⴔ	cut_u_stereo_44KHz.wav
1	98	2	1	0	C	2	1	653	1	Ⴕ	cut_a_stereo_44KHz.wav
1	99	1	1	1	C	1	1	943	1	Ⴒ	cut_a_stereo_44KHz.wav
1	100	3	3	2	I	2	0	985	0	Ⴉ	cut_o_stereo_44KHz.wav
1	101	4	3	2	I	2	0	672	1	Ⴔ	cut_o_stereo_44KHz.wav
1	102	2	2	1	C	1	1	726	1	Ⴕ	cut_k_stereo_44KHz.wav
1	103	1	2	0	C	2	1	978	1	Ⴒ	cut_k_stereo_44KHz.wav
1	104	3	4	2	I	0	0	0	0	Ⴉ	cut_u_stereo_44KHz.wav
1	105	1	2	0	C	2	1	834	1	Ⴒ	cut_k_stereo_44KHz.wav
1	106	3	3	2	I	1	0	852	1	Ⴉ	cut_o_stereo_44KHz.wav
1	107	2	2	1	C	1	1	829	1	Ⴕ	cut_k_stereo_44KHz.wav
1	108	4	4	2	I	2	0	784	0	Ⴔ	cut_u_stereo_44KHz.wav
1	109	1	1	1	C	1	1	834	1	Ⴒ	cut_a_stereo_44KHz.wav
1	110	2	1	0	C	2	1	557	1	Ⴕ	cut_a_stereo_44KHz.wav
1	111	4	3	2	I	1	0	1110	1	Ⴔ	cut_o_stereo_44KHz.wav
1	112	3	4	2	I	1	0	1794	0	Ⴉ	cut_u_stereo_44KHz.wav
1	113	4	3	2	I	1	0	961	1	Ⴔ	cut_o_stereo_44KHz.wav
1	114	1	1	1	C	1	1	779	1	Ⴒ	cut_a_stereo_44KHz.wav
1	115	2	2	1	C	1	1	729	1	Ⴕ	cut_k_stereo_44KHz.wav
1	116	3	3	2	I	1	0	994	1	Ⴉ	cut_o_stereo_44KHz.wav
1	117	4	4	2	I	2	0	918	0	Ⴔ	cut_u_stereo_44KHz.wav
1	118	2	1	0	C	2	1	612	1	Ⴕ	cut_a_stereo_44KHz.wav
1	119	1	2	0	C	2	1	762	1	Ⴒ	cut_k_stereo_44KHz.wav
1	120	3	4	2	I	1	0	867	1	Ⴉ	cut_u_stereo_44KHz.wav
1	121	4	3	2	I	1	0	1196	1	Ⴔ	cut_o_stereo_44KHz.wav
1	122	3	3	2	I	1	0	1365	1	Ⴉ	cut_o_stereo_44KHz.wav
1	123	2	1	0	C	2	1	780	1	Ⴕ	cut_a_stereo_44KHz.wav
1	124	1	2	0	C	2	1	1000	1	Ⴒ	cut_k_stereo_44KHz.wav
1	125	2	2	1	C	1	1	756	1	Ⴕ	cut_k_stereo_44KHz.wav
1	126	1	1	1	C	1	1	674	1	Ⴒ	cut_a_stereo_44KHz.wav
1	127	3	4	2	I	1	0	1114	0	Ⴉ	cut_u_stereo_44KHz.wav
1	128	4	4	2	I	1	0	877	0	Ⴔ	cut_u_stereo_44KHz.wav
1	129	3	3	2	I	1	0	897	0	Ⴉ	cut_o_stereo_44KHz.wav
1	130	1	1	1	C	1	1	748	1	Ⴒ	cut_a_stereo_44KHz.wav
1	131	4	4	2	I	2	0	873	0	Ⴔ	cut_u_stereo_44KHz.wav
1	132	2	1	0	C	1	0	582	0	Ⴕ	cut_a_stereo_44KHz.wav
1	133	1	2	0	C	2	1	860	1	Ⴒ	cut_k_stereo_44KHz.wav
1	134	4	3	2	I	1	0	1036	1	Ⴔ	cut_o_stereo_44KHz.wav
1	135	2	2	1	C	1	1	947	1	Ⴕ	cut_k_stereo_44KHz.wav
1	136	3	4	2	I	2	0	937	1	Ⴉ	cut_u_stereo_44KHz.wav
1	137	2	2	1	C	1	1	1018	1	Ⴕ	cut_k_stereo_44KHz.wav
1	138	1	2	0	C	2	1	885	1	Ⴒ	cut_k_stereo_44KHz.wav
1	139	3	3	2	I	2	0	1259	0	Ⴉ	cut_o_stereo_44KHz.wav
1	140	4	4	2	I	1	0	929	0	Ⴔ	cut_u_stereo_44KHz.wav
1	141	1	1	1	C	1	1	835	1	Ⴒ	cut_a_stereo_44KHz.wav
1	142	3	4	2	I	2	0	716	0	Ⴉ	cut_u_stereo_44KHz.wav
1	143	4	3	2	I	2	0	1863	0	Ⴔ	cut_o_stereo_44KHz.wav
1	144	2	1	0	C	2	1	708	1	Ⴕ	cut_a_stereo_44KHz.wav
1	145	4	3	2	I	1	0	1087	1	Ⴔ	cut_o_stereo_44KHz.wav
1	146	1	1	1	C	1	1	868	1	Ⴒ	cut_a_stereo_44KHz.wav
1	147	3	4	2	I	1	0	1081	0	Ⴉ	cut_u_stereo_44KHz.wav
1	148	2	2	1	C	1	1	939	1	Ⴕ	cut_k_stereo_44KHz.wav
1	149	4	4	2	I	0	0	0	0	Ⴔ	cut_u_stereo_44KHz.wav
1	150	3	3	2	I	1	0	984	1	Ⴉ	cut_o_stereo_44KHz.wav
1	151	1	2	0	C	2	1	935	1	Ⴒ	cut_k_stereo_44KHz.wav
1	152	2	1	0	C	2	1	606	1	Ⴕ	cut_a_stereo_44KHz.wav
1	153	4	3	2	I	1	0	880	0	Ⴔ	cut_o_stereo_44KHz.wav
1	154	2	2	1	C	2	0	725	0	Ⴕ	cut_k_stereo_44KHz.wav
1	155	3	3	2	I	1	0	1446	0	Ⴉ	cut_o_stereo_44KHz.wav
1	156	1	2	0	C	2	1	955	1	Ⴒ	cut_k_stereo_44KHz.wav
1	157	4	4	2	I	2	0	694	1	Ⴔ	cut_u_stereo_44KHz.wav
1	158	3	4	2	I	2	0	910	0	Ⴉ	cut_u_stereo_44KHz.wav
1	159	1	1	1	C	1	1	849	1	Ⴒ	cut_a_stereo_44KHz.wav
1	160	2	1	0	C	2	1	722	1	Ⴕ	cut_a_stereo_44KHz.wav
1	161	3	4	2	I	2	0	1276	1	Ⴉ	cut_u_stereo_44KHz.wav
1	162	1	1	1	C	1	1	1547	1	Ⴒ	cut_a_stereo_44KHz.wav
1	163	2	1	0	C	2	1	549	1	Ⴕ	cut_a_stereo_44KHz.wav
1	164	4	4	2	I	1	0	1011	0	Ⴔ	cut_u_stereo_44KHz.wav
1	165	2	2	1	C	1	1	1830	1	Ⴕ	cut_k_stereo_44KHz.wav
1	166	3	3	2	I	1	0	1056	0	Ⴉ	cut_o_stereo_44KHz.wav
1	167	4	3	2	I	2	0	941	0	Ⴔ	cut_o_stereo_44KHz.wav
1	168	1	2	0	C	2	1	837	1	Ⴒ	cut_k_stereo_44KHz.wav
1	169	4	4	2	I	1	0	1234	0	Ⴔ	cut_u_stereo_44KHz.wav
1	170	2	1	0	C	2	1	607	1	Ⴕ	cut_a_stereo_44KHz.wav
1	171	3	4	2	I	2	0	1133	1	Ⴉ	cut_u_stereo_44KHz.wav
1	172	1	2	0	C	2	1	794	1	Ⴒ	cut_k_stereo_44KHz.wav
1	173	2	2	1	C	1	1	825	1	Ⴕ	cut_k_stereo_44KHz.wav
1	174	3	3	2	I	1	0	941	0	Ⴉ	cut_o_stereo_44KHz.wav
1	175	1	1	1	C	1	1	1004	1	Ⴒ	cut_a_stereo_44KHz.wav
1	176	4	3	2	I	1	0	1220	0	Ⴔ	cut_o_stereo_44KHz.wav
1	177	3	4	2	I	2	0	775	1	Ⴉ	cut_u_stereo_44KHz.wav
1	178	1	2	0	C	2	1	869	1	Ⴒ	cut_k_stereo_44KHz.wav
1	179	2	2	1	C	2	0	984	0	Ⴕ	cut_k_stereo_44KHz.wav
1	180	4	3	2	I	1	0	1238	1	Ⴔ	cut_o_stereo_44KHz.wav
1	181	3	3	2	I	2	0	743	0	Ⴉ	cut_o_stereo_44KHz.wav
1	182	2	1	0	C	2	1	842	1	Ⴕ	cut_a_stereo_44KHz.wav
1	183	4	4	2	I	2	0	1011	0	Ⴔ	cut_u_stereo_44KHz.wav
1	184	1	1	1	C	1	1	1584	1	Ⴒ	cut_a_stereo_44KHz.wav
1	185	4	3	2	I	2	0	1020	1	Ⴔ	cut_o_stereo_44KHz.wav
1	186	1	1	1	C	1	1	1053	1	Ⴒ	cut_a_stereo_44KHz.wav
1	187	3	3	2	I	2	0	812	1	Ⴉ	cut_o_stereo_44KHz.wav
1	188	2	1	0	C	2	1	688	1	Ⴕ	cut_a_stereo_44KHz.wav
1	189	4	4	2	I	2	0	832	1	Ⴔ	cut_u_stereo_44KHz.wav
1	190	3	4	2	I	2	0	906	1	Ⴉ	cut_u_stereo_44KHz.wav
1	191	2	2	1	C	1	1	917	1	Ⴕ	cut_k_stereo_44KHz.wav
1	192	1	2	0	C	2	1	1048	1	Ⴒ	cut_k_stereo_44KHz.wav
1	193	2	2	1	C	1	1	817	1	Ⴕ	cut_k_stereo_44KHz.wav
1	194	1	2	0	C	2	1	655	1	Ⴒ	cut_k_stereo_44KHz.wav
1	195	3	3	2	I	2	0	714	1	Ⴉ	cut_o_stereo_44KHz.wav
1	196	4	4	2	I	2	0	973	1	Ⴔ	cut_u_stereo_44KHz.wav
1	197	2	1	0	C	2	1	943	1	Ⴕ	cut_a_stereo_44KHz.wav
1	198	3	4	2	I	2	0	853	1	Ⴉ	cut_u_stereo_44KHz.wav
1	199	4	3	2	I	2	0	676	0	Ⴔ	cut_o_stereo_44KHz.wav
1	200	1	1	1	C	1	1	815	1	Ⴒ	cut_a_stereo_44KHz.wav
2	1	4	3	2	I	0	0	0	0	Ⴐ	cut_ei_stereo_44KHz.wav
2	2	3	4	2	I	2	0	997	1	Ⴌ	cut_r_stereo_44KHz.wav
2	3	2	2	1	C	2	0	986	0	Ⴖ	cut_ui_stereo_44KHz.wav
2	4	1	1	1	C	2	0	1219	0	Ⴏ	cut_oei_stereo_44KHz.wav
2	5	3	3	2	I	2	0	1259	1	Ⴌ	cut_ei_stereo_44KHz.wav
2	6	2	1	0	C	1	0	1274	0	Ⴖ	cut_oei_stereo_44KHz.wav
2	7	4	4	2	I	1	0	1589	0	Ⴐ	cut_r_stereo_44KHz.wav
2	8	1	2	0	C	1	0	1358	0	Ⴏ	cut_ui_stereo_44KHz.wav
2	9	4	4	2	I	2	0	1145	1	Ⴐ	cut_r_stereo_44KHz.wav
2	10	1	2	0	C	2	1	869	1	Ⴏ	cut_ui_stereo_44KHz.wav
2	11	3	3	2	I	2	0	1159	0	Ⴌ	cut_ei_stereo_44KHz.wav
2	12	2	2	1	C	2	0	1208	0	Ⴖ	cut_ui_stereo_44KHz.wav
2	13	1	1	1	C	2	0	1060	0	Ⴏ	cut_oei_stereo_44KHz.wav
2	14	2	1	0	C	1	0	1241	0	Ⴖ	cut_oei_stereo_44KHz.wav
2	15	4	3	2	I	1	0	1150	1	Ⴐ	cut_ei_stereo_44KHz.wav
2	16	3	4	2	I	1	0	1311	1	Ⴌ	cut_r_stereo_44KHz.wav
2	17	2	1	0	C	2	1	972	1	Ⴖ	cut_oei_stereo_44KHz.wav
2	18	3	3	2	I	2	0	707	1	Ⴌ	cut_ei_stereo_44KHz.wav
2	19	1	1	1	C	2	0	1268	0	Ⴏ	cut_oei_stereo_44KHz.wav
2	20	4	3	2	I	1	0	827	0	Ⴐ	cut_ei_stereo_44KHz.wav
2	21	2	2	1	C	1	1	1039	1	Ⴖ	cut_ui_stereo_44KHz.wav
2	22	3	4	2	I	1	0	1103	1	Ⴌ	cut_r_stereo_44KHz.wav
2	23	1	2	0	C	2	1	1443	1	Ⴏ	cut_ui_stereo_44KHz.wav
2	24	4	4	2	I	2	0	894	1	Ⴐ	cut_r_stereo_44KHz.wav
2	25	2	2	1	C	1	1	1225	1	Ⴖ	cut_ui_stereo_44KHz.wav
2	26	1	2	0	C	2	1	985	1	Ⴏ	cut_ui_stereo_44KHz.wav
2	27	3	4	2	I	1	0	846	1	Ⴌ	cut_r_stereo_44KHz.wav
2	28	4	3	2	I	1	0	892	1	Ⴐ	cut_ei_stereo_44KHz.wav
2	29	2	1	0	C	1	0	959	0	Ⴖ	cut_oei_stereo_44KHz.wav
2	30	1	1	1	C	2	0	679	0	Ⴏ	cut_oei_stereo_44KHz.wav
2	31	3	3	2	I	2	0	973	1	Ⴌ	cut_ei_stereo_44KHz.wav
2	32	4	4	2	I	2	0	927	1	Ⴐ	cut_r_stereo_44KHz.wav
2	33	1	1	1	C	2	0	853	0	Ⴏ	cut_oei_stereo_44KHz.wav
2	34	3	4	2	I	1	0	889	1	Ⴌ	cut_r_stereo_44KHz.wav
2	35	2	2	1	C	1	1	1139	1	Ⴖ	cut_ui_stereo_44KHz.wav
2	36	4	4	2	I	2	0	779	1	Ⴐ	cut_r_stereo_44KHz.wav
2	37	1	2	0	C	2	1	688	1	Ⴏ	cut_ui_stereo_44KHz.wav
2	38	3	3	2	I	2	0	641	0	Ⴌ	cut_ei_stereo_44KHz.wav
2	39	2	1	0	C	2	1	778	1	Ⴖ	cut_oei_stereo_44KHz.wav
2	40	4	3	2	I	1	0	966	1	Ⴐ	cut_ei_stereo_44KHz.wav
2	41	3	3	2	I	2	0	894	0	Ⴌ	cut_ei_stereo_44KHz.wav
2	42	1	2	0	C	2	1	944	1	Ⴏ	cut_ui_stereo_44KHz.wav
2	43	2	1	0	C	2	1	1142	1	Ⴖ	cut_oei_stereo_44KHz.wav
2	44	4	3	2	I	1	0	1444	1	Ⴐ	cut_ei_stereo_44KHz.wav
2	45	1	1	1	C	1	1	1048	1	Ⴏ	cut_oei_stereo_44KHz.wav
2	46	4	4	2	I	2	0	826	0	Ⴐ	cut_r_stereo_44KHz.wav
2	47	3	4	2	I	0	0	0	0	Ⴌ	cut_r_stereo_44KHz.wav
2	48	2	2	1	C	1	1	999	1	Ⴖ	cut_ui_stereo_44KHz.wav
2	49	3	4	2	I	1	0	882	1	Ⴌ	cut_r_stereo_44KHz.wav
2	50	1	1	1	C	2	0	871	0	Ⴏ	cut_oei_stereo_44KHz.wav
2	51	2	1	0	C	2	1	837	1	Ⴖ	cut_oei_stereo_44KHz.wav
2	52	4	3	2	I	1	0	1271	0	Ⴐ	cut_ei_stereo_44KHz.wav
2	53	1	2	0	C	2	1	1153	1	Ⴏ	cut_ui_stereo_44KHz.wav
2	54	2	2	1	C	1	1	1002	1	Ⴖ	cut_ui_stereo_44KHz.wav
2	55	4	4	2	I	2	0	1130	1	Ⴐ	cut_r_stereo_44KHz.wav
2	56	3	3	2	I	2	0	944	1	Ⴌ	cut_ei_stereo_44KHz.wav
2	57	4	4	2	I	2	0	951	0	Ⴐ	cut_r_stereo_44KHz.wav
2	58	2	1	0	C	2	1	1521	1	Ⴖ	cut_oei_stereo_44KHz.wav
2	59	3	3	2	I	2	0	807	0	Ⴌ	cut_ei_stereo_44KHz.wav
2	60	1	1	1	C	2	0	791	0	Ⴏ	cut_oei_stereo_44KHz.wav
2	61	3	4	2	I	1	0	1444	1	Ⴌ	cut_r_stereo_44KHz.wav
2	62	2	2	1	C	1	1	1361	1	Ⴖ	cut_ui_stereo_44KHz.wav
2	63	4	3	2	I	2	0	1082	0	Ⴐ	cut_ei_stereo_44KHz.wav
2	64	1	2	0	C	2	1	1304	1	Ⴏ	cut_ui_stereo_44KHz.wav
2	65	4	3	2	I	1	0	981	1	Ⴐ	cut_ei_stereo_44KHz.wav
2	66	2	2	1	C	1	1	891	1	Ⴖ	cut_ui_stereo_44KHz.wav
2	67	3	3	2	I	2	0	799	1	Ⴌ	cut_ei_stereo_44KHz.wav
2	68	1	2	0	C	2	1	785	1	Ⴏ	cut_ui_stereo_44KHz.wav
2	69	4	4	2	I	2	0	825	1	Ⴐ	cut_r_stereo_44KHz.wav
2	70	3	4	2	I	1	0	1167	0	Ⴌ	cut_r_stereo_44KHz.wav
2	71	2	1	0	C	0	0	0	0	Ⴖ	cut_oei_stereo_44KHz.wav
2	72	1	1	1	C	2	0	683	0	Ⴏ	cut_oei_stereo_44KHz.wav
2	73	2	2	1	C	1	1	1306	1	Ⴖ	cut_ui_stereo_44KHz.wav
2	74	1	1	1	C	2	0	727	0	Ⴏ	cut_oei_stereo_44KHz.wav
2	75	3	4	2	I	1	0	992	1	Ⴌ	cut_r_stereo_44KHz.wav
2	76	4	4	2	I	2	0	1187	1	Ⴐ	cut_r_stereo_44KHz.wav
2	77	2	1	0	C	2	1	1027	1	Ⴖ	cut_oei_stereo_44KHz.wav
2	78	3	3	2	I	2	0	939	1	Ⴌ	cut_ei_stereo_44KHz.wav
2	79	1	2	0	C	2	1	755	1	Ⴏ	cut_ui_stereo_44KHz.wav
2	80	4	3	2	I	2	0	1243	0	Ⴐ	cut_ei_stereo_44KHz.wav
2	81	2	1	0	C	2	1	1238	1	Ⴖ	cut_oei_stereo_44KHz.wav
2	82	1	1	1	C	2	0	781	0	Ⴏ	cut_oei_stereo_44KHz.wav
2	83	4	4	2	I	2	0	737	1	Ⴐ	cut_r_stereo_44KHz.wav
2	84	3	3	2	I	2	0	930	1	Ⴌ	cut_ei_stereo_44KHz.wav
2	85	1	2	0	C	2	1	622	1	Ⴏ	cut_ui_stereo_44KHz.wav
2	86	2	2	1	C	2	0	823	0	Ⴖ	cut_ui_stereo_44KHz.wav
2	87	3	4	2	I	1	0	967	0	Ⴌ	cut_r_stereo_44KHz.wav
2	88	4	3	2	I	1	0	990	1	Ⴐ	cut_ei_stereo_44KHz.wav
2	89	3	4	2	I	1	0	1037	0	Ⴌ	cut_r_stereo_44KHz.wav
2	90	4	4	2	I	2	0	967	0	Ⴐ	cut_r_stereo_44KHz.wav
2	91	1	1	1	C	2	0	945	0	Ⴏ	cut_oei_stereo_44KHz.wav
2	92	2	1	0	C	2	1	491	1	Ⴖ	cut_oei_stereo_44KHz.wav
2	93	1	2	0	C	2	1	598	1	Ⴏ	cut_ui_stereo_44KHz.wav
2	94	2	2	1	C	2	0	654	0	Ⴖ	cut_ui_stereo_44KHz.wav
2	95	3	3	2	I	2	0	884	1	Ⴌ	cut_ei_stereo_44KHz.wav
2	96	4	3	2	I	1	0	770	0	Ⴐ	cut_ei_stereo_44KHz.wav
2	97	1	2	0	C	2	1	696	1	Ⴏ	cut_ui_stereo_44KHz.wav
2	98	4	3	2	I	1	0	1064	1	Ⴐ	cut_ei_stereo_44KHz.wav
2	99	2	2	1	C	1	1	1191	1	Ⴖ	cut_ui_stereo_44KHz.wav
2	100	3	3	2	I	2	0	1252	0	Ⴌ	cut_ei_stereo_44KHz.wav
2	101	2	1	0	C	1	0	761	0	Ⴖ	cut_oei_stereo_44KHz.wav
2	102	1	1	1	C	2	0	747	0	Ⴏ	cut_oei_stereo_44KHz.wav
2	103	3	4	2	I	1	0	1209	1	Ⴌ	cut_r_stereo_44KHz.wav
2	104	4	4	2	I	2	0	821	0	Ⴐ	cut_r_stereo_44KHz.wav
2	105	1	1	1	C	2	0	911	0	Ⴏ	cut_oei_stereo_44KHz.wav
2	106	2	1	0	C	2	1	704	1	Ⴖ	cut_oei_stereo_44KHz.wav
2	107	4	4	2	I	1	0	766	1	Ⴐ	cut_r_stereo_44KHz.wav
2	108	3	4	2	I	2	0	991	0	Ⴌ	cut_r_stereo_44KHz.wav
2	109	4	3	2	I	2	0	1029	1	Ⴐ	cut_ei_stereo_44KHz.wav
2	110	2	2	1	C	1	1	1008	1	Ⴖ	cut_ui_stereo_44KHz.wav
2	111	1	2	0	C	2	1	741	1	Ⴏ	cut_ui_stereo_44KHz.wav
2	112	3	3	2	I	1	0	1163	0	Ⴌ	cut_ei_stereo_44KHz.wav
2	113	2	1	0	C	2	1	736	1	Ⴖ	cut_oei_stereo_44KHz.wav
2	114	4	4	2	I	1	0	1164	1	Ⴐ	cut_r_stereo_44KHz.wav
2	115	1	1	1	C	2	0	700	0	Ⴏ	cut_oei_stereo_44KHz.wav
2	116	3	4	2	I	2	0	1434	0	Ⴌ	cut_r_stereo_44KHz.wav
2	117	4	3	2	I	2	0	1582	0	Ⴐ	cut_ei_stereo_44KHz.wav
2	118	3	3	2	I	1	0	1064	1	Ⴌ	cut_ei_stereo_44KHz.wav
2	119	1	2	0	C	2	1	1479	1	Ⴏ	cut_ui_stereo_44KHz.wav
2	120	2	2	1	C	1	1	787	1	Ⴖ	cut_ui_stereo_44KHz.wav
2	121	4	4	2	I	2	0	864	1	Ⴐ	cut_r_stereo_44KHz.wav
2	122	2	1	0	C	2	1	1027	1	Ⴖ	cut_oei_stereo_44KHz.wav
2	123	3	4	2	I	1	0	976	0	Ⴌ	cut_r_stereo_44KHz.wav
2	124	1	2	0	C	2	1	683	1	Ⴏ	cut_ui_stereo_44KHz.wav
2	125	4	3	2	I	2	0	729	0	Ⴐ	cut_ei_stereo_44KHz.wav
2	126	2	2	1	C	1	1	954	1	Ⴖ	cut_ui_stereo_44KHz.wav
2	127	1	1	1	C	2	0	733	0	Ⴏ	cut_oei_stereo_44KHz.wav
2	128	3	3	2	I	0	0	0	0	Ⴌ	cut_ei_stereo_44KHz.wav
2	129	4	3	2	I	2	0	638	0	Ⴐ	cut_ei_stereo_44KHz.wav
2	130	1	1	1	C	2	0	510	0	Ⴏ	cut_oei_stereo_44KHz.wav
2	131	3	3	2	I	2	0	779	0	Ⴌ	cut_ei_stereo_44KHz.wav
2	132	2	2	1	C	1	1	1121	1	Ⴖ	cut_ui_stereo_44KHz.wav
2	133	3	4	2	I	2	0	1120	1	Ⴌ	cut_r_stereo_44KHz.wav
2	134	4	4	2	I	1	0	1029	0	Ⴐ	cut_r_stereo_44KHz.wav
2	135	1	2	0	C	2	1	695	1	Ⴏ	cut_ui_stereo_44KHz.wav
2	136	2	1	0	C	2	1	1273	1	Ⴖ	cut_oei_stereo_44KHz.wav
2	137	3	4	2	I	2	0	998	0	Ⴌ	cut_r_stereo_44KHz.wav
2	138	4	3	2	I	2	0	933	1	Ⴐ	cut_ei_stereo_44KHz.wav
2	139	1	2	0	C	2	1	860	1	Ⴏ	cut_ui_stereo_44KHz.wav
2	140	2	2	1	C	1	1	1051	1	Ⴖ	cut_ui_stereo_44KHz.wav
2	141	3	3	2	I	1	0	1061	1	Ⴌ	cut_ei_stereo_44KHz.wav
2	142	2	1	0	C	2	1	1034	1	Ⴖ	cut_oei_stereo_44KHz.wav
2	143	1	1	1	C	2	0	681	0	Ⴏ	cut_oei_stereo_44KHz.wav
2	144	4	4	2	I	1	0	1166	1	Ⴐ	cut_r_stereo_44KHz.wav
2	145	2	1	0	C	2	1	766	1	Ⴖ	cut_oei_stereo_44KHz.wav
2	146	1	2	0	C	2	1	695	1	Ⴏ	cut_ui_stereo_44KHz.wav
2	147	4	4	2	I	1	0	993	0	Ⴐ	cut_r_stereo_44KHz.wav
2	148	3	3	2	I	1	0	1673	0	Ⴌ	cut_ei_stereo_44KHz.wav
2	149	4	3	2	I	2	0	1880	1	Ⴐ	cut_ei_stereo_44KHz.wav
2	150	3	4	2	I	2	0	1068	0	Ⴌ	cut_r_stereo_44KHz.wav
2	151	2	2	1	C	2	0	724	0	Ⴖ	cut_ui_stereo_44KHz.wav
2	152	1	1	1	C	2	0	766	0	Ⴏ	cut_oei_stereo_44KHz.wav
2	153	4	4	2	I	2	0	994	0	Ⴐ	cut_r_stereo_44KHz.wav
2	154	2	1	0	C	2	1	761	1	Ⴖ	cut_oei_stereo_44KHz.wav
2	155	1	1	1	C	2	0	777	0	Ⴏ	cut_oei_stereo_44KHz.wav
2	156	3	4	2	I	2	0	1627	1	Ⴌ	cut_r_stereo_44KHz.wav
2	157	4	3	2	I	2	0	1386	0	Ⴐ	cut_ei_stereo_44KHz.wav
2	158	2	2	1	C	1	1	1024	1	Ⴖ	cut_ui_stereo_44KHz.wav
2	159	1	2	0	C	2	1	959	1	Ⴏ	cut_ui_stereo_44KHz.wav
2	160	3	3	2	I	2	0	1374	0	Ⴌ	cut_ei_stereo_44KHz.wav
2	161	4	4	2	I	2	0	946	1	Ⴐ	cut_r_stereo_44KHz.wav
2	162	2	2	1	C	1	1	876	1	Ⴖ	cut_ui_stereo_44KHz.wav
2	163	3	4	2	I	2	0	955	0	Ⴌ	cut_r_stereo_44KHz.wav
2	164	1	2	0	C	2	1	806	1	Ⴏ	cut_ui_stereo_44KHz.wav
2	165	2	1	0	C	2	1	776	1	Ⴖ	cut_oei_stereo_44KHz.wav
2	166	4	3	2	I	1	0	1004	1	Ⴐ	cut_ei_stereo_44KHz.wav
2	167	1	1	1	C	1	1	1202	1	Ⴏ	cut_oei_stereo_44KHz.wav
2	168	3	3	2	I	2	0	1259	0	Ⴌ	cut_ei_stereo_44KHz.wav
2	169	1	2	0	C	1	0	1066	0	Ⴏ	cut_ui_stereo_44KHz.wav
2	170	2	1	0	C	2	1	569	1	Ⴖ	cut_oei_stereo_44KHz.wav
2	171	4	3	2	I	1	0	1114	0	Ⴐ	cut_ei_stereo_44KHz.wav
2	172	3	4	2	I	2	0	723	1	Ⴌ	cut_r_stereo_44KHz.wav
2	173	2	2	1	C	1	1	1054	1	Ⴖ	cut_ui_stereo_44KHz.wav
2	174	4	4	2	I	1	0	932	0	Ⴐ	cut_r_stereo_44KHz.wav
2	175	1	1	1	C	1	1	1092	1	Ⴏ	cut_oei_stereo_44KHz.wav
2	176	3	3	2	I	2	0	1170	1	Ⴌ	cut_ei_stereo_44KHz.wav
2	177	2	1	0	C	2	1	741	1	Ⴖ	cut_oei_stereo_44KHz.wav
2	178	3	4	2	I	2	0	1923	0	Ⴌ	cut_r_stereo_44KHz.wav
2	179	4	4	2	I	2	0	716	0	Ⴐ	cut_r_stereo_44KHz.wav
2	180	1	2	0	C	1	0	932	0	Ⴏ	cut_ui_stereo_44KHz.wav
2	181	2	2	1	C	1	1	1074	1	Ⴖ	cut_ui_stereo_44KHz.wav
2	182	1	1	1	C	1	1	1399	1	Ⴏ	cut_oei_stereo_44KHz.wav
2	183	4	3	2	I	2	0	892	0	Ⴐ	cut_ei_stereo_44KHz.wav
2	184	3	3	2	I	2	0	821	1	Ⴌ	cut_ei_stereo_44KHz.wav
2	185	2	2	1	C	1	1	926	1	Ⴖ	cut_ui_stereo_44KHz.wav
2	186	3	3	2	I	2	0	1854	0	Ⴌ	cut_ei_stereo_44KHz.wav
2	187	1	1	1	C	1	1	1329	1	Ⴏ	cut_oei_stereo_44KHz.wav
2	188	4	3	2	I	2	0	934	0	Ⴐ	cut_ei_stereo_44KHz.wav
2	189	2	1	0	C	2	1	833	1	Ⴖ	cut_oei_stereo_44KHz.wav
2	190	3	4	2	I	1	0	875	0	Ⴌ	cut_r_stereo_44KHz.wav
2	191	1	2	0	C	2	1	887	1	Ⴏ	cut_ui_stereo_44KHz.wav
2	192	4	4	2	I	2	0	964	0	Ⴐ	cut_r_stereo_44KHz.wav
2	193	2	1	0	C	2	1	1240	1	Ⴖ	cut_oei_stereo_44KHz.wav
2	194	4	4	2	I	2	0	1203	0	Ⴐ	cut_r_stereo_44KHz.wav
2	195	3	3	2	I	2	0	1150	0	Ⴌ	cut_ei_stereo_44KHz.wav
2	196	1	2	0	C	2	1	1106	1	Ⴏ	cut_ui_stereo_44KHz.wav
2	197	2	2	1	C	1	1	1409	1	Ⴖ	cut_ui_stereo_44KHz.wav
2	198	4	3	2	I	1	0	1009	0	Ⴐ	cut_ei_stereo_44KHz.wav
2	199	1	1	1	C	1	1	1153	1	Ⴏ	cut_oei_stereo_44KHz.wav
2	200	3	4	2	I	2	0	935	0	Ⴌ	cut_r_stereo_44KHz.wav
3	1	1	2	0	C	2	1	1356	1	Ⴂ	cut_s_stereo_44KHz.wav
3	2	4	3	2	I	1	0	1140	1	Ⴃ	cut_n_stereo_44KHz.wav
3	3	3	4	2	I	2	0	1241	1	Ⴜ	cut_j_stereo_44KHz.wav
3	4	2	1	0	C	1	0	1132	0	Ⴇ	cut_f_stereo_44KHz.wav
3	5	1	1	1	C	1	1	1032	1	Ⴂ	cut_f_stereo_44KHz.wav
3	6	2	2	1	C	1	1	1209	1	Ⴇ	cut_s_stereo_44KHz.wav
3	7	3	3	2	I	2	0	1086	0	Ⴜ	cut_n_stereo_44KHz.wav
3	8	4	4	2	I	2	0	1470	1	Ⴃ	cut_j_stereo_44KHz.wav
3	9	3	4	2	I	1	0	1796	0	Ⴜ	cut_j_stereo_44KHz.wav
3	10	1	2	0	C	2	1	806	1	Ⴂ	cut_s_stereo_44KHz.wav
3	11	4	3	2	I	1	0	1101	1	Ⴃ	cut_n_stereo_44KHz.wav
3	12	2	2	1	C	1	1	813	1	Ⴇ	cut_s_stereo_44KHz.wav
3	13	4	4	2	I	2	0	706	0	Ⴃ	cut_j_stereo_44KHz.wav
3	14	3	3	2	I	2	0	1307	0	Ⴜ	cut_n_stereo_44KHz.wav
3	15	1	1	1	C	1	1	843	1	Ⴂ	cut_f_stereo_44KHz.wav
3	16	2	1	0	C	2	1	1131	1	Ⴇ	cut_f_stereo_44KHz.wav
3	17	4	3	2	I	1	0	1167	1	Ⴃ	cut_n_stereo_44KHz.wav
3	18	1	2	0	C	2	1	1107	1	Ⴂ	cut_s_stereo_44KHz.wav
3	19	2	1	0	C	2	1	1163	1	Ⴇ	cut_f_stereo_44KHz.wav
3	20	3	3	2	I	2	0	1184	0	Ⴜ	cut_n_stereo_44KHz.wav
3	21	1	1	1	C	1	1	1573	1	Ⴂ	cut_f_stereo_44KHz.wav
3	22	2	2	1	C	1	1	1304	1	Ⴇ	cut_s_stereo_44KHz.wav
3	23	3	4	2	I	1	0	1319	1	Ⴜ	cut_j_stereo_44KHz.wav
3	24	4	4	2	I	2	0	796	0	Ⴃ	cut_j_stereo_44KHz.wav
3	25	3	3	2	I	2	0	1168	0	Ⴜ	cut_n_stereo_44KHz.wav
3	26	1	1	1	C	1	1	846	1	Ⴂ	cut_f_stereo_44KHz.wav
3	27	2	2	1	C	1	1	1293	1	Ⴇ	cut_s_stereo_44KHz.wav
3	28	4	3	2	I	1	0	1292	1	Ⴃ	cut_n_stereo_44KHz.wav
3	29	3	4	2	I	2	0	1231	1	Ⴜ	cut_j_stereo_44KHz.wav
3	30	4	4	2	I	2	0	1013	1	Ⴃ	cut_j_stereo_44KHz.wav
3	31	2	1	0	C	1	0	871	0	Ⴇ	cut_f_stereo_44KHz.wav
3	32	1	2	0	C	2	1	675	1	Ⴂ	cut_s_stereo_44KHz.wav
3	33	3	4	2	I	1	0	1100	1	Ⴜ	cut_j_stereo_44KHz.wav
3	34	1	2	0	C	2	1	697	1	Ⴂ	cut_s_stereo_44KHz.wav
3	35	4	3	2	I	1	0	1148	1	Ⴃ	cut_n_stereo_44KHz.wav
3	36	2	2	1	C	1	1	883	1	Ⴇ	cut_s_stereo_44KHz.wav
3	37	1	1	1	C	1	1	760	1	Ⴂ	cut_f_stereo_44KHz.wav
3	38	2	1	0	C	1	0	980	0	Ⴇ	cut_f_stereo_44KHz.wav
3	39	4	4	2	I	2	0	1229	1	Ⴃ	cut_j_stereo_44KHz.wav
3	40	3	3	2	I	1	0	1084	1	Ⴜ	cut_n_stereo_44KHz.wav
3	41	2	2	1	C	1	1	1070	1	Ⴇ	cut_s_stereo_44KHz.wav
3	42	1	1	1	C	1	1	742	1	Ⴂ	cut_f_stereo_44KHz.wav
3	43	4	3	2	I	1	0	862	0	Ⴃ	cut_n_stereo_44KHz.wav
3	44	3	3	2	I	2	0	1060	0	Ⴜ	cut_n_stereo_44KHz.wav
3	45	4	4	2	I	2	0	953	1	Ⴃ	cut_j_stereo_44KHz.wav
3	46	1	2	0	C	2	1	788	1	Ⴂ	cut_s_stereo_44KHz.wav
3	47	2	1	0	C	1	0	1178	0	Ⴇ	cut_f_stereo_44KHz.wav
3	48	3	4	2	I	1	0	1146	0	Ⴜ	cut_j_stereo_44KHz.wav
3	49	2	1	0	C	2	1	1041	1	Ⴇ	cut_f_stereo_44KHz.wav
3	50	4	4	2	I	2	0	668	1	Ⴃ	cut_j_stereo_44KHz.wav
3	51	1	1	1	C	1	1	886	1	Ⴂ	cut_f_stereo_44KHz.wav
3	52	3	3	2	I	2	0	934	1	Ⴜ	cut_n_stereo_44KHz.wav
3	53	1	2	0	C	2	1	1049	1	Ⴂ	cut_s_stereo_44KHz.wav
3	54	3	4	2	I	2	0	910	0	Ⴜ	cut_j_stereo_44KHz.wav
3	55	4	3	2	I	2	0	650	1	Ⴃ	cut_n_stereo_44KHz.wav
3	56	2	2	1	C	1	1	1102	1	Ⴇ	cut_s_stereo_44KHz.wav
3	57	3	4	2	I	2	0	800	1	Ⴜ	cut_j_stereo_44KHz.wav
3	58	4	4	2	I	2	0	979	0	Ⴃ	cut_j_stereo_44KHz.wav
3	59	2	1	0	C	2	1	1089	1	Ⴇ	cut_f_stereo_44KHz.wav
3	60	1	1	1	C	1	1	786	1	Ⴂ	cut_f_stereo_44KHz.wav
3	61	3	3	2	I	2	0	932	1	Ⴜ	cut_n_stereo_44KHz.wav
3	62	2	2	1	C	1	1	1103	1	Ⴇ	cut_s_stereo_44KHz.wav
3	63	4	3	2	I	2	0	1064	0	Ⴃ	cut_n_stereo_44KHz.wav
3	64	1	2	0	C	2	1	818	1	Ⴂ	cut_s_stereo_44KHz.wav
3	65	2	2	1	C	1	1	1288	1	Ⴇ	cut_s_stereo_44KHz.wav
3	66	4	4	2	I	2	0	727	1	Ⴃ	cut_j_stereo_44KHz.wav
3	67	3	3	2	I	1	0	876	1	Ⴜ	cut_n_stereo_44KHz.wav
3	68	1	2	0	C	2	1	954	1	Ⴂ	cut_s_stereo_44KHz.wav
3	69	4	3	2	I	2	0	1036	0	Ⴃ	cut_n_stereo_44KHz.wav
3	70	3	4	2	I	2	0	765	0	Ⴜ	cut_j_stereo_44KHz.wav
3	71	2	1	0	C	2	1	1189	1	Ⴇ	cut_f_stereo_44KHz.wav
3	72	1	1	1	C	1	1	731	1	Ⴂ	cut_f_stereo_44KHz.wav
3	73	4	3	2	I	2	0	867	0	Ⴃ	cut_n_stereo_44KHz.wav
3	74	2	2	1	C	1	1	968	1	Ⴇ	cut_s_stereo_44KHz.wav
3	75	3	3	2	I	1	0	834	0	Ⴜ	cut_n_stereo_44KHz.wav
3	76	1	1	1	C	1	1	827	1	Ⴂ	cut_f_stereo_44KHz.wav
3	77	3	4	2	I	2	0	886	0	Ⴜ	cut_j_stereo_44KHz.wav
3	78	4	4	2	I	2	0	795	0	Ⴃ	cut_j_stereo_44KHz.wav
3	79	1	2	0	C	2	1	696	1	Ⴂ	cut_s_stereo_44KHz.wav
3	80	2	1	0	C	2	1	1282	1	Ⴇ	cut_f_stereo_44KHz.wav
3	81	1	2	0	C	2	1	714	1	Ⴂ	cut_s_stereo_44KHz.wav
3	82	2	2	1	C	1	1	979	1	Ⴇ	cut_s_stereo_44KHz.wav
3	83	4	3	2	I	2	0	1637	1	Ⴃ	cut_n_stereo_44KHz.wav
3	84	3	3	2	I	2	0	991	1	Ⴜ	cut_n_stereo_44KHz.wav
3	85	4	4	2	I	2	0	1034	1	Ⴃ	cut_j_stereo_44KHz.wav
3	86	2	1	0	C	2	1	967	1	Ⴇ	cut_f_stereo_44KHz.wav
3	87	1	1	1	C	1	1	891	1	Ⴂ	cut_f_stereo_44KHz.wav
3	88	3	4	2	I	2	0	1024	1	Ⴜ	cut_j_stereo_44KHz.wav
3	89	2	2	1	C	1	1	951	1	Ⴇ	cut_s_stereo_44KHz.wav
3	90	4	4	2	I	1	0	1117	0	Ⴃ	cut_j_stereo_44KHz.wav
3	91	3	3	2	I	2	0	969	1	Ⴜ	cut_n_stereo_44KHz.wav
3	92	1	2	0	C	2	1	801	1	Ⴂ	cut_s_stereo_44KHz.wav
3	93	4	3	2	I	2	0	936	0	Ⴃ	cut_n_stereo_44KHz.wav
3	94	1	1	1	C	1	1	954	1	Ⴂ	cut_f_stereo_44KHz.wav
3	95	3	4	2	I	2	0	780	0	Ⴜ	cut_j_stereo_44KHz.wav
3	96	2	1	0	C	2	1	1008	1	Ⴇ	cut_f_stereo_44KHz.wav
3	97	4	3	2	I	1	0	1351	1	Ⴃ	cut_n_stereo_44KHz.wav
3	98	3	3	2	I	2	0	1080	1	Ⴜ	cut_n_stereo_44KHz.wav
3	99	2	1	0	C	2	1	1016	1	Ⴇ	cut_f_stereo_44KHz.wav
3	100	1	1	1	C	1	1	767	1	Ⴂ	cut_f_stereo_44KHz.wav
3	101	3	4	2	I	2	0	712	1	Ⴜ	cut_j_stereo_44KHz.wav
3	102	1	2	0	C	2	1	694	1	Ⴂ	cut_s_stereo_44KHz.wav
3	103	4	4	2	I	2	0	1029	0	Ⴃ	cut_j_stereo_44KHz.wav
3	104	2	2	1	C	1	1	1187	1	Ⴇ	cut_s_stereo_44KHz.wav
3	105	4	3	2	I	1	0	1308	0	Ⴃ	cut_n_stereo_44KHz.wav
3	106	2	1	0	C	2	1	1021	1	Ⴇ	cut_f_stereo_44KHz.wav
3	107	3	4	2	I	2	0	703	1	Ⴜ	cut_j_stereo_44KHz.wav
3	108	1	1	1	C	1	1	730	1	Ⴂ	cut_f_stereo_44KHz.wav
3	109	4	4	2	I	2	0	672	0	Ⴃ	cut_j_stereo_44KHz.wav
3	110	1	2	0	C	2	1	702	1	Ⴂ	cut_s_stereo_44KHz.wav
3	111	2	2	1	C	1	1	959	1	Ⴇ	cut_s_stereo_44KHz.wav
3	112	3	3	2	I	2	0	1476	1	Ⴜ	cut_n_stereo_44KHz.wav
3	113	1	1	1	C	1	1	1052	1	Ⴂ	cut_f_stereo_44KHz.wav
3	114	3	3	2	I	2	0	845	1	Ⴜ	cut_n_stereo_44KHz.wav
3	115	4	3	2	I	2	0	860	1	Ⴃ	cut_n_stereo_44KHz.wav
3	116	2	2	1	C	1	1	840	1	Ⴇ	cut_s_stereo_44KHz.wav
3	117	4	4	2	I	2	0	642	1	Ⴃ	cut_j_stereo_44KHz.wav
3	118	1	2	0	C	2	1	654	1	Ⴂ	cut_s_stereo_44KHz.wav
3	119	3	4	2	I	2	0	668	0	Ⴜ	cut_j_stereo_44KHz.wav
3	120	2	1	0	C	2	1	1452	1	Ⴇ	cut_f_stereo_44KHz.wav
3	121	4	4	2	I	2	0	700	0	Ⴃ	cut_j_stereo_44KHz.wav
3	122	1	2	0	C	2	1	745	1	Ⴂ	cut_s_stereo_44KHz.wav
3	123	2	1	0	C	2	1	958	1	Ⴇ	cut_f_stereo_44KHz.wav
3	124	3	4	2	I	2	0	756	0	Ⴜ	cut_j_stereo_44KHz.wav
3	125	1	1	1	C	1	1	1023	1	Ⴂ	cut_f_stereo_44KHz.wav
3	126	2	2	1	C	1	1	1035	1	Ⴇ	cut_s_stereo_44KHz.wav
3	127	4	3	2	I	1	0	1473	0	Ⴃ	cut_n_stereo_44KHz.wav
3	128	3	3	2	I	2	0	1194	0	Ⴜ	cut_n_stereo_44KHz.wav
3	129	1	1	1	C	1	1	755	1	Ⴂ	cut_f_stereo_44KHz.wav
3	130	3	4	2	I	2	0	719	0	Ⴜ	cut_j_stereo_44KHz.wav
3	131	4	3	2	I	2	0	1148	0	Ⴃ	cut_n_stereo_44KHz.wav
3	132	2	2	1	C	1	1	978	1	Ⴇ	cut_s_stereo_44KHz.wav
3	133	3	3	2	I	2	0	894	0	Ⴜ	cut_n_stereo_44KHz.wav
3	134	1	2	0	C	2	1	774	1	Ⴂ	cut_s_stereo_44KHz.wav
3	135	4	4	2	I	2	0	805	0	Ⴃ	cut_j_stereo_44KHz.wav
3	136	2	1	0	C	2	1	1568	1	Ⴇ	cut_f_stereo_44KHz.wav
3	137	1	2	0	C	2	1	1029	1	Ⴂ	cut_s_stereo_44KHz.wav
3	138	4	4	2	I	2	0	1248	0	Ⴃ	cut_j_stereo_44KHz.wav
3	139	2	2	1	C	1	1	1582	1	Ⴇ	cut_s_stereo_44KHz.wav
3	140	3	4	2	I	1	0	1171	1	Ⴜ	cut_j_stereo_44KHz.wav
3	141	1	1	1	C	0	0	0	0	Ⴂ	cut_f_stereo_44KHz.wav
3	142	4	3	2	I	1	0	1205	0	Ⴃ	cut_n_stereo_44KHz.wav
3	143	2	1	0	C	2	1	1752	1	Ⴇ	cut_f_stereo_44KHz.wav
3	144	3	3	2	I	2	0	768	1	Ⴜ	cut_n_stereo_44KHz.wav
3	145	4	3	2	I	2	0	1019	1	Ⴃ	cut_n_stereo_44KHz.wav
3	146	3	3	2	I	2	0	1126	0	Ⴜ	cut_n_stereo_44KHz.wav
3	147	1	2	0	C	2	1	977	1	Ⴂ	cut_s_stereo_44KHz.wav
3	148	2	1	0	C	2	1	753	1	Ⴇ	cut_f_stereo_44KHz.wav
3	149	3	4	2	I	2	0	688	0	Ⴜ	cut_j_stereo_44KHz.wav
3	150	2	2	1	C	1	1	888	1	Ⴇ	cut_s_stereo_44KHz.wav
3	151	1	1	1	C	1	1	723	1	Ⴂ	cut_f_stereo_44KHz.wav
3	152	4	4	2	I	2	0	955	1	Ⴃ	cut_j_stereo_44KHz.wav
3	153	3	3	2	I	2	0	1066	1	Ⴜ	cut_n_stereo_44KHz.wav
3	154	2	2	1	C	1	1	946	1	Ⴇ	cut_s_stereo_44KHz.wav
3	155	4	4	2	I	2	0	598	0	Ⴃ	cut_j_stereo_44KHz.wav
3	156	1	2	0	C	2	1	1144	1	Ⴂ	cut_s_stereo_44KHz.wav
3	157	2	1	0	C	2	1	994	1	Ⴇ	cut_f_stereo_44KHz.wav
3	158	1	1	1	C	1	1	1352	1	Ⴂ	cut_f_stereo_44KHz.wav
3	159	3	4	2	I	2	0	1379	0	Ⴜ	cut_j_stereo_44KHz.wav
3	160	4	3	2	I	1	0	1237	0	Ⴃ	cut_n_stereo_44KHz.wav
3	161	1	1	1	C	1	1	874	1	Ⴂ	cut_f_stereo_44KHz.wav
3	162	2	2	1	C	1	1	979	1	Ⴇ	cut_s_stereo_44KHz.wav
3	163	3	4	2	I	2	0	762	1	Ⴜ	cut_j_stereo_44KHz.wav
3	164	4	3	2	I	2	0	1562	1	Ⴃ	cut_n_stereo_44KHz.wav
3	165	1	2	0	C	2	1	711	1	Ⴂ	cut_s_stereo_44KHz.wav
3	166	4	4	2	I	2	0	699	1	Ⴃ	cut_j_stereo_44KHz.wav
3	167	2	1	0	C	2	1	926	1	Ⴇ	cut_f_stereo_44KHz.wav
3	168	3	3	2	I	2	0	1524	1	Ⴜ	cut_n_stereo_44KHz.wav
3	169	2	1	0	C	2	1	1144	1	Ⴇ	cut_f_stereo_44KHz.wav
3	170	3	3	2	I	2	0	774	0	Ⴜ	cut_n_stereo_44KHz.wav
3	171	4	4	2	I	2	0	616	0	Ⴃ	cut_j_stereo_44KHz.wav
3	172	1	1	1	C	1	1	1004	1	Ⴂ	cut_f_stereo_44KHz.wav
3	173	3	4	2	I	2	0	827	1	Ⴜ	cut_j_stereo_44KHz.wav
3	174	4	3	2	I	2	0	805	1	Ⴃ	cut_n_stereo_44KHz.wav
3	175	2	2	1	C	1	1	1045	1	Ⴇ	cut_s_stereo_44KHz.wav
3	176	1	2	0	C	2	1	697	1	Ⴂ	cut_s_stereo_44KHz.wav
3	177	2	1	0	C	2	1	1033	1	Ⴇ	cut_f_stereo_44KHz.wav
3	178	1	1	1	C	1	1	984	1	Ⴂ	cut_f_stereo_44KHz.wav
3	179	3	3	2	I	2	0	1639	0	Ⴜ	cut_n_stereo_44KHz.wav
3	180	4	4	2	I	2	0	828	0	Ⴃ	cut_j_stereo_44KHz.wav
3	181	2	2	1	C	1	1	840	1	Ⴇ	cut_s_stereo_44KHz.wav
3	182	4	3	2	I	2	0	778	1	Ⴃ	cut_n_stereo_44KHz.wav
3	183	1	2	0	C	2	1	869	1	Ⴂ	cut_s_stereo_44KHz.wav
3	184	3	4	2	I	2	0	1141	0	Ⴜ	cut_j_stereo_44KHz.wav
3	185	4	3	2	I	2	0	659	0	Ⴃ	cut_n_stereo_44KHz.wav
3	186	2	1	0	C	2	1	951	1	Ⴇ	cut_f_stereo_44KHz.wav
3	187	1	1	1	C	1	1	853	1	Ⴂ	cut_f_stereo_44KHz.wav
3	188	3	4	2	I	2	0	870	1	Ⴜ	cut_j_stereo_44KHz.wav
3	189	1	2	0	C	2	1	766	1	Ⴂ	cut_s_stereo_44KHz.wav
3	190	2	2	1	C	1	1	1062	1	Ⴇ	cut_s_stereo_44KHz.wav
3	191	3	3	2	I	2	0	815	0	Ⴜ	cut_n_stereo_44KHz.wav
3	192	4	4	2	I	2	0	702	0	Ⴃ	cut_j_stereo_44KHz.wav
3	193	3	3	2	I	2	0	901	1	Ⴜ	cut_n_stereo_44KHz.wav
3	194	2	2	1	C	1	1	911	1	Ⴇ	cut_s_stereo_44KHz.wav
3	195	4	4	2	I	2	0	685	1	Ⴃ	cut_j_stereo_44KHz.wav
3	196	1	1	1	C	1	1	1269	1	Ⴂ	cut_f_stereo_44KHz.wav
3	197	2	1	0	C	1	0	1297	0	Ⴇ	cut_f_stereo_44KHz.wav
3	198	4	3	2	I	2	0	772	1	Ⴃ	cut_n_stereo_44KHz.wav
3	199	1	2	0	C	2	1	892	1	Ⴂ	cut_s_stereo_44KHz.wav
3	200	3	4	2	I	2	0	818	0	Ⴜ	cut_j_stereo_44KHz.wav
4	1	1	2	0	C	1	0	1841	0	Ⴡ	cut_g_stereo_44KHz.wav
4	2	3	3	2	I	2	0	855	1	Ⴊ	cut_l_stereo_44KHz.wav
4	3	2	1	0	C	2	1	479	1	Ⴟ	cut_w_stereo_44KHz.wav
4	4	4	3	2	I	2	0	858	0	Ⴁ	cut_l_stereo_44KHz.wav
4	5	3	4	2	I	2	0	967	1	Ⴊ	cut_h_stereo_44KHz.wav
4	6	4	4	2	I	1	0	1452	0	Ⴁ	cut_h_stereo_44KHz.wav
4	7	1	1	1	C	2	0	1194	0	Ⴡ	cut_w_stereo_44KHz.wav
4	8	2	2	1	C	2	0	983	0	Ⴟ	cut_g_stereo_44KHz.wav
4	9	3	3	2	I	2	0	923	0	Ⴊ	cut_l_stereo_44KHz.wav
4	10	4	4	2	I	2	0	1112	0	Ⴁ	cut_h_stereo_44KHz.wav
4	11	2	2	1	C	1	1	934	1	Ⴟ	cut_g_stereo_44KHz.wav
4	12	1	1	1	C	1	1	1113	1	Ⴡ	cut_w_stereo_44KHz.wav
4	13	2	1	0	C	2	1	1129	1	Ⴟ	cut_w_stereo_44KHz.wav
4	14	1	2	0	C	1	0	894	0	Ⴡ	cut_g_stereo_44KHz.wav
4	15	3	4	2	I	2	0	848	1	Ⴊ	cut_h_stereo_44KHz.wav
4	16	4	3	2	I	1	0	1162	1	Ⴁ	cut_l_stereo_44KHz.wav
4	17	2	2	1	C	1	1	1044	1	Ⴟ	cut_g_stereo_44KHz.wav
4	18	1	2	0	C	2	1	981	1	Ⴡ	cut_g_stereo_44KHz.wav
4	19	4	4	2	I	1	0	939	1	Ⴁ	cut_h_stereo_44KHz.wav
4	20	3	4	2	I	1	0	1011	1	Ⴊ	cut_h_stereo_44KHz.wav
4	21	1	1	1	C	1	1	1063	1	Ⴡ	cut_w_stereo_44KHz.wav
4	22	4	3	2	I	2	0	1308	0	Ⴁ	cut_l_stereo_44KHz.wav
4	23	2	1	0	C	2	1	815	1	Ⴟ	cut_w_stereo_44KHz.wav
4	24	3	3	2	I	1	0	803	0	Ⴊ	cut_l_stereo_44KHz.wav
4	25	4	3	2	I	2	0	1172	1	Ⴁ	cut_l_stereo_44KHz.wav
4	26	3	4	2	I	2	0	854	0	Ⴊ	cut_h_stereo_44KHz.wav
4	27	2	2	1	C	1	1	909	1	Ⴟ	cut_g_stereo_44KHz.wav
4	28	1	2	0	C	2	1	753	1	Ⴡ	cut_g_stereo_44KHz.wav
4	29	3	3	2	I	2	0	1375	1	Ⴊ	cut_l_stereo_44KHz.wav
4	30	4	4	2	I	1	0	1736	1	Ⴁ	cut_h_stereo_44KHz.wav
4	31	1	1	1	C	1	1	955	1	Ⴡ	cut_w_stereo_44KHz.wav
4	32	2	1	0	C	2	1	999	1	Ⴟ	cut_w_stereo_44KHz.wav
4	33	3	3	2	I	2	0	750	1	Ⴊ	cut_l_stereo_44KHz.wav
4	34	4	3	2	I	1	0	702	0	Ⴁ	cut_l_stereo_44KHz.wav
4	35	2	1	0	C	2	1	633	1	Ⴟ	cut_w_stereo_44KHz.wav
4	36	1	2	0	C	2	1	660	1	Ⴡ	cut_g_stereo_44KHz.wav
4	37	4	4	2	I	1	0	818	1	Ⴁ	cut_h_stereo_44KHz.wav
4	38	1	1	1	C	2	0	1166	0	Ⴡ	cut_w_stereo_44KHz.wav
4	39	3	4	2	I	1	0	902	0	Ⴊ	cut_h_stereo_44KHz.wav
4	40	2	2	1	C	1	1	946	1	Ⴟ	cut_g_stereo_44KHz.wav
4	41	3	3	2	I	1	0	779	0	Ⴊ	cut_l_stereo_44KHz.wav
4	42	4	3	2	I	2	0	1100	0	Ⴁ	cut_l_stereo_44KHz.wav
4	43	2	2	1	C	2	0	689	0	Ⴟ	cut_g_stereo_44KHz.wav
4	44	1	1	1	C	2	0	1126	0	Ⴡ	cut_w_stereo_44KHz.wav
4	45	3	4	2	I	1	0	790	0	Ⴊ	cut_h_stereo_44KHz.wav
4	46	4	4	2	I	2	0	949	0	Ⴁ	cut_h_stereo_44KHz.wav
4	47	2	1	0	C	2	1	749	1	Ⴟ	cut_w_stereo_44KHz.wav
4	48	1	2	0	C	2	1	582	1	Ⴡ	cut_g_stereo_44KHz.wav
4	49	4	3	2	I	2	0	1100	0	Ⴁ	cut_l_stereo_44KHz.wav
4	50	2	2	1	C	1	1	1106	1	Ⴟ	cut_g_stereo_44KHz.wav
4	51	1	1	1	C	2	0	919	0	Ⴡ	cut_w_stereo_44KHz.wav
4	52	3	3	2	I	1	0	1085	1	Ⴊ	cut_l_stereo_44KHz.wav
4	53	2	1	0	C	2	1	660	1	Ⴟ	cut_w_stereo_44KHz.wav
4	54	4	4	2	I	1	0	1262	0	Ⴁ	cut_h_stereo_44KHz.wav
4	55	1	2	0	C	2	1	1596	1	Ⴡ	cut_g_stereo_44KHz.wav
4	56	3	4	2	I	1	0	909	1	Ⴊ	cut_h_stereo_44KHz.wav
4	57	1	1	1	C	2	0	1018	0	Ⴡ	cut_w_stereo_44KHz.wav
4	58	4	4	2	I	1	0	1478	1	Ⴁ	cut_h_stereo_44KHz.wav
4	59	3	4	2	I	1	0	701	0	Ⴊ	cut_h_stereo_44KHz.wav
4	60	2	1	0	C	2	1	694	1	Ⴟ	cut_w_stereo_44KHz.wav
4	61	4	3	2	I	2	0	1186	0	Ⴁ	cut_l_stereo_44KHz.wav
4	62	2	2	1	C	1	1	960	1	Ⴟ	cut_g_stereo_44KHz.wav
4	63	1	2	0	C	2	1	1061	1	Ⴡ	cut_g_stereo_44KHz.wav
4	64	3	3	2	I	1	0	1047	0	Ⴊ	cut_l_stereo_44KHz.wav
4	65	4	3	2	I	1	0	922	0	Ⴁ	cut_l_stereo_44KHz.wav
4	66	1	1	1	C	1	1	1394	1	Ⴡ	cut_w_stereo_44KHz.wav
4	67	3	3	2	I	2	0	949	0	Ⴊ	cut_l_stereo_44KHz.wav
4	68	2	2	1	C	1	1	842	1	Ⴟ	cut_g_stereo_44KHz.wav
4	69	4	4	2	I	2	0	1713	0	Ⴁ	cut_h_stereo_44KHz.wav
4	70	2	1	0	C	2	1	753	1	Ⴟ	cut_w_stereo_44KHz.wav
4	71	3	4	2	I	2	0	983	1	Ⴊ	cut_h_stereo_44KHz.wav
4	72	1	2	0	C	2	1	930	1	Ⴡ	cut_g_stereo_44KHz.wav
4	73	3	4	2	I	2	0	968	1	Ⴊ	cut_h_stereo_44KHz.wav
4	74	4	3	2	I	1	0	898	1	Ⴁ	cut_l_stereo_44KHz.wav
4	75	2	2	1	C	1	1	876	1	Ⴟ	cut_g_stereo_44KHz.wav
4	76	1	1	1	C	2	0	982	0	Ⴡ	cut_w_stereo_44KHz.wav
4	77	4	4	2	I	1	0	899	1	Ⴁ	cut_h_stereo_44KHz.wav
4	78	2	1	0	C	2	1	982	1	Ⴟ	cut_w_stereo_44KHz.wav
4	79	3	3	2	I	1	0	1539	1	Ⴊ	cut_l_stereo_44KHz.wav
4	80	1	2	0	C	2	1	1004	1	Ⴡ	cut_g_stereo_44KHz.wav
4	81	3	3	2	I	1	0	1087	1	Ⴊ	cut_l_stereo_44KHz.wav
4	82	4	3	2	I	1	0	801	0	Ⴁ	cut_l_stereo_44KHz.wav
4	83	2	2	1	C	2	0	992	0	Ⴟ	cut_g_stereo_44KHz.wav
4	84	1	1	1	C	1	1	1184	1	Ⴡ	cut_w_stereo_44KHz.wav
4	85	3	4	2	I	2	0	1038	0	Ⴊ	cut_h_stereo_44KHz.wav
4	86	4	4	2	I	1	0	921	1	Ⴁ	cut_h_stereo_44KHz.wav
4	87	1	2	0	C	2	1	940	1	Ⴡ	cut_g_stereo_44KHz.wav
4	88	2	1	0	C	2	1	551	1	Ⴟ	cut_w_stereo_44KHz.wav
4	89	4	4	2	I	1	0	1465	1	Ⴁ	cut_h_stereo_44KHz.wav
4	90	2	2	1	C	1	1	831	1	Ⴟ	cut_g_stereo_44KHz.wav
4	91	1	2	0	C	2	1	1117	1	Ⴡ	cut_g_stereo_44KHz.wav
4	92	3	4	2	I	1	0	1504	1	Ⴊ	cut_h_stereo_44KHz.wav
4	93	2	1	0	C	2	1	779	1	Ⴟ	cut_w_stereo_44KHz.wav
4	94	3	3	2	I	1	0	1742	0	Ⴊ	cut_l_stereo_44KHz.wav
4	95	4	3	2	I	1	0	862	0	Ⴁ	cut_l_stereo_44KHz.wav
4	96	1	1	1	C	1	1	1086	1	Ⴡ	cut_w_stereo_44KHz.wav
4	97	3	4	2	I	1	0	930	1	Ⴊ	cut_h_stereo_44KHz.wav
4	98	4	4	2	I	2	0	713	0	Ⴁ	cut_h_stereo_44KHz.wav
4	99	1	2	0	C	2	1	838	1	Ⴡ	cut_g_stereo_44KHz.wav
4	100	2	1	0	C	2	1	542	1	Ⴟ	cut_w_stereo_44KHz.wav
4	101	1	1	1	C	2	0	833	0	Ⴡ	cut_w_stereo_44KHz.wav
4	102	4	3	2	I	1	0	734	0	Ⴁ	cut_l_stereo_44KHz.wav
4	103	3	3	2	I	2	0	813	1	Ⴊ	cut_l_stereo_44KHz.wav
4	104	2	2	1	C	1	1	849	1	Ⴟ	cut_g_stereo_44KHz.wav
4	105	1	2	0	C	2	1	1171	1	Ⴡ	cut_g_stereo_44KHz.wav
4	106	3	3	2	I	2	0	1016	1	Ⴊ	cut_l_stereo_44KHz.wav
4	107	4	4	2	I	1	0	1708	0	Ⴁ	cut_h_stereo_44KHz.wav
4	108	2	1	0	C	2	1	628	1	Ⴟ	cut_w_stereo_44KHz.wav
4	109	4	3	2	I	1	0	815	0	Ⴁ	cut_l_stereo_44KHz.wav
4	110	3	4	2	I	2	0	721	0	Ⴊ	cut_h_stereo_44KHz.wav
4	111	1	1	1	C	1	1	1217	1	Ⴡ	cut_w_stereo_44KHz.wav
4	112	2	2	1	C	1	1	995	1	Ⴟ	cut_g_stereo_44KHz.wav
4	113	4	4	2	I	2	0	798	1	Ⴁ	cut_h_stereo_44KHz.wav
4	114	2	1	0	C	2	1	599	1	Ⴟ	cut_w_stereo_44KHz.wav
4	115	3	4	2	I	1	0	793	1	Ⴊ	cut_h_stereo_44KHz.wav
4	116	1	1	1	C	1	1	930	1	Ⴡ	cut_w_stereo_44KHz.wav
4	117	4	3	2	I	1	0	1404	0	Ⴁ	cut_l_stereo_44KHz.wav
4	118	3	3	2	I	2	0	678	0	Ⴊ	cut_l_stereo_44KHz.wav
4	119	2	2	1	C	1	1	774	1	Ⴟ	cut_g_stereo_44KHz.wav
4	120	1	2	0	C	2	1	829	1	Ⴡ	cut_g_stereo_44KHz.wav
4	121	4	3	2	I	1	0	1480	1	Ⴁ	cut_l_stereo_44KHz.wav
4	122	1	2	0	C	2	1	1093	1	Ⴡ	cut_g_stereo_44KHz.wav
4	123	3	3	2	I	2	0	1349	0	Ⴊ	cut_l_stereo_44KHz.wav
4	124	2	2	1	C	1	1	1346	1	Ⴟ	cut_g_stereo_44KHz.wav
4	125	4	4	2	I	2	0	982	1	Ⴁ	cut_h_stereo_44KHz.wav
4	126	3	4	2	I	2	0	790	0	Ⴊ	cut_h_stereo_44KHz.wav
4	127	1	1	1	C	1	1	899	1	Ⴡ	cut_w_stereo_44KHz.wav
4	128	2	1	0	C	2	1	741	1	Ⴟ	cut_w_stereo_44KHz.wav
4	129	4	3	2	I	1	0	1041	1	Ⴁ	cut_l_stereo_44KHz.wav
4	130	3	4	2	I	1	0	1594	1	Ⴊ	cut_h_stereo_44KHz.wav
4	131	1	2	0	C	2	1	1436	1	Ⴡ	cut_g_stereo_44KHz.wav
4	132	2	2	1	C	1	1	974	1	Ⴟ	cut_g_stereo_44KHz.wav
4	133	4	4	2	I	2	0	1184	1	Ⴁ	cut_h_stereo_44KHz.wav
4	134	1	1	1	C	1	1	969	1	Ⴡ	cut_w_stereo_44KHz.wav
4	135	3	3	2	I	1	0	948	1	Ⴊ	cut_l_stereo_44KHz.wav
4	136	2	1	0	C	2	1	780	1	Ⴟ	cut_w_stereo_44KHz.wav
4	137	1	1	1	C	1	1	1159	1	Ⴡ	cut_w_stereo_44KHz.wav
4	138	2	1	0	C	2	1	554	1	Ⴟ	cut_w_stereo_44KHz.wav
4	139	3	4	2	I	0	0	0	0	Ⴊ	cut_h_stereo_44KHz.wav
4	140	4	4	2	I	2	0	656	1	Ⴁ	cut_h_stereo_44KHz.wav
4	141	1	2	0	C	2	1	811	1	Ⴡ	cut_g_stereo_44KHz.wav
4	142	4	3	2	I	1	0	1002	0	Ⴁ	cut_l_stereo_44KHz.wav
4	143	2	2	1	C	1	1	762	1	Ⴟ	cut_g_stereo_44KHz.wav
4	144	3	3	2	I	1	0	902	1	Ⴊ	cut_l_stereo_44KHz.wav
4	145	2	1	0	C	2	1	629	1	Ⴟ	cut_w_stereo_44KHz.wav
4	146	4	3	2	I	2	0	1624	0	Ⴁ	cut_l_stereo_44KHz.wav
4	147	3	4	2	I	1	0	1057	0	Ⴊ	cut_h_stereo_44KHz.wav
4	148	1	2	0	C	2	1	793	1	Ⴡ	cut_g_stereo_44KHz.wav
4	149	4	4	2	I	1	0	819	0	Ⴁ	cut_h_stereo_44KHz.wav
4	150	1	1	1	C	1	1	863	1	Ⴡ	cut_w_stereo_44KHz.wav
4	151	3	3	2	I	1	0	726	0	Ⴊ	cut_l_stereo_44KHz.wav
4	152	2	2	1	C	1	1	858	1	Ⴟ	cut_g_stereo_44KHz.wav
4	153	4	4	2	I	1	0	715	1	Ⴁ	cut_h_stereo_44KHz.wav
4	154	2	2	1	C	1	1	1252	1	Ⴟ	cut_g_stereo_44KHz.wav
4	155	3	4	2	I	2	0	682	0	Ⴊ	cut_h_stereo_44KHz.wav
4	156	1	2	0	C	2	1	894	1	Ⴡ	cut_g_stereo_44KHz.wav
4	157	4	3	2	I	1	0	872	0	Ⴁ	cut_l_stereo_44KHz.wav
4	158	3	3	2	I	2	0	913	0	Ⴊ	cut_l_stereo_44KHz.wav
4	159	1	1	1	C	1	1	973	1	Ⴡ	cut_w_stereo_44KHz.wav
4	160	2	1	0	C	2	1	695	1	Ⴟ	cut_w_stereo_44KHz.wav
4	161	3	3	2	I	1	0	1075	0	Ⴊ	cut_l_stereo_44KHz.wav
4	162	2	1	0	C	2	1	712	1	Ⴟ	cut_w_stereo_44KHz.wav
4	163	4	3	2	I	2	0	898	1	Ⴁ	cut_l_stereo_44KHz.wav
4	164	1	2	0	C	2	1	881	1	Ⴡ	cut_g_stereo_44KHz.wav
4	165	4	4	2	I	1	0	948	1	Ⴁ	cut_h_stereo_44KHz.wav
4	166	2	2	1	C	2	0	570	0	Ⴟ	cut_g_stereo_44KHz.wav
4	167	3	4	2	I	2	0	958	1	Ⴊ	cut_h_stereo_44KHz.wav
4	168	1	1	1	C	1	1	826	1	Ⴡ	cut_w_stereo_44KHz.wav
4	169	2	2	1	C	2	0	534	0	Ⴟ	cut_g_stereo_44KHz.wav
4	170	1	1	1	C	1	1	1260	1	Ⴡ	cut_w_stereo_44KHz.wav
4	171	4	3	2	I	1	0	1087	1	Ⴁ	cut_l_stereo_44KHz.wav
4	172	3	4	2	I	1	0	752	0	Ⴊ	cut_h_stereo_44KHz.wav
4	173	1	2	0	C	2	1	1242	1	Ⴡ	cut_g_stereo_44KHz.wav
4	174	3	3	2	I	1	0	743	0	Ⴊ	cut_l_stereo_44KHz.wav
4	175	2	1	0	C	2	1	831	1	Ⴟ	cut_w_stereo_44KHz.wav
4	176	4	4	2	I	2	0	804	1	Ⴁ	cut_h_stereo_44KHz.wav
4	177	2	1	0	C	2	1	857	1	Ⴟ	cut_w_stereo_44KHz.wav
4	178	4	3	2	I	1	0	976	0	Ⴁ	cut_l_stereo_44KHz.wav
4	179	3	3	2	I	2	0	738	1	Ⴊ	cut_l_stereo_44KHz.wav
4	180	1	2	0	C	2	1	722	1	Ⴡ	cut_g_stereo_44KHz.wav
4	181	4	4	2	I	2	0	1090	1	Ⴁ	cut_h_stereo_44KHz.wav
4	182	1	1	1	C	1	1	1075	1	Ⴡ	cut_w_stereo_44KHz.wav
4	183	2	2	1	C	1	1	927	1	Ⴟ	cut_g_stereo_44KHz.wav
4	184	3	4	2	I	1	0	1265	0	Ⴊ	cut_h_stereo_44KHz.wav
4	185	2	2	1	C	1	1	1241	1	Ⴟ	cut_g_stereo_44KHz.wav
4	186	1	2	0	C	2	1	971	1	Ⴡ	cut_g_stereo_44KHz.wav
4	187	4	3	2	I	1	0	1802	0	Ⴁ	cut_l_stereo_44KHz.wav
4	188	3	4	2	I	1	0	901	0	Ⴊ	cut_h_stereo_44KHz.wav
4	189	4	4	2	I	2	0	703	1	Ⴁ	cut_h_stereo_44KHz.wav
4	190	1	1	1	C	1	1	1174	1	Ⴡ	cut_w_stereo_44KHz.wav
4	191	2	1	0	C	2	1	735	1	Ⴟ	cut_w_stereo_44KHz.wav
4	192	3	3	2	I	1	0	804	1	Ⴊ	cut_l_stereo_44KHz.wav
4	193	1	2	0	C	2	1	1300	1	Ⴡ	cut_g_stereo_44KHz.wav
4	194	2	1	0	C	2	1	925	1	Ⴟ	cut_w_stereo_44KHz.wav
4	195	4	3	2	I	2	0	973	1	Ⴁ	cut_l_stereo_44KHz.wav
4	196	3	4	2	I	2	0	967	0	Ⴊ	cut_h_stereo_44KHz.wav
4	197	2	2	1	C	1	1	800	1	Ⴟ	cut_g_stereo_44KHz.wav
4	198	4	4	2	I	2	0	851	1	Ⴁ	cut_h_stereo_44KHz.wav
4	199	3	3	2	I	1	0	1134	1	Ⴊ	cut_l_stereo_44KHz.wav
4	200	1	1	1	C	1	1	963	1	Ⴡ	cut_w_stereo_44KHz.wav
