block	trial	Vstim	Astim	match	C/I	resp	result	RT	fb	V-file	A-file
LR

0	1	2	4	0	C	0	0	0	0	Ⴞ	cut_ee_stereo_44KHz.wav
0	2	1	2	0	C	2	0	1070	0	Ⴉ	cut_eeuw_stereo_44KHz.wav
0	3	2	3	1	C	0	0	0	0	Ⴞ	cut_g_stereo_44KHz.wav
0	4	1	1	1	C	2	1	55	1	Ⴉ	cut_oo_stereo_44KHz.wav
0	5	1	2	0	C	2	0	212	0	Ⴉ	cut_eeuw_stereo_44KHz.wav
0	6	2	4	0	C	2	0	1363	0	Ⴞ	cut_ee_stereo_44KHz.wav
0	7	2	3	1	C	2	1	874	1	Ⴞ	cut_g_stereo_44KHz.wav
0	8	1	1	1	C	1	0	447	0	Ⴉ	cut_oo_stereo_44KHz.wav
0	9	1	1	1	C	2	1	802	1	Ⴉ	cut_oo_stereo_44KHz.wav
0	10	1	2	0	C	2	0	437	0	Ⴉ	cut_eeuw_stereo_44KHz.wav
0	11	2	3	1	C	2	1	351	1	Ⴞ	cut_g_stereo_44KHz.wav
0	12	2	4	0	C	1	1	295	1	Ⴞ	cut_ee_stereo_44KHz.wav
0	13	2	4	0	C	1	1	539	1	Ⴞ	cut_ee_stereo_44KHz.wav
0	14	1	1	1	C	1	0	388	0	Ⴉ	cut_oo_stereo_44KHz.wav
0	15	2	3	1	C	2	1	446	1	Ⴞ	cut_g_stereo_44KHz.wav
0	16	1	2	0	C	2	0	372	0	Ⴉ	cut_eeuw_stereo_44KHz.wav
0	17	1	1	1	C	1	0	537	0	Ⴉ	cut_oo_stereo_44KHz.wav
0	18	2	3	1	C	1	0	668	0	Ⴞ	cut_g_stereo_44KHz.wav
0	19	1	2	0	C	1	1	578	1	Ⴉ	cut_eeuw_stereo_44KHz.wav
0	20	2	4	0	C	2	0	750	0	Ⴞ	cut_ee_stereo_44KHz.wav
0	21	1	2	0	C	1	1	473	1	Ⴉ	cut_eeuw_stereo_44KHz.wav
0	22	2	4	0	C	1	1	399	1	Ⴞ	cut_ee_stereo_44KHz.wav
0	23	1	1	1	C	2	1	574	1	Ⴉ	cut_oo_stereo_44KHz.wav
0	24	2	3	1	C	1	0	399	0	Ⴞ	cut_g_stereo_44KHz.wav
0	25	2	3	1	C	1	0	648	0	Ⴞ	cut_g_stereo_44KHz.wav
0	26	1	2	0	C	1	1	501	1	Ⴉ	cut_eeuw_stereo_44KHz.wav
0	27	2	4	0	C	2	0	625	0	Ⴞ	cut_ee_stereo_44KHz.wav
0	28	1	1	1	C	1	0	576	0	Ⴉ	cut_oo_stereo_44KHz.wav
0	29	1	2	0	C	2	0	989	0	Ⴉ	cut_eeuw_stereo_44KHz.wav
0	30	1	1	1	C	1	0	1155	0	Ⴉ	cut_oo_stereo_44KHz.wav
avg_resp = 491
1	1	1	2	0	C	1	1	1161	1	Ⴒ	cut_l_stereo_44KHz.wav
1	2	4	3	2	I	2	0	656	1	Ⴉ	cut_w_stereo_44KHz.wav
1	3	2	1	0	C	2	0	1400	0	Ⴏ	cut_h_stereo_44KHz.wav
1	4	3	3	2	I	1	0	818	0	Ⴔ	cut_w_stereo_44KHz.wav
1	5	1	1	1	C	1	0	717	0	Ⴒ	cut_h_stereo_44KHz.wav
1	6	3	4	2	I	1	0	1190	0	Ⴔ	cut_g_stereo_44KHz.wav
1	7	4	4	2	I	1	0	1050	0	Ⴉ	cut_g_stereo_44KHz.wav
1	8	2	2	1	C	2	1	1060	1	Ⴏ	cut_l_stereo_44KHz.wav
1	9	1	1	1	C	2	1	939	1	Ⴒ	cut_h_stereo_44KHz.wav
1	10	4	4	2	I	2	0	853	1	Ⴉ	cut_g_stereo_44KHz.wav
1	11	2	2	1	C	2	1	894	1	Ⴏ	cut_l_stereo_44KHz.wav
1	12	3	3	2	I	1	0	829	0	Ⴔ	cut_w_stereo_44KHz.wav
1	13	1	2	0	C	1	1	504	1	Ⴒ	cut_l_stereo_44KHz.wav
1	14	4	3	2	I	1	0	923	1	Ⴉ	cut_w_stereo_44KHz.wav
1	15	2	1	0	C	1	1	813	1	Ⴏ	cut_h_stereo_44KHz.wav
1	16	3	4	2	I	2	0	1170	1	Ⴔ	cut_g_stereo_44KHz.wav
1	17	2	2	1	C	2	1	838	1	Ⴏ	cut_l_stereo_44KHz.wav
1	18	4	3	2	I	1	0	628	0	Ⴉ	cut_w_stereo_44KHz.wav
1	19	1	2	0	C	1	1	421	1	Ⴒ	cut_l_stereo_44KHz.wav
1	20	3	3	2	I	2	0	627	0	Ⴔ	cut_w_stereo_44KHz.wav
1	21	2	1	0	C	1	1	753	1	Ⴏ	cut_h_stereo_44KHz.wav
1	22	4	4	2	I	2	0	853	0	Ⴉ	cut_g_stereo_44KHz.wav
1	23	1	1	1	C	2	1	812	1	Ⴒ	cut_h_stereo_44KHz.wav
1	24	3	4	2	I	2	0	908	0	Ⴔ	cut_g_stereo_44KHz.wav
1	25	1	2	0	C	1	1	557	1	Ⴒ	cut_l_stereo_44KHz.wav
1	26	4	4	2	I	2	0	908	1	Ⴉ	cut_g_stereo_44KHz.wav
1	27	3	3	2	I	2	0	997	0	Ⴔ	cut_w_stereo_44KHz.wav
1	28	2	2	1	C	2	1	895	1	Ⴏ	cut_l_stereo_44KHz.wav
1	29	4	3	2	I	1	0	770	0	Ⴉ	cut_w_stereo_44KHz.wav
1	30	1	1	1	C	2	1	633	1	Ⴒ	cut_h_stereo_44KHz.wav
1	31	3	4	2	I	2	0	757	1	Ⴔ	cut_g_stereo_44KHz.wav
1	32	2	1	0	C	1	1	933	1	Ⴏ	cut_h_stereo_44KHz.wav
1	33	3	4	2	I	1	0	1004	0	Ⴔ	cut_g_stereo_44KHz.wav
1	34	2	2	1	C	2	1	726	1	Ⴏ	cut_l_stereo_44KHz.wav
1	35	4	3	2	I	1	0	793	1	Ⴉ	cut_w_stereo_44KHz.wav
1	36	1	2	0	C	1	1	549	1	Ⴒ	cut_l_stereo_44KHz.wav
1	37	3	3	2	I	1	0	1083	1	Ⴔ	cut_w_stereo_44KHz.wav
1	38	2	1	0	C	1	1	735	1	Ⴏ	cut_h_stereo_44KHz.wav
1	39	1	1	1	C	2	1	649	1	Ⴒ	cut_h_stereo_44KHz.wav
1	40	4	4	2	I	1	0	957	1	Ⴉ	cut_g_stereo_44KHz.wav
1	41	3	4	2	I	1	0	985	1	Ⴔ	cut_g_stereo_44KHz.wav
1	42	2	1	0	C	1	1	559	1	Ⴏ	cut_h_stereo_44KHz.wav
1	43	4	3	2	I	1	0	870	0	Ⴉ	cut_w_stereo_44KHz.wav
1	44	1	2	0	C	1	1	534	1	Ⴒ	cut_l_stereo_44KHz.wav
1	45	2	2	1	C	2	1	782	1	Ⴏ	cut_l_stereo_44KHz.wav
1	46	4	4	2	I	1	0	932	0	Ⴉ	cut_g_stereo_44KHz.wav
1	47	3	3	2	I	1	0	1058	0	Ⴔ	cut_w_stereo_44KHz.wav
1	48	1	1	1	C	2	1	638	1	Ⴒ	cut_h_stereo_44KHz.wav
1	49	3	4	2	I	1	0	902	1	Ⴔ	cut_g_stereo_44KHz.wav
1	50	4	4	2	I	1	0	769	1	Ⴉ	cut_g_stereo_44KHz.wav
1	51	1	2	0	C	1	1	533	1	Ⴒ	cut_l_stereo_44KHz.wav
1	52	2	1	0	C	1	1	611	1	Ⴏ	cut_h_stereo_44KHz.wav
1	53	4	3	2	I	1	0	714	0	Ⴉ	cut_w_stereo_44KHz.wav
1	54	1	1	1	C	2	1	681	1	Ⴒ	cut_h_stereo_44KHz.wav
1	55	2	2	1	C	2	1	869	1	Ⴏ	cut_l_stereo_44KHz.wav
1	56	3	3	2	I	1	0	1489	0	Ⴔ	cut_w_stereo_44KHz.wav
1	57	2	1	0	C	1	1	617	1	Ⴏ	cut_h_stereo_44KHz.wav
1	58	1	1	1	C	2	1	731	1	Ⴒ	cut_h_stereo_44KHz.wav
1	59	4	3	2	I	2	0	1213	1	Ⴉ	cut_w_stereo_44KHz.wav
1	60	3	3	2	I	2	0	1354	0	Ⴔ	cut_w_stereo_44KHz.wav
1	61	1	2	0	C	1	1	601	1	Ⴒ	cut_l_stereo_44KHz.wav
1	62	2	2	1	C	2	1	987	1	Ⴏ	cut_l_stereo_44KHz.wav
1	63	4	4	2	I	1	0	1376	1	Ⴉ	cut_g_stereo_44KHz.wav
1	64	3	4	2	I	2	0	899	1	Ⴔ	cut_g_stereo_44KHz.wav
1	65	4	4	2	I	2	0	832	1	Ⴉ	cut_g_stereo_44KHz.wav
1	66	1	1	1	C	2	1	700	1	Ⴒ	cut_h_stereo_44KHz.wav
1	67	3	4	2	I	1	0	1080	0	Ⴔ	cut_g_stereo_44KHz.wav
1	68	2	1	0	C	1	1	797	1	Ⴏ	cut_h_stereo_44KHz.wav
1	69	1	2	0	C	1	1	676	1	Ⴒ	cut_l_stereo_44KHz.wav
1	70	4	3	2	I	1	0	802	1	Ⴉ	cut_w_stereo_44KHz.wav
1	71	2	2	1	C	2	1	758	1	Ⴏ	cut_l_stereo_44KHz.wav
1	72	3	3	2	I	1	0	713	1	Ⴔ	cut_w_stereo_44KHz.wav
1	73	1	1	1	C	2	1	659	1	Ⴒ	cut_h_stereo_44KHz.wav
1	74	3	3	2	I	2	0	1050	0	Ⴔ	cut_w_stereo_44KHz.wav
1	75	2	1	0	C	1	1	686	1	Ⴏ	cut_h_stereo_44KHz.wav
1	76	4	3	2	I	2	0	911	1	Ⴉ	cut_w_stereo_44KHz.wav
1	77	3	4	2	I	1	0	1344	0	Ⴔ	cut_g_stereo_44KHz.wav
1	78	1	2	0	C	1	1	584	1	Ⴒ	cut_l_stereo_44KHz.wav
1	79	2	2	1	C	1	0	665	0	Ⴏ	cut_l_stereo_44KHz.wav
1	80	4	4	2	I	1	0	1760	0	Ⴉ	cut_g_stereo_44KHz.wav
1	81	1	2	0	C	1	1	480	1	Ⴒ	cut_l_stereo_44KHz.wav
1	82	2	2	1	C	2	1	747	1	Ⴏ	cut_l_stereo_44KHz.wav
1	83	4	4	2	I	2	0	970	1	Ⴉ	cut_g_stereo_44KHz.wav
1	84	3	4	2	I	1	0	838	0	Ⴔ	cut_g_stereo_44KHz.wav
1	85	1	1	1	C	2	1	1130	1	Ⴒ	cut_h_stereo_44KHz.wav
1	86	3	3	2	I	1	0	847	0	Ⴔ	cut_w_stereo_44KHz.wav
1	87	4	3	2	I	2	0	1030	0	Ⴉ	cut_w_stereo_44KHz.wav
1	88	2	1	0	C	1	1	840	1	Ⴏ	cut_h_stereo_44KHz.wav
1	89	1	1	1	C	2	1	625	1	Ⴒ	cut_h_stereo_44KHz.wav
1	90	3	4	2	I	2	0	1127	0	Ⴔ	cut_g_stereo_44KHz.wav
1	91	4	3	2	I	2	0	957	0	Ⴉ	cut_w_stereo_44KHz.wav
1	92	2	2	1	C	2	1	709	1	Ⴏ	cut_l_stereo_44KHz.wav
1	93	3	3	2	I	2	0	912	1	Ⴔ	cut_w_stereo_44KHz.wav
1	94	2	1	0	C	1	1	730	1	Ⴏ	cut_h_stereo_44KHz.wav
1	95	4	4	2	I	2	0	765	1	Ⴉ	cut_g_stereo_44KHz.wav
1	96	1	2	0	C	1	1	1023	1	Ⴒ	cut_l_stereo_44KHz.wav
1	97	2	1	0	C	1	1	661	1	Ⴏ	cut_h_stereo_44KHz.wav
1	98	1	2	0	C	1	1	545	1	Ⴒ	cut_l_stereo_44KHz.wav
1	99	4	3	2	I	1	0	834	0	Ⴉ	cut_w_stereo_44KHz.wav
1	100	3	3	2	I	1	0	784	0	Ⴔ	cut_w_stereo_44KHz.wav
1	101	2	2	1	C	2	1	889	1	Ⴏ	cut_l_stereo_44KHz.wav
1	102	3	4	2	I	1	0	908	1	Ⴔ	cut_g_stereo_44KHz.wav
1	103	4	4	2	I	2	0	609	1	Ⴉ	cut_g_stereo_44KHz.wav
1	104	1	1	1	C	2	1	650	1	Ⴒ	cut_h_stereo_44KHz.wav
1	105	2	2	1	C	1	0	542	0	Ⴏ	cut_l_stereo_44KHz.wav
1	106	3	3	2	I	2	0	857	1	Ⴔ	cut_w_stereo_44KHz.wav
1	107	4	4	2	I	2	0	694	1	Ⴉ	cut_g_stereo_44KHz.wav
1	108	1	1	1	C	2	1	969	1	Ⴒ	cut_h_stereo_44KHz.wav
1	109	2	1	0	C	1	1	851	1	Ⴏ	cut_h_stereo_44KHz.wav
1	110	3	4	2	I	2	0	769	0	Ⴔ	cut_g_stereo_44KHz.wav
1	111	4	3	2	I	1	0	560	0	Ⴉ	cut_w_stereo_44KHz.wav
1	112	1	2	0	C	1	1	683	1	Ⴒ	cut_l_stereo_44KHz.wav
1	113	2	2	1	C	2	1	738	1	Ⴏ	cut_l_stereo_44KHz.wav
1	114	4	4	2	I	1	0	1060	0	Ⴉ	cut_g_stereo_44KHz.wav
1	115	3	4	2	I	1	0	389	1	Ⴔ	cut_g_stereo_44KHz.wav
1	116	1	2	0	C	1	1	610	1	Ⴒ	cut_l_stereo_44KHz.wav
1	117	2	1	0	C	1	1	621	1	Ⴏ	cut_h_stereo_44KHz.wav
1	118	1	1	1	C	2	1	767	1	Ⴒ	cut_h_stereo_44KHz.wav
1	119	4	3	2	I	1	0	625	1	Ⴉ	cut_w_stereo_44KHz.wav
1	120	3	3	2	I	2	0	643	0	Ⴔ	cut_w_stereo_44KHz.wav
1	121	2	1	0	C	2	0	651	0	Ⴏ	cut_h_stereo_44KHz.wav
1	122	3	4	2	I	2	0	1045	0	Ⴔ	cut_g_stereo_44KHz.wav
1	123	1	1	1	C	2	1	758	1	Ⴒ	cut_h_stereo_44KHz.wav
1	124	4	3	2	I	1	0	625	0	Ⴉ	cut_w_stereo_44KHz.wav
1	125	2	2	1	C	2	1	780	1	Ⴏ	cut_l_stereo_44KHz.wav
1	126	3	3	2	I	2	0	1036	1	Ⴔ	cut_w_stereo_44KHz.wav
1	127	4	4	2	I	2	0	1048	0	Ⴉ	cut_g_stereo_44KHz.wav
1	128	1	2	0	C	1	1	650	1	Ⴒ	cut_l_stereo_44KHz.wav
1	129	3	4	2	I	1	0	1352	1	Ⴔ	cut_g_stereo_44KHz.wav
1	130	2	2	1	C	2	1	638	1	Ⴏ	cut_l_stereo_44KHz.wav
1	131	1	1	1	C	2	1	617	1	Ⴒ	cut_h_stereo_44KHz.wav
1	132	4	3	2	I	1	0	831	0	Ⴉ	cut_w_stereo_44KHz.wav
1	133	1	2	0	C	1	1	485	1	Ⴒ	cut_l_stereo_44KHz.wav
1	134	3	3	2	I	2	0	908	0	Ⴔ	cut_w_stereo_44KHz.wav
1	135	2	1	0	C	1	1	1351	1	Ⴏ	cut_h_stereo_44KHz.wav
1	136	4	4	2	I	2	0	599	1	Ⴉ	cut_g_stereo_44KHz.wav
1	137	2	2	1	C	2	1	748	1	Ⴏ	cut_l_stereo_44KHz.wav
1	138	3	3	2	I	2	0	680	1	Ⴔ	cut_w_stereo_44KHz.wav
1	139	1	1	1	C	2	1	548	1	Ⴒ	cut_h_stereo_44KHz.wav
1	140	4	4	2	I	2	0	822	0	Ⴉ	cut_g_stereo_44KHz.wav
1	141	2	1	0	C	1	1	978	1	Ⴏ	cut_h_stereo_44KHz.wav
1	142	3	4	2	I	1	0	1020	1	Ⴔ	cut_g_stereo_44KHz.wav
1	143	4	3	2	I	1	0	586	1	Ⴉ	cut_w_stereo_44KHz.wav
1	144	1	2	0	C	1	1	587	1	Ⴒ	cut_l_stereo_44KHz.wav
1	145	2	1	0	C	1	1	536	1	Ⴏ	cut_h_stereo_44KHz.wav
1	146	3	3	2	I	1	0	625	0	Ⴔ	cut_w_stereo_44KHz.wav
1	147	1	1	1	C	2	1	626	1	Ⴒ	cut_h_stereo_44KHz.wav
1	148	4	4	2	I	2	0	677	1	Ⴉ	cut_g_stereo_44KHz.wav
1	149	1	2	0	C	1	1	509	1	Ⴒ	cut_l_stereo_44KHz.wav
1	150	3	4	2	I	1	0	893	1	Ⴔ	cut_g_stereo_44KHz.wav
1	151	2	2	1	C	2	1	765	1	Ⴏ	cut_l_stereo_44KHz.wav
1	152	4	3	2	I	2	0	806	1	Ⴉ	cut_w_stereo_44KHz.wav
1	153	1	1	1	C	2	1	1105	1	Ⴒ	cut_h_stereo_44KHz.wav
1	154	4	3	2	I	2	0	1127	0	Ⴉ	cut_w_stereo_44KHz.wav
1	155	3	4	2	I	1	0	877	1	Ⴔ	cut_g_stereo_44KHz.wav
1	156	2	2	1	C	2	1	655	1	Ⴏ	cut_l_stereo_44KHz.wav
1	157	3	3	2	I	2	0	944	1	Ⴔ	cut_w_stereo_44KHz.wav
1	158	1	2	0	C	1	1	629	1	Ⴒ	cut_l_stereo_44KHz.wav
1	159	4	4	2	I	1	0	1009	1	Ⴉ	cut_g_stereo_44KHz.wav
1	160	2	1	0	C	1	1	710	1	Ⴏ	cut_h_stereo_44KHz.wav
1	161	3	4	2	I	1	0	934	1	Ⴔ	cut_g_stereo_44KHz.wav
1	162	4	4	2	I	1	0	765	1	Ⴉ	cut_g_stereo_44KHz.wav
1	163	2	1	0	C	1	1	696	1	Ⴏ	cut_h_stereo_44KHz.wav
1	164	1	1	1	C	2	1	864	1	Ⴒ	cut_h_stereo_44KHz.wav
1	165	3	3	2	I	2	0	941	1	Ⴔ	cut_w_stereo_44KHz.wav
1	166	2	2	1	C	2	1	632	1	Ⴏ	cut_l_stereo_44KHz.wav
1	167	1	2	0	C	2	0	663	0	Ⴒ	cut_l_stereo_44KHz.wav
1	168	4	3	2	I	1	0	966	1	Ⴉ	cut_w_stereo_44KHz.wav
1	169	1	1	1	C	2	1	964	1	Ⴒ	cut_h_stereo_44KHz.wav
1	170	2	1	0	C	1	1	649	1	Ⴏ	cut_h_stereo_44KHz.wav
1	171	3	4	2	I	1	0	956	0	Ⴔ	cut_g_stereo_44KHz.wav
1	172	4	3	2	I	1	0	522	0	Ⴉ	cut_w_stereo_44KHz.wav
1	173	2	2	1	C	2	1	574	1	Ⴏ	cut_l_stereo_44KHz.wav
1	174	4	4	2	I	2	0	982	0	Ⴉ	cut_g_stereo_44KHz.wav
1	175	1	2	0	C	1	1	563	1	Ⴒ	cut_l_stereo_44KHz.wav
1	176	3	3	2	I	2	0	810	1	Ⴔ	cut_w_stereo_44KHz.wav
1	177	1	2	0	C	1	1	392	1	Ⴒ	cut_l_stereo_44KHz.wav
1	178	4	4	2	I	2	0	599	0	Ⴉ	cut_g_stereo_44KHz.wav
1	179	2	2	1	C	2	1	724	1	Ⴏ	cut_l_stereo_44KHz.wav
1	180	3	3	2	I	2	0	777	1	Ⴔ	cut_w_stereo_44KHz.wav
1	181	4	3	2	I	2	0	783	0	Ⴉ	cut_w_stereo_44KHz.wav
1	182	3	4	2	I	1	0	859	0	Ⴔ	cut_g_stereo_44KHz.wav
1	183	2	1	0	C	1	1	897	1	Ⴏ	cut_h_stereo_44KHz.wav
1	184	1	1	1	C	2	1	692	1	Ⴒ	cut_h_stereo_44KHz.wav
1	185	4	4	2	I	1	0	736	0	Ⴉ	cut_g_stereo_44KHz.wav
1	186	1	1	1	C	2	1	638	1	Ⴒ	cut_h_stereo_44KHz.wav
1	187	2	2	1	C	2	1	647	1	Ⴏ	cut_l_stereo_44KHz.wav
1	188	3	3	2	I	2	0	856	1	Ⴔ	cut_w_stereo_44KHz.wav
1	189	2	1	0	C	1	1	615	1	Ⴏ	cut_h_stereo_44KHz.wav
1	190	4	3	2	I	1	0	773	1	Ⴉ	cut_w_stereo_44KHz.wav
1	191	1	2	0	C	1	1	622	1	Ⴒ	cut_l_stereo_44KHz.wav
1	192	3	4	2	I	1	0	1016	1	Ⴔ	cut_g_stereo_44KHz.wav
1	193	1	1	1	C	2	1	735	1	Ⴒ	cut_h_stereo_44KHz.wav
1	194	2	1	0	C	1	1	649	1	Ⴏ	cut_h_stereo_44KHz.wav
1	195	3	3	2	I	2	0	676	1	Ⴔ	cut_w_stereo_44KHz.wav
1	196	4	4	2	I	2	0	1035	0	Ⴉ	cut_g_stereo_44KHz.wav
1	197	1	2	0	C	1	1	973	1	Ⴒ	cut_l_stereo_44KHz.wav
1	198	2	2	1	C	2	1	828	1	Ⴏ	cut_l_stereo_44KHz.wav
1	199	3	4	2	I	2	0	975	0	Ⴔ	cut_g_stereo_44KHz.wav
1	200	4	3	2	I	1	0	939	0	Ⴉ	cut_w_stereo_44KHz.wav
2	1	3	4	2	I	2	0	1255	0	Ⴡ	cut_ui_stereo_44KHz.wav
2	2	2	1	0	C	1	1	884	1	Ⴃ	cut_f_stereo_44KHz.wav
2	3	4	4	2	I	2	0	814	1	Ⴟ	cut_ui_stereo_44KHz.wav
2	4	1	1	1	C	1	0	975	0	Ⴁ	cut_f_stereo_44KHz.wav
2	5	4	3	2	I	1	0	1473	0	Ⴟ	cut_ei_stereo_44KHz.wav
2	6	3	3	2	I	1	0	508	1	Ⴡ	cut_ei_stereo_44KHz.wav
2	7	2	2	1	C	1	0	999	0	Ⴃ	cut_r_stereo_44KHz.wav
2	8	1	2	0	C	1	1	915	1	Ⴁ	cut_r_stereo_44KHz.wav
2	9	3	3	2	I	1	0	781	1	Ⴡ	cut_ei_stereo_44KHz.wav
2	10	2	2	1	C	2	1	954	1	Ⴃ	cut_r_stereo_44KHz.wav
2	11	1	2	0	C	1	1	914	1	Ⴁ	cut_r_stereo_44KHz.wav
2	12	4	3	2	I	2	0	617	1	Ⴟ	cut_ei_stereo_44KHz.wav
2	13	1	1	1	C	1	0	950	0	Ⴁ	cut_f_stereo_44KHz.wav
2	14	4	4	2	I	2	0	793	1	Ⴟ	cut_ui_stereo_44KHz.wav
2	15	2	1	0	C	2	0	931	0	Ⴃ	cut_f_stereo_44KHz.wav
2	16	3	4	2	I	1	0	863	1	Ⴡ	cut_ui_stereo_44KHz.wav
2	17	4	4	2	I	2	0	1018	1	Ⴟ	cut_ui_stereo_44KHz.wav
2	18	3	3	2	I	2	0	783	1	Ⴡ	cut_ei_stereo_44KHz.wav
2	19	2	1	0	C	1	1	603	1	Ⴃ	cut_f_stereo_44KHz.wav
2	20	1	2	0	C	1	1	867	1	Ⴁ	cut_r_stereo_44KHz.wav
2	21	2	2	1	C	2	1	797	1	Ⴃ	cut_r_stereo_44KHz.wav
2	22	1	1	1	C	2	1	935	1	Ⴁ	cut_f_stereo_44KHz.wav
2	23	4	3	2	I	2	0	633	0	Ⴟ	cut_ei_stereo_44KHz.wav
2	24	3	4	2	I	1	0	590	1	Ⴡ	cut_ui_stereo_44KHz.wav
2	25	2	1	0	C	1	1	730	1	Ⴃ	cut_f_stereo_44KHz.wav
2	26	4	4	2	I	2	0	1063	1	Ⴟ	cut_ui_stereo_44KHz.wav
2	27	1	2	0	C	1	1	827	1	Ⴁ	cut_r_stereo_44KHz.wav
2	28	3	4	2	I	2	0	808	1	Ⴡ	cut_ui_stereo_44KHz.wav
2	29	2	2	1	C	2	1	731	1	Ⴃ	cut_r_stereo_44KHz.wav
2	30	1	1	1	C	2	1	480	1	Ⴁ	cut_f_stereo_44KHz.wav
2	31	3	3	2	I	1	0	517	1	Ⴡ	cut_ei_stereo_44KHz.wav
2	32	4	3	2	I	2	0	567	0	Ⴟ	cut_ei_stereo_44KHz.wav
2	33	2	1	0	C	1	1	696	1	Ⴃ	cut_f_stereo_44KHz.wav
2	34	1	1	1	C	2	1	694	1	Ⴁ	cut_f_stereo_44KHz.wav
2	35	3	4	2	I	1	0	429	0	Ⴡ	cut_ui_stereo_44KHz.wav
2	36	4	3	2	I	1	0	841	0	Ⴟ	cut_ei_stereo_44KHz.wav
2	37	3	3	2	I	1	0	489	1	Ⴡ	cut_ei_stereo_44KHz.wav
2	38	4	4	2	I	1	0	1057	0	Ⴟ	cut_ui_stereo_44KHz.wav
2	39	2	2	1	C	2	1	700	1	Ⴃ	cut_r_stereo_44KHz.wav
2	40	1	2	0	C	1	1	846	1	Ⴁ	cut_r_stereo_44KHz.wav
2	41	3	4	2	I	1	0	696	0	Ⴡ	cut_ui_stereo_44KHz.wav
2	42	1	1	1	C	2	1	855	1	Ⴁ	cut_f_stereo_44KHz.wav
2	43	4	4	2	I	1	0	640	0	Ⴟ	cut_ui_stereo_44KHz.wav
2	44	2	1	0	C	1	1	1368	1	Ⴃ	cut_f_stereo_44KHz.wav
2	45	3	3	2	I	1	0	871	0	Ⴡ	cut_ei_stereo_44KHz.wav
2	46	4	3	2	I	1	0	1270	0	Ⴟ	cut_ei_stereo_44KHz.wav
2	47	1	2	0	C	1	1	687	1	Ⴁ	cut_r_stereo_44KHz.wav
2	48	2	2	1	C	2	1	1094	1	Ⴃ	cut_r_stereo_44KHz.wav
2	49	1	1	1	C	2	1	740	1	Ⴁ	cut_f_stereo_44KHz.wav
2	50	4	3	2	I	2	0	956	1	Ⴟ	cut_ei_stereo_44KHz.wav
2	51	3	4	2	I	2	0	712	0	Ⴡ	cut_ui_stereo_44KHz.wav
2	52	2	2	1	C	2	1	861	1	Ⴃ	cut_r_stereo_44KHz.wav
2	53	4	4	2	I	2	0	727	0	Ⴟ	cut_ui_stereo_44KHz.wav
2	54	2	1	0	C	2	0	897	0	Ⴃ	cut_f_stereo_44KHz.wav
2	55	3	3	2	I	1	0	698	0	Ⴡ	cut_ei_stereo_44KHz.wav
2	56	1	2	0	C	1	1	850	1	Ⴁ	cut_r_stereo_44KHz.wav
2	57	3	3	2	I	1	0	990	0	Ⴡ	cut_ei_stereo_44KHz.wav
2	58	4	3	2	I	1	0	819	1	Ⴟ	cut_ei_stereo_44KHz.wav
2	59	2	1	0	C	1	1	761	1	Ⴃ	cut_f_stereo_44KHz.wav
2	60	1	1	1	C	2	1	919	1	Ⴁ	cut_f_stereo_44KHz.wav
2	61	4	4	2	I	1	0	565	1	Ⴟ	cut_ui_stereo_44KHz.wav
2	62	1	2	0	C	2	0	578	0	Ⴁ	cut_r_stereo_44KHz.wav
2	63	2	2	1	C	2	1	1323	1	Ⴃ	cut_r_stereo_44KHz.wav
2	64	3	4	2	I	2	0	541	0	Ⴡ	cut_ui_stereo_44KHz.wav
2	65	2	1	0	C	1	1	1133	1	Ⴃ	cut_f_stereo_44KHz.wav
2	66	3	3	2	I	1	0	658	1	Ⴡ	cut_ei_stereo_44KHz.wav
2	67	4	4	2	I	1	0	704	1	Ⴟ	cut_ui_stereo_44KHz.wav
2	68	1	2	0	C	1	1	982	1	Ⴁ	cut_r_stereo_44KHz.wav
2	69	3	4	2	I	1	0	545	1	Ⴡ	cut_ui_stereo_44KHz.wav
2	70	2	2	1	C	2	1	1141	1	Ⴃ	cut_r_stereo_44KHz.wav
2	71	1	1	1	C	2	1	954	1	Ⴁ	cut_f_stereo_44KHz.wav
2	72	4	3	2	I	1	0	1070	0	Ⴟ	cut_ei_stereo_44KHz.wav
2	73	1	1	1	C	2	1	961	1	Ⴁ	cut_f_stereo_44KHz.wav
2	74	2	2	1	C	2	1	1523	1	Ⴃ	cut_r_stereo_44KHz.wav
2	75	3	3	2	I	1	0	563	0	Ⴡ	cut_ei_stereo_44KHz.wav
2	76	4	3	2	I	2	0	713	0	Ⴟ	cut_ei_stereo_44KHz.wav
2	77	2	1	0	C	1	1	568	1	Ⴃ	cut_f_stereo_44KHz.wav
2	78	3	4	2	I	1	0	593	0	Ⴡ	cut_ui_stereo_44KHz.wav
2	79	4	4	2	I	1	0	575	0	Ⴟ	cut_ui_stereo_44KHz.wav
2	80	1	2	0	C	1	1	1058	1	Ⴁ	cut_r_stereo_44KHz.wav
2	81	3	3	2	I	1	0	736	0	Ⴡ	cut_ei_stereo_44KHz.wav
2	82	4	3	2	I	1	0	578	0	Ⴟ	cut_ei_stereo_44KHz.wav
2	83	2	1	0	C	1	1	567	1	Ⴃ	cut_f_stereo_44KHz.wav
2	84	1	1	1	C	2	1	910	1	Ⴁ	cut_f_stereo_44KHz.wav
2	85	2	2	1	C	2	1	924	1	Ⴃ	cut_r_stereo_44KHz.wav
2	86	4	4	2	I	2	0	811	1	Ⴟ	cut_ui_stereo_44KHz.wav
2	87	1	2	0	C	1	1	1149	1	Ⴁ	cut_r_stereo_44KHz.wav
2	88	3	4	2	I	1	0	689	0	Ⴡ	cut_ui_stereo_44KHz.wav
2	89	2	1	0	C	1	1	1038	1	Ⴃ	cut_f_stereo_44KHz.wav
2	90	1	2	0	C	1	1	711	1	Ⴁ	cut_r_stereo_44KHz.wav
2	91	3	3	2	I	1	0	723	0	Ⴡ	cut_ei_stereo_44KHz.wav
2	92	4	3	2	I	1	0	551	0	Ⴟ	cut_ei_stereo_44KHz.wav
2	93	3	4	2	I	1	0	543	0	Ⴡ	cut_ui_stereo_44KHz.wav
2	94	4	4	2	I	2	0	965	0	Ⴟ	cut_ui_stereo_44KHz.wav
2	95	1	1	1	C	2	1	1031	1	Ⴁ	cut_f_stereo_44KHz.wav
2	96	2	2	1	C	2	1	940	1	Ⴃ	cut_r_stereo_44KHz.wav
2	97	1	1	1	C	2	1	721	1	Ⴁ	cut_f_stereo_44KHz.wav
2	98	2	1	0	C	2	0	540	0	Ⴃ	cut_f_stereo_44KHz.wav
2	99	4	3	2	I	2	0	1167	1	Ⴟ	cut_ei_stereo_44KHz.wav
2	100	3	4	2	I	2	0	636	1	Ⴡ	cut_ui_stereo_44KHz.wav
2	101	2	2	1	C	2	1	889	1	Ⴃ	cut_r_stereo_44KHz.wav
2	102	4	4	2	I	1	0	1332	0	Ⴟ	cut_ui_stereo_44KHz.wav
2	103	1	2	0	C	2	0	1081	0	Ⴁ	cut_r_stereo_44KHz.wav
2	104	3	3	2	I	1	0	442	1	Ⴡ	cut_ei_stereo_44KHz.wav
2	105	2	1	0	C	1	1	753	1	Ⴃ	cut_f_stereo_44KHz.wav
2	106	1	1	1	C	2	1	902	1	Ⴁ	cut_f_stereo_44KHz.wav
2	107	3	3	2	I	1	0	713	1	Ⴡ	cut_ei_stereo_44KHz.wav
2	108	4	4	2	I	1	0	1041	1	Ⴟ	cut_ui_stereo_44KHz.wav
2	109	2	2	1	C	2	1	979	1	Ⴃ	cut_r_stereo_44KHz.wav
2	110	4	3	2	I	2	0	956	0	Ⴟ	cut_ei_stereo_44KHz.wav
2	111	3	4	2	I	2	0	1160	1	Ⴡ	cut_ui_stereo_44KHz.wav
2	112	1	2	0	C	1	1	952	1	Ⴁ	cut_r_stereo_44KHz.wav
2	113	4	4	2	I	1	0	1486	0	Ⴟ	cut_ui_stereo_44KHz.wav
2	114	2	1	0	C	1	1	802	1	Ⴃ	cut_f_stereo_44KHz.wav
2	115	3	3	2	I	1	0	791	0	Ⴡ	cut_ei_stereo_44KHz.wav
2	116	1	1	1	C	2	1	875	1	Ⴁ	cut_f_stereo_44KHz.wav
2	117	2	2	1	C	2	1	890	1	Ⴃ	cut_r_stereo_44KHz.wav
2	118	4	3	2	I	1	0	1164	0	Ⴟ	cut_ei_stereo_44KHz.wav
2	119	3	4	2	I	1	0	1195	1	Ⴡ	cut_ui_stereo_44KHz.wav
2	120	1	2	0	C	1	1	1250	1	Ⴁ	cut_r_stereo_44KHz.wav
2	121	3	3	2	I	2	0	883	0	Ⴡ	cut_ei_stereo_44KHz.wav
2	122	4	4	2	I	1	0	1176	0	Ⴟ	cut_ui_stereo_44KHz.wav
2	123	1	1	1	C	2	1	895	1	Ⴁ	cut_f_stereo_44KHz.wav
2	124	2	1	0	C	1	1	970	1	Ⴃ	cut_f_stereo_44KHz.wav
2	125	1	2	0	C	1	1	1071	1	Ⴁ	cut_r_stereo_44KHz.wav
2	126	2	2	1	C	2	1	713	1	Ⴃ	cut_r_stereo_44KHz.wav
2	127	3	4	2	I	1	0	1242	1	Ⴡ	cut_ui_stereo_44KHz.wav
2	128	4	3	2	I	1	0	1402	1	Ⴟ	cut_ei_stereo_44KHz.wav
2	129	2	1	0	C	1	1	637	1	Ⴃ	cut_f_stereo_44KHz.wav
2	130	3	3	2	I	1	0	1205	0	Ⴡ	cut_ei_stereo_44KHz.wav
2	131	4	4	2	I	1	0	905	1	Ⴟ	cut_ui_stereo_44KHz.wav
2	132	1	1	1	C	2	1	1036	1	Ⴁ	cut_f_stereo_44KHz.wav
2	133	2	2	1	C	2	1	649	1	Ⴃ	cut_r_stereo_44KHz.wav
2	134	3	4	2	I	1	0	1069	1	Ⴡ	cut_ui_stereo_44KHz.wav
2	135	4	3	2	I	2	0	1199	0	Ⴟ	cut_ei_stereo_44KHz.wav
2	136	1	2	0	C	1	1	822	1	Ⴁ	cut_r_stereo_44KHz.wav
2	137	2	1	0	C	1	1	664	1	Ⴃ	cut_f_stereo_44KHz.wav
2	138	3	4	2	I	1	0	1511	1	Ⴡ	cut_ui_stereo_44KHz.wav
2	139	1	1	1	C	2	1	843	1	Ⴁ	cut_f_stereo_44KHz.wav
2	140	4	4	2	I	1	0	850	0	Ⴟ	cut_ui_stereo_44KHz.wav
2	141	1	2	0	C	1	1	954	1	Ⴁ	cut_r_stereo_44KHz.wav
2	142	3	3	2	I	1	0	1285	0	Ⴡ	cut_ei_stereo_44KHz.wav
2	143	2	2	1	C	2	1	1025	1	Ⴃ	cut_r_stereo_44KHz.wav
2	144	4	3	2	I	1	0	875	0	Ⴟ	cut_ei_stereo_44KHz.wav
2	145	3	3	2	I	2	0	1052	0	Ⴡ	cut_ei_stereo_44KHz.wav
2	146	2	1	0	C	1	1	820	1	Ⴃ	cut_f_stereo_44KHz.wav
2	147	4	3	2	I	1	0	1154	1	Ⴟ	cut_ei_stereo_44KHz.wav
2	148	1	2	0	C	1	1	768	1	Ⴁ	cut_r_stereo_44KHz.wav
2	149	4	4	2	I	2	0	949	0	Ⴟ	cut_ui_stereo_44KHz.wav
2	150	1	1	1	C	2	1	1135	1	Ⴁ	cut_f_stereo_44KHz.wav
2	151	2	2	1	C	2	1	884	1	Ⴃ	cut_r_stereo_44KHz.wav
2	152	3	4	2	I	1	0	1033	0	Ⴡ	cut_ui_stereo_44KHz.wav
2	153	2	1	0	C	1	1	1177	1	Ⴃ	cut_f_stereo_44KHz.wav
2	154	3	3	2	I	1	0	715	1	Ⴡ	cut_ei_stereo_44KHz.wav
2	155	4	4	2	I	1	0	571	1	Ⴟ	cut_ui_stereo_44KHz.wav
2	156	1	2	0	C	1	1	690	1	Ⴁ	cut_r_stereo_44KHz.wav
2	157	3	4	2	I	1	0	716	1	Ⴡ	cut_ui_stereo_44KHz.wav
2	158	4	3	2	I	1	0	541	1	Ⴟ	cut_ei_stereo_44KHz.wav
2	159	1	1	1	C	2	1	812	1	Ⴁ	cut_f_stereo_44KHz.wav
2	160	2	2	1	C	2	1	968	1	Ⴃ	cut_r_stereo_44KHz.wav
2	161	4	3	2	I	1	0	708	0	Ⴟ	cut_ei_stereo_44KHz.wav
2	162	1	1	1	C	2	1	814	1	Ⴁ	cut_f_stereo_44KHz.wav
2	163	3	4	2	I	1	0	883	1	Ⴡ	cut_ui_stereo_44KHz.wav
2	164	2	2	1	C	2	1	758	1	Ⴃ	cut_r_stereo_44KHz.wav
2	165	1	2	0	C	1	1	658	1	Ⴁ	cut_r_stereo_44KHz.wav
2	166	3	3	2	I	1	0	637	1	Ⴡ	cut_ei_stereo_44KHz.wav
2	167	2	1	0	C	1	1	970	1	Ⴃ	cut_f_stereo_44KHz.wav
2	168	4	4	2	I	1	0	660	0	Ⴟ	cut_ui_stereo_44KHz.wav
2	169	1	1	1	C	2	1	817	1	Ⴁ	cut_f_stereo_44KHz.wav
2	170	4	4	2	I	2	0	1215	1	Ⴟ	cut_ui_stereo_44KHz.wav
2	171	3	3	2	I	1	0	608	0	Ⴡ	cut_ei_stereo_44KHz.wav
2	172	2	1	0	C	1	1	679	1	Ⴃ	cut_f_stereo_44KHz.wav
2	173	1	2	0	C	1	1	989	1	Ⴁ	cut_r_stereo_44KHz.wav
2	174	2	2	1	C	2	1	984	1	Ⴃ	cut_r_stereo_44KHz.wav
2	175	3	4	2	I	1	0	766	0	Ⴡ	cut_ui_stereo_44KHz.wav
2	176	4	3	2	I	1	0	709	1	Ⴟ	cut_ei_stereo_44KHz.wav
2	177	2	1	0	C	1	1	1015	1	Ⴃ	cut_f_stereo_44KHz.wav
2	178	1	2	0	C	1	1	692	1	Ⴁ	cut_r_stereo_44KHz.wav
2	179	3	4	2	I	1	0	622	1	Ⴡ	cut_ui_stereo_44KHz.wav
2	180	4	4	2	I	1	0	491	1	Ⴟ	cut_ui_stereo_44KHz.wav
2	181	1	1	1	C	2	1	1083	1	Ⴁ	cut_f_stereo_44KHz.wav
2	182	3	3	2	I	1	0	587	0	Ⴡ	cut_ei_stereo_44KHz.wav
2	183	4	3	2	I	1	0	671	1	Ⴟ	cut_ei_stereo_44KHz.wav
2	184	2	2	1	C	2	1	931	1	Ⴃ	cut_r_stereo_44KHz.wav
2	185	3	3	2	I	1	0	579	0	Ⴡ	cut_ei_stereo_44KHz.wav
2	186	1	1	1	C	2	1	915	1	Ⴁ	cut_f_stereo_44KHz.wav
2	187	2	2	1	C	2	1	747	1	Ⴃ	cut_r_stereo_44KHz.wav
2	188	4	4	2	I	1	0	648	1	Ⴟ	cut_ui_stereo_44KHz.wav
2	189	3	4	2	I	1	0	634	0	Ⴡ	cut_ui_stereo_44KHz.wav
2	190	4	3	2	I	1	0	603	1	Ⴟ	cut_ei_stereo_44KHz.wav
2	191	2	1	0	C	1	1	819	1	Ⴃ	cut_f_stereo_44KHz.wav
2	192	1	2	0	C	1	1	953	1	Ⴁ	cut_r_stereo_44KHz.wav
2	193	4	3	2	I	1	0	697	1	Ⴟ	cut_ei_stereo_44KHz.wav
2	194	2	2	1	C	2	1	964	1	Ⴃ	cut_r_stereo_44KHz.wav
2	195	1	1	1	C	2	1	1167	1	Ⴁ	cut_f_stereo_44KHz.wav
2	196	3	3	2	I	1	0	686	1	Ⴡ	cut_ei_stereo_44KHz.wav
2	197	1	2	0	C	1	1	665	1	Ⴁ	cut_r_stereo_44KHz.wav
2	198	3	4	2	I	1	0	690	1	Ⴡ	cut_ui_stereo_44KHz.wav
2	199	2	1	0	C	1	1	820	1	Ⴃ	cut_f_stereo_44KHz.wav
2	200	4	4	2	I	2	0	1243	1	Ⴟ	cut_ui_stereo_44KHz.wav
3	1	4	4	2	I	2	0	1562	1	Ⴌ	cut_s_stereo_44KHz.wav
3	2	2	1	0	C	2	0	1195	0	Ⴕ	cut_oei_stereo_44KHz.wav
3	3	3	4	2	I	1	0	720	1	Ⴐ	cut_s_stereo_44KHz.wav
3	4	1	2	0	C	1	1	974	1	Ⴖ	cut_n_stereo_44KHz.wav
3	5	4	3	2	I	1	0	1213	1	Ⴌ	cut_j_stereo_44KHz.wav
3	6	2	2	1	C	2	1	1014	1	Ⴕ	cut_n_stereo_44KHz.wav
3	7	3	3	2	I	2	0	1053	1	Ⴐ	cut_j_stereo_44KHz.wav
3	8	1	1	1	C	2	1	1131	1	Ⴖ	cut_oei_stereo_44KHz.wav
3	9	4	3	2	I	2	0	1069	0	Ⴌ	cut_j_stereo_44KHz.wav
3	10	3	3	2	I	2	0	860	0	Ⴐ	cut_j_stereo_44KHz.wav
3	11	2	1	0	C	1	1	655	1	Ⴕ	cut_oei_stereo_44KHz.wav
3	12	1	2	0	C	1	1	965	1	Ⴖ	cut_n_stereo_44KHz.wav
3	13	4	4	2	I	2	0	843	1	Ⴌ	cut_s_stereo_44KHz.wav
3	14	1	1	1	C	2	1	566	1	Ⴖ	cut_oei_stereo_44KHz.wav
3	15	3	4	2	I	1	0	1118	1	Ⴐ	cut_s_stereo_44KHz.wav
3	16	2	2	1	C	2	1	681	1	Ⴕ	cut_n_stereo_44KHz.wav
3	17	3	4	2	I	1	0	922	0	Ⴐ	cut_s_stereo_44KHz.wav
3	18	4	3	2	I	2	0	810	1	Ⴌ	cut_j_stereo_44KHz.wav
3	19	1	1	1	C	2	1	674	1	Ⴖ	cut_oei_stereo_44KHz.wav
3	20	2	2	1	C	2	1	793	1	Ⴕ	cut_n_stereo_44KHz.wav
3	21	3	3	2	I	1	0	1396	0	Ⴐ	cut_j_stereo_44KHz.wav
3	22	2	1	0	C	1	1	604	1	Ⴕ	cut_oei_stereo_44KHz.wav
3	23	4	4	2	I	2	0	632	0	Ⴌ	cut_s_stereo_44KHz.wav
3	24	1	2	0	C	1	1	834	1	Ⴖ	cut_n_stereo_44KHz.wav
3	25	4	4	2	I	2	0	734	0	Ⴌ	cut_s_stereo_44KHz.wav
3	26	2	1	0	C	1	1	659	1	Ⴕ	cut_oei_stereo_44KHz.wav
3	27	3	4	2	I	1	0	739	0	Ⴐ	cut_s_stereo_44KHz.wav
3	28	1	2	0	C	1	1	664	1	Ⴖ	cut_n_stereo_44KHz.wav
3	29	4	3	2	I	2	0	892	0	Ⴌ	cut_j_stereo_44KHz.wav
3	30	3	3	2	I	1	0	570	0	Ⴐ	cut_j_stereo_44KHz.wav
3	31	2	2	1	C	2	1	740	1	Ⴕ	cut_n_stereo_44KHz.wav
3	32	1	1	1	C	2	1	662	1	Ⴖ	cut_oei_stereo_44KHz.wav
3	33	4	4	2	I	2	0	722	0	Ⴌ	cut_s_stereo_44KHz.wav
3	34	3	4	2	I	2	0	791	1	Ⴐ	cut_s_stereo_44KHz.wav
3	35	1	1	1	C	2	1	639	1	Ⴖ	cut_oei_stereo_44KHz.wav
3	36	2	2	1	C	2	1	694	1	Ⴕ	cut_n_stereo_44KHz.wav
3	37	1	2	0	C	1	1	606	1	Ⴖ	cut_n_stereo_44KHz.wav
3	38	2	1	0	C	2	0	720	0	Ⴕ	cut_oei_stereo_44KHz.wav
3	39	4	3	2	I	1	0	759	0	Ⴌ	cut_j_stereo_44KHz.wav
3	40	3	3	2	I	1	0	747	1	Ⴐ	cut_j_stereo_44KHz.wav
3	41	1	1	1	C	2	1	761	1	Ⴖ	cut_oei_stereo_44KHz.wav
3	42	3	3	2	I	1	0	979	0	Ⴐ	cut_j_stereo_44KHz.wav
3	43	2	2	1	C	2	1	868	1	Ⴕ	cut_n_stereo_44KHz.wav
3	44	4	3	2	I	2	0	919	0	Ⴌ	cut_j_stereo_44KHz.wav
3	45	2	1	0	C	1	1	637	1	Ⴕ	cut_oei_stereo_44KHz.wav
3	46	3	4	2	I	1	0	409	0	Ⴐ	cut_s_stereo_44KHz.wav
3	47	1	2	0	C	1	1	898	1	Ⴖ	cut_n_stereo_44KHz.wav
3	48	4	4	2	I	1	0	735	0	Ⴌ	cut_s_stereo_44KHz.wav
3	49	3	4	2	I	1	0	698	0	Ⴐ	cut_s_stereo_44KHz.wav
3	50	2	2	1	C	2	1	767	1	Ⴕ	cut_n_stereo_44KHz.wav
3	51	4	3	2	I	2	0	937	0	Ⴌ	cut_j_stereo_44KHz.wav
3	52	1	1	1	C	2	1	889	1	Ⴖ	cut_oei_stereo_44KHz.wav
3	53	2	1	0	C	2	0	628	0	Ⴕ	cut_oei_stereo_44KHz.wav
3	54	1	2	0	C	1	1	696	1	Ⴖ	cut_n_stereo_44KHz.wav
3	55	4	4	2	I	2	0	963	1	Ⴌ	cut_s_stereo_44KHz.wav
3	56	3	3	2	I	1	0	785	0	Ⴐ	cut_j_stereo_44KHz.wav
3	57	1	1	1	C	2	1	640	1	Ⴖ	cut_oei_stereo_44KHz.wav
3	58	4	3	2	I	2	0	702	1	Ⴌ	cut_j_stereo_44KHz.wav
3	59	2	1	0	C	1	1	701	1	Ⴕ	cut_oei_stereo_44KHz.wav
3	60	3	4	2	I	2	0	654	0	Ⴐ	cut_s_stereo_44KHz.wav
3	61	1	2	0	C	1	1	635	1	Ⴖ	cut_n_stereo_44KHz.wav
3	62	2	2	1	C	2	1	795	1	Ⴕ	cut_n_stereo_44KHz.wav
3	63	3	3	2	I	1	0	808	0	Ⴐ	cut_j_stereo_44KHz.wav
3	64	4	4	2	I	2	0	541	1	Ⴌ	cut_s_stereo_44KHz.wav
3	65	3	4	2	I	1	0	831	1	Ⴐ	cut_s_stereo_44KHz.wav
3	66	1	1	1	C	2	1	624	1	Ⴖ	cut_oei_stereo_44KHz.wav
3	67	4	4	2	I	2	0	703	0	Ⴌ	cut_s_stereo_44KHz.wav
3	68	2	1	0	C	1	1	735	1	Ⴕ	cut_oei_stereo_44KHz.wav
3	69	4	3	2	I	2	0	812	0	Ⴌ	cut_j_stereo_44KHz.wav
3	70	3	3	2	I	2	0	784	0	Ⴐ	cut_j_stereo_44KHz.wav
3	71	1	2	0	C	1	1	713	1	Ⴖ	cut_n_stereo_44KHz.wav
3	72	2	2	1	C	2	1	965	1	Ⴕ	cut_n_stereo_44KHz.wav
3	73	3	3	2	I	1	0	675	1	Ⴐ	cut_j_stereo_44KHz.wav
3	74	4	3	2	I	1	0	463	1	Ⴌ	cut_j_stereo_44KHz.wav
3	75	1	2	0	C	1	1	985	1	Ⴖ	cut_n_stereo_44KHz.wav
3	76	2	1	0	C	1	1	1026	1	Ⴕ	cut_oei_stereo_44KHz.wav
3	77	3	4	2	I	2	0	1041	1	Ⴐ	cut_s_stereo_44KHz.wav
3	78	4	4	2	I	2	0	725	1	Ⴌ	cut_s_stereo_44KHz.wav
3	79	2	2	1	C	2	1	890	1	Ⴕ	cut_n_stereo_44KHz.wav
3	80	1	1	1	C	2	1	846	1	Ⴖ	cut_oei_stereo_44KHz.wav
3	81	4	4	2	I	2	0	618	0	Ⴌ	cut_s_stereo_44KHz.wav
3	82	1	1	1	C	2	1	746	1	Ⴖ	cut_oei_stereo_44KHz.wav
3	83	3	3	2	I	1	0	650	1	Ⴐ	cut_j_stereo_44KHz.wav
3	84	2	2	1	C	2	1	771	1	Ⴕ	cut_n_stereo_44KHz.wav
3	85	1	2	0	C	2	0	658	0	Ⴖ	cut_n_stereo_44KHz.wav
3	86	3	4	2	I	1	0	782	1	Ⴐ	cut_s_stereo_44KHz.wav
3	87	2	1	0	C	1	1	767	1	Ⴕ	cut_oei_stereo_44KHz.wav
3	88	4	3	2	I	1	0	850	1	Ⴌ	cut_j_stereo_44KHz.wav
3	89	2	2	1	C	2	1	821	1	Ⴕ	cut_n_stereo_44KHz.wav
3	90	4	4	2	I	1	0	754	1	Ⴌ	cut_s_stereo_44KHz.wav
3	91	1	2	0	C	1	1	602	1	Ⴖ	cut_n_stereo_44KHz.wav
3	92	3	4	2	I	1	0	649	0	Ⴐ	cut_s_stereo_44KHz.wav
3	93	1	1	1	C	2	1	674	1	Ⴖ	cut_oei_stereo_44KHz.wav
3	94	4	3	2	I	1	0	789	1	Ⴌ	cut_j_stereo_44KHz.wav
3	95	3	3	2	I	1	0	605	1	Ⴐ	cut_j_stereo_44KHz.wav
3	96	2	1	0	C	1	1	609	1	Ⴕ	cut_oei_stereo_44KHz.wav
3	97	1	2	0	C	1	1	597	1	Ⴖ	cut_n_stereo_44KHz.wav
3	98	3	4	2	I	1	0	606	1	Ⴐ	cut_s_stereo_44KHz.wav
3	99	4	3	2	I	1	0	778	1	Ⴌ	cut_j_stereo_44KHz.wav
3	100	2	1	0	C	1	1	860	1	Ⴕ	cut_oei_stereo_44KHz.wav
3	101	1	1	1	C	1	0	1010	0	Ⴖ	cut_oei_stereo_44KHz.wav
3	102	3	3	2	I	1	0	743	1	Ⴐ	cut_j_stereo_44KHz.wav
3	103	4	4	2	I	2	0	947	1	Ⴌ	cut_s_stereo_44KHz.wav
3	104	2	2	1	C	2	1	840	1	Ⴕ	cut_n_stereo_44KHz.wav
3	105	3	3	2	I	1	0	633	0	Ⴐ	cut_j_stereo_44KHz.wav
3	106	1	2	0	C	1	1	1431	1	Ⴖ	cut_n_stereo_44KHz.wav
3	107	2	2	1	C	2	1	943	1	Ⴕ	cut_n_stereo_44KHz.wav
3	108	4	4	2	I	1	0	829	1	Ⴌ	cut_s_stereo_44KHz.wav
3	109	1	1	1	C	2	1	965	1	Ⴖ	cut_oei_stereo_44KHz.wav
3	110	2	1	0	C	1	1	829	1	Ⴕ	cut_oei_stereo_44KHz.wav
3	111	4	3	2	I	1	0	746	0	Ⴌ	cut_j_stereo_44KHz.wav
3	112	3	4	2	I	1	0	773	0	Ⴐ	cut_s_stereo_44KHz.wav
3	113	2	2	1	C	2	1	941	1	Ⴕ	cut_n_stereo_44KHz.wav
3	114	3	4	2	I	2	0	640	0	Ⴐ	cut_s_stereo_44KHz.wav
3	115	4	4	2	I	2	0	887	1	Ⴌ	cut_s_stereo_44KHz.wav
3	116	1	1	1	C	2	1	695	1	Ⴖ	cut_oei_stereo_44KHz.wav
3	117	2	1	0	C	1	1	1099	1	Ⴕ	cut_oei_stereo_44KHz.wav
3	118	3	3	2	I	1	0	746	1	Ⴐ	cut_j_stereo_44KHz.wav
3	119	4	3	2	I	1	0	537	0	Ⴌ	cut_j_stereo_44KHz.wav
3	120	1	2	0	C	1	1	1051	1	Ⴖ	cut_n_stereo_44KHz.wav
3	121	2	2	1	C	2	1	786	1	Ⴕ	cut_n_stereo_44KHz.wav
3	122	3	4	2	I	1	0	855	0	Ⴐ	cut_s_stereo_44KHz.wav
3	123	4	3	2	I	2	0	1278	1	Ⴌ	cut_j_stereo_44KHz.wav
3	124	1	2	0	C	2	0	778	0	Ⴖ	cut_n_stereo_44KHz.wav
3	125	4	4	2	I	2	0	891	0	Ⴌ	cut_s_stereo_44KHz.wav
3	126	1	1	1	C	2	1	971	1	Ⴖ	cut_oei_stereo_44KHz.wav
3	127	3	3	2	I	2	0	1027	1	Ⴐ	cut_j_stereo_44KHz.wav
3	128	2	1	0	C	1	1	967	1	Ⴕ	cut_oei_stereo_44KHz.wav
3	129	1	2	0	C	1	1	782	1	Ⴖ	cut_n_stereo_44KHz.wav
3	130	2	2	1	C	2	1	867	1	Ⴕ	cut_n_stereo_44KHz.wav
3	131	3	3	2	I	1	0	687	0	Ⴐ	cut_j_stereo_44KHz.wav
3	132	4	4	2	I	2	0	844	0	Ⴌ	cut_s_stereo_44KHz.wav
3	133	3	4	2	I	2	0	732	0	Ⴐ	cut_s_stereo_44KHz.wav
3	134	4	3	2	I	1	0	1201	0	Ⴌ	cut_j_stereo_44KHz.wav
3	135	2	1	0	C	1	1	887	1	Ⴕ	cut_oei_stereo_44KHz.wav
3	136	1	1	1	C	2	1	645	1	Ⴖ	cut_oei_stereo_44KHz.wav
3	137	3	4	2	I	1	0	721	0	Ⴐ	cut_s_stereo_44KHz.wav
3	138	1	2	0	C	1	1	784	1	Ⴖ	cut_n_stereo_44KHz.wav
3	139	4	4	2	I	1	0	825	0	Ⴌ	cut_s_stereo_44KHz.wav
3	140	2	1	0	C	1	1	589	1	Ⴕ	cut_oei_stereo_44KHz.wav
3	141	4	3	2	I	1	0	635	0	Ⴌ	cut_j_stereo_44KHz.wav
3	142	1	1	1	C	2	1	795	1	Ⴖ	cut_oei_stereo_44KHz.wav
3	143	3	3	2	I	1	0	761	1	Ⴐ	cut_j_stereo_44KHz.wav
3	144	2	2	1	C	2	1	806	1	Ⴕ	cut_n_stereo_44KHz.wav
3	145	4	3	2	I	1	0	788	1	Ⴌ	cut_j_stereo_44KHz.wav
3	146	2	2	1	C	2	1	666	1	Ⴕ	cut_n_stereo_44KHz.wav
3	147	1	2	0	C	1	1	610	1	Ⴖ	cut_n_stereo_44KHz.wav
3	148	3	3	2	I	1	0	720	0	Ⴐ	cut_j_stereo_44KHz.wav
3	149	2	1	0	C	1	1	965	1	Ⴕ	cut_oei_stereo_44KHz.wav
3	150	1	1	1	C	1	0	638	0	Ⴖ	cut_oei_stereo_44KHz.wav
3	151	4	4	2	I	2	0	1075	0	Ⴌ	cut_s_stereo_44KHz.wav
3	152	3	4	2	I	2	0	870	1	Ⴐ	cut_s_stereo_44KHz.wav
3	153	1	2	0	C	1	1	696	1	Ⴖ	cut_n_stereo_44KHz.wav
3	154	2	1	0	C	1	1	585	1	Ⴕ	cut_oei_stereo_44KHz.wav
3	155	4	4	2	I	2	0	1009	1	Ⴌ	cut_s_stereo_44KHz.wav
3	156	3	4	2	I	2	0	922	1	Ⴐ	cut_s_stereo_44KHz.wav
3	157	1	1	1	C	2	1	843	1	Ⴖ	cut_oei_stereo_44KHz.wav
3	158	4	3	2	I	2	0	961	1	Ⴌ	cut_j_stereo_44KHz.wav
3	159	2	2	1	C	2	1	832	1	Ⴕ	cut_n_stereo_44KHz.wav
3	160	3	3	2	I	1	0	1464	1	Ⴐ	cut_j_stereo_44KHz.wav
3	161	2	1	0	C	1	1	622	1	Ⴕ	cut_oei_stereo_44KHz.wav
3	162	1	1	1	C	2	1	917	1	Ⴖ	cut_oei_stereo_44KHz.wav
3	163	4	4	2	I	2	0	662	1	Ⴌ	cut_s_stereo_44KHz.wav
3	164	3	4	2	I	2	0	694	1	Ⴐ	cut_s_stereo_44KHz.wav
3	165	4	3	2	I	2	0	700	0	Ⴌ	cut_j_stereo_44KHz.wav
3	166	3	3	2	I	1	0	614	0	Ⴐ	cut_j_stereo_44KHz.wav
3	167	1	2	0	C	1	1	764	1	Ⴖ	cut_n_stereo_44KHz.wav
3	168	2	2	1	C	2	1	818	1	Ⴕ	cut_n_stereo_44KHz.wav
3	169	3	3	2	I	1	0	1037	0	Ⴐ	cut_j_stereo_44KHz.wav
3	170	1	2	0	C	1	1	834	1	Ⴖ	cut_n_stereo_44KHz.wav
3	171	4	3	2	I	2	0	668	0	Ⴌ	cut_j_stereo_44KHz.wav
3	172	2	2	1	C	2	1	919	1	Ⴕ	cut_n_stereo_44KHz.wav
3	173	4	4	2	I	2	0	710	1	Ⴌ	cut_s_stereo_44KHz.wav
3	174	2	1	0	C	1	1	793	1	Ⴕ	cut_oei_stereo_44KHz.wav
3	175	3	4	2	I	2	0	826	0	Ⴐ	cut_s_stereo_44KHz.wav
3	176	1	1	1	C	2	1	754	1	Ⴖ	cut_oei_stereo_44KHz.wav
3	177	3	3	2	I	1	0	790	0	Ⴐ	cut_j_stereo_44KHz.wav
3	178	4	4	2	I	2	0	786	1	Ⴌ	cut_s_stereo_44KHz.wav
3	179	2	1	0	C	1	1	535	1	Ⴕ	cut_oei_stereo_44KHz.wav
3	180	1	2	0	C	1	1	826	1	Ⴖ	cut_n_stereo_44KHz.wav
3	181	4	3	2	I	2	0	918	0	Ⴌ	cut_j_stereo_44KHz.wav
3	182	3	4	2	I	2	0	925	1	Ⴐ	cut_s_stereo_44KHz.wav
3	183	1	1	1	C	2	1	782	1	Ⴖ	cut_oei_stereo_44KHz.wav
3	184	2	2	1	C	2	1	673	1	Ⴕ	cut_n_stereo_44KHz.wav
3	185	4	4	2	I	1	0	1110	1	Ⴌ	cut_s_stereo_44KHz.wav
3	186	1	2	0	C	1	1	777	1	Ⴖ	cut_n_stereo_44KHz.wav
3	187	3	3	2	I	1	0	794	1	Ⴐ	cut_j_stereo_44KHz.wav
3	188	2	1	0	C	1	1	643	1	Ⴕ	cut_oei_stereo_44KHz.wav
3	189	3	4	2	I	2	0	1032	1	Ⴐ	cut_s_stereo_44KHz.wav
3	190	2	2	1	C	2	1	1216	1	Ⴕ	cut_n_stereo_44KHz.wav
3	191	4	3	2	I	2	0	824	0	Ⴌ	cut_j_stereo_44KHz.wav
3	192	1	1	1	C	2	1	1521	1	Ⴖ	cut_oei_stereo_44KHz.wav
3	193	2	2	1	C	2	1	613	1	Ⴕ	cut_n_stereo_44KHz.wav
3	194	3	3	2	I	1	0	790	1	Ⴐ	cut_j_stereo_44KHz.wav
3	195	4	4	2	I	2	0	581	1	Ⴌ	cut_s_stereo_44KHz.wav
3	196	1	1	1	C	2	1	789	1	Ⴖ	cut_oei_stereo_44KHz.wav
3	197	3	4	2	I	2	0	511	1	Ⴐ	cut_s_stereo_44KHz.wav
3	198	2	1	0	C	2	0	471	0	Ⴕ	cut_oei_stereo_44KHz.wav
3	199	1	2	0	C	1	1	605	1	Ⴖ	cut_n_stereo_44KHz.wav
3	200	4	3	2	I	2	0	973	0	Ⴌ	cut_j_stereo_44KHz.wav
4	1	3	4	2	I	2	0	946	0	Ⴜ	cut_u_stereo_44KHz.wav
4	2	1	2	0	C	2	0	678	0	Ⴇ	cut_a_stereo_44KHz.wav
4	3	2	1	0	C	2	0	745	0	Ⴂ	cut_o_stereo_44KHz.wav
4	4	4	4	2	I	1	0	687	1	Ⴊ	cut_u_stereo_44KHz.wav
4	5	3	3	2	I	1	0	812	0	Ⴜ	cut_k_stereo_44KHz.wav
4	6	2	2	1	C	1	0	796	0	Ⴂ	cut_a_stereo_44KHz.wav
4	7	1	1	1	C	2	1	571	1	Ⴇ	cut_o_stereo_44KHz.wav
4	8	4	3	2	I	2	0	716	0	Ⴊ	cut_k_stereo_44KHz.wav
4	9	2	1	0	C	2	0	915	0	Ⴂ	cut_o_stereo_44KHz.wav
4	10	1	2	0	C	2	0	809	0	Ⴇ	cut_a_stereo_44KHz.wav
4	11	4	4	2	I	2	0	985	0	Ⴊ	cut_u_stereo_44KHz.wav
4	12	3	4	2	I	2	0	753	0	Ⴜ	cut_u_stereo_44KHz.wav
4	13	2	2	1	C	2	1	1124	1	Ⴂ	cut_a_stereo_44KHz.wav
4	14	3	3	2	I	2	0	1031	0	Ⴜ	cut_k_stereo_44KHz.wav
4	15	1	1	1	C	2	1	1144	1	Ⴇ	cut_o_stereo_44KHz.wav
4	16	4	3	2	I	2	0	741	1	Ⴊ	cut_k_stereo_44KHz.wav
4	17	1	2	0	C	2	0	824	0	Ⴇ	cut_a_stereo_44KHz.wav
4	18	4	4	2	I	1	0	1237	1	Ⴊ	cut_u_stereo_44KHz.wav
4	19	2	2	1	C	2	1	985	1	Ⴂ	cut_a_stereo_44KHz.wav
4	20	3	4	2	I	2	0	668	1	Ⴜ	cut_u_stereo_44KHz.wav
4	21	4	3	2	I	2	0	806	1	Ⴊ	cut_k_stereo_44KHz.wav
4	22	2	1	0	C	2	0	730	0	Ⴂ	cut_o_stereo_44KHz.wav
4	23	3	3	2	I	1	0	854	1	Ⴜ	cut_k_stereo_44KHz.wav
4	24	1	1	1	C	2	1	809	1	Ⴇ	cut_o_stereo_44KHz.wav
4	25	3	3	2	I	1	0	647	0	Ⴜ	cut_k_stereo_44KHz.wav
4	26	1	2	0	C	1	1	742	1	Ⴇ	cut_a_stereo_44KHz.wav
4	27	2	2	1	C	2	1	751	1	Ⴂ	cut_a_stereo_44KHz.wav
4	28	4	4	2	I	1	0	1371	1	Ⴊ	cut_u_stereo_44KHz.wav
4	29	3	4	2	I	2	0	760	0	Ⴜ	cut_u_stereo_44KHz.wav
4	30	4	3	2	I	2	0	717	0	Ⴊ	cut_k_stereo_44KHz.wav
4	31	2	1	0	C	2	0	879	0	Ⴂ	cut_o_stereo_44KHz.wav
4	32	1	1	1	C	2	1	600	1	Ⴇ	cut_o_stereo_44KHz.wav
4	33	2	2	1	C	2	1	695	1	Ⴂ	cut_a_stereo_44KHz.wav
4	34	3	3	2	I	2	0	655	0	Ⴜ	cut_k_stereo_44KHz.wav
4	35	1	2	0	C	1	1	1233	1	Ⴇ	cut_a_stereo_44KHz.wav
4	36	4	3	2	I	2	0	837	1	Ⴊ	cut_k_stereo_44KHz.wav
4	37	1	1	1	C	2	1	691	1	Ⴇ	cut_o_stereo_44KHz.wav
4	38	4	4	2	I	2	0	801	1	Ⴊ	cut_u_stereo_44KHz.wav
4	39	2	1	0	C	2	0	848	0	Ⴂ	cut_o_stereo_44KHz.wav
4	40	3	4	2	I	2	0	813	1	Ⴜ	cut_u_stereo_44KHz.wav
4	41	2	1	0	C	2	0	823	0	Ⴂ	cut_o_stereo_44KHz.wav
4	42	1	2	0	C	1	1	851	1	Ⴇ	cut_a_stereo_44KHz.wav
4	43	3	3	2	I	2	0	735	0	Ⴜ	cut_k_stereo_44KHz.wav
4	44	4	4	2	I	2	0	1389	1	Ⴊ	cut_u_stereo_44KHz.wav
4	45	1	1	1	C	2	1	810	1	Ⴇ	cut_o_stereo_44KHz.wav
4	46	2	2	1	C	2	1	783	1	Ⴂ	cut_a_stereo_44KHz.wav
4	47	3	4	2	I	2	0	936	0	Ⴜ	cut_u_stereo_44KHz.wav
4	48	4	3	2	I	2	0	768	1	Ⴊ	cut_k_stereo_44KHz.wav
4	49	1	1	1	C	2	1	735	1	Ⴇ	cut_o_stereo_44KHz.wav
4	50	2	1	0	C	2	0	536	0	Ⴂ	cut_o_stereo_44KHz.wav
4	51	3	4	2	I	2	0	805	1	Ⴜ	cut_u_stereo_44KHz.wav
4	52	4	4	2	I	2	0	685	1	Ⴊ	cut_u_stereo_44KHz.wav
4	53	1	2	0	C	1	1	609	1	Ⴇ	cut_a_stereo_44KHz.wav
4	54	4	3	2	I	2	0	675	1	Ⴊ	cut_k_stereo_44KHz.wav
4	55	3	3	2	I	1	0	811	0	Ⴜ	cut_k_stereo_44KHz.wav
4	56	2	2	1	C	2	1	852	1	Ⴂ	cut_a_stereo_44KHz.wav
4	57	3	3	2	I	1	0	669	0	Ⴜ	cut_k_stereo_44KHz.wav
4	58	4	3	2	I	2	0	768	1	Ⴊ	cut_k_stereo_44KHz.wav
4	59	2	2	1	C	2	1	723	1	Ⴂ	cut_a_stereo_44KHz.wav
4	60	1	2	0	C	1	1	787	1	Ⴇ	cut_a_stereo_44KHz.wav
4	61	4	4	2	I	2	0	698	0	Ⴊ	cut_u_stereo_44KHz.wav
4	62	1	1	1	C	2	1	940	1	Ⴇ	cut_o_stereo_44KHz.wav
4	63	3	4	2	I	2	0	696	0	Ⴜ	cut_u_stereo_44KHz.wav
4	64	2	1	0	C	2	0	709	0	Ⴂ	cut_o_stereo_44KHz.wav
4	65	3	3	2	I	2	0	745	1	Ⴜ	cut_k_stereo_44KHz.wav
4	66	4	3	2	I	2	0	648	0	Ⴊ	cut_k_stereo_44KHz.wav
4	67	1	1	1	C	2	1	772	1	Ⴇ	cut_o_stereo_44KHz.wav
4	68	2	2	1	C	2	1	1430	1	Ⴂ	cut_a_stereo_44KHz.wav
4	69	1	2	0	C	1	1	1360	1	Ⴇ	cut_a_stereo_44KHz.wav
4	70	3	4	2	I	2	0	712	0	Ⴜ	cut_u_stereo_44KHz.wav
4	71	4	4	2	I	2	0	938	0	Ⴊ	cut_u_stereo_44KHz.wav
4	72	2	1	0	C	2	0	730	0	Ⴂ	cut_o_stereo_44KHz.wav
4	73	1	1	1	C	2	1	663	1	Ⴇ	cut_o_stereo_44KHz.wav
4	74	3	3	2	I	1	0	846	0	Ⴜ	cut_k_stereo_44KHz.wav
4	75	2	1	0	C	2	0	621	0	Ⴂ	cut_o_stereo_44KHz.wav
4	76	4	4	2	I	1	0	830	1	Ⴊ	cut_u_stereo_44KHz.wav
4	77	2	2	1	C	1	0	994	0	Ⴂ	cut_a_stereo_44KHz.wav
4	78	1	2	0	C	1	1	685	1	Ⴇ	cut_a_stereo_44KHz.wav
4	79	4	3	2	I	2	0	570	0	Ⴊ	cut_k_stereo_44KHz.wav
4	80	3	4	2	I	2	0	683	0	Ⴜ	cut_u_stereo_44KHz.wav
4	81	2	2	1	C	2	1	655	1	Ⴂ	cut_a_stereo_44KHz.wav
4	82	3	4	2	I	2	0	749	1	Ⴜ	cut_u_stereo_44KHz.wav
4	83	1	1	1	C	2	1	553	1	Ⴇ	cut_o_stereo_44KHz.wav
4	84	4	4	2	I	2	0	806	0	Ⴊ	cut_u_stereo_44KHz.wav
4	85	3	3	2	I	2	0	618	0	Ⴜ	cut_k_stereo_44KHz.wav
4	86	4	3	2	I	2	0	715	1	Ⴊ	cut_k_stereo_44KHz.wav
4	87	2	1	0	C	2	0	558	0	Ⴂ	cut_o_stereo_44KHz.wav
4	88	1	2	0	C	1	1	626	1	Ⴇ	cut_a_stereo_44KHz.wav
4	89	4	3	2	I	2	0	945	0	Ⴊ	cut_k_stereo_44KHz.wav
4	90	1	2	0	C	1	1	736	1	Ⴇ	cut_a_stereo_44KHz.wav
4	91	2	2	1	C	2	1	719	1	Ⴂ	cut_a_stereo_44KHz.wav
4	92	3	3	2	I	1	0	1189	1	Ⴜ	cut_k_stereo_44KHz.wav
4	93	1	1	1	C	2	1	908	1	Ⴇ	cut_o_stereo_44KHz.wav
4	94	2	1	0	C	1	1	649	1	Ⴂ	cut_o_stereo_44KHz.wav
4	95	4	4	2	I	1	0	749	1	Ⴊ	cut_u_stereo_44KHz.wav
4	96	3	4	2	I	2	0	783	0	Ⴜ	cut_u_stereo_44KHz.wav
4	97	4	3	2	I	2	0	541	0	Ⴊ	cut_k_stereo_44KHz.wav
4	98	3	4	2	I	2	0	714	1	Ⴜ	cut_u_stereo_44KHz.wav
4	99	2	1	0	C	1	1	1282	1	Ⴂ	cut_o_stereo_44KHz.wav
4	100	1	1	1	C	2	1	931	1	Ⴇ	cut_o_stereo_44KHz.wav
4	101	2	2	1	C	2	1	844	1	Ⴂ	cut_a_stereo_44KHz.wav
4	102	3	3	2	I	1	0	1123	1	Ⴜ	cut_k_stereo_44KHz.wav
4	103	1	2	0	C	1	1	935	1	Ⴇ	cut_a_stereo_44KHz.wav
4	104	4	4	2	I	2	0	728	1	Ⴊ	cut_u_stereo_44KHz.wav
4	105	1	1	1	C	2	1	1060	1	Ⴇ	cut_o_stereo_44KHz.wav
4	106	2	1	0	C	2	0	691	0	Ⴂ	cut_o_stereo_44KHz.wav
4	107	4	4	2	I	2	0	685	0	Ⴊ	cut_u_stereo_44KHz.wav
4	108	3	4	2	I	2	0	855	1	Ⴜ	cut_u_stereo_44KHz.wav
4	109	1	2	0	C	1	1	783	1	Ⴇ	cut_a_stereo_44KHz.wav
4	110	4	3	2	I	2	0	623	0	Ⴊ	cut_k_stereo_44KHz.wav
4	111	3	3	2	I	1	0	906	0	Ⴜ	cut_k_stereo_44KHz.wav
4	112	2	2	1	C	2	1	782	1	Ⴂ	cut_a_stereo_44KHz.wav
4	113	1	1	1	C	2	1	692	1	Ⴇ	cut_o_stereo_44KHz.wav
4	114	4	4	2	I	2	0	727	1	Ⴊ	cut_u_stereo_44KHz.wav
4	115	2	2	1	C	2	1	1682	1	Ⴂ	cut_a_stereo_44KHz.wav
4	116	3	3	2	I	1	0	773	1	Ⴜ	cut_k_stereo_44KHz.wav
4	117	2	1	0	C	2	0	672	0	Ⴂ	cut_o_stereo_44KHz.wav
4	118	1	2	0	C	1	1	711	1	Ⴇ	cut_a_stereo_44KHz.wav
4	119	3	4	2	I	0	0	0	0	Ⴜ	cut_u_stereo_44KHz.wav
4	120	4	3	2	I	2	0	724	1	Ⴊ	cut_k_stereo_44KHz.wav
4	121	3	4	2	I	2	0	707	0	Ⴜ	cut_u_stereo_44KHz.wav
4	122	4	3	2	I	2	0	729	1	Ⴊ	cut_k_stereo_44KHz.wav
4	123	1	1	1	C	2	1	621	1	Ⴇ	cut_o_stereo_44KHz.wav
4	124	2	2	1	C	2	1	548	1	Ⴂ	cut_a_stereo_44KHz.wav
4	125	4	4	2	I	2	0	571	0	Ⴊ	cut_u_stereo_44KHz.wav
4	126	3	3	2	I	2	0	532	1	Ⴜ	cut_k_stereo_44KHz.wav
4	127	1	2	0	C	1	1	863	1	Ⴇ	cut_a_stereo_44KHz.wav
4	128	2	1	0	C	2	0	830	0	Ⴂ	cut_o_stereo_44KHz.wav
4	129	1	2	0	C	1	1	726	1	Ⴇ	cut_a_stereo_44KHz.wav
4	130	2	1	0	C	2	0	685	0	Ⴂ	cut_o_stereo_44KHz.wav
4	131	4	4	2	I	2	0	696	1	Ⴊ	cut_u_stereo_44KHz.wav
4	132	3	4	2	I	2	0	520	0	Ⴜ	cut_u_stereo_44KHz.wav
4	133	1	1	1	C	2	1	722	1	Ⴇ	cut_o_stereo_44KHz.wav
4	134	2	2	1	C	2	1	564	1	Ⴂ	cut_a_stereo_44KHz.wav
4	135	3	3	2	I	1	0	1080	1	Ⴜ	cut_k_stereo_44KHz.wav
4	136	4	3	2	I	2	0	647	1	Ⴊ	cut_k_stereo_44KHz.wav
4	137	2	2	1	C	2	1	708	1	Ⴂ	cut_a_stereo_44KHz.wav
4	138	3	3	2	I	1	0	638	0	Ⴜ	cut_k_stereo_44KHz.wav
4	139	1	2	0	C	1	1	623	1	Ⴇ	cut_a_stereo_44KHz.wav
4	140	4	4	2	I	2	0	659	0	Ⴊ	cut_u_stereo_44KHz.wav
4	141	2	1	0	C	2	0	791	0	Ⴂ	cut_o_stereo_44KHz.wav
4	142	4	3	2	I	2	0	666	0	Ⴊ	cut_k_stereo_44KHz.wav
4	143	3	4	2	I	2	0	703	1	Ⴜ	cut_u_stereo_44KHz.wav
4	144	1	1	1	C	2	1	659	1	Ⴇ	cut_o_stereo_44KHz.wav
4	145	4	4	2	I	2	0	587	0	Ⴊ	cut_u_stereo_44KHz.wav
4	146	1	1	1	C	2	1	648	1	Ⴇ	cut_o_stereo_44KHz.wav
4	147	3	3	2	I	1	0	1014	1	Ⴜ	cut_k_stereo_44KHz.wav
4	148	2	1	0	C	2	0	590	0	Ⴂ	cut_o_stereo_44KHz.wav
4	149	4	3	2	I	2	0	649	1	Ⴊ	cut_k_stereo_44KHz.wav
4	150	3	4	2	I	1	0	989	0	Ⴜ	cut_u_stereo_44KHz.wav
4	151	2	2	1	C	2	1	636	1	Ⴂ	cut_a_stereo_44KHz.wav
4	152	1	2	0	C	2	0	700	0	Ⴇ	cut_a_stereo_44KHz.wav
4	153	2	2	1	C	2	1	623	1	Ⴂ	cut_a_stereo_44KHz.wav
4	154	3	4	2	I	2	0	800	1	Ⴜ	cut_u_stereo_44KHz.wav
4	155	4	4	2	I	2	0	1098	1	Ⴊ	cut_u_stereo_44KHz.wav
4	156	1	2	0	C	1	1	699	1	Ⴇ	cut_a_stereo_44KHz.wav
4	157	2	1	0	C	2	0	705	0	Ⴂ	cut_o_stereo_44KHz.wav
4	158	3	3	2	I	1	0	785	0	Ⴜ	cut_k_stereo_44KHz.wav
4	159	4	3	2	I	2	0	952	0	Ⴊ	cut_k_stereo_44KHz.wav
4	160	1	1	1	C	2	1	1299	1	Ⴇ	cut_o_stereo_44KHz.wav
4	161	4	3	2	I	2	0	1163	0	Ⴊ	cut_k_stereo_44KHz.wav
4	162	3	4	2	I	2	0	711	1	Ⴜ	cut_u_stereo_44KHz.wav
4	163	1	2	0	C	1	1	948	1	Ⴇ	cut_a_stereo_44KHz.wav
4	164	2	1	0	C	1	1	811	1	Ⴂ	cut_o_stereo_44KHz.wav
4	165	3	3	2	I	2	0	1165	1	Ⴜ	cut_k_stereo_44KHz.wav
4	166	4	4	2	I	2	0	650	0	Ⴊ	cut_u_stereo_44KHz.wav
4	167	1	1	1	C	2	1	833	1	Ⴇ	cut_o_stereo_44KHz.wav
4	168	2	2	1	C	2	1	804	1	Ⴂ	cut_a_stereo_44KHz.wav
4	169	3	4	2	I	2	0	593	0	Ⴜ	cut_u_stereo_44KHz.wav
4	170	2	1	0	C	2	0	628	0	Ⴂ	cut_o_stereo_44KHz.wav
4	171	1	1	1	C	2	1	751	1	Ⴇ	cut_o_stereo_44KHz.wav
4	172	4	4	2	I	2	0	638	1	Ⴊ	cut_u_stereo_44KHz.wav
4	173	1	2	0	C	1	1	729	1	Ⴇ	cut_a_stereo_44KHz.wav
4	174	2	2	1	C	2	1	633	1	Ⴂ	cut_a_stereo_44KHz.wav
4	175	3	3	2	I	2	0	567	1	Ⴜ	cut_k_stereo_44KHz.wav
4	176	4	3	2	I	2	0	601	0	Ⴊ	cut_k_stereo_44KHz.wav
4	177	3	4	2	I	2	0	741	1	Ⴜ	cut_u_stereo_44KHz.wav
4	178	1	1	1	C	2	1	1134	1	Ⴇ	cut_o_stereo_44KHz.wav
4	179	2	2	1	C	2	1	709	1	Ⴂ	cut_a_stereo_44KHz.wav
4	180	4	3	2	I	2	0	520	0	Ⴊ	cut_k_stereo_44KHz.wav
4	181	3	3	2	I	2	0	540	1	Ⴜ	cut_k_stereo_44KHz.wav
4	182	2	1	0	C	1	1	844	1	Ⴂ	cut_o_stereo_44KHz.wav
4	183	4	4	2	I	2	0	716	0	Ⴊ	cut_u_stereo_44KHz.wav
4	184	1	2	0	C	2	0	1347	0	Ⴇ	cut_a_stereo_44KHz.wav
4	185	3	4	2	I	2	0	820	1	Ⴜ	cut_u_stereo_44KHz.wav
4	186	4	4	2	I	2	0	1082	1	Ⴊ	cut_u_stereo_44KHz.wav
4	187	1	1	1	C	2	1	813	1	Ⴇ	cut_o_stereo_44KHz.wav
4	188	2	2	1	C	2	1	812	1	Ⴂ	cut_a_stereo_44KHz.wav
4	189	3	3	2	I	1	0	795	1	Ⴜ	cut_k_stereo_44KHz.wav
4	190	1	2	0	C	1	1	634	1	Ⴇ	cut_a_stereo_44KHz.wav
4	191	2	1	0	C	1	1	821	1	Ⴂ	cut_o_stereo_44KHz.wav
4	192	4	3	2	I	2	0	637	0	Ⴊ	cut_k_stereo_44KHz.wav
4	193	2	2	1	C	2	1	1054	1	Ⴂ	cut_a_stereo_44KHz.wav
4	194	3	3	2	I	2	0	1180	0	Ⴜ	cut_k_stereo_44KHz.wav
4	195	4	4	2	I	2	0	826	0	Ⴊ	cut_u_stereo_44KHz.wav
4	196	1	2	0	C	1	1	798	1	Ⴇ	cut_a_stereo_44KHz.wav
4	197	3	4	2	I	2	0	880	1	Ⴜ	cut_u_stereo_44KHz.wav
4	198	1	1	1	C	2	1	705	1	Ⴇ	cut_o_stereo_44KHz.wav
4	199	4	3	2	I	2	0	671	0	Ⴊ	cut_k_stereo_44KHz.wav
4	200	2	1	0	C	1	1	850	1	Ⴂ	cut_o_stereo_44KHz.wav
