block	trial	Vstim	Astim	match	C/I	resp	result	RT	fb	V-file	A-file
LR

0	1	1	1	1	C	0	0	0	0	poli_8sides 21_whiteLine3.jpg	Practice2_b27_cut2_stereo_44KHz.wav
0	2	2	4	0	C	1	1	757	1	poli_8sides 23_whiteLine3.jpg	Practice3_b26_cut1_stereo_44KHz.wav
0	3	1	2	0	C	2	0	728	0	poli_8sides 21_whiteLine3.jpg	Practice4_b26_stereo_44KHz.wav
0	4	2	3	1	C	1	0	1092	0	poli_8sides 23_whiteLine3.jpg	Practice1_b27_cut1_stereo_44KHz.wav
0	5	2	4	0	C	1	1	1014	1	poli_8sides 23_whiteLine3.jpg	Practice3_b26_cut1_stereo_44KHz.wav
0	6	2	3	1	C	2	1	819	1	poli_8sides 23_whiteLine3.jpg	Practice1_b27_cut1_stereo_44KHz.wav
0	7	1	2	0	C	2	0	829	0	poli_8sides 21_whiteLine3.jpg	Practice4_b26_stereo_44KHz.wav
0	8	1	1	1	C	1	0	767	0	poli_8sides 21_whiteLine3.jpg	Practice2_b27_cut2_stereo_44KHz.wav
0	9	2	3	1	C	1	0	928	0	poli_8sides 23_whiteLine3.jpg	Practice1_b27_cut1_stereo_44KHz.wav
0	10	2	4	0	C	1	1	1459	1	poli_8sides 23_whiteLine3.jpg	Practice3_b26_cut1_stereo_44KHz.wav
0	11	1	1	1	C	1	0	1360	0	poli_8sides 21_whiteLine3.jpg	Practice2_b27_cut2_stereo_44KHz.wav
0	12	1	2	0	C	1	1	897	1	poli_8sides 21_whiteLine3.jpg	Practice4_b26_stereo_44KHz.wav
0	13	1	1	1	C	2	1	1135	1	poli_8sides 21_whiteLine3.jpg	Practice2_b27_cut2_stereo_44KHz.wav
0	14	1	2	0	C	2	0	701	0	poli_8sides 21_whiteLine3.jpg	Practice4_b26_stereo_44KHz.wav
0	15	2	3	1	C	1	0	1162	0	poli_8sides 23_whiteLine3.jpg	Practice1_b27_cut1_stereo_44KHz.wav
0	16	2	4	0	C	2	0	760	0	poli_8sides 23_whiteLine3.jpg	Practice3_b26_cut1_stereo_44KHz.wav
0	17	2	3	1	C	2	1	767	1	poli_8sides 23_whiteLine3.jpg	Practice1_b27_cut1_stereo_44KHz.wav
0	18	2	4	0	C	2	0	977	0	poli_8sides 23_whiteLine3.jpg	Practice3_b26_cut1_stereo_44KHz.wav
0	19	1	2	0	C	1	1	805	1	poli_8sides 21_whiteLine3.jpg	Practice4_b26_stereo_44KHz.wav
0	20	1	1	1	C	1	0	584	0	poli_8sides 21_whiteLine3.jpg	Practice2_b27_cut2_stereo_44KHz.wav
0	21	1	1	1	C	1	0	823	0	poli_8sides 21_whiteLine3.jpg	Practice2_b27_cut2_stereo_44KHz.wav
0	22	2	4	0	C	1	1	923	1	poli_8sides 23_whiteLine3.jpg	Practice3_b26_cut1_stereo_44KHz.wav
0	23	2	3	1	C	2	1	861	1	poli_8sides 23_whiteLine3.jpg	Practice1_b27_cut1_stereo_44KHz.wav
0	24	1	2	0	C	1	1	1050	1	poli_8sides 21_whiteLine3.jpg	Practice4_b26_stereo_44KHz.wav
0	25	2	3	1	C	1	0	880	0	poli_8sides 23_whiteLine3.jpg	Practice1_b27_cut1_stereo_44KHz.wav
0	26	1	2	0	C	1	1	807	1	poli_8sides 21_whiteLine3.jpg	Practice4_b26_stereo_44KHz.wav
0	27	2	4	0	C	2	0	1271	0	poli_8sides 23_whiteLine3.jpg	Practice3_b26_cut1_stereo_44KHz.wav
0	28	1	1	1	C	1	0	633	0	poli_8sides 21_whiteLine3.jpg	Practice2_b27_cut2_stereo_44KHz.wav
0	29	2	4	0	C	2	0	887	0	poli_8sides 23_whiteLine3.jpg	Practice3_b26_cut1_stereo_44KHz.wav
0	30	1	2	0	C	1	1	748	1	poli_8sides 21_whiteLine3.jpg	Practice4_b26_stereo_44KHz.wav
avg_resp = 926
1	1	2	1	0	C	2	0	1266	0	poli_8sides 13_whiteLine3.jpg	MediumLong_b10_cut2_L_stereo_44KHz.wav
1	2	3	4	2	I	2	0	1310	1	poli_8sides 15_whiteLine3.jpg	Medium_e26_stereo_44KHz.wav
1	3	4	3	2	I	2	0	1380	1	poli_8sides 8_whiteLine3.jpg	Medium_e01_cut1_stereo_44KHz.wav
1	4	1	2	0	C	1	1	966	1	poli_8sides 7_whiteLine3.jpg	MediumLong_e19_stereo_44KHz.wav
1	5	3	3	2	I	2	0	1363	0	poli_8sides 15_whiteLine3.jpg	Medium_e01_cut1_stereo_44KHz.wav
1	6	1	1	1	C	2	1	1358	1	poli_8sides 7_whiteLine3.jpg	MediumLong_b10_cut2_L_stereo_44KHz.wav
1	7	4	4	2	I	2	0	931	1	poli_8sides 8_whiteLine3.jpg	Medium_e26_stereo_44KHz.wav
1	8	2	2	1	C	1	0	1481	0	poli_8sides 13_whiteLine3.jpg	MediumLong_e19_stereo_44KHz.wav
1	9	1	1	1	C	2	1	874	1	poli_8sides 7_whiteLine3.jpg	MediumLong_b10_cut2_L_stereo_44KHz.wav
1	10	2	2	1	C	1	0	961	0	poli_8sides 13_whiteLine3.jpg	MediumLong_e19_stereo_44KHz.wav
1	11	3	3	2	I	1	0	1238	0	poli_8sides 15_whiteLine3.jpg	Medium_e01_cut1_stereo_44KHz.wav
1	12	4	4	2	I	1	0	963	1	poli_8sides 8_whiteLine3.jpg	Medium_e26_stereo_44KHz.wav
1	13	2	1	0	C	1	1	1113	1	poli_8sides 13_whiteLine3.jpg	MediumLong_b10_cut2_L_stereo_44KHz.wav
1	14	4	3	2	I	2	0	1001	0	poli_8sides 8_whiteLine3.jpg	Medium_e01_cut1_stereo_44KHz.wav
1	15	3	4	2	I	2	0	1215	0	poli_8sides 15_whiteLine3.jpg	Medium_e26_stereo_44KHz.wav
1	16	1	2	0	C	1	1	814	1	poli_8sides 7_whiteLine3.jpg	MediumLong_e19_stereo_44KHz.wav
1	17	3	4	2	I	1	0	1282	1	poli_8sides 15_whiteLine3.jpg	Medium_e26_stereo_44KHz.wav
1	18	1	1	1	C	2	1	1022	1	poli_8sides 7_whiteLine3.jpg	MediumLong_b10_cut2_L_stereo_44KHz.wav
1	19	4	4	2	I	1	0	942	0	poli_8sides 8_whiteLine3.jpg	Medium_e26_stereo_44KHz.wav
1	20	2	2	1	C	1	0	1034	0	poli_8sides 13_whiteLine3.jpg	MediumLong_e19_stereo_44KHz.wav
1	21	1	2	0	C	2	0	889	0	poli_8sides 7_whiteLine3.jpg	MediumLong_e19_stereo_44KHz.wav
1	22	3	3	2	I	2	0	905	0	poli_8sides 15_whiteLine3.jpg	Medium_e01_cut1_stereo_44KHz.wav
1	23	4	3	2	I	2	0	749	0	poli_8sides 8_whiteLine3.jpg	Medium_e01_cut1_stereo_44KHz.wav
1	24	2	1	0	C	2	0	800	0	poli_8sides 13_whiteLine3.jpg	MediumLong_b10_cut2_L_stereo_44KHz.wav
1	25	3	3	2	I	2	0	781	0	poli_8sides 15_whiteLine3.jpg	Medium_e01_cut1_stereo_44KHz.wav
1	26	1	1	1	C	2	1	916	1	poli_8sides 7_whiteLine3.jpg	MediumLong_b10_cut2_L_stereo_44KHz.wav
1	27	2	2	1	C	1	0	888	0	poli_8sides 13_whiteLine3.jpg	MediumLong_e19_stereo_44KHz.wav
1	28	4	4	2	I	1	0	784	0	poli_8sides 8_whiteLine3.jpg	Medium_e26_stereo_44KHz.wav
1	29	2	1	0	C	2	0	767	0	poli_8sides 13_whiteLine3.jpg	MediumLong_b10_cut2_L_stereo_44KHz.wav
1	30	1	2	0	C	1	1	606	1	poli_8sides 7_whiteLine3.jpg	MediumLong_e19_stereo_44KHz.wav
1	31	3	4	2	I	1	0	1198	1	poli_8sides 15_whiteLine3.jpg	Medium_e26_stereo_44KHz.wav
1	32	4	3	2	I	2	0	724	0	poli_8sides 8_whiteLine3.jpg	Medium_e01_cut1_stereo_44KHz.wav
1	33	1	1	1	C	2	1	770	1	poli_8sides 7_whiteLine3.jpg	MediumLong_b10_cut2_L_stereo_44KHz.wav
1	34	2	1	0	C	2	0	1042	0	poli_8sides 13_whiteLine3.jpg	MediumLong_b10_cut2_L_stereo_44KHz.wav
1	35	3	3	2	I	2	0	736	0	poli_8sides 15_whiteLine3.jpg	Medium_e01_cut1_stereo_44KHz.wav
1	36	4	3	2	I	1	0	1026	0	poli_8sides 8_whiteLine3.jpg	Medium_e01_cut1_stereo_44KHz.wav
1	37	2	2	1	C	1	0	946	0	poli_8sides 13_whiteLine3.jpg	MediumLong_e19_stereo_44KHz.wav
1	38	4	4	2	I	2	0	1781	1	poli_8sides 8_whiteLine3.jpg	Medium_e26_stereo_44KHz.wav
1	39	1	2	0	C	1	1	1088	1	poli_8sides 7_whiteLine3.jpg	MediumLong_e19_stereo_44KHz.wav
1	40	3	4	2	I	1	0	731	0	poli_8sides 15_whiteLine3.jpg	Medium_e26_stereo_44KHz.wav
1	41	2	2	1	C	2	1	681	1	poli_8sides 13_whiteLine3.jpg	MediumLong_e19_stereo_44KHz.wav
1	42	1	1	1	C	2	1	803	1	poli_8sides 7_whiteLine3.jpg	MediumLong_b10_cut2_L_stereo_44KHz.wav
1	43	3	4	2	I	2	0	735	0	poli_8sides 15_whiteLine3.jpg	Medium_e26_stereo_44KHz.wav
1	44	4	4	2	I	2	0	845	0	poli_8sides 8_whiteLine3.jpg	Medium_e26_stereo_44KHz.wav
1	45	1	2	0	C	1	1	1130	1	poli_8sides 7_whiteLine3.jpg	MediumLong_e19_stereo_44KHz.wav
1	46	2	1	0	C	2	0	1234	0	poli_8sides 13_whiteLine3.jpg	MediumLong_b10_cut2_L_stereo_44KHz.wav
1	47	4	3	2	I	2	0	1281	0	poli_8sides 8_whiteLine3.jpg	Medium_e01_cut1_stereo_44KHz.wav
1	48	3	3	2	I	2	0	1119	1	poli_8sides 15_whiteLine3.jpg	Medium_e01_cut1_stereo_44KHz.wav
1	49	2	1	0	C	2	0	1351	0	poli_8sides 13_whiteLine3.jpg	MediumLong_b10_cut2_L_stereo_44KHz.wav
1	50	1	1	1	C	2	1	729	1	poli_8sides 7_whiteLine3.jpg	MediumLong_b10_cut2_L_stereo_44KHz.wav
1	51	3	4	2	I	2	0	728	0	poli_8sides 15_whiteLine3.jpg	Medium_e26_stereo_44KHz.wav
1	52	4	3	2	I	2	0	566	1	poli_8sides 8_whiteLine3.jpg	Medium_e01_cut1_stereo_44KHz.wav
1	53	3	3	2	I	2	0	639	0	poli_8sides 15_whiteLine3.jpg	Medium_e01_cut1_stereo_44KHz.wav
1	54	1	2	0	C	1	1	571	1	poli_8sides 7_whiteLine3.jpg	MediumLong_e19_stereo_44KHz.wav
1	55	4	4	2	I	2	0	765	1	poli_8sides 8_whiteLine3.jpg	Medium_e26_stereo_44KHz.wav
1	56	2	2	1	C	2	1	645	1	poli_8sides 13_whiteLine3.jpg	MediumLong_e19_stereo_44KHz.wav
1	57	1	1	1	C	2	1	698	1	poli_8sides 7_whiteLine3.jpg	MediumLong_b10_cut2_L_stereo_44KHz.wav
1	58	2	1	0	C	2	0	574	0	poli_8sides 13_whiteLine3.jpg	MediumLong_b10_cut2_L_stereo_44KHz.wav
1	59	3	3	2	I	2	0	647	0	poli_8sides 15_whiteLine3.jpg	Medium_e01_cut1_stereo_44KHz.wav
1	60	4	3	2	I	2	0	595	1	poli_8sides 8_whiteLine3.jpg	Medium_e01_cut1_stereo_44KHz.wav
1	61	1	2	0	C	1	1	620	1	poli_8sides 7_whiteLine3.jpg	MediumLong_e19_stereo_44KHz.wav
1	62	3	4	2	I	2	0	722	0	poli_8sides 15_whiteLine3.jpg	Medium_e26_stereo_44KHz.wav
1	63	4	4	2	I	2	0	685	0	poli_8sides 8_whiteLine3.jpg	Medium_e26_stereo_44KHz.wav
1	64	2	2	1	C	2	1	1215	1	poli_8sides 13_whiteLine3.jpg	MediumLong_e19_stereo_44KHz.wav
1	65	4	4	2	I	1	0	959	1	poli_8sides 8_whiteLine3.jpg	Medium_e26_stereo_44KHz.wav
1	66	3	3	2	I	1	0	551	1	poli_8sides 15_whiteLine3.jpg	Medium_e01_cut1_stereo_44KHz.wav
1	67	2	1	0	C	2	0	516	0	poli_8sides 13_whiteLine3.jpg	MediumLong_b10_cut2_L_stereo_44KHz.wav
1	68	1	2	0	C	1	1	534	1	poli_8sides 7_whiteLine3.jpg	MediumLong_e19_stereo_44KHz.wav
1	69	4	3	2	I	2	0	484	0	poli_8sides 8_whiteLine3.jpg	Medium_e01_cut1_stereo_44KHz.wav
1	70	3	4	2	I	1	0	647	1	poli_8sides 15_whiteLine3.jpg	Medium_e26_stereo_44KHz.wav
1	71	2	2	1	C	1	0	493	0	poli_8sides 13_whiteLine3.jpg	MediumLong_e19_stereo_44KHz.wav
1	72	1	1	1	C	2	1	1182	1	poli_8sides 7_whiteLine3.jpg	MediumLong_b10_cut2_L_stereo_44KHz.wav
1	73	4	3	2	I	2	0	621	1	poli_8sides 8_whiteLine3.jpg	Medium_e01_cut1_stereo_44KHz.wav
1	74	2	1	0	C	2	0	561	0	poli_8sides 13_whiteLine3.jpg	MediumLong_b10_cut2_L_stereo_44KHz.wav
1	75	3	4	2	I	2	0	620	1	poli_8sides 15_whiteLine3.jpg	Medium_e26_stereo_44KHz.wav
1	76	1	2	0	C	1	1	496	1	poli_8sides 7_whiteLine3.jpg	MediumLong_e19_stereo_44KHz.wav
1	77	4	4	2	I	2	0	519	1	poli_8sides 8_whiteLine3.jpg	Medium_e26_stereo_44KHz.wav
1	78	2	2	1	C	2	1	581	1	poli_8sides 13_whiteLine3.jpg	MediumLong_e19_stereo_44KHz.wav
1	79	1	1	1	C	2	1	635	1	poli_8sides 7_whiteLine3.jpg	MediumLong_b10_cut2_L_stereo_44KHz.wav
1	80	3	3	2	I	2	0	545	1	poli_8sides 15_whiteLine3.jpg	Medium_e01_cut1_stereo_44KHz.wav
1	81	1	2	0	C	2	0	389	0	poli_8sides 7_whiteLine3.jpg	MediumLong_e19_stereo_44KHz.wav
1	82	3	4	2	I	2	0	584	1	poli_8sides 15_whiteLine3.jpg	Medium_e26_stereo_44KHz.wav
1	83	4	3	2	I	2	0	609	0	poli_8sides 8_whiteLine3.jpg	Medium_e01_cut1_stereo_44KHz.wav
1	84	2	1	0	C	2	0	525	0	poli_8sides 13_whiteLine3.jpg	MediumLong_b10_cut2_L_stereo_44KHz.wav
1	85	3	3	2	I	1	0	720	0	poli_8sides 15_whiteLine3.jpg	Medium_e01_cut1_stereo_44KHz.wav
1	86	4	4	2	I	2	0	479	1	poli_8sides 8_whiteLine3.jpg	Medium_e26_stereo_44KHz.wav
1	87	1	1	1	C	1	0	483	0	poli_8sides 7_whiteLine3.jpg	MediumLong_b10_cut2_L_stereo_44KHz.wav
1	88	2	2	1	C	1	0	559	0	poli_8sides 13_whiteLine3.jpg	MediumLong_e19_stereo_44KHz.wav
1	89	3	3	2	I	1	0	511	1	poli_8sides 15_whiteLine3.jpg	Medium_e01_cut1_stereo_44KHz.wav
1	90	4	3	2	I	1	0	580	0	poli_8sides 8_whiteLine3.jpg	Medium_e01_cut1_stereo_44KHz.wav
1	91	2	2	1	C	2	1	796	1	poli_8sides 13_whiteLine3.jpg	MediumLong_e19_stereo_44KHz.wav
1	92	1	1	1	C	1	0	600	0	poli_8sides 7_whiteLine3.jpg	MediumLong_b10_cut2_L_stereo_44KHz.wav
1	93	2	1	0	C	1	1	814	1	poli_8sides 13_whiteLine3.jpg	MediumLong_b10_cut2_L_stereo_44KHz.wav
1	94	1	2	0	C	1	1	638	1	poli_8sides 7_whiteLine3.jpg	MediumLong_e19_stereo_44KHz.wav
1	95	3	4	2	I	2	0	634	0	poli_8sides 15_whiteLine3.jpg	Medium_e26_stereo_44KHz.wav
1	96	4	4	2	I	2	0	827	0	poli_8sides 8_whiteLine3.jpg	Medium_e26_stereo_44KHz.wav
1	97	3	3	2	I	1	0	906	1	poli_8sides 15_whiteLine3.jpg	Medium_e01_cut1_stereo_44KHz.wav
1	98	1	1	1	C	2	1	798	1	poli_8sides 7_whiteLine3.jpg	MediumLong_b10_cut2_L_stereo_44KHz.wav
1	99	2	1	0	C	2	0	557	0	poli_8sides 13_whiteLine3.jpg	MediumLong_b10_cut2_L_stereo_44KHz.wav
1	100	4	4	2	I	2	0	595	0	poli_8sides 8_whiteLine3.jpg	Medium_e26_stereo_44KHz.wav
1	101	2	2	1	C	2	1	711	1	poli_8sides 13_whiteLine3.jpg	MediumLong_e19_stereo_44KHz.wav
1	102	4	3	2	I	2	0	504	0	poli_8sides 8_whiteLine3.jpg	Medium_e01_cut1_stereo_44KHz.wav
1	103	3	4	2	I	2	0	628	0	poli_8sides 15_whiteLine3.jpg	Medium_e26_stereo_44KHz.wav
1	104	1	2	0	C	2	0	737	0	poli_8sides 7_whiteLine3.jpg	MediumLong_e19_stereo_44KHz.wav
1	105	3	3	2	I	1	0	813	1	poli_8sides 15_whiteLine3.jpg	Medium_e01_cut1_stereo_44KHz.wav
1	106	4	4	2	I	2	0	793	0	poli_8sides 8_whiteLine3.jpg	Medium_e26_stereo_44KHz.wav
1	107	1	1	1	C	2	1	816	1	poli_8sides 7_whiteLine3.jpg	MediumLong_b10_cut2_L_stereo_44KHz.wav
1	108	2	1	0	C	2	0	652	0	poli_8sides 13_whiteLine3.jpg	MediumLong_b10_cut2_L_stereo_44KHz.wav
1	109	1	2	0	C	1	1	840	1	poli_8sides 7_whiteLine3.jpg	MediumLong_e19_stereo_44KHz.wav
1	110	3	4	2	I	2	0	646	1	poli_8sides 15_whiteLine3.jpg	Medium_e26_stereo_44KHz.wav
1	111	4	3	2	I	2	0	652	0	poli_8sides 8_whiteLine3.jpg	Medium_e01_cut1_stereo_44KHz.wav
1	112	2	2	1	C	2	1	623	1	poli_8sides 13_whiteLine3.jpg	MediumLong_e19_stereo_44KHz.wav
1	113	4	4	2	I	2	0	641	1	poli_8sides 8_whiteLine3.jpg	Medium_e26_stereo_44KHz.wav
1	114	3	4	2	I	2	0	1086	1	poli_8sides 15_whiteLine3.jpg	Medium_e26_stereo_44KHz.wav
1	115	2	2	1	C	2	1	638	1	poli_8sides 13_whiteLine3.jpg	MediumLong_e19_stereo_44KHz.wav
1	116	1	1	1	C	2	1	1039	1	poli_8sides 7_whiteLine3.jpg	MediumLong_b10_cut2_L_stereo_44KHz.wav
1	117	4	3	2	I	2	0	614	0	poli_8sides 8_whiteLine3.jpg	Medium_e01_cut1_stereo_44KHz.wav
1	118	3	3	2	I	2	0	966	0	poli_8sides 15_whiteLine3.jpg	Medium_e01_cut1_stereo_44KHz.wav
1	119	2	1	0	C	2	0	646	0	poli_8sides 13_whiteLine3.jpg	MediumLong_b10_cut2_L_stereo_44KHz.wav
1	120	1	2	0	C	1	1	774	1	poli_8sides 7_whiteLine3.jpg	MediumLong_e19_stereo_44KHz.wav
1	121	4	3	2	I	2	0	664	1	poli_8sides 8_whiteLine3.jpg	Medium_e01_cut1_stereo_44KHz.wav
1	122	2	1	0	C	2	0	609	0	poli_8sides 13_whiteLine3.jpg	MediumLong_b10_cut2_L_stereo_44KHz.wav
1	123	1	2	0	C	1	1	672	1	poli_8sides 7_whiteLine3.jpg	MediumLong_e19_stereo_44KHz.wav
1	124	3	3	2	I	2	0	535	0	poli_8sides 15_whiteLine3.jpg	Medium_e01_cut1_stereo_44KHz.wav
1	125	4	4	2	I	2	0	671	0	poli_8sides 8_whiteLine3.jpg	Medium_e26_stereo_44KHz.wav
1	126	2	2	1	C	2	1	614	1	poli_8sides 13_whiteLine3.jpg	MediumLong_e19_stereo_44KHz.wav
1	127	1	1	1	C	2	1	749	1	poli_8sides 7_whiteLine3.jpg	MediumLong_b10_cut2_L_stereo_44KHz.wav
1	128	3	4	2	I	2	0	653	0	poli_8sides 15_whiteLine3.jpg	Medium_e26_stereo_44KHz.wav
1	129	1	1	1	C	2	1	582	1	poli_8sides 7_whiteLine3.jpg	MediumLong_b10_cut2_L_stereo_44KHz.wav
1	130	2	2	1	C	2	1	770	1	poli_8sides 13_whiteLine3.jpg	MediumLong_e19_stereo_44KHz.wav
1	131	4	3	2	I	2	0	847	0	poli_8sides 8_whiteLine3.jpg	Medium_e01_cut1_stereo_44KHz.wav
1	132	3	3	2	I	2	0	709	1	poli_8sides 15_whiteLine3.jpg	Medium_e01_cut1_stereo_44KHz.wav
1	133	1	2	0	C	1	1	976	1	poli_8sides 7_whiteLine3.jpg	MediumLong_e19_stereo_44KHz.wav
1	134	2	1	0	C	2	0	722	0	poli_8sides 13_whiteLine3.jpg	MediumLong_b10_cut2_L_stereo_44KHz.wav
1	135	3	4	2	I	2	0	686	1	poli_8sides 15_whiteLine3.jpg	Medium_e26_stereo_44KHz.wav
1	136	4	4	2	I	2	0	624	1	poli_8sides 8_whiteLine3.jpg	Medium_e26_stereo_44KHz.wav
1	137	2	1	0	C	1	1	865	1	poli_8sides 13_whiteLine3.jpg	MediumLong_b10_cut2_L_stereo_44KHz.wav
1	138	4	3	2	I	2	0	618	1	poli_8sides 8_whiteLine3.jpg	Medium_e01_cut1_stereo_44KHz.wav
1	139	1	2	0	C	1	1	1222	1	poli_8sides 7_whiteLine3.jpg	MediumLong_e19_stereo_44KHz.wav
1	140	3	3	2	I	2	0	882	0	poli_8sides 15_whiteLine3.jpg	Medium_e01_cut1_stereo_44KHz.wav
1	141	2	2	1	C	2	1	761	1	poli_8sides 13_whiteLine3.jpg	MediumLong_e19_stereo_44KHz.wav
1	142	3	4	2	I	2	0	638	1	poli_8sides 15_whiteLine3.jpg	Medium_e26_stereo_44KHz.wav
1	143	4	4	2	I	2	0	726	1	poli_8sides 8_whiteLine3.jpg	Medium_e26_stereo_44KHz.wav
1	144	1	1	1	C	2	1	693	1	poli_8sides 7_whiteLine3.jpg	MediumLong_b10_cut2_L_stereo_44KHz.wav
1	145	3	4	2	I	2	0	412	1	poli_8sides 15_whiteLine3.jpg	Medium_e26_stereo_44KHz.wav
1	146	1	2	0	C	1	1	661	1	poli_8sides 7_whiteLine3.jpg	MediumLong_e19_stereo_44KHz.wav
1	147	2	1	0	C	2	0	617	0	poli_8sides 13_whiteLine3.jpg	MediumLong_b10_cut2_L_stereo_44KHz.wav
1	148	4	4	2	I	2	0	720	1	poli_8sides 8_whiteLine3.jpg	Medium_e26_stereo_44KHz.wav
1	149	3	3	2	I	2	0	758	0	poli_8sides 15_whiteLine3.jpg	Medium_e01_cut1_stereo_44KHz.wav
1	150	1	1	1	C	1	0	1064	0	poli_8sides 7_whiteLine3.jpg	MediumLong_b10_cut2_L_stereo_44KHz.wav
1	151	2	2	1	C	2	1	678	1	poli_8sides 13_whiteLine3.jpg	MediumLong_e19_stereo_44KHz.wav
1	152	4	3	2	I	2	0	665	1	poli_8sides 8_whiteLine3.jpg	Medium_e01_cut1_stereo_44KHz.wav
1	153	2	1	0	C	1	1	825	1	poli_8sides 13_whiteLine3.jpg	MediumLong_b10_cut2_L_stereo_44KHz.wav
1	154	1	2	0	C	1	1	1032	1	poli_8sides 7_whiteLine3.jpg	MediumLong_e19_stereo_44KHz.wav
1	155	4	3	2	I	2	0	615	1	poli_8sides 8_whiteLine3.jpg	Medium_e01_cut1_stereo_44KHz.wav
1	156	3	3	2	I	2	0	829	1	poli_8sides 15_whiteLine3.jpg	Medium_e01_cut1_stereo_44KHz.wav
1	157	2	2	1	C	2	1	801	1	poli_8sides 13_whiteLine3.jpg	MediumLong_e19_stereo_44KHz.wav
1	158	1	1	1	C	2	1	816	1	poli_8sides 7_whiteLine3.jpg	MediumLong_b10_cut2_L_stereo_44KHz.wav
1	159	4	4	2	I	2	0	454	0	poli_8sides 8_whiteLine3.jpg	Medium_e26_stereo_44KHz.wav
1	160	3	4	2	I	2	0	522	1	poli_8sides 15_whiteLine3.jpg	Medium_e26_stereo_44KHz.wav
1	161	1	2	0	C	1	1	838	1	poli_8sides 7_whiteLine3.jpg	MediumLong_e19_stereo_44KHz.wav
1	162	4	3	2	I	2	0	886	1	poli_8sides 8_whiteLine3.jpg	Medium_e01_cut1_stereo_44KHz.wav
1	163	2	2	1	C	2	1	566	1	poli_8sides 13_whiteLine3.jpg	MediumLong_e19_stereo_44KHz.wav
1	164	3	4	2	I	2	0	675	1	poli_8sides 15_whiteLine3.jpg	Medium_e26_stereo_44KHz.wav
1	165	1	1	1	C	2	1	586	1	poli_8sides 7_whiteLine3.jpg	MediumLong_b10_cut2_L_stereo_44KHz.wav
1	166	3	3	2	I	2	0	602	0	poli_8sides 15_whiteLine3.jpg	Medium_e01_cut1_stereo_44KHz.wav
1	167	4	4	2	I	2	0	592	1	poli_8sides 8_whiteLine3.jpg	Medium_e26_stereo_44KHz.wav
1	168	2	1	0	C	1	1	839	1	poli_8sides 13_whiteLine3.jpg	MediumLong_b10_cut2_L_stereo_44KHz.wav
1	169	1	2	0	C	1	1	1403	1	poli_8sides 7_whiteLine3.jpg	MediumLong_e19_stereo_44KHz.wav
1	170	2	1	0	C	1	1	915	1	poli_8sides 13_whiteLine3.jpg	MediumLong_b10_cut2_L_stereo_44KHz.wav
1	171	4	3	2	I	2	0	814	0	poli_8sides 8_whiteLine3.jpg	Medium_e01_cut1_stereo_44KHz.wav
1	172	3	4	2	I	2	0	679	0	poli_8sides 15_whiteLine3.jpg	Medium_e26_stereo_44KHz.wav
1	173	2	2	1	C	2	1	769	1	poli_8sides 13_whiteLine3.jpg	MediumLong_e19_stereo_44KHz.wav
1	174	1	1	1	C	2	1	742	1	poli_8sides 7_whiteLine3.jpg	MediumLong_b10_cut2_L_stereo_44KHz.wav
1	175	4	4	2	I	2	0	596	0	poli_8sides 8_whiteLine3.jpg	Medium_e26_stereo_44KHz.wav
1	176	3	3	2	I	2	0	601	1	poli_8sides 15_whiteLine3.jpg	Medium_e01_cut1_stereo_44KHz.wav
1	177	1	1	1	C	1	0	903	0	poli_8sides 7_whiteLine3.jpg	MediumLong_b10_cut2_L_stereo_44KHz.wav
1	178	4	4	2	I	2	0	578	1	poli_8sides 8_whiteLine3.jpg	Medium_e26_stereo_44KHz.wav
1	179	3	4	2	I	2	0	483	0	poli_8sides 15_whiteLine3.jpg	Medium_e26_stereo_44KHz.wav
1	180	2	1	0	C	2	0	726	0	poli_8sides 13_whiteLine3.jpg	MediumLong_b10_cut2_L_stereo_44KHz.wav
1	181	1	2	0	C	1	1	948	1	poli_8sides 7_whiteLine3.jpg	MediumLong_e19_stereo_44KHz.wav
1	182	2	2	1	C	2	1	702	1	poli_8sides 13_whiteLine3.jpg	MediumLong_e19_stereo_44KHz.wav
1	183	4	3	2	I	2	0	648	1	poli_8sides 8_whiteLine3.jpg	Medium_e01_cut1_stereo_44KHz.wav
1	184	3	3	2	I	2	0	652	1	poli_8sides 15_whiteLine3.jpg	Medium_e01_cut1_stereo_44KHz.wav
1	185	4	3	2	I	2	0	720	1	poli_8sides 8_whiteLine3.jpg	Medium_e01_cut1_stereo_44KHz.wav
1	186	2	1	0	C	2	0	673	0	poli_8sides 13_whiteLine3.jpg	MediumLong_b10_cut2_L_stereo_44KHz.wav
1	187	3	3	2	I	2	0	900	0	poli_8sides 15_whiteLine3.jpg	Medium_e01_cut1_stereo_44KHz.wav
1	188	1	2	0	C	1	1	635	1	poli_8sides 7_whiteLine3.jpg	MediumLong_e19_stereo_44KHz.wav
1	189	2	2	1	C	2	1	717	1	poli_8sides 13_whiteLine3.jpg	MediumLong_e19_stereo_44KHz.wav
1	190	3	4	2	I	2	0	1090	1	poli_8sides 15_whiteLine3.jpg	Medium_e26_stereo_44KHz.wav
1	191	4	4	2	I	2	0	1103	1	poli_8sides 8_whiteLine3.jpg	Medium_e26_stereo_44KHz.wav
1	192	1	1	1	C	2	1	814	1	poli_8sides 7_whiteLine3.jpg	MediumLong_b10_cut2_L_stereo_44KHz.wav
1	193	3	4	2	I	2	0	907	1	poli_8sides 15_whiteLine3.jpg	Medium_e26_stereo_44KHz.wav
1	194	1	2	0	C	2	0	817	0	poli_8sides 7_whiteLine3.jpg	MediumLong_e19_stereo_44KHz.wav
1	195	4	3	2	I	2	0	865	0	poli_8sides 8_whiteLine3.jpg	Medium_e01_cut1_stereo_44KHz.wav
1	196	2	1	0	C	1	1	738	1	poli_8sides 13_whiteLine3.jpg	MediumLong_b10_cut2_L_stereo_44KHz.wav
1	197	4	4	2	I	2	0	658	0	poli_8sides 8_whiteLine3.jpg	Medium_e26_stereo_44KHz.wav
1	198	2	2	1	C	2	1	1010	1	poli_8sides 13_whiteLine3.jpg	MediumLong_e19_stereo_44KHz.wav
1	199	1	1	1	C	2	1	768	1	poli_8sides 7_whiteLine3.jpg	MediumLong_b10_cut2_L_stereo_44KHz.wav
1	200	3	3	2	I	2	0	981	0	poli_8sides 15_whiteLine3.jpg	Medium_e01_cut1_stereo_44KHz.wav
2	1	3	4	2	I	2	0	819	0	poli_8sides 9_whiteLine3.jpg	Short_b20_cut1_stereo_44KHz.wav
2	2	4	3	2	I	2	0	1743	1	poli_8sides 4_whiteLine3.jpg	Short_b23_cut1_stereo_44KHz.wav
2	3	1	1	1	C	1	0	922	0	poli_8sides 11_whiteLine3.jpg	Short_b09_cut1_stereo_44KHz.wav
2	4	2	1	0	C	1	1	1139	1	poli_8sides 5_whiteLine3.jpg	Short_b09_cut1_stereo_44KHz.wav
2	5	3	3	2	I	1	0	772	1	poli_8sides 9_whiteLine3.jpg	Short_b23_cut1_stereo_44KHz.wav
2	6	2	2	1	C	2	1	1217	1	poli_8sides 5_whiteLine3.jpg	Short_b22_cut1_stereo_44KHz.wav
2	7	1	2	0	C	2	0	1071	0	poli_8sides 11_whiteLine3.jpg	Short_b22_cut1_stereo_44KHz.wav
2	8	4	4	2	I	1	0	809	0	poli_8sides 4_whiteLine3.jpg	Short_b20_cut1_stereo_44KHz.wav
2	9	1	2	0	C	2	0	983	0	poli_8sides 11_whiteLine3.jpg	Short_b22_cut1_stereo_44KHz.wav
2	10	2	1	0	C	2	0	1179	0	poli_8sides 5_whiteLine3.jpg	Short_b09_cut1_stereo_44KHz.wav
2	11	4	3	2	I	2	0	819	0	poli_8sides 4_whiteLine3.jpg	Short_b23_cut1_stereo_44KHz.wav
2	12	3	4	2	I	2	0	885	1	poli_8sides 9_whiteLine3.jpg	Short_b20_cut1_stereo_44KHz.wav
2	13	2	2	1	C	2	1	668	1	poli_8sides 5_whiteLine3.jpg	Short_b22_cut1_stereo_44KHz.wav
2	14	3	3	2	I	2	0	864	1	poli_8sides 9_whiteLine3.jpg	Short_b23_cut1_stereo_44KHz.wav
2	15	1	1	1	C	0	0	0	0	poli_8sides 11_whiteLine3.jpg	Short_b09_cut1_stereo_44KHz.wav
2	16	4	4	2	I	2	0	793	0	poli_8sides 4_whiteLine3.jpg	Short_b20_cut1_stereo_44KHz.wav
2	17	2	2	1	C	1	0	1050	0	poli_8sides 5_whiteLine3.jpg	Short_b22_cut1_stereo_44KHz.wav
2	18	1	1	1	C	2	1	491	1	poli_8sides 11_whiteLine3.jpg	Short_b09_cut1_stereo_44KHz.wav
2	19	4	3	2	I	2	0	610	1	poli_8sides 4_whiteLine3.jpg	Short_b23_cut1_stereo_44KHz.wav
2	20	3	4	2	I	1	0	671	1	poli_8sides 9_whiteLine3.jpg	Short_b20_cut1_stereo_44KHz.wav
2	21	2	1	0	C	2	0	988	0	poli_8sides 5_whiteLine3.jpg	Short_b09_cut1_stereo_44KHz.wav
2	22	3	3	2	I	2	0	632	1	poli_8sides 9_whiteLine3.jpg	Short_b23_cut1_stereo_44KHz.wav
2	23	1	2	0	C	2	0	1098	0	poli_8sides 11_whiteLine3.jpg	Short_b22_cut1_stereo_44KHz.wav
2	24	4	4	2	I	2	0	648	1	poli_8sides 4_whiteLine3.jpg	Short_b20_cut1_stereo_44KHz.wav
2	25	1	2	0	C	2	0	558	0	poli_8sides 11_whiteLine3.jpg	Short_b22_cut1_stereo_44KHz.wav
2	26	2	2	1	C	2	1	492	1	poli_8sides 5_whiteLine3.jpg	Short_b22_cut1_stereo_44KHz.wav
2	27	3	4	2	I	2	0	483	1	poli_8sides 9_whiteLine3.jpg	Short_b20_cut1_stereo_44KHz.wav
2	28	4	3	2	I	2	0	676	1	poli_8sides 4_whiteLine3.jpg	Short_b23_cut1_stereo_44KHz.wav
2	29	2	1	0	C	1	1	677	1	poli_8sides 5_whiteLine3.jpg	Short_b09_cut1_stereo_44KHz.wav
2	30	1	1	1	C	2	1	669	1	poli_8sides 11_whiteLine3.jpg	Short_b09_cut1_stereo_44KHz.wav
2	31	3	3	2	I	2	0	637	0	poli_8sides 9_whiteLine3.jpg	Short_b23_cut1_stereo_44KHz.wav
2	32	4	4	2	I	2	0	579	1	poli_8sides 4_whiteLine3.jpg	Short_b20_cut1_stereo_44KHz.wav
2	33	3	3	2	I	2	0	897	0	poli_8sides 9_whiteLine3.jpg	Short_b23_cut1_stereo_44KHz.wav
2	34	1	2	0	C	2	0	675	0	poli_8sides 11_whiteLine3.jpg	Short_b22_cut1_stereo_44KHz.wav
2	35	2	1	0	C	2	0	966	0	poli_8sides 5_whiteLine3.jpg	Short_b09_cut1_stereo_44KHz.wav
2	36	4	3	2	I	2	0	883	0	poli_8sides 4_whiteLine3.jpg	Short_b23_cut1_stereo_44KHz.wav
2	37	3	4	2	I	1	0	687	0	poli_8sides 9_whiteLine3.jpg	Short_b20_cut1_stereo_44KHz.wav
2	38	4	4	2	I	2	0	624	0	poli_8sides 4_whiteLine3.jpg	Short_b20_cut1_stereo_44KHz.wav
2	39	1	1	1	C	2	1	1005	1	poli_8sides 11_whiteLine3.jpg	Short_b09_cut1_stereo_44KHz.wav
2	40	2	2	1	C	2	1	595	1	poli_8sides 5_whiteLine3.jpg	Short_b22_cut1_stereo_44KHz.wav
2	41	3	4	2	I	2	0	671	0	poli_8sides 9_whiteLine3.jpg	Short_b20_cut1_stereo_44KHz.wav
2	42	4	3	2	I	2	0	564	0	poli_8sides 4_whiteLine3.jpg	Short_b23_cut1_stereo_44KHz.wav
2	43	1	1	1	C	2	1	677	1	poli_8sides 11_whiteLine3.jpg	Short_b09_cut1_stereo_44KHz.wav
2	44	2	2	1	C	1	0	676	0	poli_8sides 5_whiteLine3.jpg	Short_b22_cut1_stereo_44KHz.wav
2	45	3	3	2	I	2	0	754	0	poli_8sides 9_whiteLine3.jpg	Short_b23_cut1_stereo_44KHz.wav
2	46	1	2	0	C	2	0	621	0	poli_8sides 11_whiteLine3.jpg	Short_b22_cut1_stereo_44KHz.wav
2	47	2	1	0	C	2	0	554	0	poli_8sides 5_whiteLine3.jpg	Short_b09_cut1_stereo_44KHz.wav
2	48	4	4	2	I	1	0	629	0	poli_8sides 4_whiteLine3.jpg	Short_b20_cut1_stereo_44KHz.wav
2	49	1	1	1	C	1	0	1244	0	poli_8sides 11_whiteLine3.jpg	Short_b09_cut1_stereo_44KHz.wav
2	50	2	2	1	C	2	1	699	1	poli_8sides 5_whiteLine3.jpg	Short_b22_cut1_stereo_44KHz.wav
2	51	4	3	2	I	2	0	656	1	poli_8sides 4_whiteLine3.jpg	Short_b23_cut1_stereo_44KHz.wav
2	52	3	3	2	I	2	0	1154	0	poli_8sides 9_whiteLine3.jpg	Short_b23_cut1_stereo_44KHz.wav
2	53	2	1	0	C	2	0	740	0	poli_8sides 5_whiteLine3.jpg	Short_b09_cut1_stereo_44KHz.wav
2	54	1	2	0	C	2	0	563	0	poli_8sides 11_whiteLine3.jpg	Short_b22_cut1_stereo_44KHz.wav
2	55	3	4	2	I	1	0	459	0	poli_8sides 9_whiteLine3.jpg	Short_b20_cut1_stereo_44KHz.wav
2	56	4	4	2	I	1	0	390	1	poli_8sides 4_whiteLine3.jpg	Short_b20_cut1_stereo_44KHz.wav
2	57	2	2	1	C	1	0	611	0	poli_8sides 5_whiteLine3.jpg	Short_b22_cut1_stereo_44KHz.wav
2	58	4	3	2	I	1	0	628	1	poli_8sides 4_whiteLine3.jpg	Short_b23_cut1_stereo_44KHz.wav
2	59	1	1	1	C	1	0	489	0	poli_8sides 11_whiteLine3.jpg	Short_b09_cut1_stereo_44KHz.wav
2	60	3	4	2	I	1	0	607	0	poli_8sides 9_whiteLine3.jpg	Short_b20_cut1_stereo_44KHz.wav
2	61	4	4	2	I	1	0	797	0	poli_8sides 4_whiteLine3.jpg	Short_b20_cut1_stereo_44KHz.wav
2	62	1	2	0	C	2	0	657	0	poli_8sides 11_whiteLine3.jpg	Short_b22_cut1_stereo_44KHz.wav
2	63	3	3	2	I	2	0	773	0	poli_8sides 9_whiteLine3.jpg	Short_b23_cut1_stereo_44KHz.wav
2	64	2	1	0	C	1	1	628	1	poli_8sides 5_whiteLine3.jpg	Short_b09_cut1_stereo_44KHz.wav
2	65	1	1	1	C	1	0	906	0	poli_8sides 11_whiteLine3.jpg	Short_b09_cut1_stereo_44KHz.wav
2	66	4	3	2	I	2	0	598	0	poli_8sides 4_whiteLine3.jpg	Short_b23_cut1_stereo_44KHz.wav
2	67	3	3	2	I	2	0	611	0	poli_8sides 9_whiteLine3.jpg	Short_b23_cut1_stereo_44KHz.wav
2	68	2	1	0	C	1	1	547	1	poli_8sides 5_whiteLine3.jpg	Short_b09_cut1_stereo_44KHz.wav
2	69	3	4	2	I	2	0	870	0	poli_8sides 9_whiteLine3.jpg	Short_b20_cut1_stereo_44KHz.wav
2	70	2	2	1	C	1	0	565	0	poli_8sides 5_whiteLine3.jpg	Short_b22_cut1_stereo_44KHz.wav
2	71	1	2	0	C	1	1	657	1	poli_8sides 11_whiteLine3.jpg	Short_b22_cut1_stereo_44KHz.wav
2	72	4	4	2	I	2	0	703	1	poli_8sides 4_whiteLine3.jpg	Short_b20_cut1_stereo_44KHz.wav
2	73	3	4	2	I	2	0	528	1	poli_8sides 9_whiteLine3.jpg	Short_b20_cut1_stereo_44KHz.wav
2	74	4	4	2	I	2	0	539	0	poli_8sides 4_whiteLine3.jpg	Short_b20_cut1_stereo_44KHz.wav
2	75	1	2	0	C	1	1	551	1	poli_8sides 11_whiteLine3.jpg	Short_b22_cut1_stereo_44KHz.wav
2	76	2	2	1	C	2	1	750	1	poli_8sides 5_whiteLine3.jpg	Short_b22_cut1_stereo_44KHz.wav
2	77	4	3	2	I	2	0	790	1	poli_8sides 4_whiteLine3.jpg	Short_b23_cut1_stereo_44KHz.wav
2	78	1	1	1	C	2	1	672	1	poli_8sides 11_whiteLine3.jpg	Short_b09_cut1_stereo_44KHz.wav
2	79	3	3	2	I	2	0	488	0	poli_8sides 9_whiteLine3.jpg	Short_b23_cut1_stereo_44KHz.wav
2	80	2	1	0	C	2	0	806	0	poli_8sides 5_whiteLine3.jpg	Short_b09_cut1_stereo_44KHz.wav
2	81	1	2	0	C	2	0	1011	0	poli_8sides 11_whiteLine3.jpg	Short_b22_cut1_stereo_44KHz.wav
2	82	2	1	0	C	1	1	660	1	poli_8sides 5_whiteLine3.jpg	Short_b09_cut1_stereo_44KHz.wav
2	83	3	3	2	I	2	0	619	1	poli_8sides 9_whiteLine3.jpg	Short_b23_cut1_stereo_44KHz.wav
2	84	4	3	2	I	2	0	520	0	poli_8sides 4_whiteLine3.jpg	Short_b23_cut1_stereo_44KHz.wav
2	85	2	2	1	C	2	1	677	1	poli_8sides 5_whiteLine3.jpg	Short_b22_cut1_stereo_44KHz.wav
2	86	3	4	2	I	2	0	453	1	poli_8sides 9_whiteLine3.jpg	Short_b20_cut1_stereo_44KHz.wav
2	87	4	4	2	I	2	0	592	0	poli_8sides 4_whiteLine3.jpg	Short_b20_cut1_stereo_44KHz.wav
2	88	1	1	1	C	2	1	394	1	poli_8sides 11_whiteLine3.jpg	Short_b09_cut1_stereo_44KHz.wav
2	89	3	3	2	I	2	0	560	1	poli_8sides 9_whiteLine3.jpg	Short_b23_cut1_stereo_44KHz.wav
2	90	1	1	1	C	2	1	643	1	poli_8sides 11_whiteLine3.jpg	Short_b09_cut1_stereo_44KHz.wav
2	91	4	3	2	I	2	0	370	0	poli_8sides 4_whiteLine3.jpg	Short_b23_cut1_stereo_44KHz.wav
2	92	2	2	1	C	2	1	290	1	poli_8sides 5_whiteLine3.jpg	Short_b22_cut1_stereo_44KHz.wav
2	93	4	4	2	I	2	0	527	1	poli_8sides 4_whiteLine3.jpg	Short_b20_cut1_stereo_44KHz.wav
2	94	2	1	0	C	2	0	310	0	poli_8sides 5_whiteLine3.jpg	Short_b09_cut1_stereo_44KHz.wav
2	95	3	4	2	I	1	0	455	1	poli_8sides 9_whiteLine3.jpg	Short_b20_cut1_stereo_44KHz.wav
2	96	1	2	0	C	2	0	605	0	poli_8sides 11_whiteLine3.jpg	Short_b22_cut1_stereo_44KHz.wav
2	97	2	2	1	C	2	1	847	1	poli_8sides 5_whiteLine3.jpg	Short_b22_cut1_stereo_44KHz.wav
2	98	3	3	2	I	2	0	449	1	poli_8sides 9_whiteLine3.jpg	Short_b23_cut1_stereo_44KHz.wav
2	99	1	2	0	C	2	0	1097	0	poli_8sides 11_whiteLine3.jpg	Short_b22_cut1_stereo_44KHz.wav
2	100	4	4	2	I	2	0	502	0	poli_8sides 4_whiteLine3.jpg	Short_b20_cut1_stereo_44KHz.wav
2	101	3	4	2	I	1	0	728	1	poli_8sides 9_whiteLine3.jpg	Short_b20_cut1_stereo_44KHz.wav
2	102	1	1	1	C	1	0	500	0	poli_8sides 11_whiteLine3.jpg	Short_b09_cut1_stereo_44KHz.wav
2	103	4	3	2	I	2	0	897	1	poli_8sides 4_whiteLine3.jpg	Short_b23_cut1_stereo_44KHz.wav
2	104	2	1	0	C	2	0	593	0	poli_8sides 5_whiteLine3.jpg	Short_b09_cut1_stereo_44KHz.wav
2	105	3	4	2	I	2	0	610	1	poli_8sides 9_whiteLine3.jpg	Short_b20_cut1_stereo_44KHz.wav
2	106	2	2	1	C	2	1	777	1	poli_8sides 5_whiteLine3.jpg	Short_b22_cut1_stereo_44KHz.wav
2	107	4	3	2	I	1	0	646	1	poli_8sides 4_whiteLine3.jpg	Short_b23_cut1_stereo_44KHz.wav
2	108	1	1	1	C	2	1	597	1	poli_8sides 11_whiteLine3.jpg	Short_b09_cut1_stereo_44KHz.wav
2	109	2	1	0	C	2	0	592	0	poli_8sides 5_whiteLine3.jpg	Short_b09_cut1_stereo_44KHz.wav
2	110	1	2	0	C	2	0	799	0	poli_8sides 11_whiteLine3.jpg	Short_b22_cut1_stereo_44KHz.wav
2	111	4	4	2	I	2	0	395	1	poli_8sides 4_whiteLine3.jpg	Short_b20_cut1_stereo_44KHz.wav
2	112	3	3	2	I	2	0	200	1	poli_8sides 9_whiteLine3.jpg	Short_b23_cut1_stereo_44KHz.wav
2	113	2	2	1	C	2	1	267	1	poli_8sides 5_whiteLine3.jpg	Short_b22_cut1_stereo_44KHz.wav
2	114	4	3	2	I	2	0	358	1	poli_8sides 4_whiteLine3.jpg	Short_b23_cut1_stereo_44KHz.wav
2	115	3	3	2	I	2	0	443	0	poli_8sides 9_whiteLine3.jpg	Short_b23_cut1_stereo_44KHz.wav
2	116	1	1	1	C	1	0	531	0	poli_8sides 11_whiteLine3.jpg	Short_b09_cut1_stereo_44KHz.wav
2	117	2	1	0	C	2	0	866	0	poli_8sides 5_whiteLine3.jpg	Short_b09_cut1_stereo_44KHz.wav
2	118	3	4	2	I	2	0	584	1	poli_8sides 9_whiteLine3.jpg	Short_b20_cut1_stereo_44KHz.wav
2	119	1	2	0	C	2	0	159	0	poli_8sides 11_whiteLine3.jpg	Short_b22_cut1_stereo_44KHz.wav
2	120	4	4	2	I	2	0	831	1	poli_8sides 4_whiteLine3.jpg	Short_b20_cut1_stereo_44KHz.wav
2	121	1	1	1	C	2	1	548	1	poli_8sides 11_whiteLine3.jpg	Short_b09_cut1_stereo_44KHz.wav
2	122	3	3	2	I	2	0	438	0	poli_8sides 9_whiteLine3.jpg	Short_b23_cut1_stereo_44KHz.wav
2	123	2	1	0	C	2	0	1035	0	poli_8sides 5_whiteLine3.jpg	Short_b09_cut1_stereo_44KHz.wav
2	124	4	3	2	I	2	0	532	1	poli_8sides 4_whiteLine3.jpg	Short_b23_cut1_stereo_44KHz.wav
2	125	1	2	0	C	2	0	361	0	poli_8sides 11_whiteLine3.jpg	Short_b22_cut1_stereo_44KHz.wav
2	126	3	4	2	I	2	0	357	1	poli_8sides 9_whiteLine3.jpg	Short_b20_cut1_stereo_44KHz.wav
2	127	2	2	1	C	2	1	574	1	poli_8sides 5_whiteLine3.jpg	Short_b22_cut1_stereo_44KHz.wav
2	128	4	4	2	I	2	0	525	1	poli_8sides 4_whiteLine3.jpg	Short_b20_cut1_stereo_44KHz.wav
2	129	2	1	0	C	2	0	781	0	poli_8sides 5_whiteLine3.jpg	Short_b09_cut1_stereo_44KHz.wav
2	130	1	1	1	C	2	1	591	1	poli_8sides 11_whiteLine3.jpg	Short_b09_cut1_stereo_44KHz.wav
2	131	3	3	2	I	2	0	939	1	poli_8sides 9_whiteLine3.jpg	Short_b23_cut1_stereo_44KHz.wav
2	132	4	4	2	I	2	0	580	0	poli_8sides 4_whiteLine3.jpg	Short_b20_cut1_stereo_44KHz.wav
2	133	1	2	0	C	2	0	763	0	poli_8sides 11_whiteLine3.jpg	Short_b22_cut1_stereo_44KHz.wav
2	134	2	2	1	C	2	1	707	1	poli_8sides 5_whiteLine3.jpg	Short_b22_cut1_stereo_44KHz.wav
2	135	4	3	2	I	2	0	652	0	poli_8sides 4_whiteLine3.jpg	Short_b23_cut1_stereo_44KHz.wav
2	136	3	4	2	I	2	0	692	1	poli_8sides 9_whiteLine3.jpg	Short_b20_cut1_stereo_44KHz.wav
2	137	4	3	2	I	2	0	631	0	poli_8sides 4_whiteLine3.jpg	Short_b23_cut1_stereo_44KHz.wav
2	138	3	4	2	I	2	0	917	0	poli_8sides 9_whiteLine3.jpg	Short_b20_cut1_stereo_44KHz.wav
2	139	1	2	0	C	1	1	818	1	poli_8sides 11_whiteLine3.jpg	Short_b22_cut1_stereo_44KHz.wav
2	140	2	1	0	C	2	0	536	0	poli_8sides 5_whiteLine3.jpg	Short_b09_cut1_stereo_44KHz.wav
2	141	1	1	1	C	2	1	685	1	poli_8sides 11_whiteLine3.jpg	Short_b09_cut1_stereo_44KHz.wav
2	142	2	2	1	C	2	1	486	1	poli_8sides 5_whiteLine3.jpg	Short_b22_cut1_stereo_44KHz.wav
2	143	3	3	2	I	2	0	541	0	poli_8sides 9_whiteLine3.jpg	Short_b23_cut1_stereo_44KHz.wav
2	144	4	4	2	I	1	0	853	1	poli_8sides 4_whiteLine3.jpg	Short_b20_cut1_stereo_44KHz.wav
2	145	1	1	1	C	2	1	546	1	poli_8sides 11_whiteLine3.jpg	Short_b09_cut1_stereo_44KHz.wav
2	146	2	1	0	C	2	0	472	0	poli_8sides 5_whiteLine3.jpg	Short_b09_cut1_stereo_44KHz.wav
2	147	4	3	2	I	2	0	660	0	poli_8sides 4_whiteLine3.jpg	Short_b23_cut1_stereo_44KHz.wav
2	148	3	3	2	I	2	0	573	1	poli_8sides 9_whiteLine3.jpg	Short_b23_cut1_stereo_44KHz.wav
2	149	1	2	0	C	2	0	424	0	poli_8sides 11_whiteLine3.jpg	Short_b22_cut1_stereo_44KHz.wav
2	150	2	2	1	C	1	0	592	0	poli_8sides 5_whiteLine3.jpg	Short_b22_cut1_stereo_44KHz.wav
2	151	3	4	2	I	2	0	616	0	poli_8sides 9_whiteLine3.jpg	Short_b20_cut1_stereo_44KHz.wav
2	152	4	4	2	I	2	0	623	0	poli_8sides 4_whiteLine3.jpg	Short_b20_cut1_stereo_44KHz.wav
2	153	2	2	1	C	2	1	607	1	poli_8sides 5_whiteLine3.jpg	Short_b22_cut1_stereo_44KHz.wav
2	154	3	4	2	I	2	0	363	0	poli_8sides 9_whiteLine3.jpg	Short_b20_cut1_stereo_44KHz.wav
2	155	4	4	2	I	1	0	744	1	poli_8sides 4_whiteLine3.jpg	Short_b20_cut1_stereo_44KHz.wav
2	156	1	1	1	C	2	1	706	1	poli_8sides 11_whiteLine3.jpg	Short_b09_cut1_stereo_44KHz.wav
2	157	2	1	0	C	2	0	576	0	poli_8sides 5_whiteLine3.jpg	Short_b09_cut1_stereo_44KHz.wav
2	158	3	3	2	I	2	0	459	0	poli_8sides 9_whiteLine3.jpg	Short_b23_cut1_stereo_44KHz.wav
2	159	1	2	0	C	2	0	479	0	poli_8sides 11_whiteLine3.jpg	Short_b22_cut1_stereo_44KHz.wav
2	160	4	3	2	I	2	0	752	0	poli_8sides 4_whiteLine3.jpg	Short_b23_cut1_stereo_44KHz.wav
2	161	1	2	0	C	1	1	504	1	poli_8sides 11_whiteLine3.jpg	Short_b22_cut1_stereo_44KHz.wav
2	162	2	2	1	C	1	0	657	0	poli_8sides 5_whiteLine3.jpg	Short_b22_cut1_stereo_44KHz.wav
2	163	4	4	2	I	2	0	806	0	poli_8sides 4_whiteLine3.jpg	Short_b20_cut1_stereo_44KHz.wav
2	164	3	4	2	I	2	0	966	0	poli_8sides 9_whiteLine3.jpg	Short_b20_cut1_stereo_44KHz.wav
2	165	1	1	1	C	1	0	709	0	poli_8sides 11_whiteLine3.jpg	Short_b09_cut1_stereo_44KHz.wav
2	166	3	3	2	I	2	0	639	1	poli_8sides 9_whiteLine3.jpg	Short_b23_cut1_stereo_44KHz.wav
2	167	2	1	0	C	2	0	577	0	poli_8sides 5_whiteLine3.jpg	Short_b09_cut1_stereo_44KHz.wav
2	168	4	3	2	I	2	0	683	1	poli_8sides 4_whiteLine3.jpg	Short_b23_cut1_stereo_44KHz.wav
2	169	3	4	2	I	2	0	750	1	poli_8sides 9_whiteLine3.jpg	Short_b20_cut1_stereo_44KHz.wav
2	170	2	1	0	C	2	0	645	0	poli_8sides 5_whiteLine3.jpg	Short_b09_cut1_stereo_44KHz.wav
2	171	1	2	0	C	2	0	950	0	poli_8sides 11_whiteLine3.jpg	Short_b22_cut1_stereo_44KHz.wav
2	172	4	4	2	I	1	0	614	1	poli_8sides 4_whiteLine3.jpg	Short_b20_cut1_stereo_44KHz.wav
2	173	3	3	2	I	2	0	886	1	poli_8sides 9_whiteLine3.jpg	Short_b23_cut1_stereo_44KHz.wav
2	174	1	1	1	C	2	1	465	1	poli_8sides 11_whiteLine3.jpg	Short_b09_cut1_stereo_44KHz.wav
2	175	4	3	2	I	2	0	405	0	poli_8sides 4_whiteLine3.jpg	Short_b23_cut1_stereo_44KHz.wav
2	176	2	2	1	C	2	1	566	1	poli_8sides 5_whiteLine3.jpg	Short_b22_cut1_stereo_44KHz.wav
2	177	4	3	2	I	2	0	513	1	poli_8sides 4_whiteLine3.jpg	Short_b23_cut1_stereo_44KHz.wav
2	178	1	1	1	C	2	1	1306	1	poli_8sides 11_whiteLine3.jpg	Short_b09_cut1_stereo_44KHz.wav
2	179	2	1	0	C	2	0	483	0	poli_8sides 5_whiteLine3.jpg	Short_b09_cut1_stereo_44KHz.wav
2	180	3	3	2	I	2	0	539	0	poli_8sides 9_whiteLine3.jpg	Short_b23_cut1_stereo_44KHz.wav
2	181	1	2	0	C	1	1	846	1	poli_8sides 11_whiteLine3.jpg	Short_b22_cut1_stereo_44KHz.wav
2	182	3	4	2	I	2	0	1212	0	poli_8sides 9_whiteLine3.jpg	Short_b20_cut1_stereo_44KHz.wav
2	183	4	4	2	I	1	0	835	0	poli_8sides 4_whiteLine3.jpg	Short_b20_cut1_stereo_44KHz.wav
2	184	2	2	1	C	2	1	631	1	poli_8sides 5_whiteLine3.jpg	Short_b22_cut1_stereo_44KHz.wav
2	185	4	4	2	I	2	0	572	0	poli_8sides 4_whiteLine3.jpg	Short_b20_cut1_stereo_44KHz.wav
2	186	1	2	0	C	1	1	641	1	poli_8sides 11_whiteLine3.jpg	Short_b22_cut1_stereo_44KHz.wav
2	187	3	3	2	I	2	0	832	1	poli_8sides 9_whiteLine3.jpg	Short_b23_cut1_stereo_44KHz.wav
2	188	2	1	0	C	2	0	711	0	poli_8sides 5_whiteLine3.jpg	Short_b09_cut1_stereo_44KHz.wav
2	189	3	4	2	I	2	0	401	0	poli_8sides 9_whiteLine3.jpg	Short_b20_cut1_stereo_44KHz.wav
2	190	4	3	2	I	2	0	296	1	poli_8sides 4_whiteLine3.jpg	Short_b23_cut1_stereo_44KHz.wav
2	191	2	2	1	C	2	1	537	1	poli_8sides 5_whiteLine3.jpg	Short_b22_cut1_stereo_44KHz.wav
2	192	1	1	1	C	2	1	758	1	poli_8sides 11_whiteLine3.jpg	Short_b09_cut1_stereo_44KHz.wav
2	193	2	2	1	C	2	1	553	1	poli_8sides 5_whiteLine3.jpg	Short_b22_cut1_stereo_44KHz.wav
2	194	3	4	2	I	2	0	630	0	poli_8sides 9_whiteLine3.jpg	Short_b20_cut1_stereo_44KHz.wav
2	195	4	4	2	I	1	0	930	1	poli_8sides 4_whiteLine3.jpg	Short_b20_cut1_stereo_44KHz.wav
2	196	1	1	1	C	2	1	570	1	poli_8sides 11_whiteLine3.jpg	Short_b09_cut1_stereo_44KHz.wav
2	197	3	3	2	I	2	0	695	1	poli_8sides 9_whiteLine3.jpg	Short_b23_cut1_stereo_44KHz.wav
2	198	2	1	0	C	2	0	665	0	poli_8sides 5_whiteLine3.jpg	Short_b09_cut1_stereo_44KHz.wav
2	199	4	3	2	I	2	0	731	0	poli_8sides 4_whiteLine3.jpg	Short_b23_cut1_stereo_44KHz.wav
2	200	1	2	0	C	1	1	796	1	poli_8sides 11_whiteLine3.jpg	Short_b22_cut1_stereo_44KHz.wav
3	1	3	4	2	I	2	0	1262	1	poli_8sides 1_whiteLine3.jpg	Medium_e21_stereo_44KHz.wav
3	2	4	3	2	I	1	0	964	0	poli_8sides 3_whiteLine3.jpg	MediumLong_e04_stereo_44KHz.wav
3	3	2	1	0	C	1	1	921	1	poli_8sides 16_whiteLine3.jpg	Medium_e13_stereo_44KHz.wav
3	4	1	2	0	C	2	0	1110	0	poli_8sides 6_whiteLine3.jpg	MediumLong_e17_cut2_stereo_44KHz.wav
3	5	2	2	1	C	1	0	1549	0	poli_8sides 16_whiteLine3.jpg	MediumLong_e17_cut2_stereo_44KHz.wav
3	6	1	1	1	C	2	1	723	1	poli_8sides 6_whiteLine3.jpg	Medium_e13_stereo_44KHz.wav
3	7	4	4	2	I	2	0	1123	1	poli_8sides 3_whiteLine3.jpg	Medium_e21_stereo_44KHz.wav
3	8	3	3	2	I	2	0	1257	0	poli_8sides 1_whiteLine3.jpg	MediumLong_e04_stereo_44KHz.wav
3	9	2	1	0	C	2	0	890	0	poli_8sides 16_whiteLine3.jpg	Medium_e13_stereo_44KHz.wav
3	10	3	4	2	I	2	0	676	1	poli_8sides 1_whiteLine3.jpg	Medium_e21_stereo_44KHz.wav
3	11	1	1	1	C	2	1	606	1	poli_8sides 6_whiteLine3.jpg	Medium_e13_stereo_44KHz.wav
3	12	4	4	2	I	2	0	1017	1	poli_8sides 3_whiteLine3.jpg	Medium_e21_stereo_44KHz.wav
3	13	3	3	2	I	2	0	481	0	poli_8sides 1_whiteLine3.jpg	MediumLong_e04_stereo_44KHz.wav
3	14	2	2	1	C	2	1	879	1	poli_8sides 16_whiteLine3.jpg	MediumLong_e17_cut2_stereo_44KHz.wav
3	15	4	3	2	I	2	0	643	0	poli_8sides 3_whiteLine3.jpg	MediumLong_e04_stereo_44KHz.wav
3	16	1	2	0	C	2	0	580	0	poli_8sides 6_whiteLine3.jpg	MediumLong_e17_cut2_stereo_44KHz.wav
3	17	4	4	2	I	2	0	519	1	poli_8sides 3_whiteLine3.jpg	Medium_e21_stereo_44KHz.wav
3	18	2	2	1	C	2	1	737	1	poli_8sides 16_whiteLine3.jpg	MediumLong_e17_cut2_stereo_44KHz.wav
3	19	1	1	1	C	2	1	473	1	poli_8sides 6_whiteLine3.jpg	Medium_e13_stereo_44KHz.wav
3	20	3	3	2	I	2	0	585	0	poli_8sides 1_whiteLine3.jpg	MediumLong_e04_stereo_44KHz.wav
3	21	2	1	0	C	2	0	799	0	poli_8sides 16_whiteLine3.jpg	Medium_e13_stereo_44KHz.wav
3	22	4	3	2	I	2	0	486	0	poli_8sides 3_whiteLine3.jpg	MediumLong_e04_stereo_44KHz.wav
3	23	3	4	2	I	1	0	778	0	poli_8sides 1_whiteLine3.jpg	Medium_e21_stereo_44KHz.wav
3	24	1	2	0	C	1	1	738	1	poli_8sides 6_whiteLine3.jpg	MediumLong_e17_cut2_stereo_44KHz.wav
3	25	4	4	2	I	2	0	646	1	poli_8sides 3_whiteLine3.jpg	Medium_e21_stereo_44KHz.wav
3	26	1	1	1	C	1	0	624	0	poli_8sides 6_whiteLine3.jpg	Medium_e13_stereo_44KHz.wav
3	27	3	3	2	I	2	0	633	1	poli_8sides 1_whiteLine3.jpg	MediumLong_e04_stereo_44KHz.wav
3	28	2	1	0	C	2	0	458	0	poli_8sides 16_whiteLine3.jpg	Medium_e13_stereo_44KHz.wav
3	29	3	4	2	I	2	0	772	0	poli_8sides 1_whiteLine3.jpg	Medium_e21_stereo_44KHz.wav
3	30	2	2	1	C	2	1	540	1	poli_8sides 16_whiteLine3.jpg	MediumLong_e17_cut2_stereo_44KHz.wav
3	31	1	2	0	C	1	1	699	1	poli_8sides 6_whiteLine3.jpg	MediumLong_e17_cut2_stereo_44KHz.wav
3	32	4	3	2	I	1	0	748	1	poli_8sides 3_whiteLine3.jpg	MediumLong_e04_stereo_44KHz.wav
3	33	2	2	1	C	2	1	620	1	poli_8sides 16_whiteLine3.jpg	MediumLong_e17_cut2_stereo_44KHz.wav
3	34	4	4	2	I	2	0	765	0	poli_8sides 3_whiteLine3.jpg	Medium_e21_stereo_44KHz.wav
3	35	3	3	2	I	2	0	556	0	poli_8sides 1_whiteLine3.jpg	MediumLong_e04_stereo_44KHz.wav
3	36	1	2	0	C	1	1	833	1	poli_8sides 6_whiteLine3.jpg	MediumLong_e17_cut2_stereo_44KHz.wav
3	37	2	1	0	C	1	1	727	1	poli_8sides 16_whiteLine3.jpg	Medium_e13_stereo_44KHz.wav
3	38	4	3	2	I	1	0	764	0	poli_8sides 3_whiteLine3.jpg	MediumLong_e04_stereo_44KHz.wav
3	39	3	4	2	I	1	0	788	1	poli_8sides 1_whiteLine3.jpg	Medium_e21_stereo_44KHz.wav
3	40	1	1	1	C	1	0	578	0	poli_8sides 6_whiteLine3.jpg	Medium_e13_stereo_44KHz.wav
3	41	3	4	2	I	1	0	600	0	poli_8sides 1_whiteLine3.jpg	Medium_e21_stereo_44KHz.wav
3	42	1	2	0	C	1	1	625	1	poli_8sides 6_whiteLine3.jpg	MediumLong_e17_cut2_stereo_44KHz.wav
3	43	2	1	0	C	1	1	566	1	poli_8sides 16_whiteLine3.jpg	Medium_e13_stereo_44KHz.wav
3	44	4	4	2	I	1	0	635	0	poli_8sides 3_whiteLine3.jpg	Medium_e21_stereo_44KHz.wav
3	45	1	1	1	C	1	0	663	0	poli_8sides 6_whiteLine3.jpg	Medium_e13_stereo_44KHz.wav
3	46	4	3	2	I	2	0	597	1	poli_8sides 3_whiteLine3.jpg	MediumLong_e04_stereo_44KHz.wav
3	47	2	2	1	C	1	0	596	0	poli_8sides 16_whiteLine3.jpg	MediumLong_e17_cut2_stereo_44KHz.wav
3	48	3	3	2	I	1	0	547	1	poli_8sides 1_whiteLine3.jpg	MediumLong_e04_stereo_44KHz.wav
3	49	1	2	0	C	2	0	636	0	poli_8sides 6_whiteLine3.jpg	MediumLong_e17_cut2_stereo_44KHz.wav
3	50	4	3	2	I	1	0	870	1	poli_8sides 3_whiteLine3.jpg	MediumLong_e04_stereo_44KHz.wav
3	51	2	2	1	C	2	1	706	1	poli_8sides 16_whiteLine3.jpg	MediumLong_e17_cut2_stereo_44KHz.wav
3	52	3	4	2	I	1	0	862	1	poli_8sides 1_whiteLine3.jpg	Medium_e21_stereo_44KHz.wav
3	53	2	1	0	C	2	0	512	0	poli_8sides 16_whiteLine3.jpg	Medium_e13_stereo_44KHz.wav
3	54	4	4	2	I	1	0	423	1	poli_8sides 3_whiteLine3.jpg	Medium_e21_stereo_44KHz.wav
3	55	1	1	1	C	1	0	824	0	poli_8sides 6_whiteLine3.jpg	Medium_e13_stereo_44KHz.wav
3	56	3	3	2	I	2	0	748	0	poli_8sides 1_whiteLine3.jpg	MediumLong_e04_stereo_44KHz.wav
3	57	4	3	2	I	0	0	0	0	poli_8sides 3_whiteLine3.jpg	MediumLong_e04_stereo_44KHz.wav
3	58	1	1	1	C	1	0	805	0	poli_8sides 6_whiteLine3.jpg	Medium_e13_stereo_44KHz.wav
3	59	2	2	1	C	1	0	593	0	poli_8sides 16_whiteLine3.jpg	MediumLong_e17_cut2_stereo_44KHz.wav
3	60	3	3	2	I	1	0	570	0	poli_8sides 1_whiteLine3.jpg	MediumLong_e04_stereo_44KHz.wav
3	61	1	2	0	C	1	1	486	1	poli_8sides 6_whiteLine3.jpg	MediumLong_e17_cut2_stereo_44KHz.wav
3	62	4	4	2	I	1	0	558	1	poli_8sides 3_whiteLine3.jpg	Medium_e21_stereo_44KHz.wav
3	63	3	4	2	I	2	0	803	1	poli_8sides 1_whiteLine3.jpg	Medium_e21_stereo_44KHz.wav
3	64	2	1	0	C	2	0	822	0	poli_8sides 16_whiteLine3.jpg	Medium_e13_stereo_44KHz.wav
3	65	1	1	1	C	2	1	702	1	poli_8sides 6_whiteLine3.jpg	Medium_e13_stereo_44KHz.wav
3	66	2	1	0	C	1	1	694	1	poli_8sides 16_whiteLine3.jpg	Medium_e13_stereo_44KHz.wav
3	67	4	3	2	I	1	0	892	1	poli_8sides 3_whiteLine3.jpg	MediumLong_e04_stereo_44KHz.wav
3	68	3	4	2	I	2	0	626	1	poli_8sides 1_whiteLine3.jpg	Medium_e21_stereo_44KHz.wav
3	69	1	2	0	C	2	0	541	0	poli_8sides 6_whiteLine3.jpg	MediumLong_e17_cut2_stereo_44KHz.wav
3	70	4	4	2	I	1	0	474	0	poli_8sides 3_whiteLine3.jpg	Medium_e21_stereo_44KHz.wav
3	71	3	3	2	I	2	0	607	0	poli_8sides 1_whiteLine3.jpg	MediumLong_e04_stereo_44KHz.wav
3	72	2	2	1	C	1	0	600	0	poli_8sides 16_whiteLine3.jpg	MediumLong_e17_cut2_stereo_44KHz.wav
3	73	1	2	0	C	2	0	491	0	poli_8sides 6_whiteLine3.jpg	MediumLong_e17_cut2_stereo_44KHz.wav
3	74	2	2	1	C	1	0	699	0	poli_8sides 16_whiteLine3.jpg	MediumLong_e17_cut2_stereo_44KHz.wav
3	75	3	4	2	I	2	0	868	1	poli_8sides 1_whiteLine3.jpg	Medium_e21_stereo_44KHz.wav
3	76	4	3	2	I	2	0	447	0	poli_8sides 3_whiteLine3.jpg	MediumLong_e04_stereo_44KHz.wav
3	77	3	3	2	I	1	0	616	0	poli_8sides 1_whiteLine3.jpg	MediumLong_e04_stereo_44KHz.wav
3	78	1	1	1	C	2	1	771	1	poli_8sides 6_whiteLine3.jpg	Medium_e13_stereo_44KHz.wav
3	79	2	1	0	C	2	0	594	0	poli_8sides 16_whiteLine3.jpg	Medium_e13_stereo_44KHz.wav
3	80	4	4	2	I	2	0	657	0	poli_8sides 3_whiteLine3.jpg	Medium_e21_stereo_44KHz.wav
3	81	2	1	0	C	2	0	739	0	poli_8sides 16_whiteLine3.jpg	Medium_e13_stereo_44KHz.wav
3	82	4	3	2	I	1	0	574	1	poli_8sides 3_whiteLine3.jpg	MediumLong_e04_stereo_44KHz.wav
3	83	1	1	1	C	2	1	515	1	poli_8sides 6_whiteLine3.jpg	Medium_e13_stereo_44KHz.wav
3	84	3	3	2	I	2	0	535	1	poli_8sides 1_whiteLine3.jpg	MediumLong_e04_stereo_44KHz.wav
3	85	1	2	0	C	1	1	1056	1	poli_8sides 6_whiteLine3.jpg	MediumLong_e17_cut2_stereo_44KHz.wav
3	86	4	4	2	I	1	0	719	0	poli_8sides 3_whiteLine3.jpg	Medium_e21_stereo_44KHz.wav
3	87	3	4	2	I	1	0	532	0	poli_8sides 1_whiteLine3.jpg	Medium_e21_stereo_44KHz.wav
3	88	2	2	1	C	2	1	513	1	poli_8sides 16_whiteLine3.jpg	MediumLong_e17_cut2_stereo_44KHz.wav
3	89	3	4	2	I	2	0	595	1	poli_8sides 1_whiteLine3.jpg	Medium_e21_stereo_44KHz.wav
3	90	2	1	0	C	2	0	469	0	poli_8sides 16_whiteLine3.jpg	Medium_e13_stereo_44KHz.wav
3	91	1	1	1	C	1	0	1072	0	poli_8sides 6_whiteLine3.jpg	Medium_e13_stereo_44KHz.wav
3	92	4	4	2	I	2	0	1004	1	poli_8sides 3_whiteLine3.jpg	Medium_e21_stereo_44KHz.wav
3	93	1	2	0	C	2	0	490	0	poli_8sides 6_whiteLine3.jpg	MediumLong_e17_cut2_stereo_44KHz.wav
3	94	4	3	2	I	2	0	285	0	poli_8sides 3_whiteLine3.jpg	MediumLong_e04_stereo_44KHz.wav
3	95	2	2	1	C	2	1	471	1	poli_8sides 16_whiteLine3.jpg	MediumLong_e17_cut2_stereo_44KHz.wav
3	96	3	3	2	I	2	0	569	0	poli_8sides 1_whiteLine3.jpg	MediumLong_e04_stereo_44KHz.wav
3	97	4	3	2	I	2	0	667	1	poli_8sides 3_whiteLine3.jpg	MediumLong_e04_stereo_44KHz.wav
3	98	3	4	2	I	2	0	807	1	poli_8sides 1_whiteLine3.jpg	Medium_e21_stereo_44KHz.wav
3	99	2	2	1	C	2	1	651	1	poli_8sides 16_whiteLine3.jpg	MediumLong_e17_cut2_stereo_44KHz.wav
3	100	1	2	0	C	2	0	531	0	poli_8sides 6_whiteLine3.jpg	MediumLong_e17_cut2_stereo_44KHz.wav
3	101	4	4	2	I	2	0	707	0	poli_8sides 3_whiteLine3.jpg	Medium_e21_stereo_44KHz.wav
3	102	2	1	0	C	2	0	818	0	poli_8sides 16_whiteLine3.jpg	Medium_e13_stereo_44KHz.wav
3	103	1	1	1	C	1	0	818	0	poli_8sides 6_whiteLine3.jpg	Medium_e13_stereo_44KHz.wav
3	104	3	3	2	I	2	0	518	0	poli_8sides 1_whiteLine3.jpg	MediumLong_e04_stereo_44KHz.wav
3	105	2	1	0	C	1	1	598	1	poli_8sides 16_whiteLine3.jpg	Medium_e13_stereo_44KHz.wav
3	106	3	3	2	I	2	0	400	1	poli_8sides 1_whiteLine3.jpg	MediumLong_e04_stereo_44KHz.wav
3	107	1	2	0	C	2	0	829	0	poli_8sides 6_whiteLine3.jpg	MediumLong_e17_cut2_stereo_44KHz.wav
3	108	4	4	2	I	2	0	802	0	poli_8sides 3_whiteLine3.jpg	Medium_e21_stereo_44KHz.wav
3	109	3	4	2	I	2	0	799	1	poli_8sides 1_whiteLine3.jpg	Medium_e21_stereo_44KHz.wav
3	110	2	2	1	C	2	1	213	1	poli_8sides 16_whiteLine3.jpg	MediumLong_e17_cut2_stereo_44KHz.wav
3	111	1	1	1	C	2	1	429	1	poli_8sides 6_whiteLine3.jpg	Medium_e13_stereo_44KHz.wav
3	112	4	3	2	I	1	0	1017	1	poli_8sides 3_whiteLine3.jpg	MediumLong_e04_stereo_44KHz.wav
3	113	2	1	0	C	2	0	535	0	poli_8sides 16_whiteLine3.jpg	Medium_e13_stereo_44KHz.wav
3	114	3	3	2	I	2	0	822	0	poli_8sides 1_whiteLine3.jpg	MediumLong_e04_stereo_44KHz.wav
3	115	1	1	1	C	2	1	648	1	poli_8sides 6_whiteLine3.jpg	Medium_e13_stereo_44KHz.wav
3	116	4	4	2	I	2	0	1110	0	poli_8sides 3_whiteLine3.jpg	Medium_e21_stereo_44KHz.wav
3	117	3	4	2	I	2	0	655	1	poli_8sides 1_whiteLine3.jpg	Medium_e21_stereo_44KHz.wav
3	118	4	3	2	I	2	0	820	1	poli_8sides 3_whiteLine3.jpg	MediumLong_e04_stereo_44KHz.wav
3	119	2	2	1	C	1	0	852	0	poli_8sides 16_whiteLine3.jpg	MediumLong_e17_cut2_stereo_44KHz.wav
3	120	1	2	0	C	2	0	631	0	poli_8sides 6_whiteLine3.jpg	MediumLong_e17_cut2_stereo_44KHz.wav
3	121	4	4	2	I	2	0	763	1	poli_8sides 3_whiteLine3.jpg	Medium_e21_stereo_44KHz.wav
3	122	3	3	2	I	2	0	732	0	poli_8sides 1_whiteLine3.jpg	MediumLong_e04_stereo_44KHz.wav
3	123	2	1	0	C	2	0	577	0	poli_8sides 16_whiteLine3.jpg	Medium_e13_stereo_44KHz.wav
3	124	1	2	0	C	1	1	486	1	poli_8sides 6_whiteLine3.jpg	MediumLong_e17_cut2_stereo_44KHz.wav
3	125	3	4	2	I	2	0	603	0	poli_8sides 1_whiteLine3.jpg	Medium_e21_stereo_44KHz.wav
3	126	4	3	2	I	2	0	699	0	poli_8sides 3_whiteLine3.jpg	MediumLong_e04_stereo_44KHz.wav
3	127	2	2	1	C	1	0	779	0	poli_8sides 16_whiteLine3.jpg	MediumLong_e17_cut2_stereo_44KHz.wav
3	128	1	1	1	C	2	1	1023	1	poli_8sides 6_whiteLine3.jpg	Medium_e13_stereo_44KHz.wav
3	129	4	4	2	I	2	0	1119	0	poli_8sides 3_whiteLine3.jpg	Medium_e21_stereo_44KHz.wav
3	130	2	2	1	C	1	0	430	0	poli_8sides 16_whiteLine3.jpg	MediumLong_e17_cut2_stereo_44KHz.wav
3	131	1	1	1	C	2	1	783	1	poli_8sides 6_whiteLine3.jpg	Medium_e13_stereo_44KHz.wav
3	132	3	4	2	I	2	0	980	1	poli_8sides 1_whiteLine3.jpg	Medium_e21_stereo_44KHz.wav
3	133	1	2	0	C	2	0	812	0	poli_8sides 6_whiteLine3.jpg	MediumLong_e17_cut2_stereo_44KHz.wav
3	134	3	3	2	I	2	0	661	0	poli_8sides 1_whiteLine3.jpg	MediumLong_e04_stereo_44KHz.wav
3	135	2	1	0	C	2	0	399	0	poli_8sides 16_whiteLine3.jpg	Medium_e13_stereo_44KHz.wav
3	136	4	3	2	I	2	0	331	1	poli_8sides 3_whiteLine3.jpg	MediumLong_e04_stereo_44KHz.wav
3	137	3	4	2	I	1	0	756	0	poli_8sides 1_whiteLine3.jpg	Medium_e21_stereo_44KHz.wav
3	138	2	2	1	C	1	0	892	0	poli_8sides 16_whiteLine3.jpg	MediumLong_e17_cut2_stereo_44KHz.wav
3	139	4	4	2	I	2	0	370	1	poli_8sides 3_whiteLine3.jpg	Medium_e21_stereo_44KHz.wav
3	140	1	2	0	C	2	0	678	0	poli_8sides 6_whiteLine3.jpg	MediumLong_e17_cut2_stereo_44KHz.wav
3	141	2	1	0	C	1	1	657	1	poli_8sides 16_whiteLine3.jpg	Medium_e13_stereo_44KHz.wav
3	142	4	3	2	I	2	0	579	0	poli_8sides 3_whiteLine3.jpg	MediumLong_e04_stereo_44KHz.wav
3	143	1	1	1	C	2	1	513	1	poli_8sides 6_whiteLine3.jpg	Medium_e13_stereo_44KHz.wav
3	144	3	3	2	I	1	0	793	0	poli_8sides 1_whiteLine3.jpg	MediumLong_e04_stereo_44KHz.wav
3	145	2	1	0	C	2	0	643	0	poli_8sides 16_whiteLine3.jpg	Medium_e13_stereo_44KHz.wav
3	146	1	1	1	C	1	0	892	0	poli_8sides 6_whiteLine3.jpg	Medium_e13_stereo_44KHz.wav
3	147	4	3	2	I	2	0	858	0	poli_8sides 3_whiteLine3.jpg	MediumLong_e04_stereo_44KHz.wav
3	148	3	4	2	I	2	0	825	0	poli_8sides 1_whiteLine3.jpg	Medium_e21_stereo_44KHz.wav
3	149	1	2	0	C	2	0	630	0	poli_8sides 6_whiteLine3.jpg	MediumLong_e17_cut2_stereo_44KHz.wav
3	150	4	4	2	I	2	0	656	0	poli_8sides 3_whiteLine3.jpg	Medium_e21_stereo_44KHz.wav
3	151	2	2	1	C	2	1	959	1	poli_8sides 16_whiteLine3.jpg	MediumLong_e17_cut2_stereo_44KHz.wav
3	152	3	3	2	I	1	0	1014	1	poli_8sides 1_whiteLine3.jpg	MediumLong_e04_stereo_44KHz.wav
3	153	4	4	2	I	2	0	953	1	poli_8sides 3_whiteLine3.jpg	Medium_e21_stereo_44KHz.wav
3	154	1	2	0	C	2	0	583	0	poli_8sides 6_whiteLine3.jpg	MediumLong_e17_cut2_stereo_44KHz.wav
3	155	2	1	0	C	2	0	556	0	poli_8sides 16_whiteLine3.jpg	Medium_e13_stereo_44KHz.wav
3	156	3	3	2	I	2	0	936	0	poli_8sides 1_whiteLine3.jpg	MediumLong_e04_stereo_44KHz.wav
3	157	1	1	1	C	2	1	691	1	poli_8sides 6_whiteLine3.jpg	Medium_e13_stereo_44KHz.wav
3	158	4	3	2	I	1	0	810	1	poli_8sides 3_whiteLine3.jpg	MediumLong_e04_stereo_44KHz.wav
3	159	3	4	2	I	2	0	646	0	poli_8sides 1_whiteLine3.jpg	Medium_e21_stereo_44KHz.wav
3	160	2	2	1	C	2	1	540	1	poli_8sides 16_whiteLine3.jpg	MediumLong_e17_cut2_stereo_44KHz.wav
3	161	1	1	1	C	1	0	746	0	poli_8sides 6_whiteLine3.jpg	Medium_e13_stereo_44KHz.wav
3	162	2	2	1	C	2	1	613	1	poli_8sides 16_whiteLine3.jpg	MediumLong_e17_cut2_stereo_44KHz.wav
3	163	3	3	2	I	1	0	880	1	poli_8sides 1_whiteLine3.jpg	MediumLong_e04_stereo_44KHz.wav
3	164	4	4	2	I	2	0	1075	0	poli_8sides 3_whiteLine3.jpg	Medium_e21_stereo_44KHz.wav
3	165	2	1	0	C	2	0	852	0	poli_8sides 16_whiteLine3.jpg	Medium_e13_stereo_44KHz.wav
3	166	1	2	0	C	2	0	585	0	poli_8sides 6_whiteLine3.jpg	MediumLong_e17_cut2_stereo_44KHz.wav
3	167	4	3	2	I	2	0	396	0	poli_8sides 3_whiteLine3.jpg	MediumLong_e04_stereo_44KHz.wav
3	168	3	4	2	I	2	0	860	1	poli_8sides 1_whiteLine3.jpg	Medium_e21_stereo_44KHz.wav
3	169	4	3	2	I	2	0	687	0	poli_8sides 3_whiteLine3.jpg	MediumLong_e04_stereo_44KHz.wav
3	170	2	1	0	C	1	1	763	1	poli_8sides 16_whiteLine3.jpg	Medium_e13_stereo_44KHz.wav
3	171	3	3	2	I	1	0	686	1	poli_8sides 1_whiteLine3.jpg	MediumLong_e04_stereo_44KHz.wav
3	172	1	2	0	C	2	0	873	0	poli_8sides 6_whiteLine3.jpg	MediumLong_e17_cut2_stereo_44KHz.wav
3	173	4	4	2	I	2	0	826	1	poli_8sides 3_whiteLine3.jpg	Medium_e21_stereo_44KHz.wav
3	174	3	4	2	I	2	0	1454	1	poli_8sides 1_whiteLine3.jpg	Medium_e21_stereo_44KHz.wav
3	175	1	1	1	C	2	1	609	1	poli_8sides 6_whiteLine3.jpg	Medium_e13_stereo_44KHz.wav
3	176	2	2	1	C	2	1	520	1	poli_8sides 16_whiteLine3.jpg	MediumLong_e17_cut2_stereo_44KHz.wav
3	177	4	4	2	I	2	0	477	1	poli_8sides 3_whiteLine3.jpg	Medium_e21_stereo_44KHz.wav
3	178	3	3	2	I	1	0	868	1	poli_8sides 1_whiteLine3.jpg	MediumLong_e04_stereo_44KHz.wav
3	179	1	1	1	C	2	1	652	1	poli_8sides 6_whiteLine3.jpg	Medium_e13_stereo_44KHz.wav
3	180	2	2	1	C	2	1	794	1	poli_8sides 16_whiteLine3.jpg	MediumLong_e17_cut2_stereo_44KHz.wav
3	181	3	4	2	I	2	0	284	0	poli_8sides 1_whiteLine3.jpg	Medium_e21_stereo_44KHz.wav
3	182	4	3	2	I	1	0	877	1	poli_8sides 3_whiteLine3.jpg	MediumLong_e04_stereo_44KHz.wav
3	183	2	1	0	C	2	0	414	0	poli_8sides 16_whiteLine3.jpg	Medium_e13_stereo_44KHz.wav
3	184	1	2	0	C	2	0	312	0	poli_8sides 6_whiteLine3.jpg	MediumLong_e17_cut2_stereo_44KHz.wav
3	185	3	3	2	I	2	0	484	1	poli_8sides 1_whiteLine3.jpg	MediumLong_e04_stereo_44KHz.wav
3	186	1	1	1	C	1	0	665	0	poli_8sides 6_whiteLine3.jpg	Medium_e13_stereo_44KHz.wav
3	187	2	2	1	C	2	1	586	1	poli_8sides 16_whiteLine3.jpg	MediumLong_e17_cut2_stereo_44KHz.wav
3	188	4	3	2	I	1	0	840	1	poli_8sides 3_whiteLine3.jpg	MediumLong_e04_stereo_44KHz.wav
3	189	2	1	0	C	2	0	424	0	poli_8sides 16_whiteLine3.jpg	Medium_e13_stereo_44KHz.wav
3	190	1	2	0	C	2	0	475	0	poli_8sides 6_whiteLine3.jpg	MediumLong_e17_cut2_stereo_44KHz.wav
3	191	3	4	2	I	2	0	326	1	poli_8sides 1_whiteLine3.jpg	Medium_e21_stereo_44KHz.wav
3	192	4	4	2	I	2	0	586	0	poli_8sides 3_whiteLine3.jpg	Medium_e21_stereo_44KHz.wav
3	193	2	2	1	C	2	1	152	1	poli_8sides 16_whiteLine3.jpg	MediumLong_e17_cut2_stereo_44KHz.wav
3	194	3	4	2	I	2	0	846	1	poli_8sides 1_whiteLine3.jpg	Medium_e21_stereo_44KHz.wav
3	195	4	3	2	I	2	0	509	1	poli_8sides 3_whiteLine3.jpg	MediumLong_e04_stereo_44KHz.wav
3	196	1	2	0	C	2	0	591	0	poli_8sides 6_whiteLine3.jpg	MediumLong_e17_cut2_stereo_44KHz.wav
3	197	2	1	0	C	2	0	547	0	poli_8sides 16_whiteLine3.jpg	Medium_e13_stereo_44KHz.wav
3	198	1	1	1	C	2	1	488	1	poli_8sides 6_whiteLine3.jpg	Medium_e13_stereo_44KHz.wav
3	199	4	4	2	I	2	0	727	0	poli_8sides 3_whiteLine3.jpg	Medium_e21_stereo_44KHz.wav
3	200	3	3	2	I	1	0	615	0	poli_8sides 1_whiteLine3.jpg	MediumLong_e04_stereo_44KHz.wav
4	1	4	4	2	I	0	0	0	0	poli_8sides 10_whiteLine3.jpg	MediumShort_b16_cut3_MS_stereo_44KHz.wav
4	2	1	1	1	C	2	1	1059	1	poli_8sides 18_whiteLine3.jpg	MediumShort_e22_cut1_stereo_44KHz.wav
4	3	3	4	2	I	2	0	753	0	poli_8sides 12_whiteLine3.jpg	MediumShort_b16_cut3_MS_stereo_44KHz.wav
4	4	2	2	1	C	2	1	767	1	poli_8sides 2_whiteLine3.jpg	MediumShort_b10_cut1_MS_stereo_44KHz.wav
4	5	4	3	2	I	2	0	1211	1	poli_8sides 10_whiteLine3.jpg	MediumShort_e16_cut1_stereo_44KHz.wav
4	6	1	2	0	C	1	1	1162	1	poli_8sides 18_whiteLine3.jpg	MediumShort_b10_cut1_MS_stereo_44KHz.wav
4	7	2	1	0	C	1	1	1217	1	poli_8sides 2_whiteLine3.jpg	MediumShort_e22_cut1_stereo_44KHz.wav
4	8	3	3	2	I	2	0	807	1	poli_8sides 12_whiteLine3.jpg	MediumShort_e16_cut1_stereo_44KHz.wav
4	9	1	2	0	C	1	1	780	1	poli_8sides 18_whiteLine3.jpg	MediumShort_b10_cut1_MS_stereo_44KHz.wav
4	10	2	1	0	C	1	1	961	1	poli_8sides 2_whiteLine3.jpg	MediumShort_e22_cut1_stereo_44KHz.wav
4	11	4	3	2	I	2	0	771	1	poli_8sides 10_whiteLine3.jpg	MediumShort_e16_cut1_stereo_44KHz.wav
4	12	3	4	2	I	2	0	957	1	poli_8sides 12_whiteLine3.jpg	MediumShort_b16_cut3_MS_stereo_44KHz.wav
4	13	1	1	1	C	1	0	994	0	poli_8sides 18_whiteLine3.jpg	MediumShort_e22_cut1_stereo_44KHz.wav
4	14	3	3	2	I	2	0	613	0	poli_8sides 12_whiteLine3.jpg	MediumShort_e16_cut1_stereo_44KHz.wav
4	15	4	4	2	I	2	0	910	1	poli_8sides 10_whiteLine3.jpg	MediumShort_b16_cut3_MS_stereo_44KHz.wav
4	16	2	2	1	C	2	1	1289	1	poli_8sides 2_whiteLine3.jpg	MediumShort_b10_cut1_MS_stereo_44KHz.wav
4	17	1	1	1	C	1	0	721	0	poli_8sides 18_whiteLine3.jpg	MediumShort_e22_cut1_stereo_44KHz.wav
4	18	4	4	2	I	2	0	745	1	poli_8sides 10_whiteLine3.jpg	MediumShort_b16_cut3_MS_stereo_44KHz.wav
4	19	2	1	0	C	2	0	736	0	poli_8sides 2_whiteLine3.jpg	MediumShort_e22_cut1_stereo_44KHz.wav
4	20	3	3	2	I	2	0	423	0	poli_8sides 12_whiteLine3.jpg	MediumShort_e16_cut1_stereo_44KHz.wav
4	21	2	2	1	C	2	1	896	1	poli_8sides 2_whiteLine3.jpg	MediumShort_b10_cut1_MS_stereo_44KHz.wav
4	22	1	2	0	C	1	1	666	1	poli_8sides 18_whiteLine3.jpg	MediumShort_b10_cut1_MS_stereo_44KHz.wav
4	23	3	4	2	I	2	0	727	1	poli_8sides 12_whiteLine3.jpg	MediumShort_b16_cut3_MS_stereo_44KHz.wav
4	24	4	3	2	I	2	0	671	0	poli_8sides 10_whiteLine3.jpg	MediumShort_e16_cut1_stereo_44KHz.wav
4	25	3	3	2	I	2	0	687	1	poli_8sides 12_whiteLine3.jpg	MediumShort_e16_cut1_stereo_44KHz.wav
4	26	2	1	0	C	2	0	869	0	poli_8sides 2_whiteLine3.jpg	MediumShort_e22_cut1_stereo_44KHz.wav
4	27	1	2	0	C	1	1	714	1	poli_8sides 18_whiteLine3.jpg	MediumShort_b10_cut1_MS_stereo_44KHz.wav
4	28	4	3	2	I	2	0	733	0	poli_8sides 10_whiteLine3.jpg	MediumShort_e16_cut1_stereo_44KHz.wav
4	29	1	1	1	C	1	0	1406	0	poli_8sides 18_whiteLine3.jpg	MediumShort_e22_cut1_stereo_44KHz.wav
4	30	3	4	2	I	2	0	611	1	poli_8sides 12_whiteLine3.jpg	MediumShort_b16_cut3_MS_stereo_44KHz.wav
4	31	4	4	2	I	2	0	737	0	poli_8sides 10_whiteLine3.jpg	MediumShort_b16_cut3_MS_stereo_44KHz.wav
4	32	2	2	1	C	2	1	1124	1	poli_8sides 2_whiteLine3.jpg	MediumShort_b10_cut1_MS_stereo_44KHz.wav
4	33	1	1	1	C	2	1	616	1	poli_8sides 18_whiteLine3.jpg	MediumShort_e22_cut1_stereo_44KHz.wav
4	34	3	4	2	I	2	0	710	0	poli_8sides 12_whiteLine3.jpg	MediumShort_b16_cut3_MS_stereo_44KHz.wav
4	35	2	2	1	C	2	1	828	1	poli_8sides 2_whiteLine3.jpg	MediumShort_b10_cut1_MS_stereo_44KHz.wav
4	36	4	3	2	I	2	0	625	1	poli_8sides 10_whiteLine3.jpg	MediumShort_e16_cut1_stereo_44KHz.wav
4	37	1	2	0	C	1	1	836	1	poli_8sides 18_whiteLine3.jpg	MediumShort_b10_cut1_MS_stereo_44KHz.wav
4	38	4	4	2	I	2	0	601	0	poli_8sides 10_whiteLine3.jpg	MediumShort_b16_cut3_MS_stereo_44KHz.wav
4	39	2	1	0	C	2	0	759	0	poli_8sides 2_whiteLine3.jpg	MediumShort_e22_cut1_stereo_44KHz.wav
4	40	3	3	2	I	2	0	767	1	poli_8sides 12_whiteLine3.jpg	MediumShort_e16_cut1_stereo_44KHz.wav
4	41	2	2	1	C	2	1	827	1	poli_8sides 2_whiteLine3.jpg	MediumShort_b10_cut1_MS_stereo_44KHz.wav
4	42	4	3	2	I	2	0	617	0	poli_8sides 10_whiteLine3.jpg	MediumShort_e16_cut1_stereo_44KHz.wav
4	43	3	4	2	I	2	0	698	0	poli_8sides 12_whiteLine3.jpg	MediumShort_b16_cut3_MS_stereo_44KHz.wav
4	44	1	2	0	C	1	1	821	1	poli_8sides 18_whiteLine3.jpg	MediumShort_b10_cut1_MS_stereo_44KHz.wav
4	45	2	1	0	C	1	1	892	1	poli_8sides 2_whiteLine3.jpg	MediumShort_e22_cut1_stereo_44KHz.wav
4	46	1	1	1	C	1	0	823	0	poli_8sides 18_whiteLine3.jpg	MediumShort_e22_cut1_stereo_44KHz.wav
4	47	4	4	2	I	2	0	920	1	poli_8sides 10_whiteLine3.jpg	MediumShort_b16_cut3_MS_stereo_44KHz.wav
4	48	3	3	2	I	2	0	732	0	poli_8sides 12_whiteLine3.jpg	MediumShort_e16_cut1_stereo_44KHz.wav
4	49	2	2	1	C	2	1	603	1	poli_8sides 2_whiteLine3.jpg	MediumShort_b10_cut1_MS_stereo_44KHz.wav
4	50	4	3	2	I	2	0	631	1	poli_8sides 10_whiteLine3.jpg	MediumShort_e16_cut1_stereo_44KHz.wav
4	51	1	2	0	C	1	1	659	1	poli_8sides 18_whiteLine3.jpg	MediumShort_b10_cut1_MS_stereo_44KHz.wav
4	52	3	4	2	I	2	0	718	1	poli_8sides 12_whiteLine3.jpg	MediumShort_b16_cut3_MS_stereo_44KHz.wav
4	53	2	1	0	C	1	1	1049	1	poli_8sides 2_whiteLine3.jpg	MediumShort_e22_cut1_stereo_44KHz.wav
4	54	1	1	1	C	2	1	676	1	poli_8sides 18_whiteLine3.jpg	MediumShort_e22_cut1_stereo_44KHz.wav
4	55	3	3	2	I	2	0	623	0	poli_8sides 12_whiteLine3.jpg	MediumShort_e16_cut1_stereo_44KHz.wav
4	56	4	4	2	I	1	0	618	1	poli_8sides 10_whiteLine3.jpg	MediumShort_b16_cut3_MS_stereo_44KHz.wav
4	57	3	3	2	I	1	0	420	0	poli_8sides 12_whiteLine3.jpg	MediumShort_e16_cut1_stereo_44KHz.wav
4	58	4	3	2	I	2	0	936	0	poli_8sides 10_whiteLine3.jpg	MediumShort_e16_cut1_stereo_44KHz.wav
4	59	1	2	0	C	1	1	536	1	poli_8sides 18_whiteLine3.jpg	MediumShort_b10_cut1_MS_stereo_44KHz.wav
4	60	2	1	0	C	1	1	793	1	poli_8sides 2_whiteLine3.jpg	MediumShort_e22_cut1_stereo_44KHz.wav
4	61	3	4	2	I	1	0	845	0	poli_8sides 12_whiteLine3.jpg	MediumShort_b16_cut3_MS_stereo_44KHz.wav
4	62	1	1	1	C	1	0	678	0	poli_8sides 18_whiteLine3.jpg	MediumShort_e22_cut1_stereo_44KHz.wav
4	63	2	2	1	C	1	0	681	0	poli_8sides 2_whiteLine3.jpg	MediumShort_b10_cut1_MS_stereo_44KHz.wav
4	64	4	4	2	I	2	0	545	1	poli_8sides 10_whiteLine3.jpg	MediumShort_b16_cut3_MS_stereo_44KHz.wav
4	65	1	1	1	C	2	1	822	1	poli_8sides 18_whiteLine3.jpg	MediumShort_e22_cut1_stereo_44KHz.wav
4	66	2	2	1	C	2	1	550	1	poli_8sides 2_whiteLine3.jpg	MediumShort_b10_cut1_MS_stereo_44KHz.wav
4	67	4	3	2	I	2	0	652	1	poli_8sides 10_whiteLine3.jpg	MediumShort_e16_cut1_stereo_44KHz.wav
4	68	3	4	2	I	2	0	818	1	poli_8sides 12_whiteLine3.jpg	MediumShort_b16_cut3_MS_stereo_44KHz.wav
4	69	4	4	2	I	2	0	589	0	poli_8sides 10_whiteLine3.jpg	MediumShort_b16_cut3_MS_stereo_44KHz.wav
4	70	1	2	0	C	1	1	1053	1	poli_8sides 18_whiteLine3.jpg	MediumShort_b10_cut1_MS_stereo_44KHz.wav
4	71	3	3	2	I	1	0	790	1	poli_8sides 12_whiteLine3.jpg	MediumShort_e16_cut1_stereo_44KHz.wav
4	72	2	1	0	C	1	1	1237	1	poli_8sides 2_whiteLine3.jpg	MediumShort_e22_cut1_stereo_44KHz.wav
4	73	1	1	1	C	1	0	549	0	poli_8sides 18_whiteLine3.jpg	MediumShort_e22_cut1_stereo_44KHz.wav
4	74	3	4	2	I	2	0	802	1	poli_8sides 12_whiteLine3.jpg	MediumShort_b16_cut3_MS_stereo_44KHz.wav
4	75	2	1	0	C	1	1	881	1	poli_8sides 2_whiteLine3.jpg	MediumShort_e22_cut1_stereo_44KHz.wav
4	76	4	3	2	I	2	0	619	1	poli_8sides 10_whiteLine3.jpg	MediumShort_e16_cut1_stereo_44KHz.wav
4	77	1	2	0	C	1	1	572	1	poli_8sides 18_whiteLine3.jpg	MediumShort_b10_cut1_MS_stereo_44KHz.wav
4	78	2	2	1	C	2	1	821	1	poli_8sides 2_whiteLine3.jpg	MediumShort_b10_cut1_MS_stereo_44KHz.wav
4	79	3	3	2	I	1	0	856	1	poli_8sides 12_whiteLine3.jpg	MediumShort_e16_cut1_stereo_44KHz.wav
4	80	4	4	2	I	2	0	679	1	poli_8sides 10_whiteLine3.jpg	MediumShort_b16_cut3_MS_stereo_44KHz.wav
4	81	3	3	2	I	1	0	734	1	poli_8sides 12_whiteLine3.jpg	MediumShort_e16_cut1_stereo_44KHz.wav
4	82	1	2	0	C	1	1	479	1	poli_8sides 18_whiteLine3.jpg	MediumShort_b10_cut1_MS_stereo_44KHz.wav
4	83	2	1	0	C	1	1	602	1	poli_8sides 2_whiteLine3.jpg	MediumShort_e22_cut1_stereo_44KHz.wav
4	84	4	4	2	I	2	0	613	0	poli_8sides 10_whiteLine3.jpg	MediumShort_b16_cut3_MS_stereo_44KHz.wav
4	85	2	2	1	C	2	1	506	1	poli_8sides 2_whiteLine3.jpg	MediumShort_b10_cut1_MS_stereo_44KHz.wav
4	86	4	3	2	I	2	0	643	1	poli_8sides 10_whiteLine3.jpg	MediumShort_e16_cut1_stereo_44KHz.wav
4	87	3	4	2	I	2	0	791	0	poli_8sides 12_whiteLine3.jpg	MediumShort_b16_cut3_MS_stereo_44KHz.wav
4	88	1	1	1	C	2	1	932	1	poli_8sides 18_whiteLine3.jpg	MediumShort_e22_cut1_stereo_44KHz.wav
4	89	4	4	2	I	2	0	691	0	poli_8sides 10_whiteLine3.jpg	MediumShort_b16_cut3_MS_stereo_44KHz.wav
4	90	3	3	2	I	1	0	789	0	poli_8sides 12_whiteLine3.jpg	MediumShort_e16_cut1_stereo_44KHz.wav
4	91	1	1	1	C	2	1	763	1	poli_8sides 18_whiteLine3.jpg	MediumShort_e22_cut1_stereo_44KHz.wav
4	92	2	2	1	C	2	1	1001	1	poli_8sides 2_whiteLine3.jpg	MediumShort_b10_cut1_MS_stereo_44KHz.wav
4	93	1	2	0	C	1	1	824	1	poli_8sides 18_whiteLine3.jpg	MediumShort_b10_cut1_MS_stereo_44KHz.wav
4	94	4	3	2	I	2	0	739	0	poli_8sides 10_whiteLine3.jpg	MediumShort_e16_cut1_stereo_44KHz.wav
4	95	3	4	2	I	2	0	594	0	poli_8sides 12_whiteLine3.jpg	MediumShort_b16_cut3_MS_stereo_44KHz.wav
4	96	2	1	0	C	2	0	761	0	poli_8sides 2_whiteLine3.jpg	MediumShort_e22_cut1_stereo_44KHz.wav
4	97	3	4	2	I	2	0	1343	0	poli_8sides 12_whiteLine3.jpg	MediumShort_b16_cut3_MS_stereo_44KHz.wav
4	98	4	4	2	I	2	0	639	1	poli_8sides 10_whiteLine3.jpg	MediumShort_b16_cut3_MS_stereo_44KHz.wav
4	99	2	2	1	C	2	1	955	1	poli_8sides 2_whiteLine3.jpg	MediumShort_b10_cut1_MS_stereo_44KHz.wav
4	100	1	1	1	C	2	1	777	1	poli_8sides 18_whiteLine3.jpg	MediumShort_e22_cut1_stereo_44KHz.wav
4	101	3	3	2	I	1	0	1156	1	poli_8sides 12_whiteLine3.jpg	MediumShort_e16_cut1_stereo_44KHz.wav
4	102	2	1	0	C	1	1	1055	1	poli_8sides 2_whiteLine3.jpg	MediumShort_e22_cut1_stereo_44KHz.wav
4	103	1	2	0	C	1	1	1159	1	poli_8sides 18_whiteLine3.jpg	MediumShort_b10_cut1_MS_stereo_44KHz.wav
4	104	4	3	2	I	2	0	672	0	poli_8sides 10_whiteLine3.jpg	MediumShort_e16_cut1_stereo_44KHz.wav
4	105	1	2	0	C	1	1	1108	1	poli_8sides 18_whiteLine3.jpg	MediumShort_b10_cut1_MS_stereo_44KHz.wav
4	106	3	3	2	I	1	0	757	0	poli_8sides 12_whiteLine3.jpg	MediumShort_e16_cut1_stereo_44KHz.wav
4	107	4	4	2	I	2	0	663	0	poli_8sides 10_whiteLine3.jpg	MediumShort_b16_cut3_MS_stereo_44KHz.wav
4	108	2	2	1	C	2	1	1051	1	poli_8sides 2_whiteLine3.jpg	MediumShort_b10_cut1_MS_stereo_44KHz.wav
4	109	4	3	2	I	2	0	818	0	poli_8sides 10_whiteLine3.jpg	MediumShort_e16_cut1_stereo_44KHz.wav
4	110	2	1	0	C	1	1	675	1	poli_8sides 2_whiteLine3.jpg	MediumShort_e22_cut1_stereo_44KHz.wav
4	111	3	4	2	I	2	0	913	0	poli_8sides 12_whiteLine3.jpg	MediumShort_b16_cut3_MS_stereo_44KHz.wav
4	112	1	1	1	C	2	1	777	1	poli_8sides 18_whiteLine3.jpg	MediumShort_e22_cut1_stereo_44KHz.wav
4	113	4	3	2	I	2	0	830	1	poli_8sides 10_whiteLine3.jpg	MediumShort_e16_cut1_stereo_44KHz.wav
4	114	2	2	1	C	2	1	818	1	poli_8sides 2_whiteLine3.jpg	MediumShort_b10_cut1_MS_stereo_44KHz.wav
4	115	3	4	2	I	2	0	773	0	poli_8sides 12_whiteLine3.jpg	MediumShort_b16_cut3_MS_stereo_44KHz.wav
4	116	1	1	1	C	2	1	921	1	poli_8sides 18_whiteLine3.jpg	MediumShort_e22_cut1_stereo_44KHz.wav
4	117	4	4	2	I	2	0	705	0	poli_8sides 10_whiteLine3.jpg	MediumShort_b16_cut3_MS_stereo_44KHz.wav
4	118	2	1	0	C	2	0	940	0	poli_8sides 2_whiteLine3.jpg	MediumShort_e22_cut1_stereo_44KHz.wav
4	119	3	3	2	I	1	0	896	1	poli_8sides 12_whiteLine3.jpg	MediumShort_e16_cut1_stereo_44KHz.wav
4	120	1	2	0	C	1	1	779	1	poli_8sides 18_whiteLine3.jpg	MediumShort_b10_cut1_MS_stereo_44KHz.wav
4	121	3	4	2	I	2	0	783	0	poli_8sides 12_whiteLine3.jpg	MediumShort_b16_cut3_MS_stereo_44KHz.wav
4	122	1	1	1	C	2	1	794	1	poli_8sides 18_whiteLine3.jpg	MediumShort_e22_cut1_stereo_44KHz.wav
4	123	4	3	2	I	2	0	620	1	poli_8sides 10_whiteLine3.jpg	MediumShort_e16_cut1_stereo_44KHz.wav
4	124	2	1	0	C	2	0	869	0	poli_8sides 2_whiteLine3.jpg	MediumShort_e22_cut1_stereo_44KHz.wav
4	125	3	3	2	I	2	0	639	1	poli_8sides 12_whiteLine3.jpg	MediumShort_e16_cut1_stereo_44KHz.wav
4	126	4	4	2	I	2	0	767	0	poli_8sides 10_whiteLine3.jpg	MediumShort_b16_cut3_MS_stereo_44KHz.wav
4	127	1	2	0	C	1	1	716	1	poli_8sides 18_whiteLine3.jpg	MediumShort_b10_cut1_MS_stereo_44KHz.wav
4	128	2	2	1	C	2	1	997	1	poli_8sides 2_whiteLine3.jpg	MediumShort_b10_cut1_MS_stereo_44KHz.wav
4	129	3	3	2	I	1	0	759	1	poli_8sides 12_whiteLine3.jpg	MediumShort_e16_cut1_stereo_44KHz.wav
4	130	1	2	0	C	1	1	673	1	poli_8sides 18_whiteLine3.jpg	MediumShort_b10_cut1_MS_stereo_44KHz.wav
4	131	4	3	2	I	2	0	741	0	poli_8sides 10_whiteLine3.jpg	MediumShort_e16_cut1_stereo_44KHz.wav
4	132	2	1	0	C	1	1	879	1	poli_8sides 2_whiteLine3.jpg	MediumShort_e22_cut1_stereo_44KHz.wav
4	133	1	1	1	C	2	1	798	1	poli_8sides 18_whiteLine3.jpg	MediumShort_e22_cut1_stereo_44KHz.wav
4	134	3	4	2	I	2	0	567	0	poli_8sides 12_whiteLine3.jpg	MediumShort_b16_cut3_MS_stereo_44KHz.wav
4	135	4	4	2	I	2	0	658	1	poli_8sides 10_whiteLine3.jpg	MediumShort_b16_cut3_MS_stereo_44KHz.wav
4	136	2	2	1	C	2	1	738	1	poli_8sides 2_whiteLine3.jpg	MediumShort_b10_cut1_MS_stereo_44KHz.wav
4	137	1	1	1	C	2	1	748	1	poli_8sides 18_whiteLine3.jpg	MediumShort_e22_cut1_stereo_44KHz.wav
4	138	4	4	2	I	2	0	508	1	poli_8sides 10_whiteLine3.jpg	MediumShort_b16_cut3_MS_stereo_44KHz.wav
4	139	3	4	2	I	2	0	630	1	poli_8sides 12_whiteLine3.jpg	MediumShort_b16_cut3_MS_stereo_44KHz.wav
4	140	2	2	1	C	2	1	1344	1	poli_8sides 2_whiteLine3.jpg	MediumShort_b10_cut1_MS_stereo_44KHz.wav
4	141	4	3	2	I	2	0	650	0	poli_8sides 10_whiteLine3.jpg	MediumShort_e16_cut1_stereo_44KHz.wav
4	142	2	1	0	C	1	1	1026	1	poli_8sides 2_whiteLine3.jpg	MediumShort_e22_cut1_stereo_44KHz.wav
4	143	3	3	2	I	2	0	665	0	poli_8sides 12_whiteLine3.jpg	MediumShort_e16_cut1_stereo_44KHz.wav
4	144	1	2	0	C	1	1	657	1	poli_8sides 18_whiteLine3.jpg	MediumShort_b10_cut1_MS_stereo_44KHz.wav
4	145	4	3	2	I	2	0	590	0	poli_8sides 10_whiteLine3.jpg	MediumShort_e16_cut1_stereo_44KHz.wav
4	146	3	3	2	I	1	0	611	1	poli_8sides 12_whiteLine3.jpg	MediumShort_e16_cut1_stereo_44KHz.wav
4	147	2	1	0	C	1	1	782	1	poli_8sides 2_whiteLine3.jpg	MediumShort_e22_cut1_stereo_44KHz.wav
4	148	1	2	0	C	1	1	629	1	poli_8sides 18_whiteLine3.jpg	MediumShort_b10_cut1_MS_stereo_44KHz.wav
4	149	2	2	1	C	2	1	730	1	poli_8sides 2_whiteLine3.jpg	MediumShort_b10_cut1_MS_stereo_44KHz.wav
4	150	1	1	1	C	2	1	587	1	poli_8sides 18_whiteLine3.jpg	MediumShort_e22_cut1_stereo_44KHz.wav
4	151	4	4	2	I	2	0	559	0	poli_8sides 10_whiteLine3.jpg	MediumShort_b16_cut3_MS_stereo_44KHz.wav
4	152	3	4	2	I	2	0	598	1	poli_8sides 12_whiteLine3.jpg	MediumShort_b16_cut3_MS_stereo_44KHz.wav
4	153	4	4	2	I	2	0	622	1	poli_8sides 10_whiteLine3.jpg	MediumShort_b16_cut3_MS_stereo_44KHz.wav
4	154	3	4	2	I	2	0	640	0	poli_8sides 12_whiteLine3.jpg	MediumShort_b16_cut3_MS_stereo_44KHz.wav
4	155	2	2	1	C	1	0	700	0	poli_8sides 2_whiteLine3.jpg	MediumShort_b10_cut1_MS_stereo_44KHz.wav
4	156	1	2	0	C	1	1	509	1	poli_8sides 18_whiteLine3.jpg	MediumShort_b10_cut1_MS_stereo_44KHz.wav
4	157	2	1	0	C	1	1	874	1	poli_8sides 2_whiteLine3.jpg	MediumShort_e22_cut1_stereo_44KHz.wav
4	158	1	1	1	C	2	1	768	1	poli_8sides 18_whiteLine3.jpg	MediumShort_e22_cut1_stereo_44KHz.wav
4	159	3	3	2	I	2	0	1216	0	poli_8sides 12_whiteLine3.jpg	MediumShort_e16_cut1_stereo_44KHz.wav
4	160	4	3	2	I	2	0	593	1	poli_8sides 10_whiteLine3.jpg	MediumShort_e16_cut1_stereo_44KHz.wav
4	161	2	2	1	C	2	1	986	1	poli_8sides 2_whiteLine3.jpg	MediumShort_b10_cut1_MS_stereo_44KHz.wav
4	162	3	3	2	I	2	0	583	1	poli_8sides 12_whiteLine3.jpg	MediumShort_e16_cut1_stereo_44KHz.wav
4	163	1	1	1	C	2	1	664	1	poli_8sides 18_whiteLine3.jpg	MediumShort_e22_cut1_stereo_44KHz.wav
4	164	4	4	2	I	2	0	610	0	poli_8sides 10_whiteLine3.jpg	MediumShort_b16_cut3_MS_stereo_44KHz.wav
4	165	1	2	0	C	1	1	874	1	poli_8sides 18_whiteLine3.jpg	MediumShort_b10_cut1_MS_stereo_44KHz.wav
4	166	4	3	2	I	2	0	982	0	poli_8sides 10_whiteLine3.jpg	MediumShort_e16_cut1_stereo_44KHz.wav
4	167	2	1	0	C	1	1	540	1	poli_8sides 2_whiteLine3.jpg	MediumShort_e22_cut1_stereo_44KHz.wav
4	168	3	4	2	I	2	0	690	1	poli_8sides 12_whiteLine3.jpg	MediumShort_b16_cut3_MS_stereo_44KHz.wav
4	169	2	2	1	C	2	1	990	1	poli_8sides 2_whiteLine3.jpg	MediumShort_b10_cut1_MS_stereo_44KHz.wav
4	170	3	3	2	I	2	0	789	1	poli_8sides 12_whiteLine3.jpg	MediumShort_e16_cut1_stereo_44KHz.wav
4	171	4	3	2	I	2	0	340	1	poli_8sides 10_whiteLine3.jpg	MediumShort_e16_cut1_stereo_44KHz.wav
4	172	1	2	0	C	1	1	1055	1	poli_8sides 18_whiteLine3.jpg	MediumShort_b10_cut1_MS_stereo_44KHz.wav
4	173	3	4	2	I	2	0	944	0	poli_8sides 12_whiteLine3.jpg	MediumShort_b16_cut3_MS_stereo_44KHz.wav
4	174	1	1	1	C	2	1	735	1	poli_8sides 18_whiteLine3.jpg	MediumShort_e22_cut1_stereo_44KHz.wav
4	175	2	1	0	C	1	1	916	1	poli_8sides 2_whiteLine3.jpg	MediumShort_e22_cut1_stereo_44KHz.wav
4	176	4	4	2	I	2	0	717	0	poli_8sides 10_whiteLine3.jpg	MediumShort_b16_cut3_MS_stereo_44KHz.wav
4	177	1	1	1	C	2	1	659	1	poli_8sides 18_whiteLine3.jpg	MediumShort_e22_cut1_stereo_44KHz.wav
4	178	3	4	2	I	2	0	587	1	poli_8sides 12_whiteLine3.jpg	MediumShort_b16_cut3_MS_stereo_44KHz.wav
4	179	4	3	2	I	2	0	538	1	poli_8sides 10_whiteLine3.jpg	MediumShort_e16_cut1_stereo_44KHz.wav
4	180	2	2	1	C	2	1	410	1	poli_8sides 2_whiteLine3.jpg	MediumShort_b10_cut1_MS_stereo_44KHz.wav
4	181	4	4	2	I	2	0	637	1	poli_8sides 10_whiteLine3.jpg	MediumShort_b16_cut3_MS_stereo_44KHz.wav
4	182	3	3	2	I	2	0	659	0	poli_8sides 12_whiteLine3.jpg	MediumShort_e16_cut1_stereo_44KHz.wav
4	183	2	1	0	C	1	1	618	1	poli_8sides 2_whiteLine3.jpg	MediumShort_e22_cut1_stereo_44KHz.wav
4	184	1	2	0	C	1	1	885	1	poli_8sides 18_whiteLine3.jpg	MediumShort_b10_cut1_MS_stereo_44KHz.wav
4	185	2	1	0	C	1	1	1021	1	poli_8sides 2_whiteLine3.jpg	MediumShort_e22_cut1_stereo_44KHz.wav
4	186	3	3	2	I	2	0	741	0	poli_8sides 12_whiteLine3.jpg	MediumShort_e16_cut1_stereo_44KHz.wav
4	187	4	3	2	I	2	0	484	0	poli_8sides 10_whiteLine3.jpg	MediumShort_e16_cut1_stereo_44KHz.wav
4	188	1	1	1	C	2	1	737	1	poli_8sides 18_whiteLine3.jpg	MediumShort_e22_cut1_stereo_44KHz.wav
4	189	3	4	2	I	2	0	854	0	poli_8sides 12_whiteLine3.jpg	MediumShort_b16_cut3_MS_stereo_44KHz.wav
4	190	4	4	2	I	2	0	578	1	poli_8sides 10_whiteLine3.jpg	MediumShort_b16_cut3_MS_stereo_44KHz.wav
4	191	2	2	1	C	2	1	772	1	poli_8sides 2_whiteLine3.jpg	MediumShort_b10_cut1_MS_stereo_44KHz.wav
4	192	1	2	0	C	1	1	620	1	poli_8sides 18_whiteLine3.jpg	MediumShort_b10_cut1_MS_stereo_44KHz.wav
4	193	4	3	2	I	2	0	701	0	poli_8sides 10_whiteLine3.jpg	MediumShort_e16_cut1_stereo_44KHz.wav
4	194	2	2	1	C	2	1	872	1	poli_8sides 2_whiteLine3.jpg	MediumShort_b10_cut1_MS_stereo_44KHz.wav
4	195	1	2	0	C	1	1	910	1	poli_8sides 18_whiteLine3.jpg	MediumShort_b10_cut1_MS_stereo_44KHz.wav
4	196	3	4	2	I	2	0	515	1	poli_8sides 12_whiteLine3.jpg	MediumShort_b16_cut3_MS_stereo_44KHz.wav
4	197	4	4	2	I	2	0	764	0	poli_8sides 10_whiteLine3.jpg	MediumShort_b16_cut3_MS_stereo_44KHz.wav
4	198	3	3	2	I	2	0	585	1	poli_8sides 12_whiteLine3.jpg	MediumShort_e16_cut1_stereo_44KHz.wav
4	199	1	1	1	C	2	1	825	1	poli_8sides 18_whiteLine3.jpg	MediumShort_e22_cut1_stereo_44KHz.wav
4	200	2	1	0	C	1	1	1282	1	poli_8sides 2_whiteLine3.jpg	MediumShort_e22_cut1_stereo_44KHz.wav
