block	trial	Vstim	Astim	match	C/I	resp	result	RT	fb	V-file	A-file
RL

0	1	1	2	0	C	2	1	1186	1	Ⴉ	cut_oo_stereo_44KHz.wav
0	2	2	3	1	C	1	1	1052	1	Ⴋ	cut_ee_stereo_44KHz.wav
0	3	2	4	0	C	2	1	937	1	Ⴋ	cut_eeuw_stereo_44KHz.wav
0	4	1	1	1	C	1	1	832	1	Ⴉ	cut_g_stereo_44KHz.wav
0	5	2	3	1	C	1	1	855	1	Ⴋ	cut_ee_stereo_44KHz.wav
0	6	1	1	1	C	1	1	821	1	Ⴉ	cut_g_stereo_44KHz.wav
0	7	1	2	0	C	2	1	705	1	Ⴉ	cut_oo_stereo_44KHz.wav
0	8	2	4	0	C	2	1	827	1	Ⴋ	cut_eeuw_stereo_44KHz.wav
0	9	1	2	0	C	2	1	563	1	Ⴉ	cut_oo_stereo_44KHz.wav
0	10	2	3	1	C	1	1	741	1	Ⴋ	cut_ee_stereo_44KHz.wav
0	11	1	1	1	C	1	1	946	1	Ⴉ	cut_g_stereo_44KHz.wav
0	12	2	4	0	C	2	1	664	1	Ⴋ	cut_eeuw_stereo_44KHz.wav
0	13	2	4	0	C	2	1	760	1	Ⴋ	cut_eeuw_stereo_44KHz.wav
0	14	1	2	0	C	2	1	721	1	Ⴉ	cut_oo_stereo_44KHz.wav
0	15	2	3	1	C	1	1	1025	1	Ⴋ	cut_ee_stereo_44KHz.wav
0	16	1	1	1	C	1	1	950	1	Ⴉ	cut_g_stereo_44KHz.wav
0	17	2	3	1	C	1	1	954	1	Ⴋ	cut_ee_stereo_44KHz.wav
0	18	1	1	1	C	1	1	1141	1	Ⴉ	cut_g_stereo_44KHz.wav
0	19	1	2	0	C	2	1	1014	1	Ⴉ	cut_oo_stereo_44KHz.wav
0	20	2	4	0	C	2	1	767	1	Ⴋ	cut_eeuw_stereo_44KHz.wav
0	21	2	3	1	C	1	1	723	1	Ⴋ	cut_ee_stereo_44KHz.wav
0	22	2	4	0	C	2	1	743	1	Ⴋ	cut_eeuw_stereo_44KHz.wav
0	23	1	2	0	C	2	1	678	1	Ⴉ	cut_oo_stereo_44KHz.wav
0	24	1	1	1	C	1	1	898	1	Ⴉ	cut_g_stereo_44KHz.wav
0	25	2	3	1	C	1	1	537	1	Ⴋ	cut_ee_stereo_44KHz.wav
0	26	2	4	0	C	2	1	932	1	Ⴋ	cut_eeuw_stereo_44KHz.wav
0	27	1	2	0	C	2	1	738	1	Ⴉ	cut_oo_stereo_44KHz.wav
0	28	1	1	1	C	1	1	1261	1	Ⴉ	cut_g_stereo_44KHz.wav
0	29	2	4	0	C	2	1	739	1	Ⴋ	cut_eeuw_stereo_44KHz.wav
0	30	1	1	1	C	1	1	668	1	Ⴉ	cut_g_stereo_44KHz.wav
avg_resp = 846
1	1	4	3	2	I	2	0	1131	0	Ⴒ	cut_f_stereo_44KHz.wav
1	2	3	4	2	I	1	0	1350	1	Ⴖ	cut_r_stereo_44KHz.wav
1	3	1	1	1	C	2	0	844	0	Ⴔ	cut_oei_stereo_44KHz.wav
1	4	2	1	0	C	2	1	717	1	Ⴌ	cut_oei_stereo_44KHz.wav
1	5	1	2	0	C	2	1	936	1	Ⴔ	cut_j_stereo_44KHz.wav
1	6	4	4	2	I	1	0	1066	1	Ⴒ	cut_r_stereo_44KHz.wav
1	7	2	2	1	C	1	1	1048	1	Ⴌ	cut_j_stereo_44KHz.wav
1	8	3	3	2	I	2	0	1156	1	Ⴖ	cut_f_stereo_44KHz.wav
1	9	1	2	0	C	2	1	939	1	Ⴔ	cut_j_stereo_44KHz.wav
1	10	3	3	2	I	2	0	569	0	Ⴖ	cut_f_stereo_44KHz.wav
1	11	4	3	2	I	1	0	1196	1	Ⴒ	cut_f_stereo_44KHz.wav
1	12	2	2	1	C	1	1	937	1	Ⴌ	cut_j_stereo_44KHz.wav
1	13	4	4	2	I	2	0	1083	0	Ⴒ	cut_r_stereo_44KHz.wav
1	14	3	4	2	I	1	0	965	0	Ⴖ	cut_r_stereo_44KHz.wav
1	15	1	1	1	C	1	1	842	1	Ⴔ	cut_oei_stereo_44KHz.wav
1	16	2	1	0	C	2	1	919	1	Ⴌ	cut_oei_stereo_44KHz.wav
1	17	1	2	0	C	2	1	793	1	Ⴔ	cut_j_stereo_44KHz.wav
1	18	3	3	2	I	2	0	760	1	Ⴖ	cut_f_stereo_44KHz.wav
1	19	2	1	0	C	2	1	738	1	Ⴌ	cut_oei_stereo_44KHz.wav
1	20	4	4	2	I	2	0	1114	0	Ⴒ	cut_r_stereo_44KHz.wav
1	21	1	1	1	C	1	1	971	1	Ⴔ	cut_oei_stereo_44KHz.wav
1	22	2	2	1	C	1	1	939	1	Ⴌ	cut_j_stereo_44KHz.wav
1	23	4	3	2	I	1	0	923	0	Ⴒ	cut_f_stereo_44KHz.wav
1	24	3	4	2	I	1	0	949	0	Ⴖ	cut_r_stereo_44KHz.wav
1	25	2	2	1	C	1	1	909	1	Ⴌ	cut_j_stereo_44KHz.wav
1	26	1	2	0	C	2	1	769	1	Ⴔ	cut_j_stereo_44KHz.wav
1	27	4	3	2	I	2	0	1111	1	Ⴒ	cut_f_stereo_44KHz.wav
1	28	3	3	2	I	2	0	576	0	Ⴖ	cut_f_stereo_44KHz.wav
1	29	2	1	0	C	2	1	964	1	Ⴌ	cut_oei_stereo_44KHz.wav
1	30	3	4	2	I	1	0	1255	0	Ⴖ	cut_r_stereo_44KHz.wav
1	31	1	1	1	C	1	1	832	1	Ⴔ	cut_oei_stereo_44KHz.wav
1	32	4	4	2	I	1	0	1207	0	Ⴒ	cut_r_stereo_44KHz.wav
1	33	3	4	2	I	2	0	676	0	Ⴖ	cut_r_stereo_44KHz.wav
1	34	2	2	1	C	1	1	1008	1	Ⴌ	cut_j_stereo_44KHz.wav
1	35	4	4	2	I	2	0	919	1	Ⴒ	cut_r_stereo_44KHz.wav
1	36	1	1	1	C	1	1	1123	1	Ⴔ	cut_oei_stereo_44KHz.wav
1	37	3	3	2	I	1	0	1152	0	Ⴖ	cut_f_stereo_44KHz.wav
1	38	4	3	2	I	2	0	992	1	Ⴒ	cut_f_stereo_44KHz.wav
1	39	2	1	0	C	2	1	1086	1	Ⴌ	cut_oei_stereo_44KHz.wav
1	40	1	2	0	C	2	1	933	1	Ⴔ	cut_j_stereo_44KHz.wav
1	41	3	4	2	I	2	0	394	1	Ⴖ	cut_r_stereo_44KHz.wav
1	42	4	4	2	I	2	0	478	0	Ⴒ	cut_r_stereo_44KHz.wav
1	43	2	2	1	C	1	1	1194	1	Ⴌ	cut_j_stereo_44KHz.wav
1	44	1	2	0	C	2	1	765	1	Ⴔ	cut_j_stereo_44KHz.wav
1	45	3	3	2	I	2	0	892	1	Ⴖ	cut_f_stereo_44KHz.wav
1	46	1	1	1	C	1	1	909	1	Ⴔ	cut_oei_stereo_44KHz.wav
1	47	4	3	2	I	2	0	1245	1	Ⴒ	cut_f_stereo_44KHz.wav
1	48	2	1	0	C	2	1	748	1	Ⴌ	cut_oei_stereo_44KHz.wav
1	49	4	4	2	I	1	0	1061	1	Ⴒ	cut_r_stereo_44KHz.wav
1	50	2	2	1	C	1	1	857	1	Ⴌ	cut_j_stereo_44KHz.wav
1	51	1	2	0	C	2	1	902	1	Ⴔ	cut_j_stereo_44KHz.wav
1	52	3	4	2	I	2	0	536	1	Ⴖ	cut_r_stereo_44KHz.wav
1	53	1	1	1	C	1	1	796	1	Ⴔ	cut_oei_stereo_44KHz.wav
1	54	4	3	2	I	2	0	732	0	Ⴒ	cut_f_stereo_44KHz.wav
1	55	3	3	2	I	2	0	365	1	Ⴖ	cut_f_stereo_44KHz.wav
1	56	2	1	0	C	2	1	807	1	Ⴌ	cut_oei_stereo_44KHz.wav
1	57	1	1	1	C	1	1	583	1	Ⴔ	cut_oei_stereo_44KHz.wav
1	58	3	3	2	I	2	0	989	1	Ⴖ	cut_f_stereo_44KHz.wav
1	59	4	4	2	I	2	0	660	0	Ⴒ	cut_r_stereo_44KHz.wav
1	60	2	1	0	C	2	1	1081	1	Ⴌ	cut_oei_stereo_44KHz.wav
1	61	3	4	2	I	2	0	859	0	Ⴖ	cut_r_stereo_44KHz.wav
1	62	2	2	1	C	1	1	821	1	Ⴌ	cut_j_stereo_44KHz.wav
1	63	4	3	2	I	1	0	763	1	Ⴒ	cut_f_stereo_44KHz.wav
1	64	1	2	0	C	2	1	804	1	Ⴔ	cut_j_stereo_44KHz.wav
1	65	4	4	2	I	2	0	1467	1	Ⴒ	cut_r_stereo_44KHz.wav
1	66	2	2	1	C	1	1	968	1	Ⴌ	cut_j_stereo_44KHz.wav
1	67	3	3	2	I	2	0	464	1	Ⴖ	cut_f_stereo_44KHz.wav
1	68	1	2	0	C	2	1	1043	1	Ⴔ	cut_j_stereo_44KHz.wav
1	69	4	3	2	I	2	0	679	0	Ⴒ	cut_f_stereo_44KHz.wav
1	70	1	1	1	C	1	1	861	1	Ⴔ	cut_oei_stereo_44KHz.wav
1	71	3	4	2	I	2	0	705	1	Ⴖ	cut_r_stereo_44KHz.wav
1	72	2	1	0	C	2	1	929	1	Ⴌ	cut_oei_stereo_44KHz.wav
1	73	3	4	2	I	1	0	925	0	Ⴖ	cut_r_stereo_44KHz.wav
1	74	1	2	0	C	2	1	670	1	Ⴔ	cut_j_stereo_44KHz.wav
1	75	4	3	2	I	2	0	670	0	Ⴒ	cut_f_stereo_44KHz.wav
1	76	2	2	1	C	1	1	870	1	Ⴌ	cut_j_stereo_44KHz.wav
1	77	1	1	1	C	1	1	894	1	Ⴔ	cut_oei_stereo_44KHz.wav
1	78	2	1	0	C	2	1	761	1	Ⴌ	cut_oei_stereo_44KHz.wav
1	79	4	4	2	I	2	0	1118	0	Ⴒ	cut_r_stereo_44KHz.wav
1	80	3	3	2	I	1	0	863	0	Ⴖ	cut_f_stereo_44KHz.wav
1	81	4	4	2	I	1	0	993	0	Ⴒ	cut_r_stereo_44KHz.wav
1	82	1	1	1	C	1	1	979	1	Ⴔ	cut_oei_stereo_44KHz.wav
1	83	3	4	2	I	2	0	708	1	Ⴖ	cut_r_stereo_44KHz.wav
1	84	2	2	1	C	1	1	1296	1	Ⴌ	cut_j_stereo_44KHz.wav
1	85	4	3	2	I	2	0	775	1	Ⴒ	cut_f_stereo_44KHz.wav
1	86	1	2	0	C	2	1	1177	1	Ⴔ	cut_j_stereo_44KHz.wav
1	87	3	3	2	I	2	0	1360	1	Ⴖ	cut_f_stereo_44KHz.wav
1	88	2	1	0	C	2	1	1018	1	Ⴌ	cut_oei_stereo_44KHz.wav
1	89	1	1	1	C	1	1	779	1	Ⴔ	cut_oei_stereo_44KHz.wav
1	90	4	3	2	I	1	0	1261	0	Ⴒ	cut_f_stereo_44KHz.wav
1	91	2	1	0	C	2	1	1017	1	Ⴌ	cut_oei_stereo_44KHz.wav
1	92	3	3	2	I	2	0	712	1	Ⴖ	cut_f_stereo_44KHz.wav
1	93	1	2	0	C	2	1	1047	1	Ⴔ	cut_j_stereo_44KHz.wav
1	94	4	4	2	I	2	0	820	1	Ⴒ	cut_r_stereo_44KHz.wav
1	95	2	2	1	C	1	1	1207	1	Ⴌ	cut_j_stereo_44KHz.wav
1	96	3	4	2	I	1	0	781	1	Ⴖ	cut_r_stereo_44KHz.wav
1	97	1	1	1	C	1	1	935	1	Ⴔ	cut_oei_stereo_44KHz.wav
1	98	3	4	2	I	2	0	668	1	Ⴖ	cut_r_stereo_44KHz.wav
1	99	4	4	2	I	1	0	1050	1	Ⴒ	cut_r_stereo_44KHz.wav
1	100	2	1	0	C	2	1	1361	1	Ⴌ	cut_oei_stereo_44KHz.wav
1	101	3	3	2	I	1	0	710	0	Ⴖ	cut_f_stereo_44KHz.wav
1	102	1	2	0	C	2	1	853	1	Ⴔ	cut_j_stereo_44KHz.wav
1	103	4	3	2	I	2	0	545	1	Ⴒ	cut_f_stereo_44KHz.wav
1	104	2	2	1	C	1	1	1079	1	Ⴌ	cut_j_stereo_44KHz.wav
1	105	3	4	2	I	2	0	749	0	Ⴖ	cut_r_stereo_44KHz.wav
1	106	1	1	1	C	1	1	831	1	Ⴔ	cut_oei_stereo_44KHz.wav
1	107	2	2	1	C	1	1	819	1	Ⴌ	cut_j_stereo_44KHz.wav
1	108	4	4	2	I	2	0	772	0	Ⴒ	cut_r_stereo_44KHz.wav
1	109	1	2	0	C	2	1	1015	1	Ⴔ	cut_j_stereo_44KHz.wav
1	110	2	1	0	C	2	1	810	1	Ⴌ	cut_oei_stereo_44KHz.wav
1	111	3	3	2	I	2	0	735	0	Ⴖ	cut_f_stereo_44KHz.wav
1	112	4	3	2	I	2	0	627	1	Ⴒ	cut_f_stereo_44KHz.wav
1	113	3	3	2	I	2	0	484	0	Ⴖ	cut_f_stereo_44KHz.wav
1	114	2	1	0	C	2	1	1214	1	Ⴌ	cut_oei_stereo_44KHz.wav
1	115	4	4	2	I	2	0	687	1	Ⴒ	cut_r_stereo_44KHz.wav
1	116	1	2	0	C	2	1	776	1	Ⴔ	cut_j_stereo_44KHz.wav
1	117	3	4	2	I	1	0	882	0	Ⴖ	cut_r_stereo_44KHz.wav
1	118	4	3	2	I	2	0	1605	1	Ⴒ	cut_f_stereo_44KHz.wav
1	119	1	1	1	C	1	1	930	1	Ⴔ	cut_oei_stereo_44KHz.wav
1	120	2	2	1	C	1	1	1632	1	Ⴌ	cut_j_stereo_44KHz.wav
1	121	1	2	0	C	2	1	1048	1	Ⴔ	cut_j_stereo_44KHz.wav
1	122	3	3	2	I	1	0	973	0	Ⴖ	cut_f_stereo_44KHz.wav
1	123	2	1	0	C	2	1	810	1	Ⴌ	cut_oei_stereo_44KHz.wav
1	124	4	3	2	I	2	0	970	0	Ⴒ	cut_f_stereo_44KHz.wav
1	125	3	4	2	I	2	0	684	1	Ⴖ	cut_r_stereo_44KHz.wav
1	126	2	2	1	C	1	1	965	1	Ⴌ	cut_j_stereo_44KHz.wav
1	127	1	1	1	C	1	1	887	1	Ⴔ	cut_oei_stereo_44KHz.wav
1	128	4	4	2	I	1	0	1283	1	Ⴒ	cut_r_stereo_44KHz.wav
1	129	1	1	1	C	1	1	917	1	Ⴔ	cut_oei_stereo_44KHz.wav
1	130	4	3	2	I	2	0	838	1	Ⴒ	cut_f_stereo_44KHz.wav
1	131	2	1	0	C	2	1	1018	1	Ⴌ	cut_oei_stereo_44KHz.wav
1	132	3	4	2	I	2	0	789	0	Ⴖ	cut_r_stereo_44KHz.wav
1	133	1	2	0	C	2	1	942	1	Ⴔ	cut_j_stereo_44KHz.wav
1	134	3	3	2	I	2	0	585	1	Ⴖ	cut_f_stereo_44KHz.wav
1	135	4	4	2	I	2	0	781	1	Ⴒ	cut_r_stereo_44KHz.wav
1	136	2	2	1	C	1	1	905	1	Ⴌ	cut_j_stereo_44KHz.wav
1	137	4	3	2	I	1	0	1215	1	Ⴒ	cut_f_stereo_44KHz.wav
1	138	3	4	2	I	1	0	1055	1	Ⴖ	cut_r_stereo_44KHz.wav
1	139	2	2	1	C	1	1	1245	1	Ⴌ	cut_j_stereo_44KHz.wav
1	140	1	2	0	C	2	1	881	1	Ⴔ	cut_j_stereo_44KHz.wav
1	141	2	1	0	C	2	1	1047	1	Ⴌ	cut_oei_stereo_44KHz.wav
1	142	4	4	2	I	1	0	981	1	Ⴒ	cut_r_stereo_44KHz.wav
1	143	3	3	2	I	1	0	778	0	Ⴖ	cut_f_stereo_44KHz.wav
1	144	1	1	1	C	1	1	920	1	Ⴔ	cut_oei_stereo_44KHz.wav
1	145	3	3	2	I	2	0	721	0	Ⴖ	cut_f_stereo_44KHz.wav
1	146	4	3	2	I	2	0	802	0	Ⴒ	cut_f_stereo_44KHz.wav
1	147	2	2	1	C	1	1	1342	1	Ⴌ	cut_j_stereo_44KHz.wav
1	148	1	2	0	C	2	1	1161	1	Ⴔ	cut_j_stereo_44KHz.wav
1	149	3	4	2	I	2	0	869	0	Ⴖ	cut_r_stereo_44KHz.wav
1	150	1	1	1	C	1	1	851	1	Ⴔ	cut_oei_stereo_44KHz.wav
1	151	4	4	2	I	2	0	673	0	Ⴒ	cut_r_stereo_44KHz.wav
1	152	2	1	0	C	2	1	824	1	Ⴌ	cut_oei_stereo_44KHz.wav
1	153	1	1	1	C	1	1	801	1	Ⴔ	cut_oei_stereo_44KHz.wav
1	154	4	3	2	I	2	0	915	0	Ⴒ	cut_f_stereo_44KHz.wav
1	155	3	3	2	I	2	0	568	1	Ⴖ	cut_f_stereo_44KHz.wav
1	156	2	1	0	C	2	1	1069	1	Ⴌ	cut_oei_stereo_44KHz.wav
1	157	3	4	2	I	2	0	1157	1	Ⴖ	cut_r_stereo_44KHz.wav
1	158	4	4	2	I	1	0	723	1	Ⴒ	cut_r_stereo_44KHz.wav
1	159	1	2	0	C	2	1	991	1	Ⴔ	cut_j_stereo_44KHz.wav
1	160	2	2	1	C	1	1	775	1	Ⴌ	cut_j_stereo_44KHz.wav
1	161	3	4	2	I	1	0	774	1	Ⴖ	cut_r_stereo_44KHz.wav
1	162	2	1	0	C	2	1	953	1	Ⴌ	cut_oei_stereo_44KHz.wav
1	163	1	2	0	C	2	1	778	1	Ⴔ	cut_j_stereo_44KHz.wav
1	164	4	4	2	I	1	0	795	0	Ⴒ	cut_r_stereo_44KHz.wav
1	165	2	2	1	C	1	1	1101	1	Ⴌ	cut_j_stereo_44KHz.wav
1	166	1	1	1	C	1	1	864	1	Ⴔ	cut_oei_stereo_44KHz.wav
1	167	3	3	2	I	2	0	888	0	Ⴖ	cut_f_stereo_44KHz.wav
1	168	4	3	2	I	2	0	596	1	Ⴒ	cut_f_stereo_44KHz.wav
1	169	2	1	0	C	2	1	953	1	Ⴌ	cut_oei_stereo_44KHz.wav
1	170	4	4	2	I	1	0	680	0	Ⴒ	cut_r_stereo_44KHz.wav
1	171	1	1	1	C	1	1	869	1	Ⴔ	cut_oei_stereo_44KHz.wav
1	172	3	4	2	I	2	0	695	0	Ⴖ	cut_r_stereo_44KHz.wav
1	173	2	2	1	C	1	1	870	1	Ⴌ	cut_j_stereo_44KHz.wav
1	174	1	2	0	C	2	1	772	1	Ⴔ	cut_j_stereo_44KHz.wav
1	175	3	3	2	I	1	0	887	0	Ⴖ	cut_f_stereo_44KHz.wav
1	176	4	3	2	I	2	0	925	1	Ⴒ	cut_f_stereo_44KHz.wav
1	177	1	2	0	C	2	1	1233	1	Ⴔ	cut_j_stereo_44KHz.wav
1	178	3	4	2	I	1	0	687	1	Ⴖ	cut_r_stereo_44KHz.wav
1	179	2	2	1	C	2	0	755	0	Ⴌ	cut_j_stereo_44KHz.wav
1	180	4	3	2	I	2	0	897	0	Ⴒ	cut_f_stereo_44KHz.wav
1	181	3	3	2	I	2	0	634	0	Ⴖ	cut_f_stereo_44KHz.wav
1	182	1	1	1	C	1	1	912	1	Ⴔ	cut_oei_stereo_44KHz.wav
1	183	2	1	0	C	2	1	706	1	Ⴌ	cut_oei_stereo_44KHz.wav
1	184	4	4	2	I	2	0	859	1	Ⴒ	cut_r_stereo_44KHz.wav
1	185	3	3	2	I	1	0	1238	1	Ⴖ	cut_f_stereo_44KHz.wav
1	186	1	1	1	C	1	1	1021	1	Ⴔ	cut_oei_stereo_44KHz.wav
1	187	2	1	0	C	2	1	822	1	Ⴌ	cut_oei_stereo_44KHz.wav
1	188	4	3	2	I	2	0	864	0	Ⴒ	cut_f_stereo_44KHz.wav
1	189	3	4	2	I	2	0	539	0	Ⴖ	cut_r_stereo_44KHz.wav
1	190	1	2	0	C	2	1	767	1	Ⴔ	cut_j_stereo_44KHz.wav
1	191	2	2	1	C	1	1	859	1	Ⴌ	cut_j_stereo_44KHz.wav
1	192	4	4	2	I	2	0	918	0	Ⴒ	cut_r_stereo_44KHz.wav
1	193	2	1	0	C	1	0	687	0	Ⴌ	cut_oei_stereo_44KHz.wav
1	194	4	3	2	I	2	0	1248	0	Ⴒ	cut_f_stereo_44KHz.wav
1	195	3	3	2	I	2	0	650	1	Ⴖ	cut_f_stereo_44KHz.wav
1	196	1	1	1	C	1	1	1501	1	Ⴔ	cut_oei_stereo_44KHz.wav
1	197	3	4	2	I	2	0	770	1	Ⴖ	cut_r_stereo_44KHz.wav
1	198	2	2	1	C	1	1	1348	1	Ⴌ	cut_j_stereo_44KHz.wav
1	199	4	4	2	I	2	0	900	0	Ⴒ	cut_r_stereo_44KHz.wav
1	200	1	2	0	C	2	1	819	1	Ⴔ	cut_j_stereo_44KHz.wav
2	1	2	1	0	C	2	1	1286	1	Ⴟ	cut_u_stereo_44KHz.wav
2	2	4	3	2	I	1	0	993	0	Ⴜ	cut_a_stereo_44KHz.wav
2	3	3	3	2	I	2	0	608	0	Ⴇ	cut_a_stereo_44KHz.wav
2	4	1	2	0	C	2	1	837	1	Ⴡ	cut_k_stereo_44KHz.wav
2	5	4	4	2	I	1	0	1369	1	Ⴜ	cut_o_stereo_44KHz.wav
2	6	3	4	2	I	1	0	1419	1	Ⴇ	cut_o_stereo_44KHz.wav
2	7	1	1	1	C	1	1	1037	1	Ⴡ	cut_u_stereo_44KHz.wav
2	8	2	2	1	C	1	1	885	1	Ⴟ	cut_k_stereo_44KHz.wav
2	9	4	4	2	I	1	0	1150	1	Ⴜ	cut_o_stereo_44KHz.wav
2	10	2	1	0	C	1	0	1364	0	Ⴟ	cut_u_stereo_44KHz.wav
2	11	1	2	0	C	2	1	883	1	Ⴡ	cut_k_stereo_44KHz.wav
2	12	3	3	2	I	2	0	814	1	Ⴇ	cut_a_stereo_44KHz.wav
2	13	4	3	2	I	2	0	1047	0	Ⴜ	cut_a_stereo_44KHz.wav
2	14	1	1	1	C	1	1	1004	1	Ⴡ	cut_u_stereo_44KHz.wav
2	15	2	2	1	C	1	1	983	1	Ⴟ	cut_k_stereo_44KHz.wav
2	16	3	4	2	I	1	0	1002	0	Ⴇ	cut_o_stereo_44KHz.wav
2	17	4	4	2	I	2	0	962	0	Ⴜ	cut_o_stereo_44KHz.wav
2	18	1	1	1	C	1	1	917	1	Ⴡ	cut_u_stereo_44KHz.wav
2	19	2	1	0	C	1	0	1140	0	Ⴟ	cut_u_stereo_44KHz.wav
2	20	3	3	2	I	2	0	669	0	Ⴇ	cut_a_stereo_44KHz.wav
2	21	2	2	1	C	1	1	966	1	Ⴟ	cut_k_stereo_44KHz.wav
2	22	1	2	0	C	2	1	597	1	Ⴡ	cut_k_stereo_44KHz.wav
2	23	3	4	2	I	2	0	797	0	Ⴇ	cut_o_stereo_44KHz.wav
2	24	4	3	2	I	2	0	447	1	Ⴜ	cut_a_stereo_44KHz.wav
2	25	1	2	0	C	2	1	641	1	Ⴡ	cut_k_stereo_44KHz.wav
2	26	3	3	2	I	2	0	714	1	Ⴇ	cut_a_stereo_44KHz.wav
2	27	2	1	0	C	2	1	1048	1	Ⴟ	cut_u_stereo_44KHz.wav
2	28	4	3	2	I	2	0	852	0	Ⴜ	cut_a_stereo_44KHz.wav
2	29	2	2	1	C	2	0	1010	0	Ⴟ	cut_k_stereo_44KHz.wav
2	30	3	4	2	I	1	0	1128	0	Ⴇ	cut_o_stereo_44KHz.wav
2	31	1	1	1	C	1	1	1513	1	Ⴡ	cut_u_stereo_44KHz.wav
2	32	4	4	2	I	1	0	1314	0	Ⴜ	cut_o_stereo_44KHz.wav
2	33	3	4	2	I	2	0	763	0	Ⴇ	cut_o_stereo_44KHz.wav
2	34	2	1	0	C	2	1	772	1	Ⴟ	cut_u_stereo_44KHz.wav
2	35	4	4	2	I	2	0	830	1	Ⴜ	cut_o_stereo_44KHz.wav
2	36	1	1	1	C	2	0	756	0	Ⴡ	cut_u_stereo_44KHz.wav
2	37	4	3	2	I	2	0	665	1	Ⴜ	cut_a_stereo_44KHz.wav
2	38	3	3	2	I	2	0	943	0	Ⴇ	cut_a_stereo_44KHz.wav
2	39	2	2	1	C	1	1	1348	1	Ⴟ	cut_k_stereo_44KHz.wav
2	40	1	2	0	C	2	1	647	1	Ⴡ	cut_k_stereo_44KHz.wav
2	41	3	4	2	I	2	0	690	1	Ⴇ	cut_o_stereo_44KHz.wav
2	42	1	1	1	C	1	1	879	1	Ⴡ	cut_u_stereo_44KHz.wav
2	43	2	2	1	C	1	1	821	1	Ⴟ	cut_k_stereo_44KHz.wav
2	44	4	3	2	I	2	0	416	0	Ⴜ	cut_a_stereo_44KHz.wav
2	45	2	1	0	C	2	1	1181	1	Ⴟ	cut_u_stereo_44KHz.wav
2	46	3	3	2	I	2	0	747	0	Ⴇ	cut_a_stereo_44KHz.wav
2	47	1	2	0	C	2	1	1070	1	Ⴡ	cut_k_stereo_44KHz.wav
2	48	4	4	2	I	2	0	715	1	Ⴜ	cut_o_stereo_44KHz.wav
2	49	2	2	1	C	2	0	751	0	Ⴟ	cut_k_stereo_44KHz.wav
2	50	3	3	2	I	2	0	1011	1	Ⴇ	cut_a_stereo_44KHz.wav
2	51	4	4	2	I	1	0	908	0	Ⴜ	cut_o_stereo_44KHz.wav
2	52	1	1	1	C	0	0	0	0	Ⴡ	cut_u_stereo_44KHz.wav
2	53	3	4	2	I	2	0	720	1	Ⴇ	cut_o_stereo_44KHz.wav
2	54	2	1	0	C	2	1	1230	1	Ⴟ	cut_u_stereo_44KHz.wav
2	55	1	2	0	C	2	1	1024	1	Ⴡ	cut_k_stereo_44KHz.wav
2	56	4	3	2	I	1	0	754	1	Ⴜ	cut_a_stereo_44KHz.wav
2	57	1	1	1	C	1	1	788	1	Ⴡ	cut_u_stereo_44KHz.wav
2	58	3	4	2	I	2	0	806	0	Ⴇ	cut_o_stereo_44KHz.wav
2	59	2	1	0	C	2	1	1320	1	Ⴟ	cut_u_stereo_44KHz.wav
2	60	4	4	2	I	1	0	857	1	Ⴜ	cut_o_stereo_44KHz.wav
2	61	1	2	0	C	2	1	526	1	Ⴡ	cut_k_stereo_44KHz.wav
2	62	3	3	2	I	2	0	759	1	Ⴇ	cut_a_stereo_44KHz.wav
2	63	4	3	2	I	1	0	1018	0	Ⴜ	cut_a_stereo_44KHz.wav
2	64	2	2	1	C	1	1	1144	1	Ⴟ	cut_k_stereo_44KHz.wav
2	65	1	2	0	C	2	1	556	1	Ⴡ	cut_k_stereo_44KHz.wav
2	66	2	2	1	C	2	0	1449	0	Ⴟ	cut_k_stereo_44KHz.wav
2	67	3	3	2	I	2	0	684	0	Ⴇ	cut_a_stereo_44KHz.wav
2	68	4	3	2	I	2	0	479	1	Ⴜ	cut_a_stereo_44KHz.wav
2	69	1	1	1	C	1	1	903	1	Ⴡ	cut_u_stereo_44KHz.wav
2	70	4	4	2	I	2	0	1072	0	Ⴜ	cut_o_stereo_44KHz.wav
2	71	2	1	0	C	1	0	1485	0	Ⴟ	cut_u_stereo_44KHz.wav
2	72	3	4	2	I	2	0	691	1	Ⴇ	cut_o_stereo_44KHz.wav
2	73	2	2	1	C	1	1	1174	1	Ⴟ	cut_k_stereo_44KHz.wav
2	74	4	3	2	I	1	0	893	1	Ⴜ	cut_a_stereo_44KHz.wav
2	75	3	3	2	I	2	0	681	0	Ⴇ	cut_a_stereo_44KHz.wav
2	76	1	2	0	C	2	1	765	1	Ⴡ	cut_k_stereo_44KHz.wav
2	77	4	4	2	I	1	0	879	1	Ⴜ	cut_o_stereo_44KHz.wav
2	78	1	1	1	C	1	1	1073	1	Ⴡ	cut_u_stereo_44KHz.wav
2	79	2	1	0	C	2	1	936	1	Ⴟ	cut_u_stereo_44KHz.wav
2	80	3	4	2	I	2	0	372	0	Ⴇ	cut_o_stereo_44KHz.wav
2	81	4	3	2	I	2	0	400	1	Ⴜ	cut_a_stereo_44KHz.wav
2	82	3	3	2	I	1	0	611	1	Ⴇ	cut_a_stereo_44KHz.wav
2	83	2	2	1	C	1	1	950	1	Ⴟ	cut_k_stereo_44KHz.wav
2	84	1	1	1	C	1	1	828	1	Ⴡ	cut_u_stereo_44KHz.wav
2	85	3	4	2	I	2	0	793	1	Ⴇ	cut_o_stereo_44KHz.wav
2	86	2	1	0	C	2	1	846	1	Ⴟ	cut_u_stereo_44KHz.wav
2	87	4	4	2	I	1	0	597	1	Ⴜ	cut_o_stereo_44KHz.wav
2	88	1	2	0	C	2	1	288	1	Ⴡ	cut_k_stereo_44KHz.wav
2	89	3	4	2	I	2	0	539	1	Ⴇ	cut_o_stereo_44KHz.wav
2	90	2	2	1	C	2	0	819	0	Ⴟ	cut_k_stereo_44KHz.wav
2	91	4	3	2	I	1	0	601	0	Ⴜ	cut_a_stereo_44KHz.wav
2	92	1	1	1	C	1	1	914	1	Ⴡ	cut_u_stereo_44KHz.wav
2	93	2	1	0	C	2	1	954	1	Ⴟ	cut_u_stereo_44KHz.wav
2	94	4	4	2	I	2	0	519	1	Ⴜ	cut_o_stereo_44KHz.wav
2	95	3	3	2	I	1	0	440	1	Ⴇ	cut_a_stereo_44KHz.wav
2	96	1	2	0	C	1	0	1027	0	Ⴡ	cut_k_stereo_44KHz.wav
2	97	3	3	2	I	2	0	589	0	Ⴇ	cut_a_stereo_44KHz.wav
2	98	2	1	0	C	2	1	642	1	Ⴟ	cut_u_stereo_44KHz.wav
2	99	4	3	2	I	1	0	630	0	Ⴜ	cut_a_stereo_44KHz.wav
2	100	1	1	1	C	1	1	1145	1	Ⴡ	cut_u_stereo_44KHz.wav
2	101	2	2	1	C	2	0	569	0	Ⴟ	cut_k_stereo_44KHz.wav
2	102	1	2	0	C	2	1	176	1	Ⴡ	cut_k_stereo_44KHz.wav
2	103	3	4	2	I	2	0	726	1	Ⴇ	cut_o_stereo_44KHz.wav
2	104	4	4	2	I	1	0	333	0	Ⴜ	cut_o_stereo_44KHz.wav
2	105	1	2	0	C	2	1	857	1	Ⴡ	cut_k_stereo_44KHz.wav
2	106	4	4	2	I	1	0	709	0	Ⴜ	cut_o_stereo_44KHz.wav
2	107	3	3	2	I	2	0	621	0	Ⴇ	cut_a_stereo_44KHz.wav
2	108	2	2	1	C	2	0	377	0	Ⴟ	cut_k_stereo_44KHz.wav
2	109	1	1	1	C	1	1	756	1	Ⴡ	cut_u_stereo_44KHz.wav
2	110	3	4	2	I	2	0	525	0	Ⴇ	cut_o_stereo_44KHz.wav
2	111	2	1	0	C	2	1	754	1	Ⴟ	cut_u_stereo_44KHz.wav
2	112	4	3	2	I	2	0	638	1	Ⴜ	cut_a_stereo_44KHz.wav
2	113	3	3	2	I	2	0	605	0	Ⴇ	cut_a_stereo_44KHz.wav
2	114	1	1	1	C	1	1	828	1	Ⴡ	cut_u_stereo_44KHz.wav
2	115	2	2	1	C	2	0	509	0	Ⴟ	cut_k_stereo_44KHz.wav
2	116	4	4	2	I	2	0	772	1	Ⴜ	cut_o_stereo_44KHz.wav
2	117	2	1	0	C	2	1	873	1	Ⴟ	cut_u_stereo_44KHz.wav
2	118	4	3	2	I	1	0	596	0	Ⴜ	cut_a_stereo_44KHz.wav
2	119	3	4	2	I	2	0	683	1	Ⴇ	cut_o_stereo_44KHz.wav
2	120	1	2	0	C	2	1	403	1	Ⴡ	cut_k_stereo_44KHz.wav
2	121	3	4	2	I	2	0	571	1	Ⴇ	cut_o_stereo_44KHz.wav
2	122	2	2	1	C	1	1	1311	1	Ⴟ	cut_k_stereo_44KHz.wav
2	123	1	2	0	C	2	1	565	1	Ⴡ	cut_k_stereo_44KHz.wav
2	124	4	3	2	I	1	0	620	0	Ⴜ	cut_a_stereo_44KHz.wav
2	125	2	1	0	C	2	1	748	1	Ⴟ	cut_u_stereo_44KHz.wav
2	126	3	3	2	I	1	0	478	1	Ⴇ	cut_a_stereo_44KHz.wav
2	127	4	4	2	I	1	0	491	0	Ⴜ	cut_o_stereo_44KHz.wav
2	128	1	1	1	C	1	1	850	1	Ⴡ	cut_u_stereo_44KHz.wav
2	129	4	3	2	I	2	0	594	1	Ⴜ	cut_a_stereo_44KHz.wav
2	130	3	4	2	I	2	0	585	1	Ⴇ	cut_o_stereo_44KHz.wav
2	131	2	2	1	C	1	1	1246	1	Ⴟ	cut_k_stereo_44KHz.wav
2	132	1	2	0	C	2	1	743	1	Ⴡ	cut_k_stereo_44KHz.wav
2	133	3	3	2	I	1	0	412	1	Ⴇ	cut_a_stereo_44KHz.wav
2	134	2	1	0	C	2	1	832	1	Ⴟ	cut_u_stereo_44KHz.wav
2	135	1	1	1	C	1	1	1003	1	Ⴡ	cut_u_stereo_44KHz.wav
2	136	4	4	2	I	1	0	712	1	Ⴜ	cut_o_stereo_44KHz.wav
2	137	1	1	1	C	1	1	691	1	Ⴡ	cut_u_stereo_44KHz.wav
2	138	4	3	2	I	2	0	1113	1	Ⴜ	cut_a_stereo_44KHz.wav
2	139	2	2	1	C	1	1	962	1	Ⴟ	cut_k_stereo_44KHz.wav
2	140	3	4	2	I	2	0	944	0	Ⴇ	cut_o_stereo_44KHz.wav
2	141	4	4	2	I	2	0	798	0	Ⴜ	cut_o_stereo_44KHz.wav
2	142	2	1	0	C	2	1	988	1	Ⴟ	cut_u_stereo_44KHz.wav
2	143	1	2	0	C	2	1	719	1	Ⴡ	cut_k_stereo_44KHz.wav
2	144	3	3	2	I	1	0	468	0	Ⴇ	cut_a_stereo_44KHz.wav
2	145	1	2	0	C	2	1	618	1	Ⴡ	cut_k_stereo_44KHz.wav
2	146	4	3	2	I	2	0	474	1	Ⴜ	cut_a_stereo_44KHz.wav
2	147	2	2	1	C	1	1	914	1	Ⴟ	cut_k_stereo_44KHz.wav
2	148	3	4	2	I	2	0	1211	0	Ⴇ	cut_o_stereo_44KHz.wav
2	149	1	1	1	C	1	1	987	1	Ⴡ	cut_u_stereo_44KHz.wav
2	150	2	1	0	C	2	1	786	1	Ⴟ	cut_u_stereo_44KHz.wav
2	151	3	3	2	I	2	0	519	0	Ⴇ	cut_a_stereo_44KHz.wav
2	152	4	4	2	I	1	0	493	0	Ⴜ	cut_o_stereo_44KHz.wav
2	153	3	3	2	I	1	0	610	1	Ⴇ	cut_a_stereo_44KHz.wav
2	154	4	4	2	I	2	0	383	1	Ⴜ	cut_o_stereo_44KHz.wav
2	155	1	1	1	C	1	1	875	1	Ⴡ	cut_u_stereo_44KHz.wav
2	156	2	2	1	C	1	1	765	1	Ⴟ	cut_k_stereo_44KHz.wav
2	157	3	4	2	I	2	0	570	0	Ⴇ	cut_o_stereo_44KHz.wav
2	158	2	1	0	C	2	1	1037	1	Ⴟ	cut_u_stereo_44KHz.wav
2	159	4	3	2	I	2	0	648	1	Ⴜ	cut_a_stereo_44KHz.wav
2	160	1	2	0	C	2	1	731	1	Ⴡ	cut_k_stereo_44KHz.wav
2	161	2	2	1	C	1	1	751	1	Ⴟ	cut_k_stereo_44KHz.wav
2	162	4	4	2	I	2	0	600	0	Ⴜ	cut_o_stereo_44KHz.wav
2	163	3	4	2	I	1	0	565	1	Ⴇ	cut_o_stereo_44KHz.wav
2	164	1	2	0	C	2	1	459	1	Ⴡ	cut_k_stereo_44KHz.wav
2	165	2	1	0	C	1	0	1070	0	Ⴟ	cut_u_stereo_44KHz.wav
2	166	3	3	2	I	2	0	515	0	Ⴇ	cut_a_stereo_44KHz.wav
2	167	1	1	1	C	1	1	833	1	Ⴡ	cut_u_stereo_44KHz.wav
2	168	4	3	2	I	1	0	490	1	Ⴜ	cut_a_stereo_44KHz.wav
2	169	3	3	2	I	1	0	663	0	Ⴇ	cut_a_stereo_44KHz.wav
2	170	2	1	0	C	2	1	729	1	Ⴟ	cut_u_stereo_44KHz.wav
2	171	4	3	2	I	2	0	752	0	Ⴜ	cut_a_stereo_44KHz.wav
2	172	1	2	0	C	2	1	733	1	Ⴡ	cut_k_stereo_44KHz.wav
2	173	3	4	2	I	1	0	1015	1	Ⴇ	cut_o_stereo_44KHz.wav
2	174	2	2	1	C	2	0	537	0	Ⴟ	cut_k_stereo_44KHz.wav
2	175	4	4	2	I	2	0	556	0	Ⴜ	cut_o_stereo_44KHz.wav
2	176	1	1	1	C	1	1	836	1	Ⴡ	cut_u_stereo_44KHz.wav
2	177	4	4	2	I	2	0	676	0	Ⴜ	cut_o_stereo_44KHz.wav
2	178	1	1	1	C	1	1	726	1	Ⴡ	cut_u_stereo_44KHz.wav
2	179	2	1	0	C	2	1	911	1	Ⴟ	cut_u_stereo_44KHz.wav
2	180	3	4	2	I	1	0	510	1	Ⴇ	cut_o_stereo_44KHz.wav
2	181	1	2	0	C	2	1	661	1	Ⴡ	cut_k_stereo_44KHz.wav
2	182	3	3	2	I	2	0	757	1	Ⴇ	cut_a_stereo_44KHz.wav
2	183	4	3	2	I	2	0	572	0	Ⴜ	cut_a_stereo_44KHz.wav
2	184	2	2	1	C	1	1	1026	1	Ⴟ	cut_k_stereo_44KHz.wav
2	185	1	1	1	C	1	1	773	1	Ⴡ	cut_u_stereo_44KHz.wav
2	186	4	3	2	I	2	0	647	0	Ⴜ	cut_a_stereo_44KHz.wav
2	187	3	4	2	I	2	0	702	1	Ⴇ	cut_o_stereo_44KHz.wav
2	188	2	2	1	C	1	1	821	1	Ⴟ	cut_k_stereo_44KHz.wav
2	189	1	2	0	C	2	1	651	1	Ⴡ	cut_k_stereo_44KHz.wav
2	190	2	1	0	C	1	0	792	0	Ⴟ	cut_u_stereo_44KHz.wav
2	191	3	3	2	I	2	0	749	0	Ⴇ	cut_a_stereo_44KHz.wav
2	192	4	4	2	I	1	0	900	0	Ⴜ	cut_o_stereo_44KHz.wav
2	193	2	1	0	C	2	1	829	1	Ⴟ	cut_u_stereo_44KHz.wav
2	194	4	3	2	I	1	0	998	1	Ⴜ	cut_a_stereo_44KHz.wav
2	195	3	3	2	I	2	0	758	1	Ⴇ	cut_a_stereo_44KHz.wav
2	196	1	2	0	C	2	1	551	1	Ⴡ	cut_k_stereo_44KHz.wav
2	197	3	4	2	I	1	0	573	0	Ⴇ	cut_o_stereo_44KHz.wav
2	198	1	1	1	C	1	1	823	1	Ⴡ	cut_u_stereo_44KHz.wav
2	199	4	4	2	I	2	0	672	1	Ⴜ	cut_o_stereo_44KHz.wav
2	200	2	2	1	C	1	1	791	1	Ⴟ	cut_k_stereo_44KHz.wav
3	1	1	2	0	C	2	1	1326	1	Ⴁ	cut_w_stereo_44KHz.wav
3	2	4	4	2	I	1	0	1079	0	Ⴂ	cut_l_stereo_44KHz.wav
3	3	3	3	2	I	2	0	847	0	Ⴃ	cut_h_stereo_44KHz.wav
3	4	2	1	0	C	2	1	1020	1	Ⴊ	cut_g_stereo_44KHz.wav
3	5	1	1	1	C	1	1	739	1	Ⴁ	cut_g_stereo_44KHz.wav
3	6	3	4	2	I	2	0	887	0	Ⴃ	cut_l_stereo_44KHz.wav
3	7	4	3	2	I	1	0	966	1	Ⴂ	cut_h_stereo_44KHz.wav
3	8	2	2	1	C	1	1	1270	1	Ⴊ	cut_w_stereo_44KHz.wav
3	9	3	4	2	I	1	0	1204	1	Ⴃ	cut_l_stereo_44KHz.wav
3	10	2	2	1	C	1	1	978	1	Ⴊ	cut_w_stereo_44KHz.wav
3	11	1	2	0	C	2	1	790	1	Ⴁ	cut_w_stereo_44KHz.wav
3	12	4	3	2	I	1	0	978	0	Ⴂ	cut_h_stereo_44KHz.wav
3	13	3	3	2	I	1	0	1197	1	Ⴃ	cut_h_stereo_44KHz.wav
3	14	2	1	0	C	2	1	794	1	Ⴊ	cut_g_stereo_44KHz.wav
3	15	1	1	1	C	1	1	739	1	Ⴁ	cut_g_stereo_44KHz.wav
3	16	4	4	2	I	2	0	1153	1	Ⴂ	cut_l_stereo_44KHz.wav
3	17	2	2	1	C	1	1	1156	1	Ⴊ	cut_w_stereo_44KHz.wav
3	18	1	2	0	C	2	1	632	1	Ⴁ	cut_w_stereo_44KHz.wav
3	19	3	3	2	I	2	0	714	0	Ⴃ	cut_h_stereo_44KHz.wav
3	20	4	3	2	I	2	0	773	0	Ⴂ	cut_h_stereo_44KHz.wav
3	21	3	4	2	I	2	0	1077	0	Ⴃ	cut_l_stereo_44KHz.wav
3	22	1	1	1	C	1	1	814	1	Ⴁ	cut_g_stereo_44KHz.wav
3	23	2	1	0	C	1	0	1267	0	Ⴊ	cut_g_stereo_44KHz.wav
3	24	4	4	2	I	2	0	862	1	Ⴂ	cut_l_stereo_44KHz.wav
3	25	1	2	0	C	2	1	651	1	Ⴁ	cut_w_stereo_44KHz.wav
3	26	4	3	2	I	2	0	828	1	Ⴂ	cut_h_stereo_44KHz.wav
3	27	2	2	1	C	1	1	1182	1	Ⴊ	cut_w_stereo_44KHz.wav
3	28	3	4	2	I	2	0	783	1	Ⴃ	cut_l_stereo_44KHz.wav
3	29	2	1	0	C	2	1	1002	1	Ⴊ	cut_g_stereo_44KHz.wav
3	30	4	4	2	I	2	0	701	1	Ⴂ	cut_l_stereo_44KHz.wav
3	31	3	3	2	I	2	0	349	0	Ⴃ	cut_h_stereo_44KHz.wav
3	32	1	1	1	C	1	1	867	1	Ⴁ	cut_g_stereo_44KHz.wav
3	33	3	4	2	I	2	0	883	1	Ⴃ	cut_l_stereo_44KHz.wav
3	34	4	4	2	I	2	0	816	0	Ⴂ	cut_l_stereo_44KHz.wav
3	35	1	2	0	C	2	1	734	1	Ⴁ	cut_w_stereo_44KHz.wav
3	36	2	2	1	C	1	1	1073	1	Ⴊ	cut_w_stereo_44KHz.wav
3	37	3	3	2	I	2	0	619	1	Ⴃ	cut_h_stereo_44KHz.wav
3	38	4	3	2	I	2	0	932	0	Ⴂ	cut_h_stereo_44KHz.wav
3	39	2	1	0	C	2	1	932	1	Ⴊ	cut_g_stereo_44KHz.wav
3	40	1	1	1	C	1	1	896	1	Ⴁ	cut_g_stereo_44KHz.wav
3	41	2	2	1	C	2	0	1330	0	Ⴊ	cut_w_stereo_44KHz.wav
3	42	4	4	2	I	2	0	982	1	Ⴂ	cut_l_stereo_44KHz.wav
3	43	1	1	1	C	1	1	1694	1	Ⴁ	cut_g_stereo_44KHz.wav
3	44	3	3	2	I	2	0	843	1	Ⴃ	cut_h_stereo_44KHz.wav
3	45	2	1	0	C	2	1	925	1	Ⴊ	cut_g_stereo_44KHz.wav
3	46	1	2	0	C	2	1	1029	1	Ⴁ	cut_w_stereo_44KHz.wav
3	47	4	3	2	I	2	0	732	1	Ⴂ	cut_h_stereo_44KHz.wav
3	48	3	4	2	I	1	0	457	1	Ⴃ	cut_l_stereo_44KHz.wav
3	49	1	2	0	C	2	1	893	1	Ⴁ	cut_w_stereo_44KHz.wav
3	50	2	2	1	C	1	1	905	1	Ⴊ	cut_w_stereo_44KHz.wav
3	51	3	4	2	I	2	0	468	0	Ⴃ	cut_l_stereo_44KHz.wav
3	52	4	3	2	I	1	0	813	1	Ⴂ	cut_h_stereo_44KHz.wav
3	53	3	3	2	I	2	0	636	0	Ⴃ	cut_h_stereo_44KHz.wav
3	54	1	1	1	C	1	1	893	1	Ⴁ	cut_g_stereo_44KHz.wav
3	55	4	4	2	I	2	0	830	1	Ⴂ	cut_l_stereo_44KHz.wav
3	56	2	1	0	C	2	1	1557	1	Ⴊ	cut_g_stereo_44KHz.wav
3	57	4	3	2	I	2	0	636	1	Ⴂ	cut_h_stereo_44KHz.wav
3	58	1	2	0	C	2	1	896	1	Ⴁ	cut_w_stereo_44KHz.wav
3	59	2	2	1	C	1	1	908	1	Ⴊ	cut_w_stereo_44KHz.wav
3	60	3	4	2	I	2	0	587	0	Ⴃ	cut_l_stereo_44KHz.wav
3	61	4	4	2	I	2	0	658	1	Ⴂ	cut_l_stereo_44KHz.wav
3	62	2	1	0	C	2	1	918	1	Ⴊ	cut_g_stereo_44KHz.wav
3	63	3	3	2	I	2	0	687	0	Ⴃ	cut_h_stereo_44KHz.wav
3	64	1	1	1	C	2	0	766	0	Ⴁ	cut_g_stereo_44KHz.wav
3	65	2	1	0	C	2	1	1186	1	Ⴊ	cut_g_stereo_44KHz.wav
3	66	1	1	1	C	1	1	803	1	Ⴁ	cut_g_stereo_44KHz.wav
3	67	4	4	2	I	1	0	1129	0	Ⴂ	cut_l_stereo_44KHz.wav
3	68	3	4	2	I	2	0	785	0	Ⴃ	cut_l_stereo_44KHz.wav
3	69	1	2	0	C	2	1	683	1	Ⴁ	cut_w_stereo_44KHz.wav
3	70	4	3	2	I	2	0	766	1	Ⴂ	cut_h_stereo_44KHz.wav
3	71	3	3	2	I	2	0	493	1	Ⴃ	cut_h_stereo_44KHz.wav
3	72	2	2	1	C	1	1	985	1	Ⴊ	cut_w_stereo_44KHz.wav
3	73	3	4	2	I	2	0	807	1	Ⴃ	cut_l_stereo_44KHz.wav
3	74	4	4	2	I	1	0	654	0	Ⴂ	cut_l_stereo_44KHz.wav
3	75	2	2	1	C	1	1	1194	1	Ⴊ	cut_w_stereo_44KHz.wav
3	76	1	1	1	C	1	1	729	1	Ⴁ	cut_g_stereo_44KHz.wav
3	77	2	1	0	C	1	0	767	0	Ⴊ	cut_g_stereo_44KHz.wav
3	78	3	3	2	I	2	0	647	0	Ⴃ	cut_h_stereo_44KHz.wav
3	79	4	3	2	I	2	0	665	1	Ⴂ	cut_h_stereo_44KHz.wav
3	80	1	2	0	C	2	1	654	1	Ⴁ	cut_w_stereo_44KHz.wav
3	81	4	4	2	I	2	0	817	1	Ⴂ	cut_l_stereo_44KHz.wav
3	82	3	4	2	I	2	0	677	1	Ⴃ	cut_l_stereo_44KHz.wav
3	83	1	2	0	C	2	1	762	1	Ⴁ	cut_w_stereo_44KHz.wav
3	84	2	1	0	C	2	1	784	1	Ⴊ	cut_g_stereo_44KHz.wav
3	85	3	3	2	I	2	0	702	0	Ⴃ	cut_h_stereo_44KHz.wav
3	86	4	3	2	I	2	0	1027	1	Ⴂ	cut_h_stereo_44KHz.wav
3	87	2	2	1	C	1	1	1329	1	Ⴊ	cut_w_stereo_44KHz.wav
3	88	1	1	1	C	1	1	946	1	Ⴁ	cut_g_stereo_44KHz.wav
3	89	3	3	2	I	2	0	721	0	Ⴃ	cut_h_stereo_44KHz.wav
3	90	4	4	2	I	1	0	1255	0	Ⴂ	cut_l_stereo_44KHz.wav
3	91	2	2	1	C	1	1	1408	1	Ⴊ	cut_w_stereo_44KHz.wav
3	92	1	1	1	C	1	1	644	1	Ⴁ	cut_g_stereo_44KHz.wav
3	93	4	3	2	I	2	0	675	1	Ⴂ	cut_h_stereo_44KHz.wav
3	94	1	2	0	C	2	1	642	1	Ⴁ	cut_w_stereo_44KHz.wav
3	95	3	4	2	I	1	0	823	1	Ⴃ	cut_l_stereo_44KHz.wav
3	96	2	1	0	C	2	1	1149	1	Ⴊ	cut_g_stereo_44KHz.wav
3	97	1	1	1	C	1	1	889	1	Ⴁ	cut_g_stereo_44KHz.wav
3	98	4	3	2	I	2	0	640	1	Ⴂ	cut_h_stereo_44KHz.wav
3	99	3	3	2	I	1	0	706	0	Ⴃ	cut_h_stereo_44KHz.wav
3	100	2	2	1	C	1	1	1069	1	Ⴊ	cut_w_stereo_44KHz.wav
3	101	1	2	0	C	2	1	539	1	Ⴁ	cut_w_stereo_44KHz.wav
3	102	4	4	2	I	1	0	927	0	Ⴂ	cut_l_stereo_44KHz.wav
3	103	3	4	2	I	2	0	807	0	Ⴃ	cut_l_stereo_44KHz.wav
3	104	2	1	0	C	2	1	669	1	Ⴊ	cut_g_stereo_44KHz.wav
3	105	4	4	2	I	2	0	903	0	Ⴂ	cut_l_stereo_44KHz.wav
3	106	1	1	1	C	1	1	957	1	Ⴁ	cut_g_stereo_44KHz.wav
3	107	3	4	2	I	1	0	983	0	Ⴃ	cut_l_stereo_44KHz.wav
3	108	2	1	0	C	2	1	547	1	Ⴊ	cut_g_stereo_44KHz.wav
3	109	3	3	2	I	2	0	599	0	Ⴃ	cut_h_stereo_44KHz.wav
3	110	2	2	1	C	1	1	1330	1	Ⴊ	cut_w_stereo_44KHz.wav
3	111	1	2	0	C	2	1	468	1	Ⴁ	cut_w_stereo_44KHz.wav
3	112	4	3	2	I	2	0	572	0	Ⴂ	cut_h_stereo_44KHz.wav
3	113	1	2	0	C	2	1	269	1	Ⴁ	cut_w_stereo_44KHz.wav
3	114	4	3	2	I	2	0	902	0	Ⴂ	cut_h_stereo_44KHz.wav
3	115	3	4	2	I	1	0	841	0	Ⴃ	cut_l_stereo_44KHz.wav
3	116	2	2	1	C	1	1	839	1	Ⴊ	cut_w_stereo_44KHz.wav
3	117	1	1	1	C	1	1	930	1	Ⴁ	cut_g_stereo_44KHz.wav
3	118	4	4	2	I	2	0	1036	0	Ⴂ	cut_l_stereo_44KHz.wav
3	119	3	3	2	I	2	0	823	1	Ⴃ	cut_h_stereo_44KHz.wav
3	120	2	1	0	C	2	1	1326	1	Ⴊ	cut_g_stereo_44KHz.wav
3	121	3	4	2	I	1	0	951	0	Ⴃ	cut_l_stereo_44KHz.wav
3	122	4	4	2	I	2	0	394	1	Ⴂ	cut_l_stereo_44KHz.wav
3	123	2	1	0	C	2	1	684	1	Ⴊ	cut_g_stereo_44KHz.wav
3	124	1	1	1	C	1	1	831	1	Ⴁ	cut_g_stereo_44KHz.wav
3	125	2	2	1	C	1	1	1206	1	Ⴊ	cut_w_stereo_44KHz.wav
3	126	3	3	2	I	2	0	620	1	Ⴃ	cut_h_stereo_44KHz.wav
3	127	1	2	0	C	2	1	1311	1	Ⴁ	cut_w_stereo_44KHz.wav
3	128	4	3	2	I	1	0	717	0	Ⴂ	cut_h_stereo_44KHz.wav
3	129	3	3	2	I	2	0	680	0	Ⴃ	cut_h_stereo_44KHz.wav
3	130	4	3	2	I	1	0	805	1	Ⴂ	cut_h_stereo_44KHz.wav
3	131	2	2	1	C	1	1	862	1	Ⴊ	cut_w_stereo_44KHz.wav
3	132	1	2	0	C	2	1	944	1	Ⴁ	cut_w_stereo_44KHz.wav
3	133	2	1	0	C	2	1	872	1	Ⴊ	cut_g_stereo_44KHz.wav
3	134	3	4	2	I	2	0	834	1	Ⴃ	cut_l_stereo_44KHz.wav
3	135	4	4	2	I	2	0	720	1	Ⴂ	cut_l_stereo_44KHz.wav
3	136	1	1	1	C	1	1	954	1	Ⴁ	cut_g_stereo_44KHz.wav
3	137	2	1	0	C	2	1	1028	1	Ⴊ	cut_g_stereo_44KHz.wav
3	138	3	4	2	I	2	0	989	1	Ⴃ	cut_l_stereo_44KHz.wav
3	139	1	2	0	C	2	1	1047	1	Ⴁ	cut_w_stereo_44KHz.wav
3	140	4	3	2	I	1	0	1158	1	Ⴂ	cut_h_stereo_44KHz.wav
3	141	3	3	2	I	1	0	1176	1	Ⴃ	cut_h_stereo_44KHz.wav
3	142	1	1	1	C	1	1	994	1	Ⴁ	cut_g_stereo_44KHz.wav
3	143	4	4	2	I	2	0	1246	0	Ⴂ	cut_l_stereo_44KHz.wav
3	144	2	2	1	C	1	1	1440	1	Ⴊ	cut_w_stereo_44KHz.wav
3	145	3	3	2	I	2	0	962	1	Ⴃ	cut_h_stereo_44KHz.wav
3	146	1	2	0	C	2	1	887	1	Ⴁ	cut_w_stereo_44KHz.wav
3	147	4	4	2	I	2	0	916	0	Ⴂ	cut_l_stereo_44KHz.wav
3	148	2	1	0	C	2	1	1643	1	Ⴊ	cut_g_stereo_44KHz.wav
3	149	3	4	2	I	2	0	1251	1	Ⴃ	cut_l_stereo_44KHz.wav
3	150	1	1	1	C	1	1	891	1	Ⴁ	cut_g_stereo_44KHz.wav
3	151	2	2	1	C	1	1	1128	1	Ⴊ	cut_w_stereo_44KHz.wav
3	152	4	3	2	I	2	0	664	1	Ⴂ	cut_h_stereo_44KHz.wav
3	153	3	3	2	I	2	0	442	1	Ⴃ	cut_h_stereo_44KHz.wav
3	154	2	1	0	C	1	0	744	0	Ⴊ	cut_g_stereo_44KHz.wav
3	155	4	4	2	I	2	0	212	0	Ⴂ	cut_l_stereo_44KHz.wav
3	156	1	2	0	C	2	1	840	1	Ⴁ	cut_w_stereo_44KHz.wav
3	157	2	2	1	C	1	1	721	1	Ⴊ	cut_w_stereo_44KHz.wav
3	158	1	1	1	C	1	1	1576	1	Ⴁ	cut_g_stereo_44KHz.wav
3	159	3	4	2	I	2	0	775	0	Ⴃ	cut_l_stereo_44KHz.wav
3	160	4	3	2	I	1	0	642	0	Ⴂ	cut_h_stereo_44KHz.wav
3	161	2	1	0	C	2	1	1035	1	Ⴊ	cut_g_stereo_44KHz.wav
3	162	1	2	0	C	2	1	755	1	Ⴁ	cut_w_stereo_44KHz.wav
3	163	3	4	2	I	2	0	672	0	Ⴃ	cut_l_stereo_44KHz.wav
3	164	4	3	2	I	1	0	680	0	Ⴂ	cut_h_stereo_44KHz.wav
3	165	1	1	1	C	2	0	786	0	Ⴁ	cut_g_stereo_44KHz.wav
3	166	4	4	2	I	2	0	1615	0	Ⴂ	cut_l_stereo_44KHz.wav
3	167	2	2	1	C	1	1	1009	1	Ⴊ	cut_w_stereo_44KHz.wav
3	168	3	3	2	I	2	0	599	1	Ⴃ	cut_h_stereo_44KHz.wav
3	169	1	1	1	C	1	1	1376	1	Ⴁ	cut_g_stereo_44KHz.wav
3	170	2	2	1	C	1	1	1135	1	Ⴊ	cut_w_stereo_44KHz.wav
3	171	4	3	2	I	2	0	716	1	Ⴂ	cut_h_stereo_44KHz.wav
3	172	3	4	2	I	2	0	649	0	Ⴃ	cut_l_stereo_44KHz.wav
3	173	1	2	0	C	2	1	818	1	Ⴁ	cut_w_stereo_44KHz.wav
3	174	2	1	0	C	1	0	828	0	Ⴊ	cut_g_stereo_44KHz.wav
3	175	4	4	2	I	2	0	649	1	Ⴂ	cut_l_stereo_44KHz.wav
3	176	3	3	2	I	2	0	615	1	Ⴃ	cut_h_stereo_44KHz.wav
3	177	1	2	0	C	2	1	778	1	Ⴁ	cut_w_stereo_44KHz.wav
3	178	3	4	2	I	1	0	1022	1	Ⴃ	cut_l_stereo_44KHz.wav
3	179	4	3	2	I	2	0	778	0	Ⴂ	cut_h_stereo_44KHz.wav
3	180	2	2	1	C	1	1	1387	1	Ⴊ	cut_w_stereo_44KHz.wav
3	181	4	4	2	I	2	0	768	0	Ⴂ	cut_l_stereo_44KHz.wav
3	182	3	3	2	I	2	0	231	1	Ⴃ	cut_h_stereo_44KHz.wav
3	183	1	1	1	C	1	1	780	1	Ⴁ	cut_g_stereo_44KHz.wav
3	184	2	1	0	C	2	1	1276	1	Ⴊ	cut_g_stereo_44KHz.wav
3	185	4	3	2	I	1	0	823	0	Ⴂ	cut_h_stereo_44KHz.wav
3	186	1	1	1	C	1	1	1025	1	Ⴁ	cut_g_stereo_44KHz.wav
3	187	3	3	2	I	2	0	728	1	Ⴃ	cut_h_stereo_44KHz.wav
3	188	2	1	0	C	2	1	1034	1	Ⴊ	cut_g_stereo_44KHz.wav
3	189	3	4	2	I	2	0	837	1	Ⴃ	cut_l_stereo_44KHz.wav
3	190	1	2	0	C	2	1	776	1	Ⴁ	cut_w_stereo_44KHz.wav
3	191	4	4	2	I	1	0	918	1	Ⴂ	cut_l_stereo_44KHz.wav
3	192	2	2	1	C	1	1	1177	1	Ⴊ	cut_w_stereo_44KHz.wav
3	193	3	4	2	I	2	0	549	0	Ⴃ	cut_l_stereo_44KHz.wav
3	194	1	2	0	C	2	1	685	1	Ⴁ	cut_w_stereo_44KHz.wav
3	195	4	3	2	I	1	0	903	0	Ⴂ	cut_h_stereo_44KHz.wav
3	196	2	2	1	C	2	0	688	0	Ⴊ	cut_w_stereo_44KHz.wav
3	197	3	3	2	I	2	0	708	0	Ⴃ	cut_h_stereo_44KHz.wav
3	198	1	1	1	C	1	1	948	1	Ⴁ	cut_g_stereo_44KHz.wav
3	199	2	1	0	C	2	1	934	1	Ⴊ	cut_g_stereo_44KHz.wav
3	200	4	4	2	I	2	0	781	0	Ⴂ	cut_l_stereo_44KHz.wav
4	1	2	2	1	C	2	0	1233	0	Ⴕ	cut_s_stereo_44KHz.wav
4	2	1	2	0	C	2	1	625	1	Ⴏ	cut_s_stereo_44KHz.wav
4	3	4	4	2	I	2	0	1057	0	Ⴐ	cut_ei_stereo_44KHz.wav
4	4	3	4	2	I	2	0	838	1	Ⴉ	cut_ei_stereo_44KHz.wav
4	5	2	1	0	C	1	0	1110	0	Ⴕ	cut_ui_stereo_44KHz.wav
4	6	3	3	2	I	1	0	966	1	Ⴉ	cut_n_stereo_44KHz.wav
4	7	1	1	1	C	2	0	995	0	Ⴏ	cut_ui_stereo_44KHz.wav
4	8	4	3	2	I	2	0	1045	1	Ⴐ	cut_n_stereo_44KHz.wav
4	9	2	2	1	C	1	1	1046	1	Ⴕ	cut_s_stereo_44KHz.wav
4	10	3	4	2	I	2	0	760	1	Ⴉ	cut_ei_stereo_44KHz.wav
4	11	1	1	1	C	2	0	1293	0	Ⴏ	cut_ui_stereo_44KHz.wav
4	12	4	3	2	I	2	0	746	1	Ⴐ	cut_n_stereo_44KHz.wav
4	13	3	3	2	I	1	0	1067	0	Ⴉ	cut_n_stereo_44KHz.wav
4	14	1	2	0	C	2	1	757	1	Ⴏ	cut_s_stereo_44KHz.wav
4	15	4	4	2	I	1	0	1193	1	Ⴐ	cut_ei_stereo_44KHz.wav
4	16	2	1	0	C	2	1	880	1	Ⴕ	cut_ui_stereo_44KHz.wav
4	17	4	3	2	I	1	0	954	0	Ⴐ	cut_n_stereo_44KHz.wav
4	18	1	2	0	C	2	1	747	1	Ⴏ	cut_s_stereo_44KHz.wav
4	19	3	3	2	I	1	0	1480	0	Ⴉ	cut_n_stereo_44KHz.wav
4	20	2	1	0	C	2	1	783	1	Ⴕ	cut_ui_stereo_44KHz.wav
4	21	3	4	2	I	2	0	451	0	Ⴉ	cut_ei_stereo_44KHz.wav
4	22	2	2	1	C	1	1	1144	1	Ⴕ	cut_s_stereo_44KHz.wav
4	23	1	1	1	C	2	0	1232	0	Ⴏ	cut_ui_stereo_44KHz.wav
4	24	4	4	2	I	1	0	1165	1	Ⴐ	cut_ei_stereo_44KHz.wav
4	25	3	4	2	I	2	0	655	1	Ⴉ	cut_ei_stereo_44KHz.wav
4	26	4	3	2	I	2	0	960	0	Ⴐ	cut_n_stereo_44KHz.wav
4	27	2	1	0	C	2	1	1017	1	Ⴕ	cut_ui_stereo_44KHz.wav
4	28	1	2	0	C	2	1	812	1	Ⴏ	cut_s_stereo_44KHz.wav
4	29	4	4	2	I	1	0	1470	0	Ⴐ	cut_ei_stereo_44KHz.wav
4	30	3	3	2	I	1	0	810	1	Ⴉ	cut_n_stereo_44KHz.wav
4	31	2	2	1	C	1	1	1020	1	Ⴕ	cut_s_stereo_44KHz.wav
4	32	1	1	1	C	1	1	1009	1	Ⴏ	cut_ui_stereo_44KHz.wav
4	33	3	3	2	I	1	0	1268	1	Ⴉ	cut_n_stereo_44KHz.wav
4	34	2	2	1	C	1	1	940	1	Ⴕ	cut_s_stereo_44KHz.wav
4	35	4	3	2	I	2	0	1397	0	Ⴐ	cut_n_stereo_44KHz.wav
4	36	1	1	1	C	1	1	875	1	Ⴏ	cut_ui_stereo_44KHz.wav
4	37	4	4	2	I	1	0	1160	0	Ⴐ	cut_ei_stereo_44KHz.wav
4	38	3	4	2	I	2	0	928	1	Ⴉ	cut_ei_stereo_44KHz.wav
4	39	2	1	0	C	2	1	1171	1	Ⴕ	cut_ui_stereo_44KHz.wav
4	40	1	2	0	C	2	1	1056	1	Ⴏ	cut_s_stereo_44KHz.wav
4	41	2	2	1	C	1	1	1233	1	Ⴕ	cut_s_stereo_44KHz.wav
4	42	1	1	1	C	1	1	1091	1	Ⴏ	cut_ui_stereo_44KHz.wav
4	43	3	4	2	I	1	0	943	1	Ⴉ	cut_ei_stereo_44KHz.wav
4	44	4	3	2	I	2	0	881	0	Ⴐ	cut_n_stereo_44KHz.wav
4	45	3	3	2	I	2	0	976	0	Ⴉ	cut_n_stereo_44KHz.wav
4	46	1	2	0	C	2	1	901	1	Ⴏ	cut_s_stereo_44KHz.wav
4	47	4	4	2	I	1	0	1137	1	Ⴐ	cut_ei_stereo_44KHz.wav
4	48	2	1	0	C	2	1	862	1	Ⴕ	cut_ui_stereo_44KHz.wav
4	49	1	2	0	C	2	1	787	1	Ⴏ	cut_s_stereo_44KHz.wav
4	50	2	2	1	C	1	1	1520	1	Ⴕ	cut_s_stereo_44KHz.wav
4	51	3	4	2	I	2	0	758	0	Ⴉ	cut_ei_stereo_44KHz.wav
4	52	4	3	2	I	2	0	686	1	Ⴐ	cut_n_stereo_44KHz.wav
4	53	1	1	1	C	1	1	968	1	Ⴏ	cut_ui_stereo_44KHz.wav
4	54	2	1	0	C	2	1	1010	1	Ⴕ	cut_ui_stereo_44KHz.wav
4	55	3	3	2	I	2	0	1508	0	Ⴉ	cut_n_stereo_44KHz.wav
4	56	4	4	2	I	2	0	897	1	Ⴐ	cut_ei_stereo_44KHz.wav
4	57	1	2	0	C	2	1	895	1	Ⴏ	cut_s_stereo_44KHz.wav
4	58	4	4	2	I	2	0	845	1	Ⴐ	cut_ei_stereo_44KHz.wav
4	59	2	2	1	C	1	1	1072	1	Ⴕ	cut_s_stereo_44KHz.wav
4	60	3	3	2	I	2	0	744	1	Ⴉ	cut_n_stereo_44KHz.wav
4	61	1	1	1	C	1	1	1105	1	Ⴏ	cut_ui_stereo_44KHz.wav
4	62	3	4	2	I	2	0	1172	1	Ⴉ	cut_ei_stereo_44KHz.wav
4	63	4	3	2	I	1	0	1334	1	Ⴐ	cut_n_stereo_44KHz.wav
4	64	2	1	0	C	2	1	1130	1	Ⴕ	cut_ui_stereo_44KHz.wav
4	65	3	4	2	I	2	0	552	0	Ⴉ	cut_ei_stereo_44KHz.wav
4	66	1	1	1	C	1	1	1459	1	Ⴏ	cut_ui_stereo_44KHz.wav
4	67	2	2	1	C	1	1	824	1	Ⴕ	cut_s_stereo_44KHz.wav
4	68	4	3	2	I	2	0	930	0	Ⴐ	cut_n_stereo_44KHz.wav
4	69	3	3	2	I	1	0	645	0	Ⴉ	cut_n_stereo_44KHz.wav
4	70	4	4	2	I	2	0	527	0	Ⴐ	cut_ei_stereo_44KHz.wav
4	71	1	2	0	C	2	1	1022	1	Ⴏ	cut_s_stereo_44KHz.wav
4	72	2	1	0	C	2	1	812	1	Ⴕ	cut_ui_stereo_44KHz.wav
4	73	4	4	2	I	1	0	837	1	Ⴐ	cut_ei_stereo_44KHz.wav
4	74	3	4	2	I	1	0	802	0	Ⴉ	cut_ei_stereo_44KHz.wav
4	75	2	1	0	C	2	1	712	1	Ⴕ	cut_ui_stereo_44KHz.wav
4	76	1	1	1	C	1	1	661	1	Ⴏ	cut_ui_stereo_44KHz.wav
4	77	3	3	2	I	2	0	730	0	Ⴉ	cut_n_stereo_44KHz.wav
4	78	1	2	0	C	2	1	769	1	Ⴏ	cut_s_stereo_44KHz.wav
4	79	2	2	1	C	1	1	948	1	Ⴕ	cut_s_stereo_44KHz.wav
4	80	4	3	2	I	1	0	887	0	Ⴐ	cut_n_stereo_44KHz.wav
4	81	3	3	2	I	2	0	669	1	Ⴉ	cut_n_stereo_44KHz.wav
4	82	1	1	1	C	1	1	861	1	Ⴏ	cut_ui_stereo_44KHz.wav
4	83	2	1	0	C	2	1	1180	1	Ⴕ	cut_ui_stereo_44KHz.wav
4	84	4	4	2	I	2	0	819	1	Ⴐ	cut_ei_stereo_44KHz.wav
4	85	3	4	2	I	1	0	989	1	Ⴉ	cut_ei_stereo_44KHz.wav
4	86	1	2	0	C	2	1	826	1	Ⴏ	cut_s_stereo_44KHz.wav
4	87	2	2	1	C	1	1	986	1	Ⴕ	cut_s_stereo_44KHz.wav
4	88	4	3	2	I	2	0	976	0	Ⴐ	cut_n_stereo_44KHz.wav
4	89	1	1	1	C	1	1	1404	1	Ⴏ	cut_ui_stereo_44KHz.wav
4	90	3	3	2	I	2	0	894	1	Ⴉ	cut_n_stereo_44KHz.wav
4	91	4	4	2	I	2	0	1439	0	Ⴐ	cut_ei_stereo_44KHz.wav
4	92	2	1	0	C	2	1	1037	1	Ⴕ	cut_ui_stereo_44KHz.wav
4	93	1	2	0	C	2	1	791	1	Ⴏ	cut_s_stereo_44KHz.wav
4	94	2	2	1	C	1	1	847	1	Ⴕ	cut_s_stereo_44KHz.wav
4	95	4	3	2	I	2	0	556	0	Ⴐ	cut_n_stereo_44KHz.wav
4	96	3	4	2	I	2	0	774	1	Ⴉ	cut_ei_stereo_44KHz.wav
4	97	4	3	2	I	2	0	709	0	Ⴐ	cut_n_stereo_44KHz.wav
4	98	3	4	2	I	2	0	384	1	Ⴉ	cut_ei_stereo_44KHz.wav
4	99	2	1	0	C	2	1	853	1	Ⴕ	cut_ui_stereo_44KHz.wav
4	100	1	2	0	C	2	1	643	1	Ⴏ	cut_s_stereo_44KHz.wav
4	101	2	2	1	C	1	1	1157	1	Ⴕ	cut_s_stereo_44KHz.wav
4	102	4	4	2	I	2	0	604	1	Ⴐ	cut_ei_stereo_44KHz.wav
4	103	3	3	2	I	1	0	1127	0	Ⴉ	cut_n_stereo_44KHz.wav
4	104	1	1	1	C	1	1	775	1	Ⴏ	cut_ui_stereo_44KHz.wav
4	105	4	4	2	I	2	0	1868	1	Ⴐ	cut_ei_stereo_44KHz.wav
4	106	3	4	2	I	1	0	660	0	Ⴉ	cut_ei_stereo_44KHz.wav
4	107	2	2	1	C	1	1	839	1	Ⴕ	cut_s_stereo_44KHz.wav
4	108	1	2	0	C	2	1	640	1	Ⴏ	cut_s_stereo_44KHz.wav
4	109	2	1	0	C	2	1	1250	1	Ⴕ	cut_ui_stereo_44KHz.wav
4	110	4	3	2	I	2	0	816	1	Ⴐ	cut_n_stereo_44KHz.wav
4	111	3	3	2	I	1	0	1285	1	Ⴉ	cut_n_stereo_44KHz.wav
4	112	1	1	1	C	2	0	889	0	Ⴏ	cut_ui_stereo_44KHz.wav
4	113	2	1	0	C	2	1	752	1	Ⴕ	cut_ui_stereo_44KHz.wav
4	114	4	4	2	I	1	0	1396	0	Ⴐ	cut_ei_stereo_44KHz.wav
4	115	1	2	0	C	2	1	939	1	Ⴏ	cut_s_stereo_44KHz.wav
4	116	3	3	2	I	2	0	998	0	Ⴉ	cut_n_stereo_44KHz.wav
4	117	1	1	1	C	1	1	1080	1	Ⴏ	cut_ui_stereo_44KHz.wav
4	118	2	2	1	C	1	1	1395	1	Ⴕ	cut_s_stereo_44KHz.wav
4	119	3	4	2	I	2	0	655	0	Ⴉ	cut_ei_stereo_44KHz.wav
4	120	4	3	2	I	2	0	568	1	Ⴐ	cut_n_stereo_44KHz.wav
4	121	3	4	2	I	2	0	638	1	Ⴉ	cut_ei_stereo_44KHz.wav
4	122	2	2	1	C	1	1	1375	1	Ⴕ	cut_s_stereo_44KHz.wav
4	123	1	2	0	C	2	1	692	1	Ⴏ	cut_s_stereo_44KHz.wav
4	124	4	4	2	I	2	0	810	1	Ⴐ	cut_ei_stereo_44KHz.wav
4	125	1	1	1	C	1	1	1128	1	Ⴏ	cut_ui_stereo_44KHz.wav
4	126	4	3	2	I	2	0	722	0	Ⴐ	cut_n_stereo_44KHz.wav
4	127	3	3	2	I	2	0	550	0	Ⴉ	cut_n_stereo_44KHz.wav
4	128	2	1	0	C	2	1	915	1	Ⴕ	cut_ui_stereo_44KHz.wav
4	129	1	2	0	C	2	1	589	1	Ⴏ	cut_s_stereo_44KHz.wav
4	130	2	1	0	C	2	1	891	1	Ⴕ	cut_ui_stereo_44KHz.wav
4	131	4	3	2	I	2	0	857	1	Ⴐ	cut_n_stereo_44KHz.wav
4	132	3	3	2	I	2	0	674	1	Ⴉ	cut_n_stereo_44KHz.wav
4	133	2	2	1	C	1	1	1018	1	Ⴕ	cut_s_stereo_44KHz.wav
4	134	3	4	2	I	2	0	784	0	Ⴉ	cut_ei_stereo_44KHz.wav
4	135	4	4	2	I	1	0	544	0	Ⴐ	cut_ei_stereo_44KHz.wav
4	136	1	1	1	C	1	1	913	1	Ⴏ	cut_ui_stereo_44KHz.wav
4	137	2	1	0	C	2	1	911	1	Ⴕ	cut_ui_stereo_44KHz.wav
4	138	4	3	2	I	2	0	454	0	Ⴐ	cut_n_stereo_44KHz.wav
4	139	1	1	1	C	2	0	401	0	Ⴏ	cut_ui_stereo_44KHz.wav
4	140	3	3	2	I	2	0	661	0	Ⴉ	cut_n_stereo_44KHz.wav
4	141	4	4	2	I	2	0	670	0	Ⴐ	cut_ei_stereo_44KHz.wav
4	142	3	4	2	I	2	0	743	1	Ⴉ	cut_ei_stereo_44KHz.wav
4	143	2	2	1	C	1	1	1040	1	Ⴕ	cut_s_stereo_44KHz.wav
4	144	1	2	0	C	2	1	928	1	Ⴏ	cut_s_stereo_44KHz.wav
4	145	2	1	0	C	2	1	1172	1	Ⴕ	cut_ui_stereo_44KHz.wav
4	146	4	4	2	I	2	0	667	1	Ⴐ	cut_ei_stereo_44KHz.wav
4	147	3	4	2	I	2	0	771	0	Ⴉ	cut_ei_stereo_44KHz.wav
4	148	1	2	0	C	2	1	933	1	Ⴏ	cut_s_stereo_44KHz.wav
4	149	3	3	2	I	2	0	1174	1	Ⴉ	cut_n_stereo_44KHz.wav
4	150	1	1	1	C	1	1	1684	1	Ⴏ	cut_ui_stereo_44KHz.wav
4	151	2	2	1	C	1	1	995	1	Ⴕ	cut_s_stereo_44KHz.wav
4	152	4	3	2	I	2	0	687	1	Ⴐ	cut_n_stereo_44KHz.wav
4	153	1	2	0	C	2	1	791	1	Ⴏ	cut_s_stereo_44KHz.wav
4	154	3	3	2	I	2	0	713	0	Ⴉ	cut_n_stereo_44KHz.wav
4	155	2	2	1	C	1	1	701	1	Ⴕ	cut_s_stereo_44KHz.wav
4	156	4	3	2	I	2	0	622	0	Ⴐ	cut_n_stereo_44KHz.wav
4	157	3	4	2	I	2	0	627	1	Ⴉ	cut_ei_stereo_44KHz.wav
4	158	2	1	0	C	1	0	1247	0	Ⴕ	cut_ui_stereo_44KHz.wav
4	159	1	1	1	C	1	1	823	1	Ⴏ	cut_ui_stereo_44KHz.wav
4	160	4	4	2	I	2	0	758	0	Ⴐ	cut_ei_stereo_44KHz.wav
4	161	2	1	0	C	2	1	314	1	Ⴕ	cut_ui_stereo_44KHz.wav
4	162	3	3	2	I	2	0	688	1	Ⴉ	cut_n_stereo_44KHz.wav
4	163	4	3	2	I	2	0	761	1	Ⴐ	cut_n_stereo_44KHz.wav
4	164	1	2	0	C	2	1	1018	1	Ⴏ	cut_s_stereo_44KHz.wav
4	165	2	2	1	C	1	1	1628	1	Ⴕ	cut_s_stereo_44KHz.wav
4	166	3	4	2	I	2	0	721	0	Ⴉ	cut_ei_stereo_44KHz.wav
4	167	1	1	1	C	1	1	859	1	Ⴏ	cut_ui_stereo_44KHz.wav
4	168	4	4	2	I	2	0	657	0	Ⴐ	cut_ei_stereo_44KHz.wav
4	169	1	2	0	C	2	1	891	1	Ⴏ	cut_s_stereo_44KHz.wav
4	170	4	4	2	I	2	0	611	0	Ⴐ	cut_ei_stereo_44KHz.wav
4	171	2	1	0	C	2	1	1064	1	Ⴕ	cut_ui_stereo_44KHz.wav
4	172	3	4	2	I	1	0	1504	0	Ⴉ	cut_ei_stereo_44KHz.wav
4	173	4	3	2	I	2	0	914	1	Ⴐ	cut_n_stereo_44KHz.wav
4	174	1	1	1	C	1	1	1272	1	Ⴏ	cut_ui_stereo_44KHz.wav
4	175	3	3	2	I	2	0	635	0	Ⴉ	cut_n_stereo_44KHz.wav
4	176	2	2	1	C	1	1	948	1	Ⴕ	cut_s_stereo_44KHz.wav
4	177	4	4	2	I	2	0	646	1	Ⴐ	cut_ei_stereo_44KHz.wav
4	178	2	2	1	C	1	1	1227	1	Ⴕ	cut_s_stereo_44KHz.wav
4	179	3	4	2	I	2	0	768	0	Ⴉ	cut_ei_stereo_44KHz.wav
4	180	1	2	0	C	2	1	871	1	Ⴏ	cut_s_stereo_44KHz.wav
4	181	3	3	2	I	2	0	614	1	Ⴉ	cut_n_stereo_44KHz.wav
4	182	1	1	1	C	0	0	0	0	Ⴏ	cut_ui_stereo_44KHz.wav
4	183	4	3	2	I	2	0	605	1	Ⴐ	cut_n_stereo_44KHz.wav
4	184	2	1	0	C	2	1	843	1	Ⴕ	cut_ui_stereo_44KHz.wav
4	185	1	1	1	C	1	1	802	1	Ⴏ	cut_ui_stereo_44KHz.wav
4	186	2	1	0	C	2	1	862	1	Ⴕ	cut_ui_stereo_44KHz.wav
4	187	3	4	2	I	2	0	710	0	Ⴉ	cut_ei_stereo_44KHz.wav
4	188	4	4	2	I	2	0	574	0	Ⴐ	cut_ei_stereo_44KHz.wav
4	189	1	2	0	C	2	1	1206	1	Ⴏ	cut_s_stereo_44KHz.wav
4	190	4	3	2	I	2	0	526	1	Ⴐ	cut_n_stereo_44KHz.wav
4	191	2	2	1	C	1	1	1190	1	Ⴕ	cut_s_stereo_44KHz.wav
4	192	3	3	2	I	2	0	836	1	Ⴉ	cut_n_stereo_44KHz.wav
4	193	1	2	0	C	2	1	1156	1	Ⴏ	cut_s_stereo_44KHz.wav
4	194	4	4	2	I	1	0	900	0	Ⴐ	cut_ei_stereo_44KHz.wav
4	195	3	3	2	I	2	0	611	0	Ⴉ	cut_n_stereo_44KHz.wav
4	196	2	2	1	C	1	1	965	1	Ⴕ	cut_s_stereo_44KHz.wav
4	197	4	3	2	I	2	0	929	1	Ⴐ	cut_n_stereo_44KHz.wav
4	198	3	4	2	I	2	0	545	1	Ⴉ	cut_ei_stereo_44KHz.wav
4	199	2	1	0	C	2	1	760	1	Ⴕ	cut_ui_stereo_44KHz.wav
4	200	1	1	1	C	1	1	1013	1	Ⴏ	cut_ui_stereo_44KHz.wav
