block	trial	Vstim	Astim	match	C/I	resp	.result	RT	fb	V-file	A-file
LR

0	1	1	2	0	C	2	0	1837	0	Ⴉ	cut_g.wav
0	2	1	1	1	C	0	0	0	0	Ⴉ	cut_oo.wav
0	3	2	4	0	C	2	0	651	0	Ⴢ	cut_eeuw.wav
0	4	2	3	1	C	2	1	1937	1	Ⴢ	cut_ee.wav
0	5	1	2	0	C	0	0	0	0	Ⴉ	cut_g.wav
0	6	1	1	1	C	2	1	1018	1	Ⴉ	cut_oo.wav
0	7	2	4	0	C	2	0	712	0	Ⴢ	cut_eeuw.wav
0	8	2	3	1	C	0	0	0	0	Ⴢ	cut_ee.wav
0	9	2	4	0	C	2	0	792	0	Ⴢ	cut_eeuw.wav
0	10	1	1	1	C	1	0	539	0	Ⴉ	cut_oo.wav
0	11	2	3	1	C	2	1	708	1	Ⴢ	cut_ee.wav
0	12	1	2	0	C	1	1	705	1	Ⴉ	cut_g.wav
0	13	2	4	0	C	2	0	553	0	Ⴢ	cut_eeuw.wav
0	14	1	1	1	C	1	0	581	0	Ⴉ	cut_oo.wav
0	15	1	2	0	C	2	0	901	0	Ⴉ	cut_g.wav
0	16	2	3	1	C	1	0	590	0	Ⴢ	cut_ee.wav
0	17	2	4	0	C	2	0	721	0	Ⴢ	cut_eeuw.wav
0	18	1	2	0	C	1	1	564	1	Ⴉ	cut_g.wav
0	19	2	3	1	C	2	1	795	1	Ⴢ	cut_ee.wav
0	20	1	1	1	C	1	0	547	0	Ⴉ	cut_oo.wav
0	21	1	1	1	C	2	1	838	1	Ⴉ	cut_oo.wav
0	22	2	4	0	C	2	0	748	0	Ⴢ	cut_eeuw.wav
0	23	1	2	0	C	1	1	709	1	Ⴉ	cut_g.wav
0	24	2	3	1	C	2	1	958	1	Ⴢ	cut_ee.wav
0	25	2	3	1	C	1	0	888	0	Ⴢ	cut_ee.wav
0	26	1	1	1	C	2	1	982	1	Ⴉ	cut_oo.wav
0	27	2	4	0	C	1	1	970	1	Ⴢ	cut_eeuw.wav
0	28	1	2	0	C	1	1	1019	1	Ⴉ	cut_g.wav
0	29	2	4	0	C	2	0	792	0	Ⴢ	cut_eeuw.wav
0	30	2	3	1	C	1	0	1068	0	Ⴢ	cut_ee.wav
avg_resp = 934
1	1	2	1	0	C	2	0	1372	0	Ⴁ	cut_o.wav
1	2	3	3	2	I	1	0	718	1	Ⴜ	cut_u.wav
1	3	1	1	1	C	1	0	840	0	Ⴟ	cut_o.wav
1	4	4	4	2	I	2	0	1024	0	Ⴇ	cut_a.wav
1	5	3	4	2	I	2	0	1102	1	Ⴜ	cut_a.wav
1	6	4	3	2	I	2	0	1210	1	Ⴇ	cut_u.wav
1	7	1	2	0	C	1	1	977	1	Ⴟ	cut_k.wav
1	8	2	2	1	C	2	1	663	1	Ⴁ	cut_k.wav
1	9	1	2	0	C	2	0	676	0	Ⴟ	cut_k.wav
1	10	2	1	0	C	2	0	1224	0	Ⴁ	cut_o.wav
1	11	4	3	2	I	1	0	663	1	Ⴇ	cut_u.wav
1	12	3	3	2	I	2	0	881	0	Ⴜ	cut_u.wav
1	13	2	2	1	C	1	0	845	0	Ⴁ	cut_k.wav
1	14	3	4	2	I	1	0	924	0	Ⴜ	cut_a.wav
1	15	1	1	1	C	2	1	1018	1	Ⴟ	cut_o.wav
1	16	4	4	2	I	1	0	884	0	Ⴇ	cut_a.wav
1	17	3	4	2	I	1	0	861	0	Ⴜ	cut_a.wav
1	18	1	2	0	C	2	0	1181	0	Ⴟ	cut_k.wav
1	19	4	4	2	I	1	0	1185	0	Ⴇ	cut_a.wav
1	20	2	1	0	C	1	1	977	1	Ⴁ	cut_o.wav
1	21	4	3	2	I	2	0	928	1	Ⴇ	cut_u.wav
1	22	3	3	2	I	1	0	991	1	Ⴜ	cut_u.wav
1	23	2	2	1	C	2	1	1260	1	Ⴁ	cut_k.wav
1	24	1	1	1	C	2	1	1028	1	Ⴟ	cut_o.wav
1	25	3	4	2	I	1	0	763	1	Ⴜ	cut_a.wav
1	26	2	1	0	C	2	0	1028	0	Ⴁ	cut_o.wav
1	27	1	2	0	C	1	1	1030	1	Ⴟ	cut_k.wav
1	28	4	3	2	I	2	0	1221	1	Ⴇ	cut_u.wav
1	29	1	1	1	C	2	1	989	1	Ⴟ	cut_o.wav
1	30	4	4	2	I	2	0	991	0	Ⴇ	cut_a.wav
1	31	2	2	1	C	2	1	980	1	Ⴁ	cut_k.wav
1	32	3	3	2	I	1	0	1099	0	Ⴜ	cut_u.wav
1	33	4	3	2	I	2	0	1288	0	Ⴇ	cut_u.wav
1	34	1	1	1	C	1	0	861	0	Ⴟ	cut_o.wav
1	35	3	3	2	I	2	0	936	0	Ⴜ	cut_u.wav
1	36	2	1	0	C	1	1	990	1	Ⴁ	cut_o.wav
1	37	4	4	2	I	2	0	1179	0	Ⴇ	cut_a.wav
1	38	3	4	2	I	2	0	829	0	Ⴜ	cut_a.wav
1	39	1	2	0	C	1	1	946	1	Ⴟ	cut_k.wav
1	40	2	2	1	C	2	1	902	1	Ⴁ	cut_k.wav
1	41	1	1	1	C	2	1	822	1	Ⴟ	cut_o.wav
1	42	2	1	0	C	1	1	765	1	Ⴁ	cut_o.wav
1	43	3	4	2	I	1	0	725	0	Ⴜ	cut_a.wav
1	44	4	4	2	I	1	0	929	1	Ⴇ	cut_a.wav
1	45	2	2	1	C	2	1	872	1	Ⴁ	cut_k.wav
1	46	4	3	2	I	2	0	878	0	Ⴇ	cut_u.wav
1	47	3	3	2	I	2	0	1295	1	Ⴜ	cut_u.wav
1	48	1	2	0	C	1	1	886	1	Ⴟ	cut_k.wav
1	49	3	4	2	I	1	0	1231	1	Ⴜ	cut_a.wav
1	50	1	2	0	C	1	1	902	1	Ⴟ	cut_k.wav
1	51	2	2	1	C	2	1	877	1	Ⴁ	cut_k.wav
1	52	4	4	2	I	1	0	1028	1	Ⴇ	cut_a.wav
1	53	1	1	1	C	2	1	838	1	Ⴟ	cut_o.wav
1	54	3	3	2	I	2	0	932	1	Ⴜ	cut_u.wav
1	55	2	1	0	C	1	1	792	1	Ⴁ	cut_o.wav
1	56	4	3	2	I	2	0	586	1	Ⴇ	cut_u.wav
1	57	2	2	1	C	1	0	930	0	Ⴁ	cut_k.wav
1	58	3	4	2	I	1	0	933	0	Ⴜ	cut_a.wav
1	59	4	3	2	I	2	0	1307	0	Ⴇ	cut_u.wav
1	60	1	2	0	C	1	1	823	1	Ⴟ	cut_k.wav
1	61	3	3	2	I	1	0	1328	0	Ⴜ	cut_u.wav
1	62	4	4	2	I	1	0	722	0	Ⴇ	cut_a.wav
1	63	1	1	1	C	2	1	1120	1	Ⴟ	cut_o.wav
1	64	2	1	0	C	1	1	727	1	Ⴁ	cut_o.wav
1	65	1	2	0	C	1	1	703	1	Ⴟ	cut_k.wav
1	66	3	3	2	I	2	0	1078	1	Ⴜ	cut_u.wav
1	67	4	4	2	I	1	0	694	1	Ⴇ	cut_a.wav
1	68	2	2	1	C	2	1	983	1	Ⴁ	cut_k.wav
1	69	3	4	2	I	1	0	701	1	Ⴜ	cut_a.wav
1	70	4	3	2	I	2	0	1070	0	Ⴇ	cut_u.wav
1	71	1	1	1	C	2	1	872	1	Ⴟ	cut_o.wav
1	72	2	1	0	C	1	1	805	1	Ⴁ	cut_o.wav
1	73	3	4	2	I	1	0	694	1	Ⴜ	cut_a.wav
1	74	4	3	2	I	2	0	1050	0	Ⴇ	cut_u.wav
1	75	2	1	0	C	1	1	649	1	Ⴁ	cut_o.wav
1	76	1	2	0	C	1	1	770	1	Ⴟ	cut_k.wav
1	77	2	2	1	C	2	1	764	1	Ⴁ	cut_k.wav
1	78	1	1	1	C	2	1	708	1	Ⴟ	cut_o.wav
1	79	4	4	2	I	2	0	932	1	Ⴇ	cut_a.wav
1	80	3	3	2	I	2	0	740	0	Ⴜ	cut_u.wav
1	81	4	4	2	I	1	0	634	1	Ⴇ	cut_a.wav
1	82	1	1	1	C	2	1	713	1	Ⴟ	cut_o.wav
1	83	2	2	1	C	2	1	1068	1	Ⴁ	cut_k.wav
1	84	3	3	2	I	1	0	769	0	Ⴜ	cut_u.wav
1	85	1	2	0	C	2	0	675	0	Ⴟ	cut_k.wav
1	86	2	1	0	C	1	1	1181	1	Ⴁ	cut_o.wav
1	87	3	4	2	I	1	0	1007	0	Ⴜ	cut_a.wav
1	88	4	3	2	I	1	0	1462	1	Ⴇ	cut_u.wav
1	89	3	3	2	I	2	0	906	1	Ⴜ	cut_u.wav
1	90	1	2	0	C	1	1	824	1	Ⴟ	cut_k.wav
1	91	2	1	0	C	2	0	764	0	Ⴁ	cut_o.wav
1	92	4	3	2	I	1	0	1186	1	Ⴇ	cut_u.wav
1	93	1	1	1	C	2	1	930	1	Ⴟ	cut_o.wav
1	94	3	4	2	I	1	0	729	0	Ⴜ	cut_a.wav
1	95	2	2	1	C	2	1	893	1	Ⴁ	cut_k.wav
1	96	4	4	2	I	1	0	1253	0	Ⴇ	cut_a.wav
1	97	1	2	0	C	1	1	648	1	Ⴟ	cut_k.wav
1	98	3	3	2	I	2	0	1038	0	Ⴜ	cut_u.wav
1	99	2	1	0	C	2	0	689	0	Ⴁ	cut_o.wav
1	100	4	4	2	I	1	0	1103	1	Ⴇ	cut_a.wav
1	101	2	2	1	C	2	1	1071	1	Ⴁ	cut_k.wav
1	102	3	4	2	I	1	0	830	1	Ⴜ	cut_a.wav
1	103	4	3	2	I	1	0	1087	1	Ⴇ	cut_u.wav
1	104	1	1	1	C	2	1	716	1	Ⴟ	cut_o.wav
1	105	3	4	2	I	1	0	787	0	Ⴜ	cut_a.wav
1	106	4	4	2	I	1	0	552	0	Ⴇ	cut_a.wav
1	107	2	1	0	C	2	0	769	0	Ⴁ	cut_o.wav
1	108	1	1	1	C	2	1	721	1	Ⴟ	cut_o.wav
1	109	3	3	2	I	1	0	917	1	Ⴜ	cut_u.wav
1	110	1	2	0	C	1	1	668	1	Ⴟ	cut_k.wav
1	111	2	2	1	C	2	1	680	1	Ⴁ	cut_k.wav
1	112	4	3	2	I	2	0	1228	1	Ⴇ	cut_u.wav
1	113	1	1	1	C	2	1	640	1	Ⴟ	cut_o.wav
1	114	2	1	0	C	1	1	648	1	Ⴁ	cut_o.wav
1	115	3	3	2	I	1	0	880	1	Ⴜ	cut_u.wav
1	116	4	3	2	I	2	0	639	0	Ⴇ	cut_u.wav
1	117	3	4	2	I	2	0	916	1	Ⴜ	cut_a.wav
1	118	4	4	2	I	1	0	892	1	Ⴇ	cut_a.wav
1	119	1	2	0	C	1	1	589	1	Ⴟ	cut_k.wav
1	120	2	2	1	C	2	1	647	1	Ⴁ	cut_k.wav
1	121	1	2	0	C	1	1	709	1	Ⴟ	cut_k.wav
1	122	3	4	2	I	1	0	701	1	Ⴜ	cut_a.wav
1	123	4	4	2	I	1	0	822	0	Ⴇ	cut_a.wav
1	124	2	1	0	C	2	0	905	0	Ⴁ	cut_o.wav
1	125	4	3	2	I	2	0	1564	0	Ⴇ	cut_u.wav
1	126	3	3	2	I	1	0	1081	0	Ⴜ	cut_u.wav
1	127	1	1	1	C	2	1	1012	1	Ⴟ	cut_o.wav
1	128	2	2	1	C	1	0	1054	0	Ⴁ	cut_k.wav
1	129	1	1	1	C	2	1	684	1	Ⴟ	cut_o.wav
1	130	2	2	1	C	2	1	716	1	Ⴁ	cut_k.wav
1	131	4	4	2	I	1	0	915	0	Ⴇ	cut_a.wav
1	132	3	4	2	I	1	0	599	1	Ⴜ	cut_a.wav
1	133	1	2	0	C	1	1	914	1	Ⴟ	cut_k.wav
1	134	2	1	0	C	1	1	914	1	Ⴁ	cut_o.wav
1	135	3	3	2	I	2	0	1247	0	Ⴜ	cut_u.wav
1	136	4	3	2	I	2	0	763	1	Ⴇ	cut_u.wav
1	137	2	1	0	C	1	1	1010	1	Ⴁ	cut_o.wav
1	138	4	3	2	I	2	0	908	0	Ⴇ	cut_u.wav
1	139	3	3	2	I	1	0	661	0	Ⴜ	cut_u.wav
1	140	1	2	0	C	1	1	642	1	Ⴟ	cut_k.wav
1	141	4	4	2	I	1	0	1003	1	Ⴇ	cut_a.wav
1	142	1	1	1	C	2	1	807	1	Ⴟ	cut_o.wav
1	143	3	4	2	I	1	0	952	0	Ⴜ	cut_a.wav
1	144	2	2	1	C	2	1	844	1	Ⴁ	cut_k.wav
1	145	1	1	1	C	2	1	666	1	Ⴟ	cut_o.wav
1	146	4	3	2	I	2	0	954	0	Ⴇ	cut_u.wav
1	147	2	1	0	C	2	0	1471	0	Ⴁ	cut_o.wav
1	148	3	4	2	I	1	0	703	1	Ⴜ	cut_a.wav
1	149	1	2	0	C	1	1	935	1	Ⴟ	cut_k.wav
1	150	3	3	2	I	2	0	1498	0	Ⴜ	cut_u.wav
1	151	4	4	2	I	1	0	908	1	Ⴇ	cut_a.wav
1	152	2	2	1	C	2	1	862	1	Ⴁ	cut_k.wav
1	153	4	3	2	I	2	0	853	0	Ⴇ	cut_u.wav
1	154	3	4	2	I	1	0	615	1	Ⴜ	cut_a.wav
1	155	2	2	1	C	2	1	914	1	Ⴁ	cut_k.wav
1	156	1	2	0	C	1	1	669	1	Ⴟ	cut_k.wav
1	157	3	3	2	I	2	0	871	1	Ⴜ	cut_u.wav
1	158	4	4	2	I	1	0	575	1	Ⴇ	cut_a.wav
1	159	2	1	0	C	1	1	882	1	Ⴁ	cut_o.wav
1	160	1	1	1	C	2	1	599	1	Ⴟ	cut_o.wav
1	161	4	4	2	I	1	0	796	1	Ⴇ	cut_a.wav
1	162	3	4	2	I	2	0	737	1	Ⴜ	cut_a.wav
1	163	1	2	0	C	1	1	616	1	Ⴟ	cut_k.wav
1	164	2	2	1	C	2	1	688	1	Ⴁ	cut_k.wav
1	165	4	3	2	I	2	0	582	0	Ⴇ	cut_u.wav
1	166	1	1	1	C	2	1	689	1	Ⴟ	cut_o.wav
1	167	3	3	2	I	2	0	1030	0	Ⴜ	cut_u.wav
1	168	2	1	0	C	1	1	789	1	Ⴁ	cut_o.wav
1	169	1	2	0	C	1	1	720	1	Ⴟ	cut_k.wav
1	170	4	4	2	I	1	0	735	0	Ⴇ	cut_a.wav
1	171	2	2	1	C	2	1	747	1	Ⴁ	cut_k.wav
1	172	3	3	2	I	1	0	1036	1	Ⴜ	cut_u.wav
1	173	1	1	1	C	2	1	669	1	Ⴟ	cut_o.wav
1	174	2	1	0	C	1	1	879	1	Ⴁ	cut_o.wav
1	175	4	3	2	I	2	0	901	0	Ⴇ	cut_u.wav
1	176	3	4	2	I	2	0	732	0	Ⴜ	cut_a.wav
1	177	1	2	0	C	1	1	648	1	Ⴟ	cut_k.wav
1	178	2	2	1	C	2	1	764	1	Ⴁ	cut_k.wav
1	179	3	4	2	I	2	0	1138	0	Ⴜ	cut_a.wav
1	180	4	4	2	I	1	0	759	1	Ⴇ	cut_a.wav
1	181	1	1	1	C	2	1	737	1	Ⴟ	cut_o.wav
1	182	4	3	2	I	2	0	1013	1	Ⴇ	cut_u.wav
1	183	2	1	0	C	1	1	659	1	Ⴁ	cut_o.wav
1	184	3	3	2	I	2	0	789	0	Ⴜ	cut_u.wav
1	185	2	1	0	C	2	0	728	0	Ⴁ	cut_o.wav
1	186	4	4	2	I	1	0	805	0	Ⴇ	cut_a.wav
1	187	1	2	0	C	1	1	642	1	Ⴟ	cut_k.wav
1	188	3	4	2	I	2	0	1059	0	Ⴜ	cut_a.wav
1	189	1	1	1	C	2	1	1324	1	Ⴟ	cut_o.wav
1	190	4	3	2	I	2	0	969	1	Ⴇ	cut_u.wav
1	191	3	3	2	I	1	0	923	1	Ⴜ	cut_u.wav
1	192	2	2	1	C	2	1	828	1	Ⴁ	cut_k.wav
1	193	1	2	0	C	1	1	734	1	Ⴟ	cut_k.wav
1	194	2	2	1	C	2	1	609	1	Ⴁ	cut_k.wav
1	195	4	3	2	I	1	0	1133	1	Ⴇ	cut_u.wav
1	196	3	4	2	I	2	0	820	1	Ⴜ	cut_a.wav
1	197	1	1	1	C	2	1	781	1	Ⴟ	cut_o.wav
1	198	4	4	2	I	2	0	668	0	Ⴇ	cut_a.wav
1	199	2	1	0	C	1	1	714	1	Ⴁ	cut_o.wav
1	200	3	3	2	I	1	0	922	1	Ⴜ	cut_u.wav
2	1	4	3	2	I	1	0	1899	0	Ⴒ	cut_l.wav
2	2	2	1	0	C	1	1	1106	1	Ⴔ	cut_h.wav
2	3	3	4	2	I	1	0	1039	0	Ⴉ	cut_g.wav
2	4	1	1	1	C	1	0	960	0	Ⴖ	cut_h.wav
2	5	3	3	2	I	2	0	1062	0	Ⴉ	cut_l.wav
2	6	4	4	2	I	1	0	855	1	Ⴒ	cut_g.wav
2	7	2	2	1	C	1	0	1075	0	Ⴔ	cut_w.wav
2	8	1	2	0	C	1	1	757	1	Ⴖ	cut_w.wav
2	9	3	4	2	I	2	0	1233	1	Ⴉ	cut_g.wav
2	10	1	2	0	C	2	0	1001	0	Ⴖ	cut_w.wav
2	11	2	2	1	C	2	1	1021	1	Ⴔ	cut_w.wav
2	12	4	4	2	I	2	0	792	1	Ⴒ	cut_g.wav
2	13	1	1	1	C	2	1	928	1	Ⴖ	cut_h.wav
2	14	4	3	2	I	1	0	865	1	Ⴒ	cut_l.wav
2	15	3	3	2	I	2	0	980	0	Ⴉ	cut_l.wav
2	16	2	1	0	C	1	1	907	1	Ⴔ	cut_h.wav
2	17	3	4	2	I	1	0	1250	1	Ⴉ	cut_g.wav
2	18	2	2	1	C	2	1	848	1	Ⴔ	cut_w.wav
2	19	4	3	2	I	1	0	920	0	Ⴒ	cut_l.wav
2	20	1	2	0	C	1	1	1033	1	Ⴖ	cut_w.wav
2	21	4	4	2	I	2	0	794	1	Ⴒ	cut_g.wav
2	22	2	1	0	C	1	1	871	1	Ⴔ	cut_h.wav
2	23	1	1	1	C	2	1	649	1	Ⴖ	cut_h.wav
2	24	3	3	2	I	1	0	1079	1	Ⴉ	cut_l.wav
2	25	1	1	1	C	2	1	855	1	Ⴖ	cut_h.wav
2	26	4	4	2	I	2	0	939	1	Ⴒ	cut_g.wav
2	27	3	4	2	I	1	0	916	0	Ⴉ	cut_g.wav
2	28	2	1	0	C	1	1	911	1	Ⴔ	cut_h.wav
2	29	4	3	2	I	1	0	653	0	Ⴒ	cut_l.wav
2	30	3	3	2	I	1	0	937	0	Ⴉ	cut_l.wav
2	31	1	2	0	C	1	1	1059	1	Ⴖ	cut_w.wav
2	32	2	2	1	C	2	1	816	1	Ⴔ	cut_w.wav
2	33	1	2	0	C	2	0	834	0	Ⴖ	cut_w.wav
2	34	3	4	2	I	1	0	1189	1	Ⴉ	cut_g.wav
2	35	4	3	2	I	2	0	882	0	Ⴒ	cut_l.wav
2	36	2	1	0	C	1	1	929	1	Ⴔ	cut_h.wav
2	37	1	1	1	C	2	1	636	1	Ⴖ	cut_h.wav
2	38	3	3	2	I	1	0	912	0	Ⴉ	cut_l.wav
2	39	4	4	2	I	2	0	974	0	Ⴒ	cut_g.wav
2	40	2	2	1	C	2	1	881	1	Ⴔ	cut_w.wav
2	41	4	4	2	I	1	0	758	1	Ⴒ	cut_g.wav
2	42	2	2	1	C	2	1	773	1	Ⴔ	cut_w.wav
2	43	3	4	2	I	2	0	998	1	Ⴉ	cut_g.wav
2	44	1	1	1	C	2	1	894	1	Ⴖ	cut_h.wav
2	45	3	3	2	I	2	0	957	0	Ⴉ	cut_l.wav
2	46	2	1	0	C	1	1	750	1	Ⴔ	cut_h.wav
2	47	1	2	0	C	2	0	654	0	Ⴖ	cut_w.wav
2	48	4	3	2	I	1	0	916	0	Ⴒ	cut_l.wav
2	49	3	3	2	I	1	0	931	1	Ⴉ	cut_l.wav
2	50	1	1	1	C	2	1	796	1	Ⴖ	cut_h.wav
2	51	2	2	1	C	2	1	662	1	Ⴔ	cut_w.wav
2	52	4	3	2	I	2	0	881	0	Ⴒ	cut_l.wav
2	53	2	1	0	C	1	1	1092	1	Ⴔ	cut_h.wav
2	54	3	4	2	I	2	0	985	0	Ⴉ	cut_g.wav
2	55	4	4	2	I	1	0	741	1	Ⴒ	cut_g.wav
2	56	1	2	0	C	1	1	1064	1	Ⴖ	cut_w.wav
2	57	3	3	2	I	1	0	982	1	Ⴉ	cut_l.wav
2	58	1	2	0	C	1	1	807	1	Ⴖ	cut_w.wav
2	59	4	3	2	I	2	0	802	1	Ⴒ	cut_l.wav
2	60	2	2	1	C	2	1	927	1	Ⴔ	cut_w.wav
2	61	1	1	1	C	2	1	972	1	Ⴖ	cut_h.wav
2	62	2	1	0	C	1	1	681	1	Ⴔ	cut_h.wav
2	63	3	4	2	I	2	0	1206	1	Ⴉ	cut_g.wav
2	64	4	4	2	I	1	0	1020	0	Ⴒ	cut_g.wav
2	65	3	4	2	I	2	0	964	1	Ⴉ	cut_g.wav
2	66	1	2	0	C	1	1	733	1	Ⴖ	cut_w.wav
2	67	4	4	2	I	1	0	1110	1	Ⴒ	cut_g.wav
2	68	2	2	1	C	2	1	741	1	Ⴔ	cut_w.wav
2	69	3	3	2	I	1	0	954	0	Ⴉ	cut_l.wav
2	70	4	3	2	I	2	0	1491	1	Ⴒ	cut_l.wav
2	71	2	1	0	C	1	1	690	1	Ⴔ	cut_h.wav
2	72	1	1	1	C	2	1	935	1	Ⴖ	cut_h.wav
2	73	3	3	2	I	1	0	1026	1	Ⴉ	cut_l.wav
2	74	2	1	0	C	1	1	731	1	Ⴔ	cut_h.wav
2	75	4	3	2	I	2	0	803	0	Ⴒ	cut_l.wav
2	76	1	2	0	C	1	1	802	1	Ⴖ	cut_w.wav
2	77	2	2	1	C	2	1	757	1	Ⴔ	cut_w.wav
2	78	4	4	2	I	1	0	862	0	Ⴒ	cut_g.wav
2	79	3	4	2	I	1	0	1008	0	Ⴉ	cut_g.wav
2	80	1	1	1	C	2	1	842	1	Ⴖ	cut_h.wav
2	81	2	1	0	C	1	1	583	1	Ⴔ	cut_h.wav
2	82	3	3	2	I	1	0	1384	0	Ⴉ	cut_l.wav
2	83	4	3	2	I	2	0	982	1	Ⴒ	cut_l.wav
2	84	1	1	1	C	2	1	748	1	Ⴖ	cut_h.wav
2	85	3	4	2	I	2	0	902	1	Ⴉ	cut_g.wav
2	86	1	2	0	C	1	1	810	1	Ⴖ	cut_w.wav
2	87	4	4	2	I	1	0	804	1	Ⴒ	cut_g.wav
2	88	2	2	1	C	2	1	746	1	Ⴔ	cut_w.wav
2	89	3	4	2	I	2	0	1004	0	Ⴉ	cut_g.wav
2	90	2	1	0	C	1	1	693	1	Ⴔ	cut_h.wav
2	91	4	4	2	I	1	0	757	1	Ⴒ	cut_g.wav
2	92	1	2	0	C	1	1	932	1	Ⴖ	cut_w.wav
2	93	2	2	1	C	2	1	1037	1	Ⴔ	cut_w.wav
2	94	4	3	2	I	2	0	1305	1	Ⴒ	cut_l.wav
2	95	3	3	2	I	1	0	744	0	Ⴉ	cut_l.wav
2	96	1	1	1	C	2	1	844	1	Ⴖ	cut_h.wav
2	97	2	2	1	C	2	1	929	1	Ⴔ	cut_w.wav
2	98	4	4	2	I	2	0	719	0	Ⴒ	cut_g.wav
2	99	3	3	2	I	1	0	953	1	Ⴉ	cut_l.wav
2	100	1	2	0	C	1	1	733	1	Ⴖ	cut_w.wav
2	101	2	1	0	C	1	1	670	1	Ⴔ	cut_h.wav
2	102	1	1	1	C	2	1	726	1	Ⴖ	cut_h.wav
2	103	4	3	2	I	2	0	1539	0	Ⴒ	cut_l.wav
2	104	3	4	2	I	2	0	1547	1	Ⴉ	cut_g.wav
2	105	4	4	2	I	1	0	795	1	Ⴒ	cut_g.wav
2	106	3	4	2	I	2	0	806	0	Ⴉ	cut_g.wav
2	107	2	2	1	C	2	1	824	1	Ⴔ	cut_w.wav
2	108	1	2	0	C	1	1	1085	1	Ⴖ	cut_w.wav
2	109	3	3	2	I	1	0	1083	0	Ⴉ	cut_l.wav
2	110	4	3	2	I	2	0	977	0	Ⴒ	cut_l.wav
2	111	2	1	0	C	1	1	1037	1	Ⴔ	cut_h.wav
2	112	1	1	1	C	2	1	681	1	Ⴖ	cut_h.wav
2	113	4	4	2	I	1	0	765	1	Ⴒ	cut_g.wav
2	114	2	1	0	C	1	1	630	1	Ⴔ	cut_h.wav
2	115	3	3	2	I	1	0	1047	1	Ⴉ	cut_l.wav
2	116	1	2	0	C	1	1	764	1	Ⴖ	cut_w.wav
2	117	4	3	2	I	2	0	1172	0	Ⴒ	cut_l.wav
2	118	2	2	1	C	2	1	1048	1	Ⴔ	cut_w.wav
2	119	3	4	2	I	2	0	1262	0	Ⴉ	cut_g.wav
2	120	1	1	1	C	2	1	1088	1	Ⴖ	cut_h.wav
2	121	3	3	2	I	1	0	1012	0	Ⴉ	cut_l.wav
2	122	4	3	2	I	1	0	730	0	Ⴒ	cut_l.wav
2	123	2	2	1	C	2	1	743	1	Ⴔ	cut_w.wav
2	124	1	1	1	C	2	1	715	1	Ⴖ	cut_h.wav
2	125	4	4	2	I	1	0	942	1	Ⴒ	cut_g.wav
2	126	2	1	0	C	1	1	768	1	Ⴔ	cut_h.wav
2	127	1	2	0	C	1	1	673	1	Ⴖ	cut_w.wav
2	128	3	4	2	I	1	0	711	1	Ⴉ	cut_g.wav
2	129	2	1	0	C	1	1	1053	1	Ⴔ	cut_h.wav
2	130	3	3	2	I	2	0	996	0	Ⴉ	cut_l.wav
2	131	4	3	2	I	1	0	869	1	Ⴒ	cut_l.wav
2	132	1	1	1	C	2	1	1022	1	Ⴖ	cut_h.wav
2	133	3	4	2	I	1	0	1030	1	Ⴉ	cut_g.wav
2	134	2	2	1	C	2	1	802	1	Ⴔ	cut_w.wav
2	135	1	2	0	C	1	1	614	1	Ⴖ	cut_w.wav
2	136	4	4	2	I	2	0	1080	1	Ⴒ	cut_g.wav
2	137	3	3	2	I	2	0	1150	1	Ⴉ	cut_l.wav
2	138	4	4	2	I	2	0	986	0	Ⴒ	cut_g.wav
2	139	1	1	1	C	2	1	720	1	Ⴖ	cut_h.wav
2	140	2	1	0	C	1	1	1047	1	Ⴔ	cut_h.wav
2	141	1	2	0	C	1	1	1197	1	Ⴖ	cut_w.wav
2	142	3	4	2	I	1	0	712	1	Ⴉ	cut_g.wav
2	143	2	2	1	C	2	1	838	1	Ⴔ	cut_w.wav
2	144	4	3	2	I	1	0	938	0	Ⴒ	cut_l.wav
2	145	2	1	0	C	2	0	1308	0	Ⴔ	cut_h.wav
2	146	4	3	2	I	1	0	1015	1	Ⴒ	cut_l.wav
2	147	1	2	0	C	1	1	1277	1	Ⴖ	cut_w.wav
2	148	3	3	2	I	0	0	0	0	Ⴉ	cut_l.wav
2	149	1	1	1	C	2	1	1341	1	Ⴖ	cut_h.wav
2	150	4	4	2	I	1	0	1097	1	Ⴒ	cut_g.wav
2	151	3	4	2	I	1	0	814	1	Ⴉ	cut_g.wav
2	152	2	2	1	C	2	1	1001	1	Ⴔ	cut_w.wav
2	153	1	1	1	C	2	1	937	1	Ⴖ	cut_h.wav
2	154	2	1	0	C	1	1	809	1	Ⴔ	cut_h.wav
2	155	4	4	2	I	2	0	1256	1	Ⴒ	cut_g.wav
2	156	3	3	2	I	1	0	1028	0	Ⴉ	cut_l.wav
2	157	2	2	1	C	2	1	788	1	Ⴔ	cut_w.wav
2	158	3	4	2	I	1	0	941	0	Ⴉ	cut_g.wav
2	159	4	3	2	I	1	0	1264	0	Ⴒ	cut_l.wav
2	160	1	2	0	C	1	1	766	1	Ⴖ	cut_w.wav
2	161	2	2	1	C	2	1	707	1	Ⴔ	cut_w.wav
2	162	4	3	2	I	1	0	806	0	Ⴒ	cut_l.wav
2	163	1	2	0	C	1	1	816	1	Ⴖ	cut_w.wav
2	164	3	4	2	I	1	0	1973	1	Ⴉ	cut_g.wav
2	165	1	1	1	C	2	1	767	1	Ⴖ	cut_h.wav
2	166	2	1	0	C	1	1	1043	1	Ⴔ	cut_h.wav
2	167	4	4	2	I	2	0	1428	1	Ⴒ	cut_g.wav
2	168	3	3	2	I	2	0	832	0	Ⴉ	cut_l.wav
2	169	4	3	2	I	1	0	696	0	Ⴒ	cut_l.wav
2	170	2	1	0	C	1	1	802	1	Ⴔ	cut_h.wav
2	171	3	4	2	I	1	0	1006	0	Ⴉ	cut_g.wav
2	172	1	1	1	C	2	1	787	1	Ⴖ	cut_h.wav
2	173	2	2	1	C	2	1	732	1	Ⴔ	cut_w.wav
2	174	3	3	2	I	2	0	989	0	Ⴉ	cut_l.wav
2	175	1	2	0	C	1	1	1081	1	Ⴖ	cut_w.wav
2	176	4	4	2	I	2	0	843	0	Ⴒ	cut_g.wav
2	177	2	1	0	C	2	0	1000	0	Ⴔ	cut_h.wav
2	178	3	3	2	I	2	0	1203	0	Ⴉ	cut_l.wav
2	179	4	3	2	I	1	0	686	1	Ⴒ	cut_l.wav
2	180	1	1	1	C	2	1	1234	1	Ⴖ	cut_h.wav
2	181	2	2	1	C	2	1	684	1	Ⴔ	cut_w.wav
2	182	4	4	2	I	1	0	1140	0	Ⴒ	cut_g.wav
2	183	1	2	0	C	1	1	1054	1	Ⴖ	cut_w.wav
2	184	3	4	2	I	1	0	557	1	Ⴉ	cut_g.wav
2	185	4	4	2	I	2	0	837	0	Ⴒ	cut_g.wav
2	186	3	3	2	I	1	0	1062	1	Ⴉ	cut_l.wav
2	187	2	2	1	C	2	1	785	1	Ⴔ	cut_w.wav
2	188	1	1	1	C	2	1	836	1	Ⴖ	cut_h.wav
2	189	2	1	0	C	1	1	745	1	Ⴔ	cut_h.wav
2	190	3	4	2	I	2	0	1602	1	Ⴉ	cut_g.wav
2	191	1	2	0	C	1	1	988	1	Ⴖ	cut_w.wav
2	192	4	3	2	I	1	0	1203	1	Ⴒ	cut_l.wav
2	193	2	2	1	C	2	1	667	1	Ⴔ	cut_w.wav
2	194	3	3	2	I	2	0	948	1	Ⴉ	cut_l.wav
2	195	4	4	2	I	2	0	1018	0	Ⴒ	cut_g.wav
2	196	1	2	0	C	1	1	649	1	Ⴖ	cut_w.wav
2	197	3	4	2	I	1	0	753	0	Ⴉ	cut_g.wav
2	198	1	1	1	C	2	1	817	1	Ⴖ	cut_h.wav
2	199	4	3	2	I	1	0	740	0	Ⴒ	cut_l.wav
2	200	2	1	0	C	1	1	613	1	Ⴔ	cut_h.wav
3	1	1	2	0	C	1	1	1089	1	Ⴥ	cut_f.wav
3	2	3	4	2	I	2	0	884	1	Ⴡ	cut_oei.wav
3	3	2	1	0	C	1	1	790	1	Ⴂ	cut_s.wav
3	4	4	3	2	I	2	0	594	0	Ⴊ	cut_ui.wav
3	5	3	3	2	I	1	0	1155	0	Ⴡ	cut_ui.wav
3	6	2	2	1	C	1	0	1195	0	Ⴂ	cut_f.wav
3	7	1	1	1	C	1	0	1121	0	Ⴥ	cut_s.wav
3	8	4	4	2	I	1	0	889	0	Ⴊ	cut_oei.wav
3	9	3	4	2	I	1	0	648	0	Ⴡ	cut_oei.wav
3	10	4	3	2	I	1	0	765	1	Ⴊ	cut_ui.wav
3	11	1	1	1	C	2	1	1201	1	Ⴥ	cut_s.wav
3	12	2	1	0	C	1	1	902	1	Ⴂ	cut_s.wav
3	13	3	3	2	I	2	0	877	1	Ⴡ	cut_ui.wav
3	14	2	2	1	C	1	0	1133	0	Ⴂ	cut_f.wav
3	15	4	4	2	I	1	0	1056	1	Ⴊ	cut_oei.wav
3	16	1	2	0	C	2	0	1039	0	Ⴥ	cut_f.wav
3	17	4	3	2	I	1	0	1737	1	Ⴊ	cut_ui.wav
3	18	1	2	0	C	1	1	1035	1	Ⴥ	cut_f.wav
3	19	2	2	1	C	2	1	904	1	Ⴂ	cut_f.wav
3	20	3	3	2	I	1	0	965	0	Ⴡ	cut_ui.wav
3	21	1	1	1	C	2	1	840	1	Ⴥ	cut_s.wav
3	22	2	1	0	C	1	1	693	1	Ⴂ	cut_s.wav
3	23	4	4	2	I	2	0	772	0	Ⴊ	cut_oei.wav
3	24	3	4	2	I	2	0	659	0	Ⴡ	cut_oei.wav
3	25	2	2	1	C	2	1	1038	1	Ⴂ	cut_f.wav
3	26	1	2	0	C	1	1	834	1	Ⴥ	cut_f.wav
3	27	3	4	2	I	1	0	1153	1	Ⴡ	cut_oei.wav
3	28	4	4	2	I	2	0	800	1	Ⴊ	cut_oei.wav
3	29	3	3	2	I	1	0	887	1	Ⴡ	cut_ui.wav
3	30	2	1	0	C	1	1	808	1	Ⴂ	cut_s.wav
3	31	1	1	1	C	2	1	757	1	Ⴥ	cut_s.wav
3	32	4	3	2	I	2	0	1292	1	Ⴊ	cut_ui.wav
3	33	2	2	1	C	2	1	791	1	Ⴂ	cut_f.wav
3	34	1	1	1	C	2	1	1094	1	Ⴥ	cut_s.wav
3	35	4	3	2	I	2	0	1024	0	Ⴊ	cut_ui.wav
3	36	3	4	2	I	1	0	684	1	Ⴡ	cut_oei.wav
3	37	2	1	0	C	1	1	868	1	Ⴂ	cut_s.wav
3	38	1	2	0	C	1	1	924	1	Ⴥ	cut_f.wav
3	39	4	4	2	I	2	0	1762	0	Ⴊ	cut_oei.wav
3	40	3	3	2	I	1	0	428	0	Ⴡ	cut_ui.wav
3	41	4	3	2	I	1	0	792	1	Ⴊ	cut_ui.wav
3	42	1	2	0	C	1	1	842	1	Ⴥ	cut_f.wav
3	43	3	3	2	I	1	0	1493	0	Ⴡ	cut_ui.wav
3	44	2	2	1	C	2	1	924	1	Ⴂ	cut_f.wav
3	45	3	4	2	I	1	0	1144	1	Ⴡ	cut_oei.wav
3	46	2	1	0	C	1	1	832	1	Ⴂ	cut_s.wav
3	47	1	1	1	C	2	1	783	1	Ⴥ	cut_s.wav
3	48	4	4	2	I	1	0	1554	0	Ⴊ	cut_oei.wav
3	49	2	2	1	C	2	1	827	1	Ⴂ	cut_f.wav
3	50	4	3	2	I	1	0	941	1	Ⴊ	cut_ui.wav
3	51	1	2	0	C	1	1	949	1	Ⴥ	cut_f.wav
3	52	3	3	2	I	1	0	1237	1	Ⴡ	cut_ui.wav
3	53	4	4	2	I	2	0	755	0	Ⴊ	cut_oei.wav
3	54	2	1	0	C	1	1	768	1	Ⴂ	cut_s.wav
3	55	3	4	2	I	2	0	1082	0	Ⴡ	cut_oei.wav
3	56	1	1	1	C	2	1	944	1	Ⴥ	cut_s.wav
3	57	3	3	2	I	1	0	1075	0	Ⴡ	cut_ui.wav
3	58	4	4	2	I	1	0	1318	1	Ⴊ	cut_oei.wav
3	59	2	2	1	C	2	1	1091	1	Ⴂ	cut_f.wav
3	60	1	1	1	C	2	1	843	1	Ⴥ	cut_s.wav
3	61	2	1	0	C	1	1	613	1	Ⴂ	cut_s.wav
3	62	1	2	0	C	1	1	857	1	Ⴥ	cut_f.wav
3	63	3	4	2	I	1	0	865	0	Ⴡ	cut_oei.wav
3	64	4	3	2	I	1	0	1065	0	Ⴊ	cut_ui.wav
3	65	2	1	0	C	1	1	716	1	Ⴂ	cut_s.wav
3	66	3	3	2	I	1	0	831	1	Ⴡ	cut_ui.wav
3	67	1	1	1	C	2	1	857	1	Ⴥ	cut_s.wav
3	68	4	4	2	I	1	0	1304	1	Ⴊ	cut_oei.wav
3	69	2	2	1	C	2	1	760	1	Ⴂ	cut_f.wav
3	70	3	4	2	I	2	0	1204	1	Ⴡ	cut_oei.wav
3	71	1	2	0	C	1	1	1023	1	Ⴥ	cut_f.wav
3	72	4	3	2	I	2	0	1205	0	Ⴊ	cut_ui.wav
3	73	1	2	0	C	1	1	682	1	Ⴥ	cut_f.wav
3	74	3	4	2	I	2	0	1015	1	Ⴡ	cut_oei.wav
3	75	4	3	2	I	2	0	985	0	Ⴊ	cut_ui.wav
3	76	2	2	1	C	2	1	1136	1	Ⴂ	cut_f.wav
3	77	4	4	2	I	1	0	955	1	Ⴊ	cut_oei.wav
3	78	2	1	0	C	2	0	880	0	Ⴂ	cut_s.wav
3	79	3	3	2	I	1	0	1250	1	Ⴡ	cut_ui.wav
3	80	1	1	1	C	2	1	869	1	Ⴥ	cut_s.wav
3	81	2	2	1	C	2	1	673	1	Ⴂ	cut_f.wav
3	82	1	2	0	C	1	1	679	1	Ⴥ	cut_f.wav
3	83	3	4	2	I	2	0	935	0	Ⴡ	cut_oei.wav
3	84	4	4	2	I	1	0	691	1	Ⴊ	cut_oei.wav
3	85	3	3	2	I	1	0	1536	1	Ⴡ	cut_ui.wav
3	86	2	1	0	C	2	0	716	0	Ⴂ	cut_s.wav
3	87	1	1	1	C	2	1	1215	1	Ⴥ	cut_s.wav
3	88	4	3	2	I	2	0	1095	0	Ⴊ	cut_ui.wav
3	89	2	1	0	C	1	1	825	1	Ⴂ	cut_s.wav
3	90	3	3	2	I	1	0	1194	0	Ⴡ	cut_ui.wav
3	91	4	3	2	I	2	0	1097	1	Ⴊ	cut_ui.wav
3	92	1	2	0	C	1	1	757	1	Ⴥ	cut_f.wav
3	93	2	2	1	C	2	1	838	1	Ⴂ	cut_f.wav
3	94	3	4	2	I	2	0	1076	1	Ⴡ	cut_oei.wav
3	95	1	1	1	C	2	1	976	1	Ⴥ	cut_s.wav
3	96	4	4	2	I	1	0	747	1	Ⴊ	cut_oei.wav
3	97	1	1	1	C	2	1	1012	1	Ⴥ	cut_s.wav
3	98	2	1	0	C	2	0	725	0	Ⴂ	cut_s.wav
3	99	3	4	2	I	2	0	1140	0	Ⴡ	cut_oei.wav
3	100	4	4	2	I	1	0	905	0	Ⴊ	cut_oei.wav
3	101	1	2	0	C	1	1	1064	1	Ⴥ	cut_f.wav
3	102	2	2	1	C	2	1	742	1	Ⴂ	cut_f.wav
3	103	4	3	2	I	2	0	1242	1	Ⴊ	cut_ui.wav
3	104	3	3	2	I	1	0	992	1	Ⴡ	cut_ui.wav
3	105	2	2	1	C	2	1	758	1	Ⴂ	cut_f.wav
3	106	4	3	2	I	2	0	898	0	Ⴊ	cut_ui.wav
3	107	1	1	1	C	2	1	938	1	Ⴥ	cut_s.wav
3	108	3	3	2	I	1	0	784	0	Ⴡ	cut_ui.wav
3	109	1	2	0	C	1	1	798	1	Ⴥ	cut_f.wav
3	110	3	4	2	I	1	0	1056	0	Ⴡ	cut_oei.wav
3	111	4	4	2	I	1	0	718	0	Ⴊ	cut_oei.wav
3	112	2	1	0	C	1	1	1400	1	Ⴂ	cut_s.wav
3	113	3	4	2	I	2	0	1198	0	Ⴡ	cut_oei.wav
3	114	1	2	0	C	1	1	812	1	Ⴥ	cut_f.wav
3	115	4	3	2	I	1	0	1233	1	Ⴊ	cut_ui.wav
3	116	2	2	1	C	2	1	814	1	Ⴂ	cut_f.wav
3	117	1	1	1	C	2	1	781	1	Ⴥ	cut_s.wav
3	118	3	3	2	I	2	0	1431	1	Ⴡ	cut_ui.wav
3	119	2	1	0	C	1	1	872	1	Ⴂ	cut_s.wav
3	120	4	4	2	I	2	0	1024	0	Ⴊ	cut_oei.wav
3	121	1	1	1	C	2	1	857	1	Ⴥ	cut_s.wav
3	122	2	2	1	C	2	1	696	1	Ⴂ	cut_f.wav
3	123	4	3	2	I	1	0	972	0	Ⴊ	cut_ui.wav
3	124	3	4	2	I	1	0	1706	0	Ⴡ	cut_oei.wav
3	125	4	4	2	I	1	0	720	1	Ⴊ	cut_oei.wav
3	126	1	2	0	C	1	1	1036	1	Ⴥ	cut_f.wav
3	127	2	1	0	C	2	0	1707	0	Ⴂ	cut_s.wav
3	128	3	3	2	I	1	0	1303	1	Ⴡ	cut_ui.wav
3	129	2	1	0	C	2	0	1030	0	Ⴂ	cut_s.wav
3	130	3	4	2	I	1	0	1613	0	Ⴡ	cut_oei.wav
3	131	4	3	2	I	2	0	1066	0	Ⴊ	cut_ui.wav
3	132	1	2	0	C	1	1	659	1	Ⴥ	cut_f.wav
3	133	4	4	2	I	1	0	975	1	Ⴊ	cut_oei.wav
3	134	2	2	1	C	2	1	921	1	Ⴂ	cut_f.wav
3	135	3	3	2	I	1	0	934	1	Ⴡ	cut_ui.wav
3	136	1	1	1	C	2	1	775	1	Ⴥ	cut_s.wav
3	137	2	1	0	C	1	1	1030	1	Ⴂ	cut_s.wav
3	138	1	1	1	C	2	1	1411	1	Ⴥ	cut_s.wav
3	139	3	3	2	I	1	0	1100	0	Ⴡ	cut_ui.wav
3	140	4	3	2	I	2	0	1259	1	Ⴊ	cut_ui.wav
3	141	2	2	1	C	2	1	866	1	Ⴂ	cut_f.wav
3	142	4	4	2	I	1	0	983	1	Ⴊ	cut_oei.wav
3	143	3	4	2	I	2	0	815	0	Ⴡ	cut_oei.wav
3	144	1	2	0	C	1	1	976	1	Ⴥ	cut_f.wav
3	145	3	3	2	I	1	0	776	1	Ⴡ	cut_ui.wav
3	146	2	2	1	C	2	1	860	1	Ⴂ	cut_f.wav
3	147	4	4	2	I	1	0	888	0	Ⴊ	cut_oei.wav
3	148	1	1	1	C	2	1	746	1	Ⴥ	cut_s.wav
3	149	2	1	0	C	1	1	728	1	Ⴂ	cut_s.wav
3	150	3	4	2	I	2	0	1444	0	Ⴡ	cut_oei.wav
3	151	1	2	0	C	1	1	1172	1	Ⴥ	cut_f.wav
3	152	4	3	2	I	2	0	1074	0	Ⴊ	cut_ui.wav
3	153	1	1	1	C	2	1	864	1	Ⴥ	cut_s.wav
3	154	4	3	2	I	1	0	1148	0	Ⴊ	cut_ui.wav
3	155	2	2	1	C	2	1	1090	1	Ⴂ	cut_f.wav
3	156	3	4	2	I	2	0	1181	0	Ⴡ	cut_oei.wav
3	157	4	4	2	I	1	0	784	1	Ⴊ	cut_oei.wav
3	158	3	3	2	I	1	0	1159	1	Ⴡ	cut_ui.wav
3	159	2	1	0	C	1	1	807	1	Ⴂ	cut_s.wav
3	160	1	2	0	C	1	1	688	1	Ⴥ	cut_f.wav
3	161	2	1	0	C	1	1	776	1	Ⴂ	cut_s.wav
3	162	4	3	2	I	2	0	1415	0	Ⴊ	cut_ui.wav
3	163	3	4	2	I	2	0	866	1	Ⴡ	cut_oei.wav
3	164	1	2	0	C	1	1	656	1	Ⴥ	cut_f.wav
3	165	4	4	2	I	1	0	787	0	Ⴊ	cut_oei.wav
3	166	2	2	1	C	2	1	803	1	Ⴂ	cut_f.wav
3	167	3	3	2	I	1	0	1047	1	Ⴡ	cut_ui.wav
3	168	1	1	1	C	2	1	761	1	Ⴥ	cut_s.wav
3	169	2	1	0	C	1	1	841	1	Ⴂ	cut_s.wav
3	170	1	2	0	C	1	1	751	1	Ⴥ	cut_f.wav
3	171	3	3	2	I	1	0	830	1	Ⴡ	cut_ui.wav
3	172	4	3	2	I	2	0	734	0	Ⴊ	cut_ui.wav
3	173	3	4	2	I	2	0	1002	0	Ⴡ	cut_oei.wav
3	174	4	4	2	I	1	0	1289	0	Ⴊ	cut_oei.wav
3	175	1	1	1	C	2	1	744	1	Ⴥ	cut_s.wav
3	176	2	2	1	C	2	1	818	1	Ⴂ	cut_f.wav
3	177	1	1	1	C	2	1	726	1	Ⴥ	cut_s.wav
3	178	4	4	2	I	1	0	772	1	Ⴊ	cut_oei.wav
3	179	2	2	1	C	2	1	970	1	Ⴂ	cut_f.wav
3	180	3	4	2	I	2	0	1058	0	Ⴡ	cut_oei.wav
3	181	1	2	0	C	1	1	723	1	Ⴥ	cut_f.wav
3	182	4	3	2	I	2	0	1137	1	Ⴊ	cut_ui.wav
3	183	2	1	0	C	1	1	1081	1	Ⴂ	cut_s.wav
3	184	3	3	2	I	1	0	876	1	Ⴡ	cut_ui.wav
3	185	4	4	2	I	1	0	1293	1	Ⴊ	cut_oei.wav
3	186	2	1	0	C	1	1	718	1	Ⴂ	cut_s.wav
3	187	1	2	0	C	1	1	978	1	Ⴥ	cut_f.wav
3	188	3	3	2	I	1	0	956	1	Ⴡ	cut_ui.wav
3	189	2	2	1	C	2	1	1076	1	Ⴂ	cut_f.wav
3	190	1	1	1	C	2	1	1040	1	Ⴥ	cut_s.wav
3	191	3	4	2	I	2	0	937	1	Ⴡ	cut_oei.wav
3	192	4	3	2	I	2	0	709	0	Ⴊ	cut_ui.wav
3	193	1	2	0	C	1	1	681	1	Ⴥ	cut_f.wav
3	194	2	1	0	C	1	1	1184	1	Ⴂ	cut_s.wav
3	195	4	3	2	I	2	0	1170	1	Ⴊ	cut_ui.wav
3	196	3	3	2	I	1	0	668	0	Ⴡ	cut_ui.wav
3	197	2	2	1	C	2	1	1411	1	Ⴂ	cut_f.wav
3	198	3	4	2	I	2	0	1141	0	Ⴡ	cut_oei.wav
3	199	1	1	1	C	2	1	960	1	Ⴥ	cut_s.wav
3	200	4	4	2	I	1	0	1144	1	Ⴊ	cut_oei.wav
4	1	1	1	1	C	0	0	0	0	Ⴕ	cut_n.wav
4	2	2	2	1	C	2	1	566	1	Ⴏ	cut_j.wav
4	3	4	4	2	I	1	0	852	0	Ⴌ	cut_ei.wav
4	4	3	3	2	I	2	0	684	1	Ⴐ	cut_r.wav
4	5	2	1	0	C	1	1	790	1	Ⴏ	cut_n.wav
4	6	3	4	2	I	2	0	965	1	Ⴐ	cut_ei.wav
4	7	4	3	2	I	1	0	925	1	Ⴌ	cut_r.wav
4	8	1	2	0	C	1	1	998	1	Ⴕ	cut_j.wav
4	9	2	1	0	C	2	0	1020	0	Ⴏ	cut_n.wav
4	10	3	3	2	I	1	0	845	1	Ⴐ	cut_r.wav
4	11	4	4	2	I	2	0	775	1	Ⴌ	cut_ei.wav
4	12	1	2	0	C	1	1	921	1	Ⴕ	cut_j.wav
4	13	3	4	2	I	2	0	1163	1	Ⴐ	cut_ei.wav
4	14	1	1	1	C	1	0	1183	0	Ⴕ	cut_n.wav
4	15	4	3	2	I	1	0	1177	0	Ⴌ	cut_r.wav
4	16	2	2	1	C	2	1	1444	1	Ⴏ	cut_j.wav
4	17	3	4	2	I	1	0	1194	0	Ⴐ	cut_ei.wav
4	18	1	1	1	C	1	0	1273	0	Ⴕ	cut_n.wav
4	19	4	3	2	I	1	0	1324	1	Ⴌ	cut_r.wav
4	20	2	1	0	C	1	1	1321	1	Ⴏ	cut_n.wav
4	21	1	2	0	C	1	1	994	1	Ⴕ	cut_j.wav
4	22	3	3	2	I	2	0	932	0	Ⴐ	cut_r.wav
4	23	4	4	2	I	2	0	870	1	Ⴌ	cut_ei.wav
4	24	2	2	1	C	2	1	1262	1	Ⴏ	cut_j.wav
4	25	4	3	2	I	2	0	947	1	Ⴌ	cut_r.wav
4	26	1	1	1	C	2	1	1099	1	Ⴕ	cut_n.wav
4	27	2	2	1	C	1	0	879	0	Ⴏ	cut_j.wav
4	28	3	4	2	I	1	0	1062	0	Ⴐ	cut_ei.wav
4	29	1	2	0	C	1	1	1198	1	Ⴕ	cut_j.wav
4	30	2	1	0	C	1	1	1126	1	Ⴏ	cut_n.wav
4	31	3	3	2	I	2	0	1008	0	Ⴐ	cut_r.wav
4	32	4	4	2	I	2	0	744	0	Ⴌ	cut_ei.wav
4	33	1	2	0	C	1	1	721	1	Ⴕ	cut_j.wav
4	34	4	4	2	I	2	0	796	0	Ⴌ	cut_ei.wav
4	35	3	3	2	I	1	0	814	0	Ⴐ	cut_r.wav
4	36	2	2	1	C	2	1	1182	1	Ⴏ	cut_j.wav
4	37	1	1	1	C	2	1	1049	1	Ⴕ	cut_n.wav
4	38	3	4	2	I	2	0	806	0	Ⴐ	cut_ei.wav
4	39	2	1	0	C	1	1	1421	1	Ⴏ	cut_n.wav
4	40	4	3	2	I	2	0	1695	1	Ⴌ	cut_r.wav
4	41	3	3	2	I	1	0	1217	1	Ⴐ	cut_r.wav
4	42	2	2	1	C	2	1	1403	1	Ⴏ	cut_j.wav
4	43	4	3	2	I	2	0	1031	0	Ⴌ	cut_r.wav
4	44	1	1	1	C	2	1	1506	1	Ⴕ	cut_n.wav
4	45	3	4	2	I	2	0	1029	0	Ⴐ	cut_ei.wav
4	46	2	1	0	C	1	1	1179	1	Ⴏ	cut_n.wav
4	47	4	4	2	I	2	0	767	1	Ⴌ	cut_ei.wav
4	48	1	2	0	C	1	1	1041	1	Ⴕ	cut_j.wav
4	49	2	2	1	C	2	1	1035	1	Ⴏ	cut_j.wav
4	50	3	4	2	I	2	0	997	1	Ⴐ	cut_ei.wav
4	51	4	4	2	I	1	0	935	0	Ⴌ	cut_ei.wav
4	52	1	1	1	C	2	1	1267	1	Ⴕ	cut_n.wav
4	53	3	3	2	I	1	0	1003	1	Ⴐ	cut_r.wav
4	54	2	1	0	C	2	0	949	0	Ⴏ	cut_n.wav
4	55	1	2	0	C	1	1	1021	1	Ⴕ	cut_j.wav
4	56	4	3	2	I	2	0	1461	1	Ⴌ	cut_r.wav
4	57	3	3	2	I	1	0	773	0	Ⴐ	cut_r.wav
4	58	2	1	0	C	1	1	1374	1	Ⴏ	cut_n.wav
4	59	4	3	2	I	2	0	956	1	Ⴌ	cut_r.wav
4	60	1	1	1	C	2	1	1112	1	Ⴕ	cut_n.wav
4	61	4	4	2	I	2	0	718	0	Ⴌ	cut_ei.wav
4	62	1	2	0	C	2	0	1053	0	Ⴕ	cut_j.wav
4	63	2	2	1	C	2	1	1046	1	Ⴏ	cut_j.wav
4	64	3	4	2	I	2	0	989	0	Ⴐ	cut_ei.wav
4	65	2	2	1	C	2	1	1233	1	Ⴏ	cut_j.wav
4	66	1	2	0	C	2	0	1686	0	Ⴕ	cut_j.wav
4	67	3	4	2	I	1	0	1754	0	Ⴐ	cut_ei.wav
4	68	4	4	2	I	2	0	853	0	Ⴌ	cut_ei.wav
4	69	3	3	2	I	1	0	1180	0	Ⴐ	cut_r.wav
4	70	2	1	0	C	1	1	1409	1	Ⴏ	cut_n.wav
4	71	4	3	2	I	2	0	1090	0	Ⴌ	cut_r.wav
4	72	1	1	1	C	2	1	1007	1	Ⴕ	cut_n.wav
4	73	4	4	2	I	2	0	1174	1	Ⴌ	cut_ei.wav
4	74	3	4	2	I	1	0	1315	1	Ⴐ	cut_ei.wav
4	75	2	1	0	C	1	1	1535	1	Ⴏ	cut_n.wav
4	76	1	1	1	C	2	1	1292	1	Ⴕ	cut_n.wav
4	77	2	2	1	C	1	0	1670	0	Ⴏ	cut_j.wav
4	78	1	2	0	C	1	1	864	1	Ⴕ	cut_j.wav
4	79	4	3	2	I	2	0	1271	0	Ⴌ	cut_r.wav
4	80	3	3	2	I	1	0	1077	1	Ⴐ	cut_r.wav
4	81	1	1	1	C	2	1	1159	1	Ⴕ	cut_n.wav
4	82	2	1	0	C	1	1	945	1	Ⴏ	cut_n.wav
4	83	3	4	2	I	2	0	1124	1	Ⴐ	cut_ei.wav
4	84	4	3	2	I	2	0	1117	0	Ⴌ	cut_r.wav
4	85	3	3	2	I	2	0	1880	0	Ⴐ	cut_r.wav
4	86	2	2	1	C	2	1	1492	1	Ⴏ	cut_j.wav
4	87	1	2	0	C	1	1	679	1	Ⴕ	cut_j.wav
4	88	4	4	2	I	2	0	934	0	Ⴌ	cut_ei.wav
4	89	1	1	1	C	2	1	1448	1	Ⴕ	cut_n.wav
4	90	3	4	2	I	1	0	1315	0	Ⴐ	cut_ei.wav
4	91	2	1	0	C	1	1	1237	1	Ⴏ	cut_n.wav
4	92	4	4	2	I	2	0	762	1	Ⴌ	cut_ei.wav
4	93	1	2	0	C	1	1	930	1	Ⴕ	cut_j.wav
4	94	4	3	2	I	2	0	1121	0	Ⴌ	cut_r.wav
4	95	3	3	2	I	1	0	1339	1	Ⴐ	cut_r.wav
4	96	2	2	1	C	2	1	1133	1	Ⴏ	cut_j.wav
4	97	1	1	1	C	2	1	1576	1	Ⴕ	cut_n.wav
4	98	2	1	0	C	2	0	1491	0	Ⴏ	cut_n.wav
4	99	3	3	2	I	2	0	1813	0	Ⴐ	cut_r.wav
4	100	4	3	2	I	2	0	913	1	Ⴌ	cut_r.wav
4	101	1	2	0	C	1	1	1114	1	Ⴕ	cut_j.wav
4	102	3	4	2	I	2	0	1475	0	Ⴐ	cut_ei.wav
4	103	4	4	2	I	2	0	1062	1	Ⴌ	cut_ei.wav
4	104	2	2	1	C	2	1	1121	1	Ⴏ	cut_j.wav
4	105	1	1	1	C	2	1	774	1	Ⴕ	cut_n.wav
4	106	3	3	2	I	1	0	903	1	Ⴐ	cut_r.wav
4	107	4	3	2	I	2	0	1001	0	Ⴌ	cut_r.wav
4	108	2	2	1	C	2	1	1125	1	Ⴏ	cut_j.wav
4	109	4	4	2	I	2	0	1334	1	Ⴌ	cut_ei.wav
4	110	3	4	2	I	2	0	1423	1	Ⴐ	cut_ei.wav
4	111	2	1	0	C	2	0	1117	0	Ⴏ	cut_n.wav
4	112	1	2	0	C	1	1	999	1	Ⴕ	cut_j.wav
4	113	3	4	2	I	1	0	831	0	Ⴐ	cut_ei.wav
4	114	1	2	0	C	1	1	725	1	Ⴕ	cut_j.wav
4	115	4	3	2	I	2	0	888	1	Ⴌ	cut_r.wav
4	116	2	2	1	C	1	0	1851	0	Ⴏ	cut_j.wav
4	117	4	4	2	I	2	0	1303	1	Ⴌ	cut_ei.wav
4	118	2	1	0	C	1	1	1044	1	Ⴏ	cut_n.wav
4	119	1	1	1	C	2	1	800	1	Ⴕ	cut_n.wav
4	120	3	3	2	I	1	0	1390	1	Ⴐ	cut_r.wav
4	121	4	4	2	I	2	0	731	1	Ⴌ	cut_ei.wav
4	122	3	3	2	I	1	0	820	1	Ⴐ	cut_r.wav
4	123	2	1	0	C	1	1	1347	1	Ⴏ	cut_n.wav
4	124	1	2	0	C	1	1	935	1	Ⴕ	cut_j.wav
4	125	3	4	2	I	2	0	1299	1	Ⴐ	cut_ei.wav
4	126	4	3	2	I	2	0	1048	0	Ⴌ	cut_r.wav
4	127	1	1	1	C	1	0	737	0	Ⴕ	cut_n.wav
4	128	2	2	1	C	0	0	0	0	Ⴏ	cut_j.wav
4	129	1	2	0	C	1	1	653	1	Ⴕ	cut_j.wav
4	130	3	3	2	I	1	0	1102	1	Ⴐ	cut_r.wav
4	131	2	2	1	C	2	1	1174	1	Ⴏ	cut_j.wav
4	132	4	3	2	I	1	0	1004	1	Ⴌ	cut_r.wav
4	133	2	1	0	C	1	1	949	1	Ⴏ	cut_n.wav
4	134	4	4	2	I	2	0	880	1	Ⴌ	cut_ei.wav
4	135	3	4	2	I	2	0	1256	1	Ⴐ	cut_ei.wav
4	136	1	1	1	C	2	1	921	1	Ⴕ	cut_n.wav
4	137	2	1	0	C	1	1	1334	1	Ⴏ	cut_n.wav
4	138	4	4	2	I	2	0	787	0	Ⴌ	cut_ei.wav
4	139	3	4	2	I	1	0	812	1	Ⴐ	cut_ei.wav
4	140	1	1	1	C	2	1	1269	1	Ⴕ	cut_n.wav
4	141	2	2	1	C	2	1	1198	1	Ⴏ	cut_j.wav
4	142	1	2	0	C	2	0	1244	0	Ⴕ	cut_j.wav
4	143	4	3	2	I	2	0	1560	1	Ⴌ	cut_r.wav
4	144	3	3	2	I	1	0	1009	1	Ⴐ	cut_r.wav
4	145	1	2	0	C	1	1	809	1	Ⴕ	cut_j.wav
4	146	4	4	2	I	2	0	783	0	Ⴌ	cut_ei.wav
4	147	2	2	1	C	2	1	1122	1	Ⴏ	cut_j.wav
4	148	3	3	2	I	1	0	773	0	Ⴐ	cut_r.wav
4	149	2	1	0	C	1	1	1219	1	Ⴏ	cut_n.wav
4	150	4	3	2	I	2	0	927	1	Ⴌ	cut_r.wav
4	151	1	1	1	C	2	1	1310	1	Ⴕ	cut_n.wav
4	152	3	4	2	I	2	0	787	0	Ⴐ	cut_ei.wav
4	153	4	3	2	I	2	0	716	0	Ⴌ	cut_r.wav
4	154	2	1	0	C	1	1	888	1	Ⴏ	cut_n.wav
4	155	1	2	0	C	1	1	1098	1	Ⴕ	cut_j.wav
4	156	3	4	2	I	2	0	1195	1	Ⴐ	cut_ei.wav
4	157	2	2	1	C	2	1	1179	1	Ⴏ	cut_j.wav
4	158	3	3	2	I	1	0	910	0	Ⴐ	cut_r.wav
4	159	4	4	2	I	2	0	1223	0	Ⴌ	cut_ei.wav
4	160	1	1	1	C	2	1	1073	1	Ⴕ	cut_n.wav
4	161	4	3	2	I	2	0	1140	1	Ⴌ	cut_r.wav
4	162	3	4	2	I	2	0	1210	1	Ⴐ	cut_ei.wav
4	163	2	1	0	C	1	1	884	1	Ⴏ	cut_n.wav
4	164	1	2	0	C	1	1	1235	1	Ⴕ	cut_j.wav
4	165	3	3	2	I	2	0	1163	0	Ⴐ	cut_r.wav
4	166	1	1	1	C	2	1	1020	1	Ⴕ	cut_n.wav
4	167	2	2	1	C	2	1	1191	1	Ⴏ	cut_j.wav
4	168	4	4	2	I	1	0	878	0	Ⴌ	cut_ei.wav
4	169	3	3	2	I	1	0	947	0	Ⴐ	cut_r.wav
4	170	1	2	0	C	1	1	1744	1	Ⴕ	cut_j.wav
4	171	4	4	2	I	1	0	847	0	Ⴌ	cut_ei.wav
4	172	2	1	0	C	1	1	1196	1	Ⴏ	cut_n.wav
4	173	3	4	2	I	2	0	848	0	Ⴐ	cut_ei.wav
4	174	1	1	1	C	2	1	1404	1	Ⴕ	cut_n.wav
4	175	2	2	1	C	2	1	1259	1	Ⴏ	cut_j.wav
4	176	4	3	2	I	2	0	1131	0	Ⴌ	cut_r.wav
4	177	2	1	0	C	1	1	1086	1	Ⴏ	cut_n.wav
4	178	4	3	2	I	2	0	1160	1	Ⴌ	cut_r.wav
4	179	3	4	2	I	2	0	1051	1	Ⴐ	cut_ei.wav
4	180	1	2	0	C	2	0	1260	0	Ⴕ	cut_j.wav
4	181	2	2	1	C	2	1	1098	1	Ⴏ	cut_j.wav
4	182	4	4	2	I	1	0	928	0	Ⴌ	cut_ei.wav
4	183	1	1	1	C	2	1	1014	1	Ⴕ	cut_n.wav
4	184	3	3	2	I	1	0	1464	0	Ⴐ	cut_r.wav
4	185	4	3	2	I	1	0	718	1	Ⴌ	cut_r.wav
4	186	1	1	1	C	2	1	963	1	Ⴕ	cut_n.wav
4	187	3	3	2	I	1	0	861	0	Ⴐ	cut_r.wav
4	188	2	2	1	C	2	1	1068	1	Ⴏ	cut_j.wav
4	189	1	2	0	C	1	1	802	1	Ⴕ	cut_j.wav
4	190	4	4	2	I	2	0	1058	1	Ⴌ	cut_ei.wav
4	191	3	4	2	I	1	0	873	1	Ⴐ	cut_ei.wav
4	192	2	1	0	C	1	1	1131	1	Ⴏ	cut_n.wav
4	193	1	2	0	C	1	1	819	1	Ⴕ	cut_j.wav
4	194	2	2	1	C	2	1	1239	1	Ⴏ	cut_j.wav
4	195	4	3	2	I	1	0	1269	0	Ⴌ	cut_r.wav
4	196	3	3	2	I	2	0	865	1	Ⴐ	cut_r.wav
4	197	1	1	1	C	2	1	1199	1	Ⴕ	cut_n.wav
4	198	3	4	2	I	1	0	961	0	Ⴐ	cut_ei.wav
4	199	2	1	0	C	1	1	956	1	Ⴏ	cut_n.wav
4	200	4	4	2	I	1	0	1347	0	Ⴌ	cut_ei.wav
