block	trial	Vstim	Astim	match	C/I	resp	result	RT	fb	V-file	A-file
RL

0	1	1	1	1	C	2	0	1065	0	poli_8sides 21_whiteLine3.jpg	Practice2_b27_cut2_mono_resampled.wav
0	2	2	4	0	C	2	1	845	1	poli_8sides 22_whiteLine3.jpg	Practice1_b27_cut1_mono_resampled.wav
0	3	2	3	1	C	1	1	741	1	poli_8sides 22_whiteLine3.jpg	Practice3_b26_cut1_mono_resampled.wav
0	4	1	2	0	C	2	1	1266	1	poli_8sides 21_whiteLine3.jpg	Practice4_b26_mono_resampled.wav
0	5	2	3	1	C	1	1	989	1	poli_8sides 22_whiteLine3.jpg	Practice3_b26_cut1_mono_resampled.wav
0	6	1	1	1	C	2	0	492	0	poli_8sides 21_whiteLine3.jpg	Practice2_b27_cut2_mono_resampled.wav
0	7	2	4	0	C	2	1	754	1	poli_8sides 22_whiteLine3.jpg	Practice1_b27_cut1_mono_resampled.wav
0	8	1	2	0	C	1	0	758	0	poli_8sides 21_whiteLine3.jpg	Practice4_b26_mono_resampled.wav
0	9	1	1	1	C	2	0	320	0	poli_8sides 21_whiteLine3.jpg	Practice2_b27_cut2_mono_resampled.wav
0	10	2	4	0	C	2	1	373	1	poli_8sides 22_whiteLine3.jpg	Practice1_b27_cut1_mono_resampled.wav
0	11	1	2	0	C	2	1	329	1	poli_8sides 21_whiteLine3.jpg	Practice4_b26_mono_resampled.wav
0	12	2	3	1	C	2	0	801	0	poli_8sides 22_whiteLine3.jpg	Practice3_b26_cut1_mono_resampled.wav
0	13	1	1	1	C	1	1	718	1	poli_8sides 21_whiteLine3.jpg	Practice2_b27_cut2_mono_resampled.wav
0	14	2	4	0	C	2	1	750	1	poli_8sides 22_whiteLine3.jpg	Practice1_b27_cut1_mono_resampled.wav
0	15	2	3	1	C	1	1	796	1	poli_8sides 22_whiteLine3.jpg	Practice3_b26_cut1_mono_resampled.wav
0	16	1	2	0	C	2	1	1498	1	poli_8sides 21_whiteLine3.jpg	Practice4_b26_mono_resampled.wav
0	17	1	2	0	C	2	1	719	1	poli_8sides 21_whiteLine3.jpg	Practice4_b26_mono_resampled.wav
0	18	2	4	0	C	1	0	870	0	poli_8sides 22_whiteLine3.jpg	Practice1_b27_cut1_mono_resampled.wav
0	19	1	1	1	C	2	0	610	0	poli_8sides 21_whiteLine3.jpg	Practice2_b27_cut2_mono_resampled.wav
0	20	2	3	1	C	2	0	559	0	poli_8sides 22_whiteLine3.jpg	Practice3_b26_cut1_mono_resampled.wav
0	21	1	2	0	C	2	1	1167	1	poli_8sides 21_whiteLine3.jpg	Practice4_b26_mono_resampled.wav
0	22	2	3	1	C	1	1	1032	1	poli_8sides 22_whiteLine3.jpg	Practice3_b26_cut1_mono_resampled.wav
0	23	2	4	0	C	2	1	1304	1	poli_8sides 22_whiteLine3.jpg	Practice1_b27_cut1_mono_resampled.wav
0	24	1	1	1	C	1	1	1443	1	poli_8sides 21_whiteLine3.jpg	Practice2_b27_cut2_mono_resampled.wav
0	25	1	1	1	C	1	1	1295	1	poli_8sides 21_whiteLine3.jpg	Practice2_b27_cut2_mono_resampled.wav
0	26	2	4	0	C	2	1	1015	1	poli_8sides 22_whiteLine3.jpg	Practice1_b27_cut1_mono_resampled.wav
0	27	1	2	0	C	2	1	1237	1	poli_8sides 21_whiteLine3.jpg	Practice4_b26_mono_resampled.wav
0	28	2	3	1	C	1	1	1486	1	poli_8sides 22_whiteLine3.jpg	Practice3_b26_cut1_mono_resampled.wav
0	29	1	1	1	C	1	1	1893	1	poli_8sides 21_whiteLine3.jpg	Practice2_b27_cut2_mono_resampled.wav
0	30	2	3	1	C	2	0	1815	0	poli_8sides 22_whiteLine3.jpg	Practice3_b26_cut1_mono_resampled.wav
avg_resp = 1031
1	1	4	3	2	I	2	0	1409	1	poli_8sides 20_whiteLine3.jpg	Long_b01_cut2_L_mono_resampled.wav
1	2	3	3	2	I	1	0	1137	1	poli_8sides 10_whiteLine3.jpg	Long_b01_cut2_L_mono_resampled.wav
1	3	2	1	0	C	2	1	1738	1	poli_8sides 11_whiteLine3.jpg	Long_e24_cut1_mono_resampled.wav
1	4	1	1	1	C	1	1	1273	1	poli_8sides 3_whiteLine3.jpg	Long_e24_cut1_mono_resampled.wav
1	5	2	2	1	C	2	0	1402	0	poli_8sides 11_whiteLine3.jpg	Long_s10_cut2_l_mono_resampled.wav
1	6	1	2	0	C	2	1	1400	1	poli_8sides 3_whiteLine3.jpg	Long_s10_cut2_l_mono_resampled.wav
1	7	4	4	2	I	1	0	941	1	poli_8sides 20_whiteLine3.jpg	Long_e17_cut2_mono_resampled.wav
1	8	3	4	2	I	2	0	1366	1	poli_8sides 10_whiteLine3.jpg	Long_e17_cut2_mono_resampled.wav
1	9	4	4	2	I	1	0	1075	0	poli_8sides 20_whiteLine3.jpg	Long_e17_cut2_mono_resampled.wav
1	10	2	2	1	C	2	0	1223	0	poli_8sides 11_whiteLine3.jpg	Long_s10_cut2_l_mono_resampled.wav
1	11	3	4	2	I	1	0	1484	0	poli_8sides 10_whiteLine3.jpg	Long_e17_cut2_mono_resampled.wav
1	12	1	2	0	C	1	0	1829	0	poli_8sides 3_whiteLine3.jpg	Long_s10_cut2_l_mono_resampled.wav
1	13	4	3	2	I	2	0	922	1	poli_8sides 20_whiteLine3.jpg	Long_b01_cut2_L_mono_resampled.wav
1	14	1	1	1	C	1	1	1301	1	poli_8sides 3_whiteLine3.jpg	Long_e24_cut1_mono_resampled.wav
1	15	3	3	2	I	1	0	1013	1	poli_8sides 10_whiteLine3.jpg	Long_b01_cut2_L_mono_resampled.wav
1	16	2	1	0	C	2	1	1626	1	poli_8sides 11_whiteLine3.jpg	Long_e24_cut1_mono_resampled.wav
1	17	4	4	2	I	1	0	994	0	poli_8sides 20_whiteLine3.jpg	Long_e17_cut2_mono_resampled.wav
1	18	2	1	0	C	2	1	864	1	poli_8sides 11_whiteLine3.jpg	Long_e24_cut1_mono_resampled.wav
1	19	1	1	1	C	1	1	803	1	poli_8sides 3_whiteLine3.jpg	Long_e24_cut1_mono_resampled.wav
1	20	3	3	2	I	1	0	1946	0	poli_8sides 10_whiteLine3.jpg	Long_b01_cut2_L_mono_resampled.wav
1	21	4	3	2	I	2	0	1400	0	poli_8sides 20_whiteLine3.jpg	Long_b01_cut2_L_mono_resampled.wav
1	22	2	2	1	C	1	1	1472	1	poli_8sides 11_whiteLine3.jpg	Long_s10_cut2_l_mono_resampled.wav
1	23	3	4	2	I	1	0	996	0	poli_8sides 10_whiteLine3.jpg	Long_e17_cut2_mono_resampled.wav
1	24	1	2	0	C	2	1	1775	1	poli_8sides 3_whiteLine3.jpg	Long_s10_cut2_l_mono_resampled.wav
1	25	4	4	2	I	2	0	1103	0	poli_8sides 20_whiteLine3.jpg	Long_e17_cut2_mono_resampled.wav
1	26	1	1	1	C	2	0	745	0	poli_8sides 3_whiteLine3.jpg	Long_e24_cut1_mono_resampled.wav
1	27	3	4	2	I	2	0	980	1	poli_8sides 10_whiteLine3.jpg	Long_e17_cut2_mono_resampled.wav
1	28	2	1	0	C	2	1	911	1	poli_8sides 11_whiteLine3.jpg	Long_e24_cut1_mono_resampled.wav
1	29	4	3	2	I	2	0	1082	1	poli_8sides 20_whiteLine3.jpg	Long_b01_cut2_L_mono_resampled.wav
1	30	3	3	2	I	1	0	952	1	poli_8sides 10_whiteLine3.jpg	Long_b01_cut2_L_mono_resampled.wav
1	31	2	2	1	C	1	1	957	1	poli_8sides 11_whiteLine3.jpg	Long_s10_cut2_l_mono_resampled.wav
1	32	1	2	0	C	1	0	1456	0	poli_8sides 3_whiteLine3.jpg	Long_s10_cut2_l_mono_resampled.wav
1	33	3	4	2	I	2	0	924	1	poli_8sides 10_whiteLine3.jpg	Long_e17_cut2_mono_resampled.wav
1	34	1	1	1	C	2	0	1629	0	poli_8sides 3_whiteLine3.jpg	Long_e24_cut1_mono_resampled.wav
1	35	2	1	0	C	2	1	639	1	poli_8sides 11_whiteLine3.jpg	Long_e24_cut1_mono_resampled.wav
1	36	4	4	2	I	1	0	1210	0	poli_8sides 20_whiteLine3.jpg	Long_e17_cut2_mono_resampled.wav
1	37	3	3	2	I	1	0	1550	0	poli_8sides 10_whiteLine3.jpg	Long_b01_cut2_L_mono_resampled.wav
1	38	1	2	0	C	2	1	954	1	poli_8sides 3_whiteLine3.jpg	Long_s10_cut2_l_mono_resampled.wav
1	39	2	2	1	C	2	0	1671	0	poli_8sides 11_whiteLine3.jpg	Long_s10_cut2_l_mono_resampled.wav
1	40	4	3	2	I	2	0	1129	1	poli_8sides 20_whiteLine3.jpg	Long_b01_cut2_L_mono_resampled.wav
1	41	3	4	2	I	2	0	1639	0	poli_8sides 10_whiteLine3.jpg	Long_e17_cut2_mono_resampled.wav
1	42	2	1	0	C	2	1	1075	1	poli_8sides 11_whiteLine3.jpg	Long_e24_cut1_mono_resampled.wav
1	43	1	1	1	C	1	1	1584	1	poli_8sides 3_whiteLine3.jpg	Long_e24_cut1_mono_resampled.wav
1	44	4	4	2	I	1	0	1325	1	poli_8sides 20_whiteLine3.jpg	Long_e17_cut2_mono_resampled.wav
1	45	2	2	1	C	2	0	1240	0	poli_8sides 11_whiteLine3.jpg	Long_s10_cut2_l_mono_resampled.wav
1	46	3	3	2	I	2	0	1865	1	poli_8sides 10_whiteLine3.jpg	Long_b01_cut2_L_mono_resampled.wav
1	47	1	2	0	C	2	1	1704	1	poli_8sides 3_whiteLine3.jpg	Long_s10_cut2_l_mono_resampled.wav
1	48	4	3	2	I	2	0	1823	1	poli_8sides 20_whiteLine3.jpg	Long_b01_cut2_L_mono_resampled.wav
1	49	2	1	0	C	2	1	1390	1	poli_8sides 11_whiteLine3.jpg	Long_e24_cut1_mono_resampled.wav
1	50	4	3	2	I	2	0	1828	1	poli_8sides 20_whiteLine3.jpg	Long_b01_cut2_L_mono_resampled.wav
1	51	1	2	0	C	2	1	1093	1	poli_8sides 3_whiteLine3.jpg	Long_s10_cut2_l_mono_resampled.wav
1	52	3	4	2	I	1	0	1682	1	poli_8sides 10_whiteLine3.jpg	Long_e17_cut2_mono_resampled.wav
1	53	2	2	1	C	0	0	0	0	poli_8sides 11_whiteLine3.jpg	Long_s10_cut2_l_mono_resampled.wav
1	54	1	1	1	C	2	0	862	0	poli_8sides 3_whiteLine3.jpg	Long_e24_cut1_mono_resampled.wav
1	55	4	4	2	I	1	0	1602	1	poli_8sides 20_whiteLine3.jpg	Long_e17_cut2_mono_resampled.wav
1	56	3	3	2	I	2	0	1945	0	poli_8sides 10_whiteLine3.jpg	Long_b01_cut2_L_mono_resampled.wav
1	57	2	1	0	C	2	1	1043	1	poli_8sides 11_whiteLine3.jpg	Long_e24_cut1_mono_resampled.wav
1	58	4	3	2	I	2	0	1346	1	poli_8sides 20_whiteLine3.jpg	Long_b01_cut2_L_mono_resampled.wav
1	59	3	3	2	I	1	0	938	1	poli_8sides 10_whiteLine3.jpg	Long_b01_cut2_L_mono_resampled.wav
1	60	1	1	1	C	2	0	1226	0	poli_8sides 3_whiteLine3.jpg	Long_e24_cut1_mono_resampled.wav
1	61	4	4	2	I	1	0	1067	1	poli_8sides 20_whiteLine3.jpg	Long_e17_cut2_mono_resampled.wav
1	62	2	2	1	C	0	0	0	0	poli_8sides 11_whiteLine3.jpg	Long_s10_cut2_l_mono_resampled.wav
1	63	3	4	2	I	2	0	1638	1	poli_8sides 10_whiteLine3.jpg	Long_e17_cut2_mono_resampled.wav
1	64	1	2	0	C	2	1	1131	1	poli_8sides 3_whiteLine3.jpg	Long_s10_cut2_l_mono_resampled.wav
1	65	2	2	1	C	1	1	882	1	poli_8sides 11_whiteLine3.jpg	Long_s10_cut2_l_mono_resampled.wav
1	66	3	4	2	I	2	0	1436	0	poli_8sides 10_whiteLine3.jpg	Long_e17_cut2_mono_resampled.wav
1	67	1	1	1	C	2	0	1848	0	poli_8sides 3_whiteLine3.jpg	Long_e24_cut1_mono_resampled.wav
1	68	4	4	2	I	1	0	1255	1	poli_8sides 20_whiteLine3.jpg	Long_e17_cut2_mono_resampled.wav
1	69	2	1	0	C	2	1	902	1	poli_8sides 11_whiteLine3.jpg	Long_e24_cut1_mono_resampled.wav
1	70	4	3	2	I	1	0	879	1	poli_8sides 20_whiteLine3.jpg	Long_b01_cut2_L_mono_resampled.wav
1	71	3	3	2	I	1	0	1705	1	poli_8sides 10_whiteLine3.jpg	Long_b01_cut2_L_mono_resampled.wav
1	72	1	2	0	C	2	1	1021	1	poli_8sides 3_whiteLine3.jpg	Long_s10_cut2_l_mono_resampled.wav
1	73	3	4	2	I	2	0	1274	0	poli_8sides 10_whiteLine3.jpg	Long_e17_cut2_mono_resampled.wav
1	74	4	3	2	I	1	0	1208	1	poli_8sides 20_whiteLine3.jpg	Long_b01_cut2_L_mono_resampled.wav
1	75	2	1	0	C	2	1	1416	1	poli_8sides 11_whiteLine3.jpg	Long_e24_cut1_mono_resampled.wav
1	76	1	1	1	C	1	1	941	1	poli_8sides 3_whiteLine3.jpg	Long_e24_cut1_mono_resampled.wav
1	77	4	4	2	I	1	0	1087	1	poli_8sides 20_whiteLine3.jpg	Long_e17_cut2_mono_resampled.wav
1	78	3	3	2	I	1	0	1378	0	poli_8sides 10_whiteLine3.jpg	Long_b01_cut2_L_mono_resampled.wav
1	79	2	2	1	C	2	0	1598	0	poli_8sides 11_whiteLine3.jpg	Long_s10_cut2_l_mono_resampled.wav
1	80	1	2	0	C	2	1	566	1	poli_8sides 3_whiteLine3.jpg	Long_s10_cut2_l_mono_resampled.wav
1	81	4	4	2	I	1	0	982	0	poli_8sides 20_whiteLine3.jpg	Long_e17_cut2_mono_resampled.wav
1	82	3	3	2	I	1	0	1179	1	poli_8sides 10_whiteLine3.jpg	Long_b01_cut2_L_mono_resampled.wav
1	83	1	1	1	C	2	0	1070	0	poli_8sides 3_whiteLine3.jpg	Long_e24_cut1_mono_resampled.wav
1	84	2	2	1	C	2	0	1697	0	poli_8sides 11_whiteLine3.jpg	Long_s10_cut2_l_mono_resampled.wav
1	85	4	3	2	I	2	0	1085	0	poli_8sides 20_whiteLine3.jpg	Long_b01_cut2_L_mono_resampled.wav
1	86	3	4	2	I	2	0	1366	0	poli_8sides 10_whiteLine3.jpg	Long_e17_cut2_mono_resampled.wav
1	87	1	2	0	C	2	1	1416	1	poli_8sides 3_whiteLine3.jpg	Long_s10_cut2_l_mono_resampled.wav
1	88	2	1	0	C	2	1	955	1	poli_8sides 11_whiteLine3.jpg	Long_e24_cut1_mono_resampled.wav
1	89	3	4	2	I	2	0	1293	0	poli_8sides 10_whiteLine3.jpg	Long_e17_cut2_mono_resampled.wav
1	90	1	1	1	C	1	1	1896	1	poli_8sides 3_whiteLine3.jpg	Long_e24_cut1_mono_resampled.wav
1	91	2	1	0	C	2	1	1170	1	poli_8sides 11_whiteLine3.jpg	Long_e24_cut1_mono_resampled.wav
1	92	4	3	2	I	2	0	1104	1	poli_8sides 20_whiteLine3.jpg	Long_b01_cut2_L_mono_resampled.wav
1	93	2	2	1	C	1	1	1548	1	poli_8sides 11_whiteLine3.jpg	Long_s10_cut2_l_mono_resampled.wav
1	94	1	2	0	C	2	1	773	1	poli_8sides 3_whiteLine3.jpg	Long_s10_cut2_l_mono_resampled.wav
1	95	3	3	2	I	1	0	1240	1	poli_8sides 10_whiteLine3.jpg	Long_b01_cut2_L_mono_resampled.wav
1	96	4	4	2	I	1	0	1293	0	poli_8sides 20_whiteLine3.jpg	Long_e17_cut2_mono_resampled.wav
1	97	2	2	1	C	1	1	1573	1	poli_8sides 11_whiteLine3.jpg	Long_s10_cut2_l_mono_resampled.wav
1	98	3	3	2	I	2	0	919	0	poli_8sides 10_whiteLine3.jpg	Long_b01_cut2_L_mono_resampled.wav
1	99	4	4	2	I	2	0	1177	1	poli_8sides 20_whiteLine3.jpg	Long_e17_cut2_mono_resampled.wav
1	100	1	2	0	C	2	1	853	1	poli_8sides 3_whiteLine3.jpg	Long_s10_cut2_l_mono_resampled.wav
1	101	2	1	0	C	2	1	884	1	poli_8sides 11_whiteLine3.jpg	Long_e24_cut1_mono_resampled.wav
1	102	3	4	2	I	2	0	1188	0	poli_8sides 10_whiteLine3.jpg	Long_e17_cut2_mono_resampled.wav
1	103	4	3	2	I	2	0	855	1	poli_8sides 20_whiteLine3.jpg	Long_b01_cut2_L_mono_resampled.wav
1	104	1	1	1	C	1	1	1382	1	poli_8sides 3_whiteLine3.jpg	Long_e24_cut1_mono_resampled.wav
1	105	4	4	2	I	1	0	1066	1	poli_8sides 20_whiteLine3.jpg	Long_e17_cut2_mono_resampled.wav
1	106	1	1	1	C	1	1	1183	1	poli_8sides 3_whiteLine3.jpg	Long_e24_cut1_mono_resampled.wav
1	107	3	4	2	I	2	0	1034	1	poli_8sides 10_whiteLine3.jpg	Long_e17_cut2_mono_resampled.wav
1	108	2	1	0	C	2	1	1439	1	poli_8sides 11_whiteLine3.jpg	Long_e24_cut1_mono_resampled.wav
1	109	4	3	2	I	2	0	957	0	poli_8sides 20_whiteLine3.jpg	Long_b01_cut2_L_mono_resampled.wav
1	110	3	3	2	I	1	0	1625	0	poli_8sides 10_whiteLine3.jpg	Long_b01_cut2_L_mono_resampled.wav
1	111	2	2	1	C	1	1	1319	1	poli_8sides 11_whiteLine3.jpg	Long_s10_cut2_l_mono_resampled.wav
1	112	1	2	0	C	2	1	729	1	poli_8sides 3_whiteLine3.jpg	Long_s10_cut2_l_mono_resampled.wav
1	113	4	3	2	I	2	0	994	0	poli_8sides 20_whiteLine3.jpg	Long_b01_cut2_L_mono_resampled.wav
1	114	2	1	0	C	2	1	1018	1	poli_8sides 11_whiteLine3.jpg	Long_e24_cut1_mono_resampled.wav
1	115	3	4	2	I	2	0	941	1	poli_8sides 10_whiteLine3.jpg	Long_e17_cut2_mono_resampled.wav
1	116	1	1	1	C	1	1	1404	1	poli_8sides 3_whiteLine3.jpg	Long_e24_cut1_mono_resampled.wav
1	117	4	4	2	I	1	0	1109	0	poli_8sides 20_whiteLine3.jpg	Long_e17_cut2_mono_resampled.wav
1	118	3	3	2	I	2	0	1223	0	poli_8sides 10_whiteLine3.jpg	Long_b01_cut2_L_mono_resampled.wav
1	119	2	2	1	C	1	1	1235	1	poli_8sides 11_whiteLine3.jpg	Long_s10_cut2_l_mono_resampled.wav
1	120	1	2	0	C	2	1	493	1	poli_8sides 3_whiteLine3.jpg	Long_s10_cut2_l_mono_resampled.wav
1	121	4	4	2	I	1	0	1089	1	poli_8sides 20_whiteLine3.jpg	Long_e17_cut2_mono_resampled.wav
1	122	3	4	2	I	2	0	1108	1	poli_8sides 10_whiteLine3.jpg	Long_e17_cut2_mono_resampled.wav
1	123	1	1	1	C	1	1	1137	1	poli_8sides 3_whiteLine3.jpg	Long_e24_cut1_mono_resampled.wav
1	124	2	2	1	C	1	1	1082	1	poli_8sides 11_whiteLine3.jpg	Long_s10_cut2_l_mono_resampled.wav
1	125	4	3	2	I	2	0	1122	0	poli_8sides 20_whiteLine3.jpg	Long_b01_cut2_L_mono_resampled.wav
1	126	3	3	2	I	2	0	1429	0	poli_8sides 10_whiteLine3.jpg	Long_b01_cut2_L_mono_resampled.wav
1	127	2	1	0	C	1	0	1403	0	poli_8sides 11_whiteLine3.jpg	Long_e24_cut1_mono_resampled.wav
1	128	1	2	0	C	2	1	617	1	poli_8sides 3_whiteLine3.jpg	Long_s10_cut2_l_mono_resampled.wav
1	129	3	3	2	I	1	0	1361	1	poli_8sides 10_whiteLine3.jpg	Long_b01_cut2_L_mono_resampled.wav
1	130	1	2	0	C	2	1	693	1	poli_8sides 3_whiteLine3.jpg	Long_s10_cut2_l_mono_resampled.wav
1	131	4	4	2	I	1	0	1038	0	poli_8sides 20_whiteLine3.jpg	Long_e17_cut2_mono_resampled.wav
1	132	2	1	0	C	2	1	959	1	poli_8sides 11_whiteLine3.jpg	Long_e24_cut1_mono_resampled.wav
1	133	3	4	2	I	2	0	1091	0	poli_8sides 10_whiteLine3.jpg	Long_e17_cut2_mono_resampled.wav
1	134	1	1	1	C	1	1	1003	1	poli_8sides 3_whiteLine3.jpg	Long_e24_cut1_mono_resampled.wav
1	135	4	3	2	I	2	0	923	1	poli_8sides 20_whiteLine3.jpg	Long_b01_cut2_L_mono_resampled.wav
1	136	2	2	1	C	1	1	1293	1	poli_8sides 11_whiteLine3.jpg	Long_s10_cut2_l_mono_resampled.wav
1	137	3	3	2	I	1	0	1176	1	poli_8sides 10_whiteLine3.jpg	Long_b01_cut2_L_mono_resampled.wav
1	138	2	2	1	C	1	1	1111	1	poli_8sides 11_whiteLine3.jpg	Long_s10_cut2_l_mono_resampled.wav
1	139	1	1	1	C	1	1	842	1	poli_8sides 3_whiteLine3.jpg	Long_e24_cut1_mono_resampled.wav
1	140	4	4	2	I	1	0	1200	1	poli_8sides 20_whiteLine3.jpg	Long_e17_cut2_mono_resampled.wav
1	141	1	2	0	C	2	1	768	1	poli_8sides 3_whiteLine3.jpg	Long_s10_cut2_l_mono_resampled.wav
1	142	2	1	0	C	2	1	847	1	poli_8sides 11_whiteLine3.jpg	Long_e24_cut1_mono_resampled.wav
1	143	4	3	2	I	2	0	849	0	poli_8sides 20_whiteLine3.jpg	Long_b01_cut2_L_mono_resampled.wav
1	144	3	4	2	I	2	0	1294	0	poli_8sides 10_whiteLine3.jpg	Long_e17_cut2_mono_resampled.wav
1	145	4	3	2	I	2	0	831	0	poli_8sides 20_whiteLine3.jpg	Long_b01_cut2_L_mono_resampled.wav
1	146	3	4	2	I	2	0	952	1	poli_8sides 10_whiteLine3.jpg	Long_e17_cut2_mono_resampled.wav
1	147	1	1	1	C	1	1	1143	1	poli_8sides 3_whiteLine3.jpg	Long_e24_cut1_mono_resampled.wav
1	148	2	1	0	C	2	1	1719	1	poli_8sides 11_whiteLine3.jpg	Long_e24_cut1_mono_resampled.wav
1	149	3	3	2	I	1	0	1085	1	poli_8sides 10_whiteLine3.jpg	Long_b01_cut2_L_mono_resampled.wav
1	150	2	2	1	C	1	1	1173	1	poli_8sides 11_whiteLine3.jpg	Long_s10_cut2_l_mono_resampled.wav
1	151	1	2	0	C	2	1	856	1	poli_8sides 3_whiteLine3.jpg	Long_s10_cut2_l_mono_resampled.wav
1	152	4	4	2	I	1	0	974	1	poli_8sides 20_whiteLine3.jpg	Long_e17_cut2_mono_resampled.wav
1	153	1	1	1	C	1	1	889	1	poli_8sides 3_whiteLine3.jpg	Long_e24_cut1_mono_resampled.wav
1	154	4	4	2	I	1	0	1150	1	poli_8sides 20_whiteLine3.jpg	Long_e17_cut2_mono_resampled.wav
1	155	3	4	2	I	2	0	876	0	poli_8sides 10_whiteLine3.jpg	Long_e17_cut2_mono_resampled.wav
1	156	2	2	1	C	1	1	1320	1	poli_8sides 11_whiteLine3.jpg	Long_s10_cut2_l_mono_resampled.wav
1	157	4	3	2	I	2	0	900	0	poli_8sides 20_whiteLine3.jpg	Long_b01_cut2_L_mono_resampled.wav
1	158	2	1	0	C	2	1	1115	1	poli_8sides 11_whiteLine3.jpg	Long_e24_cut1_mono_resampled.wav
1	159	3	3	2	I	1	0	1361	0	poli_8sides 10_whiteLine3.jpg	Long_b01_cut2_L_mono_resampled.wav
1	160	1	2	0	C	2	1	676	1	poli_8sides 3_whiteLine3.jpg	Long_s10_cut2_l_mono_resampled.wav
1	161	2	1	0	C	2	1	951	1	poli_8sides 11_whiteLine3.jpg	Long_e24_cut1_mono_resampled.wav
1	162	4	4	2	I	1	0	1276	0	poli_8sides 20_whiteLine3.jpg	Long_e17_cut2_mono_resampled.wav
1	163	1	1	1	C	1	1	1332	1	poli_8sides 3_whiteLine3.jpg	Long_e24_cut1_mono_resampled.wav
1	164	3	3	2	I	1	0	1270	1	poli_8sides 10_whiteLine3.jpg	Long_b01_cut2_L_mono_resampled.wav
1	165	1	2	0	C	2	1	661	1	poli_8sides 3_whiteLine3.jpg	Long_s10_cut2_l_mono_resampled.wav
1	166	2	2	1	C	1	1	1688	1	poli_8sides 11_whiteLine3.jpg	Long_s10_cut2_l_mono_resampled.wav
1	167	4	3	2	I	2	0	791	0	poli_8sides 20_whiteLine3.jpg	Long_b01_cut2_L_mono_resampled.wav
1	168	3	4	2	I	2	0	867	1	poli_8sides 10_whiteLine3.jpg	Long_e17_cut2_mono_resampled.wav
1	169	1	1	1	C	1	1	1093	1	poli_8sides 3_whiteLine3.jpg	Long_e24_cut1_mono_resampled.wav
1	170	4	4	2	I	1	0	1202	0	poli_8sides 20_whiteLine3.jpg	Long_e17_cut2_mono_resampled.wav
1	171	2	2	1	C	1	1	1205	1	poli_8sides 11_whiteLine3.jpg	Long_s10_cut2_l_mono_resampled.wav
1	172	3	3	2	I	1	0	1447	0	poli_8sides 10_whiteLine3.jpg	Long_b01_cut2_L_mono_resampled.wav
1	173	2	1	0	C	2	1	1493	1	poli_8sides 11_whiteLine3.jpg	Long_e24_cut1_mono_resampled.wav
1	174	4	3	2	I	2	0	837	0	poli_8sides 20_whiteLine3.jpg	Long_b01_cut2_L_mono_resampled.wav
1	175	1	2	0	C	2	1	814	1	poli_8sides 3_whiteLine3.jpg	Long_s10_cut2_l_mono_resampled.wav
1	176	3	4	2	I	2	0	1336	1	poli_8sides 10_whiteLine3.jpg	Long_e17_cut2_mono_resampled.wav
1	177	1	1	1	C	1	1	908	1	poli_8sides 3_whiteLine3.jpg	Long_e24_cut1_mono_resampled.wav
1	178	4	4	2	I	2	0	1348	0	poli_8sides 20_whiteLine3.jpg	Long_e17_cut2_mono_resampled.wav
1	179	2	2	1	C	1	1	1036	1	poli_8sides 11_whiteLine3.jpg	Long_s10_cut2_l_mono_resampled.wav
1	180	3	3	2	I	1	0	1310	0	poli_8sides 10_whiteLine3.jpg	Long_b01_cut2_L_mono_resampled.wav
1	181	4	3	2	I	2	0	768	0	poli_8sides 20_whiteLine3.jpg	Long_b01_cut2_L_mono_resampled.wav
1	182	1	2	0	C	2	1	825	1	poli_8sides 3_whiteLine3.jpg	Long_s10_cut2_l_mono_resampled.wav
1	183	3	4	2	I	2	0	1314	0	poli_8sides 10_whiteLine3.jpg	Long_e17_cut2_mono_resampled.wav
1	184	2	1	0	C	2	1	1033	1	poli_8sides 11_whiteLine3.jpg	Long_e24_cut1_mono_resampled.wav
1	185	1	1	1	C	1	1	1038	1	poli_8sides 3_whiteLine3.jpg	Long_e24_cut1_mono_resampled.wav
1	186	3	3	2	I	1	0	1115	0	poli_8sides 10_whiteLine3.jpg	Long_b01_cut2_L_mono_resampled.wav
1	187	4	3	2	I	2	0	1057	0	poli_8sides 20_whiteLine3.jpg	Long_b01_cut2_L_mono_resampled.wav
1	188	2	2	1	C	1	1	1204	1	poli_8sides 11_whiteLine3.jpg	Long_s10_cut2_l_mono_resampled.wav
1	189	3	4	2	I	2	0	1106	1	poli_8sides 10_whiteLine3.jpg	Long_e17_cut2_mono_resampled.wav
1	190	1	2	0	C	2	1	1325	1	poli_8sides 3_whiteLine3.jpg	Long_s10_cut2_l_mono_resampled.wav
1	191	4	4	2	I	1	0	987	0	poli_8sides 20_whiteLine3.jpg	Long_e17_cut2_mono_resampled.wav
1	192	2	1	0	C	2	1	1035	1	poli_8sides 11_whiteLine3.jpg	Long_e24_cut1_mono_resampled.wav
1	193	3	3	2	I	1	0	1380	1	poli_8sides 10_whiteLine3.jpg	Long_b01_cut2_L_mono_resampled.wav
1	194	2	2	1	C	1	1	1244	1	poli_8sides 11_whiteLine3.jpg	Long_s10_cut2_l_mono_resampled.wav
1	195	4	3	2	I	2	0	1059	1	poli_8sides 20_whiteLine3.jpg	Long_b01_cut2_L_mono_resampled.wav
1	196	1	2	0	C	2	1	990	1	poli_8sides 3_whiteLine3.jpg	Long_s10_cut2_l_mono_resampled.wav
1	197	3	4	2	I	2	0	1937	0	poli_8sides 10_whiteLine3.jpg	Long_e17_cut2_mono_resampled.wav
1	198	1	1	1	C	1	1	941	1	poli_8sides 3_whiteLine3.jpg	Long_e24_cut1_mono_resampled.wav
1	199	2	1	0	C	2	1	1185	1	poli_8sides 11_whiteLine3.jpg	Long_e24_cut1_mono_resampled.wav
1	200	4	4	2	I	1	0	1129	0	poli_8sides 20_whiteLine3.jpg	Long_e17_cut2_mono_resampled.wav
2	1	3	4	2	I	2	0	1307	1	poli_8sides 1_whiteLine3.jpg	Short_b23_cut1_mono_resampled.wav
2	2	4	3	2	I	2	0	1119	1	poli_8sides 15_whiteLine3.jpg	Short_b22_cut1_mono_resampled.wav
2	3	1	2	0	C	2	1	1603	1	poli_8sides 18_whiteLine3.jpg	Short_b09_cut1_mono_resampled.wav
2	4	2	2	1	C	1	1	929	1	poli_8sides 7_whiteLine3.jpg	Short_b09_cut1_mono_resampled.wav
2	5	1	1	1	C	1	1	1422	1	poli_8sides 18_whiteLine3.jpg	Short_b20_cut1_mono_resampled.wav
2	6	2	1	0	C	2	1	938	1	poli_8sides 7_whiteLine3.jpg	Short_b20_cut1_mono_resampled.wav
2	7	3	3	2	I	2	0	1145	0	poli_8sides 1_whiteLine3.jpg	Short_b22_cut1_mono_resampled.wav
2	8	4	4	2	I	2	0	1303	1	poli_8sides 15_whiteLine3.jpg	Short_b23_cut1_mono_resampled.wav
2	9	1	2	0	C	2	1	1386	1	poli_8sides 18_whiteLine3.jpg	Short_b09_cut1_mono_resampled.wav
2	10	4	4	2	I	1	0	1434	1	poli_8sides 15_whiteLine3.jpg	Short_b23_cut1_mono_resampled.wav
2	11	3	4	2	I	2	0	1244	1	poli_8sides 1_whiteLine3.jpg	Short_b23_cut1_mono_resampled.wav
2	12	2	1	0	C	2	1	1228	1	poli_8sides 7_whiteLine3.jpg	Short_b20_cut1_mono_resampled.wav
2	13	4	3	2	I	1	0	1315	1	poli_8sides 15_whiteLine3.jpg	Short_b22_cut1_mono_resampled.wav
2	14	3	3	2	I	2	0	1122	0	poli_8sides 1_whiteLine3.jpg	Short_b22_cut1_mono_resampled.wav
2	15	1	1	1	C	2	0	850	0	poli_8sides 18_whiteLine3.jpg	Short_b20_cut1_mono_resampled.wav
2	16	2	2	1	C	2	0	798	0	poli_8sides 7_whiteLine3.jpg	Short_b09_cut1_mono_resampled.wav
2	17	1	2	0	C	2	1	1105	1	poli_8sides 18_whiteLine3.jpg	Short_b09_cut1_mono_resampled.wav
2	18	3	4	2	I	2	0	1075	0	poli_8sides 1_whiteLine3.jpg	Short_b23_cut1_mono_resampled.wav
2	19	4	3	2	I	2	0	1066	1	poli_8sides 15_whiteLine3.jpg	Short_b22_cut1_mono_resampled.wav
2	20	2	2	1	C	2	0	1337	0	poli_8sides 7_whiteLine3.jpg	Short_b09_cut1_mono_resampled.wav
2	21	3	3	2	I	2	0	1568	0	poli_8sides 1_whiteLine3.jpg	Short_b22_cut1_mono_resampled.wav
2	22	4	4	2	I	2	0	1036	0	poli_8sides 15_whiteLine3.jpg	Short_b23_cut1_mono_resampled.wav
2	23	2	1	0	C	2	1	859	1	poli_8sides 7_whiteLine3.jpg	Short_b20_cut1_mono_resampled.wav
2	24	1	1	1	C	2	0	1244	0	poli_8sides 18_whiteLine3.jpg	Short_b20_cut1_mono_resampled.wav
2	25	3	4	2	I	2	0	1454	0	poli_8sides 1_whiteLine3.jpg	Short_b23_cut1_mono_resampled.wav
2	26	2	2	1	C	2	0	1081	0	poli_8sides 7_whiteLine3.jpg	Short_b09_cut1_mono_resampled.wav
2	27	4	3	2	I	2	0	1367	1	poli_8sides 15_whiteLine3.jpg	Short_b22_cut1_mono_resampled.wav
2	28	1	2	0	C	2	1	923	1	poli_8sides 18_whiteLine3.jpg	Short_b09_cut1_mono_resampled.wav
2	29	4	4	2	I	1	0	1638	0	poli_8sides 15_whiteLine3.jpg	Short_b23_cut1_mono_resampled.wav
2	30	1	1	1	C	2	0	1061	0	poli_8sides 18_whiteLine3.jpg	Short_b20_cut1_mono_resampled.wav
2	31	2	1	0	C	2	1	1030	1	poli_8sides 7_whiteLine3.jpg	Short_b20_cut1_mono_resampled.wav
2	32	3	3	2	I	2	0	1640	1	poli_8sides 1_whiteLine3.jpg	Short_b22_cut1_mono_resampled.wav
2	33	4	4	2	I	1	0	1114	1	poli_8sides 15_whiteLine3.jpg	Short_b23_cut1_mono_resampled.wav
2	34	2	2	1	C	2	0	952	0	poli_8sides 7_whiteLine3.jpg	Short_b09_cut1_mono_resampled.wav
2	35	3	3	2	I	2	0	1593	1	poli_8sides 1_whiteLine3.jpg	Short_b22_cut1_mono_resampled.wav
2	36	1	1	1	C	2	0	1734	0	poli_8sides 18_whiteLine3.jpg	Short_b20_cut1_mono_resampled.wav
2	37	3	4	2	I	2	0	1376	1	poli_8sides 1_whiteLine3.jpg	Short_b23_cut1_mono_resampled.wav
2	38	4	3	2	I	2	0	812	1	poli_8sides 15_whiteLine3.jpg	Short_b22_cut1_mono_resampled.wav
2	39	1	2	0	C	2	1	1611	1	poli_8sides 18_whiteLine3.jpg	Short_b09_cut1_mono_resampled.wav
2	40	2	1	0	C	2	1	658	1	poli_8sides 7_whiteLine3.jpg	Short_b20_cut1_mono_resampled.wav
2	41	3	4	2	I	2	0	1499	0	poli_8sides 1_whiteLine3.jpg	Short_b23_cut1_mono_resampled.wav
2	42	4	3	2	I	2	0	1030	0	poli_8sides 15_whiteLine3.jpg	Short_b22_cut1_mono_resampled.wav
2	43	1	2	0	C	1	0	1162	0	poli_8sides 18_whiteLine3.jpg	Short_b09_cut1_mono_resampled.wav
2	44	2	2	1	C	2	0	1643	0	poli_8sides 7_whiteLine3.jpg	Short_b09_cut1_mono_resampled.wav
2	45	4	4	2	I	2	0	1329	0	poli_8sides 15_whiteLine3.jpg	Short_b23_cut1_mono_resampled.wav
2	46	2	1	0	C	2	1	1536	1	poli_8sides 7_whiteLine3.jpg	Short_b20_cut1_mono_resampled.wav
2	47	1	1	1	C	1	1	1223	1	poli_8sides 18_whiteLine3.jpg	Short_b20_cut1_mono_resampled.wav
2	48	3	3	2	I	2	0	1009	1	poli_8sides 1_whiteLine3.jpg	Short_b22_cut1_mono_resampled.wav
2	49	2	2	1	C	1	1	1401	1	poli_8sides 7_whiteLine3.jpg	Short_b09_cut1_mono_resampled.wav
2	50	3	4	2	I	2	0	870	0	poli_8sides 1_whiteLine3.jpg	Short_b23_cut1_mono_resampled.wav
2	51	1	1	1	C	1	1	1822	1	poli_8sides 18_whiteLine3.jpg	Short_b20_cut1_mono_resampled.wav
2	52	4	4	2	I	2	0	1146	1	poli_8sides 15_whiteLine3.jpg	Short_b23_cut1_mono_resampled.wav
2	53	1	2	0	C	1	0	1264	0	poli_8sides 18_whiteLine3.jpg	Short_b09_cut1_mono_resampled.wav
2	54	3	3	2	I	2	0	1091	0	poli_8sides 1_whiteLine3.jpg	Short_b22_cut1_mono_resampled.wav
2	55	4	3	2	I	2	0	980	0	poli_8sides 15_whiteLine3.jpg	Short_b22_cut1_mono_resampled.wav
2	56	2	1	0	C	2	1	1356	1	poli_8sides 7_whiteLine3.jpg	Short_b20_cut1_mono_resampled.wav
2	57	4	4	2	I	2	0	1098	0	poli_8sides 15_whiteLine3.jpg	Short_b23_cut1_mono_resampled.wav
2	58	1	2	0	C	1	0	1719	0	poli_8sides 18_whiteLine3.jpg	Short_b09_cut1_mono_resampled.wav
2	59	3	3	2	I	1	0	1576	0	poli_8sides 1_whiteLine3.jpg	Short_b22_cut1_mono_resampled.wav
2	60	2	1	0	C	2	1	1725	1	poli_8sides 7_whiteLine3.jpg	Short_b20_cut1_mono_resampled.wav
2	61	3	4	2	I	2	0	1668	1	poli_8sides 1_whiteLine3.jpg	Short_b23_cut1_mono_resampled.wav
2	62	4	3	2	I	2	0	1733	1	poli_8sides 15_whiteLine3.jpg	Short_b22_cut1_mono_resampled.wav
2	63	2	2	1	C	0	0	0	0	poli_8sides 7_whiteLine3.jpg	Short_b09_cut1_mono_resampled.wav
2	64	1	1	1	C	2	0	1147	0	poli_8sides 18_whiteLine3.jpg	Short_b20_cut1_mono_resampled.wav
2	65	3	3	2	I	1	0	1273	1	poli_8sides 1_whiteLine3.jpg	Short_b22_cut1_mono_resampled.wav
2	66	1	1	1	C	2	0	1541	0	poli_8sides 18_whiteLine3.jpg	Short_b20_cut1_mono_resampled.wav
2	67	2	2	1	C	1	1	1061	1	poli_8sides 7_whiteLine3.jpg	Short_b09_cut1_mono_resampled.wav
2	68	4	4	2	I	2	0	1306	0	poli_8sides 15_whiteLine3.jpg	Short_b23_cut1_mono_resampled.wav
2	69	2	1	0	C	2	1	1398	1	poli_8sides 7_whiteLine3.jpg	Short_b20_cut1_mono_resampled.wav
2	70	3	4	2	I	1	0	1496	0	poli_8sides 1_whiteLine3.jpg	Short_b23_cut1_mono_resampled.wav
2	71	1	2	0	C	2	1	1757	1	poli_8sides 18_whiteLine3.jpg	Short_b09_cut1_mono_resampled.wav
2	72	4	3	2	I	2	0	1083	1	poli_8sides 15_whiteLine3.jpg	Short_b22_cut1_mono_resampled.wav
2	73	1	2	0	C	2	1	1861	1	poli_8sides 18_whiteLine3.jpg	Short_b09_cut1_mono_resampled.wav
2	74	3	4	2	I	1	0	1924	0	poli_8sides 1_whiteLine3.jpg	Short_b23_cut1_mono_resampled.wav
2	75	2	2	1	C	2	0	1367	0	poli_8sides 7_whiteLine3.jpg	Short_b09_cut1_mono_resampled.wav
2	76	4	3	2	I	2	0	936	0	poli_8sides 15_whiteLine3.jpg	Short_b22_cut1_mono_resampled.wav
2	77	3	3	2	I	2	0	787	1	poli_8sides 1_whiteLine3.jpg	Short_b22_cut1_mono_resampled.wav
2	78	1	1	1	C	1	1	1529	1	poli_8sides 18_whiteLine3.jpg	Short_b20_cut1_mono_resampled.wav
2	79	2	1	0	C	2	1	752	1	poli_8sides 7_whiteLine3.jpg	Short_b20_cut1_mono_resampled.wav
2	80	4	4	2	I	2	0	866	0	poli_8sides 15_whiteLine3.jpg	Short_b23_cut1_mono_resampled.wav
2	81	3	4	2	I	2	0	661	1	poli_8sides 1_whiteLine3.jpg	Short_b23_cut1_mono_resampled.wav
2	82	1	1	1	C	2	0	1468	0	poli_8sides 18_whiteLine3.jpg	Short_b20_cut1_mono_resampled.wav
2	83	4	3	2	I	2	0	1634	1	poli_8sides 15_whiteLine3.jpg	Short_b22_cut1_mono_resampled.wav
2	84	2	1	0	C	2	1	810	1	poli_8sides 7_whiteLine3.jpg	Short_b20_cut1_mono_resampled.wav
2	85	3	3	2	I	1	0	1155	1	poli_8sides 1_whiteLine3.jpg	Short_b22_cut1_mono_resampled.wav
2	86	1	2	0	C	2	1	1091	1	poli_8sides 18_whiteLine3.jpg	Short_b09_cut1_mono_resampled.wav
2	87	2	2	1	C	1	1	760	1	poli_8sides 7_whiteLine3.jpg	Short_b09_cut1_mono_resampled.wav
2	88	4	4	2	I	2	0	1387	1	poli_8sides 15_whiteLine3.jpg	Short_b23_cut1_mono_resampled.wav
2	89	3	4	2	I	1	0	1366	0	poli_8sides 1_whiteLine3.jpg	Short_b23_cut1_mono_resampled.wav
2	90	1	2	0	C	2	1	1922	1	poli_8sides 18_whiteLine3.jpg	Short_b09_cut1_mono_resampled.wav
2	91	2	2	1	C	1	1	1047	1	poli_8sides 7_whiteLine3.jpg	Short_b09_cut1_mono_resampled.wav
2	92	4	4	2	I	2	0	862	0	poli_8sides 15_whiteLine3.jpg	Short_b23_cut1_mono_resampled.wav
2	93	3	3	2	I	1	0	1200	1	poli_8sides 1_whiteLine3.jpg	Short_b22_cut1_mono_resampled.wav
2	94	1	1	1	C	1	1	1241	1	poli_8sides 18_whiteLine3.jpg	Short_b20_cut1_mono_resampled.wav
2	95	2	1	0	C	2	1	536	1	poli_8sides 7_whiteLine3.jpg	Short_b20_cut1_mono_resampled.wav
2	96	4	3	2	I	2	0	903	0	poli_8sides 15_whiteLine3.jpg	Short_b22_cut1_mono_resampled.wav
2	97	3	3	2	I	2	0	730	0	poli_8sides 1_whiteLine3.jpg	Short_b22_cut1_mono_resampled.wav
2	98	1	1	1	C	2	0	1240	0	poli_8sides 18_whiteLine3.jpg	Short_b20_cut1_mono_resampled.wav
2	99	4	4	2	I	2	0	1167	0	poli_8sides 15_whiteLine3.jpg	Short_b23_cut1_mono_resampled.wav
2	100	2	1	0	C	2	1	1231	1	poli_8sides 7_whiteLine3.jpg	Short_b20_cut1_mono_resampled.wav
2	101	4	3	2	I	2	0	999	0	poli_8sides 15_whiteLine3.jpg	Short_b22_cut1_mono_resampled.wav
2	102	2	2	1	C	1	1	1035	1	poli_8sides 7_whiteLine3.jpg	Short_b09_cut1_mono_resampled.wav
2	103	1	2	0	C	2	1	1179	1	poli_8sides 18_whiteLine3.jpg	Short_b09_cut1_mono_resampled.wav
2	104	3	4	2	I	1	0	1276	0	poli_8sides 1_whiteLine3.jpg	Short_b23_cut1_mono_resampled.wav
2	105	4	3	2	I	2	0	1072	1	poli_8sides 15_whiteLine3.jpg	Short_b22_cut1_mono_resampled.wav
2	106	3	4	2	I	2	0	895	1	poli_8sides 1_whiteLine3.jpg	Short_b23_cut1_mono_resampled.wav
2	107	2	1	0	C	2	1	1103	1	poli_8sides 7_whiteLine3.jpg	Short_b20_cut1_mono_resampled.wav
2	108	1	2	0	C	1	0	874	0	poli_8sides 18_whiteLine3.jpg	Short_b09_cut1_mono_resampled.wav
2	109	2	2	1	C	2	0	1010	0	poli_8sides 7_whiteLine3.jpg	Short_b09_cut1_mono_resampled.wav
2	110	4	4	2	I	2	0	1130	1	poli_8sides 15_whiteLine3.jpg	Short_b23_cut1_mono_resampled.wav
2	111	1	1	1	C	2	0	1280	0	poli_8sides 18_whiteLine3.jpg	Short_b20_cut1_mono_resampled.wav
2	112	3	3	2	I	1	0	1489	0	poli_8sides 1_whiteLine3.jpg	Short_b22_cut1_mono_resampled.wav
2	113	2	1	0	C	2	1	860	1	poli_8sides 7_whiteLine3.jpg	Short_b20_cut1_mono_resampled.wav
2	114	4	4	2	I	2	0	960	0	poli_8sides 15_whiteLine3.jpg	Short_b23_cut1_mono_resampled.wav
2	115	3	4	2	I	2	0	687	1	poli_8sides 1_whiteLine3.jpg	Short_b23_cut1_mono_resampled.wav
2	116	1	2	0	C	2	1	1357	1	poli_8sides 18_whiteLine3.jpg	Short_b09_cut1_mono_resampled.wav
2	117	4	3	2	I	2	0	1155	1	poli_8sides 15_whiteLine3.jpg	Short_b22_cut1_mono_resampled.wav
2	118	3	3	2	I	2	0	1147	1	poli_8sides 1_whiteLine3.jpg	Short_b22_cut1_mono_resampled.wav
2	119	1	1	1	C	1	1	1836	1	poli_8sides 18_whiteLine3.jpg	Short_b20_cut1_mono_resampled.wav
2	120	2	2	1	C	1	1	1155	1	poli_8sides 7_whiteLine3.jpg	Short_b09_cut1_mono_resampled.wav
2	121	3	3	2	I	1	0	1143	0	poli_8sides 1_whiteLine3.jpg	Short_b22_cut1_mono_resampled.wav
2	122	4	3	2	I	1	0	1255	1	poli_8sides 15_whiteLine3.jpg	Short_b22_cut1_mono_resampled.wav
2	123	2	1	0	C	2	1	1143	1	poli_8sides 7_whiteLine3.jpg	Short_b20_cut1_mono_resampled.wav
2	124	1	1	1	C	1	1	999	1	poli_8sides 18_whiteLine3.jpg	Short_b20_cut1_mono_resampled.wav
2	125	3	4	2	I	1	0	1440	1	poli_8sides 1_whiteLine3.jpg	Short_b23_cut1_mono_resampled.wav
2	126	4	4	2	I	2	0	1673	1	poli_8sides 15_whiteLine3.jpg	Short_b23_cut1_mono_resampled.wav
2	127	2	2	1	C	1	1	1239	1	poli_8sides 7_whiteLine3.jpg	Short_b09_cut1_mono_resampled.wav
2	128	1	2	0	C	2	1	1254	1	poli_8sides 18_whiteLine3.jpg	Short_b09_cut1_mono_resampled.wav
2	129	3	4	2	I	0	0	0	0	poli_8sides 1_whiteLine3.jpg	Short_b23_cut1_mono_resampled.wav
2	130	1	1	1	C	2	0	1719	0	poli_8sides 18_whiteLine3.jpg	Short_b20_cut1_mono_resampled.wav
2	131	2	2	1	C	1	1	1089	1	poli_8sides 7_whiteLine3.jpg	Short_b09_cut1_mono_resampled.wav
2	132	4	3	2	I	2	0	934	0	poli_8sides 15_whiteLine3.jpg	Short_b22_cut1_mono_resampled.wav
2	133	1	2	0	C	2	1	1612	1	poli_8sides 18_whiteLine3.jpg	Short_b09_cut1_mono_resampled.wav
2	134	4	4	2	I	2	0	1242	0	poli_8sides 15_whiteLine3.jpg	Short_b23_cut1_mono_resampled.wav
2	135	3	3	2	I	1	0	1098	0	poli_8sides 1_whiteLine3.jpg	Short_b22_cut1_mono_resampled.wav
2	136	2	1	0	C	2	1	827	1	poli_8sides 7_whiteLine3.jpg	Short_b20_cut1_mono_resampled.wav
2	137	4	4	2	I	2	0	1680	0	poli_8sides 15_whiteLine3.jpg	Short_b23_cut1_mono_resampled.wav
2	138	2	2	1	C	2	0	1265	0	poli_8sides 7_whiteLine3.jpg	Short_b09_cut1_mono_resampled.wav
2	139	1	2	0	C	2	1	1398	1	poli_8sides 18_whiteLine3.jpg	Short_b09_cut1_mono_resampled.wav
2	140	3	4	2	I	2	0	1424	0	poli_8sides 1_whiteLine3.jpg	Short_b23_cut1_mono_resampled.wav
2	141	1	1	1	C	1	1	1498	1	poli_8sides 18_whiteLine3.jpg	Short_b20_cut1_mono_resampled.wav
2	142	4	3	2	I	2	0	834	1	poli_8sides 15_whiteLine3.jpg	Short_b22_cut1_mono_resampled.wav
2	143	2	1	0	C	2	1	1308	1	poli_8sides 7_whiteLine3.jpg	Short_b20_cut1_mono_resampled.wav
2	144	3	3	2	I	1	0	1122	1	poli_8sides 1_whiteLine3.jpg	Short_b22_cut1_mono_resampled.wav
2	145	4	4	2	I	1	0	1477	0	poli_8sides 15_whiteLine3.jpg	Short_b23_cut1_mono_resampled.wav
2	146	3	3	2	I	1	0	1503	1	poli_8sides 1_whiteLine3.jpg	Short_b22_cut1_mono_resampled.wav
2	147	1	2	0	C	2	1	1034	1	poli_8sides 18_whiteLine3.jpg	Short_b09_cut1_mono_resampled.wav
2	148	2	1	0	C	2	1	557	1	poli_8sides 7_whiteLine3.jpg	Short_b20_cut1_mono_resampled.wav
2	149	3	4	2	I	2	0	1781	0	poli_8sides 1_whiteLine3.jpg	Short_b23_cut1_mono_resampled.wav
2	150	1	1	1	C	2	0	1441	0	poli_8sides 18_whiteLine3.jpg	Short_b20_cut1_mono_resampled.wav
2	151	4	3	2	I	2	0	882	1	poli_8sides 15_whiteLine3.jpg	Short_b22_cut1_mono_resampled.wav
2	152	2	2	1	C	1	1	1557	1	poli_8sides 7_whiteLine3.jpg	Short_b09_cut1_mono_resampled.wav
2	153	3	3	2	I	2	0	1316	1	poli_8sides 1_whiteLine3.jpg	Short_b22_cut1_mono_resampled.wav
2	154	4	4	2	I	2	0	750	1	poli_8sides 15_whiteLine3.jpg	Short_b23_cut1_mono_resampled.wav
2	155	1	2	0	C	2	1	1396	1	poli_8sides 18_whiteLine3.jpg	Short_b09_cut1_mono_resampled.wav
2	156	2	2	1	C	1	1	1514	1	poli_8sides 7_whiteLine3.jpg	Short_b09_cut1_mono_resampled.wav
2	157	1	1	1	C	1	1	1620	1	poli_8sides 18_whiteLine3.jpg	Short_b20_cut1_mono_resampled.wav
2	158	4	3	2	I	1	0	1659	0	poli_8sides 15_whiteLine3.jpg	Short_b22_cut1_mono_resampled.wav
2	159	3	4	2	I	2	0	1413	0	poli_8sides 1_whiteLine3.jpg	Short_b23_cut1_mono_resampled.wav
2	160	2	1	0	C	2	1	1766	1	poli_8sides 7_whiteLine3.jpg	Short_b20_cut1_mono_resampled.wav
2	161	3	3	2	I	2	0	1694	1	poli_8sides 1_whiteLine3.jpg	Short_b22_cut1_mono_resampled.wav
2	162	4	3	2	I	2	0	1014	1	poli_8sides 15_whiteLine3.jpg	Short_b22_cut1_mono_resampled.wav
2	163	1	1	1	C	2	0	1971	0	poli_8sides 18_whiteLine3.jpg	Short_b20_cut1_mono_resampled.wav
2	164	2	1	0	C	2	1	815	1	poli_8sides 7_whiteLine3.jpg	Short_b20_cut1_mono_resampled.wav
2	165	4	4	2	I	2	0	1045	1	poli_8sides 15_whiteLine3.jpg	Short_b23_cut1_mono_resampled.wav
2	166	3	4	2	I	1	0	882	0	poli_8sides 1_whiteLine3.jpg	Short_b23_cut1_mono_resampled.wav
2	167	1	2	0	C	2	1	1306	1	poli_8sides 18_whiteLine3.jpg	Short_b09_cut1_mono_resampled.wav
2	168	2	2	1	C	1	1	841	1	poli_8sides 7_whiteLine3.jpg	Short_b09_cut1_mono_resampled.wav
2	169	1	1	1	C	1	1	1543	1	poli_8sides 18_whiteLine3.jpg	Short_b20_cut1_mono_resampled.wav
2	170	4	4	2	I	2	0	1087	0	poli_8sides 15_whiteLine3.jpg	Short_b23_cut1_mono_resampled.wav
2	171	2	1	0	C	2	1	844	1	poli_8sides 7_whiteLine3.jpg	Short_b20_cut1_mono_resampled.wav
2	172	3	4	2	I	2	0	1521	1	poli_8sides 1_whiteLine3.jpg	Short_b23_cut1_mono_resampled.wav
2	173	2	2	1	C	1	1	1084	1	poli_8sides 7_whiteLine3.jpg	Short_b09_cut1_mono_resampled.wav
2	174	1	2	0	C	1	0	1851	0	poli_8sides 18_whiteLine3.jpg	Short_b09_cut1_mono_resampled.wav
2	175	3	3	2	I	2	0	1341	0	poli_8sides 1_whiteLine3.jpg	Short_b22_cut1_mono_resampled.wav
2	176	4	3	2	I	2	0	1411	0	poli_8sides 15_whiteLine3.jpg	Short_b22_cut1_mono_resampled.wav
2	177	1	2	0	C	2	1	1436	1	poli_8sides 18_whiteLine3.jpg	Short_b09_cut1_mono_resampled.wav
2	178	3	3	2	I	2	0	1392	0	poli_8sides 1_whiteLine3.jpg	Short_b22_cut1_mono_resampled.wav
2	179	4	4	2	I	1	0	1907	0	poli_8sides 15_whiteLine3.jpg	Short_b23_cut1_mono_resampled.wav
2	180	2	2	1	C	1	1	1832	1	poli_8sides 7_whiteLine3.jpg	Short_b09_cut1_mono_resampled.wav
2	181	1	1	1	C	2	0	1499	0	poli_8sides 18_whiteLine3.jpg	Short_b20_cut1_mono_resampled.wav
2	182	2	1	0	C	2	1	1051	1	poli_8sides 7_whiteLine3.jpg	Short_b20_cut1_mono_resampled.wav
2	183	3	4	2	I	2	0	1122	1	poli_8sides 1_whiteLine3.jpg	Short_b23_cut1_mono_resampled.wav
2	184	4	3	2	I	2	0	1118	0	poli_8sides 15_whiteLine3.jpg	Short_b22_cut1_mono_resampled.wav
2	185	2	2	1	C	2	0	941	0	poli_8sides 7_whiteLine3.jpg	Short_b09_cut1_mono_resampled.wav
2	186	1	2	0	C	2	1	1079	1	poli_8sides 18_whiteLine3.jpg	Short_b09_cut1_mono_resampled.wav
2	187	4	3	2	I	2	0	1006	1	poli_8sides 15_whiteLine3.jpg	Short_b22_cut1_mono_resampled.wav
2	188	3	3	2	I	2	0	922	0	poli_8sides 1_whiteLine3.jpg	Short_b22_cut1_mono_resampled.wav
2	189	2	1	0	C	1	0	1625	0	poli_8sides 7_whiteLine3.jpg	Short_b20_cut1_mono_resampled.wav
2	190	4	4	2	I	2	0	1022	1	poli_8sides 15_whiteLine3.jpg	Short_b23_cut1_mono_resampled.wav
2	191	3	4	2	I	2	0	1268	1	poli_8sides 1_whiteLine3.jpg	Short_b23_cut1_mono_resampled.wav
2	192	1	1	1	C	0	0	0	0	poli_8sides 18_whiteLine3.jpg	Short_b20_cut1_mono_resampled.wav
2	193	2	1	0	C	2	1	721	1	poli_8sides 7_whiteLine3.jpg	Short_b20_cut1_mono_resampled.wav
2	194	1	1	1	C	1	1	878	1	poli_8sides 18_whiteLine3.jpg	Short_b20_cut1_mono_resampled.wav
2	195	4	4	2	I	1	0	1762	0	poli_8sides 15_whiteLine3.jpg	Short_b23_cut1_mono_resampled.wav
2	196	3	3	2	I	0	0	0	0	poli_8sides 1_whiteLine3.jpg	Short_b22_cut1_mono_resampled.wav
2	197	1	2	0	C	2	1	1832	1	poli_8sides 18_whiteLine3.jpg	Short_b09_cut1_mono_resampled.wav
2	198	2	2	1	C	1	1	1008	1	poli_8sides 7_whiteLine3.jpg	Short_b09_cut1_mono_resampled.wav
2	199	3	4	2	I	2	0	1107	1	poli_8sides 1_whiteLine3.jpg	Short_b23_cut1_mono_resampled.wav
2	200	4	3	2	I	2	0	711	0	poli_8sides 15_whiteLine3.jpg	Short_b22_cut1_mono_resampled.wav
3	1	4	4	2	I	2	0	782	0	poli_8sides 13_whiteLine3.jpg	Medium_e01_cut1_mono_resampled.wav
3	2	2	1	0	C	1	0	685	0	poli_8sides 9_whiteLine3.jpg	MediumLong_b23_cut4_ML_mono_resampled.wav
3	3	1	1	1	C	2	0	743	0	poli_8sides 6_whiteLine3.jpg	MediumLong_b23_cut4_ML_mono_resampled.wav
3	4	3	4	2	I	2	0	977	0	poli_8sides 5_whiteLine3.jpg	Medium_e01_cut1_mono_resampled.wav
3	5	2	2	1	C	2	0	760	0	poli_8sides 9_whiteLine3.jpg	MediumLong_b10_cut2_L_mono_resampled.wav
3	6	3	3	2	I	2	0	623	1	poli_8sides 5_whiteLine3.jpg	Medium_e26_mono_resampled.wav
3	7	1	2	0	C	2	1	1163	1	poli_8sides 6_whiteLine3.jpg	MediumLong_b10_cut2_L_mono_resampled.wav
3	8	4	3	2	I	1	0	1261	1	poli_8sides 13_whiteLine3.jpg	Medium_e26_mono_resampled.wav
3	9	2	2	1	C	2	0	825	0	poli_8sides 9_whiteLine3.jpg	MediumLong_b10_cut2_L_mono_resampled.wav
3	10	4	3	2	I	2	0	882	0	poli_8sides 13_whiteLine3.jpg	Medium_e26_mono_resampled.wav
3	11	1	1	1	C	2	0	721	0	poli_8sides 6_whiteLine3.jpg	MediumLong_b23_cut4_ML_mono_resampled.wav
3	12	3	3	2	I	2	0	683	0	poli_8sides 5_whiteLine3.jpg	Medium_e26_mono_resampled.wav
3	13	4	4	2	I	2	0	1285	1	poli_8sides 13_whiteLine3.jpg	Medium_e01_cut1_mono_resampled.wav
3	14	3	4	2	I	1	0	785	1	poli_8sides 5_whiteLine3.jpg	Medium_e01_cut1_mono_resampled.wav
3	15	1	2	0	C	2	1	956	1	poli_8sides 6_whiteLine3.jpg	MediumLong_b10_cut2_L_mono_resampled.wav
3	16	2	1	0	C	1	0	751	0	poli_8sides 9_whiteLine3.jpg	MediumLong_b23_cut4_ML_mono_resampled.wav
3	17	4	4	2	I	2	0	832	0	poli_8sides 13_whiteLine3.jpg	Medium_e01_cut1_mono_resampled.wav
3	18	3	3	2	I	1	0	1044	1	poli_8sides 5_whiteLine3.jpg	Medium_e26_mono_resampled.wav
3	19	2	1	0	C	2	1	1901	1	poli_8sides 9_whiteLine3.jpg	MediumLong_b23_cut4_ML_mono_resampled.wav
3	20	1	1	1	C	2	0	991	0	poli_8sides 6_whiteLine3.jpg	MediumLong_b23_cut4_ML_mono_resampled.wav
3	21	4	3	2	I	2	0	728	0	poli_8sides 13_whiteLine3.jpg	Medium_e26_mono_resampled.wav
3	22	1	2	0	C	2	1	783	1	poli_8sides 6_whiteLine3.jpg	MediumLong_b10_cut2_L_mono_resampled.wav
3	23	3	4	2	I	2	0	841	1	poli_8sides 5_whiteLine3.jpg	Medium_e01_cut1_mono_resampled.wav
3	24	2	2	1	C	2	0	889	0	poli_8sides 9_whiteLine3.jpg	MediumLong_b10_cut2_L_mono_resampled.wav
3	25	1	1	1	C	2	0	1225	0	poli_8sides 6_whiteLine3.jpg	MediumLong_b23_cut4_ML_mono_resampled.wav
3	26	4	3	2	I	2	0	891	0	poli_8sides 13_whiteLine3.jpg	Medium_e26_mono_resampled.wav
3	27	2	1	0	C	2	1	910	1	poli_8sides 9_whiteLine3.jpg	MediumLong_b23_cut4_ML_mono_resampled.wav
3	28	3	3	2	I	1	0	1000	1	poli_8sides 5_whiteLine3.jpg	Medium_e26_mono_resampled.wav
3	29	1	2	0	C	2	1	1158	1	poli_8sides 6_whiteLine3.jpg	MediumLong_b10_cut2_L_mono_resampled.wav
3	30	4	4	2	I	2	0	1234	1	poli_8sides 13_whiteLine3.jpg	Medium_e01_cut1_mono_resampled.wav
3	31	2	2	1	C	2	0	977	0	poli_8sides 9_whiteLine3.jpg	MediumLong_b10_cut2_L_mono_resampled.wav
3	32	3	4	2	I	2	0	1226	1	poli_8sides 5_whiteLine3.jpg	Medium_e01_cut1_mono_resampled.wav
3	33	1	1	1	C	1	1	1238	1	poli_8sides 6_whiteLine3.jpg	MediumLong_b23_cut4_ML_mono_resampled.wav
3	34	3	4	2	I	2	0	916	0	poli_8sides 5_whiteLine3.jpg	Medium_e01_cut1_mono_resampled.wav
3	35	2	1	0	C	2	1	1160	1	poli_8sides 9_whiteLine3.jpg	MediumLong_b23_cut4_ML_mono_resampled.wav
3	36	4	4	2	I	2	0	1265	1	poli_8sides 13_whiteLine3.jpg	Medium_e01_cut1_mono_resampled.wav
3	37	1	2	0	C	2	1	1046	1	poli_8sides 6_whiteLine3.jpg	MediumLong_b10_cut2_L_mono_resampled.wav
3	38	2	2	1	C	2	0	1025	0	poli_8sides 9_whiteLine3.jpg	MediumLong_b10_cut2_L_mono_resampled.wav
3	39	4	3	2	I	1	0	973	0	poli_8sides 13_whiteLine3.jpg	Medium_e26_mono_resampled.wav
3	40	3	3	2	I	2	0	1874	1	poli_8sides 5_whiteLine3.jpg	Medium_e26_mono_resampled.wav
3	41	1	1	1	C	1	1	926	1	poli_8sides 6_whiteLine3.jpg	MediumLong_b23_cut4_ML_mono_resampled.wav
3	42	3	3	2	I	1	0	1312	0	poli_8sides 5_whiteLine3.jpg	Medium_e26_mono_resampled.wav
3	43	4	4	2	I	1	0	1167	1	poli_8sides 13_whiteLine3.jpg	Medium_e01_cut1_mono_resampled.wav
3	44	2	2	1	C	2	0	1033	0	poli_8sides 9_whiteLine3.jpg	MediumLong_b10_cut2_L_mono_resampled.wav
3	45	1	2	0	C	2	1	901	1	poli_8sides 6_whiteLine3.jpg	MediumLong_b10_cut2_L_mono_resampled.wav
3	46	2	1	0	C	1	0	1080	0	poli_8sides 9_whiteLine3.jpg	MediumLong_b23_cut4_ML_mono_resampled.wav
3	47	3	4	2	I	2	0	1541	0	poli_8sides 5_whiteLine3.jpg	Medium_e01_cut1_mono_resampled.wav
3	48	4	3	2	I	1	0	946	1	poli_8sides 13_whiteLine3.jpg	Medium_e26_mono_resampled.wav
3	49	2	1	0	C	1	0	1096	0	poli_8sides 9_whiteLine3.jpg	MediumLong_b23_cut4_ML_mono_resampled.wav
3	50	1	2	0	C	2	1	722	1	poli_8sides 6_whiteLine3.jpg	MediumLong_b10_cut2_L_mono_resampled.wav
3	51	4	4	2	I	2	0	1450	0	poli_8sides 13_whiteLine3.jpg	Medium_e01_cut1_mono_resampled.wav
3	52	3	3	2	I	2	0	1205	1	poli_8sides 5_whiteLine3.jpg	Medium_e26_mono_resampled.wav
3	53	2	2	1	C	2	0	1010	0	poli_8sides 9_whiteLine3.jpg	MediumLong_b10_cut2_L_mono_resampled.wav
3	54	4	3	2	I	2	0	1313	1	poli_8sides 13_whiteLine3.jpg	Medium_e26_mono_resampled.wav
3	55	3	4	2	I	1	0	1230	1	poli_8sides 5_whiteLine3.jpg	Medium_e01_cut1_mono_resampled.wav
3	56	1	1	1	C	1	1	1218	1	poli_8sides 6_whiteLine3.jpg	MediumLong_b23_cut4_ML_mono_resampled.wav
3	57	4	3	2	I	2	0	1090	0	poli_8sides 13_whiteLine3.jpg	Medium_e26_mono_resampled.wav
3	58	1	1	1	C	1	1	997	1	poli_8sides 6_whiteLine3.jpg	MediumLong_b23_cut4_ML_mono_resampled.wav
3	59	3	3	2	I	2	0	1001	0	poli_8sides 5_whiteLine3.jpg	Medium_e26_mono_resampled.wav
3	60	2	2	1	C	2	0	1080	0	poli_8sides 9_whiteLine3.jpg	MediumLong_b10_cut2_L_mono_resampled.wav
3	61	1	2	0	C	2	1	689	1	poli_8sides 6_whiteLine3.jpg	MediumLong_b10_cut2_L_mono_resampled.wav
3	62	4	4	2	I	1	0	1144	1	poli_8sides 13_whiteLine3.jpg	Medium_e01_cut1_mono_resampled.wav
3	63	3	4	2	I	1	0	1283	0	poli_8sides 5_whiteLine3.jpg	Medium_e01_cut1_mono_resampled.wav
3	64	2	1	0	C	1	0	1291	0	poli_8sides 9_whiteLine3.jpg	MediumLong_b23_cut4_ML_mono_resampled.wav
3	65	4	3	2	I	1	0	1396	1	poli_8sides 13_whiteLine3.jpg	Medium_e26_mono_resampled.wav
3	66	2	2	1	C	2	0	832	0	poli_8sides 9_whiteLine3.jpg	MediumLong_b10_cut2_L_mono_resampled.wav
3	67	3	3	2	I	2	0	1271	0	poli_8sides 5_whiteLine3.jpg	Medium_e26_mono_resampled.wav
3	68	1	1	1	C	1	1	880	1	poli_8sides 6_whiteLine3.jpg	MediumLong_b23_cut4_ML_mono_resampled.wav
3	69	4	4	2	I	1	0	934	0	poli_8sides 13_whiteLine3.jpg	Medium_e01_cut1_mono_resampled.wav
3	70	2	1	0	C	1	0	978	0	poli_8sides 9_whiteLine3.jpg	MediumLong_b23_cut4_ML_mono_resampled.wav
3	71	3	4	2	I	1	0	1097	1	poli_8sides 5_whiteLine3.jpg	Medium_e01_cut1_mono_resampled.wav
3	72	1	2	0	C	2	1	976	1	poli_8sides 6_whiteLine3.jpg	MediumLong_b10_cut2_L_mono_resampled.wav
3	73	4	4	2	I	2	0	757	0	poli_8sides 13_whiteLine3.jpg	Medium_e01_cut1_mono_resampled.wav
3	74	1	2	0	C	2	1	1075	1	poli_8sides 6_whiteLine3.jpg	MediumLong_b10_cut2_L_mono_resampled.wav
3	75	2	1	0	C	2	1	1081	1	poli_8sides 9_whiteLine3.jpg	MediumLong_b23_cut4_ML_mono_resampled.wav
3	76	3	4	2	I	2	0	1616	1	poli_8sides 5_whiteLine3.jpg	Medium_e01_cut1_mono_resampled.wav
3	77	4	3	2	I	2	0	1246	0	poli_8sides 13_whiteLine3.jpg	Medium_e26_mono_resampled.wav
3	78	2	2	1	C	1	1	866	1	poli_8sides 9_whiteLine3.jpg	MediumLong_b10_cut2_L_mono_resampled.wav
3	79	1	1	1	C	1	1	771	1	poli_8sides 6_whiteLine3.jpg	MediumLong_b23_cut4_ML_mono_resampled.wav
3	80	3	3	2	I	2	0	1129	0	poli_8sides 5_whiteLine3.jpg	Medium_e26_mono_resampled.wav
3	81	2	1	0	C	2	1	777	1	poli_8sides 9_whiteLine3.jpg	MediumLong_b23_cut4_ML_mono_resampled.wav
3	82	1	1	1	C	1	1	772	1	poli_8sides 6_whiteLine3.jpg	MediumLong_b23_cut4_ML_mono_resampled.wav
3	83	3	4	2	I	1	0	1290	0	poli_8sides 5_whiteLine3.jpg	Medium_e01_cut1_mono_resampled.wav
3	84	4	4	2	I	1	0	800	0	poli_8sides 13_whiteLine3.jpg	Medium_e01_cut1_mono_resampled.wav
3	85	1	2	0	C	2	1	801	1	poli_8sides 6_whiteLine3.jpg	MediumLong_b10_cut2_L_mono_resampled.wav
3	86	3	3	2	I	2	0	1196	0	poli_8sides 5_whiteLine3.jpg	Medium_e26_mono_resampled.wav
3	87	4	3	2	I	1	0	776	0	poli_8sides 13_whiteLine3.jpg	Medium_e26_mono_resampled.wav
3	88	2	2	1	C	1	1	828	1	poli_8sides 9_whiteLine3.jpg	MediumLong_b10_cut2_L_mono_resampled.wav
3	89	3	3	2	I	1	0	1672	0	poli_8sides 5_whiteLine3.jpg	Medium_e26_mono_resampled.wav
3	90	2	2	1	C	1	1	960	1	poli_8sides 9_whiteLine3.jpg	MediumLong_b10_cut2_L_mono_resampled.wav
3	91	1	1	1	C	1	1	904	1	poli_8sides 6_whiteLine3.jpg	MediumLong_b23_cut4_ML_mono_resampled.wav
3	92	4	4	2	I	2	0	1170	0	poli_8sides 13_whiteLine3.jpg	Medium_e01_cut1_mono_resampled.wav
3	93	3	4	2	I	2	0	925	1	poli_8sides 5_whiteLine3.jpg	Medium_e01_cut1_mono_resampled.wav
3	94	2	1	0	C	2	1	1047	1	poli_8sides 9_whiteLine3.jpg	MediumLong_b23_cut4_ML_mono_resampled.wav
3	95	4	3	2	I	1	0	1885	0	poli_8sides 13_whiteLine3.jpg	Medium_e26_mono_resampled.wav
3	96	1	2	0	C	2	1	665	1	poli_8sides 6_whiteLine3.jpg	MediumLong_b10_cut2_L_mono_resampled.wav
3	97	4	3	2	I	2	0	1138	0	poli_8sides 13_whiteLine3.jpg	Medium_e26_mono_resampled.wav
3	98	1	1	1	C	1	1	922	1	poli_8sides 6_whiteLine3.jpg	MediumLong_b23_cut4_ML_mono_resampled.wav
3	99	3	3	2	I	1	0	713	1	poli_8sides 5_whiteLine3.jpg	Medium_e26_mono_resampled.wav
3	100	2	1	0	C	2	1	860	1	poli_8sides 9_whiteLine3.jpg	MediumLong_b23_cut4_ML_mono_resampled.wav
3	101	4	4	2	I	1	0	1289	1	poli_8sides 13_whiteLine3.jpg	Medium_e01_cut1_mono_resampled.wav
3	102	2	2	1	C	1	1	887	1	poli_8sides 9_whiteLine3.jpg	MediumLong_b10_cut2_L_mono_resampled.wav
3	103	1	2	0	C	2	1	806	1	poli_8sides 6_whiteLine3.jpg	MediumLong_b10_cut2_L_mono_resampled.wav
3	104	3	4	2	I	2	0	871	1	poli_8sides 5_whiteLine3.jpg	Medium_e01_cut1_mono_resampled.wav
3	105	1	1	1	C	1	1	925	1	poli_8sides 6_whiteLine3.jpg	MediumLong_b23_cut4_ML_mono_resampled.wav
3	106	3	3	2	I	1	0	957	1	poli_8sides 5_whiteLine3.jpg	Medium_e26_mono_resampled.wav
3	107	2	2	1	C	1	1	769	1	poli_8sides 9_whiteLine3.jpg	MediumLong_b10_cut2_L_mono_resampled.wav
3	108	4	3	2	I	1	0	1419	1	poli_8sides 13_whiteLine3.jpg	Medium_e26_mono_resampled.wav
3	109	2	1	0	C	2	1	788	1	poli_8sides 9_whiteLine3.jpg	MediumLong_b23_cut4_ML_mono_resampled.wav
3	110	4	4	2	I	1	0	1187	1	poli_8sides 13_whiteLine3.jpg	Medium_e01_cut1_mono_resampled.wav
3	111	3	4	2	I	2	0	638	0	poli_8sides 5_whiteLine3.jpg	Medium_e01_cut1_mono_resampled.wav
3	112	1	2	0	C	2	1	752	1	poli_8sides 6_whiteLine3.jpg	MediumLong_b10_cut2_L_mono_resampled.wav
3	113	4	3	2	I	1	0	1645	1	poli_8sides 13_whiteLine3.jpg	Medium_e26_mono_resampled.wav
3	114	1	2	0	C	2	1	890	1	poli_8sides 6_whiteLine3.jpg	MediumLong_b10_cut2_L_mono_resampled.wav
3	115	2	2	1	C	1	1	914	1	poli_8sides 9_whiteLine3.jpg	MediumLong_b10_cut2_L_mono_resampled.wav
3	116	3	4	2	I	2	0	675	0	poli_8sides 5_whiteLine3.jpg	Medium_e01_cut1_mono_resampled.wav
3	117	4	4	2	I	2	0	624	0	poli_8sides 13_whiteLine3.jpg	Medium_e01_cut1_mono_resampled.wav
3	118	3	3	2	I	1	0	1013	1	poli_8sides 5_whiteLine3.jpg	Medium_e26_mono_resampled.wav
3	119	2	1	0	C	2	1	743	1	poli_8sides 9_whiteLine3.jpg	MediumLong_b23_cut4_ML_mono_resampled.wav
3	120	1	1	1	C	1	1	835	1	poli_8sides 6_whiteLine3.jpg	MediumLong_b23_cut4_ML_mono_resampled.wav
3	121	2	1	0	C	2	1	657	1	poli_8sides 9_whiteLine3.jpg	MediumLong_b23_cut4_ML_mono_resampled.wav
3	122	1	1	1	C	1	1	781	1	poli_8sides 6_whiteLine3.jpg	MediumLong_b23_cut4_ML_mono_resampled.wav
3	123	4	4	2	I	1	0	1137	1	poli_8sides 13_whiteLine3.jpg	Medium_e01_cut1_mono_resampled.wav
3	124	3	4	2	I	2	0	680	1	poli_8sides 5_whiteLine3.jpg	Medium_e01_cut1_mono_resampled.wav
3	125	4	3	2	I	1	0	1098	1	poli_8sides 13_whiteLine3.jpg	Medium_e26_mono_resampled.wav
3	126	2	2	1	C	1	1	1058	1	poli_8sides 9_whiteLine3.jpg	MediumLong_b10_cut2_L_mono_resampled.wav
3	127	3	3	2	I	1	0	1190	0	poli_8sides 5_whiteLine3.jpg	Medium_e26_mono_resampled.wav
3	128	1	2	0	C	2	1	790	1	poli_8sides 6_whiteLine3.jpg	MediumLong_b10_cut2_L_mono_resampled.wav
3	129	4	3	2	I	1	0	1439	0	poli_8sides 13_whiteLine3.jpg	Medium_e26_mono_resampled.wav
3	130	1	2	0	C	2	1	792	1	poli_8sides 6_whiteLine3.jpg	MediumLong_b10_cut2_L_mono_resampled.wav
3	131	3	4	2	I	2	0	725	1	poli_8sides 5_whiteLine3.jpg	Medium_e01_cut1_mono_resampled.wav
3	132	2	2	1	C	1	1	923	1	poli_8sides 9_whiteLine3.jpg	MediumLong_b10_cut2_L_mono_resampled.wav
3	133	4	4	2	I	1	0	823	1	poli_8sides 13_whiteLine3.jpg	Medium_e01_cut1_mono_resampled.wav
3	134	1	1	1	C	1	1	874	1	poli_8sides 6_whiteLine3.jpg	MediumLong_b23_cut4_ML_mono_resampled.wav
3	135	3	3	2	I	2	0	920	0	poli_8sides 5_whiteLine3.jpg	Medium_e26_mono_resampled.wav
3	136	2	1	0	C	2	1	810	1	poli_8sides 9_whiteLine3.jpg	MediumLong_b23_cut4_ML_mono_resampled.wav
3	137	1	2	0	C	2	1	788	1	poli_8sides 6_whiteLine3.jpg	MediumLong_b10_cut2_L_mono_resampled.wav
3	138	4	3	2	I	1	0	1358	0	poli_8sides 13_whiteLine3.jpg	Medium_e26_mono_resampled.wav
3	139	2	1	0	C	2	1	661	1	poli_8sides 9_whiteLine3.jpg	MediumLong_b23_cut4_ML_mono_resampled.wav
3	140	3	3	2	I	1	0	1229	0	poli_8sides 5_whiteLine3.jpg	Medium_e26_mono_resampled.wav
3	141	1	1	1	C	1	1	1019	1	poli_8sides 6_whiteLine3.jpg	MediumLong_b23_cut4_ML_mono_resampled.wav
3	142	3	4	2	I	2	0	777	0	poli_8sides 5_whiteLine3.jpg	Medium_e01_cut1_mono_resampled.wav
3	143	4	4	2	I	1	0	810	0	poli_8sides 13_whiteLine3.jpg	Medium_e01_cut1_mono_resampled.wav
3	144	2	2	1	C	1	1	1079	1	poli_8sides 9_whiteLine3.jpg	MediumLong_b10_cut2_L_mono_resampled.wav
3	145	3	4	2	I	2	0	695	0	poli_8sides 5_whiteLine3.jpg	Medium_e01_cut1_mono_resampled.wav
3	146	1	1	1	C	1	1	758	1	poli_8sides 6_whiteLine3.jpg	MediumLong_b23_cut4_ML_mono_resampled.wav
3	147	4	4	2	I	2	0	1391	1	poli_8sides 13_whiteLine3.jpg	Medium_e01_cut1_mono_resampled.wav
3	148	2	1	0	C	2	1	754	1	poli_8sides 9_whiteLine3.jpg	MediumLong_b23_cut4_ML_mono_resampled.wav
3	149	3	3	2	I	2	0	1149	1	poli_8sides 5_whiteLine3.jpg	Medium_e26_mono_resampled.wav
3	150	2	2	1	C	1	1	792	1	poli_8sides 9_whiteLine3.jpg	MediumLong_b10_cut2_L_mono_resampled.wav
3	151	4	3	2	I	1	0	841	1	poli_8sides 13_whiteLine3.jpg	Medium_e26_mono_resampled.wav
3	152	1	2	0	C	2	1	804	1	poli_8sides 6_whiteLine3.jpg	MediumLong_b10_cut2_L_mono_resampled.wav
3	153	2	2	1	C	1	1	1264	1	poli_8sides 9_whiteLine3.jpg	MediumLong_b10_cut2_L_mono_resampled.wav
3	154	3	3	2	I	2	0	880	0	poli_8sides 5_whiteLine3.jpg	Medium_e26_mono_resampled.wav
3	155	1	1	1	C	1	1	1048	1	poli_8sides 6_whiteLine3.jpg	MediumLong_b23_cut4_ML_mono_resampled.wav
3	156	4	4	2	I	2	0	780	0	poli_8sides 13_whiteLine3.jpg	Medium_e01_cut1_mono_resampled.wav
3	157	3	4	2	I	1	0	992	1	poli_8sides 5_whiteLine3.jpg	Medium_e01_cut1_mono_resampled.wav
3	158	2	1	0	C	2	1	866	1	poli_8sides 9_whiteLine3.jpg	MediumLong_b23_cut4_ML_mono_resampled.wav
3	159	1	2	0	C	2	1	676	1	poli_8sides 6_whiteLine3.jpg	MediumLong_b10_cut2_L_mono_resampled.wav
3	160	4	3	2	I	1	0	1359	0	poli_8sides 13_whiteLine3.jpg	Medium_e26_mono_resampled.wav
3	161	2	1	0	C	2	1	678	1	poli_8sides 9_whiteLine3.jpg	MediumLong_b23_cut4_ML_mono_resampled.wav
3	162	1	1	1	C	1	1	880	1	poli_8sides 6_whiteLine3.jpg	MediumLong_b23_cut4_ML_mono_resampled.wav
3	163	3	3	2	I	2	0	1105	1	poli_8sides 5_whiteLine3.jpg	Medium_e26_mono_resampled.wav
3	164	4	3	2	I	1	0	1407	1	poli_8sides 13_whiteLine3.jpg	Medium_e26_mono_resampled.wav
3	165	2	2	1	C	1	1	880	1	poli_8sides 9_whiteLine3.jpg	MediumLong_b10_cut2_L_mono_resampled.wav
3	166	3	4	2	I	2	0	1540	1	poli_8sides 5_whiteLine3.jpg	Medium_e01_cut1_mono_resampled.wav
3	167	1	2	0	C	2	1	865	1	poli_8sides 6_whiteLine3.jpg	MediumLong_b10_cut2_L_mono_resampled.wav
3	168	4	4	2	I	2	0	1197	1	poli_8sides 13_whiteLine3.jpg	Medium_e01_cut1_mono_resampled.wav
3	169	1	2	0	C	2	1	932	1	poli_8sides 6_whiteLine3.jpg	MediumLong_b10_cut2_L_mono_resampled.wav
3	170	4	4	2	I	1	0	1388	1	poli_8sides 13_whiteLine3.jpg	Medium_e01_cut1_mono_resampled.wav
3	171	3	3	2	I	2	0	953	0	poli_8sides 5_whiteLine3.jpg	Medium_e26_mono_resampled.wav
3	172	2	2	1	C	1	1	884	1	poli_8sides 9_whiteLine3.jpg	MediumLong_b10_cut2_L_mono_resampled.wav
3	173	4	3	2	I	1	0	1296	1	poli_8sides 13_whiteLine3.jpg	Medium_e26_mono_resampled.wav
3	174	2	1	0	C	2	1	849	1	poli_8sides 9_whiteLine3.jpg	MediumLong_b23_cut4_ML_mono_resampled.wav
3	175	3	4	2	I	2	0	1208	0	poli_8sides 5_whiteLine3.jpg	Medium_e01_cut1_mono_resampled.wav
3	176	1	1	1	C	1	1	1173	1	poli_8sides 6_whiteLine3.jpg	MediumLong_b23_cut4_ML_mono_resampled.wav
3	177	3	3	2	I	2	0	1511	0	poli_8sides 5_whiteLine3.jpg	Medium_e26_mono_resampled.wav
3	178	2	1	0	C	2	1	669	1	poli_8sides 9_whiteLine3.jpg	MediumLong_b23_cut4_ML_mono_resampled.wav
3	179	4	4	2	I	2	0	1112	0	poli_8sides 13_whiteLine3.jpg	Medium_e01_cut1_mono_resampled.wav
3	180	1	2	0	C	2	1	867	1	poli_8sides 6_whiteLine3.jpg	MediumLong_b10_cut2_L_mono_resampled.wav
3	181	4	3	2	I	2	0	1142	1	poli_8sides 13_whiteLine3.jpg	Medium_e26_mono_resampled.wav
3	182	3	4	2	I	2	0	1159	1	poli_8sides 5_whiteLine3.jpg	Medium_e01_cut1_mono_resampled.wav
3	183	2	2	1	C	1	1	984	1	poli_8sides 9_whiteLine3.jpg	MediumLong_b10_cut2_L_mono_resampled.wav
3	184	1	1	1	C	1	1	823	1	poli_8sides 6_whiteLine3.jpg	MediumLong_b23_cut4_ML_mono_resampled.wav
3	185	4	4	2	I	2	0	1661	0	poli_8sides 13_whiteLine3.jpg	Medium_e01_cut1_mono_resampled.wav
3	186	1	2	0	C	2	1	1300	1	poli_8sides 6_whiteLine3.jpg	MediumLong_b10_cut2_L_mono_resampled.wav
3	187	2	2	1	C	1	1	1108	1	poli_8sides 9_whiteLine3.jpg	MediumLong_b10_cut2_L_mono_resampled.wav
3	188	3	3	2	I	2	0	1505	0	poli_8sides 5_whiteLine3.jpg	Medium_e26_mono_resampled.wav
3	189	4	3	2	I	2	0	907	1	poli_8sides 13_whiteLine3.jpg	Medium_e26_mono_resampled.wav
3	190	3	4	2	I	2	0	936	1	poli_8sides 5_whiteLine3.jpg	Medium_e01_cut1_mono_resampled.wav
3	191	1	1	1	C	1	1	884	1	poli_8sides 6_whiteLine3.jpg	MediumLong_b23_cut4_ML_mono_resampled.wav
3	192	2	1	0	C	2	1	606	1	poli_8sides 9_whiteLine3.jpg	MediumLong_b23_cut4_ML_mono_resampled.wav
3	193	1	2	0	C	2	1	881	1	poli_8sides 6_whiteLine3.jpg	MediumLong_b10_cut2_L_mono_resampled.wav
3	194	2	2	1	C	1	1	892	1	poli_8sides 9_whiteLine3.jpg	MediumLong_b10_cut2_L_mono_resampled.wav
3	195	3	4	2	I	2	0	1568	1	poli_8sides 5_whiteLine3.jpg	Medium_e01_cut1_mono_resampled.wav
3	196	4	3	2	I	1	0	1924	0	poli_8sides 13_whiteLine3.jpg	Medium_e26_mono_resampled.wav
3	197	1	1	1	C	1	1	1014	1	poli_8sides 6_whiteLine3.jpg	MediumLong_b23_cut4_ML_mono_resampled.wav
3	198	2	1	0	C	2	1	764	1	poli_8sides 9_whiteLine3.jpg	MediumLong_b23_cut4_ML_mono_resampled.wav
3	199	3	3	2	I	1	0	1232	0	poli_8sides 5_whiteLine3.jpg	Medium_e26_mono_resampled.wav
3	200	4	4	2	I	2	0	1724	1	poli_8sides 13_whiteLine3.jpg	Medium_e01_cut1_mono_resampled.wav
4	1	2	1	0	C	2	1	1665	1	poli_8sides 16_whiteLine3.jpg	Medium_e13_mono_resampled.wav
4	2	4	4	2	I	2	0	1516	1	poli_8sides 2_whiteLine3.jpg	MediumLong_e19_mono_resampled.wav
4	3	3	4	2	I	1	0	1569	1	poli_8sides 14_whiteLine3.jpg	MediumLong_e19_mono_resampled.wav
4	4	1	2	0	C	2	1	1339	1	poli_8sides 4_whiteLine3.jpg	Medium_e21_mono_resampled.wav
4	5	2	2	1	C	0	0	0	0	poli_8sides 16_whiteLine3.jpg	Medium_e21_mono_resampled.wav
4	6	1	1	1	C	2	0	1590	0	poli_8sides 4_whiteLine3.jpg	Medium_e13_mono_resampled.wav
4	7	3	3	2	I	1	0	1205	0	poli_8sides 14_whiteLine3.jpg	MediumLong_e04_mono_resampled.wav
4	8	4	3	2	I	2	0	772	1	poli_8sides 2_whiteLine3.jpg	MediumLong_e04_mono_resampled.wav
4	9	2	2	1	C	2	0	1027	0	poli_8sides 16_whiteLine3.jpg	Medium_e21_mono_resampled.wav
4	10	1	1	1	C	2	0	1324	0	poli_8sides 4_whiteLine3.jpg	Medium_e13_mono_resampled.wav
4	11	3	4	2	I	1	0	1589	1	poli_8sides 14_whiteLine3.jpg	MediumLong_e19_mono_resampled.wav
4	12	4	4	2	I	2	0	1458	1	poli_8sides 2_whiteLine3.jpg	MediumLong_e19_mono_resampled.wav
4	13	3	3	2	I	2	0	734	0	poli_8sides 14_whiteLine3.jpg	MediumLong_e04_mono_resampled.wav
4	14	2	1	0	C	2	1	1546	1	poli_8sides 16_whiteLine3.jpg	Medium_e13_mono_resampled.wav
4	15	1	2	0	C	2	1	1324	1	poli_8sides 4_whiteLine3.jpg	Medium_e21_mono_resampled.wav
4	16	4	3	2	I	2	0	1459	0	poli_8sides 2_whiteLine3.jpg	MediumLong_e04_mono_resampled.wav
4	17	2	1	0	C	1	0	1310	0	poli_8sides 16_whiteLine3.jpg	Medium_e13_mono_resampled.wav
4	18	1	2	0	C	2	1	1205	1	poli_8sides 4_whiteLine3.jpg	Medium_e21_mono_resampled.wav
4	19	3	4	2	I	1	0	1135	0	poli_8sides 14_whiteLine3.jpg	MediumLong_e19_mono_resampled.wav
4	20	4	4	2	I	2	0	1058	1	poli_8sides 2_whiteLine3.jpg	MediumLong_e19_mono_resampled.wav
4	21	3	3	2	I	1	0	1015	0	poli_8sides 14_whiteLine3.jpg	MediumLong_e04_mono_resampled.wav
4	22	4	3	2	I	1	0	1015	0	poli_8sides 2_whiteLine3.jpg	MediumLong_e04_mono_resampled.wav
4	23	1	1	1	C	2	0	755	0	poli_8sides 4_whiteLine3.jpg	Medium_e13_mono_resampled.wav
4	24	2	2	1	C	2	0	1113	0	poli_8sides 16_whiteLine3.jpg	Medium_e21_mono_resampled.wav
4	25	4	3	2	I	2	0	1546	1	poli_8sides 2_whiteLine3.jpg	MediumLong_e04_mono_resampled.wav
4	26	2	1	0	C	2	1	1156	1	poli_8sides 16_whiteLine3.jpg	Medium_e13_mono_resampled.wav
4	27	1	2	0	C	2	1	866	1	poli_8sides 4_whiteLine3.jpg	Medium_e21_mono_resampled.wav
4	28	3	4	2	I	1	0	1185	1	poli_8sides 14_whiteLine3.jpg	MediumLong_e19_mono_resampled.wav
4	29	1	1	1	C	2	0	696	0	poli_8sides 4_whiteLine3.jpg	Medium_e13_mono_resampled.wav
4	30	2	2	1	C	2	0	1364	0	poli_8sides 16_whiteLine3.jpg	Medium_e21_mono_resampled.wav
4	31	3	3	2	I	2	0	683	0	poli_8sides 14_whiteLine3.jpg	MediumLong_e04_mono_resampled.wav
4	32	4	4	2	I	1	0	1037	0	poli_8sides 2_whiteLine3.jpg	MediumLong_e19_mono_resampled.wav
4	33	1	2	0	C	2	1	780	1	poli_8sides 4_whiteLine3.jpg	Medium_e21_mono_resampled.wav
4	34	2	2	1	C	1	1	1235	1	poli_8sides 16_whiteLine3.jpg	Medium_e21_mono_resampled.wav
4	35	3	3	2	I	1	0	1226	0	poli_8sides 14_whiteLine3.jpg	MediumLong_e04_mono_resampled.wav
4	36	4	3	2	I	1	0	1125	0	poli_8sides 2_whiteLine3.jpg	MediumLong_e04_mono_resampled.wav
4	37	3	4	2	I	2	0	1738	1	poli_8sides 14_whiteLine3.jpg	MediumLong_e19_mono_resampled.wav
4	38	1	1	1	C	1	1	1225	1	poli_8sides 4_whiteLine3.jpg	Medium_e13_mono_resampled.wav
4	39	4	4	2	I	1	0	951	1	poli_8sides 2_whiteLine3.jpg	MediumLong_e19_mono_resampled.wav
4	40	2	1	0	C	1	0	1159	0	poli_8sides 16_whiteLine3.jpg	Medium_e13_mono_resampled.wav
4	41	3	4	2	I	2	0	1418	0	poli_8sides 14_whiteLine3.jpg	MediumLong_e19_mono_resampled.wav
4	42	1	1	1	C	2	0	698	0	poli_8sides 4_whiteLine3.jpg	Medium_e13_mono_resampled.wav
4	43	2	1	0	C	2	1	925	1	poli_8sides 16_whiteLine3.jpg	Medium_e13_mono_resampled.wav
4	44	4	3	2	I	2	0	641	0	poli_8sides 2_whiteLine3.jpg	MediumLong_e04_mono_resampled.wav
4	45	3	3	2	I	2	0	824	1	poli_8sides 14_whiteLine3.jpg	MediumLong_e04_mono_resampled.wav
4	46	4	4	2	I	2	0	814	1	poli_8sides 2_whiteLine3.jpg	MediumLong_e19_mono_resampled.wav
4	47	1	2	0	C	2	1	1016	1	poli_8sides 4_whiteLine3.jpg	Medium_e21_mono_resampled.wav
4	48	2	2	1	C	1	1	1061	1	poli_8sides 16_whiteLine3.jpg	Medium_e21_mono_resampled.wav
4	49	1	1	1	C	2	0	1350	0	poli_8sides 4_whiteLine3.jpg	Medium_e13_mono_resampled.wav
4	50	2	2	1	C	1	1	1441	1	poli_8sides 16_whiteLine3.jpg	Medium_e21_mono_resampled.wav
4	51	4	3	2	I	2	0	1009	0	poli_8sides 2_whiteLine3.jpg	MediumLong_e04_mono_resampled.wav
4	52	3	4	2	I	1	0	802	1	poli_8sides 14_whiteLine3.jpg	MediumLong_e19_mono_resampled.wav
4	53	2	1	0	C	2	1	868	1	poli_8sides 16_whiteLine3.jpg	Medium_e13_mono_resampled.wav
4	54	1	2	0	C	2	1	893	1	poli_8sides 4_whiteLine3.jpg	Medium_e21_mono_resampled.wav
4	55	4	4	2	I	2	0	1056	0	poli_8sides 2_whiteLine3.jpg	MediumLong_e19_mono_resampled.wav
4	56	3	3	2	I	2	0	729	0	poli_8sides 14_whiteLine3.jpg	MediumLong_e04_mono_resampled.wav
4	57	4	4	2	I	2	0	776	1	poli_8sides 2_whiteLine3.jpg	MediumLong_e19_mono_resampled.wav
4	58	3	3	2	I	2	0	620	1	poli_8sides 14_whiteLine3.jpg	MediumLong_e04_mono_resampled.wav
4	59	2	1	0	C	1	0	729	0	poli_8sides 16_whiteLine3.jpg	Medium_e13_mono_resampled.wav
4	60	1	2	0	C	2	1	1119	1	poli_8sides 4_whiteLine3.jpg	Medium_e21_mono_resampled.wav
4	61	4	3	2	I	1	0	891	0	poli_8sides 2_whiteLine3.jpg	MediumLong_e04_mono_resampled.wav
4	62	2	2	1	C	1	1	1130	1	poli_8sides 16_whiteLine3.jpg	Medium_e21_mono_resampled.wav
4	63	3	4	2	I	1	0	1116	0	poli_8sides 14_whiteLine3.jpg	MediumLong_e19_mono_resampled.wav
4	64	1	1	1	C	2	0	870	0	poli_8sides 4_whiteLine3.jpg	Medium_e13_mono_resampled.wav
4	65	4	3	2	I	1	0	1181	0	poli_8sides 2_whiteLine3.jpg	MediumLong_e04_mono_resampled.wav
4	66	3	3	2	I	2	0	708	0	poli_8sides 14_whiteLine3.jpg	MediumLong_e04_mono_resampled.wav
4	67	2	1	0	C	1	0	995	0	poli_8sides 16_whiteLine3.jpg	Medium_e13_mono_resampled.wav
4	68	1	2	0	C	2	1	810	1	poli_8sides 4_whiteLine3.jpg	Medium_e21_mono_resampled.wav
4	69	2	2	1	C	1	1	1319	1	poli_8sides 16_whiteLine3.jpg	Medium_e21_mono_resampled.wav
4	70	1	1	1	C	1	1	1007	1	poli_8sides 4_whiteLine3.jpg	Medium_e13_mono_resampled.wav
4	71	4	4	2	I	2	0	1000	1	poli_8sides 2_whiteLine3.jpg	MediumLong_e19_mono_resampled.wav
4	72	3	4	2	I	2	0	1289	1	poli_8sides 14_whiteLine3.jpg	MediumLong_e19_mono_resampled.wav
4	73	1	2	0	C	2	1	967	1	poli_8sides 4_whiteLine3.jpg	Medium_e21_mono_resampled.wav
4	74	3	4	2	I	1	0	1838	0	poli_8sides 14_whiteLine3.jpg	MediumLong_e19_mono_resampled.wav
4	75	2	1	0	C	2	1	758	1	poli_8sides 16_whiteLine3.jpg	Medium_e13_mono_resampled.wav
4	76	4	3	2	I	2	0	1047	0	poli_8sides 2_whiteLine3.jpg	MediumLong_e04_mono_resampled.wav
4	77	3	3	2	I	2	0	704	1	poli_8sides 14_whiteLine3.jpg	MediumLong_e04_mono_resampled.wav
4	78	2	2	1	C	1	1	1048	1	poli_8sides 16_whiteLine3.jpg	Medium_e21_mono_resampled.wav
4	79	1	1	1	C	1	1	972	1	poli_8sides 4_whiteLine3.jpg	Medium_e13_mono_resampled.wav
4	80	4	4	2	I	2	0	861	1	poli_8sides 2_whiteLine3.jpg	MediumLong_e19_mono_resampled.wav
4	81	2	1	0	C	2	1	1249	1	poli_8sides 16_whiteLine3.jpg	Medium_e13_mono_resampled.wav
4	82	4	4	2	I	2	0	831	0	poli_8sides 2_whiteLine3.jpg	MediumLong_e19_mono_resampled.wav
4	83	3	3	2	I	2	0	994	1	poli_8sides 14_whiteLine3.jpg	MediumLong_e04_mono_resampled.wav
4	84	1	1	1	C	1	1	1138	1	poli_8sides 4_whiteLine3.jpg	Medium_e13_mono_resampled.wav
4	85	3	4	2	I	1	0	1469	0	poli_8sides 14_whiteLine3.jpg	MediumLong_e19_mono_resampled.wav
4	86	4	3	2	I	1	0	1341	0	poli_8sides 2_whiteLine3.jpg	MediumLong_e04_mono_resampled.wav
4	87	1	2	0	C	2	1	893	1	poli_8sides 4_whiteLine3.jpg	Medium_e21_mono_resampled.wav
4	88	2	2	1	C	1	1	1046	1	poli_8sides 16_whiteLine3.jpg	Medium_e21_mono_resampled.wav
4	89	4	4	2	I	2	0	871	0	poli_8sides 2_whiteLine3.jpg	MediumLong_e19_mono_resampled.wav
4	90	3	4	2	I	2	0	772	0	poli_8sides 14_whiteLine3.jpg	MediumLong_e19_mono_resampled.wav
4	91	1	1	1	C	1	1	865	1	poli_8sides 4_whiteLine3.jpg	Medium_e13_mono_resampled.wav
4	92	2	2	1	C	1	1	1221	1	poli_8sides 16_whiteLine3.jpg	Medium_e21_mono_resampled.wav
4	93	3	3	2	I	2	0	619	0	poli_8sides 14_whiteLine3.jpg	MediumLong_e04_mono_resampled.wav
4	94	4	3	2	I	2	0	894	0	poli_8sides 2_whiteLine3.jpg	MediumLong_e04_mono_resampled.wav
4	95	2	1	0	C	2	1	1093	1	poli_8sides 16_whiteLine3.jpg	Medium_e13_mono_resampled.wav
4	96	1	2	0	C	2	1	762	1	poli_8sides 4_whiteLine3.jpg	Medium_e21_mono_resampled.wav
4	97	2	1	0	C	2	1	868	1	poli_8sides 16_whiteLine3.jpg	Medium_e13_mono_resampled.wav
4	98	4	4	2	I	2	0	1138	1	poli_8sides 2_whiteLine3.jpg	MediumLong_e19_mono_resampled.wav
4	99	1	2	0	C	1	0	1406	0	poli_8sides 4_whiteLine3.jpg	Medium_e21_mono_resampled.wav
4	100	3	4	2	I	2	0	1053	0	poli_8sides 14_whiteLine3.jpg	MediumLong_e19_mono_resampled.wav
4	101	1	1	1	C	1	1	1070	1	poli_8sides 4_whiteLine3.jpg	Medium_e13_mono_resampled.wav
4	102	2	2	1	C	2	0	1217	0	poli_8sides 16_whiteLine3.jpg	Medium_e21_mono_resampled.wav
4	103	4	3	2	I	2	0	829	0	poli_8sides 2_whiteLine3.jpg	MediumLong_e04_mono_resampled.wav
4	104	3	3	2	I	2	0	669	1	poli_8sides 14_whiteLine3.jpg	MediumLong_e04_mono_resampled.wav
4	105	2	2	1	C	1	1	1302	1	poli_8sides 16_whiteLine3.jpg	Medium_e21_mono_resampled.wav
4	106	1	1	1	C	1	1	979	1	poli_8sides 4_whiteLine3.jpg	Medium_e13_mono_resampled.wav
4	107	3	3	2	I	2	0	766	0	poli_8sides 14_whiteLine3.jpg	MediumLong_e04_mono_resampled.wav
4	108	4	4	2	I	2	0	769	1	poli_8sides 2_whiteLine3.jpg	MediumLong_e19_mono_resampled.wav
4	109	1	2	0	C	2	1	988	1	poli_8sides 4_whiteLine3.jpg	Medium_e21_mono_resampled.wav
4	110	4	3	2	I	2	0	1135	0	poli_8sides 2_whiteLine3.jpg	MediumLong_e04_mono_resampled.wav
4	111	2	1	0	C	1	0	1471	0	poli_8sides 16_whiteLine3.jpg	Medium_e13_mono_resampled.wav
4	112	3	4	2	I	2	0	1291	1	poli_8sides 14_whiteLine3.jpg	MediumLong_e19_mono_resampled.wav
4	113	1	2	0	C	2	1	911	1	poli_8sides 4_whiteLine3.jpg	Medium_e21_mono_resampled.wav
4	114	3	3	2	I	2	0	814	1	poli_8sides 14_whiteLine3.jpg	MediumLong_e04_mono_resampled.wav
4	115	2	1	0	C	1	0	1214	0	poli_8sides 16_whiteLine3.jpg	Medium_e13_mono_resampled.wav
4	116	4	4	2	I	2	0	1054	0	poli_8sides 2_whiteLine3.jpg	MediumLong_e19_mono_resampled.wav
4	117	3	4	2	I	2	0	890	1	poli_8sides 14_whiteLine3.jpg	MediumLong_e19_mono_resampled.wav
4	118	1	1	1	C	2	0	857	0	poli_8sides 4_whiteLine3.jpg	Medium_e13_mono_resampled.wav
4	119	4	3	2	I	2	0	775	1	poli_8sides 2_whiteLine3.jpg	MediumLong_e04_mono_resampled.wav
4	120	2	2	1	C	1	1	1285	1	poli_8sides 16_whiteLine3.jpg	Medium_e21_mono_resampled.wav
4	121	4	4	2	I	2	0	813	0	poli_8sides 2_whiteLine3.jpg	MediumLong_e19_mono_resampled.wav
4	122	2	1	0	C	1	0	1150	0	poli_8sides 16_whiteLine3.jpg	Medium_e13_mono_resampled.wav
4	123	1	1	1	C	2	0	1136	0	poli_8sides 4_whiteLine3.jpg	Medium_e13_mono_resampled.wav
4	124	3	3	2	I	2	0	840	0	poli_8sides 14_whiteLine3.jpg	MediumLong_e04_mono_resampled.wav
4	125	4	3	2	I	2	0	832	1	poli_8sides 2_whiteLine3.jpg	MediumLong_e04_mono_resampled.wav
4	126	3	4	2	I	2	0	1370	0	poli_8sides 14_whiteLine3.jpg	MediumLong_e19_mono_resampled.wav
4	127	1	2	0	C	2	1	975	1	poli_8sides 4_whiteLine3.jpg	Medium_e21_mono_resampled.wav
4	128	2	2	1	C	2	0	1321	0	poli_8sides 16_whiteLine3.jpg	Medium_e21_mono_resampled.wav
4	129	4	4	2	I	2	0	868	1	poli_8sides 2_whiteLine3.jpg	MediumLong_e19_mono_resampled.wav
4	130	1	1	1	C	2	0	1000	0	poli_8sides 4_whiteLine3.jpg	Medium_e13_mono_resampled.wav
4	131	3	4	2	I	2	0	766	1	poli_8sides 14_whiteLine3.jpg	MediumLong_e19_mono_resampled.wav
4	132	2	1	0	C	1	0	704	0	poli_8sides 16_whiteLine3.jpg	Medium_e13_mono_resampled.wav
4	133	3	3	2	I	2	0	1136	1	poli_8sides 14_whiteLine3.jpg	MediumLong_e04_mono_resampled.wav
4	134	4	3	2	I	2	0	1501	0	poli_8sides 2_whiteLine3.jpg	MediumLong_e04_mono_resampled.wav
4	135	2	2	1	C	1	1	1268	1	poli_8sides 16_whiteLine3.jpg	Medium_e21_mono_resampled.wav
4	136	1	2	0	C	1	0	1443	0	poli_8sides 4_whiteLine3.jpg	Medium_e21_mono_resampled.wav
4	137	2	1	0	C	2	1	1367	1	poli_8sides 16_whiteLine3.jpg	Medium_e13_mono_resampled.wav
4	138	1	1	1	C	2	0	786	0	poli_8sides 4_whiteLine3.jpg	Medium_e13_mono_resampled.wav
4	139	4	3	2	I	2	0	1317	0	poli_8sides 2_whiteLine3.jpg	MediumLong_e04_mono_resampled.wav
4	140	3	4	2	I	2	0	852	1	poli_8sides 14_whiteLine3.jpg	MediumLong_e19_mono_resampled.wav
4	141	4	4	2	I	2	0	1151	0	poli_8sides 2_whiteLine3.jpg	MediumLong_e19_mono_resampled.wav
4	142	2	2	1	C	2	0	1241	0	poli_8sides 16_whiteLine3.jpg	Medium_e21_mono_resampled.wav
4	143	3	3	2	I	2	0	837	0	poli_8sides 14_whiteLine3.jpg	MediumLong_e04_mono_resampled.wav
4	144	1	2	0	C	2	1	1024	1	poli_8sides 4_whiteLine3.jpg	Medium_e21_mono_resampled.wav
4	145	2	1	0	C	1	0	695	0	poli_8sides 16_whiteLine3.jpg	Medium_e13_mono_resampled.wav
4	146	1	2	0	C	2	1	839	1	poli_8sides 4_whiteLine3.jpg	Medium_e21_mono_resampled.wav
4	147	3	3	2	I	2	0	829	0	poli_8sides 14_whiteLine3.jpg	MediumLong_e04_mono_resampled.wav
4	148	4	3	2	I	2	0	722	1	poli_8sides 2_whiteLine3.jpg	MediumLong_e04_mono_resampled.wav
4	149	1	1	1	C	1	1	1410	1	poli_8sides 4_whiteLine3.jpg	Medium_e13_mono_resampled.wav
4	150	4	4	2	I	2	0	994	1	poli_8sides 2_whiteLine3.jpg	MediumLong_e19_mono_resampled.wav
4	151	2	2	1	C	1	1	1426	1	poli_8sides 16_whiteLine3.jpg	Medium_e21_mono_resampled.wav
4	152	3	4	2	I	2	0	1538	1	poli_8sides 14_whiteLine3.jpg	MediumLong_e19_mono_resampled.wav
4	153	1	2	0	C	2	1	1189	1	poli_8sides 4_whiteLine3.jpg	Medium_e21_mono_resampled.wav
4	154	4	3	2	I	2	0	1457	0	poli_8sides 2_whiteLine3.jpg	MediumLong_e04_mono_resampled.wav
4	155	3	4	2	I	2	0	764	1	poli_8sides 14_whiteLine3.jpg	MediumLong_e19_mono_resampled.wav
4	156	2	1	0	C	2	1	1083	1	poli_8sides 16_whiteLine3.jpg	Medium_e13_mono_resampled.wav
4	157	3	3	2	I	2	0	1726	1	poli_8sides 14_whiteLine3.jpg	MediumLong_e04_mono_resampled.wav
4	158	4	4	2	I	1	0	1346	0	poli_8sides 2_whiteLine3.jpg	MediumLong_e19_mono_resampled.wav
4	159	2	2	1	C	1	1	1605	1	poli_8sides 16_whiteLine3.jpg	Medium_e21_mono_resampled.wav
4	160	1	1	1	C	1	1	1232	1	poli_8sides 4_whiteLine3.jpg	Medium_e13_mono_resampled.wav
4	161	2	2	1	C	1	1	1597	1	poli_8sides 16_whiteLine3.jpg	Medium_e21_mono_resampled.wav
4	162	1	2	0	C	2	1	1242	1	poli_8sides 4_whiteLine3.jpg	Medium_e21_mono_resampled.wav
4	163	3	3	2	I	2	0	828	1	poli_8sides 14_whiteLine3.jpg	MediumLong_e04_mono_resampled.wav
4	164	4	3	2	I	1	0	1203	1	poli_8sides 2_whiteLine3.jpg	MediumLong_e04_mono_resampled.wav
4	165	1	1	1	C	1	1	1104	1	poli_8sides 4_whiteLine3.jpg	Medium_e13_mono_resampled.wav
4	166	3	4	2	I	2	0	1198	1	poli_8sides 14_whiteLine3.jpg	MediumLong_e19_mono_resampled.wav
4	167	2	1	0	C	2	1	1500	1	poli_8sides 16_whiteLine3.jpg	Medium_e13_mono_resampled.wav
4	168	4	4	2	I	2	0	1802	1	poli_8sides 2_whiteLine3.jpg	MediumLong_e19_mono_resampled.wav
4	169	3	4	2	I	2	0	1474	1	poli_8sides 14_whiteLine3.jpg	MediumLong_e19_mono_resampled.wav
4	170	4	4	2	I	2	0	1190	1	poli_8sides 2_whiteLine3.jpg	MediumLong_e19_mono_resampled.wav
4	171	1	2	0	C	2	1	1091	1	poli_8sides 4_whiteLine3.jpg	Medium_e21_mono_resampled.wav
4	172	2	1	0	C	2	1	1319	1	poli_8sides 16_whiteLine3.jpg	Medium_e13_mono_resampled.wav
4	173	3	3	2	I	1	0	1362	1	poli_8sides 14_whiteLine3.jpg	MediumLong_e04_mono_resampled.wav
4	174	4	3	2	I	2	0	955	1	poli_8sides 2_whiteLine3.jpg	MediumLong_e04_mono_resampled.wav
4	175	2	2	1	C	1	1	1509	1	poli_8sides 16_whiteLine3.jpg	Medium_e21_mono_resampled.wav
4	176	1	1	1	C	1	1	1256	1	poli_8sides 4_whiteLine3.jpg	Medium_e13_mono_resampled.wav
4	177	4	3	2	I	2	0	1514	1	poli_8sides 2_whiteLine3.jpg	MediumLong_e04_mono_resampled.wav
4	178	1	1	1	C	1	1	1443	1	poli_8sides 4_whiteLine3.jpg	Medium_e13_mono_resampled.wav
4	179	3	4	2	I	2	0	1752	0	poli_8sides 14_whiteLine3.jpg	MediumLong_e19_mono_resampled.wav
4	180	2	1	0	C	2	1	1242	1	poli_8sides 16_whiteLine3.jpg	Medium_e13_mono_resampled.wav
4	181	4	4	2	I	0	0	0	0	poli_8sides 2_whiteLine3.jpg	MediumLong_e19_mono_resampled.wav
4	182	3	3	2	I	2	0	1246	0	poli_8sides 14_whiteLine3.jpg	MediumLong_e04_mono_resampled.wav
4	183	2	2	1	C	1	1	1282	1	poli_8sides 16_whiteLine3.jpg	Medium_e21_mono_resampled.wav
4	184	1	2	0	C	2	1	1701	1	poli_8sides 4_whiteLine3.jpg	Medium_e21_mono_resampled.wav
4	185	2	2	1	C	1	1	1173	1	poli_8sides 16_whiteLine3.jpg	Medium_e21_mono_resampled.wav
4	186	4	4	2	I	2	0	1814	1	poli_8sides 2_whiteLine3.jpg	MediumLong_e19_mono_resampled.wav
4	187	3	3	2	I	2	0	1111	0	poli_8sides 14_whiteLine3.jpg	MediumLong_e04_mono_resampled.wav
4	188	1	1	1	C	2	0	1850	0	poli_8sides 4_whiteLine3.jpg	Medium_e13_mono_resampled.wav
4	189	2	1	0	C	2	1	1011	1	poli_8sides 16_whiteLine3.jpg	Medium_e13_mono_resampled.wav
4	190	3	4	2	I	2	0	1537	0	poli_8sides 14_whiteLine3.jpg	MediumLong_e19_mono_resampled.wav
4	191	4	3	2	I	1	0	1822	0	poli_8sides 2_whiteLine3.jpg	MediumLong_e04_mono_resampled.wav
4	192	1	2	0	C	2	1	1207	1	poli_8sides 4_whiteLine3.jpg	Medium_e21_mono_resampled.wav
4	193	3	3	2	I	2	0	1150	1	poli_8sides 14_whiteLine3.jpg	MediumLong_e04_mono_resampled.wav
4	194	2	2	1	C	1	1	1213	1	poli_8sides 16_whiteLine3.jpg	Medium_e21_mono_resampled.wav
4	195	1	1	1	C	2	0	1792	0	poli_8sides 4_whiteLine3.jpg	Medium_e13_mono_resampled.wav
4	196	4	4	2	I	0	0	0	0	poli_8sides 2_whiteLine3.jpg	MediumLong_e19_mono_resampled.wav
4	197	1	2	0	C	2	1	1158	1	poli_8sides 4_whiteLine3.jpg	Medium_e21_mono_resampled.wav
4	198	2	1	0	C	1	0	772	0	poli_8sides 16_whiteLine3.jpg	Medium_e13_mono_resampled.wav
4	199	3	4	2	I	2	0	1025	0	poli_8sides 14_whiteLine3.jpg	MediumLong_e19_mono_resampled.wav
4	200	4	3	2	I	2	0	869	1	poli_8sides 2_whiteLine3.jpg	MediumLong_e04_mono_resampled.wav
