block	trial	Vstim	Astim	match	C/I	resp	.result	RT	fb	V-file	A-file
RL

0	1	1	1	1	C	0	0	0	0	Ⴢ	cut_ee.wav
0	2	2	3	1	C	0	0	0	0	Ⴋ	cut_oo.wav
0	3	1	2	0	C	0	0	0	0	Ⴢ	cut_g.wav
0	4	2	4	0	C	1	0	1371	0	Ⴋ	cut_eeuw.wav
0	5	2	3	1	C	0	0	0	0	Ⴋ	cut_oo.wav
0	6	1	1	1	C	1	1	1075	1	Ⴢ	cut_ee.wav
0	7	1	2	0	C	1	0	924	0	Ⴢ	cut_g.wav
0	8	2	4	0	C	1	0	859	0	Ⴋ	cut_eeuw.wav
0	9	2	4	0	C	1	0	1554	0	Ⴋ	cut_eeuw.wav
0	10	1	1	1	C	1	1	1420	1	Ⴢ	cut_ee.wav
0	11	2	3	1	C	2	0	765	0	Ⴋ	cut_oo.wav
0	12	1	2	0	C	2	1	1336	1	Ⴢ	cut_g.wav
0	13	1	2	0	C	2	1	1210	1	Ⴢ	cut_g.wav
0	14	1	1	1	C	2	0	1116	0	Ⴢ	cut_ee.wav
0	15	2	3	1	C	1	1	1585	1	Ⴋ	cut_oo.wav
0	16	2	4	0	C	0	0	0	0	Ⴋ	cut_eeuw.wav
0	17	1	1	1	C	2	0	1928	0	Ⴢ	cut_ee.wav
0	18	1	2	0	C	0	0	0	0	Ⴢ	cut_g.wav
0	19	2	3	1	C	0	0	0	0	Ⴋ	cut_oo.wav
0	20	2	4	0	C	0	0	0	0	Ⴋ	cut_eeuw.wav
0	21	1	1	1	C	0	0	0	0	Ⴢ	cut_ee.wav
0	22	2	4	0	C	0	0	0	0	Ⴋ	cut_eeuw.wav
0	23	1	2	0	C	0	0	0	0	Ⴢ	cut_g.wav
0	24	2	3	1	C	0	0	0	0	Ⴋ	cut_oo.wav
0	25	1	1	1	C	0	0	0	0	Ⴢ	cut_ee.wav
0	26	2	3	1	C	0	0	0	0	Ⴋ	cut_oo.wav
0	27	1	2	0	C	0	0	0	0	Ⴢ	cut_g.wav
0	28	2	4	0	C	0	0	0	0	Ⴋ	cut_eeuw.wav
0	29	1	2	0	C	0	0	0	0	Ⴢ	cut_g.wav
0	30	1	1	1	C	2	0	1034	0	Ⴢ	cut_ee.wav
avg_resp = 1325
1	1	3	4	2	I	2	0	1536	1	Ⴋ	cut_nk.wav
1	2	1	2	0	C	1	0	1000	0	Ⴂ	cut_ieuw.wav
1	3	4	3	2	I	2	0	1276	0	Ⴞ	cut_eeuw.wav
1	4	2	1	0	C	1	0	1350	0	Ⴡ	cut_ooi.wav
1	5	3	3	2	I	2	0	1104	1	Ⴋ	cut_eeuw.wav
1	6	2	2	1	C	2	0	1052	0	Ⴡ	cut_ieuw.wav
1	7	4	4	2	I	2	0	1135	1	Ⴞ	cut_nk.wav
1	8	1	1	1	C	1	1	1510	1	Ⴂ	cut_ooi.wav
1	9	2	2	1	C	2	0	1108	0	Ⴡ	cut_ieuw.wav
1	10	1	2	0	C	2	1	913	1	Ⴂ	cut_ieuw.wav
1	11	3	4	2	I	1	0	1205	0	Ⴋ	cut_nk.wav
1	12	4	4	2	I	2	0	993	1	Ⴞ	cut_nk.wav
1	13	1	1	1	C	2	0	1352	0	Ⴂ	cut_ooi.wav
1	14	2	1	0	C	2	1	1219	1	Ⴡ	cut_ooi.wav
1	15	4	3	2	I	1	0	1263	0	Ⴞ	cut_eeuw.wav
1	16	3	3	2	I	1	0	1851	0	Ⴋ	cut_eeuw.wav
1	17	4	3	2	I	2	0	1082	0	Ⴞ	cut_eeuw.wav
1	18	2	2	1	C	2	0	1336	0	Ⴡ	cut_ieuw.wav
1	19	1	2	0	C	2	1	995	1	Ⴂ	cut_ieuw.wav
1	20	3	3	2	I	2	0	1157	0	Ⴋ	cut_eeuw.wav
1	21	2	1	0	C	2	1	857	1	Ⴡ	cut_ooi.wav
1	22	3	4	2	I	2	0	829	0	Ⴋ	cut_nk.wav
1	23	4	4	2	I	2	0	911	0	Ⴞ	cut_nk.wav
1	24	1	1	1	C	2	0	1351	0	Ⴂ	cut_ooi.wav
1	25	3	3	2	I	2	0	893	1	Ⴋ	cut_eeuw.wav
1	26	2	1	0	C	2	1	918	1	Ⴡ	cut_ooi.wav
1	27	1	1	1	C	1	1	993	1	Ⴂ	cut_ooi.wav
1	28	4	3	2	I	2	0	935	1	Ⴞ	cut_eeuw.wav
1	29	1	2	0	C	1	0	1343	0	Ⴂ	cut_ieuw.wav
1	30	4	4	2	I	1	0	1274	1	Ⴞ	cut_nk.wav
1	31	2	2	1	C	2	0	1022	0	Ⴡ	cut_ieuw.wav
1	32	3	4	2	I	2	0	994	1	Ⴋ	cut_nk.wav
1	33	2	2	1	C	1	1	1257	1	Ⴡ	cut_ieuw.wav
1	34	1	2	0	C	2	1	1023	1	Ⴂ	cut_ieuw.wav
1	35	3	3	2	I	2	0	916	0	Ⴋ	cut_eeuw.wav
1	36	4	3	2	I	1	0	1553	0	Ⴞ	cut_eeuw.wav
1	37	2	1	0	C	2	1	967	1	Ⴡ	cut_ooi.wav
1	38	4	4	2	I	2	0	1148	1	Ⴞ	cut_nk.wav
1	39	1	1	1	C	2	0	1265	0	Ⴂ	cut_ooi.wav
1	40	3	4	2	I	2	0	709	1	Ⴋ	cut_nk.wav
1	41	1	1	1	C	1	1	1509	1	Ⴂ	cut_ooi.wav
1	42	2	1	0	C	2	1	758	1	Ⴡ	cut_ooi.wav
1	43	4	4	2	I	2	0	959	1	Ⴞ	cut_nk.wav
1	44	3	4	2	I	1	0	893	0	Ⴋ	cut_nk.wav
1	45	4	3	2	I	1	0	1195	0	Ⴞ	cut_eeuw.wav
1	46	3	3	2	I	1	0	1401	0	Ⴋ	cut_eeuw.wav
1	47	1	2	0	C	2	1	1250	1	Ⴂ	cut_ieuw.wav
1	48	2	2	1	C	1	1	1076	1	Ⴡ	cut_ieuw.wav
1	49	1	2	0	C	2	1	948	1	Ⴂ	cut_ieuw.wav
1	50	3	3	2	I	1	0	1732	0	Ⴋ	cut_eeuw.wav
1	51	2	2	1	C	1	1	1270	1	Ⴡ	cut_ieuw.wav
1	52	4	4	2	I	2	0	1020	1	Ⴞ	cut_nk.wav
1	53	1	1	1	C	1	1	1618	1	Ⴂ	cut_ooi.wav
1	54	4	3	2	I	1	0	1666	0	Ⴞ	cut_eeuw.wav
1	55	3	4	2	I	2	0	771	1	Ⴋ	cut_nk.wav
1	56	2	1	0	C	2	1	929	1	Ⴡ	cut_ooi.wav
1	57	3	3	2	I	2	0	1575	0	Ⴋ	cut_eeuw.wav
1	58	4	3	2	I	1	0	1358	0	Ⴞ	cut_eeuw.wav
1	59	1	1	1	C	1	1	1503	1	Ⴂ	cut_ooi.wav
1	60	2	2	1	C	1	1	1894	1	Ⴡ	cut_ieuw.wav
1	61	3	4	2	I	2	0	656	1	Ⴋ	cut_nk.wav
1	62	4	4	2	I	2	0	714	0	Ⴞ	cut_nk.wav
1	63	2	1	0	C	2	1	932	1	Ⴡ	cut_ooi.wav
1	64	1	2	0	C	2	1	1193	1	Ⴂ	cut_ieuw.wav
1	65	2	1	0	C	2	1	862	1	Ⴡ	cut_ooi.wav
1	66	1	2	0	C	2	1	820	1	Ⴂ	cut_ieuw.wav
1	67	4	4	2	I	1	0	1186	0	Ⴞ	cut_nk.wav
1	68	3	4	2	I	2	0	992	0	Ⴋ	cut_nk.wav
1	69	2	2	1	C	2	0	845	0	Ⴡ	cut_ieuw.wav
1	70	3	3	2	I	1	0	1365	1	Ⴋ	cut_eeuw.wav
1	71	1	1	1	C	1	1	1464	1	Ⴂ	cut_ooi.wav
1	72	4	3	2	I	2	0	1476	1	Ⴞ	cut_eeuw.wav
1	73	3	3	2	I	1	0	975	1	Ⴋ	cut_eeuw.wav
1	74	2	1	0	C	2	1	792	1	Ⴡ	cut_ooi.wav
1	75	1	1	1	C	1	1	802	1	Ⴂ	cut_ooi.wav
1	76	4	4	2	I	1	0	1310	0	Ⴞ	cut_nk.wav
1	77	2	2	1	C	2	0	800	0	Ⴡ	cut_ieuw.wav
1	78	4	3	2	I	2	0	1193	0	Ⴞ	cut_eeuw.wav
1	79	1	2	0	C	2	1	1042	1	Ⴂ	cut_ieuw.wav
1	80	3	4	2	I	2	0	1198	1	Ⴋ	cut_nk.wav
1	81	4	3	2	I	2	0	1500	0	Ⴞ	cut_eeuw.wav
1	82	1	1	1	C	1	1	1913	1	Ⴂ	cut_ooi.wav
1	83	3	3	2	I	1	0	1437	0	Ⴋ	cut_eeuw.wav
1	84	2	2	1	C	1	1	1381	1	Ⴡ	cut_ieuw.wav
1	85	1	2	0	C	2	1	1087	1	Ⴂ	cut_ieuw.wav
1	86	3	4	2	I	2	0	1062	1	Ⴋ	cut_nk.wav
1	87	4	4	2	I	1	0	842	0	Ⴞ	cut_nk.wav
1	88	2	1	0	C	0	0	0	0	Ⴡ	cut_ooi.wav
1	89	1	1	1	C	1	1	1410	1	Ⴂ	cut_ooi.wav
1	90	3	4	2	I	2	0	1373	1	Ⴋ	cut_nk.wav
1	91	4	3	2	I	2	0	1247	1	Ⴞ	cut_eeuw.wav
1	92	2	1	0	C	2	1	994	1	Ⴡ	cut_ooi.wav
1	93	4	4	2	I	1	0	1337	0	Ⴞ	cut_nk.wav
1	94	2	2	1	C	1	1	1455	1	Ⴡ	cut_ieuw.wav
1	95	1	2	0	C	2	1	1075	1	Ⴂ	cut_ieuw.wav
1	96	3	3	2	I	1	0	1600	0	Ⴋ	cut_eeuw.wav
1	97	2	1	0	C	2	1	1300	1	Ⴡ	cut_ooi.wav
1	98	4	3	2	I	2	0	1121	0	Ⴞ	cut_eeuw.wav
1	99	1	2	0	C	2	1	1324	1	Ⴂ	cut_ieuw.wav
1	100	3	3	2	I	1	0	1304	1	Ⴋ	cut_eeuw.wav
1	101	2	2	1	C	1	1	1331	1	Ⴡ	cut_ieuw.wav
1	102	1	1	1	C	1	1	1189	1	Ⴂ	cut_ooi.wav
1	103	4	4	2	I	1	0	1265	0	Ⴞ	cut_nk.wav
1	104	3	4	2	I	1	0	1372	0	Ⴋ	cut_nk.wav
1	105	2	1	0	C	2	1	1274	1	Ⴡ	cut_ooi.wav
1	106	1	2	0	C	1	0	612	0	Ⴂ	cut_ieuw.wav
1	107	4	3	2	I	2	0	996	1	Ⴞ	cut_eeuw.wav
1	108	3	4	2	I	2	0	1044	0	Ⴋ	cut_nk.wav
1	109	1	1	1	C	1	1	1231	1	Ⴂ	cut_ooi.wav
1	110	2	2	1	C	1	1	1136	1	Ⴡ	cut_ieuw.wav
1	111	3	3	2	I	1	0	1148	0	Ⴋ	cut_eeuw.wav
1	112	4	4	2	I	1	0	951	1	Ⴞ	cut_nk.wav
1	113	1	1	1	C	1	1	1191	1	Ⴂ	cut_ooi.wav
1	114	4	3	2	I	2	0	1228	1	Ⴞ	cut_eeuw.wav
1	115	2	2	1	C	1	1	1387	1	Ⴡ	cut_ieuw.wav
1	116	3	4	2	I	2	0	1182	1	Ⴋ	cut_nk.wav
1	117	1	2	0	C	2	1	1364	1	Ⴂ	cut_ieuw.wav
1	118	4	4	2	I	1	0	999	1	Ⴞ	cut_nk.wav
1	119	2	1	0	C	2	1	1125	1	Ⴡ	cut_ooi.wav
1	120	3	3	2	I	1	0	1300	0	Ⴋ	cut_eeuw.wav
1	121	1	1	1	C	1	1	1179	1	Ⴂ	cut_ooi.wav
1	122	4	4	2	I	1	0	1332	0	Ⴞ	cut_nk.wav
1	123	2	2	1	C	1	1	1641	1	Ⴡ	cut_ieuw.wav
1	124	3	3	2	I	1	0	1468	0	Ⴋ	cut_eeuw.wav
1	125	4	3	2	I	2	0	710	1	Ⴞ	cut_eeuw.wav
1	126	3	4	2	I	0	0	0	0	Ⴋ	cut_nk.wav
1	127	1	2	0	C	2	1	1042	1	Ⴂ	cut_ieuw.wav
1	128	2	1	0	C	2	1	908	1	Ⴡ	cut_ooi.wav
1	129	1	1	1	C	2	0	505	0	Ⴂ	cut_ooi.wav
1	130	4	4	2	I	0	0	0	0	Ⴞ	cut_nk.wav
1	131	3	4	2	I	2	0	1106	1	Ⴋ	cut_nk.wav
1	132	2	2	1	C	1	1	1505	1	Ⴡ	cut_ieuw.wav
1	133	3	3	2	I	1	0	858	1	Ⴋ	cut_eeuw.wav
1	134	1	2	0	C	2	1	1010	1	Ⴂ	cut_ieuw.wav
1	135	4	3	2	I	2	0	1636	1	Ⴞ	cut_eeuw.wav
1	136	2	1	0	C	2	1	1020	1	Ⴡ	cut_ooi.wav
1	137	4	3	2	I	2	0	1268	1	Ⴞ	cut_eeuw.wav
1	138	1	1	1	C	1	1	1832	1	Ⴂ	cut_ooi.wav
1	139	3	4	2	I	2	0	844	1	Ⴋ	cut_nk.wav
1	140	2	1	0	C	2	1	1011	1	Ⴡ	cut_ooi.wav
1	141	3	3	2	I	1	0	1104	0	Ⴋ	cut_eeuw.wav
1	142	2	2	1	C	1	1	1083	1	Ⴡ	cut_ieuw.wav
1	143	4	4	2	I	1	0	1311	0	Ⴞ	cut_nk.wav
1	144	1	2	0	C	2	1	1165	1	Ⴂ	cut_ieuw.wav
1	145	3	4	2	I	2	0	535	1	Ⴋ	cut_nk.wav
1	146	2	1	0	C	2	1	1792	1	Ⴡ	cut_ooi.wav
1	147	1	1	1	C	1	1	1318	1	Ⴂ	cut_ooi.wav
1	148	4	4	2	I	1	0	1144	1	Ⴞ	cut_nk.wav
1	149	2	2	1	C	1	1	1488	1	Ⴡ	cut_ieuw.wav
1	150	3	3	2	I	1	0	1039	0	Ⴋ	cut_eeuw.wav
1	151	1	2	0	C	2	1	767	1	Ⴂ	cut_ieuw.wav
1	152	4	3	2	I	2	0	900	0	Ⴞ	cut_eeuw.wav
1	153	2	2	1	C	1	1	1378	1	Ⴡ	cut_ieuw.wav
1	154	1	2	0	C	2	1	1192	1	Ⴂ	cut_ieuw.wav
1	155	4	4	2	I	1	0	1332	0	Ⴞ	cut_nk.wav
1	156	3	3	2	I	1	0	1008	1	Ⴋ	cut_eeuw.wav
1	157	2	1	0	C	2	1	1226	1	Ⴡ	cut_ooi.wav
1	158	1	1	1	C	1	1	1069	1	Ⴂ	cut_ooi.wav
1	159	4	3	2	I	2	0	910	0	Ⴞ	cut_eeuw.wav
1	160	3	4	2	I	2	0	1325	0	Ⴋ	cut_nk.wav
1	161	1	2	0	C	2	1	1289	1	Ⴂ	cut_ieuw.wav
1	162	4	3	2	I	2	0	1249	0	Ⴞ	cut_eeuw.wav
1	163	3	4	2	I	2	0	805	1	Ⴋ	cut_nk.wav
1	164	2	2	1	C	1	1	1192	1	Ⴡ	cut_ieuw.wav
1	165	4	4	2	I	1	0	1158	1	Ⴞ	cut_nk.wav
1	166	2	1	0	C	2	1	1037	1	Ⴡ	cut_ooi.wav
1	167	1	1	1	C	2	0	682	0	Ⴂ	cut_ooi.wav
1	168	3	3	2	I	1	0	1141	0	Ⴋ	cut_eeuw.wav
1	169	1	2	0	C	2	1	1110	1	Ⴂ	cut_ieuw.wav
1	170	4	3	2	I	2	0	1137	1	Ⴞ	cut_eeuw.wav
1	171	2	2	1	C	1	1	1072	1	Ⴡ	cut_ieuw.wav
1	172	3	3	2	I	2	0	1458	1	Ⴋ	cut_eeuw.wav
1	173	2	1	0	C	2	1	963	1	Ⴡ	cut_ooi.wav
1	174	3	4	2	I	2	0	1164	1	Ⴋ	cut_nk.wav
1	175	1	1	1	C	1	1	1442	1	Ⴂ	cut_ooi.wav
1	176	4	4	2	I	1	0	1971	1	Ⴞ	cut_nk.wav
1	177	3	4	2	I	2	0	1665	0	Ⴋ	cut_nk.wav
1	178	1	2	0	C	2	1	931	1	Ⴂ	cut_ieuw.wav
1	179	4	4	2	I	1	0	1152	1	Ⴞ	cut_nk.wav
1	180	2	1	0	C	2	1	862	1	Ⴡ	cut_ooi.wav
1	181	3	3	2	I	2	0	1857	0	Ⴋ	cut_eeuw.wav
1	182	1	1	1	C	1	1	1036	1	Ⴂ	cut_ooi.wav
1	183	2	2	1	C	1	1	1437	1	Ⴡ	cut_ieuw.wav
1	184	4	3	2	I	2	0	1268	1	Ⴞ	cut_eeuw.wav
1	185	1	1	1	C	1	1	1092	1	Ⴂ	cut_ooi.wav
1	186	4	3	2	I	2	0	926	1	Ⴞ	cut_eeuw.wav
1	187	3	4	2	I	2	0	1173	1	Ⴋ	cut_nk.wav
1	188	2	2	1	C	1	1	1477	1	Ⴡ	cut_ieuw.wav
1	189	1	2	0	C	2	1	838	1	Ⴂ	cut_ieuw.wav
1	190	4	4	2	I	1	0	1069	0	Ⴞ	cut_nk.wav
1	191	2	1	0	C	2	1	947	1	Ⴡ	cut_ooi.wav
1	192	3	3	2	I	1	0	1212	0	Ⴋ	cut_eeuw.wav
1	193	2	2	1	C	1	1	1470	1	Ⴡ	cut_ieuw.wav
1	194	3	4	2	I	2	0	1504	1	Ⴋ	cut_nk.wav
1	195	1	1	1	C	1	1	936	1	Ⴂ	cut_ooi.wav
1	196	4	4	2	I	1	0	1433	1	Ⴞ	cut_nk.wav
1	197	2	1	0	C	2	1	1160	1	Ⴡ	cut_ooi.wav
1	198	4	3	2	I	2	0	1512	0	Ⴞ	cut_eeuw.wav
1	199	1	2	0	C	2	1	1032	1	Ⴂ	cut_ieuw.wav
1	200	3	3	2	I	1	0	1541	1	Ⴋ	cut_eeuw.wav
2	1	1	2	0	C	0	0	0	0	Ⴟ	cut_j.wav
2	2	4	3	2	I	2	0	1018	0	Ⴥ	cut_ui.wav
2	3	3	4	2	I	2	0	1065	0	Ⴜ	cut_oei.wav
2	4	2	1	0	C	2	1	822	1	Ⴊ	cut_n.wav
2	5	1	1	1	C	1	1	821	1	Ⴟ	cut_n.wav
2	6	2	2	1	C	1	1	897	1	Ⴊ	cut_j.wav
2	7	3	3	2	I	1	0	1323	1	Ⴜ	cut_ui.wav
2	8	4	4	2	I	2	0	864	1	Ⴥ	cut_oei.wav
2	9	3	4	2	I	1	0	735	1	Ⴜ	cut_oei.wav
2	10	4	4	2	I	1	0	1278	1	Ⴥ	cut_oei.wav
2	11	2	1	0	C	1	0	945	0	Ⴊ	cut_n.wav
2	12	1	1	1	C	2	0	945	0	Ⴟ	cut_n.wav
2	13	3	3	2	I	1	0	1250	0	Ⴜ	cut_ui.wav
2	14	4	3	2	I	1	0	829	0	Ⴥ	cut_ui.wav
2	15	1	2	0	C	2	1	920	1	Ⴟ	cut_j.wav
2	16	2	2	1	C	1	1	646	1	Ⴊ	cut_j.wav
2	17	4	3	2	I	2	0	1215	0	Ⴥ	cut_ui.wav
2	18	2	1	0	C	1	0	1049	0	Ⴊ	cut_n.wav
2	19	1	1	1	C	1	1	1029	1	Ⴟ	cut_n.wav
2	20	3	4	2	I	2	0	788	0	Ⴜ	cut_oei.wav
2	21	2	2	1	C	2	0	1309	0	Ⴊ	cut_j.wav
2	22	4	4	2	I	2	0	1012	1	Ⴥ	cut_oei.wav
2	23	1	2	0	C	2	1	647	1	Ⴟ	cut_j.wav
2	24	3	3	2	I	2	0	1139	0	Ⴜ	cut_ui.wav
2	25	1	1	1	C	1	1	792	1	Ⴟ	cut_n.wav
2	26	2	2	1	C	1	1	1208	1	Ⴊ	cut_j.wav
2	27	4	4	2	I	2	0	1069	1	Ⴥ	cut_oei.wav
2	28	3	4	2	I	1	0	1045	0	Ⴜ	cut_oei.wav
2	29	4	3	2	I	2	0	1252	1	Ⴥ	cut_ui.wav
2	30	2	1	0	C	1	0	1050	0	Ⴊ	cut_n.wav
2	31	3	3	2	I	1	0	1007	0	Ⴜ	cut_ui.wav
2	32	1	2	0	C	2	1	1211	1	Ⴟ	cut_j.wav
2	33	3	3	2	I	1	0	1275	0	Ⴜ	cut_ui.wav
2	34	1	1	1	C	1	1	833	1	Ⴟ	cut_n.wav
2	35	4	4	2	I	2	0	831	1	Ⴥ	cut_oei.wav
2	36	2	2	1	C	1	1	1221	1	Ⴊ	cut_j.wav
2	37	4	3	2	I	2	0	811	0	Ⴥ	cut_ui.wav
2	38	1	2	0	C	2	1	893	1	Ⴟ	cut_j.wav
2	39	3	4	2	I	2	0	1401	1	Ⴜ	cut_oei.wav
2	40	2	1	0	C	1	0	1058	0	Ⴊ	cut_n.wav
2	41	1	2	0	C	2	1	862	1	Ⴟ	cut_j.wav
2	42	3	3	2	I	1	0	1396	1	Ⴜ	cut_ui.wav
2	43	2	1	0	C	2	1	802	1	Ⴊ	cut_n.wav
2	44	4	4	2	I	2	0	1408	0	Ⴥ	cut_oei.wav
2	45	1	1	1	C	1	1	828	1	Ⴟ	cut_n.wav
2	46	4	3	2	I	2	0	835	0	Ⴥ	cut_ui.wav
2	47	3	4	2	I	2	0	911	1	Ⴜ	cut_oei.wav
2	48	2	2	1	C	2	0	692	0	Ⴊ	cut_j.wav
2	49	4	3	2	I	2	0	976	0	Ⴥ	cut_ui.wav
2	50	2	1	0	C	2	1	844	1	Ⴊ	cut_n.wav
2	51	3	4	2	I	2	0	887	0	Ⴜ	cut_oei.wav
2	52	1	2	0	C	2	1	941	1	Ⴟ	cut_j.wav
2	53	3	3	2	I	2	0	1027	0	Ⴜ	cut_ui.wav
2	54	1	1	1	C	1	1	844	1	Ⴟ	cut_n.wav
2	55	4	4	2	I	1	0	1234	1	Ⴥ	cut_oei.wav
2	56	2	2	1	C	1	1	1249	1	Ⴊ	cut_j.wav
2	57	1	1	1	C	1	1	972	1	Ⴟ	cut_n.wav
2	58	4	3	2	I	2	0	826	1	Ⴥ	cut_ui.wav
2	59	3	4	2	I	2	0	561	1	Ⴜ	cut_oei.wav
2	60	2	1	0	C	2	1	835	1	Ⴊ	cut_n.wav
2	61	1	2	0	C	2	1	999	1	Ⴟ	cut_j.wav
2	62	2	2	1	C	1	1	1165	1	Ⴊ	cut_j.wav
2	63	3	3	2	I	1	0	1010	1	Ⴜ	cut_ui.wav
2	64	4	4	2	I	1	0	1181	0	Ⴥ	cut_oei.wav
2	65	3	4	2	I	2	0	711	1	Ⴜ	cut_oei.wav
2	66	2	2	1	C	1	1	1230	1	Ⴊ	cut_j.wav
2	67	1	2	0	C	2	1	809	1	Ⴟ	cut_j.wav
2	68	4	3	2	I	2	0	1258	0	Ⴥ	cut_ui.wav
2	69	2	1	0	C	2	1	701	1	Ⴊ	cut_n.wav
2	70	1	1	1	C	1	1	1038	1	Ⴟ	cut_n.wav
2	71	3	3	2	I	1	0	1529	0	Ⴜ	cut_ui.wav
2	72	4	4	2	I	2	0	1085	1	Ⴥ	cut_oei.wav
2	73	1	2	0	C	2	1	1055	1	Ⴟ	cut_j.wav
2	74	4	4	2	I	1	0	1381	1	Ⴥ	cut_oei.wav
2	75	2	2	1	C	1	1	1125	1	Ⴊ	cut_j.wav
2	76	3	4	2	I	2	0	864	1	Ⴜ	cut_oei.wav
2	77	1	1	1	C	1	1	920	1	Ⴟ	cut_n.wav
2	78	3	3	2	I	1	0	1060	0	Ⴜ	cut_ui.wav
2	79	4	3	2	I	1	0	1432	0	Ⴥ	cut_ui.wav
2	80	2	1	0	C	2	1	880	1	Ⴊ	cut_n.wav
2	81	3	3	2	I	2	0	1328	0	Ⴜ	cut_ui.wav
2	82	4	4	2	I	1	0	1062	0	Ⴥ	cut_oei.wav
2	83	1	2	0	C	2	1	1002	1	Ⴟ	cut_j.wav
2	84	2	2	1	C	1	1	1074	1	Ⴊ	cut_j.wav
2	85	4	3	2	I	2	0	1110	1	Ⴥ	cut_ui.wav
2	86	1	1	1	C	1	1	1161	1	Ⴟ	cut_n.wav
2	87	3	4	2	I	2	0	830	1	Ⴜ	cut_oei.wav
2	88	2	1	0	C	2	1	1050	1	Ⴊ	cut_n.wav
2	89	1	2	0	C	2	1	948	1	Ⴟ	cut_j.wav
2	90	2	1	0	C	2	1	978	1	Ⴊ	cut_n.wav
2	91	4	4	2	I	2	0	1245	1	Ⴥ	cut_oei.wav
2	92	3	3	2	I	1	0	1762	0	Ⴜ	cut_ui.wav
2	93	2	2	1	C	1	1	1171	1	Ⴊ	cut_j.wav
2	94	1	1	1	C	1	1	928	1	Ⴟ	cut_n.wav
2	95	4	3	2	I	2	0	1195	1	Ⴥ	cut_ui.wav
2	96	3	4	2	I	2	0	1111	1	Ⴜ	cut_oei.wav
2	97	2	1	0	C	2	1	876	1	Ⴊ	cut_n.wav
2	98	4	4	2	I	1	0	1206	0	Ⴥ	cut_oei.wav
2	99	3	3	2	I	1	0	1078	0	Ⴜ	cut_ui.wav
2	100	1	2	0	C	2	1	1086	1	Ⴟ	cut_j.wav
2	101	3	4	2	I	2	0	1092	1	Ⴜ	cut_oei.wav
2	102	2	2	1	C	2	0	939	0	Ⴊ	cut_j.wav
2	103	4	3	2	I	2	0	1076	0	Ⴥ	cut_ui.wav
2	104	1	1	1	C	1	1	1086	1	Ⴟ	cut_n.wav
2	105	2	1	0	C	2	1	714	1	Ⴊ	cut_n.wav
2	106	3	3	2	I	1	0	1240	1	Ⴜ	cut_ui.wav
2	107	4	3	2	I	2	0	1166	1	Ⴥ	cut_ui.wav
2	108	1	2	0	C	2	1	992	1	Ⴟ	cut_j.wav
2	109	4	4	2	I	1	0	1046	0	Ⴥ	cut_oei.wav
2	110	1	1	1	C	1	1	962	1	Ⴟ	cut_n.wav
2	111	3	4	2	I	2	0	1340	0	Ⴜ	cut_oei.wav
2	112	2	2	1	C	1	1	1076	1	Ⴊ	cut_j.wav
2	113	4	4	2	I	1	0	1165	1	Ⴥ	cut_oei.wav
2	114	2	1	0	C	2	1	754	1	Ⴊ	cut_n.wav
2	115	1	1	1	C	1	1	1013	1	Ⴟ	cut_n.wav
2	116	3	3	2	I	1	0	1103	1	Ⴜ	cut_ui.wav
2	117	1	2	0	C	2	1	1096	1	Ⴟ	cut_j.wav
2	118	2	2	1	C	1	1	1184	1	Ⴊ	cut_j.wav
2	119	3	4	2	I	2	0	1649	0	Ⴜ	cut_oei.wav
2	120	4	3	2	I	2	0	1049	1	Ⴥ	cut_ui.wav
2	121	3	4	2	I	2	0	1218	1	Ⴜ	cut_oei.wav
2	122	4	4	2	I	1	0	1017	0	Ⴥ	cut_oei.wav
2	123	2	2	1	C	1	1	1087	1	Ⴊ	cut_j.wav
2	124	1	2	0	C	2	1	1108	1	Ⴟ	cut_j.wav
2	125	2	1	0	C	2	1	1327	1	Ⴊ	cut_n.wav
2	126	3	3	2	I	1	0	1300	0	Ⴜ	cut_ui.wav
2	127	4	3	2	I	2	0	849	0	Ⴥ	cut_ui.wav
2	128	1	1	1	C	1	1	1245	1	Ⴟ	cut_n.wav
2	129	2	1	0	C	2	1	951	1	Ⴊ	cut_n.wav
2	130	1	2	0	C	2	1	1115	1	Ⴟ	cut_j.wav
2	131	3	3	2	I	1	0	1516	0	Ⴜ	cut_ui.wav
2	132	4	3	2	I	2	0	832	0	Ⴥ	cut_ui.wav
2	133	2	2	1	C	0	0	0	0	Ⴊ	cut_j.wav
2	134	1	1	1	C	1	1	1586	1	Ⴟ	cut_n.wav
2	135	3	4	2	I	2	0	1814	1	Ⴜ	cut_oei.wav
2	136	4	4	2	I	1	0	920	0	Ⴥ	cut_oei.wav
2	137	1	1	1	C	1	1	1846	1	Ⴟ	cut_n.wav
2	138	2	1	0	C	2	1	768	1	Ⴊ	cut_n.wav
2	139	4	3	2	I	2	0	1268	1	Ⴥ	cut_ui.wav
2	140	3	4	2	I	2	0	992	0	Ⴜ	cut_oei.wav
2	141	1	2	0	C	2	1	994	1	Ⴟ	cut_j.wav
2	142	2	2	1	C	1	1	845	1	Ⴊ	cut_j.wav
2	143	4	4	2	I	1	0	1130	1	Ⴥ	cut_oei.wav
2	144	3	3	2	I	1	0	888	0	Ⴜ	cut_ui.wav
2	145	1	1	1	C	1	1	973	1	Ⴟ	cut_n.wav
2	146	2	2	1	C	1	1	976	1	Ⴊ	cut_j.wav
2	147	4	4	2	I	1	0	1175	0	Ⴥ	cut_oei.wav
2	148	3	4	2	I	2	0	1134	1	Ⴜ	cut_oei.wav
2	149	4	3	2	I	2	0	999	1	Ⴥ	cut_ui.wav
2	150	1	2	0	C	2	1	815	1	Ⴟ	cut_j.wav
2	151	3	3	2	I	1	0	1049	0	Ⴜ	cut_ui.wav
2	152	2	1	0	C	2	1	868	1	Ⴊ	cut_n.wav
2	153	3	4	2	I	2	0	1114	1	Ⴜ	cut_oei.wav
2	154	4	3	2	I	2	0	1100	1	Ⴥ	cut_ui.wav
2	155	2	2	1	C	1	1	958	1	Ⴊ	cut_j.wav
2	156	1	1	1	C	1	1	950	1	Ⴟ	cut_n.wav
2	157	3	3	2	I	1	0	1163	1	Ⴜ	cut_ui.wav
2	158	2	1	0	C	2	1	1039	1	Ⴊ	cut_n.wav
2	159	4	4	2	I	1	0	1262	0	Ⴥ	cut_oei.wav
2	160	1	2	0	C	2	1	950	1	Ⴟ	cut_j.wav
2	161	2	2	1	C	1	1	1049	1	Ⴊ	cut_j.wav
2	162	1	2	0	C	2	1	782	1	Ⴟ	cut_j.wav
2	163	4	3	2	I	2	0	873	1	Ⴥ	cut_ui.wav
2	164	3	3	2	I	1	0	999	0	Ⴜ	cut_ui.wav
2	165	1	1	1	C	1	1	903	1	Ⴟ	cut_n.wav
2	166	3	4	2	I	2	0	1286	1	Ⴜ	cut_oei.wav
2	167	4	4	2	I	1	0	1498	1	Ⴥ	cut_oei.wav
2	168	2	1	0	C	2	1	785	1	Ⴊ	cut_n.wav
2	169	3	4	2	I	2	0	1087	0	Ⴜ	cut_oei.wav
2	170	2	2	1	C	1	1	888	1	Ⴊ	cut_j.wav
2	171	1	2	0	C	2	1	740	1	Ⴟ	cut_j.wav
2	172	4	4	2	I	1	0	1019	1	Ⴥ	cut_oei.wav
2	173	2	1	0	C	2	1	608	1	Ⴊ	cut_n.wav
2	174	1	1	1	C	1	1	908	1	Ⴟ	cut_n.wav
2	175	3	3	2	I	1	0	1472	1	Ⴜ	cut_ui.wav
2	176	4	3	2	I	2	0	671	1	Ⴥ	cut_ui.wav
2	177	1	2	0	C	2	1	747	1	Ⴟ	cut_j.wav
2	178	4	4	2	I	1	0	997	0	Ⴥ	cut_oei.wav
2	179	3	4	2	I	2	0	942	1	Ⴜ	cut_oei.wav
2	180	2	1	0	C	2	1	900	1	Ⴊ	cut_n.wav
2	181	3	3	2	I	1	0	1072	1	Ⴜ	cut_ui.wav
2	182	4	3	2	I	2	0	777	0	Ⴥ	cut_ui.wav
2	183	1	1	1	C	1	1	1192	1	Ⴟ	cut_n.wav
2	184	2	2	1	C	1	1	1439	1	Ⴊ	cut_j.wav
2	185	4	4	2	I	1	0	1060	1	Ⴥ	cut_oei.wav
2	186	2	1	0	C	2	1	744	1	Ⴊ	cut_n.wav
2	187	1	1	1	C	1	1	1111	1	Ⴟ	cut_n.wav
2	188	3	3	2	I	1	0	1408	0	Ⴜ	cut_ui.wav
2	189	1	2	0	C	2	1	845	1	Ⴟ	cut_j.wav
2	190	2	2	1	C	1	1	879	1	Ⴊ	cut_j.wav
2	191	4	3	2	I	2	0	957	0	Ⴥ	cut_ui.wav
2	192	3	4	2	I	1	0	1690	1	Ⴜ	cut_oei.wav
2	193	1	1	1	C	1	1	881	1	Ⴟ	cut_n.wav
2	194	2	2	1	C	1	1	833	1	Ⴊ	cut_j.wav
2	195	3	3	2	I	1	0	1383	1	Ⴜ	cut_ui.wav
2	196	4	4	2	I	2	0	642	0	Ⴥ	cut_oei.wav
2	197	3	4	2	I	2	0	933	0	Ⴜ	cut_oei.wav
2	198	1	2	0	C	2	1	720	1	Ⴟ	cut_j.wav
2	199	4	3	2	I	2	0	747	0	Ⴥ	cut_ui.wav
2	200	2	1	0	C	2	1	894	1	Ⴊ	cut_n.wav
3	1	3	4	2	I	2	0	1038	0	Ⴁ	cut_o.wav
3	2	2	2	1	C	2	0	838	0	Ⴃ	cut_a.wav
3	3	1	2	0	C	2	1	927	1	Ⴢ	cut_a.wav
3	4	4	3	2	I	2	0	795	0	Ⴇ	cut_u.wav
3	5	3	3	2	I	2	0	1085	0	Ⴁ	cut_u.wav
3	6	2	1	0	C	2	1	688	1	Ⴃ	cut_k.wav
3	7	4	4	2	I	2	0	778	1	Ⴇ	cut_o.wav
3	8	1	1	1	C	2	0	735	0	Ⴢ	cut_k.wav
3	9	4	3	2	I	2	0	621	0	Ⴇ	cut_u.wav
3	10	3	4	2	I	2	0	783	1	Ⴁ	cut_o.wav
3	11	2	1	0	C	2	1	711	1	Ⴃ	cut_k.wav
3	12	1	1	1	C	1	1	742	1	Ⴢ	cut_k.wav
3	13	3	3	2	I	2	0	668	1	Ⴁ	cut_u.wav
3	14	2	2	1	C	1	1	741	1	Ⴃ	cut_a.wav
3	15	4	4	2	I	2	0	994	0	Ⴇ	cut_o.wav
3	16	1	2	0	C	2	1	884	1	Ⴢ	cut_a.wav
3	17	3	4	2	I	2	0	1439	1	Ⴁ	cut_o.wav
3	18	2	2	1	C	1	1	898	1	Ⴃ	cut_a.wav
3	19	4	3	2	I	2	0	854	1	Ⴇ	cut_u.wav
3	20	1	2	0	C	2	1	1157	1	Ⴢ	cut_a.wav
3	21	4	4	2	I	2	0	1312	0	Ⴇ	cut_o.wav
3	22	3	3	2	I	1	0	1314	0	Ⴁ	cut_u.wav
3	23	2	1	0	C	2	1	584	1	Ⴃ	cut_k.wav
3	24	1	1	1	C	1	1	858	1	Ⴢ	cut_k.wav
3	25	4	4	2	I	1	0	1400	0	Ⴇ	cut_o.wav
3	26	1	1	1	C	1	1	1124	1	Ⴢ	cut_k.wav
3	27	3	4	2	I	2	0	904	0	Ⴁ	cut_o.wav
3	28	2	2	1	C	1	1	824	1	Ⴃ	cut_a.wav
3	29	4	3	2	I	2	0	706	0	Ⴇ	cut_u.wav
3	30	2	1	0	C	2	1	670	1	Ⴃ	cut_k.wav
3	31	1	2	0	C	2	1	742	1	Ⴢ	cut_a.wav
3	32	3	3	2	I	2	0	946	1	Ⴁ	cut_u.wav
3	33	1	1	1	C	1	1	903	1	Ⴢ	cut_k.wav
3	34	4	4	2	I	2	0	756	1	Ⴇ	cut_o.wav
3	35	3	4	2	I	1	0	715	0	Ⴁ	cut_o.wav
3	36	2	2	1	C	1	1	876	1	Ⴃ	cut_a.wav
3	37	1	2	0	C	2	1	828	1	Ⴢ	cut_a.wav
3	38	3	3	2	I	1	0	1122	0	Ⴁ	cut_u.wav
3	39	4	3	2	I	1	0	1575	1	Ⴇ	cut_u.wav
3	40	2	1	0	C	2	1	626	1	Ⴃ	cut_k.wav
3	41	1	2	0	C	2	1	814	1	Ⴢ	cut_a.wav
3	42	3	4	2	I	1	0	1219	1	Ⴁ	cut_o.wav
3	43	4	3	2	I	1	0	727	0	Ⴇ	cut_u.wav
3	44	2	2	1	C	1	1	812	1	Ⴃ	cut_a.wav
3	45	4	4	2	I	2	0	792	0	Ⴇ	cut_o.wav
3	46	2	1	0	C	2	1	739	1	Ⴃ	cut_k.wav
3	47	3	3	2	I	2	0	1009	0	Ⴁ	cut_u.wav
3	48	1	1	1	C	1	1	784	1	Ⴢ	cut_k.wav
3	49	4	4	2	I	1	0	1355	1	Ⴇ	cut_o.wav
3	50	1	2	0	C	2	1	723	1	Ⴢ	cut_a.wav
3	51	3	4	2	I	2	0	1348	0	Ⴁ	cut_o.wav
3	52	2	2	1	C	1	1	755	1	Ⴃ	cut_a.wav
3	53	4	3	2	I	2	0	996	1	Ⴇ	cut_u.wav
3	54	2	1	0	C	2	1	700	1	Ⴃ	cut_k.wav
3	55	1	1	1	C	1	1	766	1	Ⴢ	cut_k.wav
3	56	3	3	2	I	1	0	697	0	Ⴁ	cut_u.wav
3	57	2	1	0	C	2	1	680	1	Ⴃ	cut_k.wav
3	58	3	4	2	I	2	0	1711	1	Ⴁ	cut_o.wav
3	59	4	4	2	I	1	0	843	1	Ⴇ	cut_o.wav
3	60	1	2	0	C	2	1	862	1	Ⴢ	cut_a.wav
3	61	4	3	2	I	2	0	964	1	Ⴇ	cut_u.wav
3	62	1	1	1	C	1	1	897	1	Ⴢ	cut_k.wav
3	63	3	3	2	I	1	0	984	1	Ⴁ	cut_u.wav
3	64	2	2	1	C	1	1	828	1	Ⴃ	cut_a.wav
3	65	3	4	2	I	2	0	1954	1	Ⴁ	cut_o.wav
3	66	4	3	2	I	2	0	883	0	Ⴇ	cut_u.wav
3	67	1	2	0	C	2	1	857	1	Ⴢ	cut_a.wav
3	68	2	1	0	C	2	1	738	1	Ⴃ	cut_k.wav
3	69	1	1	1	C	1	1	831	1	Ⴢ	cut_k.wav
3	70	3	3	2	I	1	0	1074	0	Ⴁ	cut_u.wav
3	71	4	4	2	I	1	0	1115	1	Ⴇ	cut_o.wav
3	72	2	2	1	C	1	1	778	1	Ⴃ	cut_a.wav
3	73	4	4	2	I	1	0	1041	1	Ⴇ	cut_o.wav
3	74	3	3	2	I	2	0	1040	1	Ⴁ	cut_u.wav
3	75	1	1	1	C	1	1	808	1	Ⴢ	cut_k.wav
3	76	2	1	0	C	2	1	674	1	Ⴃ	cut_k.wav
3	77	3	4	2	I	2	0	1149	1	Ⴁ	cut_o.wav
3	78	1	2	0	C	2	1	734	1	Ⴢ	cut_a.wav
3	79	2	2	1	C	1	1	943	1	Ⴃ	cut_a.wav
3	80	4	3	2	I	2	0	973	0	Ⴇ	cut_u.wav
3	81	1	2	0	C	2	1	779	1	Ⴢ	cut_a.wav
3	82	2	1	0	C	2	1	760	1	Ⴃ	cut_k.wav
3	83	3	4	2	I	1	0	1161	0	Ⴁ	cut_o.wav
3	84	4	4	2	I	1	0	1415	0	Ⴇ	cut_o.wav
3	85	3	3	2	I	1	0	1153	1	Ⴁ	cut_u.wav
3	86	2	2	1	C	1	1	851	1	Ⴃ	cut_a.wav
3	87	1	1	1	C	1	1	865	1	Ⴢ	cut_k.wav
3	88	4	3	2	I	2	0	988	0	Ⴇ	cut_u.wav
3	89	2	2	1	C	1	1	784	1	Ⴃ	cut_a.wav
3	90	4	4	2	I	1	0	1009	1	Ⴇ	cut_o.wav
3	91	3	4	2	I	1	0	540	1	Ⴁ	cut_o.wav
3	92	1	1	1	C	1	1	981	1	Ⴢ	cut_k.wav
3	93	3	3	2	I	2	0	1367	1	Ⴁ	cut_u.wav
3	94	2	1	0	C	2	1	662	1	Ⴃ	cut_k.wav
3	95	1	2	0	C	2	1	672	1	Ⴢ	cut_a.wav
3	96	4	3	2	I	1	0	1300	0	Ⴇ	cut_u.wav
3	97	3	4	2	I	2	0	1524	1	Ⴁ	cut_o.wav
3	98	1	1	1	C	1	1	851	1	Ⴢ	cut_k.wav
3	99	2	2	1	C	1	1	841	1	Ⴃ	cut_a.wav
3	100	4	4	2	I	1	0	1068	1	Ⴇ	cut_o.wav
3	101	2	1	0	C	2	1	582	1	Ⴃ	cut_k.wav
3	102	3	3	2	I	2	0	1231	0	Ⴁ	cut_u.wav
3	103	4	3	2	I	2	0	810	1	Ⴇ	cut_u.wav
3	104	1	2	0	C	2	1	836	1	Ⴢ	cut_a.wav
3	105	3	3	2	I	1	0	825	0	Ⴁ	cut_u.wav
3	106	2	2	1	C	1	1	831	1	Ⴃ	cut_a.wav
3	107	1	2	0	C	2	1	599	1	Ⴢ	cut_a.wav
3	108	4	3	2	I	2	0	754	1	Ⴇ	cut_u.wav
3	109	1	1	1	C	1	1	828	1	Ⴢ	cut_k.wav
3	110	4	4	2	I	1	0	1186	0	Ⴇ	cut_o.wav
3	111	3	4	2	I	2	0	1050	0	Ⴁ	cut_o.wav
3	112	2	1	0	C	2	1	599	1	Ⴃ	cut_k.wav
3	113	4	3	2	I	2	0	921	0	Ⴇ	cut_u.wav
3	114	2	2	1	C	1	1	826	1	Ⴃ	cut_a.wav
3	115	1	2	0	C	1	0	1203	0	Ⴢ	cut_a.wav
3	116	3	3	2	I	1	0	1644	0	Ⴁ	cut_u.wav
3	117	1	1	1	C	1	1	663	1	Ⴢ	cut_k.wav
3	118	2	1	0	C	2	1	433	1	Ⴃ	cut_k.wav
3	119	4	4	2	I	0	0	0	0	Ⴇ	cut_o.wav
3	120	3	4	2	I	2	0	640	1	Ⴁ	cut_o.wav
3	121	1	2	0	C	2	1	890	1	Ⴢ	cut_a.wav
3	122	3	4	2	I	2	0	1497	0	Ⴁ	cut_o.wav
3	123	4	3	2	I	2	0	1245	0	Ⴇ	cut_u.wav
3	124	2	1	0	C	2	1	683	1	Ⴃ	cut_k.wav
3	125	1	1	1	C	1	1	1007	1	Ⴢ	cut_k.wav
3	126	4	4	2	I	2	0	1502	0	Ⴇ	cut_o.wav
3	127	2	2	1	C	1	1	871	1	Ⴃ	cut_a.wav
3	128	3	3	2	I	2	0	1098	0	Ⴁ	cut_u.wav
3	129	1	2	0	C	2	1	865	1	Ⴢ	cut_a.wav
3	130	3	3	2	I	1	0	1358	1	Ⴁ	cut_u.wav
3	131	2	2	1	C	1	1	802	1	Ⴃ	cut_a.wav
3	132	4	4	2	I	1	0	881	0	Ⴇ	cut_o.wav
3	133	1	1	1	C	1	1	846	1	Ⴢ	cut_k.wav
3	134	4	3	2	I	2	0	1067	1	Ⴇ	cut_u.wav
3	135	2	1	0	C	2	1	671	1	Ⴃ	cut_k.wav
3	136	3	4	2	I	2	0	1100	0	Ⴁ	cut_o.wav
3	137	4	3	2	I	2	0	1048	0	Ⴇ	cut_u.wav
3	138	2	2	1	C	1	1	823	1	Ⴃ	cut_a.wav
3	139	3	4	2	I	2	0	1050	1	Ⴁ	cut_o.wav
3	140	1	2	0	C	2	1	1218	1	Ⴢ	cut_a.wav
3	141	4	4	2	I	1	0	1117	1	Ⴇ	cut_o.wav
3	142	2	1	0	C	2	1	604	1	Ⴃ	cut_k.wav
3	143	1	1	1	C	1	1	807	1	Ⴢ	cut_k.wav
3	144	3	3	2	I	2	0	948	1	Ⴁ	cut_u.wav
3	145	1	2	0	C	2	1	772	1	Ⴢ	cut_a.wav
3	146	4	3	2	I	2	0	916	1	Ⴇ	cut_u.wav
3	147	2	1	0	C	2	1	593	1	Ⴃ	cut_k.wav
3	148	3	3	2	I	2	0	1457	1	Ⴁ	cut_u.wav
3	149	4	4	2	I	2	0	1110	1	Ⴇ	cut_o.wav
3	150	3	4	2	I	2	0	924	0	Ⴁ	cut_o.wav
3	151	1	1	1	C	1	1	805	1	Ⴢ	cut_k.wav
3	152	2	2	1	C	1	1	904	1	Ⴃ	cut_a.wav
3	153	1	1	1	C	1	1	981	1	Ⴢ	cut_k.wav
3	154	4	3	2	I	2	0	737	1	Ⴇ	cut_u.wav
3	155	2	1	0	C	2	1	677	1	Ⴃ	cut_k.wav
3	156	3	4	2	I	2	0	1268	1	Ⴁ	cut_o.wav
3	157	1	2	0	C	2	1	898	1	Ⴢ	cut_a.wav
3	158	2	2	1	C	1	1	871	1	Ⴃ	cut_a.wav
3	159	4	4	2	I	2	0	875	0	Ⴇ	cut_o.wav
3	160	3	3	2	I	2	0	1275	0	Ⴁ	cut_u.wav
3	161	4	3	2	I	2	0	802	1	Ⴇ	cut_u.wav
3	162	3	4	2	I	2	0	1022	0	Ⴁ	cut_o.wav
3	163	2	1	0	C	2	1	648	1	Ⴃ	cut_k.wav
3	164	1	2	0	C	2	1	716	1	Ⴢ	cut_a.wav
3	165	2	2	1	C	1	1	858	1	Ⴃ	cut_a.wav
3	166	4	4	2	I	1	0	1069	0	Ⴇ	cut_o.wav
3	167	3	3	2	I	2	0	1334	1	Ⴁ	cut_u.wav
3	168	1	1	1	C	1	1	1088	1	Ⴢ	cut_k.wav
3	169	2	1	0	C	2	1	580	1	Ⴃ	cut_k.wav
3	170	4	4	2	I	1	0	1164	0	Ⴇ	cut_o.wav
3	171	1	1	1	C	1	1	986	1	Ⴢ	cut_k.wav
3	172	3	4	2	I	2	0	1145	1	Ⴁ	cut_o.wav
3	173	4	3	2	I	2	0	964	1	Ⴇ	cut_u.wav
3	174	3	3	2	I	2	0	747	1	Ⴁ	cut_u.wav
3	175	2	2	1	C	1	1	765	1	Ⴃ	cut_a.wav
3	176	1	2	0	C	2	1	841	1	Ⴢ	cut_a.wav
3	177	3	3	2	I	2	0	1397	1	Ⴁ	cut_u.wav
3	178	4	4	2	I	1	0	1411	1	Ⴇ	cut_o.wav
3	179	1	2	0	C	2	1	786	1	Ⴢ	cut_a.wav
3	180	2	2	1	C	1	1	973	1	Ⴃ	cut_a.wav
3	181	1	1	1	C	1	1	830	1	Ⴢ	cut_k.wav
3	182	3	4	2	I	2	0	1289	1	Ⴁ	cut_o.wav
3	183	2	1	0	C	2	1	737	1	Ⴃ	cut_k.wav
3	184	4	3	2	I	2	0	1387	0	Ⴇ	cut_u.wav
3	185	2	1	0	C	2	1	580	1	Ⴃ	cut_k.wav
3	186	4	3	2	I	2	0	851	0	Ⴇ	cut_u.wav
3	187	3	4	2	I	2	0	1690	0	Ⴁ	cut_o.wav
3	188	1	1	1	C	1	1	855	1	Ⴢ	cut_k.wav
3	189	2	2	1	C	1	1	807	1	Ⴃ	cut_a.wav
3	190	1	2	0	C	2	1	706	1	Ⴢ	cut_a.wav
3	191	4	4	2	I	1	0	1585	1	Ⴇ	cut_o.wav
3	192	3	3	2	I	2	0	977	0	Ⴁ	cut_u.wav
3	193	2	2	1	C	1	1	796	1	Ⴃ	cut_a.wav
3	194	4	4	2	I	2	0	827	0	Ⴇ	cut_o.wav
3	195	1	1	1	C	1	1	1308	1	Ⴢ	cut_k.wav
3	196	3	4	2	I	2	0	1270	0	Ⴁ	cut_o.wav
3	197	2	1	0	C	2	1	705	1	Ⴃ	cut_k.wav
3	198	1	2	0	C	1	0	663	0	Ⴢ	cut_a.wav
3	199	3	3	2	I	2	0	1034	0	Ⴁ	cut_u.wav
3	200	4	3	2	I	2	0	651	1	Ⴇ	cut_u.wav
4	1	1	2	0	C	2	1	1149	1	Ⴕ	cut_l.wav
4	2	4	3	2	I	1	0	1081	0	Ⴐ	cut_g.wav
4	3	3	3	2	I	2	0	1315	0	Ⴏ	cut_g.wav
4	4	2	1	0	C	2	1	754	1	Ⴖ	cut_h.wav
4	5	4	4	2	I	2	0	1334	1	Ⴐ	cut_w.wav
4	6	1	1	1	C	1	1	893	1	Ⴕ	cut_h.wav
4	7	2	2	1	C	2	0	916	0	Ⴖ	cut_l.wav
4	8	3	4	2	I	1	0	1427	1	Ⴏ	cut_w.wav
4	9	4	4	2	I	1	0	1729	0	Ⴐ	cut_w.wav
4	10	3	4	2	I	1	0	1144	1	Ⴏ	cut_w.wav
4	11	1	2	0	C	2	1	646	1	Ⴕ	cut_l.wav
4	12	2	2	1	C	1	1	1146	1	Ⴖ	cut_l.wav
4	13	1	1	1	C	1	1	835	1	Ⴕ	cut_h.wav
4	14	2	1	0	C	2	1	827	1	Ⴖ	cut_h.wav
4	15	3	3	2	I	1	0	1495	0	Ⴏ	cut_g.wav
4	16	4	3	2	I	1	0	1043	0	Ⴐ	cut_g.wav
4	17	3	4	2	I	1	0	1036	0	Ⴏ	cut_w.wav
4	18	2	2	1	C	1	1	1400	1	Ⴖ	cut_l.wav
4	19	4	3	2	I	0	0	0	0	Ⴐ	cut_g.wav
4	20	1	1	1	C	1	1	818	1	Ⴕ	cut_h.wav
4	21	2	1	0	C	2	1	658	1	Ⴖ	cut_h.wav
4	22	4	4	2	I	2	0	869	1	Ⴐ	cut_w.wav
4	23	3	3	2	I	2	0	1398	1	Ⴏ	cut_g.wav
4	24	1	2	0	C	2	1	1101	1	Ⴕ	cut_l.wav
4	25	3	4	2	I	1	0	914	0	Ⴏ	cut_w.wav
4	26	4	4	2	I	2	0	723	0	Ⴐ	cut_w.wav
4	27	2	1	0	C	2	1	745	1	Ⴖ	cut_h.wav
4	28	1	2	0	C	2	1	916	1	Ⴕ	cut_l.wav
4	29	3	3	2	I	2	0	1315	1	Ⴏ	cut_g.wav
4	30	1	1	1	C	1	1	1325	1	Ⴕ	cut_h.wav
4	31	2	2	1	C	1	1	815	1	Ⴖ	cut_l.wav
4	32	4	3	2	I	2	0	1372	1	Ⴐ	cut_g.wav
4	33	2	2	1	C	1	1	807	1	Ⴖ	cut_l.wav
4	34	4	4	2	I	2	0	1018	1	Ⴐ	cut_w.wav
4	35	3	3	2	I	2	0	1194	0	Ⴏ	cut_g.wav
4	36	1	2	0	C	2	1	816	1	Ⴕ	cut_l.wav
4	37	4	3	2	I	1	0	1174	1	Ⴐ	cut_g.wav
4	38	2	1	0	C	2	1	607	1	Ⴖ	cut_h.wav
4	39	3	4	2	I	1	0	1044	1	Ⴏ	cut_w.wav
4	40	1	1	1	C	1	1	1392	1	Ⴕ	cut_h.wav
4	41	4	3	2	I	1	0	1318	1	Ⴐ	cut_g.wav
4	42	1	2	0	C	2	1	705	1	Ⴕ	cut_l.wav
4	43	3	4	2	I	2	0	1104	0	Ⴏ	cut_w.wav
4	44	2	2	1	C	1	1	1126	1	Ⴖ	cut_l.wav
4	45	4	4	2	I	2	0	925	0	Ⴐ	cut_w.wav
4	46	1	1	1	C	1	1	1319	1	Ⴕ	cut_h.wav
4	47	2	1	0	C	2	1	554	1	Ⴖ	cut_h.wav
4	48	3	3	2	I	2	0	1540	1	Ⴏ	cut_g.wav
4	49	1	1	1	C	1	1	937	1	Ⴕ	cut_h.wav
4	50	4	3	2	I	1	0	1027	0	Ⴐ	cut_g.wav
4	51	3	4	2	I	2	0	1472	0	Ⴏ	cut_w.wav
4	52	2	2	1	C	1	1	912	1	Ⴖ	cut_l.wav
4	53	3	3	2	I	2	0	788	1	Ⴏ	cut_g.wav
4	54	1	2	0	C	2	1	728	1	Ⴕ	cut_l.wav
4	55	4	4	2	I	2	0	1160	1	Ⴐ	cut_w.wav
4	56	2	1	0	C	2	1	1169	1	Ⴖ	cut_h.wav
4	57	4	4	2	I	2	0	1116	1	Ⴐ	cut_w.wav
4	58	3	3	2	I	2	0	595	1	Ⴏ	cut_g.wav
4	59	1	2	0	C	2	1	696	1	Ⴕ	cut_l.wav
4	60	2	1	0	C	2	1	746	1	Ⴖ	cut_h.wav
4	61	1	1	1	C	1	1	897	1	Ⴕ	cut_h.wav
4	62	3	4	2	I	1	0	999	0	Ⴏ	cut_w.wav
4	63	4	3	2	I	1	0	961	0	Ⴐ	cut_g.wav
4	64	2	2	1	C	1	1	961	1	Ⴖ	cut_l.wav
4	65	3	4	2	I	1	0	1183	0	Ⴏ	cut_w.wav
4	66	4	3	2	I	1	0	1517	1	Ⴐ	cut_g.wav
4	67	1	1	1	C	1	1	1083	1	Ⴕ	cut_h.wav
4	68	2	2	1	C	1	1	822	1	Ⴖ	cut_l.wav
4	69	3	3	2	I	2	0	1447	1	Ⴏ	cut_g.wav
4	70	4	4	2	I	2	0	939	0	Ⴐ	cut_w.wav
4	71	1	2	0	C	2	1	827	1	Ⴕ	cut_l.wav
4	72	2	1	0	C	2	1	1355	1	Ⴖ	cut_h.wav
4	73	1	2	0	C	2	1	1045	1	Ⴕ	cut_l.wav
4	74	4	3	2	I	2	0	1415	1	Ⴐ	cut_g.wav
4	75	3	3	2	I	1	0	1027	0	Ⴏ	cut_g.wav
4	76	2	1	0	C	2	1	725	1	Ⴖ	cut_h.wav
4	77	4	4	2	I	1	0	1133	1	Ⴐ	cut_w.wav
4	78	3	4	2	I	1	0	1156	0	Ⴏ	cut_w.wav
4	79	2	2	1	C	1	1	842	1	Ⴖ	cut_l.wav
4	80	1	1	1	C	1	1	1037	1	Ⴕ	cut_h.wav
4	81	3	3	2	I	2	0	1050	1	Ⴏ	cut_g.wav
4	82	1	1	1	C	1	1	891	1	Ⴕ	cut_h.wav
4	83	2	2	1	C	1	1	767	1	Ⴖ	cut_l.wav
4	84	4	4	2	I	2	0	872	0	Ⴐ	cut_w.wav
4	85	3	4	2	I	1	0	851	0	Ⴏ	cut_w.wav
4	86	2	1	0	C	2	1	935	1	Ⴖ	cut_h.wav
4	87	4	3	2	I	1	0	1126	1	Ⴐ	cut_g.wav
4	88	1	2	0	C	2	1	895	1	Ⴕ	cut_l.wav
4	89	2	1	0	C	2	1	676	1	Ⴖ	cut_h.wav
4	90	1	1	1	C	1	1	778	1	Ⴕ	cut_h.wav
4	91	4	4	2	I	2	0	1035	0	Ⴐ	cut_w.wav
4	92	3	3	2	I	2	0	797	1	Ⴏ	cut_g.wav
4	93	2	2	1	C	1	1	761	1	Ⴖ	cut_l.wav
4	94	4	3	2	I	2	0	993	0	Ⴐ	cut_g.wav
4	95	1	2	0	C	2	1	645	1	Ⴕ	cut_l.wav
4	96	3	4	2	I	1	0	1391	0	Ⴏ	cut_w.wav
4	97	4	4	2	I	2	0	1094	1	Ⴐ	cut_w.wav
4	98	3	4	2	I	1	0	1668	1	Ⴏ	cut_w.wav
4	99	1	2	0	C	2	1	647	1	Ⴕ	cut_l.wav
4	100	2	2	1	C	1	1	865	1	Ⴖ	cut_l.wav
4	101	3	3	2	I	1	0	1325	0	Ⴏ	cut_g.wav
4	102	2	1	0	C	2	1	927	1	Ⴖ	cut_h.wav
4	103	4	3	2	I	2	0	1139	1	Ⴐ	cut_g.wav
4	104	1	1	1	C	1	1	1837	1	Ⴕ	cut_h.wav
4	105	2	1	0	C	2	1	506	1	Ⴖ	cut_h.wav
4	106	3	3	2	I	2	0	968	1	Ⴏ	cut_g.wav
4	107	1	1	1	C	1	1	837	1	Ⴕ	cut_h.wav
4	108	4	3	2	I	2	0	1030	0	Ⴐ	cut_g.wav
4	109	2	2	1	C	1	1	891	1	Ⴖ	cut_l.wav
4	110	3	4	2	I	1	0	1653	0	Ⴏ	cut_w.wav
4	111	1	2	0	C	2	1	938	1	Ⴕ	cut_l.wav
4	112	4	4	2	I	2	0	1351	0	Ⴐ	cut_w.wav
4	113	2	2	1	C	1	1	1068	1	Ⴖ	cut_l.wav
4	114	4	3	2	I	0	0	0	0	Ⴐ	cut_g.wav
4	115	3	4	2	I	1	0	1602	0	Ⴏ	cut_w.wav
4	116	1	2	0	C	2	1	724	1	Ⴕ	cut_l.wav
4	117	4	4	2	I	2	0	1079	1	Ⴐ	cut_w.wav
4	118	3	3	2	I	2	0	1001	1	Ⴏ	cut_g.wav
4	119	1	1	1	C	1	1	1098	1	Ⴕ	cut_h.wav
4	120	2	1	0	C	2	1	878	1	Ⴖ	cut_h.wav
4	121	4	3	2	I	1	0	1576	0	Ⴐ	cut_g.wav
4	122	3	4	2	I	1	0	1856	1	Ⴏ	cut_w.wav
4	123	2	1	0	C	2	1	560	1	Ⴖ	cut_h.wav
4	124	1	1	1	C	1	1	804	1	Ⴕ	cut_h.wav
4	125	3	3	2	I	2	0	1320	0	Ⴏ	cut_g.wav
4	126	2	2	1	C	1	1	811	1	Ⴖ	cut_l.wav
4	127	4	4	2	I	2	0	1068	1	Ⴐ	cut_w.wav
4	128	1	2	0	C	2	1	950	1	Ⴕ	cut_l.wav
4	129	3	4	2	I	1	0	1392	0	Ⴏ	cut_w.wav
4	130	1	1	1	C	2	0	1272	0	Ⴕ	cut_h.wav
4	131	4	4	2	I	2	0	1081	1	Ⴐ	cut_w.wav
4	132	2	1	0	C	2	1	648	1	Ⴖ	cut_h.wav
4	133	4	3	2	I	1	0	1595	0	Ⴐ	cut_g.wav
4	134	2	2	1	C	1	1	869	1	Ⴖ	cut_l.wav
4	135	1	2	0	C	2	1	828	1	Ⴕ	cut_l.wav
4	136	3	3	2	I	2	0	973	1	Ⴏ	cut_g.wav
4	137	1	2	0	C	2	1	731	1	Ⴕ	cut_l.wav
4	138	3	3	2	I	2	0	864	1	Ⴏ	cut_g.wav
4	139	2	1	0	C	2	1	738	1	Ⴖ	cut_h.wav
4	140	4	3	2	I	2	0	1024	0	Ⴐ	cut_g.wav
4	141	3	4	2	I	1	0	1394	0	Ⴏ	cut_w.wav
4	142	2	2	1	C	1	1	791	1	Ⴖ	cut_l.wav
4	143	4	4	2	I	2	0	960	0	Ⴐ	cut_w.wav
4	144	1	1	1	C	1	1	887	1	Ⴕ	cut_h.wav
4	145	2	2	1	C	1	1	781	1	Ⴖ	cut_l.wav
4	146	1	2	0	C	2	1	640	1	Ⴕ	cut_l.wav
4	147	3	4	2	I	1	0	1622	1	Ⴏ	cut_w.wav
4	148	4	3	2	I	1	0	1480	0	Ⴐ	cut_g.wav
4	149	2	1	0	C	2	1	717	1	Ⴖ	cut_h.wav
4	150	1	1	1	C	1	1	771	1	Ⴕ	cut_h.wav
4	151	3	3	2	I	2	0	965	1	Ⴏ	cut_g.wav
4	152	4	4	2	I	2	0	1102	1	Ⴐ	cut_w.wav
4	153	1	1	1	C	1	1	930	1	Ⴕ	cut_h.wav
4	154	2	1	0	C	2	1	701	1	Ⴖ	cut_h.wav
4	155	4	4	2	I	2	0	784	0	Ⴐ	cut_w.wav
4	156	3	4	2	I	1	0	1319	0	Ⴏ	cut_w.wav
4	157	4	3	2	I	2	0	1050	0	Ⴐ	cut_g.wav
4	158	1	2	0	C	2	1	915	1	Ⴕ	cut_l.wav
4	159	2	2	1	C	1	1	1331	1	Ⴖ	cut_l.wav
4	160	3	3	2	I	2	0	1054	0	Ⴏ	cut_g.wav
4	161	4	3	2	I	1	0	1137	1	Ⴐ	cut_g.wav
4	162	1	1	1	C	1	1	817	1	Ⴕ	cut_h.wav
4	163	3	4	2	I	1	0	1333	0	Ⴏ	cut_w.wav
4	164	2	2	1	C	1	1	1033	1	Ⴖ	cut_l.wav
4	165	4	4	2	I	2	0	804	0	Ⴐ	cut_w.wav
4	166	1	2	0	C	2	1	886	1	Ⴕ	cut_l.wav
4	167	2	1	0	C	2	1	1006	1	Ⴖ	cut_h.wav
4	168	3	3	2	I	2	0	861	1	Ⴏ	cut_g.wav
4	169	1	2	0	C	2	1	805	1	Ⴕ	cut_l.wav
4	170	4	4	2	I	2	0	666	0	Ⴐ	cut_w.wav
4	171	3	3	2	I	2	0	768	1	Ⴏ	cut_g.wav
4	172	2	2	1	C	1	1	764	1	Ⴖ	cut_l.wav
4	173	3	4	2	I	1	0	1186	1	Ⴏ	cut_w.wav
4	174	2	1	0	C	2	1	608	1	Ⴖ	cut_h.wav
4	175	1	1	1	C	1	1	728	1	Ⴕ	cut_h.wav
4	176	4	3	2	I	1	0	953	0	Ⴐ	cut_g.wav
4	177	2	1	0	C	2	1	613	1	Ⴖ	cut_h.wav
4	178	1	1	1	C	1	1	684	1	Ⴕ	cut_h.wav
4	179	4	4	2	I	2	0	769	1	Ⴐ	cut_w.wav
4	180	3	4	2	I	1	0	834	0	Ⴏ	cut_w.wav
4	181	1	2	0	C	2	1	955	1	Ⴕ	cut_l.wav
4	182	2	2	1	C	1	1	676	1	Ⴖ	cut_l.wav
4	183	3	3	2	I	2	0	1245	1	Ⴏ	cut_g.wav
4	184	4	3	2	I	1	0	1015	1	Ⴐ	cut_g.wav
4	185	1	2	0	C	2	1	615	1	Ⴕ	cut_l.wav
4	186	2	2	1	C	1	1	714	1	Ⴖ	cut_l.wav
4	187	3	3	2	I	2	0	891	1	Ⴏ	cut_g.wav
4	188	4	4	2	I	2	0	919	0	Ⴐ	cut_w.wav
4	189	1	1	1	C	1	1	762	1	Ⴕ	cut_h.wav
4	190	4	3	2	I	1	0	1348	1	Ⴐ	cut_g.wav
4	191	2	1	0	C	2	1	1171	1	Ⴖ	cut_h.wav
4	192	3	4	2	I	1	0	749	0	Ⴏ	cut_w.wav
4	193	1	2	0	C	2	1	803	1	Ⴕ	cut_l.wav
4	194	2	1	0	C	2	1	746	1	Ⴖ	cut_h.wav
4	195	4	3	2	I	1	0	872	1	Ⴐ	cut_g.wav
4	196	3	4	2	I	1	0	1080	0	Ⴏ	cut_w.wav
4	197	2	2	1	C	1	1	1092	1	Ⴖ	cut_l.wav
4	198	1	1	1	C	1	1	807	1	Ⴕ	cut_h.wav
4	199	4	4	2	I	2	0	810	1	Ⴐ	cut_w.wav
4	200	3	3	2	I	2	0	977	1	Ⴏ	cut_g.wav
