block	trial	Vstim	Astim	match	C/I	resp	.result	RT	fb	V-file	A-file
LR

0	1	2	4	0	C	1	1	1900	1	Ⴞ	cut_ee.wav
0	2	1	1	1	C	2	1	924	1	Ⴉ	cut_g.wav
0	3	1	2	0	C	1	1	841	1	Ⴉ	cut_eeuw.wav
0	4	2	3	1	C	2	1	719	1	Ⴞ	cut_oo.wav
0	5	1	2	0	C	1	1	889	1	Ⴉ	cut_eeuw.wav
0	6	2	3	1	C	2	1	558	1	Ⴞ	cut_oo.wav
0	7	2	4	0	C	1	1	813	1	Ⴞ	cut_ee.wav
0	8	1	1	1	C	2	1	580	1	Ⴉ	cut_g.wav
0	9	1	1	1	C	2	1	1244	1	Ⴉ	cut_g.wav
0	10	2	4	0	C	1	1	617	1	Ⴞ	cut_ee.wav
0	11	1	2	0	C	1	1	1297	1	Ⴉ	cut_eeuw.wav
0	12	2	3	1	C	2	1	680	1	Ⴞ	cut_oo.wav
0	13	1	2	0	C	2	0	1761	0	Ⴉ	cut_eeuw.wav
0	14	1	1	1	C	2	1	747	1	Ⴉ	cut_g.wav
0	15	2	3	1	C	1	0	485	0	Ⴞ	cut_oo.wav
0	16	2	4	0	C	1	1	583	1	Ⴞ	cut_ee.wav
0	17	1	1	1	C	2	1	604	1	Ⴉ	cut_g.wav
0	18	2	4	0	C	1	1	560	1	Ⴞ	cut_ee.wav
0	19	1	2	0	C	1	1	1196	1	Ⴉ	cut_eeuw.wav
0	20	2	3	1	C	2	1	760	1	Ⴞ	cut_oo.wav
0	21	1	2	0	C	1	1	758	1	Ⴉ	cut_eeuw.wav
0	22	2	3	1	C	2	1	736	1	Ⴞ	cut_oo.wav
0	23	1	1	1	C	1	0	1440	0	Ⴉ	cut_g.wav
0	24	2	4	0	C	1	1	570	1	Ⴞ	cut_ee.wav
0	25	1	1	1	C	2	1	732	1	Ⴉ	cut_g.wav
0	26	2	3	1	C	1	0	1101	0	Ⴞ	cut_oo.wav
0	27	2	4	0	C	1	1	521	1	Ⴞ	cut_ee.wav
0	28	1	2	0	C	2	0	463	0	Ⴉ	cut_eeuw.wav
0	29	2	4	0	C	1	1	549	1	Ⴞ	cut_ee.wav
0	30	2	3	1	C	2	1	648	1	Ⴞ	cut_oo.wav
avg_resp = 801
1	1	1	1	1	C	1	0	1408	0	Ⴒ	cut_w.wav
1	2	2	1	0	C	1	1	747	1	Ⴐ	cut_w.wav
1	3	4	3	2	I	1	0	1159	1	Ⴕ	cut_h.wav
1	4	3	3	2	I	2	0	798	1	Ⴉ	cut_h.wav
1	5	1	2	0	C	2	0	1316	0	Ⴒ	cut_g.wav
1	6	3	4	2	I	1	0	756	1	Ⴉ	cut_l.wav
1	7	4	4	2	I	2	0	769	0	Ⴕ	cut_l.wav
1	8	2	2	1	C	1	0	641	0	Ⴐ	cut_g.wav
1	9	1	1	1	C	1	0	1024	0	Ⴒ	cut_w.wav
1	10	4	4	2	I	2	0	990	0	Ⴕ	cut_l.wav
1	11	3	3	2	I	1	0	876	0	Ⴉ	cut_h.wav
1	12	2	1	0	C	1	1	653	1	Ⴐ	cut_w.wav
1	13	4	3	2	I	1	0	873	0	Ⴕ	cut_h.wav
1	14	1	2	0	C	1	1	771	1	Ⴒ	cut_g.wav
1	15	3	4	2	I	1	0	828	0	Ⴉ	cut_l.wav
1	16	2	2	1	C	1	0	1129	0	Ⴐ	cut_g.wav
1	17	3	4	2	I	2	0	1179	1	Ⴉ	cut_l.wav
1	18	4	3	2	I	2	0	921	0	Ⴕ	cut_h.wav
1	19	2	1	0	C	1	1	664	1	Ⴐ	cut_w.wav
1	20	1	2	0	C	1	1	705	1	Ⴒ	cut_g.wav
1	21	4	4	2	I	1	0	516	1	Ⴕ	cut_l.wav
1	22	3	3	2	I	1	0	647	0	Ⴉ	cut_h.wav
1	23	2	2	1	C	1	0	779	0	Ⴐ	cut_g.wav
1	24	1	1	1	C	2	1	977	1	Ⴒ	cut_w.wav
1	25	4	3	2	I	2	0	1130	1	Ⴕ	cut_h.wav
1	26	1	2	0	C	1	1	641	1	Ⴒ	cut_g.wav
1	27	3	3	2	I	1	0	1136	1	Ⴉ	cut_h.wav
1	28	2	1	0	C	1	1	677	1	Ⴐ	cut_w.wav
1	29	4	4	2	I	1	0	1164	1	Ⴕ	cut_l.wav
1	30	1	1	1	C	2	1	1120	1	Ⴒ	cut_w.wav
1	31	2	2	1	C	2	1	940	1	Ⴐ	cut_g.wav
1	32	3	4	2	I	2	0	1207	0	Ⴉ	cut_l.wav
1	33	4	4	2	I	1	0	730	1	Ⴕ	cut_l.wav
1	34	3	3	2	I	1	0	1004	0	Ⴉ	cut_h.wav
1	35	2	1	0	C	1	1	771	1	Ⴐ	cut_w.wav
1	36	1	2	0	C	1	1	522	1	Ⴒ	cut_g.wav
1	37	4	3	2	I	2	0	1044	0	Ⴕ	cut_h.wav
1	38	3	4	2	I	1	0	685	0	Ⴉ	cut_l.wav
1	39	2	2	1	C	1	0	844	0	Ⴐ	cut_g.wav
1	40	1	1	1	C	2	1	945	1	Ⴒ	cut_w.wav
1	41	4	3	2	I	2	0	1053	0	Ⴕ	cut_h.wav
1	42	1	2	0	C	1	1	638	1	Ⴒ	cut_g.wav
1	43	3	3	2	I	1	0	1128	0	Ⴉ	cut_h.wav
1	44	2	1	0	C	2	0	963	0	Ⴐ	cut_w.wav
1	45	4	4	2	I	1	0	673	1	Ⴕ	cut_l.wav
1	46	3	4	2	I	2	0	822	1	Ⴉ	cut_l.wav
1	47	2	2	1	C	2	1	952	1	Ⴐ	cut_g.wav
1	48	1	1	1	C	2	1	905	1	Ⴒ	cut_w.wav
1	49	4	4	2	I	1	0	874	1	Ⴕ	cut_l.wav
1	50	1	1	1	C	2	1	1218	1	Ⴒ	cut_w.wav
1	51	3	4	2	I	2	0	1466	0	Ⴉ	cut_l.wav
1	52	2	2	1	C	2	1	1915	1	Ⴐ	cut_g.wav
1	53	1	2	0	C	1	1	1298	1	Ⴒ	cut_g.wav
1	54	3	3	2	I	1	0	965	0	Ⴉ	cut_h.wav
1	55	2	1	0	C	1	1	774	1	Ⴐ	cut_w.wav
1	56	4	3	2	I	1	0	987	0	Ⴕ	cut_h.wav
1	57	1	2	0	C	1	1	711	1	Ⴒ	cut_g.wav
1	58	2	2	1	C	2	1	969	1	Ⴐ	cut_g.wav
1	59	3	3	2	I	1	0	921	0	Ⴉ	cut_h.wav
1	60	4	4	2	I	1	0	786	1	Ⴕ	cut_l.wav
1	61	1	1	1	C	2	1	1138	1	Ⴒ	cut_w.wav
1	62	3	4	2	I	1	0	931	0	Ⴉ	cut_l.wav
1	63	4	3	2	I	2	0	1516	1	Ⴕ	cut_h.wav
1	64	2	1	0	C	1	1	1013	1	Ⴐ	cut_w.wav
1	65	4	4	2	I	1	0	879	0	Ⴕ	cut_l.wav
1	66	1	2	0	C	1	1	1031	1	Ⴒ	cut_g.wav
1	67	2	2	1	C	2	1	1096	1	Ⴐ	cut_g.wav
1	68	3	4	2	I	1	0	917	1	Ⴉ	cut_l.wav
1	69	4	3	2	I	1	0	733	1	Ⴕ	cut_h.wav
1	70	1	1	1	C	2	1	1193	1	Ⴒ	cut_w.wav
1	71	3	3	2	I	2	0	837	1	Ⴉ	cut_h.wav
1	72	2	1	0	C	1	1	1034	1	Ⴐ	cut_w.wav
1	73	1	2	0	C	1	1	750	1	Ⴒ	cut_g.wav
1	74	3	3	2	I	2	0	1470	1	Ⴉ	cut_h.wav
1	75	2	2	1	C	1	0	645	0	Ⴐ	cut_g.wav
1	76	4	3	2	I	2	0	1076	0	Ⴕ	cut_h.wav
1	77	1	1	1	C	1	0	575	0	Ⴒ	cut_w.wav
1	78	4	4	2	I	1	0	1252	0	Ⴕ	cut_l.wav
1	79	2	1	0	C	1	1	1166	1	Ⴐ	cut_w.wav
1	80	3	4	2	I	1	0	1105	1	Ⴉ	cut_l.wav
1	81	1	1	1	C	2	1	1388	1	Ⴒ	cut_w.wav
1	82	3	4	2	I	0	0	0	0	Ⴉ	cut_l.wav
1	83	4	4	2	I	2	0	1096	1	Ⴕ	cut_l.wav
1	84	2	1	0	C	1	1	658	1	Ⴐ	cut_w.wav
1	85	4	3	2	I	1	0	1279	1	Ⴕ	cut_h.wav
1	86	1	2	0	C	1	1	1180	1	Ⴒ	cut_g.wav
1	87	2	2	1	C	2	1	843	1	Ⴐ	cut_g.wav
1	88	3	3	2	I	1	0	920	0	Ⴉ	cut_h.wav
1	89	1	2	0	C	1	1	793	1	Ⴒ	cut_g.wav
1	90	3	4	2	I	0	0	0	0	Ⴉ	cut_l.wav
1	91	2	1	0	C	1	1	753	1	Ⴐ	cut_w.wav
1	92	4	3	2	I	1	0	974	1	Ⴕ	cut_h.wav
1	93	3	3	2	I	2	0	926	1	Ⴉ	cut_h.wav
1	94	1	1	1	C	2	1	1899	1	Ⴒ	cut_w.wav
1	95	4	4	2	I	2	0	1588	0	Ⴕ	cut_l.wav
1	96	2	2	1	C	1	0	849	0	Ⴐ	cut_g.wav
1	97	3	4	2	I	1	0	1446	1	Ⴉ	cut_l.wav
1	98	4	3	2	I	1	0	1054	1	Ⴕ	cut_h.wav
1	99	2	2	1	C	1	0	668	0	Ⴐ	cut_g.wav
1	100	1	1	1	C	2	1	898	1	Ⴒ	cut_w.wav
1	101	2	1	0	C	1	1	789	1	Ⴐ	cut_w.wav
1	102	3	3	2	I	2	0	1367	0	Ⴉ	cut_h.wav
1	103	1	2	0	C	1	1	925	1	Ⴒ	cut_g.wav
1	104	4	4	2	I	1	0	852	0	Ⴕ	cut_l.wav
1	105	3	4	2	I	1	0	787	0	Ⴉ	cut_l.wav
1	106	4	4	2	I	1	0	852	1	Ⴕ	cut_l.wav
1	107	1	2	0	C	1	1	988	1	Ⴒ	cut_g.wav
1	108	2	1	0	C	1	1	818	1	Ⴐ	cut_w.wav
1	109	1	1	1	C	2	1	1286	1	Ⴒ	cut_w.wav
1	110	3	3	2	I	1	0	914	1	Ⴉ	cut_h.wav
1	111	4	3	2	I	2	0	1039	1	Ⴕ	cut_h.wav
1	112	2	2	1	C	1	0	726	0	Ⴐ	cut_g.wav
1	113	1	1	1	C	2	1	1044	1	Ⴒ	cut_w.wav
1	114	3	4	2	I	1	0	1188	1	Ⴉ	cut_l.wav
1	115	4	4	2	I	1	0	1107	0	Ⴕ	cut_l.wav
1	116	2	2	1	C	2	1	1253	1	Ⴐ	cut_g.wav
1	117	3	3	2	I	1	0	913	1	Ⴉ	cut_h.wav
1	118	1	2	0	C	1	1	1033	1	Ⴒ	cut_g.wav
1	119	2	1	0	C	1	1	1150	1	Ⴐ	cut_w.wav
1	120	4	3	2	I	1	0	1723	0	Ⴕ	cut_h.wav
1	121	1	1	1	C	2	1	1238	1	Ⴒ	cut_w.wav
1	122	3	4	2	I	2	0	1371	0	Ⴉ	cut_l.wav
1	123	2	2	1	C	2	1	957	1	Ⴐ	cut_g.wav
1	124	4	4	2	I	1	0	1510	1	Ⴕ	cut_l.wav
1	125	2	1	0	C	1	1	810	1	Ⴐ	cut_w.wav
1	126	3	3	2	I	1	0	853	1	Ⴉ	cut_h.wav
1	127	1	2	0	C	1	1	674	1	Ⴒ	cut_g.wav
1	128	4	3	2	I	2	0	901	0	Ⴕ	cut_h.wav
1	129	2	1	0	C	1	1	1505	1	Ⴐ	cut_w.wav
1	130	3	4	2	I	2	0	1089	0	Ⴉ	cut_l.wav
1	131	1	2	0	C	1	1	689	1	Ⴒ	cut_g.wav
1	132	4	3	2	I	2	0	1162	0	Ⴕ	cut_h.wav
1	133	2	2	1	C	1	0	1351	0	Ⴐ	cut_g.wav
1	134	3	3	2	I	1	0	1074	0	Ⴉ	cut_h.wav
1	135	4	4	2	I	2	0	1429	0	Ⴕ	cut_l.wav
1	136	1	1	1	C	2	1	1222	1	Ⴒ	cut_w.wav
1	137	2	1	0	C	1	1	1167	1	Ⴐ	cut_w.wav
1	138	4	3	2	I	2	0	1788	0	Ⴕ	cut_h.wav
1	139	3	4	2	I	2	0	1275	1	Ⴉ	cut_l.wav
1	140	1	2	0	C	1	1	1014	1	Ⴒ	cut_g.wav
1	141	3	3	2	I	1	0	1277	1	Ⴉ	cut_h.wav
1	142	2	2	1	C	1	0	991	0	Ⴐ	cut_g.wav
1	143	1	1	1	C	2	1	1084	1	Ⴒ	cut_w.wav
1	144	4	4	2	I	1	0	1118	1	Ⴕ	cut_l.wav
1	145	1	2	0	C	1	1	788	1	Ⴒ	cut_g.wav
1	146	2	1	0	C	1	1	952	1	Ⴐ	cut_w.wav
1	147	4	4	2	I	1	0	975	1	Ⴕ	cut_l.wav
1	148	3	3	2	I	1	0	792	0	Ⴉ	cut_h.wav
1	149	1	1	1	C	1	0	611	0	Ⴒ	cut_w.wav
1	150	3	4	2	I	1	0	1920	1	Ⴉ	cut_l.wav
1	151	4	3	2	I	1	0	919	0	Ⴕ	cut_h.wav
1	152	2	2	1	C	1	0	1870	0	Ⴐ	cut_g.wav
1	153	3	3	2	I	2	0	1158	1	Ⴉ	cut_h.wav
1	154	1	2	0	C	1	1	706	1	Ⴒ	cut_g.wav
1	155	4	4	2	I	1	0	995	0	Ⴕ	cut_l.wav
1	156	2	2	1	C	2	1	1843	1	Ⴐ	cut_g.wav
1	157	1	1	1	C	2	1	1707	1	Ⴒ	cut_w.wav
1	158	2	1	0	C	1	1	1059	1	Ⴐ	cut_w.wav
1	159	3	4	2	I	2	0	1825	1	Ⴉ	cut_l.wav
1	160	4	3	2	I	1	0	1932	1	Ⴕ	cut_h.wav
1	161	2	2	1	C	2	1	1534	1	Ⴐ	cut_g.wav
1	162	4	4	2	I	1	0	1114	0	Ⴕ	cut_l.wav
1	163	1	2	0	C	1	1	879	1	Ⴒ	cut_g.wav
1	164	3	3	2	I	1	0	1507	0	Ⴉ	cut_h.wav
1	165	1	1	1	C	2	1	1082	1	Ⴒ	cut_w.wav
1	166	4	3	2	I	1	0	1318	0	Ⴕ	cut_h.wav
1	167	2	1	0	C	1	1	1150	1	Ⴐ	cut_w.wav
1	168	3	4	2	I	2	0	1101	1	Ⴉ	cut_l.wav
1	169	4	4	2	I	2	0	675	1	Ⴕ	cut_l.wav
1	170	3	4	2	I	2	0	590	1	Ⴉ	cut_l.wav
1	171	1	2	0	C	1	1	1050	1	Ⴒ	cut_g.wav
1	172	2	1	0	C	1	1	879	1	Ⴐ	cut_w.wav
1	173	3	3	2	I	1	0	1102	0	Ⴉ	cut_h.wav
1	174	1	1	1	C	2	1	994	1	Ⴒ	cut_w.wav
1	175	4	3	2	I	2	0	1309	0	Ⴕ	cut_h.wav
1	176	2	2	1	C	2	1	1370	1	Ⴐ	cut_g.wav
1	177	4	3	2	I	2	0	780	1	Ⴕ	cut_h.wav
1	178	1	1	1	C	1	0	733	0	Ⴒ	cut_w.wav
1	179	2	2	1	C	2	1	984	1	Ⴐ	cut_g.wav
1	180	3	4	2	I	1	0	1572	1	Ⴉ	cut_l.wav
1	181	1	2	0	C	1	1	1172	1	Ⴒ	cut_g.wav
1	182	2	1	0	C	2	0	982	0	Ⴐ	cut_w.wav
1	183	3	3	2	I	2	0	823	1	Ⴉ	cut_h.wav
1	184	4	4	2	I	1	0	748	0	Ⴕ	cut_l.wav
1	185	1	1	1	C	2	1	936	1	Ⴒ	cut_w.wav
1	186	2	1	0	C	1	1	1443	1	Ⴐ	cut_w.wav
1	187	3	4	2	I	2	0	1374	0	Ⴉ	cut_l.wav
1	188	4	4	2	I	1	0	765	0	Ⴕ	cut_l.wav
1	189	3	3	2	I	1	0	1197	1	Ⴉ	cut_h.wav
1	190	4	3	2	I	2	0	1192	1	Ⴕ	cut_h.wav
1	191	1	2	0	C	1	1	682	1	Ⴒ	cut_g.wav
1	192	2	2	1	C	2	1	782	1	Ⴐ	cut_g.wav
1	193	4	3	2	I	2	0	1844	1	Ⴕ	cut_h.wav
1	194	2	2	1	C	2	1	1234	1	Ⴐ	cut_g.wav
1	195	1	1	1	C	2	1	1132	1	Ⴒ	cut_w.wav
1	196	3	3	2	I	1	0	1534	0	Ⴉ	cut_h.wav
1	197	4	4	2	I	1	0	961	1	Ⴕ	cut_l.wav
1	198	3	4	2	I	2	0	969	0	Ⴉ	cut_l.wav
1	199	1	2	0	C	1	1	1876	1	Ⴒ	cut_g.wav
1	200	2	1	0	C	1	1	1978	1	Ⴐ	cut_w.wav
2	1	3	4	2	I	1	0	1120	1	Ⴌ	cut_u.wav
2	2	4	4	2	I	2	0	718	0	Ⴏ	cut_u.wav
2	3	1	2	0	C	1	1	1221	1	Ⴖ	cut_k.wav
2	4	2	1	0	C	1	1	1157	1	Ⴔ	cut_o.wav
2	5	1	1	1	C	2	1	772	1	Ⴖ	cut_o.wav
2	6	4	3	2	I	2	0	1154	0	Ⴏ	cut_a.wav
2	7	2	2	1	C	2	1	851	1	Ⴔ	cut_k.wav
2	8	3	3	2	I	1	0	712	0	Ⴌ	cut_a.wav
2	9	1	2	0	C	2	0	738	0	Ⴖ	cut_k.wav
2	10	4	3	2	I	1	0	918	0	Ⴏ	cut_a.wav
2	11	3	4	2	I	1	0	1812	0	Ⴌ	cut_u.wav
2	12	2	1	0	C	1	1	778	1	Ⴔ	cut_o.wav
2	13	4	4	2	I	1	0	934	1	Ⴏ	cut_u.wav
2	14	2	2	1	C	2	1	876	1	Ⴔ	cut_k.wav
2	15	1	1	1	C	2	1	798	1	Ⴖ	cut_o.wav
2	16	3	3	2	I	2	0	682	1	Ⴌ	cut_a.wav
2	17	1	2	0	C	2	0	664	0	Ⴖ	cut_k.wav
2	18	3	3	2	I	2	0	855	0	Ⴌ	cut_a.wav
2	19	2	1	0	C	1	1	593	1	Ⴔ	cut_o.wav
2	20	4	4	2	I	1	0	645	0	Ⴏ	cut_u.wav
2	21	3	4	2	I	1	0	603	0	Ⴌ	cut_u.wav
2	22	4	3	2	I	1	0	686	0	Ⴏ	cut_a.wav
2	23	2	2	1	C	2	1	902	1	Ⴔ	cut_k.wav
2	24	1	1	1	C	2	1	903	1	Ⴖ	cut_o.wav
2	25	2	1	0	C	1	1	599	1	Ⴔ	cut_o.wav
2	26	3	3	2	I	2	0	991	1	Ⴌ	cut_a.wav
2	27	1	2	0	C	1	1	1100	1	Ⴖ	cut_k.wav
2	28	4	3	2	I	2	0	929	0	Ⴏ	cut_a.wav
2	29	3	4	2	I	2	0	906	1	Ⴌ	cut_u.wav
2	30	4	4	2	I	1	0	600	0	Ⴏ	cut_u.wav
2	31	2	2	1	C	2	1	759	1	Ⴔ	cut_k.wav
2	32	1	1	1	C	2	1	796	1	Ⴖ	cut_o.wav
2	33	4	4	2	I	1	0	602	1	Ⴏ	cut_u.wav
2	34	2	2	1	C	2	1	677	1	Ⴔ	cut_k.wav
2	35	1	2	0	C	1	1	953	1	Ⴖ	cut_k.wav
2	36	3	3	2	I	2	0	819	1	Ⴌ	cut_a.wav
2	37	1	1	1	C	2	1	944	1	Ⴖ	cut_o.wav
2	38	4	3	2	I	2	0	1091	1	Ⴏ	cut_a.wav
2	39	3	4	2	I	2	0	1134	0	Ⴌ	cut_u.wav
2	40	2	1	0	C	1	1	605	1	Ⴔ	cut_o.wav
2	41	3	3	2	I	2	0	985	0	Ⴌ	cut_a.wav
2	42	1	2	0	C	1	1	988	1	Ⴖ	cut_k.wav
2	43	2	2	1	C	2	1	612	1	Ⴔ	cut_k.wav
2	44	4	4	2	I	1	0	895	0	Ⴏ	cut_u.wav
2	45	2	1	0	C	1	1	531	1	Ⴔ	cut_o.wav
2	46	3	4	2	I	2	0	931	0	Ⴌ	cut_u.wav
2	47	4	3	2	I	2	0	777	0	Ⴏ	cut_a.wav
2	48	1	1	1	C	2	1	916	1	Ⴖ	cut_o.wav
2	49	3	3	2	I	1	0	1091	1	Ⴌ	cut_a.wav
2	50	2	1	0	C	1	1	586	1	Ⴔ	cut_o.wav
2	51	4	3	2	I	2	0	983	1	Ⴏ	cut_a.wav
2	52	1	2	0	C	1	1	691	1	Ⴖ	cut_k.wav
2	53	2	2	1	C	2	1	572	1	Ⴔ	cut_k.wav
2	54	3	4	2	I	2	0	1095	1	Ⴌ	cut_u.wav
2	55	4	4	2	I	1	0	1075	1	Ⴏ	cut_u.wav
2	56	1	1	1	C	2	1	829	1	Ⴖ	cut_o.wav
2	57	4	4	2	I	1	0	630	0	Ⴏ	cut_u.wav
2	58	3	4	2	I	1	0	701	1	Ⴌ	cut_u.wav
2	59	1	2	0	C	1	1	721	1	Ⴖ	cut_k.wav
2	60	2	2	1	C	2	1	521	1	Ⴔ	cut_k.wav
2	61	4	3	2	I	2	0	893	0	Ⴏ	cut_a.wav
2	62	3	3	2	I	1	0	621	0	Ⴌ	cut_a.wav
2	63	2	1	0	C	1	1	1330	1	Ⴔ	cut_o.wav
2	64	1	1	1	C	2	1	750	1	Ⴖ	cut_o.wav
2	65	2	1	0	C	1	1	858	1	Ⴔ	cut_o.wav
2	66	4	4	2	I	1	0	644	1	Ⴏ	cut_u.wav
2	67	1	2	0	C	1	1	1331	1	Ⴖ	cut_k.wav
2	68	3	4	2	I	1	0	871	0	Ⴌ	cut_u.wav
2	69	4	3	2	I	1	0	1170	1	Ⴏ	cut_a.wav
2	70	2	2	1	C	2	1	835	1	Ⴔ	cut_k.wav
2	71	1	1	1	C	2	1	793	1	Ⴖ	cut_o.wav
2	72	3	3	2	I	1	0	804	0	Ⴌ	cut_a.wav
2	73	2	1	0	C	1	1	699	1	Ⴔ	cut_o.wav
2	74	1	2	0	C	1	1	1063	1	Ⴖ	cut_k.wav
2	75	4	3	2	I	1	0	1359	0	Ⴏ	cut_a.wav
2	76	3	3	2	I	1	0	693	1	Ⴌ	cut_a.wav
2	77	2	2	1	C	1	0	761	0	Ⴔ	cut_k.wav
2	78	3	4	2	I	1	0	849	0	Ⴌ	cut_u.wav
2	79	1	1	1	C	2	1	1198	1	Ⴖ	cut_o.wav
2	80	4	4	2	I	1	0	1115	1	Ⴏ	cut_u.wav
2	81	2	2	1	C	2	1	849	1	Ⴔ	cut_k.wav
2	82	1	1	1	C	2	1	1157	1	Ⴖ	cut_o.wav
2	83	4	4	2	I	1	0	1318	0	Ⴏ	cut_u.wav
2	84	3	4	2	I	1	0	875	0	Ⴌ	cut_u.wav
2	85	2	1	0	C	1	1	591	1	Ⴔ	cut_o.wav
2	86	1	2	0	C	0	0	0	0	Ⴖ	cut_k.wav
2	87	4	3	2	I	1	0	1074	1	Ⴏ	cut_a.wav
2	88	3	3	2	I	2	0	745	1	Ⴌ	cut_a.wav
2	89	4	3	2	I	1	0	685	0	Ⴏ	cut_a.wav
2	90	3	4	2	I	1	0	1056	1	Ⴌ	cut_u.wav
2	91	1	1	1	C	2	1	1017	1	Ⴖ	cut_o.wav
2	92	2	2	1	C	2	1	763	1	Ⴔ	cut_k.wav
2	93	1	2	0	C	1	1	697	1	Ⴖ	cut_k.wav
2	94	2	1	0	C	1	1	481	1	Ⴔ	cut_o.wav
2	95	4	4	2	I	1	0	711	1	Ⴏ	cut_u.wav
2	96	3	3	2	I	1	0	780	1	Ⴌ	cut_a.wav
2	97	2	2	1	C	2	1	1223	1	Ⴔ	cut_k.wav
2	98	3	4	2	I	2	0	1327	1	Ⴌ	cut_u.wav
2	99	1	1	1	C	2	1	1112	1	Ⴖ	cut_o.wav
2	100	4	3	2	I	2	0	1218	1	Ⴏ	cut_a.wav
2	101	1	2	0	C	1	1	1025	1	Ⴖ	cut_k.wav
2	102	2	1	0	C	1	1	757	1	Ⴔ	cut_o.wav
2	103	3	3	2	I	1	0	806	1	Ⴌ	cut_a.wav
2	104	4	4	2	I	1	0	825	1	Ⴏ	cut_u.wav
2	105	3	4	2	I	2	0	978	1	Ⴌ	cut_u.wav
2	106	2	1	0	C	1	1	551	1	Ⴔ	cut_o.wav
2	107	4	3	2	I	2	0	868	1	Ⴏ	cut_a.wav
2	108	1	1	1	C	2	1	1136	1	Ⴖ	cut_o.wav
2	109	4	4	2	I	1	0	702	0	Ⴏ	cut_u.wav
2	110	1	2	0	C	1	1	818	1	Ⴖ	cut_k.wav
2	111	3	3	2	I	1	0	671	1	Ⴌ	cut_a.wav
2	112	2	2	1	C	2	1	854	1	Ⴔ	cut_k.wav
2	113	1	2	0	C	1	1	650	1	Ⴖ	cut_k.wav
2	114	3	4	2	I	2	0	1032	1	Ⴌ	cut_u.wav
2	115	4	3	2	I	2	0	894	0	Ⴏ	cut_a.wav
2	116	2	1	0	C	1	1	661	1	Ⴔ	cut_o.wav
2	117	1	1	1	C	2	1	1088	1	Ⴖ	cut_o.wav
2	118	3	3	2	I	1	0	668	0	Ⴌ	cut_a.wav
2	119	4	4	2	I	1	0	735	0	Ⴏ	cut_u.wav
2	120	2	2	1	C	2	1	845	1	Ⴔ	cut_k.wav
2	121	4	3	2	I	2	0	961	0	Ⴏ	cut_a.wav
2	122	3	3	2	I	1	0	785	0	Ⴌ	cut_a.wav
2	123	1	2	0	C	1	1	811	1	Ⴖ	cut_k.wav
2	124	2	2	1	C	2	1	1107	1	Ⴔ	cut_k.wav
2	125	1	1	1	C	2	1	698	1	Ⴖ	cut_o.wav
2	126	3	4	2	I	2	0	853	1	Ⴌ	cut_u.wav
2	127	2	1	0	C	1	1	673	1	Ⴔ	cut_o.wav
2	128	4	4	2	I	1	0	774	1	Ⴏ	cut_u.wav
2	129	1	2	0	C	1	1	785	1	Ⴖ	cut_k.wav
2	130	2	1	0	C	1	1	569	1	Ⴔ	cut_o.wav
2	131	3	3	2	I	1	0	780	1	Ⴌ	cut_a.wav
2	132	4	4	2	I	1	0	710	1	Ⴏ	cut_u.wav
2	133	3	4	2	I	2	0	1196	1	Ⴌ	cut_u.wav
2	134	2	2	1	C	2	1	937	1	Ⴔ	cut_k.wav
2	135	4	3	2	I	2	0	1289	1	Ⴏ	cut_a.wav
2	136	1	1	1	C	2	1	826	1	Ⴖ	cut_o.wav
2	137	4	3	2	I	2	0	701	1	Ⴏ	cut_a.wav
2	138	3	4	2	I	2	0	855	0	Ⴌ	cut_u.wav
2	139	1	2	0	C	1	1	941	1	Ⴖ	cut_k.wav
2	140	2	1	0	C	1	1	524	1	Ⴔ	cut_o.wav
2	141	1	1	1	C	2	1	617	1	Ⴖ	cut_o.wav
2	142	2	2	1	C	2	1	936	1	Ⴔ	cut_k.wav
2	143	3	3	2	I	1	0	752	0	Ⴌ	cut_a.wav
2	144	4	4	2	I	1	0	818	0	Ⴏ	cut_u.wav
2	145	3	4	2	I	1	0	821	0	Ⴌ	cut_u.wav
2	146	1	2	0	C	1	1	806	1	Ⴖ	cut_k.wav
2	147	2	2	1	C	2	1	844	1	Ⴔ	cut_k.wav
2	148	4	4	2	I	1	0	696	1	Ⴏ	cut_u.wav
2	149	2	1	0	C	1	1	641	1	Ⴔ	cut_o.wav
2	150	3	3	2	I	1	0	698	0	Ⴌ	cut_a.wav
2	151	4	3	2	I	0	0	0	0	Ⴏ	cut_a.wav
2	152	1	1	1	C	2	1	1425	1	Ⴖ	cut_o.wav
2	153	2	2	1	C	2	1	766	1	Ⴔ	cut_k.wav
2	154	4	3	2	I	2	0	774	0	Ⴏ	cut_a.wav
2	155	3	4	2	I	2	0	1514	0	Ⴌ	cut_u.wav
2	156	1	2	0	C	1	1	790	1	Ⴖ	cut_k.wav
2	157	2	1	0	C	1	1	632	1	Ⴔ	cut_o.wav
2	158	3	3	2	I	1	0	589	0	Ⴌ	cut_a.wav
2	159	1	1	1	C	2	1	1186	1	Ⴖ	cut_o.wav
2	160	4	4	2	I	1	0	817	1	Ⴏ	cut_u.wav
2	161	1	2	0	C	1	1	741	1	Ⴖ	cut_k.wav
2	162	4	4	2	I	1	0	902	0	Ⴏ	cut_u.wav
2	163	2	1	0	C	1	1	771	1	Ⴔ	cut_o.wav
2	164	3	4	2	I	1	0	715	1	Ⴌ	cut_u.wav
2	165	1	1	1	C	2	1	1111	1	Ⴖ	cut_o.wav
2	166	3	3	2	I	1	0	676	0	Ⴌ	cut_a.wav
2	167	2	2	1	C	2	1	1463	1	Ⴔ	cut_k.wav
2	168	4	3	2	I	2	0	755	1	Ⴏ	cut_a.wav
2	169	3	4	2	I	1	0	934	1	Ⴌ	cut_u.wav
2	170	2	2	1	C	2	1	1169	1	Ⴔ	cut_k.wav
2	171	4	4	2	I	1	0	879	1	Ⴏ	cut_u.wav
2	172	1	1	1	C	2	1	1275	1	Ⴖ	cut_o.wav
2	173	3	3	2	I	1	0	823	1	Ⴌ	cut_a.wav
2	174	1	2	0	C	2	0	1000	0	Ⴖ	cut_k.wav
2	175	2	1	0	C	1	1	991	1	Ⴔ	cut_o.wav
2	176	4	3	2	I	2	0	1007	0	Ⴏ	cut_a.wav
2	177	1	2	0	C	1	1	747	1	Ⴖ	cut_k.wav
2	178	2	2	1	C	2	1	819	1	Ⴔ	cut_k.wav
2	179	3	3	2	I	1	0	839	0	Ⴌ	cut_a.wav
2	180	4	4	2	I	1	0	921	1	Ⴏ	cut_u.wav
2	181	2	1	0	C	1	1	492	1	Ⴔ	cut_o.wav
2	182	3	4	2	I	2	0	949	1	Ⴌ	cut_u.wav
2	183	1	1	1	C	1	0	1058	0	Ⴖ	cut_o.wav
2	184	4	3	2	I	2	0	752	0	Ⴏ	cut_a.wav
2	185	3	3	2	I	2	0	557	1	Ⴌ	cut_a.wav
2	186	4	3	2	I	2	0	517	0	Ⴏ	cut_a.wav
2	187	2	2	1	C	2	1	787	1	Ⴔ	cut_k.wav
2	188	1	2	0	C	1	1	1040	1	Ⴖ	cut_k.wav
2	189	4	4	2	I	1	0	822	1	Ⴏ	cut_u.wav
2	190	1	1	1	C	2	1	1803	1	Ⴖ	cut_o.wav
2	191	3	4	2	I	2	0	1224	0	Ⴌ	cut_u.wav
2	192	2	1	0	C	1	1	777	1	Ⴔ	cut_o.wav
2	193	1	2	0	C	1	1	670	1	Ⴖ	cut_k.wav
2	194	4	4	2	I	1	0	1166	1	Ⴏ	cut_u.wav
2	195	3	4	2	I	1	0	1516	0	Ⴌ	cut_u.wav
2	196	2	2	1	C	2	1	920	1	Ⴔ	cut_k.wav
2	197	3	3	2	I	1	0	950	0	Ⴌ	cut_a.wav
2	198	4	3	2	I	1	0	812	0	Ⴏ	cut_a.wav
2	199	2	1	0	C	0	0	0	0	Ⴔ	cut_o.wav
2	200	1	1	1	C	2	1	726	1	Ⴖ	cut_o.wav
3	1	2	1	0	C	1	1	1573	1	Ⴁ	cut_s.wav
3	2	4	4	2	I	1	0	1119	1	Ⴂ	cut_n.wav
3	3	1	1	1	C	2	1	617	1	Ⴃ	cut_s.wav
3	4	3	4	2	I	2	0	612	1	Ⴟ	cut_n.wav
3	5	4	3	2	I	2	0	765	0	Ⴂ	cut_r.wav
3	6	3	3	2	I	2	0	725	0	Ⴟ	cut_r.wav
3	7	2	2	1	C	1	0	1379	0	Ⴁ	cut_oei.wav
3	8	1	2	0	C	2	0	688	0	Ⴃ	cut_oei.wav
3	9	3	3	2	I	1	0	707	1	Ⴟ	cut_r.wav
3	10	4	4	2	I	1	0	814	0	Ⴂ	cut_n.wav
3	11	1	2	0	C	1	1	643	1	Ⴃ	cut_oei.wav
3	12	2	2	1	C	2	1	631	1	Ⴁ	cut_oei.wav
3	13	3	4	2	I	2	0	1102	1	Ⴟ	cut_n.wav
3	14	4	3	2	I	1	0	742	1	Ⴂ	cut_r.wav
3	15	2	1	0	C	1	1	909	1	Ⴁ	cut_s.wav
3	16	1	1	1	C	2	1	878	1	Ⴃ	cut_s.wav
3	17	3	4	2	I	1	0	811	1	Ⴟ	cut_n.wav
3	18	4	3	2	I	1	0	577	1	Ⴂ	cut_r.wav
3	19	1	2	0	C	1	1	667	1	Ⴃ	cut_oei.wav
3	20	2	1	0	C	1	1	723	1	Ⴁ	cut_s.wav
3	21	3	3	2	I	1	0	614	1	Ⴟ	cut_r.wav
3	22	2	2	1	C	1	0	631	0	Ⴁ	cut_oei.wav
3	23	4	4	2	I	1	0	1101	1	Ⴂ	cut_n.wav
3	24	1	1	1	C	2	1	834	1	Ⴃ	cut_s.wav
3	25	4	4	2	I	1	0	809	1	Ⴂ	cut_n.wav
3	26	3	3	2	I	1	0	682	0	Ⴟ	cut_r.wav
3	27	1	1	1	C	2	1	1181	1	Ⴃ	cut_s.wav
3	28	2	1	0	C	1	1	635	1	Ⴁ	cut_s.wav
3	29	3	4	2	I	1	0	1046	0	Ⴟ	cut_n.wav
3	30	1	2	0	C	2	0	705	0	Ⴃ	cut_oei.wav
3	31	4	3	2	I	1	0	728	1	Ⴂ	cut_r.wav
3	32	2	2	1	C	2	1	873	1	Ⴁ	cut_oei.wav
3	33	3	3	2	I	2	0	884	1	Ⴟ	cut_r.wav
3	34	1	1	1	C	2	1	725	1	Ⴃ	cut_s.wav
3	35	4	4	2	I	1	0	773	0	Ⴂ	cut_n.wav
3	36	2	2	1	C	1	0	598	0	Ⴁ	cut_oei.wav
3	37	1	2	0	C	1	1	709	1	Ⴃ	cut_oei.wav
3	38	4	3	2	I	1	0	764	1	Ⴂ	cut_r.wav
3	39	2	1	0	C	1	1	671	1	Ⴁ	cut_s.wav
3	40	3	4	2	I	1	0	937	0	Ⴟ	cut_n.wav
3	41	4	4	2	I	1	0	815	0	Ⴂ	cut_n.wav
3	42	1	1	1	C	2	1	881	1	Ⴃ	cut_s.wav
3	43	3	3	2	I	1	0	742	0	Ⴟ	cut_r.wav
3	44	2	2	1	C	2	1	1042	1	Ⴁ	cut_oei.wav
3	45	4	3	2	I	1	0	739	0	Ⴂ	cut_r.wav
3	46	2	1	0	C	1	1	1480	1	Ⴁ	cut_s.wav
3	47	1	2	0	C	1	1	921	1	Ⴃ	cut_oei.wav
3	48	3	4	2	I	1	0	1292	1	Ⴟ	cut_n.wav
3	49	2	2	1	C	2	1	1486	1	Ⴁ	cut_oei.wav
3	50	4	3	2	I	2	0	1308	1	Ⴂ	cut_r.wav
3	51	1	1	1	C	2	1	1778	1	Ⴃ	cut_s.wav
3	52	3	3	2	I	2	0	1148	0	Ⴟ	cut_r.wav
3	53	1	2	0	C	1	1	847	1	Ⴃ	cut_oei.wav
3	54	3	4	2	I	1	0	779	0	Ⴟ	cut_n.wav
3	55	4	4	2	I	1	0	724	1	Ⴂ	cut_n.wav
3	56	2	1	0	C	1	1	960	1	Ⴁ	cut_s.wav
3	57	1	1	1	C	2	1	691	1	Ⴃ	cut_s.wav
3	58	3	4	2	I	2	0	799	0	Ⴟ	cut_n.wav
3	59	4	4	2	I	2	0	1214	0	Ⴂ	cut_n.wav
3	60	2	1	0	C	1	1	984	1	Ⴁ	cut_s.wav
3	61	4	3	2	I	1	0	886	0	Ⴂ	cut_r.wav
3	62	3	3	2	I	1	0	817	0	Ⴟ	cut_r.wav
3	63	2	2	1	C	2	1	989	1	Ⴁ	cut_oei.wav
3	64	1	2	0	C	1	1	622	1	Ⴃ	cut_oei.wav
3	65	4	4	2	I	2	0	261	0	Ⴂ	cut_n.wav
3	66	2	2	1	C	1	0	750	0	Ⴁ	cut_oei.wav
3	67	3	3	2	I	2	0	1025	1	Ⴟ	cut_r.wav
3	68	1	1	1	C	2	1	993	1	Ⴃ	cut_s.wav
3	69	4	3	2	I	2	0	792	1	Ⴂ	cut_r.wav
3	70	1	2	0	C	1	1	903	1	Ⴃ	cut_oei.wav
3	71	3	4	2	I	2	0	601	0	Ⴟ	cut_n.wav
3	72	2	1	0	C	1	1	603	1	Ⴁ	cut_s.wav
3	73	3	4	2	I	2	0	645	1	Ⴟ	cut_n.wav
3	74	4	3	2	I	2	0	959	0	Ⴂ	cut_r.wav
3	75	1	1	1	C	2	1	875	1	Ⴃ	cut_s.wav
3	76	2	2	1	C	2	1	779	1	Ⴁ	cut_oei.wav
3	77	3	3	2	I	2	0	717	1	Ⴟ	cut_r.wav
3	78	1	2	0	C	1	1	700	1	Ⴃ	cut_oei.wav
3	79	4	4	2	I	2	0	726	0	Ⴂ	cut_n.wav
3	80	2	1	0	C	1	1	871	1	Ⴁ	cut_s.wav
3	81	1	2	0	C	1	1	731	1	Ⴃ	cut_oei.wav
3	82	3	3	2	I	1	0	547	1	Ⴟ	cut_r.wav
3	83	2	1	0	C	1	1	970	1	Ⴁ	cut_s.wav
3	84	4	4	2	I	1	0	838	1	Ⴂ	cut_n.wav
3	85	2	2	1	C	1	0	1474	0	Ⴁ	cut_oei.wav
3	86	3	4	2	I	1	0	1527	1	Ⴟ	cut_n.wav
3	87	1	1	1	C	2	1	1097	1	Ⴃ	cut_s.wav
3	88	4	3	2	I	1	0	763	1	Ⴂ	cut_r.wav
3	89	2	1	0	C	1	1	693	1	Ⴁ	cut_s.wav
3	90	3	3	2	I	2	0	1102	0	Ⴟ	cut_r.wav
3	91	4	3	2	I	1	0	653	1	Ⴂ	cut_r.wav
3	92	1	1	1	C	1	0	798	0	Ⴃ	cut_s.wav
3	93	2	2	1	C	2	1	1013	1	Ⴁ	cut_oei.wav
3	94	1	2	0	C	1	1	644	1	Ⴃ	cut_oei.wav
3	95	3	4	2	I	1	0	937	1	Ⴟ	cut_n.wav
3	96	4	4	2	I	2	0	814	1	Ⴂ	cut_n.wav
3	97	1	2	0	C	1	1	888	1	Ⴃ	cut_oei.wav
3	98	4	3	2	I	1	0	1043	0	Ⴂ	cut_r.wav
3	99	2	2	1	C	2	1	800	1	Ⴁ	cut_oei.wav
3	100	3	4	2	I	1	0	838	1	Ⴟ	cut_n.wav
3	101	4	4	2	I	2	0	1283	1	Ⴂ	cut_n.wav
3	102	3	3	2	I	1	0	710	0	Ⴟ	cut_r.wav
3	103	1	1	1	C	2	1	934	1	Ⴃ	cut_s.wav
3	104	2	1	0	C	1	1	612	1	Ⴁ	cut_s.wav
3	105	3	3	2	I	1	0	821	1	Ⴟ	cut_r.wav
3	106	2	1	0	C	1	1	785	1	Ⴁ	cut_s.wav
3	107	4	4	2	I	2	0	1365	0	Ⴂ	cut_n.wav
3	108	1	1	1	C	2	1	1124	1	Ⴃ	cut_s.wav
3	109	4	3	2	I	1	0	832	1	Ⴂ	cut_r.wav
3	110	1	2	0	C	1	1	1155	1	Ⴃ	cut_oei.wav
3	111	3	4	2	I	1	0	1189	0	Ⴟ	cut_n.wav
3	112	2	2	1	C	2	1	936	1	Ⴁ	cut_oei.wav
3	113	4	4	2	I	1	0	970	0	Ⴂ	cut_n.wav
3	114	2	2	1	C	2	1	1018	1	Ⴁ	cut_oei.wav
3	115	1	1	1	C	2	1	758	1	Ⴃ	cut_s.wav
3	116	3	4	2	I	2	0	690	0	Ⴟ	cut_n.wav
3	117	2	1	0	C	1	1	661	1	Ⴁ	cut_s.wav
3	118	4	3	2	I	2	0	918	0	Ⴂ	cut_r.wav
3	119	1	2	0	C	1	1	697	1	Ⴃ	cut_oei.wav
3	120	3	3	2	I	2	0	773	0	Ⴟ	cut_r.wav
3	121	2	2	1	C	2	1	1121	1	Ⴁ	cut_oei.wav
3	122	3	3	2	I	2	0	537	1	Ⴟ	cut_r.wav
3	123	1	2	0	C	1	1	540	1	Ⴃ	cut_oei.wav
3	124	4	3	2	I	1	0	1005	1	Ⴂ	cut_r.wav
3	125	3	4	2	I	1	0	954	0	Ⴟ	cut_n.wav
3	126	4	4	2	I	2	0	626	0	Ⴂ	cut_n.wav
3	127	2	1	0	C	1	1	701	1	Ⴁ	cut_s.wav
3	128	1	1	1	C	2	1	1125	1	Ⴃ	cut_s.wav
3	129	2	1	0	C	1	1	614	1	Ⴁ	cut_s.wav
3	130	1	1	1	C	2	1	723	1	Ⴃ	cut_s.wav
3	131	4	3	2	I	1	0	720	1	Ⴂ	cut_r.wav
3	132	3	4	2	I	2	0	1005	1	Ⴟ	cut_n.wav
3	133	4	4	2	I	2	0	1150	0	Ⴂ	cut_n.wav
3	134	1	2	0	C	1	1	738	1	Ⴃ	cut_oei.wav
3	135	3	3	2	I	1	0	591	1	Ⴟ	cut_r.wav
3	136	2	2	1	C	2	1	957	1	Ⴁ	cut_oei.wav
3	137	4	4	2	I	1	0	900	0	Ⴂ	cut_n.wav
3	138	2	2	1	C	2	1	927	1	Ⴁ	cut_oei.wav
3	139	1	1	1	C	2	1	812	1	Ⴃ	cut_s.wav
3	140	3	4	2	I	2	0	1238	1	Ⴟ	cut_n.wav
3	141	2	1	0	C	1	1	782	1	Ⴁ	cut_s.wav
3	142	4	3	2	I	2	0	559	0	Ⴂ	cut_r.wav
3	143	1	2	0	C	1	1	653	1	Ⴃ	cut_oei.wav
3	144	3	3	2	I	2	0	380	0	Ⴟ	cut_r.wav
3	145	4	4	2	I	2	0	751	0	Ⴂ	cut_n.wav
3	146	3	4	2	I	1	0	1222	0	Ⴟ	cut_n.wav
3	147	2	2	1	C	2	1	931	1	Ⴁ	cut_oei.wav
3	148	1	1	1	C	2	1	854	1	Ⴃ	cut_s.wav
3	149	2	1	0	C	1	1	914	1	Ⴁ	cut_s.wav
3	150	3	3	2	I	1	0	1194	0	Ⴟ	cut_r.wav
3	151	4	3	2	I	1	0	905	0	Ⴂ	cut_r.wav
3	152	1	2	0	C	1	1	677	1	Ⴃ	cut_oei.wav
3	153	2	1	0	C	1	1	1180	1	Ⴁ	cut_s.wav
3	154	1	2	0	C	1	1	736	1	Ⴃ	cut_oei.wav
3	155	3	3	2	I	1	0	1547	1	Ⴟ	cut_r.wav
3	156	4	3	2	I	1	0	430	1	Ⴂ	cut_r.wav
3	157	1	1	1	C	2	1	828	1	Ⴃ	cut_s.wav
3	158	2	2	1	C	2	1	851	1	Ⴁ	cut_oei.wav
3	159	3	4	2	I	1	0	1354	0	Ⴟ	cut_n.wav
3	160	4	4	2	I	1	0	1174	0	Ⴂ	cut_n.wav
3	161	1	1	1	C	2	1	856	1	Ⴃ	cut_s.wav
3	162	2	2	1	C	2	1	727	1	Ⴁ	cut_oei.wav
3	163	3	4	2	I	2	0	1218	0	Ⴟ	cut_n.wav
3	164	4	4	2	I	2	0	626	1	Ⴂ	cut_n.wav
3	165	3	3	2	I	1	0	1003	1	Ⴟ	cut_r.wav
3	166	4	3	2	I	1	0	1128	0	Ⴂ	cut_r.wav
3	167	1	2	0	C	1	1	1073	1	Ⴃ	cut_oei.wav
3	168	2	1	0	C	1	1	549	1	Ⴁ	cut_s.wav
3	169	1	2	0	C	1	1	849	1	Ⴃ	cut_oei.wav
3	170	2	2	1	C	2	1	731	1	Ⴁ	cut_oei.wav
3	171	3	3	2	I	2	0	753	1	Ⴟ	cut_r.wav
3	172	4	4	2	I	1	0	701	1	Ⴂ	cut_n.wav
3	173	2	1	0	C	1	1	569	1	Ⴁ	cut_s.wav
3	174	1	1	1	C	2	1	905	1	Ⴃ	cut_s.wav
3	175	4	3	2	I	1	0	1141	1	Ⴂ	cut_r.wav
3	176	3	4	2	I	1	0	881	0	Ⴟ	cut_n.wav
3	177	2	2	1	C	2	1	1057	1	Ⴁ	cut_oei.wav
3	178	4	4	2	I	1	0	1112	0	Ⴂ	cut_n.wav
3	179	3	4	2	I	1	0	559	0	Ⴟ	cut_n.wav
3	180	1	2	0	C	1	1	882	1	Ⴃ	cut_oei.wav
3	181	4	3	2	I	2	0	482	1	Ⴂ	cut_r.wav
3	182	3	3	2	I	2	0	566	1	Ⴟ	cut_r.wav
3	183	2	1	0	C	1	1	709	1	Ⴁ	cut_s.wav
3	184	1	1	1	C	2	1	745	1	Ⴃ	cut_s.wav
3	185	2	1	0	C	1	1	924	1	Ⴁ	cut_s.wav
3	186	1	1	1	C	2	1	1027	1	Ⴃ	cut_s.wav
3	187	3	4	2	I	2	0	547	1	Ⴟ	cut_n.wav
3	188	4	4	2	I	2	0	526	1	Ⴂ	cut_n.wav
3	189	3	3	2	I	2	0	341	0	Ⴟ	cut_r.wav
3	190	2	2	1	C	2	1	1109	1	Ⴁ	cut_oei.wav
3	191	4	3	2	I	2	0	589	0	Ⴂ	cut_r.wav
3	192	1	2	0	C	1	1	468	1	Ⴃ	cut_oei.wav
3	193	3	4	2	I	2	0	636	1	Ⴟ	cut_n.wav
3	194	1	2	0	C	1	1	657	1	Ⴃ	cut_oei.wav
3	195	2	1	0	C	2	0	574	0	Ⴁ	cut_s.wav
3	196	4	4	2	I	2	0	334	0	Ⴂ	cut_n.wav
3	197	1	1	1	C	2	1	805	1	Ⴃ	cut_s.wav
3	198	4	3	2	I	1	0	804	1	Ⴂ	cut_r.wav
3	199	2	2	1	C	2	1	1009	1	Ⴁ	cut_oei.wav
3	200	3	3	2	I	2	0	1057	0	Ⴟ	cut_r.wav
4	1	2	2	1	C	1	0	1574	0	Ⴊ	cut_ei.wav
4	2	3	4	2	I	1	0	949	1	Ⴡ	cut_j.wav
4	3	4	4	2	I	2	0	752	1	Ⴇ	cut_j.wav
4	4	1	2	0	C	1	1	809	1	Ⴜ	cut_ei.wav
4	5	3	3	2	I	1	0	1101	1	Ⴡ	cut_f.wav
4	6	4	3	2	I	2	0	690	0	Ⴇ	cut_f.wav
4	7	2	1	0	C	1	1	847	1	Ⴊ	cut_ui.wav
4	8	1	1	1	C	1	0	980	0	Ⴜ	cut_ui.wav
4	9	3	3	2	I	1	0	500	0	Ⴡ	cut_f.wav
4	10	1	1	1	C	2	1	1107	1	Ⴜ	cut_ui.wav
4	11	4	3	2	I	1	0	830	1	Ⴇ	cut_f.wav
4	12	2	2	1	C	1	0	1286	0	Ⴊ	cut_ei.wav
4	13	1	2	0	C	1	1	867	1	Ⴜ	cut_ei.wav
4	14	3	4	2	I	2	0	1075	0	Ⴡ	cut_j.wav
4	15	4	4	2	I	1	0	864	0	Ⴇ	cut_j.wav
4	16	2	1	0	C	2	0	879	0	Ⴊ	cut_ui.wav
4	17	1	2	0	C	1	1	679	1	Ⴜ	cut_ei.wav
4	18	2	2	1	C	2	1	1214	1	Ⴊ	cut_ei.wav
4	19	3	3	2	I	1	0	836	0	Ⴡ	cut_f.wav
4	20	4	3	2	I	1	0	552	0	Ⴇ	cut_f.wav
4	21	3	4	2	I	1	0	1295	0	Ⴡ	cut_j.wav
4	22	2	1	0	C	1	1	1092	1	Ⴊ	cut_ui.wav
4	23	1	1	1	C	2	1	1017	1	Ⴜ	cut_ui.wav
4	24	4	4	2	I	1	0	998	0	Ⴇ	cut_j.wav
4	25	3	3	2	I	2	0	410	1	Ⴡ	cut_f.wav
4	26	1	1	1	C	1	0	1258	0	Ⴜ	cut_ui.wav
4	27	2	1	0	C	1	1	556	1	Ⴊ	cut_ui.wav
4	28	4	3	2	I	2	0	580	0	Ⴇ	cut_f.wav
4	29	1	2	0	C	1	1	886	1	Ⴜ	cut_ei.wav
4	30	4	4	2	I	2	0	981	1	Ⴇ	cut_j.wav
4	31	2	2	1	C	2	1	1303	1	Ⴊ	cut_ei.wav
4	32	3	4	2	I	2	0	1007	0	Ⴡ	cut_j.wav
4	33	4	4	2	I	2	0	710	1	Ⴇ	cut_j.wav
4	34	2	1	0	C	1	1	844	1	Ⴊ	cut_ui.wav
4	35	3	4	2	I	2	0	678	0	Ⴡ	cut_j.wav
4	36	1	1	1	C	1	0	812	0	Ⴜ	cut_ui.wav
4	37	3	3	2	I	2	0	552	0	Ⴡ	cut_f.wav
4	38	2	2	1	C	2	1	1142	1	Ⴊ	cut_ei.wav
4	39	1	2	0	C	1	1	939	1	Ⴜ	cut_ei.wav
4	40	4	3	2	I	2	0	706	1	Ⴇ	cut_f.wav
4	41	2	2	1	C	2	1	1100	1	Ⴊ	cut_ei.wav
4	42	4	3	2	I	2	0	1150	1	Ⴇ	cut_f.wav
4	43	3	3	2	I	2	0	783	0	Ⴡ	cut_f.wav
4	44	1	2	0	C	1	1	657	1	Ⴜ	cut_ei.wav
4	45	4	4	2	I	2	0	628	0	Ⴇ	cut_j.wav
4	46	3	4	2	I	2	0	713	1	Ⴡ	cut_j.wav
4	47	1	1	1	C	2	1	1118	1	Ⴜ	cut_ui.wav
4	48	2	1	0	C	1	1	465	1	Ⴊ	cut_ui.wav
4	49	4	4	2	I	1	0	1241	1	Ⴇ	cut_j.wav
4	50	1	2	0	C	1	1	762	1	Ⴜ	cut_ei.wav
4	51	3	4	2	I	1	0	724	1	Ⴡ	cut_j.wav
4	52	2	2	1	C	2	1	1129	1	Ⴊ	cut_ei.wav
4	53	4	3	2	I	1	0	1029	0	Ⴇ	cut_f.wav
4	54	2	1	0	C	1	1	1231	1	Ⴊ	cut_ui.wav
4	55	1	1	1	C	2	1	1352	1	Ⴜ	cut_ui.wav
4	56	3	3	2	I	2	0	920	0	Ⴡ	cut_f.wav
4	57	4	4	2	I	2	0	763	0	Ⴇ	cut_j.wav
4	58	2	2	1	C	2	1	1470	1	Ⴊ	cut_ei.wav
4	59	1	1	1	C	2	1	1335	1	Ⴜ	cut_ui.wav
4	60	3	3	2	I	2	0	664	1	Ⴡ	cut_f.wav
4	61	2	1	0	C	1	1	1243	1	Ⴊ	cut_ui.wav
4	62	1	2	0	C	1	1	1156	1	Ⴜ	cut_ei.wav
4	63	3	4	2	I	2	0	1135	1	Ⴡ	cut_j.wav
4	64	4	3	2	I	1	0	1268	1	Ⴇ	cut_f.wav
4	65	2	1	0	C	1	1	1493	1	Ⴊ	cut_ui.wav
4	66	3	4	2	I	2	0	964	1	Ⴡ	cut_j.wav
4	67	1	2	0	C	1	1	716	1	Ⴜ	cut_ei.wav
4	68	4	4	2	I	2	0	962	1	Ⴇ	cut_j.wav
4	69	2	2	1	C	2	1	1761	1	Ⴊ	cut_ei.wav
4	70	4	3	2	I	1	0	1142	0	Ⴇ	cut_f.wav
4	71	3	3	2	I	1	0	815	0	Ⴡ	cut_f.wav
4	72	1	1	1	C	2	1	1052	1	Ⴜ	cut_ui.wav
4	73	2	1	0	C	1	1	1291	1	Ⴊ	cut_ui.wav
4	74	3	3	2	I	2	0	866	1	Ⴡ	cut_f.wav
4	75	1	1	1	C	2	1	1323	1	Ⴜ	cut_ui.wav
4	76	4	3	2	I	1	0	1015	1	Ⴇ	cut_f.wav
4	77	2	2	1	C	2	1	1257	1	Ⴊ	cut_ei.wav
4	78	1	2	0	C	1	1	879	1	Ⴜ	cut_ei.wav
4	79	4	4	2	I	1	0	1114	1	Ⴇ	cut_j.wav
4	80	3	4	2	I	1	0	604	0	Ⴡ	cut_j.wav
4	81	4	3	2	I	2	0	788	0	Ⴇ	cut_f.wav
4	82	1	1	1	C	2	1	1218	1	Ⴜ	cut_ui.wav
4	83	3	3	2	I	2	0	820	1	Ⴡ	cut_f.wav
4	84	2	2	1	C	2	1	1190	1	Ⴊ	cut_ei.wav
4	85	1	2	0	C	1	1	1090	1	Ⴜ	cut_ei.wav
4	86	4	4	2	I	2	0	831	0	Ⴇ	cut_j.wav
4	87	2	1	0	C	1	1	1109	1	Ⴊ	cut_ui.wav
4	88	3	4	2	I	1	0	855	1	Ⴡ	cut_j.wav
4	89	1	2	0	C	1	1	921	1	Ⴜ	cut_ei.wav
4	90	4	3	2	I	1	0	1138	1	Ⴇ	cut_f.wav
4	91	2	2	1	C	2	1	1050	1	Ⴊ	cut_ei.wav
4	92	3	3	2	I	2	0	1186	1	Ⴡ	cut_f.wav
4	93	1	1	1	C	2	1	969	1	Ⴜ	cut_ui.wav
4	94	2	1	0	C	1	1	1050	1	Ⴊ	cut_ui.wav
4	95	4	4	2	I	2	0	791	1	Ⴇ	cut_j.wav
4	96	3	4	2	I	2	0	532	1	Ⴡ	cut_j.wav
4	97	1	2	0	C	1	1	594	1	Ⴜ	cut_ei.wav
4	98	2	1	0	C	1	1	861	1	Ⴊ	cut_ui.wav
4	99	3	3	2	I	2	0	656	1	Ⴡ	cut_f.wav
4	100	4	4	2	I	2	0	578	0	Ⴇ	cut_j.wav
4	101	1	1	1	C	2	1	1055	1	Ⴜ	cut_ui.wav
4	102	4	3	2	I	1	0	897	0	Ⴇ	cut_f.wav
4	103	3	4	2	I	2	0	702	0	Ⴡ	cut_j.wav
4	104	2	2	1	C	2	1	1088	1	Ⴊ	cut_ei.wav
4	105	4	4	2	I	2	0	711	0	Ⴇ	cut_j.wav
4	106	1	2	0	C	1	1	871	1	Ⴜ	cut_ei.wav
4	107	3	4	2	I	1	0	838	0	Ⴡ	cut_j.wav
4	108	2	2	1	C	2	1	545	1	Ⴊ	cut_ei.wav
4	109	3	3	2	I	2	0	923	0	Ⴡ	cut_f.wav
4	110	4	3	2	I	2	0	511	1	Ⴇ	cut_f.wav
4	111	2	1	0	C	2	0	922	0	Ⴊ	cut_ui.wav
4	112	1	1	1	C	2	1	1029	1	Ⴜ	cut_ui.wav
4	113	3	3	2	I	1	0	539	0	Ⴡ	cut_f.wav
4	114	1	1	1	C	2	1	1060	1	Ⴜ	cut_ui.wav
4	115	2	2	1	C	2	1	1202	1	Ⴊ	cut_ei.wav
4	116	4	3	2	I	1	0	686	0	Ⴇ	cut_f.wav
4	117	1	2	0	C	1	1	762	1	Ⴜ	cut_ei.wav
4	118	2	1	0	C	1	1	1021	1	Ⴊ	cut_ui.wav
4	119	3	4	2	I	2	0	723	0	Ⴡ	cut_j.wav
4	120	4	4	2	I	2	0	802	1	Ⴇ	cut_j.wav
4	121	3	3	2	I	1	0	986	1	Ⴡ	cut_f.wav
4	122	1	1	1	C	2	1	1186	1	Ⴜ	cut_ui.wav
4	123	2	1	0	C	1	1	1561	1	Ⴊ	cut_ui.wav
4	124	4	3	2	I	2	0	847	0	Ⴇ	cut_f.wav
4	125	1	2	0	C	1	1	762	1	Ⴜ	cut_ei.wav
4	126	3	4	2	I	1	0	660	0	Ⴡ	cut_j.wav
4	127	4	4	2	I	1	0	954	0	Ⴇ	cut_j.wav
4	128	2	2	1	C	2	1	1096	1	Ⴊ	cut_ei.wav
4	129	3	4	2	I	2	0	728	0	Ⴡ	cut_j.wav
4	130	2	2	1	C	2	1	1275	1	Ⴊ	cut_ei.wav
4	131	1	1	1	C	2	1	1509	1	Ⴜ	cut_ui.wav
4	132	4	3	2	I	1	0	745	0	Ⴇ	cut_f.wav
4	133	3	3	2	I	1	0	882	1	Ⴡ	cut_f.wav
4	134	2	1	0	C	1	1	1190	1	Ⴊ	cut_ui.wav
4	135	4	4	2	I	2	0	703	1	Ⴇ	cut_j.wav
4	136	1	2	0	C	1	1	911	1	Ⴜ	cut_ei.wav
4	137	3	4	2	I	2	0	619	1	Ⴡ	cut_j.wav
4	138	1	2	0	C	1	1	607	1	Ⴜ	cut_ei.wav
4	139	2	2	1	C	2	1	862	1	Ⴊ	cut_ei.wav
4	140	4	3	2	I	2	0	735	1	Ⴇ	cut_f.wav
4	141	3	3	2	I	1	0	491	0	Ⴡ	cut_f.wav
4	142	1	1	1	C	2	1	1192	1	Ⴜ	cut_ui.wav
4	143	2	1	0	C	1	1	805	1	Ⴊ	cut_ui.wav
4	144	4	4	2	I	2	0	766	0	Ⴇ	cut_j.wav
4	145	2	1	0	C	1	1	1007	1	Ⴊ	cut_ui.wav
4	146	4	3	2	I	2	0	608	1	Ⴇ	cut_f.wav
4	147	1	1	1	C	2	1	1177	1	Ⴜ	cut_ui.wav
4	148	3	4	2	I	1	0	736	1	Ⴡ	cut_j.wav
4	149	2	2	1	C	2	1	1322	1	Ⴊ	cut_ei.wav
4	150	3	3	2	I	2	0	771	1	Ⴡ	cut_f.wav
4	151	1	2	0	C	1	1	837	1	Ⴜ	cut_ei.wav
4	152	4	4	2	I	2	0	524	0	Ⴇ	cut_j.wav
4	153	2	2	1	C	2	1	1216	1	Ⴊ	cut_ei.wav
4	154	3	3	2	I	1	0	910	0	Ⴡ	cut_f.wav
4	155	4	3	2	I	1	0	1079	0	Ⴇ	cut_f.wav
4	156	1	1	1	C	2	1	1127	1	Ⴜ	cut_ui.wav
4	157	3	4	2	I	1	0	1194	0	Ⴡ	cut_j.wav
4	158	2	1	0	C	1	1	1340	1	Ⴊ	cut_ui.wav
4	159	4	4	2	I	2	0	729	1	Ⴇ	cut_j.wav
4	160	1	2	0	C	1	1	637	1	Ⴜ	cut_ei.wav
4	161	3	3	2	I	2	0	759	1	Ⴡ	cut_f.wav
4	162	4	3	2	I	2	0	814	1	Ⴇ	cut_f.wav
4	163	1	1	1	C	2	1	1353	1	Ⴜ	cut_ui.wav
4	164	2	1	0	C	1	1	1029	1	Ⴊ	cut_ui.wav
4	165	4	4	2	I	2	0	1419	1	Ⴇ	cut_j.wav
4	166	2	2	1	C	2	1	935	1	Ⴊ	cut_ei.wav
4	167	1	2	0	C	1	1	631	1	Ⴜ	cut_ei.wav
4	168	3	4	2	I	1	0	899	0	Ⴡ	cut_j.wav
4	169	1	1	1	C	1	0	1873	0	Ⴜ	cut_ui.wav
4	170	3	4	2	I	2	0	688	1	Ⴡ	cut_j.wav
4	171	2	1	0	C	1	1	799	1	Ⴊ	cut_ui.wav
4	172	4	3	2	I	2	0	522	1	Ⴇ	cut_f.wav
4	173	1	2	0	C	1	1	991	1	Ⴜ	cut_ei.wav
4	174	2	2	1	C	2	1	918	1	Ⴊ	cut_ei.wav
4	175	3	3	2	I	1	0	745	1	Ⴡ	cut_f.wav
4	176	4	4	2	I	2	0	835	1	Ⴇ	cut_j.wav
4	177	2	1	0	C	1	1	1622	1	Ⴊ	cut_ui.wav
4	178	1	1	1	C	2	1	1008	1	Ⴜ	cut_ui.wav
4	179	4	4	2	I	1	0	1134	0	Ⴇ	cut_j.wav
4	180	3	3	2	I	2	0	902	0	Ⴡ	cut_f.wav
4	181	2	2	1	C	2	1	1081	1	Ⴊ	cut_ei.wav
4	182	1	2	0	C	1	1	1013	1	Ⴜ	cut_ei.wav
4	183	4	3	2	I	2	0	1011	0	Ⴇ	cut_f.wav
4	184	3	4	2	I	1	0	1149	0	Ⴡ	cut_j.wav
4	185	2	2	1	C	2	1	1155	1	Ⴊ	cut_ei.wav
4	186	3	3	2	I	1	0	1202	0	Ⴡ	cut_f.wav
4	187	1	1	1	C	1	0	1394	0	Ⴜ	cut_ui.wav
4	188	4	4	2	I	2	0	445	1	Ⴇ	cut_j.wav
4	189	1	2	0	C	1	1	879	1	Ⴜ	cut_ei.wav
4	190	3	4	2	I	2	0	419	1	Ⴡ	cut_j.wav
4	191	2	1	0	C	1	1	936	1	Ⴊ	cut_ui.wav
4	192	4	3	2	I	2	0	484	0	Ⴇ	cut_f.wav
4	193	2	1	0	C	1	1	1052	1	Ⴊ	cut_ui.wav
4	194	3	3	2	I	2	0	479	1	Ⴡ	cut_f.wav
4	195	4	3	2	I	2	0	1460	1	Ⴇ	cut_f.wav
4	196	1	1	1	C	2	1	1062	1	Ⴜ	cut_ui.wav
4	197	2	2	1	C	2	1	1029	1	Ⴊ	cut_ei.wav
4	198	1	2	0	C	1	1	688	1	Ⴜ	cut_ei.wav
4	199	4	4	2	I	1	0	745	0	Ⴇ	cut_j.wav
4	200	3	4	2	I	1	0	850	1	Ⴡ	cut_j.wav
