block	trial	Vstim	Astim	match	C/I	resp	.result	RT	fb	V-file	A-file
LR

0	1	1	1	1	C	2	1	1405	1	Ⴉ	cut_oo_stereo_44KHz.wav
0	2	1	2	0	C	2	0	612	0	Ⴉ	cut_g_stereo_44KHz.wav
0	3	2	3	1	C	2	1	738	1	Ⴞ	cut_ee_stereo_44KHz.wav
0	4	2	4	0	C	2	0	844	0	Ⴞ	cut_eeuw_stereo_44KHz.wav
0	5	1	2	0	C	1	1	719	1	Ⴉ	cut_g_stereo_44KHz.wav
0	6	2	4	0	C	1	1	735	1	Ⴞ	cut_eeuw_stereo_44KHz.wav
0	7	2	3	1	C	2	1	1014	1	Ⴞ	cut_ee_stereo_44KHz.wav
0	8	1	1	1	C	1	0	603	0	Ⴉ	cut_oo_stereo_44KHz.wav
0	9	2	4	0	C	1	1	948	1	Ⴞ	cut_eeuw_stereo_44KHz.wav
0	10	2	3	1	C	2	1	1650	1	Ⴞ	cut_ee_stereo_44KHz.wav
0	11	1	2	0	C	1	1	694	1	Ⴉ	cut_g_stereo_44KHz.wav
0	12	1	1	1	C	2	1	983	1	Ⴉ	cut_oo_stereo_44KHz.wav
0	13	2	3	1	C	1	0	914	0	Ⴞ	cut_ee_stereo_44KHz.wav
0	14	1	2	0	C	1	1	1158	1	Ⴉ	cut_g_stereo_44KHz.wav
0	15	2	4	0	C	1	1	809	1	Ⴞ	cut_eeuw_stereo_44KHz.wav
0	16	1	1	1	C	1	0	1104	0	Ⴉ	cut_oo_stereo_44KHz.wav
0	17	1	2	0	C	1	1	600	1	Ⴉ	cut_g_stereo_44KHz.wav
0	18	1	1	1	C	2	1	772	1	Ⴉ	cut_oo_stereo_44KHz.wav
0	19	2	4	0	C	1	1	1287	1	Ⴞ	cut_eeuw_stereo_44KHz.wav
0	20	2	3	1	C	2	1	1105	1	Ⴞ	cut_ee_stereo_44KHz.wav
0	21	2	4	0	C	1	1	1164	1	Ⴞ	cut_eeuw_stereo_44KHz.wav
0	22	2	3	1	C	2	1	1027	1	Ⴞ	cut_ee_stereo_44KHz.wav
0	23	1	1	1	C	2	1	972	1	Ⴉ	cut_oo_stereo_44KHz.wav
0	24	1	2	0	C	1	1	557	1	Ⴉ	cut_g_stereo_44KHz.wav
0	25	1	2	0	C	1	1	870	1	Ⴉ	cut_g_stereo_44KHz.wav
0	26	2	3	1	C	2	1	629	1	Ⴞ	cut_ee_stereo_44KHz.wav
0	27	2	4	0	C	2	0	1389	0	Ⴞ	cut_eeuw_stereo_44KHz.wav
0	28	1	1	1	C	2	1	851	1	Ⴉ	cut_oo_stereo_44KHz.wav
0	29	1	2	0	C	1	1	1427	1	Ⴉ	cut_g_stereo_44KHz.wav
0	30	2	3	1	C	0	0	0	0	Ⴞ	cut_ee_stereo_44KHz.wav
avg_resp = 961
1	1	3	4	2	I	1	0	1064	1	Ⴒ	cut_g_stereo_44KHz.wav
1	2	2	1	0	C	2	0	950	0	Ⴏ	cut_l_stereo_44KHz.wav
1	3	4	4	2	I	1	0	980	0	Ⴉ	cut_g_stereo_44KHz.wav
1	4	1	2	0	C	2	0	999	0	Ⴖ	cut_h_stereo_44KHz.wav
1	5	4	3	2	I	1	0	1164	0	Ⴉ	cut_w_stereo_44KHz.wav
1	6	1	1	1	C	2	1	824	1	Ⴖ	cut_l_stereo_44KHz.wav
1	7	2	2	1	C	2	1	982	1	Ⴏ	cut_h_stereo_44KHz.wav
1	8	3	3	2	I	2	0	855	0	Ⴒ	cut_w_stereo_44KHz.wav
1	9	2	2	1	C	2	1	1085	1	Ⴏ	cut_h_stereo_44KHz.wav
1	10	1	2	0	C	1	1	784	1	Ⴖ	cut_h_stereo_44KHz.wav
1	11	3	4	2	I	1	0	821	0	Ⴒ	cut_g_stereo_44KHz.wav
1	12	4	4	2	I	2	0	828	0	Ⴉ	cut_g_stereo_44KHz.wav
1	13	1	1	1	C	2	1	790	1	Ⴖ	cut_l_stereo_44KHz.wav
1	14	4	3	2	I	2	0	963	1	Ⴉ	cut_w_stereo_44KHz.wav
1	15	3	3	2	I	1	0	893	1	Ⴒ	cut_w_stereo_44KHz.wav
1	16	2	1	0	C	1	1	863	1	Ⴏ	cut_l_stereo_44KHz.wav
1	17	3	4	2	I	2	0	1546	1	Ⴒ	cut_g_stereo_44KHz.wav
1	18	2	2	1	C	2	1	683	1	Ⴏ	cut_h_stereo_44KHz.wav
1	19	4	4	2	I	1	0	1163	0	Ⴉ	cut_g_stereo_44KHz.wav
1	20	1	1	1	C	2	1	1625	1	Ⴖ	cut_l_stereo_44KHz.wav
1	21	4	3	2	I	2	0	917	1	Ⴉ	cut_w_stereo_44KHz.wav
1	22	2	1	0	C	1	1	699	1	Ⴏ	cut_l_stereo_44KHz.wav
1	23	3	3	2	I	2	0	995	0	Ⴒ	cut_w_stereo_44KHz.wav
1	24	1	2	0	C	1	1	699	1	Ⴖ	cut_h_stereo_44KHz.wav
1	25	2	1	0	C	1	1	751	1	Ⴏ	cut_l_stereo_44KHz.wav
1	26	3	4	2	I	2	0	1023	0	Ⴒ	cut_g_stereo_44KHz.wav
1	27	4	4	2	I	1	0	845	0	Ⴉ	cut_g_stereo_44KHz.wav
1	28	1	1	1	C	2	1	870	1	Ⴖ	cut_l_stereo_44KHz.wav
1	29	2	2	1	C	2	1	1363	1	Ⴏ	cut_h_stereo_44KHz.wav
1	30	4	3	2	I	2	0	1412	1	Ⴉ	cut_w_stereo_44KHz.wav
1	31	1	2	0	C	1	1	858	1	Ⴖ	cut_h_stereo_44KHz.wav
1	32	3	3	2	I	1	0	810	1	Ⴒ	cut_w_stereo_44KHz.wav
1	33	4	4	2	I	1	0	808	1	Ⴉ	cut_g_stereo_44KHz.wav
1	34	2	2	1	C	2	1	1218	1	Ⴏ	cut_h_stereo_44KHz.wav
1	35	1	1	1	C	2	1	733	1	Ⴖ	cut_l_stereo_44KHz.wav
1	36	3	4	2	I	2	0	918	1	Ⴒ	cut_g_stereo_44KHz.wav
1	37	4	3	2	I	2	0	870	0	Ⴉ	cut_w_stereo_44KHz.wav
1	38	3	3	2	I	1	0	882	0	Ⴒ	cut_w_stereo_44KHz.wav
1	39	1	2	0	C	1	1	928	1	Ⴖ	cut_h_stereo_44KHz.wav
1	40	2	1	0	C	1	1	435	1	Ⴏ	cut_l_stereo_44KHz.wav
1	41	3	4	2	I	1	0	922	1	Ⴒ	cut_g_stereo_44KHz.wav
1	42	2	1	0	C	1	1	840	1	Ⴏ	cut_l_stereo_44KHz.wav
1	43	4	3	2	I	1	0	550	0	Ⴉ	cut_w_stereo_44KHz.wav
1	44	1	1	1	C	2	1	943	1	Ⴖ	cut_l_stereo_44KHz.wav
1	45	2	2	1	C	2	1	890	1	Ⴏ	cut_h_stereo_44KHz.wav
1	46	3	3	2	I	1	0	980	0	Ⴒ	cut_w_stereo_44KHz.wav
1	47	4	4	2	I	1	0	1110	0	Ⴉ	cut_g_stereo_44KHz.wav
1	48	1	2	0	C	1	1	589	1	Ⴖ	cut_h_stereo_44KHz.wav
1	49	3	4	2	I	1	0	921	0	Ⴒ	cut_g_stereo_44KHz.wav
1	50	4	3	2	I	1	0	712	1	Ⴉ	cut_w_stereo_44KHz.wav
1	51	2	1	0	C	1	1	686	1	Ⴏ	cut_l_stereo_44KHz.wav
1	52	1	2	0	C	1	1	662	1	Ⴖ	cut_h_stereo_44KHz.wav
1	53	4	4	2	I	1	0	1114	0	Ⴉ	cut_g_stereo_44KHz.wav
1	54	2	2	1	C	2	1	844	1	Ⴏ	cut_h_stereo_44KHz.wav
1	55	3	3	2	I	1	0	736	1	Ⴒ	cut_w_stereo_44KHz.wav
1	56	1	1	1	C	2	1	832	1	Ⴖ	cut_l_stereo_44KHz.wav
1	57	2	2	1	C	2	1	780	1	Ⴏ	cut_h_stereo_44KHz.wav
1	58	3	4	2	I	1	0	853	0	Ⴒ	cut_g_stereo_44KHz.wav
1	59	4	4	2	I	1	0	745	0	Ⴉ	cut_g_stereo_44KHz.wav
1	60	1	1	1	C	2	1	968	1	Ⴖ	cut_l_stereo_44KHz.wav
1	61	3	3	2	I	2	0	817	1	Ⴒ	cut_w_stereo_44KHz.wav
1	62	2	1	0	C	1	1	1061	1	Ⴏ	cut_l_stereo_44KHz.wav
1	63	4	3	2	I	2	0	886	1	Ⴉ	cut_w_stereo_44KHz.wav
1	64	1	2	0	C	1	1	700	1	Ⴖ	cut_h_stereo_44KHz.wav
1	65	4	3	2	I	2	0	1101	1	Ⴉ	cut_w_stereo_44KHz.wav
1	66	1	1	1	C	2	1	964	1	Ⴖ	cut_l_stereo_44KHz.wav
1	67	3	4	2	I	1	0	976	0	Ⴒ	cut_g_stereo_44KHz.wav
1	68	2	2	1	C	2	1	804	1	Ⴏ	cut_h_stereo_44KHz.wav
1	69	1	2	0	C	1	1	625	1	Ⴖ	cut_h_stereo_44KHz.wav
1	70	4	4	2	I	1	0	688	1	Ⴉ	cut_g_stereo_44KHz.wav
1	71	3	3	2	I	1	0	761	1	Ⴒ	cut_w_stereo_44KHz.wav
1	72	2	1	0	C	1	1	737	1	Ⴏ	cut_l_stereo_44KHz.wav
1	73	1	1	1	C	2	1	919	1	Ⴖ	cut_l_stereo_44KHz.wav
1	74	4	4	2	I	1	0	1356	0	Ⴉ	cut_g_stereo_44KHz.wav
1	75	2	1	0	C	1	1	729	1	Ⴏ	cut_l_stereo_44KHz.wav
1	76	3	4	2	I	2	0	957	0	Ⴒ	cut_g_stereo_44KHz.wav
1	77	1	2	0	C	1	1	574	1	Ⴖ	cut_h_stereo_44KHz.wav
1	78	3	3	2	I	0	0	0	0	Ⴒ	cut_w_stereo_44KHz.wav
1	79	2	2	1	C	2	1	1043	1	Ⴏ	cut_h_stereo_44KHz.wav
1	80	4	3	2	I	1	0	801	1	Ⴉ	cut_w_stereo_44KHz.wav
1	81	2	1	0	C	1	1	775	1	Ⴏ	cut_l_stereo_44KHz.wav
1	82	4	3	2	I	1	0	756	1	Ⴉ	cut_w_stereo_44KHz.wav
1	83	3	4	2	I	2	0	950	1	Ⴒ	cut_g_stereo_44KHz.wav
1	84	1	1	1	C	2	1	957	1	Ⴖ	cut_l_stereo_44KHz.wav
1	85	4	4	2	I	2	0	1739	1	Ⴉ	cut_g_stereo_44KHz.wav
1	86	3	3	2	I	2	0	953	1	Ⴒ	cut_w_stereo_44KHz.wav
1	87	2	2	1	C	0	0	0	0	Ⴏ	cut_h_stereo_44KHz.wav
1	88	1	2	0	C	1	1	586	1	Ⴖ	cut_h_stereo_44KHz.wav
1	89	3	4	2	I	1	0	679	1	Ⴒ	cut_g_stereo_44KHz.wav
1	90	1	2	0	C	1	1	423	1	Ⴖ	cut_h_stereo_44KHz.wav
1	91	2	1	0	C	1	1	777	1	Ⴏ	cut_l_stereo_44KHz.wav
1	92	4	3	2	I	1	0	793	0	Ⴉ	cut_w_stereo_44KHz.wav
1	93	3	3	2	I	1	0	727	0	Ⴒ	cut_w_stereo_44KHz.wav
1	94	4	4	2	I	1	0	673	0	Ⴉ	cut_g_stereo_44KHz.wav
1	95	1	1	1	C	2	1	869	1	Ⴖ	cut_l_stereo_44KHz.wav
1	96	2	2	1	C	2	1	1443	1	Ⴏ	cut_h_stereo_44KHz.wav
1	97	4	3	2	I	2	0	1402	1	Ⴉ	cut_w_stereo_44KHz.wav
1	98	2	2	1	C	2	1	1057	1	Ⴏ	cut_h_stereo_44KHz.wav
1	99	3	4	2	I	2	0	1118	0	Ⴒ	cut_g_stereo_44KHz.wav
1	100	1	1	1	C	2	1	778	1	Ⴖ	cut_l_stereo_44KHz.wav
1	101	2	1	0	C	1	1	841	1	Ⴏ	cut_l_stereo_44KHz.wav
1	102	1	2	0	C	1	1	1126	1	Ⴖ	cut_h_stereo_44KHz.wav
1	103	3	3	2	I	1	0	864	1	Ⴒ	cut_w_stereo_44KHz.wav
1	104	4	4	2	I	1	0	662	0	Ⴉ	cut_g_stereo_44KHz.wav
1	105	2	1	0	C	2	0	243	0	Ⴏ	cut_l_stereo_44KHz.wav
1	106	3	3	2	I	1	0	554	0	Ⴒ	cut_w_stereo_44KHz.wav
1	107	4	4	2	I	1	0	484	1	Ⴉ	cut_g_stereo_44KHz.wav
1	108	1	2	0	C	1	1	772	1	Ⴖ	cut_h_stereo_44KHz.wav
1	109	2	2	1	C	1	0	691	0	Ⴏ	cut_h_stereo_44KHz.wav
1	110	1	1	1	C	2	1	872	1	Ⴖ	cut_l_stereo_44KHz.wav
1	111	4	3	2	I	2	0	1069	0	Ⴉ	cut_w_stereo_44KHz.wav
1	112	3	4	2	I	1	0	578	1	Ⴒ	cut_g_stereo_44KHz.wav
1	113	1	1	1	C	1	0	353	0	Ⴖ	cut_l_stereo_44KHz.wav
1	114	4	3	2	I	1	0	635	0	Ⴉ	cut_w_stereo_44KHz.wav
1	115	3	3	2	I	1	0	846	0	Ⴒ	cut_w_stereo_44KHz.wav
1	116	2	2	1	C	1	0	323	0	Ⴏ	cut_h_stereo_44KHz.wav
1	117	1	2	0	C	1	1	330	1	Ⴖ	cut_h_stereo_44KHz.wav
1	118	4	4	2	I	1	0	918	1	Ⴉ	cut_g_stereo_44KHz.wav
1	119	3	4	2	I	1	0	812	1	Ⴒ	cut_g_stereo_44KHz.wav
1	120	2	1	0	C	2	0	697	0	Ⴏ	cut_l_stereo_44KHz.wav
1	121	1	1	1	C	2	1	858	1	Ⴖ	cut_l_stereo_44KHz.wav
1	122	3	4	2	I	2	0	910	1	Ⴒ	cut_g_stereo_44KHz.wav
1	123	4	4	2	I	1	0	833	1	Ⴉ	cut_g_stereo_44KHz.wav
1	124	2	2	1	C	2	1	897	1	Ⴏ	cut_h_stereo_44KHz.wav
1	125	3	3	2	I	1	0	729	0	Ⴒ	cut_w_stereo_44KHz.wav
1	126	2	1	0	C	1	1	725	1	Ⴏ	cut_l_stereo_44KHz.wav
1	127	1	2	0	C	1	1	614	1	Ⴖ	cut_h_stereo_44KHz.wav
1	128	4	3	2	I	1	0	801	0	Ⴉ	cut_w_stereo_44KHz.wav
1	129	3	4	2	I	1	0	575	1	Ⴒ	cut_g_stereo_44KHz.wav
1	130	1	2	0	C	1	1	698	1	Ⴖ	cut_h_stereo_44KHz.wav
1	131	2	2	1	C	2	1	955	1	Ⴏ	cut_h_stereo_44KHz.wav
1	132	4	4	2	I	1	0	838	1	Ⴉ	cut_g_stereo_44KHz.wav
1	133	2	1	0	C	1	1	770	1	Ⴏ	cut_l_stereo_44KHz.wav
1	134	1	1	1	C	2	1	819	1	Ⴖ	cut_l_stereo_44KHz.wav
1	135	3	3	2	I	1	0	863	0	Ⴒ	cut_w_stereo_44KHz.wav
1	136	4	3	2	I	1	0	797	0	Ⴉ	cut_w_stereo_44KHz.wav
1	137	3	4	2	I	2	0	735	1	Ⴒ	cut_g_stereo_44KHz.wav
1	138	1	2	0	C	1	1	663	1	Ⴖ	cut_h_stereo_44KHz.wav
1	139	4	4	2	I	1	0	720	1	Ⴉ	cut_g_stereo_44KHz.wav
1	140	2	1	0	C	1	1	842	1	Ⴏ	cut_l_stereo_44KHz.wav
1	141	3	3	2	I	1	0	788	1	Ⴒ	cut_w_stereo_44KHz.wav
1	142	1	1	1	C	2	1	945	1	Ⴖ	cut_l_stereo_44KHz.wav
1	143	2	2	1	C	2	1	869	1	Ⴏ	cut_h_stereo_44KHz.wav
1	144	4	3	2	I	1	0	1033	0	Ⴉ	cut_w_stereo_44KHz.wav
1	145	1	2	0	C	1	1	624	1	Ⴖ	cut_h_stereo_44KHz.wav
1	146	3	4	2	I	1	0	898	0	Ⴒ	cut_g_stereo_44KHz.wav
1	147	2	2	1	C	2	1	1171	1	Ⴏ	cut_h_stereo_44KHz.wav
1	148	4	3	2	I	1	0	663	1	Ⴉ	cut_w_stereo_44KHz.wav
1	149	1	1	1	C	2	1	904	1	Ⴖ	cut_l_stereo_44KHz.wav
1	150	4	4	2	I	1	0	722	0	Ⴉ	cut_g_stereo_44KHz.wav
1	151	3	3	2	I	1	0	945	0	Ⴒ	cut_w_stereo_44KHz.wav
1	152	2	1	0	C	1	1	478	1	Ⴏ	cut_l_stereo_44KHz.wav
1	153	4	4	2	I	1	0	641	1	Ⴉ	cut_g_stereo_44KHz.wav
1	154	1	1	1	C	2	1	818	1	Ⴖ	cut_l_stereo_44KHz.wav
1	155	2	1	0	C	1	1	1153	1	Ⴏ	cut_l_stereo_44KHz.wav
1	156	3	3	2	I	1	0	768	1	Ⴒ	cut_w_stereo_44KHz.wav
1	157	1	2	0	C	1	1	702	1	Ⴖ	cut_h_stereo_44KHz.wav
1	158	2	2	1	C	2	1	930	1	Ⴏ	cut_h_stereo_44KHz.wav
1	159	3	4	2	I	2	0	1302	1	Ⴒ	cut_g_stereo_44KHz.wav
1	160	4	3	2	I	1	0	1017	1	Ⴉ	cut_w_stereo_44KHz.wav
1	161	1	1	1	C	1	0	1357	0	Ⴖ	cut_l_stereo_44KHz.wav
1	162	4	3	2	I	1	0	734	0	Ⴉ	cut_w_stereo_44KHz.wav
1	163	3	4	2	I	1	0	826	1	Ⴒ	cut_g_stereo_44KHz.wav
1	164	2	2	1	C	2	1	1178	1	Ⴏ	cut_h_stereo_44KHz.wav
1	165	3	3	2	I	1	0	768	0	Ⴒ	cut_w_stereo_44KHz.wav
1	166	4	4	2	I	2	0	1287	0	Ⴉ	cut_g_stereo_44KHz.wav
1	167	2	1	0	C	1	1	672	1	Ⴏ	cut_l_stereo_44KHz.wav
1	168	1	2	0	C	1	1	433	1	Ⴖ	cut_h_stereo_44KHz.wav
1	169	2	1	0	C	1	1	764	1	Ⴏ	cut_l_stereo_44KHz.wav
1	170	1	1	1	C	2	1	933	1	Ⴖ	cut_l_stereo_44KHz.wav
1	171	3	4	2	I	1	0	831	0	Ⴒ	cut_g_stereo_44KHz.wav
1	172	4	3	2	I	2	0	1043	0	Ⴉ	cut_w_stereo_44KHz.wav
1	173	1	2	0	C	1	1	637	1	Ⴖ	cut_h_stereo_44KHz.wav
1	174	3	3	2	I	2	0	1701	1	Ⴒ	cut_w_stereo_44KHz.wav
1	175	2	2	1	C	2	1	943	1	Ⴏ	cut_h_stereo_44KHz.wav
1	176	4	4	2	I	1	0	987	1	Ⴉ	cut_g_stereo_44KHz.wav
1	177	3	3	2	I	1	0	899	0	Ⴒ	cut_w_stereo_44KHz.wav
1	178	1	1	1	C	2	1	1051	1	Ⴖ	cut_l_stereo_44KHz.wav
1	179	4	4	2	I	1	0	1965	1	Ⴉ	cut_g_stereo_44KHz.wav
1	180	2	1	0	C	1	1	668	1	Ⴏ	cut_l_stereo_44KHz.wav
1	181	4	3	2	I	2	0	1044	1	Ⴉ	cut_w_stereo_44KHz.wav
1	182	3	4	2	I	1	0	1426	1	Ⴒ	cut_g_stereo_44KHz.wav
1	183	2	2	1	C	2	1	947	1	Ⴏ	cut_h_stereo_44KHz.wav
1	184	1	2	0	C	1	1	510	1	Ⴖ	cut_h_stereo_44KHz.wav
1	185	2	2	1	C	2	1	1405	1	Ⴏ	cut_h_stereo_44KHz.wav
1	186	1	1	1	C	2	1	816	1	Ⴖ	cut_l_stereo_44KHz.wav
1	187	3	3	2	I	1	0	827	0	Ⴒ	cut_w_stereo_44KHz.wav
1	188	4	4	2	I	1	0	704	1	Ⴉ	cut_g_stereo_44KHz.wav
1	189	1	2	0	C	1	1	668	1	Ⴖ	cut_h_stereo_44KHz.wav
1	190	3	4	2	I	1	0	640	0	Ⴒ	cut_g_stereo_44KHz.wav
1	191	4	3	2	I	1	0	700	0	Ⴉ	cut_w_stereo_44KHz.wav
1	192	2	1	0	C	1	1	796	1	Ⴏ	cut_l_stereo_44KHz.wav
1	193	3	3	2	I	1	0	794	0	Ⴒ	cut_w_stereo_44KHz.wav
1	194	2	2	1	C	2	1	1381	1	Ⴏ	cut_h_stereo_44KHz.wav
1	195	4	3	2	I	1	0	744	0	Ⴉ	cut_w_stereo_44KHz.wav
1	196	1	1	1	C	2	1	876	1	Ⴖ	cut_l_stereo_44KHz.wav
1	197	3	4	2	I	1	0	985	0	Ⴒ	cut_g_stereo_44KHz.wav
1	198	2	1	0	C	1	1	1023	1	Ⴏ	cut_l_stereo_44KHz.wav
1	199	1	2	0	C	1	1	684	1	Ⴖ	cut_h_stereo_44KHz.wav
1	200	4	4	2	I	1	0	636	1	Ⴉ	cut_g_stereo_44KHz.wav
2	1	4	3	2	I	2	0	1449	0	Ⴔ	cut_j_stereo_44KHz.wav
2	2	1	1	1	C	2	1	825	1	Ⴐ	cut_n_stereo_44KHz.wav
2	3	3	4	2	I	2	0	738	0	Ⴕ	cut_f_stereo_44KHz.wav
2	4	2	1	0	C	2	0	600	0	Ⴌ	cut_n_stereo_44KHz.wav
2	5	1	2	0	C	2	0	1163	0	Ⴐ	cut_r_stereo_44KHz.wav
2	6	2	2	1	C	2	1	1041	1	Ⴌ	cut_r_stereo_44KHz.wav
2	7	3	3	2	I	1	0	638	0	Ⴕ	cut_j_stereo_44KHz.wav
2	8	4	4	2	I	2	0	933	0	Ⴔ	cut_f_stereo_44KHz.wav
2	9	1	1	1	C	2	1	1007	1	Ⴐ	cut_n_stereo_44KHz.wav
2	10	4	4	2	I	1	0	855	0	Ⴔ	cut_f_stereo_44KHz.wav
2	11	2	1	0	C	1	1	525	1	Ⴌ	cut_n_stereo_44KHz.wav
2	12	3	4	2	I	2	0	917	1	Ⴕ	cut_f_stereo_44KHz.wav
2	13	1	2	0	C	1	1	614	1	Ⴐ	cut_r_stereo_44KHz.wav
2	14	2	2	1	C	1	0	490	0	Ⴌ	cut_r_stereo_44KHz.wav
2	15	4	3	2	I	1	0	612	0	Ⴔ	cut_j_stereo_44KHz.wav
2	16	3	3	2	I	1	0	511	0	Ⴕ	cut_j_stereo_44KHz.wav
2	17	2	2	1	C	1	0	586	0	Ⴌ	cut_r_stereo_44KHz.wav
2	18	3	3	2	I	1	0	621	0	Ⴕ	cut_j_stereo_44KHz.wav
2	19	4	3	2	I	2	0	929	1	Ⴔ	cut_j_stereo_44KHz.wav
2	20	1	2	0	C	1	1	618	1	Ⴐ	cut_r_stereo_44KHz.wav
2	21	4	4	2	I	1	0	1378	1	Ⴔ	cut_f_stereo_44KHz.wav
2	22	2	1	0	C	1	1	573	1	Ⴌ	cut_n_stereo_44KHz.wav
2	23	1	1	1	C	2	1	926	1	Ⴐ	cut_n_stereo_44KHz.wav
2	24	3	4	2	I	1	0	693	0	Ⴕ	cut_f_stereo_44KHz.wav
2	25	2	1	0	C	1	1	805	1	Ⴌ	cut_n_stereo_44KHz.wav
2	26	1	1	1	C	2	1	882	1	Ⴐ	cut_n_stereo_44KHz.wav
2	27	3	4	2	I	2	0	1127	0	Ⴕ	cut_f_stereo_44KHz.wav
2	28	4	4	2	I	1	0	473	1	Ⴔ	cut_f_stereo_44KHz.wav
2	29	2	2	1	C	2	1	893	1	Ⴌ	cut_r_stereo_44KHz.wav
2	30	4	3	2	I	2	0	819	0	Ⴔ	cut_j_stereo_44KHz.wav
2	31	3	3	2	I	2	0	794	1	Ⴕ	cut_j_stereo_44KHz.wav
2	32	1	2	0	C	2	0	688	0	Ⴐ	cut_r_stereo_44KHz.wav
2	33	3	3	2	I	1	0	1128	0	Ⴕ	cut_j_stereo_44KHz.wav
2	34	1	2	0	C	2	0	573	0	Ⴐ	cut_r_stereo_44KHz.wav
2	35	2	1	0	C	1	1	663	1	Ⴌ	cut_n_stereo_44KHz.wav
2	36	4	3	2	I	1	0	337	0	Ⴔ	cut_j_stereo_44KHz.wav
2	37	2	2	1	C	1	0	478	0	Ⴌ	cut_r_stereo_44KHz.wav
2	38	3	4	2	I	1	0	917	1	Ⴕ	cut_f_stereo_44KHz.wav
2	39	1	1	1	C	2	1	723	1	Ⴐ	cut_n_stereo_44KHz.wav
2	40	4	4	2	I	1	0	1208	1	Ⴔ	cut_f_stereo_44KHz.wav
2	41	2	2	1	C	2	1	731	1	Ⴌ	cut_r_stereo_44KHz.wav
2	42	1	2	0	C	2	0	534	0	Ⴐ	cut_r_stereo_44KHz.wav
2	43	3	3	2	I	2	0	973	1	Ⴕ	cut_j_stereo_44KHz.wav
2	44	4	4	2	I	1	0	859	1	Ⴔ	cut_f_stereo_44KHz.wav
2	45	3	4	2	I	1	0	701	1	Ⴕ	cut_f_stereo_44KHz.wav
2	46	4	3	2	I	2	0	855	0	Ⴔ	cut_j_stereo_44KHz.wav
2	47	2	1	0	C	1	1	643	1	Ⴌ	cut_n_stereo_44KHz.wav
2	48	1	1	1	C	2	1	806	1	Ⴐ	cut_n_stereo_44KHz.wav
2	49	3	3	2	I	2	0	916	0	Ⴕ	cut_j_stereo_44KHz.wav
2	50	1	2	0	C	1	1	1206	1	Ⴐ	cut_r_stereo_44KHz.wav
2	51	4	3	2	I	2	0	1240	0	Ⴔ	cut_j_stereo_44KHz.wav
2	52	2	1	0	C	1	1	663	1	Ⴌ	cut_n_stereo_44KHz.wav
2	53	1	1	1	C	2	1	1629	1	Ⴐ	cut_n_stereo_44KHz.wav
2	54	4	4	2	I	2	0	1039	1	Ⴔ	cut_f_stereo_44KHz.wav
2	55	2	2	1	C	1	0	788	0	Ⴌ	cut_r_stereo_44KHz.wav
2	56	3	4	2	I	1	0	741	1	Ⴕ	cut_f_stereo_44KHz.wav
2	57	1	2	0	C	1	1	358	1	Ⴐ	cut_r_stereo_44KHz.wav
2	58	4	3	2	I	1	0	439	1	Ⴔ	cut_j_stereo_44KHz.wav
2	59	2	1	0	C	1	1	625	1	Ⴌ	cut_n_stereo_44KHz.wav
2	60	3	4	2	I	1	0	567	1	Ⴕ	cut_f_stereo_44KHz.wav
2	61	2	2	1	C	2	1	937	1	Ⴌ	cut_r_stereo_44KHz.wav
2	62	4	4	2	I	1	0	805	0	Ⴔ	cut_f_stereo_44KHz.wav
2	63	3	3	2	I	1	0	429	1	Ⴕ	cut_j_stereo_44KHz.wav
2	64	1	1	1	C	2	1	1891	1	Ⴐ	cut_n_stereo_44KHz.wav
2	65	3	4	2	I	1	0	949	0	Ⴕ	cut_f_stereo_44KHz.wav
2	66	2	1	0	C	1	1	614	1	Ⴌ	cut_n_stereo_44KHz.wav
2	67	4	4	2	I	2	0	942	0	Ⴔ	cut_f_stereo_44KHz.wav
2	68	1	1	1	C	1	0	883	0	Ⴐ	cut_n_stereo_44KHz.wav
2	69	3	3	2	I	1	0	1268	0	Ⴕ	cut_j_stereo_44KHz.wav
2	70	1	2	0	C	1	1	674	1	Ⴐ	cut_r_stereo_44KHz.wav
2	71	2	2	1	C	2	1	667	1	Ⴌ	cut_r_stereo_44KHz.wav
2	72	4	3	2	I	2	0	702	0	Ⴔ	cut_j_stereo_44KHz.wav
2	73	3	3	2	I	1	0	599	1	Ⴕ	cut_j_stereo_44KHz.wav
2	74	2	1	0	C	1	1	673	1	Ⴌ	cut_n_stereo_44KHz.wav
2	75	4	4	2	I	2	0	980	1	Ⴔ	cut_f_stereo_44KHz.wav
2	76	1	1	1	C	1	0	695	0	Ⴐ	cut_n_stereo_44KHz.wav
2	77	3	4	2	I	1	0	613	1	Ⴕ	cut_f_stereo_44KHz.wav
2	78	4	3	2	I	1	0	634	0	Ⴔ	cut_j_stereo_44KHz.wav
2	79	2	2	1	C	1	0	236	0	Ⴌ	cut_r_stereo_44KHz.wav
2	80	1	2	0	C	1	1	644	1	Ⴐ	cut_r_stereo_44KHz.wav
2	81	4	4	2	I	1	0	329	1	Ⴔ	cut_f_stereo_44KHz.wav
2	82	1	2	0	C	1	1	907	1	Ⴐ	cut_r_stereo_44KHz.wav
2	83	2	1	0	C	1	1	454	1	Ⴌ	cut_n_stereo_44KHz.wav
2	84	3	3	2	I	2	0	872	1	Ⴕ	cut_j_stereo_44KHz.wav
2	85	1	1	1	C	2	1	1652	1	Ⴐ	cut_n_stereo_44KHz.wav
2	86	3	4	2	I	1	0	793	1	Ⴕ	cut_f_stereo_44KHz.wav
2	87	2	2	1	C	2	1	965	1	Ⴌ	cut_r_stereo_44KHz.wav
2	88	4	3	2	I	1	0	488	0	Ⴔ	cut_j_stereo_44KHz.wav
2	89	3	3	2	I	1	0	755	1	Ⴕ	cut_j_stereo_44KHz.wav
2	90	1	2	0	C	1	1	987	1	Ⴐ	cut_r_stereo_44KHz.wav
2	91	2	1	0	C	1	1	617	1	Ⴌ	cut_n_stereo_44KHz.wav
2	92	4	4	2	I	1	0	768	0	Ⴔ	cut_f_stereo_44KHz.wav
2	93	3	4	2	I	1	0	313	1	Ⴕ	cut_f_stereo_44KHz.wav
2	94	2	2	1	C	1	0	362	0	Ⴌ	cut_r_stereo_44KHz.wav
2	95	4	3	2	I	2	0	1050	1	Ⴔ	cut_j_stereo_44KHz.wav
2	96	1	1	1	C	2	1	1026	1	Ⴐ	cut_n_stereo_44KHz.wav
2	97	2	1	0	C	1	1	1010	1	Ⴌ	cut_n_stereo_44KHz.wav
2	98	1	1	1	C	1	0	719	0	Ⴐ	cut_n_stereo_44KHz.wav
2	99	4	4	2	I	2	0	766	1	Ⴔ	cut_f_stereo_44KHz.wav
2	100	3	4	2	I	2	0	641	1	Ⴕ	cut_f_stereo_44KHz.wav
2	101	4	3	2	I	1	0	1073	1	Ⴔ	cut_j_stereo_44KHz.wav
2	102	3	3	2	I	1	0	407	0	Ⴕ	cut_j_stereo_44KHz.wav
2	103	1	2	0	C	1	1	802	1	Ⴐ	cut_r_stereo_44KHz.wav
2	104	2	2	1	C	1	0	538	0	Ⴌ	cut_r_stereo_44KHz.wav
2	105	3	4	2	I	1	0	641	1	Ⴕ	cut_f_stereo_44KHz.wav
2	106	2	2	1	C	2	1	912	1	Ⴌ	cut_r_stereo_44KHz.wav
2	107	4	3	2	I	2	0	669	0	Ⴔ	cut_j_stereo_44KHz.wav
2	108	1	1	1	C	2	1	1160	1	Ⴐ	cut_n_stereo_44KHz.wav
2	109	3	3	2	I	2	0	663	1	Ⴕ	cut_j_stereo_44KHz.wav
2	110	2	1	0	C	1	1	609	1	Ⴌ	cut_n_stereo_44KHz.wav
2	111	1	2	0	C	1	1	816	1	Ⴐ	cut_r_stereo_44KHz.wav
2	112	4	4	2	I	1	0	560	1	Ⴔ	cut_f_stereo_44KHz.wav
2	113	3	4	2	I	1	0	473	1	Ⴕ	cut_f_stereo_44KHz.wav
2	114	1	1	1	C	2	1	937	1	Ⴐ	cut_n_stereo_44KHz.wav
2	115	2	2	1	C	2	1	995	1	Ⴌ	cut_r_stereo_44KHz.wav
2	116	4	4	2	I	1	0	691	0	Ⴔ	cut_f_stereo_44KHz.wav
2	117	3	3	2	I	1	0	796	1	Ⴕ	cut_j_stereo_44KHz.wav
2	118	1	2	0	C	1	1	1552	1	Ⴐ	cut_r_stereo_44KHz.wav
2	119	4	3	2	I	2	0	902	1	Ⴔ	cut_j_stereo_44KHz.wav
2	120	2	1	0	C	1	1	772	1	Ⴌ	cut_n_stereo_44KHz.wav
2	121	1	1	1	C	2	1	1591	1	Ⴐ	cut_n_stereo_44KHz.wav
2	122	4	3	2	I	1	0	737	1	Ⴔ	cut_j_stereo_44KHz.wav
2	123	3	4	2	I	2	0	805	1	Ⴕ	cut_f_stereo_44KHz.wav
2	124	2	1	0	C	1	1	577	1	Ⴌ	cut_n_stereo_44KHz.wav
2	125	3	3	2	I	1	0	627	0	Ⴕ	cut_j_stereo_44KHz.wav
2	126	2	2	1	C	2	1	889	1	Ⴌ	cut_r_stereo_44KHz.wav
2	127	1	2	0	C	1	1	638	1	Ⴐ	cut_r_stereo_44KHz.wav
2	128	4	4	2	I	1	0	728	1	Ⴔ	cut_f_stereo_44KHz.wav
2	129	3	4	2	I	1	0	745	0	Ⴕ	cut_f_stereo_44KHz.wav
2	130	1	2	0	C	1	1	398	1	Ⴐ	cut_r_stereo_44KHz.wav
2	131	2	2	1	C	2	1	792	1	Ⴌ	cut_r_stereo_44KHz.wav
2	132	4	4	2	I	1	0	482	1	Ⴔ	cut_f_stereo_44KHz.wav
2	133	1	1	1	C	1	0	254	0	Ⴐ	cut_n_stereo_44KHz.wav
2	134	3	3	2	I	1	0	656	0	Ⴕ	cut_j_stereo_44KHz.wav
2	135	2	1	0	C	1	1	386	1	Ⴌ	cut_n_stereo_44KHz.wav
2	136	4	3	2	I	1	0	686	1	Ⴔ	cut_j_stereo_44KHz.wav
2	137	2	1	0	C	1	1	404	1	Ⴌ	cut_n_stereo_44KHz.wav
2	138	1	2	0	C	1	1	1064	1	Ⴐ	cut_r_stereo_44KHz.wav
2	139	4	4	2	I	2	0	834	0	Ⴔ	cut_f_stereo_44KHz.wav
2	140	3	4	2	I	1	0	621	0	Ⴕ	cut_f_stereo_44KHz.wav
2	141	1	1	1	C	2	1	1010	1	Ⴐ	cut_n_stereo_44KHz.wav
2	142	4	3	2	I	1	0	457	1	Ⴔ	cut_j_stereo_44KHz.wav
2	143	2	2	1	C	2	1	783	1	Ⴌ	cut_r_stereo_44KHz.wav
2	144	3	3	2	I	2	0	702	1	Ⴕ	cut_j_stereo_44KHz.wav
2	145	1	2	0	C	1	1	516	1	Ⴐ	cut_r_stereo_44KHz.wav
2	146	3	4	2	I	1	0	680	0	Ⴕ	cut_f_stereo_44KHz.wav
2	147	4	4	2	I	1	0	809	0	Ⴔ	cut_f_stereo_44KHz.wav
2	148	2	2	1	C	1	0	693	0	Ⴌ	cut_r_stereo_44KHz.wav
2	149	1	1	1	C	2	1	1409	1	Ⴐ	cut_n_stereo_44KHz.wav
2	150	2	1	0	C	1	1	799	1	Ⴌ	cut_n_stereo_44KHz.wav
2	151	4	3	2	I	1	0	644	0	Ⴔ	cut_j_stereo_44KHz.wav
2	152	3	3	2	I	1	0	419	0	Ⴕ	cut_j_stereo_44KHz.wav
2	153	2	2	1	C	1	0	477	0	Ⴌ	cut_r_stereo_44KHz.wav
2	154	3	4	2	I	1	0	342	0	Ⴕ	cut_f_stereo_44KHz.wav
2	155	1	1	1	C	2	1	1551	1	Ⴐ	cut_n_stereo_44KHz.wav
2	156	4	4	2	I	1	0	617	1	Ⴔ	cut_f_stereo_44KHz.wav
2	157	1	2	0	C	1	1	306	1	Ⴐ	cut_r_stereo_44KHz.wav
2	158	4	3	2	I	2	0	835	0	Ⴔ	cut_j_stereo_44KHz.wav
2	159	3	3	2	I	1	0	533	0	Ⴕ	cut_j_stereo_44KHz.wav
2	160	2	1	0	C	1	1	1048	1	Ⴌ	cut_n_stereo_44KHz.wav
2	161	3	3	2	I	1	0	358	0	Ⴕ	cut_j_stereo_44KHz.wav
2	162	4	3	2	I	1	0	497	0	Ⴔ	cut_j_stereo_44KHz.wav
2	163	2	1	0	C	1	1	650	1	Ⴌ	cut_n_stereo_44KHz.wav
2	164	1	1	1	C	1	0	802	0	Ⴐ	cut_n_stereo_44KHz.wav
2	165	4	4	2	I	1	0	611	0	Ⴔ	cut_f_stereo_44KHz.wav
2	166	2	2	1	C	2	1	1943	1	Ⴌ	cut_r_stereo_44KHz.wav
2	167	1	2	0	C	1	1	643	1	Ⴐ	cut_r_stereo_44KHz.wav
2	168	3	4	2	I	1	0	783	0	Ⴕ	cut_f_stereo_44KHz.wav
2	169	1	2	0	C	1	1	663	1	Ⴐ	cut_r_stereo_44KHz.wav
2	170	3	4	2	I	1	0	1039	1	Ⴕ	cut_f_stereo_44KHz.wav
2	171	4	3	2	I	1	0	825	1	Ⴔ	cut_j_stereo_44KHz.wav
2	172	2	2	1	C	1	0	788	0	Ⴌ	cut_r_stereo_44KHz.wav
2	173	4	4	2	I	1	0	405	1	Ⴔ	cut_f_stereo_44KHz.wav
2	174	3	3	2	I	1	0	680	0	Ⴕ	cut_j_stereo_44KHz.wav
2	175	2	1	0	C	1	1	544	1	Ⴌ	cut_n_stereo_44KHz.wav
2	176	1	1	1	C	1	0	818	0	Ⴐ	cut_n_stereo_44KHz.wav
2	177	4	3	2	I	1	0	728	1	Ⴔ	cut_j_stereo_44KHz.wav
2	178	2	1	0	C	1	1	557	1	Ⴌ	cut_n_stereo_44KHz.wav
2	179	3	4	2	I	1	0	648	0	Ⴕ	cut_f_stereo_44KHz.wav
2	180	1	2	0	C	1	1	448	1	Ⴐ	cut_r_stereo_44KHz.wav
2	181	3	3	2	I	1	0	359	1	Ⴕ	cut_j_stereo_44KHz.wav
2	182	4	4	2	I	1	0	308	0	Ⴔ	cut_f_stereo_44KHz.wav
2	183	2	2	1	C	1	0	347	0	Ⴌ	cut_r_stereo_44KHz.wav
2	184	1	1	1	C	1	0	966	0	Ⴐ	cut_n_stereo_44KHz.wav
2	185	4	3	2	I	1	0	588	0	Ⴔ	cut_j_stereo_44KHz.wav
2	186	1	1	1	C	2	1	1242	1	Ⴐ	cut_n_stereo_44KHz.wav
2	187	3	3	2	I	2	0	634	0	Ⴕ	cut_j_stereo_44KHz.wav
2	188	2	2	1	C	1	0	624	0	Ⴌ	cut_r_stereo_44KHz.wav
2	189	3	4	2	I	1	0	632	1	Ⴕ	cut_f_stereo_44KHz.wav
2	190	4	4	2	I	1	0	483	1	Ⴔ	cut_f_stereo_44KHz.wav
2	191	2	1	0	C	1	1	670	1	Ⴌ	cut_n_stereo_44KHz.wav
2	192	1	2	0	C	1	1	980	1	Ⴐ	cut_r_stereo_44KHz.wav
2	193	2	1	0	C	1	1	1022	1	Ⴌ	cut_n_stereo_44KHz.wav
2	194	4	3	2	I	2	0	1431	1	Ⴔ	cut_j_stereo_44KHz.wav
2	195	3	3	2	I	2	0	680	0	Ⴕ	cut_j_stereo_44KHz.wav
2	196	1	2	0	C	1	1	1455	1	Ⴐ	cut_r_stereo_44KHz.wav
2	197	4	4	2	I	1	0	652	0	Ⴔ	cut_f_stereo_44KHz.wav
2	198	2	2	1	C	1	0	494	0	Ⴌ	cut_r_stereo_44KHz.wav
2	199	1	1	1	C	2	1	1119	1	Ⴐ	cut_n_stereo_44KHz.wav
2	200	3	4	2	I	1	0	708	1	Ⴕ	cut_f_stereo_44KHz.wav
3	1	2	1	0	C	2	0	839	0	Ⴃ	cut_o_stereo_44KHz.wav
3	2	3	3	2	I	1	0	365	1	Ⴇ	cut_a_stereo_44KHz.wav
3	3	1	1	1	C	1	0	436	0	Ⴁ	cut_o_stereo_44KHz.wav
3	4	4	3	2	I	2	0	534	1	Ⴟ	cut_a_stereo_44KHz.wav
3	5	3	4	2	I	1	0	668	1	Ⴇ	cut_k_stereo_44KHz.wav
3	6	2	2	1	C	1	0	352	0	Ⴃ	cut_u_stereo_44KHz.wav
3	7	1	2	0	C	1	1	529	1	Ⴁ	cut_u_stereo_44KHz.wav
3	8	4	4	2	I	1	0	586	1	Ⴟ	cut_k_stereo_44KHz.wav
3	9	2	1	0	C	1	1	366	1	Ⴃ	cut_o_stereo_44KHz.wav
3	10	1	1	1	C	2	1	677	1	Ⴁ	cut_o_stereo_44KHz.wav
3	11	4	3	2	I	2	0	713	1	Ⴟ	cut_a_stereo_44KHz.wav
3	12	3	3	2	I	2	0	750	1	Ⴇ	cut_a_stereo_44KHz.wav
3	13	2	2	1	C	2	1	639	1	Ⴃ	cut_u_stereo_44KHz.wav
3	14	1	2	0	C	1	1	393	1	Ⴁ	cut_u_stereo_44KHz.wav
3	15	3	4	2	I	2	0	710	1	Ⴇ	cut_k_stereo_44KHz.wav
3	16	4	4	2	I	1	0	651	0	Ⴟ	cut_k_stereo_44KHz.wav
3	17	3	3	2	I	1	0	739	0	Ⴇ	cut_a_stereo_44KHz.wav
3	18	2	2	1	C	2	1	914	1	Ⴃ	cut_u_stereo_44KHz.wav
3	19	1	2	0	C	2	0	565	0	Ⴁ	cut_u_stereo_44KHz.wav
3	20	4	3	2	I	2	0	1094	1	Ⴟ	cut_a_stereo_44KHz.wav
3	21	3	4	2	I	1	0	1143	1	Ⴇ	cut_k_stereo_44KHz.wav
3	22	2	1	0	C	2	0	670	0	Ⴃ	cut_o_stereo_44KHz.wav
3	23	1	1	1	C	2	1	772	1	Ⴁ	cut_o_stereo_44KHz.wav
3	24	4	4	2	I	1	0	1555	0	Ⴟ	cut_k_stereo_44KHz.wav
3	25	2	2	1	C	1	0	818	0	Ⴃ	cut_u_stereo_44KHz.wav
3	26	4	4	2	I	1	0	712	1	Ⴟ	cut_k_stereo_44KHz.wav
3	27	3	3	2	I	2	0	908	0	Ⴇ	cut_a_stereo_44KHz.wav
3	28	1	1	1	C	2	1	800	1	Ⴁ	cut_o_stereo_44KHz.wav
3	29	3	4	2	I	2	0	1013	0	Ⴇ	cut_k_stereo_44KHz.wav
3	30	2	1	0	C	1	1	708	1	Ⴃ	cut_o_stereo_44KHz.wav
3	31	1	2	0	C	1	1	401	1	Ⴁ	cut_u_stereo_44KHz.wav
3	32	4	3	2	I	2	0	864	0	Ⴟ	cut_a_stereo_44KHz.wav
3	33	1	2	0	C	1	1	722	1	Ⴁ	cut_u_stereo_44KHz.wav
3	34	3	3	2	I	1	0	784	0	Ⴇ	cut_a_stereo_44KHz.wav
3	35	4	3	2	I	1	0	406	0	Ⴟ	cut_a_stereo_44KHz.wav
3	36	2	1	0	C	1	1	771	1	Ⴃ	cut_o_stereo_44KHz.wav
3	37	4	4	2	I	1	0	823	1	Ⴟ	cut_k_stereo_44KHz.wav
3	38	2	2	1	C	2	1	1049	1	Ⴃ	cut_u_stereo_44KHz.wav
3	39	3	4	2	I	2	0	707	0	Ⴇ	cut_k_stereo_44KHz.wav
3	40	1	1	1	C	2	1	736	1	Ⴁ	cut_o_stereo_44KHz.wav
3	41	4	3	2	I	2	0	492	1	Ⴟ	cut_a_stereo_44KHz.wav
3	42	3	3	2	I	1	0	405	1	Ⴇ	cut_a_stereo_44KHz.wav
3	43	2	2	1	C	2	1	683	1	Ⴃ	cut_u_stereo_44KHz.wav
3	44	1	1	1	C	2	1	692	1	Ⴁ	cut_o_stereo_44KHz.wav
3	45	2	1	0	C	1	1	1599	1	Ⴃ	cut_o_stereo_44KHz.wav
3	46	4	4	2	I	1	0	814	1	Ⴟ	cut_k_stereo_44KHz.wav
3	47	3	4	2	I	1	0	740	0	Ⴇ	cut_k_stereo_44KHz.wav
3	48	1	2	0	C	1	1	761	1	Ⴁ	cut_u_stereo_44KHz.wav
3	49	2	1	0	C	1	1	400	1	Ⴃ	cut_o_stereo_44KHz.wav
3	50	1	2	0	C	1	1	624	1	Ⴁ	cut_u_stereo_44KHz.wav
3	51	3	4	2	I	2	0	1044	1	Ⴇ	cut_k_stereo_44KHz.wav
3	52	4	3	2	I	1	0	545	0	Ⴟ	cut_a_stereo_44KHz.wav
3	53	2	2	1	C	1	0	572	0	Ⴃ	cut_u_stereo_44KHz.wav
3	54	1	1	1	C	2	1	1097	1	Ⴁ	cut_o_stereo_44KHz.wav
3	55	3	3	2	I	1	0	636	1	Ⴇ	cut_a_stereo_44KHz.wav
3	56	4	4	2	I	1	0	510	0	Ⴟ	cut_k_stereo_44KHz.wav
3	57	3	4	2	I	2	0	645	1	Ⴇ	cut_k_stereo_44KHz.wav
3	58	4	4	2	I	1	0	487	0	Ⴟ	cut_k_stereo_44KHz.wav
3	59	2	1	0	C	1	1	727	1	Ⴃ	cut_o_stereo_44KHz.wav
3	60	1	1	1	C	2	1	749	1	Ⴁ	cut_o_stereo_44KHz.wav
3	61	3	3	2	I	1	0	922	1	Ⴇ	cut_a_stereo_44KHz.wav
3	62	4	3	2	I	1	0	441	0	Ⴟ	cut_a_stereo_44KHz.wav
3	63	1	2	0	C	1	1	1253	1	Ⴁ	cut_u_stereo_44KHz.wav
3	64	2	2	1	C	1	0	483	0	Ⴃ	cut_u_stereo_44KHz.wav
3	65	1	2	0	C	1	1	546	1	Ⴁ	cut_u_stereo_44KHz.wav
3	66	4	3	2	I	2	0	652	0	Ⴟ	cut_a_stereo_44KHz.wav
3	67	2	2	1	C	2	1	939	1	Ⴃ	cut_u_stereo_44KHz.wav
3	68	3	4	2	I	1	0	845	0	Ⴇ	cut_k_stereo_44KHz.wav
3	69	1	1	1	C	2	1	768	1	Ⴁ	cut_o_stereo_44KHz.wav
3	70	2	1	0	C	1	1	590	1	Ⴃ	cut_o_stereo_44KHz.wav
3	71	3	3	2	I	1	0	632	0	Ⴇ	cut_a_stereo_44KHz.wav
3	72	4	4	2	I	1	0	872	0	Ⴟ	cut_k_stereo_44KHz.wav
3	73	2	2	1	C	2	1	1081	1	Ⴃ	cut_u_stereo_44KHz.wav
3	74	1	2	0	C	1	1	667	1	Ⴁ	cut_u_stereo_44KHz.wav
3	75	4	3	2	I	2	0	757	0	Ⴟ	cut_a_stereo_44KHz.wav
3	76	3	4	2	I	2	0	670	0	Ⴇ	cut_k_stereo_44KHz.wav
3	77	1	1	1	C	2	1	1406	1	Ⴁ	cut_o_stereo_44KHz.wav
3	78	3	3	2	I	1	0	585	0	Ⴇ	cut_a_stereo_44KHz.wav
3	79	2	1	0	C	1	1	768	1	Ⴃ	cut_o_stereo_44KHz.wav
3	80	4	4	2	I	2	0	881	0	Ⴟ	cut_k_stereo_44KHz.wav
3	81	2	1	0	C	1	1	1026	1	Ⴃ	cut_o_stereo_44KHz.wav
3	82	3	4	2	I	1	0	471	1	Ⴇ	cut_k_stereo_44KHz.wav
3	83	4	4	2	I	1	0	664	0	Ⴟ	cut_k_stereo_44KHz.wav
3	84	1	1	1	C	2	1	793	1	Ⴁ	cut_o_stereo_44KHz.wav
3	85	3	3	2	I	1	0	666	0	Ⴇ	cut_a_stereo_44KHz.wav
3	86	2	2	1	C	2	1	883	1	Ⴃ	cut_u_stereo_44KHz.wav
3	87	4	3	2	I	2	0	824	0	Ⴟ	cut_a_stereo_44KHz.wav
3	88	1	2	0	C	2	0	1120	0	Ⴁ	cut_u_stereo_44KHz.wav
3	89	2	1	0	C	1	1	511	1	Ⴃ	cut_o_stereo_44KHz.wav
3	90	1	2	0	C	1	1	607	1	Ⴁ	cut_u_stereo_44KHz.wav
3	91	4	4	2	I	1	0	878	1	Ⴟ	cut_k_stereo_44KHz.wav
3	92	3	3	2	I	1	0	407	1	Ⴇ	cut_a_stereo_44KHz.wav
3	93	1	1	1	C	2	1	1013	1	Ⴁ	cut_o_stereo_44KHz.wav
3	94	3	4	2	I	2	0	648	1	Ⴇ	cut_k_stereo_44KHz.wav
3	95	2	2	1	C	1	0	651	0	Ⴃ	cut_u_stereo_44KHz.wav
3	96	4	3	2	I	1	0	837	1	Ⴟ	cut_a_stereo_44KHz.wav
3	97	3	4	2	I	1	0	486	1	Ⴇ	cut_k_stereo_44KHz.wav
3	98	1	1	1	C	1	0	279	0	Ⴁ	cut_o_stereo_44KHz.wav
3	99	2	1	0	C	1	1	305	1	Ⴃ	cut_o_stereo_44KHz.wav
3	100	4	4	2	I	2	0	673	0	Ⴟ	cut_k_stereo_44KHz.wav
3	101	2	2	1	C	1	0	627	0	Ⴃ	cut_u_stereo_44KHz.wav
3	102	4	3	2	I	2	0	545	0	Ⴟ	cut_a_stereo_44KHz.wav
3	103	3	3	2	I	2	0	762	0	Ⴇ	cut_a_stereo_44KHz.wav
3	104	1	2	0	C	1	1	491	1	Ⴁ	cut_u_stereo_44KHz.wav
3	105	4	4	2	I	2	0	476	0	Ⴟ	cut_k_stereo_44KHz.wav
3	106	3	4	2	I	1	0	311	1	Ⴇ	cut_k_stereo_44KHz.wav
3	107	2	2	1	C	1	0	478	0	Ⴃ	cut_u_stereo_44KHz.wav
3	108	1	1	1	C	1	0	246	0	Ⴁ	cut_o_stereo_44KHz.wav
3	109	2	1	0	C	1	1	320	1	Ⴃ	cut_o_stereo_44KHz.wav
3	110	1	2	0	C	1	1	311	1	Ⴁ	cut_u_stereo_44KHz.wav
3	111	3	3	2	I	1	0	801	0	Ⴇ	cut_a_stereo_44KHz.wav
3	112	4	3	2	I	1	0	536	1	Ⴟ	cut_a_stereo_44KHz.wav
3	113	3	4	2	I	1	0	258	0	Ⴇ	cut_k_stereo_44KHz.wav
3	114	4	4	2	I	1	0	563	1	Ⴟ	cut_k_stereo_44KHz.wav
3	115	2	2	1	C	1	0	578	0	Ⴃ	cut_u_stereo_44KHz.wav
3	116	1	1	1	C	2	1	572	1	Ⴁ	cut_o_stereo_44KHz.wav
3	117	3	3	2	I	1	0	1018	1	Ⴇ	cut_a_stereo_44KHz.wav
3	118	1	2	0	C	2	0	711	0	Ⴁ	cut_u_stereo_44KHz.wav
3	119	2	1	0	C	1	1	1596	1	Ⴃ	cut_o_stereo_44KHz.wav
3	120	4	3	2	I	2	0	997	1	Ⴟ	cut_a_stereo_44KHz.wav
3	121	3	3	2	I	1	0	594	1	Ⴇ	cut_a_stereo_44KHz.wav
3	122	1	2	0	C	1	1	419	1	Ⴁ	cut_u_stereo_44KHz.wav
3	123	2	1	0	C	1	1	458	1	Ⴃ	cut_o_stereo_44KHz.wav
3	124	4	4	2	I	1	0	502	1	Ⴟ	cut_k_stereo_44KHz.wav
3	125	1	1	1	C	1	0	413	0	Ⴁ	cut_o_stereo_44KHz.wav
3	126	2	2	1	C	1	0	837	0	Ⴃ	cut_u_stereo_44KHz.wav
3	127	4	3	2	I	1	0	929	0	Ⴟ	cut_a_stereo_44KHz.wav
3	128	3	4	2	I	2	0	762	1	Ⴇ	cut_k_stereo_44KHz.wav
3	129	1	2	0	C	1	1	778	1	Ⴁ	cut_u_stereo_44KHz.wav
3	130	2	2	1	C	1	0	629	0	Ⴃ	cut_u_stereo_44KHz.wav
3	131	4	3	2	I	1	0	825	0	Ⴟ	cut_a_stereo_44KHz.wav
3	132	3	3	2	I	1	0	604	0	Ⴇ	cut_a_stereo_44KHz.wav
3	133	2	1	0	C	1	1	715	1	Ⴃ	cut_o_stereo_44KHz.wav
3	134	4	4	2	I	1	0	957	1	Ⴟ	cut_k_stereo_44KHz.wav
3	135	1	1	1	C	2	1	1095	1	Ⴁ	cut_o_stereo_44KHz.wav
3	136	3	4	2	I	1	0	578	1	Ⴇ	cut_k_stereo_44KHz.wav
3	137	1	2	0	C	1	1	643	1	Ⴁ	cut_u_stereo_44KHz.wav
3	138	3	4	2	I	1	0	565	0	Ⴇ	cut_k_stereo_44KHz.wav
3	139	2	1	0	C	1	1	674	1	Ⴃ	cut_o_stereo_44KHz.wav
3	140	4	4	2	I	1	0	669	0	Ⴟ	cut_k_stereo_44KHz.wav
3	141	1	1	1	C	2	1	831	1	Ⴁ	cut_o_stereo_44KHz.wav
3	142	4	3	2	I	2	0	564	1	Ⴟ	cut_a_stereo_44KHz.wav
3	143	2	2	1	C	1	0	754	0	Ⴃ	cut_u_stereo_44KHz.wav
3	144	3	3	2	I	1	0	868	1	Ⴇ	cut_a_stereo_44KHz.wav
3	145	2	2	1	C	1	0	764	0	Ⴃ	cut_u_stereo_44KHz.wav
3	146	3	3	2	I	1	0	621	0	Ⴇ	cut_a_stereo_44KHz.wav
3	147	4	4	2	I	1	0	724	0	Ⴟ	cut_k_stereo_44KHz.wav
3	148	1	2	0	C	1	1	748	1	Ⴁ	cut_u_stereo_44KHz.wav
3	149	3	4	2	I	1	0	345	1	Ⴇ	cut_k_stereo_44KHz.wav
3	150	4	3	2	I	2	0	542	0	Ⴟ	cut_a_stereo_44KHz.wav
3	151	2	1	0	C	1	1	482	1	Ⴃ	cut_o_stereo_44KHz.wav
3	152	1	1	1	C	1	0	503	0	Ⴁ	cut_o_stereo_44KHz.wav
3	153	2	2	1	C	1	0	422	0	Ⴃ	cut_u_stereo_44KHz.wav
3	154	4	3	2	I	2	0	588	1	Ⴟ	cut_a_stereo_44KHz.wav
3	155	3	4	2	I	1	0	642	1	Ⴇ	cut_k_stereo_44KHz.wav
3	156	1	2	0	C	1	1	588	1	Ⴁ	cut_u_stereo_44KHz.wav
3	157	4	4	2	I	1	0	489	0	Ⴟ	cut_k_stereo_44KHz.wav
3	158	2	1	0	C	1	1	1134	1	Ⴃ	cut_o_stereo_44KHz.wav
3	159	1	1	1	C	2	1	958	1	Ⴁ	cut_o_stereo_44KHz.wav
3	160	3	3	2	I	1	0	777	1	Ⴇ	cut_a_stereo_44KHz.wav
3	161	4	4	2	I	1	0	448	1	Ⴟ	cut_k_stereo_44KHz.wav
3	162	1	1	1	C	1	0	577	0	Ⴁ	cut_o_stereo_44KHz.wav
3	163	3	4	2	I	1	0	708	0	Ⴇ	cut_k_stereo_44KHz.wav
3	164	2	2	1	C	1	0	672	0	Ⴃ	cut_u_stereo_44KHz.wav
3	165	3	3	2	I	1	0	1134	0	Ⴇ	cut_a_stereo_44KHz.wav
3	166	2	1	0	C	1	1	504	1	Ⴃ	cut_o_stereo_44KHz.wav
3	167	4	3	2	I	1	0	575	0	Ⴟ	cut_a_stereo_44KHz.wav
3	168	1	2	0	C	1	1	825	1	Ⴁ	cut_u_stereo_44KHz.wav
3	169	3	4	2	I	2	0	703	0	Ⴇ	cut_k_stereo_44KHz.wav
3	170	4	3	2	I	2	0	641	1	Ⴟ	cut_a_stereo_44KHz.wav
3	171	2	2	1	C	1	0	722	0	Ⴃ	cut_u_stereo_44KHz.wav
3	172	1	1	1	C	2	1	798	1	Ⴁ	cut_o_stereo_44KHz.wav
3	173	2	1	0	C	1	1	620	1	Ⴃ	cut_o_stereo_44KHz.wav
3	174	4	4	2	I	1	0	778	0	Ⴟ	cut_k_stereo_44KHz.wav
3	175	3	3	2	I	1	0	578	0	Ⴇ	cut_a_stereo_44KHz.wav
3	176	1	2	0	C	1	1	687	1	Ⴁ	cut_u_stereo_44KHz.wav
3	177	2	1	0	C	1	1	567	1	Ⴃ	cut_o_stereo_44KHz.wav
3	178	3	3	2	I	1	0	965	0	Ⴇ	cut_a_stereo_44KHz.wav
3	179	4	4	2	I	1	0	429	1	Ⴟ	cut_k_stereo_44KHz.wav
3	180	1	2	0	C	1	1	401	1	Ⴁ	cut_u_stereo_44KHz.wav
3	181	2	2	1	C	1	0	480	0	Ⴃ	cut_u_stereo_44KHz.wav
3	182	4	3	2	I	1	0	792	1	Ⴟ	cut_a_stereo_44KHz.wav
3	183	1	1	1	C	2	1	1005	1	Ⴁ	cut_o_stereo_44KHz.wav
3	184	3	4	2	I	1	0	645	1	Ⴇ	cut_k_stereo_44KHz.wav
3	185	2	2	1	C	1	0	632	0	Ⴃ	cut_u_stereo_44KHz.wav
3	186	4	3	2	I	1	0	830	1	Ⴟ	cut_a_stereo_44KHz.wav
3	187	1	1	1	C	2	1	1187	1	Ⴁ	cut_o_stereo_44KHz.wav
3	188	3	3	2	I	1	0	591	0	Ⴇ	cut_a_stereo_44KHz.wav
3	189	2	1	0	C	1	1	583	1	Ⴃ	cut_o_stereo_44KHz.wav
3	190	3	4	2	I	1	0	443	1	Ⴇ	cut_k_stereo_44KHz.wav
3	191	4	4	2	I	1	0	668	1	Ⴟ	cut_k_stereo_44KHz.wav
3	192	1	2	0	C	1	1	533	1	Ⴁ	cut_u_stereo_44KHz.wav
3	193	2	1	0	C	1	1	447	1	Ⴃ	cut_o_stereo_44KHz.wav
3	194	1	2	0	C	1	1	552	1	Ⴁ	cut_u_stereo_44KHz.wav
3	195	4	3	2	I	1	0	565	1	Ⴟ	cut_a_stereo_44KHz.wav
3	196	3	3	2	I	1	0	419	0	Ⴇ	cut_a_stereo_44KHz.wav
3	197	2	2	1	C	2	1	725	1	Ⴃ	cut_u_stereo_44KHz.wav
3	198	1	1	1	C	2	1	953	1	Ⴁ	cut_o_stereo_44KHz.wav
3	199	4	4	2	I	2	0	710	1	Ⴟ	cut_k_stereo_44KHz.wav
3	200	3	4	2	I	2	0	670	0	Ⴇ	cut_k_stereo_44KHz.wav
4	1	3	4	2	I	2	0	757	0	Ⴊ	cut_s_stereo_44KHz.wav
4	2	4	4	2	I	2	0	568	0	Ⴜ	cut_s_stereo_44KHz.wav
4	3	2	2	1	C	1	0	543	0	Ⴂ	cut_oei_stereo_44KHz.wav
4	4	1	2	0	C	1	1	375	1	Ⴡ	cut_oei_stereo_44KHz.wav
4	5	3	3	2	I	1	0	565	0	Ⴊ	cut_ei_stereo_44KHz.wav
4	6	2	1	0	C	1	1	462	1	Ⴂ	cut_ui_stereo_44KHz.wav
4	7	4	3	2	I	1	0	1469	0	Ⴜ	cut_ei_stereo_44KHz.wav
4	8	1	1	1	C	1	0	697	0	Ⴡ	cut_ui_stereo_44KHz.wav
4	9	3	4	2	I	1	0	1140	1	Ⴊ	cut_s_stereo_44KHz.wav
4	10	4	4	2	I	1	0	661	1	Ⴜ	cut_s_stereo_44KHz.wav
4	11	1	1	1	C	1	0	950	0	Ⴡ	cut_ui_stereo_44KHz.wav
4	12	2	2	1	C	1	0	843	0	Ⴂ	cut_oei_stereo_44KHz.wav
4	13	3	3	2	I	1	0	755	0	Ⴊ	cut_ei_stereo_44KHz.wav
4	14	4	3	2	I	1	0	393	0	Ⴜ	cut_ei_stereo_44KHz.wav
4	15	1	2	0	C	1	1	371	1	Ⴡ	cut_oei_stereo_44KHz.wav
4	16	2	1	0	C	2	0	656	0	Ⴂ	cut_ui_stereo_44KHz.wav
4	17	3	4	2	I	1	0	557	1	Ⴊ	cut_s_stereo_44KHz.wav
4	18	2	2	1	C	1	0	590	0	Ⴂ	cut_oei_stereo_44KHz.wav
4	19	4	4	2	I	1	0	520	1	Ⴜ	cut_s_stereo_44KHz.wav
4	20	1	2	0	C	1	1	437	1	Ⴡ	cut_oei_stereo_44KHz.wav
4	21	2	1	0	C	1	1	342	1	Ⴂ	cut_ui_stereo_44KHz.wav
4	22	3	3	2	I	2	0	553	0	Ⴊ	cut_ei_stereo_44KHz.wav
4	23	4	3	2	I	2	0	796	0	Ⴜ	cut_ei_stereo_44KHz.wav
4	24	1	1	1	C	2	1	799	1	Ⴡ	cut_ui_stereo_44KHz.wav
4	25	3	3	2	I	2	0	703	1	Ⴊ	cut_ei_stereo_44KHz.wav
4	26	1	1	1	C	2	1	909	1	Ⴡ	cut_ui_stereo_44KHz.wav
4	27	4	3	2	I	2	0	1003	1	Ⴜ	cut_ei_stereo_44KHz.wav
4	28	2	1	0	C	1	1	852	1	Ⴂ	cut_ui_stereo_44KHz.wav
4	29	4	4	2	I	2	0	929	1	Ⴜ	cut_s_stereo_44KHz.wav
4	30	3	4	2	I	1	0	574	1	Ⴊ	cut_s_stereo_44KHz.wav
4	31	2	2	1	C	2	1	938	1	Ⴂ	cut_oei_stereo_44KHz.wav
4	32	1	2	0	C	1	1	381	1	Ⴡ	cut_oei_stereo_44KHz.wav
4	33	3	4	2	I	1	0	587	1	Ⴊ	cut_s_stereo_44KHz.wav
4	34	2	1	0	C	1	1	1154	1	Ⴂ	cut_ui_stereo_44KHz.wav
4	35	4	4	2	I	1	0	712	0	Ⴜ	cut_s_stereo_44KHz.wav
4	36	1	1	1	C	2	1	1213	1	Ⴡ	cut_ui_stereo_44KHz.wav
4	37	4	3	2	I	1	0	644	1	Ⴜ	cut_ei_stereo_44KHz.wav
4	38	1	2	0	C	1	1	848	1	Ⴡ	cut_oei_stereo_44KHz.wav
4	39	2	2	1	C	1	0	439	0	Ⴂ	cut_oei_stereo_44KHz.wav
4	40	3	3	2	I	1	0	1010	1	Ⴊ	cut_ei_stereo_44KHz.wav
4	41	2	1	0	C	1	1	669	1	Ⴂ	cut_ui_stereo_44KHz.wav
4	42	4	4	2	I	1	0	743	0	Ⴜ	cut_s_stereo_44KHz.wav
4	43	3	3	2	I	1	0	690	0	Ⴊ	cut_ei_stereo_44KHz.wav
4	44	1	2	0	C	1	1	739	1	Ⴡ	cut_oei_stereo_44KHz.wav
4	45	3	4	2	I	1	0	1303	1	Ⴊ	cut_s_stereo_44KHz.wav
4	46	4	3	2	I	1	0	443	0	Ⴜ	cut_ei_stereo_44KHz.wav
4	47	2	2	1	C	2	1	1019	1	Ⴂ	cut_oei_stereo_44KHz.wav
4	48	1	1	1	C	1	0	579	0	Ⴡ	cut_ui_stereo_44KHz.wav
4	49	3	4	2	I	1	0	649	0	Ⴊ	cut_s_stereo_44KHz.wav
4	50	2	1	0	C	1	1	732	1	Ⴂ	cut_ui_stereo_44KHz.wav
4	51	1	2	0	C	1	1	656	1	Ⴡ	cut_oei_stereo_44KHz.wav
4	52	4	4	2	I	1	0	959	1	Ⴜ	cut_s_stereo_44KHz.wav
4	53	2	2	1	C	2	1	1230	1	Ⴂ	cut_oei_stereo_44KHz.wav
4	54	4	3	2	I	1	0	981	1	Ⴜ	cut_ei_stereo_44KHz.wav
4	55	3	3	2	I	2	0	851	1	Ⴊ	cut_ei_stereo_44KHz.wav
4	56	1	1	1	C	2	1	862	1	Ⴡ	cut_ui_stereo_44KHz.wav
4	57	3	4	2	I	1	0	733	1	Ⴊ	cut_s_stereo_44KHz.wav
4	58	4	4	2	I	2	0	903	1	Ⴜ	cut_s_stereo_44KHz.wav
4	59	2	1	0	C	1	1	1004	1	Ⴂ	cut_ui_stereo_44KHz.wav
4	60	1	2	0	C	1	1	710	1	Ⴡ	cut_oei_stereo_44KHz.wav
4	61	2	2	1	C	2	1	789	1	Ⴂ	cut_oei_stereo_44KHz.wav
4	62	3	3	2	I	2	0	959	1	Ⴊ	cut_ei_stereo_44KHz.wav
4	63	4	3	2	I	1	0	469	0	Ⴜ	cut_ei_stereo_44KHz.wav
4	64	1	1	1	C	2	1	977	1	Ⴡ	cut_ui_stereo_44KHz.wav
4	65	4	3	2	I	1	0	910	0	Ⴜ	cut_ei_stereo_44KHz.wav
4	66	2	1	0	C	1	1	693	1	Ⴂ	cut_ui_stereo_44KHz.wav
4	67	3	3	2	I	1	0	1104	0	Ⴊ	cut_ei_stereo_44KHz.wav
4	68	1	2	0	C	1	1	668	1	Ⴡ	cut_oei_stereo_44KHz.wav
4	69	3	4	2	I	1	0	794	0	Ⴊ	cut_s_stereo_44KHz.wav
4	70	4	4	2	I	1	0	734	0	Ⴜ	cut_s_stereo_44KHz.wav
4	71	2	2	1	C	1	0	699	0	Ⴂ	cut_oei_stereo_44KHz.wav
4	72	1	1	1	C	2	1	634	1	Ⴡ	cut_ui_stereo_44KHz.wav
4	73	2	1	0	C	1	1	800	1	Ⴂ	cut_ui_stereo_44KHz.wav
4	74	4	3	2	I	1	0	1090	1	Ⴜ	cut_ei_stereo_44KHz.wav
4	75	3	4	2	I	1	0	702	1	Ⴊ	cut_s_stereo_44KHz.wav
4	76	1	1	1	C	2	1	1213	1	Ⴡ	cut_ui_stereo_44KHz.wav
4	77	4	4	2	I	1	0	696	0	Ⴜ	cut_s_stereo_44KHz.wav
4	78	3	3	2	I	1	0	765	1	Ⴊ	cut_ei_stereo_44KHz.wav
4	79	2	2	1	C	1	0	1423	0	Ⴂ	cut_oei_stereo_44KHz.wav
4	80	1	2	0	C	1	1	640	1	Ⴡ	cut_oei_stereo_44KHz.wav
4	81	3	3	2	I	1	0	788	0	Ⴊ	cut_ei_stereo_44KHz.wav
4	82	1	1	1	C	1	0	727	0	Ⴡ	cut_ui_stereo_44KHz.wav
4	83	2	1	0	C	1	1	607	1	Ⴂ	cut_ui_stereo_44KHz.wav
4	84	4	4	2	I	1	0	578	1	Ⴜ	cut_s_stereo_44KHz.wav
4	85	3	4	2	I	1	0	617	1	Ⴊ	cut_s_stereo_44KHz.wav
4	86	4	3	2	I	1	0	824	1	Ⴜ	cut_ei_stereo_44KHz.wav
4	87	2	2	1	C	2	1	1348	1	Ⴂ	cut_oei_stereo_44KHz.wav
4	88	1	2	0	C	1	1	613	1	Ⴡ	cut_oei_stereo_44KHz.wav
4	89	2	2	1	C	2	1	890	1	Ⴂ	cut_oei_stereo_44KHz.wav
4	90	1	2	0	C	1	1	713	1	Ⴡ	cut_oei_stereo_44KHz.wav
4	91	4	3	2	I	1	0	638	0	Ⴜ	cut_ei_stereo_44KHz.wav
4	92	3	4	2	I	1	0	585	0	Ⴊ	cut_s_stereo_44KHz.wav
4	93	1	1	1	C	2	1	1061	1	Ⴡ	cut_ui_stereo_44KHz.wav
4	94	4	4	2	I	1	0	833	0	Ⴜ	cut_s_stereo_44KHz.wav
4	95	3	3	2	I	1	0	513	1	Ⴊ	cut_ei_stereo_44KHz.wav
4	96	2	1	0	C	1	1	472	1	Ⴂ	cut_ui_stereo_44KHz.wav
4	97	1	1	1	C	2	1	610	1	Ⴡ	cut_ui_stereo_44KHz.wav
4	98	2	2	1	C	2	1	797	1	Ⴂ	cut_oei_stereo_44KHz.wav
4	99	3	4	2	I	1	0	1002	0	Ⴊ	cut_s_stereo_44KHz.wav
4	100	4	3	2	I	1	0	590	0	Ⴜ	cut_ei_stereo_44KHz.wav
4	101	3	3	2	I	1	0	1542	1	Ⴊ	cut_ei_stereo_44KHz.wav
4	102	1	2	0	C	1	1	665	1	Ⴡ	cut_oei_stereo_44KHz.wav
4	103	4	4	2	I	1	0	713	1	Ⴜ	cut_s_stereo_44KHz.wav
4	104	2	1	0	C	1	1	723	1	Ⴂ	cut_ui_stereo_44KHz.wav
4	105	4	3	2	I	1	0	652	1	Ⴜ	cut_ei_stereo_44KHz.wav
4	106	1	2	0	C	1	1	593	1	Ⴡ	cut_oei_stereo_44KHz.wav
4	107	2	1	0	C	1	1	586	1	Ⴂ	cut_ui_stereo_44KHz.wav
4	108	3	3	2	I	1	0	920	0	Ⴊ	cut_ei_stereo_44KHz.wav
4	109	4	4	2	I	1	0	542	0	Ⴜ	cut_s_stereo_44KHz.wav
4	110	2	2	1	C	1	0	545	0	Ⴂ	cut_oei_stereo_44KHz.wav
4	111	1	1	1	C	2	1	670	1	Ⴡ	cut_ui_stereo_44KHz.wav
4	112	3	4	2	I	1	0	647	0	Ⴊ	cut_s_stereo_44KHz.wav
4	113	4	4	2	I	1	0	586	0	Ⴜ	cut_s_stereo_44KHz.wav
4	114	2	1	0	C	1	1	540	1	Ⴂ	cut_ui_stereo_44KHz.wav
4	115	3	3	2	I	1	0	712	0	Ⴊ	cut_ei_stereo_44KHz.wav
4	116	1	2	0	C	1	1	623	1	Ⴡ	cut_oei_stereo_44KHz.wav
4	117	3	4	2	I	1	0	670	0	Ⴊ	cut_s_stereo_44KHz.wav
4	118	2	2	1	C	1	0	558	0	Ⴂ	cut_oei_stereo_44KHz.wav
4	119	1	1	1	C	1	0	547	0	Ⴡ	cut_ui_stereo_44KHz.wav
4	120	4	3	2	I	1	0	652	1	Ⴜ	cut_ei_stereo_44KHz.wav
4	121	3	4	2	I	1	0	726	0	Ⴊ	cut_s_stereo_44KHz.wav
4	122	2	1	0	C	1	1	583	1	Ⴂ	cut_ui_stereo_44KHz.wav
4	123	4	3	2	I	1	0	802	1	Ⴜ	cut_ei_stereo_44KHz.wav
4	124	1	2	0	C	1	1	577	1	Ⴡ	cut_oei_stereo_44KHz.wav
4	125	3	3	2	I	1	0	1026	1	Ⴊ	cut_ei_stereo_44KHz.wav
4	126	4	4	2	I	1	0	602	0	Ⴜ	cut_s_stereo_44KHz.wav
4	127	2	2	1	C	1	0	513	0	Ⴂ	cut_oei_stereo_44KHz.wav
4	128	1	1	1	C	1	0	487	0	Ⴡ	cut_ui_stereo_44KHz.wav
4	129	4	3	2	I	1	0	795	0	Ⴜ	cut_ei_stereo_44KHz.wav
4	130	1	2	0	C	1	1	843	1	Ⴡ	cut_oei_stereo_44KHz.wav
4	131	2	2	1	C	2	1	948	1	Ⴂ	cut_oei_stereo_44KHz.wav
4	132	3	3	2	I	1	0	848	0	Ⴊ	cut_ei_stereo_44KHz.wav
4	133	2	1	0	C	1	1	1327	1	Ⴂ	cut_ui_stereo_44KHz.wav
4	134	4	4	2	I	1	0	711	1	Ⴜ	cut_s_stereo_44KHz.wav
4	135	3	4	2	I	1	0	411	1	Ⴊ	cut_s_stereo_44KHz.wav
4	136	1	1	1	C	1	0	737	0	Ⴡ	cut_ui_stereo_44KHz.wav
4	137	4	3	2	I	1	0	1121	0	Ⴜ	cut_ei_stereo_44KHz.wav
4	138	1	1	1	C	2	1	671	1	Ⴡ	cut_ui_stereo_44KHz.wav
4	139	2	2	1	C	2	1	1151	1	Ⴂ	cut_oei_stereo_44KHz.wav
4	140	3	3	2	I	1	0	735	0	Ⴊ	cut_ei_stereo_44KHz.wav
4	141	2	1	0	C	1	1	812	1	Ⴂ	cut_ui_stereo_44KHz.wav
4	142	3	4	2	I	1	0	1077	0	Ⴊ	cut_s_stereo_44KHz.wav
4	143	4	4	2	I	1	0	664	1	Ⴜ	cut_s_stereo_44KHz.wav
4	144	1	2	0	C	1	1	626	1	Ⴡ	cut_oei_stereo_44KHz.wav
4	145	4	4	2	I	1	0	699	0	Ⴜ	cut_s_stereo_44KHz.wav
4	146	3	3	2	I	1	0	435	0	Ⴊ	cut_ei_stereo_44KHz.wav
4	147	1	1	1	C	2	1	842	1	Ⴡ	cut_ui_stereo_44KHz.wav
4	148	2	1	0	C	1	1	827	1	Ⴂ	cut_ui_stereo_44KHz.wav
4	149	1	2	0	C	1	1	442	1	Ⴡ	cut_oei_stereo_44KHz.wav
4	150	2	2	1	C	2	1	982	1	Ⴂ	cut_oei_stereo_44KHz.wav
4	151	3	4	2	I	1	0	554	1	Ⴊ	cut_s_stereo_44KHz.wav
4	152	4	3	2	I	1	0	207	0	Ⴜ	cut_ei_stereo_44KHz.wav
4	153	1	1	1	C	1	0	407	0	Ⴡ	cut_ui_stereo_44KHz.wav
4	154	4	4	2	I	1	0	626	1	Ⴜ	cut_s_stereo_44KHz.wav
4	155	3	3	2	I	1	0	688	0	Ⴊ	cut_ei_stereo_44KHz.wav
4	156	2	1	0	C	1	1	948	1	Ⴂ	cut_ui_stereo_44KHz.wav
4	157	3	4	2	I	2	0	1024	1	Ⴊ	cut_s_stereo_44KHz.wav
4	158	1	2	0	C	1	1	832	1	Ⴡ	cut_oei_stereo_44KHz.wav
4	159	2	2	1	C	2	1	622	1	Ⴂ	cut_oei_stereo_44KHz.wav
4	160	4	3	2	I	1	0	767	0	Ⴜ	cut_ei_stereo_44KHz.wav
4	161	2	2	1	C	0	0	0	0	Ⴂ	cut_oei_stereo_44KHz.wav
4	162	4	4	2	I	1	0	616	0	Ⴜ	cut_s_stereo_44KHz.wav
4	163	1	1	1	C	2	1	972	1	Ⴡ	cut_ui_stereo_44KHz.wav
4	164	3	4	2	I	1	0	868	1	Ⴊ	cut_s_stereo_44KHz.wav
4	165	4	3	2	I	1	0	498	1	Ⴜ	cut_ei_stereo_44KHz.wav
4	166	2	1	0	C	1	1	1661	1	Ⴂ	cut_ui_stereo_44KHz.wav
4	167	1	2	0	C	1	1	709	1	Ⴡ	cut_oei_stereo_44KHz.wav
4	168	3	3	2	I	1	0	565	0	Ⴊ	cut_ei_stereo_44KHz.wav
4	169	2	1	0	C	1	1	658	1	Ⴂ	cut_ui_stereo_44KHz.wav
4	170	4	3	2	I	1	0	637	1	Ⴜ	cut_ei_stereo_44KHz.wav
4	171	3	3	2	I	1	0	667	0	Ⴊ	cut_ei_stereo_44KHz.wav
4	172	1	2	0	C	1	1	1074	1	Ⴡ	cut_oei_stereo_44KHz.wav
4	173	2	2	1	C	2	1	1193	1	Ⴂ	cut_oei_stereo_44KHz.wav
4	174	1	1	1	C	2	1	1002	1	Ⴡ	cut_ui_stereo_44KHz.wav
4	175	3	4	2	I	1	0	609	1	Ⴊ	cut_s_stereo_44KHz.wav
4	176	4	4	2	I	1	0	392	1	Ⴜ	cut_s_stereo_44KHz.wav
4	177	2	2	1	C	2	1	1787	1	Ⴂ	cut_oei_stereo_44KHz.wav
4	178	1	2	0	C	1	1	1050	1	Ⴡ	cut_oei_stereo_44KHz.wav
4	179	4	4	2	I	1	0	639	1	Ⴜ	cut_s_stereo_44KHz.wav
4	180	3	3	2	I	2	0	1261	1	Ⴊ	cut_ei_stereo_44KHz.wav
4	181	4	3	2	I	2	0	938	1	Ⴜ	cut_ei_stereo_44KHz.wav
4	182	1	1	1	C	1	0	702	0	Ⴡ	cut_ui_stereo_44KHz.wav
4	183	3	4	2	I	1	0	744	1	Ⴊ	cut_s_stereo_44KHz.wav
4	184	2	1	0	C	1	1	1803	1	Ⴂ	cut_ui_stereo_44KHz.wav
4	185	4	3	2	I	1	0	647	0	Ⴜ	cut_ei_stereo_44KHz.wav
4	186	3	3	2	I	1	0	437	1	Ⴊ	cut_ei_stereo_44KHz.wav
4	187	2	1	0	C	1	1	305	1	Ⴂ	cut_ui_stereo_44KHz.wav
4	188	1	1	1	C	1	0	677	0	Ⴡ	cut_ui_stereo_44KHz.wav
4	189	2	2	1	C	2	1	1202	1	Ⴂ	cut_oei_stereo_44KHz.wav
4	190	4	4	2	I	1	0	1425	1	Ⴜ	cut_s_stereo_44KHz.wav
4	191	3	4	2	I	1	0	385	1	Ⴊ	cut_s_stereo_44KHz.wav
4	192	1	2	0	C	1	1	1383	1	Ⴡ	cut_oei_stereo_44KHz.wav
4	193	2	2	1	C	2	1	687	1	Ⴂ	cut_oei_stereo_44KHz.wav
4	194	1	2	0	C	1	1	884	1	Ⴡ	cut_oei_stereo_44KHz.wav
4	195	3	4	2	I	1	0	600	0	Ⴊ	cut_s_stereo_44KHz.wav
4	196	4	3	2	I	1	0	550	1	Ⴜ	cut_ei_stereo_44KHz.wav
4	197	3	3	2	I	2	0	814	0	Ⴊ	cut_ei_stereo_44KHz.wav
4	198	2	1	0	C	1	1	931	1	Ⴂ	cut_ui_stereo_44KHz.wav
4	199	1	1	1	C	2	1	930	1	Ⴡ	cut_ui_stereo_44KHz.wav
4	200	4	4	2	I	1	0	648	0	Ⴜ	cut_s_stereo_44KHz.wav
