block	trial	Vstim	Astim	match	C/I	resp	result	RT	fb	V-file	A-file
LR

0	1	2	4	0	C	2	0	1131	0	poli_8sides 24_whiteLine3.jpg	Practice3_b26_cut1_stereo_44KHz.wav
0	2	1	1	1	C	2	1	956	1	poli_8sides 23_whiteLine3.jpg	Practice2_b27_cut2_stereo_44KHz.wav
0	3	2	3	1	C	1	0	540	0	poli_8sides 24_whiteLine3.jpg	Practice4_b26_stereo_44KHz.wav
0	4	1	2	0	C	2	0	940	0	poli_8sides 23_whiteLine3.jpg	Practice1_b27_cut1_stereo_44KHz.wav
0	5	2	4	0	C	1	1	772	1	poli_8sides 24_whiteLine3.jpg	Practice3_b26_cut1_stereo_44KHz.wav
0	6	1	1	1	C	1	0	1169	0	poli_8sides 23_whiteLine3.jpg	Practice2_b27_cut2_stereo_44KHz.wav
0	7	2	3	1	C	2	1	818	1	poli_8sides 24_whiteLine3.jpg	Practice4_b26_stereo_44KHz.wav
0	8	1	2	0	C	2	0	736	0	poli_8sides 23_whiteLine3.jpg	Practice1_b27_cut1_stereo_44KHz.wav
0	9	2	3	1	C	2	1	849	1	poli_8sides 24_whiteLine3.jpg	Practice4_b26_stereo_44KHz.wav
0	10	2	4	0	C	1	1	736	1	poli_8sides 24_whiteLine3.jpg	Practice3_b26_cut1_stereo_44KHz.wav
0	11	1	2	0	C	2	0	834	0	poli_8sides 23_whiteLine3.jpg	Practice1_b27_cut1_stereo_44KHz.wav
0	12	1	1	1	C	2	1	965	1	poli_8sides 23_whiteLine3.jpg	Practice2_b27_cut2_stereo_44KHz.wav
0	13	2	4	0	C	2	0	1311	0	poli_8sides 24_whiteLine3.jpg	Practice3_b26_cut1_stereo_44KHz.wav
0	14	1	1	1	C	2	1	1120	1	poli_8sides 23_whiteLine3.jpg	Practice2_b27_cut2_stereo_44KHz.wav
0	15	1	2	0	C	1	1	951	1	poli_8sides 23_whiteLine3.jpg	Practice1_b27_cut1_stereo_44KHz.wav
0	16	2	3	1	C	2	1	1014	1	poli_8sides 24_whiteLine3.jpg	Practice4_b26_stereo_44KHz.wav
0	17	2	4	0	C	1	1	885	1	poli_8sides 24_whiteLine3.jpg	Practice3_b26_cut1_stereo_44KHz.wav
0	18	1	2	0	C	1	1	433	1	poli_8sides 23_whiteLine3.jpg	Practice1_b27_cut1_stereo_44KHz.wav
0	19	1	1	1	C	2	1	953	1	poli_8sides 23_whiteLine3.jpg	Practice2_b27_cut2_stereo_44KHz.wav
0	20	2	3	1	C	1	0	498	0	poli_8sides 24_whiteLine3.jpg	Practice4_b26_stereo_44KHz.wav
0	21	2	4	0	C	1	1	823	1	poli_8sides 24_whiteLine3.jpg	Practice3_b26_cut1_stereo_44KHz.wav
0	22	2	3	1	C	2	1	754	1	poli_8sides 24_whiteLine3.jpg	Practice4_b26_stereo_44KHz.wav
0	23	1	2	0	C	1	1	1047	1	poli_8sides 23_whiteLine3.jpg	Practice1_b27_cut1_stereo_44KHz.wav
0	24	1	1	1	C	2	1	1081	1	poli_8sides 23_whiteLine3.jpg	Practice2_b27_cut2_stereo_44KHz.wav
0	25	1	1	1	C	2	1	1189	1	poli_8sides 23_whiteLine3.jpg	Practice2_b27_cut2_stereo_44KHz.wav
0	26	2	4	0	C	1	1	597	1	poli_8sides 24_whiteLine3.jpg	Practice3_b26_cut1_stereo_44KHz.wav
0	27	2	3	1	C	1	0	1437	0	poli_8sides 24_whiteLine3.jpg	Practice4_b26_stereo_44KHz.wav
0	28	1	2	0	C	1	1	1141	1	poli_8sides 23_whiteLine3.jpg	Practice1_b27_cut1_stereo_44KHz.wav
0	29	1	1	1	C	2	1	845	1	poli_8sides 23_whiteLine3.jpg	Practice2_b27_cut2_stereo_44KHz.wav
0	30	2	3	1	C	2	1	1489	1	poli_8sides 24_whiteLine3.jpg	Practice4_b26_stereo_44KHz.wav
avg_resp = 925
1	1	4	4	2	I	2	0	832	1	poli_8sides 7_whiteLine3.jpg	MediumShort_b16_cut3_MS_stereo_44KHz.wav
1	2	2	2	1	C	2	1	647	1	poli_8sides 4_whiteLine3.jpg	MediumShort_b10_cut1_MS_stereo_44KHz.wav
1	3	3	4	2	I	2	0	356	1	poli_8sides 8_whiteLine3.jpg	MediumShort_b16_cut3_MS_stereo_44KHz.wav
1	4	1	1	1	C	2	1	535	1	poli_8sides 15_whiteLine3.jpg	MediumShort_e16_cut1_stereo_44KHz.wav
1	5	4	3	2	I	2	0	526	1	poli_8sides 7_whiteLine3.jpg	MediumShort_e22_cut1_stereo_44KHz.wav
1	6	2	1	0	C	2	0	373	0	poli_8sides 4_whiteLine3.jpg	MediumShort_e16_cut1_stereo_44KHz.wav
1	7	1	2	0	C	2	0	779	0	poli_8sides 15_whiteLine3.jpg	MediumShort_b10_cut1_MS_stereo_44KHz.wav
1	8	3	3	2	I	2	0	589	0	poli_8sides 8_whiteLine3.jpg	MediumShort_e22_cut1_stereo_44KHz.wav
1	9	4	3	2	I	1	0	489	0	poli_8sides 7_whiteLine3.jpg	MediumShort_e22_cut1_stereo_44KHz.wav
1	10	2	2	1	C	2	1	420	1	poli_8sides 4_whiteLine3.jpg	MediumShort_b10_cut1_MS_stereo_44KHz.wav
1	11	3	4	2	I	2	0	768	1	poli_8sides 8_whiteLine3.jpg	MediumShort_b16_cut3_MS_stereo_44KHz.wav
1	12	1	1	1	C	1	0	1042	0	poli_8sides 15_whiteLine3.jpg	MediumShort_e16_cut1_stereo_44KHz.wav
1	13	4	4	2	I	1	0	415	0	poli_8sides 7_whiteLine3.jpg	MediumShort_b16_cut3_MS_stereo_44KHz.wav
1	14	2	1	0	C	1	1	289	1	poli_8sides 4_whiteLine3.jpg	MediumShort_e16_cut1_stereo_44KHz.wav
1	15	1	2	0	C	2	0	549	0	poli_8sides 15_whiteLine3.jpg	MediumShort_b10_cut1_MS_stereo_44KHz.wav
1	16	3	3	2	I	2	0	607	1	poli_8sides 8_whiteLine3.jpg	MediumShort_e22_cut1_stereo_44KHz.wav
1	17	4	4	2	I	2	0	403	0	poli_8sides 7_whiteLine3.jpg	MediumShort_b16_cut3_MS_stereo_44KHz.wav
1	18	3	3	2	I	1	0	354	1	poli_8sides 8_whiteLine3.jpg	MediumShort_e22_cut1_stereo_44KHz.wav
1	19	1	2	0	C	2	0	488	0	poli_8sides 15_whiteLine3.jpg	MediumShort_b10_cut1_MS_stereo_44KHz.wav
1	20	2	2	1	C	1	0	386	0	poli_8sides 4_whiteLine3.jpg	MediumShort_b10_cut1_MS_stereo_44KHz.wav
1	21	3	4	2	I	2	0	383	0	poli_8sides 8_whiteLine3.jpg	MediumShort_b16_cut3_MS_stereo_44KHz.wav
1	22	1	1	1	C	1	0	314	0	poli_8sides 15_whiteLine3.jpg	MediumShort_e16_cut1_stereo_44KHz.wav
1	23	2	1	0	C	1	1	371	1	poli_8sides 4_whiteLine3.jpg	MediumShort_e16_cut1_stereo_44KHz.wav
1	24	4	3	2	I	2	0	515	0	poli_8sides 7_whiteLine3.jpg	MediumShort_e22_cut1_stereo_44KHz.wav
1	25	1	1	1	C	1	0	464	0	poli_8sides 15_whiteLine3.jpg	MediumShort_e16_cut1_stereo_44KHz.wav
1	26	3	3	2	I	1	0	405	1	poli_8sides 8_whiteLine3.jpg	MediumShort_e22_cut1_stereo_44KHz.wav
1	27	4	3	2	I	1	0	390	0	poli_8sides 7_whiteLine3.jpg	MediumShort_e22_cut1_stereo_44KHz.wav
1	28	2	1	0	C	2	0	424	0	poli_8sides 4_whiteLine3.jpg	MediumShort_e16_cut1_stereo_44KHz.wav
1	29	1	2	0	C	1	1	265	1	poli_8sides 15_whiteLine3.jpg	MediumShort_b10_cut1_MS_stereo_44KHz.wav
1	30	2	2	1	C	1	0	393	0	poli_8sides 4_whiteLine3.jpg	MediumShort_b10_cut1_MS_stereo_44KHz.wav
1	31	4	4	2	I	2	0	456	0	poli_8sides 7_whiteLine3.jpg	MediumShort_b16_cut3_MS_stereo_44KHz.wav
1	32	3	4	2	I	1	0	312	1	poli_8sides 8_whiteLine3.jpg	MediumShort_b16_cut3_MS_stereo_44KHz.wav
1	33	4	3	2	I	2	0	415	1	poli_8sides 7_whiteLine3.jpg	MediumShort_e22_cut1_stereo_44KHz.wav
1	34	3	3	2	I	2	0	342	0	poli_8sides 8_whiteLine3.jpg	MediumShort_e22_cut1_stereo_44KHz.wav
1	35	1	1	1	C	1	0	353	0	poli_8sides 15_whiteLine3.jpg	MediumShort_e16_cut1_stereo_44KHz.wav
1	36	2	1	0	C	1	1	584	1	poli_8sides 4_whiteLine3.jpg	MediumShort_e16_cut1_stereo_44KHz.wav
1	37	3	4	2	I	2	0	757	0	poli_8sides 8_whiteLine3.jpg	MediumShort_b16_cut3_MS_stereo_44KHz.wav
1	38	1	2	0	C	2	0	1000	0	poli_8sides 15_whiteLine3.jpg	MediumShort_b10_cut1_MS_stereo_44KHz.wav
1	39	4	4	2	I	1	0	514	1	poli_8sides 7_whiteLine3.jpg	MediumShort_b16_cut3_MS_stereo_44KHz.wav
1	40	2	2	1	C	1	0	367	0	poli_8sides 4_whiteLine3.jpg	MediumShort_b10_cut1_MS_stereo_44KHz.wav
1	41	3	3	2	I	2	0	323	1	poli_8sides 8_whiteLine3.jpg	MediumShort_e22_cut1_stereo_44KHz.wav
1	42	1	1	1	C	1	0	412	0	poli_8sides 15_whiteLine3.jpg	MediumShort_e16_cut1_stereo_44KHz.wav
1	43	4	3	2	I	1	0	759	1	poli_8sides 7_whiteLine3.jpg	MediumShort_e22_cut1_stereo_44KHz.wav
1	44	2	1	0	C	1	1	696	1	poli_8sides 4_whiteLine3.jpg	MediumShort_e16_cut1_stereo_44KHz.wav
1	45	3	4	2	I	1	0	1023	0	poli_8sides 8_whiteLine3.jpg	MediumShort_b16_cut3_MS_stereo_44KHz.wav
1	46	2	2	1	C	2	1	846	1	poli_8sides 4_whiteLine3.jpg	MediumShort_b10_cut1_MS_stereo_44KHz.wav
1	47	4	4	2	I	2	0	416	0	poli_8sides 7_whiteLine3.jpg	MediumShort_b16_cut3_MS_stereo_44KHz.wav
1	48	1	2	0	C	1	1	689	1	poli_8sides 15_whiteLine3.jpg	MediumShort_b10_cut1_MS_stereo_44KHz.wav
1	49	2	1	0	C	1	1	663	1	poli_8sides 4_whiteLine3.jpg	MediumShort_e16_cut1_stereo_44KHz.wav
1	50	1	1	1	C	2	1	675	1	poli_8sides 15_whiteLine3.jpg	MediumShort_e16_cut1_stereo_44KHz.wav
1	51	4	4	2	I	1	0	544	0	poli_8sides 7_whiteLine3.jpg	MediumShort_b16_cut3_MS_stereo_44KHz.wav
1	52	3	4	2	I	2	0	571	1	poli_8sides 8_whiteLine3.jpg	MediumShort_b16_cut3_MS_stereo_44KHz.wav
1	53	2	2	1	C	1	0	754	0	poli_8sides 4_whiteLine3.jpg	MediumShort_b10_cut1_MS_stereo_44KHz.wav
1	54	1	2	0	C	1	1	631	1	poli_8sides 15_whiteLine3.jpg	MediumShort_b10_cut1_MS_stereo_44KHz.wav
1	55	4	3	2	I	2	0	843	1	poli_8sides 7_whiteLine3.jpg	MediumShort_e22_cut1_stereo_44KHz.wav
1	56	3	3	2	I	2	0	593	1	poli_8sides 8_whiteLine3.jpg	MediumShort_e22_cut1_stereo_44KHz.wav
1	57	1	1	1	C	1	0	814	0	poli_8sides 15_whiteLine3.jpg	MediumShort_e16_cut1_stereo_44KHz.wav
1	58	2	2	1	C	1	0	999	0	poli_8sides 4_whiteLine3.jpg	MediumShort_b10_cut1_MS_stereo_44KHz.wav
1	59	4	3	2	I	1	0	628	1	poli_8sides 7_whiteLine3.jpg	MediumShort_e22_cut1_stereo_44KHz.wav
1	60	3	4	2	I	1	0	644	1	poli_8sides 8_whiteLine3.jpg	MediumShort_b16_cut3_MS_stereo_44KHz.wav
1	61	1	2	0	C	1	1	822	1	poli_8sides 15_whiteLine3.jpg	MediumShort_b10_cut1_MS_stereo_44KHz.wav
1	62	4	4	2	I	2	0	690	1	poli_8sides 7_whiteLine3.jpg	MediumShort_b16_cut3_MS_stereo_44KHz.wav
1	63	2	1	0	C	2	0	835	0	poli_8sides 4_whiteLine3.jpg	MediumShort_e16_cut1_stereo_44KHz.wav
1	64	3	3	2	I	1	0	482	0	poli_8sides 8_whiteLine3.jpg	MediumShort_e22_cut1_stereo_44KHz.wav
1	65	2	1	0	C	1	1	609	1	poli_8sides 4_whiteLine3.jpg	MediumShort_e16_cut1_stereo_44KHz.wav
1	66	3	4	2	I	1	0	874	0	poli_8sides 8_whiteLine3.jpg	MediumShort_b16_cut3_MS_stereo_44KHz.wav
1	67	4	3	2	I	2	0	738	1	poli_8sides 7_whiteLine3.jpg	MediumShort_e22_cut1_stereo_44KHz.wav
1	68	1	2	0	C	2	0	416	0	poli_8sides 15_whiteLine3.jpg	MediumShort_b10_cut1_MS_stereo_44KHz.wav
1	69	2	2	1	C	1	0	417	0	poli_8sides 4_whiteLine3.jpg	MediumShort_b10_cut1_MS_stereo_44KHz.wav
1	70	1	1	1	C	1	0	323	0	poli_8sides 15_whiteLine3.jpg	MediumShort_e16_cut1_stereo_44KHz.wav
1	71	3	3	2	I	1	0	325	1	poli_8sides 8_whiteLine3.jpg	MediumShort_e22_cut1_stereo_44KHz.wav
1	72	4	4	2	I	1	0	398	1	poli_8sides 7_whiteLine3.jpg	MediumShort_b16_cut3_MS_stereo_44KHz.wav
1	73	3	4	2	I	2	0	383	0	poli_8sides 8_whiteLine3.jpg	MediumShort_b16_cut3_MS_stereo_44KHz.wav
1	74	4	4	2	I	2	0	406	0	poli_8sides 7_whiteLine3.jpg	MediumShort_b16_cut3_MS_stereo_44KHz.wav
1	75	2	2	1	C	1	0	288	0	poli_8sides 4_whiteLine3.jpg	MediumShort_b10_cut1_MS_stereo_44KHz.wav
1	76	1	1	1	C	2	1	692	1	poli_8sides 15_whiteLine3.jpg	MediumShort_e16_cut1_stereo_44KHz.wav
1	77	2	1	0	C	2	0	859	0	poli_8sides 4_whiteLine3.jpg	MediumShort_e16_cut1_stereo_44KHz.wav
1	78	3	3	2	I	2	0	526	0	poli_8sides 8_whiteLine3.jpg	MediumShort_e22_cut1_stereo_44KHz.wav
1	79	4	3	2	I	1	0	258	0	poli_8sides 7_whiteLine3.jpg	MediumShort_e22_cut1_stereo_44KHz.wav
1	80	1	2	0	C	1	1	592	1	poli_8sides 15_whiteLine3.jpg	MediumShort_b10_cut1_MS_stereo_44KHz.wav
1	81	3	4	2	I	1	0	1096	1	poli_8sides 8_whiteLine3.jpg	MediumShort_b16_cut3_MS_stereo_44KHz.wav
1	82	4	4	2	I	1	0	402	1	poli_8sides 7_whiteLine3.jpg	MediumShort_b16_cut3_MS_stereo_44KHz.wav
1	83	1	2	0	C	2	0	360	0	poli_8sides 15_whiteLine3.jpg	MediumShort_b10_cut1_MS_stereo_44KHz.wav
1	84	2	2	1	C	1	0	490	0	poli_8sides 4_whiteLine3.jpg	MediumShort_b10_cut1_MS_stereo_44KHz.wav
1	85	1	1	1	C	2	1	817	1	poli_8sides 15_whiteLine3.jpg	MediumShort_e16_cut1_stereo_44KHz.wav
1	86	2	1	0	C	2	0	367	0	poli_8sides 4_whiteLine3.jpg	MediumShort_e16_cut1_stereo_44KHz.wav
1	87	3	3	2	I	2	0	383	0	poli_8sides 8_whiteLine3.jpg	MediumShort_e22_cut1_stereo_44KHz.wav
1	88	4	3	2	I	1	0	620	0	poli_8sides 7_whiteLine3.jpg	MediumShort_e22_cut1_stereo_44KHz.wav
1	89	3	4	2	I	2	0	762	0	poli_8sides 8_whiteLine3.jpg	MediumShort_b16_cut3_MS_stereo_44KHz.wav
1	90	1	1	1	C	2	1	430	1	poli_8sides 15_whiteLine3.jpg	MediumShort_e16_cut1_stereo_44KHz.wav
1	91	2	2	1	C	1	0	520	0	poli_8sides 4_whiteLine3.jpg	MediumShort_b10_cut1_MS_stereo_44KHz.wav
1	92	4	3	2	I	1	0	263	0	poli_8sides 7_whiteLine3.jpg	MediumShort_e22_cut1_stereo_44KHz.wav
1	93	1	2	0	C	2	0	403	0	poli_8sides 15_whiteLine3.jpg	MediumShort_b10_cut1_MS_stereo_44KHz.wav
1	94	2	1	0	C	2	0	429	0	poli_8sides 4_whiteLine3.jpg	MediumShort_e16_cut1_stereo_44KHz.wav
1	95	4	4	2	I	1	0	517	1	poli_8sides 7_whiteLine3.jpg	MediumShort_b16_cut3_MS_stereo_44KHz.wav
1	96	3	3	2	I	2	0	1048	1	poli_8sides 8_whiteLine3.jpg	MediumShort_e22_cut1_stereo_44KHz.wav
1	97	2	2	1	C	2	1	731	1	poli_8sides 4_whiteLine3.jpg	MediumShort_b10_cut1_MS_stereo_44KHz.wav
1	98	3	3	2	I	2	0	587	1	poli_8sides 8_whiteLine3.jpg	MediumShort_e22_cut1_stereo_44KHz.wav
1	99	1	1	1	C	1	0	701	0	poli_8sides 15_whiteLine3.jpg	MediumShort_e16_cut1_stereo_44KHz.wav
1	100	4	3	2	I	1	0	523	1	poli_8sides 7_whiteLine3.jpg	MediumShort_e22_cut1_stereo_44KHz.wav
1	101	1	2	0	C	1	1	370	1	poli_8sides 15_whiteLine3.jpg	MediumShort_b10_cut1_MS_stereo_44KHz.wav
1	102	4	4	2	I	1	0	466	0	poli_8sides 7_whiteLine3.jpg	MediumShort_b16_cut3_MS_stereo_44KHz.wav
1	103	3	4	2	I	1	0	690	0	poli_8sides 8_whiteLine3.jpg	MediumShort_b16_cut3_MS_stereo_44KHz.wav
1	104	2	1	0	C	2	0	449	0	poli_8sides 4_whiteLine3.jpg	MediumShort_e16_cut1_stereo_44KHz.wav
1	105	4	3	2	I	1	0	421	0	poli_8sides 7_whiteLine3.jpg	MediumShort_e22_cut1_stereo_44KHz.wav
1	106	3	3	2	I	1	0	348	0	poli_8sides 8_whiteLine3.jpg	MediumShort_e22_cut1_stereo_44KHz.wav
1	107	2	2	1	C	1	0	471	0	poli_8sides 4_whiteLine3.jpg	MediumShort_b10_cut1_MS_stereo_44KHz.wav
1	108	1	1	1	C	1	0	483	0	poli_8sides 15_whiteLine3.jpg	MediumShort_e16_cut1_stereo_44KHz.wav
1	109	3	4	2	I	2	0	509	0	poli_8sides 8_whiteLine3.jpg	MediumShort_b16_cut3_MS_stereo_44KHz.wav
1	110	1	2	0	C	1	1	429	1	poli_8sides 15_whiteLine3.jpg	MediumShort_b10_cut1_MS_stereo_44KHz.wav
1	111	4	4	2	I	2	0	929	1	poli_8sides 7_whiteLine3.jpg	MediumShort_b16_cut3_MS_stereo_44KHz.wav
1	112	2	1	0	C	1	1	978	1	poli_8sides 4_whiteLine3.jpg	MediumShort_e16_cut1_stereo_44KHz.wav
1	113	3	3	2	I	1	0	848	1	poli_8sides 8_whiteLine3.jpg	MediumShort_e22_cut1_stereo_44KHz.wav
1	114	1	2	0	C	1	1	712	1	poli_8sides 15_whiteLine3.jpg	MediumShort_b10_cut1_MS_stereo_44KHz.wav
1	115	2	2	1	C	1	0	808	0	poli_8sides 4_whiteLine3.jpg	MediumShort_b10_cut1_MS_stereo_44KHz.wav
1	116	4	4	2	I	1	0	646	1	poli_8sides 7_whiteLine3.jpg	MediumShort_b16_cut3_MS_stereo_44KHz.wav
1	117	1	1	1	C	1	0	1001	0	poli_8sides 15_whiteLine3.jpg	MediumShort_e16_cut1_stereo_44KHz.wav
1	118	3	4	2	I	1	0	948	1	poli_8sides 8_whiteLine3.jpg	MediumShort_b16_cut3_MS_stereo_44KHz.wav
1	119	2	1	0	C	2	0	713	0	poli_8sides 4_whiteLine3.jpg	MediumShort_e16_cut1_stereo_44KHz.wav
1	120	4	3	2	I	1	0	672	0	poli_8sides 7_whiteLine3.jpg	MediumShort_e22_cut1_stereo_44KHz.wav
1	121	1	1	1	C	1	0	813	0	poli_8sides 15_whiteLine3.jpg	MediumShort_e16_cut1_stereo_44KHz.wav
1	122	3	4	2	I	1	0	799	0	poli_8sides 8_whiteLine3.jpg	MediumShort_b16_cut3_MS_stereo_44KHz.wav
1	123	2	2	1	C	1	0	1005	0	poli_8sides 4_whiteLine3.jpg	MediumShort_b10_cut1_MS_stereo_44KHz.wav
1	124	4	4	2	I	1	0	435	0	poli_8sides 7_whiteLine3.jpg	MediumShort_b16_cut3_MS_stereo_44KHz.wav
1	125	2	1	0	C	1	1	899	1	poli_8sides 4_whiteLine3.jpg	MediumShort_e16_cut1_stereo_44KHz.wav
1	126	3	3	2	I	1	0	720	1	poli_8sides 8_whiteLine3.jpg	MediumShort_e22_cut1_stereo_44KHz.wav
1	127	1	2	0	C	1	1	1066	1	poli_8sides 15_whiteLine3.jpg	MediumShort_b10_cut1_MS_stereo_44KHz.wav
1	128	4	3	2	I	2	0	607	1	poli_8sides 7_whiteLine3.jpg	MediumShort_e22_cut1_stereo_44KHz.wav
1	129	2	2	1	C	2	1	862	1	poli_8sides 4_whiteLine3.jpg	MediumShort_b10_cut1_MS_stereo_44KHz.wav
1	130	4	4	2	I	2	0	546	0	poli_8sides 7_whiteLine3.jpg	MediumShort_b16_cut3_MS_stereo_44KHz.wav
1	131	3	3	2	I	1	0	695	1	poli_8sides 8_whiteLine3.jpg	MediumShort_e22_cut1_stereo_44KHz.wav
1	132	1	2	0	C	1	1	840	1	poli_8sides 15_whiteLine3.jpg	MediumShort_b10_cut1_MS_stereo_44KHz.wav
1	133	2	1	0	C	2	0	919	0	poli_8sides 4_whiteLine3.jpg	MediumShort_e16_cut1_stereo_44KHz.wav
1	134	4	3	2	I	2	0	1110	0	poli_8sides 7_whiteLine3.jpg	MediumShort_e22_cut1_stereo_44KHz.wav
1	135	1	1	1	C	1	0	761	0	poli_8sides 15_whiteLine3.jpg	MediumShort_e16_cut1_stereo_44KHz.wav
1	136	3	4	2	I	1	0	855	1	poli_8sides 8_whiteLine3.jpg	MediumShort_b16_cut3_MS_stereo_44KHz.wav
1	137	1	2	0	C	2	0	757	0	poli_8sides 15_whiteLine3.jpg	MediumShort_b10_cut1_MS_stereo_44KHz.wav
1	138	3	4	2	I	1	0	458	1	poli_8sides 8_whiteLine3.jpg	MediumShort_b16_cut3_MS_stereo_44KHz.wav
1	139	4	3	2	I	1	0	1034	1	poli_8sides 7_whiteLine3.jpg	MediumShort_e22_cut1_stereo_44KHz.wav
1	140	2	2	1	C	2	1	885	1	poli_8sides 4_whiteLine3.jpg	MediumShort_b10_cut1_MS_stereo_44KHz.wav
1	141	1	1	1	C	1	0	713	0	poli_8sides 15_whiteLine3.jpg	MediumShort_e16_cut1_stereo_44KHz.wav
1	142	4	4	2	I	2	0	1244	0	poli_8sides 7_whiteLine3.jpg	MediumShort_b16_cut3_MS_stereo_44KHz.wav
1	143	2	1	0	C	1	1	1616	1	poli_8sides 4_whiteLine3.jpg	MediumShort_e16_cut1_stereo_44KHz.wav
1	144	3	3	2	I	1	0	874	1	poli_8sides 8_whiteLine3.jpg	MediumShort_e22_cut1_stereo_44KHz.wav
1	145	1	1	1	C	1	0	1031	0	poli_8sides 15_whiteLine3.jpg	MediumShort_e16_cut1_stereo_44KHz.wav
1	146	3	3	2	I	1	0	700	1	poli_8sides 8_whiteLine3.jpg	MediumShort_e22_cut1_stereo_44KHz.wav
1	147	2	2	1	C	1	0	923	0	poli_8sides 4_whiteLine3.jpg	MediumShort_b10_cut1_MS_stereo_44KHz.wav
1	148	4	3	2	I	2	0	992	1	poli_8sides 7_whiteLine3.jpg	MediumShort_e22_cut1_stereo_44KHz.wav
1	149	3	4	2	I	2	0	1058	0	poli_8sides 8_whiteLine3.jpg	MediumShort_b16_cut3_MS_stereo_44KHz.wav
1	150	4	4	2	I	1	0	1040	0	poli_8sides 7_whiteLine3.jpg	MediumShort_b16_cut3_MS_stereo_44KHz.wav
1	151	2	1	0	C	1	1	1121	1	poli_8sides 4_whiteLine3.jpg	MediumShort_e16_cut1_stereo_44KHz.wav
1	152	1	2	0	C	2	0	1073	0	poli_8sides 15_whiteLine3.jpg	MediumShort_b10_cut1_MS_stereo_44KHz.wav
1	153	3	3	2	I	1	0	685	0	poli_8sides 8_whiteLine3.jpg	MediumShort_e22_cut1_stereo_44KHz.wav
1	154	2	1	0	C	1	1	937	1	poli_8sides 4_whiteLine3.jpg	MediumShort_e16_cut1_stereo_44KHz.wav
1	155	4	4	2	I	1	0	1039	0	poli_8sides 7_whiteLine3.jpg	MediumShort_b16_cut3_MS_stereo_44KHz.wav
1	156	1	1	1	C	1	0	387	0	poli_8sides 15_whiteLine3.jpg	MediumShort_e16_cut1_stereo_44KHz.wav
1	157	3	4	2	I	1	0	963	0	poli_8sides 8_whiteLine3.jpg	MediumShort_b16_cut3_MS_stereo_44KHz.wav
1	158	2	2	1	C	2	1	787	1	poli_8sides 4_whiteLine3.jpg	MediumShort_b10_cut1_MS_stereo_44KHz.wav
1	159	1	2	0	C	2	0	789	0	poli_8sides 15_whiteLine3.jpg	MediumShort_b10_cut1_MS_stereo_44KHz.wav
1	160	4	3	2	I	1	0	671	1	poli_8sides 7_whiteLine3.jpg	MediumShort_e22_cut1_stereo_44KHz.wav
1	161	1	2	0	C	2	0	989	0	poli_8sides 15_whiteLine3.jpg	MediumShort_b10_cut1_MS_stereo_44KHz.wav
1	162	4	4	2	I	1	0	822	1	poli_8sides 7_whiteLine3.jpg	MediumShort_b16_cut3_MS_stereo_44KHz.wav
1	163	2	1	0	C	1	1	851	1	poli_8sides 4_whiteLine3.jpg	MediumShort_e16_cut1_stereo_44KHz.wav
1	164	3	3	2	I	1	0	729	1	poli_8sides 8_whiteLine3.jpg	MediumShort_e22_cut1_stereo_44KHz.wav
1	165	4	3	2	I	1	0	644	1	poli_8sides 7_whiteLine3.jpg	MediumShort_e22_cut1_stereo_44KHz.wav
1	166	2	2	1	C	1	0	431	0	poli_8sides 4_whiteLine3.jpg	MediumShort_b10_cut1_MS_stereo_44KHz.wav
1	167	3	4	2	I	2	0	903	0	poli_8sides 8_whiteLine3.jpg	MediumShort_b16_cut3_MS_stereo_44KHz.wav
1	168	1	1	1	C	2	1	1054	1	poli_8sides 15_whiteLine3.jpg	MediumShort_e16_cut1_stereo_44KHz.wav
1	169	2	2	1	C	2	1	1028	1	poli_8sides 4_whiteLine3.jpg	MediumShort_b10_cut1_MS_stereo_44KHz.wav
1	170	4	3	2	I	1	0	827	1	poli_8sides 7_whiteLine3.jpg	MediumShort_e22_cut1_stereo_44KHz.wav
1	171	1	1	1	C	2	1	891	1	poli_8sides 15_whiteLine3.jpg	MediumShort_e16_cut1_stereo_44KHz.wav
1	172	3	4	2	I	2	0	941	0	poli_8sides 8_whiteLine3.jpg	MediumShort_b16_cut3_MS_stereo_44KHz.wav
1	173	1	2	0	C	2	0	791	0	poli_8sides 15_whiteLine3.jpg	MediumShort_b10_cut1_MS_stereo_44KHz.wav
1	174	2	1	0	C	1	1	757	1	poli_8sides 4_whiteLine3.jpg	MediumShort_e16_cut1_stereo_44KHz.wav
1	175	4	4	2	I	1	0	1038	1	poli_8sides 7_whiteLine3.jpg	MediumShort_b16_cut3_MS_stereo_44KHz.wav
1	176	3	3	2	I	0	0	0	0	poli_8sides 8_whiteLine3.jpg	MediumShort_e22_cut1_stereo_44KHz.wav
1	177	4	3	2	I	1	0	558	1	poli_8sides 7_whiteLine3.jpg	MediumShort_e22_cut1_stereo_44KHz.wav
1	178	2	2	1	C	1	0	589	0	poli_8sides 4_whiteLine3.jpg	MediumShort_b10_cut1_MS_stereo_44KHz.wav
1	179	1	2	0	C	1	1	1053	1	poli_8sides 15_whiteLine3.jpg	MediumShort_b10_cut1_MS_stereo_44KHz.wav
1	180	3	4	2	I	1	0	778	0	poli_8sides 8_whiteLine3.jpg	MediumShort_b16_cut3_MS_stereo_44KHz.wav
1	181	4	4	2	I	2	0	966	0	poli_8sides 7_whiteLine3.jpg	MediumShort_b16_cut3_MS_stereo_44KHz.wav
1	182	1	1	1	C	2	1	1437	1	poli_8sides 15_whiteLine3.jpg	MediumShort_e16_cut1_stereo_44KHz.wav
1	183	2	1	0	C	1	1	539	1	poli_8sides 4_whiteLine3.jpg	MediumShort_e16_cut1_stereo_44KHz.wav
1	184	3	3	2	I	1	0	681	0	poli_8sides 8_whiteLine3.jpg	MediumShort_e22_cut1_stereo_44KHz.wav
1	185	2	1	0	C	1	1	647	1	poli_8sides 4_whiteLine3.jpg	MediumShort_e16_cut1_stereo_44KHz.wav
1	186	1	1	1	C	2	1	691	1	poli_8sides 15_whiteLine3.jpg	MediumShort_e16_cut1_stereo_44KHz.wav
1	187	4	3	2	I	1	0	568	0	poli_8sides 7_whiteLine3.jpg	MediumShort_e22_cut1_stereo_44KHz.wav
1	188	3	4	2	I	2	0	734	0	poli_8sides 8_whiteLine3.jpg	MediumShort_b16_cut3_MS_stereo_44KHz.wav
1	189	4	4	2	I	2	0	742	1	poli_8sides 7_whiteLine3.jpg	MediumShort_b16_cut3_MS_stereo_44KHz.wav
1	190	3	3	2	I	1	0	358	1	poli_8sides 8_whiteLine3.jpg	MediumShort_e22_cut1_stereo_44KHz.wav
1	191	2	2	1	C	1	0	621	0	poli_8sides 4_whiteLine3.jpg	MediumShort_b10_cut1_MS_stereo_44KHz.wav
1	192	1	2	0	C	1	1	413	1	poli_8sides 15_whiteLine3.jpg	MediumShort_b10_cut1_MS_stereo_44KHz.wav
1	193	3	4	2	I	2	0	985	0	poli_8sides 8_whiteLine3.jpg	MediumShort_b16_cut3_MS_stereo_44KHz.wav
1	194	2	1	0	C	1	1	720	1	poli_8sides 4_whiteLine3.jpg	MediumShort_e16_cut1_stereo_44KHz.wav
1	195	1	2	0	C	1	1	670	1	poli_8sides 15_whiteLine3.jpg	MediumShort_b10_cut1_MS_stereo_44KHz.wav
1	196	4	3	2	I	1	0	662	0	poli_8sides 7_whiteLine3.jpg	MediumShort_e22_cut1_stereo_44KHz.wav
1	197	2	2	1	C	1	0	603	0	poli_8sides 4_whiteLine3.jpg	MediumShort_b10_cut1_MS_stereo_44KHz.wav
1	198	4	4	2	I	1	0	738	0	poli_8sides 7_whiteLine3.jpg	MediumShort_b16_cut3_MS_stereo_44KHz.wav
1	199	3	3	2	I	1	0	527	0	poli_8sides 8_whiteLine3.jpg	MediumShort_e22_cut1_stereo_44KHz.wav
1	200	1	1	1	C	2	1	1094	1	poli_8sides 15_whiteLine3.jpg	MediumShort_e16_cut1_stereo_44KHz.wav
2	1	3	4	2	I	0	0	0	0	poli_8sides 11_whiteLine3.jpg	Short_b20_cut1_stereo_44KHz.wav
2	2	1	2	0	C	1	1	685	1	poli_8sides 18_whiteLine3.jpg	Short_b23_cut1_stereo_44KHz.wav
2	3	2	2	1	C	1	0	866	0	poli_8sides 13_whiteLine3.jpg	Short_b23_cut1_stereo_44KHz.wav
2	4	4	3	2	I	2	0	900	1	poli_8sides 2_whiteLine3.jpg	Short_b22_cut1_stereo_44KHz.wav
2	5	2	1	0	C	1	1	526	1	poli_8sides 13_whiteLine3.jpg	Short_b09_cut1_stereo_44KHz.wav
2	6	3	3	2	I	1	0	332	0	poli_8sides 11_whiteLine3.jpg	Short_b22_cut1_stereo_44KHz.wav
2	7	1	1	1	C	1	0	250	0	poli_8sides 18_whiteLine3.jpg	Short_b09_cut1_stereo_44KHz.wav
2	8	4	4	2	I	1	0	411	0	poli_8sides 2_whiteLine3.jpg	Short_b20_cut1_stereo_44KHz.wav
2	9	1	1	1	C	1	0	720	0	poli_8sides 18_whiteLine3.jpg	Short_b09_cut1_stereo_44KHz.wav
2	10	4	3	2	I	1	0	371	0	poli_8sides 2_whiteLine3.jpg	Short_b22_cut1_stereo_44KHz.wav
2	11	2	1	0	C	1	1	298	1	poli_8sides 13_whiteLine3.jpg	Short_b09_cut1_stereo_44KHz.wav
2	12	3	4	2	I	1	0	429	0	poli_8sides 11_whiteLine3.jpg	Short_b20_cut1_stereo_44KHz.wav
2	13	2	2	1	C	2	1	333	1	poli_8sides 13_whiteLine3.jpg	Short_b23_cut1_stereo_44KHz.wav
2	14	1	2	0	C	2	0	267	0	poli_8sides 18_whiteLine3.jpg	Short_b23_cut1_stereo_44KHz.wav
2	15	4	4	2	I	1	0	468	0	poli_8sides 2_whiteLine3.jpg	Short_b20_cut1_stereo_44KHz.wav
2	16	3	3	2	I	1	0	428	1	poli_8sides 11_whiteLine3.jpg	Short_b22_cut1_stereo_44KHz.wav
2	17	2	2	1	C	2	1	433	1	poli_8sides 13_whiteLine3.jpg	Short_b23_cut1_stereo_44KHz.wav
2	18	3	4	2	I	1	0	695	0	poli_8sides 11_whiteLine3.jpg	Short_b20_cut1_stereo_44KHz.wav
2	19	4	4	2	I	2	0	381	1	poli_8sides 2_whiteLine3.jpg	Short_b20_cut1_stereo_44KHz.wav
2	20	1	1	1	C	2	1	302	1	poli_8sides 18_whiteLine3.jpg	Short_b09_cut1_stereo_44KHz.wav
2	21	2	1	0	C	2	0	286	0	poli_8sides 13_whiteLine3.jpg	Short_b09_cut1_stereo_44KHz.wav
2	22	4	3	2	I	2	0	691	0	poli_8sides 2_whiteLine3.jpg	Short_b22_cut1_stereo_44KHz.wav
2	23	1	2	0	C	1	1	482	1	poli_8sides 18_whiteLine3.jpg	Short_b23_cut1_stereo_44KHz.wav
2	24	3	3	2	I	1	0	684	1	poli_8sides 11_whiteLine3.jpg	Short_b22_cut1_stereo_44KHz.wav
2	25	1	1	1	C	2	1	667	1	poli_8sides 18_whiteLine3.jpg	Short_b09_cut1_stereo_44KHz.wav
2	26	4	4	2	I	1	0	510	1	poli_8sides 2_whiteLine3.jpg	Short_b20_cut1_stereo_44KHz.wav
2	27	2	1	0	C	1	1	865	1	poli_8sides 13_whiteLine3.jpg	Short_b09_cut1_stereo_44KHz.wav
2	28	3	4	2	I	1	0	426	1	poli_8sides 11_whiteLine3.jpg	Short_b20_cut1_stereo_44KHz.wav
2	29	2	2	1	C	1	0	390	0	poli_8sides 13_whiteLine3.jpg	Short_b23_cut1_stereo_44KHz.wav
2	30	3	3	2	I	1	0	377	1	poli_8sides 11_whiteLine3.jpg	Short_b22_cut1_stereo_44KHz.wav
2	31	4	3	2	I	2	0	249	0	poli_8sides 2_whiteLine3.jpg	Short_b22_cut1_stereo_44KHz.wav
2	32	1	2	0	C	1	1	368	1	poli_8sides 18_whiteLine3.jpg	Short_b23_cut1_stereo_44KHz.wav
2	33	4	4	2	I	1	0	336	1	poli_8sides 2_whiteLine3.jpg	Short_b20_cut1_stereo_44KHz.wav
2	34	3	4	2	I	1	0	308	1	poli_8sides 11_whiteLine3.jpg	Short_b20_cut1_stereo_44KHz.wav
2	35	1	1	1	C	1	0	333	0	poli_8sides 18_whiteLine3.jpg	Short_b09_cut1_stereo_44KHz.wav
2	36	2	2	1	C	1	0	558	0	poli_8sides 13_whiteLine3.jpg	Short_b23_cut1_stereo_44KHz.wav
2	37	1	2	0	C	2	0	401	0	poli_8sides 18_whiteLine3.jpg	Short_b23_cut1_stereo_44KHz.wav
2	38	4	3	2	I	2	0	336	0	poli_8sides 2_whiteLine3.jpg	Short_b22_cut1_stereo_44KHz.wav
2	39	3	3	2	I	1	0	780	1	poli_8sides 11_whiteLine3.jpg	Short_b22_cut1_stereo_44KHz.wav
2	40	2	1	0	C	2	0	533	0	poli_8sides 13_whiteLine3.jpg	Short_b09_cut1_stereo_44KHz.wav
2	41	1	2	0	C	1	1	434	1	poli_8sides 18_whiteLine3.jpg	Short_b23_cut1_stereo_44KHz.wav
2	42	3	3	2	I	1	0	581	1	poli_8sides 11_whiteLine3.jpg	Short_b22_cut1_stereo_44KHz.wav
2	43	4	3	2	I	1	0	810	0	poli_8sides 2_whiteLine3.jpg	Short_b22_cut1_stereo_44KHz.wav
2	44	2	2	1	C	1	0	441	0	poli_8sides 13_whiteLine3.jpg	Short_b23_cut1_stereo_44KHz.wav
2	45	1	1	1	C	2	1	308	1	poli_8sides 18_whiteLine3.jpg	Short_b09_cut1_stereo_44KHz.wav
2	46	4	4	2	I	1	0	283	1	poli_8sides 2_whiteLine3.jpg	Short_b20_cut1_stereo_44KHz.wav
2	47	2	1	0	C	2	0	274	0	poli_8sides 13_whiteLine3.jpg	Short_b09_cut1_stereo_44KHz.wav
2	48	3	4	2	I	1	0	355	0	poli_8sides 11_whiteLine3.jpg	Short_b20_cut1_stereo_44KHz.wav
2	49	1	2	0	C	2	0	279	0	poli_8sides 18_whiteLine3.jpg	Short_b23_cut1_stereo_44KHz.wav
2	50	2	2	1	C	1	0	525	0	poli_8sides 13_whiteLine3.jpg	Short_b23_cut1_stereo_44KHz.wav
2	51	3	3	2	I	1	0	402	1	poli_8sides 11_whiteLine3.jpg	Short_b22_cut1_stereo_44KHz.wav
2	52	4	4	2	I	1	0	552	1	poli_8sides 2_whiteLine3.jpg	Short_b20_cut1_stereo_44KHz.wav
2	53	1	1	1	C	2	1	813	1	poli_8sides 18_whiteLine3.jpg	Short_b09_cut1_stereo_44KHz.wav
2	54	2	1	0	C	2	0	375	0	poli_8sides 13_whiteLine3.jpg	Short_b09_cut1_stereo_44KHz.wav
2	55	3	4	2	I	1	0	1031	1	poli_8sides 11_whiteLine3.jpg	Short_b20_cut1_stereo_44KHz.wav
2	56	4	3	2	I	2	0	653	0	poli_8sides 2_whiteLine3.jpg	Short_b22_cut1_stereo_44KHz.wav
2	57	2	1	0	C	2	0	763	0	poli_8sides 13_whiteLine3.jpg	Short_b09_cut1_stereo_44KHz.wav
2	58	3	3	2	I	1	0	708	1	poli_8sides 11_whiteLine3.jpg	Short_b22_cut1_stereo_44KHz.wav
2	59	1	1	1	C	2	1	803	1	poli_8sides 18_whiteLine3.jpg	Short_b09_cut1_stereo_44KHz.wav
2	60	4	3	2	I	1	0	473	1	poli_8sides 2_whiteLine3.jpg	Short_b22_cut1_stereo_44KHz.wav
2	61	1	2	0	C	2	0	751	0	poli_8sides 18_whiteLine3.jpg	Short_b23_cut1_stereo_44KHz.wav
2	62	4	4	2	I	1	0	578	1	poli_8sides 2_whiteLine3.jpg	Short_b20_cut1_stereo_44KHz.wav
2	63	2	2	1	C	1	0	1133	0	poli_8sides 13_whiteLine3.jpg	Short_b23_cut1_stereo_44KHz.wav
2	64	3	4	2	I	2	0	755	0	poli_8sides 11_whiteLine3.jpg	Short_b20_cut1_stereo_44KHz.wav
2	65	1	1	1	C	1	0	903	0	poli_8sides 18_whiteLine3.jpg	Short_b09_cut1_stereo_44KHz.wav
2	66	3	4	2	I	1	0	612	0	poli_8sides 11_whiteLine3.jpg	Short_b20_cut1_stereo_44KHz.wav
2	67	2	1	0	C	2	0	742	0	poli_8sides 13_whiteLine3.jpg	Short_b09_cut1_stereo_44KHz.wav
2	68	4	3	2	I	2	0	887	1	poli_8sides 2_whiteLine3.jpg	Short_b22_cut1_stereo_44KHz.wav
2	69	1	2	0	C	2	0	945	0	poli_8sides 18_whiteLine3.jpg	Short_b23_cut1_stereo_44KHz.wav
2	70	2	2	1	C	2	1	1037	1	poli_8sides 13_whiteLine3.jpg	Short_b23_cut1_stereo_44KHz.wav
2	71	4	4	2	I	1	0	805	1	poli_8sides 2_whiteLine3.jpg	Short_b20_cut1_stereo_44KHz.wav
2	72	3	3	2	I	2	0	1121	1	poli_8sides 11_whiteLine3.jpg	Short_b22_cut1_stereo_44KHz.wav
2	73	4	4	2	I	1	0	1154	1	poli_8sides 2_whiteLine3.jpg	Short_b20_cut1_stereo_44KHz.wav
2	74	2	2	1	C	2	1	879	1	poli_8sides 13_whiteLine3.jpg	Short_b23_cut1_stereo_44KHz.wav
2	75	3	4	2	I	2	0	1135	0	poli_8sides 11_whiteLine3.jpg	Short_b20_cut1_stereo_44KHz.wav
2	76	1	1	1	C	1	0	895	0	poli_8sides 18_whiteLine3.jpg	Short_b09_cut1_stereo_44KHz.wav
2	77	2	1	0	C	1	1	1152	1	poli_8sides 13_whiteLine3.jpg	Short_b09_cut1_stereo_44KHz.wav
2	78	1	2	0	C	1	1	851	1	poli_8sides 18_whiteLine3.jpg	Short_b23_cut1_stereo_44KHz.wav
2	79	4	3	2	I	2	0	592	0	poli_8sides 2_whiteLine3.jpg	Short_b22_cut1_stereo_44KHz.wav
2	80	3	3	2	I	2	0	1194	1	poli_8sides 11_whiteLine3.jpg	Short_b22_cut1_stereo_44KHz.wav
2	81	1	1	1	C	2	1	831	1	poli_8sides 18_whiteLine3.jpg	Short_b09_cut1_stereo_44KHz.wav
2	82	4	3	2	I	1	0	811	1	poli_8sides 2_whiteLine3.jpg	Short_b22_cut1_stereo_44KHz.wav
2	83	3	4	2	I	2	0	829	1	poli_8sides 11_whiteLine3.jpg	Short_b20_cut1_stereo_44KHz.wav
2	84	2	2	1	C	2	1	949	1	poli_8sides 13_whiteLine3.jpg	Short_b23_cut1_stereo_44KHz.wav
2	85	1	2	0	C	2	0	676	0	poli_8sides 18_whiteLine3.jpg	Short_b23_cut1_stereo_44KHz.wav
2	86	2	1	0	C	2	0	842	0	poli_8sides 13_whiteLine3.jpg	Short_b09_cut1_stereo_44KHz.wav
2	87	3	3	2	I	2	0	860	0	poli_8sides 11_whiteLine3.jpg	Short_b22_cut1_stereo_44KHz.wav
2	88	4	4	2	I	1	0	448	1	poli_8sides 2_whiteLine3.jpg	Short_b20_cut1_stereo_44KHz.wav
2	89	3	4	2	I	1	0	783	0	poli_8sides 11_whiteLine3.jpg	Short_b20_cut1_stereo_44KHz.wav
2	90	1	2	0	C	2	0	441	0	poli_8sides 18_whiteLine3.jpg	Short_b23_cut1_stereo_44KHz.wav
2	91	2	2	1	C	2	1	838	1	poli_8sides 13_whiteLine3.jpg	Short_b23_cut1_stereo_44KHz.wav
2	92	4	4	2	I	1	0	693	0	poli_8sides 2_whiteLine3.jpg	Short_b20_cut1_stereo_44KHz.wav
2	93	1	1	1	C	1	0	950	0	poli_8sides 18_whiteLine3.jpg	Short_b09_cut1_stereo_44KHz.wav
2	94	3	3	2	I	1	0	1098	0	poli_8sides 11_whiteLine3.jpg	Short_b22_cut1_stereo_44KHz.wav
2	95	4	3	2	I	2	0	752	1	poli_8sides 2_whiteLine3.jpg	Short_b22_cut1_stereo_44KHz.wav
2	96	2	1	0	C	1	1	900	1	poli_8sides 13_whiteLine3.jpg	Short_b09_cut1_stereo_44KHz.wav
2	97	1	2	0	C	1	1	636	1	poli_8sides 18_whiteLine3.jpg	Short_b23_cut1_stereo_44KHz.wav
2	98	4	4	2	I	1	0	436	1	poli_8sides 2_whiteLine3.jpg	Short_b20_cut1_stereo_44KHz.wav
2	99	3	3	2	I	1	0	703	0	poli_8sides 11_whiteLine3.jpg	Short_b22_cut1_stereo_44KHz.wav
2	100	2	1	0	C	1	1	520	1	poli_8sides 13_whiteLine3.jpg	Short_b09_cut1_stereo_44KHz.wav
2	101	1	1	1	C	1	0	522	0	poli_8sides 18_whiteLine3.jpg	Short_b09_cut1_stereo_44KHz.wav
2	102	4	3	2	I	2	0	786	0	poli_8sides 2_whiteLine3.jpg	Short_b22_cut1_stereo_44KHz.wav
2	103	3	4	2	I	1	0	761	0	poli_8sides 11_whiteLine3.jpg	Short_b20_cut1_stereo_44KHz.wav
2	104	2	2	1	C	2	1	789	1	poli_8sides 13_whiteLine3.jpg	Short_b23_cut1_stereo_44KHz.wav
2	105	4	4	2	I	1	0	324	0	poli_8sides 2_whiteLine3.jpg	Short_b20_cut1_stereo_44KHz.wav
2	106	1	1	1	C	1	0	213	0	poli_8sides 18_whiteLine3.jpg	Short_b09_cut1_stereo_44KHz.wav
2	107	2	1	0	C	1	1	438	1	poli_8sides 13_whiteLine3.jpg	Short_b09_cut1_stereo_44KHz.wav
2	108	3	3	2	I	1	0	334	0	poli_8sides 11_whiteLine3.jpg	Short_b22_cut1_stereo_44KHz.wav
2	109	2	2	1	C	2	1	199	1	poli_8sides 13_whiteLine3.jpg	Short_b23_cut1_stereo_44KHz.wav
2	110	1	2	0	C	2	0	276	0	poli_8sides 18_whiteLine3.jpg	Short_b23_cut1_stereo_44KHz.wav
2	111	3	4	2	I	1	0	526	0	poli_8sides 11_whiteLine3.jpg	Short_b20_cut1_stereo_44KHz.wav
2	112	4	3	2	I	1	0	488	0	poli_8sides 2_whiteLine3.jpg	Short_b22_cut1_stereo_44KHz.wav
2	113	2	2	1	C	1	0	408	0	poli_8sides 13_whiteLine3.jpg	Short_b23_cut1_stereo_44KHz.wav
2	114	4	4	2	I	1	0	781	0	poli_8sides 2_whiteLine3.jpg	Short_b20_cut1_stereo_44KHz.wav
2	115	3	4	2	I	1	0	552	0	poli_8sides 11_whiteLine3.jpg	Short_b20_cut1_stereo_44KHz.wav
2	116	1	2	0	C	2	0	288	0	poli_8sides 18_whiteLine3.jpg	Short_b23_cut1_stereo_44KHz.wav
2	117	3	3	2	I	1	0	297	1	poli_8sides 11_whiteLine3.jpg	Short_b22_cut1_stereo_44KHz.wav
2	118	2	1	0	C	1	1	590	1	poli_8sides 13_whiteLine3.jpg	Short_b09_cut1_stereo_44KHz.wav
2	119	4	3	2	I	1	0	477	1	poli_8sides 2_whiteLine3.jpg	Short_b22_cut1_stereo_44KHz.wav
2	120	1	1	1	C	1	0	680	0	poli_8sides 18_whiteLine3.jpg	Short_b09_cut1_stereo_44KHz.wav
2	121	3	4	2	I	1	0	377	1	poli_8sides 11_whiteLine3.jpg	Short_b20_cut1_stereo_44KHz.wav
2	122	4	3	2	I	2	0	550	0	poli_8sides 2_whiteLine3.jpg	Short_b22_cut1_stereo_44KHz.wav
2	123	1	2	0	C	1	1	600	1	poli_8sides 18_whiteLine3.jpg	Short_b23_cut1_stereo_44KHz.wav
2	124	2	1	0	C	1	1	753	1	poli_8sides 13_whiteLine3.jpg	Short_b09_cut1_stereo_44KHz.wav
2	125	4	4	2	I	2	0	513	0	poli_8sides 2_whiteLine3.jpg	Short_b20_cut1_stereo_44KHz.wav
2	126	3	3	2	I	2	0	714	0	poli_8sides 11_whiteLine3.jpg	Short_b22_cut1_stereo_44KHz.wav
2	127	2	2	1	C	2	1	818	1	poli_8sides 13_whiteLine3.jpg	Short_b23_cut1_stereo_44KHz.wav
2	128	1	1	1	C	1	0	537	0	poli_8sides 18_whiteLine3.jpg	Short_b09_cut1_stereo_44KHz.wav
2	129	4	4	2	I	1	0	492	0	poli_8sides 2_whiteLine3.jpg	Short_b20_cut1_stereo_44KHz.wav
2	130	2	2	1	C	2	1	850	1	poli_8sides 13_whiteLine3.jpg	Short_b23_cut1_stereo_44KHz.wav
2	131	3	4	2	I	1	0	587	1	poli_8sides 11_whiteLine3.jpg	Short_b20_cut1_stereo_44KHz.wav
2	132	1	1	1	C	1	0	746	0	poli_8sides 18_whiteLine3.jpg	Short_b09_cut1_stereo_44KHz.wav
2	133	4	3	2	I	1	0	603	0	poli_8sides 2_whiteLine3.jpg	Short_b22_cut1_stereo_44KHz.wav
2	134	2	1	0	C	1	1	633	1	poli_8sides 13_whiteLine3.jpg	Short_b09_cut1_stereo_44KHz.wav
2	135	1	2	0	C	1	1	682	1	poli_8sides 18_whiteLine3.jpg	Short_b23_cut1_stereo_44KHz.wav
2	136	3	3	2	I	1	0	770	0	poli_8sides 11_whiteLine3.jpg	Short_b22_cut1_stereo_44KHz.wav
2	137	2	1	0	C	2	0	846	0	poli_8sides 13_whiteLine3.jpg	Short_b09_cut1_stereo_44KHz.wav
2	138	1	1	1	C	1	0	722	0	poli_8sides 18_whiteLine3.jpg	Short_b09_cut1_stereo_44KHz.wav
2	139	3	4	2	I	1	0	701	0	poli_8sides 11_whiteLine3.jpg	Short_b20_cut1_stereo_44KHz.wav
2	140	4	4	2	I	1	0	709	1	poli_8sides 2_whiteLine3.jpg	Short_b20_cut1_stereo_44KHz.wav
2	141	1	2	0	C	1	1	648	1	poli_8sides 18_whiteLine3.jpg	Short_b23_cut1_stereo_44KHz.wav
2	142	2	2	1	C	2	1	712	1	poli_8sides 13_whiteLine3.jpg	Short_b23_cut1_stereo_44KHz.wav
2	143	3	3	2	I	2	0	1129	0	poli_8sides 11_whiteLine3.jpg	Short_b22_cut1_stereo_44KHz.wav
2	144	4	3	2	I	1	0	505	1	poli_8sides 2_whiteLine3.jpg	Short_b22_cut1_stereo_44KHz.wav
2	145	1	1	1	C	1	0	715	0	poli_8sides 18_whiteLine3.jpg	Short_b09_cut1_stereo_44KHz.wav
2	146	2	2	1	C	1	0	812	0	poli_8sides 13_whiteLine3.jpg	Short_b23_cut1_stereo_44KHz.wav
2	147	3	3	2	I	1	0	577	1	poli_8sides 11_whiteLine3.jpg	Short_b22_cut1_stereo_44KHz.wav
2	148	4	4	2	I	1	0	644	1	poli_8sides 2_whiteLine3.jpg	Short_b20_cut1_stereo_44KHz.wav
2	149	2	1	0	C	1	1	890	1	poli_8sides 13_whiteLine3.jpg	Short_b09_cut1_stereo_44KHz.wav
2	150	4	3	2	I	2	0	867	1	poli_8sides 2_whiteLine3.jpg	Short_b22_cut1_stereo_44KHz.wav
2	151	1	2	0	C	1	1	501	1	poli_8sides 18_whiteLine3.jpg	Short_b23_cut1_stereo_44KHz.wav
2	152	3	4	2	I	2	0	539	0	poli_8sides 11_whiteLine3.jpg	Short_b20_cut1_stereo_44KHz.wav
2	153	4	4	2	I	1	0	509	0	poli_8sides 2_whiteLine3.jpg	Short_b20_cut1_stereo_44KHz.wav
2	154	1	1	1	C	2	1	893	1	poli_8sides 18_whiteLine3.jpg	Short_b09_cut1_stereo_44KHz.wav
2	155	3	4	2	I	1	0	724	1	poli_8sides 11_whiteLine3.jpg	Short_b20_cut1_stereo_44KHz.wav
2	156	2	1	0	C	2	0	833	0	poli_8sides 13_whiteLine3.jpg	Short_b09_cut1_stereo_44KHz.wav
2	157	1	2	0	C	1	1	654	1	poli_8sides 18_whiteLine3.jpg	Short_b23_cut1_stereo_44KHz.wav
2	158	3	3	2	I	2	0	879	1	poli_8sides 11_whiteLine3.jpg	Short_b22_cut1_stereo_44KHz.wav
2	159	2	2	1	C	2	1	755	1	poli_8sides 13_whiteLine3.jpg	Short_b23_cut1_stereo_44KHz.wav
2	160	4	3	2	I	2	0	828	0	poli_8sides 2_whiteLine3.jpg	Short_b22_cut1_stereo_44KHz.wav
2	161	2	1	0	C	2	0	853	0	poli_8sides 13_whiteLine3.jpg	Short_b09_cut1_stereo_44KHz.wav
2	162	3	4	2	I	2	0	1183	1	poli_8sides 11_whiteLine3.jpg	Short_b20_cut1_stereo_44KHz.wav
2	163	1	1	1	C	1	0	922	0	poli_8sides 18_whiteLine3.jpg	Short_b09_cut1_stereo_44KHz.wav
2	164	4	3	2	I	2	0	1102	1	poli_8sides 2_whiteLine3.jpg	Short_b22_cut1_stereo_44KHz.wav
2	165	2	2	1	C	2	1	742	1	poli_8sides 13_whiteLine3.jpg	Short_b23_cut1_stereo_44KHz.wav
2	166	4	4	2	I	1	0	792	1	poli_8sides 2_whiteLine3.jpg	Short_b20_cut1_stereo_44KHz.wav
2	167	3	3	2	I	2	0	867	0	poli_8sides 11_whiteLine3.jpg	Short_b22_cut1_stereo_44KHz.wav
2	168	1	2	0	C	1	1	571	1	poli_8sides 18_whiteLine3.jpg	Short_b23_cut1_stereo_44KHz.wav
2	169	4	4	2	I	1	0	709	0	poli_8sides 2_whiteLine3.jpg	Short_b20_cut1_stereo_44KHz.wav
2	170	1	1	1	C	2	1	824	1	poli_8sides 18_whiteLine3.jpg	Short_b09_cut1_stereo_44KHz.wav
2	171	2	2	1	C	1	0	794	0	poli_8sides 13_whiteLine3.jpg	Short_b23_cut1_stereo_44KHz.wav
2	172	3	4	2	I	2	0	654	1	poli_8sides 11_whiteLine3.jpg	Short_b20_cut1_stereo_44KHz.wav
2	173	1	2	0	C	1	1	446	1	poli_8sides 18_whiteLine3.jpg	Short_b23_cut1_stereo_44KHz.wav
2	174	2	1	0	C	2	0	537	0	poli_8sides 13_whiteLine3.jpg	Short_b09_cut1_stereo_44KHz.wav
2	175	4	3	2	I	1	0	542	0	poli_8sides 2_whiteLine3.jpg	Short_b22_cut1_stereo_44KHz.wav
2	176	3	3	2	I	1	0	1074	1	poli_8sides 11_whiteLine3.jpg	Short_b22_cut1_stereo_44KHz.wav
2	177	4	4	2	I	1	0	932	0	poli_8sides 2_whiteLine3.jpg	Short_b20_cut1_stereo_44KHz.wav
2	178	3	4	2	I	1	0	524	0	poli_8sides 11_whiteLine3.jpg	Short_b20_cut1_stereo_44KHz.wav
2	179	2	2	1	C	2	1	823	1	poli_8sides 13_whiteLine3.jpg	Short_b23_cut1_stereo_44KHz.wav
2	180	1	1	1	C	2	1	734	1	poli_8sides 18_whiteLine3.jpg	Short_b09_cut1_stereo_44KHz.wav
2	181	3	3	2	I	2	0	898	0	poli_8sides 11_whiteLine3.jpg	Short_b22_cut1_stereo_44KHz.wav
2	182	4	3	2	I	1	0	598	0	poli_8sides 2_whiteLine3.jpg	Short_b22_cut1_stereo_44KHz.wav
2	183	2	1	0	C	1	1	733	1	poli_8sides 13_whiteLine3.jpg	Short_b09_cut1_stereo_44KHz.wav
2	184	1	2	0	C	1	1	663	1	poli_8sides 18_whiteLine3.jpg	Short_b23_cut1_stereo_44KHz.wav
2	185	4	4	2	I	1	0	436	1	poli_8sides 2_whiteLine3.jpg	Short_b20_cut1_stereo_44KHz.wav
2	186	2	2	1	C	1	0	728	0	poli_8sides 13_whiteLine3.jpg	Short_b23_cut1_stereo_44KHz.wav
2	187	3	4	2	I	1	0	702	1	poli_8sides 11_whiteLine3.jpg	Short_b20_cut1_stereo_44KHz.wav
2	188	1	1	1	C	1	0	683	0	poli_8sides 18_whiteLine3.jpg	Short_b09_cut1_stereo_44KHz.wav
2	189	3	3	2	I	1	0	489	0	poli_8sides 11_whiteLine3.jpg	Short_b22_cut1_stereo_44KHz.wav
2	190	2	1	0	C	2	0	862	0	poli_8sides 13_whiteLine3.jpg	Short_b09_cut1_stereo_44KHz.wav
2	191	1	2	0	C	1	1	661	1	poli_8sides 18_whiteLine3.jpg	Short_b23_cut1_stereo_44KHz.wav
2	192	4	3	2	I	1	0	608	1	poli_8sides 2_whiteLine3.jpg	Short_b22_cut1_stereo_44KHz.wav
2	193	1	2	0	C	2	0	855	0	poli_8sides 18_whiteLine3.jpg	Short_b23_cut1_stereo_44KHz.wav
2	194	2	2	1	C	1	0	829	0	poli_8sides 13_whiteLine3.jpg	Short_b23_cut1_stereo_44KHz.wav
2	195	4	4	2	I	1	0	723	0	poli_8sides 2_whiteLine3.jpg	Short_b20_cut1_stereo_44KHz.wav
2	196	3	4	2	I	1	0	412	1	poli_8sides 11_whiteLine3.jpg	Short_b20_cut1_stereo_44KHz.wav
2	197	1	1	1	C	1	0	1198	0	poli_8sides 18_whiteLine3.jpg	Short_b09_cut1_stereo_44KHz.wav
2	198	3	3	2	I	1	0	476	0	poli_8sides 11_whiteLine3.jpg	Short_b22_cut1_stereo_44KHz.wav
2	199	2	1	0	C	1	1	725	1	poli_8sides 13_whiteLine3.jpg	Short_b09_cut1_stereo_44KHz.wav
2	200	4	3	2	I	2	0	987	1	poli_8sides 2_whiteLine3.jpg	Short_b22_cut1_stereo_44KHz.wav
3	1	3	4	2	I	2	0	1797	0	poli_8sides 1_whiteLine3.jpg	MediumLong_b10_cut2_L_stereo_44KHz.wav
3	2	4	3	2	I	1	0	529	1	poli_8sides 12_whiteLine3.jpg	Medium_e21_stereo_44KHz.wav
3	3	2	2	1	C	1	0	603	0	poli_8sides 3_whiteLine3.jpg	MediumLong_e19_stereo_44KHz.wav
3	4	1	1	1	C	1	0	711	0	poli_8sides 16_whiteLine3.jpg	Medium_e13_stereo_44KHz.wav
3	5	2	1	0	C	2	0	1047	0	poli_8sides 3_whiteLine3.jpg	Medium_e13_stereo_44KHz.wav
3	6	1	2	0	C	2	0	926	0	poli_8sides 16_whiteLine3.jpg	MediumLong_e19_stereo_44KHz.wav
3	7	3	3	2	I	1	0	667	1	poli_8sides 1_whiteLine3.jpg	Medium_e21_stereo_44KHz.wav
3	8	4	4	2	I	1	0	456	0	poli_8sides 12_whiteLine3.jpg	MediumLong_b10_cut2_L_stereo_44KHz.wav
3	9	3	4	2	I	1	0	1071	1	poli_8sides 1_whiteLine3.jpg	MediumLong_b10_cut2_L_stereo_44KHz.wav
3	10	2	1	0	C	2	0	760	0	poli_8sides 3_whiteLine3.jpg	Medium_e13_stereo_44KHz.wav
3	11	1	2	0	C	1	1	1001	1	poli_8sides 16_whiteLine3.jpg	MediumLong_e19_stereo_44KHz.wav
3	12	4	3	2	I	2	0	738	0	poli_8sides 12_whiteLine3.jpg	Medium_e21_stereo_44KHz.wav
3	13	2	2	1	C	1	0	522	0	poli_8sides 3_whiteLine3.jpg	MediumLong_e19_stereo_44KHz.wav
3	14	4	4	2	I	2	0	870	0	poli_8sides 12_whiteLine3.jpg	MediumLong_b10_cut2_L_stereo_44KHz.wav
3	15	1	1	1	C	1	0	856	0	poli_8sides 16_whiteLine3.jpg	Medium_e13_stereo_44KHz.wav
3	16	3	3	2	I	1	0	932	0	poli_8sides 1_whiteLine3.jpg	Medium_e21_stereo_44KHz.wav
3	17	1	2	0	C	1	1	529	1	poli_8sides 16_whiteLine3.jpg	MediumLong_e19_stereo_44KHz.wav
3	18	2	1	0	C	1	1	400	1	poli_8sides 3_whiteLine3.jpg	Medium_e13_stereo_44KHz.wav
3	19	4	3	2	I	2	0	800	0	poli_8sides 12_whiteLine3.jpg	Medium_e21_stereo_44KHz.wav
3	20	3	3	2	I	1	0	776	1	poli_8sides 1_whiteLine3.jpg	Medium_e21_stereo_44KHz.wav
3	21	2	2	1	C	1	0	449	0	poli_8sides 3_whiteLine3.jpg	MediumLong_e19_stereo_44KHz.wav
3	22	1	1	1	C	2	1	867	1	poli_8sides 16_whiteLine3.jpg	Medium_e13_stereo_44KHz.wav
3	23	4	4	2	I	1	0	1332	0	poli_8sides 12_whiteLine3.jpg	MediumLong_b10_cut2_L_stereo_44KHz.wav
3	24	3	4	2	I	1	0	807	1	poli_8sides 1_whiteLine3.jpg	MediumLong_b10_cut2_L_stereo_44KHz.wav
3	25	4	3	2	I	2	0	852	0	poli_8sides 12_whiteLine3.jpg	Medium_e21_stereo_44KHz.wav
3	26	3	4	2	I	2	0	973	0	poli_8sides 1_whiteLine3.jpg	MediumLong_b10_cut2_L_stereo_44KHz.wav
3	27	2	2	1	C	1	0	530	0	poli_8sides 3_whiteLine3.jpg	MediumLong_e19_stereo_44KHz.wav
3	28	1	2	0	C	1	1	666	1	poli_8sides 16_whiteLine3.jpg	MediumLong_e19_stereo_44KHz.wav
3	29	4	4	2	I	1	0	981	0	poli_8sides 12_whiteLine3.jpg	MediumLong_b10_cut2_L_stereo_44KHz.wav
3	30	1	1	1	C	1	0	1129	0	poli_8sides 16_whiteLine3.jpg	Medium_e13_stereo_44KHz.wav
3	31	2	1	0	C	1	1	413	1	poli_8sides 3_whiteLine3.jpg	Medium_e13_stereo_44KHz.wav
3	32	3	3	2	I	1	0	723	0	poli_8sides 1_whiteLine3.jpg	Medium_e21_stereo_44KHz.wav
3	33	2	1	0	C	1	1	384	1	poli_8sides 3_whiteLine3.jpg	Medium_e13_stereo_44KHz.wav
3	34	4	3	2	I	2	0	1111	0	poli_8sides 12_whiteLine3.jpg	Medium_e21_stereo_44KHz.wav
3	35	3	4	2	I	1	0	565	0	poli_8sides 1_whiteLine3.jpg	MediumLong_b10_cut2_L_stereo_44KHz.wav
3	36	1	1	1	C	1	0	833	0	poli_8sides 16_whiteLine3.jpg	Medium_e13_stereo_44KHz.wav
3	37	2	2	1	C	2	1	875	1	poli_8sides 3_whiteLine3.jpg	MediumLong_e19_stereo_44KHz.wav
3	38	3	3	2	I	1	0	1115	0	poli_8sides 1_whiteLine3.jpg	Medium_e21_stereo_44KHz.wav
3	39	4	4	2	I	1	0	735	0	poli_8sides 12_whiteLine3.jpg	MediumLong_b10_cut2_L_stereo_44KHz.wav
3	40	1	2	0	C	1	1	700	1	poli_8sides 16_whiteLine3.jpg	MediumLong_e19_stereo_44KHz.wav
3	41	3	4	2	I	1	0	958	1	poli_8sides 1_whiteLine3.jpg	MediumLong_b10_cut2_L_stereo_44KHz.wav
3	42	2	2	1	C	2	1	811	1	poli_8sides 3_whiteLine3.jpg	MediumLong_e19_stereo_44KHz.wav
3	43	1	2	0	C	2	0	1093	0	poli_8sides 16_whiteLine3.jpg	MediumLong_e19_stereo_44KHz.wav
3	44	4	3	2	I	1	0	1097	0	poli_8sides 12_whiteLine3.jpg	Medium_e21_stereo_44KHz.wav
3	45	3	3	2	I	2	0	949	1	poli_8sides 1_whiteLine3.jpg	Medium_e21_stereo_44KHz.wav
3	46	4	4	2	I	2	0	939	1	poli_8sides 12_whiteLine3.jpg	MediumLong_b10_cut2_L_stereo_44KHz.wav
3	47	2	1	0	C	1	1	1108	1	poli_8sides 3_whiteLine3.jpg	Medium_e13_stereo_44KHz.wav
3	48	1	1	1	C	2	1	1123	1	poli_8sides 16_whiteLine3.jpg	Medium_e13_stereo_44KHz.wav
3	49	3	4	2	I	1	0	1332	0	poli_8sides 1_whiteLine3.jpg	MediumLong_b10_cut2_L_stereo_44KHz.wav
3	50	2	2	1	C	2	1	773	1	poli_8sides 3_whiteLine3.jpg	MediumLong_e19_stereo_44KHz.wav
3	51	1	1	1	C	1	0	827	0	poli_8sides 16_whiteLine3.jpg	Medium_e13_stereo_44KHz.wav
3	52	4	3	2	I	2	0	947	0	poli_8sides 12_whiteLine3.jpg	Medium_e21_stereo_44KHz.wav
3	53	3	3	2	I	2	0	852	1	poli_8sides 1_whiteLine3.jpg	Medium_e21_stereo_44KHz.wav
3	54	2	1	0	C	1	1	841	1	poli_8sides 3_whiteLine3.jpg	Medium_e13_stereo_44KHz.wav
3	55	1	2	0	C	2	0	1041	0	poli_8sides 16_whiteLine3.jpg	MediumLong_e19_stereo_44KHz.wav
3	56	4	4	2	I	2	0	818	1	poli_8sides 12_whiteLine3.jpg	MediumLong_b10_cut2_L_stereo_44KHz.wav
3	57	1	1	1	C	1	0	681	0	poli_8sides 16_whiteLine3.jpg	Medium_e13_stereo_44KHz.wav
3	58	2	1	0	C	1	1	534	1	poli_8sides 3_whiteLine3.jpg	Medium_e13_stereo_44KHz.wav
3	59	4	4	2	I	2	0	817	0	poli_8sides 12_whiteLine3.jpg	MediumLong_b10_cut2_L_stereo_44KHz.wav
3	60	3	4	2	I	2	0	895	1	poli_8sides 1_whiteLine3.jpg	MediumLong_b10_cut2_L_stereo_44KHz.wav
3	61	1	2	0	C	1	1	727	1	poli_8sides 16_whiteLine3.jpg	MediumLong_e19_stereo_44KHz.wav
3	62	2	2	1	C	2	1	771	1	poli_8sides 3_whiteLine3.jpg	MediumLong_e19_stereo_44KHz.wav
3	63	3	3	2	I	2	0	1046	1	poli_8sides 1_whiteLine3.jpg	Medium_e21_stereo_44KHz.wav
3	64	4	3	2	I	2	0	922	1	poli_8sides 12_whiteLine3.jpg	Medium_e21_stereo_44KHz.wav
3	65	1	1	1	C	2	1	1169	1	poli_8sides 16_whiteLine3.jpg	Medium_e13_stereo_44KHz.wav
3	66	2	2	1	C	2	1	781	1	poli_8sides 3_whiteLine3.jpg	MediumLong_e19_stereo_44KHz.wav
3	67	3	4	2	I	1	0	860	1	poli_8sides 1_whiteLine3.jpg	MediumLong_b10_cut2_L_stereo_44KHz.wav
3	68	4	4	2	I	2	0	961	1	poli_8sides 12_whiteLine3.jpg	MediumLong_b10_cut2_L_stereo_44KHz.wav
3	69	1	2	0	C	1	1	776	1	poli_8sides 16_whiteLine3.jpg	MediumLong_e19_stereo_44KHz.wav
3	70	4	3	2	I	2	0	735	1	poli_8sides 12_whiteLine3.jpg	Medium_e21_stereo_44KHz.wav
3	71	3	3	2	I	2	0	887	0	poli_8sides 1_whiteLine3.jpg	Medium_e21_stereo_44KHz.wav
3	72	2	1	0	C	1	1	676	1	poli_8sides 3_whiteLine3.jpg	Medium_e13_stereo_44KHz.wav
3	73	4	3	2	I	2	0	1225	1	poli_8sides 12_whiteLine3.jpg	Medium_e21_stereo_44KHz.wav
3	74	1	2	0	C	1	1	728	1	poli_8sides 16_whiteLine3.jpg	MediumLong_e19_stereo_44KHz.wav
3	75	2	2	1	C	2	1	854	1	poli_8sides 3_whiteLine3.jpg	MediumLong_e19_stereo_44KHz.wav
3	76	3	4	2	I	1	0	884	0	poli_8sides 1_whiteLine3.jpg	MediumLong_b10_cut2_L_stereo_44KHz.wav
3	77	1	1	1	C	1	0	1117	0	poli_8sides 16_whiteLine3.jpg	Medium_e13_stereo_44KHz.wav
3	78	4	4	2	I	1	0	782	0	poli_8sides 12_whiteLine3.jpg	MediumLong_b10_cut2_L_stereo_44KHz.wav
3	79	3	3	2	I	1	0	674	1	poli_8sides 1_whiteLine3.jpg	Medium_e21_stereo_44KHz.wav
3	80	2	1	0	C	1	1	686	1	poli_8sides 3_whiteLine3.jpg	Medium_e13_stereo_44KHz.wav
3	81	3	4	2	I	1	0	712	1	poli_8sides 1_whiteLine3.jpg	MediumLong_b10_cut2_L_stereo_44KHz.wav
3	82	1	2	0	C	1	1	717	1	poli_8sides 16_whiteLine3.jpg	MediumLong_e19_stereo_44KHz.wav
3	83	2	1	0	C	1	1	680	1	poli_8sides 3_whiteLine3.jpg	Medium_e13_stereo_44KHz.wav
3	84	4	3	2	I	2	0	751	1	poli_8sides 12_whiteLine3.jpg	Medium_e21_stereo_44KHz.wav
3	85	2	2	1	C	2	1	881	1	poli_8sides 3_whiteLine3.jpg	MediumLong_e19_stereo_44KHz.wav
3	86	1	1	1	C	1	0	929	0	poli_8sides 16_whiteLine3.jpg	Medium_e13_stereo_44KHz.wav
3	87	3	3	2	I	2	0	1219	0	poli_8sides 1_whiteLine3.jpg	Medium_e21_stereo_44KHz.wav
3	88	4	4	2	I	1	0	1078	0	poli_8sides 12_whiteLine3.jpg	MediumLong_b10_cut2_L_stereo_44KHz.wav
3	89	1	1	1	C	2	1	1543	1	poli_8sides 16_whiteLine3.jpg	Medium_e13_stereo_44KHz.wav
3	90	2	1	0	C	1	1	494	1	poli_8sides 3_whiteLine3.jpg	Medium_e13_stereo_44KHz.wav
3	91	3	3	2	I	1	0	956	0	poli_8sides 1_whiteLine3.jpg	Medium_e21_stereo_44KHz.wav
3	92	4	4	2	I	1	0	860	1	poli_8sides 12_whiteLine3.jpg	MediumLong_b10_cut2_L_stereo_44KHz.wav
3	93	1	2	0	C	1	1	980	1	poli_8sides 16_whiteLine3.jpg	MediumLong_e19_stereo_44KHz.wav
3	94	2	2	1	C	1	0	1052	0	poli_8sides 3_whiteLine3.jpg	MediumLong_e19_stereo_44KHz.wav
3	95	3	4	2	I	1	0	752	1	poli_8sides 1_whiteLine3.jpg	MediumLong_b10_cut2_L_stereo_44KHz.wav
3	96	4	3	2	I	1	0	892	1	poli_8sides 12_whiteLine3.jpg	Medium_e21_stereo_44KHz.wav
3	97	2	2	1	C	2	1	944	1	poli_8sides 3_whiteLine3.jpg	MediumLong_e19_stereo_44KHz.wav
3	98	3	4	2	I	1	0	939	1	poli_8sides 1_whiteLine3.jpg	MediumLong_b10_cut2_L_stereo_44KHz.wav
3	99	1	1	1	C	1	0	891	0	poli_8sides 16_whiteLine3.jpg	Medium_e13_stereo_44KHz.wav
3	100	4	3	2	I	2	0	857	1	poli_8sides 12_whiteLine3.jpg	Medium_e21_stereo_44KHz.wav
3	101	1	2	0	C	1	1	880	1	poli_8sides 16_whiteLine3.jpg	MediumLong_e19_stereo_44KHz.wav
3	102	4	4	2	I	1	0	664	0	poli_8sides 12_whiteLine3.jpg	MediumLong_b10_cut2_L_stereo_44KHz.wav
3	103	2	1	0	C	1	1	673	1	poli_8sides 3_whiteLine3.jpg	Medium_e13_stereo_44KHz.wav
3	104	3	3	2	I	1	0	719	0	poli_8sides 1_whiteLine3.jpg	Medium_e21_stereo_44KHz.wav
3	105	4	3	2	I	2	0	835	1	poli_8sides 12_whiteLine3.jpg	Medium_e21_stereo_44KHz.wav
3	106	2	2	1	C	2	1	863	1	poli_8sides 3_whiteLine3.jpg	MediumLong_e19_stereo_44KHz.wav
3	107	1	2	0	C	1	1	910	1	poli_8sides 16_whiteLine3.jpg	MediumLong_e19_stereo_44KHz.wav
3	108	3	4	2	I	1	0	981	1	poli_8sides 1_whiteLine3.jpg	MediumLong_b10_cut2_L_stereo_44KHz.wav
3	109	4	4	2	I	2	0	909	1	poli_8sides 12_whiteLine3.jpg	MediumLong_b10_cut2_L_stereo_44KHz.wav
3	110	2	1	0	C	1	1	727	1	poli_8sides 3_whiteLine3.jpg	Medium_e13_stereo_44KHz.wav
3	111	1	1	1	C	2	1	849	1	poli_8sides 16_whiteLine3.jpg	Medium_e13_stereo_44KHz.wav
3	112	3	3	2	I	1	0	831	1	poli_8sides 1_whiteLine3.jpg	Medium_e21_stereo_44KHz.wav
3	113	2	1	0	C	1	1	817	1	poli_8sides 3_whiteLine3.jpg	Medium_e13_stereo_44KHz.wav
3	114	3	3	2	I	1	0	1095	1	poli_8sides 1_whiteLine3.jpg	Medium_e21_stereo_44KHz.wav
3	115	4	3	2	I	2	0	836	0	poli_8sides 12_whiteLine3.jpg	Medium_e21_stereo_44KHz.wav
3	116	1	1	1	C	1	0	637	0	poli_8sides 16_whiteLine3.jpg	Medium_e13_stereo_44KHz.wav
3	117	2	2	1	C	2	1	1193	1	poli_8sides 3_whiteLine3.jpg	MediumLong_e19_stereo_44KHz.wav
3	118	3	4	2	I	2	0	1152	0	poli_8sides 1_whiteLine3.jpg	MediumLong_b10_cut2_L_stereo_44KHz.wav
3	119	4	4	2	I	2	0	1343	1	poli_8sides 12_whiteLine3.jpg	MediumLong_b10_cut2_L_stereo_44KHz.wav
3	120	1	2	0	C	1	1	713	1	poli_8sides 16_whiteLine3.jpg	MediumLong_e19_stereo_44KHz.wav
3	121	4	4	2	I	2	0	648	0	poli_8sides 12_whiteLine3.jpg	MediumLong_b10_cut2_L_stereo_44KHz.wav
3	122	1	2	0	C	1	1	827	1	poli_8sides 16_whiteLine3.jpg	MediumLong_e19_stereo_44KHz.wav
3	123	2	1	0	C	1	1	698	1	poli_8sides 3_whiteLine3.jpg	Medium_e13_stereo_44KHz.wav
3	124	3	3	2	I	1	0	797	0	poli_8sides 1_whiteLine3.jpg	Medium_e21_stereo_44KHz.wav
3	125	4	3	2	I	1	0	699	1	poli_8sides 12_whiteLine3.jpg	Medium_e21_stereo_44KHz.wav
3	126	2	2	1	C	2	1	657	1	poli_8sides 3_whiteLine3.jpg	MediumLong_e19_stereo_44KHz.wav
3	127	3	4	2	I	1	0	849	0	poli_8sides 1_whiteLine3.jpg	MediumLong_b10_cut2_L_stereo_44KHz.wav
3	128	1	1	1	C	1	0	759	0	poli_8sides 16_whiteLine3.jpg	Medium_e13_stereo_44KHz.wav
3	129	2	1	0	C	1	1	573	1	poli_8sides 3_whiteLine3.jpg	Medium_e13_stereo_44KHz.wav
3	130	3	3	2	I	2	0	698	0	poli_8sides 1_whiteLine3.jpg	Medium_e21_stereo_44KHz.wav
3	131	4	4	2	I	1	0	638	0	poli_8sides 12_whiteLine3.jpg	MediumLong_b10_cut2_L_stereo_44KHz.wav
3	132	1	1	1	C	2	1	1133	1	poli_8sides 16_whiteLine3.jpg	Medium_e13_stereo_44KHz.wav
3	133	2	2	1	C	2	1	842	1	poli_8sides 3_whiteLine3.jpg	MediumLong_e19_stereo_44KHz.wav
3	134	4	3	2	I	1	0	984	0	poli_8sides 12_whiteLine3.jpg	Medium_e21_stereo_44KHz.wav
3	135	1	2	0	C	1	1	557	1	poli_8sides 16_whiteLine3.jpg	MediumLong_e19_stereo_44KHz.wav
3	136	3	4	2	I	1	0	862	0	poli_8sides 1_whiteLine3.jpg	MediumLong_b10_cut2_L_stereo_44KHz.wav
3	137	2	2	1	C	1	0	1408	0	poli_8sides 3_whiteLine3.jpg	MediumLong_e19_stereo_44KHz.wav
3	138	3	3	2	I	1	0	902	1	poli_8sides 1_whiteLine3.jpg	Medium_e21_stereo_44KHz.wav
3	139	1	1	1	C	1	0	730	0	poli_8sides 16_whiteLine3.jpg	Medium_e13_stereo_44KHz.wav
3	140	4	3	2	I	1	0	1058	1	poli_8sides 12_whiteLine3.jpg	Medium_e21_stereo_44KHz.wav
3	141	3	4	2	I	1	0	1148	1	poli_8sides 1_whiteLine3.jpg	MediumLong_b10_cut2_L_stereo_44KHz.wav
3	142	1	2	0	C	1	1	668	1	poli_8sides 16_whiteLine3.jpg	MediumLong_e19_stereo_44KHz.wav
3	143	2	1	0	C	1	1	602	1	poli_8sides 3_whiteLine3.jpg	Medium_e13_stereo_44KHz.wav
3	144	4	4	2	I	1	0	741	1	poli_8sides 12_whiteLine3.jpg	MediumLong_b10_cut2_L_stereo_44KHz.wav
3	145	2	2	1	C	2	1	865	1	poli_8sides 3_whiteLine3.jpg	MediumLong_e19_stereo_44KHz.wav
3	146	4	4	2	I	1	0	992	1	poli_8sides 12_whiteLine3.jpg	MediumLong_b10_cut2_L_stereo_44KHz.wav
3	147	1	1	1	C	1	0	731	0	poli_8sides 16_whiteLine3.jpg	Medium_e13_stereo_44KHz.wav
3	148	3	4	2	I	1	0	927	1	poli_8sides 1_whiteLine3.jpg	MediumLong_b10_cut2_L_stereo_44KHz.wav
3	149	1	2	0	C	1	1	763	1	poli_8sides 16_whiteLine3.jpg	MediumLong_e19_stereo_44KHz.wav
3	150	3	3	2	I	2	0	1227	0	poli_8sides 1_whiteLine3.jpg	Medium_e21_stereo_44KHz.wav
3	151	4	3	2	I	2	0	1190	0	poli_8sides 12_whiteLine3.jpg	Medium_e21_stereo_44KHz.wav
3	152	2	1	0	C	1	1	646	1	poli_8sides 3_whiteLine3.jpg	Medium_e13_stereo_44KHz.wav
3	153	3	3	2	I	1	0	658	0	poli_8sides 1_whiteLine3.jpg	Medium_e21_stereo_44KHz.wav
3	154	1	1	1	C	1	0	637	0	poli_8sides 16_whiteLine3.jpg	Medium_e13_stereo_44KHz.wav
3	155	2	1	0	C	1	1	630	1	poli_8sides 3_whiteLine3.jpg	Medium_e13_stereo_44KHz.wav
3	156	4	4	2	I	1	0	624	1	poli_8sides 12_whiteLine3.jpg	MediumLong_b10_cut2_L_stereo_44KHz.wav
3	157	3	4	2	I	1	0	778	0	poli_8sides 1_whiteLine3.jpg	MediumLong_b10_cut2_L_stereo_44KHz.wav
3	158	1	2	0	C	1	1	621	1	poli_8sides 16_whiteLine3.jpg	MediumLong_e19_stereo_44KHz.wav
3	159	4	3	2	I	1	0	692	0	poli_8sides 12_whiteLine3.jpg	Medium_e21_stereo_44KHz.wav
3	160	2	2	1	C	2	1	826	1	poli_8sides 3_whiteLine3.jpg	MediumLong_e19_stereo_44KHz.wav
3	161	1	2	0	C	1	1	742	1	poli_8sides 16_whiteLine3.jpg	MediumLong_e19_stereo_44KHz.wav
3	162	3	4	2	I	1	0	581	1	poli_8sides 1_whiteLine3.jpg	MediumLong_b10_cut2_L_stereo_44KHz.wav
3	163	2	1	0	C	1	1	560	1	poli_8sides 3_whiteLine3.jpg	Medium_e13_stereo_44KHz.wav
3	164	4	3	2	I	2	0	1098	1	poli_8sides 12_whiteLine3.jpg	Medium_e21_stereo_44KHz.wav
3	165	1	1	1	C	1	0	824	0	poli_8sides 16_whiteLine3.jpg	Medium_e13_stereo_44KHz.wav
3	166	4	4	2	I	2	0	822	1	poli_8sides 12_whiteLine3.jpg	MediumLong_b10_cut2_L_stereo_44KHz.wav
3	167	2	2	1	C	2	1	813	1	poli_8sides 3_whiteLine3.jpg	MediumLong_e19_stereo_44KHz.wav
3	168	3	3	2	I	1	0	978	1	poli_8sides 1_whiteLine3.jpg	Medium_e21_stereo_44KHz.wav
3	169	2	2	1	C	2	1	894	1	poli_8sides 3_whiteLine3.jpg	MediumLong_e19_stereo_44KHz.wav
3	170	4	4	2	I	2	0	1025	0	poli_8sides 12_whiteLine3.jpg	MediumLong_b10_cut2_L_stereo_44KHz.wav
3	171	3	4	2	I	1	0	1114	0	poli_8sides 1_whiteLine3.jpg	MediumLong_b10_cut2_L_stereo_44KHz.wav
3	172	1	1	1	C	2	1	1232	1	poli_8sides 16_whiteLine3.jpg	Medium_e13_stereo_44KHz.wav
3	173	3	3	2	I	2	0	1317	0	poli_8sides 1_whiteLine3.jpg	Medium_e21_stereo_44KHz.wav
3	174	2	1	0	C	1	1	901	1	poli_8sides 3_whiteLine3.jpg	Medium_e13_stereo_44KHz.wav
3	175	4	3	2	I	1	0	1253	0	poli_8sides 12_whiteLine3.jpg	Medium_e21_stereo_44KHz.wav
3	176	1	2	0	C	1	1	743	1	poli_8sides 16_whiteLine3.jpg	MediumLong_e19_stereo_44KHz.wav
3	177	3	3	2	I	1	0	816	1	poli_8sides 1_whiteLine3.jpg	Medium_e21_stereo_44KHz.wav
3	178	2	1	0	C	1	1	729	1	poli_8sides 3_whiteLine3.jpg	Medium_e13_stereo_44KHz.wav
3	179	4	4	2	I	1	0	851	1	poli_8sides 12_whiteLine3.jpg	MediumLong_b10_cut2_L_stereo_44KHz.wav
3	180	1	1	1	C	1	0	964	0	poli_8sides 16_whiteLine3.jpg	Medium_e13_stereo_44KHz.wav
3	181	2	2	1	C	2	1	919	1	poli_8sides 3_whiteLine3.jpg	MediumLong_e19_stereo_44KHz.wav
3	182	4	3	2	I	2	0	938	0	poli_8sides 12_whiteLine3.jpg	Medium_e21_stereo_44KHz.wav
3	183	3	4	2	I	1	0	846	0	poli_8sides 1_whiteLine3.jpg	MediumLong_b10_cut2_L_stereo_44KHz.wav
3	184	1	2	0	C	1	1	785	1	poli_8sides 16_whiteLine3.jpg	MediumLong_e19_stereo_44KHz.wav
3	185	3	3	2	I	1	0	649	0	poli_8sides 1_whiteLine3.jpg	Medium_e21_stereo_44KHz.wav
3	186	4	3	2	I	1	0	707	1	poli_8sides 12_whiteLine3.jpg	Medium_e21_stereo_44KHz.wav
3	187	1	1	1	C	1	0	700	0	poli_8sides 16_whiteLine3.jpg	Medium_e13_stereo_44KHz.wav
3	188	2	1	0	C	1	1	732	1	poli_8sides 3_whiteLine3.jpg	Medium_e13_stereo_44KHz.wav
3	189	4	4	2	I	1	0	634	1	poli_8sides 12_whiteLine3.jpg	MediumLong_b10_cut2_L_stereo_44KHz.wav
3	190	2	2	1	C	2	1	993	1	poli_8sides 3_whiteLine3.jpg	MediumLong_e19_stereo_44KHz.wav
3	191	3	4	2	I	1	0	1820	1	poli_8sides 1_whiteLine3.jpg	MediumLong_b10_cut2_L_stereo_44KHz.wav
3	192	1	2	0	C	1	1	893	1	poli_8sides 16_whiteLine3.jpg	MediumLong_e19_stereo_44KHz.wav
3	193	4	4	2	I	2	0	794	0	poli_8sides 12_whiteLine3.jpg	MediumLong_b10_cut2_L_stereo_44KHz.wav
3	194	3	3	2	I	2	0	1345	1	poli_8sides 1_whiteLine3.jpg	Medium_e21_stereo_44KHz.wav
3	195	2	2	1	C	2	1	842	1	poli_8sides 3_whiteLine3.jpg	MediumLong_e19_stereo_44KHz.wav
3	196	1	2	0	C	1	1	1785	1	poli_8sides 16_whiteLine3.jpg	MediumLong_e19_stereo_44KHz.wav
3	197	4	3	2	I	2	0	1205	1	poli_8sides 12_whiteLine3.jpg	Medium_e21_stereo_44KHz.wav
3	198	1	1	1	C	2	1	1284	1	poli_8sides 16_whiteLine3.jpg	Medium_e13_stereo_44KHz.wav
3	199	3	4	2	I	1	0	754	0	poli_8sides 1_whiteLine3.jpg	MediumLong_b10_cut2_L_stereo_44KHz.wav
3	200	2	1	0	C	1	1	814	1	poli_8sides 3_whiteLine3.jpg	Medium_e13_stereo_44KHz.wav
4	1	2	2	1	C	2	1	1312	1	poli_8sides 5_whiteLine3.jpg	MediumLong_e04_stereo_44KHz.wav
4	2	4	4	2	I	2	0	748	1	poli_8sides 9_whiteLine3.jpg	Medium_e01_cut1_stereo_44KHz.wav
4	3	3	3	2	I	2	0	483	1	poli_8sides 6_whiteLine3.jpg	MediumLong_e17_cut2_stereo_44KHz.wav
4	4	1	1	1	C	2	1	704	1	poli_8sides 10_whiteLine3.jpg	Medium_e26_stereo_44KHz.wav
4	5	3	4	2	I	2	0	615	0	poli_8sides 6_whiteLine3.jpg	Medium_e01_cut1_stereo_44KHz.wav
4	6	2	1	0	C	2	0	790	0	poli_8sides 5_whiteLine3.jpg	Medium_e26_stereo_44KHz.wav
4	7	4	3	2	I	2	0	631	0	poli_8sides 9_whiteLine3.jpg	MediumLong_e17_cut2_stereo_44KHz.wav
4	8	1	2	0	C	1	1	467	1	poli_8sides 10_whiteLine3.jpg	MediumLong_e04_stereo_44KHz.wav
4	9	2	2	1	C	1	0	461	0	poli_8sides 5_whiteLine3.jpg	MediumLong_e04_stereo_44KHz.wav
4	10	1	2	0	C	1	1	486	1	poli_8sides 10_whiteLine3.jpg	MediumLong_e04_stereo_44KHz.wav
4	11	4	3	2	I	1	0	656	1	poli_8sides 9_whiteLine3.jpg	MediumLong_e17_cut2_stereo_44KHz.wav
4	12	3	4	2	I	1	0	515	0	poli_8sides 6_whiteLine3.jpg	Medium_e01_cut1_stereo_44KHz.wav
4	13	2	1	0	C	2	0	939	0	poli_8sides 5_whiteLine3.jpg	Medium_e26_stereo_44KHz.wav
4	14	1	1	1	C	1	0	970	0	poli_8sides 10_whiteLine3.jpg	Medium_e26_stereo_44KHz.wav
4	15	4	4	2	I	1	0	976	1	poli_8sides 9_whiteLine3.jpg	Medium_e01_cut1_stereo_44KHz.wav
4	16	3	3	2	I	1	0	850	1	poli_8sides 6_whiteLine3.jpg	MediumLong_e17_cut2_stereo_44KHz.wav
4	17	2	1	0	C	1	1	719	1	poli_8sides 5_whiteLine3.jpg	Medium_e26_stereo_44KHz.wav
4	18	1	1	1	C	2	1	833	1	poli_8sides 10_whiteLine3.jpg	Medium_e26_stereo_44KHz.wav
4	19	3	4	2	I	1	0	618	1	poli_8sides 6_whiteLine3.jpg	Medium_e01_cut1_stereo_44KHz.wav
4	20	4	4	2	I	1	0	538	0	poli_8sides 9_whiteLine3.jpg	Medium_e01_cut1_stereo_44KHz.wav
4	21	1	2	0	C	2	0	558	0	poli_8sides 10_whiteLine3.jpg	MediumLong_e04_stereo_44KHz.wav
4	22	2	2	1	C	2	1	858	1	poli_8sides 5_whiteLine3.jpg	MediumLong_e04_stereo_44KHz.wav
4	23	3	3	2	I	1	0	645	1	poli_8sides 6_whiteLine3.jpg	MediumLong_e17_cut2_stereo_44KHz.wav
4	24	4	3	2	I	2	0	796	1	poli_8sides 9_whiteLine3.jpg	MediumLong_e17_cut2_stereo_44KHz.wav
4	25	1	2	0	C	1	1	1200	1	poli_8sides 10_whiteLine3.jpg	MediumLong_e04_stereo_44KHz.wav
4	26	2	1	0	C	1	1	701	1	poli_8sides 5_whiteLine3.jpg	Medium_e26_stereo_44KHz.wav
4	27	3	4	2	I	1	0	698	0	poli_8sides 6_whiteLine3.jpg	Medium_e01_cut1_stereo_44KHz.wav
4	28	4	3	2	I	1	0	876	0	poli_8sides 9_whiteLine3.jpg	MediumLong_e17_cut2_stereo_44KHz.wav
4	29	3	3	2	I	2	0	1081	0	poli_8sides 6_whiteLine3.jpg	MediumLong_e17_cut2_stereo_44KHz.wav
4	30	1	1	1	C	2	1	1148	1	poli_8sides 10_whiteLine3.jpg	Medium_e26_stereo_44KHz.wav
4	31	4	4	2	I	2	0	866	1	poli_8sides 9_whiteLine3.jpg	Medium_e01_cut1_stereo_44KHz.wav
4	32	2	2	1	C	2	1	1053	1	poli_8sides 5_whiteLine3.jpg	MediumLong_e04_stereo_44KHz.wav
4	33	3	4	2	I	2	0	972	0	poli_8sides 6_whiteLine3.jpg	Medium_e01_cut1_stereo_44KHz.wav
4	34	4	4	2	I	1	0	805	1	poli_8sides 9_whiteLine3.jpg	Medium_e01_cut1_stereo_44KHz.wav
4	35	2	1	0	C	1	1	1205	1	poli_8sides 5_whiteLine3.jpg	Medium_e26_stereo_44KHz.wav
4	36	1	1	1	C	2	1	787	1	poli_8sides 10_whiteLine3.jpg	Medium_e26_stereo_44KHz.wav
4	37	3	3	2	I	2	0	871	1	poli_8sides 6_whiteLine3.jpg	MediumLong_e17_cut2_stereo_44KHz.wav
4	38	2	2	1	C	2	1	955	1	poli_8sides 5_whiteLine3.jpg	MediumLong_e04_stereo_44KHz.wav
4	39	1	2	0	C	1	1	927	1	poli_8sides 10_whiteLine3.jpg	MediumLong_e04_stereo_44KHz.wav
4	40	4	3	2	I	2	0	1146	1	poli_8sides 9_whiteLine3.jpg	MediumLong_e17_cut2_stereo_44KHz.wav
4	41	2	2	1	C	2	1	723	1	poli_8sides 5_whiteLine3.jpg	MediumLong_e04_stereo_44KHz.wav
4	42	3	3	2	I	1	0	1357	1	poli_8sides 6_whiteLine3.jpg	MediumLong_e17_cut2_stereo_44KHz.wav
4	43	1	1	1	C	2	1	861	1	poli_8sides 10_whiteLine3.jpg	Medium_e26_stereo_44KHz.wav
4	44	4	3	2	I	2	0	972	0	poli_8sides 9_whiteLine3.jpg	MediumLong_e17_cut2_stereo_44KHz.wav
4	45	2	1	0	C	1	1	1338	1	poli_8sides 5_whiteLine3.jpg	Medium_e26_stereo_44KHz.wav
4	46	3	4	2	I	2	0	1033	1	poli_8sides 6_whiteLine3.jpg	Medium_e01_cut1_stereo_44KHz.wav
4	47	1	2	0	C	1	1	1017	1	poli_8sides 10_whiteLine3.jpg	MediumLong_e04_stereo_44KHz.wav
4	48	4	4	2	I	1	0	793	0	poli_8sides 9_whiteLine3.jpg	Medium_e01_cut1_stereo_44KHz.wav
4	49	1	1	1	C	1	0	999	0	poli_8sides 10_whiteLine3.jpg	Medium_e26_stereo_44KHz.wav
4	50	3	3	2	I	2	0	1075	1	poli_8sides 6_whiteLine3.jpg	MediumLong_e17_cut2_stereo_44KHz.wav
4	51	2	2	1	C	2	1	1440	1	poli_8sides 5_whiteLine3.jpg	MediumLong_e04_stereo_44KHz.wav
4	52	4	4	2	I	1	0	924	0	poli_8sides 9_whiteLine3.jpg	Medium_e01_cut1_stereo_44KHz.wav
4	53	3	4	2	I	1	0	864	1	poli_8sides 6_whiteLine3.jpg	Medium_e01_cut1_stereo_44KHz.wav
4	54	1	2	0	C	1	1	866	1	poli_8sides 10_whiteLine3.jpg	MediumLong_e04_stereo_44KHz.wav
4	55	4	3	2	I	2	0	1214	1	poli_8sides 9_whiteLine3.jpg	MediumLong_e17_cut2_stereo_44KHz.wav
4	56	2	1	0	C	1	1	1095	1	poli_8sides 5_whiteLine3.jpg	Medium_e26_stereo_44KHz.wav
4	57	1	2	0	C	1	1	608	1	poli_8sides 10_whiteLine3.jpg	MediumLong_e04_stereo_44KHz.wav
4	58	3	4	2	I	1	0	967	0	poli_8sides 6_whiteLine3.jpg	Medium_e01_cut1_stereo_44KHz.wav
4	59	2	1	0	C	1	1	1028	1	poli_8sides 5_whiteLine3.jpg	Medium_e26_stereo_44KHz.wav
4	60	4	4	2	I	1	0	859	1	poli_8sides 9_whiteLine3.jpg	Medium_e01_cut1_stereo_44KHz.wav
4	61	1	1	1	C	2	1	988	1	poli_8sides 10_whiteLine3.jpg	Medium_e26_stereo_44KHz.wav
4	62	4	3	2	I	2	0	1174	1	poli_8sides 9_whiteLine3.jpg	MediumLong_e17_cut2_stereo_44KHz.wav
4	63	3	3	2	I	1	0	1082	1	poli_8sides 6_whiteLine3.jpg	MediumLong_e17_cut2_stereo_44KHz.wav
4	64	2	2	1	C	2	1	1135	1	poli_8sides 5_whiteLine3.jpg	MediumLong_e04_stereo_44KHz.wav
4	65	1	2	0	C	1	1	669	1	poli_8sides 10_whiteLine3.jpg	MediumLong_e04_stereo_44KHz.wav
4	66	3	3	2	I	1	0	1344	1	poli_8sides 6_whiteLine3.jpg	MediumLong_e17_cut2_stereo_44KHz.wav
4	67	2	1	0	C	0	0	0	0	poli_8sides 5_whiteLine3.jpg	Medium_e26_stereo_44KHz.wav
4	68	4	4	2	I	1	0	955	0	poli_8sides 9_whiteLine3.jpg	Medium_e01_cut1_stereo_44KHz.wav
4	69	3	4	2	I	1	0	1164	1	poli_8sides 6_whiteLine3.jpg	Medium_e01_cut1_stereo_44KHz.wav
4	70	2	2	1	C	2	1	1185	1	poli_8sides 5_whiteLine3.jpg	MediumLong_e04_stereo_44KHz.wav
4	71	4	3	2	I	1	0	1185	0	poli_8sides 9_whiteLine3.jpg	MediumLong_e17_cut2_stereo_44KHz.wav
4	72	1	1	1	C	2	1	951	1	poli_8sides 10_whiteLine3.jpg	Medium_e26_stereo_44KHz.wav
4	73	2	2	1	C	1	0	1042	0	poli_8sides 5_whiteLine3.jpg	MediumLong_e04_stereo_44KHz.wav
4	74	4	3	2	I	2	0	1075	1	poli_8sides 9_whiteLine3.jpg	MediumLong_e17_cut2_stereo_44KHz.wav
4	75	3	4	2	I	2	0	1345	1	poli_8sides 6_whiteLine3.jpg	Medium_e01_cut1_stereo_44KHz.wav
4	76	1	1	1	C	2	1	1002	1	poli_8sides 10_whiteLine3.jpg	Medium_e26_stereo_44KHz.wav
4	77	3	3	2	I	2	0	1389	1	poli_8sides 6_whiteLine3.jpg	MediumLong_e17_cut2_stereo_44KHz.wav
4	78	4	4	2	I	1	0	839	0	poli_8sides 9_whiteLine3.jpg	Medium_e01_cut1_stereo_44KHz.wav
4	79	1	2	0	C	2	0	744	0	poli_8sides 10_whiteLine3.jpg	MediumLong_e04_stereo_44KHz.wav
4	80	2	1	0	C	1	1	1801	1	poli_8sides 5_whiteLine3.jpg	Medium_e26_stereo_44KHz.wav
4	81	1	1	1	C	1	0	625	0	poli_8sides 10_whiteLine3.jpg	Medium_e26_stereo_44KHz.wav
4	82	2	2	1	C	2	1	1222	1	poli_8sides 5_whiteLine3.jpg	MediumLong_e04_stereo_44KHz.wav
4	83	4	4	2	I	1	0	886	0	poli_8sides 9_whiteLine3.jpg	Medium_e01_cut1_stereo_44KHz.wav
4	84	3	4	2	I	1	0	977	0	poli_8sides 6_whiteLine3.jpg	Medium_e01_cut1_stereo_44KHz.wav
4	85	4	3	2	I	2	0	1332	1	poli_8sides 9_whiteLine3.jpg	MediumLong_e17_cut2_stereo_44KHz.wav
4	86	2	1	0	C	1	1	1196	1	poli_8sides 5_whiteLine3.jpg	Medium_e26_stereo_44KHz.wav
4	87	1	2	0	C	1	1	492	1	poli_8sides 10_whiteLine3.jpg	MediumLong_e04_stereo_44KHz.wav
4	88	3	3	2	I	1	0	1097	0	poli_8sides 6_whiteLine3.jpg	MediumLong_e17_cut2_stereo_44KHz.wav
4	89	1	1	1	C	2	1	1035	1	poli_8sides 10_whiteLine3.jpg	Medium_e26_stereo_44KHz.wav
4	90	4	4	2	I	1	0	1044	0	poli_8sides 9_whiteLine3.jpg	Medium_e01_cut1_stereo_44KHz.wav
4	91	2	1	0	C	1	1	1242	1	poli_8sides 5_whiteLine3.jpg	Medium_e26_stereo_44KHz.wav
4	92	3	3	2	I	1	0	1028	0	poli_8sides 6_whiteLine3.jpg	MediumLong_e17_cut2_stereo_44KHz.wav
4	93	2	2	1	C	2	1	925	1	poli_8sides 5_whiteLine3.jpg	MediumLong_e04_stereo_44KHz.wav
4	94	1	2	0	C	1	1	1034	1	poli_8sides 10_whiteLine3.jpg	MediumLong_e04_stereo_44KHz.wav
4	95	4	3	2	I	1	0	1914	1	poli_8sides 9_whiteLine3.jpg	MediumLong_e17_cut2_stereo_44KHz.wav
4	96	3	4	2	I	1	0	432	0	poli_8sides 6_whiteLine3.jpg	Medium_e01_cut1_stereo_44KHz.wav
4	97	2	1	0	C	1	1	1419	1	poli_8sides 5_whiteLine3.jpg	Medium_e26_stereo_44KHz.wav
4	98	1	2	0	C	1	1	377	1	poli_8sides 10_whiteLine3.jpg	MediumLong_e04_stereo_44KHz.wav
4	99	4	4	2	I	2	0	1877	0	poli_8sides 9_whiteLine3.jpg	Medium_e01_cut1_stereo_44KHz.wav
4	100	3	3	2	I	1	0	946	1	poli_8sides 6_whiteLine3.jpg	MediumLong_e17_cut2_stereo_44KHz.wav
4	101	2	2	1	C	2	1	1113	1	poli_8sides 5_whiteLine3.jpg	MediumLong_e04_stereo_44KHz.wav
4	102	3	4	2	I	2	0	1384	1	poli_8sides 6_whiteLine3.jpg	Medium_e01_cut1_stereo_44KHz.wav
4	103	4	3	2	I	2	0	1106	1	poli_8sides 9_whiteLine3.jpg	MediumLong_e17_cut2_stereo_44KHz.wav
4	104	1	1	1	C	2	1	991	1	poli_8sides 10_whiteLine3.jpg	Medium_e26_stereo_44KHz.wav
4	105	3	3	2	I	1	0	1079	1	poli_8sides 6_whiteLine3.jpg	MediumLong_e17_cut2_stereo_44KHz.wav
4	106	4	3	2	I	2	0	1463	0	poli_8sides 9_whiteLine3.jpg	MediumLong_e17_cut2_stereo_44KHz.wav
4	107	1	1	1	C	2	1	956	1	poli_8sides 10_whiteLine3.jpg	Medium_e26_stereo_44KHz.wav
4	108	2	1	0	C	1	1	1298	1	poli_8sides 5_whiteLine3.jpg	Medium_e26_stereo_44KHz.wav
4	109	3	4	2	I	2	0	1043	0	poli_8sides 6_whiteLine3.jpg	Medium_e01_cut1_stereo_44KHz.wav
4	110	2	2	1	C	2	1	1053	1	poli_8sides 5_whiteLine3.jpg	MediumLong_e04_stereo_44KHz.wav
4	111	1	2	0	C	1	1	586	1	poli_8sides 10_whiteLine3.jpg	MediumLong_e04_stereo_44KHz.wav
4	112	4	4	2	I	1	0	1166	1	poli_8sides 9_whiteLine3.jpg	Medium_e01_cut1_stereo_44KHz.wav
4	113	2	2	1	C	2	1	1408	1	poli_8sides 5_whiteLine3.jpg	MediumLong_e04_stereo_44KHz.wav
4	114	1	1	1	C	2	1	847	1	poli_8sides 10_whiteLine3.jpg	Medium_e26_stereo_44KHz.wav
4	115	3	4	2	I	1	0	867	0	poli_8sides 6_whiteLine3.jpg	Medium_e01_cut1_stereo_44KHz.wav
4	116	4	3	2	I	1	0	1799	0	poli_8sides 9_whiteLine3.jpg	MediumLong_e17_cut2_stereo_44KHz.wav
4	117	2	1	0	C	1	1	1015	1	poli_8sides 5_whiteLine3.jpg	Medium_e26_stereo_44KHz.wav
4	118	4	4	2	I	2	0	856	1	poli_8sides 9_whiteLine3.jpg	Medium_e01_cut1_stereo_44KHz.wav
4	119	1	2	0	C	1	1	892	1	poli_8sides 10_whiteLine3.jpg	MediumLong_e04_stereo_44KHz.wav
4	120	3	3	2	I	1	0	1082	0	poli_8sides 6_whiteLine3.jpg	MediumLong_e17_cut2_stereo_44KHz.wav
4	121	4	4	2	I	2	0	482	1	poli_8sides 9_whiteLine3.jpg	Medium_e01_cut1_stereo_44KHz.wav
4	122	3	3	2	I	2	0	859	1	poli_8sides 6_whiteLine3.jpg	MediumLong_e17_cut2_stereo_44KHz.wav
4	123	2	1	0	C	1	1	1096	1	poli_8sides 5_whiteLine3.jpg	Medium_e26_stereo_44KHz.wav
4	124	1	1	1	C	2	1	799	1	poli_8sides 10_whiteLine3.jpg	Medium_e26_stereo_44KHz.wav
4	125	4	3	2	I	2	0	866	0	poli_8sides 9_whiteLine3.jpg	MediumLong_e17_cut2_stereo_44KHz.wav
4	126	1	2	0	C	1	1	781	1	poli_8sides 10_whiteLine3.jpg	MediumLong_e04_stereo_44KHz.wav
4	127	2	2	1	C	2	1	909	1	poli_8sides 5_whiteLine3.jpg	MediumLong_e04_stereo_44KHz.wav
4	128	3	4	2	I	1	0	766	0	poli_8sides 6_whiteLine3.jpg	Medium_e01_cut1_stereo_44KHz.wav
4	129	2	1	0	C	2	0	555	0	poli_8sides 5_whiteLine3.jpg	Medium_e26_stereo_44KHz.wav
4	130	4	3	2	I	2	0	899	1	poli_8sides 9_whiteLine3.jpg	MediumLong_e17_cut2_stereo_44KHz.wav
4	131	3	3	2	I	1	0	1439	0	poli_8sides 6_whiteLine3.jpg	MediumLong_e17_cut2_stereo_44KHz.wav
4	132	1	2	0	C	1	1	943	1	poli_8sides 10_whiteLine3.jpg	MediumLong_e04_stereo_44KHz.wav
4	133	3	4	2	I	2	0	1192	0	poli_8sides 6_whiteLine3.jpg	Medium_e01_cut1_stereo_44KHz.wav
4	134	4	4	2	I	2	0	814	1	poli_8sides 9_whiteLine3.jpg	Medium_e01_cut1_stereo_44KHz.wav
4	135	2	2	1	C	2	1	1411	1	poli_8sides 5_whiteLine3.jpg	MediumLong_e04_stereo_44KHz.wav
4	136	1	1	1	C	2	1	1207	1	poli_8sides 10_whiteLine3.jpg	Medium_e26_stereo_44KHz.wav
4	137	2	1	0	C	2	0	942	0	poli_8sides 5_whiteLine3.jpg	Medium_e26_stereo_44KHz.wav
4	138	4	4	2	I	2	0	1191	1	poli_8sides 9_whiteLine3.jpg	Medium_e01_cut1_stereo_44KHz.wav
4	139	1	2	0	C	1	1	1130	1	poli_8sides 10_whiteLine3.jpg	MediumLong_e04_stereo_44KHz.wav
4	140	3	3	2	I	1	0	1108	1	poli_8sides 6_whiteLine3.jpg	MediumLong_e17_cut2_stereo_44KHz.wav
4	141	1	1	1	C	2	1	952	1	poli_8sides 10_whiteLine3.jpg	Medium_e26_stereo_44KHz.wav
4	142	4	3	2	I	2	0	1103	1	poli_8sides 9_whiteLine3.jpg	MediumLong_e17_cut2_stereo_44KHz.wav
4	143	2	2	1	C	2	1	1024	1	poli_8sides 5_whiteLine3.jpg	MediumLong_e04_stereo_44KHz.wav
4	144	3	4	2	I	1	0	878	1	poli_8sides 6_whiteLine3.jpg	Medium_e01_cut1_stereo_44KHz.wav
4	145	1	2	0	C	2	0	600	0	poli_8sides 10_whiteLine3.jpg	MediumLong_e04_stereo_44KHz.wav
4	146	2	1	0	C	2	0	896	0	poli_8sides 5_whiteLine3.jpg	Medium_e26_stereo_44KHz.wav
4	147	3	4	2	I	1	0	1398	1	poli_8sides 6_whiteLine3.jpg	Medium_e01_cut1_stereo_44KHz.wav
4	148	4	4	2	I	2	0	832	1	poli_8sides 9_whiteLine3.jpg	Medium_e01_cut1_stereo_44KHz.wav
4	149	3	3	2	I	1	0	1080	0	poli_8sides 6_whiteLine3.jpg	MediumLong_e17_cut2_stereo_44KHz.wav
4	150	1	1	1	C	2	1	1448	1	poli_8sides 10_whiteLine3.jpg	Medium_e26_stereo_44KHz.wav
4	151	4	3	2	I	2	0	1016	1	poli_8sides 9_whiteLine3.jpg	MediumLong_e17_cut2_stereo_44KHz.wav
4	152	2	2	1	C	2	1	811	1	poli_8sides 5_whiteLine3.jpg	MediumLong_e04_stereo_44KHz.wav
4	153	1	1	1	C	2	1	1251	1	poli_8sides 10_whiteLine3.jpg	Medium_e26_stereo_44KHz.wav
4	154	4	4	2	I	2	0	761	0	poli_8sides 9_whiteLine3.jpg	Medium_e01_cut1_stereo_44KHz.wav
4	155	2	1	0	C	1	1	1137	1	poli_8sides 5_whiteLine3.jpg	Medium_e26_stereo_44KHz.wav
4	156	3	3	2	I	2	0	1052	0	poli_8sides 6_whiteLine3.jpg	MediumLong_e17_cut2_stereo_44KHz.wav
4	157	2	2	1	C	2	1	1557	1	poli_8sides 5_whiteLine3.jpg	MediumLong_e04_stereo_44KHz.wav
4	158	4	3	2	I	1	0	1060	0	poli_8sides 9_whiteLine3.jpg	MediumLong_e17_cut2_stereo_44KHz.wav
4	159	1	2	0	C	2	0	1033	0	poli_8sides 10_whiteLine3.jpg	MediumLong_e04_stereo_44KHz.wav
4	160	3	4	2	I	1	0	1279	0	poli_8sides 6_whiteLine3.jpg	Medium_e01_cut1_stereo_44KHz.wav
4	161	4	3	2	I	2	0	1337	1	poli_8sides 9_whiteLine3.jpg	MediumLong_e17_cut2_stereo_44KHz.wav
4	162	3	3	2	I	2	0	904	1	poli_8sides 6_whiteLine3.jpg	MediumLong_e17_cut2_stereo_44KHz.wav
4	163	1	2	0	C	1	1	709	1	poli_8sides 10_whiteLine3.jpg	MediumLong_e04_stereo_44KHz.wav
4	164	2	1	0	C	1	1	661	1	poli_8sides 5_whiteLine3.jpg	Medium_e26_stereo_44KHz.wav
4	165	4	4	2	I	2	0	927	0	poli_8sides 9_whiteLine3.jpg	Medium_e01_cut1_stereo_44KHz.wav
4	166	3	4	2	I	2	0	999	1	poli_8sides 6_whiteLine3.jpg	Medium_e01_cut1_stereo_44KHz.wav
4	167	1	1	1	C	2	1	936	1	poli_8sides 10_whiteLine3.jpg	Medium_e26_stereo_44KHz.wav
4	168	2	2	1	C	2	1	815	1	poli_8sides 5_whiteLine3.jpg	MediumLong_e04_stereo_44KHz.wav
4	169	3	4	2	I	1	0	874	0	poli_8sides 6_whiteLine3.jpg	Medium_e01_cut1_stereo_44KHz.wav
4	170	1	2	0	C	1	1	1126	1	poli_8sides 10_whiteLine3.jpg	MediumLong_e04_stereo_44KHz.wav
4	171	4	4	2	I	1	0	800	0	poli_8sides 9_whiteLine3.jpg	Medium_e01_cut1_stereo_44KHz.wav
4	172	2	2	1	C	2	1	1664	1	poli_8sides 5_whiteLine3.jpg	MediumLong_e04_stereo_44KHz.wav
4	173	4	3	2	I	1	0	1195	0	poli_8sides 9_whiteLine3.jpg	MediumLong_e17_cut2_stereo_44KHz.wav
4	174	3	3	2	I	1	0	1047	0	poli_8sides 6_whiteLine3.jpg	MediumLong_e17_cut2_stereo_44KHz.wav
4	175	2	1	0	C	2	0	935	0	poli_8sides 5_whiteLine3.jpg	Medium_e26_stereo_44KHz.wav
4	176	1	1	1	C	2	1	819	1	poli_8sides 10_whiteLine3.jpg	Medium_e26_stereo_44KHz.wav
4	177	2	1	0	C	2	0	877	0	poli_8sides 5_whiteLine3.jpg	Medium_e26_stereo_44KHz.wav
4	178	1	1	1	C	2	1	981	1	poli_8sides 10_whiteLine3.jpg	Medium_e26_stereo_44KHz.wav
4	179	3	4	2	I	1	0	872	0	poli_8sides 6_whiteLine3.jpg	Medium_e01_cut1_stereo_44KHz.wav
4	180	4	4	2	I	1	0	841	0	poli_8sides 9_whiteLine3.jpg	Medium_e01_cut1_stereo_44KHz.wav
4	181	2	2	1	C	2	1	1185	1	poli_8sides 5_whiteLine3.jpg	MediumLong_e04_stereo_44KHz.wav
4	182	4	3	2	I	1	0	828	0	poli_8sides 9_whiteLine3.jpg	MediumLong_e17_cut2_stereo_44KHz.wav
4	183	3	3	2	I	1	0	707	0	poli_8sides 6_whiteLine3.jpg	MediumLong_e17_cut2_stereo_44KHz.wav
4	184	1	2	0	C	1	1	1169	1	poli_8sides 10_whiteLine3.jpg	MediumLong_e04_stereo_44KHz.wav
4	185	3	4	2	I	1	0	972	1	poli_8sides 6_whiteLine3.jpg	Medium_e01_cut1_stereo_44KHz.wav
4	186	4	3	2	I	1	0	600	1	poli_8sides 9_whiteLine3.jpg	MediumLong_e17_cut2_stereo_44KHz.wav
4	187	1	2	0	C	1	1	683	1	poli_8sides 10_whiteLine3.jpg	MediumLong_e04_stereo_44KHz.wav
4	188	2	1	0	C	1	1	786	1	poli_8sides 5_whiteLine3.jpg	Medium_e26_stereo_44KHz.wav
4	189	1	1	1	C	2	1	980	1	poli_8sides 10_whiteLine3.jpg	Medium_e26_stereo_44KHz.wav
4	190	3	3	2	I	2	0	1071	1	poli_8sides 6_whiteLine3.jpg	MediumLong_e17_cut2_stereo_44KHz.wav
4	191	4	4	2	I	2	0	551	0	poli_8sides 9_whiteLine3.jpg	Medium_e01_cut1_stereo_44KHz.wav
4	192	2	2	1	C	2	1	938	1	poli_8sides 5_whiteLine3.jpg	MediumLong_e04_stereo_44KHz.wav
4	193	1	2	0	C	2	0	732	0	poli_8sides 10_whiteLine3.jpg	MediumLong_e04_stereo_44KHz.wav
4	194	3	3	2	I	2	0	1597	0	poli_8sides 6_whiteLine3.jpg	MediumLong_e17_cut2_stereo_44KHz.wav
4	195	2	1	0	C	2	0	864	0	poli_8sides 5_whiteLine3.jpg	Medium_e26_stereo_44KHz.wav
4	196	4	4	2	I	1	0	808	0	poli_8sides 9_whiteLine3.jpg	Medium_e01_cut1_stereo_44KHz.wav
4	197	2	2	1	C	2	1	1568	1	poli_8sides 5_whiteLine3.jpg	MediumLong_e04_stereo_44KHz.wav
4	198	4	3	2	I	2	0	1957	0	poli_8sides 9_whiteLine3.jpg	MediumLong_e17_cut2_stereo_44KHz.wav
4	199	1	1	1	C	2	1	1145	1	poli_8sides 10_whiteLine3.jpg	Medium_e26_stereo_44KHz.wav
4	200	3	4	2	I	0	0	0	0	poli_8sides 6_whiteLine3.jpg	Medium_e01_cut1_stereo_44KHz.wav
