block	trial	Vstim	Astim	match	C/I	resp	result	RT	fb	V-file	A-file
RL

0	1	2	4	0	C	0	0	0	0	poli_8sides 21_whiteLine3.jpg	Practice2_b27_cut2_stereo_44KHz.wav
0	2	1	1	1	C	2	0	1895	0	poli_8sides 23_whiteLine3.jpg	Practice1_b27_cut1_stereo_44KHz.wav
0	3	2	3	1	C	2	0	689	0	poli_8sides 21_whiteLine3.jpg	Practice4_b26_stereo_44KHz.wav
0	4	1	2	0	C	1	0	763	0	poli_8sides 23_whiteLine3.jpg	Practice3_b26_cut1_stereo_44KHz.wav
0	5	1	1	1	C	2	0	682	0	poli_8sides 23_whiteLine3.jpg	Practice1_b27_cut1_stereo_44KHz.wav
0	6	1	2	0	C	2	1	714	1	poli_8sides 23_whiteLine3.jpg	Practice3_b26_cut1_stereo_44KHz.wav
0	7	2	4	0	C	2	1	767	1	poli_8sides 21_whiteLine3.jpg	Practice2_b27_cut2_stereo_44KHz.wav
0	8	2	3	1	C	1	1	894	1	poli_8sides 21_whiteLine3.jpg	Practice4_b26_stereo_44KHz.wav
0	9	1	2	0	C	2	1	968	1	poli_8sides 23_whiteLine3.jpg	Practice3_b26_cut1_stereo_44KHz.wav
0	10	2	4	0	C	2	1	639	1	poli_8sides 21_whiteLine3.jpg	Practice2_b27_cut2_stereo_44KHz.wav
0	11	2	3	1	C	1	1	1102	1	poli_8sides 21_whiteLine3.jpg	Practice4_b26_stereo_44KHz.wav
0	12	1	1	1	C	1	1	1334	1	poli_8sides 23_whiteLine3.jpg	Practice1_b27_cut1_stereo_44KHz.wav
0	13	2	3	1	C	2	0	918	0	poli_8sides 21_whiteLine3.jpg	Practice4_b26_stereo_44KHz.wav
0	14	2	4	0	C	2	1	928	1	poli_8sides 21_whiteLine3.jpg	Practice2_b27_cut2_stereo_44KHz.wav
0	15	1	2	0	C	2	1	815	1	poli_8sides 23_whiteLine3.jpg	Practice3_b26_cut1_stereo_44KHz.wav
0	16	1	1	1	C	1	1	741	1	poli_8sides 23_whiteLine3.jpg	Practice1_b27_cut1_stereo_44KHz.wav
0	17	2	4	0	C	2	1	857	1	poli_8sides 21_whiteLine3.jpg	Practice2_b27_cut2_stereo_44KHz.wav
0	18	2	3	1	C	2	0	883	0	poli_8sides 21_whiteLine3.jpg	Practice4_b26_stereo_44KHz.wav
0	19	1	1	1	C	1	1	1101	1	poli_8sides 23_whiteLine3.jpg	Practice1_b27_cut1_stereo_44KHz.wav
0	20	1	2	0	C	1	0	1158	0	poli_8sides 23_whiteLine3.jpg	Practice3_b26_cut1_stereo_44KHz.wav
0	21	1	2	0	C	2	1	1103	1	poli_8sides 23_whiteLine3.jpg	Practice3_b26_cut1_stereo_44KHz.wav
0	22	2	3	1	C	1	1	1222	1	poli_8sides 21_whiteLine3.jpg	Practice4_b26_stereo_44KHz.wav
0	23	1	1	1	C	1	1	914	1	poli_8sides 23_whiteLine3.jpg	Practice1_b27_cut1_stereo_44KHz.wav
0	24	2	4	0	C	2	1	765	1	poli_8sides 21_whiteLine3.jpg	Practice2_b27_cut2_stereo_44KHz.wav
0	25	1	1	1	C	1	1	1073	1	poli_8sides 23_whiteLine3.jpg	Practice1_b27_cut1_stereo_44KHz.wav
0	26	2	3	1	C	1	1	1117	1	poli_8sides 21_whiteLine3.jpg	Practice4_b26_stereo_44KHz.wav
0	27	1	2	0	C	2	1	1886	1	poli_8sides 23_whiteLine3.jpg	Practice3_b26_cut1_stereo_44KHz.wav
0	28	2	4	0	C	2	1	741	1	poli_8sides 21_whiteLine3.jpg	Practice2_b27_cut2_stereo_44KHz.wav
0	29	1	1	1	C	1	1	1101	1	poli_8sides 23_whiteLine3.jpg	Practice1_b27_cut1_stereo_44KHz.wav
0	30	2	4	0	C	2	1	892	1	poli_8sides 21_whiteLine3.jpg	Practice2_b27_cut2_stereo_44KHz.wav
avg_resp = 985
1	1	3	3	2	I	2	0	1476	0	poli_8sides 11_whiteLine3.jpg	MediumShort_b10_cut1_MS_stereo_44KHz.wav
1	2	1	2	0	C	2	1	1173	1	poli_8sides 15_whiteLine3.jpg	MediumShort_b16_cut3_MS_stereo_44KHz.wav
1	3	4	3	2	I	2	0	1205	0	poli_8sides 9_whiteLine3.jpg	MediumShort_b10_cut1_MS_stereo_44KHz.wav
1	4	2	2	1	C	2	0	1040	0	poli_8sides 5_whiteLine3.jpg	MediumShort_b16_cut3_MS_stereo_44KHz.wav
1	5	4	4	2	I	2	0	780	1	poli_8sides 9_whiteLine3.jpg	MediumShort_e22_cut1_stereo_44KHz.wav
1	6	1	1	1	C	2	0	980	0	poli_8sides 15_whiteLine3.jpg	MediumShort_e16_cut1_stereo_44KHz.wav
1	7	3	4	2	I	2	0	969	0	poli_8sides 11_whiteLine3.jpg	MediumShort_e22_cut1_stereo_44KHz.wav
1	8	2	1	0	C	2	1	1012	1	poli_8sides 5_whiteLine3.jpg	MediumShort_e16_cut1_stereo_44KHz.wav
1	9	1	1	1	C	0	0	0	0	poli_8sides 15_whiteLine3.jpg	MediumShort_e16_cut1_stereo_44KHz.wav
1	10	4	4	2	I	2	0	757	1	poli_8sides 9_whiteLine3.jpg	MediumShort_e22_cut1_stereo_44KHz.wav
1	11	3	3	2	I	1	0	1043	1	poli_8sides 11_whiteLine3.jpg	MediumShort_b10_cut1_MS_stereo_44KHz.wav
1	12	2	2	1	C	2	0	1374	0	poli_8sides 5_whiteLine3.jpg	MediumShort_b16_cut3_MS_stereo_44KHz.wav
1	13	4	3	2	I	2	0	996	0	poli_8sides 9_whiteLine3.jpg	MediumShort_b10_cut1_MS_stereo_44KHz.wav
1	14	1	2	0	C	1	0	1437	0	poli_8sides 15_whiteLine3.jpg	MediumShort_b16_cut3_MS_stereo_44KHz.wav
1	15	3	4	2	I	2	0	1161	0	poli_8sides 11_whiteLine3.jpg	MediumShort_e22_cut1_stereo_44KHz.wav
1	16	2	1	0	C	2	1	1399	1	poli_8sides 5_whiteLine3.jpg	MediumShort_e16_cut1_stereo_44KHz.wav
1	17	1	2	0	C	1	0	1139	0	poli_8sides 15_whiteLine3.jpg	MediumShort_b16_cut3_MS_stereo_44KHz.wav
1	18	3	4	2	I	1	0	1262	1	poli_8sides 11_whiteLine3.jpg	MediumShort_e22_cut1_stereo_44KHz.wav
1	19	4	3	2	I	2	0	1120	0	poli_8sides 9_whiteLine3.jpg	MediumShort_b10_cut1_MS_stereo_44KHz.wav
1	20	2	1	0	C	2	1	1616	1	poli_8sides 5_whiteLine3.jpg	MediumShort_e16_cut1_stereo_44KHz.wav
1	21	1	1	1	C	1	1	888	1	poli_8sides 15_whiteLine3.jpg	MediumShort_e16_cut1_stereo_44KHz.wav
1	22	3	3	2	I	2	0	1308	0	poli_8sides 11_whiteLine3.jpg	MediumShort_b10_cut1_MS_stereo_44KHz.wav
1	23	4	4	2	I	1	0	1610	1	poli_8sides 9_whiteLine3.jpg	MediumShort_e22_cut1_stereo_44KHz.wav
1	24	2	2	1	C	1	1	1395	1	poli_8sides 5_whiteLine3.jpg	MediumShort_b16_cut3_MS_stereo_44KHz.wav
1	25	3	4	2	I	1	0	1450	0	poli_8sides 11_whiteLine3.jpg	MediumShort_e22_cut1_stereo_44KHz.wav
1	26	4	3	2	I	2	0	1382	1	poli_8sides 9_whiteLine3.jpg	MediumShort_b10_cut1_MS_stereo_44KHz.wav
1	27	2	2	1	C	1	1	989	1	poli_8sides 5_whiteLine3.jpg	MediumShort_b16_cut3_MS_stereo_44KHz.wav
1	28	1	2	0	C	1	0	1107	0	poli_8sides 15_whiteLine3.jpg	MediumShort_b16_cut3_MS_stereo_44KHz.wav
1	29	4	4	2	I	1	0	1336	0	poli_8sides 9_whiteLine3.jpg	MediumShort_e22_cut1_stereo_44KHz.wav
1	30	3	3	2	I	1	0	1406	0	poli_8sides 11_whiteLine3.jpg	MediumShort_b10_cut1_MS_stereo_44KHz.wav
1	31	1	1	1	C	1	1	1160	1	poli_8sides 15_whiteLine3.jpg	MediumShort_e16_cut1_stereo_44KHz.wav
1	32	2	1	0	C	2	1	635	1	poli_8sides 5_whiteLine3.jpg	MediumShort_e16_cut1_stereo_44KHz.wav
1	33	1	2	0	C	2	1	1264	1	poli_8sides 15_whiteLine3.jpg	MediumShort_b16_cut3_MS_stereo_44KHz.wav
1	34	3	4	2	I	1	0	1513	0	poli_8sides 11_whiteLine3.jpg	MediumShort_e22_cut1_stereo_44KHz.wav
1	35	2	2	1	C	1	1	980	1	poli_8sides 5_whiteLine3.jpg	MediumShort_b16_cut3_MS_stereo_44KHz.wav
1	36	4	4	2	I	1	0	1152	1	poli_8sides 9_whiteLine3.jpg	MediumShort_e22_cut1_stereo_44KHz.wav
1	37	3	3	2	I	1	0	1597	0	poli_8sides 11_whiteLine3.jpg	MediumShort_b10_cut1_MS_stereo_44KHz.wav
1	38	4	3	2	I	1	0	928	0	poli_8sides 9_whiteLine3.jpg	MediumShort_b10_cut1_MS_stereo_44KHz.wav
1	39	2	1	0	C	2	1	1196	1	poli_8sides 5_whiteLine3.jpg	MediumShort_e16_cut1_stereo_44KHz.wav
1	40	1	1	1	C	1	1	1808	1	poli_8sides 15_whiteLine3.jpg	MediumShort_e16_cut1_stereo_44KHz.wav
1	41	4	4	2	I	1	0	1580	0	poli_8sides 9_whiteLine3.jpg	MediumShort_e22_cut1_stereo_44KHz.wav
1	42	3	4	2	I	1	0	1430	0	poli_8sides 11_whiteLine3.jpg	MediumShort_e22_cut1_stereo_44KHz.wav
1	43	2	2	1	C	1	1	972	1	poli_8sides 5_whiteLine3.jpg	MediumShort_b16_cut3_MS_stereo_44KHz.wav
1	44	1	1	1	C	1	1	1956	1	poli_8sides 15_whiteLine3.jpg	MediumShort_e16_cut1_stereo_44KHz.wav
1	45	3	3	2	I	2	0	1163	1	poli_8sides 11_whiteLine3.jpg	MediumShort_b10_cut1_MS_stereo_44KHz.wav
1	46	1	2	0	C	1	0	1156	0	poli_8sides 15_whiteLine3.jpg	MediumShort_b16_cut3_MS_stereo_44KHz.wav
1	47	4	3	2	I	1	0	874	0	poli_8sides 9_whiteLine3.jpg	MediumShort_b10_cut1_MS_stereo_44KHz.wav
1	48	2	1	0	C	2	1	1209	1	poli_8sides 5_whiteLine3.jpg	MediumShort_e16_cut1_stereo_44KHz.wav
1	49	4	3	2	I	2	0	946	0	poli_8sides 9_whiteLine3.jpg	MediumShort_b10_cut1_MS_stereo_44KHz.wav
1	50	1	2	0	C	2	1	1435	1	poli_8sides 15_whiteLine3.jpg	MediumShort_b16_cut3_MS_stereo_44KHz.wav
1	51	2	1	0	C	2	1	1301	1	poli_8sides 5_whiteLine3.jpg	MediumShort_e16_cut1_stereo_44KHz.wav
1	52	3	4	2	I	2	0	869	1	poli_8sides 11_whiteLine3.jpg	MediumShort_e22_cut1_stereo_44KHz.wav
1	53	2	2	1	C	1	1	1445	1	poli_8sides 5_whiteLine3.jpg	MediumShort_b16_cut3_MS_stereo_44KHz.wav
1	54	3	3	2	I	1	0	1512	0	poli_8sides 11_whiteLine3.jpg	MediumShort_b10_cut1_MS_stereo_44KHz.wav
1	55	4	4	2	I	0	0	0	0	poli_8sides 9_whiteLine3.jpg	MediumShort_e22_cut1_stereo_44KHz.wav
1	56	1	1	1	C	1	1	1132	1	poli_8sides 15_whiteLine3.jpg	MediumShort_e16_cut1_stereo_44KHz.wav
1	57	2	2	1	C	1	1	847	1	poli_8sides 5_whiteLine3.jpg	MediumShort_b16_cut3_MS_stereo_44KHz.wav
1	58	3	4	2	I	2	0	818	1	poli_8sides 11_whiteLine3.jpg	MediumShort_e22_cut1_stereo_44KHz.wav
1	59	1	2	0	C	2	1	1622	1	poli_8sides 15_whiteLine3.jpg	MediumShort_b16_cut3_MS_stereo_44KHz.wav
1	60	4	4	2	I	1	0	991	1	poli_8sides 9_whiteLine3.jpg	MediumShort_e22_cut1_stereo_44KHz.wav
1	61	1	1	1	C	1	1	999	1	poli_8sides 15_whiteLine3.jpg	MediumShort_e16_cut1_stereo_44KHz.wav
1	62	3	3	2	I	2	0	927	1	poli_8sides 11_whiteLine3.jpg	MediumShort_b10_cut1_MS_stereo_44KHz.wav
1	63	4	3	2	I	1	0	1775	1	poli_8sides 9_whiteLine3.jpg	MediumShort_b10_cut1_MS_stereo_44KHz.wav
1	64	2	1	0	C	2	1	705	1	poli_8sides 5_whiteLine3.jpg	MediumShort_e16_cut1_stereo_44KHz.wav
1	65	4	4	2	I	1	0	1353	0	poli_8sides 9_whiteLine3.jpg	MediumShort_e22_cut1_stereo_44KHz.wav
1	66	2	1	0	C	2	1	624	1	poli_8sides 5_whiteLine3.jpg	MediumShort_e16_cut1_stereo_44KHz.wav
1	67	1	2	0	C	2	1	1279	1	poli_8sides 15_whiteLine3.jpg	MediumShort_b16_cut3_MS_stereo_44KHz.wav
1	68	3	3	2	I	2	0	1060	1	poli_8sides 11_whiteLine3.jpg	MediumShort_b10_cut1_MS_stereo_44KHz.wav
1	69	1	1	1	C	1	1	750	1	poli_8sides 15_whiteLine3.jpg	MediumShort_e16_cut1_stereo_44KHz.wav
1	70	2	2	1	C	1	1	1402	1	poli_8sides 5_whiteLine3.jpg	MediumShort_b16_cut3_MS_stereo_44KHz.wav
1	71	4	3	2	I	2	0	1206	0	poli_8sides 9_whiteLine3.jpg	MediumShort_b10_cut1_MS_stereo_44KHz.wav
1	72	3	4	2	I	2	0	737	0	poli_8sides 11_whiteLine3.jpg	MediumShort_e22_cut1_stereo_44KHz.wav
1	73	4	4	2	I	2	0	910	1	poli_8sides 9_whiteLine3.jpg	MediumShort_e22_cut1_stereo_44KHz.wav
1	74	3	4	2	I	2	0	967	1	poli_8sides 11_whiteLine3.jpg	MediumShort_e22_cut1_stereo_44KHz.wav
1	75	2	1	0	C	2	1	1525	1	poli_8sides 5_whiteLine3.jpg	MediumShort_e16_cut1_stereo_44KHz.wav
1	76	1	2	0	C	1	0	1275	0	poli_8sides 15_whiteLine3.jpg	MediumShort_b16_cut3_MS_stereo_44KHz.wav
1	77	2	2	1	C	1	1	900	1	poli_8sides 5_whiteLine3.jpg	MediumShort_b16_cut3_MS_stereo_44KHz.wav
1	78	4	3	2	I	2	0	757	1	poli_8sides 9_whiteLine3.jpg	MediumShort_b10_cut1_MS_stereo_44KHz.wav
1	79	1	1	1	C	1	1	1364	1	poli_8sides 15_whiteLine3.jpg	MediumShort_e16_cut1_stereo_44KHz.wav
1	80	3	3	2	I	2	0	830	0	poli_8sides 11_whiteLine3.jpg	MediumShort_b10_cut1_MS_stereo_44KHz.wav
1	81	1	2	0	C	2	1	1124	1	poli_8sides 15_whiteLine3.jpg	MediumShort_b16_cut3_MS_stereo_44KHz.wav
1	82	3	4	2	I	2	0	696	1	poli_8sides 11_whiteLine3.jpg	MediumShort_e22_cut1_stereo_44KHz.wav
1	83	4	3	2	I	2	0	891	1	poli_8sides 9_whiteLine3.jpg	MediumShort_b10_cut1_MS_stereo_44KHz.wav
1	84	2	2	1	C	1	1	1348	1	poli_8sides 5_whiteLine3.jpg	MediumShort_b16_cut3_MS_stereo_44KHz.wav
1	85	1	1	1	C	1	1	1256	1	poli_8sides 15_whiteLine3.jpg	MediumShort_e16_cut1_stereo_44KHz.wav
1	86	4	4	2	I	1	0	911	0	poli_8sides 9_whiteLine3.jpg	MediumShort_e22_cut1_stereo_44KHz.wav
1	87	2	1	0	C	2	1	918	1	poli_8sides 5_whiteLine3.jpg	MediumShort_e16_cut1_stereo_44KHz.wav
1	88	3	3	2	I	1	0	1536	0	poli_8sides 11_whiteLine3.jpg	MediumShort_b10_cut1_MS_stereo_44KHz.wav
1	89	4	4	2	I	2	0	1248	0	poli_8sides 9_whiteLine3.jpg	MediumShort_e22_cut1_stereo_44KHz.wav
1	90	1	1	1	C	1	1	1447	1	poli_8sides 15_whiteLine3.jpg	MediumShort_e16_cut1_stereo_44KHz.wav
1	91	2	1	0	C	2	1	834	1	poli_8sides 5_whiteLine3.jpg	MediumShort_e16_cut1_stereo_44KHz.wav
1	92	3	3	2	I	2	0	1345	0	poli_8sides 11_whiteLine3.jpg	MediumShort_b10_cut1_MS_stereo_44KHz.wav
1	93	4	3	2	I	1	0	968	0	poli_8sides 9_whiteLine3.jpg	MediumShort_b10_cut1_MS_stereo_44KHz.wav
1	94	1	2	0	C	2	1	1786	1	poli_8sides 15_whiteLine3.jpg	MediumShort_b16_cut3_MS_stereo_44KHz.wav
1	95	2	2	1	C	1	1	808	1	poli_8sides 5_whiteLine3.jpg	MediumShort_b16_cut3_MS_stereo_44KHz.wav
1	96	3	4	2	I	2	0	1191	0	poli_8sides 11_whiteLine3.jpg	MediumShort_e22_cut1_stereo_44KHz.wav
1	97	2	1	0	C	2	1	987	1	poli_8sides 5_whiteLine3.jpg	MediumShort_e16_cut1_stereo_44KHz.wav
1	98	4	4	2	I	1	0	1489	1	poli_8sides 9_whiteLine3.jpg	MediumShort_e22_cut1_stereo_44KHz.wav
1	99	3	3	2	I	1	0	1936	0	poli_8sides 11_whiteLine3.jpg	MediumShort_b10_cut1_MS_stereo_44KHz.wav
1	100	1	2	0	C	2	1	1513	1	poli_8sides 15_whiteLine3.jpg	MediumShort_b16_cut3_MS_stereo_44KHz.wav
1	101	4	3	2	I	2	0	1042	1	poli_8sides 9_whiteLine3.jpg	MediumShort_b10_cut1_MS_stereo_44KHz.wav
1	102	1	1	1	C	1	1	1373	1	poli_8sides 15_whiteLine3.jpg	MediumShort_e16_cut1_stereo_44KHz.wav
1	103	2	2	1	C	1	1	1333	1	poli_8sides 5_whiteLine3.jpg	MediumShort_b16_cut3_MS_stereo_44KHz.wav
1	104	3	4	2	I	2	0	938	0	poli_8sides 11_whiteLine3.jpg	MediumShort_e22_cut1_stereo_44KHz.wav
1	105	1	1	1	C	1	1	1001	1	poli_8sides 15_whiteLine3.jpg	MediumShort_e16_cut1_stereo_44KHz.wav
1	106	4	4	2	I	1	0	1280	1	poli_8sides 9_whiteLine3.jpg	MediumShort_e22_cut1_stereo_44KHz.wav
1	107	2	2	1	C	1	1	1114	1	poli_8sides 5_whiteLine3.jpg	MediumShort_b16_cut3_MS_stereo_44KHz.wav
1	108	3	3	2	I	2	0	1264	0	poli_8sides 11_whiteLine3.jpg	MediumShort_b10_cut1_MS_stereo_44KHz.wav
1	109	2	1	0	C	2	1	1743	1	poli_8sides 5_whiteLine3.jpg	MediumShort_e16_cut1_stereo_44KHz.wav
1	110	4	3	2	I	2	0	1389	1	poli_8sides 9_whiteLine3.jpg	MediumShort_b10_cut1_MS_stereo_44KHz.wav
1	111	3	4	2	I	1	0	1204	1	poli_8sides 11_whiteLine3.jpg	MediumShort_e22_cut1_stereo_44KHz.wav
1	112	1	2	0	C	2	1	1040	1	poli_8sides 15_whiteLine3.jpg	MediumShort_b16_cut3_MS_stereo_44KHz.wav
1	113	4	4	2	I	1	0	1350	0	poli_8sides 9_whiteLine3.jpg	MediumShort_e22_cut1_stereo_44KHz.wav
1	114	3	3	2	I	1	0	1423	1	poli_8sides 11_whiteLine3.jpg	MediumShort_b10_cut1_MS_stereo_44KHz.wav
1	115	2	1	0	C	2	1	687	1	poli_8sides 5_whiteLine3.jpg	MediumShort_e16_cut1_stereo_44KHz.wav
1	116	1	2	0	C	2	1	1029	1	poli_8sides 15_whiteLine3.jpg	MediumShort_b16_cut3_MS_stereo_44KHz.wav
1	117	2	2	1	C	1	1	703	1	poli_8sides 5_whiteLine3.jpg	MediumShort_b16_cut3_MS_stereo_44KHz.wav
1	118	3	4	2	I	1	0	1278	1	poli_8sides 11_whiteLine3.jpg	MediumShort_e22_cut1_stereo_44KHz.wav
1	119	4	3	2	I	2	0	1370	1	poli_8sides 9_whiteLine3.jpg	MediumShort_b10_cut1_MS_stereo_44KHz.wav
1	120	1	1	1	C	1	1	955	1	poli_8sides 15_whiteLine3.jpg	MediumShort_e16_cut1_stereo_44KHz.wav
1	121	4	3	2	I	2	0	973	0	poli_8sides 9_whiteLine3.jpg	MediumShort_b10_cut1_MS_stereo_44KHz.wav
1	122	2	2	1	C	2	0	951	0	poli_8sides 5_whiteLine3.jpg	MediumShort_b16_cut3_MS_stereo_44KHz.wav
1	123	3	4	2	I	1	0	1070	1	poli_8sides 11_whiteLine3.jpg	MediumShort_e22_cut1_stereo_44KHz.wav
1	124	1	1	1	C	1	1	1239	1	poli_8sides 15_whiteLine3.jpg	MediumShort_e16_cut1_stereo_44KHz.wav
1	125	2	1	0	C	2	1	773	1	poli_8sides 5_whiteLine3.jpg	MediumShort_e16_cut1_stereo_44KHz.wav
1	126	1	2	0	C	2	1	1354	1	poli_8sides 15_whiteLine3.jpg	MediumShort_b16_cut3_MS_stereo_44KHz.wav
1	127	3	3	2	I	1	0	1951	0	poli_8sides 11_whiteLine3.jpg	MediumShort_b10_cut1_MS_stereo_44KHz.wav
1	128	4	4	2	I	2	0	1173	0	poli_8sides 9_whiteLine3.jpg	MediumShort_e22_cut1_stereo_44KHz.wav
1	129	2	2	1	C	1	1	1107	1	poli_8sides 5_whiteLine3.jpg	MediumShort_b16_cut3_MS_stereo_44KHz.wav
1	130	4	4	2	I	1	0	1584	1	poli_8sides 9_whiteLine3.jpg	MediumShort_e22_cut1_stereo_44KHz.wav
1	131	3	4	2	I	2	0	1221	0	poli_8sides 11_whiteLine3.jpg	MediumShort_e22_cut1_stereo_44KHz.wav
1	132	1	2	0	C	1	0	1258	0	poli_8sides 15_whiteLine3.jpg	MediumShort_b16_cut3_MS_stereo_44KHz.wav
1	133	4	3	2	I	2	0	1218	0	poli_8sides 9_whiteLine3.jpg	MediumShort_b10_cut1_MS_stereo_44KHz.wav
1	134	3	3	2	I	2	0	1102	1	poli_8sides 11_whiteLine3.jpg	MediumShort_b10_cut1_MS_stereo_44KHz.wav
1	135	2	1	0	C	2	1	926	1	poli_8sides 5_whiteLine3.jpg	MediumShort_e16_cut1_stereo_44KHz.wav
1	136	1	1	1	C	1	1	1755	1	poli_8sides 15_whiteLine3.jpg	MediumShort_e16_cut1_stereo_44KHz.wav
1	137	4	4	2	I	2	0	1011	0	poli_8sides 9_whiteLine3.jpg	MediumShort_e22_cut1_stereo_44KHz.wav
1	138	1	1	1	C	1	1	1247	1	poli_8sides 15_whiteLine3.jpg	MediumShort_e16_cut1_stereo_44KHz.wav
1	139	3	4	2	I	2	0	1271	1	poli_8sides 11_whiteLine3.jpg	MediumShort_e22_cut1_stereo_44KHz.wav
1	140	2	2	1	C	1	1	1051	1	poli_8sides 5_whiteLine3.jpg	MediumShort_b16_cut3_MS_stereo_44KHz.wav
1	141	3	3	2	I	2	0	1168	1	poli_8sides 11_whiteLine3.jpg	MediumShort_b10_cut1_MS_stereo_44KHz.wav
1	142	2	1	0	C	2	1	961	1	poli_8sides 5_whiteLine3.jpg	MediumShort_e16_cut1_stereo_44KHz.wav
1	143	1	2	0	C	2	1	1789	1	poli_8sides 15_whiteLine3.jpg	MediumShort_b16_cut3_MS_stereo_44KHz.wav
1	144	4	3	2	I	2	0	1366	1	poli_8sides 9_whiteLine3.jpg	MediumShort_b10_cut1_MS_stereo_44KHz.wav
1	145	3	4	2	I	2	0	1146	0	poli_8sides 11_whiteLine3.jpg	MediumShort_e22_cut1_stereo_44KHz.wav
1	146	1	2	0	C	0	0	0	0	poli_8sides 15_whiteLine3.jpg	MediumShort_b16_cut3_MS_stereo_44KHz.wav
1	147	2	2	1	C	1	1	746	1	poli_8sides 5_whiteLine3.jpg	MediumShort_b16_cut3_MS_stereo_44KHz.wav
1	148	4	4	2	I	1	0	889	1	poli_8sides 9_whiteLine3.jpg	MediumShort_e22_cut1_stereo_44KHz.wav
1	149	3	3	2	I	2	0	941	1	poli_8sides 11_whiteLine3.jpg	MediumShort_b10_cut1_MS_stereo_44KHz.wav
1	150	1	1	1	C	1	1	979	1	poli_8sides 15_whiteLine3.jpg	MediumShort_e16_cut1_stereo_44KHz.wav
1	151	4	3	2	I	2	0	1027	0	poli_8sides 9_whiteLine3.jpg	MediumShort_b10_cut1_MS_stereo_44KHz.wav
1	152	2	1	0	C	2	1	904	1	poli_8sides 5_whiteLine3.jpg	MediumShort_e16_cut1_stereo_44KHz.wav
1	153	4	4	2	I	1	0	882	1	poli_8sides 9_whiteLine3.jpg	MediumShort_e22_cut1_stereo_44KHz.wav
1	154	1	2	0	C	2	1	806	1	poli_8sides 15_whiteLine3.jpg	MediumShort_b16_cut3_MS_stereo_44KHz.wav
1	155	3	3	2	I	2	0	1084	1	poli_8sides 11_whiteLine3.jpg	MediumShort_b10_cut1_MS_stereo_44KHz.wav
1	156	2	1	0	C	2	1	1137	1	poli_8sides 5_whiteLine3.jpg	MediumShort_e16_cut1_stereo_44KHz.wav
1	157	3	4	2	I	2	0	923	1	poli_8sides 11_whiteLine3.jpg	MediumShort_e22_cut1_stereo_44KHz.wav
1	158	1	1	1	C	1	1	1069	1	poli_8sides 15_whiteLine3.jpg	MediumShort_e16_cut1_stereo_44KHz.wav
1	159	4	3	2	I	2	0	1318	0	poli_8sides 9_whiteLine3.jpg	MediumShort_b10_cut1_MS_stereo_44KHz.wav
1	160	2	2	1	C	1	1	1056	1	poli_8sides 5_whiteLine3.jpg	MediumShort_b16_cut3_MS_stereo_44KHz.wav
1	161	4	4	2	I	2	0	1628	1	poli_8sides 9_whiteLine3.jpg	MediumShort_e22_cut1_stereo_44KHz.wav
1	162	1	2	0	C	2	1	1489	1	poli_8sides 15_whiteLine3.jpg	MediumShort_b16_cut3_MS_stereo_44KHz.wav
1	163	3	4	2	I	0	0	0	0	poli_8sides 11_whiteLine3.jpg	MediumShort_e22_cut1_stereo_44KHz.wav
1	164	2	1	0	C	2	1	604	1	poli_8sides 5_whiteLine3.jpg	MediumShort_e16_cut1_stereo_44KHz.wav
1	165	3	3	2	I	2	0	956	0	poli_8sides 11_whiteLine3.jpg	MediumShort_b10_cut1_MS_stereo_44KHz.wav
1	166	2	2	1	C	1	1	1289	1	poli_8sides 5_whiteLine3.jpg	MediumShort_b16_cut3_MS_stereo_44KHz.wav
1	167	1	1	1	C	1	1	1377	1	poli_8sides 15_whiteLine3.jpg	MediumShort_e16_cut1_stereo_44KHz.wav
1	168	4	3	2	I	2	0	1238	0	poli_8sides 9_whiteLine3.jpg	MediumShort_b10_cut1_MS_stereo_44KHz.wav
1	169	2	1	0	C	2	1	856	1	poli_8sides 5_whiteLine3.jpg	MediumShort_e16_cut1_stereo_44KHz.wav
1	170	1	1	1	C	1	1	895	1	poli_8sides 15_whiteLine3.jpg	MediumShort_e16_cut1_stereo_44KHz.wav
1	171	3	3	2	I	2	0	603	1	poli_8sides 11_whiteLine3.jpg	MediumShort_b10_cut1_MS_stereo_44KHz.wav
1	172	4	4	2	I	1	0	970	0	poli_8sides 9_whiteLine3.jpg	MediumShort_e22_cut1_stereo_44KHz.wav
1	173	1	2	0	C	2	1	571	1	poli_8sides 15_whiteLine3.jpg	MediumShort_b16_cut3_MS_stereo_44KHz.wav
1	174	2	2	1	C	2	0	606	0	poli_8sides 5_whiteLine3.jpg	MediumShort_b16_cut3_MS_stereo_44KHz.wav
1	175	4	3	2	I	1	0	703	0	poli_8sides 9_whiteLine3.jpg	MediumShort_b10_cut1_MS_stereo_44KHz.wav
1	176	3	4	2	I	2	0	801	0	poli_8sides 11_whiteLine3.jpg	MediumShort_e22_cut1_stereo_44KHz.wav
1	177	1	1	1	C	1	1	1062	1	poli_8sides 15_whiteLine3.jpg	MediumShort_e16_cut1_stereo_44KHz.wav
1	178	3	4	2	I	2	0	853	0	poli_8sides 11_whiteLine3.jpg	MediumShort_e22_cut1_stereo_44KHz.wav
1	179	2	1	0	C	2	1	838	1	poli_8sides 5_whiteLine3.jpg	MediumShort_e16_cut1_stereo_44KHz.wav
1	180	4	4	2	I	1	0	1484	1	poli_8sides 9_whiteLine3.jpg	MediumShort_e22_cut1_stereo_44KHz.wav
1	181	3	3	2	I	2	0	724	1	poli_8sides 11_whiteLine3.jpg	MediumShort_b10_cut1_MS_stereo_44KHz.wav
1	182	2	2	1	C	1	1	1126	1	poli_8sides 5_whiteLine3.jpg	MediumShort_b16_cut3_MS_stereo_44KHz.wav
1	183	1	2	0	C	2	1	1427	1	poli_8sides 15_whiteLine3.jpg	MediumShort_b16_cut3_MS_stereo_44KHz.wav
1	184	4	3	2	I	1	0	879	1	poli_8sides 9_whiteLine3.jpg	MediumShort_b10_cut1_MS_stereo_44KHz.wav
1	185	1	2	0	C	2	1	1001	1	poli_8sides 15_whiteLine3.jpg	MediumShort_b16_cut3_MS_stereo_44KHz.wav
1	186	3	4	2	I	2	0	1403	1	poli_8sides 11_whiteLine3.jpg	MediumShort_e22_cut1_stereo_44KHz.wav
1	187	4	3	2	I	2	0	1250	0	poli_8sides 9_whiteLine3.jpg	MediumShort_b10_cut1_MS_stereo_44KHz.wav
1	188	2	2	1	C	1	1	872	1	poli_8sides 5_whiteLine3.jpg	MediumShort_b16_cut3_MS_stereo_44KHz.wav
1	189	4	4	2	I	1	0	917	1	poli_8sides 9_whiteLine3.jpg	MediumShort_e22_cut1_stereo_44KHz.wav
1	190	2	1	0	C	2	1	653	1	poli_8sides 5_whiteLine3.jpg	MediumShort_e16_cut1_stereo_44KHz.wav
1	191	3	3	2	I	2	0	1040	1	poli_8sides 11_whiteLine3.jpg	MediumShort_b10_cut1_MS_stereo_44KHz.wav
1	192	1	1	1	C	1	1	1258	1	poli_8sides 15_whiteLine3.jpg	MediumShort_e16_cut1_stereo_44KHz.wav
1	193	4	4	2	I	2	0	1433	1	poli_8sides 9_whiteLine3.jpg	MediumShort_e22_cut1_stereo_44KHz.wav
1	194	2	2	1	C	1	1	908	1	poli_8sides 5_whiteLine3.jpg	MediumShort_b16_cut3_MS_stereo_44KHz.wav
1	195	1	2	0	C	1	0	1120	0	poli_8sides 15_whiteLine3.jpg	MediumShort_b16_cut3_MS_stereo_44KHz.wav
1	196	3	3	2	I	2	0	1020	1	poli_8sides 11_whiteLine3.jpg	MediumShort_b10_cut1_MS_stereo_44KHz.wav
1	197	2	1	0	C	2	1	708	1	poli_8sides 5_whiteLine3.jpg	MediumShort_e16_cut1_stereo_44KHz.wav
1	198	4	3	2	I	2	0	1362	0	poli_8sides 9_whiteLine3.jpg	MediumShort_b10_cut1_MS_stereo_44KHz.wav
1	199	1	1	1	C	1	1	1133	1	poli_8sides 15_whiteLine3.jpg	MediumShort_e16_cut1_stereo_44KHz.wav
1	200	3	4	2	I	0	0	0	0	poli_8sides 11_whiteLine3.jpg	MediumShort_e22_cut1_stereo_44KHz.wav
2	1	2	2	1	C	2	0	1868	0	poli_8sides 13_whiteLine3.jpg	Medium_e01_cut1_stereo_44KHz.wav
2	2	1	1	1	C	1	1	984	1	poli_8sides 12_whiteLine3.jpg	MediumLong_e17_cut2_stereo_44KHz.wav
2	3	4	4	2	I	2	0	882	1	poli_8sides 4_whiteLine3.jpg	MediumLong_e04_stereo_44KHz.wav
2	4	3	3	2	I	2	0	941	1	poli_8sides 2_whiteLine3.jpg	Medium_e26_stereo_44KHz.wav
2	5	4	3	2	I	1	0	951	1	poli_8sides 4_whiteLine3.jpg	Medium_e26_stereo_44KHz.wav
2	6	3	4	2	I	1	0	821	1	poli_8sides 2_whiteLine3.jpg	MediumLong_e04_stereo_44KHz.wav
2	7	2	1	0	C	2	1	962	1	poli_8sides 13_whiteLine3.jpg	MediumLong_e17_cut2_stereo_44KHz.wav
2	8	1	2	0	C	2	1	1596	1	poli_8sides 12_whiteLine3.jpg	Medium_e01_cut1_stereo_44KHz.wav
2	9	4	4	2	I	2	0	775	0	poli_8sides 4_whiteLine3.jpg	MediumLong_e04_stereo_44KHz.wav
2	10	2	2	1	C	1	1	1016	1	poli_8sides 13_whiteLine3.jpg	Medium_e01_cut1_stereo_44KHz.wav
2	11	1	2	0	C	2	1	1282	1	poli_8sides 12_whiteLine3.jpg	Medium_e01_cut1_stereo_44KHz.wav
2	12	3	4	2	I	2	0	1129	1	poli_8sides 2_whiteLine3.jpg	MediumLong_e04_stereo_44KHz.wav
2	13	2	1	0	C	2	1	1665	1	poli_8sides 13_whiteLine3.jpg	MediumLong_e17_cut2_stereo_44KHz.wav
2	14	3	3	2	I	1	0	1167	0	poli_8sides 2_whiteLine3.jpg	Medium_e26_stereo_44KHz.wav
2	15	4	3	2	I	2	0	981	1	poli_8sides 4_whiteLine3.jpg	Medium_e26_stereo_44KHz.wav
2	16	1	1	1	C	1	1	1424	1	poli_8sides 12_whiteLine3.jpg	MediumLong_e17_cut2_stereo_44KHz.wav
2	17	3	3	2	I	2	0	1148	0	poli_8sides 2_whiteLine3.jpg	Medium_e26_stereo_44KHz.wav
2	18	4	3	2	I	2	0	1240	1	poli_8sides 4_whiteLine3.jpg	Medium_e26_stereo_44KHz.wav
2	19	2	2	1	C	1	1	1134	1	poli_8sides 13_whiteLine3.jpg	Medium_e01_cut1_stereo_44KHz.wav
2	20	1	2	0	C	2	1	817	1	poli_8sides 12_whiteLine3.jpg	Medium_e01_cut1_stereo_44KHz.wav
2	21	4	4	2	I	1	0	1332	1	poli_8sides 4_whiteLine3.jpg	MediumLong_e04_stereo_44KHz.wav
2	22	2	1	0	C	2	1	1049	1	poli_8sides 13_whiteLine3.jpg	MediumLong_e17_cut2_stereo_44KHz.wav
2	23	3	4	2	I	2	0	1159	0	poli_8sides 2_whiteLine3.jpg	MediumLong_e04_stereo_44KHz.wav
2	24	1	1	1	C	2	0	956	0	poli_8sides 12_whiteLine3.jpg	MediumLong_e17_cut2_stereo_44KHz.wav
2	25	4	4	2	I	1	0	1133	0	poli_8sides 4_whiteLine3.jpg	MediumLong_e04_stereo_44KHz.wav
2	26	2	2	1	C	2	0	1211	0	poli_8sides 13_whiteLine3.jpg	Medium_e01_cut1_stereo_44KHz.wav
2	27	3	3	2	I	2	0	972	0	poli_8sides 2_whiteLine3.jpg	Medium_e26_stereo_44KHz.wav
2	28	1	2	0	C	2	1	819	1	poli_8sides 12_whiteLine3.jpg	Medium_e01_cut1_stereo_44KHz.wav
2	29	2	1	0	C	2	1	1003	1	poli_8sides 13_whiteLine3.jpg	MediumLong_e17_cut2_stereo_44KHz.wav
2	30	4	3	2	I	2	0	1145	0	poli_8sides 4_whiteLine3.jpg	Medium_e26_stereo_44KHz.wav
2	31	1	1	1	C	1	1	1167	1	poli_8sides 12_whiteLine3.jpg	MediumLong_e17_cut2_stereo_44KHz.wav
2	32	3	4	2	I	2	0	1697	1	poli_8sides 2_whiteLine3.jpg	MediumLong_e04_stereo_44KHz.wav
2	33	1	1	1	C	1	1	1024	1	poli_8sides 12_whiteLine3.jpg	MediumLong_e17_cut2_stereo_44KHz.wav
2	34	4	4	2	I	2	0	1271	0	poli_8sides 4_whiteLine3.jpg	MediumLong_e04_stereo_44KHz.wav
2	35	2	2	1	C	1	1	976	1	poli_8sides 13_whiteLine3.jpg	Medium_e01_cut1_stereo_44KHz.wav
2	36	3	3	2	I	2	0	1031	1	poli_8sides 2_whiteLine3.jpg	Medium_e26_stereo_44KHz.wav
2	37	2	1	0	C	2	1	994	1	poli_8sides 13_whiteLine3.jpg	MediumLong_e17_cut2_stereo_44KHz.wav
2	38	4	3	2	I	2	0	1083	1	poli_8sides 4_whiteLine3.jpg	Medium_e26_stereo_44KHz.wav
2	39	1	2	0	C	0	0	0	0	poli_8sides 12_whiteLine3.jpg	Medium_e01_cut1_stereo_44KHz.wav
2	40	3	4	2	I	2	0	717	0	poli_8sides 2_whiteLine3.jpg	MediumLong_e04_stereo_44KHz.wav
2	41	1	1	1	C	1	1	242	1	poli_8sides 12_whiteLine3.jpg	MediumLong_e17_cut2_stereo_44KHz.wav
2	42	2	1	0	C	2	1	651	1	poli_8sides 13_whiteLine3.jpg	MediumLong_e17_cut2_stereo_44KHz.wav
2	43	4	3	2	I	2	0	870	0	poli_8sides 4_whiteLine3.jpg	Medium_e26_stereo_44KHz.wav
2	44	3	3	2	I	1	0	637	0	poli_8sides 2_whiteLine3.jpg	Medium_e26_stereo_44KHz.wav
2	45	1	2	0	C	1	0	1316	0	poli_8sides 12_whiteLine3.jpg	Medium_e01_cut1_stereo_44KHz.wav
2	46	3	4	2	I	2	0	1340	1	poli_8sides 2_whiteLine3.jpg	MediumLong_e04_stereo_44KHz.wav
2	47	4	4	2	I	1	0	1016	1	poli_8sides 4_whiteLine3.jpg	MediumLong_e04_stereo_44KHz.wav
2	48	2	2	1	C	2	0	934	0	poli_8sides 13_whiteLine3.jpg	Medium_e01_cut1_stereo_44KHz.wav
2	49	4	4	2	I	1	0	904	0	poli_8sides 4_whiteLine3.jpg	MediumLong_e04_stereo_44KHz.wav
2	50	3	4	2	I	1	0	1109	1	poli_8sides 2_whiteLine3.jpg	MediumLong_e04_stereo_44KHz.wav
2	51	1	2	0	C	2	1	1207	1	poli_8sides 12_whiteLine3.jpg	Medium_e01_cut1_stereo_44KHz.wav
2	52	2	2	1	C	2	0	898	0	poli_8sides 13_whiteLine3.jpg	Medium_e01_cut1_stereo_44KHz.wav
2	53	1	1	1	C	2	0	1200	0	poli_8sides 12_whiteLine3.jpg	MediumLong_e17_cut2_stereo_44KHz.wav
2	54	3	3	2	I	2	0	761	0	poli_8sides 2_whiteLine3.jpg	Medium_e26_stereo_44KHz.wav
2	55	2	1	0	C	1	0	1343	0	poli_8sides 13_whiteLine3.jpg	MediumLong_e17_cut2_stereo_44KHz.wav
2	56	4	3	2	I	2	0	740	1	poli_8sides 4_whiteLine3.jpg	Medium_e26_stereo_44KHz.wav
2	57	1	2	0	C	1	0	1147	0	poli_8sides 12_whiteLine3.jpg	Medium_e01_cut1_stereo_44KHz.wav
2	58	2	2	1	C	2	0	724	0	poli_8sides 13_whiteLine3.jpg	Medium_e01_cut1_stereo_44KHz.wav
2	59	4	3	2	I	2	0	1155	1	poli_8sides 4_whiteLine3.jpg	Medium_e26_stereo_44KHz.wav
2	60	3	4	2	I	2	0	772	0	poli_8sides 2_whiteLine3.jpg	MediumLong_e04_stereo_44KHz.wav
2	61	2	1	0	C	2	1	767	1	poli_8sides 13_whiteLine3.jpg	MediumLong_e17_cut2_stereo_44KHz.wav
2	62	3	3	2	I	1	0	1134	1	poli_8sides 2_whiteLine3.jpg	Medium_e26_stereo_44KHz.wav
2	63	1	1	1	C	2	0	1021	0	poli_8sides 12_whiteLine3.jpg	MediumLong_e17_cut2_stereo_44KHz.wav
2	64	4	4	2	I	2	0	360	1	poli_8sides 4_whiteLine3.jpg	MediumLong_e04_stereo_44KHz.wav
2	65	1	2	0	C	1	0	1211	0	poli_8sides 12_whiteLine3.jpg	Medium_e01_cut1_stereo_44KHz.wav
2	66	3	4	2	I	2	0	651	1	poli_8sides 2_whiteLine3.jpg	MediumLong_e04_stereo_44KHz.wav
2	67	2	2	1	C	2	0	748	0	poli_8sides 13_whiteLine3.jpg	Medium_e01_cut1_stereo_44KHz.wav
2	68	4	4	2	I	2	0	446	0	poli_8sides 4_whiteLine3.jpg	MediumLong_e04_stereo_44KHz.wav
2	69	2	1	0	C	2	1	443	1	poli_8sides 13_whiteLine3.jpg	MediumLong_e17_cut2_stereo_44KHz.wav
2	70	1	1	1	C	1	1	664	1	poli_8sides 12_whiteLine3.jpg	MediumLong_e17_cut2_stereo_44KHz.wav
2	71	3	3	2	I	2	0	647	1	poli_8sides 2_whiteLine3.jpg	Medium_e26_stereo_44KHz.wav
2	72	4	3	2	I	2	0	1141	0	poli_8sides 4_whiteLine3.jpg	Medium_e26_stereo_44KHz.wav
2	73	2	1	0	C	2	1	583	1	poli_8sides 13_whiteLine3.jpg	MediumLong_e17_cut2_stereo_44KHz.wav
2	74	1	1	1	C	2	0	954	0	poli_8sides 12_whiteLine3.jpg	MediumLong_e17_cut2_stereo_44KHz.wav
2	75	4	4	2	I	2	0	894	1	poli_8sides 4_whiteLine3.jpg	MediumLong_e04_stereo_44KHz.wav
2	76	3	4	2	I	1	0	890	1	poli_8sides 2_whiteLine3.jpg	MediumLong_e04_stereo_44KHz.wav
2	77	4	3	2	I	2	0	809	1	poli_8sides 4_whiteLine3.jpg	Medium_e26_stereo_44KHz.wav
2	78	1	2	0	C	2	1	1670	1	poli_8sides 12_whiteLine3.jpg	Medium_e01_cut1_stereo_44KHz.wav
2	79	2	2	1	C	2	0	875	0	poli_8sides 13_whiteLine3.jpg	Medium_e01_cut1_stereo_44KHz.wav
2	80	3	3	2	I	1	0	1063	1	poli_8sides 2_whiteLine3.jpg	Medium_e26_stereo_44KHz.wav
2	81	1	1	1	C	2	0	555	0	poli_8sides 12_whiteLine3.jpg	MediumLong_e17_cut2_stereo_44KHz.wav
2	82	3	3	2	I	2	0	571	1	poli_8sides 2_whiteLine3.jpg	Medium_e26_stereo_44KHz.wav
2	83	4	4	2	I	2	0	1035	0	poli_8sides 4_whiteLine3.jpg	MediumLong_e04_stereo_44KHz.wav
2	84	2	1	0	C	2	1	1318	1	poli_8sides 13_whiteLine3.jpg	MediumLong_e17_cut2_stereo_44KHz.wav
2	85	4	3	2	I	2	0	938	1	poli_8sides 4_whiteLine3.jpg	Medium_e26_stereo_44KHz.wav
2	86	1	2	0	C	1	0	1241	0	poli_8sides 12_whiteLine3.jpg	Medium_e01_cut1_stereo_44KHz.wav
2	87	2	2	1	C	2	0	1621	0	poli_8sides 13_whiteLine3.jpg	Medium_e01_cut1_stereo_44KHz.wav
2	88	3	4	2	I	2	0	892	0	poli_8sides 2_whiteLine3.jpg	MediumLong_e04_stereo_44KHz.wav
2	89	1	1	1	C	2	0	753	0	poli_8sides 12_whiteLine3.jpg	MediumLong_e17_cut2_stereo_44KHz.wav
2	90	2	1	0	C	2	1	738	1	poli_8sides 13_whiteLine3.jpg	MediumLong_e17_cut2_stereo_44KHz.wav
2	91	4	3	2	I	2	0	901	0	poli_8sides 4_whiteLine3.jpg	Medium_e26_stereo_44KHz.wav
2	92	3	4	2	I	2	0	734	1	poli_8sides 2_whiteLine3.jpg	MediumLong_e04_stereo_44KHz.wav
2	93	2	2	1	C	2	0	936	0	poli_8sides 13_whiteLine3.jpg	Medium_e01_cut1_stereo_44KHz.wav
2	94	4	4	2	I	2	0	1018	1	poli_8sides 4_whiteLine3.jpg	MediumLong_e04_stereo_44KHz.wav
2	95	3	3	2	I	2	0	709	0	poli_8sides 2_whiteLine3.jpg	Medium_e26_stereo_44KHz.wav
2	96	1	2	0	C	1	0	856	0	poli_8sides 12_whiteLine3.jpg	Medium_e01_cut1_stereo_44KHz.wav
2	97	4	3	2	I	2	0	707	1	poli_8sides 4_whiteLine3.jpg	Medium_e26_stereo_44KHz.wav
2	98	2	2	1	C	2	0	694	0	poli_8sides 13_whiteLine3.jpg	Medium_e01_cut1_stereo_44KHz.wav
2	99	1	1	1	C	2	0	724	0	poli_8sides 12_whiteLine3.jpg	MediumLong_e17_cut2_stereo_44KHz.wav
2	100	3	4	2	I	2	0	772	0	poli_8sides 2_whiteLine3.jpg	MediumLong_e04_stereo_44KHz.wav
2	101	4	4	2	I	2	0	1468	0	poli_8sides 4_whiteLine3.jpg	MediumLong_e04_stereo_44KHz.wav
2	102	3	3	2	I	2	0	1159	0	poli_8sides 2_whiteLine3.jpg	Medium_e26_stereo_44KHz.wav
2	103	2	1	0	C	2	1	787	1	poli_8sides 13_whiteLine3.jpg	MediumLong_e17_cut2_stereo_44KHz.wav
2	104	1	2	0	C	2	1	1500	1	poli_8sides 12_whiteLine3.jpg	Medium_e01_cut1_stereo_44KHz.wav
2	105	3	3	2	I	2	0	949	1	poli_8sides 2_whiteLine3.jpg	Medium_e26_stereo_44KHz.wav
2	106	1	2	0	C	2	1	1336	1	poli_8sides 12_whiteLine3.jpg	Medium_e01_cut1_stereo_44KHz.wav
2	107	2	1	0	C	2	1	973	1	poli_8sides 13_whiteLine3.jpg	MediumLong_e17_cut2_stereo_44KHz.wav
2	108	4	3	2	I	2	0	708	0	poli_8sides 4_whiteLine3.jpg	Medium_e26_stereo_44KHz.wav
2	109	3	4	2	I	2	0	1034	1	poli_8sides 2_whiteLine3.jpg	MediumLong_e04_stereo_44KHz.wav
2	110	1	1	1	C	2	0	1077	0	poli_8sides 12_whiteLine3.jpg	MediumLong_e17_cut2_stereo_44KHz.wav
2	111	4	4	2	I	2	0	876	1	poli_8sides 4_whiteLine3.jpg	MediumLong_e04_stereo_44KHz.wav
2	112	2	2	1	C	2	0	1004	0	poli_8sides 13_whiteLine3.jpg	Medium_e01_cut1_stereo_44KHz.wav
2	113	3	3	2	I	1	0	1236	1	poli_8sides 2_whiteLine3.jpg	Medium_e26_stereo_44KHz.wav
2	114	2	2	1	C	2	0	931	0	poli_8sides 13_whiteLine3.jpg	Medium_e01_cut1_stereo_44KHz.wav
2	115	4	4	2	I	2	0	908	1	poli_8sides 4_whiteLine3.jpg	MediumLong_e04_stereo_44KHz.wav
2	116	1	1	1	C	2	0	975	0	poli_8sides 12_whiteLine3.jpg	MediumLong_e17_cut2_stereo_44KHz.wav
2	117	4	3	2	I	2	0	607	0	poli_8sides 4_whiteLine3.jpg	Medium_e26_stereo_44KHz.wav
2	118	1	2	0	C	2	1	690	1	poli_8sides 12_whiteLine3.jpg	Medium_e01_cut1_stereo_44KHz.wav
2	119	2	1	0	C	2	1	725	1	poli_8sides 13_whiteLine3.jpg	MediumLong_e17_cut2_stereo_44KHz.wav
2	120	3	4	2	I	1	0	1295	0	poli_8sides 2_whiteLine3.jpg	MediumLong_e04_stereo_44KHz.wav
2	121	4	4	2	I	2	0	628	1	poli_8sides 4_whiteLine3.jpg	MediumLong_e04_stereo_44KHz.wav
2	122	3	3	2	I	2	0	741	1	poli_8sides 2_whiteLine3.jpg	Medium_e26_stereo_44KHz.wav
2	123	1	1	1	C	2	0	925	0	poli_8sides 12_whiteLine3.jpg	MediumLong_e17_cut2_stereo_44KHz.wav
2	124	2	2	1	C	2	0	883	0	poli_8sides 13_whiteLine3.jpg	Medium_e01_cut1_stereo_44KHz.wav
2	125	3	4	2	I	0	0	0	0	poli_8sides 2_whiteLine3.jpg	MediumLong_e04_stereo_44KHz.wav
2	126	1	2	0	C	2	1	872	1	poli_8sides 12_whiteLine3.jpg	Medium_e01_cut1_stereo_44KHz.wav
2	127	4	3	2	I	2	0	525	0	poli_8sides 4_whiteLine3.jpg	Medium_e26_stereo_44KHz.wav
2	128	2	1	0	C	2	1	722	1	poli_8sides 13_whiteLine3.jpg	MediumLong_e17_cut2_stereo_44KHz.wav
2	129	4	4	2	I	2	0	959	1	poli_8sides 4_whiteLine3.jpg	MediumLong_e04_stereo_44KHz.wav
2	130	1	2	0	C	2	1	630	1	poli_8sides 12_whiteLine3.jpg	Medium_e01_cut1_stereo_44KHz.wav
2	131	2	2	1	C	1	1	897	1	poli_8sides 13_whiteLine3.jpg	Medium_e01_cut1_stereo_44KHz.wav
2	132	3	4	2	I	2	0	723	0	poli_8sides 2_whiteLine3.jpg	MediumLong_e04_stereo_44KHz.wav
2	133	2	1	0	C	1	0	782	0	poli_8sides 13_whiteLine3.jpg	MediumLong_e17_cut2_stereo_44KHz.wav
2	134	4	3	2	I	2	0	983	0	poli_8sides 4_whiteLine3.jpg	Medium_e26_stereo_44KHz.wav
2	135	3	3	2	I	2	0	673	0	poli_8sides 2_whiteLine3.jpg	Medium_e26_stereo_44KHz.wav
2	136	1	1	1	C	2	0	773	0	poli_8sides 12_whiteLine3.jpg	MediumLong_e17_cut2_stereo_44KHz.wav
2	137	3	3	2	I	2	0	646	0	poli_8sides 2_whiteLine3.jpg	Medium_e26_stereo_44KHz.wav
2	138	4	4	2	I	2	0	730	0	poli_8sides 4_whiteLine3.jpg	MediumLong_e04_stereo_44KHz.wav
2	139	1	1	1	C	1	1	1163	1	poli_8sides 12_whiteLine3.jpg	MediumLong_e17_cut2_stereo_44KHz.wav
2	140	2	2	1	C	2	0	749	0	poli_8sides 13_whiteLine3.jpg	Medium_e01_cut1_stereo_44KHz.wav
2	141	1	2	0	C	2	1	568	1	poli_8sides 12_whiteLine3.jpg	Medium_e01_cut1_stereo_44KHz.wav
2	142	4	3	2	I	2	0	829	0	poli_8sides 4_whiteLine3.jpg	Medium_e26_stereo_44KHz.wav
2	143	3	4	2	I	2	0	678	1	poli_8sides 2_whiteLine3.jpg	MediumLong_e04_stereo_44KHz.wav
2	144	2	1	0	C	2	1	412	1	poli_8sides 13_whiteLine3.jpg	MediumLong_e17_cut2_stereo_44KHz.wav
2	145	3	3	2	I	2	0	495	1	poli_8sides 2_whiteLine3.jpg	Medium_e26_stereo_44KHz.wav
2	146	2	2	1	C	2	0	544	0	poli_8sides 13_whiteLine3.jpg	Medium_e01_cut1_stereo_44KHz.wav
2	147	1	2	0	C	1	0	377	0	poli_8sides 12_whiteLine3.jpg	Medium_e01_cut1_stereo_44KHz.wav
2	148	4	3	2	I	2	0	296	0	poli_8sides 4_whiteLine3.jpg	Medium_e26_stereo_44KHz.wav
2	149	1	1	1	C	2	0	223	0	poli_8sides 12_whiteLine3.jpg	MediumLong_e17_cut2_stereo_44KHz.wav
2	150	2	1	0	C	1	0	534	0	poli_8sides 13_whiteLine3.jpg	MediumLong_e17_cut2_stereo_44KHz.wav
2	151	4	4	2	I	2	0	335	0	poli_8sides 4_whiteLine3.jpg	MediumLong_e04_stereo_44KHz.wav
2	152	3	4	2	I	2	0	302	0	poli_8sides 2_whiteLine3.jpg	MediumLong_e04_stereo_44KHz.wav
2	153	2	1	0	C	2	1	432	1	poli_8sides 13_whiteLine3.jpg	MediumLong_e17_cut2_stereo_44KHz.wav
2	154	3	4	2	I	2	0	686	1	poli_8sides 2_whiteLine3.jpg	MediumLong_e04_stereo_44KHz.wav
2	155	4	3	2	I	1	0	1218	1	poli_8sides 4_whiteLine3.jpg	Medium_e26_stereo_44KHz.wav
2	156	1	2	0	C	2	1	501	1	poli_8sides 12_whiteLine3.jpg	Medium_e01_cut1_stereo_44KHz.wav
2	157	3	3	2	I	2	0	707	0	poli_8sides 2_whiteLine3.jpg	Medium_e26_stereo_44KHz.wav
2	158	4	4	2	I	2	0	551	1	poli_8sides 4_whiteLine3.jpg	MediumLong_e04_stereo_44KHz.wav
2	159	1	1	1	C	2	0	612	0	poli_8sides 12_whiteLine3.jpg	MediumLong_e17_cut2_stereo_44KHz.wav
2	160	2	2	1	C	2	0	461	0	poli_8sides 13_whiteLine3.jpg	Medium_e01_cut1_stereo_44KHz.wav
2	161	1	1	1	C	1	1	511	1	poli_8sides 12_whiteLine3.jpg	MediumLong_e17_cut2_stereo_44KHz.wav
2	162	3	3	2	I	2	0	789	0	poli_8sides 2_whiteLine3.jpg	Medium_e26_stereo_44KHz.wav
2	163	2	1	0	C	2	1	661	1	poli_8sides 13_whiteLine3.jpg	MediumLong_e17_cut2_stereo_44KHz.wav
2	164	4	3	2	I	2	0	564	0	poli_8sides 4_whiteLine3.jpg	Medium_e26_stereo_44KHz.wav
2	165	1	2	0	C	2	1	754	1	poli_8sides 12_whiteLine3.jpg	Medium_e01_cut1_stereo_44KHz.wav
2	166	4	4	2	I	1	0	710	1	poli_8sides 4_whiteLine3.jpg	MediumLong_e04_stereo_44KHz.wav
2	167	3	4	2	I	2	0	906	0	poli_8sides 2_whiteLine3.jpg	MediumLong_e04_stereo_44KHz.wav
2	168	2	2	1	C	2	0	572	0	poli_8sides 13_whiteLine3.jpg	Medium_e01_cut1_stereo_44KHz.wav
2	169	3	3	2	I	2	0	1224	0	poli_8sides 2_whiteLine3.jpg	Medium_e26_stereo_44KHz.wav
2	170	1	2	0	C	2	1	1150	1	poli_8sides 12_whiteLine3.jpg	Medium_e01_cut1_stereo_44KHz.wav
2	171	2	2	1	C	2	0	1108	0	poli_8sides 13_whiteLine3.jpg	Medium_e01_cut1_stereo_44KHz.wav
2	172	4	3	2	I	2	0	413	0	poli_8sides 4_whiteLine3.jpg	Medium_e26_stereo_44KHz.wav
2	173	1	1	1	C	2	0	702	0	poli_8sides 12_whiteLine3.jpg	MediumLong_e17_cut2_stereo_44KHz.wav
2	174	2	1	0	C	2	1	566	1	poli_8sides 13_whiteLine3.jpg	MediumLong_e17_cut2_stereo_44KHz.wav
2	175	3	4	2	I	0	0	0	0	poli_8sides 2_whiteLine3.jpg	MediumLong_e04_stereo_44KHz.wav
2	176	4	4	2	I	2	0	1010	0	poli_8sides 4_whiteLine3.jpg	MediumLong_e04_stereo_44KHz.wav
2	177	2	2	1	C	2	0	942	0	poli_8sides 13_whiteLine3.jpg	Medium_e01_cut1_stereo_44KHz.wav
2	178	4	3	2	I	1	0	1405	0	poli_8sides 4_whiteLine3.jpg	Medium_e26_stereo_44KHz.wav
2	179	3	3	2	I	2	0	623	0	poli_8sides 2_whiteLine3.jpg	Medium_e26_stereo_44KHz.wav
2	180	1	1	1	C	2	0	1374	0	poli_8sides 12_whiteLine3.jpg	MediumLong_e17_cut2_stereo_44KHz.wav
2	181	3	4	2	I	2	0	1359	1	poli_8sides 2_whiteLine3.jpg	MediumLong_e04_stereo_44KHz.wav
2	182	2	1	0	C	2	1	1272	1	poli_8sides 13_whiteLine3.jpg	MediumLong_e17_cut2_stereo_44KHz.wav
2	183	1	2	0	C	1	0	1852	0	poli_8sides 12_whiteLine3.jpg	Medium_e01_cut1_stereo_44KHz.wav
2	184	4	4	2	I	2	0	740	1	poli_8sides 4_whiteLine3.jpg	MediumLong_e04_stereo_44KHz.wav
2	185	1	2	0	C	2	1	866	1	poli_8sides 12_whiteLine3.jpg	Medium_e01_cut1_stereo_44KHz.wav
2	186	4	4	2	I	1	0	1619	1	poli_8sides 4_whiteLine3.jpg	MediumLong_e04_stereo_44KHz.wav
2	187	2	1	0	C	2	1	1362	1	poli_8sides 13_whiteLine3.jpg	MediumLong_e17_cut2_stereo_44KHz.wav
2	188	3	4	2	I	2	0	1489	1	poli_8sides 2_whiteLine3.jpg	MediumLong_e04_stereo_44KHz.wav
2	189	2	2	1	C	1	1	1408	1	poli_8sides 13_whiteLine3.jpg	Medium_e01_cut1_stereo_44KHz.wav
2	190	4	3	2	I	2	0	1167	0	poli_8sides 4_whiteLine3.jpg	Medium_e26_stereo_44KHz.wav
2	191	1	1	1	C	2	0	1495	0	poli_8sides 12_whiteLine3.jpg	MediumLong_e17_cut2_stereo_44KHz.wav
2	192	3	3	2	I	2	0	760	1	poli_8sides 2_whiteLine3.jpg	Medium_e26_stereo_44KHz.wav
2	193	2	1	0	C	2	1	1000	1	poli_8sides 13_whiteLine3.jpg	MediumLong_e17_cut2_stereo_44KHz.wav
2	194	3	3	2	I	2	0	1641	0	poli_8sides 2_whiteLine3.jpg	Medium_e26_stereo_44KHz.wav
2	195	1	1	1	C	2	0	688	0	poli_8sides 12_whiteLine3.jpg	MediumLong_e17_cut2_stereo_44KHz.wav
2	196	4	4	2	I	2	0	798	1	poli_8sides 4_whiteLine3.jpg	MediumLong_e04_stereo_44KHz.wav
2	197	2	2	1	C	0	0	0	0	poli_8sides 13_whiteLine3.jpg	Medium_e01_cut1_stereo_44KHz.wav
2	198	1	2	0	C	2	1	530	1	poli_8sides 12_whiteLine3.jpg	Medium_e01_cut1_stereo_44KHz.wav
2	199	4	3	2	I	2	0	878	0	poli_8sides 4_whiteLine3.jpg	Medium_e26_stereo_44KHz.wav
2	200	3	4	2	I	2	0	841	0	poli_8sides 2_whiteLine3.jpg	MediumLong_e04_stereo_44KHz.wav
3	1	4	3	2	I	2	0	1293	0	poli_8sides 16_whiteLine3.jpg	MediumLong_b10_cut2_L_stereo_44KHz.wav
3	2	2	2	1	C	2	0	798	0	poli_8sides 7_whiteLine3.jpg	Medium_e21_stereo_44KHz.wav
3	3	3	3	2	I	2	0	696	1	poli_8sides 3_whiteLine3.jpg	MediumLong_b10_cut2_L_stereo_44KHz.wav
3	4	1	1	1	C	1	1	1967	1	poli_8sides 10_whiteLine3.jpg	MediumLong_e19_stereo_44KHz.wav
3	5	3	4	2	I	2	0	703	0	poli_8sides 3_whiteLine3.jpg	Medium_e13_stereo_44KHz.wav
3	6	2	1	0	C	2	1	502	1	poli_8sides 7_whiteLine3.jpg	MediumLong_e19_stereo_44KHz.wav
3	7	4	4	2	I	2	0	484	0	poli_8sides 16_whiteLine3.jpg	Medium_e13_stereo_44KHz.wav
3	8	1	2	0	C	2	1	688	1	poli_8sides 10_whiteLine3.jpg	Medium_e21_stereo_44KHz.wav
3	9	3	4	2	I	1	0	906	0	poli_8sides 3_whiteLine3.jpg	Medium_e13_stereo_44KHz.wav
3	10	4	4	2	I	2	0	883	1	poli_8sides 16_whiteLine3.jpg	Medium_e13_stereo_44KHz.wav
3	11	1	2	0	C	2	1	1060	1	poli_8sides 10_whiteLine3.jpg	Medium_e21_stereo_44KHz.wav
3	12	2	2	1	C	2	0	932	0	poli_8sides 7_whiteLine3.jpg	Medium_e21_stereo_44KHz.wav
3	13	3	3	2	I	2	0	779	1	poli_8sides 3_whiteLine3.jpg	MediumLong_b10_cut2_L_stereo_44KHz.wav
3	14	1	1	1	C	2	0	1401	0	poli_8sides 10_whiteLine3.jpg	MediumLong_e19_stereo_44KHz.wav
3	15	4	3	2	I	1	0	1117	0	poli_8sides 16_whiteLine3.jpg	MediumLong_b10_cut2_L_stereo_44KHz.wav
3	16	2	1	0	C	2	1	997	1	poli_8sides 7_whiteLine3.jpg	MediumLong_e19_stereo_44KHz.wav
3	17	4	3	2	I	2	0	1234	0	poli_8sides 16_whiteLine3.jpg	MediumLong_b10_cut2_L_stereo_44KHz.wav
3	18	2	2	1	C	1	1	825	1	poli_8sides 7_whiteLine3.jpg	Medium_e21_stereo_44KHz.wav
3	19	1	2	0	C	2	1	1178	1	poli_8sides 10_whiteLine3.jpg	Medium_e21_stereo_44KHz.wav
3	20	3	3	2	I	2	0	906	1	poli_8sides 3_whiteLine3.jpg	MediumLong_b10_cut2_L_stereo_44KHz.wav
3	21	4	4	2	I	2	0	1144	1	poli_8sides 16_whiteLine3.jpg	Medium_e13_stereo_44KHz.wav
3	22	2	1	0	C	2	1	830	1	poli_8sides 7_whiteLine3.jpg	MediumLong_e19_stereo_44KHz.wav
3	23	3	4	2	I	2	0	1101	0	poli_8sides 3_whiteLine3.jpg	Medium_e13_stereo_44KHz.wav
3	24	1	1	1	C	1	1	1078	1	poli_8sides 10_whiteLine3.jpg	MediumLong_e19_stereo_44KHz.wav
3	25	3	3	2	I	2	0	1221	1	poli_8sides 3_whiteLine3.jpg	MediumLong_b10_cut2_L_stereo_44KHz.wav
3	26	2	2	1	C	1	1	1128	1	poli_8sides 7_whiteLine3.jpg	Medium_e21_stereo_44KHz.wav
3	27	4	4	2	I	2	0	1642	1	poli_8sides 16_whiteLine3.jpg	Medium_e13_stereo_44KHz.wav
3	28	1	2	0	C	2	1	1417	1	poli_8sides 10_whiteLine3.jpg	Medium_e21_stereo_44KHz.wav
3	29	4	3	2	I	2	0	1401	1	poli_8sides 16_whiteLine3.jpg	MediumLong_b10_cut2_L_stereo_44KHz.wav
3	30	3	4	2	I	1	0	1772	1	poli_8sides 3_whiteLine3.jpg	Medium_e13_stereo_44KHz.wav
3	31	2	1	0	C	2	1	826	1	poli_8sides 7_whiteLine3.jpg	MediumLong_e19_stereo_44KHz.wav
3	32	1	1	1	C	1	1	1055	1	poli_8sides 10_whiteLine3.jpg	MediumLong_e19_stereo_44KHz.wav
3	33	3	3	2	I	2	0	1055	0	poli_8sides 3_whiteLine3.jpg	MediumLong_b10_cut2_L_stereo_44KHz.wav
3	34	1	2	0	C	2	1	1180	1	poli_8sides 10_whiteLine3.jpg	Medium_e21_stereo_44KHz.wav
3	35	4	3	2	I	2	0	1886	1	poli_8sides 16_whiteLine3.jpg	MediumLong_b10_cut2_L_stereo_44KHz.wav
3	36	2	1	0	C	2	1	794	1	poli_8sides 7_whiteLine3.jpg	MediumLong_e19_stereo_44KHz.wav
3	37	1	1	1	C	1	1	1567	1	poli_8sides 10_whiteLine3.jpg	MediumLong_e19_stereo_44KHz.wav
3	38	4	4	2	I	2	0	1161	1	poli_8sides 16_whiteLine3.jpg	Medium_e13_stereo_44KHz.wav
3	39	3	4	2	I	1	0	909	0	poli_8sides 3_whiteLine3.jpg	Medium_e13_stereo_44KHz.wav
3	40	2	2	1	C	2	0	1381	0	poli_8sides 7_whiteLine3.jpg	Medium_e21_stereo_44KHz.wav
3	41	1	1	1	C	1	1	1499	1	poli_8sides 10_whiteLine3.jpg	MediumLong_e19_stereo_44KHz.wav
3	42	3	4	2	I	1	0	1405	0	poli_8sides 3_whiteLine3.jpg	Medium_e13_stereo_44KHz.wav
3	43	4	4	2	I	2	0	1037	0	poli_8sides 16_whiteLine3.jpg	Medium_e13_stereo_44KHz.wav
3	44	2	1	0	C	2	1	734	1	poli_8sides 7_whiteLine3.jpg	MediumLong_e19_stereo_44KHz.wav
3	45	1	2	0	C	0	0	0	0	poli_8sides 10_whiteLine3.jpg	Medium_e21_stereo_44KHz.wav
3	46	2	2	1	C	1	1	1089	1	poli_8sides 7_whiteLine3.jpg	Medium_e21_stereo_44KHz.wav
3	47	3	3	2	I	2	0	980	1	poli_8sides 3_whiteLine3.jpg	MediumLong_b10_cut2_L_stereo_44KHz.wav
3	48	4	3	2	I	1	0	1028	0	poli_8sides 16_whiteLine3.jpg	MediumLong_b10_cut2_L_stereo_44KHz.wav
3	49	2	1	0	C	2	1	805	1	poli_8sides 7_whiteLine3.jpg	MediumLong_e19_stereo_44KHz.wav
3	50	1	2	0	C	2	1	1169	1	poli_8sides 10_whiteLine3.jpg	Medium_e21_stereo_44KHz.wav
3	51	3	4	2	I	2	0	979	1	poli_8sides 3_whiteLine3.jpg	Medium_e13_stereo_44KHz.wav
3	52	4	4	2	I	2	0	668	0	poli_8sides 16_whiteLine3.jpg	Medium_e13_stereo_44KHz.wav
3	53	2	2	1	C	1	1	1370	1	poli_8sides 7_whiteLine3.jpg	Medium_e21_stereo_44KHz.wav
3	54	3	3	2	I	2	0	954	1	poli_8sides 3_whiteLine3.jpg	MediumLong_b10_cut2_L_stereo_44KHz.wav
3	55	4	3	2	I	2	0	934	0	poli_8sides 16_whiteLine3.jpg	MediumLong_b10_cut2_L_stereo_44KHz.wav
3	56	1	1	1	C	0	0	0	0	poli_8sides 10_whiteLine3.jpg	MediumLong_e19_stereo_44KHz.wav
3	57	3	3	2	I	2	0	850	0	poli_8sides 3_whiteLine3.jpg	MediumLong_b10_cut2_L_stereo_44KHz.wav
3	58	4	3	2	I	2	0	1334	1	poli_8sides 16_whiteLine3.jpg	MediumLong_b10_cut2_L_stereo_44KHz.wav
3	59	2	1	0	C	2	1	923	1	poli_8sides 7_whiteLine3.jpg	MediumLong_e19_stereo_44KHz.wav
3	60	1	2	0	C	2	1	1325	1	poli_8sides 10_whiteLine3.jpg	Medium_e21_stereo_44KHz.wav
3	61	3	4	2	I	2	0	1296	1	poli_8sides 3_whiteLine3.jpg	Medium_e13_stereo_44KHz.wav
3	62	2	2	1	C	1	1	1172	1	poli_8sides 7_whiteLine3.jpg	Medium_e21_stereo_44KHz.wav
3	63	1	1	1	C	1	1	1691	1	poli_8sides 10_whiteLine3.jpg	MediumLong_e19_stereo_44KHz.wav
3	64	4	4	2	I	2	0	1403	0	poli_8sides 16_whiteLine3.jpg	Medium_e13_stereo_44KHz.wav
3	65	1	2	0	C	2	1	1411	1	poli_8sides 10_whiteLine3.jpg	Medium_e21_stereo_44KHz.wav
3	66	3	3	2	I	2	0	820	0	poli_8sides 3_whiteLine3.jpg	MediumLong_b10_cut2_L_stereo_44KHz.wav
3	67	2	1	0	C	2	1	849	1	poli_8sides 7_whiteLine3.jpg	MediumLong_e19_stereo_44KHz.wav
3	68	4	4	2	I	2	0	1010	0	poli_8sides 16_whiteLine3.jpg	Medium_e13_stereo_44KHz.wav
3	69	1	1	1	C	2	0	1236	0	poli_8sides 10_whiteLine3.jpg	MediumLong_e19_stereo_44KHz.wav
3	70	4	3	2	I	2	0	1723	1	poli_8sides 16_whiteLine3.jpg	MediumLong_b10_cut2_L_stereo_44KHz.wav
3	71	3	4	2	I	2	0	677	0	poli_8sides 3_whiteLine3.jpg	Medium_e13_stereo_44KHz.wav
3	72	2	2	1	C	1	1	1206	1	poli_8sides 7_whiteLine3.jpg	Medium_e21_stereo_44KHz.wav
3	73	4	3	2	I	2	0	924	0	poli_8sides 16_whiteLine3.jpg	MediumLong_b10_cut2_L_stereo_44KHz.wav
3	74	2	2	1	C	1	1	1640	1	poli_8sides 7_whiteLine3.jpg	Medium_e21_stereo_44KHz.wav
3	75	3	3	2	I	2	0	1073	0	poli_8sides 3_whiteLine3.jpg	MediumLong_b10_cut2_L_stereo_44KHz.wav
3	76	1	2	0	C	2	1	1775	1	poli_8sides 10_whiteLine3.jpg	Medium_e21_stereo_44KHz.wav
3	77	2	1	0	C	2	1	1428	1	poli_8sides 7_whiteLine3.jpg	MediumLong_e19_stereo_44KHz.wav
3	78	4	4	2	I	1	0	1913	0	poli_8sides 16_whiteLine3.jpg	Medium_e13_stereo_44KHz.wav
3	79	1	1	1	C	1	1	1340	1	poli_8sides 10_whiteLine3.jpg	MediumLong_e19_stereo_44KHz.wav
3	80	3	4	2	I	2	0	935	0	poli_8sides 3_whiteLine3.jpg	Medium_e13_stereo_44KHz.wav
3	81	1	2	0	C	2	1	1112	1	poli_8sides 10_whiteLine3.jpg	Medium_e21_stereo_44KHz.wav
3	82	3	3	2	I	1	0	1588	1	poli_8sides 3_whiteLine3.jpg	MediumLong_b10_cut2_L_stereo_44KHz.wav
3	83	4	3	2	I	2	0	1660	1	poli_8sides 16_whiteLine3.jpg	MediumLong_b10_cut2_L_stereo_44KHz.wav
3	84	2	1	0	C	0	0	0	0	poli_8sides 7_whiteLine3.jpg	MediumLong_e19_stereo_44KHz.wav
3	85	4	4	2	I	2	0	1101	0	poli_8sides 16_whiteLine3.jpg	Medium_e13_stereo_44KHz.wav
3	86	1	1	1	C	1	1	1909	1	poli_8sides 10_whiteLine3.jpg	MediumLong_e19_stereo_44KHz.wav
3	87	3	4	2	I	2	0	1148	0	poli_8sides 3_whiteLine3.jpg	Medium_e13_stereo_44KHz.wav
3	88	2	2	1	C	1	1	957	1	poli_8sides 7_whiteLine3.jpg	Medium_e21_stereo_44KHz.wav
3	89	1	1	1	C	1	1	1295	1	poli_8sides 10_whiteLine3.jpg	MediumLong_e19_stereo_44KHz.wav
3	90	4	4	2	I	2	0	619	1	poli_8sides 16_whiteLine3.jpg	Medium_e13_stereo_44KHz.wav
3	91	3	4	2	I	2	0	1393	1	poli_8sides 3_whiteLine3.jpg	Medium_e13_stereo_44KHz.wav
3	92	2	2	1	C	1	1	1406	1	poli_8sides 7_whiteLine3.jpg	Medium_e21_stereo_44KHz.wav
3	93	3	3	2	I	2	0	898	0	poli_8sides 3_whiteLine3.jpg	MediumLong_b10_cut2_L_stereo_44KHz.wav
3	94	2	1	0	C	2	1	773	1	poli_8sides 7_whiteLine3.jpg	MediumLong_e19_stereo_44KHz.wav
3	95	4	3	2	I	1	0	859	0	poli_8sides 16_whiteLine3.jpg	MediumLong_b10_cut2_L_stereo_44KHz.wav
3	96	1	2	0	C	2	1	1143	1	poli_8sides 10_whiteLine3.jpg	Medium_e21_stereo_44KHz.wav
3	97	4	3	2	I	2	0	1054	1	poli_8sides 16_whiteLine3.jpg	MediumLong_b10_cut2_L_stereo_44KHz.wav
3	98	3	3	2	I	2	0	1108	1	poli_8sides 3_whiteLine3.jpg	MediumLong_b10_cut2_L_stereo_44KHz.wav
3	99	2	2	1	C	2	0	1192	0	poli_8sides 7_whiteLine3.jpg	Medium_e21_stereo_44KHz.wav
3	100	1	2	0	C	2	1	913	1	poli_8sides 10_whiteLine3.jpg	Medium_e21_stereo_44KHz.wav
3	101	2	1	0	C	2	1	857	1	poli_8sides 7_whiteLine3.jpg	MediumLong_e19_stereo_44KHz.wav
3	102	4	4	2	I	2	0	1122	1	poli_8sides 16_whiteLine3.jpg	Medium_e13_stereo_44KHz.wav
3	103	1	1	1	C	1	1	1551	1	poli_8sides 10_whiteLine3.jpg	MediumLong_e19_stereo_44KHz.wav
3	104	3	4	2	I	2	0	1391	1	poli_8sides 3_whiteLine3.jpg	Medium_e13_stereo_44KHz.wav
3	105	4	3	2	I	2	0	1600	0	poli_8sides 16_whiteLine3.jpg	MediumLong_b10_cut2_L_stereo_44KHz.wav
3	106	3	4	2	I	2	0	1455	1	poli_8sides 3_whiteLine3.jpg	Medium_e13_stereo_44KHz.wav
3	107	1	1	1	C	0	0	0	0	poli_8sides 10_whiteLine3.jpg	MediumLong_e19_stereo_44KHz.wav
3	108	2	1	0	C	2	1	735	1	poli_8sides 7_whiteLine3.jpg	MediumLong_e19_stereo_44KHz.wav
3	109	4	4	2	I	2	0	760	1	poli_8sides 16_whiteLine3.jpg	Medium_e13_stereo_44KHz.wav
3	110	1	2	0	C	2	1	1331	1	poli_8sides 10_whiteLine3.jpg	Medium_e21_stereo_44KHz.wav
3	111	3	3	2	I	2	0	769	0	poli_8sides 3_whiteLine3.jpg	MediumLong_b10_cut2_L_stereo_44KHz.wav
3	112	2	2	1	C	2	0	490	0	poli_8sides 7_whiteLine3.jpg	Medium_e21_stereo_44KHz.wav
3	113	1	2	0	C	2	1	1428	1	poli_8sides 10_whiteLine3.jpg	Medium_e21_stereo_44KHz.wav
3	114	3	4	2	I	2	0	1612	0	poli_8sides 3_whiteLine3.jpg	Medium_e13_stereo_44KHz.wav
3	115	2	2	1	C	1	1	1028	1	poli_8sides 7_whiteLine3.jpg	Medium_e21_stereo_44KHz.wav
3	116	4	3	2	I	2	0	811	1	poli_8sides 16_whiteLine3.jpg	MediumLong_b10_cut2_L_stereo_44KHz.wav
3	117	1	1	1	C	1	1	1423	1	poli_8sides 10_whiteLine3.jpg	MediumLong_e19_stereo_44KHz.wav
3	118	3	3	2	I	2	0	698	0	poli_8sides 3_whiteLine3.jpg	MediumLong_b10_cut2_L_stereo_44KHz.wav
3	119	2	1	0	C	2	1	1463	1	poli_8sides 7_whiteLine3.jpg	MediumLong_e19_stereo_44KHz.wav
3	120	4	4	2	I	2	0	855	0	poli_8sides 16_whiteLine3.jpg	Medium_e13_stereo_44KHz.wav
3	121	2	1	0	C	2	1	1125	1	poli_8sides 7_whiteLine3.jpg	MediumLong_e19_stereo_44KHz.wav
3	122	3	4	2	I	1	0	1182	0	poli_8sides 3_whiteLine3.jpg	Medium_e13_stereo_44KHz.wav
3	123	4	3	2	I	2	0	558	1	poli_8sides 16_whiteLine3.jpg	MediumLong_b10_cut2_L_stereo_44KHz.wav
3	124	1	1	1	C	2	0	455	0	poli_8sides 10_whiteLine3.jpg	MediumLong_e19_stereo_44KHz.wav
3	125	3	3	2	I	2	0	702	1	poli_8sides 3_whiteLine3.jpg	MediumLong_b10_cut2_L_stereo_44KHz.wav
3	126	2	2	1	C	1	1	942	1	poli_8sides 7_whiteLine3.jpg	Medium_e21_stereo_44KHz.wav
3	127	4	4	2	I	2	0	718	0	poli_8sides 16_whiteLine3.jpg	Medium_e13_stereo_44KHz.wav
3	128	1	2	0	C	2	1	1205	1	poli_8sides 10_whiteLine3.jpg	Medium_e21_stereo_44KHz.wav
3	129	3	4	2	I	2	0	700	1	poli_8sides 3_whiteLine3.jpg	Medium_e13_stereo_44KHz.wav
3	130	2	1	0	C	2	1	1085	1	poli_8sides 7_whiteLine3.jpg	MediumLong_e19_stereo_44KHz.wav
3	131	1	2	0	C	2	1	932	1	poli_8sides 10_whiteLine3.jpg	Medium_e21_stereo_44KHz.wav
3	132	4	3	2	I	2	0	1222	0	poli_8sides 16_whiteLine3.jpg	MediumLong_b10_cut2_L_stereo_44KHz.wav
3	133	2	2	1	C	1	1	1212	1	poli_8sides 7_whiteLine3.jpg	Medium_e21_stereo_44KHz.wav
3	134	3	3	2	I	2	0	885	0	poli_8sides 3_whiteLine3.jpg	MediumLong_b10_cut2_L_stereo_44KHz.wav
3	135	1	1	1	C	1	1	1123	1	poli_8sides 10_whiteLine3.jpg	MediumLong_e19_stereo_44KHz.wav
3	136	4	4	2	I	2	0	745	0	poli_8sides 16_whiteLine3.jpg	Medium_e13_stereo_44KHz.wav
3	137	3	3	2	I	2	0	539	0	poli_8sides 3_whiteLine3.jpg	MediumLong_b10_cut2_L_stereo_44KHz.wav
3	138	1	1	1	C	1	1	1125	1	poli_8sides 10_whiteLine3.jpg	MediumLong_e19_stereo_44KHz.wav
3	139	2	2	1	C	2	0	462	0	poli_8sides 7_whiteLine3.jpg	Medium_e21_stereo_44KHz.wav
3	140	4	4	2	I	2	0	858	1	poli_8sides 16_whiteLine3.jpg	Medium_e13_stereo_44KHz.wav
3	141	1	2	0	C	1	0	1435	0	poli_8sides 10_whiteLine3.jpg	Medium_e21_stereo_44KHz.wav
3	142	3	4	2	I	0	0	0	0	poli_8sides 3_whiteLine3.jpg	Medium_e13_stereo_44KHz.wav
3	143	2	1	0	C	2	1	972	1	poli_8sides 7_whiteLine3.jpg	MediumLong_e19_stereo_44KHz.wav
3	144	4	3	2	I	2	0	1008	1	poli_8sides 16_whiteLine3.jpg	MediumLong_b10_cut2_L_stereo_44KHz.wav
3	145	1	1	1	C	1	1	1208	1	poli_8sides 10_whiteLine3.jpg	MediumLong_e19_stereo_44KHz.wav
3	146	4	3	2	I	2	0	633	0	poli_8sides 16_whiteLine3.jpg	MediumLong_b10_cut2_L_stereo_44KHz.wav
3	147	2	1	0	C	2	1	920	1	poli_8sides 7_whiteLine3.jpg	MediumLong_e19_stereo_44KHz.wav
3	148	3	3	2	I	2	0	923	1	poli_8sides 3_whiteLine3.jpg	MediumLong_b10_cut2_L_stereo_44KHz.wav
3	149	1	2	0	C	2	1	1186	1	poli_8sides 10_whiteLine3.jpg	Medium_e21_stereo_44KHz.wav
3	150	2	2	1	C	2	0	948	0	poli_8sides 7_whiteLine3.jpg	Medium_e21_stereo_44KHz.wav
3	151	4	4	2	I	2	0	840	0	poli_8sides 16_whiteLine3.jpg	Medium_e13_stereo_44KHz.wav
3	152	3	4	2	I	2	0	695	0	poli_8sides 3_whiteLine3.jpg	Medium_e13_stereo_44KHz.wav
3	153	1	2	0	C	2	1	665	1	poli_8sides 10_whiteLine3.jpg	Medium_e21_stereo_44KHz.wav
3	154	4	3	2	I	2	0	741	1	poli_8sides 16_whiteLine3.jpg	MediumLong_b10_cut2_L_stereo_44KHz.wav
3	155	3	4	2	I	2	0	669	0	poli_8sides 3_whiteLine3.jpg	Medium_e13_stereo_44KHz.wav
3	156	2	1	0	C	2	1	1087	1	poli_8sides 7_whiteLine3.jpg	MediumLong_e19_stereo_44KHz.wav
3	157	4	4	2	I	2	0	1433	1	poli_8sides 16_whiteLine3.jpg	Medium_e13_stereo_44KHz.wav
3	158	2	2	1	C	1	1	1031	1	poli_8sides 7_whiteLine3.jpg	Medium_e21_stereo_44KHz.wav
3	159	1	1	1	C	1	1	1030	1	poli_8sides 10_whiteLine3.jpg	MediumLong_e19_stereo_44KHz.wav
3	160	3	3	2	I	2	0	844	0	poli_8sides 3_whiteLine3.jpg	MediumLong_b10_cut2_L_stereo_44KHz.wav
3	161	2	2	1	C	1	1	951	1	poli_8sides 7_whiteLine3.jpg	Medium_e21_stereo_44KHz.wav
3	162	3	4	2	I	2	0	832	1	poli_8sides 3_whiteLine3.jpg	Medium_e13_stereo_44KHz.wav
3	163	1	1	1	C	1	1	1220	1	poli_8sides 10_whiteLine3.jpg	MediumLong_e19_stereo_44KHz.wav
3	164	4	4	2	I	2	0	1030	0	poli_8sides 16_whiteLine3.jpg	Medium_e13_stereo_44KHz.wav
3	165	3	3	2	I	1	0	1385	1	poli_8sides 3_whiteLine3.jpg	MediumLong_b10_cut2_L_stereo_44KHz.wav
3	166	2	1	0	C	2	1	1099	1	poli_8sides 7_whiteLine3.jpg	MediumLong_e19_stereo_44KHz.wav
3	167	1	2	0	C	2	1	1046	1	poli_8sides 10_whiteLine3.jpg	Medium_e21_stereo_44KHz.wav
3	168	4	3	2	I	2	0	1121	1	poli_8sides 16_whiteLine3.jpg	MediumLong_b10_cut2_L_stereo_44KHz.wav
3	169	3	3	2	I	2	0	1317	1	poli_8sides 3_whiteLine3.jpg	MediumLong_b10_cut2_L_stereo_44KHz.wav
3	170	1	2	0	C	2	1	983	1	poli_8sides 10_whiteLine3.jpg	Medium_e21_stereo_44KHz.wav
3	171	4	4	2	I	2	0	1083	1	poli_8sides 16_whiteLine3.jpg	Medium_e13_stereo_44KHz.wav
3	172	2	1	0	C	2	1	903	1	poli_8sides 7_whiteLine3.jpg	MediumLong_e19_stereo_44KHz.wav
3	173	4	3	2	I	1	0	1161	0	poli_8sides 16_whiteLine3.jpg	MediumLong_b10_cut2_L_stereo_44KHz.wav
3	174	3	4	2	I	1	0	1512	1	poli_8sides 3_whiteLine3.jpg	Medium_e13_stereo_44KHz.wav
3	175	2	2	1	C	1	1	1310	1	poli_8sides 7_whiteLine3.jpg	Medium_e21_stereo_44KHz.wav
3	176	1	1	1	C	1	1	1044	1	poli_8sides 10_whiteLine3.jpg	MediumLong_e19_stereo_44KHz.wav
3	177	2	2	1	C	1	1	1442	1	poli_8sides 7_whiteLine3.jpg	Medium_e21_stereo_44KHz.wav
3	178	1	2	0	C	2	1	976	1	poli_8sides 10_whiteLine3.jpg	Medium_e21_stereo_44KHz.wav
3	179	3	3	2	I	2	0	1251	0	poli_8sides 3_whiteLine3.jpg	MediumLong_b10_cut2_L_stereo_44KHz.wav
3	180	4	3	2	I	2	0	977	1	poli_8sides 16_whiteLine3.jpg	MediumLong_b10_cut2_L_stereo_44KHz.wav
3	181	2	1	0	C	2	1	1328	1	poli_8sides 7_whiteLine3.jpg	MediumLong_e19_stereo_44KHz.wav
3	182	3	4	2	I	2	0	1631	0	poli_8sides 3_whiteLine3.jpg	Medium_e13_stereo_44KHz.wav
3	183	1	1	1	C	1	1	1261	1	poli_8sides 10_whiteLine3.jpg	MediumLong_e19_stereo_44KHz.wav
3	184	4	4	2	I	1	0	1052	0	poli_8sides 16_whiteLine3.jpg	Medium_e13_stereo_44KHz.wav
3	185	2	1	0	C	2	1	872	1	poli_8sides 7_whiteLine3.jpg	MediumLong_e19_stereo_44KHz.wav
3	186	4	3	2	I	1	0	1631	1	poli_8sides 16_whiteLine3.jpg	MediumLong_b10_cut2_L_stereo_44KHz.wav
3	187	1	2	0	C	2	1	1340	1	poli_8sides 10_whiteLine3.jpg	Medium_e21_stereo_44KHz.wav
3	188	3	4	2	I	1	0	1565	1	poli_8sides 3_whiteLine3.jpg	Medium_e13_stereo_44KHz.wav
3	189	2	2	1	C	1	1	1334	1	poli_8sides 7_whiteLine3.jpg	Medium_e21_stereo_44KHz.wav
3	190	4	4	2	I	1	0	1490	1	poli_8sides 16_whiteLine3.jpg	Medium_e13_stereo_44KHz.wav
3	191	3	3	2	I	2	0	829	1	poli_8sides 3_whiteLine3.jpg	MediumLong_b10_cut2_L_stereo_44KHz.wav
3	192	1	1	1	C	1	1	1157	1	poli_8sides 10_whiteLine3.jpg	MediumLong_e19_stereo_44KHz.wav
3	193	4	4	2	I	1	0	1623	1	poli_8sides 16_whiteLine3.jpg	Medium_e13_stereo_44KHz.wav
3	194	3	3	2	I	2	0	966	1	poli_8sides 3_whiteLine3.jpg	MediumLong_b10_cut2_L_stereo_44KHz.wav
3	195	2	2	1	C	1	1	1281	1	poli_8sides 7_whiteLine3.jpg	Medium_e21_stereo_44KHz.wav
3	196	1	1	1	C	1	1	1029	1	poli_8sides 10_whiteLine3.jpg	MediumLong_e19_stereo_44KHz.wav
3	197	2	1	0	C	2	1	937	1	poli_8sides 7_whiteLine3.jpg	MediumLong_e19_stereo_44KHz.wav
3	198	1	2	0	C	2	1	1246	1	poli_8sides 10_whiteLine3.jpg	Medium_e21_stereo_44KHz.wav
3	199	4	3	2	I	2	0	1063	0	poli_8sides 16_whiteLine3.jpg	MediumLong_b10_cut2_L_stereo_44KHz.wav
3	200	3	4	2	I	1	0	1223	0	poli_8sides 3_whiteLine3.jpg	Medium_e13_stereo_44KHz.wav
4	1	1	1	1	C	2	0	1396	0	poli_8sides 1_whiteLine3.jpg	Short_b22_cut1_stereo_44KHz.wav
4	2	3	3	2	I	2	0	873	0	poli_8sides 18_whiteLine3.jpg	Short_b20_cut1_stereo_44KHz.wav
4	3	4	4	2	I	2	0	503	0	poli_8sides 8_whiteLine3.jpg	Short_b23_cut1_stereo_44KHz.wav
4	4	2	2	1	C	2	0	474	0	poli_8sides 6_whiteLine3.jpg	Short_b09_cut1_stereo_44KHz.wav
4	5	4	3	2	I	2	0	414	1	poli_8sides 8_whiteLine3.jpg	Short_b20_cut1_stereo_44KHz.wav
4	6	2	1	0	C	2	1	712	1	poli_8sides 6_whiteLine3.jpg	Short_b22_cut1_stereo_44KHz.wav
4	7	3	4	2	I	2	0	732	1	poli_8sides 18_whiteLine3.jpg	Short_b23_cut1_stereo_44KHz.wav
4	8	1	2	0	C	2	1	416	1	poli_8sides 1_whiteLine3.jpg	Short_b09_cut1_stereo_44KHz.wav
4	9	2	1	0	C	0	0	0	0	poli_8sides 6_whiteLine3.jpg	Short_b22_cut1_stereo_44KHz.wav
4	10	1	1	1	C	0	0	0	0	poli_8sides 1_whiteLine3.jpg	Short_b22_cut1_stereo_44KHz.wav
4	11	4	3	2	I	2	0	755	0	poli_8sides 8_whiteLine3.jpg	Short_b20_cut1_stereo_44KHz.wav
4	12	3	3	2	I	2	0	665	1	poli_8sides 18_whiteLine3.jpg	Short_b20_cut1_stereo_44KHz.wav
4	13	4	4	2	I	2	0	706	0	poli_8sides 8_whiteLine3.jpg	Short_b23_cut1_stereo_44KHz.wav
4	14	2	2	1	C	2	0	356	0	poli_8sides 6_whiteLine3.jpg	Short_b09_cut1_stereo_44KHz.wav
4	15	3	4	2	I	2	0	228	1	poli_8sides 18_whiteLine3.jpg	Short_b23_cut1_stereo_44KHz.wav
4	16	1	2	0	C	2	1	558	1	poli_8sides 1_whiteLine3.jpg	Short_b09_cut1_stereo_44KHz.wav
4	17	4	4	2	I	2	0	444	1	poli_8sides 8_whiteLine3.jpg	Short_b23_cut1_stereo_44KHz.wav
4	18	2	1	0	C	2	1	525	1	poli_8sides 6_whiteLine3.jpg	Short_b22_cut1_stereo_44KHz.wav
4	19	1	1	1	C	2	0	582	0	poli_8sides 1_whiteLine3.jpg	Short_b22_cut1_stereo_44KHz.wav
4	20	3	3	2	I	1	0	846	1	poli_8sides 18_whiteLine3.jpg	Short_b20_cut1_stereo_44KHz.wav
4	21	1	2	0	C	2	1	972	1	poli_8sides 1_whiteLine3.jpg	Short_b09_cut1_stereo_44KHz.wav
4	22	3	4	2	I	2	0	808	1	poli_8sides 18_whiteLine3.jpg	Short_b23_cut1_stereo_44KHz.wav
4	23	4	3	2	I	1	0	758	1	poli_8sides 8_whiteLine3.jpg	Short_b20_cut1_stereo_44KHz.wav
4	24	2	2	1	C	2	0	986	0	poli_8sides 6_whiteLine3.jpg	Short_b09_cut1_stereo_44KHz.wav
4	25	3	4	2	I	2	0	1026	0	poli_8sides 18_whiteLine3.jpg	Short_b23_cut1_stereo_44KHz.wav
4	26	2	1	0	C	2	1	702	1	poli_8sides 6_whiteLine3.jpg	Short_b22_cut1_stereo_44KHz.wav
4	27	1	2	0	C	2	1	654	1	poli_8sides 1_whiteLine3.jpg	Short_b09_cut1_stereo_44KHz.wav
4	28	4	4	2	I	2	0	1084	1	poli_8sides 8_whiteLine3.jpg	Short_b23_cut1_stereo_44KHz.wav
4	29	1	1	1	C	1	1	1109	1	poli_8sides 1_whiteLine3.jpg	Short_b22_cut1_stereo_44KHz.wav
4	30	3	3	2	I	2	0	806	0	poli_8sides 18_whiteLine3.jpg	Short_b20_cut1_stereo_44KHz.wav
4	31	4	3	2	I	2	0	1212	0	poli_8sides 8_whiteLine3.jpg	Short_b20_cut1_stereo_44KHz.wav
4	32	2	2	1	C	2	0	732	0	poli_8sides 6_whiteLine3.jpg	Short_b09_cut1_stereo_44KHz.wav
4	33	3	3	2	I	2	0	888	0	poli_8sides 18_whiteLine3.jpg	Short_b20_cut1_stereo_44KHz.wav
4	34	1	2	0	C	2	1	574	1	poli_8sides 1_whiteLine3.jpg	Short_b09_cut1_stereo_44KHz.wav
4	35	4	3	2	I	2	0	1170	0	poli_8sides 8_whiteLine3.jpg	Short_b20_cut1_stereo_44KHz.wav
4	36	2	2	1	C	1	1	1131	1	poli_8sides 6_whiteLine3.jpg	Short_b09_cut1_stereo_44KHz.wav
4	37	1	1	1	C	1	1	1022	1	poli_8sides 1_whiteLine3.jpg	Short_b22_cut1_stereo_44KHz.wav
4	38	4	4	2	I	2	0	1017	0	poli_8sides 8_whiteLine3.jpg	Short_b23_cut1_stereo_44KHz.wav
4	39	3	4	2	I	2	0	924	1	poli_8sides 18_whiteLine3.jpg	Short_b23_cut1_stereo_44KHz.wav
4	40	2	1	0	C	2	1	977	1	poli_8sides 6_whiteLine3.jpg	Short_b22_cut1_stereo_44KHz.wav
4	41	3	4	2	I	2	0	912	1	poli_8sides 18_whiteLine3.jpg	Short_b23_cut1_stereo_44KHz.wav
4	42	1	1	1	C	1	1	821	1	poli_8sides 1_whiteLine3.jpg	Short_b22_cut1_stereo_44KHz.wav
4	43	4	3	2	I	1	0	1067	0	poli_8sides 8_whiteLine3.jpg	Short_b20_cut1_stereo_44KHz.wav
4	44	2	1	0	C	2	1	1010	1	poli_8sides 6_whiteLine3.jpg	Short_b22_cut1_stereo_44KHz.wav
4	45	3	3	2	I	1	0	1489	0	poli_8sides 18_whiteLine3.jpg	Short_b20_cut1_stereo_44KHz.wav
4	46	1	2	0	C	2	1	1013	1	poli_8sides 1_whiteLine3.jpg	Short_b09_cut1_stereo_44KHz.wav
4	47	2	2	1	C	1	1	724	1	poli_8sides 6_whiteLine3.jpg	Short_b09_cut1_stereo_44KHz.wav
4	48	4	4	2	I	2	0	725	1	poli_8sides 8_whiteLine3.jpg	Short_b23_cut1_stereo_44KHz.wav
4	49	3	3	2	I	2	0	800	1	poli_8sides 18_whiteLine3.jpg	Short_b20_cut1_stereo_44KHz.wav
4	50	2	2	1	C	1	1	1754	1	poli_8sides 6_whiteLine3.jpg	Short_b09_cut1_stereo_44KHz.wav
4	51	1	1	1	C	2	0	653	0	poli_8sides 1_whiteLine3.jpg	Short_b22_cut1_stereo_44KHz.wav
4	52	4	3	2	I	2	0	566	0	poli_8sides 8_whiteLine3.jpg	Short_b20_cut1_stereo_44KHz.wav
4	53	3	4	2	I	2	0	577	0	poli_8sides 18_whiteLine3.jpg	Short_b23_cut1_stereo_44KHz.wav
4	54	2	1	0	C	1	0	487	0	poli_8sides 6_whiteLine3.jpg	Short_b22_cut1_stereo_44KHz.wav
4	55	4	4	2	I	2	0	715	1	poli_8sides 8_whiteLine3.jpg	Short_b23_cut1_stereo_44KHz.wav
4	56	1	2	0	C	2	1	619	1	poli_8sides 1_whiteLine3.jpg	Short_b09_cut1_stereo_44KHz.wav
4	57	4	3	2	I	1	0	931	1	poli_8sides 8_whiteLine3.jpg	Short_b20_cut1_stereo_44KHz.wav
4	58	1	2	0	C	2	1	662	1	poli_8sides 1_whiteLine3.jpg	Short_b09_cut1_stereo_44KHz.wav
4	59	2	2	1	C	1	1	1168	1	poli_8sides 6_whiteLine3.jpg	Short_b09_cut1_stereo_44KHz.wav
4	60	3	3	2	I	2	0	1050	0	poli_8sides 18_whiteLine3.jpg	Short_b20_cut1_stereo_44KHz.wav
4	61	1	1	1	C	1	1	847	1	poli_8sides 1_whiteLine3.jpg	Short_b22_cut1_stereo_44KHz.wav
4	62	2	1	0	C	2	1	1236	1	poli_8sides 6_whiteLine3.jpg	Short_b22_cut1_stereo_44KHz.wav
4	63	3	4	2	I	2	0	1189	0	poli_8sides 18_whiteLine3.jpg	Short_b23_cut1_stereo_44KHz.wav
4	64	4	4	2	I	2	0	1018	0	poli_8sides 8_whiteLine3.jpg	Short_b23_cut1_stereo_44KHz.wav
4	65	2	1	0	C	2	1	940	1	poli_8sides 6_whiteLine3.jpg	Short_b22_cut1_stereo_44KHz.wav
4	66	1	1	1	C	1	1	956	1	poli_8sides 1_whiteLine3.jpg	Short_b22_cut1_stereo_44KHz.wav
4	67	4	4	2	I	1	0	1531	0	poli_8sides 8_whiteLine3.jpg	Short_b23_cut1_stereo_44KHz.wav
4	68	3	4	2	I	1	0	1070	0	poli_8sides 18_whiteLine3.jpg	Short_b23_cut1_stereo_44KHz.wav
4	69	4	3	2	I	1	0	1462	1	poli_8sides 8_whiteLine3.jpg	Short_b20_cut1_stereo_44KHz.wav
4	70	2	2	1	C	1	1	1699	1	poli_8sides 6_whiteLine3.jpg	Short_b09_cut1_stereo_44KHz.wav
4	71	3	3	2	I	2	0	831	1	poli_8sides 18_whiteLine3.jpg	Short_b20_cut1_stereo_44KHz.wav
4	72	1	2	0	C	2	1	764	1	poli_8sides 1_whiteLine3.jpg	Short_b09_cut1_stereo_44KHz.wav
4	73	2	1	0	C	2	1	1059	1	poli_8sides 6_whiteLine3.jpg	Short_b22_cut1_stereo_44KHz.wav
4	74	3	4	2	I	1	0	1450	0	poli_8sides 18_whiteLine3.jpg	Short_b23_cut1_stereo_44KHz.wav
4	75	4	3	2	I	1	0	1399	0	poli_8sides 8_whiteLine3.jpg	Short_b20_cut1_stereo_44KHz.wav
4	76	1	1	1	C	2	0	798	0	poli_8sides 1_whiteLine3.jpg	Short_b22_cut1_stereo_44KHz.wav
4	77	4	4	2	I	2	0	682	0	poli_8sides 8_whiteLine3.jpg	Short_b23_cut1_stereo_44KHz.wav
4	78	2	2	1	C	1	1	1293	1	poli_8sides 6_whiteLine3.jpg	Short_b09_cut1_stereo_44KHz.wav
4	79	1	2	0	C	2	1	797	1	poli_8sides 1_whiteLine3.jpg	Short_b09_cut1_stereo_44KHz.wav
4	80	3	3	2	I	2	0	845	1	poli_8sides 18_whiteLine3.jpg	Short_b20_cut1_stereo_44KHz.wav
4	81	1	1	1	C	2	0	672	0	poli_8sides 1_whiteLine3.jpg	Short_b22_cut1_stereo_44KHz.wav
4	82	2	2	1	C	2	0	571	0	poli_8sides 6_whiteLine3.jpg	Short_b09_cut1_stereo_44KHz.wav
4	83	4	4	2	I	2	0	852	1	poli_8sides 8_whiteLine3.jpg	Short_b23_cut1_stereo_44KHz.wav
4	84	3	4	2	I	1	0	851	1	poli_8sides 18_whiteLine3.jpg	Short_b23_cut1_stereo_44KHz.wav
4	85	1	2	0	C	2	1	977	1	poli_8sides 1_whiteLine3.jpg	Short_b09_cut1_stereo_44KHz.wav
4	86	3	3	2	I	2	0	737	0	poli_8sides 18_whiteLine3.jpg	Short_b20_cut1_stereo_44KHz.wav
4	87	2	1	0	C	2	1	1275	1	poli_8sides 6_whiteLine3.jpg	Short_b22_cut1_stereo_44KHz.wav
4	88	4	3	2	I	1	0	1318	1	poli_8sides 8_whiteLine3.jpg	Short_b20_cut1_stereo_44KHz.wav
4	89	1	2	0	C	2	1	1215	1	poli_8sides 1_whiteLine3.jpg	Short_b09_cut1_stereo_44KHz.wav
4	90	3	3	2	I	2	0	631	0	poli_8sides 18_whiteLine3.jpg	Short_b20_cut1_stereo_44KHz.wav
4	91	4	4	2	I	2	0	1299	0	poli_8sides 8_whiteLine3.jpg	Short_b23_cut1_stereo_44KHz.wav
4	92	2	2	1	C	2	0	1391	0	poli_8sides 6_whiteLine3.jpg	Short_b09_cut1_stereo_44KHz.wav
4	93	1	1	1	C	1	1	808	1	poli_8sides 1_whiteLine3.jpg	Short_b22_cut1_stereo_44KHz.wav
4	94	2	1	0	C	2	1	1099	1	poli_8sides 6_whiteLine3.jpg	Short_b22_cut1_stereo_44KHz.wav
4	95	3	4	2	I	2	0	1289	1	poli_8sides 18_whiteLine3.jpg	Short_b23_cut1_stereo_44KHz.wav
4	96	4	3	2	I	2	0	1166	1	poli_8sides 8_whiteLine3.jpg	Short_b20_cut1_stereo_44KHz.wav
4	97	2	1	0	C	1	0	1660	0	poli_8sides 6_whiteLine3.jpg	Short_b22_cut1_stereo_44KHz.wav
4	98	4	3	2	I	1	0	1321	1	poli_8sides 8_whiteLine3.jpg	Short_b20_cut1_stereo_44KHz.wav
4	99	1	2	0	C	2	1	692	1	poli_8sides 1_whiteLine3.jpg	Short_b09_cut1_stereo_44KHz.wav
4	100	3	3	2	I	2	0	1443	0	poli_8sides 18_whiteLine3.jpg	Short_b20_cut1_stereo_44KHz.wav
4	101	1	1	1	C	1	1	1355	1	poli_8sides 1_whiteLine3.jpg	Short_b22_cut1_stereo_44KHz.wav
4	102	4	4	2	I	2	0	1166	1	poli_8sides 8_whiteLine3.jpg	Short_b23_cut1_stereo_44KHz.wav
4	103	3	4	2	I	1	0	1331	0	poli_8sides 18_whiteLine3.jpg	Short_b23_cut1_stereo_44KHz.wav
4	104	2	2	1	C	1	1	1486	1	poli_8sides 6_whiteLine3.jpg	Short_b09_cut1_stereo_44KHz.wav
4	105	3	3	2	I	2	0	769	0	poli_8sides 18_whiteLine3.jpg	Short_b20_cut1_stereo_44KHz.wav
4	106	2	2	1	C	1	1	1940	1	poli_8sides 6_whiteLine3.jpg	Short_b09_cut1_stereo_44KHz.wav
4	107	4	4	2	I	2	0	1078	1	poli_8sides 8_whiteLine3.jpg	Short_b23_cut1_stereo_44KHz.wav
4	108	1	1	1	C	1	1	1045	1	poli_8sides 1_whiteLine3.jpg	Short_b22_cut1_stereo_44KHz.wav
4	109	3	4	2	I	2	0	926	0	poli_8sides 18_whiteLine3.jpg	Short_b23_cut1_stereo_44KHz.wav
4	110	4	3	2	I	2	0	1084	0	poli_8sides 8_whiteLine3.jpg	Short_b20_cut1_stereo_44KHz.wav
4	111	2	1	0	C	2	1	1353	1	poli_8sides 6_whiteLine3.jpg	Short_b22_cut1_stereo_44KHz.wav
4	112	1	2	0	C	2	1	1082	1	poli_8sides 1_whiteLine3.jpg	Short_b09_cut1_stereo_44KHz.wav
4	113	3	3	2	I	2	0	872	1	poli_8sides 18_whiteLine3.jpg	Short_b20_cut1_stereo_44KHz.wav
4	114	4	4	2	I	2	0	1007	1	poli_8sides 8_whiteLine3.jpg	Short_b23_cut1_stereo_44KHz.wav
4	115	1	1	1	C	1	1	938	1	poli_8sides 1_whiteLine3.jpg	Short_b22_cut1_stereo_44KHz.wav
4	116	2	2	1	C	2	0	1372	0	poli_8sides 6_whiteLine3.jpg	Short_b09_cut1_stereo_44KHz.wav
4	117	3	4	2	I	2	0	1036	0	poli_8sides 18_whiteLine3.jpg	Short_b23_cut1_stereo_44KHz.wav
4	118	1	2	0	C	2	1	831	1	poli_8sides 1_whiteLine3.jpg	Short_b09_cut1_stereo_44KHz.wav
4	119	2	1	0	C	2	1	1599	1	poli_8sides 6_whiteLine3.jpg	Short_b22_cut1_stereo_44KHz.wav
4	120	4	3	2	I	1	0	1306	0	poli_8sides 8_whiteLine3.jpg	Short_b20_cut1_stereo_44KHz.wav
4	121	3	3	2	I	2	0	1162	1	poli_8sides 18_whiteLine3.jpg	Short_b20_cut1_stereo_44KHz.wav
4	122	4	3	2	I	2	0	1217	1	poli_8sides 8_whiteLine3.jpg	Short_b20_cut1_stereo_44KHz.wav
4	123	2	1	0	C	2	1	1055	1	poli_8sides 6_whiteLine3.jpg	Short_b22_cut1_stereo_44KHz.wav
4	124	1	1	1	C	1	1	1139	1	poli_8sides 1_whiteLine3.jpg	Short_b22_cut1_stereo_44KHz.wav
4	125	4	4	2	I	2	0	1028	0	poli_8sides 8_whiteLine3.jpg	Short_b23_cut1_stereo_44KHz.wav
4	126	3	4	2	I	2	0	807	1	poli_8sides 18_whiteLine3.jpg	Short_b23_cut1_stereo_44KHz.wav
4	127	1	2	0	C	0	0	0	0	poli_8sides 1_whiteLine3.jpg	Short_b09_cut1_stereo_44KHz.wav
4	128	2	2	1	C	1	1	950	1	poli_8sides 6_whiteLine3.jpg	Short_b09_cut1_stereo_44KHz.wav
4	129	3	4	2	I	2	0	880	0	poli_8sides 18_whiteLine3.jpg	Short_b23_cut1_stereo_44KHz.wav
4	130	1	2	0	C	2	1	645	1	poli_8sides 1_whiteLine3.jpg	Short_b09_cut1_stereo_44KHz.wav
4	131	4	4	2	I	2	0	859	1	poli_8sides 8_whiteLine3.jpg	Short_b23_cut1_stereo_44KHz.wav
4	132	2	1	0	C	1	0	752	0	poli_8sides 6_whiteLine3.jpg	Short_b22_cut1_stereo_44KHz.wav
4	133	3	3	2	I	2	0	893	1	poli_8sides 18_whiteLine3.jpg	Short_b20_cut1_stereo_44KHz.wav
4	134	4	3	2	I	1	0	843	0	poli_8sides 8_whiteLine3.jpg	Short_b20_cut1_stereo_44KHz.wav
4	135	1	1	1	C	1	1	1097	1	poli_8sides 1_whiteLine3.jpg	Short_b22_cut1_stereo_44KHz.wav
4	136	2	2	1	C	1	1	1353	1	poli_8sides 6_whiteLine3.jpg	Short_b09_cut1_stereo_44KHz.wav
4	137	1	2	0	C	2	1	639	1	poli_8sides 1_whiteLine3.jpg	Short_b09_cut1_stereo_44KHz.wav
4	138	3	4	2	I	2	0	886	1	poli_8sides 18_whiteLine3.jpg	Short_b23_cut1_stereo_44KHz.wav
4	139	4	4	2	I	2	0	636	1	poli_8sides 8_whiteLine3.jpg	Short_b23_cut1_stereo_44KHz.wav
4	140	2	2	1	C	1	1	1349	1	poli_8sides 6_whiteLine3.jpg	Short_b09_cut1_stereo_44KHz.wav
4	141	1	1	1	C	1	1	1091	1	poli_8sides 1_whiteLine3.jpg	Short_b22_cut1_stereo_44KHz.wav
4	142	2	1	0	C	2	1	987	1	poli_8sides 6_whiteLine3.jpg	Short_b22_cut1_stereo_44KHz.wav
4	143	3	3	2	I	2	0	829	0	poli_8sides 18_whiteLine3.jpg	Short_b20_cut1_stereo_44KHz.wav
4	144	4	3	2	I	2	0	875	1	poli_8sides 8_whiteLine3.jpg	Short_b20_cut1_stereo_44KHz.wav
4	145	3	4	2	I	2	0	806	0	poli_8sides 18_whiteLine3.jpg	Short_b23_cut1_stereo_44KHz.wav
4	146	2	2	1	C	1	1	913	1	poli_8sides 6_whiteLine3.jpg	Short_b09_cut1_stereo_44KHz.wav
4	147	1	1	1	C	1	1	947	1	poli_8sides 1_whiteLine3.jpg	Short_b22_cut1_stereo_44KHz.wav
4	148	4	3	2	I	2	0	911	1	poli_8sides 8_whiteLine3.jpg	Short_b20_cut1_stereo_44KHz.wav
4	149	3	3	2	I	2	0	1073	1	poli_8sides 18_whiteLine3.jpg	Short_b20_cut1_stereo_44KHz.wav
4	150	1	2	0	C	2	1	656	1	poli_8sides 1_whiteLine3.jpg	Short_b09_cut1_stereo_44KHz.wav
4	151	4	4	2	I	2	0	648	0	poli_8sides 8_whiteLine3.jpg	Short_b23_cut1_stereo_44KHz.wav
4	152	2	1	0	C	2	1	1740	1	poli_8sides 6_whiteLine3.jpg	Short_b22_cut1_stereo_44KHz.wav
4	153	3	3	2	I	2	0	1181	1	poli_8sides 18_whiteLine3.jpg	Short_b20_cut1_stereo_44KHz.wav
4	154	1	2	0	C	2	1	725	1	poli_8sides 1_whiteLine3.jpg	Short_b09_cut1_stereo_44KHz.wav
4	155	4	3	2	I	2	0	1114	0	poli_8sides 8_whiteLine3.jpg	Short_b20_cut1_stereo_44KHz.wav
4	156	2	2	1	C	2	0	1607	0	poli_8sides 6_whiteLine3.jpg	Short_b09_cut1_stereo_44KHz.wav
4	157	1	1	1	C	1	1	880	1	poli_8sides 1_whiteLine3.jpg	Short_b22_cut1_stereo_44KHz.wav
4	158	4	4	2	I	2	0	1082	0	poli_8sides 8_whiteLine3.jpg	Short_b23_cut1_stereo_44KHz.wav
4	159	2	1	0	C	2	1	1018	1	poli_8sides 6_whiteLine3.jpg	Short_b22_cut1_stereo_44KHz.wav
4	160	3	4	2	I	2	0	1209	0	poli_8sides 18_whiteLine3.jpg	Short_b23_cut1_stereo_44KHz.wav
4	161	1	1	1	C	1	1	782	1	poli_8sides 1_whiteLine3.jpg	Short_b22_cut1_stereo_44KHz.wav
4	162	3	4	2	I	2	0	907	0	poli_8sides 18_whiteLine3.jpg	Short_b23_cut1_stereo_44KHz.wav
4	163	2	1	0	C	2	1	1252	1	poli_8sides 6_whiteLine3.jpg	Short_b22_cut1_stereo_44KHz.wav
4	164	4	3	2	I	2	0	708	1	poli_8sides 8_whiteLine3.jpg	Short_b20_cut1_stereo_44KHz.wav
4	165	3	3	2	I	1	0	807	1	poli_8sides 18_whiteLine3.jpg	Short_b20_cut1_stereo_44KHz.wav
4	166	2	2	1	C	1	1	1348	1	poli_8sides 6_whiteLine3.jpg	Short_b09_cut1_stereo_44KHz.wav
4	167	4	4	2	I	2	0	699	0	poli_8sides 8_whiteLine3.jpg	Short_b23_cut1_stereo_44KHz.wav
4	168	1	2	0	C	2	1	965	1	poli_8sides 1_whiteLine3.jpg	Short_b09_cut1_stereo_44KHz.wav
4	169	3	4	2	I	2	0	647	1	poli_8sides 18_whiteLine3.jpg	Short_b23_cut1_stereo_44KHz.wav
4	170	4	3	2	I	2	0	917	0	poli_8sides 8_whiteLine3.jpg	Short_b20_cut1_stereo_44KHz.wav
4	171	2	1	0	C	1	0	1459	0	poli_8sides 6_whiteLine3.jpg	Short_b22_cut1_stereo_44KHz.wav
4	172	1	2	0	C	2	1	649	1	poli_8sides 1_whiteLine3.jpg	Short_b09_cut1_stereo_44KHz.wav
4	173	4	4	2	I	2	0	1183	1	poli_8sides 8_whiteLine3.jpg	Short_b23_cut1_stereo_44KHz.wav
4	174	2	2	1	C	1	1	1236	1	poli_8sides 6_whiteLine3.jpg	Short_b09_cut1_stereo_44KHz.wav
4	175	3	3	2	I	2	0	701	1	poli_8sides 18_whiteLine3.jpg	Short_b20_cut1_stereo_44KHz.wav
4	176	1	1	1	C	1	1	827	1	poli_8sides 1_whiteLine3.jpg	Short_b22_cut1_stereo_44KHz.wav
4	177	2	2	1	C	1	1	1138	1	poli_8sides 6_whiteLine3.jpg	Short_b09_cut1_stereo_44KHz.wav
4	178	3	3	2	I	2	0	702	0	poli_8sides 18_whiteLine3.jpg	Short_b20_cut1_stereo_44KHz.wav
4	179	1	2	0	C	2	1	948	1	poli_8sides 1_whiteLine3.jpg	Short_b09_cut1_stereo_44KHz.wav
4	180	4	4	2	I	2	0	891	1	poli_8sides 8_whiteLine3.jpg	Short_b23_cut1_stereo_44KHz.wav
4	181	3	4	2	I	2	0	1129	1	poli_8sides 18_whiteLine3.jpg	Short_b23_cut1_stereo_44KHz.wav
4	182	4	3	2	I	2	0	1176	0	poli_8sides 8_whiteLine3.jpg	Short_b20_cut1_stereo_44KHz.wav
4	183	1	1	1	C	1	1	952	1	poli_8sides 1_whiteLine3.jpg	Short_b22_cut1_stereo_44KHz.wav
4	184	2	1	0	C	2	1	1390	1	poli_8sides 6_whiteLine3.jpg	Short_b22_cut1_stereo_44KHz.wav
4	185	3	4	2	I	2	0	860	0	poli_8sides 18_whiteLine3.jpg	Short_b23_cut1_stereo_44KHz.wav
4	186	4	4	2	I	2	0	972	1	poli_8sides 8_whiteLine3.jpg	Short_b23_cut1_stereo_44KHz.wav
4	187	2	1	0	C	2	1	943	1	poli_8sides 6_whiteLine3.jpg	Short_b22_cut1_stereo_44KHz.wav
4	188	1	2	0	C	2	1	755	1	poli_8sides 1_whiteLine3.jpg	Short_b09_cut1_stereo_44KHz.wav
4	189	2	2	1	C	1	1	1133	1	poli_8sides 6_whiteLine3.jpg	Short_b09_cut1_stereo_44KHz.wav
4	190	4	3	2	I	2	0	836	0	poli_8sides 8_whiteLine3.jpg	Short_b20_cut1_stereo_44KHz.wav
4	191	3	3	2	I	2	0	979	0	poli_8sides 18_whiteLine3.jpg	Short_b20_cut1_stereo_44KHz.wav
4	192	1	1	1	C	1	1	1017	1	poli_8sides 1_whiteLine3.jpg	Short_b22_cut1_stereo_44KHz.wav
4	193	4	4	2	I	2	0	995	1	poli_8sides 8_whiteLine3.jpg	Short_b23_cut1_stereo_44KHz.wav
4	194	1	1	1	C	1	1	747	1	poli_8sides 1_whiteLine3.jpg	Short_b22_cut1_stereo_44KHz.wav
4	195	3	4	2	I	2	0	1422	1	poli_8sides 18_whiteLine3.jpg	Short_b23_cut1_stereo_44KHz.wav
4	196	2	1	0	C	2	1	1964	1	poli_8sides 6_whiteLine3.jpg	Short_b22_cut1_stereo_44KHz.wav
4	197	4	3	2	I	2	0	851	0	poli_8sides 8_whiteLine3.jpg	Short_b20_cut1_stereo_44KHz.wav
4	198	3	3	2	I	2	0	687	1	poli_8sides 18_whiteLine3.jpg	Short_b20_cut1_stereo_44KHz.wav
4	199	1	2	0	C	2	1	780	1	poli_8sides 1_whiteLine3.jpg	Short_b09_cut1_stereo_44KHz.wav
4	200	2	2	1	C	1	1	838	1	poli_8sides 6_whiteLine3.jpg	Short_b09_cut1_stereo_44KHz.wav
