block	trial	Vstim	Astim	match	C/I	resp	result	RT	fb	V-file	A-file
LR

0	1	1	1	1	C	2	1	1200	1	poli_8sides 22_whiteLine3.jpg	Practice2_b27_cut2_stereo_44KHz.wav
0	2	2	3	1	C	2	1	753	1	poli_8sides 21_whiteLine3.jpg	Practice3_b26_cut1_stereo_44KHz.wav
0	3	2	4	0	C	2	0	803	0	poli_8sides 21_whiteLine3.jpg	Practice4_b26_stereo_44KHz.wav
0	4	1	2	0	C	2	0	635	0	poli_8sides 22_whiteLine3.jpg	Practice1_b27_cut1_stereo_44KHz.wav
0	5	2	4	0	C	1	1	656	1	poli_8sides 21_whiteLine3.jpg	Practice4_b26_stereo_44KHz.wav
0	6	1	1	1	C	2	1	935	1	poli_8sides 22_whiteLine3.jpg	Practice2_b27_cut2_stereo_44KHz.wav
0	7	1	2	0	C	1	1	933	1	poli_8sides 22_whiteLine3.jpg	Practice1_b27_cut1_stereo_44KHz.wav
0	8	2	3	1	C	2	1	1181	1	poli_8sides 21_whiteLine3.jpg	Practice3_b26_cut1_stereo_44KHz.wav
0	9	2	4	0	C	2	0	1034	0	poli_8sides 21_whiteLine3.jpg	Practice4_b26_stereo_44KHz.wav
0	10	2	3	1	C	2	1	987	1	poli_8sides 21_whiteLine3.jpg	Practice3_b26_cut1_stereo_44KHz.wav
0	11	1	1	1	C	1	0	791	0	poli_8sides 22_whiteLine3.jpg	Practice2_b27_cut2_stereo_44KHz.wav
0	12	1	2	0	C	1	1	838	1	poli_8sides 22_whiteLine3.jpg	Practice1_b27_cut1_stereo_44KHz.wav
0	13	1	2	0	C	2	0	1005	0	poli_8sides 22_whiteLine3.jpg	Practice1_b27_cut1_stereo_44KHz.wav
0	14	2	4	0	C	1	1	743	1	poli_8sides 21_whiteLine3.jpg	Practice4_b26_stereo_44KHz.wav
0	15	2	3	1	C	2	1	923	1	poli_8sides 21_whiteLine3.jpg	Practice3_b26_cut1_stereo_44KHz.wav
0	16	1	1	1	C	2	1	1303	1	poli_8sides 22_whiteLine3.jpg	Practice2_b27_cut2_stereo_44KHz.wav
0	17	1	2	0	C	1	1	797	1	poli_8sides 22_whiteLine3.jpg	Practice1_b27_cut1_stereo_44KHz.wav
0	18	1	1	1	C	2	1	706	1	poli_8sides 22_whiteLine3.jpg	Practice2_b27_cut2_stereo_44KHz.wav
0	19	2	3	1	C	2	1	734	1	poli_8sides 21_whiteLine3.jpg	Practice3_b26_cut1_stereo_44KHz.wav
0	20	2	4	0	C	2	0	773	0	poli_8sides 21_whiteLine3.jpg	Practice4_b26_stereo_44KHz.wav
0	21	2	3	1	C	2	1	922	1	poli_8sides 21_whiteLine3.jpg	Practice3_b26_cut1_stereo_44KHz.wav
0	22	1	1	1	C	2	1	800	1	poli_8sides 22_whiteLine3.jpg	Practice2_b27_cut2_stereo_44KHz.wav
0	23	1	2	0	C	1	1	813	1	poli_8sides 22_whiteLine3.jpg	Practice1_b27_cut1_stereo_44KHz.wav
0	24	2	4	0	C	2	0	570	0	poli_8sides 21_whiteLine3.jpg	Practice4_b26_stereo_44KHz.wav
0	25	2	4	0	C	1	1	1247	1	poli_8sides 21_whiteLine3.jpg	Practice4_b26_stereo_44KHz.wav
0	26	1	1	1	C	2	1	757	1	poli_8sides 22_whiteLine3.jpg	Practice2_b27_cut2_stereo_44KHz.wav
0	27	1	2	0	C	1	1	1023	1	poli_8sides 22_whiteLine3.jpg	Practice1_b27_cut1_stereo_44KHz.wav
0	28	2	3	1	C	2	1	1356	1	poli_8sides 21_whiteLine3.jpg	Practice3_b26_cut1_stereo_44KHz.wav
0	29	1	1	1	C	2	1	1318	1	poli_8sides 22_whiteLine3.jpg	Practice2_b27_cut2_stereo_44KHz.wav
0	30	1	2	0	C	1	1	880	1	poli_8sides 22_whiteLine3.jpg	Practice1_b27_cut1_stereo_44KHz.wav
avg_resp = 948
1	1	4	4	2	I	2	0	910	0	poli_8sides 18_whiteLine3.jpg	MediumShort_e22_cut1_stereo_44KHz.wav
1	2	3	3	2	I	2	0	731	1	poli_8sides 2_whiteLine3.jpg	MediumShort_e16_cut1_stereo_44KHz.wav
1	3	2	1	0	C	2	0	648	0	poli_8sides 15_whiteLine3.jpg	MediumShort_b10_cut1_MS_stereo_44KHz.wav
1	4	1	1	1	C	2	1	813	1	poli_8sides 16_whiteLine3.jpg	MediumShort_b10_cut1_MS_stereo_44KHz.wav
1	5	2	2	1	C	2	1	582	1	poli_8sides 15_whiteLine3.jpg	MediumShort_b16_cut3_MS_stereo_44KHz.wav
1	6	4	3	2	I	2	0	671	1	poli_8sides 18_whiteLine3.jpg	MediumShort_e16_cut1_stereo_44KHz.wav
1	7	3	4	2	I	1	0	597	1	poli_8sides 2_whiteLine3.jpg	MediumShort_e22_cut1_stereo_44KHz.wav
1	8	1	2	0	C	2	0	704	0	poli_8sides 16_whiteLine3.jpg	MediumShort_b16_cut3_MS_stereo_44KHz.wav
1	9	2	2	1	C	2	1	747	1	poli_8sides 15_whiteLine3.jpg	MediumShort_b16_cut3_MS_stereo_44KHz.wav
1	10	3	4	2	I	1	0	748	1	poli_8sides 2_whiteLine3.jpg	MediumShort_e22_cut1_stereo_44KHz.wav
1	11	1	2	0	C	1	1	576	1	poli_8sides 16_whiteLine3.jpg	MediumShort_b16_cut3_MS_stereo_44KHz.wav
1	12	4	4	2	I	2	0	848	0	poli_8sides 18_whiteLine3.jpg	MediumShort_e22_cut1_stereo_44KHz.wav
1	13	2	1	0	C	1	1	783	1	poli_8sides 15_whiteLine3.jpg	MediumShort_b10_cut1_MS_stereo_44KHz.wav
1	14	3	3	2	I	1	0	824	0	poli_8sides 2_whiteLine3.jpg	MediumShort_e16_cut1_stereo_44KHz.wav
1	15	4	3	2	I	1	0	831	1	poli_8sides 18_whiteLine3.jpg	MediumShort_e16_cut1_stereo_44KHz.wav
1	16	1	1	1	C	1	0	977	0	poli_8sides 16_whiteLine3.jpg	MediumShort_b10_cut1_MS_stereo_44KHz.wav
1	17	4	4	2	I	2	0	918	0	poli_8sides 18_whiteLine3.jpg	MediumShort_e22_cut1_stereo_44KHz.wav
1	18	1	1	1	C	2	1	1584	1	poli_8sides 16_whiteLine3.jpg	MediumShort_b10_cut1_MS_stereo_44KHz.wav
1	19	3	3	2	I	1	0	1013	1	poli_8sides 2_whiteLine3.jpg	MediumShort_e16_cut1_stereo_44KHz.wav
1	20	2	1	0	C	1	1	967	1	poli_8sides 15_whiteLine3.jpg	MediumShort_b10_cut1_MS_stereo_44KHz.wav
1	21	4	3	2	I	2	0	1529	1	poli_8sides 18_whiteLine3.jpg	MediumShort_e16_cut1_stereo_44KHz.wav
1	22	2	2	1	C	2	1	1069	1	poli_8sides 15_whiteLine3.jpg	MediumShort_b16_cut3_MS_stereo_44KHz.wav
1	23	3	4	2	I	1	0	915	1	poli_8sides 2_whiteLine3.jpg	MediumShort_e22_cut1_stereo_44KHz.wav
1	24	1	2	0	C	1	1	1496	1	poli_8sides 16_whiteLine3.jpg	MediumShort_b16_cut3_MS_stereo_44KHz.wav
1	25	2	2	1	C	2	1	829	1	poli_8sides 15_whiteLine3.jpg	MediumShort_b16_cut3_MS_stereo_44KHz.wav
1	26	1	1	1	C	2	1	968	1	poli_8sides 16_whiteLine3.jpg	MediumShort_b10_cut1_MS_stereo_44KHz.wav
1	27	4	4	2	I	1	0	747	1	poli_8sides 18_whiteLine3.jpg	MediumShort_e22_cut1_stereo_44KHz.wav
1	28	3	4	2	I	2	0	852	0	poli_8sides 2_whiteLine3.jpg	MediumShort_e22_cut1_stereo_44KHz.wav
1	29	2	1	0	C	1	1	730	1	poli_8sides 15_whiteLine3.jpg	MediumShort_b10_cut1_MS_stereo_44KHz.wav
1	30	3	3	2	I	2	0	882	1	poli_8sides 2_whiteLine3.jpg	MediumShort_e16_cut1_stereo_44KHz.wav
1	31	4	3	2	I	1	0	663	0	poli_8sides 18_whiteLine3.jpg	MediumShort_e16_cut1_stereo_44KHz.wav
1	32	1	2	0	C	2	0	1185	0	poli_8sides 16_whiteLine3.jpg	MediumShort_b16_cut3_MS_stereo_44KHz.wav
1	33	3	4	2	I	1	0	837	1	poli_8sides 2_whiteLine3.jpg	MediumShort_e22_cut1_stereo_44KHz.wav
1	34	1	2	0	C	1	1	877	1	poli_8sides 16_whiteLine3.jpg	MediumShort_b16_cut3_MS_stereo_44KHz.wav
1	35	4	4	2	I	2	0	1425	1	poli_8sides 18_whiteLine3.jpg	MediumShort_e22_cut1_stereo_44KHz.wav
1	36	2	1	0	C	1	1	778	1	poli_8sides 15_whiteLine3.jpg	MediumShort_b10_cut1_MS_stereo_44KHz.wav
1	37	4	3	2	I	1	0	825	0	poli_8sides 18_whiteLine3.jpg	MediumShort_e16_cut1_stereo_44KHz.wav
1	38	2	2	1	C	2	1	805	1	poli_8sides 15_whiteLine3.jpg	MediumShort_b16_cut3_MS_stereo_44KHz.wav
1	39	1	1	1	C	1	0	1316	0	poli_8sides 16_whiteLine3.jpg	MediumShort_b10_cut1_MS_stereo_44KHz.wav
1	40	3	3	2	I	2	0	848	1	poli_8sides 2_whiteLine3.jpg	MediumShort_e16_cut1_stereo_44KHz.wav
1	41	2	2	1	C	1	0	883	0	poli_8sides 15_whiteLine3.jpg	MediumShort_b16_cut3_MS_stereo_44KHz.wav
1	42	1	2	0	C	1	1	722	1	poli_8sides 16_whiteLine3.jpg	MediumShort_b16_cut3_MS_stereo_44KHz.wav
1	43	4	3	2	I	1	0	993	1	poli_8sides 18_whiteLine3.jpg	MediumShort_e16_cut1_stereo_44KHz.wav
1	44	3	4	2	I	1	0	916	1	poli_8sides 2_whiteLine3.jpg	MediumShort_e22_cut1_stereo_44KHz.wav
1	45	4	4	2	I	2	0	826	0	poli_8sides 18_whiteLine3.jpg	MediumShort_e22_cut1_stereo_44KHz.wav
1	46	1	1	1	C	1	0	1353	0	poli_8sides 16_whiteLine3.jpg	MediumShort_b10_cut1_MS_stereo_44KHz.wav
1	47	3	3	2	I	2	0	1021	0	poli_8sides 2_whiteLine3.jpg	MediumShort_e16_cut1_stereo_44KHz.wav
1	48	2	1	0	C	1	1	731	1	poli_8sides 15_whiteLine3.jpg	MediumShort_b10_cut1_MS_stereo_44KHz.wav
1	49	4	4	2	I	2	0	938	1	poli_8sides 18_whiteLine3.jpg	MediumShort_e22_cut1_stereo_44KHz.wav
1	50	2	2	1	C	2	1	989	1	poli_8sides 15_whiteLine3.jpg	MediumShort_b16_cut3_MS_stereo_44KHz.wav
1	51	1	1	1	C	2	1	899	1	poli_8sides 16_whiteLine3.jpg	MediumShort_b10_cut1_MS_stereo_44KHz.wav
1	52	3	3	2	I	2	0	1281	0	poli_8sides 2_whiteLine3.jpg	MediumShort_e16_cut1_stereo_44KHz.wav
1	53	2	1	0	C	1	1	758	1	poli_8sides 15_whiteLine3.jpg	MediumShort_b10_cut1_MS_stereo_44KHz.wav
1	54	1	2	0	C	1	1	1063	1	poli_8sides 16_whiteLine3.jpg	MediumShort_b16_cut3_MS_stereo_44KHz.wav
1	55	4	3	2	I	1	0	1097	1	poli_8sides 18_whiteLine3.jpg	MediumShort_e16_cut1_stereo_44KHz.wav
1	56	3	4	2	I	1	0	783	1	poli_8sides 2_whiteLine3.jpg	MediumShort_e22_cut1_stereo_44KHz.wav
1	57	2	2	1	C	2	1	849	1	poli_8sides 15_whiteLine3.jpg	MediumShort_b16_cut3_MS_stereo_44KHz.wav
1	58	4	4	2	I	2	0	737	0	poli_8sides 18_whiteLine3.jpg	MediumShort_e22_cut1_stereo_44KHz.wav
1	59	3	3	2	I	2	0	729	0	poli_8sides 2_whiteLine3.jpg	MediumShort_e16_cut1_stereo_44KHz.wav
1	60	1	2	0	C	1	1	831	1	poli_8sides 16_whiteLine3.jpg	MediumShort_b16_cut3_MS_stereo_44KHz.wav
1	61	2	1	0	C	2	0	933	0	poli_8sides 15_whiteLine3.jpg	MediumShort_b10_cut1_MS_stereo_44KHz.wav
1	62	1	1	1	C	2	1	1108	1	poli_8sides 16_whiteLine3.jpg	MediumShort_b10_cut1_MS_stereo_44KHz.wav
1	63	4	3	2	I	1	0	749	0	poli_8sides 18_whiteLine3.jpg	MediumShort_e16_cut1_stereo_44KHz.wav
1	64	3	4	2	I	1	0	915	1	poli_8sides 2_whiteLine3.jpg	MediumShort_e22_cut1_stereo_44KHz.wav
1	65	4	4	2	I	1	0	1205	1	poli_8sides 18_whiteLine3.jpg	MediumShort_e22_cut1_stereo_44KHz.wav
1	66	1	1	1	C	1	0	1055	0	poli_8sides 16_whiteLine3.jpg	MediumShort_b10_cut1_MS_stereo_44KHz.wav
1	67	2	2	1	C	2	1	751	1	poli_8sides 15_whiteLine3.jpg	MediumShort_b16_cut3_MS_stereo_44KHz.wav
1	68	3	4	2	I	1	0	831	0	poli_8sides 2_whiteLine3.jpg	MediumShort_e22_cut1_stereo_44KHz.wav
1	69	4	3	2	I	1	0	744	1	poli_8sides 18_whiteLine3.jpg	MediumShort_e16_cut1_stereo_44KHz.wav
1	70	3	3	2	I	2	0	1162	0	poli_8sides 2_whiteLine3.jpg	MediumShort_e16_cut1_stereo_44KHz.wav
1	71	1	2	0	C	1	1	1159	1	poli_8sides 16_whiteLine3.jpg	MediumShort_b16_cut3_MS_stereo_44KHz.wav
1	72	2	1	0	C	1	1	1128	1	poli_8sides 15_whiteLine3.jpg	MediumShort_b10_cut1_MS_stereo_44KHz.wav
1	73	3	4	2	I	1	0	577	1	poli_8sides 2_whiteLine3.jpg	MediumShort_e22_cut1_stereo_44KHz.wav
1	74	2	2	1	C	2	1	893	1	poli_8sides 15_whiteLine3.jpg	MediumShort_b16_cut3_MS_stereo_44KHz.wav
1	75	4	3	2	I	1	0	784	1	poli_8sides 18_whiteLine3.jpg	MediumShort_e16_cut1_stereo_44KHz.wav
1	76	1	1	1	C	2	1	802	1	poli_8sides 16_whiteLine3.jpg	MediumShort_b10_cut1_MS_stereo_44KHz.wav
1	77	2	1	0	C	1	1	766	1	poli_8sides 15_whiteLine3.jpg	MediumShort_b10_cut1_MS_stereo_44KHz.wav
1	78	1	2	0	C	1	1	899	1	poli_8sides 16_whiteLine3.jpg	MediumShort_b16_cut3_MS_stereo_44KHz.wav
1	79	4	4	2	I	2	0	1211	0	poli_8sides 18_whiteLine3.jpg	MediumShort_e22_cut1_stereo_44KHz.wav
1	80	3	3	2	I	2	0	793	1	poli_8sides 2_whiteLine3.jpg	MediumShort_e16_cut1_stereo_44KHz.wav
1	81	1	2	0	C	1	1	913	1	poli_8sides 16_whiteLine3.jpg	MediumShort_b16_cut3_MS_stereo_44KHz.wav
1	82	4	4	2	I	1	0	864	1	poli_8sides 18_whiteLine3.jpg	MediumShort_e22_cut1_stereo_44KHz.wav
1	83	2	1	0	C	1	1	1131	1	poli_8sides 15_whiteLine3.jpg	MediumShort_b10_cut1_MS_stereo_44KHz.wav
1	84	3	3	2	I	2	0	868	0	poli_8sides 2_whiteLine3.jpg	MediumShort_e16_cut1_stereo_44KHz.wav
1	85	4	3	2	I	1	0	877	0	poli_8sides 18_whiteLine3.jpg	MediumShort_e16_cut1_stereo_44KHz.wav
1	86	3	4	2	I	1	0	880	0	poli_8sides 2_whiteLine3.jpg	MediumShort_e22_cut1_stereo_44KHz.wav
1	87	2	2	1	C	1	0	819	0	poli_8sides 15_whiteLine3.jpg	MediumShort_b16_cut3_MS_stereo_44KHz.wav
1	88	1	1	1	C	2	1	1869	1	poli_8sides 16_whiteLine3.jpg	MediumShort_b10_cut1_MS_stereo_44KHz.wav
1	89	3	3	2	I	2	0	735	1	poli_8sides 2_whiteLine3.jpg	MediumShort_e16_cut1_stereo_44KHz.wav
1	90	2	1	0	C	1	1	703	1	poli_8sides 15_whiteLine3.jpg	MediumShort_b10_cut1_MS_stereo_44KHz.wav
1	91	1	1	1	C	2	1	814	1	poli_8sides 16_whiteLine3.jpg	MediumShort_b10_cut1_MS_stereo_44KHz.wav
1	92	4	3	2	I	1	0	1029	0	poli_8sides 18_whiteLine3.jpg	MediumShort_e16_cut1_stereo_44KHz.wav
1	93	3	4	2	I	1	0	862	1	poli_8sides 2_whiteLine3.jpg	MediumShort_e22_cut1_stereo_44KHz.wav
1	94	1	2	0	C	1	1	722	1	poli_8sides 16_whiteLine3.jpg	MediumShort_b16_cut3_MS_stereo_44KHz.wav
1	95	4	4	2	I	1	0	1148	0	poli_8sides 18_whiteLine3.jpg	MediumShort_e22_cut1_stereo_44KHz.wav
1	96	2	2	1	C	2	1	934	1	poli_8sides 15_whiteLine3.jpg	MediumShort_b16_cut3_MS_stereo_44KHz.wav
1	97	4	3	2	I	1	0	887	0	poli_8sides 18_whiteLine3.jpg	MediumShort_e16_cut1_stereo_44KHz.wav
1	98	2	2	1	C	1	0	839	0	poli_8sides 15_whiteLine3.jpg	MediumShort_b16_cut3_MS_stereo_44KHz.wav
1	99	1	2	0	C	1	1	689	1	poli_8sides 16_whiteLine3.jpg	MediumShort_b16_cut3_MS_stereo_44KHz.wav
1	100	3	4	2	I	1	0	810	0	poli_8sides 2_whiteLine3.jpg	MediumShort_e22_cut1_stereo_44KHz.wav
1	101	2	1	0	C	1	1	729	1	poli_8sides 15_whiteLine3.jpg	MediumShort_b10_cut1_MS_stereo_44KHz.wav
1	102	4	4	2	I	2	0	1093	1	poli_8sides 18_whiteLine3.jpg	MediumShort_e22_cut1_stereo_44KHz.wav
1	103	1	1	1	C	2	1	1234	1	poli_8sides 16_whiteLine3.jpg	MediumShort_b10_cut1_MS_stereo_44KHz.wav
1	104	3	3	2	I	2	0	819	1	poli_8sides 2_whiteLine3.jpg	MediumShort_e16_cut1_stereo_44KHz.wav
1	105	4	4	2	I	2	0	762	0	poli_8sides 18_whiteLine3.jpg	MediumShort_e22_cut1_stereo_44KHz.wav
1	106	3	4	2	I	1	0	846	1	poli_8sides 2_whiteLine3.jpg	MediumShort_e22_cut1_stereo_44KHz.wav
1	107	2	2	1	C	2	1	892	1	poli_8sides 15_whiteLine3.jpg	MediumShort_b16_cut3_MS_stereo_44KHz.wav
1	108	1	1	1	C	2	1	1050	1	poli_8sides 16_whiteLine3.jpg	MediumShort_b10_cut1_MS_stereo_44KHz.wav
1	109	2	1	0	C	1	1	733	1	poli_8sides 15_whiteLine3.jpg	MediumShort_b10_cut1_MS_stereo_44KHz.wav
1	110	1	2	0	C	1	1	1353	1	poli_8sides 16_whiteLine3.jpg	MediumShort_b16_cut3_MS_stereo_44KHz.wav
1	111	4	3	2	I	1	0	1107	0	poli_8sides 18_whiteLine3.jpg	MediumShort_e16_cut1_stereo_44KHz.wav
1	112	3	3	2	I	2	0	803	0	poli_8sides 2_whiteLine3.jpg	MediumShort_e16_cut1_stereo_44KHz.wav
1	113	4	4	2	I	1	0	1397	1	poli_8sides 18_whiteLine3.jpg	MediumShort_e22_cut1_stereo_44KHz.wav
1	114	1	1	1	C	1	0	1818	0	poli_8sides 16_whiteLine3.jpg	MediumShort_b10_cut1_MS_stereo_44KHz.wav
1	115	2	1	0	C	1	1	585	1	poli_8sides 15_whiteLine3.jpg	MediumShort_b10_cut1_MS_stereo_44KHz.wav
1	116	3	3	2	I	2	0	845	1	poli_8sides 2_whiteLine3.jpg	MediumShort_e16_cut1_stereo_44KHz.wav
1	117	4	3	2	I	1	0	822	1	poli_8sides 18_whiteLine3.jpg	MediumShort_e16_cut1_stereo_44KHz.wav
1	118	2	2	1	C	1	0	813	0	poli_8sides 15_whiteLine3.jpg	MediumShort_b16_cut3_MS_stereo_44KHz.wav
1	119	1	2	0	C	1	1	1006	1	poli_8sides 16_whiteLine3.jpg	MediumShort_b16_cut3_MS_stereo_44KHz.wav
1	120	3	4	2	I	1	0	882	0	poli_8sides 2_whiteLine3.jpg	MediumShort_e22_cut1_stereo_44KHz.wav
1	121	2	2	1	C	2	1	901	1	poli_8sides 15_whiteLine3.jpg	MediumShort_b16_cut3_MS_stereo_44KHz.wav
1	122	3	3	2	I	2	0	861	0	poli_8sides 2_whiteLine3.jpg	MediumShort_e16_cut1_stereo_44KHz.wav
1	123	1	2	0	C	1	1	918	1	poli_8sides 16_whiteLine3.jpg	MediumShort_b16_cut3_MS_stereo_44KHz.wav
1	124	4	4	2	I	2	0	1053	0	poli_8sides 18_whiteLine3.jpg	MediumShort_e22_cut1_stereo_44KHz.wav
1	125	3	4	2	I	1	0	836	0	poli_8sides 2_whiteLine3.jpg	MediumShort_e22_cut1_stereo_44KHz.wav
1	126	1	1	1	C	1	0	1177	0	poli_8sides 16_whiteLine3.jpg	MediumShort_b10_cut1_MS_stereo_44KHz.wav
1	127	4	3	2	I	1	0	906	0	poli_8sides 18_whiteLine3.jpg	MediumShort_e16_cut1_stereo_44KHz.wav
1	128	2	1	0	C	1	1	703	1	poli_8sides 15_whiteLine3.jpg	MediumShort_b10_cut1_MS_stereo_44KHz.wav
1	129	4	3	2	I	1	0	871	1	poli_8sides 18_whiteLine3.jpg	MediumShort_e16_cut1_stereo_44KHz.wav
1	130	2	1	0	C	1	1	978	1	poli_8sides 15_whiteLine3.jpg	MediumShort_b10_cut1_MS_stereo_44KHz.wav
1	131	1	1	1	C	2	1	1580	1	poli_8sides 16_whiteLine3.jpg	MediumShort_b10_cut1_MS_stereo_44KHz.wav
1	132	3	3	2	I	2	0	897	0	poli_8sides 2_whiteLine3.jpg	MediumShort_e16_cut1_stereo_44KHz.wav
1	133	2	2	1	C	1	0	627	0	poli_8sides 15_whiteLine3.jpg	MediumShort_b16_cut3_MS_stereo_44KHz.wav
1	134	3	4	2	I	1	0	800	0	poli_8sides 2_whiteLine3.jpg	MediumShort_e22_cut1_stereo_44KHz.wav
1	135	4	4	2	I	2	0	826	0	poli_8sides 18_whiteLine3.jpg	MediumShort_e22_cut1_stereo_44KHz.wav
1	136	1	2	0	C	1	1	880	1	poli_8sides 16_whiteLine3.jpg	MediumShort_b16_cut3_MS_stereo_44KHz.wav
1	137	4	4	2	I	2	0	735	0	poli_8sides 18_whiteLine3.jpg	MediumShort_e22_cut1_stereo_44KHz.wav
1	138	2	2	1	C	2	1	1269	1	poli_8sides 15_whiteLine3.jpg	MediumShort_b16_cut3_MS_stereo_44KHz.wav
1	139	1	2	0	C	1	1	822	1	poli_8sides 16_whiteLine3.jpg	MediumShort_b16_cut3_MS_stereo_44KHz.wav
1	140	3	4	2	I	1	0	808	0	poli_8sides 2_whiteLine3.jpg	MediumShort_e22_cut1_stereo_44KHz.wav
1	141	4	3	2	I	1	0	877	1	poli_8sides 18_whiteLine3.jpg	MediumShort_e16_cut1_stereo_44KHz.wav
1	142	2	1	0	C	1	1	730	1	poli_8sides 15_whiteLine3.jpg	MediumShort_b10_cut1_MS_stereo_44KHz.wav
1	143	1	1	1	C	2	1	750	1	poli_8sides 16_whiteLine3.jpg	MediumShort_b10_cut1_MS_stereo_44KHz.wav
1	144	3	3	2	I	2	0	769	0	poli_8sides 2_whiteLine3.jpg	MediumShort_e16_cut1_stereo_44KHz.wav
1	145	4	4	2	I	2	0	1251	1	poli_8sides 18_whiteLine3.jpg	MediumShort_e22_cut1_stereo_44KHz.wav
1	146	2	1	0	C	1	1	911	1	poli_8sides 15_whiteLine3.jpg	MediumShort_b10_cut1_MS_stereo_44KHz.wav
1	147	1	1	1	C	2	1	787	1	poli_8sides 16_whiteLine3.jpg	MediumShort_b10_cut1_MS_stereo_44KHz.wav
1	148	3	4	2	I	1	0	1280	0	poli_8sides 2_whiteLine3.jpg	MediumShort_e22_cut1_stereo_44KHz.wav
1	149	2	2	1	C	2	1	850	1	poli_8sides 15_whiteLine3.jpg	MediumShort_b16_cut3_MS_stereo_44KHz.wav
1	150	1	2	0	C	1	1	799	1	poli_8sides 16_whiteLine3.jpg	MediumShort_b16_cut3_MS_stereo_44KHz.wav
1	151	3	3	2	I	2	0	663	1	poli_8sides 2_whiteLine3.jpg	MediumShort_e16_cut1_stereo_44KHz.wav
1	152	4	3	2	I	1	0	887	1	poli_8sides 18_whiteLine3.jpg	MediumShort_e16_cut1_stereo_44KHz.wav
1	153	3	4	2	I	1	0	854	1	poli_8sides 2_whiteLine3.jpg	MediumShort_e22_cut1_stereo_44KHz.wav
1	154	1	1	1	C	2	1	732	1	poli_8sides 16_whiteLine3.jpg	MediumShort_b10_cut1_MS_stereo_44KHz.wav
1	155	4	3	2	I	1	0	909	1	poli_8sides 18_whiteLine3.jpg	MediumShort_e16_cut1_stereo_44KHz.wav
1	156	2	1	0	C	1	1	1102	1	poli_8sides 15_whiteLine3.jpg	MediumShort_b10_cut1_MS_stereo_44KHz.wav
1	157	3	3	2	I	2	0	1216	1	poli_8sides 2_whiteLine3.jpg	MediumShort_e16_cut1_stereo_44KHz.wav
1	158	1	2	0	C	1	1	1692	1	poli_8sides 16_whiteLine3.jpg	MediumShort_b16_cut3_MS_stereo_44KHz.wav
1	159	4	4	2	I	2	0	820	1	poli_8sides 18_whiteLine3.jpg	MediumShort_e22_cut1_stereo_44KHz.wav
1	160	2	2	1	C	1	0	761	0	poli_8sides 15_whiteLine3.jpg	MediumShort_b16_cut3_MS_stereo_44KHz.wav
1	161	3	3	2	I	2	0	944	0	poli_8sides 2_whiteLine3.jpg	MediumShort_e16_cut1_stereo_44KHz.wav
1	162	1	2	0	C	1	1	847	1	poli_8sides 16_whiteLine3.jpg	MediumShort_b16_cut3_MS_stereo_44KHz.wav
1	163	2	2	1	C	2	1	1025	1	poli_8sides 15_whiteLine3.jpg	MediumShort_b16_cut3_MS_stereo_44KHz.wav
1	164	4	3	2	I	1	0	819	0	poli_8sides 18_whiteLine3.jpg	MediumShort_e16_cut1_stereo_44KHz.wav
1	165	3	4	2	I	1	0	995	0	poli_8sides 2_whiteLine3.jpg	MediumShort_e22_cut1_stereo_44KHz.wav
1	166	2	1	0	C	1	1	815	1	poli_8sides 15_whiteLine3.jpg	MediumShort_b10_cut1_MS_stereo_44KHz.wav
1	167	1	1	1	C	2	1	1439	1	poli_8sides 16_whiteLine3.jpg	MediumShort_b10_cut1_MS_stereo_44KHz.wav
1	168	4	4	2	I	2	0	1301	0	poli_8sides 18_whiteLine3.jpg	MediumShort_e22_cut1_stereo_44KHz.wav
1	169	1	1	1	C	1	0	1205	0	poli_8sides 16_whiteLine3.jpg	MediumShort_b10_cut1_MS_stereo_44KHz.wav
1	170	4	3	2	I	1	0	976	1	poli_8sides 18_whiteLine3.jpg	MediumShort_e16_cut1_stereo_44KHz.wav
1	171	3	3	2	I	2	0	1290	0	poli_8sides 2_whiteLine3.jpg	MediumShort_e16_cut1_stereo_44KHz.wav
1	172	2	1	0	C	1	1	1254	1	poli_8sides 15_whiteLine3.jpg	MediumShort_b10_cut1_MS_stereo_44KHz.wav
1	173	1	2	0	C	1	1	1162	1	poli_8sides 16_whiteLine3.jpg	MediumShort_b16_cut3_MS_stereo_44KHz.wav
1	174	3	4	2	I	1	0	1154	1	poli_8sides 2_whiteLine3.jpg	MediumShort_e22_cut1_stereo_44KHz.wav
1	175	4	4	2	I	2	0	1372	0	poli_8sides 18_whiteLine3.jpg	MediumShort_e22_cut1_stereo_44KHz.wav
1	176	2	2	1	C	2	1	1161	1	poli_8sides 15_whiteLine3.jpg	MediumShort_b16_cut3_MS_stereo_44KHz.wav
1	177	3	4	2	I	1	0	823	0	poli_8sides 2_whiteLine3.jpg	MediumShort_e22_cut1_stereo_44KHz.wav
1	178	1	2	0	C	1	1	1090	1	poli_8sides 16_whiteLine3.jpg	MediumShort_b16_cut3_MS_stereo_44KHz.wav
1	179	2	1	0	C	1	1	996	1	poli_8sides 15_whiteLine3.jpg	MediumShort_b10_cut1_MS_stereo_44KHz.wav
1	180	4	4	2	I	2	0	834	0	poli_8sides 18_whiteLine3.jpg	MediumShort_e22_cut1_stereo_44KHz.wav
1	181	2	2	1	C	1	0	754	0	poli_8sides 15_whiteLine3.jpg	MediumShort_b16_cut3_MS_stereo_44KHz.wav
1	182	3	3	2	I	2	0	687	1	poli_8sides 2_whiteLine3.jpg	MediumShort_e16_cut1_stereo_44KHz.wav
1	183	4	3	2	I	2	0	670	1	poli_8sides 18_whiteLine3.jpg	MediumShort_e16_cut1_stereo_44KHz.wav
1	184	1	1	1	C	2	1	1263	1	poli_8sides 16_whiteLine3.jpg	MediumShort_b10_cut1_MS_stereo_44KHz.wav
1	185	2	2	1	C	2	1	783	1	poli_8sides 15_whiteLine3.jpg	MediumShort_b16_cut3_MS_stereo_44KHz.wav
1	186	3	3	2	I	2	0	947	1	poli_8sides 2_whiteLine3.jpg	MediumShort_e16_cut1_stereo_44KHz.wav
1	187	1	1	1	C	2	1	973	1	poli_8sides 16_whiteLine3.jpg	MediumShort_b10_cut1_MS_stereo_44KHz.wav
1	188	4	3	2	I	1	0	924	1	poli_8sides 18_whiteLine3.jpg	MediumShort_e16_cut1_stereo_44KHz.wav
1	189	1	2	0	C	1	1	899	1	poli_8sides 16_whiteLine3.jpg	MediumShort_b16_cut3_MS_stereo_44KHz.wav
1	190	4	4	2	I	2	0	819	0	poli_8sides 18_whiteLine3.jpg	MediumShort_e22_cut1_stereo_44KHz.wav
1	191	2	1	0	C	1	1	821	1	poli_8sides 15_whiteLine3.jpg	MediumShort_b10_cut1_MS_stereo_44KHz.wav
1	192	3	4	2	I	1	0	1164	1	poli_8sides 2_whiteLine3.jpg	MediumShort_e22_cut1_stereo_44KHz.wav
1	193	2	1	0	C	1	1	1098	1	poli_8sides 15_whiteLine3.jpg	MediumShort_b10_cut1_MS_stereo_44KHz.wav
1	194	3	4	2	I	1	0	791	0	poli_8sides 2_whiteLine3.jpg	MediumShort_e22_cut1_stereo_44KHz.wav
1	195	4	3	2	I	1	0	1072	1	poli_8sides 18_whiteLine3.jpg	MediumShort_e16_cut1_stereo_44KHz.wav
1	196	1	1	1	C	2	1	814	1	poli_8sides 16_whiteLine3.jpg	MediumShort_b10_cut1_MS_stereo_44KHz.wav
1	197	2	2	1	C	2	1	1062	1	poli_8sides 15_whiteLine3.jpg	MediumShort_b16_cut3_MS_stereo_44KHz.wav
1	198	1	2	0	C	1	1	1493	1	poli_8sides 16_whiteLine3.jpg	MediumShort_b16_cut3_MS_stereo_44KHz.wav
1	199	4	4	2	I	2	0	768	0	poli_8sides 18_whiteLine3.jpg	MediumShort_e22_cut1_stereo_44KHz.wav
1	200	3	3	2	I	2	0	708	0	poli_8sides 2_whiteLine3.jpg	MediumShort_e16_cut1_stereo_44KHz.wav
2	1	1	1	1	C	2	1	1052	1	poli_8sides 1_whiteLine3.jpg	Short_b20_cut1_stereo_44KHz.wav
2	2	2	2	1	C	2	1	834	1	poli_8sides 3_whiteLine3.jpg	Short_b22_cut1_stereo_44KHz.wav
2	3	4	4	2	I	2	0	462	0	poli_8sides 8_whiteLine3.jpg	Short_b23_cut1_stereo_44KHz.wav
2	4	3	4	2	I	2	0	272	0	poli_8sides 5_whiteLine3.jpg	Short_b23_cut1_stereo_44KHz.wav
2	5	1	2	0	C	2	0	606	0	poli_8sides 1_whiteLine3.jpg	Short_b22_cut1_stereo_44KHz.wav
2	6	2	1	0	C	1	1	728	1	poli_8sides 3_whiteLine3.jpg	Short_b20_cut1_stereo_44KHz.wav
2	7	3	3	2	I	2	0	595	1	poli_8sides 5_whiteLine3.jpg	Short_b09_cut1_stereo_44KHz.wav
2	8	4	3	2	I	1	0	773	1	poli_8sides 8_whiteLine3.jpg	Short_b09_cut1_stereo_44KHz.wav
2	9	1	2	0	C	1	1	999	1	poli_8sides 1_whiteLine3.jpg	Short_b22_cut1_stereo_44KHz.wav
2	10	3	3	2	I	2	0	1099	1	poli_8sides 5_whiteLine3.jpg	Short_b09_cut1_stereo_44KHz.wav
2	11	2	1	0	C	1	1	893	1	poli_8sides 3_whiteLine3.jpg	Short_b20_cut1_stereo_44KHz.wav
2	12	4	3	2	I	1	0	994	0	poli_8sides 8_whiteLine3.jpg	Short_b09_cut1_stereo_44KHz.wav
2	13	2	2	1	C	1	0	936	0	poli_8sides 3_whiteLine3.jpg	Short_b22_cut1_stereo_44KHz.wav
2	14	3	4	2	I	2	0	955	1	poli_8sides 5_whiteLine3.jpg	Short_b23_cut1_stereo_44KHz.wav
2	15	4	4	2	I	1	0	796	0	poli_8sides 8_whiteLine3.jpg	Short_b23_cut1_stereo_44KHz.wav
2	16	1	1	1	C	1	0	908	0	poli_8sides 1_whiteLine3.jpg	Short_b20_cut1_stereo_44KHz.wav
2	17	4	4	2	I	1	0	809	0	poli_8sides 8_whiteLine3.jpg	Short_b23_cut1_stereo_44KHz.wav
2	18	3	4	2	I	1	0	943	1	poli_8sides 5_whiteLine3.jpg	Short_b23_cut1_stereo_44KHz.wav
2	19	1	1	1	C	1	0	691	0	poli_8sides 1_whiteLine3.jpg	Short_b20_cut1_stereo_44KHz.wav
2	20	2	2	1	C	1	0	858	0	poli_8sides 3_whiteLine3.jpg	Short_b22_cut1_stereo_44KHz.wav
2	21	3	3	2	I	1	0	929	0	poli_8sides 5_whiteLine3.jpg	Short_b09_cut1_stereo_44KHz.wav
2	22	1	2	0	C	1	1	999	1	poli_8sides 1_whiteLine3.jpg	Short_b22_cut1_stereo_44KHz.wav
2	23	2	1	0	C	1	1	887	1	poli_8sides 3_whiteLine3.jpg	Short_b20_cut1_stereo_44KHz.wav
2	24	4	3	2	I	2	0	858	1	poli_8sides 8_whiteLine3.jpg	Short_b09_cut1_stereo_44KHz.wav
2	25	2	2	1	C	1	0	983	0	poli_8sides 3_whiteLine3.jpg	Short_b22_cut1_stereo_44KHz.wav
2	26	4	4	2	I	1	0	850	1	poli_8sides 8_whiteLine3.jpg	Short_b23_cut1_stereo_44KHz.wav
2	27	1	1	1	C	1	0	651	0	poli_8sides 1_whiteLine3.jpg	Short_b20_cut1_stereo_44KHz.wav
2	28	3	4	2	I	1	0	613	1	poli_8sides 5_whiteLine3.jpg	Short_b23_cut1_stereo_44KHz.wav
2	29	4	3	2	I	2	0	960	1	poli_8sides 8_whiteLine3.jpg	Short_b09_cut1_stereo_44KHz.wav
2	30	1	2	0	C	1	1	758	1	poli_8sides 1_whiteLine3.jpg	Short_b22_cut1_stereo_44KHz.wav
2	31	3	3	2	I	1	0	783	0	poli_8sides 5_whiteLine3.jpg	Short_b09_cut1_stereo_44KHz.wav
2	32	2	1	0	C	2	0	923	0	poli_8sides 3_whiteLine3.jpg	Short_b20_cut1_stereo_44KHz.wav
2	33	1	2	0	C	1	1	984	1	poli_8sides 1_whiteLine3.jpg	Short_b22_cut1_stereo_44KHz.wav
2	34	3	3	2	I	1	0	665	0	poli_8sides 5_whiteLine3.jpg	Short_b09_cut1_stereo_44KHz.wav
2	35	4	4	2	I	1	0	692	1	poli_8sides 8_whiteLine3.jpg	Short_b23_cut1_stereo_44KHz.wav
2	36	2	1	0	C	2	0	742	0	poli_8sides 3_whiteLine3.jpg	Short_b20_cut1_stereo_44KHz.wav
2	37	3	4	2	I	1	0	892	1	poli_8sides 5_whiteLine3.jpg	Short_b23_cut1_stereo_44KHz.wav
2	38	2	2	1	C	2	1	730	1	poli_8sides 3_whiteLine3.jpg	Short_b22_cut1_stereo_44KHz.wav
2	39	1	1	1	C	1	0	559	0	poli_8sides 1_whiteLine3.jpg	Short_b20_cut1_stereo_44KHz.wav
2	40	4	3	2	I	1	0	869	0	poli_8sides 8_whiteLine3.jpg	Short_b09_cut1_stereo_44KHz.wav
2	41	2	2	1	C	1	0	777	0	poli_8sides 3_whiteLine3.jpg	Short_b22_cut1_stereo_44KHz.wav
2	42	4	4	2	I	1	0	885	1	poli_8sides 8_whiteLine3.jpg	Short_b23_cut1_stereo_44KHz.wav
2	43	1	1	1	C	2	1	1119	1	poli_8sides 1_whiteLine3.jpg	Short_b20_cut1_stereo_44KHz.wav
2	44	3	3	2	I	1	0	640	0	poli_8sides 5_whiteLine3.jpg	Short_b09_cut1_stereo_44KHz.wav
2	45	1	2	0	C	1	1	618	1	poli_8sides 1_whiteLine3.jpg	Short_b22_cut1_stereo_44KHz.wav
2	46	4	3	2	I	1	0	523	0	poli_8sides 8_whiteLine3.jpg	Short_b09_cut1_stereo_44KHz.wav
2	47	2	1	0	C	2	0	589	0	poli_8sides 3_whiteLine3.jpg	Short_b20_cut1_stereo_44KHz.wav
2	48	3	4	2	I	1	0	556	0	poli_8sides 5_whiteLine3.jpg	Short_b23_cut1_stereo_44KHz.wav
2	49	4	3	2	I	1	0	676	0	poli_8sides 8_whiteLine3.jpg	Short_b09_cut1_stereo_44KHz.wav
2	50	2	2	1	C	1	0	1349	0	poli_8sides 3_whiteLine3.jpg	Short_b22_cut1_stereo_44KHz.wav
2	51	1	1	1	C	1	0	955	0	poli_8sides 1_whiteLine3.jpg	Short_b20_cut1_stereo_44KHz.wav
2	52	3	3	2	I	2	0	1132	0	poli_8sides 5_whiteLine3.jpg	Short_b09_cut1_stereo_44KHz.wav
2	53	1	2	0	C	1	1	653	1	poli_8sides 1_whiteLine3.jpg	Short_b22_cut1_stereo_44KHz.wav
2	54	3	4	2	I	1	0	665	1	poli_8sides 5_whiteLine3.jpg	Short_b23_cut1_stereo_44KHz.wav
2	55	4	4	2	I	2	0	711	1	poli_8sides 8_whiteLine3.jpg	Short_b23_cut1_stereo_44KHz.wav
2	56	2	1	0	C	2	0	998	0	poli_8sides 3_whiteLine3.jpg	Short_b20_cut1_stereo_44KHz.wav
2	57	4	3	2	I	1	0	652	0	poli_8sides 8_whiteLine3.jpg	Short_b09_cut1_stereo_44KHz.wav
2	58	1	2	0	C	2	0	657	0	poli_8sides 1_whiteLine3.jpg	Short_b22_cut1_stereo_44KHz.wav
2	59	3	4	2	I	1	0	799	0	poli_8sides 5_whiteLine3.jpg	Short_b23_cut1_stereo_44KHz.wav
2	60	2	2	1	C	1	0	1455	0	poli_8sides 3_whiteLine3.jpg	Short_b22_cut1_stereo_44KHz.wav
2	61	1	1	1	C	2	1	739	1	poli_8sides 1_whiteLine3.jpg	Short_b20_cut1_stereo_44KHz.wav
2	62	4	4	2	I	2	0	905	0	poli_8sides 8_whiteLine3.jpg	Short_b23_cut1_stereo_44KHz.wav
2	63	3	3	2	I	2	0	1259	1	poli_8sides 5_whiteLine3.jpg	Short_b09_cut1_stereo_44KHz.wav
2	64	2	1	0	C	1	1	966	1	poli_8sides 3_whiteLine3.jpg	Short_b20_cut1_stereo_44KHz.wav
2	65	3	3	2	I	2	0	727	0	poli_8sides 5_whiteLine3.jpg	Short_b09_cut1_stereo_44KHz.wav
2	66	2	2	1	C	1	0	1441	0	poli_8sides 3_whiteLine3.jpg	Short_b22_cut1_stereo_44KHz.wav
2	67	4	4	2	I	1	0	1669	1	poli_8sides 8_whiteLine3.jpg	Short_b23_cut1_stereo_44KHz.wav
2	68	1	2	0	C	2	0	723	0	poli_8sides 1_whiteLine3.jpg	Short_b22_cut1_stereo_44KHz.wav
2	69	2	1	0	C	1	1	662	1	poli_8sides 3_whiteLine3.jpg	Short_b20_cut1_stereo_44KHz.wav
2	70	3	4	2	I	1	0	1404	1	poli_8sides 5_whiteLine3.jpg	Short_b23_cut1_stereo_44KHz.wav
2	71	4	3	2	I	2	0	909	0	poli_8sides 8_whiteLine3.jpg	Short_b09_cut1_stereo_44KHz.wav
2	72	1	1	1	C	1	0	634	0	poli_8sides 1_whiteLine3.jpg	Short_b20_cut1_stereo_44KHz.wav
2	73	2	2	1	C	1	0	1354	0	poli_8sides 3_whiteLine3.jpg	Short_b22_cut1_stereo_44KHz.wav
2	74	1	2	0	C	1	1	657	1	poli_8sides 1_whiteLine3.jpg	Short_b22_cut1_stereo_44KHz.wav
2	75	3	4	2	I	1	0	1055	0	poli_8sides 5_whiteLine3.jpg	Short_b23_cut1_stereo_44KHz.wav
2	76	4	3	2	I	1	0	732	1	poli_8sides 8_whiteLine3.jpg	Short_b09_cut1_stereo_44KHz.wav
2	77	1	1	1	C	2	1	854	1	poli_8sides 1_whiteLine3.jpg	Short_b20_cut1_stereo_44KHz.wav
2	78	4	4	2	I	1	0	736	0	poli_8sides 8_whiteLine3.jpg	Short_b23_cut1_stereo_44KHz.wav
2	79	3	3	2	I	1	0	635	1	poli_8sides 5_whiteLine3.jpg	Short_b09_cut1_stereo_44KHz.wav
2	80	2	1	0	C	1	1	806	1	poli_8sides 3_whiteLine3.jpg	Short_b20_cut1_stereo_44KHz.wav
2	81	1	2	0	C	2	0	880	0	poli_8sides 1_whiteLine3.jpg	Short_b22_cut1_stereo_44KHz.wav
2	82	2	2	1	C	2	1	1306	1	poli_8sides 3_whiteLine3.jpg	Short_b22_cut1_stereo_44KHz.wav
2	83	4	4	2	I	1	0	771	1	poli_8sides 8_whiteLine3.jpg	Short_b23_cut1_stereo_44KHz.wav
2	84	3	3	2	I	2	0	870	0	poli_8sides 5_whiteLine3.jpg	Short_b09_cut1_stereo_44KHz.wav
2	85	2	1	0	C	1	1	744	1	poli_8sides 3_whiteLine3.jpg	Short_b20_cut1_stereo_44KHz.wav
2	86	3	4	2	I	1	0	1274	1	poli_8sides 5_whiteLine3.jpg	Short_b23_cut1_stereo_44KHz.wav
2	87	4	3	2	I	1	0	776	0	poli_8sides 8_whiteLine3.jpg	Short_b09_cut1_stereo_44KHz.wav
2	88	1	1	1	C	2	1	813	1	poli_8sides 1_whiteLine3.jpg	Short_b20_cut1_stereo_44KHz.wav
2	89	2	2	1	C	1	0	665	0	poli_8sides 3_whiteLine3.jpg	Short_b22_cut1_stereo_44KHz.wav
2	90	1	1	1	C	2	1	658	1	poli_8sides 1_whiteLine3.jpg	Short_b20_cut1_stereo_44KHz.wav
2	91	3	4	2	I	2	0	970	1	poli_8sides 5_whiteLine3.jpg	Short_b23_cut1_stereo_44KHz.wav
2	92	4	3	2	I	2	0	1271	1	poli_8sides 8_whiteLine3.jpg	Short_b09_cut1_stereo_44KHz.wav
2	93	1	2	0	C	2	0	921	0	poli_8sides 1_whiteLine3.jpg	Short_b22_cut1_stereo_44KHz.wav
2	94	4	4	2	I	1	0	1157	0	poli_8sides 8_whiteLine3.jpg	Short_b23_cut1_stereo_44KHz.wav
2	95	2	1	0	C	1	1	860	1	poli_8sides 3_whiteLine3.jpg	Short_b20_cut1_stereo_44KHz.wav
2	96	3	3	2	I	2	0	818	0	poli_8sides 5_whiteLine3.jpg	Short_b09_cut1_stereo_44KHz.wav
2	97	2	1	0	C	1	1	764	1	poli_8sides 3_whiteLine3.jpg	Short_b20_cut1_stereo_44KHz.wav
2	98	1	2	0	C	1	1	778	1	poli_8sides 1_whiteLine3.jpg	Short_b22_cut1_stereo_44KHz.wav
2	99	3	4	2	I	2	0	1126	1	poli_8sides 5_whiteLine3.jpg	Short_b23_cut1_stereo_44KHz.wav
2	100	4	4	2	I	1	0	1317	1	poli_8sides 8_whiteLine3.jpg	Short_b23_cut1_stereo_44KHz.wav
2	101	2	2	1	C	2	1	1971	1	poli_8sides 3_whiteLine3.jpg	Short_b22_cut1_stereo_44KHz.wav
2	102	4	3	2	I	2	0	1276	0	poli_8sides 8_whiteLine3.jpg	Short_b09_cut1_stereo_44KHz.wav
2	103	3	3	2	I	1	0	679	0	poli_8sides 5_whiteLine3.jpg	Short_b09_cut1_stereo_44KHz.wav
2	104	1	1	1	C	1	0	890	0	poli_8sides 1_whiteLine3.jpg	Short_b20_cut1_stereo_44KHz.wav
2	105	2	1	0	C	1	1	1005	1	poli_8sides 3_whiteLine3.jpg	Short_b20_cut1_stereo_44KHz.wav
2	106	4	3	2	I	2	0	1054	0	poli_8sides 8_whiteLine3.jpg	Short_b09_cut1_stereo_44KHz.wav
2	107	3	4	2	I	1	0	1114	0	poli_8sides 5_whiteLine3.jpg	Short_b23_cut1_stereo_44KHz.wav
2	108	1	1	1	C	1	0	733	0	poli_8sides 1_whiteLine3.jpg	Short_b20_cut1_stereo_44KHz.wav
2	109	2	2	1	C	2	1	1244	1	poli_8sides 3_whiteLine3.jpg	Short_b22_cut1_stereo_44KHz.wav
2	110	4	4	2	I	1	0	1404	0	poli_8sides 8_whiteLine3.jpg	Short_b23_cut1_stereo_44KHz.wav
2	111	1	2	0	C	2	0	816	0	poli_8sides 1_whiteLine3.jpg	Short_b22_cut1_stereo_44KHz.wav
2	112	3	3	2	I	1	0	886	0	poli_8sides 5_whiteLine3.jpg	Short_b09_cut1_stereo_44KHz.wav
2	113	2	1	0	C	1	1	877	1	poli_8sides 3_whiteLine3.jpg	Short_b20_cut1_stereo_44KHz.wav
2	114	4	4	2	I	1	0	900	0	poli_8sides 8_whiteLine3.jpg	Short_b23_cut1_stereo_44KHz.wav
2	115	1	1	1	C	1	0	909	0	poli_8sides 1_whiteLine3.jpg	Short_b20_cut1_stereo_44KHz.wav
2	116	3	3	2	I	1	0	791	0	poli_8sides 5_whiteLine3.jpg	Short_b09_cut1_stereo_44KHz.wav
2	117	1	2	0	C	1	1	1271	1	poli_8sides 1_whiteLine3.jpg	Short_b22_cut1_stereo_44KHz.wav
2	118	2	2	1	C	2	1	792	1	poli_8sides 3_whiteLine3.jpg	Short_b22_cut1_stereo_44KHz.wav
2	119	3	4	2	I	2	0	1386	0	poli_8sides 5_whiteLine3.jpg	Short_b23_cut1_stereo_44KHz.wav
2	120	4	3	2	I	1	0	1049	1	poli_8sides 8_whiteLine3.jpg	Short_b09_cut1_stereo_44KHz.wav
2	121	1	2	0	C	2	0	620	0	poli_8sides 1_whiteLine3.jpg	Short_b22_cut1_stereo_44KHz.wav
2	122	3	4	2	I	1	0	658	1	poli_8sides 5_whiteLine3.jpg	Short_b23_cut1_stereo_44KHz.wav
2	123	2	1	0	C	1	1	824	1	poli_8sides 3_whiteLine3.jpg	Short_b20_cut1_stereo_44KHz.wav
2	124	4	4	2	I	1	0	650	0	poli_8sides 8_whiteLine3.jpg	Short_b23_cut1_stereo_44KHz.wav
2	125	3	3	2	I	1	0	1084	0	poli_8sides 5_whiteLine3.jpg	Short_b09_cut1_stereo_44KHz.wav
2	126	2	2	1	C	2	1	976	1	poli_8sides 3_whiteLine3.jpg	Short_b22_cut1_stereo_44KHz.wav
2	127	4	3	2	I	1	0	747	0	poli_8sides 8_whiteLine3.jpg	Short_b09_cut1_stereo_44KHz.wav
2	128	1	1	1	C	2	1	474	1	poli_8sides 1_whiteLine3.jpg	Short_b20_cut1_stereo_44KHz.wav
2	129	3	4	2	I	2	0	1344	1	poli_8sides 5_whiteLine3.jpg	Short_b23_cut1_stereo_44KHz.wav
2	130	4	3	2	I	2	0	1209	1	poli_8sides 8_whiteLine3.jpg	Short_b09_cut1_stereo_44KHz.wav
2	131	2	2	1	C	2	1	736	1	poli_8sides 3_whiteLine3.jpg	Short_b22_cut1_stereo_44KHz.wav
2	132	1	2	0	C	2	0	1326	0	poli_8sides 1_whiteLine3.jpg	Short_b22_cut1_stereo_44KHz.wav
2	133	4	4	2	I	1	0	712	1	poli_8sides 8_whiteLine3.jpg	Short_b23_cut1_stereo_44KHz.wav
2	134	3	3	2	I	1	0	1105	1	poli_8sides 5_whiteLine3.jpg	Short_b09_cut1_stereo_44KHz.wav
2	135	2	1	0	C	1	1	1298	1	poli_8sides 3_whiteLine3.jpg	Short_b20_cut1_stereo_44KHz.wav
2	136	1	1	1	C	1	0	1138	0	poli_8sides 1_whiteLine3.jpg	Short_b20_cut1_stereo_44KHz.wav
2	137	4	3	2	I	2	0	1005	1	poli_8sides 8_whiteLine3.jpg	Short_b09_cut1_stereo_44KHz.wav
2	138	3	3	2	I	1	0	947	0	poli_8sides 5_whiteLine3.jpg	Short_b09_cut1_stereo_44KHz.wav
2	139	2	2	1	C	2	1	1235	1	poli_8sides 3_whiteLine3.jpg	Short_b22_cut1_stereo_44KHz.wav
2	140	1	1	1	C	1	0	620	0	poli_8sides 1_whiteLine3.jpg	Short_b20_cut1_stereo_44KHz.wav
2	141	3	4	2	I	1	0	843	0	poli_8sides 5_whiteLine3.jpg	Short_b23_cut1_stereo_44KHz.wav
2	142	4	4	2	I	0	0	0	0	poli_8sides 8_whiteLine3.jpg	Short_b23_cut1_stereo_44KHz.wav
2	143	1	2	0	C	1	1	936	1	poli_8sides 1_whiteLine3.jpg	Short_b22_cut1_stereo_44KHz.wav
2	144	2	1	0	C	1	1	647	1	poli_8sides 3_whiteLine3.jpg	Short_b20_cut1_stereo_44KHz.wav
2	145	1	1	1	C	2	1	774	1	poli_8sides 1_whiteLine3.jpg	Short_b20_cut1_stereo_44KHz.wav
2	146	3	4	2	I	1	0	737	1	poli_8sides 5_whiteLine3.jpg	Short_b23_cut1_stereo_44KHz.wav
2	147	4	4	2	I	2	0	898	0	poli_8sides 8_whiteLine3.jpg	Short_b23_cut1_stereo_44KHz.wav
2	148	2	2	1	C	2	1	830	1	poli_8sides 3_whiteLine3.jpg	Short_b22_cut1_stereo_44KHz.wav
2	149	1	2	0	C	2	0	822	0	poli_8sides 1_whiteLine3.jpg	Short_b22_cut1_stereo_44KHz.wav
2	150	3	3	2	I	1	0	830	1	poli_8sides 5_whiteLine3.jpg	Short_b09_cut1_stereo_44KHz.wav
2	151	4	3	2	I	1	0	1001	1	poli_8sides 8_whiteLine3.jpg	Short_b09_cut1_stereo_44KHz.wav
2	152	2	1	0	C	1	1	829	1	poli_8sides 3_whiteLine3.jpg	Short_b20_cut1_stereo_44KHz.wav
2	153	4	4	2	I	1	0	1071	1	poli_8sides 8_whiteLine3.jpg	Short_b23_cut1_stereo_44KHz.wav
2	154	1	1	1	C	2	1	1037	1	poli_8sides 1_whiteLine3.jpg	Short_b20_cut1_stereo_44KHz.wav
2	155	3	4	2	I	1	0	799	1	poli_8sides 5_whiteLine3.jpg	Short_b23_cut1_stereo_44KHz.wav
2	156	2	2	1	C	1	0	863	0	poli_8sides 3_whiteLine3.jpg	Short_b22_cut1_stereo_44KHz.wav
2	157	3	3	2	I	2	0	1123	0	poli_8sides 5_whiteLine3.jpg	Short_b09_cut1_stereo_44KHz.wav
2	158	2	1	0	C	1	1	782	1	poli_8sides 3_whiteLine3.jpg	Short_b20_cut1_stereo_44KHz.wav
2	159	4	3	2	I	1	0	748	0	poli_8sides 8_whiteLine3.jpg	Short_b09_cut1_stereo_44KHz.wav
2	160	1	2	0	C	1	1	1118	1	poli_8sides 1_whiteLine3.jpg	Short_b22_cut1_stereo_44KHz.wav
2	161	4	3	2	I	2	0	824	1	poli_8sides 8_whiteLine3.jpg	Short_b09_cut1_stereo_44KHz.wav
2	162	2	1	0	C	2	0	888	0	poli_8sides 3_whiteLine3.jpg	Short_b20_cut1_stereo_44KHz.wav
2	163	1	1	1	C	1	0	1070	0	poli_8sides 1_whiteLine3.jpg	Short_b20_cut1_stereo_44KHz.wav
2	164	3	4	2	I	1	0	1670	1	poli_8sides 5_whiteLine3.jpg	Short_b23_cut1_stereo_44KHz.wav
2	165	4	4	2	I	2	0	965	0	poli_8sides 8_whiteLine3.jpg	Short_b23_cut1_stereo_44KHz.wav
2	166	1	2	0	C	1	1	866	1	poli_8sides 1_whiteLine3.jpg	Short_b22_cut1_stereo_44KHz.wav
2	167	3	3	2	I	1	0	782	1	poli_8sides 5_whiteLine3.jpg	Short_b09_cut1_stereo_44KHz.wav
2	168	2	2	1	C	2	1	1013	1	poli_8sides 3_whiteLine3.jpg	Short_b22_cut1_stereo_44KHz.wav
2	169	3	3	2	I	1	0	849	1	poli_8sides 5_whiteLine3.jpg	Short_b09_cut1_stereo_44KHz.wav
2	170	1	1	1	C	2	1	1796	1	poli_8sides 1_whiteLine3.jpg	Short_b20_cut1_stereo_44KHz.wav
2	171	2	2	1	C	2	1	996	1	poli_8sides 3_whiteLine3.jpg	Short_b22_cut1_stereo_44KHz.wav
2	172	4	3	2	I	1	0	1397	1	poli_8sides 8_whiteLine3.jpg	Short_b09_cut1_stereo_44KHz.wav
2	173	2	1	0	C	1	1	762	1	poli_8sides 3_whiteLine3.jpg	Short_b20_cut1_stereo_44KHz.wav
2	174	1	2	0	C	1	1	1592	1	poli_8sides 1_whiteLine3.jpg	Short_b22_cut1_stereo_44KHz.wav
2	175	3	4	2	I	1	0	846	1	poli_8sides 5_whiteLine3.jpg	Short_b23_cut1_stereo_44KHz.wav
2	176	4	4	2	I	1	0	920	1	poli_8sides 8_whiteLine3.jpg	Short_b23_cut1_stereo_44KHz.wav
2	177	2	2	1	C	2	1	889	1	poli_8sides 3_whiteLine3.jpg	Short_b22_cut1_stereo_44KHz.wav
2	178	4	3	2	I	1	0	1135	0	poli_8sides 8_whiteLine3.jpg	Short_b09_cut1_stereo_44KHz.wav
2	179	1	1	1	C	2	1	870	1	poli_8sides 1_whiteLine3.jpg	Short_b20_cut1_stereo_44KHz.wav
2	180	3	3	2	I	1	0	881	1	poli_8sides 5_whiteLine3.jpg	Short_b09_cut1_stereo_44KHz.wav
2	181	1	2	0	C	2	0	1170	0	poli_8sides 1_whiteLine3.jpg	Short_b22_cut1_stereo_44KHz.wav
2	182	3	4	2	I	1	0	733	0	poli_8sides 5_whiteLine3.jpg	Short_b23_cut1_stereo_44KHz.wav
2	183	4	4	2	I	1	0	714	1	poli_8sides 8_whiteLine3.jpg	Short_b23_cut1_stereo_44KHz.wav
2	184	2	1	0	C	1	1	1111	1	poli_8sides 3_whiteLine3.jpg	Short_b20_cut1_stereo_44KHz.wav
2	185	4	3	2	I	2	0	1203	1	poli_8sides 8_whiteLine3.jpg	Short_b09_cut1_stereo_44KHz.wav
2	186	2	1	0	C	1	1	866	1	poli_8sides 3_whiteLine3.jpg	Short_b20_cut1_stereo_44KHz.wav
2	187	3	4	2	I	1	0	811	0	poli_8sides 5_whiteLine3.jpg	Short_b23_cut1_stereo_44KHz.wav
2	188	1	1	1	C	2	1	1077	1	poli_8sides 1_whiteLine3.jpg	Short_b20_cut1_stereo_44KHz.wav
2	189	4	4	2	I	1	0	968	1	poli_8sides 8_whiteLine3.jpg	Short_b23_cut1_stereo_44KHz.wav
2	190	3	3	2	I	2	0	760	0	poli_8sides 5_whiteLine3.jpg	Short_b09_cut1_stereo_44KHz.wav
2	191	1	2	0	C	1	1	1670	1	poli_8sides 1_whiteLine3.jpg	Short_b22_cut1_stereo_44KHz.wav
2	192	2	2	1	C	2	1	694	1	poli_8sides 3_whiteLine3.jpg	Short_b22_cut1_stereo_44KHz.wav
2	193	1	2	0	C	1	1	937	1	poli_8sides 1_whiteLine3.jpg	Short_b22_cut1_stereo_44KHz.wav
2	194	4	3	2	I	1	0	663	1	poli_8sides 8_whiteLine3.jpg	Short_b09_cut1_stereo_44KHz.wav
2	195	2	2	1	C	2	1	843	1	poli_8sides 3_whiteLine3.jpg	Short_b22_cut1_stereo_44KHz.wav
2	196	3	4	2	I	1	0	797	1	poli_8sides 5_whiteLine3.jpg	Short_b23_cut1_stereo_44KHz.wav
2	197	4	4	2	I	1	0	925	0	poli_8sides 8_whiteLine3.jpg	Short_b23_cut1_stereo_44KHz.wav
2	198	3	3	2	I	1	0	710	0	poli_8sides 5_whiteLine3.jpg	Short_b09_cut1_stereo_44KHz.wav
2	199	1	1	1	C	2	1	1032	1	poli_8sides 1_whiteLine3.jpg	Short_b20_cut1_stereo_44KHz.wav
2	200	2	1	0	C	1	1	717	1	poli_8sides 3_whiteLine3.jpg	Short_b20_cut1_stereo_44KHz.wav
3	1	4	3	2	I	2	0	924	0	poli_8sides 6_whiteLine3.jpg	MediumLong_e19_stereo_44KHz.wav
3	2	1	2	0	C	2	0	730	0	poli_8sides 7_whiteLine3.jpg	MediumLong_e17_cut2_stereo_44KHz.wav
3	3	2	1	0	C	1	1	885	1	poli_8sides 12_whiteLine3.jpg	MediumLong_e04_stereo_44KHz.wav
3	4	3	4	2	I	1	0	716	1	poli_8sides 11_whiteLine3.jpg	Medium_e01_cut1_stereo_44KHz.wav
3	5	4	4	2	I	2	0	743	1	poli_8sides 6_whiteLine3.jpg	Medium_e01_cut1_stereo_44KHz.wav
3	6	2	2	1	C	1	0	1088	0	poli_8sides 12_whiteLine3.jpg	MediumLong_e17_cut2_stereo_44KHz.wav
3	7	1	1	1	C	1	0	1043	0	poli_8sides 7_whiteLine3.jpg	MediumLong_e04_stereo_44KHz.wav
3	8	3	3	2	I	1	0	1459	0	poli_8sides 11_whiteLine3.jpg	MediumLong_e19_stereo_44KHz.wav
3	9	4	4	2	I	1	0	1248	1	poli_8sides 6_whiteLine3.jpg	Medium_e01_cut1_stereo_44KHz.wav
3	10	1	2	0	C	2	0	1392	0	poli_8sides 7_whiteLine3.jpg	MediumLong_e17_cut2_stereo_44KHz.wav
3	11	2	2	1	C	1	0	1446	0	poli_8sides 12_whiteLine3.jpg	MediumLong_e17_cut2_stereo_44KHz.wav
3	12	3	3	2	I	1	0	981	0	poli_8sides 11_whiteLine3.jpg	MediumLong_e19_stereo_44KHz.wav
3	13	4	3	2	I	2	0	817	1	poli_8sides 6_whiteLine3.jpg	MediumLong_e19_stereo_44KHz.wav
3	14	3	4	2	I	2	0	1065	0	poli_8sides 11_whiteLine3.jpg	Medium_e01_cut1_stereo_44KHz.wav
3	15	1	1	1	C	1	0	1175	0	poli_8sides 7_whiteLine3.jpg	MediumLong_e04_stereo_44KHz.wav
3	16	2	1	0	C	1	1	999	1	poli_8sides 12_whiteLine3.jpg	MediumLong_e04_stereo_44KHz.wav
3	17	4	3	2	I	2	0	957	1	poli_8sides 6_whiteLine3.jpg	MediumLong_e19_stereo_44KHz.wav
3	18	3	3	2	I	2	0	1125	1	poli_8sides 11_whiteLine3.jpg	MediumLong_e19_stereo_44KHz.wav
3	19	2	2	1	C	2	1	1048	1	poli_8sides 12_whiteLine3.jpg	MediumLong_e17_cut2_stereo_44KHz.wav
3	20	1	2	0	C	1	1	804	1	poli_8sides 7_whiteLine3.jpg	MediumLong_e17_cut2_stereo_44KHz.wav
3	21	4	4	2	I	1	0	958	0	poli_8sides 6_whiteLine3.jpg	Medium_e01_cut1_stereo_44KHz.wav
3	22	2	1	0	C	2	0	1301	0	poli_8sides 12_whiteLine3.jpg	MediumLong_e04_stereo_44KHz.wav
3	23	1	1	1	C	2	1	1002	1	poli_8sides 7_whiteLine3.jpg	MediumLong_e04_stereo_44KHz.wav
3	24	3	4	2	I	1	0	937	1	poli_8sides 11_whiteLine3.jpg	Medium_e01_cut1_stereo_44KHz.wav
3	25	1	2	0	C	2	0	1259	0	poli_8sides 7_whiteLine3.jpg	MediumLong_e17_cut2_stereo_44KHz.wav
3	26	3	4	2	I	1	0	1078	0	poli_8sides 11_whiteLine3.jpg	Medium_e01_cut1_stereo_44KHz.wav
3	27	2	1	0	C	2	0	1055	0	poli_8sides 12_whiteLine3.jpg	MediumLong_e04_stereo_44KHz.wav
3	28	4	4	2	I	2	0	1624	0	poli_8sides 6_whiteLine3.jpg	Medium_e01_cut1_stereo_44KHz.wav
3	29	2	2	1	C	2	1	1099	1	poli_8sides 12_whiteLine3.jpg	MediumLong_e17_cut2_stereo_44KHz.wav
3	30	3	3	2	I	2	0	954	1	poli_8sides 11_whiteLine3.jpg	MediumLong_e19_stereo_44KHz.wav
3	31	4	3	2	I	2	0	718	1	poli_8sides 6_whiteLine3.jpg	MediumLong_e19_stereo_44KHz.wav
3	32	1	1	1	C	1	0	876	0	poli_8sides 7_whiteLine3.jpg	MediumLong_e04_stereo_44KHz.wav
3	33	3	4	2	I	1	0	1146	1	poli_8sides 11_whiteLine3.jpg	Medium_e01_cut1_stereo_44KHz.wav
3	34	2	2	1	C	2	1	705	1	poli_8sides 12_whiteLine3.jpg	MediumLong_e17_cut2_stereo_44KHz.wav
3	35	1	1	1	C	1	0	756	0	poli_8sides 7_whiteLine3.jpg	MediumLong_e04_stereo_44KHz.wav
3	36	4	4	2	I	2	0	677	1	poli_8sides 6_whiteLine3.jpg	Medium_e01_cut1_stereo_44KHz.wav
3	37	3	3	2	I	2	0	1315	0	poli_8sides 11_whiteLine3.jpg	MediumLong_e19_stereo_44KHz.wav
3	38	2	1	0	C	1	1	970	1	poli_8sides 12_whiteLine3.jpg	MediumLong_e04_stereo_44KHz.wav
3	39	4	3	2	I	2	0	794	0	poli_8sides 6_whiteLine3.jpg	MediumLong_e19_stereo_44KHz.wav
3	40	1	2	0	C	1	1	911	1	poli_8sides 7_whiteLine3.jpg	MediumLong_e17_cut2_stereo_44KHz.wav
3	41	4	4	2	I	2	0	1433	1	poli_8sides 6_whiteLine3.jpg	Medium_e01_cut1_stereo_44KHz.wav
3	42	1	2	0	C	1	1	928	1	poli_8sides 7_whiteLine3.jpg	MediumLong_e17_cut2_stereo_44KHz.wav
3	43	3	4	2	I	1	0	832	0	poli_8sides 11_whiteLine3.jpg	Medium_e01_cut1_stereo_44KHz.wav
3	44	2	2	1	C	1	0	983	0	poli_8sides 12_whiteLine3.jpg	MediumLong_e17_cut2_stereo_44KHz.wav
3	45	3	3	2	I	2	0	1075	1	poli_8sides 11_whiteLine3.jpg	MediumLong_e19_stereo_44KHz.wav
3	46	1	1	1	C	1	0	902	0	poli_8sides 7_whiteLine3.jpg	MediumLong_e04_stereo_44KHz.wav
3	47	4	3	2	I	1	0	1135	0	poli_8sides 6_whiteLine3.jpg	MediumLong_e19_stereo_44KHz.wav
3	48	2	1	0	C	1	1	1219	1	poli_8sides 12_whiteLine3.jpg	MediumLong_e04_stereo_44KHz.wav
3	49	1	2	0	C	1	1	1046	1	poli_8sides 7_whiteLine3.jpg	MediumLong_e17_cut2_stereo_44KHz.wav
3	50	4	3	2	I	2	0	759	1	poli_8sides 6_whiteLine3.jpg	MediumLong_e19_stereo_44KHz.wav
3	51	2	2	1	C	2	1	1059	1	poli_8sides 12_whiteLine3.jpg	MediumLong_e17_cut2_stereo_44KHz.wav
3	52	3	4	2	I	1	0	731	0	poli_8sides 11_whiteLine3.jpg	Medium_e01_cut1_stereo_44KHz.wav
3	53	4	4	2	I	1	0	945	0	poli_8sides 6_whiteLine3.jpg	Medium_e01_cut1_stereo_44KHz.wav
3	54	3	3	2	I	2	0	1011	1	poli_8sides 11_whiteLine3.jpg	MediumLong_e19_stereo_44KHz.wav
3	55	2	1	0	C	2	0	1299	0	poli_8sides 12_whiteLine3.jpg	MediumLong_e04_stereo_44KHz.wav
3	56	1	1	1	C	2	1	1127	1	poli_8sides 7_whiteLine3.jpg	MediumLong_e04_stereo_44KHz.wav
3	57	2	1	0	C	1	1	773	1	poli_8sides 12_whiteLine3.jpg	MediumLong_e04_stereo_44KHz.wav
3	58	3	4	2	I	2	0	1206	1	poli_8sides 11_whiteLine3.jpg	Medium_e01_cut1_stereo_44KHz.wav
3	59	4	3	2	I	1	0	967	0	poli_8sides 6_whiteLine3.jpg	MediumLong_e19_stereo_44KHz.wav
3	60	1	1	1	C	2	1	816	1	poli_8sides 7_whiteLine3.jpg	MediumLong_e04_stereo_44KHz.wav
3	61	2	2	1	C	1	0	1499	0	poli_8sides 12_whiteLine3.jpg	MediumLong_e17_cut2_stereo_44KHz.wav
3	62	4	4	2	I	1	0	810	0	poli_8sides 6_whiteLine3.jpg	Medium_e01_cut1_stereo_44KHz.wav
3	63	3	3	2	I	2	0	904	1	poli_8sides 11_whiteLine3.jpg	MediumLong_e19_stereo_44KHz.wav
3	64	1	2	0	C	1	1	848	1	poli_8sides 7_whiteLine3.jpg	MediumLong_e17_cut2_stereo_44KHz.wav
3	65	4	3	2	I	1	0	960	0	poli_8sides 6_whiteLine3.jpg	MediumLong_e19_stereo_44KHz.wav
3	66	2	2	1	C	1	0	1173	0	poli_8sides 12_whiteLine3.jpg	MediumLong_e17_cut2_stereo_44KHz.wav
3	67	1	2	0	C	1	1	932	1	poli_8sides 7_whiteLine3.jpg	MediumLong_e17_cut2_stereo_44KHz.wav
3	68	3	3	2	I	2	0	904	1	poli_8sides 11_whiteLine3.jpg	MediumLong_e19_stereo_44KHz.wav
3	69	4	4	2	I	1	0	796	0	poli_8sides 6_whiteLine3.jpg	Medium_e01_cut1_stereo_44KHz.wav
3	70	2	1	0	C	1	1	897	1	poli_8sides 12_whiteLine3.jpg	MediumLong_e04_stereo_44KHz.wav
3	71	3	4	2	I	2	0	978	0	poli_8sides 11_whiteLine3.jpg	Medium_e01_cut1_stereo_44KHz.wav
3	72	1	1	1	C	2	1	1032	1	poli_8sides 7_whiteLine3.jpg	MediumLong_e04_stereo_44KHz.wav
3	73	3	4	2	I	1	0	566	1	poli_8sides 11_whiteLine3.jpg	Medium_e01_cut1_stereo_44KHz.wav
3	74	1	1	1	C	2	1	875	1	poli_8sides 7_whiteLine3.jpg	MediumLong_e04_stereo_44KHz.wav
3	75	4	4	2	I	1	0	1095	1	poli_8sides 6_whiteLine3.jpg	Medium_e01_cut1_stereo_44KHz.wav
3	76	2	1	0	C	1	1	1326	1	poli_8sides 12_whiteLine3.jpg	MediumLong_e04_stereo_44KHz.wav
3	77	4	3	2	I	1	0	1315	0	poli_8sides 6_whiteLine3.jpg	MediumLong_e19_stereo_44KHz.wav
3	78	3	3	2	I	2	0	904	1	poli_8sides 11_whiteLine3.jpg	MediumLong_e19_stereo_44KHz.wav
3	79	2	2	1	C	2	1	1490	1	poli_8sides 12_whiteLine3.jpg	MediumLong_e17_cut2_stereo_44KHz.wav
3	80	1	2	0	C	1	1	470	1	poli_8sides 7_whiteLine3.jpg	MediumLong_e17_cut2_stereo_44KHz.wav
3	81	3	4	2	I	1	0	1141	1	poli_8sides 11_whiteLine3.jpg	Medium_e01_cut1_stereo_44KHz.wav
3	82	4	4	2	I	2	0	748	0	poli_8sides 6_whiteLine3.jpg	Medium_e01_cut1_stereo_44KHz.wav
3	83	2	2	1	C	1	0	1158	0	poli_8sides 12_whiteLine3.jpg	MediumLong_e17_cut2_stereo_44KHz.wav
3	84	1	2	0	C	1	1	736	1	poli_8sides 7_whiteLine3.jpg	MediumLong_e17_cut2_stereo_44KHz.wav
3	85	3	3	2	I	2	0	1224	1	poli_8sides 11_whiteLine3.jpg	MediumLong_e19_stereo_44KHz.wav
3	86	4	3	2	I	2	0	1355	1	poli_8sides 6_whiteLine3.jpg	MediumLong_e19_stereo_44KHz.wav
3	87	2	1	0	C	2	0	891	0	poli_8sides 12_whiteLine3.jpg	MediumLong_e04_stereo_44KHz.wav
3	88	1	1	1	C	2	1	986	1	poli_8sides 7_whiteLine3.jpg	MediumLong_e04_stereo_44KHz.wav
3	89	3	3	2	I	2	0	904	1	poli_8sides 11_whiteLine3.jpg	MediumLong_e19_stereo_44KHz.wav
3	90	2	2	1	C	2	1	1505	1	poli_8sides 12_whiteLine3.jpg	MediumLong_e17_cut2_stereo_44KHz.wav
3	91	1	2	0	C	1	1	1011	1	poli_8sides 7_whiteLine3.jpg	MediumLong_e17_cut2_stereo_44KHz.wav
3	92	4	4	2	I	2	0	1181	1	poli_8sides 6_whiteLine3.jpg	Medium_e01_cut1_stereo_44KHz.wav
3	93	2	1	0	C	2	0	1667	0	poli_8sides 12_whiteLine3.jpg	MediumLong_e04_stereo_44KHz.wav
3	94	1	1	1	C	2	1	1021	1	poli_8sides 7_whiteLine3.jpg	MediumLong_e04_stereo_44KHz.wav
3	95	4	3	2	I	2	0	927	0	poli_8sides 6_whiteLine3.jpg	MediumLong_e19_stereo_44KHz.wav
3	96	3	4	2	I	1	0	990	1	poli_8sides 11_whiteLine3.jpg	Medium_e01_cut1_stereo_44KHz.wav
3	97	4	3	2	I	1	0	1510	1	poli_8sides 6_whiteLine3.jpg	MediumLong_e19_stereo_44KHz.wav
3	98	3	3	2	I	2	0	814	0	poli_8sides 11_whiteLine3.jpg	MediumLong_e19_stereo_44KHz.wav
3	99	2	2	1	C	1	0	1440	0	poli_8sides 12_whiteLine3.jpg	MediumLong_e17_cut2_stereo_44KHz.wav
3	100	1	2	0	C	1	1	758	1	poli_8sides 7_whiteLine3.jpg	MediumLong_e17_cut2_stereo_44KHz.wav
3	101	4	4	2	I	1	0	1370	1	poli_8sides 6_whiteLine3.jpg	Medium_e01_cut1_stereo_44KHz.wav
3	102	1	1	1	C	2	1	756	1	poli_8sides 7_whiteLine3.jpg	MediumLong_e04_stereo_44KHz.wav
3	103	2	1	0	C	2	0	688	0	poli_8sides 12_whiteLine3.jpg	MediumLong_e04_stereo_44KHz.wav
3	104	3	4	2	I	1	0	756	1	poli_8sides 11_whiteLine3.jpg	Medium_e01_cut1_stereo_44KHz.wav
3	105	1	2	0	C	1	1	1145	1	poli_8sides 7_whiteLine3.jpg	MediumLong_e17_cut2_stereo_44KHz.wav
3	106	3	3	2	I	2	0	1777	1	poli_8sides 11_whiteLine3.jpg	MediumLong_e19_stereo_44KHz.wav
3	107	4	4	2	I	2	0	1097	0	poli_8sides 6_whiteLine3.jpg	Medium_e01_cut1_stereo_44KHz.wav
3	108	2	2	1	C	1	0	1028	0	poli_8sides 12_whiteLine3.jpg	MediumLong_e17_cut2_stereo_44KHz.wav
3	109	4	3	2	I	2	0	967	0	poli_8sides 6_whiteLine3.jpg	MediumLong_e19_stereo_44KHz.wav
3	110	2	1	0	C	1	1	807	1	poli_8sides 12_whiteLine3.jpg	MediumLong_e04_stereo_44KHz.wav
3	111	1	1	1	C	2	1	778	1	poli_8sides 7_whiteLine3.jpg	MediumLong_e04_stereo_44KHz.wav
3	112	3	4	2	I	1	0	1183	0	poli_8sides 11_whiteLine3.jpg	Medium_e01_cut1_stereo_44KHz.wav
3	113	1	1	1	C	2	1	779	1	poli_8sides 7_whiteLine3.jpg	MediumLong_e04_stereo_44KHz.wav
3	114	4	4	2	I	2	0	1037	1	poli_8sides 6_whiteLine3.jpg	Medium_e01_cut1_stereo_44KHz.wav
3	115	3	3	2	I	2	0	1229	0	poli_8sides 11_whiteLine3.jpg	MediumLong_e19_stereo_44KHz.wav
3	116	2	1	0	C	0	0	0	0	poli_8sides 12_whiteLine3.jpg	MediumLong_e04_stereo_44KHz.wav
3	117	1	2	0	C	1	1	840	1	poli_8sides 7_whiteLine3.jpg	MediumLong_e17_cut2_stereo_44KHz.wav
3	118	4	3	2	I	2	0	736	0	poli_8sides 6_whiteLine3.jpg	MediumLong_e19_stereo_44KHz.wav
3	119	2	2	1	C	1	0	1081	0	poli_8sides 12_whiteLine3.jpg	MediumLong_e17_cut2_stereo_44KHz.wav
3	120	3	4	2	I	2	0	923	0	poli_8sides 11_whiteLine3.jpg	Medium_e01_cut1_stereo_44KHz.wav
3	121	1	2	0	C	1	1	885	1	poli_8sides 7_whiteLine3.jpg	MediumLong_e17_cut2_stereo_44KHz.wav
3	122	4	3	2	I	2	0	745	1	poli_8sides 6_whiteLine3.jpg	MediumLong_e19_stereo_44KHz.wav
3	123	2	2	1	C	1	0	713	0	poli_8sides 12_whiteLine3.jpg	MediumLong_e17_cut2_stereo_44KHz.wav
3	124	3	4	2	I	1	0	648	0	poli_8sides 11_whiteLine3.jpg	Medium_e01_cut1_stereo_44KHz.wav
3	125	1	1	1	C	2	1	751	1	poli_8sides 7_whiteLine3.jpg	MediumLong_e04_stereo_44KHz.wav
3	126	4	4	2	I	2	0	977	0	poli_8sides 6_whiteLine3.jpg	Medium_e01_cut1_stereo_44KHz.wav
3	127	3	3	2	I	2	0	903	0	poli_8sides 11_whiteLine3.jpg	MediumLong_e19_stereo_44KHz.wav
3	128	2	1	0	C	1	1	733	1	poli_8sides 12_whiteLine3.jpg	MediumLong_e04_stereo_44KHz.wav
3	129	4	4	2	I	1	0	745	1	poli_8sides 6_whiteLine3.jpg	Medium_e01_cut1_stereo_44KHz.wav
3	130	1	1	1	C	2	1	779	1	poli_8sides 7_whiteLine3.jpg	MediumLong_e04_stereo_44KHz.wav
3	131	3	4	2	I	1	0	676	0	poli_8sides 11_whiteLine3.jpg	Medium_e01_cut1_stereo_44KHz.wav
3	132	2	2	1	C	2	1	1614	1	poli_8sides 12_whiteLine3.jpg	MediumLong_e17_cut2_stereo_44KHz.wav
3	133	4	3	2	I	1	0	782	1	poli_8sides 6_whiteLine3.jpg	MediumLong_e19_stereo_44KHz.wav
3	134	2	1	0	C	1	1	1109	1	poli_8sides 12_whiteLine3.jpg	MediumLong_e04_stereo_44KHz.wav
3	135	3	3	2	I	1	0	1205	0	poli_8sides 11_whiteLine3.jpg	MediumLong_e19_stereo_44KHz.wav
3	136	1	2	0	C	1	1	865	1	poli_8sides 7_whiteLine3.jpg	MediumLong_e17_cut2_stereo_44KHz.wav
3	137	4	3	2	I	2	0	1474	1	poli_8sides 6_whiteLine3.jpg	MediumLong_e19_stereo_44KHz.wav
3	138	1	1	1	C	2	1	789	1	poli_8sides 7_whiteLine3.jpg	MediumLong_e04_stereo_44KHz.wav
3	139	3	4	2	I	1	0	1159	0	poli_8sides 11_whiteLine3.jpg	Medium_e01_cut1_stereo_44KHz.wav
3	140	2	2	1	C	2	1	1101	1	poli_8sides 12_whiteLine3.jpg	MediumLong_e17_cut2_stereo_44KHz.wav
3	141	1	2	0	C	1	1	1354	1	poli_8sides 7_whiteLine3.jpg	MediumLong_e17_cut2_stereo_44KHz.wav
3	142	2	1	0	C	2	0	693	0	poli_8sides 12_whiteLine3.jpg	MediumLong_e04_stereo_44KHz.wav
3	143	3	3	2	I	2	0	833	0	poli_8sides 11_whiteLine3.jpg	MediumLong_e19_stereo_44KHz.wav
3	144	4	4	2	I	1	0	527	1	poli_8sides 6_whiteLine3.jpg	Medium_e01_cut1_stereo_44KHz.wav
3	145	1	2	0	C	1	1	805	1	poli_8sides 7_whiteLine3.jpg	MediumLong_e17_cut2_stereo_44KHz.wav
3	146	2	1	0	C	1	1	1277	1	poli_8sides 12_whiteLine3.jpg	MediumLong_e04_stereo_44KHz.wav
3	147	4	3	2	I	1	0	767	1	poli_8sides 6_whiteLine3.jpg	MediumLong_e19_stereo_44KHz.wav
3	148	3	4	2	I	1	0	635	1	poli_8sides 11_whiteLine3.jpg	Medium_e01_cut1_stereo_44KHz.wav
3	149	4	4	2	I	1	0	766	0	poli_8sides 6_whiteLine3.jpg	Medium_e01_cut1_stereo_44KHz.wav
3	150	3	3	2	I	1	0	647	0	poli_8sides 11_whiteLine3.jpg	MediumLong_e19_stereo_44KHz.wav
3	151	1	1	1	C	2	1	877	1	poli_8sides 7_whiteLine3.jpg	MediumLong_e04_stereo_44KHz.wav
3	152	2	2	1	C	1	0	1062	0	poli_8sides 12_whiteLine3.jpg	MediumLong_e17_cut2_stereo_44KHz.wav
3	153	4	3	2	I	2	0	1067	0	poli_8sides 6_whiteLine3.jpg	MediumLong_e19_stereo_44KHz.wav
3	154	2	2	1	C	1	0	867	0	poli_8sides 12_whiteLine3.jpg	MediumLong_e17_cut2_stereo_44KHz.wav
3	155	1	1	1	C	2	1	919	1	poli_8sides 7_whiteLine3.jpg	MediumLong_e04_stereo_44KHz.wav
3	156	3	4	2	I	1	0	801	1	poli_8sides 11_whiteLine3.jpg	Medium_e01_cut1_stereo_44KHz.wav
3	157	4	4	2	I	1	0	639	1	poli_8sides 6_whiteLine3.jpg	Medium_e01_cut1_stereo_44KHz.wav
3	158	2	1	0	C	1	1	1329	1	poli_8sides 12_whiteLine3.jpg	MediumLong_e04_stereo_44KHz.wav
3	159	3	3	2	I	1	0	976	0	poli_8sides 11_whiteLine3.jpg	MediumLong_e19_stereo_44KHz.wav
3	160	1	2	0	C	2	0	1170	0	poli_8sides 7_whiteLine3.jpg	MediumLong_e17_cut2_stereo_44KHz.wav
3	161	2	2	1	C	1	0	782	0	poli_8sides 12_whiteLine3.jpg	MediumLong_e17_cut2_stereo_44KHz.wav
3	162	3	3	2	I	1	0	970	0	poli_8sides 11_whiteLine3.jpg	MediumLong_e19_stereo_44KHz.wav
3	163	4	4	2	I	1	0	1151	0	poli_8sides 6_whiteLine3.jpg	Medium_e01_cut1_stereo_44KHz.wav
3	164	1	2	0	C	1	1	892	1	poli_8sides 7_whiteLine3.jpg	MediumLong_e17_cut2_stereo_44KHz.wav
3	165	3	4	2	I	1	0	1010	1	poli_8sides 11_whiteLine3.jpg	Medium_e01_cut1_stereo_44KHz.wav
3	166	2	1	0	C	1	1	1111	1	poli_8sides 12_whiteLine3.jpg	MediumLong_e04_stereo_44KHz.wav
3	167	4	3	2	I	2	0	869	1	poli_8sides 6_whiteLine3.jpg	MediumLong_e19_stereo_44KHz.wav
3	168	1	1	1	C	2	1	797	1	poli_8sides 7_whiteLine3.jpg	MediumLong_e04_stereo_44KHz.wav
3	169	4	3	2	I	2	0	737	0	poli_8sides 6_whiteLine3.jpg	MediumLong_e19_stereo_44KHz.wav
3	170	1	1	1	C	2	1	1000	1	poli_8sides 7_whiteLine3.jpg	MediumLong_e04_stereo_44KHz.wav
3	171	3	4	2	I	1	0	855	0	poli_8sides 11_whiteLine3.jpg	Medium_e01_cut1_stereo_44KHz.wav
3	172	2	1	0	C	1	1	1150	1	poli_8sides 12_whiteLine3.jpg	MediumLong_e04_stereo_44KHz.wav
3	173	4	4	2	I	2	0	962	1	poli_8sides 6_whiteLine3.jpg	Medium_e01_cut1_stereo_44KHz.wav
3	174	2	2	1	C	2	1	1508	1	poli_8sides 12_whiteLine3.jpg	MediumLong_e17_cut2_stereo_44KHz.wav
3	175	1	2	0	C	1	1	952	1	poli_8sides 7_whiteLine3.jpg	MediumLong_e17_cut2_stereo_44KHz.wav
3	176	3	3	2	I	2	0	1146	1	poli_8sides 11_whiteLine3.jpg	MediumLong_e19_stereo_44KHz.wav
3	177	1	1	1	C	2	1	861	1	poli_8sides 7_whiteLine3.jpg	MediumLong_e04_stereo_44KHz.wav
3	178	3	4	2	I	1	0	754	0	poli_8sides 11_whiteLine3.jpg	Medium_e01_cut1_stereo_44KHz.wav
3	179	2	1	0	C	1	1	884	1	poli_8sides 12_whiteLine3.jpg	MediumLong_e04_stereo_44KHz.wav
3	180	4	3	2	I	2	0	779	0	poli_8sides 6_whiteLine3.jpg	MediumLong_e19_stereo_44KHz.wav
3	181	3	3	2	I	2	0	1301	1	poli_8sides 11_whiteLine3.jpg	MediumLong_e19_stereo_44KHz.wav
3	182	4	4	2	I	1	0	1111	1	poli_8sides 6_whiteLine3.jpg	Medium_e01_cut1_stereo_44KHz.wav
3	183	2	2	1	C	2	1	1631	1	poli_8sides 12_whiteLine3.jpg	MediumLong_e17_cut2_stereo_44KHz.wav
3	184	1	2	0	C	1	1	838	1	poli_8sides 7_whiteLine3.jpg	MediumLong_e17_cut2_stereo_44KHz.wav
3	185	2	1	0	C	1	1	792	1	poli_8sides 12_whiteLine3.jpg	MediumLong_e04_stereo_44KHz.wav
3	186	1	2	0	C	1	1	730	1	poli_8sides 7_whiteLine3.jpg	MediumLong_e17_cut2_stereo_44KHz.wav
3	187	4	4	2	I	1	0	1488	0	poli_8sides 6_whiteLine3.jpg	Medium_e01_cut1_stereo_44KHz.wav
3	188	3	4	2	I	1	0	695	1	poli_8sides 11_whiteLine3.jpg	Medium_e01_cut1_stereo_44KHz.wav
3	189	4	3	2	I	2	0	917	0	poli_8sides 6_whiteLine3.jpg	MediumLong_e19_stereo_44KHz.wav
3	190	3	3	2	I	2	0	1002	1	poli_8sides 11_whiteLine3.jpg	MediumLong_e19_stereo_44KHz.wav
3	191	1	1	1	C	2	1	869	1	poli_8sides 7_whiteLine3.jpg	MediumLong_e04_stereo_44KHz.wav
3	192	2	2	1	C	2	1	1101	1	poli_8sides 12_whiteLine3.jpg	MediumLong_e17_cut2_stereo_44KHz.wav
3	193	1	1	1	C	2	1	691	1	poli_8sides 7_whiteLine3.jpg	MediumLong_e04_stereo_44KHz.wav
3	194	2	2	1	C	2	1	821	1	poli_8sides 12_whiteLine3.jpg	MediumLong_e17_cut2_stereo_44KHz.wav
3	195	4	3	2	I	2	0	744	1	poli_8sides 6_whiteLine3.jpg	MediumLong_e19_stereo_44KHz.wav
3	196	3	4	2	I	2	0	761	0	poli_8sides 11_whiteLine3.jpg	Medium_e01_cut1_stereo_44KHz.wav
3	197	1	2	0	C	1	1	894	1	poli_8sides 7_whiteLine3.jpg	MediumLong_e17_cut2_stereo_44KHz.wav
3	198	3	3	2	I	2	0	704	0	poli_8sides 11_whiteLine3.jpg	MediumLong_e19_stereo_44KHz.wav
3	199	4	4	2	I	1	0	727	0	poli_8sides 6_whiteLine3.jpg	Medium_e01_cut1_stereo_44KHz.wav
3	200	2	1	0	C	1	1	1030	1	poli_8sides 12_whiteLine3.jpg	MediumLong_e04_stereo_44KHz.wav
4	1	2	2	1	C	2	1	807	1	poli_8sides 9_whiteLine3.jpg	Medium_e21_stereo_44KHz.wav
4	2	3	3	2	I	2	0	643	1	poli_8sides 10_whiteLine3.jpg	Medium_e26_stereo_44KHz.wav
4	3	1	2	0	C	2	0	960	0	poli_8sides 4_whiteLine3.jpg	Medium_e21_stereo_44KHz.wav
4	4	4	3	2	I	1	0	1350	0	poli_8sides 13_whiteLine3.jpg	Medium_e26_stereo_44KHz.wav
4	5	3	4	2	I	1	0	1241	0	poli_8sides 10_whiteLine3.jpg	MediumLong_b10_cut2_L_stereo_44KHz.wav
4	6	1	1	1	C	2	1	886	1	poli_8sides 4_whiteLine3.jpg	Medium_e13_stereo_44KHz.wav
4	7	2	1	0	C	1	1	881	1	poli_8sides 9_whiteLine3.jpg	Medium_e13_stereo_44KHz.wav
4	8	4	4	2	I	1	0	805	0	poli_8sides 13_whiteLine3.jpg	MediumLong_b10_cut2_L_stereo_44KHz.wav
4	9	1	2	0	C	1	1	836	1	poli_8sides 4_whiteLine3.jpg	Medium_e21_stereo_44KHz.wav
4	10	3	4	2	I	2	0	812	0	poli_8sides 10_whiteLine3.jpg	MediumLong_b10_cut2_L_stereo_44KHz.wav
4	11	2	2	1	C	1	0	767	0	poli_8sides 9_whiteLine3.jpg	Medium_e21_stereo_44KHz.wav
4	12	4	4	2	I	1	0	1211	0	poli_8sides 13_whiteLine3.jpg	MediumLong_b10_cut2_L_stereo_44KHz.wav
4	13	2	1	0	C	1	1	1479	1	poli_8sides 9_whiteLine3.jpg	Medium_e13_stereo_44KHz.wav
4	14	4	3	2	I	2	0	1284	0	poli_8sides 13_whiteLine3.jpg	Medium_e26_stereo_44KHz.wav
4	15	1	1	1	C	2	1	991	1	poli_8sides 4_whiteLine3.jpg	Medium_e13_stereo_44KHz.wav
4	16	3	3	2	I	1	0	875	0	poli_8sides 10_whiteLine3.jpg	Medium_e26_stereo_44KHz.wav
4	17	4	3	2	I	1	0	786	0	poli_8sides 13_whiteLine3.jpg	Medium_e26_stereo_44KHz.wav
4	18	1	2	0	C	1	1	932	1	poli_8sides 4_whiteLine3.jpg	Medium_e21_stereo_44KHz.wav
4	19	2	2	1	C	2	1	919	1	poli_8sides 9_whiteLine3.jpg	Medium_e21_stereo_44KHz.wav
4	20	3	3	2	I	1	0	1366	1	poli_8sides 10_whiteLine3.jpg	Medium_e26_stereo_44KHz.wav
4	21	1	1	1	C	1	0	1061	0	poli_8sides 4_whiteLine3.jpg	Medium_e13_stereo_44KHz.wav
4	22	2	1	0	C	1	1	727	1	poli_8sides 9_whiteLine3.jpg	Medium_e13_stereo_44KHz.wav
4	23	3	4	2	I	2	0	1448	0	poli_8sides 10_whiteLine3.jpg	MediumLong_b10_cut2_L_stereo_44KHz.wav
4	24	4	4	2	I	2	0	1154	1	poli_8sides 13_whiteLine3.jpg	MediumLong_b10_cut2_L_stereo_44KHz.wav
4	25	1	1	1	C	1	0	814	0	poli_8sides 4_whiteLine3.jpg	Medium_e13_stereo_44KHz.wav
4	26	2	1	0	C	1	1	614	1	poli_8sides 9_whiteLine3.jpg	Medium_e13_stereo_44KHz.wav
4	27	3	3	2	I	1	0	813	1	poli_8sides 10_whiteLine3.jpg	Medium_e26_stereo_44KHz.wav
4	28	4	4	2	I	1	0	921	0	poli_8sides 13_whiteLine3.jpg	MediumLong_b10_cut2_L_stereo_44KHz.wav
4	29	1	2	0	C	1	1	874	1	poli_8sides 4_whiteLine3.jpg	Medium_e21_stereo_44KHz.wav
4	30	3	4	2	I	2	0	1350	1	poli_8sides 10_whiteLine3.jpg	MediumLong_b10_cut2_L_stereo_44KHz.wav
4	31	2	2	1	C	1	0	1311	0	poli_8sides 9_whiteLine3.jpg	Medium_e21_stereo_44KHz.wav
4	32	4	3	2	I	2	0	980	0	poli_8sides 13_whiteLine3.jpg	Medium_e26_stereo_44KHz.wav
4	33	2	2	1	C	1	0	903	0	poli_8sides 9_whiteLine3.jpg	Medium_e21_stereo_44KHz.wav
4	34	4	4	2	I	1	0	1202	1	poli_8sides 13_whiteLine3.jpg	MediumLong_b10_cut2_L_stereo_44KHz.wav
4	35	3	4	2	I	2	0	876	1	poli_8sides 10_whiteLine3.jpg	MediumLong_b10_cut2_L_stereo_44KHz.wav
4	36	1	1	1	C	1	0	824	0	poli_8sides 4_whiteLine3.jpg	Medium_e13_stereo_44KHz.wav
4	37	4	3	2	I	2	0	1060	1	poli_8sides 13_whiteLine3.jpg	Medium_e26_stereo_44KHz.wav
4	38	2	1	0	C	1	1	1158	1	poli_8sides 9_whiteLine3.jpg	Medium_e13_stereo_44KHz.wav
4	39	3	3	2	I	1	0	902	0	poli_8sides 10_whiteLine3.jpg	Medium_e26_stereo_44KHz.wav
4	40	1	2	0	C	1	1	659	1	poli_8sides 4_whiteLine3.jpg	Medium_e21_stereo_44KHz.wav
4	41	3	4	2	I	2	0	858	1	poli_8sides 10_whiteLine3.jpg	MediumLong_b10_cut2_L_stereo_44KHz.wav
4	42	2	2	1	C	2	1	959	1	poli_8sides 9_whiteLine3.jpg	Medium_e21_stereo_44KHz.wav
4	43	4	3	2	I	2	0	1022	0	poli_8sides 13_whiteLine3.jpg	Medium_e26_stereo_44KHz.wav
4	44	1	2	0	C	1	1	698	1	poli_8sides 4_whiteLine3.jpg	Medium_e21_stereo_44KHz.wav
4	45	4	4	2	I	1	0	937	1	poli_8sides 13_whiteLine3.jpg	MediumLong_b10_cut2_L_stereo_44KHz.wav
4	46	2	1	0	C	1	1	1429	1	poli_8sides 9_whiteLine3.jpg	Medium_e13_stereo_44KHz.wav
4	47	1	1	1	C	2	1	671	1	poli_8sides 4_whiteLine3.jpg	Medium_e13_stereo_44KHz.wav
4	48	3	3	2	I	1	0	953	1	poli_8sides 10_whiteLine3.jpg	Medium_e26_stereo_44KHz.wav
4	49	4	4	2	I	1	0	1278	0	poli_8sides 13_whiteLine3.jpg	MediumLong_b10_cut2_L_stereo_44KHz.wav
4	50	3	4	2	I	2	0	1085	1	poli_8sides 10_whiteLine3.jpg	MediumLong_b10_cut2_L_stereo_44KHz.wav
4	51	1	1	1	C	1	0	706	0	poli_8sides 4_whiteLine3.jpg	Medium_e13_stereo_44KHz.wav
4	52	2	1	0	C	1	1	719	1	poli_8sides 9_whiteLine3.jpg	Medium_e13_stereo_44KHz.wav
4	53	4	3	2	I	2	0	848	1	poli_8sides 13_whiteLine3.jpg	Medium_e26_stereo_44KHz.wav
4	54	3	3	2	I	2	0	950	1	poli_8sides 10_whiteLine3.jpg	Medium_e26_stereo_44KHz.wav
4	55	2	2	1	C	1	0	846	0	poli_8sides 9_whiteLine3.jpg	Medium_e21_stereo_44KHz.wav
4	56	1	2	0	C	1	1	855	1	poli_8sides 4_whiteLine3.jpg	Medium_e21_stereo_44KHz.wav
4	57	2	2	1	C	1	0	738	0	poli_8sides 9_whiteLine3.jpg	Medium_e21_stereo_44KHz.wav
4	58	3	3	2	I	1	0	837	0	poli_8sides 10_whiteLine3.jpg	Medium_e26_stereo_44KHz.wav
4	59	4	4	2	I	2	0	931	1	poli_8sides 13_whiteLine3.jpg	MediumLong_b10_cut2_L_stereo_44KHz.wav
4	60	1	1	1	C	1	0	650	0	poli_8sides 4_whiteLine3.jpg	Medium_e13_stereo_44KHz.wav
4	61	3	4	2	I	2	0	1058	0	poli_8sides 10_whiteLine3.jpg	MediumLong_b10_cut2_L_stereo_44KHz.wav
4	62	4	3	2	I	2	0	825	1	poli_8sides 13_whiteLine3.jpg	Medium_e26_stereo_44KHz.wav
4	63	1	2	0	C	1	1	668	1	poli_8sides 4_whiteLine3.jpg	Medium_e21_stereo_44KHz.wav
4	64	2	1	0	C	1	1	766	1	poli_8sides 9_whiteLine3.jpg	Medium_e13_stereo_44KHz.wav
4	65	1	1	1	C	1	0	583	0	poli_8sides 4_whiteLine3.jpg	Medium_e13_stereo_44KHz.wav
4	66	4	3	2	I	2	0	706	0	poli_8sides 13_whiteLine3.jpg	Medium_e26_stereo_44KHz.wav
4	67	3	4	2	I	2	0	779	0	poli_8sides 10_whiteLine3.jpg	MediumLong_b10_cut2_L_stereo_44KHz.wav
4	68	2	1	0	C	1	1	864	1	poli_8sides 9_whiteLine3.jpg	Medium_e13_stereo_44KHz.wav
4	69	1	2	0	C	1	1	839	1	poli_8sides 4_whiteLine3.jpg	Medium_e21_stereo_44KHz.wav
4	70	2	2	1	C	2	1	774	1	poli_8sides 9_whiteLine3.jpg	Medium_e21_stereo_44KHz.wav
4	71	3	3	2	I	1	0	807	1	poli_8sides 10_whiteLine3.jpg	Medium_e26_stereo_44KHz.wav
4	72	4	4	2	I	1	0	994	1	poli_8sides 13_whiteLine3.jpg	MediumLong_b10_cut2_L_stereo_44KHz.wav
4	73	2	1	0	C	1	1	788	1	poli_8sides 9_whiteLine3.jpg	Medium_e13_stereo_44KHz.wav
4	74	4	3	2	I	2	0	798	1	poli_8sides 13_whiteLine3.jpg	Medium_e26_stereo_44KHz.wav
4	75	3	3	2	I	1	0	744	0	poli_8sides 10_whiteLine3.jpg	Medium_e26_stereo_44KHz.wav
4	76	1	1	1	C	1	0	582	0	poli_8sides 4_whiteLine3.jpg	Medium_e13_stereo_44KHz.wav
4	77	2	2	1	C	2	1	820	1	poli_8sides 9_whiteLine3.jpg	Medium_e21_stereo_44KHz.wav
4	78	3	4	2	I	2	0	901	1	poli_8sides 10_whiteLine3.jpg	MediumLong_b10_cut2_L_stereo_44KHz.wav
4	79	4	4	2	I	1	0	823	0	poli_8sides 13_whiteLine3.jpg	MediumLong_b10_cut2_L_stereo_44KHz.wav
4	80	1	2	0	C	1	1	832	1	poli_8sides 4_whiteLine3.jpg	Medium_e21_stereo_44KHz.wav
4	81	3	4	2	I	2	0	880	1	poli_8sides 10_whiteLine3.jpg	MediumLong_b10_cut2_L_stereo_44KHz.wav
4	82	4	3	2	I	2	0	1021	0	poli_8sides 13_whiteLine3.jpg	Medium_e26_stereo_44KHz.wav
4	83	1	1	1	C	1	0	763	0	poli_8sides 4_whiteLine3.jpg	Medium_e13_stereo_44KHz.wav
4	84	2	2	1	C	2	1	870	1	poli_8sides 9_whiteLine3.jpg	Medium_e21_stereo_44KHz.wav
4	85	1	2	0	C	1	1	720	1	poli_8sides 4_whiteLine3.jpg	Medium_e21_stereo_44KHz.wav
4	86	4	4	2	I	2	0	797	1	poli_8sides 13_whiteLine3.jpg	MediumLong_b10_cut2_L_stereo_44KHz.wav
4	87	2	1	0	C	1	1	811	1	poli_8sides 9_whiteLine3.jpg	Medium_e13_stereo_44KHz.wav
4	88	3	3	2	I	1	0	1040	1	poli_8sides 10_whiteLine3.jpg	Medium_e26_stereo_44KHz.wav
4	89	4	3	2	I	2	0	747	1	poli_8sides 13_whiteLine3.jpg	Medium_e26_stereo_44KHz.wav
4	90	1	2	0	C	1	1	682	1	poli_8sides 4_whiteLine3.jpg	Medium_e21_stereo_44KHz.wav
4	91	3	3	2	I	1	0	814	0	poli_8sides 10_whiteLine3.jpg	Medium_e26_stereo_44KHz.wav
4	92	2	2	1	C	1	0	1080	0	poli_8sides 9_whiteLine3.jpg	Medium_e21_stereo_44KHz.wav
4	93	1	1	1	C	1	0	786	0	poli_8sides 4_whiteLine3.jpg	Medium_e13_stereo_44KHz.wav
4	94	2	1	0	C	1	1	995	1	poli_8sides 9_whiteLine3.jpg	Medium_e13_stereo_44KHz.wav
4	95	3	4	2	I	2	0	1241	1	poli_8sides 10_whiteLine3.jpg	MediumLong_b10_cut2_L_stereo_44KHz.wav
4	96	4	4	2	I	1	0	775	1	poli_8sides 13_whiteLine3.jpg	MediumLong_b10_cut2_L_stereo_44KHz.wav
4	97	3	4	2	I	2	0	792	0	poli_8sides 10_whiteLine3.jpg	MediumLong_b10_cut2_L_stereo_44KHz.wav
4	98	2	2	1	C	1	0	905	0	poli_8sides 9_whiteLine3.jpg	Medium_e21_stereo_44KHz.wav
4	99	4	4	2	I	1	0	691	1	poli_8sides 13_whiteLine3.jpg	MediumLong_b10_cut2_L_stereo_44KHz.wav
4	100	1	1	1	C	1	0	591	0	poli_8sides 4_whiteLine3.jpg	Medium_e13_stereo_44KHz.wav
4	101	4	3	2	I	2	0	987	1	poli_8sides 13_whiteLine3.jpg	Medium_e26_stereo_44KHz.wav
4	102	2	1	0	C	1	1	883	1	poli_8sides 9_whiteLine3.jpg	Medium_e13_stereo_44KHz.wav
4	103	1	2	0	C	1	1	759	1	poli_8sides 4_whiteLine3.jpg	Medium_e21_stereo_44KHz.wav
4	104	3	3	2	I	2	0	1126	0	poli_8sides 10_whiteLine3.jpg	Medium_e26_stereo_44KHz.wav
4	105	2	1	0	C	1	1	869	1	poli_8sides 9_whiteLine3.jpg	Medium_e13_stereo_44KHz.wav
4	106	4	3	2	I	2	0	748	0	poli_8sides 13_whiteLine3.jpg	Medium_e26_stereo_44KHz.wav
4	107	3	4	2	I	2	0	647	0	poli_8sides 10_whiteLine3.jpg	MediumLong_b10_cut2_L_stereo_44KHz.wav
4	108	1	2	0	C	1	1	1257	1	poli_8sides 4_whiteLine3.jpg	Medium_e21_stereo_44KHz.wav
4	109	3	3	2	I	1	0	621	0	poli_8sides 10_whiteLine3.jpg	Medium_e26_stereo_44KHz.wav
4	110	2	2	1	C	1	0	866	0	poli_8sides 9_whiteLine3.jpg	Medium_e21_stereo_44KHz.wav
4	111	4	4	2	I	1	0	742	1	poli_8sides 13_whiteLine3.jpg	MediumLong_b10_cut2_L_stereo_44KHz.wav
4	112	1	1	1	C	1	0	823	0	poli_8sides 4_whiteLine3.jpg	Medium_e13_stereo_44KHz.wav
4	113	3	3	2	I	1	0	680	0	poli_8sides 10_whiteLine3.jpg	Medium_e26_stereo_44KHz.wav
4	114	4	4	2	I	1	0	944	0	poli_8sides 13_whiteLine3.jpg	MediumLong_b10_cut2_L_stereo_44KHz.wav
4	115	2	1	0	C	1	1	1011	1	poli_8sides 9_whiteLine3.jpg	Medium_e13_stereo_44KHz.wav
4	116	1	1	1	C	1	0	698	0	poli_8sides 4_whiteLine3.jpg	Medium_e13_stereo_44KHz.wav
4	117	2	2	1	C	1	0	1199	0	poli_8sides 9_whiteLine3.jpg	Medium_e21_stereo_44KHz.wav
4	118	3	4	2	I	2	0	843	0	poli_8sides 10_whiteLine3.jpg	MediumLong_b10_cut2_L_stereo_44KHz.wav
4	119	1	2	0	C	1	1	883	1	poli_8sides 4_whiteLine3.jpg	Medium_e21_stereo_44KHz.wav
4	120	4	3	2	I	1	0	869	0	poli_8sides 13_whiteLine3.jpg	Medium_e26_stereo_44KHz.wav
4	121	2	1	0	C	1	1	849	1	poli_8sides 9_whiteLine3.jpg	Medium_e13_stereo_44KHz.wav
4	122	1	1	1	C	1	0	1059	0	poli_8sides 4_whiteLine3.jpg	Medium_e13_stereo_44KHz.wav
4	123	3	4	2	I	2	0	942	0	poli_8sides 10_whiteLine3.jpg	MediumLong_b10_cut2_L_stereo_44KHz.wav
4	124	4	4	2	I	1	0	737	1	poli_8sides 13_whiteLine3.jpg	MediumLong_b10_cut2_L_stereo_44KHz.wav
4	125	2	2	1	C	2	1	821	1	poli_8sides 9_whiteLine3.jpg	Medium_e21_stereo_44KHz.wav
4	126	3	3	2	I	1	0	978	1	poli_8sides 10_whiteLine3.jpg	Medium_e26_stereo_44KHz.wav
4	127	4	3	2	I	1	0	660	1	poli_8sides 13_whiteLine3.jpg	Medium_e26_stereo_44KHz.wav
4	128	1	2	0	C	1	1	696	1	poli_8sides 4_whiteLine3.jpg	Medium_e21_stereo_44KHz.wav
4	129	2	1	0	C	1	1	734	1	poli_8sides 9_whiteLine3.jpg	Medium_e13_stereo_44KHz.wav
4	130	3	4	2	I	2	0	736	1	poli_8sides 10_whiteLine3.jpg	MediumLong_b10_cut2_L_stereo_44KHz.wav
4	131	4	3	2	I	1	0	985	0	poli_8sides 13_whiteLine3.jpg	Medium_e26_stereo_44KHz.wav
4	132	1	2	0	C	1	1	627	1	poli_8sides 4_whiteLine3.jpg	Medium_e21_stereo_44KHz.wav
4	133	4	4	2	I	1	0	1033	0	poli_8sides 13_whiteLine3.jpg	MediumLong_b10_cut2_L_stereo_44KHz.wav
4	134	1	1	1	C	1	0	512	0	poli_8sides 4_whiteLine3.jpg	Medium_e13_stereo_44KHz.wav
4	135	2	2	1	C	1	0	1042	0	poli_8sides 9_whiteLine3.jpg	Medium_e21_stereo_44KHz.wav
4	136	3	3	2	I	1	0	602	0	poli_8sides 10_whiteLine3.jpg	Medium_e26_stereo_44KHz.wav
4	137	2	1	0	C	1	1	640	1	poli_8sides 9_whiteLine3.jpg	Medium_e13_stereo_44KHz.wav
4	138	4	3	2	I	2	0	938	1	poli_8sides 13_whiteLine3.jpg	Medium_e26_stereo_44KHz.wav
4	139	3	3	2	I	1	0	671	1	poli_8sides 10_whiteLine3.jpg	Medium_e26_stereo_44KHz.wav
4	140	1	1	1	C	1	0	726	0	poli_8sides 4_whiteLine3.jpg	Medium_e13_stereo_44KHz.wav
4	141	4	4	2	I	2	0	939	1	poli_8sides 13_whiteLine3.jpg	MediumLong_b10_cut2_L_stereo_44KHz.wav
4	142	2	2	1	C	1	0	823	0	poli_8sides 9_whiteLine3.jpg	Medium_e21_stereo_44KHz.wav
4	143	3	4	2	I	2	0	982	0	poli_8sides 10_whiteLine3.jpg	MediumLong_b10_cut2_L_stereo_44KHz.wav
4	144	1	2	0	C	1	1	641	1	poli_8sides 4_whiteLine3.jpg	Medium_e21_stereo_44KHz.wav
4	145	3	3	2	I	1	0	702	1	poli_8sides 10_whiteLine3.jpg	Medium_e26_stereo_44KHz.wav
4	146	2	2	1	C	1	0	844	0	poli_8sides 9_whiteLine3.jpg	Medium_e21_stereo_44KHz.wav
4	147	1	1	1	C	1	0	767	0	poli_8sides 4_whiteLine3.jpg	Medium_e13_stereo_44KHz.wav
4	148	4	3	2	I	1	0	593	0	poli_8sides 13_whiteLine3.jpg	Medium_e26_stereo_44KHz.wav
4	149	3	4	2	I	2	0	840	0	poli_8sides 10_whiteLine3.jpg	MediumLong_b10_cut2_L_stereo_44KHz.wav
4	150	2	1	0	C	1	1	1007	1	poli_8sides 9_whiteLine3.jpg	Medium_e13_stereo_44KHz.wav
4	151	4	4	2	I	1	0	780	0	poli_8sides 13_whiteLine3.jpg	MediumLong_b10_cut2_L_stereo_44KHz.wav
4	152	1	2	0	C	1	1	853	1	poli_8sides 4_whiteLine3.jpg	Medium_e21_stereo_44KHz.wav
4	153	4	3	2	I	2	0	906	0	poli_8sides 13_whiteLine3.jpg	Medium_e26_stereo_44KHz.wav
4	154	3	4	2	I	2	0	905	1	poli_8sides 10_whiteLine3.jpg	MediumLong_b10_cut2_L_stereo_44KHz.wav
4	155	2	2	1	C	1	0	621	0	poli_8sides 9_whiteLine3.jpg	Medium_e21_stereo_44KHz.wav
4	156	1	2	0	C	1	1	606	1	poli_8sides 4_whiteLine3.jpg	Medium_e21_stereo_44KHz.wav
4	157	3	3	2	I	1	0	758	0	poli_8sides 10_whiteLine3.jpg	Medium_e26_stereo_44KHz.wav
4	158	4	4	2	I	1	0	755	0	poli_8sides 13_whiteLine3.jpg	MediumLong_b10_cut2_L_stereo_44KHz.wav
4	159	1	1	1	C	1	0	627	0	poli_8sides 4_whiteLine3.jpg	Medium_e13_stereo_44KHz.wav
4	160	2	1	0	C	1	1	903	1	poli_8sides 9_whiteLine3.jpg	Medium_e13_stereo_44KHz.wav
4	161	4	4	2	I	2	0	643	1	poli_8sides 13_whiteLine3.jpg	MediumLong_b10_cut2_L_stereo_44KHz.wav
4	162	1	1	1	C	1	0	960	0	poli_8sides 4_whiteLine3.jpg	Medium_e13_stereo_44KHz.wav
4	163	2	1	0	C	1	1	596	1	poli_8sides 9_whiteLine3.jpg	Medium_e13_stereo_44KHz.wav
4	164	3	3	2	I	1	0	741	1	poli_8sides 10_whiteLine3.jpg	Medium_e26_stereo_44KHz.wav
4	165	2	2	1	C	1	0	535	0	poli_8sides 9_whiteLine3.jpg	Medium_e21_stereo_44KHz.wav
4	166	3	4	2	I	2	0	877	0	poli_8sides 10_whiteLine3.jpg	MediumLong_b10_cut2_L_stereo_44KHz.wav
4	167	4	3	2	I	2	0	1097	1	poli_8sides 13_whiteLine3.jpg	Medium_e26_stereo_44KHz.wav
4	168	1	2	0	C	1	1	688	1	poli_8sides 4_whiteLine3.jpg	Medium_e21_stereo_44KHz.wav
4	169	2	1	0	C	1	1	689	1	poli_8sides 9_whiteLine3.jpg	Medium_e13_stereo_44KHz.wav
4	170	3	3	2	I	1	0	1247	1	poli_8sides 10_whiteLine3.jpg	Medium_e26_stereo_44KHz.wav
4	171	1	1	1	C	1	0	902	0	poli_8sides 4_whiteLine3.jpg	Medium_e13_stereo_44KHz.wav
4	172	4	4	2	I	1	0	772	1	poli_8sides 13_whiteLine3.jpg	MediumLong_b10_cut2_L_stereo_44KHz.wav
4	173	3	4	2	I	2	0	752	1	poli_8sides 10_whiteLine3.jpg	MediumLong_b10_cut2_L_stereo_44KHz.wav
4	174	1	2	0	C	1	1	596	1	poli_8sides 4_whiteLine3.jpg	Medium_e21_stereo_44KHz.wav
4	175	4	3	2	I	2	0	980	1	poli_8sides 13_whiteLine3.jpg	Medium_e26_stereo_44KHz.wav
4	176	2	2	1	C	1	0	767	0	poli_8sides 9_whiteLine3.jpg	Medium_e21_stereo_44KHz.wav
4	177	4	3	2	I	2	0	849	0	poli_8sides 13_whiteLine3.jpg	Medium_e26_stereo_44KHz.wav
4	178	2	1	0	C	1	1	762	1	poli_8sides 9_whiteLine3.jpg	Medium_e13_stereo_44KHz.wav
4	179	3	4	2	I	1	0	848	0	poli_8sides 10_whiteLine3.jpg	MediumLong_b10_cut2_L_stereo_44KHz.wav
4	180	1	1	1	C	1	0	604	0	poli_8sides 4_whiteLine3.jpg	Medium_e13_stereo_44KHz.wav
4	181	2	2	1	C	1	0	1165	0	poli_8sides 9_whiteLine3.jpg	Medium_e21_stereo_44KHz.wav
4	182	1	2	0	C	1	1	671	1	poli_8sides 4_whiteLine3.jpg	Medium_e21_stereo_44KHz.wav
4	183	3	3	2	I	1	0	872	0	poli_8sides 10_whiteLine3.jpg	Medium_e26_stereo_44KHz.wav
4	184	4	4	2	I	1	0	686	0	poli_8sides 13_whiteLine3.jpg	MediumLong_b10_cut2_L_stereo_44KHz.wav
4	185	2	2	1	C	1	0	797	0	poli_8sides 9_whiteLine3.jpg	Medium_e21_stereo_44KHz.wav
4	186	1	1	1	C	1	0	585	0	poli_8sides 4_whiteLine3.jpg	Medium_e13_stereo_44KHz.wav
4	187	4	3	2	I	2	0	823	0	poli_8sides 13_whiteLine3.jpg	Medium_e26_stereo_44KHz.wav
4	188	3	3	2	I	1	0	589	1	poli_8sides 10_whiteLine3.jpg	Medium_e26_stereo_44KHz.wav
4	189	2	1	0	C	1	1	591	1	poli_8sides 9_whiteLine3.jpg	Medium_e13_stereo_44KHz.wav
4	190	1	2	0	C	1	1	784	1	poli_8sides 4_whiteLine3.jpg	Medium_e21_stereo_44KHz.wav
4	191	3	4	2	I	2	0	1017	1	poli_8sides 10_whiteLine3.jpg	MediumLong_b10_cut2_L_stereo_44KHz.wav
4	192	4	4	2	I	1	0	753	0	poli_8sides 13_whiteLine3.jpg	MediumLong_b10_cut2_L_stereo_44KHz.wav
4	193	3	4	2	I	2	0	772	1	poli_8sides 10_whiteLine3.jpg	MediumLong_b10_cut2_L_stereo_44KHz.wav
4	194	2	1	0	C	1	1	603	1	poli_8sides 9_whiteLine3.jpg	Medium_e13_stereo_44KHz.wav
4	195	1	2	0	C	1	1	821	1	poli_8sides 4_whiteLine3.jpg	Medium_e21_stereo_44KHz.wav
4	196	4	3	2	I	2	0	862	1	poli_8sides 13_whiteLine3.jpg	Medium_e26_stereo_44KHz.wav
4	197	2	2	1	C	1	0	755	0	poli_8sides 9_whiteLine3.jpg	Medium_e21_stereo_44KHz.wav
4	198	3	3	2	I	1	0	934	0	poli_8sides 10_whiteLine3.jpg	Medium_e26_stereo_44KHz.wav
4	199	4	4	2	I	1	0	1707	1	poli_8sides 13_whiteLine3.jpg	MediumLong_b10_cut2_L_stereo_44KHz.wav
4	200	1	1	1	C	1	0	677	0	poli_8sides 4_whiteLine3.jpg	Medium_e13_stereo_44KHz.wav
