block	trial	Vstim	Astim	match	C/I	resp	result	RT	fb	V-file	A-file
RL

0	1	2	3	1	C	2	0	1542	0	Ⴉ	cut_oo_stereo_44KHz.wav
0	2	1	1	1	C	2	0	1263	0	Ⴋ	cut_g_stereo_44KHz.wav
0	3	1	2	0	C	2	1	1225	1	Ⴋ	cut_ee_stereo_44KHz.wav
0	4	2	4	0	C	2	1	722	1	Ⴉ	cut_eeuw_stereo_44KHz.wav
0	5	2	3	1	C	1	1	1032	1	Ⴉ	cut_oo_stereo_44KHz.wav
0	6	2	4	0	C	2	1	711	1	Ⴉ	cut_eeuw_stereo_44KHz.wav
0	7	1	2	0	C	2	1	567	1	Ⴋ	cut_ee_stereo_44KHz.wav
0	8	1	1	1	C	2	0	925	0	Ⴋ	cut_g_stereo_44KHz.wav
0	9	1	1	1	C	2	0	752	0	Ⴋ	cut_g_stereo_44KHz.wav
0	10	2	4	0	C	2	1	1011	1	Ⴉ	cut_eeuw_stereo_44KHz.wav
0	11	1	2	0	C	1	0	1741	0	Ⴋ	cut_ee_stereo_44KHz.wav
0	12	2	3	1	C	2	0	1138	0	Ⴉ	cut_oo_stereo_44KHz.wav
0	13	1	2	0	C	2	1	801	1	Ⴋ	cut_ee_stereo_44KHz.wav
0	14	2	4	0	C	2	1	1017	1	Ⴉ	cut_eeuw_stereo_44KHz.wav
0	15	1	1	1	C	1	1	1049	1	Ⴋ	cut_g_stereo_44KHz.wav
0	16	2	3	1	C	1	1	775	1	Ⴉ	cut_oo_stereo_44KHz.wav
0	17	1	1	1	C	1	1	817	1	Ⴋ	cut_g_stereo_44KHz.wav
0	18	1	2	0	C	2	1	773	1	Ⴋ	cut_ee_stereo_44KHz.wav
0	19	2	3	1	C	1	1	854	1	Ⴉ	cut_oo_stereo_44KHz.wav
0	20	2	4	0	C	2	1	735	1	Ⴉ	cut_eeuw_stereo_44KHz.wav
0	21	2	4	0	C	1	0	881	0	Ⴉ	cut_eeuw_stereo_44KHz.wav
0	22	1	2	0	C	2	1	678	1	Ⴋ	cut_ee_stereo_44KHz.wav
0	23	1	1	1	C	2	0	879	0	Ⴋ	cut_g_stereo_44KHz.wav
0	24	2	3	1	C	1	1	818	1	Ⴉ	cut_oo_stereo_44KHz.wav
0	25	2	4	0	C	2	1	1006	1	Ⴉ	cut_eeuw_stereo_44KHz.wav
0	26	1	2	0	C	2	1	586	1	Ⴋ	cut_ee_stereo_44KHz.wav
0	27	1	1	1	C	2	0	904	0	Ⴋ	cut_g_stereo_44KHz.wav
0	28	2	3	1	C	2	0	780	0	Ⴉ	cut_oo_stereo_44KHz.wav
0	29	1	2	0	C	2	1	615	1	Ⴋ	cut_ee_stereo_44KHz.wav
0	30	2	3	1	C	1	1	878	1	Ⴉ	cut_oo_stereo_44KHz.wav
avg_resp = 834
1	1	4	4	2	I	2	0	868	1	Ⴒ	cut_k_stereo_44KHz.wav
1	2	2	2	1	C	1	1	872	1	Ⴕ	cut_u_stereo_44KHz.wav
1	3	3	4	2	I	1	0	993	1	Ⴏ	cut_k_stereo_44KHz.wav
1	4	1	2	0	C	2	1	665	1	Ⴔ	cut_u_stereo_44KHz.wav
1	5	3	3	2	I	2	0	873	1	Ⴏ	cut_o_stereo_44KHz.wav
1	6	1	1	1	C	1	1	912	1	Ⴔ	cut_a_stereo_44KHz.wav
1	7	2	1	0	C	2	1	1029	1	Ⴕ	cut_a_stereo_44KHz.wav
1	8	4	3	2	I	2	0	984	0	Ⴒ	cut_o_stereo_44KHz.wav
1	9	1	2	0	C	2	1	914	1	Ⴔ	cut_u_stereo_44KHz.wav
1	10	3	4	2	I	1	0	902	1	Ⴏ	cut_k_stereo_44KHz.wav
1	11	4	4	2	I	2	0	646	1	Ⴒ	cut_k_stereo_44KHz.wav
1	12	2	1	0	C	1	0	819	0	Ⴕ	cut_a_stereo_44KHz.wav
1	13	4	3	2	I	2	0	803	0	Ⴒ	cut_o_stereo_44KHz.wav
1	14	3	3	2	I	1	0	1370	1	Ⴏ	cut_o_stereo_44KHz.wav
1	15	1	1	1	C	2	0	763	0	Ⴔ	cut_a_stereo_44KHz.wav
1	16	2	2	1	C	2	0	819	0	Ⴕ	cut_u_stereo_44KHz.wav
1	17	3	3	2	I	1	0	975	1	Ⴏ	cut_o_stereo_44KHz.wav
1	18	1	2	0	C	2	1	795	1	Ⴔ	cut_u_stereo_44KHz.wav
1	19	2	2	1	C	1	1	1211	1	Ⴕ	cut_u_stereo_44KHz.wav
1	20	4	3	2	I	1	0	1091	0	Ⴒ	cut_o_stereo_44KHz.wav
1	21	3	4	2	I	1	0	902	0	Ⴏ	cut_k_stereo_44KHz.wav
1	22	1	1	1	C	2	0	776	0	Ⴔ	cut_a_stereo_44KHz.wav
1	23	2	1	0	C	2	1	861	1	Ⴕ	cut_a_stereo_44KHz.wav
1	24	4	4	2	I	2	0	965	0	Ⴒ	cut_k_stereo_44KHz.wav
1	25	3	4	2	I	2	0	776	1	Ⴏ	cut_k_stereo_44KHz.wav
1	26	2	1	0	C	2	1	762	1	Ⴕ	cut_a_stereo_44KHz.wav
1	27	1	1	1	C	1	1	735	1	Ⴔ	cut_a_stereo_44KHz.wav
1	28	4	4	2	I	2	0	954	1	Ⴒ	cut_k_stereo_44KHz.wav
1	29	2	2	1	C	2	0	760	0	Ⴕ	cut_u_stereo_44KHz.wav
1	30	4	3	2	I	1	0	955	0	Ⴒ	cut_o_stereo_44KHz.wav
1	31	3	3	2	I	2	0	673	0	Ⴏ	cut_o_stereo_44KHz.wav
1	32	1	2	0	C	1	0	878	0	Ⴔ	cut_u_stereo_44KHz.wav
1	33	3	3	2	I	2	0	856	1	Ⴏ	cut_o_stereo_44KHz.wav
1	34	4	4	2	I	2	0	842	1	Ⴒ	cut_k_stereo_44KHz.wav
1	35	1	1	1	C	2	0	822	0	Ⴔ	cut_a_stereo_44KHz.wav
1	36	2	2	1	C	2	0	782	0	Ⴕ	cut_u_stereo_44KHz.wav
1	37	4	3	2	I	1	0	1048	1	Ⴒ	cut_o_stereo_44KHz.wav
1	38	1	2	0	C	2	1	643	1	Ⴔ	cut_u_stereo_44KHz.wav
1	39	2	1	0	C	2	1	785	1	Ⴕ	cut_a_stereo_44KHz.wav
1	40	3	4	2	I	1	0	749	1	Ⴏ	cut_k_stereo_44KHz.wav
1	41	2	1	0	C	2	1	1001	1	Ⴕ	cut_a_stereo_44KHz.wav
1	42	4	3	2	I	1	0	805	1	Ⴒ	cut_o_stereo_44KHz.wav
1	43	1	2	0	C	2	1	723	1	Ⴔ	cut_u_stereo_44KHz.wav
1	44	3	3	2	I	1	0	734	0	Ⴏ	cut_o_stereo_44KHz.wav
1	45	2	2	1	C	2	0	734	0	Ⴕ	cut_u_stereo_44KHz.wav
1	46	3	4	2	I	1	0	796	1	Ⴏ	cut_k_stereo_44KHz.wav
1	47	4	4	2	I	2	0	992	1	Ⴒ	cut_k_stereo_44KHz.wav
1	48	1	1	1	C	1	1	719	1	Ⴔ	cut_a_stereo_44KHz.wav
1	49	2	2	1	C	2	0	735	0	Ⴕ	cut_u_stereo_44KHz.wav
1	50	1	1	1	C	2	0	823	0	Ⴔ	cut_a_stereo_44KHz.wav
1	51	3	4	2	I	1	0	756	0	Ⴏ	cut_k_stereo_44KHz.wav
1	52	4	3	2	I	1	0	1035	1	Ⴒ	cut_o_stereo_44KHz.wav
1	53	3	3	2	I	1	0	1181	0	Ⴏ	cut_o_stereo_44KHz.wav
1	54	1	2	0	C	2	1	705	1	Ⴔ	cut_u_stereo_44KHz.wav
1	55	4	4	2	I	2	0	529	1	Ⴒ	cut_k_stereo_44KHz.wav
1	56	2	1	0	C	2	1	715	1	Ⴕ	cut_a_stereo_44KHz.wav
1	57	1	1	1	C	1	1	928	1	Ⴔ	cut_a_stereo_44KHz.wav
1	58	4	3	2	I	2	0	672	1	Ⴒ	cut_o_stereo_44KHz.wav
1	59	3	4	2	I	2	0	760	0	Ⴏ	cut_k_stereo_44KHz.wav
1	60	2	2	1	C	2	0	703	0	Ⴕ	cut_u_stereo_44KHz.wav
1	61	3	3	2	I	1	0	815	1	Ⴏ	cut_o_stereo_44KHz.wav
1	62	1	2	0	C	2	1	738	1	Ⴔ	cut_u_stereo_44KHz.wav
1	63	4	4	2	I	2	0	793	0	Ⴒ	cut_k_stereo_44KHz.wav
1	64	2	1	0	C	1	0	813	0	Ⴕ	cut_a_stereo_44KHz.wav
1	65	4	4	2	I	2	0	654	1	Ⴒ	cut_k_stereo_44KHz.wav
1	66	1	2	0	C	2	1	796	1	Ⴔ	cut_u_stereo_44KHz.wav
1	67	3	4	2	I	1	0	739	0	Ⴏ	cut_k_stereo_44KHz.wav
1	68	2	2	1	C	2	0	875	0	Ⴕ	cut_u_stereo_44KHz.wav
1	69	1	1	1	C	1	1	732	1	Ⴔ	cut_a_stereo_44KHz.wav
1	70	4	3	2	I	1	0	862	0	Ⴒ	cut_o_stereo_44KHz.wav
1	71	3	3	2	I	1	0	1064	1	Ⴏ	cut_o_stereo_44KHz.wav
1	72	2	1	0	C	2	1	684	1	Ⴕ	cut_a_stereo_44KHz.wav
1	73	4	3	2	I	1	0	616	0	Ⴒ	cut_o_stereo_44KHz.wav
1	74	2	2	1	C	1	1	799	1	Ⴕ	cut_u_stereo_44KHz.wav
1	75	1	2	0	C	1	0	690	0	Ⴔ	cut_u_stereo_44KHz.wav
1	76	3	3	2	I	1	0	792	0	Ⴏ	cut_o_stereo_44KHz.wav
1	77	4	4	2	I	2	0	741	1	Ⴒ	cut_k_stereo_44KHz.wav
1	78	1	1	1	C	1	1	747	1	Ⴔ	cut_a_stereo_44KHz.wav
1	79	3	4	2	I	1	0	717	0	Ⴏ	cut_k_stereo_44KHz.wav
1	80	2	1	0	C	1	0	1157	0	Ⴕ	cut_a_stereo_44KHz.wav
1	81	3	3	2	I	2	0	958	1	Ⴏ	cut_o_stereo_44KHz.wav
1	82	4	3	2	I	2	0	771	1	Ⴒ	cut_o_stereo_44KHz.wav
1	83	1	1	1	C	1	1	803	1	Ⴔ	cut_a_stereo_44KHz.wav
1	84	2	2	1	C	2	0	975	0	Ⴕ	cut_u_stereo_44KHz.wav
1	85	3	4	2	I	1	0	827	1	Ⴏ	cut_k_stereo_44KHz.wav
1	86	2	1	0	C	2	1	915	1	Ⴕ	cut_a_stereo_44KHz.wav
1	87	4	4	2	I	1	0	665	0	Ⴒ	cut_k_stereo_44KHz.wav
1	88	1	2	0	C	2	1	1208	1	Ⴔ	cut_u_stereo_44KHz.wav
1	89	3	4	2	I	2	0	865	0	Ⴏ	cut_k_stereo_44KHz.wav
1	90	4	4	2	I	2	0	703	1	Ⴒ	cut_k_stereo_44KHz.wav
1	91	1	2	0	C	2	1	788	1	Ⴔ	cut_u_stereo_44KHz.wav
1	92	2	1	0	C	2	1	503	1	Ⴕ	cut_a_stereo_44KHz.wav
1	93	3	3	2	I	2	0	574	0	Ⴏ	cut_o_stereo_44KHz.wav
1	94	1	1	1	C	2	0	1025	0	Ⴔ	cut_a_stereo_44KHz.wav
1	95	4	3	2	I	1	0	1004	1	Ⴒ	cut_o_stereo_44KHz.wav
1	96	2	2	1	C	2	0	1081	0	Ⴕ	cut_u_stereo_44KHz.wav
1	97	3	3	2	I	2	0	972	0	Ⴏ	cut_o_stereo_44KHz.wav
1	98	1	2	0	C	2	1	1112	1	Ⴔ	cut_u_stereo_44KHz.wav
1	99	4	4	2	I	2	0	708	1	Ⴒ	cut_k_stereo_44KHz.wav
1	100	2	1	0	C	2	1	921	1	Ⴕ	cut_a_stereo_44KHz.wav
1	101	3	4	2	I	1	0	919	1	Ⴏ	cut_k_stereo_44KHz.wav
1	102	2	2	1	C	2	0	779	0	Ⴕ	cut_u_stereo_44KHz.wav
1	103	4	3	2	I	1	0	820	1	Ⴒ	cut_o_stereo_44KHz.wav
1	104	1	1	1	C	2	0	737	0	Ⴔ	cut_a_stereo_44KHz.wav
1	105	2	2	1	C	1	1	1408	1	Ⴕ	cut_u_stereo_44KHz.wav
1	106	4	4	2	I	2	0	680	1	Ⴒ	cut_k_stereo_44KHz.wav
1	107	1	2	0	C	2	1	875	1	Ⴔ	cut_u_stereo_44KHz.wav
1	108	3	4	2	I	1	0	805	0	Ⴏ	cut_k_stereo_44KHz.wav
1	109	1	1	1	C	1	1	1190	1	Ⴔ	cut_a_stereo_44KHz.wav
1	110	2	1	0	C	2	1	941	1	Ⴕ	cut_a_stereo_44KHz.wav
1	111	3	3	2	I	2	0	984	1	Ⴏ	cut_o_stereo_44KHz.wav
1	112	4	3	2	I	2	0	659	0	Ⴒ	cut_o_stereo_44KHz.wav
1	113	3	3	2	I	2	0	792	0	Ⴏ	cut_o_stereo_44KHz.wav
1	114	2	2	1	C	1	1	1438	1	Ⴕ	cut_u_stereo_44KHz.wav
1	115	4	4	2	I	2	0	640	1	Ⴒ	cut_k_stereo_44KHz.wav
1	116	1	2	0	C	2	1	707	1	Ⴔ	cut_u_stereo_44KHz.wav
1	117	4	3	2	I	1	0	763	0	Ⴒ	cut_o_stereo_44KHz.wav
1	118	3	4	2	I	2	0	806	0	Ⴏ	cut_k_stereo_44KHz.wav
1	119	2	1	0	C	1	0	1316	0	Ⴕ	cut_a_stereo_44KHz.wav
1	120	1	1	1	C	1	1	1104	1	Ⴔ	cut_a_stereo_44KHz.wav
1	121	2	1	0	C	2	1	654	1	Ⴕ	cut_a_stereo_44KHz.wav
1	122	1	1	1	C	1	1	771	1	Ⴔ	cut_a_stereo_44KHz.wav
1	123	3	4	2	I	2	0	725	0	Ⴏ	cut_k_stereo_44KHz.wav
1	124	4	3	2	I	1	0	894	0	Ⴒ	cut_o_stereo_44KHz.wav
1	125	1	2	0	C	2	1	1215	1	Ⴔ	cut_u_stereo_44KHz.wav
1	126	3	3	2	I	1	0	971	0	Ⴏ	cut_o_stereo_44KHz.wav
1	127	4	4	2	I	2	0	770	1	Ⴒ	cut_k_stereo_44KHz.wav
1	128	2	2	1	C	2	0	807	0	Ⴕ	cut_u_stereo_44KHz.wav
1	129	1	1	1	C	1	1	871	1	Ⴔ	cut_a_stereo_44KHz.wav
1	130	2	1	0	C	2	1	653	1	Ⴕ	cut_a_stereo_44KHz.wav
1	131	3	3	2	I	1	0	869	1	Ⴏ	cut_o_stereo_44KHz.wav
1	132	4	4	2	I	2	0	532	0	Ⴒ	cut_k_stereo_44KHz.wav
1	133	3	4	2	I	1	0	858	1	Ⴏ	cut_k_stereo_44KHz.wav
1	134	4	3	2	I	1	0	757	0	Ⴒ	cut_o_stereo_44KHz.wav
1	135	2	2	1	C	1	1	1132	1	Ⴕ	cut_u_stereo_44KHz.wav
1	136	1	2	0	C	2	1	858	1	Ⴔ	cut_u_stereo_44KHz.wav
1	137	2	2	1	C	1	1	874	1	Ⴕ	cut_u_stereo_44KHz.wav
1	138	3	3	2	I	2	0	870	1	Ⴏ	cut_o_stereo_44KHz.wav
1	139	1	2	0	C	1	0	790	0	Ⴔ	cut_u_stereo_44KHz.wav
1	140	4	4	2	I	2	0	786	0	Ⴒ	cut_k_stereo_44KHz.wav
1	141	1	1	1	C	1	1	1493	1	Ⴔ	cut_a_stereo_44KHz.wav
1	142	2	1	0	C	2	1	937	1	Ⴕ	cut_a_stereo_44KHz.wav
1	143	3	4	2	I	1	0	922	0	Ⴏ	cut_k_stereo_44KHz.wav
1	144	4	3	2	I	1	0	828	1	Ⴒ	cut_o_stereo_44KHz.wav
1	145	3	3	2	I	2	0	815	0	Ⴏ	cut_o_stereo_44KHz.wav
1	146	4	4	2	I	2	0	920	0	Ⴒ	cut_k_stereo_44KHz.wav
1	147	1	2	0	C	2	1	1085	1	Ⴔ	cut_u_stereo_44KHz.wav
1	148	2	1	0	C	2	1	510	1	Ⴕ	cut_a_stereo_44KHz.wav
1	149	1	1	1	C	1	1	869	1	Ⴔ	cut_a_stereo_44KHz.wav
1	150	4	3	2	I	2	0	848	1	Ⴒ	cut_o_stereo_44KHz.wav
1	151	3	4	2	I	1	0	830	0	Ⴏ	cut_k_stereo_44KHz.wav
1	152	2	2	1	C	1	1	1331	1	Ⴕ	cut_u_stereo_44KHz.wav
1	153	3	3	2	I	2	0	819	0	Ⴏ	cut_o_stereo_44KHz.wav
1	154	4	4	2	I	1	0	808	0	Ⴒ	cut_k_stereo_44KHz.wav
1	155	1	1	1	C	2	0	924	0	Ⴔ	cut_a_stereo_44KHz.wav
1	156	2	1	0	C	2	1	442	1	Ⴕ	cut_a_stereo_44KHz.wav
1	157	3	4	2	I	1	0	777	1	Ⴏ	cut_k_stereo_44KHz.wav
1	158	1	2	0	C	2	1	834	1	Ⴔ	cut_u_stereo_44KHz.wav
1	159	4	3	2	I	1	0	1072	0	Ⴒ	cut_o_stereo_44KHz.wav
1	160	2	2	1	C	2	0	826	0	Ⴕ	cut_u_stereo_44KHz.wav
1	161	3	4	2	I	1	0	1296	1	Ⴏ	cut_k_stereo_44KHz.wav
1	162	1	2	0	C	2	1	1008	1	Ⴔ	cut_u_stereo_44KHz.wav
1	163	2	1	0	C	2	1	644	1	Ⴕ	cut_a_stereo_44KHz.wav
1	164	4	4	2	I	1	0	783	0	Ⴒ	cut_k_stereo_44KHz.wav
1	165	2	2	1	C	1	1	1211	1	Ⴕ	cut_u_stereo_44KHz.wav
1	166	3	3	2	I	1	0	794	0	Ⴏ	cut_o_stereo_44KHz.wav
1	167	4	3	2	I	1	0	819	1	Ⴒ	cut_o_stereo_44KHz.wav
1	168	1	1	1	C	1	1	1174	1	Ⴔ	cut_a_stereo_44KHz.wav
1	169	2	1	0	C	2	1	842	1	Ⴕ	cut_a_stereo_44KHz.wav
1	170	1	2	0	C	2	1	794	1	Ⴔ	cut_u_stereo_44KHz.wav
1	171	4	3	2	I	1	0	801	0	Ⴒ	cut_o_stereo_44KHz.wav
1	172	3	4	2	I	2	0	1264	1	Ⴏ	cut_k_stereo_44KHz.wav
1	173	1	1	1	C	1	1	1258	1	Ⴔ	cut_a_stereo_44KHz.wav
1	174	4	4	2	I	2	0	895	0	Ⴒ	cut_k_stereo_44KHz.wav
1	175	3	3	2	I	1	0	1305	0	Ⴏ	cut_o_stereo_44KHz.wav
1	176	2	2	1	C	2	0	1229	0	Ⴕ	cut_u_stereo_44KHz.wav
1	177	1	2	0	C	2	1	552	1	Ⴔ	cut_u_stereo_44KHz.wav
1	178	3	4	2	I	1	0	769	0	Ⴏ	cut_k_stereo_44KHz.wav
1	179	4	4	2	I	2	0	647	0	Ⴒ	cut_k_stereo_44KHz.wav
1	180	2	1	0	C	1	0	1422	0	Ⴕ	cut_a_stereo_44KHz.wav
1	181	3	3	2	I	2	0	783	1	Ⴏ	cut_o_stereo_44KHz.wav
1	182	1	1	1	C	1	1	1180	1	Ⴔ	cut_a_stereo_44KHz.wav
1	183	2	2	1	C	2	0	658	0	Ⴕ	cut_u_stereo_44KHz.wav
1	184	4	3	2	I	1	0	1078	0	Ⴒ	cut_o_stereo_44KHz.wav
1	185	1	2	0	C	2	1	756	1	Ⴔ	cut_u_stereo_44KHz.wav
1	186	4	3	2	I	1	0	727	0	Ⴒ	cut_o_stereo_44KHz.wav
1	187	3	3	2	I	1	0	1045	1	Ⴏ	cut_o_stereo_44KHz.wav
1	188	2	1	0	C	2	1	640	1	Ⴕ	cut_a_stereo_44KHz.wav
1	189	4	4	2	I	2	0	854	1	Ⴒ	cut_k_stereo_44KHz.wav
1	190	2	2	1	C	1	1	1095	1	Ⴕ	cut_u_stereo_44KHz.wav
1	191	3	4	2	I	1	0	893	1	Ⴏ	cut_k_stereo_44KHz.wav
1	192	1	1	1	C	2	0	782	0	Ⴔ	cut_a_stereo_44KHz.wav
1	193	4	3	2	I	1	0	704	1	Ⴒ	cut_o_stereo_44KHz.wav
1	194	2	1	0	C	1	0	1054	0	Ⴕ	cut_a_stereo_44KHz.wav
1	195	3	4	2	I	1	0	1264	0	Ⴏ	cut_k_stereo_44KHz.wav
1	196	1	1	1	C	1	1	845	1	Ⴔ	cut_a_stereo_44KHz.wav
1	197	4	4	2	I	2	0	887	0	Ⴒ	cut_k_stereo_44KHz.wav
1	198	3	3	2	I	1	0	690	1	Ⴏ	cut_o_stereo_44KHz.wav
1	199	1	2	0	C	2	1	1136	1	Ⴔ	cut_u_stereo_44KHz.wav
1	200	2	2	1	C	1	1	796	1	Ⴕ	cut_u_stereo_44KHz.wav
2	1	3	3	2	I	2	0	999	0	Ⴖ	cut_l_stereo_44KHz.wav
2	2	1	1	1	C	2	0	841	0	Ⴌ	cut_w_stereo_44KHz.wav
2	3	2	2	1	C	1	1	1018	1	Ⴉ	cut_g_stereo_44KHz.wav
2	4	4	3	2	I	2	0	864	0	Ⴐ	cut_l_stereo_44KHz.wav
2	5	1	2	0	C	2	1	1069	1	Ⴌ	cut_g_stereo_44KHz.wav
2	6	2	1	0	C	1	0	976	0	Ⴉ	cut_w_stereo_44KHz.wav
2	7	3	4	2	I	2	0	927	1	Ⴖ	cut_h_stereo_44KHz.wav
2	8	4	4	2	I	1	0	868	1	Ⴐ	cut_h_stereo_44KHz.wav
2	9	3	3	2	I	2	0	1071	1	Ⴖ	cut_l_stereo_44KHz.wav
2	10	4	3	2	I	1	0	760	1	Ⴐ	cut_l_stereo_44KHz.wav
2	11	2	1	0	C	1	0	1174	0	Ⴉ	cut_w_stereo_44KHz.wav
2	12	1	2	0	C	2	1	1003	1	Ⴌ	cut_g_stereo_44KHz.wav
2	13	3	4	2	I	2	0	1206	0	Ⴖ	cut_h_stereo_44KHz.wav
2	14	4	4	2	I	1	0	1061	0	Ⴐ	cut_h_stereo_44KHz.wav
2	15	2	2	1	C	1	1	1148	1	Ⴉ	cut_g_stereo_44KHz.wav
2	16	1	1	1	C	1	1	1117	1	Ⴌ	cut_w_stereo_44KHz.wav
2	17	2	1	0	C	2	1	1059	1	Ⴉ	cut_w_stereo_44KHz.wav
2	18	4	4	2	I	1	0	830	1	Ⴐ	cut_h_stereo_44KHz.wav
2	19	3	3	2	I	2	0	832	1	Ⴖ	cut_l_stereo_44KHz.wav
2	20	1	2	0	C	2	1	887	1	Ⴌ	cut_g_stereo_44KHz.wav
2	21	4	3	2	I	1	0	1123	1	Ⴐ	cut_l_stereo_44KHz.wav
2	22	2	2	1	C	1	1	950	1	Ⴉ	cut_g_stereo_44KHz.wav
2	23	1	1	1	C	1	1	943	1	Ⴌ	cut_w_stereo_44KHz.wav
2	24	3	4	2	I	1	0	1312	1	Ⴖ	cut_h_stereo_44KHz.wav
2	25	2	1	0	C	2	1	892	1	Ⴉ	cut_w_stereo_44KHz.wav
2	26	4	3	2	I	1	0	1342	0	Ⴐ	cut_l_stereo_44KHz.wav
2	27	3	4	2	I	1	0	989	0	Ⴖ	cut_h_stereo_44KHz.wav
2	28	1	2	0	C	2	1	775	1	Ⴌ	cut_g_stereo_44KHz.wav
2	29	4	4	2	I	1	0	943	0	Ⴐ	cut_h_stereo_44KHz.wav
2	30	1	1	1	C	1	1	924	1	Ⴌ	cut_w_stereo_44KHz.wav
2	31	3	3	2	I	2	0	963	0	Ⴖ	cut_l_stereo_44KHz.wav
2	32	2	2	1	C	1	1	1059	1	Ⴉ	cut_g_stereo_44KHz.wav
2	33	4	4	2	I	2	0	877	0	Ⴐ	cut_h_stereo_44KHz.wav
2	34	1	2	0	C	2	1	960	1	Ⴌ	cut_g_stereo_44KHz.wav
2	35	3	3	2	I	2	0	909	1	Ⴖ	cut_l_stereo_44KHz.wav
2	36	2	1	0	C	1	0	856	0	Ⴉ	cut_w_stereo_44KHz.wav
2	37	4	3	2	I	2	0	1028	1	Ⴐ	cut_l_stereo_44KHz.wav
2	38	1	1	1	C	1	1	861	1	Ⴌ	cut_w_stereo_44KHz.wav
2	39	2	2	1	C	1	1	990	1	Ⴉ	cut_g_stereo_44KHz.wav
2	40	3	4	2	I	2	0	1056	0	Ⴖ	cut_h_stereo_44KHz.wav
2	41	2	1	0	C	2	1	903	1	Ⴉ	cut_w_stereo_44KHz.wav
2	42	1	1	1	C	1	1	863	1	Ⴌ	cut_w_stereo_44KHz.wav
2	43	4	4	2	I	2	0	925	0	Ⴐ	cut_h_stereo_44KHz.wav
2	44	3	4	2	I	2	0	654	1	Ⴖ	cut_h_stereo_44KHz.wav
2	45	2	2	1	C	1	1	1120	1	Ⴉ	cut_g_stereo_44KHz.wav
2	46	1	2	0	C	1	0	1329	0	Ⴌ	cut_g_stereo_44KHz.wav
2	47	4	3	2	I	2	0	902	0	Ⴐ	cut_l_stereo_44KHz.wav
2	48	3	3	2	I	2	0	801	0	Ⴖ	cut_l_stereo_44KHz.wav
2	49	2	1	0	C	2	1	1011	1	Ⴉ	cut_w_stereo_44KHz.wav
2	50	4	3	2	I	2	0	752	0	Ⴐ	cut_l_stereo_44KHz.wav
2	51	1	2	0	C	2	1	869	1	Ⴌ	cut_g_stereo_44KHz.wav
2	52	3	4	2	I	2	0	1075	0	Ⴖ	cut_h_stereo_44KHz.wav
2	53	1	1	1	C	1	1	874	1	Ⴌ	cut_w_stereo_44KHz.wav
2	54	2	2	1	C	1	1	929	1	Ⴉ	cut_g_stereo_44KHz.wav
2	55	4	4	2	I	2	0	1110	0	Ⴐ	cut_h_stereo_44KHz.wav
2	56	3	3	2	I	2	0	1082	0	Ⴖ	cut_l_stereo_44KHz.wav
2	57	4	3	2	I	2	0	793	0	Ⴐ	cut_l_stereo_44KHz.wav
2	58	1	1	1	C	1	1	946	1	Ⴌ	cut_w_stereo_44KHz.wav
2	59	3	4	2	I	2	0	1004	0	Ⴖ	cut_h_stereo_44KHz.wav
2	60	2	2	1	C	1	1	1135	1	Ⴉ	cut_g_stereo_44KHz.wav
2	61	3	3	2	I	2	0	919	1	Ⴖ	cut_l_stereo_44KHz.wav
2	62	4	4	2	I	2	0	1100	0	Ⴐ	cut_h_stereo_44KHz.wav
2	63	2	1	0	C	2	1	759	1	Ⴉ	cut_w_stereo_44KHz.wav
2	64	1	2	0	C	2	1	771	1	Ⴌ	cut_g_stereo_44KHz.wav
2	65	3	4	2	I	2	0	838	1	Ⴖ	cut_h_stereo_44KHz.wav
2	66	1	2	0	C	2	1	1706	1	Ⴌ	cut_g_stereo_44KHz.wav
2	67	2	1	0	C	2	1	699	1	Ⴉ	cut_w_stereo_44KHz.wav
2	68	4	4	2	I	1	0	813	0	Ⴐ	cut_h_stereo_44KHz.wav
2	69	1	1	1	C	1	1	888	1	Ⴌ	cut_w_stereo_44KHz.wav
2	70	4	3	2	I	1	0	961	1	Ⴐ	cut_l_stereo_44KHz.wav
2	71	2	2	1	C	1	1	1094	1	Ⴉ	cut_g_stereo_44KHz.wav
2	72	3	3	2	I	1	0	1364	1	Ⴖ	cut_l_stereo_44KHz.wav
2	73	4	3	2	I	1	0	801	1	Ⴐ	cut_l_stereo_44KHz.wav
2	74	3	3	2	I	2	0	798	1	Ⴖ	cut_l_stereo_44KHz.wav
2	75	2	1	0	C	1	0	817	0	Ⴉ	cut_w_stereo_44KHz.wav
2	76	1	1	1	C	1	1	791	1	Ⴌ	cut_w_stereo_44KHz.wav
2	77	4	4	2	I	2	0	845	0	Ⴐ	cut_h_stereo_44KHz.wav
2	78	3	4	2	I	2	0	1180	1	Ⴖ	cut_h_stereo_44KHz.wav
2	79	1	2	0	C	2	1	898	1	Ⴌ	cut_g_stereo_44KHz.wav
2	80	2	2	1	C	1	1	752	1	Ⴉ	cut_g_stereo_44KHz.wav
2	81	1	2	0	C	2	1	707	1	Ⴌ	cut_g_stereo_44KHz.wav
2	82	4	3	2	I	2	0	980	1	Ⴐ	cut_l_stereo_44KHz.wav
2	83	3	4	2	I	2	0	988	1	Ⴖ	cut_h_stereo_44KHz.wav
2	84	2	2	1	C	2	0	1427	0	Ⴉ	cut_g_stereo_44KHz.wav
2	85	4	4	2	I	2	0	1196	0	Ⴐ	cut_h_stereo_44KHz.wav
2	86	2	1	0	C	2	1	944	1	Ⴉ	cut_w_stereo_44KHz.wav
2	87	3	3	2	I	2	0	956	0	Ⴖ	cut_l_stereo_44KHz.wav
2	88	1	1	1	C	1	1	1026	1	Ⴌ	cut_w_stereo_44KHz.wav
2	89	3	4	2	I	2	0	937	1	Ⴖ	cut_h_stereo_44KHz.wav
2	90	1	1	1	C	1	1	1007	1	Ⴌ	cut_w_stereo_44KHz.wav
2	91	2	1	0	C	1	0	1055	0	Ⴉ	cut_w_stereo_44KHz.wav
2	92	4	3	2	I	2	0	834	0	Ⴐ	cut_l_stereo_44KHz.wav
2	93	3	3	2	I	2	0	908	1	Ⴖ	cut_l_stereo_44KHz.wav
2	94	2	2	1	C	1	1	792	1	Ⴉ	cut_g_stereo_44KHz.wav
2	95	1	2	0	C	2	1	804	1	Ⴌ	cut_g_stereo_44KHz.wav
2	96	4	4	2	I	1	0	894	1	Ⴐ	cut_h_stereo_44KHz.wav
2	97	3	3	2	I	2	0	797	0	Ⴖ	cut_l_stereo_44KHz.wav
2	98	4	3	2	I	2	0	824	1	Ⴐ	cut_l_stereo_44KHz.wav
2	99	2	1	0	C	1	0	1320	0	Ⴉ	cut_w_stereo_44KHz.wav
2	100	1	2	0	C	2	1	703	1	Ⴌ	cut_g_stereo_44KHz.wav
2	101	2	2	1	C	1	1	975	1	Ⴉ	cut_g_stereo_44KHz.wav
2	102	1	1	1	C	1	1	947	1	Ⴌ	cut_w_stereo_44KHz.wav
2	103	3	4	2	I	2	0	747	0	Ⴖ	cut_h_stereo_44KHz.wav
2	104	4	4	2	I	2	0	1026	1	Ⴐ	cut_h_stereo_44KHz.wav
2	105	3	4	2	I	1	0	963	0	Ⴖ	cut_h_stereo_44KHz.wav
2	106	4	4	2	I	1	0	956	0	Ⴐ	cut_h_stereo_44KHz.wav
2	107	2	1	0	C	2	1	827	1	Ⴉ	cut_w_stereo_44KHz.wav
2	108	1	1	1	C	1	1	959	1	Ⴌ	cut_w_stereo_44KHz.wav
2	109	2	2	1	C	1	1	789	1	Ⴉ	cut_g_stereo_44KHz.wav
2	110	1	2	0	C	2	1	1126	1	Ⴌ	cut_g_stereo_44KHz.wav
2	111	4	3	2	I	2	0	961	1	Ⴐ	cut_l_stereo_44KHz.wav
2	112	3	3	2	I	1	0	927	0	Ⴖ	cut_l_stereo_44KHz.wav
2	113	1	1	1	C	1	1	1123	1	Ⴌ	cut_w_stereo_44KHz.wav
2	114	4	4	2	I	2	0	867	0	Ⴐ	cut_h_stereo_44KHz.wav
2	115	3	4	2	I	1	0	1106	1	Ⴖ	cut_h_stereo_44KHz.wav
2	116	2	2	1	C	1	1	1355	1	Ⴉ	cut_g_stereo_44KHz.wav
2	117	4	3	2	I	2	0	944	1	Ⴐ	cut_l_stereo_44KHz.wav
2	118	1	2	0	C	2	1	761	1	Ⴌ	cut_g_stereo_44KHz.wav
2	119	3	3	2	I	2	0	830	1	Ⴖ	cut_l_stereo_44KHz.wav
2	120	2	1	0	C	2	1	1126	1	Ⴉ	cut_w_stereo_44KHz.wav
2	121	3	3	2	I	2	0	721	0	Ⴖ	cut_l_stereo_44KHz.wav
2	122	1	1	1	C	1	1	974	1	Ⴌ	cut_w_stereo_44KHz.wav
2	123	4	4	2	I	2	0	744	1	Ⴐ	cut_h_stereo_44KHz.wav
2	124	2	2	1	C	1	1	1298	1	Ⴉ	cut_g_stereo_44KHz.wav
2	125	4	3	2	I	2	0	858	0	Ⴐ	cut_l_stereo_44KHz.wav
2	126	1	2	0	C	2	1	790	1	Ⴌ	cut_g_stereo_44KHz.wav
2	127	3	4	2	I	2	0	811	0	Ⴖ	cut_h_stereo_44KHz.wav
2	128	2	1	0	C	1	0	1105	0	Ⴉ	cut_w_stereo_44KHz.wav
2	129	3	3	2	I	2	0	797	1	Ⴖ	cut_l_stereo_44KHz.wav
2	130	1	2	0	C	2	1	827	1	Ⴌ	cut_g_stereo_44KHz.wav
2	131	4	3	2	I	2	0	802	1	Ⴐ	cut_l_stereo_44KHz.wav
2	132	2	1	0	C	2	1	1118	1	Ⴉ	cut_w_stereo_44KHz.wav
2	133	3	4	2	I	1	0	754	1	Ⴖ	cut_h_stereo_44KHz.wav
2	134	4	4	2	I	2	0	814	0	Ⴐ	cut_h_stereo_44KHz.wav
2	135	2	2	1	C	1	1	971	1	Ⴉ	cut_g_stereo_44KHz.wav
2	136	1	1	1	C	2	0	1002	0	Ⴌ	cut_w_stereo_44KHz.wav
2	137	4	4	2	I	1	0	1016	1	Ⴐ	cut_h_stereo_44KHz.wav
2	138	1	1	1	C	1	1	1170	1	Ⴌ	cut_w_stereo_44KHz.wav
2	139	2	2	1	C	1	1	880	1	Ⴉ	cut_g_stereo_44KHz.wav
2	140	3	3	2	I	2	0	1011	1	Ⴖ	cut_l_stereo_44KHz.wav
2	141	4	3	2	I	2	0	1013	0	Ⴐ	cut_l_stereo_44KHz.wav
2	142	2	1	0	C	2	1	1192	1	Ⴉ	cut_w_stereo_44KHz.wav
2	143	1	2	0	C	1	0	1325	0	Ⴌ	cut_g_stereo_44KHz.wav
2	144	3	4	2	I	2	0	1199	0	Ⴖ	cut_h_stereo_44KHz.wav
2	145	1	1	1	C	1	1	1078	1	Ⴌ	cut_w_stereo_44KHz.wav
2	146	2	1	0	C	2	1	919	1	Ⴉ	cut_w_stereo_44KHz.wav
2	147	4	3	2	I	2	0	813	1	Ⴐ	cut_l_stereo_44KHz.wav
2	148	3	4	2	I	2	0	696	0	Ⴖ	cut_h_stereo_44KHz.wav
2	149	2	2	1	C	1	1	1216	1	Ⴉ	cut_g_stereo_44KHz.wav
2	150	4	4	2	I	2	0	962	0	Ⴐ	cut_h_stereo_44KHz.wav
2	151	3	3	2	I	2	0	873	0	Ⴖ	cut_l_stereo_44KHz.wav
2	152	1	2	0	C	2	1	1114	1	Ⴌ	cut_g_stereo_44KHz.wav
2	153	3	4	2	I	2	0	794	0	Ⴖ	cut_h_stereo_44KHz.wav
2	154	4	4	2	I	2	0	846	1	Ⴐ	cut_h_stereo_44KHz.wav
2	155	2	1	0	C	2	1	1147	1	Ⴉ	cut_w_stereo_44KHz.wav
2	156	1	2	0	C	2	1	958	1	Ⴌ	cut_g_stereo_44KHz.wav
2	157	2	2	1	C	1	1	713	1	Ⴉ	cut_g_stereo_44KHz.wav
2	158	4	3	2	I	2	0	713	1	Ⴐ	cut_l_stereo_44KHz.wav
2	159	1	1	1	C	1	1	927	1	Ⴌ	cut_w_stereo_44KHz.wav
2	160	3	3	2	I	2	0	722	1	Ⴖ	cut_l_stereo_44KHz.wav
2	161	4	4	2	I	2	0	959	0	Ⴐ	cut_h_stereo_44KHz.wav
2	162	3	3	2	I	2	0	712	1	Ⴖ	cut_l_stereo_44KHz.wav
2	163	2	2	1	C	1	1	874	1	Ⴉ	cut_g_stereo_44KHz.wav
2	164	1	1	1	C	1	1	968	1	Ⴌ	cut_w_stereo_44KHz.wav
2	165	2	1	0	C	1	0	1005	0	Ⴉ	cut_w_stereo_44KHz.wav
2	166	3	4	2	I	2	0	783	0	Ⴖ	cut_h_stereo_44KHz.wav
2	167	1	2	0	C	2	1	696	1	Ⴌ	cut_g_stereo_44KHz.wav
2	168	4	3	2	I	2	0	876	0	Ⴐ	cut_l_stereo_44KHz.wav
2	169	2	1	0	C	1	0	1075	0	Ⴉ	cut_w_stereo_44KHz.wav
2	170	3	3	2	I	2	0	885	0	Ⴖ	cut_l_stereo_44KHz.wav
2	171	1	2	0	C	2	1	707	1	Ⴌ	cut_g_stereo_44KHz.wav
2	172	4	3	2	I	2	0	951	1	Ⴐ	cut_l_stereo_44KHz.wav
2	173	2	2	1	C	1	1	1344	1	Ⴉ	cut_g_stereo_44KHz.wav
2	174	4	4	2	I	2	0	685	1	Ⴐ	cut_h_stereo_44KHz.wav
2	175	3	4	2	I	2	0	1070	0	Ⴖ	cut_h_stereo_44KHz.wav
2	176	1	1	1	C	1	1	951	1	Ⴌ	cut_w_stereo_44KHz.wav
2	177	4	4	2	I	2	0	934	1	Ⴐ	cut_h_stereo_44KHz.wav
2	178	3	3	2	I	2	0	836	0	Ⴖ	cut_l_stereo_44KHz.wav
2	179	2	1	0	C	2	1	877	1	Ⴉ	cut_w_stereo_44KHz.wav
2	180	1	1	1	C	1	1	1539	1	Ⴌ	cut_w_stereo_44KHz.wav
2	181	3	4	2	I	2	0	745	1	Ⴖ	cut_h_stereo_44KHz.wav
2	182	4	3	2	I	2	0	924	1	Ⴐ	cut_l_stereo_44KHz.wav
2	183	2	2	1	C	1	1	965	1	Ⴉ	cut_g_stereo_44KHz.wav
2	184	1	2	0	C	2	1	701	1	Ⴌ	cut_g_stereo_44KHz.wav
2	185	2	1	0	C	1	0	773	0	Ⴉ	cut_w_stereo_44KHz.wav
2	186	1	2	0	C	2	1	840	1	Ⴌ	cut_g_stereo_44KHz.wav
2	187	4	4	2	I	2	0	1088	0	Ⴐ	cut_h_stereo_44KHz.wav
2	188	3	3	2	I	2	0	962	1	Ⴖ	cut_l_stereo_44KHz.wav
2	189	1	1	1	C	1	1	1227	1	Ⴌ	cut_w_stereo_44KHz.wav
2	190	3	4	2	I	2	0	989	1	Ⴖ	cut_h_stereo_44KHz.wav
2	191	4	3	2	I	1	0	1100	0	Ⴐ	cut_l_stereo_44KHz.wav
2	192	2	2	1	C	1	1	879	1	Ⴉ	cut_g_stereo_44KHz.wav
2	193	3	3	2	I	2	0	800	0	Ⴖ	cut_l_stereo_44KHz.wav
2	194	4	3	2	I	2	0	1256	1	Ⴐ	cut_l_stereo_44KHz.wav
2	195	1	2	0	C	2	1	738	1	Ⴌ	cut_g_stereo_44KHz.wav
2	196	2	1	0	C	1	0	937	0	Ⴉ	cut_w_stereo_44KHz.wav
2	197	1	1	1	C	1	1	1036	1	Ⴌ	cut_w_stereo_44KHz.wav
2	198	3	4	2	I	2	0	650	1	Ⴖ	cut_h_stereo_44KHz.wav
2	199	4	4	2	I	2	0	897	1	Ⴐ	cut_h_stereo_44KHz.wav
2	200	2	2	1	C	1	1	1184	1	Ⴉ	cut_g_stereo_44KHz.wav
3	1	1	2	0	C	2	1	814	1	Ⴟ	cut_oei_stereo_44KHz.wav
3	2	4	3	2	I	2	0	810	0	Ⴃ	cut_f_stereo_44KHz.wav
3	3	2	1	0	C	2	1	745	1	Ⴁ	cut_r_stereo_44KHz.wav
3	4	3	3	2	I	1	0	843	1	Ⴡ	cut_f_stereo_44KHz.wav
3	5	4	4	2	I	2	0	802	1	Ⴃ	cut_j_stereo_44KHz.wav
3	6	1	1	1	C	1	1	959	1	Ⴟ	cut_r_stereo_44KHz.wav
3	7	2	2	1	C	1	1	784	1	Ⴁ	cut_oei_stereo_44KHz.wav
3	8	3	4	2	I	2	0	981	0	Ⴡ	cut_j_stereo_44KHz.wav
3	9	4	3	2	I	2	0	983	0	Ⴃ	cut_f_stereo_44KHz.wav
3	10	1	1	1	C	1	1	841	1	Ⴟ	cut_r_stereo_44KHz.wav
3	11	2	1	0	C	1	0	877	0	Ⴁ	cut_r_stereo_44KHz.wav
3	12	3	4	2	I	1	0	1112	1	Ⴡ	cut_j_stereo_44KHz.wav
3	13	4	4	2	I	2	0	457	1	Ⴃ	cut_j_stereo_44KHz.wav
3	14	1	2	0	C	2	1	656	1	Ⴟ	cut_oei_stereo_44KHz.wav
3	15	2	2	1	C	1	1	769	1	Ⴁ	cut_oei_stereo_44KHz.wav
3	16	3	3	2	I	2	0	846	0	Ⴡ	cut_f_stereo_44KHz.wav
3	17	1	2	0	C	2	1	750	1	Ⴟ	cut_oei_stereo_44KHz.wav
3	18	2	2	1	C	1	1	897	1	Ⴁ	cut_oei_stereo_44KHz.wav
3	19	3	4	2	I	1	0	1141	1	Ⴡ	cut_j_stereo_44KHz.wav
3	20	4	4	2	I	2	0	607	0	Ⴃ	cut_j_stereo_44KHz.wav
3	21	1	1	1	C	1	1	1218	1	Ⴟ	cut_r_stereo_44KHz.wav
3	22	4	3	2	I	1	0	932	0	Ⴃ	cut_f_stereo_44KHz.wav
3	23	2	1	0	C	2	1	1561	1	Ⴁ	cut_r_stereo_44KHz.wav
3	24	3	3	2	I	2	0	975	0	Ⴡ	cut_f_stereo_44KHz.wav
3	25	2	2	1	C	1	1	879	1	Ⴁ	cut_oei_stereo_44KHz.wav
3	26	4	3	2	I	2	0	1036	0	Ⴃ	cut_f_stereo_44KHz.wav
3	27	3	4	2	I	1	0	1296	0	Ⴡ	cut_j_stereo_44KHz.wav
3	28	1	2	0	C	2	1	640	1	Ⴟ	cut_oei_stereo_44KHz.wav
3	29	4	4	2	I	2	0	892	1	Ⴃ	cut_j_stereo_44KHz.wav
3	30	1	1	1	C	1	1	956	1	Ⴟ	cut_r_stereo_44KHz.wav
3	31	3	3	2	I	2	0	877	0	Ⴡ	cut_f_stereo_44KHz.wav
3	32	2	1	0	C	2	1	1058	1	Ⴁ	cut_r_stereo_44KHz.wav
3	33	4	4	2	I	2	0	727	0	Ⴃ	cut_j_stereo_44KHz.wav
3	34	1	2	0	C	2	1	792	1	Ⴟ	cut_oei_stereo_44KHz.wav
3	35	2	2	1	C	1	1	731	1	Ⴁ	cut_oei_stereo_44KHz.wav
3	36	3	4	2	I	2	0	823	0	Ⴡ	cut_j_stereo_44KHz.wav
3	37	1	1	1	C	1	1	956	1	Ⴟ	cut_r_stereo_44KHz.wav
3	38	3	3	2	I	1	0	750	0	Ⴡ	cut_f_stereo_44KHz.wav
3	39	4	3	2	I	2	0	804	0	Ⴃ	cut_f_stereo_44KHz.wav
3	40	2	1	0	C	2	1	1186	1	Ⴁ	cut_r_stereo_44KHz.wav
3	41	4	4	2	I	2	0	791	1	Ⴃ	cut_j_stereo_44KHz.wav
3	42	1	1	1	C	1	1	1238	1	Ⴟ	cut_r_stereo_44KHz.wav
3	43	3	3	2	I	2	0	888	0	Ⴡ	cut_f_stereo_44KHz.wav
3	44	2	2	1	C	2	0	702	0	Ⴁ	cut_oei_stereo_44KHz.wav
3	45	1	2	0	C	2	1	693	1	Ⴟ	cut_oei_stereo_44KHz.wav
3	46	3	4	2	I	1	0	1149	1	Ⴡ	cut_j_stereo_44KHz.wav
3	47	2	1	0	C	2	1	1030	1	Ⴁ	cut_r_stereo_44KHz.wav
3	48	4	3	2	I	2	0	1291	0	Ⴃ	cut_f_stereo_44KHz.wav
3	49	3	4	2	I	2	0	966	0	Ⴡ	cut_j_stereo_44KHz.wav
3	50	4	3	2	I	1	0	1222	0	Ⴃ	cut_f_stereo_44KHz.wav
3	51	1	2	0	C	2	1	779	1	Ⴟ	cut_oei_stereo_44KHz.wav
3	52	2	1	0	C	2	1	1069	1	Ⴁ	cut_r_stereo_44KHz.wav
3	53	1	1	1	C	1	1	893	1	Ⴟ	cut_r_stereo_44KHz.wav
3	54	3	3	2	I	2	0	861	1	Ⴡ	cut_f_stereo_44KHz.wav
3	55	2	2	1	C	1	1	962	1	Ⴁ	cut_oei_stereo_44KHz.wav
3	56	4	4	2	I	2	0	834	0	Ⴃ	cut_j_stereo_44KHz.wav
3	57	1	2	0	C	2	1	758	1	Ⴟ	cut_oei_stereo_44KHz.wav
3	58	3	4	2	I	1	0	1186	1	Ⴡ	cut_j_stereo_44KHz.wav
3	59	4	3	2	I	2	0	1012	1	Ⴃ	cut_f_stereo_44KHz.wav
3	60	2	2	1	C	1	1	1861	1	Ⴁ	cut_oei_stereo_44KHz.wav
3	61	1	1	1	C	1	1	802	1	Ⴟ	cut_r_stereo_44KHz.wav
3	62	4	4	2	I	2	0	808	0	Ⴃ	cut_j_stereo_44KHz.wav
3	63	2	1	0	C	1	0	1210	0	Ⴁ	cut_r_stereo_44KHz.wav
3	64	3	3	2	I	2	0	788	0	Ⴡ	cut_f_stereo_44KHz.wav
3	65	1	2	0	C	2	1	605	1	Ⴟ	cut_oei_stereo_44KHz.wav
3	66	3	4	2	I	1	0	1077	1	Ⴡ	cut_j_stereo_44KHz.wav
3	67	4	4	2	I	2	0	970	1	Ⴃ	cut_j_stereo_44KHz.wav
3	68	2	1	0	C	2	1	1390	1	Ⴁ	cut_r_stereo_44KHz.wav
3	69	3	3	2	I	2	0	938	1	Ⴡ	cut_f_stereo_44KHz.wav
3	70	2	2	1	C	1	1	729	1	Ⴁ	cut_oei_stereo_44KHz.wav
3	71	1	1	1	C	1	1	1204	1	Ⴟ	cut_r_stereo_44KHz.wav
3	72	4	3	2	I	2	0	981	0	Ⴃ	cut_f_stereo_44KHz.wav
3	73	1	2	0	C	2	1	681	1	Ⴟ	cut_oei_stereo_44KHz.wav
3	74	4	4	2	I	1	0	969	0	Ⴃ	cut_j_stereo_44KHz.wav
3	75	3	3	2	I	2	0	766	1	Ⴡ	cut_f_stereo_44KHz.wav
3	76	2	2	1	C	1	1	864	1	Ⴁ	cut_oei_stereo_44KHz.wav
3	77	4	3	2	I	2	0	1430	0	Ⴃ	cut_f_stereo_44KHz.wav
3	78	1	1	1	C	1	1	900	1	Ⴟ	cut_r_stereo_44KHz.wav
3	79	2	1	0	C	1	0	1137	0	Ⴁ	cut_r_stereo_44KHz.wav
3	80	3	4	2	I	2	0	887	0	Ⴡ	cut_j_stereo_44KHz.wav
3	81	1	2	0	C	2	1	1529	1	Ⴟ	cut_oei_stereo_44KHz.wav
3	82	3	3	2	I	2	0	1403	1	Ⴡ	cut_f_stereo_44KHz.wav
3	83	4	4	2	I	2	0	907	1	Ⴃ	cut_j_stereo_44KHz.wav
3	84	2	1	0	C	2	1	1196	1	Ⴁ	cut_r_stereo_44KHz.wav
3	85	1	1	1	C	1	1	1944	1	Ⴟ	cut_r_stereo_44KHz.wav
3	86	3	4	2	I	2	0	870	1	Ⴡ	cut_j_stereo_44KHz.wav
3	87	4	3	2	I	1	0	985	0	Ⴃ	cut_f_stereo_44KHz.wav
3	88	2	2	1	C	1	1	1080	1	Ⴁ	cut_oei_stereo_44KHz.wav
3	89	1	1	1	C	1	1	776	1	Ⴟ	cut_r_stereo_44KHz.wav
3	90	2	1	0	C	2	1	989	1	Ⴁ	cut_r_stereo_44KHz.wav
3	91	4	3	2	I	2	0	1095	1	Ⴃ	cut_f_stereo_44KHz.wav
3	92	3	3	2	I	2	0	1125	1	Ⴡ	cut_f_stereo_44KHz.wav
3	93	4	4	2	I	2	0	1076	1	Ⴃ	cut_j_stereo_44KHz.wav
3	94	2	2	1	C	1	1	967	1	Ⴁ	cut_oei_stereo_44KHz.wav
3	95	3	4	2	I	2	0	1027	1	Ⴡ	cut_j_stereo_44KHz.wav
3	96	1	2	0	C	2	1	812	1	Ⴟ	cut_oei_stereo_44KHz.wav
3	97	3	4	2	I	2	0	840	1	Ⴡ	cut_j_stereo_44KHz.wav
3	98	4	3	2	I	1	0	1050	1	Ⴃ	cut_f_stereo_44KHz.wav
3	99	1	1	1	C	2	0	1131	0	Ⴟ	cut_r_stereo_44KHz.wav
3	100	2	1	0	C	2	1	823	1	Ⴁ	cut_r_stereo_44KHz.wav
3	101	3	3	2	I	2	0	1054	0	Ⴡ	cut_f_stereo_44KHz.wav
3	102	1	2	0	C	2	1	1346	1	Ⴟ	cut_oei_stereo_44KHz.wav
3	103	2	2	1	C	2	0	1055	0	Ⴁ	cut_oei_stereo_44KHz.wav
3	104	4	4	2	I	2	0	964	1	Ⴃ	cut_j_stereo_44KHz.wav
3	105	3	3	2	I	2	0	980	1	Ⴡ	cut_f_stereo_44KHz.wav
3	106	1	2	0	C	2	1	635	1	Ⴟ	cut_oei_stereo_44KHz.wav
3	107	4	4	2	I	2	0	996	1	Ⴃ	cut_j_stereo_44KHz.wav
3	108	2	2	1	C	1	1	1320	1	Ⴁ	cut_oei_stereo_44KHz.wav
3	109	4	3	2	I	2	0	770	0	Ⴃ	cut_f_stereo_44KHz.wav
3	110	3	4	2	I	2	0	1030	1	Ⴡ	cut_j_stereo_44KHz.wav
3	111	2	1	0	C	2	1	1063	1	Ⴁ	cut_r_stereo_44KHz.wav
3	112	1	1	1	C	2	0	1432	0	Ⴟ	cut_r_stereo_44KHz.wav
3	113	4	3	2	I	2	0	1392	0	Ⴃ	cut_f_stereo_44KHz.wav
3	114	2	2	1	C	1	1	1084	1	Ⴁ	cut_oei_stereo_44KHz.wav
3	115	1	1	1	C	1	1	769	1	Ⴟ	cut_r_stereo_44KHz.wav
3	116	3	3	2	I	2	0	867	0	Ⴡ	cut_f_stereo_44KHz.wav
3	117	2	1	0	C	2	1	1323	1	Ⴁ	cut_r_stereo_44KHz.wav
3	118	4	4	2	I	2	0	903	1	Ⴃ	cut_j_stereo_44KHz.wav
3	119	1	2	0	C	2	1	740	1	Ⴟ	cut_oei_stereo_44KHz.wav
3	120	3	4	2	I	2	0	929	1	Ⴡ	cut_j_stereo_44KHz.wav
3	121	4	3	2	I	1	0	1583	1	Ⴃ	cut_f_stereo_44KHz.wav
3	122	2	1	0	C	2	1	904	1	Ⴁ	cut_r_stereo_44KHz.wav
3	123	1	2	0	C	2	1	856	1	Ⴟ	cut_oei_stereo_44KHz.wav
3	124	3	3	2	I	2	0	1065	0	Ⴡ	cut_f_stereo_44KHz.wav
3	125	2	2	1	C	1	1	1182	1	Ⴁ	cut_oei_stereo_44KHz.wav
3	126	3	4	2	I	2	0	1344	0	Ⴡ	cut_j_stereo_44KHz.wav
3	127	1	1	1	C	1	1	1228	1	Ⴟ	cut_r_stereo_44KHz.wav
3	128	4	4	2	I	2	0	729	1	Ⴃ	cut_j_stereo_44KHz.wav
3	129	3	3	2	I	2	0	719	1	Ⴡ	cut_f_stereo_44KHz.wav
3	130	4	3	2	I	1	0	856	0	Ⴃ	cut_f_stereo_44KHz.wav
3	131	2	2	1	C	2	0	786	0	Ⴁ	cut_oei_stereo_44KHz.wav
3	132	1	1	1	C	1	1	834	1	Ⴟ	cut_r_stereo_44KHz.wav
3	133	4	4	2	I	2	0	955	0	Ⴃ	cut_j_stereo_44KHz.wav
3	134	1	2	0	C	2	1	885	1	Ⴟ	cut_oei_stereo_44KHz.wav
3	135	3	4	2	I	2	0	1492	0	Ⴡ	cut_j_stereo_44KHz.wav
3	136	2	1	0	C	1	0	1016	0	Ⴁ	cut_r_stereo_44KHz.wav
3	137	1	2	0	C	2	1	636	1	Ⴟ	cut_oei_stereo_44KHz.wav
3	138	2	2	1	C	1	1	1052	1	Ⴁ	cut_oei_stereo_44KHz.wav
3	139	3	4	2	I	2	0	783	0	Ⴡ	cut_j_stereo_44KHz.wav
3	140	4	4	2	I	2	0	678	0	Ⴃ	cut_j_stereo_44KHz.wav
3	141	2	1	0	C	2	1	988	1	Ⴁ	cut_r_stereo_44KHz.wav
3	142	3	3	2	I	1	0	812	1	Ⴡ	cut_f_stereo_44KHz.wav
3	143	4	3	2	I	2	0	698	0	Ⴃ	cut_f_stereo_44KHz.wav
3	144	1	1	1	C	1	1	1079	1	Ⴟ	cut_r_stereo_44KHz.wav
3	145	4	3	2	I	2	0	910	0	Ⴃ	cut_f_stereo_44KHz.wav
3	146	2	1	0	C	2	1	1105	1	Ⴁ	cut_r_stereo_44KHz.wav
3	147	1	2	0	C	2	1	624	1	Ⴟ	cut_oei_stereo_44KHz.wav
3	148	3	3	2	I	2	0	791	0	Ⴡ	cut_f_stereo_44KHz.wav
3	149	2	2	1	C	1	1	750	1	Ⴁ	cut_oei_stereo_44KHz.wav
3	150	3	4	2	I	2	0	1006	0	Ⴡ	cut_j_stereo_44KHz.wav
3	151	1	1	1	C	1	1	773	1	Ⴟ	cut_r_stereo_44KHz.wav
3	152	4	4	2	I	2	0	833	1	Ⴃ	cut_j_stereo_44KHz.wav
3	153	2	2	1	C	1	1	972	1	Ⴁ	cut_oei_stereo_44KHz.wav
3	154	4	3	2	I	1	0	737	1	Ⴃ	cut_f_stereo_44KHz.wav
3	155	3	4	2	I	2	0	686	1	Ⴡ	cut_j_stereo_44KHz.wav
3	156	1	2	0	C	2	1	665	1	Ⴟ	cut_oei_stereo_44KHz.wav
3	157	3	3	2	I	2	0	736	0	Ⴡ	cut_f_stereo_44KHz.wav
3	158	1	1	1	C	1	1	875	1	Ⴟ	cut_r_stereo_44KHz.wav
3	159	2	1	0	C	2	1	683	1	Ⴁ	cut_r_stereo_44KHz.wav
3	160	4	4	2	I	2	0	800	1	Ⴃ	cut_j_stereo_44KHz.wav
3	161	2	2	1	C	1	1	1151	1	Ⴁ	cut_oei_stereo_44KHz.wav
3	162	3	4	2	I	2	0	672	1	Ⴡ	cut_j_stereo_44KHz.wav
3	163	4	4	2	I	2	0	750	1	Ⴃ	cut_j_stereo_44KHz.wav
3	164	1	2	0	C	1	0	873	0	Ⴟ	cut_oei_stereo_44KHz.wav
3	165	4	3	2	I	2	0	1165	0	Ⴃ	cut_f_stereo_44KHz.wav
3	166	2	1	0	C	2	1	1414	1	Ⴁ	cut_r_stereo_44KHz.wav
3	167	3	3	2	I	2	0	968	1	Ⴡ	cut_f_stereo_44KHz.wav
3	168	1	1	1	C	1	1	949	1	Ⴟ	cut_r_stereo_44KHz.wav
3	169	2	1	0	C	2	1	778	1	Ⴁ	cut_r_stereo_44KHz.wav
3	170	3	3	2	I	2	0	809	0	Ⴡ	cut_f_stereo_44KHz.wav
3	171	4	3	2	I	1	0	843	0	Ⴃ	cut_f_stereo_44KHz.wav
3	172	1	1	1	C	1	1	1052	1	Ⴟ	cut_r_stereo_44KHz.wav
3	173	3	4	2	I	2	0	812	1	Ⴡ	cut_j_stereo_44KHz.wav
3	174	1	2	0	C	2	1	1159	1	Ⴟ	cut_oei_stereo_44KHz.wav
3	175	2	2	1	C	1	1	946	1	Ⴁ	cut_oei_stereo_44KHz.wav
3	176	4	4	2	I	1	0	1950	0	Ⴃ	cut_j_stereo_44KHz.wav
3	177	1	1	1	C	1	1	1187	1	Ⴟ	cut_r_stereo_44KHz.wav
3	178	2	1	0	C	2	1	1066	1	Ⴁ	cut_r_stereo_44KHz.wav
3	179	3	4	2	I	2	0	751	0	Ⴡ	cut_j_stereo_44KHz.wav
3	180	4	3	2	I	2	0	910	1	Ⴃ	cut_f_stereo_44KHz.wav
3	181	2	2	1	C	1	1	1331	1	Ⴁ	cut_oei_stereo_44KHz.wav
3	182	4	4	2	I	2	0	707	1	Ⴃ	cut_j_stereo_44KHz.wav
3	183	3	3	2	I	2	0	786	1	Ⴡ	cut_f_stereo_44KHz.wav
3	184	1	2	0	C	2	1	751	1	Ⴟ	cut_oei_stereo_44KHz.wav
3	185	4	4	2	I	2	0	857	1	Ⴃ	cut_j_stereo_44KHz.wav
3	186	2	2	1	C	1	1	1109	1	Ⴁ	cut_oei_stereo_44KHz.wav
3	187	1	1	1	C	1	1	833	1	Ⴟ	cut_r_stereo_44KHz.wav
3	188	3	4	2	I	2	0	683	0	Ⴡ	cut_j_stereo_44KHz.wav
3	189	1	2	0	C	2	1	610	1	Ⴟ	cut_oei_stereo_44KHz.wav
3	190	2	1	0	C	2	1	1008	1	Ⴁ	cut_r_stereo_44KHz.wav
3	191	4	3	2	I	1	0	989	1	Ⴃ	cut_f_stereo_44KHz.wav
3	192	3	3	2	I	2	0	741	1	Ⴡ	cut_f_stereo_44KHz.wav
3	193	1	2	0	C	2	1	761	1	Ⴟ	cut_oei_stereo_44KHz.wav
3	194	2	1	0	C	2	1	838	1	Ⴁ	cut_r_stereo_44KHz.wav
3	195	4	3	2	I	1	0	902	1	Ⴃ	cut_f_stereo_44KHz.wav
3	196	3	4	2	I	2	0	1084	0	Ⴡ	cut_j_stereo_44KHz.wav
3	197	4	4	2	I	2	0	794	1	Ⴃ	cut_j_stereo_44KHz.wav
3	198	3	3	2	I	2	0	737	0	Ⴡ	cut_f_stereo_44KHz.wav
3	199	1	1	1	C	2	0	1141	0	Ⴟ	cut_r_stereo_44KHz.wav
3	200	2	2	1	C	1	1	806	1	Ⴁ	cut_oei_stereo_44KHz.wav
4	1	1	2	0	C	2	1	912	1	Ⴇ	cut_s_stereo_44KHz.wav
4	2	4	3	2	I	1	0	734	1	Ⴊ	cut_ui_stereo_44KHz.wav
4	3	3	4	2	I	2	0	762	1	Ⴜ	cut_ei_stereo_44KHz.wav
4	4	2	2	1	C	1	1	969	1	Ⴂ	cut_s_stereo_44KHz.wav
4	5	4	4	2	I	2	0	854	1	Ⴊ	cut_ei_stereo_44KHz.wav
4	6	3	3	2	I	2	0	889	1	Ⴜ	cut_ui_stereo_44KHz.wav
4	7	2	1	0	C	2	1	1029	1	Ⴂ	cut_n_stereo_44KHz.wav
4	8	1	1	1	C	1	1	838	1	Ⴇ	cut_n_stereo_44KHz.wav
4	9	2	2	1	C	1	1	1059	1	Ⴂ	cut_s_stereo_44KHz.wav
4	10	4	3	2	I	2	0	1132	0	Ⴊ	cut_ui_stereo_44KHz.wav
4	11	1	2	0	C	2	1	933	1	Ⴇ	cut_s_stereo_44KHz.wav
4	12	3	3	2	I	2	0	966	0	Ⴜ	cut_ui_stereo_44KHz.wav
4	13	1	1	1	C	1	1	922	1	Ⴇ	cut_n_stereo_44KHz.wav
4	14	3	4	2	I	2	0	757	1	Ⴜ	cut_ei_stereo_44KHz.wav
4	15	2	1	0	C	2	1	955	1	Ⴂ	cut_n_stereo_44KHz.wav
4	16	4	4	2	I	1	0	746	1	Ⴊ	cut_ei_stereo_44KHz.wav
4	17	1	2	0	C	2	1	831	1	Ⴇ	cut_s_stereo_44KHz.wav
4	18	2	2	1	C	1	1	912	1	Ⴂ	cut_s_stereo_44KHz.wav
4	19	3	3	2	I	2	0	897	1	Ⴜ	cut_ui_stereo_44KHz.wav
4	20	4	3	2	I	1	0	908	0	Ⴊ	cut_ui_stereo_44KHz.wav
4	21	2	1	0	C	2	1	872	1	Ⴂ	cut_n_stereo_44KHz.wav
4	22	4	4	2	I	2	0	1342	1	Ⴊ	cut_ei_stereo_44KHz.wav
4	23	1	1	1	C	1	1	858	1	Ⴇ	cut_n_stereo_44KHz.wav
4	24	3	4	2	I	2	0	1005	0	Ⴜ	cut_ei_stereo_44KHz.wav
4	25	2	2	1	C	1	1	803	1	Ⴂ	cut_s_stereo_44KHz.wav
4	26	1	1	1	C	2	0	1016	0	Ⴇ	cut_n_stereo_44KHz.wav
4	27	3	3	2	I	2	0	924	1	Ⴜ	cut_ui_stereo_44KHz.wav
4	28	4	4	2	I	2	0	890	0	Ⴊ	cut_ei_stereo_44KHz.wav
4	29	2	1	0	C	2	1	817	1	Ⴂ	cut_n_stereo_44KHz.wav
4	30	1	2	0	C	1	0	1036	0	Ⴇ	cut_s_stereo_44KHz.wav
4	31	3	4	2	I	2	0	672	0	Ⴜ	cut_ei_stereo_44KHz.wav
4	32	4	3	2	I	1	0	915	1	Ⴊ	cut_ui_stereo_44KHz.wav
4	33	1	2	0	C	2	1	688	1	Ⴇ	cut_s_stereo_44KHz.wav
4	34	2	1	0	C	2	1	544	1	Ⴂ	cut_n_stereo_44KHz.wav
4	35	3	4	2	I	2	0	630	0	Ⴜ	cut_ei_stereo_44KHz.wav
4	36	4	3	2	I	2	0	764	1	Ⴊ	cut_ui_stereo_44KHz.wav
4	37	2	2	1	C	1	1	956	1	Ⴂ	cut_s_stereo_44KHz.wav
4	38	3	3	2	I	2	0	780	1	Ⴜ	cut_ui_stereo_44KHz.wav
4	39	1	1	1	C	1	1	971	1	Ⴇ	cut_n_stereo_44KHz.wav
4	40	4	4	2	I	2	0	893	1	Ⴊ	cut_ei_stereo_44KHz.wav
4	41	2	1	0	C	2	1	751	1	Ⴂ	cut_n_stereo_44KHz.wav
4	42	4	3	2	I	1	0	1014	1	Ⴊ	cut_ui_stereo_44KHz.wav
4	43	3	4	2	I	2	0	850	0	Ⴜ	cut_ei_stereo_44KHz.wav
4	44	1	2	0	C	2	1	1028	1	Ⴇ	cut_s_stereo_44KHz.wav
4	45	4	4	2	I	2	0	801	1	Ⴊ	cut_ei_stereo_44KHz.wav
4	46	2	2	1	C	1	1	919	1	Ⴂ	cut_s_stereo_44KHz.wav
4	47	1	1	1	C	2	0	981	0	Ⴇ	cut_n_stereo_44KHz.wav
4	48	3	3	2	I	1	0	971	1	Ⴜ	cut_ui_stereo_44KHz.wav
4	49	2	1	0	C	2	1	714	1	Ⴂ	cut_n_stereo_44KHz.wav
4	50	3	4	2	I	2	0	977	1	Ⴜ	cut_ei_stereo_44KHz.wav
4	51	4	3	2	I	2	0	633	0	Ⴊ	cut_ui_stereo_44KHz.wav
4	52	1	1	1	C	2	0	937	0	Ⴇ	cut_n_stereo_44KHz.wav
4	53	2	2	1	C	1	1	845	1	Ⴂ	cut_s_stereo_44KHz.wav
4	54	4	4	2	I	1	0	941	0	Ⴊ	cut_ei_stereo_44KHz.wav
4	55	3	3	2	I	2	0	646	1	Ⴜ	cut_ui_stereo_44KHz.wav
4	56	1	2	0	C	2	1	1142	1	Ⴇ	cut_s_stereo_44KHz.wav
4	57	3	4	2	I	2	0	755	0	Ⴜ	cut_ei_stereo_44KHz.wav
4	58	1	2	0	C	2	1	1122	1	Ⴇ	cut_s_stereo_44KHz.wav
4	59	4	3	2	I	2	0	1013	0	Ⴊ	cut_ui_stereo_44KHz.wav
4	60	2	1	0	C	2	1	819	1	Ⴂ	cut_n_stereo_44KHz.wav
4	61	3	3	2	I	2	0	899	0	Ⴜ	cut_ui_stereo_44KHz.wav
4	62	4	4	2	I	2	0	839	0	Ⴊ	cut_ei_stereo_44KHz.wav
4	63	2	2	1	C	2	0	780	0	Ⴂ	cut_s_stereo_44KHz.wav
4	64	1	1	1	C	1	1	860	1	Ⴇ	cut_n_stereo_44KHz.wav
4	65	2	2	1	C	1	1	740	1	Ⴂ	cut_s_stereo_44KHz.wav
4	66	4	3	2	I	2	0	748	0	Ⴊ	cut_ui_stereo_44KHz.wav
4	67	1	2	0	C	2	1	1078	1	Ⴇ	cut_s_stereo_44KHz.wav
4	68	3	3	2	I	2	0	932	1	Ⴜ	cut_ui_stereo_44KHz.wav
4	69	4	4	2	I	1	0	854	1	Ⴊ	cut_ei_stereo_44KHz.wav
4	70	2	1	0	C	2	1	625	1	Ⴂ	cut_n_stereo_44KHz.wav
4	71	1	1	1	C	1	1	937	1	Ⴇ	cut_n_stereo_44KHz.wav
4	72	3	4	2	I	2	0	842	1	Ⴜ	cut_ei_stereo_44KHz.wav
4	73	4	3	2	I	1	0	753	0	Ⴊ	cut_ui_stereo_44KHz.wav
4	74	3	3	2	I	2	0	654	1	Ⴜ	cut_ui_stereo_44KHz.wav
4	75	1	1	1	C	2	0	928	0	Ⴇ	cut_n_stereo_44KHz.wav
4	76	2	2	1	C	1	1	1557	1	Ⴂ	cut_s_stereo_44KHz.wav
4	77	1	2	0	C	2	1	1158	1	Ⴇ	cut_s_stereo_44KHz.wav
4	78	4	4	2	I	2	0	863	1	Ⴊ	cut_ei_stereo_44KHz.wav
4	79	2	1	0	C	2	1	530	1	Ⴂ	cut_n_stereo_44KHz.wav
4	80	3	4	2	I	2	0	802	0	Ⴜ	cut_ei_stereo_44KHz.wav
4	81	4	4	2	I	2	0	616	0	Ⴊ	cut_ei_stereo_44KHz.wav
4	82	3	3	2	I	2	0	849	1	Ⴜ	cut_ui_stereo_44KHz.wav
4	83	2	2	1	C	1	1	1283	1	Ⴂ	cut_s_stereo_44KHz.wav
4	84	1	2	0	C	2	1	676	1	Ⴇ	cut_s_stereo_44KHz.wav
4	85	2	1	0	C	2	1	1054	1	Ⴂ	cut_n_stereo_44KHz.wav
4	86	1	1	1	C	1	1	740	1	Ⴇ	cut_n_stereo_44KHz.wav
4	87	3	4	2	I	2	0	766	1	Ⴜ	cut_ei_stereo_44KHz.wav
4	88	4	3	2	I	2	0	662	0	Ⴊ	cut_ui_stereo_44KHz.wav
4	89	3	3	2	I	2	0	1007	1	Ⴜ	cut_ui_stereo_44KHz.wav
4	90	2	2	1	C	1	1	921	1	Ⴂ	cut_s_stereo_44KHz.wav
4	91	1	1	1	C	1	1	933	1	Ⴇ	cut_n_stereo_44KHz.wav
4	92	4	3	2	I	2	0	701	1	Ⴊ	cut_ui_stereo_44KHz.wav
4	93	1	2	0	C	2	1	1362	1	Ⴇ	cut_s_stereo_44KHz.wav
4	94	3	4	2	I	2	0	680	1	Ⴜ	cut_ei_stereo_44KHz.wav
4	95	2	1	0	C	2	1	990	1	Ⴂ	cut_n_stereo_44KHz.wav
4	96	4	4	2	I	2	0	734	0	Ⴊ	cut_ei_stereo_44KHz.wav
4	97	1	2	0	C	2	1	1115	1	Ⴇ	cut_s_stereo_44KHz.wav
4	98	2	2	1	C	1	1	770	1	Ⴂ	cut_s_stereo_44KHz.wav
4	99	4	4	2	I	2	0	685	1	Ⴊ	cut_ei_stereo_44KHz.wav
4	100	3	4	2	I	2	0	665	0	Ⴜ	cut_ei_stereo_44KHz.wav
4	101	1	1	1	C	2	0	891	0	Ⴇ	cut_n_stereo_44KHz.wav
4	102	3	3	2	I	2	0	766	0	Ⴜ	cut_ui_stereo_44KHz.wav
4	103	4	3	2	I	2	0	1203	0	Ⴊ	cut_ui_stereo_44KHz.wav
4	104	2	1	0	C	2	1	807	1	Ⴂ	cut_n_stereo_44KHz.wav
4	105	3	3	2	I	2	0	771	1	Ⴜ	cut_ui_stereo_44KHz.wav
4	106	1	1	1	C	1	1	1147	1	Ⴇ	cut_n_stereo_44KHz.wav
4	107	4	4	2	I	2	0	816	0	Ⴊ	cut_ei_stereo_44KHz.wav
4	108	2	2	1	C	1	1	1020	1	Ⴂ	cut_s_stereo_44KHz.wav
4	109	1	2	0	C	2	1	849	1	Ⴇ	cut_s_stereo_44KHz.wav
4	110	3	4	2	I	2	0	718	0	Ⴜ	cut_ei_stereo_44KHz.wav
4	111	4	3	2	I	2	0	618	1	Ⴊ	cut_ui_stereo_44KHz.wav
4	112	2	1	0	C	2	1	1282	1	Ⴂ	cut_n_stereo_44KHz.wav
4	113	4	3	2	I	2	0	672	0	Ⴊ	cut_ui_stereo_44KHz.wav
4	114	3	4	2	I	2	0	710	0	Ⴜ	cut_ei_stereo_44KHz.wav
4	115	1	1	1	C	1	1	858	1	Ⴇ	cut_n_stereo_44KHz.wav
4	116	2	1	0	C	2	1	614	1	Ⴂ	cut_n_stereo_44KHz.wav
4	117	3	3	2	I	2	0	745	1	Ⴜ	cut_ui_stereo_44KHz.wav
4	118	1	2	0	C	2	1	1178	1	Ⴇ	cut_s_stereo_44KHz.wav
4	119	4	4	2	I	2	0	1002	0	Ⴊ	cut_ei_stereo_44KHz.wav
4	120	2	2	1	C	1	1	890	1	Ⴂ	cut_s_stereo_44KHz.wav
4	121	4	3	2	I	2	0	781	1	Ⴊ	cut_ui_stereo_44KHz.wav
4	122	2	1	0	C	2	1	802	1	Ⴂ	cut_n_stereo_44KHz.wav
4	123	3	3	2	I	2	0	804	0	Ⴜ	cut_ui_stereo_44KHz.wav
4	124	1	2	0	C	2	1	944	1	Ⴇ	cut_s_stereo_44KHz.wav
4	125	2	2	1	C	2	0	987	0	Ⴂ	cut_s_stereo_44KHz.wav
4	126	1	1	1	C	1	1	1569	1	Ⴇ	cut_n_stereo_44KHz.wav
4	127	3	4	2	I	2	0	726	1	Ⴜ	cut_ei_stereo_44KHz.wav
4	128	4	4	2	I	2	0	678	1	Ⴊ	cut_ei_stereo_44KHz.wav
4	129	2	2	1	C	1	1	899	1	Ⴂ	cut_s_stereo_44KHz.wav
4	130	1	2	0	C	2	1	767	1	Ⴇ	cut_s_stereo_44KHz.wav
4	131	3	4	2	I	2	0	720	0	Ⴜ	cut_ei_stereo_44KHz.wav
4	132	4	3	2	I	2	0	692	1	Ⴊ	cut_ui_stereo_44KHz.wav
4	133	2	1	0	C	1	0	819	0	Ⴂ	cut_n_stereo_44KHz.wav
4	134	4	4	2	I	2	0	685	1	Ⴊ	cut_ei_stereo_44KHz.wav
4	135	3	3	2	I	2	0	723	1	Ⴜ	cut_ui_stereo_44KHz.wav
4	136	1	1	1	C	1	1	1108	1	Ⴇ	cut_n_stereo_44KHz.wav
4	137	4	4	2	I	2	0	801	0	Ⴊ	cut_ei_stereo_44KHz.wav
4	138	2	1	0	C	2	1	996	1	Ⴂ	cut_n_stereo_44KHz.wav
4	139	3	4	2	I	1	0	1128	0	Ⴜ	cut_ei_stereo_44KHz.wav
4	140	1	2	0	C	2	1	1457	1	Ⴇ	cut_s_stereo_44KHz.wav
4	141	2	2	1	C	1	1	860	1	Ⴂ	cut_s_stereo_44KHz.wav
4	142	3	3	2	I	1	0	644	0	Ⴜ	cut_ui_stereo_44KHz.wav
4	143	1	1	1	C	2	0	1188	0	Ⴇ	cut_n_stereo_44KHz.wav
4	144	4	3	2	I	2	0	1047	0	Ⴊ	cut_ui_stereo_44KHz.wav
4	145	3	3	2	I	2	0	1216	0	Ⴜ	cut_ui_stereo_44KHz.wav
4	146	1	2	0	C	2	1	1175	1	Ⴇ	cut_s_stereo_44KHz.wav
4	147	4	3	2	I	2	0	741	1	Ⴊ	cut_ui_stereo_44KHz.wav
4	148	2	1	0	C	2	1	668	1	Ⴂ	cut_n_stereo_44KHz.wav
4	149	4	4	2	I	2	0	737	1	Ⴊ	cut_ei_stereo_44KHz.wav
4	150	1	1	1	C	1	1	1266	1	Ⴇ	cut_n_stereo_44KHz.wav
4	151	3	4	2	I	2	0	713	1	Ⴜ	cut_ei_stereo_44KHz.wav
4	152	2	2	1	C	2	0	536	0	Ⴂ	cut_s_stereo_44KHz.wav
4	153	3	4	2	I	2	0	801	0	Ⴜ	cut_ei_stereo_44KHz.wav
4	154	4	4	2	I	2	0	756	0	Ⴊ	cut_ei_stereo_44KHz.wav
4	155	1	2	0	C	2	1	1340	1	Ⴇ	cut_s_stereo_44KHz.wav
4	156	2	1	0	C	2	1	1349	1	Ⴂ	cut_n_stereo_44KHz.wav
4	157	4	3	2	I	2	0	1566	0	Ⴊ	cut_ui_stereo_44KHz.wav
4	158	1	1	1	C	1	1	1556	1	Ⴇ	cut_n_stereo_44KHz.wav
4	159	3	3	2	I	2	0	794	0	Ⴜ	cut_ui_stereo_44KHz.wav
4	160	2	2	1	C	1	1	879	1	Ⴂ	cut_s_stereo_44KHz.wav
4	161	4	3	2	I	2	0	799	0	Ⴊ	cut_ui_stereo_44KHz.wav
4	162	1	1	1	C	1	1	1078	1	Ⴇ	cut_n_stereo_44KHz.wav
4	163	2	1	0	C	2	1	1047	1	Ⴂ	cut_n_stereo_44KHz.wav
4	164	3	4	2	I	2	0	728	0	Ⴜ	cut_ei_stereo_44KHz.wav
4	165	4	4	2	I	1	0	917	1	Ⴊ	cut_ei_stereo_44KHz.wav
4	166	2	2	1	C	1	1	1184	1	Ⴂ	cut_s_stereo_44KHz.wav
4	167	3	3	2	I	1	0	1232	0	Ⴜ	cut_ui_stereo_44KHz.wav
4	168	1	2	0	C	2	1	1453	1	Ⴇ	cut_s_stereo_44KHz.wav
4	169	3	3	2	I	2	0	913	1	Ⴜ	cut_ui_stereo_44KHz.wav
4	170	4	3	2	I	2	0	749	1	Ⴊ	cut_ui_stereo_44KHz.wav
4	171	2	1	0	C	2	1	1033	1	Ⴂ	cut_n_stereo_44KHz.wav
4	172	1	2	0	C	2	1	1281	1	Ⴇ	cut_s_stereo_44KHz.wav
4	173	2	2	1	C	1	1	1577	1	Ⴂ	cut_s_stereo_44KHz.wav
4	174	1	1	1	C	1	1	1092	1	Ⴇ	cut_n_stereo_44KHz.wav
4	175	4	4	2	I	2	0	814	0	Ⴊ	cut_ei_stereo_44KHz.wav
4	176	3	4	2	I	2	0	1138	1	Ⴜ	cut_ei_stereo_44KHz.wav
4	177	1	2	0	C	2	1	1085	1	Ⴇ	cut_s_stereo_44KHz.wav
4	178	4	3	2	I	2	0	935	1	Ⴊ	cut_ui_stereo_44KHz.wav
4	179	2	2	1	C	1	1	934	1	Ⴂ	cut_s_stereo_44KHz.wav
4	180	3	3	2	I	2	0	787	0	Ⴜ	cut_ui_stereo_44KHz.wav
4	181	2	1	0	C	2	1	914	1	Ⴂ	cut_n_stereo_44KHz.wav
4	182	4	4	2	I	2	0	841	1	Ⴊ	cut_ei_stereo_44KHz.wav
4	183	3	4	2	I	2	0	571	1	Ⴜ	cut_ei_stereo_44KHz.wav
4	184	1	1	1	C	1	1	1162	1	Ⴇ	cut_n_stereo_44KHz.wav
4	185	2	1	0	C	2	1	862	1	Ⴂ	cut_n_stereo_44KHz.wav
4	186	3	3	2	I	2	0	1073	0	Ⴜ	cut_ui_stereo_44KHz.wav
4	187	1	1	1	C	1	1	1590	1	Ⴇ	cut_n_stereo_44KHz.wav
4	188	4	3	2	I	2	0	1015	0	Ⴊ	cut_ui_stereo_44KHz.wav
4	189	2	2	1	C	1	1	1909	1	Ⴂ	cut_s_stereo_44KHz.wav
4	190	3	4	2	I	2	0	843	0	Ⴜ	cut_ei_stereo_44KHz.wav
4	191	1	2	0	C	2	1	1428	1	Ⴇ	cut_s_stereo_44KHz.wav
4	192	4	4	2	I	2	0	939	0	Ⴊ	cut_ei_stereo_44KHz.wav
4	193	1	2	0	C	2	1	1043	1	Ⴇ	cut_s_stereo_44KHz.wav
4	194	2	1	0	C	2	1	749	1	Ⴂ	cut_n_stereo_44KHz.wav
4	195	3	4	2	I	1	0	1049	0	Ⴜ	cut_ei_stereo_44KHz.wav
4	196	4	4	2	I	2	0	604	0	Ⴊ	cut_ei_stereo_44KHz.wav
4	197	3	3	2	I	2	0	809	1	Ⴜ	cut_ui_stereo_44KHz.wav
4	198	2	2	1	C	1	1	882	1	Ⴂ	cut_s_stereo_44KHz.wav
4	199	4	3	2	I	2	0	799	1	Ⴊ	cut_ui_stereo_44KHz.wav
4	200	1	1	1	C	1	1	1097	1	Ⴇ	cut_n_stereo_44KHz.wav
