block	trial	Vstim	Astim	match	C/I	resp	result	RT	fb	V-file	A-file
RL

0	1	1	2	0	C	2	1	975	1	poli_8sides 22_whiteLine3.jpg	Practice4_b26_stereo_44KHz.wav
0	2	1	1	1	C	1	1	998	1	poli_8sides 22_whiteLine3.jpg	Practice3_b26_cut1_stereo_44KHz.wav
0	3	2	4	0	C	1	0	943	0	poli_8sides 23_whiteLine3.jpg	Practice1_b27_cut1_stereo_44KHz.wav
0	4	2	3	1	C	1	1	854	1	poli_8sides 23_whiteLine3.jpg	Practice2_b27_cut2_stereo_44KHz.wav
0	5	2	4	0	C	2	1	798	1	poli_8sides 23_whiteLine3.jpg	Practice1_b27_cut1_stereo_44KHz.wav
0	6	1	2	0	C	1	0	608	0	poli_8sides 22_whiteLine3.jpg	Practice4_b26_stereo_44KHz.wav
0	7	1	1	1	C	1	1	1503	1	poli_8sides 22_whiteLine3.jpg	Practice3_b26_cut1_stereo_44KHz.wav
0	8	2	3	1	C	1	1	853	1	poli_8sides 23_whiteLine3.jpg	Practice2_b27_cut2_stereo_44KHz.wav
0	9	2	3	1	C	1	1	875	1	poli_8sides 23_whiteLine3.jpg	Practice2_b27_cut2_stereo_44KHz.wav
0	10	1	1	1	C	1	1	953	1	poli_8sides 22_whiteLine3.jpg	Practice3_b26_cut1_stereo_44KHz.wav
0	11	2	4	0	C	2	1	921	1	poli_8sides 23_whiteLine3.jpg	Practice1_b27_cut1_stereo_44KHz.wav
0	12	1	2	0	C	2	1	745	1	poli_8sides 22_whiteLine3.jpg	Practice4_b26_stereo_44KHz.wav
0	13	2	3	1	C	1	1	1023	1	poli_8sides 23_whiteLine3.jpg	Practice2_b27_cut2_stereo_44KHz.wav
0	14	1	2	0	C	2	1	1057	1	poli_8sides 22_whiteLine3.jpg	Practice4_b26_stereo_44KHz.wav
0	15	1	1	1	C	1	1	934	1	poli_8sides 22_whiteLine3.jpg	Practice3_b26_cut1_stereo_44KHz.wav
0	16	2	4	0	C	2	1	594	1	poli_8sides 23_whiteLine3.jpg	Practice1_b27_cut1_stereo_44KHz.wav
0	17	1	2	0	C	2	1	576	1	poli_8sides 22_whiteLine3.jpg	Practice4_b26_stereo_44KHz.wav
0	18	1	1	1	C	1	1	768	1	poli_8sides 22_whiteLine3.jpg	Practice3_b26_cut1_stereo_44KHz.wav
0	19	2	3	1	C	1	1	1044	1	poli_8sides 23_whiteLine3.jpg	Practice2_b27_cut2_stereo_44KHz.wav
0	20	2	4	0	C	2	1	632	1	poli_8sides 23_whiteLine3.jpg	Practice1_b27_cut1_stereo_44KHz.wav
0	21	1	2	0	C	2	1	1152	1	poli_8sides 22_whiteLine3.jpg	Practice4_b26_stereo_44KHz.wav
0	22	1	1	1	C	1	1	1240	1	poli_8sides 22_whiteLine3.jpg	Practice3_b26_cut1_stereo_44KHz.wav
0	23	2	3	1	C	1	1	974	1	poli_8sides 23_whiteLine3.jpg	Practice2_b27_cut2_stereo_44KHz.wav
0	24	2	4	0	C	2	1	582	1	poli_8sides 23_whiteLine3.jpg	Practice1_b27_cut1_stereo_44KHz.wav
0	25	1	1	1	C	1	1	1260	1	poli_8sides 22_whiteLine3.jpg	Practice3_b26_cut1_stereo_44KHz.wav
0	26	2	3	1	C	1	1	992	1	poli_8sides 23_whiteLine3.jpg	Practice2_b27_cut2_stereo_44KHz.wav
0	27	1	2	0	C	2	1	1205	1	poli_8sides 22_whiteLine3.jpg	Practice4_b26_stereo_44KHz.wav
0	28	2	4	0	C	2	1	545	1	poli_8sides 23_whiteLine3.jpg	Practice1_b27_cut1_stereo_44KHz.wav
0	29	1	2	0	C	2	1	941	1	poli_8sides 22_whiteLine3.jpg	Practice4_b26_stereo_44KHz.wav
0	30	1	1	1	C	1	1	742	1	poli_8sides 22_whiteLine3.jpg	Practice3_b26_cut1_stereo_44KHz.wav
avg_resp = 919
1	1	3	3	2	I	2	0	990	1	poli_8sides 9_whiteLine3.jpg	Medium_e21_stereo_44KHz.wav
1	2	2	1	0	C	2	1	1112	1	poli_8sides 5_whiteLine3.jpg	MediumLong_b10_cut2_L_stereo_44KHz.wav
1	3	4	4	2	I	1	0	1071	1	poli_8sides 13_whiteLine3.jpg	MediumLong_e19_stereo_44KHz.wav
1	4	1	2	0	C	2	1	826	1	poli_8sides 12_whiteLine3.jpg	MediumLong_e17_cut2_stereo_44KHz.wav
1	5	4	3	2	I	2	0	892	0	poli_8sides 13_whiteLine3.jpg	Medium_e21_stereo_44KHz.wav
1	6	2	2	1	C	1	1	1040	1	poli_8sides 5_whiteLine3.jpg	MediumLong_e17_cut2_stereo_44KHz.wav
1	7	3	4	2	I	2	0	931	0	poli_8sides 9_whiteLine3.jpg	MediumLong_e19_stereo_44KHz.wav
1	8	1	1	1	C	2	0	1122	0	poli_8sides 12_whiteLine3.jpg	MediumLong_b10_cut2_L_stereo_44KHz.wav
1	9	2	1	0	C	2	1	898	1	poli_8sides 5_whiteLine3.jpg	MediumLong_b10_cut2_L_stereo_44KHz.wav
1	10	1	2	0	C	1	0	1178	0	poli_8sides 12_whiteLine3.jpg	MediumLong_e17_cut2_stereo_44KHz.wav
1	11	4	3	2	I	2	0	924	1	poli_8sides 13_whiteLine3.jpg	Medium_e21_stereo_44KHz.wav
1	12	3	3	2	I	1	0	874	0	poli_8sides 9_whiteLine3.jpg	Medium_e21_stereo_44KHz.wav
1	13	2	2	1	C	2	0	1117	0	poli_8sides 5_whiteLine3.jpg	MediumLong_e17_cut2_stereo_44KHz.wav
1	14	4	4	2	I	1	0	1167	0	poli_8sides 13_whiteLine3.jpg	MediumLong_e19_stereo_44KHz.wav
1	15	1	1	1	C	2	0	1015	0	poli_8sides 12_whiteLine3.jpg	MediumLong_b10_cut2_L_stereo_44KHz.wav
1	16	3	4	2	I	1	0	1232	0	poli_8sides 9_whiteLine3.jpg	MediumLong_e19_stereo_44KHz.wav
1	17	1	1	1	C	2	0	780	0	poli_8sides 12_whiteLine3.jpg	MediumLong_b10_cut2_L_stereo_44KHz.wav
1	18	3	3	2	I	2	0	896	0	poli_8sides 9_whiteLine3.jpg	Medium_e21_stereo_44KHz.wav
1	19	2	1	0	C	2	1	847	1	poli_8sides 5_whiteLine3.jpg	MediumLong_b10_cut2_L_stereo_44KHz.wav
1	20	4	3	2	I	2	0	1044	1	poli_8sides 13_whiteLine3.jpg	Medium_e21_stereo_44KHz.wav
1	21	2	2	1	C	1	1	1081	1	poli_8sides 5_whiteLine3.jpg	MediumLong_e17_cut2_stereo_44KHz.wav
1	22	3	4	2	I	1	0	1098	0	poli_8sides 9_whiteLine3.jpg	MediumLong_e19_stereo_44KHz.wav
1	23	4	4	2	I	1	0	1048	1	poli_8sides 13_whiteLine3.jpg	MediumLong_e19_stereo_44KHz.wav
1	24	1	2	0	C	2	1	957	1	poli_8sides 12_whiteLine3.jpg	MediumLong_e17_cut2_stereo_44KHz.wav
1	25	3	4	2	I	1	0	906	0	poli_8sides 9_whiteLine3.jpg	MediumLong_e19_stereo_44KHz.wav
1	26	2	1	0	C	2	1	1129	1	poli_8sides 5_whiteLine3.jpg	MediumLong_b10_cut2_L_stereo_44KHz.wav
1	27	4	3	2	I	1	0	1117	1	poli_8sides 13_whiteLine3.jpg	Medium_e21_stereo_44KHz.wav
1	28	1	2	0	C	2	1	917	1	poli_8sides 12_whiteLine3.jpg	MediumLong_e17_cut2_stereo_44KHz.wav
1	29	2	2	1	C	1	1	1068	1	poli_8sides 5_whiteLine3.jpg	MediumLong_e17_cut2_stereo_44KHz.wav
1	30	1	1	1	C	2	0	913	0	poli_8sides 12_whiteLine3.jpg	MediumLong_b10_cut2_L_stereo_44KHz.wav
1	31	3	3	2	I	1	0	1272	0	poli_8sides 9_whiteLine3.jpg	Medium_e21_stereo_44KHz.wav
1	32	4	4	2	I	2	0	758	1	poli_8sides 13_whiteLine3.jpg	MediumLong_e19_stereo_44KHz.wav
1	33	1	1	1	C	2	0	802	0	poli_8sides 12_whiteLine3.jpg	MediumLong_b10_cut2_L_stereo_44KHz.wav
1	34	2	2	1	C	1	1	1242	1	poli_8sides 5_whiteLine3.jpg	MediumLong_e17_cut2_stereo_44KHz.wav
1	35	4	4	2	I	2	0	822	0	poli_8sides 13_whiteLine3.jpg	MediumLong_e19_stereo_44KHz.wav
1	36	3	3	2	I	2	0	820	1	poli_8sides 9_whiteLine3.jpg	Medium_e21_stereo_44KHz.wav
1	37	1	2	0	C	2	1	1302	1	poli_8sides 12_whiteLine3.jpg	MediumLong_e17_cut2_stereo_44KHz.wav
1	38	3	4	2	I	2	0	801	1	poli_8sides 9_whiteLine3.jpg	MediumLong_e19_stereo_44KHz.wav
1	39	2	1	0	C	2	1	845	1	poli_8sides 5_whiteLine3.jpg	MediumLong_b10_cut2_L_stereo_44KHz.wav
1	40	4	3	2	I	2	0	1184	1	poli_8sides 13_whiteLine3.jpg	Medium_e21_stereo_44KHz.wav
1	41	3	3	2	I	2	0	1857	1	poli_8sides 9_whiteLine3.jpg	Medium_e21_stereo_44KHz.wav
1	42	2	2	1	C	2	0	1640	0	poli_8sides 5_whiteLine3.jpg	MediumLong_e17_cut2_stereo_44KHz.wav
1	43	1	1	1	C	0	0	0	0	poli_8sides 12_whiteLine3.jpg	MediumLong_b10_cut2_L_stereo_44KHz.wav
1	44	4	4	2	I	2	0	581	1	poli_8sides 13_whiteLine3.jpg	MediumLong_e19_stereo_44KHz.wav
1	45	1	2	0	C	2	1	530	1	poli_8sides 12_whiteLine3.jpg	MediumLong_e17_cut2_stereo_44KHz.wav
1	46	2	1	0	C	2	1	725	1	poli_8sides 5_whiteLine3.jpg	MediumLong_b10_cut2_L_stereo_44KHz.wav
1	47	4	3	2	I	1	0	1335	1	poli_8sides 13_whiteLine3.jpg	Medium_e21_stereo_44KHz.wav
1	48	3	4	2	I	2	0	730	1	poli_8sides 9_whiteLine3.jpg	MediumLong_e19_stereo_44KHz.wav
1	49	1	1	1	C	2	0	825	0	poli_8sides 12_whiteLine3.jpg	MediumLong_b10_cut2_L_stereo_44KHz.wav
1	50	4	4	2	I	2	0	1091	0	poli_8sides 13_whiteLine3.jpg	MediumLong_e19_stereo_44KHz.wav
1	51	2	2	1	C	2	0	975	0	poli_8sides 5_whiteLine3.jpg	MediumLong_e17_cut2_stereo_44KHz.wav
1	52	3	4	2	I	2	0	940	0	poli_8sides 9_whiteLine3.jpg	MediumLong_e19_stereo_44KHz.wav
1	53	2	1	0	C	2	1	1064	1	poli_8sides 5_whiteLine3.jpg	MediumLong_b10_cut2_L_stereo_44KHz.wav
1	54	4	3	2	I	2	0	920	1	poli_8sides 13_whiteLine3.jpg	Medium_e21_stereo_44KHz.wav
1	55	1	2	0	C	1	0	880	0	poli_8sides 12_whiteLine3.jpg	MediumLong_e17_cut2_stereo_44KHz.wav
1	56	3	3	2	I	1	0	1105	1	poli_8sides 9_whiteLine3.jpg	Medium_e21_stereo_44KHz.wav
1	57	4	3	2	I	2	0	862	1	poli_8sides 13_whiteLine3.jpg	Medium_e21_stereo_44KHz.wav
1	58	1	1	1	C	2	0	868	0	poli_8sides 12_whiteLine3.jpg	MediumLong_b10_cut2_L_stereo_44KHz.wav
1	59	3	3	2	I	2	0	1040	1	poli_8sides 9_whiteLine3.jpg	Medium_e21_stereo_44KHz.wav
1	60	2	2	1	C	2	0	1105	0	poli_8sides 5_whiteLine3.jpg	MediumLong_e17_cut2_stereo_44KHz.wav
1	61	1	2	0	C	1	0	941	0	poli_8sides 12_whiteLine3.jpg	MediumLong_e17_cut2_stereo_44KHz.wav
1	62	2	1	0	C	2	1	946	1	poli_8sides 5_whiteLine3.jpg	MediumLong_b10_cut2_L_stereo_44KHz.wav
1	63	4	4	2	I	1	0	1321	0	poli_8sides 13_whiteLine3.jpg	MediumLong_e19_stereo_44KHz.wav
1	64	3	4	2	I	2	0	959	0	poli_8sides 9_whiteLine3.jpg	MediumLong_e19_stereo_44KHz.wav
1	65	1	1	1	C	2	0	904	0	poli_8sides 12_whiteLine3.jpg	MediumLong_b10_cut2_L_stereo_44KHz.wav
1	66	3	4	2	I	1	0	1024	1	poli_8sides 9_whiteLine3.jpg	MediumLong_e19_stereo_44KHz.wav
1	67	2	2	1	C	2	0	732	0	poli_8sides 5_whiteLine3.jpg	MediumLong_e17_cut2_stereo_44KHz.wav
1	68	4	4	2	I	2	0	1372	1	poli_8sides 13_whiteLine3.jpg	MediumLong_e19_stereo_44KHz.wav
1	69	3	3	2	I	2	0	801	1	poli_8sides 9_whiteLine3.jpg	Medium_e21_stereo_44KHz.wav
1	70	1	2	0	C	2	1	1072	1	poli_8sides 12_whiteLine3.jpg	MediumLong_e17_cut2_stereo_44KHz.wav
1	71	4	3	2	I	2	0	1085	0	poli_8sides 13_whiteLine3.jpg	Medium_e21_stereo_44KHz.wav
1	72	2	1	0	C	2	1	928	1	poli_8sides 5_whiteLine3.jpg	MediumLong_b10_cut2_L_stereo_44KHz.wav
1	73	3	4	2	I	2	0	1138	0	poli_8sides 9_whiteLine3.jpg	MediumLong_e19_stereo_44KHz.wav
1	74	4	3	2	I	2	0	1525	1	poli_8sides 13_whiteLine3.jpg	Medium_e21_stereo_44KHz.wav
1	75	1	1	1	C	2	0	935	0	poli_8sides 12_whiteLine3.jpg	MediumLong_b10_cut2_L_stereo_44KHz.wav
1	76	2	2	1	C	2	0	775	0	poli_8sides 5_whiteLine3.jpg	MediumLong_e17_cut2_stereo_44KHz.wav
1	77	1	2	0	C	2	1	1422	1	poli_8sides 12_whiteLine3.jpg	MediumLong_e17_cut2_stereo_44KHz.wav
1	78	4	4	2	I	1	0	1337	1	poli_8sides 13_whiteLine3.jpg	MediumLong_e19_stereo_44KHz.wav
1	79	2	1	0	C	2	1	876	1	poli_8sides 5_whiteLine3.jpg	MediumLong_b10_cut2_L_stereo_44KHz.wav
1	80	3	3	2	I	2	0	1096	1	poli_8sides 9_whiteLine3.jpg	Medium_e21_stereo_44KHz.wav
1	81	2	1	0	C	2	1	835	1	poli_8sides 5_whiteLine3.jpg	MediumLong_b10_cut2_L_stereo_44KHz.wav
1	82	3	3	2	I	2	0	1081	0	poli_8sides 9_whiteLine3.jpg	Medium_e21_stereo_44KHz.wav
1	83	1	1	1	C	1	1	1141	1	poli_8sides 12_whiteLine3.jpg	MediumLong_b10_cut2_L_stereo_44KHz.wav
1	84	4	4	2	I	2	0	844	0	poli_8sides 13_whiteLine3.jpg	MediumLong_e19_stereo_44KHz.wav
1	85	3	4	2	I	2	0	1037	1	poli_8sides 9_whiteLine3.jpg	MediumLong_e19_stereo_44KHz.wav
1	86	1	2	0	C	2	1	1484	1	poli_8sides 12_whiteLine3.jpg	MediumLong_e17_cut2_stereo_44KHz.wav
1	87	4	3	2	I	2	0	1059	1	poli_8sides 13_whiteLine3.jpg	Medium_e21_stereo_44KHz.wav
1	88	2	2	1	C	2	0	1202	0	poli_8sides 5_whiteLine3.jpg	MediumLong_e17_cut2_stereo_44KHz.wav
1	89	3	3	2	I	2	0	809	0	poli_8sides 9_whiteLine3.jpg	Medium_e21_stereo_44KHz.wav
1	90	1	2	0	C	2	1	1170	1	poli_8sides 12_whiteLine3.jpg	MediumLong_e17_cut2_stereo_44KHz.wav
1	91	2	1	0	C	2	1	1250	1	poli_8sides 5_whiteLine3.jpg	MediumLong_b10_cut2_L_stereo_44KHz.wav
1	92	4	4	2	I	1	0	1210	1	poli_8sides 13_whiteLine3.jpg	MediumLong_e19_stereo_44KHz.wav
1	93	2	2	1	C	2	0	988	0	poli_8sides 5_whiteLine3.jpg	MediumLong_e17_cut2_stereo_44KHz.wav
1	94	4	3	2	I	2	0	869	0	poli_8sides 13_whiteLine3.jpg	Medium_e21_stereo_44KHz.wav
1	95	3	4	2	I	2	0	984	0	poli_8sides 9_whiteLine3.jpg	MediumLong_e19_stereo_44KHz.wav
1	96	1	1	1	C	1	1	1414	1	poli_8sides 12_whiteLine3.jpg	MediumLong_b10_cut2_L_stereo_44KHz.wav
1	97	4	3	2	I	2	0	782	0	poli_8sides 13_whiteLine3.jpg	Medium_e21_stereo_44KHz.wav
1	98	3	3	2	I	2	0	1429	0	poli_8sides 9_whiteLine3.jpg	Medium_e21_stereo_44KHz.wav
1	99	1	1	1	C	2	0	989	0	poli_8sides 12_whiteLine3.jpg	MediumLong_b10_cut2_L_stereo_44KHz.wav
1	100	2	2	1	C	1	1	1016	1	poli_8sides 5_whiteLine3.jpg	MediumLong_e17_cut2_stereo_44KHz.wav
1	101	4	4	2	I	1	0	1124	1	poli_8sides 13_whiteLine3.jpg	MediumLong_e19_stereo_44KHz.wav
1	102	3	4	2	I	1	0	1151	1	poli_8sides 9_whiteLine3.jpg	MediumLong_e19_stereo_44KHz.wav
1	103	1	2	0	C	2	1	1001	1	poli_8sides 12_whiteLine3.jpg	MediumLong_e17_cut2_stereo_44KHz.wav
1	104	2	1	0	C	2	1	920	1	poli_8sides 5_whiteLine3.jpg	MediumLong_b10_cut2_L_stereo_44KHz.wav
1	105	4	3	2	I	2	0	1006	0	poli_8sides 13_whiteLine3.jpg	Medium_e21_stereo_44KHz.wav
1	106	1	1	1	C	1	1	1891	1	poli_8sides 12_whiteLine3.jpg	MediumLong_b10_cut2_L_stereo_44KHz.wav
1	107	3	4	2	I	1	0	1119	0	poli_8sides 9_whiteLine3.jpg	MediumLong_e19_stereo_44KHz.wav
1	108	2	1	0	C	2	1	1118	1	poli_8sides 5_whiteLine3.jpg	MediumLong_b10_cut2_L_stereo_44KHz.wav
1	109	1	2	0	C	2	1	1513	1	poli_8sides 12_whiteLine3.jpg	MediumLong_e17_cut2_stereo_44KHz.wav
1	110	2	2	1	C	2	0	852	0	poli_8sides 5_whiteLine3.jpg	MediumLong_e17_cut2_stereo_44KHz.wav
1	111	3	3	2	I	2	0	968	0	poli_8sides 9_whiteLine3.jpg	Medium_e21_stereo_44KHz.wav
1	112	4	4	2	I	1	0	1192	1	poli_8sides 13_whiteLine3.jpg	MediumLong_e19_stereo_44KHz.wav
1	113	3	4	2	I	2	0	960	0	poli_8sides 9_whiteLine3.jpg	MediumLong_e19_stereo_44KHz.wav
1	114	1	2	0	C	2	1	1011	1	poli_8sides 12_whiteLine3.jpg	MediumLong_e17_cut2_stereo_44KHz.wav
1	115	4	3	2	I	2	0	1215	0	poli_8sides 13_whiteLine3.jpg	Medium_e21_stereo_44KHz.wav
1	116	2	1	0	C	2	1	1101	1	poli_8sides 5_whiteLine3.jpg	MediumLong_b10_cut2_L_stereo_44KHz.wav
1	117	1	1	1	C	1	1	1052	1	poli_8sides 12_whiteLine3.jpg	MediumLong_b10_cut2_L_stereo_44KHz.wav
1	118	2	2	1	C	2	0	1140	0	poli_8sides 5_whiteLine3.jpg	MediumLong_e17_cut2_stereo_44KHz.wav
1	119	4	4	2	I	1	0	920	0	poli_8sides 13_whiteLine3.jpg	MediumLong_e19_stereo_44KHz.wav
1	120	3	3	2	I	2	0	947	1	poli_8sides 9_whiteLine3.jpg	Medium_e21_stereo_44KHz.wav
1	121	1	2	0	C	0	0	0	0	poli_8sides 12_whiteLine3.jpg	MediumLong_e17_cut2_stereo_44KHz.wav
1	122	4	3	2	I	2	0	803	0	poli_8sides 13_whiteLine3.jpg	Medium_e21_stereo_44KHz.wav
1	123	2	2	1	C	2	0	660	0	poli_8sides 5_whiteLine3.jpg	MediumLong_e17_cut2_stereo_44KHz.wav
1	124	3	3	2	I	2	0	915	1	poli_8sides 9_whiteLine3.jpg	Medium_e21_stereo_44KHz.wav
1	125	4	4	2	I	1	0	708	0	poli_8sides 13_whiteLine3.jpg	MediumLong_e19_stereo_44KHz.wav
1	126	3	4	2	I	2	0	1114	0	poli_8sides 9_whiteLine3.jpg	MediumLong_e19_stereo_44KHz.wav
1	127	2	1	0	C	2	1	778	1	poli_8sides 5_whiteLine3.jpg	MediumLong_b10_cut2_L_stereo_44KHz.wav
1	128	1	1	1	C	1	1	838	1	poli_8sides 12_whiteLine3.jpg	MediumLong_b10_cut2_L_stereo_44KHz.wav
1	129	3	4	2	I	2	0	711	1	poli_8sides 9_whiteLine3.jpg	MediumLong_e19_stereo_44KHz.wav
1	130	1	1	1	C	1	1	1062	1	poli_8sides 12_whiteLine3.jpg	MediumLong_b10_cut2_L_stereo_44KHz.wav
1	131	4	3	2	I	2	0	920	1	poli_8sides 13_whiteLine3.jpg	Medium_e21_stereo_44KHz.wav
1	132	2	1	0	C	2	1	889	1	poli_8sides 5_whiteLine3.jpg	MediumLong_b10_cut2_L_stereo_44KHz.wav
1	133	4	4	2	I	1	0	1088	0	poli_8sides 13_whiteLine3.jpg	MediumLong_e19_stereo_44KHz.wav
1	134	3	3	2	I	2	0	885	1	poli_8sides 9_whiteLine3.jpg	Medium_e21_stereo_44KHz.wav
1	135	2	2	1	C	2	0	894	0	poli_8sides 5_whiteLine3.jpg	MediumLong_e17_cut2_stereo_44KHz.wav
1	136	1	2	0	C	1	0	965	0	poli_8sides 12_whiteLine3.jpg	MediumLong_e17_cut2_stereo_44KHz.wav
1	137	4	3	2	I	0	0	0	0	poli_8sides 13_whiteLine3.jpg	Medium_e21_stereo_44KHz.wav
1	138	2	2	1	C	2	0	715	0	poli_8sides 5_whiteLine3.jpg	MediumLong_e17_cut2_stereo_44KHz.wav
1	139	3	3	2	I	2	0	687	1	poli_8sides 9_whiteLine3.jpg	Medium_e21_stereo_44KHz.wav
1	140	1	2	0	C	2	1	827	1	poli_8sides 12_whiteLine3.jpg	MediumLong_e17_cut2_stereo_44KHz.wav
1	141	3	4	2	I	2	0	810	1	poli_8sides 9_whiteLine3.jpg	MediumLong_e19_stereo_44KHz.wav
1	142	1	1	1	C	1	1	944	1	poli_8sides 12_whiteLine3.jpg	MediumLong_b10_cut2_L_stereo_44KHz.wav
1	143	2	1	0	C	2	1	816	1	poli_8sides 5_whiteLine3.jpg	MediumLong_b10_cut2_L_stereo_44KHz.wav
1	144	4	4	2	I	2	0	952	1	poli_8sides 13_whiteLine3.jpg	MediumLong_e19_stereo_44KHz.wav
1	145	1	2	0	C	2	1	747	1	poli_8sides 12_whiteLine3.jpg	MediumLong_e17_cut2_stereo_44KHz.wav
1	146	3	4	2	I	1	0	779	0	poli_8sides 9_whiteLine3.jpg	MediumLong_e19_stereo_44KHz.wav
1	147	4	3	2	I	2	0	714	0	poli_8sides 13_whiteLine3.jpg	Medium_e21_stereo_44KHz.wav
1	148	2	1	0	C	2	1	1063	1	poli_8sides 5_whiteLine3.jpg	MediumLong_b10_cut2_L_stereo_44KHz.wav
1	149	3	3	2	I	2	0	883	1	poli_8sides 9_whiteLine3.jpg	Medium_e21_stereo_44KHz.wav
1	150	1	1	1	C	2	0	1046	0	poli_8sides 12_whiteLine3.jpg	MediumLong_b10_cut2_L_stereo_44KHz.wav
1	151	4	4	2	I	2	0	1475	0	poli_8sides 13_whiteLine3.jpg	MediumLong_e19_stereo_44KHz.wav
1	152	2	2	1	C	2	0	868	0	poli_8sides 5_whiteLine3.jpg	MediumLong_e17_cut2_stereo_44KHz.wav
1	153	1	2	0	C	1	0	1060	0	poli_8sides 12_whiteLine3.jpg	MediumLong_e17_cut2_stereo_44KHz.wav
1	154	2	2	1	C	2	0	1350	0	poli_8sides 5_whiteLine3.jpg	MediumLong_e17_cut2_stereo_44KHz.wav
1	155	3	3	2	I	2	0	1166	0	poli_8sides 9_whiteLine3.jpg	Medium_e21_stereo_44KHz.wav
1	156	4	4	2	I	1	0	1287	0	poli_8sides 13_whiteLine3.jpg	MediumLong_e19_stereo_44KHz.wav
1	157	3	4	2	I	2	0	817	0	poli_8sides 9_whiteLine3.jpg	MediumLong_e19_stereo_44KHz.wav
1	158	4	3	2	I	2	0	799	1	poli_8sides 13_whiteLine3.jpg	Medium_e21_stereo_44KHz.wav
1	159	1	1	1	C	1	1	970	1	poli_8sides 12_whiteLine3.jpg	MediumLong_b10_cut2_L_stereo_44KHz.wav
1	160	2	1	0	C	2	1	607	1	poli_8sides 5_whiteLine3.jpg	MediumLong_b10_cut2_L_stereo_44KHz.wav
1	161	4	3	2	I	2	0	715	0	poli_8sides 13_whiteLine3.jpg	Medium_e21_stereo_44KHz.wav
1	162	3	3	2	I	2	0	754	1	poli_8sides 9_whiteLine3.jpg	Medium_e21_stereo_44KHz.wav
1	163	1	2	0	C	1	0	1674	0	poli_8sides 12_whiteLine3.jpg	MediumLong_e17_cut2_stereo_44KHz.wav
1	164	2	2	1	C	2	0	648	0	poli_8sides 5_whiteLine3.jpg	MediumLong_e17_cut2_stereo_44KHz.wav
1	165	4	4	2	I	1	0	855	0	poli_8sides 13_whiteLine3.jpg	MediumLong_e19_stereo_44KHz.wav
1	166	3	4	2	I	1	0	856	0	poli_8sides 9_whiteLine3.jpg	MediumLong_e19_stereo_44KHz.wav
1	167	1	1	1	C	2	0	1015	0	poli_8sides 12_whiteLine3.jpg	MediumLong_b10_cut2_L_stereo_44KHz.wav
1	168	2	1	0	C	2	1	771	1	poli_8sides 5_whiteLine3.jpg	MediumLong_b10_cut2_L_stereo_44KHz.wav
1	169	4	4	2	I	1	0	1067	0	poli_8sides 13_whiteLine3.jpg	MediumLong_e19_stereo_44KHz.wav
1	170	1	2	0	C	2	1	1608	1	poli_8sides 12_whiteLine3.jpg	MediumLong_e17_cut2_stereo_44KHz.wav
1	171	3	4	2	I	1	0	715	1	poli_8sides 9_whiteLine3.jpg	MediumLong_e19_stereo_44KHz.wav
1	172	2	1	0	C	2	1	777	1	poli_8sides 5_whiteLine3.jpg	MediumLong_b10_cut2_L_stereo_44KHz.wav
1	173	3	3	2	I	1	0	713	1	poli_8sides 9_whiteLine3.jpg	Medium_e21_stereo_44KHz.wav
1	174	4	3	2	I	2	0	787	1	poli_8sides 13_whiteLine3.jpg	Medium_e21_stereo_44KHz.wav
1	175	1	1	1	C	2	0	839	0	poli_8sides 12_whiteLine3.jpg	MediumLong_b10_cut2_L_stereo_44KHz.wav
1	176	2	2	1	C	1	1	894	1	poli_8sides 5_whiteLine3.jpg	MediumLong_e17_cut2_stereo_44KHz.wav
1	177	3	4	2	I	1	0	871	1	poli_8sides 9_whiteLine3.jpg	MediumLong_e19_stereo_44KHz.wav
1	178	2	2	1	C	1	1	1248	1	poli_8sides 5_whiteLine3.jpg	MediumLong_e17_cut2_stereo_44KHz.wav
1	179	4	3	2	I	2	0	791	1	poli_8sides 13_whiteLine3.jpg	Medium_e21_stereo_44KHz.wav
1	180	1	2	0	C	1	0	866	0	poli_8sides 12_whiteLine3.jpg	MediumLong_e17_cut2_stereo_44KHz.wav
1	181	2	1	0	C	2	1	1013	1	poli_8sides 5_whiteLine3.jpg	MediumLong_b10_cut2_L_stereo_44KHz.wav
1	182	1	1	1	C	1	1	737	1	poli_8sides 12_whiteLine3.jpg	MediumLong_b10_cut2_L_stereo_44KHz.wav
1	183	3	3	2	I	2	0	818	1	poli_8sides 9_whiteLine3.jpg	Medium_e21_stereo_44KHz.wav
1	184	4	4	2	I	1	0	711	1	poli_8sides 13_whiteLine3.jpg	MediumLong_e19_stereo_44KHz.wav
1	185	1	2	0	C	2	1	835	1	poli_8sides 12_whiteLine3.jpg	MediumLong_e17_cut2_stereo_44KHz.wav
1	186	3	4	2	I	1	0	875	0	poli_8sides 9_whiteLine3.jpg	MediumLong_e19_stereo_44KHz.wav
1	187	4	3	2	I	2	0	770	0	poli_8sides 13_whiteLine3.jpg	Medium_e21_stereo_44KHz.wav
1	188	2	1	0	C	2	1	811	1	poli_8sides 5_whiteLine3.jpg	MediumLong_b10_cut2_L_stereo_44KHz.wav
1	189	1	1	1	C	2	0	1846	0	poli_8sides 12_whiteLine3.jpg	MediumLong_b10_cut2_L_stereo_44KHz.wav
1	190	2	2	1	C	2	0	1878	0	poli_8sides 5_whiteLine3.jpg	MediumLong_e17_cut2_stereo_44KHz.wav
1	191	4	4	2	I	1	0	855	0	poli_8sides 13_whiteLine3.jpg	MediumLong_e19_stereo_44KHz.wav
1	192	3	3	2	I	2	0	713	1	poli_8sides 9_whiteLine3.jpg	Medium_e21_stereo_44KHz.wav
1	193	4	4	2	I	1	0	717	0	poli_8sides 13_whiteLine3.jpg	MediumLong_e19_stereo_44KHz.wav
1	194	1	1	1	C	2	0	890	0	poli_8sides 12_whiteLine3.jpg	MediumLong_b10_cut2_L_stereo_44KHz.wav
1	195	3	3	2	I	2	0	857	0	poli_8sides 9_whiteLine3.jpg	Medium_e21_stereo_44KHz.wav
1	196	2	2	1	C	2	0	1135	0	poli_8sides 5_whiteLine3.jpg	MediumLong_e17_cut2_stereo_44KHz.wav
1	197	3	4	2	I	1	0	778	0	poli_8sides 9_whiteLine3.jpg	MediumLong_e19_stereo_44KHz.wav
1	198	2	1	0	C	2	1	659	1	poli_8sides 5_whiteLine3.jpg	MediumLong_b10_cut2_L_stereo_44KHz.wav
1	199	1	2	0	C	1	0	1027	0	poli_8sides 12_whiteLine3.jpg	MediumLong_e17_cut2_stereo_44KHz.wav
1	200	4	3	2	I	2	0	1138	1	poli_8sides 13_whiteLine3.jpg	Medium_e21_stereo_44KHz.wav
2	1	2	1	0	C	2	1	855	1	poli_8sides 18_whiteLine3.jpg	MediumShort_e16_cut1_stereo_44KHz.wav
2	2	1	2	0	C	1	0	1887	0	poli_8sides 11_whiteLine3.jpg	MediumShort_e22_cut1_stereo_44KHz.wav
2	3	4	4	2	I	2	0	916	1	poli_8sides 16_whiteLine3.jpg	MediumShort_b10_cut1_MS_stereo_44KHz.wav
2	4	3	3	2	I	1	0	944	1	poli_8sides 1_whiteLine3.jpg	MediumShort_b16_cut3_MS_stereo_44KHz.wav
2	5	2	2	1	C	2	0	750	0	poli_8sides 18_whiteLine3.jpg	MediumShort_e22_cut1_stereo_44KHz.wav
2	6	1	1	1	C	1	1	634	1	poli_8sides 11_whiteLine3.jpg	MediumShort_e16_cut1_stereo_44KHz.wav
2	7	4	3	2	I	2	0	1157	0	poli_8sides 16_whiteLine3.jpg	MediumShort_b16_cut3_MS_stereo_44KHz.wav
2	8	3	4	2	I	1	0	894	1	poli_8sides 1_whiteLine3.jpg	MediumShort_b10_cut1_MS_stereo_44KHz.wav
2	9	2	2	1	C	1	1	1446	1	poli_8sides 18_whiteLine3.jpg	MediumShort_e22_cut1_stereo_44KHz.wav
2	10	1	1	1	C	2	0	923	0	poli_8sides 11_whiteLine3.jpg	MediumShort_e16_cut1_stereo_44KHz.wav
2	11	4	3	2	I	1	0	1005	0	poli_8sides 16_whiteLine3.jpg	MediumShort_b16_cut3_MS_stereo_44KHz.wav
2	12	3	3	2	I	2	0	982	0	poli_8sides 1_whiteLine3.jpg	MediumShort_b16_cut3_MS_stereo_44KHz.wav
2	13	4	4	2	I	2	0	979	0	poli_8sides 16_whiteLine3.jpg	MediumShort_b10_cut1_MS_stereo_44KHz.wav
2	14	3	4	2	I	2	0	935	0	poli_8sides 1_whiteLine3.jpg	MediumShort_b10_cut1_MS_stereo_44KHz.wav
2	15	1	2	0	C	2	1	921	1	poli_8sides 11_whiteLine3.jpg	MediumShort_e22_cut1_stereo_44KHz.wav
2	16	2	1	0	C	1	0	871	0	poli_8sides 18_whiteLine3.jpg	MediumShort_e16_cut1_stereo_44KHz.wav
2	17	4	4	2	I	2	0	1021	0	poli_8sides 16_whiteLine3.jpg	MediumShort_b10_cut1_MS_stereo_44KHz.wav
2	18	1	2	0	C	2	1	797	1	poli_8sides 11_whiteLine3.jpg	MediumShort_e22_cut1_stereo_44KHz.wav
2	19	2	1	0	C	1	0	1051	0	poli_8sides 18_whiteLine3.jpg	MediumShort_e16_cut1_stereo_44KHz.wav
2	20	3	4	2	I	1	0	1101	1	poli_8sides 1_whiteLine3.jpg	MediumShort_b10_cut1_MS_stereo_44KHz.wav
2	21	1	1	1	C	2	0	671	0	poli_8sides 11_whiteLine3.jpg	MediumShort_e16_cut1_stereo_44KHz.wav
2	22	3	3	2	I	2	0	917	1	poli_8sides 1_whiteLine3.jpg	MediumShort_b16_cut3_MS_stereo_44KHz.wav
2	23	4	3	2	I	1	0	982	0	poli_8sides 16_whiteLine3.jpg	MediumShort_b16_cut3_MS_stereo_44KHz.wav
2	24	2	2	1	C	2	0	1152	0	poli_8sides 18_whiteLine3.jpg	MediumShort_e22_cut1_stereo_44KHz.wav
2	25	1	2	0	C	2	1	861	1	poli_8sides 11_whiteLine3.jpg	MediumShort_e22_cut1_stereo_44KHz.wav
2	26	2	1	0	C	1	0	601	0	poli_8sides 18_whiteLine3.jpg	MediumShort_e16_cut1_stereo_44KHz.wav
2	27	4	3	2	I	2	0	1263	1	poli_8sides 16_whiteLine3.jpg	MediumShort_b16_cut3_MS_stereo_44KHz.wav
2	28	3	3	2	I	2	0	808	0	poli_8sides 1_whiteLine3.jpg	MediumShort_b16_cut3_MS_stereo_44KHz.wav
2	29	4	4	2	I	1	0	897	0	poli_8sides 16_whiteLine3.jpg	MediumShort_b10_cut1_MS_stereo_44KHz.wav
2	30	1	1	1	C	1	1	1026	1	poli_8sides 11_whiteLine3.jpg	MediumShort_e16_cut1_stereo_44KHz.wav
2	31	2	2	1	C	1	1	919	1	poli_8sides 18_whiteLine3.jpg	MediumShort_e22_cut1_stereo_44KHz.wav
2	32	3	4	2	I	1	0	975	1	poli_8sides 1_whiteLine3.jpg	MediumShort_b10_cut1_MS_stereo_44KHz.wav
2	33	1	2	0	C	2	1	857	1	poli_8sides 11_whiteLine3.jpg	MediumShort_e22_cut1_stereo_44KHz.wav
2	34	4	3	2	I	2	0	1039	1	poli_8sides 16_whiteLine3.jpg	MediumShort_b16_cut3_MS_stereo_44KHz.wav
2	35	3	4	2	I	2	0	755	1	poli_8sides 1_whiteLine3.jpg	MediumShort_b10_cut1_MS_stereo_44KHz.wav
2	36	2	1	0	C	1	0	1191	0	poli_8sides 18_whiteLine3.jpg	MediumShort_e16_cut1_stereo_44KHz.wav
2	37	3	3	2	I	1	0	862	0	poli_8sides 1_whiteLine3.jpg	MediumShort_b16_cut3_MS_stereo_44KHz.wav
2	38	1	1	1	C	1	1	924	1	poli_8sides 11_whiteLine3.jpg	MediumShort_e16_cut1_stereo_44KHz.wav
2	39	4	4	2	I	2	0	1240	1	poli_8sides 16_whiteLine3.jpg	MediumShort_b10_cut1_MS_stereo_44KHz.wav
2	40	2	2	1	C	1	1	1402	1	poli_8sides 18_whiteLine3.jpg	MediumShort_e22_cut1_stereo_44KHz.wav
2	41	4	3	2	I	2	0	1274	1	poli_8sides 16_whiteLine3.jpg	MediumShort_b16_cut3_MS_stereo_44KHz.wav
2	42	1	2	0	C	2	1	1165	1	poli_8sides 11_whiteLine3.jpg	MediumShort_e22_cut1_stereo_44KHz.wav
2	43	2	2	1	C	1	1	849	1	poli_8sides 18_whiteLine3.jpg	MediumShort_e22_cut1_stereo_44KHz.wav
2	44	3	4	2	I	2	0	842	0	poli_8sides 1_whiteLine3.jpg	MediumShort_b10_cut1_MS_stereo_44KHz.wav
2	45	4	4	2	I	2	0	736	1	poli_8sides 16_whiteLine3.jpg	MediumShort_b10_cut1_MS_stereo_44KHz.wav
2	46	2	1	0	C	2	1	1057	1	poli_8sides 18_whiteLine3.jpg	MediumShort_e16_cut1_stereo_44KHz.wav
2	47	1	1	1	C	1	1	850	1	poli_8sides 11_whiteLine3.jpg	MediumShort_e16_cut1_stereo_44KHz.wav
2	48	3	3	2	I	2	0	947	0	poli_8sides 1_whiteLine3.jpg	MediumShort_b16_cut3_MS_stereo_44KHz.wav
2	49	2	2	1	C	2	0	889	0	poli_8sides 18_whiteLine3.jpg	MediumShort_e22_cut1_stereo_44KHz.wav
2	50	4	3	2	I	1	0	960	0	poli_8sides 16_whiteLine3.jpg	MediumShort_b16_cut3_MS_stereo_44KHz.wav
2	51	3	3	2	I	2	0	674	1	poli_8sides 1_whiteLine3.jpg	MediumShort_b16_cut3_MS_stereo_44KHz.wav
2	52	1	2	0	C	2	1	899	1	poli_8sides 11_whiteLine3.jpg	MediumShort_e22_cut1_stereo_44KHz.wav
2	53	2	1	0	C	1	0	961	0	poli_8sides 18_whiteLine3.jpg	MediumShort_e16_cut1_stereo_44KHz.wav
2	54	4	4	2	I	2	0	1041	0	poli_8sides 16_whiteLine3.jpg	MediumShort_b10_cut1_MS_stereo_44KHz.wav
2	55	3	4	2	I	2	0	985	0	poli_8sides 1_whiteLine3.jpg	MediumShort_b10_cut1_MS_stereo_44KHz.wav
2	56	1	1	1	C	1	1	992	1	poli_8sides 11_whiteLine3.jpg	MediumShort_e16_cut1_stereo_44KHz.wav
2	57	3	4	2	I	2	0	814	0	poli_8sides 1_whiteLine3.jpg	MediumShort_b10_cut1_MS_stereo_44KHz.wav
2	58	1	1	1	C	1	1	1187	1	poli_8sides 11_whiteLine3.jpg	MediumShort_e16_cut1_stereo_44KHz.wav
2	59	2	1	0	C	2	1	943	1	poli_8sides 18_whiteLine3.jpg	MediumShort_e16_cut1_stereo_44KHz.wav
2	60	4	4	2	I	1	0	1280	0	poli_8sides 16_whiteLine3.jpg	MediumShort_b10_cut1_MS_stereo_44KHz.wav
2	61	3	3	2	I	2	0	740	0	poli_8sides 1_whiteLine3.jpg	MediumShort_b16_cut3_MS_stereo_44KHz.wav
2	62	4	3	2	I	2	0	794	1	poli_8sides 16_whiteLine3.jpg	MediumShort_b16_cut3_MS_stereo_44KHz.wav
2	63	2	2	1	C	1	1	863	1	poli_8sides 18_whiteLine3.jpg	MediumShort_e22_cut1_stereo_44KHz.wav
2	64	1	2	0	C	2	1	549	1	poli_8sides 11_whiteLine3.jpg	MediumShort_e22_cut1_stereo_44KHz.wav
2	65	2	2	1	C	2	0	663	0	poli_8sides 18_whiteLine3.jpg	MediumShort_e22_cut1_stereo_44KHz.wav
2	66	4	4	2	I	2	0	1104	0	poli_8sides 16_whiteLine3.jpg	MediumShort_b10_cut1_MS_stereo_44KHz.wav
2	67	3	4	2	I	2	0	909	0	poli_8sides 1_whiteLine3.jpg	MediumShort_b10_cut1_MS_stereo_44KHz.wav
2	68	1	1	1	C	1	1	812	1	poli_8sides 11_whiteLine3.jpg	MediumShort_e16_cut1_stereo_44KHz.wav
2	69	3	3	2	I	1	0	1188	1	poli_8sides 1_whiteLine3.jpg	MediumShort_b16_cut3_MS_stereo_44KHz.wav
2	70	4	3	2	I	1	0	1225	0	poli_8sides 16_whiteLine3.jpg	MediumShort_b16_cut3_MS_stereo_44KHz.wav
2	71	2	1	0	C	2	1	1025	1	poli_8sides 18_whiteLine3.jpg	MediumShort_e16_cut1_stereo_44KHz.wav
2	72	1	2	0	C	1	0	1225	0	poli_8sides 11_whiteLine3.jpg	MediumShort_e22_cut1_stereo_44KHz.wav
2	73	4	3	2	I	1	0	940	0	poli_8sides 16_whiteLine3.jpg	MediumShort_b16_cut3_MS_stereo_44KHz.wav
2	74	3	4	2	I	1	0	944	1	poli_8sides 1_whiteLine3.jpg	MediumShort_b10_cut1_MS_stereo_44KHz.wav
2	75	2	1	0	C	2	1	1023	1	poli_8sides 18_whiteLine3.jpg	MediumShort_e16_cut1_stereo_44KHz.wav
2	76	1	2	0	C	2	1	838	1	poli_8sides 11_whiteLine3.jpg	MediumShort_e22_cut1_stereo_44KHz.wav
2	77	4	4	2	I	1	0	1076	0	poli_8sides 16_whiteLine3.jpg	MediumShort_b10_cut1_MS_stereo_44KHz.wav
2	78	1	1	1	C	2	0	786	0	poli_8sides 11_whiteLine3.jpg	MediumShort_e16_cut1_stereo_44KHz.wav
2	79	3	3	2	I	1	0	826	1	poli_8sides 1_whiteLine3.jpg	MediumShort_b16_cut3_MS_stereo_44KHz.wav
2	80	2	2	1	C	2	0	755	0	poli_8sides 18_whiteLine3.jpg	MediumShort_e22_cut1_stereo_44KHz.wav
2	81	4	3	2	I	2	0	977	1	poli_8sides 16_whiteLine3.jpg	MediumShort_b16_cut3_MS_stereo_44KHz.wav
2	82	2	2	1	C	1	1	905	1	poli_8sides 18_whiteLine3.jpg	MediumShort_e22_cut1_stereo_44KHz.wav
2	83	3	4	2	I	1	0	891	0	poli_8sides 1_whiteLine3.jpg	MediumShort_b10_cut1_MS_stereo_44KHz.wav
2	84	1	1	1	C	1	1	1356	1	poli_8sides 11_whiteLine3.jpg	MediumShort_e16_cut1_stereo_44KHz.wav
2	85	2	1	0	C	2	1	796	1	poli_8sides 18_whiteLine3.jpg	MediumShort_e16_cut1_stereo_44KHz.wav
2	86	3	3	2	I	1	0	961	0	poli_8sides 1_whiteLine3.jpg	MediumShort_b16_cut3_MS_stereo_44KHz.wav
2	87	4	4	2	I	2	0	909	1	poli_8sides 16_whiteLine3.jpg	MediumShort_b10_cut1_MS_stereo_44KHz.wav
2	88	1	2	0	C	2	1	775	1	poli_8sides 11_whiteLine3.jpg	MediumShort_e22_cut1_stereo_44KHz.wav
2	89	2	1	0	C	2	1	1017	1	poli_8sides 18_whiteLine3.jpg	MediumShort_e16_cut1_stereo_44KHz.wav
2	90	4	4	2	I	1	0	922	0	poli_8sides 16_whiteLine3.jpg	MediumShort_b10_cut1_MS_stereo_44KHz.wav
2	91	3	3	2	I	1	0	1139	1	poli_8sides 1_whiteLine3.jpg	MediumShort_b16_cut3_MS_stereo_44KHz.wav
2	92	1	1	1	C	1	1	776	1	poli_8sides 11_whiteLine3.jpg	MediumShort_e16_cut1_stereo_44KHz.wav
2	93	3	4	2	I	2	0	873	1	poli_8sides 1_whiteLine3.jpg	MediumShort_b10_cut1_MS_stereo_44KHz.wav
2	94	4	3	2	I	1	0	825	1	poli_8sides 16_whiteLine3.jpg	MediumShort_b16_cut3_MS_stereo_44KHz.wav
2	95	1	2	0	C	2	1	1040	1	poli_8sides 11_whiteLine3.jpg	MediumShort_e22_cut1_stereo_44KHz.wav
2	96	2	2	1	C	0	0	0	0	poli_8sides 18_whiteLine3.jpg	MediumShort_e22_cut1_stereo_44KHz.wav
2	97	4	3	2	I	1	0	825	1	poli_8sides 16_whiteLine3.jpg	MediumShort_b16_cut3_MS_stereo_44KHz.wav
2	98	2	1	0	C	2	1	712	1	poli_8sides 18_whiteLine3.jpg	MediumShort_e16_cut1_stereo_44KHz.wav
2	99	3	4	2	I	1	0	644	1	poli_8sides 1_whiteLine3.jpg	MediumShort_b10_cut1_MS_stereo_44KHz.wav
2	100	1	1	1	C	1	1	772	1	poli_8sides 11_whiteLine3.jpg	MediumShort_e16_cut1_stereo_44KHz.wav
2	101	2	2	1	C	1	1	830	1	poli_8sides 18_whiteLine3.jpg	MediumShort_e22_cut1_stereo_44KHz.wav
2	102	3	3	2	I	1	0	788	0	poli_8sides 1_whiteLine3.jpg	MediumShort_b16_cut3_MS_stereo_44KHz.wav
2	103	1	2	0	C	2	1	589	1	poli_8sides 11_whiteLine3.jpg	MediumShort_e22_cut1_stereo_44KHz.wav
2	104	4	4	2	I	2	0	794	1	poli_8sides 16_whiteLine3.jpg	MediumShort_b10_cut1_MS_stereo_44KHz.wav
2	105	2	1	0	C	2	1	869	1	poli_8sides 18_whiteLine3.jpg	MediumShort_e16_cut1_stereo_44KHz.wav
2	106	3	3	2	I	1	0	820	1	poli_8sides 1_whiteLine3.jpg	MediumShort_b16_cut3_MS_stereo_44KHz.wav
2	107	4	3	2	I	2	0	928	1	poli_8sides 16_whiteLine3.jpg	MediumShort_b16_cut3_MS_stereo_44KHz.wav
2	108	1	1	1	C	1	1	1029	1	poli_8sides 11_whiteLine3.jpg	MediumShort_e16_cut1_stereo_44KHz.wav
2	109	2	2	1	C	1	1	787	1	poli_8sides 18_whiteLine3.jpg	MediumShort_e22_cut1_stereo_44KHz.wav
2	110	4	4	2	I	1	0	774	0	poli_8sides 16_whiteLine3.jpg	MediumShort_b10_cut1_MS_stereo_44KHz.wav
2	111	3	4	2	I	2	0	789	1	poli_8sides 1_whiteLine3.jpg	MediumShort_b10_cut1_MS_stereo_44KHz.wav
2	112	1	2	0	C	1	0	1303	0	poli_8sides 11_whiteLine3.jpg	MediumShort_e22_cut1_stereo_44KHz.wav
2	113	3	3	2	I	1	0	1000	0	poli_8sides 1_whiteLine3.jpg	MediumShort_b16_cut3_MS_stereo_44KHz.wav
2	114	1	1	1	C	1	1	995	1	poli_8sides 11_whiteLine3.jpg	MediumShort_e16_cut1_stereo_44KHz.wav
2	115	2	1	0	C	2	1	826	1	poli_8sides 18_whiteLine3.jpg	MediumShort_e16_cut1_stereo_44KHz.wav
2	116	4	4	2	I	1	0	843	1	poli_8sides 16_whiteLine3.jpg	MediumShort_b10_cut1_MS_stereo_44KHz.wav
2	117	3	4	2	I	1	0	991	0	poli_8sides 1_whiteLine3.jpg	MediumShort_b10_cut1_MS_stereo_44KHz.wav
2	118	2	2	1	C	1	1	1119	1	poli_8sides 18_whiteLine3.jpg	MediumShort_e22_cut1_stereo_44KHz.wav
2	119	4	3	2	I	1	0	675	0	poli_8sides 16_whiteLine3.jpg	MediumShort_b16_cut3_MS_stereo_44KHz.wav
2	120	1	2	0	C	2	1	716	1	poli_8sides 11_whiteLine3.jpg	MediumShort_e22_cut1_stereo_44KHz.wav
2	121	2	2	1	C	1	1	1051	1	poli_8sides 18_whiteLine3.jpg	MediumShort_e22_cut1_stereo_44KHz.wav
2	122	3	4	2	I	2	0	490	0	poli_8sides 1_whiteLine3.jpg	MediumShort_b10_cut1_MS_stereo_44KHz.wav
2	123	1	2	0	C	2	1	690	1	poli_8sides 11_whiteLine3.jpg	MediumShort_e22_cut1_stereo_44KHz.wav
2	124	4	3	2	I	1	0	990	1	poli_8sides 16_whiteLine3.jpg	MediumShort_b16_cut3_MS_stereo_44KHz.wav
2	125	1	1	1	C	1	1	927	1	poli_8sides 11_whiteLine3.jpg	MediumShort_e16_cut1_stereo_44KHz.wav
2	126	3	3	2	I	2	0	1282	1	poli_8sides 1_whiteLine3.jpg	MediumShort_b16_cut3_MS_stereo_44KHz.wav
2	127	2	1	0	C	2	1	970	1	poli_8sides 18_whiteLine3.jpg	MediumShort_e16_cut1_stereo_44KHz.wav
2	128	4	4	2	I	1	0	800	1	poli_8sides 16_whiteLine3.jpg	MediumShort_b10_cut1_MS_stereo_44KHz.wav
2	129	2	2	1	C	1	1	1003	1	poli_8sides 18_whiteLine3.jpg	MediumShort_e22_cut1_stereo_44KHz.wav
2	130	1	1	1	C	1	1	688	1	poli_8sides 11_whiteLine3.jpg	MediumShort_e16_cut1_stereo_44KHz.wav
2	131	4	3	2	I	2	0	1151	0	poli_8sides 16_whiteLine3.jpg	MediumShort_b16_cut3_MS_stereo_44KHz.wav
2	132	3	3	2	I	2	0	752	1	poli_8sides 1_whiteLine3.jpg	MediumShort_b16_cut3_MS_stereo_44KHz.wav
2	133	4	4	2	I	1	0	820	1	poli_8sides 16_whiteLine3.jpg	MediumShort_b10_cut1_MS_stereo_44KHz.wav
2	134	3	4	2	I	1	0	869	0	poli_8sides 1_whiteLine3.jpg	MediumShort_b10_cut1_MS_stereo_44KHz.wav
2	135	1	2	0	C	2	1	764	1	poli_8sides 11_whiteLine3.jpg	MediumShort_e22_cut1_stereo_44KHz.wav
2	136	2	1	0	C	1	0	683	0	poli_8sides 18_whiteLine3.jpg	MediumShort_e16_cut1_stereo_44KHz.wav
2	137	1	2	0	C	2	1	773	1	poli_8sides 11_whiteLine3.jpg	MediumShort_e22_cut1_stereo_44KHz.wav
2	138	2	2	1	C	1	1	813	1	poli_8sides 18_whiteLine3.jpg	MediumShort_e22_cut1_stereo_44KHz.wav
2	139	3	3	2	I	2	0	848	1	poli_8sides 1_whiteLine3.jpg	MediumShort_b16_cut3_MS_stereo_44KHz.wav
2	140	4	4	2	I	2	0	922	1	poli_8sides 16_whiteLine3.jpg	MediumShort_b10_cut1_MS_stereo_44KHz.wav
2	141	2	1	0	C	2	1	669	1	poli_8sides 18_whiteLine3.jpg	MediumShort_e16_cut1_stereo_44KHz.wav
2	142	3	4	2	I	2	0	800	1	poli_8sides 1_whiteLine3.jpg	MediumShort_b10_cut1_MS_stereo_44KHz.wav
2	143	4	3	2	I	1	0	1142	0	poli_8sides 16_whiteLine3.jpg	MediumShort_b16_cut3_MS_stereo_44KHz.wav
2	144	1	1	1	C	1	1	875	1	poli_8sides 11_whiteLine3.jpg	MediumShort_e16_cut1_stereo_44KHz.wav
2	145	3	4	2	I	2	0	752	0	poli_8sides 1_whiteLine3.jpg	MediumShort_b10_cut1_MS_stereo_44KHz.wav
2	146	1	1	1	C	1	1	958	1	poli_8sides 11_whiteLine3.jpg	MediumShort_e16_cut1_stereo_44KHz.wav
2	147	2	1	0	C	2	1	1089	1	poli_8sides 18_whiteLine3.jpg	MediumShort_e16_cut1_stereo_44KHz.wav
2	148	4	4	2	I	1	0	1018	1	poli_8sides 16_whiteLine3.jpg	MediumShort_b10_cut1_MS_stereo_44KHz.wav
2	149	2	2	1	C	1	1	960	1	poli_8sides 18_whiteLine3.jpg	MediumShort_e22_cut1_stereo_44KHz.wav
2	150	3	3	2	I	2	0	978	0	poli_8sides 1_whiteLine3.jpg	MediumShort_b16_cut3_MS_stereo_44KHz.wav
2	151	4	3	2	I	2	0	891	0	poli_8sides 16_whiteLine3.jpg	MediumShort_b16_cut3_MS_stereo_44KHz.wav
2	152	1	2	0	C	2	1	683	1	poli_8sides 11_whiteLine3.jpg	MediumShort_e22_cut1_stereo_44KHz.wav
2	153	3	3	2	I	1	0	691	1	poli_8sides 1_whiteLine3.jpg	MediumShort_b16_cut3_MS_stereo_44KHz.wav
2	154	4	4	2	I	1	0	807	1	poli_8sides 16_whiteLine3.jpg	MediumShort_b10_cut1_MS_stereo_44KHz.wav
2	155	2	2	1	C	2	0	1026	0	poli_8sides 18_whiteLine3.jpg	MediumShort_e22_cut1_stereo_44KHz.wav
2	156	1	2	0	C	2	1	725	1	poli_8sides 11_whiteLine3.jpg	MediumShort_e22_cut1_stereo_44KHz.wav
2	157	3	4	2	I	1	0	1292	1	poli_8sides 1_whiteLine3.jpg	MediumShort_b10_cut1_MS_stereo_44KHz.wav
2	158	4	3	2	I	2	0	1064	0	poli_8sides 16_whiteLine3.jpg	MediumShort_b16_cut3_MS_stereo_44KHz.wav
2	159	2	1	0	C	2	1	805	1	poli_8sides 18_whiteLine3.jpg	MediumShort_e16_cut1_stereo_44KHz.wav
2	160	1	1	1	C	1	1	699	1	poli_8sides 11_whiteLine3.jpg	MediumShort_e16_cut1_stereo_44KHz.wav
2	161	4	4	2	I	2	0	739	1	poli_8sides 16_whiteLine3.jpg	MediumShort_b10_cut1_MS_stereo_44KHz.wav
2	162	1	1	1	C	1	1	885	1	poli_8sides 11_whiteLine3.jpg	MediumShort_e16_cut1_stereo_44KHz.wav
2	163	3	4	2	I	2	0	1082	0	poli_8sides 1_whiteLine3.jpg	MediumShort_b10_cut1_MS_stereo_44KHz.wav
2	164	2	1	0	C	2	1	814	1	poli_8sides 18_whiteLine3.jpg	MediumShort_e16_cut1_stereo_44KHz.wav
2	165	1	2	0	C	2	1	1795	1	poli_8sides 11_whiteLine3.jpg	MediumShort_e22_cut1_stereo_44KHz.wav
2	166	2	2	1	C	1	1	828	1	poli_8sides 18_whiteLine3.jpg	MediumShort_e22_cut1_stereo_44KHz.wav
2	167	3	3	2	I	1	0	1141	0	poli_8sides 1_whiteLine3.jpg	MediumShort_b16_cut3_MS_stereo_44KHz.wav
2	168	4	3	2	I	2	0	846	1	poli_8sides 16_whiteLine3.jpg	MediumShort_b16_cut3_MS_stereo_44KHz.wav
2	169	1	2	0	C	2	1	764	1	poli_8sides 11_whiteLine3.jpg	MediumShort_e22_cut1_stereo_44KHz.wav
2	170	4	3	2	I	2	0	865	0	poli_8sides 16_whiteLine3.jpg	MediumShort_b16_cut3_MS_stereo_44KHz.wav
2	171	2	1	0	C	2	1	1203	1	poli_8sides 18_whiteLine3.jpg	MediumShort_e16_cut1_stereo_44KHz.wav
2	172	3	4	2	I	2	0	1081	1	poli_8sides 1_whiteLine3.jpg	MediumShort_b10_cut1_MS_stereo_44KHz.wav
2	173	4	4	2	I	2	0	870	1	poli_8sides 16_whiteLine3.jpg	MediumShort_b10_cut1_MS_stereo_44KHz.wav
2	174	2	2	1	C	1	1	849	1	poli_8sides 18_whiteLine3.jpg	MediumShort_e22_cut1_stereo_44KHz.wav
2	175	1	1	1	C	1	1	1083	1	poli_8sides 11_whiteLine3.jpg	MediumShort_e16_cut1_stereo_44KHz.wav
2	176	3	3	2	I	2	0	826	1	poli_8sides 1_whiteLine3.jpg	MediumShort_b16_cut3_MS_stereo_44KHz.wav
2	177	4	3	2	I	1	0	675	0	poli_8sides 16_whiteLine3.jpg	MediumShort_b16_cut3_MS_stereo_44KHz.wav
2	178	1	2	0	C	2	1	690	1	poli_8sides 11_whiteLine3.jpg	MediumShort_e22_cut1_stereo_44KHz.wav
2	179	2	2	1	C	1	1	839	1	poli_8sides 18_whiteLine3.jpg	MediumShort_e22_cut1_stereo_44KHz.wav
2	180	3	3	2	I	2	0	612	1	poli_8sides 1_whiteLine3.jpg	MediumShort_b16_cut3_MS_stereo_44KHz.wav
2	181	4	4	2	I	2	0	633	1	poli_8sides 16_whiteLine3.jpg	MediumShort_b10_cut1_MS_stereo_44KHz.wav
2	182	1	1	1	C	1	1	852	1	poli_8sides 11_whiteLine3.jpg	MediumShort_e16_cut1_stereo_44KHz.wav
2	183	2	1	0	C	1	0	823	0	poli_8sides 18_whiteLine3.jpg	MediumShort_e16_cut1_stereo_44KHz.wav
2	184	3	4	2	I	1	0	1199	0	poli_8sides 1_whiteLine3.jpg	MediumShort_b10_cut1_MS_stereo_44KHz.wav
2	185	1	1	1	C	1	1	1025	1	poli_8sides 11_whiteLine3.jpg	MediumShort_e16_cut1_stereo_44KHz.wav
2	186	2	2	1	C	1	1	775	1	poli_8sides 18_whiteLine3.jpg	MediumShort_e22_cut1_stereo_44KHz.wav
2	187	3	4	2	I	2	0	829	0	poli_8sides 1_whiteLine3.jpg	MediumShort_b10_cut1_MS_stereo_44KHz.wav
2	188	4	3	2	I	2	0	598	1	poli_8sides 16_whiteLine3.jpg	MediumShort_b16_cut3_MS_stereo_44KHz.wav
2	189	3	3	2	I	1	0	906	0	poli_8sides 1_whiteLine3.jpg	MediumShort_b16_cut3_MS_stereo_44KHz.wav
2	190	2	1	0	C	2	1	772	1	poli_8sides 18_whiteLine3.jpg	MediumShort_e16_cut1_stereo_44KHz.wav
2	191	1	2	0	C	2	1	827	1	poli_8sides 11_whiteLine3.jpg	MediumShort_e22_cut1_stereo_44KHz.wav
2	192	4	4	2	I	2	0	889	0	poli_8sides 16_whiteLine3.jpg	MediumShort_b10_cut1_MS_stereo_44KHz.wav
2	193	2	2	1	C	1	1	755	1	poli_8sides 18_whiteLine3.jpg	MediumShort_e22_cut1_stereo_44KHz.wav
2	194	1	1	1	C	2	0	1087	0	poli_8sides 11_whiteLine3.jpg	MediumShort_e16_cut1_stereo_44KHz.wav
2	195	4	3	2	I	2	0	830	0	poli_8sides 16_whiteLine3.jpg	MediumShort_b16_cut3_MS_stereo_44KHz.wav
2	196	3	4	2	I	1	0	808	0	poli_8sides 1_whiteLine3.jpg	MediumShort_b10_cut1_MS_stereo_44KHz.wav
2	197	2	1	0	C	2	1	712	1	poli_8sides 18_whiteLine3.jpg	MediumShort_e16_cut1_stereo_44KHz.wav
2	198	4	4	2	I	1	0	1547	0	poli_8sides 16_whiteLine3.jpg	MediumShort_b10_cut1_MS_stereo_44KHz.wav
2	199	3	3	2	I	2	0	723	1	poli_8sides 1_whiteLine3.jpg	MediumShort_b16_cut3_MS_stereo_44KHz.wav
2	200	1	2	0	C	2	1	791	1	poli_8sides 11_whiteLine3.jpg	MediumShort_e22_cut1_stereo_44KHz.wav
3	1	4	3	2	I	2	0	793	1	poli_8sides 8_whiteLine3.jpg	Medium_e13_stereo_44KHz.wav
3	2	2	2	1	C	2	0	696	0	poli_8sides 10_whiteLine3.jpg	Medium_e01_cut1_stereo_44KHz.wav
3	3	3	4	2	I	1	0	946	0	poli_8sides 7_whiteLine3.jpg	MediumLong_e04_stereo_44KHz.wav
3	4	1	1	1	C	2	0	816	0	poli_8sides 15_whiteLine3.jpg	Medium_e26_stereo_44KHz.wav
3	5	3	3	2	I	2	0	833	0	poli_8sides 7_whiteLine3.jpg	Medium_e13_stereo_44KHz.wav
3	6	2	1	0	C	2	1	1149	1	poli_8sides 10_whiteLine3.jpg	Medium_e26_stereo_44KHz.wav
3	7	4	4	2	I	2	0	873	1	poli_8sides 8_whiteLine3.jpg	MediumLong_e04_stereo_44KHz.wav
3	8	1	2	0	C	1	0	1300	0	poli_8sides 15_whiteLine3.jpg	Medium_e01_cut1_stereo_44KHz.wav
3	9	3	3	2	I	1	0	1299	1	poli_8sides 7_whiteLine3.jpg	Medium_e13_stereo_44KHz.wav
3	10	2	2	1	C	1	1	1703	1	poli_8sides 10_whiteLine3.jpg	Medium_e01_cut1_stereo_44KHz.wav
3	11	4	4	2	I	1	0	874	1	poli_8sides 8_whiteLine3.jpg	MediumLong_e04_stereo_44KHz.wav
3	12	1	2	0	C	2	1	861	1	poli_8sides 15_whiteLine3.jpg	Medium_e01_cut1_stereo_44KHz.wav
3	13	2	1	0	C	2	1	1036	1	poli_8sides 10_whiteLine3.jpg	Medium_e26_stereo_44KHz.wav
3	14	3	4	2	I	2	0	785	0	poli_8sides 7_whiteLine3.jpg	MediumLong_e04_stereo_44KHz.wav
3	15	4	3	2	I	1	0	1128	0	poli_8sides 8_whiteLine3.jpg	Medium_e13_stereo_44KHz.wav
3	16	1	1	1	C	1	1	1352	1	poli_8sides 15_whiteLine3.jpg	Medium_e26_stereo_44KHz.wav
3	17	2	2	1	C	1	1	1477	1	poli_8sides 10_whiteLine3.jpg	Medium_e01_cut1_stereo_44KHz.wav
3	18	4	4	2	I	1	0	1057	0	poli_8sides 8_whiteLine3.jpg	MediumLong_e04_stereo_44KHz.wav
3	19	1	2	0	C	2	1	1596	1	poli_8sides 15_whiteLine3.jpg	Medium_e01_cut1_stereo_44KHz.wav
3	20	3	4	2	I	2	0	791	1	poli_8sides 7_whiteLine3.jpg	MediumLong_e04_stereo_44KHz.wav
3	21	2	1	0	C	1	0	1213	0	poli_8sides 10_whiteLine3.jpg	Medium_e26_stereo_44KHz.wav
3	22	4	3	2	I	2	0	904	0	poli_8sides 8_whiteLine3.jpg	Medium_e13_stereo_44KHz.wav
3	23	1	1	1	C	1	1	1133	1	poli_8sides 15_whiteLine3.jpg	Medium_e26_stereo_44KHz.wav
3	24	3	3	2	I	1	0	1140	0	poli_8sides 7_whiteLine3.jpg	Medium_e13_stereo_44KHz.wav
3	25	2	1	0	C	2	1	976	1	poli_8sides 10_whiteLine3.jpg	Medium_e26_stereo_44KHz.wav
3	26	3	3	2	I	1	0	1617	0	poli_8sides 7_whiteLine3.jpg	Medium_e13_stereo_44KHz.wav
3	27	1	2	0	C	1	0	912	0	poli_8sides 15_whiteLine3.jpg	Medium_e01_cut1_stereo_44KHz.wav
3	28	4	3	2	I	2	0	996	1	poli_8sides 8_whiteLine3.jpg	Medium_e13_stereo_44KHz.wav
3	29	1	1	1	C	2	0	1515	0	poli_8sides 15_whiteLine3.jpg	Medium_e26_stereo_44KHz.wav
3	30	2	2	1	C	1	1	766	1	poli_8sides 10_whiteLine3.jpg	Medium_e01_cut1_stereo_44KHz.wav
3	31	4	4	2	I	1	0	982	1	poli_8sides 8_whiteLine3.jpg	MediumLong_e04_stereo_44KHz.wav
3	32	3	4	2	I	2	0	943	1	poli_8sides 7_whiteLine3.jpg	MediumLong_e04_stereo_44KHz.wav
3	33	1	2	0	C	1	0	759	0	poli_8sides 15_whiteLine3.jpg	Medium_e01_cut1_stereo_44KHz.wav
3	34	2	2	1	C	1	1	1350	1	poli_8sides 10_whiteLine3.jpg	Medium_e01_cut1_stereo_44KHz.wav
3	35	4	4	2	I	1	0	1056	0	poli_8sides 8_whiteLine3.jpg	MediumLong_e04_stereo_44KHz.wav
3	36	3	4	2	I	1	0	1027	1	poli_8sides 7_whiteLine3.jpg	MediumLong_e04_stereo_44KHz.wav
3	37	2	1	0	C	2	1	1671	1	poli_8sides 10_whiteLine3.jpg	Medium_e26_stereo_44KHz.wav
3	38	4	3	2	I	2	0	1171	1	poli_8sides 8_whiteLine3.jpg	Medium_e13_stereo_44KHz.wav
3	39	1	1	1	C	1	1	1096	1	poli_8sides 15_whiteLine3.jpg	Medium_e26_stereo_44KHz.wav
3	40	3	3	2	I	1	0	829	1	poli_8sides 7_whiteLine3.jpg	Medium_e13_stereo_44KHz.wav
3	41	4	3	2	I	2	0	967	0	poli_8sides 8_whiteLine3.jpg	Medium_e13_stereo_44KHz.wav
3	42	3	3	2	I	1	0	903	1	poli_8sides 7_whiteLine3.jpg	Medium_e13_stereo_44KHz.wav
3	43	1	1	1	C	2	0	859	0	poli_8sides 15_whiteLine3.jpg	Medium_e26_stereo_44KHz.wav
3	44	2	2	1	C	1	1	1065	1	poli_8sides 10_whiteLine3.jpg	Medium_e01_cut1_stereo_44KHz.wav
3	45	4	4	2	I	1	0	955	1	poli_8sides 8_whiteLine3.jpg	MediumLong_e04_stereo_44KHz.wav
3	46	2	1	0	C	2	1	1003	1	poli_8sides 10_whiteLine3.jpg	Medium_e26_stereo_44KHz.wav
3	47	1	2	0	C	1	0	771	0	poli_8sides 15_whiteLine3.jpg	Medium_e01_cut1_stereo_44KHz.wav
3	48	3	4	2	I	2	0	770	1	poli_8sides 7_whiteLine3.jpg	MediumLong_e04_stereo_44KHz.wav
3	49	1	2	0	C	1	0	1312	0	poli_8sides 15_whiteLine3.jpg	Medium_e01_cut1_stereo_44KHz.wav
3	50	4	3	2	I	2	0	898	0	poli_8sides 8_whiteLine3.jpg	Medium_e13_stereo_44KHz.wav
3	51	2	2	1	C	2	0	997	0	poli_8sides 10_whiteLine3.jpg	Medium_e01_cut1_stereo_44KHz.wav
3	52	3	3	2	I	1	0	885	1	poli_8sides 7_whiteLine3.jpg	Medium_e13_stereo_44KHz.wav
3	53	2	1	0	C	2	1	805	1	poli_8sides 10_whiteLine3.jpg	Medium_e26_stereo_44KHz.wav
3	54	3	4	2	I	1	0	1905	0	poli_8sides 7_whiteLine3.jpg	MediumLong_e04_stereo_44KHz.wav
3	55	4	4	2	I	1	0	920	1	poli_8sides 8_whiteLine3.jpg	MediumLong_e04_stereo_44KHz.wav
3	56	1	1	1	C	2	0	1072	0	poli_8sides 15_whiteLine3.jpg	Medium_e26_stereo_44KHz.wav
3	57	3	3	2	I	1	0	1240	0	poli_8sides 7_whiteLine3.jpg	Medium_e13_stereo_44KHz.wav
3	58	4	4	2	I	1	0	815	1	poli_8sides 8_whiteLine3.jpg	MediumLong_e04_stereo_44KHz.wav
3	59	1	1	1	C	2	0	1340	0	poli_8sides 15_whiteLine3.jpg	Medium_e26_stereo_44KHz.wav
3	60	2	2	1	C	1	1	1122	1	poli_8sides 10_whiteLine3.jpg	Medium_e01_cut1_stereo_44KHz.wav
3	61	3	4	2	I	2	0	1035	1	poli_8sides 7_whiteLine3.jpg	MediumLong_e04_stereo_44KHz.wav
3	62	4	3	2	I	2	0	743	0	poli_8sides 8_whiteLine3.jpg	Medium_e13_stereo_44KHz.wav
3	63	1	2	0	C	1	0	1071	0	poli_8sides 15_whiteLine3.jpg	Medium_e01_cut1_stereo_44KHz.wav
3	64	2	1	0	C	2	1	745	1	poli_8sides 10_whiteLine3.jpg	Medium_e26_stereo_44KHz.wav
3	65	3	4	2	I	2	0	1043	1	poli_8sides 7_whiteLine3.jpg	MediumLong_e04_stereo_44KHz.wav
3	66	1	2	0	C	1	0	831	0	poli_8sides 15_whiteLine3.jpg	Medium_e01_cut1_stereo_44KHz.wav
3	67	4	3	2	I	2	0	1157	1	poli_8sides 8_whiteLine3.jpg	Medium_e13_stereo_44KHz.wav
3	68	2	1	0	C	2	1	831	1	poli_8sides 10_whiteLine3.jpg	Medium_e26_stereo_44KHz.wav
3	69	4	4	2	I	1	0	911	0	poli_8sides 8_whiteLine3.jpg	MediumLong_e04_stereo_44KHz.wav
3	70	2	2	1	C	1	1	893	1	poli_8sides 10_whiteLine3.jpg	Medium_e01_cut1_stereo_44KHz.wav
3	71	1	1	1	C	2	0	668	0	poli_8sides 15_whiteLine3.jpg	Medium_e26_stereo_44KHz.wav
3	72	3	3	2	I	1	0	898	0	poli_8sides 7_whiteLine3.jpg	Medium_e13_stereo_44KHz.wav
3	73	1	1	1	C	2	0	895	0	poli_8sides 15_whiteLine3.jpg	Medium_e26_stereo_44KHz.wav
3	74	4	4	2	I	1	0	1041	1	poli_8sides 8_whiteLine3.jpg	MediumLong_e04_stereo_44KHz.wav
3	75	2	2	1	C	2	0	852	0	poli_8sides 10_whiteLine3.jpg	Medium_e01_cut1_stereo_44KHz.wav
3	76	3	3	2	I	1	0	775	1	poli_8sides 7_whiteLine3.jpg	Medium_e13_stereo_44KHz.wav
3	77	1	2	0	C	2	1	1389	1	poli_8sides 15_whiteLine3.jpg	Medium_e01_cut1_stereo_44KHz.wav
3	78	3	4	2	I	2	0	934	0	poli_8sides 7_whiteLine3.jpg	MediumLong_e04_stereo_44KHz.wav
3	79	4	3	2	I	2	0	864	1	poli_8sides 8_whiteLine3.jpg	Medium_e13_stereo_44KHz.wav
3	80	2	1	0	C	1	0	1010	0	poli_8sides 10_whiteLine3.jpg	Medium_e26_stereo_44KHz.wav
3	81	4	3	2	I	2	0	1083	1	poli_8sides 8_whiteLine3.jpg	Medium_e13_stereo_44KHz.wav
3	82	3	3	2	I	1	0	940	1	poli_8sides 7_whiteLine3.jpg	Medium_e13_stereo_44KHz.wav
3	83	2	1	0	C	2	1	914	1	poli_8sides 10_whiteLine3.jpg	Medium_e26_stereo_44KHz.wav
3	84	1	1	1	C	2	0	886	0	poli_8sides 15_whiteLine3.jpg	Medium_e26_stereo_44KHz.wav
3	85	2	2	1	C	1	1	925	1	poli_8sides 10_whiteLine3.jpg	Medium_e01_cut1_stereo_44KHz.wav
3	86	4	4	2	I	1	0	809	0	poli_8sides 8_whiteLine3.jpg	MediumLong_e04_stereo_44KHz.wav
3	87	3	4	2	I	2	0	1082	1	poli_8sides 7_whiteLine3.jpg	MediumLong_e04_stereo_44KHz.wav
3	88	1	2	0	C	1	0	976	0	poli_8sides 15_whiteLine3.jpg	Medium_e01_cut1_stereo_44KHz.wav
3	89	2	1	0	C	2	1	804	1	poli_8sides 10_whiteLine3.jpg	Medium_e26_stereo_44KHz.wav
3	90	1	1	1	C	1	1	1518	1	poli_8sides 15_whiteLine3.jpg	Medium_e26_stereo_44KHz.wav
3	91	4	3	2	I	2	0	743	0	poli_8sides 8_whiteLine3.jpg	Medium_e13_stereo_44KHz.wav
3	92	3	3	2	I	1	0	692	0	poli_8sides 7_whiteLine3.jpg	Medium_e13_stereo_44KHz.wav
3	93	4	4	2	I	1	0	755	1	poli_8sides 8_whiteLine3.jpg	MediumLong_e04_stereo_44KHz.wav
3	94	2	2	1	C	2	0	875	0	poli_8sides 10_whiteLine3.jpg	Medium_e01_cut1_stereo_44KHz.wav
3	95	1	2	0	C	1	0	749	0	poli_8sides 15_whiteLine3.jpg	Medium_e01_cut1_stereo_44KHz.wav
3	96	3	4	2	I	1	0	876	0	poli_8sides 7_whiteLine3.jpg	MediumLong_e04_stereo_44KHz.wav
3	97	4	3	2	I	2	0	1055	0	poli_8sides 8_whiteLine3.jpg	Medium_e13_stereo_44KHz.wav
3	98	1	1	1	C	2	0	975	0	poli_8sides 15_whiteLine3.jpg	Medium_e26_stereo_44KHz.wav
3	99	2	2	1	C	1	1	1038	1	poli_8sides 10_whiteLine3.jpg	Medium_e01_cut1_stereo_44KHz.wav
3	100	3	3	2	I	1	0	961	1	poli_8sides 7_whiteLine3.jpg	Medium_e13_stereo_44KHz.wav
3	101	1	2	0	C	2	1	804	1	poli_8sides 15_whiteLine3.jpg	Medium_e01_cut1_stereo_44KHz.wav
3	102	2	1	0	C	1	0	791	0	poli_8sides 10_whiteLine3.jpg	Medium_e26_stereo_44KHz.wav
3	103	4	4	2	I	1	0	854	0	poli_8sides 8_whiteLine3.jpg	MediumLong_e04_stereo_44KHz.wav
3	104	3	4	2	I	2	0	734	0	poli_8sides 7_whiteLine3.jpg	MediumLong_e04_stereo_44KHz.wav
3	105	2	1	0	C	2	1	760	1	poli_8sides 10_whiteLine3.jpg	Medium_e26_stereo_44KHz.wav
3	106	1	1	1	C	1	1	958	1	poli_8sides 15_whiteLine3.jpg	Medium_e26_stereo_44KHz.wav
3	107	3	3	2	I	1	0	988	0	poli_8sides 7_whiteLine3.jpg	Medium_e13_stereo_44KHz.wav
3	108	4	4	2	I	2	0	762	0	poli_8sides 8_whiteLine3.jpg	MediumLong_e04_stereo_44KHz.wav
3	109	1	2	0	C	2	1	1170	1	poli_8sides 15_whiteLine3.jpg	Medium_e01_cut1_stereo_44KHz.wav
3	110	4	3	2	I	2	0	770	1	poli_8sides 8_whiteLine3.jpg	Medium_e13_stereo_44KHz.wav
3	111	2	2	1	C	1	1	884	1	poli_8sides 10_whiteLine3.jpg	Medium_e01_cut1_stereo_44KHz.wav
3	112	3	4	2	I	2	0	887	1	poli_8sides 7_whiteLine3.jpg	MediumLong_e04_stereo_44KHz.wav
3	113	2	2	1	C	1	1	1532	1	poli_8sides 10_whiteLine3.jpg	Medium_e01_cut1_stereo_44KHz.wav
3	114	1	2	0	C	1	0	874	0	poli_8sides 15_whiteLine3.jpg	Medium_e01_cut1_stereo_44KHz.wav
3	115	4	3	2	I	2	0	802	1	poli_8sides 8_whiteLine3.jpg	Medium_e13_stereo_44KHz.wav
3	116	3	3	2	I	1	0	827	1	poli_8sides 7_whiteLine3.jpg	Medium_e13_stereo_44KHz.wav
3	117	4	4	2	I	1	0	813	0	poli_8sides 8_whiteLine3.jpg	MediumLong_e04_stereo_44KHz.wav
3	118	3	4	2	I	2	0	749	1	poli_8sides 7_whiteLine3.jpg	MediumLong_e04_stereo_44KHz.wav
3	119	1	1	1	C	2	0	863	0	poli_8sides 15_whiteLine3.jpg	Medium_e26_stereo_44KHz.wav
3	120	2	1	0	C	2	1	790	1	poli_8sides 10_whiteLine3.jpg	Medium_e26_stereo_44KHz.wav
3	121	1	1	1	C	1	1	976	1	poli_8sides 15_whiteLine3.jpg	Medium_e26_stereo_44KHz.wav
3	122	4	4	2	I	1	0	945	0	poli_8sides 8_whiteLine3.jpg	MediumLong_e04_stereo_44KHz.wav
3	123	2	1	0	C	2	1	1024	1	poli_8sides 10_whiteLine3.jpg	Medium_e26_stereo_44KHz.wav
3	124	3	3	2	I	1	0	766	0	poli_8sides 7_whiteLine3.jpg	Medium_e13_stereo_44KHz.wav
3	125	1	2	0	C	1	0	829	0	poli_8sides 15_whiteLine3.jpg	Medium_e01_cut1_stereo_44KHz.wav
3	126	3	4	2	I	2	0	724	1	poli_8sides 7_whiteLine3.jpg	MediumLong_e04_stereo_44KHz.wav
3	127	2	2	1	C	1	1	685	1	poli_8sides 10_whiteLine3.jpg	Medium_e01_cut1_stereo_44KHz.wav
3	128	4	3	2	I	2	0	957	0	poli_8sides 8_whiteLine3.jpg	Medium_e13_stereo_44KHz.wav
3	129	2	2	1	C	2	0	1229	0	poli_8sides 10_whiteLine3.jpg	Medium_e01_cut1_stereo_44KHz.wav
3	130	4	4	2	I	1	0	1200	0	poli_8sides 8_whiteLine3.jpg	MediumLong_e04_stereo_44KHz.wav
3	131	3	4	2	I	2	0	995	0	poli_8sides 7_whiteLine3.jpg	MediumLong_e04_stereo_44KHz.wav
3	132	1	2	0	C	1	0	1050	0	poli_8sides 15_whiteLine3.jpg	Medium_e01_cut1_stereo_44KHz.wav
3	133	2	1	0	C	2	1	737	1	poli_8sides 10_whiteLine3.jpg	Medium_e26_stereo_44KHz.wav
3	134	3	3	2	I	1	0	920	0	poli_8sides 7_whiteLine3.jpg	Medium_e13_stereo_44KHz.wav
3	135	1	1	1	C	2	0	695	0	poli_8sides 15_whiteLine3.jpg	Medium_e26_stereo_44KHz.wav
3	136	4	3	2	I	2	0	877	0	poli_8sides 8_whiteLine3.jpg	Medium_e13_stereo_44KHz.wav
3	137	1	1	1	C	2	0	1000	0	poli_8sides 15_whiteLine3.jpg	Medium_e26_stereo_44KHz.wav
3	138	3	3	2	I	1	0	1286	0	poli_8sides 7_whiteLine3.jpg	Medium_e13_stereo_44KHz.wav
3	139	2	2	1	C	1	1	924	1	poli_8sides 10_whiteLine3.jpg	Medium_e01_cut1_stereo_44KHz.wav
3	140	4	3	2	I	2	0	1125	0	poli_8sides 8_whiteLine3.jpg	Medium_e13_stereo_44KHz.wav
3	141	1	2	0	C	1	0	923	0	poli_8sides 15_whiteLine3.jpg	Medium_e01_cut1_stereo_44KHz.wav
3	142	3	4	2	I	2	0	1241	1	poli_8sides 7_whiteLine3.jpg	MediumLong_e04_stereo_44KHz.wav
3	143	4	4	2	I	1	0	1116	0	poli_8sides 8_whiteLine3.jpg	MediumLong_e04_stereo_44KHz.wav
3	144	2	1	0	C	2	1	884	1	poli_8sides 10_whiteLine3.jpg	Medium_e26_stereo_44KHz.wav
3	145	4	4	2	I	1	0	803	0	poli_8sides 8_whiteLine3.jpg	MediumLong_e04_stereo_44KHz.wav
3	146	2	1	0	C	2	1	659	1	poli_8sides 10_whiteLine3.jpg	Medium_e26_stereo_44KHz.wav
3	147	3	4	2	I	1	0	808	1	poli_8sides 7_whiteLine3.jpg	MediumLong_e04_stereo_44KHz.wav
3	148	1	2	0	C	2	1	847	1	poli_8sides 15_whiteLine3.jpg	Medium_e01_cut1_stereo_44KHz.wav
3	149	2	2	1	C	1	1	893	1	poli_8sides 10_whiteLine3.jpg	Medium_e01_cut1_stereo_44KHz.wav
3	150	3	3	2	I	2	0	925	0	poli_8sides 7_whiteLine3.jpg	Medium_e13_stereo_44KHz.wav
3	151	1	1	1	C	1	1	971	1	poli_8sides 15_whiteLine3.jpg	Medium_e26_stereo_44KHz.wav
3	152	4	3	2	I	2	0	810	0	poli_8sides 8_whiteLine3.jpg	Medium_e13_stereo_44KHz.wav
3	153	3	4	2	I	2	0	1037	0	poli_8sides 7_whiteLine3.jpg	MediumLong_e04_stereo_44KHz.wav
3	154	1	1	1	C	2	0	852	0	poli_8sides 15_whiteLine3.jpg	Medium_e26_stereo_44KHz.wav
3	155	4	3	2	I	2	0	1123	1	poli_8sides 8_whiteLine3.jpg	Medium_e13_stereo_44KHz.wav
3	156	2	1	0	C	1	0	1023	0	poli_8sides 10_whiteLine3.jpg	Medium_e26_stereo_44KHz.wav
3	157	1	2	0	C	2	1	1003	1	poli_8sides 15_whiteLine3.jpg	Medium_e01_cut1_stereo_44KHz.wav
3	158	3	3	2	I	1	0	871	1	poli_8sides 7_whiteLine3.jpg	Medium_e13_stereo_44KHz.wav
3	159	2	2	1	C	1	1	1335	1	poli_8sides 10_whiteLine3.jpg	Medium_e01_cut1_stereo_44KHz.wav
3	160	4	4	2	I	1	0	773	0	poli_8sides 8_whiteLine3.jpg	MediumLong_e04_stereo_44KHz.wav
3	161	2	2	1	C	2	0	1297	0	poli_8sides 10_whiteLine3.jpg	Medium_e01_cut1_stereo_44KHz.wav
3	162	1	2	0	C	1	0	1167	0	poli_8sides 15_whiteLine3.jpg	Medium_e01_cut1_stereo_44KHz.wav
3	163	4	4	2	I	1	0	1055	1	poli_8sides 8_whiteLine3.jpg	MediumLong_e04_stereo_44KHz.wav
3	164	3	4	2	I	2	0	799	0	poli_8sides 7_whiteLine3.jpg	MediumLong_e04_stereo_44KHz.wav
3	165	4	3	2	I	2	0	769	0	poli_8sides 8_whiteLine3.jpg	Medium_e13_stereo_44KHz.wav
3	166	2	1	0	C	2	1	756	1	poli_8sides 10_whiteLine3.jpg	Medium_e26_stereo_44KHz.wav
3	167	3	3	2	I	1	0	750	1	poli_8sides 7_whiteLine3.jpg	Medium_e13_stereo_44KHz.wav
3	168	1	1	1	C	2	0	690	0	poli_8sides 15_whiteLine3.jpg	Medium_e26_stereo_44KHz.wav
3	169	3	3	2	I	1	0	1047	1	poli_8sides 7_whiteLine3.jpg	Medium_e13_stereo_44KHz.wav
3	170	1	2	0	C	2	1	1071	1	poli_8sides 15_whiteLine3.jpg	Medium_e01_cut1_stereo_44KHz.wav
3	171	4	4	2	I	1	0	1203	1	poli_8sides 8_whiteLine3.jpg	MediumLong_e04_stereo_44KHz.wav
3	172	2	1	0	C	2	1	707	1	poli_8sides 10_whiteLine3.jpg	Medium_e26_stereo_44KHz.wav
3	173	1	1	1	C	1	1	1174	1	poli_8sides 15_whiteLine3.jpg	Medium_e26_stereo_44KHz.wav
3	174	2	2	1	C	1	1	836	1	poli_8sides 10_whiteLine3.jpg	Medium_e01_cut1_stereo_44KHz.wav
3	175	4	3	2	I	2	0	1162	0	poli_8sides 8_whiteLine3.jpg	Medium_e13_stereo_44KHz.wav
3	176	3	4	2	I	2	0	1248	0	poli_8sides 7_whiteLine3.jpg	MediumLong_e04_stereo_44KHz.wav
3	177	1	2	0	C	1	0	774	0	poli_8sides 15_whiteLine3.jpg	Medium_e01_cut1_stereo_44KHz.wav
3	178	2	2	1	C	2	0	990	0	poli_8sides 10_whiteLine3.jpg	Medium_e01_cut1_stereo_44KHz.wav
3	179	3	3	2	I	2	0	916	1	poli_8sides 7_whiteLine3.jpg	Medium_e13_stereo_44KHz.wav
3	180	4	3	2	I	1	0	987	1	poli_8sides 8_whiteLine3.jpg	Medium_e13_stereo_44KHz.wav
3	181	1	1	1	C	2	0	650	0	poli_8sides 15_whiteLine3.jpg	Medium_e26_stereo_44KHz.wav
3	182	3	4	2	I	1	0	915	0	poli_8sides 7_whiteLine3.jpg	MediumLong_e04_stereo_44KHz.wav
3	183	4	4	2	I	2	0	832	1	poli_8sides 8_whiteLine3.jpg	MediumLong_e04_stereo_44KHz.wav
3	184	2	1	0	C	2	1	911	1	poli_8sides 10_whiteLine3.jpg	Medium_e26_stereo_44KHz.wav
3	185	1	1	1	C	1	1	759	1	poli_8sides 15_whiteLine3.jpg	Medium_e26_stereo_44KHz.wav
3	186	2	1	0	C	2	1	1100	1	poli_8sides 10_whiteLine3.jpg	Medium_e26_stereo_44KHz.wav
3	187	4	3	2	I	2	0	978	1	poli_8sides 8_whiteLine3.jpg	Medium_e13_stereo_44KHz.wav
3	188	3	4	2	I	2	0	1186	1	poli_8sides 7_whiteLine3.jpg	MediumLong_e04_stereo_44KHz.wav
3	189	4	4	2	I	1	0	813	1	poli_8sides 8_whiteLine3.jpg	MediumLong_e04_stereo_44KHz.wav
3	190	1	2	0	C	2	1	554	1	poli_8sides 15_whiteLine3.jpg	Medium_e01_cut1_stereo_44KHz.wav
3	191	2	2	1	C	1	1	963	1	poli_8sides 10_whiteLine3.jpg	Medium_e01_cut1_stereo_44KHz.wav
3	192	3	3	2	I	2	0	1039	0	poli_8sides 7_whiteLine3.jpg	Medium_e13_stereo_44KHz.wav
3	193	4	4	2	I	2	0	852	1	poli_8sides 8_whiteLine3.jpg	MediumLong_e04_stereo_44KHz.wav
3	194	2	1	0	C	2	1	820	1	poli_8sides 10_whiteLine3.jpg	Medium_e26_stereo_44KHz.wav
3	195	1	1	1	C	2	0	503	0	poli_8sides 15_whiteLine3.jpg	Medium_e26_stereo_44KHz.wav
3	196	3	3	2	I	1	0	895	0	poli_8sides 7_whiteLine3.jpg	Medium_e13_stereo_44KHz.wav
3	197	4	3	2	I	2	0	929	1	poli_8sides 8_whiteLine3.jpg	Medium_e13_stereo_44KHz.wav
3	198	1	2	0	C	2	1	926	1	poli_8sides 15_whiteLine3.jpg	Medium_e01_cut1_stereo_44KHz.wav
3	199	3	4	2	I	2	0	1018	0	poli_8sides 7_whiteLine3.jpg	MediumLong_e04_stereo_44KHz.wav
3	200	2	2	1	C	1	1	1182	1	poli_8sides 10_whiteLine3.jpg	Medium_e01_cut1_stereo_44KHz.wav
4	1	1	2	0	C	2	1	956	1	poli_8sides 4_whiteLine3.jpg	Short_b20_cut1_stereo_44KHz.wav
4	2	4	4	2	I	1	0	688	0	poli_8sides 3_whiteLine3.jpg	Short_b23_cut1_stereo_44KHz.wav
4	3	3	4	2	I	2	0	528	1	poli_8sides 2_whiteLine3.jpg	Short_b23_cut1_stereo_44KHz.wav
4	4	2	1	0	C	1	0	724	0	poli_8sides 6_whiteLine3.jpg	Short_b22_cut1_stereo_44KHz.wav
4	5	1	1	1	C	1	1	1011	1	poli_8sides 4_whiteLine3.jpg	Short_b22_cut1_stereo_44KHz.wav
4	6	4	3	2	I	2	0	822	1	poli_8sides 3_whiteLine3.jpg	Short_b09_cut1_stereo_44KHz.wav
4	7	2	2	1	C	2	0	1271	0	poli_8sides 6_whiteLine3.jpg	Short_b20_cut1_stereo_44KHz.wav
4	8	3	3	2	I	2	0	771	1	poli_8sides 2_whiteLine3.jpg	Short_b09_cut1_stereo_44KHz.wav
4	9	4	4	2	I	2	0	948	0	poli_8sides 3_whiteLine3.jpg	Short_b23_cut1_stereo_44KHz.wav
4	10	2	2	1	C	1	1	988	1	poli_8sides 6_whiteLine3.jpg	Short_b20_cut1_stereo_44KHz.wav
4	11	1	1	1	C	1	1	1131	1	poli_8sides 4_whiteLine3.jpg	Short_b22_cut1_stereo_44KHz.wav
4	12	3	4	2	I	2	0	656	1	poli_8sides 2_whiteLine3.jpg	Short_b23_cut1_stereo_44KHz.wav
4	13	1	2	0	C	2	1	911	1	poli_8sides 4_whiteLine3.jpg	Short_b20_cut1_stereo_44KHz.wav
4	14	2	1	0	C	1	0	811	0	poli_8sides 6_whiteLine3.jpg	Short_b22_cut1_stereo_44KHz.wav
4	15	3	3	2	I	2	0	680	0	poli_8sides 2_whiteLine3.jpg	Short_b09_cut1_stereo_44KHz.wav
4	16	4	3	2	I	2	0	994	0	poli_8sides 3_whiteLine3.jpg	Short_b09_cut1_stereo_44KHz.wav
4	17	2	1	0	C	1	0	826	0	poli_8sides 6_whiteLine3.jpg	Short_b22_cut1_stereo_44KHz.wav
4	18	1	1	1	C	2	0	774	0	poli_8sides 4_whiteLine3.jpg	Short_b22_cut1_stereo_44KHz.wav
4	19	4	3	2	I	2	0	783	0	poli_8sides 3_whiteLine3.jpg	Short_b09_cut1_stereo_44KHz.wav
4	20	3	3	2	I	2	0	817	0	poli_8sides 2_whiteLine3.jpg	Short_b09_cut1_stereo_44KHz.wav
4	21	1	2	0	C	1	0	800	0	poli_8sides 4_whiteLine3.jpg	Short_b20_cut1_stereo_44KHz.wav
4	22	2	2	1	C	1	1	839	1	poli_8sides 6_whiteLine3.jpg	Short_b20_cut1_stereo_44KHz.wav
4	23	3	4	2	I	2	0	828	1	poli_8sides 2_whiteLine3.jpg	Short_b23_cut1_stereo_44KHz.wav
4	24	4	4	2	I	1	0	810	1	poli_8sides 3_whiteLine3.jpg	Short_b23_cut1_stereo_44KHz.wav
4	25	2	1	0	C	2	1	1467	1	poli_8sides 6_whiteLine3.jpg	Short_b22_cut1_stereo_44KHz.wav
4	26	1	2	0	C	1	0	490	0	poli_8sides 4_whiteLine3.jpg	Short_b20_cut1_stereo_44KHz.wav
4	27	3	4	2	I	2	0	715	1	poli_8sides 2_whiteLine3.jpg	Short_b23_cut1_stereo_44KHz.wav
4	28	4	4	2	I	2	0	774	1	poli_8sides 3_whiteLine3.jpg	Short_b23_cut1_stereo_44KHz.wav
4	29	1	1	1	C	1	1	1263	1	poli_8sides 4_whiteLine3.jpg	Short_b22_cut1_stereo_44KHz.wav
4	30	2	2	1	C	1	1	807	1	poli_8sides 6_whiteLine3.jpg	Short_b20_cut1_stereo_44KHz.wav
4	31	4	3	2	I	2	0	915	0	poli_8sides 3_whiteLine3.jpg	Short_b09_cut1_stereo_44KHz.wav
4	32	3	3	2	I	2	0	1036	0	poli_8sides 2_whiteLine3.jpg	Short_b09_cut1_stereo_44KHz.wav
4	33	1	1	1	C	2	0	907	0	poli_8sides 4_whiteLine3.jpg	Short_b22_cut1_stereo_44KHz.wav
4	34	3	4	2	I	1	0	1271	0	poli_8sides 2_whiteLine3.jpg	Short_b23_cut1_stereo_44KHz.wav
4	35	4	4	2	I	2	0	661	0	poli_8sides 3_whiteLine3.jpg	Short_b23_cut1_stereo_44KHz.wav
4	36	2	1	0	C	2	1	912	1	poli_8sides 6_whiteLine3.jpg	Short_b22_cut1_stereo_44KHz.wav
4	37	4	3	2	I	1	0	758	0	poli_8sides 3_whiteLine3.jpg	Short_b09_cut1_stereo_44KHz.wav
4	38	2	2	1	C	2	0	779	0	poli_8sides 6_whiteLine3.jpg	Short_b20_cut1_stereo_44KHz.wav
4	39	1	2	0	C	2	1	891	1	poli_8sides 4_whiteLine3.jpg	Short_b20_cut1_stereo_44KHz.wav
4	40	3	3	2	I	2	0	788	0	poli_8sides 2_whiteLine3.jpg	Short_b09_cut1_stereo_44KHz.wav
4	41	1	2	0	C	1	0	944	0	poli_8sides 4_whiteLine3.jpg	Short_b20_cut1_stereo_44KHz.wav
4	42	3	3	2	I	2	0	734	1	poli_8sides 2_whiteLine3.jpg	Short_b09_cut1_stereo_44KHz.wav
4	43	2	1	0	C	2	1	969	1	poli_8sides 6_whiteLine3.jpg	Short_b22_cut1_stereo_44KHz.wav
4	44	4	4	2	I	2	0	739	0	poli_8sides 3_whiteLine3.jpg	Short_b23_cut1_stereo_44KHz.wav
4	45	3	4	2	I	2	0	697	0	poli_8sides 2_whiteLine3.jpg	Short_b23_cut1_stereo_44KHz.wav
4	46	1	1	1	C	2	0	750	0	poli_8sides 4_whiteLine3.jpg	Short_b22_cut1_stereo_44KHz.wav
4	47	4	3	2	I	1	0	845	0	poli_8sides 3_whiteLine3.jpg	Short_b09_cut1_stereo_44KHz.wav
4	48	2	2	1	C	2	0	763	0	poli_8sides 6_whiteLine3.jpg	Short_b20_cut1_stereo_44KHz.wav
4	49	4	3	2	I	2	0	699	1	poli_8sides 3_whiteLine3.jpg	Short_b09_cut1_stereo_44KHz.wav
4	50	2	1	0	C	2	1	732	1	poli_8sides 6_whiteLine3.jpg	Short_b22_cut1_stereo_44KHz.wav
4	51	3	4	2	I	2	0	1225	0	poli_8sides 2_whiteLine3.jpg	Short_b23_cut1_stereo_44KHz.wav
4	52	1	2	0	C	2	1	1134	1	poli_8sides 4_whiteLine3.jpg	Short_b20_cut1_stereo_44KHz.wav
4	53	3	3	2	I	2	0	1005	1	poli_8sides 2_whiteLine3.jpg	Short_b09_cut1_stereo_44KHz.wav
4	54	2	2	1	C	2	0	705	0	poli_8sides 6_whiteLine3.jpg	Short_b20_cut1_stereo_44KHz.wav
4	55	4	4	2	I	2	0	853	1	poli_8sides 3_whiteLine3.jpg	Short_b23_cut1_stereo_44KHz.wav
4	56	1	1	1	C	1	1	922	1	poli_8sides 4_whiteLine3.jpg	Short_b22_cut1_stereo_44KHz.wav
4	57	4	4	2	I	2	0	624	0	poli_8sides 3_whiteLine3.jpg	Short_b23_cut1_stereo_44KHz.wav
4	58	2	1	0	C	2	1	1081	1	poli_8sides 6_whiteLine3.jpg	Short_b22_cut1_stereo_44KHz.wav
4	59	3	4	2	I	1	0	970	0	poli_8sides 2_whiteLine3.jpg	Short_b23_cut1_stereo_44KHz.wav
4	60	1	2	0	C	2	1	749	1	poli_8sides 4_whiteLine3.jpg	Short_b20_cut1_stereo_44KHz.wav
4	61	4	3	2	I	1	0	855	0	poli_8sides 3_whiteLine3.jpg	Short_b09_cut1_stereo_44KHz.wav
4	62	1	1	1	C	2	0	573	0	poli_8sides 4_whiteLine3.jpg	Short_b22_cut1_stereo_44KHz.wav
4	63	3	3	2	I	2	0	644	1	poli_8sides 2_whiteLine3.jpg	Short_b09_cut1_stereo_44KHz.wav
4	64	2	2	1	C	1	1	778	1	poli_8sides 6_whiteLine3.jpg	Short_b20_cut1_stereo_44KHz.wav
4	65	1	2	0	C	2	1	1131	1	poli_8sides 4_whiteLine3.jpg	Short_b20_cut1_stereo_44KHz.wav
4	66	4	4	2	I	2	0	672	1	poli_8sides 3_whiteLine3.jpg	Short_b23_cut1_stereo_44KHz.wav
4	67	3	4	2	I	1	0	921	0	poli_8sides 2_whiteLine3.jpg	Short_b23_cut1_stereo_44KHz.wav
4	68	2	2	1	C	2	0	961	0	poli_8sides 6_whiteLine3.jpg	Short_b20_cut1_stereo_44KHz.wav
4	69	1	1	1	C	1	1	1061	1	poli_8sides 4_whiteLine3.jpg	Short_b22_cut1_stereo_44KHz.wav
4	70	2	1	0	C	2	1	1232	1	poli_8sides 6_whiteLine3.jpg	Short_b22_cut1_stereo_44KHz.wav
4	71	3	3	2	I	2	0	778	1	poli_8sides 2_whiteLine3.jpg	Short_b09_cut1_stereo_44KHz.wav
4	72	4	3	2	I	2	0	593	0	poli_8sides 3_whiteLine3.jpg	Short_b09_cut1_stereo_44KHz.wav
4	73	1	2	0	C	2	1	1216	1	poli_8sides 4_whiteLine3.jpg	Short_b20_cut1_stereo_44KHz.wav
4	74	2	2	1	C	2	0	767	0	poli_8sides 6_whiteLine3.jpg	Short_b20_cut1_stereo_44KHz.wav
4	75	3	4	2	I	2	0	765	0	poli_8sides 2_whiteLine3.jpg	Short_b23_cut1_stereo_44KHz.wav
4	76	4	4	2	I	2	0	851	1	poli_8sides 3_whiteLine3.jpg	Short_b23_cut1_stereo_44KHz.wav
4	77	3	3	2	I	2	0	867	0	poli_8sides 2_whiteLine3.jpg	Short_b09_cut1_stereo_44KHz.wav
4	78	2	1	0	C	2	1	1235	1	poli_8sides 6_whiteLine3.jpg	Short_b22_cut1_stereo_44KHz.wav
4	79	1	1	1	C	1	1	897	1	poli_8sides 4_whiteLine3.jpg	Short_b22_cut1_stereo_44KHz.wav
4	80	4	3	2	I	2	0	760	0	poli_8sides 3_whiteLine3.jpg	Short_b09_cut1_stereo_44KHz.wav
4	81	2	2	1	C	2	0	877	0	poli_8sides 6_whiteLine3.jpg	Short_b20_cut1_stereo_44KHz.wav
4	82	4	3	2	I	2	0	1239	1	poli_8sides 3_whiteLine3.jpg	Short_b09_cut1_stereo_44KHz.wav
4	83	1	2	0	C	1	0	819	0	poli_8sides 4_whiteLine3.jpg	Short_b20_cut1_stereo_44KHz.wav
4	84	3	3	2	I	2	0	750	0	poli_8sides 2_whiteLine3.jpg	Short_b09_cut1_stereo_44KHz.wav
4	85	1	1	1	C	2	0	639	0	poli_8sides 4_whiteLine3.jpg	Short_b22_cut1_stereo_44KHz.wav
4	86	2	1	0	C	1	0	771	0	poli_8sides 6_whiteLine3.jpg	Short_b22_cut1_stereo_44KHz.wav
4	87	4	4	2	I	2	0	969	0	poli_8sides 3_whiteLine3.jpg	Short_b23_cut1_stereo_44KHz.wav
4	88	3	4	2	I	1	0	399	1	poli_8sides 2_whiteLine3.jpg	Short_b23_cut1_stereo_44KHz.wav
4	89	1	2	0	C	1	0	580	0	poli_8sides 4_whiteLine3.jpg	Short_b20_cut1_stereo_44KHz.wav
4	90	4	4	2	I	1	0	877	1	poli_8sides 3_whiteLine3.jpg	Short_b23_cut1_stereo_44KHz.wav
4	91	2	1	0	C	2	1	750	1	poli_8sides 6_whiteLine3.jpg	Short_b22_cut1_stereo_44KHz.wav
4	92	3	4	2	I	2	0	770	0	poli_8sides 2_whiteLine3.jpg	Short_b23_cut1_stereo_44KHz.wav
4	93	1	1	1	C	2	0	597	0	poli_8sides 4_whiteLine3.jpg	Short_b22_cut1_stereo_44KHz.wav
4	94	2	2	1	C	1	1	907	1	poli_8sides 6_whiteLine3.jpg	Short_b20_cut1_stereo_44KHz.wav
4	95	4	3	2	I	2	0	702	1	poli_8sides 3_whiteLine3.jpg	Short_b09_cut1_stereo_44KHz.wav
4	96	3	3	2	I	2	0	805	1	poli_8sides 2_whiteLine3.jpg	Short_b09_cut1_stereo_44KHz.wav
4	97	4	3	2	I	2	0	621	1	poli_8sides 3_whiteLine3.jpg	Short_b09_cut1_stereo_44KHz.wav
4	98	2	2	1	C	2	0	742	0	poli_8sides 6_whiteLine3.jpg	Short_b20_cut1_stereo_44KHz.wav
4	99	1	2	0	C	1	0	805	0	poli_8sides 4_whiteLine3.jpg	Short_b20_cut1_stereo_44KHz.wav
4	100	3	3	2	I	2	0	634	0	poli_8sides 2_whiteLine3.jpg	Short_b09_cut1_stereo_44KHz.wav
4	101	2	1	0	C	2	1	722	1	poli_8sides 6_whiteLine3.jpg	Short_b22_cut1_stereo_44KHz.wav
4	102	4	4	2	I	1	0	773	1	poli_8sides 3_whiteLine3.jpg	Short_b23_cut1_stereo_44KHz.wav
4	103	1	1	1	C	2	0	502	0	poli_8sides 4_whiteLine3.jpg	Short_b22_cut1_stereo_44KHz.wav
4	104	3	4	2	I	2	0	1007	0	poli_8sides 2_whiteLine3.jpg	Short_b23_cut1_stereo_44KHz.wav
4	105	4	4	2	I	2	0	873	1	poli_8sides 3_whiteLine3.jpg	Short_b23_cut1_stereo_44KHz.wav
4	106	2	2	1	C	1	1	777	1	poli_8sides 6_whiteLine3.jpg	Short_b20_cut1_stereo_44KHz.wav
4	107	3	3	2	I	2	0	1047	1	poli_8sides 2_whiteLine3.jpg	Short_b09_cut1_stereo_44KHz.wav
4	108	1	1	1	C	2	0	1007	0	poli_8sides 4_whiteLine3.jpg	Short_b22_cut1_stereo_44KHz.wav
4	109	3	4	2	I	2	0	948	1	poli_8sides 2_whiteLine3.jpg	Short_b23_cut1_stereo_44KHz.wav
4	110	4	3	2	I	1	0	659	0	poli_8sides 3_whiteLine3.jpg	Short_b09_cut1_stereo_44KHz.wav
4	111	2	1	0	C	2	1	659	1	poli_8sides 6_whiteLine3.jpg	Short_b22_cut1_stereo_44KHz.wav
4	112	1	2	0	C	2	1	401	1	poli_8sides 4_whiteLine3.jpg	Short_b20_cut1_stereo_44KHz.wav
4	113	4	4	2	I	2	0	607	0	poli_8sides 3_whiteLine3.jpg	Short_b23_cut1_stereo_44KHz.wav
4	114	1	2	0	C	1	0	399	0	poli_8sides 4_whiteLine3.jpg	Short_b20_cut1_stereo_44KHz.wav
4	115	3	3	2	I	2	0	1083	1	poli_8sides 2_whiteLine3.jpg	Short_b09_cut1_stereo_44KHz.wav
4	116	2	2	1	C	2	0	846	0	poli_8sides 6_whiteLine3.jpg	Short_b20_cut1_stereo_44KHz.wav
4	117	3	4	2	I	2	0	601	1	poli_8sides 2_whiteLine3.jpg	Short_b23_cut1_stereo_44KHz.wav
4	118	2	1	0	C	1	0	415	0	poli_8sides 6_whiteLine3.jpg	Short_b22_cut1_stereo_44KHz.wav
4	119	1	1	1	C	2	0	730	0	poli_8sides 4_whiteLine3.jpg	Short_b22_cut1_stereo_44KHz.wav
4	120	4	3	2	I	1	0	449	1	poli_8sides 3_whiteLine3.jpg	Short_b09_cut1_stereo_44KHz.wav
4	121	2	2	1	C	2	0	383	0	poli_8sides 6_whiteLine3.jpg	Short_b20_cut1_stereo_44KHz.wav
4	122	1	2	0	C	2	1	607	1	poli_8sides 4_whiteLine3.jpg	Short_b20_cut1_stereo_44KHz.wav
4	123	3	3	2	I	2	0	521	0	poli_8sides 2_whiteLine3.jpg	Short_b09_cut1_stereo_44KHz.wav
4	124	4	3	2	I	2	0	769	1	poli_8sides 3_whiteLine3.jpg	Short_b09_cut1_stereo_44KHz.wav
4	125	3	4	2	I	1	0	846	0	poli_8sides 2_whiteLine3.jpg	Short_b23_cut1_stereo_44KHz.wav
4	126	2	1	0	C	2	1	373	1	poli_8sides 6_whiteLine3.jpg	Short_b22_cut1_stereo_44KHz.wav
4	127	4	4	2	I	2	0	591	1	poli_8sides 3_whiteLine3.jpg	Short_b23_cut1_stereo_44KHz.wav
4	128	1	1	1	C	1	1	680	1	poli_8sides 4_whiteLine3.jpg	Short_b22_cut1_stereo_44KHz.wav
4	129	3	4	2	I	2	0	424	1	poli_8sides 2_whiteLine3.jpg	Short_b23_cut1_stereo_44KHz.wav
4	130	4	3	2	I	2	0	407	0	poli_8sides 3_whiteLine3.jpg	Short_b09_cut1_stereo_44KHz.wav
4	131	2	2	1	C	1	1	474	1	poli_8sides 6_whiteLine3.jpg	Short_b20_cut1_stereo_44KHz.wav
4	132	1	1	1	C	2	0	521	0	poli_8sides 4_whiteLine3.jpg	Short_b22_cut1_stereo_44KHz.wav
4	133	2	1	0	C	2	1	633	1	poli_8sides 6_whiteLine3.jpg	Short_b22_cut1_stereo_44KHz.wav
4	134	3	3	2	I	1	0	493	0	poli_8sides 2_whiteLine3.jpg	Short_b09_cut1_stereo_44KHz.wav
4	135	4	4	2	I	2	0	583	1	poli_8sides 3_whiteLine3.jpg	Short_b23_cut1_stereo_44KHz.wav
4	136	1	2	0	C	1	0	551	0	poli_8sides 4_whiteLine3.jpg	Short_b20_cut1_stereo_44KHz.wav
4	137	4	4	2	I	2	0	542	1	poli_8sides 3_whiteLine3.jpg	Short_b23_cut1_stereo_44KHz.wav
4	138	1	2	0	C	2	1	523	1	poli_8sides 4_whiteLine3.jpg	Short_b20_cut1_stereo_44KHz.wav
4	139	2	1	0	C	1	0	1001	0	poli_8sides 6_whiteLine3.jpg	Short_b22_cut1_stereo_44KHz.wav
4	140	3	3	2	I	2	0	732	0	poli_8sides 2_whiteLine3.jpg	Short_b09_cut1_stereo_44KHz.wav
4	141	1	1	1	C	1	1	735	1	poli_8sides 4_whiteLine3.jpg	Short_b22_cut1_stereo_44KHz.wav
4	142	2	2	1	C	2	0	1049	0	poli_8sides 6_whiteLine3.jpg	Short_b20_cut1_stereo_44KHz.wav
4	143	3	4	2	I	1	0	873	0	poli_8sides 2_whiteLine3.jpg	Short_b23_cut1_stereo_44KHz.wav
4	144	4	3	2	I	2	0	455	1	poli_8sides 3_whiteLine3.jpg	Short_b09_cut1_stereo_44KHz.wav
4	145	1	1	1	C	1	1	508	1	poli_8sides 4_whiteLine3.jpg	Short_b22_cut1_stereo_44KHz.wav
4	146	2	1	0	C	2	1	174	1	poli_8sides 6_whiteLine3.jpg	Short_b22_cut1_stereo_44KHz.wav
4	147	3	3	2	I	2	0	904	0	poli_8sides 2_whiteLine3.jpg	Short_b09_cut1_stereo_44KHz.wav
4	148	4	3	2	I	2	0	555	0	poli_8sides 3_whiteLine3.jpg	Short_b09_cut1_stereo_44KHz.wav
4	149	2	2	1	C	1	1	788	1	poli_8sides 6_whiteLine3.jpg	Short_b20_cut1_stereo_44KHz.wav
4	150	1	2	0	C	1	0	1081	0	poli_8sides 4_whiteLine3.jpg	Short_b20_cut1_stereo_44KHz.wav
4	151	4	4	2	I	2	0	708	0	poli_8sides 3_whiteLine3.jpg	Short_b23_cut1_stereo_44KHz.wav
4	152	3	4	2	I	2	0	585	0	poli_8sides 2_whiteLine3.jpg	Short_b23_cut1_stereo_44KHz.wav
4	153	1	2	0	C	2	1	519	1	poli_8sides 4_whiteLine3.jpg	Short_b20_cut1_stereo_44KHz.wav
4	154	3	4	2	I	1	0	927	1	poli_8sides 2_whiteLine3.jpg	Short_b23_cut1_stereo_44KHz.wav
4	155	4	3	2	I	2	0	688	1	poli_8sides 3_whiteLine3.jpg	Short_b09_cut1_stereo_44KHz.wav
4	156	2	1	0	C	2	1	22	1	poli_8sides 6_whiteLine3.jpg	Short_b22_cut1_stereo_44KHz.wav
4	157	4	4	2	I	2	0	854	0	poli_8sides 3_whiteLine3.jpg	Short_b23_cut1_stereo_44KHz.wav
4	158	3	3	2	I	1	0	403	0	poli_8sides 2_whiteLine3.jpg	Short_b09_cut1_stereo_44KHz.wav
4	159	2	2	1	C	2	0	427	0	poli_8sides 6_whiteLine3.jpg	Short_b20_cut1_stereo_44KHz.wav
4	160	1	1	1	C	1	1	1257	1	poli_8sides 4_whiteLine3.jpg	Short_b22_cut1_stereo_44KHz.wav
4	161	4	3	2	I	2	0	622	1	poli_8sides 3_whiteLine3.jpg	Short_b09_cut1_stereo_44KHz.wav
4	162	1	1	1	C	2	0	652	0	poli_8sides 4_whiteLine3.jpg	Short_b22_cut1_stereo_44KHz.wav
4	163	3	3	2	I	2	0	656	1	poli_8sides 2_whiteLine3.jpg	Short_b09_cut1_stereo_44KHz.wav
4	164	2	1	0	C	2	1	753	1	poli_8sides 6_whiteLine3.jpg	Short_b22_cut1_stereo_44KHz.wav
4	165	1	2	0	C	1	0	544	0	poli_8sides 4_whiteLine3.jpg	Short_b20_cut1_stereo_44KHz.wav
4	166	2	2	1	C	2	0	579	0	poli_8sides 6_whiteLine3.jpg	Short_b20_cut1_stereo_44KHz.wav
4	167	3	4	2	I	2	0	411	1	poli_8sides 2_whiteLine3.jpg	Short_b23_cut1_stereo_44KHz.wav
4	168	4	4	2	I	2	0	378	0	poli_8sides 3_whiteLine3.jpg	Short_b23_cut1_stereo_44KHz.wav
4	169	2	1	0	C	2	1	595	1	poli_8sides 6_whiteLine3.jpg	Short_b22_cut1_stereo_44KHz.wav
4	170	3	4	2	I	2	0	545	1	poli_8sides 2_whiteLine3.jpg	Short_b23_cut1_stereo_44KHz.wav
4	171	1	2	0	C	2	1	1207	1	poli_8sides 4_whiteLine3.jpg	Short_b20_cut1_stereo_44KHz.wav
4	172	4	3	2	I	2	0	487	0	poli_8sides 3_whiteLine3.jpg	Short_b09_cut1_stereo_44KHz.wav
4	173	3	3	2	I	2	0	634	1	poli_8sides 2_whiteLine3.jpg	Short_b09_cut1_stereo_44KHz.wav
4	174	2	2	1	C	2	0	932	0	poli_8sides 6_whiteLine3.jpg	Short_b20_cut1_stereo_44KHz.wav
4	175	1	1	1	C	1	1	881	1	poli_8sides 4_whiteLine3.jpg	Short_b22_cut1_stereo_44KHz.wav
4	176	4	4	2	I	2	0	802	0	poli_8sides 3_whiteLine3.jpg	Short_b23_cut1_stereo_44KHz.wav
4	177	3	4	2	I	2	0	836	1	poli_8sides 2_whiteLine3.jpg	Short_b23_cut1_stereo_44KHz.wav
4	178	2	2	1	C	1	1	1123	1	poli_8sides 6_whiteLine3.jpg	Short_b20_cut1_stereo_44KHz.wav
4	179	1	1	1	C	2	0	1262	0	poli_8sides 4_whiteLine3.jpg	Short_b22_cut1_stereo_44KHz.wav
4	180	4	3	2	I	2	0	1414	1	poli_8sides 3_whiteLine3.jpg	Short_b09_cut1_stereo_44KHz.wav
4	181	1	2	0	C	2	1	958	1	poli_8sides 4_whiteLine3.jpg	Short_b20_cut1_stereo_44KHz.wav
4	182	4	4	2	I	2	0	831	1	poli_8sides 3_whiteLine3.jpg	Short_b23_cut1_stereo_44KHz.wav
4	183	3	3	2	I	1	0	678	0	poli_8sides 2_whiteLine3.jpg	Short_b09_cut1_stereo_44KHz.wav
4	184	2	1	0	C	2	1	591	1	poli_8sides 6_whiteLine3.jpg	Short_b22_cut1_stereo_44KHz.wav
4	185	1	2	0	C	2	1	819	1	poli_8sides 4_whiteLine3.jpg	Short_b20_cut1_stereo_44KHz.wav
4	186	2	1	0	C	1	0	634	0	poli_8sides 6_whiteLine3.jpg	Short_b22_cut1_stereo_44KHz.wav
4	187	3	3	2	I	2	0	607	0	poli_8sides 2_whiteLine3.jpg	Short_b09_cut1_stereo_44KHz.wav
4	188	4	4	2	I	1	0	744	0	poli_8sides 3_whiteLine3.jpg	Short_b23_cut1_stereo_44KHz.wav
4	189	3	4	2	I	2	0	759	1	poli_8sides 2_whiteLine3.jpg	Short_b23_cut1_stereo_44KHz.wav
4	190	1	1	1	C	1	1	744	1	poli_8sides 4_whiteLine3.jpg	Short_b22_cut1_stereo_44KHz.wav
4	191	2	2	1	C	2	0	850	0	poli_8sides 6_whiteLine3.jpg	Short_b20_cut1_stereo_44KHz.wav
4	192	4	3	2	I	2	0	658	1	poli_8sides 3_whiteLine3.jpg	Short_b09_cut1_stereo_44KHz.wav
4	193	3	4	2	I	1	0	556	1	poli_8sides 2_whiteLine3.jpg	Short_b23_cut1_stereo_44KHz.wav
4	194	2	2	1	C	2	0	477	0	poli_8sides 6_whiteLine3.jpg	Short_b20_cut1_stereo_44KHz.wav
4	195	1	2	0	C	2	1	625	1	poli_8sides 4_whiteLine3.jpg	Short_b20_cut1_stereo_44KHz.wav
4	196	4	3	2	I	2	0	891	0	poli_8sides 3_whiteLine3.jpg	Short_b09_cut1_stereo_44KHz.wav
4	197	3	3	2	I	2	0	687	1	poli_8sides 2_whiteLine3.jpg	Short_b09_cut1_stereo_44KHz.wav
4	198	2	1	0	C	1	0	706	0	poli_8sides 6_whiteLine3.jpg	Short_b22_cut1_stereo_44KHz.wav
4	199	1	1	1	C	2	0	1372	0	poli_8sides 4_whiteLine3.jpg	Short_b22_cut1_stereo_44KHz.wav
4	200	4	4	2	I	2	0	728	1	poli_8sides 3_whiteLine3.jpg	Short_b23_cut1_stereo_44KHz.wav
