block	trial	Vstim	Astim	match	C/I	resp	result	RT	fb	V-file	A-file
LR

0	1	2	4	0	C	2	0	1425	0	poli_8sides 22_whiteLine3.jpg	Practice3_b26_cut1_stereo_44KHz.wav
0	2	2	3	1	C	1	0	663	0	poli_8sides 22_whiteLine3.jpg	Practice1_b27_cut1_stereo_44KHz.wav
0	3	1	1	1	C	2	1	630	1	poli_8sides 24_whiteLine3.jpg	Practice2_b27_cut2_stereo_44KHz.wav
0	4	1	2	0	C	1	1	608	1	poli_8sides 24_whiteLine3.jpg	Practice4_b26_stereo_44KHz.wav
0	5	1	1	1	C	2	1	601	1	poli_8sides 24_whiteLine3.jpg	Practice2_b27_cut2_stereo_44KHz.wav
0	6	2	3	1	C	1	0	616	0	poli_8sides 22_whiteLine3.jpg	Practice1_b27_cut1_stereo_44KHz.wav
0	7	1	2	0	C	2	0	797	0	poli_8sides 24_whiteLine3.jpg	Practice4_b26_stereo_44KHz.wav
0	8	2	4	0	C	1	1	564	1	poli_8sides 22_whiteLine3.jpg	Practice3_b26_cut1_stereo_44KHz.wav
0	9	2	4	0	C	1	1	451	1	poli_8sides 22_whiteLine3.jpg	Practice3_b26_cut1_stereo_44KHz.wav
0	10	1	1	1	C	1	0	583	0	poli_8sides 24_whiteLine3.jpg	Practice2_b27_cut2_stereo_44KHz.wav
0	11	2	3	1	C	2	1	709	1	poli_8sides 22_whiteLine3.jpg	Practice1_b27_cut1_stereo_44KHz.wav
0	12	1	2	0	C	1	1	591	1	poli_8sides 24_whiteLine3.jpg	Practice4_b26_stereo_44KHz.wav
0	13	1	1	1	C	2	1	637	1	poli_8sides 24_whiteLine3.jpg	Practice2_b27_cut2_stereo_44KHz.wav
0	14	2	3	1	C	1	0	547	0	poli_8sides 22_whiteLine3.jpg	Practice1_b27_cut1_stereo_44KHz.wav
0	15	1	2	0	C	1	1	668	1	poli_8sides 24_whiteLine3.jpg	Practice4_b26_stereo_44KHz.wav
0	16	2	4	0	C	2	0	733	0	poli_8sides 22_whiteLine3.jpg	Practice3_b26_cut1_stereo_44KHz.wav
0	17	2	4	0	C	1	1	645	1	poli_8sides 22_whiteLine3.jpg	Practice3_b26_cut1_stereo_44KHz.wav
0	18	1	2	0	C	1	1	594	1	poli_8sides 24_whiteLine3.jpg	Practice4_b26_stereo_44KHz.wav
0	19	2	3	1	C	2	1	1098	1	poli_8sides 22_whiteLine3.jpg	Practice1_b27_cut1_stereo_44KHz.wav
0	20	1	1	1	C	2	1	931	1	poli_8sides 24_whiteLine3.jpg	Practice2_b27_cut2_stereo_44KHz.wav
0	21	1	2	0	C	1	1	507	1	poli_8sides 24_whiteLine3.jpg	Practice4_b26_stereo_44KHz.wav
0	22	2	3	1	C	2	1	748	1	poli_8sides 22_whiteLine3.jpg	Practice1_b27_cut1_stereo_44KHz.wav
0	23	2	4	0	C	1	1	448	1	poli_8sides 22_whiteLine3.jpg	Practice3_b26_cut1_stereo_44KHz.wav
0	24	1	1	1	C	2	1	862	1	poli_8sides 24_whiteLine3.jpg	Practice2_b27_cut2_stereo_44KHz.wav
0	25	2	4	0	C	1	1	896	1	poli_8sides 22_whiteLine3.jpg	Practice3_b26_cut1_stereo_44KHz.wav
0	26	1	2	0	C	2	0	515	0	poli_8sides 24_whiteLine3.jpg	Practice4_b26_stereo_44KHz.wav
0	27	1	1	1	C	2	1	851	1	poli_8sides 24_whiteLine3.jpg	Practice2_b27_cut2_stereo_44KHz.wav
0	28	2	3	1	C	1	0	724	0	poli_8sides 22_whiteLine3.jpg	Practice1_b27_cut1_stereo_44KHz.wav
0	29	2	3	1	C	1	0	640	0	poli_8sides 22_whiteLine3.jpg	Practice1_b27_cut1_stereo_44KHz.wav
0	30	1	1	1	C	2	1	791	1	poli_8sides 24_whiteLine3.jpg	Practice2_b27_cut2_stereo_44KHz.wav
avg_resp = 692
1	1	4	3	2	I	2	0	905	1	poli_8sides 15_whiteLine3.jpg	Medium_e01_cut1_stereo_44KHz.wav
1	2	1	1	1	C	2	1	722	1	poli_8sides 12_whiteLine3.jpg	MediumLong_b10_cut2_L_stereo_44KHz.wav
1	3	3	3	2	I	1	0	574	1	poli_8sides 7_whiteLine3.jpg	Medium_e01_cut1_stereo_44KHz.wav
1	4	2	2	1	C	1	0	887	0	poli_8sides 2_whiteLine3.jpg	MediumLong_e17_cut2_stereo_44KHz.wav
1	5	4	4	2	I	1	0	735	0	poli_8sides 15_whiteLine3.jpg	Medium_e13_stereo_44KHz.wav
1	6	2	1	0	C	1	1	824	1	poli_8sides 2_whiteLine3.jpg	MediumLong_b10_cut2_L_stereo_44KHz.wav
1	7	3	4	2	I	1	0	721	0	poli_8sides 7_whiteLine3.jpg	Medium_e13_stereo_44KHz.wav
1	8	1	2	0	C	2	0	660	0	poli_8sides 12_whiteLine3.jpg	MediumLong_e17_cut2_stereo_44KHz.wav
1	9	3	3	2	I	1	0	767	0	poli_8sides 7_whiteLine3.jpg	Medium_e01_cut1_stereo_44KHz.wav
1	10	4	4	2	I	2	0	687	1	poli_8sides 15_whiteLine3.jpg	Medium_e13_stereo_44KHz.wav
1	11	1	2	0	C	1	1	777	1	poli_8sides 12_whiteLine3.jpg	MediumLong_e17_cut2_stereo_44KHz.wav
1	12	2	1	0	C	1	1	709	1	poli_8sides 2_whiteLine3.jpg	MediumLong_b10_cut2_L_stereo_44KHz.wav
1	13	1	1	1	C	2	1	828	1	poli_8sides 12_whiteLine3.jpg	MediumLong_b10_cut2_L_stereo_44KHz.wav
1	14	4	3	2	I	1	0	733	0	poli_8sides 15_whiteLine3.jpg	Medium_e01_cut1_stereo_44KHz.wav
1	15	3	4	2	I	1	0	785	0	poli_8sides 7_whiteLine3.jpg	Medium_e13_stereo_44KHz.wav
1	16	2	2	1	C	1	0	747	0	poli_8sides 2_whiteLine3.jpg	MediumLong_e17_cut2_stereo_44KHz.wav
1	17	3	3	2	I	1	0	739	1	poli_8sides 7_whiteLine3.jpg	Medium_e01_cut1_stereo_44KHz.wav
1	18	4	3	2	I	2	0	686	1	poli_8sides 15_whiteLine3.jpg	Medium_e01_cut1_stereo_44KHz.wav
1	19	1	2	0	C	1	1	841	1	poli_8sides 12_whiteLine3.jpg	MediumLong_e17_cut2_stereo_44KHz.wav
1	20	2	1	0	C	1	1	580	1	poli_8sides 2_whiteLine3.jpg	MediumLong_b10_cut2_L_stereo_44KHz.wav
1	21	4	4	2	I	1	0	763	1	poli_8sides 15_whiteLine3.jpg	Medium_e13_stereo_44KHz.wav
1	22	1	1	1	C	1	0	875	0	poli_8sides 12_whiteLine3.jpg	MediumLong_b10_cut2_L_stereo_44KHz.wav
1	23	2	2	1	C	1	0	613	0	poli_8sides 2_whiteLine3.jpg	MediumLong_e17_cut2_stereo_44KHz.wav
1	24	3	4	2	I	1	0	519	1	poli_8sides 7_whiteLine3.jpg	Medium_e13_stereo_44KHz.wav
1	25	4	3	2	I	1	0	808	1	poli_8sides 15_whiteLine3.jpg	Medium_e01_cut1_stereo_44KHz.wav
1	26	1	2	0	C	1	1	579	1	poli_8sides 12_whiteLine3.jpg	MediumLong_e17_cut2_stereo_44KHz.wav
1	27	3	4	2	I	2	0	508	1	poli_8sides 7_whiteLine3.jpg	Medium_e13_stereo_44KHz.wav
1	28	2	2	1	C	1	0	654	0	poli_8sides 2_whiteLine3.jpg	MediumLong_e17_cut2_stereo_44KHz.wav
1	29	3	3	2	I	1	0	668	0	poli_8sides 7_whiteLine3.jpg	Medium_e01_cut1_stereo_44KHz.wav
1	30	2	1	0	C	1	1	762	1	poli_8sides 2_whiteLine3.jpg	MediumLong_b10_cut2_L_stereo_44KHz.wav
1	31	1	1	1	C	2	1	769	1	poli_8sides 12_whiteLine3.jpg	MediumLong_b10_cut2_L_stereo_44KHz.wav
1	32	4	4	2	I	1	0	571	1	poli_8sides 15_whiteLine3.jpg	Medium_e13_stereo_44KHz.wav
1	33	2	2	1	C	1	0	680	0	poli_8sides 2_whiteLine3.jpg	MediumLong_e17_cut2_stereo_44KHz.wav
1	34	1	2	0	C	2	0	841	0	poli_8sides 12_whiteLine3.jpg	MediumLong_e17_cut2_stereo_44KHz.wav
1	35	3	4	2	I	2	0	1027	0	poli_8sides 7_whiteLine3.jpg	Medium_e13_stereo_44KHz.wav
1	36	4	4	2	I	1	0	752	0	poli_8sides 15_whiteLine3.jpg	Medium_e13_stereo_44KHz.wav
1	37	3	3	2	I	2	0	909	1	poli_8sides 7_whiteLine3.jpg	Medium_e01_cut1_stereo_44KHz.wav
1	38	1	1	1	C	1	0	826	0	poli_8sides 12_whiteLine3.jpg	MediumLong_b10_cut2_L_stereo_44KHz.wav
1	39	4	3	2	I	1	0	843	0	poli_8sides 15_whiteLine3.jpg	Medium_e01_cut1_stereo_44KHz.wav
1	40	2	1	0	C	1	1	816	1	poli_8sides 2_whiteLine3.jpg	MediumLong_b10_cut2_L_stereo_44KHz.wav
1	41	1	2	0	C	1	1	851	1	poli_8sides 12_whiteLine3.jpg	MediumLong_e17_cut2_stereo_44KHz.wav
1	42	4	3	2	I	2	0	1007	1	poli_8sides 15_whiteLine3.jpg	Medium_e01_cut1_stereo_44KHz.wav
1	43	2	1	0	C	2	0	910	0	poli_8sides 2_whiteLine3.jpg	MediumLong_b10_cut2_L_stereo_44KHz.wav
1	44	3	3	2	I	1	0	862	1	poli_8sides 7_whiteLine3.jpg	Medium_e01_cut1_stereo_44KHz.wav
1	45	1	1	1	C	2	1	937	1	poli_8sides 12_whiteLine3.jpg	MediumLong_b10_cut2_L_stereo_44KHz.wav
1	46	3	4	2	I	1	0	715	0	poli_8sides 7_whiteLine3.jpg	Medium_e13_stereo_44KHz.wav
1	47	4	4	2	I	1	0	711	0	poli_8sides 15_whiteLine3.jpg	Medium_e13_stereo_44KHz.wav
1	48	2	2	1	C	1	0	637	0	poli_8sides 2_whiteLine3.jpg	MediumLong_e17_cut2_stereo_44KHz.wav
1	49	3	4	2	I	2	0	848	1	poli_8sides 7_whiteLine3.jpg	Medium_e13_stereo_44KHz.wav
1	50	4	4	2	I	1	0	850	0	poli_8sides 15_whiteLine3.jpg	Medium_e13_stereo_44KHz.wav
1	51	1	1	1	C	1	0	888	0	poli_8sides 12_whiteLine3.jpg	MediumLong_b10_cut2_L_stereo_44KHz.wav
1	52	2	1	0	C	1	1	692	1	poli_8sides 2_whiteLine3.jpg	MediumLong_b10_cut2_L_stereo_44KHz.wav
1	53	3	3	2	I	1	0	767	1	poli_8sides 7_whiteLine3.jpg	Medium_e01_cut1_stereo_44KHz.wav
1	54	4	3	2	I	2	0	648	1	poli_8sides 15_whiteLine3.jpg	Medium_e01_cut1_stereo_44KHz.wav
1	55	2	2	1	C	2	1	968	1	poli_8sides 2_whiteLine3.jpg	MediumLong_e17_cut2_stereo_44KHz.wav
1	56	1	2	0	C	2	0	984	0	poli_8sides 12_whiteLine3.jpg	MediumLong_e17_cut2_stereo_44KHz.wav
1	57	2	1	0	C	1	1	673	1	poli_8sides 2_whiteLine3.jpg	MediumLong_b10_cut2_L_stereo_44KHz.wav
1	58	4	4	2	I	2	0	685	0	poli_8sides 15_whiteLine3.jpg	Medium_e13_stereo_44KHz.wav
1	59	1	2	0	C	1	1	667	1	poli_8sides 12_whiteLine3.jpg	MediumLong_e17_cut2_stereo_44KHz.wav
1	60	3	4	2	I	1	0	681	0	poli_8sides 7_whiteLine3.jpg	Medium_e13_stereo_44KHz.wav
1	61	1	1	1	C	2	1	494	1	poli_8sides 12_whiteLine3.jpg	MediumLong_b10_cut2_L_stereo_44KHz.wav
1	62	4	3	2	I	2	0	546	1	poli_8sides 15_whiteLine3.jpg	Medium_e01_cut1_stereo_44KHz.wav
1	63	3	3	2	I	2	0	764	0	poli_8sides 7_whiteLine3.jpg	Medium_e01_cut1_stereo_44KHz.wav
1	64	2	2	1	C	2	1	952	1	poli_8sides 2_whiteLine3.jpg	MediumLong_e17_cut2_stereo_44KHz.wav
1	65	1	2	0	C	2	0	775	0	poli_8sides 12_whiteLine3.jpg	MediumLong_e17_cut2_stereo_44KHz.wav
1	66	2	2	1	C	2	1	929	1	poli_8sides 2_whiteLine3.jpg	MediumLong_e17_cut2_stereo_44KHz.wav
1	67	3	3	2	I	1	0	589	0	poli_8sides 7_whiteLine3.jpg	Medium_e01_cut1_stereo_44KHz.wav
1	68	4	4	2	I	1	0	880	0	poli_8sides 15_whiteLine3.jpg	Medium_e13_stereo_44KHz.wav
1	69	2	1	0	C	1	1	642	1	poli_8sides 2_whiteLine3.jpg	MediumLong_b10_cut2_L_stereo_44KHz.wav
1	70	1	1	1	C	2	1	655	1	poli_8sides 12_whiteLine3.jpg	MediumLong_b10_cut2_L_stereo_44KHz.wav
1	71	4	3	2	I	1	0	819	0	poli_8sides 15_whiteLine3.jpg	Medium_e01_cut1_stereo_44KHz.wav
1	72	3	4	2	I	1	0	973	0	poli_8sides 7_whiteLine3.jpg	Medium_e13_stereo_44KHz.wav
1	73	2	2	1	C	1	0	853	0	poli_8sides 2_whiteLine3.jpg	MediumLong_e17_cut2_stereo_44KHz.wav
1	74	4	4	2	I	2	0	782	0	poli_8sides 15_whiteLine3.jpg	Medium_e13_stereo_44KHz.wav
1	75	1	2	0	C	1	1	799	1	poli_8sides 12_whiteLine3.jpg	MediumLong_e17_cut2_stereo_44KHz.wav
1	76	3	4	2	I	1	0	965	0	poli_8sides 7_whiteLine3.jpg	Medium_e13_stereo_44KHz.wav
1	77	1	1	1	C	1	0	717	0	poli_8sides 12_whiteLine3.jpg	MediumLong_b10_cut2_L_stereo_44KHz.wav
1	78	2	1	0	C	2	0	866	0	poli_8sides 2_whiteLine3.jpg	MediumLong_b10_cut2_L_stereo_44KHz.wav
1	79	3	3	2	I	1	0	572	1	poli_8sides 7_whiteLine3.jpg	Medium_e01_cut1_stereo_44KHz.wav
1	80	4	3	2	I	2	0	829	0	poli_8sides 15_whiteLine3.jpg	Medium_e01_cut1_stereo_44KHz.wav
1	81	3	4	2	I	1	0	590	1	poli_8sides 7_whiteLine3.jpg	Medium_e13_stereo_44KHz.wav
1	82	2	2	1	C	1	0	925	0	poli_8sides 2_whiteLine3.jpg	MediumLong_e17_cut2_stereo_44KHz.wav
1	83	1	2	0	C	1	1	854	1	poli_8sides 12_whiteLine3.jpg	MediumLong_e17_cut2_stereo_44KHz.wav
1	84	4	4	2	I	2	0	774	0	poli_8sides 15_whiteLine3.jpg	Medium_e13_stereo_44KHz.wav
1	85	3	3	2	I	1	0	615	0	poli_8sides 7_whiteLine3.jpg	Medium_e01_cut1_stereo_44KHz.wav
1	86	1	1	1	C	2	1	816	1	poli_8sides 12_whiteLine3.jpg	MediumLong_b10_cut2_L_stereo_44KHz.wav
1	87	4	3	2	I	1	0	879	0	poli_8sides 15_whiteLine3.jpg	Medium_e01_cut1_stereo_44KHz.wav
1	88	2	1	0	C	1	1	804	1	poli_8sides 2_whiteLine3.jpg	MediumLong_b10_cut2_L_stereo_44KHz.wav
1	89	1	2	0	C	1	1	818	1	poli_8sides 12_whiteLine3.jpg	MediumLong_e17_cut2_stereo_44KHz.wav
1	90	2	1	0	C	2	0	946	0	poli_8sides 2_whiteLine3.jpg	MediumLong_b10_cut2_L_stereo_44KHz.wav
1	91	4	4	2	I	1	0	942	0	poli_8sides 15_whiteLine3.jpg	Medium_e13_stereo_44KHz.wav
1	92	3	3	2	I	2	0	870	1	poli_8sides 7_whiteLine3.jpg	Medium_e01_cut1_stereo_44KHz.wav
1	93	4	3	2	I	1	0	1256	0	poli_8sides 15_whiteLine3.jpg	Medium_e01_cut1_stereo_44KHz.wav
1	94	3	4	2	I	2	0	667	0	poli_8sides 7_whiteLine3.jpg	Medium_e13_stereo_44KHz.wav
1	95	1	1	1	C	1	0	1279	0	poli_8sides 12_whiteLine3.jpg	MediumLong_b10_cut2_L_stereo_44KHz.wav
1	96	2	2	1	C	1	0	864	0	poli_8sides 2_whiteLine3.jpg	MediumLong_e17_cut2_stereo_44KHz.wav
1	97	3	3	2	I	1	0	615	0	poli_8sides 7_whiteLine3.jpg	Medium_e01_cut1_stereo_44KHz.wav
1	98	2	2	1	C	1	0	694	0	poli_8sides 2_whiteLine3.jpg	MediumLong_e17_cut2_stereo_44KHz.wav
1	99	4	3	2	I	1	0	636	1	poli_8sides 15_whiteLine3.jpg	Medium_e01_cut1_stereo_44KHz.wav
1	100	1	2	0	C	1	1	735	1	poli_8sides 12_whiteLine3.jpg	MediumLong_e17_cut2_stereo_44KHz.wav
1	101	4	4	2	I	2	0	821	1	poli_8sides 15_whiteLine3.jpg	Medium_e13_stereo_44KHz.wav
1	102	2	1	0	C	1	1	678	1	poli_8sides 2_whiteLine3.jpg	MediumLong_b10_cut2_L_stereo_44KHz.wav
1	103	3	4	2	I	2	0	763	1	poli_8sides 7_whiteLine3.jpg	Medium_e13_stereo_44KHz.wav
1	104	1	1	1	C	1	0	915	0	poli_8sides 12_whiteLine3.jpg	MediumLong_b10_cut2_L_stereo_44KHz.wav
1	105	4	4	2	I	1	0	801	1	poli_8sides 15_whiteLine3.jpg	Medium_e13_stereo_44KHz.wav
1	106	3	4	2	I	1	0	1104	1	poli_8sides 7_whiteLine3.jpg	Medium_e13_stereo_44KHz.wav
1	107	2	2	1	C	1	0	709	0	poli_8sides 2_whiteLine3.jpg	MediumLong_e17_cut2_stereo_44KHz.wav
1	108	1	2	0	C	1	1	395	1	poli_8sides 12_whiteLine3.jpg	MediumLong_e17_cut2_stereo_44KHz.wav
1	109	4	3	2	I	1	0	650	0	poli_8sides 15_whiteLine3.jpg	Medium_e01_cut1_stereo_44KHz.wav
1	110	2	1	0	C	1	1	609	1	poli_8sides 2_whiteLine3.jpg	MediumLong_b10_cut2_L_stereo_44KHz.wav
1	111	3	3	2	I	1	0	653	0	poli_8sides 7_whiteLine3.jpg	Medium_e01_cut1_stereo_44KHz.wav
1	112	1	1	1	C	1	0	764	0	poli_8sides 12_whiteLine3.jpg	MediumLong_b10_cut2_L_stereo_44KHz.wav
1	113	3	4	2	I	1	0	878	1	poli_8sides 7_whiteLine3.jpg	Medium_e13_stereo_44KHz.wav
1	114	2	2	1	C	1	0	702	0	poli_8sides 2_whiteLine3.jpg	MediumLong_e17_cut2_stereo_44KHz.wav
1	115	4	4	2	I	1	0	767	0	poli_8sides 15_whiteLine3.jpg	Medium_e13_stereo_44KHz.wav
1	116	1	2	0	C	1	1	744	1	poli_8sides 12_whiteLine3.jpg	MediumLong_e17_cut2_stereo_44KHz.wav
1	117	4	3	2	I	1	0	616	0	poli_8sides 15_whiteLine3.jpg	Medium_e01_cut1_stereo_44KHz.wav
1	118	3	3	2	I	1	0	674	1	poli_8sides 7_whiteLine3.jpg	Medium_e01_cut1_stereo_44KHz.wav
1	119	2	1	0	C	1	1	617	1	poli_8sides 2_whiteLine3.jpg	MediumLong_b10_cut2_L_stereo_44KHz.wav
1	120	1	1	1	C	2	1	647	1	poli_8sides 12_whiteLine3.jpg	MediumLong_b10_cut2_L_stereo_44KHz.wav
1	121	2	2	1	C	1	0	683	0	poli_8sides 2_whiteLine3.jpg	MediumLong_e17_cut2_stereo_44KHz.wav
1	122	4	3	2	I	1	0	700	0	poli_8sides 15_whiteLine3.jpg	Medium_e01_cut1_stereo_44KHz.wav
1	123	3	3	2	I	1	0	533	1	poli_8sides 7_whiteLine3.jpg	Medium_e01_cut1_stereo_44KHz.wav
1	124	1	2	0	C	1	1	351	1	poli_8sides 12_whiteLine3.jpg	MediumLong_e17_cut2_stereo_44KHz.wav
1	125	4	4	2	I	1	0	751	1	poli_8sides 15_whiteLine3.jpg	Medium_e13_stereo_44KHz.wav
1	126	2	1	0	C	1	1	688	1	poli_8sides 2_whiteLine3.jpg	MediumLong_b10_cut2_L_stereo_44KHz.wav
1	127	3	4	2	I	1	0	632	1	poli_8sides 7_whiteLine3.jpg	Medium_e13_stereo_44KHz.wav
1	128	1	1	1	C	1	0	673	0	poli_8sides 12_whiteLine3.jpg	MediumLong_b10_cut2_L_stereo_44KHz.wav
1	129	3	3	2	I	1	0	655	0	poli_8sides 7_whiteLine3.jpg	Medium_e01_cut1_stereo_44KHz.wav
1	130	1	2	0	C	1	1	810	1	poli_8sides 12_whiteLine3.jpg	MediumLong_e17_cut2_stereo_44KHz.wav
1	131	4	4	2	I	1	0	723	1	poli_8sides 15_whiteLine3.jpg	Medium_e13_stereo_44KHz.wav
1	132	2	1	0	C	1	1	737	1	poli_8sides 2_whiteLine3.jpg	MediumLong_b10_cut2_L_stereo_44KHz.wav
1	133	3	4	2	I	1	0	608	0	poli_8sides 7_whiteLine3.jpg	Medium_e13_stereo_44KHz.wav
1	134	2	2	1	C	1	0	581	0	poli_8sides 2_whiteLine3.jpg	MediumLong_e17_cut2_stereo_44KHz.wav
1	135	4	3	2	I	1	0	596	1	poli_8sides 15_whiteLine3.jpg	Medium_e01_cut1_stereo_44KHz.wav
1	136	1	1	1	C	1	0	728	0	poli_8sides 12_whiteLine3.jpg	MediumLong_b10_cut2_L_stereo_44KHz.wav
1	137	4	3	2	I	1	0	490	1	poli_8sides 15_whiteLine3.jpg	Medium_e01_cut1_stereo_44KHz.wav
1	138	1	2	0	C	1	1	717	1	poli_8sides 12_whiteLine3.jpg	MediumLong_e17_cut2_stereo_44KHz.wav
1	139	2	1	0	C	1	1	780	1	poli_8sides 2_whiteLine3.jpg	MediumLong_b10_cut2_L_stereo_44KHz.wav
1	140	3	4	2	I	2	0	773	0	poli_8sides 7_whiteLine3.jpg	Medium_e13_stereo_44KHz.wav
1	141	4	4	2	I	2	0	1527	0	poli_8sides 15_whiteLine3.jpg	Medium_e13_stereo_44KHz.wav
1	142	2	2	1	C	2	1	995	1	poli_8sides 2_whiteLine3.jpg	MediumLong_e17_cut2_stereo_44KHz.wav
1	143	1	1	1	C	1	0	822	0	poli_8sides 12_whiteLine3.jpg	MediumLong_b10_cut2_L_stereo_44KHz.wav
1	144	3	3	2	I	1	0	677	1	poli_8sides 7_whiteLine3.jpg	Medium_e01_cut1_stereo_44KHz.wav
1	145	1	2	0	C	1	1	651	1	poli_8sides 12_whiteLine3.jpg	MediumLong_e17_cut2_stereo_44KHz.wav
1	146	4	3	2	I	1	0	740	1	poli_8sides 15_whiteLine3.jpg	Medium_e01_cut1_stereo_44KHz.wav
1	147	2	2	1	C	1	0	793	0	poli_8sides 2_whiteLine3.jpg	MediumLong_e17_cut2_stereo_44KHz.wav
1	148	3	3	2	I	1	0	534	1	poli_8sides 7_whiteLine3.jpg	Medium_e01_cut1_stereo_44KHz.wav
1	149	4	4	2	I	1	0	662	0	poli_8sides 15_whiteLine3.jpg	Medium_e13_stereo_44KHz.wav
1	150	3	4	2	I	1	0	552	0	poli_8sides 7_whiteLine3.jpg	Medium_e13_stereo_44KHz.wav
1	151	1	1	1	C	1	0	487	0	poli_8sides 12_whiteLine3.jpg	MediumLong_b10_cut2_L_stereo_44KHz.wav
1	152	2	1	0	C	1	1	608	1	poli_8sides 2_whiteLine3.jpg	MediumLong_b10_cut2_L_stereo_44KHz.wav
1	153	3	3	2	I	1	0	768	1	poli_8sides 7_whiteLine3.jpg	Medium_e01_cut1_stereo_44KHz.wav
1	154	2	1	0	C	2	0	896	0	poli_8sides 2_whiteLine3.jpg	MediumLong_b10_cut2_L_stereo_44KHz.wav
1	155	4	4	2	I	1	0	1032	1	poli_8sides 15_whiteLine3.jpg	Medium_e13_stereo_44KHz.wav
1	156	1	1	1	C	2	1	883	1	poli_8sides 12_whiteLine3.jpg	MediumLong_b10_cut2_L_stereo_44KHz.wav
1	157	4	3	2	I	1	0	764	1	poli_8sides 15_whiteLine3.jpg	Medium_e01_cut1_stereo_44KHz.wav
1	158	3	4	2	I	2	0	1027	1	poli_8sides 7_whiteLine3.jpg	Medium_e13_stereo_44KHz.wav
1	159	2	2	1	C	2	1	1028	1	poli_8sides 2_whiteLine3.jpg	MediumLong_e17_cut2_stereo_44KHz.wav
1	160	1	2	0	C	1	1	614	1	poli_8sides 12_whiteLine3.jpg	MediumLong_e17_cut2_stereo_44KHz.wav
1	161	2	1	0	C	1	1	746	1	poli_8sides 2_whiteLine3.jpg	MediumLong_b10_cut2_L_stereo_44KHz.wav
1	162	3	4	2	I	1	0	694	0	poli_8sides 7_whiteLine3.jpg	Medium_e13_stereo_44KHz.wav
1	163	1	2	0	C	1	1	888	1	poli_8sides 12_whiteLine3.jpg	MediumLong_e17_cut2_stereo_44KHz.wav
1	164	4	4	2	I	1	0	705	1	poli_8sides 15_whiteLine3.jpg	Medium_e13_stereo_44KHz.wav
1	165	1	1	1	C	1	0	757	0	poli_8sides 12_whiteLine3.jpg	MediumLong_b10_cut2_L_stereo_44KHz.wav
1	166	2	2	1	C	1	0	657	0	poli_8sides 2_whiteLine3.jpg	MediumLong_e17_cut2_stereo_44KHz.wav
1	167	4	3	2	I	1	0	782	0	poli_8sides 15_whiteLine3.jpg	Medium_e01_cut1_stereo_44KHz.wav
1	168	3	3	2	I	1	0	727	1	poli_8sides 7_whiteLine3.jpg	Medium_e01_cut1_stereo_44KHz.wav
1	169	2	1	0	C	1	1	620	1	poli_8sides 2_whiteLine3.jpg	MediumLong_b10_cut2_L_stereo_44KHz.wav
1	170	1	2	0	C	1	1	961	1	poli_8sides 12_whiteLine3.jpg	MediumLong_e17_cut2_stereo_44KHz.wav
1	171	3	3	2	I	1	0	809	0	poli_8sides 7_whiteLine3.jpg	Medium_e01_cut1_stereo_44KHz.wav
1	172	4	4	2	I	1	0	902	1	poli_8sides 15_whiteLine3.jpg	Medium_e13_stereo_44KHz.wav
1	173	1	1	1	C	2	1	1028	1	poli_8sides 12_whiteLine3.jpg	MediumLong_b10_cut2_L_stereo_44KHz.wav
1	174	2	2	1	C	2	1	1027	1	poli_8sides 2_whiteLine3.jpg	MediumLong_e17_cut2_stereo_44KHz.wav
1	175	3	4	2	I	1	0	598	0	poli_8sides 7_whiteLine3.jpg	Medium_e13_stereo_44KHz.wav
1	176	4	3	2	I	1	0	868	1	poli_8sides 15_whiteLine3.jpg	Medium_e01_cut1_stereo_44KHz.wav
1	177	2	1	0	C	2	0	1099	0	poli_8sides 2_whiteLine3.jpg	MediumLong_b10_cut2_L_stereo_44KHz.wav
1	178	1	1	1	C	2	1	743	1	poli_8sides 12_whiteLine3.jpg	MediumLong_b10_cut2_L_stereo_44KHz.wav
1	179	4	3	2	I	1	0	807	0	poli_8sides 15_whiteLine3.jpg	Medium_e01_cut1_stereo_44KHz.wav
1	180	3	3	2	I	1	0	648	0	poli_8sides 7_whiteLine3.jpg	Medium_e01_cut1_stereo_44KHz.wav
1	181	2	2	1	C	2	1	1086	1	poli_8sides 2_whiteLine3.jpg	MediumLong_e17_cut2_stereo_44KHz.wav
1	182	3	4	2	I	1	0	602	1	poli_8sides 7_whiteLine3.jpg	Medium_e13_stereo_44KHz.wav
1	183	4	4	2	I	2	0	861	1	poli_8sides 15_whiteLine3.jpg	Medium_e13_stereo_44KHz.wav
1	184	1	2	0	C	1	1	817	1	poli_8sides 12_whiteLine3.jpg	MediumLong_e17_cut2_stereo_44KHz.wav
1	185	3	4	2	I	1	0	806	0	poli_8sides 7_whiteLine3.jpg	Medium_e13_stereo_44KHz.wav
1	186	4	4	2	I	2	0	714	1	poli_8sides 15_whiteLine3.jpg	Medium_e13_stereo_44KHz.wav
1	187	1	1	1	C	1	0	607	0	poli_8sides 12_whiteLine3.jpg	MediumLong_b10_cut2_L_stereo_44KHz.wav
1	188	2	2	1	C	2	1	985	1	poli_8sides 2_whiteLine3.jpg	MediumLong_e17_cut2_stereo_44KHz.wav
1	189	3	3	2	I	1	0	754	1	poli_8sides 7_whiteLine3.jpg	Medium_e01_cut1_stereo_44KHz.wav
1	190	2	1	0	C	1	1	855	1	poli_8sides 2_whiteLine3.jpg	MediumLong_b10_cut2_L_stereo_44KHz.wav
1	191	4	3	2	I	1	0	840	0	poli_8sides 15_whiteLine3.jpg	Medium_e01_cut1_stereo_44KHz.wav
1	192	1	2	0	C	1	1	700	1	poli_8sides 12_whiteLine3.jpg	MediumLong_e17_cut2_stereo_44KHz.wav
1	193	4	4	2	I	1	0	956	0	poli_8sides 15_whiteLine3.jpg	Medium_e13_stereo_44KHz.wav
1	194	3	4	2	I	1	0	660	1	poli_8sides 7_whiteLine3.jpg	Medium_e13_stereo_44KHz.wav
1	195	1	1	1	C	2	1	857	1	poli_8sides 12_whiteLine3.jpg	MediumLong_b10_cut2_L_stereo_44KHz.wav
1	196	2	1	0	C	1	1	846	1	poli_8sides 2_whiteLine3.jpg	MediumLong_b10_cut2_L_stereo_44KHz.wav
1	197	1	2	0	C	1	1	773	1	poli_8sides 12_whiteLine3.jpg	MediumLong_e17_cut2_stereo_44KHz.wav
1	198	4	3	2	I	1	0	915	1	poli_8sides 15_whiteLine3.jpg	Medium_e01_cut1_stereo_44KHz.wav
1	199	2	2	1	C	2	1	825	1	poli_8sides 2_whiteLine3.jpg	MediumLong_e17_cut2_stereo_44KHz.wav
1	200	3	3	2	I	1	0	641	0	poli_8sides 7_whiteLine3.jpg	Medium_e01_cut1_stereo_44KHz.wav
2	1	3	4	2	I	2	0	1517	1	poli_8sides 9_whiteLine3.jpg	MediumLong_e19_stereo_44KHz.wav
2	2	2	2	1	C	1	0	873	0	poli_8sides 4_whiteLine3.jpg	MediumLong_e04_stereo_44KHz.wav
2	3	4	4	2	I	1	0	678	1	poli_8sides 10_whiteLine3.jpg	MediumLong_e19_stereo_44KHz.wav
2	4	1	1	1	C	1	0	780	0	poli_8sides 13_whiteLine3.jpg	Medium_e26_stereo_44KHz.wav
2	5	4	3	2	I	1	0	792	1	poli_8sides 10_whiteLine3.jpg	Medium_e21_stereo_44KHz.wav
2	6	1	2	0	C	1	1	834	1	poli_8sides 13_whiteLine3.jpg	MediumLong_e04_stereo_44KHz.wav
2	7	2	1	0	C	2	0	964	0	poli_8sides 4_whiteLine3.jpg	Medium_e26_stereo_44KHz.wav
2	8	3	3	2	I	1	0	716	0	poli_8sides 9_whiteLine3.jpg	Medium_e21_stereo_44KHz.wav
2	9	2	2	1	C	1	0	732	0	poli_8sides 4_whiteLine3.jpg	MediumLong_e04_stereo_44KHz.wav
2	10	1	2	0	C	1	1	879	1	poli_8sides 13_whiteLine3.jpg	MediumLong_e04_stereo_44KHz.wav
2	11	3	3	2	I	1	0	789	0	poli_8sides 9_whiteLine3.jpg	Medium_e21_stereo_44KHz.wav
2	12	4	4	2	I	2	0	997	0	poli_8sides 10_whiteLine3.jpg	MediumLong_e19_stereo_44KHz.wav
2	13	2	1	0	C	1	1	836	1	poli_8sides 4_whiteLine3.jpg	Medium_e26_stereo_44KHz.wav
2	14	1	1	1	C	2	1	801	1	poli_8sides 13_whiteLine3.jpg	Medium_e26_stereo_44KHz.wav
2	15	4	3	2	I	1	0	936	0	poli_8sides 10_whiteLine3.jpg	Medium_e21_stereo_44KHz.wav
2	16	3	4	2	I	2	0	825	0	poli_8sides 9_whiteLine3.jpg	MediumLong_e19_stereo_44KHz.wav
2	17	4	4	2	I	1	0	727	0	poli_8sides 10_whiteLine3.jpg	MediumLong_e19_stereo_44KHz.wav
2	18	2	1	0	C	1	1	654	1	poli_8sides 4_whiteLine3.jpg	Medium_e26_stereo_44KHz.wav
2	19	3	3	2	I	2	0	800	1	poli_8sides 9_whiteLine3.jpg	Medium_e21_stereo_44KHz.wav
2	20	1	2	0	C	2	0	771	0	poli_8sides 13_whiteLine3.jpg	MediumLong_e04_stereo_44KHz.wav
2	21	2	2	1	C	2	1	719	1	poli_8sides 4_whiteLine3.jpg	MediumLong_e04_stereo_44KHz.wav
2	22	1	1	1	C	2	1	809	1	poli_8sides 13_whiteLine3.jpg	Medium_e26_stereo_44KHz.wav
2	23	3	4	2	I	1	0	880	1	poli_8sides 9_whiteLine3.jpg	MediumLong_e19_stereo_44KHz.wav
2	24	4	3	2	I	1	0	1110	1	poli_8sides 10_whiteLine3.jpg	Medium_e21_stereo_44KHz.wav
2	25	2	1	0	C	1	1	767	1	poli_8sides 4_whiteLine3.jpg	Medium_e26_stereo_44KHz.wav
2	26	3	4	2	I	1	0	819	1	poli_8sides 9_whiteLine3.jpg	MediumLong_e19_stereo_44KHz.wav
2	27	1	2	0	C	1	1	699	1	poli_8sides 13_whiteLine3.jpg	MediumLong_e04_stereo_44KHz.wav
2	28	4	4	2	I	1	0	784	1	poli_8sides 10_whiteLine3.jpg	MediumLong_e19_stereo_44KHz.wav
2	29	1	1	1	C	2	1	833	1	poli_8sides 13_whiteLine3.jpg	Medium_e26_stereo_44KHz.wav
2	30	4	3	2	I	1	0	756	0	poli_8sides 10_whiteLine3.jpg	Medium_e21_stereo_44KHz.wav
2	31	3	3	2	I	1	0	528	0	poli_8sides 9_whiteLine3.jpg	Medium_e21_stereo_44KHz.wav
2	32	2	2	1	C	2	1	843	1	poli_8sides 4_whiteLine3.jpg	MediumLong_e04_stereo_44KHz.wav
2	33	1	1	1	C	1	0	851	0	poli_8sides 13_whiteLine3.jpg	Medium_e26_stereo_44KHz.wav
2	34	4	3	2	I	1	0	785	0	poli_8sides 10_whiteLine3.jpg	Medium_e21_stereo_44KHz.wav
2	35	2	1	0	C	1	1	852	1	poli_8sides 4_whiteLine3.jpg	Medium_e26_stereo_44KHz.wav
2	36	3	3	2	I	1	0	764	0	poli_8sides 9_whiteLine3.jpg	Medium_e21_stereo_44KHz.wav
2	37	4	4	2	I	2	0	811	1	poli_8sides 10_whiteLine3.jpg	MediumLong_e19_stereo_44KHz.wav
2	38	1	2	0	C	1	1	705	1	poli_8sides 13_whiteLine3.jpg	MediumLong_e04_stereo_44KHz.wav
2	39	2	2	1	C	2	1	664	1	poli_8sides 4_whiteLine3.jpg	MediumLong_e04_stereo_44KHz.wav
2	40	3	4	2	I	1	0	765	0	poli_8sides 9_whiteLine3.jpg	MediumLong_e19_stereo_44KHz.wav
2	41	4	4	2	I	1	0	795	0	poli_8sides 10_whiteLine3.jpg	MediumLong_e19_stereo_44KHz.wav
2	42	2	1	0	C	1	1	699	1	poli_8sides 4_whiteLine3.jpg	Medium_e26_stereo_44KHz.wav
2	43	1	2	0	C	2	0	809	0	poli_8sides 13_whiteLine3.jpg	MediumLong_e04_stereo_44KHz.wav
2	44	3	3	2	I	1	0	692	0	poli_8sides 9_whiteLine3.jpg	Medium_e21_stereo_44KHz.wav
2	45	4	3	2	I	1	0	735	1	poli_8sides 10_whiteLine3.jpg	Medium_e21_stereo_44KHz.wav
2	46	3	4	2	I	2	0	1050	0	poli_8sides 9_whiteLine3.jpg	MediumLong_e19_stereo_44KHz.wav
2	47	2	2	1	C	2	1	918	1	poli_8sides 4_whiteLine3.jpg	MediumLong_e04_stereo_44KHz.wav
2	48	1	1	1	C	2	1	871	1	poli_8sides 13_whiteLine3.jpg	Medium_e26_stereo_44KHz.wav
2	49	2	2	1	C	2	1	746	1	poli_8sides 4_whiteLine3.jpg	MediumLong_e04_stereo_44KHz.wav
2	50	1	2	0	C	1	1	747	1	poli_8sides 13_whiteLine3.jpg	MediumLong_e04_stereo_44KHz.wav
2	51	4	3	2	I	1	0	755	1	poli_8sides 10_whiteLine3.jpg	Medium_e21_stereo_44KHz.wav
2	52	3	3	2	I	2	0	1044	0	poli_8sides 9_whiteLine3.jpg	Medium_e21_stereo_44KHz.wav
2	53	2	1	0	C	1	1	781	1	poli_8sides 4_whiteLine3.jpg	Medium_e26_stereo_44KHz.wav
2	54	1	1	1	C	2	1	699	1	poli_8sides 13_whiteLine3.jpg	Medium_e26_stereo_44KHz.wav
2	55	4	4	2	I	2	0	875	0	poli_8sides 10_whiteLine3.jpg	MediumLong_e19_stereo_44KHz.wav
2	56	3	4	2	I	1	0	750	1	poli_8sides 9_whiteLine3.jpg	MediumLong_e19_stereo_44KHz.wav
2	57	1	1	1	C	2	1	712	1	poli_8sides 13_whiteLine3.jpg	Medium_e26_stereo_44KHz.wav
2	58	4	3	2	I	1	0	960	0	poli_8sides 10_whiteLine3.jpg	Medium_e21_stereo_44KHz.wav
2	59	2	2	1	C	2	1	823	1	poli_8sides 4_whiteLine3.jpg	MediumLong_e04_stereo_44KHz.wav
2	60	3	3	2	I	1	0	663	1	poli_8sides 9_whiteLine3.jpg	Medium_e21_stereo_44KHz.wav
2	61	2	1	0	C	1	1	822	1	poli_8sides 4_whiteLine3.jpg	Medium_e26_stereo_44KHz.wav
2	62	3	4	2	I	2	0	888	1	poli_8sides 9_whiteLine3.jpg	MediumLong_e19_stereo_44KHz.wav
2	63	1	2	0	C	1	1	685	1	poli_8sides 13_whiteLine3.jpg	MediumLong_e04_stereo_44KHz.wav
2	64	4	4	2	I	2	0	878	1	poli_8sides 10_whiteLine3.jpg	MediumLong_e19_stereo_44KHz.wav
2	65	2	1	0	C	1	1	636	1	poli_8sides 4_whiteLine3.jpg	Medium_e26_stereo_44KHz.wav
2	66	3	4	2	I	1	0	794	1	poli_8sides 9_whiteLine3.jpg	MediumLong_e19_stereo_44KHz.wav
2	67	4	4	2	I	1	0	818	0	poli_8sides 10_whiteLine3.jpg	MediumLong_e19_stereo_44KHz.wav
2	68	1	2	0	C	1	1	760	1	poli_8sides 13_whiteLine3.jpg	MediumLong_e04_stereo_44KHz.wav
2	69	2	2	1	C	2	1	724	1	poli_8sides 4_whiteLine3.jpg	MediumLong_e04_stereo_44KHz.wav
2	70	1	1	1	C	2	1	682	1	poli_8sides 13_whiteLine3.jpg	Medium_e26_stereo_44KHz.wav
2	71	3	3	2	I	1	0	715	1	poli_8sides 9_whiteLine3.jpg	Medium_e21_stereo_44KHz.wav
2	72	4	3	2	I	2	0	1044	0	poli_8sides 10_whiteLine3.jpg	Medium_e21_stereo_44KHz.wav
2	73	3	3	2	I	1	0	682	1	poli_8sides 9_whiteLine3.jpg	Medium_e21_stereo_44KHz.wav
2	74	2	2	1	C	2	1	766	1	poli_8sides 4_whiteLine3.jpg	MediumLong_e04_stereo_44KHz.wav
2	75	1	2	0	C	1	1	610	1	poli_8sides 13_whiteLine3.jpg	MediumLong_e04_stereo_44KHz.wav
2	76	4	4	2	I	1	0	857	0	poli_8sides 10_whiteLine3.jpg	MediumLong_e19_stereo_44KHz.wav
2	77	3	4	2	I	1	0	932	1	poli_8sides 9_whiteLine3.jpg	MediumLong_e19_stereo_44KHz.wav
2	78	1	1	1	C	2	1	823	1	poli_8sides 13_whiteLine3.jpg	Medium_e26_stereo_44KHz.wav
2	79	2	1	0	C	1	1	715	1	poli_8sides 4_whiteLine3.jpg	Medium_e26_stereo_44KHz.wav
2	80	4	3	2	I	1	0	692	1	poli_8sides 10_whiteLine3.jpg	Medium_e21_stereo_44KHz.wav
2	81	2	2	1	C	2	1	763	1	poli_8sides 4_whiteLine3.jpg	MediumLong_e04_stereo_44KHz.wav
2	82	3	4	2	I	1	0	765	0	poli_8sides 9_whiteLine3.jpg	MediumLong_e19_stereo_44KHz.wav
2	83	4	4	2	I	1	0	675	0	poli_8sides 10_whiteLine3.jpg	MediumLong_e19_stereo_44KHz.wav
2	84	1	2	0	C	1	1	685	1	poli_8sides 13_whiteLine3.jpg	MediumLong_e04_stereo_44KHz.wav
2	85	4	3	2	I	1	0	723	1	poli_8sides 10_whiteLine3.jpg	Medium_e21_stereo_44KHz.wav
2	86	1	1	1	C	2	1	977	1	poli_8sides 13_whiteLine3.jpg	Medium_e26_stereo_44KHz.wav
2	87	3	3	2	I	2	0	783	0	poli_8sides 9_whiteLine3.jpg	Medium_e21_stereo_44KHz.wav
2	88	2	1	0	C	1	1	904	1	poli_8sides 4_whiteLine3.jpg	Medium_e26_stereo_44KHz.wav
2	89	3	4	2	I	1	0	881	0	poli_8sides 9_whiteLine3.jpg	MediumLong_e19_stereo_44KHz.wav
2	90	4	3	2	I	1	0	708	0	poli_8sides 10_whiteLine3.jpg	Medium_e21_stereo_44KHz.wav
2	91	1	2	0	C	1	1	902	1	poli_8sides 13_whiteLine3.jpg	MediumLong_e04_stereo_44KHz.wav
2	92	2	1	0	C	1	1	461	1	poli_8sides 4_whiteLine3.jpg	Medium_e26_stereo_44KHz.wav
2	93	4	4	2	I	1	0	727	0	poli_8sides 10_whiteLine3.jpg	MediumLong_e19_stereo_44KHz.wav
2	94	2	2	1	C	2	1	789	1	poli_8sides 4_whiteLine3.jpg	MediumLong_e04_stereo_44KHz.wav
2	95	3	3	2	I	1	0	656	0	poli_8sides 9_whiteLine3.jpg	Medium_e21_stereo_44KHz.wav
2	96	1	1	1	C	1	0	529	0	poli_8sides 13_whiteLine3.jpg	Medium_e26_stereo_44KHz.wav
2	97	3	3	2	I	1	0	826	1	poli_8sides 9_whiteLine3.jpg	Medium_e21_stereo_44KHz.wav
2	98	1	1	1	C	2	1	803	1	poli_8sides 13_whiteLine3.jpg	Medium_e26_stereo_44KHz.wav
2	99	2	1	0	C	1	1	681	1	poli_8sides 4_whiteLine3.jpg	Medium_e26_stereo_44KHz.wav
2	100	4	3	2	I	1	0	687	1	poli_8sides 10_whiteLine3.jpg	Medium_e21_stereo_44KHz.wav
2	101	3	4	2	I	2	0	866	1	poli_8sides 9_whiteLine3.jpg	MediumLong_e19_stereo_44KHz.wav
2	102	2	2	1	C	2	1	691	1	poli_8sides 4_whiteLine3.jpg	MediumLong_e04_stereo_44KHz.wav
2	103	4	4	2	I	1	0	843	0	poli_8sides 10_whiteLine3.jpg	MediumLong_e19_stereo_44KHz.wav
2	104	1	2	0	C	1	1	901	1	poli_8sides 13_whiteLine3.jpg	MediumLong_e04_stereo_44KHz.wav
2	105	2	1	0	C	1	1	587	1	poli_8sides 4_whiteLine3.jpg	Medium_e26_stereo_44KHz.wav
2	106	3	3	2	I	1	0	603	1	poli_8sides 9_whiteLine3.jpg	Medium_e21_stereo_44KHz.wav
2	107	1	2	0	C	1	1	691	1	poli_8sides 13_whiteLine3.jpg	MediumLong_e04_stereo_44KHz.wav
2	108	4	3	2	I	2	0	768	1	poli_8sides 10_whiteLine3.jpg	Medium_e21_stereo_44KHz.wav
2	109	3	4	2	I	2	0	932	0	poli_8sides 9_whiteLine3.jpg	MediumLong_e19_stereo_44KHz.wav
2	110	2	2	1	C	2	1	836	1	poli_8sides 4_whiteLine3.jpg	MediumLong_e04_stereo_44KHz.wav
2	111	1	1	1	C	2	1	772	1	poli_8sides 13_whiteLine3.jpg	Medium_e26_stereo_44KHz.wav
2	112	4	4	2	I	1	0	818	1	poli_8sides 10_whiteLine3.jpg	MediumLong_e19_stereo_44KHz.wav
2	113	1	2	0	C	1	1	852	1	poli_8sides 13_whiteLine3.jpg	MediumLong_e04_stereo_44KHz.wav
2	114	3	4	2	I	2	0	960	0	poli_8sides 9_whiteLine3.jpg	MediumLong_e19_stereo_44KHz.wav
2	115	2	1	0	C	1	1	565	1	poli_8sides 4_whiteLine3.jpg	Medium_e26_stereo_44KHz.wav
2	116	4	4	2	I	1	0	668	0	poli_8sides 10_whiteLine3.jpg	MediumLong_e19_stereo_44KHz.wav
2	117	1	1	1	C	2	1	671	1	poli_8sides 13_whiteLine3.jpg	Medium_e26_stereo_44KHz.wav
2	118	4	3	2	I	1	0	669	1	poli_8sides 10_whiteLine3.jpg	Medium_e21_stereo_44KHz.wav
2	119	3	3	2	I	1	0	841	1	poli_8sides 9_whiteLine3.jpg	Medium_e21_stereo_44KHz.wav
2	120	2	2	1	C	2	1	681	1	poli_8sides 4_whiteLine3.jpg	MediumLong_e04_stereo_44KHz.wav
2	121	3	4	2	I	1	0	727	0	poli_8sides 9_whiteLine3.jpg	MediumLong_e19_stereo_44KHz.wav
2	122	4	3	2	I	1	0	654	0	poli_8sides 10_whiteLine3.jpg	Medium_e21_stereo_44KHz.wav
2	123	2	2	1	C	2	1	806	1	poli_8sides 4_whiteLine3.jpg	MediumLong_e04_stereo_44KHz.wav
2	124	1	2	0	C	1	1	602	1	poli_8sides 13_whiteLine3.jpg	MediumLong_e04_stereo_44KHz.wav
2	125	2	1	0	C	1	1	679	1	poli_8sides 4_whiteLine3.jpg	Medium_e26_stereo_44KHz.wav
2	126	3	3	2	I	1	0	665	0	poli_8sides 9_whiteLine3.jpg	Medium_e21_stereo_44KHz.wav
2	127	1	1	1	C	1	0	627	0	poli_8sides 13_whiteLine3.jpg	Medium_e26_stereo_44KHz.wav
2	128	4	4	2	I	2	0	1015	1	poli_8sides 10_whiteLine3.jpg	MediumLong_e19_stereo_44KHz.wav
2	129	3	4	2	I	1	0	935	0	poli_8sides 9_whiteLine3.jpg	MediumLong_e19_stereo_44KHz.wav
2	130	2	1	0	C	1	1	659	1	poli_8sides 4_whiteLine3.jpg	Medium_e26_stereo_44KHz.wav
2	131	1	1	1	C	2	1	731	1	poli_8sides 13_whiteLine3.jpg	Medium_e26_stereo_44KHz.wav
2	132	4	4	2	I	1	0	657	0	poli_8sides 10_whiteLine3.jpg	MediumLong_e19_stereo_44KHz.wav
2	133	3	3	2	I	1	0	737	0	poli_8sides 9_whiteLine3.jpg	Medium_e21_stereo_44KHz.wav
2	134	4	3	2	I	1	0	623	1	poli_8sides 10_whiteLine3.jpg	Medium_e21_stereo_44KHz.wav
2	135	2	2	1	C	2	1	749	1	poli_8sides 4_whiteLine3.jpg	MediumLong_e04_stereo_44KHz.wav
2	136	1	2	0	C	1	1	647	1	poli_8sides 13_whiteLine3.jpg	MediumLong_e04_stereo_44KHz.wav
2	137	3	4	2	I	1	0	862	0	poli_8sides 9_whiteLine3.jpg	MediumLong_e19_stereo_44KHz.wav
2	138	2	1	0	C	1	1	522	1	poli_8sides 4_whiteLine3.jpg	Medium_e26_stereo_44KHz.wav
2	139	4	4	2	I	1	0	924	1	poli_8sides 10_whiteLine3.jpg	MediumLong_e19_stereo_44KHz.wav
2	140	1	2	0	C	1	1	641	1	poli_8sides 13_whiteLine3.jpg	MediumLong_e04_stereo_44KHz.wav
2	141	4	3	2	I	1	0	705	1	poli_8sides 10_whiteLine3.jpg	Medium_e21_stereo_44KHz.wav
2	142	3	3	2	I	1	0	877	1	poli_8sides 9_whiteLine3.jpg	Medium_e21_stereo_44KHz.wav
2	143	1	1	1	C	2	1	799	1	poli_8sides 13_whiteLine3.jpg	Medium_e26_stereo_44KHz.wav
2	144	2	2	1	C	2	1	852	1	poli_8sides 4_whiteLine3.jpg	MediumLong_e04_stereo_44KHz.wav
2	145	1	1	1	C	2	1	708	1	poli_8sides 13_whiteLine3.jpg	Medium_e26_stereo_44KHz.wav
2	146	2	1	0	C	1	1	581	1	poli_8sides 4_whiteLine3.jpg	Medium_e26_stereo_44KHz.wav
2	147	4	4	2	I	1	0	722	1	poli_8sides 10_whiteLine3.jpg	MediumLong_e19_stereo_44KHz.wav
2	148	3	4	2	I	1	0	815	1	poli_8sides 9_whiteLine3.jpg	MediumLong_e19_stereo_44KHz.wav
2	149	2	2	1	C	2	1	892	1	poli_8sides 4_whiteLine3.jpg	MediumLong_e04_stereo_44KHz.wav
2	150	3	3	2	I	1	0	704	0	poli_8sides 9_whiteLine3.jpg	Medium_e21_stereo_44KHz.wav
2	151	4	3	2	I	1	0	639	0	poli_8sides 10_whiteLine3.jpg	Medium_e21_stereo_44KHz.wav
2	152	1	2	0	C	1	1	706	1	poli_8sides 13_whiteLine3.jpg	MediumLong_e04_stereo_44KHz.wav
2	153	3	4	2	I	1	0	723	1	poli_8sides 9_whiteLine3.jpg	MediumLong_e19_stereo_44KHz.wav
2	154	1	2	0	C	1	1	736	1	poli_8sides 13_whiteLine3.jpg	MediumLong_e04_stereo_44KHz.wav
2	155	4	4	2	I	1	0	712	0	poli_8sides 10_whiteLine3.jpg	MediumLong_e19_stereo_44KHz.wav
2	156	2	1	0	C	1	1	816	1	poli_8sides 4_whiteLine3.jpg	Medium_e26_stereo_44KHz.wav
2	157	1	1	1	C	2	1	778	1	poli_8sides 13_whiteLine3.jpg	Medium_e26_stereo_44KHz.wav
2	158	2	2	1	C	2	1	764	1	poli_8sides 4_whiteLine3.jpg	MediumLong_e04_stereo_44KHz.wav
2	159	4	3	2	I	1	0	599	1	poli_8sides 10_whiteLine3.jpg	Medium_e21_stereo_44KHz.wav
2	160	3	3	2	I	1	0	703	1	poli_8sides 9_whiteLine3.jpg	Medium_e21_stereo_44KHz.wav
2	161	1	1	1	C	2	1	641	1	poli_8sides 13_whiteLine3.jpg	Medium_e26_stereo_44KHz.wav
2	162	3	4	2	I	1	0	700	1	poli_8sides 9_whiteLine3.jpg	MediumLong_e19_stereo_44KHz.wav
2	163	2	2	1	C	2	1	812	1	poli_8sides 4_whiteLine3.jpg	MediumLong_e04_stereo_44KHz.wav
2	164	4	4	2	I	1	0	813	1	poli_8sides 10_whiteLine3.jpg	MediumLong_e19_stereo_44KHz.wav
2	165	2	1	0	C	1	1	739	1	poli_8sides 4_whiteLine3.jpg	Medium_e26_stereo_44KHz.wav
2	166	1	2	0	C	1	1	856	1	poli_8sides 13_whiteLine3.jpg	MediumLong_e04_stereo_44KHz.wav
2	167	4	3	2	I	1	0	755	0	poli_8sides 10_whiteLine3.jpg	Medium_e21_stereo_44KHz.wav
2	168	3	3	2	I	1	0	777	0	poli_8sides 9_whiteLine3.jpg	Medium_e21_stereo_44KHz.wav
2	169	4	3	2	I	1	0	596	1	poli_8sides 10_whiteLine3.jpg	Medium_e21_stereo_44KHz.wav
2	170	3	4	2	I	1	0	781	0	poli_8sides 9_whiteLine3.jpg	MediumLong_e19_stereo_44KHz.wav
2	171	2	2	1	C	2	1	636	1	poli_8sides 4_whiteLine3.jpg	MediumLong_e04_stereo_44KHz.wav
2	172	1	1	1	C	2	1	787	1	poli_8sides 13_whiteLine3.jpg	Medium_e26_stereo_44KHz.wav
2	173	2	1	0	C	1	1	749	1	poli_8sides 4_whiteLine3.jpg	Medium_e26_stereo_44KHz.wav
2	174	3	3	2	I	1	0	779	1	poli_8sides 9_whiteLine3.jpg	Medium_e21_stereo_44KHz.wav
2	175	1	2	0	C	1	1	746	1	poli_8sides 13_whiteLine3.jpg	MediumLong_e04_stereo_44KHz.wav
2	176	4	4	2	I	1	0	811	1	poli_8sides 10_whiteLine3.jpg	MediumLong_e19_stereo_44KHz.wav
2	177	2	1	0	C	1	1	712	1	poli_8sides 4_whiteLine3.jpg	Medium_e26_stereo_44KHz.wav
2	178	4	4	2	I	1	0	921	1	poli_8sides 10_whiteLine3.jpg	MediumLong_e19_stereo_44KHz.wav
2	179	3	4	2	I	2	0	774	0	poli_8sides 9_whiteLine3.jpg	MediumLong_e19_stereo_44KHz.wav
2	180	1	2	0	C	1	1	715	1	poli_8sides 13_whiteLine3.jpg	MediumLong_e04_stereo_44KHz.wav
2	181	3	3	2	I	1	0	690	1	poli_8sides 9_whiteLine3.jpg	Medium_e21_stereo_44KHz.wav
2	182	2	2	1	C	2	1	766	1	poli_8sides 4_whiteLine3.jpg	MediumLong_e04_stereo_44KHz.wav
2	183	4	3	2	I	1	0	614	0	poli_8sides 10_whiteLine3.jpg	Medium_e21_stereo_44KHz.wav
2	184	1	1	1	C	2	1	787	1	poli_8sides 13_whiteLine3.jpg	Medium_e26_stereo_44KHz.wav
2	185	4	3	2	I	1	0	786	1	poli_8sides 10_whiteLine3.jpg	Medium_e21_stereo_44KHz.wav
2	186	3	3	2	I	1	0	659	1	poli_8sides 9_whiteLine3.jpg	Medium_e21_stereo_44KHz.wav
2	187	2	1	0	C	1	1	643	1	poli_8sides 4_whiteLine3.jpg	Medium_e26_stereo_44KHz.wav
2	188	1	1	1	C	2	1	675	1	poli_8sides 13_whiteLine3.jpg	Medium_e26_stereo_44KHz.wav
2	189	3	4	2	I	2	0	827	1	poli_8sides 9_whiteLine3.jpg	MediumLong_e19_stereo_44KHz.wav
2	190	1	2	0	C	1	1	814	1	poli_8sides 13_whiteLine3.jpg	MediumLong_e04_stereo_44KHz.wav
2	191	4	4	2	I	1	0	762	0	poli_8sides 10_whiteLine3.jpg	MediumLong_e19_stereo_44KHz.wav
2	192	2	2	1	C	2	1	800	1	poli_8sides 4_whiteLine3.jpg	MediumLong_e04_stereo_44KHz.wav
2	193	4	3	2	I	1	0	646	0	poli_8sides 10_whiteLine3.jpg	Medium_e21_stereo_44KHz.wav
2	194	1	1	1	C	2	1	763	1	poli_8sides 13_whiteLine3.jpg	Medium_e26_stereo_44KHz.wav
2	195	3	4	2	I	1	0	483	0	poli_8sides 9_whiteLine3.jpg	MediumLong_e19_stereo_44KHz.wav
2	196	2	2	1	C	2	1	791	1	poli_8sides 4_whiteLine3.jpg	MediumLong_e04_stereo_44KHz.wav
2	197	3	3	2	I	1	0	551	1	poli_8sides 9_whiteLine3.jpg	Medium_e21_stereo_44KHz.wav
2	198	4	4	2	I	2	0	754	0	poli_8sides 10_whiteLine3.jpg	MediumLong_e19_stereo_44KHz.wav
2	199	2	1	0	C	1	1	568	1	poli_8sides 4_whiteLine3.jpg	Medium_e26_stereo_44KHz.wav
2	200	1	2	0	C	1	1	743	1	poli_8sides 13_whiteLine3.jpg	MediumLong_e04_stereo_44KHz.wav
3	1	4	4	2	I	2	0	1090	1	poli_8sides 5_whiteLine3.jpg	Short_b23_cut1_stereo_44KHz.wav
3	2	3	4	2	I	1	0	653	0	poli_8sides 6_whiteLine3.jpg	Short_b23_cut1_stereo_44KHz.wav
3	3	2	2	1	C	1	0	558	0	poli_8sides 18_whiteLine3.jpg	Short_b22_cut1_stereo_44KHz.wav
3	4	1	2	0	C	1	1	490	1	poli_8sides 8_whiteLine3.jpg	Short_b22_cut1_stereo_44KHz.wav
3	5	2	1	0	C	1	1	572	1	poli_8sides 18_whiteLine3.jpg	Short_b09_cut1_stereo_44KHz.wav
3	6	1	1	1	C	2	1	1324	1	poli_8sides 8_whiteLine3.jpg	Short_b09_cut1_stereo_44KHz.wav
3	7	3	3	2	I	2	0	789	0	poli_8sides 6_whiteLine3.jpg	Short_b20_cut1_stereo_44KHz.wav
3	8	4	3	2	I	2	0	725	1	poli_8sides 5_whiteLine3.jpg	Short_b20_cut1_stereo_44KHz.wav
3	9	3	4	2	I	2	0	663	0	poli_8sides 6_whiteLine3.jpg	Short_b23_cut1_stereo_44KHz.wav
3	10	1	2	0	C	2	0	918	0	poli_8sides 8_whiteLine3.jpg	Short_b22_cut1_stereo_44KHz.wav
3	11	4	4	2	I	1	0	733	1	poli_8sides 5_whiteLine3.jpg	Short_b23_cut1_stereo_44KHz.wav
3	12	2	1	0	C	1	1	701	1	poli_8sides 18_whiteLine3.jpg	Short_b09_cut1_stereo_44KHz.wav
3	13	3	3	2	I	1	0	819	0	poli_8sides 6_whiteLine3.jpg	Short_b20_cut1_stereo_44KHz.wav
3	14	1	1	1	C	1	0	650	0	poli_8sides 8_whiteLine3.jpg	Short_b09_cut1_stereo_44KHz.wav
3	15	4	3	2	I	1	0	701	0	poli_8sides 5_whiteLine3.jpg	Short_b20_cut1_stereo_44KHz.wav
3	16	2	2	1	C	1	0	735	0	poli_8sides 18_whiteLine3.jpg	Short_b22_cut1_stereo_44KHz.wav
3	17	4	4	2	I	1	0	400	0	poli_8sides 5_whiteLine3.jpg	Short_b23_cut1_stereo_44KHz.wav
3	18	1	2	0	C	1	1	522	1	poli_8sides 8_whiteLine3.jpg	Short_b22_cut1_stereo_44KHz.wav
3	19	2	2	1	C	2	1	576	1	poli_8sides 18_whiteLine3.jpg	Short_b22_cut1_stereo_44KHz.wav
3	20	3	4	2	I	1	0	595	1	poli_8sides 6_whiteLine3.jpg	Short_b23_cut1_stereo_44KHz.wav
3	21	4	3	2	I	2	0	637	1	poli_8sides 5_whiteLine3.jpg	Short_b20_cut1_stereo_44KHz.wav
3	22	3	3	2	I	1	0	550	0	poli_8sides 6_whiteLine3.jpg	Short_b20_cut1_stereo_44KHz.wav
3	23	1	1	1	C	1	0	797	0	poli_8sides 8_whiteLine3.jpg	Short_b09_cut1_stereo_44KHz.wav
3	24	2	1	0	C	1	1	461	1	poli_8sides 18_whiteLine3.jpg	Short_b09_cut1_stereo_44KHz.wav
3	25	3	4	2	I	2	0	619	1	poli_8sides 6_whiteLine3.jpg	Short_b23_cut1_stereo_44KHz.wav
3	26	1	1	1	C	1	0	483	0	poli_8sides 8_whiteLine3.jpg	Short_b09_cut1_stereo_44KHz.wav
3	27	4	4	2	I	1	0	482	1	poli_8sides 5_whiteLine3.jpg	Short_b23_cut1_stereo_44KHz.wav
3	28	2	2	1	C	1	0	528	0	poli_8sides 18_whiteLine3.jpg	Short_b22_cut1_stereo_44KHz.wav
3	29	1	2	0	C	1	1	444	1	poli_8sides 8_whiteLine3.jpg	Short_b22_cut1_stereo_44KHz.wav
3	30	4	3	2	I	1	0	525	1	poli_8sides 5_whiteLine3.jpg	Short_b20_cut1_stereo_44KHz.wav
3	31	3	3	2	I	1	0	398	1	poli_8sides 6_whiteLine3.jpg	Short_b20_cut1_stereo_44KHz.wav
3	32	2	1	0	C	1	1	421	1	poli_8sides 18_whiteLine3.jpg	Short_b09_cut1_stereo_44KHz.wav
3	33	3	3	2	I	2	0	482	1	poli_8sides 6_whiteLine3.jpg	Short_b20_cut1_stereo_44KHz.wav
3	34	1	2	0	C	1	1	666	1	poli_8sides 8_whiteLine3.jpg	Short_b22_cut1_stereo_44KHz.wav
3	35	4	4	2	I	1	0	399	1	poli_8sides 5_whiteLine3.jpg	Short_b23_cut1_stereo_44KHz.wav
3	36	2	1	0	C	1	1	405	1	poli_8sides 18_whiteLine3.jpg	Short_b09_cut1_stereo_44KHz.wav
3	37	1	1	1	C	2	1	466	1	poli_8sides 8_whiteLine3.jpg	Short_b09_cut1_stereo_44KHz.wav
3	38	3	4	2	I	1	0	563	0	poli_8sides 6_whiteLine3.jpg	Short_b23_cut1_stereo_44KHz.wav
3	39	4	3	2	I	2	0	374	0	poli_8sides 5_whiteLine3.jpg	Short_b20_cut1_stereo_44KHz.wav
3	40	2	2	1	C	1	0	627	0	poli_8sides 18_whiteLine3.jpg	Short_b22_cut1_stereo_44KHz.wav
3	41	1	2	0	C	1	1	470	1	poli_8sides 8_whiteLine3.jpg	Short_b22_cut1_stereo_44KHz.wav
3	42	3	3	2	I	2	0	630	1	poli_8sides 6_whiteLine3.jpg	Short_b20_cut1_stereo_44KHz.wav
3	43	4	3	2	I	1	0	534	1	poli_8sides 5_whiteLine3.jpg	Short_b20_cut1_stereo_44KHz.wav
3	44	2	1	0	C	1	1	655	1	poli_8sides 18_whiteLine3.jpg	Short_b09_cut1_stereo_44KHz.wav
3	45	3	4	2	I	2	0	687	0	poli_8sides 6_whiteLine3.jpg	Short_b23_cut1_stereo_44KHz.wav
3	46	1	1	1	C	1	0	546	0	poli_8sides 8_whiteLine3.jpg	Short_b09_cut1_stereo_44KHz.wav
3	47	2	2	1	C	1	0	456	0	poli_8sides 18_whiteLine3.jpg	Short_b22_cut1_stereo_44KHz.wav
3	48	4	4	2	I	1	0	575	0	poli_8sides 5_whiteLine3.jpg	Short_b23_cut1_stereo_44KHz.wav
3	49	2	2	1	C	1	0	483	0	poli_8sides 18_whiteLine3.jpg	Short_b22_cut1_stereo_44KHz.wav
3	50	3	4	2	I	2	0	514	1	poli_8sides 6_whiteLine3.jpg	Short_b23_cut1_stereo_44KHz.wav
3	51	1	1	1	C	1	0	694	0	poli_8sides 8_whiteLine3.jpg	Short_b09_cut1_stereo_44KHz.wav
3	52	4	4	2	I	1	0	449	1	poli_8sides 5_whiteLine3.jpg	Short_b23_cut1_stereo_44KHz.wav
3	53	1	2	0	C	1	1	452	1	poli_8sides 8_whiteLine3.jpg	Short_b22_cut1_stereo_44KHz.wav
3	54	2	1	0	C	1	1	834	1	poli_8sides 18_whiteLine3.jpg	Short_b09_cut1_stereo_44KHz.wav
3	55	4	3	2	I	2	0	812	1	poli_8sides 5_whiteLine3.jpg	Short_b20_cut1_stereo_44KHz.wav
3	56	3	3	2	I	1	0	794	0	poli_8sides 6_whiteLine3.jpg	Short_b20_cut1_stereo_44KHz.wav
3	57	4	3	2	I	1	0	513	0	poli_8sides 5_whiteLine3.jpg	Short_b20_cut1_stereo_44KHz.wav
3	58	2	1	0	C	2	0	910	0	poli_8sides 18_whiteLine3.jpg	Short_b09_cut1_stereo_44KHz.wav
3	59	1	1	1	C	1	0	819	0	poli_8sides 8_whiteLine3.jpg	Short_b09_cut1_stereo_44KHz.wav
3	60	3	3	2	I	2	0	936	1	poli_8sides 6_whiteLine3.jpg	Short_b20_cut1_stereo_44KHz.wav
3	61	4	4	2	I	2	0	766	0	poli_8sides 5_whiteLine3.jpg	Short_b23_cut1_stereo_44KHz.wav
3	62	1	2	0	C	1	1	1333	1	poli_8sides 8_whiteLine3.jpg	Short_b22_cut1_stereo_44KHz.wav
3	63	2	2	1	C	1	0	495	0	poli_8sides 18_whiteLine3.jpg	Short_b22_cut1_stereo_44KHz.wav
3	64	3	4	2	I	1	0	697	0	poli_8sides 6_whiteLine3.jpg	Short_b23_cut1_stereo_44KHz.wav
3	65	4	4	2	I	2	0	402	1	poli_8sides 5_whiteLine3.jpg	Short_b23_cut1_stereo_44KHz.wav
3	66	1	1	1	C	1	0	623	0	poli_8sides 8_whiteLine3.jpg	Short_b09_cut1_stereo_44KHz.wav
3	67	2	2	1	C	1	0	763	0	poli_8sides 18_whiteLine3.jpg	Short_b22_cut1_stereo_44KHz.wav
3	68	3	4	2	I	1	0	718	0	poli_8sides 6_whiteLine3.jpg	Short_b23_cut1_stereo_44KHz.wav
3	69	4	3	2	I	1	0	984	0	poli_8sides 5_whiteLine3.jpg	Short_b20_cut1_stereo_44KHz.wav
3	70	1	2	0	C	1	1	777	1	poli_8sides 8_whiteLine3.jpg	Short_b22_cut1_stereo_44KHz.wav
3	71	3	3	2	I	1	0	590	0	poli_8sides 6_whiteLine3.jpg	Short_b20_cut1_stereo_44KHz.wav
3	72	2	1	0	C	1	1	624	1	poli_8sides 18_whiteLine3.jpg	Short_b09_cut1_stereo_44KHz.wav
3	73	4	3	2	I	2	0	1040	0	poli_8sides 5_whiteLine3.jpg	Short_b20_cut1_stereo_44KHz.wav
3	74	2	1	0	C	1	1	668	1	poli_8sides 18_whiteLine3.jpg	Short_b09_cut1_stereo_44KHz.wav
3	75	1	1	1	C	2	1	845	1	poli_8sides 8_whiteLine3.jpg	Short_b09_cut1_stereo_44KHz.wav
3	76	3	4	2	I	2	0	755	1	poli_8sides 6_whiteLine3.jpg	Short_b23_cut1_stereo_44KHz.wav
3	77	1	2	0	C	2	0	865	0	poli_8sides 8_whiteLine3.jpg	Short_b22_cut1_stereo_44KHz.wav
3	78	3	3	2	I	1	0	571	1	poli_8sides 6_whiteLine3.jpg	Short_b20_cut1_stereo_44KHz.wav
3	79	4	4	2	I	2	0	679	1	poli_8sides 5_whiteLine3.jpg	Short_b23_cut1_stereo_44KHz.wav
3	80	2	2	1	C	2	1	661	1	poli_8sides 18_whiteLine3.jpg	Short_b22_cut1_stereo_44KHz.wav
3	81	3	4	2	I	2	0	558	1	poli_8sides 6_whiteLine3.jpg	Short_b23_cut1_stereo_44KHz.wav
3	82	1	1	1	C	1	0	713	0	poli_8sides 8_whiteLine3.jpg	Short_b09_cut1_stereo_44KHz.wav
3	83	4	4	2	I	1	0	476	1	poli_8sides 5_whiteLine3.jpg	Short_b23_cut1_stereo_44KHz.wav
3	84	2	1	0	C	1	1	518	1	poli_8sides 18_whiteLine3.jpg	Short_b09_cut1_stereo_44KHz.wav
3	85	4	3	2	I	2	0	637	1	poli_8sides 5_whiteLine3.jpg	Short_b20_cut1_stereo_44KHz.wav
3	86	3	3	2	I	2	0	534	1	poli_8sides 6_whiteLine3.jpg	Short_b20_cut1_stereo_44KHz.wav
3	87	1	2	0	C	1	1	378	1	poli_8sides 8_whiteLine3.jpg	Short_b22_cut1_stereo_44KHz.wav
3	88	2	2	1	C	2	1	667	1	poli_8sides 18_whiteLine3.jpg	Short_b22_cut1_stereo_44KHz.wav
3	89	4	3	2	I	1	0	992	1	poli_8sides 5_whiteLine3.jpg	Short_b20_cut1_stereo_44KHz.wav
3	90	2	2	1	C	2	1	479	1	poli_8sides 18_whiteLine3.jpg	Short_b22_cut1_stereo_44KHz.wav
3	91	1	2	0	C	1	1	758	1	poli_8sides 8_whiteLine3.jpg	Short_b22_cut1_stereo_44KHz.wav
3	92	3	3	2	I	1	0	508	1	poli_8sides 6_whiteLine3.jpg	Short_b20_cut1_stereo_44KHz.wav
3	93	1	1	1	C	2	1	476	1	poli_8sides 8_whiteLine3.jpg	Short_b09_cut1_stereo_44KHz.wav
3	94	2	1	0	C	1	1	286	1	poli_8sides 18_whiteLine3.jpg	Short_b09_cut1_stereo_44KHz.wav
3	95	3	4	2	I	2	0	581	0	poli_8sides 6_whiteLine3.jpg	Short_b23_cut1_stereo_44KHz.wav
3	96	4	4	2	I	1	0	311	1	poli_8sides 5_whiteLine3.jpg	Short_b23_cut1_stereo_44KHz.wav
3	97	3	3	2	I	2	0	632	0	poli_8sides 6_whiteLine3.jpg	Short_b20_cut1_stereo_44KHz.wav
3	98	2	2	1	C	1	0	712	0	poli_8sides 18_whiteLine3.jpg	Short_b22_cut1_stereo_44KHz.wav
3	99	1	1	1	C	2	1	818	1	poli_8sides 8_whiteLine3.jpg	Short_b09_cut1_stereo_44KHz.wav
3	100	4	3	2	I	1	0	867	0	poli_8sides 5_whiteLine3.jpg	Short_b20_cut1_stereo_44KHz.wav
3	101	3	4	2	I	2	0	716	1	poli_8sides 6_whiteLine3.jpg	Short_b23_cut1_stereo_44KHz.wav
3	102	1	2	0	C	1	1	754	1	poli_8sides 8_whiteLine3.jpg	Short_b22_cut1_stereo_44KHz.wav
3	103	4	4	2	I	2	0	739	0	poli_8sides 5_whiteLine3.jpg	Short_b23_cut1_stereo_44KHz.wav
3	104	2	1	0	C	1	1	864	1	poli_8sides 18_whiteLine3.jpg	Short_b09_cut1_stereo_44KHz.wav
3	105	3	4	2	I	2	0	1157	0	poli_8sides 6_whiteLine3.jpg	Short_b23_cut1_stereo_44KHz.wav
3	106	4	4	2	I	1	0	670	1	poli_8sides 5_whiteLine3.jpg	Short_b23_cut1_stereo_44KHz.wav
3	107	2	1	0	C	1	1	702	1	poli_8sides 18_whiteLine3.jpg	Short_b09_cut1_stereo_44KHz.wav
3	108	1	1	1	C	1	0	702	0	poli_8sides 8_whiteLine3.jpg	Short_b09_cut1_stereo_44KHz.wav
3	109	3	3	2	I	2	0	668	0	poli_8sides 6_whiteLine3.jpg	Short_b20_cut1_stereo_44KHz.wav
3	110	1	2	0	C	1	1	438	1	poli_8sides 8_whiteLine3.jpg	Short_b22_cut1_stereo_44KHz.wav
3	111	4	3	2	I	1	0	563	0	poli_8sides 5_whiteLine3.jpg	Short_b20_cut1_stereo_44KHz.wav
3	112	2	2	1	C	1	0	707	0	poli_8sides 18_whiteLine3.jpg	Short_b22_cut1_stereo_44KHz.wav
3	113	3	4	2	I	2	0	655	0	poli_8sides 6_whiteLine3.jpg	Short_b23_cut1_stereo_44KHz.wav
3	114	2	2	1	C	1	0	717	0	poli_8sides 18_whiteLine3.jpg	Short_b22_cut1_stereo_44KHz.wav
3	115	4	4	2	I	2	0	734	0	poli_8sides 5_whiteLine3.jpg	Short_b23_cut1_stereo_44KHz.wav
3	116	1	2	0	C	1	1	614	1	poli_8sides 8_whiteLine3.jpg	Short_b22_cut1_stereo_44KHz.wav
3	117	2	1	0	C	1	1	597	1	poli_8sides 18_whiteLine3.jpg	Short_b09_cut1_stereo_44KHz.wav
3	118	1	1	1	C	2	1	627	1	poli_8sides 8_whiteLine3.jpg	Short_b09_cut1_stereo_44KHz.wav
3	119	4	3	2	I	1	0	1276	0	poli_8sides 5_whiteLine3.jpg	Short_b20_cut1_stereo_44KHz.wav
3	120	3	3	2	I	1	0	930	1	poli_8sides 6_whiteLine3.jpg	Short_b20_cut1_stereo_44KHz.wav
3	121	1	2	0	C	2	0	826	0	poli_8sides 8_whiteLine3.jpg	Short_b22_cut1_stereo_44KHz.wav
3	122	2	1	0	C	1	1	812	1	poli_8sides 18_whiteLine3.jpg	Short_b09_cut1_stereo_44KHz.wav
3	123	4	3	2	I	1	0	582	0	poli_8sides 5_whiteLine3.jpg	Short_b20_cut1_stereo_44KHz.wav
3	124	3	3	2	I	1	0	445	1	poli_8sides 6_whiteLine3.jpg	Short_b20_cut1_stereo_44KHz.wav
3	125	4	4	2	I	1	0	645	0	poli_8sides 5_whiteLine3.jpg	Short_b23_cut1_stereo_44KHz.wav
3	126	2	2	1	C	1	0	1072	0	poli_8sides 18_whiteLine3.jpg	Short_b22_cut1_stereo_44KHz.wav
3	127	3	4	2	I	2	0	763	0	poli_8sides 6_whiteLine3.jpg	Short_b23_cut1_stereo_44KHz.wav
3	128	1	1	1	C	1	0	595	0	poli_8sides 8_whiteLine3.jpg	Short_b09_cut1_stereo_44KHz.wav
3	129	3	3	2	I	1	0	1010	0	poli_8sides 6_whiteLine3.jpg	Short_b20_cut1_stereo_44KHz.wav
3	130	1	2	0	C	1	1	474	1	poli_8sides 8_whiteLine3.jpg	Short_b22_cut1_stereo_44KHz.wav
3	131	2	2	1	C	1	0	462	0	poli_8sides 18_whiteLine3.jpg	Short_b22_cut1_stereo_44KHz.wav
3	132	4	4	2	I	1	0	797	0	poli_8sides 5_whiteLine3.jpg	Short_b23_cut1_stereo_44KHz.wav
3	133	2	1	0	C	1	1	589	1	poli_8sides 18_whiteLine3.jpg	Short_b09_cut1_stereo_44KHz.wav
3	134	3	4	2	I	1	0	967	1	poli_8sides 6_whiteLine3.jpg	Short_b23_cut1_stereo_44KHz.wav
3	135	4	3	2	I	1	0	840	0	poli_8sides 5_whiteLine3.jpg	Short_b20_cut1_stereo_44KHz.wav
3	136	1	1	1	C	2	1	603	1	poli_8sides 8_whiteLine3.jpg	Short_b09_cut1_stereo_44KHz.wav
3	137	3	4	2	I	2	0	870	1	poli_8sides 6_whiteLine3.jpg	Short_b23_cut1_stereo_44KHz.wav
3	138	1	2	0	C	1	1	847	1	poli_8sides 8_whiteLine3.jpg	Short_b22_cut1_stereo_44KHz.wav
3	139	4	4	2	I	1	0	741	1	poli_8sides 5_whiteLine3.jpg	Short_b23_cut1_stereo_44KHz.wav
3	140	2	1	0	C	1	1	540	1	poli_8sides 18_whiteLine3.jpg	Short_b09_cut1_stereo_44KHz.wav
3	141	4	3	2	I	1	0	753	0	poli_8sides 5_whiteLine3.jpg	Short_b20_cut1_stereo_44KHz.wav
3	142	2	2	1	C	1	0	562	0	poli_8sides 18_whiteLine3.jpg	Short_b22_cut1_stereo_44KHz.wav
3	143	3	3	2	I	1	0	668	0	poli_8sides 6_whiteLine3.jpg	Short_b20_cut1_stereo_44KHz.wav
3	144	1	1	1	C	1	0	614	0	poli_8sides 8_whiteLine3.jpg	Short_b09_cut1_stereo_44KHz.wav
3	145	3	3	2	I	1	0	619	0	poli_8sides 6_whiteLine3.jpg	Short_b20_cut1_stereo_44KHz.wav
3	146	4	3	2	I	1	0	638	1	poli_8sides 5_whiteLine3.jpg	Short_b20_cut1_stereo_44KHz.wav
3	147	1	2	0	C	1	1	436	1	poli_8sides 8_whiteLine3.jpg	Short_b22_cut1_stereo_44KHz.wav
3	148	2	2	1	C	1	0	498	0	poli_8sides 18_whiteLine3.jpg	Short_b22_cut1_stereo_44KHz.wav
3	149	3	4	2	I	1	0	624	1	poli_8sides 6_whiteLine3.jpg	Short_b23_cut1_stereo_44KHz.wav
3	150	1	1	1	C	1	0	469	0	poli_8sides 8_whiteLine3.jpg	Short_b09_cut1_stereo_44KHz.wav
3	151	2	1	0	C	2	0	392	0	poli_8sides 18_whiteLine3.jpg	Short_b09_cut1_stereo_44KHz.wav
3	152	4	4	2	I	1	0	559	0	poli_8sides 5_whiteLine3.jpg	Short_b23_cut1_stereo_44KHz.wav
3	153	1	1	1	C	2	1	506	1	poli_8sides 8_whiteLine3.jpg	Short_b09_cut1_stereo_44KHz.wav
3	154	4	4	2	I	1	0	604	1	poli_8sides 5_whiteLine3.jpg	Short_b23_cut1_stereo_44KHz.wav
3	155	3	3	2	I	1	0	567	0	poli_8sides 6_whiteLine3.jpg	Short_b20_cut1_stereo_44KHz.wav
3	156	2	1	0	C	1	1	545	1	poli_8sides 18_whiteLine3.jpg	Short_b09_cut1_stereo_44KHz.wav
3	157	3	4	2	I	2	0	435	0	poli_8sides 6_whiteLine3.jpg	Short_b23_cut1_stereo_44KHz.wav
3	158	4	3	2	I	1	0	484	0	poli_8sides 5_whiteLine3.jpg	Short_b20_cut1_stereo_44KHz.wav
3	159	2	2	1	C	1	0	266	0	poli_8sides 18_whiteLine3.jpg	Short_b22_cut1_stereo_44KHz.wav
3	160	1	2	0	C	2	0	521	0	poli_8sides 8_whiteLine3.jpg	Short_b22_cut1_stereo_44KHz.wav
3	161	2	1	0	C	1	1	616	1	poli_8sides 18_whiteLine3.jpg	Short_b09_cut1_stereo_44KHz.wav
3	162	1	2	0	C	1	1	637	1	poli_8sides 8_whiteLine3.jpg	Short_b22_cut1_stereo_44KHz.wav
3	163	4	4	2	I	1	0	740	0	poli_8sides 5_whiteLine3.jpg	Short_b23_cut1_stereo_44KHz.wav
3	164	3	4	2	I	1	0	757	1	poli_8sides 6_whiteLine3.jpg	Short_b23_cut1_stereo_44KHz.wav
3	165	4	3	2	I	1	0	798	1	poli_8sides 5_whiteLine3.jpg	Short_b20_cut1_stereo_44KHz.wav
3	166	3	3	2	I	2	0	645	0	poli_8sides 6_whiteLine3.jpg	Short_b20_cut1_stereo_44KHz.wav
3	167	1	1	1	C	1	0	558	0	poli_8sides 8_whiteLine3.jpg	Short_b09_cut1_stereo_44KHz.wav
3	168	2	2	1	C	1	0	535	0	poli_8sides 18_whiteLine3.jpg	Short_b22_cut1_stereo_44KHz.wav
3	169	4	4	2	I	2	0	547	0	poli_8sides 5_whiteLine3.jpg	Short_b23_cut1_stereo_44KHz.wav
3	170	2	1	0	C	1	1	381	1	poli_8sides 18_whiteLine3.jpg	Short_b09_cut1_stereo_44KHz.wav
3	171	3	4	2	I	1	0	442	1	poli_8sides 6_whiteLine3.jpg	Short_b23_cut1_stereo_44KHz.wav
3	172	1	1	1	C	1	0	319	0	poli_8sides 8_whiteLine3.jpg	Short_b09_cut1_stereo_44KHz.wav
3	173	3	3	2	I	1	0	475	1	poli_8sides 6_whiteLine3.jpg	Short_b20_cut1_stereo_44KHz.wav
3	174	1	2	0	C	2	0	596	0	poli_8sides 8_whiteLine3.jpg	Short_b22_cut1_stereo_44KHz.wav
3	175	4	3	2	I	1	0	504	1	poli_8sides 5_whiteLine3.jpg	Short_b20_cut1_stereo_44KHz.wav
3	176	2	2	1	C	2	1	928	1	poli_8sides 18_whiteLine3.jpg	Short_b22_cut1_stereo_44KHz.wav
3	177	4	4	2	I	2	0	889	1	poli_8sides 5_whiteLine3.jpg	Short_b23_cut1_stereo_44KHz.wav
3	178	2	2	1	C	1	0	573	0	poli_8sides 18_whiteLine3.jpg	Short_b22_cut1_stereo_44KHz.wav
3	179	1	2	0	C	1	1	447	1	poli_8sides 8_whiteLine3.jpg	Short_b22_cut1_stereo_44KHz.wav
3	180	3	4	2	I	2	0	788	0	poli_8sides 6_whiteLine3.jpg	Short_b23_cut1_stereo_44KHz.wav
3	181	2	1	0	C	1	1	541	1	poli_8sides 18_whiteLine3.jpg	Short_b09_cut1_stereo_44KHz.wav
3	182	1	1	1	C	1	0	574	0	poli_8sides 8_whiteLine3.jpg	Short_b09_cut1_stereo_44KHz.wav
3	183	4	3	2	I	1	0	639	0	poli_8sides 5_whiteLine3.jpg	Short_b20_cut1_stereo_44KHz.wav
3	184	3	3	2	I	1	0	725	1	poli_8sides 6_whiteLine3.jpg	Short_b20_cut1_stereo_44KHz.wav
3	185	2	1	0	C	1	1	470	1	poli_8sides 18_whiteLine3.jpg	Short_b09_cut1_stereo_44KHz.wav
3	186	4	3	2	I	1	0	704	0	poli_8sides 5_whiteLine3.jpg	Short_b20_cut1_stereo_44KHz.wav
3	187	3	3	2	I	1	0	428	1	poli_8sides 6_whiteLine3.jpg	Short_b20_cut1_stereo_44KHz.wav
3	188	1	1	1	C	1	0	602	0	poli_8sides 8_whiteLine3.jpg	Short_b09_cut1_stereo_44KHz.wav
3	189	2	2	1	C	1	0	369	0	poli_8sides 18_whiteLine3.jpg	Short_b22_cut1_stereo_44KHz.wav
3	190	1	2	0	C	1	1	642	1	poli_8sides 8_whiteLine3.jpg	Short_b22_cut1_stereo_44KHz.wav
3	191	3	4	2	I	2	0	588	0	poli_8sides 6_whiteLine3.jpg	Short_b23_cut1_stereo_44KHz.wav
3	192	4	4	2	I	1	0	417	1	poli_8sides 5_whiteLine3.jpg	Short_b23_cut1_stereo_44KHz.wav
3	193	2	1	0	C	1	1	585	1	poli_8sides 18_whiteLine3.jpg	Short_b09_cut1_stereo_44KHz.wav
3	194	4	4	2	I	2	0	820	1	poli_8sides 5_whiteLine3.jpg	Short_b23_cut1_stereo_44KHz.wav
3	195	3	4	2	I	1	0	733	1	poli_8sides 6_whiteLine3.jpg	Short_b23_cut1_stereo_44KHz.wav
3	196	1	2	0	C	1	1	660	1	poli_8sides 8_whiteLine3.jpg	Short_b22_cut1_stereo_44KHz.wav
3	197	4	3	2	I	1	0	774	0	poli_8sides 5_whiteLine3.jpg	Short_b20_cut1_stereo_44KHz.wav
3	198	2	2	1	C	1	0	586	0	poli_8sides 18_whiteLine3.jpg	Short_b22_cut1_stereo_44KHz.wav
3	199	1	1	1	C	2	1	588	1	poli_8sides 8_whiteLine3.jpg	Short_b09_cut1_stereo_44KHz.wav
3	200	3	3	2	I	1	0	577	1	poli_8sides 6_whiteLine3.jpg	Short_b20_cut1_stereo_44KHz.wav
4	1	1	1	1	C	2	1	1070	1	poli_8sides 11_whiteLine3.jpg	MediumShort_e22_cut1_stereo_44KHz.wav
4	2	3	4	2	I	1	0	787	0	poli_8sides 16_whiteLine3.jpg	MediumShort_e16_cut1_stereo_44KHz.wav
4	3	2	2	1	C	1	0	758	0	poli_8sides 3_whiteLine3.jpg	MediumShort_b16_cut3_MS_stereo_44KHz.wav
4	4	4	4	2	I	1	0	559	1	poli_8sides 1_whiteLine3.jpg	MediumShort_e16_cut1_stereo_44KHz.wav
4	5	3	3	2	I	1	0	506	1	poli_8sides 16_whiteLine3.jpg	MediumShort_b10_cut1_MS_stereo_44KHz.wav
4	6	1	2	0	C	1	1	844	1	poli_8sides 11_whiteLine3.jpg	MediumShort_b16_cut3_MS_stereo_44KHz.wav
4	7	2	1	0	C	2	0	961	0	poli_8sides 3_whiteLine3.jpg	MediumShort_e22_cut1_stereo_44KHz.wav
4	8	4	3	2	I	1	0	736	0	poli_8sides 1_whiteLine3.jpg	MediumShort_b10_cut1_MS_stereo_44KHz.wav
4	9	2	1	0	C	1	1	511	1	poli_8sides 3_whiteLine3.jpg	MediumShort_e22_cut1_stereo_44KHz.wav
4	10	3	4	2	I	2	0	846	1	poli_8sides 16_whiteLine3.jpg	MediumShort_e16_cut1_stereo_44KHz.wav
4	11	1	1	1	C	1	0	693	0	poli_8sides 11_whiteLine3.jpg	MediumShort_e22_cut1_stereo_44KHz.wav
4	12	4	3	2	I	1	0	676	1	poli_8sides 1_whiteLine3.jpg	MediumShort_b10_cut1_MS_stereo_44KHz.wav
4	13	1	2	0	C	1	1	935	1	poli_8sides 11_whiteLine3.jpg	MediumShort_b16_cut3_MS_stereo_44KHz.wav
4	14	3	3	2	I	1	0	783	1	poli_8sides 16_whiteLine3.jpg	MediumShort_b10_cut1_MS_stereo_44KHz.wav
4	15	4	4	2	I	2	0	708	0	poli_8sides 1_whiteLine3.jpg	MediumShort_e16_cut1_stereo_44KHz.wav
4	16	2	2	1	C	1	0	471	0	poli_8sides 3_whiteLine3.jpg	MediumShort_b16_cut3_MS_stereo_44KHz.wav
4	17	4	3	2	I	1	0	580	0	poli_8sides 1_whiteLine3.jpg	MediumShort_b10_cut1_MS_stereo_44KHz.wav
4	18	2	2	1	C	1	0	570	0	poli_8sides 3_whiteLine3.jpg	MediumShort_b16_cut3_MS_stereo_44KHz.wav
4	19	3	3	2	I	1	0	358	1	poli_8sides 16_whiteLine3.jpg	MediumShort_b10_cut1_MS_stereo_44KHz.wav
4	20	1	2	0	C	1	1	567	1	poli_8sides 11_whiteLine3.jpg	MediumShort_b16_cut3_MS_stereo_44KHz.wav
4	21	2	1	0	C	2	0	689	0	poli_8sides 3_whiteLine3.jpg	MediumShort_e22_cut1_stereo_44KHz.wav
4	22	3	4	2	I	1	0	915	0	poli_8sides 16_whiteLine3.jpg	MediumShort_e16_cut1_stereo_44KHz.wav
4	23	4	4	2	I	2	0	548	0	poli_8sides 1_whiteLine3.jpg	MediumShort_e16_cut1_stereo_44KHz.wav
4	24	1	1	1	C	1	0	930	0	poli_8sides 11_whiteLine3.jpg	MediumShort_e22_cut1_stereo_44KHz.wav
4	25	2	2	1	C	1	0	981	0	poli_8sides 3_whiteLine3.jpg	MediumShort_b16_cut3_MS_stereo_44KHz.wav
4	26	1	2	0	C	1	1	657	1	poli_8sides 11_whiteLine3.jpg	MediumShort_b16_cut3_MS_stereo_44KHz.wav
4	27	4	4	2	I	1	0	769	0	poli_8sides 1_whiteLine3.jpg	MediumShort_e16_cut1_stereo_44KHz.wav
4	28	3	4	2	I	1	0	489	1	poli_8sides 16_whiteLine3.jpg	MediumShort_e16_cut1_stereo_44KHz.wav
4	29	1	1	1	C	1	0	665	0	poli_8sides 11_whiteLine3.jpg	MediumShort_e22_cut1_stereo_44KHz.wav
4	30	2	1	0	C	1	1	729	1	poli_8sides 3_whiteLine3.jpg	MediumShort_e22_cut1_stereo_44KHz.wav
4	31	4	3	2	I	1	0	1083	0	poli_8sides 1_whiteLine3.jpg	MediumShort_b10_cut1_MS_stereo_44KHz.wav
4	32	3	3	2	I	1	0	757	1	poli_8sides 16_whiteLine3.jpg	MediumShort_b10_cut1_MS_stereo_44KHz.wav
4	33	4	4	2	I	2	0	1006	1	poli_8sides 1_whiteLine3.jpg	MediumShort_e16_cut1_stereo_44KHz.wav
4	34	2	1	0	C	1	1	808	1	poli_8sides 3_whiteLine3.jpg	MediumShort_e22_cut1_stereo_44KHz.wav
4	35	1	1	1	C	2	1	678	1	poli_8sides 11_whiteLine3.jpg	MediumShort_e22_cut1_stereo_44KHz.wav
4	36	3	4	2	I	1	0	737	0	poli_8sides 16_whiteLine3.jpg	MediumShort_e16_cut1_stereo_44KHz.wav
4	37	1	2	0	C	1	1	784	1	poli_8sides 11_whiteLine3.jpg	MediumShort_b16_cut3_MS_stereo_44KHz.wav
4	38	2	2	1	C	1	0	842	0	poli_8sides 3_whiteLine3.jpg	MediumShort_b16_cut3_MS_stereo_44KHz.wav
4	39	3	3	2	I	1	0	888	0	poli_8sides 16_whiteLine3.jpg	MediumShort_b10_cut1_MS_stereo_44KHz.wav
4	40	4	3	2	I	2	0	888	0	poli_8sides 1_whiteLine3.jpg	MediumShort_b10_cut1_MS_stereo_44KHz.wav
4	41	1	2	0	C	1	1	767	1	poli_8sides 11_whiteLine3.jpg	MediumShort_b16_cut3_MS_stereo_44KHz.wav
4	42	4	4	2	I	1	0	778	1	poli_8sides 1_whiteLine3.jpg	MediumShort_e16_cut1_stereo_44KHz.wav
4	43	3	4	2	I	2	0	736	1	poli_8sides 16_whiteLine3.jpg	MediumShort_e16_cut1_stereo_44KHz.wav
4	44	2	1	0	C	1	1	782	1	poli_8sides 3_whiteLine3.jpg	MediumShort_e22_cut1_stereo_44KHz.wav
4	45	1	1	1	C	2	1	805	1	poli_8sides 11_whiteLine3.jpg	MediumShort_e22_cut1_stereo_44KHz.wav
4	46	2	2	1	C	2	1	929	1	poli_8sides 3_whiteLine3.jpg	MediumShort_b16_cut3_MS_stereo_44KHz.wav
4	47	3	3	2	I	1	0	814	1	poli_8sides 16_whiteLine3.jpg	MediumShort_b10_cut1_MS_stereo_44KHz.wav
4	48	4	3	2	I	2	0	703	1	poli_8sides 1_whiteLine3.jpg	MediumShort_b10_cut1_MS_stereo_44KHz.wav
4	49	1	2	0	C	1	1	710	1	poli_8sides 11_whiteLine3.jpg	MediumShort_b16_cut3_MS_stereo_44KHz.wav
4	50	3	4	2	I	1	0	773	1	poli_8sides 16_whiteLine3.jpg	MediumShort_e16_cut1_stereo_44KHz.wav
4	51	4	3	2	I	1	0	611	0	poli_8sides 1_whiteLine3.jpg	MediumShort_b10_cut1_MS_stereo_44KHz.wav
4	52	2	1	0	C	1	1	491	1	poli_8sides 3_whiteLine3.jpg	MediumShort_e22_cut1_stereo_44KHz.wav
4	53	1	1	1	C	2	1	821	1	poli_8sides 11_whiteLine3.jpg	MediumShort_e22_cut1_stereo_44KHz.wav
4	54	3	3	2	I	1	0	477	0	poli_8sides 16_whiteLine3.jpg	MediumShort_b10_cut1_MS_stereo_44KHz.wav
4	55	4	4	2	I	1	0	446	0	poli_8sides 1_whiteLine3.jpg	MediumShort_e16_cut1_stereo_44KHz.wav
4	56	2	2	1	C	1	0	423	0	poli_8sides 3_whiteLine3.jpg	MediumShort_b16_cut3_MS_stereo_44KHz.wav
4	57	1	1	1	C	1	0	468	0	poli_8sides 11_whiteLine3.jpg	MediumShort_e22_cut1_stereo_44KHz.wav
4	58	4	3	2	I	1	0	827	1	poli_8sides 1_whiteLine3.jpg	MediumShort_b10_cut1_MS_stereo_44KHz.wav
4	59	3	3	2	I	1	0	771	0	poli_8sides 16_whiteLine3.jpg	MediumShort_b10_cut1_MS_stereo_44KHz.wav
4	60	2	1	0	C	1	1	699	1	poli_8sides 3_whiteLine3.jpg	MediumShort_e22_cut1_stereo_44KHz.wav
4	61	4	4	2	I	1	0	614	0	poli_8sides 1_whiteLine3.jpg	MediumShort_e16_cut1_stereo_44KHz.wav
4	62	3	4	2	I	1	0	473	0	poli_8sides 16_whiteLine3.jpg	MediumShort_e16_cut1_stereo_44KHz.wav
4	63	2	2	1	C	2	1	834	1	poli_8sides 3_whiteLine3.jpg	MediumShort_b16_cut3_MS_stereo_44KHz.wav
4	64	1	2	0	C	1	1	775	1	poli_8sides 11_whiteLine3.jpg	MediumShort_b16_cut3_MS_stereo_44KHz.wav
4	65	4	3	2	I	2	0	744	1	poli_8sides 1_whiteLine3.jpg	MediumShort_b10_cut1_MS_stereo_44KHz.wav
4	66	2	2	1	C	1	0	574	0	poli_8sides 3_whiteLine3.jpg	MediumShort_b16_cut3_MS_stereo_44KHz.wav
4	67	1	2	0	C	1	1	582	1	poli_8sides 11_whiteLine3.jpg	MediumShort_b16_cut3_MS_stereo_44KHz.wav
4	68	3	3	2	I	1	0	741	0	poli_8sides 16_whiteLine3.jpg	MediumShort_b10_cut1_MS_stereo_44KHz.wav
4	69	2	1	0	C	1	1	813	1	poli_8sides 3_whiteLine3.jpg	MediumShort_e22_cut1_stereo_44KHz.wav
4	70	1	1	1	C	2	1	726	1	poli_8sides 11_whiteLine3.jpg	MediumShort_e22_cut1_stereo_44KHz.wav
4	71	4	4	2	I	1	0	722	1	poli_8sides 1_whiteLine3.jpg	MediumShort_e16_cut1_stereo_44KHz.wav
4	72	3	4	2	I	2	0	871	0	poli_8sides 16_whiteLine3.jpg	MediumShort_e16_cut1_stereo_44KHz.wav
4	73	2	2	1	C	1	0	894	0	poli_8sides 3_whiteLine3.jpg	MediumShort_b16_cut3_MS_stereo_44KHz.wav
4	74	3	3	2	I	1	0	818	1	poli_8sides 16_whiteLine3.jpg	MediumShort_b10_cut1_MS_stereo_44KHz.wav
4	75	1	1	1	C	1	0	687	0	poli_8sides 11_whiteLine3.jpg	MediumShort_e22_cut1_stereo_44KHz.wav
4	76	4	4	2	I	1	0	786	1	poli_8sides 1_whiteLine3.jpg	MediumShort_e16_cut1_stereo_44KHz.wav
4	77	3	4	2	I	1	0	652	0	poli_8sides 16_whiteLine3.jpg	MediumShort_e16_cut1_stereo_44KHz.wav
4	78	4	3	2	I	1	0	634	1	poli_8sides 1_whiteLine3.jpg	MediumShort_b10_cut1_MS_stereo_44KHz.wav
4	79	1	2	0	C	2	0	660	0	poli_8sides 11_whiteLine3.jpg	MediumShort_b16_cut3_MS_stereo_44KHz.wav
4	80	2	1	0	C	1	1	786	1	poli_8sides 3_whiteLine3.jpg	MediumShort_e22_cut1_stereo_44KHz.wav
4	81	1	2	0	C	1	1	610	1	poli_8sides 11_whiteLine3.jpg	MediumShort_b16_cut3_MS_stereo_44KHz.wav
4	82	3	3	2	I	1	0	568	1	poli_8sides 16_whiteLine3.jpg	MediumShort_b10_cut1_MS_stereo_44KHz.wav
4	83	4	3	2	I	1	0	898	0	poli_8sides 1_whiteLine3.jpg	MediumShort_b10_cut1_MS_stereo_44KHz.wav
4	84	2	2	1	C	1	0	609	0	poli_8sides 3_whiteLine3.jpg	MediumShort_b16_cut3_MS_stereo_44KHz.wav
4	85	3	4	2	I	1	0	415	1	poli_8sides 16_whiteLine3.jpg	MediumShort_e16_cut1_stereo_44KHz.wav
4	86	1	1	1	C	1	0	595	0	poli_8sides 11_whiteLine3.jpg	MediumShort_e22_cut1_stereo_44KHz.wav
4	87	4	4	2	I	2	0	462	1	poli_8sides 1_whiteLine3.jpg	MediumShort_e16_cut1_stereo_44KHz.wav
4	88	2	1	0	C	1	1	597	1	poli_8sides 3_whiteLine3.jpg	MediumShort_e22_cut1_stereo_44KHz.wav
4	89	1	1	1	C	1	0	640	0	poli_8sides 11_whiteLine3.jpg	MediumShort_e22_cut1_stereo_44KHz.wav
4	90	2	2	1	C	1	0	666	0	poli_8sides 3_whiteLine3.jpg	MediumShort_b16_cut3_MS_stereo_44KHz.wav
4	91	3	4	2	I	1	0	747	0	poli_8sides 16_whiteLine3.jpg	MediumShort_e16_cut1_stereo_44KHz.wav
4	92	4	4	2	I	1	0	582	0	poli_8sides 1_whiteLine3.jpg	MediumShort_e16_cut1_stereo_44KHz.wav
4	93	2	1	0	C	1	1	1528	1	poli_8sides 3_whiteLine3.jpg	MediumShort_e22_cut1_stereo_44KHz.wav
4	94	3	3	2	I	1	0	745	0	poli_8sides 16_whiteLine3.jpg	MediumShort_b10_cut1_MS_stereo_44KHz.wav
4	95	4	3	2	I	2	0	979	0	poli_8sides 1_whiteLine3.jpg	MediumShort_b10_cut1_MS_stereo_44KHz.wav
4	96	1	2	0	C	1	1	673	1	poli_8sides 11_whiteLine3.jpg	MediumShort_b16_cut3_MS_stereo_44KHz.wav
4	97	4	3	2	I	1	0	652	0	poli_8sides 1_whiteLine3.jpg	MediumShort_b10_cut1_MS_stereo_44KHz.wav
4	98	2	1	0	C	1	1	609	1	poli_8sides 3_whiteLine3.jpg	MediumShort_e22_cut1_stereo_44KHz.wav
4	99	1	2	0	C	1	1	606	1	poli_8sides 11_whiteLine3.jpg	MediumShort_b16_cut3_MS_stereo_44KHz.wav
4	100	3	4	2	I	1	0	488	0	poli_8sides 16_whiteLine3.jpg	MediumShort_e16_cut1_stereo_44KHz.wav
4	101	1	1	1	C	1	0	307	0	poli_8sides 11_whiteLine3.jpg	MediumShort_e22_cut1_stereo_44KHz.wav
4	102	2	2	1	C	1	0	630	0	poli_8sides 3_whiteLine3.jpg	MediumShort_b16_cut3_MS_stereo_44KHz.wav
4	103	4	4	2	I	1	0	639	1	poli_8sides 1_whiteLine3.jpg	MediumShort_e16_cut1_stereo_44KHz.wav
4	104	3	3	2	I	2	0	876	0	poli_8sides 16_whiteLine3.jpg	MediumShort_b10_cut1_MS_stereo_44KHz.wav
4	105	2	2	1	C	1	0	520	0	poli_8sides 3_whiteLine3.jpg	MediumShort_b16_cut3_MS_stereo_44KHz.wav
4	106	3	4	2	I	1	0	657	0	poli_8sides 16_whiteLine3.jpg	MediumShort_e16_cut1_stereo_44KHz.wav
4	107	4	4	2	I	1	0	672	0	poli_8sides 1_whiteLine3.jpg	MediumShort_e16_cut1_stereo_44KHz.wav
4	108	1	2	0	C	1	1	543	1	poli_8sides 11_whiteLine3.jpg	MediumShort_b16_cut3_MS_stereo_44KHz.wav
4	109	2	1	0	C	1	1	676	1	poli_8sides 3_whiteLine3.jpg	MediumShort_e22_cut1_stereo_44KHz.wav
4	110	1	1	1	C	2	1	847	1	poli_8sides 11_whiteLine3.jpg	MediumShort_e22_cut1_stereo_44KHz.wav
4	111	4	3	2	I	1	0	707	1	poli_8sides 1_whiteLine3.jpg	MediumShort_b10_cut1_MS_stereo_44KHz.wav
4	112	3	3	2	I	2	0	731	1	poli_8sides 16_whiteLine3.jpg	MediumShort_b10_cut1_MS_stereo_44KHz.wav
4	113	2	2	1	C	1	0	622	0	poli_8sides 3_whiteLine3.jpg	MediumShort_b16_cut3_MS_stereo_44KHz.wav
4	114	4	4	2	I	2	0	824	1	poli_8sides 1_whiteLine3.jpg	MediumShort_e16_cut1_stereo_44KHz.wav
4	115	3	4	2	I	2	0	741	0	poli_8sides 16_whiteLine3.jpg	MediumShort_e16_cut1_stereo_44KHz.wav
4	116	1	2	0	C	1	1	701	1	poli_8sides 11_whiteLine3.jpg	MediumShort_b16_cut3_MS_stereo_44KHz.wav
4	117	2	1	0	C	1	1	738	1	poli_8sides 3_whiteLine3.jpg	MediumShort_e22_cut1_stereo_44KHz.wav
4	118	1	1	1	C	2	1	715	1	poli_8sides 11_whiteLine3.jpg	MediumShort_e22_cut1_stereo_44KHz.wav
4	119	4	3	2	I	1	0	660	1	poli_8sides 1_whiteLine3.jpg	MediumShort_b10_cut1_MS_stereo_44KHz.wav
4	120	3	3	2	I	2	0	682	1	poli_8sides 16_whiteLine3.jpg	MediumShort_b10_cut1_MS_stereo_44KHz.wav
4	121	2	2	1	C	1	0	865	0	poli_8sides 3_whiteLine3.jpg	MediumShort_b16_cut3_MS_stereo_44KHz.wav
4	122	1	1	1	C	1	0	917	0	poli_8sides 11_whiteLine3.jpg	MediumShort_e22_cut1_stereo_44KHz.wav
4	123	3	3	2	I	2	0	711	0	poli_8sides 16_whiteLine3.jpg	MediumShort_b10_cut1_MS_stereo_44KHz.wav
4	124	4	3	2	I	1	0	706	1	poli_8sides 1_whiteLine3.jpg	MediumShort_b10_cut1_MS_stereo_44KHz.wav
4	125	1	2	0	C	1	1	627	1	poli_8sides 11_whiteLine3.jpg	MediumShort_b16_cut3_MS_stereo_44KHz.wav
4	126	2	1	0	C	1	1	735	1	poli_8sides 3_whiteLine3.jpg	MediumShort_e22_cut1_stereo_44KHz.wav
4	127	3	4	2	I	1	0	723	0	poli_8sides 16_whiteLine3.jpg	MediumShort_e16_cut1_stereo_44KHz.wav
4	128	4	4	2	I	2	0	751	1	poli_8sides 1_whiteLine3.jpg	MediumShort_e16_cut1_stereo_44KHz.wav
4	129	3	3	2	I	2	0	724	1	poli_8sides 16_whiteLine3.jpg	MediumShort_b10_cut1_MS_stereo_44KHz.wav
4	130	2	2	1	C	1	0	658	0	poli_8sides 3_whiteLine3.jpg	MediumShort_b16_cut3_MS_stereo_44KHz.wav
4	131	4	4	2	I	2	0	700	1	poli_8sides 1_whiteLine3.jpg	MediumShort_e16_cut1_stereo_44KHz.wav
4	132	1	1	1	C	1	0	582	0	poli_8sides 11_whiteLine3.jpg	MediumShort_e22_cut1_stereo_44KHz.wav
4	133	4	3	2	I	1	0	753	1	poli_8sides 1_whiteLine3.jpg	MediumShort_b10_cut1_MS_stereo_44KHz.wav
4	134	1	2	0	C	1	1	693	1	poli_8sides 11_whiteLine3.jpg	MediumShort_b16_cut3_MS_stereo_44KHz.wav
4	135	2	1	0	C	1	1	623	1	poli_8sides 3_whiteLine3.jpg	MediumShort_e22_cut1_stereo_44KHz.wav
4	136	3	4	2	I	2	0	662	0	poli_8sides 16_whiteLine3.jpg	MediumShort_e16_cut1_stereo_44KHz.wav
4	137	2	2	1	C	1	0	563	0	poli_8sides 3_whiteLine3.jpg	MediumShort_b16_cut3_MS_stereo_44KHz.wav
4	138	1	1	1	C	1	0	599	0	poli_8sides 11_whiteLine3.jpg	MediumShort_e22_cut1_stereo_44KHz.wav
4	139	4	4	2	I	1	0	572	0	poli_8sides 1_whiteLine3.jpg	MediumShort_e16_cut1_stereo_44KHz.wav
4	140	3	4	2	I	1	0	792	0	poli_8sides 16_whiteLine3.jpg	MediumShort_e16_cut1_stereo_44KHz.wav
4	141	1	2	0	C	1	1	545	1	poli_8sides 11_whiteLine3.jpg	MediumShort_b16_cut3_MS_stereo_44KHz.wav
4	142	3	3	2	I	1	0	683	1	poli_8sides 16_whiteLine3.jpg	MediumShort_b10_cut1_MS_stereo_44KHz.wav
4	143	2	1	0	C	1	1	678	1	poli_8sides 3_whiteLine3.jpg	MediumShort_e22_cut1_stereo_44KHz.wav
4	144	4	3	2	I	1	0	660	0	poli_8sides 1_whiteLine3.jpg	MediumShort_b10_cut1_MS_stereo_44KHz.wav
4	145	2	2	1	C	1	0	541	0	poli_8sides 3_whiteLine3.jpg	MediumShort_b16_cut3_MS_stereo_44KHz.wav
4	146	1	1	1	C	1	0	676	0	poli_8sides 11_whiteLine3.jpg	MediumShort_e22_cut1_stereo_44KHz.wav
4	147	3	3	2	I	1	0	629	1	poli_8sides 16_whiteLine3.jpg	MediumShort_b10_cut1_MS_stereo_44KHz.wav
4	148	4	3	2	I	1	0	458	1	poli_8sides 1_whiteLine3.jpg	MediumShort_b10_cut1_MS_stereo_44KHz.wav
4	149	3	4	2	I	1	0	607	0	poli_8sides 16_whiteLine3.jpg	MediumShort_e16_cut1_stereo_44KHz.wav
4	150	4	4	2	I	2	0	504	0	poli_8sides 1_whiteLine3.jpg	MediumShort_e16_cut1_stereo_44KHz.wav
4	151	1	2	0	C	1	1	558	1	poli_8sides 11_whiteLine3.jpg	MediumShort_b16_cut3_MS_stereo_44KHz.wav
4	152	2	1	0	C	1	1	550	1	poli_8sides 3_whiteLine3.jpg	MediumShort_e22_cut1_stereo_44KHz.wav
4	153	3	3	2	I	1	0	626	1	poli_8sides 16_whiteLine3.jpg	MediumShort_b10_cut1_MS_stereo_44KHz.wav
4	154	1	2	0	C	1	1	744	1	poli_8sides 11_whiteLine3.jpg	MediumShort_b16_cut3_MS_stereo_44KHz.wav
4	155	2	2	1	C	1	0	816	0	poli_8sides 3_whiteLine3.jpg	MediumShort_b16_cut3_MS_stereo_44KHz.wav
4	156	4	4	2	I	1	0	739	1	poli_8sides 1_whiteLine3.jpg	MediumShort_e16_cut1_stereo_44KHz.wav
4	157	1	1	1	C	1	0	548	0	poli_8sides 11_whiteLine3.jpg	MediumShort_e22_cut1_stereo_44KHz.wav
4	158	2	1	0	C	2	0	533	0	poli_8sides 3_whiteLine3.jpg	MediumShort_e22_cut1_stereo_44KHz.wav
4	159	4	3	2	I	1	0	916	1	poli_8sides 1_whiteLine3.jpg	MediumShort_b10_cut1_MS_stereo_44KHz.wav
4	160	3	4	2	I	1	0	874	1	poli_8sides 16_whiteLine3.jpg	MediumShort_e16_cut1_stereo_44KHz.wav
4	161	2	2	1	C	1	0	629	0	poli_8sides 3_whiteLine3.jpg	MediumShort_b16_cut3_MS_stereo_44KHz.wav
4	162	3	4	2	I	1	0	550	0	poli_8sides 16_whiteLine3.jpg	MediumShort_e16_cut1_stereo_44KHz.wav
4	163	4	3	2	I	0	0	0	0	poli_8sides 1_whiteLine3.jpg	MediumShort_b10_cut1_MS_stereo_44KHz.wav
4	164	1	1	1	C	2	1	580	1	poli_8sides 11_whiteLine3.jpg	MediumShort_e22_cut1_stereo_44KHz.wav
4	165	4	4	2	I	2	0	752	0	poli_8sides 1_whiteLine3.jpg	MediumShort_e16_cut1_stereo_44KHz.wav
4	166	3	3	2	I	1	0	756	1	poli_8sides 16_whiteLine3.jpg	MediumShort_b10_cut1_MS_stereo_44KHz.wav
4	167	1	2	0	C	1	1	649	1	poli_8sides 11_whiteLine3.jpg	MediumShort_b16_cut3_MS_stereo_44KHz.wav
4	168	2	1	0	C	1	1	563	1	poli_8sides 3_whiteLine3.jpg	MediumShort_e22_cut1_stereo_44KHz.wav
4	169	3	3	2	I	1	0	766	1	poli_8sides 16_whiteLine3.jpg	MediumShort_b10_cut1_MS_stereo_44KHz.wav
4	170	2	1	0	C	1	1	646	1	poli_8sides 3_whiteLine3.jpg	MediumShort_e22_cut1_stereo_44KHz.wav
4	171	4	3	2	I	1	0	540	1	poli_8sides 1_whiteLine3.jpg	MediumShort_b10_cut1_MS_stereo_44KHz.wav
4	172	1	1	1	C	1	0	598	0	poli_8sides 11_whiteLine3.jpg	MediumShort_e22_cut1_stereo_44KHz.wav
4	173	2	2	1	C	1	0	633	0	poli_8sides 3_whiteLine3.jpg	MediumShort_b16_cut3_MS_stereo_44KHz.wav
4	174	4	4	2	I	1	0	402	0	poli_8sides 1_whiteLine3.jpg	MediumShort_e16_cut1_stereo_44KHz.wav
4	175	3	4	2	I	1	0	904	1	poli_8sides 16_whiteLine3.jpg	MediumShort_e16_cut1_stereo_44KHz.wav
4	176	1	2	0	C	1	1	475	1	poli_8sides 11_whiteLine3.jpg	MediumShort_b16_cut3_MS_stereo_44KHz.wav
4	177	4	4	2	I	1	0	625	0	poli_8sides 1_whiteLine3.jpg	MediumShort_e16_cut1_stereo_44KHz.wav
4	178	3	3	2	I	2	0	789	1	poli_8sides 16_whiteLine3.jpg	MediumShort_b10_cut1_MS_stereo_44KHz.wav
4	179	2	2	1	C	1	0	632	0	poli_8sides 3_whiteLine3.jpg	MediumShort_b16_cut3_MS_stereo_44KHz.wav
4	180	1	2	0	C	1	1	458	1	poli_8sides 11_whiteLine3.jpg	MediumShort_b16_cut3_MS_stereo_44KHz.wav
4	181	3	4	2	I	1	0	553	0	poli_8sides 16_whiteLine3.jpg	MediumShort_e16_cut1_stereo_44KHz.wav
4	182	4	3	2	I	1	0	438	1	poli_8sides 1_whiteLine3.jpg	MediumShort_b10_cut1_MS_stereo_44KHz.wav
4	183	1	1	1	C	1	0	690	0	poli_8sides 11_whiteLine3.jpg	MediumShort_e22_cut1_stereo_44KHz.wav
4	184	2	1	0	C	1	1	890	1	poli_8sides 3_whiteLine3.jpg	MediumShort_e22_cut1_stereo_44KHz.wav
4	185	3	4	2	I	1	0	756	0	poli_8sides 16_whiteLine3.jpg	MediumShort_e16_cut1_stereo_44KHz.wav
4	186	1	1	1	C	1	0	804	0	poli_8sides 11_whiteLine3.jpg	MediumShort_e22_cut1_stereo_44KHz.wav
4	187	2	1	0	C	1	1	707	1	poli_8sides 3_whiteLine3.jpg	MediumShort_e22_cut1_stereo_44KHz.wav
4	188	4	3	2	I	2	0	767	0	poli_8sides 1_whiteLine3.jpg	MediumShort_b10_cut1_MS_stereo_44KHz.wav
4	189	2	2	1	C	1	0	780	0	poli_8sides 3_whiteLine3.jpg	MediumShort_b16_cut3_MS_stereo_44KHz.wav
4	190	4	4	2	I	1	0	656	0	poli_8sides 1_whiteLine3.jpg	MediumShort_e16_cut1_stereo_44KHz.wav
4	191	3	3	2	I	2	0	1013	1	poli_8sides 16_whiteLine3.jpg	MediumShort_b10_cut1_MS_stereo_44KHz.wav
4	192	1	2	0	C	1	1	756	1	poli_8sides 11_whiteLine3.jpg	MediumShort_b16_cut3_MS_stereo_44KHz.wav
4	193	2	2	1	C	2	1	640	1	poli_8sides 3_whiteLine3.jpg	MediumShort_b16_cut3_MS_stereo_44KHz.wav
4	194	1	2	0	C	1	1	778	1	poli_8sides 11_whiteLine3.jpg	MediumShort_b16_cut3_MS_stereo_44KHz.wav
4	195	4	3	2	I	1	0	839	1	poli_8sides 1_whiteLine3.jpg	MediumShort_b10_cut1_MS_stereo_44KHz.wav
4	196	3	3	2	I	2	0	739	1	poli_8sides 16_whiteLine3.jpg	MediumShort_b10_cut1_MS_stereo_44KHz.wav
4	197	1	1	1	C	1	0	825	0	poli_8sides 11_whiteLine3.jpg	MediumShort_e22_cut1_stereo_44KHz.wav
4	198	4	4	2	I	1	0	883	0	poli_8sides 1_whiteLine3.jpg	MediumShort_e16_cut1_stereo_44KHz.wav
4	199	2	1	0	C	1	1	1114	1	poli_8sides 3_whiteLine3.jpg	MediumShort_e22_cut1_stereo_44KHz.wav
4	200	3	4	2	I	2	0	902	0	poli_8sides 16_whiteLine3.jpg	MediumShort_e16_cut1_stereo_44KHz.wav
