block	trial	Vstim	Astim	match	C/I	resp	result	RT	fb	V-file	A-file
LR

0	1	2	4	0	C	0	0	0	0	Ⴢ	cut_eeuw_stereo_44KHz.wav
0	2	1	1	1	C	2	1	1098	1	Ⴞ	cut_g_stereo_44KHz.wav
0	3	2	3	1	C	2	1	1229	1	Ⴢ	cut_oo_stereo_44KHz.wav
0	4	1	2	0	C	2	0	748	0	Ⴞ	cut_ee_stereo_44KHz.wav
0	5	1	2	0	C	1	1	725	1	Ⴞ	cut_ee_stereo_44KHz.wav
0	6	2	3	1	C	1	0	1034	0	Ⴢ	cut_oo_stereo_44KHz.wav
0	7	1	1	1	C	2	1	1116	1	Ⴞ	cut_g_stereo_44KHz.wav
0	8	2	4	0	C	2	0	1102	0	Ⴢ	cut_eeuw_stereo_44KHz.wav
0	9	1	2	0	C	1	1	901	1	Ⴞ	cut_ee_stereo_44KHz.wav
0	10	2	3	1	C	2	1	943	1	Ⴢ	cut_oo_stereo_44KHz.wav
0	11	1	1	1	C	1	0	1286	0	Ⴞ	cut_g_stereo_44KHz.wav
0	12	2	4	0	C	2	0	686	0	Ⴢ	cut_eeuw_stereo_44KHz.wav
0	13	1	2	0	C	1	1	757	1	Ⴞ	cut_ee_stereo_44KHz.wav
0	14	1	1	1	C	1	0	1021	0	Ⴞ	cut_g_stereo_44KHz.wav
0	15	2	4	0	C	2	0	1032	0	Ⴢ	cut_eeuw_stereo_44KHz.wav
0	16	2	3	1	C	2	1	916	1	Ⴢ	cut_oo_stereo_44KHz.wav
0	17	1	2	0	C	1	1	915	1	Ⴞ	cut_ee_stereo_44KHz.wav
0	18	2	4	0	C	2	0	631	0	Ⴢ	cut_eeuw_stereo_44KHz.wav
0	19	1	1	1	C	2	1	1055	1	Ⴞ	cut_g_stereo_44KHz.wav
0	20	2	3	1	C	2	1	990	1	Ⴢ	cut_oo_stereo_44KHz.wav
0	21	1	1	1	C	1	0	1080	0	Ⴞ	cut_g_stereo_44KHz.wav
0	22	2	3	1	C	2	1	860	1	Ⴢ	cut_oo_stereo_44KHz.wav
0	23	2	4	0	C	2	0	950	0	Ⴢ	cut_eeuw_stereo_44KHz.wav
0	24	1	2	0	C	1	1	840	1	Ⴞ	cut_ee_stereo_44KHz.wav
0	25	2	4	0	C	1	1	1069	1	Ⴢ	cut_eeuw_stereo_44KHz.wav
0	26	1	1	1	C	2	1	898	1	Ⴞ	cut_g_stereo_44KHz.wav
0	27	1	2	0	C	1	1	775	1	Ⴞ	cut_ee_stereo_44KHz.wav
0	28	2	3	1	C	2	1	896	1	Ⴢ	cut_oo_stereo_44KHz.wav
0	29	2	4	0	C	2	0	876	0	Ⴢ	cut_eeuw_stereo_44KHz.wav
0	30	2	3	1	C	2	1	825	1	Ⴢ	cut_oo_stereo_44KHz.wav
avg_resp = 934
1	1	2	2	1	C	2	1	1703	1	Ⴕ	cut_j_stereo_44KHz.wav
1	2	4	4	2	I	2	0	1231	0	Ⴔ	cut_s_stereo_44KHz.wav
1	3	1	2	0	C	2	0	1042	0	Ⴖ	cut_j_stereo_44KHz.wav
1	4	3	3	2	I	1	0	1613	1	Ⴒ	cut_f_stereo_44KHz.wav
1	5	2	1	0	C	2	0	1046	0	Ⴕ	cut_n_stereo_44KHz.wav
1	6	1	1	1	C	1	0	1143	0	Ⴖ	cut_n_stereo_44KHz.wav
1	7	4	3	2	I	2	0	1031	0	Ⴔ	cut_f_stereo_44KHz.wav
1	8	3	4	2	I	1	0	944	0	Ⴒ	cut_s_stereo_44KHz.wav
1	9	2	1	0	C	1	1	1187	1	Ⴕ	cut_n_stereo_44KHz.wav
1	10	3	3	2	I	1	0	951	0	Ⴒ	cut_f_stereo_44KHz.wav
1	11	4	3	2	I	1	0	1011	0	Ⴔ	cut_f_stereo_44KHz.wav
1	12	1	2	0	C	2	0	1060	0	Ⴖ	cut_j_stereo_44KHz.wav
1	13	2	2	1	C	2	1	1061	1	Ⴕ	cut_j_stereo_44KHz.wav
1	14	3	4	2	I	2	0	956	1	Ⴒ	cut_s_stereo_44KHz.wav
1	15	1	1	1	C	1	0	933	0	Ⴖ	cut_n_stereo_44KHz.wav
1	16	4	4	2	I	2	0	973	1	Ⴔ	cut_s_stereo_44KHz.wav
1	17	3	4	2	I	2	0	837	0	Ⴒ	cut_s_stereo_44KHz.wav
1	18	4	3	2	I	1	0	1019	0	Ⴔ	cut_f_stereo_44KHz.wav
1	19	1	2	0	C	1	1	1921	1	Ⴖ	cut_j_stereo_44KHz.wav
1	20	2	2	1	C	1	0	1123	0	Ⴕ	cut_j_stereo_44KHz.wav
1	21	1	1	1	C	1	0	1179	0	Ⴖ	cut_n_stereo_44KHz.wav
1	22	3	3	2	I	1	0	1552	0	Ⴒ	cut_f_stereo_44KHz.wav
1	23	4	4	2	I	1	0	1241	0	Ⴔ	cut_s_stereo_44KHz.wav
1	24	2	1	0	C	1	1	1255	1	Ⴕ	cut_n_stereo_44KHz.wav
1	25	1	2	0	C	1	1	1005	1	Ⴖ	cut_j_stereo_44KHz.wav
1	26	3	3	2	I	2	0	1169	0	Ⴒ	cut_f_stereo_44KHz.wav
1	27	4	3	2	I	1	0	1072	1	Ⴔ	cut_f_stereo_44KHz.wav
1	28	2	2	1	C	2	1	1220	1	Ⴕ	cut_j_stereo_44KHz.wav
1	29	4	4	2	I	1	0	1110	0	Ⴔ	cut_s_stereo_44KHz.wav
1	30	3	4	2	I	2	0	1182	1	Ⴒ	cut_s_stereo_44KHz.wav
1	31	1	1	1	C	2	1	1311	1	Ⴖ	cut_n_stereo_44KHz.wav
1	32	2	1	0	C	1	1	1143	1	Ⴕ	cut_n_stereo_44KHz.wav
1	33	4	3	2	I	2	0	927	1	Ⴔ	cut_f_stereo_44KHz.wav
1	34	3	3	2	I	2	0	1046	0	Ⴒ	cut_f_stereo_44KHz.wav
1	35	1	2	0	C	1	1	1024	1	Ⴖ	cut_j_stereo_44KHz.wav
1	36	2	1	0	C	1	1	1145	1	Ⴕ	cut_n_stereo_44KHz.wav
1	37	4	4	2	I	2	0	1556	1	Ⴔ	cut_s_stereo_44KHz.wav
1	38	1	1	1	C	2	1	1110	1	Ⴖ	cut_n_stereo_44KHz.wav
1	39	2	2	1	C	2	1	1082	1	Ⴕ	cut_j_stereo_44KHz.wav
1	40	3	4	2	I	1	0	1392	1	Ⴒ	cut_s_stereo_44KHz.wav
1	41	2	2	1	C	2	1	1014	1	Ⴕ	cut_j_stereo_44KHz.wav
1	42	3	3	2	I	1	0	1057	0	Ⴒ	cut_f_stereo_44KHz.wav
1	43	4	3	2	I	2	0	1217	0	Ⴔ	cut_f_stereo_44KHz.wav
1	44	1	1	1	C	2	1	1092	1	Ⴖ	cut_n_stereo_44KHz.wav
1	45	4	4	2	I	1	0	1072	0	Ⴔ	cut_s_stereo_44KHz.wav
1	46	3	4	2	I	1	0	1330	1	Ⴒ	cut_s_stereo_44KHz.wav
1	47	2	1	0	C	2	0	782	0	Ⴕ	cut_n_stereo_44KHz.wav
1	48	1	2	0	C	1	1	1129	1	Ⴖ	cut_j_stereo_44KHz.wav
1	49	4	3	2	I	1	0	1060	1	Ⴔ	cut_f_stereo_44KHz.wav
1	50	3	4	2	I	1	0	1015	0	Ⴒ	cut_s_stereo_44KHz.wav
1	51	2	1	0	C	1	1	1001	1	Ⴕ	cut_n_stereo_44KHz.wav
1	52	1	1	1	C	2	1	1025	1	Ⴖ	cut_n_stereo_44KHz.wav
1	53	2	2	1	C	2	1	858	1	Ⴕ	cut_j_stereo_44KHz.wav
1	54	1	2	0	C	2	0	850	0	Ⴖ	cut_j_stereo_44KHz.wav
1	55	4	4	2	I	1	0	1398	1	Ⴔ	cut_s_stereo_44KHz.wav
1	56	3	3	2	I	1	0	1345	0	Ⴒ	cut_f_stereo_44KHz.wav
1	57	4	4	2	I	1	0	823	1	Ⴔ	cut_s_stereo_44KHz.wav
1	58	2	1	0	C	2	0	1249	0	Ⴕ	cut_n_stereo_44KHz.wav
1	59	3	4	2	I	1	0	937	0	Ⴒ	cut_s_stereo_44KHz.wav
1	60	1	2	0	C	1	1	1468	1	Ⴖ	cut_j_stereo_44KHz.wav
1	61	2	2	1	C	2	1	813	1	Ⴕ	cut_j_stereo_44KHz.wav
1	62	3	3	2	I	1	0	1107	1	Ⴒ	cut_f_stereo_44KHz.wav
1	63	4	3	2	I	2	0	888	1	Ⴔ	cut_f_stereo_44KHz.wav
1	64	1	1	1	C	2	1	961	1	Ⴖ	cut_n_stereo_44KHz.wav
1	65	4	4	2	I	1	0	1188	0	Ⴔ	cut_s_stereo_44KHz.wav
1	66	3	4	2	I	1	0	759	0	Ⴒ	cut_s_stereo_44KHz.wav
1	67	1	2	0	C	1	1	1148	1	Ⴖ	cut_j_stereo_44KHz.wav
1	68	2	2	1	C	2	1	822	1	Ⴕ	cut_j_stereo_44KHz.wav
1	69	1	1	1	C	2	1	956	1	Ⴖ	cut_n_stereo_44KHz.wav
1	70	3	3	2	I	1	0	857	1	Ⴒ	cut_f_stereo_44KHz.wav
1	71	4	3	2	I	2	0	833	0	Ⴔ	cut_f_stereo_44KHz.wav
1	72	2	1	0	C	1	1	1171	1	Ⴕ	cut_n_stereo_44KHz.wav
1	73	1	2	0	C	1	1	1126	1	Ⴖ	cut_j_stereo_44KHz.wav
1	74	3	3	2	I	1	0	841	1	Ⴒ	cut_f_stereo_44KHz.wav
1	75	2	1	0	C	1	1	1064	1	Ⴕ	cut_n_stereo_44KHz.wav
1	76	4	4	2	I	1	0	904	0	Ⴔ	cut_s_stereo_44KHz.wav
1	77	2	2	1	C	2	1	1369	1	Ⴕ	cut_j_stereo_44KHz.wav
1	78	1	1	1	C	2	1	915	1	Ⴖ	cut_n_stereo_44KHz.wav
1	79	4	3	2	I	1	0	741	0	Ⴔ	cut_f_stereo_44KHz.wav
1	80	3	4	2	I	1	0	905	1	Ⴒ	cut_s_stereo_44KHz.wav
1	81	4	4	2	I	1	0	1026	0	Ⴔ	cut_s_stereo_44KHz.wav
1	82	2	2	1	C	2	1	958	1	Ⴕ	cut_j_stereo_44KHz.wav
1	83	3	4	2	I	1	0	871	1	Ⴒ	cut_s_stereo_44KHz.wav
1	84	1	2	0	C	2	0	750	0	Ⴖ	cut_j_stereo_44KHz.wav
1	85	4	3	2	I	1	0	874	0	Ⴔ	cut_f_stereo_44KHz.wav
1	86	1	1	1	C	2	1	1197	1	Ⴖ	cut_n_stereo_44KHz.wav
1	87	3	3	2	I	1	0	1002	0	Ⴒ	cut_f_stereo_44KHz.wav
1	88	2	1	0	C	1	1	1129	1	Ⴕ	cut_n_stereo_44KHz.wav
1	89	4	4	2	I	1	0	946	0	Ⴔ	cut_s_stereo_44KHz.wav
1	90	3	4	2	I	2	0	1290	1	Ⴒ	cut_s_stereo_44KHz.wav
1	91	2	2	1	C	2	1	1079	1	Ⴕ	cut_j_stereo_44KHz.wav
1	92	1	1	1	C	2	1	1109	1	Ⴖ	cut_n_stereo_44KHz.wav
1	93	2	1	0	C	2	0	980	0	Ⴕ	cut_n_stereo_44KHz.wav
1	94	1	2	0	C	2	0	1067	0	Ⴖ	cut_j_stereo_44KHz.wav
1	95	3	3	2	I	1	0	851	1	Ⴒ	cut_f_stereo_44KHz.wav
1	96	4	3	2	I	2	0	1147	0	Ⴔ	cut_f_stereo_44KHz.wav
1	97	3	4	2	I	2	0	1074	1	Ⴒ	cut_s_stereo_44KHz.wav
1	98	2	1	0	C	1	1	1047	1	Ⴕ	cut_n_stereo_44KHz.wav
1	99	1	1	1	C	2	1	1105	1	Ⴖ	cut_n_stereo_44KHz.wav
1	100	4	4	2	I	1	0	1003	0	Ⴔ	cut_s_stereo_44KHz.wav
1	101	1	2	0	C	1	1	1392	1	Ⴖ	cut_j_stereo_44KHz.wav
1	102	3	3	2	I	1	0	941	1	Ⴒ	cut_f_stereo_44KHz.wav
1	103	2	2	1	C	2	1	832	1	Ⴕ	cut_j_stereo_44KHz.wav
1	104	4	3	2	I	1	0	867	1	Ⴔ	cut_f_stereo_44KHz.wav
1	105	1	1	1	C	2	1	1066	1	Ⴖ	cut_n_stereo_44KHz.wav
1	106	3	4	2	I	1	0	1033	1	Ⴒ	cut_s_stereo_44KHz.wav
1	107	4	3	2	I	1	0	1202	1	Ⴔ	cut_f_stereo_44KHz.wav
1	108	2	2	1	C	2	1	819	1	Ⴕ	cut_j_stereo_44KHz.wav
1	109	3	3	2	I	1	0	765	0	Ⴒ	cut_f_stereo_44KHz.wav
1	110	1	2	0	C	1	1	966	1	Ⴖ	cut_j_stereo_44KHz.wav
1	111	4	4	2	I	1	0	840	1	Ⴔ	cut_s_stereo_44KHz.wav
1	112	2	1	0	C	1	1	914	1	Ⴕ	cut_n_stereo_44KHz.wav
1	113	4	3	2	I	1	0	947	1	Ⴔ	cut_f_stereo_44KHz.wav
1	114	1	2	0	C	2	0	717	0	Ⴖ	cut_j_stereo_44KHz.wav
1	115	3	3	2	I	1	0	858	0	Ⴒ	cut_f_stereo_44KHz.wav
1	116	2	1	0	C	2	0	1317	0	Ⴕ	cut_n_stereo_44KHz.wav
1	117	1	1	1	C	2	1	1016	1	Ⴖ	cut_n_stereo_44KHz.wav
1	118	4	4	2	I	1	0	824	1	Ⴔ	cut_s_stereo_44KHz.wav
1	119	2	2	1	C	2	1	708	1	Ⴕ	cut_j_stereo_44KHz.wav
1	120	3	4	2	I	2	0	1138	0	Ⴒ	cut_s_stereo_44KHz.wav
1	121	1	1	1	C	2	1	953	1	Ⴖ	cut_n_stereo_44KHz.wav
1	122	3	3	2	I	1	0	1005	1	Ⴒ	cut_f_stereo_44KHz.wav
1	123	4	4	2	I	1	0	908	0	Ⴔ	cut_s_stereo_44KHz.wav
1	124	2	2	1	C	2	1	830	1	Ⴕ	cut_j_stereo_44KHz.wav
1	125	3	4	2	I	2	0	1058	1	Ⴒ	cut_s_stereo_44KHz.wav
1	126	2	1	0	C	2	0	707	0	Ⴕ	cut_n_stereo_44KHz.wav
1	127	4	3	2	I	1	0	818	1	Ⴔ	cut_f_stereo_44KHz.wav
1	128	1	2	0	C	1	1	970	1	Ⴖ	cut_j_stereo_44KHz.wav
1	129	4	3	2	I	1	0	891	0	Ⴔ	cut_f_stereo_44KHz.wav
1	130	1	1	1	C	2	1	1133	1	Ⴖ	cut_n_stereo_44KHz.wav
1	131	2	2	1	C	2	1	784	1	Ⴕ	cut_j_stereo_44KHz.wav
1	132	3	4	2	I	1	0	803	1	Ⴒ	cut_s_stereo_44KHz.wav
1	133	1	2	0	C	2	0	918	0	Ⴖ	cut_j_stereo_44KHz.wav
1	134	3	3	2	I	1	0	730	0	Ⴒ	cut_f_stereo_44KHz.wav
1	135	4	4	2	I	1	0	728	1	Ⴔ	cut_s_stereo_44KHz.wav
1	136	2	1	0	C	1	1	906	1	Ⴕ	cut_n_stereo_44KHz.wav
1	137	1	2	0	C	1	1	1014	1	Ⴖ	cut_j_stereo_44KHz.wav
1	138	4	4	2	I	2	0	1174	1	Ⴔ	cut_s_stereo_44KHz.wav
1	139	3	3	2	I	1	0	910	0	Ⴒ	cut_f_stereo_44KHz.wav
1	140	2	2	1	C	2	1	849	1	Ⴕ	cut_j_stereo_44KHz.wav
1	141	3	4	2	I	2	0	915	1	Ⴒ	cut_s_stereo_44KHz.wav
1	142	2	1	0	C	1	1	1138	1	Ⴕ	cut_n_stereo_44KHz.wav
1	143	4	3	2	I	1	0	898	1	Ⴔ	cut_f_stereo_44KHz.wav
1	144	1	1	1	C	2	1	865	1	Ⴖ	cut_n_stereo_44KHz.wav
1	145	3	3	2	I	1	0	725	1	Ⴒ	cut_f_stereo_44KHz.wav
1	146	1	2	0	C	1	1	874	1	Ⴖ	cut_j_stereo_44KHz.wav
1	147	2	2	1	C	2	1	677	1	Ⴕ	cut_j_stereo_44KHz.wav
1	148	4	3	2	I	1	0	793	1	Ⴔ	cut_f_stereo_44KHz.wav
1	149	3	4	2	I	2	0	924	1	Ⴒ	cut_s_stereo_44KHz.wav
1	150	1	1	1	C	2	1	1035	1	Ⴖ	cut_n_stereo_44KHz.wav
1	151	2	1	0	C	1	1	944	1	Ⴕ	cut_n_stereo_44KHz.wav
1	152	4	4	2	I	2	0	1449	0	Ⴔ	cut_s_stereo_44KHz.wav
1	153	1	2	0	C	1	1	1302	1	Ⴖ	cut_j_stereo_44KHz.wav
1	154	3	3	2	I	1	0	798	0	Ⴒ	cut_f_stereo_44KHz.wav
1	155	4	3	2	I	1	0	759	1	Ⴔ	cut_f_stereo_44KHz.wav
1	156	2	2	1	C	2	1	904	1	Ⴕ	cut_j_stereo_44KHz.wav
1	157	1	1	1	C	2	1	858	1	Ⴖ	cut_n_stereo_44KHz.wav
1	158	4	4	2	I	1	0	1039	1	Ⴔ	cut_s_stereo_44KHz.wav
1	159	2	1	0	C	2	0	774	0	Ⴕ	cut_n_stereo_44KHz.wav
1	160	3	4	2	I	1	0	1034	1	Ⴒ	cut_s_stereo_44KHz.wav
1	161	1	2	0	C	1	1	905	1	Ⴖ	cut_j_stereo_44KHz.wav
1	162	2	1	0	C	2	0	848	0	Ⴕ	cut_n_stereo_44KHz.wav
1	163	4	3	2	I	1	0	793	0	Ⴔ	cut_f_stereo_44KHz.wav
1	164	3	3	2	I	1	0	709	0	Ⴒ	cut_f_stereo_44KHz.wav
1	165	2	2	1	C	2	1	790	1	Ⴕ	cut_j_stereo_44KHz.wav
1	166	3	4	2	I	1	0	959	1	Ⴒ	cut_s_stereo_44KHz.wav
1	167	1	1	1	C	2	1	991	1	Ⴖ	cut_n_stereo_44KHz.wav
1	168	4	4	2	I	1	0	1057	1	Ⴔ	cut_s_stereo_44KHz.wav
1	169	3	4	2	I	1	0	731	0	Ⴒ	cut_s_stereo_44KHz.wav
1	170	1	2	0	C	1	1	882	1	Ⴖ	cut_j_stereo_44KHz.wav
1	171	2	2	1	C	2	1	791	1	Ⴕ	cut_j_stereo_44KHz.wav
1	172	4	3	2	I	1	0	935	1	Ⴔ	cut_f_stereo_44KHz.wav
1	173	2	1	0	C	1	1	897	1	Ⴕ	cut_n_stereo_44KHz.wav
1	174	1	1	1	C	2	1	813	1	Ⴖ	cut_n_stereo_44KHz.wav
1	175	3	3	2	I	1	0	926	1	Ⴒ	cut_f_stereo_44KHz.wav
1	176	4	4	2	I	2	0	1171	0	Ⴔ	cut_s_stereo_44KHz.wav
1	177	1	2	0	C	1	1	1167	1	Ⴖ	cut_j_stereo_44KHz.wav
1	178	2	1	0	C	1	1	839	1	Ⴕ	cut_n_stereo_44KHz.wav
1	179	4	3	2	I	1	0	774	1	Ⴔ	cut_f_stereo_44KHz.wav
1	180	3	4	2	I	1	0	1084	0	Ⴒ	cut_s_stereo_44KHz.wav
1	181	4	4	2	I	1	0	946	0	Ⴔ	cut_s_stereo_44KHz.wav
1	182	3	3	2	I	1	0	718	0	Ⴒ	cut_f_stereo_44KHz.wav
1	183	2	2	1	C	2	1	1043	1	Ⴕ	cut_j_stereo_44KHz.wav
1	184	1	1	1	C	2	1	968	1	Ⴖ	cut_n_stereo_44KHz.wav
1	185	3	4	2	I	1	0	906	0	Ⴒ	cut_s_stereo_44KHz.wav
1	186	2	2	1	C	2	1	696	1	Ⴕ	cut_j_stereo_44KHz.wav
1	187	1	2	0	C	1	1	935	1	Ⴖ	cut_j_stereo_44KHz.wav
1	188	4	4	2	I	1	0	752	1	Ⴔ	cut_s_stereo_44KHz.wav
1	189	3	3	2	I	1	0	840	0	Ⴒ	cut_f_stereo_44KHz.wav
1	190	4	3	2	I	1	0	673	0	Ⴔ	cut_f_stereo_44KHz.wav
1	191	1	1	1	C	2	1	826	1	Ⴖ	cut_n_stereo_44KHz.wav
1	192	2	1	0	C	1	1	851	1	Ⴕ	cut_n_stereo_44KHz.wav
1	193	3	4	2	I	1	0	875	0	Ⴒ	cut_s_stereo_44KHz.wav
1	194	1	1	1	C	2	1	892	1	Ⴖ	cut_n_stereo_44KHz.wav
1	195	2	1	0	C	1	1	950	1	Ⴕ	cut_n_stereo_44KHz.wav
1	196	4	3	2	I	1	0	797	0	Ⴔ	cut_f_stereo_44KHz.wav
1	197	2	2	1	C	2	1	759	1	Ⴕ	cut_j_stereo_44KHz.wav
1	198	3	3	2	I	1	0	789	1	Ⴒ	cut_f_stereo_44KHz.wav
1	199	1	2	0	C	1	1	843	1	Ⴖ	cut_j_stereo_44KHz.wav
1	200	4	4	2	I	1	0	794	1	Ⴔ	cut_s_stereo_44KHz.wav
2	1	1	2	0	C	0	0	0	0	Ⴂ	cut_ui_stereo_44KHz.wav
2	2	2	2	1	C	1	0	673	0	Ⴜ	cut_ui_stereo_44KHz.wav
2	3	3	3	2	I	2	0	1054	1	Ⴁ	cut_r_stereo_44KHz.wav
2	4	4	4	2	I	1	0	845	0	Ⴟ	cut_oei_stereo_44KHz.wav
2	5	3	4	2	I	1	0	689	0	Ⴁ	cut_oei_stereo_44KHz.wav
2	6	4	3	2	I	2	0	1187	1	Ⴟ	cut_r_stereo_44KHz.wav
2	7	1	1	1	C	1	0	892	0	Ⴂ	cut_ei_stereo_44KHz.wav
2	8	2	1	0	C	1	1	689	1	Ⴜ	cut_ei_stereo_44KHz.wav
2	9	3	4	2	I	2	0	894	1	Ⴁ	cut_oei_stereo_44KHz.wav
2	10	2	2	1	C	1	0	1000	0	Ⴜ	cut_ui_stereo_44KHz.wav
2	11	4	4	2	I	1	0	466	1	Ⴟ	cut_oei_stereo_44KHz.wav
2	12	1	2	0	C	1	1	673	1	Ⴂ	cut_ui_stereo_44KHz.wav
2	13	4	3	2	I	1	0	788	0	Ⴟ	cut_r_stereo_44KHz.wav
2	14	2	1	0	C	2	0	574	0	Ⴜ	cut_ei_stereo_44KHz.wav
2	15	3	3	2	I	2	0	642	0	Ⴁ	cut_r_stereo_44KHz.wav
2	16	1	1	1	C	1	0	663	0	Ⴂ	cut_ei_stereo_44KHz.wav
2	17	3	3	2	I	1	0	622	0	Ⴁ	cut_r_stereo_44KHz.wav
2	18	1	2	0	C	2	0	822	0	Ⴂ	cut_ui_stereo_44KHz.wav
2	19	2	1	0	C	1	1	683	1	Ⴜ	cut_ei_stereo_44KHz.wav
2	20	4	3	2	I	1	0	844	0	Ⴟ	cut_r_stereo_44KHz.wav
2	21	3	4	2	I	2	0	757	1	Ⴁ	cut_oei_stereo_44KHz.wav
2	22	1	1	1	C	1	0	810	0	Ⴂ	cut_ei_stereo_44KHz.wav
2	23	2	2	1	C	1	0	1010	0	Ⴜ	cut_ui_stereo_44KHz.wav
2	24	4	4	2	I	2	0	734	1	Ⴟ	cut_oei_stereo_44KHz.wav
2	25	1	2	0	C	1	1	950	1	Ⴂ	cut_ui_stereo_44KHz.wav
2	26	2	2	1	C	2	1	922	1	Ⴜ	cut_ui_stereo_44KHz.wav
2	27	4	4	2	I	2	0	859	1	Ⴟ	cut_oei_stereo_44KHz.wav
2	28	3	4	2	I	1	0	525	0	Ⴁ	cut_oei_stereo_44KHz.wav
2	29	2	1	0	C	1	1	923	1	Ⴜ	cut_ei_stereo_44KHz.wav
2	30	1	1	1	C	2	1	833	1	Ⴂ	cut_ei_stereo_44KHz.wav
2	31	4	3	2	I	2	0	844	0	Ⴟ	cut_r_stereo_44KHz.wav
2	32	3	3	2	I	2	0	748	1	Ⴁ	cut_r_stereo_44KHz.wav
2	33	4	3	2	I	1	0	994	0	Ⴟ	cut_r_stereo_44KHz.wav
2	34	2	2	1	C	2	1	1193	1	Ⴜ	cut_ui_stereo_44KHz.wav
2	35	3	4	2	I	2	0	1016	0	Ⴁ	cut_oei_stereo_44KHz.wav
2	36	1	2	0	C	2	0	861	0	Ⴂ	cut_ui_stereo_44KHz.wav
2	37	2	1	0	C	1	1	605	1	Ⴜ	cut_ei_stereo_44KHz.wav
2	38	3	3	2	I	2	0	666	1	Ⴁ	cut_r_stereo_44KHz.wav
2	39	1	1	1	C	1	0	838	0	Ⴂ	cut_ei_stereo_44KHz.wav
2	40	4	4	2	I	2	0	945	0	Ⴟ	cut_oei_stereo_44KHz.wav
2	41	2	1	0	C	1	1	631	1	Ⴜ	cut_ei_stereo_44KHz.wav
2	42	1	2	0	C	2	0	882	0	Ⴂ	cut_ui_stereo_44KHz.wav
2	43	4	3	2	I	1	0	688	1	Ⴟ	cut_r_stereo_44KHz.wav
2	44	3	4	2	I	1	0	731	1	Ⴁ	cut_oei_stereo_44KHz.wav
2	45	2	2	1	C	2	1	949	1	Ⴜ	cut_ui_stereo_44KHz.wav
2	46	1	1	1	C	1	0	1126	0	Ⴂ	cut_ei_stereo_44KHz.wav
2	47	4	4	2	I	2	0	967	1	Ⴟ	cut_oei_stereo_44KHz.wav
2	48	3	3	2	I	2	0	857	0	Ⴁ	cut_r_stereo_44KHz.wav
2	49	4	4	2	I	2	0	852	1	Ⴟ	cut_oei_stereo_44KHz.wav
2	50	1	2	0	C	2	0	886	0	Ⴂ	cut_ui_stereo_44KHz.wav
2	51	2	1	0	C	1	1	707	1	Ⴜ	cut_ei_stereo_44KHz.wav
2	52	3	4	2	I	1	0	1040	1	Ⴁ	cut_oei_stereo_44KHz.wav
2	53	4	3	2	I	1	0	664	0	Ⴟ	cut_r_stereo_44KHz.wav
2	54	2	2	1	C	2	1	739	1	Ⴜ	cut_ui_stereo_44KHz.wav
2	55	3	3	2	I	2	0	826	1	Ⴁ	cut_r_stereo_44KHz.wav
2	56	1	1	1	C	2	1	995	1	Ⴂ	cut_ei_stereo_44KHz.wav
2	57	3	4	2	I	1	0	1057	0	Ⴁ	cut_oei_stereo_44KHz.wav
2	58	4	3	2	I	1	0	1041	1	Ⴟ	cut_r_stereo_44KHz.wav
2	59	2	1	0	C	1	1	1312	1	Ⴜ	cut_ei_stereo_44KHz.wav
2	60	1	2	0	C	2	0	975	0	Ⴂ	cut_ui_stereo_44KHz.wav
2	61	3	3	2	I	2	0	836	0	Ⴁ	cut_r_stereo_44KHz.wav
2	62	1	1	1	C	1	0	1000	0	Ⴂ	cut_ei_stereo_44KHz.wav
2	63	2	2	1	C	2	1	1501	1	Ⴜ	cut_ui_stereo_44KHz.wav
2	64	4	4	2	I	2	0	872	0	Ⴟ	cut_oei_stereo_44KHz.wav
2	65	1	2	0	C	2	0	1091	0	Ⴂ	cut_ui_stereo_44KHz.wav
2	66	2	1	0	C	1	1	651	1	Ⴜ	cut_ei_stereo_44KHz.wav
2	67	3	4	2	I	1	0	833	0	Ⴁ	cut_oei_stereo_44KHz.wav
2	68	4	4	2	I	2	0	715	1	Ⴟ	cut_oei_stereo_44KHz.wav
2	69	1	1	1	C	2	1	1238	1	Ⴂ	cut_ei_stereo_44KHz.wav
2	70	2	2	1	C	2	1	935	1	Ⴜ	cut_ui_stereo_44KHz.wav
2	71	3	3	2	I	2	0	893	0	Ⴁ	cut_r_stereo_44KHz.wav
2	72	4	3	2	I	1	0	860	1	Ⴟ	cut_r_stereo_44KHz.wav
2	73	3	4	2	I	2	0	885	0	Ⴁ	cut_oei_stereo_44KHz.wav
2	74	4	4	2	I	2	0	840	1	Ⴟ	cut_oei_stereo_44KHz.wav
2	75	1	2	0	C	2	0	984	0	Ⴂ	cut_ui_stereo_44KHz.wav
2	76	2	1	0	C	1	1	710	1	Ⴜ	cut_ei_stereo_44KHz.wav
2	77	4	3	2	I	1	0	699	0	Ⴟ	cut_r_stereo_44KHz.wav
2	78	3	3	2	I	1	0	939	0	Ⴁ	cut_r_stereo_44KHz.wav
2	79	1	1	1	C	1	0	688	0	Ⴂ	cut_ei_stereo_44KHz.wav
2	80	2	2	1	C	2	1	1106	1	Ⴜ	cut_ui_stereo_44KHz.wav
2	81	4	4	2	I	2	0	1120	1	Ⴟ	cut_oei_stereo_44KHz.wav
2	82	3	3	2	I	1	0	844	1	Ⴁ	cut_r_stereo_44KHz.wav
2	83	1	2	0	C	1	1	854	1	Ⴂ	cut_ui_stereo_44KHz.wav
2	84	2	2	1	C	1	0	787	0	Ⴜ	cut_ui_stereo_44KHz.wav
2	85	4	3	2	I	1	0	821	1	Ⴟ	cut_r_stereo_44KHz.wav
2	86	2	1	0	C	1	1	619	1	Ⴜ	cut_ei_stereo_44KHz.wav
2	87	1	1	1	C	2	1	722	1	Ⴂ	cut_ei_stereo_44KHz.wav
2	88	3	4	2	I	1	0	594	0	Ⴁ	cut_oei_stereo_44KHz.wav
2	89	2	1	0	C	1	1	576	1	Ⴜ	cut_ei_stereo_44KHz.wav
2	90	4	4	2	I	2	0	621	0	Ⴟ	cut_oei_stereo_44KHz.wav
2	91	3	3	2	I	2	0	760	1	Ⴁ	cut_r_stereo_44KHz.wav
2	92	1	1	1	C	1	0	693	0	Ⴂ	cut_ei_stereo_44KHz.wav
2	93	4	3	2	I	1	0	762	1	Ⴟ	cut_r_stereo_44KHz.wav
2	94	1	2	0	C	2	0	885	0	Ⴂ	cut_ui_stereo_44KHz.wav
2	95	3	4	2	I	1	0	760	1	Ⴁ	cut_oei_stereo_44KHz.wav
2	96	2	2	1	C	2	1	939	1	Ⴜ	cut_ui_stereo_44KHz.wav
2	97	1	2	0	C	1	1	872	1	Ⴂ	cut_ui_stereo_44KHz.wav
2	98	2	2	1	C	2	1	938	1	Ⴜ	cut_ui_stereo_44KHz.wav
2	99	3	4	2	I	1	0	596	1	Ⴁ	cut_oei_stereo_44KHz.wav
2	100	4	4	2	I	2	0	1093	0	Ⴟ	cut_oei_stereo_44KHz.wav
2	101	1	1	1	C	1	0	739	0	Ⴂ	cut_ei_stereo_44KHz.wav
2	102	3	3	2	I	2	0	910	1	Ⴁ	cut_r_stereo_44KHz.wav
2	103	4	3	2	I	1	0	719	1	Ⴟ	cut_r_stereo_44KHz.wav
2	104	2	1	0	C	1	1	701	1	Ⴜ	cut_ei_stereo_44KHz.wav
2	105	1	1	1	C	2	1	869	1	Ⴂ	cut_ei_stereo_44KHz.wav
2	106	2	1	0	C	1	1	610	1	Ⴜ	cut_ei_stereo_44KHz.wav
2	107	4	4	2	I	2	0	726	0	Ⴟ	cut_oei_stereo_44KHz.wav
2	108	3	4	2	I	1	0	857	1	Ⴁ	cut_oei_stereo_44KHz.wav
2	109	2	2	1	C	2	1	992	1	Ⴜ	cut_ui_stereo_44KHz.wav
2	110	1	2	0	C	2	0	893	0	Ⴂ	cut_ui_stereo_44KHz.wav
2	111	3	3	2	I	2	0	760	0	Ⴁ	cut_r_stereo_44KHz.wav
2	112	4	3	2	I	1	0	592	1	Ⴟ	cut_r_stereo_44KHz.wav
2	113	3	3	2	I	2	0	738	0	Ⴁ	cut_r_stereo_44KHz.wav
2	114	4	3	2	I	1	0	626	0	Ⴟ	cut_r_stereo_44KHz.wav
2	115	2	1	0	C	1	1	1245	1	Ⴜ	cut_ei_stereo_44KHz.wav
2	116	1	1	1	C	2	1	804	1	Ⴂ	cut_ei_stereo_44KHz.wav
2	117	4	4	2	I	2	0	786	0	Ⴟ	cut_oei_stereo_44KHz.wav
2	118	1	2	0	C	2	0	711	0	Ⴂ	cut_ui_stereo_44KHz.wav
2	119	3	4	2	I	1	0	558	1	Ⴁ	cut_oei_stereo_44KHz.wav
2	120	2	2	1	C	2	1	911	1	Ⴜ	cut_ui_stereo_44KHz.wav
2	121	1	2	0	C	2	0	945	0	Ⴂ	cut_ui_stereo_44KHz.wav
2	122	3	3	2	I	2	0	747	1	Ⴁ	cut_r_stereo_44KHz.wav
2	123	2	2	1	C	2	1	678	1	Ⴜ	cut_ui_stereo_44KHz.wav
2	124	4	3	2	I	1	0	680	0	Ⴟ	cut_r_stereo_44KHz.wav
2	125	2	1	0	C	1	1	744	1	Ⴜ	cut_ei_stereo_44KHz.wav
2	126	1	1	1	C	2	1	726	1	Ⴂ	cut_ei_stereo_44KHz.wav
2	127	4	4	2	I	2	0	784	1	Ⴟ	cut_oei_stereo_44KHz.wav
2	128	3	4	2	I	1	0	826	1	Ⴁ	cut_oei_stereo_44KHz.wav
2	129	4	4	2	I	2	0	639	0	Ⴟ	cut_oei_stereo_44KHz.wav
2	130	2	1	0	C	1	1	741	1	Ⴜ	cut_ei_stereo_44KHz.wav
2	131	3	3	2	I	2	0	817	0	Ⴁ	cut_r_stereo_44KHz.wav
2	132	1	2	0	C	1	1	1016	1	Ⴂ	cut_ui_stereo_44KHz.wav
2	133	4	3	2	I	1	0	876	0	Ⴟ	cut_r_stereo_44KHz.wav
2	134	1	1	1	C	2	1	1229	1	Ⴂ	cut_ei_stereo_44KHz.wav
2	135	3	4	2	I	1	0	1191	0	Ⴁ	cut_oei_stereo_44KHz.wav
2	136	2	2	1	C	2	1	924	1	Ⴜ	cut_ui_stereo_44KHz.wav
2	137	3	3	2	I	2	0	1054	0	Ⴁ	cut_r_stereo_44KHz.wav
2	138	1	1	1	C	2	1	1067	1	Ⴂ	cut_ei_stereo_44KHz.wav
2	139	2	2	1	C	2	1	844	1	Ⴜ	cut_ui_stereo_44KHz.wav
2	140	4	4	2	I	2	0	698	0	Ⴟ	cut_oei_stereo_44KHz.wav
2	141	1	2	0	C	1	1	1072	1	Ⴂ	cut_ui_stereo_44KHz.wav
2	142	3	4	2	I	1	0	635	1	Ⴁ	cut_oei_stereo_44KHz.wav
2	143	4	3	2	I	1	0	700	0	Ⴟ	cut_r_stereo_44KHz.wav
2	144	2	1	0	C	1	1	677	1	Ⴜ	cut_ei_stereo_44KHz.wav
2	145	1	1	1	C	2	1	926	1	Ⴂ	cut_ei_stereo_44KHz.wav
2	146	2	2	1	C	2	1	825	1	Ⴜ	cut_ui_stereo_44KHz.wav
2	147	3	3	2	I	2	0	722	0	Ⴁ	cut_r_stereo_44KHz.wav
2	148	4	3	2	I	1	0	712	0	Ⴟ	cut_r_stereo_44KHz.wav
2	149	1	2	0	C	2	0	885	0	Ⴂ	cut_ui_stereo_44KHz.wav
2	150	2	1	0	C	1	1	715	1	Ⴜ	cut_ei_stereo_44KHz.wav
2	151	3	4	2	I	1	0	635	1	Ⴁ	cut_oei_stereo_44KHz.wav
2	152	4	4	2	I	2	0	877	0	Ⴟ	cut_oei_stereo_44KHz.wav
2	153	1	1	1	C	2	1	957	1	Ⴂ	cut_ei_stereo_44KHz.wav
2	154	3	4	2	I	1	0	644	0	Ⴁ	cut_oei_stereo_44KHz.wav
2	155	2	2	1	C	2	1	840	1	Ⴜ	cut_ui_stereo_44KHz.wav
2	156	4	3	2	I	2	0	830	1	Ⴟ	cut_r_stereo_44KHz.wav
2	157	3	3	2	I	2	0	1193	1	Ⴁ	cut_r_stereo_44KHz.wav
2	158	4	4	2	I	1	0	1121	0	Ⴟ	cut_oei_stereo_44KHz.wav
2	159	2	1	0	C	1	1	1232	1	Ⴜ	cut_ei_stereo_44KHz.wav
2	160	1	2	0	C	2	0	997	0	Ⴂ	cut_ui_stereo_44KHz.wav
2	161	2	1	0	C	1	1	673	1	Ⴜ	cut_ei_stereo_44KHz.wav
2	162	4	3	2	I	2	0	770	0	Ⴟ	cut_r_stereo_44KHz.wav
2	163	1	2	0	C	2	0	1058	0	Ⴂ	cut_ui_stereo_44KHz.wav
2	164	3	3	2	I	2	0	937	0	Ⴁ	cut_r_stereo_44KHz.wav
2	165	1	1	1	C	1	0	663	0	Ⴂ	cut_ei_stereo_44KHz.wav
2	166	3	4	2	I	1	0	579	0	Ⴁ	cut_oei_stereo_44KHz.wav
2	167	2	2	1	C	2	1	896	1	Ⴜ	cut_ui_stereo_44KHz.wav
2	168	4	4	2	I	2	0	877	1	Ⴟ	cut_oei_stereo_44KHz.wav
2	169	1	2	0	C	2	0	864	0	Ⴂ	cut_ui_stereo_44KHz.wav
2	170	4	4	2	I	2	0	910	1	Ⴟ	cut_oei_stereo_44KHz.wav
2	171	3	3	2	I	1	0	1184	1	Ⴁ	cut_r_stereo_44KHz.wav
2	172	2	1	0	C	1	1	780	1	Ⴜ	cut_ei_stereo_44KHz.wav
2	173	1	1	1	C	2	1	801	1	Ⴂ	cut_ei_stereo_44KHz.wav
2	174	2	2	1	C	2	1	779	1	Ⴜ	cut_ui_stereo_44KHz.wav
2	175	4	3	2	I	2	0	767	0	Ⴟ	cut_r_stereo_44KHz.wav
2	176	3	4	2	I	1	0	1136	1	Ⴁ	cut_oei_stereo_44KHz.wav
2	177	2	2	1	C	2	1	1021	1	Ⴜ	cut_ui_stereo_44KHz.wav
2	178	1	1	1	C	2	1	892	1	Ⴂ	cut_ei_stereo_44KHz.wav
2	179	3	4	2	I	1	0	905	1	Ⴁ	cut_oei_stereo_44KHz.wav
2	180	4	4	2	I	2	0	1036	1	Ⴟ	cut_oei_stereo_44KHz.wav
2	181	2	1	0	C	1	1	769	1	Ⴜ	cut_ei_stereo_44KHz.wav
2	182	4	3	2	I	1	0	811	1	Ⴟ	cut_r_stereo_44KHz.wav
2	183	3	3	2	I	2	0	785	0	Ⴁ	cut_r_stereo_44KHz.wav
2	184	1	2	0	C	2	0	887	0	Ⴂ	cut_ui_stereo_44KHz.wav
2	185	3	4	2	I	1	0	924	0	Ⴁ	cut_oei_stereo_44KHz.wav
2	186	2	1	0	C	1	1	721	1	Ⴜ	cut_ei_stereo_44KHz.wav
2	187	4	3	2	I	1	0	724	1	Ⴟ	cut_r_stereo_44KHz.wav
2	188	1	2	0	C	1	1	967	1	Ⴂ	cut_ui_stereo_44KHz.wav
2	189	3	3	2	I	2	0	732	1	Ⴁ	cut_r_stereo_44KHz.wav
2	190	4	4	2	I	2	0	796	1	Ⴟ	cut_oei_stereo_44KHz.wav
2	191	2	2	1	C	2	1	855	1	Ⴜ	cut_ui_stereo_44KHz.wav
2	192	1	1	1	C	1	0	727	0	Ⴂ	cut_ei_stereo_44KHz.wav
2	193	4	3	2	I	1	0	684	0	Ⴟ	cut_r_stereo_44KHz.wav
2	194	1	2	0	C	1	1	1246	1	Ⴂ	cut_ui_stereo_44KHz.wav
2	195	2	2	1	C	1	0	850	0	Ⴜ	cut_ui_stereo_44KHz.wav
2	196	3	3	2	I	2	0	858	0	Ⴁ	cut_r_stereo_44KHz.wav
2	197	4	4	2	I	1	0	1001	1	Ⴟ	cut_oei_stereo_44KHz.wav
2	198	3	4	2	I	1	0	909	1	Ⴁ	cut_oei_stereo_44KHz.wav
2	199	2	1	0	C	1	1	692	1	Ⴜ	cut_ei_stereo_44KHz.wav
2	200	1	1	1	C	2	1	958	1	Ⴂ	cut_ei_stereo_44KHz.wav
3	1	4	4	2	I	2	0	1558	0	Ⴡ	cut_a_stereo_44KHz.wav
3	2	1	1	1	C	2	1	799	1	Ⴇ	cut_u_stereo_44KHz.wav
3	3	3	4	2	I	2	0	662	1	Ⴃ	cut_a_stereo_44KHz.wav
3	4	2	2	1	C	1	0	1017	0	Ⴊ	cut_o_stereo_44KHz.wav
3	5	4	3	2	I	2	0	936	0	Ⴡ	cut_k_stereo_44KHz.wav
3	6	1	2	0	C	2	0	788	0	Ⴇ	cut_o_stereo_44KHz.wav
3	7	2	1	0	C	2	0	770	0	Ⴊ	cut_u_stereo_44KHz.wav
3	8	3	3	2	I	2	0	783	0	Ⴃ	cut_k_stereo_44KHz.wav
3	9	2	2	1	C	2	1	741	1	Ⴊ	cut_o_stereo_44KHz.wav
3	10	1	2	0	C	1	1	833	1	Ⴇ	cut_o_stereo_44KHz.wav
3	11	4	4	2	I	2	0	972	0	Ⴡ	cut_a_stereo_44KHz.wav
3	12	3	3	2	I	2	0	918	1	Ⴃ	cut_k_stereo_44KHz.wav
3	13	4	3	2	I	1	0	614	0	Ⴡ	cut_k_stereo_44KHz.wav
3	14	2	1	0	C	2	0	673	0	Ⴊ	cut_u_stereo_44KHz.wav
3	15	1	1	1	C	2	1	688	1	Ⴇ	cut_u_stereo_44KHz.wav
3	16	3	4	2	I	1	0	733	0	Ⴃ	cut_a_stereo_44KHz.wav
3	17	2	2	1	C	2	1	927	1	Ⴊ	cut_o_stereo_44KHz.wav
3	18	4	3	2	I	1	0	877	1	Ⴡ	cut_k_stereo_44KHz.wav
3	19	3	4	2	I	2	0	642	0	Ⴃ	cut_a_stereo_44KHz.wav
3	20	1	2	0	C	1	1	820	1	Ⴇ	cut_o_stereo_44KHz.wav
3	21	3	3	2	I	2	0	712	0	Ⴃ	cut_k_stereo_44KHz.wav
3	22	4	4	2	I	2	0	774	0	Ⴡ	cut_a_stereo_44KHz.wav
3	23	1	1	1	C	1	0	587	0	Ⴇ	cut_u_stereo_44KHz.wav
3	24	2	1	0	C	2	0	532	0	Ⴊ	cut_u_stereo_44KHz.wav
3	25	4	4	2	I	1	0	462	1	Ⴡ	cut_a_stereo_44KHz.wav
3	26	2	2	1	C	1	0	733	0	Ⴊ	cut_o_stereo_44KHz.wav
3	27	3	3	2	I	2	0	687	1	Ⴃ	cut_k_stereo_44KHz.wav
3	28	1	2	0	C	2	0	1118	0	Ⴇ	cut_o_stereo_44KHz.wav
3	29	3	4	2	I	2	0	674	0	Ⴃ	cut_a_stereo_44KHz.wav
3	30	1	1	1	C	1	0	840	0	Ⴇ	cut_u_stereo_44KHz.wav
3	31	2	1	0	C	1	1	616	1	Ⴊ	cut_u_stereo_44KHz.wav
3	32	4	3	2	I	1	0	691	1	Ⴡ	cut_k_stereo_44KHz.wav
3	33	1	1	1	C	1	0	658	0	Ⴇ	cut_u_stereo_44KHz.wav
3	34	4	4	2	I	2	0	854	0	Ⴡ	cut_a_stereo_44KHz.wav
3	35	2	1	0	C	1	1	597	1	Ⴊ	cut_u_stereo_44KHz.wav
3	36	3	4	2	I	2	0	828	0	Ⴃ	cut_a_stereo_44KHz.wav
3	37	1	2	0	C	1	1	665	1	Ⴇ	cut_o_stereo_44KHz.wav
3	38	4	3	2	I	1	0	691	1	Ⴡ	cut_k_stereo_44KHz.wav
3	39	2	2	1	C	2	1	778	1	Ⴊ	cut_o_stereo_44KHz.wav
3	40	3	3	2	I	2	0	705	0	Ⴃ	cut_k_stereo_44KHz.wav
3	41	4	3	2	I	1	0	480	0	Ⴡ	cut_k_stereo_44KHz.wav
3	42	3	3	2	I	2	0	844	0	Ⴃ	cut_k_stereo_44KHz.wav
3	43	1	2	0	C	1	1	667	1	Ⴇ	cut_o_stereo_44KHz.wav
3	44	2	1	0	C	1	1	1120	1	Ⴊ	cut_u_stereo_44KHz.wav
3	45	1	1	1	C	1	0	809	0	Ⴇ	cut_u_stereo_44KHz.wav
3	46	3	4	2	I	1	0	804	0	Ⴃ	cut_a_stereo_44KHz.wav
3	47	2	2	1	C	1	0	687	0	Ⴊ	cut_o_stereo_44KHz.wav
3	48	4	4	2	I	2	0	756	1	Ⴡ	cut_a_stereo_44KHz.wav
3	49	3	3	2	I	2	0	967	1	Ⴃ	cut_k_stereo_44KHz.wav
3	50	2	2	1	C	2	1	1292	1	Ⴊ	cut_o_stereo_44KHz.wav
3	51	1	2	0	C	1	1	924	1	Ⴇ	cut_o_stereo_44KHz.wav
3	52	4	4	2	I	2	0	786	0	Ⴡ	cut_a_stereo_44KHz.wav
3	53	1	1	1	C	1	0	727	0	Ⴇ	cut_u_stereo_44KHz.wav
3	54	3	4	2	I	2	0	719	0	Ⴃ	cut_a_stereo_44KHz.wav
3	55	2	1	0	C	1	1	528	1	Ⴊ	cut_u_stereo_44KHz.wav
3	56	4	3	2	I	1	0	814	0	Ⴡ	cut_k_stereo_44KHz.wav
3	57	3	3	2	I	2	0	714	1	Ⴃ	cut_k_stereo_44KHz.wav
3	58	4	3	2	I	1	0	690	0	Ⴡ	cut_k_stereo_44KHz.wav
3	59	1	2	0	C	1	1	662	1	Ⴇ	cut_o_stereo_44KHz.wav
3	60	2	2	1	C	2	1	631	1	Ⴊ	cut_o_stereo_44KHz.wav
3	61	3	4	2	I	1	0	703	0	Ⴃ	cut_a_stereo_44KHz.wav
3	62	2	1	0	C	2	0	616	0	Ⴊ	cut_u_stereo_44KHz.wav
3	63	1	1	1	C	1	0	605	0	Ⴇ	cut_u_stereo_44KHz.wav
3	64	4	4	2	I	1	0	747	0	Ⴡ	cut_a_stereo_44KHz.wav
3	65	2	2	1	C	1	0	650	0	Ⴊ	cut_o_stereo_44KHz.wav
3	66	1	2	0	C	1	1	630	1	Ⴇ	cut_o_stereo_44KHz.wav
3	67	4	4	2	I	1	0	1064	0	Ⴡ	cut_a_stereo_44KHz.wav
3	68	3	4	2	I	2	0	669	0	Ⴃ	cut_a_stereo_44KHz.wav
3	69	4	3	2	I	1	0	809	0	Ⴡ	cut_k_stereo_44KHz.wav
3	70	3	3	2	I	2	0	837	1	Ⴃ	cut_k_stereo_44KHz.wav
3	71	2	1	0	C	1	1	524	1	Ⴊ	cut_u_stereo_44KHz.wav
3	72	1	1	1	C	2	1	775	1	Ⴇ	cut_u_stereo_44KHz.wav
3	73	3	3	2	I	1	0	745	0	Ⴃ	cut_k_stereo_44KHz.wav
3	74	2	2	1	C	2	1	667	1	Ⴊ	cut_o_stereo_44KHz.wav
3	75	1	2	0	C	1	1	779	1	Ⴇ	cut_o_stereo_44KHz.wav
3	76	4	3	2	I	1	0	708	0	Ⴡ	cut_k_stereo_44KHz.wav
3	77	2	1	0	C	2	0	670	0	Ⴊ	cut_u_stereo_44KHz.wav
3	78	4	4	2	I	1	0	574	0	Ⴡ	cut_a_stereo_44KHz.wav
3	79	1	1	1	C	1	0	951	0	Ⴇ	cut_u_stereo_44KHz.wav
3	80	3	4	2	I	2	0	646	1	Ⴃ	cut_a_stereo_44KHz.wav
3	81	1	2	0	C	1	1	882	1	Ⴇ	cut_o_stereo_44KHz.wav
3	82	4	3	2	I	1	0	653	1	Ⴡ	cut_k_stereo_44KHz.wav
3	83	2	2	1	C	2	1	710	1	Ⴊ	cut_o_stereo_44KHz.wav
3	84	3	3	2	I	2	0	847	0	Ⴃ	cut_k_stereo_44KHz.wav
3	85	1	1	1	C	2	1	943	1	Ⴇ	cut_u_stereo_44KHz.wav
3	86	2	1	0	C	1	1	843	1	Ⴊ	cut_u_stereo_44KHz.wav
3	87	4	4	2	I	2	0	746	1	Ⴡ	cut_a_stereo_44KHz.wav
3	88	3	4	2	I	2	0	855	1	Ⴃ	cut_a_stereo_44KHz.wav
3	89	4	4	2	I	2	0	733	1	Ⴡ	cut_a_stereo_44KHz.wav
3	90	3	3	2	I	1	0	717	0	Ⴃ	cut_k_stereo_44KHz.wav
3	91	1	2	0	C	1	1	674	1	Ⴇ	cut_o_stereo_44KHz.wav
3	92	2	1	0	C	2	0	695	0	Ⴊ	cut_u_stereo_44KHz.wav
3	93	1	1	1	C	2	1	682	1	Ⴇ	cut_u_stereo_44KHz.wav
3	94	3	4	2	I	1	0	738	0	Ⴃ	cut_a_stereo_44KHz.wav
3	95	2	2	1	C	1	0	638	0	Ⴊ	cut_o_stereo_44KHz.wav
3	96	4	3	2	I	1	0	672	0	Ⴡ	cut_k_stereo_44KHz.wav
3	97	2	2	1	C	2	1	518	1	Ⴊ	cut_o_stereo_44KHz.wav
3	98	4	3	2	I	1	0	601	1	Ⴡ	cut_k_stereo_44KHz.wav
3	99	1	1	1	C	2	1	903	1	Ⴇ	cut_u_stereo_44KHz.wav
3	100	3	3	2	I	2	0	785	1	Ⴃ	cut_k_stereo_44KHz.wav
3	101	4	4	2	I	2	0	632	1	Ⴡ	cut_a_stereo_44KHz.wav
3	102	1	2	0	C	1	1	686	1	Ⴇ	cut_o_stereo_44KHz.wav
3	103	3	4	2	I	2	0	694	1	Ⴃ	cut_a_stereo_44KHz.wav
3	104	2	1	0	C	2	0	618	0	Ⴊ	cut_u_stereo_44KHz.wav
3	105	4	3	2	I	1	0	640	1	Ⴡ	cut_k_stereo_44KHz.wav
3	106	3	4	2	I	2	0	621	1	Ⴃ	cut_a_stereo_44KHz.wav
3	107	1	1	1	C	2	1	733	1	Ⴇ	cut_u_stereo_44KHz.wav
3	108	2	2	1	C	2	1	725	1	Ⴊ	cut_o_stereo_44KHz.wav
3	109	4	4	2	I	2	0	687	1	Ⴡ	cut_a_stereo_44KHz.wav
3	110	1	2	0	C	2	0	857	0	Ⴇ	cut_o_stereo_44KHz.wav
3	111	3	3	2	I	2	0	697	1	Ⴃ	cut_k_stereo_44KHz.wav
3	112	2	1	0	C	2	0	715	0	Ⴊ	cut_u_stereo_44KHz.wav
3	113	3	4	2	I	2	0	706	1	Ⴃ	cut_a_stereo_44KHz.wav
3	114	4	4	2	I	2	0	707	1	Ⴡ	cut_a_stereo_44KHz.wav
3	115	1	1	1	C	1	0	945	0	Ⴇ	cut_u_stereo_44KHz.wav
3	116	2	2	1	C	2	1	1306	1	Ⴊ	cut_o_stereo_44KHz.wav
3	117	3	3	2	I	2	0	930	1	Ⴃ	cut_k_stereo_44KHz.wav
3	118	4	3	2	I	1	0	923	1	Ⴡ	cut_k_stereo_44KHz.wav
3	119	2	1	0	C	1	1	1140	1	Ⴊ	cut_u_stereo_44KHz.wav
3	120	1	2	0	C	1	1	702	1	Ⴇ	cut_o_stereo_44KHz.wav
3	121	4	3	2	I	1	0	588	0	Ⴡ	cut_k_stereo_44KHz.wav
3	122	1	2	0	C	1	1	786	1	Ⴇ	cut_o_stereo_44KHz.wav
3	123	3	3	2	I	1	0	972	0	Ⴃ	cut_k_stereo_44KHz.wav
3	124	2	2	1	C	2	1	1189	1	Ⴊ	cut_o_stereo_44KHz.wav
3	125	1	1	1	C	2	1	716	1	Ⴇ	cut_u_stereo_44KHz.wav
3	126	2	1	0	C	1	1	814	1	Ⴊ	cut_u_stereo_44KHz.wav
3	127	3	4	2	I	2	0	660	1	Ⴃ	cut_a_stereo_44KHz.wav
3	128	4	4	2	I	2	0	722	1	Ⴡ	cut_a_stereo_44KHz.wav
3	129	3	3	2	I	1	0	834	0	Ⴃ	cut_k_stereo_44KHz.wav
3	130	2	2	1	C	2	1	1145	1	Ⴊ	cut_o_stereo_44KHz.wav
3	131	4	4	2	I	2	0	907	1	Ⴡ	cut_a_stereo_44KHz.wav
3	132	1	2	0	C	1	1	705	1	Ⴇ	cut_o_stereo_44KHz.wav
3	133	3	4	2	I	2	0	577	1	Ⴃ	cut_a_stereo_44KHz.wav
3	134	4	3	2	I	1	0	721	1	Ⴡ	cut_k_stereo_44KHz.wav
3	135	2	1	0	C	1	1	675	1	Ⴊ	cut_u_stereo_44KHz.wav
3	136	1	1	1	C	2	1	711	1	Ⴇ	cut_u_stereo_44KHz.wav
3	137	3	4	2	I	2	0	575	1	Ⴃ	cut_a_stereo_44KHz.wav
3	138	1	2	0	C	1	1	697	1	Ⴇ	cut_o_stereo_44KHz.wav
3	139	2	2	1	C	2	1	581	1	Ⴊ	cut_o_stereo_44KHz.wav
3	140	4	4	2	I	2	0	827	0	Ⴡ	cut_a_stereo_44KHz.wav
3	141	3	3	2	I	2	0	910	0	Ⴃ	cut_k_stereo_44KHz.wav
3	142	4	3	2	I	1	0	867	0	Ⴡ	cut_k_stereo_44KHz.wav
3	143	2	1	0	C	2	0	836	0	Ⴊ	cut_u_stereo_44KHz.wav
3	144	1	1	1	C	2	1	702	1	Ⴇ	cut_u_stereo_44KHz.wav
3	145	3	4	2	I	1	0	730	1	Ⴃ	cut_a_stereo_44KHz.wav
3	146	1	2	0	C	1	1	600	1	Ⴇ	cut_o_stereo_44KHz.wav
3	147	4	3	2	I	1	0	596	1	Ⴡ	cut_k_stereo_44KHz.wav
3	148	2	2	1	C	2	1	736	1	Ⴊ	cut_o_stereo_44KHz.wav
3	149	4	4	2	I	2	0	551	1	Ⴡ	cut_a_stereo_44KHz.wav
3	150	2	1	0	C	1	1	1062	1	Ⴊ	cut_u_stereo_44KHz.wav
3	151	3	3	2	I	1	0	942	1	Ⴃ	cut_k_stereo_44KHz.wav
3	152	1	1	1	C	2	1	714	1	Ⴇ	cut_u_stereo_44KHz.wav
3	153	3	4	2	I	1	0	658	0	Ⴃ	cut_a_stereo_44KHz.wav
3	154	1	2	0	C	1	1	731	1	Ⴇ	cut_o_stereo_44KHz.wav
3	155	4	4	2	I	2	0	711	0	Ⴡ	cut_a_stereo_44KHz.wav
3	156	2	1	0	C	1	1	948	1	Ⴊ	cut_u_stereo_44KHz.wav
3	157	4	3	2	I	1	0	722	1	Ⴡ	cut_k_stereo_44KHz.wav
3	158	3	3	2	I	1	0	776	1	Ⴃ	cut_k_stereo_44KHz.wav
3	159	1	1	1	C	2	1	693	1	Ⴇ	cut_u_stereo_44KHz.wav
3	160	2	2	1	C	2	1	816	1	Ⴊ	cut_o_stereo_44KHz.wav
3	161	3	4	2	I	2	0	772	1	Ⴃ	cut_a_stereo_44KHz.wav
3	162	1	1	1	C	2	1	751	1	Ⴇ	cut_u_stereo_44KHz.wav
3	163	2	2	1	C	2	1	753	1	Ⴊ	cut_o_stereo_44KHz.wav
3	164	4	4	2	I	2	0	638	0	Ⴡ	cut_a_stereo_44KHz.wav
3	165	1	2	0	C	2	0	715	0	Ⴇ	cut_o_stereo_44KHz.wav
3	166	2	1	0	C	1	1	847	1	Ⴊ	cut_u_stereo_44KHz.wav
3	167	4	3	2	I	1	0	687	0	Ⴡ	cut_k_stereo_44KHz.wav
3	168	3	3	2	I	1	0	730	0	Ⴃ	cut_k_stereo_44KHz.wav
3	169	4	3	2	I	1	0	650	1	Ⴡ	cut_k_stereo_44KHz.wav
3	170	1	2	0	C	1	1	573	1	Ⴇ	cut_o_stereo_44KHz.wav
3	171	2	2	1	C	2	1	644	1	Ⴊ	cut_o_stereo_44KHz.wav
3	172	3	3	2	I	1	0	848	0	Ⴃ	cut_k_stereo_44KHz.wav
3	173	2	1	0	C	1	1	1014	1	Ⴊ	cut_u_stereo_44KHz.wav
3	174	3	4	2	I	1	0	759	0	Ⴃ	cut_a_stereo_44KHz.wav
3	175	4	4	2	I	1	0	822	0	Ⴡ	cut_a_stereo_44KHz.wav
3	176	1	1	1	C	2	1	920	1	Ⴇ	cut_u_stereo_44KHz.wav
3	177	2	2	1	C	1	0	898	0	Ⴊ	cut_o_stereo_44KHz.wav
3	178	1	2	0	C	1	1	654	1	Ⴇ	cut_o_stereo_44KHz.wav
3	179	4	4	2	I	1	0	892	0	Ⴡ	cut_a_stereo_44KHz.wav
3	180	3	3	2	I	1	0	852	1	Ⴃ	cut_k_stereo_44KHz.wav
3	181	4	3	2	I	1	0	793	1	Ⴡ	cut_k_stereo_44KHz.wav
3	182	2	1	0	C	2	0	927	0	Ⴊ	cut_u_stereo_44KHz.wav
3	183	3	4	2	I	2	0	941	0	Ⴃ	cut_a_stereo_44KHz.wav
3	184	1	1	1	C	2	1	803	1	Ⴇ	cut_u_stereo_44KHz.wav
3	185	4	3	2	I	1	0	573	1	Ⴡ	cut_k_stereo_44KHz.wav
3	186	2	1	0	C	1	1	712	1	Ⴊ	cut_u_stereo_44KHz.wav
3	187	1	2	0	C	1	1	584	1	Ⴇ	cut_o_stereo_44KHz.wav
3	188	3	3	2	I	1	0	637	1	Ⴃ	cut_k_stereo_44KHz.wav
3	189	2	2	1	C	2	1	667	1	Ⴊ	cut_o_stereo_44KHz.wav
3	190	3	4	2	I	1	0	856	0	Ⴃ	cut_a_stereo_44KHz.wav
3	191	1	1	1	C	2	1	660	1	Ⴇ	cut_u_stereo_44KHz.wav
3	192	4	4	2	I	1	0	862	1	Ⴡ	cut_a_stereo_44KHz.wav
3	193	2	1	0	C	2	0	876	0	Ⴊ	cut_u_stereo_44KHz.wav
3	194	1	2	0	C	1	1	602	1	Ⴇ	cut_o_stereo_44KHz.wav
3	195	4	4	2	I	1	0	723	0	Ⴡ	cut_a_stereo_44KHz.wav
3	196	3	3	2	I	1	0	727	1	Ⴃ	cut_k_stereo_44KHz.wav
3	197	4	3	2	I	1	0	836	1	Ⴡ	cut_k_stereo_44KHz.wav
3	198	3	4	2	I	1	0	982	1	Ⴃ	cut_a_stereo_44KHz.wav
3	199	1	1	1	C	2	1	701	1	Ⴇ	cut_u_stereo_44KHz.wav
3	200	2	2	1	C	2	1	713	1	Ⴊ	cut_o_stereo_44KHz.wav
4	1	1	2	0	C	2	0	1005	0	Ⴐ	cut_h_stereo_44KHz.wav
4	2	2	1	0	C	2	0	833	0	Ⴌ	cut_w_stereo_44KHz.wav
4	3	3	3	2	I	2	0	810	1	Ⴉ	cut_l_stereo_44KHz.wav
4	4	4	3	2	I	1	0	560	0	Ⴏ	cut_l_stereo_44KHz.wav
4	5	1	1	1	C	1	0	726	0	Ⴐ	cut_w_stereo_44KHz.wav
4	6	3	4	2	I	1	0	822	1	Ⴉ	cut_g_stereo_44KHz.wav
4	7	2	2	1	C	1	0	551	0	Ⴌ	cut_h_stereo_44KHz.wav
4	8	4	4	2	I	2	0	628	0	Ⴏ	cut_g_stereo_44KHz.wav
4	9	3	3	2	I	1	0	654	1	Ⴉ	cut_l_stereo_44KHz.wav
4	10	1	2	0	C	1	1	891	1	Ⴐ	cut_h_stereo_44KHz.wav
4	11	2	1	0	C	1	1	766	1	Ⴌ	cut_w_stereo_44KHz.wav
4	12	4	3	2	I	1	0	633	0	Ⴏ	cut_l_stereo_44KHz.wav
4	13	2	2	1	C	1	0	837	0	Ⴌ	cut_h_stereo_44KHz.wav
4	14	1	1	1	C	2	1	812	1	Ⴐ	cut_w_stereo_44KHz.wav
4	15	3	4	2	I	1	0	732	0	Ⴉ	cut_g_stereo_44KHz.wav
4	16	4	4	2	I	1	0	522	1	Ⴏ	cut_g_stereo_44KHz.wav
4	17	3	3	2	I	1	0	636	0	Ⴉ	cut_l_stereo_44KHz.wav
4	18	1	2	0	C	1	1	642	1	Ⴐ	cut_h_stereo_44KHz.wav
4	19	4	4	2	I	2	0	859	1	Ⴏ	cut_g_stereo_44KHz.wav
4	20	2	1	0	C	1	1	649	1	Ⴌ	cut_w_stereo_44KHz.wav
4	21	4	3	2	I	1	0	710	1	Ⴏ	cut_l_stereo_44KHz.wav
4	22	2	2	1	C	1	0	873	0	Ⴌ	cut_h_stereo_44KHz.wav
4	23	1	1	1	C	1	0	830	0	Ⴐ	cut_w_stereo_44KHz.wav
4	24	3	4	2	I	2	0	770	0	Ⴉ	cut_g_stereo_44KHz.wav
4	25	2	1	0	C	1	1	661	1	Ⴌ	cut_w_stereo_44KHz.wav
4	26	3	4	2	I	1	0	1007	1	Ⴉ	cut_g_stereo_44KHz.wav
4	27	1	2	0	C	2	0	820	0	Ⴐ	cut_h_stereo_44KHz.wav
4	28	4	4	2	I	2	0	778	0	Ⴏ	cut_g_stereo_44KHz.wav
4	29	3	3	2	I	2	0	735	1	Ⴉ	cut_l_stereo_44KHz.wav
4	30	2	2	1	C	1	0	678	0	Ⴌ	cut_h_stereo_44KHz.wav
4	31	4	3	2	I	2	0	661	0	Ⴏ	cut_l_stereo_44KHz.wav
4	32	1	1	1	C	1	0	860	0	Ⴐ	cut_w_stereo_44KHz.wav
4	33	2	2	1	C	2	1	796	1	Ⴌ	cut_h_stereo_44KHz.wav
4	34	4	4	2	I	1	0	842	0	Ⴏ	cut_g_stereo_44KHz.wav
4	35	1	2	0	C	2	0	639	0	Ⴐ	cut_h_stereo_44KHz.wav
4	36	3	3	2	I	1	0	782	0	Ⴉ	cut_l_stereo_44KHz.wav
4	37	4	3	2	I	1	0	645	1	Ⴏ	cut_l_stereo_44KHz.wav
4	38	3	4	2	I	1	0	911	1	Ⴉ	cut_g_stereo_44KHz.wav
4	39	2	1	0	C	1	1	852	1	Ⴌ	cut_w_stereo_44KHz.wav
4	40	1	1	1	C	2	1	677	1	Ⴐ	cut_w_stereo_44KHz.wav
4	41	2	1	0	C	1	1	879	1	Ⴌ	cut_w_stereo_44KHz.wav
4	42	4	3	2	I	1	0	797	1	Ⴏ	cut_l_stereo_44KHz.wav
4	43	1	1	1	C	2	1	826	1	Ⴐ	cut_w_stereo_44KHz.wav
4	44	3	3	2	I	1	0	817	0	Ⴉ	cut_l_stereo_44KHz.wav
4	45	1	2	0	C	2	0	861	0	Ⴐ	cut_h_stereo_44KHz.wav
4	46	3	4	2	I	1	0	685	1	Ⴉ	cut_g_stereo_44KHz.wav
4	47	4	4	2	I	2	0	710	0	Ⴏ	cut_g_stereo_44KHz.wav
4	48	2	2	1	C	1	0	736	0	Ⴌ	cut_h_stereo_44KHz.wav
4	49	4	3	2	I	1	0	859	0	Ⴏ	cut_l_stereo_44KHz.wav
4	50	2	2	1	C	2	1	716	1	Ⴌ	cut_h_stereo_44KHz.wav
4	51	1	2	0	C	2	0	675	0	Ⴐ	cut_h_stereo_44KHz.wav
4	52	3	4	2	I	1	0	656	0	Ⴉ	cut_g_stereo_44KHz.wav
4	53	4	4	2	I	1	0	1006	0	Ⴏ	cut_g_stereo_44KHz.wav
4	54	1	1	1	C	1	0	1142	0	Ⴐ	cut_w_stereo_44KHz.wav
4	55	3	3	2	I	2	0	779	0	Ⴉ	cut_l_stereo_44KHz.wav
4	56	2	1	0	C	1	1	841	1	Ⴌ	cut_w_stereo_44KHz.wav
4	57	1	1	1	C	2	1	808	1	Ⴐ	cut_w_stereo_44KHz.wav
4	58	4	4	2	I	1	0	743	1	Ⴏ	cut_g_stereo_44KHz.wav
4	59	3	4	2	I	1	0	719	1	Ⴉ	cut_g_stereo_44KHz.wav
4	60	2	2	1	C	2	1	783	1	Ⴌ	cut_h_stereo_44KHz.wav
4	61	3	3	2	I	2	0	967	1	Ⴉ	cut_l_stereo_44KHz.wav
4	62	1	2	0	C	1	1	827	1	Ⴐ	cut_h_stereo_44KHz.wav
4	63	4	3	2	I	1	0	653	0	Ⴏ	cut_l_stereo_44KHz.wav
4	64	2	1	0	C	1	1	794	1	Ⴌ	cut_w_stereo_44KHz.wav
4	65	1	2	0	C	1	1	1015	1	Ⴐ	cut_h_stereo_44KHz.wav
4	66	2	2	1	C	2	1	632	1	Ⴌ	cut_h_stereo_44KHz.wav
4	67	3	4	2	I	1	0	688	0	Ⴉ	cut_g_stereo_44KHz.wav
4	68	4	4	2	I	1	0	640	0	Ⴏ	cut_g_stereo_44KHz.wav
4	69	3	3	2	I	1	0	732	1	Ⴉ	cut_l_stereo_44KHz.wav
4	70	1	1	1	C	2	1	791	1	Ⴐ	cut_w_stereo_44KHz.wav
4	71	2	1	0	C	1	1	745	1	Ⴌ	cut_w_stereo_44KHz.wav
4	72	4	3	2	I	2	0	824	0	Ⴏ	cut_l_stereo_44KHz.wav
4	73	2	2	1	C	2	1	877	1	Ⴌ	cut_h_stereo_44KHz.wav
4	74	3	4	2	I	1	0	627	1	Ⴉ	cut_g_stereo_44KHz.wav
4	75	1	2	0	C	1	1	975	1	Ⴐ	cut_h_stereo_44KHz.wav
4	76	4	3	2	I	1	0	832	1	Ⴏ	cut_l_stereo_44KHz.wav
4	77	3	3	2	I	1	0	799	0	Ⴉ	cut_l_stereo_44KHz.wav
4	78	1	1	1	C	1	0	779	0	Ⴐ	cut_w_stereo_44KHz.wav
4	79	2	1	0	C	1	1	754	1	Ⴌ	cut_w_stereo_44KHz.wav
4	80	4	4	2	I	1	0	722	0	Ⴏ	cut_g_stereo_44KHz.wav
4	81	1	1	1	C	1	0	860	0	Ⴐ	cut_w_stereo_44KHz.wav
4	82	3	3	2	I	2	0	867	0	Ⴉ	cut_l_stereo_44KHz.wav
4	83	4	4	2	I	1	0	808	0	Ⴏ	cut_g_stereo_44KHz.wav
4	84	2	1	0	C	1	1	742	1	Ⴌ	cut_w_stereo_44KHz.wav
4	85	1	2	0	C	1	1	663	1	Ⴐ	cut_h_stereo_44KHz.wav
4	86	4	3	2	I	1	0	616	0	Ⴏ	cut_l_stereo_44KHz.wav
4	87	3	4	2	I	1	0	629	1	Ⴉ	cut_g_stereo_44KHz.wav
4	88	2	2	1	C	1	0	596	0	Ⴌ	cut_h_stereo_44KHz.wav
4	89	1	2	0	C	1	1	877	1	Ⴐ	cut_h_stereo_44KHz.wav
4	90	4	4	2	I	1	0	636	1	Ⴏ	cut_g_stereo_44KHz.wav
4	91	2	2	1	C	2	1	1149	1	Ⴌ	cut_h_stereo_44KHz.wav
4	92	3	4	2	I	1	0	739	0	Ⴉ	cut_g_stereo_44KHz.wav
4	93	2	1	0	C	1	1	924	1	Ⴌ	cut_w_stereo_44KHz.wav
4	94	1	1	1	C	2	1	804	1	Ⴐ	cut_w_stereo_44KHz.wav
4	95	4	3	2	I	1	0	739	1	Ⴏ	cut_l_stereo_44KHz.wav
4	96	3	3	2	I	2	0	785	1	Ⴉ	cut_l_stereo_44KHz.wav
4	97	2	2	1	C	2	1	823	1	Ⴌ	cut_h_stereo_44KHz.wav
4	98	3	4	2	I	1	0	726	1	Ⴉ	cut_g_stereo_44KHz.wav
4	99	1	2	0	C	2	0	763	0	Ⴐ	cut_h_stereo_44KHz.wav
4	100	4	4	2	I	1	0	771	0	Ⴏ	cut_g_stereo_44KHz.wav
4	101	2	1	0	C	1	1	838	1	Ⴌ	cut_w_stereo_44KHz.wav
4	102	4	3	2	I	1	0	921	1	Ⴏ	cut_l_stereo_44KHz.wav
4	103	1	1	1	C	2	1	951	1	Ⴐ	cut_w_stereo_44KHz.wav
4	104	3	3	2	I	1	0	836	1	Ⴉ	cut_l_stereo_44KHz.wav
4	105	4	3	2	I	1	0	669	0	Ⴏ	cut_l_stereo_44KHz.wav
4	106	3	3	2	I	1	0	677	0	Ⴉ	cut_l_stereo_44KHz.wav
4	107	1	1	1	C	2	1	1044	1	Ⴐ	cut_w_stereo_44KHz.wav
4	108	2	1	0	C	1	1	728	1	Ⴌ	cut_w_stereo_44KHz.wav
4	109	3	4	2	I	2	0	871	1	Ⴉ	cut_g_stereo_44KHz.wav
4	110	4	4	2	I	2	0	861	1	Ⴏ	cut_g_stereo_44KHz.wav
4	111	2	2	1	C	2	1	1078	1	Ⴌ	cut_h_stereo_44KHz.wav
4	112	1	2	0	C	1	1	711	1	Ⴐ	cut_h_stereo_44KHz.wav
4	113	2	1	0	C	1	1	859	1	Ⴌ	cut_w_stereo_44KHz.wav
4	114	4	3	2	I	1	0	844	0	Ⴏ	cut_l_stereo_44KHz.wav
4	115	1	2	0	C	2	0	1121	0	Ⴐ	cut_h_stereo_44KHz.wav
4	116	3	4	2	I	1	0	1038	1	Ⴉ	cut_g_stereo_44KHz.wav
4	117	2	2	1	C	2	1	915	1	Ⴌ	cut_h_stereo_44KHz.wav
4	118	3	3	2	I	1	0	784	0	Ⴉ	cut_l_stereo_44KHz.wav
4	119	1	1	1	C	1	0	960	0	Ⴐ	cut_w_stereo_44KHz.wav
4	120	4	4	2	I	1	0	1022	1	Ⴏ	cut_g_stereo_44KHz.wav
4	121	2	1	0	C	1	1	891	1	Ⴌ	cut_w_stereo_44KHz.wav
4	122	3	4	2	I	1	0	921	1	Ⴉ	cut_g_stereo_44KHz.wav
4	123	4	4	2	I	1	0	962	0	Ⴏ	cut_g_stereo_44KHz.wav
4	124	1	1	1	C	2	1	612	1	Ⴐ	cut_w_stereo_44KHz.wav
4	125	4	3	2	I	1	0	672	1	Ⴏ	cut_l_stereo_44KHz.wav
4	126	1	2	0	C	2	0	775	0	Ⴐ	cut_h_stereo_44KHz.wav
4	127	2	2	1	C	2	1	897	1	Ⴌ	cut_h_stereo_44KHz.wav
4	128	3	3	2	I	1	0	787	0	Ⴉ	cut_l_stereo_44KHz.wav
4	129	1	1	1	C	2	1	727	1	Ⴐ	cut_w_stereo_44KHz.wav
4	130	3	3	2	I	1	0	806	0	Ⴉ	cut_l_stereo_44KHz.wav
4	131	2	1	0	C	1	1	830	1	Ⴌ	cut_w_stereo_44KHz.wav
4	132	4	3	2	I	1	0	752	1	Ⴏ	cut_l_stereo_44KHz.wav
4	133	2	2	1	C	2	1	873	1	Ⴌ	cut_h_stereo_44KHz.wav
4	134	4	4	2	I	1	0	899	1	Ⴏ	cut_g_stereo_44KHz.wav
4	135	3	4	2	I	1	0	967	1	Ⴉ	cut_g_stereo_44KHz.wav
4	136	1	2	0	C	1	1	1052	1	Ⴐ	cut_h_stereo_44KHz.wav
4	137	4	3	2	I	1	0	812	0	Ⴏ	cut_l_stereo_44KHz.wav
4	138	2	1	0	C	1	1	900	1	Ⴌ	cut_w_stereo_44KHz.wav
4	139	1	2	0	C	1	1	1015	1	Ⴐ	cut_h_stereo_44KHz.wav
4	140	3	4	2	I	1	0	943	0	Ⴉ	cut_g_stereo_44KHz.wav
4	141	4	4	2	I	1	0	598	1	Ⴏ	cut_g_stereo_44KHz.wav
4	142	3	3	2	I	1	0	801	1	Ⴉ	cut_l_stereo_44KHz.wav
4	143	1	1	1	C	1	0	1083	0	Ⴐ	cut_w_stereo_44KHz.wav
4	144	2	2	1	C	2	1	865	1	Ⴌ	cut_h_stereo_44KHz.wav
4	145	4	3	2	I	1	0	973	0	Ⴏ	cut_l_stereo_44KHz.wav
4	146	1	2	0	C	2	0	1192	0	Ⴐ	cut_h_stereo_44KHz.wav
4	147	3	3	2	I	1	0	806	1	Ⴉ	cut_l_stereo_44KHz.wav
4	148	2	2	1	C	2	1	693	1	Ⴌ	cut_h_stereo_44KHz.wav
4	149	1	1	1	C	1	0	687	0	Ⴐ	cut_w_stereo_44KHz.wav
4	150	4	4	2	I	1	0	777	1	Ⴏ	cut_g_stereo_44KHz.wav
4	151	2	1	0	C	1	1	995	1	Ⴌ	cut_w_stereo_44KHz.wav
4	152	3	4	2	I	1	0	1038	0	Ⴉ	cut_g_stereo_44KHz.wav
4	153	4	4	2	I	2	0	1093	1	Ⴏ	cut_g_stereo_44KHz.wav
4	154	1	1	1	C	1	0	901	0	Ⴐ	cut_w_stereo_44KHz.wav
4	155	3	4	2	I	1	0	649	1	Ⴉ	cut_g_stereo_44KHz.wav
4	156	2	1	0	C	1	1	703	1	Ⴌ	cut_w_stereo_44KHz.wav
4	157	4	3	2	I	1	0	782	1	Ⴏ	cut_l_stereo_44KHz.wav
4	158	2	2	1	C	2	1	906	1	Ⴌ	cut_h_stereo_44KHz.wav
4	159	1	2	0	C	1	1	1054	1	Ⴐ	cut_h_stereo_44KHz.wav
4	160	3	3	2	I	1	0	962	0	Ⴉ	cut_l_stereo_44KHz.wav
4	161	2	1	0	C	1	1	1133	1	Ⴌ	cut_w_stereo_44KHz.wav
4	162	1	1	1	C	1	0	954	0	Ⴐ	cut_w_stereo_44KHz.wav
4	163	4	4	2	I	1	0	737	1	Ⴏ	cut_g_stereo_44KHz.wav
4	164	3	4	2	I	1	0	760	0	Ⴉ	cut_g_stereo_44KHz.wav
4	165	1	2	0	C	1	1	1112	1	Ⴐ	cut_h_stereo_44KHz.wav
4	166	3	3	2	I	1	0	881	0	Ⴉ	cut_l_stereo_44KHz.wav
4	167	2	2	1	C	2	1	929	1	Ⴌ	cut_h_stereo_44KHz.wav
4	168	4	3	2	I	1	0	637	0	Ⴏ	cut_l_stereo_44KHz.wav
4	169	1	1	1	C	2	1	994	1	Ⴐ	cut_w_stereo_44KHz.wav
4	170	4	3	2	I	1	0	661	1	Ⴏ	cut_l_stereo_44KHz.wav
4	171	3	4	2	I	1	0	723	0	Ⴉ	cut_g_stereo_44KHz.wav
4	172	2	2	1	C	2	1	648	1	Ⴌ	cut_h_stereo_44KHz.wav
4	173	4	4	2	I	1	0	1006	0	Ⴏ	cut_g_stereo_44KHz.wav
4	174	1	2	0	C	1	1	976	1	Ⴐ	cut_h_stereo_44KHz.wav
4	175	3	3	2	I	1	0	814	1	Ⴉ	cut_l_stereo_44KHz.wav
4	176	2	1	0	C	2	0	1086	0	Ⴌ	cut_w_stereo_44KHz.wav
4	177	3	3	2	I	1	0	1103	0	Ⴉ	cut_l_stereo_44KHz.wav
4	178	2	2	1	C	2	1	795	1	Ⴌ	cut_h_stereo_44KHz.wav
4	179	4	4	2	I	1	0	649	1	Ⴏ	cut_g_stereo_44KHz.wav
4	180	1	2	0	C	1	1	795	1	Ⴐ	cut_h_stereo_44KHz.wav
4	181	4	3	2	I	1	0	978	0	Ⴏ	cut_l_stereo_44KHz.wav
4	182	1	1	1	C	2	1	911	1	Ⴐ	cut_w_stereo_44KHz.wav
4	183	2	1	0	C	1	1	1300	1	Ⴌ	cut_w_stereo_44KHz.wav
4	184	3	4	2	I	1	0	727	1	Ⴉ	cut_g_stereo_44KHz.wav
4	185	2	2	1	C	2	1	1201	1	Ⴌ	cut_h_stereo_44KHz.wav
4	186	3	4	2	I	1	0	716	0	Ⴉ	cut_g_stereo_44KHz.wav
4	187	4	4	2	I	1	0	611	1	Ⴏ	cut_g_stereo_44KHz.wav
4	188	1	2	0	C	1	1	956	1	Ⴐ	cut_h_stereo_44KHz.wav
4	189	3	3	2	I	1	0	1132	0	Ⴉ	cut_l_stereo_44KHz.wav
4	190	4	3	2	I	1	0	698	0	Ⴏ	cut_l_stereo_44KHz.wav
4	191	2	1	0	C	1	1	779	1	Ⴌ	cut_w_stereo_44KHz.wav
4	192	1	1	1	C	2	1	771	1	Ⴐ	cut_w_stereo_44KHz.wav
4	193	3	3	2	I	1	0	715	0	Ⴉ	cut_l_stereo_44KHz.wav
4	194	2	1	0	C	1	1	691	1	Ⴌ	cut_w_stereo_44KHz.wav
4	195	4	4	2	I	1	0	678	1	Ⴏ	cut_g_stereo_44KHz.wav
4	196	1	1	1	C	1	0	1112	0	Ⴐ	cut_w_stereo_44KHz.wav
4	197	2	2	1	C	2	1	742	1	Ⴌ	cut_h_stereo_44KHz.wav
4	198	3	4	2	I	1	0	755	1	Ⴉ	cut_g_stereo_44KHz.wav
4	199	1	2	0	C	1	1	863	1	Ⴐ	cut_h_stereo_44KHz.wav
4	200	4	3	2	I	1	0	703	1	Ⴏ	cut_l_stereo_44KHz.wav
