block	trial	Vstim	Astim	match	C/I	resp	result	RT	fb	V-file	A-file
RL

0	1	1	2	0	C	2	1	1306	1	Ⴋ	cut_oo_stereo_44KHz.wav
0	2	1	1	1	C	1	1	1223	1	Ⴋ	cut_eeuw_stereo_44KHz.wav
0	3	2	4	0	C	2	1	1129	1	Ⴞ	cut_g_stereo_44KHz.wav
0	4	2	3	1	C	1	1	831	1	Ⴞ	cut_ee_stereo_44KHz.wav
0	5	1	2	0	C	2	1	790	1	Ⴋ	cut_oo_stereo_44KHz.wav
0	6	2	3	1	C	1	1	868	1	Ⴞ	cut_ee_stereo_44KHz.wav
0	7	2	4	0	C	2	1	1272	1	Ⴞ	cut_g_stereo_44KHz.wav
0	8	1	1	1	C	1	1	846	1	Ⴋ	cut_eeuw_stereo_44KHz.wav
0	9	1	1	1	C	1	1	947	1	Ⴋ	cut_eeuw_stereo_44KHz.wav
0	10	1	2	0	C	2	1	936	1	Ⴋ	cut_oo_stereo_44KHz.wav
0	11	2	4	0	C	2	1	1098	1	Ⴞ	cut_g_stereo_44KHz.wav
0	12	2	3	1	C	1	1	1065	1	Ⴞ	cut_ee_stereo_44KHz.wav
0	13	1	2	0	C	2	1	991	1	Ⴋ	cut_oo_stereo_44KHz.wav
0	14	1	1	1	C	1	1	1364	1	Ⴋ	cut_eeuw_stereo_44KHz.wav
0	15	2	4	0	C	2	1	784	1	Ⴞ	cut_g_stereo_44KHz.wav
0	16	2	3	1	C	1	1	790	1	Ⴞ	cut_ee_stereo_44KHz.wav
0	17	2	3	1	C	1	1	888	1	Ⴞ	cut_ee_stereo_44KHz.wav
0	18	2	4	0	C	2	1	907	1	Ⴞ	cut_g_stereo_44KHz.wav
0	19	1	1	1	C	1	1	973	1	Ⴋ	cut_eeuw_stereo_44KHz.wav
0	20	1	2	0	C	2	1	806	1	Ⴋ	cut_oo_stereo_44KHz.wav
0	21	2	4	0	C	2	1	1022	1	Ⴞ	cut_g_stereo_44KHz.wav
0	22	1	2	0	C	2	1	839	1	Ⴋ	cut_oo_stereo_44KHz.wav
0	23	1	1	1	C	1	1	738	1	Ⴋ	cut_eeuw_stereo_44KHz.wav
0	24	2	3	1	C	1	1	948	1	Ⴞ	cut_ee_stereo_44KHz.wav
0	25	1	1	1	C	1	1	885	1	Ⴋ	cut_eeuw_stereo_44KHz.wav
0	26	2	3	1	C	1	1	847	1	Ⴞ	cut_ee_stereo_44KHz.wav
0	27	2	4	0	C	1	0	804	0	Ⴞ	cut_g_stereo_44KHz.wav
0	28	1	2	0	C	2	1	759	1	Ⴋ	cut_oo_stereo_44KHz.wav
0	29	1	1	1	C	1	1	736	1	Ⴋ	cut_eeuw_stereo_44KHz.wav
0	30	1	2	0	C	2	1	788	1	Ⴋ	cut_oo_stereo_44KHz.wav
avg_resp = 944
1	1	4	3	2	I	2	0	1124	0	Ⴃ	cut_o_stereo_44KHz.wav
1	2	1	2	0	C	2	1	1005	1	Ⴡ	cut_u_stereo_44KHz.wav
1	3	3	4	2	I	2	0	982	1	Ⴟ	cut_a_stereo_44KHz.wav
1	4	2	1	0	C	2	1	808	1	Ⴇ	cut_k_stereo_44KHz.wav
1	5	4	4	2	I	2	0	893	0	Ⴃ	cut_a_stereo_44KHz.wav
1	6	2	2	1	C	1	1	1063	1	Ⴇ	cut_u_stereo_44KHz.wav
1	7	1	1	1	C	1	1	1387	1	Ⴡ	cut_k_stereo_44KHz.wav
1	8	3	3	2	I	1	0	1053	0	Ⴟ	cut_o_stereo_44KHz.wav
1	9	1	1	1	C	2	0	1039	0	Ⴡ	cut_k_stereo_44KHz.wav
1	10	2	2	1	C	2	0	1228	0	Ⴇ	cut_u_stereo_44KHz.wav
1	11	4	3	2	I	1	0	885	1	Ⴃ	cut_o_stereo_44KHz.wav
1	12	3	3	2	I	2	0	1255	1	Ⴟ	cut_o_stereo_44KHz.wav
1	13	1	2	0	C	2	1	1019	1	Ⴡ	cut_u_stereo_44KHz.wav
1	14	2	1	0	C	2	1	968	1	Ⴇ	cut_k_stereo_44KHz.wav
1	15	3	4	2	I	1	0	1105	1	Ⴟ	cut_a_stereo_44KHz.wav
1	16	4	4	2	I	2	0	1106	1	Ⴃ	cut_a_stereo_44KHz.wav
1	17	2	2	1	C	2	0	1414	0	Ⴇ	cut_u_stereo_44KHz.wav
1	18	4	4	2	I	2	0	1250	1	Ⴃ	cut_a_stereo_44KHz.wav
1	19	3	4	2	I	1	0	806	0	Ⴟ	cut_a_stereo_44KHz.wav
1	20	1	2	0	C	2	1	1009	1	Ⴡ	cut_u_stereo_44KHz.wav
1	21	2	1	0	C	1	0	1058	0	Ⴇ	cut_k_stereo_44KHz.wav
1	22	3	3	2	I	2	0	1259	1	Ⴟ	cut_o_stereo_44KHz.wav
1	23	1	1	1	C	2	0	818	0	Ⴡ	cut_k_stereo_44KHz.wav
1	24	4	3	2	I	1	0	799	1	Ⴃ	cut_o_stereo_44KHz.wav
1	25	2	2	1	C	2	0	789	0	Ⴇ	cut_u_stereo_44KHz.wav
1	26	3	4	2	I	2	0	1286	1	Ⴟ	cut_a_stereo_44KHz.wav
1	27	4	4	2	I	2	0	1151	1	Ⴃ	cut_a_stereo_44KHz.wav
1	28	1	2	0	C	2	1	1212	1	Ⴡ	cut_u_stereo_44KHz.wav
1	29	4	3	2	I	1	0	1013	0	Ⴃ	cut_o_stereo_44KHz.wav
1	30	3	3	2	I	2	0	881	1	Ⴟ	cut_o_stereo_44KHz.wav
1	31	1	1	1	C	1	1	885	1	Ⴡ	cut_k_stereo_44KHz.wav
1	32	2	1	0	C	2	1	667	1	Ⴇ	cut_k_stereo_44KHz.wav
1	33	3	3	2	I	2	0	1015	1	Ⴟ	cut_o_stereo_44KHz.wav
1	34	2	2	1	C	1	1	838	1	Ⴇ	cut_u_stereo_44KHz.wav
1	35	4	3	2	I	2	0	1065	1	Ⴃ	cut_o_stereo_44KHz.wav
1	36	1	1	1	C	1	1	1023	1	Ⴡ	cut_k_stereo_44KHz.wav
1	37	3	4	2	I	2	0	911	0	Ⴟ	cut_a_stereo_44KHz.wav
1	38	2	1	0	C	2	1	769	1	Ⴇ	cut_k_stereo_44KHz.wav
1	39	4	4	2	I	2	0	917	1	Ⴃ	cut_a_stereo_44KHz.wav
1	40	1	2	0	C	2	1	937	1	Ⴡ	cut_u_stereo_44KHz.wav
1	41	4	4	2	I	2	0	1292	1	Ⴃ	cut_a_stereo_44KHz.wav
1	42	2	1	0	C	2	1	771	1	Ⴇ	cut_k_stereo_44KHz.wav
1	43	1	2	0	C	2	1	703	1	Ⴡ	cut_u_stereo_44KHz.wav
1	44	3	4	2	I	2	0	817	0	Ⴟ	cut_a_stereo_44KHz.wav
1	45	2	2	1	C	1	1	1098	1	Ⴇ	cut_u_stereo_44KHz.wav
1	46	3	3	2	I	2	0	1416	0	Ⴟ	cut_o_stereo_44KHz.wav
1	47	4	3	2	I	1	0	986	1	Ⴃ	cut_o_stereo_44KHz.wav
1	48	1	1	1	C	1	1	1149	1	Ⴡ	cut_k_stereo_44KHz.wav
1	49	4	3	2	I	1	0	916	0	Ⴃ	cut_o_stereo_44KHz.wav
1	50	2	1	0	C	2	1	1043	1	Ⴇ	cut_k_stereo_44KHz.wav
1	51	3	3	2	I	2	0	1137	0	Ⴟ	cut_o_stereo_44KHz.wav
1	52	1	1	1	C	1	1	906	1	Ⴡ	cut_k_stereo_44KHz.wav
1	53	4	4	2	I	2	0	1151	1	Ⴃ	cut_a_stereo_44KHz.wav
1	54	3	4	2	I	1	0	815	0	Ⴟ	cut_a_stereo_44KHz.wav
1	55	1	2	0	C	2	1	1129	1	Ⴡ	cut_u_stereo_44KHz.wav
1	56	2	2	1	C	1	1	726	1	Ⴇ	cut_u_stereo_44KHz.wav
1	57	1	2	0	C	2	1	898	1	Ⴡ	cut_u_stereo_44KHz.wav
1	58	4	3	2	I	2	0	1054	1	Ⴃ	cut_o_stereo_44KHz.wav
1	59	3	4	2	I	2	0	1007	0	Ⴟ	cut_a_stereo_44KHz.wav
1	60	2	2	1	C	1	1	847	1	Ⴇ	cut_u_stereo_44KHz.wav
1	61	4	4	2	I	2	0	757	1	Ⴃ	cut_a_stereo_44KHz.wav
1	62	2	1	0	C	2	1	844	1	Ⴇ	cut_k_stereo_44KHz.wav
1	63	1	1	1	C	1	1	835	1	Ⴡ	cut_k_stereo_44KHz.wav
1	64	3	3	2	I	2	0	1050	1	Ⴟ	cut_o_stereo_44KHz.wav
1	65	4	4	2	I	2	0	780	1	Ⴃ	cut_a_stereo_44KHz.wav
1	66	1	2	0	C	2	1	967	1	Ⴡ	cut_u_stereo_44KHz.wav
1	67	2	2	1	C	1	1	643	1	Ⴇ	cut_u_stereo_44KHz.wav
1	68	3	3	2	I	2	0	799	0	Ⴟ	cut_o_stereo_44KHz.wav
1	69	4	3	2	I	2	0	954	1	Ⴃ	cut_o_stereo_44KHz.wav
1	70	3	4	2	I	2	0	1096	0	Ⴟ	cut_a_stereo_44KHz.wav
1	71	2	1	0	C	2	1	722	1	Ⴇ	cut_k_stereo_44KHz.wav
1	72	1	1	1	C	1	1	1259	1	Ⴡ	cut_k_stereo_44KHz.wav
1	73	4	3	2	I	2	0	654	0	Ⴃ	cut_o_stereo_44KHz.wav
1	74	3	4	2	I	1	0	1166	1	Ⴟ	cut_a_stereo_44KHz.wav
1	75	2	1	0	C	2	1	571	1	Ⴇ	cut_k_stereo_44KHz.wav
1	76	1	1	1	C	1	1	763	1	Ⴡ	cut_k_stereo_44KHz.wav
1	77	2	2	1	C	1	1	762	1	Ⴇ	cut_u_stereo_44KHz.wav
1	78	1	2	0	C	2	1	784	1	Ⴡ	cut_u_stereo_44KHz.wav
1	79	3	3	2	I	2	0	797	0	Ⴟ	cut_o_stereo_44KHz.wav
1	80	4	4	2	I	2	0	1415	1	Ⴃ	cut_a_stereo_44KHz.wav
1	81	3	4	2	I	1	0	1074	1	Ⴟ	cut_a_stereo_44KHz.wav
1	82	1	2	0	C	2	1	805	1	Ⴡ	cut_u_stereo_44KHz.wav
1	83	4	4	2	I	2	0	1428	1	Ⴃ	cut_a_stereo_44KHz.wav
1	84	2	1	0	C	2	1	1027	1	Ⴇ	cut_k_stereo_44KHz.wav
1	85	1	1	1	C	1	1	1006	1	Ⴡ	cut_k_stereo_44KHz.wav
1	86	4	3	2	I	2	0	758	0	Ⴃ	cut_o_stereo_44KHz.wav
1	87	3	3	2	I	2	0	731	1	Ⴟ	cut_o_stereo_44KHz.wav
1	88	2	2	1	C	1	1	886	1	Ⴇ	cut_u_stereo_44KHz.wav
1	89	3	4	2	I	2	0	1465	0	Ⴟ	cut_a_stereo_44KHz.wav
1	90	4	3	2	I	1	0	1048	0	Ⴃ	cut_o_stereo_44KHz.wav
1	91	1	2	0	C	2	1	913	1	Ⴡ	cut_u_stereo_44KHz.wav
1	92	2	2	1	C	1	1	876	1	Ⴇ	cut_u_stereo_44KHz.wav
1	93	3	3	2	I	2	0	1154	0	Ⴟ	cut_o_stereo_44KHz.wav
1	94	2	1	0	C	2	1	725	1	Ⴇ	cut_k_stereo_44KHz.wav
1	95	4	4	2	I	2	0	905	0	Ⴃ	cut_a_stereo_44KHz.wav
1	96	1	1	1	C	1	1	1608	1	Ⴡ	cut_k_stereo_44KHz.wav
1	97	3	3	2	I	2	0	1035	1	Ⴟ	cut_o_stereo_44KHz.wav
1	98	2	2	1	C	1	1	1046	1	Ⴇ	cut_u_stereo_44KHz.wav
1	99	4	4	2	I	2	0	1610	0	Ⴃ	cut_a_stereo_44KHz.wav
1	100	1	1	1	C	1	1	843	1	Ⴡ	cut_k_stereo_44KHz.wav
1	101	3	4	2	I	2	0	1089	1	Ⴟ	cut_a_stereo_44KHz.wav
1	102	1	2	0	C	2	1	828	1	Ⴡ	cut_u_stereo_44KHz.wav
1	103	2	1	0	C	2	1	689	1	Ⴇ	cut_k_stereo_44KHz.wav
1	104	4	3	2	I	2	0	953	0	Ⴃ	cut_o_stereo_44KHz.wav
1	105	1	2	0	C	2	1	776	1	Ⴡ	cut_u_stereo_44KHz.wav
1	106	3	4	2	I	2	0	1267	0	Ⴟ	cut_a_stereo_44KHz.wav
1	107	2	1	0	C	2	1	752	1	Ⴇ	cut_k_stereo_44KHz.wav
1	108	4	3	2	I	1	0	925	0	Ⴃ	cut_o_stereo_44KHz.wav
1	109	2	2	1	C	1	1	805	1	Ⴇ	cut_u_stereo_44KHz.wav
1	110	4	4	2	I	2	0	1056	0	Ⴃ	cut_a_stereo_44KHz.wav
1	111	1	1	1	C	1	1	811	1	Ⴡ	cut_k_stereo_44KHz.wav
1	112	3	3	2	I	2	0	1429	1	Ⴟ	cut_o_stereo_44KHz.wav
1	113	2	2	1	C	1	1	856	1	Ⴇ	cut_u_stereo_44KHz.wav
1	114	4	4	2	I	2	0	917	0	Ⴃ	cut_a_stereo_44KHz.wav
1	115	1	1	1	C	1	1	744	1	Ⴡ	cut_k_stereo_44KHz.wav
1	116	3	3	2	I	1	0	843	0	Ⴟ	cut_o_stereo_44KHz.wav
1	117	4	3	2	I	1	0	718	1	Ⴃ	cut_o_stereo_44KHz.wav
1	118	2	1	0	C	2	1	869	1	Ⴇ	cut_k_stereo_44KHz.wav
1	119	3	4	2	I	2	0	876	0	Ⴟ	cut_a_stereo_44KHz.wav
1	120	1	2	0	C	2	1	1156	1	Ⴡ	cut_u_stereo_44KHz.wav
1	121	2	2	1	C	1	1	835	1	Ⴇ	cut_u_stereo_44KHz.wav
1	122	1	1	1	C	1	1	825	1	Ⴡ	cut_k_stereo_44KHz.wav
1	123	3	3	2	I	2	0	800	1	Ⴟ	cut_o_stereo_44KHz.wav
1	124	4	4	2	I	2	0	980	0	Ⴃ	cut_a_stereo_44KHz.wav
1	125	3	4	2	I	2	0	1058	0	Ⴟ	cut_a_stereo_44KHz.wav
1	126	2	1	0	C	2	1	668	1	Ⴇ	cut_k_stereo_44KHz.wav
1	127	4	3	2	I	2	0	1136	1	Ⴃ	cut_o_stereo_44KHz.wav
1	128	1	2	0	C	2	1	767	1	Ⴡ	cut_u_stereo_44KHz.wav
1	129	2	2	1	C	1	1	843	1	Ⴇ	cut_u_stereo_44KHz.wav
1	130	3	3	2	I	2	0	1131	0	Ⴟ	cut_o_stereo_44KHz.wav
1	131	4	3	2	I	1	0	777	1	Ⴃ	cut_o_stereo_44KHz.wav
1	132	1	1	1	C	1	1	1074	1	Ⴡ	cut_k_stereo_44KHz.wav
1	133	4	4	2	I	2	0	970	1	Ⴃ	cut_a_stereo_44KHz.wav
1	134	3	4	2	I	1	0	1006	1	Ⴟ	cut_a_stereo_44KHz.wav
1	135	1	2	0	C	2	1	908	1	Ⴡ	cut_u_stereo_44KHz.wav
1	136	2	1	0	C	2	1	838	1	Ⴇ	cut_k_stereo_44KHz.wav
1	137	4	3	2	I	2	0	844	0	Ⴃ	cut_o_stereo_44KHz.wav
1	138	3	3	2	I	2	0	855	0	Ⴟ	cut_o_stereo_44KHz.wav
1	139	1	1	1	C	1	1	890	1	Ⴡ	cut_k_stereo_44KHz.wav
1	140	2	1	0	C	2	1	680	1	Ⴇ	cut_k_stereo_44KHz.wav
1	141	3	4	2	I	2	0	900	1	Ⴟ	cut_a_stereo_44KHz.wav
1	142	4	4	2	I	2	0	556	0	Ⴃ	cut_a_stereo_44KHz.wav
1	143	2	2	1	C	1	1	744	1	Ⴇ	cut_u_stereo_44KHz.wav
1	144	1	2	0	C	2	1	748	1	Ⴡ	cut_u_stereo_44KHz.wav
1	145	4	4	2	I	2	0	1138	0	Ⴃ	cut_a_stereo_44KHz.wav
1	146	1	1	1	C	1	1	902	1	Ⴡ	cut_k_stereo_44KHz.wav
1	147	3	4	2	I	2	0	862	0	Ⴟ	cut_a_stereo_44KHz.wav
1	148	2	2	1	C	1	1	759	1	Ⴇ	cut_u_stereo_44KHz.wav
1	149	3	3	2	I	1	0	1037	1	Ⴟ	cut_o_stereo_44KHz.wav
1	150	2	1	0	C	2	1	583	1	Ⴇ	cut_k_stereo_44KHz.wav
1	151	4	3	2	I	2	0	744	0	Ⴃ	cut_o_stereo_44KHz.wav
1	152	1	2	0	C	2	1	722	1	Ⴡ	cut_u_stereo_44KHz.wav
1	153	3	4	2	I	2	0	867	0	Ⴟ	cut_a_stereo_44KHz.wav
1	154	4	4	2	I	2	0	588	0	Ⴃ	cut_a_stereo_44KHz.wav
1	155	2	2	1	C	2	0	626	0	Ⴇ	cut_u_stereo_44KHz.wav
1	156	1	2	0	C	2	1	763	1	Ⴡ	cut_u_stereo_44KHz.wav
1	157	4	3	2	I	2	0	794	0	Ⴃ	cut_o_stereo_44KHz.wav
1	158	1	1	1	C	1	1	875	1	Ⴡ	cut_k_stereo_44KHz.wav
1	159	3	3	2	I	1	0	1033	1	Ⴟ	cut_o_stereo_44KHz.wav
1	160	2	1	0	C	2	1	1414	1	Ⴇ	cut_k_stereo_44KHz.wav
1	161	4	3	2	I	1	0	1183	1	Ⴃ	cut_o_stereo_44KHz.wav
1	162	1	1	1	C	1	1	827	1	Ⴡ	cut_k_stereo_44KHz.wav
1	163	2	1	0	C	2	1	734	1	Ⴇ	cut_k_stereo_44KHz.wav
1	164	3	3	2	I	2	0	1059	1	Ⴟ	cut_o_stereo_44KHz.wav
1	165	4	4	2	I	2	0	918	0	Ⴃ	cut_a_stereo_44KHz.wav
1	166	2	2	1	C	1	1	1029	1	Ⴇ	cut_u_stereo_44KHz.wav
1	167	1	2	0	C	2	1	711	1	Ⴡ	cut_u_stereo_44KHz.wav
1	168	3	4	2	I	2	0	692	1	Ⴟ	cut_a_stereo_44KHz.wav
1	169	1	2	0	C	2	1	694	1	Ⴡ	cut_u_stereo_44KHz.wav
1	170	3	4	2	I	1	0	1193	1	Ⴟ	cut_a_stereo_44KHz.wav
1	171	2	2	1	C	1	1	1203	1	Ⴇ	cut_u_stereo_44KHz.wav
1	172	4	4	2	I	2	0	831	1	Ⴃ	cut_a_stereo_44KHz.wav
1	173	1	1	1	C	1	1	834	1	Ⴡ	cut_k_stereo_44KHz.wav
1	174	3	3	2	I	2	0	870	1	Ⴟ	cut_o_stereo_44KHz.wav
1	175	2	1	0	C	2	1	816	1	Ⴇ	cut_k_stereo_44KHz.wav
1	176	4	3	2	I	1	0	905	1	Ⴃ	cut_o_stereo_44KHz.wav
1	177	3	4	2	I	2	0	752	1	Ⴟ	cut_a_stereo_44KHz.wav
1	178	4	3	2	I	2	0	915	1	Ⴃ	cut_o_stereo_44KHz.wav
1	179	2	1	0	C	2	1	596	1	Ⴇ	cut_k_stereo_44KHz.wav
1	180	1	1	1	C	1	1	669	1	Ⴡ	cut_k_stereo_44KHz.wav
1	181	4	4	2	I	2	0	803	0	Ⴃ	cut_a_stereo_44KHz.wav
1	182	1	2	0	C	2	1	600	1	Ⴡ	cut_u_stereo_44KHz.wav
1	183	3	3	2	I	2	0	1093	0	Ⴟ	cut_o_stereo_44KHz.wav
1	184	2	2	1	C	2	0	692	0	Ⴇ	cut_u_stereo_44KHz.wav
1	185	4	4	2	I	2	0	1485	1	Ⴃ	cut_a_stereo_44KHz.wav
1	186	2	1	0	C	2	1	723	1	Ⴇ	cut_k_stereo_44KHz.wav
1	187	1	1	1	C	1	1	723	1	Ⴡ	cut_k_stereo_44KHz.wav
1	188	3	3	2	I	2	0	986	0	Ⴟ	cut_o_stereo_44KHz.wav
1	189	4	3	2	I	1	0	1145	0	Ⴃ	cut_o_stereo_44KHz.wav
1	190	2	2	1	C	1	1	742	1	Ⴇ	cut_u_stereo_44KHz.wav
1	191	3	4	2	I	2	0	741	0	Ⴟ	cut_a_stereo_44KHz.wav
1	192	1	2	0	C	2	1	1097	1	Ⴡ	cut_u_stereo_44KHz.wav
1	193	2	1	0	C	2	1	581	1	Ⴇ	cut_k_stereo_44KHz.wav
1	194	1	1	1	C	1	1	806	1	Ⴡ	cut_k_stereo_44KHz.wav
1	195	4	4	2	I	2	0	1031	0	Ⴃ	cut_a_stereo_44KHz.wav
1	196	3	4	2	I	2	0	1149	1	Ⴟ	cut_a_stereo_44KHz.wav
1	197	4	3	2	I	2	0	1550	0	Ⴃ	cut_o_stereo_44KHz.wav
1	198	2	2	1	C	1	1	799	1	Ⴇ	cut_u_stereo_44KHz.wav
1	199	3	3	2	I	2	0	899	0	Ⴟ	cut_o_stereo_44KHz.wav
1	200	1	2	0	C	2	1	870	1	Ⴡ	cut_u_stereo_44KHz.wav
2	1	2	1	0	C	0	0	0	0	Ⴕ	cut_ui_stereo_44KHz.wav
2	2	4	4	2	I	2	0	694	1	Ⴉ	cut_oei_stereo_44KHz.wav
2	3	3	4	2	I	1	0	825	1	Ⴌ	cut_oei_stereo_44KHz.wav
2	4	1	1	1	C	1	1	1348	1	Ⴐ	cut_ui_stereo_44KHz.wav
2	5	3	3	2	I	2	0	1520	0	Ⴌ	cut_f_stereo_44KHz.wav
2	6	1	2	0	C	2	1	1003	1	Ⴐ	cut_s_stereo_44KHz.wav
2	7	4	3	2	I	1	0	1551	0	Ⴉ	cut_f_stereo_44KHz.wav
2	8	2	2	1	C	1	1	1351	1	Ⴕ	cut_s_stereo_44KHz.wav
2	9	1	1	1	C	2	0	1622	0	Ⴐ	cut_ui_stereo_44KHz.wav
2	10	4	4	2	I	1	0	1512	0	Ⴉ	cut_oei_stereo_44KHz.wav
2	11	2	2	1	C	2	0	1071	0	Ⴕ	cut_s_stereo_44KHz.wav
2	12	3	3	2	I	2	0	328	0	Ⴌ	cut_f_stereo_44KHz.wav
2	13	1	2	0	C	2	1	711	1	Ⴐ	cut_s_stereo_44KHz.wav
2	14	2	1	0	C	2	1	662	1	Ⴕ	cut_ui_stereo_44KHz.wav
2	15	3	4	2	I	2	0	630	0	Ⴌ	cut_oei_stereo_44KHz.wav
2	16	4	3	2	I	2	0	777	1	Ⴉ	cut_f_stereo_44KHz.wav
2	17	3	3	2	I	1	0	875	1	Ⴌ	cut_f_stereo_44KHz.wav
2	18	1	1	1	C	2	0	1876	0	Ⴐ	cut_ui_stereo_44KHz.wav
2	19	4	4	2	I	2	0	784	0	Ⴉ	cut_oei_stereo_44KHz.wav
2	20	2	2	1	C	2	0	1177	0	Ⴕ	cut_s_stereo_44KHz.wav
2	21	4	3	2	I	2	0	798	1	Ⴉ	cut_f_stereo_44KHz.wav
2	22	1	2	0	C	2	1	1041	1	Ⴐ	cut_s_stereo_44KHz.wav
2	23	3	4	2	I	2	0	972	0	Ⴌ	cut_oei_stereo_44KHz.wav
2	24	2	1	0	C	2	1	889	1	Ⴕ	cut_ui_stereo_44KHz.wav
2	25	4	4	2	I	2	0	1367	0	Ⴉ	cut_oei_stereo_44KHz.wav
2	26	2	1	0	C	2	1	762	1	Ⴕ	cut_ui_stereo_44KHz.wav
2	27	1	2	0	C	2	1	939	1	Ⴐ	cut_s_stereo_44KHz.wav
2	28	3	4	2	I	2	0	1281	1	Ⴌ	cut_oei_stereo_44KHz.wav
2	29	4	3	2	I	2	0	675	0	Ⴉ	cut_f_stereo_44KHz.wav
2	30	3	3	2	I	1	0	1321	1	Ⴌ	cut_f_stereo_44KHz.wav
2	31	2	2	1	C	1	1	1048	1	Ⴕ	cut_s_stereo_44KHz.wav
2	32	1	1	1	C	1	1	1357	1	Ⴐ	cut_ui_stereo_44KHz.wav
2	33	4	4	2	I	1	0	1176	0	Ⴉ	cut_oei_stereo_44KHz.wav
2	34	3	4	2	I	2	0	1274	1	Ⴌ	cut_oei_stereo_44KHz.wav
2	35	2	2	1	C	1	1	1250	1	Ⴕ	cut_s_stereo_44KHz.wav
2	36	1	2	0	C	2	1	711	1	Ⴐ	cut_s_stereo_44KHz.wav
2	37	2	1	0	C	2	1	872	1	Ⴕ	cut_ui_stereo_44KHz.wav
2	38	3	3	2	I	1	0	1149	0	Ⴌ	cut_f_stereo_44KHz.wav
2	39	1	1	1	C	1	1	1711	1	Ⴐ	cut_ui_stereo_44KHz.wav
2	40	4	3	2	I	2	0	1553	1	Ⴉ	cut_f_stereo_44KHz.wav
2	41	2	2	1	C	1	1	855	1	Ⴕ	cut_s_stereo_44KHz.wav
2	42	1	2	0	C	2	1	1119	1	Ⴐ	cut_s_stereo_44KHz.wav
2	43	4	3	2	I	2	0	1403	1	Ⴉ	cut_f_stereo_44KHz.wav
2	44	3	3	2	I	1	0	847	1	Ⴌ	cut_f_stereo_44KHz.wav
2	45	4	4	2	I	2	0	1154	0	Ⴉ	cut_oei_stereo_44KHz.wav
2	46	3	4	2	I	2	0	1260	1	Ⴌ	cut_oei_stereo_44KHz.wav
2	47	1	1	1	C	1	1	1620	1	Ⴐ	cut_ui_stereo_44KHz.wav
2	48	2	1	0	C	2	1	1092	1	Ⴕ	cut_ui_stereo_44KHz.wav
2	49	3	3	2	I	1	0	1631	1	Ⴌ	cut_f_stereo_44KHz.wav
2	50	2	2	1	C	1	1	1082	1	Ⴕ	cut_s_stereo_44KHz.wav
2	51	1	2	0	C	2	1	1090	1	Ⴐ	cut_s_stereo_44KHz.wav
2	52	4	4	2	I	2	0	1199	0	Ⴉ	cut_oei_stereo_44KHz.wav
2	53	3	4	2	I	2	0	552	0	Ⴌ	cut_oei_stereo_44KHz.wav
2	54	1	1	1	C	1	1	931	1	Ⴐ	cut_ui_stereo_44KHz.wav
2	55	2	1	0	C	2	1	763	1	Ⴕ	cut_ui_stereo_44KHz.wav
2	56	4	3	2	I	2	0	1145	0	Ⴉ	cut_f_stereo_44KHz.wav
2	57	2	1	0	C	2	1	914	1	Ⴕ	cut_ui_stereo_44KHz.wav
2	58	1	2	0	C	2	1	1056	1	Ⴐ	cut_s_stereo_44KHz.wav
2	59	4	4	2	I	1	0	1030	1	Ⴉ	cut_oei_stereo_44KHz.wav
2	60	3	3	2	I	1	0	1334	0	Ⴌ	cut_f_stereo_44KHz.wav
2	61	1	1	1	C	1	1	1044	1	Ⴐ	cut_ui_stereo_44KHz.wav
2	62	3	4	2	I	2	0	1173	1	Ⴌ	cut_oei_stereo_44KHz.wav
2	63	2	2	1	C	1	1	990	1	Ⴕ	cut_s_stereo_44KHz.wav
2	64	4	3	2	I	2	0	994	0	Ⴉ	cut_f_stereo_44KHz.wav
2	65	1	2	0	C	2	1	1268	1	Ⴐ	cut_s_stereo_44KHz.wav
2	66	3	3	2	I	1	0	1092	0	Ⴌ	cut_f_stereo_44KHz.wav
2	67	2	1	0	C	2	1	1165	1	Ⴕ	cut_ui_stereo_44KHz.wav
2	68	4	3	2	I	2	0	1047	1	Ⴉ	cut_f_stereo_44KHz.wav
2	69	2	2	1	C	1	1	946	1	Ⴕ	cut_s_stereo_44KHz.wav
2	70	3	4	2	I	2	0	1029	0	Ⴌ	cut_oei_stereo_44KHz.wav
2	71	1	1	1	C	1	1	1067	1	Ⴐ	cut_ui_stereo_44KHz.wav
2	72	4	4	2	I	1	0	1141	1	Ⴉ	cut_oei_stereo_44KHz.wav
2	73	2	1	0	C	2	1	981	1	Ⴕ	cut_ui_stereo_44KHz.wav
2	74	4	4	2	I	1	0	1407	0	Ⴉ	cut_oei_stereo_44KHz.wav
2	75	1	2	0	C	2	1	1169	1	Ⴐ	cut_s_stereo_44KHz.wav
2	76	3	4	2	I	2	0	1323	1	Ⴌ	cut_oei_stereo_44KHz.wav
2	77	1	1	1	C	1	1	1130	1	Ⴐ	cut_ui_stereo_44KHz.wav
2	78	3	3	2	I	2	0	903	0	Ⴌ	cut_f_stereo_44KHz.wav
2	79	4	3	2	I	2	0	1115	0	Ⴉ	cut_f_stereo_44KHz.wav
2	80	2	2	1	C	1	1	1400	1	Ⴕ	cut_s_stereo_44KHz.wav
2	81	4	4	2	I	1	0	1125	0	Ⴉ	cut_oei_stereo_44KHz.wav
2	82	1	1	1	C	1	1	1112	1	Ⴐ	cut_ui_stereo_44KHz.wav
2	83	3	4	2	I	2	0	910	1	Ⴌ	cut_oei_stereo_44KHz.wav
2	84	2	1	0	C	2	1	1084	1	Ⴕ	cut_ui_stereo_44KHz.wav
2	85	3	3	2	I	1	0	1030	0	Ⴌ	cut_f_stereo_44KHz.wav
2	86	4	3	2	I	2	0	730	1	Ⴉ	cut_f_stereo_44KHz.wav
2	87	1	2	0	C	2	1	1013	1	Ⴐ	cut_s_stereo_44KHz.wav
2	88	2	2	1	C	1	1	757	1	Ⴕ	cut_s_stereo_44KHz.wav
2	89	1	2	0	C	2	1	916	1	Ⴐ	cut_s_stereo_44KHz.wav
2	90	4	3	2	I	2	0	1005	0	Ⴉ	cut_f_stereo_44KHz.wav
2	91	3	3	2	I	1	0	1303	0	Ⴌ	cut_f_stereo_44KHz.wav
2	92	2	2	1	C	1	1	851	1	Ⴕ	cut_s_stereo_44KHz.wav
2	93	4	4	2	I	1	0	907	1	Ⴉ	cut_oei_stereo_44KHz.wav
2	94	2	1	0	C	2	1	854	1	Ⴕ	cut_ui_stereo_44KHz.wav
2	95	3	4	2	I	2	0	891	1	Ⴌ	cut_oei_stereo_44KHz.wav
2	96	1	1	1	C	1	1	897	1	Ⴐ	cut_ui_stereo_44KHz.wav
2	97	4	4	2	I	1	0	1353	0	Ⴉ	cut_oei_stereo_44KHz.wav
2	98	1	1	1	C	1	1	897	1	Ⴐ	cut_ui_stereo_44KHz.wav
2	99	2	2	1	C	1	1	886	1	Ⴕ	cut_s_stereo_44KHz.wav
2	100	3	3	2	I	0	0	0	0	Ⴌ	cut_f_stereo_44KHz.wav
2	101	1	2	0	C	2	1	999	1	Ⴐ	cut_s_stereo_44KHz.wav
2	102	4	3	2	I	1	0	820	1	Ⴉ	cut_f_stereo_44KHz.wav
2	103	3	4	2	I	2	0	891	0	Ⴌ	cut_oei_stereo_44KHz.wav
2	104	2	1	0	C	2	1	812	1	Ⴕ	cut_ui_stereo_44KHz.wav
2	105	4	4	2	I	1	0	1019	1	Ⴉ	cut_oei_stereo_44KHz.wav
2	106	3	4	2	I	2	0	1127	0	Ⴌ	cut_oei_stereo_44KHz.wav
2	107	1	1	1	C	1	1	1029	1	Ⴐ	cut_ui_stereo_44KHz.wav
2	108	2	2	1	C	1	1	865	1	Ⴕ	cut_s_stereo_44KHz.wav
2	109	3	3	2	I	1	0	941	0	Ⴌ	cut_f_stereo_44KHz.wav
2	110	4	3	2	I	2	0	848	1	Ⴉ	cut_f_stereo_44KHz.wav
2	111	1	2	0	C	2	1	903	1	Ⴐ	cut_s_stereo_44KHz.wav
2	112	2	1	0	C	1	0	766	0	Ⴕ	cut_ui_stereo_44KHz.wav
2	113	3	3	2	I	1	0	1311	1	Ⴌ	cut_f_stereo_44KHz.wav
2	114	4	3	2	I	2	0	841	0	Ⴉ	cut_f_stereo_44KHz.wav
2	115	1	1	1	C	1	1	835	1	Ⴐ	cut_ui_stereo_44KHz.wav
2	116	2	2	1	C	1	1	1112	1	Ⴕ	cut_s_stereo_44KHz.wav
2	117	4	4	2	I	1	0	1171	1	Ⴉ	cut_oei_stereo_44KHz.wav
2	118	3	4	2	I	2	0	763	0	Ⴌ	cut_oei_stereo_44KHz.wav
2	119	2	1	0	C	2	1	867	1	Ⴕ	cut_ui_stereo_44KHz.wav
2	120	1	2	0	C	2	1	1132	1	Ⴐ	cut_s_stereo_44KHz.wav
2	121	2	2	1	C	1	1	1123	1	Ⴕ	cut_s_stereo_44KHz.wav
2	122	1	2	0	C	2	1	834	1	Ⴐ	cut_s_stereo_44KHz.wav
2	123	3	4	2	I	2	0	970	1	Ⴌ	cut_oei_stereo_44KHz.wav
2	124	4	4	2	I	1	0	950	0	Ⴉ	cut_oei_stereo_44KHz.wav
2	125	3	3	2	I	1	0	1105	1	Ⴌ	cut_f_stereo_44KHz.wav
2	126	1	1	1	C	1	1	1032	1	Ⴐ	cut_ui_stereo_44KHz.wav
2	127	4	3	2	I	2	0	747	0	Ⴉ	cut_f_stereo_44KHz.wav
2	128	2	1	0	C	1	0	789	0	Ⴕ	cut_ui_stereo_44KHz.wav
2	129	3	4	2	I	2	0	1493	0	Ⴌ	cut_oei_stereo_44KHz.wav
2	130	1	2	0	C	2	1	864	1	Ⴐ	cut_s_stereo_44KHz.wav
2	131	2	1	0	C	1	0	851	0	Ⴕ	cut_ui_stereo_44KHz.wav
2	132	4	4	2	I	1	0	1634	0	Ⴉ	cut_oei_stereo_44KHz.wav
2	133	2	2	1	C	1	1	974	1	Ⴕ	cut_s_stereo_44KHz.wav
2	134	4	3	2	I	2	0	827	0	Ⴉ	cut_f_stereo_44KHz.wav
2	135	1	1	1	C	1	1	1928	1	Ⴐ	cut_ui_stereo_44KHz.wav
2	136	3	3	2	I	1	0	1132	1	Ⴌ	cut_f_stereo_44KHz.wav
2	137	2	2	1	C	1	1	940	1	Ⴕ	cut_s_stereo_44KHz.wav
2	138	1	2	0	C	2	1	785	1	Ⴐ	cut_s_stereo_44KHz.wav
2	139	4	3	2	I	2	0	850	0	Ⴉ	cut_f_stereo_44KHz.wav
2	140	3	3	2	I	1	0	1049	1	Ⴌ	cut_f_stereo_44KHz.wav
2	141	4	4	2	I	1	0	1269	0	Ⴉ	cut_oei_stereo_44KHz.wav
2	142	2	1	0	C	2	1	1097	1	Ⴕ	cut_ui_stereo_44KHz.wav
2	143	3	4	2	I	2	0	902	1	Ⴌ	cut_oei_stereo_44KHz.wav
2	144	1	1	1	C	1	1	826	1	Ⴐ	cut_ui_stereo_44KHz.wav
2	145	3	4	2	I	2	0	801	0	Ⴌ	cut_oei_stereo_44KHz.wav
2	146	4	3	2	I	2	0	692	0	Ⴉ	cut_f_stereo_44KHz.wav
2	147	1	2	0	C	2	1	951	1	Ⴐ	cut_s_stereo_44KHz.wav
2	148	2	2	1	C	1	1	895	1	Ⴕ	cut_s_stereo_44KHz.wav
2	149	3	3	2	I	1	0	1033	0	Ⴌ	cut_f_stereo_44KHz.wav
2	150	1	1	1	C	1	1	925	1	Ⴐ	cut_ui_stereo_44KHz.wav
2	151	2	1	0	C	2	1	820	1	Ⴕ	cut_ui_stereo_44KHz.wav
2	152	4	4	2	I	1	0	1034	1	Ⴉ	cut_oei_stereo_44KHz.wav
2	153	1	2	0	C	2	1	799	1	Ⴐ	cut_s_stereo_44KHz.wav
2	154	3	4	2	I	2	0	711	1	Ⴌ	cut_oei_stereo_44KHz.wav
2	155	2	2	1	C	1	1	1047	1	Ⴕ	cut_s_stereo_44KHz.wav
2	156	4	3	2	I	2	0	718	1	Ⴉ	cut_f_stereo_44KHz.wav
2	157	1	1	1	C	1	1	1118	1	Ⴐ	cut_ui_stereo_44KHz.wav
2	158	2	1	0	C	2	1	1315	1	Ⴕ	cut_ui_stereo_44KHz.wav
2	159	4	4	2	I	1	0	1007	1	Ⴉ	cut_oei_stereo_44KHz.wav
2	160	3	3	2	I	1	0	1159	1	Ⴌ	cut_f_stereo_44KHz.wav
2	161	4	3	2	I	2	0	953	1	Ⴉ	cut_f_stereo_44KHz.wav
2	162	3	3	2	I	1	0	1236	0	Ⴌ	cut_f_stereo_44KHz.wav
2	163	2	2	1	C	1	1	1002	1	Ⴕ	cut_s_stereo_44KHz.wav
2	164	1	1	1	C	1	1	903	1	Ⴐ	cut_ui_stereo_44KHz.wav
2	165	4	4	2	I	1	0	794	0	Ⴉ	cut_oei_stereo_44KHz.wav
2	166	2	1	0	C	2	1	759	1	Ⴕ	cut_ui_stereo_44KHz.wav
2	167	3	4	2	I	2	0	985	0	Ⴌ	cut_oei_stereo_44KHz.wav
2	168	1	2	0	C	2	1	678	1	Ⴐ	cut_s_stereo_44KHz.wav
2	169	4	3	2	I	2	0	687	1	Ⴉ	cut_f_stereo_44KHz.wav
2	170	2	2	1	C	1	1	900	1	Ⴕ	cut_s_stereo_44KHz.wav
2	171	1	2	0	C	2	1	724	1	Ⴐ	cut_s_stereo_44KHz.wav
2	172	3	3	2	I	1	0	1019	1	Ⴌ	cut_f_stereo_44KHz.wav
2	173	4	4	2	I	1	0	956	1	Ⴉ	cut_oei_stereo_44KHz.wav
2	174	3	4	2	I	2	0	988	1	Ⴌ	cut_oei_stereo_44KHz.wav
2	175	2	1	0	C	2	1	822	1	Ⴕ	cut_ui_stereo_44KHz.wav
2	176	1	1	1	C	1	1	980	1	Ⴐ	cut_ui_stereo_44KHz.wav
2	177	4	3	2	I	2	0	800	1	Ⴉ	cut_f_stereo_44KHz.wav
2	178	1	2	0	C	2	1	766	1	Ⴐ	cut_s_stereo_44KHz.wav
2	179	2	2	1	C	1	1	850	1	Ⴕ	cut_s_stereo_44KHz.wav
2	180	3	4	2	I	2	0	744	0	Ⴌ	cut_oei_stereo_44KHz.wav
2	181	4	4	2	I	1	0	771	1	Ⴉ	cut_oei_stereo_44KHz.wav
2	182	1	1	1	C	1	1	915	1	Ⴐ	cut_ui_stereo_44KHz.wav
2	183	2	1	0	C	2	1	597	1	Ⴕ	cut_ui_stereo_44KHz.wav
2	184	3	3	2	I	1	0	901	0	Ⴌ	cut_f_stereo_44KHz.wav
2	185	1	2	0	C	2	1	691	1	Ⴐ	cut_s_stereo_44KHz.wav
2	186	3	4	2	I	2	0	1044	1	Ⴌ	cut_oei_stereo_44KHz.wav
2	187	2	2	1	C	1	1	1004	1	Ⴕ	cut_s_stereo_44KHz.wav
2	188	4	4	2	I	1	0	951	0	Ⴉ	cut_oei_stereo_44KHz.wav
2	189	2	1	0	C	2	1	919	1	Ⴕ	cut_ui_stereo_44KHz.wav
2	190	3	3	2	I	1	0	1039	0	Ⴌ	cut_f_stereo_44KHz.wav
2	191	1	1	1	C	1	1	1198	1	Ⴐ	cut_ui_stereo_44KHz.wav
2	192	4	3	2	I	2	0	848	1	Ⴉ	cut_f_stereo_44KHz.wav
2	193	1	1	1	C	1	1	825	1	Ⴐ	cut_ui_stereo_44KHz.wav
2	194	4	4	2	I	1	0	1231	1	Ⴉ	cut_oei_stereo_44KHz.wav
2	195	2	1	0	C	2	1	790	1	Ⴕ	cut_ui_stereo_44KHz.wav
2	196	3	3	2	I	1	0	1062	1	Ⴌ	cut_f_stereo_44KHz.wav
2	197	4	3	2	I	2	0	1280	1	Ⴉ	cut_f_stereo_44KHz.wav
2	198	2	2	1	C	1	1	972	1	Ⴕ	cut_s_stereo_44KHz.wav
2	199	1	2	0	C	2	1	1001	1	Ⴐ	cut_s_stereo_44KHz.wav
2	200	3	4	2	I	2	0	1114	0	Ⴌ	cut_oei_stereo_44KHz.wav
3	1	2	2	1	C	2	0	1058	0	Ⴂ	cut_h_stereo_44KHz.wav
3	2	1	1	1	C	2	0	1188	0	Ⴊ	cut_l_stereo_44KHz.wav
3	3	4	4	2	I	2	0	1226	0	Ⴁ	cut_g_stereo_44KHz.wav
3	4	3	3	2	I	2	0	958	1	Ⴜ	cut_w_stereo_44KHz.wav
3	5	2	1	0	C	2	1	949	1	Ⴂ	cut_l_stereo_44KHz.wav
3	6	4	3	2	I	1	0	1239	1	Ⴁ	cut_w_stereo_44KHz.wav
3	7	1	2	0	C	2	1	1060	1	Ⴊ	cut_h_stereo_44KHz.wav
3	8	3	4	2	I	1	0	1376	0	Ⴜ	cut_g_stereo_44KHz.wav
3	9	1	1	1	C	1	1	1308	1	Ⴊ	cut_l_stereo_44KHz.wav
3	10	2	1	0	C	2	1	828	1	Ⴂ	cut_l_stereo_44KHz.wav
3	11	4	3	2	I	1	0	1307	0	Ⴁ	cut_w_stereo_44KHz.wav
3	12	3	4	2	I	1	0	1344	1	Ⴜ	cut_g_stereo_44KHz.wav
3	13	2	2	1	C	1	1	1553	1	Ⴂ	cut_h_stereo_44KHz.wav
3	14	3	3	2	I	2	0	1348	0	Ⴜ	cut_w_stereo_44KHz.wav
3	15	1	2	0	C	2	1	999	1	Ⴊ	cut_h_stereo_44KHz.wav
3	16	4	4	2	I	2	0	1468	1	Ⴁ	cut_g_stereo_44KHz.wav
3	17	2	1	0	C	2	1	1130	1	Ⴂ	cut_l_stereo_44KHz.wav
3	18	4	4	2	I	2	0	1906	1	Ⴁ	cut_g_stereo_44KHz.wav
3	19	3	4	2	I	1	0	1292	1	Ⴜ	cut_g_stereo_44KHz.wav
3	20	1	1	1	C	2	0	1567	0	Ⴊ	cut_l_stereo_44KHz.wav
3	21	2	2	1	C	1	1	1070	1	Ⴂ	cut_h_stereo_44KHz.wav
3	22	1	2	0	C	2	1	1198	1	Ⴊ	cut_h_stereo_44KHz.wav
3	23	3	3	2	I	2	0	1295	1	Ⴜ	cut_w_stereo_44KHz.wav
3	24	4	3	2	I	1	0	1044	1	Ⴁ	cut_w_stereo_44KHz.wav
3	25	1	1	1	C	1	1	1187	1	Ⴊ	cut_l_stereo_44KHz.wav
3	26	4	3	2	I	1	0	1109	1	Ⴁ	cut_w_stereo_44KHz.wav
3	27	2	1	0	C	2	1	1473	1	Ⴂ	cut_l_stereo_44KHz.wav
3	28	3	4	2	I	0	0	0	0	Ⴜ	cut_g_stereo_44KHz.wav
3	29	2	2	1	C	1	1	948	1	Ⴂ	cut_h_stereo_44KHz.wav
3	30	4	4	2	I	2	0	840	1	Ⴁ	cut_g_stereo_44KHz.wav
3	31	1	2	0	C	2	1	1141	1	Ⴊ	cut_h_stereo_44KHz.wav
3	32	3	3	2	I	2	0	1043	0	Ⴜ	cut_w_stereo_44KHz.wav
3	33	1	1	1	C	1	1	835	1	Ⴊ	cut_l_stereo_44KHz.wav
3	34	3	3	2	I	2	0	827	0	Ⴜ	cut_w_stereo_44KHz.wav
3	35	2	2	1	C	1	1	1189	1	Ⴂ	cut_h_stereo_44KHz.wav
3	36	4	3	2	I	1	0	1361	0	Ⴁ	cut_w_stereo_44KHz.wav
3	37	2	1	0	C	2	1	732	1	Ⴂ	cut_l_stereo_44KHz.wav
3	38	1	2	0	C	2	1	1092	1	Ⴊ	cut_h_stereo_44KHz.wav
3	39	3	4	2	I	1	0	1032	1	Ⴜ	cut_g_stereo_44KHz.wav
3	40	4	4	2	I	2	0	1116	0	Ⴁ	cut_g_stereo_44KHz.wav
3	41	1	2	0	C	2	1	774	1	Ⴊ	cut_h_stereo_44KHz.wav
3	42	2	2	1	C	1	1	767	1	Ⴂ	cut_h_stereo_44KHz.wav
3	43	4	4	2	I	2	0	802	0	Ⴁ	cut_g_stereo_44KHz.wav
3	44	3	3	2	I	2	0	1290	1	Ⴜ	cut_w_stereo_44KHz.wav
3	45	4	3	2	I	1	0	867	1	Ⴁ	cut_w_stereo_44KHz.wav
3	46	3	4	2	I	1	0	1205	0	Ⴜ	cut_g_stereo_44KHz.wav
3	47	2	1	0	C	2	1	963	1	Ⴂ	cut_l_stereo_44KHz.wav
3	48	1	1	1	C	1	1	888	1	Ⴊ	cut_l_stereo_44KHz.wav
3	49	3	3	2	I	1	0	912	0	Ⴜ	cut_w_stereo_44KHz.wav
3	50	4	3	2	I	1	0	1079	1	Ⴁ	cut_w_stereo_44KHz.wav
3	51	2	1	0	C	2	1	600	1	Ⴂ	cut_l_stereo_44KHz.wav
3	52	1	1	1	C	1	1	703	1	Ⴊ	cut_l_stereo_44KHz.wav
3	53	2	2	1	C	1	1	841	1	Ⴂ	cut_h_stereo_44KHz.wav
3	54	4	4	2	I	2	0	1037	1	Ⴁ	cut_g_stereo_44KHz.wav
3	55	1	2	0	C	2	1	1446	1	Ⴊ	cut_h_stereo_44KHz.wav
3	56	3	4	2	I	1	0	1215	0	Ⴜ	cut_g_stereo_44KHz.wav
3	57	4	3	2	I	1	0	994	1	Ⴁ	cut_w_stereo_44KHz.wav
3	58	2	1	0	C	2	1	673	1	Ⴂ	cut_l_stereo_44KHz.wav
3	59	1	1	1	C	1	1	816	1	Ⴊ	cut_l_stereo_44KHz.wav
3	60	3	4	2	I	1	0	712	1	Ⴜ	cut_g_stereo_44KHz.wav
3	61	4	4	2	I	2	0	887	1	Ⴁ	cut_g_stereo_44KHz.wav
3	62	3	3	2	I	2	0	944	0	Ⴜ	cut_w_stereo_44KHz.wav
3	63	1	2	0	C	2	1	908	1	Ⴊ	cut_h_stereo_44KHz.wav
3	64	2	2	1	C	1	1	897	1	Ⴂ	cut_h_stereo_44KHz.wav
3	65	3	4	2	I	2	0	818	0	Ⴜ	cut_g_stereo_44KHz.wav
3	66	4	3	2	I	1	0	1513	1	Ⴁ	cut_w_stereo_44KHz.wav
3	67	1	2	0	C	2	1	859	1	Ⴊ	cut_h_stereo_44KHz.wav
3	68	2	1	0	C	2	1	821	1	Ⴂ	cut_l_stereo_44KHz.wav
3	69	1	1	1	C	1	1	1179	1	Ⴊ	cut_l_stereo_44KHz.wav
3	70	4	4	2	I	2	0	868	1	Ⴁ	cut_g_stereo_44KHz.wav
3	71	3	3	2	I	2	0	987	0	Ⴜ	cut_w_stereo_44KHz.wav
3	72	2	2	1	C	1	1	788	1	Ⴂ	cut_h_stereo_44KHz.wav
3	73	3	3	2	I	0	0	0	0	Ⴜ	cut_w_stereo_44KHz.wav
3	74	4	3	2	I	1	0	995	1	Ⴁ	cut_w_stereo_44KHz.wav
3	75	1	2	0	C	2	1	814	1	Ⴊ	cut_h_stereo_44KHz.wav
3	76	2	2	1	C	1	1	758	1	Ⴂ	cut_h_stereo_44KHz.wav
3	77	1	1	1	C	1	1	895	1	Ⴊ	cut_l_stereo_44KHz.wav
3	78	4	4	2	I	2	0	801	0	Ⴁ	cut_g_stereo_44KHz.wav
3	79	2	1	0	C	2	1	579	1	Ⴂ	cut_l_stereo_44KHz.wav
3	80	3	4	2	I	2	0	800	1	Ⴜ	cut_g_stereo_44KHz.wav
3	81	4	4	2	I	2	0	974	0	Ⴁ	cut_g_stereo_44KHz.wav
3	82	1	2	0	C	2	1	615	1	Ⴊ	cut_h_stereo_44KHz.wav
3	83	3	3	2	I	2	0	740	0	Ⴜ	cut_w_stereo_44KHz.wav
3	84	2	2	1	C	1	1	1045	1	Ⴂ	cut_h_stereo_44KHz.wav
3	85	3	4	2	I	2	0	790	0	Ⴜ	cut_g_stereo_44KHz.wav
3	86	4	3	2	I	2	0	673	0	Ⴁ	cut_w_stereo_44KHz.wav
3	87	2	1	0	C	2	1	563	1	Ⴂ	cut_l_stereo_44KHz.wav
3	88	1	1	1	C	1	1	947	1	Ⴊ	cut_l_stereo_44KHz.wav
3	89	4	3	2	I	1	0	1019	1	Ⴁ	cut_w_stereo_44KHz.wav
3	90	1	1	1	C	1	1	948	1	Ⴊ	cut_l_stereo_44KHz.wav
3	91	3	3	2	I	2	0	995	0	Ⴜ	cut_w_stereo_44KHz.wav
3	92	2	1	0	C	2	1	653	1	Ⴂ	cut_l_stereo_44KHz.wav
3	93	1	2	0	C	2	1	762	1	Ⴊ	cut_h_stereo_44KHz.wav
3	94	3	4	2	I	2	0	648	1	Ⴜ	cut_g_stereo_44KHz.wav
3	95	4	4	2	I	2	0	910	1	Ⴁ	cut_g_stereo_44KHz.wav
3	96	2	2	1	C	1	1	724	1	Ⴂ	cut_h_stereo_44KHz.wav
3	97	4	3	2	I	1	0	899	0	Ⴁ	cut_w_stereo_44KHz.wav
3	98	2	1	0	C	2	1	1141	1	Ⴂ	cut_l_stereo_44KHz.wav
3	99	3	3	2	I	2	0	784	0	Ⴜ	cut_w_stereo_44KHz.wav
3	100	1	1	1	C	1	1	983	1	Ⴊ	cut_l_stereo_44KHz.wav
3	101	2	2	1	C	1	1	832	1	Ⴂ	cut_h_stereo_44KHz.wav
3	102	4	4	2	I	2	0	702	0	Ⴁ	cut_g_stereo_44KHz.wav
3	103	1	2	0	C	2	1	901	1	Ⴊ	cut_h_stereo_44KHz.wav
3	104	3	4	2	I	2	0	796	0	Ⴜ	cut_g_stereo_44KHz.wav
3	105	4	4	2	I	2	0	600	1	Ⴁ	cut_g_stereo_44KHz.wav
3	106	3	3	2	I	1	0	850	0	Ⴜ	cut_w_stereo_44KHz.wav
3	107	2	2	1	C	1	1	806	1	Ⴂ	cut_h_stereo_44KHz.wav
3	108	1	1	1	C	1	1	828	1	Ⴊ	cut_l_stereo_44KHz.wav
3	109	2	1	0	C	2	1	576	1	Ⴂ	cut_l_stereo_44KHz.wav
3	110	4	3	2	I	1	0	1023	0	Ⴁ	cut_w_stereo_44KHz.wav
3	111	3	4	2	I	1	0	1306	1	Ⴜ	cut_g_stereo_44KHz.wav
3	112	1	2	0	C	2	1	814	1	Ⴊ	cut_h_stereo_44KHz.wav
3	113	4	3	2	I	1	0	1187	0	Ⴁ	cut_w_stereo_44KHz.wav
3	114	1	2	0	C	2	1	763	1	Ⴊ	cut_h_stereo_44KHz.wav
3	115	2	2	1	C	1	1	781	1	Ⴂ	cut_h_stereo_44KHz.wav
3	116	3	4	2	I	1	0	939	1	Ⴜ	cut_g_stereo_44KHz.wav
3	117	4	4	2	I	2	0	953	0	Ⴁ	cut_g_stereo_44KHz.wav
3	118	2	1	0	C	2	1	537	1	Ⴂ	cut_l_stereo_44KHz.wav
3	119	1	1	1	C	1	1	826	1	Ⴊ	cut_l_stereo_44KHz.wav
3	120	3	3	2	I	1	0	940	0	Ⴜ	cut_w_stereo_44KHz.wav
3	121	4	3	2	I	2	0	887	0	Ⴁ	cut_w_stereo_44KHz.wav
3	122	1	1	1	C	1	1	780	1	Ⴊ	cut_l_stereo_44KHz.wav
3	123	2	2	1	C	1	1	787	1	Ⴂ	cut_h_stereo_44KHz.wav
3	124	3	4	2	I	1	0	605	1	Ⴜ	cut_g_stereo_44KHz.wav
3	125	2	1	0	C	2	1	518	1	Ⴂ	cut_l_stereo_44KHz.wav
3	126	1	2	0	C	2	1	580	1	Ⴊ	cut_h_stereo_44KHz.wav
3	127	4	4	2	I	2	0	715	1	Ⴁ	cut_g_stereo_44KHz.wav
3	128	3	3	2	I	2	0	753	1	Ⴜ	cut_w_stereo_44KHz.wav
3	129	4	4	2	I	2	0	585	1	Ⴁ	cut_g_stereo_44KHz.wav
3	130	3	4	2	I	2	0	779	1	Ⴜ	cut_g_stereo_44KHz.wav
3	131	2	1	0	C	2	1	735	1	Ⴂ	cut_l_stereo_44KHz.wav
3	132	1	2	0	C	2	1	764	1	Ⴊ	cut_h_stereo_44KHz.wav
3	133	4	3	2	I	2	0	687	0	Ⴁ	cut_w_stereo_44KHz.wav
3	134	2	2	1	C	1	1	866	1	Ⴂ	cut_h_stereo_44KHz.wav
3	135	1	1	1	C	1	1	853	1	Ⴊ	cut_l_stereo_44KHz.wav
3	136	3	3	2	I	2	0	863	1	Ⴜ	cut_w_stereo_44KHz.wav
3	137	1	2	0	C	2	1	847	1	Ⴊ	cut_h_stereo_44KHz.wav
3	138	2	1	0	C	2	1	519	1	Ⴂ	cut_l_stereo_44KHz.wav
3	139	4	4	2	I	2	0	715	0	Ⴁ	cut_g_stereo_44KHz.wav
3	140	3	4	2	I	1	0	799	0	Ⴜ	cut_g_stereo_44KHz.wav
3	141	4	3	2	I	1	0	1007	1	Ⴁ	cut_w_stereo_44KHz.wav
3	142	3	3	2	I	1	0	613	1	Ⴜ	cut_w_stereo_44KHz.wav
3	143	1	1	1	C	1	1	1056	1	Ⴊ	cut_l_stereo_44KHz.wav
3	144	2	2	1	C	1	1	690	1	Ⴂ	cut_h_stereo_44KHz.wav
3	145	3	3	2	I	2	0	1076	0	Ⴜ	cut_w_stereo_44KHz.wav
3	146	1	1	1	C	1	1	890	1	Ⴊ	cut_l_stereo_44KHz.wav
3	147	2	1	0	C	2	1	558	1	Ⴂ	cut_l_stereo_44KHz.wav
3	148	4	3	2	I	2	0	822	0	Ⴁ	cut_w_stereo_44KHz.wav
3	149	2	2	1	C	1	1	1071	1	Ⴂ	cut_h_stereo_44KHz.wav
3	150	3	4	2	I	1	0	1043	1	Ⴜ	cut_g_stereo_44KHz.wav
3	151	4	4	2	I	1	0	692	0	Ⴁ	cut_g_stereo_44KHz.wav
3	152	1	2	0	C	2	1	668	1	Ⴊ	cut_h_stereo_44KHz.wav
3	153	3	4	2	I	1	0	902	0	Ⴜ	cut_g_stereo_44KHz.wav
3	154	2	1	0	C	2	1	556	1	Ⴂ	cut_l_stereo_44KHz.wav
3	155	1	2	0	C	2	1	813	1	Ⴊ	cut_h_stereo_44KHz.wav
3	156	4	3	2	I	1	0	902	0	Ⴁ	cut_w_stereo_44KHz.wav
3	157	1	1	1	C	1	1	783	1	Ⴊ	cut_l_stereo_44KHz.wav
3	158	2	2	1	C	2	0	601	0	Ⴂ	cut_h_stereo_44KHz.wav
3	159	3	3	2	I	1	0	1188	0	Ⴜ	cut_w_stereo_44KHz.wav
3	160	4	4	2	I	2	0	892	0	Ⴁ	cut_g_stereo_44KHz.wav
3	161	2	2	1	C	1	1	750	1	Ⴂ	cut_h_stereo_44KHz.wav
3	162	1	1	1	C	1	1	802	1	Ⴊ	cut_l_stereo_44KHz.wav
3	163	4	4	2	I	2	0	971	1	Ⴁ	cut_g_stereo_44KHz.wav
3	164	3	4	2	I	1	0	815	1	Ⴜ	cut_g_stereo_44KHz.wav
3	165	2	1	0	C	2	1	657	1	Ⴂ	cut_l_stereo_44KHz.wav
3	166	3	3	2	I	1	0	789	1	Ⴜ	cut_w_stereo_44KHz.wav
3	167	1	2	0	C	2	1	822	1	Ⴊ	cut_h_stereo_44KHz.wav
3	168	4	3	2	I	1	0	978	0	Ⴁ	cut_w_stereo_44KHz.wav
3	169	1	2	0	C	2	1	645	1	Ⴊ	cut_h_stereo_44KHz.wav
3	170	2	2	1	C	1	1	713	1	Ⴂ	cut_h_stereo_44KHz.wav
3	171	3	3	2	I	1	0	831	1	Ⴜ	cut_w_stereo_44KHz.wav
3	172	4	4	2	I	2	0	843	1	Ⴁ	cut_g_stereo_44KHz.wav
3	173	3	4	2	I	2	0	708	1	Ⴜ	cut_g_stereo_44KHz.wav
3	174	1	1	1	C	1	1	900	1	Ⴊ	cut_l_stereo_44KHz.wav
3	175	2	1	0	C	2	1	687	1	Ⴂ	cut_l_stereo_44KHz.wav
3	176	4	3	2	I	1	0	1096	0	Ⴁ	cut_w_stereo_44KHz.wav
3	177	2	1	0	C	2	1	734	1	Ⴂ	cut_l_stereo_44KHz.wav
3	178	3	3	2	I	2	0	756	0	Ⴜ	cut_w_stereo_44KHz.wav
3	179	4	4	2	I	2	0	706	0	Ⴁ	cut_g_stereo_44KHz.wav
3	180	1	2	0	C	2	1	751	1	Ⴊ	cut_h_stereo_44KHz.wav
3	181	2	2	1	C	1	1	942	1	Ⴂ	cut_h_stereo_44KHz.wav
3	182	3	4	2	I	2	0	769	1	Ⴜ	cut_g_stereo_44KHz.wav
3	183	1	1	1	C	1	1	754	1	Ⴊ	cut_l_stereo_44KHz.wav
3	184	4	3	2	I	1	0	1175	1	Ⴁ	cut_w_stereo_44KHz.wav
3	185	2	1	0	C	2	1	608	1	Ⴂ	cut_l_stereo_44KHz.wav
3	186	4	4	2	I	2	0	807	1	Ⴁ	cut_g_stereo_44KHz.wav
3	187	1	1	1	C	1	1	1437	1	Ⴊ	cut_l_stereo_44KHz.wav
3	188	3	3	2	I	1	0	848	0	Ⴜ	cut_w_stereo_44KHz.wav
3	189	2	2	1	C	1	1	668	1	Ⴂ	cut_h_stereo_44KHz.wav
3	190	3	4	2	I	1	0	711	1	Ⴜ	cut_g_stereo_44KHz.wav
3	191	4	3	2	I	1	0	959	0	Ⴁ	cut_w_stereo_44KHz.wav
3	192	1	2	0	C	2	1	999	1	Ⴊ	cut_h_stereo_44KHz.wav
3	193	3	4	2	I	2	0	975	0	Ⴜ	cut_g_stereo_44KHz.wav
3	194	2	2	1	C	1	1	748	1	Ⴂ	cut_h_stereo_44KHz.wav
3	195	1	1	1	C	1	1	1039	1	Ⴊ	cut_l_stereo_44KHz.wav
3	196	4	4	2	I	2	0	862	0	Ⴁ	cut_g_stereo_44KHz.wav
3	197	3	3	2	I	1	0	897	1	Ⴜ	cut_w_stereo_44KHz.wav
3	198	1	2	0	C	2	1	683	1	Ⴊ	cut_h_stereo_44KHz.wav
3	199	2	1	0	C	2	1	551	1	Ⴂ	cut_l_stereo_44KHz.wav
3	200	4	3	2	I	2	0	849	1	Ⴁ	cut_w_stereo_44KHz.wav
4	1	4	3	2	I	2	0	1033	0	Ⴖ	cut_r_stereo_44KHz.wav
4	2	1	1	1	C	2	0	1710	0	Ⴔ	cut_n_stereo_44KHz.wav
4	3	2	2	1	C	2	0	955	0	Ⴒ	cut_j_stereo_44KHz.wav
4	4	3	3	2	I	2	0	735	0	Ⴏ	cut_r_stereo_44KHz.wav
4	5	4	4	2	I	1	0	1661	0	Ⴖ	cut_ei_stereo_44KHz.wav
4	6	1	2	0	C	2	1	843	1	Ⴔ	cut_j_stereo_44KHz.wav
4	7	2	1	0	C	2	1	697	1	Ⴒ	cut_n_stereo_44KHz.wav
4	8	3	4	2	I	2	0	1124	1	Ⴏ	cut_ei_stereo_44KHz.wav
4	9	2	2	1	C	1	1	1941	1	Ⴒ	cut_j_stereo_44KHz.wav
4	10	4	3	2	I	2	0	1253	0	Ⴖ	cut_r_stereo_44KHz.wav
4	11	1	1	1	C	1	1	1221	1	Ⴔ	cut_n_stereo_44KHz.wav
4	12	3	4	2	I	2	0	888	0	Ⴏ	cut_ei_stereo_44KHz.wav
4	13	4	4	2	I	2	0	840	0	Ⴖ	cut_ei_stereo_44KHz.wav
4	14	2	1	0	C	2	1	1039	1	Ⴒ	cut_n_stereo_44KHz.wav
4	15	3	3	2	I	1	0	1108	0	Ⴏ	cut_r_stereo_44KHz.wav
4	16	1	2	0	C	2	1	743	1	Ⴔ	cut_j_stereo_44KHz.wav
4	17	4	4	2	I	1	0	987	0	Ⴖ	cut_ei_stereo_44KHz.wav
4	18	2	2	1	C	1	1	1248	1	Ⴒ	cut_j_stereo_44KHz.wav
4	19	3	4	2	I	2	0	582	0	Ⴏ	cut_ei_stereo_44KHz.wav
4	20	1	2	0	C	2	1	806	1	Ⴔ	cut_j_stereo_44KHz.wav
4	21	4	3	2	I	2	0	975	1	Ⴖ	cut_r_stereo_44KHz.wav
4	22	3	3	2	I	1	0	783	1	Ⴏ	cut_r_stereo_44KHz.wav
4	23	2	1	0	C	2	1	805	1	Ⴒ	cut_n_stereo_44KHz.wav
4	24	1	1	1	C	1	1	973	1	Ⴔ	cut_n_stereo_44KHz.wav
4	25	2	1	0	C	2	1	1862	1	Ⴒ	cut_n_stereo_44KHz.wav
4	26	3	3	2	I	1	0	1009	0	Ⴏ	cut_r_stereo_44KHz.wav
4	27	4	3	2	I	2	0	1028	0	Ⴖ	cut_r_stereo_44KHz.wav
4	28	1	1	1	C	1	1	1137	1	Ⴔ	cut_n_stereo_44KHz.wav
4	29	2	2	1	C	1	1	1520	1	Ⴒ	cut_j_stereo_44KHz.wav
4	30	3	4	2	I	2	0	641	1	Ⴏ	cut_ei_stereo_44KHz.wav
4	31	1	2	0	C	2	1	790	1	Ⴔ	cut_j_stereo_44KHz.wav
4	32	4	4	2	I	1	0	1900	1	Ⴖ	cut_ei_stereo_44KHz.wav
4	33	1	2	0	C	2	1	879	1	Ⴔ	cut_j_stereo_44KHz.wav
4	34	2	2	1	C	1	1	1122	1	Ⴒ	cut_j_stereo_44KHz.wav
4	35	4	3	2	I	2	0	1019	1	Ⴖ	cut_r_stereo_44KHz.wav
4	36	3	3	2	I	1	0	769	0	Ⴏ	cut_r_stereo_44KHz.wav
4	37	4	4	2	I	1	0	943	1	Ⴖ	cut_ei_stereo_44KHz.wav
4	38	1	1	1	C	1	1	812	1	Ⴔ	cut_n_stereo_44KHz.wav
4	39	3	4	2	I	2	0	673	0	Ⴏ	cut_ei_stereo_44KHz.wav
4	40	2	1	0	C	2	1	887	1	Ⴒ	cut_n_stereo_44KHz.wav
4	41	1	2	0	C	2	1	746	1	Ⴔ	cut_j_stereo_44KHz.wav
4	42	2	2	1	C	1	1	692	1	Ⴒ	cut_j_stereo_44KHz.wav
4	43	3	3	2	I	1	0	799	1	Ⴏ	cut_r_stereo_44KHz.wav
4	44	4	3	2	I	2	0	905	1	Ⴖ	cut_r_stereo_44KHz.wav
4	45	1	1	1	C	1	1	764	1	Ⴔ	cut_n_stereo_44KHz.wav
4	46	4	4	2	I	1	0	817	1	Ⴖ	cut_ei_stereo_44KHz.wav
4	47	2	1	0	C	2	1	853	1	Ⴒ	cut_n_stereo_44KHz.wav
4	48	3	4	2	I	2	0	593	1	Ⴏ	cut_ei_stereo_44KHz.wav
4	49	1	2	0	C	2	1	617	1	Ⴔ	cut_j_stereo_44KHz.wav
4	50	3	3	2	I	1	0	764	0	Ⴏ	cut_r_stereo_44KHz.wav
4	51	2	1	0	C	2	1	751	1	Ⴒ	cut_n_stereo_44KHz.wav
4	52	4	4	2	I	2	0	514	1	Ⴖ	cut_ei_stereo_44KHz.wav
4	53	2	2	1	C	1	1	829	1	Ⴒ	cut_j_stereo_44KHz.wav
4	54	3	4	2	I	2	0	715	0	Ⴏ	cut_ei_stereo_44KHz.wav
4	55	1	1	1	C	1	1	1346	1	Ⴔ	cut_n_stereo_44KHz.wav
4	56	4	3	2	I	2	0	872	0	Ⴖ	cut_r_stereo_44KHz.wav
4	57	1	1	1	C	1	1	1013	1	Ⴔ	cut_n_stereo_44KHz.wav
4	58	3	3	2	I	1	0	777	1	Ⴏ	cut_r_stereo_44KHz.wav
4	59	4	4	2	I	1	0	1086	0	Ⴖ	cut_ei_stereo_44KHz.wav
4	60	2	2	1	C	1	1	1559	1	Ⴒ	cut_j_stereo_44KHz.wav
4	61	3	4	2	I	2	0	706	0	Ⴏ	cut_ei_stereo_44KHz.wav
4	62	4	3	2	I	2	0	1191	1	Ⴖ	cut_r_stereo_44KHz.wav
4	63	1	2	0	C	2	1	763	1	Ⴔ	cut_j_stereo_44KHz.wav
4	64	2	1	0	C	2	1	897	1	Ⴒ	cut_n_stereo_44KHz.wav
4	65	4	3	2	I	2	0	1110	1	Ⴖ	cut_r_stereo_44KHz.wav
4	66	3	3	2	I	1	0	821	0	Ⴏ	cut_r_stereo_44KHz.wav
4	67	1	2	0	C	2	1	681	1	Ⴔ	cut_j_stereo_44KHz.wav
4	68	2	1	0	C	2	1	557	1	Ⴒ	cut_n_stereo_44KHz.wav
4	69	4	4	2	I	1	0	940	1	Ⴖ	cut_ei_stereo_44KHz.wav
4	70	2	2	1	C	1	1	1646	1	Ⴒ	cut_j_stereo_44KHz.wav
4	71	1	1	1	C	1	1	975	1	Ⴔ	cut_n_stereo_44KHz.wav
4	72	3	4	2	I	2	0	979	1	Ⴏ	cut_ei_stereo_44KHz.wav
4	73	4	4	2	I	1	0	873	0	Ⴖ	cut_ei_stereo_44KHz.wav
4	74	1	2	0	C	2	1	663	1	Ⴔ	cut_j_stereo_44KHz.wav
4	75	2	1	0	C	2	1	551	1	Ⴒ	cut_n_stereo_44KHz.wav
4	76	3	3	2	I	1	0	729	1	Ⴏ	cut_r_stereo_44KHz.wav
4	77	1	1	1	C	1	1	1135	1	Ⴔ	cut_n_stereo_44KHz.wav
4	78	3	4	2	I	2	0	728	0	Ⴏ	cut_ei_stereo_44KHz.wav
4	79	4	3	2	I	2	0	1411	0	Ⴖ	cut_r_stereo_44KHz.wav
4	80	2	2	1	C	1	1	818	1	Ⴒ	cut_j_stereo_44KHz.wav
4	81	3	3	2	I	1	0	838	1	Ⴏ	cut_r_stereo_44KHz.wav
4	82	2	2	1	C	1	1	710	1	Ⴒ	cut_j_stereo_44KHz.wav
4	83	4	4	2	I	1	0	757	1	Ⴖ	cut_ei_stereo_44KHz.wav
4	84	1	1	1	C	1	1	1408	1	Ⴔ	cut_n_stereo_44KHz.wav
4	85	2	1	0	C	2	1	732	1	Ⴒ	cut_n_stereo_44KHz.wav
4	86	1	2	0	C	2	1	967	1	Ⴔ	cut_j_stereo_44KHz.wav
4	87	3	4	2	I	2	0	911	0	Ⴏ	cut_ei_stereo_44KHz.wav
4	88	4	3	2	I	1	0	726	0	Ⴖ	cut_r_stereo_44KHz.wav
4	89	2	2	1	C	1	1	1037	1	Ⴒ	cut_j_stereo_44KHz.wav
4	90	4	3	2	I	2	0	1458	1	Ⴖ	cut_r_stereo_44KHz.wav
4	91	3	4	2	I	2	0	830	1	Ⴏ	cut_ei_stereo_44KHz.wav
4	92	1	2	0	C	2	1	800	1	Ⴔ	cut_j_stereo_44KHz.wav
4	93	2	1	0	C	2	1	731	1	Ⴒ	cut_n_stereo_44KHz.wav
4	94	3	3	2	I	1	0	814	1	Ⴏ	cut_r_stereo_44KHz.wav
4	95	4	4	2	I	1	0	1016	0	Ⴖ	cut_ei_stereo_44KHz.wav
4	96	1	1	1	C	1	1	1346	1	Ⴔ	cut_n_stereo_44KHz.wav
4	97	3	3	2	I	1	0	1104	1	Ⴏ	cut_r_stereo_44KHz.wav
4	98	1	1	1	C	1	1	773	1	Ⴔ	cut_n_stereo_44KHz.wav
4	99	2	1	0	C	2	1	1104	1	Ⴒ	cut_n_stereo_44KHz.wav
4	100	4	3	2	I	1	0	950	0	Ⴖ	cut_r_stereo_44KHz.wav
4	101	3	4	2	I	2	0	811	1	Ⴏ	cut_ei_stereo_44KHz.wav
4	102	1	2	0	C	2	1	772	1	Ⴔ	cut_j_stereo_44KHz.wav
4	103	2	2	1	C	1	1	936	1	Ⴒ	cut_j_stereo_44KHz.wav
4	104	4	4	2	I	1	0	896	1	Ⴖ	cut_ei_stereo_44KHz.wav
4	105	2	1	0	C	2	1	722	1	Ⴒ	cut_n_stereo_44KHz.wav
4	106	3	3	2	I	1	0	861	0	Ⴏ	cut_r_stereo_44KHz.wav
4	107	1	1	1	C	1	1	933	1	Ⴔ	cut_n_stereo_44KHz.wav
4	108	4	4	2	I	1	0	661	1	Ⴖ	cut_ei_stereo_44KHz.wav
4	109	2	2	1	C	1	1	831	1	Ⴒ	cut_j_stereo_44KHz.wav
4	110	3	4	2	I	2	0	652	1	Ⴏ	cut_ei_stereo_44KHz.wav
4	111	4	3	2	I	2	0	1088	1	Ⴖ	cut_r_stereo_44KHz.wav
4	112	1	2	0	C	2	1	675	1	Ⴔ	cut_j_stereo_44KHz.wav
4	113	2	1	0	C	2	1	581	1	Ⴒ	cut_n_stereo_44KHz.wav
4	114	1	1	1	C	1	1	775	1	Ⴔ	cut_n_stereo_44KHz.wav
4	115	3	4	2	I	2	0	582	1	Ⴏ	cut_ei_stereo_44KHz.wav
4	116	4	3	2	I	1	0	811	0	Ⴖ	cut_r_stereo_44KHz.wav
4	117	3	3	2	I	1	0	989	1	Ⴏ	cut_r_stereo_44KHz.wav
4	118	2	2	1	C	1	1	899	1	Ⴒ	cut_j_stereo_44KHz.wav
4	119	1	2	0	C	2	1	597	1	Ⴔ	cut_j_stereo_44KHz.wav
4	120	4	4	2	I	1	0	1113	1	Ⴖ	cut_ei_stereo_44KHz.wav
4	121	2	1	0	C	2	1	956	1	Ⴒ	cut_n_stereo_44KHz.wav
4	122	4	4	2	I	1	0	667	0	Ⴖ	cut_ei_stereo_44KHz.wav
4	123	3	3	2	I	1	0	910	0	Ⴏ	cut_r_stereo_44KHz.wav
4	124	1	2	0	C	2	1	670	1	Ⴔ	cut_j_stereo_44KHz.wav
4	125	3	4	2	I	2	0	494	1	Ⴏ	cut_ei_stereo_44KHz.wav
4	126	1	1	1	C	1	1	741	1	Ⴔ	cut_n_stereo_44KHz.wav
4	127	2	2	1	C	1	1	1088	1	Ⴒ	cut_j_stereo_44KHz.wav
4	128	4	3	2	I	2	0	773	0	Ⴖ	cut_r_stereo_44KHz.wav
4	129	2	1	0	C	2	1	835	1	Ⴒ	cut_n_stereo_44KHz.wav
4	130	1	1	1	C	1	1	788	1	Ⴔ	cut_n_stereo_44KHz.wav
4	131	3	3	2	I	1	0	770	1	Ⴏ	cut_r_stereo_44KHz.wav
4	132	4	3	2	I	2	0	842	1	Ⴖ	cut_r_stereo_44KHz.wav
4	133	1	2	0	C	2	1	679	1	Ⴔ	cut_j_stereo_44KHz.wav
4	134	2	2	1	C	1	1	787	1	Ⴒ	cut_j_stereo_44KHz.wav
4	135	3	4	2	I	2	0	658	0	Ⴏ	cut_ei_stereo_44KHz.wav
4	136	4	4	2	I	1	0	750	0	Ⴖ	cut_ei_stereo_44KHz.wav
4	137	1	2	0	C	2	1	679	1	Ⴔ	cut_j_stereo_44KHz.wav
4	138	3	3	2	I	1	0	810	0	Ⴏ	cut_r_stereo_44KHz.wav
4	139	2	1	0	C	2	1	658	1	Ⴒ	cut_n_stereo_44KHz.wav
4	140	4	4	2	I	1	0	837	0	Ⴖ	cut_ei_stereo_44KHz.wav
4	141	3	4	2	I	2	0	665	0	Ⴏ	cut_ei_stereo_44KHz.wav
4	142	4	3	2	I	2	0	1294	0	Ⴖ	cut_r_stereo_44KHz.wav
4	143	2	2	1	C	1	1	829	1	Ⴒ	cut_j_stereo_44KHz.wav
4	144	1	1	1	C	1	1	804	1	Ⴔ	cut_n_stereo_44KHz.wav
4	145	4	3	2	I	2	0	838	0	Ⴖ	cut_r_stereo_44KHz.wav
4	146	1	2	0	C	2	1	766	1	Ⴔ	cut_j_stereo_44KHz.wav
4	147	3	4	2	I	2	0	630	0	Ⴏ	cut_ei_stereo_44KHz.wav
4	148	2	1	0	C	2	1	667	1	Ⴒ	cut_n_stereo_44KHz.wav
4	149	1	1	1	C	1	1	661	1	Ⴔ	cut_n_stereo_44KHz.wav
4	150	3	3	2	I	1	0	708	0	Ⴏ	cut_r_stereo_44KHz.wav
4	151	4	4	2	I	1	0	659	0	Ⴖ	cut_ei_stereo_44KHz.wav
4	152	2	2	1	C	1	1	1482	1	Ⴒ	cut_j_stereo_44KHz.wav
4	153	4	3	2	I	2	0	870	1	Ⴖ	cut_r_stereo_44KHz.wav
4	154	1	1	1	C	1	1	889	1	Ⴔ	cut_n_stereo_44KHz.wav
4	155	2	1	0	C	2	1	1049	1	Ⴒ	cut_n_stereo_44KHz.wav
4	156	3	3	2	I	1	0	880	0	Ⴏ	cut_r_stereo_44KHz.wav
4	157	1	2	0	C	2	1	1095	1	Ⴔ	cut_j_stereo_44KHz.wav
4	158	4	4	2	I	1	0	732	0	Ⴖ	cut_ei_stereo_44KHz.wav
4	159	3	4	2	I	2	0	668	1	Ⴏ	cut_ei_stereo_44KHz.wav
4	160	2	2	1	C	1	1	888	1	Ⴒ	cut_j_stereo_44KHz.wav
4	161	4	4	2	I	1	0	917	1	Ⴖ	cut_ei_stereo_44KHz.wav
4	162	3	4	2	I	2	0	648	0	Ⴏ	cut_ei_stereo_44KHz.wav
4	163	2	2	1	C	1	1	1120	1	Ⴒ	cut_j_stereo_44KHz.wav
4	164	1	1	1	C	1	1	1053	1	Ⴔ	cut_n_stereo_44KHz.wav
4	165	3	3	2	I	1	0	601	0	Ⴏ	cut_r_stereo_44KHz.wav
4	166	4	3	2	I	1	0	580	1	Ⴖ	cut_r_stereo_44KHz.wav
4	167	1	2	0	C	2	1	816	1	Ⴔ	cut_j_stereo_44KHz.wav
4	168	2	1	0	C	2	1	785	1	Ⴒ	cut_n_stereo_44KHz.wav
4	169	4	4	2	I	1	0	940	1	Ⴖ	cut_ei_stereo_44KHz.wav
4	170	2	2	1	C	1	1	1070	1	Ⴒ	cut_j_stereo_44KHz.wav
4	171	1	2	0	C	2	1	688	1	Ⴔ	cut_j_stereo_44KHz.wav
4	172	3	3	2	I	1	0	776	1	Ⴏ	cut_r_stereo_44KHz.wav
4	173	4	3	2	I	1	0	712	1	Ⴖ	cut_r_stereo_44KHz.wav
4	174	3	4	2	I	1	0	1055	0	Ⴏ	cut_ei_stereo_44KHz.wav
4	175	2	1	0	C	2	1	736	1	Ⴒ	cut_n_stereo_44KHz.wav
4	176	1	1	1	C	1	1	784	1	Ⴔ	cut_n_stereo_44KHz.wav
4	177	2	1	0	C	2	1	739	1	Ⴒ	cut_n_stereo_44KHz.wav
4	178	4	4	2	I	1	0	945	0	Ⴖ	cut_ei_stereo_44KHz.wav
4	179	1	1	1	C	1	1	790	1	Ⴔ	cut_n_stereo_44KHz.wav
4	180	3	4	2	I	2	0	678	1	Ⴏ	cut_ei_stereo_44KHz.wav
4	181	1	2	0	C	2	1	799	1	Ⴔ	cut_j_stereo_44KHz.wav
4	182	4	3	2	I	2	0	932	0	Ⴖ	cut_r_stereo_44KHz.wav
4	183	3	3	2	I	1	0	798	1	Ⴏ	cut_r_stereo_44KHz.wav
4	184	2	2	1	C	1	1	787	1	Ⴒ	cut_j_stereo_44KHz.wav
4	185	1	1	1	C	1	1	718	1	Ⴔ	cut_n_stereo_44KHz.wav
4	186	3	4	2	I	2	0	603	1	Ⴏ	cut_ei_stereo_44KHz.wav
4	187	4	3	2	I	2	0	799	1	Ⴖ	cut_r_stereo_44KHz.wav
4	188	2	1	0	C	2	1	757	1	Ⴒ	cut_n_stereo_44KHz.wav
4	189	4	4	2	I	1	0	731	1	Ⴖ	cut_ei_stereo_44KHz.wav
4	190	3	3	2	I	1	0	838	1	Ⴏ	cut_r_stereo_44KHz.wav
4	191	2	2	1	C	1	1	712	1	Ⴒ	cut_j_stereo_44KHz.wav
4	192	1	2	0	C	2	1	762	1	Ⴔ	cut_j_stereo_44KHz.wav
4	193	4	3	2	I	1	0	650	0	Ⴖ	cut_r_stereo_44KHz.wav
4	194	1	1	1	C	1	1	735	1	Ⴔ	cut_n_stereo_44KHz.wav
4	195	3	4	2	I	2	0	608	0	Ⴏ	cut_ei_stereo_44KHz.wav
4	196	2	2	1	C	1	1	946	1	Ⴒ	cut_j_stereo_44KHz.wav
4	197	3	3	2	I	1	0	864	1	Ⴏ	cut_r_stereo_44KHz.wav
4	198	1	2	0	C	2	1	672	1	Ⴔ	cut_j_stereo_44KHz.wav
4	199	4	4	2	I	1	0	793	1	Ⴖ	cut_ei_stereo_44KHz.wav
4	200	2	1	0	C	2	1	955	1	Ⴒ	cut_n_stereo_44KHz.wav
