block	trial	Vstim	Astim	match	C/I	resp	result	RT	fb	V-file	A-file
RL

0	1	1	2	0	C	0	0	0	0	poli_8sides 24_whiteLine3.jpg	Practice1_b27_cut1_stereo_44KHz.wav
0	2	2	3	1	C	2	0	709	0	poli_8sides 21_whiteLine3.jpg	Practice3_b26_cut1_stereo_44KHz.wav
0	3	1	1	1	C	2	0	1293	0	poli_8sides 24_whiteLine3.jpg	Practice4_b26_stereo_44KHz.wav
0	4	2	4	0	C	2	1	981	1	poli_8sides 21_whiteLine3.jpg	Practice2_b27_cut2_stereo_44KHz.wav
0	5	2	4	0	C	2	1	667	1	poli_8sides 21_whiteLine3.jpg	Practice2_b27_cut2_stereo_44KHz.wav
0	6	1	1	1	C	1	1	744	1	poli_8sides 24_whiteLine3.jpg	Practice4_b26_stereo_44KHz.wav
0	7	1	2	0	C	2	1	1016	1	poli_8sides 24_whiteLine3.jpg	Practice1_b27_cut1_stereo_44KHz.wav
0	8	2	3	1	C	2	0	906	0	poli_8sides 21_whiteLine3.jpg	Practice3_b26_cut1_stereo_44KHz.wav
0	9	1	2	0	C	2	1	880	1	poli_8sides 24_whiteLine3.jpg	Practice1_b27_cut1_stereo_44KHz.wav
0	10	1	1	1	C	1	1	864	1	poli_8sides 24_whiteLine3.jpg	Practice4_b26_stereo_44KHz.wav
0	11	2	4	0	C	2	1	768	1	poli_8sides 21_whiteLine3.jpg	Practice2_b27_cut2_stereo_44KHz.wav
0	12	2	3	1	C	1	1	755	1	poli_8sides 21_whiteLine3.jpg	Practice3_b26_cut1_stereo_44KHz.wav
0	13	2	3	1	C	1	1	1027	1	poli_8sides 21_whiteLine3.jpg	Practice3_b26_cut1_stereo_44KHz.wav
0	14	1	1	1	C	2	0	606	0	poli_8sides 24_whiteLine3.jpg	Practice4_b26_stereo_44KHz.wav
0	15	2	4	0	C	2	1	1003	1	poli_8sides 21_whiteLine3.jpg	Practice2_b27_cut2_stereo_44KHz.wav
0	16	1	2	0	C	2	1	1165	1	poli_8sides 24_whiteLine3.jpg	Practice1_b27_cut1_stereo_44KHz.wav
0	17	1	2	0	C	2	1	612	1	poli_8sides 24_whiteLine3.jpg	Practice1_b27_cut1_stereo_44KHz.wav
0	18	2	4	0	C	1	0	669	0	poli_8sides 21_whiteLine3.jpg	Practice2_b27_cut2_stereo_44KHz.wav
0	19	1	1	1	C	2	0	1002	0	poli_8sides 24_whiteLine3.jpg	Practice4_b26_stereo_44KHz.wav
0	20	2	3	1	C	1	1	919	1	poli_8sides 21_whiteLine3.jpg	Practice3_b26_cut1_stereo_44KHz.wav
0	21	2	4	0	C	2	1	1546	1	poli_8sides 21_whiteLine3.jpg	Practice2_b27_cut2_stereo_44KHz.wav
0	22	1	1	1	C	1	1	803	1	poli_8sides 24_whiteLine3.jpg	Practice4_b26_stereo_44KHz.wav
0	23	1	2	0	C	0	0	0	0	poli_8sides 24_whiteLine3.jpg	Practice1_b27_cut1_stereo_44KHz.wav
0	24	2	3	1	C	1	1	967	1	poli_8sides 21_whiteLine3.jpg	Practice3_b26_cut1_stereo_44KHz.wav
0	25	1	1	1	C	2	0	696	0	poli_8sides 24_whiteLine3.jpg	Practice4_b26_stereo_44KHz.wav
0	26	1	2	0	C	2	1	690	1	poli_8sides 24_whiteLine3.jpg	Practice1_b27_cut1_stereo_44KHz.wav
0	27	2	4	0	C	2	1	859	1	poli_8sides 21_whiteLine3.jpg	Practice2_b27_cut2_stereo_44KHz.wav
0	28	2	3	1	C	1	1	777	1	poli_8sides 21_whiteLine3.jpg	Practice3_b26_cut1_stereo_44KHz.wav
0	29	2	3	1	C	1	1	732	1	poli_8sides 21_whiteLine3.jpg	Practice3_b26_cut1_stereo_44KHz.wav
0	30	2	4	0	C	2	1	617	1	poli_8sides 21_whiteLine3.jpg	Practice2_b27_cut2_stereo_44KHz.wav
avg_resp = 876
1	1	2	2	1	C	2	0	1704	0	poli_8sides 10_whiteLine3.jpg	Medium_e21_stereo_44KHz.wav
1	2	4	4	2	I	1	0	1250	0	poli_8sides 2_whiteLine3.jpg	MediumLong_e17_cut2_stereo_44KHz.wav
1	3	3	3	2	I	2	0	1049	1	poli_8sides 18_whiteLine3.jpg	MediumLong_e19_stereo_44KHz.wav
1	4	1	1	1	C	2	0	1195	0	poli_8sides 13_whiteLine3.jpg	MediumLong_b10_cut2_L_stereo_44KHz.wav
1	5	2	1	0	C	2	1	1093	1	poli_8sides 10_whiteLine3.jpg	MediumLong_b10_cut2_L_stereo_44KHz.wav
1	6	3	4	2	I	1	0	1017	0	poli_8sides 18_whiteLine3.jpg	MediumLong_e17_cut2_stereo_44KHz.wav
1	7	1	2	0	C	2	1	774	1	poli_8sides 13_whiteLine3.jpg	Medium_e21_stereo_44KHz.wav
1	8	4	3	2	I	1	0	1114	0	poli_8sides 2_whiteLine3.jpg	MediumLong_e19_stereo_44KHz.wav
1	9	3	3	2	I	2	0	1203	0	poli_8sides 18_whiteLine3.jpg	MediumLong_e19_stereo_44KHz.wav
1	10	1	2	0	C	2	1	1330	1	poli_8sides 13_whiteLine3.jpg	Medium_e21_stereo_44KHz.wav
1	11	2	1	0	C	2	1	1367	1	poli_8sides 10_whiteLine3.jpg	MediumLong_b10_cut2_L_stereo_44KHz.wav
1	12	4	4	2	I	2	0	1694	0	poli_8sides 2_whiteLine3.jpg	MediumLong_e17_cut2_stereo_44KHz.wav
1	13	1	1	1	C	1	1	1180	1	poli_8sides 13_whiteLine3.jpg	MediumLong_b10_cut2_L_stereo_44KHz.wav
1	14	4	3	2	I	1	0	1470	0	poli_8sides 2_whiteLine3.jpg	MediumLong_e19_stereo_44KHz.wav
1	15	3	4	2	I	2	0	1045	0	poli_8sides 18_whiteLine3.jpg	MediumLong_e17_cut2_stereo_44KHz.wav
1	16	2	2	1	C	1	1	1064	1	poli_8sides 10_whiteLine3.jpg	Medium_e21_stereo_44KHz.wav
1	17	4	3	2	I	2	0	1074	1	poli_8sides 2_whiteLine3.jpg	MediumLong_e19_stereo_44KHz.wav
1	18	1	1	1	C	1	1	957	1	poli_8sides 13_whiteLine3.jpg	MediumLong_b10_cut2_L_stereo_44KHz.wav
1	19	3	4	2	I	2	0	844	0	poli_8sides 18_whiteLine3.jpg	MediumLong_e17_cut2_stereo_44KHz.wav
1	20	2	2	1	C	1	1	1028	1	poli_8sides 10_whiteLine3.jpg	Medium_e21_stereo_44KHz.wav
1	21	3	3	2	I	2	0	965	1	poli_8sides 18_whiteLine3.jpg	MediumLong_e19_stereo_44KHz.wav
1	22	2	1	0	C	2	1	913	1	poli_8sides 10_whiteLine3.jpg	MediumLong_b10_cut2_L_stereo_44KHz.wav
1	23	1	2	0	C	2	1	1108	1	poli_8sides 13_whiteLine3.jpg	Medium_e21_stereo_44KHz.wav
1	24	4	4	2	I	2	0	784	1	poli_8sides 2_whiteLine3.jpg	MediumLong_e17_cut2_stereo_44KHz.wav
1	25	3	4	2	I	1	0	974	1	poli_8sides 18_whiteLine3.jpg	MediumLong_e17_cut2_stereo_44KHz.wav
1	26	1	2	0	C	2	1	1311	1	poli_8sides 13_whiteLine3.jpg	Medium_e21_stereo_44KHz.wav
1	27	4	3	2	I	2	0	1057	0	poli_8sides 2_whiteLine3.jpg	MediumLong_e19_stereo_44KHz.wav
1	28	2	1	0	C	2	1	985	1	poli_8sides 10_whiteLine3.jpg	MediumLong_b10_cut2_L_stereo_44KHz.wav
1	29	1	1	1	C	1	1	717	1	poli_8sides 13_whiteLine3.jpg	MediumLong_b10_cut2_L_stereo_44KHz.wav
1	30	3	3	2	I	2	0	914	0	poli_8sides 18_whiteLine3.jpg	MediumLong_e19_stereo_44KHz.wav
1	31	4	4	2	I	2	0	1374	0	poli_8sides 2_whiteLine3.jpg	MediumLong_e17_cut2_stereo_44KHz.wav
1	32	2	2	1	C	1	1	1080	1	poli_8sides 10_whiteLine3.jpg	Medium_e21_stereo_44KHz.wav
1	33	3	4	2	I	2	0	1267	0	poli_8sides 18_whiteLine3.jpg	MediumLong_e17_cut2_stereo_44KHz.wav
1	34	4	4	2	I	2	0	995	1	poli_8sides 2_whiteLine3.jpg	MediumLong_e17_cut2_stereo_44KHz.wav
1	35	1	1	1	C	1	1	1105	1	poli_8sides 13_whiteLine3.jpg	MediumLong_b10_cut2_L_stereo_44KHz.wav
1	36	2	2	1	C	1	1	920	1	poli_8sides 10_whiteLine3.jpg	Medium_e21_stereo_44KHz.wav
1	37	1	2	0	C	2	1	652	1	poli_8sides 13_whiteLine3.jpg	Medium_e21_stereo_44KHz.wav
1	38	4	3	2	I	1	0	1509	0	poli_8sides 2_whiteLine3.jpg	MediumLong_e19_stereo_44KHz.wav
1	39	3	3	2	I	1	0	1199	0	poli_8sides 18_whiteLine3.jpg	MediumLong_e19_stereo_44KHz.wav
1	40	2	1	0	C	2	1	941	1	poli_8sides 10_whiteLine3.jpg	MediumLong_b10_cut2_L_stereo_44KHz.wav
1	41	4	3	2	I	2	0	968	1	poli_8sides 2_whiteLine3.jpg	MediumLong_e19_stereo_44KHz.wav
1	42	3	3	2	I	1	0	1362	0	poli_8sides 18_whiteLine3.jpg	MediumLong_e19_stereo_44KHz.wav
1	43	2	2	1	C	2	0	1104	0	poli_8sides 10_whiteLine3.jpg	Medium_e21_stereo_44KHz.wav
1	44	1	1	1	C	1	1	861	1	poli_8sides 13_whiteLine3.jpg	MediumLong_b10_cut2_L_stereo_44KHz.wav
1	45	2	1	0	C	2	1	697	1	poli_8sides 10_whiteLine3.jpg	MediumLong_b10_cut2_L_stereo_44KHz.wav
1	46	4	4	2	I	2	0	913	0	poli_8sides 2_whiteLine3.jpg	MediumLong_e17_cut2_stereo_44KHz.wav
1	47	3	4	2	I	2	0	829	1	poli_8sides 18_whiteLine3.jpg	MediumLong_e17_cut2_stereo_44KHz.wav
1	48	1	2	0	C	2	1	1054	1	poli_8sides 13_whiteLine3.jpg	Medium_e21_stereo_44KHz.wav
1	49	3	4	2	I	2	0	1054	0	poli_8sides 18_whiteLine3.jpg	MediumLong_e17_cut2_stereo_44KHz.wav
1	50	2	2	1	C	0	0	0	0	poli_8sides 10_whiteLine3.jpg	Medium_e21_stereo_44KHz.wav
1	51	1	1	1	C	1	1	881	1	poli_8sides 13_whiteLine3.jpg	MediumLong_b10_cut2_L_stereo_44KHz.wav
1	52	4	4	2	I	2	0	1352	0	poli_8sides 2_whiteLine3.jpg	MediumLong_e17_cut2_stereo_44KHz.wav
1	53	3	3	2	I	2	0	1059	0	poli_8sides 18_whiteLine3.jpg	MediumLong_e19_stereo_44KHz.wav
1	54	2	1	0	C	2	1	814	1	poli_8sides 10_whiteLine3.jpg	MediumLong_b10_cut2_L_stereo_44KHz.wav
1	55	4	3	2	I	2	0	968	1	poli_8sides 2_whiteLine3.jpg	MediumLong_e19_stereo_44KHz.wav
1	56	1	2	0	C	2	1	871	1	poli_8sides 13_whiteLine3.jpg	Medium_e21_stereo_44KHz.wav
1	57	2	2	1	C	1	1	911	1	poli_8sides 10_whiteLine3.jpg	Medium_e21_stereo_44KHz.wav
1	58	1	1	1	C	1	1	950	1	poli_8sides 13_whiteLine3.jpg	MediumLong_b10_cut2_L_stereo_44KHz.wav
1	59	3	3	2	I	1	0	1257	1	poli_8sides 18_whiteLine3.jpg	MediumLong_e19_stereo_44KHz.wav
1	60	4	3	2	I	2	0	1185	1	poli_8sides 2_whiteLine3.jpg	MediumLong_e19_stereo_44KHz.wav
1	61	2	1	0	C	2	1	868	1	poli_8sides 10_whiteLine3.jpg	MediumLong_b10_cut2_L_stereo_44KHz.wav
1	62	1	2	0	C	2	1	918	1	poli_8sides 13_whiteLine3.jpg	Medium_e21_stereo_44KHz.wav
1	63	3	4	2	I	2	0	946	0	poli_8sides 18_whiteLine3.jpg	MediumLong_e17_cut2_stereo_44KHz.wav
1	64	4	4	2	I	2	0	902	1	poli_8sides 2_whiteLine3.jpg	MediumLong_e17_cut2_stereo_44KHz.wav
1	65	3	3	2	I	1	0	1885	1	poli_8sides 18_whiteLine3.jpg	MediumLong_e19_stereo_44KHz.wav
1	66	4	4	2	I	2	0	1103	1	poli_8sides 2_whiteLine3.jpg	MediumLong_e17_cut2_stereo_44KHz.wav
1	67	1	2	0	C	2	1	966	1	poli_8sides 13_whiteLine3.jpg	Medium_e21_stereo_44KHz.wav
1	68	2	1	0	C	2	1	780	1	poli_8sides 10_whiteLine3.jpg	MediumLong_b10_cut2_L_stereo_44KHz.wav
1	69	3	4	2	I	2	0	1221	1	poli_8sides 18_whiteLine3.jpg	MediumLong_e17_cut2_stereo_44KHz.wav
1	70	2	2	1	C	1	1	1184	1	poli_8sides 10_whiteLine3.jpg	Medium_e21_stereo_44KHz.wav
1	71	4	3	2	I	1	0	1326	0	poli_8sides 2_whiteLine3.jpg	MediumLong_e19_stereo_44KHz.wav
1	72	1	1	1	C	1	1	1154	1	poli_8sides 13_whiteLine3.jpg	MediumLong_b10_cut2_L_stereo_44KHz.wav
1	73	4	4	2	I	2	0	978	0	poli_8sides 2_whiteLine3.jpg	MediumLong_e17_cut2_stereo_44KHz.wav
1	74	3	3	2	I	1	0	1082	1	poli_8sides 18_whiteLine3.jpg	MediumLong_e19_stereo_44KHz.wav
1	75	1	2	0	C	2	1	851	1	poli_8sides 13_whiteLine3.jpg	Medium_e21_stereo_44KHz.wav
1	76	2	1	0	C	2	1	859	1	poli_8sides 10_whiteLine3.jpg	MediumLong_b10_cut2_L_stereo_44KHz.wav
1	77	3	4	2	I	2	0	895	1	poli_8sides 18_whiteLine3.jpg	MediumLong_e17_cut2_stereo_44KHz.wav
1	78	2	2	1	C	1	1	966	1	poli_8sides 10_whiteLine3.jpg	Medium_e21_stereo_44KHz.wav
1	79	4	3	2	I	2	0	1052	1	poli_8sides 2_whiteLine3.jpg	MediumLong_e19_stereo_44KHz.wav
1	80	1	1	1	C	1	1	1048	1	poli_8sides 13_whiteLine3.jpg	MediumLong_b10_cut2_L_stereo_44KHz.wav
1	81	4	3	2	I	2	0	1388	1	poli_8sides 2_whiteLine3.jpg	MediumLong_e19_stereo_44KHz.wav
1	82	2	2	1	C	1	1	965	1	poli_8sides 10_whiteLine3.jpg	Medium_e21_stereo_44KHz.wav
1	83	1	1	1	C	1	1	1080	1	poli_8sides 13_whiteLine3.jpg	MediumLong_b10_cut2_L_stereo_44KHz.wav
1	84	3	3	2	I	1	0	1314	0	poli_8sides 18_whiteLine3.jpg	MediumLong_e19_stereo_44KHz.wav
1	85	2	1	0	C	2	1	1384	1	poli_8sides 10_whiteLine3.jpg	MediumLong_b10_cut2_L_stereo_44KHz.wav
1	86	4	4	2	I	2	0	1117	1	poli_8sides 2_whiteLine3.jpg	MediumLong_e17_cut2_stereo_44KHz.wav
1	87	1	2	0	C	2	1	920	1	poli_8sides 13_whiteLine3.jpg	Medium_e21_stereo_44KHz.wav
1	88	3	4	2	I	2	0	981	0	poli_8sides 18_whiteLine3.jpg	MediumLong_e17_cut2_stereo_44KHz.wav
1	89	2	2	1	C	1	1	1074	1	poli_8sides 10_whiteLine3.jpg	Medium_e21_stereo_44KHz.wav
1	90	3	4	2	I	2	0	1093	1	poli_8sides 18_whiteLine3.jpg	MediumLong_e17_cut2_stereo_44KHz.wav
1	91	1	1	1	C	1	1	904	1	poli_8sides 13_whiteLine3.jpg	MediumLong_b10_cut2_L_stereo_44KHz.wav
1	92	4	3	2	I	2	0	918	0	poli_8sides 2_whiteLine3.jpg	MediumLong_e19_stereo_44KHz.wav
1	93	1	2	0	C	2	1	1234	1	poli_8sides 13_whiteLine3.jpg	Medium_e21_stereo_44KHz.wav
1	94	4	4	2	I	2	0	1916	0	poli_8sides 2_whiteLine3.jpg	MediumLong_e17_cut2_stereo_44KHz.wav
1	95	3	3	2	I	1	0	1121	1	poli_8sides 18_whiteLine3.jpg	MediumLong_e19_stereo_44KHz.wav
1	96	2	1	0	C	2	1	1115	1	poli_8sides 10_whiteLine3.jpg	MediumLong_b10_cut2_L_stereo_44KHz.wav
1	97	3	3	2	I	1	0	1298	1	poli_8sides 18_whiteLine3.jpg	MediumLong_e19_stereo_44KHz.wav
1	98	4	4	2	I	1	0	840	0	poli_8sides 2_whiteLine3.jpg	MediumLong_e17_cut2_stereo_44KHz.wav
1	99	1	1	1	C	1	1	879	1	poli_8sides 13_whiteLine3.jpg	MediumLong_b10_cut2_L_stereo_44KHz.wav
1	100	2	2	1	C	1	1	829	1	poli_8sides 10_whiteLine3.jpg	Medium_e21_stereo_44KHz.wav
1	101	3	4	2	I	2	0	1346	0	poli_8sides 18_whiteLine3.jpg	MediumLong_e17_cut2_stereo_44KHz.wav
1	102	4	3	2	I	2	0	1433	1	poli_8sides 2_whiteLine3.jpg	MediumLong_e19_stereo_44KHz.wav
1	103	1	2	0	C	2	1	1523	1	poli_8sides 13_whiteLine3.jpg	Medium_e21_stereo_44KHz.wav
1	104	2	1	0	C	2	1	827	1	poli_8sides 10_whiteLine3.jpg	MediumLong_b10_cut2_L_stereo_44KHz.wav
1	105	4	3	2	I	2	0	1047	0	poli_8sides 2_whiteLine3.jpg	MediumLong_e19_stereo_44KHz.wav
1	106	1	1	1	C	1	1	1401	1	poli_8sides 13_whiteLine3.jpg	MediumLong_b10_cut2_L_stereo_44KHz.wav
1	107	3	3	2	I	1	0	1514	0	poli_8sides 18_whiteLine3.jpg	MediumLong_e19_stereo_44KHz.wav
1	108	2	2	1	C	1	1	1490	1	poli_8sides 10_whiteLine3.jpg	Medium_e21_stereo_44KHz.wav
1	109	3	4	2	I	2	0	969	1	poli_8sides 18_whiteLine3.jpg	MediumLong_e17_cut2_stereo_44KHz.wav
1	110	2	1	0	C	2	1	914	1	poli_8sides 10_whiteLine3.jpg	MediumLong_b10_cut2_L_stereo_44KHz.wav
1	111	4	4	2	I	1	0	992	0	poli_8sides 2_whiteLine3.jpg	MediumLong_e17_cut2_stereo_44KHz.wav
1	112	1	2	0	C	2	1	1165	1	poli_8sides 13_whiteLine3.jpg	Medium_e21_stereo_44KHz.wav
1	113	3	3	2	I	2	0	1037	0	poli_8sides 18_whiteLine3.jpg	MediumLong_e19_stereo_44KHz.wav
1	114	4	4	2	I	1	0	1067	0	poli_8sides 2_whiteLine3.jpg	MediumLong_e17_cut2_stereo_44KHz.wav
1	115	2	1	0	C	2	1	914	1	poli_8sides 10_whiteLine3.jpg	MediumLong_b10_cut2_L_stereo_44KHz.wav
1	116	1	2	0	C	2	1	811	1	poli_8sides 13_whiteLine3.jpg	Medium_e21_stereo_44KHz.wav
1	117	3	4	2	I	2	0	733	0	poli_8sides 18_whiteLine3.jpg	MediumLong_e17_cut2_stereo_44KHz.wav
1	118	2	2	1	C	1	1	1039	1	poli_8sides 10_whiteLine3.jpg	Medium_e21_stereo_44KHz.wav
1	119	4	3	2	I	2	0	918	1	poli_8sides 2_whiteLine3.jpg	MediumLong_e19_stereo_44KHz.wav
1	120	1	1	1	C	1	1	1050	1	poli_8sides 13_whiteLine3.jpg	MediumLong_b10_cut2_L_stereo_44KHz.wav
1	121	3	3	2	I	1	0	1234	0	poli_8sides 18_whiteLine3.jpg	MediumLong_e19_stereo_44KHz.wav
1	122	2	2	1	C	1	1	957	1	poli_8sides 10_whiteLine3.jpg	Medium_e21_stereo_44KHz.wav
1	123	1	1	1	C	1	1	807	1	poli_8sides 13_whiteLine3.jpg	MediumLong_b10_cut2_L_stereo_44KHz.wav
1	124	4	4	2	I	1	0	867	1	poli_8sides 2_whiteLine3.jpg	MediumLong_e17_cut2_stereo_44KHz.wav
1	125	2	1	0	C	2	1	989	1	poli_8sides 10_whiteLine3.jpg	MediumLong_b10_cut2_L_stereo_44KHz.wav
1	126	1	2	0	C	2	1	891	1	poli_8sides 13_whiteLine3.jpg	Medium_e21_stereo_44KHz.wav
1	127	3	4	2	I	2	0	940	0	poli_8sides 18_whiteLine3.jpg	MediumLong_e17_cut2_stereo_44KHz.wav
1	128	4	3	2	I	2	0	1598	0	poli_8sides 2_whiteLine3.jpg	MediumLong_e19_stereo_44KHz.wav
1	129	1	1	1	C	1	1	790	1	poli_8sides 13_whiteLine3.jpg	MediumLong_b10_cut2_L_stereo_44KHz.wav
1	130	3	3	2	I	2	0	863	0	poli_8sides 18_whiteLine3.jpg	MediumLong_e19_stereo_44KHz.wav
1	131	2	2	1	C	2	0	1011	0	poli_8sides 10_whiteLine3.jpg	Medium_e21_stereo_44KHz.wav
1	132	4	4	2	I	2	0	902	0	poli_8sides 2_whiteLine3.jpg	MediumLong_e17_cut2_stereo_44KHz.wav
1	133	2	1	0	C	2	1	792	1	poli_8sides 10_whiteLine3.jpg	MediumLong_b10_cut2_L_stereo_44KHz.wav
1	134	4	3	2	I	2	0	886	1	poli_8sides 2_whiteLine3.jpg	MediumLong_e19_stereo_44KHz.wav
1	135	3	4	2	I	2	0	889	1	poli_8sides 18_whiteLine3.jpg	MediumLong_e17_cut2_stereo_44KHz.wav
1	136	1	2	0	C	2	1	822	1	poli_8sides 13_whiteLine3.jpg	Medium_e21_stereo_44KHz.wav
1	137	4	3	2	I	2	0	1437	1	poli_8sides 2_whiteLine3.jpg	MediumLong_e19_stereo_44KHz.wav
1	138	2	1	0	C	2	1	861	1	poli_8sides 10_whiteLine3.jpg	MediumLong_b10_cut2_L_stereo_44KHz.wav
1	139	1	2	0	C	2	1	773	1	poli_8sides 13_whiteLine3.jpg	Medium_e21_stereo_44KHz.wav
1	140	3	3	2	I	2	0	864	1	poli_8sides 18_whiteLine3.jpg	MediumLong_e19_stereo_44KHz.wav
1	141	4	4	2	I	2	0	1066	1	poli_8sides 2_whiteLine3.jpg	MediumLong_e17_cut2_stereo_44KHz.wav
1	142	2	2	1	C	1	1	1477	1	poli_8sides 10_whiteLine3.jpg	Medium_e21_stereo_44KHz.wav
1	143	3	4	2	I	2	0	1082	1	poli_8sides 18_whiteLine3.jpg	MediumLong_e17_cut2_stereo_44KHz.wav
1	144	1	1	1	C	1	1	1029	1	poli_8sides 13_whiteLine3.jpg	MediumLong_b10_cut2_L_stereo_44KHz.wav
1	145	3	4	2	I	2	0	956	1	poli_8sides 18_whiteLine3.jpg	MediumLong_e17_cut2_stereo_44KHz.wav
1	146	1	1	1	C	1	1	892	1	poli_8sides 13_whiteLine3.jpg	MediumLong_b10_cut2_L_stereo_44KHz.wav
1	147	2	2	1	C	1	1	1407	1	poli_8sides 10_whiteLine3.jpg	Medium_e21_stereo_44KHz.wav
1	148	4	3	2	I	2	0	952	1	poli_8sides 2_whiteLine3.jpg	MediumLong_e19_stereo_44KHz.wav
1	149	3	3	2	I	1	0	795	0	poli_8sides 18_whiteLine3.jpg	MediumLong_e19_stereo_44KHz.wav
1	150	4	4	2	I	1	0	1072	0	poli_8sides 2_whiteLine3.jpg	MediumLong_e17_cut2_stereo_44KHz.wav
1	151	1	2	0	C	2	1	767	1	poli_8sides 13_whiteLine3.jpg	Medium_e21_stereo_44KHz.wav
1	152	2	1	0	C	2	1	770	1	poli_8sides 10_whiteLine3.jpg	MediumLong_b10_cut2_L_stereo_44KHz.wav
1	153	1	2	0	C	2	1	1388	1	poli_8sides 13_whiteLine3.jpg	Medium_e21_stereo_44KHz.wav
1	154	2	1	0	C	2	1	823	1	poli_8sides 10_whiteLine3.jpg	MediumLong_b10_cut2_L_stereo_44KHz.wav
1	155	3	4	2	I	2	0	886	1	poli_8sides 18_whiteLine3.jpg	MediumLong_e17_cut2_stereo_44KHz.wav
1	156	4	3	2	I	2	0	962	1	poli_8sides 2_whiteLine3.jpg	MediumLong_e19_stereo_44KHz.wav
1	157	2	2	1	C	1	1	1031	1	poli_8sides 10_whiteLine3.jpg	Medium_e21_stereo_44KHz.wav
1	158	1	1	1	C	1	1	917	1	poli_8sides 13_whiteLine3.jpg	MediumLong_b10_cut2_L_stereo_44KHz.wav
1	159	3	3	2	I	1	0	1144	0	poli_8sides 18_whiteLine3.jpg	MediumLong_e19_stereo_44KHz.wav
1	160	4	4	2	I	1	0	1424	0	poli_8sides 2_whiteLine3.jpg	MediumLong_e17_cut2_stereo_44KHz.wav
1	161	1	2	0	C	2	1	1037	1	poli_8sides 13_whiteLine3.jpg	Medium_e21_stereo_44KHz.wav
1	162	3	4	2	I	2	0	906	1	poli_8sides 18_whiteLine3.jpg	MediumLong_e17_cut2_stereo_44KHz.wav
1	163	2	1	0	C	2	1	770	1	poli_8sides 10_whiteLine3.jpg	MediumLong_b10_cut2_L_stereo_44KHz.wav
1	164	4	4	2	I	2	0	859	1	poli_8sides 2_whiteLine3.jpg	MediumLong_e17_cut2_stereo_44KHz.wav
1	165	3	3	2	I	2	0	1221	1	poli_8sides 18_whiteLine3.jpg	MediumLong_e19_stereo_44KHz.wav
1	166	2	2	1	C	2	0	1063	0	poli_8sides 10_whiteLine3.jpg	Medium_e21_stereo_44KHz.wav
1	167	4	3	2	I	2	0	1701	0	poli_8sides 2_whiteLine3.jpg	MediumLong_e19_stereo_44KHz.wav
1	168	1	1	1	C	1	1	931	1	poli_8sides 13_whiteLine3.jpg	MediumLong_b10_cut2_L_stereo_44KHz.wav
1	169	4	3	2	I	2	0	1449	1	poli_8sides 2_whiteLine3.jpg	MediumLong_e19_stereo_44KHz.wav
1	170	2	1	0	C	2	1	901	1	poli_8sides 10_whiteLine3.jpg	MediumLong_b10_cut2_L_stereo_44KHz.wav
1	171	1	2	0	C	2	1	725	1	poli_8sides 13_whiteLine3.jpg	Medium_e21_stereo_44KHz.wav
1	172	3	3	2	I	2	0	863	1	poli_8sides 18_whiteLine3.jpg	MediumLong_e19_stereo_44KHz.wav
1	173	4	4	2	I	1	0	1671	0	poli_8sides 2_whiteLine3.jpg	MediumLong_e17_cut2_stereo_44KHz.wav
1	174	2	2	1	C	1	1	1037	1	poli_8sides 10_whiteLine3.jpg	Medium_e21_stereo_44KHz.wav
1	175	3	4	2	I	2	0	695	1	poli_8sides 18_whiteLine3.jpg	MediumLong_e17_cut2_stereo_44KHz.wav
1	176	1	1	1	C	1	1	1065	1	poli_8sides 13_whiteLine3.jpg	MediumLong_b10_cut2_L_stereo_44KHz.wav
1	177	4	3	2	I	1	0	1596	1	poli_8sides 2_whiteLine3.jpg	MediumLong_e19_stereo_44KHz.wav
1	178	1	1	1	C	1	1	1097	1	poli_8sides 13_whiteLine3.jpg	MediumLong_b10_cut2_L_stereo_44KHz.wav
1	179	2	2	1	C	1	1	967	1	poli_8sides 10_whiteLine3.jpg	Medium_e21_stereo_44KHz.wav
1	180	3	3	2	I	2	0	810	1	poli_8sides 18_whiteLine3.jpg	MediumLong_e19_stereo_44KHz.wav
1	181	4	4	2	I	2	0	812	1	poli_8sides 2_whiteLine3.jpg	MediumLong_e17_cut2_stereo_44KHz.wav
1	182	1	2	0	C	2	1	917	1	poli_8sides 13_whiteLine3.jpg	Medium_e21_stereo_44KHz.wav
1	183	3	4	2	I	2	0	790	0	poli_8sides 18_whiteLine3.jpg	MediumLong_e17_cut2_stereo_44KHz.wav
1	184	2	1	0	C	2	1	947	1	poli_8sides 10_whiteLine3.jpg	MediumLong_b10_cut2_L_stereo_44KHz.wav
1	185	3	3	2	I	1	0	1010	1	poli_8sides 18_whiteLine3.jpg	MediumLong_e19_stereo_44KHz.wav
1	186	4	3	2	I	2	0	1046	1	poli_8sides 2_whiteLine3.jpg	MediumLong_e19_stereo_44KHz.wav
1	187	2	2	1	C	1	1	918	1	poli_8sides 10_whiteLine3.jpg	Medium_e21_stereo_44KHz.wav
1	188	1	2	0	C	2	1	856	1	poli_8sides 13_whiteLine3.jpg	Medium_e21_stereo_44KHz.wav
1	189	4	4	2	I	2	0	1115	1	poli_8sides 2_whiteLine3.jpg	MediumLong_e17_cut2_stereo_44KHz.wav
1	190	3	4	2	I	1	0	992	1	poli_8sides 18_whiteLine3.jpg	MediumLong_e17_cut2_stereo_44KHz.wav
1	191	1	1	1	C	1	1	864	1	poli_8sides 13_whiteLine3.jpg	MediumLong_b10_cut2_L_stereo_44KHz.wav
1	192	2	1	0	C	2	1	665	1	poli_8sides 10_whiteLine3.jpg	MediumLong_b10_cut2_L_stereo_44KHz.wav
1	193	1	2	0	C	2	1	859	1	poli_8sides 13_whiteLine3.jpg	Medium_e21_stereo_44KHz.wav
1	194	3	4	2	I	2	0	823	0	poli_8sides 18_whiteLine3.jpg	MediumLong_e17_cut2_stereo_44KHz.wav
1	195	4	4	2	I	2	0	889	0	poli_8sides 2_whiteLine3.jpg	MediumLong_e17_cut2_stereo_44KHz.wav
1	196	2	2	1	C	1	1	1154	1	poli_8sides 10_whiteLine3.jpg	Medium_e21_stereo_44KHz.wav
1	197	1	1	1	C	1	1	899	1	poli_8sides 13_whiteLine3.jpg	MediumLong_b10_cut2_L_stereo_44KHz.wav
1	198	4	3	2	I	1	0	1036	0	poli_8sides 2_whiteLine3.jpg	MediumLong_e19_stereo_44KHz.wav
1	199	2	1	0	C	2	1	825	1	poli_8sides 10_whiteLine3.jpg	MediumLong_b10_cut2_L_stereo_44KHz.wav
1	200	3	3	2	I	1	0	952	0	poli_8sides 18_whiteLine3.jpg	MediumLong_e19_stereo_44KHz.wav
2	1	3	3	2	I	0	0	0	0	poli_8sides 3_whiteLine3.jpg	MediumShort_b10_cut1_MS_stereo_44KHz.wav
2	2	4	4	2	I	2	0	1122	1	poli_8sides 8_whiteLine3.jpg	MediumShort_e22_cut1_stereo_44KHz.wav
2	3	2	1	0	C	1	0	1012	0	poli_8sides 7_whiteLine3.jpg	MediumShort_b16_cut3_MS_stereo_44KHz.wav
2	4	1	1	1	C	1	1	875	1	poli_8sides 12_whiteLine3.jpg	MediumShort_b16_cut3_MS_stereo_44KHz.wav
2	5	3	4	2	I	1	0	1054	1	poli_8sides 3_whiteLine3.jpg	MediumShort_e22_cut1_stereo_44KHz.wav
2	6	2	2	1	C	1	1	994	1	poli_8sides 7_whiteLine3.jpg	MediumShort_e16_cut1_stereo_44KHz.wav
2	7	4	3	2	I	1	0	1171	0	poli_8sides 8_whiteLine3.jpg	MediumShort_b10_cut1_MS_stereo_44KHz.wav
2	8	1	2	0	C	2	1	1033	1	poli_8sides 12_whiteLine3.jpg	MediumShort_e16_cut1_stereo_44KHz.wav
2	9	3	4	2	I	1	0	1050	1	poli_8sides 3_whiteLine3.jpg	MediumShort_e22_cut1_stereo_44KHz.wav
2	10	2	1	0	C	1	0	1182	0	poli_8sides 7_whiteLine3.jpg	MediumShort_b16_cut3_MS_stereo_44KHz.wav
2	11	1	1	1	C	1	1	804	1	poli_8sides 12_whiteLine3.jpg	MediumShort_b16_cut3_MS_stereo_44KHz.wav
2	12	4	3	2	I	2	0	830	0	poli_8sides 8_whiteLine3.jpg	MediumShort_b10_cut1_MS_stereo_44KHz.wav
2	13	2	2	1	C	1	1	1290	1	poli_8sides 7_whiteLine3.jpg	MediumShort_e16_cut1_stereo_44KHz.wav
2	14	4	4	2	I	2	0	1026	0	poli_8sides 8_whiteLine3.jpg	MediumShort_e22_cut1_stereo_44KHz.wav
2	15	3	3	2	I	2	0	936	0	poli_8sides 3_whiteLine3.jpg	MediumShort_b10_cut1_MS_stereo_44KHz.wav
2	16	1	2	0	C	1	0	700	0	poli_8sides 12_whiteLine3.jpg	MediumShort_e16_cut1_stereo_44KHz.wav
2	17	3	3	2	I	2	0	760	0	poli_8sides 3_whiteLine3.jpg	MediumShort_b10_cut1_MS_stereo_44KHz.wav
2	18	4	3	2	I	2	0	839	1	poli_8sides 8_whiteLine3.jpg	MediumShort_b10_cut1_MS_stereo_44KHz.wav
2	19	2	2	1	C	1	1	849	1	poli_8sides 7_whiteLine3.jpg	MediumShort_e16_cut1_stereo_44KHz.wav
2	20	1	1	1	C	2	0	816	0	poli_8sides 12_whiteLine3.jpg	MediumShort_b16_cut3_MS_stereo_44KHz.wav
2	21	3	4	2	I	2	0	758	0	poli_8sides 3_whiteLine3.jpg	MediumShort_e22_cut1_stereo_44KHz.wav
2	22	4	4	2	I	2	0	696	1	poli_8sides 8_whiteLine3.jpg	MediumShort_e22_cut1_stereo_44KHz.wav
2	23	1	2	0	C	1	0	834	0	poli_8sides 12_whiteLine3.jpg	MediumShort_e16_cut1_stereo_44KHz.wav
2	24	2	1	0	C	2	1	1600	1	poli_8sides 7_whiteLine3.jpg	MediumShort_b16_cut3_MS_stereo_44KHz.wav
2	25	4	3	2	I	2	0	1267	1	poli_8sides 8_whiteLine3.jpg	MediumShort_b10_cut1_MS_stereo_44KHz.wav
2	26	2	1	0	C	1	0	1250	0	poli_8sides 7_whiteLine3.jpg	MediumShort_b16_cut3_MS_stereo_44KHz.wav
2	27	1	2	0	C	2	1	896	1	poli_8sides 12_whiteLine3.jpg	MediumShort_e16_cut1_stereo_44KHz.wav
2	28	3	3	2	I	2	0	1008	0	poli_8sides 3_whiteLine3.jpg	MediumShort_b10_cut1_MS_stereo_44KHz.wav
2	29	1	1	1	C	1	1	1283	1	poli_8sides 12_whiteLine3.jpg	MediumShort_b16_cut3_MS_stereo_44KHz.wav
2	30	2	2	1	C	1	1	1474	1	poli_8sides 7_whiteLine3.jpg	MediumShort_e16_cut1_stereo_44KHz.wav
2	31	3	4	2	I	1	0	1135	1	poli_8sides 3_whiteLine3.jpg	MediumShort_e22_cut1_stereo_44KHz.wav
2	32	4	4	2	I	2	0	770	0	poli_8sides 8_whiteLine3.jpg	MediumShort_e22_cut1_stereo_44KHz.wav
2	33	3	4	2	I	1	0	792	1	poli_8sides 3_whiteLine3.jpg	MediumShort_e22_cut1_stereo_44KHz.wav
2	34	2	1	0	C	2	1	1625	1	poli_8sides 7_whiteLine3.jpg	MediumShort_b16_cut3_MS_stereo_44KHz.wav
2	35	4	4	2	I	2	0	1381	0	poli_8sides 8_whiteLine3.jpg	MediumShort_e22_cut1_stereo_44KHz.wav
2	36	1	2	0	C	1	0	1124	0	poli_8sides 12_whiteLine3.jpg	MediumShort_e16_cut1_stereo_44KHz.wav
2	37	4	3	2	I	1	0	1959	1	poli_8sides 8_whiteLine3.jpg	MediumShort_b10_cut1_MS_stereo_44KHz.wav
2	38	3	3	2	I	2	0	1202	1	poli_8sides 3_whiteLine3.jpg	MediumShort_b10_cut1_MS_stereo_44KHz.wav
2	39	1	1	1	C	2	0	1217	0	poli_8sides 12_whiteLine3.jpg	MediumShort_b16_cut3_MS_stereo_44KHz.wav
2	40	2	2	1	C	2	0	1553	0	poli_8sides 7_whiteLine3.jpg	MediumShort_e16_cut1_stereo_44KHz.wav
2	41	3	3	2	I	2	0	1020	0	poli_8sides 3_whiteLine3.jpg	MediumShort_b10_cut1_MS_stereo_44KHz.wav
2	42	4	4	2	I	2	0	801	1	poli_8sides 8_whiteLine3.jpg	MediumShort_e22_cut1_stereo_44KHz.wav
2	43	1	2	0	C	1	0	1130	0	poli_8sides 12_whiteLine3.jpg	MediumShort_e16_cut1_stereo_44KHz.wav
2	44	2	2	1	C	1	1	705	1	poli_8sides 7_whiteLine3.jpg	MediumShort_e16_cut1_stereo_44KHz.wav
2	45	4	3	2	I	1	0	1011	1	poli_8sides 8_whiteLine3.jpg	MediumShort_b10_cut1_MS_stereo_44KHz.wav
2	46	1	1	1	C	2	0	935	0	poli_8sides 12_whiteLine3.jpg	MediumShort_b16_cut3_MS_stereo_44KHz.wav
2	47	2	1	0	C	2	1	825	1	poli_8sides 7_whiteLine3.jpg	MediumShort_b16_cut3_MS_stereo_44KHz.wav
2	48	3	4	2	I	1	0	1207	0	poli_8sides 3_whiteLine3.jpg	MediumShort_e22_cut1_stereo_44KHz.wav
2	49	1	1	1	C	0	0	0	0	poli_8sides 12_whiteLine3.jpg	MediumShort_b16_cut3_MS_stereo_44KHz.wav
2	50	4	3	2	I	2	0	881	0	poli_8sides 8_whiteLine3.jpg	MediumShort_b10_cut1_MS_stereo_44KHz.wav
2	51	2	2	1	C	1	1	1164	1	poli_8sides 7_whiteLine3.jpg	MediumShort_e16_cut1_stereo_44KHz.wav
2	52	3	4	2	I	1	0	985	0	poli_8sides 3_whiteLine3.jpg	MediumShort_e22_cut1_stereo_44KHz.wav
2	53	2	1	0	C	1	0	866	0	poli_8sides 7_whiteLine3.jpg	MediumShort_b16_cut3_MS_stereo_44KHz.wav
2	54	1	2	0	C	1	0	1188	0	poli_8sides 12_whiteLine3.jpg	MediumShort_e16_cut1_stereo_44KHz.wav
2	55	4	4	2	I	2	0	829	1	poli_8sides 8_whiteLine3.jpg	MediumShort_e22_cut1_stereo_44KHz.wav
2	56	3	3	2	I	2	0	869	0	poli_8sides 3_whiteLine3.jpg	MediumShort_b10_cut1_MS_stereo_44KHz.wav
2	57	4	4	2	I	2	0	749	1	poli_8sides 8_whiteLine3.jpg	MediumShort_e22_cut1_stereo_44KHz.wav
2	58	1	1	1	C	1	1	911	1	poli_8sides 12_whiteLine3.jpg	MediumShort_b16_cut3_MS_stereo_44KHz.wav
2	59	2	1	0	C	1	0	961	0	poli_8sides 7_whiteLine3.jpg	MediumShort_b16_cut3_MS_stereo_44KHz.wav
2	60	3	3	2	I	2	0	850	1	poli_8sides 3_whiteLine3.jpg	MediumShort_b10_cut1_MS_stereo_44KHz.wav
2	61	4	3	2	I	1	0	737	1	poli_8sides 8_whiteLine3.jpg	MediumShort_b10_cut1_MS_stereo_44KHz.wav
2	62	3	4	2	I	1	0	984	0	poli_8sides 3_whiteLine3.jpg	MediumShort_e22_cut1_stereo_44KHz.wav
2	63	2	2	1	C	1	1	1424	1	poli_8sides 7_whiteLine3.jpg	MediumShort_e16_cut1_stereo_44KHz.wav
2	64	1	2	0	C	2	1	716	1	poli_8sides 12_whiteLine3.jpg	MediumShort_e16_cut1_stereo_44KHz.wav
2	65	3	3	2	I	2	0	721	1	poli_8sides 3_whiteLine3.jpg	MediumShort_b10_cut1_MS_stereo_44KHz.wav
2	66	1	2	0	C	2	1	1128	1	poli_8sides 12_whiteLine3.jpg	MediumShort_e16_cut1_stereo_44KHz.wav
2	67	4	4	2	I	2	0	986	1	poli_8sides 8_whiteLine3.jpg	MediumShort_e22_cut1_stereo_44KHz.wav
2	68	2	1	0	C	2	1	1811	1	poli_8sides 7_whiteLine3.jpg	MediumShort_b16_cut3_MS_stereo_44KHz.wav
2	69	1	1	1	C	1	1	832	1	poli_8sides 12_whiteLine3.jpg	MediumShort_b16_cut3_MS_stereo_44KHz.wav
2	70	2	2	1	C	1	1	1254	1	poli_8sides 7_whiteLine3.jpg	MediumShort_e16_cut1_stereo_44KHz.wav
2	71	4	3	2	I	1	0	1329	1	poli_8sides 8_whiteLine3.jpg	MediumShort_b10_cut1_MS_stereo_44KHz.wav
2	72	3	4	2	I	1	0	970	1	poli_8sides 3_whiteLine3.jpg	MediumShort_e22_cut1_stereo_44KHz.wav
2	73	2	2	1	C	1	1	878	1	poli_8sides 7_whiteLine3.jpg	MediumShort_e16_cut1_stereo_44KHz.wav
2	74	3	4	2	I	1	0	926	1	poli_8sides 3_whiteLine3.jpg	MediumShort_e22_cut1_stereo_44KHz.wav
2	75	4	3	2	I	1	0	801	1	poli_8sides 8_whiteLine3.jpg	MediumShort_b10_cut1_MS_stereo_44KHz.wav
2	76	1	2	0	C	2	1	1126	1	poli_8sides 12_whiteLine3.jpg	MediumShort_e16_cut1_stereo_44KHz.wav
2	77	2	1	0	C	2	1	1435	1	poli_8sides 7_whiteLine3.jpg	MediumShort_b16_cut3_MS_stereo_44KHz.wav
2	78	4	4	2	I	2	0	829	1	poli_8sides 8_whiteLine3.jpg	MediumShort_e22_cut1_stereo_44KHz.wav
2	79	1	1	1	C	2	0	1253	0	poli_8sides 12_whiteLine3.jpg	MediumShort_b16_cut3_MS_stereo_44KHz.wav
2	80	3	3	2	I	2	0	667	0	poli_8sides 3_whiteLine3.jpg	MediumShort_b10_cut1_MS_stereo_44KHz.wav
2	81	2	1	0	C	2	1	1426	1	poli_8sides 7_whiteLine3.jpg	MediumShort_b16_cut3_MS_stereo_44KHz.wav
2	82	1	1	1	C	1	1	868	1	poli_8sides 12_whiteLine3.jpg	MediumShort_b16_cut3_MS_stereo_44KHz.wav
2	83	4	3	2	I	1	0	965	0	poli_8sides 8_whiteLine3.jpg	MediumShort_b10_cut1_MS_stereo_44KHz.wav
2	84	3	4	2	I	1	0	1540	1	poli_8sides 3_whiteLine3.jpg	MediumShort_e22_cut1_stereo_44KHz.wav
2	85	2	2	1	C	1	1	1188	1	poli_8sides 7_whiteLine3.jpg	MediumShort_e16_cut1_stereo_44KHz.wav
2	86	3	3	2	I	2	0	1014	0	poli_8sides 3_whiteLine3.jpg	MediumShort_b10_cut1_MS_stereo_44KHz.wav
2	87	4	4	2	I	2	0	881	1	poli_8sides 8_whiteLine3.jpg	MediumShort_e22_cut1_stereo_44KHz.wav
2	88	1	2	0	C	2	1	1439	1	poli_8sides 12_whiteLine3.jpg	MediumShort_e16_cut1_stereo_44KHz.wav
2	89	3	4	2	I	1	0	835	1	poli_8sides 3_whiteLine3.jpg	MediumShort_e22_cut1_stereo_44KHz.wav
2	90	2	1	0	C	2	1	1087	1	poli_8sides 7_whiteLine3.jpg	MediumShort_b16_cut3_MS_stereo_44KHz.wav
2	91	1	1	1	C	1	1	820	1	poli_8sides 12_whiteLine3.jpg	MediumShort_b16_cut3_MS_stereo_44KHz.wav
2	92	4	3	2	I	1	0	1183	0	poli_8sides 8_whiteLine3.jpg	MediumShort_b10_cut1_MS_stereo_44KHz.wav
2	93	1	2	0	C	2	1	1139	1	poli_8sides 12_whiteLine3.jpg	MediumShort_e16_cut1_stereo_44KHz.wav
2	94	4	4	2	I	2	0	982	1	poli_8sides 8_whiteLine3.jpg	MediumShort_e22_cut1_stereo_44KHz.wav
2	95	3	3	2	I	2	0	755	1	poli_8sides 3_whiteLine3.jpg	MediumShort_b10_cut1_MS_stereo_44KHz.wav
2	96	2	2	1	C	1	1	1137	1	poli_8sides 7_whiteLine3.jpg	MediumShort_e16_cut1_stereo_44KHz.wav
2	97	3	3	2	I	2	0	868	0	poli_8sides 3_whiteLine3.jpg	MediumShort_b10_cut1_MS_stereo_44KHz.wav
2	98	2	2	1	C	2	0	1241	0	poli_8sides 7_whiteLine3.jpg	MediumShort_e16_cut1_stereo_44KHz.wav
2	99	1	2	0	C	1	0	725	0	poli_8sides 12_whiteLine3.jpg	MediumShort_e16_cut1_stereo_44KHz.wav
2	100	4	4	2	I	2	0	1168	0	poli_8sides 8_whiteLine3.jpg	MediumShort_e22_cut1_stereo_44KHz.wav
2	101	3	4	2	I	1	0	894	0	poli_8sides 3_whiteLine3.jpg	MediumShort_e22_cut1_stereo_44KHz.wav
2	102	2	1	0	C	2	1	1259	1	poli_8sides 7_whiteLine3.jpg	MediumShort_b16_cut3_MS_stereo_44KHz.wav
2	103	1	1	1	C	1	1	974	1	poli_8sides 12_whiteLine3.jpg	MediumShort_b16_cut3_MS_stereo_44KHz.wav
2	104	4	3	2	I	1	0	1301	1	poli_8sides 8_whiteLine3.jpg	MediumShort_b10_cut1_MS_stereo_44KHz.wav
2	105	1	1	1	C	2	0	1498	0	poli_8sides 12_whiteLine3.jpg	MediumShort_b16_cut3_MS_stereo_44KHz.wav
2	106	2	1	0	C	2	1	1194	1	poli_8sides 7_whiteLine3.jpg	MediumShort_b16_cut3_MS_stereo_44KHz.wav
2	107	3	4	2	I	1	0	969	1	poli_8sides 3_whiteLine3.jpg	MediumShort_e22_cut1_stereo_44KHz.wav
2	108	4	4	2	I	2	0	849	0	poli_8sides 8_whiteLine3.jpg	MediumShort_e22_cut1_stereo_44KHz.wav
2	109	2	2	1	C	1	1	1288	1	poli_8sides 7_whiteLine3.jpg	MediumShort_e16_cut1_stereo_44KHz.wav
2	110	3	3	2	I	2	0	1012	0	poli_8sides 3_whiteLine3.jpg	MediumShort_b10_cut1_MS_stereo_44KHz.wav
2	111	4	3	2	I	1	0	1187	1	poli_8sides 8_whiteLine3.jpg	MediumShort_b10_cut1_MS_stereo_44KHz.wav
2	112	1	2	0	C	2	1	1138	1	poli_8sides 12_whiteLine3.jpg	MediumShort_e16_cut1_stereo_44KHz.wav
2	113	4	3	2	I	2	0	1161	0	poli_8sides 8_whiteLine3.jpg	MediumShort_b10_cut1_MS_stereo_44KHz.wav
2	114	1	2	0	C	2	1	1031	1	poli_8sides 12_whiteLine3.jpg	MediumShort_e16_cut1_stereo_44KHz.wav
2	115	2	2	1	C	1	1	732	1	poli_8sides 7_whiteLine3.jpg	MediumShort_e16_cut1_stereo_44KHz.wav
2	116	3	4	2	I	2	0	964	0	poli_8sides 3_whiteLine3.jpg	MediumShort_e22_cut1_stereo_44KHz.wav
2	117	1	1	1	C	1	1	1660	1	poli_8sides 12_whiteLine3.jpg	MediumShort_b16_cut3_MS_stereo_44KHz.wav
2	118	4	4	2	I	2	0	1073	0	poli_8sides 8_whiteLine3.jpg	MediumShort_e22_cut1_stereo_44KHz.wav
2	119	3	3	2	I	2	0	739	0	poli_8sides 3_whiteLine3.jpg	MediumShort_b10_cut1_MS_stereo_44KHz.wav
2	120	2	1	0	C	0	0	0	0	poli_8sides 7_whiteLine3.jpg	MediumShort_b16_cut3_MS_stereo_44KHz.wav
2	121	3	3	2	I	2	0	973	1	poli_8sides 3_whiteLine3.jpg	MediumShort_b10_cut1_MS_stereo_44KHz.wav
2	122	2	2	1	C	1	1	1230	1	poli_8sides 7_whiteLine3.jpg	MediumShort_e16_cut1_stereo_44KHz.wav
2	123	1	2	0	C	2	1	1305	1	poli_8sides 12_whiteLine3.jpg	MediumShort_e16_cut1_stereo_44KHz.wav
2	124	4	3	2	I	2	0	1205	0	poli_8sides 8_whiteLine3.jpg	MediumShort_b10_cut1_MS_stereo_44KHz.wav
2	125	2	1	0	C	2	1	1165	1	poli_8sides 7_whiteLine3.jpg	MediumShort_b16_cut3_MS_stereo_44KHz.wav
2	126	3	4	2	I	1	0	1181	0	poli_8sides 3_whiteLine3.jpg	MediumShort_e22_cut1_stereo_44KHz.wav
2	127	4	4	2	I	1	0	794	0	poli_8sides 8_whiteLine3.jpg	MediumShort_e22_cut1_stereo_44KHz.wav
2	128	1	1	1	C	1	1	1770	1	poli_8sides 12_whiteLine3.jpg	MediumShort_b16_cut3_MS_stereo_44KHz.wav
2	129	4	3	2	I	0	0	0	0	poli_8sides 8_whiteLine3.jpg	MediumShort_b10_cut1_MS_stereo_44KHz.wav
2	130	3	4	2	I	2	0	653	0	poli_8sides 3_whiteLine3.jpg	MediumShort_e22_cut1_stereo_44KHz.wav
2	131	2	1	0	C	2	1	1358	1	poli_8sides 7_whiteLine3.jpg	MediumShort_b16_cut3_MS_stereo_44KHz.wav
2	132	1	1	1	C	1	1	801	1	poli_8sides 12_whiteLine3.jpg	MediumShort_b16_cut3_MS_stereo_44KHz.wav
2	133	3	3	2	I	2	0	793	0	poli_8sides 3_whiteLine3.jpg	MediumShort_b10_cut1_MS_stereo_44KHz.wav
2	134	1	2	0	C	2	1	1430	1	poli_8sides 12_whiteLine3.jpg	MediumShort_e16_cut1_stereo_44KHz.wav
2	135	2	2	1	C	1	1	695	1	poli_8sides 7_whiteLine3.jpg	MediumShort_e16_cut1_stereo_44KHz.wav
2	136	4	4	2	I	1	0	1488	0	poli_8sides 8_whiteLine3.jpg	MediumShort_e22_cut1_stereo_44KHz.wav
2	137	3	4	2	I	1	0	758	1	poli_8sides 3_whiteLine3.jpg	MediumShort_e22_cut1_stereo_44KHz.wav
2	138	2	2	1	C	1	1	1202	1	poli_8sides 7_whiteLine3.jpg	MediumShort_e16_cut1_stereo_44KHz.wav
2	139	4	4	2	I	2	0	1644	0	poli_8sides 8_whiteLine3.jpg	MediumShort_e22_cut1_stereo_44KHz.wav
2	140	1	1	1	C	1	1	1158	1	poli_8sides 12_whiteLine3.jpg	MediumShort_b16_cut3_MS_stereo_44KHz.wav
2	141	3	3	2	I	2	0	681	1	poli_8sides 3_whiteLine3.jpg	MediumShort_b10_cut1_MS_stereo_44KHz.wav
2	142	1	2	0	C	1	0	871	0	poli_8sides 12_whiteLine3.jpg	MediumShort_e16_cut1_stereo_44KHz.wav
2	143	2	1	0	C	2	1	1171	1	poli_8sides 7_whiteLine3.jpg	MediumShort_b16_cut3_MS_stereo_44KHz.wav
2	144	4	3	2	I	1	0	1393	0	poli_8sides 8_whiteLine3.jpg	MediumShort_b10_cut1_MS_stereo_44KHz.wav
2	145	3	4	2	I	1	0	1446	1	poli_8sides 3_whiteLine3.jpg	MediumShort_e22_cut1_stereo_44KHz.wav
2	146	1	2	0	C	2	1	1186	1	poli_8sides 12_whiteLine3.jpg	MediumShort_e16_cut1_stereo_44KHz.wav
2	147	4	3	2	I	1	0	1047	0	poli_8sides 8_whiteLine3.jpg	MediumShort_b10_cut1_MS_stereo_44KHz.wav
2	148	2	2	1	C	1	1	1406	1	poli_8sides 7_whiteLine3.jpg	MediumShort_e16_cut1_stereo_44KHz.wav
2	149	1	1	1	C	1	1	1230	1	poli_8sides 12_whiteLine3.jpg	MediumShort_b16_cut3_MS_stereo_44KHz.wav
2	150	4	4	2	I	2	0	992	1	poli_8sides 8_whiteLine3.jpg	MediumShort_e22_cut1_stereo_44KHz.wav
2	151	3	3	2	I	2	0	857	1	poli_8sides 3_whiteLine3.jpg	MediumShort_b10_cut1_MS_stereo_44KHz.wav
2	152	2	1	0	C	2	1	1201	1	poli_8sides 7_whiteLine3.jpg	MediumShort_b16_cut3_MS_stereo_44KHz.wav
2	153	4	4	2	I	2	0	869	0	poli_8sides 8_whiteLine3.jpg	MediumShort_e22_cut1_stereo_44KHz.wav
2	154	3	4	2	I	1	0	753	0	poli_8sides 3_whiteLine3.jpg	MediumShort_e22_cut1_stereo_44KHz.wav
2	155	2	2	1	C	1	1	1362	1	poli_8sides 7_whiteLine3.jpg	MediumShort_e16_cut1_stereo_44KHz.wav
2	156	1	1	1	C	1	1	1108	1	poli_8sides 12_whiteLine3.jpg	MediumShort_b16_cut3_MS_stereo_44KHz.wav
2	157	3	3	2	I	2	0	814	0	poli_8sides 3_whiteLine3.jpg	MediumShort_b10_cut1_MS_stereo_44KHz.wav
2	158	1	2	0	C	2	1	1869	1	poli_8sides 12_whiteLine3.jpg	MediumShort_e16_cut1_stereo_44KHz.wav
2	159	4	3	2	I	1	0	1181	0	poli_8sides 8_whiteLine3.jpg	MediumShort_b10_cut1_MS_stereo_44KHz.wav
2	160	2	1	0	C	2	1	1463	1	poli_8sides 7_whiteLine3.jpg	MediumShort_b16_cut3_MS_stereo_44KHz.wav
2	161	4	4	2	I	2	0	811	0	poli_8sides 8_whiteLine3.jpg	MediumShort_e22_cut1_stereo_44KHz.wav
2	162	1	2	0	C	2	1	1267	1	poli_8sides 12_whiteLine3.jpg	MediumShort_e16_cut1_stereo_44KHz.wav
2	163	2	1	0	C	2	1	921	1	poli_8sides 7_whiteLine3.jpg	MediumShort_b16_cut3_MS_stereo_44KHz.wav
2	164	3	4	2	I	1	0	865	1	poli_8sides 3_whiteLine3.jpg	MediumShort_e22_cut1_stereo_44KHz.wav
2	165	4	3	2	I	1	0	921	1	poli_8sides 8_whiteLine3.jpg	MediumShort_b10_cut1_MS_stereo_44KHz.wav
2	166	2	2	1	C	1	1	1000	1	poli_8sides 7_whiteLine3.jpg	MediumShort_e16_cut1_stereo_44KHz.wav
2	167	1	1	1	C	1	1	1217	1	poli_8sides 12_whiteLine3.jpg	MediumShort_b16_cut3_MS_stereo_44KHz.wav
2	168	3	3	2	I	2	0	824	1	poli_8sides 3_whiteLine3.jpg	MediumShort_b10_cut1_MS_stereo_44KHz.wav
2	169	1	2	0	C	1	0	865	0	poli_8sides 12_whiteLine3.jpg	MediumShort_e16_cut1_stereo_44KHz.wav
2	170	2	1	0	C	2	1	1509	1	poli_8sides 7_whiteLine3.jpg	MediumShort_b16_cut3_MS_stereo_44KHz.wav
2	171	4	3	2	I	1	0	1062	1	poli_8sides 8_whiteLine3.jpg	MediumShort_b10_cut1_MS_stereo_44KHz.wav
2	172	3	3	2	I	2	0	1158	0	poli_8sides 3_whiteLine3.jpg	MediumShort_b10_cut1_MS_stereo_44KHz.wav
2	173	4	4	2	I	2	0	1100	1	poli_8sides 8_whiteLine3.jpg	MediumShort_e22_cut1_stereo_44KHz.wav
2	174	3	4	2	I	1	0	864	1	poli_8sides 3_whiteLine3.jpg	MediumShort_e22_cut1_stereo_44KHz.wav
2	175	2	2	1	C	1	1	1256	1	poli_8sides 7_whiteLine3.jpg	MediumShort_e16_cut1_stereo_44KHz.wav
2	176	1	1	1	C	1	1	1007	1	poli_8sides 12_whiteLine3.jpg	MediumShort_b16_cut3_MS_stereo_44KHz.wav
2	177	3	3	2	I	2	0	831	1	poli_8sides 3_whiteLine3.jpg	MediumShort_b10_cut1_MS_stereo_44KHz.wav
2	178	1	1	1	C	1	1	1433	1	poli_8sides 12_whiteLine3.jpg	MediumShort_b16_cut3_MS_stereo_44KHz.wav
2	179	4	3	2	I	1	0	1139	1	poli_8sides 8_whiteLine3.jpg	MediumShort_b10_cut1_MS_stereo_44KHz.wav
2	180	2	1	0	C	2	1	1242	1	poli_8sides 7_whiteLine3.jpg	MediumShort_b16_cut3_MS_stereo_44KHz.wav
2	181	1	2	0	C	2	1	1425	1	poli_8sides 12_whiteLine3.jpg	MediumShort_e16_cut1_stereo_44KHz.wav
2	182	3	4	2	I	1	0	1095	0	poli_8sides 3_whiteLine3.jpg	MediumShort_e22_cut1_stereo_44KHz.wav
2	183	2	2	1	C	0	0	0	0	poli_8sides 7_whiteLine3.jpg	MediumShort_e16_cut1_stereo_44KHz.wav
2	184	4	4	2	I	2	0	1407	0	poli_8sides 8_whiteLine3.jpg	MediumShort_e22_cut1_stereo_44KHz.wav
2	185	2	2	1	C	0	0	0	0	poli_8sides 7_whiteLine3.jpg	MediumShort_e16_cut1_stereo_44KHz.wav
2	186	3	4	2	I	0	0	0	0	poli_8sides 3_whiteLine3.jpg	MediumShort_e22_cut1_stereo_44KHz.wav
2	187	4	4	2	I	0	0	0	0	poli_8sides 8_whiteLine3.jpg	MediumShort_e22_cut1_stereo_44KHz.wav
2	188	1	1	1	C	0	0	0	0	poli_8sides 12_whiteLine3.jpg	MediumShort_b16_cut3_MS_stereo_44KHz.wav
2	189	2	1	0	C	2	1	1202	1	poli_8sides 7_whiteLine3.jpg	MediumShort_b16_cut3_MS_stereo_44KHz.wav
2	190	3	3	2	I	2	0	1451	1	poli_8sides 3_whiteLine3.jpg	MediumShort_b10_cut1_MS_stereo_44KHz.wav
2	191	1	2	0	C	2	1	1391	1	poli_8sides 12_whiteLine3.jpg	MediumShort_e16_cut1_stereo_44KHz.wav
2	192	4	3	2	I	1	0	1110	0	poli_8sides 8_whiteLine3.jpg	MediumShort_b10_cut1_MS_stereo_44KHz.wav
2	193	3	3	2	I	1	0	880	0	poli_8sides 3_whiteLine3.jpg	MediumShort_b10_cut1_MS_stereo_44KHz.wav
2	194	1	2	0	C	2	1	1333	1	poli_8sides 12_whiteLine3.jpg	MediumShort_e16_cut1_stereo_44KHz.wav
2	195	2	1	0	C	2	1	1092	1	poli_8sides 7_whiteLine3.jpg	MediumShort_b16_cut3_MS_stereo_44KHz.wav
2	196	4	3	2	I	2	0	1005	0	poli_8sides 8_whiteLine3.jpg	MediumShort_b10_cut1_MS_stereo_44KHz.wav
2	197	2	2	1	C	1	1	1169	1	poli_8sides 7_whiteLine3.jpg	MediumShort_e16_cut1_stereo_44KHz.wav
2	198	4	4	2	I	2	0	875	1	poli_8sides 8_whiteLine3.jpg	MediumShort_e22_cut1_stereo_44KHz.wav
2	199	3	4	2	I	1	0	832	1	poli_8sides 3_whiteLine3.jpg	MediumShort_e22_cut1_stereo_44KHz.wav
2	200	1	1	1	C	1	1	1204	1	poli_8sides 12_whiteLine3.jpg	MediumShort_b16_cut3_MS_stereo_44KHz.wav
3	1	1	1	1	C	2	0	1305	0	poli_8sides 15_whiteLine3.jpg	Short_b22_cut1_stereo_44KHz.wav
3	2	3	3	2	I	2	0	750	1	poli_8sides 16_whiteLine3.jpg	Short_b09_cut1_stereo_44KHz.wav
3	3	4	4	2	I	2	0	524	0	poli_8sides 6_whiteLine3.jpg	Short_b20_cut1_stereo_44KHz.wav
3	4	2	2	1	C	2	0	589	0	poli_8sides 1_whiteLine3.jpg	Short_b23_cut1_stereo_44KHz.wav
3	5	1	2	0	C	2	1	734	1	poli_8sides 15_whiteLine3.jpg	Short_b23_cut1_stereo_44KHz.wav
3	6	3	4	2	I	1	0	886	1	poli_8sides 16_whiteLine3.jpg	Short_b20_cut1_stereo_44KHz.wav
3	7	4	3	2	I	1	0	971	1	poli_8sides 6_whiteLine3.jpg	Short_b09_cut1_stereo_44KHz.wav
3	8	2	1	0	C	2	1	895	1	poli_8sides 1_whiteLine3.jpg	Short_b22_cut1_stereo_44KHz.wav
3	9	4	4	2	I	2	0	1476	0	poli_8sides 6_whiteLine3.jpg	Short_b20_cut1_stereo_44KHz.wav
3	10	2	1	0	C	2	1	1104	1	poli_8sides 1_whiteLine3.jpg	Short_b22_cut1_stereo_44KHz.wav
3	11	3	3	2	I	2	0	1099	0	poli_8sides 16_whiteLine3.jpg	Short_b09_cut1_stereo_44KHz.wav
3	12	1	1	1	C	2	0	958	0	poli_8sides 15_whiteLine3.jpg	Short_b22_cut1_stereo_44KHz.wav
3	13	2	2	1	C	2	0	743	0	poli_8sides 1_whiteLine3.jpg	Short_b23_cut1_stereo_44KHz.wav
3	14	4	3	2	I	2	0	1455	1	poli_8sides 6_whiteLine3.jpg	Short_b09_cut1_stereo_44KHz.wav
3	15	1	2	0	C	1	0	1646	0	poli_8sides 15_whiteLine3.jpg	Short_b23_cut1_stereo_44KHz.wav
3	16	3	4	2	I	1	0	923	0	poli_8sides 16_whiteLine3.jpg	Short_b20_cut1_stereo_44KHz.wav
3	17	2	2	1	C	2	0	726	0	poli_8sides 1_whiteLine3.jpg	Short_b23_cut1_stereo_44KHz.wav
3	18	1	2	0	C	2	1	771	1	poli_8sides 15_whiteLine3.jpg	Short_b23_cut1_stereo_44KHz.wav
3	19	4	4	2	I	2	0	1015	1	poli_8sides 6_whiteLine3.jpg	Short_b20_cut1_stereo_44KHz.wav
3	20	3	3	2	I	2	0	1094	1	poli_8sides 16_whiteLine3.jpg	Short_b09_cut1_stereo_44KHz.wav
3	21	2	1	0	C	2	1	763	1	poli_8sides 1_whiteLine3.jpg	Short_b22_cut1_stereo_44KHz.wav
3	22	4	3	2	I	1	0	1127	1	poli_8sides 6_whiteLine3.jpg	Short_b09_cut1_stereo_44KHz.wav
3	23	3	4	2	I	1	0	914	1	poli_8sides 16_whiteLine3.jpg	Short_b20_cut1_stereo_44KHz.wav
3	24	1	1	1	C	2	0	846	0	poli_8sides 15_whiteLine3.jpg	Short_b22_cut1_stereo_44KHz.wav
3	25	2	1	0	C	2	1	1490	1	poli_8sides 1_whiteLine3.jpg	Short_b22_cut1_stereo_44KHz.wav
3	26	4	4	2	I	2	0	1971	1	poli_8sides 6_whiteLine3.jpg	Short_b20_cut1_stereo_44KHz.wav
3	27	3	3	2	I	2	0	819	1	poli_8sides 16_whiteLine3.jpg	Short_b09_cut1_stereo_44KHz.wav
3	28	1	1	1	C	2	0	855	0	poli_8sides 15_whiteLine3.jpg	Short_b22_cut1_stereo_44KHz.wav
3	29	4	3	2	I	1	0	983	0	poli_8sides 6_whiteLine3.jpg	Short_b09_cut1_stereo_44KHz.wav
3	30	2	2	1	C	2	0	748	0	poli_8sides 1_whiteLine3.jpg	Short_b23_cut1_stereo_44KHz.wav
3	31	3	4	2	I	1	0	895	1	poli_8sides 16_whiteLine3.jpg	Short_b20_cut1_stereo_44KHz.wav
3	32	1	2	0	C	2	1	743	1	poli_8sides 15_whiteLine3.jpg	Short_b23_cut1_stereo_44KHz.wav
3	33	4	3	2	I	1	0	1243	1	poli_8sides 6_whiteLine3.jpg	Short_b09_cut1_stereo_44KHz.wav
3	34	1	2	0	C	2	1	858	1	poli_8sides 15_whiteLine3.jpg	Short_b23_cut1_stereo_44KHz.wav
3	35	3	3	2	I	2	0	758	1	poli_8sides 16_whiteLine3.jpg	Short_b09_cut1_stereo_44KHz.wav
3	36	2	1	0	C	2	1	1251	1	poli_8sides 1_whiteLine3.jpg	Short_b22_cut1_stereo_44KHz.wav
3	37	4	4	2	I	2	0	1049	0	poli_8sides 6_whiteLine3.jpg	Short_b20_cut1_stereo_44KHz.wav
3	38	2	2	1	C	2	0	1521	0	poli_8sides 1_whiteLine3.jpg	Short_b23_cut1_stereo_44KHz.wav
3	39	3	4	2	I	1	0	769	0	poli_8sides 16_whiteLine3.jpg	Short_b20_cut1_stereo_44KHz.wav
3	40	1	1	1	C	2	0	752	0	poli_8sides 15_whiteLine3.jpg	Short_b22_cut1_stereo_44KHz.wav
3	41	4	3	2	I	2	0	1031	1	poli_8sides 6_whiteLine3.jpg	Short_b09_cut1_stereo_44KHz.wav
3	42	2	2	1	C	2	0	818	0	poli_8sides 1_whiteLine3.jpg	Short_b23_cut1_stereo_44KHz.wav
3	43	1	1	1	C	1	1	1106	1	poli_8sides 15_whiteLine3.jpg	Short_b22_cut1_stereo_44KHz.wav
3	44	3	4	2	I	1	0	880	0	poli_8sides 16_whiteLine3.jpg	Short_b20_cut1_stereo_44KHz.wav
3	45	4	4	2	I	1	0	1409	0	poli_8sides 6_whiteLine3.jpg	Short_b20_cut1_stereo_44KHz.wav
3	46	2	1	0	C	2	1	753	1	poli_8sides 1_whiteLine3.jpg	Short_b22_cut1_stereo_44KHz.wav
3	47	1	2	0	C	2	1	738	1	poli_8sides 15_whiteLine3.jpg	Short_b23_cut1_stereo_44KHz.wav
3	48	3	3	2	I	2	0	702	0	poli_8sides 16_whiteLine3.jpg	Short_b09_cut1_stereo_44KHz.wav
3	49	2	2	1	C	2	0	719	0	poli_8sides 1_whiteLine3.jpg	Short_b23_cut1_stereo_44KHz.wav
3	50	3	3	2	I	2	0	670	1	poli_8sides 16_whiteLine3.jpg	Short_b09_cut1_stereo_44KHz.wav
3	51	4	3	2	I	1	0	826	0	poli_8sides 6_whiteLine3.jpg	Short_b09_cut1_stereo_44KHz.wav
3	52	1	2	0	C	2	1	983	1	poli_8sides 15_whiteLine3.jpg	Short_b23_cut1_stereo_44KHz.wav
3	53	3	4	2	I	2	0	1140	1	poli_8sides 16_whiteLine3.jpg	Short_b20_cut1_stereo_44KHz.wav
3	54	1	1	1	C	2	0	858	0	poli_8sides 15_whiteLine3.jpg	Short_b22_cut1_stereo_44KHz.wav
3	55	2	1	0	C	2	1	799	1	poli_8sides 1_whiteLine3.jpg	Short_b22_cut1_stereo_44KHz.wav
3	56	4	4	2	I	2	0	1095	1	poli_8sides 6_whiteLine3.jpg	Short_b20_cut1_stereo_44KHz.wav
3	57	2	1	0	C	2	1	1005	1	poli_8sides 1_whiteLine3.jpg	Short_b22_cut1_stereo_44KHz.wav
3	58	4	3	2	I	2	0	699	0	poli_8sides 6_whiteLine3.jpg	Short_b09_cut1_stereo_44KHz.wav
3	59	1	2	0	C	2	1	850	1	poli_8sides 15_whiteLine3.jpg	Short_b23_cut1_stereo_44KHz.wav
3	60	3	3	2	I	2	0	741	1	poli_8sides 16_whiteLine3.jpg	Short_b09_cut1_stereo_44KHz.wav
3	61	1	1	1	C	2	0	961	0	poli_8sides 15_whiteLine3.jpg	Short_b22_cut1_stereo_44KHz.wav
3	62	3	4	2	I	2	0	821	1	poli_8sides 16_whiteLine3.jpg	Short_b20_cut1_stereo_44KHz.wav
3	63	4	4	2	I	1	0	866	0	poli_8sides 6_whiteLine3.jpg	Short_b20_cut1_stereo_44KHz.wav
3	64	2	2	1	C	2	0	759	0	poli_8sides 1_whiteLine3.jpg	Short_b23_cut1_stereo_44KHz.wav
3	65	1	1	1	C	1	1	919	1	poli_8sides 15_whiteLine3.jpg	Short_b22_cut1_stereo_44KHz.wav
3	66	2	2	1	C	1	1	1042	1	poli_8sides 1_whiteLine3.jpg	Short_b23_cut1_stereo_44KHz.wav
3	67	4	4	2	I	2	0	939	0	poli_8sides 6_whiteLine3.jpg	Short_b20_cut1_stereo_44KHz.wav
3	68	3	3	2	I	2	0	471	1	poli_8sides 16_whiteLine3.jpg	Short_b09_cut1_stereo_44KHz.wav
3	69	2	1	0	C	2	1	1224	1	poli_8sides 1_whiteLine3.jpg	Short_b22_cut1_stereo_44KHz.wav
3	70	1	2	0	C	1	0	1518	0	poli_8sides 15_whiteLine3.jpg	Short_b23_cut1_stereo_44KHz.wav
3	71	3	4	2	I	2	0	679	1	poli_8sides 16_whiteLine3.jpg	Short_b20_cut1_stereo_44KHz.wav
3	72	4	3	2	I	2	0	532	1	poli_8sides 6_whiteLine3.jpg	Short_b09_cut1_stereo_44KHz.wav
3	73	1	1	1	C	1	1	1132	1	poli_8sides 15_whiteLine3.jpg	Short_b22_cut1_stereo_44KHz.wav
3	74	2	2	1	C	2	0	1269	0	poli_8sides 1_whiteLine3.jpg	Short_b23_cut1_stereo_44KHz.wav
3	75	4	4	2	I	2	0	1072	1	poli_8sides 6_whiteLine3.jpg	Short_b20_cut1_stereo_44KHz.wav
3	76	3	4	2	I	1	0	919	1	poli_8sides 16_whiteLine3.jpg	Short_b20_cut1_stereo_44KHz.wav
3	77	4	3	2	I	2	0	758	1	poli_8sides 6_whiteLine3.jpg	Short_b09_cut1_stereo_44KHz.wav
3	78	2	1	0	C	2	1	1403	1	poli_8sides 1_whiteLine3.jpg	Short_b22_cut1_stereo_44KHz.wav
3	79	3	3	2	I	2	0	753	0	poli_8sides 16_whiteLine3.jpg	Short_b09_cut1_stereo_44KHz.wav
3	80	1	2	0	C	2	1	887	1	poli_8sides 15_whiteLine3.jpg	Short_b23_cut1_stereo_44KHz.wav
3	81	2	2	1	C	1	1	902	1	poli_8sides 1_whiteLine3.jpg	Short_b23_cut1_stereo_44KHz.wav
3	82	3	3	2	I	2	0	1012	0	poli_8sides 16_whiteLine3.jpg	Short_b09_cut1_stereo_44KHz.wav
3	83	1	2	0	C	2	1	973	1	poli_8sides 15_whiteLine3.jpg	Short_b23_cut1_stereo_44KHz.wav
3	84	4	4	2	I	1	0	1453	0	poli_8sides 6_whiteLine3.jpg	Short_b20_cut1_stereo_44KHz.wav
3	85	1	1	1	C	1	1	1017	1	poli_8sides 15_whiteLine3.jpg	Short_b22_cut1_stereo_44KHz.wav
3	86	4	3	2	I	1	0	815	0	poli_8sides 6_whiteLine3.jpg	Short_b09_cut1_stereo_44KHz.wav
3	87	2	1	0	C	2	1	842	1	poli_8sides 1_whiteLine3.jpg	Short_b22_cut1_stereo_44KHz.wav
3	88	3	4	2	I	2	0	668	0	poli_8sides 16_whiteLine3.jpg	Short_b20_cut1_stereo_44KHz.wav
3	89	4	3	2	I	2	0	999	0	poli_8sides 6_whiteLine3.jpg	Short_b09_cut1_stereo_44KHz.wav
3	90	2	1	0	C	2	1	666	1	poli_8sides 1_whiteLine3.jpg	Short_b22_cut1_stereo_44KHz.wav
3	91	1	1	1	C	1	1	1173	1	poli_8sides 15_whiteLine3.jpg	Short_b22_cut1_stereo_44KHz.wav
3	92	3	3	2	I	2	0	718	1	poli_8sides 16_whiteLine3.jpg	Short_b09_cut1_stereo_44KHz.wav
3	93	1	2	0	C	2	1	919	1	poli_8sides 15_whiteLine3.jpg	Short_b23_cut1_stereo_44KHz.wav
3	94	2	2	1	C	1	1	993	1	poli_8sides 1_whiteLine3.jpg	Short_b23_cut1_stereo_44KHz.wav
3	95	4	4	2	I	2	0	837	1	poli_8sides 6_whiteLine3.jpg	Short_b20_cut1_stereo_44KHz.wav
3	96	3	4	2	I	1	0	734	1	poli_8sides 16_whiteLine3.jpg	Short_b20_cut1_stereo_44KHz.wav
3	97	2	2	1	C	1	1	943	1	poli_8sides 1_whiteLine3.jpg	Short_b23_cut1_stereo_44KHz.wav
3	98	4	3	2	I	1	0	893	0	poli_8sides 6_whiteLine3.jpg	Short_b09_cut1_stereo_44KHz.wav
3	99	3	3	2	I	1	0	767	1	poli_8sides 16_whiteLine3.jpg	Short_b09_cut1_stereo_44KHz.wav
3	100	1	1	1	C	2	0	1245	0	poli_8sides 15_whiteLine3.jpg	Short_b22_cut1_stereo_44KHz.wav
3	101	2	1	0	C	2	1	998	1	poli_8sides 1_whiteLine3.jpg	Short_b22_cut1_stereo_44KHz.wav
3	102	4	4	2	I	1	0	1164	1	poli_8sides 6_whiteLine3.jpg	Short_b20_cut1_stereo_44KHz.wav
3	103	3	4	2	I	2	0	779	0	poli_8sides 16_whiteLine3.jpg	Short_b20_cut1_stereo_44KHz.wav
3	104	1	2	0	C	2	1	953	1	poli_8sides 15_whiteLine3.jpg	Short_b23_cut1_stereo_44KHz.wav
3	105	3	4	2	I	1	0	1160	0	poli_8sides 16_whiteLine3.jpg	Short_b20_cut1_stereo_44KHz.wav
3	106	2	1	0	C	2	1	1148	1	poli_8sides 1_whiteLine3.jpg	Short_b22_cut1_stereo_44KHz.wav
3	107	4	4	2	I	2	0	796	0	poli_8sides 6_whiteLine3.jpg	Short_b20_cut1_stereo_44KHz.wav
3	108	1	2	0	C	2	1	986	1	poli_8sides 15_whiteLine3.jpg	Short_b23_cut1_stereo_44KHz.wav
3	109	3	3	2	I	1	0	757	0	poli_8sides 16_whiteLine3.jpg	Short_b09_cut1_stereo_44KHz.wav
3	110	4	3	2	I	1	0	872	0	poli_8sides 6_whiteLine3.jpg	Short_b09_cut1_stereo_44KHz.wav
3	111	2	2	1	C	1	1	994	1	poli_8sides 1_whiteLine3.jpg	Short_b23_cut1_stereo_44KHz.wav
3	112	1	1	1	C	1	1	1482	1	poli_8sides 15_whiteLine3.jpg	Short_b22_cut1_stereo_44KHz.wav
3	113	4	4	2	I	2	0	948	1	poli_8sides 6_whiteLine3.jpg	Short_b20_cut1_stereo_44KHz.wav
3	114	1	2	0	C	2	1	1267	1	poli_8sides 15_whiteLine3.jpg	Short_b23_cut1_stereo_44KHz.wav
3	115	3	4	2	I	1	0	993	1	poli_8sides 16_whiteLine3.jpg	Short_b20_cut1_stereo_44KHz.wav
3	116	2	2	1	C	1	1	1037	1	poli_8sides 1_whiteLine3.jpg	Short_b23_cut1_stereo_44KHz.wav
3	117	3	3	2	I	2	0	758	1	poli_8sides 16_whiteLine3.jpg	Short_b09_cut1_stereo_44KHz.wav
3	118	2	1	0	C	2	1	955	1	poli_8sides 1_whiteLine3.jpg	Short_b22_cut1_stereo_44KHz.wav
3	119	1	1	1	C	1	1	814	1	poli_8sides 15_whiteLine3.jpg	Short_b22_cut1_stereo_44KHz.wav
3	120	4	3	2	I	2	0	891	0	poli_8sides 6_whiteLine3.jpg	Short_b09_cut1_stereo_44KHz.wav
3	121	1	1	1	C	2	0	1116	0	poli_8sides 15_whiteLine3.jpg	Short_b22_cut1_stereo_44KHz.wav
3	122	4	4	2	I	2	0	892	0	poli_8sides 6_whiteLine3.jpg	Short_b20_cut1_stereo_44KHz.wav
3	123	3	3	2	I	1	0	766	0	poli_8sides 16_whiteLine3.jpg	Short_b09_cut1_stereo_44KHz.wav
3	124	2	2	1	C	2	0	938	0	poli_8sides 1_whiteLine3.jpg	Short_b23_cut1_stereo_44KHz.wav
3	125	3	4	2	I	2	0	648	0	poli_8sides 16_whiteLine3.jpg	Short_b20_cut1_stereo_44KHz.wav
3	126	4	3	2	I	2	0	749	0	poli_8sides 6_whiteLine3.jpg	Short_b09_cut1_stereo_44KHz.wav
3	127	1	2	0	C	2	1	587	1	poli_8sides 15_whiteLine3.jpg	Short_b23_cut1_stereo_44KHz.wav
3	128	2	1	0	C	2	1	649	1	poli_8sides 1_whiteLine3.jpg	Short_b22_cut1_stereo_44KHz.wav
3	129	4	4	2	I	2	0	643	1	poli_8sides 6_whiteLine3.jpg	Short_b20_cut1_stereo_44KHz.wav
3	130	3	3	2	I	2	0	500	1	poli_8sides 16_whiteLine3.jpg	Short_b09_cut1_stereo_44KHz.wav
3	131	2	1	0	C	1	0	1080	0	poli_8sides 1_whiteLine3.jpg	Short_b22_cut1_stereo_44KHz.wav
3	132	1	1	1	C	1	1	1162	1	poli_8sides 15_whiteLine3.jpg	Short_b22_cut1_stereo_44KHz.wav
3	133	3	4	2	I	2	0	962	1	poli_8sides 16_whiteLine3.jpg	Short_b20_cut1_stereo_44KHz.wav
3	134	1	2	0	C	2	1	972	1	poli_8sides 15_whiteLine3.jpg	Short_b23_cut1_stereo_44KHz.wav
3	135	2	2	1	C	1	1	893	1	poli_8sides 1_whiteLine3.jpg	Short_b23_cut1_stereo_44KHz.wav
3	136	4	3	2	I	1	0	1527	0	poli_8sides 6_whiteLine3.jpg	Short_b09_cut1_stereo_44KHz.wav
3	137	3	3	2	I	1	0	1062	0	poli_8sides 16_whiteLine3.jpg	Short_b09_cut1_stereo_44KHz.wav
3	138	2	1	0	C	2	1	1355	1	poli_8sides 1_whiteLine3.jpg	Short_b22_cut1_stereo_44KHz.wav
3	139	4	4	2	I	2	0	868	1	poli_8sides 6_whiteLine3.jpg	Short_b20_cut1_stereo_44KHz.wav
3	140	1	1	1	C	1	1	942	1	poli_8sides 15_whiteLine3.jpg	Short_b22_cut1_stereo_44KHz.wav
3	141	4	3	2	I	1	0	895	0	poli_8sides 6_whiteLine3.jpg	Short_b09_cut1_stereo_44KHz.wav
3	142	1	2	0	C	2	1	787	1	poli_8sides 15_whiteLine3.jpg	Short_b23_cut1_stereo_44KHz.wav
3	143	3	4	2	I	2	0	1326	0	poli_8sides 16_whiteLine3.jpg	Short_b20_cut1_stereo_44KHz.wav
3	144	2	2	1	C	2	0	1541	0	poli_8sides 1_whiteLine3.jpg	Short_b23_cut1_stereo_44KHz.wav
3	145	3	4	2	I	1	0	956	0	poli_8sides 16_whiteLine3.jpg	Short_b20_cut1_stereo_44KHz.wav
3	146	2	1	0	C	2	1	1600	1	poli_8sides 1_whiteLine3.jpg	Short_b22_cut1_stereo_44KHz.wav
3	147	1	2	0	C	2	1	970	1	poli_8sides 15_whiteLine3.jpg	Short_b23_cut1_stereo_44KHz.wav
3	148	4	3	2	I	1	0	1300	1	poli_8sides 6_whiteLine3.jpg	Short_b09_cut1_stereo_44KHz.wav
3	149	2	2	1	C	1	1	1121	1	poli_8sides 1_whiteLine3.jpg	Short_b23_cut1_stereo_44KHz.wav
3	150	4	4	2	I	2	0	1299	1	poli_8sides 6_whiteLine3.jpg	Short_b20_cut1_stereo_44KHz.wav
3	151	1	1	1	C	1	1	885	1	poli_8sides 15_whiteLine3.jpg	Short_b22_cut1_stereo_44KHz.wav
3	152	3	3	2	I	2	0	898	0	poli_8sides 16_whiteLine3.jpg	Short_b09_cut1_stereo_44KHz.wav
3	153	1	2	0	C	2	1	1039	1	poli_8sides 15_whiteLine3.jpg	Short_b23_cut1_stereo_44KHz.wav
3	154	2	2	1	C	1	1	863	1	poli_8sides 1_whiteLine3.jpg	Short_b23_cut1_stereo_44KHz.wav
3	155	4	4	2	I	2	0	853	1	poli_8sides 6_whiteLine3.jpg	Short_b20_cut1_stereo_44KHz.wav
3	156	3	4	2	I	1	0	892	0	poli_8sides 16_whiteLine3.jpg	Short_b20_cut1_stereo_44KHz.wav
3	157	2	1	0	C	2	1	873	1	poli_8sides 1_whiteLine3.jpg	Short_b22_cut1_stereo_44KHz.wav
3	158	3	3	2	I	2	0	907	0	poli_8sides 16_whiteLine3.jpg	Short_b09_cut1_stereo_44KHz.wav
3	159	1	1	1	C	1	1	934	1	poli_8sides 15_whiteLine3.jpg	Short_b22_cut1_stereo_44KHz.wav
3	160	4	3	2	I	2	0	985	1	poli_8sides 6_whiteLine3.jpg	Short_b09_cut1_stereo_44KHz.wav
3	161	3	4	2	I	1	0	1011	1	poli_8sides 16_whiteLine3.jpg	Short_b20_cut1_stereo_44KHz.wav
3	162	2	1	0	C	2	1	1437	1	poli_8sides 1_whiteLine3.jpg	Short_b22_cut1_stereo_44KHz.wav
3	163	1	1	1	C	1	1	937	1	poli_8sides 15_whiteLine3.jpg	Short_b22_cut1_stereo_44KHz.wav
3	164	4	3	2	I	1	0	1324	0	poli_8sides 6_whiteLine3.jpg	Short_b09_cut1_stereo_44KHz.wav
3	165	2	2	1	C	1	1	1497	1	poli_8sides 1_whiteLine3.jpg	Short_b23_cut1_stereo_44KHz.wav
3	166	4	4	2	I	2	0	1206	1	poli_8sides 6_whiteLine3.jpg	Short_b20_cut1_stereo_44KHz.wav
3	167	3	3	2	I	2	0	890	1	poli_8sides 16_whiteLine3.jpg	Short_b09_cut1_stereo_44KHz.wav
3	168	1	2	0	C	2	1	982	1	poli_8sides 15_whiteLine3.jpg	Short_b23_cut1_stereo_44KHz.wav
3	169	2	2	1	C	1	1	879	1	poli_8sides 1_whiteLine3.jpg	Short_b23_cut1_stereo_44KHz.wav
3	170	4	4	2	I	2	0	848	1	poli_8sides 6_whiteLine3.jpg	Short_b20_cut1_stereo_44KHz.wav
3	171	3	3	2	I	2	0	829	0	poli_8sides 16_whiteLine3.jpg	Short_b09_cut1_stereo_44KHz.wav
3	172	1	1	1	C	1	1	978	1	poli_8sides 15_whiteLine3.jpg	Short_b22_cut1_stereo_44KHz.wav
3	173	3	4	2	I	1	0	1533	1	poli_8sides 16_whiteLine3.jpg	Short_b20_cut1_stereo_44KHz.wav
3	174	1	2	0	C	2	1	925	1	poli_8sides 15_whiteLine3.jpg	Short_b23_cut1_stereo_44KHz.wav
3	175	4	3	2	I	1	0	1073	1	poli_8sides 6_whiteLine3.jpg	Short_b09_cut1_stereo_44KHz.wav
3	176	2	1	0	C	2	1	1272	1	poli_8sides 1_whiteLine3.jpg	Short_b22_cut1_stereo_44KHz.wav
3	177	3	3	2	I	2	0	905	0	poli_8sides 16_whiteLine3.jpg	Short_b09_cut1_stereo_44KHz.wav
3	178	4	4	2	I	2	0	1480	0	poli_8sides 6_whiteLine3.jpg	Short_b20_cut1_stereo_44KHz.wav
3	179	1	2	0	C	2	1	823	1	poli_8sides 15_whiteLine3.jpg	Short_b23_cut1_stereo_44KHz.wav
3	180	2	2	1	C	1	1	775	1	poli_8sides 1_whiteLine3.jpg	Short_b23_cut1_stereo_44KHz.wav
3	181	3	4	2	I	1	0	963	1	poli_8sides 16_whiteLine3.jpg	Short_b20_cut1_stereo_44KHz.wav
3	182	2	1	0	C	2	1	1666	1	poli_8sides 1_whiteLine3.jpg	Short_b22_cut1_stereo_44KHz.wav
3	183	1	1	1	C	1	1	808	1	poli_8sides 15_whiteLine3.jpg	Short_b22_cut1_stereo_44KHz.wav
3	184	4	3	2	I	2	0	998	1	poli_8sides 6_whiteLine3.jpg	Short_b09_cut1_stereo_44KHz.wav
3	185	3	3	2	I	1	0	687	0	poli_8sides 16_whiteLine3.jpg	Short_b09_cut1_stereo_44KHz.wav
3	186	2	1	0	C	2	1	1116	1	poli_8sides 1_whiteLine3.jpg	Short_b22_cut1_stereo_44KHz.wav
3	187	4	4	2	I	2	0	1152	0	poli_8sides 6_whiteLine3.jpg	Short_b20_cut1_stereo_44KHz.wav
3	188	1	1	1	C	1	1	1320	1	poli_8sides 15_whiteLine3.jpg	Short_b22_cut1_stereo_44KHz.wav
3	189	3	4	2	I	2	0	746	0	poli_8sides 16_whiteLine3.jpg	Short_b20_cut1_stereo_44KHz.wav
3	190	2	2	1	C	1	1	1084	1	poli_8sides 1_whiteLine3.jpg	Short_b23_cut1_stereo_44KHz.wav
3	191	1	2	0	C	2	1	1173	1	poli_8sides 15_whiteLine3.jpg	Short_b23_cut1_stereo_44KHz.wav
3	192	4	3	2	I	1	0	1304	0	poli_8sides 6_whiteLine3.jpg	Short_b09_cut1_stereo_44KHz.wav
3	193	3	4	2	I	2	0	1060	0	poli_8sides 16_whiteLine3.jpg	Short_b20_cut1_stereo_44KHz.wav
3	194	2	1	0	C	2	1	1050	1	poli_8sides 1_whiteLine3.jpg	Short_b22_cut1_stereo_44KHz.wav
3	195	1	1	1	C	1	1	876	1	poli_8sides 15_whiteLine3.jpg	Short_b22_cut1_stereo_44KHz.wav
3	196	4	4	2	I	2	0	1244	1	poli_8sides 6_whiteLine3.jpg	Short_b20_cut1_stereo_44KHz.wav
3	197	2	2	1	C	1	1	1119	1	poli_8sides 1_whiteLine3.jpg	Short_b23_cut1_stereo_44KHz.wav
3	198	1	2	0	C	2	1	865	1	poli_8sides 15_whiteLine3.jpg	Short_b23_cut1_stereo_44KHz.wav
3	199	4	3	2	I	2	0	1146	0	poli_8sides 6_whiteLine3.jpg	Short_b09_cut1_stereo_44KHz.wav
3	200	3	3	2	I	2	0	554	0	poli_8sides 16_whiteLine3.jpg	Short_b09_cut1_stereo_44KHz.wav
4	1	4	4	2	I	2	0	1522	1	poli_8sides 9_whiteLine3.jpg	Medium_e26_stereo_44KHz.wav
4	2	3	3	2	I	2	0	1198	0	poli_8sides 4_whiteLine3.jpg	Medium_e13_stereo_44KHz.wav
4	3	1	2	0	C	2	1	1000	1	poli_8sides 11_whiteLine3.jpg	MediumLong_e04_stereo_44KHz.wav
4	4	2	2	1	C	1	1	776	1	poli_8sides 5_whiteLine3.jpg	MediumLong_e04_stereo_44KHz.wav
4	5	1	1	1	C	1	1	720	1	poli_8sides 11_whiteLine3.jpg	Medium_e01_cut1_stereo_44KHz.wav
4	6	4	3	2	I	2	0	872	1	poli_8sides 9_whiteLine3.jpg	Medium_e13_stereo_44KHz.wav
4	7	2	1	0	C	1	0	1197	0	poli_8sides 5_whiteLine3.jpg	Medium_e01_cut1_stereo_44KHz.wav
4	8	3	4	2	I	2	0	887	0	poli_8sides 4_whiteLine3.jpg	Medium_e26_stereo_44KHz.wav
4	9	1	2	0	C	2	1	997	1	poli_8sides 11_whiteLine3.jpg	MediumLong_e04_stereo_44KHz.wav
4	10	3	4	2	I	2	0	952	0	poli_8sides 4_whiteLine3.jpg	Medium_e26_stereo_44KHz.wav
4	11	4	3	2	I	2	0	717	0	poli_8sides 9_whiteLine3.jpg	Medium_e13_stereo_44KHz.wav
4	12	2	1	0	C	2	1	840	1	poli_8sides 5_whiteLine3.jpg	Medium_e01_cut1_stereo_44KHz.wav
4	13	1	1	1	C	1	1	652	1	poli_8sides 11_whiteLine3.jpg	Medium_e01_cut1_stereo_44KHz.wav
4	14	3	3	2	I	1	0	933	0	poli_8sides 4_whiteLine3.jpg	Medium_e13_stereo_44KHz.wav
4	15	2	2	1	C	1	1	1365	1	poli_8sides 5_whiteLine3.jpg	MediumLong_e04_stereo_44KHz.wav
4	16	4	4	2	I	2	0	1038	0	poli_8sides 9_whiteLine3.jpg	Medium_e26_stereo_44KHz.wav
4	17	1	2	0	C	2	1	804	1	poli_8sides 11_whiteLine3.jpg	MediumLong_e04_stereo_44KHz.wav
4	18	4	4	2	I	2	0	1515	0	poli_8sides 9_whiteLine3.jpg	Medium_e26_stereo_44KHz.wav
4	19	3	3	2	I	1	0	1037	0	poli_8sides 4_whiteLine3.jpg	Medium_e13_stereo_44KHz.wav
4	20	2	2	1	C	1	1	1314	1	poli_8sides 5_whiteLine3.jpg	MediumLong_e04_stereo_44KHz.wav
4	21	1	1	1	C	2	0	696	0	poli_8sides 11_whiteLine3.jpg	Medium_e01_cut1_stereo_44KHz.wav
4	22	2	1	0	C	2	1	1458	1	poli_8sides 5_whiteLine3.jpg	Medium_e01_cut1_stereo_44KHz.wav
4	23	3	4	2	I	2	0	1361	1	poli_8sides 4_whiteLine3.jpg	Medium_e26_stereo_44KHz.wav
4	24	4	3	2	I	2	0	984	0	poli_8sides 9_whiteLine3.jpg	Medium_e13_stereo_44KHz.wav
4	25	1	1	1	C	2	0	713	0	poli_8sides 11_whiteLine3.jpg	Medium_e01_cut1_stereo_44KHz.wav
4	26	3	4	2	I	2	0	689	1	poli_8sides 4_whiteLine3.jpg	Medium_e26_stereo_44KHz.wav
4	27	2	2	1	C	1	1	1035	1	poli_8sides 5_whiteLine3.jpg	MediumLong_e04_stereo_44KHz.wav
4	28	4	3	2	I	2	0	1196	1	poli_8sides 9_whiteLine3.jpg	Medium_e13_stereo_44KHz.wav
4	29	1	2	0	C	2	1	717	1	poli_8sides 11_whiteLine3.jpg	MediumLong_e04_stereo_44KHz.wav
4	30	4	4	2	I	1	0	1231	1	poli_8sides 9_whiteLine3.jpg	Medium_e26_stereo_44KHz.wav
4	31	3	3	2	I	1	0	927	0	poli_8sides 4_whiteLine3.jpg	Medium_e13_stereo_44KHz.wav
4	32	2	1	0	C	2	1	859	1	poli_8sides 5_whiteLine3.jpg	Medium_e01_cut1_stereo_44KHz.wav
4	33	4	4	2	I	2	0	1311	1	poli_8sides 9_whiteLine3.jpg	Medium_e26_stereo_44KHz.wav
4	34	2	1	0	C	2	1	897	1	poli_8sides 5_whiteLine3.jpg	Medium_e01_cut1_stereo_44KHz.wav
4	35	3	3	2	I	2	0	849	0	poli_8sides 4_whiteLine3.jpg	Medium_e13_stereo_44KHz.wav
4	36	1	1	1	C	1	1	1006	1	poli_8sides 11_whiteLine3.jpg	Medium_e01_cut1_stereo_44KHz.wav
4	37	2	2	1	C	1	1	1185	1	poli_8sides 5_whiteLine3.jpg	MediumLong_e04_stereo_44KHz.wav
4	38	4	3	2	I	2	0	1068	0	poli_8sides 9_whiteLine3.jpg	Medium_e13_stereo_44KHz.wav
4	39	3	4	2	I	2	0	728	1	poli_8sides 4_whiteLine3.jpg	Medium_e26_stereo_44KHz.wav
4	40	1	2	0	C	2	1	754	1	poli_8sides 11_whiteLine3.jpg	MediumLong_e04_stereo_44KHz.wav
4	41	2	1	0	C	2	1	1091	1	poli_8sides 5_whiteLine3.jpg	Medium_e01_cut1_stereo_44KHz.wav
4	42	3	3	2	I	1	0	775	0	poli_8sides 4_whiteLine3.jpg	Medium_e13_stereo_44KHz.wav
4	43	1	1	1	C	1	1	961	1	poli_8sides 11_whiteLine3.jpg	Medium_e01_cut1_stereo_44KHz.wav
4	44	4	4	2	I	1	0	1440	1	poli_8sides 9_whiteLine3.jpg	Medium_e26_stereo_44KHz.wav
4	45	1	2	0	C	2	1	664	1	poli_8sides 11_whiteLine3.jpg	MediumLong_e04_stereo_44KHz.wav
4	46	4	3	2	I	2	0	1541	0	poli_8sides 9_whiteLine3.jpg	Medium_e13_stereo_44KHz.wav
4	47	3	4	2	I	2	0	833	1	poli_8sides 4_whiteLine3.jpg	Medium_e26_stereo_44KHz.wav
4	48	2	2	1	C	1	1	1113	1	poli_8sides 5_whiteLine3.jpg	MediumLong_e04_stereo_44KHz.wav
4	49	4	4	2	I	1	0	1068	1	poli_8sides 9_whiteLine3.jpg	Medium_e26_stereo_44KHz.wav
4	50	1	1	1	C	1	1	1056	1	poli_8sides 11_whiteLine3.jpg	Medium_e01_cut1_stereo_44KHz.wav
4	51	3	4	2	I	2	0	710	0	poli_8sides 4_whiteLine3.jpg	Medium_e26_stereo_44KHz.wav
4	52	2	1	0	C	2	1	954	1	poli_8sides 5_whiteLine3.jpg	Medium_e01_cut1_stereo_44KHz.wav
4	53	1	2	0	C	2	1	727	1	poli_8sides 11_whiteLine3.jpg	MediumLong_e04_stereo_44KHz.wav
4	54	3	3	2	I	2	0	1045	0	poli_8sides 4_whiteLine3.jpg	Medium_e13_stereo_44KHz.wav
4	55	2	2	1	C	1	1	1007	1	poli_8sides 5_whiteLine3.jpg	MediumLong_e04_stereo_44KHz.wav
4	56	4	3	2	I	2	0	1539	0	poli_8sides 9_whiteLine3.jpg	Medium_e13_stereo_44KHz.wav
4	57	1	2	0	C	1	0	864	0	poli_8sides 11_whiteLine3.jpg	MediumLong_e04_stereo_44KHz.wav
4	58	4	3	2	I	1	0	973	0	poli_8sides 9_whiteLine3.jpg	Medium_e13_stereo_44KHz.wav
4	59	3	4	2	I	2	0	742	1	poli_8sides 4_whiteLine3.jpg	Medium_e26_stereo_44KHz.wav
4	60	2	2	1	C	0	0	0	0	poli_8sides 5_whiteLine3.jpg	MediumLong_e04_stereo_44KHz.wav
4	61	4	4	2	I	2	0	1067	1	poli_8sides 9_whiteLine3.jpg	Medium_e26_stereo_44KHz.wav
4	62	3	3	2	I	1	0	1278	1	poli_8sides 4_whiteLine3.jpg	Medium_e13_stereo_44KHz.wav
4	63	2	1	0	C	2	1	711	1	poli_8sides 5_whiteLine3.jpg	Medium_e01_cut1_stereo_44KHz.wav
4	64	1	1	1	C	1	1	624	1	poli_8sides 11_whiteLine3.jpg	Medium_e01_cut1_stereo_44KHz.wav
4	65	3	4	2	I	2	0	1064	0	poli_8sides 4_whiteLine3.jpg	Medium_e26_stereo_44KHz.wav
4	66	2	1	0	C	2	1	937	1	poli_8sides 5_whiteLine3.jpg	Medium_e01_cut1_stereo_44KHz.wav
4	67	4	3	2	I	2	0	883	1	poli_8sides 9_whiteLine3.jpg	Medium_e13_stereo_44KHz.wav
4	68	1	2	0	C	2	1	834	1	poli_8sides 11_whiteLine3.jpg	MediumLong_e04_stereo_44KHz.wav
4	69	2	2	1	C	1	1	826	1	poli_8sides 5_whiteLine3.jpg	MediumLong_e04_stereo_44KHz.wav
4	70	4	4	2	I	2	0	726	0	poli_8sides 9_whiteLine3.jpg	Medium_e26_stereo_44KHz.wav
4	71	1	1	1	C	1	1	1041	1	poli_8sides 11_whiteLine3.jpg	Medium_e01_cut1_stereo_44KHz.wav
4	72	3	3	2	I	2	0	1275	0	poli_8sides 4_whiteLine3.jpg	Medium_e13_stereo_44KHz.wav
4	73	2	2	1	C	2	0	795	0	poli_8sides 5_whiteLine3.jpg	MediumLong_e04_stereo_44KHz.wav
4	74	3	3	2	I	1	0	1676	0	poli_8sides 4_whiteLine3.jpg	Medium_e13_stereo_44KHz.wav
4	75	4	4	2	I	2	0	1014	1	poli_8sides 9_whiteLine3.jpg	Medium_e26_stereo_44KHz.wav
4	76	1	2	0	C	2	1	882	1	poli_8sides 11_whiteLine3.jpg	MediumLong_e04_stereo_44KHz.wav
4	77	2	1	0	C	2	1	808	1	poli_8sides 5_whiteLine3.jpg	Medium_e01_cut1_stereo_44KHz.wav
4	78	4	3	2	I	2	0	1113	1	poli_8sides 9_whiteLine3.jpg	Medium_e13_stereo_44KHz.wav
4	79	3	4	2	I	2	0	516	0	poli_8sides 4_whiteLine3.jpg	Medium_e26_stereo_44KHz.wav
4	80	1	1	1	C	1	1	937	1	poli_8sides 11_whiteLine3.jpg	Medium_e01_cut1_stereo_44KHz.wav
4	81	2	2	1	C	1	1	1325	1	poli_8sides 5_whiteLine3.jpg	MediumLong_e04_stereo_44KHz.wav
4	82	3	4	2	I	2	0	649	1	poli_8sides 4_whiteLine3.jpg	Medium_e26_stereo_44KHz.wav
4	83	4	4	2	I	1	0	1104	1	poli_8sides 9_whiteLine3.jpg	Medium_e26_stereo_44KHz.wav
4	84	1	1	1	C	1	1	1036	1	poli_8sides 11_whiteLine3.jpg	Medium_e01_cut1_stereo_44KHz.wav
4	85	4	3	2	I	2	0	986	0	poli_8sides 9_whiteLine3.jpg	Medium_e13_stereo_44KHz.wav
4	86	3	3	2	I	1	0	1132	0	poli_8sides 4_whiteLine3.jpg	Medium_e13_stereo_44KHz.wav
4	87	1	2	0	C	2	1	1147	1	poli_8sides 11_whiteLine3.jpg	MediumLong_e04_stereo_44KHz.wav
4	88	2	1	0	C	1	0	678	0	poli_8sides 5_whiteLine3.jpg	Medium_e01_cut1_stereo_44KHz.wav
4	89	3	4	2	I	2	0	1117	0	poli_8sides 4_whiteLine3.jpg	Medium_e26_stereo_44KHz.wav
4	90	2	1	0	C	2	1	910	1	poli_8sides 5_whiteLine3.jpg	Medium_e01_cut1_stereo_44KHz.wav
4	91	4	3	2	I	2	0	817	0	poli_8sides 9_whiteLine3.jpg	Medium_e13_stereo_44KHz.wav
4	92	1	2	0	C	2	1	782	1	poli_8sides 11_whiteLine3.jpg	MediumLong_e04_stereo_44KHz.wav
4	93	3	3	2	I	1	0	1077	1	poli_8sides 4_whiteLine3.jpg	Medium_e13_stereo_44KHz.wav
4	94	4	4	2	I	1	0	1484	0	poli_8sides 9_whiteLine3.jpg	Medium_e26_stereo_44KHz.wav
4	95	1	1	1	C	1	1	1700	1	poli_8sides 11_whiteLine3.jpg	Medium_e01_cut1_stereo_44KHz.wav
4	96	2	2	1	C	1	1	1092	1	poli_8sides 5_whiteLine3.jpg	MediumLong_e04_stereo_44KHz.wav
4	97	4	4	2	I	1	0	1179	0	poli_8sides 9_whiteLine3.jpg	Medium_e26_stereo_44KHz.wav
4	98	1	1	1	C	1	1	1072	1	poli_8sides 11_whiteLine3.jpg	Medium_e01_cut1_stereo_44KHz.wav
4	99	3	4	2	I	2	0	762	0	poli_8sides 4_whiteLine3.jpg	Medium_e26_stereo_44KHz.wav
4	100	2	2	1	C	1	1	1209	1	poli_8sides 5_whiteLine3.jpg	MediumLong_e04_stereo_44KHz.wav
4	101	1	2	0	C	2	1	1190	1	poli_8sides 11_whiteLine3.jpg	MediumLong_e04_stereo_44KHz.wav
4	102	4	3	2	I	2	0	1349	1	poli_8sides 9_whiteLine3.jpg	Medium_e13_stereo_44KHz.wav
4	103	2	1	0	C	2	1	960	1	poli_8sides 5_whiteLine3.jpg	Medium_e01_cut1_stereo_44KHz.wav
4	104	3	3	2	I	1	0	1459	1	poli_8sides 4_whiteLine3.jpg	Medium_e13_stereo_44KHz.wav
4	105	1	2	0	C	2	1	740	1	poli_8sides 11_whiteLine3.jpg	MediumLong_e04_stereo_44KHz.wav
4	106	3	3	2	I	1	0	839	0	poli_8sides 4_whiteLine3.jpg	Medium_e13_stereo_44KHz.wav
4	107	4	3	2	I	2	0	871	1	poli_8sides 9_whiteLine3.jpg	Medium_e13_stereo_44KHz.wav
4	108	2	1	0	C	2	1	807	1	poli_8sides 5_whiteLine3.jpg	Medium_e01_cut1_stereo_44KHz.wav
4	109	1	1	1	C	1	1	863	1	poli_8sides 11_whiteLine3.jpg	Medium_e01_cut1_stereo_44KHz.wav
4	110	2	2	1	C	1	1	1085	1	poli_8sides 5_whiteLine3.jpg	MediumLong_e04_stereo_44KHz.wav
4	111	3	4	2	I	2	0	826	1	poli_8sides 4_whiteLine3.jpg	Medium_e26_stereo_44KHz.wav
4	112	4	4	2	I	1	0	782	1	poli_8sides 9_whiteLine3.jpg	Medium_e26_stereo_44KHz.wav
4	113	3	4	2	I	2	0	661	1	poli_8sides 4_whiteLine3.jpg	Medium_e26_stereo_44KHz.wav
4	114	2	1	0	C	2	1	1239	1	poli_8sides 5_whiteLine3.jpg	Medium_e01_cut1_stereo_44KHz.wav
4	115	4	3	2	I	2	0	933	0	poli_8sides 9_whiteLine3.jpg	Medium_e13_stereo_44KHz.wav
4	116	1	1	1	C	1	1	1007	1	poli_8sides 11_whiteLine3.jpg	Medium_e01_cut1_stereo_44KHz.wav
4	117	2	2	1	C	1	1	1195	1	poli_8sides 5_whiteLine3.jpg	MediumLong_e04_stereo_44KHz.wav
4	118	3	3	2	I	1	0	819	1	poli_8sides 4_whiteLine3.jpg	Medium_e13_stereo_44KHz.wav
4	119	1	2	0	C	2	1	971	1	poli_8sides 11_whiteLine3.jpg	MediumLong_e04_stereo_44KHz.wav
4	120	4	4	2	I	2	0	815	0	poli_8sides 9_whiteLine3.jpg	Medium_e26_stereo_44KHz.wav
4	121	2	2	1	C	1	1	895	1	poli_8sides 5_whiteLine3.jpg	MediumLong_e04_stereo_44KHz.wav
4	122	1	2	0	C	2	1	632	1	poli_8sides 11_whiteLine3.jpg	MediumLong_e04_stereo_44KHz.wav
4	123	4	4	2	I	2	0	846	0	poli_8sides 9_whiteLine3.jpg	Medium_e26_stereo_44KHz.wav
4	124	3	4	2	I	2	0	617	1	poli_8sides 4_whiteLine3.jpg	Medium_e26_stereo_44KHz.wav
4	125	1	1	1	C	1	1	730	1	poli_8sides 11_whiteLine3.jpg	Medium_e01_cut1_stereo_44KHz.wav
4	126	2	1	0	C	2	1	733	1	poli_8sides 5_whiteLine3.jpg	Medium_e01_cut1_stereo_44KHz.wav
4	127	4	3	2	I	2	0	984	1	poli_8sides 9_whiteLine3.jpg	Medium_e13_stereo_44KHz.wav
4	128	3	3	2	I	1	0	710	1	poli_8sides 4_whiteLine3.jpg	Medium_e13_stereo_44KHz.wav
4	129	2	2	1	C	1	1	1163	1	poli_8sides 5_whiteLine3.jpg	MediumLong_e04_stereo_44KHz.wav
4	130	1	1	1	C	1	1	1218	1	poli_8sides 11_whiteLine3.jpg	Medium_e01_cut1_stereo_44KHz.wav
4	131	3	3	2	I	1	0	802	1	poli_8sides 4_whiteLine3.jpg	Medium_e13_stereo_44KHz.wav
4	132	4	4	2	I	2	0	1226	0	poli_8sides 9_whiteLine3.jpg	Medium_e26_stereo_44KHz.wav
4	133	1	2	0	C	2	1	869	1	poli_8sides 11_whiteLine3.jpg	MediumLong_e04_stereo_44KHz.wav
4	134	4	3	2	I	2	0	1566	1	poli_8sides 9_whiteLine3.jpg	Medium_e13_stereo_44KHz.wav
4	135	3	4	2	I	2	0	703	0	poli_8sides 4_whiteLine3.jpg	Medium_e26_stereo_44KHz.wav
4	136	2	1	0	C	2	1	946	1	poli_8sides 5_whiteLine3.jpg	Medium_e01_cut1_stereo_44KHz.wav
4	137	4	3	2	I	2	0	980	1	poli_8sides 9_whiteLine3.jpg	Medium_e13_stereo_44KHz.wav
4	138	1	1	1	C	1	1	1057	1	poli_8sides 11_whiteLine3.jpg	Medium_e01_cut1_stereo_44KHz.wav
4	139	3	4	2	I	2	0	701	1	poli_8sides 4_whiteLine3.jpg	Medium_e26_stereo_44KHz.wav
4	140	2	1	0	C	2	1	796	1	poli_8sides 5_whiteLine3.jpg	Medium_e01_cut1_stereo_44KHz.wav
4	141	1	2	0	C	2	1	789	1	poli_8sides 11_whiteLine3.jpg	MediumLong_e04_stereo_44KHz.wav
4	142	4	4	2	I	2	0	737	1	poli_8sides 9_whiteLine3.jpg	Medium_e26_stereo_44KHz.wav
4	143	2	2	1	C	1	1	940	1	poli_8sides 5_whiteLine3.jpg	MediumLong_e04_stereo_44KHz.wav
4	144	3	3	2	I	1	0	807	1	poli_8sides 4_whiteLine3.jpg	Medium_e13_stereo_44KHz.wav
4	145	2	1	0	C	2	1	996	1	poli_8sides 5_whiteLine3.jpg	Medium_e01_cut1_stereo_44KHz.wav
4	146	1	2	0	C	2	1	871	1	poli_8sides 11_whiteLine3.jpg	MediumLong_e04_stereo_44KHz.wav
4	147	3	4	2	I	2	0	699	1	poli_8sides 4_whiteLine3.jpg	Medium_e26_stereo_44KHz.wav
4	148	4	3	2	I	2	0	767	0	poli_8sides 9_whiteLine3.jpg	Medium_e13_stereo_44KHz.wav
4	149	3	3	2	I	1	0	842	1	poli_8sides 4_whiteLine3.jpg	Medium_e13_stereo_44KHz.wav
4	150	2	2	1	C	1	1	946	1	poli_8sides 5_whiteLine3.jpg	MediumLong_e04_stereo_44KHz.wav
4	151	1	1	1	C	1	1	750	1	poli_8sides 11_whiteLine3.jpg	Medium_e01_cut1_stereo_44KHz.wav
4	152	4	4	2	I	2	0	1128	0	poli_8sides 9_whiteLine3.jpg	Medium_e26_stereo_44KHz.wav
4	153	1	2	0	C	2	1	717	1	poli_8sides 11_whiteLine3.jpg	MediumLong_e04_stereo_44KHz.wav
4	154	2	2	1	C	1	1	1207	1	poli_8sides 5_whiteLine3.jpg	MediumLong_e04_stereo_44KHz.wav
4	155	3	3	2	I	1	0	1308	0	poli_8sides 4_whiteLine3.jpg	Medium_e13_stereo_44KHz.wav
4	156	4	4	2	I	1	0	963	1	poli_8sides 9_whiteLine3.jpg	Medium_e26_stereo_44KHz.wav
4	157	1	1	1	C	1	1	1055	1	poli_8sides 11_whiteLine3.jpg	Medium_e01_cut1_stereo_44KHz.wav
4	158	2	1	0	C	2	1	919	1	poli_8sides 5_whiteLine3.jpg	Medium_e01_cut1_stereo_44KHz.wav
4	159	4	3	2	I	2	0	1197	1	poli_8sides 9_whiteLine3.jpg	Medium_e13_stereo_44KHz.wav
4	160	3	4	2	I	2	0	725	1	poli_8sides 4_whiteLine3.jpg	Medium_e26_stereo_44KHz.wav
4	161	1	2	0	C	2	1	740	1	poli_8sides 11_whiteLine3.jpg	MediumLong_e04_stereo_44KHz.wav
4	162	3	4	2	I	1	0	894	0	poli_8sides 4_whiteLine3.jpg	Medium_e26_stereo_44KHz.wav
4	163	4	4	2	I	1	0	888	0	poli_8sides 9_whiteLine3.jpg	Medium_e26_stereo_44KHz.wav
4	164	2	1	0	C	2	1	912	1	poli_8sides 5_whiteLine3.jpg	Medium_e01_cut1_stereo_44KHz.wav
4	165	1	1	1	C	1	1	821	1	poli_8sides 11_whiteLine3.jpg	Medium_e01_cut1_stereo_44KHz.wav
4	166	4	3	2	I	2	0	799	1	poli_8sides 9_whiteLine3.jpg	Medium_e13_stereo_44KHz.wav
4	167	3	3	2	I	1	0	984	1	poli_8sides 4_whiteLine3.jpg	Medium_e13_stereo_44KHz.wav
4	168	2	2	1	C	1	1	885	1	poli_8sides 5_whiteLine3.jpg	MediumLong_e04_stereo_44KHz.wav
4	169	3	4	2	I	2	0	1149	0	poli_8sides 4_whiteLine3.jpg	Medium_e26_stereo_44KHz.wav
4	170	2	2	1	C	1	1	820	1	poli_8sides 5_whiteLine3.jpg	MediumLong_e04_stereo_44KHz.wav
4	171	1	2	0	C	1	0	746	0	poli_8sides 11_whiteLine3.jpg	MediumLong_e04_stereo_44KHz.wav
4	172	4	4	2	I	1	0	1466	0	poli_8sides 9_whiteLine3.jpg	Medium_e26_stereo_44KHz.wav
4	173	1	1	1	C	1	1	765	1	poli_8sides 11_whiteLine3.jpg	Medium_e01_cut1_stereo_44KHz.wav
4	174	3	3	2	I	1	0	925	1	poli_8sides 4_whiteLine3.jpg	Medium_e13_stereo_44KHz.wav
4	175	2	1	0	C	2	1	1490	1	poli_8sides 5_whiteLine3.jpg	Medium_e01_cut1_stereo_44KHz.wav
4	176	4	3	2	I	2	0	921	0	poli_8sides 9_whiteLine3.jpg	Medium_e13_stereo_44KHz.wav
4	177	1	2	0	C	2	1	793	1	poli_8sides 11_whiteLine3.jpg	MediumLong_e04_stereo_44KHz.wav
4	178	2	2	1	C	1	1	1274	1	poli_8sides 5_whiteLine3.jpg	MediumLong_e04_stereo_44KHz.wav
4	179	4	4	2	I	1	0	1352	1	poli_8sides 9_whiteLine3.jpg	Medium_e26_stereo_44KHz.wav
4	180	3	4	2	I	2	0	766	1	poli_8sides 4_whiteLine3.jpg	Medium_e26_stereo_44KHz.wav
4	181	2	1	0	C	2	1	778	1	poli_8sides 5_whiteLine3.jpg	Medium_e01_cut1_stereo_44KHz.wav
4	182	3	3	2	I	1	0	788	1	poli_8sides 4_whiteLine3.jpg	Medium_e13_stereo_44KHz.wav
4	183	1	1	1	C	1	1	724	1	poli_8sides 11_whiteLine3.jpg	Medium_e01_cut1_stereo_44KHz.wav
4	184	4	3	2	I	2	0	823	0	poli_8sides 9_whiteLine3.jpg	Medium_e13_stereo_44KHz.wav
4	185	1	2	0	C	2	1	686	1	poli_8sides 11_whiteLine3.jpg	MediumLong_e04_stereo_44KHz.wav
4	186	4	4	2	I	1	0	1081	1	poli_8sides 9_whiteLine3.jpg	Medium_e26_stereo_44KHz.wav
4	187	2	1	0	C	2	1	732	1	poli_8sides 5_whiteLine3.jpg	Medium_e01_cut1_stereo_44KHz.wav
4	188	3	3	2	I	1	0	751	0	poli_8sides 4_whiteLine3.jpg	Medium_e13_stereo_44KHz.wav
4	189	4	3	2	I	2	0	614	0	poli_8sides 9_whiteLine3.jpg	Medium_e13_stereo_44KHz.wav
4	190	1	1	1	C	1	1	747	1	poli_8sides 11_whiteLine3.jpg	Medium_e01_cut1_stereo_44KHz.wav
4	191	3	4	2	I	2	0	782	0	poli_8sides 4_whiteLine3.jpg	Medium_e26_stereo_44KHz.wav
4	192	2	2	1	C	1	1	999	1	poli_8sides 5_whiteLine3.jpg	MediumLong_e04_stereo_44KHz.wav
4	193	1	2	0	C	2	1	746	1	poli_8sides 11_whiteLine3.jpg	MediumLong_e04_stereo_44KHz.wav
4	194	4	4	2	I	2	0	698	1	poli_8sides 9_whiteLine3.jpg	Medium_e26_stereo_44KHz.wav
4	195	2	1	0	C	2	1	1517	1	poli_8sides 5_whiteLine3.jpg	Medium_e01_cut1_stereo_44KHz.wav
4	196	3	4	2	I	2	0	771	1	poli_8sides 4_whiteLine3.jpg	Medium_e26_stereo_44KHz.wav
4	197	1	1	1	C	1	1	863	1	poli_8sides 11_whiteLine3.jpg	Medium_e01_cut1_stereo_44KHz.wav
4	198	2	2	1	C	1	1	990	1	poli_8sides 5_whiteLine3.jpg	MediumLong_e04_stereo_44KHz.wav
4	199	3	3	2	I	1	0	921	0	poli_8sides 4_whiteLine3.jpg	Medium_e13_stereo_44KHz.wav
4	200	4	3	2	I	2	0	970	0	poli_8sides 9_whiteLine3.jpg	Medium_e13_stereo_44KHz.wav
