block	trial	Vstim	Astim	match	C/I	resp	result	RT	fb	V-file	A-file
RL

0	1	1	2	0	C	0	0	0	0	Ⴞ	cut_eeuw_stereo_44KHz.wav
0	2	2	3	1	C	2	0	1026	0	Ⴢ	cut_ee_stereo_44KHz.wav
0	3	2	4	0	C	2	1	1040	1	Ⴢ	cut_oo_stereo_44KHz.wav
0	4	1	1	1	C	1	1	771	1	Ⴞ	cut_g_stereo_44KHz.wav
0	5	2	3	1	C	1	1	1227	1	Ⴢ	cut_ee_stereo_44KHz.wav
0	6	2	4	0	C	1	0	1212	0	Ⴢ	cut_oo_stereo_44KHz.wav
0	7	1	2	0	C	2	1	1021	1	Ⴞ	cut_eeuw_stereo_44KHz.wav
0	8	1	1	1	C	1	1	798	1	Ⴞ	cut_g_stereo_44KHz.wav
0	9	2	4	0	C	2	1	921	1	Ⴢ	cut_oo_stereo_44KHz.wav
0	10	1	2	0	C	2	1	715	1	Ⴞ	cut_eeuw_stereo_44KHz.wav
0	11	1	1	1	C	1	1	635	1	Ⴞ	cut_g_stereo_44KHz.wav
0	12	2	3	1	C	1	1	976	1	Ⴢ	cut_ee_stereo_44KHz.wav
0	13	1	2	0	C	2	1	723	1	Ⴞ	cut_eeuw_stereo_44KHz.wav
0	14	2	4	0	C	2	1	594	1	Ⴢ	cut_oo_stereo_44KHz.wav
0	15	1	1	1	C	1	1	788	1	Ⴞ	cut_g_stereo_44KHz.wav
0	16	2	3	1	C	1	1	935	1	Ⴢ	cut_ee_stereo_44KHz.wav
0	17	2	4	0	C	2	1	693	1	Ⴢ	cut_oo_stereo_44KHz.wav
0	18	2	3	1	C	1	1	1053	1	Ⴢ	cut_ee_stereo_44KHz.wav
0	19	1	1	1	C	1	1	869	1	Ⴞ	cut_g_stereo_44KHz.wav
0	20	1	2	0	C	2	1	858	1	Ⴞ	cut_eeuw_stereo_44KHz.wav
0	21	2	4	0	C	2	1	754	1	Ⴢ	cut_oo_stereo_44KHz.wav
0	22	2	3	1	C	1	1	1201	1	Ⴢ	cut_ee_stereo_44KHz.wav
0	23	1	2	0	C	2	1	815	1	Ⴞ	cut_eeuw_stereo_44KHz.wav
0	24	1	1	1	C	1	1	1031	1	Ⴞ	cut_g_stereo_44KHz.wav
0	25	2	4	0	C	2	1	719	1	Ⴢ	cut_oo_stereo_44KHz.wav
0	26	1	2	0	C	1	0	460	0	Ⴞ	cut_eeuw_stereo_44KHz.wav
0	27	2	3	1	C	1	1	1227	1	Ⴢ	cut_ee_stereo_44KHz.wav
0	28	1	1	1	C	1	1	735	1	Ⴞ	cut_g_stereo_44KHz.wav
0	29	1	1	1	C	1	1	923	1	Ⴞ	cut_g_stereo_44KHz.wav
0	30	2	4	0	C	2	1	628	1	Ⴢ	cut_oo_stereo_44KHz.wav
avg_resp = 871
1	1	3	3	2	I	1	0	1297	1	Ⴉ	cut_n_stereo_44KHz.wav
1	2	1	1	1	C	1	1	894	1	Ⴒ	cut_j_stereo_44KHz.wav
1	3	2	1	0	C	2	1	787	1	Ⴏ	cut_j_stereo_44KHz.wav
1	4	4	3	2	I	2	0	1269	0	Ⴌ	cut_n_stereo_44KHz.wav
1	5	2	2	1	C	2	0	915	0	Ⴏ	cut_oei_stereo_44KHz.wav
1	6	1	2	0	C	1	0	1062	0	Ⴒ	cut_oei_stereo_44KHz.wav
1	7	4	4	2	I	2	0	1717	0	Ⴌ	cut_ei_stereo_44KHz.wav
1	8	3	4	2	I	2	0	1519	0	Ⴉ	cut_ei_stereo_44KHz.wav
1	9	4	3	2	I	2	0	1186	0	Ⴌ	cut_n_stereo_44KHz.wav
1	10	1	2	0	C	2	1	1705	1	Ⴒ	cut_oei_stereo_44KHz.wav
1	11	3	3	2	I	2	0	1496	1	Ⴉ	cut_n_stereo_44KHz.wav
1	12	2	2	1	C	2	0	1116	0	Ⴏ	cut_oei_stereo_44KHz.wav
1	13	1	1	1	C	1	1	997	1	Ⴒ	cut_j_stereo_44KHz.wav
1	14	3	4	2	I	1	0	708	1	Ⴉ	cut_ei_stereo_44KHz.wav
1	15	4	4	2	I	2	0	1274	0	Ⴌ	cut_ei_stereo_44KHz.wav
1	16	2	1	0	C	1	0	1048	0	Ⴏ	cut_j_stereo_44KHz.wav
1	17	3	4	2	I	1	0	987	0	Ⴉ	cut_ei_stereo_44KHz.wav
1	18	1	2	0	C	2	1	822	1	Ⴒ	cut_oei_stereo_44KHz.wav
1	19	2	1	0	C	2	1	1514	1	Ⴏ	cut_j_stereo_44KHz.wav
1	20	4	3	2	I	1	0	1061	0	Ⴌ	cut_n_stereo_44KHz.wav
1	21	3	3	2	I	2	0	944	0	Ⴉ	cut_n_stereo_44KHz.wav
1	22	1	1	1	C	0	0	0	0	Ⴒ	cut_j_stereo_44KHz.wav
1	23	2	2	1	C	1	1	1264	1	Ⴏ	cut_oei_stereo_44KHz.wav
1	24	4	4	2	I	1	0	1318	0	Ⴌ	cut_ei_stereo_44KHz.wav
1	25	3	4	2	I	1	0	959	0	Ⴉ	cut_ei_stereo_44KHz.wav
1	26	1	2	0	C	2	1	1536	1	Ⴒ	cut_oei_stereo_44KHz.wav
1	27	4	3	2	I	1	0	1008	1	Ⴌ	cut_n_stereo_44KHz.wav
1	28	2	2	1	C	1	1	1388	1	Ⴏ	cut_oei_stereo_44KHz.wav
1	29	1	1	1	C	1	1	862	1	Ⴒ	cut_j_stereo_44KHz.wav
1	30	2	1	0	C	2	1	871	1	Ⴏ	cut_j_stereo_44KHz.wav
1	31	4	4	2	I	1	0	1533	1	Ⴌ	cut_ei_stereo_44KHz.wav
1	32	3	3	2	I	2	0	931	0	Ⴉ	cut_n_stereo_44KHz.wav
1	33	2	1	0	C	2	1	861	1	Ⴏ	cut_j_stereo_44KHz.wav
1	34	1	2	0	C	2	1	694	1	Ⴒ	cut_oei_stereo_44KHz.wav
1	35	4	3	2	I	1	0	1859	1	Ⴌ	cut_n_stereo_44KHz.wav
1	36	3	3	2	I	1	0	745	1	Ⴉ	cut_n_stereo_44KHz.wav
1	37	2	2	1	C	1	1	993	1	Ⴏ	cut_oei_stereo_44KHz.wav
1	38	4	4	2	I	1	0	1505	0	Ⴌ	cut_ei_stereo_44KHz.wav
1	39	1	1	1	C	1	1	1178	1	Ⴒ	cut_j_stereo_44KHz.wav
1	40	3	4	2	I	1	0	966	0	Ⴉ	cut_ei_stereo_44KHz.wav
1	41	1	2	0	C	2	1	1742	1	Ⴒ	cut_oei_stereo_44KHz.wav
1	42	2	2	1	C	1	1	956	1	Ⴏ	cut_oei_stereo_44KHz.wav
1	43	4	4	2	I	0	0	0	0	Ⴌ	cut_ei_stereo_44KHz.wav
1	44	3	3	2	I	2	0	922	0	Ⴉ	cut_n_stereo_44KHz.wav
1	45	4	3	2	I	2	0	1311	1	Ⴌ	cut_n_stereo_44KHz.wav
1	46	3	4	2	I	1	0	1299	0	Ⴉ	cut_ei_stereo_44KHz.wav
1	47	2	1	0	C	2	1	954	1	Ⴏ	cut_j_stereo_44KHz.wav
1	48	1	1	1	C	1	1	890	1	Ⴒ	cut_j_stereo_44KHz.wav
1	49	4	3	2	I	2	0	901	1	Ⴌ	cut_n_stereo_44KHz.wav
1	50	1	1	1	C	1	1	1086	1	Ⴒ	cut_j_stereo_44KHz.wav
1	51	3	3	2	I	1	0	1620	0	Ⴉ	cut_n_stereo_44KHz.wav
1	52	2	2	1	C	1	1	1174	1	Ⴏ	cut_oei_stereo_44KHz.wav
1	53	3	4	2	I	2	0	1829	1	Ⴉ	cut_ei_stereo_44KHz.wav
1	54	1	2	0	C	2	1	1062	1	Ⴒ	cut_oei_stereo_44KHz.wav
1	55	2	1	0	C	2	1	986	1	Ⴏ	cut_j_stereo_44KHz.wav
1	56	4	4	2	I	2	0	953	1	Ⴌ	cut_ei_stereo_44KHz.wav
1	57	1	2	0	C	2	1	767	1	Ⴒ	cut_oei_stereo_44KHz.wav
1	58	4	3	2	I	2	0	1027	0	Ⴌ	cut_n_stereo_44KHz.wav
1	59	3	3	2	I	2	0	707	0	Ⴉ	cut_n_stereo_44KHz.wav
1	60	2	2	1	C	1	1	1012	1	Ⴏ	cut_oei_stereo_44KHz.wav
1	61	4	4	2	I	1	0	1463	1	Ⴌ	cut_ei_stereo_44KHz.wav
1	62	1	1	1	C	1	1	1035	1	Ⴒ	cut_j_stereo_44KHz.wav
1	63	3	4	2	I	2	0	1385	1	Ⴉ	cut_ei_stereo_44KHz.wav
1	64	2	1	0	C	2	1	869	1	Ⴏ	cut_j_stereo_44KHz.wav
1	65	4	3	2	I	2	0	953	1	Ⴌ	cut_n_stereo_44KHz.wav
1	66	2	1	0	C	2	1	1127	1	Ⴏ	cut_j_stereo_44KHz.wav
1	67	3	3	2	I	1	0	1034	1	Ⴉ	cut_n_stereo_44KHz.wav
1	68	1	1	1	C	1	1	937	1	Ⴒ	cut_j_stereo_44KHz.wav
1	69	4	4	2	I	2	0	1027	1	Ⴌ	cut_ei_stereo_44KHz.wav
1	70	2	2	1	C	1	1	891	1	Ⴏ	cut_oei_stereo_44KHz.wav
1	71	1	2	0	C	2	1	769	1	Ⴒ	cut_oei_stereo_44KHz.wav
1	72	3	4	2	I	1	0	1361	0	Ⴉ	cut_ei_stereo_44KHz.wav
1	73	2	1	0	C	2	1	816	1	Ⴏ	cut_j_stereo_44KHz.wav
1	74	1	2	0	C	2	1	736	1	Ⴒ	cut_oei_stereo_44KHz.wav
1	75	3	3	2	I	1	0	1019	0	Ⴉ	cut_n_stereo_44KHz.wav
1	76	4	3	2	I	1	0	1415	0	Ⴌ	cut_n_stereo_44KHz.wav
1	77	3	4	2	I	2	0	1604	1	Ⴉ	cut_ei_stereo_44KHz.wav
1	78	4	4	2	I	1	0	1234	1	Ⴌ	cut_ei_stereo_44KHz.wav
1	79	2	2	1	C	1	1	1257	1	Ⴏ	cut_oei_stereo_44KHz.wav
1	80	1	1	1	C	1	1	1100	1	Ⴒ	cut_j_stereo_44KHz.wav
1	81	2	2	1	C	1	1	880	1	Ⴏ	cut_oei_stereo_44KHz.wav
1	82	1	1	1	C	1	1	858	1	Ⴒ	cut_j_stereo_44KHz.wav
1	83	3	3	2	I	2	0	1672	0	Ⴉ	cut_n_stereo_44KHz.wav
1	84	4	3	2	I	1	0	1451	0	Ⴌ	cut_n_stereo_44KHz.wav
1	85	2	1	0	C	2	1	1129	1	Ⴏ	cut_j_stereo_44KHz.wav
1	86	1	2	0	C	2	1	569	1	Ⴒ	cut_oei_stereo_44KHz.wav
1	87	3	4	2	I	1	0	903	1	Ⴉ	cut_ei_stereo_44KHz.wav
1	88	4	4	2	I	2	0	1374	1	Ⴌ	cut_ei_stereo_44KHz.wav
1	89	1	1	1	C	1	1	1188	1	Ⴒ	cut_j_stereo_44KHz.wav
1	90	3	3	2	I	2	0	959	1	Ⴉ	cut_n_stereo_44KHz.wav
1	91	2	1	0	C	2	1	789	1	Ⴏ	cut_j_stereo_44KHz.wav
1	92	4	3	2	I	1	0	963	0	Ⴌ	cut_n_stereo_44KHz.wav
1	93	3	4	2	I	2	0	994	0	Ⴉ	cut_ei_stereo_44KHz.wav
1	94	4	4	2	I	2	0	1172	1	Ⴌ	cut_ei_stereo_44KHz.wav
1	95	1	2	0	C	2	1	838	1	Ⴒ	cut_oei_stereo_44KHz.wav
1	96	2	2	1	C	1	1	1028	1	Ⴏ	cut_oei_stereo_44KHz.wav
1	97	1	1	1	C	1	1	1100	1	Ⴒ	cut_j_stereo_44KHz.wav
1	98	2	1	0	C	2	1	760	1	Ⴏ	cut_j_stereo_44KHz.wav
1	99	4	4	2	I	2	0	1258	0	Ⴌ	cut_ei_stereo_44KHz.wav
1	100	3	4	2	I	2	0	912	1	Ⴉ	cut_ei_stereo_44KHz.wav
1	101	1	2	0	C	2	1	658	1	Ⴒ	cut_oei_stereo_44KHz.wav
1	102	3	3	2	I	1	0	991	1	Ⴉ	cut_n_stereo_44KHz.wav
1	103	4	3	2	I	2	0	1191	0	Ⴌ	cut_n_stereo_44KHz.wav
1	104	2	2	1	C	1	1	916	1	Ⴏ	cut_oei_stereo_44KHz.wav
1	105	1	2	0	C	2	1	780	1	Ⴒ	cut_oei_stereo_44KHz.wav
1	106	2	2	1	C	1	1	739	1	Ⴏ	cut_oei_stereo_44KHz.wav
1	107	3	3	2	I	2	0	1340	1	Ⴉ	cut_n_stereo_44KHz.wav
1	108	4	3	2	I	1	0	1089	1	Ⴌ	cut_n_stereo_44KHz.wav
1	109	1	1	1	C	1	1	1008	1	Ⴒ	cut_j_stereo_44KHz.wav
1	110	2	1	0	C	2	1	748	1	Ⴏ	cut_j_stereo_44KHz.wav
1	111	3	4	2	I	2	0	1051	1	Ⴉ	cut_ei_stereo_44KHz.wav
1	112	4	4	2	I	2	0	1681	0	Ⴌ	cut_ei_stereo_44KHz.wav
1	113	3	3	2	I	2	0	1030	1	Ⴉ	cut_n_stereo_44KHz.wav
1	114	2	2	1	C	1	1	878	1	Ⴏ	cut_oei_stereo_44KHz.wav
1	115	4	4	2	I	2	0	1100	0	Ⴌ	cut_ei_stereo_44KHz.wav
1	116	1	1	1	C	1	1	975	1	Ⴒ	cut_j_stereo_44KHz.wav
1	117	3	4	2	I	2	0	811	0	Ⴉ	cut_ei_stereo_44KHz.wav
1	118	2	1	0	C	2	1	762	1	Ⴏ	cut_j_stereo_44KHz.wav
1	119	4	3	2	I	2	0	986	1	Ⴌ	cut_n_stereo_44KHz.wav
1	120	1	2	0	C	2	1	644	1	Ⴒ	cut_oei_stereo_44KHz.wav
1	121	4	4	2	I	1	0	863	1	Ⴌ	cut_ei_stereo_44KHz.wav
1	122	3	4	2	I	2	0	755	1	Ⴉ	cut_ei_stereo_44KHz.wav
1	123	2	2	1	C	1	1	1223	1	Ⴏ	cut_oei_stereo_44KHz.wav
1	124	1	1	1	C	1	1	905	1	Ⴒ	cut_j_stereo_44KHz.wav
1	125	3	3	2	I	1	0	1228	0	Ⴉ	cut_n_stereo_44KHz.wav
1	126	1	2	0	C	2	1	806	1	Ⴒ	cut_oei_stereo_44KHz.wav
1	127	2	1	0	C	2	1	923	1	Ⴏ	cut_j_stereo_44KHz.wav
1	128	4	3	2	I	2	0	1250	0	Ⴌ	cut_n_stereo_44KHz.wav
1	129	3	3	2	I	1	0	854	1	Ⴉ	cut_n_stereo_44KHz.wav
1	130	2	2	1	C	1	1	958	1	Ⴏ	cut_oei_stereo_44KHz.wav
1	131	4	3	2	I	2	0	1042	1	Ⴌ	cut_n_stereo_44KHz.wav
1	132	1	2	0	C	2	1	716	1	Ⴒ	cut_oei_stereo_44KHz.wav
1	133	4	4	2	I	1	0	1340	1	Ⴌ	cut_ei_stereo_44KHz.wav
1	134	3	4	2	I	2	0	838	0	Ⴉ	cut_ei_stereo_44KHz.wav
1	135	2	1	0	C	2	1	668	1	Ⴏ	cut_j_stereo_44KHz.wav
1	136	1	1	1	C	1	1	706	1	Ⴒ	cut_j_stereo_44KHz.wav
1	137	2	1	0	C	2	1	810	1	Ⴏ	cut_j_stereo_44KHz.wav
1	138	3	4	2	I	2	0	1088	1	Ⴉ	cut_ei_stereo_44KHz.wav
1	139	4	4	2	I	1	0	1270	0	Ⴌ	cut_ei_stereo_44KHz.wav
1	140	1	2	0	C	2	1	836	1	Ⴒ	cut_oei_stereo_44KHz.wav
1	141	2	2	1	C	1	1	814	1	Ⴏ	cut_oei_stereo_44KHz.wav
1	142	1	1	1	C	1	1	1837	1	Ⴒ	cut_j_stereo_44KHz.wav
1	143	3	3	2	I	2	0	1297	0	Ⴉ	cut_n_stereo_44KHz.wav
1	144	4	3	2	I	2	0	755	0	Ⴌ	cut_n_stereo_44KHz.wav
1	145	3	4	2	I	2	0	849	1	Ⴉ	cut_ei_stereo_44KHz.wav
1	146	2	1	0	C	2	1	894	1	Ⴏ	cut_j_stereo_44KHz.wav
1	147	1	2	0	C	2	1	663	1	Ⴒ	cut_oei_stereo_44KHz.wav
1	148	4	3	2	I	2	0	950	0	Ⴌ	cut_n_stereo_44KHz.wav
1	149	3	3	2	I	2	0	742	1	Ⴉ	cut_n_stereo_44KHz.wav
1	150	1	1	1	C	1	1	1135	1	Ⴒ	cut_j_stereo_44KHz.wav
1	151	2	2	1	C	1	1	930	1	Ⴏ	cut_oei_stereo_44KHz.wav
1	152	4	4	2	I	0	0	0	0	Ⴌ	cut_ei_stereo_44KHz.wav
1	153	1	1	1	C	1	1	961	1	Ⴒ	cut_j_stereo_44KHz.wav
1	154	2	1	0	C	2	1	648	1	Ⴏ	cut_j_stereo_44KHz.wav
1	155	4	3	2	I	1	0	1554	1	Ⴌ	cut_n_stereo_44KHz.wav
1	156	3	4	2	I	2	0	1095	0	Ⴉ	cut_ei_stereo_44KHz.wav
1	157	4	4	2	I	1	0	1353	0	Ⴌ	cut_ei_stereo_44KHz.wav
1	158	3	3	2	I	2	0	1186	0	Ⴉ	cut_n_stereo_44KHz.wav
1	159	1	2	0	C	2	1	722	1	Ⴒ	cut_oei_stereo_44KHz.wav
1	160	2	2	1	C	1	1	859	1	Ⴏ	cut_oei_stereo_44KHz.wav
1	161	1	2	0	C	2	1	738	1	Ⴒ	cut_oei_stereo_44KHz.wav
1	162	2	1	0	C	2	1	701	1	Ⴏ	cut_j_stereo_44KHz.wav
1	163	3	4	2	I	2	0	1038	1	Ⴉ	cut_ei_stereo_44KHz.wav
1	164	4	3	2	I	2	0	1182	0	Ⴌ	cut_n_stereo_44KHz.wav
1	165	2	2	1	C	1	1	1100	1	Ⴏ	cut_oei_stereo_44KHz.wav
1	166	4	4	2	I	2	0	905	1	Ⴌ	cut_ei_stereo_44KHz.wav
1	167	3	3	2	I	2	0	809	1	Ⴉ	cut_n_stereo_44KHz.wav
1	168	1	1	1	C	1	1	1091	1	Ⴒ	cut_j_stereo_44KHz.wav
1	169	3	4	2	I	2	0	1257	0	Ⴉ	cut_ei_stereo_44KHz.wav
1	170	4	4	2	I	2	0	865	0	Ⴌ	cut_ei_stereo_44KHz.wav
1	171	1	2	0	C	1	0	1007	0	Ⴒ	cut_oei_stereo_44KHz.wav
1	172	2	1	0	C	2	1	699	1	Ⴏ	cut_j_stereo_44KHz.wav
1	173	4	3	2	I	1	0	906	0	Ⴌ	cut_n_stereo_44KHz.wav
1	174	2	2	1	C	1	1	902	1	Ⴏ	cut_oei_stereo_44KHz.wav
1	175	3	3	2	I	1	0	966	0	Ⴉ	cut_n_stereo_44KHz.wav
1	176	1	1	1	C	1	1	787	1	Ⴒ	cut_j_stereo_44KHz.wav
1	177	3	4	2	I	2	0	872	1	Ⴉ	cut_ei_stereo_44KHz.wav
1	178	1	1	1	C	1	1	761	1	Ⴒ	cut_j_stereo_44KHz.wav
1	179	4	4	2	I	1	0	1297	1	Ⴌ	cut_ei_stereo_44KHz.wav
1	180	2	2	1	C	1	1	1005	1	Ⴏ	cut_oei_stereo_44KHz.wav
1	181	4	3	2	I	2	0	713	0	Ⴌ	cut_n_stereo_44KHz.wav
1	182	1	2	0	C	2	1	1003	1	Ⴒ	cut_oei_stereo_44KHz.wav
1	183	2	1	0	C	2	1	699	1	Ⴏ	cut_j_stereo_44KHz.wav
1	184	3	3	2	I	1	0	1159	0	Ⴉ	cut_n_stereo_44KHz.wav
1	185	4	3	2	I	2	0	717	1	Ⴌ	cut_n_stereo_44KHz.wav
1	186	2	2	1	C	1	1	890	1	Ⴏ	cut_oei_stereo_44KHz.wav
1	187	3	4	2	I	2	0	826	1	Ⴉ	cut_ei_stereo_44KHz.wav
1	188	1	2	0	C	2	1	890	1	Ⴒ	cut_oei_stereo_44KHz.wav
1	189	4	4	2	I	1	0	944	0	Ⴌ	cut_ei_stereo_44KHz.wav
1	190	3	3	2	I	2	0	1081	0	Ⴉ	cut_n_stereo_44KHz.wav
1	191	2	1	0	C	2	1	605	1	Ⴏ	cut_j_stereo_44KHz.wav
1	192	1	1	1	C	1	1	784	1	Ⴒ	cut_j_stereo_44KHz.wav
1	193	4	3	2	I	2	0	1017	1	Ⴌ	cut_n_stereo_44KHz.wav
1	194	1	1	1	C	1	1	786	1	Ⴒ	cut_j_stereo_44KHz.wav
1	195	2	1	0	C	2	1	711	1	Ⴏ	cut_j_stereo_44KHz.wav
1	196	3	4	2	I	1	0	693	0	Ⴉ	cut_ei_stereo_44KHz.wav
1	197	2	2	1	C	1	1	772	1	Ⴏ	cut_oei_stereo_44KHz.wav
1	198	3	3	2	I	2	0	832	1	Ⴉ	cut_n_stereo_44KHz.wav
1	199	4	4	2	I	2	0	847	1	Ⴌ	cut_ei_stereo_44KHz.wav
1	200	1	2	0	C	2	1	804	1	Ⴒ	cut_oei_stereo_44KHz.wav
2	1	2	1	0	C	2	1	1462	1	Ⴡ	cut_h_stereo_44KHz.wav
2	2	3	3	2	I	1	0	1148	1	Ⴊ	cut_l_stereo_44KHz.wav
2	3	1	2	0	C	1	0	1150	0	Ⴜ	cut_w_stereo_44KHz.wav
2	4	4	3	2	I	1	0	1340	1	Ⴃ	cut_l_stereo_44KHz.wav
2	5	3	4	2	I	1	0	1488	1	Ⴊ	cut_g_stereo_44KHz.wav
2	6	2	2	1	C	1	1	1148	1	Ⴡ	cut_w_stereo_44KHz.wav
2	7	1	1	1	C	1	1	1518	1	Ⴜ	cut_h_stereo_44KHz.wav
2	8	4	4	2	I	2	0	1842	1	Ⴃ	cut_g_stereo_44KHz.wav
2	9	1	2	0	C	2	1	1404	1	Ⴜ	cut_w_stereo_44KHz.wav
2	10	2	2	1	C	1	1	1168	1	Ⴡ	cut_w_stereo_44KHz.wav
2	11	3	4	2	I	1	0	1215	0	Ⴊ	cut_g_stereo_44KHz.wav
2	12	4	4	2	I	2	0	1448	1	Ⴃ	cut_g_stereo_44KHz.wav
2	13	3	3	2	I	1	0	1525	1	Ⴊ	cut_l_stereo_44KHz.wav
2	14	2	1	0	C	2	1	1049	1	Ⴡ	cut_h_stereo_44KHz.wav
2	15	4	3	2	I	2	0	1423	0	Ⴃ	cut_l_stereo_44KHz.wav
2	16	1	1	1	C	1	1	1485	1	Ⴜ	cut_h_stereo_44KHz.wav
2	17	2	1	0	C	2	1	743	1	Ⴡ	cut_h_stereo_44KHz.wav
2	18	3	3	2	I	1	0	1461	0	Ⴊ	cut_l_stereo_44KHz.wav
2	19	1	1	1	C	1	1	1052	1	Ⴜ	cut_h_stereo_44KHz.wav
2	20	4	4	2	I	2	0	1368	1	Ⴃ	cut_g_stereo_44KHz.wav
2	21	3	4	2	I	2	0	759	0	Ⴊ	cut_g_stereo_44KHz.wav
2	22	4	3	2	I	1	0	1888	0	Ⴃ	cut_l_stereo_44KHz.wav
2	23	2	2	1	C	0	0	0	0	Ⴡ	cut_w_stereo_44KHz.wav
2	24	1	2	0	C	2	1	1283	1	Ⴜ	cut_w_stereo_44KHz.wav
2	25	3	4	2	I	2	0	1160	0	Ⴊ	cut_g_stereo_44KHz.wav
2	26	1	1	1	C	1	1	1210	1	Ⴜ	cut_h_stereo_44KHz.wav
2	27	4	4	2	I	2	0	999	0	Ⴃ	cut_g_stereo_44KHz.wav
2	28	2	1	0	C	2	1	1087	1	Ⴡ	cut_h_stereo_44KHz.wav
2	29	3	3	2	I	2	0	1273	0	Ⴊ	cut_l_stereo_44KHz.wav
2	30	1	2	0	C	2	1	1296	1	Ⴜ	cut_w_stereo_44KHz.wav
2	31	4	3	2	I	1	0	1330	0	Ⴃ	cut_l_stereo_44KHz.wav
2	32	2	2	1	C	1	1	892	1	Ⴡ	cut_w_stereo_44KHz.wav
2	33	4	4	2	I	1	0	1584	1	Ⴃ	cut_g_stereo_44KHz.wav
2	34	2	2	1	C	1	1	1137	1	Ⴡ	cut_w_stereo_44KHz.wav
2	35	1	1	1	C	1	1	1164	1	Ⴜ	cut_h_stereo_44KHz.wav
2	36	3	4	2	I	2	0	1145	1	Ⴊ	cut_g_stereo_44KHz.wav
2	37	4	3	2	I	2	0	1202	1	Ⴃ	cut_l_stereo_44KHz.wav
2	38	2	1	0	C	2	1	900	1	Ⴡ	cut_h_stereo_44KHz.wav
2	39	1	2	0	C	2	1	1194	1	Ⴜ	cut_w_stereo_44KHz.wav
2	40	3	3	2	I	1	0	1075	0	Ⴊ	cut_l_stereo_44KHz.wav
2	41	1	2	0	C	2	1	1547	1	Ⴜ	cut_w_stereo_44KHz.wav
2	42	3	4	2	I	2	0	934	0	Ⴊ	cut_g_stereo_44KHz.wav
2	43	4	4	2	I	1	0	1403	0	Ⴃ	cut_g_stereo_44KHz.wav
2	44	2	1	0	C	2	1	991	1	Ⴡ	cut_h_stereo_44KHz.wav
2	45	1	1	1	C	1	1	1249	1	Ⴜ	cut_h_stereo_44KHz.wav
2	46	4	3	2	I	2	0	1388	0	Ⴃ	cut_l_stereo_44KHz.wav
2	47	3	3	2	I	2	0	1519	1	Ⴊ	cut_l_stereo_44KHz.wav
2	48	2	2	1	C	1	1	1086	1	Ⴡ	cut_w_stereo_44KHz.wav
2	49	4	3	2	I	2	0	1176	1	Ⴃ	cut_l_stereo_44KHz.wav
2	50	1	2	0	C	2	1	1054	1	Ⴜ	cut_w_stereo_44KHz.wav
2	51	2	2	1	C	1	1	1267	1	Ⴡ	cut_w_stereo_44KHz.wav
2	52	3	4	2	I	0	0	0	0	Ⴊ	cut_g_stereo_44KHz.wav
2	53	1	1	1	C	1	1	1362	1	Ⴜ	cut_h_stereo_44KHz.wav
2	54	4	4	2	I	2	0	1345	1	Ⴃ	cut_g_stereo_44KHz.wav
2	55	2	1	0	C	2	1	695	1	Ⴡ	cut_h_stereo_44KHz.wav
2	56	3	3	2	I	2	0	1296	1	Ⴊ	cut_l_stereo_44KHz.wav
2	57	4	4	2	I	1	0	719	1	Ⴃ	cut_g_stereo_44KHz.wav
2	58	1	1	1	C	1	1	1276	1	Ⴜ	cut_h_stereo_44KHz.wav
2	59	3	4	2	I	2	0	1305	0	Ⴊ	cut_g_stereo_44KHz.wav
2	60	2	1	0	C	2	1	675	1	Ⴡ	cut_h_stereo_44KHz.wav
2	61	3	3	2	I	2	0	1553	1	Ⴊ	cut_l_stereo_44KHz.wav
2	62	1	2	0	C	2	1	1156	1	Ⴜ	cut_w_stereo_44KHz.wav
2	63	4	3	2	I	2	0	1081	0	Ⴃ	cut_l_stereo_44KHz.wav
2	64	2	2	1	C	1	1	1131	1	Ⴡ	cut_w_stereo_44KHz.wav
2	65	1	1	1	C	1	1	1639	1	Ⴜ	cut_h_stereo_44KHz.wav
2	66	2	2	1	C	1	1	834	1	Ⴡ	cut_w_stereo_44KHz.wav
2	67	4	4	2	I	2	0	1343	0	Ⴃ	cut_g_stereo_44KHz.wav
2	68	3	4	2	I	2	0	804	1	Ⴊ	cut_g_stereo_44KHz.wav
2	69	1	2	0	C	2	1	1562	1	Ⴜ	cut_w_stereo_44KHz.wav
2	70	3	3	2	I	1	0	933	1	Ⴊ	cut_l_stereo_44KHz.wav
2	71	2	1	0	C	2	1	961	1	Ⴡ	cut_h_stereo_44KHz.wav
2	72	4	3	2	I	1	0	1592	0	Ⴃ	cut_l_stereo_44KHz.wav
2	73	2	2	1	C	1	1	1030	1	Ⴡ	cut_w_stereo_44KHz.wav
2	74	1	1	1	C	1	1	1005	1	Ⴜ	cut_h_stereo_44KHz.wav
2	75	3	3	2	I	2	0	1348	1	Ⴊ	cut_l_stereo_44KHz.wav
2	76	4	4	2	I	0	0	0	0	Ⴃ	cut_g_stereo_44KHz.wav
2	77	2	1	0	C	2	1	787	1	Ⴡ	cut_h_stereo_44KHz.wav
2	78	1	2	0	C	2	1	583	1	Ⴜ	cut_w_stereo_44KHz.wav
2	79	4	3	2	I	2	0	950	1	Ⴃ	cut_l_stereo_44KHz.wav
2	80	3	4	2	I	1	0	1445	1	Ⴊ	cut_g_stereo_44KHz.wav
2	81	4	3	2	I	1	0	1127	0	Ⴃ	cut_l_stereo_44KHz.wav
2	82	2	2	1	C	1	1	1009	1	Ⴡ	cut_w_stereo_44KHz.wav
2	83	1	2	0	C	2	1	810	1	Ⴜ	cut_w_stereo_44KHz.wav
2	84	3	4	2	I	2	0	1280	0	Ⴊ	cut_g_stereo_44KHz.wav
2	85	4	4	2	I	2	0	993	1	Ⴃ	cut_g_stereo_44KHz.wav
2	86	1	1	1	C	1	1	1257	1	Ⴜ	cut_h_stereo_44KHz.wav
2	87	3	3	2	I	1	0	1090	0	Ⴊ	cut_l_stereo_44KHz.wav
2	88	2	1	0	C	2	1	920	1	Ⴡ	cut_h_stereo_44KHz.wav
2	89	3	3	2	I	2	0	1205	0	Ⴊ	cut_l_stereo_44KHz.wav
2	90	1	1	1	C	2	0	1719	0	Ⴜ	cut_h_stereo_44KHz.wav
2	91	4	3	2	I	1	0	744	1	Ⴃ	cut_l_stereo_44KHz.wav
2	92	2	1	0	C	2	1	674	1	Ⴡ	cut_h_stereo_44KHz.wav
2	93	4	4	2	I	1	0	744	0	Ⴃ	cut_g_stereo_44KHz.wav
2	94	3	4	2	I	2	0	935	0	Ⴊ	cut_g_stereo_44KHz.wav
2	95	1	2	0	C	2	1	1639	1	Ⴜ	cut_w_stereo_44KHz.wav
2	96	2	2	1	C	1	1	1108	1	Ⴡ	cut_w_stereo_44KHz.wav
2	97	3	3	2	I	2	0	951	0	Ⴊ	cut_l_stereo_44KHz.wav
2	98	1	1	1	C	2	0	849	0	Ⴜ	cut_h_stereo_44KHz.wav
2	99	4	4	2	I	0	0	0	0	Ⴃ	cut_g_stereo_44KHz.wav
2	100	2	2	1	C	1	1	895	1	Ⴡ	cut_w_stereo_44KHz.wav
2	101	1	2	0	C	2	1	549	1	Ⴜ	cut_w_stereo_44KHz.wav
2	102	4	3	2	I	1	0	1535	1	Ⴃ	cut_l_stereo_44KHz.wav
2	103	3	4	2	I	2	0	706	0	Ⴊ	cut_g_stereo_44KHz.wav
2	104	2	1	0	C	2	1	789	1	Ⴡ	cut_h_stereo_44KHz.wav
2	105	1	2	0	C	2	1	1060	1	Ⴜ	cut_w_stereo_44KHz.wav
2	106	2	2	1	C	1	1	763	1	Ⴡ	cut_w_stereo_44KHz.wav
2	107	4	4	2	I	1	0	687	1	Ⴃ	cut_g_stereo_44KHz.wav
2	108	3	4	2	I	1	0	721	1	Ⴊ	cut_g_stereo_44KHz.wav
2	109	2	1	0	C	2	1	883	1	Ⴡ	cut_h_stereo_44KHz.wav
2	110	1	1	1	C	1	1	1404	1	Ⴜ	cut_h_stereo_44KHz.wav
2	111	4	3	2	I	2	0	1228	0	Ⴃ	cut_l_stereo_44KHz.wav
2	112	3	3	2	I	1	0	868	0	Ⴊ	cut_l_stereo_44KHz.wav
2	113	1	1	1	C	1	1	1940	1	Ⴜ	cut_h_stereo_44KHz.wav
2	114	3	3	2	I	2	0	807	1	Ⴊ	cut_l_stereo_44KHz.wav
2	115	4	4	2	I	1	0	1141	0	Ⴃ	cut_g_stereo_44KHz.wav
2	116	2	1	0	C	2	1	750	1	Ⴡ	cut_h_stereo_44KHz.wav
2	117	4	3	2	I	1	0	788	1	Ⴃ	cut_l_stereo_44KHz.wav
2	118	3	4	2	I	1	0	784	1	Ⴊ	cut_g_stereo_44KHz.wav
2	119	2	2	1	C	1	1	1290	1	Ⴡ	cut_w_stereo_44KHz.wav
2	120	1	2	0	C	2	1	795	1	Ⴜ	cut_w_stereo_44KHz.wav
2	121	3	3	2	I	1	0	965	1	Ⴊ	cut_l_stereo_44KHz.wav
2	122	4	4	2	I	1	0	898	0	Ⴃ	cut_g_stereo_44KHz.wav
2	123	2	1	0	C	2	1	674	1	Ⴡ	cut_h_stereo_44KHz.wav
2	124	1	2	0	C	2	1	1344	1	Ⴜ	cut_w_stereo_44KHz.wav
2	125	4	3	2	I	1	0	775	1	Ⴃ	cut_l_stereo_44KHz.wav
2	126	2	2	1	C	1	1	856	1	Ⴡ	cut_w_stereo_44KHz.wav
2	127	1	1	1	C	2	0	1623	0	Ⴜ	cut_h_stereo_44KHz.wav
2	128	3	4	2	I	1	0	611	1	Ⴊ	cut_g_stereo_44KHz.wav
2	129	2	1	0	C	2	1	625	1	Ⴡ	cut_h_stereo_44KHz.wav
2	130	1	2	0	C	1	0	1518	0	Ⴜ	cut_w_stereo_44KHz.wav
2	131	3	3	2	I	2	0	751	0	Ⴊ	cut_l_stereo_44KHz.wav
2	132	4	3	2	I	1	0	924	0	Ⴃ	cut_l_stereo_44KHz.wav
2	133	2	2	1	C	1	1	1025	1	Ⴡ	cut_w_stereo_44KHz.wav
2	134	4	4	2	I	1	0	927	0	Ⴃ	cut_g_stereo_44KHz.wav
2	135	1	1	1	C	1	1	1662	1	Ⴜ	cut_h_stereo_44KHz.wav
2	136	3	4	2	I	2	0	1323	1	Ⴊ	cut_g_stereo_44KHz.wav
2	137	1	1	1	C	1	1	1465	1	Ⴜ	cut_h_stereo_44KHz.wav
2	138	2	1	0	C	2	1	725	1	Ⴡ	cut_h_stereo_44KHz.wav
2	139	3	4	2	I	2	0	868	1	Ⴊ	cut_g_stereo_44KHz.wav
2	140	4	3	2	I	1	0	849	0	Ⴃ	cut_l_stereo_44KHz.wav
2	141	3	3	2	I	2	0	609	0	Ⴊ	cut_l_stereo_44KHz.wav
2	142	2	2	1	C	1	1	942	1	Ⴡ	cut_w_stereo_44KHz.wav
2	143	4	4	2	I	1	0	1236	0	Ⴃ	cut_g_stereo_44KHz.wav
2	144	1	2	0	C	2	1	1095	1	Ⴜ	cut_w_stereo_44KHz.wav
2	145	2	2	1	C	1	1	904	1	Ⴡ	cut_w_stereo_44KHz.wav
2	146	3	4	2	I	1	0	1081	0	Ⴊ	cut_g_stereo_44KHz.wav
2	147	4	3	2	I	1	0	958	1	Ⴃ	cut_l_stereo_44KHz.wav
2	148	1	2	0	C	1	0	1144	0	Ⴜ	cut_w_stereo_44KHz.wav
2	149	3	3	2	I	1	0	1031	1	Ⴊ	cut_l_stereo_44KHz.wav
2	150	4	4	2	I	1	0	1014	0	Ⴃ	cut_g_stereo_44KHz.wav
2	151	2	1	0	C	2	1	625	1	Ⴡ	cut_h_stereo_44KHz.wav
2	152	1	1	1	C	1	1	887	1	Ⴜ	cut_h_stereo_44KHz.wav
2	153	2	1	0	C	2	1	875	1	Ⴡ	cut_h_stereo_44KHz.wav
2	154	1	1	1	C	1	1	1220	1	Ⴜ	cut_h_stereo_44KHz.wav
2	155	3	3	2	I	2	0	975	0	Ⴊ	cut_l_stereo_44KHz.wav
2	156	4	3	2	I	1	0	1089	1	Ⴃ	cut_l_stereo_44KHz.wav
2	157	1	2	0	C	2	1	1874	1	Ⴜ	cut_w_stereo_44KHz.wav
2	158	4	4	2	I	1	0	830	0	Ⴃ	cut_g_stereo_44KHz.wav
2	159	2	2	1	C	1	1	1051	1	Ⴡ	cut_w_stereo_44KHz.wav
2	160	3	4	2	I	2	0	847	0	Ⴊ	cut_g_stereo_44KHz.wav
2	161	2	1	0	C	2	1	972	1	Ⴡ	cut_h_stereo_44KHz.wav
2	162	1	1	1	C	1	1	831	1	Ⴜ	cut_h_stereo_44KHz.wav
2	163	4	4	2	I	2	0	1922	0	Ⴃ	cut_g_stereo_44KHz.wav
2	164	3	4	2	I	1	0	1323	0	Ⴊ	cut_g_stereo_44KHz.wav
2	165	1	2	0	C	2	1	1122	1	Ⴜ	cut_w_stereo_44KHz.wav
2	166	2	2	1	C	1	1	822	1	Ⴡ	cut_w_stereo_44KHz.wav
2	167	4	3	2	I	1	0	885	0	Ⴃ	cut_l_stereo_44KHz.wav
2	168	3	3	2	I	2	0	654	1	Ⴊ	cut_l_stereo_44KHz.wav
2	169	1	1	1	C	1	1	1006	1	Ⴜ	cut_h_stereo_44KHz.wav
2	170	3	4	2	I	2	0	982	0	Ⴊ	cut_g_stereo_44KHz.wav
2	171	2	2	1	C	1	1	1364	1	Ⴡ	cut_w_stereo_44KHz.wav
2	172	4	4	2	I	2	0	800	1	Ⴃ	cut_g_stereo_44KHz.wav
2	173	2	1	0	C	2	1	698	1	Ⴡ	cut_h_stereo_44KHz.wav
2	174	3	3	2	I	1	0	1196	0	Ⴊ	cut_l_stereo_44KHz.wav
2	175	4	3	2	I	1	0	811	1	Ⴃ	cut_l_stereo_44KHz.wav
2	176	1	2	0	C	2	1	1346	1	Ⴜ	cut_w_stereo_44KHz.wav
2	177	3	3	2	I	2	0	1132	0	Ⴊ	cut_l_stereo_44KHz.wav
2	178	4	3	2	I	2	0	1051	0	Ⴃ	cut_l_stereo_44KHz.wav
2	179	1	2	0	C	2	1	872	1	Ⴜ	cut_w_stereo_44KHz.wav
2	180	2	2	1	C	2	0	536	0	Ⴡ	cut_w_stereo_44KHz.wav
2	181	4	4	2	I	1	0	989	0	Ⴃ	cut_g_stereo_44KHz.wav
2	182	2	1	0	C	2	1	1034	1	Ⴡ	cut_h_stereo_44KHz.wav
2	183	1	1	1	C	1	1	1760	1	Ⴜ	cut_h_stereo_44KHz.wav
2	184	3	4	2	I	2	0	1013	1	Ⴊ	cut_g_stereo_44KHz.wav
2	185	2	1	0	C	2	1	781	1	Ⴡ	cut_h_stereo_44KHz.wav
2	186	3	4	2	I	1	0	742	0	Ⴊ	cut_g_stereo_44KHz.wav
2	187	4	4	2	I	2	0	734	1	Ⴃ	cut_g_stereo_44KHz.wav
2	188	1	1	1	C	1	1	1223	1	Ⴜ	cut_h_stereo_44KHz.wav
2	189	4	3	2	I	1	0	1626	1	Ⴃ	cut_l_stereo_44KHz.wav
2	190	2	2	1	C	1	1	895	1	Ⴡ	cut_w_stereo_44KHz.wav
2	191	3	3	2	I	2	0	872	1	Ⴊ	cut_l_stereo_44KHz.wav
2	192	1	2	0	C	2	1	899	1	Ⴜ	cut_w_stereo_44KHz.wav
2	193	4	4	2	I	1	0	840	0	Ⴃ	cut_g_stereo_44KHz.wav
2	194	1	2	0	C	2	1	1882	1	Ⴜ	cut_w_stereo_44KHz.wav
2	195	3	4	2	I	1	0	807	1	Ⴊ	cut_g_stereo_44KHz.wav
2	196	2	2	1	C	1	1	749	1	Ⴡ	cut_w_stereo_44KHz.wav
2	197	1	1	1	C	1	1	1312	1	Ⴜ	cut_h_stereo_44KHz.wav
2	198	3	3	2	I	1	0	1381	1	Ⴊ	cut_l_stereo_44KHz.wav
2	199	4	3	2	I	2	0	750	1	Ⴃ	cut_l_stereo_44KHz.wav
2	200	2	1	0	C	2	1	1195	1	Ⴡ	cut_h_stereo_44KHz.wav
3	1	3	4	2	I	2	0	1373	0	Ⴂ	cut_a_stereo_44KHz.wav
3	2	4	4	2	I	2	0	1094	0	Ⴁ	cut_a_stereo_44KHz.wav
3	3	1	1	1	C	2	0	1358	0	Ⴟ	cut_u_stereo_44KHz.wav
3	4	2	1	0	C	2	1	1091	1	Ⴇ	cut_u_stereo_44KHz.wav
3	5	4	3	2	I	2	0	993	0	Ⴁ	cut_k_stereo_44KHz.wav
3	6	2	2	1	C	1	1	825	1	Ⴇ	cut_o_stereo_44KHz.wav
3	7	3	3	2	I	2	0	948	1	Ⴂ	cut_k_stereo_44KHz.wav
3	8	1	2	0	C	2	1	1024	1	Ⴟ	cut_o_stereo_44KHz.wav
3	9	3	4	2	I	1	0	1257	1	Ⴂ	cut_a_stereo_44KHz.wav
3	10	4	4	2	I	2	0	1515	1	Ⴁ	cut_a_stereo_44KHz.wav
3	11	2	2	1	C	2	0	1106	0	Ⴇ	cut_o_stereo_44KHz.wav
3	12	1	2	0	C	2	1	994	1	Ⴟ	cut_o_stereo_44KHz.wav
3	13	3	3	2	I	2	0	916	0	Ⴂ	cut_k_stereo_44KHz.wav
3	14	1	1	1	C	2	0	1332	0	Ⴟ	cut_u_stereo_44KHz.wav
3	15	4	3	2	I	2	0	1273	0	Ⴁ	cut_k_stereo_44KHz.wav
3	16	2	1	0	C	2	1	895	1	Ⴇ	cut_u_stereo_44KHz.wav
3	17	3	3	2	I	2	0	1308	1	Ⴂ	cut_k_stereo_44KHz.wav
3	18	4	4	2	I	2	0	1073	0	Ⴁ	cut_a_stereo_44KHz.wav
3	19	2	1	0	C	1	0	1291	0	Ⴇ	cut_u_stereo_44KHz.wav
3	20	1	2	0	C	2	1	1565	1	Ⴟ	cut_o_stereo_44KHz.wav
3	21	3	4	2	I	1	0	1232	0	Ⴂ	cut_a_stereo_44KHz.wav
3	22	2	2	1	C	2	0	1819	0	Ⴇ	cut_o_stereo_44KHz.wav
3	23	4	3	2	I	2	0	1231	0	Ⴁ	cut_k_stereo_44KHz.wav
3	24	1	1	1	C	1	1	1585	1	Ⴟ	cut_u_stereo_44KHz.wav
3	25	3	3	2	I	2	0	1247	0	Ⴂ	cut_k_stereo_44KHz.wav
3	26	2	2	1	C	1	1	843	1	Ⴇ	cut_o_stereo_44KHz.wav
3	27	4	4	2	I	2	0	1738	0	Ⴁ	cut_a_stereo_44KHz.wav
3	28	1	2	0	C	0	0	0	0	Ⴟ	cut_o_stereo_44KHz.wav
3	29	2	1	0	C	2	1	697	1	Ⴇ	cut_u_stereo_44KHz.wav
3	30	4	3	2	I	1	0	1458	1	Ⴁ	cut_k_stereo_44KHz.wav
3	31	1	1	1	C	1	1	911	1	Ⴟ	cut_u_stereo_44KHz.wav
3	32	3	4	2	I	2	0	905	1	Ⴂ	cut_a_stereo_44KHz.wav
3	33	1	1	1	C	1	1	758	1	Ⴟ	cut_u_stereo_44KHz.wav
3	34	4	3	2	I	1	0	1448	1	Ⴁ	cut_k_stereo_44KHz.wav
3	35	2	1	0	C	2	1	1104	1	Ⴇ	cut_u_stereo_44KHz.wav
3	36	3	3	2	I	2	0	1120	0	Ⴂ	cut_k_stereo_44KHz.wav
3	37	4	4	2	I	1	0	1517	0	Ⴁ	cut_a_stereo_44KHz.wav
3	38	1	2	0	C	2	1	999	1	Ⴟ	cut_o_stereo_44KHz.wav
3	39	2	2	1	C	1	1	919	1	Ⴇ	cut_o_stereo_44KHz.wav
3	40	3	4	2	I	2	0	1220	1	Ⴂ	cut_a_stereo_44KHz.wav
3	41	1	1	1	C	1	1	1791	1	Ⴟ	cut_u_stereo_44KHz.wav
3	42	2	1	0	C	2	1	870	1	Ⴇ	cut_u_stereo_44KHz.wav
3	43	4	3	2	I	2	0	1554	0	Ⴁ	cut_k_stereo_44KHz.wav
3	44	3	3	2	I	2	0	1125	0	Ⴂ	cut_k_stereo_44KHz.wav
3	45	2	2	1	C	1	1	949	1	Ⴇ	cut_o_stereo_44KHz.wav
3	46	4	4	2	I	0	0	0	0	Ⴁ	cut_a_stereo_44KHz.wav
3	47	3	4	2	I	2	0	839	0	Ⴂ	cut_a_stereo_44KHz.wav
3	48	1	2	0	C	1	0	1570	0	Ⴟ	cut_o_stereo_44KHz.wav
3	49	2	2	1	C	1	1	852	1	Ⴇ	cut_o_stereo_44KHz.wav
3	50	3	3	2	I	2	0	1742	0	Ⴂ	cut_k_stereo_44KHz.wav
3	51	1	1	1	C	2	0	1976	0	Ⴟ	cut_u_stereo_44KHz.wav
3	52	4	3	2	I	1	0	1339	1	Ⴁ	cut_k_stereo_44KHz.wav
3	53	2	1	0	C	2	1	757	1	Ⴇ	cut_u_stereo_44KHz.wav
3	54	4	4	2	I	2	0	1273	0	Ⴁ	cut_a_stereo_44KHz.wav
3	55	3	4	2	I	2	0	959	1	Ⴂ	cut_a_stereo_44KHz.wav
3	56	1	2	0	C	2	1	477	1	Ⴟ	cut_o_stereo_44KHz.wav
3	57	3	3	2	I	1	0	810	0	Ⴂ	cut_k_stereo_44KHz.wav
3	58	4	3	2	I	2	0	1013	0	Ⴁ	cut_k_stereo_44KHz.wav
3	59	2	1	0	C	2	1	893	1	Ⴇ	cut_u_stereo_44KHz.wav
3	60	1	2	0	C	2	1	907	1	Ⴟ	cut_o_stereo_44KHz.wav
3	61	4	4	2	I	0	0	0	0	Ⴁ	cut_a_stereo_44KHz.wav
3	62	3	4	2	I	2	0	1032	0	Ⴂ	cut_a_stereo_44KHz.wav
3	63	2	2	1	C	1	1	1025	1	Ⴇ	cut_o_stereo_44KHz.wav
3	64	1	1	1	C	1	1	1335	1	Ⴟ	cut_u_stereo_44KHz.wav
3	65	3	3	2	I	2	0	1627	1	Ⴂ	cut_k_stereo_44KHz.wav
3	66	4	4	2	I	1	0	877	0	Ⴁ	cut_a_stereo_44KHz.wav
3	67	1	2	0	C	2	1	1883	1	Ⴟ	cut_o_stereo_44KHz.wav
3	68	2	1	0	C	2	1	828	1	Ⴇ	cut_u_stereo_44KHz.wav
3	69	1	1	1	C	1	1	983	1	Ⴟ	cut_u_stereo_44KHz.wav
3	70	3	4	2	I	1	0	1756	1	Ⴂ	cut_a_stereo_44KHz.wav
3	71	2	2	1	C	2	0	1771	0	Ⴇ	cut_o_stereo_44KHz.wav
3	72	4	3	2	I	1	0	1545	0	Ⴁ	cut_k_stereo_44KHz.wav
3	73	2	1	0	C	2	1	865	1	Ⴇ	cut_u_stereo_44KHz.wav
3	74	4	4	2	I	1	0	1323	1	Ⴁ	cut_a_stereo_44KHz.wav
3	75	1	2	0	C	2	1	921	1	Ⴟ	cut_o_stereo_44KHz.wav
3	76	3	3	2	I	2	0	1037	1	Ⴂ	cut_k_stereo_44KHz.wav
3	77	1	1	1	C	1	1	1216	1	Ⴟ	cut_u_stereo_44KHz.wav
3	78	3	4	2	I	2	0	1524	0	Ⴂ	cut_a_stereo_44KHz.wav
3	79	2	2	1	C	1	1	1426	1	Ⴇ	cut_o_stereo_44KHz.wav
3	80	4	3	2	I	1	0	1763	0	Ⴁ	cut_k_stereo_44KHz.wav
3	81	3	4	2	I	1	0	1782	0	Ⴂ	cut_a_stereo_44KHz.wav
3	82	2	1	0	C	2	1	1174	1	Ⴇ	cut_u_stereo_44KHz.wav
3	83	1	2	0	C	2	1	1052	1	Ⴟ	cut_o_stereo_44KHz.wav
3	84	4	4	2	I	2	0	1083	0	Ⴁ	cut_a_stereo_44KHz.wav
3	85	2	2	1	C	1	1	1374	1	Ⴇ	cut_o_stereo_44KHz.wav
3	86	4	3	2	I	2	0	1278	1	Ⴁ	cut_k_stereo_44KHz.wav
3	87	3	3	2	I	1	0	985	1	Ⴂ	cut_k_stereo_44KHz.wav
3	88	1	1	1	C	1	1	959	1	Ⴟ	cut_u_stereo_44KHz.wav
3	89	4	3	2	I	2	0	1632	1	Ⴁ	cut_k_stereo_44KHz.wav
3	90	3	4	2	I	2	0	1157	0	Ⴂ	cut_a_stereo_44KHz.wav
3	91	2	1	0	C	2	1	915	1	Ⴇ	cut_u_stereo_44KHz.wav
3	92	1	2	0	C	2	1	772	1	Ⴟ	cut_o_stereo_44KHz.wav
3	93	4	4	2	I	1	0	1763	0	Ⴁ	cut_a_stereo_44KHz.wav
3	94	1	1	1	C	1	1	1214	1	Ⴟ	cut_u_stereo_44KHz.wav
3	95	2	2	1	C	1	1	1787	1	Ⴇ	cut_o_stereo_44KHz.wav
3	96	3	3	2	I	2	0	1806	0	Ⴂ	cut_k_stereo_44KHz.wav
3	97	4	3	2	I	2	0	1040	1	Ⴁ	cut_k_stereo_44KHz.wav
3	98	1	1	1	C	1	1	907	1	Ⴟ	cut_u_stereo_44KHz.wav
3	99	2	1	0	C	2	1	1619	1	Ⴇ	cut_u_stereo_44KHz.wav
3	100	3	3	2	I	2	0	1775	1	Ⴂ	cut_k_stereo_44KHz.wav
3	101	4	4	2	I	0	0	0	0	Ⴁ	cut_a_stereo_44KHz.wav
3	102	2	2	1	C	1	1	1468	1	Ⴇ	cut_o_stereo_44KHz.wav
3	103	1	2	0	C	2	1	1408	1	Ⴟ	cut_o_stereo_44KHz.wav
3	104	3	4	2	I	1	0	963	0	Ⴂ	cut_a_stereo_44KHz.wav
3	105	2	2	1	C	1	1	950	1	Ⴇ	cut_o_stereo_44KHz.wav
3	106	3	3	2	I	1	0	1265	1	Ⴂ	cut_k_stereo_44KHz.wav
3	107	4	3	2	I	2	0	1302	1	Ⴁ	cut_k_stereo_44KHz.wav
3	108	1	1	1	C	1	1	1619	1	Ⴟ	cut_u_stereo_44KHz.wav
3	109	4	4	2	I	1	0	1568	0	Ⴁ	cut_a_stereo_44KHz.wav
3	110	3	4	2	I	2	0	1364	1	Ⴂ	cut_a_stereo_44KHz.wav
3	111	1	2	0	C	1	0	1363	0	Ⴟ	cut_o_stereo_44KHz.wav
3	112	2	1	0	C	2	1	1325	1	Ⴇ	cut_u_stereo_44KHz.wav
3	113	4	3	2	I	2	0	1215	1	Ⴁ	cut_k_stereo_44KHz.wav
3	114	3	3	2	I	2	0	1562	1	Ⴂ	cut_k_stereo_44KHz.wav
3	115	2	1	0	C	2	1	717	1	Ⴇ	cut_u_stereo_44KHz.wav
3	116	1	2	0	C	2	1	1131	1	Ⴟ	cut_o_stereo_44KHz.wav
3	117	4	4	2	I	2	0	1399	1	Ⴁ	cut_a_stereo_44KHz.wav
3	118	3	4	2	I	2	0	702	1	Ⴂ	cut_a_stereo_44KHz.wav
3	119	1	1	1	C	1	1	1307	1	Ⴟ	cut_u_stereo_44KHz.wav
3	120	2	2	1	C	1	1	1336	1	Ⴇ	cut_o_stereo_44KHz.wav
3	121	4	3	2	I	2	0	916	0	Ⴁ	cut_k_stereo_44KHz.wav
3	122	3	4	2	I	2	0	896	1	Ⴂ	cut_a_stereo_44KHz.wav
3	123	2	2	1	C	1	1	1652	1	Ⴇ	cut_o_stereo_44KHz.wav
3	124	1	2	0	C	2	1	977	1	Ⴟ	cut_o_stereo_44KHz.wav
3	125	2	1	0	C	2	1	1426	1	Ⴇ	cut_u_stereo_44KHz.wav
3	126	4	4	2	I	2	0	1445	1	Ⴁ	cut_a_stereo_44KHz.wav
3	127	1	1	1	C	1	1	1965	1	Ⴟ	cut_u_stereo_44KHz.wav
3	128	3	3	2	I	2	0	1272	1	Ⴂ	cut_k_stereo_44KHz.wav
3	129	4	4	2	I	2	0	1643	0	Ⴁ	cut_a_stereo_44KHz.wav
3	130	3	4	2	I	2	0	711	1	Ⴂ	cut_a_stereo_44KHz.wav
3	131	2	2	1	C	1	1	1331	1	Ⴇ	cut_o_stereo_44KHz.wav
3	132	1	1	1	C	1	1	939	1	Ⴟ	cut_u_stereo_44KHz.wav
3	133	4	3	2	I	1	0	1834	0	Ⴁ	cut_k_stereo_44KHz.wav
3	134	3	3	2	I	2	0	1001	1	Ⴂ	cut_k_stereo_44KHz.wav
3	135	1	2	0	C	2	1	1411	1	Ⴟ	cut_o_stereo_44KHz.wav
3	136	2	1	0	C	2	1	880	1	Ⴇ	cut_u_stereo_44KHz.wav
3	137	1	2	0	C	2	1	859	1	Ⴟ	cut_o_stereo_44KHz.wav
3	138	2	2	1	C	1	1	788	1	Ⴇ	cut_o_stereo_44KHz.wav
3	139	4	4	2	I	2	0	1281	1	Ⴁ	cut_a_stereo_44KHz.wav
3	140	3	4	2	I	2	0	839	0	Ⴂ	cut_a_stereo_44KHz.wav
3	141	4	3	2	I	2	0	670	1	Ⴁ	cut_k_stereo_44KHz.wav
3	142	2	1	0	C	2	1	1012	1	Ⴇ	cut_u_stereo_44KHz.wav
3	143	3	3	2	I	2	0	847	1	Ⴂ	cut_k_stereo_44KHz.wav
3	144	1	1	1	C	1	1	832	1	Ⴟ	cut_u_stereo_44KHz.wav
3	145	3	4	2	I	2	0	1056	0	Ⴂ	cut_a_stereo_44KHz.wav
3	146	4	3	2	I	2	0	833	1	Ⴁ	cut_k_stereo_44KHz.wav
3	147	1	2	0	C	1	0	1447	0	Ⴟ	cut_o_stereo_44KHz.wav
3	148	2	2	1	C	1	1	1154	1	Ⴇ	cut_o_stereo_44KHz.wav
3	149	4	4	2	I	2	0	1509	1	Ⴁ	cut_a_stereo_44KHz.wav
3	150	3	3	2	I	2	0	1040	1	Ⴂ	cut_k_stereo_44KHz.wav
3	151	2	1	0	C	2	1	1271	1	Ⴇ	cut_u_stereo_44KHz.wav
3	152	1	1	1	C	1	1	998	1	Ⴟ	cut_u_stereo_44KHz.wav
3	153	3	3	2	I	2	0	815	0	Ⴂ	cut_k_stereo_44KHz.wav
3	154	4	3	2	I	2	0	893	0	Ⴁ	cut_k_stereo_44KHz.wav
3	155	2	2	1	C	1	1	1347	1	Ⴇ	cut_o_stereo_44KHz.wav
3	156	1	1	1	C	1	1	1026	1	Ⴟ	cut_u_stereo_44KHz.wav
3	157	2	1	0	C	2	1	1244	1	Ⴇ	cut_u_stereo_44KHz.wav
3	158	4	4	2	I	2	0	920	1	Ⴁ	cut_a_stereo_44KHz.wav
3	159	1	2	0	C	2	1	1538	1	Ⴟ	cut_o_stereo_44KHz.wav
3	160	3	4	2	I	2	0	1191	0	Ⴂ	cut_a_stereo_44KHz.wav
3	161	4	3	2	I	1	0	1825	0	Ⴁ	cut_k_stereo_44KHz.wav
3	162	3	4	2	I	2	0	895	0	Ⴂ	cut_a_stereo_44KHz.wav
3	163	2	2	1	C	0	0	0	0	Ⴇ	cut_o_stereo_44KHz.wav
3	164	1	2	0	C	2	1	1451	1	Ⴟ	cut_o_stereo_44KHz.wav
3	165	2	1	0	C	2	1	807	1	Ⴇ	cut_u_stereo_44KHz.wav
3	166	4	4	2	I	1	0	810	1	Ⴁ	cut_a_stereo_44KHz.wav
3	167	1	1	1	C	1	1	1099	1	Ⴟ	cut_u_stereo_44KHz.wav
3	168	3	3	2	I	2	0	1009	0	Ⴂ	cut_k_stereo_44KHz.wav
3	169	1	1	1	C	2	0	1699	0	Ⴟ	cut_u_stereo_44KHz.wav
3	170	4	4	2	I	1	0	1072	1	Ⴁ	cut_a_stereo_44KHz.wav
3	171	3	3	2	I	1	0	819	1	Ⴂ	cut_k_stereo_44KHz.wav
3	172	2	1	0	C	2	1	1322	1	Ⴇ	cut_u_stereo_44KHz.wav
3	173	3	4	2	I	1	0	1744	0	Ⴂ	cut_a_stereo_44KHz.wav
3	174	2	2	1	C	1	1	1557	1	Ⴇ	cut_o_stereo_44KHz.wav
3	175	1	2	0	C	1	0	880	0	Ⴟ	cut_o_stereo_44KHz.wav
3	176	4	3	2	I	2	0	801	0	Ⴁ	cut_k_stereo_44KHz.wav
3	177	3	4	2	I	1	0	798	0	Ⴂ	cut_a_stereo_44KHz.wav
3	178	2	1	0	C	2	1	1678	1	Ⴇ	cut_u_stereo_44KHz.wav
3	179	4	3	2	I	1	0	1032	0	Ⴁ	cut_k_stereo_44KHz.wav
3	180	1	2	0	C	2	1	1061	1	Ⴟ	cut_o_stereo_44KHz.wav
3	181	3	3	2	I	0	0	0	0	Ⴂ	cut_k_stereo_44KHz.wav
3	182	4	4	2	I	2	0	1233	1	Ⴁ	cut_a_stereo_44KHz.wav
3	183	2	2	1	C	1	1	1073	1	Ⴇ	cut_o_stereo_44KHz.wav
3	184	1	1	1	C	1	1	868	1	Ⴟ	cut_u_stereo_44KHz.wav
3	185	2	1	0	C	2	1	1143	1	Ⴇ	cut_u_stereo_44KHz.wav
3	186	3	3	2	I	2	0	830	0	Ⴂ	cut_k_stereo_44KHz.wav
3	187	1	2	0	C	2	1	1516	1	Ⴟ	cut_o_stereo_44KHz.wav
3	188	4	4	2	I	2	0	1221	1	Ⴁ	cut_a_stereo_44KHz.wav
3	189	2	2	1	C	0	0	0	0	Ⴇ	cut_o_stereo_44KHz.wav
3	190	1	1	1	C	1	1	1384	1	Ⴟ	cut_u_stereo_44KHz.wav
3	191	4	3	2	I	2	0	858	1	Ⴁ	cut_k_stereo_44KHz.wav
3	192	3	4	2	I	1	0	634	0	Ⴂ	cut_a_stereo_44KHz.wav
3	193	1	2	0	C	2	1	980	1	Ⴟ	cut_o_stereo_44KHz.wav
3	194	2	2	1	C	1	1	1769	1	Ⴇ	cut_o_stereo_44KHz.wav
3	195	3	3	2	I	2	0	683	1	Ⴂ	cut_k_stereo_44KHz.wav
3	196	4	3	2	I	1	0	949	1	Ⴁ	cut_k_stereo_44KHz.wav
3	197	1	1	1	C	1	1	1258	1	Ⴟ	cut_u_stereo_44KHz.wav
3	198	2	1	0	C	2	1	790	1	Ⴇ	cut_u_stereo_44KHz.wav
3	199	3	4	2	I	2	0	901	1	Ⴂ	cut_a_stereo_44KHz.wav
3	200	4	4	2	I	2	0	1290	0	Ⴁ	cut_a_stereo_44KHz.wav
4	1	1	2	0	C	2	1	1542	1	Ⴐ	cut_s_stereo_44KHz.wav
4	2	2	1	0	C	1	0	1044	0	Ⴖ	cut_f_stereo_44KHz.wav
4	3	3	3	2	I	2	0	887	0	Ⴔ	cut_ui_stereo_44KHz.wav
4	4	4	4	2	I	2	0	807	0	Ⴕ	cut_r_stereo_44KHz.wav
4	5	1	1	1	C	2	0	960	0	Ⴐ	cut_f_stereo_44KHz.wav
4	6	4	3	2	I	2	0	819	1	Ⴕ	cut_ui_stereo_44KHz.wav
4	7	3	4	2	I	2	0	1080	1	Ⴔ	cut_r_stereo_44KHz.wav
4	8	2	2	1	C	1	1	1104	1	Ⴖ	cut_s_stereo_44KHz.wav
4	9	3	3	2	I	1	0	1328	1	Ⴔ	cut_ui_stereo_44KHz.wav
4	10	1	1	1	C	1	1	978	1	Ⴐ	cut_f_stereo_44KHz.wav
4	11	4	3	2	I	2	0	1005	0	Ⴕ	cut_ui_stereo_44KHz.wav
4	12	2	2	1	C	1	1	1179	1	Ⴖ	cut_s_stereo_44KHz.wav
4	13	3	4	2	I	2	0	1040	1	Ⴔ	cut_r_stereo_44KHz.wav
4	14	1	2	0	C	2	1	804	1	Ⴐ	cut_s_stereo_44KHz.wav
4	15	2	1	0	C	2	1	1385	1	Ⴖ	cut_f_stereo_44KHz.wav
4	16	4	4	2	I	1	0	1518	0	Ⴕ	cut_r_stereo_44KHz.wav
4	17	3	4	2	I	2	0	733	1	Ⴔ	cut_r_stereo_44KHz.wav
4	18	2	1	0	C	2	1	971	1	Ⴖ	cut_f_stereo_44KHz.wav
4	19	4	3	2	I	2	0	1066	0	Ⴕ	cut_ui_stereo_44KHz.wav
4	20	1	1	1	C	1	1	1067	1	Ⴐ	cut_f_stereo_44KHz.wav
4	21	3	3	2	I	1	0	1283	0	Ⴔ	cut_ui_stereo_44KHz.wav
4	22	2	2	1	C	1	1	1328	1	Ⴖ	cut_s_stereo_44KHz.wav
4	23	4	4	2	I	2	0	1443	1	Ⴕ	cut_r_stereo_44KHz.wav
4	24	1	2	0	C	2	1	1154	1	Ⴐ	cut_s_stereo_44KHz.wav
4	25	4	4	2	I	2	0	1081	1	Ⴕ	cut_r_stereo_44KHz.wav
4	26	2	2	1	C	1	1	1454	1	Ⴖ	cut_s_stereo_44KHz.wav
4	27	3	4	2	I	2	0	965	0	Ⴔ	cut_r_stereo_44KHz.wav
4	28	1	1	1	C	1	1	1322	1	Ⴐ	cut_f_stereo_44KHz.wav
4	29	3	3	2	I	1	0	1607	0	Ⴔ	cut_ui_stereo_44KHz.wav
4	30	1	2	0	C	2	1	827	1	Ⴐ	cut_s_stereo_44KHz.wav
4	31	4	3	2	I	2	0	804	1	Ⴕ	cut_ui_stereo_44KHz.wav
4	32	2	1	0	C	2	1	969	1	Ⴖ	cut_f_stereo_44KHz.wav
4	33	4	4	2	I	2	0	1025	1	Ⴕ	cut_r_stereo_44KHz.wav
4	34	1	2	0	C	2	1	700	1	Ⴐ	cut_s_stereo_44KHz.wav
4	35	3	3	2	I	2	0	1333	0	Ⴔ	cut_ui_stereo_44KHz.wav
4	36	2	2	1	C	1	1	922	1	Ⴖ	cut_s_stereo_44KHz.wav
4	37	3	4	2	I	2	0	1611	0	Ⴔ	cut_r_stereo_44KHz.wav
4	38	2	1	0	C	2	1	880	1	Ⴖ	cut_f_stereo_44KHz.wav
4	39	4	3	2	I	2	0	940	0	Ⴕ	cut_ui_stereo_44KHz.wav
4	40	1	1	1	C	1	1	743	1	Ⴐ	cut_f_stereo_44KHz.wav
4	41	4	3	2	I	2	0	866	0	Ⴕ	cut_ui_stereo_44KHz.wav
4	42	3	4	2	I	2	0	1638	0	Ⴔ	cut_r_stereo_44KHz.wav
4	43	2	2	1	C	2	0	770	0	Ⴖ	cut_s_stereo_44KHz.wav
4	44	1	1	1	C	1	1	1032	1	Ⴐ	cut_f_stereo_44KHz.wav
4	45	2	1	0	C	2	1	777	1	Ⴖ	cut_f_stereo_44KHz.wav
4	46	1	2	0	C	2	1	1022	1	Ⴐ	cut_s_stereo_44KHz.wav
4	47	4	4	2	I	2	0	843	0	Ⴕ	cut_r_stereo_44KHz.wav
4	48	3	3	2	I	2	0	698	1	Ⴔ	cut_ui_stereo_44KHz.wav
4	49	1	2	0	C	2	1	1457	1	Ⴐ	cut_s_stereo_44KHz.wav
4	50	3	3	2	I	2	0	676	1	Ⴔ	cut_ui_stereo_44KHz.wav
4	51	2	2	1	C	1	1	1073	1	Ⴖ	cut_s_stereo_44KHz.wav
4	52	4	3	2	I	1	0	928	1	Ⴕ	cut_ui_stereo_44KHz.wav
4	53	2	1	0	C	2	1	901	1	Ⴖ	cut_f_stereo_44KHz.wav
4	54	4	4	2	I	2	0	1143	1	Ⴕ	cut_r_stereo_44KHz.wav
4	55	3	4	2	I	1	0	1260	0	Ⴔ	cut_r_stereo_44KHz.wav
4	56	1	1	1	C	1	1	1151	1	Ⴐ	cut_f_stereo_44KHz.wav
4	57	2	1	0	C	2	1	655	1	Ⴖ	cut_f_stereo_44KHz.wav
4	58	1	1	1	C	1	1	764	1	Ⴐ	cut_f_stereo_44KHz.wav
4	59	4	4	2	I	1	0	1375	0	Ⴕ	cut_r_stereo_44KHz.wav
4	60	3	3	2	I	2	0	1030	1	Ⴔ	cut_ui_stereo_44KHz.wav
4	61	4	3	2	I	1	0	1218	0	Ⴕ	cut_ui_stereo_44KHz.wav
4	62	1	2	0	C	2	1	875	1	Ⴐ	cut_s_stereo_44KHz.wav
4	63	2	2	1	C	1	1	825	1	Ⴖ	cut_s_stereo_44KHz.wav
4	64	3	4	2	I	1	0	1655	0	Ⴔ	cut_r_stereo_44KHz.wav
4	65	4	4	2	I	2	0	964	0	Ⴕ	cut_r_stereo_44KHz.wav
4	66	3	4	2	I	2	0	1725	1	Ⴔ	cut_r_stereo_44KHz.wav
4	67	1	1	1	C	1	1	881	1	Ⴐ	cut_f_stereo_44KHz.wav
4	68	2	1	0	C	2	1	804	1	Ⴖ	cut_f_stereo_44KHz.wav
4	69	3	3	2	I	2	0	958	0	Ⴔ	cut_ui_stereo_44KHz.wav
4	70	2	2	1	C	1	1	1795	1	Ⴖ	cut_s_stereo_44KHz.wav
4	71	1	2	0	C	2	1	671	1	Ⴐ	cut_s_stereo_44KHz.wav
4	72	4	3	2	I	2	0	1109	1	Ⴕ	cut_ui_stereo_44KHz.wav
4	73	3	4	2	I	2	0	881	0	Ⴔ	cut_r_stereo_44KHz.wav
4	74	4	3	2	I	2	0	1114	0	Ⴕ	cut_ui_stereo_44KHz.wav
4	75	2	2	1	C	1	1	878	1	Ⴖ	cut_s_stereo_44KHz.wav
4	76	1	1	1	C	1	1	793	1	Ⴐ	cut_f_stereo_44KHz.wav
4	77	2	1	0	C	2	1	687	1	Ⴖ	cut_f_stereo_44KHz.wav
4	78	4	4	2	I	2	0	1717	0	Ⴕ	cut_r_stereo_44KHz.wav
4	79	3	3	2	I	2	0	1173	1	Ⴔ	cut_ui_stereo_44KHz.wav
4	80	1	2	0	C	2	1	791	1	Ⴐ	cut_s_stereo_44KHz.wav
4	81	2	1	0	C	2	1	803	1	Ⴖ	cut_f_stereo_44KHz.wav
4	82	4	3	2	I	1	0	1572	0	Ⴕ	cut_ui_stereo_44KHz.wav
4	83	3	4	2	I	0	0	0	0	Ⴔ	cut_r_stereo_44KHz.wav
4	84	1	1	1	C	1	1	878	1	Ⴐ	cut_f_stereo_44KHz.wav
4	85	3	3	2	I	2	0	1364	1	Ⴔ	cut_ui_stereo_44KHz.wav
4	86	4	4	2	I	2	0	1006	0	Ⴕ	cut_r_stereo_44KHz.wav
4	87	1	2	0	C	2	1	696	1	Ⴐ	cut_s_stereo_44KHz.wav
4	88	2	2	1	C	1	1	1217	1	Ⴖ	cut_s_stereo_44KHz.wav
4	89	4	4	2	I	2	0	789	1	Ⴕ	cut_r_stereo_44KHz.wav
4	90	2	2	1	C	1	1	860	1	Ⴖ	cut_s_stereo_44KHz.wav
4	91	3	4	2	I	1	0	1301	1	Ⴔ	cut_r_stereo_44KHz.wav
4	92	1	1	1	C	1	1	1189	1	Ⴐ	cut_f_stereo_44KHz.wav
4	93	3	3	2	I	2	0	965	0	Ⴔ	cut_ui_stereo_44KHz.wav
4	94	1	2	0	C	2	1	956	1	Ⴐ	cut_s_stereo_44KHz.wav
4	95	4	3	2	I	1	0	1633	1	Ⴕ	cut_ui_stereo_44KHz.wav
4	96	2	1	0	C	2	1	707	1	Ⴖ	cut_f_stereo_44KHz.wav
4	97	3	4	2	I	2	0	800	0	Ⴔ	cut_r_stereo_44KHz.wav
4	98	2	2	1	C	1	1	885	1	Ⴖ	cut_s_stereo_44KHz.wav
4	99	4	4	2	I	2	0	1523	0	Ⴕ	cut_r_stereo_44KHz.wav
4	100	1	2	0	C	2	1	710	1	Ⴐ	cut_s_stereo_44KHz.wav
4	101	3	3	2	I	1	0	735	1	Ⴔ	cut_ui_stereo_44KHz.wav
4	102	4	3	2	I	2	0	964	0	Ⴕ	cut_ui_stereo_44KHz.wav
4	103	2	1	0	C	2	1	967	1	Ⴖ	cut_f_stereo_44KHz.wav
4	104	1	1	1	C	1	1	755	1	Ⴐ	cut_f_stereo_44KHz.wav
4	105	2	1	0	C	2	1	683	1	Ⴖ	cut_f_stereo_44KHz.wav
4	106	1	2	0	C	2	1	1003	1	Ⴐ	cut_s_stereo_44KHz.wav
4	107	4	4	2	I	2	0	1031	0	Ⴕ	cut_r_stereo_44KHz.wav
4	108	3	3	2	I	1	0	690	1	Ⴔ	cut_ui_stereo_44KHz.wav
4	109	2	2	1	C	1	1	928	1	Ⴖ	cut_s_stereo_44KHz.wav
4	110	4	3	2	I	1	0	1132	1	Ⴕ	cut_ui_stereo_44KHz.wav
4	111	1	1	1	C	1	1	868	1	Ⴐ	cut_f_stereo_44KHz.wav
4	112	3	4	2	I	2	0	831	1	Ⴔ	cut_r_stereo_44KHz.wav
4	113	1	2	0	C	2	1	1126	1	Ⴐ	cut_s_stereo_44KHz.wav
4	114	3	4	2	I	1	0	1128	1	Ⴔ	cut_r_stereo_44KHz.wav
4	115	2	1	0	C	2	1	797	1	Ⴖ	cut_f_stereo_44KHz.wav
4	116	4	4	2	I	2	0	882	0	Ⴕ	cut_r_stereo_44KHz.wav
4	117	2	2	1	C	1	1	769	1	Ⴖ	cut_s_stereo_44KHz.wav
4	118	1	1	1	C	1	1	791	1	Ⴐ	cut_f_stereo_44KHz.wav
4	119	3	3	2	I	2	0	1300	0	Ⴔ	cut_ui_stereo_44KHz.wav
4	120	4	3	2	I	2	0	838	1	Ⴕ	cut_ui_stereo_44KHz.wav
4	121	2	1	0	C	2	1	931	1	Ⴖ	cut_f_stereo_44KHz.wav
4	122	3	3	2	I	2	0	923	1	Ⴔ	cut_ui_stereo_44KHz.wav
4	123	1	1	1	C	1	1	810	1	Ⴐ	cut_f_stereo_44KHz.wav
4	124	4	3	2	I	1	0	907	1	Ⴕ	cut_ui_stereo_44KHz.wav
4	125	1	2	0	C	2	1	721	1	Ⴐ	cut_s_stereo_44KHz.wav
4	126	3	4	2	I	2	0	777	0	Ⴔ	cut_r_stereo_44KHz.wav
4	127	2	2	1	C	1	1	780	1	Ⴖ	cut_s_stereo_44KHz.wav
4	128	4	4	2	I	2	0	725	1	Ⴕ	cut_r_stereo_44KHz.wav
4	129	3	4	2	I	1	0	985	1	Ⴔ	cut_r_stereo_44KHz.wav
4	130	4	4	2	I	2	0	1366	0	Ⴕ	cut_r_stereo_44KHz.wav
4	131	1	2	0	C	2	1	1693	1	Ⴐ	cut_s_stereo_44KHz.wav
4	132	2	1	0	C	2	1	656	1	Ⴖ	cut_f_stereo_44KHz.wav
4	133	4	3	2	I	2	0	1125	1	Ⴕ	cut_ui_stereo_44KHz.wav
4	134	1	1	1	C	1	1	863	1	Ⴐ	cut_f_stereo_44KHz.wav
4	135	2	2	1	C	1	1	906	1	Ⴖ	cut_s_stereo_44KHz.wav
4	136	3	3	2	I	2	0	717	0	Ⴔ	cut_ui_stereo_44KHz.wav
4	137	4	3	2	I	2	0	809	1	Ⴕ	cut_ui_stereo_44KHz.wav
4	138	3	4	2	I	2	0	1046	1	Ⴔ	cut_r_stereo_44KHz.wav
4	139	1	1	1	C	1	1	860	1	Ⴐ	cut_f_stereo_44KHz.wav
4	140	2	1	0	C	2	1	773	1	Ⴖ	cut_f_stereo_44KHz.wav
4	141	4	4	2	I	2	0	919	1	Ⴕ	cut_r_stereo_44KHz.wav
4	142	2	2	1	C	1	1	1076	1	Ⴖ	cut_s_stereo_44KHz.wav
4	143	1	2	0	C	2	1	964	1	Ⴐ	cut_s_stereo_44KHz.wav
4	144	3	3	2	I	2	0	813	1	Ⴔ	cut_ui_stereo_44KHz.wav
4	145	4	4	2	I	1	0	1115	0	Ⴕ	cut_r_stereo_44KHz.wav
4	146	1	2	0	C	2	1	853	1	Ⴐ	cut_s_stereo_44KHz.wav
4	147	2	1	0	C	2	1	860	1	Ⴖ	cut_f_stereo_44KHz.wav
4	148	3	3	2	I	2	0	1164	1	Ⴔ	cut_ui_stereo_44KHz.wav
4	149	2	2	1	C	1	1	1015	1	Ⴖ	cut_s_stereo_44KHz.wav
4	150	4	3	2	I	2	0	995	0	Ⴕ	cut_ui_stereo_44KHz.wav
4	151	3	4	2	I	2	0	1157	0	Ⴔ	cut_r_stereo_44KHz.wav
4	152	1	1	1	C	1	1	808	1	Ⴐ	cut_f_stereo_44KHz.wav
4	153	2	1	0	C	2	1	836	1	Ⴖ	cut_f_stereo_44KHz.wav
4	154	4	4	2	I	2	0	949	1	Ⴕ	cut_r_stereo_44KHz.wav
4	155	3	4	2	I	1	0	1106	1	Ⴔ	cut_r_stereo_44KHz.wav
4	156	1	2	0	C	2	1	856	1	Ⴐ	cut_s_stereo_44KHz.wav
4	157	3	3	2	I	2	0	1091	0	Ⴔ	cut_ui_stereo_44KHz.wav
4	158	1	1	1	C	1	1	811	1	Ⴐ	cut_f_stereo_44KHz.wav
4	159	4	3	2	I	1	0	1299	1	Ⴕ	cut_ui_stereo_44KHz.wav
4	160	2	2	1	C	1	1	864	1	Ⴖ	cut_s_stereo_44KHz.wav
4	161	1	2	0	C	2	1	976	1	Ⴐ	cut_s_stereo_44KHz.wav
4	162	3	4	2	I	2	0	830	0	Ⴔ	cut_r_stereo_44KHz.wav
4	163	4	3	2	I	2	0	800	1	Ⴕ	cut_ui_stereo_44KHz.wav
4	164	2	2	1	C	1	1	820	1	Ⴖ	cut_s_stereo_44KHz.wav
4	165	1	1	1	C	1	1	1044	1	Ⴐ	cut_f_stereo_44KHz.wav
4	166	4	4	2	I	2	0	796	0	Ⴕ	cut_r_stereo_44KHz.wav
4	167	3	3	2	I	2	0	724	0	Ⴔ	cut_ui_stereo_44KHz.wav
4	168	2	1	0	C	2	1	655	1	Ⴖ	cut_f_stereo_44KHz.wav
4	169	1	2	0	C	2	1	792	1	Ⴐ	cut_s_stereo_44KHz.wav
4	170	3	4	2	I	2	0	829	1	Ⴔ	cut_r_stereo_44KHz.wav
4	171	4	4	2	I	2	0	824	1	Ⴕ	cut_r_stereo_44KHz.wav
4	172	2	1	0	C	2	1	773	1	Ⴖ	cut_f_stereo_44KHz.wav
4	173	3	3	2	I	1	0	1114	1	Ⴔ	cut_ui_stereo_44KHz.wav
4	174	4	3	2	I	2	0	1124	1	Ⴕ	cut_ui_stereo_44KHz.wav
4	175	2	2	1	C	1	1	1116	1	Ⴖ	cut_s_stereo_44KHz.wav
4	176	1	1	1	C	1	1	1146	1	Ⴐ	cut_f_stereo_44KHz.wav
4	177	3	4	2	I	2	0	893	0	Ⴔ	cut_r_stereo_44KHz.wav
4	178	1	1	1	C	1	1	1347	1	Ⴐ	cut_f_stereo_44KHz.wav
4	179	2	2	1	C	1	1	1177	1	Ⴖ	cut_s_stereo_44KHz.wav
4	180	4	4	2	I	1	0	1358	0	Ⴕ	cut_r_stereo_44KHz.wav
4	181	2	1	0	C	2	1	817	1	Ⴖ	cut_f_stereo_44KHz.wav
4	182	4	3	2	I	2	0	867	1	Ⴕ	cut_ui_stereo_44KHz.wav
4	183	3	3	2	I	1	0	1153	1	Ⴔ	cut_ui_stereo_44KHz.wav
4	184	1	2	0	C	2	1	1385	1	Ⴐ	cut_s_stereo_44KHz.wav
4	185	2	1	0	C	2	1	809	1	Ⴖ	cut_f_stereo_44KHz.wav
4	186	1	1	1	C	1	1	827	1	Ⴐ	cut_f_stereo_44KHz.wav
4	187	3	4	2	I	2	0	1454	0	Ⴔ	cut_r_stereo_44KHz.wav
4	188	4	3	2	I	2	0	1291	1	Ⴕ	cut_ui_stereo_44KHz.wav
4	189	2	2	1	C	1	1	840	1	Ⴖ	cut_s_stereo_44KHz.wav
4	190	1	2	0	C	2	1	1066	1	Ⴐ	cut_s_stereo_44KHz.wav
4	191	4	4	2	I	1	0	1338	0	Ⴕ	cut_r_stereo_44KHz.wav
4	192	3	3	2	I	2	0	1795	0	Ⴔ	cut_ui_stereo_44KHz.wav
4	193	4	4	2	I	2	0	777	1	Ⴕ	cut_r_stereo_44KHz.wav
4	194	1	2	0	C	2	1	677	1	Ⴐ	cut_s_stereo_44KHz.wav
4	195	3	3	2	I	2	0	1051	0	Ⴔ	cut_ui_stereo_44KHz.wav
4	196	2	1	0	C	2	1	725	1	Ⴖ	cut_f_stereo_44KHz.wav
4	197	1	1	1	C	1	1	1487	1	Ⴐ	cut_f_stereo_44KHz.wav
4	198	2	2	1	C	1	1	1454	1	Ⴖ	cut_s_stereo_44KHz.wav
4	199	4	3	2	I	2	0	826	0	Ⴕ	cut_ui_stereo_44KHz.wav
4	200	3	4	2	I	2	0	775	0	Ⴔ	cut_r_stereo_44KHz.wav
