block	trial	Vstim	Astim	match	C/I	resp	result	RT	fb	V-file	A-file
RL

0	1	2	3	1	C	0	0	0	0	Ⴉ	cut_g_stereo_44KHz.wav
0	2	1	1	1	C	2	0	1200	0	Ⴞ	cut_eeuw_stereo_44KHz.wav
0	3	2	4	0	C	1	0	1452	0	Ⴉ	cut_oo_stereo_44KHz.wav
0	4	1	2	0	C	2	1	992	1	Ⴞ	cut_ee_stereo_44KHz.wav
0	5	1	1	1	C	2	0	820	0	Ⴞ	cut_eeuw_stereo_44KHz.wav
0	6	2	4	0	C	2	1	1236	1	Ⴉ	cut_oo_stereo_44KHz.wav
0	7	2	3	1	C	2	0	1640	0	Ⴉ	cut_g_stereo_44KHz.wav
0	8	1	2	0	C	2	1	947	1	Ⴞ	cut_ee_stereo_44KHz.wav
0	9	1	2	0	C	1	0	886	0	Ⴞ	cut_ee_stereo_44KHz.wav
0	10	2	3	1	C	1	1	1437	1	Ⴉ	cut_g_stereo_44KHz.wav
0	11	1	1	1	C	2	0	910	0	Ⴞ	cut_eeuw_stereo_44KHz.wav
0	12	2	4	0	C	2	1	1179	1	Ⴉ	cut_oo_stereo_44KHz.wav
0	13	1	2	0	C	1	0	1482	0	Ⴞ	cut_ee_stereo_44KHz.wav
0	14	1	1	1	C	1	1	910	1	Ⴞ	cut_eeuw_stereo_44KHz.wav
0	15	2	3	1	C	2	0	854	0	Ⴉ	cut_g_stereo_44KHz.wav
0	16	2	4	0	C	2	1	568	1	Ⴉ	cut_oo_stereo_44KHz.wav
0	17	1	1	1	C	1	1	1077	1	Ⴞ	cut_eeuw_stereo_44KHz.wav
0	18	1	2	0	C	2	1	782	1	Ⴞ	cut_ee_stereo_44KHz.wav
0	19	2	4	0	C	2	1	1259	1	Ⴉ	cut_oo_stereo_44KHz.wav
0	20	2	3	1	C	1	1	868	1	Ⴉ	cut_g_stereo_44KHz.wav
0	21	1	1	1	C	2	0	542	0	Ⴞ	cut_eeuw_stereo_44KHz.wav
0	22	2	3	1	C	2	0	604	0	Ⴉ	cut_g_stereo_44KHz.wav
0	23	1	2	0	C	2	1	990	1	Ⴞ	cut_ee_stereo_44KHz.wav
0	24	2	4	0	C	2	1	1228	1	Ⴉ	cut_oo_stereo_44KHz.wav
0	25	2	3	1	C	1	1	1316	1	Ⴉ	cut_g_stereo_44KHz.wav
0	26	2	4	0	C	2	1	789	1	Ⴉ	cut_oo_stereo_44KHz.wav
0	27	1	1	1	C	1	1	1003	1	Ⴞ	cut_eeuw_stereo_44KHz.wav
0	28	1	2	0	C	2	1	1279	1	Ⴞ	cut_ee_stereo_44KHz.wav
0	29	2	4	0	C	2	1	436	1	Ⴉ	cut_oo_stereo_44KHz.wav
0	30	1	2	0	C	2	1	790	1	Ⴞ	cut_ee_stereo_44KHz.wav
avg_resp = 1005
1	1	3	4	2	I	2	0	1144	1	Ⴕ	cut_a_stereo_44KHz.wav
1	2	4	4	2	I	1	0	713	0	Ⴌ	cut_a_stereo_44KHz.wav
1	3	2	2	1	C	2	0	1144	0	Ⴐ	cut_u_stereo_44KHz.wav
1	4	1	1	1	C	2	0	914	0	Ⴉ	cut_o_stereo_44KHz.wav
1	5	3	3	2	I	1	0	1514	1	Ⴕ	cut_k_stereo_44KHz.wav
1	6	2	1	0	C	2	1	1332	1	Ⴐ	cut_o_stereo_44KHz.wav
1	7	1	2	0	C	2	1	1066	1	Ⴉ	cut_u_stereo_44KHz.wav
1	8	4	3	2	I	2	0	886	0	Ⴌ	cut_k_stereo_44KHz.wav
1	9	3	3	2	I	1	0	1184	1	Ⴕ	cut_k_stereo_44KHz.wav
1	10	1	2	0	C	2	1	842	1	Ⴉ	cut_u_stereo_44KHz.wav
1	11	2	1	0	C	2	1	1550	1	Ⴐ	cut_o_stereo_44KHz.wav
1	12	4	4	2	I	2	0	851	0	Ⴌ	cut_a_stereo_44KHz.wav
1	13	2	2	1	C	1	1	1169	1	Ⴐ	cut_u_stereo_44KHz.wav
1	14	3	4	2	I	2	0	1031	0	Ⴕ	cut_a_stereo_44KHz.wav
1	15	4	3	2	I	2	0	1172	1	Ⴌ	cut_k_stereo_44KHz.wav
1	16	1	1	1	C	1	1	1307	1	Ⴉ	cut_o_stereo_44KHz.wav
1	17	4	4	2	I	1	0	1664	1	Ⴌ	cut_a_stereo_44KHz.wav
1	18	1	2	0	C	2	1	1200	1	Ⴉ	cut_u_stereo_44KHz.wav
1	19	2	1	0	C	2	1	938	1	Ⴐ	cut_o_stereo_44KHz.wav
1	20	3	3	2	I	1	0	1175	0	Ⴕ	cut_k_stereo_44KHz.wav
1	21	2	2	1	C	0	0	0	0	Ⴐ	cut_u_stereo_44KHz.wav
1	22	3	4	2	I	2	0	663	0	Ⴕ	cut_a_stereo_44KHz.wav
1	23	1	1	1	C	1	1	970	1	Ⴉ	cut_o_stereo_44KHz.wav
1	24	4	3	2	I	2	0	1224	0	Ⴌ	cut_k_stereo_44KHz.wav
1	25	2	2	1	C	2	0	939	0	Ⴐ	cut_u_stereo_44KHz.wav
1	26	1	1	1	C	1	1	824	1	Ⴉ	cut_o_stereo_44KHz.wav
1	27	4	4	2	I	2	0	807	0	Ⴌ	cut_a_stereo_44KHz.wav
1	28	3	3	2	I	2	0	935	0	Ⴕ	cut_k_stereo_44KHz.wav
1	29	1	2	0	C	2	1	699	1	Ⴉ	cut_u_stereo_44KHz.wav
1	30	4	3	2	I	2	0	949	1	Ⴌ	cut_k_stereo_44KHz.wav
1	31	3	4	2	I	2	0	390	0	Ⴕ	cut_a_stereo_44KHz.wav
1	32	2	1	0	C	1	0	817	0	Ⴐ	cut_o_stereo_44KHz.wav
1	33	1	2	0	C	2	1	921	1	Ⴉ	cut_u_stereo_44KHz.wav
1	34	3	3	2	I	2	0	767	1	Ⴕ	cut_k_stereo_44KHz.wav
1	35	2	2	1	C	2	0	770	0	Ⴐ	cut_u_stereo_44KHz.wav
1	36	4	4	2	I	2	0	872	0	Ⴌ	cut_a_stereo_44KHz.wav
1	37	3	4	2	I	2	0	614	1	Ⴕ	cut_a_stereo_44KHz.wav
1	38	2	1	0	C	2	1	1459	1	Ⴐ	cut_o_stereo_44KHz.wav
1	39	1	1	1	C	1	1	724	1	Ⴉ	cut_o_stereo_44KHz.wav
1	40	4	3	2	I	2	0	1147	1	Ⴌ	cut_k_stereo_44KHz.wav
1	41	2	1	0	C	2	1	987	1	Ⴐ	cut_o_stereo_44KHz.wav
1	42	1	1	1	C	1	1	867	1	Ⴉ	cut_o_stereo_44KHz.wav
1	43	3	4	2	I	2	0	824	1	Ⴕ	cut_a_stereo_44KHz.wav
1	44	4	3	2	I	2	0	713	1	Ⴌ	cut_k_stereo_44KHz.wav
1	45	1	2	0	C	2	1	938	1	Ⴉ	cut_u_stereo_44KHz.wav
1	46	4	4	2	I	1	0	1264	1	Ⴌ	cut_a_stereo_44KHz.wav
1	47	3	3	2	I	1	0	714	0	Ⴕ	cut_k_stereo_44KHz.wav
1	48	2	2	1	C	2	0	847	0	Ⴐ	cut_u_stereo_44KHz.wav
1	49	3	3	2	I	2	0	1068	0	Ⴕ	cut_k_stereo_44KHz.wav
1	50	1	2	0	C	2	1	1257	1	Ⴉ	cut_u_stereo_44KHz.wav
1	51	2	2	1	C	2	0	838	0	Ⴐ	cut_u_stereo_44KHz.wav
1	52	4	4	2	I	2	0	1762	0	Ⴌ	cut_a_stereo_44KHz.wav
1	53	1	1	1	C	1	1	1065	1	Ⴉ	cut_o_stereo_44KHz.wav
1	54	2	1	0	C	2	1	1349	1	Ⴐ	cut_o_stereo_44KHz.wav
1	55	4	3	2	I	1	0	1056	1	Ⴌ	cut_k_stereo_44KHz.wav
1	56	3	4	2	I	2	0	762	1	Ⴕ	cut_a_stereo_44KHz.wav
1	57	1	2	0	C	2	1	856	1	Ⴉ	cut_u_stereo_44KHz.wav
1	58	4	4	2	I	1	0	1191	1	Ⴌ	cut_a_stereo_44KHz.wav
1	59	2	1	0	C	1	0	1184	0	Ⴐ	cut_o_stereo_44KHz.wav
1	60	3	3	2	I	2	0	695	1	Ⴕ	cut_k_stereo_44KHz.wav
1	61	2	2	1	C	2	0	858	0	Ⴐ	cut_u_stereo_44KHz.wav
1	62	4	3	2	I	2	0	1112	0	Ⴌ	cut_k_stereo_44KHz.wav
1	63	3	4	2	I	2	0	660	1	Ⴕ	cut_a_stereo_44KHz.wav
1	64	1	1	1	C	1	1	974	1	Ⴉ	cut_o_stereo_44KHz.wav
1	65	3	3	2	I	2	0	699	1	Ⴕ	cut_k_stereo_44KHz.wav
1	66	2	2	1	C	1	1	1162	1	Ⴐ	cut_u_stereo_44KHz.wav
1	67	1	2	0	C	2	1	1254	1	Ⴉ	cut_u_stereo_44KHz.wav
1	68	4	4	2	I	2	0	933	0	Ⴌ	cut_a_stereo_44KHz.wav
1	69	1	1	1	C	1	1	1271	1	Ⴉ	cut_o_stereo_44KHz.wav
1	70	3	4	2	I	2	0	1019	0	Ⴕ	cut_a_stereo_44KHz.wav
1	71	4	3	2	I	1	0	693	0	Ⴌ	cut_k_stereo_44KHz.wav
1	72	2	1	0	C	2	1	1318	1	Ⴐ	cut_o_stereo_44KHz.wav
1	73	3	4	2	I	1	0	1125	0	Ⴕ	cut_a_stereo_44KHz.wav
1	74	1	1	1	C	1	1	917	1	Ⴉ	cut_o_stereo_44KHz.wav
1	75	4	3	2	I	2	0	734	0	Ⴌ	cut_k_stereo_44KHz.wav
1	76	2	1	0	C	2	1	906	1	Ⴐ	cut_o_stereo_44KHz.wav
1	77	1	2	0	C	1	0	746	0	Ⴉ	cut_u_stereo_44KHz.wav
1	78	2	2	1	C	2	0	1365	0	Ⴐ	cut_u_stereo_44KHz.wav
1	79	3	3	2	I	2	0	1283	0	Ⴕ	cut_k_stereo_44KHz.wav
1	80	4	4	2	I	1	0	1393	0	Ⴌ	cut_a_stereo_44KHz.wav
1	81	2	1	0	C	2	1	847	1	Ⴐ	cut_o_stereo_44KHz.wav
1	82	1	2	0	C	2	1	780	1	Ⴉ	cut_u_stereo_44KHz.wav
1	83	4	3	2	I	2	0	619	0	Ⴌ	cut_k_stereo_44KHz.wav
1	84	3	4	2	I	2	0	1055	0	Ⴕ	cut_a_stereo_44KHz.wav
1	85	1	1	1	C	1	1	1227	1	Ⴉ	cut_o_stereo_44KHz.wav
1	86	2	2	1	C	1	1	1360	1	Ⴐ	cut_u_stereo_44KHz.wav
1	87	3	3	2	I	2	0	1196	0	Ⴕ	cut_k_stereo_44KHz.wav
1	88	4	4	2	I	1	0	935	0	Ⴌ	cut_a_stereo_44KHz.wav
1	89	2	2	1	C	1	1	1077	1	Ⴐ	cut_u_stereo_44KHz.wav
1	90	3	4	2	I	2	0	757	1	Ⴕ	cut_a_stereo_44KHz.wav
1	91	4	3	2	I	2	0	827	0	Ⴌ	cut_k_stereo_44KHz.wav
1	92	1	2	0	C	2	1	671	1	Ⴉ	cut_u_stereo_44KHz.wav
1	93	3	3	2	I	1	0	924	0	Ⴕ	cut_k_stereo_44KHz.wav
1	94	4	4	2	I	1	0	870	1	Ⴌ	cut_a_stereo_44KHz.wav
1	95	1	1	1	C	2	0	739	0	Ⴉ	cut_o_stereo_44KHz.wav
1	96	2	1	0	C	2	1	826	1	Ⴐ	cut_o_stereo_44KHz.wav
1	97	1	1	1	C	1	1	934	1	Ⴉ	cut_o_stereo_44KHz.wav
1	98	4	3	2	I	2	0	786	1	Ⴌ	cut_k_stereo_44KHz.wav
1	99	3	3	2	I	1	0	844	1	Ⴕ	cut_k_stereo_44KHz.wav
1	100	2	1	0	C	2	1	839	1	Ⴐ	cut_o_stereo_44KHz.wav
1	101	1	2	0	C	2	1	812	1	Ⴉ	cut_u_stereo_44KHz.wav
1	102	4	4	2	I	1	0	723	1	Ⴌ	cut_a_stereo_44KHz.wav
1	103	2	2	1	C	1	1	994	1	Ⴐ	cut_u_stereo_44KHz.wav
1	104	3	4	2	I	2	0	692	1	Ⴕ	cut_a_stereo_44KHz.wav
1	105	2	1	0	C	1	0	847	0	Ⴐ	cut_o_stereo_44KHz.wav
1	106	4	4	2	I	2	0	1347	1	Ⴌ	cut_a_stereo_44KHz.wav
1	107	3	4	2	I	2	0	856	0	Ⴕ	cut_a_stereo_44KHz.wav
1	108	1	2	0	C	2	1	758	1	Ⴉ	cut_u_stereo_44KHz.wav
1	109	3	3	2	I	2	0	592	0	Ⴕ	cut_k_stereo_44KHz.wav
1	110	2	2	1	C	2	0	459	0	Ⴐ	cut_u_stereo_44KHz.wav
1	111	1	1	1	C	1	1	992	1	Ⴉ	cut_o_stereo_44KHz.wav
1	112	4	3	2	I	2	0	1016	1	Ⴌ	cut_k_stereo_44KHz.wav
1	113	3	4	2	I	2	0	614	0	Ⴕ	cut_a_stereo_44KHz.wav
1	114	2	2	1	C	1	1	1218	1	Ⴐ	cut_u_stereo_44KHz.wav
1	115	4	4	2	I	2	0	781	1	Ⴌ	cut_a_stereo_44KHz.wav
1	116	1	1	1	C	1	1	822	1	Ⴉ	cut_o_stereo_44KHz.wav
1	117	3	3	2	I	2	0	581	1	Ⴕ	cut_k_stereo_44KHz.wav
1	118	1	2	0	C	2	1	779	1	Ⴉ	cut_u_stereo_44KHz.wav
1	119	2	1	0	C	2	1	885	1	Ⴐ	cut_o_stereo_44KHz.wav
1	120	4	3	2	I	2	0	890	1	Ⴌ	cut_k_stereo_44KHz.wav
1	121	1	2	0	C	2	1	678	1	Ⴉ	cut_u_stereo_44KHz.wav
1	122	4	3	2	I	1	0	963	0	Ⴌ	cut_k_stereo_44KHz.wav
1	123	3	3	2	I	2	0	522	1	Ⴕ	cut_k_stereo_44KHz.wav
1	124	2	2	1	C	1	1	851	1	Ⴐ	cut_u_stereo_44KHz.wav
1	125	1	1	1	C	1	1	942	1	Ⴉ	cut_o_stereo_44KHz.wav
1	126	3	4	2	I	2	0	542	0	Ⴕ	cut_a_stereo_44KHz.wav
1	127	4	4	2	I	2	0	692	1	Ⴌ	cut_a_stereo_44KHz.wav
1	128	2	1	0	C	1	0	789	0	Ⴐ	cut_o_stereo_44KHz.wav
1	129	4	3	2	I	2	0	604	1	Ⴌ	cut_k_stereo_44KHz.wav
1	130	2	2	1	C	1	1	515	1	Ⴐ	cut_u_stereo_44KHz.wav
1	131	3	3	2	I	1	0	983	0	Ⴕ	cut_k_stereo_44KHz.wav
1	132	1	2	0	C	1	0	1133	0	Ⴉ	cut_u_stereo_44KHz.wav
1	133	3	4	2	I	2	0	735	1	Ⴕ	cut_a_stereo_44KHz.wav
1	134	1	1	1	C	1	1	1191	1	Ⴉ	cut_o_stereo_44KHz.wav
1	135	2	1	0	C	1	0	714	0	Ⴐ	cut_o_stereo_44KHz.wav
1	136	4	4	2	I	2	0	690	0	Ⴌ	cut_a_stereo_44KHz.wav
1	137	1	2	0	C	2	1	783	1	Ⴉ	cut_u_stereo_44KHz.wav
1	138	2	2	1	C	1	1	761	1	Ⴐ	cut_u_stereo_44KHz.wav
1	139	4	4	2	I	2	0	722	0	Ⴌ	cut_a_stereo_44KHz.wav
1	140	3	3	2	I	2	0	722	0	Ⴕ	cut_k_stereo_44KHz.wav
1	141	4	3	2	I	2	0	757	0	Ⴌ	cut_k_stereo_44KHz.wav
1	142	3	4	2	I	2	0	645	1	Ⴕ	cut_a_stereo_44KHz.wav
1	143	1	1	1	C	1	1	836	1	Ⴉ	cut_o_stereo_44KHz.wav
1	144	2	1	0	C	2	1	931	1	Ⴐ	cut_o_stereo_44KHz.wav
1	145	4	3	2	I	1	0	1046	1	Ⴌ	cut_k_stereo_44KHz.wav
1	146	2	2	1	C	1	1	870	1	Ⴐ	cut_u_stereo_44KHz.wav
1	147	3	4	2	I	2	0	769	0	Ⴕ	cut_a_stereo_44KHz.wav
1	148	1	1	1	C	1	1	774	1	Ⴉ	cut_o_stereo_44KHz.wav
1	149	3	3	2	I	1	0	922	0	Ⴕ	cut_k_stereo_44KHz.wav
1	150	4	4	2	I	2	0	666	1	Ⴌ	cut_a_stereo_44KHz.wav
1	151	1	2	0	C	1	0	836	0	Ⴉ	cut_u_stereo_44KHz.wav
1	152	2	1	0	C	2	1	947	1	Ⴐ	cut_o_stereo_44KHz.wav
1	153	3	4	2	I	2	0	757	1	Ⴕ	cut_a_stereo_44KHz.wav
1	154	2	1	0	C	2	1	796	1	Ⴐ	cut_o_stereo_44KHz.wav
1	155	1	2	0	C	2	1	675	1	Ⴉ	cut_u_stereo_44KHz.wav
1	156	4	3	2	I	2	0	664	0	Ⴌ	cut_k_stereo_44KHz.wav
1	157	1	1	1	C	1	1	939	1	Ⴉ	cut_o_stereo_44KHz.wav
1	158	3	3	2	I	2	0	779	0	Ⴕ	cut_k_stereo_44KHz.wav
1	159	4	4	2	I	2	0	656	0	Ⴌ	cut_a_stereo_44KHz.wav
1	160	2	2	1	C	1	1	930	1	Ⴐ	cut_u_stereo_44KHz.wav
1	161	4	4	2	I	2	0	916	1	Ⴌ	cut_a_stereo_44KHz.wav
1	162	3	4	2	I	2	0	586	0	Ⴕ	cut_a_stereo_44KHz.wav
1	163	1	1	1	C	1	1	841	1	Ⴉ	cut_o_stereo_44KHz.wav
1	164	2	2	1	C	1	1	926	1	Ⴐ	cut_u_stereo_44KHz.wav
1	165	4	3	2	I	2	0	595	0	Ⴌ	cut_k_stereo_44KHz.wav
1	166	1	2	0	C	1	0	760	0	Ⴉ	cut_u_stereo_44KHz.wav
1	167	3	3	2	I	2	0	673	1	Ⴕ	cut_k_stereo_44KHz.wav
1	168	2	1	0	C	2	1	806	1	Ⴐ	cut_o_stereo_44KHz.wav
1	169	1	2	0	C	2	1	779	1	Ⴉ	cut_u_stereo_44KHz.wav
1	170	4	3	2	I	2	0	748	0	Ⴌ	cut_k_stereo_44KHz.wav
1	171	3	3	2	I	2	0	655	1	Ⴕ	cut_k_stereo_44KHz.wav
1	172	2	1	0	C	2	1	892	1	Ⴐ	cut_o_stereo_44KHz.wav
1	173	3	4	2	I	1	0	740	1	Ⴕ	cut_a_stereo_44KHz.wav
1	174	1	1	1	C	1	1	928	1	Ⴉ	cut_o_stereo_44KHz.wav
1	175	4	4	2	I	2	0	1028	0	Ⴌ	cut_a_stereo_44KHz.wav
1	176	2	2	1	C	1	1	970	1	Ⴐ	cut_u_stereo_44KHz.wav
1	177	1	1	1	C	1	1	1052	1	Ⴉ	cut_o_stereo_44KHz.wav
1	178	2	2	1	C	1	1	991	1	Ⴐ	cut_u_stereo_44KHz.wav
1	179	4	3	2	I	2	0	710	1	Ⴌ	cut_k_stereo_44KHz.wav
1	180	3	3	2	I	2	0	797	1	Ⴕ	cut_k_stereo_44KHz.wav
1	181	4	4	2	I	2	0	735	1	Ⴌ	cut_a_stereo_44KHz.wav
1	182	1	2	0	C	2	1	875	1	Ⴉ	cut_u_stereo_44KHz.wav
1	183	2	1	0	C	2	1	834	1	Ⴐ	cut_o_stereo_44KHz.wav
1	184	3	4	2	I	2	0	777	1	Ⴕ	cut_a_stereo_44KHz.wav
1	185	2	2	1	C	1	1	1084	1	Ⴐ	cut_u_stereo_44KHz.wav
1	186	1	2	0	C	2	1	1011	1	Ⴉ	cut_u_stereo_44KHz.wav
1	187	3	3	2	I	2	0	627	1	Ⴕ	cut_k_stereo_44KHz.wav
1	188	4	3	2	I	2	0	703	1	Ⴌ	cut_k_stereo_44KHz.wav
1	189	1	1	1	C	1	1	1040	1	Ⴉ	cut_o_stereo_44KHz.wav
1	190	4	4	2	I	2	0	701	1	Ⴌ	cut_a_stereo_44KHz.wav
1	191	3	4	2	I	1	0	1021	0	Ⴕ	cut_a_stereo_44KHz.wav
1	192	2	1	0	C	2	1	1011	1	Ⴐ	cut_o_stereo_44KHz.wav
1	193	1	1	1	C	1	1	660	1	Ⴉ	cut_o_stereo_44KHz.wav
1	194	4	4	2	I	2	0	689	0	Ⴌ	cut_a_stereo_44KHz.wav
1	195	3	4	2	I	2	0	805	0	Ⴕ	cut_a_stereo_44KHz.wav
1	196	2	2	1	C	1	1	978	1	Ⴐ	cut_u_stereo_44KHz.wav
1	197	4	3	2	I	2	0	673	1	Ⴌ	cut_k_stereo_44KHz.wav
1	198	3	3	2	I	2	0	717	1	Ⴕ	cut_k_stereo_44KHz.wav
1	199	2	1	0	C	1	0	1037	0	Ⴐ	cut_o_stereo_44KHz.wav
1	200	1	2	0	C	2	1	1061	1	Ⴉ	cut_u_stereo_44KHz.wav
2	1	2	1	0	C	2	1	1585	1	Ⴂ	cut_w_stereo_44KHz.wav
2	2	3	3	2	I	0	0	0	0	Ⴃ	cut_h_stereo_44KHz.wav
2	3	1	1	1	C	2	0	618	0	Ⴇ	cut_w_stereo_44KHz.wav
2	4	4	4	2	I	2	0	691	0	Ⴟ	cut_g_stereo_44KHz.wav
2	5	2	2	1	C	2	0	540	0	Ⴂ	cut_l_stereo_44KHz.wav
2	6	1	2	0	C	2	1	738	1	Ⴇ	cut_l_stereo_44KHz.wav
2	7	4	3	2	I	2	0	681	0	Ⴟ	cut_h_stereo_44KHz.wav
2	8	3	4	2	I	2	0	847	0	Ⴃ	cut_g_stereo_44KHz.wav
2	9	2	2	1	C	2	0	567	0	Ⴂ	cut_l_stereo_44KHz.wav
2	10	4	4	2	I	2	0	933	1	Ⴟ	cut_g_stereo_44KHz.wav
2	11	3	3	2	I	1	0	575	1	Ⴃ	cut_h_stereo_44KHz.wav
2	12	1	1	1	C	2	0	755	0	Ⴇ	cut_w_stereo_44KHz.wav
2	13	3	4	2	I	2	0	586	0	Ⴃ	cut_g_stereo_44KHz.wav
2	14	4	3	2	I	2	0	635	0	Ⴟ	cut_h_stereo_44KHz.wav
2	15	2	1	0	C	2	1	511	1	Ⴂ	cut_w_stereo_44KHz.wav
2	16	1	2	0	C	2	1	799	1	Ⴇ	cut_l_stereo_44KHz.wav
2	17	2	2	1	C	2	0	1080	0	Ⴂ	cut_l_stereo_44KHz.wav
2	18	1	2	0	C	2	1	594	1	Ⴇ	cut_l_stereo_44KHz.wav
2	19	3	3	2	I	2	0	934	1	Ⴃ	cut_h_stereo_44KHz.wav
2	20	4	3	2	I	1	0	702	1	Ⴟ	cut_h_stereo_44KHz.wav
2	21	1	1	1	C	2	0	646	0	Ⴇ	cut_w_stereo_44KHz.wav
2	22	4	4	2	I	2	0	868	1	Ⴟ	cut_g_stereo_44KHz.wav
2	23	2	1	0	C	2	1	904	1	Ⴂ	cut_w_stereo_44KHz.wav
2	24	3	4	2	I	1	0	1041	0	Ⴃ	cut_g_stereo_44KHz.wav
2	25	2	2	1	C	2	0	1056	0	Ⴂ	cut_l_stereo_44KHz.wav
2	26	4	4	2	I	2	0	701	1	Ⴟ	cut_g_stereo_44KHz.wav
2	27	3	4	2	I	1	0	675	1	Ⴃ	cut_g_stereo_44KHz.wav
2	28	1	2	0	C	2	1	734	1	Ⴇ	cut_l_stereo_44KHz.wav
2	29	4	3	2	I	1	0	800	0	Ⴟ	cut_h_stereo_44KHz.wav
2	30	1	1	1	C	1	1	935	1	Ⴇ	cut_w_stereo_44KHz.wav
2	31	3	3	2	I	2	0	972	0	Ⴃ	cut_h_stereo_44KHz.wav
2	32	2	1	0	C	2	1	682	1	Ⴂ	cut_w_stereo_44KHz.wav
2	33	4	3	2	I	1	0	1113	1	Ⴟ	cut_h_stereo_44KHz.wav
2	34	1	2	0	C	2	1	746	1	Ⴇ	cut_l_stereo_44KHz.wav
2	35	2	1	0	C	2	1	971	1	Ⴂ	cut_w_stereo_44KHz.wav
2	36	3	3	2	I	1	0	1144	0	Ⴃ	cut_h_stereo_44KHz.wav
2	37	4	4	2	I	2	0	617	1	Ⴟ	cut_g_stereo_44KHz.wav
2	38	2	2	1	C	1	1	1236	1	Ⴂ	cut_l_stereo_44KHz.wav
2	39	3	4	2	I	1	0	1108	0	Ⴃ	cut_g_stereo_44KHz.wav
2	40	1	1	1	C	2	0	594	0	Ⴇ	cut_w_stereo_44KHz.wav
2	41	4	4	2	I	2	0	610	0	Ⴟ	cut_g_stereo_44KHz.wav
2	42	3	4	2	I	2	0	640	1	Ⴃ	cut_g_stereo_44KHz.wav
2	43	1	1	1	C	1	1	886	1	Ⴇ	cut_w_stereo_44KHz.wav
2	44	2	2	1	C	1	1	1009	1	Ⴂ	cut_l_stereo_44KHz.wav
2	45	3	3	2	I	2	0	1094	0	Ⴃ	cut_h_stereo_44KHz.wav
2	46	2	1	0	C	2	1	773	1	Ⴂ	cut_w_stereo_44KHz.wav
2	47	1	2	0	C	2	1	702	1	Ⴇ	cut_l_stereo_44KHz.wav
2	48	4	3	2	I	1	0	896	1	Ⴟ	cut_h_stereo_44KHz.wav
2	49	1	1	1	C	1	1	1296	1	Ⴇ	cut_w_stereo_44KHz.wav
2	50	4	4	2	I	2	0	684	1	Ⴟ	cut_g_stereo_44KHz.wav
2	51	3	4	2	I	2	0	480	0	Ⴃ	cut_g_stereo_44KHz.wav
2	52	2	2	1	C	1	1	892	1	Ⴂ	cut_l_stereo_44KHz.wav
2	53	4	3	2	I	1	0	1020	0	Ⴟ	cut_h_stereo_44KHz.wav
2	54	2	1	0	C	2	1	823	1	Ⴂ	cut_w_stereo_44KHz.wav
2	55	3	3	2	I	2	0	730	1	Ⴃ	cut_h_stereo_44KHz.wav
2	56	1	2	0	C	2	1	532	1	Ⴇ	cut_l_stereo_44KHz.wav
2	57	3	3	2	I	2	0	779	1	Ⴃ	cut_h_stereo_44KHz.wav
2	58	4	3	2	I	1	0	836	0	Ⴟ	cut_h_stereo_44KHz.wav
2	59	1	2	0	C	2	1	568	1	Ⴇ	cut_l_stereo_44KHz.wav
2	60	2	1	0	C	2	1	473	1	Ⴂ	cut_w_stereo_44KHz.wav
2	61	1	1	1	C	2	0	551	0	Ⴇ	cut_w_stereo_44KHz.wav
2	62	2	2	1	C	2	0	524	0	Ⴂ	cut_l_stereo_44KHz.wav
2	63	3	4	2	I	2	0	764	1	Ⴃ	cut_g_stereo_44KHz.wav
2	64	4	4	2	I	2	0	666	0	Ⴟ	cut_g_stereo_44KHz.wav
2	65	2	1	0	C	2	1	642	1	Ⴂ	cut_w_stereo_44KHz.wav
2	66	1	1	1	C	1	1	775	1	Ⴇ	cut_w_stereo_44KHz.wav
2	67	3	3	2	I	2	0	687	0	Ⴃ	cut_h_stereo_44KHz.wav
2	68	4	4	2	I	1	0	864	1	Ⴟ	cut_g_stereo_44KHz.wav
2	69	3	4	2	I	2	0	689	1	Ⴃ	cut_g_stereo_44KHz.wav
2	70	1	2	0	C	2	1	724	1	Ⴇ	cut_l_stereo_44KHz.wav
2	71	2	2	1	C	1	1	735	1	Ⴂ	cut_l_stereo_44KHz.wav
2	72	4	3	2	I	2	0	767	0	Ⴟ	cut_h_stereo_44KHz.wav
2	73	3	3	2	I	2	0	712	1	Ⴃ	cut_h_stereo_44KHz.wav
2	74	1	1	1	C	1	1	802	1	Ⴇ	cut_w_stereo_44KHz.wav
2	75	2	1	0	C	2	1	919	1	Ⴂ	cut_w_stereo_44KHz.wav
2	76	4	3	2	I	1	0	1043	0	Ⴟ	cut_h_stereo_44KHz.wav
2	77	3	4	2	I	1	0	1222	1	Ⴃ	cut_g_stereo_44KHz.wav
2	78	2	2	1	C	1	1	774	1	Ⴂ	cut_l_stereo_44KHz.wav
2	79	4	4	2	I	1	0	852	1	Ⴟ	cut_g_stereo_44KHz.wav
2	80	1	2	0	C	2	1	620	1	Ⴇ	cut_l_stereo_44KHz.wav
2	81	4	4	2	I	1	0	823	1	Ⴟ	cut_g_stereo_44KHz.wav
2	82	1	2	0	C	2	1	668	1	Ⴇ	cut_l_stereo_44KHz.wav
2	83	2	2	1	C	1	1	708	1	Ⴂ	cut_l_stereo_44KHz.wav
2	84	3	4	2	I	2	0	906	1	Ⴃ	cut_g_stereo_44KHz.wav
2	85	4	3	2	I	2	0	681	0	Ⴟ	cut_h_stereo_44KHz.wav
2	86	1	1	1	C	1	1	962	1	Ⴇ	cut_w_stereo_44KHz.wav
2	87	3	3	2	I	1	0	1018	1	Ⴃ	cut_h_stereo_44KHz.wav
2	88	2	1	0	C	2	1	786	1	Ⴂ	cut_w_stereo_44KHz.wav
2	89	4	4	2	I	2	0	662	1	Ⴟ	cut_g_stereo_44KHz.wav
2	90	1	2	0	C	2	1	1342	1	Ⴇ	cut_l_stereo_44KHz.wav
2	91	2	2	1	C	1	1	993	1	Ⴂ	cut_l_stereo_44KHz.wav
2	92	3	4	2	I	2	0	945	0	Ⴃ	cut_g_stereo_44KHz.wav
2	93	4	3	2	I	2	0	735	1	Ⴟ	cut_h_stereo_44KHz.wav
2	94	1	1	1	C	1	1	883	1	Ⴇ	cut_w_stereo_44KHz.wav
2	95	2	1	0	C	2	1	1055	1	Ⴂ	cut_w_stereo_44KHz.wav
2	96	3	3	2	I	2	0	835	1	Ⴃ	cut_h_stereo_44KHz.wav
2	97	1	1	1	C	1	1	887	1	Ⴇ	cut_w_stereo_44KHz.wav
2	98	4	4	2	I	2	0	587	1	Ⴟ	cut_g_stereo_44KHz.wav
2	99	2	1	0	C	2	1	696	1	Ⴂ	cut_w_stereo_44KHz.wav
2	100	3	4	2	I	1	0	854	0	Ⴃ	cut_g_stereo_44KHz.wav
2	101	4	3	2	I	2	0	1005	1	Ⴟ	cut_h_stereo_44KHz.wav
2	102	2	2	1	C	1	1	1034	1	Ⴂ	cut_l_stereo_44KHz.wav
2	103	1	2	0	C	2	1	859	1	Ⴇ	cut_l_stereo_44KHz.wav
2	104	3	3	2	I	2	0	897	1	Ⴃ	cut_h_stereo_44KHz.wav
2	105	1	2	0	C	2	1	651	1	Ⴇ	cut_l_stereo_44KHz.wav
2	106	3	3	2	I	2	0	774	0	Ⴃ	cut_h_stereo_44KHz.wav
2	107	2	2	1	C	1	1	826	1	Ⴂ	cut_l_stereo_44KHz.wav
2	108	4	4	2	I	2	0	610	1	Ⴟ	cut_g_stereo_44KHz.wav
2	109	3	4	2	I	1	0	783	0	Ⴃ	cut_g_stereo_44KHz.wav
2	110	1	1	1	C	1	1	978	1	Ⴇ	cut_w_stereo_44KHz.wav
2	111	2	1	0	C	2	1	854	1	Ⴂ	cut_w_stereo_44KHz.wav
2	112	4	3	2	I	2	0	710	0	Ⴟ	cut_h_stereo_44KHz.wav
2	113	2	2	1	C	2	0	579	0	Ⴂ	cut_l_stereo_44KHz.wav
2	114	3	3	2	I	1	0	1458	1	Ⴃ	cut_h_stereo_44KHz.wav
2	115	4	4	2	I	1	0	657	0	Ⴟ	cut_g_stereo_44KHz.wav
2	116	1	2	0	C	2	1	772	1	Ⴇ	cut_l_stereo_44KHz.wav
2	117	3	4	2	I	2	0	969	1	Ⴃ	cut_g_stereo_44KHz.wav
2	118	1	1	1	C	1	1	938	1	Ⴇ	cut_w_stereo_44KHz.wav
2	119	4	3	2	I	2	0	1193	0	Ⴟ	cut_h_stereo_44KHz.wav
2	120	2	1	0	C	2	1	685	1	Ⴂ	cut_w_stereo_44KHz.wav
2	121	1	1	1	C	1	1	792	1	Ⴇ	cut_w_stereo_44KHz.wav
2	122	3	4	2	I	2	0	1161	0	Ⴃ	cut_g_stereo_44KHz.wav
2	123	2	2	1	C	1	1	740	1	Ⴂ	cut_l_stereo_44KHz.wav
2	124	4	3	2	I	1	0	1210	0	Ⴟ	cut_h_stereo_44KHz.wav
2	125	3	3	2	I	2	0	1019	0	Ⴃ	cut_h_stereo_44KHz.wav
2	126	4	4	2	I	1	0	882	1	Ⴟ	cut_g_stereo_44KHz.wav
2	127	2	1	0	C	2	1	707	1	Ⴂ	cut_w_stereo_44KHz.wav
2	128	1	2	0	C	2	1	880	1	Ⴇ	cut_l_stereo_44KHz.wav
2	129	4	4	2	I	2	0	1155	1	Ⴟ	cut_g_stereo_44KHz.wav
2	130	2	2	1	C	1	1	903	1	Ⴂ	cut_l_stereo_44KHz.wav
2	131	1	2	0	C	2	1	1051	1	Ⴇ	cut_l_stereo_44KHz.wav
2	132	3	3	2	I	2	0	783	1	Ⴃ	cut_h_stereo_44KHz.wav
2	133	1	1	1	C	1	1	872	1	Ⴇ	cut_w_stereo_44KHz.wav
2	134	2	1	0	C	2	1	861	1	Ⴂ	cut_w_stereo_44KHz.wav
2	135	4	3	2	I	1	0	927	0	Ⴟ	cut_h_stereo_44KHz.wav
2	136	3	4	2	I	2	0	665	1	Ⴃ	cut_g_stereo_44KHz.wav
2	137	2	2	1	C	1	1	866	1	Ⴂ	cut_l_stereo_44KHz.wav
2	138	1	1	1	C	1	1	1480	1	Ⴇ	cut_w_stereo_44KHz.wav
2	139	3	3	2	I	2	0	892	1	Ⴃ	cut_h_stereo_44KHz.wav
2	140	4	3	2	I	1	0	881	0	Ⴟ	cut_h_stereo_44KHz.wav
2	141	1	2	0	C	2	1	1176	1	Ⴇ	cut_l_stereo_44KHz.wav
2	142	3	4	2	I	1	0	1565	0	Ⴃ	cut_g_stereo_44KHz.wav
2	143	4	4	2	I	2	0	853	0	Ⴟ	cut_g_stereo_44KHz.wav
2	144	2	1	0	C	2	1	646	1	Ⴂ	cut_w_stereo_44KHz.wav
2	145	4	3	2	I	0	0	0	0	Ⴟ	cut_h_stereo_44KHz.wav
2	146	3	3	2	I	2	0	820	0	Ⴃ	cut_h_stereo_44KHz.wav
2	147	1	1	1	C	1	1	780	1	Ⴇ	cut_w_stereo_44KHz.wav
2	148	2	1	0	C	2	1	680	1	Ⴂ	cut_w_stereo_44KHz.wav
2	149	1	2	0	C	2	1	576	1	Ⴇ	cut_l_stereo_44KHz.wav
2	150	4	4	2	I	2	0	1157	0	Ⴟ	cut_g_stereo_44KHz.wav
2	151	3	4	2	I	2	0	543	0	Ⴃ	cut_g_stereo_44KHz.wav
2	152	2	2	1	C	1	1	1192	1	Ⴂ	cut_l_stereo_44KHz.wav
2	153	4	4	2	I	2	0	827	1	Ⴟ	cut_g_stereo_44KHz.wav
2	154	1	1	1	C	1	1	1425	1	Ⴇ	cut_w_stereo_44KHz.wav
2	155	2	2	1	C	1	1	780	1	Ⴂ	cut_l_stereo_44KHz.wav
2	156	3	4	2	I	2	0	1029	0	Ⴃ	cut_g_stereo_44KHz.wav
2	157	2	1	0	C	1	0	712	0	Ⴂ	cut_w_stereo_44KHz.wav
2	158	1	2	0	C	2	1	591	1	Ⴇ	cut_l_stereo_44KHz.wav
2	159	3	3	2	I	2	0	646	1	Ⴃ	cut_h_stereo_44KHz.wav
2	160	4	3	2	I	1	0	788	1	Ⴟ	cut_h_stereo_44KHz.wav
2	161	3	3	2	I	2	0	800	0	Ⴃ	cut_h_stereo_44KHz.wav
2	162	2	1	0	C	2	1	930	1	Ⴂ	cut_w_stereo_44KHz.wav
2	163	4	4	2	I	2	0	787	1	Ⴟ	cut_g_stereo_44KHz.wav
2	164	1	2	0	C	2	1	674	1	Ⴇ	cut_l_stereo_44KHz.wav
2	165	3	4	2	I	1	0	1062	1	Ⴃ	cut_g_stereo_44KHz.wav
2	166	2	2	1	C	1	1	859	1	Ⴂ	cut_l_stereo_44KHz.wav
2	167	1	1	1	C	1	1	846	1	Ⴇ	cut_w_stereo_44KHz.wav
2	168	4	3	2	I	1	0	916	0	Ⴟ	cut_h_stereo_44KHz.wav
2	169	3	3	2	I	1	0	784	0	Ⴃ	cut_h_stereo_44KHz.wav
2	170	1	1	1	C	1	1	952	1	Ⴇ	cut_w_stereo_44KHz.wav
2	171	4	4	2	I	1	0	962	1	Ⴟ	cut_g_stereo_44KHz.wav
2	172	2	1	0	C	2	1	769	1	Ⴂ	cut_w_stereo_44KHz.wav
2	173	4	3	2	I	1	0	956	1	Ⴟ	cut_h_stereo_44KHz.wav
2	174	2	2	1	C	1	1	962	1	Ⴂ	cut_l_stereo_44KHz.wav
2	175	1	2	0	C	2	1	1248	1	Ⴇ	cut_l_stereo_44KHz.wav
2	176	3	4	2	I	2	0	787	1	Ⴃ	cut_g_stereo_44KHz.wav
2	177	4	4	2	I	2	0	1133	0	Ⴟ	cut_g_stereo_44KHz.wav
2	178	1	2	0	C	2	1	833	1	Ⴇ	cut_l_stereo_44KHz.wav
2	179	3	3	2	I	2	0	947	0	Ⴃ	cut_h_stereo_44KHz.wav
2	180	2	1	0	C	2	1	852	1	Ⴂ	cut_w_stereo_44KHz.wav
2	181	1	1	1	C	1	1	757	1	Ⴇ	cut_w_stereo_44KHz.wav
2	182	2	2	1	C	1	1	747	1	Ⴂ	cut_l_stereo_44KHz.wav
2	183	4	3	2	I	2	0	1191	1	Ⴟ	cut_h_stereo_44KHz.wav
2	184	3	4	2	I	1	0	456	0	Ⴃ	cut_g_stereo_44KHz.wav
2	185	4	4	2	I	1	0	884	0	Ⴟ	cut_g_stereo_44KHz.wav
2	186	2	1	0	C	2	1	764	1	Ⴂ	cut_w_stereo_44KHz.wav
2	187	1	1	1	C	2	0	1504	0	Ⴇ	cut_w_stereo_44KHz.wav
2	188	3	3	2	I	2	0	772	1	Ⴃ	cut_h_stereo_44KHz.wav
2	189	4	3	2	I	2	0	880	0	Ⴟ	cut_h_stereo_44KHz.wav
2	190	1	2	0	C	2	1	648	1	Ⴇ	cut_l_stereo_44KHz.wav
2	191	2	2	1	C	2	0	1552	0	Ⴂ	cut_l_stereo_44KHz.wav
2	192	3	4	2	I	2	0	782	0	Ⴃ	cut_g_stereo_44KHz.wav
2	193	1	2	0	C	2	1	635	1	Ⴇ	cut_l_stereo_44KHz.wav
2	194	3	3	2	I	2	0	701	1	Ⴃ	cut_h_stereo_44KHz.wav
2	195	4	3	2	I	2	0	924	0	Ⴟ	cut_h_stereo_44KHz.wav
2	196	2	2	1	C	1	1	1142	1	Ⴂ	cut_l_stereo_44KHz.wav
2	197	3	4	2	I	2	0	747	0	Ⴃ	cut_g_stereo_44KHz.wav
2	198	4	4	2	I	1	0	1018	1	Ⴟ	cut_g_stereo_44KHz.wav
2	199	1	1	1	C	1	1	977	1	Ⴇ	cut_w_stereo_44KHz.wav
2	200	2	1	0	C	1	0	900	0	Ⴂ	cut_w_stereo_44KHz.wav
3	1	3	3	2	I	2	0	1328	1	Ⴊ	cut_oei_stereo_44KHz.wav
3	2	4	3	2	I	1	0	746	0	Ⴜ	cut_oei_stereo_44KHz.wav
3	3	1	1	1	C	2	0	673	0	Ⴡ	cut_ui_stereo_44KHz.wav
3	4	2	1	0	C	2	1	1257	1	Ⴁ	cut_ui_stereo_44KHz.wav
3	5	3	4	2	I	1	0	1241	1	Ⴊ	cut_n_stereo_44KHz.wav
3	6	4	4	2	I	2	0	896	1	Ⴜ	cut_n_stereo_44KHz.wav
3	7	1	2	0	C	2	1	803	1	Ⴡ	cut_j_stereo_44KHz.wav
3	8	2	2	1	C	1	1	798	1	Ⴁ	cut_j_stereo_44KHz.wav
3	9	1	1	1	C	2	0	715	0	Ⴡ	cut_ui_stereo_44KHz.wav
3	10	2	2	1	C	1	1	1110	1	Ⴁ	cut_j_stereo_44KHz.wav
3	11	3	3	2	I	2	0	666	0	Ⴊ	cut_oei_stereo_44KHz.wav
3	12	4	4	2	I	2	0	1017	1	Ⴜ	cut_n_stereo_44KHz.wav
3	13	2	1	0	C	2	1	1086	1	Ⴁ	cut_ui_stereo_44KHz.wav
3	14	1	2	0	C	2	1	1418	1	Ⴡ	cut_j_stereo_44KHz.wav
3	15	3	4	2	I	1	0	1210	0	Ⴊ	cut_n_stereo_44KHz.wav
3	16	4	3	2	I	1	0	1433	0	Ⴜ	cut_oei_stereo_44KHz.wav
3	17	2	1	0	C	2	1	978	1	Ⴁ	cut_ui_stereo_44KHz.wav
3	18	4	3	2	I	2	0	556	1	Ⴜ	cut_oei_stereo_44KHz.wav
3	19	3	4	2	I	1	0	1415	1	Ⴊ	cut_n_stereo_44KHz.wav
3	20	1	1	1	C	2	0	1032	0	Ⴡ	cut_ui_stereo_44KHz.wav
3	21	2	2	1	C	1	1	1008	1	Ⴁ	cut_j_stereo_44KHz.wav
3	22	4	4	2	I	2	0	835	0	Ⴜ	cut_n_stereo_44KHz.wav
3	23	3	3	2	I	2	0	635	1	Ⴊ	cut_oei_stereo_44KHz.wav
3	24	1	2	0	C	2	1	757	1	Ⴡ	cut_j_stereo_44KHz.wav
3	25	4	4	2	I	2	0	1092	1	Ⴜ	cut_n_stereo_44KHz.wav
3	26	2	2	1	C	1	1	1168	1	Ⴁ	cut_j_stereo_44KHz.wav
3	27	1	1	1	C	1	1	743	1	Ⴡ	cut_ui_stereo_44KHz.wav
3	28	3	3	2	I	2	0	743	0	Ⴊ	cut_oei_stereo_44KHz.wav
3	29	4	3	2	I	2	0	966	0	Ⴜ	cut_oei_stereo_44KHz.wav
3	30	2	1	0	C	2	1	721	1	Ⴁ	cut_ui_stereo_44KHz.wav
3	31	3	4	2	I	2	0	1257	0	Ⴊ	cut_n_stereo_44KHz.wav
3	32	1	2	0	C	2	1	943	1	Ⴡ	cut_j_stereo_44KHz.wav
3	33	2	2	1	C	1	1	1144	1	Ⴁ	cut_j_stereo_44KHz.wav
3	34	4	4	2	I	2	0	784	1	Ⴜ	cut_n_stereo_44KHz.wav
3	35	1	2	0	C	2	1	784	1	Ⴡ	cut_j_stereo_44KHz.wav
3	36	3	4	2	I	1	0	843	0	Ⴊ	cut_n_stereo_44KHz.wav
3	37	2	1	0	C	2	1	785	1	Ⴁ	cut_ui_stereo_44KHz.wav
3	38	3	3	2	I	2	0	690	1	Ⴊ	cut_oei_stereo_44KHz.wav
3	39	4	3	2	I	1	0	973	1	Ⴜ	cut_oei_stereo_44KHz.wav
3	40	1	1	1	C	2	0	649	0	Ⴡ	cut_ui_stereo_44KHz.wav
3	41	4	4	2	I	2	0	1172	1	Ⴜ	cut_n_stereo_44KHz.wav
3	42	2	2	1	C	2	0	754	0	Ⴁ	cut_j_stereo_44KHz.wav
3	43	3	3	2	I	2	0	677	1	Ⴊ	cut_oei_stereo_44KHz.wav
3	44	1	1	1	C	1	1	1011	1	Ⴡ	cut_ui_stereo_44KHz.wav
3	45	3	4	2	I	1	0	1205	1	Ⴊ	cut_n_stereo_44KHz.wav
3	46	1	2	0	C	2	1	702	1	Ⴡ	cut_j_stereo_44KHz.wav
3	47	4	3	2	I	2	0	1006	1	Ⴜ	cut_oei_stereo_44KHz.wav
3	48	2	1	0	C	2	1	862	1	Ⴁ	cut_ui_stereo_44KHz.wav
3	49	4	4	2	I	1	0	981	1	Ⴜ	cut_n_stereo_44KHz.wav
3	50	3	3	2	I	1	0	1020	0	Ⴊ	cut_oei_stereo_44KHz.wav
3	51	2	2	1	C	2	0	826	0	Ⴁ	cut_j_stereo_44KHz.wav
3	52	1	1	1	C	1	1	828	1	Ⴡ	cut_ui_stereo_44KHz.wav
3	53	3	4	2	I	1	0	935	0	Ⴊ	cut_n_stereo_44KHz.wav
3	54	4	3	2	I	2	0	1305	1	Ⴜ	cut_oei_stereo_44KHz.wav
3	55	1	2	0	C	2	1	724	1	Ⴡ	cut_j_stereo_44KHz.wav
3	56	2	1	0	C	2	1	680	1	Ⴁ	cut_ui_stereo_44KHz.wav
3	57	3	4	2	I	2	0	741	0	Ⴊ	cut_n_stereo_44KHz.wav
3	58	4	4	2	I	2	0	743	1	Ⴜ	cut_n_stereo_44KHz.wav
3	59	2	1	0	C	2	1	816	1	Ⴁ	cut_ui_stereo_44KHz.wav
3	60	1	2	0	C	2	1	609	1	Ⴡ	cut_j_stereo_44KHz.wav
3	61	4	3	2	I	1	0	1319	1	Ⴜ	cut_oei_stereo_44KHz.wav
3	62	2	2	1	C	1	1	1912	1	Ⴁ	cut_j_stereo_44KHz.wav
3	63	3	3	2	I	2	0	823	0	Ⴊ	cut_oei_stereo_44KHz.wav
3	64	1	1	1	C	1	1	865	1	Ⴡ	cut_ui_stereo_44KHz.wav
3	65	4	3	2	I	1	0	1102	1	Ⴜ	cut_oei_stereo_44KHz.wav
3	66	3	4	2	I	1	0	671	1	Ⴊ	cut_n_stereo_44KHz.wav
3	67	2	2	1	C	1	1	914	1	Ⴁ	cut_j_stereo_44KHz.wav
3	68	1	2	0	C	2	1	788	1	Ⴡ	cut_j_stereo_44KHz.wav
3	69	2	1	0	C	2	1	764	1	Ⴁ	cut_ui_stereo_44KHz.wav
3	70	1	1	1	C	1	1	791	1	Ⴡ	cut_ui_stereo_44KHz.wav
3	71	3	3	2	I	2	0	701	1	Ⴊ	cut_oei_stereo_44KHz.wav
3	72	4	4	2	I	2	0	852	1	Ⴜ	cut_n_stereo_44KHz.wav
3	73	2	1	0	C	2	1	906	1	Ⴁ	cut_ui_stereo_44KHz.wav
3	74	1	2	0	C	2	1	749	1	Ⴡ	cut_j_stereo_44KHz.wav
3	75	4	4	2	I	1	0	897	0	Ⴜ	cut_n_stereo_44KHz.wav
3	76	3	4	2	I	1	0	817	1	Ⴊ	cut_n_stereo_44KHz.wav
3	77	4	3	2	I	1	0	950	1	Ⴜ	cut_oei_stereo_44KHz.wav
3	78	1	1	1	C	1	1	813	1	Ⴡ	cut_ui_stereo_44KHz.wav
3	79	3	3	2	I	2	0	1071	1	Ⴊ	cut_oei_stereo_44KHz.wav
3	80	2	2	1	C	0	0	0	0	Ⴁ	cut_j_stereo_44KHz.wav
3	81	1	2	0	C	2	1	868	1	Ⴡ	cut_j_stereo_44KHz.wav
3	82	3	3	2	I	2	0	647	0	Ⴊ	cut_oei_stereo_44KHz.wav
3	83	4	4	2	I	2	0	804	0	Ⴜ	cut_n_stereo_44KHz.wav
3	84	2	1	0	C	2	1	804	1	Ⴁ	cut_ui_stereo_44KHz.wav
3	85	3	4	2	I	2	0	881	0	Ⴊ	cut_n_stereo_44KHz.wav
3	86	4	3	2	I	2	0	626	0	Ⴜ	cut_oei_stereo_44KHz.wav
3	87	1	1	1	C	1	1	837	1	Ⴡ	cut_ui_stereo_44KHz.wav
3	88	2	2	1	C	1	1	861	1	Ⴁ	cut_j_stereo_44KHz.wav
3	89	4	4	2	I	2	0	782	0	Ⴜ	cut_n_stereo_44KHz.wav
3	90	3	3	2	I	2	0	909	1	Ⴊ	cut_oei_stereo_44KHz.wav
3	91	2	2	1	C	1	1	1396	1	Ⴁ	cut_j_stereo_44KHz.wav
3	92	1	1	1	C	1	1	755	1	Ⴡ	cut_ui_stereo_44KHz.wav
3	93	4	3	2	I	1	0	1006	0	Ⴜ	cut_oei_stereo_44KHz.wav
3	94	2	1	0	C	2	1	1438	1	Ⴁ	cut_ui_stereo_44KHz.wav
3	95	1	2	0	C	2	1	776	1	Ⴡ	cut_j_stereo_44KHz.wav
3	96	3	4	2	I	2	0	1468	0	Ⴊ	cut_n_stereo_44KHz.wav
3	97	4	3	2	I	1	0	1119	0	Ⴜ	cut_oei_stereo_44KHz.wav
3	98	2	2	1	C	1	1	1535	1	Ⴁ	cut_j_stereo_44KHz.wav
3	99	3	4	2	I	1	0	1298	1	Ⴊ	cut_n_stereo_44KHz.wav
3	100	1	2	0	C	2	1	814	1	Ⴡ	cut_j_stereo_44KHz.wav
3	101	2	1	0	C	2	1	1693	1	Ⴁ	cut_ui_stereo_44KHz.wav
3	102	1	1	1	C	1	1	854	1	Ⴡ	cut_ui_stereo_44KHz.wav
3	103	3	3	2	I	2	0	1348	0	Ⴊ	cut_oei_stereo_44KHz.wav
3	104	4	4	2	I	2	0	848	1	Ⴜ	cut_n_stereo_44KHz.wav
3	105	3	4	2	I	1	0	776	0	Ⴊ	cut_n_stereo_44KHz.wav
3	106	2	1	0	C	2	1	1328	1	Ⴁ	cut_ui_stereo_44KHz.wav
3	107	4	3	2	I	2	0	790	1	Ⴜ	cut_oei_stereo_44KHz.wav
3	108	1	1	1	C	1	1	815	1	Ⴡ	cut_ui_stereo_44KHz.wav
3	109	2	2	1	C	1	1	1073	1	Ⴁ	cut_j_stereo_44KHz.wav
3	110	4	4	2	I	2	0	751	1	Ⴜ	cut_n_stereo_44KHz.wav
3	111	1	2	0	C	2	1	810	1	Ⴡ	cut_j_stereo_44KHz.wav
3	112	3	3	2	I	2	0	720	1	Ⴊ	cut_oei_stereo_44KHz.wav
3	113	1	1	1	C	1	1	827	1	Ⴡ	cut_ui_stereo_44KHz.wav
3	114	3	4	2	I	2	0	1246	1	Ⴊ	cut_n_stereo_44KHz.wav
3	115	4	3	2	I	2	0	712	1	Ⴜ	cut_oei_stereo_44KHz.wav
3	116	2	1	0	C	2	1	749	1	Ⴁ	cut_ui_stereo_44KHz.wav
3	117	3	3	2	I	1	0	871	0	Ⴊ	cut_oei_stereo_44KHz.wav
3	118	2	2	1	C	1	1	1002	1	Ⴁ	cut_j_stereo_44KHz.wav
3	119	1	2	0	C	2	1	578	1	Ⴡ	cut_j_stereo_44KHz.wav
3	120	4	4	2	I	2	0	739	1	Ⴜ	cut_n_stereo_44KHz.wav
3	121	1	1	1	C	1	1	826	1	Ⴡ	cut_ui_stereo_44KHz.wav
3	122	2	1	0	C	2	1	1267	1	Ⴁ	cut_ui_stereo_44KHz.wav
3	123	4	3	2	I	1	0	1128	0	Ⴜ	cut_oei_stereo_44KHz.wav
3	124	3	4	2	I	2	0	1094	0	Ⴊ	cut_n_stereo_44KHz.wav
3	125	1	2	0	C	2	1	711	1	Ⴡ	cut_j_stereo_44KHz.wav
3	126	2	2	1	C	1	1	654	1	Ⴁ	cut_j_stereo_44KHz.wav
3	127	3	3	2	I	2	0	609	1	Ⴊ	cut_oei_stereo_44KHz.wav
3	128	4	4	2	I	2	0	923	0	Ⴜ	cut_n_stereo_44KHz.wav
3	129	2	2	1	C	1	1	1121	1	Ⴁ	cut_j_stereo_44KHz.wav
3	130	3	4	2	I	2	0	868	1	Ⴊ	cut_n_stereo_44KHz.wav
3	131	4	3	2	I	1	0	1072	0	Ⴜ	cut_oei_stereo_44KHz.wav
3	132	1	1	1	C	1	1	816	1	Ⴡ	cut_ui_stereo_44KHz.wav
3	133	4	4	2	I	2	0	785	0	Ⴜ	cut_n_stereo_44KHz.wav
3	134	3	3	2	I	2	0	612	1	Ⴊ	cut_oei_stereo_44KHz.wav
3	135	2	1	0	C	1	0	543	0	Ⴁ	cut_ui_stereo_44KHz.wav
3	136	1	2	0	C	2	1	535	1	Ⴡ	cut_j_stereo_44KHz.wav
3	137	2	2	1	C	1	1	962	1	Ⴁ	cut_j_stereo_44KHz.wav
3	138	3	3	2	I	2	0	580	1	Ⴊ	cut_oei_stereo_44KHz.wav
3	139	4	4	2	I	2	0	604	0	Ⴜ	cut_n_stereo_44KHz.wav
3	140	1	1	1	C	2	0	533	0	Ⴡ	cut_ui_stereo_44KHz.wav
3	141	3	4	2	I	2	0	800	0	Ⴊ	cut_n_stereo_44KHz.wav
3	142	1	2	0	C	2	1	688	1	Ⴡ	cut_j_stereo_44KHz.wav
3	143	2	1	0	C	2	1	839	1	Ⴁ	cut_ui_stereo_44KHz.wav
3	144	4	3	2	I	1	0	1270	0	Ⴜ	cut_oei_stereo_44KHz.wav
3	145	3	4	2	I	2	0	811	0	Ⴊ	cut_n_stereo_44KHz.wav
3	146	2	1	0	C	2	1	959	1	Ⴁ	cut_ui_stereo_44KHz.wav
3	147	1	1	1	C	1	1	874	1	Ⴡ	cut_ui_stereo_44KHz.wav
3	148	4	3	2	I	2	0	710	1	Ⴜ	cut_oei_stereo_44KHz.wav
3	149	2	2	1	C	1	1	781	1	Ⴁ	cut_j_stereo_44KHz.wav
3	150	3	3	2	I	2	0	788	0	Ⴊ	cut_oei_stereo_44KHz.wav
3	151	4	4	2	I	2	0	996	0	Ⴜ	cut_n_stereo_44KHz.wav
3	152	1	2	0	C	2	1	620	1	Ⴡ	cut_j_stereo_44KHz.wav
3	153	4	3	2	I	1	0	733	0	Ⴜ	cut_oei_stereo_44KHz.wav
3	154	2	1	0	C	2	1	863	1	Ⴁ	cut_ui_stereo_44KHz.wav
3	155	3	3	2	I	2	0	749	1	Ⴊ	cut_oei_stereo_44KHz.wav
3	156	1	1	1	C	1	1	801	1	Ⴡ	cut_ui_stereo_44KHz.wav
3	157	4	4	2	I	2	0	755	0	Ⴜ	cut_n_stereo_44KHz.wav
3	158	1	2	0	C	2	1	888	1	Ⴡ	cut_j_stereo_44KHz.wav
3	159	2	2	1	C	1	1	857	1	Ⴁ	cut_j_stereo_44KHz.wav
3	160	3	4	2	I	2	0	725	0	Ⴊ	cut_n_stereo_44KHz.wav
3	161	1	2	0	C	2	1	759	1	Ⴡ	cut_j_stereo_44KHz.wav
3	162	2	1	0	C	2	1	682	1	Ⴁ	cut_ui_stereo_44KHz.wav
3	163	3	4	2	I	1	0	1184	1	Ⴊ	cut_n_stereo_44KHz.wav
3	164	4	4	2	I	2	0	1095	1	Ⴜ	cut_n_stereo_44KHz.wav
3	165	2	2	1	C	2	0	823	0	Ⴁ	cut_j_stereo_44KHz.wav
3	166	4	3	2	I	1	0	966	1	Ⴜ	cut_oei_stereo_44KHz.wav
3	167	1	1	1	C	1	1	733	1	Ⴡ	cut_ui_stereo_44KHz.wav
3	168	3	3	2	I	1	0	1019	0	Ⴊ	cut_oei_stereo_44KHz.wav
3	169	4	4	2	I	2	0	1305	0	Ⴜ	cut_n_stereo_44KHz.wav
3	170	1	2	0	C	2	1	729	1	Ⴡ	cut_j_stereo_44KHz.wav
3	171	2	1	0	C	2	1	1126	1	Ⴁ	cut_ui_stereo_44KHz.wav
3	172	3	3	2	I	2	0	874	0	Ⴊ	cut_oei_stereo_44KHz.wav
3	173	2	2	1	C	2	0	1199	0	Ⴁ	cut_j_stereo_44KHz.wav
3	174	4	3	2	I	2	0	673	1	Ⴜ	cut_oei_stereo_44KHz.wav
3	175	1	1	1	C	1	1	1156	1	Ⴡ	cut_ui_stereo_44KHz.wav
3	176	3	4	2	I	2	0	931	0	Ⴊ	cut_n_stereo_44KHz.wav
3	177	4	3	2	I	1	0	967	0	Ⴜ	cut_oei_stereo_44KHz.wav
3	178	2	1	0	C	2	1	1071	1	Ⴁ	cut_ui_stereo_44KHz.wav
3	179	1	1	1	C	1	1	849	1	Ⴡ	cut_ui_stereo_44KHz.wav
3	180	3	3	2	I	2	0	751	1	Ⴊ	cut_oei_stereo_44KHz.wav
3	181	4	4	2	I	2	0	653	0	Ⴜ	cut_n_stereo_44KHz.wav
3	182	3	4	2	I	1	0	1114	0	Ⴊ	cut_n_stereo_44KHz.wav
3	183	2	2	1	C	2	0	1194	0	Ⴁ	cut_j_stereo_44KHz.wav
3	184	1	2	0	C	2	1	893	1	Ⴡ	cut_j_stereo_44KHz.wav
3	185	4	4	2	I	1	0	625	0	Ⴜ	cut_n_stereo_44KHz.wav
3	186	3	4	2	I	1	0	1228	1	Ⴊ	cut_n_stereo_44KHz.wav
3	187	2	1	0	C	2	1	1150	1	Ⴁ	cut_ui_stereo_44KHz.wav
3	188	1	2	0	C	2	1	624	1	Ⴡ	cut_j_stereo_44KHz.wav
3	189	4	3	2	I	1	0	847	0	Ⴜ	cut_oei_stereo_44KHz.wav
3	190	3	3	2	I	2	0	925	0	Ⴊ	cut_oei_stereo_44KHz.wav
3	191	1	1	1	C	1	1	808	1	Ⴡ	cut_ui_stereo_44KHz.wav
3	192	2	2	1	C	1	1	1406	1	Ⴁ	cut_j_stereo_44KHz.wav
3	193	3	4	2	I	2	0	1658	1	Ⴊ	cut_n_stereo_44KHz.wav
3	194	1	1	1	C	1	1	936	1	Ⴡ	cut_ui_stereo_44KHz.wav
3	195	4	3	2	I	2	0	1338	1	Ⴜ	cut_oei_stereo_44KHz.wav
3	196	2	1	0	C	2	1	1048	1	Ⴁ	cut_ui_stereo_44KHz.wav
3	197	3	3	2	I	2	0	1021	1	Ⴊ	cut_oei_stereo_44KHz.wav
3	198	2	2	1	C	1	1	1398	1	Ⴁ	cut_j_stereo_44KHz.wav
3	199	1	2	0	C	2	1	1217	1	Ⴡ	cut_j_stereo_44KHz.wav
3	200	4	4	2	I	2	0	1101	0	Ⴜ	cut_n_stereo_44KHz.wav
4	1	2	1	0	C	2	1	1317	1	Ⴏ	cut_ei_stereo_44KHz.wav
4	2	1	2	0	C	2	1	904	1	Ⴔ	cut_f_stereo_44KHz.wav
4	3	4	4	2	I	1	0	1144	0	Ⴖ	cut_s_stereo_44KHz.wav
4	4	3	4	2	I	2	0	795	0	Ⴒ	cut_s_stereo_44KHz.wav
4	5	2	2	1	C	2	0	634	0	Ⴏ	cut_f_stereo_44KHz.wav
4	6	3	3	2	I	2	0	812	0	Ⴒ	cut_r_stereo_44KHz.wav
4	7	4	3	2	I	2	0	746	0	Ⴖ	cut_r_stereo_44KHz.wav
4	8	1	1	1	C	1	1	746	1	Ⴔ	cut_ei_stereo_44KHz.wav
4	9	3	3	2	I	1	0	896	0	Ⴒ	cut_r_stereo_44KHz.wav
4	10	2	1	0	C	2	1	643	1	Ⴏ	cut_ei_stereo_44KHz.wav
4	11	4	3	2	I	2	0	834	1	Ⴖ	cut_r_stereo_44KHz.wav
4	12	1	1	1	C	2	0	725	0	Ⴔ	cut_ei_stereo_44KHz.wav
4	13	4	4	2	I	1	0	944	0	Ⴖ	cut_s_stereo_44KHz.wav
4	14	3	4	2	I	1	0	729	1	Ⴒ	cut_s_stereo_44KHz.wav
4	15	2	2	1	C	2	0	630	0	Ⴏ	cut_f_stereo_44KHz.wav
4	16	1	2	0	C	2	1	551	1	Ⴔ	cut_f_stereo_44KHz.wav
4	17	4	4	2	I	2	0	738	0	Ⴖ	cut_s_stereo_44KHz.wav
4	18	2	2	1	C	1	1	1140	1	Ⴏ	cut_f_stereo_44KHz.wav
4	19	3	4	2	I	1	0	1540	0	Ⴒ	cut_s_stereo_44KHz.wav
4	20	1	1	1	C	1	1	1598	1	Ⴔ	cut_ei_stereo_44KHz.wav
4	21	2	1	0	C	0	0	0	0	Ⴏ	cut_ei_stereo_44KHz.wav
4	22	3	3	2	I	2	0	708	0	Ⴒ	cut_r_stereo_44KHz.wav
4	23	1	2	0	C	2	1	696	1	Ⴔ	cut_f_stereo_44KHz.wav
4	24	4	3	2	I	2	0	755	1	Ⴖ	cut_r_stereo_44KHz.wav
4	25	3	3	2	I	1	0	956	1	Ⴒ	cut_r_stereo_44KHz.wav
4	26	2	1	0	C	2	1	987	1	Ⴏ	cut_ei_stereo_44KHz.wav
4	27	1	2	0	C	2	1	779	1	Ⴔ	cut_f_stereo_44KHz.wav
4	28	4	3	2	I	2	0	766	0	Ⴖ	cut_r_stereo_44KHz.wav
4	29	3	4	2	I	2	0	943	1	Ⴒ	cut_s_stereo_44KHz.wav
4	30	1	1	1	C	2	0	735	0	Ⴔ	cut_ei_stereo_44KHz.wav
4	31	4	4	2	I	2	0	702	0	Ⴖ	cut_s_stereo_44KHz.wav
4	32	2	2	1	C	1	1	1574	1	Ⴏ	cut_f_stereo_44KHz.wav
4	33	1	2	0	C	2	1	729	1	Ⴔ	cut_f_stereo_44KHz.wav
4	34	4	3	2	I	2	0	835	0	Ⴖ	cut_r_stereo_44KHz.wav
4	35	2	1	0	C	2	1	834	1	Ⴏ	cut_ei_stereo_44KHz.wav
4	36	3	4	2	I	2	0	906	1	Ⴒ	cut_s_stereo_44KHz.wav
4	37	1	1	1	C	2	0	632	0	Ⴔ	cut_ei_stereo_44KHz.wav
4	38	3	3	2	I	1	0	1078	1	Ⴒ	cut_r_stereo_44KHz.wav
4	39	2	2	1	C	1	1	1401	1	Ⴏ	cut_f_stereo_44KHz.wav
4	40	4	4	2	I	1	0	1262	0	Ⴖ	cut_s_stereo_44KHz.wav
4	41	1	1	1	C	2	0	826	0	Ⴔ	cut_ei_stereo_44KHz.wav
4	42	2	1	0	C	2	1	1084	1	Ⴏ	cut_ei_stereo_44KHz.wav
4	43	3	3	2	I	1	0	893	0	Ⴒ	cut_r_stereo_44KHz.wav
4	44	4	3	2	I	2	0	768	1	Ⴖ	cut_r_stereo_44KHz.wav
4	45	2	2	1	C	2	0	745	0	Ⴏ	cut_f_stereo_44KHz.wav
4	46	3	4	2	I	2	0	900	1	Ⴒ	cut_s_stereo_44KHz.wav
4	47	1	2	0	C	2	1	685	1	Ⴔ	cut_f_stereo_44KHz.wav
4	48	4	4	2	I	2	0	903	0	Ⴖ	cut_s_stereo_44KHz.wav
4	49	2	2	1	C	1	1	932	1	Ⴏ	cut_f_stereo_44KHz.wav
4	50	1	2	0	C	2	1	689	1	Ⴔ	cut_f_stereo_44KHz.wav
4	51	4	4	2	I	2	0	720	0	Ⴖ	cut_s_stereo_44KHz.wav
4	52	3	4	2	I	2	0	777	1	Ⴒ	cut_s_stereo_44KHz.wav
4	53	1	1	1	C	1	1	915	1	Ⴔ	cut_ei_stereo_44KHz.wav
4	54	3	3	2	I	1	0	798	0	Ⴒ	cut_r_stereo_44KHz.wav
4	55	2	1	0	C	2	1	800	1	Ⴏ	cut_ei_stereo_44KHz.wav
4	56	4	3	2	I	2	0	915	0	Ⴖ	cut_r_stereo_44KHz.wav
4	57	2	2	1	C	1	1	973	1	Ⴏ	cut_f_stereo_44KHz.wav
4	58	1	1	1	C	2	0	676	0	Ⴔ	cut_ei_stereo_44KHz.wav
4	59	4	4	2	I	2	0	789	1	Ⴖ	cut_s_stereo_44KHz.wav
4	60	3	4	2	I	1	0	844	1	Ⴒ	cut_s_stereo_44KHz.wav
4	61	2	1	0	C	2	1	647	1	Ⴏ	cut_ei_stereo_44KHz.wav
4	62	3	3	2	I	2	0	803	1	Ⴒ	cut_r_stereo_44KHz.wav
4	63	1	2	0	C	1	0	1222	0	Ⴔ	cut_f_stereo_44KHz.wav
4	64	4	3	2	I	2	0	770	0	Ⴖ	cut_r_stereo_44KHz.wav
4	65	1	2	0	C	2	1	799	1	Ⴔ	cut_f_stereo_44KHz.wav
4	66	4	4	2	I	2	0	909	1	Ⴖ	cut_s_stereo_44KHz.wav
4	67	3	4	2	I	1	0	812	1	Ⴒ	cut_s_stereo_44KHz.wav
4	68	2	1	0	C	2	1	698	1	Ⴏ	cut_ei_stereo_44KHz.wav
4	69	4	3	2	I	2	0	854	1	Ⴖ	cut_r_stereo_44KHz.wav
4	70	3	3	2	I	1	0	706	0	Ⴒ	cut_r_stereo_44KHz.wav
4	71	2	2	1	C	1	1	984	1	Ⴏ	cut_f_stereo_44KHz.wav
4	72	1	1	1	C	2	0	627	0	Ⴔ	cut_ei_stereo_44KHz.wav
4	73	4	3	2	I	2	0	781	0	Ⴖ	cut_r_stereo_44KHz.wav
4	74	3	4	2	I	2	0	1009	1	Ⴒ	cut_s_stereo_44KHz.wav
4	75	2	2	1	C	1	1	1038	1	Ⴏ	cut_f_stereo_44KHz.wav
4	76	1	1	1	C	1	1	1027	1	Ⴔ	cut_ei_stereo_44KHz.wav
4	77	3	3	2	I	2	0	871	0	Ⴒ	cut_r_stereo_44KHz.wav
4	78	2	1	0	C	2	1	941	1	Ⴏ	cut_ei_stereo_44KHz.wav
4	79	1	2	0	C	2	1	664	1	Ⴔ	cut_f_stereo_44KHz.wav
4	80	4	4	2	I	2	0	883	1	Ⴖ	cut_s_stereo_44KHz.wav
4	81	2	1	0	C	2	1	669	1	Ⴏ	cut_ei_stereo_44KHz.wav
4	82	4	4	2	I	1	0	1034	1	Ⴖ	cut_s_stereo_44KHz.wav
4	83	3	3	2	I	2	0	592	1	Ⴒ	cut_r_stereo_44KHz.wav
4	84	1	2	0	C	2	1	958	1	Ⴔ	cut_f_stereo_44KHz.wav
4	85	4	3	2	I	2	0	1271	1	Ⴖ	cut_r_stereo_44KHz.wav
4	86	1	1	1	C	2	0	765	0	Ⴔ	cut_ei_stereo_44KHz.wav
4	87	2	2	1	C	1	1	900	1	Ⴏ	cut_f_stereo_44KHz.wav
4	88	3	4	2	I	2	0	1175	0	Ⴒ	cut_s_stereo_44KHz.wav
4	89	4	3	2	I	1	0	654	1	Ⴖ	cut_r_stereo_44KHz.wav
4	90	2	1	0	C	2	1	773	1	Ⴏ	cut_ei_stereo_44KHz.wav
4	91	1	2	0	C	2	1	804	1	Ⴔ	cut_f_stereo_44KHz.wav
4	92	3	4	2	I	2	0	1117	0	Ⴒ	cut_s_stereo_44KHz.wav
4	93	4	4	2	I	2	0	1029	1	Ⴖ	cut_s_stereo_44KHz.wav
4	94	2	2	1	C	1	1	1125	1	Ⴏ	cut_f_stereo_44KHz.wav
4	95	1	1	1	C	1	1	992	1	Ⴔ	cut_ei_stereo_44KHz.wav
4	96	3	3	2	I	2	0	835	0	Ⴒ	cut_r_stereo_44KHz.wav
4	97	1	2	0	C	2	1	1383	1	Ⴔ	cut_f_stereo_44KHz.wav
4	98	3	3	2	I	2	0	1220	0	Ⴒ	cut_r_stereo_44KHz.wav
4	99	4	4	2	I	2	0	868	0	Ⴖ	cut_s_stereo_44KHz.wav
4	100	2	2	1	C	1	1	1170	1	Ⴏ	cut_f_stereo_44KHz.wav
4	101	1	1	1	C	2	0	603	0	Ⴔ	cut_ei_stereo_44KHz.wav
4	102	4	3	2	I	2	0	871	1	Ⴖ	cut_r_stereo_44KHz.wav
4	103	2	1	0	C	2	1	924	1	Ⴏ	cut_ei_stereo_44KHz.wav
4	104	3	4	2	I	2	0	454	1	Ⴒ	cut_s_stereo_44KHz.wav
4	105	4	3	2	I	2	0	795	0	Ⴖ	cut_r_stereo_44KHz.wav
4	106	2	2	1	C	1	1	1065	1	Ⴏ	cut_f_stereo_44KHz.wav
4	107	3	4	2	I	2	0	1076	0	Ⴒ	cut_s_stereo_44KHz.wav
4	108	1	1	1	C	2	0	1051	0	Ⴔ	cut_ei_stereo_44KHz.wav
4	109	3	3	2	I	2	0	934	1	Ⴒ	cut_r_stereo_44KHz.wav
4	110	1	2	0	C	2	1	825	1	Ⴔ	cut_f_stereo_44KHz.wav
4	111	4	4	2	I	1	0	815	0	Ⴖ	cut_s_stereo_44KHz.wav
4	112	2	1	0	C	2	1	582	1	Ⴏ	cut_ei_stereo_44KHz.wav
4	113	4	4	2	I	2	0	651	1	Ⴖ	cut_s_stereo_44KHz.wav
4	114	1	2	0	C	2	1	762	1	Ⴔ	cut_f_stereo_44KHz.wav
4	115	3	4	2	I	1	0	1093	1	Ⴒ	cut_s_stereo_44KHz.wav
4	116	2	1	0	C	2	1	882	1	Ⴏ	cut_ei_stereo_44KHz.wav
4	117	3	3	2	I	2	0	531	1	Ⴒ	cut_r_stereo_44KHz.wav
4	118	2	2	1	C	1	1	1387	1	Ⴏ	cut_f_stereo_44KHz.wav
4	119	1	1	1	C	2	0	1242	0	Ⴔ	cut_ei_stereo_44KHz.wav
4	120	4	3	2	I	2	0	739	0	Ⴖ	cut_r_stereo_44KHz.wav
4	121	2	2	1	C	1	1	920	1	Ⴏ	cut_f_stereo_44KHz.wav
4	122	3	3	2	I	2	0	1127	0	Ⴒ	cut_r_stereo_44KHz.wav
4	123	1	1	1	C	1	1	605	1	Ⴔ	cut_ei_stereo_44KHz.wav
4	124	4	3	2	I	1	0	987	0	Ⴖ	cut_r_stereo_44KHz.wav
4	125	1	2	0	C	1	0	992	0	Ⴔ	cut_f_stereo_44KHz.wav
4	126	4	4	2	I	2	0	734	1	Ⴖ	cut_s_stereo_44KHz.wav
4	127	2	1	0	C	2	1	828	1	Ⴏ	cut_ei_stereo_44KHz.wav
4	128	3	4	2	I	2	0	1633	1	Ⴒ	cut_s_stereo_44KHz.wav
4	129	1	2	0	C	2	1	1145	1	Ⴔ	cut_f_stereo_44KHz.wav
4	130	2	2	1	C	2	0	1125	0	Ⴏ	cut_f_stereo_44KHz.wav
4	131	4	4	2	I	2	0	911	0	Ⴖ	cut_s_stereo_44KHz.wav
4	132	3	3	2	I	2	0	883	0	Ⴒ	cut_r_stereo_44KHz.wav
4	133	1	1	1	C	1	1	1232	1	Ⴔ	cut_ei_stereo_44KHz.wav
4	134	2	1	0	C	2	1	888	1	Ⴏ	cut_ei_stereo_44KHz.wav
4	135	4	3	2	I	2	0	682	0	Ⴖ	cut_r_stereo_44KHz.wav
4	136	3	4	2	I	2	0	1060	0	Ⴒ	cut_s_stereo_44KHz.wav
4	137	4	4	2	I	2	0	785	1	Ⴖ	cut_s_stereo_44KHz.wav
4	138	3	3	2	I	2	0	479	0	Ⴒ	cut_r_stereo_44KHz.wav
4	139	2	2	1	C	1	1	1210	1	Ⴏ	cut_f_stereo_44KHz.wav
4	140	1	1	1	C	1	1	1031	1	Ⴔ	cut_ei_stereo_44KHz.wav
4	141	4	3	2	I	2	0	851	0	Ⴖ	cut_r_stereo_44KHz.wav
4	142	2	1	0	C	2	1	690	1	Ⴏ	cut_ei_stereo_44KHz.wav
4	143	1	2	0	C	2	1	703	1	Ⴔ	cut_f_stereo_44KHz.wav
4	144	3	4	2	I	2	0	842	1	Ⴒ	cut_s_stereo_44KHz.wav
4	145	2	2	1	C	1	1	1024	1	Ⴏ	cut_f_stereo_44KHz.wav
4	146	3	4	2	I	2	0	788	0	Ⴒ	cut_s_stereo_44KHz.wav
4	147	1	2	0	C	2	1	695	1	Ⴔ	cut_f_stereo_44KHz.wav
4	148	4	3	2	I	2	0	741	1	Ⴖ	cut_r_stereo_44KHz.wav
4	149	2	1	0	C	2	1	682	1	Ⴏ	cut_ei_stereo_44KHz.wav
4	150	4	4	2	I	2	0	869	1	Ⴖ	cut_s_stereo_44KHz.wav
4	151	1	1	1	C	1	1	1106	1	Ⴔ	cut_ei_stereo_44KHz.wav
4	152	3	3	2	I	2	0	751	0	Ⴒ	cut_r_stereo_44KHz.wav
4	153	2	1	0	C	2	1	729	1	Ⴏ	cut_ei_stereo_44KHz.wav
4	154	4	3	2	I	2	0	572	1	Ⴖ	cut_r_stereo_44KHz.wav
4	155	1	2	0	C	2	1	1184	1	Ⴔ	cut_f_stereo_44KHz.wav
4	156	3	3	2	I	2	0	778	0	Ⴒ	cut_r_stereo_44KHz.wav
4	157	2	2	1	C	1	1	1724	1	Ⴏ	cut_f_stereo_44KHz.wav
4	158	4	4	2	I	2	0	1026	1	Ⴖ	cut_s_stereo_44KHz.wav
4	159	3	4	2	I	1	0	774	1	Ⴒ	cut_s_stereo_44KHz.wav
4	160	1	1	1	C	2	0	1021	0	Ⴔ	cut_ei_stereo_44KHz.wav
4	161	4	4	2	I	2	0	824	1	Ⴖ	cut_s_stereo_44KHz.wav
4	162	1	1	1	C	1	1	1346	1	Ⴔ	cut_ei_stereo_44KHz.wav
4	163	2	1	0	C	2	1	481	1	Ⴏ	cut_ei_stereo_44KHz.wav
4	164	3	3	2	I	2	0	797	1	Ⴒ	cut_r_stereo_44KHz.wav
4	165	2	2	1	C	1	1	934	1	Ⴏ	cut_f_stereo_44KHz.wav
4	166	4	3	2	I	1	0	884	0	Ⴖ	cut_r_stereo_44KHz.wav
4	167	3	4	2	I	2	0	843	0	Ⴒ	cut_s_stereo_44KHz.wav
4	168	1	2	0	C	1	0	866	0	Ⴔ	cut_f_stereo_44KHz.wav
4	169	3	3	2	I	2	0	1099	1	Ⴒ	cut_r_stereo_44KHz.wav
4	170	1	2	0	C	2	1	1038	1	Ⴔ	cut_f_stereo_44KHz.wav
4	171	4	3	2	I	1	0	948	0	Ⴖ	cut_r_stereo_44KHz.wav
4	172	2	2	1	C	1	1	962	1	Ⴏ	cut_f_stereo_44KHz.wav
4	173	3	4	2	I	1	0	1117	1	Ⴒ	cut_s_stereo_44KHz.wav
4	174	4	4	2	I	2	0	917	1	Ⴖ	cut_s_stereo_44KHz.wav
4	175	1	1	1	C	1	1	1069	1	Ⴔ	cut_ei_stereo_44KHz.wav
4	176	2	1	0	C	2	1	755	1	Ⴏ	cut_ei_stereo_44KHz.wav
4	177	3	4	2	I	2	0	810	0	Ⴒ	cut_s_stereo_44KHz.wav
4	178	2	2	1	C	1	1	1058	1	Ⴏ	cut_f_stereo_44KHz.wav
4	179	4	4	2	I	2	0	876	1	Ⴖ	cut_s_stereo_44KHz.wav
4	180	1	2	0	C	2	1	1345	1	Ⴔ	cut_f_stereo_44KHz.wav
4	181	4	3	2	I	1	0	1053	0	Ⴖ	cut_r_stereo_44KHz.wav
4	182	2	1	0	C	2	1	772	1	Ⴏ	cut_ei_stereo_44KHz.wav
4	183	1	1	1	C	1	1	1176	1	Ⴔ	cut_ei_stereo_44KHz.wav
4	184	3	3	2	I	2	0	791	1	Ⴒ	cut_r_stereo_44KHz.wav
4	185	2	1	0	C	2	1	1011	1	Ⴏ	cut_ei_stereo_44KHz.wav
4	186	4	3	2	I	2	0	851	1	Ⴖ	cut_r_stereo_44KHz.wav
4	187	3	3	2	I	1	0	894	0	Ⴒ	cut_r_stereo_44KHz.wav
4	188	1	1	1	C	1	1	1081	1	Ⴔ	cut_ei_stereo_44KHz.wav
4	189	2	2	1	C	2	0	1827	0	Ⴏ	cut_f_stereo_44KHz.wav
4	190	4	4	2	I	2	0	990	1	Ⴖ	cut_s_stereo_44KHz.wav
4	191	1	2	0	C	2	1	1116	1	Ⴔ	cut_f_stereo_44KHz.wav
4	192	3	4	2	I	2	0	876	0	Ⴒ	cut_s_stereo_44KHz.wav
4	193	2	2	1	C	1	1	1069	1	Ⴏ	cut_f_stereo_44KHz.wav
4	194	4	4	2	I	2	0	797	0	Ⴖ	cut_s_stereo_44KHz.wav
4	195	3	4	2	I	2	0	912	1	Ⴒ	cut_s_stereo_44KHz.wav
4	196	1	2	0	C	1	0	1037	0	Ⴔ	cut_f_stereo_44KHz.wav
4	197	4	3	2	I	2	0	658	1	Ⴖ	cut_r_stereo_44KHz.wav
4	198	3	3	2	I	1	0	890	1	Ⴒ	cut_r_stereo_44KHz.wav
4	199	2	1	0	C	2	1	923	1	Ⴏ	cut_ei_stereo_44KHz.wav
4	200	1	1	1	C	1	1	899	1	Ⴔ	cut_ei_stereo_44KHz.wav
