block	trial	Vstim	Astim	match	C/I	resp	result	RT	fb	V-file	A-file
LR

0	1	2	3	1	C	0	0	0	0	poli_8sides 21_whiteLine3.jpg	Practice3_b26_cut1_stereo_44KHz.wav
0	2	1	1	1	C	1	0	716	0	poli_8sides 23_whiteLine3.jpg	Practice4_b26_stereo_44KHz.wav
0	3	2	4	0	C	2	0	435	0	poli_8sides 21_whiteLine3.jpg	Practice2_b27_cut2_stereo_44KHz.wav
0	4	1	2	0	C	2	0	603	0	poli_8sides 23_whiteLine3.jpg	Practice1_b27_cut1_stereo_44KHz.wav
0	5	1	1	1	C	2	1	585	1	poli_8sides 23_whiteLine3.jpg	Practice4_b26_stereo_44KHz.wav
0	6	2	3	1	C	2	1	372	1	poli_8sides 21_whiteLine3.jpg	Practice3_b26_cut1_stereo_44KHz.wav
0	7	1	2	0	C	2	0	360	0	poli_8sides 23_whiteLine3.jpg	Practice1_b27_cut1_stereo_44KHz.wav
0	8	2	4	0	C	2	0	693	0	poli_8sides 21_whiteLine3.jpg	Practice2_b27_cut2_stereo_44KHz.wav
0	9	1	2	0	C	1	1	708	1	poli_8sides 23_whiteLine3.jpg	Practice1_b27_cut1_stereo_44KHz.wav
0	10	1	1	1	C	1	0	559	0	poli_8sides 23_whiteLine3.jpg	Practice4_b26_stereo_44KHz.wav
0	11	2	4	0	C	1	1	494	1	poli_8sides 21_whiteLine3.jpg	Practice2_b27_cut2_stereo_44KHz.wav
0	12	2	3	1	C	1	0	544	0	poli_8sides 21_whiteLine3.jpg	Practice3_b26_cut1_stereo_44KHz.wav
0	13	2	4	0	C	1	1	569	1	poli_8sides 21_whiteLine3.jpg	Practice2_b27_cut2_stereo_44KHz.wav
0	14	1	2	0	C	2	0	596	0	poli_8sides 23_whiteLine3.jpg	Practice1_b27_cut1_stereo_44KHz.wav
0	15	2	3	1	C	2	1	689	1	poli_8sides 21_whiteLine3.jpg	Practice3_b26_cut1_stereo_44KHz.wav
0	16	1	1	1	C	1	0	476	0	poli_8sides 23_whiteLine3.jpg	Practice4_b26_stereo_44KHz.wav
0	17	2	4	0	C	2	0	536	0	poli_8sides 21_whiteLine3.jpg	Practice2_b27_cut2_stereo_44KHz.wav
0	18	2	3	1	C	2	1	593	1	poli_8sides 21_whiteLine3.jpg	Practice3_b26_cut1_stereo_44KHz.wav
0	19	1	2	0	C	2	0	455	0	poli_8sides 23_whiteLine3.jpg	Practice1_b27_cut1_stereo_44KHz.wav
0	20	1	1	1	C	2	1	781	1	poli_8sides 23_whiteLine3.jpg	Practice4_b26_stereo_44KHz.wav
0	21	2	3	1	C	2	1	552	1	poli_8sides 21_whiteLine3.jpg	Practice3_b26_cut1_stereo_44KHz.wav
0	22	1	2	0	C	2	0	671	0	poli_8sides 23_whiteLine3.jpg	Practice1_b27_cut1_stereo_44KHz.wav
0	23	1	1	1	C	2	1	750	1	poli_8sides 23_whiteLine3.jpg	Practice4_b26_stereo_44KHz.wav
0	24	2	4	0	C	2	0	656	0	poli_8sides 21_whiteLine3.jpg	Practice2_b27_cut2_stereo_44KHz.wav
0	25	1	2	0	C	2	0	855	0	poli_8sides 23_whiteLine3.jpg	Practice1_b27_cut1_stereo_44KHz.wav
0	26	1	1	1	C	2	1	802	1	poli_8sides 23_whiteLine3.jpg	Practice4_b26_stereo_44KHz.wav
0	27	2	4	0	C	1	1	705	1	poli_8sides 21_whiteLine3.jpg	Practice2_b27_cut2_stereo_44KHz.wav
0	28	2	3	1	C	2	1	914	1	poli_8sides 21_whiteLine3.jpg	Practice3_b26_cut1_stereo_44KHz.wav
0	29	2	3	1	C	2	1	802	1	poli_8sides 21_whiteLine3.jpg	Practice3_b26_cut1_stereo_44KHz.wav
0	30	1	2	0	C	2	0	599	0	poli_8sides 23_whiteLine3.jpg	Practice1_b27_cut1_stereo_44KHz.wav
avg_resp = 665
1	1	3	3	2	I	2	0	1500	0	poli_8sides 11_whiteLine3.jpg	MediumLong_e17_cut2_stereo_44KHz.wav
1	2	2	2	1	C	2	1	1465	1	poli_8sides 18_whiteLine3.jpg	MediumLong_b10_cut2_L_stereo_44KHz.wav
1	3	1	1	1	C	2	1	703	1	poli_8sides 7_whiteLine3.jpg	Medium_e26_stereo_44KHz.wav
1	4	4	4	2	I	2	0	394	1	poli_8sides 6_whiteLine3.jpg	MediumLong_e04_stereo_44KHz.wav
1	5	1	2	0	C	2	0	766	0	poli_8sides 7_whiteLine3.jpg	MediumLong_b10_cut2_L_stereo_44KHz.wav
1	6	2	1	0	C	2	0	747	0	poli_8sides 18_whiteLine3.jpg	Medium_e26_stereo_44KHz.wav
1	7	4	3	2	I	1	0	1154	1	poli_8sides 6_whiteLine3.jpg	MediumLong_e17_cut2_stereo_44KHz.wav
1	8	3	4	2	I	2	0	943	1	poli_8sides 11_whiteLine3.jpg	MediumLong_e04_stereo_44KHz.wav
1	9	2	1	0	C	1	1	863	1	poli_8sides 18_whiteLine3.jpg	Medium_e26_stereo_44KHz.wav
1	10	3	3	2	I	2	0	892	0	poli_8sides 11_whiteLine3.jpg	MediumLong_e17_cut2_stereo_44KHz.wav
1	11	1	2	0	C	2	0	991	0	poli_8sides 7_whiteLine3.jpg	MediumLong_b10_cut2_L_stereo_44KHz.wav
1	12	4	4	2	I	1	0	763	1	poli_8sides 6_whiteLine3.jpg	MediumLong_e04_stereo_44KHz.wav
1	13	3	4	2	I	1	0	639	0	poli_8sides 11_whiteLine3.jpg	MediumLong_e04_stereo_44KHz.wav
1	14	2	2	1	C	2	1	1210	1	poli_8sides 18_whiteLine3.jpg	MediumLong_b10_cut2_L_stereo_44KHz.wav
1	15	1	1	1	C	2	1	1129	1	poli_8sides 7_whiteLine3.jpg	Medium_e26_stereo_44KHz.wav
1	16	4	3	2	I	1	0	845	0	poli_8sides 6_whiteLine3.jpg	MediumLong_e17_cut2_stereo_44KHz.wav
1	17	2	1	0	C	2	0	783	0	poli_8sides 18_whiteLine3.jpg	Medium_e26_stereo_44KHz.wav
1	18	3	3	2	I	1	0	1117	0	poli_8sides 11_whiteLine3.jpg	MediumLong_e17_cut2_stereo_44KHz.wav
1	19	4	3	2	I	2	0	1014	1	poli_8sides 6_whiteLine3.jpg	MediumLong_e17_cut2_stereo_44KHz.wav
1	20	1	2	0	C	1	1	856	1	poli_8sides 7_whiteLine3.jpg	MediumLong_b10_cut2_L_stereo_44KHz.wav
1	21	3	4	2	I	2	0	977	0	poli_8sides 11_whiteLine3.jpg	MediumLong_e04_stereo_44KHz.wav
1	22	4	4	2	I	2	0	906	1	poli_8sides 6_whiteLine3.jpg	MediumLong_e04_stereo_44KHz.wav
1	23	2	2	1	C	1	0	991	0	poli_8sides 18_whiteLine3.jpg	MediumLong_b10_cut2_L_stereo_44KHz.wav
1	24	1	1	1	C	1	0	806	0	poli_8sides 7_whiteLine3.jpg	Medium_e26_stereo_44KHz.wav
1	25	3	3	2	I	2	0	1270	1	poli_8sides 11_whiteLine3.jpg	MediumLong_e17_cut2_stereo_44KHz.wav
1	26	1	1	1	C	2	1	863	1	poli_8sides 7_whiteLine3.jpg	Medium_e26_stereo_44KHz.wav
1	27	4	3	2	I	1	0	843	1	poli_8sides 6_whiteLine3.jpg	MediumLong_e17_cut2_stereo_44KHz.wav
1	28	2	1	0	C	2	0	1001	0	poli_8sides 18_whiteLine3.jpg	Medium_e26_stereo_44KHz.wav
1	29	1	2	0	C	1	1	1033	1	poli_8sides 7_whiteLine3.jpg	MediumLong_b10_cut2_L_stereo_44KHz.wav
1	30	2	2	1	C	1	0	718	0	poli_8sides 18_whiteLine3.jpg	MediumLong_b10_cut2_L_stereo_44KHz.wav
1	31	3	4	2	I	2	0	799	1	poli_8sides 11_whiteLine3.jpg	MediumLong_e04_stereo_44KHz.wav
1	32	4	4	2	I	1	0	1043	0	poli_8sides 6_whiteLine3.jpg	MediumLong_e04_stereo_44KHz.wav
1	33	2	1	0	C	2	0	1283	0	poli_8sides 18_whiteLine3.jpg	Medium_e26_stereo_44KHz.wav
1	34	3	4	2	I	1	0	1339	1	poli_8sides 11_whiteLine3.jpg	MediumLong_e04_stereo_44KHz.wav
1	35	4	3	2	I	1	0	1006	0	poli_8sides 6_whiteLine3.jpg	MediumLong_e17_cut2_stereo_44KHz.wav
1	36	1	2	0	C	1	1	866	1	poli_8sides 7_whiteLine3.jpg	MediumLong_b10_cut2_L_stereo_44KHz.wav
1	37	4	4	2	I	1	0	806	0	poli_8sides 6_whiteLine3.jpg	MediumLong_e04_stereo_44KHz.wav
1	38	3	3	2	I	1	0	1107	0	poli_8sides 11_whiteLine3.jpg	MediumLong_e17_cut2_stereo_44KHz.wav
1	39	2	2	1	C	1	0	1160	0	poli_8sides 18_whiteLine3.jpg	MediumLong_b10_cut2_L_stereo_44KHz.wav
1	40	1	1	1	C	2	1	1186	1	poli_8sides 7_whiteLine3.jpg	Medium_e26_stereo_44KHz.wav
1	41	3	3	2	I	1	0	844	0	poli_8sides 11_whiteLine3.jpg	MediumLong_e17_cut2_stereo_44KHz.wav
1	42	1	2	0	C	1	1	751	1	poli_8sides 7_whiteLine3.jpg	MediumLong_b10_cut2_L_stereo_44KHz.wav
1	43	2	1	0	C	1	1	895	1	poli_8sides 18_whiteLine3.jpg	Medium_e26_stereo_44KHz.wav
1	44	4	3	2	I	2	0	1214	1	poli_8sides 6_whiteLine3.jpg	MediumLong_e17_cut2_stereo_44KHz.wav
1	45	3	4	2	I	2	0	916	1	poli_8sides 11_whiteLine3.jpg	MediumLong_e04_stereo_44KHz.wav
1	46	4	4	2	I	2	0	644	0	poli_8sides 6_whiteLine3.jpg	MediumLong_e04_stereo_44KHz.wav
1	47	1	1	1	C	2	1	804	1	poli_8sides 7_whiteLine3.jpg	Medium_e26_stereo_44KHz.wav
1	48	2	2	1	C	2	1	1364	1	poli_8sides 18_whiteLine3.jpg	MediumLong_b10_cut2_L_stereo_44KHz.wav
1	49	1	1	1	C	2	1	1006	1	poli_8sides 7_whiteLine3.jpg	Medium_e26_stereo_44KHz.wav
1	50	3	4	2	I	2	0	925	1	poli_8sides 11_whiteLine3.jpg	MediumLong_e04_stereo_44KHz.wav
1	51	4	3	2	I	1	0	1071	0	poli_8sides 6_whiteLine3.jpg	MediumLong_e17_cut2_stereo_44KHz.wav
1	52	2	2	1	C	2	1	756	1	poli_8sides 18_whiteLine3.jpg	MediumLong_b10_cut2_L_stereo_44KHz.wav
1	53	3	3	2	I	2	0	799	0	poli_8sides 11_whiteLine3.jpg	MediumLong_e17_cut2_stereo_44KHz.wav
1	54	2	1	0	C	2	0	826	0	poli_8sides 18_whiteLine3.jpg	Medium_e26_stereo_44KHz.wav
1	55	1	2	0	C	1	1	1160	1	poli_8sides 7_whiteLine3.jpg	MediumLong_b10_cut2_L_stereo_44KHz.wav
1	56	4	4	2	I	1	0	1243	1	poli_8sides 6_whiteLine3.jpg	MediumLong_e04_stereo_44KHz.wav
1	57	2	2	1	C	1	0	1088	0	poli_8sides 18_whiteLine3.jpg	MediumLong_b10_cut2_L_stereo_44KHz.wav
1	58	1	2	0	C	2	0	1252	0	poli_8sides 7_whiteLine3.jpg	MediumLong_b10_cut2_L_stereo_44KHz.wav
1	59	4	3	2	I	2	0	1216	1	poli_8sides 6_whiteLine3.jpg	MediumLong_e17_cut2_stereo_44KHz.wav
1	60	3	4	2	I	1	0	1400	1	poli_8sides 11_whiteLine3.jpg	MediumLong_e04_stereo_44KHz.wav
1	61	4	4	2	I	1	0	891	1	poli_8sides 6_whiteLine3.jpg	MediumLong_e04_stereo_44KHz.wav
1	62	3	3	2	I	2	0	1000	0	poli_8sides 11_whiteLine3.jpg	MediumLong_e17_cut2_stereo_44KHz.wav
1	63	1	1	1	C	2	1	1322	1	poli_8sides 7_whiteLine3.jpg	Medium_e26_stereo_44KHz.wav
1	64	2	1	0	C	2	0	1005	0	poli_8sides 18_whiteLine3.jpg	Medium_e26_stereo_44KHz.wav
1	65	1	1	1	C	2	1	1027	1	poli_8sides 7_whiteLine3.jpg	Medium_e26_stereo_44KHz.wav
1	66	4	3	2	I	1	0	812	0	poli_8sides 6_whiteLine3.jpg	MediumLong_e17_cut2_stereo_44KHz.wav
1	67	3	3	2	I	1	0	1372	0	poli_8sides 11_whiteLine3.jpg	MediumLong_e17_cut2_stereo_44KHz.wav
1	68	2	1	0	C	1	1	951	1	poli_8sides 18_whiteLine3.jpg	Medium_e26_stereo_44KHz.wav
1	69	4	4	2	I	2	0	950	1	poli_8sides 6_whiteLine3.jpg	MediumLong_e04_stereo_44KHz.wav
1	70	2	2	1	C	2	1	1192	1	poli_8sides 18_whiteLine3.jpg	MediumLong_b10_cut2_L_stereo_44KHz.wav
1	71	1	2	0	C	2	0	817	0	poli_8sides 7_whiteLine3.jpg	MediumLong_b10_cut2_L_stereo_44KHz.wav
1	72	3	4	2	I	1	0	1065	0	poli_8sides 11_whiteLine3.jpg	MediumLong_e04_stereo_44KHz.wav
1	73	4	4	2	I	2	0	1378	1	poli_8sides 6_whiteLine3.jpg	MediumLong_e04_stereo_44KHz.wav
1	74	2	1	0	C	2	0	1045	0	poli_8sides 18_whiteLine3.jpg	Medium_e26_stereo_44KHz.wav
1	75	3	3	2	I	1	0	1032	0	poli_8sides 11_whiteLine3.jpg	MediumLong_e17_cut2_stereo_44KHz.wav
1	76	1	1	1	C	1	0	734	0	poli_8sides 7_whiteLine3.jpg	Medium_e26_stereo_44KHz.wav
1	77	2	2	1	C	2	1	952	1	poli_8sides 18_whiteLine3.jpg	MediumLong_b10_cut2_L_stereo_44KHz.wav
1	78	4	3	2	I	2	0	940	1	poli_8sides 6_whiteLine3.jpg	MediumLong_e17_cut2_stereo_44KHz.wav
1	79	1	2	0	C	1	1	1216	1	poli_8sides 7_whiteLine3.jpg	MediumLong_b10_cut2_L_stereo_44KHz.wav
1	80	3	4	2	I	1	0	1068	0	poli_8sides 11_whiteLine3.jpg	MediumLong_e04_stereo_44KHz.wav
1	81	4	3	2	I	2	0	808	1	poli_8sides 6_whiteLine3.jpg	MediumLong_e17_cut2_stereo_44KHz.wav
1	82	2	1	0	C	2	0	1266	0	poli_8sides 18_whiteLine3.jpg	Medium_e26_stereo_44KHz.wav
1	83	3	4	2	I	1	0	858	0	poli_8sides 11_whiteLine3.jpg	MediumLong_e04_stereo_44KHz.wav
1	84	1	1	1	C	2	1	815	1	poli_8sides 7_whiteLine3.jpg	Medium_e26_stereo_44KHz.wav
1	85	4	4	2	I	1	0	1073	0	poli_8sides 6_whiteLine3.jpg	MediumLong_e04_stereo_44KHz.wav
1	86	3	3	2	I	2	0	846	1	poli_8sides 11_whiteLine3.jpg	MediumLong_e17_cut2_stereo_44KHz.wav
1	87	1	2	0	C	2	0	920	0	poli_8sides 7_whiteLine3.jpg	MediumLong_b10_cut2_L_stereo_44KHz.wav
1	88	2	2	1	C	2	1	1076	1	poli_8sides 18_whiteLine3.jpg	MediumLong_b10_cut2_L_stereo_44KHz.wav
1	89	3	3	2	I	2	0	856	1	poli_8sides 11_whiteLine3.jpg	MediumLong_e17_cut2_stereo_44KHz.wav
1	90	1	2	0	C	2	0	858	0	poli_8sides 7_whiteLine3.jpg	MediumLong_b10_cut2_L_stereo_44KHz.wav
1	91	4	3	2	I	2	0	1260	0	poli_8sides 6_whiteLine3.jpg	MediumLong_e17_cut2_stereo_44KHz.wav
1	92	2	2	1	C	2	1	1320	1	poli_8sides 18_whiteLine3.jpg	MediumLong_b10_cut2_L_stereo_44KHz.wav
1	93	1	1	1	C	2	1	1047	1	poli_8sides 7_whiteLine3.jpg	Medium_e26_stereo_44KHz.wav
1	94	2	1	0	C	2	0	798	0	poli_8sides 18_whiteLine3.jpg	Medium_e26_stereo_44KHz.wav
1	95	3	4	2	I	0	0	0	0	poli_8sides 11_whiteLine3.jpg	MediumLong_e04_stereo_44KHz.wav
1	96	4	4	2	I	1	0	871	0	poli_8sides 6_whiteLine3.jpg	MediumLong_e04_stereo_44KHz.wav
1	97	1	2	0	C	2	0	1007	0	poli_8sides 7_whiteLine3.jpg	MediumLong_b10_cut2_L_stereo_44KHz.wav
1	98	2	2	1	C	2	1	1244	1	poli_8sides 18_whiteLine3.jpg	MediumLong_b10_cut2_L_stereo_44KHz.wav
1	99	4	3	2	I	1	0	963	0	poli_8sides 6_whiteLine3.jpg	MediumLong_e17_cut2_stereo_44KHz.wav
1	100	3	4	2	I	1	0	1144	0	poli_8sides 11_whiteLine3.jpg	MediumLong_e04_stereo_44KHz.wav
1	101	1	1	1	C	2	1	1033	1	poli_8sides 7_whiteLine3.jpg	Medium_e26_stereo_44KHz.wav
1	102	2	1	0	C	2	0	785	0	poli_8sides 18_whiteLine3.jpg	Medium_e26_stereo_44KHz.wav
1	103	4	4	2	I	2	0	853	0	poli_8sides 6_whiteLine3.jpg	MediumLong_e04_stereo_44KHz.wav
1	104	3	3	2	I	2	0	960	1	poli_8sides 11_whiteLine3.jpg	MediumLong_e17_cut2_stereo_44KHz.wav
1	105	1	2	0	C	2	0	1256	0	poli_8sides 7_whiteLine3.jpg	MediumLong_b10_cut2_L_stereo_44KHz.wav
1	106	4	3	2	I	2	0	978	0	poli_8sides 6_whiteLine3.jpg	MediumLong_e17_cut2_stereo_44KHz.wav
1	107	3	3	2	I	1	0	977	0	poli_8sides 11_whiteLine3.jpg	MediumLong_e17_cut2_stereo_44KHz.wav
1	108	2	2	1	C	2	1	836	1	poli_8sides 18_whiteLine3.jpg	MediumLong_b10_cut2_L_stereo_44KHz.wav
1	109	1	1	1	C	2	1	594	1	poli_8sides 7_whiteLine3.jpg	Medium_e26_stereo_44KHz.wav
1	110	4	4	2	I	1	0	917	1	poli_8sides 6_whiteLine3.jpg	MediumLong_e04_stereo_44KHz.wav
1	111	2	1	0	C	2	0	836	0	poli_8sides 18_whiteLine3.jpg	Medium_e26_stereo_44KHz.wav
1	112	3	4	2	I	2	0	1050	1	poli_8sides 11_whiteLine3.jpg	MediumLong_e04_stereo_44KHz.wav
1	113	4	4	2	I	1	0	1113	0	poli_8sides 6_whiteLine3.jpg	MediumLong_e04_stereo_44KHz.wav
1	114	2	1	0	C	1	1	1435	1	poli_8sides 18_whiteLine3.jpg	Medium_e26_stereo_44KHz.wav
1	115	3	4	2	I	1	0	1110	1	poli_8sides 11_whiteLine3.jpg	MediumLong_e04_stereo_44KHz.wav
1	116	1	1	1	C	2	1	683	1	poli_8sides 7_whiteLine3.jpg	Medium_e26_stereo_44KHz.wav
1	117	4	3	2	I	2	0	1022	1	poli_8sides 6_whiteLine3.jpg	MediumLong_e17_cut2_stereo_44KHz.wav
1	118	1	2	0	C	1	1	1281	1	poli_8sides 7_whiteLine3.jpg	MediumLong_b10_cut2_L_stereo_44KHz.wav
1	119	3	3	2	I	2	0	1078	1	poli_8sides 11_whiteLine3.jpg	MediumLong_e17_cut2_stereo_44KHz.wav
1	120	2	2	1	C	1	0	760	0	poli_8sides 18_whiteLine3.jpg	MediumLong_b10_cut2_L_stereo_44KHz.wav
1	121	3	4	2	I	2	0	1157	0	poli_8sides 11_whiteLine3.jpg	MediumLong_e04_stereo_44KHz.wav
1	122	4	4	2	I	1	0	1081	0	poli_8sides 6_whiteLine3.jpg	MediumLong_e04_stereo_44KHz.wav
1	123	1	1	1	C	1	0	1000	0	poli_8sides 7_whiteLine3.jpg	Medium_e26_stereo_44KHz.wav
1	124	2	1	0	C	1	1	972	1	poli_8sides 18_whiteLine3.jpg	Medium_e26_stereo_44KHz.wav
1	125	3	3	2	I	2	0	1479	1	poli_8sides 11_whiteLine3.jpg	MediumLong_e17_cut2_stereo_44KHz.wav
1	126	1	2	0	C	1	1	1615	1	poli_8sides 7_whiteLine3.jpg	MediumLong_b10_cut2_L_stereo_44KHz.wav
1	127	2	2	1	C	2	1	1005	1	poli_8sides 18_whiteLine3.jpg	MediumLong_b10_cut2_L_stereo_44KHz.wav
1	128	4	3	2	I	2	0	1233	1	poli_8sides 6_whiteLine3.jpg	MediumLong_e17_cut2_stereo_44KHz.wav
1	129	3	3	2	I	2	0	1323	1	poli_8sides 11_whiteLine3.jpg	MediumLong_e17_cut2_stereo_44KHz.wav
1	130	4	4	2	I	2	0	1117	0	poli_8sides 6_whiteLine3.jpg	MediumLong_e04_stereo_44KHz.wav
1	131	2	1	0	C	2	0	848	0	poli_8sides 18_whiteLine3.jpg	Medium_e26_stereo_44KHz.wav
1	132	1	1	1	C	2	1	808	1	poli_8sides 7_whiteLine3.jpg	Medium_e26_stereo_44KHz.wav
1	133	2	2	1	C	2	1	924	1	poli_8sides 18_whiteLine3.jpg	MediumLong_b10_cut2_L_stereo_44KHz.wav
1	134	3	4	2	I	2	0	1050	1	poli_8sides 11_whiteLine3.jpg	MediumLong_e04_stereo_44KHz.wav
1	135	1	2	0	C	1	1	873	1	poli_8sides 7_whiteLine3.jpg	MediumLong_b10_cut2_L_stereo_44KHz.wav
1	136	4	3	2	I	1	0	1478	0	poli_8sides 6_whiteLine3.jpg	MediumLong_e17_cut2_stereo_44KHz.wav
1	137	1	1	1	C	2	1	1197	1	poli_8sides 7_whiteLine3.jpg	Medium_e26_stereo_44KHz.wav
1	138	2	1	0	C	2	0	839	0	poli_8sides 18_whiteLine3.jpg	Medium_e26_stereo_44KHz.wav
1	139	3	4	2	I	2	0	881	1	poli_8sides 11_whiteLine3.jpg	MediumLong_e04_stereo_44KHz.wav
1	140	4	4	2	I	1	0	867	1	poli_8sides 6_whiteLine3.jpg	MediumLong_e04_stereo_44KHz.wav
1	141	1	2	0	C	1	1	1225	1	poli_8sides 7_whiteLine3.jpg	MediumLong_b10_cut2_L_stereo_44KHz.wav
1	142	2	2	1	C	2	1	901	1	poli_8sides 18_whiteLine3.jpg	MediumLong_b10_cut2_L_stereo_44KHz.wav
1	143	3	3	2	I	1	0	1468	1	poli_8sides 11_whiteLine3.jpg	MediumLong_e17_cut2_stereo_44KHz.wav
1	144	4	3	2	I	2	0	942	0	poli_8sides 6_whiteLine3.jpg	MediumLong_e17_cut2_stereo_44KHz.wav
1	145	3	3	2	I	2	0	1747	1	poli_8sides 11_whiteLine3.jpg	MediumLong_e17_cut2_stereo_44KHz.wav
1	146	4	3	2	I	2	0	980	0	poli_8sides 6_whiteLine3.jpg	MediumLong_e17_cut2_stereo_44KHz.wav
1	147	2	2	1	C	2	1	967	1	poli_8sides 18_whiteLine3.jpg	MediumLong_b10_cut2_L_stereo_44KHz.wav
1	148	1	2	0	C	1	1	855	1	poli_8sides 7_whiteLine3.jpg	MediumLong_b10_cut2_L_stereo_44KHz.wav
1	149	2	1	0	C	2	0	662	0	poli_8sides 18_whiteLine3.jpg	Medium_e26_stereo_44KHz.wav
1	150	3	4	2	I	1	0	750	0	poli_8sides 11_whiteLine3.jpg	MediumLong_e04_stereo_44KHz.wav
1	151	1	1	1	C	1	0	588	0	poli_8sides 7_whiteLine3.jpg	Medium_e26_stereo_44KHz.wav
1	152	4	4	2	I	1	0	920	0	poli_8sides 6_whiteLine3.jpg	MediumLong_e04_stereo_44KHz.wav
1	153	2	1	0	C	2	0	606	0	poli_8sides 18_whiteLine3.jpg	Medium_e26_stereo_44KHz.wav
1	154	4	3	2	I	1	0	1386	0	poli_8sides 6_whiteLine3.jpg	MediumLong_e17_cut2_stereo_44KHz.wav
1	155	1	1	1	C	1	0	774	0	poli_8sides 7_whiteLine3.jpg	Medium_e26_stereo_44KHz.wav
1	156	3	3	2	I	1	0	969	0	poli_8sides 11_whiteLine3.jpg	MediumLong_e17_cut2_stereo_44KHz.wav
1	157	1	2	0	C	1	1	768	1	poli_8sides 7_whiteLine3.jpg	MediumLong_b10_cut2_L_stereo_44KHz.wav
1	158	4	4	2	I	2	0	857	1	poli_8sides 6_whiteLine3.jpg	MediumLong_e04_stereo_44KHz.wav
1	159	3	4	2	I	2	0	829	1	poli_8sides 11_whiteLine3.jpg	MediumLong_e04_stereo_44KHz.wav
1	160	2	2	1	C	2	1	733	1	poli_8sides 18_whiteLine3.jpg	MediumLong_b10_cut2_L_stereo_44KHz.wav
1	161	3	3	2	I	2	0	898	0	poli_8sides 11_whiteLine3.jpg	MediumLong_e17_cut2_stereo_44KHz.wav
1	162	2	1	0	C	2	0	591	0	poli_8sides 18_whiteLine3.jpg	Medium_e26_stereo_44KHz.wav
1	163	4	4	2	I	1	0	854	0	poli_8sides 6_whiteLine3.jpg	MediumLong_e04_stereo_44KHz.wav
1	164	1	2	0	C	1	1	838	1	poli_8sides 7_whiteLine3.jpg	MediumLong_b10_cut2_L_stereo_44KHz.wav
1	165	3	4	2	I	1	0	758	0	poli_8sides 11_whiteLine3.jpg	MediumLong_e04_stereo_44KHz.wav
1	166	2	2	1	C	1	0	770	0	poli_8sides 18_whiteLine3.jpg	MediumLong_b10_cut2_L_stereo_44KHz.wav
1	167	1	1	1	C	2	1	807	1	poli_8sides 7_whiteLine3.jpg	Medium_e26_stereo_44KHz.wav
1	168	4	3	2	I	2	0	780	0	poli_8sides 6_whiteLine3.jpg	MediumLong_e17_cut2_stereo_44KHz.wav
1	169	1	2	0	C	1	1	955	1	poli_8sides 7_whiteLine3.jpg	MediumLong_b10_cut2_L_stereo_44KHz.wav
1	170	4	3	2	I	1	0	1620	1	poli_8sides 6_whiteLine3.jpg	MediumLong_e17_cut2_stereo_44KHz.wav
1	171	3	3	2	I	2	0	738	1	poli_8sides 11_whiteLine3.jpg	MediumLong_e17_cut2_stereo_44KHz.wav
1	172	2	1	0	C	2	0	804	0	poli_8sides 18_whiteLine3.jpg	Medium_e26_stereo_44KHz.wav
1	173	1	1	1	C	2	1	1002	1	poli_8sides 7_whiteLine3.jpg	Medium_e26_stereo_44KHz.wav
1	174	2	2	1	C	2	1	644	1	poli_8sides 18_whiteLine3.jpg	MediumLong_b10_cut2_L_stereo_44KHz.wav
1	175	4	4	2	I	2	0	1330	1	poli_8sides 6_whiteLine3.jpg	MediumLong_e04_stereo_44KHz.wav
1	176	3	4	2	I	2	0	799	1	poli_8sides 11_whiteLine3.jpg	MediumLong_e04_stereo_44KHz.wav
1	177	2	1	0	C	2	0	679	0	poli_8sides 18_whiteLine3.jpg	Medium_e26_stereo_44KHz.wav
1	178	4	4	2	I	2	0	1069	1	poli_8sides 6_whiteLine3.jpg	MediumLong_e04_stereo_44KHz.wav
1	179	1	1	1	C	2	1	614	1	poli_8sides 7_whiteLine3.jpg	Medium_e26_stereo_44KHz.wav
1	180	3	3	2	I	2	0	852	1	poli_8sides 11_whiteLine3.jpg	MediumLong_e17_cut2_stereo_44KHz.wav
1	181	4	3	2	I	2	0	606	1	poli_8sides 6_whiteLine3.jpg	MediumLong_e17_cut2_stereo_44KHz.wav
1	182	1	2	0	C	1	1	872	1	poli_8sides 7_whiteLine3.jpg	MediumLong_b10_cut2_L_stereo_44KHz.wav
1	183	3	4	2	I	2	0	664	1	poli_8sides 11_whiteLine3.jpg	MediumLong_e04_stereo_44KHz.wav
1	184	2	2	1	C	2	1	625	1	poli_8sides 18_whiteLine3.jpg	MediumLong_b10_cut2_L_stereo_44KHz.wav
1	185	4	4	2	I	2	0	512	0	poli_8sides 6_whiteLine3.jpg	MediumLong_e04_stereo_44KHz.wav
1	186	3	4	2	I	2	0	482	1	poli_8sides 11_whiteLine3.jpg	MediumLong_e04_stereo_44KHz.wav
1	187	2	2	1	C	2	1	631	1	poli_8sides 18_whiteLine3.jpg	MediumLong_b10_cut2_L_stereo_44KHz.wav
1	188	1	2	0	C	1	1	1076	1	poli_8sides 7_whiteLine3.jpg	MediumLong_b10_cut2_L_stereo_44KHz.wav
1	189	2	1	0	C	2	0	639	0	poli_8sides 18_whiteLine3.jpg	Medium_e26_stereo_44KHz.wav
1	190	4	3	2	I	2	0	608	1	poli_8sides 6_whiteLine3.jpg	MediumLong_e17_cut2_stereo_44KHz.wav
1	191	3	3	2	I	2	0	635	0	poli_8sides 11_whiteLine3.jpg	MediumLong_e17_cut2_stereo_44KHz.wav
1	192	1	1	1	C	2	1	817	1	poli_8sides 7_whiteLine3.jpg	Medium_e26_stereo_44KHz.wav
1	193	4	4	2	I	2	0	712	0	poli_8sides 6_whiteLine3.jpg	MediumLong_e04_stereo_44KHz.wav
1	194	1	2	0	C	1	1	993	1	poli_8sides 7_whiteLine3.jpg	MediumLong_b10_cut2_L_stereo_44KHz.wav
1	195	3	3	2	I	2	0	768	0	poli_8sides 11_whiteLine3.jpg	MediumLong_e17_cut2_stereo_44KHz.wav
1	196	2	1	0	C	2	0	760	0	poli_8sides 18_whiteLine3.jpg	Medium_e26_stereo_44KHz.wav
1	197	4	3	2	I	2	0	632	1	poli_8sides 6_whiteLine3.jpg	MediumLong_e17_cut2_stereo_44KHz.wav
1	198	1	1	1	C	2	1	850	1	poli_8sides 7_whiteLine3.jpg	Medium_e26_stereo_44KHz.wav
1	199	3	4	2	I	2	0	698	0	poli_8sides 11_whiteLine3.jpg	MediumLong_e04_stereo_44KHz.wav
1	200	2	2	1	C	2	1	1230	1	poli_8sides 18_whiteLine3.jpg	MediumLong_b10_cut2_L_stereo_44KHz.wav
2	1	1	2	0	C	2	0	923	0	poli_8sides 4_whiteLine3.jpg	Short_b09_cut1_stereo_44KHz.wav
2	2	3	4	2	I	2	0	610	1	poli_8sides 10_whiteLine3.jpg	Short_b23_cut1_stereo_44KHz.wav
2	3	4	4	2	I	2	0	582	1	poli_8sides 2_whiteLine3.jpg	Short_b23_cut1_stereo_44KHz.wav
2	4	2	2	1	C	2	1	475	1	poli_8sides 15_whiteLine3.jpg	Short_b09_cut1_stereo_44KHz.wav
2	5	1	1	1	C	2	1	341	1	poli_8sides 4_whiteLine3.jpg	Short_b20_cut1_stereo_44KHz.wav
2	6	4	3	2	I	2	0	426	1	poli_8sides 2_whiteLine3.jpg	Short_b22_cut1_stereo_44KHz.wav
2	7	3	3	2	I	2	0	498	0	poli_8sides 10_whiteLine3.jpg	Short_b22_cut1_stereo_44KHz.wav
2	8	2	1	0	C	2	0	685	0	poli_8sides 15_whiteLine3.jpg	Short_b20_cut1_stereo_44KHz.wav
2	9	3	4	2	I	2	0	626	0	poli_8sides 10_whiteLine3.jpg	Short_b23_cut1_stereo_44KHz.wav
2	10	4	4	2	I	1	0	972	1	poli_8sides 2_whiteLine3.jpg	Short_b23_cut1_stereo_44KHz.wav
2	11	2	1	0	C	1	1	695	1	poli_8sides 15_whiteLine3.jpg	Short_b20_cut1_stereo_44KHz.wav
2	12	1	1	1	C	1	0	429	0	poli_8sides 4_whiteLine3.jpg	Short_b20_cut1_stereo_44KHz.wav
2	13	4	3	2	I	2	0	677	1	poli_8sides 2_whiteLine3.jpg	Short_b22_cut1_stereo_44KHz.wav
2	14	3	3	2	I	1	0	590	1	poli_8sides 10_whiteLine3.jpg	Short_b22_cut1_stereo_44KHz.wav
2	15	1	2	0	C	1	1	655	1	poli_8sides 4_whiteLine3.jpg	Short_b09_cut1_stereo_44KHz.wav
2	16	2	2	1	C	1	0	594	0	poli_8sides 15_whiteLine3.jpg	Short_b09_cut1_stereo_44KHz.wav
2	17	1	1	1	C	1	0	549	0	poli_8sides 4_whiteLine3.jpg	Short_b20_cut1_stereo_44KHz.wav
2	18	4	4	2	I	2	0	393	0	poli_8sides 2_whiteLine3.jpg	Short_b23_cut1_stereo_44KHz.wav
2	19	2	1	0	C	1	1	754	1	poli_8sides 15_whiteLine3.jpg	Short_b20_cut1_stereo_44KHz.wav
2	20	3	3	2	I	2	0	578	0	poli_8sides 10_whiteLine3.jpg	Short_b22_cut1_stereo_44KHz.wav
2	21	4	3	2	I	2	0	566	0	poli_8sides 2_whiteLine3.jpg	Short_b22_cut1_stereo_44KHz.wav
2	22	2	2	1	C	1	0	893	0	poli_8sides 15_whiteLine3.jpg	Short_b09_cut1_stereo_44KHz.wav
2	23	3	4	2	I	2	0	898	1	poli_8sides 10_whiteLine3.jpg	Short_b23_cut1_stereo_44KHz.wav
2	24	1	2	0	C	1	1	1031	1	poli_8sides 4_whiteLine3.jpg	Short_b09_cut1_stereo_44KHz.wav
2	25	2	2	1	C	1	0	724	0	poli_8sides 15_whiteLine3.jpg	Short_b09_cut1_stereo_44KHz.wav
2	26	4	3	2	I	2	0	700	1	poli_8sides 2_whiteLine3.jpg	Short_b22_cut1_stereo_44KHz.wav
2	27	3	3	2	I	2	0	649	0	poli_8sides 10_whiteLine3.jpg	Short_b22_cut1_stereo_44KHz.wav
2	28	1	2	0	C	2	0	448	0	poli_8sides 4_whiteLine3.jpg	Short_b09_cut1_stereo_44KHz.wav
2	29	3	4	2	I	2	0	513	0	poli_8sides 10_whiteLine3.jpg	Short_b23_cut1_stereo_44KHz.wav
2	30	4	4	2	I	1	0	875	0	poli_8sides 2_whiteLine3.jpg	Short_b23_cut1_stereo_44KHz.wav
2	31	1	1	1	C	1	0	618	0	poli_8sides 4_whiteLine3.jpg	Short_b20_cut1_stereo_44KHz.wav
2	32	2	1	0	C	1	1	598	1	poli_8sides 15_whiteLine3.jpg	Short_b20_cut1_stereo_44KHz.wav
2	33	4	4	2	I	2	0	517	1	poli_8sides 2_whiteLine3.jpg	Short_b23_cut1_stereo_44KHz.wav
2	34	3	3	2	I	2	0	551	1	poli_8sides 10_whiteLine3.jpg	Short_b22_cut1_stereo_44KHz.wav
2	35	2	1	0	C	2	0	530	0	poli_8sides 15_whiteLine3.jpg	Short_b20_cut1_stereo_44KHz.wav
2	36	1	2	0	C	1	1	574	1	poli_8sides 4_whiteLine3.jpg	Short_b09_cut1_stereo_44KHz.wav
2	37	3	4	2	I	1	0	660	0	poli_8sides 10_whiteLine3.jpg	Short_b23_cut1_stereo_44KHz.wav
2	38	1	1	1	C	1	0	584	0	poli_8sides 4_whiteLine3.jpg	Short_b20_cut1_stereo_44KHz.wav
2	39	4	3	2	I	2	0	842	1	poli_8sides 2_whiteLine3.jpg	Short_b22_cut1_stereo_44KHz.wav
2	40	2	2	1	C	2	1	730	1	poli_8sides 15_whiteLine3.jpg	Short_b09_cut1_stereo_44KHz.wav
2	41	3	3	2	I	2	0	639	0	poli_8sides 10_whiteLine3.jpg	Short_b22_cut1_stereo_44KHz.wav
2	42	4	4	2	I	1	0	954	0	poli_8sides 2_whiteLine3.jpg	Short_b23_cut1_stereo_44KHz.wav
2	43	2	1	0	C	1	1	721	1	poli_8sides 15_whiteLine3.jpg	Short_b20_cut1_stereo_44KHz.wav
2	44	1	1	1	C	1	0	599	0	poli_8sides 4_whiteLine3.jpg	Short_b20_cut1_stereo_44KHz.wav
2	45	3	4	2	I	2	0	610	1	poli_8sides 10_whiteLine3.jpg	Short_b23_cut1_stereo_44KHz.wav
2	46	1	2	0	C	1	1	820	1	poli_8sides 4_whiteLine3.jpg	Short_b09_cut1_stereo_44KHz.wav
2	47	2	2	1	C	1	0	512	0	poli_8sides 15_whiteLine3.jpg	Short_b09_cut1_stereo_44KHz.wav
2	48	4	3	2	I	2	0	684	1	poli_8sides 2_whiteLine3.jpg	Short_b22_cut1_stereo_44KHz.wav
2	49	1	2	0	C	2	0	382	0	poli_8sides 4_whiteLine3.jpg	Short_b09_cut1_stereo_44KHz.wav
2	50	2	1	0	C	2	0	609	0	poli_8sides 15_whiteLine3.jpg	Short_b20_cut1_stereo_44KHz.wav
2	51	4	4	2	I	1	0	854	1	poli_8sides 2_whiteLine3.jpg	Short_b23_cut1_stereo_44KHz.wav
2	52	3	3	2	I	2	0	559	1	poli_8sides 10_whiteLine3.jpg	Short_b22_cut1_stereo_44KHz.wav
2	53	2	2	1	C	1	0	414	0	poli_8sides 15_whiteLine3.jpg	Short_b09_cut1_stereo_44KHz.wav
2	54	3	4	2	I	2	0	760	1	poli_8sides 10_whiteLine3.jpg	Short_b23_cut1_stereo_44KHz.wav
2	55	4	3	2	I	1	0	729	0	poli_8sides 2_whiteLine3.jpg	Short_b22_cut1_stereo_44KHz.wav
2	56	1	1	1	C	1	0	723	0	poli_8sides 4_whiteLine3.jpg	Short_b20_cut1_stereo_44KHz.wav
2	57	2	1	0	C	2	0	693	0	poli_8sides 15_whiteLine3.jpg	Short_b20_cut1_stereo_44KHz.wav
2	58	4	3	2	I	1	0	851	0	poli_8sides 2_whiteLine3.jpg	Short_b22_cut1_stereo_44KHz.wav
2	59	3	3	2	I	2	0	553	0	poli_8sides 10_whiteLine3.jpg	Short_b22_cut1_stereo_44KHz.wav
2	60	1	2	0	C	0	0	0	0	poli_8sides 4_whiteLine3.jpg	Short_b09_cut1_stereo_44KHz.wav
2	61	4	4	2	I	2	0	628	0	poli_8sides 2_whiteLine3.jpg	Short_b23_cut1_stereo_44KHz.wav
2	62	2	2	1	C	2	1	550	1	poli_8sides 15_whiteLine3.jpg	Short_b09_cut1_stereo_44KHz.wav
2	63	3	4	2	I	2	0	509	1	poli_8sides 10_whiteLine3.jpg	Short_b23_cut1_stereo_44KHz.wav
2	64	1	1	1	C	2	1	358	1	poli_8sides 4_whiteLine3.jpg	Short_b20_cut1_stereo_44KHz.wav
2	65	3	4	2	I	2	0	511	1	poli_8sides 10_whiteLine3.jpg	Short_b23_cut1_stereo_44KHz.wav
2	66	2	2	1	C	2	1	534	1	poli_8sides 15_whiteLine3.jpg	Short_b09_cut1_stereo_44KHz.wav
2	67	1	1	1	C	2	1	610	1	poli_8sides 4_whiteLine3.jpg	Short_b20_cut1_stereo_44KHz.wav
2	68	4	3	2	I	2	0	511	0	poli_8sides 2_whiteLine3.jpg	Short_b22_cut1_stereo_44KHz.wav
2	69	3	3	2	I	1	0	472	1	poli_8sides 10_whiteLine3.jpg	Short_b22_cut1_stereo_44KHz.wav
2	70	2	1	0	C	2	0	548	0	poli_8sides 15_whiteLine3.jpg	Short_b20_cut1_stereo_44KHz.wav
2	71	1	2	0	C	1	1	500	1	poli_8sides 4_whiteLine3.jpg	Short_b09_cut1_stereo_44KHz.wav
2	72	4	4	2	I	2	0	655	0	poli_8sides 2_whiteLine3.jpg	Short_b23_cut1_stereo_44KHz.wav
2	73	1	1	1	C	1	0	580	0	poli_8sides 4_whiteLine3.jpg	Short_b20_cut1_stereo_44KHz.wav
2	74	3	3	2	I	1	0	674	1	poli_8sides 10_whiteLine3.jpg	Short_b22_cut1_stereo_44KHz.wav
2	75	2	1	0	C	2	0	546	0	poli_8sides 15_whiteLine3.jpg	Short_b20_cut1_stereo_44KHz.wav
2	76	4	3	2	I	2	0	443	1	poli_8sides 2_whiteLine3.jpg	Short_b22_cut1_stereo_44KHz.wav
2	77	1	2	0	C	1	1	466	1	poli_8sides 4_whiteLine3.jpg	Short_b09_cut1_stereo_44KHz.wav
2	78	4	4	2	I	2	0	440	1	poli_8sides 2_whiteLine3.jpg	Short_b23_cut1_stereo_44KHz.wav
2	79	2	2	1	C	1	0	472	0	poli_8sides 15_whiteLine3.jpg	Short_b09_cut1_stereo_44KHz.wav
2	80	3	4	2	I	2	0	1111	1	poli_8sides 10_whiteLine3.jpg	Short_b23_cut1_stereo_44KHz.wav
2	81	1	2	0	C	1	1	574	1	poli_8sides 4_whiteLine3.jpg	Short_b09_cut1_stereo_44KHz.wav
2	82	2	2	1	C	2	1	285	1	poli_8sides 15_whiteLine3.jpg	Short_b09_cut1_stereo_44KHz.wav
2	83	4	4	2	I	2	0	403	0	poli_8sides 2_whiteLine3.jpg	Short_b23_cut1_stereo_44KHz.wav
2	84	3	4	2	I	1	0	746	0	poli_8sides 10_whiteLine3.jpg	Short_b23_cut1_stereo_44KHz.wav
2	85	1	1	1	C	1	0	754	0	poli_8sides 4_whiteLine3.jpg	Short_b20_cut1_stereo_44KHz.wav
2	86	2	1	0	C	1	1	586	1	poli_8sides 15_whiteLine3.jpg	Short_b20_cut1_stereo_44KHz.wav
2	87	4	3	2	I	2	0	542	0	poli_8sides 2_whiteLine3.jpg	Short_b22_cut1_stereo_44KHz.wav
2	88	3	3	2	I	1	0	555	0	poli_8sides 10_whiteLine3.jpg	Short_b22_cut1_stereo_44KHz.wav
2	89	4	3	2	I	1	0	488	0	poli_8sides 2_whiteLine3.jpg	Short_b22_cut1_stereo_44KHz.wav
2	90	1	2	0	C	1	1	507	1	poli_8sides 4_whiteLine3.jpg	Short_b09_cut1_stereo_44KHz.wav
2	91	2	2	1	C	1	0	571	0	poli_8sides 15_whiteLine3.jpg	Short_b09_cut1_stereo_44KHz.wav
2	92	3	3	2	I	2	0	435	0	poli_8sides 10_whiteLine3.jpg	Short_b22_cut1_stereo_44KHz.wav
2	93	4	4	2	I	1	0	688	1	poli_8sides 2_whiteLine3.jpg	Short_b23_cut1_stereo_44KHz.wav
2	94	2	1	0	C	2	0	485	0	poli_8sides 15_whiteLine3.jpg	Short_b20_cut1_stereo_44KHz.wav
2	95	3	4	2	I	2	0	737	0	poli_8sides 10_whiteLine3.jpg	Short_b23_cut1_stereo_44KHz.wav
2	96	1	1	1	C	2	1	560	1	poli_8sides 4_whiteLine3.jpg	Short_b20_cut1_stereo_44KHz.wav
2	97	4	3	2	I	2	0	571	0	poli_8sides 2_whiteLine3.jpg	Short_b22_cut1_stereo_44KHz.wav
2	98	2	2	1	C	1	0	671	0	poli_8sides 15_whiteLine3.jpg	Short_b09_cut1_stereo_44KHz.wav
2	99	3	3	2	I	2	0	506	1	poli_8sides 10_whiteLine3.jpg	Short_b22_cut1_stereo_44KHz.wav
2	100	1	1	1	C	1	0	746	0	poli_8sides 4_whiteLine3.jpg	Short_b20_cut1_stereo_44KHz.wav
2	101	2	1	0	C	2	0	835	0	poli_8sides 15_whiteLine3.jpg	Short_b20_cut1_stereo_44KHz.wav
2	102	1	2	0	C	2	0	542	0	poli_8sides 4_whiteLine3.jpg	Short_b09_cut1_stereo_44KHz.wav
2	103	4	4	2	I	2	0	561	1	poli_8sides 2_whiteLine3.jpg	Short_b23_cut1_stereo_44KHz.wav
2	104	3	4	2	I	1	0	572	0	poli_8sides 10_whiteLine3.jpg	Short_b23_cut1_stereo_44KHz.wav
2	105	2	1	0	C	2	0	555	0	poli_8sides 15_whiteLine3.jpg	Short_b20_cut1_stereo_44KHz.wav
2	106	1	2	0	C	2	0	507	0	poli_8sides 4_whiteLine3.jpg	Short_b09_cut1_stereo_44KHz.wav
2	107	3	3	2	I	2	0	528	0	poli_8sides 10_whiteLine3.jpg	Short_b22_cut1_stereo_44KHz.wav
2	108	4	3	2	I	2	0	508	0	poli_8sides 2_whiteLine3.jpg	Short_b22_cut1_stereo_44KHz.wav
2	109	3	4	2	I	2	0	831	1	poli_8sides 10_whiteLine3.jpg	Short_b23_cut1_stereo_44KHz.wav
2	110	4	4	2	I	2	0	609	0	poli_8sides 2_whiteLine3.jpg	Short_b23_cut1_stereo_44KHz.wav
2	111	2	2	1	C	2	1	591	1	poli_8sides 15_whiteLine3.jpg	Short_b09_cut1_stereo_44KHz.wav
2	112	1	1	1	C	2	1	555	1	poli_8sides 4_whiteLine3.jpg	Short_b20_cut1_stereo_44KHz.wav
2	113	2	2	1	C	2	1	545	1	poli_8sides 15_whiteLine3.jpg	Short_b09_cut1_stereo_44KHz.wav
2	114	1	2	0	C	1	1	816	1	poli_8sides 4_whiteLine3.jpg	Short_b09_cut1_stereo_44KHz.wav
2	115	3	4	2	I	2	0	547	0	poli_8sides 10_whiteLine3.jpg	Short_b23_cut1_stereo_44KHz.wav
2	116	4	4	2	I	1	0	522	0	poli_8sides 2_whiteLine3.jpg	Short_b23_cut1_stereo_44KHz.wav
2	117	3	3	2	I	1	0	512	0	poli_8sides 10_whiteLine3.jpg	Short_b22_cut1_stereo_44KHz.wav
2	118	1	1	1	C	1	0	618	0	poli_8sides 4_whiteLine3.jpg	Short_b20_cut1_stereo_44KHz.wav
2	119	4	3	2	I	2	0	600	1	poli_8sides 2_whiteLine3.jpg	Short_b22_cut1_stereo_44KHz.wav
2	120	2	1	0	C	1	1	706	1	poli_8sides 15_whiteLine3.jpg	Short_b20_cut1_stereo_44KHz.wav
2	121	1	2	0	C	2	0	760	0	poli_8sides 4_whiteLine3.jpg	Short_b09_cut1_stereo_44KHz.wav
2	122	4	3	2	I	2	0	493	0	poli_8sides 2_whiteLine3.jpg	Short_b22_cut1_stereo_44KHz.wav
2	123	3	4	2	I	2	0	423	0	poli_8sides 10_whiteLine3.jpg	Short_b23_cut1_stereo_44KHz.wav
2	124	2	2	1	C	2	1	640	1	poli_8sides 15_whiteLine3.jpg	Short_b09_cut1_stereo_44KHz.wav
2	125	1	1	1	C	2	1	480	1	poli_8sides 4_whiteLine3.jpg	Short_b20_cut1_stereo_44KHz.wav
2	126	3	3	2	I	2	0	505	1	poli_8sides 10_whiteLine3.jpg	Short_b22_cut1_stereo_44KHz.wav
2	127	4	4	2	I	2	0	456	1	poli_8sides 2_whiteLine3.jpg	Short_b23_cut1_stereo_44KHz.wav
2	128	2	1	0	C	2	0	429	0	poli_8sides 15_whiteLine3.jpg	Short_b20_cut1_stereo_44KHz.wav
2	129	1	1	1	C	2	1	448	1	poli_8sides 4_whiteLine3.jpg	Short_b20_cut1_stereo_44KHz.wav
2	130	3	4	2	I	2	0	666	1	poli_8sides 10_whiteLine3.jpg	Short_b23_cut1_stereo_44KHz.wav
2	131	4	3	2	I	2	0	636	1	poli_8sides 2_whiteLine3.jpg	Short_b22_cut1_stereo_44KHz.wav
2	132	2	1	0	C	1	1	1026	1	poli_8sides 15_whiteLine3.jpg	Short_b20_cut1_stereo_44KHz.wav
2	133	4	4	2	I	2	0	567	0	poli_8sides 2_whiteLine3.jpg	Short_b23_cut1_stereo_44KHz.wav
2	134	3	3	2	I	1	0	443	0	poli_8sides 10_whiteLine3.jpg	Short_b22_cut1_stereo_44KHz.wav
2	135	1	2	0	C	2	0	417	0	poli_8sides 4_whiteLine3.jpg	Short_b09_cut1_stereo_44KHz.wav
2	136	2	2	1	C	1	0	679	0	poli_8sides 15_whiteLine3.jpg	Short_b09_cut1_stereo_44KHz.wav
2	137	1	2	0	C	1	1	564	1	poli_8sides 4_whiteLine3.jpg	Short_b09_cut1_stereo_44KHz.wav
2	138	3	4	2	I	2	0	584	0	poli_8sides 10_whiteLine3.jpg	Short_b23_cut1_stereo_44KHz.wav
2	139	2	2	1	C	1	0	833	0	poli_8sides 15_whiteLine3.jpg	Short_b09_cut1_stereo_44KHz.wav
2	140	4	3	2	I	2	0	955	0	poli_8sides 2_whiteLine3.jpg	Short_b22_cut1_stereo_44KHz.wav
2	141	2	1	0	C	2	0	757	0	poli_8sides 15_whiteLine3.jpg	Short_b20_cut1_stereo_44KHz.wav
2	142	1	1	1	C	1	0	564	0	poli_8sides 4_whiteLine3.jpg	Short_b20_cut1_stereo_44KHz.wav
2	143	3	3	2	I	2	0	767	0	poli_8sides 10_whiteLine3.jpg	Short_b22_cut1_stereo_44KHz.wav
2	144	4	4	2	I	1	0	701	0	poli_8sides 2_whiteLine3.jpg	Short_b23_cut1_stereo_44KHz.wav
2	145	1	2	0	C	1	1	307	1	poli_8sides 4_whiteLine3.jpg	Short_b09_cut1_stereo_44KHz.wav
2	146	2	1	0	C	2	0	747	0	poli_8sides 15_whiteLine3.jpg	Short_b20_cut1_stereo_44KHz.wav
2	147	4	4	2	I	1	0	619	0	poli_8sides 2_whiteLine3.jpg	Short_b23_cut1_stereo_44KHz.wav
2	148	3	4	2	I	2	0	809	0	poli_8sides 10_whiteLine3.jpg	Short_b23_cut1_stereo_44KHz.wav
2	149	2	2	1	C	1	0	682	0	poli_8sides 15_whiteLine3.jpg	Short_b09_cut1_stereo_44KHz.wav
2	150	4	3	2	I	1	0	551	1	poli_8sides 2_whiteLine3.jpg	Short_b22_cut1_stereo_44KHz.wav
2	151	1	1	1	C	1	0	601	0	poli_8sides 4_whiteLine3.jpg	Short_b20_cut1_stereo_44KHz.wav
2	152	3	3	2	I	2	0	832	0	poli_8sides 10_whiteLine3.jpg	Short_b22_cut1_stereo_44KHz.wav
2	153	4	4	2	I	1	0	482	0	poli_8sides 2_whiteLine3.jpg	Short_b23_cut1_stereo_44KHz.wav
2	154	2	2	1	C	1	0	632	0	poli_8sides 15_whiteLine3.jpg	Short_b09_cut1_stereo_44KHz.wav
2	155	3	3	2	I	1	0	450	1	poli_8sides 10_whiteLine3.jpg	Short_b22_cut1_stereo_44KHz.wav
2	156	1	1	1	C	1	0	539	0	poli_8sides 4_whiteLine3.jpg	Short_b20_cut1_stereo_44KHz.wav
2	157	3	4	2	I	1	0	432	1	poli_8sides 10_whiteLine3.jpg	Short_b23_cut1_stereo_44KHz.wav
2	158	2	1	0	C	1	1	377	1	poli_8sides 15_whiteLine3.jpg	Short_b20_cut1_stereo_44KHz.wav
2	159	4	3	2	I	1	0	578	1	poli_8sides 2_whiteLine3.jpg	Short_b22_cut1_stereo_44KHz.wav
2	160	1	2	0	C	1	1	589	1	poli_8sides 4_whiteLine3.jpg	Short_b09_cut1_stereo_44KHz.wav
2	161	2	1	0	C	1	1	640	1	poli_8sides 15_whiteLine3.jpg	Short_b20_cut1_stereo_44KHz.wav
2	162	3	3	2	I	1	0	701	1	poli_8sides 10_whiteLine3.jpg	Short_b22_cut1_stereo_44KHz.wav
2	163	1	2	0	C	1	1	888	1	poli_8sides 4_whiteLine3.jpg	Short_b09_cut1_stereo_44KHz.wav
2	164	4	4	2	I	1	0	590	1	poli_8sides 2_whiteLine3.jpg	Short_b23_cut1_stereo_44KHz.wav
2	165	1	1	1	C	1	0	594	0	poli_8sides 4_whiteLine3.jpg	Short_b20_cut1_stereo_44KHz.wav
2	166	4	3	2	I	1	0	464	0	poli_8sides 2_whiteLine3.jpg	Short_b22_cut1_stereo_44KHz.wav
2	167	3	4	2	I	1	0	451	1	poli_8sides 10_whiteLine3.jpg	Short_b23_cut1_stereo_44KHz.wav
2	168	2	2	1	C	1	0	638	0	poli_8sides 15_whiteLine3.jpg	Short_b09_cut1_stereo_44KHz.wav
2	169	4	4	2	I	1	0	586	1	poli_8sides 2_whiteLine3.jpg	Short_b23_cut1_stereo_44KHz.wav
2	170	2	2	1	C	1	0	597	0	poli_8sides 15_whiteLine3.jpg	Short_b09_cut1_stereo_44KHz.wav
2	171	3	4	2	I	1	0	1066	0	poli_8sides 10_whiteLine3.jpg	Short_b23_cut1_stereo_44KHz.wav
2	172	1	1	1	C	1	0	895	0	poli_8sides 4_whiteLine3.jpg	Short_b20_cut1_stereo_44KHz.wav
2	173	4	3	2	I	1	0	684	1	poli_8sides 2_whiteLine3.jpg	Short_b22_cut1_stereo_44KHz.wav
2	174	1	2	0	C	1	1	947	1	poli_8sides 4_whiteLine3.jpg	Short_b09_cut1_stereo_44KHz.wav
2	175	3	3	2	I	1	0	443	1	poli_8sides 10_whiteLine3.jpg	Short_b22_cut1_stereo_44KHz.wav
2	176	2	1	0	C	1	1	424	1	poli_8sides 15_whiteLine3.jpg	Short_b20_cut1_stereo_44KHz.wav
2	177	4	4	2	I	1	0	619	0	poli_8sides 2_whiteLine3.jpg	Short_b23_cut1_stereo_44KHz.wav
2	178	2	2	1	C	1	0	545	0	poli_8sides 15_whiteLine3.jpg	Short_b09_cut1_stereo_44KHz.wav
2	179	1	1	1	C	2	1	497	1	poli_8sides 4_whiteLine3.jpg	Short_b20_cut1_stereo_44KHz.wav
2	180	3	3	2	I	2	0	553	0	poli_8sides 10_whiteLine3.jpg	Short_b22_cut1_stereo_44KHz.wav
2	181	4	3	2	I	2	0	676	1	poli_8sides 2_whiteLine3.jpg	Short_b22_cut1_stereo_44KHz.wav
2	182	1	2	0	C	1	1	471	1	poli_8sides 4_whiteLine3.jpg	Short_b09_cut1_stereo_44KHz.wav
2	183	2	1	0	C	1	1	539	1	poli_8sides 15_whiteLine3.jpg	Short_b20_cut1_stereo_44KHz.wav
2	184	3	4	2	I	1	0	383	0	poli_8sides 10_whiteLine3.jpg	Short_b23_cut1_stereo_44KHz.wav
2	185	1	2	0	C	1	1	429	1	poli_8sides 4_whiteLine3.jpg	Short_b09_cut1_stereo_44KHz.wav
2	186	3	4	2	I	1	0	440	1	poli_8sides 10_whiteLine3.jpg	Short_b23_cut1_stereo_44KHz.wav
2	187	2	1	0	C	2	0	549	0	poli_8sides 15_whiteLine3.jpg	Short_b20_cut1_stereo_44KHz.wav
2	188	4	4	2	I	1	0	483	0	poli_8sides 2_whiteLine3.jpg	Short_b23_cut1_stereo_44KHz.wav
2	189	3	3	2	I	1	0	348	1	poli_8sides 10_whiteLine3.jpg	Short_b22_cut1_stereo_44KHz.wav
2	190	1	1	1	C	1	0	708	0	poli_8sides 4_whiteLine3.jpg	Short_b20_cut1_stereo_44KHz.wav
2	191	2	2	1	C	1	0	518	0	poli_8sides 15_whiteLine3.jpg	Short_b09_cut1_stereo_44KHz.wav
2	192	4	3	2	I	1	0	551	1	poli_8sides 2_whiteLine3.jpg	Short_b22_cut1_stereo_44KHz.wav
2	193	3	4	2	I	1	0	514	1	poli_8sides 10_whiteLine3.jpg	Short_b23_cut1_stereo_44KHz.wav
2	194	2	1	0	C	1	1	537	1	poli_8sides 15_whiteLine3.jpg	Short_b20_cut1_stereo_44KHz.wav
2	195	4	3	2	I	1	0	740	1	poli_8sides 2_whiteLine3.jpg	Short_b22_cut1_stereo_44KHz.wav
2	196	1	2	0	C	1	1	469	1	poli_8sides 4_whiteLine3.jpg	Short_b09_cut1_stereo_44KHz.wav
2	197	3	3	2	I	1	0	445	1	poli_8sides 10_whiteLine3.jpg	Short_b22_cut1_stereo_44KHz.wav
2	198	4	4	2	I	1	0	534	1	poli_8sides 2_whiteLine3.jpg	Short_b23_cut1_stereo_44KHz.wav
2	199	1	1	1	C	1	0	694	0	poli_8sides 4_whiteLine3.jpg	Short_b20_cut1_stereo_44KHz.wav
2	200	2	2	1	C	1	0	680	0	poli_8sides 15_whiteLine3.jpg	Short_b09_cut1_stereo_44KHz.wav
3	1	3	4	2	I	2	0	1272	1	poli_8sides 3_whiteLine3.jpg	MediumShort_b10_cut1_MS_stereo_44KHz.wav
3	2	2	2	1	C	2	1	893	1	poli_8sides 8_whiteLine3.jpg	MediumShort_b16_cut3_MS_stereo_44KHz.wav
3	3	1	1	1	C	2	1	699	1	poli_8sides 5_whiteLine3.jpg	MediumShort_e16_cut1_stereo_44KHz.wav
3	4	4	3	2	I	2	0	676	0	poli_8sides 9_whiteLine3.jpg	MediumShort_e22_cut1_stereo_44KHz.wav
3	5	3	3	2	I	2	0	817	0	poli_8sides 3_whiteLine3.jpg	MediumShort_e22_cut1_stereo_44KHz.wav
3	6	4	4	2	I	2	0	627	1	poli_8sides 9_whiteLine3.jpg	MediumShort_b10_cut1_MS_stereo_44KHz.wav
3	7	1	2	0	C	2	0	607	0	poli_8sides 5_whiteLine3.jpg	MediumShort_b16_cut3_MS_stereo_44KHz.wav
3	8	2	1	0	C	2	0	1039	0	poli_8sides 8_whiteLine3.jpg	MediumShort_e16_cut1_stereo_44KHz.wav
3	9	4	4	2	I	1	0	595	1	poli_8sides 9_whiteLine3.jpg	MediumShort_b10_cut1_MS_stereo_44KHz.wav
3	10	2	2	1	C	1	0	818	0	poli_8sides 8_whiteLine3.jpg	MediumShort_b16_cut3_MS_stereo_44KHz.wav
3	11	1	2	0	C	1	1	871	1	poli_8sides 5_whiteLine3.jpg	MediumShort_b16_cut3_MS_stereo_44KHz.wav
3	12	3	4	2	I	1	0	532	0	poli_8sides 3_whiteLine3.jpg	MediumShort_b10_cut1_MS_stereo_44KHz.wav
3	13	1	1	1	C	2	1	748	1	poli_8sides 5_whiteLine3.jpg	MediumShort_e16_cut1_stereo_44KHz.wav
3	14	2	1	0	C	2	0	946	0	poli_8sides 8_whiteLine3.jpg	MediumShort_e16_cut1_stereo_44KHz.wav
3	15	4	3	2	I	1	0	645	1	poli_8sides 9_whiteLine3.jpg	MediumShort_e22_cut1_stereo_44KHz.wav
3	16	3	3	2	I	2	0	746	0	poli_8sides 3_whiteLine3.jpg	MediumShort_e22_cut1_stereo_44KHz.wav
3	17	4	3	2	I	2	0	590	0	poli_8sides 9_whiteLine3.jpg	MediumShort_e22_cut1_stereo_44KHz.wav
3	18	3	3	2	I	2	0	525	1	poli_8sides 3_whiteLine3.jpg	MediumShort_e22_cut1_stereo_44KHz.wav
3	19	2	2	1	C	1	0	976	0	poli_8sides 8_whiteLine3.jpg	MediumShort_b16_cut3_MS_stereo_44KHz.wav
3	20	1	2	0	C	2	0	622	0	poli_8sides 5_whiteLine3.jpg	MediumShort_b16_cut3_MS_stereo_44KHz.wav
3	21	2	1	0	C	1	1	680	1	poli_8sides 8_whiteLine3.jpg	MediumShort_e16_cut1_stereo_44KHz.wav
3	22	1	1	1	C	2	1	609	1	poli_8sides 5_whiteLine3.jpg	MediumShort_e16_cut1_stereo_44KHz.wav
3	23	4	4	2	I	2	0	612	1	poli_8sides 9_whiteLine3.jpg	MediumShort_b10_cut1_MS_stereo_44KHz.wav
3	24	3	4	2	I	2	0	602	1	poli_8sides 3_whiteLine3.jpg	MediumShort_b10_cut1_MS_stereo_44KHz.wav
3	25	4	3	2	I	2	0	694	1	poli_8sides 9_whiteLine3.jpg	MediumShort_e22_cut1_stereo_44KHz.wav
3	26	1	2	0	C	2	0	507	0	poli_8sides 5_whiteLine3.jpg	MediumShort_b16_cut3_MS_stereo_44KHz.wav
3	27	3	4	2	I	2	0	398	0	poli_8sides 3_whiteLine3.jpg	MediumShort_b10_cut1_MS_stereo_44KHz.wav
3	28	2	1	0	C	1	1	394	1	poli_8sides 8_whiteLine3.jpg	MediumShort_e16_cut1_stereo_44KHz.wav
3	29	1	1	1	C	1	0	370	0	poli_8sides 5_whiteLine3.jpg	MediumShort_e16_cut1_stereo_44KHz.wav
3	30	2	2	1	C	2	1	494	1	poli_8sides 8_whiteLine3.jpg	MediumShort_b16_cut3_MS_stereo_44KHz.wav
3	31	4	4	2	I	2	0	541	0	poli_8sides 9_whiteLine3.jpg	MediumShort_b10_cut1_MS_stereo_44KHz.wav
3	32	3	3	2	I	2	0	567	1	poli_8sides 3_whiteLine3.jpg	MediumShort_e22_cut1_stereo_44KHz.wav
3	33	1	1	1	C	2	1	626	1	poli_8sides 5_whiteLine3.jpg	MediumShort_e16_cut1_stereo_44KHz.wav
3	34	4	3	2	I	2	0	670	1	poli_8sides 9_whiteLine3.jpg	MediumShort_e22_cut1_stereo_44KHz.wav
3	35	3	4	2	I	2	0	547	1	poli_8sides 3_whiteLine3.jpg	MediumShort_b10_cut1_MS_stereo_44KHz.wav
3	36	2	1	0	C	1	1	762	1	poli_8sides 8_whiteLine3.jpg	MediumShort_e16_cut1_stereo_44KHz.wav
3	37	1	2	0	C	1	1	605	1	poli_8sides 5_whiteLine3.jpg	MediumShort_b16_cut3_MS_stereo_44KHz.wav
3	38	3	3	2	I	2	0	749	0	poli_8sides 3_whiteLine3.jpg	MediumShort_e22_cut1_stereo_44KHz.wav
3	39	2	2	1	C	1	0	397	0	poli_8sides 8_whiteLine3.jpg	MediumShort_b16_cut3_MS_stereo_44KHz.wav
3	40	4	4	2	I	1	0	688	0	poli_8sides 9_whiteLine3.jpg	MediumShort_b10_cut1_MS_stereo_44KHz.wav
3	41	2	1	0	C	2	0	708	0	poli_8sides 8_whiteLine3.jpg	MediumShort_e16_cut1_stereo_44KHz.wav
3	42	4	4	2	I	2	0	904	1	poli_8sides 9_whiteLine3.jpg	MediumShort_b10_cut1_MS_stereo_44KHz.wav
3	43	3	3	2	I	2	0	522	0	poli_8sides 3_whiteLine3.jpg	MediumShort_e22_cut1_stereo_44KHz.wav
3	44	1	1	1	C	1	0	528	0	poli_8sides 5_whiteLine3.jpg	MediumShort_e16_cut1_stereo_44KHz.wav
3	45	3	4	2	I	2	0	589	1	poli_8sides 3_whiteLine3.jpg	MediumShort_b10_cut1_MS_stereo_44KHz.wav
3	46	1	2	0	C	1	1	656	1	poli_8sides 5_whiteLine3.jpg	MediumShort_b16_cut3_MS_stereo_44KHz.wav
3	47	2	2	1	C	2	1	667	1	poli_8sides 8_whiteLine3.jpg	MediumShort_b16_cut3_MS_stereo_44KHz.wav
3	48	4	3	2	I	2	0	353	0	poli_8sides 9_whiteLine3.jpg	MediumShort_e22_cut1_stereo_44KHz.wav
3	49	3	3	2	I	2	0	587	1	poli_8sides 3_whiteLine3.jpg	MediumShort_e22_cut1_stereo_44KHz.wav
3	50	1	1	1	C	1	0	601	0	poli_8sides 5_whiteLine3.jpg	MediumShort_e16_cut1_stereo_44KHz.wav
3	51	2	1	0	C	1	1	631	1	poli_8sides 8_whiteLine3.jpg	MediumShort_e16_cut1_stereo_44KHz.wav
3	52	4	4	2	I	2	0	667	0	poli_8sides 9_whiteLine3.jpg	MediumShort_b10_cut1_MS_stereo_44KHz.wav
3	53	2	2	1	C	2	1	498	1	poli_8sides 8_whiteLine3.jpg	MediumShort_b16_cut3_MS_stereo_44KHz.wav
3	54	4	3	2	I	2	0	470	1	poli_8sides 9_whiteLine3.jpg	MediumShort_e22_cut1_stereo_44KHz.wav
3	55	1	2	0	C	2	0	548	0	poli_8sides 5_whiteLine3.jpg	MediumShort_b16_cut3_MS_stereo_44KHz.wav
3	56	3	4	2	I	2	0	437	1	poli_8sides 3_whiteLine3.jpg	MediumShort_b10_cut1_MS_stereo_44KHz.wav
3	57	1	1	1	C	2	1	1040	1	poli_8sides 5_whiteLine3.jpg	MediumShort_e16_cut1_stereo_44KHz.wav
3	58	2	1	0	C	1	1	643	1	poli_8sides 8_whiteLine3.jpg	MediumShort_e16_cut1_stereo_44KHz.wav
3	59	4	3	2	I	1	0	770	0	poli_8sides 9_whiteLine3.jpg	MediumShort_e22_cut1_stereo_44KHz.wav
3	60	3	4	2	I	2	0	1017	1	poli_8sides 3_whiteLine3.jpg	MediumShort_b10_cut1_MS_stereo_44KHz.wav
3	61	2	2	1	C	2	1	933	1	poli_8sides 8_whiteLine3.jpg	MediumShort_b16_cut3_MS_stereo_44KHz.wav
3	62	1	2	0	C	2	0	423	0	poli_8sides 5_whiteLine3.jpg	MediumShort_b16_cut3_MS_stereo_44KHz.wav
3	63	4	4	2	I	2	0	669	0	poli_8sides 9_whiteLine3.jpg	MediumShort_b10_cut1_MS_stereo_44KHz.wav
3	64	3	3	2	I	1	0	944	1	poli_8sides 3_whiteLine3.jpg	MediumShort_e22_cut1_stereo_44KHz.wav
3	65	1	1	1	C	2	1	1083	1	poli_8sides 5_whiteLine3.jpg	MediumShort_e16_cut1_stereo_44KHz.wav
3	66	3	4	2	I	2	0	710	0	poli_8sides 3_whiteLine3.jpg	MediumShort_b10_cut1_MS_stereo_44KHz.wav
3	67	2	2	1	C	2	1	878	1	poli_8sides 8_whiteLine3.jpg	MediumShort_b16_cut3_MS_stereo_44KHz.wav
3	68	4	3	2	I	2	0	642	1	poli_8sides 9_whiteLine3.jpg	MediumShort_e22_cut1_stereo_44KHz.wav
3	69	1	2	0	C	1	1	779	1	poli_8sides 5_whiteLine3.jpg	MediumShort_b16_cut3_MS_stereo_44KHz.wav
3	70	3	3	2	I	2	0	970	1	poli_8sides 3_whiteLine3.jpg	MediumShort_e22_cut1_stereo_44KHz.wav
3	71	2	1	0	C	1	1	826	1	poli_8sides 8_whiteLine3.jpg	MediumShort_e16_cut1_stereo_44KHz.wav
3	72	4	4	2	I	2	0	664	0	poli_8sides 9_whiteLine3.jpg	MediumShort_b10_cut1_MS_stereo_44KHz.wav
3	73	1	1	1	C	1	0	595	0	poli_8sides 5_whiteLine3.jpg	MediumShort_e16_cut1_stereo_44KHz.wav
3	74	2	1	0	C	2	0	497	0	poli_8sides 8_whiteLine3.jpg	MediumShort_e16_cut1_stereo_44KHz.wav
3	75	3	4	2	I	2	0	599	0	poli_8sides 3_whiteLine3.jpg	MediumShort_b10_cut1_MS_stereo_44KHz.wav
3	76	4	3	2	I	2	0	585	0	poli_8sides 9_whiteLine3.jpg	MediumShort_e22_cut1_stereo_44KHz.wav
3	77	3	3	2	I	2	0	892	1	poli_8sides 3_whiteLine3.jpg	MediumShort_e22_cut1_stereo_44KHz.wav
3	78	1	2	0	C	1	1	701	1	poli_8sides 5_whiteLine3.jpg	MediumShort_b16_cut3_MS_stereo_44KHz.wav
3	79	4	4	2	I	2	0	519	1	poli_8sides 9_whiteLine3.jpg	MediumShort_b10_cut1_MS_stereo_44KHz.wav
3	80	2	2	1	C	1	0	516	0	poli_8sides 8_whiteLine3.jpg	MediumShort_b16_cut3_MS_stereo_44KHz.wav
3	81	4	4	2	I	1	0	547	0	poli_8sides 9_whiteLine3.jpg	MediumShort_b10_cut1_MS_stereo_44KHz.wav
3	82	3	3	2	I	2	0	694	1	poli_8sides 3_whiteLine3.jpg	MediumShort_e22_cut1_stereo_44KHz.wav
3	83	2	1	0	C	2	0	752	0	poli_8sides 8_whiteLine3.jpg	MediumShort_e16_cut1_stereo_44KHz.wav
3	84	1	1	1	C	2	1	327	1	poli_8sides 5_whiteLine3.jpg	MediumShort_e16_cut1_stereo_44KHz.wav
3	85	2	2	1	C	2	1	531	1	poli_8sides 8_whiteLine3.jpg	MediumShort_b16_cut3_MS_stereo_44KHz.wav
3	86	1	2	0	C	1	1	331	1	poli_8sides 5_whiteLine3.jpg	MediumShort_b16_cut3_MS_stereo_44KHz.wav
3	87	3	4	2	I	2	0	543	0	poli_8sides 3_whiteLine3.jpg	MediumShort_b10_cut1_MS_stereo_44KHz.wav
3	88	4	3	2	I	1	0	566	1	poli_8sides 9_whiteLine3.jpg	MediumShort_e22_cut1_stereo_44KHz.wav
3	89	3	4	2	I	2	0	623	0	poli_8sides 3_whiteLine3.jpg	MediumShort_b10_cut1_MS_stereo_44KHz.wav
3	90	2	1	0	C	1	1	901	1	poli_8sides 8_whiteLine3.jpg	MediumShort_e16_cut1_stereo_44KHz.wav
3	91	4	3	2	I	1	0	824	1	poli_8sides 9_whiteLine3.jpg	MediumShort_e22_cut1_stereo_44KHz.wav
3	92	1	1	1	C	2	1	1791	1	poli_8sides 5_whiteLine3.jpg	MediumShort_e16_cut1_stereo_44KHz.wav
3	93	3	3	2	I	1	0	645	1	poli_8sides 3_whiteLine3.jpg	MediumShort_e22_cut1_stereo_44KHz.wav
3	94	2	2	1	C	2	1	683	1	poli_8sides 8_whiteLine3.jpg	MediumShort_b16_cut3_MS_stereo_44KHz.wav
3	95	1	2	0	C	2	0	581	0	poli_8sides 5_whiteLine3.jpg	MediumShort_b16_cut3_MS_stereo_44KHz.wav
3	96	4	4	2	I	1	0	659	0	poli_8sides 9_whiteLine3.jpg	MediumShort_b10_cut1_MS_stereo_44KHz.wav
3	97	2	1	0	C	2	0	520	0	poli_8sides 8_whiteLine3.jpg	MediumShort_e16_cut1_stereo_44KHz.wav
3	98	4	3	2	I	1	0	802	0	poli_8sides 9_whiteLine3.jpg	MediumShort_e22_cut1_stereo_44KHz.wav
3	99	1	1	1	C	1	0	613	0	poli_8sides 5_whiteLine3.jpg	MediumShort_e16_cut1_stereo_44KHz.wav
3	100	3	4	2	I	1	0	515	0	poli_8sides 3_whiteLine3.jpg	MediumShort_b10_cut1_MS_stereo_44KHz.wav
3	101	4	4	2	I	1	0	767	1	poli_8sides 9_whiteLine3.jpg	MediumShort_b10_cut1_MS_stereo_44KHz.wav
3	102	1	2	0	C	1	1	613	1	poli_8sides 5_whiteLine3.jpg	MediumShort_b16_cut3_MS_stereo_44KHz.wav
3	103	2	2	1	C	1	0	766	0	poli_8sides 8_whiteLine3.jpg	MediumShort_b16_cut3_MS_stereo_44KHz.wav
3	104	3	3	2	I	1	0	339	0	poli_8sides 3_whiteLine3.jpg	MediumShort_e22_cut1_stereo_44KHz.wav
3	105	2	2	1	C	1	0	806	0	poli_8sides 8_whiteLine3.jpg	MediumShort_b16_cut3_MS_stereo_44KHz.wav
3	106	4	3	2	I	1	0	601	0	poli_8sides 9_whiteLine3.jpg	MediumShort_e22_cut1_stereo_44KHz.wav
3	107	1	1	1	C	2	1	518	1	poli_8sides 5_whiteLine3.jpg	MediumShort_e16_cut1_stereo_44KHz.wav
3	108	3	3	2	I	2	0	373	0	poli_8sides 3_whiteLine3.jpg	MediumShort_e22_cut1_stereo_44KHz.wav
3	109	1	2	0	C	2	0	720	0	poli_8sides 5_whiteLine3.jpg	MediumShort_b16_cut3_MS_stereo_44KHz.wav
3	110	2	1	0	C	2	0	868	0	poli_8sides 8_whiteLine3.jpg	MediumShort_e16_cut1_stereo_44KHz.wav
3	111	3	4	2	I	1	0	867	1	poli_8sides 3_whiteLine3.jpg	MediumShort_b10_cut1_MS_stereo_44KHz.wav
3	112	4	4	2	I	1	0	775	1	poli_8sides 9_whiteLine3.jpg	MediumShort_b10_cut1_MS_stereo_44KHz.wav
3	113	3	4	2	I	1	0	620	0	poli_8sides 3_whiteLine3.jpg	MediumShort_b10_cut1_MS_stereo_44KHz.wav
3	114	1	2	0	C	1	1	1316	1	poli_8sides 5_whiteLine3.jpg	MediumShort_b16_cut3_MS_stereo_44KHz.wav
3	115	4	4	2	I	1	0	922	1	poli_8sides 9_whiteLine3.jpg	MediumShort_b10_cut1_MS_stereo_44KHz.wav
3	116	2	2	1	C	1	0	509	0	poli_8sides 8_whiteLine3.jpg	MediumShort_b16_cut3_MS_stereo_44KHz.wav
3	117	4	3	2	I	1	0	704	0	poli_8sides 9_whiteLine3.jpg	MediumShort_e22_cut1_stereo_44KHz.wav
3	118	3	3	2	I	1	0	866	0	poli_8sides 3_whiteLine3.jpg	MediumShort_e22_cut1_stereo_44KHz.wav
3	119	1	1	1	C	2	1	641	1	poli_8sides 5_whiteLine3.jpg	MediumShort_e16_cut1_stereo_44KHz.wav
3	120	2	1	0	C	2	0	797	0	poli_8sides 8_whiteLine3.jpg	MediumShort_e16_cut1_stereo_44KHz.wav
3	121	1	1	1	C	2	1	572	1	poli_8sides 5_whiteLine3.jpg	MediumShort_e16_cut1_stereo_44KHz.wav
3	122	3	3	2	I	1	0	600	0	poli_8sides 3_whiteLine3.jpg	MediumShort_e22_cut1_stereo_44KHz.wav
3	123	4	4	2	I	2	0	471	1	poli_8sides 9_whiteLine3.jpg	MediumShort_b10_cut1_MS_stereo_44KHz.wav
3	124	2	1	0	C	2	0	726	0	poli_8sides 8_whiteLine3.jpg	MediumShort_e16_cut1_stereo_44KHz.wav
3	125	1	2	0	C	2	0	809	0	poli_8sides 5_whiteLine3.jpg	MediumShort_b16_cut3_MS_stereo_44KHz.wav
3	126	2	2	1	C	1	0	759	0	poli_8sides 8_whiteLine3.jpg	MediumShort_b16_cut3_MS_stereo_44KHz.wav
3	127	4	3	2	I	2	0	882	0	poli_8sides 9_whiteLine3.jpg	MediumShort_e22_cut1_stereo_44KHz.wav
3	128	3	4	2	I	1	0	775	0	poli_8sides 3_whiteLine3.jpg	MediumShort_b10_cut1_MS_stereo_44KHz.wav
3	129	1	2	0	C	2	0	669	0	poli_8sides 5_whiteLine3.jpg	MediumShort_b16_cut3_MS_stereo_44KHz.wav
3	130	3	4	2	I	1	0	973	0	poli_8sides 3_whiteLine3.jpg	MediumShort_b10_cut1_MS_stereo_44KHz.wav
3	131	2	1	0	C	1	1	878	1	poli_8sides 8_whiteLine3.jpg	MediumShort_e16_cut1_stereo_44KHz.wav
3	132	4	4	2	I	2	0	895	0	poli_8sides 9_whiteLine3.jpg	MediumShort_b10_cut1_MS_stereo_44KHz.wav
3	133	1	1	1	C	1	0	857	0	poli_8sides 5_whiteLine3.jpg	MediumShort_e16_cut1_stereo_44KHz.wav
3	134	2	2	1	C	1	0	571	0	poli_8sides 8_whiteLine3.jpg	MediumShort_b16_cut3_MS_stereo_44KHz.wav
3	135	3	3	2	I	1	0	1044	1	poli_8sides 3_whiteLine3.jpg	MediumShort_e22_cut1_stereo_44KHz.wav
3	136	4	3	2	I	0	0	0	0	poli_8sides 9_whiteLine3.jpg	MediumShort_e22_cut1_stereo_44KHz.wav
3	137	1	1	1	C	2	1	727	1	poli_8sides 5_whiteLine3.jpg	MediumShort_e16_cut1_stereo_44KHz.wav
3	138	4	3	2	I	1	0	642	0	poli_8sides 9_whiteLine3.jpg	MediumShort_e22_cut1_stereo_44KHz.wav
3	139	3	4	2	I	2	0	672	0	poli_8sides 3_whiteLine3.jpg	MediumShort_b10_cut1_MS_stereo_44KHz.wav
3	140	2	1	0	C	1	1	920	1	poli_8sides 8_whiteLine3.jpg	MediumShort_e16_cut1_stereo_44KHz.wav
3	141	3	3	2	I	1	0	700	1	poli_8sides 3_whiteLine3.jpg	MediumShort_e22_cut1_stereo_44KHz.wav
3	142	4	4	2	I	1	0	796	0	poli_8sides 9_whiteLine3.jpg	MediumShort_b10_cut1_MS_stereo_44KHz.wav
3	143	2	2	1	C	2	1	657	1	poli_8sides 8_whiteLine3.jpg	MediumShort_b16_cut3_MS_stereo_44KHz.wav
3	144	1	2	0	C	1	1	940	1	poli_8sides 5_whiteLine3.jpg	MediumShort_b16_cut3_MS_stereo_44KHz.wav
3	145	2	1	0	C	2	0	827	0	poli_8sides 8_whiteLine3.jpg	MediumShort_e16_cut1_stereo_44KHz.wav
3	146	1	2	0	C	1	1	1374	1	poli_8sides 5_whiteLine3.jpg	MediumShort_b16_cut3_MS_stereo_44KHz.wav
3	147	3	3	2	I	2	0	1094	1	poli_8sides 3_whiteLine3.jpg	MediumShort_e22_cut1_stereo_44KHz.wav
3	148	4	4	2	I	1	0	689	0	poli_8sides 9_whiteLine3.jpg	MediumShort_b10_cut1_MS_stereo_44KHz.wav
3	149	2	2	1	C	2	1	689	1	poli_8sides 8_whiteLine3.jpg	MediumShort_b16_cut3_MS_stereo_44KHz.wav
3	150	4	3	2	I	2	0	734	1	poli_8sides 9_whiteLine3.jpg	MediumShort_e22_cut1_stereo_44KHz.wav
3	151	1	1	1	C	2	1	669	1	poli_8sides 5_whiteLine3.jpg	MediumShort_e16_cut1_stereo_44KHz.wav
3	152	3	4	2	I	2	0	635	0	poli_8sides 3_whiteLine3.jpg	MediumShort_b10_cut1_MS_stereo_44KHz.wav
3	153	2	2	1	C	2	1	694	1	poli_8sides 8_whiteLine3.jpg	MediumShort_b16_cut3_MS_stereo_44KHz.wav
3	154	4	4	2	I	1	0	1007	0	poli_8sides 9_whiteLine3.jpg	MediumShort_b10_cut1_MS_stereo_44KHz.wav
3	155	1	2	0	C	0	0	0	0	poli_8sides 5_whiteLine3.jpg	MediumShort_b16_cut3_MS_stereo_44KHz.wav
3	156	3	4	2	I	2	0	880	1	poli_8sides 3_whiteLine3.jpg	MediumShort_b10_cut1_MS_stereo_44KHz.wav
3	157	2	1	0	C	1	1	1710	1	poli_8sides 8_whiteLine3.jpg	MediumShort_e16_cut1_stereo_44KHz.wav
3	158	1	1	1	C	1	0	831	0	poli_8sides 5_whiteLine3.jpg	MediumShort_e16_cut1_stereo_44KHz.wav
3	159	3	3	2	I	0	0	0	0	poli_8sides 3_whiteLine3.jpg	MediumShort_e22_cut1_stereo_44KHz.wav
3	160	4	3	2	I	1	0	1255	1	poli_8sides 9_whiteLine3.jpg	MediumShort_e22_cut1_stereo_44KHz.wav
3	161	3	3	2	I	1	0	855	1	poli_8sides 3_whiteLine3.jpg	MediumShort_e22_cut1_stereo_44KHz.wav
3	162	2	2	1	C	2	1	896	1	poli_8sides 8_whiteLine3.jpg	MediumShort_b16_cut3_MS_stereo_44KHz.wav
3	163	1	1	1	C	1	0	681	0	poli_8sides 5_whiteLine3.jpg	MediumShort_e16_cut1_stereo_44KHz.wav
3	164	4	3	2	I	1	0	728	0	poli_8sides 9_whiteLine3.jpg	MediumShort_e22_cut1_stereo_44KHz.wav
3	165	3	4	2	I	1	0	714	0	poli_8sides 3_whiteLine3.jpg	MediumShort_b10_cut1_MS_stereo_44KHz.wav
3	166	1	2	0	C	1	1	601	1	poli_8sides 5_whiteLine3.jpg	MediumShort_b16_cut3_MS_stereo_44KHz.wav
3	167	4	4	2	I	2	0	555	1	poli_8sides 9_whiteLine3.jpg	MediumShort_b10_cut1_MS_stereo_44KHz.wav
3	168	2	1	0	C	2	0	664	0	poli_8sides 8_whiteLine3.jpg	MediumShort_e16_cut1_stereo_44KHz.wav
3	169	3	3	2	I	1	0	762	1	poli_8sides 3_whiteLine3.jpg	MediumShort_e22_cut1_stereo_44KHz.wav
3	170	1	1	1	C	1	0	899	0	poli_8sides 5_whiteLine3.jpg	MediumShort_e16_cut1_stereo_44KHz.wav
3	171	2	1	0	C	2	0	467	0	poli_8sides 8_whiteLine3.jpg	MediumShort_e16_cut1_stereo_44KHz.wav
3	172	4	3	2	I	2	0	366	1	poli_8sides 9_whiteLine3.jpg	MediumShort_e22_cut1_stereo_44KHz.wav
3	173	3	4	2	I	2	0	482	1	poli_8sides 3_whiteLine3.jpg	MediumShort_b10_cut1_MS_stereo_44KHz.wav
3	174	2	2	1	C	2	1	433	1	poli_8sides 8_whiteLine3.jpg	MediumShort_b16_cut3_MS_stereo_44KHz.wav
3	175	4	4	2	I	2	0	491	0	poli_8sides 9_whiteLine3.jpg	MediumShort_b10_cut1_MS_stereo_44KHz.wav
3	176	1	2	0	C	1	1	432	1	poli_8sides 5_whiteLine3.jpg	MediumShort_b16_cut3_MS_stereo_44KHz.wav
3	177	2	2	1	C	1	0	559	0	poli_8sides 8_whiteLine3.jpg	MediumShort_b16_cut3_MS_stereo_44KHz.wav
3	178	3	4	2	I	1	0	746	1	poli_8sides 3_whiteLine3.jpg	MediumShort_b10_cut1_MS_stereo_44KHz.wav
3	179	4	3	2	I	2	0	767	1	poli_8sides 9_whiteLine3.jpg	MediumShort_e22_cut1_stereo_44KHz.wav
3	180	1	1	1	C	1	0	639	0	poli_8sides 5_whiteLine3.jpg	MediumShort_e16_cut1_stereo_44KHz.wav
3	181	2	1	0	C	2	0	565	0	poli_8sides 8_whiteLine3.jpg	MediumShort_e16_cut1_stereo_44KHz.wav
3	182	4	4	2	I	1	0	805	1	poli_8sides 9_whiteLine3.jpg	MediumShort_b10_cut1_MS_stereo_44KHz.wav
3	183	3	3	2	I	1	0	907	0	poli_8sides 3_whiteLine3.jpg	MediumShort_e22_cut1_stereo_44KHz.wav
3	184	1	2	0	C	2	0	1253	0	poli_8sides 5_whiteLine3.jpg	MediumShort_b16_cut3_MS_stereo_44KHz.wav
3	185	2	1	0	C	1	1	601	1	poli_8sides 8_whiteLine3.jpg	MediumShort_e16_cut1_stereo_44KHz.wav
3	186	4	4	2	I	1	0	828	1	poli_8sides 9_whiteLine3.jpg	MediumShort_b10_cut1_MS_stereo_44KHz.wav
3	187	3	4	2	I	2	0	429	0	poli_8sides 3_whiteLine3.jpg	MediumShort_b10_cut1_MS_stereo_44KHz.wav
3	188	1	2	0	C	1	1	612	1	poli_8sides 5_whiteLine3.jpg	MediumShort_b16_cut3_MS_stereo_44KHz.wav
3	189	2	2	1	C	2	1	508	1	poli_8sides 8_whiteLine3.jpg	MediumShort_b16_cut3_MS_stereo_44KHz.wav
3	190	1	1	1	C	1	0	536	0	poli_8sides 5_whiteLine3.jpg	MediumShort_e16_cut1_stereo_44KHz.wav
3	191	3	3	2	I	2	0	677	1	poli_8sides 3_whiteLine3.jpg	MediumShort_e22_cut1_stereo_44KHz.wav
3	192	4	3	2	I	2	0	1065	0	poli_8sides 9_whiteLine3.jpg	MediumShort_e22_cut1_stereo_44KHz.wav
3	193	3	4	2	I	2	0	846	0	poli_8sides 3_whiteLine3.jpg	MediumShort_b10_cut1_MS_stereo_44KHz.wav
3	194	4	3	2	I	2	0	915	1	poli_8sides 9_whiteLine3.jpg	MediumShort_e22_cut1_stereo_44KHz.wav
3	195	1	2	0	C	2	0	1125	0	poli_8sides 5_whiteLine3.jpg	MediumShort_b16_cut3_MS_stereo_44KHz.wav
3	196	2	1	0	C	2	0	653	0	poli_8sides 8_whiteLine3.jpg	MediumShort_e16_cut1_stereo_44KHz.wav
3	197	3	3	2	I	1	0	607	0	poli_8sides 3_whiteLine3.jpg	MediumShort_e22_cut1_stereo_44KHz.wav
3	198	4	4	2	I	1	0	735	0	poli_8sides 9_whiteLine3.jpg	MediumShort_b10_cut1_MS_stereo_44KHz.wav
3	199	1	1	1	C	1	0	636	0	poli_8sides 5_whiteLine3.jpg	MediumShort_e16_cut1_stereo_44KHz.wav
3	200	2	2	1	C	1	0	554	0	poli_8sides 8_whiteLine3.jpg	MediumShort_b16_cut3_MS_stereo_44KHz.wav
4	1	2	1	0	C	2	0	509	0	poli_8sides 13_whiteLine3.jpg	MediumLong_e19_stereo_44KHz.wav
4	2	1	1	1	C	2	1	851	1	poli_8sides 12_whiteLine3.jpg	MediumLong_e19_stereo_44KHz.wav
4	3	4	3	2	I	1	0	888	1	poli_8sides 16_whiteLine3.jpg	Medium_e01_cut1_stereo_44KHz.wav
4	4	3	3	2	I	2	0	765	1	poli_8sides 1_whiteLine3.jpg	Medium_e01_cut1_stereo_44KHz.wav
4	5	2	2	1	C	1	0	892	0	poli_8sides 13_whiteLine3.jpg	Medium_e13_stereo_44KHz.wav
4	6	3	4	2	I	2	0	778	0	poli_8sides 1_whiteLine3.jpg	Medium_e21_stereo_44KHz.wav
4	7	1	2	0	C	2	0	678	0	poli_8sides 12_whiteLine3.jpg	Medium_e13_stereo_44KHz.wav
4	8	4	4	2	I	2	0	559	1	poli_8sides 16_whiteLine3.jpg	Medium_e21_stereo_44KHz.wav
4	9	3	3	2	I	2	0	619	0	poli_8sides 1_whiteLine3.jpg	Medium_e01_cut1_stereo_44KHz.wav
4	10	1	2	0	C	2	0	891	0	poli_8sides 12_whiteLine3.jpg	Medium_e13_stereo_44KHz.wav
4	11	4	4	2	I	2	0	822	0	poli_8sides 16_whiteLine3.jpg	Medium_e21_stereo_44KHz.wav
4	12	2	1	0	C	2	0	723	0	poli_8sides 13_whiteLine3.jpg	MediumLong_e19_stereo_44KHz.wav
4	13	1	1	1	C	2	1	510	1	poli_8sides 12_whiteLine3.jpg	MediumLong_e19_stereo_44KHz.wav
4	14	2	2	1	C	1	0	1049	0	poli_8sides 13_whiteLine3.jpg	Medium_e13_stereo_44KHz.wav
4	15	4	3	2	I	2	0	652	0	poli_8sides 16_whiteLine3.jpg	Medium_e01_cut1_stereo_44KHz.wav
4	16	3	4	2	I	2	0	477	1	poli_8sides 1_whiteLine3.jpg	Medium_e21_stereo_44KHz.wav
4	17	2	2	1	C	2	1	535	1	poli_8sides 13_whiteLine3.jpg	Medium_e13_stereo_44KHz.wav
4	18	3	4	2	I	2	0	570	0	poli_8sides 1_whiteLine3.jpg	Medium_e21_stereo_44KHz.wav
4	19	1	1	1	C	1	0	959	0	poli_8sides 12_whiteLine3.jpg	MediumLong_e19_stereo_44KHz.wav
4	20	4	3	2	I	2	0	663	0	poli_8sides 16_whiteLine3.jpg	Medium_e01_cut1_stereo_44KHz.wav
4	21	3	3	2	I	2	0	626	0	poli_8sides 1_whiteLine3.jpg	Medium_e01_cut1_stereo_44KHz.wav
4	22	2	1	0	C	2	0	463	0	poli_8sides 13_whiteLine3.jpg	MediumLong_e19_stereo_44KHz.wav
4	23	4	4	2	I	2	0	526	1	poli_8sides 16_whiteLine3.jpg	Medium_e21_stereo_44KHz.wav
4	24	1	2	0	C	1	1	673	1	poli_8sides 12_whiteLine3.jpg	Medium_e13_stereo_44KHz.wav
4	25	2	1	0	C	2	0	606	0	poli_8sides 13_whiteLine3.jpg	MediumLong_e19_stereo_44KHz.wav
4	26	4	3	2	I	2	0	734	0	poli_8sides 16_whiteLine3.jpg	Medium_e01_cut1_stereo_44KHz.wav
4	27	3	3	2	I	1	0	568	1	poli_8sides 1_whiteLine3.jpg	Medium_e01_cut1_stereo_44KHz.wav
4	28	1	1	1	C	2	1	760	1	poli_8sides 12_whiteLine3.jpg	MediumLong_e19_stereo_44KHz.wav
4	29	3	4	2	I	2	0	646	1	poli_8sides 1_whiteLine3.jpg	Medium_e21_stereo_44KHz.wav
4	30	1	2	0	C	1	1	787	1	poli_8sides 12_whiteLine3.jpg	Medium_e13_stereo_44KHz.wav
4	31	2	2	1	C	2	1	840	1	poli_8sides 13_whiteLine3.jpg	Medium_e13_stereo_44KHz.wav
4	32	4	4	2	I	2	0	883	1	poli_8sides 16_whiteLine3.jpg	Medium_e21_stereo_44KHz.wav
4	33	2	1	0	C	1	1	808	1	poli_8sides 13_whiteLine3.jpg	MediumLong_e19_stereo_44KHz.wav
4	34	4	3	2	I	1	0	1066	0	poli_8sides 16_whiteLine3.jpg	Medium_e01_cut1_stereo_44KHz.wav
4	35	1	1	1	C	2	1	935	1	poli_8sides 12_whiteLine3.jpg	MediumLong_e19_stereo_44KHz.wav
4	36	3	4	2	I	2	0	674	1	poli_8sides 1_whiteLine3.jpg	Medium_e21_stereo_44KHz.wav
4	37	2	2	1	C	1	0	620	0	poli_8sides 13_whiteLine3.jpg	Medium_e13_stereo_44KHz.wav
4	38	1	2	0	C	1	1	809	1	poli_8sides 12_whiteLine3.jpg	Medium_e13_stereo_44KHz.wav
4	39	4	4	2	I	2	0	694	0	poli_8sides 16_whiteLine3.jpg	Medium_e21_stereo_44KHz.wav
4	40	3	3	2	I	1	0	895	0	poli_8sides 1_whiteLine3.jpg	Medium_e01_cut1_stereo_44KHz.wav
4	41	1	2	0	C	1	1	905	1	poli_8sides 12_whiteLine3.jpg	Medium_e13_stereo_44KHz.wav
4	42	3	4	2	I	1	0	873	1	poli_8sides 1_whiteLine3.jpg	Medium_e21_stereo_44KHz.wav
4	43	4	4	2	I	1	0	1031	0	poli_8sides 16_whiteLine3.jpg	Medium_e21_stereo_44KHz.wav
4	44	2	1	0	C	1	1	1277	1	poli_8sides 13_whiteLine3.jpg	MediumLong_e19_stereo_44KHz.wav
4	45	4	3	2	I	2	0	662	1	poli_8sides 16_whiteLine3.jpg	Medium_e01_cut1_stereo_44KHz.wav
4	46	2	2	1	C	1	0	1282	0	poli_8sides 13_whiteLine3.jpg	Medium_e13_stereo_44KHz.wav
4	47	3	3	2	I	1	0	954	0	poli_8sides 1_whiteLine3.jpg	Medium_e01_cut1_stereo_44KHz.wav
4	48	1	1	1	C	2	1	808	1	poli_8sides 12_whiteLine3.jpg	MediumLong_e19_stereo_44KHz.wav
4	49	3	4	2	I	2	0	1429	0	poli_8sides 1_whiteLine3.jpg	Medium_e21_stereo_44KHz.wav
4	50	4	4	2	I	1	0	981	0	poli_8sides 16_whiteLine3.jpg	Medium_e21_stereo_44KHz.wav
4	51	1	2	0	C	1	1	685	1	poli_8sides 12_whiteLine3.jpg	Medium_e13_stereo_44KHz.wav
4	52	2	1	0	C	1	1	822	1	poli_8sides 13_whiteLine3.jpg	MediumLong_e19_stereo_44KHz.wav
4	53	4	3	2	I	1	0	758	0	poli_8sides 16_whiteLine3.jpg	Medium_e01_cut1_stereo_44KHz.wav
4	54	2	2	1	C	2	1	929	1	poli_8sides 13_whiteLine3.jpg	Medium_e13_stereo_44KHz.wav
4	55	1	1	1	C	2	1	1033	1	poli_8sides 12_whiteLine3.jpg	MediumLong_e19_stereo_44KHz.wav
4	56	3	3	2	I	2	0	1040	1	poli_8sides 1_whiteLine3.jpg	Medium_e01_cut1_stereo_44KHz.wav
4	57	1	1	1	C	2	1	766	1	poli_8sides 12_whiteLine3.jpg	MediumLong_e19_stereo_44KHz.wav
4	58	3	4	2	I	1	0	829	0	poli_8sides 1_whiteLine3.jpg	Medium_e21_stereo_44KHz.wav
4	59	4	3	2	I	2	0	887	1	poli_8sides 16_whiteLine3.jpg	Medium_e01_cut1_stereo_44KHz.wav
4	60	2	1	0	C	2	0	746	0	poli_8sides 13_whiteLine3.jpg	MediumLong_e19_stereo_44KHz.wav
4	61	1	2	0	C	1	1	907	1	poli_8sides 12_whiteLine3.jpg	Medium_e13_stereo_44KHz.wav
4	62	2	2	1	C	1	0	1028	0	poli_8sides 13_whiteLine3.jpg	Medium_e13_stereo_44KHz.wav
4	63	3	3	2	I	2	0	874	1	poli_8sides 1_whiteLine3.jpg	Medium_e01_cut1_stereo_44KHz.wav
4	64	4	4	2	I	2	0	802	0	poli_8sides 16_whiteLine3.jpg	Medium_e21_stereo_44KHz.wav
4	65	1	1	1	C	2	1	851	1	poli_8sides 12_whiteLine3.jpg	MediumLong_e19_stereo_44KHz.wav
4	66	2	1	0	C	2	0	720	0	poli_8sides 13_whiteLine3.jpg	MediumLong_e19_stereo_44KHz.wav
4	67	3	3	2	I	2	0	1036	1	poli_8sides 1_whiteLine3.jpg	Medium_e01_cut1_stereo_44KHz.wav
4	68	4	3	2	I	1	0	1014	0	poli_8sides 16_whiteLine3.jpg	Medium_e01_cut1_stereo_44KHz.wav
4	69	2	2	1	C	1	0	913	0	poli_8sides 13_whiteLine3.jpg	Medium_e13_stereo_44KHz.wav
4	70	3	4	2	I	2	0	1424	0	poli_8sides 1_whiteLine3.jpg	Medium_e21_stereo_44KHz.wav
4	71	4	4	2	I	1	0	944	0	poli_8sides 16_whiteLine3.jpg	Medium_e21_stereo_44KHz.wav
4	72	1	2	0	C	1	1	691	1	poli_8sides 12_whiteLine3.jpg	Medium_e13_stereo_44KHz.wav
4	73	2	1	0	C	1	1	1197	1	poli_8sides 13_whiteLine3.jpg	MediumLong_e19_stereo_44KHz.wav
4	74	4	4	2	I	2	0	820	1	poli_8sides 16_whiteLine3.jpg	Medium_e21_stereo_44KHz.wav
4	75	3	3	2	I	1	0	650	0	poli_8sides 1_whiteLine3.jpg	Medium_e01_cut1_stereo_44KHz.wav
4	76	1	1	1	C	2	1	936	1	poli_8sides 12_whiteLine3.jpg	MediumLong_e19_stereo_44KHz.wav
4	77	2	2	1	C	1	0	710	0	poli_8sides 13_whiteLine3.jpg	Medium_e13_stereo_44KHz.wav
4	78	3	4	2	I	1	0	943	1	poli_8sides 1_whiteLine3.jpg	Medium_e21_stereo_44KHz.wav
4	79	4	3	2	I	1	0	1204	1	poli_8sides 16_whiteLine3.jpg	Medium_e01_cut1_stereo_44KHz.wav
4	80	1	2	0	C	2	0	1040	0	poli_8sides 12_whiteLine3.jpg	Medium_e13_stereo_44KHz.wav
4	81	4	3	2	I	2	0	1071	1	poli_8sides 16_whiteLine3.jpg	Medium_e01_cut1_stereo_44KHz.wav
4	82	2	1	0	C	1	1	1198	1	poli_8sides 13_whiteLine3.jpg	MediumLong_e19_stereo_44KHz.wav
4	83	3	4	2	I	1	0	783	0	poli_8sides 1_whiteLine3.jpg	Medium_e21_stereo_44KHz.wav
4	84	1	1	1	C	2	1	794	1	poli_8sides 12_whiteLine3.jpg	MediumLong_e19_stereo_44KHz.wav
4	85	4	4	2	I	2	0	1194	1	poli_8sides 16_whiteLine3.jpg	Medium_e21_stereo_44KHz.wav
4	86	2	2	1	C	2	1	1231	1	poli_8sides 13_whiteLine3.jpg	Medium_e13_stereo_44KHz.wav
4	87	1	2	0	C	1	1	810	1	poli_8sides 12_whiteLine3.jpg	Medium_e13_stereo_44KHz.wav
4	88	3	3	2	I	2	0	945	1	poli_8sides 1_whiteLine3.jpg	Medium_e01_cut1_stereo_44KHz.wav
4	89	4	3	2	I	1	0	1321	1	poli_8sides 16_whiteLine3.jpg	Medium_e01_cut1_stereo_44KHz.wav
4	90	2	2	1	C	2	1	1039	1	poli_8sides 13_whiteLine3.jpg	Medium_e13_stereo_44KHz.wav
4	91	3	3	2	I	1	0	1097	0	poli_8sides 1_whiteLine3.jpg	Medium_e01_cut1_stereo_44KHz.wav
4	92	1	1	1	C	2	1	1121	1	poli_8sides 12_whiteLine3.jpg	MediumLong_e19_stereo_44KHz.wav
4	93	3	4	2	I	2	0	1299	0	poli_8sides 1_whiteLine3.jpg	Medium_e21_stereo_44KHz.wav
4	94	1	2	0	C	1	1	1357	1	poli_8sides 12_whiteLine3.jpg	Medium_e13_stereo_44KHz.wav
4	95	2	1	0	C	2	0	1343	0	poli_8sides 13_whiteLine3.jpg	MediumLong_e19_stereo_44KHz.wav
4	96	4	4	2	I	1	0	1608	0	poli_8sides 16_whiteLine3.jpg	Medium_e21_stereo_44KHz.wav
4	97	3	4	2	I	1	0	951	0	poli_8sides 1_whiteLine3.jpg	Medium_e21_stereo_44KHz.wav
4	98	1	2	0	C	1	1	729	1	poli_8sides 12_whiteLine3.jpg	Medium_e13_stereo_44KHz.wav
4	99	2	2	1	C	1	0	846	0	poli_8sides 13_whiteLine3.jpg	Medium_e13_stereo_44KHz.wav
4	100	4	4	2	I	2	0	802	1	poli_8sides 16_whiteLine3.jpg	Medium_e21_stereo_44KHz.wav
4	101	2	1	0	C	2	0	1197	0	poli_8sides 13_whiteLine3.jpg	MediumLong_e19_stereo_44KHz.wav
4	102	4	3	2	I	1	0	1284	1	poli_8sides 16_whiteLine3.jpg	Medium_e01_cut1_stereo_44KHz.wav
4	103	1	1	1	C	2	1	814	1	poli_8sides 12_whiteLine3.jpg	MediumLong_e19_stereo_44KHz.wav
4	104	3	3	2	I	2	0	1765	0	poli_8sides 1_whiteLine3.jpg	Medium_e01_cut1_stereo_44KHz.wav
4	105	2	1	0	C	1	1	1305	1	poli_8sides 13_whiteLine3.jpg	MediumLong_e19_stereo_44KHz.wav
4	106	4	4	2	I	1	0	1566	0	poli_8sides 16_whiteLine3.jpg	Medium_e21_stereo_44KHz.wav
4	107	3	4	2	I	2	0	500	0	poli_8sides 1_whiteLine3.jpg	Medium_e21_stereo_44KHz.wav
4	108	1	1	1	C	2	1	1158	1	poli_8sides 12_whiteLine3.jpg	MediumLong_e19_stereo_44KHz.wav
4	109	2	2	1	C	2	1	1212	1	poli_8sides 13_whiteLine3.jpg	Medium_e13_stereo_44KHz.wav
4	110	4	3	2	I	1	0	747	0	poli_8sides 16_whiteLine3.jpg	Medium_e01_cut1_stereo_44KHz.wav
4	111	3	3	2	I	1	0	987	1	poli_8sides 1_whiteLine3.jpg	Medium_e01_cut1_stereo_44KHz.wav
4	112	1	2	0	C	1	1	1057	1	poli_8sides 12_whiteLine3.jpg	Medium_e13_stereo_44KHz.wav
4	113	2	2	1	C	0	0	0	0	poli_8sides 13_whiteLine3.jpg	Medium_e13_stereo_44KHz.wav
4	114	1	1	1	C	1	0	1266	0	poli_8sides 12_whiteLine3.jpg	MediumLong_e19_stereo_44KHz.wav
4	115	3	4	2	I	2	0	1596	1	poli_8sides 1_whiteLine3.jpg	Medium_e21_stereo_44KHz.wav
4	116	4	3	2	I	2	0	967	1	poli_8sides 16_whiteLine3.jpg	Medium_e01_cut1_stereo_44KHz.wav
4	117	1	2	0	C	1	1	756	1	poli_8sides 12_whiteLine3.jpg	Medium_e13_stereo_44KHz.wav
4	118	3	3	2	I	2	0	754	0	poli_8sides 1_whiteLine3.jpg	Medium_e01_cut1_stereo_44KHz.wav
4	119	4	4	2	I	1	0	730	0	poli_8sides 16_whiteLine3.jpg	Medium_e21_stereo_44KHz.wav
4	120	2	1	0	C	1	1	980	1	poli_8sides 13_whiteLine3.jpg	MediumLong_e19_stereo_44KHz.wav
4	121	3	4	2	I	1	0	511	1	poli_8sides 1_whiteLine3.jpg	Medium_e21_stereo_44KHz.wav
4	122	2	1	0	C	1	1	710	1	poli_8sides 13_whiteLine3.jpg	MediumLong_e19_stereo_44KHz.wav
4	123	1	1	1	C	2	1	885	1	poli_8sides 12_whiteLine3.jpg	MediumLong_e19_stereo_44KHz.wav
4	124	4	4	2	I	2	0	578	1	poli_8sides 16_whiteLine3.jpg	Medium_e21_stereo_44KHz.wav
4	125	3	3	2	I	2	0	804	1	poli_8sides 1_whiteLine3.jpg	Medium_e01_cut1_stereo_44KHz.wav
4	126	1	2	0	C	1	1	763	1	poli_8sides 12_whiteLine3.jpg	Medium_e13_stereo_44KHz.wav
4	127	2	2	1	C	2	1	1177	1	poli_8sides 13_whiteLine3.jpg	Medium_e13_stereo_44KHz.wav
4	128	4	3	2	I	2	0	1366	1	poli_8sides 16_whiteLine3.jpg	Medium_e01_cut1_stereo_44KHz.wav
4	129	1	2	0	C	1	1	1103	1	poli_8sides 12_whiteLine3.jpg	Medium_e13_stereo_44KHz.wav
4	130	2	2	1	C	2	1	1480	1	poli_8sides 13_whiteLine3.jpg	Medium_e13_stereo_44KHz.wav
4	131	3	4	2	I	1	0	1676	1	poli_8sides 1_whiteLine3.jpg	Medium_e21_stereo_44KHz.wav
4	132	4	4	2	I	1	0	1572	0	poli_8sides 16_whiteLine3.jpg	Medium_e21_stereo_44KHz.wav
4	133	1	1	1	C	2	1	972	1	poli_8sides 12_whiteLine3.jpg	MediumLong_e19_stereo_44KHz.wav
4	134	3	3	2	I	2	0	672	0	poli_8sides 1_whiteLine3.jpg	Medium_e01_cut1_stereo_44KHz.wav
4	135	4	3	2	I	2	0	1037	0	poli_8sides 16_whiteLine3.jpg	Medium_e01_cut1_stereo_44KHz.wav
4	136	2	1	0	C	1	1	769	1	poli_8sides 13_whiteLine3.jpg	MediumLong_e19_stereo_44KHz.wav
4	137	4	4	2	I	1	0	1880	1	poli_8sides 16_whiteLine3.jpg	Medium_e21_stereo_44KHz.wav
4	138	1	1	1	C	2	1	814	1	poli_8sides 12_whiteLine3.jpg	MediumLong_e19_stereo_44KHz.wav
4	139	2	2	1	C	2	1	1034	1	poli_8sides 13_whiteLine3.jpg	Medium_e13_stereo_44KHz.wav
4	140	3	3	2	I	2	0	880	1	poli_8sides 1_whiteLine3.jpg	Medium_e01_cut1_stereo_44KHz.wav
4	141	1	2	0	C	1	1	693	1	poli_8sides 12_whiteLine3.jpg	Medium_e13_stereo_44KHz.wav
4	142	3	4	2	I	2	0	573	1	poli_8sides 1_whiteLine3.jpg	Medium_e21_stereo_44KHz.wav
4	143	4	3	2	I	2	0	791	1	poli_8sides 16_whiteLine3.jpg	Medium_e01_cut1_stereo_44KHz.wav
4	144	2	1	0	C	1	1	1423	1	poli_8sides 13_whiteLine3.jpg	MediumLong_e19_stereo_44KHz.wav
4	145	4	4	2	I	2	0	1097	0	poli_8sides 16_whiteLine3.jpg	Medium_e21_stereo_44KHz.wav
4	146	3	4	2	I	1	0	1133	0	poli_8sides 1_whiteLine3.jpg	Medium_e21_stereo_44KHz.wav
4	147	1	2	0	C	0	0	0	0	poli_8sides 12_whiteLine3.jpg	Medium_e13_stereo_44KHz.wav
4	148	2	1	0	C	1	1	1418	1	poli_8sides 13_whiteLine3.jpg	MediumLong_e19_stereo_44KHz.wav
4	149	3	3	2	I	2	0	1022	0	poli_8sides 1_whiteLine3.jpg	Medium_e01_cut1_stereo_44KHz.wav
4	150	2	2	1	C	1	0	1016	0	poli_8sides 13_whiteLine3.jpg	Medium_e13_stereo_44KHz.wav
4	151	4	3	2	I	2	0	927	1	poli_8sides 16_whiteLine3.jpg	Medium_e01_cut1_stereo_44KHz.wav
4	152	1	1	1	C	2	1	895	1	poli_8sides 12_whiteLine3.jpg	MediumLong_e19_stereo_44KHz.wav
4	153	2	1	0	C	2	0	607	0	poli_8sides 13_whiteLine3.jpg	MediumLong_e19_stereo_44KHz.wav
4	154	3	3	2	I	2	0	781	0	poli_8sides 1_whiteLine3.jpg	Medium_e01_cut1_stereo_44KHz.wav
4	155	1	1	1	C	2	1	932	1	poli_8sides 12_whiteLine3.jpg	MediumLong_e19_stereo_44KHz.wav
4	156	4	4	2	I	2	0	718	1	poli_8sides 16_whiteLine3.jpg	Medium_e21_stereo_44KHz.wav
4	157	2	2	1	C	2	1	690	1	poli_8sides 13_whiteLine3.jpg	Medium_e13_stereo_44KHz.wav
4	158	1	2	0	C	1	1	974	1	poli_8sides 12_whiteLine3.jpg	Medium_e13_stereo_44KHz.wav
4	159	4	3	2	I	2	0	777	1	poli_8sides 16_whiteLine3.jpg	Medium_e01_cut1_stereo_44KHz.wav
4	160	3	4	2	I	2	0	1209	1	poli_8sides 1_whiteLine3.jpg	Medium_e21_stereo_44KHz.wav
4	161	2	1	0	C	1	1	932	1	poli_8sides 13_whiteLine3.jpg	MediumLong_e19_stereo_44KHz.wav
4	162	1	1	1	C	2	1	1070	1	poli_8sides 12_whiteLine3.jpg	MediumLong_e19_stereo_44KHz.wav
4	163	3	4	2	I	2	0	1354	0	poli_8sides 1_whiteLine3.jpg	Medium_e21_stereo_44KHz.wav
4	164	4	4	2	I	2	0	1508	0	poli_8sides 16_whiteLine3.jpg	Medium_e21_stereo_44KHz.wav
4	165	2	2	1	C	1	0	741	0	poli_8sides 13_whiteLine3.jpg	Medium_e13_stereo_44KHz.wav
4	166	4	3	2	I	2	0	948	1	poli_8sides 16_whiteLine3.jpg	Medium_e01_cut1_stereo_44KHz.wav
4	167	1	2	0	C	1	1	718	1	poli_8sides 12_whiteLine3.jpg	Medium_e13_stereo_44KHz.wav
4	168	3	3	2	I	1	0	704	1	poli_8sides 1_whiteLine3.jpg	Medium_e01_cut1_stereo_44KHz.wav
4	169	4	4	2	I	2	0	749	0	poli_8sides 16_whiteLine3.jpg	Medium_e21_stereo_44KHz.wav
4	170	2	1	0	C	2	0	583	0	poli_8sides 13_whiteLine3.jpg	MediumLong_e19_stereo_44KHz.wav
4	171	1	1	1	C	2	1	770	1	poli_8sides 12_whiteLine3.jpg	MediumLong_e19_stereo_44KHz.wav
4	172	3	3	2	I	2	0	934	0	poli_8sides 1_whiteLine3.jpg	Medium_e01_cut1_stereo_44KHz.wav
4	173	1	2	0	C	1	1	1110	1	poli_8sides 12_whiteLine3.jpg	Medium_e13_stereo_44KHz.wav
4	174	3	4	2	I	1	0	851	0	poli_8sides 1_whiteLine3.jpg	Medium_e21_stereo_44KHz.wav
4	175	2	2	1	C	1	0	755	0	poli_8sides 13_whiteLine3.jpg	Medium_e13_stereo_44KHz.wav
4	176	4	3	2	I	2	0	1272	1	poli_8sides 16_whiteLine3.jpg	Medium_e01_cut1_stereo_44KHz.wav
4	177	1	1	1	C	1	0	816	0	poli_8sides 12_whiteLine3.jpg	MediumLong_e19_stereo_44KHz.wav
4	178	2	2	1	C	1	0	696	0	poli_8sides 13_whiteLine3.jpg	Medium_e13_stereo_44KHz.wav
4	179	3	3	2	I	1	0	640	1	poli_8sides 1_whiteLine3.jpg	Medium_e01_cut1_stereo_44KHz.wav
4	180	4	4	2	I	2	0	625	0	poli_8sides 16_whiteLine3.jpg	Medium_e21_stereo_44KHz.wav
4	181	3	4	2	I	1	0	544	1	poli_8sides 1_whiteLine3.jpg	Medium_e21_stereo_44KHz.wav
4	182	1	2	0	C	1	1	848	1	poli_8sides 12_whiteLine3.jpg	Medium_e13_stereo_44KHz.wav
4	183	4	3	2	I	1	0	766	1	poli_8sides 16_whiteLine3.jpg	Medium_e01_cut1_stereo_44KHz.wav
4	184	2	1	0	C	1	1	684	1	poli_8sides 13_whiteLine3.jpg	MediumLong_e19_stereo_44KHz.wav
4	185	1	2	0	C	1	1	899	1	poli_8sides 12_whiteLine3.jpg	Medium_e13_stereo_44KHz.wav
4	186	2	2	1	C	1	0	615	0	poli_8sides 13_whiteLine3.jpg	Medium_e13_stereo_44KHz.wav
4	187	4	3	2	I	2	0	704	0	poli_8sides 16_whiteLine3.jpg	Medium_e01_cut1_stereo_44KHz.wav
4	188	3	4	2	I	1	0	760	0	poli_8sides 1_whiteLine3.jpg	Medium_e21_stereo_44KHz.wav
4	189	1	1	1	C	2	1	957	1	poli_8sides 12_whiteLine3.jpg	MediumLong_e19_stereo_44KHz.wav
4	190	4	4	2	I	2	0	1131	0	poli_8sides 16_whiteLine3.jpg	Medium_e21_stereo_44KHz.wav
4	191	3	3	2	I	1	0	702	1	poli_8sides 1_whiteLine3.jpg	Medium_e01_cut1_stereo_44KHz.wav
4	192	2	1	0	C	1	1	900	1	poli_8sides 13_whiteLine3.jpg	MediumLong_e19_stereo_44KHz.wav
4	193	1	2	0	C	1	1	728	1	poli_8sides 12_whiteLine3.jpg	Medium_e13_stereo_44KHz.wav
4	194	4	4	2	I	1	0	772	1	poli_8sides 16_whiteLine3.jpg	Medium_e21_stereo_44KHz.wav
4	195	2	1	0	C	2	0	726	0	poli_8sides 13_whiteLine3.jpg	MediumLong_e19_stereo_44KHz.wav
4	196	3	3	2	I	1	0	707	1	poli_8sides 1_whiteLine3.jpg	Medium_e01_cut1_stereo_44KHz.wav
4	197	4	3	2	I	1	0	947	0	poli_8sides 16_whiteLine3.jpg	Medium_e01_cut1_stereo_44KHz.wav
4	198	1	1	1	C	2	1	846	1	poli_8sides 12_whiteLine3.jpg	MediumLong_e19_stereo_44KHz.wav
4	199	2	2	1	C	2	1	554	1	poli_8sides 13_whiteLine3.jpg	Medium_e13_stereo_44KHz.wav
4	200	3	4	2	I	1	0	669	1	poli_8sides 1_whiteLine3.jpg	Medium_e21_stereo_44KHz.wav
