block	trial	Vstim	Astim	match	C/I	resp	result	RT	fb	V-file	A-file
LR

0	1	2	3	1	C	2	1	1757	1	poli_8sides 24_whiteLine3.jpg	Practice3_b26_cut1_stereo_44KHz.wav
0	2	1	1	1	C	1	0	1056	0	poli_8sides 23_whiteLine3.jpg	Practice2_b27_cut2_stereo_44KHz.wav
0	3	2	4	0	C	1	1	888	1	poli_8sides 24_whiteLine3.jpg	Practice1_b27_cut1_stereo_44KHz.wav
0	4	1	2	0	C	1	1	870	1	poli_8sides 23_whiteLine3.jpg	Practice4_b26_stereo_44KHz.wav
0	5	2	3	1	C	1	0	810	0	poli_8sides 24_whiteLine3.jpg	Practice3_b26_cut1_stereo_44KHz.wav
0	6	1	1	1	C	1	0	758	0	poli_8sides 23_whiteLine3.jpg	Practice2_b27_cut2_stereo_44KHz.wav
0	7	1	2	0	C	1	1	849	1	poli_8sides 23_whiteLine3.jpg	Practice4_b26_stereo_44KHz.wav
0	8	2	4	0	C	1	1	611	1	poli_8sides 24_whiteLine3.jpg	Practice1_b27_cut1_stereo_44KHz.wav
0	9	2	3	1	C	1	0	534	0	poli_8sides 24_whiteLine3.jpg	Practice3_b26_cut1_stereo_44KHz.wav
0	10	1	2	0	C	1	1	772	1	poli_8sides 23_whiteLine3.jpg	Practice4_b26_stereo_44KHz.wav
0	11	1	1	1	C	2	1	1014	1	poli_8sides 23_whiteLine3.jpg	Practice2_b27_cut2_stereo_44KHz.wav
0	12	2	4	0	C	1	1	672	1	poli_8sides 24_whiteLine3.jpg	Practice1_b27_cut1_stereo_44KHz.wav
0	13	2	4	0	C	2	0	1119	0	poli_8sides 24_whiteLine3.jpg	Practice1_b27_cut1_stereo_44KHz.wav
0	14	2	3	1	C	1	0	523	0	poli_8sides 24_whiteLine3.jpg	Practice3_b26_cut1_stereo_44KHz.wav
0	15	1	2	0	C	1	1	772	1	poli_8sides 23_whiteLine3.jpg	Practice4_b26_stereo_44KHz.wav
0	16	1	1	1	C	2	1	831	1	poli_8sides 23_whiteLine3.jpg	Practice2_b27_cut2_stereo_44KHz.wav
0	17	2	4	0	C	2	0	1186	0	poli_8sides 24_whiteLine3.jpg	Practice1_b27_cut1_stereo_44KHz.wav
0	18	1	1	1	C	1	0	974	0	poli_8sides 23_whiteLine3.jpg	Practice2_b27_cut2_stereo_44KHz.wav
0	19	2	3	1	C	1	0	920	0	poli_8sides 24_whiteLine3.jpg	Practice3_b26_cut1_stereo_44KHz.wav
0	20	1	2	0	C	1	1	742	1	poli_8sides 23_whiteLine3.jpg	Practice4_b26_stereo_44KHz.wav
0	21	1	1	1	C	2	1	897	1	poli_8sides 23_whiteLine3.jpg	Practice2_b27_cut2_stereo_44KHz.wav
0	22	2	4	0	C	1	1	1072	1	poli_8sides 24_whiteLine3.jpg	Practice1_b27_cut1_stereo_44KHz.wav
0	23	2	3	1	C	2	1	1041	1	poli_8sides 24_whiteLine3.jpg	Practice3_b26_cut1_stereo_44KHz.wav
0	24	1	2	0	C	2	0	1373	0	poli_8sides 23_whiteLine3.jpg	Practice4_b26_stereo_44KHz.wav
0	25	2	3	1	C	2	1	1438	1	poli_8sides 24_whiteLine3.jpg	Practice3_b26_cut1_stereo_44KHz.wav
0	26	1	1	1	C	1	0	1006	0	poli_8sides 23_whiteLine3.jpg	Practice2_b27_cut2_stereo_44KHz.wav
0	27	2	4	0	C	1	1	1045	1	poli_8sides 24_whiteLine3.jpg	Practice1_b27_cut1_stereo_44KHz.wav
0	28	1	2	0	C	1	1	1742	1	poli_8sides 23_whiteLine3.jpg	Practice4_b26_stereo_44KHz.wav
0	29	1	2	0	C	1	1	1305	1	poli_8sides 23_whiteLine3.jpg	Practice4_b26_stereo_44KHz.wav
0	30	1	1	1	C	2	1	769	1	poli_8sides 23_whiteLine3.jpg	Practice2_b27_cut2_stereo_44KHz.wav
avg_resp = 1005
1	1	4	4	2	I	2	0	1503	0	poli_8sides 16_whiteLine3.jpg	Medium_e13_stereo_44KHz.wav
1	2	3	4	2	I	2	0	1193	1	poli_8sides 18_whiteLine3.jpg	Medium_e13_stereo_44KHz.wav
1	3	2	2	1	C	1	0	920	0	poli_8sides 7_whiteLine3.jpg	MediumLong_b10_cut2_L_stereo_44KHz.wav
1	4	1	1	1	C	1	0	1210	0	poli_8sides 10_whiteLine3.jpg	Medium_e26_stereo_44KHz.wav
1	5	4	3	2	I	1	0	861	0	poli_8sides 16_whiteLine3.jpg	MediumLong_e19_stereo_44KHz.wav
1	6	3	3	2	I	1	0	734	0	poli_8sides 18_whiteLine3.jpg	MediumLong_e19_stereo_44KHz.wav
1	7	1	2	0	C	1	1	735	1	poli_8sides 10_whiteLine3.jpg	MediumLong_b10_cut2_L_stereo_44KHz.wav
1	8	2	1	0	C	1	1	724	1	poli_8sides 7_whiteLine3.jpg	Medium_e26_stereo_44KHz.wav
1	9	3	4	2	I	1	0	805	1	poli_8sides 18_whiteLine3.jpg	Medium_e13_stereo_44KHz.wav
1	10	4	4	2	I	2	0	975	1	poli_8sides 16_whiteLine3.jpg	Medium_e13_stereo_44KHz.wav
1	11	2	2	1	C	1	0	815	0	poli_8sides 7_whiteLine3.jpg	MediumLong_b10_cut2_L_stereo_44KHz.wav
1	12	1	2	0	C	1	1	858	1	poli_8sides 10_whiteLine3.jpg	MediumLong_b10_cut2_L_stereo_44KHz.wav
1	13	3	3	2	I	1	0	730	1	poli_8sides 18_whiteLine3.jpg	MediumLong_e19_stereo_44KHz.wav
1	14	2	1	0	C	2	0	1317	0	poli_8sides 7_whiteLine3.jpg	Medium_e26_stereo_44KHz.wav
1	15	1	1	1	C	2	1	852	1	poli_8sides 10_whiteLine3.jpg	Medium_e26_stereo_44KHz.wav
1	16	4	3	2	I	1	0	1023	1	poli_8sides 16_whiteLine3.jpg	MediumLong_e19_stereo_44KHz.wav
1	17	3	3	2	I	2	0	867	0	poli_8sides 18_whiteLine3.jpg	MediumLong_e19_stereo_44KHz.wav
1	18	1	2	0	C	1	1	782	1	poli_8sides 10_whiteLine3.jpg	MediumLong_b10_cut2_L_stereo_44KHz.wav
1	19	4	3	2	I	1	0	1313	0	poli_8sides 16_whiteLine3.jpg	MediumLong_e19_stereo_44KHz.wav
1	20	2	2	1	C	1	0	1096	0	poli_8sides 7_whiteLine3.jpg	MediumLong_b10_cut2_L_stereo_44KHz.wav
1	21	4	4	2	I	2	0	896	1	poli_8sides 16_whiteLine3.jpg	Medium_e13_stereo_44KHz.wav
1	22	1	1	1	C	1	0	643	0	poli_8sides 10_whiteLine3.jpg	Medium_e26_stereo_44KHz.wav
1	23	2	1	0	C	1	1	1015	1	poli_8sides 7_whiteLine3.jpg	Medium_e26_stereo_44KHz.wav
1	24	3	4	2	I	1	0	921	0	poli_8sides 18_whiteLine3.jpg	Medium_e13_stereo_44KHz.wav
1	25	1	2	0	C	1	1	1107	1	poli_8sides 10_whiteLine3.jpg	MediumLong_b10_cut2_L_stereo_44KHz.wav
1	26	2	1	0	C	1	1	893	1	poli_8sides 7_whiteLine3.jpg	Medium_e26_stereo_44KHz.wav
1	27	4	3	2	I	1	0	830	1	poli_8sides 16_whiteLine3.jpg	MediumLong_e19_stereo_44KHz.wav
1	28	3	4	2	I	1	0	1059	1	poli_8sides 18_whiteLine3.jpg	Medium_e13_stereo_44KHz.wav
1	29	4	4	2	I	1	0	751	1	poli_8sides 16_whiteLine3.jpg	Medium_e13_stereo_44KHz.wav
1	30	2	2	1	C	1	0	1104	0	poli_8sides 7_whiteLine3.jpg	MediumLong_b10_cut2_L_stereo_44KHz.wav
1	31	3	3	2	I	1	0	803	1	poli_8sides 18_whiteLine3.jpg	MediumLong_e19_stereo_44KHz.wav
1	32	1	1	1	C	2	1	1134	1	poli_8sides 10_whiteLine3.jpg	Medium_e26_stereo_44KHz.wav
1	33	3	3	2	I	1	0	800	1	poli_8sides 18_whiteLine3.jpg	MediumLong_e19_stereo_44KHz.wav
1	34	1	1	1	C	2	1	989	1	poli_8sides 10_whiteLine3.jpg	Medium_e26_stereo_44KHz.wav
1	35	2	2	1	C	1	0	955	0	poli_8sides 7_whiteLine3.jpg	MediumLong_b10_cut2_L_stereo_44KHz.wav
1	36	4	4	2	I	1	0	958	1	poli_8sides 16_whiteLine3.jpg	Medium_e13_stereo_44KHz.wav
1	37	3	4	2	I	1	0	884	1	poli_8sides 18_whiteLine3.jpg	Medium_e13_stereo_44KHz.wav
1	38	2	1	0	C	2	0	1633	0	poli_8sides 7_whiteLine3.jpg	Medium_e26_stereo_44KHz.wav
1	39	4	3	2	I	1	0	1120	0	poli_8sides 16_whiteLine3.jpg	MediumLong_e19_stereo_44KHz.wav
1	40	1	2	0	C	1	1	970	1	poli_8sides 10_whiteLine3.jpg	MediumLong_b10_cut2_L_stereo_44KHz.wav
1	41	2	1	0	C	1	1	1200	1	poli_8sides 7_whiteLine3.jpg	Medium_e26_stereo_44KHz.wav
1	42	3	4	2	I	2	0	1283	0	poli_8sides 18_whiteLine3.jpg	Medium_e13_stereo_44KHz.wav
1	43	4	4	2	I	1	0	918	1	poli_8sides 16_whiteLine3.jpg	Medium_e13_stereo_44KHz.wav
1	44	1	2	0	C	1	1	1127	1	poli_8sides 10_whiteLine3.jpg	MediumLong_b10_cut2_L_stereo_44KHz.wav
1	45	4	3	2	I	1	0	1154	0	poli_8sides 16_whiteLine3.jpg	MediumLong_e19_stereo_44KHz.wav
1	46	2	2	1	C	2	1	1174	1	poli_8sides 7_whiteLine3.jpg	MediumLong_b10_cut2_L_stereo_44KHz.wav
1	47	3	3	2	I	1	0	967	1	poli_8sides 18_whiteLine3.jpg	MediumLong_e19_stereo_44KHz.wav
1	48	1	1	1	C	2	1	984	1	poli_8sides 10_whiteLine3.jpg	Medium_e26_stereo_44KHz.wav
1	49	4	3	2	I	1	0	802	1	poli_8sides 16_whiteLine3.jpg	MediumLong_e19_stereo_44KHz.wav
1	50	1	2	0	C	1	1	918	1	poli_8sides 10_whiteLine3.jpg	MediumLong_b10_cut2_L_stereo_44KHz.wav
1	51	3	4	2	I	2	0	852	0	poli_8sides 18_whiteLine3.jpg	Medium_e13_stereo_44KHz.wav
1	52	2	2	1	C	2	1	1344	1	poli_8sides 7_whiteLine3.jpg	MediumLong_b10_cut2_L_stereo_44KHz.wav
1	53	1	1	1	C	2	1	794	1	poli_8sides 10_whiteLine3.jpg	Medium_e26_stereo_44KHz.wav
1	54	2	1	0	C	1	1	1575	1	poli_8sides 7_whiteLine3.jpg	Medium_e26_stereo_44KHz.wav
1	55	4	4	2	I	1	0	912	0	poli_8sides 16_whiteLine3.jpg	Medium_e13_stereo_44KHz.wav
1	56	3	3	2	I	2	0	892	0	poli_8sides 18_whiteLine3.jpg	MediumLong_e19_stereo_44KHz.wav
1	57	2	2	1	C	2	1	1121	1	poli_8sides 7_whiteLine3.jpg	MediumLong_b10_cut2_L_stereo_44KHz.wav
1	58	3	4	2	I	1	0	990	0	poli_8sides 18_whiteLine3.jpg	Medium_e13_stereo_44KHz.wav
1	59	4	4	2	I	1	0	979	0	poli_8sides 16_whiteLine3.jpg	Medium_e13_stereo_44KHz.wav
1	60	1	1	1	C	2	1	1164	1	poli_8sides 10_whiteLine3.jpg	Medium_e26_stereo_44KHz.wav
1	61	3	3	2	I	1	0	898	1	poli_8sides 18_whiteLine3.jpg	MediumLong_e19_stereo_44KHz.wav
1	62	2	1	0	C	1	1	1020	1	poli_8sides 7_whiteLine3.jpg	Medium_e26_stereo_44KHz.wav
1	63	1	2	0	C	1	1	866	1	poli_8sides 10_whiteLine3.jpg	MediumLong_b10_cut2_L_stereo_44KHz.wav
1	64	4	3	2	I	1	0	872	0	poli_8sides 16_whiteLine3.jpg	MediumLong_e19_stereo_44KHz.wav
1	65	3	4	2	I	1	0	765	0	poli_8sides 18_whiteLine3.jpg	Medium_e13_stereo_44KHz.wav
1	66	4	4	2	I	1	0	759	1	poli_8sides 16_whiteLine3.jpg	Medium_e13_stereo_44KHz.wav
1	67	2	2	1	C	2	1	1098	1	poli_8sides 7_whiteLine3.jpg	MediumLong_b10_cut2_L_stereo_44KHz.wav
1	68	1	2	0	C	1	1	836	1	poli_8sides 10_whiteLine3.jpg	MediumLong_b10_cut2_L_stereo_44KHz.wav
1	69	4	3	2	I	1	0	862	0	poli_8sides 16_whiteLine3.jpg	MediumLong_e19_stereo_44KHz.wav
1	70	2	1	0	C	1	1	1034	1	poli_8sides 7_whiteLine3.jpg	Medium_e26_stereo_44KHz.wav
1	71	3	3	2	I	1	0	766	0	poli_8sides 18_whiteLine3.jpg	MediumLong_e19_stereo_44KHz.wav
1	72	1	1	1	C	2	1	980	1	poli_8sides 10_whiteLine3.jpg	Medium_e26_stereo_44KHz.wav
1	73	2	1	0	C	2	0	1258	0	poli_8sides 7_whiteLine3.jpg	Medium_e26_stereo_44KHz.wav
1	74	4	3	2	I	1	0	1198	0	poli_8sides 16_whiteLine3.jpg	MediumLong_e19_stereo_44KHz.wav
1	75	3	4	2	I	1	0	901	0	poli_8sides 18_whiteLine3.jpg	Medium_e13_stereo_44KHz.wav
1	76	1	1	1	C	2	1	974	1	poli_8sides 10_whiteLine3.jpg	Medium_e26_stereo_44KHz.wav
1	77	3	3	2	I	1	0	824	1	poli_8sides 18_whiteLine3.jpg	MediumLong_e19_stereo_44KHz.wav
1	78	4	4	2	I	1	0	823	0	poli_8sides 16_whiteLine3.jpg	Medium_e13_stereo_44KHz.wav
1	79	2	2	1	C	2	1	1099	1	poli_8sides 7_whiteLine3.jpg	MediumLong_b10_cut2_L_stereo_44KHz.wav
1	80	1	2	0	C	1	1	781	1	poli_8sides 10_whiteLine3.jpg	MediumLong_b10_cut2_L_stereo_44KHz.wav
1	81	3	4	2	I	1	0	800	0	poli_8sides 18_whiteLine3.jpg	Medium_e13_stereo_44KHz.wav
1	82	4	3	2	I	1	0	727	0	poli_8sides 16_whiteLine3.jpg	MediumLong_e19_stereo_44KHz.wav
1	83	2	1	0	C	2	0	1464	0	poli_8sides 7_whiteLine3.jpg	Medium_e26_stereo_44KHz.wav
1	84	1	1	1	C	2	1	991	1	poli_8sides 10_whiteLine3.jpg	Medium_e26_stereo_44KHz.wav
1	85	2	2	1	C	2	1	889	1	poli_8sides 7_whiteLine3.jpg	MediumLong_b10_cut2_L_stereo_44KHz.wav
1	86	3	3	2	I	1	0	861	1	poli_8sides 18_whiteLine3.jpg	MediumLong_e19_stereo_44KHz.wav
1	87	1	2	0	C	1	1	714	1	poli_8sides 10_whiteLine3.jpg	MediumLong_b10_cut2_L_stereo_44KHz.wav
1	88	4	4	2	I	1	0	875	1	poli_8sides 16_whiteLine3.jpg	Medium_e13_stereo_44KHz.wav
1	89	2	1	0	C	1	1	1075	1	poli_8sides 7_whiteLine3.jpg	Medium_e26_stereo_44KHz.wav
1	90	1	1	1	C	2	1	993	1	poli_8sides 10_whiteLine3.jpg	Medium_e26_stereo_44KHz.wav
1	91	3	3	2	I	1	0	913	0	poli_8sides 18_whiteLine3.jpg	MediumLong_e19_stereo_44KHz.wav
1	92	4	4	2	I	1	0	1041	0	poli_8sides 16_whiteLine3.jpg	Medium_e13_stereo_44KHz.wav
1	93	3	4	2	I	1	0	863	1	poli_8sides 18_whiteLine3.jpg	Medium_e13_stereo_44KHz.wav
1	94	2	2	1	C	2	1	857	1	poli_8sides 7_whiteLine3.jpg	MediumLong_b10_cut2_L_stereo_44KHz.wav
1	95	1	2	0	C	1	1	966	1	poli_8sides 10_whiteLine3.jpg	MediumLong_b10_cut2_L_stereo_44KHz.wav
1	96	4	3	2	I	1	0	1190	0	poli_8sides 16_whiteLine3.jpg	MediumLong_e19_stereo_44KHz.wav
1	97	3	4	2	I	1	0	773	0	poli_8sides 18_whiteLine3.jpg	Medium_e13_stereo_44KHz.wav
1	98	1	1	1	C	2	1	1221	1	poli_8sides 10_whiteLine3.jpg	Medium_e26_stereo_44KHz.wav
1	99	2	2	1	C	2	1	843	1	poli_8sides 7_whiteLine3.jpg	MediumLong_b10_cut2_L_stereo_44KHz.wav
1	100	4	3	2	I	1	0	813	1	poli_8sides 16_whiteLine3.jpg	MediumLong_e19_stereo_44KHz.wav
1	101	2	1	0	C	1	1	1114	1	poli_8sides 7_whiteLine3.jpg	Medium_e26_stereo_44KHz.wav
1	102	4	4	2	I	1	0	1200	0	poli_8sides 16_whiteLine3.jpg	Medium_e13_stereo_44KHz.wav
1	103	1	2	0	C	1	1	1230	1	poli_8sides 10_whiteLine3.jpg	MediumLong_b10_cut2_L_stereo_44KHz.wav
1	104	3	3	2	I	1	0	941	1	poli_8sides 18_whiteLine3.jpg	MediumLong_e19_stereo_44KHz.wav
1	105	2	2	1	C	2	1	1024	1	poli_8sides 7_whiteLine3.jpg	MediumLong_b10_cut2_L_stereo_44KHz.wav
1	106	1	1	1	C	2	1	789	1	poli_8sides 10_whiteLine3.jpg	Medium_e26_stereo_44KHz.wav
1	107	4	4	2	I	1	0	847	1	poli_8sides 16_whiteLine3.jpg	Medium_e13_stereo_44KHz.wav
1	108	3	4	2	I	2	0	1360	0	poli_8sides 18_whiteLine3.jpg	Medium_e13_stereo_44KHz.wav
1	109	1	2	0	C	1	1	1149	1	poli_8sides 10_whiteLine3.jpg	MediumLong_b10_cut2_L_stereo_44KHz.wav
1	110	2	1	0	C	2	0	1432	0	poli_8sides 7_whiteLine3.jpg	Medium_e26_stereo_44KHz.wav
1	111	3	3	2	I	1	0	778	1	poli_8sides 18_whiteLine3.jpg	MediumLong_e19_stereo_44KHz.wav
1	112	4	3	2	I	1	0	1064	1	poli_8sides 16_whiteLine3.jpg	MediumLong_e19_stereo_44KHz.wav
1	113	3	3	2	I	1	0	760	1	poli_8sides 18_whiteLine3.jpg	MediumLong_e19_stereo_44KHz.wav
1	114	1	1	1	C	2	1	706	1	poli_8sides 10_whiteLine3.jpg	Medium_e26_stereo_44KHz.wav
1	115	4	4	2	I	1	0	780	0	poli_8sides 16_whiteLine3.jpg	Medium_e13_stereo_44KHz.wav
1	116	2	1	0	C	1	1	1219	1	poli_8sides 7_whiteLine3.jpg	Medium_e26_stereo_44KHz.wav
1	117	1	2	0	C	1	1	719	1	poli_8sides 10_whiteLine3.jpg	MediumLong_b10_cut2_L_stereo_44KHz.wav
1	118	3	4	2	I	1	0	1013	1	poli_8sides 18_whiteLine3.jpg	Medium_e13_stereo_44KHz.wav
1	119	2	2	1	C	2	1	922	1	poli_8sides 7_whiteLine3.jpg	MediumLong_b10_cut2_L_stereo_44KHz.wav
1	120	4	3	2	I	1	0	871	1	poli_8sides 16_whiteLine3.jpg	MediumLong_e19_stereo_44KHz.wav
1	121	3	3	2	I	1	0	1064	1	poli_8sides 18_whiteLine3.jpg	MediumLong_e19_stereo_44KHz.wav
1	122	1	2	0	C	1	1	1272	1	poli_8sides 10_whiteLine3.jpg	MediumLong_b10_cut2_L_stereo_44KHz.wav
1	123	2	2	1	C	2	1	892	1	poli_8sides 7_whiteLine3.jpg	MediumLong_b10_cut2_L_stereo_44KHz.wav
1	124	4	4	2	I	1	0	845	1	poli_8sides 16_whiteLine3.jpg	Medium_e13_stereo_44KHz.wav
1	125	1	1	1	C	2	1	777	1	poli_8sides 10_whiteLine3.jpg	Medium_e26_stereo_44KHz.wav
1	126	2	1	0	C	2	0	1146	0	poli_8sides 7_whiteLine3.jpg	Medium_e26_stereo_44KHz.wav
1	127	4	3	2	I	1	0	687	0	poli_8sides 16_whiteLine3.jpg	MediumLong_e19_stereo_44KHz.wav
1	128	3	4	2	I	1	0	802	1	poli_8sides 18_whiteLine3.jpg	Medium_e13_stereo_44KHz.wav
1	129	1	2	0	C	1	1	709	1	poli_8sides 10_whiteLine3.jpg	MediumLong_b10_cut2_L_stereo_44KHz.wav
1	130	4	4	2	I	1	0	738	1	poli_8sides 16_whiteLine3.jpg	Medium_e13_stereo_44KHz.wav
1	131	2	2	1	C	2	1	1191	1	poli_8sides 7_whiteLine3.jpg	MediumLong_b10_cut2_L_stereo_44KHz.wav
1	132	3	4	2	I	1	0	887	0	poli_8sides 18_whiteLine3.jpg	Medium_e13_stereo_44KHz.wav
1	133	1	1	1	C	2	1	1556	1	poli_8sides 10_whiteLine3.jpg	Medium_e26_stereo_44KHz.wav
1	134	2	1	0	C	1	1	961	1	poli_8sides 7_whiteLine3.jpg	Medium_e26_stereo_44KHz.wav
1	135	4	3	2	I	1	0	1110	0	poli_8sides 16_whiteLine3.jpg	MediumLong_e19_stereo_44KHz.wav
1	136	3	3	2	I	1	0	1260	0	poli_8sides 18_whiteLine3.jpg	MediumLong_e19_stereo_44KHz.wav
1	137	2	1	0	C	1	1	1628	1	poli_8sides 7_whiteLine3.jpg	Medium_e26_stereo_44KHz.wav
1	138	4	3	2	I	1	0	940	1	poli_8sides 16_whiteLine3.jpg	MediumLong_e19_stereo_44KHz.wav
1	139	1	1	1	C	2	1	972	1	poli_8sides 10_whiteLine3.jpg	Medium_e26_stereo_44KHz.wav
1	140	3	3	2	I	1	0	726	0	poli_8sides 18_whiteLine3.jpg	MediumLong_e19_stereo_44KHz.wav
1	141	4	4	2	I	1	0	700	1	poli_8sides 16_whiteLine3.jpg	Medium_e13_stereo_44KHz.wav
1	142	3	4	2	I	1	0	736	0	poli_8sides 18_whiteLine3.jpg	Medium_e13_stereo_44KHz.wav
1	143	1	2	0	C	1	1	743	1	poli_8sides 10_whiteLine3.jpg	MediumLong_b10_cut2_L_stereo_44KHz.wav
1	144	2	2	1	C	2	1	942	1	poli_8sides 7_whiteLine3.jpg	MediumLong_b10_cut2_L_stereo_44KHz.wav
1	145	4	4	2	I	1	0	705	0	poli_8sides 16_whiteLine3.jpg	Medium_e13_stereo_44KHz.wav
1	146	2	1	0	C	1	1	995	1	poli_8sides 7_whiteLine3.jpg	Medium_e26_stereo_44KHz.wav
1	147	3	4	2	I	1	0	1222	0	poli_8sides 18_whiteLine3.jpg	Medium_e13_stereo_44KHz.wav
1	148	1	2	0	C	1	1	859	1	poli_8sides 10_whiteLine3.jpg	MediumLong_b10_cut2_L_stereo_44KHz.wav
1	149	2	2	1	C	2	1	761	1	poli_8sides 7_whiteLine3.jpg	MediumLong_b10_cut2_L_stereo_44KHz.wav
1	150	4	3	2	I	1	0	719	0	poli_8sides 16_whiteLine3.jpg	MediumLong_e19_stereo_44KHz.wav
1	151	1	1	1	C	2	1	961	1	poli_8sides 10_whiteLine3.jpg	Medium_e26_stereo_44KHz.wav
1	152	3	3	2	I	1	0	760	1	poli_8sides 18_whiteLine3.jpg	MediumLong_e19_stereo_44KHz.wav
1	153	1	1	1	C	2	1	1067	1	poli_8sides 10_whiteLine3.jpg	Medium_e26_stereo_44KHz.wav
1	154	2	2	1	C	2	1	1354	1	poli_8sides 7_whiteLine3.jpg	MediumLong_b10_cut2_L_stereo_44KHz.wav
1	155	3	4	2	I	1	0	732	1	poli_8sides 18_whiteLine3.jpg	Medium_e13_stereo_44KHz.wav
1	156	4	4	2	I	1	0	1362	1	poli_8sides 16_whiteLine3.jpg	Medium_e13_stereo_44KHz.wav
1	157	2	1	0	C	1	1	1358	1	poli_8sides 7_whiteLine3.jpg	Medium_e26_stereo_44KHz.wav
1	158	1	2	0	C	1	1	994	1	poli_8sides 10_whiteLine3.jpg	MediumLong_b10_cut2_L_stereo_44KHz.wav
1	159	4	3	2	I	1	0	1047	1	poli_8sides 16_whiteLine3.jpg	MediumLong_e19_stereo_44KHz.wav
1	160	3	3	2	I	1	0	1482	1	poli_8sides 18_whiteLine3.jpg	MediumLong_e19_stereo_44KHz.wav
1	161	2	2	1	C	2	1	1028	1	poli_8sides 7_whiteLine3.jpg	MediumLong_b10_cut2_L_stereo_44KHz.wav
1	162	4	3	2	I	1	0	1521	0	poli_8sides 16_whiteLine3.jpg	MediumLong_e19_stereo_44KHz.wav
1	163	3	3	2	I	1	0	1142	1	poli_8sides 18_whiteLine3.jpg	MediumLong_e19_stereo_44KHz.wav
1	164	1	2	0	C	1	1	1214	1	poli_8sides 10_whiteLine3.jpg	MediumLong_b10_cut2_L_stereo_44KHz.wav
1	165	3	4	2	I	1	0	820	0	poli_8sides 18_whiteLine3.jpg	Medium_e13_stereo_44KHz.wav
1	166	4	4	2	I	1	0	739	1	poli_8sides 16_whiteLine3.jpg	Medium_e13_stereo_44KHz.wav
1	167	2	1	0	C	1	1	1574	1	poli_8sides 7_whiteLine3.jpg	Medium_e26_stereo_44KHz.wav
1	168	1	1	1	C	2	1	1209	1	poli_8sides 10_whiteLine3.jpg	Medium_e26_stereo_44KHz.wav
1	169	3	4	2	I	1	0	1127	0	poli_8sides 18_whiteLine3.jpg	Medium_e13_stereo_44KHz.wav
1	170	2	2	1	C	2	1	1193	1	poli_8sides 7_whiteLine3.jpg	MediumLong_b10_cut2_L_stereo_44KHz.wav
1	171	4	4	2	I	1	0	1516	1	poli_8sides 16_whiteLine3.jpg	Medium_e13_stereo_44KHz.wav
1	172	1	1	1	C	2	1	861	1	poli_8sides 10_whiteLine3.jpg	Medium_e26_stereo_44KHz.wav
1	173	4	3	2	I	0	0	0	0	poli_8sides 16_whiteLine3.jpg	MediumLong_e19_stereo_44KHz.wav
1	174	3	3	2	I	1	0	707	1	poli_8sides 18_whiteLine3.jpg	MediumLong_e19_stereo_44KHz.wav
1	175	1	2	0	C	1	1	777	1	poli_8sides 10_whiteLine3.jpg	MediumLong_b10_cut2_L_stereo_44KHz.wav
1	176	2	1	0	C	1	1	1267	1	poli_8sides 7_whiteLine3.jpg	Medium_e26_stereo_44KHz.wav
1	177	4	3	2	I	1	0	908	0	poli_8sides 16_whiteLine3.jpg	MediumLong_e19_stereo_44KHz.wav
1	178	3	4	2	I	1	0	715	0	poli_8sides 18_whiteLine3.jpg	Medium_e13_stereo_44KHz.wav
1	179	2	1	0	C	1	1	764	1	poli_8sides 7_whiteLine3.jpg	Medium_e26_stereo_44KHz.wav
1	180	1	1	1	C	2	1	814	1	poli_8sides 10_whiteLine3.jpg	Medium_e26_stereo_44KHz.wav
1	181	2	2	1	C	2	1	990	1	poli_8sides 7_whiteLine3.jpg	MediumLong_b10_cut2_L_stereo_44KHz.wav
1	182	4	4	2	I	1	0	809	0	poli_8sides 16_whiteLine3.jpg	Medium_e13_stereo_44KHz.wav
1	183	3	3	2	I	1	0	720	1	poli_8sides 18_whiteLine3.jpg	MediumLong_e19_stereo_44KHz.wav
1	184	1	2	0	C	1	1	1065	1	poli_8sides 10_whiteLine3.jpg	MediumLong_b10_cut2_L_stereo_44KHz.wav
1	185	3	3	2	I	1	0	723	1	poli_8sides 18_whiteLine3.jpg	MediumLong_e19_stereo_44KHz.wav
1	186	2	1	0	C	1	1	1059	1	poli_8sides 7_whiteLine3.jpg	Medium_e26_stereo_44KHz.wav
1	187	1	2	0	C	1	1	613	1	poli_8sides 10_whiteLine3.jpg	MediumLong_b10_cut2_L_stereo_44KHz.wav
1	188	4	4	2	I	1	0	688	0	poli_8sides 16_whiteLine3.jpg	Medium_e13_stereo_44KHz.wav
1	189	1	1	1	C	2	1	1048	1	poli_8sides 10_whiteLine3.jpg	Medium_e26_stereo_44KHz.wav
1	190	4	3	2	I	1	0	1262	1	poli_8sides 16_whiteLine3.jpg	MediumLong_e19_stereo_44KHz.wav
1	191	3	4	2	I	1	0	701	0	poli_8sides 18_whiteLine3.jpg	Medium_e13_stereo_44KHz.wav
1	192	2	2	1	C	2	1	977	1	poli_8sides 7_whiteLine3.jpg	MediumLong_b10_cut2_L_stereo_44KHz.wav
1	193	1	2	0	C	1	1	606	1	poli_8sides 10_whiteLine3.jpg	MediumLong_b10_cut2_L_stereo_44KHz.wav
1	194	2	1	0	C	1	1	951	1	poli_8sides 7_whiteLine3.jpg	Medium_e26_stereo_44KHz.wav
1	195	3	3	2	I	1	0	671	0	poli_8sides 18_whiteLine3.jpg	MediumLong_e19_stereo_44KHz.wav
1	196	4	3	2	I	1	0	903	1	poli_8sides 16_whiteLine3.jpg	MediumLong_e19_stereo_44KHz.wav
1	197	3	4	2	I	1	0	1201	0	poli_8sides 18_whiteLine3.jpg	Medium_e13_stereo_44KHz.wav
1	198	4	4	2	I	1	0	668	0	poli_8sides 16_whiteLine3.jpg	Medium_e13_stereo_44KHz.wav
1	199	2	2	1	C	2	1	1035	1	poli_8sides 7_whiteLine3.jpg	MediumLong_b10_cut2_L_stereo_44KHz.wav
1	200	1	1	1	C	2	1	828	1	poli_8sides 10_whiteLine3.jpg	Medium_e26_stereo_44KHz.wav
2	1	2	2	1	C	2	1	1665	1	poli_8sides 9_whiteLine3.jpg	Medium_e01_cut1_stereo_44KHz.wav
2	2	3	4	2	I	1	0	811	0	poli_8sides 8_whiteLine3.jpg	Medium_e21_stereo_44KHz.wav
2	3	1	1	1	C	1	0	723	0	poli_8sides 13_whiteLine3.jpg	MediumLong_e17_cut2_stereo_44KHz.wav
2	4	4	4	2	I	1	0	660	1	poli_8sides 4_whiteLine3.jpg	Medium_e21_stereo_44KHz.wav
2	5	1	2	0	C	1	1	697	1	poli_8sides 13_whiteLine3.jpg	Medium_e01_cut1_stereo_44KHz.wav
2	6	2	1	0	C	1	1	555	1	poli_8sides 9_whiteLine3.jpg	MediumLong_e17_cut2_stereo_44KHz.wav
2	7	4	3	2	I	1	0	589	1	poli_8sides 4_whiteLine3.jpg	MediumLong_e04_stereo_44KHz.wav
2	8	3	3	2	I	2	0	715	0	poli_8sides 8_whiteLine3.jpg	MediumLong_e04_stereo_44KHz.wav
2	9	2	1	0	C	1	1	650	1	poli_8sides 9_whiteLine3.jpg	MediumLong_e17_cut2_stereo_44KHz.wav
2	10	3	3	2	I	1	0	1116	0	poli_8sides 8_whiteLine3.jpg	MediumLong_e04_stereo_44KHz.wav
2	11	4	4	2	I	1	0	600	1	poli_8sides 4_whiteLine3.jpg	Medium_e21_stereo_44KHz.wav
2	12	1	1	1	C	1	0	420	0	poli_8sides 13_whiteLine3.jpg	MediumLong_e17_cut2_stereo_44KHz.wav
2	13	4	3	2	I	2	0	583	0	poli_8sides 4_whiteLine3.jpg	MediumLong_e04_stereo_44KHz.wav
2	14	1	2	0	C	1	1	591	1	poli_8sides 13_whiteLine3.jpg	Medium_e01_cut1_stereo_44KHz.wav
2	15	2	2	1	C	2	1	724	1	poli_8sides 9_whiteLine3.jpg	Medium_e01_cut1_stereo_44KHz.wav
2	16	3	4	2	I	1	0	640	0	poli_8sides 8_whiteLine3.jpg	Medium_e21_stereo_44KHz.wav
2	17	1	1	1	C	1	0	703	0	poli_8sides 13_whiteLine3.jpg	MediumLong_e17_cut2_stereo_44KHz.wav
2	18	4	4	2	I	1	0	710	1	poli_8sides 4_whiteLine3.jpg	Medium_e21_stereo_44KHz.wav
2	19	3	4	2	I	2	0	650	0	poli_8sides 8_whiteLine3.jpg	Medium_e21_stereo_44KHz.wav
2	20	2	1	0	C	1	1	663	1	poli_8sides 9_whiteLine3.jpg	MediumLong_e17_cut2_stereo_44KHz.wav
2	21	1	2	0	C	2	0	691	0	poli_8sides 13_whiteLine3.jpg	Medium_e01_cut1_stereo_44KHz.wav
2	22	4	3	2	I	1	0	772	1	poli_8sides 4_whiteLine3.jpg	MediumLong_e04_stereo_44KHz.wav
2	23	2	2	1	C	2	1	876	1	poli_8sides 9_whiteLine3.jpg	Medium_e01_cut1_stereo_44KHz.wav
2	24	3	3	2	I	2	0	911	1	poli_8sides 8_whiteLine3.jpg	MediumLong_e04_stereo_44KHz.wav
2	25	1	2	0	C	1	1	851	1	poli_8sides 13_whiteLine3.jpg	Medium_e01_cut1_stereo_44KHz.wav
2	26	4	3	2	I	1	0	672	1	poli_8sides 4_whiteLine3.jpg	MediumLong_e04_stereo_44KHz.wav
2	27	3	4	2	I	2	0	825	0	poli_8sides 8_whiteLine3.jpg	Medium_e21_stereo_44KHz.wav
2	28	2	1	0	C	1	1	922	1	poli_8sides 9_whiteLine3.jpg	MediumLong_e17_cut2_stereo_44KHz.wav
2	29	4	4	2	I	2	0	950	1	poli_8sides 4_whiteLine3.jpg	Medium_e21_stereo_44KHz.wav
2	30	3	3	2	I	2	0	995	0	poli_8sides 8_whiteLine3.jpg	MediumLong_e04_stereo_44KHz.wav
2	31	1	1	1	C	1	0	753	0	poli_8sides 13_whiteLine3.jpg	MediumLong_e17_cut2_stereo_44KHz.wav
2	32	2	2	1	C	1	0	969	0	poli_8sides 9_whiteLine3.jpg	Medium_e01_cut1_stereo_44KHz.wav
2	33	1	1	1	C	1	0	659	0	poli_8sides 13_whiteLine3.jpg	MediumLong_e17_cut2_stereo_44KHz.wav
2	34	4	3	2	I	1	0	660	1	poli_8sides 4_whiteLine3.jpg	MediumLong_e04_stereo_44KHz.wav
2	35	2	2	1	C	1	0	922	0	poli_8sides 9_whiteLine3.jpg	Medium_e01_cut1_stereo_44KHz.wav
2	36	3	4	2	I	1	0	670	0	poli_8sides 8_whiteLine3.jpg	Medium_e21_stereo_44KHz.wav
2	37	4	4	2	I	2	0	486	0	poli_8sides 4_whiteLine3.jpg	Medium_e21_stereo_44KHz.wav
2	38	2	1	0	C	1	1	729	1	poli_8sides 9_whiteLine3.jpg	MediumLong_e17_cut2_stereo_44KHz.wav
2	39	1	2	0	C	2	0	1032	0	poli_8sides 13_whiteLine3.jpg	Medium_e01_cut1_stereo_44KHz.wav
2	40	3	3	2	I	1	0	756	1	poli_8sides 8_whiteLine3.jpg	MediumLong_e04_stereo_44KHz.wav
2	41	2	2	1	C	2	1	1342	1	poli_8sides 9_whiteLine3.jpg	Medium_e01_cut1_stereo_44KHz.wav
2	42	4	4	2	I	2	0	905	0	poli_8sides 4_whiteLine3.jpg	Medium_e21_stereo_44KHz.wav
2	43	3	3	2	I	2	0	1158	1	poli_8sides 8_whiteLine3.jpg	MediumLong_e04_stereo_44KHz.wav
2	44	1	2	0	C	1	1	745	1	poli_8sides 13_whiteLine3.jpg	Medium_e01_cut1_stereo_44KHz.wav
2	45	3	4	2	I	2	0	861	1	poli_8sides 8_whiteLine3.jpg	Medium_e21_stereo_44KHz.wav
2	46	4	3	2	I	1	0	777	1	poli_8sides 4_whiteLine3.jpg	MediumLong_e04_stereo_44KHz.wav
2	47	2	1	0	C	2	0	945	0	poli_8sides 9_whiteLine3.jpg	MediumLong_e17_cut2_stereo_44KHz.wav
2	48	1	1	1	C	2	1	1012	1	poli_8sides 13_whiteLine3.jpg	MediumLong_e17_cut2_stereo_44KHz.wav
2	49	4	4	2	I	2	0	1061	0	poli_8sides 4_whiteLine3.jpg	Medium_e21_stereo_44KHz.wav
2	50	2	2	1	C	1	0	803	0	poli_8sides 9_whiteLine3.jpg	Medium_e01_cut1_stereo_44KHz.wav
2	51	1	1	1	C	2	1	996	1	poli_8sides 13_whiteLine3.jpg	MediumLong_e17_cut2_stereo_44KHz.wav
2	52	3	3	2	I	1	0	1129	0	poli_8sides 8_whiteLine3.jpg	MediumLong_e04_stereo_44KHz.wav
2	53	4	3	2	I	1	0	670	1	poli_8sides 4_whiteLine3.jpg	MediumLong_e04_stereo_44KHz.wav
2	54	3	4	2	I	2	0	706	1	poli_8sides 8_whiteLine3.jpg	Medium_e21_stereo_44KHz.wav
2	55	1	2	0	C	1	1	739	1	poli_8sides 13_whiteLine3.jpg	Medium_e01_cut1_stereo_44KHz.wav
2	56	2	1	0	C	1	1	994	1	poli_8sides 9_whiteLine3.jpg	MediumLong_e17_cut2_stereo_44KHz.wav
2	57	3	4	2	I	1	0	815	1	poli_8sides 8_whiteLine3.jpg	Medium_e21_stereo_44KHz.wav
2	58	1	1	1	C	2	1	1175	1	poli_8sides 13_whiteLine3.jpg	MediumLong_e17_cut2_stereo_44KHz.wav
2	59	2	1	0	C	1	1	911	1	poli_8sides 9_whiteLine3.jpg	MediumLong_e17_cut2_stereo_44KHz.wav
2	60	4	3	2	I	1	0	761	0	poli_8sides 4_whiteLine3.jpg	MediumLong_e04_stereo_44KHz.wav
2	61	2	2	1	C	2	1	979	1	poli_8sides 9_whiteLine3.jpg	Medium_e01_cut1_stereo_44KHz.wav
2	62	3	3	2	I	1	0	903	1	poli_8sides 8_whiteLine3.jpg	MediumLong_e04_stereo_44KHz.wav
2	63	1	2	0	C	1	1	764	1	poli_8sides 13_whiteLine3.jpg	Medium_e01_cut1_stereo_44KHz.wav
2	64	4	4	2	I	2	0	764	0	poli_8sides 4_whiteLine3.jpg	Medium_e21_stereo_44KHz.wav
2	65	2	1	0	C	1	1	923	1	poli_8sides 9_whiteLine3.jpg	MediumLong_e17_cut2_stereo_44KHz.wav
2	66	4	3	2	I	1	0	795	0	poli_8sides 4_whiteLine3.jpg	MediumLong_e04_stereo_44KHz.wav
2	67	3	3	2	I	1	0	684	0	poli_8sides 8_whiteLine3.jpg	MediumLong_e04_stereo_44KHz.wav
2	68	1	2	0	C	1	1	939	1	poli_8sides 13_whiteLine3.jpg	Medium_e01_cut1_stereo_44KHz.wav
2	69	4	4	2	I	1	0	960	0	poli_8sides 4_whiteLine3.jpg	Medium_e21_stereo_44KHz.wav
2	70	2	2	1	C	2	1	897	1	poli_8sides 9_whiteLine3.jpg	Medium_e01_cut1_stereo_44KHz.wav
2	71	1	1	1	C	2	1	917	1	poli_8sides 13_whiteLine3.jpg	MediumLong_e17_cut2_stereo_44KHz.wav
2	72	3	4	2	I	2	0	1183	0	poli_8sides 8_whiteLine3.jpg	Medium_e21_stereo_44KHz.wav
2	73	2	1	0	C	1	1	860	1	poli_8sides 9_whiteLine3.jpg	MediumLong_e17_cut2_stereo_44KHz.wav
2	74	4	4	2	I	1	0	1286	0	poli_8sides 4_whiteLine3.jpg	Medium_e21_stereo_44KHz.wav
2	75	1	2	0	C	1	1	669	1	poli_8sides 13_whiteLine3.jpg	Medium_e01_cut1_stereo_44KHz.wav
2	76	3	3	2	I	1	0	881	1	poli_8sides 8_whiteLine3.jpg	MediumLong_e04_stereo_44KHz.wav
2	77	4	3	2	I	1	0	1023	0	poli_8sides 4_whiteLine3.jpg	MediumLong_e04_stereo_44KHz.wav
2	78	3	4	2	I	1	0	1049	1	poli_8sides 8_whiteLine3.jpg	Medium_e21_stereo_44KHz.wav
2	79	2	2	1	C	2	1	847	1	poli_8sides 9_whiteLine3.jpg	Medium_e01_cut1_stereo_44KHz.wav
2	80	1	1	1	C	2	1	1480	1	poli_8sides 13_whiteLine3.jpg	MediumLong_e17_cut2_stereo_44KHz.wav
2	81	3	3	2	I	1	0	726	0	poli_8sides 8_whiteLine3.jpg	MediumLong_e04_stereo_44KHz.wav
2	82	2	1	0	C	1	1	1486	1	poli_8sides 9_whiteLine3.jpg	MediumLong_e17_cut2_stereo_44KHz.wav
2	83	4	4	2	I	1	0	752	1	poli_8sides 4_whiteLine3.jpg	Medium_e21_stereo_44KHz.wav
2	84	1	1	1	C	1	0	751	0	poli_8sides 13_whiteLine3.jpg	MediumLong_e17_cut2_stereo_44KHz.wav
2	85	2	2	1	C	2	1	853	1	poli_8sides 9_whiteLine3.jpg	Medium_e01_cut1_stereo_44KHz.wav
2	86	1	2	0	C	1	1	1371	1	poli_8sides 13_whiteLine3.jpg	Medium_e01_cut1_stereo_44KHz.wav
2	87	3	4	2	I	1	0	1164	1	poli_8sides 8_whiteLine3.jpg	Medium_e21_stereo_44KHz.wav
2	88	4	3	2	I	1	0	1025	0	poli_8sides 4_whiteLine3.jpg	MediumLong_e04_stereo_44KHz.wav
2	89	3	3	2	I	1	0	814	1	poli_8sides 8_whiteLine3.jpg	MediumLong_e04_stereo_44KHz.wav
2	90	2	2	1	C	2	1	1039	1	poli_8sides 9_whiteLine3.jpg	Medium_e01_cut1_stereo_44KHz.wav
2	91	4	3	2	I	1	0	795	1	poli_8sides 4_whiteLine3.jpg	MediumLong_e04_stereo_44KHz.wav
2	92	1	2	0	C	1	1	849	1	poli_8sides 13_whiteLine3.jpg	Medium_e01_cut1_stereo_44KHz.wav
2	93	4	4	2	I	1	0	830	1	poli_8sides 4_whiteLine3.jpg	Medium_e21_stereo_44KHz.wav
2	94	3	4	2	I	1	0	772	1	poli_8sides 8_whiteLine3.jpg	Medium_e21_stereo_44KHz.wav
2	95	1	1	1	C	2	1	1268	1	poli_8sides 13_whiteLine3.jpg	MediumLong_e17_cut2_stereo_44KHz.wav
2	96	2	1	0	C	1	1	1185	1	poli_8sides 9_whiteLine3.jpg	MediumLong_e17_cut2_stereo_44KHz.wav
2	97	3	3	2	I	1	0	990	1	poli_8sides 8_whiteLine3.jpg	MediumLong_e04_stereo_44KHz.wav
2	98	1	2	0	C	1	1	866	1	poli_8sides 13_whiteLine3.jpg	Medium_e01_cut1_stereo_44KHz.wav
2	99	4	4	2	I	1	0	1045	0	poli_8sides 4_whiteLine3.jpg	Medium_e21_stereo_44KHz.wav
2	100	2	2	1	C	2	1	1300	1	poli_8sides 9_whiteLine3.jpg	Medium_e01_cut1_stereo_44KHz.wav
2	101	3	4	2	I	1	0	1062	1	poli_8sides 8_whiteLine3.jpg	Medium_e21_stereo_44KHz.wav
2	102	4	3	2	I	1	0	758	0	poli_8sides 4_whiteLine3.jpg	MediumLong_e04_stereo_44KHz.wav
2	103	1	1	1	C	2	1	1386	1	poli_8sides 13_whiteLine3.jpg	MediumLong_e17_cut2_stereo_44KHz.wav
2	104	2	1	0	C	1	1	1173	1	poli_8sides 9_whiteLine3.jpg	MediumLong_e17_cut2_stereo_44KHz.wav
2	105	1	2	0	C	1	1	853	1	poli_8sides 13_whiteLine3.jpg	Medium_e01_cut1_stereo_44KHz.wav
2	106	3	4	2	I	1	0	1132	0	poli_8sides 8_whiteLine3.jpg	Medium_e21_stereo_44KHz.wav
2	107	4	4	2	I	1	0	874	1	poli_8sides 4_whiteLine3.jpg	Medium_e21_stereo_44KHz.wav
2	108	2	1	0	C	1	1	1703	1	poli_8sides 9_whiteLine3.jpg	MediumLong_e17_cut2_stereo_44KHz.wav
2	109	4	3	2	I	1	0	1229	0	poli_8sides 4_whiteLine3.jpg	MediumLong_e04_stereo_44KHz.wav
2	110	3	3	2	I	1	0	691	0	poli_8sides 8_whiteLine3.jpg	MediumLong_e04_stereo_44KHz.wav
2	111	2	2	1	C	2	1	1207	1	poli_8sides 9_whiteLine3.jpg	Medium_e01_cut1_stereo_44KHz.wav
2	112	1	1	1	C	2	1	947	1	poli_8sides 13_whiteLine3.jpg	MediumLong_e17_cut2_stereo_44KHz.wav
2	113	4	4	2	I	1	0	1457	1	poli_8sides 4_whiteLine3.jpg	Medium_e21_stereo_44KHz.wav
2	114	2	1	0	C	1	1	1502	1	poli_8sides 9_whiteLine3.jpg	MediumLong_e17_cut2_stereo_44KHz.wav
2	115	3	4	2	I	1	0	1141	1	poli_8sides 8_whiteLine3.jpg	Medium_e21_stereo_44KHz.wav
2	116	1	1	1	C	1	0	1610	0	poli_8sides 13_whiteLine3.jpg	MediumLong_e17_cut2_stereo_44KHz.wav
2	117	4	3	2	I	1	0	766	0	poli_8sides 4_whiteLine3.jpg	MediumLong_e04_stereo_44KHz.wav
2	118	3	3	2	I	1	0	765	1	poli_8sides 8_whiteLine3.jpg	MediumLong_e04_stereo_44KHz.wav
2	119	1	2	0	C	1	1	889	1	poli_8sides 13_whiteLine3.jpg	Medium_e01_cut1_stereo_44KHz.wav
2	120	2	2	1	C	2	1	1086	1	poli_8sides 9_whiteLine3.jpg	Medium_e01_cut1_stereo_44KHz.wav
2	121	4	3	2	I	1	0	730	0	poli_8sides 4_whiteLine3.jpg	MediumLong_e04_stereo_44KHz.wav
2	122	3	4	2	I	1	0	808	0	poli_8sides 8_whiteLine3.jpg	Medium_e21_stereo_44KHz.wav
2	123	1	2	0	C	1	1	963	1	poli_8sides 13_whiteLine3.jpg	Medium_e01_cut1_stereo_44KHz.wav
2	124	2	2	1	C	2	1	679	1	poli_8sides 9_whiteLine3.jpg	Medium_e01_cut1_stereo_44KHz.wav
2	125	1	1	1	C	2	1	1526	1	poli_8sides 13_whiteLine3.jpg	MediumLong_e17_cut2_stereo_44KHz.wav
2	126	4	4	2	I	2	0	952	0	poli_8sides 4_whiteLine3.jpg	Medium_e21_stereo_44KHz.wav
2	127	2	1	0	C	2	0	1074	0	poli_8sides 9_whiteLine3.jpg	MediumLong_e17_cut2_stereo_44KHz.wav
2	128	3	3	2	I	1	0	856	1	poli_8sides 8_whiteLine3.jpg	MediumLong_e04_stereo_44KHz.wav
2	129	2	1	0	C	2	0	1585	0	poli_8sides 9_whiteLine3.jpg	MediumLong_e17_cut2_stereo_44KHz.wav
2	130	3	4	2	I	1	0	819	0	poli_8sides 8_whiteLine3.jpg	Medium_e21_stereo_44KHz.wav
2	131	1	2	0	C	1	1	668	1	poli_8sides 13_whiteLine3.jpg	Medium_e01_cut1_stereo_44KHz.wav
2	132	4	3	2	I	1	0	713	0	poli_8sides 4_whiteLine3.jpg	MediumLong_e04_stereo_44KHz.wav
2	133	3	3	2	I	1	0	730	0	poli_8sides 8_whiteLine3.jpg	MediumLong_e04_stereo_44KHz.wav
2	134	2	2	1	C	2	1	921	1	poli_8sides 9_whiteLine3.jpg	Medium_e01_cut1_stereo_44KHz.wav
2	135	4	4	2	I	1	0	964	1	poli_8sides 4_whiteLine3.jpg	Medium_e21_stereo_44KHz.wav
2	136	1	1	1	C	2	1	1572	1	poli_8sides 13_whiteLine3.jpg	MediumLong_e17_cut2_stereo_44KHz.wav
2	137	2	2	1	C	2	1	1113	1	poli_8sides 9_whiteLine3.jpg	Medium_e01_cut1_stereo_44KHz.wav
2	138	3	3	2	I	1	0	966	0	poli_8sides 8_whiteLine3.jpg	MediumLong_e04_stereo_44KHz.wav
2	139	1	2	0	C	1	1	843	1	poli_8sides 13_whiteLine3.jpg	Medium_e01_cut1_stereo_44KHz.wav
2	140	4	4	2	I	1	0	681	1	poli_8sides 4_whiteLine3.jpg	Medium_e21_stereo_44KHz.wav
2	141	3	4	2	I	1	0	885	0	poli_8sides 8_whiteLine3.jpg	Medium_e21_stereo_44KHz.wav
2	142	1	1	1	C	2	1	1115	1	poli_8sides 13_whiteLine3.jpg	MediumLong_e17_cut2_stereo_44KHz.wav
2	143	2	1	0	C	1	1	1487	1	poli_8sides 9_whiteLine3.jpg	MediumLong_e17_cut2_stereo_44KHz.wav
2	144	4	3	2	I	1	0	841	1	poli_8sides 4_whiteLine3.jpg	MediumLong_e04_stereo_44KHz.wav
2	145	1	1	1	C	2	1	1314	1	poli_8sides 13_whiteLine3.jpg	MediumLong_e17_cut2_stereo_44KHz.wav
2	146	2	2	1	C	2	1	1199	1	poli_8sides 9_whiteLine3.jpg	Medium_e01_cut1_stereo_44KHz.wav
2	147	4	3	2	I	1	0	725	1	poli_8sides 4_whiteLine3.jpg	MediumLong_e04_stereo_44KHz.wav
2	148	3	4	2	I	0	0	0	0	poli_8sides 8_whiteLine3.jpg	Medium_e21_stereo_44KHz.wav
2	149	2	1	0	C	1	1	1456	1	poli_8sides 9_whiteLine3.jpg	MediumLong_e17_cut2_stereo_44KHz.wav
2	150	3	3	2	I	1	0	992	1	poli_8sides 8_whiteLine3.jpg	MediumLong_e04_stereo_44KHz.wav
2	151	1	2	0	C	1	1	950	1	poli_8sides 13_whiteLine3.jpg	Medium_e01_cut1_stereo_44KHz.wav
2	152	4	4	2	I	0	0	0	0	poli_8sides 4_whiteLine3.jpg	Medium_e21_stereo_44KHz.wav
2	153	2	1	0	C	1	1	1172	1	poli_8sides 9_whiteLine3.jpg	MediumLong_e17_cut2_stereo_44KHz.wav
2	154	4	4	2	I	1	0	704	1	poli_8sides 4_whiteLine3.jpg	Medium_e21_stereo_44KHz.wav
2	155	1	1	1	C	2	1	1030	1	poli_8sides 13_whiteLine3.jpg	MediumLong_e17_cut2_stereo_44KHz.wav
2	156	3	4	2	I	1	0	979	1	poli_8sides 8_whiteLine3.jpg	Medium_e21_stereo_44KHz.wav
2	157	4	3	2	I	1	0	749	0	poli_8sides 4_whiteLine3.jpg	MediumLong_e04_stereo_44KHz.wav
2	158	2	2	1	C	2	1	823	1	poli_8sides 9_whiteLine3.jpg	Medium_e01_cut1_stereo_44KHz.wav
2	159	3	3	2	I	1	0	678	0	poli_8sides 8_whiteLine3.jpg	MediumLong_e04_stereo_44KHz.wav
2	160	1	2	0	C	1	1	1204	1	poli_8sides 13_whiteLine3.jpg	Medium_e01_cut1_stereo_44KHz.wav
2	161	4	4	2	I	1	0	784	0	poli_8sides 4_whiteLine3.jpg	Medium_e21_stereo_44KHz.wav
2	162	3	4	2	I	1	0	706	1	poli_8sides 8_whiteLine3.jpg	Medium_e21_stereo_44KHz.wav
2	163	1	2	0	C	1	1	713	1	poli_8sides 13_whiteLine3.jpg	Medium_e01_cut1_stereo_44KHz.wav
2	164	2	1	0	C	1	1	841	1	poli_8sides 9_whiteLine3.jpg	MediumLong_e17_cut2_stereo_44KHz.wav
2	165	1	1	1	C	2	1	1008	1	poli_8sides 13_whiteLine3.jpg	MediumLong_e17_cut2_stereo_44KHz.wav
2	166	4	3	2	I	1	0	824	0	poli_8sides 4_whiteLine3.jpg	MediumLong_e04_stereo_44KHz.wav
2	167	3	3	2	I	1	0	744	0	poli_8sides 8_whiteLine3.jpg	MediumLong_e04_stereo_44KHz.wav
2	168	2	2	1	C	2	1	1276	1	poli_8sides 9_whiteLine3.jpg	Medium_e01_cut1_stereo_44KHz.wav
2	169	1	2	0	C	1	1	913	1	poli_8sides 13_whiteLine3.jpg	Medium_e01_cut1_stereo_44KHz.wav
2	170	2	1	0	C	1	1	1318	1	poli_8sides 9_whiteLine3.jpg	MediumLong_e17_cut2_stereo_44KHz.wav
2	171	4	4	2	I	1	0	1412	1	poli_8sides 4_whiteLine3.jpg	Medium_e21_stereo_44KHz.wav
2	172	3	4	2	I	1	0	865	1	poli_8sides 8_whiteLine3.jpg	Medium_e21_stereo_44KHz.wav
2	173	4	3	2	I	1	0	919	1	poli_8sides 4_whiteLine3.jpg	MediumLong_e04_stereo_44KHz.wav
2	174	2	2	1	C	2	1	1081	1	poli_8sides 9_whiteLine3.jpg	Medium_e01_cut1_stereo_44KHz.wav
2	175	1	1	1	C	2	1	1121	1	poli_8sides 13_whiteLine3.jpg	MediumLong_e17_cut2_stereo_44KHz.wav
2	176	3	3	2	I	1	0	770	1	poli_8sides 8_whiteLine3.jpg	MediumLong_e04_stereo_44KHz.wav
2	177	4	4	2	I	1	0	762	0	poli_8sides 4_whiteLine3.jpg	Medium_e21_stereo_44KHz.wav
2	178	1	1	1	C	2	1	1472	1	poli_8sides 13_whiteLine3.jpg	MediumLong_e17_cut2_stereo_44KHz.wav
2	179	2	1	0	C	1	1	810	1	poli_8sides 9_whiteLine3.jpg	MediumLong_e17_cut2_stereo_44KHz.wav
2	180	3	3	2	I	1	0	876	0	poli_8sides 8_whiteLine3.jpg	MediumLong_e04_stereo_44KHz.wav
2	181	2	2	1	C	2	1	1248	1	poli_8sides 9_whiteLine3.jpg	Medium_e01_cut1_stereo_44KHz.wav
2	182	3	4	2	I	1	0	1052	1	poli_8sides 8_whiteLine3.jpg	Medium_e21_stereo_44KHz.wav
2	183	1	2	0	C	1	1	925	1	poli_8sides 13_whiteLine3.jpg	Medium_e01_cut1_stereo_44KHz.wav
2	184	4	3	2	I	1	0	825	0	poli_8sides 4_whiteLine3.jpg	MediumLong_e04_stereo_44KHz.wav
2	185	2	2	1	C	2	1	1151	1	poli_8sides 9_whiteLine3.jpg	Medium_e01_cut1_stereo_44KHz.wav
2	186	1	1	1	C	2	1	1740	1	poli_8sides 13_whiteLine3.jpg	MediumLong_e17_cut2_stereo_44KHz.wav
2	187	3	3	2	I	1	0	624	0	poli_8sides 8_whiteLine3.jpg	MediumLong_e04_stereo_44KHz.wav
2	188	4	3	2	I	1	0	615	0	poli_8sides 4_whiteLine3.jpg	MediumLong_e04_stereo_44KHz.wav
2	189	2	1	0	C	1	1	1137	1	poli_8sides 9_whiteLine3.jpg	MediumLong_e17_cut2_stereo_44KHz.wav
2	190	3	4	2	I	1	0	1262	1	poli_8sides 8_whiteLine3.jpg	Medium_e21_stereo_44KHz.wav
2	191	4	4	2	I	1	0	619	0	poli_8sides 4_whiteLine3.jpg	Medium_e21_stereo_44KHz.wav
2	192	1	2	0	C	1	1	873	1	poli_8sides 13_whiteLine3.jpg	Medium_e01_cut1_stereo_44KHz.wav
2	193	4	3	2	I	1	0	627	1	poli_8sides 4_whiteLine3.jpg	MediumLong_e04_stereo_44KHz.wav
2	194	3	4	2	I	1	0	888	1	poli_8sides 8_whiteLine3.jpg	Medium_e21_stereo_44KHz.wav
2	195	2	2	1	C	2	1	837	1	poli_8sides 9_whiteLine3.jpg	Medium_e01_cut1_stereo_44KHz.wav
2	196	1	2	0	C	1	1	888	1	poli_8sides 13_whiteLine3.jpg	Medium_e01_cut1_stereo_44KHz.wav
2	197	3	3	2	I	1	0	945	0	poli_8sides 8_whiteLine3.jpg	MediumLong_e04_stereo_44KHz.wav
2	198	2	1	0	C	1	1	920	1	poli_8sides 9_whiteLine3.jpg	MediumLong_e17_cut2_stereo_44KHz.wav
2	199	1	1	1	C	2	1	1128	1	poli_8sides 13_whiteLine3.jpg	MediumLong_e17_cut2_stereo_44KHz.wav
2	200	4	4	2	I	1	0	1528	1	poli_8sides 4_whiteLine3.jpg	Medium_e21_stereo_44KHz.wav
3	1	4	3	2	I	1	0	1443	1	poli_8sides 1_whiteLine3.jpg	MediumShort_e16_cut1_stereo_44KHz.wav
3	2	2	1	0	C	1	1	701	1	poli_8sides 12_whiteLine3.jpg	MediumShort_e22_cut1_stereo_44KHz.wav
3	3	3	4	2	I	1	0	619	0	poli_8sides 5_whiteLine3.jpg	MediumShort_b16_cut3_MS_stereo_44KHz.wav
3	4	1	1	1	C	1	0	607	0	poli_8sides 15_whiteLine3.jpg	MediumShort_e22_cut1_stereo_44KHz.wav
3	5	2	2	1	C	1	0	688	0	poli_8sides 12_whiteLine3.jpg	MediumShort_b10_cut1_MS_stereo_44KHz.wav
3	6	1	2	0	C	1	1	500	1	poli_8sides 15_whiteLine3.jpg	MediumShort_b10_cut1_MS_stereo_44KHz.wav
3	7	4	4	2	I	2	0	746	0	poli_8sides 1_whiteLine3.jpg	MediumShort_b16_cut3_MS_stereo_44KHz.wav
3	8	3	3	2	I	1	0	614	1	poli_8sides 5_whiteLine3.jpg	MediumShort_e16_cut1_stereo_44KHz.wav
3	9	4	4	2	I	1	0	569	1	poli_8sides 1_whiteLine3.jpg	MediumShort_b16_cut3_MS_stereo_44KHz.wav
3	10	3	4	2	I	1	0	532	0	poli_8sides 5_whiteLine3.jpg	MediumShort_b16_cut3_MS_stereo_44KHz.wav
3	11	2	1	0	C	2	0	889	0	poli_8sides 12_whiteLine3.jpg	MediumShort_e22_cut1_stereo_44KHz.wav
3	12	1	2	0	C	1	1	487	1	poli_8sides 15_whiteLine3.jpg	MediumShort_b10_cut1_MS_stereo_44KHz.wav
3	13	2	2	1	C	2	1	754	1	poli_8sides 12_whiteLine3.jpg	MediumShort_b10_cut1_MS_stereo_44KHz.wav
3	14	4	3	2	I	1	0	898	0	poli_8sides 1_whiteLine3.jpg	MediumShort_e16_cut1_stereo_44KHz.wav
3	15	3	3	2	I	1	0	609	0	poli_8sides 5_whiteLine3.jpg	MediumShort_e16_cut1_stereo_44KHz.wav
3	16	1	1	1	C	1	0	1041	0	poli_8sides 15_whiteLine3.jpg	MediumShort_e22_cut1_stereo_44KHz.wav
3	17	3	4	2	I	1	0	777	0	poli_8sides 5_whiteLine3.jpg	MediumShort_b16_cut3_MS_stereo_44KHz.wav
3	18	1	2	0	C	1	1	572	1	poli_8sides 15_whiteLine3.jpg	MediumShort_b10_cut1_MS_stereo_44KHz.wav
3	19	4	3	2	I	1	0	766	0	poli_8sides 1_whiteLine3.jpg	MediumShort_e16_cut1_stereo_44KHz.wav
3	20	2	1	0	C	1	1	784	1	poli_8sides 12_whiteLine3.jpg	MediumShort_e22_cut1_stereo_44KHz.wav
3	21	3	3	2	I	1	0	1000	1	poli_8sides 5_whiteLine3.jpg	MediumShort_e16_cut1_stereo_44KHz.wav
3	22	2	2	1	C	2	1	1001	1	poli_8sides 12_whiteLine3.jpg	MediumShort_b10_cut1_MS_stereo_44KHz.wav
3	23	4	4	2	I	2	0	1162	0	poli_8sides 1_whiteLine3.jpg	MediumShort_b16_cut3_MS_stereo_44KHz.wav
3	24	1	1	1	C	1	0	891	0	poli_8sides 15_whiteLine3.jpg	MediumShort_e22_cut1_stereo_44KHz.wav
3	25	4	3	2	I	1	0	1054	1	poli_8sides 1_whiteLine3.jpg	MediumShort_e16_cut1_stereo_44KHz.wav
3	26	3	3	2	I	1	0	929	0	poli_8sides 5_whiteLine3.jpg	MediumShort_e16_cut1_stereo_44KHz.wav
3	27	1	1	1	C	1	0	848	0	poli_8sides 15_whiteLine3.jpg	MediumShort_e22_cut1_stereo_44KHz.wav
3	28	2	2	1	C	2	1	1088	1	poli_8sides 12_whiteLine3.jpg	MediumShort_b10_cut1_MS_stereo_44KHz.wav
3	29	1	2	0	C	2	0	1179	0	poli_8sides 15_whiteLine3.jpg	MediumShort_b10_cut1_MS_stereo_44KHz.wav
3	30	4	4	2	I	1	0	934	0	poli_8sides 1_whiteLine3.jpg	MediumShort_b16_cut3_MS_stereo_44KHz.wav
3	31	2	1	0	C	1	1	992	1	poli_8sides 12_whiteLine3.jpg	MediumShort_e22_cut1_stereo_44KHz.wav
3	32	3	4	2	I	1	0	803	1	poli_8sides 5_whiteLine3.jpg	MediumShort_b16_cut3_MS_stereo_44KHz.wav
3	33	1	2	0	C	1	1	894	1	poli_8sides 15_whiteLine3.jpg	MediumShort_b10_cut1_MS_stereo_44KHz.wav
3	34	2	1	0	C	1	1	793	1	poli_8sides 12_whiteLine3.jpg	MediumShort_e22_cut1_stereo_44KHz.wav
3	35	4	4	2	I	1	0	729	0	poli_8sides 1_whiteLine3.jpg	MediumShort_b16_cut3_MS_stereo_44KHz.wav
3	36	3	3	2	I	1	0	805	1	poli_8sides 5_whiteLine3.jpg	MediumShort_e16_cut1_stereo_44KHz.wav
3	37	4	3	2	I	1	0	1216	0	poli_8sides 1_whiteLine3.jpg	MediumShort_e16_cut1_stereo_44KHz.wav
3	38	1	1	1	C	2	1	1207	1	poli_8sides 15_whiteLine3.jpg	MediumShort_e22_cut1_stereo_44KHz.wav
3	39	2	2	1	C	2	1	802	1	poli_8sides 12_whiteLine3.jpg	MediumShort_b10_cut1_MS_stereo_44KHz.wav
3	40	3	4	2	I	1	0	1013	1	poli_8sides 5_whiteLine3.jpg	MediumShort_b16_cut3_MS_stereo_44KHz.wav
3	41	2	1	0	C	1	1	1215	1	poli_8sides 12_whiteLine3.jpg	MediumShort_e22_cut1_stereo_44KHz.wav
3	42	1	1	1	C	2	1	884	1	poli_8sides 15_whiteLine3.jpg	MediumShort_e22_cut1_stereo_44KHz.wav
3	43	3	3	2	I	1	0	741	0	poli_8sides 5_whiteLine3.jpg	MediumShort_e16_cut1_stereo_44KHz.wav
3	44	4	3	2	I	1	0	705	0	poli_8sides 1_whiteLine3.jpg	MediumShort_e16_cut1_stereo_44KHz.wav
3	45	3	4	2	I	1	0	987	0	poli_8sides 5_whiteLine3.jpg	MediumShort_b16_cut3_MS_stereo_44KHz.wav
3	46	2	2	1	C	2	1	1309	1	poli_8sides 12_whiteLine3.jpg	MediumShort_b10_cut1_MS_stereo_44KHz.wav
3	47	1	2	0	C	1	1	872	1	poli_8sides 15_whiteLine3.jpg	MediumShort_b10_cut1_MS_stereo_44KHz.wav
3	48	4	4	2	I	1	0	844	0	poli_8sides 1_whiteLine3.jpg	MediumShort_b16_cut3_MS_stereo_44KHz.wav
3	49	3	3	2	I	1	0	778	0	poli_8sides 5_whiteLine3.jpg	MediumShort_e16_cut1_stereo_44KHz.wav
3	50	1	2	0	C	1	1	829	1	poli_8sides 15_whiteLine3.jpg	MediumShort_b10_cut1_MS_stereo_44KHz.wav
3	51	4	4	2	I	1	0	801	0	poli_8sides 1_whiteLine3.jpg	MediumShort_b16_cut3_MS_stereo_44KHz.wav
3	52	2	2	1	C	2	1	1149	1	poli_8sides 12_whiteLine3.jpg	MediumShort_b10_cut1_MS_stereo_44KHz.wav
3	53	1	1	1	C	2	1	808	1	poli_8sides 15_whiteLine3.jpg	MediumShort_e22_cut1_stereo_44KHz.wav
3	54	4	3	2	I	1	0	928	1	poli_8sides 1_whiteLine3.jpg	MediumShort_e16_cut1_stereo_44KHz.wav
3	55	3	4	2	I	1	0	840	1	poli_8sides 5_whiteLine3.jpg	MediumShort_b16_cut3_MS_stereo_44KHz.wav
3	56	2	1	0	C	1	1	869	1	poli_8sides 12_whiteLine3.jpg	MediumShort_e22_cut1_stereo_44KHz.wav
3	57	1	2	0	C	1	1	882	1	poli_8sides 15_whiteLine3.jpg	MediumShort_b10_cut1_MS_stereo_44KHz.wav
3	58	4	3	2	I	1	0	662	1	poli_8sides 1_whiteLine3.jpg	MediumShort_e16_cut1_stereo_44KHz.wav
3	59	3	3	2	I	1	0	652	1	poli_8sides 5_whiteLine3.jpg	MediumShort_e16_cut1_stereo_44KHz.wav
3	60	2	2	1	C	2	1	1360	1	poli_8sides 12_whiteLine3.jpg	MediumShort_b10_cut1_MS_stereo_44KHz.wav
3	61	1	1	1	C	2	1	1054	1	poli_8sides 15_whiteLine3.jpg	MediumShort_e22_cut1_stereo_44KHz.wav
3	62	2	1	0	C	1	1	857	1	poli_8sides 12_whiteLine3.jpg	MediumShort_e22_cut1_stereo_44KHz.wav
3	63	4	4	2	I	1	0	1427	0	poli_8sides 1_whiteLine3.jpg	MediumShort_b16_cut3_MS_stereo_44KHz.wav
3	64	3	4	2	I	1	0	964	0	poli_8sides 5_whiteLine3.jpg	MediumShort_b16_cut3_MS_stereo_44KHz.wav
3	65	4	3	2	I	1	0	729	0	poli_8sides 1_whiteLine3.jpg	MediumShort_e16_cut1_stereo_44KHz.wav
3	66	1	1	1	C	2	1	868	1	poli_8sides 15_whiteLine3.jpg	MediumShort_e22_cut1_stereo_44KHz.wav
3	67	3	4	2	I	1	0	898	0	poli_8sides 5_whiteLine3.jpg	MediumShort_b16_cut3_MS_stereo_44KHz.wav
3	68	2	1	0	C	1	1	866	1	poli_8sides 12_whiteLine3.jpg	MediumShort_e22_cut1_stereo_44KHz.wav
3	69	4	4	2	I	2	0	912	1	poli_8sides 1_whiteLine3.jpg	MediumShort_b16_cut3_MS_stereo_44KHz.wav
3	70	3	3	2	I	1	0	616	0	poli_8sides 5_whiteLine3.jpg	MediumShort_e16_cut1_stereo_44KHz.wav
3	71	2	2	1	C	2	1	996	1	poli_8sides 12_whiteLine3.jpg	MediumShort_b10_cut1_MS_stereo_44KHz.wav
3	72	1	2	0	C	1	1	766	1	poli_8sides 15_whiteLine3.jpg	MediumShort_b10_cut1_MS_stereo_44KHz.wav
3	73	4	4	2	I	1	0	869	1	poli_8sides 1_whiteLine3.jpg	MediumShort_b16_cut3_MS_stereo_44KHz.wav
3	74	3	3	2	I	1	0	641	1	poli_8sides 5_whiteLine3.jpg	MediumShort_e16_cut1_stereo_44KHz.wav
3	75	2	1	0	C	1	1	633	1	poli_8sides 12_whiteLine3.jpg	MediumShort_e22_cut1_stereo_44KHz.wav
3	76	1	2	0	C	1	1	850	1	poli_8sides 15_whiteLine3.jpg	MediumShort_b10_cut1_MS_stereo_44KHz.wav
3	77	4	3	2	I	1	0	650	1	poli_8sides 1_whiteLine3.jpg	MediumShort_e16_cut1_stereo_44KHz.wav
3	78	3	4	2	I	1	0	725	0	poli_8sides 5_whiteLine3.jpg	MediumShort_b16_cut3_MS_stereo_44KHz.wav
3	79	2	2	1	C	2	1	876	1	poli_8sides 12_whiteLine3.jpg	MediumShort_b10_cut1_MS_stereo_44KHz.wav
3	80	1	1	1	C	2	1	1160	1	poli_8sides 15_whiteLine3.jpg	MediumShort_e22_cut1_stereo_44KHz.wav
3	81	3	4	2	I	1	0	941	1	poli_8sides 5_whiteLine3.jpg	MediumShort_b16_cut3_MS_stereo_44KHz.wav
3	82	4	4	2	I	1	0	552	1	poli_8sides 1_whiteLine3.jpg	MediumShort_b16_cut3_MS_stereo_44KHz.wav
3	83	2	2	1	C	2	1	794	1	poli_8sides 12_whiteLine3.jpg	MediumShort_b10_cut1_MS_stereo_44KHz.wav
3	84	1	2	0	C	1	1	1161	1	poli_8sides 15_whiteLine3.jpg	MediumShort_b10_cut1_MS_stereo_44KHz.wav
3	85	4	3	2	I	1	0	766	1	poli_8sides 1_whiteLine3.jpg	MediumShort_e16_cut1_stereo_44KHz.wav
3	86	1	1	1	C	2	1	854	1	poli_8sides 15_whiteLine3.jpg	MediumShort_e22_cut1_stereo_44KHz.wav
3	87	3	3	2	I	1	0	729	0	poli_8sides 5_whiteLine3.jpg	MediumShort_e16_cut1_stereo_44KHz.wav
3	88	2	1	0	C	1	1	1361	1	poli_8sides 12_whiteLine3.jpg	MediumShort_e22_cut1_stereo_44KHz.wav
3	89	1	2	0	C	1	1	1009	1	poli_8sides 15_whiteLine3.jpg	MediumShort_b10_cut1_MS_stereo_44KHz.wav
3	90	3	3	2	I	1	0	861	0	poli_8sides 5_whiteLine3.jpg	MediumShort_e16_cut1_stereo_44KHz.wav
3	91	2	2	1	C	2	1	986	1	poli_8sides 12_whiteLine3.jpg	MediumShort_b10_cut1_MS_stereo_44KHz.wav
3	92	4	4	2	I	1	0	773	0	poli_8sides 1_whiteLine3.jpg	MediumShort_b16_cut3_MS_stereo_44KHz.wav
3	93	1	1	1	C	2	1	943	1	poli_8sides 15_whiteLine3.jpg	MediumShort_e22_cut1_stereo_44KHz.wav
3	94	2	1	0	C	1	1	893	1	poli_8sides 12_whiteLine3.jpg	MediumShort_e22_cut1_stereo_44KHz.wav
3	95	4	3	2	I	1	0	793	1	poli_8sides 1_whiteLine3.jpg	MediumShort_e16_cut1_stereo_44KHz.wav
3	96	3	4	2	I	1	0	908	0	poli_8sides 5_whiteLine3.jpg	MediumShort_b16_cut3_MS_stereo_44KHz.wav
3	97	4	4	2	I	1	0	569	0	poli_8sides 1_whiteLine3.jpg	MediumShort_b16_cut3_MS_stereo_44KHz.wav
3	98	1	2	0	C	1	1	1126	1	poli_8sides 15_whiteLine3.jpg	MediumShort_b10_cut1_MS_stereo_44KHz.wav
3	99	2	1	0	C	1	1	827	1	poli_8sides 12_whiteLine3.jpg	MediumShort_e22_cut1_stereo_44KHz.wav
3	100	3	3	2	I	1	0	913	1	poli_8sides 5_whiteLine3.jpg	MediumShort_e16_cut1_stereo_44KHz.wav
3	101	1	1	1	C	2	1	1572	1	poli_8sides 15_whiteLine3.jpg	MediumShort_e22_cut1_stereo_44KHz.wav
3	102	3	4	2	I	1	0	653	0	poli_8sides 5_whiteLine3.jpg	MediumShort_b16_cut3_MS_stereo_44KHz.wav
3	103	2	2	1	C	2	1	1306	1	poli_8sides 12_whiteLine3.jpg	MediumShort_b10_cut1_MS_stereo_44KHz.wav
3	104	4	3	2	I	1	0	727	0	poli_8sides 1_whiteLine3.jpg	MediumShort_e16_cut1_stereo_44KHz.wav
3	105	2	1	0	C	1	1	847	1	poli_8sides 12_whiteLine3.jpg	MediumShort_e22_cut1_stereo_44KHz.wav
3	106	3	4	2	I	1	0	1051	1	poli_8sides 5_whiteLine3.jpg	MediumShort_b16_cut3_MS_stereo_44KHz.wav
3	107	4	4	2	I	1	0	1188	1	poli_8sides 1_whiteLine3.jpg	MediumShort_b16_cut3_MS_stereo_44KHz.wav
3	108	1	1	1	C	2	1	853	1	poli_8sides 15_whiteLine3.jpg	MediumShort_e22_cut1_stereo_44KHz.wav
3	109	3	3	2	I	1	0	776	0	poli_8sides 5_whiteLine3.jpg	MediumShort_e16_cut1_stereo_44KHz.wav
3	110	2	2	1	C	2	1	1051	1	poli_8sides 12_whiteLine3.jpg	MediumShort_b10_cut1_MS_stereo_44KHz.wav
3	111	4	3	2	I	1	0	658	0	poli_8sides 1_whiteLine3.jpg	MediumShort_e16_cut1_stereo_44KHz.wav
3	112	1	2	0	C	1	1	1218	1	poli_8sides 15_whiteLine3.jpg	MediumShort_b10_cut1_MS_stereo_44KHz.wav
3	113	4	4	2	I	1	0	1662	1	poli_8sides 1_whiteLine3.jpg	MediumShort_b16_cut3_MS_stereo_44KHz.wav
3	114	1	1	1	C	2	1	1257	1	poli_8sides 15_whiteLine3.jpg	MediumShort_e22_cut1_stereo_44KHz.wav
3	115	2	2	1	C	2	1	894	1	poli_8sides 12_whiteLine3.jpg	MediumShort_b10_cut1_MS_stereo_44KHz.wav
3	116	3	3	2	I	1	0	645	0	poli_8sides 5_whiteLine3.jpg	MediumShort_e16_cut1_stereo_44KHz.wav
3	117	4	3	2	I	1	0	650	1	poli_8sides 1_whiteLine3.jpg	MediumShort_e16_cut1_stereo_44KHz.wav
3	118	3	4	2	I	1	0	655	1	poli_8sides 5_whiteLine3.jpg	MediumShort_b16_cut3_MS_stereo_44KHz.wav
3	119	2	1	0	C	1	1	897	1	poli_8sides 12_whiteLine3.jpg	MediumShort_e22_cut1_stereo_44KHz.wav
3	120	1	2	0	C	1	1	810	1	poli_8sides 15_whiteLine3.jpg	MediumShort_b10_cut1_MS_stereo_44KHz.wav
3	121	4	3	2	I	1	0	616	0	poli_8sides 1_whiteLine3.jpg	MediumShort_e16_cut1_stereo_44KHz.wav
3	122	1	1	1	C	2	1	816	1	poli_8sides 15_whiteLine3.jpg	MediumShort_e22_cut1_stereo_44KHz.wav
3	123	2	1	0	C	1	1	799	1	poli_8sides 12_whiteLine3.jpg	MediumShort_e22_cut1_stereo_44KHz.wav
3	124	3	3	2	I	1	0	606	0	poli_8sides 5_whiteLine3.jpg	MediumShort_e16_cut1_stereo_44KHz.wav
3	125	2	2	1	C	2	1	731	1	poli_8sides 12_whiteLine3.jpg	MediumShort_b10_cut1_MS_stereo_44KHz.wav
3	126	4	4	2	I	1	0	730	1	poli_8sides 1_whiteLine3.jpg	MediumShort_b16_cut3_MS_stereo_44KHz.wav
3	127	3	4	2	I	1	0	729	1	poli_8sides 5_whiteLine3.jpg	MediumShort_b16_cut3_MS_stereo_44KHz.wav
3	128	1	2	0	C	1	1	1070	1	poli_8sides 15_whiteLine3.jpg	MediumShort_b10_cut1_MS_stereo_44KHz.wav
3	129	2	1	0	C	1	1	799	1	poli_8sides 12_whiteLine3.jpg	MediumShort_e22_cut1_stereo_44KHz.wav
3	130	4	3	2	I	1	0	847	1	poli_8sides 1_whiteLine3.jpg	MediumShort_e16_cut1_stereo_44KHz.wav
3	131	3	3	2	I	1	0	769	0	poli_8sides 5_whiteLine3.jpg	MediumShort_e16_cut1_stereo_44KHz.wav
3	132	1	1	1	C	2	1	1142	1	poli_8sides 15_whiteLine3.jpg	MediumShort_e22_cut1_stereo_44KHz.wav
3	133	3	4	2	I	1	0	1678	0	poli_8sides 5_whiteLine3.jpg	MediumShort_b16_cut3_MS_stereo_44KHz.wav
3	134	2	2	1	C	2	1	899	1	poli_8sides 12_whiteLine3.jpg	MediumShort_b10_cut1_MS_stereo_44KHz.wav
3	135	4	4	2	I	1	0	1196	1	poli_8sides 1_whiteLine3.jpg	MediumShort_b16_cut3_MS_stereo_44KHz.wav
3	136	1	2	0	C	1	1	1358	1	poli_8sides 15_whiteLine3.jpg	MediumShort_b10_cut1_MS_stereo_44KHz.wav
3	137	4	4	2	I	1	0	714	1	poli_8sides 1_whiteLine3.jpg	MediumShort_b16_cut3_MS_stereo_44KHz.wav
3	138	1	2	0	C	1	1	1283	1	poli_8sides 15_whiteLine3.jpg	MediumShort_b10_cut1_MS_stereo_44KHz.wav
3	139	2	1	0	C	1	1	924	1	poli_8sides 12_whiteLine3.jpg	MediumShort_e22_cut1_stereo_44KHz.wav
3	140	3	4	2	I	1	0	1387	0	poli_8sides 5_whiteLine3.jpg	MediumShort_b16_cut3_MS_stereo_44KHz.wav
3	141	2	2	1	C	2	1	1086	1	poli_8sides 12_whiteLine3.jpg	MediumShort_b10_cut1_MS_stereo_44KHz.wav
3	142	1	1	1	C	2	1	1054	1	poli_8sides 15_whiteLine3.jpg	MediumShort_e22_cut1_stereo_44KHz.wav
3	143	4	3	2	I	1	0	768	1	poli_8sides 1_whiteLine3.jpg	MediumShort_e16_cut1_stereo_44KHz.wav
3	144	3	3	2	I	1	0	633	1	poli_8sides 5_whiteLine3.jpg	MediumShort_e16_cut1_stereo_44KHz.wav
3	145	1	1	1	C	2	1	1041	1	poli_8sides 15_whiteLine3.jpg	MediumShort_e22_cut1_stereo_44KHz.wav
3	146	4	3	2	I	1	0	603	0	poli_8sides 1_whiteLine3.jpg	MediumShort_e16_cut1_stereo_44KHz.wav
3	147	2	1	0	C	1	1	829	1	poli_8sides 12_whiteLine3.jpg	MediumShort_e22_cut1_stereo_44KHz.wav
3	148	3	3	2	I	1	0	593	1	poli_8sides 5_whiteLine3.jpg	MediumShort_e16_cut1_stereo_44KHz.wav
3	149	1	2	0	C	1	1	835	1	poli_8sides 15_whiteLine3.jpg	MediumShort_b10_cut1_MS_stereo_44KHz.wav
3	150	4	4	2	I	1	0	656	0	poli_8sides 1_whiteLine3.jpg	MediumShort_b16_cut3_MS_stereo_44KHz.wav
3	151	2	2	1	C	2	1	913	1	poli_8sides 12_whiteLine3.jpg	MediumShort_b10_cut1_MS_stereo_44KHz.wav
3	152	3	4	2	I	1	0	923	1	poli_8sides 5_whiteLine3.jpg	MediumShort_b16_cut3_MS_stereo_44KHz.wav
3	153	2	2	1	C	2	1	906	1	poli_8sides 12_whiteLine3.jpg	MediumShort_b10_cut1_MS_stereo_44KHz.wav
3	154	1	2	0	C	1	1	944	1	poli_8sides 15_whiteLine3.jpg	MediumShort_b10_cut1_MS_stereo_44KHz.wav
3	155	3	3	2	I	1	0	671	1	poli_8sides 5_whiteLine3.jpg	MediumShort_e16_cut1_stereo_44KHz.wav
3	156	4	4	2	I	1	0	712	1	poli_8sides 1_whiteLine3.jpg	MediumShort_b16_cut3_MS_stereo_44KHz.wav
3	157	2	1	0	C	1	1	979	1	poli_8sides 12_whiteLine3.jpg	MediumShort_e22_cut1_stereo_44KHz.wav
3	158	4	3	2	I	1	0	692	1	poli_8sides 1_whiteLine3.jpg	MediumShort_e16_cut1_stereo_44KHz.wav
3	159	3	4	2	I	1	0	711	0	poli_8sides 5_whiteLine3.jpg	MediumShort_b16_cut3_MS_stereo_44KHz.wav
3	160	1	1	1	C	2	1	1003	1	poli_8sides 15_whiteLine3.jpg	MediumShort_e22_cut1_stereo_44KHz.wav
3	161	4	4	2	I	1	0	695	1	poli_8sides 1_whiteLine3.jpg	MediumShort_b16_cut3_MS_stereo_44KHz.wav
3	162	3	3	2	I	1	0	665	1	poli_8sides 5_whiteLine3.jpg	MediumShort_e16_cut1_stereo_44KHz.wav
3	163	1	1	1	C	2	1	926	1	poli_8sides 15_whiteLine3.jpg	MediumShort_e22_cut1_stereo_44KHz.wav
3	164	2	1	0	C	1	1	887	1	poli_8sides 12_whiteLine3.jpg	MediumShort_e22_cut1_stereo_44KHz.wav
3	165	3	4	2	I	1	0	917	0	poli_8sides 5_whiteLine3.jpg	MediumShort_b16_cut3_MS_stereo_44KHz.wav
3	166	2	2	1	C	2	1	1071	1	poli_8sides 12_whiteLine3.jpg	MediumShort_b10_cut1_MS_stereo_44KHz.wav
3	167	1	2	0	C	1	1	871	1	poli_8sides 15_whiteLine3.jpg	MediumShort_b10_cut1_MS_stereo_44KHz.wav
3	168	4	3	2	I	1	0	716	0	poli_8sides 1_whiteLine3.jpg	MediumShort_e16_cut1_stereo_44KHz.wav
3	169	1	2	0	C	1	1	1283	1	poli_8sides 15_whiteLine3.jpg	MediumShort_b10_cut1_MS_stereo_44KHz.wav
3	170	3	4	2	I	1	0	866	1	poli_8sides 5_whiteLine3.jpg	MediumShort_b16_cut3_MS_stereo_44KHz.wav
3	171	2	2	1	C	2	1	1143	1	poli_8sides 12_whiteLine3.jpg	MediumShort_b10_cut1_MS_stereo_44KHz.wav
3	172	4	3	2	I	1	0	770	0	poli_8sides 1_whiteLine3.jpg	MediumShort_e16_cut1_stereo_44KHz.wav
3	173	1	1	1	C	1	0	1681	0	poli_8sides 15_whiteLine3.jpg	MediumShort_e22_cut1_stereo_44KHz.wav
3	174	3	3	2	I	1	0	638	0	poli_8sides 5_whiteLine3.jpg	MediumShort_e16_cut1_stereo_44KHz.wav
3	175	2	1	0	C	1	1	723	1	poli_8sides 12_whiteLine3.jpg	MediumShort_e22_cut1_stereo_44KHz.wav
3	176	4	4	2	I	1	0	1074	1	poli_8sides 1_whiteLine3.jpg	MediumShort_b16_cut3_MS_stereo_44KHz.wav
3	177	1	2	0	C	1	1	1048	1	poli_8sides 15_whiteLine3.jpg	MediumShort_b10_cut1_MS_stereo_44KHz.wav
3	178	3	3	2	I	1	0	585	1	poli_8sides 5_whiteLine3.jpg	MediumShort_e16_cut1_stereo_44KHz.wav
3	179	4	3	2	I	1	0	500	0	poli_8sides 1_whiteLine3.jpg	MediumShort_e16_cut1_stereo_44KHz.wav
3	180	2	2	1	C	2	1	1009	1	poli_8sides 12_whiteLine3.jpg	MediumShort_b10_cut1_MS_stereo_44KHz.wav
3	181	1	1	1	C	2	1	1067	1	poli_8sides 15_whiteLine3.jpg	MediumShort_e22_cut1_stereo_44KHz.wav
3	182	3	4	2	I	1	0	1392	1	poli_8sides 5_whiteLine3.jpg	MediumShort_b16_cut3_MS_stereo_44KHz.wav
3	183	2	1	0	C	1	1	1125	1	poli_8sides 12_whiteLine3.jpg	MediumShort_e22_cut1_stereo_44KHz.wav
3	184	4	4	2	I	1	0	685	1	poli_8sides 1_whiteLine3.jpg	MediumShort_b16_cut3_MS_stereo_44KHz.wav
3	185	1	1	1	C	2	1	1025	1	poli_8sides 15_whiteLine3.jpg	MediumShort_e22_cut1_stereo_44KHz.wav
3	186	4	3	2	I	1	0	702	1	poli_8sides 1_whiteLine3.jpg	MediumShort_e16_cut1_stereo_44KHz.wav
3	187	2	1	0	C	1	1	936	1	poli_8sides 12_whiteLine3.jpg	MediumShort_e22_cut1_stereo_44KHz.wav
3	188	3	4	2	I	1	0	1071	1	poli_8sides 5_whiteLine3.jpg	MediumShort_b16_cut3_MS_stereo_44KHz.wav
3	189	2	2	1	C	2	1	914	1	poli_8sides 12_whiteLine3.jpg	MediumShort_b10_cut1_MS_stereo_44KHz.wav
3	190	1	2	0	C	1	1	791	1	poli_8sides 15_whiteLine3.jpg	MediumShort_b10_cut1_MS_stereo_44KHz.wav
3	191	4	4	2	I	1	0	678	0	poli_8sides 1_whiteLine3.jpg	MediumShort_b16_cut3_MS_stereo_44KHz.wav
3	192	3	3	2	I	1	0	681	1	poli_8sides 5_whiteLine3.jpg	MediumShort_e16_cut1_stereo_44KHz.wav
3	193	4	3	2	I	1	0	582	0	poli_8sides 1_whiteLine3.jpg	MediumShort_e16_cut1_stereo_44KHz.wav
3	194	2	1	0	C	1	1	878	1	poli_8sides 12_whiteLine3.jpg	MediumShort_e22_cut1_stereo_44KHz.wav
3	195	3	4	2	I	1	0	1255	1	poli_8sides 5_whiteLine3.jpg	MediumShort_b16_cut3_MS_stereo_44KHz.wav
3	196	1	1	1	C	2	1	1003	1	poli_8sides 15_whiteLine3.jpg	MediumShort_e22_cut1_stereo_44KHz.wav
3	197	2	2	1	C	2	1	1159	1	poli_8sides 12_whiteLine3.jpg	MediumShort_b10_cut1_MS_stereo_44KHz.wav
3	198	3	3	2	I	1	0	636	1	poli_8sides 5_whiteLine3.jpg	MediumShort_e16_cut1_stereo_44KHz.wav
3	199	1	2	0	C	1	1	814	1	poli_8sides 15_whiteLine3.jpg	MediumShort_b10_cut1_MS_stereo_44KHz.wav
3	200	4	4	2	I	1	0	1273	0	poli_8sides 1_whiteLine3.jpg	MediumShort_b16_cut3_MS_stereo_44KHz.wav
4	1	2	2	1	C	1	0	1277	0	poli_8sides 11_whiteLine3.jpg	Short_b22_cut1_stereo_44KHz.wav
4	2	3	4	2	I	1	0	886	1	poli_8sides 3_whiteLine3.jpg	Short_b09_cut1_stereo_44KHz.wav
4	3	4	4	2	I	2	0	747	1	poli_8sides 6_whiteLine3.jpg	Short_b09_cut1_stereo_44KHz.wav
4	4	1	2	0	C	1	1	820	1	poli_8sides 2_whiteLine3.jpg	Short_b22_cut1_stereo_44KHz.wav
4	5	2	1	0	C	2	0	715	0	poli_8sides 11_whiteLine3.jpg	Short_b23_cut1_stereo_44KHz.wav
4	6	4	3	2	I	1	0	1073	0	poli_8sides 6_whiteLine3.jpg	Short_b20_cut1_stereo_44KHz.wav
4	7	1	1	1	C	1	0	1203	0	poli_8sides 2_whiteLine3.jpg	Short_b23_cut1_stereo_44KHz.wav
4	8	3	3	2	I	2	0	964	1	poli_8sides 3_whiteLine3.jpg	Short_b20_cut1_stereo_44KHz.wav
4	9	4	3	2	I	2	0	841	1	poli_8sides 6_whiteLine3.jpg	Short_b20_cut1_stereo_44KHz.wav
4	10	2	2	1	C	1	0	899	0	poli_8sides 11_whiteLine3.jpg	Short_b22_cut1_stereo_44KHz.wav
4	11	3	3	2	I	1	0	949	0	poli_8sides 3_whiteLine3.jpg	Short_b20_cut1_stereo_44KHz.wav
4	12	1	2	0	C	2	0	800	0	poli_8sides 2_whiteLine3.jpg	Short_b22_cut1_stereo_44KHz.wav
4	13	4	4	2	I	2	0	1047	1	poli_8sides 6_whiteLine3.jpg	Short_b09_cut1_stereo_44KHz.wav
4	14	3	4	2	I	1	0	549	0	poli_8sides 3_whiteLine3.jpg	Short_b09_cut1_stereo_44KHz.wav
4	15	2	1	0	C	1	1	770	1	poli_8sides 11_whiteLine3.jpg	Short_b23_cut1_stereo_44KHz.wav
4	16	1	1	1	C	2	1	1209	1	poli_8sides 2_whiteLine3.jpg	Short_b23_cut1_stereo_44KHz.wav
4	17	3	3	2	I	1	0	786	0	poli_8sides 3_whiteLine3.jpg	Short_b20_cut1_stereo_44KHz.wav
4	18	2	2	1	C	1	0	1190	0	poli_8sides 11_whiteLine3.jpg	Short_b22_cut1_stereo_44KHz.wav
4	19	4	4	2	I	2	0	992	1	poli_8sides 6_whiteLine3.jpg	Short_b09_cut1_stereo_44KHz.wav
4	20	1	2	0	C	1	1	666	1	poli_8sides 2_whiteLine3.jpg	Short_b22_cut1_stereo_44KHz.wav
4	21	2	1	0	C	1	1	785	1	poli_8sides 11_whiteLine3.jpg	Short_b23_cut1_stereo_44KHz.wav
4	22	1	1	1	C	1	0	785	0	poli_8sides 2_whiteLine3.jpg	Short_b23_cut1_stereo_44KHz.wav
4	23	3	4	2	I	2	0	1000	0	poli_8sides 3_whiteLine3.jpg	Short_b09_cut1_stereo_44KHz.wav
4	24	4	3	2	I	1	0	779	1	poli_8sides 6_whiteLine3.jpg	Short_b20_cut1_stereo_44KHz.wav
4	25	2	1	0	C	1	1	1013	1	poli_8sides 11_whiteLine3.jpg	Short_b23_cut1_stereo_44KHz.wav
4	26	4	4	2	I	1	0	905	0	poli_8sides 6_whiteLine3.jpg	Short_b09_cut1_stereo_44KHz.wav
4	27	1	1	1	C	1	0	703	0	poli_8sides 2_whiteLine3.jpg	Short_b23_cut1_stereo_44KHz.wav
4	28	3	4	2	I	2	0	1105	0	poli_8sides 3_whiteLine3.jpg	Short_b09_cut1_stereo_44KHz.wav
4	29	2	2	1	C	1	0	684	0	poli_8sides 11_whiteLine3.jpg	Short_b22_cut1_stereo_44KHz.wav
4	30	1	2	0	C	1	1	773	1	poli_8sides 2_whiteLine3.jpg	Short_b22_cut1_stereo_44KHz.wav
4	31	3	3	2	I	2	0	976	0	poli_8sides 3_whiteLine3.jpg	Short_b20_cut1_stereo_44KHz.wav
4	32	4	3	2	I	1	0	1000	1	poli_8sides 6_whiteLine3.jpg	Short_b20_cut1_stereo_44KHz.wav
4	33	2	1	0	C	1	1	820	1	poli_8sides 11_whiteLine3.jpg	Short_b23_cut1_stereo_44KHz.wav
4	34	3	4	2	I	2	0	892	0	poli_8sides 3_whiteLine3.jpg	Short_b09_cut1_stereo_44KHz.wav
4	35	1	2	0	C	1	1	1119	1	poli_8sides 2_whiteLine3.jpg	Short_b22_cut1_stereo_44KHz.wav
4	36	4	4	2	I	2	0	812	0	poli_8sides 6_whiteLine3.jpg	Short_b09_cut1_stereo_44KHz.wav
4	37	2	2	1	C	2	1	982	1	poli_8sides 11_whiteLine3.jpg	Short_b22_cut1_stereo_44KHz.wav
4	38	1	1	1	C	2	1	993	1	poli_8sides 2_whiteLine3.jpg	Short_b23_cut1_stereo_44KHz.wav
4	39	3	3	2	I	1	0	973	0	poli_8sides 3_whiteLine3.jpg	Short_b20_cut1_stereo_44KHz.wav
4	40	4	3	2	I	1	0	574	0	poli_8sides 6_whiteLine3.jpg	Short_b20_cut1_stereo_44KHz.wav
4	41	1	2	0	C	1	1	1452	1	poli_8sides 2_whiteLine3.jpg	Short_b22_cut1_stereo_44KHz.wav
4	42	2	1	0	C	1	1	978	1	poli_8sides 11_whiteLine3.jpg	Short_b23_cut1_stereo_44KHz.wav
4	43	4	4	2	I	1	0	873	1	poli_8sides 6_whiteLine3.jpg	Short_b09_cut1_stereo_44KHz.wav
4	44	3	3	2	I	1	0	817	0	poli_8sides 3_whiteLine3.jpg	Short_b20_cut1_stereo_44KHz.wav
4	45	1	1	1	C	1	0	928	0	poli_8sides 2_whiteLine3.jpg	Short_b23_cut1_stereo_44KHz.wav
4	46	3	4	2	I	1	0	844	1	poli_8sides 3_whiteLine3.jpg	Short_b09_cut1_stereo_44KHz.wav
4	47	4	3	2	I	1	0	1080	0	poli_8sides 6_whiteLine3.jpg	Short_b20_cut1_stereo_44KHz.wav
4	48	2	2	1	C	1	0	958	0	poli_8sides 11_whiteLine3.jpg	Short_b22_cut1_stereo_44KHz.wav
4	49	1	1	1	C	2	1	1147	1	poli_8sides 2_whiteLine3.jpg	Short_b23_cut1_stereo_44KHz.wav
4	50	3	4	2	I	1	0	796	0	poli_8sides 3_whiteLine3.jpg	Short_b09_cut1_stereo_44KHz.wav
4	51	4	3	2	I	1	0	642	0	poli_8sides 6_whiteLine3.jpg	Short_b20_cut1_stereo_44KHz.wav
4	52	2	2	1	C	1	0	1230	0	poli_8sides 11_whiteLine3.jpg	Short_b22_cut1_stereo_44KHz.wav
4	53	3	3	2	I	1	0	819	1	poli_8sides 3_whiteLine3.jpg	Short_b20_cut1_stereo_44KHz.wav
4	54	2	1	0	C	1	1	839	1	poli_8sides 11_whiteLine3.jpg	Short_b23_cut1_stereo_44KHz.wav
4	55	1	2	0	C	1	1	782	1	poli_8sides 2_whiteLine3.jpg	Short_b22_cut1_stereo_44KHz.wav
4	56	4	4	2	I	1	0	570	1	poli_8sides 6_whiteLine3.jpg	Short_b09_cut1_stereo_44KHz.wav
4	57	1	1	1	C	1	0	1442	0	poli_8sides 2_whiteLine3.jpg	Short_b23_cut1_stereo_44KHz.wav
4	58	4	4	2	I	1	0	623	0	poli_8sides 6_whiteLine3.jpg	Short_b09_cut1_stereo_44KHz.wav
4	59	3	4	2	I	1	0	604	0	poli_8sides 3_whiteLine3.jpg	Short_b09_cut1_stereo_44KHz.wav
4	60	2	1	0	C	1	1	747	1	poli_8sides 11_whiteLine3.jpg	Short_b23_cut1_stereo_44KHz.wav
4	61	3	3	2	I	1	0	596	0	poli_8sides 3_whiteLine3.jpg	Short_b20_cut1_stereo_44KHz.wav
4	62	2	2	1	C	2	1	910	1	poli_8sides 11_whiteLine3.jpg	Short_b22_cut1_stereo_44KHz.wav
4	63	4	3	2	I	1	0	605	1	poli_8sides 6_whiteLine3.jpg	Short_b20_cut1_stereo_44KHz.wav
4	64	1	2	0	C	1	1	1318	1	poli_8sides 2_whiteLine3.jpg	Short_b22_cut1_stereo_44KHz.wav
4	65	2	2	1	C	2	1	991	1	poli_8sides 11_whiteLine3.jpg	Short_b22_cut1_stereo_44KHz.wav
4	66	3	3	2	I	1	0	581	0	poli_8sides 3_whiteLine3.jpg	Short_b20_cut1_stereo_44KHz.wav
4	67	4	4	2	I	1	0	630	0	poli_8sides 6_whiteLine3.jpg	Short_b09_cut1_stereo_44KHz.wav
4	68	1	2	0	C	1	1	1278	1	poli_8sides 2_whiteLine3.jpg	Short_b22_cut1_stereo_44KHz.wav
4	69	2	1	0	C	1	1	613	1	poli_8sides 11_whiteLine3.jpg	Short_b23_cut1_stereo_44KHz.wav
4	70	3	4	2	I	1	0	673	0	poli_8sides 3_whiteLine3.jpg	Short_b09_cut1_stereo_44KHz.wav
4	71	4	3	2	I	1	0	509	0	poli_8sides 6_whiteLine3.jpg	Short_b20_cut1_stereo_44KHz.wav
4	72	1	1	1	C	1	0	824	0	poli_8sides 2_whiteLine3.jpg	Short_b23_cut1_stereo_44KHz.wav
4	73	4	3	2	I	1	0	670	0	poli_8sides 6_whiteLine3.jpg	Short_b20_cut1_stereo_44KHz.wav
4	74	1	1	1	C	2	1	1304	1	poli_8sides 2_whiteLine3.jpg	Short_b23_cut1_stereo_44KHz.wav
4	75	2	2	1	C	2	1	1006	1	poli_8sides 11_whiteLine3.jpg	Short_b22_cut1_stereo_44KHz.wav
4	76	3	4	2	I	1	0	655	0	poli_8sides 3_whiteLine3.jpg	Short_b09_cut1_stereo_44KHz.wav
4	77	2	1	0	C	1	1	1112	1	poli_8sides 11_whiteLine3.jpg	Short_b23_cut1_stereo_44KHz.wav
4	78	1	2	0	C	1	1	852	1	poli_8sides 2_whiteLine3.jpg	Short_b22_cut1_stereo_44KHz.wav
4	79	4	4	2	I	1	0	831	0	poli_8sides 6_whiteLine3.jpg	Short_b09_cut1_stereo_44KHz.wav
4	80	3	3	2	I	2	0	975	0	poli_8sides 3_whiteLine3.jpg	Short_b20_cut1_stereo_44KHz.wav
4	81	1	1	1	C	2	1	1161	1	poli_8sides 2_whiteLine3.jpg	Short_b23_cut1_stereo_44KHz.wav
4	82	3	4	2	I	1	0	644	1	poli_8sides 3_whiteLine3.jpg	Short_b09_cut1_stereo_44KHz.wav
4	83	2	1	0	C	1	1	1326	1	poli_8sides 11_whiteLine3.jpg	Short_b23_cut1_stereo_44KHz.wav
4	84	4	4	2	I	1	0	618	0	poli_8sides 6_whiteLine3.jpg	Short_b09_cut1_stereo_44KHz.wav
4	85	3	3	2	I	1	0	586	0	poli_8sides 3_whiteLine3.jpg	Short_b20_cut1_stereo_44KHz.wav
4	86	4	3	2	I	1	0	545	1	poli_8sides 6_whiteLine3.jpg	Short_b20_cut1_stereo_44KHz.wav
4	87	2	2	1	C	1	0	1525	0	poli_8sides 11_whiteLine3.jpg	Short_b22_cut1_stereo_44KHz.wav
4	88	1	2	0	C	1	1	758	1	poli_8sides 2_whiteLine3.jpg	Short_b22_cut1_stereo_44KHz.wav
4	89	3	4	2	I	1	0	562	1	poli_8sides 3_whiteLine3.jpg	Short_b09_cut1_stereo_44KHz.wav
4	90	1	1	1	C	2	1	1145	1	poli_8sides 2_whiteLine3.jpg	Short_b23_cut1_stereo_44KHz.wav
4	91	2	1	0	C	1	1	1118	1	poli_8sides 11_whiteLine3.jpg	Short_b23_cut1_stereo_44KHz.wav
4	92	4	4	2	I	1	0	671	0	poli_8sides 6_whiteLine3.jpg	Short_b09_cut1_stereo_44KHz.wav
4	93	3	3	2	I	1	0	642	1	poli_8sides 3_whiteLine3.jpg	Short_b20_cut1_stereo_44KHz.wav
4	94	1	2	0	C	1	1	1391	1	poli_8sides 2_whiteLine3.jpg	Short_b22_cut1_stereo_44KHz.wav
4	95	4	3	2	I	1	0	646	1	poli_8sides 6_whiteLine3.jpg	Short_b20_cut1_stereo_44KHz.wav
4	96	2	2	1	C	2	1	1433	1	poli_8sides 11_whiteLine3.jpg	Short_b22_cut1_stereo_44KHz.wav
4	97	4	4	2	I	1	0	656	1	poli_8sides 6_whiteLine3.jpg	Short_b09_cut1_stereo_44KHz.wav
4	98	3	3	2	I	1	0	609	1	poli_8sides 3_whiteLine3.jpg	Short_b20_cut1_stereo_44KHz.wav
4	99	2	1	0	C	1	1	1150	1	poli_8sides 11_whiteLine3.jpg	Short_b23_cut1_stereo_44KHz.wav
4	100	1	1	1	C	2	1	1043	1	poli_8sides 2_whiteLine3.jpg	Short_b23_cut1_stereo_44KHz.wav
4	101	4	3	2	I	1	0	554	0	poli_8sides 6_whiteLine3.jpg	Short_b20_cut1_stereo_44KHz.wav
4	102	1	2	0	C	1	1	928	1	poli_8sides 2_whiteLine3.jpg	Short_b22_cut1_stereo_44KHz.wav
4	103	2	2	1	C	2	1	1201	1	poli_8sides 11_whiteLine3.jpg	Short_b22_cut1_stereo_44KHz.wav
4	104	3	4	2	I	1	0	600	0	poli_8sides 3_whiteLine3.jpg	Short_b09_cut1_stereo_44KHz.wav
4	105	2	1	0	C	1	1	1253	1	poli_8sides 11_whiteLine3.jpg	Short_b23_cut1_stereo_44KHz.wav
4	106	4	4	2	I	1	0	745	1	poli_8sides 6_whiteLine3.jpg	Short_b09_cut1_stereo_44KHz.wav
4	107	3	4	2	I	1	0	463	0	poli_8sides 3_whiteLine3.jpg	Short_b09_cut1_stereo_44KHz.wav
4	108	1	2	0	C	1	1	1142	1	poli_8sides 2_whiteLine3.jpg	Short_b22_cut1_stereo_44KHz.wav
4	109	3	3	2	I	1	0	634	0	poli_8sides 3_whiteLine3.jpg	Short_b20_cut1_stereo_44KHz.wav
4	110	4	3	2	I	1	0	563	1	poli_8sides 6_whiteLine3.jpg	Short_b20_cut1_stereo_44KHz.wav
4	111	2	2	1	C	2	1	1133	1	poli_8sides 11_whiteLine3.jpg	Short_b22_cut1_stereo_44KHz.wav
4	112	1	1	1	C	1	0	613	0	poli_8sides 2_whiteLine3.jpg	Short_b23_cut1_stereo_44KHz.wav
4	113	4	4	2	I	1	0	601	0	poli_8sides 6_whiteLine3.jpg	Short_b09_cut1_stereo_44KHz.wav
4	114	1	2	0	C	1	1	982	1	poli_8sides 2_whiteLine3.jpg	Short_b22_cut1_stereo_44KHz.wav
4	115	3	3	2	I	1	0	811	1	poli_8sides 3_whiteLine3.jpg	Short_b20_cut1_stereo_44KHz.wav
4	116	2	1	0	C	1	1	1079	1	poli_8sides 11_whiteLine3.jpg	Short_b23_cut1_stereo_44KHz.wav
4	117	4	3	2	I	1	0	629	0	poli_8sides 6_whiteLine3.jpg	Short_b20_cut1_stereo_44KHz.wav
4	118	2	2	1	C	2	1	1165	1	poli_8sides 11_whiteLine3.jpg	Short_b22_cut1_stereo_44KHz.wav
4	119	1	1	1	C	2	1	1324	1	poli_8sides 2_whiteLine3.jpg	Short_b23_cut1_stereo_44KHz.wav
4	120	3	4	2	I	1	0	763	1	poli_8sides 3_whiteLine3.jpg	Short_b09_cut1_stereo_44KHz.wav
4	121	2	1	0	C	1	1	1119	1	poli_8sides 11_whiteLine3.jpg	Short_b23_cut1_stereo_44KHz.wav
4	122	1	2	0	C	1	1	667	1	poli_8sides 2_whiteLine3.jpg	Short_b22_cut1_stereo_44KHz.wav
4	123	4	4	2	I	1	0	697	0	poli_8sides 6_whiteLine3.jpg	Short_b09_cut1_stereo_44KHz.wav
4	124	3	4	2	I	1	0	520	1	poli_8sides 3_whiteLine3.jpg	Short_b09_cut1_stereo_44KHz.wav
4	125	1	1	1	C	2	1	1265	1	poli_8sides 2_whiteLine3.jpg	Short_b23_cut1_stereo_44KHz.wav
4	126	3	3	2	I	1	0	864	1	poli_8sides 3_whiteLine3.jpg	Short_b20_cut1_stereo_44KHz.wav
4	127	4	3	2	I	1	0	628	0	poli_8sides 6_whiteLine3.jpg	Short_b20_cut1_stereo_44KHz.wav
4	128	2	2	1	C	2	1	1168	1	poli_8sides 11_whiteLine3.jpg	Short_b22_cut1_stereo_44KHz.wav
4	129	1	1	1	C	2	1	953	1	poli_8sides 2_whiteLine3.jpg	Short_b23_cut1_stereo_44KHz.wav
4	130	2	2	1	C	1	0	1825	0	poli_8sides 11_whiteLine3.jpg	Short_b22_cut1_stereo_44KHz.wav
4	131	4	4	2	I	1	0	626	1	poli_8sides 6_whiteLine3.jpg	Short_b09_cut1_stereo_44KHz.wav
4	132	3	4	2	I	1	0	577	1	poli_8sides 3_whiteLine3.jpg	Short_b09_cut1_stereo_44KHz.wav
4	133	4	3	2	I	1	0	580	1	poli_8sides 6_whiteLine3.jpg	Short_b20_cut1_stereo_44KHz.wav
4	134	2	1	0	C	1	1	1232	1	poli_8sides 11_whiteLine3.jpg	Short_b23_cut1_stereo_44KHz.wav
4	135	1	2	0	C	1	1	1511	1	poli_8sides 2_whiteLine3.jpg	Short_b22_cut1_stereo_44KHz.wav
4	136	3	3	2	I	1	0	602	1	poli_8sides 3_whiteLine3.jpg	Short_b20_cut1_stereo_44KHz.wav
4	137	2	1	0	C	2	0	1269	0	poli_8sides 11_whiteLine3.jpg	Short_b23_cut1_stereo_44KHz.wav
4	138	1	2	0	C	1	1	535	1	poli_8sides 2_whiteLine3.jpg	Short_b22_cut1_stereo_44KHz.wav
4	139	4	4	2	I	1	0	650	0	poli_8sides 6_whiteLine3.jpg	Short_b09_cut1_stereo_44KHz.wav
4	140	3	4	2	I	1	0	778	1	poli_8sides 3_whiteLine3.jpg	Short_b09_cut1_stereo_44KHz.wav
4	141	4	3	2	I	1	0	607	0	poli_8sides 6_whiteLine3.jpg	Short_b20_cut1_stereo_44KHz.wav
4	142	3	3	2	I	1	0	500	1	poli_8sides 3_whiteLine3.jpg	Short_b20_cut1_stereo_44KHz.wav
4	143	1	1	1	C	2	1	1233	1	poli_8sides 2_whiteLine3.jpg	Short_b23_cut1_stereo_44KHz.wav
4	144	2	2	1	C	2	1	1431	1	poli_8sides 11_whiteLine3.jpg	Short_b22_cut1_stereo_44KHz.wav
4	145	4	3	2	I	1	0	625	1	poli_8sides 6_whiteLine3.jpg	Short_b20_cut1_stereo_44KHz.wav
4	146	2	2	1	C	2	1	1509	1	poli_8sides 11_whiteLine3.jpg	Short_b22_cut1_stereo_44KHz.wav
4	147	3	3	2	I	1	0	661	0	poli_8sides 3_whiteLine3.jpg	Short_b20_cut1_stereo_44KHz.wav
4	148	1	1	1	C	1	0	1370	0	poli_8sides 2_whiteLine3.jpg	Short_b23_cut1_stereo_44KHz.wav
4	149	3	4	2	I	1	0	1314	1	poli_8sides 3_whiteLine3.jpg	Short_b09_cut1_stereo_44KHz.wav
4	150	4	4	2	I	1	0	663	1	poli_8sides 6_whiteLine3.jpg	Short_b09_cut1_stereo_44KHz.wav
4	151	1	2	0	C	1	1	996	1	poli_8sides 2_whiteLine3.jpg	Short_b22_cut1_stereo_44KHz.wav
4	152	2	1	0	C	1	1	748	1	poli_8sides 11_whiteLine3.jpg	Short_b23_cut1_stereo_44KHz.wav
4	153	4	4	2	I	1	0	653	1	poli_8sides 6_whiteLine3.jpg	Short_b09_cut1_stereo_44KHz.wav
4	154	3	3	2	I	1	0	669	0	poli_8sides 3_whiteLine3.jpg	Short_b20_cut1_stereo_44KHz.wav
4	155	1	1	1	C	2	1	876	1	poli_8sides 2_whiteLine3.jpg	Short_b23_cut1_stereo_44KHz.wav
4	156	2	2	1	C	2	1	938	1	poli_8sides 11_whiteLine3.jpg	Short_b22_cut1_stereo_44KHz.wav
4	157	1	2	0	C	1	1	1409	1	poli_8sides 2_whiteLine3.jpg	Short_b22_cut1_stereo_44KHz.wav
4	158	4	3	2	I	1	0	655	0	poli_8sides 6_whiteLine3.jpg	Short_b20_cut1_stereo_44KHz.wav
4	159	3	4	2	I	1	0	650	0	poli_8sides 3_whiteLine3.jpg	Short_b09_cut1_stereo_44KHz.wav
4	160	2	1	0	C	1	1	1359	1	poli_8sides 11_whiteLine3.jpg	Short_b23_cut1_stereo_44KHz.wav
4	161	4	3	2	I	1	0	693	1	poli_8sides 6_whiteLine3.jpg	Short_b20_cut1_stereo_44KHz.wav
4	162	1	2	0	C	1	1	1090	1	poli_8sides 2_whiteLine3.jpg	Short_b22_cut1_stereo_44KHz.wav
4	163	3	4	2	I	1	0	608	0	poli_8sides 3_whiteLine3.jpg	Short_b09_cut1_stereo_44KHz.wav
4	164	2	2	1	C	2	1	1220	1	poli_8sides 11_whiteLine3.jpg	Short_b22_cut1_stereo_44KHz.wav
4	165	4	4	2	I	1	0	648	0	poli_8sides 6_whiteLine3.jpg	Short_b09_cut1_stereo_44KHz.wav
4	166	2	1	0	C	1	1	1034	1	poli_8sides 11_whiteLine3.jpg	Short_b23_cut1_stereo_44KHz.wav
4	167	3	3	2	I	1	0	888	1	poli_8sides 3_whiteLine3.jpg	Short_b20_cut1_stereo_44KHz.wav
4	168	1	1	1	C	2	1	855	1	poli_8sides 2_whiteLine3.jpg	Short_b23_cut1_stereo_44KHz.wav
4	169	2	2	1	C	2	1	1124	1	poli_8sides 11_whiteLine3.jpg	Short_b22_cut1_stereo_44KHz.wav
4	170	1	1	1	C	2	1	1557	1	poli_8sides 2_whiteLine3.jpg	Short_b23_cut1_stereo_44KHz.wav
4	171	4	4	2	I	1	0	778	1	poli_8sides 6_whiteLine3.jpg	Short_b09_cut1_stereo_44KHz.wav
4	172	3	4	2	I	1	0	660	1	poli_8sides 3_whiteLine3.jpg	Short_b09_cut1_stereo_44KHz.wav
4	173	2	1	0	C	1	1	1106	1	poli_8sides 11_whiteLine3.jpg	Short_b23_cut1_stereo_44KHz.wav
4	174	4	3	2	I	1	0	663	1	poli_8sides 6_whiteLine3.jpg	Short_b20_cut1_stereo_44KHz.wav
4	175	1	2	0	C	1	1	1057	1	poli_8sides 2_whiteLine3.jpg	Short_b22_cut1_stereo_44KHz.wav
4	176	3	3	2	I	1	0	1116	1	poli_8sides 3_whiteLine3.jpg	Short_b20_cut1_stereo_44KHz.wav
4	177	2	1	0	C	1	1	955	1	poli_8sides 11_whiteLine3.jpg	Short_b23_cut1_stereo_44KHz.wav
4	178	4	3	2	I	1	0	669	1	poli_8sides 6_whiteLine3.jpg	Short_b20_cut1_stereo_44KHz.wav
4	179	3	4	2	I	1	0	829	1	poli_8sides 3_whiteLine3.jpg	Short_b09_cut1_stereo_44KHz.wav
4	180	1	2	0	C	1	1	1183	1	poli_8sides 2_whiteLine3.jpg	Short_b22_cut1_stereo_44KHz.wav
4	181	2	2	1	C	2	1	925	1	poli_8sides 11_whiteLine3.jpg	Short_b22_cut1_stereo_44KHz.wav
4	182	4	4	2	I	1	0	600	0	poli_8sides 6_whiteLine3.jpg	Short_b09_cut1_stereo_44KHz.wav
4	183	1	1	1	C	2	1	1391	1	poli_8sides 2_whiteLine3.jpg	Short_b23_cut1_stereo_44KHz.wav
4	184	3	3	2	I	1	0	611	1	poli_8sides 3_whiteLine3.jpg	Short_b20_cut1_stereo_44KHz.wav
4	185	2	1	0	C	1	1	1085	1	poli_8sides 11_whiteLine3.jpg	Short_b23_cut1_stereo_44KHz.wav
4	186	4	3	2	I	1	0	603	0	poli_8sides 6_whiteLine3.jpg	Short_b20_cut1_stereo_44KHz.wav
4	187	1	2	0	C	1	1	1079	1	poli_8sides 2_whiteLine3.jpg	Short_b22_cut1_stereo_44KHz.wav
4	188	3	4	2	I	1	0	627	1	poli_8sides 3_whiteLine3.jpg	Short_b09_cut1_stereo_44KHz.wav
4	189	1	1	1	C	2	1	844	1	poli_8sides 2_whiteLine3.jpg	Short_b23_cut1_stereo_44KHz.wav
4	190	2	2	1	C	2	1	1328	1	poli_8sides 11_whiteLine3.jpg	Short_b22_cut1_stereo_44KHz.wav
4	191	4	4	2	I	1	0	613	1	poli_8sides 6_whiteLine3.jpg	Short_b09_cut1_stereo_44KHz.wav
4	192	3	3	2	I	1	0	612	1	poli_8sides 3_whiteLine3.jpg	Short_b20_cut1_stereo_44KHz.wav
4	193	1	1	1	C	2	1	823	1	poli_8sides 2_whiteLine3.jpg	Short_b23_cut1_stereo_44KHz.wav
4	194	2	2	1	C	2	1	949	1	poli_8sides 11_whiteLine3.jpg	Short_b22_cut1_stereo_44KHz.wav
4	195	3	3	2	I	1	0	1323	0	poli_8sides 3_whiteLine3.jpg	Short_b20_cut1_stereo_44KHz.wav
4	196	4	4	2	I	1	0	674	1	poli_8sides 6_whiteLine3.jpg	Short_b09_cut1_stereo_44KHz.wav
4	197	3	4	2	I	1	0	622	1	poli_8sides 3_whiteLine3.jpg	Short_b09_cut1_stereo_44KHz.wav
4	198	4	3	2	I	1	0	827	0	poli_8sides 6_whiteLine3.jpg	Short_b20_cut1_stereo_44KHz.wav
4	199	1	2	0	C	1	1	1255	1	poli_8sides 2_whiteLine3.jpg	Short_b22_cut1_stereo_44KHz.wav
4	200	2	1	0	C	2	0	1325	0	poli_8sides 11_whiteLine3.jpg	Short_b23_cut1_stereo_44KHz.wav
