block	trial	Vstim	Astim	match	C/I	resp	result	RT	fb	V-file	A-file
RL

0	1	2	3	1	C	2	0	1735	0	Ⴢ	cut_eeuw_stereo_44KHz.wav
0	2	2	4	0	C	2	1	1111	1	Ⴢ	cut_g_stereo_44KHz.wav
0	3	1	2	0	C	1	0	739	0	Ⴉ	cut_ee_stereo_44KHz.wav
0	4	1	1	1	C	1	1	942	1	Ⴉ	cut_oo_stereo_44KHz.wav
0	5	2	4	0	C	2	1	774	1	Ⴢ	cut_g_stereo_44KHz.wav
0	6	1	1	1	C	1	1	738	1	Ⴉ	cut_oo_stereo_44KHz.wav
0	7	2	3	1	C	1	1	1049	1	Ⴢ	cut_eeuw_stereo_44KHz.wav
0	8	1	2	0	C	2	1	904	1	Ⴉ	cut_ee_stereo_44KHz.wav
0	9	2	3	1	C	1	1	742	1	Ⴢ	cut_eeuw_stereo_44KHz.wav
0	10	1	2	0	C	2	1	867	1	Ⴉ	cut_ee_stereo_44KHz.wav
0	11	1	1	1	C	1	1	738	1	Ⴉ	cut_oo_stereo_44KHz.wav
0	12	2	4	0	C	2	1	1238	1	Ⴢ	cut_g_stereo_44KHz.wav
0	13	2	3	1	C	1	1	1051	1	Ⴢ	cut_eeuw_stereo_44KHz.wav
0	14	1	1	1	C	1	1	1475	1	Ⴉ	cut_oo_stereo_44KHz.wav
0	15	2	4	0	C	2	1	678	1	Ⴢ	cut_g_stereo_44KHz.wav
0	16	1	2	0	C	2	1	882	1	Ⴉ	cut_ee_stereo_44KHz.wav
0	17	1	2	0	C	2	1	939	1	Ⴉ	cut_ee_stereo_44KHz.wav
0	18	1	1	1	C	1	1	727	1	Ⴉ	cut_oo_stereo_44KHz.wav
0	19	2	4	0	C	2	1	579	1	Ⴢ	cut_g_stereo_44KHz.wav
0	20	2	3	1	C	1	1	757	1	Ⴢ	cut_eeuw_stereo_44KHz.wav
0	21	1	2	0	C	2	1	1289	1	Ⴉ	cut_ee_stereo_44KHz.wav
0	22	2	3	1	C	1	1	476	1	Ⴢ	cut_eeuw_stereo_44KHz.wav
0	23	1	1	1	C	1	1	852	1	Ⴉ	cut_oo_stereo_44KHz.wav
0	24	2	4	0	C	2	1	660	1	Ⴢ	cut_g_stereo_44KHz.wav
0	25	1	2	0	C	2	1	1151	1	Ⴉ	cut_ee_stereo_44KHz.wav
0	26	2	3	1	C	1	1	1006	1	Ⴢ	cut_eeuw_stereo_44KHz.wav
0	27	1	1	1	C	1	1	914	1	Ⴉ	cut_oo_stereo_44KHz.wav
0	28	2	4	0	C	2	1	741	1	Ⴢ	cut_g_stereo_44KHz.wav
0	29	1	1	1	C	1	1	1441	1	Ⴉ	cut_oo_stereo_44KHz.wav
0	30	2	4	0	C	2	1	601	1	Ⴢ	cut_g_stereo_44KHz.wav
avg_resp = 904
1	1	4	3	2	I	2	0	1300	0	Ⴌ	cut_w_stereo_44KHz.wav
1	2	2	2	1	C	2	0	833	0	Ⴐ	cut_h_stereo_44KHz.wav
1	3	3	4	2	I	2	0	719	0	Ⴖ	cut_l_stereo_44KHz.wav
1	4	1	1	1	C	2	0	519	0	Ⴔ	cut_g_stereo_44KHz.wav
1	5	3	3	2	I	2	0	681	0	Ⴖ	cut_w_stereo_44KHz.wav
1	6	1	2	0	C	2	1	681	1	Ⴔ	cut_h_stereo_44KHz.wav
1	7	2	1	0	C	1	0	998	0	Ⴐ	cut_g_stereo_44KHz.wav
1	8	4	4	2	I	1	0	1021	1	Ⴌ	cut_l_stereo_44KHz.wav
1	9	3	3	2	I	1	0	1081	0	Ⴖ	cut_w_stereo_44KHz.wav
1	10	1	1	1	C	2	0	591	0	Ⴔ	cut_g_stereo_44KHz.wav
1	11	4	3	2	I	2	0	768	1	Ⴌ	cut_w_stereo_44KHz.wav
1	12	2	1	0	C	2	1	918	1	Ⴐ	cut_g_stereo_44KHz.wav
1	13	3	4	2	I	2	0	850	1	Ⴖ	cut_l_stereo_44KHz.wav
1	14	2	2	1	C	2	0	1128	0	Ⴐ	cut_h_stereo_44KHz.wav
1	15	4	4	2	I	1	0	1178	1	Ⴌ	cut_l_stereo_44KHz.wav
1	16	1	2	0	C	2	1	741	1	Ⴔ	cut_h_stereo_44KHz.wav
1	17	3	3	2	I	1	0	1242	0	Ⴖ	cut_w_stereo_44KHz.wav
1	18	4	3	2	I	2	0	1332	0	Ⴌ	cut_w_stereo_44KHz.wav
1	19	2	1	0	C	2	1	921	1	Ⴐ	cut_g_stereo_44KHz.wav
1	20	1	2	0	C	2	1	754	1	Ⴔ	cut_h_stereo_44KHz.wav
1	21	2	2	1	C	2	0	1277	0	Ⴐ	cut_h_stereo_44KHz.wav
1	22	4	4	2	I	2	0	964	1	Ⴌ	cut_l_stereo_44KHz.wav
1	23	1	1	1	C	2	0	507	0	Ⴔ	cut_g_stereo_44KHz.wav
1	24	3	4	2	I	2	0	1621	1	Ⴖ	cut_l_stereo_44KHz.wav
1	25	1	2	0	C	2	1	782	1	Ⴔ	cut_h_stereo_44KHz.wav
1	26	4	3	2	I	1	0	1255	0	Ⴌ	cut_w_stereo_44KHz.wav
1	27	2	2	1	C	2	0	1149	0	Ⴐ	cut_h_stereo_44KHz.wav
1	28	3	3	2	I	2	0	1555	1	Ⴖ	cut_w_stereo_44KHz.wav
1	29	1	1	1	C	2	0	726	0	Ⴔ	cut_g_stereo_44KHz.wav
1	30	2	1	0	C	2	1	562	1	Ⴐ	cut_g_stereo_44KHz.wav
1	31	4	4	2	I	2	0	899	1	Ⴌ	cut_l_stereo_44KHz.wav
1	32	3	4	2	I	2	0	987	0	Ⴖ	cut_l_stereo_44KHz.wav
1	33	4	3	2	I	2	0	811	0	Ⴌ	cut_w_stereo_44KHz.wav
1	34	1	1	1	C	1	1	1595	1	Ⴔ	cut_g_stereo_44KHz.wav
1	35	3	4	2	I	2	0	963	1	Ⴖ	cut_l_stereo_44KHz.wav
1	36	2	1	0	C	2	1	837	1	Ⴐ	cut_g_stereo_44KHz.wav
1	37	1	2	0	C	2	1	1168	1	Ⴔ	cut_h_stereo_44KHz.wav
1	38	4	4	2	I	2	0	1052	1	Ⴌ	cut_l_stereo_44KHz.wav
1	39	3	3	2	I	1	0	1402	1	Ⴖ	cut_w_stereo_44KHz.wav
1	40	2	2	1	C	1	1	1614	1	Ⴐ	cut_h_stereo_44KHz.wav
1	41	3	3	2	I	2	0	985	0	Ⴖ	cut_w_stereo_44KHz.wav
1	42	4	4	2	I	1	0	1320	1	Ⴌ	cut_l_stereo_44KHz.wav
1	43	2	1	0	C	2	1	655	1	Ⴐ	cut_g_stereo_44KHz.wav
1	44	1	1	1	C	1	1	1413	1	Ⴔ	cut_g_stereo_44KHz.wav
1	45	3	4	2	I	2	0	1037	0	Ⴖ	cut_l_stereo_44KHz.wav
1	46	1	2	0	C	2	1	1242	1	Ⴔ	cut_h_stereo_44KHz.wav
1	47	4	3	2	I	2	0	1261	1	Ⴌ	cut_w_stereo_44KHz.wav
1	48	2	2	1	C	2	0	892	0	Ⴐ	cut_h_stereo_44KHz.wav
1	49	3	3	2	I	2	0	843	1	Ⴖ	cut_w_stereo_44KHz.wav
1	50	1	1	1	C	1	1	1253	1	Ⴔ	cut_g_stereo_44KHz.wav
1	51	2	2	1	C	2	0	747	0	Ⴐ	cut_h_stereo_44KHz.wav
1	52	4	3	2	I	2	0	990	1	Ⴌ	cut_w_stereo_44KHz.wav
1	53	3	4	2	I	2	0	1464	0	Ⴖ	cut_l_stereo_44KHz.wav
1	54	4	4	2	I	2	0	841	0	Ⴌ	cut_l_stereo_44KHz.wav
1	55	1	2	0	C	2	1	1199	1	Ⴔ	cut_h_stereo_44KHz.wav
1	56	2	1	0	C	2	1	846	1	Ⴐ	cut_g_stereo_44KHz.wav
1	57	3	3	2	I	1	0	1089	0	Ⴖ	cut_w_stereo_44KHz.wav
1	58	4	3	2	I	1	0	917	1	Ⴌ	cut_w_stereo_44KHz.wav
1	59	1	1	1	C	2	0	1184	0	Ⴔ	cut_g_stereo_44KHz.wav
1	60	2	2	1	C	2	0	879	0	Ⴐ	cut_h_stereo_44KHz.wav
1	61	1	2	0	C	2	1	797	1	Ⴔ	cut_h_stereo_44KHz.wav
1	62	2	1	0	C	2	1	1446	1	Ⴐ	cut_g_stereo_44KHz.wav
1	63	3	4	2	I	2	0	1134	0	Ⴖ	cut_l_stereo_44KHz.wav
1	64	4	4	2	I	2	0	742	0	Ⴌ	cut_l_stereo_44KHz.wav
1	65	2	1	0	C	2	1	1304	1	Ⴐ	cut_g_stereo_44KHz.wav
1	66	1	1	1	C	1	1	896	1	Ⴔ	cut_g_stereo_44KHz.wav
1	67	3	3	2	I	2	0	1295	1	Ⴖ	cut_w_stereo_44KHz.wav
1	68	4	3	2	I	1	0	749	0	Ⴌ	cut_w_stereo_44KHz.wav
1	69	3	4	2	I	1	0	1190	0	Ⴖ	cut_l_stereo_44KHz.wav
1	70	4	4	2	I	2	0	981	0	Ⴌ	cut_l_stereo_44KHz.wav
1	71	1	2	0	C	2	1	998	1	Ⴔ	cut_h_stereo_44KHz.wav
1	72	2	2	1	C	1	1	1075	1	Ⴐ	cut_h_stereo_44KHz.wav
1	73	4	3	2	I	1	0	1315	0	Ⴌ	cut_w_stereo_44KHz.wav
1	74	3	4	2	I	1	0	932	1	Ⴖ	cut_l_stereo_44KHz.wav
1	75	1	1	1	C	1	1	1736	1	Ⴔ	cut_g_stereo_44KHz.wav
1	76	2	2	1	C	2	0	744	0	Ⴐ	cut_h_stereo_44KHz.wav
1	77	3	3	2	I	1	0	1709	0	Ⴖ	cut_w_stereo_44KHz.wav
1	78	4	4	2	I	1	0	1181	1	Ⴌ	cut_l_stereo_44KHz.wav
1	79	2	1	0	C	2	1	890	1	Ⴐ	cut_g_stereo_44KHz.wav
1	80	1	2	0	C	2	1	1464	1	Ⴔ	cut_h_stereo_44KHz.wav
1	81	2	1	0	C	2	1	1146	1	Ⴐ	cut_g_stereo_44KHz.wav
1	82	3	3	2	I	2	0	1200	1	Ⴖ	cut_w_stereo_44KHz.wav
1	83	4	4	2	I	2	0	1089	1	Ⴌ	cut_l_stereo_44KHz.wav
1	84	1	2	0	C	2	1	982	1	Ⴔ	cut_h_stereo_44KHz.wav
1	85	3	4	2	I	1	0	1160	1	Ⴖ	cut_l_stereo_44KHz.wav
1	86	4	3	2	I	1	0	972	0	Ⴌ	cut_w_stereo_44KHz.wav
1	87	1	1	1	C	1	1	962	1	Ⴔ	cut_g_stereo_44KHz.wav
1	88	2	2	1	C	2	0	719	0	Ⴐ	cut_h_stereo_44KHz.wav
1	89	1	1	1	C	1	1	528	1	Ⴔ	cut_g_stereo_44KHz.wav
1	90	2	2	1	C	1	1	1067	1	Ⴐ	cut_h_stereo_44KHz.wav
1	91	3	4	2	I	1	0	1434	0	Ⴖ	cut_l_stereo_44KHz.wav
1	92	4	4	2	I	2	0	1068	1	Ⴌ	cut_l_stereo_44KHz.wav
1	93	1	2	0	C	2	1	1225	1	Ⴔ	cut_h_stereo_44KHz.wav
1	94	4	3	2	I	2	0	1326	1	Ⴌ	cut_w_stereo_44KHz.wav
1	95	3	3	2	I	2	0	1040	0	Ⴖ	cut_w_stereo_44KHz.wav
1	96	2	1	0	C	2	1	1900	1	Ⴐ	cut_g_stereo_44KHz.wav
1	97	3	4	2	I	1	0	1135	1	Ⴖ	cut_l_stereo_44KHz.wav
1	98	4	4	2	I	2	0	1327	0	Ⴌ	cut_l_stereo_44KHz.wav
1	99	1	2	0	C	2	1	813	1	Ⴔ	cut_h_stereo_44KHz.wav
1	100	2	1	0	C	2	1	1143	1	Ⴐ	cut_g_stereo_44KHz.wav
1	101	1	1	1	C	1	1	757	1	Ⴔ	cut_g_stereo_44KHz.wav
1	102	2	2	1	C	1	1	1933	1	Ⴐ	cut_h_stereo_44KHz.wav
1	103	3	3	2	I	2	0	522	0	Ⴖ	cut_w_stereo_44KHz.wav
1	104	4	3	2	I	2	0	694	0	Ⴌ	cut_w_stereo_44KHz.wav
1	105	3	4	2	I	2	0	1376	0	Ⴖ	cut_l_stereo_44KHz.wav
1	106	1	2	0	C	2	1	1620	1	Ⴔ	cut_h_stereo_44KHz.wav
1	107	4	4	2	I	1	0	1287	0	Ⴌ	cut_l_stereo_44KHz.wav
1	108	2	2	1	C	1	1	1378	1	Ⴐ	cut_h_stereo_44KHz.wav
1	109	4	3	2	I	2	0	867	0	Ⴌ	cut_w_stereo_44KHz.wav
1	110	2	1	0	C	2	1	1086	1	Ⴐ	cut_g_stereo_44KHz.wav
1	111	3	3	2	I	2	0	783	0	Ⴖ	cut_w_stereo_44KHz.wav
1	112	1	1	1	C	1	1	1324	1	Ⴔ	cut_g_stereo_44KHz.wav
1	113	4	4	2	I	2	0	964	1	Ⴌ	cut_l_stereo_44KHz.wav
1	114	1	2	0	C	2	1	1092	1	Ⴔ	cut_h_stereo_44KHz.wav
1	115	3	4	2	I	2	0	1226	1	Ⴖ	cut_l_stereo_44KHz.wav
1	116	2	1	0	C	1	0	1191	0	Ⴐ	cut_g_stereo_44KHz.wav
1	117	1	1	1	C	1	1	1815	1	Ⴔ	cut_g_stereo_44KHz.wav
1	118	3	3	2	I	2	0	1079	1	Ⴖ	cut_w_stereo_44KHz.wav
1	119	4	3	2	I	2	0	1066	1	Ⴌ	cut_w_stereo_44KHz.wav
1	120	2	2	1	C	1	1	1669	1	Ⴐ	cut_h_stereo_44KHz.wav
1	121	4	4	2	I	1	0	1213	0	Ⴌ	cut_l_stereo_44KHz.wav
1	122	1	1	1	C	1	1	1020	1	Ⴔ	cut_g_stereo_44KHz.wav
1	123	3	3	2	I	2	0	848	1	Ⴖ	cut_w_stereo_44KHz.wav
1	124	2	2	1	C	2	0	750	0	Ⴐ	cut_h_stereo_44KHz.wav
1	125	4	3	2	I	2	0	1193	0	Ⴌ	cut_w_stereo_44KHz.wav
1	126	1	2	0	C	2	1	1169	1	Ⴔ	cut_h_stereo_44KHz.wav
1	127	3	4	2	I	2	0	1315	1	Ⴖ	cut_l_stereo_44KHz.wav
1	128	2	1	0	C	2	1	1072	1	Ⴐ	cut_g_stereo_44KHz.wav
1	129	4	4	2	I	1	0	1093	1	Ⴌ	cut_l_stereo_44KHz.wav
1	130	1	2	0	C	2	1	641	1	Ⴔ	cut_h_stereo_44KHz.wav
1	131	3	4	2	I	1	0	1674	1	Ⴖ	cut_l_stereo_44KHz.wav
1	132	2	2	1	C	2	0	563	0	Ⴐ	cut_h_stereo_44KHz.wav
1	133	1	1	1	C	1	1	833	1	Ⴔ	cut_g_stereo_44KHz.wav
1	134	3	3	2	I	2	0	848	1	Ⴖ	cut_w_stereo_44KHz.wav
1	135	4	3	2	I	2	0	486	1	Ⴌ	cut_w_stereo_44KHz.wav
1	136	2	1	0	C	2	1	1324	1	Ⴐ	cut_g_stereo_44KHz.wav
1	137	4	3	2	I	2	0	860	0	Ⴌ	cut_w_stereo_44KHz.wav
1	138	1	1	1	C	1	1	1742	1	Ⴔ	cut_g_stereo_44KHz.wav
1	139	2	2	1	C	1	1	1139	1	Ⴐ	cut_h_stereo_44KHz.wav
1	140	3	3	2	I	2	0	747	0	Ⴖ	cut_w_stereo_44KHz.wav
1	141	4	4	2	I	1	0	930	1	Ⴌ	cut_l_stereo_44KHz.wav
1	142	3	4	2	I	1	0	1090	1	Ⴖ	cut_l_stereo_44KHz.wav
1	143	2	1	0	C	2	1	842	1	Ⴐ	cut_g_stereo_44KHz.wav
1	144	1	2	0	C	2	1	667	1	Ⴔ	cut_h_stereo_44KHz.wav
1	145	4	3	2	I	1	0	878	0	Ⴌ	cut_w_stereo_44KHz.wav
1	146	3	4	2	I	1	0	1280	0	Ⴖ	cut_l_stereo_44KHz.wav
1	147	2	1	0	C	2	1	1322	1	Ⴐ	cut_g_stereo_44KHz.wav
1	148	1	2	0	C	2	1	657	1	Ⴔ	cut_h_stereo_44KHz.wav
1	149	4	4	2	I	1	0	1377	0	Ⴌ	cut_l_stereo_44KHz.wav
1	150	1	1	1	C	1	1	888	1	Ⴔ	cut_g_stereo_44KHz.wav
1	151	3	3	2	I	2	0	754	1	Ⴖ	cut_w_stereo_44KHz.wav
1	152	2	2	1	C	1	1	633	1	Ⴐ	cut_h_stereo_44KHz.wav
1	153	1	1	1	C	1	1	1443	1	Ⴔ	cut_g_stereo_44KHz.wav
1	154	3	3	2	I	2	0	744	0	Ⴖ	cut_w_stereo_44KHz.wav
1	155	4	4	2	I	1	0	1180	1	Ⴌ	cut_l_stereo_44KHz.wav
1	156	2	1	0	C	2	1	1309	1	Ⴐ	cut_g_stereo_44KHz.wav
1	157	1	2	0	C	2	1	1264	1	Ⴔ	cut_h_stereo_44KHz.wav
1	158	2	2	1	C	1	1	1079	1	Ⴐ	cut_h_stereo_44KHz.wav
1	159	4	3	2	I	2	0	719	1	Ⴌ	cut_w_stereo_44KHz.wav
1	160	3	4	2	I	2	0	1435	0	Ⴖ	cut_l_stereo_44KHz.wav
1	161	4	3	2	I	2	0	944	0	Ⴌ	cut_w_stereo_44KHz.wav
1	162	1	1	1	C	1	1	1155	1	Ⴔ	cut_g_stereo_44KHz.wav
1	163	3	3	2	I	2	0	1186	1	Ⴖ	cut_w_stereo_44KHz.wav
1	164	2	1	0	C	2	1	945	1	Ⴐ	cut_g_stereo_44KHz.wav
1	165	3	4	2	I	1	0	845	1	Ⴖ	cut_l_stereo_44KHz.wav
1	166	2	2	1	C	1	1	1075	1	Ⴐ	cut_h_stereo_44KHz.wav
1	167	1	2	0	C	2	1	855	1	Ⴔ	cut_h_stereo_44KHz.wav
1	168	4	4	2	I	1	0	1041	0	Ⴌ	cut_l_stereo_44KHz.wav
1	169	1	1	1	C	1	1	968	1	Ⴔ	cut_g_stereo_44KHz.wav
1	170	3	3	2	I	2	0	811	1	Ⴖ	cut_w_stereo_44KHz.wav
1	171	2	2	1	C	1	1	1209	1	Ⴐ	cut_h_stereo_44KHz.wav
1	172	4	3	2	I	1	0	1098	0	Ⴌ	cut_w_stereo_44KHz.wav
1	173	3	4	2	I	2	0	1424	0	Ⴖ	cut_l_stereo_44KHz.wav
1	174	1	2	0	C	2	1	1387	1	Ⴔ	cut_h_stereo_44KHz.wav
1	175	2	1	0	C	2	1	680	1	Ⴐ	cut_g_stereo_44KHz.wav
1	176	4	4	2	I	1	0	974	0	Ⴌ	cut_l_stereo_44KHz.wav
1	177	1	2	0	C	2	1	711	1	Ⴔ	cut_h_stereo_44KHz.wav
1	178	2	2	1	C	2	0	1606	0	Ⴐ	cut_h_stereo_44KHz.wav
1	179	4	3	2	I	1	0	1349	1	Ⴌ	cut_w_stereo_44KHz.wav
1	180	3	3	2	I	2	0	530	1	Ⴖ	cut_w_stereo_44KHz.wav
1	181	1	1	1	C	1	1	971	1	Ⴔ	cut_g_stereo_44KHz.wav
1	182	3	4	2	I	1	0	1498	1	Ⴖ	cut_l_stereo_44KHz.wav
1	183	2	1	0	C	2	1	842	1	Ⴐ	cut_g_stereo_44KHz.wav
1	184	4	4	2	I	2	0	1066	1	Ⴌ	cut_l_stereo_44KHz.wav
1	185	2	1	0	C	2	1	738	1	Ⴐ	cut_g_stereo_44KHz.wav
1	186	4	4	2	I	2	0	1605	1	Ⴌ	cut_l_stereo_44KHz.wav
1	187	1	2	0	C	2	1	1131	1	Ⴔ	cut_h_stereo_44KHz.wav
1	188	3	3	2	I	2	0	710	1	Ⴖ	cut_w_stereo_44KHz.wav
1	189	4	3	2	I	2	0	419	1	Ⴌ	cut_w_stereo_44KHz.wav
1	190	2	2	1	C	1	1	1628	1	Ⴐ	cut_h_stereo_44KHz.wav
1	191	1	1	1	C	1	1	1483	1	Ⴔ	cut_g_stereo_44KHz.wav
1	192	3	4	2	I	1	0	1342	0	Ⴖ	cut_l_stereo_44KHz.wav
1	193	4	4	2	I	2	0	870	0	Ⴌ	cut_l_stereo_44KHz.wav
1	194	1	1	1	C	1	1	1294	1	Ⴔ	cut_g_stereo_44KHz.wav
1	195	2	2	1	C	1	1	1266	1	Ⴐ	cut_h_stereo_44KHz.wav
1	196	3	4	2	I	2	0	1027	0	Ⴖ	cut_l_stereo_44KHz.wav
1	197	1	2	0	C	2	1	847	1	Ⴔ	cut_h_stereo_44KHz.wav
1	198	3	3	2	I	2	0	726	0	Ⴖ	cut_w_stereo_44KHz.wav
1	199	2	1	0	C	2	1	1238	1	Ⴐ	cut_g_stereo_44KHz.wav
1	200	4	3	2	I	1	0	1131	0	Ⴌ	cut_w_stereo_44KHz.wav
2	1	3	3	2	I	2	0	807	0	Ⴊ	cut_oei_stereo_44KHz.wav
2	2	2	2	1	C	2	0	954	0	Ⴟ	cut_ui_stereo_44KHz.wav
2	3	1	2	0	C	2	1	1159	1	Ⴇ	cut_ui_stereo_44KHz.wav
2	4	4	3	2	I	2	0	1017	1	Ⴜ	cut_oei_stereo_44KHz.wav
2	5	3	4	2	I	2	0	1051	0	Ⴊ	cut_s_stereo_44KHz.wav
2	6	4	4	2	I	2	0	814	1	Ⴜ	cut_s_stereo_44KHz.wav
2	7	1	1	1	C	1	1	901	1	Ⴇ	cut_f_stereo_44KHz.wav
2	8	2	1	0	C	2	1	770	1	Ⴟ	cut_f_stereo_44KHz.wav
2	9	1	2	0	C	2	1	716	1	Ⴇ	cut_ui_stereo_44KHz.wav
2	10	4	4	2	I	1	0	1060	0	Ⴜ	cut_s_stereo_44KHz.wav
2	11	3	4	2	I	1	0	963	0	Ⴊ	cut_s_stereo_44KHz.wav
2	12	2	1	0	C	2	1	768	1	Ⴟ	cut_f_stereo_44KHz.wav
2	13	3	3	2	I	1	0	758	0	Ⴊ	cut_oei_stereo_44KHz.wav
2	14	1	1	1	C	1	1	875	1	Ⴇ	cut_f_stereo_44KHz.wav
2	15	4	3	2	I	2	0	1120	1	Ⴜ	cut_oei_stereo_44KHz.wav
2	16	2	2	1	C	1	1	996	1	Ⴟ	cut_ui_stereo_44KHz.wav
2	17	3	4	2	I	2	0	910	1	Ⴊ	cut_s_stereo_44KHz.wav
2	18	1	2	0	C	2	1	786	1	Ⴇ	cut_ui_stereo_44KHz.wav
2	19	4	4	2	I	2	0	1281	0	Ⴜ	cut_s_stereo_44KHz.wav
2	20	2	2	1	C	1	1	802	1	Ⴟ	cut_ui_stereo_44KHz.wav
2	21	1	1	1	C	1	1	963	1	Ⴇ	cut_f_stereo_44KHz.wav
2	22	2	1	0	C	2	1	677	1	Ⴟ	cut_f_stereo_44KHz.wav
2	23	4	3	2	I	2	0	981	1	Ⴜ	cut_oei_stereo_44KHz.wav
2	24	3	3	2	I	1	0	814	1	Ⴊ	cut_oei_stereo_44KHz.wav
2	25	4	4	2	I	0	0	0	0	Ⴜ	cut_s_stereo_44KHz.wav
2	26	3	4	2	I	2	0	868	0	Ⴊ	cut_s_stereo_44KHz.wav
2	27	2	1	0	C	2	1	613	1	Ⴟ	cut_f_stereo_44KHz.wav
2	28	1	1	1	C	1	1	1091	1	Ⴇ	cut_f_stereo_44KHz.wav
2	29	2	2	1	C	1	1	736	1	Ⴟ	cut_ui_stereo_44KHz.wav
2	30	3	3	2	I	2	0	963	0	Ⴊ	cut_oei_stereo_44KHz.wav
2	31	1	2	0	C	1	0	601	0	Ⴇ	cut_ui_stereo_44KHz.wav
2	32	4	3	2	I	2	0	758	0	Ⴜ	cut_oei_stereo_44KHz.wav
2	33	2	1	0	C	2	1	638	1	Ⴟ	cut_f_stereo_44KHz.wav
2	34	3	4	2	I	2	0	1107	0	Ⴊ	cut_s_stereo_44KHz.wav
2	35	1	2	0	C	2	1	651	1	Ⴇ	cut_ui_stereo_44KHz.wav
2	36	4	3	2	I	2	0	947	1	Ⴜ	cut_oei_stereo_44KHz.wav
2	37	1	1	1	C	1	1	809	1	Ⴇ	cut_f_stereo_44KHz.wav
2	38	4	4	2	I	1	0	1053	1	Ⴜ	cut_s_stereo_44KHz.wav
2	39	2	2	1	C	1	1	850	1	Ⴟ	cut_ui_stereo_44KHz.wav
2	40	3	3	2	I	1	0	975	1	Ⴊ	cut_oei_stereo_44KHz.wav
2	41	2	1	0	C	2	1	690	1	Ⴟ	cut_f_stereo_44KHz.wav
2	42	1	2	0	C	2	1	735	1	Ⴇ	cut_ui_stereo_44KHz.wav
2	43	3	4	2	I	2	0	933	1	Ⴊ	cut_s_stereo_44KHz.wav
2	44	4	3	2	I	2	0	857	1	Ⴜ	cut_oei_stereo_44KHz.wav
2	45	1	1	1	C	1	1	1641	1	Ⴇ	cut_f_stereo_44KHz.wav
2	46	3	3	2	I	1	0	867	0	Ⴊ	cut_oei_stereo_44KHz.wav
2	47	4	4	2	I	1	0	1128	1	Ⴜ	cut_s_stereo_44KHz.wav
2	48	2	2	1	C	1	1	1096	1	Ⴟ	cut_ui_stereo_44KHz.wav
2	49	4	4	2	I	1	0	1068	0	Ⴜ	cut_s_stereo_44KHz.wav
2	50	3	3	2	I	2	0	1233	0	Ⴊ	cut_oei_stereo_44KHz.wav
2	51	1	2	0	C	2	1	634	1	Ⴇ	cut_ui_stereo_44KHz.wav
2	52	2	1	0	C	2	1	634	1	Ⴟ	cut_f_stereo_44KHz.wav
2	53	4	3	2	I	2	0	814	0	Ⴜ	cut_oei_stereo_44KHz.wav
2	54	3	4	2	I	2	0	720	0	Ⴊ	cut_s_stereo_44KHz.wav
2	55	2	2	1	C	1	1	819	1	Ⴟ	cut_ui_stereo_44KHz.wav
2	56	1	1	1	C	1	1	1581	1	Ⴇ	cut_f_stereo_44KHz.wav
2	57	2	1	0	C	2	1	484	1	Ⴟ	cut_f_stereo_44KHz.wav
2	58	4	4	2	I	1	0	908	0	Ⴜ	cut_s_stereo_44KHz.wav
2	59	3	3	2	I	2	0	857	0	Ⴊ	cut_oei_stereo_44KHz.wav
2	60	1	1	1	C	1	1	880	1	Ⴇ	cut_f_stereo_44KHz.wav
2	61	4	3	2	I	2	0	1172	0	Ⴜ	cut_oei_stereo_44KHz.wav
2	62	2	2	1	C	1	1	846	1	Ⴟ	cut_ui_stereo_44KHz.wav
2	63	1	2	0	C	2	1	642	1	Ⴇ	cut_ui_stereo_44KHz.wav
2	64	3	4	2	I	2	0	1154	1	Ⴊ	cut_s_stereo_44KHz.wav
2	65	1	2	0	C	2	1	914	1	Ⴇ	cut_ui_stereo_44KHz.wav
2	66	3	3	2	I	1	0	715	1	Ⴊ	cut_oei_stereo_44KHz.wav
2	67	2	2	1	C	1	1	803	1	Ⴟ	cut_ui_stereo_44KHz.wav
2	68	4	3	2	I	1	0	701	1	Ⴜ	cut_oei_stereo_44KHz.wav
2	69	3	4	2	I	2	0	1544	0	Ⴊ	cut_s_stereo_44KHz.wav
2	70	2	1	0	C	2	1	825	1	Ⴟ	cut_f_stereo_44KHz.wav
2	71	1	1	1	C	1	1	932	1	Ⴇ	cut_f_stereo_44KHz.wav
2	72	4	4	2	I	2	0	1393	1	Ⴜ	cut_s_stereo_44KHz.wav
2	73	2	1	0	C	2	1	913	1	Ⴟ	cut_f_stereo_44KHz.wav
2	74	3	4	2	I	2	0	1045	0	Ⴊ	cut_s_stereo_44KHz.wav
2	75	1	1	1	C	1	1	865	1	Ⴇ	cut_f_stereo_44KHz.wav
2	76	4	4	2	I	2	0	747	1	Ⴜ	cut_s_stereo_44KHz.wav
2	77	3	3	2	I	2	0	1026	0	Ⴊ	cut_oei_stereo_44KHz.wav
2	78	2	2	1	C	1	1	833	1	Ⴟ	cut_ui_stereo_44KHz.wav
2	79	1	2	0	C	2	1	748	1	Ⴇ	cut_ui_stereo_44KHz.wav
2	80	4	3	2	I	1	0	668	1	Ⴜ	cut_oei_stereo_44KHz.wav
2	81	1	1	1	C	1	1	1542	1	Ⴇ	cut_f_stereo_44KHz.wav
2	82	4	4	2	I	2	0	1364	1	Ⴜ	cut_s_stereo_44KHz.wav
2	83	3	3	2	I	1	0	1369	0	Ⴊ	cut_oei_stereo_44KHz.wav
2	84	2	2	1	C	1	1	1511	1	Ⴟ	cut_ui_stereo_44KHz.wav
2	85	3	4	2	I	2	0	1233	1	Ⴊ	cut_s_stereo_44KHz.wav
2	86	4	3	2	I	1	0	473	0	Ⴜ	cut_oei_stereo_44KHz.wav
2	87	1	2	0	C	2	1	856	1	Ⴇ	cut_ui_stereo_44KHz.wav
2	88	2	1	0	C	2	1	659	1	Ⴟ	cut_f_stereo_44KHz.wav
2	89	3	3	2	I	1	0	594	1	Ⴊ	cut_oei_stereo_44KHz.wav
2	90	1	1	1	C	1	1	918	1	Ⴇ	cut_f_stereo_44KHz.wav
2	91	2	1	0	C	2	1	605	1	Ⴟ	cut_f_stereo_44KHz.wav
2	92	4	4	2	I	1	0	467	1	Ⴜ	cut_s_stereo_44KHz.wav
2	93	1	2	0	C	2	1	785	1	Ⴇ	cut_ui_stereo_44KHz.wav
2	94	4	3	2	I	1	0	533	0	Ⴜ	cut_oei_stereo_44KHz.wav
2	95	2	2	1	C	1	1	1125	1	Ⴟ	cut_ui_stereo_44KHz.wav
2	96	3	4	2	I	2	0	930	1	Ⴊ	cut_s_stereo_44KHz.wav
2	97	4	4	2	I	1	0	1327	0	Ⴜ	cut_s_stereo_44KHz.wav
2	98	2	1	0	C	2	1	724	1	Ⴟ	cut_f_stereo_44KHz.wav
2	99	1	1	1	C	1	1	757	1	Ⴇ	cut_f_stereo_44KHz.wav
2	100	3	3	2	I	2	0	793	1	Ⴊ	cut_oei_stereo_44KHz.wav
2	101	4	3	2	I	2	0	655	1	Ⴜ	cut_oei_stereo_44KHz.wav
2	102	2	2	1	C	1	1	732	1	Ⴟ	cut_ui_stereo_44KHz.wav
2	103	3	4	2	I	2	0	1019	0	Ⴊ	cut_s_stereo_44KHz.wav
2	104	1	2	0	C	2	1	702	1	Ⴇ	cut_ui_stereo_44KHz.wav
2	105	2	1	0	C	2	1	725	1	Ⴟ	cut_f_stereo_44KHz.wav
2	106	1	1	1	C	1	1	799	1	Ⴇ	cut_f_stereo_44KHz.wav
2	107	4	4	2	I	2	0	554	0	Ⴜ	cut_s_stereo_44KHz.wav
2	108	3	4	2	I	2	0	836	1	Ⴊ	cut_s_stereo_44KHz.wav
2	109	4	3	2	I	2	0	1025	1	Ⴜ	cut_oei_stereo_44KHz.wav
2	110	2	2	1	C	1	1	1678	1	Ⴟ	cut_ui_stereo_44KHz.wav
2	111	3	3	2	I	2	0	1073	1	Ⴊ	cut_oei_stereo_44KHz.wav
2	112	1	2	0	C	2	1	985	1	Ⴇ	cut_ui_stereo_44KHz.wav
2	113	3	3	2	I	1	0	715	1	Ⴊ	cut_oei_stereo_44KHz.wav
2	114	4	3	2	I	2	0	577	0	Ⴜ	cut_oei_stereo_44KHz.wav
2	115	2	1	0	C	2	1	649	1	Ⴟ	cut_f_stereo_44KHz.wav
2	116	1	2	0	C	2	1	730	1	Ⴇ	cut_ui_stereo_44KHz.wav
2	117	4	4	2	I	1	0	561	1	Ⴜ	cut_s_stereo_44KHz.wav
2	118	3	4	2	I	1	0	353	1	Ⴊ	cut_s_stereo_44KHz.wav
2	119	1	1	1	C	2	0	602	0	Ⴇ	cut_f_stereo_44KHz.wav
2	120	2	2	1	C	1	1	1033	1	Ⴟ	cut_ui_stereo_44KHz.wav
2	121	4	3	2	I	2	0	562	0	Ⴜ	cut_oei_stereo_44KHz.wav
2	122	3	4	2	I	2	0	587	0	Ⴊ	cut_s_stereo_44KHz.wav
2	123	2	2	1	C	1	1	948	1	Ⴟ	cut_ui_stereo_44KHz.wav
2	124	1	2	0	C	2	1	725	1	Ⴇ	cut_ui_stereo_44KHz.wav
2	125	4	4	2	I	2	0	549	1	Ⴜ	cut_s_stereo_44KHz.wav
2	126	2	1	0	C	2	1	1615	1	Ⴟ	cut_f_stereo_44KHz.wav
2	127	3	3	2	I	2	0	586	1	Ⴊ	cut_oei_stereo_44KHz.wav
2	128	1	1	1	C	1	1	910	1	Ⴇ	cut_f_stereo_44KHz.wav
2	129	4	3	2	I	1	0	512	0	Ⴜ	cut_oei_stereo_44KHz.wav
2	130	2	1	0	C	2	1	656	1	Ⴟ	cut_f_stereo_44KHz.wav
2	131	1	2	0	C	2	1	677	1	Ⴇ	cut_ui_stereo_44KHz.wav
2	132	3	4	2	I	1	0	1307	1	Ⴊ	cut_s_stereo_44KHz.wav
2	133	2	2	1	C	1	1	953	1	Ⴟ	cut_ui_stereo_44KHz.wav
2	134	3	3	2	I	2	0	667	1	Ⴊ	cut_oei_stereo_44KHz.wav
2	135	1	1	1	C	2	0	1625	0	Ⴇ	cut_f_stereo_44KHz.wav
2	136	4	4	2	I	2	0	1613	1	Ⴜ	cut_s_stereo_44KHz.wav
2	137	2	2	1	C	1	1	1631	1	Ⴟ	cut_ui_stereo_44KHz.wav
2	138	1	2	0	C	2	1	901	1	Ⴇ	cut_ui_stereo_44KHz.wav
2	139	3	3	2	I	1	0	982	1	Ⴊ	cut_oei_stereo_44KHz.wav
2	140	4	3	2	I	1	0	1158	0	Ⴜ	cut_oei_stereo_44KHz.wav
2	141	2	1	0	C	2	1	632	1	Ⴟ	cut_f_stereo_44KHz.wav
2	142	4	4	2	I	1	0	930	0	Ⴜ	cut_s_stereo_44KHz.wav
2	143	3	4	2	I	2	0	884	0	Ⴊ	cut_s_stereo_44KHz.wav
2	144	1	1	1	C	1	1	902	1	Ⴇ	cut_f_stereo_44KHz.wav
2	145	3	4	2	I	1	0	832	0	Ⴊ	cut_s_stereo_44KHz.wav
2	146	1	2	0	C	2	1	615	1	Ⴇ	cut_ui_stereo_44KHz.wav
2	147	4	4	2	I	2	0	785	0	Ⴜ	cut_s_stereo_44KHz.wav
2	148	2	2	1	C	2	0	603	0	Ⴟ	cut_ui_stereo_44KHz.wav
2	149	1	1	1	C	1	1	666	1	Ⴇ	cut_f_stereo_44KHz.wav
2	150	3	3	2	I	1	0	659	1	Ⴊ	cut_oei_stereo_44KHz.wav
2	151	2	1	0	C	2	1	865	1	Ⴟ	cut_f_stereo_44KHz.wav
2	152	4	3	2	I	1	0	742	0	Ⴜ	cut_oei_stereo_44KHz.wav
2	153	1	2	0	C	2	1	841	1	Ⴇ	cut_ui_stereo_44KHz.wav
2	154	2	1	0	C	2	1	1237	1	Ⴟ	cut_f_stereo_44KHz.wav
2	155	4	3	2	I	1	0	881	0	Ⴜ	cut_oei_stereo_44KHz.wav
2	156	3	3	2	I	1	0	543	0	Ⴊ	cut_oei_stereo_44KHz.wav
2	157	4	4	2	I	2	0	599	0	Ⴜ	cut_s_stereo_44KHz.wav
2	158	1	1	1	C	1	1	1155	1	Ⴇ	cut_f_stereo_44KHz.wav
2	159	2	2	1	C	1	1	1188	1	Ⴟ	cut_ui_stereo_44KHz.wav
2	160	3	4	2	I	1	0	636	1	Ⴊ	cut_s_stereo_44KHz.wav
2	161	1	2	0	C	2	1	1156	1	Ⴇ	cut_ui_stereo_44KHz.wav
2	162	3	3	2	I	2	0	875	1	Ⴊ	cut_oei_stereo_44KHz.wav
2	163	4	3	2	I	2	0	965	1	Ⴜ	cut_oei_stereo_44KHz.wav
2	164	2	1	0	C	2	1	875	1	Ⴟ	cut_f_stereo_44KHz.wav
2	165	4	4	2	I	2	0	467	0	Ⴜ	cut_s_stereo_44KHz.wav
2	166	3	4	2	I	2	0	509	0	Ⴊ	cut_s_stereo_44KHz.wav
2	167	1	1	1	C	1	1	788	1	Ⴇ	cut_f_stereo_44KHz.wav
2	168	2	2	1	C	0	0	0	0	Ⴟ	cut_ui_stereo_44KHz.wav
2	169	1	1	1	C	1	1	1281	1	Ⴇ	cut_f_stereo_44KHz.wav
2	170	4	3	2	I	1	0	1105	1	Ⴜ	cut_oei_stereo_44KHz.wav
2	171	3	3	2	I	1	0	450	1	Ⴊ	cut_oei_stereo_44KHz.wav
2	172	2	2	1	C	1	1	917	1	Ⴟ	cut_ui_stereo_44KHz.wav
2	173	4	4	2	I	1	0	1231	1	Ⴜ	cut_s_stereo_44KHz.wav
2	174	1	2	0	C	2	1	782	1	Ⴇ	cut_ui_stereo_44KHz.wav
2	175	2	1	0	C	2	1	1006	1	Ⴟ	cut_f_stereo_44KHz.wav
2	176	3	4	2	I	1	0	801	0	Ⴊ	cut_s_stereo_44KHz.wav
2	177	2	2	1	C	1	1	763	1	Ⴟ	cut_ui_stereo_44KHz.wav
2	178	4	4	2	I	2	0	561	1	Ⴜ	cut_s_stereo_44KHz.wav
2	179	3	4	2	I	2	0	596	0	Ⴊ	cut_s_stereo_44KHz.wav
2	180	1	1	1	C	1	1	820	1	Ⴇ	cut_f_stereo_44KHz.wav
2	181	2	1	0	C	2	1	661	1	Ⴟ	cut_f_stereo_44KHz.wav
2	182	3	3	2	I	1	0	504	1	Ⴊ	cut_oei_stereo_44KHz.wav
2	183	1	2	0	C	2	1	601	1	Ⴇ	cut_ui_stereo_44KHz.wav
2	184	4	3	2	I	2	0	421	1	Ⴜ	cut_oei_stereo_44KHz.wav
2	185	3	3	2	I	1	0	1462	1	Ⴊ	cut_oei_stereo_44KHz.wav
2	186	4	4	2	I	2	0	991	0	Ⴜ	cut_s_stereo_44KHz.wav
2	187	2	2	1	C	1	1	953	1	Ⴟ	cut_ui_stereo_44KHz.wav
2	188	1	2	0	C	2	1	1123	1	Ⴇ	cut_ui_stereo_44KHz.wav
2	189	3	4	2	I	2	0	849	0	Ⴊ	cut_s_stereo_44KHz.wav
2	190	1	1	1	C	1	1	679	1	Ⴇ	cut_f_stereo_44KHz.wav
2	191	4	3	2	I	1	0	1001	0	Ⴜ	cut_oei_stereo_44KHz.wav
2	192	2	1	0	C	2	1	755	1	Ⴟ	cut_f_stereo_44KHz.wav
2	193	3	3	2	I	1	0	415	1	Ⴊ	cut_oei_stereo_44KHz.wav
2	194	2	2	1	C	1	1	953	1	Ⴟ	cut_ui_stereo_44KHz.wav
2	195	1	1	1	C	1	1	1046	1	Ⴇ	cut_f_stereo_44KHz.wav
2	196	4	4	2	I	2	0	944	1	Ⴜ	cut_s_stereo_44KHz.wav
2	197	2	1	0	C	1	0	1173	0	Ⴟ	cut_f_stereo_44KHz.wav
2	198	3	4	2	I	2	0	1272	0	Ⴊ	cut_s_stereo_44KHz.wav
2	199	1	2	0	C	2	1	727	1	Ⴇ	cut_ui_stereo_44KHz.wav
2	200	4	3	2	I	1	0	608	0	Ⴜ	cut_oei_stereo_44KHz.wav
3	1	3	3	2	I	2	0	716	0	Ⴡ	cut_k_stereo_44KHz.wav
3	2	4	4	2	I	2	0	843	1	Ⴂ	cut_a_stereo_44KHz.wav
3	3	2	1	0	C	1	0	971	0	Ⴁ	cut_o_stereo_44KHz.wav
3	4	1	1	1	C	2	0	682	0	Ⴃ	cut_o_stereo_44KHz.wav
3	5	2	2	1	C	2	0	738	0	Ⴁ	cut_u_stereo_44KHz.wav
3	6	1	2	0	C	2	1	948	1	Ⴃ	cut_u_stereo_44KHz.wav
3	7	4	3	2	I	2	0	1178	1	Ⴂ	cut_k_stereo_44KHz.wav
3	8	3	4	2	I	1	0	1034	0	Ⴡ	cut_a_stereo_44KHz.wav
3	9	4	4	2	I	1	0	865	0	Ⴂ	cut_a_stereo_44KHz.wav
3	10	2	2	1	C	1	1	1015	1	Ⴁ	cut_u_stereo_44KHz.wav
3	11	3	3	2	I	2	0	994	1	Ⴡ	cut_k_stereo_44KHz.wav
3	12	1	2	0	C	2	1	960	1	Ⴃ	cut_u_stereo_44KHz.wav
3	13	4	3	2	I	2	0	864	0	Ⴂ	cut_k_stereo_44KHz.wav
3	14	2	1	0	C	2	1	1361	1	Ⴁ	cut_o_stereo_44KHz.wav
3	15	1	1	1	C	1	1	695	1	Ⴃ	cut_o_stereo_44KHz.wav
3	16	3	4	2	I	2	0	874	1	Ⴡ	cut_a_stereo_44KHz.wav
3	17	4	3	2	I	2	0	1451	0	Ⴂ	cut_k_stereo_44KHz.wav
3	18	3	3	2	I	2	0	1177	0	Ⴡ	cut_k_stereo_44KHz.wav
3	19	2	1	0	C	2	1	1192	1	Ⴁ	cut_o_stereo_44KHz.wav
3	20	1	2	0	C	2	1	1115	1	Ⴃ	cut_u_stereo_44KHz.wav
3	21	2	2	1	C	1	1	940	1	Ⴁ	cut_u_stereo_44KHz.wav
3	22	3	4	2	I	2	0	767	1	Ⴡ	cut_a_stereo_44KHz.wav
3	23	1	1	1	C	1	1	1118	1	Ⴃ	cut_o_stereo_44KHz.wav
3	24	4	4	2	I	1	0	999	0	Ⴂ	cut_a_stereo_44KHz.wav
3	25	2	2	1	C	1	1	1505	1	Ⴁ	cut_u_stereo_44KHz.wav
3	26	3	4	2	I	2	0	746	1	Ⴡ	cut_a_stereo_44KHz.wav
3	27	1	2	0	C	0	0	0	0	Ⴃ	cut_u_stereo_44KHz.wav
3	28	4	4	2	I	1	0	894	1	Ⴂ	cut_a_stereo_44KHz.wav
3	29	3	3	2	I	2	0	1074	0	Ⴡ	cut_k_stereo_44KHz.wav
3	30	4	3	2	I	2	0	727	0	Ⴂ	cut_k_stereo_44KHz.wav
3	31	2	1	0	C	2	1	1000	1	Ⴁ	cut_o_stereo_44KHz.wav
3	32	1	1	1	C	1	1	875	1	Ⴃ	cut_o_stereo_44KHz.wav
3	33	3	3	2	I	2	0	1115	1	Ⴡ	cut_k_stereo_44KHz.wav
3	34	4	3	2	I	1	0	698	1	Ⴂ	cut_k_stereo_44KHz.wav
3	35	1	1	1	C	1	1	1220	1	Ⴃ	cut_o_stereo_44KHz.wav
3	36	2	2	1	C	1	1	890	1	Ⴁ	cut_u_stereo_44KHz.wav
3	37	4	4	2	I	2	0	830	0	Ⴂ	cut_a_stereo_44KHz.wav
3	38	3	4	2	I	1	0	1031	0	Ⴡ	cut_a_stereo_44KHz.wav
3	39	2	1	0	C	2	1	866	1	Ⴁ	cut_o_stereo_44KHz.wav
3	40	1	2	0	C	2	1	1315	1	Ⴃ	cut_u_stereo_44KHz.wav
3	41	2	2	1	C	1	1	993	1	Ⴁ	cut_u_stereo_44KHz.wav
3	42	3	4	2	I	2	0	901	0	Ⴡ	cut_a_stereo_44KHz.wav
3	43	1	2	0	C	2	1	1146	1	Ⴃ	cut_u_stereo_44KHz.wav
3	44	4	3	2	I	1	0	761	1	Ⴂ	cut_k_stereo_44KHz.wav
3	45	1	1	1	C	1	1	1262	1	Ⴃ	cut_o_stereo_44KHz.wav
3	46	3	3	2	I	2	0	567	0	Ⴡ	cut_k_stereo_44KHz.wav
3	47	4	4	2	I	2	0	652	0	Ⴂ	cut_a_stereo_44KHz.wav
3	48	2	1	0	C	2	1	851	1	Ⴁ	cut_o_stereo_44KHz.wav
3	49	4	4	2	I	1	0	1001	1	Ⴂ	cut_a_stereo_44KHz.wav
3	50	2	1	0	C	2	1	748	1	Ⴁ	cut_o_stereo_44KHz.wav
3	51	1	1	1	C	1	1	986	1	Ⴃ	cut_o_stereo_44KHz.wav
3	52	3	3	2	I	2	0	708	1	Ⴡ	cut_k_stereo_44KHz.wav
3	53	1	2	0	C	2	1	1281	1	Ⴃ	cut_u_stereo_44KHz.wav
3	54	4	3	2	I	2	0	794	0	Ⴂ	cut_k_stereo_44KHz.wav
3	55	3	4	2	I	2	0	1300	0	Ⴡ	cut_a_stereo_44KHz.wav
3	56	2	2	1	C	1	1	1037	1	Ⴁ	cut_u_stereo_44KHz.wav
3	57	1	1	1	C	1	1	912	1	Ⴃ	cut_o_stereo_44KHz.wav
3	58	4	4	2	I	2	0	923	1	Ⴂ	cut_a_stereo_44KHz.wav
3	59	2	1	0	C	2	1	1027	1	Ⴁ	cut_o_stereo_44KHz.wav
3	60	3	3	2	I	1	0	559	1	Ⴡ	cut_k_stereo_44KHz.wav
3	61	2	2	1	C	0	0	0	0	Ⴁ	cut_u_stereo_44KHz.wav
3	62	4	3	2	I	2	0	1236	0	Ⴂ	cut_k_stereo_44KHz.wav
3	63	1	2	0	C	2	1	1110	1	Ⴃ	cut_u_stereo_44KHz.wav
3	64	3	4	2	I	2	0	406	1	Ⴡ	cut_a_stereo_44KHz.wav
3	65	4	4	2	I	1	0	747	0	Ⴂ	cut_a_stereo_44KHz.wav
3	66	2	1	0	C	2	1	837	1	Ⴁ	cut_o_stereo_44KHz.wav
3	67	1	1	1	C	1	1	951	1	Ⴃ	cut_o_stereo_44KHz.wav
3	68	3	4	2	I	1	0	446	0	Ⴡ	cut_a_stereo_44KHz.wav
3	69	4	3	2	I	2	0	801	1	Ⴂ	cut_k_stereo_44KHz.wav
3	70	1	2	0	C	2	1	1274	1	Ⴃ	cut_u_stereo_44KHz.wav
3	71	3	3	2	I	1	0	895	1	Ⴡ	cut_k_stereo_44KHz.wav
3	72	2	2	1	C	1	1	1069	1	Ⴁ	cut_u_stereo_44KHz.wav
3	73	1	1	1	C	1	1	890	1	Ⴃ	cut_o_stereo_44KHz.wav
3	74	3	4	2	I	2	0	792	1	Ⴡ	cut_a_stereo_44KHz.wav
3	75	2	1	0	C	2	1	1305	1	Ⴁ	cut_o_stereo_44KHz.wav
3	76	4	3	2	I	2	0	1339	0	Ⴂ	cut_k_stereo_44KHz.wav
3	77	2	2	1	C	1	1	1072	1	Ⴁ	cut_u_stereo_44KHz.wav
3	78	4	4	2	I	2	0	694	1	Ⴂ	cut_a_stereo_44KHz.wav
3	79	3	3	2	I	1	0	643	0	Ⴡ	cut_k_stereo_44KHz.wav
3	80	1	2	0	C	2	1	1623	1	Ⴃ	cut_u_stereo_44KHz.wav
3	81	4	3	2	I	2	0	657	0	Ⴂ	cut_k_stereo_44KHz.wav
3	82	3	4	2	I	2	0	734	1	Ⴡ	cut_a_stereo_44KHz.wav
3	83	2	2	1	C	1	1	1192	1	Ⴁ	cut_u_stereo_44KHz.wav
3	84	1	1	1	C	1	1	698	1	Ⴃ	cut_o_stereo_44KHz.wav
3	85	2	1	0	C	2	1	1417	1	Ⴁ	cut_o_stereo_44KHz.wav
3	86	3	3	2	I	1	0	803	0	Ⴡ	cut_k_stereo_44KHz.wav
3	87	4	4	2	I	2	0	574	0	Ⴂ	cut_a_stereo_44KHz.wav
3	88	1	2	0	C	2	1	1134	1	Ⴃ	cut_u_stereo_44KHz.wav
3	89	3	4	2	I	1	0	1085	0	Ⴡ	cut_a_stereo_44KHz.wav
3	90	4	4	2	I	1	0	522	1	Ⴂ	cut_a_stereo_44KHz.wav
3	91	2	1	0	C	2	1	691	1	Ⴁ	cut_o_stereo_44KHz.wav
3	92	1	1	1	C	1	1	809	1	Ⴃ	cut_o_stereo_44KHz.wav
3	93	4	3	2	I	2	0	893	1	Ⴂ	cut_k_stereo_44KHz.wav
3	94	2	2	1	C	1	1	1214	1	Ⴁ	cut_u_stereo_44KHz.wav
3	95	3	3	2	I	1	0	692	0	Ⴡ	cut_k_stereo_44KHz.wav
3	96	1	2	0	C	2	1	1176	1	Ⴃ	cut_u_stereo_44KHz.wav
3	97	2	1	0	C	2	1	789	1	Ⴁ	cut_o_stereo_44KHz.wav
3	98	1	2	0	C	2	1	1584	1	Ⴃ	cut_u_stereo_44KHz.wav
3	99	3	4	2	I	2	0	760	0	Ⴡ	cut_a_stereo_44KHz.wav
3	100	4	3	2	I	1	0	577	1	Ⴂ	cut_k_stereo_44KHz.wav
3	101	2	2	1	C	1	1	1028	1	Ⴁ	cut_u_stereo_44KHz.wav
3	102	1	1	1	C	1	1	1070	1	Ⴃ	cut_o_stereo_44KHz.wav
3	103	3	3	2	I	1	0	1231	1	Ⴡ	cut_k_stereo_44KHz.wav
3	104	4	4	2	I	2	0	373	0	Ⴂ	cut_a_stereo_44KHz.wav
3	105	1	1	1	C	1	1	744	1	Ⴃ	cut_o_stereo_44KHz.wav
3	106	2	2	1	C	1	1	1050	1	Ⴁ	cut_u_stereo_44KHz.wav
3	107	4	4	2	I	2	0	881	0	Ⴂ	cut_a_stereo_44KHz.wav
3	108	3	3	2	I	1	0	666	1	Ⴡ	cut_k_stereo_44KHz.wav
3	109	2	1	0	C	2	1	1177	1	Ⴁ	cut_o_stereo_44KHz.wav
3	110	4	3	2	I	2	0	983	1	Ⴂ	cut_k_stereo_44KHz.wav
3	111	1	2	0	C	2	1	1133	1	Ⴃ	cut_u_stereo_44KHz.wav
3	112	3	4	2	I	2	0	623	1	Ⴡ	cut_a_stereo_44KHz.wav
3	113	2	2	1	C	1	1	1004	1	Ⴁ	cut_u_stereo_44KHz.wav
3	114	1	2	0	C	2	1	1310	1	Ⴃ	cut_u_stereo_44KHz.wav
3	115	4	4	2	I	1	0	921	0	Ⴂ	cut_a_stereo_44KHz.wav
3	116	3	4	2	I	1	0	679	0	Ⴡ	cut_a_stereo_44KHz.wav
3	117	4	3	2	I	2	0	1245	0	Ⴂ	cut_k_stereo_44KHz.wav
3	118	1	1	1	C	1	1	967	1	Ⴃ	cut_o_stereo_44KHz.wav
3	119	2	1	0	C	2	1	797	1	Ⴁ	cut_o_stereo_44KHz.wav
3	120	3	3	2	I	2	0	836	0	Ⴡ	cut_k_stereo_44KHz.wav
3	121	1	2	0	C	2	1	1161	1	Ⴃ	cut_u_stereo_44KHz.wav
3	122	3	3	2	I	1	0	1222	1	Ⴡ	cut_k_stereo_44KHz.wav
3	123	2	1	0	C	2	1	1797	1	Ⴁ	cut_o_stereo_44KHz.wav
3	124	4	3	2	I	2	0	860	0	Ⴂ	cut_k_stereo_44KHz.wav
3	125	3	4	2	I	2	0	669	1	Ⴡ	cut_a_stereo_44KHz.wav
3	126	4	4	2	I	2	0	823	1	Ⴂ	cut_a_stereo_44KHz.wav
3	127	2	2	1	C	1	1	1672	1	Ⴁ	cut_u_stereo_44KHz.wav
3	128	1	1	1	C	1	1	1038	1	Ⴃ	cut_o_stereo_44KHz.wav
3	129	4	4	2	I	2	0	840	1	Ⴂ	cut_a_stereo_44KHz.wav
3	130	2	1	0	C	2	1	847	1	Ⴁ	cut_o_stereo_44KHz.wav
3	131	1	1	1	C	1	1	795	1	Ⴃ	cut_o_stereo_44KHz.wav
3	132	3	4	2	I	2	0	743	1	Ⴡ	cut_a_stereo_44KHz.wav
3	133	4	3	2	I	2	0	614	0	Ⴂ	cut_k_stereo_44KHz.wav
3	134	2	2	1	C	1	1	1040	1	Ⴁ	cut_u_stereo_44KHz.wav
3	135	1	2	0	C	2	1	1494	1	Ⴃ	cut_u_stereo_44KHz.wav
3	136	3	3	2	I	1	0	792	0	Ⴡ	cut_k_stereo_44KHz.wav
3	137	1	1	1	C	1	1	779	1	Ⴃ	cut_o_stereo_44KHz.wav
3	138	3	4	2	I	2	0	1254	0	Ⴡ	cut_a_stereo_44KHz.wav
3	139	4	4	2	I	2	0	1084	1	Ⴂ	cut_a_stereo_44KHz.wav
3	140	2	2	1	C	1	1	863	1	Ⴁ	cut_u_stereo_44KHz.wav
3	141	4	3	2	I	2	0	1204	1	Ⴂ	cut_k_stereo_44KHz.wav
3	142	1	2	0	C	2	1	1064	1	Ⴃ	cut_u_stereo_44KHz.wav
3	143	2	1	0	C	2	1	1284	1	Ⴁ	cut_o_stereo_44KHz.wav
3	144	3	3	2	I	1	0	1069	1	Ⴡ	cut_k_stereo_44KHz.wav
3	145	4	3	2	I	2	0	1081	0	Ⴂ	cut_k_stereo_44KHz.wav
3	146	1	1	1	C	1	1	1100	1	Ⴃ	cut_o_stereo_44KHz.wav
3	147	3	4	2	I	2	0	870	1	Ⴡ	cut_a_stereo_44KHz.wav
3	148	2	2	1	C	1	1	953	1	Ⴁ	cut_u_stereo_44KHz.wav
3	149	3	3	2	I	1	0	849	1	Ⴡ	cut_k_stereo_44KHz.wav
3	150	2	1	0	C	2	1	952	1	Ⴁ	cut_o_stereo_44KHz.wav
3	151	4	4	2	I	2	0	846	1	Ⴂ	cut_a_stereo_44KHz.wav
3	152	1	2	0	C	2	1	943	1	Ⴃ	cut_u_stereo_44KHz.wav
3	153	2	2	1	C	1	1	1227	1	Ⴁ	cut_u_stereo_44KHz.wav
3	154	4	4	2	I	2	0	784	0	Ⴂ	cut_a_stereo_44KHz.wav
3	155	3	3	2	I	1	0	1023	0	Ⴡ	cut_k_stereo_44KHz.wav
3	156	1	2	0	C	1	0	1568	0	Ⴃ	cut_u_stereo_44KHz.wav
3	157	4	3	2	I	2	0	802	0	Ⴂ	cut_k_stereo_44KHz.wav
3	158	1	1	1	C	1	1	1087	1	Ⴃ	cut_o_stereo_44KHz.wav
3	159	3	4	2	I	2	0	1007	0	Ⴡ	cut_a_stereo_44KHz.wav
3	160	2	1	0	C	2	1	1871	1	Ⴁ	cut_o_stereo_44KHz.wav
3	161	1	1	1	C	0	0	0	0	Ⴃ	cut_o_stereo_44KHz.wav
3	162	3	4	2	I	2	0	738	0	Ⴡ	cut_a_stereo_44KHz.wav
3	163	4	3	2	I	2	0	687	1	Ⴂ	cut_k_stereo_44KHz.wav
3	164	2	2	1	C	1	1	793	1	Ⴁ	cut_u_stereo_44KHz.wav
3	165	4	4	2	I	2	0	1575	1	Ⴂ	cut_a_stereo_44KHz.wav
3	166	1	2	0	C	2	1	1227	1	Ⴃ	cut_u_stereo_44KHz.wav
3	167	3	3	2	I	1	0	973	1	Ⴡ	cut_k_stereo_44KHz.wav
3	168	2	1	0	C	2	1	687	1	Ⴁ	cut_o_stereo_44KHz.wav
3	169	4	4	2	I	2	0	987	0	Ⴂ	cut_a_stereo_44KHz.wav
3	170	3	3	2	I	1	0	987	1	Ⴡ	cut_k_stereo_44KHz.wav
3	171	1	1	1	C	1	1	1409	1	Ⴃ	cut_o_stereo_44KHz.wav
3	172	2	1	0	C	2	1	774	1	Ⴁ	cut_o_stereo_44KHz.wav
3	173	3	4	2	I	2	0	1121	1	Ⴡ	cut_a_stereo_44KHz.wav
3	174	1	2	0	C	2	1	1173	1	Ⴃ	cut_u_stereo_44KHz.wav
3	175	2	2	1	C	1	1	753	1	Ⴁ	cut_u_stereo_44KHz.wav
3	176	4	3	2	I	2	0	942	1	Ⴂ	cut_k_stereo_44KHz.wav
3	177	1	2	0	C	2	1	925	1	Ⴃ	cut_u_stereo_44KHz.wav
3	178	2	1	0	C	2	1	917	1	Ⴁ	cut_o_stereo_44KHz.wav
3	179	3	3	2	I	1	0	867	0	Ⴡ	cut_k_stereo_44KHz.wav
3	180	4	3	2	I	2	0	931	1	Ⴂ	cut_k_stereo_44KHz.wav
3	181	1	1	1	C	1	1	1225	1	Ⴃ	cut_o_stereo_44KHz.wav
3	182	3	4	2	I	2	0	833	0	Ⴡ	cut_a_stereo_44KHz.wav
3	183	4	4	2	I	1	0	838	1	Ⴂ	cut_a_stereo_44KHz.wav
3	184	2	2	1	C	1	1	746	1	Ⴁ	cut_u_stereo_44KHz.wav
3	185	3	3	2	I	1	0	1057	0	Ⴡ	cut_k_stereo_44KHz.wav
3	186	2	2	1	C	1	1	878	1	Ⴁ	cut_u_stereo_44KHz.wav
3	187	1	1	1	C	1	1	718	1	Ⴃ	cut_o_stereo_44KHz.wav
3	188	4	4	2	I	2	0	802	0	Ⴂ	cut_a_stereo_44KHz.wav
3	189	2	1	0	C	2	1	733	1	Ⴁ	cut_o_stereo_44KHz.wav
3	190	4	3	2	I	2	0	1082	0	Ⴂ	cut_k_stereo_44KHz.wav
3	191	1	2	0	C	2	1	845	1	Ⴃ	cut_u_stereo_44KHz.wav
3	192	3	4	2	I	2	0	792	1	Ⴡ	cut_a_stereo_44KHz.wav
3	193	4	3	2	I	1	0	865	1	Ⴂ	cut_k_stereo_44KHz.wav
3	194	1	2	0	C	2	1	1056	1	Ⴃ	cut_u_stereo_44KHz.wav
3	195	2	1	0	C	2	1	1514	1	Ⴁ	cut_o_stereo_44KHz.wav
3	196	3	4	2	I	2	0	1042	0	Ⴡ	cut_a_stereo_44KHz.wav
3	197	4	4	2	I	1	0	596	1	Ⴂ	cut_a_stereo_44KHz.wav
3	198	1	1	1	C	2	0	848	0	Ⴃ	cut_o_stereo_44KHz.wav
3	199	2	2	1	C	1	1	1065	1	Ⴁ	cut_u_stereo_44KHz.wav
3	200	3	3	2	I	2	0	1038	1	Ⴡ	cut_k_stereo_44KHz.wav
4	1	4	3	2	I	2	0	734	0	Ⴏ	cut_ei_stereo_44KHz.wav
4	2	3	4	2	I	2	0	763	1	Ⴕ	cut_r_stereo_44KHz.wav
4	3	1	2	0	C	2	1	1048	1	Ⴉ	cut_j_stereo_44KHz.wav
4	4	2	2	1	C	1	1	738	1	Ⴒ	cut_j_stereo_44KHz.wav
4	5	1	1	1	C	1	1	874	1	Ⴉ	cut_n_stereo_44KHz.wav
4	6	2	1	0	C	1	0	1594	0	Ⴒ	cut_n_stereo_44KHz.wav
4	7	4	4	2	I	1	0	947	0	Ⴏ	cut_r_stereo_44KHz.wav
4	8	3	3	2	I	1	0	1153	0	Ⴕ	cut_ei_stereo_44KHz.wav
4	9	2	1	0	C	2	1	820	1	Ⴒ	cut_n_stereo_44KHz.wav
4	10	1	1	1	C	1	1	820	1	Ⴉ	cut_n_stereo_44KHz.wav
4	11	3	3	2	I	2	0	1016	0	Ⴕ	cut_ei_stereo_44KHz.wav
4	12	4	4	2	I	1	0	1285	0	Ⴏ	cut_r_stereo_44KHz.wav
4	13	2	2	1	C	1	1	1223	1	Ⴒ	cut_j_stereo_44KHz.wav
4	14	1	2	0	C	1	0	1722	0	Ⴉ	cut_j_stereo_44KHz.wav
4	15	4	3	2	I	2	0	843	0	Ⴏ	cut_ei_stereo_44KHz.wav
4	16	3	4	2	I	2	0	978	0	Ⴕ	cut_r_stereo_44KHz.wav
4	17	2	1	0	C	2	1	1065	1	Ⴒ	cut_n_stereo_44KHz.wav
4	18	1	2	0	C	2	1	967	1	Ⴉ	cut_j_stereo_44KHz.wav
4	19	3	3	2	I	1	0	1333	0	Ⴕ	cut_ei_stereo_44KHz.wav
4	20	4	4	2	I	1	0	1280	0	Ⴏ	cut_r_stereo_44KHz.wav
4	21	2	2	1	C	1	1	1286	1	Ⴒ	cut_j_stereo_44KHz.wav
4	22	1	1	1	C	2	0	819	0	Ⴉ	cut_n_stereo_44KHz.wav
4	23	4	3	2	I	2	0	821	0	Ⴏ	cut_ei_stereo_44KHz.wav
4	24	3	4	2	I	2	0	816	0	Ⴕ	cut_r_stereo_44KHz.wav
4	25	2	1	0	C	2	1	1166	1	Ⴒ	cut_n_stereo_44KHz.wav
4	26	1	1	1	C	2	0	1274	0	Ⴉ	cut_n_stereo_44KHz.wav
4	27	4	3	2	I	2	0	825	1	Ⴏ	cut_ei_stereo_44KHz.wav
4	28	3	4	2	I	1	0	1780	0	Ⴕ	cut_r_stereo_44KHz.wav
4	29	1	2	0	C	2	1	714	1	Ⴉ	cut_j_stereo_44KHz.wav
4	30	4	4	2	I	2	0	816	1	Ⴏ	cut_r_stereo_44KHz.wav
4	31	2	2	1	C	1	1	1175	1	Ⴒ	cut_j_stereo_44KHz.wav
4	32	3	3	2	I	2	0	831	1	Ⴕ	cut_ei_stereo_44KHz.wav
4	33	4	3	2	I	1	0	542	1	Ⴏ	cut_ei_stereo_44KHz.wav
4	34	3	4	2	I	2	0	582	1	Ⴕ	cut_r_stereo_44KHz.wav
4	35	2	1	0	C	2	1	1025	1	Ⴒ	cut_n_stereo_44KHz.wav
4	36	1	1	1	C	1	1	848	1	Ⴉ	cut_n_stereo_44KHz.wav
4	37	3	3	2	I	1	0	1105	0	Ⴕ	cut_ei_stereo_44KHz.wav
4	38	1	2	0	C	2	1	823	1	Ⴉ	cut_j_stereo_44KHz.wav
4	39	2	2	1	C	1	1	797	1	Ⴒ	cut_j_stereo_44KHz.wav
4	40	4	4	2	I	2	0	825	0	Ⴏ	cut_r_stereo_44KHz.wav
4	41	2	1	0	C	2	1	1532	1	Ⴒ	cut_n_stereo_44KHz.wav
4	42	4	3	2	I	2	0	1021	0	Ⴏ	cut_ei_stereo_44KHz.wav
4	43	1	2	0	C	2	1	1110	1	Ⴉ	cut_j_stereo_44KHz.wav
4	44	3	4	2	I	1	0	1235	1	Ⴕ	cut_r_stereo_44KHz.wav
4	45	2	2	1	C	1	1	1012	1	Ⴒ	cut_j_stereo_44KHz.wav
4	46	1	1	1	C	1	1	1061	1	Ⴉ	cut_n_stereo_44KHz.wav
4	47	4	4	2	I	2	0	919	0	Ⴏ	cut_r_stereo_44KHz.wav
4	48	3	3	2	I	1	0	759	0	Ⴕ	cut_ei_stereo_44KHz.wav
4	49	4	3	2	I	2	0	962	1	Ⴏ	cut_ei_stereo_44KHz.wav
4	50	2	2	1	C	1	1	1092	1	Ⴒ	cut_j_stereo_44KHz.wav
4	51	3	4	2	I	2	0	745	1	Ⴕ	cut_r_stereo_44KHz.wav
4	52	1	1	1	C	1	1	843	1	Ⴉ	cut_n_stereo_44KHz.wav
4	53	4	4	2	I	2	0	1185	0	Ⴏ	cut_r_stereo_44KHz.wav
4	54	2	1	0	C	1	0	836	0	Ⴒ	cut_n_stereo_44KHz.wav
4	55	3	3	2	I	2	0	748	0	Ⴕ	cut_ei_stereo_44KHz.wav
4	56	1	2	0	C	2	1	679	1	Ⴉ	cut_j_stereo_44KHz.wav
4	57	4	4	2	I	1	0	817	1	Ⴏ	cut_r_stereo_44KHz.wav
4	58	3	4	2	I	1	0	1319	1	Ⴕ	cut_r_stereo_44KHz.wav
4	59	1	1	1	C	1	1	1642	1	Ⴉ	cut_n_stereo_44KHz.wav
4	60	2	2	1	C	1	1	1158	1	Ⴒ	cut_j_stereo_44KHz.wav
4	61	4	3	2	I	2	0	985	0	Ⴏ	cut_ei_stereo_44KHz.wav
4	62	2	1	0	C	2	1	1512	1	Ⴒ	cut_n_stereo_44KHz.wav
4	63	3	3	2	I	2	0	938	1	Ⴕ	cut_ei_stereo_44KHz.wav
4	64	1	2	0	C	2	1	794	1	Ⴉ	cut_j_stereo_44KHz.wav
4	65	3	3	2	I	1	0	907	1	Ⴕ	cut_ei_stereo_44KHz.wav
4	66	1	1	1	C	1	1	1031	1	Ⴉ	cut_n_stereo_44KHz.wav
4	67	4	4	2	I	2	0	945	1	Ⴏ	cut_r_stereo_44KHz.wav
4	68	2	2	1	C	1	1	1537	1	Ⴒ	cut_j_stereo_44KHz.wav
4	69	3	4	2	I	2	0	945	0	Ⴕ	cut_r_stereo_44KHz.wav
4	70	4	3	2	I	2	0	895	0	Ⴏ	cut_ei_stereo_44KHz.wav
4	71	1	2	0	C	2	1	704	1	Ⴉ	cut_j_stereo_44KHz.wav
4	72	2	1	0	C	2	1	1158	1	Ⴒ	cut_n_stereo_44KHz.wav
4	73	3	4	2	I	2	0	1427	1	Ⴕ	cut_r_stereo_44KHz.wav
4	74	2	1	0	C	2	1	819	1	Ⴒ	cut_n_stereo_44KHz.wav
4	75	4	4	2	I	1	0	1078	1	Ⴏ	cut_r_stereo_44KHz.wav
4	76	1	1	1	C	2	0	593	0	Ⴉ	cut_n_stereo_44KHz.wav
4	77	3	3	2	I	1	0	1362	0	Ⴕ	cut_ei_stereo_44KHz.wav
4	78	1	2	0	C	2	1	642	1	Ⴉ	cut_j_stereo_44KHz.wav
4	79	2	2	1	C	1	1	1093	1	Ⴒ	cut_j_stereo_44KHz.wav
4	80	4	3	2	I	2	0	939	1	Ⴏ	cut_ei_stereo_44KHz.wav
4	81	2	1	0	C	2	1	1309	1	Ⴒ	cut_n_stereo_44KHz.wav
4	82	1	1	1	C	1	1	787	1	Ⴉ	cut_n_stereo_44KHz.wav
4	83	4	4	2	I	2	0	1037	1	Ⴏ	cut_r_stereo_44KHz.wav
4	84	3	3	2	I	1	0	1746	0	Ⴕ	cut_ei_stereo_44KHz.wav
4	85	4	3	2	I	1	0	888	1	Ⴏ	cut_ei_stereo_44KHz.wav
4	86	2	2	1	C	1	1	1167	1	Ⴒ	cut_j_stereo_44KHz.wav
4	87	3	4	2	I	2	0	600	0	Ⴕ	cut_r_stereo_44KHz.wav
4	88	1	2	0	C	2	1	741	1	Ⴉ	cut_j_stereo_44KHz.wav
4	89	2	1	0	C	2	1	1552	1	Ⴒ	cut_n_stereo_44KHz.wav
4	90	1	2	0	C	2	1	745	1	Ⴉ	cut_j_stereo_44KHz.wav
4	91	3	3	2	I	1	0	726	0	Ⴕ	cut_ei_stereo_44KHz.wav
4	92	4	4	2	I	1	0	469	1	Ⴏ	cut_r_stereo_44KHz.wav
4	93	1	1	1	C	1	1	1946	1	Ⴉ	cut_n_stereo_44KHz.wav
4	94	4	3	2	I	2	0	1043	1	Ⴏ	cut_ei_stereo_44KHz.wav
4	95	2	2	1	C	1	1	1521	1	Ⴒ	cut_j_stereo_44KHz.wav
4	96	3	4	2	I	2	0	690	1	Ⴕ	cut_r_stereo_44KHz.wav
4	97	4	3	2	I	1	0	1192	1	Ⴏ	cut_ei_stereo_44KHz.wav
4	98	1	1	1	C	0	0	0	0	Ⴉ	cut_n_stereo_44KHz.wav
4	99	2	2	1	C	1	1	1856	1	Ⴒ	cut_j_stereo_44KHz.wav
4	100	3	3	2	I	2	0	874	1	Ⴕ	cut_ei_stereo_44KHz.wav
4	101	2	1	0	C	2	1	1329	1	Ⴒ	cut_n_stereo_44KHz.wav
4	102	4	4	2	I	2	0	621	1	Ⴏ	cut_r_stereo_44KHz.wav
4	103	3	4	2	I	1	0	797	1	Ⴕ	cut_r_stereo_44KHz.wav
4	104	1	2	0	C	2	1	717	1	Ⴉ	cut_j_stereo_44KHz.wav
4	105	3	4	2	I	2	0	1256	0	Ⴕ	cut_r_stereo_44KHz.wav
4	106	4	4	2	I	2	0	883	1	Ⴏ	cut_r_stereo_44KHz.wav
4	107	2	2	1	C	1	1	1026	1	Ⴒ	cut_j_stereo_44KHz.wav
4	108	1	1	1	C	1	1	847	1	Ⴉ	cut_n_stereo_44KHz.wav
4	109	3	3	2	I	2	0	802	0	Ⴕ	cut_ei_stereo_44KHz.wav
4	110	4	3	2	I	2	0	486	0	Ⴏ	cut_ei_stereo_44KHz.wav
4	111	2	1	0	C	2	1	768	1	Ⴒ	cut_n_stereo_44KHz.wav
4	112	1	2	0	C	2	1	747	1	Ⴉ	cut_j_stereo_44KHz.wav
4	113	3	4	2	I	2	0	612	0	Ⴕ	cut_r_stereo_44KHz.wav
4	114	4	4	2	I	2	0	260	1	Ⴏ	cut_r_stereo_44KHz.wav
4	115	1	2	0	C	2	1	703	1	Ⴉ	cut_j_stereo_44KHz.wav
4	116	2	1	0	C	2	1	634	1	Ⴒ	cut_n_stereo_44KHz.wav
4	117	1	1	1	C	2	0	592	0	Ⴉ	cut_n_stereo_44KHz.wav
4	118	3	3	2	I	1	0	848	1	Ⴕ	cut_ei_stereo_44KHz.wav
4	119	4	3	2	I	1	0	845	0	Ⴏ	cut_ei_stereo_44KHz.wav
4	120	2	2	1	C	1	1	1237	1	Ⴒ	cut_j_stereo_44KHz.wav
4	121	3	3	2	I	2	0	497	1	Ⴕ	cut_ei_stereo_44KHz.wav
4	122	1	2	0	C	2	1	791	1	Ⴉ	cut_j_stereo_44KHz.wav
4	123	4	3	2	I	1	0	810	1	Ⴏ	cut_ei_stereo_44KHz.wav
4	124	2	1	0	C	2	1	696	1	Ⴒ	cut_n_stereo_44KHz.wav
4	125	4	4	2	I	1	0	1600	1	Ⴏ	cut_r_stereo_44KHz.wav
4	126	1	1	1	C	2	0	915	0	Ⴉ	cut_n_stereo_44KHz.wav
4	127	2	2	1	C	1	1	911	1	Ⴒ	cut_j_stereo_44KHz.wav
4	128	3	4	2	I	2	0	1756	1	Ⴕ	cut_r_stereo_44KHz.wav
4	129	2	1	0	C	2	1	1523	1	Ⴒ	cut_n_stereo_44KHz.wav
4	130	1	1	1	C	1	1	1001	1	Ⴉ	cut_n_stereo_44KHz.wav
4	131	4	3	2	I	2	0	1982	0	Ⴏ	cut_ei_stereo_44KHz.wav
4	132	3	4	2	I	1	0	1114	1	Ⴕ	cut_r_stereo_44KHz.wav
4	133	4	4	2	I	1	0	1026	1	Ⴏ	cut_r_stereo_44KHz.wav
4	134	1	2	0	C	2	1	566	1	Ⴉ	cut_j_stereo_44KHz.wav
4	135	3	3	2	I	2	0	1031	1	Ⴕ	cut_ei_stereo_44KHz.wav
4	136	2	2	1	C	0	0	0	0	Ⴒ	cut_j_stereo_44KHz.wav
4	137	3	3	2	I	2	0	1042	1	Ⴕ	cut_ei_stereo_44KHz.wav
4	138	2	2	1	C	1	1	1630	1	Ⴒ	cut_j_stereo_44KHz.wav
4	139	4	4	2	I	1	0	1350	0	Ⴏ	cut_r_stereo_44KHz.wav
4	140	1	1	1	C	1	1	983	1	Ⴉ	cut_n_stereo_44KHz.wav
4	141	3	4	2	I	2	0	993	0	Ⴕ	cut_r_stereo_44KHz.wav
4	142	4	3	2	I	1	0	1095	1	Ⴏ	cut_ei_stereo_44KHz.wav
4	143	2	1	0	C	2	1	1059	1	Ⴒ	cut_n_stereo_44KHz.wav
4	144	1	2	0	C	2	1	768	1	Ⴉ	cut_j_stereo_44KHz.wav
4	145	2	2	1	C	1	1	784	1	Ⴒ	cut_j_stereo_44KHz.wav
4	146	3	4	2	I	1	0	1194	1	Ⴕ	cut_r_stereo_44KHz.wav
4	147	4	3	2	I	2	0	1425	0	Ⴏ	cut_ei_stereo_44KHz.wav
4	148	1	1	1	C	2	0	1280	0	Ⴉ	cut_n_stereo_44KHz.wav
4	149	3	3	2	I	2	0	814	1	Ⴕ	cut_ei_stereo_44KHz.wav
4	150	1	2	0	C	0	0	0	0	Ⴉ	cut_j_stereo_44KHz.wav
4	151	4	4	2	I	1	0	805	0	Ⴏ	cut_r_stereo_44KHz.wav
4	152	2	1	0	C	2	1	894	1	Ⴒ	cut_n_stereo_44KHz.wav
4	153	1	1	1	C	1	1	704	1	Ⴉ	cut_n_stereo_44KHz.wav
4	154	4	3	2	I	1	0	899	0	Ⴏ	cut_ei_stereo_44KHz.wav
4	155	3	4	2	I	2	0	906	0	Ⴕ	cut_r_stereo_44KHz.wav
4	156	2	1	0	C	2	1	1099	1	Ⴒ	cut_n_stereo_44KHz.wav
4	157	3	3	2	I	1	0	764	0	Ⴕ	cut_ei_stereo_44KHz.wav
4	158	1	2	0	C	2	1	730	1	Ⴉ	cut_j_stereo_44KHz.wav
4	159	4	4	2	I	2	0	1009	0	Ⴏ	cut_r_stereo_44KHz.wav
4	160	2	2	1	C	1	1	1251	1	Ⴒ	cut_j_stereo_44KHz.wav
4	161	4	4	2	I	2	0	948	0	Ⴏ	cut_r_stereo_44KHz.wav
4	162	2	2	1	C	1	1	1039	1	Ⴒ	cut_j_stereo_44KHz.wav
4	163	1	2	0	C	2	1	756	1	Ⴉ	cut_j_stereo_44KHz.wav
4	164	3	4	2	I	1	0	925	1	Ⴕ	cut_r_stereo_44KHz.wav
4	165	1	1	1	C	0	0	0	0	Ⴉ	cut_n_stereo_44KHz.wav
4	166	4	3	2	I	2	0	1146	0	Ⴏ	cut_ei_stereo_44KHz.wav
4	167	2	1	0	C	2	1	1113	1	Ⴒ	cut_n_stereo_44KHz.wav
4	168	3	3	2	I	1	0	1052	1	Ⴕ	cut_ei_stereo_44KHz.wav
4	169	1	1	1	C	2	0	1061	0	Ⴉ	cut_n_stereo_44KHz.wav
4	170	3	4	2	I	1	0	951	0	Ⴕ	cut_r_stereo_44KHz.wav
4	171	2	1	0	C	2	1	736	1	Ⴒ	cut_n_stereo_44KHz.wav
4	172	4	3	2	I	2	0	1289	1	Ⴏ	cut_ei_stereo_44KHz.wav
4	173	3	3	2	I	1	0	744	0	Ⴕ	cut_ei_stereo_44KHz.wav
4	174	4	4	2	I	1	0	1137	0	Ⴏ	cut_r_stereo_44KHz.wav
4	175	1	2	0	C	2	1	682	1	Ⴉ	cut_j_stereo_44KHz.wav
4	176	2	2	1	C	1	1	1106	1	Ⴒ	cut_j_stereo_44KHz.wav
4	177	3	3	2	I	2	0	1102	1	Ⴕ	cut_ei_stereo_44KHz.wav
4	178	1	1	1	C	1	1	1097	1	Ⴉ	cut_n_stereo_44KHz.wav
4	179	4	3	2	I	1	0	1065	1	Ⴏ	cut_ei_stereo_44KHz.wav
4	180	2	2	1	C	1	1	794	1	Ⴒ	cut_j_stereo_44KHz.wav
4	181	3	4	2	I	2	0	1297	1	Ⴕ	cut_r_stereo_44KHz.wav
4	182	4	4	2	I	1	0	1148	1	Ⴏ	cut_r_stereo_44KHz.wav
4	183	2	1	0	C	2	1	1230	1	Ⴒ	cut_n_stereo_44KHz.wav
4	184	1	2	0	C	2	1	713	1	Ⴉ	cut_j_stereo_44KHz.wav
4	185	2	2	1	C	1	1	676	1	Ⴒ	cut_j_stereo_44KHz.wav
4	186	1	1	1	C	1	1	1148	1	Ⴉ	cut_n_stereo_44KHz.wav
4	187	3	4	2	I	1	0	1019	0	Ⴕ	cut_r_stereo_44KHz.wav
4	188	4	4	2	I	2	0	911	0	Ⴏ	cut_r_stereo_44KHz.wav
4	189	3	3	2	I	2	0	756	1	Ⴕ	cut_ei_stereo_44KHz.wav
4	190	4	3	2	I	1	0	641	0	Ⴏ	cut_ei_stereo_44KHz.wav
4	191	2	1	0	C	2	1	1342	1	Ⴒ	cut_n_stereo_44KHz.wav
4	192	1	2	0	C	2	1	683	1	Ⴉ	cut_j_stereo_44KHz.wav
4	193	2	1	0	C	2	1	1162	1	Ⴒ	cut_n_stereo_44KHz.wav
4	194	3	4	2	I	1	0	1069	0	Ⴕ	cut_r_stereo_44KHz.wav
4	195	4	3	2	I	2	0	1195	1	Ⴏ	cut_ei_stereo_44KHz.wav
4	196	1	2	0	C	2	1	763	1	Ⴉ	cut_j_stereo_44KHz.wav
4	197	4	4	2	I	1	0	1848	1	Ⴏ	cut_r_stereo_44KHz.wav
4	198	1	1	1	C	1	1	1577	1	Ⴉ	cut_n_stereo_44KHz.wav
4	199	2	2	1	C	1	1	851	1	Ⴒ	cut_j_stereo_44KHz.wav
4	200	3	3	2	I	2	0	1124	0	Ⴕ	cut_ei_stereo_44KHz.wav
