block	trial	Vstim	Astim	match	C/I	resp	result	RT	fb	V-file	A-file
LR

0	1	1	1	1	C	0	0	0	0	Ⴢ	cut_eeuw_stereo_44KHz.wav
0	2	2	4	0	C	2	0	722	0	Ⴋ	cut_ee_stereo_44KHz.wav
0	3	1	2	0	C	1	1	874	1	Ⴢ	cut_oo_stereo_44KHz.wav
0	4	2	3	1	C	2	1	709	1	Ⴋ	cut_g_stereo_44KHz.wav
0	5	1	2	0	C	1	1	764	1	Ⴢ	cut_oo_stereo_44KHz.wav
0	6	1	1	1	C	2	1	932	1	Ⴢ	cut_eeuw_stereo_44KHz.wav
0	7	2	3	1	C	2	1	826	1	Ⴋ	cut_g_stereo_44KHz.wav
0	8	2	4	0	C	1	1	1074	1	Ⴋ	cut_ee_stereo_44KHz.wav
0	9	2	3	1	C	2	1	827	1	Ⴋ	cut_g_stereo_44KHz.wav
0	10	1	1	1	C	2	1	763	1	Ⴢ	cut_eeuw_stereo_44KHz.wav
0	11	2	4	0	C	1	1	1071	1	Ⴋ	cut_ee_stereo_44KHz.wav
0	12	1	2	0	C	2	0	706	0	Ⴢ	cut_oo_stereo_44KHz.wav
0	13	2	4	0	C	1	1	724	1	Ⴋ	cut_ee_stereo_44KHz.wav
0	14	1	2	0	C	1	1	436	1	Ⴢ	cut_oo_stereo_44KHz.wav
0	15	1	1	1	C	2	1	696	1	Ⴢ	cut_eeuw_stereo_44KHz.wav
0	16	2	3	1	C	2	1	606	1	Ⴋ	cut_g_stereo_44KHz.wav
0	17	1	2	0	C	1	1	347	1	Ⴢ	cut_oo_stereo_44KHz.wav
0	18	2	4	0	C	1	1	818	1	Ⴋ	cut_ee_stereo_44KHz.wav
0	19	1	1	1	C	2	1	690	1	Ⴢ	cut_eeuw_stereo_44KHz.wav
0	20	2	3	1	C	1	0	643	0	Ⴋ	cut_g_stereo_44KHz.wav
0	21	2	3	1	C	2	1	955	1	Ⴋ	cut_g_stereo_44KHz.wav
0	22	1	2	0	C	1	1	701	1	Ⴢ	cut_oo_stereo_44KHz.wav
0	23	2	4	0	C	1	1	729	1	Ⴋ	cut_ee_stereo_44KHz.wav
0	24	1	1	1	C	2	1	824	1	Ⴢ	cut_eeuw_stereo_44KHz.wav
0	25	2	4	0	C	1	1	747	1	Ⴋ	cut_ee_stereo_44KHz.wav
0	26	1	1	1	C	2	1	822	1	Ⴢ	cut_eeuw_stereo_44KHz.wav
0	27	1	2	0	C	1	1	657	1	Ⴢ	cut_oo_stereo_44KHz.wav
0	28	2	3	1	C	2	1	989	1	Ⴋ	cut_g_stereo_44KHz.wav
0	29	2	3	1	C	2	1	923	1	Ⴋ	cut_g_stereo_44KHz.wav
0	30	1	2	0	C	1	1	514	1	Ⴢ	cut_oo_stereo_44KHz.wav
avg_resp = 770
1	1	3	3	2	I	1	0	1175	1	Ⴒ	cut_f_stereo_44KHz.wav
1	2	2	1	0	C	1	1	1231	1	Ⴕ	cut_ei_stereo_44KHz.wav
1	3	1	2	0	C	1	1	876	1	Ⴖ	cut_n_stereo_44KHz.wav
1	4	4	4	2	I	1	0	1213	0	Ⴐ	cut_oei_stereo_44KHz.wav
1	5	1	1	1	C	2	1	964	1	Ⴖ	cut_ei_stereo_44KHz.wav
1	6	3	4	2	I	1	0	1007	0	Ⴒ	cut_oei_stereo_44KHz.wav
1	7	4	3	2	I	2	0	907	0	Ⴐ	cut_f_stereo_44KHz.wav
1	8	2	2	1	C	2	1	928	1	Ⴕ	cut_n_stereo_44KHz.wav
1	9	3	3	2	I	1	0	832	1	Ⴒ	cut_f_stereo_44KHz.wav
1	10	1	2	0	C	1	1	823	1	Ⴖ	cut_n_stereo_44KHz.wav
1	11	4	3	2	I	2	0	1104	0	Ⴐ	cut_f_stereo_44KHz.wav
1	12	2	1	0	C	1	1	832	1	Ⴕ	cut_ei_stereo_44KHz.wav
1	13	3	4	2	I	2	0	1297	0	Ⴒ	cut_oei_stereo_44KHz.wav
1	14	1	1	1	C	1	0	1175	0	Ⴖ	cut_ei_stereo_44KHz.wav
1	15	4	4	2	I	1	0	1270	1	Ⴐ	cut_oei_stereo_44KHz.wav
1	16	2	2	1	C	2	1	1274	1	Ⴕ	cut_n_stereo_44KHz.wav
1	17	3	3	2	I	1	0	864	0	Ⴒ	cut_f_stereo_44KHz.wav
1	18	1	1	1	C	2	1	1261	1	Ⴖ	cut_ei_stereo_44KHz.wav
1	19	4	3	2	I	2	0	1958	1	Ⴐ	cut_f_stereo_44KHz.wav
1	20	2	2	1	C	2	1	1101	1	Ⴕ	cut_n_stereo_44KHz.wav
1	21	4	4	2	I	1	0	1215	1	Ⴐ	cut_oei_stereo_44KHz.wav
1	22	3	4	2	I	2	0	880	1	Ⴒ	cut_oei_stereo_44KHz.wav
1	23	2	1	0	C	2	0	816	0	Ⴕ	cut_ei_stereo_44KHz.wav
1	24	1	2	0	C	1	1	807	1	Ⴖ	cut_n_stereo_44KHz.wav
1	25	2	2	1	C	2	1	1294	1	Ⴕ	cut_n_stereo_44KHz.wav
1	26	1	2	0	C	1	1	832	1	Ⴖ	cut_n_stereo_44KHz.wav
1	27	4	3	2	I	2	0	1279	1	Ⴐ	cut_f_stereo_44KHz.wav
1	28	3	3	2	I	1	0	650	1	Ⴒ	cut_f_stereo_44KHz.wav
1	29	1	1	1	C	2	1	758	1	Ⴖ	cut_ei_stereo_44KHz.wav
1	30	2	1	0	C	1	1	1280	1	Ⴕ	cut_ei_stereo_44KHz.wav
1	31	3	4	2	I	2	0	1096	1	Ⴒ	cut_oei_stereo_44KHz.wav
1	32	4	4	2	I	1	0	981	0	Ⴐ	cut_oei_stereo_44KHz.wav
1	33	3	4	2	I	2	0	939	1	Ⴒ	cut_oei_stereo_44KHz.wav
1	34	1	1	1	C	2	1	785	1	Ⴖ	cut_ei_stereo_44KHz.wav
1	35	2	2	1	C	2	1	834	1	Ⴕ	cut_n_stereo_44KHz.wav
1	36	4	3	2	I	2	0	931	1	Ⴐ	cut_f_stereo_44KHz.wav
1	37	2	1	0	C	1	1	1118	1	Ⴕ	cut_ei_stereo_44KHz.wav
1	38	3	3	2	I	1	0	1330	1	Ⴒ	cut_f_stereo_44KHz.wav
1	39	1	2	0	C	1	1	820	1	Ⴖ	cut_n_stereo_44KHz.wav
1	40	4	4	2	I	1	0	934	0	Ⴐ	cut_oei_stereo_44KHz.wav
1	41	3	3	2	I	1	0	739	0	Ⴒ	cut_f_stereo_44KHz.wav
1	42	4	4	2	I	1	0	701	0	Ⴐ	cut_oei_stereo_44KHz.wav
1	43	2	1	0	C	1	1	970	1	Ⴕ	cut_ei_stereo_44KHz.wav
1	44	1	2	0	C	1	1	665	1	Ⴖ	cut_n_stereo_44KHz.wav
1	45	4	3	2	I	1	0	878	1	Ⴐ	cut_f_stereo_44KHz.wav
1	46	3	4	2	I	1	0	1403	1	Ⴒ	cut_oei_stereo_44KHz.wav
1	47	2	2	1	C	2	1	1280	1	Ⴕ	cut_n_stereo_44KHz.wav
1	48	1	1	1	C	2	1	867	1	Ⴖ	cut_ei_stereo_44KHz.wav
1	49	4	4	2	I	1	0	1341	1	Ⴐ	cut_oei_stereo_44KHz.wav
1	50	2	1	0	C	1	1	1317	1	Ⴕ	cut_ei_stereo_44KHz.wav
1	51	3	3	2	I	1	0	728	0	Ⴒ	cut_f_stereo_44KHz.wav
1	52	1	2	0	C	1	1	618	1	Ⴖ	cut_n_stereo_44KHz.wav
1	53	3	4	2	I	2	0	1215	0	Ⴒ	cut_oei_stereo_44KHz.wav
1	54	4	3	2	I	2	0	1484	0	Ⴐ	cut_f_stereo_44KHz.wav
1	55	2	2	1	C	2	1	1105	1	Ⴕ	cut_n_stereo_44KHz.wav
1	56	1	1	1	C	2	1	1040	1	Ⴖ	cut_ei_stereo_44KHz.wav
1	57	2	1	0	C	1	1	754	1	Ⴕ	cut_ei_stereo_44KHz.wav
1	58	4	4	2	I	1	0	822	0	Ⴐ	cut_oei_stereo_44KHz.wav
1	59	1	1	1	C	2	1	834	1	Ⴖ	cut_ei_stereo_44KHz.wav
1	60	3	4	2	I	2	0	1040	0	Ⴒ	cut_oei_stereo_44KHz.wav
1	61	1	2	0	C	1	1	707	1	Ⴖ	cut_n_stereo_44KHz.wav
1	62	4	3	2	I	1	0	1026	1	Ⴐ	cut_f_stereo_44KHz.wav
1	63	3	3	2	I	1	0	830	0	Ⴒ	cut_f_stereo_44KHz.wav
1	64	2	2	1	C	2	1	1211	1	Ⴕ	cut_n_stereo_44KHz.wav
1	65	1	1	1	C	2	1	748	1	Ⴖ	cut_ei_stereo_44KHz.wav
1	66	3	4	2	I	2	0	1352	0	Ⴒ	cut_oei_stereo_44KHz.wav
1	67	4	3	2	I	1	0	1486	1	Ⴐ	cut_f_stereo_44KHz.wav
1	68	2	1	0	C	1	1	751	1	Ⴕ	cut_ei_stereo_44KHz.wav
1	69	4	4	2	I	2	0	1128	0	Ⴐ	cut_oei_stereo_44KHz.wav
1	70	3	3	2	I	1	0	983	1	Ⴒ	cut_f_stereo_44KHz.wav
1	71	1	2	0	C	1	1	428	1	Ⴖ	cut_n_stereo_44KHz.wav
1	72	2	2	1	C	2	1	894	1	Ⴕ	cut_n_stereo_44KHz.wav
1	73	4	3	2	I	2	0	771	0	Ⴐ	cut_f_stereo_44KHz.wav
1	74	3	4	2	I	2	0	1005	0	Ⴒ	cut_oei_stereo_44KHz.wav
1	75	1	2	0	C	2	0	723	0	Ⴖ	cut_n_stereo_44KHz.wav
1	76	2	1	0	C	1	1	866	1	Ⴕ	cut_ei_stereo_44KHz.wav
1	77	1	1	1	C	2	1	766	1	Ⴖ	cut_ei_stereo_44KHz.wav
1	78	2	2	1	C	2	1	824	1	Ⴕ	cut_n_stereo_44KHz.wav
1	79	3	3	2	I	1	0	1086	0	Ⴒ	cut_f_stereo_44KHz.wav
1	80	4	4	2	I	1	0	884	0	Ⴐ	cut_oei_stereo_44KHz.wav
1	81	1	1	1	C	2	1	912	1	Ⴖ	cut_ei_stereo_44KHz.wav
1	82	4	3	2	I	1	0	777	0	Ⴐ	cut_f_stereo_44KHz.wav
1	83	3	4	2	I	2	0	1275	0	Ⴒ	cut_oei_stereo_44KHz.wav
1	84	2	1	0	C	1	1	681	1	Ⴕ	cut_ei_stereo_44KHz.wav
1	85	1	2	0	C	1	1	814	1	Ⴖ	cut_n_stereo_44KHz.wav
1	86	2	2	1	C	2	1	670	1	Ⴕ	cut_n_stereo_44KHz.wav
1	87	4	4	2	I	1	0	695	1	Ⴐ	cut_oei_stereo_44KHz.wav
1	88	3	3	2	I	1	0	760	0	Ⴒ	cut_f_stereo_44KHz.wav
1	89	1	2	0	C	1	1	790	1	Ⴖ	cut_n_stereo_44KHz.wav
1	90	3	4	2	I	2	0	1351	1	Ⴒ	cut_oei_stereo_44KHz.wav
1	91	2	2	1	C	2	1	1033	1	Ⴕ	cut_n_stereo_44KHz.wav
1	92	4	3	2	I	2	0	1107	1	Ⴐ	cut_f_stereo_44KHz.wav
1	93	2	1	0	C	2	0	1698	0	Ⴕ	cut_ei_stereo_44KHz.wav
1	94	4	4	2	I	2	0	1339	1	Ⴐ	cut_oei_stereo_44KHz.wav
1	95	1	1	1	C	2	1	715	1	Ⴖ	cut_ei_stereo_44KHz.wav
1	96	3	3	2	I	1	0	1197	0	Ⴒ	cut_f_stereo_44KHz.wav
1	97	2	1	0	C	1	1	779	1	Ⴕ	cut_ei_stereo_44KHz.wav
1	98	4	3	2	I	2	0	1201	0	Ⴐ	cut_f_stereo_44KHz.wav
1	99	3	3	2	I	2	0	1249	0	Ⴒ	cut_f_stereo_44KHz.wav
1	100	1	1	1	C	2	1	845	1	Ⴖ	cut_ei_stereo_44KHz.wav
1	101	2	2	1	C	2	1	908	1	Ⴕ	cut_n_stereo_44KHz.wav
1	102	1	2	0	C	1	1	1558	1	Ⴖ	cut_n_stereo_44KHz.wav
1	103	3	4	2	I	1	0	1517	0	Ⴒ	cut_oei_stereo_44KHz.wav
1	104	4	4	2	I	1	0	774	1	Ⴐ	cut_oei_stereo_44KHz.wav
1	105	2	1	0	C	1	1	795	1	Ⴕ	cut_ei_stereo_44KHz.wav
1	106	4	3	2	I	1	0	1050	0	Ⴐ	cut_f_stereo_44KHz.wav
1	107	1	2	0	C	1	1	746	1	Ⴖ	cut_n_stereo_44KHz.wav
1	108	3	4	2	I	2	0	791	0	Ⴒ	cut_oei_stereo_44KHz.wav
1	109	1	1	1	C	2	1	1195	1	Ⴖ	cut_ei_stereo_44KHz.wav
1	110	3	3	2	I	1	0	1137	1	Ⴒ	cut_f_stereo_44KHz.wav
1	111	4	4	2	I	1	0	829	1	Ⴐ	cut_oei_stereo_44KHz.wav
1	112	2	2	1	C	2	1	915	1	Ⴕ	cut_n_stereo_44KHz.wav
1	113	1	2	0	C	1	1	745	1	Ⴖ	cut_n_stereo_44KHz.wav
1	114	3	3	2	I	1	0	874	0	Ⴒ	cut_f_stereo_44KHz.wav
1	115	2	2	1	C	2	1	831	1	Ⴕ	cut_n_stereo_44KHz.wav
1	116	4	4	2	I	1	0	645	1	Ⴐ	cut_oei_stereo_44KHz.wav
1	117	1	1	1	C	2	1	805	1	Ⴖ	cut_ei_stereo_44KHz.wav
1	118	3	4	2	I	1	0	1104	1	Ⴒ	cut_oei_stereo_44KHz.wav
1	119	2	1	0	C	1	1	743	1	Ⴕ	cut_ei_stereo_44KHz.wav
1	120	4	3	2	I	2	0	949	1	Ⴐ	cut_f_stereo_44KHz.wav
1	121	3	4	2	I	2	0	922	0	Ⴒ	cut_oei_stereo_44KHz.wav
1	122	2	2	1	C	2	1	763	1	Ⴕ	cut_n_stereo_44KHz.wav
1	123	1	2	0	C	1	1	564	1	Ⴖ	cut_n_stereo_44KHz.wav
1	124	4	3	2	I	2	0	996	1	Ⴐ	cut_f_stereo_44KHz.wav
1	125	2	1	0	C	1	1	1033	1	Ⴕ	cut_ei_stereo_44KHz.wav
1	126	1	1	1	C	2	1	624	1	Ⴖ	cut_ei_stereo_44KHz.wav
1	127	4	4	2	I	2	0	823	1	Ⴐ	cut_oei_stereo_44KHz.wav
1	128	3	3	2	I	1	0	1641	1	Ⴒ	cut_f_stereo_44KHz.wav
1	129	2	1	0	C	1	1	1118	1	Ⴕ	cut_ei_stereo_44KHz.wav
1	130	3	3	2	I	1	0	1245	0	Ⴒ	cut_f_stereo_44KHz.wav
1	131	1	2	0	C	1	1	972	1	Ⴖ	cut_n_stereo_44KHz.wav
1	132	4	4	2	I	1	0	1218	0	Ⴐ	cut_oei_stereo_44KHz.wav
1	133	2	2	1	C	1	0	1178	0	Ⴕ	cut_n_stereo_44KHz.wav
1	134	3	4	2	I	2	0	1177	1	Ⴒ	cut_oei_stereo_44KHz.wav
1	135	1	1	1	C	2	1	766	1	Ⴖ	cut_ei_stereo_44KHz.wav
1	136	4	3	2	I	2	0	1785	1	Ⴐ	cut_f_stereo_44KHz.wav
1	137	2	1	0	C	1	1	902	1	Ⴕ	cut_ei_stereo_44KHz.wav
1	138	1	2	0	C	1	1	681	1	Ⴖ	cut_n_stereo_44KHz.wav
1	139	4	4	2	I	1	0	899	0	Ⴐ	cut_oei_stereo_44KHz.wav
1	140	3	4	2	I	2	0	855	1	Ⴒ	cut_oei_stereo_44KHz.wav
1	141	1	1	1	C	2	1	924	1	Ⴖ	cut_ei_stereo_44KHz.wav
1	142	4	3	2	I	2	0	980	0	Ⴐ	cut_f_stereo_44KHz.wav
1	143	3	3	2	I	1	0	890	1	Ⴒ	cut_f_stereo_44KHz.wav
1	144	2	2	1	C	2	1	1280	1	Ⴕ	cut_n_stereo_44KHz.wav
1	145	3	4	2	I	2	0	1061	1	Ⴒ	cut_oei_stereo_44KHz.wav
1	146	1	1	1	C	2	1	988	1	Ⴖ	cut_ei_stereo_44KHz.wav
1	147	4	3	2	I	2	0	723	0	Ⴐ	cut_f_stereo_44KHz.wav
1	148	2	2	1	C	2	1	855	1	Ⴕ	cut_n_stereo_44KHz.wav
1	149	4	4	2	I	1	0	1419	0	Ⴐ	cut_oei_stereo_44KHz.wav
1	150	2	1	0	C	1	1	805	1	Ⴕ	cut_ei_stereo_44KHz.wav
1	151	1	2	0	C	1	1	729	1	Ⴖ	cut_n_stereo_44KHz.wav
1	152	3	3	2	I	1	0	1036	0	Ⴒ	cut_f_stereo_44KHz.wav
1	153	2	1	0	C	1	1	897	1	Ⴕ	cut_ei_stereo_44KHz.wav
1	154	1	1	1	C	2	1	779	1	Ⴖ	cut_ei_stereo_44KHz.wav
1	155	3	3	2	I	1	0	824	1	Ⴒ	cut_f_stereo_44KHz.wav
1	156	4	4	2	I	1	0	1025	1	Ⴐ	cut_oei_stereo_44KHz.wav
1	157	3	4	2	I	2	0	1136	1	Ⴒ	cut_oei_stereo_44KHz.wav
1	158	4	3	2	I	2	0	773	1	Ⴐ	cut_f_stereo_44KHz.wav
1	159	2	2	1	C	2	1	797	1	Ⴕ	cut_n_stereo_44KHz.wav
1	160	1	2	0	C	1	1	893	1	Ⴖ	cut_n_stereo_44KHz.wav
1	161	4	4	2	I	1	0	1647	1	Ⴐ	cut_oei_stereo_44KHz.wav
1	162	1	2	0	C	1	1	1230	1	Ⴖ	cut_n_stereo_44KHz.wav
1	163	3	3	2	I	1	0	861	1	Ⴒ	cut_f_stereo_44KHz.wav
1	164	2	2	1	C	2	1	776	1	Ⴕ	cut_n_stereo_44KHz.wav
1	165	1	1	1	C	2	1	779	1	Ⴖ	cut_ei_stereo_44KHz.wav
1	166	3	4	2	I	2	0	854	1	Ⴒ	cut_oei_stereo_44KHz.wav
1	167	2	1	0	C	1	1	954	1	Ⴕ	cut_ei_stereo_44KHz.wav
1	168	4	3	2	I	2	0	818	0	Ⴐ	cut_f_stereo_44KHz.wav
1	169	3	3	2	I	1	0	807	1	Ⴒ	cut_f_stereo_44KHz.wav
1	170	4	3	2	I	2	0	973	0	Ⴐ	cut_f_stereo_44KHz.wav
1	171	1	2	0	C	1	1	596	1	Ⴖ	cut_n_stereo_44KHz.wav
1	172	2	2	1	C	2	1	638	1	Ⴕ	cut_n_stereo_44KHz.wav
1	173	1	1	1	C	2	1	1250	1	Ⴖ	cut_ei_stereo_44KHz.wav
1	174	3	4	2	I	2	0	1236	1	Ⴒ	cut_oei_stereo_44KHz.wav
1	175	4	4	2	I	1	0	818	0	Ⴐ	cut_oei_stereo_44KHz.wav
1	176	2	1	0	C	1	1	1014	1	Ⴕ	cut_ei_stereo_44KHz.wav
1	177	4	3	2	I	2	0	863	0	Ⴐ	cut_f_stereo_44KHz.wav
1	178	3	4	2	I	2	0	1570	0	Ⴒ	cut_oei_stereo_44KHz.wav
1	179	1	2	0	C	1	1	722	1	Ⴖ	cut_n_stereo_44KHz.wav
1	180	2	2	1	C	2	1	811	1	Ⴕ	cut_n_stereo_44KHz.wav
1	181	1	1	1	C	2	1	929	1	Ⴖ	cut_ei_stereo_44KHz.wav
1	182	4	4	2	I	1	0	1321	1	Ⴐ	cut_oei_stereo_44KHz.wav
1	183	3	3	2	I	1	0	825	1	Ⴒ	cut_f_stereo_44KHz.wav
1	184	2	1	0	C	1	1	1047	1	Ⴕ	cut_ei_stereo_44KHz.wav
1	185	3	4	2	I	2	0	994	0	Ⴒ	cut_oei_stereo_44KHz.wav
1	186	1	1	1	C	2	1	886	1	Ⴖ	cut_ei_stereo_44KHz.wav
1	187	4	4	2	I	1	0	845	0	Ⴐ	cut_oei_stereo_44KHz.wav
1	188	2	2	1	C	2	1	847	1	Ⴕ	cut_n_stereo_44KHz.wav
1	189	4	3	2	I	2	0	1155	1	Ⴐ	cut_f_stereo_44KHz.wav
1	190	2	1	0	C	1	1	763	1	Ⴕ	cut_ei_stereo_44KHz.wav
1	191	1	2	0	C	1	1	548	1	Ⴖ	cut_n_stereo_44KHz.wav
1	192	3	3	2	I	1	0	986	0	Ⴒ	cut_f_stereo_44KHz.wav
1	193	2	2	1	C	2	1	693	1	Ⴕ	cut_n_stereo_44KHz.wav
1	194	3	4	2	I	2	0	993	0	Ⴒ	cut_oei_stereo_44KHz.wav
1	195	4	4	2	I	1	0	533	1	Ⴐ	cut_oei_stereo_44KHz.wav
1	196	1	2	0	C	1	1	555	1	Ⴖ	cut_n_stereo_44KHz.wav
1	197	3	3	2	I	1	0	796	1	Ⴒ	cut_f_stereo_44KHz.wav
1	198	1	1	1	C	2	1	586	1	Ⴖ	cut_ei_stereo_44KHz.wav
1	199	4	3	2	I	2	0	876	0	Ⴐ	cut_f_stereo_44KHz.wav
1	200	2	1	0	C	1	1	862	1	Ⴕ	cut_ei_stereo_44KHz.wav
2	1	1	1	1	C	0	0	0	0	Ⴟ	cut_g_stereo_44KHz.wav
2	2	4	4	2	I	1	0	1690	0	Ⴁ	cut_h_stereo_44KHz.wav
2	3	2	1	0	C	1	1	979	1	Ⴜ	cut_g_stereo_44KHz.wav
2	4	3	4	2	I	2	0	882	0	Ⴊ	cut_h_stereo_44KHz.wav
2	5	4	3	2	I	1	0	1265	0	Ⴁ	cut_w_stereo_44KHz.wav
2	6	3	3	2	I	1	0	723	0	Ⴊ	cut_w_stereo_44KHz.wav
2	7	1	2	0	C	1	1	874	1	Ⴟ	cut_l_stereo_44KHz.wav
2	8	2	2	1	C	2	1	736	1	Ⴜ	cut_l_stereo_44KHz.wav
2	9	3	4	2	I	1	0	789	1	Ⴊ	cut_h_stereo_44KHz.wav
2	10	2	1	0	C	2	0	1029	0	Ⴜ	cut_g_stereo_44KHz.wav
2	11	4	4	2	I	1	0	989	1	Ⴁ	cut_h_stereo_44KHz.wav
2	12	1	2	0	C	1	1	1003	1	Ⴟ	cut_l_stereo_44KHz.wav
2	13	4	3	2	I	1	0	1103	0	Ⴁ	cut_w_stereo_44KHz.wav
2	14	3	3	2	I	2	0	1040	0	Ⴊ	cut_w_stereo_44KHz.wav
2	15	1	1	1	C	2	1	955	1	Ⴟ	cut_g_stereo_44KHz.wav
2	16	2	2	1	C	2	1	1074	1	Ⴜ	cut_l_stereo_44KHz.wav
2	17	4	4	2	I	1	0	813	1	Ⴁ	cut_h_stereo_44KHz.wav
2	18	2	1	0	C	1	1	935	1	Ⴜ	cut_g_stereo_44KHz.wav
2	19	3	4	2	I	1	0	897	1	Ⴊ	cut_h_stereo_44KHz.wav
2	20	1	2	0	C	1	1	829	1	Ⴟ	cut_l_stereo_44KHz.wav
2	21	4	3	2	I	2	0	1125	1	Ⴁ	cut_w_stereo_44KHz.wav
2	22	3	3	2	I	2	0	1436	0	Ⴊ	cut_w_stereo_44KHz.wav
2	23	2	2	1	C	2	1	880	1	Ⴜ	cut_l_stereo_44KHz.wav
2	24	1	1	1	C	2	1	1010	1	Ⴟ	cut_g_stereo_44KHz.wav
2	25	2	1	0	C	2	0	771	0	Ⴜ	cut_g_stereo_44KHz.wav
2	26	3	4	2	I	1	0	811	0	Ⴊ	cut_h_stereo_44KHz.wav
2	27	4	4	2	I	1	0	992	0	Ⴁ	cut_h_stereo_44KHz.wav
2	28	1	2	0	C	2	0	792	0	Ⴟ	cut_l_stereo_44KHz.wav
2	29	2	2	1	C	2	1	949	1	Ⴜ	cut_l_stereo_44KHz.wav
2	30	4	3	2	I	2	0	905	0	Ⴁ	cut_w_stereo_44KHz.wav
2	31	1	1	1	C	2	1	677	1	Ⴟ	cut_g_stereo_44KHz.wav
2	32	3	3	2	I	2	0	785	1	Ⴊ	cut_w_stereo_44KHz.wav
2	33	1	2	0	C	1	1	1375	1	Ⴟ	cut_l_stereo_44KHz.wav
2	34	3	3	2	I	1	0	1525	1	Ⴊ	cut_w_stereo_44KHz.wav
2	35	4	4	2	I	1	0	901	0	Ⴁ	cut_h_stereo_44KHz.wav
2	36	2	1	0	C	1	1	971	1	Ⴜ	cut_g_stereo_44KHz.wav
2	37	1	1	1	C	2	1	941	1	Ⴟ	cut_g_stereo_44KHz.wav
2	38	4	3	2	I	2	0	706	0	Ⴁ	cut_w_stereo_44KHz.wav
2	39	2	2	1	C	2	1	726	1	Ⴜ	cut_l_stereo_44KHz.wav
2	40	3	4	2	I	2	0	962	0	Ⴊ	cut_h_stereo_44KHz.wav
2	41	1	2	0	C	1	1	908	1	Ⴟ	cut_l_stereo_44KHz.wav
2	42	2	1	0	C	1	1	1127	1	Ⴜ	cut_g_stereo_44KHz.wav
2	43	3	3	2	I	1	0	1184	0	Ⴊ	cut_w_stereo_44KHz.wav
2	44	4	4	2	I	1	0	813	1	Ⴁ	cut_h_stereo_44KHz.wav
2	45	2	2	1	C	2	1	1518	1	Ⴜ	cut_l_stereo_44KHz.wav
2	46	3	4	2	I	1	0	1517	0	Ⴊ	cut_h_stereo_44KHz.wav
2	47	4	3	2	I	1	0	1081	1	Ⴁ	cut_w_stereo_44KHz.wav
2	48	1	1	1	C	2	1	1036	1	Ⴟ	cut_g_stereo_44KHz.wav
2	49	4	4	2	I	1	0	886	1	Ⴁ	cut_h_stereo_44KHz.wav
2	50	3	3	2	I	2	0	1382	0	Ⴊ	cut_w_stereo_44KHz.wav
2	51	1	2	0	C	1	1	682	1	Ⴟ	cut_l_stereo_44KHz.wav
2	52	2	2	1	C	2	1	850	1	Ⴜ	cut_l_stereo_44KHz.wav
2	53	3	4	2	I	1	0	958	1	Ⴊ	cut_h_stereo_44KHz.wav
2	54	2	1	0	C	2	0	892	0	Ⴜ	cut_g_stereo_44KHz.wav
2	55	1	1	1	C	2	1	778	1	Ⴟ	cut_g_stereo_44KHz.wav
2	56	4	3	2	I	2	0	861	0	Ⴁ	cut_w_stereo_44KHz.wav
2	57	3	3	2	I	2	0	1015	0	Ⴊ	cut_w_stereo_44KHz.wav
2	58	1	1	1	C	2	1	1044	1	Ⴟ	cut_g_stereo_44KHz.wav
2	59	4	3	2	I	1	0	1034	0	Ⴁ	cut_w_stereo_44KHz.wav
2	60	2	2	1	C	2	1	780	1	Ⴜ	cut_l_stereo_44KHz.wav
2	61	3	4	2	I	1	0	653	1	Ⴊ	cut_h_stereo_44KHz.wav
2	62	2	1	0	C	1	1	902	1	Ⴜ	cut_g_stereo_44KHz.wav
2	63	1	2	0	C	1	1	789	1	Ⴟ	cut_l_stereo_44KHz.wav
2	64	4	4	2	I	1	0	1250	1	Ⴁ	cut_h_stereo_44KHz.wav
2	65	2	1	0	C	1	1	1042	1	Ⴜ	cut_g_stereo_44KHz.wav
2	66	3	3	2	I	1	0	1261	0	Ⴊ	cut_w_stereo_44KHz.wav
2	67	4	3	2	I	1	0	891	1	Ⴁ	cut_w_stereo_44KHz.wav
2	68	1	1	1	C	2	1	856	1	Ⴟ	cut_g_stereo_44KHz.wav
2	69	3	4	2	I	1	0	923	1	Ⴊ	cut_h_stereo_44KHz.wav
2	70	4	4	2	I	2	0	809	0	Ⴁ	cut_h_stereo_44KHz.wav
2	71	1	2	0	C	1	1	693	1	Ⴟ	cut_l_stereo_44KHz.wav
2	72	2	2	1	C	2	1	906	1	Ⴜ	cut_l_stereo_44KHz.wav
2	73	1	2	0	C	1	1	608	1	Ⴟ	cut_l_stereo_44KHz.wav
2	74	2	2	1	C	2	1	741	1	Ⴜ	cut_l_stereo_44KHz.wav
2	75	4	3	2	I	1	0	1075	0	Ⴁ	cut_w_stereo_44KHz.wav
2	76	3	4	2	I	1	0	655	1	Ⴊ	cut_h_stereo_44KHz.wav
2	77	1	1	1	C	2	1	1585	1	Ⴟ	cut_g_stereo_44KHz.wav
2	78	4	4	2	I	1	0	772	1	Ⴁ	cut_h_stereo_44KHz.wav
2	79	3	3	2	I	2	0	892	1	Ⴊ	cut_w_stereo_44KHz.wav
2	80	2	1	0	C	2	0	1354	0	Ⴜ	cut_g_stereo_44KHz.wav
2	81	1	2	0	C	1	1	884	1	Ⴟ	cut_l_stereo_44KHz.wav
2	82	4	3	2	I	1	0	838	0	Ⴁ	cut_w_stereo_44KHz.wav
2	83	3	4	2	I	1	0	531	1	Ⴊ	cut_h_stereo_44KHz.wav
2	84	2	1	0	C	1	1	782	1	Ⴜ	cut_g_stereo_44KHz.wav
2	85	1	1	1	C	2	1	676	1	Ⴟ	cut_g_stereo_44KHz.wav
2	86	3	3	2	I	2	0	886	1	Ⴊ	cut_w_stereo_44KHz.wav
2	87	2	2	1	C	2	1	782	1	Ⴜ	cut_l_stereo_44KHz.wav
2	88	4	4	2	I	1	0	896	0	Ⴁ	cut_h_stereo_44KHz.wav
2	89	2	1	0	C	2	0	959	0	Ⴜ	cut_g_stereo_44KHz.wav
2	90	1	2	0	C	1	1	734	1	Ⴟ	cut_l_stereo_44KHz.wav
2	91	3	3	2	I	2	0	895	0	Ⴊ	cut_w_stereo_44KHz.wav
2	92	4	3	2	I	1	0	778	0	Ⴁ	cut_w_stereo_44KHz.wav
2	93	3	4	2	I	1	0	543	0	Ⴊ	cut_h_stereo_44KHz.wav
2	94	2	2	1	C	2	1	633	1	Ⴜ	cut_l_stereo_44KHz.wav
2	95	4	4	2	I	1	0	702	0	Ⴁ	cut_h_stereo_44KHz.wav
2	96	1	1	1	C	2	1	223	1	Ⴟ	cut_g_stereo_44KHz.wav
2	97	3	3	2	I	1	0	183	0	Ⴊ	cut_w_stereo_44KHz.wav
2	98	1	1	1	C	2	1	210	1	Ⴟ	cut_g_stereo_44KHz.wav
2	99	2	2	1	C	2	1	778	1	Ⴜ	cut_l_stereo_44KHz.wav
2	100	4	4	2	I	1	0	630	1	Ⴁ	cut_h_stereo_44KHz.wav
2	101	3	4	2	I	2	0	620	1	Ⴊ	cut_h_stereo_44KHz.wav
2	102	1	2	0	C	1	1	612	1	Ⴟ	cut_l_stereo_44KHz.wav
2	103	4	3	2	I	2	0	697	1	Ⴁ	cut_w_stereo_44KHz.wav
2	104	2	1	0	C	2	0	549	0	Ⴜ	cut_g_stereo_44KHz.wav
2	105	1	2	0	C	1	1	860	1	Ⴟ	cut_l_stereo_44KHz.wav
2	106	4	3	2	I	2	0	702	0	Ⴁ	cut_w_stereo_44KHz.wav
2	107	3	4	2	I	1	0	627	1	Ⴊ	cut_h_stereo_44KHz.wav
2	108	2	1	0	C	2	0	630	0	Ⴜ	cut_g_stereo_44KHz.wav
2	109	1	1	1	C	2	1	714	1	Ⴟ	cut_g_stereo_44KHz.wav
2	110	3	3	2	I	2	0	1044	1	Ⴊ	cut_w_stereo_44KHz.wav
2	111	4	4	2	I	1	0	1047	0	Ⴁ	cut_h_stereo_44KHz.wav
2	112	2	2	1	C	2	1	927	1	Ⴜ	cut_l_stereo_44KHz.wav
2	113	4	4	2	I	2	0	1064	1	Ⴁ	cut_h_stereo_44KHz.wav
2	114	3	4	2	I	1	0	967	1	Ⴊ	cut_h_stereo_44KHz.wav
2	115	1	2	0	C	1	1	937	1	Ⴟ	cut_l_stereo_44KHz.wav
2	116	2	2	1	C	2	1	865	1	Ⴜ	cut_l_stereo_44KHz.wav
2	117	4	3	2	I	2	0	958	1	Ⴁ	cut_w_stereo_44KHz.wav
2	118	2	1	0	C	2	0	1026	0	Ⴜ	cut_g_stereo_44KHz.wav
2	119	3	3	2	I	2	0	897	0	Ⴊ	cut_w_stereo_44KHz.wav
2	120	1	1	1	C	2	1	871	1	Ⴟ	cut_g_stereo_44KHz.wav
2	121	4	4	2	I	1	0	1082	1	Ⴁ	cut_h_stereo_44KHz.wav
2	122	2	2	1	C	2	1	1274	1	Ⴜ	cut_l_stereo_44KHz.wav
2	123	3	3	2	I	1	0	1574	0	Ⴊ	cut_w_stereo_44KHz.wav
2	124	1	1	1	C	2	1	1414	1	Ⴟ	cut_g_stereo_44KHz.wav
2	125	3	4	2	I	1	0	825	0	Ⴊ	cut_h_stereo_44KHz.wav
2	126	2	1	0	C	1	1	1132	1	Ⴜ	cut_g_stereo_44KHz.wav
2	127	4	3	2	I	1	0	1044	1	Ⴁ	cut_w_stereo_44KHz.wav
2	128	1	2	0	C	1	1	1177	1	Ⴟ	cut_l_stereo_44KHz.wav
2	129	4	3	2	I	1	0	1093	0	Ⴁ	cut_w_stereo_44KHz.wav
2	130	2	1	0	C	1	1	1877	1	Ⴜ	cut_g_stereo_44KHz.wav
2	131	3	3	2	I	2	0	593	0	Ⴊ	cut_w_stereo_44KHz.wav
2	132	1	1	1	C	2	1	878	1	Ⴟ	cut_g_stereo_44KHz.wav
2	133	2	2	1	C	1	0	582	0	Ⴜ	cut_l_stereo_44KHz.wav
2	134	3	4	2	I	1	0	1226	0	Ⴊ	cut_h_stereo_44KHz.wav
2	135	1	2	0	C	1	1	841	1	Ⴟ	cut_l_stereo_44KHz.wav
2	136	4	4	2	I	1	0	970	0	Ⴁ	cut_h_stereo_44KHz.wav
2	137	1	1	1	C	2	1	954	1	Ⴟ	cut_g_stereo_44KHz.wav
2	138	3	4	2	I	1	0	764	0	Ⴊ	cut_h_stereo_44KHz.wav
2	139	2	1	0	C	1	1	1138	1	Ⴜ	cut_g_stereo_44KHz.wav
2	140	4	3	2	I	2	0	720	1	Ⴁ	cut_w_stereo_44KHz.wav
2	141	2	2	1	C	2	1	845	1	Ⴜ	cut_l_stereo_44KHz.wav
2	142	4	4	2	I	2	0	1090	0	Ⴁ	cut_h_stereo_44KHz.wav
2	143	1	2	0	C	1	1	712	1	Ⴟ	cut_l_stereo_44KHz.wav
2	144	3	3	2	I	2	0	943	1	Ⴊ	cut_w_stereo_44KHz.wav
2	145	4	4	2	I	1	0	1541	1	Ⴁ	cut_h_stereo_44KHz.wav
2	146	2	2	1	C	2	1	959	1	Ⴜ	cut_l_stereo_44KHz.wav
2	147	1	1	1	C	2	1	844	1	Ⴟ	cut_g_stereo_44KHz.wav
2	148	3	4	2	I	1	0	853	1	Ⴊ	cut_h_stereo_44KHz.wav
2	149	1	2	0	C	1	1	868	1	Ⴟ	cut_l_stereo_44KHz.wav
2	150	3	3	2	I	2	0	987	1	Ⴊ	cut_w_stereo_44KHz.wav
2	151	4	3	2	I	2	0	1103	0	Ⴁ	cut_w_stereo_44KHz.wav
2	152	2	1	0	C	1	1	1053	1	Ⴜ	cut_g_stereo_44KHz.wav
2	153	3	3	2	I	2	0	717	1	Ⴊ	cut_w_stereo_44KHz.wav
2	154	1	1	1	C	2	1	767	1	Ⴟ	cut_g_stereo_44KHz.wav
2	155	4	4	2	I	2	0	1288	0	Ⴁ	cut_h_stereo_44KHz.wav
2	156	2	1	0	C	1	1	1152	1	Ⴜ	cut_g_stereo_44KHz.wav
2	157	4	3	2	I	2	0	848	0	Ⴁ	cut_w_stereo_44KHz.wav
2	158	1	2	0	C	1	1	1341	1	Ⴟ	cut_l_stereo_44KHz.wav
2	159	2	2	1	C	2	1	792	1	Ⴜ	cut_l_stereo_44KHz.wav
2	160	3	4	2	I	1	0	813	1	Ⴊ	cut_h_stereo_44KHz.wav
2	161	4	4	2	I	2	0	791	0	Ⴁ	cut_h_stereo_44KHz.wav
2	162	1	2	0	C	1	1	685	1	Ⴟ	cut_l_stereo_44KHz.wav
2	163	2	2	1	C	2	1	729	1	Ⴜ	cut_l_stereo_44KHz.wav
2	164	3	3	2	I	2	0	825	0	Ⴊ	cut_w_stereo_44KHz.wav
2	165	4	3	2	I	2	0	725	1	Ⴁ	cut_w_stereo_44KHz.wav
2	166	2	1	0	C	1	1	925	1	Ⴜ	cut_g_stereo_44KHz.wav
2	167	1	1	1	C	2	1	831	1	Ⴟ	cut_g_stereo_44KHz.wav
2	168	3	4	2	I	1	0	865	1	Ⴊ	cut_h_stereo_44KHz.wav
2	169	2	1	0	C	1	1	990	1	Ⴜ	cut_g_stereo_44KHz.wav
2	170	1	1	1	C	2	1	992	1	Ⴟ	cut_g_stereo_44KHz.wav
2	171	4	4	2	I	1	0	804	1	Ⴁ	cut_h_stereo_44KHz.wav
2	172	3	3	2	I	2	0	705	1	Ⴊ	cut_w_stereo_44KHz.wav
2	173	1	2	0	C	1	1	921	1	Ⴟ	cut_l_stereo_44KHz.wav
2	174	2	2	1	C	2	1	1220	1	Ⴜ	cut_l_stereo_44KHz.wav
2	175	3	4	2	I	1	0	1027	0	Ⴊ	cut_h_stereo_44KHz.wav
2	176	4	3	2	I	1	0	912	1	Ⴁ	cut_w_stereo_44KHz.wav
2	177	2	1	0	C	1	1	1011	1	Ⴜ	cut_g_stereo_44KHz.wav
2	178	1	1	1	C	2	1	937	1	Ⴟ	cut_g_stereo_44KHz.wav
2	179	3	4	2	I	1	0	865	1	Ⴊ	cut_h_stereo_44KHz.wav
2	180	4	4	2	I	2	0	822	1	Ⴁ	cut_h_stereo_44KHz.wav
2	181	3	3	2	I	1	0	564	0	Ⴊ	cut_w_stereo_44KHz.wav
2	182	4	3	2	I	2	0	354	1	Ⴁ	cut_w_stereo_44KHz.wav
2	183	1	2	0	C	1	1	1115	1	Ⴟ	cut_l_stereo_44KHz.wav
2	184	2	2	1	C	2	1	1209	1	Ⴜ	cut_l_stereo_44KHz.wav
2	185	4	3	2	I	2	0	856	1	Ⴁ	cut_w_stereo_44KHz.wav
2	186	3	3	2	I	2	0	1054	0	Ⴊ	cut_w_stereo_44KHz.wav
2	187	2	2	1	C	2	1	890	1	Ⴜ	cut_l_stereo_44KHz.wav
2	188	1	2	0	C	1	1	865	1	Ⴟ	cut_l_stereo_44KHz.wav
2	189	3	4	2	I	1	0	745	0	Ⴊ	cut_h_stereo_44KHz.wav
2	190	1	1	1	C	2	1	1027	1	Ⴟ	cut_g_stereo_44KHz.wav
2	191	4	4	2	I	2	0	938	1	Ⴁ	cut_h_stereo_44KHz.wav
2	192	2	1	0	C	1	1	1115	1	Ⴜ	cut_g_stereo_44KHz.wav
2	193	3	4	2	I	2	0	530	1	Ⴊ	cut_h_stereo_44KHz.wav
2	194	1	2	0	C	1	1	610	1	Ⴟ	cut_l_stereo_44KHz.wav
2	195	4	3	2	I	2	0	643	0	Ⴁ	cut_w_stereo_44KHz.wav
2	196	2	1	0	C	1	1	780	1	Ⴜ	cut_g_stereo_44KHz.wav
2	197	1	1	1	C	2	1	795	1	Ⴟ	cut_g_stereo_44KHz.wav
2	198	2	2	1	C	2	1	927	1	Ⴜ	cut_l_stereo_44KHz.wav
2	199	4	4	2	I	2	0	665	1	Ⴁ	cut_h_stereo_44KHz.wav
2	200	3	3	2	I	2	0	809	1	Ⴊ	cut_w_stereo_44KHz.wav
3	1	4	3	2	I	1	0	1112	1	Ⴏ	cut_k_stereo_44KHz.wav
3	2	2	2	1	C	1	0	905	0	Ⴌ	cut_a_stereo_44KHz.wav
3	3	1	1	1	C	1	0	850	0	Ⴔ	cut_o_stereo_44KHz.wav
3	4	3	4	2	I	0	0	0	0	Ⴉ	cut_u_stereo_44KHz.wav
3	5	4	4	2	I	1	0	1096	1	Ⴏ	cut_u_stereo_44KHz.wav
3	6	2	1	0	C	2	0	910	0	Ⴌ	cut_o_stereo_44KHz.wav
3	7	3	3	2	I	1	0	1287	0	Ⴉ	cut_k_stereo_44KHz.wav
3	8	1	2	0	C	1	1	1183	1	Ⴔ	cut_a_stereo_44KHz.wav
3	9	3	3	2	I	2	0	920	1	Ⴉ	cut_k_stereo_44KHz.wav
3	10	2	2	1	C	1	0	891	0	Ⴌ	cut_a_stereo_44KHz.wav
3	11	1	1	1	C	2	1	1032	1	Ⴔ	cut_o_stereo_44KHz.wav
3	12	4	4	2	I	1	0	824	1	Ⴏ	cut_u_stereo_44KHz.wav
3	13	2	1	0	C	1	1	1435	1	Ⴌ	cut_o_stereo_44KHz.wav
3	14	4	3	2	I	2	0	919	0	Ⴏ	cut_k_stereo_44KHz.wav
3	15	1	2	0	C	1	1	877	1	Ⴔ	cut_a_stereo_44KHz.wav
3	16	3	4	2	I	1	0	1076	0	Ⴉ	cut_u_stereo_44KHz.wav
3	17	4	3	2	I	1	0	922	0	Ⴏ	cut_k_stereo_44KHz.wav
3	18	2	1	0	C	2	0	723	0	Ⴌ	cut_o_stereo_44KHz.wav
3	19	1	2	0	C	1	1	292	1	Ⴔ	cut_a_stereo_44KHz.wav
3	20	3	4	2	I	1	0	279	1	Ⴉ	cut_u_stereo_44KHz.wav
3	21	2	2	1	C	2	1	244	1	Ⴌ	cut_a_stereo_44KHz.wav
3	22	3	3	2	I	0	0	0	0	Ⴉ	cut_k_stereo_44KHz.wav
3	23	1	1	1	C	1	0	287	0	Ⴔ	cut_o_stereo_44KHz.wav
3	24	4	4	2	I	2	0	1147	0	Ⴏ	cut_u_stereo_44KHz.wav
3	25	1	1	1	C	1	0	348	0	Ⴔ	cut_o_stereo_44KHz.wav
3	26	3	3	2	I	2	0	780	0	Ⴉ	cut_k_stereo_44KHz.wav
3	27	2	1	0	C	2	0	1183	0	Ⴌ	cut_o_stereo_44KHz.wav
3	28	4	4	2	I	1	0	698	1	Ⴏ	cut_u_stereo_44KHz.wav
3	29	1	2	0	C	1	1	570	1	Ⴔ	cut_a_stereo_44KHz.wav
3	30	3	4	2	I	2	0	722	1	Ⴉ	cut_u_stereo_44KHz.wav
3	31	4	3	2	I	2	0	984	0	Ⴏ	cut_k_stereo_44KHz.wav
3	32	2	2	1	C	1	0	300	0	Ⴌ	cut_a_stereo_44KHz.wav
3	33	1	1	1	C	2	1	803	1	Ⴔ	cut_o_stereo_44KHz.wav
3	34	3	4	2	I	2	0	797	0	Ⴉ	cut_u_stereo_44KHz.wav
3	35	2	1	0	C	1	1	763	1	Ⴌ	cut_o_stereo_44KHz.wav
3	36	4	3	2	I	2	0	746	1	Ⴏ	cut_k_stereo_44KHz.wav
3	37	2	2	1	C	2	1	306	1	Ⴌ	cut_a_stereo_44KHz.wav
3	38	3	3	2	I	2	0	847	1	Ⴉ	cut_k_stereo_44KHz.wav
3	39	4	4	2	I	1	0	746	0	Ⴏ	cut_u_stereo_44KHz.wav
3	40	1	2	0	C	1	1	750	1	Ⴔ	cut_a_stereo_44KHz.wav
3	41	4	4	2	I	2	0	315	0	Ⴏ	cut_u_stereo_44KHz.wav
3	42	1	2	0	C	1	1	487	1	Ⴔ	cut_a_stereo_44KHz.wav
3	43	2	1	0	C	1	1	674	1	Ⴌ	cut_o_stereo_44KHz.wav
3	44	3	3	2	I	1	0	531	0	Ⴉ	cut_k_stereo_44KHz.wav
3	45	2	2	1	C	1	0	304	0	Ⴌ	cut_a_stereo_44KHz.wav
3	46	1	1	1	C	2	1	271	1	Ⴔ	cut_o_stereo_44KHz.wav
3	47	3	4	2	I	1	0	1145	0	Ⴉ	cut_u_stereo_44KHz.wav
3	48	4	3	2	I	1	0	768	1	Ⴏ	cut_k_stereo_44KHz.wav
3	49	2	2	1	C	2	1	452	1	Ⴌ	cut_a_stereo_44KHz.wav
3	50	3	3	2	I	1	0	206	0	Ⴉ	cut_k_stereo_44KHz.wav
3	51	1	2	0	C	1	1	740	1	Ⴔ	cut_a_stereo_44KHz.wav
3	52	4	3	2	I	1	0	682	0	Ⴏ	cut_k_stereo_44KHz.wav
3	53	1	1	1	C	2	1	1085	1	Ⴔ	cut_o_stereo_44KHz.wav
3	54	3	4	2	I	1	0	910	1	Ⴉ	cut_u_stereo_44KHz.wav
3	55	2	1	0	C	2	0	662	0	Ⴌ	cut_o_stereo_44KHz.wav
3	56	4	4	2	I	1	0	280	0	Ⴏ	cut_u_stereo_44KHz.wav
3	57	3	3	2	I	2	0	827	0	Ⴉ	cut_k_stereo_44KHz.wav
3	58	2	1	0	C	1	1	569	1	Ⴌ	cut_o_stereo_44KHz.wav
3	59	4	4	2	I	1	0	235	0	Ⴏ	cut_u_stereo_44KHz.wav
3	60	1	2	0	C	1	1	308	1	Ⴔ	cut_a_stereo_44KHz.wav
3	61	4	3	2	I	1	0	855	0	Ⴏ	cut_k_stereo_44KHz.wav
3	62	3	4	2	I	2	0	1024	1	Ⴉ	cut_u_stereo_44KHz.wav
3	63	1	1	1	C	2	1	448	1	Ⴔ	cut_o_stereo_44KHz.wav
3	64	2	2	1	C	2	1	502	1	Ⴌ	cut_a_stereo_44KHz.wav
3	65	4	4	2	I	1	0	704	0	Ⴏ	cut_u_stereo_44KHz.wav
3	66	1	2	0	C	2	0	301	0	Ⴔ	cut_a_stereo_44KHz.wav
3	67	2	2	1	C	1	0	625	0	Ⴌ	cut_a_stereo_44KHz.wav
3	68	3	4	2	I	2	0	808	0	Ⴉ	cut_u_stereo_44KHz.wav
3	69	2	1	0	C	1	1	902	1	Ⴌ	cut_o_stereo_44KHz.wav
3	70	1	1	1	C	2	1	622	1	Ⴔ	cut_o_stereo_44KHz.wav
3	71	4	3	2	I	1	0	801	1	Ⴏ	cut_k_stereo_44KHz.wav
3	72	3	3	2	I	2	0	679	1	Ⴉ	cut_k_stereo_44KHz.wav
3	73	2	2	1	C	1	0	659	0	Ⴌ	cut_a_stereo_44KHz.wav
3	74	4	4	2	I	1	0	1104	1	Ⴏ	cut_u_stereo_44KHz.wav
3	75	3	3	2	I	1	0	1025	0	Ⴉ	cut_k_stereo_44KHz.wav
3	76	1	1	1	C	2	1	973	1	Ⴔ	cut_o_stereo_44KHz.wav
3	77	4	3	2	I	1	0	1024	1	Ⴏ	cut_k_stereo_44KHz.wav
3	78	1	2	0	C	1	1	823	1	Ⴔ	cut_a_stereo_44KHz.wav
3	79	2	1	0	C	1	1	561	1	Ⴌ	cut_o_stereo_44KHz.wav
3	80	3	4	2	I	2	0	670	1	Ⴉ	cut_u_stereo_44KHz.wav
3	81	1	2	0	C	1	1	676	1	Ⴔ	cut_a_stereo_44KHz.wav
3	82	3	4	2	I	2	0	531	1	Ⴉ	cut_u_stereo_44KHz.wav
3	83	2	2	1	C	1	0	686	0	Ⴌ	cut_a_stereo_44KHz.wav
3	84	4	3	2	I	1	0	831	0	Ⴏ	cut_k_stereo_44KHz.wav
3	85	2	1	0	C	1	1	1139	1	Ⴌ	cut_o_stereo_44KHz.wav
3	86	4	4	2	I	1	0	922	1	Ⴏ	cut_u_stereo_44KHz.wav
3	87	1	1	1	C	2	1	933	1	Ⴔ	cut_o_stereo_44KHz.wav
3	88	3	3	2	I	2	0	1701	1	Ⴉ	cut_k_stereo_44KHz.wav
3	89	4	4	2	I	1	0	1301	0	Ⴏ	cut_u_stereo_44KHz.wav
3	90	2	1	0	C	2	0	753	0	Ⴌ	cut_o_stereo_44KHz.wav
3	91	3	4	2	I	1	0	679	0	Ⴉ	cut_u_stereo_44KHz.wav
3	92	1	1	1	C	2	1	872	1	Ⴔ	cut_o_stereo_44KHz.wav
3	93	4	3	2	I	1	0	1179	1	Ⴏ	cut_k_stereo_44KHz.wav
3	94	2	2	1	C	1	0	843	0	Ⴌ	cut_a_stereo_44KHz.wav
3	95	3	3	2	I	2	0	673	1	Ⴉ	cut_k_stereo_44KHz.wav
3	96	1	2	0	C	1	1	361	1	Ⴔ	cut_a_stereo_44KHz.wav
3	97	2	2	1	C	2	1	355	1	Ⴌ	cut_a_stereo_44KHz.wav
3	98	4	3	2	I	1	0	720	1	Ⴏ	cut_k_stereo_44KHz.wav
3	99	1	2	0	C	2	0	711	0	Ⴔ	cut_a_stereo_44KHz.wav
3	100	3	3	2	I	2	0	1052	1	Ⴉ	cut_k_stereo_44KHz.wav
3	101	2	1	0	C	2	0	1118	0	Ⴌ	cut_o_stereo_44KHz.wav
3	102	3	4	2	I	1	0	1171	0	Ⴉ	cut_u_stereo_44KHz.wav
3	103	1	1	1	C	2	1	1083	1	Ⴔ	cut_o_stereo_44KHz.wav
3	104	4	4	2	I	2	0	1346	0	Ⴏ	cut_u_stereo_44KHz.wav
3	105	3	3	2	I	2	0	322	0	Ⴉ	cut_k_stereo_44KHz.wav
3	106	4	3	2	I	2	0	837	1	Ⴏ	cut_k_stereo_44KHz.wav
3	107	1	2	0	C	1	1	994	1	Ⴔ	cut_a_stereo_44KHz.wav
3	108	2	1	0	C	1	1	921	1	Ⴌ	cut_o_stereo_44KHz.wav
3	109	3	4	2	I	1	0	1245	0	Ⴉ	cut_u_stereo_44KHz.wav
3	110	4	4	2	I	1	0	1081	1	Ⴏ	cut_u_stereo_44KHz.wav
3	111	1	1	1	C	2	1	1058	1	Ⴔ	cut_o_stereo_44KHz.wav
3	112	2	2	1	C	1	0	1111	0	Ⴌ	cut_a_stereo_44KHz.wav
3	113	4	3	2	I	1	0	1008	0	Ⴏ	cut_k_stereo_44KHz.wav
3	114	1	2	0	C	2	0	453	0	Ⴔ	cut_a_stereo_44KHz.wav
3	115	2	1	0	C	1	1	245	1	Ⴌ	cut_o_stereo_44KHz.wav
3	116	3	4	2	I	2	0	725	0	Ⴉ	cut_u_stereo_44KHz.wav
3	117	1	1	1	C	2	1	888	1	Ⴔ	cut_o_stereo_44KHz.wav
3	118	3	3	2	I	2	0	1054	0	Ⴉ	cut_k_stereo_44KHz.wav
3	119	2	2	1	C	2	1	1002	1	Ⴌ	cut_a_stereo_44KHz.wav
3	120	4	4	2	I	2	0	1183	1	Ⴏ	cut_u_stereo_44KHz.wav
3	121	3	3	2	I	2	0	679	1	Ⴉ	cut_k_stereo_44KHz.wav
3	122	2	2	1	C	2	1	825	1	Ⴌ	cut_a_stereo_44KHz.wav
3	123	1	1	1	C	2	1	771	1	Ⴔ	cut_o_stereo_44KHz.wav
3	124	4	4	2	I	2	0	1051	0	Ⴏ	cut_u_stereo_44KHz.wav
3	125	3	4	2	I	2	0	783	0	Ⴉ	cut_u_stereo_44KHz.wav
3	126	2	1	0	C	1	1	955	1	Ⴌ	cut_o_stereo_44KHz.wav
3	127	4	3	2	I	1	0	1018	1	Ⴏ	cut_k_stereo_44KHz.wav
3	128	1	2	0	C	2	0	621	0	Ⴔ	cut_a_stereo_44KHz.wav
3	129	2	2	1	C	2	1	906	1	Ⴌ	cut_a_stereo_44KHz.wav
3	130	4	3	2	I	1	0	959	0	Ⴏ	cut_k_stereo_44KHz.wav
3	131	3	4	2	I	2	0	946	0	Ⴉ	cut_u_stereo_44KHz.wav
3	132	1	2	0	C	1	1	747	1	Ⴔ	cut_a_stereo_44KHz.wav
3	133	4	4	2	I	1	0	825	0	Ⴏ	cut_u_stereo_44KHz.wav
3	134	2	1	0	C	1	1	1015	1	Ⴌ	cut_o_stereo_44KHz.wav
3	135	1	1	1	C	2	1	714	1	Ⴔ	cut_o_stereo_44KHz.wav
3	136	3	3	2	I	2	0	649	0	Ⴉ	cut_k_stereo_44KHz.wav
3	137	1	1	1	C	2	1	940	1	Ⴔ	cut_o_stereo_44KHz.wav
3	138	4	4	2	I	1	0	829	1	Ⴏ	cut_u_stereo_44KHz.wav
3	139	2	2	1	C	2	1	1820	1	Ⴌ	cut_a_stereo_44KHz.wav
3	140	3	3	2	I	1	0	606	0	Ⴉ	cut_k_stereo_44KHz.wav
3	141	1	2	0	C	2	0	104	0	Ⴔ	cut_a_stereo_44KHz.wav
3	142	3	4	2	I	1	0	246	1	Ⴉ	cut_u_stereo_44KHz.wav
3	143	4	3	2	I	2	0	271	0	Ⴏ	cut_k_stereo_44KHz.wav
3	144	2	1	0	C	1	1	181	1	Ⴌ	cut_o_stereo_44KHz.wav
3	145	3	4	2	I	2	0	527	0	Ⴉ	cut_u_stereo_44KHz.wav
3	146	2	2	1	C	2	1	301	1	Ⴌ	cut_a_stereo_44KHz.wav
3	147	1	2	0	C	2	0	642	0	Ⴔ	cut_a_stereo_44KHz.wav
3	148	4	4	2	I	1	0	842	1	Ⴏ	cut_u_stereo_44KHz.wav
3	149	3	3	2	I	1	0	887	0	Ⴉ	cut_k_stereo_44KHz.wav
3	150	4	3	2	I	1	0	643	1	Ⴏ	cut_k_stereo_44KHz.wav
3	151	1	1	1	C	2	1	1183	1	Ⴔ	cut_o_stereo_44KHz.wav
3	152	2	1	0	C	1	1	779	1	Ⴌ	cut_o_stereo_44KHz.wav
3	153	3	4	2	I	2	0	1551	0	Ⴉ	cut_u_stereo_44KHz.wav
3	154	1	2	0	C	1	1	876	1	Ⴔ	cut_a_stereo_44KHz.wav
3	155	4	3	2	I	1	0	992	0	Ⴏ	cut_k_stereo_44KHz.wav
3	156	2	2	1	C	2	1	892	1	Ⴌ	cut_a_stereo_44KHz.wav
3	157	3	3	2	I	2	0	708	1	Ⴉ	cut_k_stereo_44KHz.wav
3	158	1	1	1	C	2	1	709	1	Ⴔ	cut_o_stereo_44KHz.wav
3	159	4	4	2	I	1	0	661	1	Ⴏ	cut_u_stereo_44KHz.wav
3	160	2	1	0	C	2	0	737	0	Ⴌ	cut_o_stereo_44KHz.wav
3	161	1	2	0	C	1	1	888	1	Ⴔ	cut_a_stereo_44KHz.wav
3	162	4	4	2	I	2	0	902	1	Ⴏ	cut_u_stereo_44KHz.wav
3	163	2	2	1	C	2	1	1274	1	Ⴌ	cut_a_stereo_44KHz.wav
3	164	3	3	2	I	2	0	601	1	Ⴉ	cut_k_stereo_44KHz.wav
3	165	4	3	2	I	1	0	634	0	Ⴏ	cut_k_stereo_44KHz.wav
3	166	3	4	2	I	1	0	714	1	Ⴉ	cut_u_stereo_44KHz.wav
3	167	2	1	0	C	2	0	480	0	Ⴌ	cut_o_stereo_44KHz.wav
3	168	1	1	1	C	2	1	606	1	Ⴔ	cut_o_stereo_44KHz.wav
3	169	2	1	0	C	1	1	722	1	Ⴌ	cut_o_stereo_44KHz.wav
3	170	3	3	2	I	2	0	752	0	Ⴉ	cut_k_stereo_44KHz.wav
3	171	4	4	2	I	2	0	786	0	Ⴏ	cut_u_stereo_44KHz.wav
3	172	1	1	1	C	2	1	1018	1	Ⴔ	cut_o_stereo_44KHz.wav
3	173	3	4	2	I	2	0	1139	1	Ⴉ	cut_u_stereo_44KHz.wav
3	174	4	3	2	I	1	0	1422	0	Ⴏ	cut_k_stereo_44KHz.wav
3	175	2	2	1	C	2	1	1153	1	Ⴌ	cut_a_stereo_44KHz.wav
3	176	1	2	0	C	1	1	1401	1	Ⴔ	cut_a_stereo_44KHz.wav
3	177	3	3	2	I	2	0	1318	1	Ⴉ	cut_k_stereo_44KHz.wav
3	178	2	1	0	C	1	1	1463	1	Ⴌ	cut_o_stereo_44KHz.wav
3	179	1	1	1	C	0	0	0	0	Ⴔ	cut_o_stereo_44KHz.wav
3	180	4	4	2	I	1	0	694	1	Ⴏ	cut_u_stereo_44KHz.wav
3	181	2	2	1	C	2	1	826	1	Ⴌ	cut_a_stereo_44KHz.wav
3	182	4	3	2	I	1	0	804	1	Ⴏ	cut_k_stereo_44KHz.wav
3	183	1	2	0	C	1	1	924	1	Ⴔ	cut_a_stereo_44KHz.wav
3	184	3	4	2	I	1	0	592	1	Ⴉ	cut_u_stereo_44KHz.wav
3	185	2	2	1	C	2	1	823	1	Ⴌ	cut_a_stereo_44KHz.wav
3	186	1	2	0	C	1	1	802	1	Ⴔ	cut_a_stereo_44KHz.wav
3	187	3	3	2	I	2	0	1272	0	Ⴉ	cut_k_stereo_44KHz.wav
3	188	4	4	2	I	1	0	819	0	Ⴏ	cut_u_stereo_44KHz.wav
3	189	1	1	1	C	2	1	862	1	Ⴔ	cut_o_stereo_44KHz.wav
3	190	4	3	2	I	1	0	551	1	Ⴏ	cut_k_stereo_44KHz.wav
3	191	2	1	0	C	1	1	1135	1	Ⴌ	cut_o_stereo_44KHz.wav
3	192	3	4	2	I	2	0	801	1	Ⴉ	cut_u_stereo_44KHz.wav
3	193	2	2	1	C	2	1	873	1	Ⴌ	cut_a_stereo_44KHz.wav
3	194	1	2	0	C	1	1	721	1	Ⴔ	cut_a_stereo_44KHz.wav
3	195	3	4	2	I	2	0	566	1	Ⴉ	cut_u_stereo_44KHz.wav
3	196	4	3	2	I	1	0	654	1	Ⴏ	cut_k_stereo_44KHz.wav
3	197	3	3	2	I	2	0	1004	1	Ⴉ	cut_k_stereo_44KHz.wav
3	198	4	4	2	I	1	0	999	0	Ⴏ	cut_u_stereo_44KHz.wav
3	199	1	1	1	C	2	1	990	1	Ⴔ	cut_o_stereo_44KHz.wav
3	200	2	1	0	C	1	1	866	1	Ⴌ	cut_o_stereo_44KHz.wav
4	1	2	1	0	C	2	0	1524	0	Ⴡ	cut_ui_stereo_44KHz.wav
4	2	3	3	2	I	1	0	1005	0	Ⴂ	cut_j_stereo_44KHz.wav
4	3	1	1	1	C	2	1	871	1	Ⴃ	cut_ui_stereo_44KHz.wav
4	4	4	4	2	I	1	0	906	1	Ⴇ	cut_r_stereo_44KHz.wav
4	5	1	2	0	C	1	1	1175	1	Ⴃ	cut_s_stereo_44KHz.wav
4	6	3	4	2	I	2	0	979	0	Ⴂ	cut_r_stereo_44KHz.wav
4	7	4	3	2	I	2	0	1022	1	Ⴇ	cut_j_stereo_44KHz.wav
4	8	2	2	1	C	1	0	672	0	Ⴡ	cut_s_stereo_44KHz.wav
4	9	3	3	2	I	2	0	241	1	Ⴂ	cut_j_stereo_44KHz.wav
4	10	4	4	2	I	1	0	315	1	Ⴇ	cut_r_stereo_44KHz.wav
4	11	1	2	0	C	2	0	284	0	Ⴃ	cut_s_stereo_44KHz.wav
4	12	2	2	1	C	1	0	213	0	Ⴡ	cut_s_stereo_44KHz.wav
4	13	4	3	2	I	1	0	521	1	Ⴇ	cut_j_stereo_44KHz.wav
4	14	3	4	2	I	2	0	362	1	Ⴂ	cut_r_stereo_44KHz.wav
4	15	2	1	0	C	2	0	291	0	Ⴡ	cut_ui_stereo_44KHz.wav
4	16	1	1	1	C	1	0	279	0	Ⴃ	cut_ui_stereo_44KHz.wav
4	17	4	4	2	I	1	0	538	1	Ⴇ	cut_r_stereo_44KHz.wav
4	18	2	1	0	C	1	1	694	1	Ⴡ	cut_ui_stereo_44KHz.wav
4	19	3	4	2	I	1	0	672	1	Ⴂ	cut_r_stereo_44KHz.wav
4	20	1	2	0	C	1	1	453	1	Ⴃ	cut_s_stereo_44KHz.wav
4	21	3	3	2	I	1	0	269	1	Ⴂ	cut_j_stereo_44KHz.wav
4	22	1	1	1	C	1	0	471	0	Ⴃ	cut_ui_stereo_44KHz.wav
4	23	2	2	1	C	1	0	640	0	Ⴡ	cut_s_stereo_44KHz.wav
4	24	4	3	2	I	1	0	1356	0	Ⴇ	cut_j_stereo_44KHz.wav
4	25	2	2	1	C	2	1	240	1	Ⴡ	cut_s_stereo_44KHz.wav
4	26	1	1	1	C	2	1	593	1	Ⴃ	cut_ui_stereo_44KHz.wav
4	27	4	4	2	I	2	0	621	0	Ⴇ	cut_r_stereo_44KHz.wav
4	28	3	3	2	I	2	0	814	1	Ⴂ	cut_j_stereo_44KHz.wav
4	29	2	1	0	C	1	1	584	1	Ⴡ	cut_ui_stereo_44KHz.wav
4	30	3	4	2	I	1	0	922	0	Ⴂ	cut_r_stereo_44KHz.wav
4	31	1	2	0	C	1	1	816	1	Ⴃ	cut_s_stereo_44KHz.wav
4	32	4	3	2	I	1	0	912	0	Ⴇ	cut_j_stereo_44KHz.wav
4	33	1	2	0	C	1	1	903	1	Ⴃ	cut_s_stereo_44KHz.wav
4	34	3	4	2	I	1	0	909	0	Ⴂ	cut_r_stereo_44KHz.wav
4	35	2	1	0	C	1	1	663	1	Ⴡ	cut_ui_stereo_44KHz.wav
4	36	4	4	2	I	1	0	926	1	Ⴇ	cut_r_stereo_44KHz.wav
4	37	2	2	1	C	2	1	1056	1	Ⴡ	cut_s_stereo_44KHz.wav
4	38	3	3	2	I	2	0	850	1	Ⴂ	cut_j_stereo_44KHz.wav
4	39	4	3	2	I	2	0	979	0	Ⴇ	cut_j_stereo_44KHz.wav
4	40	1	1	1	C	2	1	1116	1	Ⴃ	cut_ui_stereo_44KHz.wav
4	41	2	1	0	C	1	1	570	1	Ⴡ	cut_ui_stereo_44KHz.wav
4	42	3	3	2	I	2	0	496	1	Ⴂ	cut_j_stereo_44KHz.wav
4	43	1	1	1	C	2	1	325	1	Ⴃ	cut_ui_stereo_44KHz.wav
4	44	4	3	2	I	1	0	308	0	Ⴇ	cut_j_stereo_44KHz.wav
4	45	2	2	1	C	1	0	385	0	Ⴡ	cut_s_stereo_44KHz.wav
4	46	4	4	2	I	1	0	876	1	Ⴇ	cut_r_stereo_44KHz.wav
4	47	1	2	0	C	2	0	823	0	Ⴃ	cut_s_stereo_44KHz.wav
4	48	3	4	2	I	2	0	461	0	Ⴂ	cut_r_stereo_44KHz.wav
4	49	4	3	2	I	2	0	169	1	Ⴇ	cut_j_stereo_44KHz.wav
4	50	1	1	1	C	2	1	803	1	Ⴃ	cut_ui_stereo_44KHz.wav
4	51	2	2	1	C	2	1	694	1	Ⴡ	cut_s_stereo_44KHz.wav
4	52	3	3	2	I	1	0	874	0	Ⴂ	cut_j_stereo_44KHz.wav
4	53	1	2	0	C	2	0	618	0	Ⴃ	cut_s_stereo_44KHz.wav
4	54	3	4	2	I	1	0	895	1	Ⴂ	cut_r_stereo_44KHz.wav
4	55	4	4	2	I	2	0	682	0	Ⴇ	cut_r_stereo_44KHz.wav
4	56	2	1	0	C	1	1	619	1	Ⴡ	cut_ui_stereo_44KHz.wav
4	57	3	4	2	I	1	0	748	0	Ⴂ	cut_r_stereo_44KHz.wav
4	58	4	4	2	I	1	0	439	0	Ⴇ	cut_r_stereo_44KHz.wav
4	59	2	2	1	C	2	1	1011	1	Ⴡ	cut_s_stereo_44KHz.wav
4	60	1	2	0	C	2	0	783	0	Ⴃ	cut_s_stereo_44KHz.wav
4	61	2	1	0	C	1	1	431	1	Ⴡ	cut_ui_stereo_44KHz.wav
4	62	1	1	1	C	1	0	350	0	Ⴃ	cut_ui_stereo_44KHz.wav
4	63	4	3	2	I	2	0	200	0	Ⴇ	cut_j_stereo_44KHz.wav
4	64	3	3	2	I	2	0	760	1	Ⴂ	cut_j_stereo_44KHz.wav
4	65	2	2	1	C	1	0	804	0	Ⴡ	cut_s_stereo_44KHz.wav
4	66	1	1	1	C	2	1	715	1	Ⴃ	cut_ui_stereo_44KHz.wav
4	67	4	4	2	I	1	0	1256	1	Ⴇ	cut_r_stereo_44KHz.wav
4	68	3	3	2	I	2	0	1039	1	Ⴂ	cut_j_stereo_44KHz.wav
4	69	4	3	2	I	2	0	764	1	Ⴇ	cut_j_stereo_44KHz.wav
4	70	2	1	0	C	1	1	718	1	Ⴡ	cut_ui_stereo_44KHz.wav
4	71	3	4	2	I	1	0	1134	1	Ⴂ	cut_r_stereo_44KHz.wav
4	72	1	2	0	C	2	0	560	0	Ⴃ	cut_s_stereo_44KHz.wav
4	73	3	3	2	I	2	0	898	1	Ⴂ	cut_j_stereo_44KHz.wav
4	74	1	2	0	C	1	1	499	1	Ⴃ	cut_s_stereo_44KHz.wav
4	75	2	1	0	C	1	1	394	1	Ⴡ	cut_ui_stereo_44KHz.wav
4	76	4	4	2	I	1	0	1328	1	Ⴇ	cut_r_stereo_44KHz.wav
4	77	3	4	2	I	2	0	1063	0	Ⴂ	cut_r_stereo_44KHz.wav
4	78	2	2	1	C	1	0	808	0	Ⴡ	cut_s_stereo_44KHz.wav
4	79	1	1	1	C	2	1	395	1	Ⴃ	cut_ui_stereo_44KHz.wav
4	80	4	3	2	I	2	0	291	0	Ⴇ	cut_j_stereo_44KHz.wav
4	81	3	4	2	I	1	0	729	0	Ⴂ	cut_r_stereo_44KHz.wav
4	82	1	1	1	C	2	1	269	1	Ⴃ	cut_ui_stereo_44KHz.wav
4	83	4	3	2	I	2	0	867	0	Ⴇ	cut_j_stereo_44KHz.wav
4	84	2	1	0	C	1	1	712	1	Ⴡ	cut_ui_stereo_44KHz.wav
4	85	4	4	2	I	1	0	1009	0	Ⴇ	cut_r_stereo_44KHz.wav
4	86	1	2	0	C	1	1	836	1	Ⴃ	cut_s_stereo_44KHz.wav
4	87	3	3	2	I	1	0	764	1	Ⴂ	cut_j_stereo_44KHz.wav
4	88	2	2	1	C	1	0	765	0	Ⴡ	cut_s_stereo_44KHz.wav
4	89	4	3	2	I	1	0	650	1	Ⴇ	cut_j_stereo_44KHz.wav
4	90	1	1	1	C	2	1	344	1	Ⴃ	cut_ui_stereo_44KHz.wav
4	91	3	4	2	I	2	0	405	1	Ⴂ	cut_r_stereo_44KHz.wav
4	92	2	1	0	C	1	1	691	1	Ⴡ	cut_ui_stereo_44KHz.wav
4	93	3	3	2	I	2	0	603	1	Ⴂ	cut_j_stereo_44KHz.wav
4	94	4	4	2	I	1	0	600	0	Ⴇ	cut_r_stereo_44KHz.wav
4	95	2	2	1	C	2	1	362	1	Ⴡ	cut_s_stereo_44KHz.wav
4	96	1	2	0	C	1	1	1038	1	Ⴃ	cut_s_stereo_44KHz.wav
4	97	2	1	0	C	1	1	708	1	Ⴡ	cut_ui_stereo_44KHz.wav
4	98	4	3	2	I	2	0	1447	1	Ⴇ	cut_j_stereo_44KHz.wav
4	99	1	2	0	C	2	0	288	0	Ⴃ	cut_s_stereo_44KHz.wav
4	100	3	4	2	I	1	0	358	0	Ⴂ	cut_r_stereo_44KHz.wav
4	101	4	4	2	I	2	0	325	0	Ⴇ	cut_r_stereo_44KHz.wav
4	102	1	1	1	C	2	1	877	1	Ⴃ	cut_ui_stereo_44KHz.wav
4	103	3	3	2	I	1	0	794	0	Ⴂ	cut_j_stereo_44KHz.wav
4	104	2	2	1	C	2	1	1152	1	Ⴡ	cut_s_stereo_44KHz.wav
4	105	3	3	2	I	1	0	903	0	Ⴂ	cut_j_stereo_44KHz.wav
4	106	1	2	0	C	1	1	1088	1	Ⴃ	cut_s_stereo_44KHz.wav
4	107	2	1	0	C	1	1	661	1	Ⴡ	cut_ui_stereo_44KHz.wav
4	108	4	4	2	I	1	0	1022	1	Ⴇ	cut_r_stereo_44KHz.wav
4	109	1	1	1	C	1	0	733	0	Ⴃ	cut_ui_stereo_44KHz.wav
4	110	3	4	2	I	2	0	593	1	Ⴂ	cut_r_stereo_44KHz.wav
4	111	2	2	1	C	1	0	599	0	Ⴡ	cut_s_stereo_44KHz.wav
4	112	4	3	2	I	2	0	584	1	Ⴇ	cut_j_stereo_44KHz.wav
4	113	3	3	2	I	2	0	629	0	Ⴂ	cut_j_stereo_44KHz.wav
4	114	1	1	1	C	2	1	824	1	Ⴃ	cut_ui_stereo_44KHz.wav
4	115	4	4	2	I	1	0	970	0	Ⴇ	cut_r_stereo_44KHz.wav
4	116	2	1	0	C	1	1	726	1	Ⴡ	cut_ui_stereo_44KHz.wav
4	117	3	4	2	I	2	0	912	0	Ⴂ	cut_r_stereo_44KHz.wav
4	118	1	2	0	C	1	1	995	1	Ⴃ	cut_s_stereo_44KHz.wav
4	119	2	2	1	C	2	1	776	1	Ⴡ	cut_s_stereo_44KHz.wav
4	120	4	3	2	I	2	0	887	0	Ⴇ	cut_j_stereo_44KHz.wav
4	121	2	1	0	C	1	1	646	1	Ⴡ	cut_ui_stereo_44KHz.wav
4	122	1	2	0	C	1	1	978	1	Ⴃ	cut_s_stereo_44KHz.wav
4	123	3	4	2	I	2	0	1008	0	Ⴂ	cut_r_stereo_44KHz.wav
4	124	4	3	2	I	2	0	736	0	Ⴇ	cut_j_stereo_44KHz.wav
4	125	1	1	1	C	2	1	1067	1	Ⴃ	cut_ui_stereo_44KHz.wav
4	126	4	4	2	I	2	0	926	1	Ⴇ	cut_r_stereo_44KHz.wav
4	127	2	2	1	C	1	0	1459	0	Ⴡ	cut_s_stereo_44KHz.wav
4	128	3	3	2	I	1	0	1050	1	Ⴂ	cut_j_stereo_44KHz.wav
4	129	4	4	2	I	2	0	939	0	Ⴇ	cut_r_stereo_44KHz.wav
4	130	1	2	0	C	2	0	952	0	Ⴃ	cut_s_stereo_44KHz.wav
4	131	3	3	2	I	1	0	700	0	Ⴂ	cut_j_stereo_44KHz.wav
4	132	2	2	1	C	2	1	888	1	Ⴡ	cut_s_stereo_44KHz.wav
4	133	3	4	2	I	2	0	850	1	Ⴂ	cut_r_stereo_44KHz.wav
4	134	4	3	2	I	1	0	1268	1	Ⴇ	cut_j_stereo_44KHz.wav
4	135	2	1	0	C	1	1	856	1	Ⴡ	cut_ui_stereo_44KHz.wav
4	136	1	1	1	C	2	1	779	1	Ⴃ	cut_ui_stereo_44KHz.wav
4	137	4	4	2	I	1	0	1040	1	Ⴇ	cut_r_stereo_44KHz.wav
4	138	2	1	0	C	1	1	1181	1	Ⴡ	cut_ui_stereo_44KHz.wav
4	139	3	3	2	I	2	0	1297	1	Ⴂ	cut_j_stereo_44KHz.wav
4	140	1	1	1	C	2	1	741	1	Ⴃ	cut_ui_stereo_44KHz.wav
4	141	2	2	1	C	2	1	1008	1	Ⴡ	cut_s_stereo_44KHz.wav
4	142	1	2	0	C	2	0	708	0	Ⴃ	cut_s_stereo_44KHz.wav
4	143	3	4	2	I	2	0	679	0	Ⴂ	cut_r_stereo_44KHz.wav
4	144	4	3	2	I	1	0	792	0	Ⴇ	cut_j_stereo_44KHz.wav
4	145	1	2	0	C	2	0	824	0	Ⴃ	cut_s_stereo_44KHz.wav
4	146	3	3	2	I	1	0	741	1	Ⴂ	cut_j_stereo_44KHz.wav
4	147	4	4	2	I	1	0	883	0	Ⴇ	cut_r_stereo_44KHz.wav
4	148	2	1	0	C	1	1	678	1	Ⴡ	cut_ui_stereo_44KHz.wav
4	149	4	3	2	I	1	0	820	1	Ⴇ	cut_j_stereo_44KHz.wav
4	150	1	1	1	C	2	1	555	1	Ⴃ	cut_ui_stereo_44KHz.wav
4	151	2	2	1	C	1	0	1159	0	Ⴡ	cut_s_stereo_44KHz.wav
4	152	3	4	2	I	2	0	681	1	Ⴂ	cut_r_stereo_44KHz.wav
4	153	2	2	1	C	2	1	852	1	Ⴡ	cut_s_stereo_44KHz.wav
4	154	3	3	2	I	1	0	667	1	Ⴂ	cut_j_stereo_44KHz.wav
4	155	1	2	0	C	2	0	429	0	Ⴃ	cut_s_stereo_44KHz.wav
4	156	4	4	2	I	1	0	1015	0	Ⴇ	cut_r_stereo_44KHz.wav
4	157	1	1	1	C	2	1	1020	1	Ⴃ	cut_ui_stereo_44KHz.wav
4	158	3	4	2	I	2	0	1645	0	Ⴂ	cut_r_stereo_44KHz.wav
4	159	4	3	2	I	2	0	1193	0	Ⴇ	cut_j_stereo_44KHz.wav
4	160	2	1	0	C	1	1	775	1	Ⴡ	cut_ui_stereo_44KHz.wav
4	161	4	3	2	I	2	0	671	1	Ⴇ	cut_j_stereo_44KHz.wav
4	162	1	1	1	C	2	1	725	1	Ⴃ	cut_ui_stereo_44KHz.wav
4	163	2	1	0	C	1	1	750	1	Ⴡ	cut_ui_stereo_44KHz.wav
4	164	3	4	2	I	2	0	773	0	Ⴂ	cut_r_stereo_44KHz.wav
4	165	4	4	2	I	2	0	907	0	Ⴇ	cut_r_stereo_44KHz.wav
4	166	3	3	2	I	2	0	794	0	Ⴂ	cut_j_stereo_44KHz.wav
4	167	1	2	0	C	2	0	827	0	Ⴃ	cut_s_stereo_44KHz.wav
4	168	2	2	1	C	1	0	284	0	Ⴡ	cut_s_stereo_44KHz.wav
4	169	1	1	1	C	2	1	804	1	Ⴃ	cut_ui_stereo_44KHz.wav
4	170	2	2	1	C	2	1	756	1	Ⴡ	cut_s_stereo_44KHz.wav
4	171	4	4	2	I	1	0	1114	0	Ⴇ	cut_r_stereo_44KHz.wav
4	172	3	3	2	I	2	0	599	0	Ⴂ	cut_j_stereo_44KHz.wav
4	173	2	1	0	C	1	1	707	1	Ⴡ	cut_ui_stereo_44KHz.wav
4	174	1	2	0	C	2	0	520	0	Ⴃ	cut_s_stereo_44KHz.wav
4	175	3	4	2	I	1	0	730	1	Ⴂ	cut_r_stereo_44KHz.wav
4	176	4	3	2	I	2	0	705	1	Ⴇ	cut_j_stereo_44KHz.wav
4	177	3	3	2	I	1	0	848	0	Ⴂ	cut_j_stereo_44KHz.wav
4	178	2	2	1	C	2	1	893	1	Ⴡ	cut_s_stereo_44KHz.wav
4	179	4	4	2	I	2	0	1062	1	Ⴇ	cut_r_stereo_44KHz.wav
4	180	1	2	0	C	1	1	1583	1	Ⴃ	cut_s_stereo_44KHz.wav
4	181	3	4	2	I	2	0	761	0	Ⴂ	cut_r_stereo_44KHz.wav
4	182	2	1	0	C	1	1	666	1	Ⴡ	cut_ui_stereo_44KHz.wav
4	183	4	3	2	I	2	0	902	1	Ⴇ	cut_j_stereo_44KHz.wav
4	184	1	1	1	C	2	1	630	1	Ⴃ	cut_ui_stereo_44KHz.wav
4	185	2	2	1	C	2	1	888	1	Ⴡ	cut_s_stereo_44KHz.wav
4	186	3	3	2	I	2	0	622	0	Ⴂ	cut_j_stereo_44KHz.wav
4	187	1	2	0	C	2	0	744	0	Ⴃ	cut_s_stereo_44KHz.wav
4	188	4	4	2	I	1	0	1631	1	Ⴇ	cut_r_stereo_44KHz.wav
4	189	2	1	0	C	1	1	857	1	Ⴡ	cut_ui_stereo_44KHz.wav
4	190	4	3	2	I	2	0	813	1	Ⴇ	cut_j_stereo_44KHz.wav
4	191	1	1	1	C	2	1	789	1	Ⴃ	cut_ui_stereo_44KHz.wav
4	192	3	4	2	I	2	0	713	1	Ⴂ	cut_r_stereo_44KHz.wav
4	193	4	4	2	I	2	0	608	0	Ⴇ	cut_r_stereo_44KHz.wav
4	194	2	2	1	C	2	1	989	1	Ⴡ	cut_s_stereo_44KHz.wav
4	195	3	3	2	I	1	0	1155	1	Ⴂ	cut_j_stereo_44KHz.wav
4	196	1	1	1	C	2	1	1572	1	Ⴃ	cut_ui_stereo_44KHz.wav
4	197	2	1	0	C	1	1	552	1	Ⴡ	cut_ui_stereo_44KHz.wav
4	198	3	4	2	I	2	0	638	0	Ⴂ	cut_r_stereo_44KHz.wav
4	199	4	3	2	I	2	0	561	0	Ⴇ	cut_j_stereo_44KHz.wav
4	200	1	2	0	C	1	1	1055	1	Ⴃ	cut_s_stereo_44KHz.wav
