block	trial	Vstim	Astim	match	C/I	resp	result	RT	fb	V-file	A-file
LR

0	1	1	1	1	C	2	1	1233	1	poli_8sides 23_whiteLine3.jpg	Practice4_b26_stereo_44KHz.wav
0	2	2	3	1	C	1	0	1192	0	poli_8sides 24_whiteLine3.jpg	Practice2_b27_cut2_stereo_44KHz.wav
0	3	2	4	0	C	2	0	1010	0	poli_8sides 24_whiteLine3.jpg	Practice3_b26_cut1_stereo_44KHz.wav
0	4	1	2	0	C	1	1	1324	1	poli_8sides 23_whiteLine3.jpg	Practice1_b27_cut1_stereo_44KHz.wav
0	5	2	4	0	C	1	1	810	1	poli_8sides 24_whiteLine3.jpg	Practice3_b26_cut1_stereo_44KHz.wav
0	6	1	2	0	C	2	0	881	0	poli_8sides 23_whiteLine3.jpg	Practice1_b27_cut1_stereo_44KHz.wav
0	7	2	3	1	C	2	1	1164	1	poli_8sides 24_whiteLine3.jpg	Practice2_b27_cut2_stereo_44KHz.wav
0	8	1	1	1	C	1	0	838	0	poli_8sides 23_whiteLine3.jpg	Practice4_b26_stereo_44KHz.wav
0	9	2	4	0	C	1	1	576	1	poli_8sides 24_whiteLine3.jpg	Practice3_b26_cut1_stereo_44KHz.wav
0	10	1	2	0	C	1	1	1108	1	poli_8sides 23_whiteLine3.jpg	Practice1_b27_cut1_stereo_44KHz.wav
0	11	2	3	1	C	2	1	745	1	poli_8sides 24_whiteLine3.jpg	Practice2_b27_cut2_stereo_44KHz.wav
0	12	1	1	1	C	2	1	847	1	poli_8sides 23_whiteLine3.jpg	Practice4_b26_stereo_44KHz.wav
0	13	2	3	1	C	2	1	823	1	poli_8sides 24_whiteLine3.jpg	Practice2_b27_cut2_stereo_44KHz.wav
0	14	1	1	1	C	2	1	1108	1	poli_8sides 23_whiteLine3.jpg	Practice4_b26_stereo_44KHz.wav
0	15	1	2	0	C	1	1	1036	1	poli_8sides 23_whiteLine3.jpg	Practice1_b27_cut1_stereo_44KHz.wav
0	16	2	4	0	C	1	1	1067	1	poli_8sides 24_whiteLine3.jpg	Practice3_b26_cut1_stereo_44KHz.wav
0	17	2	3	1	C	2	1	830	1	poli_8sides 24_whiteLine3.jpg	Practice2_b27_cut2_stereo_44KHz.wav
0	18	1	1	1	C	2	1	857	1	poli_8sides 23_whiteLine3.jpg	Practice4_b26_stereo_44KHz.wav
0	19	1	2	0	C	1	1	1411	1	poli_8sides 23_whiteLine3.jpg	Practice1_b27_cut1_stereo_44KHz.wav
0	20	2	4	0	C	1	1	827	1	poli_8sides 24_whiteLine3.jpg	Practice3_b26_cut1_stereo_44KHz.wav
0	21	2	4	0	C	1	1	781	1	poli_8sides 24_whiteLine3.jpg	Practice3_b26_cut1_stereo_44KHz.wav
0	22	1	1	1	C	2	1	883	1	poli_8sides 23_whiteLine3.jpg	Practice4_b26_stereo_44KHz.wav
0	23	2	3	1	C	2	1	734	1	poli_8sides 24_whiteLine3.jpg	Practice2_b27_cut2_stereo_44KHz.wav
0	24	1	2	0	C	1	1	885	1	poli_8sides 23_whiteLine3.jpg	Practice1_b27_cut1_stereo_44KHz.wav
0	25	2	4	0	C	1	1	857	1	poli_8sides 24_whiteLine3.jpg	Practice3_b26_cut1_stereo_44KHz.wav
0	26	1	2	0	C	1	1	957	1	poli_8sides 23_whiteLine3.jpg	Practice1_b27_cut1_stereo_44KHz.wav
0	27	1	1	1	C	2	1	1040	1	poli_8sides 23_whiteLine3.jpg	Practice4_b26_stereo_44KHz.wav
0	28	2	3	1	C	2	1	1719	1	poli_8sides 24_whiteLine3.jpg	Practice2_b27_cut2_stereo_44KHz.wav
0	29	2	3	1	C	2	1	1142	1	poli_8sides 24_whiteLine3.jpg	Practice2_b27_cut2_stereo_44KHz.wav
0	30	1	2	0	C	1	1	1119	1	poli_8sides 23_whiteLine3.jpg	Practice1_b27_cut1_stereo_44KHz.wav
avg_resp = 996
1	1	2	1	0	C	2	0	1411	0	poli_8sides 2_whiteLine3.jpg	MediumShort_e16_cut1_stereo_44KHz.wav
1	2	1	2	0	C	1	1	1026	1	poli_8sides 5_whiteLine3.jpg	MediumShort_b10_cut1_MS_stereo_44KHz.wav
1	3	4	3	2	I	2	0	863	0	poli_8sides 11_whiteLine3.jpg	MediumShort_e22_cut1_stereo_44KHz.wav
1	4	3	4	2	I	1	0	1050	1	poli_8sides 13_whiteLine3.jpg	MediumShort_b16_cut3_MS_stereo_44KHz.wav
1	5	4	4	2	I	2	0	986	1	poli_8sides 11_whiteLine3.jpg	MediumShort_b16_cut3_MS_stereo_44KHz.wav
1	6	3	3	2	I	1	0	1091	0	poli_8sides 13_whiteLine3.jpg	MediumShort_e22_cut1_stereo_44KHz.wav
1	7	2	2	1	C	1	0	838	0	poli_8sides 2_whiteLine3.jpg	MediumShort_b10_cut1_MS_stereo_44KHz.wav
1	8	1	1	1	C	2	1	1322	1	poli_8sides 5_whiteLine3.jpg	MediumShort_e16_cut1_stereo_44KHz.wav
1	9	3	3	2	I	1	0	707	1	poli_8sides 13_whiteLine3.jpg	MediumShort_e22_cut1_stereo_44KHz.wav
1	10	2	2	1	C	1	0	970	0	poli_8sides 2_whiteLine3.jpg	MediumShort_b10_cut1_MS_stereo_44KHz.wav
1	11	4	3	2	I	2	0	1147	1	poli_8sides 11_whiteLine3.jpg	MediumShort_e22_cut1_stereo_44KHz.wav
1	12	1	1	1	C	1	0	969	0	poli_8sides 5_whiteLine3.jpg	MediumShort_e16_cut1_stereo_44KHz.wav
1	13	4	4	2	I	2	0	968	1	poli_8sides 11_whiteLine3.jpg	MediumShort_b16_cut3_MS_stereo_44KHz.wav
1	14	3	4	2	I	2	0	915	0	poli_8sides 13_whiteLine3.jpg	MediumShort_b16_cut3_MS_stereo_44KHz.wav
1	15	2	1	0	C	1	1	915	1	poli_8sides 2_whiteLine3.jpg	MediumShort_e16_cut1_stereo_44KHz.wav
1	16	1	2	0	C	1	1	1440	1	poli_8sides 5_whiteLine3.jpg	MediumShort_b10_cut1_MS_stereo_44KHz.wav
1	17	4	4	2	I	2	0	802	1	poli_8sides 11_whiteLine3.jpg	MediumShort_b16_cut3_MS_stereo_44KHz.wav
1	18	3	3	2	I	1	0	904	0	poli_8sides 13_whiteLine3.jpg	MediumShort_e22_cut1_stereo_44KHz.wav
1	19	2	2	1	C	2	1	956	1	poli_8sides 2_whiteLine3.jpg	MediumShort_b10_cut1_MS_stereo_44KHz.wav
1	20	1	1	1	C	1	0	1247	0	poli_8sides 5_whiteLine3.jpg	MediumShort_e16_cut1_stereo_44KHz.wav
1	21	4	3	2	I	2	0	1116	1	poli_8sides 11_whiteLine3.jpg	MediumShort_e22_cut1_stereo_44KHz.wav
1	22	2	1	0	C	1	1	790	1	poli_8sides 2_whiteLine3.jpg	MediumShort_e16_cut1_stereo_44KHz.wav
1	23	1	2	0	C	1	1	820	1	poli_8sides 5_whiteLine3.jpg	MediumShort_b10_cut1_MS_stereo_44KHz.wav
1	24	3	4	2	I	1	0	956	0	poli_8sides 13_whiteLine3.jpg	MediumShort_b16_cut3_MS_stereo_44KHz.wav
1	25	1	2	0	C	1	1	997	1	poli_8sides 5_whiteLine3.jpg	MediumShort_b10_cut1_MS_stereo_44KHz.wav
1	26	3	3	2	I	2	0	887	0	poli_8sides 13_whiteLine3.jpg	MediumShort_e22_cut1_stereo_44KHz.wav
1	27	4	4	2	I	2	0	989	1	poli_8sides 11_whiteLine3.jpg	MediumShort_b16_cut3_MS_stereo_44KHz.wav
1	28	2	2	1	C	2	1	839	1	poli_8sides 2_whiteLine3.jpg	MediumShort_b10_cut1_MS_stereo_44KHz.wav
1	29	1	1	1	C	1	0	730	0	poli_8sides 5_whiteLine3.jpg	MediumShort_e16_cut1_stereo_44KHz.wav
1	30	4	3	2	I	2	0	837	1	poli_8sides 11_whiteLine3.jpg	MediumShort_e22_cut1_stereo_44KHz.wav
1	31	3	4	2	I	1	0	1152	1	poli_8sides 13_whiteLine3.jpg	MediumShort_b16_cut3_MS_stereo_44KHz.wav
1	32	2	1	0	C	1	1	621	1	poli_8sides 2_whiteLine3.jpg	MediumShort_e16_cut1_stereo_44KHz.wav
1	33	1	2	0	C	1	1	787	1	poli_8sides 5_whiteLine3.jpg	MediumShort_b10_cut1_MS_stereo_44KHz.wav
1	34	4	3	2	I	2	0	907	0	poli_8sides 11_whiteLine3.jpg	MediumShort_e22_cut1_stereo_44KHz.wav
1	35	2	1	0	C	1	1	676	1	poli_8sides 2_whiteLine3.jpg	MediumShort_e16_cut1_stereo_44KHz.wav
1	36	3	4	2	I	1	0	792	1	poli_8sides 13_whiteLine3.jpg	MediumShort_b16_cut3_MS_stereo_44KHz.wav
1	37	1	1	1	C	1	0	702	0	poli_8sides 5_whiteLine3.jpg	MediumShort_e16_cut1_stereo_44KHz.wav
1	38	3	3	2	I	1	0	1185	1	poli_8sides 13_whiteLine3.jpg	MediumShort_e22_cut1_stereo_44KHz.wav
1	39	4	4	2	I	2	0	1046	1	poli_8sides 11_whiteLine3.jpg	MediumShort_b16_cut3_MS_stereo_44KHz.wav
1	40	2	2	1	C	2	1	934	1	poli_8sides 2_whiteLine3.jpg	MediumShort_b10_cut1_MS_stereo_44KHz.wav
1	41	4	4	2	I	2	0	802	0	poli_8sides 11_whiteLine3.jpg	MediumShort_b16_cut3_MS_stereo_44KHz.wav
1	42	1	1	1	C	1	0	788	0	poli_8sides 5_whiteLine3.jpg	MediumShort_e16_cut1_stereo_44KHz.wav
1	43	3	4	2	I	1	0	997	0	poli_8sides 13_whiteLine3.jpg	MediumShort_b16_cut3_MS_stereo_44KHz.wav
1	44	2	2	1	C	2	1	809	1	poli_8sides 2_whiteLine3.jpg	MediumShort_b10_cut1_MS_stereo_44KHz.wav
1	45	3	3	2	I	1	0	888	0	poli_8sides 13_whiteLine3.jpg	MediumShort_e22_cut1_stereo_44KHz.wav
1	46	4	3	2	I	1	0	784	0	poli_8sides 11_whiteLine3.jpg	MediumShort_e22_cut1_stereo_44KHz.wav
1	47	2	1	0	C	1	1	765	1	poli_8sides 2_whiteLine3.jpg	MediumShort_e16_cut1_stereo_44KHz.wav
1	48	1	2	0	C	1	1	609	1	poli_8sides 5_whiteLine3.jpg	MediumShort_b10_cut1_MS_stereo_44KHz.wav
1	49	4	3	2	I	1	0	1232	0	poli_8sides 11_whiteLine3.jpg	MediumShort_e22_cut1_stereo_44KHz.wav
1	50	3	3	2	I	1	0	827	1	poli_8sides 13_whiteLine3.jpg	MediumShort_e22_cut1_stereo_44KHz.wav
1	51	1	2	0	C	1	1	849	1	poli_8sides 5_whiteLine3.jpg	MediumShort_b10_cut1_MS_stereo_44KHz.wav
1	52	2	1	0	C	1	1	1032	1	poli_8sides 2_whiteLine3.jpg	MediumShort_e16_cut1_stereo_44KHz.wav
1	53	3	4	2	I	1	0	1091	0	poli_8sides 13_whiteLine3.jpg	MediumShort_b16_cut3_MS_stereo_44KHz.wav
1	54	1	1	1	C	2	1	1313	1	poli_8sides 5_whiteLine3.jpg	MediumShort_e16_cut1_stereo_44KHz.wav
1	55	2	2	1	C	2	1	870	1	poli_8sides 2_whiteLine3.jpg	MediumShort_b10_cut1_MS_stereo_44KHz.wav
1	56	4	4	2	I	1	0	1001	1	poli_8sides 11_whiteLine3.jpg	MediumShort_b16_cut3_MS_stereo_44KHz.wav
1	57	2	1	0	C	1	1	888	1	poli_8sides 2_whiteLine3.jpg	MediumShort_e16_cut1_stereo_44KHz.wav
1	58	4	3	2	I	1	0	901	1	poli_8sides 11_whiteLine3.jpg	MediumShort_e22_cut1_stereo_44KHz.wav
1	59	1	2	0	C	1	1	605	1	poli_8sides 5_whiteLine3.jpg	MediumShort_b10_cut1_MS_stereo_44KHz.wav
1	60	3	3	2	I	2	0	967	1	poli_8sides 13_whiteLine3.jpg	MediumShort_e22_cut1_stereo_44KHz.wav
1	61	1	1	1	C	1	0	709	0	poli_8sides 5_whiteLine3.jpg	MediumShort_e16_cut1_stereo_44KHz.wav
1	62	3	4	2	I	1	0	910	0	poli_8sides 13_whiteLine3.jpg	MediumShort_b16_cut3_MS_stereo_44KHz.wav
1	63	4	4	2	I	1	0	992	0	poli_8sides 11_whiteLine3.jpg	MediumShort_b16_cut3_MS_stereo_44KHz.wav
1	64	2	2	1	C	1	0	935	0	poli_8sides 2_whiteLine3.jpg	MediumShort_b10_cut1_MS_stereo_44KHz.wav
1	65	3	3	2	I	1	0	908	0	poli_8sides 13_whiteLine3.jpg	MediumShort_e22_cut1_stereo_44KHz.wav
1	66	4	3	2	I	2	0	1146	0	poli_8sides 11_whiteLine3.jpg	MediumShort_e22_cut1_stereo_44KHz.wav
1	67	2	2	1	C	2	1	1069	1	poli_8sides 2_whiteLine3.jpg	MediumShort_b10_cut1_MS_stereo_44KHz.wav
1	68	1	1	1	C	1	0	698	0	poli_8sides 5_whiteLine3.jpg	MediumShort_e16_cut1_stereo_44KHz.wav
1	69	4	4	2	I	2	0	777	0	poli_8sides 11_whiteLine3.jpg	MediumShort_b16_cut3_MS_stereo_44KHz.wav
1	70	1	2	0	C	1	1	938	1	poli_8sides 5_whiteLine3.jpg	MediumShort_b10_cut1_MS_stereo_44KHz.wav
1	71	3	4	2	I	2	0	784	0	poli_8sides 13_whiteLine3.jpg	MediumShort_b16_cut3_MS_stereo_44KHz.wav
1	72	2	1	0	C	1	1	757	1	poli_8sides 2_whiteLine3.jpg	MediumShort_e16_cut1_stereo_44KHz.wav
1	73	1	1	1	C	2	1	876	1	poli_8sides 5_whiteLine3.jpg	MediumShort_e16_cut1_stereo_44KHz.wav
1	74	3	3	2	I	1	0	724	0	poli_8sides 13_whiteLine3.jpg	MediumShort_e22_cut1_stereo_44KHz.wav
1	75	4	3	2	I	1	0	718	1	poli_8sides 11_whiteLine3.jpg	MediumShort_e22_cut1_stereo_44KHz.wav
1	76	2	2	1	C	2	1	743	1	poli_8sides 2_whiteLine3.jpg	MediumShort_b10_cut1_MS_stereo_44KHz.wav
1	77	4	4	2	I	2	0	1015	0	poli_8sides 11_whiteLine3.jpg	MediumShort_b16_cut3_MS_stereo_44KHz.wav
1	78	1	2	0	C	1	1	1101	1	poli_8sides 5_whiteLine3.jpg	MediumShort_b10_cut1_MS_stereo_44KHz.wav
1	79	3	4	2	I	2	0	756	1	poli_8sides 13_whiteLine3.jpg	MediumShort_b16_cut3_MS_stereo_44KHz.wav
1	80	2	1	0	C	1	1	678	1	poli_8sides 2_whiteLine3.jpg	MediumShort_e16_cut1_stereo_44KHz.wav
1	81	3	4	2	I	2	0	777	0	poli_8sides 13_whiteLine3.jpg	MediumShort_b16_cut3_MS_stereo_44KHz.wav
1	82	1	1	1	C	1	0	782	0	poli_8sides 5_whiteLine3.jpg	MediumShort_e16_cut1_stereo_44KHz.wav
1	83	2	2	1	C	2	1	824	1	poli_8sides 2_whiteLine3.jpg	MediumShort_b10_cut1_MS_stereo_44KHz.wav
1	84	4	4	2	I	2	0	737	0	poli_8sides 11_whiteLine3.jpg	MediumShort_b16_cut3_MS_stereo_44KHz.wav
1	85	1	2	0	C	2	0	771	0	poli_8sides 5_whiteLine3.jpg	MediumShort_b10_cut1_MS_stereo_44KHz.wav
1	86	2	1	0	C	1	1	574	1	poli_8sides 2_whiteLine3.jpg	MediumShort_e16_cut1_stereo_44KHz.wav
1	87	4	3	2	I	1	0	874	1	poli_8sides 11_whiteLine3.jpg	MediumShort_e22_cut1_stereo_44KHz.wav
1	88	3	3	2	I	2	0	701	1	poli_8sides 13_whiteLine3.jpg	MediumShort_e22_cut1_stereo_44KHz.wav
1	89	1	2	0	C	1	1	696	1	poli_8sides 5_whiteLine3.jpg	MediumShort_b10_cut1_MS_stereo_44KHz.wav
1	90	2	1	0	C	1	1	588	1	poli_8sides 2_whiteLine3.jpg	MediumShort_e16_cut1_stereo_44KHz.wav
1	91	4	3	2	I	2	0	1049	0	poli_8sides 11_whiteLine3.jpg	MediumShort_e22_cut1_stereo_44KHz.wav
1	92	3	4	2	I	1	0	662	0	poli_8sides 13_whiteLine3.jpg	MediumShort_b16_cut3_MS_stereo_44KHz.wav
1	93	1	1	1	C	2	1	1256	1	poli_8sides 5_whiteLine3.jpg	MediumShort_e16_cut1_stereo_44KHz.wav
1	94	2	2	1	C	2	1	694	1	poli_8sides 2_whiteLine3.jpg	MediumShort_b10_cut1_MS_stereo_44KHz.wav
1	95	3	3	2	I	2	0	1095	1	poli_8sides 13_whiteLine3.jpg	MediumShort_e22_cut1_stereo_44KHz.wav
1	96	4	4	2	I	2	0	821	1	poli_8sides 11_whiteLine3.jpg	MediumShort_b16_cut3_MS_stereo_44KHz.wav
1	97	1	1	1	C	2	1	1278	1	poli_8sides 5_whiteLine3.jpg	MediumShort_e16_cut1_stereo_44KHz.wav
1	98	4	4	2	I	2	0	950	0	poli_8sides 11_whiteLine3.jpg	MediumShort_b16_cut3_MS_stereo_44KHz.wav
1	99	3	3	2	I	1	0	1010	1	poli_8sides 13_whiteLine3.jpg	MediumShort_e22_cut1_stereo_44KHz.wav
1	100	2	2	1	C	2	1	851	1	poli_8sides 2_whiteLine3.jpg	MediumShort_b10_cut1_MS_stereo_44KHz.wav
1	101	1	2	0	C	1	1	560	1	poli_8sides 5_whiteLine3.jpg	MediumShort_b10_cut1_MS_stereo_44KHz.wav
1	102	2	1	0	C	1	1	887	1	poli_8sides 2_whiteLine3.jpg	MediumShort_e16_cut1_stereo_44KHz.wav
1	103	4	3	2	I	1	0	1149	1	poli_8sides 11_whiteLine3.jpg	MediumShort_e22_cut1_stereo_44KHz.wav
1	104	3	4	2	I	2	0	788	0	poli_8sides 13_whiteLine3.jpg	MediumShort_b16_cut3_MS_stereo_44KHz.wav
1	105	4	3	2	I	2	0	1023	1	poli_8sides 11_whiteLine3.jpg	MediumShort_e22_cut1_stereo_44KHz.wav
1	106	2	2	1	C	2	1	810	1	poli_8sides 2_whiteLine3.jpg	MediumShort_b10_cut1_MS_stereo_44KHz.wav
1	107	1	2	0	C	1	1	644	1	poli_8sides 5_whiteLine3.jpg	MediumShort_b10_cut1_MS_stereo_44KHz.wav
1	108	3	3	2	I	2	0	752	1	poli_8sides 13_whiteLine3.jpg	MediumShort_e22_cut1_stereo_44KHz.wav
1	109	4	4	2	I	2	0	885	0	poli_8sides 11_whiteLine3.jpg	MediumShort_b16_cut3_MS_stereo_44KHz.wav
1	110	2	1	0	C	1	1	707	1	poli_8sides 2_whiteLine3.jpg	MediumShort_e16_cut1_stereo_44KHz.wav
1	111	3	4	2	I	2	0	903	1	poli_8sides 13_whiteLine3.jpg	MediumShort_b16_cut3_MS_stereo_44KHz.wav
1	112	1	1	1	C	1	0	647	0	poli_8sides 5_whiteLine3.jpg	MediumShort_e16_cut1_stereo_44KHz.wav
1	113	3	3	2	I	2	0	1037	1	poli_8sides 13_whiteLine3.jpg	MediumShort_e22_cut1_stereo_44KHz.wav
1	114	4	4	2	I	2	0	852	1	poli_8sides 11_whiteLine3.jpg	MediumShort_b16_cut3_MS_stereo_44KHz.wav
1	115	1	2	0	C	1	1	785	1	poli_8sides 5_whiteLine3.jpg	MediumShort_b10_cut1_MS_stereo_44KHz.wav
1	116	2	2	1	C	2	1	766	1	poli_8sides 2_whiteLine3.jpg	MediumShort_b10_cut1_MS_stereo_44KHz.wav
1	117	4	3	2	I	1	0	784	1	poli_8sides 11_whiteLine3.jpg	MediumShort_e22_cut1_stereo_44KHz.wav
1	118	3	4	2	I	1	0	1347	1	poli_8sides 13_whiteLine3.jpg	MediumShort_b16_cut3_MS_stereo_44KHz.wav
1	119	2	1	0	C	1	1	936	1	poli_8sides 2_whiteLine3.jpg	MediumShort_e16_cut1_stereo_44KHz.wav
1	120	1	1	1	C	2	1	782	1	poli_8sides 5_whiteLine3.jpg	MediumShort_e16_cut1_stereo_44KHz.wav
1	121	3	4	2	I	1	0	1035	1	poli_8sides 13_whiteLine3.jpg	MediumShort_b16_cut3_MS_stereo_44KHz.wav
1	122	2	2	1	C	2	1	902	1	poli_8sides 2_whiteLine3.jpg	MediumShort_b10_cut1_MS_stereo_44KHz.wav
1	123	4	4	2	I	2	0	682	1	poli_8sides 11_whiteLine3.jpg	MediumShort_b16_cut3_MS_stereo_44KHz.wav
1	124	1	2	0	C	1	1	669	1	poli_8sides 5_whiteLine3.jpg	MediumShort_b10_cut1_MS_stereo_44KHz.wav
1	125	3	3	2	I	1	0	955	1	poli_8sides 13_whiteLine3.jpg	MediumShort_e22_cut1_stereo_44KHz.wav
1	126	2	1	0	C	1	1	675	1	poli_8sides 2_whiteLine3.jpg	MediumShort_e16_cut1_stereo_44KHz.wav
1	127	4	3	2	I	1	0	877	1	poli_8sides 11_whiteLine3.jpg	MediumShort_e22_cut1_stereo_44KHz.wav
1	128	1	1	1	C	1	0	885	0	poli_8sides 5_whiteLine3.jpg	MediumShort_e16_cut1_stereo_44KHz.wav
1	129	4	3	2	I	1	0	1099	0	poli_8sides 11_whiteLine3.jpg	MediumShort_e22_cut1_stereo_44KHz.wav
1	130	2	2	1	C	2	1	841	1	poli_8sides 2_whiteLine3.jpg	MediumShort_b10_cut1_MS_stereo_44KHz.wav
1	131	3	4	2	I	2	0	1273	0	poli_8sides 13_whiteLine3.jpg	MediumShort_b16_cut3_MS_stereo_44KHz.wav
1	132	1	2	0	C	1	1	880	1	poli_8sides 5_whiteLine3.jpg	MediumShort_b10_cut1_MS_stereo_44KHz.wav
1	133	4	4	2	I	2	0	774	0	poli_8sides 11_whiteLine3.jpg	MediumShort_b16_cut3_MS_stereo_44KHz.wav
1	134	1	1	1	C	1	0	841	0	poli_8sides 5_whiteLine3.jpg	MediumShort_e16_cut1_stereo_44KHz.wav
1	135	3	3	2	I	1	0	979	1	poli_8sides 13_whiteLine3.jpg	MediumShort_e22_cut1_stereo_44KHz.wav
1	136	2	1	0	C	1	1	862	1	poli_8sides 2_whiteLine3.jpg	MediumShort_e16_cut1_stereo_44KHz.wav
1	137	3	3	2	I	2	0	806	1	poli_8sides 13_whiteLine3.jpg	MediumShort_e22_cut1_stereo_44KHz.wav
1	138	2	1	0	C	1	1	532	1	poli_8sides 2_whiteLine3.jpg	MediumShort_e16_cut1_stereo_44KHz.wav
1	139	4	3	2	I	1	0	813	0	poli_8sides 11_whiteLine3.jpg	MediumShort_e22_cut1_stereo_44KHz.wav
1	140	1	2	0	C	1	1	735	1	poli_8sides 5_whiteLine3.jpg	MediumShort_b10_cut1_MS_stereo_44KHz.wav
1	141	2	2	1	C	1	0	811	0	poli_8sides 2_whiteLine3.jpg	MediumShort_b10_cut1_MS_stereo_44KHz.wav
1	142	1	1	1	C	2	1	909	1	poli_8sides 5_whiteLine3.jpg	MediumShort_e16_cut1_stereo_44KHz.wav
1	143	4	4	2	I	1	0	693	0	poli_8sides 11_whiteLine3.jpg	MediumShort_b16_cut3_MS_stereo_44KHz.wav
1	144	3	4	2	I	1	0	924	0	poli_8sides 13_whiteLine3.jpg	MediumShort_b16_cut3_MS_stereo_44KHz.wav
1	145	1	1	1	C	2	1	910	1	poli_8sides 5_whiteLine3.jpg	MediumShort_e16_cut1_stereo_44KHz.wav
1	146	3	4	2	I	1	0	837	0	poli_8sides 13_whiteLine3.jpg	MediumShort_b16_cut3_MS_stereo_44KHz.wav
1	147	4	4	2	I	2	0	793	1	poli_8sides 11_whiteLine3.jpg	MediumShort_b16_cut3_MS_stereo_44KHz.wav
1	148	2	1	0	C	1	1	843	1	poli_8sides 2_whiteLine3.jpg	MediumShort_e16_cut1_stereo_44KHz.wav
1	149	3	3	2	I	2	0	1078	0	poli_8sides 13_whiteLine3.jpg	MediumShort_e22_cut1_stereo_44KHz.wav
1	150	1	2	0	C	1	1	751	1	poli_8sides 5_whiteLine3.jpg	MediumShort_b10_cut1_MS_stereo_44KHz.wav
1	151	4	3	2	I	1	0	839	1	poli_8sides 11_whiteLine3.jpg	MediumShort_e22_cut1_stereo_44KHz.wav
1	152	2	2	1	C	2	1	919	1	poli_8sides 2_whiteLine3.jpg	MediumShort_b10_cut1_MS_stereo_44KHz.wav
1	153	1	2	0	C	1	1	714	1	poli_8sides 5_whiteLine3.jpg	MediumShort_b10_cut1_MS_stereo_44KHz.wav
1	154	2	2	1	C	2	1	846	1	poli_8sides 2_whiteLine3.jpg	MediumShort_b10_cut1_MS_stereo_44KHz.wav
1	155	4	3	2	I	1	0	950	1	poli_8sides 11_whiteLine3.jpg	MediumShort_e22_cut1_stereo_44KHz.wav
1	156	3	4	2	I	1	0	1024	0	poli_8sides 13_whiteLine3.jpg	MediumShort_b16_cut3_MS_stereo_44KHz.wav
1	157	2	1	0	C	1	1	817	1	poli_8sides 2_whiteLine3.jpg	MediumShort_e16_cut1_stereo_44KHz.wav
1	158	4	4	2	I	2	0	1030	0	poli_8sides 11_whiteLine3.jpg	MediumShort_b16_cut3_MS_stereo_44KHz.wav
1	159	3	3	2	I	2	0	1197	1	poli_8sides 13_whiteLine3.jpg	MediumShort_e22_cut1_stereo_44KHz.wav
1	160	1	1	1	C	1	0	914	0	poli_8sides 5_whiteLine3.jpg	MediumShort_e16_cut1_stereo_44KHz.wav
1	161	4	3	2	I	1	0	894	0	poli_8sides 11_whiteLine3.jpg	MediumShort_e22_cut1_stereo_44KHz.wav
1	162	1	2	0	C	1	1	626	1	poli_8sides 5_whiteLine3.jpg	MediumShort_b10_cut1_MS_stereo_44KHz.wav
1	163	3	3	2	I	2	0	994	0	poli_8sides 13_whiteLine3.jpg	MediumShort_e22_cut1_stereo_44KHz.wav
1	164	2	2	1	C	2	1	906	1	poli_8sides 2_whiteLine3.jpg	MediumShort_b10_cut1_MS_stereo_44KHz.wav
1	165	4	4	2	I	1	0	1014	1	poli_8sides 11_whiteLine3.jpg	MediumShort_b16_cut3_MS_stereo_44KHz.wav
1	166	2	1	0	C	1	1	1035	1	poli_8sides 2_whiteLine3.jpg	MediumShort_e16_cut1_stereo_44KHz.wav
1	167	1	1	1	C	1	0	1014	0	poli_8sides 5_whiteLine3.jpg	MediumShort_e16_cut1_stereo_44KHz.wav
1	168	3	4	2	I	2	0	954	0	poli_8sides 13_whiteLine3.jpg	MediumShort_b16_cut3_MS_stereo_44KHz.wav
1	169	1	2	0	C	1	1	1350	1	poli_8sides 5_whiteLine3.jpg	MediumShort_b10_cut1_MS_stereo_44KHz.wav
1	170	4	3	2	I	1	0	1062	0	poli_8sides 11_whiteLine3.jpg	MediumShort_e22_cut1_stereo_44KHz.wav
1	171	2	1	0	C	1	1	705	1	poli_8sides 2_whiteLine3.jpg	MediumShort_e16_cut1_stereo_44KHz.wav
1	172	3	3	2	I	1	0	1062	1	poli_8sides 13_whiteLine3.jpg	MediumShort_e22_cut1_stereo_44KHz.wav
1	173	4	4	2	I	1	0	1230	0	poli_8sides 11_whiteLine3.jpg	MediumShort_b16_cut3_MS_stereo_44KHz.wav
1	174	1	1	1	C	1	0	635	0	poli_8sides 5_whiteLine3.jpg	MediumShort_e16_cut1_stereo_44KHz.wav
1	175	3	4	2	I	1	0	1148	1	poli_8sides 13_whiteLine3.jpg	MediumShort_b16_cut3_MS_stereo_44KHz.wav
1	176	2	2	1	C	2	1	991	1	poli_8sides 2_whiteLine3.jpg	MediumShort_b10_cut1_MS_stereo_44KHz.wav
1	177	4	3	2	I	1	0	973	0	poli_8sides 11_whiteLine3.jpg	MediumShort_e22_cut1_stereo_44KHz.wav
1	178	1	2	0	C	1	1	922	1	poli_8sides 5_whiteLine3.jpg	MediumShort_b10_cut1_MS_stereo_44KHz.wav
1	179	2	1	0	C	1	1	923	1	poli_8sides 2_whiteLine3.jpg	MediumShort_e16_cut1_stereo_44KHz.wav
1	180	3	4	2	I	1	0	953	1	poli_8sides 13_whiteLine3.jpg	MediumShort_b16_cut3_MS_stereo_44KHz.wav
1	181	2	2	1	C	2	1	1025	1	poli_8sides 2_whiteLine3.jpg	MediumShort_b10_cut1_MS_stereo_44KHz.wav
1	182	4	4	2	I	2	0	997	1	poli_8sides 11_whiteLine3.jpg	MediumShort_b16_cut3_MS_stereo_44KHz.wav
1	183	1	1	1	C	2	1	1222	1	poli_8sides 5_whiteLine3.jpg	MediumShort_e16_cut1_stereo_44KHz.wav
1	184	3	3	2	I	1	0	986	1	poli_8sides 13_whiteLine3.jpg	MediumShort_e22_cut1_stereo_44KHz.wav
1	185	4	3	2	I	2	0	1044	0	poli_8sides 11_whiteLine3.jpg	MediumShort_e22_cut1_stereo_44KHz.wav
1	186	2	2	1	C	2	1	984	1	poli_8sides 2_whiteLine3.jpg	MediumShort_b10_cut1_MS_stereo_44KHz.wav
1	187	3	3	2	I	1	0	734	1	poli_8sides 13_whiteLine3.jpg	MediumShort_e22_cut1_stereo_44KHz.wav
1	188	1	1	1	C	2	1	1244	1	poli_8sides 5_whiteLine3.jpg	MediumShort_e16_cut1_stereo_44KHz.wav
1	189	3	4	2	I	2	0	970	0	poli_8sides 13_whiteLine3.jpg	MediumShort_b16_cut3_MS_stereo_44KHz.wav
1	190	4	4	2	I	1	0	1254	0	poli_8sides 11_whiteLine3.jpg	MediumShort_b16_cut3_MS_stereo_44KHz.wav
1	191	1	2	0	C	1	1	1077	1	poli_8sides 5_whiteLine3.jpg	MediumShort_b10_cut1_MS_stereo_44KHz.wav
1	192	2	1	0	C	1	1	1034	1	poli_8sides 2_whiteLine3.jpg	MediumShort_e16_cut1_stereo_44KHz.wav
1	193	1	1	1	C	2	1	1113	1	poli_8sides 5_whiteLine3.jpg	MediumShort_e16_cut1_stereo_44KHz.wav
1	194	2	2	1	C	1	0	571	0	poli_8sides 2_whiteLine3.jpg	MediumShort_b10_cut1_MS_stereo_44KHz.wav
1	195	3	3	2	I	1	0	1173	0	poli_8sides 13_whiteLine3.jpg	MediumShort_e22_cut1_stereo_44KHz.wav
1	196	4	4	2	I	2	0	1121	1	poli_8sides 11_whiteLine3.jpg	MediumShort_b16_cut3_MS_stereo_44KHz.wav
1	197	1	2	0	C	1	1	1077	1	poli_8sides 5_whiteLine3.jpg	MediumShort_b10_cut1_MS_stereo_44KHz.wav
1	198	2	1	0	C	1	1	791	1	poli_8sides 2_whiteLine3.jpg	MediumShort_e16_cut1_stereo_44KHz.wav
1	199	3	4	2	I	1	0	1063	0	poli_8sides 13_whiteLine3.jpg	MediumShort_b16_cut3_MS_stereo_44KHz.wav
1	200	4	3	2	I	1	0	1084	0	poli_8sides 11_whiteLine3.jpg	MediumShort_e22_cut1_stereo_44KHz.wav
2	1	1	1	1	C	0	0	0	0	poli_8sides 4_whiteLine3.jpg	Short_b20_cut1_stereo_44KHz.wav
2	2	2	1	0	C	1	1	460	1	poli_8sides 9_whiteLine3.jpg	Short_b20_cut1_stereo_44KHz.wav
2	3	3	4	2	I	1	0	876	0	poli_8sides 7_whiteLine3.jpg	Short_b23_cut1_stereo_44KHz.wav
2	4	4	3	2	I	2	0	823	0	poli_8sides 18_whiteLine3.jpg	Short_b22_cut1_stereo_44KHz.wav
2	5	2	2	1	C	2	1	858	1	poli_8sides 9_whiteLine3.jpg	Short_b09_cut1_stereo_44KHz.wav
2	6	3	3	2	I	1	0	641	0	poli_8sides 7_whiteLine3.jpg	Short_b22_cut1_stereo_44KHz.wav
2	7	1	2	0	C	1	1	1334	1	poli_8sides 4_whiteLine3.jpg	Short_b09_cut1_stereo_44KHz.wav
2	8	4	4	2	I	1	0	917	0	poli_8sides 18_whiteLine3.jpg	Short_b23_cut1_stereo_44KHz.wav
2	9	2	1	0	C	1	1	1037	1	poli_8sides 9_whiteLine3.jpg	Short_b20_cut1_stereo_44KHz.wav
2	10	1	1	1	C	2	1	790	1	poli_8sides 4_whiteLine3.jpg	Short_b20_cut1_stereo_44KHz.wav
2	11	3	3	2	I	1	0	823	1	poli_8sides 7_whiteLine3.jpg	Short_b22_cut1_stereo_44KHz.wav
2	12	4	3	2	I	2	0	749	1	poli_8sides 18_whiteLine3.jpg	Short_b22_cut1_stereo_44KHz.wav
2	13	2	2	1	C	2	1	961	1	poli_8sides 9_whiteLine3.jpg	Short_b09_cut1_stereo_44KHz.wav
2	14	3	4	2	I	2	0	805	1	poli_8sides 7_whiteLine3.jpg	Short_b23_cut1_stereo_44KHz.wav
2	15	1	2	0	C	1	1	891	1	poli_8sides 4_whiteLine3.jpg	Short_b09_cut1_stereo_44KHz.wav
2	16	4	4	2	I	2	0	783	0	poli_8sides 18_whiteLine3.jpg	Short_b23_cut1_stereo_44KHz.wav
2	17	1	1	1	C	2	1	1158	1	poli_8sides 4_whiteLine3.jpg	Short_b20_cut1_stereo_44KHz.wav
2	18	4	4	2	I	2	0	756	0	poli_8sides 18_whiteLine3.jpg	Short_b23_cut1_stereo_44KHz.wav
2	19	3	4	2	I	2	0	947	0	poli_8sides 7_whiteLine3.jpg	Short_b23_cut1_stereo_44KHz.wav
2	20	2	1	0	C	1	1	954	1	poli_8sides 9_whiteLine3.jpg	Short_b20_cut1_stereo_44KHz.wav
2	21	4	3	2	I	2	0	875	1	poli_8sides 18_whiteLine3.jpg	Short_b22_cut1_stereo_44KHz.wav
2	22	1	2	0	C	1	1	723	1	poli_8sides 4_whiteLine3.jpg	Short_b09_cut1_stereo_44KHz.wav
2	23	3	3	2	I	2	0	1193	0	poli_8sides 7_whiteLine3.jpg	Short_b22_cut1_stereo_44KHz.wav
2	24	2	2	1	C	2	1	932	1	poli_8sides 9_whiteLine3.jpg	Short_b09_cut1_stereo_44KHz.wav
2	25	3	4	2	I	2	0	980	1	poli_8sides 7_whiteLine3.jpg	Short_b23_cut1_stereo_44KHz.wav
2	26	1	1	1	C	2	1	921	1	poli_8sides 4_whiteLine3.jpg	Short_b20_cut1_stereo_44KHz.wav
2	27	2	2	1	C	1	0	771	0	poli_8sides 9_whiteLine3.jpg	Short_b09_cut1_stereo_44KHz.wav
2	28	4	3	2	I	1	0	855	0	poli_8sides 18_whiteLine3.jpg	Short_b22_cut1_stereo_44KHz.wav
2	29	2	1	0	C	1	1	795	1	poli_8sides 9_whiteLine3.jpg	Short_b20_cut1_stereo_44KHz.wav
2	30	4	4	2	I	2	0	934	1	poli_8sides 18_whiteLine3.jpg	Short_b23_cut1_stereo_44KHz.wav
2	31	1	2	0	C	1	1	1125	1	poli_8sides 4_whiteLine3.jpg	Short_b09_cut1_stereo_44KHz.wav
2	32	3	3	2	I	2	0	960	1	poli_8sides 7_whiteLine3.jpg	Short_b22_cut1_stereo_44KHz.wav
2	33	4	3	2	I	2	0	768	1	poli_8sides 18_whiteLine3.jpg	Short_b22_cut1_stereo_44KHz.wav
2	34	1	2	0	C	1	1	811	1	poli_8sides 4_whiteLine3.jpg	Short_b09_cut1_stereo_44KHz.wav
2	35	2	2	1	C	2	1	731	1	poli_8sides 9_whiteLine3.jpg	Short_b09_cut1_stereo_44KHz.wav
2	36	3	4	2	I	2	0	770	1	poli_8sides 7_whiteLine3.jpg	Short_b23_cut1_stereo_44KHz.wav
2	37	4	4	2	I	1	0	836	0	poli_8sides 18_whiteLine3.jpg	Short_b23_cut1_stereo_44KHz.wav
2	38	1	1	1	C	2	1	849	1	poli_8sides 4_whiteLine3.jpg	Short_b20_cut1_stereo_44KHz.wav
2	39	2	1	0	C	2	0	779	0	poli_8sides 9_whiteLine3.jpg	Short_b20_cut1_stereo_44KHz.wav
2	40	3	3	2	I	1	0	996	0	poli_8sides 7_whiteLine3.jpg	Short_b22_cut1_stereo_44KHz.wav
2	41	4	3	2	I	2	0	773	1	poli_8sides 18_whiteLine3.jpg	Short_b22_cut1_stereo_44KHz.wav
2	42	1	2	0	C	1	1	1210	1	poli_8sides 4_whiteLine3.jpg	Short_b09_cut1_stereo_44KHz.wav
2	43	3	4	2	I	1	0	1131	0	poli_8sides 7_whiteLine3.jpg	Short_b23_cut1_stereo_44KHz.wav
2	44	2	1	0	C	1	1	880	1	poli_8sides 9_whiteLine3.jpg	Short_b20_cut1_stereo_44KHz.wav
2	45	4	4	2	I	1	0	735	1	poli_8sides 18_whiteLine3.jpg	Short_b23_cut1_stereo_44KHz.wav
2	46	2	2	1	C	2	1	861	1	poli_8sides 9_whiteLine3.jpg	Short_b09_cut1_stereo_44KHz.wav
2	47	1	1	1	C	2	1	828	1	poli_8sides 4_whiteLine3.jpg	Short_b20_cut1_stereo_44KHz.wav
2	48	3	3	2	I	1	0	1028	0	poli_8sides 7_whiteLine3.jpg	Short_b22_cut1_stereo_44KHz.wav
2	49	4	4	2	I	1	0	800	1	poli_8sides 18_whiteLine3.jpg	Short_b23_cut1_stereo_44KHz.wav
2	50	3	4	2	I	2	0	833	1	poli_8sides 7_whiteLine3.jpg	Short_b23_cut1_stereo_44KHz.wav
2	51	1	1	1	C	2	1	951	1	poli_8sides 4_whiteLine3.jpg	Short_b20_cut1_stereo_44KHz.wav
2	52	2	1	0	C	1	1	536	1	poli_8sides 9_whiteLine3.jpg	Short_b20_cut1_stereo_44KHz.wav
2	53	1	2	0	C	1	1	913	1	poli_8sides 4_whiteLine3.jpg	Short_b09_cut1_stereo_44KHz.wav
2	54	2	2	1	C	2	1	750	1	poli_8sides 9_whiteLine3.jpg	Short_b09_cut1_stereo_44KHz.wav
2	55	3	3	2	I	2	0	817	1	poli_8sides 7_whiteLine3.jpg	Short_b22_cut1_stereo_44KHz.wav
2	56	4	3	2	I	1	0	752	0	poli_8sides 18_whiteLine3.jpg	Short_b22_cut1_stereo_44KHz.wav
2	57	2	2	1	C	2	1	784	1	poli_8sides 9_whiteLine3.jpg	Short_b09_cut1_stereo_44KHz.wav
2	58	3	3	2	I	2	0	696	1	poli_8sides 7_whiteLine3.jpg	Short_b22_cut1_stereo_44KHz.wav
2	59	1	1	1	C	1	0	629	0	poli_8sides 4_whiteLine3.jpg	Short_b20_cut1_stereo_44KHz.wav
2	60	4	4	2	I	2	0	738	0	poli_8sides 18_whiteLine3.jpg	Short_b23_cut1_stereo_44KHz.wav
2	61	2	1	0	C	1	1	639	1	poli_8sides 9_whiteLine3.jpg	Short_b20_cut1_stereo_44KHz.wav
2	62	1	2	0	C	1	1	1100	1	poli_8sides 4_whiteLine3.jpg	Short_b09_cut1_stereo_44KHz.wav
2	63	3	4	2	I	1	0	803	0	poli_8sides 7_whiteLine3.jpg	Short_b23_cut1_stereo_44KHz.wav
2	64	4	3	2	I	2	0	1149	1	poli_8sides 18_whiteLine3.jpg	Short_b22_cut1_stereo_44KHz.wav
2	65	3	3	2	I	1	0	984	1	poli_8sides 7_whiteLine3.jpg	Short_b22_cut1_stereo_44KHz.wav
2	66	2	2	1	C	2	1	1195	1	poli_8sides 9_whiteLine3.jpg	Short_b09_cut1_stereo_44KHz.wav
2	67	4	3	2	I	1	0	781	0	poli_8sides 18_whiteLine3.jpg	Short_b22_cut1_stereo_44KHz.wav
2	68	1	1	1	C	2	1	1222	1	poli_8sides 4_whiteLine3.jpg	Short_b20_cut1_stereo_44KHz.wav
2	69	3	4	2	I	1	0	800	1	poli_8sides 7_whiteLine3.jpg	Short_b23_cut1_stereo_44KHz.wav
2	70	2	1	0	C	1	1	667	1	poli_8sides 9_whiteLine3.jpg	Short_b20_cut1_stereo_44KHz.wav
2	71	1	2	0	C	2	0	908	0	poli_8sides 4_whiteLine3.jpg	Short_b09_cut1_stereo_44KHz.wav
2	72	4	4	2	I	1	0	1348	1	poli_8sides 18_whiteLine3.jpg	Short_b23_cut1_stereo_44KHz.wav
2	73	1	2	0	C	1	1	1201	1	poli_8sides 4_whiteLine3.jpg	Short_b09_cut1_stereo_44KHz.wav
2	74	4	4	2	I	2	0	1461	0	poli_8sides 18_whiteLine3.jpg	Short_b23_cut1_stereo_44KHz.wav
2	75	2	1	0	C	1	1	771	1	poli_8sides 9_whiteLine3.jpg	Short_b20_cut1_stereo_44KHz.wav
2	76	3	4	2	I	1	0	803	0	poli_8sides 7_whiteLine3.jpg	Short_b23_cut1_stereo_44KHz.wav
2	77	4	3	2	I	2	0	841	0	poli_8sides 18_whiteLine3.jpg	Short_b22_cut1_stereo_44KHz.wav
2	78	3	3	2	I	1	0	900	1	poli_8sides 7_whiteLine3.jpg	Short_b22_cut1_stereo_44KHz.wav
2	79	2	2	1	C	2	1	1112	1	poli_8sides 9_whiteLine3.jpg	Short_b09_cut1_stereo_44KHz.wav
2	80	1	1	1	C	2	1	1107	1	poli_8sides 4_whiteLine3.jpg	Short_b20_cut1_stereo_44KHz.wav
2	81	4	4	2	I	1	0	1052	1	poli_8sides 18_whiteLine3.jpg	Short_b23_cut1_stereo_44KHz.wav
2	82	2	2	1	C	2	1	815	1	poli_8sides 9_whiteLine3.jpg	Short_b09_cut1_stereo_44KHz.wav
2	83	3	3	2	I	2	0	1012	0	poli_8sides 7_whiteLine3.jpg	Short_b22_cut1_stereo_44KHz.wav
2	84	1	1	1	C	2	1	1093	1	poli_8sides 4_whiteLine3.jpg	Short_b20_cut1_stereo_44KHz.wav
2	85	3	4	2	I	2	0	1217	0	poli_8sides 7_whiteLine3.jpg	Short_b23_cut1_stereo_44KHz.wav
2	86	1	2	0	C	2	0	787	0	poli_8sides 4_whiteLine3.jpg	Short_b09_cut1_stereo_44KHz.wav
2	87	4	3	2	I	1	0	850	1	poli_8sides 18_whiteLine3.jpg	Short_b22_cut1_stereo_44KHz.wav
2	88	2	1	0	C	1	1	728	1	poli_8sides 9_whiteLine3.jpg	Short_b20_cut1_stereo_44KHz.wav
2	89	1	2	0	C	1	1	902	1	poli_8sides 4_whiteLine3.jpg	Short_b09_cut1_stereo_44KHz.wav
2	90	2	1	0	C	1	1	683	1	poli_8sides 9_whiteLine3.jpg	Short_b20_cut1_stereo_44KHz.wav
2	91	3	4	2	I	1	0	701	1	poli_8sides 7_whiteLine3.jpg	Short_b23_cut1_stereo_44KHz.wav
2	92	4	3	2	I	1	0	796	1	poli_8sides 18_whiteLine3.jpg	Short_b22_cut1_stereo_44KHz.wav
2	93	3	3	2	I	2	0	782	1	poli_8sides 7_whiteLine3.jpg	Short_b22_cut1_stereo_44KHz.wav
2	94	1	1	1	C	2	1	780	1	poli_8sides 4_whiteLine3.jpg	Short_b20_cut1_stereo_44KHz.wav
2	95	2	2	1	C	2	1	739	1	poli_8sides 9_whiteLine3.jpg	Short_b09_cut1_stereo_44KHz.wav
2	96	4	4	2	I	1	0	753	0	poli_8sides 18_whiteLine3.jpg	Short_b23_cut1_stereo_44KHz.wav
2	97	1	2	0	C	2	0	913	0	poli_8sides 4_whiteLine3.jpg	Short_b09_cut1_stereo_44KHz.wav
2	98	2	1	0	C	1	1	689	1	poli_8sides 9_whiteLine3.jpg	Short_b20_cut1_stereo_44KHz.wav
2	99	4	3	2	I	1	0	1009	1	poli_8sides 18_whiteLine3.jpg	Short_b22_cut1_stereo_44KHz.wav
2	100	3	3	2	I	2	0	912	1	poli_8sides 7_whiteLine3.jpg	Short_b22_cut1_stereo_44KHz.wav
2	101	4	4	2	I	1	0	888	0	poli_8sides 18_whiteLine3.jpg	Short_b23_cut1_stereo_44KHz.wav
2	102	1	1	1	C	2	1	1067	1	poli_8sides 4_whiteLine3.jpg	Short_b20_cut1_stereo_44KHz.wav
2	103	3	4	2	I	1	0	787	1	poli_8sides 7_whiteLine3.jpg	Short_b23_cut1_stereo_44KHz.wav
2	104	2	2	1	C	2	1	920	1	poli_8sides 9_whiteLine3.jpg	Short_b09_cut1_stereo_44KHz.wav
2	105	1	1	1	C	2	1	1017	1	poli_8sides 4_whiteLine3.jpg	Short_b20_cut1_stereo_44KHz.wav
2	106	3	4	2	I	1	0	893	0	poli_8sides 7_whiteLine3.jpg	Short_b23_cut1_stereo_44KHz.wav
2	107	4	3	2	I	2	0	1305	0	poli_8sides 18_whiteLine3.jpg	Short_b22_cut1_stereo_44KHz.wav
2	108	2	2	1	C	2	1	906	1	poli_8sides 9_whiteLine3.jpg	Short_b09_cut1_stereo_44KHz.wav
2	109	4	4	2	I	1	0	814	0	poli_8sides 18_whiteLine3.jpg	Short_b23_cut1_stereo_44KHz.wav
2	110	3	3	2	I	2	0	824	0	poli_8sides 7_whiteLine3.jpg	Short_b22_cut1_stereo_44KHz.wav
2	111	1	2	0	C	2	0	752	0	poli_8sides 4_whiteLine3.jpg	Short_b09_cut1_stereo_44KHz.wav
2	112	2	1	0	C	1	1	843	1	poli_8sides 9_whiteLine3.jpg	Short_b20_cut1_stereo_44KHz.wav
2	113	4	3	2	I	1	0	1319	0	poli_8sides 18_whiteLine3.jpg	Short_b22_cut1_stereo_44KHz.wav
2	114	2	2	1	C	2	1	824	1	poli_8sides 9_whiteLine3.jpg	Short_b09_cut1_stereo_44KHz.wav
2	115	3	4	2	I	1	0	1131	1	poli_8sides 7_whiteLine3.jpg	Short_b23_cut1_stereo_44KHz.wav
2	116	1	2	0	C	2	0	896	0	poli_8sides 4_whiteLine3.jpg	Short_b09_cut1_stereo_44KHz.wav
2	117	2	1	0	C	2	0	779	0	poli_8sides 9_whiteLine3.jpg	Short_b20_cut1_stereo_44KHz.wav
2	118	3	3	2	I	2	0	1045	0	poli_8sides 7_whiteLine3.jpg	Short_b22_cut1_stereo_44KHz.wav
2	119	4	4	2	I	1	0	789	1	poli_8sides 18_whiteLine3.jpg	Short_b23_cut1_stereo_44KHz.wav
2	120	1	1	1	C	2	1	637	1	poli_8sides 4_whiteLine3.jpg	Short_b20_cut1_stereo_44KHz.wav
2	121	3	3	2	I	2	0	1024	1	poli_8sides 7_whiteLine3.jpg	Short_b22_cut1_stereo_44KHz.wav
2	122	4	3	2	I	1	0	1009	1	poli_8sides 18_whiteLine3.jpg	Short_b22_cut1_stereo_44KHz.wav
2	123	1	2	0	C	2	0	800	0	poli_8sides 4_whiteLine3.jpg	Short_b09_cut1_stereo_44KHz.wav
2	124	2	2	1	C	2	1	771	1	poli_8sides 9_whiteLine3.jpg	Short_b09_cut1_stereo_44KHz.wav
2	125	1	1	1	C	2	1	810	1	poli_8sides 4_whiteLine3.jpg	Short_b20_cut1_stereo_44KHz.wav
2	126	4	4	2	I	1	0	778	1	poli_8sides 18_whiteLine3.jpg	Short_b23_cut1_stereo_44KHz.wav
2	127	3	4	2	I	2	0	717	0	poli_8sides 7_whiteLine3.jpg	Short_b23_cut1_stereo_44KHz.wav
2	128	2	1	0	C	1	1	978	1	poli_8sides 9_whiteLine3.jpg	Short_b20_cut1_stereo_44KHz.wav
2	129	1	2	0	C	2	0	588	0	poli_8sides 4_whiteLine3.jpg	Short_b09_cut1_stereo_44KHz.wav
2	130	2	2	1	C	2	1	686	1	poli_8sides 9_whiteLine3.jpg	Short_b09_cut1_stereo_44KHz.wav
2	131	3	3	2	I	2	0	885	0	poli_8sides 7_whiteLine3.jpg	Short_b22_cut1_stereo_44KHz.wav
2	132	4	3	2	I	2	0	905	0	poli_8sides 18_whiteLine3.jpg	Short_b22_cut1_stereo_44KHz.wav
2	133	1	1	1	C	2	1	569	1	poli_8sides 4_whiteLine3.jpg	Short_b20_cut1_stereo_44KHz.wav
2	134	2	1	0	C	1	1	1152	1	poli_8sides 9_whiteLine3.jpg	Short_b20_cut1_stereo_44KHz.wav
2	135	3	4	2	I	1	0	814	0	poli_8sides 7_whiteLine3.jpg	Short_b23_cut1_stereo_44KHz.wav
2	136	4	4	2	I	1	0	680	1	poli_8sides 18_whiteLine3.jpg	Short_b23_cut1_stereo_44KHz.wav
2	137	1	1	1	C	2	1	744	1	poli_8sides 4_whiteLine3.jpg	Short_b20_cut1_stereo_44KHz.wav
2	138	4	3	2	I	1	0	927	1	poli_8sides 18_whiteLine3.jpg	Short_b22_cut1_stereo_44KHz.wav
2	139	3	3	2	I	2	0	719	1	poli_8sides 7_whiteLine3.jpg	Short_b22_cut1_stereo_44KHz.wav
2	140	2	2	1	C	2	1	978	1	poli_8sides 9_whiteLine3.jpg	Short_b09_cut1_stereo_44KHz.wav
2	141	4	4	2	I	2	0	902	0	poli_8sides 18_whiteLine3.jpg	Short_b23_cut1_stereo_44KHz.wav
2	142	2	1	0	C	1	1	862	1	poli_8sides 9_whiteLine3.jpg	Short_b20_cut1_stereo_44KHz.wav
2	143	1	2	0	C	2	0	715	0	poli_8sides 4_whiteLine3.jpg	Short_b09_cut1_stereo_44KHz.wav
2	144	3	4	2	I	1	0	761	0	poli_8sides 7_whiteLine3.jpg	Short_b23_cut1_stereo_44KHz.wav
2	145	4	3	2	I	1	0	727	0	poli_8sides 18_whiteLine3.jpg	Short_b22_cut1_stereo_44KHz.wav
2	146	1	1	1	C	1	0	1019	0	poli_8sides 4_whiteLine3.jpg	Short_b20_cut1_stereo_44KHz.wav
2	147	2	1	0	C	1	1	734	1	poli_8sides 9_whiteLine3.jpg	Short_b20_cut1_stereo_44KHz.wav
2	148	3	3	2	I	2	0	748	1	poli_8sides 7_whiteLine3.jpg	Short_b22_cut1_stereo_44KHz.wav
2	149	1	2	0	C	1	1	764	1	poli_8sides 4_whiteLine3.jpg	Short_b09_cut1_stereo_44KHz.wav
2	150	4	4	2	I	1	0	957	0	poli_8sides 18_whiteLine3.jpg	Short_b23_cut1_stereo_44KHz.wav
2	151	2	2	1	C	2	1	821	1	poli_8sides 9_whiteLine3.jpg	Short_b09_cut1_stereo_44KHz.wav
2	152	3	4	2	I	1	0	774	0	poli_8sides 7_whiteLine3.jpg	Short_b23_cut1_stereo_44KHz.wav
2	153	4	4	2	I	1	0	723	0	poli_8sides 18_whiteLine3.jpg	Short_b23_cut1_stereo_44KHz.wav
2	154	3	3	2	I	2	0	770	0	poli_8sides 7_whiteLine3.jpg	Short_b22_cut1_stereo_44KHz.wav
2	155	2	1	0	C	1	1	1279	1	poli_8sides 9_whiteLine3.jpg	Short_b20_cut1_stereo_44KHz.wav
2	156	1	1	1	C	2	1	687	1	poli_8sides 4_whiteLine3.jpg	Short_b20_cut1_stereo_44KHz.wav
2	157	3	4	2	I	1	0	731	1	poli_8sides 7_whiteLine3.jpg	Short_b23_cut1_stereo_44KHz.wav
2	158	2	2	1	C	2	1	897	1	poli_8sides 9_whiteLine3.jpg	Short_b09_cut1_stereo_44KHz.wav
2	159	4	3	2	I	1	0	759	0	poli_8sides 18_whiteLine3.jpg	Short_b22_cut1_stereo_44KHz.wav
2	160	1	2	0	C	1	1	809	1	poli_8sides 4_whiteLine3.jpg	Short_b09_cut1_stereo_44KHz.wav
2	161	4	4	2	I	1	0	689	1	poli_8sides 18_whiteLine3.jpg	Short_b23_cut1_stereo_44KHz.wav
2	162	3	4	2	I	2	0	720	0	poli_8sides 7_whiteLine3.jpg	Short_b23_cut1_stereo_44KHz.wav
2	163	1	1	1	C	2	1	1111	1	poli_8sides 4_whiteLine3.jpg	Short_b20_cut1_stereo_44KHz.wav
2	164	2	2	1	C	2	1	1049	1	poli_8sides 9_whiteLine3.jpg	Short_b09_cut1_stereo_44KHz.wav
2	165	1	2	0	C	1	1	1301	1	poli_8sides 4_whiteLine3.jpg	Short_b09_cut1_stereo_44KHz.wav
2	166	4	3	2	I	1	0	990	0	poli_8sides 18_whiteLine3.jpg	Short_b22_cut1_stereo_44KHz.wav
2	167	3	3	2	I	2	0	728	1	poli_8sides 7_whiteLine3.jpg	Short_b22_cut1_stereo_44KHz.wav
2	168	2	1	0	C	2	0	1002	0	poli_8sides 9_whiteLine3.jpg	Short_b20_cut1_stereo_44KHz.wav
2	169	1	2	0	C	1	1	826	1	poli_8sides 4_whiteLine3.jpg	Short_b09_cut1_stereo_44KHz.wav
2	170	3	3	2	I	1	0	885	1	poli_8sides 7_whiteLine3.jpg	Short_b22_cut1_stereo_44KHz.wav
2	171	4	3	2	I	2	0	821	1	poli_8sides 18_whiteLine3.jpg	Short_b22_cut1_stereo_44KHz.wav
2	172	2	2	1	C	1	0	800	0	poli_8sides 9_whiteLine3.jpg	Short_b09_cut1_stereo_44KHz.wav
2	173	1	1	1	C	2	1	882	1	poli_8sides 4_whiteLine3.jpg	Short_b20_cut1_stereo_44KHz.wav
2	174	4	4	2	I	1	0	953	1	poli_8sides 18_whiteLine3.jpg	Short_b23_cut1_stereo_44KHz.wav
2	175	2	1	0	C	1	1	1151	1	poli_8sides 9_whiteLine3.jpg	Short_b20_cut1_stereo_44KHz.wav
2	176	3	4	2	I	1	0	1089	0	poli_8sides 7_whiteLine3.jpg	Short_b23_cut1_stereo_44KHz.wav
2	177	2	2	1	C	2	1	1074	1	poli_8sides 9_whiteLine3.jpg	Short_b09_cut1_stereo_44KHz.wav
2	178	4	3	2	I	1	0	846	1	poli_8sides 18_whiteLine3.jpg	Short_b22_cut1_stereo_44KHz.wav
2	179	3	4	2	I	1	0	938	1	poli_8sides 7_whiteLine3.jpg	Short_b23_cut1_stereo_44KHz.wav
2	180	1	1	1	C	2	1	1191	1	poli_8sides 4_whiteLine3.jpg	Short_b20_cut1_stereo_44KHz.wav
2	181	2	1	0	C	1	1	1119	1	poli_8sides 9_whiteLine3.jpg	Short_b20_cut1_stereo_44KHz.wav
2	182	3	3	2	I	1	0	1020	1	poli_8sides 7_whiteLine3.jpg	Short_b22_cut1_stereo_44KHz.wav
2	183	1	2	0	C	1	1	818	1	poli_8sides 4_whiteLine3.jpg	Short_b09_cut1_stereo_44KHz.wav
2	184	4	4	2	I	1	0	1053	0	poli_8sides 18_whiteLine3.jpg	Short_b23_cut1_stereo_44KHz.wav
2	185	3	3	2	I	2	0	1156	1	poli_8sides 7_whiteLine3.jpg	Short_b22_cut1_stereo_44KHz.wav
2	186	4	3	2	I	1	0	846	1	poli_8sides 18_whiteLine3.jpg	Short_b22_cut1_stereo_44KHz.wav
2	187	2	2	1	C	2	1	1005	1	poli_8sides 9_whiteLine3.jpg	Short_b09_cut1_stereo_44KHz.wav
2	188	1	2	0	C	2	0	855	0	poli_8sides 4_whiteLine3.jpg	Short_b09_cut1_stereo_44KHz.wav
2	189	3	4	2	I	1	0	989	0	poli_8sides 7_whiteLine3.jpg	Short_b23_cut1_stereo_44KHz.wav
2	190	4	4	2	I	1	0	657	0	poli_8sides 18_whiteLine3.jpg	Short_b23_cut1_stereo_44KHz.wav
2	191	1	1	1	C	1	0	1254	0	poli_8sides 4_whiteLine3.jpg	Short_b20_cut1_stereo_44KHz.wav
2	192	2	1	0	C	1	1	775	1	poli_8sides 9_whiteLine3.jpg	Short_b20_cut1_stereo_44KHz.wav
2	193	1	1	1	C	2	1	909	1	poli_8sides 4_whiteLine3.jpg	Short_b20_cut1_stereo_44KHz.wav
2	194	4	3	2	I	1	0	574	1	poli_8sides 18_whiteLine3.jpg	Short_b22_cut1_stereo_44KHz.wav
2	195	2	1	0	C	2	0	589	0	poli_8sides 9_whiteLine3.jpg	Short_b20_cut1_stereo_44KHz.wav
2	196	3	3	2	I	1	0	966	0	poli_8sides 7_whiteLine3.jpg	Short_b22_cut1_stereo_44KHz.wav
2	197	2	2	1	C	2	1	774	1	poli_8sides 9_whiteLine3.jpg	Short_b09_cut1_stereo_44KHz.wav
2	198	3	4	2	I	1	0	824	0	poli_8sides 7_whiteLine3.jpg	Short_b23_cut1_stereo_44KHz.wav
2	199	4	4	2	I	2	0	884	1	poli_8sides 18_whiteLine3.jpg	Short_b23_cut1_stereo_44KHz.wav
2	200	1	2	0	C	1	1	770	1	poli_8sides 4_whiteLine3.jpg	Short_b09_cut1_stereo_44KHz.wav
3	1	2	2	1	C	2	1	1729	1	poli_8sides 6_whiteLine3.jpg	MediumLong_e17_cut2_stereo_44KHz.wav
3	2	3	4	2	I	1	0	945	0	poli_8sides 12_whiteLine3.jpg	Medium_e21_stereo_44KHz.wav
3	3	4	3	2	I	1	0	872	0	poli_8sides 8_whiteLine3.jpg	Medium_e01_cut1_stereo_44KHz.wav
3	4	1	2	0	C	1	1	741	1	poli_8sides 16_whiteLine3.jpg	MediumLong_e17_cut2_stereo_44KHz.wav
3	5	3	3	2	I	2	0	976	1	poli_8sides 12_whiteLine3.jpg	Medium_e01_cut1_stereo_44KHz.wav
3	6	1	1	1	C	2	1	707	1	poli_8sides 16_whiteLine3.jpg	MediumLong_b10_cut2_L_stereo_44KHz.wav
3	7	2	1	0	C	1	1	954	1	poli_8sides 6_whiteLine3.jpg	MediumLong_b10_cut2_L_stereo_44KHz.wav
3	8	4	4	2	I	1	0	941	1	poli_8sides 8_whiteLine3.jpg	Medium_e21_stereo_44KHz.wav
3	9	1	2	0	C	1	1	774	1	poli_8sides 16_whiteLine3.jpg	MediumLong_e17_cut2_stereo_44KHz.wav
3	10	4	4	2	I	1	0	840	1	poli_8sides 8_whiteLine3.jpg	Medium_e21_stereo_44KHz.wav
3	11	2	1	0	C	2	0	1038	0	poli_8sides 6_whiteLine3.jpg	MediumLong_b10_cut2_L_stereo_44KHz.wav
3	12	3	4	2	I	2	0	1235	0	poli_8sides 12_whiteLine3.jpg	Medium_e21_stereo_44KHz.wav
3	13	1	1	1	C	1	0	1091	0	poli_8sides 16_whiteLine3.jpg	MediumLong_b10_cut2_L_stereo_44KHz.wav
3	14	4	3	2	I	2	0	958	0	poli_8sides 8_whiteLine3.jpg	Medium_e01_cut1_stereo_44KHz.wav
3	15	2	2	1	C	1	0	900	0	poli_8sides 6_whiteLine3.jpg	MediumLong_e17_cut2_stereo_44KHz.wav
3	16	3	3	2	I	2	0	834	0	poli_8sides 12_whiteLine3.jpg	Medium_e01_cut1_stereo_44KHz.wav
3	17	4	3	2	I	1	0	1153	0	poli_8sides 8_whiteLine3.jpg	Medium_e01_cut1_stereo_44KHz.wav
3	18	3	4	2	I	2	0	1098	0	poli_8sides 12_whiteLine3.jpg	Medium_e21_stereo_44KHz.wav
3	19	2	1	0	C	1	1	843	1	poli_8sides 6_whiteLine3.jpg	MediumLong_b10_cut2_L_stereo_44KHz.wav
3	20	1	1	1	C	2	1	726	1	poli_8sides 16_whiteLine3.jpg	MediumLong_b10_cut2_L_stereo_44KHz.wav
3	21	4	4	2	I	1	0	1004	1	poli_8sides 8_whiteLine3.jpg	Medium_e21_stereo_44KHz.wav
3	22	3	3	2	I	2	0	1209	0	poli_8sides 12_whiteLine3.jpg	Medium_e01_cut1_stereo_44KHz.wav
3	23	2	2	1	C	2	1	974	1	poli_8sides 6_whiteLine3.jpg	MediumLong_e17_cut2_stereo_44KHz.wav
3	24	1	2	0	C	1	1	701	1	poli_8sides 16_whiteLine3.jpg	MediumLong_e17_cut2_stereo_44KHz.wav
3	25	4	4	2	I	1	0	982	1	poli_8sides 8_whiteLine3.jpg	Medium_e21_stereo_44KHz.wav
3	26	2	2	1	C	2	1	884	1	poli_8sides 6_whiteLine3.jpg	MediumLong_e17_cut2_stereo_44KHz.wav
3	27	3	4	2	I	2	0	1159	1	poli_8sides 12_whiteLine3.jpg	Medium_e21_stereo_44KHz.wav
3	28	1	1	1	C	2	1	901	1	poli_8sides 16_whiteLine3.jpg	MediumLong_b10_cut2_L_stereo_44KHz.wav
3	29	4	3	2	I	2	0	682	0	poli_8sides 8_whiteLine3.jpg	Medium_e01_cut1_stereo_44KHz.wav
3	30	2	1	0	C	2	0	1014	0	poli_8sides 6_whiteLine3.jpg	MediumLong_b10_cut2_L_stereo_44KHz.wav
3	31	1	2	0	C	1	1	758	1	poli_8sides 16_whiteLine3.jpg	MediumLong_e17_cut2_stereo_44KHz.wav
3	32	3	3	2	I	1	0	607	0	poli_8sides 12_whiteLine3.jpg	Medium_e01_cut1_stereo_44KHz.wav
3	33	4	4	2	I	1	0	754	0	poli_8sides 8_whiteLine3.jpg	Medium_e21_stereo_44KHz.wav
3	34	3	3	2	I	1	0	785	1	poli_8sides 12_whiteLine3.jpg	Medium_e01_cut1_stereo_44KHz.wav
3	35	1	1	1	C	2	1	918	1	poli_8sides 16_whiteLine3.jpg	MediumLong_b10_cut2_L_stereo_44KHz.wav
3	36	2	2	1	C	2	1	782	1	poli_8sides 6_whiteLine3.jpg	MediumLong_e17_cut2_stereo_44KHz.wav
3	37	3	4	2	I	1	0	1188	0	poli_8sides 12_whiteLine3.jpg	Medium_e21_stereo_44KHz.wav
3	38	2	1	0	C	2	0	1084	0	poli_8sides 6_whiteLine3.jpg	MediumLong_b10_cut2_L_stereo_44KHz.wav
3	39	1	2	0	C	1	1	657	1	poli_8sides 16_whiteLine3.jpg	MediumLong_e17_cut2_stereo_44KHz.wav
3	40	4	3	2	I	2	0	845	1	poli_8sides 8_whiteLine3.jpg	Medium_e01_cut1_stereo_44KHz.wav
3	41	2	1	0	C	1	1	919	1	poli_8sides 6_whiteLine3.jpg	MediumLong_b10_cut2_L_stereo_44KHz.wav
3	42	3	4	2	I	1	0	925	0	poli_8sides 12_whiteLine3.jpg	Medium_e21_stereo_44KHz.wav
3	43	4	3	2	I	2	0	1000	1	poli_8sides 8_whiteLine3.jpg	Medium_e01_cut1_stereo_44KHz.wav
3	44	1	2	0	C	1	1	765	1	poli_8sides 16_whiteLine3.jpg	MediumLong_e17_cut2_stereo_44KHz.wav
3	45	3	3	2	I	1	0	1352	0	poli_8sides 12_whiteLine3.jpg	Medium_e01_cut1_stereo_44KHz.wav
3	46	4	4	2	I	1	0	880	0	poli_8sides 8_whiteLine3.jpg	Medium_e21_stereo_44KHz.wav
3	47	2	2	1	C	2	1	1265	1	poli_8sides 6_whiteLine3.jpg	MediumLong_e17_cut2_stereo_44KHz.wav
3	48	1	1	1	C	2	1	892	1	poli_8sides 16_whiteLine3.jpg	MediumLong_b10_cut2_L_stereo_44KHz.wav
3	49	4	3	2	I	2	0	922	1	poli_8sides 8_whiteLine3.jpg	Medium_e01_cut1_stereo_44KHz.wav
3	50	3	3	2	I	1	0	814	1	poli_8sides 12_whiteLine3.jpg	Medium_e01_cut1_stereo_44KHz.wav
3	51	2	2	1	C	2	1	919	1	poli_8sides 6_whiteLine3.jpg	MediumLong_e17_cut2_stereo_44KHz.wav
3	52	1	1	1	C	2	1	849	1	poli_8sides 16_whiteLine3.jpg	MediumLong_b10_cut2_L_stereo_44KHz.wav
3	53	3	4	2	I	2	0	926	1	poli_8sides 12_whiteLine3.jpg	Medium_e21_stereo_44KHz.wav
3	54	2	1	0	C	1	1	1080	1	poli_8sides 6_whiteLine3.jpg	MediumLong_b10_cut2_L_stereo_44KHz.wav
3	55	1	2	0	C	1	1	939	1	poli_8sides 16_whiteLine3.jpg	MediumLong_e17_cut2_stereo_44KHz.wav
3	56	4	4	2	I	2	0	1051	1	poli_8sides 8_whiteLine3.jpg	Medium_e21_stereo_44KHz.wav
3	57	1	2	0	C	1	1	698	1	poli_8sides 16_whiteLine3.jpg	MediumLong_e17_cut2_stereo_44KHz.wav
3	58	3	4	2	I	2	0	947	0	poli_8sides 12_whiteLine3.jpg	Medium_e21_stereo_44KHz.wav
3	59	4	4	2	I	1	0	732	0	poli_8sides 8_whiteLine3.jpg	Medium_e21_stereo_44KHz.wav
3	60	2	2	1	C	2	1	1185	1	poli_8sides 6_whiteLine3.jpg	MediumLong_e17_cut2_stereo_44KHz.wav
3	61	4	3	2	I	2	0	835	1	poli_8sides 8_whiteLine3.jpg	Medium_e01_cut1_stereo_44KHz.wav
3	62	1	1	1	C	2	1	801	1	poli_8sides 16_whiteLine3.jpg	MediumLong_b10_cut2_L_stereo_44KHz.wav
3	63	3	3	2	I	1	0	904	1	poli_8sides 12_whiteLine3.jpg	Medium_e01_cut1_stereo_44KHz.wav
3	64	2	1	0	C	1	1	928	1	poli_8sides 6_whiteLine3.jpg	MediumLong_b10_cut2_L_stereo_44KHz.wav
3	65	1	2	0	C	1	1	618	1	poli_8sides 16_whiteLine3.jpg	MediumLong_e17_cut2_stereo_44KHz.wav
3	66	2	1	0	C	1	1	795	1	poli_8sides 6_whiteLine3.jpg	MediumLong_b10_cut2_L_stereo_44KHz.wav
3	67	4	3	2	I	2	0	846	1	poli_8sides 8_whiteLine3.jpg	Medium_e01_cut1_stereo_44KHz.wav
3	68	3	3	2	I	1	0	917	0	poli_8sides 12_whiteLine3.jpg	Medium_e01_cut1_stereo_44KHz.wav
3	69	2	2	1	C	2	1	905	1	poli_8sides 6_whiteLine3.jpg	MediumLong_e17_cut2_stereo_44KHz.wav
3	70	3	4	2	I	2	0	795	1	poli_8sides 12_whiteLine3.jpg	Medium_e21_stereo_44KHz.wav
3	71	1	1	1	C	2	1	748	1	poli_8sides 16_whiteLine3.jpg	MediumLong_b10_cut2_L_stereo_44KHz.wav
3	72	4	4	2	I	1	0	843	1	poli_8sides 8_whiteLine3.jpg	Medium_e21_stereo_44KHz.wav
3	73	2	2	1	C	2	1	826	1	poli_8sides 6_whiteLine3.jpg	MediumLong_e17_cut2_stereo_44KHz.wav
3	74	3	4	2	I	2	0	850	1	poli_8sides 12_whiteLine3.jpg	Medium_e21_stereo_44KHz.wav
3	75	4	4	2	I	1	0	885	0	poli_8sides 8_whiteLine3.jpg	Medium_e21_stereo_44KHz.wav
3	76	1	1	1	C	2	1	1077	1	poli_8sides 16_whiteLine3.jpg	MediumLong_b10_cut2_L_stereo_44KHz.wav
3	77	3	3	2	I	1	0	987	0	poli_8sides 12_whiteLine3.jpg	Medium_e01_cut1_stereo_44KHz.wav
3	78	2	1	0	C	1	1	1175	1	poli_8sides 6_whiteLine3.jpg	MediumLong_b10_cut2_L_stereo_44KHz.wav
3	79	4	3	2	I	2	0	1287	1	poli_8sides 8_whiteLine3.jpg	Medium_e01_cut1_stereo_44KHz.wav
3	80	1	2	0	C	1	1	1442	1	poli_8sides 16_whiteLine3.jpg	MediumLong_e17_cut2_stereo_44KHz.wav
3	81	2	1	0	C	1	1	901	1	poli_8sides 6_whiteLine3.jpg	MediumLong_b10_cut2_L_stereo_44KHz.wav
3	82	1	2	0	C	1	1	715	1	poli_8sides 16_whiteLine3.jpg	MediumLong_e17_cut2_stereo_44KHz.wav
3	83	3	3	2	I	1	0	1072	1	poli_8sides 12_whiteLine3.jpg	Medium_e01_cut1_stereo_44KHz.wav
3	84	4	4	2	I	1	0	778	0	poli_8sides 8_whiteLine3.jpg	Medium_e21_stereo_44KHz.wav
3	85	1	1	1	C	2	1	804	1	poli_8sides 16_whiteLine3.jpg	MediumLong_b10_cut2_L_stereo_44KHz.wav
3	86	4	3	2	I	2	0	988	1	poli_8sides 8_whiteLine3.jpg	Medium_e01_cut1_stereo_44KHz.wav
3	87	3	4	2	I	2	0	942	0	poli_8sides 12_whiteLine3.jpg	Medium_e21_stereo_44KHz.wav
3	88	2	2	1	C	2	1	1070	1	poli_8sides 6_whiteLine3.jpg	MediumLong_e17_cut2_stereo_44KHz.wav
3	89	1	2	0	C	2	0	843	0	poli_8sides 16_whiteLine3.jpg	MediumLong_e17_cut2_stereo_44KHz.wav
3	90	2	1	0	C	1	1	852	1	poli_8sides 6_whiteLine3.jpg	MediumLong_b10_cut2_L_stereo_44KHz.wav
3	91	3	3	2	I	1	0	816	0	poli_8sides 12_whiteLine3.jpg	Medium_e01_cut1_stereo_44KHz.wav
3	92	4	4	2	I	1	0	791	1	poli_8sides 8_whiteLine3.jpg	Medium_e21_stereo_44KHz.wav
3	93	3	4	2	I	2	0	815	1	poli_8sides 12_whiteLine3.jpg	Medium_e21_stereo_44KHz.wav
3	94	2	2	1	C	2	1	1149	1	poli_8sides 6_whiteLine3.jpg	MediumLong_e17_cut2_stereo_44KHz.wav
3	95	4	3	2	I	2	0	936	0	poli_8sides 8_whiteLine3.jpg	Medium_e01_cut1_stereo_44KHz.wav
3	96	1	1	1	C	2	1	934	1	poli_8sides 16_whiteLine3.jpg	MediumLong_b10_cut2_L_stereo_44KHz.wav
3	97	2	2	1	C	2	1	845	1	poli_8sides 6_whiteLine3.jpg	MediumLong_e17_cut2_stereo_44KHz.wav
3	98	4	4	2	I	1	0	654	1	poli_8sides 8_whiteLine3.jpg	Medium_e21_stereo_44KHz.wav
3	99	3	4	2	I	2	0	769	0	poli_8sides 12_whiteLine3.jpg	Medium_e21_stereo_44KHz.wav
3	100	1	1	1	C	2	1	784	1	poli_8sides 16_whiteLine3.jpg	MediumLong_b10_cut2_L_stereo_44KHz.wav
3	101	2	1	0	C	2	0	1021	0	poli_8sides 6_whiteLine3.jpg	MediumLong_b10_cut2_L_stereo_44KHz.wav
3	102	4	3	2	I	1	0	1167	1	poli_8sides 8_whiteLine3.jpg	Medium_e01_cut1_stereo_44KHz.wav
3	103	1	2	0	C	2	0	1017	0	poli_8sides 16_whiteLine3.jpg	MediumLong_e17_cut2_stereo_44KHz.wav
3	104	3	3	2	I	2	0	1184	0	poli_8sides 12_whiteLine3.jpg	Medium_e01_cut1_stereo_44KHz.wav
3	105	2	1	0	C	1	1	884	1	poli_8sides 6_whiteLine3.jpg	MediumLong_b10_cut2_L_stereo_44KHz.wav
3	106	4	4	2	I	1	0	1002	0	poli_8sides 8_whiteLine3.jpg	Medium_e21_stereo_44KHz.wav
3	107	1	2	0	C	1	1	889	1	poli_8sides 16_whiteLine3.jpg	MediumLong_e17_cut2_stereo_44KHz.wav
3	108	3	4	2	I	1	0	967	1	poli_8sides 12_whiteLine3.jpg	Medium_e21_stereo_44KHz.wav
3	109	2	2	1	C	2	1	1006	1	poli_8sides 6_whiteLine3.jpg	MediumLong_e17_cut2_stereo_44KHz.wav
3	110	3	3	2	I	1	0	993	0	poli_8sides 12_whiteLine3.jpg	Medium_e01_cut1_stereo_44KHz.wav
3	111	4	3	2	I	1	0	820	0	poli_8sides 8_whiteLine3.jpg	Medium_e01_cut1_stereo_44KHz.wav
3	112	1	1	1	C	2	1	843	1	poli_8sides 16_whiteLine3.jpg	MediumLong_b10_cut2_L_stereo_44KHz.wav
3	113	2	2	1	C	2	1	843	1	poli_8sides 6_whiteLine3.jpg	MediumLong_e17_cut2_stereo_44KHz.wav
3	114	3	4	2	I	1	0	871	1	poli_8sides 12_whiteLine3.jpg	Medium_e21_stereo_44KHz.wav
3	115	4	3	2	I	1	0	822	0	poli_8sides 8_whiteLine3.jpg	Medium_e01_cut1_stereo_44KHz.wav
3	116	1	1	1	C	2	1	844	1	poli_8sides 16_whiteLine3.jpg	MediumLong_b10_cut2_L_stereo_44KHz.wav
3	117	3	3	2	I	1	0	1087	1	poli_8sides 12_whiteLine3.jpg	Medium_e01_cut1_stereo_44KHz.wav
3	118	4	4	2	I	1	0	838	0	poli_8sides 8_whiteLine3.jpg	Medium_e21_stereo_44KHz.wav
3	119	1	2	0	C	1	1	798	1	poli_8sides 16_whiteLine3.jpg	MediumLong_e17_cut2_stereo_44KHz.wav
3	120	2	1	0	C	1	1	916	1	poli_8sides 6_whiteLine3.jpg	MediumLong_b10_cut2_L_stereo_44KHz.wav
3	121	1	2	0	C	1	1	714	1	poli_8sides 16_whiteLine3.jpg	MediumLong_e17_cut2_stereo_44KHz.wav
3	122	2	1	0	C	1	1	1270	1	poli_8sides 6_whiteLine3.jpg	MediumLong_b10_cut2_L_stereo_44KHz.wav
3	123	4	4	2	I	1	0	995	1	poli_8sides 8_whiteLine3.jpg	Medium_e21_stereo_44KHz.wav
3	124	3	3	2	I	1	0	823	0	poli_8sides 12_whiteLine3.jpg	Medium_e01_cut1_stereo_44KHz.wav
3	125	4	3	2	I	1	0	897	1	poli_8sides 8_whiteLine3.jpg	Medium_e01_cut1_stereo_44KHz.wav
3	126	2	2	1	C	1	0	1170	0	poli_8sides 6_whiteLine3.jpg	MediumLong_e17_cut2_stereo_44KHz.wav
3	127	3	4	2	I	1	0	891	0	poli_8sides 12_whiteLine3.jpg	Medium_e21_stereo_44KHz.wav
3	128	1	1	1	C	2	1	940	1	poli_8sides 16_whiteLine3.jpg	MediumLong_b10_cut2_L_stereo_44KHz.wav
3	129	4	3	2	I	1	0	802	0	poli_8sides 8_whiteLine3.jpg	Medium_e01_cut1_stereo_44KHz.wav
3	130	2	1	0	C	1	1	796	1	poli_8sides 6_whiteLine3.jpg	MediumLong_b10_cut2_L_stereo_44KHz.wav
3	131	3	4	2	I	1	0	888	0	poli_8sides 12_whiteLine3.jpg	Medium_e21_stereo_44KHz.wav
3	132	1	2	0	C	1	1	906	1	poli_8sides 16_whiteLine3.jpg	MediumLong_e17_cut2_stereo_44KHz.wav
3	133	4	4	2	I	1	0	977	1	poli_8sides 8_whiteLine3.jpg	Medium_e21_stereo_44KHz.wav
3	134	2	2	1	C	2	1	890	1	poli_8sides 6_whiteLine3.jpg	MediumLong_e17_cut2_stereo_44KHz.wav
3	135	1	1	1	C	2	1	844	1	poli_8sides 16_whiteLine3.jpg	MediumLong_b10_cut2_L_stereo_44KHz.wav
3	136	3	3	2	I	1	0	896	1	poli_8sides 12_whiteLine3.jpg	Medium_e01_cut1_stereo_44KHz.wav
3	137	1	2	0	C	1	1	764	1	poli_8sides 16_whiteLine3.jpg	MediumLong_e17_cut2_stereo_44KHz.wav
3	138	3	3	2	I	1	0	627	1	poli_8sides 12_whiteLine3.jpg	Medium_e01_cut1_stereo_44KHz.wav
3	139	4	3	2	I	2	0	841	0	poli_8sides 8_whiteLine3.jpg	Medium_e01_cut1_stereo_44KHz.wav
3	140	2	2	1	C	2	1	887	1	poli_8sides 6_whiteLine3.jpg	MediumLong_e17_cut2_stereo_44KHz.wav
3	141	3	4	2	I	2	0	879	1	poli_8sides 12_whiteLine3.jpg	Medium_e21_stereo_44KHz.wav
3	142	2	1	0	C	1	1	897	1	poli_8sides 6_whiteLine3.jpg	MediumLong_b10_cut2_L_stereo_44KHz.wav
3	143	4	4	2	I	1	0	767	0	poli_8sides 8_whiteLine3.jpg	Medium_e21_stereo_44KHz.wav
3	144	1	1	1	C	2	1	955	1	poli_8sides 16_whiteLine3.jpg	MediumLong_b10_cut2_L_stereo_44KHz.wav
3	145	4	4	2	I	1	0	757	1	poli_8sides 8_whiteLine3.jpg	Medium_e21_stereo_44KHz.wav
3	146	3	4	2	I	2	0	825	1	poli_8sides 12_whiteLine3.jpg	Medium_e21_stereo_44KHz.wav
3	147	2	2	1	C	2	1	1110	1	poli_8sides 6_whiteLine3.jpg	MediumLong_e17_cut2_stereo_44KHz.wav
3	148	1	1	1	C	2	1	771	1	poli_8sides 16_whiteLine3.jpg	MediumLong_b10_cut2_L_stereo_44KHz.wav
3	149	3	3	2	I	1	0	853	0	poli_8sides 12_whiteLine3.jpg	Medium_e01_cut1_stereo_44KHz.wav
3	150	2	1	0	C	1	1	831	1	poli_8sides 6_whiteLine3.jpg	MediumLong_b10_cut2_L_stereo_44KHz.wav
3	151	4	3	2	I	2	0	1694	0	poli_8sides 8_whiteLine3.jpg	Medium_e01_cut1_stereo_44KHz.wav
3	152	1	2	0	C	1	1	796	1	poli_8sides 16_whiteLine3.jpg	MediumLong_e17_cut2_stereo_44KHz.wav
3	153	4	3	2	I	1	0	980	0	poli_8sides 8_whiteLine3.jpg	Medium_e01_cut1_stereo_44KHz.wav
3	154	1	1	1	C	2	1	771	1	poli_8sides 16_whiteLine3.jpg	MediumLong_b10_cut2_L_stereo_44KHz.wav
3	155	2	1	0	C	1	1	1002	1	poli_8sides 6_whiteLine3.jpg	MediumLong_b10_cut2_L_stereo_44KHz.wav
3	156	3	3	2	I	1	0	785	0	poli_8sides 12_whiteLine3.jpg	Medium_e01_cut1_stereo_44KHz.wav
3	157	2	2	1	C	2	1	872	1	poli_8sides 6_whiteLine3.jpg	MediumLong_e17_cut2_stereo_44KHz.wav
3	158	4	4	2	I	1	0	802	0	poli_8sides 8_whiteLine3.jpg	Medium_e21_stereo_44KHz.wav
3	159	3	4	2	I	2	0	1112	1	poli_8sides 12_whiteLine3.jpg	Medium_e21_stereo_44KHz.wav
3	160	1	2	0	C	1	1	735	1	poli_8sides 16_whiteLine3.jpg	MediumLong_e17_cut2_stereo_44KHz.wav
3	161	2	1	0	C	1	1	1024	1	poli_8sides 6_whiteLine3.jpg	MediumLong_b10_cut2_L_stereo_44KHz.wav
3	162	3	3	2	I	1	0	725	1	poli_8sides 12_whiteLine3.jpg	Medium_e01_cut1_stereo_44KHz.wav
3	163	4	3	2	I	2	0	797	0	poli_8sides 8_whiteLine3.jpg	Medium_e01_cut1_stereo_44KHz.wav
3	164	1	1	1	C	1	0	835	0	poli_8sides 16_whiteLine3.jpg	MediumLong_b10_cut2_L_stereo_44KHz.wav
3	165	4	4	2	I	1	0	780	0	poli_8sides 8_whiteLine3.jpg	Medium_e21_stereo_44KHz.wav
3	166	3	4	2	I	1	0	809	1	poli_8sides 12_whiteLine3.jpg	Medium_e21_stereo_44KHz.wav
3	167	1	2	0	C	1	1	940	1	poli_8sides 16_whiteLine3.jpg	MediumLong_e17_cut2_stereo_44KHz.wav
3	168	2	2	1	C	2	1	751	1	poli_8sides 6_whiteLine3.jpg	MediumLong_e17_cut2_stereo_44KHz.wav
3	169	3	3	2	I	1	0	833	0	poli_8sides 12_whiteLine3.jpg	Medium_e01_cut1_stereo_44KHz.wav
3	170	1	1	1	C	2	1	799	1	poli_8sides 16_whiteLine3.jpg	MediumLong_b10_cut2_L_stereo_44KHz.wav
3	171	4	4	2	I	1	0	758	1	poli_8sides 8_whiteLine3.jpg	Medium_e21_stereo_44KHz.wav
3	172	2	1	0	C	1	1	908	1	poli_8sides 6_whiteLine3.jpg	MediumLong_b10_cut2_L_stereo_44KHz.wav
3	173	1	2	0	C	1	1	554	1	poli_8sides 16_whiteLine3.jpg	MediumLong_e17_cut2_stereo_44KHz.wav
3	174	4	3	2	I	2	0	1026	1	poli_8sides 8_whiteLine3.jpg	Medium_e01_cut1_stereo_44KHz.wav
3	175	3	4	2	I	2	0	892	0	poli_8sides 12_whiteLine3.jpg	Medium_e21_stereo_44KHz.wav
3	176	2	2	1	C	2	1	846	1	poli_8sides 6_whiteLine3.jpg	MediumLong_e17_cut2_stereo_44KHz.wav
3	177	1	2	0	C	1	1	710	1	poli_8sides 16_whiteLine3.jpg	MediumLong_e17_cut2_stereo_44KHz.wav
3	178	3	4	2	I	1	0	1326	1	poli_8sides 12_whiteLine3.jpg	Medium_e21_stereo_44KHz.wav
3	179	2	2	1	C	2	1	769	1	poli_8sides 6_whiteLine3.jpg	MediumLong_e17_cut2_stereo_44KHz.wav
3	180	4	3	2	I	1	0	902	0	poli_8sides 8_whiteLine3.jpg	Medium_e01_cut1_stereo_44KHz.wav
3	181	3	3	2	I	1	0	755	1	poli_8sides 12_whiteLine3.jpg	Medium_e01_cut1_stereo_44KHz.wav
3	182	2	1	0	C	1	1	930	1	poli_8sides 6_whiteLine3.jpg	MediumLong_b10_cut2_L_stereo_44KHz.wav
3	183	4	4	2	I	1	0	837	0	poli_8sides 8_whiteLine3.jpg	Medium_e21_stereo_44KHz.wav
3	184	1	1	1	C	2	1	860	1	poli_8sides 16_whiteLine3.jpg	MediumLong_b10_cut2_L_stereo_44KHz.wav
3	185	3	3	2	I	1	0	858	1	poli_8sides 12_whiteLine3.jpg	Medium_e01_cut1_stereo_44KHz.wav
3	186	1	1	1	C	2	1	765	1	poli_8sides 16_whiteLine3.jpg	MediumLong_b10_cut2_L_stereo_44KHz.wav
3	187	2	1	0	C	1	1	768	1	poli_8sides 6_whiteLine3.jpg	MediumLong_b10_cut2_L_stereo_44KHz.wav
3	188	4	4	2	I	1	0	1253	1	poli_8sides 8_whiteLine3.jpg	Medium_e21_stereo_44KHz.wav
3	189	2	2	1	C	2	1	882	1	poli_8sides 6_whiteLine3.jpg	MediumLong_e17_cut2_stereo_44KHz.wav
3	190	1	2	0	C	1	1	657	1	poli_8sides 16_whiteLine3.jpg	MediumLong_e17_cut2_stereo_44KHz.wav
3	191	4	3	2	I	2	0	863	0	poli_8sides 8_whiteLine3.jpg	Medium_e01_cut1_stereo_44KHz.wav
3	192	3	4	2	I	1	0	878	1	poli_8sides 12_whiteLine3.jpg	Medium_e21_stereo_44KHz.wav
3	193	2	1	0	C	1	1	906	1	poli_8sides 6_whiteLine3.jpg	MediumLong_b10_cut2_L_stereo_44KHz.wav
3	194	4	3	2	I	1	0	890	1	poli_8sides 8_whiteLine3.jpg	Medium_e01_cut1_stereo_44KHz.wav
3	195	3	4	2	I	1	0	985	1	poli_8sides 12_whiteLine3.jpg	Medium_e21_stereo_44KHz.wav
3	196	1	2	0	C	1	1	873	1	poli_8sides 16_whiteLine3.jpg	MediumLong_e17_cut2_stereo_44KHz.wav
3	197	2	2	1	C	2	1	829	1	poli_8sides 6_whiteLine3.jpg	MediumLong_e17_cut2_stereo_44KHz.wav
3	198	4	4	2	I	1	0	856	1	poli_8sides 8_whiteLine3.jpg	Medium_e21_stereo_44KHz.wav
3	199	1	1	1	C	2	1	860	1	poli_8sides 16_whiteLine3.jpg	MediumLong_b10_cut2_L_stereo_44KHz.wav
3	200	3	3	2	I	1	0	721	0	poli_8sides 12_whiteLine3.jpg	Medium_e01_cut1_stereo_44KHz.wav
4	1	1	1	1	C	1	0	1027	0	poli_8sides 15_whiteLine3.jpg	Medium_e26_stereo_44KHz.wav
4	2	2	2	1	C	1	0	887	0	poli_8sides 1_whiteLine3.jpg	Medium_e13_stereo_44KHz.wav
4	3	4	4	2	I	2	0	934	0	poli_8sides 10_whiteLine3.jpg	MediumLong_e04_stereo_44KHz.wav
4	4	3	4	2	I	2	0	743	0	poli_8sides 3_whiteLine3.jpg	MediumLong_e04_stereo_44KHz.wav
4	5	4	3	2	I	2	0	776	0	poli_8sides 10_whiteLine3.jpg	MediumLong_e19_stereo_44KHz.wav
4	6	2	1	0	C	1	1	837	1	poli_8sides 1_whiteLine3.jpg	Medium_e26_stereo_44KHz.wav
4	7	1	2	0	C	1	1	1570	1	poli_8sides 15_whiteLine3.jpg	Medium_e13_stereo_44KHz.wav
4	8	3	3	2	I	1	0	898	1	poli_8sides 3_whiteLine3.jpg	MediumLong_e19_stereo_44KHz.wav
4	9	1	1	1	C	1	0	802	0	poli_8sides 15_whiteLine3.jpg	Medium_e26_stereo_44KHz.wav
4	10	2	1	0	C	2	0	689	0	poli_8sides 1_whiteLine3.jpg	Medium_e26_stereo_44KHz.wav
4	11	3	4	2	I	1	0	654	1	poli_8sides 3_whiteLine3.jpg	MediumLong_e04_stereo_44KHz.wav
4	12	4	3	2	I	2	0	810	1	poli_8sides 10_whiteLine3.jpg	MediumLong_e19_stereo_44KHz.wav
4	13	3	3	2	I	2	0	1014	0	poli_8sides 3_whiteLine3.jpg	MediumLong_e19_stereo_44KHz.wav
4	14	2	2	1	C	1	0	1203	0	poli_8sides 1_whiteLine3.jpg	Medium_e13_stereo_44KHz.wav
4	15	1	2	0	C	1	1	1044	1	poli_8sides 15_whiteLine3.jpg	Medium_e13_stereo_44KHz.wav
4	16	4	4	2	I	1	0	1033	0	poli_8sides 10_whiteLine3.jpg	MediumLong_e04_stereo_44KHz.wav
4	17	1	1	1	C	2	1	862	1	poli_8sides 15_whiteLine3.jpg	Medium_e26_stereo_44KHz.wav
4	18	3	4	2	I	2	0	1062	0	poli_8sides 3_whiteLine3.jpg	MediumLong_e04_stereo_44KHz.wav
4	19	2	2	1	C	1	0	910	0	poli_8sides 1_whiteLine3.jpg	Medium_e13_stereo_44KHz.wav
4	20	4	3	2	I	2	0	470	1	poli_8sides 10_whiteLine3.jpg	MediumLong_e19_stereo_44KHz.wav
4	21	2	1	0	C	2	0	291	0	poli_8sides 1_whiteLine3.jpg	Medium_e26_stereo_44KHz.wav
4	22	3	3	2	I	1	0	706	0	poli_8sides 3_whiteLine3.jpg	MediumLong_e19_stereo_44KHz.wav
4	23	4	4	2	I	1	0	504	0	poli_8sides 10_whiteLine3.jpg	MediumLong_e04_stereo_44KHz.wav
4	24	1	2	0	C	1	1	289	1	poli_8sides 15_whiteLine3.jpg	Medium_e13_stereo_44KHz.wav
4	25	3	4	2	I	1	0	904	0	poli_8sides 3_whiteLine3.jpg	MediumLong_e04_stereo_44KHz.wav
4	26	2	1	0	C	2	0	1064	0	poli_8sides 1_whiteLine3.jpg	Medium_e26_stereo_44KHz.wav
4	27	1	2	0	C	2	0	958	0	poli_8sides 15_whiteLine3.jpg	Medium_e13_stereo_44KHz.wav
4	28	4	4	2	I	1	0	918	1	poli_8sides 10_whiteLine3.jpg	MediumLong_e04_stereo_44KHz.wav
4	29	1	1	1	C	1	0	1089	0	poli_8sides 15_whiteLine3.jpg	Medium_e26_stereo_44KHz.wav
4	30	2	2	1	C	2	1	1381	1	poli_8sides 1_whiteLine3.jpg	Medium_e13_stereo_44KHz.wav
4	31	3	3	2	I	1	0	962	0	poli_8sides 3_whiteLine3.jpg	MediumLong_e19_stereo_44KHz.wav
4	32	4	3	2	I	1	0	790	0	poli_8sides 10_whiteLine3.jpg	MediumLong_e19_stereo_44KHz.wav
4	33	3	4	2	I	2	0	934	1	poli_8sides 3_whiteLine3.jpg	MediumLong_e04_stereo_44KHz.wav
4	34	4	4	2	I	1	0	1089	0	poli_8sides 10_whiteLine3.jpg	MediumLong_e04_stereo_44KHz.wav
4	35	2	1	0	C	2	0	794	0	poli_8sides 1_whiteLine3.jpg	Medium_e26_stereo_44KHz.wav
4	36	1	2	0	C	1	1	887	1	poli_8sides 15_whiteLine3.jpg	Medium_e13_stereo_44KHz.wav
4	37	3	3	2	I	1	0	898	1	poli_8sides 3_whiteLine3.jpg	MediumLong_e19_stereo_44KHz.wav
4	38	4	3	2	I	2	0	683	1	poli_8sides 10_whiteLine3.jpg	MediumLong_e19_stereo_44KHz.wav
4	39	2	2	1	C	1	0	819	0	poli_8sides 1_whiteLine3.jpg	Medium_e13_stereo_44KHz.wav
4	40	1	1	1	C	1	0	845	0	poli_8sides 15_whiteLine3.jpg	Medium_e26_stereo_44KHz.wav
4	41	4	4	2	I	1	0	760	1	poli_8sides 10_whiteLine3.jpg	MediumLong_e04_stereo_44KHz.wav
4	42	1	2	0	C	2	0	1318	0	poli_8sides 15_whiteLine3.jpg	Medium_e13_stereo_44KHz.wav
4	43	3	3	2	I	2	0	866	0	poli_8sides 3_whiteLine3.jpg	MediumLong_e19_stereo_44KHz.wav
4	44	2	2	1	C	1	0	1254	0	poli_8sides 1_whiteLine3.jpg	Medium_e13_stereo_44KHz.wav
4	45	1	1	1	C	2	1	976	1	poli_8sides 15_whiteLine3.jpg	Medium_e26_stereo_44KHz.wav
4	46	2	1	0	C	1	1	773	1	poli_8sides 1_whiteLine3.jpg	Medium_e26_stereo_44KHz.wav
4	47	3	4	2	I	2	0	945	0	poli_8sides 3_whiteLine3.jpg	MediumLong_e04_stereo_44KHz.wav
4	48	4	3	2	I	2	0	927	1	poli_8sides 10_whiteLine3.jpg	MediumLong_e19_stereo_44KHz.wav
4	49	2	2	1	C	1	0	937	0	poli_8sides 1_whiteLine3.jpg	Medium_e13_stereo_44KHz.wav
4	50	3	3	2	I	1	0	1086	0	poli_8sides 3_whiteLine3.jpg	MediumLong_e19_stereo_44KHz.wav
4	51	1	1	1	C	2	1	1005	1	poli_8sides 15_whiteLine3.jpg	Medium_e26_stereo_44KHz.wav
4	52	4	3	2	I	2	0	952	1	poli_8sides 10_whiteLine3.jpg	MediumLong_e19_stereo_44KHz.wav
4	53	1	2	0	C	1	1	930	1	poli_8sides 15_whiteLine3.jpg	Medium_e13_stereo_44KHz.wav
4	54	4	4	2	I	1	0	794	1	poli_8sides 10_whiteLine3.jpg	MediumLong_e04_stereo_44KHz.wav
4	55	2	1	0	C	1	1	958	1	poli_8sides 1_whiteLine3.jpg	Medium_e26_stereo_44KHz.wav
4	56	3	4	2	I	2	0	893	0	poli_8sides 3_whiteLine3.jpg	MediumLong_e04_stereo_44KHz.wav
4	57	1	1	1	C	1	0	1458	0	poli_8sides 15_whiteLine3.jpg	Medium_e26_stereo_44KHz.wav
4	58	3	3	2	I	1	0	1012	0	poli_8sides 3_whiteLine3.jpg	MediumLong_e19_stereo_44KHz.wav
4	59	2	2	1	C	2	1	1296	1	poli_8sides 1_whiteLine3.jpg	Medium_e13_stereo_44KHz.wav
4	60	4	4	2	I	1	0	681	1	poli_8sides 10_whiteLine3.jpg	MediumLong_e04_stereo_44KHz.wav
4	61	1	2	0	C	1	1	948	1	poli_8sides 15_whiteLine3.jpg	Medium_e13_stereo_44KHz.wav
4	62	4	3	2	I	2	0	875	0	poli_8sides 10_whiteLine3.jpg	MediumLong_e19_stereo_44KHz.wav
4	63	3	4	2	I	2	0	777	0	poli_8sides 3_whiteLine3.jpg	MediumLong_e04_stereo_44KHz.wav
4	64	2	1	0	C	1	1	790	1	poli_8sides 1_whiteLine3.jpg	Medium_e26_stereo_44KHz.wav
4	65	1	1	1	C	2	1	901	1	poli_8sides 15_whiteLine3.jpg	Medium_e26_stereo_44KHz.wav
4	66	3	4	2	I	2	0	748	1	poli_8sides 3_whiteLine3.jpg	MediumLong_e04_stereo_44KHz.wav
4	67	2	2	1	C	1	0	878	0	poli_8sides 1_whiteLine3.jpg	Medium_e13_stereo_44KHz.wav
4	68	4	3	2	I	2	0	1386	1	poli_8sides 10_whiteLine3.jpg	MediumLong_e19_stereo_44KHz.wav
4	69	3	3	2	I	1	0	1060	0	poli_8sides 3_whiteLine3.jpg	MediumLong_e19_stereo_44KHz.wav
4	70	1	2	0	C	1	1	871	1	poli_8sides 15_whiteLine3.jpg	Medium_e13_stereo_44KHz.wav
4	71	2	1	0	C	1	1	791	1	poli_8sides 1_whiteLine3.jpg	Medium_e26_stereo_44KHz.wav
4	72	4	4	2	I	1	0	785	1	poli_8sides 10_whiteLine3.jpg	MediumLong_e04_stereo_44KHz.wav
4	73	2	2	1	C	2	1	1082	1	poli_8sides 1_whiteLine3.jpg	Medium_e13_stereo_44KHz.wav
4	74	1	1	1	C	2	1	900	1	poli_8sides 15_whiteLine3.jpg	Medium_e26_stereo_44KHz.wav
4	75	4	3	2	I	2	0	975	0	poli_8sides 10_whiteLine3.jpg	MediumLong_e19_stereo_44KHz.wav
4	76	3	4	2	I	2	0	931	1	poli_8sides 3_whiteLine3.jpg	MediumLong_e04_stereo_44KHz.wav
4	77	1	2	0	C	1	1	885	1	poli_8sides 15_whiteLine3.jpg	Medium_e13_stereo_44KHz.wav
4	78	3	3	2	I	2	0	1118	1	poli_8sides 3_whiteLine3.jpg	MediumLong_e19_stereo_44KHz.wav
4	79	4	4	2	I	1	0	645	0	poli_8sides 10_whiteLine3.jpg	MediumLong_e04_stereo_44KHz.wav
4	80	2	1	0	C	1	1	1005	1	poli_8sides 1_whiteLine3.jpg	Medium_e26_stereo_44KHz.wav
4	81	1	1	1	C	2	1	868	1	poli_8sides 15_whiteLine3.jpg	Medium_e26_stereo_44KHz.wav
4	82	3	3	2	I	1	0	998	0	poli_8sides 3_whiteLine3.jpg	MediumLong_e19_stereo_44KHz.wav
4	83	4	4	2	I	1	0	783	1	poli_8sides 10_whiteLine3.jpg	MediumLong_e04_stereo_44KHz.wav
4	84	2	1	0	C	1	1	912	1	poli_8sides 1_whiteLine3.jpg	Medium_e26_stereo_44KHz.wav
4	85	3	4	2	I	1	0	774	0	poli_8sides 3_whiteLine3.jpg	MediumLong_e04_stereo_44KHz.wav
4	86	4	3	2	I	2	0	1012	1	poli_8sides 10_whiteLine3.jpg	MediumLong_e19_stereo_44KHz.wav
4	87	2	2	1	C	1	0	737	0	poli_8sides 1_whiteLine3.jpg	Medium_e13_stereo_44KHz.wav
4	88	1	2	0	C	1	1	775	1	poli_8sides 15_whiteLine3.jpg	Medium_e13_stereo_44KHz.wav
4	89	3	4	2	I	2	0	961	1	poli_8sides 3_whiteLine3.jpg	MediumLong_e04_stereo_44KHz.wav
4	90	2	2	1	C	2	1	905	1	poli_8sides 1_whiteLine3.jpg	Medium_e13_stereo_44KHz.wav
4	91	1	1	1	C	2	1	825	1	poli_8sides 15_whiteLine3.jpg	Medium_e26_stereo_44KHz.wav
4	92	4	4	2	I	1	0	800	0	poli_8sides 10_whiteLine3.jpg	MediumLong_e04_stereo_44KHz.wav
4	93	3	3	2	I	2	0	1160	1	poli_8sides 3_whiteLine3.jpg	MediumLong_e19_stereo_44KHz.wav
4	94	1	2	0	C	1	1	851	1	poli_8sides 15_whiteLine3.jpg	Medium_e13_stereo_44KHz.wav
4	95	4	3	2	I	2	0	1392	0	poli_8sides 10_whiteLine3.jpg	MediumLong_e19_stereo_44KHz.wav
4	96	2	1	0	C	1	1	1277	1	poli_8sides 1_whiteLine3.jpg	Medium_e26_stereo_44KHz.wav
4	97	4	3	2	I	1	0	995	0	poli_8sides 10_whiteLine3.jpg	MediumLong_e19_stereo_44KHz.wav
4	98	1	2	0	C	1	1	989	1	poli_8sides 15_whiteLine3.jpg	Medium_e13_stereo_44KHz.wav
4	99	2	2	1	C	2	1	965	1	poli_8sides 1_whiteLine3.jpg	Medium_e13_stereo_44KHz.wav
4	100	3	3	2	I	2	0	1305	0	poli_8sides 3_whiteLine3.jpg	MediumLong_e19_stereo_44KHz.wav
4	101	2	1	0	C	1	1	1258	1	poli_8sides 1_whiteLine3.jpg	Medium_e26_stereo_44KHz.wav
4	102	1	1	1	C	2	1	834	1	poli_8sides 15_whiteLine3.jpg	Medium_e26_stereo_44KHz.wav
4	103	4	4	2	I	1	0	819	1	poli_8sides 10_whiteLine3.jpg	MediumLong_e04_stereo_44KHz.wav
4	104	3	4	2	I	2	0	680	1	poli_8sides 3_whiteLine3.jpg	MediumLong_e04_stereo_44KHz.wav
4	105	1	1	1	C	2	1	1134	1	poli_8sides 15_whiteLine3.jpg	Medium_e26_stereo_44KHz.wav
4	106	4	4	2	I	2	0	943	1	poli_8sides 10_whiteLine3.jpg	MediumLong_e04_stereo_44KHz.wav
4	107	3	4	2	I	2	0	982	0	poli_8sides 3_whiteLine3.jpg	MediumLong_e04_stereo_44KHz.wav
4	108	2	2	1	C	2	1	1291	1	poli_8sides 1_whiteLine3.jpg	Medium_e13_stereo_44KHz.wav
4	109	4	3	2	I	2	0	1198	0	poli_8sides 10_whiteLine3.jpg	MediumLong_e19_stereo_44KHz.wav
4	110	2	1	0	C	1	1	1107	1	poli_8sides 1_whiteLine3.jpg	Medium_e26_stereo_44KHz.wav
4	111	1	2	0	C	1	1	928	1	poli_8sides 15_whiteLine3.jpg	Medium_e13_stereo_44KHz.wav
4	112	3	3	2	I	1	0	995	0	poli_8sides 3_whiteLine3.jpg	MediumLong_e19_stereo_44KHz.wav
4	113	4	3	2	I	1	0	515	1	poli_8sides 10_whiteLine3.jpg	MediumLong_e19_stereo_44KHz.wav
4	114	1	1	1	C	2	1	1258	1	poli_8sides 15_whiteLine3.jpg	Medium_e26_stereo_44KHz.wav
4	115	3	4	2	I	1	0	1080	0	poli_8sides 3_whiteLine3.jpg	MediumLong_e04_stereo_44KHz.wav
4	116	2	2	1	C	2	1	994	1	poli_8sides 1_whiteLine3.jpg	Medium_e13_stereo_44KHz.wav
4	117	1	2	0	C	1	1	674	1	poli_8sides 15_whiteLine3.jpg	Medium_e13_stereo_44KHz.wav
4	118	2	1	0	C	1	1	1199	1	poli_8sides 1_whiteLine3.jpg	Medium_e26_stereo_44KHz.wav
4	119	4	4	2	I	1	0	849	0	poli_8sides 10_whiteLine3.jpg	MediumLong_e04_stereo_44KHz.wav
4	120	3	3	2	I	1	0	966	1	poli_8sides 3_whiteLine3.jpg	MediumLong_e19_stereo_44KHz.wav
4	121	4	4	2	I	1	0	680	1	poli_8sides 10_whiteLine3.jpg	MediumLong_e04_stereo_44KHz.wav
4	122	2	2	1	C	1	0	1052	0	poli_8sides 1_whiteLine3.jpg	Medium_e13_stereo_44KHz.wav
4	123	1	1	1	C	2	1	1283	1	poli_8sides 15_whiteLine3.jpg	Medium_e26_stereo_44KHz.wav
4	124	3	3	2	I	1	0	1082	1	poli_8sides 3_whiteLine3.jpg	MediumLong_e19_stereo_44KHz.wav
4	125	4	3	2	I	2	0	963	0	poli_8sides 10_whiteLine3.jpg	MediumLong_e19_stereo_44KHz.wav
4	126	3	4	2	I	1	0	872	1	poli_8sides 3_whiteLine3.jpg	MediumLong_e04_stereo_44KHz.wav
4	127	1	2	0	C	1	1	939	1	poli_8sides 15_whiteLine3.jpg	Medium_e13_stereo_44KHz.wav
4	128	2	1	0	C	1	1	774	1	poli_8sides 1_whiteLine3.jpg	Medium_e26_stereo_44KHz.wav
4	129	3	3	2	I	1	0	986	0	poli_8sides 3_whiteLine3.jpg	MediumLong_e19_stereo_44KHz.wav
4	130	4	4	2	I	1	0	755	1	poli_8sides 10_whiteLine3.jpg	MediumLong_e04_stereo_44KHz.wav
4	131	1	2	0	C	1	1	716	1	poli_8sides 15_whiteLine3.jpg	Medium_e13_stereo_44KHz.wav
4	132	2	1	0	C	1	1	734	1	poli_8sides 1_whiteLine3.jpg	Medium_e26_stereo_44KHz.wav
4	133	3	4	2	I	2	0	1125	1	poli_8sides 3_whiteLine3.jpg	MediumLong_e04_stereo_44KHz.wav
4	134	1	1	1	C	2	1	1048	1	poli_8sides 15_whiteLine3.jpg	Medium_e26_stereo_44KHz.wav
4	135	4	3	2	I	2	0	1084	1	poli_8sides 10_whiteLine3.jpg	MediumLong_e19_stereo_44KHz.wav
4	136	2	2	1	C	2	1	917	1	poli_8sides 1_whiteLine3.jpg	Medium_e13_stereo_44KHz.wav
4	137	3	3	2	I	1	0	815	0	poli_8sides 3_whiteLine3.jpg	MediumLong_e19_stereo_44KHz.wav
4	138	4	4	2	I	1	0	778	1	poli_8sides 10_whiteLine3.jpg	MediumLong_e04_stereo_44KHz.wav
4	139	1	2	0	C	1	1	968	1	poli_8sides 15_whiteLine3.jpg	Medium_e13_stereo_44KHz.wav
4	140	2	2	1	C	2	1	677	1	poli_8sides 1_whiteLine3.jpg	Medium_e13_stereo_44KHz.wav
4	141	4	3	2	I	2	0	855	0	poli_8sides 10_whiteLine3.jpg	MediumLong_e19_stereo_44KHz.wav
4	142	1	1	1	C	2	1	986	1	poli_8sides 15_whiteLine3.jpg	Medium_e26_stereo_44KHz.wav
4	143	2	1	0	C	1	1	872	1	poli_8sides 1_whiteLine3.jpg	Medium_e26_stereo_44KHz.wav
4	144	3	4	2	I	1	0	630	1	poli_8sides 3_whiteLine3.jpg	MediumLong_e04_stereo_44KHz.wav
4	145	1	2	0	C	1	1	919	1	poli_8sides 15_whiteLine3.jpg	Medium_e13_stereo_44KHz.wav
4	146	4	3	2	I	2	0	793	1	poli_8sides 10_whiteLine3.jpg	MediumLong_e19_stereo_44KHz.wav
4	147	2	2	1	C	2	1	933	1	poli_8sides 1_whiteLine3.jpg	Medium_e13_stereo_44KHz.wav
4	148	3	3	2	I	1	0	888	0	poli_8sides 3_whiteLine3.jpg	MediumLong_e19_stereo_44KHz.wav
4	149	1	1	1	C	2	1	787	1	poli_8sides 15_whiteLine3.jpg	Medium_e26_stereo_44KHz.wav
4	150	4	4	2	I	1	0	867	1	poli_8sides 10_whiteLine3.jpg	MediumLong_e04_stereo_44KHz.wav
4	151	3	4	2	I	2	0	877	1	poli_8sides 3_whiteLine3.jpg	MediumLong_e04_stereo_44KHz.wav
4	152	2	1	0	C	1	1	1213	1	poli_8sides 1_whiteLine3.jpg	Medium_e26_stereo_44KHz.wav
4	153	1	2	0	C	2	0	960	0	poli_8sides 15_whiteLine3.jpg	Medium_e13_stereo_44KHz.wav
4	154	3	3	2	I	1	0	990	0	poli_8sides 3_whiteLine3.jpg	MediumLong_e19_stereo_44KHz.wav
4	155	4	4	2	I	1	0	619	1	poli_8sides 10_whiteLine3.jpg	MediumLong_e04_stereo_44KHz.wav
4	156	2	2	1	C	2	1	937	1	poli_8sides 1_whiteLine3.jpg	Medium_e13_stereo_44KHz.wav
4	157	3	4	2	I	2	0	1652	0	poli_8sides 3_whiteLine3.jpg	MediumLong_e04_stereo_44KHz.wav
4	158	2	1	0	C	1	1	1256	1	poli_8sides 1_whiteLine3.jpg	Medium_e26_stereo_44KHz.wav
4	159	4	3	2	I	2	0	1152	1	poli_8sides 10_whiteLine3.jpg	MediumLong_e19_stereo_44KHz.wav
4	160	1	1	1	C	2	1	820	1	poli_8sides 15_whiteLine3.jpg	Medium_e26_stereo_44KHz.wav
4	161	2	2	1	C	2	1	1340	1	poli_8sides 1_whiteLine3.jpg	Medium_e13_stereo_44KHz.wav
4	162	4	4	2	I	1	0	933	0	poli_8sides 10_whiteLine3.jpg	MediumLong_e04_stereo_44KHz.wav
4	163	1	2	0	C	2	0	883	0	poli_8sides 15_whiteLine3.jpg	Medium_e13_stereo_44KHz.wav
4	164	3	3	2	I	1	0	1015	1	poli_8sides 3_whiteLine3.jpg	MediumLong_e19_stereo_44KHz.wav
4	165	4	3	2	I	2	0	1250	0	poli_8sides 10_whiteLine3.jpg	MediumLong_e19_stereo_44KHz.wav
4	166	3	4	2	I	2	0	918	1	poli_8sides 3_whiteLine3.jpg	MediumLong_e04_stereo_44KHz.wav
4	167	2	1	0	C	1	1	894	1	poli_8sides 1_whiteLine3.jpg	Medium_e26_stereo_44KHz.wav
4	168	1	1	1	C	2	1	858	1	poli_8sides 15_whiteLine3.jpg	Medium_e26_stereo_44KHz.wav
4	169	4	3	2	I	2	0	1106	0	poli_8sides 10_whiteLine3.jpg	MediumLong_e19_stereo_44KHz.wav
4	170	3	4	2	I	2	0	1097	0	poli_8sides 3_whiteLine3.jpg	MediumLong_e04_stereo_44KHz.wav
4	171	2	1	0	C	1	1	794	1	poli_8sides 1_whiteLine3.jpg	Medium_e26_stereo_44KHz.wav
4	172	1	1	1	C	2	1	757	1	poli_8sides 15_whiteLine3.jpg	Medium_e26_stereo_44KHz.wav
4	173	3	3	2	I	1	0	922	1	poli_8sides 3_whiteLine3.jpg	MediumLong_e19_stereo_44KHz.wav
4	174	4	4	2	I	1	0	1058	1	poli_8sides 10_whiteLine3.jpg	MediumLong_e04_stereo_44KHz.wav
4	175	1	2	0	C	1	1	1546	1	poli_8sides 15_whiteLine3.jpg	Medium_e13_stereo_44KHz.wav
4	176	2	2	1	C	2	1	682	1	poli_8sides 1_whiteLine3.jpg	Medium_e13_stereo_44KHz.wav
4	177	1	2	0	C	1	1	964	1	poli_8sides 15_whiteLine3.jpg	Medium_e13_stereo_44KHz.wav
4	178	3	4	2	I	2	0	936	1	poli_8sides 3_whiteLine3.jpg	MediumLong_e04_stereo_44KHz.wav
4	179	2	1	0	C	1	1	1267	1	poli_8sides 1_whiteLine3.jpg	Medium_e26_stereo_44KHz.wav
4	180	4	3	2	I	2	0	924	0	poli_8sides 10_whiteLine3.jpg	MediumLong_e19_stereo_44KHz.wav
4	181	3	3	2	I	1	0	972	1	poli_8sides 3_whiteLine3.jpg	MediumLong_e19_stereo_44KHz.wav
4	182	4	4	2	I	1	0	915	0	poli_8sides 10_whiteLine3.jpg	MediumLong_e04_stereo_44KHz.wav
4	183	2	2	1	C	2	1	923	1	poli_8sides 1_whiteLine3.jpg	Medium_e13_stereo_44KHz.wav
4	184	1	1	1	C	2	1	881	1	poli_8sides 15_whiteLine3.jpg	Medium_e26_stereo_44KHz.wav
4	185	3	3	2	I	2	0	882	1	poli_8sides 3_whiteLine3.jpg	MediumLong_e19_stereo_44KHz.wav
4	186	4	4	2	I	1	0	812	0	poli_8sides 10_whiteLine3.jpg	MediumLong_e04_stereo_44KHz.wav
4	187	2	1	0	C	1	1	1444	1	poli_8sides 1_whiteLine3.jpg	Medium_e26_stereo_44KHz.wav
4	188	1	2	0	C	1	1	1159	1	poli_8sides 15_whiteLine3.jpg	Medium_e13_stereo_44KHz.wav
4	189	4	3	2	I	2	0	771	0	poli_8sides 10_whiteLine3.jpg	MediumLong_e19_stereo_44KHz.wav
4	190	2	2	1	C	2	1	989	1	poli_8sides 1_whiteLine3.jpg	Medium_e13_stereo_44KHz.wav
4	191	1	1	1	C	2	1	1029	1	poli_8sides 15_whiteLine3.jpg	Medium_e26_stereo_44KHz.wav
4	192	3	4	2	I	1	0	880	1	poli_8sides 3_whiteLine3.jpg	MediumLong_e04_stereo_44KHz.wav
4	193	1	2	0	C	1	1	1151	1	poli_8sides 15_whiteLine3.jpg	Medium_e13_stereo_44KHz.wav
4	194	3	4	2	I	1	0	769	1	poli_8sides 3_whiteLine3.jpg	MediumLong_e04_stereo_44KHz.wav
4	195	4	4	2	I	2	0	983	0	poli_8sides 10_whiteLine3.jpg	MediumLong_e04_stereo_44KHz.wav
4	196	2	2	1	C	2	1	846	1	poli_8sides 1_whiteLine3.jpg	Medium_e13_stereo_44KHz.wav
4	197	1	1	1	C	2	1	669	1	poli_8sides 15_whiteLine3.jpg	Medium_e26_stereo_44KHz.wav
4	198	4	3	2	I	2	0	980	0	poli_8sides 10_whiteLine3.jpg	MediumLong_e19_stereo_44KHz.wav
4	199	2	1	0	C	1	1	1040	1	poli_8sides 1_whiteLine3.jpg	Medium_e26_stereo_44KHz.wav
4	200	3	3	2	I	1	0	761	1	poli_8sides 3_whiteLine3.jpg	MediumLong_e19_stereo_44KHz.wav
