block	trial	Vstim	Astim	match	C/I	resp	result	RT	fb	V-file	A-file
RL

0	1	2	4	0	C	0	0	0	0	Ⴞ	cut_g_stereo_44KHz.wav
0	2	1	2	0	C	1	0	785	0	Ⴋ	cut_ee_stereo_44KHz.wav
0	3	1	1	1	C	2	0	751	0	Ⴋ	cut_oo_stereo_44KHz.wav
0	4	2	3	1	C	1	1	1490	1	Ⴞ	cut_eeuw_stereo_44KHz.wav
0	5	2	3	1	C	2	0	911	0	Ⴞ	cut_eeuw_stereo_44KHz.wav
0	6	1	2	0	C	2	1	1014	1	Ⴋ	cut_ee_stereo_44KHz.wav
0	7	2	4	0	C	2	1	1243	1	Ⴞ	cut_g_stereo_44KHz.wav
0	8	1	1	1	C	1	1	779	1	Ⴋ	cut_oo_stereo_44KHz.wav
0	9	2	3	1	C	2	0	316	0	Ⴞ	cut_eeuw_stereo_44KHz.wav
0	10	1	2	0	C	2	1	887	1	Ⴋ	cut_ee_stereo_44KHz.wav
0	11	1	1	1	C	1	1	1826	1	Ⴋ	cut_oo_stereo_44KHz.wav
0	12	2	4	0	C	2	1	1464	1	Ⴞ	cut_g_stereo_44KHz.wav
0	13	2	3	1	C	1	1	922	1	Ⴞ	cut_eeuw_stereo_44KHz.wav
0	14	1	2	0	C	2	1	986	1	Ⴋ	cut_ee_stereo_44KHz.wav
0	15	1	1	1	C	1	1	1014	1	Ⴋ	cut_oo_stereo_44KHz.wav
0	16	2	4	0	C	2	1	1447	1	Ⴞ	cut_g_stereo_44KHz.wav
0	17	2	4	0	C	2	1	537	1	Ⴞ	cut_g_stereo_44KHz.wav
0	18	2	3	1	C	1	1	928	1	Ⴞ	cut_eeuw_stereo_44KHz.wav
0	19	1	1	1	C	2	0	734	0	Ⴋ	cut_oo_stereo_44KHz.wav
0	20	1	2	0	C	2	1	1153	1	Ⴋ	cut_ee_stereo_44KHz.wav
0	21	2	4	0	C	2	1	1193	1	Ⴞ	cut_g_stereo_44KHz.wav
0	22	1	1	1	C	1	1	904	1	Ⴋ	cut_oo_stereo_44KHz.wav
0	23	1	2	0	C	2	1	702	1	Ⴋ	cut_ee_stereo_44KHz.wav
0	24	2	3	1	C	1	1	1070	1	Ⴞ	cut_eeuw_stereo_44KHz.wav
0	25	1	1	1	C	1	1	984	1	Ⴋ	cut_oo_stereo_44KHz.wav
0	26	2	3	1	C	1	1	1277	1	Ⴞ	cut_eeuw_stereo_44KHz.wav
0	27	2	4	0	C	2	1	609	1	Ⴞ	cut_g_stereo_44KHz.wav
0	28	1	2	0	C	2	1	859	1	Ⴋ	cut_ee_stereo_44KHz.wav
0	29	1	1	1	C	1	1	1119	1	Ⴋ	cut_oo_stereo_44KHz.wav
0	30	1	2	0	C	2	1	693	1	Ⴋ	cut_ee_stereo_44KHz.wav
avg_resp = 1046
1	1	1	1	1	C	2	0	1678	0	Ⴟ	cut_n_stereo_44KHz.wav
1	2	3	4	2	I	2	0	1439	0	Ⴊ	cut_s_stereo_44KHz.wav
1	3	4	4	2	I	2	0	1288	1	Ⴂ	cut_s_stereo_44KHz.wav
1	4	2	2	1	C	2	0	1258	0	Ⴡ	cut_j_stereo_44KHz.wav
1	5	3	3	2	I	2	0	917	0	Ⴊ	cut_f_stereo_44KHz.wav
1	6	2	1	0	C	2	1	1472	1	Ⴡ	cut_n_stereo_44KHz.wav
1	7	4	3	2	I	2	0	1107	0	Ⴂ	cut_f_stereo_44KHz.wav
1	8	1	2	0	C	2	1	693	1	Ⴟ	cut_j_stereo_44KHz.wav
1	9	3	4	2	I	2	0	1007	1	Ⴊ	cut_s_stereo_44KHz.wav
1	10	2	2	1	C	2	0	1112	0	Ⴡ	cut_j_stereo_44KHz.wav
1	11	1	1	1	C	2	0	1080	0	Ⴟ	cut_n_stereo_44KHz.wav
1	12	4	3	2	I	2	0	1104	0	Ⴂ	cut_f_stereo_44KHz.wav
1	13	2	1	0	C	2	1	884	1	Ⴡ	cut_n_stereo_44KHz.wav
1	14	4	4	2	I	0	0	0	0	Ⴂ	cut_s_stereo_44KHz.wav
1	15	3	3	2	I	2	0	1545	0	Ⴊ	cut_f_stereo_44KHz.wav
1	16	1	2	0	C	2	1	1281	1	Ⴟ	cut_j_stereo_44KHz.wav
1	17	4	4	2	I	2	0	1941	0	Ⴂ	cut_s_stereo_44KHz.wav
1	18	2	1	0	C	2	1	1082	1	Ⴡ	cut_n_stereo_44KHz.wav
1	19	1	2	0	C	2	1	1465	1	Ⴟ	cut_j_stereo_44KHz.wav
1	20	3	3	2	I	2	0	1838	1	Ⴊ	cut_f_stereo_44KHz.wav
1	21	1	1	1	C	1	1	1658	1	Ⴟ	cut_n_stereo_44KHz.wav
1	22	2	2	1	C	2	0	937	0	Ⴡ	cut_j_stereo_44KHz.wav
1	23	3	4	2	I	2	0	1053	1	Ⴊ	cut_s_stereo_44KHz.wav
1	24	4	3	2	I	2	0	729	1	Ⴂ	cut_f_stereo_44KHz.wav
1	25	2	1	0	C	2	1	796	1	Ⴡ	cut_n_stereo_44KHz.wav
1	26	1	1	1	C	1	1	1036	1	Ⴟ	cut_n_stereo_44KHz.wav
1	27	4	3	2	I	1	0	1375	0	Ⴂ	cut_f_stereo_44KHz.wav
1	28	3	3	2	I	1	0	1212	0	Ⴊ	cut_f_stereo_44KHz.wav
1	29	2	2	1	C	2	0	910	0	Ⴡ	cut_j_stereo_44KHz.wav
1	30	1	2	0	C	2	1	806	1	Ⴟ	cut_j_stereo_44KHz.wav
1	31	4	4	2	I	0	0	0	0	Ⴂ	cut_s_stereo_44KHz.wav
1	32	3	4	2	I	2	0	1071	1	Ⴊ	cut_s_stereo_44KHz.wav
1	33	4	4	2	I	1	0	1100	0	Ⴂ	cut_s_stereo_44KHz.wav
1	34	3	3	2	I	2	0	810	0	Ⴊ	cut_f_stereo_44KHz.wav
1	35	1	1	1	C	0	0	0	0	Ⴟ	cut_n_stereo_44KHz.wav
1	36	2	1	0	C	2	1	1338	1	Ⴡ	cut_n_stereo_44KHz.wav
1	37	1	2	0	C	2	1	922	1	Ⴟ	cut_j_stereo_44KHz.wav
1	38	2	2	1	C	2	0	760	0	Ⴡ	cut_j_stereo_44KHz.wav
1	39	4	3	2	I	2	0	1171	0	Ⴂ	cut_f_stereo_44KHz.wav
1	40	3	4	2	I	1	0	1123	1	Ⴊ	cut_s_stereo_44KHz.wav
1	41	2	1	0	C	2	1	700	1	Ⴡ	cut_n_stereo_44KHz.wav
1	42	4	4	2	I	2	0	1210	0	Ⴂ	cut_s_stereo_44KHz.wav
1	43	1	1	1	C	1	1	948	1	Ⴟ	cut_n_stereo_44KHz.wav
1	44	3	4	2	I	2	0	896	0	Ⴊ	cut_s_stereo_44KHz.wav
1	45	4	3	2	I	1	0	1506	0	Ⴂ	cut_f_stereo_44KHz.wav
1	46	3	3	2	I	2	0	1149	1	Ⴊ	cut_f_stereo_44KHz.wav
1	47	2	2	1	C	1	1	894	1	Ⴡ	cut_j_stereo_44KHz.wav
1	48	1	2	0	C	2	1	1327	1	Ⴟ	cut_j_stereo_44KHz.wav
1	49	4	3	2	I	1	0	1832	1	Ⴂ	cut_f_stereo_44KHz.wav
1	50	2	2	1	C	1	1	1288	1	Ⴡ	cut_j_stereo_44KHz.wav
1	51	1	2	0	C	2	1	1208	1	Ⴟ	cut_j_stereo_44KHz.wav
1	52	3	4	2	I	2	0	1241	1	Ⴊ	cut_s_stereo_44KHz.wav
1	53	2	1	0	C	2	1	1394	1	Ⴡ	cut_n_stereo_44KHz.wav
1	54	4	4	2	I	1	0	1149	1	Ⴂ	cut_s_stereo_44KHz.wav
1	55	3	3	2	I	2	0	937	0	Ⴊ	cut_f_stereo_44KHz.wav
1	56	1	1	1	C	2	0	963	0	Ⴟ	cut_n_stereo_44KHz.wav
1	57	2	1	0	C	2	1	1430	1	Ⴡ	cut_n_stereo_44KHz.wav
1	58	4	4	2	I	1	0	1015	0	Ⴂ	cut_s_stereo_44KHz.wav
1	59	1	1	1	C	2	0	779	0	Ⴟ	cut_n_stereo_44KHz.wav
1	60	3	4	2	I	1	0	1956	0	Ⴊ	cut_s_stereo_44KHz.wav
1	61	2	2	1	C	1	1	1223	1	Ⴡ	cut_j_stereo_44KHz.wav
1	62	4	3	2	I	2	0	1474	0	Ⴂ	cut_f_stereo_44KHz.wav
1	63	1	2	0	C	2	1	1289	1	Ⴟ	cut_j_stereo_44KHz.wav
1	64	3	3	2	I	1	0	1638	1	Ⴊ	cut_f_stereo_44KHz.wav
1	65	4	3	2	I	1	0	1415	0	Ⴂ	cut_f_stereo_44KHz.wav
1	66	2	2	1	C	1	1	1417	1	Ⴡ	cut_j_stereo_44KHz.wav
1	67	3	3	2	I	2	0	1381	0	Ⴊ	cut_f_stereo_44KHz.wav
1	68	1	1	1	C	1	1	1290	1	Ⴟ	cut_n_stereo_44KHz.wav
1	69	3	4	2	I	2	0	1169	1	Ⴊ	cut_s_stereo_44KHz.wav
1	70	4	4	2	I	1	0	1140	0	Ⴂ	cut_s_stereo_44KHz.wav
1	71	1	2	0	C	0	0	0	0	Ⴟ	cut_j_stereo_44KHz.wav
1	72	2	1	0	C	2	1	1528	1	Ⴡ	cut_n_stereo_44KHz.wav
1	73	3	4	2	I	0	0	0	0	Ⴊ	cut_s_stereo_44KHz.wav
1	74	4	4	2	I	1	0	1151	0	Ⴂ	cut_s_stereo_44KHz.wav
1	75	2	2	1	C	2	0	1295	0	Ⴡ	cut_j_stereo_44KHz.wav
1	76	1	2	0	C	2	1	658	1	Ⴟ	cut_j_stereo_44KHz.wav
1	77	4	3	2	I	2	0	1870	0	Ⴂ	cut_f_stereo_44KHz.wav
1	78	1	1	1	C	2	0	816	0	Ⴟ	cut_n_stereo_44KHz.wav
1	79	3	3	2	I	2	0	711	1	Ⴊ	cut_f_stereo_44KHz.wav
1	80	2	1	0	C	2	1	1316	1	Ⴡ	cut_n_stereo_44KHz.wav
1	81	4	4	2	I	2	0	1200	1	Ⴂ	cut_s_stereo_44KHz.wav
1	82	2	2	1	C	1	1	1149	1	Ⴡ	cut_j_stereo_44KHz.wav
1	83	1	1	1	C	1	1	1571	1	Ⴟ	cut_n_stereo_44KHz.wav
1	84	3	4	2	I	2	0	719	1	Ⴊ	cut_s_stereo_44KHz.wav
1	85	4	3	2	I	2	0	1278	0	Ⴂ	cut_f_stereo_44KHz.wav
1	86	2	1	0	C	2	1	781	1	Ⴡ	cut_n_stereo_44KHz.wav
1	87	3	3	2	I	2	0	936	1	Ⴊ	cut_f_stereo_44KHz.wav
1	88	1	2	0	C	2	1	926	1	Ⴟ	cut_j_stereo_44KHz.wav
1	89	3	4	2	I	1	0	1593	1	Ⴊ	cut_s_stereo_44KHz.wav
1	90	4	4	2	I	2	0	1013	1	Ⴂ	cut_s_stereo_44KHz.wav
1	91	1	1	1	C	1	1	971	1	Ⴟ	cut_n_stereo_44KHz.wav
1	92	2	1	0	C	2	1	927	1	Ⴡ	cut_n_stereo_44KHz.wav
1	93	4	3	2	I	2	0	1029	1	Ⴂ	cut_f_stereo_44KHz.wav
1	94	3	3	2	I	1	0	1004	0	Ⴊ	cut_f_stereo_44KHz.wav
1	95	2	2	1	C	2	0	814	0	Ⴡ	cut_j_stereo_44KHz.wav
1	96	1	2	0	C	2	1	912	1	Ⴟ	cut_j_stereo_44KHz.wav
1	97	3	4	2	I	2	0	1137	0	Ⴊ	cut_s_stereo_44KHz.wav
1	98	2	2	1	C	1	1	1264	1	Ⴡ	cut_j_stereo_44KHz.wav
1	99	4	4	2	I	2	0	1295	1	Ⴂ	cut_s_stereo_44KHz.wav
1	100	1	2	0	C	2	1	1033	1	Ⴟ	cut_j_stereo_44KHz.wav
1	101	3	3	2	I	2	0	986	1	Ⴊ	cut_f_stereo_44KHz.wav
1	102	4	3	2	I	2	0	1067	0	Ⴂ	cut_f_stereo_44KHz.wav
1	103	1	1	1	C	1	1	1929	1	Ⴟ	cut_n_stereo_44KHz.wav
1	104	2	1	0	C	2	1	1043	1	Ⴡ	cut_n_stereo_44KHz.wav
1	105	1	1	1	C	1	1	1621	1	Ⴟ	cut_n_stereo_44KHz.wav
1	106	3	3	2	I	2	0	701	1	Ⴊ	cut_f_stereo_44KHz.wav
1	107	4	3	2	I	2	0	814	1	Ⴂ	cut_f_stereo_44KHz.wav
1	108	2	2	1	C	2	0	686	0	Ⴡ	cut_j_stereo_44KHz.wav
1	109	1	2	0	C	2	1	1004	1	Ⴟ	cut_j_stereo_44KHz.wav
1	110	3	4	2	I	2	0	1000	1	Ⴊ	cut_s_stereo_44KHz.wav
1	111	4	4	2	I	2	0	1207	1	Ⴂ	cut_s_stereo_44KHz.wav
1	112	2	1	0	C	2	1	1124	1	Ⴡ	cut_n_stereo_44KHz.wav
1	113	4	3	2	I	2	0	1803	1	Ⴂ	cut_f_stereo_44KHz.wav
1	114	3	3	2	I	2	0	940	0	Ⴊ	cut_f_stereo_44KHz.wav
1	115	2	1	0	C	2	1	1242	1	Ⴡ	cut_n_stereo_44KHz.wav
1	116	1	1	1	C	2	0	1201	0	Ⴟ	cut_n_stereo_44KHz.wav
1	117	3	4	2	I	2	0	1041	0	Ⴊ	cut_s_stereo_44KHz.wav
1	118	2	2	1	C	2	0	650	0	Ⴡ	cut_j_stereo_44KHz.wav
1	119	4	4	2	I	0	0	0	0	Ⴂ	cut_s_stereo_44KHz.wav
1	120	1	2	0	C	2	1	584	1	Ⴟ	cut_j_stereo_44KHz.wav
1	121	4	3	2	I	2	0	743	0	Ⴂ	cut_f_stereo_44KHz.wav
1	122	1	1	1	C	2	0	988	0	Ⴟ	cut_n_stereo_44KHz.wav
1	123	2	2	1	C	1	1	1021	1	Ⴡ	cut_j_stereo_44KHz.wav
1	124	3	4	2	I	2	0	1601	0	Ⴊ	cut_s_stereo_44KHz.wav
1	125	4	4	2	I	2	0	877	0	Ⴂ	cut_s_stereo_44KHz.wav
1	126	1	2	0	C	2	1	1319	1	Ⴟ	cut_j_stereo_44KHz.wav
1	127	2	1	0	C	2	1	715	1	Ⴡ	cut_n_stereo_44KHz.wav
1	128	3	3	2	I	2	0	1008	1	Ⴊ	cut_f_stereo_44KHz.wav
1	129	4	3	2	I	2	0	1255	0	Ⴂ	cut_f_stereo_44KHz.wav
1	130	2	1	0	C	2	1	1060	1	Ⴡ	cut_n_stereo_44KHz.wav
1	131	3	4	2	I	2	0	1208	0	Ⴊ	cut_s_stereo_44KHz.wav
1	132	1	2	0	C	2	1	1508	1	Ⴟ	cut_j_stereo_44KHz.wav
1	133	2	2	1	C	1	1	1923	1	Ⴡ	cut_j_stereo_44KHz.wav
1	134	1	1	1	C	1	1	1054	1	Ⴟ	cut_n_stereo_44KHz.wav
1	135	4	4	2	I	0	0	0	0	Ⴂ	cut_s_stereo_44KHz.wav
1	136	3	3	2	I	2	0	650	0	Ⴊ	cut_f_stereo_44KHz.wav
1	137	2	1	0	C	2	1	1010	1	Ⴡ	cut_n_stereo_44KHz.wav
1	138	4	4	2	I	2	0	1042	0	Ⴂ	cut_s_stereo_44KHz.wav
1	139	3	4	2	I	2	0	643	0	Ⴊ	cut_s_stereo_44KHz.wav
1	140	1	1	1	C	1	1	1936	1	Ⴟ	cut_n_stereo_44KHz.wav
1	141	4	3	2	I	2	0	425	1	Ⴂ	cut_f_stereo_44KHz.wav
1	142	2	2	1	C	1	1	1163	1	Ⴡ	cut_j_stereo_44KHz.wav
1	143	3	3	2	I	2	0	778	0	Ⴊ	cut_f_stereo_44KHz.wav
1	144	1	2	0	C	2	1	1239	1	Ⴟ	cut_j_stereo_44KHz.wav
1	145	4	3	2	I	2	0	1430	0	Ⴂ	cut_f_stereo_44KHz.wav
1	146	3	4	2	I	2	0	1085	1	Ⴊ	cut_s_stereo_44KHz.wav
1	147	1	2	0	C	2	1	1072	1	Ⴟ	cut_j_stereo_44KHz.wav
1	148	2	1	0	C	2	1	657	1	Ⴡ	cut_n_stereo_44KHz.wav
1	149	4	4	2	I	2	0	993	1	Ⴂ	cut_s_stereo_44KHz.wav
1	150	2	2	1	C	2	0	941	0	Ⴡ	cut_j_stereo_44KHz.wav
1	151	3	3	2	I	2	0	584	0	Ⴊ	cut_f_stereo_44KHz.wav
1	152	1	1	1	C	1	1	1233	1	Ⴟ	cut_n_stereo_44KHz.wav
1	153	2	2	1	C	1	1	1047	1	Ⴡ	cut_j_stereo_44KHz.wav
1	154	1	2	0	C	2	1	71	1	Ⴟ	cut_j_stereo_44KHz.wav
1	155	4	4	2	I	1	0	728	1	Ⴂ	cut_s_stereo_44KHz.wav
1	156	3	4	2	I	2	0	882	1	Ⴊ	cut_s_stereo_44KHz.wav
1	157	4	3	2	I	2	0	989	0	Ⴂ	cut_f_stereo_44KHz.wav
1	158	1	1	1	C	2	0	1208	0	Ⴟ	cut_n_stereo_44KHz.wav
1	159	3	3	2	I	2	0	367	0	Ⴊ	cut_f_stereo_44KHz.wav
1	160	2	1	0	C	2	1	723	1	Ⴡ	cut_n_stereo_44KHz.wav
1	161	3	4	2	I	2	0	1130	0	Ⴊ	cut_s_stereo_44KHz.wav
1	162	1	1	1	C	2	0	549	0	Ⴟ	cut_n_stereo_44KHz.wav
1	163	2	2	1	C	2	0	818	0	Ⴡ	cut_j_stereo_44KHz.wav
1	164	4	4	2	I	2	0	707	1	Ⴂ	cut_s_stereo_44KHz.wav
1	165	1	2	0	C	2	1	1305	1	Ⴟ	cut_j_stereo_44KHz.wav
1	166	4	3	2	I	2	0	1319	1	Ⴂ	cut_f_stereo_44KHz.wav
1	167	3	3	2	I	2	0	735	1	Ⴊ	cut_f_stereo_44KHz.wav
1	168	2	1	0	C	2	1	1440	1	Ⴡ	cut_n_stereo_44KHz.wav
1	169	3	4	2	I	2	0	850	1	Ⴊ	cut_s_stereo_44KHz.wav
1	170	2	1	0	C	2	1	712	1	Ⴡ	cut_n_stereo_44KHz.wav
1	171	1	2	0	C	2	1	1242	1	Ⴟ	cut_j_stereo_44KHz.wav
1	172	4	4	2	I	2	0	392	1	Ⴂ	cut_s_stereo_44KHz.wav
1	173	3	3	2	I	2	0	490	0	Ⴊ	cut_f_stereo_44KHz.wav
1	174	2	2	1	C	2	0	709	0	Ⴡ	cut_j_stereo_44KHz.wav
1	175	4	3	2	I	2	0	409	1	Ⴂ	cut_f_stereo_44KHz.wav
1	176	1	1	1	C	2	0	587	0	Ⴟ	cut_n_stereo_44KHz.wav
1	177	3	3	2	I	2	0	469	0	Ⴊ	cut_f_stereo_44KHz.wav
1	178	4	3	2	I	2	0	547	1	Ⴂ	cut_f_stereo_44KHz.wav
1	179	2	2	1	C	1	1	940	1	Ⴡ	cut_j_stereo_44KHz.wav
1	180	1	1	1	C	2	0	1833	0	Ⴟ	cut_n_stereo_44KHz.wav
1	181	2	1	0	C	2	1	1099	1	Ⴡ	cut_n_stereo_44KHz.wav
1	182	4	4	2	I	2	0	928	1	Ⴂ	cut_s_stereo_44KHz.wav
1	183	3	4	2	I	0	0	0	0	Ⴊ	cut_s_stereo_44KHz.wav
1	184	1	2	0	C	2	1	1083	1	Ⴟ	cut_j_stereo_44KHz.wav
1	185	2	1	0	C	2	1	1759	1	Ⴡ	cut_n_stereo_44KHz.wav
1	186	1	1	1	C	1	1	1119	1	Ⴟ	cut_n_stereo_44KHz.wav
1	187	3	4	2	I	2	0	655	0	Ⴊ	cut_s_stereo_44KHz.wav
1	188	4	4	2	I	2	0	1428	1	Ⴂ	cut_s_stereo_44KHz.wav
1	189	2	2	1	C	2	0	624	0	Ⴡ	cut_j_stereo_44KHz.wav
1	190	3	3	2	I	2	0	1019	1	Ⴊ	cut_f_stereo_44KHz.wav
1	191	1	2	0	C	2	1	405	1	Ⴟ	cut_j_stereo_44KHz.wav
1	192	4	3	2	I	2	0	993	1	Ⴂ	cut_f_stereo_44KHz.wav
1	193	3	3	2	I	2	0	544	1	Ⴊ	cut_f_stereo_44KHz.wav
1	194	4	4	2	I	2	0	593	0	Ⴂ	cut_s_stereo_44KHz.wav
1	195	1	1	1	C	1	1	1100	1	Ⴟ	cut_n_stereo_44KHz.wav
1	196	2	1	0	C	2	1	802	1	Ⴡ	cut_n_stereo_44KHz.wav
1	197	1	2	0	C	2	1	911	1	Ⴟ	cut_j_stereo_44KHz.wav
1	198	4	3	2	I	2	0	1024	1	Ⴂ	cut_f_stereo_44KHz.wav
1	199	3	4	2	I	2	0	860	0	Ⴊ	cut_s_stereo_44KHz.wav
1	200	2	2	1	C	2	0	924	0	Ⴡ	cut_j_stereo_44KHz.wav
2	1	3	4	2	I	2	0	1820	0	Ⴃ	cut_oei_stereo_44KHz.wav
2	2	2	2	1	C	2	0	1083	0	Ⴜ	cut_r_stereo_44KHz.wav
2	3	1	1	1	C	2	0	807	0	Ⴇ	cut_ei_stereo_44KHz.wav
2	4	4	4	2	I	2	0	717	1	Ⴁ	cut_oei_stereo_44KHz.wav
2	5	2	1	0	C	2	1	703	1	Ⴜ	cut_ei_stereo_44KHz.wav
2	6	3	3	2	I	2	0	756	0	Ⴃ	cut_ui_stereo_44KHz.wav
2	7	4	3	2	I	2	0	611	1	Ⴁ	cut_ui_stereo_44KHz.wav
2	8	1	2	0	C	2	1	781	1	Ⴇ	cut_r_stereo_44KHz.wav
2	9	2	1	0	C	2	1	1056	1	Ⴜ	cut_ei_stereo_44KHz.wav
2	10	3	4	2	I	2	0	124	1	Ⴃ	cut_oei_stereo_44KHz.wav
2	11	4	4	2	I	2	0	358	0	Ⴁ	cut_oei_stereo_44KHz.wav
2	12	1	2	0	C	2	1	408	1	Ⴇ	cut_r_stereo_44KHz.wav
2	13	3	3	2	I	2	0	311	0	Ⴃ	cut_ui_stereo_44KHz.wav
2	14	1	1	1	C	2	0	377	0	Ⴇ	cut_ei_stereo_44KHz.wav
2	15	4	3	2	I	2	0	835	1	Ⴁ	cut_ui_stereo_44KHz.wav
2	16	2	2	1	C	1	1	960	1	Ⴜ	cut_r_stereo_44KHz.wav
2	17	3	3	2	I	2	0	893	0	Ⴃ	cut_ui_stereo_44KHz.wav
2	18	2	1	0	C	2	1	336	1	Ⴜ	cut_ei_stereo_44KHz.wav
2	19	1	1	1	C	2	0	577	0	Ⴇ	cut_ei_stereo_44KHz.wav
2	20	4	3	2	I	2	0	375	0	Ⴁ	cut_ui_stereo_44KHz.wav
2	21	2	2	1	C	1	1	973	1	Ⴜ	cut_r_stereo_44KHz.wav
2	22	4	4	2	I	2	0	765	1	Ⴁ	cut_oei_stereo_44KHz.wav
2	23	3	4	2	I	2	0	445	1	Ⴃ	cut_oei_stereo_44KHz.wav
2	24	1	2	0	C	1	0	581	0	Ⴇ	cut_r_stereo_44KHz.wav
2	25	4	3	2	I	2	0	382	1	Ⴁ	cut_ui_stereo_44KHz.wav
2	26	2	1	0	C	2	1	404	1	Ⴜ	cut_ei_stereo_44KHz.wav
2	27	1	1	1	C	2	0	290	0	Ⴇ	cut_ei_stereo_44KHz.wav
2	28	3	3	2	I	1	0	287	0	Ⴃ	cut_ui_stereo_44KHz.wav
2	29	4	4	2	I	2	0	466	0	Ⴁ	cut_oei_stereo_44KHz.wav
2	30	2	2	1	C	2	0	373	0	Ⴜ	cut_r_stereo_44KHz.wav
2	31	1	2	0	C	1	0	103	0	Ⴇ	cut_r_stereo_44KHz.wav
2	32	3	4	2	I	1	0	612	0	Ⴃ	cut_oei_stereo_44KHz.wav
2	33	4	4	2	I	2	0	638	0	Ⴁ	cut_oei_stereo_44KHz.wav
2	34	1	2	0	C	2	1	1060	1	Ⴇ	cut_r_stereo_44KHz.wav
2	35	3	4	2	I	2	0	424	1	Ⴃ	cut_oei_stereo_44KHz.wav
2	36	2	2	1	C	2	0	172	0	Ⴜ	cut_r_stereo_44KHz.wav
2	37	1	1	1	C	1	1	952	1	Ⴇ	cut_ei_stereo_44KHz.wav
2	38	3	3	2	I	1	0	1015	0	Ⴃ	cut_ui_stereo_44KHz.wav
2	39	4	3	2	I	2	0	812	1	Ⴁ	cut_ui_stereo_44KHz.wav
2	40	2	1	0	C	2	1	911	1	Ⴜ	cut_ei_stereo_44KHz.wav
2	41	1	1	1	C	1	1	1018	1	Ⴇ	cut_ei_stereo_44KHz.wav
2	42	4	3	2	I	2	0	1012	0	Ⴁ	cut_ui_stereo_44KHz.wav
2	43	2	1	0	C	2	1	1679	1	Ⴜ	cut_ei_stereo_44KHz.wav
2	44	3	3	2	I	2	0	1037	0	Ⴃ	cut_ui_stereo_44KHz.wav
2	45	1	2	0	C	2	1	1726	1	Ⴇ	cut_r_stereo_44KHz.wav
2	46	4	4	2	I	1	0	942	0	Ⴁ	cut_oei_stereo_44KHz.wav
2	47	3	4	2	I	2	0	639	0	Ⴃ	cut_oei_stereo_44KHz.wav
2	48	2	2	1	C	2	0	878	0	Ⴜ	cut_r_stereo_44KHz.wav
2	49	1	1	1	C	2	0	805	0	Ⴇ	cut_ei_stereo_44KHz.wav
2	50	4	4	2	I	2	0	1491	0	Ⴁ	cut_oei_stereo_44KHz.wav
2	51	2	2	1	C	1	1	1446	1	Ⴜ	cut_r_stereo_44KHz.wav
2	52	3	3	2	I	2	0	895	1	Ⴃ	cut_ui_stereo_44KHz.wav
2	53	4	3	2	I	2	0	499	1	Ⴁ	cut_ui_stereo_44KHz.wav
2	54	2	1	0	C	2	1	722	1	Ⴜ	cut_ei_stereo_44KHz.wav
2	55	3	4	2	I	2	0	298	1	Ⴃ	cut_oei_stereo_44KHz.wav
2	56	1	2	0	C	2	1	277	1	Ⴇ	cut_r_stereo_44KHz.wav
2	57	3	3	2	I	2	0	452	0	Ⴃ	cut_ui_stereo_44KHz.wav
2	58	2	1	0	C	2	1	231	1	Ⴜ	cut_ei_stereo_44KHz.wav
2	59	4	3	2	I	2	0	291	0	Ⴁ	cut_ui_stereo_44KHz.wav
2	60	1	1	1	C	2	0	141	0	Ⴇ	cut_ei_stereo_44KHz.wav
2	61	4	4	2	I	2	0	494	0	Ⴁ	cut_oei_stereo_44KHz.wav
2	62	1	2	0	C	2	1	315	1	Ⴇ	cut_r_stereo_44KHz.wav
2	63	2	2	1	C	1	1	854	1	Ⴜ	cut_r_stereo_44KHz.wav
2	64	3	4	2	I	2	0	520	1	Ⴃ	cut_oei_stereo_44KHz.wav
2	65	1	2	0	C	2	1	300	1	Ⴇ	cut_r_stereo_44KHz.wav
2	66	2	1	0	C	2	1	515	1	Ⴜ	cut_ei_stereo_44KHz.wav
2	67	3	3	2	I	2	0	853	0	Ⴃ	cut_ui_stereo_44KHz.wav
2	68	4	4	2	I	2	0	749	1	Ⴁ	cut_oei_stereo_44KHz.wav
2	69	3	4	2	I	1	0	1172	0	Ⴃ	cut_oei_stereo_44KHz.wav
2	70	4	3	2	I	1	0	1609	1	Ⴁ	cut_ui_stereo_44KHz.wav
2	71	1	1	1	C	2	0	939	0	Ⴇ	cut_ei_stereo_44KHz.wav
2	72	2	2	1	C	1	1	1206	1	Ⴜ	cut_r_stereo_44KHz.wav
2	73	1	2	0	C	2	1	318	1	Ⴇ	cut_r_stereo_44KHz.wav
2	74	2	2	1	C	2	0	450	0	Ⴜ	cut_r_stereo_44KHz.wav
2	75	4	3	2	I	1	0	976	0	Ⴁ	cut_ui_stereo_44KHz.wav
2	76	3	4	2	I	2	0	765	1	Ⴃ	cut_oei_stereo_44KHz.wav
2	77	4	4	2	I	1	0	815	1	Ⴁ	cut_oei_stereo_44KHz.wav
2	78	3	3	2	I	2	0	818	1	Ⴃ	cut_ui_stereo_44KHz.wav
2	79	1	1	1	C	1	1	1744	1	Ⴇ	cut_ei_stereo_44KHz.wav
2	80	2	1	0	C	2	1	470	1	Ⴜ	cut_ei_stereo_44KHz.wav
2	81	1	2	0	C	2	1	753	1	Ⴇ	cut_r_stereo_44KHz.wav
2	82	2	1	0	C	1	0	757	0	Ⴜ	cut_ei_stereo_44KHz.wav
2	83	3	3	2	I	2	0	603	0	Ⴃ	cut_ui_stereo_44KHz.wav
2	84	4	4	2	I	2	0	557	0	Ⴁ	cut_oei_stereo_44KHz.wav
2	85	2	2	1	C	2	0	1299	0	Ⴜ	cut_r_stereo_44KHz.wav
2	86	1	1	1	C	2	0	1305	0	Ⴇ	cut_ei_stereo_44KHz.wav
2	87	3	4	2	I	2	0	640	1	Ⴃ	cut_oei_stereo_44KHz.wav
2	88	4	3	2	I	2	0	1534	1	Ⴁ	cut_ui_stereo_44KHz.wav
2	89	1	2	0	C	2	1	933	1	Ⴇ	cut_r_stereo_44KHz.wav
2	90	2	2	1	C	1	1	933	1	Ⴜ	cut_r_stereo_44KHz.wav
2	91	4	3	2	I	2	0	1281	0	Ⴁ	cut_ui_stereo_44KHz.wav
2	92	3	4	2	I	2	0	532	1	Ⴃ	cut_oei_stereo_44KHz.wav
2	93	2	1	0	C	2	1	761	1	Ⴜ	cut_ei_stereo_44KHz.wav
2	94	4	4	2	I	2	0	428	1	Ⴁ	cut_oei_stereo_44KHz.wav
2	95	1	1	1	C	1	1	1310	1	Ⴇ	cut_ei_stereo_44KHz.wav
2	96	3	3	2	I	2	0	1181	0	Ⴃ	cut_ui_stereo_44KHz.wav
2	97	2	1	0	C	1	0	1952	0	Ⴜ	cut_ei_stereo_44KHz.wav
2	98	3	3	2	I	2	0	508	1	Ⴃ	cut_ui_stereo_44KHz.wav
2	99	1	1	1	C	1	1	516	1	Ⴇ	cut_ei_stereo_44KHz.wav
2	100	4	3	2	I	2	0	263	0	Ⴁ	cut_ui_stereo_44KHz.wav
2	101	2	2	1	C	2	0	1750	0	Ⴜ	cut_r_stereo_44KHz.wav
2	102	3	4	2	I	2	0	552	0	Ⴃ	cut_oei_stereo_44KHz.wav
2	103	1	2	0	C	2	1	786	1	Ⴇ	cut_r_stereo_44KHz.wav
2	104	4	4	2	I	1	0	1257	0	Ⴁ	cut_oei_stereo_44KHz.wav
2	105	3	4	2	I	2	0	408	1	Ⴃ	cut_oei_stereo_44KHz.wav
2	106	1	2	0	C	2	1	757	1	Ⴇ	cut_r_stereo_44KHz.wav
2	107	2	2	1	C	1	1	938	1	Ⴜ	cut_r_stereo_44KHz.wav
2	108	4	3	2	I	2	0	540	0	Ⴁ	cut_ui_stereo_44KHz.wav
2	109	1	1	1	C	1	1	742	1	Ⴇ	cut_ei_stereo_44KHz.wav
2	110	4	4	2	I	2	0	282	1	Ⴁ	cut_oei_stereo_44KHz.wav
2	111	3	3	2	I	2	0	406	0	Ⴃ	cut_ui_stereo_44KHz.wav
2	112	2	1	0	C	1	0	398	0	Ⴜ	cut_ei_stereo_44KHz.wav
2	113	1	2	0	C	2	1	498	1	Ⴇ	cut_r_stereo_44KHz.wav
2	114	2	2	1	C	2	0	450	0	Ⴜ	cut_r_stereo_44KHz.wav
2	115	4	3	2	I	2	0	599	1	Ⴁ	cut_ui_stereo_44KHz.wav
2	116	3	3	2	I	2	0	633	1	Ⴃ	cut_ui_stereo_44KHz.wav
2	117	4	4	2	I	2	0	474	0	Ⴁ	cut_oei_stereo_44KHz.wav
2	118	2	1	0	C	2	1	313	1	Ⴜ	cut_ei_stereo_44KHz.wav
2	119	1	1	1	C	1	1	1074	1	Ⴇ	cut_ei_stereo_44KHz.wav
2	120	3	4	2	I	2	0	394	1	Ⴃ	cut_oei_stereo_44KHz.wav
2	121	4	4	2	I	2	0	385	1	Ⴁ	cut_oei_stereo_44KHz.wav
2	122	2	2	1	C	1	1	812	1	Ⴜ	cut_r_stereo_44KHz.wav
2	123	1	1	1	C	2	0	300	0	Ⴇ	cut_ei_stereo_44KHz.wav
2	124	3	4	2	I	2	0	572	1	Ⴃ	cut_oei_stereo_44KHz.wav
2	125	1	2	0	C	2	1	577	1	Ⴇ	cut_r_stereo_44KHz.wav
2	126	3	3	2	I	1	0	484	0	Ⴃ	cut_ui_stereo_44KHz.wav
2	127	4	3	2	I	2	0	316	0	Ⴁ	cut_ui_stereo_44KHz.wav
2	128	2	1	0	C	2	1	421	1	Ⴜ	cut_ei_stereo_44KHz.wav
2	129	1	1	1	C	2	0	508	0	Ⴇ	cut_ei_stereo_44KHz.wav
2	130	4	4	2	I	2	0	458	1	Ⴁ	cut_oei_stereo_44KHz.wav
2	131	3	4	2	I	1	0	616	1	Ⴃ	cut_oei_stereo_44KHz.wav
2	132	2	1	0	C	2	1	219	1	Ⴜ	cut_ei_stereo_44KHz.wav
2	133	1	2	0	C	1	0	464	0	Ⴇ	cut_r_stereo_44KHz.wav
2	134	3	3	2	I	2	0	448	1	Ⴃ	cut_ui_stereo_44KHz.wav
2	135	4	3	2	I	2	0	451	0	Ⴁ	cut_ui_stereo_44KHz.wav
2	136	2	2	1	C	2	0	494	0	Ⴜ	cut_r_stereo_44KHz.wav
2	137	3	3	2	I	2	0	607	1	Ⴃ	cut_ui_stereo_44KHz.wav
2	138	4	4	2	I	2	0	805	0	Ⴁ	cut_oei_stereo_44KHz.wav
2	139	1	2	0	C	2	1	727	1	Ⴇ	cut_r_stereo_44KHz.wav
2	140	2	2	1	C	1	1	792	1	Ⴜ	cut_r_stereo_44KHz.wav
2	141	3	4	2	I	2	0	687	1	Ⴃ	cut_oei_stereo_44KHz.wav
2	142	1	1	1	C	1	1	1067	1	Ⴇ	cut_ei_stereo_44KHz.wav
2	143	4	3	2	I	2	0	415	1	Ⴁ	cut_ui_stereo_44KHz.wav
2	144	2	1	0	C	2	1	453	1	Ⴜ	cut_ei_stereo_44KHz.wav
2	145	3	4	2	I	1	0	361	0	Ⴃ	cut_oei_stereo_44KHz.wav
2	146	1	2	0	C	2	1	622	1	Ⴇ	cut_r_stereo_44KHz.wav
2	147	2	1	0	C	2	1	571	1	Ⴜ	cut_ei_stereo_44KHz.wav
2	148	4	4	2	I	2	0	344	0	Ⴁ	cut_oei_stereo_44KHz.wav
2	149	2	2	1	C	1	1	1137	1	Ⴜ	cut_r_stereo_44KHz.wav
2	150	1	1	1	C	1	1	911	1	Ⴇ	cut_ei_stereo_44KHz.wav
2	151	3	3	2	I	2	0	617	1	Ⴃ	cut_ui_stereo_44KHz.wav
2	152	4	3	2	I	2	0	963	1	Ⴁ	cut_ui_stereo_44KHz.wav
2	153	3	3	2	I	2	0	567	1	Ⴃ	cut_ui_stereo_44KHz.wav
2	154	2	1	0	C	2	1	1065	1	Ⴜ	cut_ei_stereo_44KHz.wav
2	155	1	2	0	C	2	1	1440	1	Ⴇ	cut_r_stereo_44KHz.wav
2	156	4	4	2	I	2	0	326	1	Ⴁ	cut_oei_stereo_44KHz.wav
2	157	2	2	1	C	2	0	417	0	Ⴜ	cut_r_stereo_44KHz.wav
2	158	1	1	1	C	2	0	552	0	Ⴇ	cut_ei_stereo_44KHz.wav
2	159	4	3	2	I	2	0	724	1	Ⴁ	cut_ui_stereo_44KHz.wav
2	160	3	4	2	I	2	0	472	1	Ⴃ	cut_oei_stereo_44KHz.wav
2	161	4	4	2	I	2	0	498	1	Ⴁ	cut_oei_stereo_44KHz.wav
2	162	1	2	0	C	2	1	369	1	Ⴇ	cut_r_stereo_44KHz.wav
2	163	2	1	0	C	2	1	393	1	Ⴜ	cut_ei_stereo_44KHz.wav
2	164	3	3	2	I	2	0	265	1	Ⴃ	cut_ui_stereo_44KHz.wav
2	165	2	2	1	C	2	0	263	0	Ⴜ	cut_r_stereo_44KHz.wav
2	166	1	1	1	C	2	0	690	0	Ⴇ	cut_ei_stereo_44KHz.wav
2	167	3	4	2	I	2	0	1469	1	Ⴃ	cut_oei_stereo_44KHz.wav
2	168	4	3	2	I	2	0	726	0	Ⴁ	cut_ui_stereo_44KHz.wav
2	169	3	4	2	I	2	0	579	0	Ⴃ	cut_oei_stereo_44KHz.wav
2	170	2	1	0	C	2	1	982	1	Ⴜ	cut_ei_stereo_44KHz.wav
2	171	4	4	2	I	2	0	777	1	Ⴁ	cut_oei_stereo_44KHz.wav
2	172	1	1	1	C	2	0	297	0	Ⴇ	cut_ei_stereo_44KHz.wav
2	173	4	3	2	I	2	0	437	1	Ⴁ	cut_ui_stereo_44KHz.wav
2	174	2	2	1	C	2	0	243	0	Ⴜ	cut_r_stereo_44KHz.wav
2	175	1	2	0	C	2	1	324	1	Ⴇ	cut_r_stereo_44KHz.wav
2	176	3	3	2	I	2	0	244	0	Ⴃ	cut_ui_stereo_44KHz.wav
2	177	1	1	1	C	2	0	313	0	Ⴇ	cut_ei_stereo_44KHz.wav
2	178	2	2	1	C	2	0	455	0	Ⴜ	cut_r_stereo_44KHz.wav
2	179	3	3	2	I	2	0	519	0	Ⴃ	cut_ui_stereo_44KHz.wav
2	180	4	3	2	I	2	0	255	0	Ⴁ	cut_ui_stereo_44KHz.wav
2	181	2	1	0	C	2	1	911	1	Ⴜ	cut_ei_stereo_44KHz.wav
2	182	4	4	2	I	2	0	720	0	Ⴁ	cut_oei_stereo_44KHz.wav
2	183	1	2	0	C	2	1	701	1	Ⴇ	cut_r_stereo_44KHz.wav
2	184	3	4	2	I	2	0	279	0	Ⴃ	cut_oei_stereo_44KHz.wav
2	185	4	4	2	I	2	0	349	0	Ⴁ	cut_oei_stereo_44KHz.wav
2	186	1	2	0	C	2	1	799	1	Ⴇ	cut_r_stereo_44KHz.wav
2	187	2	1	0	C	2	1	897	1	Ⴜ	cut_ei_stereo_44KHz.wav
2	188	3	3	2	I	2	0	591	1	Ⴃ	cut_ui_stereo_44KHz.wav
2	189	1	1	1	C	2	0	427	0	Ⴇ	cut_ei_stereo_44KHz.wav
2	190	3	4	2	I	2	0	468	0	Ⴃ	cut_oei_stereo_44KHz.wav
2	191	2	2	1	C	2	0	428	0	Ⴜ	cut_r_stereo_44KHz.wav
2	192	4	3	2	I	2	0	428	1	Ⴁ	cut_ui_stereo_44KHz.wav
2	193	3	3	2	I	2	0	567	0	Ⴃ	cut_ui_stereo_44KHz.wav
2	194	1	1	1	C	2	0	478	0	Ⴇ	cut_ei_stereo_44KHz.wav
2	195	2	1	0	C	2	1	762	1	Ⴜ	cut_ei_stereo_44KHz.wav
2	196	4	3	2	I	2	0	546	0	Ⴁ	cut_ui_stereo_44KHz.wav
2	197	2	2	1	C	2	0	584	0	Ⴜ	cut_r_stereo_44KHz.wav
2	198	1	2	0	C	2	1	279	1	Ⴇ	cut_r_stereo_44KHz.wav
2	199	4	4	2	I	2	0	472	1	Ⴁ	cut_oei_stereo_44KHz.wav
2	200	3	4	2	I	2	0	338	0	Ⴃ	cut_oei_stereo_44KHz.wav
3	1	4	3	2	I	2	0	1251	1	Ⴏ	cut_w_stereo_44KHz.wav
3	2	3	3	2	I	2	0	214	1	Ⴌ	cut_w_stereo_44KHz.wav
3	3	2	2	1	C	2	0	536	0	Ⴕ	cut_g_stereo_44KHz.wav
3	4	1	1	1	C	2	0	754	0	Ⴉ	cut_l_stereo_44KHz.wav
3	5	2	1	0	C	2	1	919	1	Ⴕ	cut_l_stereo_44KHz.wav
3	6	3	4	2	I	2	0	852	0	Ⴌ	cut_h_stereo_44KHz.wav
3	7	1	2	0	C	2	1	534	1	Ⴉ	cut_g_stereo_44KHz.wav
3	8	4	4	2	I	2	0	427	0	Ⴏ	cut_h_stereo_44KHz.wav
3	9	1	1	1	C	2	0	1646	0	Ⴉ	cut_l_stereo_44KHz.wav
3	10	3	3	2	I	2	0	710	1	Ⴌ	cut_w_stereo_44KHz.wav
3	11	2	2	1	C	2	0	756	0	Ⴕ	cut_g_stereo_44KHz.wav
3	12	4	4	2	I	2	0	735	0	Ⴏ	cut_h_stereo_44KHz.wav
3	13	3	4	2	I	2	0	990	1	Ⴌ	cut_h_stereo_44KHz.wav
3	14	4	3	2	I	2	0	1091	0	Ⴏ	cut_w_stereo_44KHz.wav
3	15	2	1	0	C	2	1	827	1	Ⴕ	cut_l_stereo_44KHz.wav
3	16	1	2	0	C	2	1	765	1	Ⴉ	cut_g_stereo_44KHz.wav
3	17	2	2	1	C	1	1	1082	1	Ⴕ	cut_g_stereo_44KHz.wav
3	18	3	3	2	I	2	0	634	1	Ⴌ	cut_w_stereo_44KHz.wav
3	19	4	4	2	I	2	0	821	0	Ⴏ	cut_h_stereo_44KHz.wav
3	20	1	2	0	C	2	1	837	1	Ⴉ	cut_g_stereo_44KHz.wav
3	21	4	3	2	I	2	0	845	0	Ⴏ	cut_w_stereo_44KHz.wav
3	22	3	4	2	I	2	0	435	0	Ⴌ	cut_h_stereo_44KHz.wav
3	23	2	1	0	C	2	1	286	1	Ⴕ	cut_l_stereo_44KHz.wav
3	24	1	1	1	C	2	0	312	0	Ⴉ	cut_l_stereo_44KHz.wav
3	25	4	4	2	I	2	0	233	1	Ⴏ	cut_h_stereo_44KHz.wav
3	26	1	1	1	C	2	0	455	0	Ⴉ	cut_l_stereo_44KHz.wav
3	27	3	4	2	I	2	0	234	1	Ⴌ	cut_h_stereo_44KHz.wav
3	28	2	2	1	C	1	1	1057	1	Ⴕ	cut_g_stereo_44KHz.wav
3	29	1	2	0	C	2	1	530	1	Ⴉ	cut_g_stereo_44KHz.wav
3	30	3	3	2	I	2	0	315	1	Ⴌ	cut_w_stereo_44KHz.wav
3	31	4	3	2	I	2	0	470	1	Ⴏ	cut_w_stereo_44KHz.wav
3	32	2	1	0	C	1	0	760	0	Ⴕ	cut_l_stereo_44KHz.wav
3	33	1	2	0	C	2	1	632	1	Ⴉ	cut_g_stereo_44KHz.wav
3	34	3	3	2	I	2	0	682	0	Ⴌ	cut_w_stereo_44KHz.wav
3	35	2	2	1	C	1	1	879	1	Ⴕ	cut_g_stereo_44KHz.wav
3	36	4	3	2	I	2	0	890	0	Ⴏ	cut_w_stereo_44KHz.wav
3	37	1	1	1	C	2	0	679	0	Ⴉ	cut_l_stereo_44KHz.wav
3	38	3	4	2	I	1	0	1517	1	Ⴌ	cut_h_stereo_44KHz.wav
3	39	2	1	0	C	2	1	732	1	Ⴕ	cut_l_stereo_44KHz.wav
3	40	4	4	2	I	2	0	349	1	Ⴏ	cut_h_stereo_44KHz.wav
3	41	2	2	1	C	1	1	825	1	Ⴕ	cut_g_stereo_44KHz.wav
3	42	3	3	2	I	2	0	604	1	Ⴌ	cut_w_stereo_44KHz.wav
3	43	4	4	2	I	1	0	1110	0	Ⴏ	cut_h_stereo_44KHz.wav
3	44	1	1	1	C	2	0	641	0	Ⴉ	cut_l_stereo_44KHz.wav
3	45	3	4	2	I	2	0	422	1	Ⴌ	cut_h_stereo_44KHz.wav
3	46	4	3	2	I	2	0	539	1	Ⴏ	cut_w_stereo_44KHz.wav
3	47	1	2	0	C	2	1	566	1	Ⴉ	cut_g_stereo_44KHz.wav
3	48	2	1	0	C	2	1	725	1	Ⴕ	cut_l_stereo_44KHz.wav
3	49	4	3	2	I	2	0	413	1	Ⴏ	cut_w_stereo_44KHz.wav
3	50	1	2	0	C	2	1	375	1	Ⴉ	cut_g_stereo_44KHz.wav
3	51	2	1	0	C	2	1	360	1	Ⴕ	cut_l_stereo_44KHz.wav
3	52	3	4	2	I	2	0	268	1	Ⴌ	cut_h_stereo_44KHz.wav
3	53	2	2	1	C	2	0	445	0	Ⴕ	cut_g_stereo_44KHz.wav
3	54	4	4	2	I	2	0	353	1	Ⴏ	cut_h_stereo_44KHz.wav
3	55	3	3	2	I	2	0	261	0	Ⴌ	cut_w_stereo_44KHz.wav
3	56	1	1	1	C	2	0	333	0	Ⴉ	cut_l_stereo_44KHz.wav
3	57	3	3	2	I	2	0	745	1	Ⴌ	cut_w_stereo_44KHz.wav
3	58	4	3	2	I	2	0	416	0	Ⴏ	cut_w_stereo_44KHz.wav
3	59	1	1	1	C	2	0	400	0	Ⴉ	cut_l_stereo_44KHz.wav
3	60	2	2	1	C	2	0	805	0	Ⴕ	cut_g_stereo_44KHz.wav
3	61	3	4	2	I	2	0	644	0	Ⴌ	cut_h_stereo_44KHz.wav
3	62	2	1	0	C	2	1	863	1	Ⴕ	cut_l_stereo_44KHz.wav
3	63	4	4	2	I	2	0	953	1	Ⴏ	cut_h_stereo_44KHz.wav
3	64	1	2	0	C	2	1	664	1	Ⴉ	cut_g_stereo_44KHz.wav
3	65	4	4	2	I	2	0	505	0	Ⴏ	cut_h_stereo_44KHz.wav
3	66	1	2	0	C	2	1	360	1	Ⴉ	cut_g_stereo_44KHz.wav
3	67	2	1	0	C	2	1	467	1	Ⴕ	cut_l_stereo_44KHz.wav
3	68	3	3	2	I	2	0	653	1	Ⴌ	cut_w_stereo_44KHz.wav
3	69	1	1	1	C	2	0	321	0	Ⴉ	cut_l_stereo_44KHz.wav
3	70	4	3	2	I	2	0	517	0	Ⴏ	cut_w_stereo_44KHz.wav
3	71	3	4	2	I	2	0	453	1	Ⴌ	cut_h_stereo_44KHz.wav
3	72	2	2	1	C	1	1	1061	1	Ⴕ	cut_g_stereo_44KHz.wav
3	73	4	3	2	I	2	0	769	0	Ⴏ	cut_w_stereo_44KHz.wav
3	74	2	2	1	C	1	1	862	1	Ⴕ	cut_g_stereo_44KHz.wav
3	75	1	1	1	C	2	0	877	0	Ⴉ	cut_l_stereo_44KHz.wav
3	76	3	3	2	I	2	0	660	0	Ⴌ	cut_w_stereo_44KHz.wav
3	77	4	4	2	I	2	0	469	0	Ⴏ	cut_h_stereo_44KHz.wav
3	78	2	1	0	C	2	1	792	1	Ⴕ	cut_l_stereo_44KHz.wav
3	79	3	4	2	I	2	0	653	1	Ⴌ	cut_h_stereo_44KHz.wav
3	80	1	2	0	C	2	1	288	1	Ⴉ	cut_g_stereo_44KHz.wav
3	81	4	4	2	I	2	0	508	1	Ⴏ	cut_h_stereo_44KHz.wav
3	82	1	1	1	C	2	0	431	0	Ⴉ	cut_l_stereo_44KHz.wav
3	83	3	3	2	I	2	0	695	0	Ⴌ	cut_w_stereo_44KHz.wav
3	84	2	2	1	C	1	1	1047	1	Ⴕ	cut_g_stereo_44KHz.wav
3	85	3	4	2	I	2	0	553	1	Ⴌ	cut_h_stereo_44KHz.wav
3	86	4	3	2	I	2	0	491	0	Ⴏ	cut_w_stereo_44KHz.wav
3	87	2	1	0	C	2	1	414	1	Ⴕ	cut_l_stereo_44KHz.wav
3	88	1	2	0	C	2	1	475	1	Ⴉ	cut_g_stereo_44KHz.wav
3	89	4	4	2	I	2	0	429	0	Ⴏ	cut_h_stereo_44KHz.wav
3	90	1	2	0	C	2	1	414	1	Ⴉ	cut_g_stereo_44KHz.wav
3	91	2	1	0	C	2	1	278	1	Ⴕ	cut_l_stereo_44KHz.wav
3	92	3	3	2	I	2	0	297	0	Ⴌ	cut_w_stereo_44KHz.wav
3	93	4	3	2	I	2	0	311	1	Ⴏ	cut_w_stereo_44KHz.wav
3	94	1	1	1	C	2	0	232	0	Ⴉ	cut_l_stereo_44KHz.wav
3	95	3	4	2	I	2	0	328	0	Ⴌ	cut_h_stereo_44KHz.wav
3	96	2	2	1	C	2	0	32	0	Ⴕ	cut_g_stereo_44KHz.wav
3	97	1	1	1	C	2	0	289	0	Ⴉ	cut_l_stereo_44KHz.wav
3	98	3	3	2	I	2	0	833	0	Ⴌ	cut_w_stereo_44KHz.wav
3	99	4	4	2	I	2	0	586	1	Ⴏ	cut_h_stereo_44KHz.wav
3	100	2	2	1	C	1	1	897	1	Ⴕ	cut_g_stereo_44KHz.wav
3	101	4	3	2	I	2	0	587	1	Ⴏ	cut_w_stereo_44KHz.wav
3	102	3	4	2	I	2	0	554	0	Ⴌ	cut_h_stereo_44KHz.wav
3	103	1	2	0	C	2	1	612	1	Ⴉ	cut_g_stereo_44KHz.wav
3	104	2	1	0	C	2	1	718	1	Ⴕ	cut_l_stereo_44KHz.wav
3	105	1	1	1	C	2	0	755	0	Ⴉ	cut_l_stereo_44KHz.wav
3	106	4	3	2	I	2	0	773	0	Ⴏ	cut_w_stereo_44KHz.wav
3	107	3	3	2	I	2	0	276	1	Ⴌ	cut_w_stereo_44KHz.wav
3	108	2	1	0	C	2	1	356	1	Ⴕ	cut_l_stereo_44KHz.wav
3	109	1	2	0	C	2	1	383	1	Ⴉ	cut_g_stereo_44KHz.wav
3	110	2	2	1	C	2	0	331	0	Ⴕ	cut_g_stereo_44KHz.wav
3	111	4	4	2	I	2	0	306	0	Ⴏ	cut_h_stereo_44KHz.wav
3	112	3	4	2	I	2	0	279	0	Ⴌ	cut_h_stereo_44KHz.wav
3	113	1	1	1	C	2	0	312	0	Ⴉ	cut_l_stereo_44KHz.wav
3	114	4	4	2	I	2	0	320	1	Ⴏ	cut_h_stereo_44KHz.wav
3	115	2	2	1	C	2	0	199	0	Ⴕ	cut_g_stereo_44KHz.wav
3	116	3	3	2	I	2	0	559	0	Ⴌ	cut_w_stereo_44KHz.wav
3	117	2	1	0	C	2	1	452	1	Ⴕ	cut_l_stereo_44KHz.wav
3	118	3	4	2	I	2	0	572	0	Ⴌ	cut_h_stereo_44KHz.wav
3	119	4	3	2	I	2	0	641	0	Ⴏ	cut_w_stereo_44KHz.wav
3	120	1	2	0	C	2	1	583	1	Ⴉ	cut_g_stereo_44KHz.wav
3	121	3	3	2	I	2	0	518	1	Ⴌ	cut_w_stereo_44KHz.wav
3	122	2	1	0	C	2	1	682	1	Ⴕ	cut_l_stereo_44KHz.wav
3	123	1	2	0	C	2	1	616	1	Ⴉ	cut_g_stereo_44KHz.wav
3	124	4	4	2	I	2	0	254	1	Ⴏ	cut_h_stereo_44KHz.wav
3	125	3	4	2	I	2	0	282	0	Ⴌ	cut_h_stereo_44KHz.wav
3	126	2	2	1	C	2	0	587	0	Ⴕ	cut_g_stereo_44KHz.wav
3	127	4	3	2	I	2	0	667	0	Ⴏ	cut_w_stereo_44KHz.wav
3	128	1	1	1	C	2	0	703	0	Ⴉ	cut_l_stereo_44KHz.wav
3	129	3	3	2	I	2	0	733	1	Ⴌ	cut_w_stereo_44KHz.wav
3	130	2	1	0	C	2	1	419	1	Ⴕ	cut_l_stereo_44KHz.wav
3	131	1	1	1	C	1	1	742	1	Ⴉ	cut_l_stereo_44KHz.wav
3	132	4	3	2	I	2	0	690	1	Ⴏ	cut_w_stereo_44KHz.wav
3	133	1	2	0	C	2	1	672	1	Ⴉ	cut_g_stereo_44KHz.wav
3	134	3	4	2	I	2	0	865	0	Ⴌ	cut_h_stereo_44KHz.wav
3	135	4	4	2	I	2	0	426	1	Ⴏ	cut_h_stereo_44KHz.wav
3	136	2	2	1	C	2	0	263	0	Ⴕ	cut_g_stereo_44KHz.wav
3	137	4	4	2	I	2	0	690	1	Ⴏ	cut_h_stereo_44KHz.wav
3	138	3	4	2	I	2	0	278	0	Ⴌ	cut_h_stereo_44KHz.wav
3	139	1	1	1	C	2	0	249	0	Ⴉ	cut_l_stereo_44KHz.wav
3	140	2	2	1	C	1	1	1072	1	Ⴕ	cut_g_stereo_44KHz.wav
3	141	4	3	2	I	2	0	762	0	Ⴏ	cut_w_stereo_44KHz.wav
3	142	2	1	0	C	2	1	346	1	Ⴕ	cut_l_stereo_44KHz.wav
3	143	3	3	2	I	2	0	317	1	Ⴌ	cut_w_stereo_44KHz.wav
3	144	1	2	0	C	2	1	332	1	Ⴉ	cut_g_stereo_44KHz.wav
3	145	4	4	2	I	2	0	283	1	Ⴏ	cut_h_stereo_44KHz.wav
3	146	2	2	1	C	1	1	868	1	Ⴕ	cut_g_stereo_44KHz.wav
3	147	1	2	0	C	2	1	547	1	Ⴉ	cut_g_stereo_44KHz.wav
3	148	3	4	2	I	2	0	486	1	Ⴌ	cut_h_stereo_44KHz.wav
3	149	2	1	0	C	2	1	786	1	Ⴕ	cut_l_stereo_44KHz.wav
3	150	3	3	2	I	2	0	595	0	Ⴌ	cut_w_stereo_44KHz.wav
3	151	1	1	1	C	1	1	788	1	Ⴉ	cut_l_stereo_44KHz.wav
3	152	4	3	2	I	2	0	505	1	Ⴏ	cut_w_stereo_44KHz.wav
3	153	1	2	0	C	2	1	319	1	Ⴉ	cut_g_stereo_44KHz.wav
3	154	2	1	0	C	2	1	527	1	Ⴕ	cut_l_stereo_44KHz.wav
3	155	3	4	2	I	2	0	964	1	Ⴌ	cut_h_stereo_44KHz.wav
3	156	4	4	2	I	2	0	338	0	Ⴏ	cut_h_stereo_44KHz.wav
3	157	3	3	2	I	2	0	274	0	Ⴌ	cut_w_stereo_44KHz.wav
3	158	4	3	2	I	2	0	525	1	Ⴏ	cut_w_stereo_44KHz.wav
3	159	2	2	1	C	2	0	368	0	Ⴕ	cut_g_stereo_44KHz.wav
3	160	1	1	1	C	2	0	473	0	Ⴉ	cut_l_stereo_44KHz.wav
3	161	4	4	2	I	2	0	671	1	Ⴏ	cut_h_stereo_44KHz.wav
3	162	3	4	2	I	2	0	448	1	Ⴌ	cut_h_stereo_44KHz.wav
3	163	2	1	0	C	2	1	717	1	Ⴕ	cut_l_stereo_44KHz.wav
3	164	1	1	1	C	1	1	870	1	Ⴉ	cut_l_stereo_44KHz.wav
3	165	2	2	1	C	1	1	1311	1	Ⴕ	cut_g_stereo_44KHz.wav
3	166	4	3	2	I	2	0	924	1	Ⴏ	cut_w_stereo_44KHz.wav
3	167	3	3	2	I	2	0	656	0	Ⴌ	cut_w_stereo_44KHz.wav
3	168	1	2	0	C	2	1	798	1	Ⴉ	cut_g_stereo_44KHz.wav
3	169	4	4	2	I	2	0	794	0	Ⴏ	cut_h_stereo_44KHz.wav
3	170	1	2	0	C	2	1	1433	1	Ⴉ	cut_g_stereo_44KHz.wav
3	171	3	4	2	I	2	0	556	0	Ⴌ	cut_h_stereo_44KHz.wav
3	172	2	2	1	C	1	1	1065	1	Ⴕ	cut_g_stereo_44KHz.wav
3	173	1	1	1	C	2	0	552	0	Ⴉ	cut_l_stereo_44KHz.wav
3	174	3	3	2	I	2	0	1266	1	Ⴌ	cut_w_stereo_44KHz.wav
3	175	2	1	0	C	2	1	621	1	Ⴕ	cut_l_stereo_44KHz.wav
3	176	4	3	2	I	2	0	588	0	Ⴏ	cut_w_stereo_44KHz.wav
3	177	1	2	0	C	2	1	578	1	Ⴉ	cut_g_stereo_44KHz.wav
3	178	2	2	1	C	2	0	430	0	Ⴕ	cut_g_stereo_44KHz.wav
3	179	3	4	2	I	2	0	924	0	Ⴌ	cut_h_stereo_44KHz.wav
3	180	4	4	2	I	2	0	434	1	Ⴏ	cut_h_stereo_44KHz.wav
3	181	3	3	2	I	2	0	494	1	Ⴌ	cut_w_stereo_44KHz.wav
3	182	1	1	1	C	2	0	534	0	Ⴉ	cut_l_stereo_44KHz.wav
3	183	2	1	0	C	2	1	1225	1	Ⴕ	cut_l_stereo_44KHz.wav
3	184	4	3	2	I	2	0	615	1	Ⴏ	cut_w_stereo_44KHz.wav
3	185	1	2	0	C	2	1	396	1	Ⴉ	cut_g_stereo_44KHz.wav
3	186	2	2	1	C	2	0	248	0	Ⴕ	cut_g_stereo_44KHz.wav
3	187	3	4	2	I	2	0	505	0	Ⴌ	cut_h_stereo_44KHz.wav
3	188	4	4	2	I	2	0	401	0	Ⴏ	cut_h_stereo_44KHz.wav
3	189	2	1	0	C	2	1	376	1	Ⴕ	cut_l_stereo_44KHz.wav
3	190	1	1	1	C	1	1	802	1	Ⴉ	cut_l_stereo_44KHz.wav
3	191	3	3	2	I	2	0	1077	0	Ⴌ	cut_w_stereo_44KHz.wav
3	192	4	3	2	I	2	0	780	1	Ⴏ	cut_w_stereo_44KHz.wav
3	193	1	1	1	C	2	0	392	0	Ⴉ	cut_l_stereo_44KHz.wav
3	194	4	3	2	I	2	0	658	0	Ⴏ	cut_w_stereo_44KHz.wav
3	195	3	3	2	I	2	0	371	1	Ⴌ	cut_w_stereo_44KHz.wav
3	196	2	2	1	C	2	0	345	0	Ⴕ	cut_g_stereo_44KHz.wav
3	197	1	2	0	C	2	1	854	1	Ⴉ	cut_g_stereo_44KHz.wav
3	198	2	1	0	C	2	1	604	1	Ⴕ	cut_l_stereo_44KHz.wav
3	199	4	4	2	I	2	0	606	0	Ⴏ	cut_h_stereo_44KHz.wav
3	200	3	4	2	I	2	0	554	0	Ⴌ	cut_h_stereo_44KHz.wav
4	1	2	2	1	C	2	0	1177	0	Ⴐ	cut_u_stereo_44KHz.wav
4	2	1	2	0	C	2	1	426	1	Ⴖ	cut_u_stereo_44KHz.wav
4	3	4	4	2	I	2	0	837	0	Ⴒ	cut_k_stereo_44KHz.wav
4	4	3	3	2	I	2	0	645	0	Ⴔ	cut_a_stereo_44KHz.wav
4	5	1	1	1	C	2	0	362	0	Ⴖ	cut_o_stereo_44KHz.wav
4	6	2	1	0	C	2	1	362	1	Ⴐ	cut_o_stereo_44KHz.wav
4	7	4	3	2	I	2	0	647	1	Ⴒ	cut_a_stereo_44KHz.wav
4	8	3	4	2	I	2	0	802	1	Ⴔ	cut_k_stereo_44KHz.wav
4	9	1	1	1	C	2	0	648	0	Ⴖ	cut_o_stereo_44KHz.wav
4	10	2	2	1	C	2	0	1416	0	Ⴐ	cut_u_stereo_44KHz.wav
4	11	3	3	2	I	2	0	911	1	Ⴔ	cut_a_stereo_44KHz.wav
4	12	4	4	2	I	2	0	446	0	Ⴒ	cut_k_stereo_44KHz.wav
4	13	2	1	0	C	2	1	512	1	Ⴐ	cut_o_stereo_44KHz.wav
4	14	1	2	0	C	2	1	669	1	Ⴖ	cut_u_stereo_44KHz.wav
4	15	3	4	2	I	2	0	801	0	Ⴔ	cut_k_stereo_44KHz.wav
4	16	4	3	2	I	2	0	764	1	Ⴒ	cut_a_stereo_44KHz.wav
4	17	2	1	0	C	2	1	1666	1	Ⴐ	cut_o_stereo_44KHz.wav
4	18	1	1	1	C	1	1	1044	1	Ⴖ	cut_o_stereo_44KHz.wav
4	19	3	4	2	I	2	0	1616	0	Ⴔ	cut_k_stereo_44KHz.wav
4	20	4	3	2	I	2	0	1277	1	Ⴒ	cut_a_stereo_44KHz.wav
4	21	1	2	0	C	2	1	722	1	Ⴖ	cut_u_stereo_44KHz.wav
4	22	4	4	2	I	1	0	742	0	Ⴒ	cut_k_stereo_44KHz.wav
4	23	3	3	2	I	2	0	466	0	Ⴔ	cut_a_stereo_44KHz.wav
4	24	2	2	1	C	1	1	1222	1	Ⴐ	cut_u_stereo_44KHz.wav
4	25	4	3	2	I	2	0	841	1	Ⴒ	cut_a_stereo_44KHz.wav
4	26	2	1	0	C	2	1	805	1	Ⴐ	cut_o_stereo_44KHz.wav
4	27	1	2	0	C	2	1	527	1	Ⴖ	cut_u_stereo_44KHz.wav
4	28	3	3	2	I	1	0	1014	0	Ⴔ	cut_a_stereo_44KHz.wav
4	29	1	1	1	C	1	1	1109	1	Ⴖ	cut_o_stereo_44KHz.wav
4	30	2	2	1	C	1	1	1406	1	Ⴐ	cut_u_stereo_44KHz.wav
4	31	4	4	2	I	1	0	973	0	Ⴒ	cut_k_stereo_44KHz.wav
4	32	3	4	2	I	1	0	1439	0	Ⴔ	cut_k_stereo_44KHz.wav
4	33	2	1	0	C	2	1	760	1	Ⴐ	cut_o_stereo_44KHz.wav
4	34	4	3	2	I	1	0	1051	1	Ⴒ	cut_a_stereo_44KHz.wav
4	35	1	2	0	C	2	1	602	1	Ⴖ	cut_u_stereo_44KHz.wav
4	36	3	4	2	I	1	0	1286	1	Ⴔ	cut_k_stereo_44KHz.wav
4	37	4	4	2	I	1	0	1113	1	Ⴒ	cut_k_stereo_44KHz.wav
4	38	2	2	1	C	2	0	695	0	Ⴐ	cut_u_stereo_44KHz.wav
4	39	3	3	2	I	2	0	1040	1	Ⴔ	cut_a_stereo_44KHz.wav
4	40	1	1	1	C	1	1	788	1	Ⴖ	cut_o_stereo_44KHz.wav
4	41	3	4	2	I	2	0	906	0	Ⴔ	cut_k_stereo_44KHz.wav
4	42	4	4	2	I	1	0	1502	1	Ⴒ	cut_k_stereo_44KHz.wav
4	43	2	1	0	C	0	0	0	0	Ⴐ	cut_o_stereo_44KHz.wav
4	44	1	2	0	C	2	1	703	1	Ⴖ	cut_u_stereo_44KHz.wav
4	45	3	3	2	I	2	0	585	0	Ⴔ	cut_a_stereo_44KHz.wav
4	46	4	3	2	I	2	0	722	0	Ⴒ	cut_a_stereo_44KHz.wav
4	47	1	1	1	C	1	1	990	1	Ⴖ	cut_o_stereo_44KHz.wav
4	48	2	2	1	C	1	1	886	1	Ⴐ	cut_u_stereo_44KHz.wav
4	49	1	2	0	C	2	1	842	1	Ⴖ	cut_u_stereo_44KHz.wav
4	50	4	3	2	I	2	0	786	0	Ⴒ	cut_a_stereo_44KHz.wav
4	51	2	1	0	C	2	1	1163	1	Ⴐ	cut_o_stereo_44KHz.wav
4	52	3	4	2	I	1	0	1097	1	Ⴔ	cut_k_stereo_44KHz.wav
4	53	4	4	2	I	2	0	1033	1	Ⴒ	cut_k_stereo_44KHz.wav
4	54	2	2	1	C	1	1	1249	1	Ⴐ	cut_u_stereo_44KHz.wav
4	55	3	3	2	I	1	0	631	0	Ⴔ	cut_a_stereo_44KHz.wav
4	56	1	1	1	C	1	1	1145	1	Ⴖ	cut_o_stereo_44KHz.wav
4	57	4	3	2	I	1	0	517	0	Ⴒ	cut_a_stereo_44KHz.wav
4	58	2	2	1	C	1	1	926	1	Ⴐ	cut_u_stereo_44KHz.wav
4	59	3	4	2	I	2	0	774	0	Ⴔ	cut_k_stereo_44KHz.wav
4	60	1	2	0	C	2	1	545	1	Ⴖ	cut_u_stereo_44KHz.wav
4	61	4	4	2	I	2	0	824	0	Ⴒ	cut_k_stereo_44KHz.wav
4	62	2	1	0	C	2	1	925	1	Ⴐ	cut_o_stereo_44KHz.wav
4	63	1	1	1	C	1	1	990	1	Ⴖ	cut_o_stereo_44KHz.wav
4	64	3	3	2	I	1	0	1101	0	Ⴔ	cut_a_stereo_44KHz.wav
4	65	2	1	0	C	2	1	1426	1	Ⴐ	cut_o_stereo_44KHz.wav
4	66	1	2	0	C	2	1	921	1	Ⴖ	cut_u_stereo_44KHz.wav
4	67	4	3	2	I	1	0	1103	1	Ⴒ	cut_a_stereo_44KHz.wav
4	68	3	3	2	I	2	0	900	1	Ⴔ	cut_a_stereo_44KHz.wav
4	69	4	4	2	I	2	0	825	1	Ⴒ	cut_k_stereo_44KHz.wav
4	70	3	4	2	I	2	0	793	0	Ⴔ	cut_k_stereo_44KHz.wav
4	71	1	1	1	C	1	1	1021	1	Ⴖ	cut_o_stereo_44KHz.wav
4	72	2	2	1	C	1	1	972	1	Ⴐ	cut_u_stereo_44KHz.wav
4	73	4	3	2	I	1	0	966	1	Ⴒ	cut_a_stereo_44KHz.wav
4	74	2	1	0	C	2	1	800	1	Ⴐ	cut_o_stereo_44KHz.wav
4	75	3	3	2	I	2	0	1042	1	Ⴔ	cut_a_stereo_44KHz.wav
4	76	1	1	1	C	1	1	1070	1	Ⴖ	cut_o_stereo_44KHz.wav
4	77	4	4	2	I	1	0	796	0	Ⴒ	cut_k_stereo_44KHz.wav
4	78	1	2	0	C	2	1	914	1	Ⴖ	cut_u_stereo_44KHz.wav
4	79	2	2	1	C	1	1	1093	1	Ⴐ	cut_u_stereo_44KHz.wav
4	80	3	4	2	I	2	0	1624	0	Ⴔ	cut_k_stereo_44KHz.wav
4	81	1	1	1	C	1	1	824	1	Ⴖ	cut_o_stereo_44KHz.wav
4	82	4	3	2	I	1	0	1370	0	Ⴒ	cut_a_stereo_44KHz.wav
4	83	2	1	0	C	2	1	587	1	Ⴐ	cut_o_stereo_44KHz.wav
4	84	3	4	2	I	2	0	798	0	Ⴔ	cut_k_stereo_44KHz.wav
4	85	1	2	0	C	1	0	694	0	Ⴖ	cut_u_stereo_44KHz.wav
4	86	2	2	1	C	2	0	718	0	Ⴐ	cut_u_stereo_44KHz.wav
4	87	3	3	2	I	2	0	621	1	Ⴔ	cut_a_stereo_44KHz.wav
4	88	4	4	2	I	2	0	523	1	Ⴒ	cut_k_stereo_44KHz.wav
4	89	3	3	2	I	2	0	560	1	Ⴔ	cut_a_stereo_44KHz.wav
4	90	4	4	2	I	2	0	646	0	Ⴒ	cut_k_stereo_44KHz.wav
4	91	2	1	0	C	2	1	979	1	Ⴐ	cut_o_stereo_44KHz.wav
4	92	1	1	1	C	1	1	776	1	Ⴖ	cut_o_stereo_44KHz.wav
4	93	3	4	2	I	2	0	1096	1	Ⴔ	cut_k_stereo_44KHz.wav
4	94	2	2	1	C	1	1	1545	1	Ⴐ	cut_u_stereo_44KHz.wav
4	95	1	2	0	C	2	1	461	1	Ⴖ	cut_u_stereo_44KHz.wav
4	96	4	3	2	I	1	0	1146	1	Ⴒ	cut_a_stereo_44KHz.wav
4	97	3	3	2	I	2	0	882	1	Ⴔ	cut_a_stereo_44KHz.wav
4	98	2	2	1	C	2	0	518	0	Ⴐ	cut_u_stereo_44KHz.wav
4	99	1	1	1	C	1	1	885	1	Ⴖ	cut_o_stereo_44KHz.wav
4	100	4	4	2	I	2	0	437	1	Ⴒ	cut_k_stereo_44KHz.wav
4	101	3	4	2	I	1	0	800	0	Ⴔ	cut_k_stereo_44KHz.wav
4	102	4	3	2	I	2	0	353	1	Ⴒ	cut_a_stereo_44KHz.wav
4	103	2	1	0	C	2	1	634	1	Ⴐ	cut_o_stereo_44KHz.wav
4	104	1	2	0	C	2	1	439	1	Ⴖ	cut_u_stereo_44KHz.wav
4	105	4	3	2	I	2	0	515	0	Ⴒ	cut_a_stereo_44KHz.wav
4	106	3	4	2	I	2	0	715	1	Ⴔ	cut_k_stereo_44KHz.wav
4	107	2	2	1	C	2	0	503	0	Ⴐ	cut_u_stereo_44KHz.wav
4	108	1	2	0	C	2	1	554	1	Ⴖ	cut_u_stereo_44KHz.wav
4	109	4	4	2	I	2	0	662	1	Ⴒ	cut_k_stereo_44KHz.wav
4	110	2	1	0	C	2	1	442	1	Ⴐ	cut_o_stereo_44KHz.wav
4	111	1	1	1	C	2	0	721	0	Ⴖ	cut_o_stereo_44KHz.wav
4	112	3	3	2	I	1	0	1161	1	Ⴔ	cut_a_stereo_44KHz.wav
4	113	2	1	0	C	2	1	725	1	Ⴐ	cut_o_stereo_44KHz.wav
4	114	4	3	2	I	2	0	845	0	Ⴒ	cut_a_stereo_44KHz.wav
4	115	3	4	2	I	1	0	1122	1	Ⴔ	cut_k_stereo_44KHz.wav
4	116	1	1	1	C	1	1	965	1	Ⴖ	cut_o_stereo_44KHz.wav
4	117	2	2	1	C	1	1	849	1	Ⴐ	cut_u_stereo_44KHz.wav
4	118	1	2	0	C	2	1	546	1	Ⴖ	cut_u_stereo_44KHz.wav
4	119	3	3	2	I	1	0	742	1	Ⴔ	cut_a_stereo_44KHz.wav
4	120	4	4	2	I	2	0	1213	1	Ⴒ	cut_k_stereo_44KHz.wav
4	121	1	2	0	C	2	1	682	1	Ⴖ	cut_u_stereo_44KHz.wav
4	122	3	3	2	I	2	0	1079	1	Ⴔ	cut_a_stereo_44KHz.wav
4	123	4	4	2	I	2	0	1379	1	Ⴒ	cut_k_stereo_44KHz.wav
4	124	2	2	1	C	1	1	1142	1	Ⴐ	cut_u_stereo_44KHz.wav
4	125	4	3	2	I	2	0	812	0	Ⴒ	cut_a_stereo_44KHz.wav
4	126	2	1	0	C	2	1	767	1	Ⴐ	cut_o_stereo_44KHz.wav
4	127	1	1	1	C	1	1	708	1	Ⴖ	cut_o_stereo_44KHz.wav
4	128	3	4	2	I	1	0	1002	0	Ⴔ	cut_k_stereo_44KHz.wav
4	129	4	3	2	I	2	0	568	1	Ⴒ	cut_a_stereo_44KHz.wav
4	130	1	1	1	C	1	1	731	1	Ⴖ	cut_o_stereo_44KHz.wav
4	131	3	3	2	I	2	0	700	0	Ⴔ	cut_a_stereo_44KHz.wav
4	132	2	1	0	C	2	1	825	1	Ⴐ	cut_o_stereo_44KHz.wav
4	133	1	2	0	C	1	0	1409	0	Ⴖ	cut_u_stereo_44KHz.wav
4	134	4	4	2	I	2	0	748	0	Ⴒ	cut_k_stereo_44KHz.wav
4	135	3	4	2	I	2	0	1139	0	Ⴔ	cut_k_stereo_44KHz.wav
4	136	2	2	1	C	2	0	1479	0	Ⴐ	cut_u_stereo_44KHz.wav
4	137	3	4	2	I	2	0	1066	0	Ⴔ	cut_k_stereo_44KHz.wav
4	138	4	3	2	I	2	0	1166	0	Ⴒ	cut_a_stereo_44KHz.wav
4	139	1	2	0	C	2	1	774	1	Ⴖ	cut_u_stereo_44KHz.wav
4	140	2	1	0	C	2	1	683	1	Ⴐ	cut_o_stereo_44KHz.wav
4	141	1	1	1	C	1	1	985	1	Ⴖ	cut_o_stereo_44KHz.wav
4	142	3	3	2	I	2	0	743	1	Ⴔ	cut_a_stereo_44KHz.wav
4	143	4	4	2	I	2	0	609	0	Ⴒ	cut_k_stereo_44KHz.wav
4	144	2	2	1	C	1	1	769	1	Ⴐ	cut_u_stereo_44KHz.wav
4	145	1	1	1	C	2	0	428	0	Ⴖ	cut_o_stereo_44KHz.wav
4	146	4	4	2	I	2	0	693	0	Ⴒ	cut_k_stereo_44KHz.wav
4	147	2	1	0	C	2	1	848	1	Ⴐ	cut_o_stereo_44KHz.wav
4	148	3	4	2	I	2	0	723	1	Ⴔ	cut_k_stereo_44KHz.wav
4	149	1	2	0	C	2	1	1016	1	Ⴖ	cut_u_stereo_44KHz.wav
4	150	3	3	2	I	2	0	709	1	Ⴔ	cut_a_stereo_44KHz.wav
4	151	4	3	2	I	2	0	976	0	Ⴒ	cut_a_stereo_44KHz.wav
4	152	2	2	1	C	2	0	916	0	Ⴐ	cut_u_stereo_44KHz.wav
4	153	4	3	2	I	1	0	957	1	Ⴒ	cut_a_stereo_44KHz.wav
4	154	2	1	0	C	1	0	1468	0	Ⴐ	cut_o_stereo_44KHz.wav
4	155	3	4	2	I	2	0	1252	1	Ⴔ	cut_k_stereo_44KHz.wav
4	156	1	1	1	C	1	1	856	1	Ⴖ	cut_o_stereo_44KHz.wav
4	157	2	2	1	C	1	1	980	1	Ⴐ	cut_u_stereo_44KHz.wav
4	158	3	3	2	I	2	0	351	1	Ⴔ	cut_a_stereo_44KHz.wav
4	159	1	2	0	C	1	0	830	0	Ⴖ	cut_u_stereo_44KHz.wav
4	160	4	4	2	I	2	0	839	1	Ⴒ	cut_k_stereo_44KHz.wav
4	161	1	2	0	C	2	1	1024	1	Ⴖ	cut_u_stereo_44KHz.wav
4	162	2	2	1	C	1	1	1347	1	Ⴐ	cut_u_stereo_44KHz.wav
4	163	3	4	2	I	2	0	731	0	Ⴔ	cut_k_stereo_44KHz.wav
4	164	4	4	2	I	2	0	565	1	Ⴒ	cut_k_stereo_44KHz.wav
4	165	1	1	1	C	1	1	799	1	Ⴖ	cut_o_stereo_44KHz.wav
4	166	2	1	0	C	2	1	1041	1	Ⴐ	cut_o_stereo_44KHz.wav
4	167	4	3	2	I	1	0	937	1	Ⴒ	cut_a_stereo_44KHz.wav
4	168	3	3	2	I	2	0	1135	1	Ⴔ	cut_a_stereo_44KHz.wav
4	169	1	1	1	C	1	1	1127	1	Ⴖ	cut_o_stereo_44KHz.wav
4	170	4	3	2	I	1	0	1962	0	Ⴒ	cut_a_stereo_44KHz.wav
4	171	3	4	2	I	2	0	1354	1	Ⴔ	cut_k_stereo_44KHz.wav
4	172	2	2	1	C	1	1	972	1	Ⴐ	cut_u_stereo_44KHz.wav
4	173	4	4	2	I	1	0	699	0	Ⴒ	cut_k_stereo_44KHz.wav
4	174	1	2	0	C	2	1	746	1	Ⴖ	cut_u_stereo_44KHz.wav
4	175	3	3	2	I	2	0	737	0	Ⴔ	cut_a_stereo_44KHz.wav
4	176	2	1	0	C	1	0	757	0	Ⴐ	cut_o_stereo_44KHz.wav
4	177	4	3	2	I	2	0	1359	1	Ⴒ	cut_a_stereo_44KHz.wav
4	178	2	2	1	C	1	1	1261	1	Ⴐ	cut_u_stereo_44KHz.wav
4	179	3	3	2	I	2	0	819	0	Ⴔ	cut_a_stereo_44KHz.wav
4	180	1	1	1	C	1	1	811	1	Ⴖ	cut_o_stereo_44KHz.wav
4	181	2	1	0	C	2	1	1313	1	Ⴐ	cut_o_stereo_44KHz.wav
4	182	1	2	0	C	1	0	847	0	Ⴖ	cut_u_stereo_44KHz.wav
4	183	4	4	2	I	2	0	900	0	Ⴒ	cut_k_stereo_44KHz.wav
4	184	3	4	2	I	2	0	874	0	Ⴔ	cut_k_stereo_44KHz.wav
4	185	4	3	2	I	2	0	712	1	Ⴒ	cut_a_stereo_44KHz.wav
4	186	1	1	1	C	1	1	585	1	Ⴖ	cut_o_stereo_44KHz.wav
4	187	2	1	0	C	2	1	1038	1	Ⴐ	cut_o_stereo_44KHz.wav
4	188	3	3	2	I	2	0	930	0	Ⴔ	cut_a_stereo_44KHz.wav
4	189	2	2	1	C	1	1	929	1	Ⴐ	cut_u_stereo_44KHz.wav
4	190	3	4	2	I	2	0	801	1	Ⴔ	cut_k_stereo_44KHz.wav
4	191	1	2	0	C	2	1	559	1	Ⴖ	cut_u_stereo_44KHz.wav
4	192	4	4	2	I	2	0	892	0	Ⴒ	cut_k_stereo_44KHz.wav
4	193	3	3	2	I	2	0	710	1	Ⴔ	cut_a_stereo_44KHz.wav
4	194	2	1	0	C	2	1	794	1	Ⴐ	cut_o_stereo_44KHz.wav
4	195	1	2	0	C	2	1	901	1	Ⴖ	cut_u_stereo_44KHz.wav
4	196	4	3	2	I	2	0	941	0	Ⴒ	cut_a_stereo_44KHz.wav
4	197	3	4	2	I	2	0	1389	0	Ⴔ	cut_k_stereo_44KHz.wav
4	198	1	1	1	C	1	1	821	1	Ⴖ	cut_o_stereo_44KHz.wav
4	199	4	4	2	I	2	0	1327	0	Ⴒ	cut_k_stereo_44KHz.wav
4	200	2	2	1	C	2	0	612	0	Ⴐ	cut_u_stereo_44KHz.wav
