block	trial	Vstim	Astim	match	C/I	resp	result	RT	fb	V-file	A-file
RL

0	1	2	3	1	C	0	0	0	0	poli_8sides 22_whiteLine3.jpg	Practice4_b26_stereo_44KHz.wav
0	2	1	2	0	C	1	0	476	0	poli_8sides 21_whiteLine3.jpg	Practice3_b26_cut1_stereo_44KHz.wav
0	3	2	4	0	C	1	0	909	0	poli_8sides 22_whiteLine3.jpg	Practice2_b27_cut2_stereo_44KHz.wav
0	4	1	1	1	C	2	0	466	0	poli_8sides 21_whiteLine3.jpg	Practice1_b27_cut1_stereo_44KHz.wav
0	5	1	2	0	C	1	0	713	0	poli_8sides 21_whiteLine3.jpg	Practice3_b26_cut1_stereo_44KHz.wav
0	6	2	3	1	C	0	0	0	0	poli_8sides 22_whiteLine3.jpg	Practice4_b26_stereo_44KHz.wav
0	7	2	4	0	C	2	1	638	1	poli_8sides 22_whiteLine3.jpg	Practice2_b27_cut2_stereo_44KHz.wav
0	8	1	1	1	C	2	0	353	0	poli_8sides 21_whiteLine3.jpg	Practice1_b27_cut1_stereo_44KHz.wav
0	9	1	2	0	C	0	0	0	0	poli_8sides 21_whiteLine3.jpg	Practice3_b26_cut1_stereo_44KHz.wav
0	10	1	1	1	C	2	0	511	0	poli_8sides 21_whiteLine3.jpg	Practice1_b27_cut1_stereo_44KHz.wav
0	11	2	3	1	C	0	0	0	0	poli_8sides 22_whiteLine3.jpg	Practice4_b26_stereo_44KHz.wav
0	12	2	4	0	C	2	1	593	1	poli_8sides 22_whiteLine3.jpg	Practice2_b27_cut2_stereo_44KHz.wav
0	13	2	4	0	C	2	1	683	1	poli_8sides 22_whiteLine3.jpg	Practice2_b27_cut2_stereo_44KHz.wav
0	14	1	1	1	C	2	0	276	0	poli_8sides 21_whiteLine3.jpg	Practice1_b27_cut1_stereo_44KHz.wav
0	15	1	2	0	C	2	1	423	1	poli_8sides 21_whiteLine3.jpg	Practice3_b26_cut1_stereo_44KHz.wav
0	16	2	3	1	C	1	1	547	1	poli_8sides 22_whiteLine3.jpg	Practice4_b26_stereo_44KHz.wav
0	17	1	2	0	C	2	1	542	1	poli_8sides 21_whiteLine3.jpg	Practice3_b26_cut1_stereo_44KHz.wav
0	18	2	4	0	C	2	1	679	1	poli_8sides 22_whiteLine3.jpg	Practice2_b27_cut2_stereo_44KHz.wav
0	19	2	3	1	C	2	0	507	0	poli_8sides 22_whiteLine3.jpg	Practice4_b26_stereo_44KHz.wav
0	20	1	1	1	C	2	0	371	0	poli_8sides 21_whiteLine3.jpg	Practice1_b27_cut1_stereo_44KHz.wav
0	21	2	3	1	C	2	0	475	0	poli_8sides 22_whiteLine3.jpg	Practice4_b26_stereo_44KHz.wav
0	22	1	2	0	C	2	1	582	1	poli_8sides 21_whiteLine3.jpg	Practice3_b26_cut1_stereo_44KHz.wav
0	23	2	4	0	C	2	1	1408	1	poli_8sides 22_whiteLine3.jpg	Practice2_b27_cut2_stereo_44KHz.wav
0	24	1	1	1	C	2	0	419	0	poli_8sides 21_whiteLine3.jpg	Practice1_b27_cut1_stereo_44KHz.wav
0	25	1	1	1	C	0	0	0	0	poli_8sides 21_whiteLine3.jpg	Practice1_b27_cut1_stereo_44KHz.wav
0	26	2	4	0	C	2	1	510	1	poli_8sides 22_whiteLine3.jpg	Practice2_b27_cut2_stereo_44KHz.wav
0	27	1	2	0	C	2	1	832	1	poli_8sides 21_whiteLine3.jpg	Practice3_b26_cut1_stereo_44KHz.wav
0	28	2	3	1	C	2	0	768	0	poli_8sides 22_whiteLine3.jpg	Practice4_b26_stereo_44KHz.wav
0	29	1	1	1	C	2	0	413	0	poli_8sides 21_whiteLine3.jpg	Practice1_b27_cut1_stereo_44KHz.wav
0	30	2	4	0	C	1	0	253	0	poli_8sides 22_whiteLine3.jpg	Practice2_b27_cut2_stereo_44KHz.wav
avg_resp = 676
1	1	2	2	1	C	1	1	895	1	poli_8sides 18_whiteLine3.jpg	Short_b22_cut1_stereo_44KHz.wav
1	2	3	3	2	I	1	0	637	1	poli_8sides 7_whiteLine3.jpg	Short_b20_cut1_stereo_44KHz.wav
1	3	4	4	2	I	1	0	659	1	poli_8sides 10_whiteLine3.jpg	Short_b23_cut1_stereo_44KHz.wav
1	4	1	1	1	C	1	1	520	1	poli_8sides 15_whiteLine3.jpg	Short_b09_cut1_stereo_44KHz.wav
1	5	2	1	0	C	1	0	525	0	poli_8sides 18_whiteLine3.jpg	Short_b09_cut1_stereo_44KHz.wav
1	6	4	3	2	I	1	0	670	0	poli_8sides 10_whiteLine3.jpg	Short_b20_cut1_stereo_44KHz.wav
1	7	3	4	2	I	2	0	827	1	poli_8sides 7_whiteLine3.jpg	Short_b23_cut1_stereo_44KHz.wav
1	8	1	2	0	C	1	0	757	0	poli_8sides 15_whiteLine3.jpg	Short_b22_cut1_stereo_44KHz.wav
1	9	4	4	2	I	1	0	767	0	poli_8sides 10_whiteLine3.jpg	Short_b23_cut1_stereo_44KHz.wav
1	10	2	1	0	C	1	0	1809	0	poli_8sides 18_whiteLine3.jpg	Short_b09_cut1_stereo_44KHz.wav
1	11	3	3	2	I	2	0	1023	1	poli_8sides 7_whiteLine3.jpg	Short_b20_cut1_stereo_44KHz.wav
1	12	1	1	1	C	0	0	0	0	poli_8sides 15_whiteLine3.jpg	Short_b09_cut1_stereo_44KHz.wav
1	13	3	4	2	I	2	0	966	0	poli_8sides 7_whiteLine3.jpg	Short_b23_cut1_stereo_44KHz.wav
1	14	4	3	2	I	1	0	716	1	poli_8sides 10_whiteLine3.jpg	Short_b20_cut1_stereo_44KHz.wav
1	15	1	2	0	C	1	0	1963	0	poli_8sides 15_whiteLine3.jpg	Short_b22_cut1_stereo_44KHz.wav
1	16	2	2	1	C	1	1	811	1	poli_8sides 18_whiteLine3.jpg	Short_b22_cut1_stereo_44KHz.wav
1	17	3	3	2	I	2	0	469	0	poli_8sides 7_whiteLine3.jpg	Short_b20_cut1_stereo_44KHz.wav
1	18	1	1	1	C	1	1	791	1	poli_8sides 15_whiteLine3.jpg	Short_b09_cut1_stereo_44KHz.wav
1	19	4	4	2	I	2	0	784	1	poli_8sides 10_whiteLine3.jpg	Short_b23_cut1_stereo_44KHz.wav
1	20	2	2	1	C	1	1	312	1	poli_8sides 18_whiteLine3.jpg	Short_b22_cut1_stereo_44KHz.wav
1	21	4	3	2	I	2	0	423	0	poli_8sides 10_whiteLine3.jpg	Short_b20_cut1_stereo_44KHz.wav
1	22	1	2	0	C	1	0	834	0	poli_8sides 15_whiteLine3.jpg	Short_b22_cut1_stereo_44KHz.wav
1	23	2	1	0	C	1	0	850	0	poli_8sides 18_whiteLine3.jpg	Short_b09_cut1_stereo_44KHz.wav
1	24	3	4	2	I	2	0	528	1	poli_8sides 7_whiteLine3.jpg	Short_b23_cut1_stereo_44KHz.wav
1	25	1	1	1	C	2	0	849	0	poli_8sides 15_whiteLine3.jpg	Short_b09_cut1_stereo_44KHz.wav
1	26	2	2	1	C	1	1	572	1	poli_8sides 18_whiteLine3.jpg	Short_b22_cut1_stereo_44KHz.wav
1	27	3	3	2	I	2	0	617	1	poli_8sides 7_whiteLine3.jpg	Short_b20_cut1_stereo_44KHz.wav
1	28	4	4	2	I	2	0	563	0	poli_8sides 10_whiteLine3.jpg	Short_b23_cut1_stereo_44KHz.wav
1	29	2	1	0	C	1	0	724	0	poli_8sides 18_whiteLine3.jpg	Short_b09_cut1_stereo_44KHz.wav
1	30	3	4	2	I	2	0	431	1	poli_8sides 7_whiteLine3.jpg	Short_b23_cut1_stereo_44KHz.wav
1	31	1	2	0	C	2	1	788	1	poli_8sides 15_whiteLine3.jpg	Short_b22_cut1_stereo_44KHz.wav
1	32	4	3	2	I	1	0	880	1	poli_8sides 10_whiteLine3.jpg	Short_b20_cut1_stereo_44KHz.wav
1	33	3	4	2	I	2	0	600	0	poli_8sides 7_whiteLine3.jpg	Short_b23_cut1_stereo_44KHz.wav
1	34	1	2	0	C	1	0	621	0	poli_8sides 15_whiteLine3.jpg	Short_b22_cut1_stereo_44KHz.wav
1	35	2	2	1	C	2	0	509	0	poli_8sides 18_whiteLine3.jpg	Short_b22_cut1_stereo_44KHz.wav
1	36	4	4	2	I	2	0	702	1	poli_8sides 10_whiteLine3.jpg	Short_b23_cut1_stereo_44KHz.wav
1	37	3	3	2	I	0	0	0	0	poli_8sides 7_whiteLine3.jpg	Short_b20_cut1_stereo_44KHz.wav
1	38	4	3	2	I	1	0	592	1	poli_8sides 10_whiteLine3.jpg	Short_b20_cut1_stereo_44KHz.wav
1	39	1	1	1	C	2	0	1301	0	poli_8sides 15_whiteLine3.jpg	Short_b09_cut1_stereo_44KHz.wav
1	40	2	1	0	C	1	0	433	0	poli_8sides 18_whiteLine3.jpg	Short_b09_cut1_stereo_44KHz.wav
1	41	4	4	2	I	2	0	430	0	poli_8sides 10_whiteLine3.jpg	Short_b23_cut1_stereo_44KHz.wav
1	42	2	2	1	C	2	0	1062	0	poli_8sides 18_whiteLine3.jpg	Short_b22_cut1_stereo_44KHz.wav
1	43	3	4	2	I	1	0	1045	1	poli_8sides 7_whiteLine3.jpg	Short_b23_cut1_stereo_44KHz.wav
1	44	1	1	1	C	2	0	1620	0	poli_8sides 15_whiteLine3.jpg	Short_b09_cut1_stereo_44KHz.wav
1	45	4	3	2	I	1	0	876	0	poli_8sides 10_whiteLine3.jpg	Short_b20_cut1_stereo_44KHz.wav
1	46	3	3	2	I	2	0	674	0	poli_8sides 7_whiteLine3.jpg	Short_b20_cut1_stereo_44KHz.wav
1	47	2	1	0	C	1	0	1438	0	poli_8sides 18_whiteLine3.jpg	Short_b09_cut1_stereo_44KHz.wav
1	48	1	2	0	C	1	0	1069	0	poli_8sides 15_whiteLine3.jpg	Short_b22_cut1_stereo_44KHz.wav
1	49	4	4	2	I	2	0	692	0	poli_8sides 10_whiteLine3.jpg	Short_b23_cut1_stereo_44KHz.wav
1	50	2	1	0	C	1	0	1240	0	poli_8sides 18_whiteLine3.jpg	Short_b09_cut1_stereo_44KHz.wav
1	51	1	1	1	C	1	1	1281	1	poli_8sides 15_whiteLine3.jpg	Short_b09_cut1_stereo_44KHz.wav
1	52	3	3	2	I	2	0	660	0	poli_8sides 7_whiteLine3.jpg	Short_b20_cut1_stereo_44KHz.wav
1	53	4	3	2	I	1	0	641	0	poli_8sides 10_whiteLine3.jpg	Short_b20_cut1_stereo_44KHz.wav
1	54	2	2	1	C	2	0	1603	0	poli_8sides 18_whiteLine3.jpg	Short_b22_cut1_stereo_44KHz.wav
1	55	3	4	2	I	2	0	547	1	poli_8sides 7_whiteLine3.jpg	Short_b23_cut1_stereo_44KHz.wav
1	56	1	2	0	C	2	1	1219	1	poli_8sides 15_whiteLine3.jpg	Short_b22_cut1_stereo_44KHz.wav
1	57	3	3	2	I	1	0	958	0	poli_8sides 7_whiteLine3.jpg	Short_b20_cut1_stereo_44KHz.wav
1	58	4	3	2	I	1	0	525	1	poli_8sides 10_whiteLine3.jpg	Short_b20_cut1_stereo_44KHz.wav
1	59	1	1	1	C	2	0	1063	0	poli_8sides 15_whiteLine3.jpg	Short_b09_cut1_stereo_44KHz.wav
1	60	2	2	1	C	1	1	922	1	poli_8sides 18_whiteLine3.jpg	Short_b22_cut1_stereo_44KHz.wav
1	61	4	4	2	I	2	0	728	1	poli_8sides 10_whiteLine3.jpg	Short_b23_cut1_stereo_44KHz.wav
1	62	1	2	0	C	2	1	949	1	poli_8sides 15_whiteLine3.jpg	Short_b22_cut1_stereo_44KHz.wav
1	63	3	4	2	I	2	0	1230	0	poli_8sides 7_whiteLine3.jpg	Short_b23_cut1_stereo_44KHz.wav
1	64	2	1	0	C	1	0	864	0	poli_8sides 18_whiteLine3.jpg	Short_b09_cut1_stereo_44KHz.wav
1	65	3	4	2	I	2	0	653	1	poli_8sides 7_whiteLine3.jpg	Short_b23_cut1_stereo_44KHz.wav
1	66	4	3	2	I	2	0	1348	0	poli_8sides 10_whiteLine3.jpg	Short_b20_cut1_stereo_44KHz.wav
1	67	1	2	0	C	1	0	281	0	poli_8sides 15_whiteLine3.jpg	Short_b22_cut1_stereo_44KHz.wav
1	68	2	2	1	C	1	1	1342	1	poli_8sides 18_whiteLine3.jpg	Short_b22_cut1_stereo_44KHz.wav
1	69	3	3	2	I	1	0	898	1	poli_8sides 7_whiteLine3.jpg	Short_b20_cut1_stereo_44KHz.wav
1	70	1	1	1	C	2	0	1186	0	poli_8sides 15_whiteLine3.jpg	Short_b09_cut1_stereo_44KHz.wav
1	71	4	4	2	I	2	0	1745	1	poli_8sides 10_whiteLine3.jpg	Short_b23_cut1_stereo_44KHz.wav
1	72	2	1	0	C	2	1	941	1	poli_8sides 18_whiteLine3.jpg	Short_b09_cut1_stereo_44KHz.wav
1	73	3	3	2	I	2	0	730	1	poli_8sides 7_whiteLine3.jpg	Short_b20_cut1_stereo_44KHz.wav
1	74	2	2	1	C	2	0	1498	0	poli_8sides 18_whiteLine3.jpg	Short_b22_cut1_stereo_44KHz.wav
1	75	4	3	2	I	2	0	904	1	poli_8sides 10_whiteLine3.jpg	Short_b20_cut1_stereo_44KHz.wav
1	76	1	1	1	C	1	1	1043	1	poli_8sides 15_whiteLine3.jpg	Short_b09_cut1_stereo_44KHz.wav
1	77	2	1	0	C	1	0	930	0	poli_8sides 18_whiteLine3.jpg	Short_b09_cut1_stereo_44KHz.wav
1	78	4	4	2	I	2	0	420	1	poli_8sides 10_whiteLine3.jpg	Short_b23_cut1_stereo_44KHz.wav
1	79	3	4	2	I	2	0	1227	0	poli_8sides 7_whiteLine3.jpg	Short_b23_cut1_stereo_44KHz.wav
1	80	1	2	0	C	2	1	760	1	poli_8sides 15_whiteLine3.jpg	Short_b22_cut1_stereo_44KHz.wav
1	81	4	3	2	I	1	0	1225	0	poli_8sides 10_whiteLine3.jpg	Short_b20_cut1_stereo_44KHz.wav
1	82	1	1	1	C	2	0	1831	0	poli_8sides 15_whiteLine3.jpg	Short_b09_cut1_stereo_44KHz.wav
1	83	2	2	1	C	1	1	628	1	poli_8sides 18_whiteLine3.jpg	Short_b22_cut1_stereo_44KHz.wav
1	84	3	4	2	I	2	0	914	0	poli_8sides 7_whiteLine3.jpg	Short_b23_cut1_stereo_44KHz.wav
1	85	4	4	2	I	1	0	746	0	poli_8sides 10_whiteLine3.jpg	Short_b23_cut1_stereo_44KHz.wav
1	86	1	2	0	C	2	1	595	1	poli_8sides 15_whiteLine3.jpg	Short_b22_cut1_stereo_44KHz.wav
1	87	2	1	0	C	2	1	1325	1	poli_8sides 18_whiteLine3.jpg	Short_b09_cut1_stereo_44KHz.wav
1	88	3	3	2	I	1	0	481	0	poli_8sides 7_whiteLine3.jpg	Short_b20_cut1_stereo_44KHz.wav
1	89	2	2	1	C	2	0	812	0	poli_8sides 18_whiteLine3.jpg	Short_b22_cut1_stereo_44KHz.wav
1	90	4	3	2	I	1	0	720	1	poli_8sides 10_whiteLine3.jpg	Short_b20_cut1_stereo_44KHz.wav
1	91	3	4	2	I	2	0	1223	1	poli_8sides 7_whiteLine3.jpg	Short_b23_cut1_stereo_44KHz.wav
1	92	1	2	0	C	1	0	1339	0	poli_8sides 15_whiteLine3.jpg	Short_b22_cut1_stereo_44KHz.wav
1	93	2	1	0	C	2	1	1263	1	poli_8sides 18_whiteLine3.jpg	Short_b09_cut1_stereo_44KHz.wav
1	94	3	3	2	I	2	0	710	0	poli_8sides 7_whiteLine3.jpg	Short_b20_cut1_stereo_44KHz.wav
1	95	4	4	2	I	1	0	600	1	poli_8sides 10_whiteLine3.jpg	Short_b23_cut1_stereo_44KHz.wav
1	96	1	1	1	C	1	1	337	1	poli_8sides 15_whiteLine3.jpg	Short_b09_cut1_stereo_44KHz.wav
1	97	2	2	1	C	2	0	306	0	poli_8sides 18_whiteLine3.jpg	Short_b22_cut1_stereo_44KHz.wav
1	98	1	1	1	C	1	1	794	1	poli_8sides 15_whiteLine3.jpg	Short_b09_cut1_stereo_44KHz.wav
1	99	3	3	2	I	2	0	454	0	poli_8sides 7_whiteLine3.jpg	Short_b20_cut1_stereo_44KHz.wav
1	100	4	4	2	I	2	0	464	0	poli_8sides 10_whiteLine3.jpg	Short_b23_cut1_stereo_44KHz.wav
1	101	3	4	2	I	2	0	1152	1	poli_8sides 7_whiteLine3.jpg	Short_b23_cut1_stereo_44KHz.wav
1	102	1	2	0	C	2	1	1857	1	poli_8sides 15_whiteLine3.jpg	Short_b22_cut1_stereo_44KHz.wav
1	103	2	1	0	C	2	1	871	1	poli_8sides 18_whiteLine3.jpg	Short_b09_cut1_stereo_44KHz.wav
1	104	4	3	2	I	1	0	1087	1	poli_8sides 10_whiteLine3.jpg	Short_b20_cut1_stereo_44KHz.wav
1	105	3	4	2	I	2	0	803	0	poli_8sides 7_whiteLine3.jpg	Short_b23_cut1_stereo_44KHz.wav
1	106	2	2	1	C	2	0	1882	0	poli_8sides 18_whiteLine3.jpg	Short_b22_cut1_stereo_44KHz.wav
1	107	4	3	2	I	1	0	760	0	poli_8sides 10_whiteLine3.jpg	Short_b20_cut1_stereo_44KHz.wav
1	108	1	1	1	C	2	0	813	0	poli_8sides 15_whiteLine3.jpg	Short_b09_cut1_stereo_44KHz.wav
1	109	4	4	2	I	2	0	707	0	poli_8sides 10_whiteLine3.jpg	Short_b23_cut1_stereo_44KHz.wav
1	110	2	1	0	C	1	0	1061	0	poli_8sides 18_whiteLine3.jpg	Short_b09_cut1_stereo_44KHz.wav
1	111	3	3	2	I	2	0	481	0	poli_8sides 7_whiteLine3.jpg	Short_b20_cut1_stereo_44KHz.wav
1	112	1	2	0	C	2	1	265	1	poli_8sides 15_whiteLine3.jpg	Short_b22_cut1_stereo_44KHz.wav
1	113	2	1	0	C	2	1	670	1	poli_8sides 18_whiteLine3.jpg	Short_b09_cut1_stereo_44KHz.wav
1	114	4	4	2	I	1	0	1379	1	poli_8sides 10_whiteLine3.jpg	Short_b23_cut1_stereo_44KHz.wav
1	115	1	1	1	C	2	0	1009	0	poli_8sides 15_whiteLine3.jpg	Short_b09_cut1_stereo_44KHz.wav
1	116	3	4	2	I	0	0	0	0	poli_8sides 7_whiteLine3.jpg	Short_b23_cut1_stereo_44KHz.wav
1	117	1	2	0	C	1	0	872	0	poli_8sides 15_whiteLine3.jpg	Short_b22_cut1_stereo_44KHz.wav
1	118	4	3	2	I	2	0	986	1	poli_8sides 10_whiteLine3.jpg	Short_b20_cut1_stereo_44KHz.wav
1	119	3	3	2	I	1	0	1500	0	poli_8sides 7_whiteLine3.jpg	Short_b20_cut1_stereo_44KHz.wav
1	120	2	2	1	C	2	0	830	0	poli_8sides 18_whiteLine3.jpg	Short_b22_cut1_stereo_44KHz.wav
1	121	4	3	2	I	1	0	330	1	poli_8sides 10_whiteLine3.jpg	Short_b20_cut1_stereo_44KHz.wav
1	122	1	1	1	C	2	0	899	0	poli_8sides 15_whiteLine3.jpg	Short_b09_cut1_stereo_44KHz.wav
1	123	2	2	1	C	2	0	1322	0	poli_8sides 18_whiteLine3.jpg	Short_b22_cut1_stereo_44KHz.wav
1	124	3	3	2	I	1	0	351	0	poli_8sides 7_whiteLine3.jpg	Short_b20_cut1_stereo_44KHz.wav
1	125	4	4	2	I	2	0	1037	1	poli_8sides 10_whiteLine3.jpg	Short_b23_cut1_stereo_44KHz.wav
1	126	3	4	2	I	1	0	709	1	poli_8sides 7_whiteLine3.jpg	Short_b23_cut1_stereo_44KHz.wav
1	127	1	2	0	C	2	1	364	1	poli_8sides 15_whiteLine3.jpg	Short_b22_cut1_stereo_44KHz.wav
1	128	2	1	0	C	2	1	1049	1	poli_8sides 18_whiteLine3.jpg	Short_b09_cut1_stereo_44KHz.wav
1	129	1	2	0	C	1	0	1130	0	poli_8sides 15_whiteLine3.jpg	Short_b22_cut1_stereo_44KHz.wav
1	130	4	4	2	I	2	0	336	1	poli_8sides 10_whiteLine3.jpg	Short_b23_cut1_stereo_44KHz.wav
1	131	3	3	2	I	1	0	501	0	poli_8sides 7_whiteLine3.jpg	Short_b20_cut1_stereo_44KHz.wav
1	132	2	2	1	C	2	0	616	0	poli_8sides 18_whiteLine3.jpg	Short_b22_cut1_stereo_44KHz.wav
1	133	4	3	2	I	1	0	307	1	poli_8sides 10_whiteLine3.jpg	Short_b20_cut1_stereo_44KHz.wav
1	134	3	4	2	I	2	0	580	1	poli_8sides 7_whiteLine3.jpg	Short_b23_cut1_stereo_44KHz.wav
1	135	1	1	1	C	2	0	852	0	poli_8sides 15_whiteLine3.jpg	Short_b09_cut1_stereo_44KHz.wav
1	136	2	1	0	C	2	1	429	1	poli_8sides 18_whiteLine3.jpg	Short_b09_cut1_stereo_44KHz.wav
1	137	3	3	2	I	2	0	1264	1	poli_8sides 7_whiteLine3.jpg	Short_b20_cut1_stereo_44KHz.wav
1	138	4	4	2	I	2	0	872	1	poli_8sides 10_whiteLine3.jpg	Short_b23_cut1_stereo_44KHz.wav
1	139	2	2	1	C	0	0	0	0	poli_8sides 18_whiteLine3.jpg	Short_b22_cut1_stereo_44KHz.wav
1	140	1	1	1	C	2	0	844	0	poli_8sides 15_whiteLine3.jpg	Short_b09_cut1_stereo_44KHz.wav
1	141	3	4	2	I	2	0	932	1	poli_8sides 7_whiteLine3.jpg	Short_b23_cut1_stereo_44KHz.wav
1	142	2	1	0	C	2	1	1603	1	poli_8sides 18_whiteLine3.jpg	Short_b09_cut1_stereo_44KHz.wav
1	143	4	3	2	I	2	0	888	1	poli_8sides 10_whiteLine3.jpg	Short_b20_cut1_stereo_44KHz.wav
1	144	1	2	0	C	2	1	908	1	poli_8sides 15_whiteLine3.jpg	Short_b22_cut1_stereo_44KHz.wav
1	145	2	2	1	C	1	1	1816	1	poli_8sides 18_whiteLine3.jpg	Short_b22_cut1_stereo_44KHz.wav
1	146	3	4	2	I	2	0	853	1	poli_8sides 7_whiteLine3.jpg	Short_b23_cut1_stereo_44KHz.wav
1	147	4	4	2	I	2	0	950	1	poli_8sides 10_whiteLine3.jpg	Short_b23_cut1_stereo_44KHz.wav
1	148	1	1	1	C	1	1	909	1	poli_8sides 15_whiteLine3.jpg	Short_b09_cut1_stereo_44KHz.wav
1	149	4	3	2	I	2	0	463	0	poli_8sides 10_whiteLine3.jpg	Short_b20_cut1_stereo_44KHz.wav
1	150	1	2	0	C	1	0	1184	0	poli_8sides 15_whiteLine3.jpg	Short_b22_cut1_stereo_44KHz.wav
1	151	2	1	0	C	2	1	397	1	poli_8sides 18_whiteLine3.jpg	Short_b09_cut1_stereo_44KHz.wav
1	152	3	3	2	I	1	0	1324	1	poli_8sides 7_whiteLine3.jpg	Short_b20_cut1_stereo_44KHz.wav
1	153	4	4	2	I	2	0	540	0	poli_8sides 10_whiteLine3.jpg	Short_b23_cut1_stereo_44KHz.wav
1	154	2	2	1	C	1	1	1681	1	poli_8sides 18_whiteLine3.jpg	Short_b22_cut1_stereo_44KHz.wav
1	155	3	4	2	I	2	0	568	0	poli_8sides 7_whiteLine3.jpg	Short_b23_cut1_stereo_44KHz.wav
1	156	1	1	1	C	1	1	368	1	poli_8sides 15_whiteLine3.jpg	Short_b09_cut1_stereo_44KHz.wav
1	157	2	1	0	C	2	1	675	1	poli_8sides 18_whiteLine3.jpg	Short_b09_cut1_stereo_44KHz.wav
1	158	4	3	2	I	2	0	1271	0	poli_8sides 10_whiteLine3.jpg	Short_b20_cut1_stereo_44KHz.wav
1	159	1	2	0	C	0	0	0	0	poli_8sides 15_whiteLine3.jpg	Short_b22_cut1_stereo_44KHz.wav
1	160	3	3	2	I	2	0	681	0	poli_8sides 7_whiteLine3.jpg	Short_b20_cut1_stereo_44KHz.wav
1	161	2	2	1	C	1	1	553	1	poli_8sides 18_whiteLine3.jpg	Short_b22_cut1_stereo_44KHz.wav
1	162	3	3	2	I	2	0	709	1	poli_8sides 7_whiteLine3.jpg	Short_b20_cut1_stereo_44KHz.wav
1	163	4	4	2	I	1	0	1043	0	poli_8sides 10_whiteLine3.jpg	Short_b23_cut1_stereo_44KHz.wav
1	164	1	2	0	C	2	1	542	1	poli_8sides 15_whiteLine3.jpg	Short_b22_cut1_stereo_44KHz.wav
1	165	2	1	0	C	2	1	1342	1	poli_8sides 18_whiteLine3.jpg	Short_b09_cut1_stereo_44KHz.wav
1	166	3	4	2	I	2	0	1029	1	poli_8sides 7_whiteLine3.jpg	Short_b23_cut1_stereo_44KHz.wav
1	167	4	3	2	I	2	0	1422	0	poli_8sides 10_whiteLine3.jpg	Short_b20_cut1_stereo_44KHz.wav
1	168	1	1	1	C	0	0	0	0	poli_8sides 15_whiteLine3.jpg	Short_b09_cut1_stereo_44KHz.wav
1	169	3	4	2	I	2	0	1104	1	poli_8sides 7_whiteLine3.jpg	Short_b23_cut1_stereo_44KHz.wav
1	170	4	4	2	I	1	0	1387	0	poli_8sides 10_whiteLine3.jpg	Short_b23_cut1_stereo_44KHz.wav
1	171	2	1	0	C	2	1	438	1	poli_8sides 18_whiteLine3.jpg	Short_b09_cut1_stereo_44KHz.wav
1	172	1	1	1	C	2	0	1041	0	poli_8sides 15_whiteLine3.jpg	Short_b09_cut1_stereo_44KHz.wav
1	173	2	2	1	C	2	0	761	0	poli_8sides 18_whiteLine3.jpg	Short_b22_cut1_stereo_44KHz.wav
1	174	3	3	2	I	1	0	1041	1	poli_8sides 7_whiteLine3.jpg	Short_b20_cut1_stereo_44KHz.wav
1	175	4	3	2	I	2	0	379	0	poli_8sides 10_whiteLine3.jpg	Short_b20_cut1_stereo_44KHz.wav
1	176	1	2	0	C	2	1	420	1	poli_8sides 15_whiteLine3.jpg	Short_b22_cut1_stereo_44KHz.wav
1	177	3	3	2	I	1	0	1050	0	poli_8sides 7_whiteLine3.jpg	Short_b20_cut1_stereo_44KHz.wav
1	178	4	3	2	I	2	0	679	1	poli_8sides 10_whiteLine3.jpg	Short_b20_cut1_stereo_44KHz.wav
1	179	1	1	1	C	2	0	837	0	poli_8sides 15_whiteLine3.jpg	Short_b09_cut1_stereo_44KHz.wav
1	180	2	2	1	C	2	0	1440	0	poli_8sides 18_whiteLine3.jpg	Short_b22_cut1_stereo_44KHz.wav
1	181	1	2	0	C	1	0	1061	0	poli_8sides 15_whiteLine3.jpg	Short_b22_cut1_stereo_44KHz.wav
1	182	4	4	2	I	2	0	756	1	poli_8sides 10_whiteLine3.jpg	Short_b23_cut1_stereo_44KHz.wav
1	183	2	1	0	C	1	0	1909	0	poli_8sides 18_whiteLine3.jpg	Short_b09_cut1_stereo_44KHz.wav
1	184	3	4	2	I	2	0	1459	0	poli_8sides 7_whiteLine3.jpg	Short_b23_cut1_stereo_44KHz.wav
1	185	2	1	0	C	1	0	1200	0	poli_8sides 18_whiteLine3.jpg	Short_b09_cut1_stereo_44KHz.wav
1	186	1	2	0	C	2	1	744	1	poli_8sides 15_whiteLine3.jpg	Short_b22_cut1_stereo_44KHz.wav
1	187	3	4	2	I	2	0	1253	1	poli_8sides 7_whiteLine3.jpg	Short_b23_cut1_stereo_44KHz.wav
1	188	4	3	2	I	1	0	1365	0	poli_8sides 10_whiteLine3.jpg	Short_b20_cut1_stereo_44KHz.wav
1	189	2	2	1	C	2	0	526	0	poli_8sides 18_whiteLine3.jpg	Short_b22_cut1_stereo_44KHz.wav
1	190	4	4	2	I	2	0	835	0	poli_8sides 10_whiteLine3.jpg	Short_b23_cut1_stereo_44KHz.wav
1	191	3	3	2	I	1	0	1539	1	poli_8sides 7_whiteLine3.jpg	Short_b20_cut1_stereo_44KHz.wav
1	192	1	1	1	C	2	0	1072	0	poli_8sides 15_whiteLine3.jpg	Short_b09_cut1_stereo_44KHz.wav
1	193	3	3	2	I	2	0	827	0	poli_8sides 7_whiteLine3.jpg	Short_b20_cut1_stereo_44KHz.wav
1	194	4	4	2	I	1	0	440	0	poli_8sides 10_whiteLine3.jpg	Short_b23_cut1_stereo_44KHz.wav
1	195	1	2	0	C	2	1	851	1	poli_8sides 15_whiteLine3.jpg	Short_b22_cut1_stereo_44KHz.wav
1	196	2	2	1	C	2	0	625	0	poli_8sides 18_whiteLine3.jpg	Short_b22_cut1_stereo_44KHz.wav
1	197	3	4	2	I	2	0	1269	0	poli_8sides 7_whiteLine3.jpg	Short_b23_cut1_stereo_44KHz.wav
1	198	1	1	1	C	2	0	673	0	poli_8sides 15_whiteLine3.jpg	Short_b09_cut1_stereo_44KHz.wav
1	199	4	3	2	I	1	0	1282	0	poli_8sides 10_whiteLine3.jpg	Short_b20_cut1_stereo_44KHz.wav
1	200	2	1	0	C	2	1	451	1	poli_8sides 18_whiteLine3.jpg	Short_b09_cut1_stereo_44KHz.wav
2	1	4	4	2	I	2	0	1437	1	poli_8sides 8_whiteLine3.jpg	Medium_e21_stereo_44KHz.wav
2	2	1	1	1	C	0	0	0	0	poli_8sides 3_whiteLine3.jpg	MediumLong_e17_cut2_stereo_44KHz.wav
2	3	2	1	0	C	2	1	496	1	poli_8sides 9_whiteLine3.jpg	MediumLong_e17_cut2_stereo_44KHz.wav
2	4	3	3	2	I	1	0	615	0	poli_8sides 4_whiteLine3.jpg	Medium_e13_stereo_44KHz.wav
2	5	2	2	1	C	1	1	1249	1	poli_8sides 9_whiteLine3.jpg	Medium_e26_stereo_44KHz.wav
2	6	4	3	2	I	2	0	705	0	poli_8sides 8_whiteLine3.jpg	Medium_e13_stereo_44KHz.wav
2	7	3	4	2	I	1	0	573	0	poli_8sides 4_whiteLine3.jpg	Medium_e21_stereo_44KHz.wav
2	8	1	2	0	C	2	1	415	1	poli_8sides 3_whiteLine3.jpg	Medium_e26_stereo_44KHz.wav
2	9	4	4	2	I	2	0	986	1	poli_8sides 8_whiteLine3.jpg	Medium_e21_stereo_44KHz.wav
2	10	2	1	0	C	2	1	911	1	poli_8sides 9_whiteLine3.jpg	MediumLong_e17_cut2_stereo_44KHz.wav
2	11	3	4	2	I	2	0	1743	0	poli_8sides 4_whiteLine3.jpg	Medium_e21_stereo_44KHz.wav
2	12	1	1	1	C	2	0	569	0	poli_8sides 3_whiteLine3.jpg	MediumLong_e17_cut2_stereo_44KHz.wav
2	13	3	3	2	I	2	0	572	0	poli_8sides 4_whiteLine3.jpg	Medium_e13_stereo_44KHz.wav
2	14	4	3	2	I	2	0	501	0	poli_8sides 8_whiteLine3.jpg	Medium_e13_stereo_44KHz.wav
2	15	2	2	1	C	2	0	832	0	poli_8sides 9_whiteLine3.jpg	Medium_e26_stereo_44KHz.wav
2	16	1	2	0	C	2	1	565	1	poli_8sides 3_whiteLine3.jpg	Medium_e26_stereo_44KHz.wav
2	17	2	2	1	C	1	1	738	1	poli_8sides 9_whiteLine3.jpg	Medium_e26_stereo_44KHz.wav
2	18	1	1	1	C	1	1	618	1	poli_8sides 3_whiteLine3.jpg	MediumLong_e17_cut2_stereo_44KHz.wav
2	19	3	3	2	I	2	0	600	1	poli_8sides 4_whiteLine3.jpg	Medium_e13_stereo_44KHz.wav
2	20	4	3	2	I	2	0	769	0	poli_8sides 8_whiteLine3.jpg	Medium_e13_stereo_44KHz.wav
2	21	1	2	0	C	2	1	1673	1	poli_8sides 3_whiteLine3.jpg	Medium_e26_stereo_44KHz.wav
2	22	2	1	0	C	1	0	905	0	poli_8sides 9_whiteLine3.jpg	MediumLong_e17_cut2_stereo_44KHz.wav
2	23	4	4	2	I	2	0	437	0	poli_8sides 8_whiteLine3.jpg	Medium_e21_stereo_44KHz.wav
2	24	3	4	2	I	2	0	514	1	poli_8sides 4_whiteLine3.jpg	Medium_e21_stereo_44KHz.wav
2	25	2	2	1	C	2	0	929	0	poli_8sides 9_whiteLine3.jpg	Medium_e26_stereo_44KHz.wav
2	26	3	3	2	I	2	0	802	0	poli_8sides 4_whiteLine3.jpg	Medium_e13_stereo_44KHz.wav
2	27	4	4	2	I	1	0	438	1	poli_8sides 8_whiteLine3.jpg	Medium_e21_stereo_44KHz.wav
2	28	1	1	1	C	2	0	448	0	poli_8sides 3_whiteLine3.jpg	MediumLong_e17_cut2_stereo_44KHz.wav
2	29	4	3	2	I	1	0	623	0	poli_8sides 8_whiteLine3.jpg	Medium_e13_stereo_44KHz.wav
2	30	1	2	0	C	2	1	398	1	poli_8sides 3_whiteLine3.jpg	Medium_e26_stereo_44KHz.wav
2	31	2	1	0	C	2	1	664	1	poli_8sides 9_whiteLine3.jpg	MediumLong_e17_cut2_stereo_44KHz.wav
2	32	3	4	2	I	2	0	679	1	poli_8sides 4_whiteLine3.jpg	Medium_e21_stereo_44KHz.wav
2	33	2	2	1	C	2	0	664	0	poli_8sides 9_whiteLine3.jpg	Medium_e26_stereo_44KHz.wav
2	34	1	2	0	C	1	0	683	0	poli_8sides 3_whiteLine3.jpg	Medium_e26_stereo_44KHz.wav
2	35	3	4	2	I	2	0	492	0	poli_8sides 4_whiteLine3.jpg	Medium_e21_stereo_44KHz.wav
2	36	4	4	2	I	2	0	658	0	poli_8sides 8_whiteLine3.jpg	Medium_e21_stereo_44KHz.wav
2	37	1	1	1	C	2	0	430	0	poli_8sides 3_whiteLine3.jpg	MediumLong_e17_cut2_stereo_44KHz.wav
2	38	2	1	0	C	2	1	299	1	poli_8sides 9_whiteLine3.jpg	MediumLong_e17_cut2_stereo_44KHz.wav
2	39	3	3	2	I	1	0	1366	0	poli_8sides 4_whiteLine3.jpg	Medium_e13_stereo_44KHz.wav
2	40	4	3	2	I	2	0	1020	1	poli_8sides 8_whiteLine3.jpg	Medium_e13_stereo_44KHz.wav
2	41	2	2	1	C	2	0	701	0	poli_8sides 9_whiteLine3.jpg	Medium_e26_stereo_44KHz.wav
2	42	3	4	2	I	2	0	1043	1	poli_8sides 4_whiteLine3.jpg	Medium_e21_stereo_44KHz.wav
2	43	4	4	2	I	2	0	591	0	poli_8sides 8_whiteLine3.jpg	Medium_e21_stereo_44KHz.wav
2	44	1	1	1	C	2	0	683	0	poli_8sides 3_whiteLine3.jpg	MediumLong_e17_cut2_stereo_44KHz.wav
2	45	3	3	2	I	1	0	1090	1	poli_8sides 4_whiteLine3.jpg	Medium_e13_stereo_44KHz.wav
2	46	2	1	0	C	2	1	358	1	poli_8sides 9_whiteLine3.jpg	MediumLong_e17_cut2_stereo_44KHz.wav
2	47	1	2	0	C	2	1	1046	1	poli_8sides 3_whiteLine3.jpg	Medium_e26_stereo_44KHz.wav
2	48	4	3	2	I	2	0	822	1	poli_8sides 8_whiteLine3.jpg	Medium_e13_stereo_44KHz.wav
2	49	3	3	2	I	1	0	1001	0	poli_8sides 4_whiteLine3.jpg	Medium_e13_stereo_44KHz.wav
2	50	4	4	2	I	2	0	377	0	poli_8sides 8_whiteLine3.jpg	Medium_e21_stereo_44KHz.wav
2	51	2	2	1	C	2	0	689	0	poli_8sides 9_whiteLine3.jpg	Medium_e26_stereo_44KHz.wav
2	52	1	1	1	C	2	0	489	0	poli_8sides 3_whiteLine3.jpg	MediumLong_e17_cut2_stereo_44KHz.wav
2	53	2	1	0	C	2	1	566	1	poli_8sides 9_whiteLine3.jpg	MediumLong_e17_cut2_stereo_44KHz.wav
2	54	1	2	0	C	2	1	655	1	poli_8sides 3_whiteLine3.jpg	Medium_e26_stereo_44KHz.wav
2	55	3	4	2	I	2	0	836	1	poli_8sides 4_whiteLine3.jpg	Medium_e21_stereo_44KHz.wav
2	56	4	3	2	I	2	0	1276	1	poli_8sides 8_whiteLine3.jpg	Medium_e13_stereo_44KHz.wav
2	57	2	1	0	C	2	1	790	1	poli_8sides 9_whiteLine3.jpg	MediumLong_e17_cut2_stereo_44KHz.wav
2	58	1	2	0	C	2	1	784	1	poli_8sides 3_whiteLine3.jpg	Medium_e26_stereo_44KHz.wav
2	59	3	3	2	I	2	0	930	0	poli_8sides 4_whiteLine3.jpg	Medium_e13_stereo_44KHz.wav
2	60	4	4	2	I	2	0	1369	0	poli_8sides 8_whiteLine3.jpg	Medium_e21_stereo_44KHz.wav
2	61	3	4	2	I	2	0	965	0	poli_8sides 4_whiteLine3.jpg	Medium_e21_stereo_44KHz.wav
2	62	4	3	2	I	2	0	901	0	poli_8sides 8_whiteLine3.jpg	Medium_e13_stereo_44KHz.wav
2	63	1	1	1	C	2	0	615	0	poli_8sides 3_whiteLine3.jpg	MediumLong_e17_cut2_stereo_44KHz.wav
2	64	2	2	1	C	2	0	716	0	poli_8sides 9_whiteLine3.jpg	Medium_e26_stereo_44KHz.wav
2	65	4	3	2	I	2	0	719	1	poli_8sides 8_whiteLine3.jpg	Medium_e13_stereo_44KHz.wav
2	66	3	3	2	I	1	0	1801	1	poli_8sides 4_whiteLine3.jpg	Medium_e13_stereo_44KHz.wav
2	67	2	2	1	C	2	0	662	0	poli_8sides 9_whiteLine3.jpg	Medium_e26_stereo_44KHz.wav
2	68	1	1	1	C	1	1	1245	1	poli_8sides 3_whiteLine3.jpg	MediumLong_e17_cut2_stereo_44KHz.wav
2	69	4	4	2	I	2	0	320	0	poli_8sides 8_whiteLine3.jpg	Medium_e21_stereo_44KHz.wav
2	70	3	4	2	I	2	0	421	1	poli_8sides 4_whiteLine3.jpg	Medium_e21_stereo_44KHz.wav
2	71	2	1	0	C	2	1	1079	1	poli_8sides 9_whiteLine3.jpg	MediumLong_e17_cut2_stereo_44KHz.wav
2	72	1	2	0	C	2	1	431	1	poli_8sides 3_whiteLine3.jpg	Medium_e26_stereo_44KHz.wav
2	73	2	2	1	C	1	1	847	1	poli_8sides 9_whiteLine3.jpg	Medium_e26_stereo_44KHz.wav
2	74	3	3	2	I	2	0	817	1	poli_8sides 4_whiteLine3.jpg	Medium_e13_stereo_44KHz.wav
2	75	4	3	2	I	1	0	931	1	poli_8sides 8_whiteLine3.jpg	Medium_e13_stereo_44KHz.wav
2	76	1	2	0	C	2	1	736	1	poli_8sides 3_whiteLine3.jpg	Medium_e26_stereo_44KHz.wav
2	77	2	1	0	C	2	1	1400	1	poli_8sides 9_whiteLine3.jpg	MediumLong_e17_cut2_stereo_44KHz.wav
2	78	4	4	2	I	2	0	1719	1	poli_8sides 8_whiteLine3.jpg	Medium_e21_stereo_44KHz.wav
2	79	1	1	1	C	2	0	1141	0	poli_8sides 3_whiteLine3.jpg	MediumLong_e17_cut2_stereo_44KHz.wav
2	80	3	4	2	I	2	0	821	1	poli_8sides 4_whiteLine3.jpg	Medium_e21_stereo_44KHz.wav
2	81	1	1	1	C	2	0	594	0	poli_8sides 3_whiteLine3.jpg	MediumLong_e17_cut2_stereo_44KHz.wav
2	82	3	4	2	I	2	0	876	0	poli_8sides 4_whiteLine3.jpg	Medium_e21_stereo_44KHz.wav
2	83	4	4	2	I	2	0	949	1	poli_8sides 8_whiteLine3.jpg	Medium_e21_stereo_44KHz.wav
2	84	2	2	1	C	2	0	1384	0	poli_8sides 9_whiteLine3.jpg	Medium_e26_stereo_44KHz.wav
2	85	4	3	2	I	2	0	800	0	poli_8sides 8_whiteLine3.jpg	Medium_e13_stereo_44KHz.wav
2	86	3	3	2	I	2	0	680	0	poli_8sides 4_whiteLine3.jpg	Medium_e13_stereo_44KHz.wav
2	87	2	1	0	C	2	1	864	1	poli_8sides 9_whiteLine3.jpg	MediumLong_e17_cut2_stereo_44KHz.wav
2	88	1	2	0	C	2	1	573	1	poli_8sides 3_whiteLine3.jpg	Medium_e26_stereo_44KHz.wav
2	89	3	3	2	I	2	0	672	1	poli_8sides 4_whiteLine3.jpg	Medium_e13_stereo_44KHz.wav
2	90	2	1	0	C	2	1	811	1	poli_8sides 9_whiteLine3.jpg	MediumLong_e17_cut2_stereo_44KHz.wav
2	91	1	2	0	C	2	1	746	1	poli_8sides 3_whiteLine3.jpg	Medium_e26_stereo_44KHz.wav
2	92	4	3	2	I	2	0	1267	1	poli_8sides 8_whiteLine3.jpg	Medium_e13_stereo_44KHz.wav
2	93	1	1	1	C	2	0	1208	0	poli_8sides 3_whiteLine3.jpg	MediumLong_e17_cut2_stereo_44KHz.wav
2	94	3	4	2	I	1	0	969	1	poli_8sides 4_whiteLine3.jpg	Medium_e21_stereo_44KHz.wav
2	95	4	4	2	I	2	0	818	1	poli_8sides 8_whiteLine3.jpg	Medium_e21_stereo_44KHz.wav
2	96	2	2	1	C	2	0	1882	0	poli_8sides 9_whiteLine3.jpg	Medium_e26_stereo_44KHz.wav
2	97	3	4	2	I	2	0	816	0	poli_8sides 4_whiteLine3.jpg	Medium_e21_stereo_44KHz.wav
2	98	4	3	2	I	2	0	1012	1	poli_8sides 8_whiteLine3.jpg	Medium_e13_stereo_44KHz.wav
2	99	2	2	1	C	2	0	454	0	poli_8sides 9_whiteLine3.jpg	Medium_e26_stereo_44KHz.wav
2	100	1	1	1	C	2	0	808	0	poli_8sides 3_whiteLine3.jpg	MediumLong_e17_cut2_stereo_44KHz.wav
2	101	2	1	0	C	2	1	501	1	poli_8sides 9_whiteLine3.jpg	MediumLong_e17_cut2_stereo_44KHz.wav
2	102	4	4	2	I	2	0	700	1	poli_8sides 8_whiteLine3.jpg	Medium_e21_stereo_44KHz.wav
2	103	3	3	2	I	2	0	699	1	poli_8sides 4_whiteLine3.jpg	Medium_e13_stereo_44KHz.wav
2	104	1	2	0	C	2	1	733	1	poli_8sides 3_whiteLine3.jpg	Medium_e26_stereo_44KHz.wav
2	105	3	4	2	I	2	0	800	1	poli_8sides 4_whiteLine3.jpg	Medium_e21_stereo_44KHz.wav
2	106	4	4	2	I	2	0	750	1	poli_8sides 8_whiteLine3.jpg	Medium_e21_stereo_44KHz.wav
2	107	2	1	0	C	2	1	1025	1	poli_8sides 9_whiteLine3.jpg	MediumLong_e17_cut2_stereo_44KHz.wav
2	108	1	2	0	C	2	1	902	1	poli_8sides 3_whiteLine3.jpg	Medium_e26_stereo_44KHz.wav
2	109	2	2	1	C	1	1	1139	1	poli_8sides 9_whiteLine3.jpg	Medium_e26_stereo_44KHz.wav
2	110	3	3	2	I	2	0	827	1	poli_8sides 4_whiteLine3.jpg	Medium_e13_stereo_44KHz.wav
2	111	4	3	2	I	1	0	1024	1	poli_8sides 8_whiteLine3.jpg	Medium_e13_stereo_44KHz.wav
2	112	1	1	1	C	0	0	0	0	poli_8sides 3_whiteLine3.jpg	MediumLong_e17_cut2_stereo_44KHz.wav
2	113	2	2	1	C	2	0	1257	0	poli_8sides 9_whiteLine3.jpg	Medium_e26_stereo_44KHz.wav
2	114	3	3	2	I	2	0	745	0	poli_8sides 4_whiteLine3.jpg	Medium_e13_stereo_44KHz.wav
2	115	4	3	2	I	2	0	966	1	poli_8sides 8_whiteLine3.jpg	Medium_e13_stereo_44KHz.wav
2	116	1	2	0	C	2	1	1212	1	poli_8sides 3_whiteLine3.jpg	Medium_e26_stereo_44KHz.wav
2	117	4	4	2	I	2	0	727	0	poli_8sides 8_whiteLine3.jpg	Medium_e21_stereo_44KHz.wav
2	118	3	4	2	I	2	0	1031	1	poli_8sides 4_whiteLine3.jpg	Medium_e21_stereo_44KHz.wav
2	119	1	1	1	C	2	0	699	0	poli_8sides 3_whiteLine3.jpg	MediumLong_e17_cut2_stereo_44KHz.wav
2	120	2	1	0	C	2	1	666	1	poli_8sides 9_whiteLine3.jpg	MediumLong_e17_cut2_stereo_44KHz.wav
2	121	1	1	1	C	2	0	481	0	poli_8sides 3_whiteLine3.jpg	MediumLong_e17_cut2_stereo_44KHz.wav
2	122	2	2	1	C	2	0	574	0	poli_8sides 9_whiteLine3.jpg	Medium_e26_stereo_44KHz.wav
2	123	4	4	2	I	1	0	1273	0	poli_8sides 8_whiteLine3.jpg	Medium_e21_stereo_44KHz.wav
2	124	3	3	2	I	2	0	905	0	poli_8sides 4_whiteLine3.jpg	Medium_e13_stereo_44KHz.wav
2	125	2	1	0	C	2	1	598	1	poli_8sides 9_whiteLine3.jpg	MediumLong_e17_cut2_stereo_44KHz.wav
2	126	4	3	2	I	2	0	460	1	poli_8sides 8_whiteLine3.jpg	Medium_e13_stereo_44KHz.wav
2	127	3	4	2	I	2	0	684	1	poli_8sides 4_whiteLine3.jpg	Medium_e21_stereo_44KHz.wav
2	128	1	2	0	C	2	1	1015	1	poli_8sides 3_whiteLine3.jpg	Medium_e26_stereo_44KHz.wav
2	129	2	2	1	C	0	0	0	0	poli_8sides 9_whiteLine3.jpg	Medium_e26_stereo_44KHz.wav
2	130	4	3	2	I	2	0	1403	1	poli_8sides 8_whiteLine3.jpg	Medium_e13_stereo_44KHz.wav
2	131	1	1	1	C	2	0	980	0	poli_8sides 3_whiteLine3.jpg	MediumLong_e17_cut2_stereo_44KHz.wav
2	132	3	4	2	I	2	0	900	1	poli_8sides 4_whiteLine3.jpg	Medium_e21_stereo_44KHz.wav
2	133	4	4	2	I	2	0	926	0	poli_8sides 8_whiteLine3.jpg	Medium_e21_stereo_44KHz.wav
2	134	1	2	0	C	2	1	688	1	poli_8sides 3_whiteLine3.jpg	Medium_e26_stereo_44KHz.wav
2	135	2	1	0	C	2	1	372	1	poli_8sides 9_whiteLine3.jpg	MediumLong_e17_cut2_stereo_44KHz.wav
2	136	3	3	2	I	2	0	615	1	poli_8sides 4_whiteLine3.jpg	Medium_e13_stereo_44KHz.wav
2	137	1	2	0	C	2	1	556	1	poli_8sides 3_whiteLine3.jpg	Medium_e26_stereo_44KHz.wav
2	138	3	4	2	I	2	0	614	0	poli_8sides 4_whiteLine3.jpg	Medium_e21_stereo_44KHz.wav
2	139	2	2	1	C	1	1	635	1	poli_8sides 9_whiteLine3.jpg	Medium_e26_stereo_44KHz.wav
2	140	4	4	2	I	2	0	694	0	poli_8sides 8_whiteLine3.jpg	Medium_e21_stereo_44KHz.wav
2	141	2	1	0	C	2	1	337	1	poli_8sides 9_whiteLine3.jpg	MediumLong_e17_cut2_stereo_44KHz.wav
2	142	3	3	2	I	2	0	598	0	poli_8sides 4_whiteLine3.jpg	Medium_e13_stereo_44KHz.wav
2	143	1	1	1	C	2	0	401	0	poli_8sides 3_whiteLine3.jpg	MediumLong_e17_cut2_stereo_44KHz.wav
2	144	4	3	2	I	2	0	538	1	poli_8sides 8_whiteLine3.jpg	Medium_e13_stereo_44KHz.wav
2	145	1	2	0	C	2	1	621	1	poli_8sides 3_whiteLine3.jpg	Medium_e26_stereo_44KHz.wav
2	146	4	3	2	I	2	0	424	0	poli_8sides 8_whiteLine3.jpg	Medium_e13_stereo_44KHz.wav
2	147	3	3	2	I	2	0	551	1	poli_8sides 4_whiteLine3.jpg	Medium_e13_stereo_44KHz.wav
2	148	2	2	1	C	1	1	424	1	poli_8sides 9_whiteLine3.jpg	Medium_e26_stereo_44KHz.wav
2	149	4	4	2	I	2	0	217	0	poli_8sides 8_whiteLine3.jpg	Medium_e21_stereo_44KHz.wav
2	150	2	1	0	C	2	1	456	1	poli_8sides 9_whiteLine3.jpg	MediumLong_e17_cut2_stereo_44KHz.wav
2	151	1	1	1	C	1	1	1249	1	poli_8sides 3_whiteLine3.jpg	MediumLong_e17_cut2_stereo_44KHz.wav
2	152	3	4	2	I	2	0	656	0	poli_8sides 4_whiteLine3.jpg	Medium_e21_stereo_44KHz.wav
2	153	4	3	2	I	2	0	386	0	poli_8sides 8_whiteLine3.jpg	Medium_e13_stereo_44KHz.wav
2	154	3	4	2	I	2	0	676	1	poli_8sides 4_whiteLine3.jpg	Medium_e21_stereo_44KHz.wav
2	155	2	2	1	C	2	0	422	0	poli_8sides 9_whiteLine3.jpg	Medium_e26_stereo_44KHz.wav
2	156	1	1	1	C	2	0	580	0	poli_8sides 3_whiteLine3.jpg	MediumLong_e17_cut2_stereo_44KHz.wav
2	157	3	3	2	I	2	0	496	0	poli_8sides 4_whiteLine3.jpg	Medium_e13_stereo_44KHz.wav
2	158	4	4	2	I	2	0	534	0	poli_8sides 8_whiteLine3.jpg	Medium_e21_stereo_44KHz.wav
2	159	2	1	0	C	1	0	576	0	poli_8sides 9_whiteLine3.jpg	MediumLong_e17_cut2_stereo_44KHz.wav
2	160	1	2	0	C	2	1	613	1	poli_8sides 3_whiteLine3.jpg	Medium_e26_stereo_44KHz.wav
2	161	2	1	0	C	2	1	357	1	poli_8sides 9_whiteLine3.jpg	MediumLong_e17_cut2_stereo_44KHz.wav
2	162	4	3	2	I	2	0	451	1	poli_8sides 8_whiteLine3.jpg	Medium_e13_stereo_44KHz.wav
2	163	3	4	2	I	1	0	243	1	poli_8sides 4_whiteLine3.jpg	Medium_e21_stereo_44KHz.wav
2	164	1	1	1	C	2	0	277	0	poli_8sides 3_whiteLine3.jpg	MediumLong_e17_cut2_stereo_44KHz.wav
2	165	3	3	2	I	2	0	347	0	poli_8sides 4_whiteLine3.jpg	Medium_e13_stereo_44KHz.wav
2	166	2	2	1	C	1	1	481	1	poli_8sides 9_whiteLine3.jpg	Medium_e26_stereo_44KHz.wav
2	167	1	2	0	C	2	1	293	1	poli_8sides 3_whiteLine3.jpg	Medium_e26_stereo_44KHz.wav
2	168	4	4	2	I	1	0	1369	0	poli_8sides 8_whiteLine3.jpg	Medium_e21_stereo_44KHz.wav
2	169	2	1	0	C	2	1	497	1	poli_8sides 9_whiteLine3.jpg	MediumLong_e17_cut2_stereo_44KHz.wav
2	170	1	2	0	C	2	1	679	1	poli_8sides 3_whiteLine3.jpg	Medium_e26_stereo_44KHz.wav
2	171	3	4	2	I	2	0	563	0	poli_8sides 4_whiteLine3.jpg	Medium_e21_stereo_44KHz.wav
2	172	4	3	2	I	2	0	537	0	poli_8sides 8_whiteLine3.jpg	Medium_e13_stereo_44KHz.wav
2	173	2	2	1	C	2	0	372	0	poli_8sides 9_whiteLine3.jpg	Medium_e26_stereo_44KHz.wav
2	174	1	1	1	C	1	1	871	1	poli_8sides 3_whiteLine3.jpg	MediumLong_e17_cut2_stereo_44KHz.wav
2	175	3	3	2	I	2	0	1152	1	poli_8sides 4_whiteLine3.jpg	Medium_e13_stereo_44KHz.wav
2	176	4	4	2	I	2	0	405	1	poli_8sides 8_whiteLine3.jpg	Medium_e21_stereo_44KHz.wav
2	177	2	2	1	C	2	0	518	0	poli_8sides 9_whiteLine3.jpg	Medium_e26_stereo_44KHz.wav
2	178	1	2	0	C	2	1	490	1	poli_8sides 3_whiteLine3.jpg	Medium_e26_stereo_44KHz.wav
2	179	3	3	2	I	1	0	680	0	poli_8sides 4_whiteLine3.jpg	Medium_e13_stereo_44KHz.wav
2	180	4	3	2	I	1	0	984	1	poli_8sides 8_whiteLine3.jpg	Medium_e13_stereo_44KHz.wav
2	181	3	4	2	I	2	0	634	0	poli_8sides 4_whiteLine3.jpg	Medium_e21_stereo_44KHz.wav
2	182	1	1	1	C	2	0	449	0	poli_8sides 3_whiteLine3.jpg	MediumLong_e17_cut2_stereo_44KHz.wav
2	183	2	1	0	C	2	1	483	1	poli_8sides 9_whiteLine3.jpg	MediumLong_e17_cut2_stereo_44KHz.wav
2	184	4	4	2	I	2	0	348	0	poli_8sides 8_whiteLine3.jpg	Medium_e21_stereo_44KHz.wav
2	185	2	1	0	C	2	1	447	1	poli_8sides 9_whiteLine3.jpg	MediumLong_e17_cut2_stereo_44KHz.wav
2	186	4	3	2	I	2	0	1400	1	poli_8sides 8_whiteLine3.jpg	Medium_e13_stereo_44KHz.wav
2	187	3	4	2	I	2	0	1213	1	poli_8sides 4_whiteLine3.jpg	Medium_e21_stereo_44KHz.wav
2	188	1	1	1	C	2	0	1067	0	poli_8sides 3_whiteLine3.jpg	MediumLong_e17_cut2_stereo_44KHz.wav
2	189	3	3	2	I	2	0	1949	0	poli_8sides 4_whiteLine3.jpg	Medium_e13_stereo_44KHz.wav
2	190	2	2	1	C	2	0	722	0	poli_8sides 9_whiteLine3.jpg	Medium_e26_stereo_44KHz.wav
2	191	4	4	2	I	1	0	790	1	poli_8sides 8_whiteLine3.jpg	Medium_e21_stereo_44KHz.wav
2	192	1	2	0	C	2	1	758	1	poli_8sides 3_whiteLine3.jpg	Medium_e26_stereo_44KHz.wav
2	193	4	3	2	I	2	0	392	0	poli_8sides 8_whiteLine3.jpg	Medium_e13_stereo_44KHz.wav
2	194	1	2	0	C	2	1	749	1	poli_8sides 3_whiteLine3.jpg	Medium_e26_stereo_44KHz.wav
2	195	2	1	0	C	2	1	164	1	poli_8sides 9_whiteLine3.jpg	MediumLong_e17_cut2_stereo_44KHz.wav
2	196	3	4	2	I	2	0	719	1	poli_8sides 4_whiteLine3.jpg	Medium_e21_stereo_44KHz.wav
2	197	1	1	1	C	2	0	1070	0	poli_8sides 3_whiteLine3.jpg	MediumLong_e17_cut2_stereo_44KHz.wav
2	198	4	4	2	I	2	0	312	0	poli_8sides 8_whiteLine3.jpg	Medium_e21_stereo_44KHz.wav
2	199	3	3	2	I	2	0	495	0	poli_8sides 4_whiteLine3.jpg	Medium_e13_stereo_44KHz.wav
2	200	2	2	1	C	2	0	673	0	poli_8sides 9_whiteLine3.jpg	Medium_e26_stereo_44KHz.wav
3	1	1	2	0	C	2	1	1382	1	poli_8sides 6_whiteLine3.jpg	MediumShort_e16_cut1_stereo_44KHz.wav
3	2	2	2	1	C	1	1	680	1	poli_8sides 5_whiteLine3.jpg	MediumShort_e16_cut1_stereo_44KHz.wav
3	3	3	3	2	I	2	0	860	0	poli_8sides 2_whiteLine3.jpg	MediumShort_b16_cut3_MS_stereo_44KHz.wav
3	4	4	3	2	I	2	0	1019	0	poli_8sides 16_whiteLine3.jpg	MediumShort_b16_cut3_MS_stereo_44KHz.wav
3	5	1	1	1	C	2	0	1562	0	poli_8sides 6_whiteLine3.jpg	MediumShort_b10_cut1_MS_stereo_44KHz.wav
3	6	2	1	0	C	2	1	1216	1	poli_8sides 5_whiteLine3.jpg	MediumShort_b10_cut1_MS_stereo_44KHz.wav
3	7	3	4	2	I	2	0	731	1	poli_8sides 2_whiteLine3.jpg	MediumShort_e22_cut1_stereo_44KHz.wav
3	8	4	4	2	I	1	0	1379	1	poli_8sides 16_whiteLine3.jpg	MediumShort_e22_cut1_stereo_44KHz.wav
3	9	2	2	1	C	2	0	931	0	poli_8sides 5_whiteLine3.jpg	MediumShort_e16_cut1_stereo_44KHz.wav
3	10	1	2	0	C	2	1	892	1	poli_8sides 6_whiteLine3.jpg	MediumShort_e16_cut1_stereo_44KHz.wav
3	11	4	4	2	I	1	0	1465	1	poli_8sides 16_whiteLine3.jpg	MediumShort_e22_cut1_stereo_44KHz.wav
3	12	3	4	2	I	2	0	989	0	poli_8sides 2_whiteLine3.jpg	MediumShort_e22_cut1_stereo_44KHz.wav
3	13	2	1	0	C	1	0	1176	0	poli_8sides 5_whiteLine3.jpg	MediumShort_b10_cut1_MS_stereo_44KHz.wav
3	14	3	3	2	I	2	0	724	0	poli_8sides 2_whiteLine3.jpg	MediumShort_b16_cut3_MS_stereo_44KHz.wav
3	15	4	3	2	I	2	0	928	1	poli_8sides 16_whiteLine3.jpg	MediumShort_b16_cut3_MS_stereo_44KHz.wav
3	16	1	1	1	C	2	0	985	0	poli_8sides 6_whiteLine3.jpg	MediumShort_b10_cut1_MS_stereo_44KHz.wav
3	17	2	2	1	C	2	0	264	0	poli_8sides 5_whiteLine3.jpg	MediumShort_e16_cut1_stereo_44KHz.wav
3	18	3	4	2	I	2	0	489	1	poli_8sides 2_whiteLine3.jpg	MediumShort_e22_cut1_stereo_44KHz.wav
3	19	4	4	2	I	1	0	1094	0	poli_8sides 16_whiteLine3.jpg	MediumShort_e22_cut1_stereo_44KHz.wav
3	20	1	2	0	C	2	1	480	1	poli_8sides 6_whiteLine3.jpg	MediumShort_e16_cut1_stereo_44KHz.wav
3	21	3	3	2	I	2	0	405	0	poli_8sides 2_whiteLine3.jpg	MediumShort_b16_cut3_MS_stereo_44KHz.wav
3	22	2	1	0	C	2	1	1019	1	poli_8sides 5_whiteLine3.jpg	MediumShort_b10_cut1_MS_stereo_44KHz.wav
3	23	4	3	2	I	2	0	762	0	poli_8sides 16_whiteLine3.jpg	MediumShort_b16_cut3_MS_stereo_44KHz.wav
3	24	1	1	1	C	2	0	1263	0	poli_8sides 6_whiteLine3.jpg	MediumShort_b10_cut1_MS_stereo_44KHz.wav
3	25	2	2	1	C	1	1	1200	1	poli_8sides 5_whiteLine3.jpg	MediumShort_e16_cut1_stereo_44KHz.wav
3	26	4	3	2	I	2	0	691	1	poli_8sides 16_whiteLine3.jpg	MediumShort_b16_cut3_MS_stereo_44KHz.wav
3	27	1	2	0	C	2	1	939	1	poli_8sides 6_whiteLine3.jpg	MediumShort_e16_cut1_stereo_44KHz.wav
3	28	3	4	2	I	1	0	1065	0	poli_8sides 2_whiteLine3.jpg	MediumShort_e22_cut1_stereo_44KHz.wav
3	29	2	1	0	C	2	1	354	1	poli_8sides 5_whiteLine3.jpg	MediumShort_b10_cut1_MS_stereo_44KHz.wav
3	30	3	3	2	I	2	0	453	1	poli_8sides 2_whiteLine3.jpg	MediumShort_b16_cut3_MS_stereo_44KHz.wav
3	31	4	4	2	I	2	0	324	0	poli_8sides 16_whiteLine3.jpg	MediumShort_e22_cut1_stereo_44KHz.wav
3	32	1	1	1	C	1	1	1017	1	poli_8sides 6_whiteLine3.jpg	MediumShort_b10_cut1_MS_stereo_44KHz.wav
3	33	2	2	1	C	2	0	354	0	poli_8sides 5_whiteLine3.jpg	MediumShort_e16_cut1_stereo_44KHz.wav
3	34	1	2	0	C	2	1	456	1	poli_8sides 6_whiteLine3.jpg	MediumShort_e16_cut1_stereo_44KHz.wav
3	35	4	3	2	I	1	0	334	1	poli_8sides 16_whiteLine3.jpg	MediumShort_b16_cut3_MS_stereo_44KHz.wav
3	36	3	3	2	I	2	0	270	1	poli_8sides 2_whiteLine3.jpg	MediumShort_b16_cut3_MS_stereo_44KHz.wav
3	37	1	1	1	C	2	0	231	0	poli_8sides 6_whiteLine3.jpg	MediumShort_b10_cut1_MS_stereo_44KHz.wav
3	38	2	1	0	C	1	0	310	0	poli_8sides 5_whiteLine3.jpg	MediumShort_b10_cut1_MS_stereo_44KHz.wav
3	39	3	4	2	I	2	0	253	1	poli_8sides 2_whiteLine3.jpg	MediumShort_e22_cut1_stereo_44KHz.wav
3	40	4	4	2	I	2	0	179	1	poli_8sides 16_whiteLine3.jpg	MediumShort_e22_cut1_stereo_44KHz.wav
3	41	1	1	1	C	2	0	399	0	poli_8sides 6_whiteLine3.jpg	MediumShort_b10_cut1_MS_stereo_44KHz.wav
3	42	3	4	2	I	1	0	401	0	poli_8sides 2_whiteLine3.jpg	MediumShort_e22_cut1_stereo_44KHz.wav
3	43	2	2	1	C	2	0	321	0	poli_8sides 5_whiteLine3.jpg	MediumShort_e16_cut1_stereo_44KHz.wav
3	44	4	4	2	I	2	0	239	1	poli_8sides 16_whiteLine3.jpg	MediumShort_e22_cut1_stereo_44KHz.wav
3	45	1	2	0	C	2	1	204	1	poli_8sides 6_whiteLine3.jpg	MediumShort_e16_cut1_stereo_44KHz.wav
3	46	4	3	2	I	2	0	849	1	poli_8sides 16_whiteLine3.jpg	MediumShort_b16_cut3_MS_stereo_44KHz.wav
3	47	3	3	2	I	2	0	444	0	poli_8sides 2_whiteLine3.jpg	MediumShort_b16_cut3_MS_stereo_44KHz.wav
3	48	2	1	0	C	1	0	760	0	poli_8sides 5_whiteLine3.jpg	MediumShort_b10_cut1_MS_stereo_44KHz.wav
3	49	1	2	0	C	2	1	1730	1	poli_8sides 6_whiteLine3.jpg	MediumShort_e16_cut1_stereo_44KHz.wav
3	50	2	1	0	C	2	1	1270	1	poli_8sides 5_whiteLine3.jpg	MediumShort_b10_cut1_MS_stereo_44KHz.wav
3	51	4	3	2	I	2	0	768	0	poli_8sides 16_whiteLine3.jpg	MediumShort_b16_cut3_MS_stereo_44KHz.wav
3	52	3	4	2	I	2	0	1249	1	poli_8sides 2_whiteLine3.jpg	MediumShort_e22_cut1_stereo_44KHz.wav
3	53	2	2	1	C	2	0	1324	0	poli_8sides 5_whiteLine3.jpg	MediumShort_e16_cut1_stereo_44KHz.wav
3	54	3	3	2	I	2	0	622	0	poli_8sides 2_whiteLine3.jpg	MediumShort_b16_cut3_MS_stereo_44KHz.wav
3	55	4	4	2	I	1	0	410	0	poli_8sides 16_whiteLine3.jpg	MediumShort_e22_cut1_stereo_44KHz.wav
3	56	1	1	1	C	2	0	615	0	poli_8sides 6_whiteLine3.jpg	MediumShort_b10_cut1_MS_stereo_44KHz.wav
3	57	2	1	0	C	2	1	477	1	poli_8sides 5_whiteLine3.jpg	MediumShort_b10_cut1_MS_stereo_44KHz.wav
3	58	3	3	2	I	2	0	1176	1	poli_8sides 2_whiteLine3.jpg	MediumShort_b16_cut3_MS_stereo_44KHz.wav
3	59	1	1	1	C	2	0	484	0	poli_8sides 6_whiteLine3.jpg	MediumShort_b10_cut1_MS_stereo_44KHz.wav
3	60	4	3	2	I	1	0	547	0	poli_8sides 16_whiteLine3.jpg	MediumShort_b16_cut3_MS_stereo_44KHz.wav
3	61	2	2	1	C	2	0	375	0	poli_8sides 5_whiteLine3.jpg	MediumShort_e16_cut1_stereo_44KHz.wav
3	62	4	4	2	I	2	0	531	0	poli_8sides 16_whiteLine3.jpg	MediumShort_e22_cut1_stereo_44KHz.wav
3	63	3	4	2	I	1	0	538	1	poli_8sides 2_whiteLine3.jpg	MediumShort_e22_cut1_stereo_44KHz.wav
3	64	1	2	0	C	2	1	735	1	poli_8sides 6_whiteLine3.jpg	MediumShort_e16_cut1_stereo_44KHz.wav
3	65	2	2	1	C	1	1	715	1	poli_8sides 5_whiteLine3.jpg	MediumShort_e16_cut1_stereo_44KHz.wav
3	66	4	3	2	I	2	0	994	0	poli_8sides 16_whiteLine3.jpg	MediumShort_b16_cut3_MS_stereo_44KHz.wav
3	67	3	4	2	I	2	0	473	0	poli_8sides 2_whiteLine3.jpg	MediumShort_e22_cut1_stereo_44KHz.wav
3	68	1	2	0	C	2	1	406	1	poli_8sides 6_whiteLine3.jpg	MediumShort_e16_cut1_stereo_44KHz.wav
3	69	4	4	2	I	1	0	423	0	poli_8sides 16_whiteLine3.jpg	MediumShort_e22_cut1_stereo_44KHz.wav
3	70	1	1	1	C	2	0	610	0	poli_8sides 6_whiteLine3.jpg	MediumShort_b10_cut1_MS_stereo_44KHz.wav
3	71	3	3	2	I	2	0	595	0	poli_8sides 2_whiteLine3.jpg	MediumShort_b16_cut3_MS_stereo_44KHz.wav
3	72	2	1	0	C	1	0	271	0	poli_8sides 5_whiteLine3.jpg	MediumShort_b10_cut1_MS_stereo_44KHz.wav
3	73	1	1	1	C	2	0	269	0	poli_8sides 6_whiteLine3.jpg	MediumShort_b10_cut1_MS_stereo_44KHz.wav
3	74	3	4	2	I	2	0	364	0	poli_8sides 2_whiteLine3.jpg	MediumShort_e22_cut1_stereo_44KHz.wav
3	75	4	4	2	I	2	0	325	1	poli_8sides 16_whiteLine3.jpg	MediumShort_e22_cut1_stereo_44KHz.wav
3	76	2	1	0	C	1	0	394	0	poli_8sides 5_whiteLine3.jpg	MediumShort_b10_cut1_MS_stereo_44KHz.wav
3	77	4	3	2	I	2	0	435	1	poli_8sides 16_whiteLine3.jpg	MediumShort_b16_cut3_MS_stereo_44KHz.wav
3	78	3	3	2	I	2	0	381	1	poli_8sides 2_whiteLine3.jpg	MediumShort_b16_cut3_MS_stereo_44KHz.wav
3	79	1	2	0	C	2	1	1015	1	poli_8sides 6_whiteLine3.jpg	MediumShort_e16_cut1_stereo_44KHz.wav
3	80	2	2	1	C	1	1	1096	1	poli_8sides 5_whiteLine3.jpg	MediumShort_e16_cut1_stereo_44KHz.wav
3	81	4	3	2	I	2	0	716	1	poli_8sides 16_whiteLine3.jpg	MediumShort_b16_cut3_MS_stereo_44KHz.wav
3	82	2	1	0	C	2	1	949	1	poli_8sides 5_whiteLine3.jpg	MediumShort_b10_cut1_MS_stereo_44KHz.wav
3	83	1	1	1	C	1	1	825	1	poli_8sides 6_whiteLine3.jpg	MediumShort_b10_cut1_MS_stereo_44KHz.wav
3	84	3	3	2	I	2	0	725	1	poli_8sides 2_whiteLine3.jpg	MediumShort_b16_cut3_MS_stereo_44KHz.wav
3	85	1	2	0	C	1	0	1369	0	poli_8sides 6_whiteLine3.jpg	MediumShort_e16_cut1_stereo_44KHz.wav
3	86	4	4	2	I	0	0	0	0	poli_8sides 16_whiteLine3.jpg	MediumShort_e22_cut1_stereo_44KHz.wav
3	87	2	2	1	C	1	1	1078	1	poli_8sides 5_whiteLine3.jpg	MediumShort_e16_cut1_stereo_44KHz.wav
3	88	3	4	2	I	2	0	1019	0	poli_8sides 2_whiteLine3.jpg	MediumShort_e22_cut1_stereo_44KHz.wav
3	89	2	2	1	C	1	1	1186	1	poli_8sides 5_whiteLine3.jpg	MediumShort_e16_cut1_stereo_44KHz.wav
3	90	1	2	0	C	2	1	983	1	poli_8sides 6_whiteLine3.jpg	MediumShort_e16_cut1_stereo_44KHz.wav
3	91	3	3	2	I	2	0	740	1	poli_8sides 2_whiteLine3.jpg	MediumShort_b16_cut3_MS_stereo_44KHz.wav
3	92	4	3	2	I	1	0	767	0	poli_8sides 16_whiteLine3.jpg	MediumShort_b16_cut3_MS_stereo_44KHz.wav
3	93	1	1	1	C	1	1	1560	1	poli_8sides 6_whiteLine3.jpg	MediumShort_b10_cut1_MS_stereo_44KHz.wav
3	94	4	4	2	I	1	0	1970	0	poli_8sides 16_whiteLine3.jpg	MediumShort_e22_cut1_stereo_44KHz.wav
3	95	3	4	2	I	2	0	934	1	poli_8sides 2_whiteLine3.jpg	MediumShort_e22_cut1_stereo_44KHz.wav
3	96	2	1	0	C	2	1	925	1	poli_8sides 5_whiteLine3.jpg	MediumShort_b10_cut1_MS_stereo_44KHz.wav
3	97	1	1	1	C	1	1	1485	1	poli_8sides 6_whiteLine3.jpg	MediumShort_b10_cut1_MS_stereo_44KHz.wav
3	98	2	1	0	C	2	1	1182	1	poli_8sides 5_whiteLine3.jpg	MediumShort_b10_cut1_MS_stereo_44KHz.wav
3	99	3	3	2	I	2	0	1038	0	poli_8sides 2_whiteLine3.jpg	MediumShort_b16_cut3_MS_stereo_44KHz.wav
3	100	4	3	2	I	2	0	666	1	poli_8sides 16_whiteLine3.jpg	MediumShort_b16_cut3_MS_stereo_44KHz.wav
3	101	1	2	0	C	2	1	1694	1	poli_8sides 6_whiteLine3.jpg	MediumShort_e16_cut1_stereo_44KHz.wav
3	102	3	4	2	I	2	0	1072	0	poli_8sides 2_whiteLine3.jpg	MediumShort_e22_cut1_stereo_44KHz.wav
3	103	2	2	1	C	1	1	1037	1	poli_8sides 5_whiteLine3.jpg	MediumShort_e16_cut1_stereo_44KHz.wav
3	104	4	4	2	I	2	0	1163	1	poli_8sides 16_whiteLine3.jpg	MediumShort_e22_cut1_stereo_44KHz.wav
3	105	2	2	1	C	2	0	1961	0	poli_8sides 5_whiteLine3.jpg	MediumShort_e16_cut1_stereo_44KHz.wav
3	106	3	4	2	I	2	0	1249	1	poli_8sides 2_whiteLine3.jpg	MediumShort_e22_cut1_stereo_44KHz.wav
3	107	1	2	0	C	2	1	1772	1	poli_8sides 6_whiteLine3.jpg	MediumShort_e16_cut1_stereo_44KHz.wav
3	108	4	4	2	I	0	0	0	0	poli_8sides 16_whiteLine3.jpg	MediumShort_e22_cut1_stereo_44KHz.wav
3	109	3	3	2	I	2	0	780	1	poli_8sides 2_whiteLine3.jpg	MediumShort_b16_cut3_MS_stereo_44KHz.wav
3	110	2	1	0	C	2	1	805	1	poli_8sides 5_whiteLine3.jpg	MediumShort_b10_cut1_MS_stereo_44KHz.wav
3	111	4	3	2	I	2	0	1250	0	poli_8sides 16_whiteLine3.jpg	MediumShort_b16_cut3_MS_stereo_44KHz.wav
3	112	1	1	1	C	2	0	1087	0	poli_8sides 6_whiteLine3.jpg	MediumShort_b10_cut1_MS_stereo_44KHz.wav
3	113	2	2	1	C	1	1	1180	1	poli_8sides 5_whiteLine3.jpg	MediumShort_e16_cut1_stereo_44KHz.wav
3	114	3	3	2	I	2	0	746	1	poli_8sides 2_whiteLine3.jpg	MediumShort_b16_cut3_MS_stereo_44KHz.wav
3	115	1	1	1	C	1	1	1142	1	poli_8sides 6_whiteLine3.jpg	MediumShort_b10_cut1_MS_stereo_44KHz.wav
3	116	4	4	2	I	2	0	639	0	poli_8sides 16_whiteLine3.jpg	MediumShort_e22_cut1_stereo_44KHz.wav
3	117	3	4	2	I	2	0	1155	1	poli_8sides 2_whiteLine3.jpg	MediumShort_e22_cut1_stereo_44KHz.wav
3	118	1	2	0	C	2	1	844	1	poli_8sides 6_whiteLine3.jpg	MediumShort_e16_cut1_stereo_44KHz.wav
3	119	4	3	2	I	2	0	1370	1	poli_8sides 16_whiteLine3.jpg	MediumShort_b16_cut3_MS_stereo_44KHz.wav
3	120	2	1	0	C	2	1	1052	1	poli_8sides 5_whiteLine3.jpg	MediumShort_b10_cut1_MS_stereo_44KHz.wav
3	121	4	3	2	I	2	0	576	0	poli_8sides 16_whiteLine3.jpg	MediumShort_b16_cut3_MS_stereo_44KHz.wav
3	122	1	1	1	C	2	0	576	0	poli_8sides 6_whiteLine3.jpg	MediumShort_b10_cut1_MS_stereo_44KHz.wav
3	123	2	2	1	C	1	1	918	1	poli_8sides 5_whiteLine3.jpg	MediumShort_e16_cut1_stereo_44KHz.wav
3	124	3	3	2	I	2	0	1389	1	poli_8sides 2_whiteLine3.jpg	MediumShort_b16_cut3_MS_stereo_44KHz.wav
3	125	4	4	2	I	2	0	455	0	poli_8sides 16_whiteLine3.jpg	MediumShort_e22_cut1_stereo_44KHz.wav
3	126	2	1	0	C	2	1	854	1	poli_8sides 5_whiteLine3.jpg	MediumShort_b10_cut1_MS_stereo_44KHz.wav
3	127	3	4	2	I	2	0	611	0	poli_8sides 2_whiteLine3.jpg	MediumShort_e22_cut1_stereo_44KHz.wav
3	128	1	2	0	C	2	1	801	1	poli_8sides 6_whiteLine3.jpg	MediumShort_e16_cut1_stereo_44KHz.wav
3	129	4	3	2	I	2	0	541	0	poli_8sides 16_whiteLine3.jpg	MediumShort_b16_cut3_MS_stereo_44KHz.wav
3	130	2	1	0	C	2	1	722	1	poli_8sides 5_whiteLine3.jpg	MediumShort_b10_cut1_MS_stereo_44KHz.wav
3	131	3	3	2	I	2	0	907	1	poli_8sides 2_whiteLine3.jpg	MediumShort_b16_cut3_MS_stereo_44KHz.wav
3	132	1	1	1	C	1	1	1073	1	poli_8sides 6_whiteLine3.jpg	MediumShort_b10_cut1_MS_stereo_44KHz.wav
3	133	2	2	1	C	1	1	1060	1	poli_8sides 5_whiteLine3.jpg	MediumShort_e16_cut1_stereo_44KHz.wav
3	134	3	4	2	I	2	0	715	0	poli_8sides 2_whiteLine3.jpg	MediumShort_e22_cut1_stereo_44KHz.wav
3	135	4	4	2	I	2	0	283	0	poli_8sides 16_whiteLine3.jpg	MediumShort_e22_cut1_stereo_44KHz.wav
3	136	1	2	0	C	2	1	542	1	poli_8sides 6_whiteLine3.jpg	MediumShort_e16_cut1_stereo_44KHz.wav
3	137	3	3	2	I	2	0	487	0	poli_8sides 2_whiteLine3.jpg	MediumShort_b16_cut3_MS_stereo_44KHz.wav
3	138	1	1	1	C	2	0	890	0	poli_8sides 6_whiteLine3.jpg	MediumShort_b10_cut1_MS_stereo_44KHz.wav
3	139	4	3	2	I	2	0	1076	1	poli_8sides 16_whiteLine3.jpg	MediumShort_b16_cut3_MS_stereo_44KHz.wav
3	140	2	2	1	C	1	1	956	1	poli_8sides 5_whiteLine3.jpg	MediumShort_e16_cut1_stereo_44KHz.wav
3	141	4	4	2	I	2	0	1438	1	poli_8sides 16_whiteLine3.jpg	MediumShort_e22_cut1_stereo_44KHz.wav
3	142	1	2	0	C	2	1	687	1	poli_8sides 6_whiteLine3.jpg	MediumShort_e16_cut1_stereo_44KHz.wav
3	143	2	1	0	C	2	1	744	1	poli_8sides 5_whiteLine3.jpg	MediumShort_b10_cut1_MS_stereo_44KHz.wav
3	144	3	4	2	I	2	0	1031	0	poli_8sides 2_whiteLine3.jpg	MediumShort_e22_cut1_stereo_44KHz.wav
3	145	4	4	2	I	0	0	0	0	poli_8sides 16_whiteLine3.jpg	MediumShort_e22_cut1_stereo_44KHz.wav
3	146	2	2	1	C	2	0	1130	0	poli_8sides 5_whiteLine3.jpg	MediumShort_e16_cut1_stereo_44KHz.wav
3	147	1	1	1	C	2	0	716	0	poli_8sides 6_whiteLine3.jpg	MediumShort_b10_cut1_MS_stereo_44KHz.wav
3	148	3	3	2	I	2	0	753	1	poli_8sides 2_whiteLine3.jpg	MediumShort_b16_cut3_MS_stereo_44KHz.wav
3	149	1	2	0	C	2	1	1014	1	poli_8sides 6_whiteLine3.jpg	MediumShort_e16_cut1_stereo_44KHz.wav
3	150	4	3	2	I	2	0	1439	0	poli_8sides 16_whiteLine3.jpg	MediumShort_b16_cut3_MS_stereo_44KHz.wav
3	151	2	1	0	C	2	1	514	1	poli_8sides 5_whiteLine3.jpg	MediumShort_b10_cut1_MS_stereo_44KHz.wav
3	152	3	4	2	I	2	0	604	0	poli_8sides 2_whiteLine3.jpg	MediumShort_e22_cut1_stereo_44KHz.wav
3	153	4	3	2	I	2	0	1075	1	poli_8sides 16_whiteLine3.jpg	MediumShort_b16_cut3_MS_stereo_44KHz.wav
3	154	2	1	0	C	2	1	691	1	poli_8sides 5_whiteLine3.jpg	MediumShort_b10_cut1_MS_stereo_44KHz.wav
3	155	1	2	0	C	2	1	1124	1	poli_8sides 6_whiteLine3.jpg	MediumShort_e16_cut1_stereo_44KHz.wav
3	156	3	3	2	I	2	0	703	0	poli_8sides 2_whiteLine3.jpg	MediumShort_b16_cut3_MS_stereo_44KHz.wav
3	157	4	4	2	I	2	0	784	1	poli_8sides 16_whiteLine3.jpg	MediumShort_e22_cut1_stereo_44KHz.wav
3	158	2	2	1	C	1	1	904	1	poli_8sides 5_whiteLine3.jpg	MediumShort_e16_cut1_stereo_44KHz.wav
3	159	3	4	2	I	2	0	1132	1	poli_8sides 2_whiteLine3.jpg	MediumShort_e22_cut1_stereo_44KHz.wav
3	160	1	1	1	C	1	1	1409	1	poli_8sides 6_whiteLine3.jpg	MediumShort_b10_cut1_MS_stereo_44KHz.wav
3	161	3	3	2	I	2	0	710	0	poli_8sides 2_whiteLine3.jpg	MediumShort_b16_cut3_MS_stereo_44KHz.wav
3	162	2	1	0	C	2	1	422	1	poli_8sides 5_whiteLine3.jpg	MediumShort_b10_cut1_MS_stereo_44KHz.wav
3	163	4	3	2	I	1	0	781	0	poli_8sides 16_whiteLine3.jpg	MediumShort_b16_cut3_MS_stereo_44KHz.wav
3	164	1	2	0	C	2	1	1111	1	poli_8sides 6_whiteLine3.jpg	MediumShort_e16_cut1_stereo_44KHz.wav
3	165	2	2	1	C	1	1	842	1	poli_8sides 5_whiteLine3.jpg	MediumShort_e16_cut1_stereo_44KHz.wav
3	166	3	4	2	I	2	0	537	1	poli_8sides 2_whiteLine3.jpg	MediumShort_e22_cut1_stereo_44KHz.wav
3	167	1	1	1	C	2	0	776	0	poli_8sides 6_whiteLine3.jpg	MediumShort_b10_cut1_MS_stereo_44KHz.wav
3	168	4	4	2	I	2	0	482	0	poli_8sides 16_whiteLine3.jpg	MediumShort_e22_cut1_stereo_44KHz.wav
3	169	2	1	0	C	2	1	1185	1	poli_8sides 5_whiteLine3.jpg	MediumShort_b10_cut1_MS_stereo_44KHz.wav
3	170	3	3	2	I	2	0	1316	0	poli_8sides 2_whiteLine3.jpg	MediumShort_b16_cut3_MS_stereo_44KHz.wav
3	171	4	3	2	I	2	0	461	0	poli_8sides 16_whiteLine3.jpg	MediumShort_b16_cut3_MS_stereo_44KHz.wav
3	172	1	1	1	C	2	0	204	0	poli_8sides 6_whiteLine3.jpg	MediumShort_b10_cut1_MS_stereo_44KHz.wav
3	173	3	4	2	I	2	0	743	0	poli_8sides 2_whiteLine3.jpg	MediumShort_e22_cut1_stereo_44KHz.wav
3	174	1	2	0	C	2	1	664	1	poli_8sides 6_whiteLine3.jpg	MediumShort_e16_cut1_stereo_44KHz.wav
3	175	2	2	1	C	1	1	781	1	poli_8sides 5_whiteLine3.jpg	MediumShort_e16_cut1_stereo_44KHz.wav
3	176	4	4	2	I	2	0	1291	1	poli_8sides 16_whiteLine3.jpg	MediumShort_e22_cut1_stereo_44KHz.wav
3	177	2	1	0	C	2	1	883	1	poli_8sides 5_whiteLine3.jpg	MediumShort_b10_cut1_MS_stereo_44KHz.wav
3	178	1	1	1	C	1	1	1008	1	poli_8sides 6_whiteLine3.jpg	MediumShort_b10_cut1_MS_stereo_44KHz.wav
3	179	3	4	2	I	2	0	907	0	poli_8sides 2_whiteLine3.jpg	MediumShort_e22_cut1_stereo_44KHz.wav
3	180	4	4	2	I	2	0	1408	1	poli_8sides 16_whiteLine3.jpg	MediumShort_e22_cut1_stereo_44KHz.wav
3	181	3	3	2	I	2	0	650	0	poli_8sides 2_whiteLine3.jpg	MediumShort_b16_cut3_MS_stereo_44KHz.wav
3	182	2	2	1	C	2	0	1602	0	poli_8sides 5_whiteLine3.jpg	MediumShort_e16_cut1_stereo_44KHz.wav
3	183	1	2	0	C	2	1	771	1	poli_8sides 6_whiteLine3.jpg	MediumShort_e16_cut1_stereo_44KHz.wav
3	184	4	3	2	I	2	0	1437	1	poli_8sides 16_whiteLine3.jpg	MediumShort_b16_cut3_MS_stereo_44KHz.wav
3	185	1	1	1	C	2	0	796	0	poli_8sides 6_whiteLine3.jpg	MediumShort_b10_cut1_MS_stereo_44KHz.wav
3	186	2	1	0	C	2	1	379	1	poli_8sides 5_whiteLine3.jpg	MediumShort_b10_cut1_MS_stereo_44KHz.wav
3	187	4	4	2	I	2	0	1791	0	poli_8sides 16_whiteLine3.jpg	MediumShort_e22_cut1_stereo_44KHz.wav
3	188	3	3	2	I	2	0	567	1	poli_8sides 2_whiteLine3.jpg	MediumShort_b16_cut3_MS_stereo_44KHz.wav
3	189	1	2	0	C	2	1	448	1	poli_8sides 6_whiteLine3.jpg	MediumShort_e16_cut1_stereo_44KHz.wav
3	190	4	3	2	I	2	0	371	1	poli_8sides 16_whiteLine3.jpg	MediumShort_b16_cut3_MS_stereo_44KHz.wav
3	191	3	4	2	I	2	0	1094	1	poli_8sides 2_whiteLine3.jpg	MediumShort_e22_cut1_stereo_44KHz.wav
3	192	2	2	1	C	1	1	1071	1	poli_8sides 5_whiteLine3.jpg	MediumShort_e16_cut1_stereo_44KHz.wav
3	193	4	4	2	I	2	0	1047	1	poli_8sides 16_whiteLine3.jpg	MediumShort_e22_cut1_stereo_44KHz.wav
3	194	1	1	1	C	1	1	1193	1	poli_8sides 6_whiteLine3.jpg	MediumShort_b10_cut1_MS_stereo_44KHz.wav
3	195	2	2	1	C	1	1	1221	1	poli_8sides 5_whiteLine3.jpg	MediumShort_e16_cut1_stereo_44KHz.wav
3	196	3	3	2	I	1	0	1696	1	poli_8sides 2_whiteLine3.jpg	MediumShort_b16_cut3_MS_stereo_44KHz.wav
3	197	4	3	2	I	2	0	922	1	poli_8sides 16_whiteLine3.jpg	MediumShort_b16_cut3_MS_stereo_44KHz.wav
3	198	1	2	0	C	2	1	746	1	poli_8sides 6_whiteLine3.jpg	MediumShort_e16_cut1_stereo_44KHz.wav
3	199	3	4	2	I	2	0	735	1	poli_8sides 2_whiteLine3.jpg	MediumShort_e22_cut1_stereo_44KHz.wav
3	200	2	1	0	C	2	1	801	1	poli_8sides 5_whiteLine3.jpg	MediumShort_b10_cut1_MS_stereo_44KHz.wav
4	1	3	4	2	I	1	0	1390	1	poli_8sides 1_whiteLine3.jpg	MediumLong_e04_stereo_44KHz.wav
4	2	2	1	0	C	2	1	1245	1	poli_8sides 11_whiteLine3.jpg	Medium_e01_cut1_stereo_44KHz.wav
4	3	1	2	0	C	2	1	913	1	poli_8sides 12_whiteLine3.jpg	MediumLong_b10_cut2_L_stereo_44KHz.wav
4	4	4	4	2	I	1	0	886	1	poli_8sides 13_whiteLine3.jpg	MediumLong_e04_stereo_44KHz.wav
4	5	1	1	1	C	2	0	508	0	poli_8sides 12_whiteLine3.jpg	Medium_e01_cut1_stereo_44KHz.wav
4	6	3	3	2	I	1	0	1320	1	poli_8sides 1_whiteLine3.jpg	MediumLong_e19_stereo_44KHz.wav
4	7	2	2	1	C	2	0	390	0	poli_8sides 11_whiteLine3.jpg	MediumLong_b10_cut2_L_stereo_44KHz.wav
4	8	4	3	2	I	2	0	493	0	poli_8sides 13_whiteLine3.jpg	MediumLong_e19_stereo_44KHz.wav
4	9	1	1	1	C	2	0	370	0	poli_8sides 12_whiteLine3.jpg	Medium_e01_cut1_stereo_44KHz.wav
4	10	2	1	0	C	2	1	659	1	poli_8sides 11_whiteLine3.jpg	Medium_e01_cut1_stereo_44KHz.wav
4	11	4	4	2	I	1	0	502	1	poli_8sides 13_whiteLine3.jpg	MediumLong_e04_stereo_44KHz.wav
4	12	3	3	2	I	2	0	365	0	poli_8sides 1_whiteLine3.jpg	MediumLong_e19_stereo_44KHz.wav
4	13	1	2	0	C	2	1	393	1	poli_8sides 12_whiteLine3.jpg	MediumLong_b10_cut2_L_stereo_44KHz.wav
4	14	3	4	2	I	2	0	338	1	poli_8sides 1_whiteLine3.jpg	MediumLong_e04_stereo_44KHz.wav
4	15	2	2	1	C	2	0	312	0	poli_8sides 11_whiteLine3.jpg	MediumLong_b10_cut2_L_stereo_44KHz.wav
4	16	4	3	2	I	2	0	732	0	poli_8sides 13_whiteLine3.jpg	MediumLong_e19_stereo_44KHz.wav
4	17	2	2	1	C	2	0	835	0	poli_8sides 11_whiteLine3.jpg	MediumLong_b10_cut2_L_stereo_44KHz.wav
4	18	4	3	2	I	1	0	900	1	poli_8sides 13_whiteLine3.jpg	MediumLong_e19_stereo_44KHz.wav
4	19	3	3	2	I	1	0	508	0	poli_8sides 1_whiteLine3.jpg	MediumLong_e19_stereo_44KHz.wav
4	20	1	2	0	C	2	1	472	1	poli_8sides 12_whiteLine3.jpg	MediumLong_b10_cut2_L_stereo_44KHz.wav
4	21	4	4	2	I	2	0	511	0	poli_8sides 13_whiteLine3.jpg	MediumLong_e04_stereo_44KHz.wav
4	22	3	4	2	I	2	0	481	1	poli_8sides 1_whiteLine3.jpg	MediumLong_e04_stereo_44KHz.wav
4	23	1	1	1	C	1	1	996	1	poli_8sides 12_whiteLine3.jpg	Medium_e01_cut1_stereo_44KHz.wav
4	24	2	1	0	C	2	1	283	1	poli_8sides 11_whiteLine3.jpg	Medium_e01_cut1_stereo_44KHz.wav
4	25	1	2	0	C	2	1	795	1	poli_8sides 12_whiteLine3.jpg	MediumLong_b10_cut2_L_stereo_44KHz.wav
4	26	3	4	2	I	2	0	830	0	poli_8sides 1_whiteLine3.jpg	MediumLong_e04_stereo_44KHz.wav
4	27	4	4	2	I	2	0	654	0	poli_8sides 13_whiteLine3.jpg	MediumLong_e04_stereo_44KHz.wav
4	28	2	1	0	C	2	1	716	1	poli_8sides 11_whiteLine3.jpg	Medium_e01_cut1_stereo_44KHz.wav
4	29	3	3	2	I	2	0	749	1	poli_8sides 1_whiteLine3.jpg	MediumLong_e19_stereo_44KHz.wav
4	30	4	3	2	I	2	0	641	1	poli_8sides 13_whiteLine3.jpg	MediumLong_e19_stereo_44KHz.wav
4	31	1	1	1	C	2	0	619	0	poli_8sides 12_whiteLine3.jpg	Medium_e01_cut1_stereo_44KHz.wav
4	32	2	2	1	C	2	0	1495	0	poli_8sides 11_whiteLine3.jpg	MediumLong_b10_cut2_L_stereo_44KHz.wav
4	33	1	1	1	C	2	0	761	0	poli_8sides 12_whiteLine3.jpg	Medium_e01_cut1_stereo_44KHz.wav
4	34	2	1	0	C	2	1	742	1	poli_8sides 11_whiteLine3.jpg	Medium_e01_cut1_stereo_44KHz.wav
4	35	4	3	2	I	1	0	714	0	poli_8sides 13_whiteLine3.jpg	MediumLong_e19_stereo_44KHz.wav
4	36	3	4	2	I	2	0	453	0	poli_8sides 1_whiteLine3.jpg	MediumLong_e04_stereo_44KHz.wav
4	37	2	2	1	C	2	0	469	0	poli_8sides 11_whiteLine3.jpg	MediumLong_b10_cut2_L_stereo_44KHz.wav
4	38	1	2	0	C	2	1	436	1	poli_8sides 12_whiteLine3.jpg	MediumLong_b10_cut2_L_stereo_44KHz.wav
4	39	3	3	2	I	1	0	841	1	poli_8sides 1_whiteLine3.jpg	MediumLong_e19_stereo_44KHz.wav
4	40	4	4	2	I	2	0	412	1	poli_8sides 13_whiteLine3.jpg	MediumLong_e04_stereo_44KHz.wav
4	41	1	2	0	C	2	1	694	1	poli_8sides 12_whiteLine3.jpg	MediumLong_b10_cut2_L_stereo_44KHz.wav
4	42	2	1	0	C	2	1	798	1	poli_8sides 11_whiteLine3.jpg	Medium_e01_cut1_stereo_44KHz.wav
4	43	4	3	2	I	2	0	902	1	poli_8sides 13_whiteLine3.jpg	MediumLong_e19_stereo_44KHz.wav
4	44	3	4	2	I	2	0	464	1	poli_8sides 1_whiteLine3.jpg	MediumLong_e04_stereo_44KHz.wav
4	45	2	2	1	C	2	0	329	0	poli_8sides 11_whiteLine3.jpg	MediumLong_b10_cut2_L_stereo_44KHz.wav
4	46	4	4	2	I	2	0	954	0	poli_8sides 13_whiteLine3.jpg	MediumLong_e04_stereo_44KHz.wav
4	47	1	1	1	C	2	0	978	0	poli_8sides 12_whiteLine3.jpg	Medium_e01_cut1_stereo_44KHz.wav
4	48	3	3	2	I	2	0	873	0	poli_8sides 1_whiteLine3.jpg	MediumLong_e19_stereo_44KHz.wav
4	49	1	1	1	C	2	0	520	0	poli_8sides 12_whiteLine3.jpg	Medium_e01_cut1_stereo_44KHz.wav
4	50	2	1	0	C	2	1	390	1	poli_8sides 11_whiteLine3.jpg	Medium_e01_cut1_stereo_44KHz.wav
4	51	4	4	2	I	2	0	807	1	poli_8sides 13_whiteLine3.jpg	MediumLong_e04_stereo_44KHz.wav
4	52	3	3	2	I	2	0	1549	0	poli_8sides 1_whiteLine3.jpg	MediumLong_e19_stereo_44KHz.wav
4	53	1	2	0	C	2	1	1106	1	poli_8sides 12_whiteLine3.jpg	MediumLong_b10_cut2_L_stereo_44KHz.wav
4	54	4	3	2	I	2	0	914	1	poli_8sides 13_whiteLine3.jpg	MediumLong_e19_stereo_44KHz.wav
4	55	3	4	2	I	2	0	987	0	poli_8sides 1_whiteLine3.jpg	MediumLong_e04_stereo_44KHz.wav
4	56	2	2	1	C	2	0	1286	0	poli_8sides 11_whiteLine3.jpg	MediumLong_b10_cut2_L_stereo_44KHz.wav
4	57	1	1	1	C	2	0	633	0	poli_8sides 12_whiteLine3.jpg	Medium_e01_cut1_stereo_44KHz.wav
4	58	2	2	1	C	2	0	834	0	poli_8sides 11_whiteLine3.jpg	MediumLong_b10_cut2_L_stereo_44KHz.wav
4	59	3	4	2	I	2	0	662	1	poli_8sides 1_whiteLine3.jpg	MediumLong_e04_stereo_44KHz.wav
4	60	4	3	2	I	2	0	692	1	poli_8sides 13_whiteLine3.jpg	MediumLong_e19_stereo_44KHz.wav
4	61	2	1	0	C	2	1	609	1	poli_8sides 11_whiteLine3.jpg	Medium_e01_cut1_stereo_44KHz.wav
4	62	1	2	0	C	2	1	490	1	poli_8sides 12_whiteLine3.jpg	MediumLong_b10_cut2_L_stereo_44KHz.wav
4	63	4	4	2	I	2	0	668	1	poli_8sides 13_whiteLine3.jpg	MediumLong_e04_stereo_44KHz.wav
4	64	3	3	2	I	2	0	621	0	poli_8sides 1_whiteLine3.jpg	MediumLong_e19_stereo_44KHz.wav
4	65	2	2	1	C	2	0	752	0	poli_8sides 11_whiteLine3.jpg	MediumLong_b10_cut2_L_stereo_44KHz.wav
4	66	1	1	1	C	2	0	1647	0	poli_8sides 12_whiteLine3.jpg	Medium_e01_cut1_stereo_44KHz.wav
4	67	4	3	2	I	2	0	1156	0	poli_8sides 13_whiteLine3.jpg	MediumLong_e19_stereo_44KHz.wav
4	68	3	3	2	I	2	0	1105	0	poli_8sides 1_whiteLine3.jpg	MediumLong_e19_stereo_44KHz.wav
4	69	1	2	0	C	2	1	1308	1	poli_8sides 12_whiteLine3.jpg	MediumLong_b10_cut2_L_stereo_44KHz.wav
4	70	3	4	2	I	2	0	1033	0	poli_8sides 1_whiteLine3.jpg	MediumLong_e04_stereo_44KHz.wav
4	71	4	4	2	I	2	0	942	1	poli_8sides 13_whiteLine3.jpg	MediumLong_e04_stereo_44KHz.wav
4	72	2	1	0	C	2	1	1618	1	poli_8sides 11_whiteLine3.jpg	Medium_e01_cut1_stereo_44KHz.wav
4	73	1	1	1	C	2	0	1301	0	poli_8sides 12_whiteLine3.jpg	Medium_e01_cut1_stereo_44KHz.wav
4	74	4	3	2	I	2	0	1596	1	poli_8sides 13_whiteLine3.jpg	MediumLong_e19_stereo_44KHz.wav
4	75	2	2	1	C	2	0	1738	0	poli_8sides 11_whiteLine3.jpg	MediumLong_b10_cut2_L_stereo_44KHz.wav
4	76	3	3	2	I	2	0	1093	1	poli_8sides 1_whiteLine3.jpg	MediumLong_e19_stereo_44KHz.wav
4	77	1	2	0	C	1	0	1152	0	poli_8sides 12_whiteLine3.jpg	MediumLong_b10_cut2_L_stereo_44KHz.wav
4	78	2	1	0	C	0	0	0	0	poli_8sides 11_whiteLine3.jpg	Medium_e01_cut1_stereo_44KHz.wav
4	79	4	4	2	I	1	0	1056	0	poli_8sides 13_whiteLine3.jpg	MediumLong_e04_stereo_44KHz.wav
4	80	3	4	2	I	2	0	543	1	poli_8sides 1_whiteLine3.jpg	MediumLong_e04_stereo_44KHz.wav
4	81	2	2	1	C	2	0	1649	0	poli_8sides 11_whiteLine3.jpg	MediumLong_b10_cut2_L_stereo_44KHz.wav
4	82	1	1	1	C	1	1	844	1	poli_8sides 12_whiteLine3.jpg	Medium_e01_cut1_stereo_44KHz.wav
4	83	4	4	2	I	2	0	837	1	poli_8sides 13_whiteLine3.jpg	MediumLong_e04_stereo_44KHz.wav
4	84	3	3	2	I	2	0	478	0	poli_8sides 1_whiteLine3.jpg	MediumLong_e19_stereo_44KHz.wav
4	85	1	2	0	C	2	1	812	1	poli_8sides 12_whiteLine3.jpg	MediumLong_b10_cut2_L_stereo_44KHz.wav
4	86	2	1	0	C	2	1	738	1	poli_8sides 11_whiteLine3.jpg	Medium_e01_cut1_stereo_44KHz.wav
4	87	4	3	2	I	2	0	693	1	poli_8sides 13_whiteLine3.jpg	MediumLong_e19_stereo_44KHz.wav
4	88	3	4	2	I	2	0	1372	1	poli_8sides 1_whiteLine3.jpg	MediumLong_e04_stereo_44KHz.wav
4	89	4	3	2	I	1	0	1404	0	poli_8sides 13_whiteLine3.jpg	MediumLong_e19_stereo_44KHz.wav
4	90	3	4	2	I	2	0	648	0	poli_8sides 1_whiteLine3.jpg	MediumLong_e04_stereo_44KHz.wav
4	91	2	2	1	C	2	0	826	0	poli_8sides 11_whiteLine3.jpg	MediumLong_b10_cut2_L_stereo_44KHz.wav
4	92	1	1	1	C	2	0	1695	0	poli_8sides 12_whiteLine3.jpg	Medium_e01_cut1_stereo_44KHz.wav
4	93	3	3	2	I	2	0	584	0	poli_8sides 1_whiteLine3.jpg	MediumLong_e19_stereo_44KHz.wav
4	94	2	1	0	C	1	0	681	0	poli_8sides 11_whiteLine3.jpg	Medium_e01_cut1_stereo_44KHz.wav
4	95	4	4	2	I	2	0	505	1	poli_8sides 13_whiteLine3.jpg	MediumLong_e04_stereo_44KHz.wav
4	96	1	2	0	C	2	1	813	1	poli_8sides 12_whiteLine3.jpg	MediumLong_b10_cut2_L_stereo_44KHz.wav
4	97	2	2	1	C	2	0	385	0	poli_8sides 11_whiteLine3.jpg	MediumLong_b10_cut2_L_stereo_44KHz.wav
4	98	3	3	2	I	2	0	442	0	poli_8sides 1_whiteLine3.jpg	MediumLong_e19_stereo_44KHz.wav
4	99	4	4	2	I	2	0	879	0	poli_8sides 13_whiteLine3.jpg	MediumLong_e04_stereo_44KHz.wav
4	100	1	2	0	C	2	1	823	1	poli_8sides 12_whiteLine3.jpg	MediumLong_b10_cut2_L_stereo_44KHz.wav
4	101	4	3	2	I	2	0	616	0	poli_8sides 13_whiteLine3.jpg	MediumLong_e19_stereo_44KHz.wav
4	102	2	1	0	C	2	1	344	1	poli_8sides 11_whiteLine3.jpg	Medium_e01_cut1_stereo_44KHz.wav
4	103	1	1	1	C	2	0	561	0	poli_8sides 12_whiteLine3.jpg	Medium_e01_cut1_stereo_44KHz.wav
4	104	3	4	2	I	1	0	907	0	poli_8sides 1_whiteLine3.jpg	MediumLong_e04_stereo_44KHz.wav
4	105	1	2	0	C	2	1	612	1	poli_8sides 12_whiteLine3.jpg	MediumLong_b10_cut2_L_stereo_44KHz.wav
4	106	3	4	2	I	2	0	748	1	poli_8sides 1_whiteLine3.jpg	MediumLong_e04_stereo_44KHz.wav
4	107	4	4	2	I	2	0	521	0	poli_8sides 13_whiteLine3.jpg	MediumLong_e04_stereo_44KHz.wav
4	108	2	2	1	C	2	0	905	0	poli_8sides 11_whiteLine3.jpg	MediumLong_b10_cut2_L_stereo_44KHz.wav
4	109	1	1	1	C	2	0	535	0	poli_8sides 12_whiteLine3.jpg	Medium_e01_cut1_stereo_44KHz.wav
4	110	3	3	2	I	2	0	1491	1	poli_8sides 1_whiteLine3.jpg	MediumLong_e19_stereo_44KHz.wav
4	111	4	3	2	I	2	0	752	0	poli_8sides 13_whiteLine3.jpg	MediumLong_e19_stereo_44KHz.wav
4	112	2	1	0	C	1	0	429	0	poli_8sides 11_whiteLine3.jpg	Medium_e01_cut1_stereo_44KHz.wav
4	113	3	3	2	I	2	0	529	0	poli_8sides 1_whiteLine3.jpg	MediumLong_e19_stereo_44KHz.wav
4	114	1	2	0	C	2	1	1282	1	poli_8sides 12_whiteLine3.jpg	MediumLong_b10_cut2_L_stereo_44KHz.wav
4	115	4	3	2	I	2	0	398	0	poli_8sides 13_whiteLine3.jpg	MediumLong_e19_stereo_44KHz.wav
4	116	2	1	0	C	2	1	707	1	poli_8sides 11_whiteLine3.jpg	Medium_e01_cut1_stereo_44KHz.wav
4	117	1	1	1	C	2	0	819	0	poli_8sides 12_whiteLine3.jpg	Medium_e01_cut1_stereo_44KHz.wav
4	118	3	4	2	I	1	0	527	1	poli_8sides 1_whiteLine3.jpg	MediumLong_e04_stereo_44KHz.wav
4	119	4	4	2	I	2	0	349	0	poli_8sides 13_whiteLine3.jpg	MediumLong_e04_stereo_44KHz.wav
4	120	2	2	1	C	2	0	290	0	poli_8sides 11_whiteLine3.jpg	MediumLong_b10_cut2_L_stereo_44KHz.wav
4	121	4	4	2	I	2	0	459	1	poli_8sides 13_whiteLine3.jpg	MediumLong_e04_stereo_44KHz.wav
4	122	1	2	0	C	2	1	664	1	poli_8sides 12_whiteLine3.jpg	MediumLong_b10_cut2_L_stereo_44KHz.wav
4	123	2	2	1	C	2	0	502	0	poli_8sides 11_whiteLine3.jpg	MediumLong_b10_cut2_L_stereo_44KHz.wav
4	124	3	4	2	I	2	0	79	0	poli_8sides 1_whiteLine3.jpg	MediumLong_e04_stereo_44KHz.wav
4	125	1	1	1	C	2	0	684	0	poli_8sides 12_whiteLine3.jpg	Medium_e01_cut1_stereo_44KHz.wav
4	126	3	3	2	I	2	0	971	1	poli_8sides 1_whiteLine3.jpg	MediumLong_e19_stereo_44KHz.wav
4	127	4	3	2	I	1	0	336	1	poli_8sides 13_whiteLine3.jpg	MediumLong_e19_stereo_44KHz.wav
4	128	2	1	0	C	2	1	853	1	poli_8sides 11_whiteLine3.jpg	Medium_e01_cut1_stereo_44KHz.wav
4	129	3	3	2	I	2	0	956	0	poli_8sides 1_whiteLine3.jpg	MediumLong_e19_stereo_44KHz.wav
4	130	4	4	2	I	2	0	587	0	poli_8sides 13_whiteLine3.jpg	MediumLong_e04_stereo_44KHz.wav
4	131	1	1	1	C	2	0	853	0	poli_8sides 12_whiteLine3.jpg	Medium_e01_cut1_stereo_44KHz.wav
4	132	2	2	1	C	2	0	1291	0	poli_8sides 11_whiteLine3.jpg	MediumLong_b10_cut2_L_stereo_44KHz.wav
4	133	1	2	0	C	1	0	1361	0	poli_8sides 12_whiteLine3.jpg	MediumLong_b10_cut2_L_stereo_44KHz.wav
4	134	3	4	2	I	2	0	605	0	poli_8sides 1_whiteLine3.jpg	MediumLong_e04_stereo_44KHz.wav
4	135	4	3	2	I	2	0	996	0	poli_8sides 13_whiteLine3.jpg	MediumLong_e19_stereo_44KHz.wav
4	136	2	1	0	C	2	1	374	1	poli_8sides 11_whiteLine3.jpg	Medium_e01_cut1_stereo_44KHz.wav
4	137	1	1	1	C	1	1	975	1	poli_8sides 12_whiteLine3.jpg	Medium_e01_cut1_stereo_44KHz.wav
4	138	2	2	1	C	2	0	521	0	poli_8sides 11_whiteLine3.jpg	MediumLong_b10_cut2_L_stereo_44KHz.wav
4	139	3	4	2	I	2	0	545	1	poli_8sides 1_whiteLine3.jpg	MediumLong_e04_stereo_44KHz.wav
4	140	4	3	2	I	2	0	952	1	poli_8sides 13_whiteLine3.jpg	MediumLong_e19_stereo_44KHz.wav
4	141	1	2	0	C	2	1	411	1	poli_8sides 12_whiteLine3.jpg	MediumLong_b10_cut2_L_stereo_44KHz.wav
4	142	2	1	0	C	2	1	810	1	poli_8sides 11_whiteLine3.jpg	Medium_e01_cut1_stereo_44KHz.wav
4	143	3	3	2	I	0	0	0	0	poli_8sides 1_whiteLine3.jpg	MediumLong_e19_stereo_44KHz.wav
4	144	4	4	2	I	2	0	350	0	poli_8sides 13_whiteLine3.jpg	MediumLong_e04_stereo_44KHz.wav
4	145	2	1	0	C	1	0	492	0	poli_8sides 11_whiteLine3.jpg	Medium_e01_cut1_stereo_44KHz.wav
4	146	1	2	0	C	2	1	850	1	poli_8sides 12_whiteLine3.jpg	MediumLong_b10_cut2_L_stereo_44KHz.wav
4	147	4	4	2	I	2	0	394	1	poli_8sides 13_whiteLine3.jpg	MediumLong_e04_stereo_44KHz.wav
4	148	3	4	2	I	2	0	286	1	poli_8sides 1_whiteLine3.jpg	MediumLong_e04_stereo_44KHz.wav
4	149	1	1	1	C	2	0	332	0	poli_8sides 12_whiteLine3.jpg	Medium_e01_cut1_stereo_44KHz.wav
4	150	2	2	1	C	2	0	881	0	poli_8sides 11_whiteLine3.jpg	MediumLong_b10_cut2_L_stereo_44KHz.wav
4	151	3	3	2	I	1	0	388	1	poli_8sides 1_whiteLine3.jpg	MediumLong_e19_stereo_44KHz.wav
4	152	4	3	2	I	2	0	522	1	poli_8sides 13_whiteLine3.jpg	MediumLong_e19_stereo_44KHz.wav
4	153	2	2	1	C	2	0	300	0	poli_8sides 11_whiteLine3.jpg	MediumLong_b10_cut2_L_stereo_44KHz.wav
4	154	4	3	2	I	2	0	761	1	poli_8sides 13_whiteLine3.jpg	MediumLong_e19_stereo_44KHz.wav
4	155	1	1	1	C	1	1	661	1	poli_8sides 12_whiteLine3.jpg	Medium_e01_cut1_stereo_44KHz.wav
4	156	3	3	2	I	2	0	873	0	poli_8sides 1_whiteLine3.jpg	MediumLong_e19_stereo_44KHz.wav
4	157	1	2	0	C	2	1	1241	1	poli_8sides 12_whiteLine3.jpg	MediumLong_b10_cut2_L_stereo_44KHz.wav
4	158	2	1	0	C	2	1	317	1	poli_8sides 11_whiteLine3.jpg	Medium_e01_cut1_stereo_44KHz.wav
4	159	4	4	2	I	2	0	827	0	poli_8sides 13_whiteLine3.jpg	MediumLong_e04_stereo_44KHz.wav
4	160	3	4	2	I	2	0	1285	1	poli_8sides 1_whiteLine3.jpg	MediumLong_e04_stereo_44KHz.wav
4	161	4	3	2	I	2	0	1104	0	poli_8sides 13_whiteLine3.jpg	MediumLong_e19_stereo_44KHz.wav
4	162	1	1	1	C	2	0	1717	0	poli_8sides 12_whiteLine3.jpg	Medium_e01_cut1_stereo_44KHz.wav
4	163	3	4	2	I	2	0	1031	1	poli_8sides 1_whiteLine3.jpg	MediumLong_e04_stereo_44KHz.wav
4	164	2	1	0	C	2	1	1950	1	poli_8sides 11_whiteLine3.jpg	Medium_e01_cut1_stereo_44KHz.wav
4	165	4	4	2	I	1	0	1198	0	poli_8sides 13_whiteLine3.jpg	MediumLong_e04_stereo_44KHz.wav
4	166	2	2	1	C	2	0	1199	0	poli_8sides 11_whiteLine3.jpg	MediumLong_b10_cut2_L_stereo_44KHz.wav
4	167	1	2	0	C	2	1	798	1	poli_8sides 12_whiteLine3.jpg	MediumLong_b10_cut2_L_stereo_44KHz.wav
4	168	3	3	2	I	2	0	1768	0	poli_8sides 1_whiteLine3.jpg	MediumLong_e19_stereo_44KHz.wav
4	169	1	1	1	C	2	0	935	0	poli_8sides 12_whiteLine3.jpg	Medium_e01_cut1_stereo_44KHz.wav
4	170	3	3	2	I	1	0	1549	0	poli_8sides 1_whiteLine3.jpg	MediumLong_e19_stereo_44KHz.wav
4	171	4	3	2	I	2	0	893	0	poli_8sides 13_whiteLine3.jpg	MediumLong_e19_stereo_44KHz.wav
4	172	2	1	0	C	1	0	1774	0	poli_8sides 11_whiteLine3.jpg	Medium_e01_cut1_stereo_44KHz.wav
4	173	4	4	2	I	2	0	1184	1	poli_8sides 13_whiteLine3.jpg	MediumLong_e04_stereo_44KHz.wav
4	174	2	2	1	C	2	0	1134	0	poli_8sides 11_whiteLine3.jpg	MediumLong_b10_cut2_L_stereo_44KHz.wav
4	175	3	4	2	I	2	0	1179	1	poli_8sides 1_whiteLine3.jpg	MediumLong_e04_stereo_44KHz.wav
4	176	1	2	0	C	0	0	0	0	poli_8sides 12_whiteLine3.jpg	MediumLong_b10_cut2_L_stereo_44KHz.wav
4	177	2	2	1	C	2	0	766	0	poli_8sides 11_whiteLine3.jpg	MediumLong_b10_cut2_L_stereo_44KHz.wav
4	178	4	3	2	I	2	0	941	0	poli_8sides 13_whiteLine3.jpg	MediumLong_e19_stereo_44KHz.wav
4	179	1	2	0	C	2	1	673	1	poli_8sides 12_whiteLine3.jpg	MediumLong_b10_cut2_L_stereo_44KHz.wav
4	180	3	4	2	I	2	0	1373	0	poli_8sides 1_whiteLine3.jpg	MediumLong_e04_stereo_44KHz.wav
4	181	2	1	0	C	2	1	549	1	poli_8sides 11_whiteLine3.jpg	Medium_e01_cut1_stereo_44KHz.wav
4	182	4	4	2	I	2	0	550	0	poli_8sides 13_whiteLine3.jpg	MediumLong_e04_stereo_44KHz.wav
4	183	1	1	1	C	2	0	576	0	poli_8sides 12_whiteLine3.jpg	Medium_e01_cut1_stereo_44KHz.wav
4	184	3	3	2	I	1	0	1374	1	poli_8sides 1_whiteLine3.jpg	MediumLong_e19_stereo_44KHz.wav
4	185	4	3	2	I	1	0	1400	0	poli_8sides 13_whiteLine3.jpg	MediumLong_e19_stereo_44KHz.wav
4	186	2	2	1	C	2	0	877	0	poli_8sides 11_whiteLine3.jpg	MediumLong_b10_cut2_L_stereo_44KHz.wav
4	187	3	3	2	I	1	0	1381	1	poli_8sides 1_whiteLine3.jpg	MediumLong_e19_stereo_44KHz.wav
4	188	1	1	1	C	2	0	774	0	poli_8sides 12_whiteLine3.jpg	Medium_e01_cut1_stereo_44KHz.wav
4	189	2	1	0	C	2	1	893	1	poli_8sides 11_whiteLine3.jpg	Medium_e01_cut1_stereo_44KHz.wav
4	190	3	4	2	I	2	0	1200	0	poli_8sides 1_whiteLine3.jpg	MediumLong_e04_stereo_44KHz.wav
4	191	1	2	0	C	2	1	797	1	poli_8sides 12_whiteLine3.jpg	MediumLong_b10_cut2_L_stereo_44KHz.wav
4	192	4	4	2	I	2	0	995	1	poli_8sides 13_whiteLine3.jpg	MediumLong_e04_stereo_44KHz.wav
4	193	1	2	0	C	2	1	834	1	poli_8sides 12_whiteLine3.jpg	MediumLong_b10_cut2_L_stereo_44KHz.wav
4	194	2	2	1	C	2	0	554	0	poli_8sides 11_whiteLine3.jpg	MediumLong_b10_cut2_L_stereo_44KHz.wav
4	195	3	3	2	I	2	0	606	1	poli_8sides 1_whiteLine3.jpg	MediumLong_e19_stereo_44KHz.wav
4	196	4	4	2	I	2	0	798	1	poli_8sides 13_whiteLine3.jpg	MediumLong_e04_stereo_44KHz.wav
4	197	3	4	2	I	2	0	670	1	poli_8sides 1_whiteLine3.jpg	MediumLong_e04_stereo_44KHz.wav
4	198	2	1	0	C	2	1	1345	1	poli_8sides 11_whiteLine3.jpg	Medium_e01_cut1_stereo_44KHz.wav
4	199	1	1	1	C	1	1	986	1	poli_8sides 12_whiteLine3.jpg	Medium_e01_cut1_stereo_44KHz.wav
4	200	4	3	2	I	2	0	912	1	poli_8sides 13_whiteLine3.jpg	MediumLong_e19_stereo_44KHz.wav
