block	trial	Vstim	Astim	match	C/I	resp	result	RT	fb	V-file	A-file
LR

0	1	2	3	1	C	1	0	1757	0	poli_8sides 23_whiteLine3.jpg	Practice4_b26_stereo_44KHz.wav
0	2	2	4	0	C	0	0	0	0	poli_8sides 23_whiteLine3.jpg	Practice3_b26_cut1_stereo_44KHz.wav
0	3	1	1	1	C	2	1	1594	1	poli_8sides 22_whiteLine3.jpg	Practice2_b27_cut2_stereo_44KHz.wav
0	4	1	2	0	C	1	1	1349	1	poli_8sides 22_whiteLine3.jpg	Practice1_b27_cut1_stereo_44KHz.wav
0	5	2	4	0	C	1	1	782	1	poli_8sides 23_whiteLine3.jpg	Practice3_b26_cut1_stereo_44KHz.wav
0	6	1	1	1	C	1	0	609	0	poli_8sides 22_whiteLine3.jpg	Practice2_b27_cut2_stereo_44KHz.wav
0	7	2	3	1	C	1	0	1191	0	poli_8sides 23_whiteLine3.jpg	Practice4_b26_stereo_44KHz.wav
0	8	1	2	0	C	1	1	850	1	poli_8sides 22_whiteLine3.jpg	Practice1_b27_cut1_stereo_44KHz.wav
0	9	2	4	0	C	1	1	574	1	poli_8sides 23_whiteLine3.jpg	Practice3_b26_cut1_stereo_44KHz.wav
0	10	2	3	1	C	2	1	540	1	poli_8sides 23_whiteLine3.jpg	Practice4_b26_stereo_44KHz.wav
0	11	1	1	1	C	1	0	646	0	poli_8sides 22_whiteLine3.jpg	Practice2_b27_cut2_stereo_44KHz.wav
0	12	1	2	0	C	1	1	631	1	poli_8sides 22_whiteLine3.jpg	Practice1_b27_cut1_stereo_44KHz.wav
0	13	2	3	1	C	2	1	745	1	poli_8sides 23_whiteLine3.jpg	Practice4_b26_stereo_44KHz.wav
0	14	1	2	0	C	1	1	562	1	poli_8sides 22_whiteLine3.jpg	Practice1_b27_cut1_stereo_44KHz.wav
0	15	1	1	1	C	2	1	761	1	poli_8sides 22_whiteLine3.jpg	Practice2_b27_cut2_stereo_44KHz.wav
0	16	2	4	0	C	1	1	1027	1	poli_8sides 23_whiteLine3.jpg	Practice3_b26_cut1_stereo_44KHz.wav
0	17	2	4	0	C	2	0	623	0	poli_8sides 23_whiteLine3.jpg	Practice3_b26_cut1_stereo_44KHz.wav
0	18	2	3	1	C	2	1	757	1	poli_8sides 23_whiteLine3.jpg	Practice4_b26_stereo_44KHz.wav
0	19	1	2	0	C	1	1	778	1	poli_8sides 22_whiteLine3.jpg	Practice1_b27_cut1_stereo_44KHz.wav
0	20	1	1	1	C	2	1	601	1	poli_8sides 22_whiteLine3.jpg	Practice2_b27_cut2_stereo_44KHz.wav
0	21	2	4	0	C	1	1	667	1	poli_8sides 23_whiteLine3.jpg	Practice3_b26_cut1_stereo_44KHz.wav
0	22	2	3	1	C	2	1	597	1	poli_8sides 23_whiteLine3.jpg	Practice4_b26_stereo_44KHz.wav
0	23	1	2	0	C	1	1	404	1	poli_8sides 22_whiteLine3.jpg	Practice1_b27_cut1_stereo_44KHz.wav
0	24	1	1	1	C	2	1	578	1	poli_8sides 22_whiteLine3.jpg	Practice2_b27_cut2_stereo_44KHz.wav
0	25	2	3	1	C	2	1	601	1	poli_8sides 23_whiteLine3.jpg	Practice4_b26_stereo_44KHz.wav
0	26	1	1	1	C	2	1	444	1	poli_8sides 22_whiteLine3.jpg	Practice2_b27_cut2_stereo_44KHz.wav
0	27	2	4	0	C	1	1	632	1	poli_8sides 23_whiteLine3.jpg	Practice3_b26_cut1_stereo_44KHz.wav
0	28	1	2	0	C	2	0	362	0	poli_8sides 22_whiteLine3.jpg	Practice1_b27_cut1_stereo_44KHz.wav
0	29	2	4	0	C	1	1	578	1	poli_8sides 23_whiteLine3.jpg	Practice3_b26_cut1_stereo_44KHz.wav
0	30	1	1	1	C	2	1	581	1	poli_8sides 22_whiteLine3.jpg	Practice2_b27_cut2_stereo_44KHz.wav
avg_resp = 723
1	1	1	1	1	C	2	1	996	1	poli_8sides 16_whiteLine3.jpg	MediumLong_e19_stereo_44KHz.wav
1	2	3	4	2	I	1	0	796	1	poli_8sides 8_whiteLine3.jpg	Medium_e01_cut1_stereo_44KHz.wav
1	3	4	3	2	I	2	0	767	0	poli_8sides 2_whiteLine3.jpg	Medium_e13_stereo_44KHz.wav
1	4	2	2	1	C	1	0	874	0	poli_8sides 18_whiteLine3.jpg	Medium_e26_stereo_44KHz.wav
1	5	1	2	0	C	1	1	1063	1	poli_8sides 16_whiteLine3.jpg	Medium_e26_stereo_44KHz.wav
1	6	4	4	2	I	2	0	500	0	poli_8sides 2_whiteLine3.jpg	Medium_e01_cut1_stereo_44KHz.wav
1	7	2	1	0	C	1	1	702	1	poli_8sides 18_whiteLine3.jpg	MediumLong_e19_stereo_44KHz.wav
1	8	3	3	2	I	1	0	705	1	poli_8sides 8_whiteLine3.jpg	Medium_e13_stereo_44KHz.wav
1	9	2	2	1	C	1	0	896	0	poli_8sides 18_whiteLine3.jpg	Medium_e26_stereo_44KHz.wav
1	10	3	4	2	I	1	0	723	0	poli_8sides 8_whiteLine3.jpg	Medium_e01_cut1_stereo_44KHz.wav
1	11	4	3	2	I	1	0	746	1	poli_8sides 2_whiteLine3.jpg	Medium_e13_stereo_44KHz.wav
1	12	1	2	0	C	1	1	554	1	poli_8sides 16_whiteLine3.jpg	Medium_e26_stereo_44KHz.wav
1	13	4	4	2	I	1	0	620	0	poli_8sides 2_whiteLine3.jpg	Medium_e01_cut1_stereo_44KHz.wav
1	14	2	1	0	C	1	1	389	1	poli_8sides 18_whiteLine3.jpg	MediumLong_e19_stereo_44KHz.wav
1	15	1	1	1	C	2	1	299	1	poli_8sides 16_whiteLine3.jpg	MediumLong_e19_stereo_44KHz.wav
1	16	3	3	2	I	1	0	609	0	poli_8sides 8_whiteLine3.jpg	Medium_e13_stereo_44KHz.wav
1	17	1	1	1	C	2	1	541	1	poli_8sides 16_whiteLine3.jpg	MediumLong_e19_stereo_44KHz.wav
1	18	2	1	0	C	2	0	427	0	poli_8sides 18_whiteLine3.jpg	MediumLong_e19_stereo_44KHz.wav
1	19	4	3	2	I	1	0	824	1	poli_8sides 2_whiteLine3.jpg	Medium_e13_stereo_44KHz.wav
1	20	3	3	2	I	1	0	452	1	poli_8sides 8_whiteLine3.jpg	Medium_e13_stereo_44KHz.wav
1	21	2	2	1	C	2	1	424	1	poli_8sides 18_whiteLine3.jpg	Medium_e26_stereo_44KHz.wav
1	22	4	4	2	I	1	0	523	0	poli_8sides 2_whiteLine3.jpg	Medium_e01_cut1_stereo_44KHz.wav
1	23	1	2	0	C	1	1	507	1	poli_8sides 16_whiteLine3.jpg	Medium_e26_stereo_44KHz.wav
1	24	3	4	2	I	2	0	447	0	poli_8sides 8_whiteLine3.jpg	Medium_e01_cut1_stereo_44KHz.wav
1	25	2	1	0	C	2	0	807	0	poli_8sides 18_whiteLine3.jpg	MediumLong_e19_stereo_44KHz.wav
1	26	4	3	2	I	1	0	667	1	poli_8sides 2_whiteLine3.jpg	Medium_e13_stereo_44KHz.wav
1	27	1	2	0	C	1	1	382	1	poli_8sides 16_whiteLine3.jpg	Medium_e26_stereo_44KHz.wav
1	28	3	4	2	I	1	0	541	1	poli_8sides 8_whiteLine3.jpg	Medium_e01_cut1_stereo_44KHz.wav
1	29	1	1	1	C	1	0	695	0	poli_8sides 16_whiteLine3.jpg	MediumLong_e19_stereo_44KHz.wav
1	30	3	3	2	I	1	0	660	1	poli_8sides 8_whiteLine3.jpg	Medium_e13_stereo_44KHz.wav
1	31	2	2	1	C	1	0	688	0	poli_8sides 18_whiteLine3.jpg	Medium_e26_stereo_44KHz.wav
1	32	4	4	2	I	1	0	701	1	poli_8sides 2_whiteLine3.jpg	Medium_e01_cut1_stereo_44KHz.wav
1	33	3	4	2	I	2	0	630	1	poli_8sides 8_whiteLine3.jpg	Medium_e01_cut1_stereo_44KHz.wav
1	34	2	2	1	C	1	0	666	0	poli_8sides 18_whiteLine3.jpg	Medium_e26_stereo_44KHz.wav
1	35	4	3	2	I	1	0	722	1	poli_8sides 2_whiteLine3.jpg	Medium_e13_stereo_44KHz.wav
1	36	1	2	0	C	2	0	809	0	poli_8sides 16_whiteLine3.jpg	Medium_e26_stereo_44KHz.wav
1	37	4	4	2	I	1	0	602	1	poli_8sides 2_whiteLine3.jpg	Medium_e01_cut1_stereo_44KHz.wav
1	38	1	1	1	C	1	0	670	0	poli_8sides 16_whiteLine3.jpg	MediumLong_e19_stereo_44KHz.wav
1	39	2	1	0	C	2	0	862	0	poli_8sides 18_whiteLine3.jpg	MediumLong_e19_stereo_44KHz.wav
1	40	3	3	2	I	1	0	713	0	poli_8sides 8_whiteLine3.jpg	Medium_e13_stereo_44KHz.wav
1	41	4	4	2	I	1	0	635	1	poli_8sides 2_whiteLine3.jpg	Medium_e01_cut1_stereo_44KHz.wav
1	42	1	2	0	C	1	1	438	1	poli_8sides 16_whiteLine3.jpg	Medium_e26_stereo_44KHz.wav
1	43	2	1	0	C	1	1	660	1	poli_8sides 18_whiteLine3.jpg	MediumLong_e19_stereo_44KHz.wav
1	44	3	3	2	I	1	0	856	1	poli_8sides 8_whiteLine3.jpg	Medium_e13_stereo_44KHz.wav
1	45	4	3	2	I	2	0	800	0	poli_8sides 2_whiteLine3.jpg	Medium_e13_stereo_44KHz.wav
1	46	1	1	1	C	1	0	573	0	poli_8sides 16_whiteLine3.jpg	MediumLong_e19_stereo_44KHz.wav
1	47	3	4	2	I	1	0	546	0	poli_8sides 8_whiteLine3.jpg	Medium_e01_cut1_stereo_44KHz.wav
1	48	2	2	1	C	2	1	1422	1	poli_8sides 18_whiteLine3.jpg	Medium_e26_stereo_44KHz.wav
1	49	1	2	0	C	1	1	1258	1	poli_8sides 16_whiteLine3.jpg	Medium_e26_stereo_44KHz.wav
1	50	4	3	2	I	2	0	893	1	poli_8sides 2_whiteLine3.jpg	Medium_e13_stereo_44KHz.wav
1	51	2	1	0	C	1	1	756	1	poli_8sides 18_whiteLine3.jpg	MediumLong_e19_stereo_44KHz.wav
1	52	3	3	2	I	1	0	1105	1	poli_8sides 8_whiteLine3.jpg	Medium_e13_stereo_44KHz.wav
1	53	1	1	1	C	1	0	632	0	poli_8sides 16_whiteLine3.jpg	MediumLong_e19_stereo_44KHz.wav
1	54	3	4	2	I	1	0	765	1	poli_8sides 8_whiteLine3.jpg	Medium_e01_cut1_stereo_44KHz.wav
1	55	2	2	1	C	2	1	782	1	poli_8sides 18_whiteLine3.jpg	Medium_e26_stereo_44KHz.wav
1	56	4	4	2	I	1	0	575	1	poli_8sides 2_whiteLine3.jpg	Medium_e01_cut1_stereo_44KHz.wav
1	57	2	1	0	C	1	1	932	1	poli_8sides 18_whiteLine3.jpg	MediumLong_e19_stereo_44KHz.wav
1	58	4	4	2	I	1	0	957	0	poli_8sides 2_whiteLine3.jpg	Medium_e01_cut1_stereo_44KHz.wav
1	59	3	4	2	I	1	0	645	1	poli_8sides 8_whiteLine3.jpg	Medium_e01_cut1_stereo_44KHz.wav
1	60	1	1	1	C	2	1	954	1	poli_8sides 16_whiteLine3.jpg	MediumLong_e19_stereo_44KHz.wav
1	61	4	3	2	I	1	0	676	0	poli_8sides 2_whiteLine3.jpg	Medium_e13_stereo_44KHz.wav
1	62	1	2	0	C	1	1	879	1	poli_8sides 16_whiteLine3.jpg	Medium_e26_stereo_44KHz.wav
1	63	2	2	1	C	2	1	570	1	poli_8sides 18_whiteLine3.jpg	Medium_e26_stereo_44KHz.wav
1	64	3	3	2	I	1	0	667	0	poli_8sides 8_whiteLine3.jpg	Medium_e13_stereo_44KHz.wav
1	65	4	4	2	I	1	0	560	0	poli_8sides 2_whiteLine3.jpg	Medium_e01_cut1_stereo_44KHz.wav
1	66	2	1	0	C	1	1	955	1	poli_8sides 18_whiteLine3.jpg	MediumLong_e19_stereo_44KHz.wav
1	67	1	1	1	C	2	1	717	1	poli_8sides 16_whiteLine3.jpg	MediumLong_e19_stereo_44KHz.wav
1	68	3	3	2	I	1	0	668	1	poli_8sides 8_whiteLine3.jpg	Medium_e13_stereo_44KHz.wav
1	69	1	2	0	C	1	1	684	1	poli_8sides 16_whiteLine3.jpg	Medium_e26_stereo_44KHz.wav
1	70	2	2	1	C	2	1	669	1	poli_8sides 18_whiteLine3.jpg	Medium_e26_stereo_44KHz.wav
1	71	4	3	2	I	1	0	504	1	poli_8sides 2_whiteLine3.jpg	Medium_e13_stereo_44KHz.wav
1	72	3	4	2	I	1	0	716	1	poli_8sides 8_whiteLine3.jpg	Medium_e01_cut1_stereo_44KHz.wav
1	73	1	2	0	C	1	1	636	1	poli_8sides 16_whiteLine3.jpg	Medium_e26_stereo_44KHz.wav
1	74	3	4	2	I	1	0	688	1	poli_8sides 8_whiteLine3.jpg	Medium_e01_cut1_stereo_44KHz.wav
1	75	2	1	0	C	1	1	1027	1	poli_8sides 18_whiteLine3.jpg	MediumLong_e19_stereo_44KHz.wav
1	76	4	4	2	I	1	0	819	0	poli_8sides 2_whiteLine3.jpg	Medium_e01_cut1_stereo_44KHz.wav
1	77	3	3	2	I	1	0	728	0	poli_8sides 8_whiteLine3.jpg	Medium_e13_stereo_44KHz.wav
1	78	2	2	1	C	2	1	768	1	poli_8sides 18_whiteLine3.jpg	Medium_e26_stereo_44KHz.wav
1	79	4	3	2	I	2	0	906	1	poli_8sides 2_whiteLine3.jpg	Medium_e13_stereo_44KHz.wav
1	80	1	1	1	C	2	1	691	1	poli_8sides 16_whiteLine3.jpg	MediumLong_e19_stereo_44KHz.wav
1	81	4	3	2	I	2	0	867	1	poli_8sides 2_whiteLine3.jpg	Medium_e13_stereo_44KHz.wav
1	82	1	2	0	C	1	1	695	1	poli_8sides 16_whiteLine3.jpg	Medium_e26_stereo_44KHz.wav
1	83	3	4	2	I	1	0	723	1	poli_8sides 8_whiteLine3.jpg	Medium_e01_cut1_stereo_44KHz.wav
1	84	2	2	1	C	2	1	972	1	poli_8sides 18_whiteLine3.jpg	Medium_e26_stereo_44KHz.wav
1	85	1	1	1	C	2	1	829	1	poli_8sides 16_whiteLine3.jpg	MediumLong_e19_stereo_44KHz.wav
1	86	3	3	2	I	1	0	1043	1	poli_8sides 8_whiteLine3.jpg	Medium_e13_stereo_44KHz.wav
1	87	4	4	2	I	2	0	799	0	poli_8sides 2_whiteLine3.jpg	Medium_e01_cut1_stereo_44KHz.wav
1	88	2	1	0	C	2	0	758	0	poli_8sides 18_whiteLine3.jpg	MediumLong_e19_stereo_44KHz.wav
1	89	3	4	2	I	1	0	723	0	poli_8sides 8_whiteLine3.jpg	Medium_e01_cut1_stereo_44KHz.wav
1	90	2	2	1	C	2	1	1055	1	poli_8sides 18_whiteLine3.jpg	Medium_e26_stereo_44KHz.wav
1	91	1	1	1	C	1	0	1046	0	poli_8sides 16_whiteLine3.jpg	MediumLong_e19_stereo_44KHz.wav
1	92	4	4	2	I	1	0	892	1	poli_8sides 2_whiteLine3.jpg	Medium_e01_cut1_stereo_44KHz.wav
1	93	1	2	0	C	1	1	577	1	poli_8sides 16_whiteLine3.jpg	Medium_e26_stereo_44KHz.wav
1	94	3	3	2	I	1	0	690	0	poli_8sides 8_whiteLine3.jpg	Medium_e13_stereo_44KHz.wav
1	95	2	1	0	C	1	1	1222	1	poli_8sides 18_whiteLine3.jpg	MediumLong_e19_stereo_44KHz.wav
1	96	4	3	2	I	2	0	864	1	poli_8sides 2_whiteLine3.jpg	Medium_e13_stereo_44KHz.wav
1	97	1	1	1	C	1	0	1209	0	poli_8sides 16_whiteLine3.jpg	MediumLong_e19_stereo_44KHz.wav
1	98	2	2	1	C	2	1	713	1	poli_8sides 18_whiteLine3.jpg	Medium_e26_stereo_44KHz.wav
1	99	4	4	2	I	1	0	704	1	poli_8sides 2_whiteLine3.jpg	Medium_e01_cut1_stereo_44KHz.wav
1	100	3	3	2	I	1	0	675	1	poli_8sides 8_whiteLine3.jpg	Medium_e13_stereo_44KHz.wav
1	101	1	2	0	C	1	1	645	1	poli_8sides 16_whiteLine3.jpg	Medium_e26_stereo_44KHz.wav
1	102	2	1	0	C	1	1	826	1	poli_8sides 18_whiteLine3.jpg	MediumLong_e19_stereo_44KHz.wav
1	103	4	3	2	I	1	0	762	1	poli_8sides 2_whiteLine3.jpg	Medium_e13_stereo_44KHz.wav
1	104	3	4	2	I	1	0	606	1	poli_8sides 8_whiteLine3.jpg	Medium_e01_cut1_stereo_44KHz.wav
1	105	4	3	2	I	1	0	771	0	poli_8sides 2_whiteLine3.jpg	Medium_e13_stereo_44KHz.wav
1	106	1	2	0	C	1	1	650	1	poli_8sides 16_whiteLine3.jpg	Medium_e26_stereo_44KHz.wav
1	107	2	1	0	C	1	1	892	1	poli_8sides 18_whiteLine3.jpg	MediumLong_e19_stereo_44KHz.wav
1	108	3	4	2	I	1	0	880	0	poli_8sides 8_whiteLine3.jpg	Medium_e01_cut1_stereo_44KHz.wav
1	109	1	1	1	C	1	0	569	0	poli_8sides 16_whiteLine3.jpg	MediumLong_e19_stereo_44KHz.wav
1	110	3	3	2	I	1	0	604	0	poli_8sides 8_whiteLine3.jpg	Medium_e13_stereo_44KHz.wav
1	111	2	2	1	C	2	1	1019	1	poli_8sides 18_whiteLine3.jpg	Medium_e26_stereo_44KHz.wav
1	112	4	4	2	I	1	0	1142	0	poli_8sides 2_whiteLine3.jpg	Medium_e01_cut1_stereo_44KHz.wav
1	113	2	2	1	C	2	1	848	1	poli_8sides 18_whiteLine3.jpg	Medium_e26_stereo_44KHz.wav
1	114	3	3	2	I	1	0	708	1	poli_8sides 8_whiteLine3.jpg	Medium_e13_stereo_44KHz.wav
1	115	1	2	0	C	1	1	696	1	poli_8sides 16_whiteLine3.jpg	Medium_e26_stereo_44KHz.wav
1	116	4	3	2	I	1	0	931	1	poli_8sides 2_whiteLine3.jpg	Medium_e13_stereo_44KHz.wav
1	117	2	1	0	C	1	1	970	1	poli_8sides 18_whiteLine3.jpg	MediumLong_e19_stereo_44KHz.wav
1	118	3	4	2	I	1	0	605	0	poli_8sides 8_whiteLine3.jpg	Medium_e01_cut1_stereo_44KHz.wav
1	119	1	1	1	C	2	1	886	1	poli_8sides 16_whiteLine3.jpg	MediumLong_e19_stereo_44KHz.wav
1	120	4	4	2	I	1	0	768	0	poli_8sides 2_whiteLine3.jpg	Medium_e01_cut1_stereo_44KHz.wav
1	121	2	2	1	C	2	1	1387	1	poli_8sides 18_whiteLine3.jpg	Medium_e26_stereo_44KHz.wav
1	122	3	3	2	I	1	0	789	0	poli_8sides 8_whiteLine3.jpg	Medium_e13_stereo_44KHz.wav
1	123	4	4	2	I	1	0	970	0	poli_8sides 2_whiteLine3.jpg	Medium_e01_cut1_stereo_44KHz.wav
1	124	1	2	0	C	1	1	742	1	poli_8sides 16_whiteLine3.jpg	Medium_e26_stereo_44KHz.wav
1	125	2	1	0	C	1	1	708	1	poli_8sides 18_whiteLine3.jpg	MediumLong_e19_stereo_44KHz.wav
1	126	3	4	2	I	1	0	696	1	poli_8sides 8_whiteLine3.jpg	Medium_e01_cut1_stereo_44KHz.wav
1	127	1	1	1	C	2	1	918	1	poli_8sides 16_whiteLine3.jpg	MediumLong_e19_stereo_44KHz.wav
1	128	4	3	2	I	1	0	1252	0	poli_8sides 2_whiteLine3.jpg	Medium_e13_stereo_44KHz.wav
1	129	2	2	1	C	2	1	732	1	poli_8sides 18_whiteLine3.jpg	Medium_e26_stereo_44KHz.wav
1	130	3	4	2	I	1	0	695	0	poli_8sides 8_whiteLine3.jpg	Medium_e01_cut1_stereo_44KHz.wav
1	131	1	1	1	C	2	1	880	1	poli_8sides 16_whiteLine3.jpg	MediumLong_e19_stereo_44KHz.wav
1	132	4	3	2	I	1	0	727	0	poli_8sides 2_whiteLine3.jpg	Medium_e13_stereo_44KHz.wav
1	133	2	1	0	C	1	1	864	1	poli_8sides 18_whiteLine3.jpg	MediumLong_e19_stereo_44KHz.wav
1	134	3	3	2	I	1	0	724	0	poli_8sides 8_whiteLine3.jpg	Medium_e13_stereo_44KHz.wav
1	135	4	4	2	I	2	0	895	0	poli_8sides 2_whiteLine3.jpg	Medium_e01_cut1_stereo_44KHz.wav
1	136	1	2	0	C	1	1	978	1	poli_8sides 16_whiteLine3.jpg	Medium_e26_stereo_44KHz.wav
1	137	4	3	2	I	1	0	830	0	poli_8sides 2_whiteLine3.jpg	Medium_e13_stereo_44KHz.wav
1	138	2	2	1	C	2	1	846	1	poli_8sides 18_whiteLine3.jpg	Medium_e26_stereo_44KHz.wav
1	139	3	4	2	I	1	0	977	0	poli_8sides 8_whiteLine3.jpg	Medium_e01_cut1_stereo_44KHz.wav
1	140	1	2	0	C	1	1	1008	1	poli_8sides 16_whiteLine3.jpg	Medium_e26_stereo_44KHz.wav
1	141	2	1	0	C	1	1	770	1	poli_8sides 18_whiteLine3.jpg	MediumLong_e19_stereo_44KHz.wav
1	142	1	1	1	C	2	1	833	1	poli_8sides 16_whiteLine3.jpg	MediumLong_e19_stereo_44KHz.wav
1	143	3	3	2	I	1	0	729	1	poli_8sides 8_whiteLine3.jpg	Medium_e13_stereo_44KHz.wav
1	144	4	4	2	I	1	0	985	1	poli_8sides 2_whiteLine3.jpg	Medium_e01_cut1_stereo_44KHz.wav
1	145	3	4	2	I	2	0	948	0	poli_8sides 8_whiteLine3.jpg	Medium_e01_cut1_stereo_44KHz.wav
1	146	4	4	2	I	1	0	677	0	poli_8sides 2_whiteLine3.jpg	Medium_e01_cut1_stereo_44KHz.wav
1	147	2	2	1	C	2	1	850	1	poli_8sides 18_whiteLine3.jpg	Medium_e26_stereo_44KHz.wav
1	148	1	2	0	C	1	1	1064	1	poli_8sides 16_whiteLine3.jpg	Medium_e26_stereo_44KHz.wav
1	149	3	3	2	I	1	0	715	0	poli_8sides 8_whiteLine3.jpg	Medium_e13_stereo_44KHz.wav
1	150	4	3	2	I	1	0	568	1	poli_8sides 2_whiteLine3.jpg	Medium_e13_stereo_44KHz.wav
1	151	1	1	1	C	2	1	750	1	poli_8sides 16_whiteLine3.jpg	MediumLong_e19_stereo_44KHz.wav
1	152	2	1	0	C	1	1	944	1	poli_8sides 18_whiteLine3.jpg	MediumLong_e19_stereo_44KHz.wav
1	153	1	1	1	C	2	1	1074	1	poli_8sides 16_whiteLine3.jpg	MediumLong_e19_stereo_44KHz.wav
1	154	4	3	2	I	1	0	741	0	poli_8sides 2_whiteLine3.jpg	Medium_e13_stereo_44KHz.wav
1	155	2	2	1	C	2	1	750	1	poli_8sides 18_whiteLine3.jpg	Medium_e26_stereo_44KHz.wav
1	156	3	3	2	I	1	0	706	1	poli_8sides 8_whiteLine3.jpg	Medium_e13_stereo_44KHz.wav
1	157	4	4	2	I	1	0	771	1	poli_8sides 2_whiteLine3.jpg	Medium_e01_cut1_stereo_44KHz.wav
1	158	2	1	0	C	1	1	1016	1	poli_8sides 18_whiteLine3.jpg	MediumLong_e19_stereo_44KHz.wav
1	159	3	4	2	I	1	0	1028	1	poli_8sides 8_whiteLine3.jpg	Medium_e01_cut1_stereo_44KHz.wav
1	160	1	2	0	C	1	1	608	1	poli_8sides 16_whiteLine3.jpg	Medium_e26_stereo_44KHz.wav
1	161	3	4	2	I	1	0	655	0	poli_8sides 8_whiteLine3.jpg	Medium_e01_cut1_stereo_44KHz.wav
1	162	2	2	1	C	2	1	839	1	poli_8sides 18_whiteLine3.jpg	Medium_e26_stereo_44KHz.wav
1	163	4	4	2	I	1	0	685	1	poli_8sides 2_whiteLine3.jpg	Medium_e01_cut1_stereo_44KHz.wav
1	164	1	1	1	C	1	0	592	0	poli_8sides 16_whiteLine3.jpg	MediumLong_e19_stereo_44KHz.wav
1	165	2	1	0	C	2	0	578	0	poli_8sides 18_whiteLine3.jpg	MediumLong_e19_stereo_44KHz.wav
1	166	1	2	0	C	1	1	712	1	poli_8sides 16_whiteLine3.jpg	Medium_e26_stereo_44KHz.wav
1	167	3	3	2	I	1	0	958	0	poli_8sides 8_whiteLine3.jpg	Medium_e13_stereo_44KHz.wav
1	168	4	3	2	I	1	0	1084	0	poli_8sides 2_whiteLine3.jpg	Medium_e13_stereo_44KHz.wav
1	169	2	2	1	C	2	1	795	1	poli_8sides 18_whiteLine3.jpg	Medium_e26_stereo_44KHz.wav
1	170	1	1	1	C	1	0	931	0	poli_8sides 16_whiteLine3.jpg	MediumLong_e19_stereo_44KHz.wav
1	171	4	4	2	I	1	0	961	0	poli_8sides 2_whiteLine3.jpg	Medium_e01_cut1_stereo_44KHz.wav
1	172	3	4	2	I	1	0	561	1	poli_8sides 8_whiteLine3.jpg	Medium_e01_cut1_stereo_44KHz.wav
1	173	4	3	2	I	1	0	837	0	poli_8sides 2_whiteLine3.jpg	Medium_e13_stereo_44KHz.wav
1	174	2	1	0	C	1	1	860	1	poli_8sides 18_whiteLine3.jpg	MediumLong_e19_stereo_44KHz.wav
1	175	3	3	2	I	1	0	823	0	poli_8sides 8_whiteLine3.jpg	Medium_e13_stereo_44KHz.wav
1	176	1	2	0	C	1	1	900	1	poli_8sides 16_whiteLine3.jpg	Medium_e26_stereo_44KHz.wav
1	177	2	2	1	C	2	1	551	1	poli_8sides 18_whiteLine3.jpg	Medium_e26_stereo_44KHz.wav
1	178	1	2	0	C	1	1	802	1	poli_8sides 16_whiteLine3.jpg	Medium_e26_stereo_44KHz.wav
1	179	3	3	2	I	2	0	874	0	poli_8sides 8_whiteLine3.jpg	Medium_e13_stereo_44KHz.wav
1	180	4	4	2	I	1	0	881	1	poli_8sides 2_whiteLine3.jpg	Medium_e01_cut1_stereo_44KHz.wav
1	181	1	1	1	C	2	1	1055	1	poli_8sides 16_whiteLine3.jpg	MediumLong_e19_stereo_44KHz.wav
1	182	2	1	0	C	1	1	966	1	poli_8sides 18_whiteLine3.jpg	MediumLong_e19_stereo_44KHz.wav
1	183	3	4	2	I	1	0	640	0	poli_8sides 8_whiteLine3.jpg	Medium_e01_cut1_stereo_44KHz.wav
1	184	4	3	2	I	1	0	773	1	poli_8sides 2_whiteLine3.jpg	Medium_e13_stereo_44KHz.wav
1	185	2	1	0	C	1	1	595	1	poli_8sides 18_whiteLine3.jpg	MediumLong_e19_stereo_44KHz.wav
1	186	1	2	0	C	1	1	957	1	poli_8sides 16_whiteLine3.jpg	Medium_e26_stereo_44KHz.wav
1	187	4	4	2	I	2	0	937	1	poli_8sides 2_whiteLine3.jpg	Medium_e01_cut1_stereo_44KHz.wav
1	188	3	3	2	I	1	0	726	1	poli_8sides 8_whiteLine3.jpg	Medium_e13_stereo_44KHz.wav
1	189	1	1	1	C	1	0	655	0	poli_8sides 16_whiteLine3.jpg	MediumLong_e19_stereo_44KHz.wav
1	190	3	4	2	I	1	0	1183	1	poli_8sides 8_whiteLine3.jpg	Medium_e01_cut1_stereo_44KHz.wav
1	191	2	2	1	C	2	1	967	1	poli_8sides 18_whiteLine3.jpg	Medium_e26_stereo_44KHz.wav
1	192	4	3	2	I	1	0	861	0	poli_8sides 2_whiteLine3.jpg	Medium_e13_stereo_44KHz.wav
1	193	2	1	0	C	1	1	709	1	poli_8sides 18_whiteLine3.jpg	MediumLong_e19_stereo_44KHz.wav
1	194	3	3	2	I	2	0	926	0	poli_8sides 8_whiteLine3.jpg	Medium_e13_stereo_44KHz.wav
1	195	1	2	0	C	1	1	578	1	poli_8sides 16_whiteLine3.jpg	Medium_e26_stereo_44KHz.wav
1	196	4	3	2	I	1	0	745	1	poli_8sides 2_whiteLine3.jpg	Medium_e13_stereo_44KHz.wav
1	197	2	2	1	C	2	1	718	1	poli_8sides 18_whiteLine3.jpg	Medium_e26_stereo_44KHz.wav
1	198	1	1	1	C	2	1	831	1	poli_8sides 16_whiteLine3.jpg	MediumLong_e19_stereo_44KHz.wav
1	199	3	4	2	I	1	0	873	0	poli_8sides 8_whiteLine3.jpg	Medium_e01_cut1_stereo_44KHz.wav
1	200	4	4	2	I	1	0	678	0	poli_8sides 2_whiteLine3.jpg	Medium_e01_cut1_stereo_44KHz.wav
2	1	3	4	2	I	1	0	1262	0	poli_8sides 13_whiteLine3.jpg	Short_b20_cut1_stereo_44KHz.wav
2	2	1	2	0	C	1	1	535	1	poli_8sides 12_whiteLine3.jpg	Short_b22_cut1_stereo_44KHz.wav
2	3	2	1	0	C	1	1	432	1	poli_8sides 7_whiteLine3.jpg	Short_b23_cut1_stereo_44KHz.wav
2	4	4	4	2	I	1	0	698	1	poli_8sides 15_whiteLine3.jpg	Short_b20_cut1_stereo_44KHz.wav
2	5	1	1	1	C	1	0	469	0	poli_8sides 12_whiteLine3.jpg	Short_b23_cut1_stereo_44KHz.wav
2	6	4	3	2	I	1	0	421	1	poli_8sides 15_whiteLine3.jpg	Short_b09_cut1_stereo_44KHz.wav
2	7	2	2	1	C	1	0	418	0	poli_8sides 7_whiteLine3.jpg	Short_b22_cut1_stereo_44KHz.wav
2	8	3	3	2	I	1	0	369	1	poli_8sides 13_whiteLine3.jpg	Short_b09_cut1_stereo_44KHz.wav
2	9	1	1	1	C	1	0	455	0	poli_8sides 12_whiteLine3.jpg	Short_b23_cut1_stereo_44KHz.wav
2	10	4	4	2	I	2	0	238	0	poli_8sides 15_whiteLine3.jpg	Short_b20_cut1_stereo_44KHz.wav
2	11	2	1	0	C	1	1	521	1	poli_8sides 7_whiteLine3.jpg	Short_b23_cut1_stereo_44KHz.wav
2	12	3	4	2	I	1	0	579	0	poli_8sides 13_whiteLine3.jpg	Short_b20_cut1_stereo_44KHz.wav
2	13	1	2	0	C	2	0	589	0	poli_8sides 12_whiteLine3.jpg	Short_b22_cut1_stereo_44KHz.wav
2	14	4	3	2	I	1	0	425	1	poli_8sides 15_whiteLine3.jpg	Short_b09_cut1_stereo_44KHz.wav
2	15	2	2	1	C	1	0	862	0	poli_8sides 7_whiteLine3.jpg	Short_b22_cut1_stereo_44KHz.wav
2	16	3	3	2	I	1	0	630	0	poli_8sides 13_whiteLine3.jpg	Short_b09_cut1_stereo_44KHz.wav
2	17	1	1	1	C	1	0	630	0	poli_8sides 12_whiteLine3.jpg	Short_b23_cut1_stereo_44KHz.wav
2	18	4	3	2	I	2	0	162	0	poli_8sides 15_whiteLine3.jpg	Short_b09_cut1_stereo_44KHz.wav
2	19	3	3	2	I	1	0	231	0	poli_8sides 13_whiteLine3.jpg	Short_b09_cut1_stereo_44KHz.wav
2	20	2	2	1	C	2	1	590	1	poli_8sides 7_whiteLine3.jpg	Short_b22_cut1_stereo_44KHz.wav
2	21	1	2	0	C	2	0	568	0	poli_8sides 12_whiteLine3.jpg	Short_b22_cut1_stereo_44KHz.wav
2	22	4	4	2	I	2	0	938	0	poli_8sides 15_whiteLine3.jpg	Short_b20_cut1_stereo_44KHz.wav
2	23	3	4	2	I	2	0	916	0	poli_8sides 13_whiteLine3.jpg	Short_b20_cut1_stereo_44KHz.wav
2	24	2	1	0	C	1	1	773	1	poli_8sides 7_whiteLine3.jpg	Short_b23_cut1_stereo_44KHz.wav
2	25	3	3	2	I	1	0	701	0	poli_8sides 13_whiteLine3.jpg	Short_b09_cut1_stereo_44KHz.wav
2	26	4	3	2	I	2	0	331	1	poli_8sides 15_whiteLine3.jpg	Short_b09_cut1_stereo_44KHz.wav
2	27	1	2	0	C	1	1	991	1	poli_8sides 12_whiteLine3.jpg	Short_b22_cut1_stereo_44KHz.wav
2	28	2	1	0	C	1	1	795	1	poli_8sides 7_whiteLine3.jpg	Short_b23_cut1_stereo_44KHz.wav
2	29	4	4	2	I	1	0	736	0	poli_8sides 15_whiteLine3.jpg	Short_b20_cut1_stereo_44KHz.wav
2	30	1	1	1	C	1	0	726	0	poli_8sides 12_whiteLine3.jpg	Short_b23_cut1_stereo_44KHz.wav
2	31	2	2	1	C	1	0	759	0	poli_8sides 7_whiteLine3.jpg	Short_b22_cut1_stereo_44KHz.wav
2	32	3	4	2	I	1	0	779	1	poli_8sides 13_whiteLine3.jpg	Short_b20_cut1_stereo_44KHz.wav
2	33	1	2	0	C	1	1	759	1	poli_8sides 12_whiteLine3.jpg	Short_b22_cut1_stereo_44KHz.wav
2	34	4	4	2	I	1	0	938	0	poli_8sides 15_whiteLine3.jpg	Short_b20_cut1_stereo_44KHz.wav
2	35	2	1	0	C	1	1	751	1	poli_8sides 7_whiteLine3.jpg	Short_b23_cut1_stereo_44KHz.wav
2	36	3	3	2	I	2	0	608	0	poli_8sides 13_whiteLine3.jpg	Short_b09_cut1_stereo_44KHz.wav
2	37	2	2	1	C	1	0	721	0	poli_8sides 7_whiteLine3.jpg	Short_b22_cut1_stereo_44KHz.wav
2	38	4	3	2	I	1	0	643	1	poli_8sides 15_whiteLine3.jpg	Short_b09_cut1_stereo_44KHz.wav
2	39	3	4	2	I	1	0	694	0	poli_8sides 13_whiteLine3.jpg	Short_b20_cut1_stereo_44KHz.wav
2	40	1	1	1	C	1	0	723	0	poli_8sides 12_whiteLine3.jpg	Short_b23_cut1_stereo_44KHz.wav
2	41	3	3	2	I	2	0	762	0	poli_8sides 13_whiteLine3.jpg	Short_b09_cut1_stereo_44KHz.wav
2	42	1	2	0	C	1	1	560	1	poli_8sides 12_whiteLine3.jpg	Short_b22_cut1_stereo_44KHz.wav
2	43	4	4	2	I	1	0	538	0	poli_8sides 15_whiteLine3.jpg	Short_b20_cut1_stereo_44KHz.wav
2	44	2	2	1	C	1	0	632	0	poli_8sides 7_whiteLine3.jpg	Short_b22_cut1_stereo_44KHz.wav
2	45	3	4	2	I	1	0	683	0	poli_8sides 13_whiteLine3.jpg	Short_b20_cut1_stereo_44KHz.wav
2	46	4	3	2	I	1	0	666	1	poli_8sides 15_whiteLine3.jpg	Short_b09_cut1_stereo_44KHz.wav
2	47	1	1	1	C	1	0	433	0	poli_8sides 12_whiteLine3.jpg	Short_b23_cut1_stereo_44KHz.wav
2	48	2	1	0	C	2	0	525	0	poli_8sides 7_whiteLine3.jpg	Short_b23_cut1_stereo_44KHz.wav
2	49	3	4	2	I	1	0	606	0	poli_8sides 13_whiteLine3.jpg	Short_b20_cut1_stereo_44KHz.wav
2	50	1	1	1	C	1	0	656	0	poli_8sides 12_whiteLine3.jpg	Short_b23_cut1_stereo_44KHz.wav
2	51	2	1	0	C	1	1	510	1	poli_8sides 7_whiteLine3.jpg	Short_b23_cut1_stereo_44KHz.wav
2	52	4	4	2	I	1	0	559	1	poli_8sides 15_whiteLine3.jpg	Short_b20_cut1_stereo_44KHz.wav
2	53	3	3	2	I	1	0	656	1	poli_8sides 13_whiteLine3.jpg	Short_b09_cut1_stereo_44KHz.wav
2	54	2	2	1	C	1	0	686	0	poli_8sides 7_whiteLine3.jpg	Short_b22_cut1_stereo_44KHz.wav
2	55	1	2	0	C	1	1	898	1	poli_8sides 12_whiteLine3.jpg	Short_b22_cut1_stereo_44KHz.wav
2	56	4	3	2	I	1	0	638	1	poli_8sides 15_whiteLine3.jpg	Short_b09_cut1_stereo_44KHz.wav
2	57	3	3	2	I	2	0	1296	1	poli_8sides 13_whiteLine3.jpg	Short_b09_cut1_stereo_44KHz.wav
2	58	1	1	1	C	1	0	611	0	poli_8sides 12_whiteLine3.jpg	Short_b23_cut1_stereo_44KHz.wav
2	59	4	3	2	I	1	0	675	1	poli_8sides 15_whiteLine3.jpg	Short_b09_cut1_stereo_44KHz.wav
2	60	2	2	1	C	1	0	686	0	poli_8sides 7_whiteLine3.jpg	Short_b22_cut1_stereo_44KHz.wav
2	61	4	4	2	I	1	0	555	0	poli_8sides 15_whiteLine3.jpg	Short_b20_cut1_stereo_44KHz.wav
2	62	2	1	0	C	1	1	667	1	poli_8sides 7_whiteLine3.jpg	Short_b23_cut1_stereo_44KHz.wav
2	63	1	2	0	C	1	1	1055	1	poli_8sides 12_whiteLine3.jpg	Short_b22_cut1_stereo_44KHz.wav
2	64	3	4	2	I	1	0	663	1	poli_8sides 13_whiteLine3.jpg	Short_b20_cut1_stereo_44KHz.wav
2	65	1	2	0	C	1	1	782	1	poli_8sides 12_whiteLine3.jpg	Short_b22_cut1_stereo_44KHz.wav
2	66	3	3	2	I	1	0	611	0	poli_8sides 13_whiteLine3.jpg	Short_b09_cut1_stereo_44KHz.wav
2	67	2	2	1	C	1	0	832	0	poli_8sides 7_whiteLine3.jpg	Short_b22_cut1_stereo_44KHz.wav
2	68	4	4	2	I	1	0	449	0	poli_8sides 15_whiteLine3.jpg	Short_b20_cut1_stereo_44KHz.wav
2	69	3	4	2	I	1	0	606	0	poli_8sides 13_whiteLine3.jpg	Short_b20_cut1_stereo_44KHz.wav
2	70	4	3	2	I	1	0	587	0	poli_8sides 15_whiteLine3.jpg	Short_b09_cut1_stereo_44KHz.wav
2	71	1	1	1	C	1	0	718	0	poli_8sides 12_whiteLine3.jpg	Short_b23_cut1_stereo_44KHz.wav
2	72	2	1	0	C	1	1	788	1	poli_8sides 7_whiteLine3.jpg	Short_b23_cut1_stereo_44KHz.wav
2	73	4	3	2	I	1	0	760	1	poli_8sides 15_whiteLine3.jpg	Short_b09_cut1_stereo_44KHz.wav
2	74	1	2	0	C	1	1	737	1	poli_8sides 12_whiteLine3.jpg	Short_b22_cut1_stereo_44KHz.wav
2	75	2	1	0	C	1	1	727	1	poli_8sides 7_whiteLine3.jpg	Short_b23_cut1_stereo_44KHz.wav
2	76	3	4	2	I	1	0	629	1	poli_8sides 13_whiteLine3.jpg	Short_b20_cut1_stereo_44KHz.wav
2	77	2	2	1	C	2	1	963	1	poli_8sides 7_whiteLine3.jpg	Short_b22_cut1_stereo_44KHz.wav
2	78	4	4	2	I	2	0	976	0	poli_8sides 15_whiteLine3.jpg	Short_b20_cut1_stereo_44KHz.wav
2	79	3	3	2	I	1	0	621	0	poli_8sides 13_whiteLine3.jpg	Short_b09_cut1_stereo_44KHz.wav
2	80	1	1	1	C	1	0	597	0	poli_8sides 12_whiteLine3.jpg	Short_b23_cut1_stereo_44KHz.wav
2	81	2	1	0	C	1	1	648	1	poli_8sides 7_whiteLine3.jpg	Short_b23_cut1_stereo_44KHz.wav
2	82	4	4	2	I	1	0	727	1	poli_8sides 15_whiteLine3.jpg	Short_b20_cut1_stereo_44KHz.wav
2	83	1	2	0	C	1	1	655	1	poli_8sides 12_whiteLine3.jpg	Short_b22_cut1_stereo_44KHz.wav
2	84	3	4	2	I	1	0	783	1	poli_8sides 13_whiteLine3.jpg	Short_b20_cut1_stereo_44KHz.wav
2	85	2	2	1	C	1	0	672	0	poli_8sides 7_whiteLine3.jpg	Short_b22_cut1_stereo_44KHz.wav
2	86	4	3	2	I	1	0	840	1	poli_8sides 15_whiteLine3.jpg	Short_b09_cut1_stereo_44KHz.wav
2	87	3	3	2	I	2	0	871	1	poli_8sides 13_whiteLine3.jpg	Short_b09_cut1_stereo_44KHz.wav
2	88	1	1	1	C	1	0	736	0	poli_8sides 12_whiteLine3.jpg	Short_b23_cut1_stereo_44KHz.wav
2	89	2	1	0	C	1	1	688	1	poli_8sides 7_whiteLine3.jpg	Short_b23_cut1_stereo_44KHz.wav
2	90	4	3	2	I	1	0	806	0	poli_8sides 15_whiteLine3.jpg	Short_b09_cut1_stereo_44KHz.wav
2	91	1	2	0	C	1	1	662	1	poli_8sides 12_whiteLine3.jpg	Short_b22_cut1_stereo_44KHz.wav
2	92	3	4	2	I	1	0	643	0	poli_8sides 13_whiteLine3.jpg	Short_b20_cut1_stereo_44KHz.wav
2	93	4	4	2	I	1	0	616	0	poli_8sides 15_whiteLine3.jpg	Short_b20_cut1_stereo_44KHz.wav
2	94	1	1	1	C	1	0	545	0	poli_8sides 12_whiteLine3.jpg	Short_b23_cut1_stereo_44KHz.wav
2	95	3	3	2	I	1	0	559	1	poli_8sides 13_whiteLine3.jpg	Short_b09_cut1_stereo_44KHz.wav
2	96	2	2	1	C	1	0	854	0	poli_8sides 7_whiteLine3.jpg	Short_b22_cut1_stereo_44KHz.wav
2	97	3	4	2	I	1	0	616	1	poli_8sides 13_whiteLine3.jpg	Short_b20_cut1_stereo_44KHz.wav
2	98	4	3	2	I	1	0	780	0	poli_8sides 15_whiteLine3.jpg	Short_b09_cut1_stereo_44KHz.wav
2	99	1	2	0	C	1	1	595	1	poli_8sides 12_whiteLine3.jpg	Short_b22_cut1_stereo_44KHz.wav
2	100	2	2	1	C	1	0	845	0	poli_8sides 7_whiteLine3.jpg	Short_b22_cut1_stereo_44KHz.wav
2	101	1	1	1	C	1	0	536	0	poli_8sides 12_whiteLine3.jpg	Short_b23_cut1_stereo_44KHz.wav
2	102	2	1	0	C	1	1	800	1	poli_8sides 7_whiteLine3.jpg	Short_b23_cut1_stereo_44KHz.wav
2	103	4	4	2	I	1	0	412	1	poli_8sides 15_whiteLine3.jpg	Short_b20_cut1_stereo_44KHz.wav
2	104	3	3	2	I	1	0	913	1	poli_8sides 13_whiteLine3.jpg	Short_b09_cut1_stereo_44KHz.wav
2	105	4	4	2	I	2	0	929	1	poli_8sides 15_whiteLine3.jpg	Short_b20_cut1_stereo_44KHz.wav
2	106	3	4	2	I	1	0	392	0	poli_8sides 13_whiteLine3.jpg	Short_b20_cut1_stereo_44KHz.wav
2	107	2	1	0	C	1	1	614	1	poli_8sides 7_whiteLine3.jpg	Short_b23_cut1_stereo_44KHz.wav
2	108	1	1	1	C	1	0	684	0	poli_8sides 12_whiteLine3.jpg	Short_b23_cut1_stereo_44KHz.wav
2	109	3	3	2	I	1	0	1119	0	poli_8sides 13_whiteLine3.jpg	Short_b09_cut1_stereo_44KHz.wav
2	110	2	2	1	C	1	0	565	0	poli_8sides 7_whiteLine3.jpg	Short_b22_cut1_stereo_44KHz.wav
2	111	4	3	2	I	1	0	631	1	poli_8sides 15_whiteLine3.jpg	Short_b09_cut1_stereo_44KHz.wav
2	112	1	2	0	C	1	1	759	1	poli_8sides 12_whiteLine3.jpg	Short_b22_cut1_stereo_44KHz.wav
2	113	2	1	0	C	1	1	676	1	poli_8sides 7_whiteLine3.jpg	Short_b23_cut1_stereo_44KHz.wav
2	114	3	4	2	I	1	0	574	0	poli_8sides 13_whiteLine3.jpg	Short_b20_cut1_stereo_44KHz.wav
2	115	4	3	2	I	1	0	818	1	poli_8sides 15_whiteLine3.jpg	Short_b09_cut1_stereo_44KHz.wav
2	116	1	1	1	C	1	0	550	0	poli_8sides 12_whiteLine3.jpg	Short_b23_cut1_stereo_44KHz.wav
2	117	2	2	1	C	1	0	830	0	poli_8sides 7_whiteLine3.jpg	Short_b22_cut1_stereo_44KHz.wav
2	118	3	3	2	I	1	0	559	1	poli_8sides 13_whiteLine3.jpg	Short_b09_cut1_stereo_44KHz.wav
2	119	1	2	0	C	1	1	592	1	poli_8sides 12_whiteLine3.jpg	Short_b22_cut1_stereo_44KHz.wav
2	120	4	4	2	I	1	0	673	0	poli_8sides 15_whiteLine3.jpg	Short_b20_cut1_stereo_44KHz.wav
2	121	1	1	1	C	1	0	618	0	poli_8sides 12_whiteLine3.jpg	Short_b23_cut1_stereo_44KHz.wav
2	122	2	2	1	C	2	1	906	1	poli_8sides 7_whiteLine3.jpg	Short_b22_cut1_stereo_44KHz.wav
2	123	3	3	2	I	1	0	735	1	poli_8sides 13_whiteLine3.jpg	Short_b09_cut1_stereo_44KHz.wav
2	124	4	4	2	I	1	0	1037	0	poli_8sides 15_whiteLine3.jpg	Short_b20_cut1_stereo_44KHz.wav
2	125	1	2	0	C	1	1	703	1	poli_8sides 12_whiteLine3.jpg	Short_b22_cut1_stereo_44KHz.wav
2	126	4	3	2	I	1	0	718	1	poli_8sides 15_whiteLine3.jpg	Short_b09_cut1_stereo_44KHz.wav
2	127	2	1	0	C	1	1	667	1	poli_8sides 7_whiteLine3.jpg	Short_b23_cut1_stereo_44KHz.wav
2	128	3	4	2	I	1	0	718	0	poli_8sides 13_whiteLine3.jpg	Short_b20_cut1_stereo_44KHz.wav
2	129	1	2	0	C	1	1	908	1	poli_8sides 12_whiteLine3.jpg	Short_b22_cut1_stereo_44KHz.wav
2	130	4	3	2	I	1	0	594	1	poli_8sides 15_whiteLine3.jpg	Short_b09_cut1_stereo_44KHz.wav
2	131	3	3	2	I	2	0	708	0	poli_8sides 13_whiteLine3.jpg	Short_b09_cut1_stereo_44KHz.wav
2	132	2	1	0	C	1	1	755	1	poli_8sides 7_whiteLine3.jpg	Short_b23_cut1_stereo_44KHz.wav
2	133	1	1	1	C	2	1	688	1	poli_8sides 12_whiteLine3.jpg	Short_b23_cut1_stereo_44KHz.wav
2	134	3	4	2	I	1	0	753	1	poli_8sides 13_whiteLine3.jpg	Short_b20_cut1_stereo_44KHz.wav
2	135	4	4	2	I	1	0	720	0	poli_8sides 15_whiteLine3.jpg	Short_b20_cut1_stereo_44KHz.wav
2	136	2	2	1	C	1	0	860	0	poli_8sides 7_whiteLine3.jpg	Short_b22_cut1_stereo_44KHz.wav
2	137	1	1	1	C	2	1	819	1	poli_8sides 12_whiteLine3.jpg	Short_b23_cut1_stereo_44KHz.wav
2	138	2	1	0	C	2	0	1178	0	poli_8sides 7_whiteLine3.jpg	Short_b23_cut1_stereo_44KHz.wav
2	139	3	4	2	I	1	0	652	1	poli_8sides 13_whiteLine3.jpg	Short_b20_cut1_stereo_44KHz.wav
2	140	4	4	2	I	1	0	784	1	poli_8sides 15_whiteLine3.jpg	Short_b20_cut1_stereo_44KHz.wav
2	141	3	3	2	I	1	0	985	1	poli_8sides 13_whiteLine3.jpg	Short_b09_cut1_stereo_44KHz.wav
2	142	1	2	0	C	1	1	781	1	poli_8sides 12_whiteLine3.jpg	Short_b22_cut1_stereo_44KHz.wav
2	143	4	3	2	I	1	0	781	1	poli_8sides 15_whiteLine3.jpg	Short_b09_cut1_stereo_44KHz.wav
2	144	2	2	1	C	1	0	774	0	poli_8sides 7_whiteLine3.jpg	Short_b22_cut1_stereo_44KHz.wav
2	145	3	3	2	I	1	0	651	1	poli_8sides 13_whiteLine3.jpg	Short_b09_cut1_stereo_44KHz.wav
2	146	4	4	2	I	1	0	673	0	poli_8sides 15_whiteLine3.jpg	Short_b20_cut1_stereo_44KHz.wav
2	147	2	1	0	C	1	1	648	1	poli_8sides 7_whiteLine3.jpg	Short_b23_cut1_stereo_44KHz.wav
2	148	1	2	0	C	1	1	862	1	poli_8sides 12_whiteLine3.jpg	Short_b22_cut1_stereo_44KHz.wav
2	149	2	2	1	C	1	0	798	0	poli_8sides 7_whiteLine3.jpg	Short_b22_cut1_stereo_44KHz.wav
2	150	1	1	1	C	1	0	1037	0	poli_8sides 12_whiteLine3.jpg	Short_b23_cut1_stereo_44KHz.wav
2	151	4	3	2	I	1	0	588	0	poli_8sides 15_whiteLine3.jpg	Short_b09_cut1_stereo_44KHz.wav
2	152	3	4	2	I	2	0	888	0	poli_8sides 13_whiteLine3.jpg	Short_b20_cut1_stereo_44KHz.wav
2	153	2	2	1	C	1	0	681	0	poli_8sides 7_whiteLine3.jpg	Short_b22_cut1_stereo_44KHz.wav
2	154	4	3	2	I	1	0	636	1	poli_8sides 15_whiteLine3.jpg	Short_b09_cut1_stereo_44KHz.wav
2	155	1	1	1	C	1	0	839	0	poli_8sides 12_whiteLine3.jpg	Short_b23_cut1_stereo_44KHz.wav
2	156	3	3	2	I	1	0	722	1	poli_8sides 13_whiteLine3.jpg	Short_b09_cut1_stereo_44KHz.wav
2	157	1	2	0	C	1	1	821	1	poli_8sides 12_whiteLine3.jpg	Short_b22_cut1_stereo_44KHz.wav
2	158	3	4	2	I	1	0	1046	1	poli_8sides 13_whiteLine3.jpg	Short_b20_cut1_stereo_44KHz.wav
2	159	4	4	2	I	2	0	907	0	poli_8sides 15_whiteLine3.jpg	Short_b20_cut1_stereo_44KHz.wav
2	160	2	1	0	C	1	1	893	1	poli_8sides 7_whiteLine3.jpg	Short_b23_cut1_stereo_44KHz.wav
2	161	1	2	0	C	1	1	694	1	poli_8sides 12_whiteLine3.jpg	Short_b22_cut1_stereo_44KHz.wav
2	162	4	3	2	I	1	0	681	0	poli_8sides 15_whiteLine3.jpg	Short_b09_cut1_stereo_44KHz.wav
2	163	3	4	2	I	1	0	605	1	poli_8sides 13_whiteLine3.jpg	Short_b20_cut1_stereo_44KHz.wav
2	164	2	1	0	C	1	1	1012	1	poli_8sides 7_whiteLine3.jpg	Short_b23_cut1_stereo_44KHz.wav
2	165	4	4	2	I	2	0	919	0	poli_8sides 15_whiteLine3.jpg	Short_b20_cut1_stereo_44KHz.wav
2	166	1	1	1	C	1	0	734	0	poli_8sides 12_whiteLine3.jpg	Short_b23_cut1_stereo_44KHz.wav
2	167	3	3	2	I	1	0	605	1	poli_8sides 13_whiteLine3.jpg	Short_b09_cut1_stereo_44KHz.wav
2	168	2	2	1	C	1	0	885	0	poli_8sides 7_whiteLine3.jpg	Short_b22_cut1_stereo_44KHz.wav
2	169	1	2	0	C	1	1	757	1	poli_8sides 12_whiteLine3.jpg	Short_b22_cut1_stereo_44KHz.wav
2	170	4	4	2	I	1	0	827	1	poli_8sides 15_whiteLine3.jpg	Short_b20_cut1_stereo_44KHz.wav
2	171	3	4	2	I	2	0	642	1	poli_8sides 13_whiteLine3.jpg	Short_b20_cut1_stereo_44KHz.wav
2	172	2	2	1	C	1	0	788	0	poli_8sides 7_whiteLine3.jpg	Short_b22_cut1_stereo_44KHz.wav
2	173	4	3	2	I	1	0	725	1	poli_8sides 15_whiteLine3.jpg	Short_b09_cut1_stereo_44KHz.wav
2	174	2	1	0	C	1	1	820	1	poli_8sides 7_whiteLine3.jpg	Short_b23_cut1_stereo_44KHz.wav
2	175	1	1	1	C	1	0	1220	0	poli_8sides 12_whiteLine3.jpg	Short_b23_cut1_stereo_44KHz.wav
2	176	3	3	2	I	1	0	698	1	poli_8sides 13_whiteLine3.jpg	Short_b09_cut1_stereo_44KHz.wav
2	177	4	3	2	I	2	0	857	0	poli_8sides 15_whiteLine3.jpg	Short_b09_cut1_stereo_44KHz.wav
2	178	3	4	2	I	1	0	565	1	poli_8sides 13_whiteLine3.jpg	Short_b20_cut1_stereo_44KHz.wav
2	179	1	1	1	C	1	0	765	0	poli_8sides 12_whiteLine3.jpg	Short_b23_cut1_stereo_44KHz.wav
2	180	2	2	1	C	1	0	863	0	poli_8sides 7_whiteLine3.jpg	Short_b22_cut1_stereo_44KHz.wav
2	181	4	4	2	I	1	0	759	0	poli_8sides 15_whiteLine3.jpg	Short_b20_cut1_stereo_44KHz.wav
2	182	3	3	2	I	2	0	539	0	poli_8sides 13_whiteLine3.jpg	Short_b09_cut1_stereo_44KHz.wav
2	183	1	2	0	C	1	1	716	1	poli_8sides 12_whiteLine3.jpg	Short_b22_cut1_stereo_44KHz.wav
2	184	2	1	0	C	1	1	829	1	poli_8sides 7_whiteLine3.jpg	Short_b23_cut1_stereo_44KHz.wav
2	185	1	1	1	C	1	0	803	0	poli_8sides 12_whiteLine3.jpg	Short_b23_cut1_stereo_44KHz.wav
2	186	2	2	1	C	1	0	776	0	poli_8sides 7_whiteLine3.jpg	Short_b22_cut1_stereo_44KHz.wav
2	187	4	3	2	I	1	0	774	1	poli_8sides 15_whiteLine3.jpg	Short_b09_cut1_stereo_44KHz.wav
2	188	3	4	2	I	1	0	631	0	poli_8sides 13_whiteLine3.jpg	Short_b20_cut1_stereo_44KHz.wav
2	189	1	2	0	C	1	1	749	1	poli_8sides 12_whiteLine3.jpg	Short_b22_cut1_stereo_44KHz.wav
2	190	3	3	2	I	1	0	709	0	poli_8sides 13_whiteLine3.jpg	Short_b09_cut1_stereo_44KHz.wav
2	191	4	4	2	I	1	0	785	0	poli_8sides 15_whiteLine3.jpg	Short_b20_cut1_stereo_44KHz.wav
2	192	2	1	0	C	1	1	568	1	poli_8sides 7_whiteLine3.jpg	Short_b23_cut1_stereo_44KHz.wav
2	193	4	4	2	I	1	0	678	1	poli_8sides 15_whiteLine3.jpg	Short_b20_cut1_stereo_44KHz.wav
2	194	3	3	2	I	1	0	655	0	poli_8sides 13_whiteLine3.jpg	Short_b09_cut1_stereo_44KHz.wav
2	195	1	1	1	C	1	0	697	0	poli_8sides 12_whiteLine3.jpg	Short_b23_cut1_stereo_44KHz.wav
2	196	2	1	0	C	1	1	708	1	poli_8sides 7_whiteLine3.jpg	Short_b23_cut1_stereo_44KHz.wav
2	197	4	3	2	I	1	0	960	0	poli_8sides 15_whiteLine3.jpg	Short_b09_cut1_stereo_44KHz.wav
2	198	2	2	1	C	1	0	740	0	poli_8sides 7_whiteLine3.jpg	Short_b22_cut1_stereo_44KHz.wav
2	199	3	4	2	I	1	0	562	1	poli_8sides 13_whiteLine3.jpg	Short_b20_cut1_stereo_44KHz.wav
2	200	1	2	0	C	1	1	637	1	poli_8sides 12_whiteLine3.jpg	Short_b22_cut1_stereo_44KHz.wav
3	1	3	4	2	I	1	0	1053	0	poli_8sides 11_whiteLine3.jpg	MediumShort_b16_cut3_MS_stereo_44KHz.wav
3	2	2	2	1	C	2	1	726	1	poli_8sides 3_whiteLine3.jpg	MediumShort_b10_cut1_MS_stereo_44KHz.wav
3	3	4	3	2	I	1	0	416	0	poli_8sides 9_whiteLine3.jpg	MediumShort_e22_cut1_stereo_44KHz.wav
3	4	1	1	1	C	1	0	382	0	poli_8sides 6_whiteLine3.jpg	MediumShort_e16_cut1_stereo_44KHz.wav
3	5	4	4	2	I	1	0	461	0	poli_8sides 9_whiteLine3.jpg	MediumShort_b16_cut3_MS_stereo_44KHz.wav
3	6	1	2	0	C	1	1	292	1	poli_8sides 6_whiteLine3.jpg	MediumShort_b10_cut1_MS_stereo_44KHz.wav
3	7	2	1	0	C	1	1	383	1	poli_8sides 3_whiteLine3.jpg	MediumShort_e16_cut1_stereo_44KHz.wav
3	8	3	3	2	I	1	0	378	0	poli_8sides 11_whiteLine3.jpg	MediumShort_e22_cut1_stereo_44KHz.wav
3	9	4	4	2	I	1	0	500	0	poli_8sides 9_whiteLine3.jpg	MediumShort_b16_cut3_MS_stereo_44KHz.wav
3	10	3	3	2	I	1	0	571	1	poli_8sides 11_whiteLine3.jpg	MediumShort_e22_cut1_stereo_44KHz.wav
3	11	2	1	0	C	1	1	497	1	poli_8sides 3_whiteLine3.jpg	MediumShort_e16_cut1_stereo_44KHz.wav
3	12	1	1	1	C	2	1	703	1	poli_8sides 6_whiteLine3.jpg	MediumShort_e16_cut1_stereo_44KHz.wav
3	13	4	3	2	I	1	0	550	1	poli_8sides 9_whiteLine3.jpg	MediumShort_e22_cut1_stereo_44KHz.wav
3	14	2	2	1	C	1	0	754	0	poli_8sides 3_whiteLine3.jpg	MediumShort_b10_cut1_MS_stereo_44KHz.wav
3	15	1	2	0	C	1	1	506	1	poli_8sides 6_whiteLine3.jpg	MediumShort_b10_cut1_MS_stereo_44KHz.wav
3	16	3	4	2	I	1	0	814	1	poli_8sides 11_whiteLine3.jpg	MediumShort_b16_cut3_MS_stereo_44KHz.wav
3	17	4	3	2	I	1	0	677	0	poli_8sides 9_whiteLine3.jpg	MediumShort_e22_cut1_stereo_44KHz.wav
3	18	1	1	1	C	2	1	932	1	poli_8sides 6_whiteLine3.jpg	MediumShort_e16_cut1_stereo_44KHz.wav
3	19	3	3	2	I	1	0	576	1	poli_8sides 11_whiteLine3.jpg	MediumShort_e22_cut1_stereo_44KHz.wav
3	20	2	1	0	C	1	1	546	1	poli_8sides 3_whiteLine3.jpg	MediumShort_e16_cut1_stereo_44KHz.wav
3	21	4	4	2	I	1	0	658	1	poli_8sides 9_whiteLine3.jpg	MediumShort_b16_cut3_MS_stereo_44KHz.wav
3	22	2	2	1	C	1	0	656	0	poli_8sides 3_whiteLine3.jpg	MediumShort_b10_cut1_MS_stereo_44KHz.wav
3	23	1	2	0	C	1	1	377	1	poli_8sides 6_whiteLine3.jpg	MediumShort_b10_cut1_MS_stereo_44KHz.wav
3	24	3	4	2	I	1	0	803	1	poli_8sides 11_whiteLine3.jpg	MediumShort_b16_cut3_MS_stereo_44KHz.wav
3	25	1	1	1	C	2	1	606	1	poli_8sides 6_whiteLine3.jpg	MediumShort_e16_cut1_stereo_44KHz.wav
3	26	3	4	2	I	1	0	703	0	poli_8sides 11_whiteLine3.jpg	MediumShort_b16_cut3_MS_stereo_44KHz.wav
3	27	4	3	2	I	2	0	914	1	poli_8sides 9_whiteLine3.jpg	MediumShort_e22_cut1_stereo_44KHz.wav
3	28	2	2	1	C	2	1	688	1	poli_8sides 3_whiteLine3.jpg	MediumShort_b10_cut1_MS_stereo_44KHz.wav
3	29	4	4	2	I	1	0	1022	0	poli_8sides 9_whiteLine3.jpg	MediumShort_b16_cut3_MS_stereo_44KHz.wav
3	30	3	3	2	I	1	0	553	0	poli_8sides 11_whiteLine3.jpg	MediumShort_e22_cut1_stereo_44KHz.wav
3	31	2	1	0	C	1	1	603	1	poli_8sides 3_whiteLine3.jpg	MediumShort_e16_cut1_stereo_44KHz.wav
3	32	1	2	0	C	1	1	837	1	poli_8sides 6_whiteLine3.jpg	MediumShort_b10_cut1_MS_stereo_44KHz.wav
3	33	3	3	2	I	1	0	551	0	poli_8sides 11_whiteLine3.jpg	MediumShort_e22_cut1_stereo_44KHz.wav
3	34	1	2	0	C	1	1	673	1	poli_8sides 6_whiteLine3.jpg	MediumShort_b10_cut1_MS_stereo_44KHz.wav
3	35	2	1	0	C	1	1	797	1	poli_8sides 3_whiteLine3.jpg	MediumShort_e16_cut1_stereo_44KHz.wav
3	36	4	3	2	I	1	0	636	0	poli_8sides 9_whiteLine3.jpg	MediumShort_e22_cut1_stereo_44KHz.wav
3	37	2	2	1	C	2	1	709	1	poli_8sides 3_whiteLine3.jpg	MediumShort_b10_cut1_MS_stereo_44KHz.wav
3	38	1	1	1	C	2	1	553	1	poli_8sides 6_whiteLine3.jpg	MediumShort_e16_cut1_stereo_44KHz.wav
3	39	4	4	2	I	1	0	810	1	poli_8sides 9_whiteLine3.jpg	MediumShort_b16_cut3_MS_stereo_44KHz.wav
3	40	3	4	2	I	1	0	595	1	poli_8sides 11_whiteLine3.jpg	MediumShort_b16_cut3_MS_stereo_44KHz.wav
3	41	1	1	1	C	2	1	692	1	poli_8sides 6_whiteLine3.jpg	MediumShort_e16_cut1_stereo_44KHz.wav
3	42	2	1	0	C	1	1	713	1	poli_8sides 3_whiteLine3.jpg	MediumShort_e16_cut1_stereo_44KHz.wav
3	43	4	4	2	I	1	0	745	1	poli_8sides 9_whiteLine3.jpg	MediumShort_b16_cut3_MS_stereo_44KHz.wav
3	44	3	3	2	I	1	0	509	1	poli_8sides 11_whiteLine3.jpg	MediumShort_e22_cut1_stereo_44KHz.wav
3	45	4	3	2	I	2	0	808	1	poli_8sides 9_whiteLine3.jpg	MediumShort_e22_cut1_stereo_44KHz.wav
3	46	1	2	0	C	1	1	771	1	poli_8sides 6_whiteLine3.jpg	MediumShort_b10_cut1_MS_stereo_44KHz.wav
3	47	2	2	1	C	2	1	698	1	poli_8sides 3_whiteLine3.jpg	MediumShort_b10_cut1_MS_stereo_44KHz.wav
3	48	3	4	2	I	1	0	644	0	poli_8sides 11_whiteLine3.jpg	MediumShort_b16_cut3_MS_stereo_44KHz.wav
3	49	1	2	0	C	2	0	848	0	poli_8sides 6_whiteLine3.jpg	MediumShort_b10_cut1_MS_stereo_44KHz.wav
3	50	3	4	2	I	1	0	539	1	poli_8sides 11_whiteLine3.jpg	MediumShort_b16_cut3_MS_stereo_44KHz.wav
3	51	4	4	2	I	1	0	775	0	poli_8sides 9_whiteLine3.jpg	MediumShort_b16_cut3_MS_stereo_44KHz.wav
3	52	2	2	1	C	2	1	751	1	poli_8sides 3_whiteLine3.jpg	MediumShort_b10_cut1_MS_stereo_44KHz.wav
3	53	3	3	2	I	1	0	749	0	poli_8sides 11_whiteLine3.jpg	MediumShort_e22_cut1_stereo_44KHz.wav
3	54	4	3	2	I	1	0	484	1	poli_8sides 9_whiteLine3.jpg	MediumShort_e22_cut1_stereo_44KHz.wav
3	55	1	1	1	C	2	1	846	1	poli_8sides 6_whiteLine3.jpg	MediumShort_e16_cut1_stereo_44KHz.wav
3	56	2	1	0	C	1	1	762	1	poli_8sides 3_whiteLine3.jpg	MediumShort_e16_cut1_stereo_44KHz.wav
3	57	3	3	2	I	1	0	933	0	poli_8sides 11_whiteLine3.jpg	MediumShort_e22_cut1_stereo_44KHz.wav
3	58	4	3	2	I	1	0	634	0	poli_8sides 9_whiteLine3.jpg	MediumShort_e22_cut1_stereo_44KHz.wav
3	59	2	2	1	C	2	1	960	1	poli_8sides 3_whiteLine3.jpg	MediumShort_b10_cut1_MS_stereo_44KHz.wav
3	60	1	2	0	C	1	1	740	1	poli_8sides 6_whiteLine3.jpg	MediumShort_b10_cut1_MS_stereo_44KHz.wav
3	61	4	4	2	I	1	0	681	1	poli_8sides 9_whiteLine3.jpg	MediumShort_b16_cut3_MS_stereo_44KHz.wav
3	62	3	4	2	I	2	0	794	1	poli_8sides 11_whiteLine3.jpg	MediumShort_b16_cut3_MS_stereo_44KHz.wav
3	63	2	1	0	C	1	1	603	1	poli_8sides 3_whiteLine3.jpg	MediumShort_e16_cut1_stereo_44KHz.wav
3	64	1	1	1	C	2	1	1017	1	poli_8sides 6_whiteLine3.jpg	MediumShort_e16_cut1_stereo_44KHz.wav
3	65	4	3	2	I	1	0	737	1	poli_8sides 9_whiteLine3.jpg	MediumShort_e22_cut1_stereo_44KHz.wav
3	66	1	2	0	C	2	0	826	0	poli_8sides 6_whiteLine3.jpg	MediumShort_b10_cut1_MS_stereo_44KHz.wav
3	67	3	4	2	I	1	0	739	0	poli_8sides 11_whiteLine3.jpg	MediumShort_b16_cut3_MS_stereo_44KHz.wav
3	68	2	1	0	C	1	1	650	1	poli_8sides 3_whiteLine3.jpg	MediumShort_e16_cut1_stereo_44KHz.wav
3	69	1	1	1	C	2	1	807	1	poli_8sides 6_whiteLine3.jpg	MediumShort_e16_cut1_stereo_44KHz.wav
3	70	3	3	2	I	1	0	1258	0	poli_8sides 11_whiteLine3.jpg	MediumShort_e22_cut1_stereo_44KHz.wav
3	71	4	4	2	I	1	0	675	1	poli_8sides 9_whiteLine3.jpg	MediumShort_b16_cut3_MS_stereo_44KHz.wav
3	72	2	2	1	C	2	1	791	1	poli_8sides 3_whiteLine3.jpg	MediumShort_b10_cut1_MS_stereo_44KHz.wav
3	73	3	3	2	I	1	0	776	0	poli_8sides 11_whiteLine3.jpg	MediumShort_e22_cut1_stereo_44KHz.wav
3	74	2	1	0	C	1	1	682	1	poli_8sides 3_whiteLine3.jpg	MediumShort_e16_cut1_stereo_44KHz.wav
3	75	4	4	2	I	2	0	764	1	poli_8sides 9_whiteLine3.jpg	MediumShort_b16_cut3_MS_stereo_44KHz.wav
3	76	1	2	0	C	1	1	577	1	poli_8sides 6_whiteLine3.jpg	MediumShort_b10_cut1_MS_stereo_44KHz.wav
3	77	3	4	2	I	2	0	688	1	poli_8sides 11_whiteLine3.jpg	MediumShort_b16_cut3_MS_stereo_44KHz.wav
3	78	4	3	2	I	1	0	591	0	poli_8sides 9_whiteLine3.jpg	MediumShort_e22_cut1_stereo_44KHz.wav
3	79	2	2	1	C	2	1	684	1	poli_8sides 3_whiteLine3.jpg	MediumShort_b10_cut1_MS_stereo_44KHz.wav
3	80	1	1	1	C	2	1	993	1	poli_8sides 6_whiteLine3.jpg	MediumShort_e16_cut1_stereo_44KHz.wav
3	81	4	3	2	I	1	0	947	0	poli_8sides 9_whiteLine3.jpg	MediumShort_e22_cut1_stereo_44KHz.wav
3	82	3	4	2	I	2	0	807	1	poli_8sides 11_whiteLine3.jpg	MediumShort_b16_cut3_MS_stereo_44KHz.wav
3	83	2	1	0	C	1	1	681	1	poli_8sides 3_whiteLine3.jpg	MediumShort_e16_cut1_stereo_44KHz.wav
3	84	1	1	1	C	2	1	644	1	poli_8sides 6_whiteLine3.jpg	MediumShort_e16_cut1_stereo_44KHz.wav
3	85	3	3	2	I	1	0	789	1	poli_8sides 11_whiteLine3.jpg	MediumShort_e22_cut1_stereo_44KHz.wav
3	86	1	2	0	C	1	1	695	1	poli_8sides 6_whiteLine3.jpg	MediumShort_b10_cut1_MS_stereo_44KHz.wav
3	87	2	2	1	C	2	1	836	1	poli_8sides 3_whiteLine3.jpg	MediumShort_b10_cut1_MS_stereo_44KHz.wav
3	88	4	4	2	I	1	0	926	0	poli_8sides 9_whiteLine3.jpg	MediumShort_b16_cut3_MS_stereo_44KHz.wav
3	89	3	4	2	I	1	0	717	0	poli_8sides 11_whiteLine3.jpg	MediumShort_b16_cut3_MS_stereo_44KHz.wav
3	90	2	1	0	C	1	1	650	1	poli_8sides 3_whiteLine3.jpg	MediumShort_e16_cut1_stereo_44KHz.wav
3	91	1	2	0	C	1	1	596	1	poli_8sides 6_whiteLine3.jpg	MediumShort_b10_cut1_MS_stereo_44KHz.wav
3	92	4	3	2	I	2	0	944	0	poli_8sides 9_whiteLine3.jpg	MediumShort_e22_cut1_stereo_44KHz.wav
3	93	1	1	1	C	1	0	612	0	poli_8sides 6_whiteLine3.jpg	MediumShort_e16_cut1_stereo_44KHz.wav
3	94	2	2	1	C	1	0	946	0	poli_8sides 3_whiteLine3.jpg	MediumShort_b10_cut1_MS_stereo_44KHz.wav
3	95	4	4	2	I	1	0	627	1	poli_8sides 9_whiteLine3.jpg	MediumShort_b16_cut3_MS_stereo_44KHz.wav
3	96	3	3	2	I	1	0	657	1	poli_8sides 11_whiteLine3.jpg	MediumShort_e22_cut1_stereo_44KHz.wav
3	97	4	3	2	I	2	0	816	1	poli_8sides 9_whiteLine3.jpg	MediumShort_e22_cut1_stereo_44KHz.wav
3	98	3	4	2	I	1	0	697	0	poli_8sides 11_whiteLine3.jpg	MediumShort_b16_cut3_MS_stereo_44KHz.wav
3	99	2	1	0	C	1	1	710	1	poli_8sides 3_whiteLine3.jpg	MediumShort_e16_cut1_stereo_44KHz.wav
3	100	1	1	1	C	2	1	844	1	poli_8sides 6_whiteLine3.jpg	MediumShort_e16_cut1_stereo_44KHz.wav
3	101	2	2	1	C	2	1	768	1	poli_8sides 3_whiteLine3.jpg	MediumShort_b10_cut1_MS_stereo_44KHz.wav
3	102	1	2	0	C	1	1	564	1	poli_8sides 6_whiteLine3.jpg	MediumShort_b10_cut1_MS_stereo_44KHz.wav
3	103	4	4	2	I	1	0	1174	0	poli_8sides 9_whiteLine3.jpg	MediumShort_b16_cut3_MS_stereo_44KHz.wav
3	104	3	3	2	I	1	0	660	1	poli_8sides 11_whiteLine3.jpg	MediumShort_e22_cut1_stereo_44KHz.wav
3	105	1	1	1	C	2	1	812	1	poli_8sides 6_whiteLine3.jpg	MediumShort_e16_cut1_stereo_44KHz.wav
3	106	4	4	2	I	1	0	690	1	poli_8sides 9_whiteLine3.jpg	MediumShort_b16_cut3_MS_stereo_44KHz.wav
3	107	3	4	2	I	2	0	819	0	poli_8sides 11_whiteLine3.jpg	MediumShort_b16_cut3_MS_stereo_44KHz.wav
3	108	2	1	0	C	1	1	964	1	poli_8sides 3_whiteLine3.jpg	MediumShort_e16_cut1_stereo_44KHz.wav
3	109	1	2	0	C	2	0	901	0	poli_8sides 6_whiteLine3.jpg	MediumShort_b10_cut1_MS_stereo_44KHz.wav
3	110	4	3	2	I	1	0	793	0	poli_8sides 9_whiteLine3.jpg	MediumShort_e22_cut1_stereo_44KHz.wav
3	111	3	3	2	I	1	0	839	1	poli_8sides 11_whiteLine3.jpg	MediumShort_e22_cut1_stereo_44KHz.wav
3	112	2	2	1	C	2	1	880	1	poli_8sides 3_whiteLine3.jpg	MediumShort_b10_cut1_MS_stereo_44KHz.wav
3	113	1	2	0	C	1	1	739	1	poli_8sides 6_whiteLine3.jpg	MediumShort_b10_cut1_MS_stereo_44KHz.wav
3	114	3	4	2	I	1	0	1158	1	poli_8sides 11_whiteLine3.jpg	MediumShort_b16_cut3_MS_stereo_44KHz.wav
3	115	2	2	1	C	2	1	692	1	poli_8sides 3_whiteLine3.jpg	MediumShort_b10_cut1_MS_stereo_44KHz.wav
3	116	4	3	2	I	1	0	1344	0	poli_8sides 9_whiteLine3.jpg	MediumShort_e22_cut1_stereo_44KHz.wav
3	117	1	1	1	C	2	1	678	1	poli_8sides 6_whiteLine3.jpg	MediumShort_e16_cut1_stereo_44KHz.wav
3	118	2	1	0	C	1	1	729	1	poli_8sides 3_whiteLine3.jpg	MediumShort_e16_cut1_stereo_44KHz.wav
3	119	3	3	2	I	1	0	766	0	poli_8sides 11_whiteLine3.jpg	MediumShort_e22_cut1_stereo_44KHz.wav
3	120	4	4	2	I	1	0	646	0	poli_8sides 9_whiteLine3.jpg	MediumShort_b16_cut3_MS_stereo_44KHz.wav
3	121	1	1	1	C	2	1	555	1	poli_8sides 6_whiteLine3.jpg	MediumShort_e16_cut1_stereo_44KHz.wav
3	122	3	3	2	I	1	0	658	1	poli_8sides 11_whiteLine3.jpg	MediumShort_e22_cut1_stereo_44KHz.wav
3	123	2	2	1	C	2	1	681	1	poli_8sides 3_whiteLine3.jpg	MediumShort_b10_cut1_MS_stereo_44KHz.wav
3	124	4	3	2	I	1	0	646	1	poli_8sides 9_whiteLine3.jpg	MediumShort_e22_cut1_stereo_44KHz.wav
3	125	3	4	2	I	1	0	725	1	poli_8sides 11_whiteLine3.jpg	MediumShort_b16_cut3_MS_stereo_44KHz.wav
3	126	1	2	0	C	1	1	636	1	poli_8sides 6_whiteLine3.jpg	MediumShort_b10_cut1_MS_stereo_44KHz.wav
3	127	2	1	0	C	1	1	661	1	poli_8sides 3_whiteLine3.jpg	MediumShort_e16_cut1_stereo_44KHz.wav
3	128	4	4	2	I	1	0	640	0	poli_8sides 9_whiteLine3.jpg	MediumShort_b16_cut3_MS_stereo_44KHz.wav
3	129	1	1	1	C	1	0	1146	0	poli_8sides 6_whiteLine3.jpg	MediumShort_e16_cut1_stereo_44KHz.wav
3	130	4	3	2	I	1	0	645	1	poli_8sides 9_whiteLine3.jpg	MediumShort_e22_cut1_stereo_44KHz.wav
3	131	2	1	0	C	1	1	664	1	poli_8sides 3_whiteLine3.jpg	MediumShort_e16_cut1_stereo_44KHz.wav
3	132	3	3	2	I	1	0	746	1	poli_8sides 11_whiteLine3.jpg	MediumShort_e22_cut1_stereo_44KHz.wav
3	133	2	2	1	C	2	1	621	1	poli_8sides 3_whiteLine3.jpg	MediumShort_b10_cut1_MS_stereo_44KHz.wav
3	134	4	4	2	I	1	0	719	0	poli_8sides 9_whiteLine3.jpg	MediumShort_b16_cut3_MS_stereo_44KHz.wav
3	135	3	4	2	I	1	0	665	0	poli_8sides 11_whiteLine3.jpg	MediumShort_b16_cut3_MS_stereo_44KHz.wav
3	136	1	2	0	C	1	1	868	1	poli_8sides 6_whiteLine3.jpg	MediumShort_b10_cut1_MS_stereo_44KHz.wav
3	137	2	1	0	C	1	1	598	1	poli_8sides 3_whiteLine3.jpg	MediumShort_e16_cut1_stereo_44KHz.wav
3	138	4	4	2	I	1	0	731	0	poli_8sides 9_whiteLine3.jpg	MediumShort_b16_cut3_MS_stereo_44KHz.wav
3	139	1	1	1	C	2	1	872	1	poli_8sides 6_whiteLine3.jpg	MediumShort_e16_cut1_stereo_44KHz.wav
3	140	3	4	2	I	1	0	730	0	poli_8sides 11_whiteLine3.jpg	MediumShort_b16_cut3_MS_stereo_44KHz.wav
3	141	1	2	0	C	2	0	805	0	poli_8sides 6_whiteLine3.jpg	MediumShort_b10_cut1_MS_stereo_44KHz.wav
3	142	2	2	1	C	2	1	687	1	poli_8sides 3_whiteLine3.jpg	MediumShort_b10_cut1_MS_stereo_44KHz.wav
3	143	4	3	2	I	1	0	616	0	poli_8sides 9_whiteLine3.jpg	MediumShort_e22_cut1_stereo_44KHz.wav
3	144	3	3	2	I	1	0	655	0	poli_8sides 11_whiteLine3.jpg	MediumShort_e22_cut1_stereo_44KHz.wav
3	145	4	3	2	I	1	0	766	1	poli_8sides 9_whiteLine3.jpg	MediumShort_e22_cut1_stereo_44KHz.wav
3	146	2	1	0	C	1	1	961	1	poli_8sides 3_whiteLine3.jpg	MediumShort_e16_cut1_stereo_44KHz.wav
3	147	1	1	1	C	1	0	809	0	poli_8sides 6_whiteLine3.jpg	MediumShort_e16_cut1_stereo_44KHz.wav
3	148	3	3	2	I	1	0	629	1	poli_8sides 11_whiteLine3.jpg	MediumShort_e22_cut1_stereo_44KHz.wav
3	149	4	4	2	I	1	0	673	0	poli_8sides 9_whiteLine3.jpg	MediumShort_b16_cut3_MS_stereo_44KHz.wav
3	150	2	2	1	C	2	1	1039	1	poli_8sides 3_whiteLine3.jpg	MediumShort_b10_cut1_MS_stereo_44KHz.wav
3	151	1	2	0	C	1	1	871	1	poli_8sides 6_whiteLine3.jpg	MediumShort_b10_cut1_MS_stereo_44KHz.wav
3	152	3	4	2	I	1	0	653	0	poli_8sides 11_whiteLine3.jpg	MediumShort_b16_cut3_MS_stereo_44KHz.wav
3	153	1	1	1	C	2	1	819	1	poli_8sides 6_whiteLine3.jpg	MediumShort_e16_cut1_stereo_44KHz.wav
3	154	2	1	0	C	1	1	896	1	poli_8sides 3_whiteLine3.jpg	MediumShort_e16_cut1_stereo_44KHz.wav
3	155	4	4	2	I	1	0	627	0	poli_8sides 9_whiteLine3.jpg	MediumShort_b16_cut3_MS_stereo_44KHz.wav
3	156	3	4	2	I	1	0	641	0	poli_8sides 11_whiteLine3.jpg	MediumShort_b16_cut3_MS_stereo_44KHz.wav
3	157	4	3	2	I	1	0	642	1	poli_8sides 9_whiteLine3.jpg	MediumShort_e22_cut1_stereo_44KHz.wav
3	158	1	2	0	C	1	1	859	1	poli_8sides 6_whiteLine3.jpg	MediumShort_b10_cut1_MS_stereo_44KHz.wav
3	159	2	2	1	C	2	1	644	1	poli_8sides 3_whiteLine3.jpg	MediumShort_b10_cut1_MS_stereo_44KHz.wav
3	160	3	3	2	I	1	0	734	1	poli_8sides 11_whiteLine3.jpg	MediumShort_e22_cut1_stereo_44KHz.wav
3	161	2	2	1	C	1	0	994	0	poli_8sides 3_whiteLine3.jpg	MediumShort_b10_cut1_MS_stereo_44KHz.wav
3	162	4	3	2	I	1	0	650	0	poli_8sides 9_whiteLine3.jpg	MediumShort_e22_cut1_stereo_44KHz.wav
3	163	3	4	2	I	1	0	694	1	poli_8sides 11_whiteLine3.jpg	MediumShort_b16_cut3_MS_stereo_44KHz.wav
3	164	1	2	0	C	1	1	649	1	poli_8sides 6_whiteLine3.jpg	MediumShort_b10_cut1_MS_stereo_44KHz.wav
3	165	3	3	2	I	1	0	1323	1	poli_8sides 11_whiteLine3.jpg	MediumShort_e22_cut1_stereo_44KHz.wav
3	166	4	4	2	I	1	0	754	1	poli_8sides 9_whiteLine3.jpg	MediumShort_b16_cut3_MS_stereo_44KHz.wav
3	167	2	1	0	C	1	1	585	1	poli_8sides 3_whiteLine3.jpg	MediumShort_e16_cut1_stereo_44KHz.wav
3	168	1	1	1	C	2	1	661	1	poli_8sides 6_whiteLine3.jpg	MediumShort_e16_cut1_stereo_44KHz.wav
3	169	2	2	1	C	2	1	916	1	poli_8sides 3_whiteLine3.jpg	MediumShort_b10_cut1_MS_stereo_44KHz.wav
3	170	4	4	2	I	1	0	834	1	poli_8sides 9_whiteLine3.jpg	MediumShort_b16_cut3_MS_stereo_44KHz.wav
3	171	1	2	0	C	1	1	865	1	poli_8sides 6_whiteLine3.jpg	MediumShort_b10_cut1_MS_stereo_44KHz.wav
3	172	3	4	2	I	1	0	773	1	poli_8sides 11_whiteLine3.jpg	MediumShort_b16_cut3_MS_stereo_44KHz.wav
3	173	2	1	0	C	1	1	620	1	poli_8sides 3_whiteLine3.jpg	MediumShort_e16_cut1_stereo_44KHz.wav
3	174	4	3	2	I	1	0	713	1	poli_8sides 9_whiteLine3.jpg	MediumShort_e22_cut1_stereo_44KHz.wav
3	175	1	1	1	C	1	0	832	0	poli_8sides 6_whiteLine3.jpg	MediumShort_e16_cut1_stereo_44KHz.wav
3	176	3	3	2	I	1	0	1159	0	poli_8sides 11_whiteLine3.jpg	MediumShort_e22_cut1_stereo_44KHz.wav
3	177	1	1	1	C	2	1	980	1	poli_8sides 6_whiteLine3.jpg	MediumShort_e16_cut1_stereo_44KHz.wav
3	178	2	2	1	C	2	1	1121	1	poli_8sides 3_whiteLine3.jpg	MediumShort_b10_cut1_MS_stereo_44KHz.wav
3	179	4	3	2	I	1	0	893	1	poli_8sides 9_whiteLine3.jpg	MediumShort_e22_cut1_stereo_44KHz.wav
3	180	3	4	2	I	1	0	777	0	poli_8sides 11_whiteLine3.jpg	MediumShort_b16_cut3_MS_stereo_44KHz.wav
3	181	1	2	0	C	1	1	959	1	poli_8sides 6_whiteLine3.jpg	MediumShort_b10_cut1_MS_stereo_44KHz.wav
3	182	4	4	2	I	1	0	739	1	poli_8sides 9_whiteLine3.jpg	MediumShort_b16_cut3_MS_stereo_44KHz.wav
3	183	2	1	0	C	1	1	679	1	poli_8sides 3_whiteLine3.jpg	MediumShort_e16_cut1_stereo_44KHz.wav
3	184	3	3	2	I	1	0	745	1	poli_8sides 11_whiteLine3.jpg	MediumShort_e22_cut1_stereo_44KHz.wav
3	185	1	2	0	C	1	1	643	1	poli_8sides 6_whiteLine3.jpg	MediumShort_b10_cut1_MS_stereo_44KHz.wav
3	186	4	3	2	I	1	0	1129	1	poli_8sides 9_whiteLine3.jpg	MediumShort_e22_cut1_stereo_44KHz.wav
3	187	2	1	0	C	1	1	648	1	poli_8sides 3_whiteLine3.jpg	MediumShort_e16_cut1_stereo_44KHz.wav
3	188	3	3	2	I	1	0	1009	1	poli_8sides 11_whiteLine3.jpg	MediumShort_e22_cut1_stereo_44KHz.wav
3	189	2	2	1	C	2	1	841	1	poli_8sides 3_whiteLine3.jpg	MediumShort_b10_cut1_MS_stereo_44KHz.wav
3	190	1	1	1	C	2	1	824	1	poli_8sides 6_whiteLine3.jpg	MediumShort_e16_cut1_stereo_44KHz.wav
3	191	4	4	2	I	2	0	818	0	poli_8sides 9_whiteLine3.jpg	MediumShort_b16_cut3_MS_stereo_44KHz.wav
3	192	3	4	2	I	2	0	720	0	poli_8sides 11_whiteLine3.jpg	MediumShort_b16_cut3_MS_stereo_44KHz.wav
3	193	1	1	1	C	2	1	798	1	poli_8sides 6_whiteLine3.jpg	MediumShort_e16_cut1_stereo_44KHz.wav
3	194	3	3	2	I	1	0	1723	0	poli_8sides 11_whiteLine3.jpg	MediumShort_e22_cut1_stereo_44KHz.wav
3	195	2	2	1	C	2	1	838	1	poli_8sides 3_whiteLine3.jpg	MediumShort_b10_cut1_MS_stereo_44KHz.wav
3	196	4	4	2	I	1	0	874	0	poli_8sides 9_whiteLine3.jpg	MediumShort_b16_cut3_MS_stereo_44KHz.wav
3	197	2	1	0	C	1	1	826	1	poli_8sides 3_whiteLine3.jpg	MediumShort_e16_cut1_stereo_44KHz.wav
3	198	3	4	2	I	1	0	781	0	poli_8sides 11_whiteLine3.jpg	MediumShort_b16_cut3_MS_stereo_44KHz.wav
3	199	4	3	2	I	1	0	610	1	poli_8sides 9_whiteLine3.jpg	MediumShort_e22_cut1_stereo_44KHz.wav
3	200	1	2	0	C	2	0	1028	0	poli_8sides 6_whiteLine3.jpg	MediumShort_b10_cut1_MS_stereo_44KHz.wav
4	1	4	3	2	I	2	0	1112	1	poli_8sides 5_whiteLine3.jpg	MediumLong_e17_cut2_stereo_44KHz.wav
4	2	1	2	0	C	1	1	520	1	poli_8sides 10_whiteLine3.jpg	Medium_e21_stereo_44KHz.wav
4	3	2	2	1	C	2	1	766	1	poli_8sides 4_whiteLine3.jpg	Medium_e21_stereo_44KHz.wav
4	4	3	3	2	I	1	0	791	1	poli_8sides 1_whiteLine3.jpg	MediumLong_e17_cut2_stereo_44KHz.wav
4	5	4	4	2	I	2	0	1204	1	poli_8sides 5_whiteLine3.jpg	MediumLong_e04_stereo_44KHz.wav
4	6	3	4	2	I	1	0	645	1	poli_8sides 1_whiteLine3.jpg	MediumLong_e04_stereo_44KHz.wav
4	7	1	1	1	C	1	0	907	0	poli_8sides 10_whiteLine3.jpg	MediumLong_b10_cut2_L_stereo_44KHz.wav
4	8	2	1	0	C	1	1	927	1	poli_8sides 4_whiteLine3.jpg	MediumLong_b10_cut2_L_stereo_44KHz.wav
4	9	4	3	2	I	1	0	1153	1	poli_8sides 5_whiteLine3.jpg	MediumLong_e17_cut2_stereo_44KHz.wav
4	10	3	4	2	I	1	0	483	0	poli_8sides 1_whiteLine3.jpg	MediumLong_e04_stereo_44KHz.wav
4	11	2	1	0	C	1	1	642	1	poli_8sides 4_whiteLine3.jpg	MediumLong_b10_cut2_L_stereo_44KHz.wav
4	12	1	2	0	C	1	1	1045	1	poli_8sides 10_whiteLine3.jpg	Medium_e21_stereo_44KHz.wav
4	13	3	3	2	I	2	0	1017	1	poli_8sides 1_whiteLine3.jpg	MediumLong_e17_cut2_stereo_44KHz.wav
4	14	1	1	1	C	1	0	1151	0	poli_8sides 10_whiteLine3.jpg	MediumLong_b10_cut2_L_stereo_44KHz.wav
4	15	4	4	2	I	1	0	810	0	poli_8sides 5_whiteLine3.jpg	MediumLong_e04_stereo_44KHz.wav
4	16	2	2	1	C	1	0	1348	0	poli_8sides 4_whiteLine3.jpg	Medium_e21_stereo_44KHz.wav
4	17	4	3	2	I	0	0	0	0	poli_8sides 5_whiteLine3.jpg	MediumLong_e17_cut2_stereo_44KHz.wav
4	18	2	1	0	C	1	1	581	1	poli_8sides 4_whiteLine3.jpg	MediumLong_b10_cut2_L_stereo_44KHz.wav
4	19	1	1	1	C	1	0	628	0	poli_8sides 10_whiteLine3.jpg	MediumLong_b10_cut2_L_stereo_44KHz.wav
4	20	3	4	2	I	1	0	645	0	poli_8sides 1_whiteLine3.jpg	MediumLong_e04_stereo_44KHz.wav
4	21	4	4	2	I	1	0	682	1	poli_8sides 5_whiteLine3.jpg	MediumLong_e04_stereo_44KHz.wav
4	22	2	2	1	C	1	0	900	0	poli_8sides 4_whiteLine3.jpg	Medium_e21_stereo_44KHz.wav
4	23	1	2	0	C	1	1	644	1	poli_8sides 10_whiteLine3.jpg	Medium_e21_stereo_44KHz.wav
4	24	3	3	2	I	1	0	1094	1	poli_8sides 1_whiteLine3.jpg	MediumLong_e17_cut2_stereo_44KHz.wav
4	25	4	4	2	I	2	0	934	1	poli_8sides 5_whiteLine3.jpg	MediumLong_e04_stereo_44KHz.wav
4	26	1	2	0	C	1	1	1003	1	poli_8sides 10_whiteLine3.jpg	Medium_e21_stereo_44KHz.wav
4	27	3	4	2	I	1	0	901	0	poli_8sides 1_whiteLine3.jpg	MediumLong_e04_stereo_44KHz.wav
4	28	2	2	1	C	1	0	618	0	poli_8sides 4_whiteLine3.jpg	Medium_e21_stereo_44KHz.wav
4	29	3	3	2	I	1	0	866	1	poli_8sides 1_whiteLine3.jpg	MediumLong_e17_cut2_stereo_44KHz.wav
4	30	2	1	0	C	1	1	715	1	poli_8sides 4_whiteLine3.jpg	MediumLong_b10_cut2_L_stereo_44KHz.wav
4	31	4	3	2	I	1	0	695	1	poli_8sides 5_whiteLine3.jpg	MediumLong_e17_cut2_stereo_44KHz.wav
4	32	1	1	1	C	2	1	1393	1	poli_8sides 10_whiteLine3.jpg	MediumLong_b10_cut2_L_stereo_44KHz.wav
4	33	3	4	2	I	2	0	917	1	poli_8sides 1_whiteLine3.jpg	MediumLong_e04_stereo_44KHz.wav
4	34	4	3	2	I	2	0	826	0	poli_8sides 5_whiteLine3.jpg	MediumLong_e17_cut2_stereo_44KHz.wav
4	35	1	1	1	C	1	0	881	0	poli_8sides 10_whiteLine3.jpg	MediumLong_b10_cut2_L_stereo_44KHz.wav
4	36	2	2	1	C	1	0	837	0	poli_8sides 4_whiteLine3.jpg	Medium_e21_stereo_44KHz.wav
4	37	1	2	0	C	1	1	639	1	poli_8sides 10_whiteLine3.jpg	Medium_e21_stereo_44KHz.wav
4	38	2	1	0	C	1	1	799	1	poli_8sides 4_whiteLine3.jpg	MediumLong_b10_cut2_L_stereo_44KHz.wav
4	39	4	4	2	I	1	0	925	0	poli_8sides 5_whiteLine3.jpg	MediumLong_e04_stereo_44KHz.wav
4	40	3	3	2	I	1	0	1020	1	poli_8sides 1_whiteLine3.jpg	MediumLong_e17_cut2_stereo_44KHz.wav
4	41	1	1	1	C	1	0	745	0	poli_8sides 10_whiteLine3.jpg	MediumLong_b10_cut2_L_stereo_44KHz.wav
4	42	3	3	2	I	1	0	901	0	poli_8sides 1_whiteLine3.jpg	MediumLong_e17_cut2_stereo_44KHz.wav
4	43	2	2	1	C	1	0	604	0	poli_8sides 4_whiteLine3.jpg	Medium_e21_stereo_44KHz.wav
4	44	4	4	2	I	1	0	557	0	poli_8sides 5_whiteLine3.jpg	MediumLong_e04_stereo_44KHz.wav
4	45	3	4	2	I	1	0	708	0	poli_8sides 1_whiteLine3.jpg	MediumLong_e04_stereo_44KHz.wav
4	46	4	3	2	I	1	0	557	0	poli_8sides 5_whiteLine3.jpg	MediumLong_e17_cut2_stereo_44KHz.wav
4	47	1	2	0	C	2	0	1037	0	poli_8sides 10_whiteLine3.jpg	Medium_e21_stereo_44KHz.wav
4	48	2	1	0	C	1	1	816	1	poli_8sides 4_whiteLine3.jpg	MediumLong_b10_cut2_L_stereo_44KHz.wav
4	49	4	4	2	I	1	0	1135	1	poli_8sides 5_whiteLine3.jpg	MediumLong_e04_stereo_44KHz.wav
4	50	3	3	2	I	1	0	915	0	poli_8sides 1_whiteLine3.jpg	MediumLong_e17_cut2_stereo_44KHz.wav
4	51	2	2	1	C	2	1	1228	1	poli_8sides 4_whiteLine3.jpg	Medium_e21_stereo_44KHz.wav
4	52	1	2	0	C	1	1	906	1	poli_8sides 10_whiteLine3.jpg	Medium_e21_stereo_44KHz.wav
4	53	3	4	2	I	2	0	716	0	poli_8sides 1_whiteLine3.jpg	MediumLong_e04_stereo_44KHz.wav
4	54	2	1	0	C	1	1	896	1	poli_8sides 4_whiteLine3.jpg	MediumLong_b10_cut2_L_stereo_44KHz.wav
4	55	4	3	2	I	1	0	738	1	poli_8sides 5_whiteLine3.jpg	MediumLong_e17_cut2_stereo_44KHz.wav
4	56	1	1	1	C	2	1	967	1	poli_8sides 10_whiteLine3.jpg	MediumLong_b10_cut2_L_stereo_44KHz.wav
4	57	2	1	0	C	1	1	656	1	poli_8sides 4_whiteLine3.jpg	MediumLong_b10_cut2_L_stereo_44KHz.wav
4	58	4	4	2	I	1	0	912	1	poli_8sides 5_whiteLine3.jpg	MediumLong_e04_stereo_44KHz.wav
4	59	1	1	1	C	2	1	926	1	poli_8sides 10_whiteLine3.jpg	MediumLong_b10_cut2_L_stereo_44KHz.wav
4	60	3	3	2	I	1	0	973	1	poli_8sides 1_whiteLine3.jpg	MediumLong_e17_cut2_stereo_44KHz.wav
4	61	1	2	0	C	1	1	810	1	poli_8sides 10_whiteLine3.jpg	Medium_e21_stereo_44KHz.wav
4	62	4	3	2	I	1	0	894	0	poli_8sides 5_whiteLine3.jpg	MediumLong_e17_cut2_stereo_44KHz.wav
4	63	3	4	2	I	2	0	819	0	poli_8sides 1_whiteLine3.jpg	MediumLong_e04_stereo_44KHz.wav
4	64	2	2	1	C	2	1	979	1	poli_8sides 4_whiteLine3.jpg	Medium_e21_stereo_44KHz.wav
4	65	4	3	2	I	2	0	843	0	poli_8sides 5_whiteLine3.jpg	MediumLong_e17_cut2_stereo_44KHz.wav
4	66	3	3	2	I	2	0	981	0	poli_8sides 1_whiteLine3.jpg	MediumLong_e17_cut2_stereo_44KHz.wav
4	67	1	2	0	C	1	1	667	1	poli_8sides 10_whiteLine3.jpg	Medium_e21_stereo_44KHz.wav
4	68	2	1	0	C	1	1	829	1	poli_8sides 4_whiteLine3.jpg	MediumLong_b10_cut2_L_stereo_44KHz.wav
4	69	1	1	1	C	2	1	978	1	poli_8sides 10_whiteLine3.jpg	MediumLong_b10_cut2_L_stereo_44KHz.wav
4	70	3	4	2	I	2	0	993	0	poli_8sides 1_whiteLine3.jpg	MediumLong_e04_stereo_44KHz.wav
4	71	2	2	1	C	2	1	1099	1	poli_8sides 4_whiteLine3.jpg	Medium_e21_stereo_44KHz.wav
4	72	4	4	2	I	1	0	746	1	poli_8sides 5_whiteLine3.jpg	MediumLong_e04_stereo_44KHz.wav
4	73	3	3	2	I	1	0	892	0	poli_8sides 1_whiteLine3.jpg	MediumLong_e17_cut2_stereo_44KHz.wav
4	74	4	4	2	I	1	0	1074	0	poli_8sides 5_whiteLine3.jpg	MediumLong_e04_stereo_44KHz.wav
4	75	2	1	0	C	1	1	795	1	poli_8sides 4_whiteLine3.jpg	MediumLong_b10_cut2_L_stereo_44KHz.wav
4	76	1	2	0	C	1	1	747	1	poli_8sides 10_whiteLine3.jpg	Medium_e21_stereo_44KHz.wav
4	77	3	4	2	I	1	0	584	1	poli_8sides 1_whiteLine3.jpg	MediumLong_e04_stereo_44KHz.wav
4	78	2	2	1	C	2	1	729	1	poli_8sides 4_whiteLine3.jpg	Medium_e21_stereo_44KHz.wav
4	79	1	1	1	C	2	1	745	1	poli_8sides 10_whiteLine3.jpg	MediumLong_b10_cut2_L_stereo_44KHz.wav
4	80	4	3	2	I	1	0	840	1	poli_8sides 5_whiteLine3.jpg	MediumLong_e17_cut2_stereo_44KHz.wav
4	81	1	1	1	C	2	1	742	1	poli_8sides 10_whiteLine3.jpg	MediumLong_b10_cut2_L_stereo_44KHz.wav
4	82	4	3	2	I	1	0	807	1	poli_8sides 5_whiteLine3.jpg	MediumLong_e17_cut2_stereo_44KHz.wav
4	83	3	4	2	I	1	0	694	1	poli_8sides 1_whiteLine3.jpg	MediumLong_e04_stereo_44KHz.wav
4	84	2	2	1	C	2	1	626	1	poli_8sides 4_whiteLine3.jpg	Medium_e21_stereo_44KHz.wav
4	85	3	3	2	I	2	0	956	1	poli_8sides 1_whiteLine3.jpg	MediumLong_e17_cut2_stereo_44KHz.wav
4	86	2	1	0	C	1	1	804	1	poli_8sides 4_whiteLine3.jpg	MediumLong_b10_cut2_L_stereo_44KHz.wav
4	87	1	2	0	C	1	1	738	1	poli_8sides 10_whiteLine3.jpg	Medium_e21_stereo_44KHz.wav
4	88	4	4	2	I	2	0	1133	0	poli_8sides 5_whiteLine3.jpg	MediumLong_e04_stereo_44KHz.wav
4	89	3	3	2	I	1	0	1004	1	poli_8sides 1_whiteLine3.jpg	MediumLong_e17_cut2_stereo_44KHz.wav
4	90	1	2	0	C	1	1	764	1	poli_8sides 10_whiteLine3.jpg	Medium_e21_stereo_44KHz.wav
4	91	4	4	2	I	1	0	1104	1	poli_8sides 5_whiteLine3.jpg	MediumLong_e04_stereo_44KHz.wav
4	92	2	2	1	C	1	0	917	0	poli_8sides 4_whiteLine3.jpg	Medium_e21_stereo_44KHz.wav
4	93	1	1	1	C	2	1	1361	1	poli_8sides 10_whiteLine3.jpg	MediumLong_b10_cut2_L_stereo_44KHz.wav
4	94	4	3	2	I	1	0	870	0	poli_8sides 5_whiteLine3.jpg	MediumLong_e17_cut2_stereo_44KHz.wav
4	95	3	4	2	I	2	0	649	0	poli_8sides 1_whiteLine3.jpg	MediumLong_e04_stereo_44KHz.wav
4	96	2	1	0	C	1	1	649	1	poli_8sides 4_whiteLine3.jpg	MediumLong_b10_cut2_L_stereo_44KHz.wav
4	97	3	4	2	I	1	0	672	0	poli_8sides 1_whiteLine3.jpg	MediumLong_e04_stereo_44KHz.wav
4	98	2	2	1	C	2	1	862	1	poli_8sides 4_whiteLine3.jpg	Medium_e21_stereo_44KHz.wav
4	99	4	3	2	I	1	0	973	1	poli_8sides 5_whiteLine3.jpg	MediumLong_e17_cut2_stereo_44KHz.wav
4	100	1	2	0	C	1	1	816	1	poli_8sides 10_whiteLine3.jpg	Medium_e21_stereo_44KHz.wav
4	101	2	1	0	C	1	1	712	1	poli_8sides 4_whiteLine3.jpg	MediumLong_b10_cut2_L_stereo_44KHz.wav
4	102	3	3	2	I	2	0	906	1	poli_8sides 1_whiteLine3.jpg	MediumLong_e17_cut2_stereo_44KHz.wav
4	103	1	1	1	C	2	1	736	1	poli_8sides 10_whiteLine3.jpg	MediumLong_b10_cut2_L_stereo_44KHz.wav
4	104	4	4	2	I	1	0	936	0	poli_8sides 5_whiteLine3.jpg	MediumLong_e04_stereo_44KHz.wav
4	105	3	3	2	I	2	0	891	1	poli_8sides 1_whiteLine3.jpg	MediumLong_e17_cut2_stereo_44KHz.wav
4	106	1	1	1	C	2	1	692	1	poli_8sides 10_whiteLine3.jpg	MediumLong_b10_cut2_L_stereo_44KHz.wav
4	107	2	2	1	C	2	1	723	1	poli_8sides 4_whiteLine3.jpg	Medium_e21_stereo_44KHz.wav
4	108	4	3	2	I	1	0	931	1	poli_8sides 5_whiteLine3.jpg	MediumLong_e17_cut2_stereo_44KHz.wav
4	109	1	2	0	C	1	1	786	1	poli_8sides 10_whiteLine3.jpg	Medium_e21_stereo_44KHz.wav
4	110	4	4	2	I	2	0	665	1	poli_8sides 5_whiteLine3.jpg	MediumLong_e04_stereo_44KHz.wav
4	111	2	1	0	C	1	1	714	1	poli_8sides 4_whiteLine3.jpg	MediumLong_b10_cut2_L_stereo_44KHz.wav
4	112	3	4	2	I	1	0	770	0	poli_8sides 1_whiteLine3.jpg	MediumLong_e04_stereo_44KHz.wav
4	113	2	2	1	C	2	1	698	1	poli_8sides 4_whiteLine3.jpg	Medium_e21_stereo_44KHz.wav
4	114	4	4	2	I	2	0	822	1	poli_8sides 5_whiteLine3.jpg	MediumLong_e04_stereo_44KHz.wav
4	115	3	3	2	I	1	0	813	1	poli_8sides 1_whiteLine3.jpg	MediumLong_e17_cut2_stereo_44KHz.wav
4	116	1	2	0	C	1	1	888	1	poli_8sides 10_whiteLine3.jpg	Medium_e21_stereo_44KHz.wav
4	117	3	4	2	I	1	0	1075	0	poli_8sides 1_whiteLine3.jpg	MediumLong_e04_stereo_44KHz.wav
4	118	4	3	2	I	2	0	1117	0	poli_8sides 5_whiteLine3.jpg	MediumLong_e17_cut2_stereo_44KHz.wav
4	119	1	1	1	C	2	1	826	1	poli_8sides 10_whiteLine3.jpg	MediumLong_b10_cut2_L_stereo_44KHz.wav
4	120	2	1	0	C	1	1	635	1	poli_8sides 4_whiteLine3.jpg	MediumLong_b10_cut2_L_stereo_44KHz.wav
4	121	4	3	2	I	1	0	862	0	poli_8sides 5_whiteLine3.jpg	MediumLong_e17_cut2_stereo_44KHz.wav
4	122	1	1	1	C	2	1	890	1	poli_8sides 10_whiteLine3.jpg	MediumLong_b10_cut2_L_stereo_44KHz.wav
4	123	2	2	1	C	2	1	739	1	poli_8sides 4_whiteLine3.jpg	Medium_e21_stereo_44KHz.wav
4	124	3	3	2	I	2	0	1153	1	poli_8sides 1_whiteLine3.jpg	MediumLong_e17_cut2_stereo_44KHz.wav
4	125	2	1	0	C	1	1	706	1	poli_8sides 4_whiteLine3.jpg	MediumLong_b10_cut2_L_stereo_44KHz.wav
4	126	3	4	2	I	1	0	1283	0	poli_8sides 1_whiteLine3.jpg	MediumLong_e04_stereo_44KHz.wav
4	127	4	4	2	I	1	0	517	1	poli_8sides 5_whiteLine3.jpg	MediumLong_e04_stereo_44KHz.wav
4	128	1	2	0	C	1	1	888	1	poli_8sides 10_whiteLine3.jpg	Medium_e21_stereo_44KHz.wav
4	129	4	4	2	I	1	0	1092	1	poli_8sides 5_whiteLine3.jpg	MediumLong_e04_stereo_44KHz.wav
4	130	2	2	1	C	2	1	814	1	poli_8sides 4_whiteLine3.jpg	Medium_e21_stereo_44KHz.wav
4	131	3	4	2	I	2	0	954	1	poli_8sides 1_whiteLine3.jpg	MediumLong_e04_stereo_44KHz.wav
4	132	1	1	1	C	2	1	700	1	poli_8sides 10_whiteLine3.jpg	MediumLong_b10_cut2_L_stereo_44KHz.wav
4	133	4	3	2	I	1	0	1112	1	poli_8sides 5_whiteLine3.jpg	MediumLong_e17_cut2_stereo_44KHz.wav
4	134	3	3	2	I	2	0	715	0	poli_8sides 1_whiteLine3.jpg	MediumLong_e17_cut2_stereo_44KHz.wav
4	135	1	2	0	C	1	1	873	1	poli_8sides 10_whiteLine3.jpg	Medium_e21_stereo_44KHz.wav
4	136	2	1	0	C	1	1	1098	1	poli_8sides 4_whiteLine3.jpg	MediumLong_b10_cut2_L_stereo_44KHz.wav
4	137	1	2	0	C	1	1	761	1	poli_8sides 10_whiteLine3.jpg	Medium_e21_stereo_44KHz.wav
4	138	2	1	0	C	1	1	604	1	poli_8sides 4_whiteLine3.jpg	MediumLong_b10_cut2_L_stereo_44KHz.wav
4	139	3	4	2	I	1	0	1244	0	poli_8sides 1_whiteLine3.jpg	MediumLong_e04_stereo_44KHz.wav
4	140	4	3	2	I	2	0	970	0	poli_8sides 5_whiteLine3.jpg	MediumLong_e17_cut2_stereo_44KHz.wav
4	141	3	3	2	I	1	0	789	1	poli_8sides 1_whiteLine3.jpg	MediumLong_e17_cut2_stereo_44KHz.wav
4	142	1	1	1	C	1	0	1274	0	poli_8sides 10_whiteLine3.jpg	MediumLong_b10_cut2_L_stereo_44KHz.wav
4	143	4	4	2	I	1	0	898	0	poli_8sides 5_whiteLine3.jpg	MediumLong_e04_stereo_44KHz.wav
4	144	2	2	1	C	2	1	603	1	poli_8sides 4_whiteLine3.jpg	Medium_e21_stereo_44KHz.wav
4	145	4	4	2	I	1	0	1164	1	poli_8sides 5_whiteLine3.jpg	MediumLong_e04_stereo_44KHz.wav
4	146	2	2	1	C	2	1	729	1	poli_8sides 4_whiteLine3.jpg	Medium_e21_stereo_44KHz.wav
4	147	3	4	2	I	1	0	804	0	poli_8sides 1_whiteLine3.jpg	MediumLong_e04_stereo_44KHz.wav
4	148	1	2	0	C	1	1	865	1	poli_8sides 10_whiteLine3.jpg	Medium_e21_stereo_44KHz.wav
4	149	3	3	2	I	2	0	1098	0	poli_8sides 1_whiteLine3.jpg	MediumLong_e17_cut2_stereo_44KHz.wav
4	150	1	1	1	C	2	1	885	1	poli_8sides 10_whiteLine3.jpg	MediumLong_b10_cut2_L_stereo_44KHz.wav
4	151	2	1	0	C	1	1	859	1	poli_8sides 4_whiteLine3.jpg	MediumLong_b10_cut2_L_stereo_44KHz.wav
4	152	4	3	2	I	1	0	793	0	poli_8sides 5_whiteLine3.jpg	MediumLong_e17_cut2_stereo_44KHz.wav
4	153	2	1	0	C	1	1	717	1	poli_8sides 4_whiteLine3.jpg	MediumLong_b10_cut2_L_stereo_44KHz.wav
4	154	3	3	2	I	1	0	1114	1	poli_8sides 1_whiteLine3.jpg	MediumLong_e17_cut2_stereo_44KHz.wav
4	155	1	1	1	C	2	1	788	1	poli_8sides 10_whiteLine3.jpg	MediumLong_b10_cut2_L_stereo_44KHz.wav
4	156	4	4	2	I	1	0	1545	0	poli_8sides 5_whiteLine3.jpg	MediumLong_e04_stereo_44KHz.wav
4	157	2	2	1	C	2	1	800	1	poli_8sides 4_whiteLine3.jpg	Medium_e21_stereo_44KHz.wav
4	158	1	2	0	C	1	1	843	1	poli_8sides 10_whiteLine3.jpg	Medium_e21_stereo_44KHz.wav
4	159	3	4	2	I	1	0	794	1	poli_8sides 1_whiteLine3.jpg	MediumLong_e04_stereo_44KHz.wav
4	160	4	3	2	I	1	0	858	0	poli_8sides 5_whiteLine3.jpg	MediumLong_e17_cut2_stereo_44KHz.wav
4	161	2	1	0	C	1	1	1381	1	poli_8sides 4_whiteLine3.jpg	MediumLong_b10_cut2_L_stereo_44KHz.wav
4	162	1	2	0	C	1	1	752	1	poli_8sides 10_whiteLine3.jpg	Medium_e21_stereo_44KHz.wav
4	163	3	4	2	I	1	0	1455	1	poli_8sides 1_whiteLine3.jpg	MediumLong_e04_stereo_44KHz.wav
4	164	4	3	2	I	1	0	1062	0	poli_8sides 5_whiteLine3.jpg	MediumLong_e17_cut2_stereo_44KHz.wav
4	165	2	2	1	C	2	1	841	1	poli_8sides 4_whiteLine3.jpg	Medium_e21_stereo_44KHz.wav
4	166	4	4	2	I	2	0	1437	0	poli_8sides 5_whiteLine3.jpg	MediumLong_e04_stereo_44KHz.wav
4	167	1	1	1	C	2	1	757	1	poli_8sides 10_whiteLine3.jpg	MediumLong_b10_cut2_L_stereo_44KHz.wav
4	168	3	3	2	I	1	0	1360	0	poli_8sides 1_whiteLine3.jpg	MediumLong_e17_cut2_stereo_44KHz.wav
4	169	1	2	0	C	1	1	752	1	poli_8sides 10_whiteLine3.jpg	Medium_e21_stereo_44KHz.wav
4	170	3	3	2	I	2	0	1032	1	poli_8sides 1_whiteLine3.jpg	MediumLong_e17_cut2_stereo_44KHz.wav
4	171	2	1	0	C	1	1	679	1	poli_8sides 4_whiteLine3.jpg	MediumLong_b10_cut2_L_stereo_44KHz.wav
4	172	4	3	2	I	1	0	804	1	poli_8sides 5_whiteLine3.jpg	MediumLong_e17_cut2_stereo_44KHz.wav
4	173	3	4	2	I	2	0	1562	1	poli_8sides 1_whiteLine3.jpg	MediumLong_e04_stereo_44KHz.wav
4	174	2	2	1	C	2	1	887	1	poli_8sides 4_whiteLine3.jpg	Medium_e21_stereo_44KHz.wav
4	175	4	4	2	I	1	0	1209	1	poli_8sides 5_whiteLine3.jpg	MediumLong_e04_stereo_44KHz.wav
4	176	1	1	1	C	2	1	816	1	poli_8sides 10_whiteLine3.jpg	MediumLong_b10_cut2_L_stereo_44KHz.wav
4	177	3	3	2	I	1	0	1814	0	poli_8sides 1_whiteLine3.jpg	MediumLong_e17_cut2_stereo_44KHz.wav
4	178	2	1	0	C	1	1	688	1	poli_8sides 4_whiteLine3.jpg	MediumLong_b10_cut2_L_stereo_44KHz.wav
4	179	1	1	1	C	2	1	760	1	poli_8sides 10_whiteLine3.jpg	MediumLong_b10_cut2_L_stereo_44KHz.wav
4	180	4	4	2	I	1	0	702	0	poli_8sides 5_whiteLine3.jpg	MediumLong_e04_stereo_44KHz.wav
4	181	1	2	0	C	1	1	792	1	poli_8sides 10_whiteLine3.jpg	Medium_e21_stereo_44KHz.wav
4	182	2	2	1	C	2	1	772	1	poli_8sides 4_whiteLine3.jpg	Medium_e21_stereo_44KHz.wav
4	183	3	4	2	I	1	0	877	1	poli_8sides 1_whiteLine3.jpg	MediumLong_e04_stereo_44KHz.wav
4	184	4	3	2	I	1	0	653	0	poli_8sides 5_whiteLine3.jpg	MediumLong_e17_cut2_stereo_44KHz.wav
4	185	2	2	1	C	2	1	656	1	poli_8sides 4_whiteLine3.jpg	Medium_e21_stereo_44KHz.wav
4	186	3	3	2	I	1	0	945	0	poli_8sides 1_whiteLine3.jpg	MediumLong_e17_cut2_stereo_44KHz.wav
4	187	4	3	2	I	1	0	706	0	poli_8sides 5_whiteLine3.jpg	MediumLong_e17_cut2_stereo_44KHz.wav
4	188	1	2	0	C	1	1	712	1	poli_8sides 10_whiteLine3.jpg	Medium_e21_stereo_44KHz.wav
4	189	2	1	0	C	1	1	710	1	poli_8sides 4_whiteLine3.jpg	MediumLong_b10_cut2_L_stereo_44KHz.wav
4	190	4	4	2	I	1	0	1033	0	poli_8sides 5_whiteLine3.jpg	MediumLong_e04_stereo_44KHz.wav
4	191	3	4	2	I	1	0	642	0	poli_8sides 1_whiteLine3.jpg	MediumLong_e04_stereo_44KHz.wav
4	192	1	1	1	C	1	0	628	0	poli_8sides 10_whiteLine3.jpg	MediumLong_b10_cut2_L_stereo_44KHz.wav
4	193	4	3	2	I	2	0	813	0	poli_8sides 5_whiteLine3.jpg	MediumLong_e17_cut2_stereo_44KHz.wav
4	194	1	2	0	C	1	1	721	1	poli_8sides 10_whiteLine3.jpg	Medium_e21_stereo_44KHz.wav
4	195	2	1	0	C	1	1	656	1	poli_8sides 4_whiteLine3.jpg	MediumLong_b10_cut2_L_stereo_44KHz.wav
4	196	3	4	2	I	1	0	797	0	poli_8sides 1_whiteLine3.jpg	MediumLong_e04_stereo_44KHz.wav
4	197	4	4	2	I	1	0	878	1	poli_8sides 5_whiteLine3.jpg	MediumLong_e04_stereo_44KHz.wav
4	198	1	1	1	C	2	1	760	1	poli_8sides 10_whiteLine3.jpg	MediumLong_b10_cut2_L_stereo_44KHz.wav
4	199	3	3	2	I	1	0	806	1	poli_8sides 1_whiteLine3.jpg	MediumLong_e17_cut2_stereo_44KHz.wav
4	200	2	2	1	C	2	1	792	1	poli_8sides 4_whiteLine3.jpg	Medium_e21_stereo_44KHz.wav
