block	trial	Vstim	Astim	match	C/I	resp	result	RT	fb	V-file	A-file
LR

0	1	2	3	1	C	1	0	1734	0	poli_8sides 22_whiteLine3.jpg	Practice2_b27_cut2_stereo_44KHz.wav
0	2	2	4	0	C	1	1	879	1	poli_8sides 22_whiteLine3.jpg	Practice1_b27_cut1_stereo_44KHz.wav
0	3	1	1	1	C	1	0	1087	0	poli_8sides 23_whiteLine3.jpg	Practice3_b26_cut1_stereo_44KHz.wav
0	4	1	2	0	C	1	1	889	1	poli_8sides 23_whiteLine3.jpg	Practice4_b26_stereo_44KHz.wav
0	5	2	3	1	C	2	1	923	1	poli_8sides 22_whiteLine3.jpg	Practice2_b27_cut2_stereo_44KHz.wav
0	6	1	2	0	C	1	1	775	1	poli_8sides 23_whiteLine3.jpg	Practice4_b26_stereo_44KHz.wav
0	7	2	4	0	C	1	1	847	1	poli_8sides 22_whiteLine3.jpg	Practice1_b27_cut1_stereo_44KHz.wav
0	8	1	1	1	C	2	1	1102	1	poli_8sides 23_whiteLine3.jpg	Practice3_b26_cut1_stereo_44KHz.wav
0	9	1	2	0	C	1	1	631	1	poli_8sides 23_whiteLine3.jpg	Practice4_b26_stereo_44KHz.wav
0	10	2	4	0	C	1	1	826	1	poli_8sides 22_whiteLine3.jpg	Practice1_b27_cut1_stereo_44KHz.wav
0	11	1	1	1	C	2	1	869	1	poli_8sides 23_whiteLine3.jpg	Practice3_b26_cut1_stereo_44KHz.wav
0	12	2	3	1	C	1	0	596	0	poli_8sides 22_whiteLine3.jpg	Practice2_b27_cut2_stereo_44KHz.wav
0	13	1	1	1	C	1	0	675	0	poli_8sides 23_whiteLine3.jpg	Practice3_b26_cut1_stereo_44KHz.wav
0	14	1	2	0	C	1	1	597	1	poli_8sides 23_whiteLine3.jpg	Practice4_b26_stereo_44KHz.wav
0	15	2	3	1	C	2	1	859	1	poli_8sides 22_whiteLine3.jpg	Practice2_b27_cut2_stereo_44KHz.wav
0	16	2	4	0	C	2	0	1133	0	poli_8sides 22_whiteLine3.jpg	Practice1_b27_cut1_stereo_44KHz.wav
0	17	2	3	1	C	2	1	1150	1	poli_8sides 22_whiteLine3.jpg	Practice2_b27_cut2_stereo_44KHz.wav
0	18	2	4	0	C	1	1	801	1	poli_8sides 22_whiteLine3.jpg	Practice1_b27_cut1_stereo_44KHz.wav
0	19	1	1	1	C	2	1	1036	1	poli_8sides 23_whiteLine3.jpg	Practice3_b26_cut1_stereo_44KHz.wav
0	20	1	2	0	C	1	1	646	1	poli_8sides 23_whiteLine3.jpg	Practice4_b26_stereo_44KHz.wav
0	21	2	3	1	C	2	1	851	1	poli_8sides 22_whiteLine3.jpg	Practice2_b27_cut2_stereo_44KHz.wav
0	22	1	1	1	C	2	1	1192	1	poli_8sides 23_whiteLine3.jpg	Practice3_b26_cut1_stereo_44KHz.wav
0	23	1	2	0	C	1	1	551	1	poli_8sides 23_whiteLine3.jpg	Practice4_b26_stereo_44KHz.wav
0	24	2	4	0	C	1	1	559	1	poli_8sides 22_whiteLine3.jpg	Practice1_b27_cut1_stereo_44KHz.wav
0	25	1	1	1	C	2	1	968	1	poli_8sides 23_whiteLine3.jpg	Practice3_b26_cut1_stereo_44KHz.wav
0	26	2	4	0	C	1	1	912	1	poli_8sides 22_whiteLine3.jpg	Practice1_b27_cut1_stereo_44KHz.wav
0	27	1	2	0	C	1	1	709	1	poli_8sides 23_whiteLine3.jpg	Practice4_b26_stereo_44KHz.wav
0	28	2	3	1	C	2	1	630	1	poli_8sides 22_whiteLine3.jpg	Practice2_b27_cut2_stereo_44KHz.wav
0	29	2	3	1	C	2	1	938	1	poli_8sides 22_whiteLine3.jpg	Practice2_b27_cut2_stereo_44KHz.wav
0	30	2	4	0	C	1	1	806	1	poli_8sides 22_whiteLine3.jpg	Practice1_b27_cut1_stereo_44KHz.wav
avg_resp = 838
1	1	3	3	2	I	1	0	874	0	poli_8sides 8_whiteLine3.jpg	MediumShort_e22_cut1_stereo_44KHz.wav
1	2	2	2	1	C	1	0	738	0	poli_8sides 15_whiteLine3.jpg	MediumShort_b10_cut1_MS_stereo_44KHz.wav
1	3	1	2	0	C	1	1	786	1	poli_8sides 9_whiteLine3.jpg	MediumShort_b10_cut1_MS_stereo_44KHz.wav
1	4	4	4	2	I	2	0	979	1	poli_8sides 18_whiteLine3.jpg	MediumShort_e16_cut1_stereo_44KHz.wav
1	5	2	1	0	C	2	0	972	0	poli_8sides 15_whiteLine3.jpg	MediumShort_b16_cut3_MS_stereo_44KHz.wav
1	6	1	1	1	C	2	1	1127	1	poli_8sides 9_whiteLine3.jpg	MediumShort_b16_cut3_MS_stereo_44KHz.wav
1	7	4	3	2	I	1	0	1228	1	poli_8sides 18_whiteLine3.jpg	MediumShort_e22_cut1_stereo_44KHz.wav
1	8	3	4	2	I	2	0	1010	1	poli_8sides 8_whiteLine3.jpg	MediumShort_e16_cut1_stereo_44KHz.wav
1	9	1	2	0	C	1	1	639	1	poli_8sides 9_whiteLine3.jpg	MediumShort_b10_cut1_MS_stereo_44KHz.wav
1	10	4	3	2	I	1	0	1034	1	poli_8sides 18_whiteLine3.jpg	MediumShort_e22_cut1_stereo_44KHz.wav
1	11	3	4	2	I	1	0	838	1	poli_8sides 8_whiteLine3.jpg	MediumShort_e16_cut1_stereo_44KHz.wav
1	12	2	1	0	C	2	0	899	0	poli_8sides 15_whiteLine3.jpg	MediumShort_b16_cut3_MS_stereo_44KHz.wav
1	13	1	1	1	C	1	0	980	0	poli_8sides 9_whiteLine3.jpg	MediumShort_b16_cut3_MS_stereo_44KHz.wav
1	14	2	2	1	C	1	0	1102	0	poli_8sides 15_whiteLine3.jpg	MediumShort_b10_cut1_MS_stereo_44KHz.wav
1	15	3	3	2	I	1	0	910	1	poli_8sides 8_whiteLine3.jpg	MediumShort_e22_cut1_stereo_44KHz.wav
1	16	4	4	2	I	1	0	937	1	poli_8sides 18_whiteLine3.jpg	MediumShort_e16_cut1_stereo_44KHz.wav
1	17	2	2	1	C	2	1	986	1	poli_8sides 15_whiteLine3.jpg	MediumShort_b10_cut1_MS_stereo_44KHz.wav
1	18	3	4	2	I	1	0	665	1	poli_8sides 8_whiteLine3.jpg	MediumShort_e16_cut1_stereo_44KHz.wav
1	19	4	4	2	I	2	0	945	0	poli_8sides 18_whiteLine3.jpg	MediumShort_e16_cut1_stereo_44KHz.wav
1	20	1	1	1	C	1	0	987	0	poli_8sides 9_whiteLine3.jpg	MediumShort_b16_cut3_MS_stereo_44KHz.wav
1	21	3	3	2	I	1	0	1032	1	poli_8sides 8_whiteLine3.jpg	MediumShort_e22_cut1_stereo_44KHz.wav
1	22	1	2	0	C	1	1	672	1	poli_8sides 9_whiteLine3.jpg	MediumShort_b10_cut1_MS_stereo_44KHz.wav
1	23	4	3	2	I	1	0	795	0	poli_8sides 18_whiteLine3.jpg	MediumShort_e22_cut1_stereo_44KHz.wav
1	24	2	1	0	C	1	1	924	1	poli_8sides 15_whiteLine3.jpg	MediumShort_b16_cut3_MS_stereo_44KHz.wav
1	25	3	3	2	I	1	0	817	0	poli_8sides 8_whiteLine3.jpg	MediumShort_e22_cut1_stereo_44KHz.wav
1	26	4	4	2	I	1	0	593	0	poli_8sides 18_whiteLine3.jpg	MediumShort_e16_cut1_stereo_44KHz.wav
1	27	1	1	1	C	1	0	885	0	poli_8sides 9_whiteLine3.jpg	MediumShort_b16_cut3_MS_stereo_44KHz.wav
1	28	2	2	1	C	2	1	1074	1	poli_8sides 15_whiteLine3.jpg	MediumShort_b10_cut1_MS_stereo_44KHz.wav
1	29	4	3	2	I	2	0	1096	1	poli_8sides 18_whiteLine3.jpg	MediumShort_e22_cut1_stereo_44KHz.wav
1	30	3	4	2	I	1	0	820	0	poli_8sides 8_whiteLine3.jpg	MediumShort_e16_cut1_stereo_44KHz.wav
1	31	1	2	0	C	1	1	903	1	poli_8sides 9_whiteLine3.jpg	MediumShort_b10_cut1_MS_stereo_44KHz.wav
1	32	2	1	0	C	2	0	1091	0	poli_8sides 15_whiteLine3.jpg	MediumShort_b16_cut3_MS_stereo_44KHz.wav
1	33	1	2	0	C	1	1	1722	1	poli_8sides 9_whiteLine3.jpg	MediumShort_b10_cut1_MS_stereo_44KHz.wav
1	34	2	1	0	C	1	1	849	1	poli_8sides 15_whiteLine3.jpg	MediumShort_b16_cut3_MS_stereo_44KHz.wav
1	35	4	4	2	I	1	0	665	0	poli_8sides 18_whiteLine3.jpg	MediumShort_e16_cut1_stereo_44KHz.wav
1	36	3	4	2	I	1	0	1079	1	poli_8sides 8_whiteLine3.jpg	MediumShort_e16_cut1_stereo_44KHz.wav
1	37	1	1	1	C	2	1	922	1	poli_8sides 9_whiteLine3.jpg	MediumShort_b16_cut3_MS_stereo_44KHz.wav
1	38	4	3	2	I	1	0	1198	0	poli_8sides 18_whiteLine3.jpg	MediumShort_e22_cut1_stereo_44KHz.wav
1	39	2	2	1	C	2	1	893	1	poli_8sides 15_whiteLine3.jpg	MediumShort_b10_cut1_MS_stereo_44KHz.wav
1	40	3	3	2	I	1	0	946	1	poli_8sides 8_whiteLine3.jpg	MediumShort_e22_cut1_stereo_44KHz.wav
1	41	2	1	0	C	1	1	899	1	poli_8sides 15_whiteLine3.jpg	MediumShort_b16_cut3_MS_stereo_44KHz.wav
1	42	1	1	1	C	2	1	1115	1	poli_8sides 9_whiteLine3.jpg	MediumShort_b16_cut3_MS_stereo_44KHz.wav
1	43	4	4	2	I	2	0	1258	1	poli_8sides 18_whiteLine3.jpg	MediumShort_e16_cut1_stereo_44KHz.wav
1	44	3	4	2	I	1	0	816	0	poli_8sides 8_whiteLine3.jpg	MediumShort_e16_cut1_stereo_44KHz.wav
1	45	4	3	2	I	2	0	1131	1	poli_8sides 18_whiteLine3.jpg	MediumShort_e22_cut1_stereo_44KHz.wav
1	46	2	2	1	C	2	1	848	1	poli_8sides 15_whiteLine3.jpg	MediumShort_b10_cut1_MS_stereo_44KHz.wav
1	47	3	3	2	I	1	0	924	0	poli_8sides 8_whiteLine3.jpg	MediumShort_e22_cut1_stereo_44KHz.wav
1	48	1	2	0	C	1	1	664	1	poli_8sides 9_whiteLine3.jpg	MediumShort_b10_cut1_MS_stereo_44KHz.wav
1	49	4	4	2	I	2	0	914	0	poli_8sides 18_whiteLine3.jpg	MediumShort_e16_cut1_stereo_44KHz.wav
1	50	1	2	0	C	1	1	828	1	poli_8sides 9_whiteLine3.jpg	MediumShort_b10_cut1_MS_stereo_44KHz.wav
1	51	2	1	0	C	2	0	630	0	poli_8sides 15_whiteLine3.jpg	MediumShort_b16_cut3_MS_stereo_44KHz.wav
1	52	3	3	2	I	1	0	904	1	poli_8sides 8_whiteLine3.jpg	MediumShort_e22_cut1_stereo_44KHz.wav
1	53	1	1	1	C	2	1	727	1	poli_8sides 9_whiteLine3.jpg	MediumShort_b16_cut3_MS_stereo_44KHz.wav
1	54	4	3	2	I	1	0	973	1	poli_8sides 18_whiteLine3.jpg	MediumShort_e22_cut1_stereo_44KHz.wav
1	55	3	4	2	I	1	0	1218	0	poli_8sides 8_whiteLine3.jpg	MediumShort_e16_cut1_stereo_44KHz.wav
1	56	2	2	1	C	2	1	777	1	poli_8sides 15_whiteLine3.jpg	MediumShort_b10_cut1_MS_stereo_44KHz.wav
1	57	3	4	2	I	2	0	974	0	poli_8sides 8_whiteLine3.jpg	MediumShort_e16_cut1_stereo_44KHz.wav
1	58	2	1	0	C	2	0	697	0	poli_8sides 15_whiteLine3.jpg	MediumShort_b16_cut3_MS_stereo_44KHz.wav
1	59	4	3	2	I	2	0	635	0	poli_8sides 18_whiteLine3.jpg	MediumShort_e22_cut1_stereo_44KHz.wav
1	60	1	1	1	C	2	1	827	1	poli_8sides 9_whiteLine3.jpg	MediumShort_b16_cut3_MS_stereo_44KHz.wav
1	61	4	4	2	I	1	0	1265	1	poli_8sides 18_whiteLine3.jpg	MediumShort_e16_cut1_stereo_44KHz.wav
1	62	1	2	0	C	2	0	669	0	poli_8sides 9_whiteLine3.jpg	MediumShort_b10_cut1_MS_stereo_44KHz.wav
1	63	3	3	2	I	1	0	827	1	poli_8sides 8_whiteLine3.jpg	MediumShort_e22_cut1_stereo_44KHz.wav
1	64	2	2	1	C	2	1	805	1	poli_8sides 15_whiteLine3.jpg	MediumShort_b10_cut1_MS_stereo_44KHz.wav
1	65	3	3	2	I	1	0	804	1	poli_8sides 8_whiteLine3.jpg	MediumShort_e22_cut1_stereo_44KHz.wav
1	66	4	4	2	I	1	0	696	0	poli_8sides 18_whiteLine3.jpg	MediumShort_e16_cut1_stereo_44KHz.wav
1	67	2	1	0	C	1	1	925	1	poli_8sides 15_whiteLine3.jpg	MediumShort_b16_cut3_MS_stereo_44KHz.wav
1	68	1	2	0	C	1	1	1362	1	poli_8sides 9_whiteLine3.jpg	MediumShort_b10_cut1_MS_stereo_44KHz.wav
1	69	3	4	2	I	1	0	903	1	poli_8sides 8_whiteLine3.jpg	MediumShort_e16_cut1_stereo_44KHz.wav
1	70	1	1	1	C	2	1	979	1	poli_8sides 9_whiteLine3.jpg	MediumShort_b16_cut3_MS_stereo_44KHz.wav
1	71	2	2	1	C	2	1	1241	1	poli_8sides 15_whiteLine3.jpg	MediumShort_b10_cut1_MS_stereo_44KHz.wav
1	72	4	3	2	I	1	0	1055	1	poli_8sides 18_whiteLine3.jpg	MediumShort_e22_cut1_stereo_44KHz.wav
1	73	1	1	1	C	2	1	991	1	poli_8sides 9_whiteLine3.jpg	MediumShort_b16_cut3_MS_stereo_44KHz.wav
1	74	4	3	2	I	1	0	928	0	poli_8sides 18_whiteLine3.jpg	MediumShort_e22_cut1_stereo_44KHz.wav
1	75	3	3	2	I	1	0	745	0	poli_8sides 8_whiteLine3.jpg	MediumShort_e22_cut1_stereo_44KHz.wav
1	76	2	1	0	C	1	1	1117	1	poli_8sides 15_whiteLine3.jpg	MediumShort_b16_cut3_MS_stereo_44KHz.wav
1	77	4	4	2	I	1	0	708	1	poli_8sides 18_whiteLine3.jpg	MediumShort_e16_cut1_stereo_44KHz.wav
1	78	2	2	1	C	2	1	1287	1	poli_8sides 15_whiteLine3.jpg	MediumShort_b10_cut1_MS_stereo_44KHz.wav
1	79	1	2	0	C	1	1	640	1	poli_8sides 9_whiteLine3.jpg	MediumShort_b10_cut1_MS_stereo_44KHz.wav
1	80	3	4	2	I	1	0	1281	0	poli_8sides 8_whiteLine3.jpg	MediumShort_e16_cut1_stereo_44KHz.wav
1	81	4	4	2	I	1	0	823	1	poli_8sides 18_whiteLine3.jpg	MediumShort_e16_cut1_stereo_44KHz.wav
1	82	2	1	0	C	1	1	965	1	poli_8sides 15_whiteLine3.jpg	MediumShort_b16_cut3_MS_stereo_44KHz.wav
1	83	3	4	2	I	1	0	1225	1	poli_8sides 8_whiteLine3.jpg	MediumShort_e16_cut1_stereo_44KHz.wav
1	84	1	1	1	C	2	1	914	1	poli_8sides 9_whiteLine3.jpg	MediumShort_b16_cut3_MS_stereo_44KHz.wav
1	85	2	2	1	C	2	1	814	1	poli_8sides 15_whiteLine3.jpg	MediumShort_b10_cut1_MS_stereo_44KHz.wav
1	86	1	2	0	C	1	1	792	1	poli_8sides 9_whiteLine3.jpg	MediumShort_b10_cut1_MS_stereo_44KHz.wav
1	87	3	3	2	I	1	0	1151	0	poli_8sides 8_whiteLine3.jpg	MediumShort_e22_cut1_stereo_44KHz.wav
1	88	4	3	2	I	1	0	1005	0	poli_8sides 18_whiteLine3.jpg	MediumShort_e22_cut1_stereo_44KHz.wav
1	89	2	2	1	C	2	1	810	1	poli_8sides 15_whiteLine3.jpg	MediumShort_b10_cut1_MS_stereo_44KHz.wav
1	90	4	3	2	I	2	0	1155	0	poli_8sides 18_whiteLine3.jpg	MediumShort_e22_cut1_stereo_44KHz.wav
1	91	3	3	2	I	1	0	945	1	poli_8sides 8_whiteLine3.jpg	MediumShort_e22_cut1_stereo_44KHz.wav
1	92	1	1	1	C	2	1	819	1	poli_8sides 9_whiteLine3.jpg	MediumShort_b16_cut3_MS_stereo_44KHz.wav
1	93	2	1	0	C	2	0	798	0	poli_8sides 15_whiteLine3.jpg	MediumShort_b16_cut3_MS_stereo_44KHz.wav
1	94	3	4	2	I	1	0	735	0	poli_8sides 8_whiteLine3.jpg	MediumShort_e16_cut1_stereo_44KHz.wav
1	95	1	2	0	C	1	1	678	1	poli_8sides 9_whiteLine3.jpg	MediumShort_b10_cut1_MS_stereo_44KHz.wav
1	96	4	4	2	I	1	0	696	0	poli_8sides 18_whiteLine3.jpg	MediumShort_e16_cut1_stereo_44KHz.wav
1	97	2	1	0	C	1	1	1255	1	poli_8sides 15_whiteLine3.jpg	MediumShort_b16_cut3_MS_stereo_44KHz.wav
1	98	3	3	2	I	2	0	828	0	poli_8sides 8_whiteLine3.jpg	MediumShort_e22_cut1_stereo_44KHz.wav
1	99	1	1	1	C	1	0	719	0	poli_8sides 9_whiteLine3.jpg	MediumShort_b16_cut3_MS_stereo_44KHz.wav
1	100	4	3	2	I	1	0	847	0	poli_8sides 18_whiteLine3.jpg	MediumShort_e22_cut1_stereo_44KHz.wav
1	101	1	2	0	C	1	1	677	1	poli_8sides 9_whiteLine3.jpg	MediumShort_b10_cut1_MS_stereo_44KHz.wav
1	102	3	4	2	I	1	0	928	0	poli_8sides 8_whiteLine3.jpg	MediumShort_e16_cut1_stereo_44KHz.wav
1	103	4	4	2	I	1	0	676	0	poli_8sides 18_whiteLine3.jpg	MediumShort_e16_cut1_stereo_44KHz.wav
1	104	2	2	1	C	2	1	910	1	poli_8sides 15_whiteLine3.jpg	MediumShort_b10_cut1_MS_stereo_44KHz.wav
1	105	4	4	2	I	1	0	787	1	poli_8sides 18_whiteLine3.jpg	MediumShort_e16_cut1_stereo_44KHz.wav
1	106	2	1	0	C	1	1	1596	1	poli_8sides 15_whiteLine3.jpg	MediumShort_b16_cut3_MS_stereo_44KHz.wav
1	107	3	4	2	I	1	0	805	1	poli_8sides 8_whiteLine3.jpg	MediumShort_e16_cut1_stereo_44KHz.wav
1	108	1	2	0	C	1	1	904	1	poli_8sides 9_whiteLine3.jpg	MediumShort_b10_cut1_MS_stereo_44KHz.wav
1	109	2	2	1	C	2	1	722	1	poli_8sides 15_whiteLine3.jpg	MediumShort_b10_cut1_MS_stereo_44KHz.wav
1	110	4	3	2	I	1	0	1122	0	poli_8sides 18_whiteLine3.jpg	MediumShort_e22_cut1_stereo_44KHz.wav
1	111	3	3	2	I	1	0	801	1	poli_8sides 8_whiteLine3.jpg	MediumShort_e22_cut1_stereo_44KHz.wav
1	112	1	1	1	C	2	1	979	1	poli_8sides 9_whiteLine3.jpg	MediumShort_b16_cut3_MS_stereo_44KHz.wav
1	113	4	3	2	I	1	0	914	1	poli_8sides 18_whiteLine3.jpg	MediumShort_e22_cut1_stereo_44KHz.wav
1	114	1	1	1	C	2	1	894	1	poli_8sides 9_whiteLine3.jpg	MediumShort_b16_cut3_MS_stereo_44KHz.wav
1	115	2	1	0	C	1	1	1755	1	poli_8sides 15_whiteLine3.jpg	MediumShort_b16_cut3_MS_stereo_44KHz.wav
1	116	3	4	2	I	1	0	682	1	poli_8sides 8_whiteLine3.jpg	MediumShort_e16_cut1_stereo_44KHz.wav
1	117	4	4	2	I	1	0	1216	1	poli_8sides 18_whiteLine3.jpg	MediumShort_e16_cut1_stereo_44KHz.wav
1	118	3	3	2	I	1	0	918	1	poli_8sides 8_whiteLine3.jpg	MediumShort_e22_cut1_stereo_44KHz.wav
1	119	1	2	0	C	1	1	787	1	poli_8sides 9_whiteLine3.jpg	MediumShort_b10_cut1_MS_stereo_44KHz.wav
1	120	2	2	1	C	2	1	931	1	poli_8sides 15_whiteLine3.jpg	MediumShort_b10_cut1_MS_stereo_44KHz.wav
1	121	3	3	2	I	1	0	967	0	poli_8sides 8_whiteLine3.jpg	MediumShort_e22_cut1_stereo_44KHz.wav
1	122	2	1	0	C	0	0	0	0	poli_8sides 15_whiteLine3.jpg	MediumShort_b16_cut3_MS_stereo_44KHz.wav
1	123	4	3	2	I	1	0	972	1	poli_8sides 18_whiteLine3.jpg	MediumShort_e22_cut1_stereo_44KHz.wav
1	124	1	1	1	C	2	1	1226	1	poli_8sides 9_whiteLine3.jpg	MediumShort_b16_cut3_MS_stereo_44KHz.wav
1	125	3	4	2	I	1	0	754	1	poli_8sides 8_whiteLine3.jpg	MediumShort_e16_cut1_stereo_44KHz.wav
1	126	4	4	2	I	2	0	991	1	poli_8sides 18_whiteLine3.jpg	MediumShort_e16_cut1_stereo_44KHz.wav
1	127	2	2	1	C	2	1	960	1	poli_8sides 15_whiteLine3.jpg	MediumShort_b10_cut1_MS_stereo_44KHz.wav
1	128	1	2	0	C	1	1	650	1	poli_8sides 9_whiteLine3.jpg	MediumShort_b10_cut1_MS_stereo_44KHz.wav
1	129	3	4	2	I	1	0	834	1	poli_8sides 8_whiteLine3.jpg	MediumShort_e16_cut1_stereo_44KHz.wav
1	130	1	1	1	C	2	1	877	1	poli_8sides 9_whiteLine3.jpg	MediumShort_b16_cut3_MS_stereo_44KHz.wav
1	131	4	3	2	I	1	0	1240	1	poli_8sides 18_whiteLine3.jpg	MediumShort_e22_cut1_stereo_44KHz.wav
1	132	2	2	1	C	2	1	882	1	poli_8sides 15_whiteLine3.jpg	MediumShort_b10_cut1_MS_stereo_44KHz.wav
1	133	4	4	2	I	1	0	793	0	poli_8sides 18_whiteLine3.jpg	MediumShort_e16_cut1_stereo_44KHz.wav
1	134	2	1	0	C	1	1	1202	1	poli_8sides 15_whiteLine3.jpg	MediumShort_b16_cut3_MS_stereo_44KHz.wav
1	135	3	3	2	I	2	0	1257	0	poli_8sides 8_whiteLine3.jpg	MediumShort_e22_cut1_stereo_44KHz.wav
1	136	1	2	0	C	1	1	830	1	poli_8sides 9_whiteLine3.jpg	MediumShort_b10_cut1_MS_stereo_44KHz.wav
1	137	4	4	2	I	1	0	610	1	poli_8sides 18_whiteLine3.jpg	MediumShort_e16_cut1_stereo_44KHz.wav
1	138	2	2	1	C	2	1	883	1	poli_8sides 15_whiteLine3.jpg	MediumShort_b10_cut1_MS_stereo_44KHz.wav
1	139	3	3	2	I	1	0	814	0	poli_8sides 8_whiteLine3.jpg	MediumShort_e22_cut1_stereo_44KHz.wav
1	140	1	2	0	C	1	1	1002	1	poli_8sides 9_whiteLine3.jpg	MediumShort_b10_cut1_MS_stereo_44KHz.wav
1	141	4	3	2	I	1	0	838	1	poli_8sides 18_whiteLine3.jpg	MediumShort_e22_cut1_stereo_44KHz.wav
1	142	2	1	0	C	2	0	826	0	poli_8sides 15_whiteLine3.jpg	MediumShort_b16_cut3_MS_stereo_44KHz.wav
1	143	3	4	2	I	1	0	909	0	poli_8sides 8_whiteLine3.jpg	MediumShort_e16_cut1_stereo_44KHz.wav
1	144	1	1	1	C	1	0	1443	0	poli_8sides 9_whiteLine3.jpg	MediumShort_b16_cut3_MS_stereo_44KHz.wav
1	145	3	4	2	I	1	0	836	1	poli_8sides 8_whiteLine3.jpg	MediumShort_e16_cut1_stereo_44KHz.wav
1	146	2	1	0	C	1	1	1384	1	poli_8sides 15_whiteLine3.jpg	MediumShort_b16_cut3_MS_stereo_44KHz.wav
1	147	4	4	2	I	1	0	640	0	poli_8sides 18_whiteLine3.jpg	MediumShort_e16_cut1_stereo_44KHz.wav
1	148	1	2	0	C	1	1	1147	1	poli_8sides 9_whiteLine3.jpg	MediumShort_b10_cut1_MS_stereo_44KHz.wav
1	149	2	2	1	C	2	1	703	1	poli_8sides 15_whiteLine3.jpg	MediumShort_b10_cut1_MS_stereo_44KHz.wav
1	150	3	3	2	I	1	0	802	0	poli_8sides 8_whiteLine3.jpg	MediumShort_e22_cut1_stereo_44KHz.wav
1	151	1	1	1	C	2	1	1001	1	poli_8sides 9_whiteLine3.jpg	MediumShort_b16_cut3_MS_stereo_44KHz.wav
1	152	4	3	2	I	1	0	966	0	poli_8sides 18_whiteLine3.jpg	MediumShort_e22_cut1_stereo_44KHz.wav
1	153	2	2	1	C	1	0	1194	0	poli_8sides 15_whiteLine3.jpg	MediumShort_b10_cut1_MS_stereo_44KHz.wav
1	154	4	4	2	I	1	0	708	0	poli_8sides 18_whiteLine3.jpg	MediumShort_e16_cut1_stereo_44KHz.wav
1	155	3	3	2	I	1	0	919	0	poli_8sides 8_whiteLine3.jpg	MediumShort_e22_cut1_stereo_44KHz.wav
1	156	1	1	1	C	2	1	842	1	poli_8sides 9_whiteLine3.jpg	MediumShort_b16_cut3_MS_stereo_44KHz.wav
1	157	3	4	2	I	1	0	621	1	poli_8sides 8_whiteLine3.jpg	MediumShort_e16_cut1_stereo_44KHz.wav
1	158	4	3	2	I	1	0	799	1	poli_8sides 18_whiteLine3.jpg	MediumShort_e22_cut1_stereo_44KHz.wav
1	159	2	1	0	C	1	1	1432	1	poli_8sides 15_whiteLine3.jpg	MediumShort_b16_cut3_MS_stereo_44KHz.wav
1	160	1	2	0	C	1	1	618	1	poli_8sides 9_whiteLine3.jpg	MediumShort_b10_cut1_MS_stereo_44KHz.wav
1	161	4	4	2	I	1	0	613	0	poli_8sides 18_whiteLine3.jpg	MediumShort_e16_cut1_stereo_44KHz.wav
1	162	2	2	1	C	2	1	1254	1	poli_8sides 15_whiteLine3.jpg	MediumShort_b10_cut1_MS_stereo_44KHz.wav
1	163	3	3	2	I	1	0	763	0	poli_8sides 8_whiteLine3.jpg	MediumShort_e22_cut1_stereo_44KHz.wav
1	164	1	2	0	C	1	1	798	1	poli_8sides 9_whiteLine3.jpg	MediumShort_b10_cut1_MS_stereo_44KHz.wav
1	165	2	1	0	C	1	1	959	1	poli_8sides 15_whiteLine3.jpg	MediumShort_b16_cut3_MS_stereo_44KHz.wav
1	166	3	4	2	I	1	0	1040	1	poli_8sides 8_whiteLine3.jpg	MediumShort_e16_cut1_stereo_44KHz.wav
1	167	1	1	1	C	1	0	989	0	poli_8sides 9_whiteLine3.jpg	MediumShort_b16_cut3_MS_stereo_44KHz.wav
1	168	4	3	2	I	1	0	873	0	poli_8sides 18_whiteLine3.jpg	MediumShort_e22_cut1_stereo_44KHz.wav
1	169	2	2	1	C	2	1	807	1	poli_8sides 15_whiteLine3.jpg	MediumShort_b10_cut1_MS_stereo_44KHz.wav
1	170	4	4	2	I	1	0	677	1	poli_8sides 18_whiteLine3.jpg	MediumShort_e16_cut1_stereo_44KHz.wav
1	171	1	2	0	C	1	1	1169	1	poli_8sides 9_whiteLine3.jpg	MediumShort_b10_cut1_MS_stereo_44KHz.wav
1	172	3	4	2	I	1	0	1157	1	poli_8sides 8_whiteLine3.jpg	MediumShort_e16_cut1_stereo_44KHz.wav
1	173	2	1	0	C	1	1	942	1	poli_8sides 15_whiteLine3.jpg	MediumShort_b16_cut3_MS_stereo_44KHz.wav
1	174	3	3	2	I	1	0	803	0	poli_8sides 8_whiteLine3.jpg	MediumShort_e22_cut1_stereo_44KHz.wav
1	175	1	1	1	C	1	0	1772	0	poli_8sides 9_whiteLine3.jpg	MediumShort_b16_cut3_MS_stereo_44KHz.wav
1	176	4	3	2	I	2	0	1096	0	poli_8sides 18_whiteLine3.jpg	MediumShort_e22_cut1_stereo_44KHz.wav
1	177	3	3	2	I	1	0	880	1	poli_8sides 8_whiteLine3.jpg	MediumShort_e22_cut1_stereo_44KHz.wav
1	178	1	2	0	C	1	1	742	1	poli_8sides 9_whiteLine3.jpg	MediumShort_b10_cut1_MS_stereo_44KHz.wav
1	179	2	1	0	C	1	1	1364	1	poli_8sides 15_whiteLine3.jpg	MediumShort_b16_cut3_MS_stereo_44KHz.wav
1	180	4	4	2	I	1	0	593	1	poli_8sides 18_whiteLine3.jpg	MediumShort_e16_cut1_stereo_44KHz.wav
1	181	3	4	2	I	1	0	843	0	poli_8sides 8_whiteLine3.jpg	MediumShort_e16_cut1_stereo_44KHz.wav
1	182	1	1	1	C	2	1	896	1	poli_8sides 9_whiteLine3.jpg	MediumShort_b16_cut3_MS_stereo_44KHz.wav
1	183	2	2	1	C	2	1	1197	1	poli_8sides 15_whiteLine3.jpg	MediumShort_b10_cut1_MS_stereo_44KHz.wav
1	184	4	3	2	I	1	0	796	0	poli_8sides 18_whiteLine3.jpg	MediumShort_e22_cut1_stereo_44KHz.wav
1	185	2	1	0	C	1	1	1451	1	poli_8sides 15_whiteLine3.jpg	MediumShort_b16_cut3_MS_stereo_44KHz.wav
1	186	3	3	2	I	1	0	1032	0	poli_8sides 8_whiteLine3.jpg	MediumShort_e22_cut1_stereo_44KHz.wav
1	187	4	4	2	I	1	0	660	0	poli_8sides 18_whiteLine3.jpg	MediumShort_e16_cut1_stereo_44KHz.wav
1	188	1	2	0	C	1	1	676	1	poli_8sides 9_whiteLine3.jpg	MediumShort_b10_cut1_MS_stereo_44KHz.wav
1	189	2	2	1	C	2	1	806	1	poli_8sides 15_whiteLine3.jpg	MediumShort_b10_cut1_MS_stereo_44KHz.wav
1	190	3	4	2	I	2	0	600	1	poli_8sides 8_whiteLine3.jpg	MediumShort_e16_cut1_stereo_44KHz.wav
1	191	4	3	2	I	1	0	726	1	poli_8sides 18_whiteLine3.jpg	MediumShort_e22_cut1_stereo_44KHz.wav
1	192	1	1	1	C	2	1	815	1	poli_8sides 9_whiteLine3.jpg	MediumShort_b16_cut3_MS_stereo_44KHz.wav
1	193	4	3	2	I	1	0	1011	0	poli_8sides 18_whiteLine3.jpg	MediumShort_e22_cut1_stereo_44KHz.wav
1	194	3	3	2	I	1	0	670	0	poli_8sides 8_whiteLine3.jpg	MediumShort_e22_cut1_stereo_44KHz.wav
1	195	2	2	1	C	2	1	815	1	poli_8sides 15_whiteLine3.jpg	MediumShort_b10_cut1_MS_stereo_44KHz.wav
1	196	1	2	0	C	1	1	916	1	poli_8sides 9_whiteLine3.jpg	MediumShort_b10_cut1_MS_stereo_44KHz.wav
1	197	2	1	0	C	2	0	926	0	poli_8sides 15_whiteLine3.jpg	MediumShort_b16_cut3_MS_stereo_44KHz.wav
1	198	1	1	1	C	2	1	751	1	poli_8sides 9_whiteLine3.jpg	MediumShort_b16_cut3_MS_stereo_44KHz.wav
1	199	3	4	2	I	1	0	752	0	poli_8sides 8_whiteLine3.jpg	MediumShort_e16_cut1_stereo_44KHz.wav
1	200	4	4	2	I	2	0	737	1	poli_8sides 18_whiteLine3.jpg	MediumShort_e16_cut1_stereo_44KHz.wav
2	1	3	4	2	I	1	0	1408	0	poli_8sides 11_whiteLine3.jpg	Short_b23_cut1_stereo_44KHz.wav
2	2	2	1	0	C	1	1	899	1	poli_8sides 10_whiteLine3.jpg	Short_b22_cut1_stereo_44KHz.wav
2	3	1	2	0	C	2	0	660	0	poli_8sides 12_whiteLine3.jpg	Short_b09_cut1_stereo_44KHz.wav
2	4	4	4	2	I	1	0	754	0	poli_8sides 16_whiteLine3.jpg	Short_b23_cut1_stereo_44KHz.wav
2	5	2	2	1	C	1	0	679	0	poli_8sides 10_whiteLine3.jpg	Short_b09_cut1_stereo_44KHz.wav
2	6	4	3	2	I	1	0	883	0	poli_8sides 16_whiteLine3.jpg	Short_b20_cut1_stereo_44KHz.wav
2	7	3	3	2	I	1	0	1033	1	poli_8sides 11_whiteLine3.jpg	Short_b20_cut1_stereo_44KHz.wav
2	8	1	1	1	C	2	1	898	1	poli_8sides 12_whiteLine3.jpg	Short_b22_cut1_stereo_44KHz.wav
2	9	4	3	2	I	1	0	697	0	poli_8sides 16_whiteLine3.jpg	Short_b20_cut1_stereo_44KHz.wav
2	10	1	2	0	C	1	1	607	1	poli_8sides 12_whiteLine3.jpg	Short_b09_cut1_stereo_44KHz.wav
2	11	2	1	0	C	1	1	545	1	poli_8sides 10_whiteLine3.jpg	Short_b22_cut1_stereo_44KHz.wav
2	12	3	4	2	I	1	0	959	1	poli_8sides 11_whiteLine3.jpg	Short_b23_cut1_stereo_44KHz.wav
2	13	4	4	2	I	2	0	942	1	poli_8sides 16_whiteLine3.jpg	Short_b23_cut1_stereo_44KHz.wav
2	14	1	1	1	C	2	1	744	1	poli_8sides 12_whiteLine3.jpg	Short_b22_cut1_stereo_44KHz.wav
2	15	2	2	1	C	1	0	1177	0	poli_8sides 10_whiteLine3.jpg	Short_b09_cut1_stereo_44KHz.wav
2	16	3	3	2	I	2	0	163	0	poli_8sides 11_whiteLine3.jpg	Short_b20_cut1_stereo_44KHz.wav
2	17	4	4	2	I	1	0	562	0	poli_8sides 16_whiteLine3.jpg	Short_b23_cut1_stereo_44KHz.wav
2	18	3	4	2	I	1	0	826	0	poli_8sides 11_whiteLine3.jpg	Short_b23_cut1_stereo_44KHz.wav
2	19	2	1	0	C	1	1	799	1	poli_8sides 10_whiteLine3.jpg	Short_b22_cut1_stereo_44KHz.wav
2	20	1	1	1	C	1	0	669	0	poli_8sides 12_whiteLine3.jpg	Short_b22_cut1_stereo_44KHz.wav
2	21	4	3	2	I	1	0	593	1	poli_8sides 16_whiteLine3.jpg	Short_b20_cut1_stereo_44KHz.wav
2	22	2	2	1	C	1	0	560	0	poli_8sides 10_whiteLine3.jpg	Short_b09_cut1_stereo_44KHz.wav
2	23	3	3	2	I	2	0	351	0	poli_8sides 11_whiteLine3.jpg	Short_b20_cut1_stereo_44KHz.wav
2	24	1	2	0	C	1	1	510	1	poli_8sides 12_whiteLine3.jpg	Short_b09_cut1_stereo_44KHz.wav
2	25	4	3	2	I	1	0	830	1	poli_8sides 16_whiteLine3.jpg	Short_b20_cut1_stereo_44KHz.wav
2	26	2	2	1	C	1	0	813	0	poli_8sides 10_whiteLine3.jpg	Short_b09_cut1_stereo_44KHz.wav
2	27	1	2	0	C	2	0	860	0	poli_8sides 12_whiteLine3.jpg	Short_b09_cut1_stereo_44KHz.wav
2	28	3	3	2	I	1	0	864	0	poli_8sides 11_whiteLine3.jpg	Short_b20_cut1_stereo_44KHz.wav
2	29	4	4	2	I	1	0	917	0	poli_8sides 16_whiteLine3.jpg	Short_b23_cut1_stereo_44KHz.wav
2	30	2	1	0	C	1	1	812	1	poli_8sides 10_whiteLine3.jpg	Short_b22_cut1_stereo_44KHz.wav
2	31	3	4	2	I	2	0	737	1	poli_8sides 11_whiteLine3.jpg	Short_b23_cut1_stereo_44KHz.wav
2	32	1	1	1	C	1	0	1122	0	poli_8sides 12_whiteLine3.jpg	Short_b22_cut1_stereo_44KHz.wav
2	33	2	1	0	C	1	1	1144	1	poli_8sides 10_whiteLine3.jpg	Short_b22_cut1_stereo_44KHz.wav
2	34	1	2	0	C	1	1	735	1	poli_8sides 12_whiteLine3.jpg	Short_b09_cut1_stereo_44KHz.wav
2	35	3	4	2	I	1	0	773	0	poli_8sides 11_whiteLine3.jpg	Short_b23_cut1_stereo_44KHz.wav
2	36	4	4	2	I	2	0	1045	0	poli_8sides 16_whiteLine3.jpg	Short_b23_cut1_stereo_44KHz.wav
2	37	2	2	1	C	2	1	941	1	poli_8sides 10_whiteLine3.jpg	Short_b09_cut1_stereo_44KHz.wav
2	38	4	3	2	I	2	0	1067	1	poli_8sides 16_whiteLine3.jpg	Short_b20_cut1_stereo_44KHz.wav
2	39	3	3	2	I	1	0	762	1	poli_8sides 11_whiteLine3.jpg	Short_b20_cut1_stereo_44KHz.wav
2	40	1	1	1	C	2	1	1081	1	poli_8sides 12_whiteLine3.jpg	Short_b22_cut1_stereo_44KHz.wav
2	41	4	4	2	I	1	0	767	1	poli_8sides 16_whiteLine3.jpg	Short_b23_cut1_stereo_44KHz.wav
2	42	1	1	1	C	1	0	551	0	poli_8sides 12_whiteLine3.jpg	Short_b22_cut1_stereo_44KHz.wav
2	43	2	2	1	C	2	1	546	1	poli_8sides 10_whiteLine3.jpg	Short_b09_cut1_stereo_44KHz.wav
2	44	3	3	2	I	2	0	487	1	poli_8sides 11_whiteLine3.jpg	Short_b20_cut1_stereo_44KHz.wav
2	45	2	1	0	C	2	0	437	0	poli_8sides 10_whiteLine3.jpg	Short_b22_cut1_stereo_44KHz.wav
2	46	4	3	2	I	1	0	465	0	poli_8sides 16_whiteLine3.jpg	Short_b20_cut1_stereo_44KHz.wav
2	47	1	2	0	C	2	0	939	0	poli_8sides 12_whiteLine3.jpg	Short_b09_cut1_stereo_44KHz.wav
2	48	3	4	2	I	1	0	891	1	poli_8sides 11_whiteLine3.jpg	Short_b23_cut1_stereo_44KHz.wav
2	49	2	1	0	C	1	1	1022	1	poli_8sides 10_whiteLine3.jpg	Short_b22_cut1_stereo_44KHz.wav
2	50	4	4	2	I	2	0	1378	0	poli_8sides 16_whiteLine3.jpg	Short_b23_cut1_stereo_44KHz.wav
2	51	3	4	2	I	1	0	1108	1	poli_8sides 11_whiteLine3.jpg	Short_b23_cut1_stereo_44KHz.wav
2	52	1	2	0	C	1	1	960	1	poli_8sides 12_whiteLine3.jpg	Short_b09_cut1_stereo_44KHz.wav
2	53	4	3	2	I	2	0	677	1	poli_8sides 16_whiteLine3.jpg	Short_b20_cut1_stereo_44KHz.wav
2	54	1	1	1	C	1	0	1142	0	poli_8sides 12_whiteLine3.jpg	Short_b22_cut1_stereo_44KHz.wav
2	55	3	3	2	I	2	0	897	1	poli_8sides 11_whiteLine3.jpg	Short_b20_cut1_stereo_44KHz.wav
2	56	2	2	1	C	1	0	719	0	poli_8sides 10_whiteLine3.jpg	Short_b09_cut1_stereo_44KHz.wav
2	57	4	4	2	I	1	0	728	1	poli_8sides 16_whiteLine3.jpg	Short_b23_cut1_stereo_44KHz.wav
2	58	2	1	0	C	1	1	1053	1	poli_8sides 10_whiteLine3.jpg	Short_b22_cut1_stereo_44KHz.wav
2	59	1	1	1	C	2	1	817	1	poli_8sides 12_whiteLine3.jpg	Short_b22_cut1_stereo_44KHz.wav
2	60	3	4	2	I	1	0	1299	1	poli_8sides 11_whiteLine3.jpg	Short_b23_cut1_stereo_44KHz.wav
2	61	2	2	1	C	2	1	737	1	poli_8sides 10_whiteLine3.jpg	Short_b09_cut1_stereo_44KHz.wav
2	62	3	3	2	I	1	0	490	0	poli_8sides 11_whiteLine3.jpg	Short_b20_cut1_stereo_44KHz.wav
2	63	4	3	2	I	1	0	397	0	poli_8sides 16_whiteLine3.jpg	Short_b20_cut1_stereo_44KHz.wav
2	64	1	2	0	C	2	0	309	0	poli_8sides 12_whiteLine3.jpg	Short_b09_cut1_stereo_44KHz.wav
2	65	4	4	2	I	2	0	973	1	poli_8sides 16_whiteLine3.jpg	Short_b23_cut1_stereo_44KHz.wav
2	66	2	1	0	C	1	1	757	1	poli_8sides 10_whiteLine3.jpg	Short_b22_cut1_stereo_44KHz.wav
2	67	1	1	1	C	2	1	1134	1	poli_8sides 12_whiteLine3.jpg	Short_b22_cut1_stereo_44KHz.wav
2	68	3	4	2	I	2	0	848	0	poli_8sides 11_whiteLine3.jpg	Short_b23_cut1_stereo_44KHz.wav
2	69	4	3	2	I	1	0	543	0	poli_8sides 16_whiteLine3.jpg	Short_b20_cut1_stereo_44KHz.wav
2	70	3	3	2	I	2	0	458	1	poli_8sides 11_whiteLine3.jpg	Short_b20_cut1_stereo_44KHz.wav
2	71	2	2	1	C	1	0	989	0	poli_8sides 10_whiteLine3.jpg	Short_b09_cut1_stereo_44KHz.wav
2	72	1	2	0	C	2	0	609	0	poli_8sides 12_whiteLine3.jpg	Short_b09_cut1_stereo_44KHz.wav
2	73	2	2	1	C	1	0	750	0	poli_8sides 10_whiteLine3.jpg	Short_b09_cut1_stereo_44KHz.wav
2	74	3	4	2	I	1	0	740	0	poli_8sides 11_whiteLine3.jpg	Short_b23_cut1_stereo_44KHz.wav
2	75	1	1	1	C	2	1	542	1	poli_8sides 12_whiteLine3.jpg	Short_b22_cut1_stereo_44KHz.wav
2	76	4	3	2	I	2	0	949	0	poli_8sides 16_whiteLine3.jpg	Short_b20_cut1_stereo_44KHz.wav
2	77	1	2	0	C	1	1	512	1	poli_8sides 12_whiteLine3.jpg	Short_b09_cut1_stereo_44KHz.wav
2	78	3	3	2	I	1	0	652	1	poli_8sides 11_whiteLine3.jpg	Short_b20_cut1_stereo_44KHz.wav
2	79	4	4	2	I	2	0	580	0	poli_8sides 16_whiteLine3.jpg	Short_b23_cut1_stereo_44KHz.wav
2	80	2	1	0	C	1	1	744	1	poli_8sides 10_whiteLine3.jpg	Short_b22_cut1_stereo_44KHz.wav
2	81	3	3	2	I	1	0	637	0	poli_8sides 11_whiteLine3.jpg	Short_b20_cut1_stereo_44KHz.wav
2	82	2	1	0	C	2	0	658	0	poli_8sides 10_whiteLine3.jpg	Short_b22_cut1_stereo_44KHz.wav
2	83	4	3	2	I	1	0	524	1	poli_8sides 16_whiteLine3.jpg	Short_b20_cut1_stereo_44KHz.wav
2	84	1	2	0	C	1	1	873	1	poli_8sides 12_whiteLine3.jpg	Short_b09_cut1_stereo_44KHz.wav
2	85	4	4	2	I	2	0	701	1	poli_8sides 16_whiteLine3.jpg	Short_b23_cut1_stereo_44KHz.wav
2	86	2	2	1	C	1	0	778	0	poli_8sides 10_whiteLine3.jpg	Short_b09_cut1_stereo_44KHz.wav
2	87	1	1	1	C	2	1	1146	1	poli_8sides 12_whiteLine3.jpg	Short_b22_cut1_stereo_44KHz.wav
2	88	3	4	2	I	1	0	736	0	poli_8sides 11_whiteLine3.jpg	Short_b23_cut1_stereo_44KHz.wav
2	89	2	2	1	C	1	0	540	0	poli_8sides 10_whiteLine3.jpg	Short_b09_cut1_stereo_44KHz.wav
2	90	4	4	2	I	2	0	537	1	poli_8sides 16_whiteLine3.jpg	Short_b23_cut1_stereo_44KHz.wav
2	91	1	2	0	C	2	0	800	0	poli_8sides 12_whiteLine3.jpg	Short_b09_cut1_stereo_44KHz.wav
2	92	3	3	2	I	1	0	735	0	poli_8sides 11_whiteLine3.jpg	Short_b20_cut1_stereo_44KHz.wav
2	93	4	3	2	I	1	0	862	0	poli_8sides 16_whiteLine3.jpg	Short_b20_cut1_stereo_44KHz.wav
2	94	3	4	2	I	1	0	991	1	poli_8sides 11_whiteLine3.jpg	Short_b23_cut1_stereo_44KHz.wav
2	95	2	1	0	C	2	0	1191	0	poli_8sides 10_whiteLine3.jpg	Short_b22_cut1_stereo_44KHz.wav
2	96	1	1	1	C	1	0	682	0	poli_8sides 12_whiteLine3.jpg	Short_b22_cut1_stereo_44KHz.wav
2	97	2	1	0	C	1	1	664	1	poli_8sides 10_whiteLine3.jpg	Short_b22_cut1_stereo_44KHz.wav
2	98	1	1	1	C	2	1	915	1	poli_8sides 12_whiteLine3.jpg	Short_b22_cut1_stereo_44KHz.wav
2	99	3	4	2	I	1	0	1179	0	poli_8sides 11_whiteLine3.jpg	Short_b23_cut1_stereo_44KHz.wav
2	100	4	3	2	I	1	0	981	0	poli_8sides 16_whiteLine3.jpg	Short_b20_cut1_stereo_44KHz.wav
2	101	2	2	1	C	2	1	732	1	poli_8sides 10_whiteLine3.jpg	Short_b09_cut1_stereo_44KHz.wav
2	102	1	2	0	C	2	0	1208	0	poli_8sides 12_whiteLine3.jpg	Short_b09_cut1_stereo_44KHz.wav
2	103	3	3	2	I	1	0	809	1	poli_8sides 11_whiteLine3.jpg	Short_b20_cut1_stereo_44KHz.wav
2	104	4	4	2	I	1	0	877	1	poli_8sides 16_whiteLine3.jpg	Short_b23_cut1_stereo_44KHz.wav
2	105	3	4	2	I	1	0	1119	1	poli_8sides 11_whiteLine3.jpg	Short_b23_cut1_stereo_44KHz.wav
2	106	2	1	0	C	1	1	1211	1	poli_8sides 10_whiteLine3.jpg	Short_b22_cut1_stereo_44KHz.wav
2	107	4	4	2	I	2	0	821	0	poli_8sides 16_whiteLine3.jpg	Short_b23_cut1_stereo_44KHz.wav
2	108	1	2	0	C	1	1	991	1	poli_8sides 12_whiteLine3.jpg	Short_b09_cut1_stereo_44KHz.wav
2	109	2	2	1	C	2	1	801	1	poli_8sides 10_whiteLine3.jpg	Short_b09_cut1_stereo_44KHz.wav
2	110	4	3	2	I	1	0	849	0	poli_8sides 16_whiteLine3.jpg	Short_b20_cut1_stereo_44KHz.wav
2	111	1	1	1	C	2	1	937	1	poli_8sides 12_whiteLine3.jpg	Short_b22_cut1_stereo_44KHz.wav
2	112	3	3	2	I	2	0	1062	0	poli_8sides 11_whiteLine3.jpg	Short_b20_cut1_stereo_44KHz.wav
2	113	4	4	2	I	1	0	585	0	poli_8sides 16_whiteLine3.jpg	Short_b23_cut1_stereo_44KHz.wav
2	114	2	2	1	C	2	1	314	1	poli_8sides 10_whiteLine3.jpg	Short_b09_cut1_stereo_44KHz.wav
2	115	3	3	2	I	1	0	852	1	poli_8sides 11_whiteLine3.jpg	Short_b20_cut1_stereo_44KHz.wav
2	116	1	1	1	C	2	1	1395	1	poli_8sides 12_whiteLine3.jpg	Short_b22_cut1_stereo_44KHz.wav
2	117	2	1	0	C	2	0	989	0	poli_8sides 10_whiteLine3.jpg	Short_b22_cut1_stereo_44KHz.wav
2	118	4	3	2	I	1	0	502	1	poli_8sides 16_whiteLine3.jpg	Short_b20_cut1_stereo_44KHz.wav
2	119	3	4	2	I	1	0	620	0	poli_8sides 11_whiteLine3.jpg	Short_b23_cut1_stereo_44KHz.wav
2	120	1	2	0	C	1	1	1267	1	poli_8sides 12_whiteLine3.jpg	Short_b09_cut1_stereo_44KHz.wav
2	121	3	4	2	I	2	0	799	1	poli_8sides 11_whiteLine3.jpg	Short_b23_cut1_stereo_44KHz.wav
2	122	4	3	2	I	1	0	631	1	poli_8sides 16_whiteLine3.jpg	Short_b20_cut1_stereo_44KHz.wav
2	123	2	1	0	C	1	1	715	1	poli_8sides 10_whiteLine3.jpg	Short_b22_cut1_stereo_44KHz.wav
2	124	1	1	1	C	2	1	890	1	poli_8sides 12_whiteLine3.jpg	Short_b22_cut1_stereo_44KHz.wav
2	125	4	4	2	I	1	0	699	0	poli_8sides 16_whiteLine3.jpg	Short_b23_cut1_stereo_44KHz.wav
2	126	3	3	2	I	2	0	930	0	poli_8sides 11_whiteLine3.jpg	Short_b20_cut1_stereo_44KHz.wav
2	127	2	2	1	C	1	0	1267	0	poli_8sides 10_whiteLine3.jpg	Short_b09_cut1_stereo_44KHz.wav
2	128	1	2	0	C	1	1	1169	1	poli_8sides 12_whiteLine3.jpg	Short_b09_cut1_stereo_44KHz.wav
2	129	4	3	2	I	1	0	942	0	poli_8sides 16_whiteLine3.jpg	Short_b20_cut1_stereo_44KHz.wav
2	130	2	1	0	C	1	1	1270	1	poli_8sides 10_whiteLine3.jpg	Short_b22_cut1_stereo_44KHz.wav
2	131	3	3	2	I	2	0	879	0	poli_8sides 11_whiteLine3.jpg	Short_b20_cut1_stereo_44KHz.wav
2	132	1	2	0	C	1	1	1081	1	poli_8sides 12_whiteLine3.jpg	Short_b09_cut1_stereo_44KHz.wav
2	133	2	2	1	C	2	1	1022	1	poli_8sides 10_whiteLine3.jpg	Short_b09_cut1_stereo_44KHz.wav
2	134	4	4	2	I	1	0	1076	1	poli_8sides 16_whiteLine3.jpg	Short_b23_cut1_stereo_44KHz.wav
2	135	3	4	2	I	1	0	769	1	poli_8sides 11_whiteLine3.jpg	Short_b23_cut1_stereo_44KHz.wav
2	136	1	1	1	C	2	1	946	1	poli_8sides 12_whiteLine3.jpg	Short_b22_cut1_stereo_44KHz.wav
2	137	3	3	2	I	1	0	1147	1	poli_8sides 11_whiteLine3.jpg	Short_b20_cut1_stereo_44KHz.wav
2	138	4	3	2	I	2	0	729	0	poli_8sides 16_whiteLine3.jpg	Short_b20_cut1_stereo_44KHz.wav
2	139	1	1	1	C	2	1	747	1	poli_8sides 12_whiteLine3.jpg	Short_b22_cut1_stereo_44KHz.wav
2	140	2	1	0	C	1	1	1163	1	poli_8sides 10_whiteLine3.jpg	Short_b22_cut1_stereo_44KHz.wav
2	141	1	2	0	C	1	1	1239	1	poli_8sides 12_whiteLine3.jpg	Short_b09_cut1_stereo_44KHz.wav
2	142	2	2	1	C	2	1	812	1	poli_8sides 10_whiteLine3.jpg	Short_b09_cut1_stereo_44KHz.wav
2	143	4	4	2	I	2	0	807	1	poli_8sides 16_whiteLine3.jpg	Short_b23_cut1_stereo_44KHz.wav
2	144	3	4	2	I	1	0	1152	0	poli_8sides 11_whiteLine3.jpg	Short_b23_cut1_stereo_44KHz.wav
2	145	4	3	2	I	1	0	1039	0	poli_8sides 16_whiteLine3.jpg	Short_b20_cut1_stereo_44KHz.wav
2	146	2	2	1	C	1	0	940	0	poli_8sides 10_whiteLine3.jpg	Short_b09_cut1_stereo_44KHz.wav
2	147	3	3	2	I	1	0	818	0	poli_8sides 11_whiteLine3.jpg	Short_b20_cut1_stereo_44KHz.wav
2	148	1	1	1	C	2	1	827	1	poli_8sides 12_whiteLine3.jpg	Short_b22_cut1_stereo_44KHz.wav
2	149	2	1	0	C	1	1	1083	1	poli_8sides 10_whiteLine3.jpg	Short_b22_cut1_stereo_44KHz.wav
2	150	4	4	2	I	2	0	893	0	poli_8sides 16_whiteLine3.jpg	Short_b23_cut1_stereo_44KHz.wav
2	151	1	2	0	C	1	1	1215	1	poli_8sides 12_whiteLine3.jpg	Short_b09_cut1_stereo_44KHz.wav
2	152	3	4	2	I	1	0	1069	0	poli_8sides 11_whiteLine3.jpg	Short_b23_cut1_stereo_44KHz.wav
2	153	4	4	2	I	1	0	952	1	poli_8sides 16_whiteLine3.jpg	Short_b23_cut1_stereo_44KHz.wav
2	154	1	1	1	C	2	1	1079	1	poli_8sides 12_whiteLine3.jpg	Short_b22_cut1_stereo_44KHz.wav
2	155	2	2	1	C	1	0	1145	0	poli_8sides 10_whiteLine3.jpg	Short_b09_cut1_stereo_44KHz.wav
2	156	3	4	2	I	1	0	806	0	poli_8sides 11_whiteLine3.jpg	Short_b23_cut1_stereo_44KHz.wav
2	157	2	1	0	C	1	1	906	1	poli_8sides 10_whiteLine3.jpg	Short_b22_cut1_stereo_44KHz.wav
2	158	4	3	2	I	2	0	782	1	poli_8sides 16_whiteLine3.jpg	Short_b20_cut1_stereo_44KHz.wav
2	159	1	2	0	C	1	1	1258	1	poli_8sides 12_whiteLine3.jpg	Short_b09_cut1_stereo_44KHz.wav
2	160	3	3	2	I	1	0	943	1	poli_8sides 11_whiteLine3.jpg	Short_b20_cut1_stereo_44KHz.wav
2	161	2	2	1	C	1	0	1553	0	poli_8sides 10_whiteLine3.jpg	Short_b09_cut1_stereo_44KHz.wav
2	162	4	3	2	I	2	0	1035	1	poli_8sides 16_whiteLine3.jpg	Short_b20_cut1_stereo_44KHz.wav
2	163	1	2	0	C	2	0	1256	0	poli_8sides 12_whiteLine3.jpg	Short_b09_cut1_stereo_44KHz.wav
2	164	3	4	2	I	1	0	1089	0	poli_8sides 11_whiteLine3.jpg	Short_b23_cut1_stereo_44KHz.wav
2	165	2	1	0	C	1	1	1035	1	poli_8sides 10_whiteLine3.jpg	Short_b22_cut1_stereo_44KHz.wav
2	166	4	4	2	I	2	0	867	1	poli_8sides 16_whiteLine3.jpg	Short_b23_cut1_stereo_44KHz.wav
2	167	1	1	1	C	1	0	448	0	poli_8sides 12_whiteLine3.jpg	Short_b22_cut1_stereo_44KHz.wav
2	168	3	3	2	I	2	0	643	1	poli_8sides 11_whiteLine3.jpg	Short_b20_cut1_stereo_44KHz.wav
2	169	1	1	1	C	2	1	848	1	poli_8sides 12_whiteLine3.jpg	Short_b22_cut1_stereo_44KHz.wav
2	170	2	2	1	C	2	1	1480	1	poli_8sides 10_whiteLine3.jpg	Short_b09_cut1_stereo_44KHz.wav
2	171	4	3	2	I	1	0	1005	1	poli_8sides 16_whiteLine3.jpg	Short_b20_cut1_stereo_44KHz.wav
2	172	3	4	2	I	1	0	1370	0	poli_8sides 11_whiteLine3.jpg	Short_b23_cut1_stereo_44KHz.wav
2	173	1	2	0	C	1	1	1308	1	poli_8sides 12_whiteLine3.jpg	Short_b09_cut1_stereo_44KHz.wav
2	174	2	1	0	C	1	1	794	1	poli_8sides 10_whiteLine3.jpg	Short_b22_cut1_stereo_44KHz.wav
2	175	3	3	2	I	1	0	1244	1	poli_8sides 11_whiteLine3.jpg	Short_b20_cut1_stereo_44KHz.wav
2	176	4	4	2	I	1	0	1122	1	poli_8sides 16_whiteLine3.jpg	Short_b23_cut1_stereo_44KHz.wav
2	177	3	4	2	I	1	0	1249	1	poli_8sides 11_whiteLine3.jpg	Short_b23_cut1_stereo_44KHz.wav
2	178	4	4	2	I	2	0	1197	0	poli_8sides 16_whiteLine3.jpg	Short_b23_cut1_stereo_44KHz.wav
2	179	2	1	0	C	1	1	976	1	poli_8sides 10_whiteLine3.jpg	Short_b22_cut1_stereo_44KHz.wav
2	180	1	2	0	C	1	1	895	1	poli_8sides 12_whiteLine3.jpg	Short_b09_cut1_stereo_44KHz.wav
2	181	4	3	2	I	1	0	829	0	poli_8sides 16_whiteLine3.jpg	Short_b20_cut1_stereo_44KHz.wav
2	182	2	2	1	C	2	1	1091	1	poli_8sides 10_whiteLine3.jpg	Short_b09_cut1_stereo_44KHz.wav
2	183	1	1	1	C	2	1	1024	1	poli_8sides 12_whiteLine3.jpg	Short_b22_cut1_stereo_44KHz.wav
2	184	3	3	2	I	1	0	788	1	poli_8sides 11_whiteLine3.jpg	Short_b20_cut1_stereo_44KHz.wav
2	185	2	2	1	C	1	0	739	0	poli_8sides 10_whiteLine3.jpg	Short_b09_cut1_stereo_44KHz.wav
2	186	3	4	2	I	1	0	778	1	poli_8sides 11_whiteLine3.jpg	Short_b23_cut1_stereo_44KHz.wav
2	187	4	4	2	I	1	0	1170	1	poli_8sides 16_whiteLine3.jpg	Short_b23_cut1_stereo_44KHz.wav
2	188	1	2	0	C	1	1	1082	1	poli_8sides 12_whiteLine3.jpg	Short_b09_cut1_stereo_44KHz.wav
2	189	2	1	0	C	1	1	1375	1	poli_8sides 10_whiteLine3.jpg	Short_b22_cut1_stereo_44KHz.wav
2	190	3	3	2	I	1	0	664	0	poli_8sides 11_whiteLine3.jpg	Short_b20_cut1_stereo_44KHz.wav
2	191	1	1	1	C	2	1	1152	1	poli_8sides 12_whiteLine3.jpg	Short_b22_cut1_stereo_44KHz.wav
2	192	4	3	2	I	1	0	1004	0	poli_8sides 16_whiteLine3.jpg	Short_b20_cut1_stereo_44KHz.wav
2	193	3	4	2	I	1	0	869	0	poli_8sides 11_whiteLine3.jpg	Short_b23_cut1_stereo_44KHz.wav
2	194	2	2	1	C	2	1	1040	1	poli_8sides 10_whiteLine3.jpg	Short_b09_cut1_stereo_44KHz.wav
2	195	1	1	1	C	2	1	914	1	poli_8sides 12_whiteLine3.jpg	Short_b22_cut1_stereo_44KHz.wav
2	196	4	3	2	I	1	0	712	1	poli_8sides 16_whiteLine3.jpg	Short_b20_cut1_stereo_44KHz.wav
2	197	2	1	0	C	1	1	1622	1	poli_8sides 10_whiteLine3.jpg	Short_b22_cut1_stereo_44KHz.wav
2	198	1	2	0	C	1	1	909	1	poli_8sides 12_whiteLine3.jpg	Short_b09_cut1_stereo_44KHz.wav
2	199	3	3	2	I	1	0	856	1	poli_8sides 11_whiteLine3.jpg	Short_b20_cut1_stereo_44KHz.wav
2	200	4	4	2	I	1	0	831	1	poli_8sides 16_whiteLine3.jpg	Short_b23_cut1_stereo_44KHz.wav
3	1	3	3	2	I	1	0	1854	0	poli_8sides 1_whiteLine3.jpg	Medium_e13_stereo_44KHz.wav
3	2	1	2	0	C	1	1	1340	1	poli_8sides 5_whiteLine3.jpg	MediumLong_e19_stereo_44KHz.wav
3	3	4	4	2	I	2	0	1630	0	poli_8sides 3_whiteLine3.jpg	Medium_e26_stereo_44KHz.wav
3	4	2	2	1	C	2	1	1154	1	poli_8sides 4_whiteLine3.jpg	MediumLong_e19_stereo_44KHz.wav
3	5	4	3	2	I	1	0	1200	0	poli_8sides 3_whiteLine3.jpg	Medium_e13_stereo_44KHz.wav
3	6	3	4	2	I	1	0	1139	1	poli_8sides 1_whiteLine3.jpg	Medium_e26_stereo_44KHz.wav
3	7	1	1	1	C	2	1	918	1	poli_8sides 5_whiteLine3.jpg	MediumLong_e04_stereo_44KHz.wav
3	8	2	1	0	C	1	1	928	1	poli_8sides 4_whiteLine3.jpg	MediumLong_e04_stereo_44KHz.wav
3	9	1	2	0	C	1	1	1230	1	poli_8sides 5_whiteLine3.jpg	MediumLong_e19_stereo_44KHz.wav
3	10	3	3	2	I	1	0	1020	0	poli_8sides 1_whiteLine3.jpg	Medium_e13_stereo_44KHz.wav
3	11	4	3	2	I	1	0	965	0	poli_8sides 3_whiteLine3.jpg	Medium_e13_stereo_44KHz.wav
3	12	2	2	1	C	2	1	1019	1	poli_8sides 4_whiteLine3.jpg	MediumLong_e19_stereo_44KHz.wav
3	13	4	4	2	I	1	0	1062	0	poli_8sides 3_whiteLine3.jpg	Medium_e26_stereo_44KHz.wav
3	14	3	4	2	I	2	0	908	0	poli_8sides 1_whiteLine3.jpg	Medium_e26_stereo_44KHz.wav
3	15	2	1	0	C	1	1	1130	1	poli_8sides 4_whiteLine3.jpg	MediumLong_e04_stereo_44KHz.wav
3	16	1	1	1	C	2	1	793	1	poli_8sides 5_whiteLine3.jpg	MediumLong_e04_stereo_44KHz.wav
3	17	2	1	0	C	1	1	910	1	poli_8sides 4_whiteLine3.jpg	MediumLong_e04_stereo_44KHz.wav
3	18	3	4	2	I	1	0	1251	1	poli_8sides 1_whiteLine3.jpg	Medium_e26_stereo_44KHz.wav
3	19	4	3	2	I	1	0	958	0	poli_8sides 3_whiteLine3.jpg	Medium_e13_stereo_44KHz.wav
3	20	1	2	0	C	1	1	1315	1	poli_8sides 5_whiteLine3.jpg	MediumLong_e19_stereo_44KHz.wav
3	21	2	2	1	C	2	1	1097	1	poli_8sides 4_whiteLine3.jpg	MediumLong_e19_stereo_44KHz.wav
3	22	1	1	1	C	2	1	965	1	poli_8sides 5_whiteLine3.jpg	MediumLong_e04_stereo_44KHz.wav
3	23	3	3	2	I	1	0	824	1	poli_8sides 1_whiteLine3.jpg	Medium_e13_stereo_44KHz.wav
3	24	4	4	2	I	1	0	1005	0	poli_8sides 3_whiteLine3.jpg	Medium_e26_stereo_44KHz.wav
3	25	3	3	2	I	1	0	752	1	poli_8sides 1_whiteLine3.jpg	Medium_e13_stereo_44KHz.wav
3	26	2	2	1	C	2	1	1023	1	poli_8sides 4_whiteLine3.jpg	MediumLong_e19_stereo_44KHz.wav
3	27	1	2	0	C	1	1	1321	1	poli_8sides 5_whiteLine3.jpg	MediumLong_e19_stereo_44KHz.wav
3	28	4	4	2	I	1	0	1258	1	poli_8sides 3_whiteLine3.jpg	Medium_e26_stereo_44KHz.wav
3	29	2	1	0	C	1	1	1276	1	poli_8sides 4_whiteLine3.jpg	MediumLong_e04_stereo_44KHz.wav
3	30	1	1	1	C	2	1	719	1	poli_8sides 5_whiteLine3.jpg	MediumLong_e04_stereo_44KHz.wav
3	31	4	3	2	I	1	0	855	1	poli_8sides 3_whiteLine3.jpg	Medium_e13_stereo_44KHz.wav
3	32	3	4	2	I	1	0	794	0	poli_8sides 1_whiteLine3.jpg	Medium_e26_stereo_44KHz.wav
3	33	2	1	0	C	1	1	1185	1	poli_8sides 4_whiteLine3.jpg	MediumLong_e04_stereo_44KHz.wav
3	34	4	4	2	I	1	0	908	1	poli_8sides 3_whiteLine3.jpg	Medium_e26_stereo_44KHz.wav
3	35	1	2	0	C	1	1	899	1	poli_8sides 5_whiteLine3.jpg	MediumLong_e19_stereo_44KHz.wav
3	36	3	4	2	I	1	0	983	1	poli_8sides 1_whiteLine3.jpg	Medium_e26_stereo_44KHz.wav
3	37	2	2	1	C	2	1	771	1	poli_8sides 4_whiteLine3.jpg	MediumLong_e19_stereo_44KHz.wav
3	38	3	3	2	I	2	0	1089	1	poli_8sides 1_whiteLine3.jpg	Medium_e13_stereo_44KHz.wav
3	39	4	3	2	I	2	0	1360	1	poli_8sides 3_whiteLine3.jpg	Medium_e13_stereo_44KHz.wav
3	40	1	1	1	C	2	1	850	1	poli_8sides 5_whiteLine3.jpg	MediumLong_e04_stereo_44KHz.wav
3	41	4	3	2	I	1	0	833	1	poli_8sides 3_whiteLine3.jpg	Medium_e13_stereo_44KHz.wav
3	42	1	2	0	C	1	1	983	1	poli_8sides 5_whiteLine3.jpg	MediumLong_e19_stereo_44KHz.wav
3	43	2	1	0	C	1	1	839	1	poli_8sides 4_whiteLine3.jpg	MediumLong_e04_stereo_44KHz.wav
3	44	3	4	2	I	2	0	1100	0	poli_8sides 1_whiteLine3.jpg	Medium_e26_stereo_44KHz.wav
3	45	2	2	1	C	2	1	844	1	poli_8sides 4_whiteLine3.jpg	MediumLong_e19_stereo_44KHz.wav
3	46	1	1	1	C	2	1	810	1	poli_8sides 5_whiteLine3.jpg	MediumLong_e04_stereo_44KHz.wav
3	47	4	4	2	I	2	0	1467	0	poli_8sides 3_whiteLine3.jpg	Medium_e26_stereo_44KHz.wav
3	48	3	3	2	I	1	0	748	0	poli_8sides 1_whiteLine3.jpg	Medium_e13_stereo_44KHz.wav
3	49	2	2	1	C	2	1	944	1	poli_8sides 4_whiteLine3.jpg	MediumLong_e19_stereo_44KHz.wav
3	50	4	3	2	I	1	0	1142	1	poli_8sides 3_whiteLine3.jpg	Medium_e13_stereo_44KHz.wav
3	51	1	1	1	C	2	1	953	1	poli_8sides 5_whiteLine3.jpg	MediumLong_e04_stereo_44KHz.wav
3	52	3	4	2	I	1	0	943	1	poli_8sides 1_whiteLine3.jpg	Medium_e26_stereo_44KHz.wav
3	53	2	1	0	C	1	1	1130	1	poli_8sides 4_whiteLine3.jpg	MediumLong_e04_stereo_44KHz.wav
3	54	3	3	2	I	1	0	734	1	poli_8sides 1_whiteLine3.jpg	Medium_e13_stereo_44KHz.wav
3	55	4	4	2	I	2	0	700	0	poli_8sides 3_whiteLine3.jpg	Medium_e26_stereo_44KHz.wav
3	56	1	2	0	C	1	1	999	1	poli_8sides 5_whiteLine3.jpg	MediumLong_e19_stereo_44KHz.wav
3	57	4	3	2	I	2	0	1056	1	poli_8sides 3_whiteLine3.jpg	Medium_e13_stereo_44KHz.wav
3	58	3	3	2	I	1	0	724	0	poli_8sides 1_whiteLine3.jpg	Medium_e13_stereo_44KHz.wav
3	59	1	2	0	C	1	1	1758	1	poli_8sides 5_whiteLine3.jpg	MediumLong_e19_stereo_44KHz.wav
3	60	2	1	0	C	1	1	966	1	poli_8sides 4_whiteLine3.jpg	MediumLong_e04_stereo_44KHz.wav
3	61	1	1	1	C	2	1	970	1	poli_8sides 5_whiteLine3.jpg	MediumLong_e04_stereo_44KHz.wav
3	62	3	4	2	I	1	0	1687	0	poli_8sides 1_whiteLine3.jpg	Medium_e26_stereo_44KHz.wav
3	63	2	2	1	C	2	1	965	1	poli_8sides 4_whiteLine3.jpg	MediumLong_e19_stereo_44KHz.wav
3	64	4	4	2	I	1	0	816	0	poli_8sides 3_whiteLine3.jpg	Medium_e26_stereo_44KHz.wav
3	65	3	3	2	I	1	0	795	1	poli_8sides 1_whiteLine3.jpg	Medium_e13_stereo_44KHz.wav
3	66	1	1	1	C	2	1	951	1	poli_8sides 5_whiteLine3.jpg	MediumLong_e04_stereo_44KHz.wav
3	67	4	3	2	I	1	0	1204	0	poli_8sides 3_whiteLine3.jpg	Medium_e13_stereo_44KHz.wav
3	68	2	1	0	C	1	1	934	1	poli_8sides 4_whiteLine3.jpg	MediumLong_e04_stereo_44KHz.wav
3	69	1	2	0	C	1	1	1091	1	poli_8sides 5_whiteLine3.jpg	MediumLong_e19_stereo_44KHz.wav
3	70	3	4	2	I	2	0	1094	0	poli_8sides 1_whiteLine3.jpg	Medium_e26_stereo_44KHz.wav
3	71	2	2	1	C	2	1	1964	1	poli_8sides 4_whiteLine3.jpg	MediumLong_e19_stereo_44KHz.wav
3	72	4	4	2	I	1	0	892	1	poli_8sides 3_whiteLine3.jpg	Medium_e26_stereo_44KHz.wav
3	73	1	2	0	C	1	1	1173	1	poli_8sides 5_whiteLine3.jpg	MediumLong_e19_stereo_44KHz.wav
3	74	2	1	0	C	1	1	933	1	poli_8sides 4_whiteLine3.jpg	MediumLong_e04_stereo_44KHz.wav
3	75	4	4	2	I	2	0	796	0	poli_8sides 3_whiteLine3.jpg	Medium_e26_stereo_44KHz.wav
3	76	3	4	2	I	1	0	1965	1	poli_8sides 1_whiteLine3.jpg	Medium_e26_stereo_44KHz.wav
3	77	1	1	1	C	2	1	937	1	poli_8sides 5_whiteLine3.jpg	MediumLong_e04_stereo_44KHz.wav
3	78	3	3	2	I	1	0	725	1	poli_8sides 1_whiteLine3.jpg	Medium_e13_stereo_44KHz.wav
3	79	4	3	2	I	2	0	1025	0	poli_8sides 3_whiteLine3.jpg	Medium_e13_stereo_44KHz.wav
3	80	2	2	1	C	2	1	957	1	poli_8sides 4_whiteLine3.jpg	MediumLong_e19_stereo_44KHz.wav
3	81	1	2	0	C	2	0	920	0	poli_8sides 5_whiteLine3.jpg	MediumLong_e19_stereo_44KHz.wav
3	82	4	4	2	I	1	0	1049	0	poli_8sides 3_whiteLine3.jpg	Medium_e26_stereo_44KHz.wav
3	83	3	4	2	I	1	0	1650	0	poli_8sides 1_whiteLine3.jpg	Medium_e26_stereo_44KHz.wav
3	84	2	2	1	C	2	1	1125	1	poli_8sides 4_whiteLine3.jpg	MediumLong_e19_stereo_44KHz.wav
3	85	3	3	2	I	1	0	849	1	poli_8sides 1_whiteLine3.jpg	Medium_e13_stereo_44KHz.wav
3	86	2	1	0	C	1	1	913	1	poli_8sides 4_whiteLine3.jpg	MediumLong_e04_stereo_44KHz.wav
3	87	1	1	1	C	2	1	764	1	poli_8sides 5_whiteLine3.jpg	MediumLong_e04_stereo_44KHz.wav
3	88	4	3	2	I	2	0	1248	1	poli_8sides 3_whiteLine3.jpg	Medium_e13_stereo_44KHz.wav
3	89	3	4	2	I	2	0	1742	0	poli_8sides 1_whiteLine3.jpg	Medium_e26_stereo_44KHz.wav
3	90	1	2	0	C	1	1	1399	1	poli_8sides 5_whiteLine3.jpg	MediumLong_e19_stereo_44KHz.wav
3	91	2	1	0	C	1	1	739	1	poli_8sides 4_whiteLine3.jpg	MediumLong_e04_stereo_44KHz.wav
3	92	4	4	2	I	2	0	778	0	poli_8sides 3_whiteLine3.jpg	Medium_e26_stereo_44KHz.wav
3	93	3	3	2	I	2	0	1400	1	poli_8sides 1_whiteLine3.jpg	Medium_e13_stereo_44KHz.wav
3	94	2	2	1	C	2	1	1486	1	poli_8sides 4_whiteLine3.jpg	MediumLong_e19_stereo_44KHz.wav
3	95	1	1	1	C	2	1	1075	1	poli_8sides 5_whiteLine3.jpg	MediumLong_e04_stereo_44KHz.wav
3	96	4	3	2	I	1	0	886	0	poli_8sides 3_whiteLine3.jpg	Medium_e13_stereo_44KHz.wav
3	97	3	4	2	I	2	0	895	0	poli_8sides 1_whiteLine3.jpg	Medium_e26_stereo_44KHz.wav
3	98	4	3	2	I	1	0	890	0	poli_8sides 3_whiteLine3.jpg	Medium_e13_stereo_44KHz.wav
3	99	1	1	1	C	2	1	791	1	poli_8sides 5_whiteLine3.jpg	MediumLong_e04_stereo_44KHz.wav
3	100	2	2	1	C	1	0	861	0	poli_8sides 4_whiteLine3.jpg	MediumLong_e19_stereo_44KHz.wav
3	101	3	3	2	I	1	0	939	0	poli_8sides 1_whiteLine3.jpg	Medium_e13_stereo_44KHz.wav
3	102	4	4	2	I	1	0	958	1	poli_8sides 3_whiteLine3.jpg	Medium_e26_stereo_44KHz.wav
3	103	1	2	0	C	1	1	1291	1	poli_8sides 5_whiteLine3.jpg	MediumLong_e19_stereo_44KHz.wav
3	104	2	1	0	C	1	1	1061	1	poli_8sides 4_whiteLine3.jpg	MediumLong_e04_stereo_44KHz.wav
3	105	3	3	2	I	1	0	1114	0	poli_8sides 1_whiteLine3.jpg	Medium_e13_stereo_44KHz.wav
3	106	2	1	0	C	1	1	797	1	poli_8sides 4_whiteLine3.jpg	MediumLong_e04_stereo_44KHz.wav
3	107	4	3	2	I	0	0	0	0	poli_8sides 3_whiteLine3.jpg	Medium_e13_stereo_44KHz.wav
3	108	1	2	0	C	2	0	949	0	poli_8sides 5_whiteLine3.jpg	MediumLong_e19_stereo_44KHz.wav
3	109	3	4	2	I	1	0	912	1	poli_8sides 1_whiteLine3.jpg	Medium_e26_stereo_44KHz.wav
3	110	2	2	1	C	2	1	837	1	poli_8sides 4_whiteLine3.jpg	MediumLong_e19_stereo_44KHz.wav
3	111	1	1	1	C	2	1	957	1	poli_8sides 5_whiteLine3.jpg	MediumLong_e04_stereo_44KHz.wav
3	112	4	4	2	I	1	0	1372	1	poli_8sides 3_whiteLine3.jpg	Medium_e26_stereo_44KHz.wav
3	113	1	2	0	C	2	0	1215	0	poli_8sides 5_whiteLine3.jpg	MediumLong_e19_stereo_44KHz.wav
3	114	4	4	2	I	2	0	711	0	poli_8sides 3_whiteLine3.jpg	Medium_e26_stereo_44KHz.wav
3	115	2	2	1	C	1	0	754	0	poli_8sides 4_whiteLine3.jpg	MediumLong_e19_stereo_44KHz.wav
3	116	3	3	2	I	1	0	1212	0	poli_8sides 1_whiteLine3.jpg	Medium_e13_stereo_44KHz.wav
3	117	4	3	2	I	1	0	905	1	poli_8sides 3_whiteLine3.jpg	Medium_e13_stereo_44KHz.wav
3	118	3	4	2	I	1	0	873	0	poli_8sides 1_whiteLine3.jpg	Medium_e26_stereo_44KHz.wav
3	119	1	1	1	C	2	1	952	1	poli_8sides 5_whiteLine3.jpg	MediumLong_e04_stereo_44KHz.wav
3	120	2	1	0	C	1	1	975	1	poli_8sides 4_whiteLine3.jpg	MediumLong_e04_stereo_44KHz.wav
3	121	4	3	2	I	2	0	729	0	poli_8sides 3_whiteLine3.jpg	Medium_e13_stereo_44KHz.wav
3	122	2	1	0	C	1	1	987	1	poli_8sides 4_whiteLine3.jpg	MediumLong_e04_stereo_44KHz.wav
3	123	1	2	0	C	1	1	1241	1	poli_8sides 5_whiteLine3.jpg	MediumLong_e19_stereo_44KHz.wav
3	124	3	4	2	I	1	0	740	1	poli_8sides 1_whiteLine3.jpg	Medium_e26_stereo_44KHz.wav
3	125	2	2	1	C	2	1	1380	1	poli_8sides 4_whiteLine3.jpg	MediumLong_e19_stereo_44KHz.wav
3	126	1	1	1	C	1	0	1223	0	poli_8sides 5_whiteLine3.jpg	MediumLong_e04_stereo_44KHz.wav
3	127	4	4	2	I	2	0	1003	1	poli_8sides 3_whiteLine3.jpg	Medium_e26_stereo_44KHz.wav
3	128	3	3	2	I	2	0	924	0	poli_8sides 1_whiteLine3.jpg	Medium_e13_stereo_44KHz.wav
3	129	4	3	2	I	1	0	719	0	poli_8sides 3_whiteLine3.jpg	Medium_e13_stereo_44KHz.wav
3	130	2	1	0	C	1	1	794	1	poli_8sides 4_whiteLine3.jpg	MediumLong_e04_stereo_44KHz.wav
3	131	3	3	2	I	2	0	1018	1	poli_8sides 1_whiteLine3.jpg	Medium_e13_stereo_44KHz.wav
3	132	1	2	0	C	1	1	923	1	poli_8sides 5_whiteLine3.jpg	MediumLong_e19_stereo_44KHz.wav
3	133	2	2	1	C	2	1	1011	1	poli_8sides 4_whiteLine3.jpg	MediumLong_e19_stereo_44KHz.wav
3	134	4	4	2	I	1	0	1162	1	poli_8sides 3_whiteLine3.jpg	Medium_e26_stereo_44KHz.wav
3	135	3	4	2	I	2	0	742	1	poli_8sides 1_whiteLine3.jpg	Medium_e26_stereo_44KHz.wav
3	136	1	1	1	C	2	1	1011	1	poli_8sides 5_whiteLine3.jpg	MediumLong_e04_stereo_44KHz.wav
3	137	3	4	2	I	2	0	1551	0	poli_8sides 1_whiteLine3.jpg	Medium_e26_stereo_44KHz.wav
3	138	2	2	1	C	1	0	799	0	poli_8sides 4_whiteLine3.jpg	MediumLong_e19_stereo_44KHz.wav
3	139	1	2	0	C	1	1	996	1	poli_8sides 5_whiteLine3.jpg	MediumLong_e19_stereo_44KHz.wav
3	140	4	4	2	I	1	0	768	1	poli_8sides 3_whiteLine3.jpg	Medium_e26_stereo_44KHz.wav
3	141	1	1	1	C	2	1	1008	1	poli_8sides 5_whiteLine3.jpg	MediumLong_e04_stereo_44KHz.wav
3	142	2	1	0	C	1	1	1315	1	poli_8sides 4_whiteLine3.jpg	MediumLong_e04_stereo_44KHz.wav
3	143	4	3	2	I	1	0	815	1	poli_8sides 3_whiteLine3.jpg	Medium_e13_stereo_44KHz.wav
3	144	3	3	2	I	2	0	696	1	poli_8sides 1_whiteLine3.jpg	Medium_e13_stereo_44KHz.wav
3	145	1	2	0	C	1	1	1032	1	poli_8sides 5_whiteLine3.jpg	MediumLong_e19_stereo_44KHz.wav
3	146	4	3	2	I	2	0	1513	1	poli_8sides 3_whiteLine3.jpg	Medium_e13_stereo_44KHz.wav
3	147	2	1	0	C	1	1	1094	1	poli_8sides 4_whiteLine3.jpg	MediumLong_e04_stereo_44KHz.wav
3	148	3	4	2	I	2	0	1237	1	poli_8sides 1_whiteLine3.jpg	Medium_e26_stereo_44KHz.wav
3	149	2	2	1	C	2	1	984	1	poli_8sides 4_whiteLine3.jpg	MediumLong_e19_stereo_44KHz.wav
3	150	1	1	1	C	1	0	865	0	poli_8sides 5_whiteLine3.jpg	MediumLong_e04_stereo_44KHz.wav
3	151	4	4	2	I	1	0	996	0	poli_8sides 3_whiteLine3.jpg	Medium_e26_stereo_44KHz.wav
3	152	3	3	2	I	2	0	983	0	poli_8sides 1_whiteLine3.jpg	Medium_e13_stereo_44KHz.wav
3	153	2	1	0	C	1	1	1039	1	poli_8sides 4_whiteLine3.jpg	MediumLong_e04_stereo_44KHz.wav
3	154	1	2	0	C	1	1	973	1	poli_8sides 5_whiteLine3.jpg	MediumLong_e19_stereo_44KHz.wav
3	155	4	3	2	I	2	0	816	0	poli_8sides 3_whiteLine3.jpg	Medium_e13_stereo_44KHz.wav
3	156	3	4	2	I	2	0	1335	1	poli_8sides 1_whiteLine3.jpg	Medium_e26_stereo_44KHz.wav
3	157	2	2	1	C	2	1	866	1	poli_8sides 4_whiteLine3.jpg	MediumLong_e19_stereo_44KHz.wav
3	158	1	1	1	C	2	1	1778	1	poli_8sides 5_whiteLine3.jpg	MediumLong_e04_stereo_44KHz.wav
3	159	3	3	2	I	2	0	890	0	poli_8sides 1_whiteLine3.jpg	Medium_e13_stereo_44KHz.wav
3	160	4	4	2	I	1	0	812	0	poli_8sides 3_whiteLine3.jpg	Medium_e26_stereo_44KHz.wav
3	161	1	2	0	C	1	1	981	1	poli_8sides 5_whiteLine3.jpg	MediumLong_e19_stereo_44KHz.wav
3	162	4	4	2	I	2	0	664	1	poli_8sides 3_whiteLine3.jpg	Medium_e26_stereo_44KHz.wav
3	163	2	1	0	C	1	1	1001	1	poli_8sides 4_whiteLine3.jpg	MediumLong_e04_stereo_44KHz.wav
3	164	3	3	2	I	1	0	806	1	poli_8sides 1_whiteLine3.jpg	Medium_e13_stereo_44KHz.wav
3	165	2	2	1	C	1	0	979	0	poli_8sides 4_whiteLine3.jpg	MediumLong_e19_stereo_44KHz.wav
3	166	4	3	2	I	2	0	987	0	poli_8sides 3_whiteLine3.jpg	Medium_e13_stereo_44KHz.wav
3	167	3	4	2	I	1	0	794	0	poli_8sides 1_whiteLine3.jpg	Medium_e26_stereo_44KHz.wav
3	168	1	1	1	C	2	1	860	1	poli_8sides 5_whiteLine3.jpg	MediumLong_e04_stereo_44KHz.wav
3	169	3	3	2	I	2	0	918	1	poli_8sides 1_whiteLine3.jpg	Medium_e13_stereo_44KHz.wav
3	170	2	2	1	C	2	1	772	1	poli_8sides 4_whiteLine3.jpg	MediumLong_e19_stereo_44KHz.wav
3	171	1	2	0	C	1	1	1035	1	poli_8sides 5_whiteLine3.jpg	MediumLong_e19_stereo_44KHz.wav
3	172	4	4	2	I	2	0	972	1	poli_8sides 3_whiteLine3.jpg	Medium_e26_stereo_44KHz.wav
3	173	2	1	0	C	1	1	1041	1	poli_8sides 4_whiteLine3.jpg	MediumLong_e04_stereo_44KHz.wav
3	174	4	3	2	I	1	0	896	0	poli_8sides 3_whiteLine3.jpg	Medium_e13_stereo_44KHz.wav
3	175	1	1	1	C	1	0	1102	0	poli_8sides 5_whiteLine3.jpg	MediumLong_e04_stereo_44KHz.wav
3	176	3	4	2	I	2	0	748	1	poli_8sides 1_whiteLine3.jpg	Medium_e26_stereo_44KHz.wav
3	177	2	2	1	C	2	1	965	1	poli_8sides 4_whiteLine3.jpg	MediumLong_e19_stereo_44KHz.wav
3	178	4	3	2	I	2	0	615	1	poli_8sides 3_whiteLine3.jpg	Medium_e13_stereo_44KHz.wav
3	179	1	1	1	C	2	1	1886	1	poli_8sides 5_whiteLine3.jpg	MediumLong_e04_stereo_44KHz.wav
3	180	3	3	2	I	1	0	967	0	poli_8sides 1_whiteLine3.jpg	Medium_e13_stereo_44KHz.wav
3	181	4	4	2	I	2	0	930	0	poli_8sides 3_whiteLine3.jpg	Medium_e26_stereo_44KHz.wav
3	182	2	1	0	C	1	1	859	1	poli_8sides 4_whiteLine3.jpg	MediumLong_e04_stereo_44KHz.wav
3	183	1	2	0	C	2	0	837	0	poli_8sides 5_whiteLine3.jpg	MediumLong_e19_stereo_44KHz.wav
3	184	3	4	2	I	2	0	670	1	poli_8sides 1_whiteLine3.jpg	Medium_e26_stereo_44KHz.wav
3	185	2	1	0	C	1	1	728	1	poli_8sides 4_whiteLine3.jpg	MediumLong_e04_stereo_44KHz.wav
3	186	1	2	0	C	1	1	898	1	poli_8sides 5_whiteLine3.jpg	MediumLong_e19_stereo_44KHz.wav
3	187	4	4	2	I	1	0	1368	1	poli_8sides 3_whiteLine3.jpg	Medium_e26_stereo_44KHz.wav
3	188	3	4	2	I	2	0	841	0	poli_8sides 1_whiteLine3.jpg	Medium_e26_stereo_44KHz.wav
3	189	1	1	1	C	2	1	979	1	poli_8sides 5_whiteLine3.jpg	MediumLong_e04_stereo_44KHz.wav
3	190	4	3	2	I	1	0	834	1	poli_8sides 3_whiteLine3.jpg	Medium_e13_stereo_44KHz.wav
3	191	3	3	2	I	2	0	926	0	poli_8sides 1_whiteLine3.jpg	Medium_e13_stereo_44KHz.wav
3	192	2	2	1	C	2	1	929	1	poli_8sides 4_whiteLine3.jpg	MediumLong_e19_stereo_44KHz.wav
3	193	1	2	0	C	1	1	1355	1	poli_8sides 5_whiteLine3.jpg	MediumLong_e19_stereo_44KHz.wav
3	194	2	2	1	C	2	1	1258	1	poli_8sides 4_whiteLine3.jpg	MediumLong_e19_stereo_44KHz.wav
3	195	3	3	2	I	1	0	766	1	poli_8sides 1_whiteLine3.jpg	Medium_e13_stereo_44KHz.wav
3	196	4	4	2	I	1	0	1295	1	poli_8sides 3_whiteLine3.jpg	Medium_e26_stereo_44KHz.wav
3	197	2	1	0	C	1	1	912	1	poli_8sides 4_whiteLine3.jpg	MediumLong_e04_stereo_44KHz.wav
3	198	1	1	1	C	2	1	751	1	poli_8sides 5_whiteLine3.jpg	MediumLong_e04_stereo_44KHz.wav
3	199	3	4	2	I	2	0	1223	0	poli_8sides 1_whiteLine3.jpg	Medium_e26_stereo_44KHz.wav
3	200	4	3	2	I	1	0	670	1	poli_8sides 3_whiteLine3.jpg	Medium_e13_stereo_44KHz.wav
4	1	1	1	1	C	0	0	0	0	poli_8sides 2_whiteLine3.jpg	Medium_e21_stereo_44KHz.wav
4	2	2	2	1	C	1	0	1343	0	poli_8sides 7_whiteLine3.jpg	MediumLong_b10_cut2_L_stereo_44KHz.wav
4	3	4	3	2	I	2	0	1307	0	poli_8sides 6_whiteLine3.jpg	Medium_e01_cut1_stereo_44KHz.wav
4	4	3	4	2	I	1	0	1000	1	poli_8sides 13_whiteLine3.jpg	MediumLong_e17_cut2_stereo_44KHz.wav
4	5	4	4	2	I	2	0	868	1	poli_8sides 6_whiteLine3.jpg	MediumLong_e17_cut2_stereo_44KHz.wav
4	6	2	1	0	C	2	0	1100	0	poli_8sides 7_whiteLine3.jpg	Medium_e21_stereo_44KHz.wav
4	7	3	3	2	I	1	0	761	0	poli_8sides 13_whiteLine3.jpg	Medium_e01_cut1_stereo_44KHz.wav
4	8	1	2	0	C	2	0	766	0	poli_8sides 2_whiteLine3.jpg	MediumLong_b10_cut2_L_stereo_44KHz.wav
4	9	2	1	0	C	2	0	954	0	poli_8sides 7_whiteLine3.jpg	Medium_e21_stereo_44KHz.wav
4	10	3	4	2	I	1	0	1319	1	poli_8sides 13_whiteLine3.jpg	MediumLong_e17_cut2_stereo_44KHz.wav
4	11	4	3	2	I	1	0	1599	1	poli_8sides 6_whiteLine3.jpg	Medium_e01_cut1_stereo_44KHz.wav
4	12	1	2	0	C	2	0	864	0	poli_8sides 2_whiteLine3.jpg	MediumLong_b10_cut2_L_stereo_44KHz.wav
4	13	2	2	1	C	1	0	1002	0	poli_8sides 7_whiteLine3.jpg	MediumLong_b10_cut2_L_stereo_44KHz.wav
4	14	4	4	2	I	2	0	1295	1	poli_8sides 6_whiteLine3.jpg	MediumLong_e17_cut2_stereo_44KHz.wav
4	15	3	3	2	I	1	0	818	0	poli_8sides 13_whiteLine3.jpg	Medium_e01_cut1_stereo_44KHz.wav
4	16	1	1	1	C	2	1	1006	1	poli_8sides 2_whiteLine3.jpg	Medium_e21_stereo_44KHz.wav
4	17	3	4	2	I	2	0	948	0	poli_8sides 13_whiteLine3.jpg	MediumLong_e17_cut2_stereo_44KHz.wav
4	18	1	1	1	C	1	0	854	0	poli_8sides 2_whiteLine3.jpg	Medium_e21_stereo_44KHz.wav
4	19	2	1	0	C	2	0	687	0	poli_8sides 7_whiteLine3.jpg	Medium_e21_stereo_44KHz.wav
4	20	4	4	2	I	2	0	1069	1	poli_8sides 6_whiteLine3.jpg	MediumLong_e17_cut2_stereo_44KHz.wav
4	21	2	2	1	C	1	0	937	0	poli_8sides 7_whiteLine3.jpg	MediumLong_b10_cut2_L_stereo_44KHz.wav
4	22	3	3	2	I	1	0	1016	0	poli_8sides 13_whiteLine3.jpg	Medium_e01_cut1_stereo_44KHz.wav
4	23	4	3	2	I	1	0	713	1	poli_8sides 6_whiteLine3.jpg	Medium_e01_cut1_stereo_44KHz.wav
4	24	1	2	0	C	2	0	745	0	poli_8sides 2_whiteLine3.jpg	MediumLong_b10_cut2_L_stereo_44KHz.wav
4	25	3	3	2	I	1	0	1301	0	poli_8sides 13_whiteLine3.jpg	Medium_e01_cut1_stereo_44KHz.wav
4	26	1	1	1	C	2	1	835	1	poli_8sides 2_whiteLine3.jpg	Medium_e21_stereo_44KHz.wav
4	27	4	3	2	I	1	0	1055	0	poli_8sides 6_whiteLine3.jpg	Medium_e01_cut1_stereo_44KHz.wav
4	28	2	1	0	C	1	1	1089	1	poli_8sides 7_whiteLine3.jpg	Medium_e21_stereo_44KHz.wav
4	29	1	2	0	C	2	0	810	0	poli_8sides 2_whiteLine3.jpg	MediumLong_b10_cut2_L_stereo_44KHz.wav
4	30	2	2	1	C	1	0	1013	0	poli_8sides 7_whiteLine3.jpg	MediumLong_b10_cut2_L_stereo_44KHz.wav
4	31	4	4	2	I	2	0	1066	0	poli_8sides 6_whiteLine3.jpg	MediumLong_e17_cut2_stereo_44KHz.wav
4	32	3	4	2	I	1	0	1062	1	poli_8sides 13_whiteLine3.jpg	MediumLong_e17_cut2_stereo_44KHz.wav
4	33	4	4	2	I	2	0	992	1	poli_8sides 6_whiteLine3.jpg	MediumLong_e17_cut2_stereo_44KHz.wav
4	34	3	3	2	I	1	0	838	0	poli_8sides 13_whiteLine3.jpg	Medium_e01_cut1_stereo_44KHz.wav
4	35	2	2	1	C	2	1	673	1	poli_8sides 7_whiteLine3.jpg	MediumLong_b10_cut2_L_stereo_44KHz.wav
4	36	1	2	0	C	1	1	1175	1	poli_8sides 2_whiteLine3.jpg	MediumLong_b10_cut2_L_stereo_44KHz.wav
4	37	3	4	2	I	2	0	744	1	poli_8sides 13_whiteLine3.jpg	MediumLong_e17_cut2_stereo_44KHz.wav
4	38	1	1	1	C	2	1	861	1	poli_8sides 2_whiteLine3.jpg	Medium_e21_stereo_44KHz.wav
4	39	2	1	0	C	1	1	1098	1	poli_8sides 7_whiteLine3.jpg	Medium_e21_stereo_44KHz.wav
4	40	4	3	2	I	1	0	1245	1	poli_8sides 6_whiteLine3.jpg	Medium_e01_cut1_stereo_44KHz.wav
4	41	1	1	1	C	1	0	957	0	poli_8sides 2_whiteLine3.jpg	Medium_e21_stereo_44KHz.wav
4	42	3	4	2	I	2	0	948	1	poli_8sides 13_whiteLine3.jpg	MediumLong_e17_cut2_stereo_44KHz.wav
4	43	2	1	0	C	1	1	1001	1	poli_8sides 7_whiteLine3.jpg	Medium_e21_stereo_44KHz.wav
4	44	4	3	2	I	1	0	1001	0	poli_8sides 6_whiteLine3.jpg	Medium_e01_cut1_stereo_44KHz.wav
4	45	3	3	2	I	2	0	987	0	poli_8sides 13_whiteLine3.jpg	Medium_e01_cut1_stereo_44KHz.wav
4	46	2	2	1	C	1	0	874	0	poli_8sides 7_whiteLine3.jpg	MediumLong_b10_cut2_L_stereo_44KHz.wav
4	47	4	4	2	I	2	0	973	0	poli_8sides 6_whiteLine3.jpg	MediumLong_e17_cut2_stereo_44KHz.wav
4	48	1	2	0	C	1	1	733	1	poli_8sides 2_whiteLine3.jpg	MediumLong_b10_cut2_L_stereo_44KHz.wav
4	49	3	4	2	I	2	0	847	0	poli_8sides 13_whiteLine3.jpg	MediumLong_e17_cut2_stereo_44KHz.wav
4	50	2	2	1	C	1	0	1052	0	poli_8sides 7_whiteLine3.jpg	MediumLong_b10_cut2_L_stereo_44KHz.wav
4	51	1	1	1	C	1	0	649	0	poli_8sides 2_whiteLine3.jpg	Medium_e21_stereo_44KHz.wav
4	52	4	4	2	I	2	0	1045	1	poli_8sides 6_whiteLine3.jpg	MediumLong_e17_cut2_stereo_44KHz.wav
4	53	2	1	0	C	1	1	1006	1	poli_8sides 7_whiteLine3.jpg	Medium_e21_stereo_44KHz.wav
4	54	4	3	2	I	1	0	1414	1	poli_8sides 6_whiteLine3.jpg	Medium_e01_cut1_stereo_44KHz.wav
4	55	3	3	2	I	2	0	800	0	poli_8sides 13_whiteLine3.jpg	Medium_e01_cut1_stereo_44KHz.wav
4	56	1	2	0	C	1	1	1022	1	poli_8sides 2_whiteLine3.jpg	MediumLong_b10_cut2_L_stereo_44KHz.wav
4	57	3	4	2	I	2	0	1718	1	poli_8sides 13_whiteLine3.jpg	MediumLong_e17_cut2_stereo_44KHz.wav
4	58	1	2	0	C	1	1	773	1	poli_8sides 2_whiteLine3.jpg	MediumLong_b10_cut2_L_stereo_44KHz.wav
4	59	2	1	0	C	1	1	895	1	poli_8sides 7_whiteLine3.jpg	Medium_e21_stereo_44KHz.wav
4	60	4	4	2	I	2	0	980	0	poli_8sides 6_whiteLine3.jpg	MediumLong_e17_cut2_stereo_44KHz.wav
4	61	2	2	1	C	2	1	998	1	poli_8sides 7_whiteLine3.jpg	MediumLong_b10_cut2_L_stereo_44KHz.wav
4	62	1	1	1	C	1	0	1134	0	poli_8sides 2_whiteLine3.jpg	Medium_e21_stereo_44KHz.wav
4	63	3	3	2	I	1	0	1134	1	poli_8sides 13_whiteLine3.jpg	Medium_e01_cut1_stereo_44KHz.wav
4	64	4	3	2	I	2	0	726	0	poli_8sides 6_whiteLine3.jpg	Medium_e01_cut1_stereo_44KHz.wav
4	65	1	2	0	C	1	1	870	1	poli_8sides 2_whiteLine3.jpg	MediumLong_b10_cut2_L_stereo_44KHz.wav
4	66	2	2	1	C	2	1	973	1	poli_8sides 7_whiteLine3.jpg	MediumLong_b10_cut2_L_stereo_44KHz.wav
4	67	3	4	2	I	2	0	1093	0	poli_8sides 13_whiteLine3.jpg	MediumLong_e17_cut2_stereo_44KHz.wav
4	68	4	4	2	I	1	0	1264	1	poli_8sides 6_whiteLine3.jpg	MediumLong_e17_cut2_stereo_44KHz.wav
4	69	1	1	1	C	1	0	1170	0	poli_8sides 2_whiteLine3.jpg	Medium_e21_stereo_44KHz.wav
4	70	2	1	0	C	1	1	749	1	poli_8sides 7_whiteLine3.jpg	Medium_e21_stereo_44KHz.wav
4	71	3	3	2	I	1	0	995	1	poli_8sides 13_whiteLine3.jpg	Medium_e01_cut1_stereo_44KHz.wav
4	72	4	3	2	I	1	0	1157	0	poli_8sides 6_whiteLine3.jpg	Medium_e01_cut1_stereo_44KHz.wav
4	73	1	1	1	C	2	1	1275	1	poli_8sides 2_whiteLine3.jpg	Medium_e21_stereo_44KHz.wav
4	74	4	3	2	I	1	0	848	0	poli_8sides 6_whiteLine3.jpg	Medium_e01_cut1_stereo_44KHz.wav
4	75	2	2	1	C	2	1	925	1	poli_8sides 7_whiteLine3.jpg	MediumLong_b10_cut2_L_stereo_44KHz.wav
4	76	3	4	2	I	2	0	1044	1	poli_8sides 13_whiteLine3.jpg	MediumLong_e17_cut2_stereo_44KHz.wav
4	77	2	1	0	C	1	1	846	1	poli_8sides 7_whiteLine3.jpg	Medium_e21_stereo_44KHz.wav
4	78	1	2	0	C	2	0	911	0	poli_8sides 2_whiteLine3.jpg	MediumLong_b10_cut2_L_stereo_44KHz.wav
4	79	3	3	2	I	1	0	1058	1	poli_8sides 13_whiteLine3.jpg	Medium_e01_cut1_stereo_44KHz.wav
4	80	4	4	2	I	2	0	746	1	poli_8sides 6_whiteLine3.jpg	MediumLong_e17_cut2_stereo_44KHz.wav
4	81	2	2	1	C	2	1	1097	1	poli_8sides 7_whiteLine3.jpg	MediumLong_b10_cut2_L_stereo_44KHz.wav
4	82	4	3	2	I	1	0	653	1	poli_8sides 6_whiteLine3.jpg	Medium_e01_cut1_stereo_44KHz.wav
4	83	1	2	0	C	2	0	742	0	poli_8sides 2_whiteLine3.jpg	MediumLong_b10_cut2_L_stereo_44KHz.wav
4	84	3	4	2	I	2	0	1157	0	poli_8sides 13_whiteLine3.jpg	MediumLong_e17_cut2_stereo_44KHz.wav
4	85	2	1	0	C	1	1	699	1	poli_8sides 7_whiteLine3.jpg	Medium_e21_stereo_44KHz.wav
4	86	4	4	2	I	2	0	1215	0	poli_8sides 6_whiteLine3.jpg	MediumLong_e17_cut2_stereo_44KHz.wav
4	87	3	3	2	I	1	0	1219	0	poli_8sides 13_whiteLine3.jpg	Medium_e01_cut1_stereo_44KHz.wav
4	88	1	1	1	C	1	0	795	0	poli_8sides 2_whiteLine3.jpg	Medium_e21_stereo_44KHz.wav
4	89	4	3	2	I	1	0	939	0	poli_8sides 6_whiteLine3.jpg	Medium_e01_cut1_stereo_44KHz.wav
4	90	1	1	1	C	1	0	1384	0	poli_8sides 2_whiteLine3.jpg	Medium_e21_stereo_44KHz.wav
4	91	3	3	2	I	2	0	940	0	poli_8sides 13_whiteLine3.jpg	Medium_e01_cut1_stereo_44KHz.wav
4	92	2	2	1	C	2	1	1088	1	poli_8sides 7_whiteLine3.jpg	MediumLong_b10_cut2_L_stereo_44KHz.wav
4	93	4	4	2	I	1	0	1684	1	poli_8sides 6_whiteLine3.jpg	MediumLong_e17_cut2_stereo_44KHz.wav
4	94	3	4	2	I	2	0	1921	1	poli_8sides 13_whiteLine3.jpg	MediumLong_e17_cut2_stereo_44KHz.wav
4	95	2	1	0	C	1	1	954	1	poli_8sides 7_whiteLine3.jpg	Medium_e21_stereo_44KHz.wav
4	96	1	2	0	C	2	0	967	0	poli_8sides 2_whiteLine3.jpg	MediumLong_b10_cut2_L_stereo_44KHz.wav
4	97	4	4	2	I	1	0	792	1	poli_8sides 6_whiteLine3.jpg	MediumLong_e17_cut2_stereo_44KHz.wav
4	98	1	1	1	C	2	1	726	1	poli_8sides 2_whiteLine3.jpg	Medium_e21_stereo_44KHz.wav
4	99	2	1	0	C	1	1	1359	1	poli_8sides 7_whiteLine3.jpg	Medium_e21_stereo_44KHz.wav
4	100	3	4	2	I	1	0	962	1	poli_8sides 13_whiteLine3.jpg	MediumLong_e17_cut2_stereo_44KHz.wav
4	101	1	2	0	C	2	0	684	0	poli_8sides 2_whiteLine3.jpg	MediumLong_b10_cut2_L_stereo_44KHz.wav
4	102	3	3	2	I	1	0	484	1	poli_8sides 13_whiteLine3.jpg	Medium_e01_cut1_stereo_44KHz.wav
4	103	2	2	1	C	2	1	814	1	poli_8sides 7_whiteLine3.jpg	MediumLong_b10_cut2_L_stereo_44KHz.wav
4	104	4	3	2	I	1	0	972	0	poli_8sides 6_whiteLine3.jpg	Medium_e01_cut1_stereo_44KHz.wav
4	105	1	2	0	C	2	0	597	0	poli_8sides 2_whiteLine3.jpg	MediumLong_b10_cut2_L_stereo_44KHz.wav
4	106	4	4	2	I	1	0	413	0	poli_8sides 6_whiteLine3.jpg	MediumLong_e17_cut2_stereo_44KHz.wav
4	107	3	4	2	I	2	0	295	0	poli_8sides 13_whiteLine3.jpg	MediumLong_e17_cut2_stereo_44KHz.wav
4	108	2	1	0	C	1	1	1033	1	poli_8sides 7_whiteLine3.jpg	Medium_e21_stereo_44KHz.wav
4	109	3	3	2	I	1	0	1068	0	poli_8sides 13_whiteLine3.jpg	Medium_e01_cut1_stereo_44KHz.wav
4	110	1	1	1	C	1	0	986	0	poli_8sides 2_whiteLine3.jpg	Medium_e21_stereo_44KHz.wav
4	111	4	3	2	I	1	0	656	1	poli_8sides 6_whiteLine3.jpg	Medium_e01_cut1_stereo_44KHz.wav
4	112	2	2	1	C	2	1	847	1	poli_8sides 7_whiteLine3.jpg	MediumLong_b10_cut2_L_stereo_44KHz.wav
4	113	1	1	1	C	1	0	881	0	poli_8sides 2_whiteLine3.jpg	Medium_e21_stereo_44KHz.wav
4	114	2	2	1	C	2	1	1041	1	poli_8sides 7_whiteLine3.jpg	MediumLong_b10_cut2_L_stereo_44KHz.wav
4	115	4	4	2	I	2	0	1022	0	poli_8sides 6_whiteLine3.jpg	MediumLong_e17_cut2_stereo_44KHz.wav
4	116	3	3	2	I	1	0	882	0	poli_8sides 13_whiteLine3.jpg	Medium_e01_cut1_stereo_44KHz.wav
4	117	1	2	0	C	2	0	883	0	poli_8sides 2_whiteLine3.jpg	MediumLong_b10_cut2_L_stereo_44KHz.wav
4	118	2	1	0	C	1	1	885	1	poli_8sides 7_whiteLine3.jpg	Medium_e21_stereo_44KHz.wav
4	119	3	4	2	I	1	0	757	1	poli_8sides 13_whiteLine3.jpg	MediumLong_e17_cut2_stereo_44KHz.wav
4	120	4	3	2	I	2	0	677	0	poli_8sides 6_whiteLine3.jpg	Medium_e01_cut1_stereo_44KHz.wav
4	121	1	1	1	C	1	0	964	0	poli_8sides 2_whiteLine3.jpg	Medium_e21_stereo_44KHz.wav
4	122	4	3	2	I	1	0	954	1	poli_8sides 6_whiteLine3.jpg	Medium_e01_cut1_stereo_44KHz.wav
4	123	3	4	2	I	2	0	1190	1	poli_8sides 13_whiteLine3.jpg	MediumLong_e17_cut2_stereo_44KHz.wav
4	124	2	1	0	C	1	1	774	1	poli_8sides 7_whiteLine3.jpg	Medium_e21_stereo_44KHz.wav
4	125	4	4	2	I	2	0	910	0	poli_8sides 6_whiteLine3.jpg	MediumLong_e17_cut2_stereo_44KHz.wav
4	126	3	3	2	I	1	0	632	1	poli_8sides 13_whiteLine3.jpg	Medium_e01_cut1_stereo_44KHz.wav
4	127	1	2	0	C	1	1	765	1	poli_8sides 2_whiteLine3.jpg	MediumLong_b10_cut2_L_stereo_44KHz.wav
4	128	2	2	1	C	2	1	920	1	poli_8sides 7_whiteLine3.jpg	MediumLong_b10_cut2_L_stereo_44KHz.wav
4	129	1	1	1	C	2	1	970	1	poli_8sides 2_whiteLine3.jpg	Medium_e21_stereo_44KHz.wav
4	130	2	1	0	C	2	0	1215	0	poli_8sides 7_whiteLine3.jpg	Medium_e21_stereo_44KHz.wav
4	131	4	3	2	I	1	0	773	0	poli_8sides 6_whiteLine3.jpg	Medium_e01_cut1_stereo_44KHz.wav
4	132	3	4	2	I	2	0	499	1	poli_8sides 13_whiteLine3.jpg	MediumLong_e17_cut2_stereo_44KHz.wav
4	133	1	2	0	C	2	0	937	0	poli_8sides 2_whiteLine3.jpg	MediumLong_b10_cut2_L_stereo_44KHz.wav
4	134	4	4	2	I	1	0	1653	0	poli_8sides 6_whiteLine3.jpg	MediumLong_e17_cut2_stereo_44KHz.wav
4	135	3	3	2	I	1	0	830	1	poli_8sides 13_whiteLine3.jpg	Medium_e01_cut1_stereo_44KHz.wav
4	136	2	2	1	C	1	0	988	0	poli_8sides 7_whiteLine3.jpg	MediumLong_b10_cut2_L_stereo_44KHz.wav
4	137	1	1	1	C	2	1	1008	1	poli_8sides 2_whiteLine3.jpg	Medium_e21_stereo_44KHz.wav
4	138	4	3	2	I	1	0	755	0	poli_8sides 6_whiteLine3.jpg	Medium_e01_cut1_stereo_44KHz.wav
4	139	3	4	2	I	2	0	930	0	poli_8sides 13_whiteLine3.jpg	MediumLong_e17_cut2_stereo_44KHz.wav
4	140	2	1	0	C	1	1	193	1	poli_8sides 7_whiteLine3.jpg	Medium_e21_stereo_44KHz.wav
4	141	3	3	2	I	1	0	762	1	poli_8sides 13_whiteLine3.jpg	Medium_e01_cut1_stereo_44KHz.wav
4	142	4	4	2	I	2	0	992	1	poli_8sides 6_whiteLine3.jpg	MediumLong_e17_cut2_stereo_44KHz.wav
4	143	2	2	1	C	1	0	985	0	poli_8sides 7_whiteLine3.jpg	MediumLong_b10_cut2_L_stereo_44KHz.wav
4	144	1	2	0	C	2	0	1037	0	poli_8sides 2_whiteLine3.jpg	MediumLong_b10_cut2_L_stereo_44KHz.wav
4	145	2	2	1	C	1	0	1081	0	poli_8sides 7_whiteLine3.jpg	MediumLong_b10_cut2_L_stereo_44KHz.wav
4	146	3	3	2	I	1	0	689	0	poli_8sides 13_whiteLine3.jpg	Medium_e01_cut1_stereo_44KHz.wav
4	147	4	3	2	I	1	0	652	1	poli_8sides 6_whiteLine3.jpg	Medium_e01_cut1_stereo_44KHz.wav
4	148	1	2	0	C	1	1	1110	1	poli_8sides 2_whiteLine3.jpg	MediumLong_b10_cut2_L_stereo_44KHz.wav
4	149	3	4	2	I	1	0	927	0	poli_8sides 13_whiteLine3.jpg	MediumLong_e17_cut2_stereo_44KHz.wav
4	150	4	4	2	I	1	0	809	1	poli_8sides 6_whiteLine3.jpg	MediumLong_e17_cut2_stereo_44KHz.wav
4	151	1	1	1	C	2	1	1159	1	poli_8sides 2_whiteLine3.jpg	Medium_e21_stereo_44KHz.wav
4	152	2	1	0	C	2	0	1027	0	poli_8sides 7_whiteLine3.jpg	Medium_e21_stereo_44KHz.wav
4	153	4	3	2	I	2	0	807	1	poli_8sides 6_whiteLine3.jpg	Medium_e01_cut1_stereo_44KHz.wav
4	154	3	3	2	I	1	0	745	1	poli_8sides 13_whiteLine3.jpg	Medium_e01_cut1_stereo_44KHz.wav
4	155	1	2	0	C	2	0	1150	0	poli_8sides 2_whiteLine3.jpg	MediumLong_b10_cut2_L_stereo_44KHz.wav
4	156	2	1	0	C	1	1	647	1	poli_8sides 7_whiteLine3.jpg	Medium_e21_stereo_44KHz.wav
4	157	3	4	2	I	1	0	893	0	poli_8sides 13_whiteLine3.jpg	MediumLong_e17_cut2_stereo_44KHz.wav
4	158	1	1	1	C	2	1	422	1	poli_8sides 2_whiteLine3.jpg	Medium_e21_stereo_44KHz.wav
4	159	4	4	2	I	2	0	833	0	poli_8sides 6_whiteLine3.jpg	MediumLong_e17_cut2_stereo_44KHz.wav
4	160	2	2	1	C	1	0	1479	0	poli_8sides 7_whiteLine3.jpg	MediumLong_b10_cut2_L_stereo_44KHz.wav
4	161	4	4	2	I	2	0	845	0	poli_8sides 6_whiteLine3.jpg	MediumLong_e17_cut2_stereo_44KHz.wav
4	162	2	1	0	C	1	1	941	1	poli_8sides 7_whiteLine3.jpg	Medium_e21_stereo_44KHz.wav
4	163	3	4	2	I	2	0	1031	1	poli_8sides 13_whiteLine3.jpg	MediumLong_e17_cut2_stereo_44KHz.wav
4	164	1	2	0	C	2	0	834	0	poli_8sides 2_whiteLine3.jpg	MediumLong_b10_cut2_L_stereo_44KHz.wav
4	165	4	3	2	I	1	0	596	1	poli_8sides 6_whiteLine3.jpg	Medium_e01_cut1_stereo_44KHz.wav
4	166	1	1	1	C	1	0	748	0	poli_8sides 2_whiteLine3.jpg	Medium_e21_stereo_44KHz.wav
4	167	3	3	2	I	1	0	609	1	poli_8sides 13_whiteLine3.jpg	Medium_e01_cut1_stereo_44KHz.wav
4	168	2	2	1	C	1	0	1288	0	poli_8sides 7_whiteLine3.jpg	MediumLong_b10_cut2_L_stereo_44KHz.wav
4	169	3	3	2	I	1	0	744	1	poli_8sides 13_whiteLine3.jpg	Medium_e01_cut1_stereo_44KHz.wav
4	170	4	4	2	I	2	0	1191	0	poli_8sides 6_whiteLine3.jpg	MediumLong_e17_cut2_stereo_44KHz.wav
4	171	2	1	0	C	1	1	827	1	poli_8sides 7_whiteLine3.jpg	Medium_e21_stereo_44KHz.wav
4	172	1	1	1	C	2	1	855	1	poli_8sides 2_whiteLine3.jpg	Medium_e21_stereo_44KHz.wav
4	173	4	3	2	I	1	0	865	1	poli_8sides 6_whiteLine3.jpg	Medium_e01_cut1_stereo_44KHz.wav
4	174	2	2	1	C	2	1	985	1	poli_8sides 7_whiteLine3.jpg	MediumLong_b10_cut2_L_stereo_44KHz.wav
4	175	3	4	2	I	1	0	813	0	poli_8sides 13_whiteLine3.jpg	MediumLong_e17_cut2_stereo_44KHz.wav
4	176	1	2	0	C	2	0	1029	0	poli_8sides 2_whiteLine3.jpg	MediumLong_b10_cut2_L_stereo_44KHz.wav
4	177	3	3	2	I	1	0	750	0	poli_8sides 13_whiteLine3.jpg	Medium_e01_cut1_stereo_44KHz.wav
4	178	4	3	2	I	1	0	910	0	poli_8sides 6_whiteLine3.jpg	Medium_e01_cut1_stereo_44KHz.wav
4	179	2	1	0	C	1	1	874	1	poli_8sides 7_whiteLine3.jpg	Medium_e21_stereo_44KHz.wav
4	180	1	1	1	C	2	1	772	1	poli_8sides 2_whiteLine3.jpg	Medium_e21_stereo_44KHz.wav
4	181	2	2	1	C	2	1	894	1	poli_8sides 7_whiteLine3.jpg	MediumLong_b10_cut2_L_stereo_44KHz.wav
4	182	3	4	2	I	1	0	1203	0	poli_8sides 13_whiteLine3.jpg	MediumLong_e17_cut2_stereo_44KHz.wav
4	183	1	2	0	C	2	0	890	0	poli_8sides 2_whiteLine3.jpg	MediumLong_b10_cut2_L_stereo_44KHz.wav
4	184	4	4	2	I	1	0	789	1	poli_8sides 6_whiteLine3.jpg	MediumLong_e17_cut2_stereo_44KHz.wav
4	185	1	1	1	C	2	1	843	1	poli_8sides 2_whiteLine3.jpg	Medium_e21_stereo_44KHz.wav
4	186	2	2	1	C	2	1	1123	1	poli_8sides 7_whiteLine3.jpg	MediumLong_b10_cut2_L_stereo_44KHz.wav
4	187	4	3	2	I	1	0	817	0	poli_8sides 6_whiteLine3.jpg	Medium_e01_cut1_stereo_44KHz.wav
4	188	3	3	2	I	1	0	958	1	poli_8sides 13_whiteLine3.jpg	Medium_e01_cut1_stereo_44KHz.wav
4	189	2	1	0	C	2	0	983	0	poli_8sides 7_whiteLine3.jpg	Medium_e21_stereo_44KHz.wav
4	190	3	4	2	I	1	0	1072	0	poli_8sides 13_whiteLine3.jpg	MediumLong_e17_cut2_stereo_44KHz.wav
4	191	1	2	0	C	1	1	819	1	poli_8sides 2_whiteLine3.jpg	MediumLong_b10_cut2_L_stereo_44KHz.wav
4	192	4	4	2	I	2	0	721	1	poli_8sides 6_whiteLine3.jpg	MediumLong_e17_cut2_stereo_44KHz.wav
4	193	3	4	2	I	1	0	598	1	poli_8sides 13_whiteLine3.jpg	MediumLong_e17_cut2_stereo_44KHz.wav
4	194	2	2	1	C	2	1	858	1	poli_8sides 7_whiteLine3.jpg	MediumLong_b10_cut2_L_stereo_44KHz.wav
4	195	4	4	2	I	2	0	970	1	poli_8sides 6_whiteLine3.jpg	MediumLong_e17_cut2_stereo_44KHz.wav
4	196	1	2	0	C	1	1	813	1	poli_8sides 2_whiteLine3.jpg	MediumLong_b10_cut2_L_stereo_44KHz.wav
4	197	3	3	2	I	2	0	829	0	poli_8sides 13_whiteLine3.jpg	Medium_e01_cut1_stereo_44KHz.wav
4	198	1	1	1	C	2	1	888	1	poli_8sides 2_whiteLine3.jpg	Medium_e21_stereo_44KHz.wav
4	199	2	1	0	C	1	1	958	1	poli_8sides 7_whiteLine3.jpg	Medium_e21_stereo_44KHz.wav
4	200	4	3	2	I	1	0	734	0	poli_8sides 6_whiteLine3.jpg	Medium_e01_cut1_stereo_44KHz.wav
