block	trial	Vstim	Astim	match	C/I	resp	result	RT	fb	V-file	A-file
LR

0	1	1	1	1	C	2	1	1319	1	Ⴞ	cut_oo_stereo_44KHz.wav
0	2	1	2	0	C	1	1	1057	1	Ⴞ	cut_g_stereo_44KHz.wav
0	3	2	3	1	C	2	1	1161	1	Ⴢ	cut_ee_stereo_44KHz.wav
0	4	2	4	0	C	1	1	1136	1	Ⴢ	cut_eeuw_stereo_44KHz.wav
0	5	1	2	0	C	0	0	0	0	Ⴞ	cut_g_stereo_44KHz.wav
0	6	2	4	0	C	1	1	958	1	Ⴢ	cut_eeuw_stereo_44KHz.wav
0	7	1	1	1	C	2	1	944	1	Ⴞ	cut_oo_stereo_44KHz.wav
0	8	2	3	1	C	2	1	1707	1	Ⴢ	cut_ee_stereo_44KHz.wav
0	9	2	3	1	C	2	1	1139	1	Ⴢ	cut_ee_stereo_44KHz.wav
0	10	1	2	0	C	1	1	616	1	Ⴞ	cut_g_stereo_44KHz.wav
0	11	2	4	0	C	0	0	0	0	Ⴢ	cut_eeuw_stereo_44KHz.wav
0	12	1	1	1	C	2	1	699	1	Ⴞ	cut_oo_stereo_44KHz.wav
0	13	1	2	0	C	2	0	1155	0	Ⴞ	cut_g_stereo_44KHz.wav
0	14	1	1	1	C	2	1	1422	1	Ⴞ	cut_oo_stereo_44KHz.wav
0	15	2	3	1	C	1	0	1519	0	Ⴢ	cut_ee_stereo_44KHz.wav
0	16	2	4	0	C	0	0	0	0	Ⴢ	cut_eeuw_stereo_44KHz.wav
0	17	1	1	1	C	2	1	754	1	Ⴞ	cut_oo_stereo_44KHz.wav
0	18	2	4	0	C	1	1	774	1	Ⴢ	cut_eeuw_stereo_44KHz.wav
0	19	2	3	1	C	2	1	767	1	Ⴢ	cut_ee_stereo_44KHz.wav
0	20	1	2	0	C	1	1	1150	1	Ⴞ	cut_g_stereo_44KHz.wav
0	21	1	1	1	C	2	1	1206	1	Ⴞ	cut_oo_stereo_44KHz.wav
0	22	1	2	0	C	2	0	866	0	Ⴞ	cut_g_stereo_44KHz.wav
0	23	2	3	1	C	0	0	0	0	Ⴢ	cut_ee_stereo_44KHz.wav
0	24	2	4	0	C	1	1	637	1	Ⴢ	cut_eeuw_stereo_44KHz.wav
0	25	2	4	0	C	1	1	526	1	Ⴢ	cut_eeuw_stereo_44KHz.wav
0	26	1	2	0	C	2	0	738	0	Ⴞ	cut_g_stereo_44KHz.wav
0	27	1	1	1	C	2	1	1760	1	Ⴞ	cut_oo_stereo_44KHz.wav
0	28	2	3	1	C	2	1	1084	1	Ⴢ	cut_ee_stereo_44KHz.wav
0	29	1	1	1	C	2	1	1970	1	Ⴞ	cut_oo_stereo_44KHz.wav
0	30	2	3	1	C	2	1	948	1	Ⴢ	cut_ee_stereo_44KHz.wav
avg_resp = 1079
1	1	2	2	1	C	2	1	1653	1	Ⴖ	cut_g_stereo_44KHz.wav
1	2	1	2	0	C	2	0	937	0	Ⴉ	cut_g_stereo_44KHz.wav
1	3	4	4	2	I	1	0	1874	1	Ⴕ	cut_h_stereo_44KHz.wav
1	4	3	3	2	I	2	0	834	1	Ⴔ	cut_w_stereo_44KHz.wav
1	5	2	1	0	C	1	1	1467	1	Ⴖ	cut_l_stereo_44KHz.wav
1	6	3	4	2	I	1	0	1239	0	Ⴔ	cut_h_stereo_44KHz.wav
1	7	1	1	1	C	1	0	1521	0	Ⴉ	cut_l_stereo_44KHz.wav
1	8	4	3	2	I	1	0	1078	0	Ⴕ	cut_w_stereo_44KHz.wav
1	9	1	1	1	C	2	1	1626	1	Ⴉ	cut_l_stereo_44KHz.wav
1	10	3	4	2	I	1	0	990	0	Ⴔ	cut_h_stereo_44KHz.wav
1	11	2	1	0	C	1	1	1480	1	Ⴖ	cut_l_stereo_44KHz.wav
1	12	4	3	2	I	1	0	1064	1	Ⴕ	cut_w_stereo_44KHz.wav
1	13	3	3	2	I	0	0	0	0	Ⴔ	cut_w_stereo_44KHz.wav
1	14	1	2	0	C	1	1	1190	1	Ⴉ	cut_g_stereo_44KHz.wav
1	15	2	2	1	C	2	1	912	1	Ⴖ	cut_g_stereo_44KHz.wav
1	16	4	4	2	I	1	0	1627	0	Ⴕ	cut_h_stereo_44KHz.wav
1	17	1	2	0	C	1	1	1355	1	Ⴉ	cut_g_stereo_44KHz.wav
1	18	4	4	2	I	1	0	1139	0	Ⴕ	cut_h_stereo_44KHz.wav
1	19	3	4	2	I	1	0	826	0	Ⴔ	cut_h_stereo_44KHz.wav
1	20	2	2	1	C	2	1	1303	1	Ⴖ	cut_g_stereo_44KHz.wav
1	21	3	3	2	I	1	0	892	0	Ⴔ	cut_w_stereo_44KHz.wav
1	22	4	3	2	I	1	0	604	1	Ⴕ	cut_w_stereo_44KHz.wav
1	23	1	1	1	C	2	1	1544	1	Ⴉ	cut_l_stereo_44KHz.wav
1	24	2	1	0	C	1	1	549	1	Ⴖ	cut_l_stereo_44KHz.wav
1	25	1	2	0	C	1	1	1164	1	Ⴉ	cut_g_stereo_44KHz.wav
1	26	4	3	2	I	2	0	1486	1	Ⴕ	cut_w_stereo_44KHz.wav
1	27	2	1	0	C	1	1	1056	1	Ⴖ	cut_l_stereo_44KHz.wav
1	28	3	4	2	I	1	0	1518	1	Ⴔ	cut_h_stereo_44KHz.wav
1	29	1	1	1	C	2	1	1497	1	Ⴉ	cut_l_stereo_44KHz.wav
1	30	3	3	2	I	0	0	0	0	Ⴔ	cut_w_stereo_44KHz.wav
1	31	2	2	1	C	2	1	950	1	Ⴖ	cut_g_stereo_44KHz.wav
1	32	4	4	2	I	1	0	916	1	Ⴕ	cut_h_stereo_44KHz.wav
1	33	1	1	1	C	2	1	1013	1	Ⴉ	cut_l_stereo_44KHz.wav
1	34	2	2	1	C	2	1	1015	1	Ⴖ	cut_g_stereo_44KHz.wav
1	35	3	4	2	I	1	0	1982	0	Ⴔ	cut_h_stereo_44KHz.wav
1	36	4	4	2	I	1	0	828	1	Ⴕ	cut_h_stereo_44KHz.wav
1	37	2	1	0	C	1	1	1247	1	Ⴖ	cut_l_stereo_44KHz.wav
1	38	1	2	0	C	1	1	1087	1	Ⴉ	cut_g_stereo_44KHz.wav
1	39	4	3	2	I	0	0	0	0	Ⴕ	cut_w_stereo_44KHz.wav
1	40	3	3	2	I	1	0	717	1	Ⴔ	cut_w_stereo_44KHz.wav
1	41	1	1	1	C	2	1	933	1	Ⴉ	cut_l_stereo_44KHz.wav
1	42	4	3	2	I	1	0	1081	0	Ⴕ	cut_w_stereo_44KHz.wav
1	43	2	2	1	C	2	1	1437	1	Ⴖ	cut_g_stereo_44KHz.wav
1	44	3	4	2	I	1	0	928	1	Ⴔ	cut_h_stereo_44KHz.wav
1	45	1	2	0	C	1	1	1091	1	Ⴉ	cut_g_stereo_44KHz.wav
1	46	2	1	0	C	1	1	744	1	Ⴖ	cut_l_stereo_44KHz.wav
1	47	4	4	2	I	2	0	1187	1	Ⴕ	cut_h_stereo_44KHz.wav
1	48	3	3	2	I	0	0	0	0	Ⴔ	cut_w_stereo_44KHz.wav
1	49	4	4	2	I	2	0	1382	1	Ⴕ	cut_h_stereo_44KHz.wav
1	50	1	1	1	C	2	1	940	1	Ⴉ	cut_l_stereo_44KHz.wav
1	51	3	4	2	I	1	0	1592	1	Ⴔ	cut_h_stereo_44KHz.wav
1	52	2	1	0	C	1	1	868	1	Ⴖ	cut_l_stereo_44KHz.wav
1	53	4	3	2	I	1	0	1340	1	Ⴕ	cut_w_stereo_44KHz.wav
1	54	2	2	1	C	2	1	946	1	Ⴖ	cut_g_stereo_44KHz.wav
1	55	1	2	0	C	1	1	957	1	Ⴉ	cut_g_stereo_44KHz.wav
1	56	3	3	2	I	2	0	1636	1	Ⴔ	cut_w_stereo_44KHz.wav
1	57	4	4	2	I	2	0	1367	1	Ⴕ	cut_h_stereo_44KHz.wav
1	58	1	1	1	C	2	1	1099	1	Ⴉ	cut_l_stereo_44KHz.wav
1	59	3	4	2	I	1	0	1353	1	Ⴔ	cut_h_stereo_44KHz.wav
1	60	2	2	1	C	2	1	745	1	Ⴖ	cut_g_stereo_44KHz.wav
1	61	3	3	2	I	2	0	1189	0	Ⴔ	cut_w_stereo_44KHz.wav
1	62	1	2	0	C	1	1	1312	1	Ⴉ	cut_g_stereo_44KHz.wav
1	63	4	3	2	I	1	0	1643	1	Ⴕ	cut_w_stereo_44KHz.wav
1	64	2	1	0	C	1	1	929	1	Ⴖ	cut_l_stereo_44KHz.wav
1	65	3	4	2	I	1	0	1059	1	Ⴔ	cut_h_stereo_44KHz.wav
1	66	2	1	0	C	1	1	982	1	Ⴖ	cut_l_stereo_44KHz.wav
1	67	1	1	1	C	2	1	946	1	Ⴉ	cut_l_stereo_44KHz.wav
1	68	4	3	2	I	1	0	946	0	Ⴕ	cut_w_stereo_44KHz.wav
1	69	3	3	2	I	1	0	1002	1	Ⴔ	cut_w_stereo_44KHz.wav
1	70	1	2	0	C	1	1	945	1	Ⴉ	cut_g_stereo_44KHz.wav
1	71	4	4	2	I	1	0	1683	0	Ⴕ	cut_h_stereo_44KHz.wav
1	72	2	2	1	C	1	0	1032	0	Ⴖ	cut_g_stereo_44KHz.wav
1	73	4	3	2	I	1	0	1483	1	Ⴕ	cut_w_stereo_44KHz.wav
1	74	2	1	0	C	1	1	860	1	Ⴖ	cut_l_stereo_44KHz.wav
1	75	1	2	0	C	1	1	835	1	Ⴉ	cut_g_stereo_44KHz.wav
1	76	3	3	2	I	1	0	1632	0	Ⴔ	cut_w_stereo_44KHz.wav
1	77	1	1	1	C	2	1	985	1	Ⴉ	cut_l_stereo_44KHz.wav
1	78	4	4	2	I	2	0	1269	1	Ⴕ	cut_h_stereo_44KHz.wav
1	79	2	2	1	C	2	1	1055	1	Ⴖ	cut_g_stereo_44KHz.wav
1	80	3	4	2	I	0	0	0	0	Ⴔ	cut_h_stereo_44KHz.wav
1	81	2	1	0	C	1	1	832	1	Ⴖ	cut_l_stereo_44KHz.wav
1	82	1	2	0	C	1	1	997	1	Ⴉ	cut_g_stereo_44KHz.wav
1	83	4	3	2	I	1	0	871	1	Ⴕ	cut_w_stereo_44KHz.wav
1	84	3	4	2	I	1	0	843	0	Ⴔ	cut_h_stereo_44KHz.wav
1	85	4	4	2	I	1	0	1125	1	Ⴕ	cut_h_stereo_44KHz.wav
1	86	3	3	2	I	2	0	1117	1	Ⴔ	cut_w_stereo_44KHz.wav
1	87	2	2	1	C	2	1	1518	1	Ⴖ	cut_g_stereo_44KHz.wav
1	88	1	1	1	C	1	0	1203	0	Ⴉ	cut_l_stereo_44KHz.wav
1	89	4	4	2	I	2	0	1561	0	Ⴕ	cut_h_stereo_44KHz.wav
1	90	3	3	2	I	1	0	1230	1	Ⴔ	cut_w_stereo_44KHz.wav
1	91	1	2	0	C	1	1	1406	1	Ⴉ	cut_g_stereo_44KHz.wav
1	92	2	2	1	C	2	1	995	1	Ⴖ	cut_g_stereo_44KHz.wav
1	93	3	4	2	I	2	0	1109	1	Ⴔ	cut_h_stereo_44KHz.wav
1	94	4	3	2	I	0	0	0	0	Ⴕ	cut_w_stereo_44KHz.wav
1	95	1	1	1	C	2	1	1094	1	Ⴉ	cut_l_stereo_44KHz.wav
1	96	2	1	0	C	1	1	1720	1	Ⴖ	cut_l_stereo_44KHz.wav
1	97	1	1	1	C	2	1	1037	1	Ⴉ	cut_l_stereo_44KHz.wav
1	98	2	1	0	C	1	1	838	1	Ⴖ	cut_l_stereo_44KHz.wav
1	99	4	4	2	I	0	0	0	0	Ⴕ	cut_h_stereo_44KHz.wav
1	100	3	3	2	I	1	0	1613	1	Ⴔ	cut_w_stereo_44KHz.wav
1	101	1	2	0	C	1	1	999	1	Ⴉ	cut_g_stereo_44KHz.wav
1	102	2	2	1	C	2	1	1138	1	Ⴖ	cut_g_stereo_44KHz.wav
1	103	4	3	2	I	0	0	0	0	Ⴕ	cut_w_stereo_44KHz.wav
1	104	3	4	2	I	2	0	1032	0	Ⴔ	cut_h_stereo_44KHz.wav
1	105	2	2	1	C	2	1	1286	1	Ⴖ	cut_g_stereo_44KHz.wav
1	106	3	4	2	I	1	0	1156	0	Ⴔ	cut_h_stereo_44KHz.wav
1	107	4	3	2	I	2	0	1930	0	Ⴕ	cut_w_stereo_44KHz.wav
1	108	1	1	1	C	2	1	1033	1	Ⴉ	cut_l_stereo_44KHz.wav
1	109	4	4	2	I	2	0	1137	0	Ⴕ	cut_h_stereo_44KHz.wav
1	110	2	1	0	C	1	1	1049	1	Ⴖ	cut_l_stereo_44KHz.wav
1	111	3	3	2	I	1	0	987	1	Ⴔ	cut_w_stereo_44KHz.wav
1	112	1	2	0	C	1	1	1232	1	Ⴉ	cut_g_stereo_44KHz.wav
1	113	3	3	2	I	1	0	861	1	Ⴔ	cut_w_stereo_44KHz.wav
1	114	1	1	1	C	2	1	921	1	Ⴉ	cut_l_stereo_44KHz.wav
1	115	2	2	1	C	2	1	854	1	Ⴖ	cut_g_stereo_44KHz.wav
1	116	4	3	2	I	1	0	1807	0	Ⴕ	cut_w_stereo_44KHz.wav
1	117	2	1	0	C	1	1	994	1	Ⴖ	cut_l_stereo_44KHz.wav
1	118	1	2	0	C	1	1	1080	1	Ⴉ	cut_g_stereo_44KHz.wav
1	119	3	4	2	I	2	0	1622	0	Ⴔ	cut_h_stereo_44KHz.wav
1	120	4	4	2	I	1	0	862	1	Ⴕ	cut_h_stereo_44KHz.wav
1	121	2	2	1	C	2	1	962	1	Ⴖ	cut_g_stereo_44KHz.wav
1	122	4	3	2	I	1	0	681	0	Ⴕ	cut_w_stereo_44KHz.wav
1	123	3	4	2	I	1	0	1231	1	Ⴔ	cut_h_stereo_44KHz.wav
1	124	1	2	0	C	2	0	1330	0	Ⴉ	cut_g_stereo_44KHz.wav
1	125	2	1	0	C	1	1	684	1	Ⴖ	cut_l_stereo_44KHz.wav
1	126	3	3	2	I	1	0	1321	1	Ⴔ	cut_w_stereo_44KHz.wav
1	127	4	4	2	I	1	0	709	1	Ⴕ	cut_h_stereo_44KHz.wav
1	128	1	1	1	C	2	1	1425	1	Ⴉ	cut_l_stereo_44KHz.wav
1	129	2	2	1	C	2	1	804	1	Ⴖ	cut_g_stereo_44KHz.wav
1	130	1	2	0	C	1	1	1126	1	Ⴉ	cut_g_stereo_44KHz.wav
1	131	4	4	2	I	2	0	1842	1	Ⴕ	cut_h_stereo_44KHz.wav
1	132	3	3	2	I	1	0	563	0	Ⴔ	cut_w_stereo_44KHz.wav
1	133	4	3	2	I	1	0	1445	1	Ⴕ	cut_w_stereo_44KHz.wav
1	134	3	4	2	I	1	0	1072	1	Ⴔ	cut_h_stereo_44KHz.wav
1	135	2	1	0	C	1	1	1524	1	Ⴖ	cut_l_stereo_44KHz.wav
1	136	1	1	1	C	2	1	1028	1	Ⴉ	cut_l_stereo_44KHz.wav
1	137	3	3	2	I	1	0	1334	0	Ⴔ	cut_w_stereo_44KHz.wav
1	138	2	2	1	C	2	1	799	1	Ⴖ	cut_g_stereo_44KHz.wav
1	139	1	2	0	C	1	1	1233	1	Ⴉ	cut_g_stereo_44KHz.wav
1	140	4	4	2	I	2	0	1846	0	Ⴕ	cut_h_stereo_44KHz.wav
1	141	3	4	2	I	2	0	1454	1	Ⴔ	cut_h_stereo_44KHz.wav
1	142	1	1	1	C	2	1	1119	1	Ⴉ	cut_l_stereo_44KHz.wav
1	143	2	1	0	C	1	1	701	1	Ⴖ	cut_l_stereo_44KHz.wav
1	144	4	3	2	I	0	0	0	0	Ⴕ	cut_w_stereo_44KHz.wav
1	145	3	4	2	I	1	0	1145	0	Ⴔ	cut_h_stereo_44KHz.wav
1	146	1	2	0	C	1	1	1329	1	Ⴉ	cut_g_stereo_44KHz.wav
1	147	4	3	2	I	1	0	1027	0	Ⴕ	cut_w_stereo_44KHz.wav
1	148	2	2	1	C	2	1	985	1	Ⴖ	cut_g_stereo_44KHz.wav
1	149	1	1	1	C	2	1	1384	1	Ⴉ	cut_l_stereo_44KHz.wav
1	150	2	1	0	C	1	1	956	1	Ⴖ	cut_l_stereo_44KHz.wav
1	151	4	4	2	I	2	0	1283	0	Ⴕ	cut_h_stereo_44KHz.wav
1	152	3	3	2	I	1	0	1085	1	Ⴔ	cut_w_stereo_44KHz.wav
1	153	2	2	1	C	2	1	880	1	Ⴖ	cut_g_stereo_44KHz.wav
1	154	1	1	1	C	2	1	1401	1	Ⴉ	cut_l_stereo_44KHz.wav
1	155	3	4	2	I	0	0	0	0	Ⴔ	cut_h_stereo_44KHz.wav
1	156	4	3	2	I	2	0	1535	0	Ⴕ	cut_w_stereo_44KHz.wav
1	157	2	1	0	C	1	1	922	1	Ⴖ	cut_l_stereo_44KHz.wav
1	158	1	2	0	C	1	1	1373	1	Ⴉ	cut_g_stereo_44KHz.wav
1	159	4	4	2	I	1	0	1515	0	Ⴕ	cut_h_stereo_44KHz.wav
1	160	3	3	2	I	1	0	865	1	Ⴔ	cut_w_stereo_44KHz.wav
1	161	2	2	1	C	2	1	928	1	Ⴖ	cut_g_stereo_44KHz.wav
1	162	1	2	0	C	1	1	960	1	Ⴉ	cut_g_stereo_44KHz.wav
1	163	3	3	2	I	1	0	768	0	Ⴔ	cut_w_stereo_44KHz.wav
1	164	4	3	2	I	1	0	1330	0	Ⴕ	cut_w_stereo_44KHz.wav
1	165	3	4	2	I	1	0	954	0	Ⴔ	cut_h_stereo_44KHz.wav
1	166	2	1	0	C	1	1	1687	1	Ⴖ	cut_l_stereo_44KHz.wav
1	167	4	4	2	I	2	0	1233	1	Ⴕ	cut_h_stereo_44KHz.wav
1	168	1	1	1	C	2	1	1687	1	Ⴉ	cut_l_stereo_44KHz.wav
1	169	3	3	2	I	1	0	973	0	Ⴔ	cut_w_stereo_44KHz.wav
1	170	1	2	0	C	1	1	1249	1	Ⴉ	cut_g_stereo_44KHz.wav
1	171	4	4	2	I	2	0	1092	0	Ⴕ	cut_h_stereo_44KHz.wav
1	172	2	1	0	C	1	1	1007	1	Ⴖ	cut_l_stereo_44KHz.wav
1	173	4	3	2	I	1	0	1196	1	Ⴕ	cut_w_stereo_44KHz.wav
1	174	1	1	1	C	2	1	928	1	Ⴉ	cut_l_stereo_44KHz.wav
1	175	3	4	2	I	1	0	1480	0	Ⴔ	cut_h_stereo_44KHz.wav
1	176	2	2	1	C	2	1	1159	1	Ⴖ	cut_g_stereo_44KHz.wav
1	177	1	2	0	C	1	1	1055	1	Ⴉ	cut_g_stereo_44KHz.wav
1	178	4	4	2	I	0	0	0	0	Ⴕ	cut_h_stereo_44KHz.wav
1	179	3	3	2	I	1	0	775	1	Ⴔ	cut_w_stereo_44KHz.wav
1	180	2	1	0	C	1	1	746	1	Ⴖ	cut_l_stereo_44KHz.wav
1	181	3	4	2	I	2	0	1298	0	Ⴔ	cut_h_stereo_44KHz.wav
1	182	4	3	2	I	1	0	882	0	Ⴕ	cut_w_stereo_44KHz.wav
1	183	2	2	1	C	2	1	1063	1	Ⴖ	cut_g_stereo_44KHz.wav
1	184	1	1	1	C	2	1	1425	1	Ⴉ	cut_l_stereo_44KHz.wav
1	185	3	3	2	I	1	0	805	0	Ⴔ	cut_w_stereo_44KHz.wav
1	186	1	1	1	C	2	1	1086	1	Ⴉ	cut_l_stereo_44KHz.wav
1	187	4	4	2	I	2	0	1114	0	Ⴕ	cut_h_stereo_44KHz.wav
1	188	2	2	1	C	2	1	1119	1	Ⴖ	cut_g_stereo_44KHz.wav
1	189	3	4	2	I	2	0	1465	0	Ⴔ	cut_h_stereo_44KHz.wav
1	190	1	2	0	C	1	1	1312	1	Ⴉ	cut_g_stereo_44KHz.wav
1	191	4	3	2	I	1	0	1126	0	Ⴕ	cut_w_stereo_44KHz.wav
1	192	2	1	0	C	1	1	859	1	Ⴖ	cut_l_stereo_44KHz.wav
1	193	1	2	0	C	1	1	941	1	Ⴉ	cut_g_stereo_44KHz.wav
1	194	2	1	0	C	1	1	935	1	Ⴖ	cut_l_stereo_44KHz.wav
1	195	3	4	2	I	1	0	1431	0	Ⴔ	cut_h_stereo_44KHz.wav
1	196	4	4	2	I	2	0	668	1	Ⴕ	cut_h_stereo_44KHz.wav
1	197	2	2	1	C	2	1	1109	1	Ⴖ	cut_g_stereo_44KHz.wav
1	198	3	3	2	I	1	0	1028	1	Ⴔ	cut_w_stereo_44KHz.wav
1	199	4	3	2	I	2	0	812	1	Ⴕ	cut_w_stereo_44KHz.wav
1	200	1	1	1	C	2	1	996	1	Ⴉ	cut_l_stereo_44KHz.wav
2	1	4	3	2	I	2	0	1594	1	Ⴒ	cut_n_stereo_44KHz.wav
2	2	3	4	2	I	1	0	1201	0	Ⴏ	cut_ei_stereo_44KHz.wav
2	3	2	1	0	C	1	1	1689	1	Ⴐ	cut_s_stereo_44KHz.wav
2	4	1	1	1	C	2	1	1243	1	Ⴌ	cut_s_stereo_44KHz.wav
2	5	4	4	2	I	2	0	1072	0	Ⴒ	cut_ei_stereo_44KHz.wav
2	6	3	3	2	I	2	0	1418	1	Ⴏ	cut_n_stereo_44KHz.wav
2	7	2	2	1	C	1	0	1283	0	Ⴐ	cut_ui_stereo_44KHz.wav
2	8	1	2	0	C	2	0	1798	0	Ⴌ	cut_ui_stereo_44KHz.wav
2	9	2	1	0	C	1	1	964	1	Ⴐ	cut_s_stereo_44KHz.wav
2	10	4	4	2	I	1	0	1334	1	Ⴒ	cut_ei_stereo_44KHz.wav
2	11	3	4	2	I	2	0	758	1	Ⴏ	cut_ei_stereo_44KHz.wav
2	12	1	1	1	C	2	1	1471	1	Ⴌ	cut_s_stereo_44KHz.wav
2	13	4	3	2	I	2	0	1271	1	Ⴒ	cut_n_stereo_44KHz.wav
2	14	2	2	1	C	2	1	896	1	Ⴐ	cut_ui_stereo_44KHz.wav
2	15	1	2	0	C	2	0	852	0	Ⴌ	cut_ui_stereo_44KHz.wav
2	16	3	3	2	I	2	0	1273	0	Ⴏ	cut_n_stereo_44KHz.wav
2	17	1	1	1	C	2	1	1569	1	Ⴌ	cut_s_stereo_44KHz.wav
2	18	3	4	2	I	2	0	1151	1	Ⴏ	cut_ei_stereo_44KHz.wav
2	19	4	4	2	I	1	0	1086	1	Ⴒ	cut_ei_stereo_44KHz.wav
2	20	2	1	0	C	1	1	1382	1	Ⴐ	cut_s_stereo_44KHz.wav
2	21	1	2	0	C	1	1	1562	1	Ⴌ	cut_ui_stereo_44KHz.wav
2	22	2	2	1	C	2	1	932	1	Ⴐ	cut_ui_stereo_44KHz.wav
2	23	4	3	2	I	2	0	1181	0	Ⴒ	cut_n_stereo_44KHz.wav
2	24	3	3	2	I	1	0	1045	0	Ⴏ	cut_n_stereo_44KHz.wav
2	25	2	2	1	C	2	1	1135	1	Ⴐ	cut_ui_stereo_44KHz.wav
2	26	1	1	1	C	2	1	1114	1	Ⴌ	cut_s_stereo_44KHz.wav
2	27	3	3	2	I	1	0	1167	0	Ⴏ	cut_n_stereo_44KHz.wav
2	28	4	4	2	I	1	0	1879	1	Ⴒ	cut_ei_stereo_44KHz.wav
2	29	3	4	2	I	2	0	1141	1	Ⴏ	cut_ei_stereo_44KHz.wav
2	30	1	2	0	C	1	1	1429	1	Ⴌ	cut_ui_stereo_44KHz.wav
2	31	4	3	2	I	2	0	1275	0	Ⴒ	cut_n_stereo_44KHz.wav
2	32	2	1	0	C	1	1	860	1	Ⴐ	cut_s_stereo_44KHz.wav
2	33	3	3	2	I	1	0	1205	1	Ⴏ	cut_n_stereo_44KHz.wav
2	34	4	3	2	I	1	0	1101	1	Ⴒ	cut_n_stereo_44KHz.wav
2	35	1	2	0	C	1	1	1339	1	Ⴌ	cut_ui_stereo_44KHz.wav
2	36	2	1	0	C	1	1	956	1	Ⴐ	cut_s_stereo_44KHz.wav
2	37	4	4	2	I	2	0	1661	0	Ⴒ	cut_ei_stereo_44KHz.wav
2	38	3	4	2	I	2	0	1232	1	Ⴏ	cut_ei_stereo_44KHz.wav
2	39	2	2	1	C	2	1	1021	1	Ⴐ	cut_ui_stereo_44KHz.wav
2	40	1	1	1	C	2	1	964	1	Ⴌ	cut_s_stereo_44KHz.wav
2	41	4	3	2	I	1	0	1235	0	Ⴒ	cut_n_stereo_44KHz.wav
2	42	1	1	1	C	2	1	1133	1	Ⴌ	cut_s_stereo_44KHz.wav
2	43	3	3	2	I	1	0	1246	1	Ⴏ	cut_n_stereo_44KHz.wav
2	44	2	2	1	C	2	1	974	1	Ⴐ	cut_ui_stereo_44KHz.wav
2	45	4	4	2	I	2	0	1961	0	Ⴒ	cut_ei_stereo_44KHz.wav
2	46	3	4	2	I	1	0	1253	1	Ⴏ	cut_ei_stereo_44KHz.wav
2	47	1	2	0	C	2	0	953	0	Ⴌ	cut_ui_stereo_44KHz.wav
2	48	2	1	0	C	1	1	1023	1	Ⴐ	cut_s_stereo_44KHz.wav
2	49	4	4	2	I	1	0	1516	0	Ⴒ	cut_ei_stereo_44KHz.wav
2	50	1	1	1	C	2	1	1485	1	Ⴌ	cut_s_stereo_44KHz.wav
2	51	3	4	2	I	2	0	1219	0	Ⴏ	cut_ei_stereo_44KHz.wav
2	52	2	1	0	C	1	1	857	1	Ⴐ	cut_s_stereo_44KHz.wav
2	53	1	2	0	C	1	1	1260	1	Ⴌ	cut_ui_stereo_44KHz.wav
2	54	4	3	2	I	2	0	1791	1	Ⴒ	cut_n_stereo_44KHz.wav
2	55	3	3	2	I	1	0	853	1	Ⴏ	cut_n_stereo_44KHz.wav
2	56	2	2	1	C	2	1	1229	1	Ⴐ	cut_ui_stereo_44KHz.wav
2	57	3	3	2	I	1	0	1071	1	Ⴏ	cut_n_stereo_44KHz.wav
2	58	2	1	0	C	1	1	960	1	Ⴐ	cut_s_stereo_44KHz.wav
2	59	4	3	2	I	1	0	1005	0	Ⴒ	cut_n_stereo_44KHz.wav
2	60	1	1	1	C	2	1	1282	1	Ⴌ	cut_s_stereo_44KHz.wav
2	61	2	2	1	C	2	1	833	1	Ⴐ	cut_ui_stereo_44KHz.wav
2	62	4	4	2	I	1	0	1602	0	Ⴒ	cut_ei_stereo_44KHz.wav
2	63	1	2	0	C	1	1	1237	1	Ⴌ	cut_ui_stereo_44KHz.wav
2	64	3	4	2	I	2	0	1017	0	Ⴏ	cut_ei_stereo_44KHz.wav
2	65	1	1	1	C	2	1	1084	1	Ⴌ	cut_s_stereo_44KHz.wav
2	66	3	3	2	I	1	0	1173	1	Ⴏ	cut_n_stereo_44KHz.wav
2	67	4	4	2	I	1	0	1033	1	Ⴒ	cut_ei_stereo_44KHz.wav
2	68	2	2	1	C	2	1	819	1	Ⴐ	cut_ui_stereo_44KHz.wav
2	69	3	4	2	I	1	0	1245	1	Ⴏ	cut_ei_stereo_44KHz.wav
2	70	1	2	0	C	1	1	1346	1	Ⴌ	cut_ui_stereo_44KHz.wav
2	71	2	1	0	C	1	1	1068	1	Ⴐ	cut_s_stereo_44KHz.wav
2	72	4	3	2	I	1	0	1204	0	Ⴒ	cut_n_stereo_44KHz.wav
2	73	1	1	1	C	2	1	981	1	Ⴌ	cut_s_stereo_44KHz.wav
2	74	4	4	2	I	2	0	1548	0	Ⴒ	cut_ei_stereo_44KHz.wav
2	75	3	3	2	I	1	0	1656	1	Ⴏ	cut_n_stereo_44KHz.wav
2	76	2	1	0	C	1	1	813	1	Ⴐ	cut_s_stereo_44KHz.wav
2	77	4	3	2	I	1	0	919	0	Ⴒ	cut_n_stereo_44KHz.wav
2	78	3	4	2	I	1	0	950	0	Ⴏ	cut_ei_stereo_44KHz.wav
2	79	1	2	0	C	1	1	1507	1	Ⴌ	cut_ui_stereo_44KHz.wav
2	80	2	2	1	C	2	1	790	1	Ⴐ	cut_ui_stereo_44KHz.wav
2	81	3	3	2	I	1	0	1570	1	Ⴏ	cut_n_stereo_44KHz.wav
2	82	1	2	0	C	1	1	1045	1	Ⴌ	cut_ui_stereo_44KHz.wav
2	83	2	1	0	C	1	1	896	1	Ⴐ	cut_s_stereo_44KHz.wav
2	84	4	4	2	I	1	0	638	0	Ⴒ	cut_ei_stereo_44KHz.wav
2	85	2	2	1	C	2	1	1537	1	Ⴐ	cut_ui_stereo_44KHz.wav
2	86	3	4	2	I	2	0	1052	0	Ⴏ	cut_ei_stereo_44KHz.wav
2	87	4	3	2	I	2	0	1242	1	Ⴒ	cut_n_stereo_44KHz.wav
2	88	1	1	1	C	2	1	1078	1	Ⴌ	cut_s_stereo_44KHz.wav
2	89	4	4	2	I	2	0	1536	1	Ⴒ	cut_ei_stereo_44KHz.wav
2	90	1	1	1	C	2	1	912	1	Ⴌ	cut_s_stereo_44KHz.wav
2	91	3	3	2	I	1	0	1161	0	Ⴏ	cut_n_stereo_44KHz.wav
2	92	2	2	1	C	2	1	862	1	Ⴐ	cut_ui_stereo_44KHz.wav
2	93	3	4	2	I	1	0	1596	1	Ⴏ	cut_ei_stereo_44KHz.wav
2	94	1	2	0	C	1	1	1581	1	Ⴌ	cut_ui_stereo_44KHz.wav
2	95	2	1	0	C	1	1	807	1	Ⴐ	cut_s_stereo_44KHz.wav
2	96	4	3	2	I	1	0	1940	0	Ⴒ	cut_n_stereo_44KHz.wav
2	97	1	2	0	C	1	1	1160	1	Ⴌ	cut_ui_stereo_44KHz.wav
2	98	2	1	0	C	1	1	782	1	Ⴐ	cut_s_stereo_44KHz.wav
2	99	4	3	2	I	2	0	1319	0	Ⴒ	cut_n_stereo_44KHz.wav
2	100	3	4	2	I	1	0	1155	0	Ⴏ	cut_ei_stereo_44KHz.wav
2	101	1	1	1	C	2	1	1820	1	Ⴌ	cut_s_stereo_44KHz.wav
2	102	2	2	1	C	2	1	884	1	Ⴐ	cut_ui_stereo_44KHz.wav
2	103	4	4	2	I	1	0	1180	1	Ⴒ	cut_ei_stereo_44KHz.wav
2	104	3	3	2	I	2	0	1711	0	Ⴏ	cut_n_stereo_44KHz.wav
2	105	1	2	0	C	1	1	1165	1	Ⴌ	cut_ui_stereo_44KHz.wav
2	106	4	4	2	I	1	0	1421	1	Ⴒ	cut_ei_stereo_44KHz.wav
2	107	2	2	1	C	2	1	952	1	Ⴐ	cut_ui_stereo_44KHz.wav
2	108	3	4	2	I	1	0	1311	1	Ⴏ	cut_ei_stereo_44KHz.wav
2	109	2	1	0	C	1	1	914	1	Ⴐ	cut_s_stereo_44KHz.wav
2	110	4	3	2	I	0	0	0	0	Ⴒ	cut_n_stereo_44KHz.wav
2	111	3	3	2	I	1	0	1296	1	Ⴏ	cut_n_stereo_44KHz.wav
2	112	1	1	1	C	2	1	1201	1	Ⴌ	cut_s_stereo_44KHz.wav
2	113	4	3	2	I	2	0	1175	0	Ⴒ	cut_n_stereo_44KHz.wav
2	114	1	1	1	C	2	1	1076	1	Ⴌ	cut_s_stereo_44KHz.wav
2	115	2	2	1	C	2	1	898	1	Ⴐ	cut_ui_stereo_44KHz.wav
2	116	3	4	2	I	1	0	1040	0	Ⴏ	cut_ei_stereo_44KHz.wav
2	117	4	4	2	I	1	0	887	1	Ⴒ	cut_ei_stereo_44KHz.wav
2	118	3	3	2	I	1	0	1108	1	Ⴏ	cut_n_stereo_44KHz.wav
2	119	1	2	0	C	1	1	1413	1	Ⴌ	cut_ui_stereo_44KHz.wav
2	120	2	1	0	C	1	1	772	1	Ⴐ	cut_s_stereo_44KHz.wav
2	121	3	4	2	I	1	0	1569	1	Ⴏ	cut_ei_stereo_44KHz.wav
2	122	2	2	1	C	2	1	934	1	Ⴐ	cut_ui_stereo_44KHz.wav
2	123	4	4	2	I	2	0	979	0	Ⴒ	cut_ei_stereo_44KHz.wav
2	124	1	1	1	C	2	1	971	1	Ⴌ	cut_s_stereo_44KHz.wav
2	125	2	1	0	C	1	1	874	1	Ⴐ	cut_s_stereo_44KHz.wav
2	126	1	2	0	C	1	1	1503	1	Ⴌ	cut_ui_stereo_44KHz.wav
2	127	4	3	2	I	2	0	1277	1	Ⴒ	cut_n_stereo_44KHz.wav
2	128	3	3	2	I	2	0	1311	0	Ⴏ	cut_n_stereo_44KHz.wav
2	129	2	2	1	C	2	1	994	1	Ⴐ	cut_ui_stereo_44KHz.wav
2	130	1	1	1	C	2	1	1331	1	Ⴌ	cut_s_stereo_44KHz.wav
2	131	3	4	2	I	1	0	989	1	Ⴏ	cut_ei_stereo_44KHz.wav
2	132	4	3	2	I	2	0	1038	1	Ⴒ	cut_n_stereo_44KHz.wav
2	133	3	3	2	I	1	0	1243	1	Ⴏ	cut_n_stereo_44KHz.wav
2	134	1	2	0	C	1	1	1227	1	Ⴌ	cut_ui_stereo_44KHz.wav
2	135	4	4	2	I	1	0	1201	1	Ⴒ	cut_ei_stereo_44KHz.wav
2	136	2	1	0	C	1	1	843	1	Ⴐ	cut_s_stereo_44KHz.wav
2	137	4	4	2	I	1	0	924	0	Ⴒ	cut_ei_stereo_44KHz.wav
2	138	1	2	0	C	1	1	1425	1	Ⴌ	cut_ui_stereo_44KHz.wav
2	139	3	3	2	I	1	0	1162	0	Ⴏ	cut_n_stereo_44KHz.wav
2	140	2	1	0	C	1	1	1085	1	Ⴐ	cut_s_stereo_44KHz.wav
2	141	1	1	1	C	2	1	1248	1	Ⴌ	cut_s_stereo_44KHz.wav
2	142	4	3	2	I	2	0	1242	1	Ⴒ	cut_n_stereo_44KHz.wav
2	143	3	4	2	I	1	0	1031	0	Ⴏ	cut_ei_stereo_44KHz.wav
2	144	2	2	1	C	2	1	1097	1	Ⴐ	cut_ui_stereo_44KHz.wav
2	145	4	4	2	I	1	0	1238	0	Ⴒ	cut_ei_stereo_44KHz.wav
2	146	1	1	1	C	0	0	0	0	Ⴌ	cut_s_stereo_44KHz.wav
2	147	2	2	1	C	2	1	1285	1	Ⴐ	cut_ui_stereo_44KHz.wav
2	148	3	3	2	I	0	0	0	0	Ⴏ	cut_n_stereo_44KHz.wav
2	149	2	1	0	C	1	1	1116	1	Ⴐ	cut_s_stereo_44KHz.wav
2	150	1	2	0	C	1	1	898	1	Ⴌ	cut_ui_stereo_44KHz.wav
2	151	4	3	2	I	2	0	1160	0	Ⴒ	cut_n_stereo_44KHz.wav
2	152	3	4	2	I	1	0	1125	0	Ⴏ	cut_ei_stereo_44KHz.wav
2	153	1	1	1	C	2	1	1129	1	Ⴌ	cut_s_stereo_44KHz.wav
2	154	4	3	2	I	2	0	1057	1	Ⴒ	cut_n_stereo_44KHz.wav
2	155	3	4	2	I	1	0	844	0	Ⴏ	cut_ei_stereo_44KHz.wav
2	156	2	2	1	C	2	1	789	1	Ⴐ	cut_ui_stereo_44KHz.wav
2	157	3	3	2	I	1	0	1124	0	Ⴏ	cut_n_stereo_44KHz.wav
2	158	4	4	2	I	1	0	1475	0	Ⴒ	cut_ei_stereo_44KHz.wav
2	159	2	1	0	C	1	1	894	1	Ⴐ	cut_s_stereo_44KHz.wav
2	160	1	2	0	C	1	1	740	1	Ⴌ	cut_ui_stereo_44KHz.wav
2	161	4	4	2	I	1	0	1009	1	Ⴒ	cut_ei_stereo_44KHz.wav
2	162	3	4	2	I	1	0	940	0	Ⴏ	cut_ei_stereo_44KHz.wav
2	163	1	2	0	C	1	1	1031	1	Ⴌ	cut_ui_stereo_44KHz.wav
2	164	2	1	0	C	1	1	850	1	Ⴐ	cut_s_stereo_44KHz.wav
2	165	4	3	2	I	2	0	1130	0	Ⴒ	cut_n_stereo_44KHz.wav
2	166	2	2	1	C	2	1	1130	1	Ⴐ	cut_ui_stereo_44KHz.wav
2	167	3	3	2	I	1	0	1462	1	Ⴏ	cut_n_stereo_44KHz.wav
2	168	1	1	1	C	2	1	1119	1	Ⴌ	cut_s_stereo_44KHz.wav
2	169	3	3	2	I	1	0	1857	1	Ⴏ	cut_n_stereo_44KHz.wav
2	170	1	1	1	C	2	1	955	1	Ⴌ	cut_s_stereo_44KHz.wav
2	171	2	1	0	C	1	1	1025	1	Ⴐ	cut_s_stereo_44KHz.wav
2	172	4	4	2	I	1	0	1012	0	Ⴒ	cut_ei_stereo_44KHz.wav
2	173	2	2	1	C	2	1	815	1	Ⴐ	cut_ui_stereo_44KHz.wav
2	174	3	4	2	I	2	0	1394	0	Ⴏ	cut_ei_stereo_44KHz.wav
2	175	4	3	2	I	1	0	1116	1	Ⴒ	cut_n_stereo_44KHz.wav
2	176	1	2	0	C	1	1	1115	1	Ⴌ	cut_ui_stereo_44KHz.wav
2	177	3	4	2	I	1	0	1117	0	Ⴏ	cut_ei_stereo_44KHz.wav
2	178	4	3	2	I	2	0	815	0	Ⴒ	cut_n_stereo_44KHz.wav
2	179	1	1	1	C	2	1	1437	1	Ⴌ	cut_s_stereo_44KHz.wav
2	180	2	2	1	C	1	0	571	0	Ⴐ	cut_ui_stereo_44KHz.wav
2	181	1	2	0	C	1	1	1331	1	Ⴌ	cut_ui_stereo_44KHz.wav
2	182	2	1	0	C	1	1	882	1	Ⴐ	cut_s_stereo_44KHz.wav
2	183	4	4	2	I	2	0	1022	0	Ⴒ	cut_ei_stereo_44KHz.wav
2	184	3	3	2	I	1	0	1343	0	Ⴏ	cut_n_stereo_44KHz.wav
2	185	4	3	2	I	1	0	1102	1	Ⴒ	cut_n_stereo_44KHz.wav
2	186	2	1	0	C	1	1	1103	1	Ⴐ	cut_s_stereo_44KHz.wav
2	187	3	3	2	I	2	0	1203	0	Ⴏ	cut_n_stereo_44KHz.wav
2	188	1	2	0	C	1	1	1288	1	Ⴌ	cut_ui_stereo_44KHz.wav
2	189	3	4	2	I	2	0	1307	1	Ⴏ	cut_ei_stereo_44KHz.wav
2	190	2	2	1	C	2	1	1101	1	Ⴐ	cut_ui_stereo_44KHz.wav
2	191	4	4	2	I	2	0	1373	1	Ⴒ	cut_ei_stereo_44KHz.wav
2	192	1	1	1	C	2	1	946	1	Ⴌ	cut_s_stereo_44KHz.wav
2	193	2	1	0	C	1	1	878	1	Ⴐ	cut_s_stereo_44KHz.wav
2	194	1	2	0	C	1	1	1266	1	Ⴌ	cut_ui_stereo_44KHz.wav
2	195	4	3	2	I	1	0	1900	1	Ⴒ	cut_n_stereo_44KHz.wav
2	196	3	4	2	I	2	0	1233	0	Ⴏ	cut_ei_stereo_44KHz.wav
2	197	2	2	1	C	2	1	922	1	Ⴐ	cut_ui_stereo_44KHz.wav
2	198	4	4	2	I	2	0	1580	1	Ⴒ	cut_ei_stereo_44KHz.wav
2	199	3	3	2	I	0	0	0	0	Ⴏ	cut_n_stereo_44KHz.wav
2	200	1	1	1	C	2	1	1048	1	Ⴌ	cut_s_stereo_44KHz.wav
3	1	1	2	0	C	0	0	0	0	Ⴁ	cut_r_stereo_44KHz.wav
3	2	4	4	2	I	2	0	1150	1	Ⴟ	cut_j_stereo_44KHz.wav
3	3	2	2	1	C	1	0	871	0	Ⴊ	cut_r_stereo_44KHz.wav
3	4	3	4	2	I	1	0	740	1	Ⴂ	cut_j_stereo_44KHz.wav
3	5	4	3	2	I	1	0	1018	1	Ⴟ	cut_f_stereo_44KHz.wav
3	6	1	1	1	C	1	0	806	0	Ⴁ	cut_oei_stereo_44KHz.wav
3	7	3	3	2	I	1	0	1015	0	Ⴂ	cut_f_stereo_44KHz.wav
3	8	2	1	0	C	2	0	969	0	Ⴊ	cut_oei_stereo_44KHz.wav
3	9	4	3	2	I	1	0	1201	1	Ⴟ	cut_f_stereo_44KHz.wav
3	10	1	2	0	C	1	1	1308	1	Ⴁ	cut_r_stereo_44KHz.wav
3	11	2	1	0	C	2	0	1373	0	Ⴊ	cut_oei_stereo_44KHz.wav
3	12	3	3	2	I	2	0	1981	0	Ⴂ	cut_f_stereo_44KHz.wav
3	13	2	2	1	C	2	1	1690	1	Ⴊ	cut_r_stereo_44KHz.wav
3	14	1	1	1	C	2	1	1012	1	Ⴁ	cut_oei_stereo_44KHz.wav
3	15	3	4	2	I	1	0	1147	1	Ⴂ	cut_j_stereo_44KHz.wav
3	16	4	4	2	I	2	0	897	1	Ⴟ	cut_j_stereo_44KHz.wav
3	17	3	3	2	I	1	0	1145	1	Ⴂ	cut_f_stereo_44KHz.wav
3	18	4	3	2	I	1	0	759	0	Ⴟ	cut_f_stereo_44KHz.wav
3	19	2	2	1	C	2	1	1243	1	Ⴊ	cut_r_stereo_44KHz.wav
3	20	1	2	0	C	1	1	1120	1	Ⴁ	cut_r_stereo_44KHz.wav
3	21	3	4	2	I	1	0	956	0	Ⴂ	cut_j_stereo_44KHz.wav
3	22	4	4	2	I	1	0	845	0	Ⴟ	cut_j_stereo_44KHz.wav
3	23	2	1	0	C	1	1	949	1	Ⴊ	cut_oei_stereo_44KHz.wav
3	24	1	1	1	C	2	1	1072	1	Ⴁ	cut_oei_stereo_44KHz.wav
3	25	4	3	2	I	1	0	1098	1	Ⴟ	cut_f_stereo_44KHz.wav
3	26	1	1	1	C	2	1	1049	1	Ⴁ	cut_oei_stereo_44KHz.wav
3	27	2	1	0	C	1	1	905	1	Ⴊ	cut_oei_stereo_44KHz.wav
3	28	3	4	2	I	1	0	934	1	Ⴂ	cut_j_stereo_44KHz.wav
3	29	2	2	1	C	1	0	1533	0	Ⴊ	cut_r_stereo_44KHz.wav
3	30	1	2	0	C	1	1	1249	1	Ⴁ	cut_r_stereo_44KHz.wav
3	31	3	3	2	I	1	0	1281	0	Ⴂ	cut_f_stereo_44KHz.wav
3	32	4	4	2	I	2	0	1297	0	Ⴟ	cut_j_stereo_44KHz.wav
3	33	3	4	2	I	1	0	1380	0	Ⴂ	cut_j_stereo_44KHz.wav
3	34	4	3	2	I	1	0	758	1	Ⴟ	cut_f_stereo_44KHz.wav
3	35	1	2	0	C	1	1	975	1	Ⴁ	cut_r_stereo_44KHz.wav
3	36	2	1	0	C	1	1	745	1	Ⴊ	cut_oei_stereo_44KHz.wav
3	37	3	3	2	I	2	0	1543	0	Ⴂ	cut_f_stereo_44KHz.wav
3	38	1	1	1	C	2	1	1701	1	Ⴁ	cut_oei_stereo_44KHz.wav
3	39	2	2	1	C	2	1	1193	1	Ⴊ	cut_r_stereo_44KHz.wav
3	40	4	4	2	I	2	0	941	1	Ⴟ	cut_j_stereo_44KHz.wav
3	41	2	1	0	C	1	1	921	1	Ⴊ	cut_oei_stereo_44KHz.wav
3	42	1	2	0	C	1	1	1029	1	Ⴁ	cut_r_stereo_44KHz.wav
3	43	3	3	2	I	0	0	0	0	Ⴂ	cut_f_stereo_44KHz.wav
3	44	4	3	2	I	1	0	942	0	Ⴟ	cut_f_stereo_44KHz.wav
3	45	2	2	1	C	2	1	1414	1	Ⴊ	cut_r_stereo_44KHz.wav
3	46	4	4	2	I	1	0	853	0	Ⴟ	cut_j_stereo_44KHz.wav
3	47	1	1	1	C	2	1	1091	1	Ⴁ	cut_oei_stereo_44KHz.wav
3	48	3	4	2	I	1	0	1019	1	Ⴂ	cut_j_stereo_44KHz.wav
3	49	1	2	0	C	1	1	1177	1	Ⴁ	cut_r_stereo_44KHz.wav
3	50	4	3	2	I	1	0	1030	1	Ⴟ	cut_f_stereo_44KHz.wav
3	51	2	2	1	C	2	1	1127	1	Ⴊ	cut_r_stereo_44KHz.wav
3	52	3	3	2	I	1	0	1531	0	Ⴂ	cut_f_stereo_44KHz.wav
3	53	1	1	1	C	2	1	1922	1	Ⴁ	cut_oei_stereo_44KHz.wav
3	54	3	4	2	I	2	0	762	0	Ⴂ	cut_j_stereo_44KHz.wav
3	55	4	4	2	I	2	0	930	1	Ⴟ	cut_j_stereo_44KHz.wav
3	56	2	1	0	C	1	1	997	1	Ⴊ	cut_oei_stereo_44KHz.wav
3	57	4	4	2	I	2	0	898	1	Ⴟ	cut_j_stereo_44KHz.wav
3	58	2	2	1	C	2	1	1086	1	Ⴊ	cut_r_stereo_44KHz.wav
3	59	3	4	2	I	1	0	767	1	Ⴂ	cut_j_stereo_44KHz.wav
3	60	1	2	0	C	1	1	1016	1	Ⴁ	cut_r_stereo_44KHz.wav
3	61	2	1	0	C	1	1	849	1	Ⴊ	cut_oei_stereo_44KHz.wav
3	62	4	3	2	I	1	0	1010	1	Ⴟ	cut_f_stereo_44KHz.wav
3	63	1	1	1	C	2	1	965	1	Ⴁ	cut_oei_stereo_44KHz.wav
3	64	3	3	2	I	1	0	1541	1	Ⴂ	cut_f_stereo_44KHz.wav
3	65	2	2	1	C	2	1	1714	1	Ⴊ	cut_r_stereo_44KHz.wav
3	66	4	3	2	I	1	0	1243	0	Ⴟ	cut_f_stereo_44KHz.wav
3	67	1	2	0	C	1	1	965	1	Ⴁ	cut_r_stereo_44KHz.wav
3	68	3	4	2	I	1	0	936	0	Ⴂ	cut_j_stereo_44KHz.wav
3	69	2	1	0	C	1	1	1235	1	Ⴊ	cut_oei_stereo_44KHz.wav
3	70	4	4	2	I	2	0	1243	0	Ⴟ	cut_j_stereo_44KHz.wav
3	71	3	3	2	I	1	0	1331	0	Ⴂ	cut_f_stereo_44KHz.wav
3	72	1	1	1	C	2	1	1004	1	Ⴁ	cut_oei_stereo_44KHz.wav
3	73	2	2	1	C	2	1	1700	1	Ⴊ	cut_r_stereo_44KHz.wav
3	74	3	3	2	I	1	0	1497	0	Ⴂ	cut_f_stereo_44KHz.wav
3	75	1	2	0	C	1	1	928	1	Ⴁ	cut_r_stereo_44KHz.wav
3	76	4	4	2	I	1	0	879	1	Ⴟ	cut_j_stereo_44KHz.wav
3	77	1	1	1	C	2	1	1616	1	Ⴁ	cut_oei_stereo_44KHz.wav
3	78	4	3	2	I	1	0	1141	1	Ⴟ	cut_f_stereo_44KHz.wav
3	79	2	1	0	C	1	1	1738	1	Ⴊ	cut_oei_stereo_44KHz.wav
3	80	3	4	2	I	1	0	1423	1	Ⴂ	cut_j_stereo_44KHz.wav
3	81	4	3	2	I	1	0	980	0	Ⴟ	cut_f_stereo_44KHz.wav
3	82	2	1	0	C	1	1	1813	1	Ⴊ	cut_oei_stereo_44KHz.wav
3	83	3	3	2	I	2	0	1305	0	Ⴂ	cut_f_stereo_44KHz.wav
3	84	1	1	1	C	2	1	1072	1	Ⴁ	cut_oei_stereo_44KHz.wav
3	85	3	4	2	I	1	0	766	1	Ⴂ	cut_j_stereo_44KHz.wav
3	86	4	4	2	I	1	0	1069	1	Ⴟ	cut_j_stereo_44KHz.wav
3	87	2	2	1	C	2	1	1083	1	Ⴊ	cut_r_stereo_44KHz.wav
3	88	1	2	0	C	1	1	982	1	Ⴁ	cut_r_stereo_44KHz.wav
3	89	3	4	2	I	1	0	1371	1	Ⴂ	cut_j_stereo_44KHz.wav
3	90	2	2	1	C	2	1	1414	1	Ⴊ	cut_r_stereo_44KHz.wav
3	91	4	4	2	I	2	0	1235	1	Ⴟ	cut_j_stereo_44KHz.wav
3	92	1	1	1	C	2	1	1068	1	Ⴁ	cut_oei_stereo_44KHz.wav
3	93	4	3	2	I	2	0	1281	0	Ⴟ	cut_f_stereo_44KHz.wav
3	94	2	1	0	C	1	1	1369	1	Ⴊ	cut_oei_stereo_44KHz.wav
3	95	3	3	2	I	2	0	1210	1	Ⴂ	cut_f_stereo_44KHz.wav
3	96	1	2	0	C	1	1	755	1	Ⴁ	cut_r_stereo_44KHz.wav
3	97	2	1	0	C	1	1	1186	1	Ⴊ	cut_oei_stereo_44KHz.wav
3	98	4	4	2	I	2	0	1156	0	Ⴟ	cut_j_stereo_44KHz.wav
3	99	3	4	2	I	1	0	1083	1	Ⴂ	cut_j_stereo_44KHz.wav
3	100	1	1	1	C	2	1	1979	1	Ⴁ	cut_oei_stereo_44KHz.wav
3	101	2	2	1	C	2	1	976	1	Ⴊ	cut_r_stereo_44KHz.wav
3	102	1	2	0	C	1	1	1120	1	Ⴁ	cut_r_stereo_44KHz.wav
3	103	4	3	2	I	2	0	1904	0	Ⴟ	cut_f_stereo_44KHz.wav
3	104	3	3	2	I	2	0	1342	0	Ⴂ	cut_f_stereo_44KHz.wav
3	105	4	4	2	I	1	0	968	0	Ⴟ	cut_j_stereo_44KHz.wav
3	106	1	2	0	C	1	1	1235	1	Ⴁ	cut_r_stereo_44KHz.wav
3	107	2	1	0	C	1	1	1041	1	Ⴊ	cut_oei_stereo_44KHz.wav
3	108	3	4	2	I	1	0	1543	1	Ⴂ	cut_j_stereo_44KHz.wav
3	109	4	3	2	I	2	0	1309	0	Ⴟ	cut_f_stereo_44KHz.wav
3	110	3	3	2	I	2	0	1111	0	Ⴂ	cut_f_stereo_44KHz.wav
3	111	1	1	1	C	2	1	1199	1	Ⴁ	cut_oei_stereo_44KHz.wav
3	112	2	2	1	C	2	1	1321	1	Ⴊ	cut_r_stereo_44KHz.wav
3	113	4	4	2	I	1	0	1734	0	Ⴟ	cut_j_stereo_44KHz.wav
3	114	1	2	0	C	1	1	856	1	Ⴁ	cut_r_stereo_44KHz.wav
3	115	2	1	0	C	1	1	880	1	Ⴊ	cut_oei_stereo_44KHz.wav
3	116	3	3	2	I	0	0	0	0	Ⴂ	cut_f_stereo_44KHz.wav
3	117	2	2	1	C	0	0	0	0	Ⴊ	cut_r_stereo_44KHz.wav
3	118	1	1	1	C	2	1	1088	1	Ⴁ	cut_oei_stereo_44KHz.wav
3	119	3	4	2	I	2	0	950	0	Ⴂ	cut_j_stereo_44KHz.wav
3	120	4	3	2	I	1	0	1003	1	Ⴟ	cut_f_stereo_44KHz.wav
3	121	1	2	0	C	1	1	1025	1	Ⴁ	cut_r_stereo_44KHz.wav
3	122	3	3	2	I	1	0	1305	0	Ⴂ	cut_f_stereo_44KHz.wav
3	123	2	1	0	C	1	1	1478	1	Ⴊ	cut_oei_stereo_44KHz.wav
3	124	4	4	2	I	2	0	1184	0	Ⴟ	cut_j_stereo_44KHz.wav
3	125	2	2	1	C	2	1	1184	1	Ⴊ	cut_r_stereo_44KHz.wav
3	126	4	3	2	I	1	0	822	1	Ⴟ	cut_f_stereo_44KHz.wav
3	127	3	4	2	I	1	0	984	1	Ⴂ	cut_j_stereo_44KHz.wav
3	128	1	1	1	C	2	1	1168	1	Ⴁ	cut_oei_stereo_44KHz.wav
3	129	2	1	0	C	1	1	1500	1	Ⴊ	cut_oei_stereo_44KHz.wav
3	130	1	2	0	C	1	1	969	1	Ⴁ	cut_r_stereo_44KHz.wav
3	131	4	4	2	I	1	0	1872	1	Ⴟ	cut_j_stereo_44KHz.wav
3	132	3	4	2	I	1	0	811	1	Ⴂ	cut_j_stereo_44KHz.wav
3	133	4	3	2	I	2	0	1048	1	Ⴟ	cut_f_stereo_44KHz.wav
3	134	3	3	2	I	2	0	1132	1	Ⴂ	cut_f_stereo_44KHz.wav
3	135	2	2	1	C	2	1	1134	1	Ⴊ	cut_r_stereo_44KHz.wav
3	136	1	1	1	C	2	1	1175	1	Ⴁ	cut_oei_stereo_44KHz.wav
3	137	4	4	2	I	2	0	1023	0	Ⴟ	cut_j_stereo_44KHz.wav
3	138	1	2	0	C	1	1	1237	1	Ⴁ	cut_r_stereo_44KHz.wav
3	139	3	3	2	I	2	0	1291	1	Ⴂ	cut_f_stereo_44KHz.wav
3	140	2	1	0	C	1	1	612	1	Ⴊ	cut_oei_stereo_44KHz.wav
3	141	3	4	2	I	1	0	1600	0	Ⴂ	cut_j_stereo_44KHz.wav
3	142	2	2	1	C	2	1	1033	1	Ⴊ	cut_r_stereo_44KHz.wav
3	143	4	3	2	I	1	0	1705	0	Ⴟ	cut_f_stereo_44KHz.wav
3	144	1	1	1	C	2	1	1032	1	Ⴁ	cut_oei_stereo_44KHz.wav
3	145	2	1	0	C	1	1	829	1	Ⴊ	cut_oei_stereo_44KHz.wav
3	146	1	1	1	C	2	1	1074	1	Ⴁ	cut_oei_stereo_44KHz.wav
3	147	3	3	2	I	0	0	0	0	Ⴂ	cut_f_stereo_44KHz.wav
3	148	4	4	2	I	1	0	1008	0	Ⴟ	cut_j_stereo_44KHz.wav
3	149	1	2	0	C	1	1	960	1	Ⴁ	cut_r_stereo_44KHz.wav
3	150	2	2	1	C	2	1	1226	1	Ⴊ	cut_r_stereo_44KHz.wav
3	151	4	3	2	I	1	0	1188	1	Ⴟ	cut_f_stereo_44KHz.wav
3	152	3	4	2	I	1	0	1457	1	Ⴂ	cut_j_stereo_44KHz.wav
3	153	4	4	2	I	2	0	999	0	Ⴟ	cut_j_stereo_44KHz.wav
3	154	3	4	2	I	1	0	819	0	Ⴂ	cut_j_stereo_44KHz.wav
3	155	2	1	0	C	1	1	1161	1	Ⴊ	cut_oei_stereo_44KHz.wav
3	156	1	1	1	C	2	1	855	1	Ⴁ	cut_oei_stereo_44KHz.wav
3	157	2	2	1	C	2	1	1020	1	Ⴊ	cut_r_stereo_44KHz.wav
3	158	3	3	2	I	2	0	1164	1	Ⴂ	cut_f_stereo_44KHz.wav
3	159	1	2	0	C	1	1	1039	1	Ⴁ	cut_r_stereo_44KHz.wav
3	160	4	3	2	I	1	0	1072	0	Ⴟ	cut_f_stereo_44KHz.wav
3	161	2	1	0	C	1	1	988	1	Ⴊ	cut_oei_stereo_44KHz.wav
3	162	4	3	2	I	0	0	0	0	Ⴟ	cut_f_stereo_44KHz.wav
3	163	3	4	2	I	1	0	1241	0	Ⴂ	cut_j_stereo_44KHz.wav
3	164	1	2	0	C	1	1	1200	1	Ⴁ	cut_r_stereo_44KHz.wav
3	165	2	2	1	C	2	1	1234	1	Ⴊ	cut_r_stereo_44KHz.wav
3	166	1	1	1	C	2	1	988	1	Ⴁ	cut_oei_stereo_44KHz.wav
3	167	4	4	2	I	2	0	1723	0	Ⴟ	cut_j_stereo_44KHz.wav
3	168	3	3	2	I	1	0	915	0	Ⴂ	cut_f_stereo_44KHz.wav
3	169	2	1	0	C	2	0	1199	0	Ⴊ	cut_oei_stereo_44KHz.wav
3	170	3	3	2	I	2	0	1462	1	Ⴂ	cut_f_stereo_44KHz.wav
3	171	1	1	1	C	2	1	779	1	Ⴁ	cut_oei_stereo_44KHz.wav
3	172	4	4	2	I	2	0	945	0	Ⴟ	cut_j_stereo_44KHz.wav
3	173	1	2	0	C	1	1	833	1	Ⴁ	cut_r_stereo_44KHz.wav
3	174	4	3	2	I	2	0	1309	1	Ⴟ	cut_f_stereo_44KHz.wav
3	175	3	4	2	I	1	0	1057	0	Ⴂ	cut_j_stereo_44KHz.wav
3	176	2	2	1	C	0	0	0	0	Ⴊ	cut_r_stereo_44KHz.wav
3	177	4	3	2	I	1	0	1012	1	Ⴟ	cut_f_stereo_44KHz.wav
3	178	1	1	1	C	2	1	1017	1	Ⴁ	cut_oei_stereo_44KHz.wav
3	179	3	4	2	I	1	0	960	0	Ⴂ	cut_j_stereo_44KHz.wav
3	180	2	2	1	C	2	1	1670	1	Ⴊ	cut_r_stereo_44KHz.wav
3	181	1	2	0	C	1	1	756	1	Ⴁ	cut_r_stereo_44KHz.wav
3	182	4	4	2	I	2	0	967	1	Ⴟ	cut_j_stereo_44KHz.wav
3	183	3	3	2	I	1	0	924	1	Ⴂ	cut_f_stereo_44KHz.wav
3	184	2	1	0	C	1	1	962	1	Ⴊ	cut_oei_stereo_44KHz.wav
3	185	1	2	0	C	1	1	965	1	Ⴁ	cut_r_stereo_44KHz.wav
3	186	2	2	1	C	2	1	1037	1	Ⴊ	cut_r_stereo_44KHz.wav
3	187	4	3	2	I	1	0	878	0	Ⴟ	cut_f_stereo_44KHz.wav
3	188	3	3	2	I	1	0	769	0	Ⴂ	cut_f_stereo_44KHz.wav
3	189	2	1	0	C	1	1	1308	1	Ⴊ	cut_oei_stereo_44KHz.wav
3	190	3	4	2	I	1	0	1114	0	Ⴂ	cut_j_stereo_44KHz.wav
3	191	4	4	2	I	1	0	929	1	Ⴟ	cut_j_stereo_44KHz.wav
3	192	1	1	1	C	2	1	901	1	Ⴁ	cut_oei_stereo_44KHz.wav
3	193	3	4	2	I	2	0	1255	1	Ⴂ	cut_j_stereo_44KHz.wav
3	194	2	2	1	C	2	1	1265	1	Ⴊ	cut_r_stereo_44KHz.wav
3	195	1	1	1	C	2	1	796	1	Ⴁ	cut_oei_stereo_44KHz.wav
3	196	4	3	2	I	2	0	1810	1	Ⴟ	cut_f_stereo_44KHz.wav
3	197	1	2	0	C	1	1	1035	1	Ⴁ	cut_r_stereo_44KHz.wav
3	198	2	1	0	C	1	1	866	1	Ⴊ	cut_oei_stereo_44KHz.wav
3	199	3	3	2	I	0	0	0	0	Ⴂ	cut_f_stereo_44KHz.wav
3	200	4	4	2	I	2	0	1219	0	Ⴟ	cut_j_stereo_44KHz.wav
4	1	3	3	2	I	2	0	1622	0	Ⴡ	cut_a_stereo_44KHz.wav
4	2	2	2	1	C	1	0	526	0	Ⴜ	cut_k_stereo_44KHz.wav
4	3	1	2	0	C	1	1	600	1	Ⴃ	cut_k_stereo_44KHz.wav
4	4	4	4	2	I	1	0	643	1	Ⴇ	cut_u_stereo_44KHz.wav
4	5	2	1	0	C	1	1	673	1	Ⴜ	cut_o_stereo_44KHz.wav
4	6	4	3	2	I	1	0	712	0	Ⴇ	cut_a_stereo_44KHz.wav
4	7	1	1	1	C	1	0	863	0	Ⴃ	cut_o_stereo_44KHz.wav
4	8	3	4	2	I	1	0	1018	1	Ⴡ	cut_u_stereo_44KHz.wav
4	9	4	3	2	I	1	0	594	1	Ⴇ	cut_a_stereo_44KHz.wav
4	10	1	2	0	C	1	1	1132	1	Ⴃ	cut_k_stereo_44KHz.wav
4	11	3	4	2	I	1	0	805	1	Ⴡ	cut_u_stereo_44KHz.wav
4	12	2	2	1	C	1	0	1040	0	Ⴜ	cut_k_stereo_44KHz.wav
4	13	1	1	1	C	1	0	916	0	Ⴃ	cut_o_stereo_44KHz.wav
4	14	3	3	2	I	1	0	869	0	Ⴡ	cut_a_stereo_44KHz.wav
4	15	4	4	2	I	0	0	0	0	Ⴇ	cut_u_stereo_44KHz.wav
4	16	2	1	0	C	2	0	649	0	Ⴜ	cut_o_stereo_44KHz.wav
4	17	1	2	0	C	1	1	818	1	Ⴃ	cut_k_stereo_44KHz.wav
4	18	2	2	1	C	2	1	801	1	Ⴜ	cut_k_stereo_44KHz.wav
4	19	4	4	2	I	1	0	1128	1	Ⴇ	cut_u_stereo_44KHz.wav
4	20	3	4	2	I	1	0	906	1	Ⴡ	cut_u_stereo_44KHz.wav
4	21	4	3	2	I	2	0	1192	0	Ⴇ	cut_a_stereo_44KHz.wav
4	22	2	1	0	C	1	1	961	1	Ⴜ	cut_o_stereo_44KHz.wav
4	23	1	1	1	C	2	1	927	1	Ⴃ	cut_o_stereo_44KHz.wav
4	24	3	3	2	I	1	0	1171	1	Ⴡ	cut_a_stereo_44KHz.wav
4	25	2	1	0	C	1	1	860	1	Ⴜ	cut_o_stereo_44KHz.wav
4	26	4	4	2	I	0	0	0	0	Ⴇ	cut_u_stereo_44KHz.wav
4	27	1	2	0	C	1	1	752	1	Ⴃ	cut_k_stereo_44KHz.wav
4	28	3	4	2	I	1	0	825	1	Ⴡ	cut_u_stereo_44KHz.wav
4	29	2	2	1	C	2	1	936	1	Ⴜ	cut_k_stereo_44KHz.wav
4	30	1	1	1	C	2	1	1038	1	Ⴃ	cut_o_stereo_44KHz.wav
4	31	3	3	2	I	1	0	959	1	Ⴡ	cut_a_stereo_44KHz.wav
4	32	4	3	2	I	2	0	860	0	Ⴇ	cut_a_stereo_44KHz.wav
4	33	1	2	0	C	1	1	874	1	Ⴃ	cut_k_stereo_44KHz.wav
4	34	4	3	2	I	1	0	850	1	Ⴇ	cut_a_stereo_44KHz.wav
4	35	2	1	0	C	1	1	1012	1	Ⴜ	cut_o_stereo_44KHz.wav
4	36	3	3	2	I	1	0	613	1	Ⴡ	cut_a_stereo_44KHz.wav
4	37	4	4	2	I	2	0	1166	0	Ⴇ	cut_u_stereo_44KHz.wav
4	38	3	4	2	I	1	0	731	0	Ⴡ	cut_u_stereo_44KHz.wav
4	39	1	1	1	C	2	1	1354	1	Ⴃ	cut_o_stereo_44KHz.wav
4	40	2	2	1	C	2	1	775	1	Ⴜ	cut_k_stereo_44KHz.wav
4	41	3	4	2	I	1	0	703	0	Ⴡ	cut_u_stereo_44KHz.wav
4	42	2	2	1	C	2	1	991	1	Ⴜ	cut_k_stereo_44KHz.wav
4	43	1	2	0	C	1	1	839	1	Ⴃ	cut_k_stereo_44KHz.wav
4	44	4	4	2	I	2	0	879	1	Ⴇ	cut_u_stereo_44KHz.wav
4	45	3	3	2	I	1	0	1257	1	Ⴡ	cut_a_stereo_44KHz.wav
4	46	1	1	1	C	2	1	1324	1	Ⴃ	cut_o_stereo_44KHz.wav
4	47	4	3	2	I	1	0	771	1	Ⴇ	cut_a_stereo_44KHz.wav
4	48	2	1	0	C	1	1	1228	1	Ⴜ	cut_o_stereo_44KHz.wav
4	49	4	3	2	I	1	0	829	1	Ⴇ	cut_a_stereo_44KHz.wav
4	50	1	1	1	C	2	1	971	1	Ⴃ	cut_o_stereo_44KHz.wav
4	51	2	2	1	C	2	1	864	1	Ⴜ	cut_k_stereo_44KHz.wav
4	52	3	3	2	I	1	0	704	1	Ⴡ	cut_a_stereo_44KHz.wav
4	53	2	1	0	C	1	1	1133	1	Ⴜ	cut_o_stereo_44KHz.wav
4	54	1	2	0	C	1	1	1079	1	Ⴃ	cut_k_stereo_44KHz.wav
4	55	3	4	2	I	2	0	1160	0	Ⴡ	cut_u_stereo_44KHz.wav
4	56	4	4	2	I	2	0	1110	1	Ⴇ	cut_u_stereo_44KHz.wav
4	57	2	2	1	C	2	1	1422	1	Ⴜ	cut_k_stereo_44KHz.wav
4	58	3	4	2	I	1	0	1016	0	Ⴡ	cut_u_stereo_44KHz.wav
4	59	4	3	2	I	1	0	831	1	Ⴇ	cut_a_stereo_44KHz.wav
4	60	1	2	0	C	1	1	1050	1	Ⴃ	cut_k_stereo_44KHz.wav
4	61	4	4	2	I	1	0	1003	0	Ⴇ	cut_u_stereo_44KHz.wav
4	62	1	1	1	C	2	1	1007	1	Ⴃ	cut_o_stereo_44KHz.wav
4	63	2	1	0	C	1	1	1573	1	Ⴜ	cut_o_stereo_44KHz.wav
4	64	3	3	2	I	1	0	946	1	Ⴡ	cut_a_stereo_44KHz.wav
4	65	2	1	0	C	1	1	1051	1	Ⴜ	cut_o_stereo_44KHz.wav
4	66	3	4	2	I	1	0	777	0	Ⴡ	cut_u_stereo_44KHz.wav
4	67	1	1	1	C	2	1	1316	1	Ⴃ	cut_o_stereo_44KHz.wav
4	68	4	3	2	I	1	0	1160	1	Ⴇ	cut_a_stereo_44KHz.wav
4	69	2	2	1	C	2	1	982	1	Ⴜ	cut_k_stereo_44KHz.wav
4	70	3	3	2	I	1	0	682	1	Ⴡ	cut_a_stereo_44KHz.wav
4	71	4	4	2	I	1	0	917	1	Ⴇ	cut_u_stereo_44KHz.wav
4	72	1	2	0	C	1	1	908	1	Ⴃ	cut_k_stereo_44KHz.wav
4	73	3	4	2	I	2	0	1365	0	Ⴡ	cut_u_stereo_44KHz.wav
4	74	1	2	0	C	1	1	1068	1	Ⴃ	cut_k_stereo_44KHz.wav
4	75	4	4	2	I	1	0	837	0	Ⴇ	cut_u_stereo_44KHz.wav
4	76	2	2	1	C	2	1	1198	1	Ⴜ	cut_k_stereo_44KHz.wav
4	77	4	3	2	I	1	0	767	1	Ⴇ	cut_a_stereo_44KHz.wav
4	78	1	1	1	C	2	1	953	1	Ⴃ	cut_o_stereo_44KHz.wav
4	79	2	1	0	C	1	1	619	1	Ⴜ	cut_o_stereo_44KHz.wav
4	80	3	3	2	I	1	0	878	0	Ⴡ	cut_a_stereo_44KHz.wav
4	81	2	2	1	C	2	1	1119	1	Ⴜ	cut_k_stereo_44KHz.wav
4	82	1	2	0	C	1	1	1287	1	Ⴃ	cut_k_stereo_44KHz.wav
4	83	4	3	2	I	1	0	1037	0	Ⴇ	cut_a_stereo_44KHz.wav
4	84	3	4	2	I	1	0	756	1	Ⴡ	cut_u_stereo_44KHz.wav
4	85	4	4	2	I	2	0	1384	0	Ⴇ	cut_u_stereo_44KHz.wav
4	86	1	1	1	C	2	1	986	1	Ⴃ	cut_o_stereo_44KHz.wav
4	87	2	1	0	C	1	1	777	1	Ⴜ	cut_o_stereo_44KHz.wav
4	88	3	3	2	I	1	0	1363	1	Ⴡ	cut_a_stereo_44KHz.wav
4	89	2	2	1	C	2	1	871	1	Ⴜ	cut_k_stereo_44KHz.wav
4	90	1	1	1	C	2	1	938	1	Ⴃ	cut_o_stereo_44KHz.wav
4	91	4	3	2	I	1	0	844	0	Ⴇ	cut_a_stereo_44KHz.wav
4	92	3	3	2	I	1	0	720	0	Ⴡ	cut_a_stereo_44KHz.wav
4	93	2	1	0	C	1	1	1499	1	Ⴜ	cut_o_stereo_44KHz.wav
4	94	3	4	2	I	2	0	717	1	Ⴡ	cut_u_stereo_44KHz.wav
4	95	1	2	0	C	1	1	1281	1	Ⴃ	cut_k_stereo_44KHz.wav
4	96	4	4	2	I	1	0	1000	0	Ⴇ	cut_u_stereo_44KHz.wav
4	97	3	4	2	I	2	0	799	0	Ⴡ	cut_u_stereo_44KHz.wav
4	98	4	3	2	I	1	0	822	0	Ⴇ	cut_a_stereo_44KHz.wav
4	99	2	1	0	C	1	1	878	1	Ⴜ	cut_o_stereo_44KHz.wav
4	100	1	2	0	C	2	0	31	0	Ⴃ	cut_k_stereo_44KHz.wav
4	101	2	2	1	C	2	1	1065	1	Ⴜ	cut_k_stereo_44KHz.wav
4	102	3	3	2	I	2	0	1418	1	Ⴡ	cut_a_stereo_44KHz.wav
4	103	4	4	2	I	1	0	1382	1	Ⴇ	cut_u_stereo_44KHz.wav
4	104	1	1	1	C	2	1	939	1	Ⴃ	cut_o_stereo_44KHz.wav
4	105	3	3	2	I	2	0	1745	1	Ⴡ	cut_a_stereo_44KHz.wav
4	106	2	1	0	C	1	1	970	1	Ⴜ	cut_o_stereo_44KHz.wav
4	107	4	3	2	I	1	0	1627	1	Ⴇ	cut_a_stereo_44KHz.wav
4	108	1	1	1	C	2	1	1212	1	Ⴃ	cut_o_stereo_44KHz.wav
4	109	2	2	1	C	2	1	1178	1	Ⴜ	cut_k_stereo_44KHz.wav
4	110	3	4	2	I	2	0	1203	0	Ⴡ	cut_u_stereo_44KHz.wav
4	111	4	4	2	I	2	0	974	1	Ⴇ	cut_u_stereo_44KHz.wav
4	112	1	2	0	C	1	1	1081	1	Ⴃ	cut_k_stereo_44KHz.wav
4	113	2	1	0	C	1	1	1427	1	Ⴜ	cut_o_stereo_44KHz.wav
4	114	4	4	2	I	1	0	1523	0	Ⴇ	cut_u_stereo_44KHz.wav
4	115	3	3	2	I	1	0	958	1	Ⴡ	cut_a_stereo_44KHz.wav
4	116	1	2	0	C	1	1	1024	1	Ⴃ	cut_k_stereo_44KHz.wav
4	117	4	3	2	I	2	0	891	1	Ⴇ	cut_a_stereo_44KHz.wav
4	118	2	2	1	C	2	1	1223	1	Ⴜ	cut_k_stereo_44KHz.wav
4	119	1	1	1	C	2	1	1141	1	Ⴃ	cut_o_stereo_44KHz.wav
4	120	3	4	2	I	0	0	0	0	Ⴡ	cut_u_stereo_44KHz.wav
4	121	1	2	0	C	1	1	962	1	Ⴃ	cut_k_stereo_44KHz.wav
4	122	2	2	1	C	2	1	775	1	Ⴜ	cut_k_stereo_44KHz.wav
4	123	4	3	2	I	1	0	777	1	Ⴇ	cut_a_stereo_44KHz.wav
4	124	3	3	2	I	1	0	809	0	Ⴡ	cut_a_stereo_44KHz.wav
4	125	2	1	0	C	1	1	1235	1	Ⴜ	cut_o_stereo_44KHz.wav
4	126	3	4	2	I	1	0	1171	0	Ⴡ	cut_u_stereo_44KHz.wav
4	127	4	4	2	I	2	0	1309	1	Ⴇ	cut_u_stereo_44KHz.wav
4	128	1	1	1	C	2	1	1168	1	Ⴃ	cut_o_stereo_44KHz.wav
4	129	2	2	1	C	2	1	968	1	Ⴜ	cut_k_stereo_44KHz.wav
4	130	1	2	0	C	1	1	1016	1	Ⴃ	cut_k_stereo_44KHz.wav
4	131	4	4	2	I	2	0	1481	0	Ⴇ	cut_u_stereo_44KHz.wav
4	132	3	4	2	I	1	0	777	0	Ⴡ	cut_u_stereo_44KHz.wav
4	133	4	3	2	I	1	0	820	0	Ⴇ	cut_a_stereo_44KHz.wav
4	134	3	3	2	I	1	0	809	1	Ⴡ	cut_a_stereo_44KHz.wav
4	135	1	1	1	C	2	1	844	1	Ⴃ	cut_o_stereo_44KHz.wav
4	136	2	1	0	C	1	1	851	1	Ⴜ	cut_o_stereo_44KHz.wav
4	137	1	1	1	C	2	1	786	1	Ⴃ	cut_o_stereo_44KHz.wav
4	138	3	3	2	I	1	0	1344	1	Ⴡ	cut_a_stereo_44KHz.wav
4	139	4	4	2	I	1	0	769	0	Ⴇ	cut_u_stereo_44KHz.wav
4	140	2	2	1	C	2	1	1422	1	Ⴜ	cut_k_stereo_44KHz.wav
4	141	1	2	0	C	1	1	907	1	Ⴃ	cut_k_stereo_44KHz.wav
4	142	4	3	2	I	1	0	1387	0	Ⴇ	cut_a_stereo_44KHz.wav
4	143	3	4	2	I	1	0	1290	1	Ⴡ	cut_u_stereo_44KHz.wav
4	144	2	1	0	C	1	1	1145	1	Ⴜ	cut_o_stereo_44KHz.wav
4	145	1	1	1	C	2	1	1068	1	Ⴃ	cut_o_stereo_44KHz.wav
4	146	3	3	2	I	1	0	913	0	Ⴡ	cut_a_stereo_44KHz.wav
4	147	2	2	1	C	2	1	896	1	Ⴜ	cut_k_stereo_44KHz.wav
4	148	4	3	2	I	1	0	1222	0	Ⴇ	cut_a_stereo_44KHz.wav
4	149	1	2	0	C	1	1	1097	1	Ⴃ	cut_k_stereo_44KHz.wav
4	150	3	4	2	I	1	0	1532	1	Ⴡ	cut_u_stereo_44KHz.wav
4	151	4	4	2	I	2	0	1351	1	Ⴇ	cut_u_stereo_44KHz.wav
4	152	2	1	0	C	1	1	1158	1	Ⴜ	cut_o_stereo_44KHz.wav
4	153	4	4	2	I	1	0	1590	1	Ⴇ	cut_u_stereo_44KHz.wav
4	154	3	4	2	I	2	0	1093	1	Ⴡ	cut_u_stereo_44KHz.wav
4	155	1	1	1	C	2	1	1750	1	Ⴃ	cut_o_stereo_44KHz.wav
4	156	2	2	1	C	2	1	994	1	Ⴜ	cut_k_stereo_44KHz.wav
4	157	1	2	0	C	1	1	876	1	Ⴃ	cut_k_stereo_44KHz.wav
4	158	2	1	0	C	1	1	1591	1	Ⴜ	cut_o_stereo_44KHz.wav
4	159	3	3	2	I	2	0	1754	0	Ⴡ	cut_a_stereo_44KHz.wav
4	160	4	3	2	I	1	0	814	1	Ⴇ	cut_a_stereo_44KHz.wav
4	161	1	1	1	C	2	1	1323	1	Ⴃ	cut_o_stereo_44KHz.wav
4	162	2	2	1	C	2	1	1153	1	Ⴜ	cut_k_stereo_44KHz.wav
4	163	4	3	2	I	1	0	1243	0	Ⴇ	cut_a_stereo_44KHz.wav
4	164	3	4	2	I	1	0	953	1	Ⴡ	cut_u_stereo_44KHz.wav
4	165	1	2	0	C	1	1	1027	1	Ⴃ	cut_k_stereo_44KHz.wav
4	166	3	3	2	I	2	0	1715	0	Ⴡ	cut_a_stereo_44KHz.wav
4	167	2	1	0	C	1	1	1235	1	Ⴜ	cut_o_stereo_44KHz.wav
4	168	4	4	2	I	1	0	641	1	Ⴇ	cut_u_stereo_44KHz.wav
4	169	1	1	1	C	2	1	925	1	Ⴃ	cut_o_stereo_44KHz.wav
4	170	2	1	0	C	1	1	854	1	Ⴜ	cut_o_stereo_44KHz.wav
4	171	3	4	2	I	1	0	1060	0	Ⴡ	cut_u_stereo_44KHz.wav
4	172	4	3	2	I	2	0	962	0	Ⴇ	cut_a_stereo_44KHz.wav
4	173	2	2	1	C	2	1	971	1	Ⴜ	cut_k_stereo_44KHz.wav
4	174	1	2	0	C	1	1	1498	1	Ⴃ	cut_k_stereo_44KHz.wav
4	175	4	4	2	I	1	0	1146	0	Ⴇ	cut_u_stereo_44KHz.wav
4	176	3	3	2	I	2	0	997	0	Ⴡ	cut_a_stereo_44KHz.wav
4	177	2	1	0	C	1	1	791	1	Ⴜ	cut_o_stereo_44KHz.wav
4	178	1	2	0	C	1	1	889	1	Ⴃ	cut_k_stereo_44KHz.wav
4	179	3	4	2	I	2	0	1492	0	Ⴡ	cut_u_stereo_44KHz.wav
4	180	4	3	2	I	1	0	833	0	Ⴇ	cut_a_stereo_44KHz.wav
4	181	2	2	1	C	2	1	1240	1	Ⴜ	cut_k_stereo_44KHz.wav
4	182	3	3	2	I	1	0	1363	1	Ⴡ	cut_a_stereo_44KHz.wav
4	183	4	4	2	I	1	0	931	0	Ⴇ	cut_u_stereo_44KHz.wav
4	184	1	1	1	C	2	1	969	1	Ⴃ	cut_o_stereo_44KHz.wav
4	185	4	4	2	I	2	0	1605	0	Ⴇ	cut_u_stereo_44KHz.wav
4	186	2	2	1	C	2	1	1646	1	Ⴜ	cut_k_stereo_44KHz.wav
4	187	1	2	0	C	1	1	944	1	Ⴃ	cut_k_stereo_44KHz.wav
4	188	3	4	2	I	1	0	843	0	Ⴡ	cut_u_stereo_44KHz.wav
4	189	1	1	1	C	2	1	927	1	Ⴃ	cut_o_stereo_44KHz.wav
4	190	3	3	2	I	1	0	1014	0	Ⴡ	cut_a_stereo_44KHz.wav
4	191	4	3	2	I	1	0	904	1	Ⴇ	cut_a_stereo_44KHz.wav
4	192	2	1	0	C	1	1	1456	1	Ⴜ	cut_o_stereo_44KHz.wav
4	193	1	2	0	C	1	1	1047	1	Ⴃ	cut_k_stereo_44KHz.wav
4	194	4	4	2	I	2	0	905	0	Ⴇ	cut_u_stereo_44KHz.wav
4	195	2	2	1	C	2	1	969	1	Ⴜ	cut_k_stereo_44KHz.wav
4	196	3	4	2	I	1	0	797	1	Ⴡ	cut_u_stereo_44KHz.wav
4	197	2	1	0	C	1	1	964	1	Ⴜ	cut_o_stereo_44KHz.wav
4	198	3	3	2	I	2	0	1147	0	Ⴡ	cut_a_stereo_44KHz.wav
4	199	1	1	1	C	2	1	1167	1	Ⴃ	cut_o_stereo_44KHz.wav
4	200	4	3	2	I	1	0	928	1	Ⴇ	cut_a_stereo_44KHz.wav
