block	trial	Vstim	Astim	match	C/I	resp	result	RT	fb	V-file	A-file
RL

0	1	1	2	0	C	0	0	0	0	poli_8sides 21_whiteLine3.jpg	Practice4_b26_stereo_44KHz.wav
0	2	2	4	0	C	2	1	894	1	poli_8sides 24_whiteLine3.jpg	Practice2_b27_cut2_stereo_44KHz.wav
0	3	2	3	1	C	2	0	695	0	poli_8sides 24_whiteLine3.jpg	Practice1_b27_cut1_stereo_44KHz.wav
0	4	1	1	1	C	2	0	1227	0	poli_8sides 21_whiteLine3.jpg	Practice3_b26_cut1_stereo_44KHz.wav
0	5	2	3	1	C	0	0	0	0	poli_8sides 24_whiteLine3.jpg	Practice1_b27_cut1_stereo_44KHz.wav
0	6	2	4	0	C	0	0	0	0	poli_8sides 24_whiteLine3.jpg	Practice2_b27_cut2_stereo_44KHz.wav
0	7	1	2	0	C	2	1	1185	1	poli_8sides 21_whiteLine3.jpg	Practice4_b26_stereo_44KHz.wav
0	8	1	1	1	C	0	0	0	0	poli_8sides 21_whiteLine3.jpg	Practice3_b26_cut1_stereo_44KHz.wav
0	9	1	2	0	C	2	1	1518	1	poli_8sides 21_whiteLine3.jpg	Practice4_b26_stereo_44KHz.wav
0	10	2	3	1	C	0	0	0	0	poli_8sides 24_whiteLine3.jpg	Practice1_b27_cut1_stereo_44KHz.wav
0	11	2	4	0	C	0	0	0	0	poli_8sides 24_whiteLine3.jpg	Practice2_b27_cut2_stereo_44KHz.wav
0	12	1	1	1	C	0	0	0	0	poli_8sides 21_whiteLine3.jpg	Practice3_b26_cut1_stereo_44KHz.wav
0	13	1	1	1	C	1	1	1166	1	poli_8sides 21_whiteLine3.jpg	Practice3_b26_cut1_stereo_44KHz.wav
0	14	2	3	1	C	1	1	1125	1	poli_8sides 24_whiteLine3.jpg	Practice1_b27_cut1_stereo_44KHz.wav
0	15	2	4	0	C	2	1	1621	1	poli_8sides 24_whiteLine3.jpg	Practice2_b27_cut2_stereo_44KHz.wav
0	16	1	2	0	C	2	1	1175	1	poli_8sides 21_whiteLine3.jpg	Practice4_b26_stereo_44KHz.wav
0	17	2	4	0	C	1	0	815	0	poli_8sides 24_whiteLine3.jpg	Practice2_b27_cut2_stereo_44KHz.wav
0	18	2	3	1	C	1	1	1249	1	poli_8sides 24_whiteLine3.jpg	Practice1_b27_cut1_stereo_44KHz.wav
0	19	1	1	1	C	1	1	994	1	poli_8sides 21_whiteLine3.jpg	Practice3_b26_cut1_stereo_44KHz.wav
0	20	1	2	0	C	2	1	1231	1	poli_8sides 21_whiteLine3.jpg	Practice4_b26_stereo_44KHz.wav
0	21	1	2	0	C	2	1	884	1	poli_8sides 21_whiteLine3.jpg	Practice4_b26_stereo_44KHz.wav
0	22	2	3	1	C	1	1	1251	1	poli_8sides 24_whiteLine3.jpg	Practice1_b27_cut1_stereo_44KHz.wav
0	23	2	4	0	C	2	1	1027	1	poli_8sides 24_whiteLine3.jpg	Practice2_b27_cut2_stereo_44KHz.wav
0	24	1	1	1	C	1	1	1519	1	poli_8sides 21_whiteLine3.jpg	Practice3_b26_cut1_stereo_44KHz.wav
0	25	1	1	1	C	1	1	1046	1	poli_8sides 21_whiteLine3.jpg	Practice3_b26_cut1_stereo_44KHz.wav
0	26	2	4	0	C	2	1	1261	1	poli_8sides 24_whiteLine3.jpg	Practice2_b27_cut2_stereo_44KHz.wav
0	27	1	2	0	C	2	1	1612	1	poli_8sides 21_whiteLine3.jpg	Practice4_b26_stereo_44KHz.wav
0	28	2	3	1	C	2	0	1044	0	poli_8sides 24_whiteLine3.jpg	Practice1_b27_cut1_stereo_44KHz.wav
0	29	1	1	1	C	1	1	1520	1	poli_8sides 21_whiteLine3.jpg	Practice3_b26_cut1_stereo_44KHz.wav
0	30	2	4	0	C	2	1	1050	1	poli_8sides 24_whiteLine3.jpg	Practice2_b27_cut2_stereo_44KHz.wav
avg_resp = 1228
1	1	3	4	2	I	2	0	1640	0	poli_8sides 15_whiteLine3.jpg	MediumLong_e04_stereo_44KHz.wav
1	2	4	4	2	I	2	0	1424	0	poli_8sides 1_whiteLine3.jpg	MediumLong_e04_stereo_44KHz.wav
1	3	2	2	1	C	0	0	0	0	poli_8sides 8_whiteLine3.jpg	MediumLong_e19_stereo_44KHz.wav
1	4	1	1	1	C	2	0	1545	0	poli_8sides 11_whiteLine3.jpg	Medium_e13_stereo_44KHz.wav
1	5	3	3	2	I	2	0	1183	1	poli_8sides 15_whiteLine3.jpg	Medium_e26_stereo_44KHz.wav
1	6	2	1	0	C	1	0	1271	0	poli_8sides 8_whiteLine3.jpg	Medium_e13_stereo_44KHz.wav
1	7	4	3	2	I	1	0	1420	1	poli_8sides 1_whiteLine3.jpg	Medium_e26_stereo_44KHz.wav
1	8	1	2	0	C	0	0	0	0	poli_8sides 11_whiteLine3.jpg	MediumLong_e19_stereo_44KHz.wav
1	9	2	1	0	C	1	0	1440	0	poli_8sides 8_whiteLine3.jpg	Medium_e13_stereo_44KHz.wav
1	10	3	3	2	I	2	0	1961	1	poli_8sides 15_whiteLine3.jpg	Medium_e26_stereo_44KHz.wav
1	11	4	4	2	I	1	0	1753	1	poli_8sides 1_whiteLine3.jpg	MediumLong_e04_stereo_44KHz.wav
1	12	1	1	1	C	0	0	0	0	poli_8sides 11_whiteLine3.jpg	Medium_e13_stereo_44KHz.wav
1	13	2	2	1	C	0	0	0	0	poli_8sides 8_whiteLine3.jpg	MediumLong_e19_stereo_44KHz.wav
1	14	4	3	2	I	2	0	1682	0	poli_8sides 1_whiteLine3.jpg	Medium_e26_stereo_44KHz.wav
1	15	1	2	0	C	2	1	1890	1	poli_8sides 11_whiteLine3.jpg	MediumLong_e19_stereo_44KHz.wav
1	16	3	4	2	I	1	0	1472	1	poli_8sides 15_whiteLine3.jpg	MediumLong_e04_stereo_44KHz.wav
1	17	1	1	1	C	1	1	1851	1	poli_8sides 11_whiteLine3.jpg	Medium_e13_stereo_44KHz.wav
1	18	3	3	2	I	1	0	1382	1	poli_8sides 15_whiteLine3.jpg	Medium_e26_stereo_44KHz.wav
1	19	4	4	2	I	0	0	0	0	poli_8sides 1_whiteLine3.jpg	MediumLong_e04_stereo_44KHz.wav
1	20	2	1	0	C	2	1	1805	1	poli_8sides 8_whiteLine3.jpg	Medium_e13_stereo_44KHz.wav
1	21	1	2	0	C	2	1	1357	1	poli_8sides 11_whiteLine3.jpg	MediumLong_e19_stereo_44KHz.wav
1	22	2	2	1	C	1	1	970	1	poli_8sides 8_whiteLine3.jpg	MediumLong_e19_stereo_44KHz.wav
1	23	3	4	2	I	1	0	1340	0	poli_8sides 15_whiteLine3.jpg	MediumLong_e04_stereo_44KHz.wav
1	24	4	3	2	I	0	0	0	0	poli_8sides 1_whiteLine3.jpg	Medium_e26_stereo_44KHz.wav
1	25	1	1	1	C	0	0	0	0	poli_8sides 11_whiteLine3.jpg	Medium_e13_stereo_44KHz.wav
1	26	2	2	1	C	2	0	1239	0	poli_8sides 8_whiteLine3.jpg	MediumLong_e19_stereo_44KHz.wav
1	27	3	3	2	I	2	0	1397	0	poli_8sides 15_whiteLine3.jpg	Medium_e26_stereo_44KHz.wav
1	28	4	4	2	I	1	0	922	1	poli_8sides 1_whiteLine3.jpg	MediumLong_e04_stereo_44KHz.wav
1	29	3	4	2	I	2	0	1611	1	poli_8sides 15_whiteLine3.jpg	MediumLong_e04_stereo_44KHz.wav
1	30	2	1	0	C	2	1	1266	1	poli_8sides 8_whiteLine3.jpg	Medium_e13_stereo_44KHz.wav
1	31	1	2	0	C	2	1	1186	1	poli_8sides 11_whiteLine3.jpg	MediumLong_e19_stereo_44KHz.wav
1	32	4	3	2	I	1	0	1351	1	poli_8sides 1_whiteLine3.jpg	Medium_e26_stereo_44KHz.wav
1	33	3	3	2	I	1	0	1347	1	poli_8sides 15_whiteLine3.jpg	Medium_e26_stereo_44KHz.wav
1	34	4	4	2	I	1	0	1633	0	poli_8sides 1_whiteLine3.jpg	MediumLong_e04_stereo_44KHz.wav
1	35	2	2	1	C	0	0	0	0	poli_8sides 8_whiteLine3.jpg	MediumLong_e19_stereo_44KHz.wav
1	36	1	1	1	C	2	0	1070	0	poli_8sides 11_whiteLine3.jpg	Medium_e13_stereo_44KHz.wav
1	37	3	4	2	I	1	0	1444	1	poli_8sides 15_whiteLine3.jpg	MediumLong_e04_stereo_44KHz.wav
1	38	2	1	0	C	2	1	1161	1	poli_8sides 8_whiteLine3.jpg	Medium_e13_stereo_44KHz.wav
1	39	1	2	0	C	2	1	1191	1	poli_8sides 11_whiteLine3.jpg	MediumLong_e19_stereo_44KHz.wav
1	40	4	3	2	I	1	0	964	1	poli_8sides 1_whiteLine3.jpg	Medium_e26_stereo_44KHz.wav
1	41	2	2	1	C	2	0	1289	0	poli_8sides 8_whiteLine3.jpg	MediumLong_e19_stereo_44KHz.wav
1	42	1	2	0	C	2	1	882	1	poli_8sides 11_whiteLine3.jpg	MediumLong_e19_stereo_44KHz.wav
1	43	3	4	2	I	1	0	1354	0	poli_8sides 15_whiteLine3.jpg	MediumLong_e04_stereo_44KHz.wav
1	44	4	4	2	I	1	0	861	0	poli_8sides 1_whiteLine3.jpg	MediumLong_e04_stereo_44KHz.wav
1	45	3	3	2	I	0	0	0	0	poli_8sides 15_whiteLine3.jpg	Medium_e26_stereo_44KHz.wav
1	46	1	1	1	C	2	0	1616	0	poli_8sides 11_whiteLine3.jpg	Medium_e13_stereo_44KHz.wav
1	47	4	3	2	I	1	0	1228	0	poli_8sides 1_whiteLine3.jpg	Medium_e26_stereo_44KHz.wav
1	48	2	1	0	C	2	1	1845	1	poli_8sides 8_whiteLine3.jpg	Medium_e13_stereo_44KHz.wav
1	49	1	2	0	C	2	1	1420	1	poli_8sides 11_whiteLine3.jpg	MediumLong_e19_stereo_44KHz.wav
1	50	4	3	2	I	1	0	1103	0	poli_8sides 1_whiteLine3.jpg	Medium_e26_stereo_44KHz.wav
1	51	2	2	1	C	2	0	1160	0	poli_8sides 8_whiteLine3.jpg	MediumLong_e19_stereo_44KHz.wav
1	52	3	3	2	I	1	0	965	0	poli_8sides 15_whiteLine3.jpg	Medium_e26_stereo_44KHz.wav
1	53	2	1	0	C	2	1	1139	1	poli_8sides 8_whiteLine3.jpg	Medium_e13_stereo_44KHz.wav
1	54	3	4	2	I	1	0	1327	1	poli_8sides 15_whiteLine3.jpg	MediumLong_e04_stereo_44KHz.wav
1	55	4	4	2	I	2	0	828	0	poli_8sides 1_whiteLine3.jpg	MediumLong_e04_stereo_44KHz.wav
1	56	1	1	1	C	2	0	1316	0	poli_8sides 11_whiteLine3.jpg	Medium_e13_stereo_44KHz.wav
1	57	2	1	0	C	0	0	0	0	poli_8sides 8_whiteLine3.jpg	Medium_e13_stereo_44KHz.wav
1	58	4	3	2	I	1	0	1228	0	poli_8sides 1_whiteLine3.jpg	Medium_e26_stereo_44KHz.wav
1	59	1	1	1	C	2	0	1662	0	poli_8sides 11_whiteLine3.jpg	Medium_e13_stereo_44KHz.wav
1	60	3	4	2	I	1	0	1475	1	poli_8sides 15_whiteLine3.jpg	MediumLong_e04_stereo_44KHz.wav
1	61	2	2	1	C	0	0	0	0	poli_8sides 8_whiteLine3.jpg	MediumLong_e19_stereo_44KHz.wav
1	62	4	4	2	I	2	0	1379	1	poli_8sides 1_whiteLine3.jpg	MediumLong_e04_stereo_44KHz.wav
1	63	3	3	2	I	2	0	1814	0	poli_8sides 15_whiteLine3.jpg	Medium_e26_stereo_44KHz.wav
1	64	1	2	0	C	2	1	1448	1	poli_8sides 11_whiteLine3.jpg	MediumLong_e19_stereo_44KHz.wav
1	65	2	2	1	C	0	0	0	0	poli_8sides 8_whiteLine3.jpg	MediumLong_e19_stereo_44KHz.wav
1	66	1	1	1	C	2	0	817	0	poli_8sides 11_whiteLine3.jpg	Medium_e13_stereo_44KHz.wav
1	67	3	4	2	I	1	0	1317	0	poli_8sides 15_whiteLine3.jpg	MediumLong_e04_stereo_44KHz.wav
1	68	4	4	2	I	2	0	1145	0	poli_8sides 1_whiteLine3.jpg	MediumLong_e04_stereo_44KHz.wav
1	69	3	3	2	I	2	0	1553	0	poli_8sides 15_whiteLine3.jpg	Medium_e26_stereo_44KHz.wav
1	70	2	1	0	C	2	1	1028	1	poli_8sides 8_whiteLine3.jpg	Medium_e13_stereo_44KHz.wav
1	71	1	2	0	C	2	1	1115	1	poli_8sides 11_whiteLine3.jpg	MediumLong_e19_stereo_44KHz.wav
1	72	4	3	2	I	2	0	1113	1	poli_8sides 1_whiteLine3.jpg	Medium_e26_stereo_44KHz.wav
1	73	2	2	1	C	1	1	1367	1	poli_8sides 8_whiteLine3.jpg	MediumLong_e19_stereo_44KHz.wav
1	74	3	3	2	I	2	0	1453	1	poli_8sides 15_whiteLine3.jpg	Medium_e26_stereo_44KHz.wav
1	75	1	2	0	C	2	1	958	1	poli_8sides 11_whiteLine3.jpg	MediumLong_e19_stereo_44KHz.wav
1	76	4	4	2	I	2	0	1033	0	poli_8sides 1_whiteLine3.jpg	MediumLong_e04_stereo_44KHz.wav
1	77	1	1	1	C	2	0	916	0	poli_8sides 11_whiteLine3.jpg	Medium_e13_stereo_44KHz.wav
1	78	2	1	0	C	2	1	796	1	poli_8sides 8_whiteLine3.jpg	Medium_e13_stereo_44KHz.wav
1	79	4	3	2	I	2	0	1255	0	poli_8sides 1_whiteLine3.jpg	Medium_e26_stereo_44KHz.wav
1	80	3	4	2	I	2	0	1315	1	poli_8sides 15_whiteLine3.jpg	MediumLong_e04_stereo_44KHz.wav
1	81	4	3	2	I	2	0	1269	1	poli_8sides 1_whiteLine3.jpg	Medium_e26_stereo_44KHz.wav
1	82	2	1	0	C	1	0	1243	0	poli_8sides 8_whiteLine3.jpg	Medium_e13_stereo_44KHz.wav
1	83	3	4	2	I	2	0	1422	1	poli_8sides 15_whiteLine3.jpg	MediumLong_e04_stereo_44KHz.wav
1	84	1	1	1	C	0	0	0	0	poli_8sides 11_whiteLine3.jpg	Medium_e13_stereo_44KHz.wav
1	85	2	2	1	C	2	0	812	0	poli_8sides 8_whiteLine3.jpg	MediumLong_e19_stereo_44KHz.wav
1	86	1	2	0	C	2	1	768	1	poli_8sides 11_whiteLine3.jpg	MediumLong_e19_stereo_44KHz.wav
1	87	4	4	2	I	1	0	1238	0	poli_8sides 1_whiteLine3.jpg	MediumLong_e04_stereo_44KHz.wav
1	88	3	3	2	I	2	0	1229	0	poli_8sides 15_whiteLine3.jpg	Medium_e26_stereo_44KHz.wav
1	89	2	2	1	C	2	0	1927	0	poli_8sides 8_whiteLine3.jpg	MediumLong_e19_stereo_44KHz.wav
1	90	1	2	0	C	2	1	692	1	poli_8sides 11_whiteLine3.jpg	MediumLong_e19_stereo_44KHz.wav
1	91	4	4	2	I	2	0	1300	1	poli_8sides 1_whiteLine3.jpg	MediumLong_e04_stereo_44KHz.wav
1	92	3	4	2	I	2	0	942	1	poli_8sides 15_whiteLine3.jpg	MediumLong_e04_stereo_44KHz.wav
1	93	4	3	2	I	2	0	1150	0	poli_8sides 1_whiteLine3.jpg	Medium_e26_stereo_44KHz.wav
1	94	3	3	2	I	2	0	667	1	poli_8sides 15_whiteLine3.jpg	Medium_e26_stereo_44KHz.wav
1	95	2	1	0	C	2	1	1325	1	poli_8sides 8_whiteLine3.jpg	Medium_e13_stereo_44KHz.wav
1	96	1	1	1	C	1	1	1073	1	poli_8sides 11_whiteLine3.jpg	Medium_e13_stereo_44KHz.wav
1	97	3	3	2	I	2	0	1188	1	poli_8sides 15_whiteLine3.jpg	Medium_e26_stereo_44KHz.wav
1	98	2	1	0	C	1	0	1072	0	poli_8sides 8_whiteLine3.jpg	Medium_e13_stereo_44KHz.wav
1	99	4	4	2	I	1	0	1091	0	poli_8sides 1_whiteLine3.jpg	MediumLong_e04_stereo_44KHz.wav
1	100	1	2	0	C	2	1	1201	1	poli_8sides 11_whiteLine3.jpg	MediumLong_e19_stereo_44KHz.wav
1	101	4	3	2	I	2	0	1150	1	poli_8sides 1_whiteLine3.jpg	Medium_e26_stereo_44KHz.wav
1	102	3	4	2	I	2	0	1336	1	poli_8sides 15_whiteLine3.jpg	MediumLong_e04_stereo_44KHz.wav
1	103	1	1	1	C	1	1	1931	1	poli_8sides 11_whiteLine3.jpg	Medium_e13_stereo_44KHz.wav
1	104	2	2	1	C	2	0	1747	0	poli_8sides 8_whiteLine3.jpg	MediumLong_e19_stereo_44KHz.wav
1	105	4	4	2	I	1	0	1139	0	poli_8sides 1_whiteLine3.jpg	MediumLong_e04_stereo_44KHz.wav
1	106	3	4	2	I	2	0	1418	0	poli_8sides 15_whiteLine3.jpg	MediumLong_e04_stereo_44KHz.wav
1	107	1	2	0	C	2	1	1056	1	poli_8sides 11_whiteLine3.jpg	MediumLong_e19_stereo_44KHz.wav
1	108	2	2	1	C	1	1	801	1	poli_8sides 8_whiteLine3.jpg	MediumLong_e19_stereo_44KHz.wav
1	109	3	3	2	I	2	0	1391	0	poli_8sides 15_whiteLine3.jpg	Medium_e26_stereo_44KHz.wav
1	110	1	1	1	C	0	0	0	0	poli_8sides 11_whiteLine3.jpg	Medium_e13_stereo_44KHz.wav
1	111	2	1	0	C	2	1	948	1	poli_8sides 8_whiteLine3.jpg	Medium_e13_stereo_44KHz.wav
1	112	4	3	2	I	2	0	1226	1	poli_8sides 1_whiteLine3.jpg	Medium_e26_stereo_44KHz.wav
1	113	2	2	1	C	1	1	1494	1	poli_8sides 8_whiteLine3.jpg	MediumLong_e19_stereo_44KHz.wav
1	114	3	3	2	I	2	0	1127	1	poli_8sides 15_whiteLine3.jpg	Medium_e26_stereo_44KHz.wav
1	115	1	2	0	C	2	1	1432	1	poli_8sides 11_whiteLine3.jpg	MediumLong_e19_stereo_44KHz.wav
1	116	4	3	2	I	2	0	1223	1	poli_8sides 1_whiteLine3.jpg	Medium_e26_stereo_44KHz.wav
1	117	1	1	1	C	2	0	1816	0	poli_8sides 11_whiteLine3.jpg	Medium_e13_stereo_44KHz.wav
1	118	3	4	2	I	2	0	1099	0	poli_8sides 15_whiteLine3.jpg	MediumLong_e04_stereo_44KHz.wav
1	119	4	4	2	I	1	0	1036	1	poli_8sides 1_whiteLine3.jpg	MediumLong_e04_stereo_44KHz.wav
1	120	2	1	0	C	2	1	1229	1	poli_8sides 8_whiteLine3.jpg	Medium_e13_stereo_44KHz.wav
1	121	3	4	2	I	2	0	993	0	poli_8sides 15_whiteLine3.jpg	MediumLong_e04_stereo_44KHz.wav
1	122	1	1	1	C	2	0	979	0	poli_8sides 11_whiteLine3.jpg	Medium_e13_stereo_44KHz.wav
1	123	2	2	1	C	2	0	1659	0	poli_8sides 8_whiteLine3.jpg	MediumLong_e19_stereo_44KHz.wav
1	124	4	4	2	I	2	0	1155	0	poli_8sides 1_whiteLine3.jpg	MediumLong_e04_stereo_44KHz.wav
1	125	2	1	0	C	2	1	1957	1	poli_8sides 8_whiteLine3.jpg	Medium_e13_stereo_44KHz.wav
1	126	3	3	2	I	2	0	1038	0	poli_8sides 15_whiteLine3.jpg	Medium_e26_stereo_44KHz.wav
1	127	1	2	0	C	2	1	1040	1	poli_8sides 11_whiteLine3.jpg	MediumLong_e19_stereo_44KHz.wav
1	128	4	3	2	I	2	0	1037	1	poli_8sides 1_whiteLine3.jpg	Medium_e26_stereo_44KHz.wav
1	129	3	4	2	I	2	0	1026	1	poli_8sides 15_whiteLine3.jpg	MediumLong_e04_stereo_44KHz.wav
1	130	4	3	2	I	2	0	1446	0	poli_8sides 1_whiteLine3.jpg	Medium_e26_stereo_44KHz.wav
1	131	1	2	0	C	2	1	1025	1	poli_8sides 11_whiteLine3.jpg	MediumLong_e19_stereo_44KHz.wav
1	132	2	1	0	C	2	1	830	1	poli_8sides 8_whiteLine3.jpg	Medium_e13_stereo_44KHz.wav
1	133	1	1	1	C	2	0	821	0	poli_8sides 11_whiteLine3.jpg	Medium_e13_stereo_44KHz.wav
1	134	4	4	2	I	2	0	1196	1	poli_8sides 1_whiteLine3.jpg	MediumLong_e04_stereo_44KHz.wav
1	135	2	2	1	C	1	1	1373	1	poli_8sides 8_whiteLine3.jpg	MediumLong_e19_stereo_44KHz.wav
1	136	3	3	2	I	2	0	927	0	poli_8sides 15_whiteLine3.jpg	Medium_e26_stereo_44KHz.wav
1	137	4	4	2	I	0	0	0	0	poli_8sides 1_whiteLine3.jpg	MediumLong_e04_stereo_44KHz.wav
1	138	3	4	2	I	2	0	1012	0	poli_8sides 15_whiteLine3.jpg	MediumLong_e04_stereo_44KHz.wav
1	139	1	2	0	C	1	0	1677	0	poli_8sides 11_whiteLine3.jpg	MediumLong_e19_stereo_44KHz.wav
1	140	2	2	1	C	1	1	1365	1	poli_8sides 8_whiteLine3.jpg	MediumLong_e19_stereo_44KHz.wav
1	141	1	1	1	C	1	1	1698	1	poli_8sides 11_whiteLine3.jpg	Medium_e13_stereo_44KHz.wav
1	142	4	3	2	I	2	0	1184	0	poli_8sides 1_whiteLine3.jpg	Medium_e26_stereo_44KHz.wav
1	143	3	3	2	I	2	0	922	0	poli_8sides 15_whiteLine3.jpg	Medium_e26_stereo_44KHz.wav
1	144	2	1	0	C	2	1	1467	1	poli_8sides 8_whiteLine3.jpg	Medium_e13_stereo_44KHz.wav
1	145	1	2	0	C	2	1	1045	1	poli_8sides 11_whiteLine3.jpg	MediumLong_e19_stereo_44KHz.wav
1	146	3	3	2	I	2	0	1424	1	poli_8sides 15_whiteLine3.jpg	Medium_e26_stereo_44KHz.wav
1	147	2	1	0	C	0	0	0	0	poli_8sides 8_whiteLine3.jpg	Medium_e13_stereo_44KHz.wav
1	148	4	4	2	I	2	0	845	1	poli_8sides 1_whiteLine3.jpg	MediumLong_e04_stereo_44KHz.wav
1	149	3	4	2	I	0	0	0	0	poli_8sides 15_whiteLine3.jpg	MediumLong_e04_stereo_44KHz.wav
1	150	2	2	1	C	1	1	1640	1	poli_8sides 8_whiteLine3.jpg	MediumLong_e19_stereo_44KHz.wav
1	151	1	1	1	C	1	1	1688	1	poli_8sides 11_whiteLine3.jpg	Medium_e13_stereo_44KHz.wav
1	152	4	3	2	I	1	0	1587	0	poli_8sides 1_whiteLine3.jpg	Medium_e26_stereo_44KHz.wav
1	153	2	2	1	C	0	0	0	0	poli_8sides 8_whiteLine3.jpg	MediumLong_e19_stereo_44KHz.wav
1	154	4	3	2	I	2	0	1058	1	poli_8sides 1_whiteLine3.jpg	Medium_e26_stereo_44KHz.wav
1	155	1	2	0	C	2	1	1152	1	poli_8sides 11_whiteLine3.jpg	MediumLong_e19_stereo_44KHz.wav
1	156	3	3	2	I	1	0	1110	0	poli_8sides 15_whiteLine3.jpg	Medium_e26_stereo_44KHz.wav
1	157	4	4	2	I	2	0	1034	0	poli_8sides 1_whiteLine3.jpg	MediumLong_e04_stereo_44KHz.wav
1	158	3	4	2	I	2	0	656	0	poli_8sides 15_whiteLine3.jpg	MediumLong_e04_stereo_44KHz.wav
1	159	1	1	1	C	1	1	1232	1	poli_8sides 11_whiteLine3.jpg	Medium_e13_stereo_44KHz.wav
1	160	2	1	0	C	2	1	927	1	poli_8sides 8_whiteLine3.jpg	Medium_e13_stereo_44KHz.wav
1	161	1	2	0	C	1	0	855	0	poli_8sides 11_whiteLine3.jpg	MediumLong_e19_stereo_44KHz.wav
1	162	2	2	1	C	1	1	927	1	poli_8sides 8_whiteLine3.jpg	MediumLong_e19_stereo_44KHz.wav
1	163	3	3	2	I	2	0	1124	0	poli_8sides 15_whiteLine3.jpg	Medium_e26_stereo_44KHz.wav
1	164	4	3	2	I	2	0	895	1	poli_8sides 1_whiteLine3.jpg	Medium_e26_stereo_44KHz.wav
1	165	1	1	1	C	1	1	1268	1	poli_8sides 11_whiteLine3.jpg	Medium_e13_stereo_44KHz.wav
1	166	4	4	2	I	2	0	1073	1	poli_8sides 1_whiteLine3.jpg	MediumLong_e04_stereo_44KHz.wav
1	167	3	4	2	I	1	0	928	0	poli_8sides 15_whiteLine3.jpg	MediumLong_e04_stereo_44KHz.wav
1	168	2	1	0	C	2	1	1244	1	poli_8sides 8_whiteLine3.jpg	Medium_e13_stereo_44KHz.wav
1	169	1	1	1	C	1	1	885	1	poli_8sides 11_whiteLine3.jpg	Medium_e13_stereo_44KHz.wav
1	170	3	4	2	I	2	0	1310	1	poli_8sides 15_whiteLine3.jpg	MediumLong_e04_stereo_44KHz.wav
1	171	4	4	2	I	2	0	1014	0	poli_8sides 1_whiteLine3.jpg	MediumLong_e04_stereo_44KHz.wav
1	172	2	1	0	C	2	1	1130	1	poli_8sides 8_whiteLine3.jpg	Medium_e13_stereo_44KHz.wav
1	173	3	3	2	I	2	0	1098	1	poli_8sides 15_whiteLine3.jpg	Medium_e26_stereo_44KHz.wav
1	174	1	2	0	C	2	1	1127	1	poli_8sides 11_whiteLine3.jpg	MediumLong_e19_stereo_44KHz.wav
1	175	2	2	1	C	1	1	938	1	poli_8sides 8_whiteLine3.jpg	MediumLong_e19_stereo_44KHz.wav
1	176	4	3	2	I	1	0	1454	0	poli_8sides 1_whiteLine3.jpg	Medium_e26_stereo_44KHz.wav
1	177	3	4	2	I	1	0	1294	1	poli_8sides 15_whiteLine3.jpg	MediumLong_e04_stereo_44KHz.wav
1	178	2	1	0	C	2	1	1283	1	poli_8sides 8_whiteLine3.jpg	Medium_e13_stereo_44KHz.wav
1	179	4	3	2	I	1	0	1088	0	poli_8sides 1_whiteLine3.jpg	Medium_e26_stereo_44KHz.wav
1	180	1	1	1	C	1	1	1319	1	poli_8sides 11_whiteLine3.jpg	Medium_e13_stereo_44KHz.wav
1	181	3	3	2	I	2	0	1147	1	poli_8sides 15_whiteLine3.jpg	Medium_e26_stereo_44KHz.wav
1	182	4	4	2	I	2	0	836	0	poli_8sides 1_whiteLine3.jpg	MediumLong_e04_stereo_44KHz.wav
1	183	1	2	0	C	2	1	1294	1	poli_8sides 11_whiteLine3.jpg	MediumLong_e19_stereo_44KHz.wav
1	184	2	2	1	C	1	1	742	1	poli_8sides 8_whiteLine3.jpg	MediumLong_e19_stereo_44KHz.wav
1	185	1	2	0	C	2	1	880	1	poli_8sides 11_whiteLine3.jpg	MediumLong_e19_stereo_44KHz.wav
1	186	4	4	2	I	1	0	1060	1	poli_8sides 1_whiteLine3.jpg	MediumLong_e04_stereo_44KHz.wav
1	187	3	4	2	I	1	0	1606	0	poli_8sides 15_whiteLine3.jpg	MediumLong_e04_stereo_44KHz.wav
1	188	2	1	0	C	2	1	1133	1	poli_8sides 8_whiteLine3.jpg	Medium_e13_stereo_44KHz.wav
1	189	4	3	2	I	1	0	1142	1	poli_8sides 1_whiteLine3.jpg	Medium_e26_stereo_44KHz.wav
1	190	2	2	1	C	1	1	1248	1	poli_8sides 8_whiteLine3.jpg	MediumLong_e19_stereo_44KHz.wav
1	191	1	1	1	C	1	1	1006	1	poli_8sides 11_whiteLine3.jpg	Medium_e13_stereo_44KHz.wav
1	192	3	3	2	I	2	0	1196	1	poli_8sides 15_whiteLine3.jpg	Medium_e26_stereo_44KHz.wav
1	193	2	2	1	C	1	1	1215	1	poli_8sides 8_whiteLine3.jpg	MediumLong_e19_stereo_44KHz.wav
1	194	1	1	1	C	1	1	1112	1	poli_8sides 11_whiteLine3.jpg	Medium_e13_stereo_44KHz.wav
1	195	3	4	2	I	1	0	1142	0	poli_8sides 15_whiteLine3.jpg	MediumLong_e04_stereo_44KHz.wav
1	196	4	4	2	I	0	0	0	0	poli_8sides 1_whiteLine3.jpg	MediumLong_e04_stereo_44KHz.wav
1	197	2	1	0	C	2	1	1220	1	poli_8sides 8_whiteLine3.jpg	Medium_e13_stereo_44KHz.wav
1	198	3	3	2	I	2	0	1330	0	poli_8sides 15_whiteLine3.jpg	Medium_e26_stereo_44KHz.wav
1	199	1	2	0	C	2	1	1255	1	poli_8sides 11_whiteLine3.jpg	MediumLong_e19_stereo_44KHz.wav
1	200	4	3	2	I	1	0	896	1	poli_8sides 1_whiteLine3.jpg	Medium_e26_stereo_44KHz.wav
2	1	1	2	0	C	2	1	1409	1	poli_8sides 12_whiteLine3.jpg	MediumLong_b10_cut2_L_stereo_44KHz.wav
2	2	3	4	2	I	2	0	1241	1	poli_8sides 2_whiteLine3.jpg	MediumLong_e17_cut2_stereo_44KHz.wav
2	3	4	4	2	I	1	0	1349	1	poli_8sides 13_whiteLine3.jpg	MediumLong_e17_cut2_stereo_44KHz.wav
2	4	2	1	0	C	2	1	1319	1	poli_8sides 3_whiteLine3.jpg	Medium_e21_stereo_44KHz.wav
2	5	4	3	2	I	2	0	1253	0	poli_8sides 13_whiteLine3.jpg	Medium_e01_cut1_stereo_44KHz.wav
2	6	2	2	1	C	1	1	1444	1	poli_8sides 3_whiteLine3.jpg	MediumLong_b10_cut2_L_stereo_44KHz.wav
2	7	3	3	2	I	2	0	1709	1	poli_8sides 2_whiteLine3.jpg	Medium_e01_cut1_stereo_44KHz.wav
2	8	1	1	1	C	2	0	1163	0	poli_8sides 12_whiteLine3.jpg	Medium_e21_stereo_44KHz.wav
2	9	3	3	2	I	2	0	1802	0	poli_8sides 2_whiteLine3.jpg	Medium_e01_cut1_stereo_44KHz.wav
2	10	2	1	0	C	0	0	0	0	poli_8sides 3_whiteLine3.jpg	Medium_e21_stereo_44KHz.wav
2	11	4	4	2	I	2	0	1451	1	poli_8sides 13_whiteLine3.jpg	MediumLong_e17_cut2_stereo_44KHz.wav
2	12	1	2	0	C	2	1	1480	1	poli_8sides 12_whiteLine3.jpg	MediumLong_b10_cut2_L_stereo_44KHz.wav
2	13	4	3	2	I	1	0	1619	0	poli_8sides 13_whiteLine3.jpg	Medium_e01_cut1_stereo_44KHz.wav
2	14	3	4	2	I	2	0	1737	1	poli_8sides 2_whiteLine3.jpg	MediumLong_e17_cut2_stereo_44KHz.wav
2	15	2	2	1	C	1	1	1950	1	poli_8sides 3_whiteLine3.jpg	MediumLong_b10_cut2_L_stereo_44KHz.wav
2	16	1	1	1	C	0	0	0	0	poli_8sides 12_whiteLine3.jpg	Medium_e21_stereo_44KHz.wav
2	17	2	1	0	C	2	1	955	1	poli_8sides 3_whiteLine3.jpg	Medium_e21_stereo_44KHz.wav
2	18	3	3	2	I	1	0	1124	1	poli_8sides 2_whiteLine3.jpg	Medium_e01_cut1_stereo_44KHz.wav
2	19	4	4	2	I	2	0	1115	1	poli_8sides 13_whiteLine3.jpg	MediumLong_e17_cut2_stereo_44KHz.wav
2	20	1	2	0	C	2	1	958	1	poli_8sides 12_whiteLine3.jpg	MediumLong_b10_cut2_L_stereo_44KHz.wav
2	21	3	4	2	I	2	0	740	1	poli_8sides 2_whiteLine3.jpg	MediumLong_e17_cut2_stereo_44KHz.wav
2	22	2	2	1	C	1	1	1092	1	poli_8sides 3_whiteLine3.jpg	MediumLong_b10_cut2_L_stereo_44KHz.wav
2	23	1	1	1	C	1	1	909	1	poli_8sides 12_whiteLine3.jpg	Medium_e21_stereo_44KHz.wav
2	24	4	3	2	I	1	0	1031	1	poli_8sides 13_whiteLine3.jpg	Medium_e01_cut1_stereo_44KHz.wav
2	25	2	1	0	C	2	1	982	1	poli_8sides 3_whiteLine3.jpg	Medium_e21_stereo_44KHz.wav
2	26	4	3	2	I	1	0	1140	1	poli_8sides 13_whiteLine3.jpg	Medium_e01_cut1_stereo_44KHz.wav
2	27	3	3	2	I	1	0	828	1	poli_8sides 2_whiteLine3.jpg	Medium_e01_cut1_stereo_44KHz.wav
2	28	1	2	0	C	1	0	1486	0	poli_8sides 12_whiteLine3.jpg	MediumLong_b10_cut2_L_stereo_44KHz.wav
2	29	3	4	2	I	2	0	836	0	poli_8sides 2_whiteLine3.jpg	MediumLong_e17_cut2_stereo_44KHz.wav
2	30	1	1	1	C	1	1	1231	1	poli_8sides 12_whiteLine3.jpg	Medium_e21_stereo_44KHz.wav
2	31	2	2	1	C	1	1	816	1	poli_8sides 3_whiteLine3.jpg	MediumLong_b10_cut2_L_stereo_44KHz.wav
2	32	4	4	2	I	2	0	1375	0	poli_8sides 13_whiteLine3.jpg	MediumLong_e17_cut2_stereo_44KHz.wav
2	33	3	4	2	I	2	0	741	0	poli_8sides 2_whiteLine3.jpg	MediumLong_e17_cut2_stereo_44KHz.wav
2	34	1	2	0	C	2	1	978	1	poli_8sides 12_whiteLine3.jpg	MediumLong_b10_cut2_L_stereo_44KHz.wav
2	35	4	4	2	I	2	0	1676	1	poli_8sides 13_whiteLine3.jpg	MediumLong_e17_cut2_stereo_44KHz.wav
2	36	2	1	0	C	2	1	1224	1	poli_8sides 3_whiteLine3.jpg	Medium_e21_stereo_44KHz.wav
2	37	3	3	2	I	1	0	963	1	poli_8sides 2_whiteLine3.jpg	Medium_e01_cut1_stereo_44KHz.wav
2	38	2	2	1	C	1	1	945	1	poli_8sides 3_whiteLine3.jpg	MediumLong_b10_cut2_L_stereo_44KHz.wav
2	39	4	3	2	I	1	0	1382	0	poli_8sides 13_whiteLine3.jpg	Medium_e01_cut1_stereo_44KHz.wav
2	40	1	1	1	C	1	1	801	1	poli_8sides 12_whiteLine3.jpg	Medium_e21_stereo_44KHz.wav
2	41	3	4	2	I	0	0	0	0	poli_8sides 2_whiteLine3.jpg	MediumLong_e17_cut2_stereo_44KHz.wav
2	42	4	4	2	I	2	0	892	1	poli_8sides 13_whiteLine3.jpg	MediumLong_e17_cut2_stereo_44KHz.wav
2	43	1	1	1	C	1	1	1072	1	poli_8sides 12_whiteLine3.jpg	Medium_e21_stereo_44KHz.wav
2	44	2	1	0	C	2	1	1186	1	poli_8sides 3_whiteLine3.jpg	Medium_e21_stereo_44KHz.wav
2	45	3	3	2	I	1	0	1131	0	poli_8sides 2_whiteLine3.jpg	Medium_e01_cut1_stereo_44KHz.wav
2	46	1	2	0	C	2	1	1051	1	poli_8sides 12_whiteLine3.jpg	MediumLong_b10_cut2_L_stereo_44KHz.wav
2	47	2	2	1	C	1	1	741	1	poli_8sides 3_whiteLine3.jpg	MediumLong_b10_cut2_L_stereo_44KHz.wav
2	48	4	3	2	I	1	0	974	1	poli_8sides 13_whiteLine3.jpg	Medium_e01_cut1_stereo_44KHz.wav
2	49	1	1	1	C	1	1	796	1	poli_8sides 12_whiteLine3.jpg	Medium_e21_stereo_44KHz.wav
2	50	2	2	1	C	1	1	830	1	poli_8sides 3_whiteLine3.jpg	MediumLong_b10_cut2_L_stereo_44KHz.wav
2	51	3	4	2	I	1	0	1599	0	poli_8sides 2_whiteLine3.jpg	MediumLong_e17_cut2_stereo_44KHz.wav
2	52	4	3	2	I	1	0	807	1	poli_8sides 13_whiteLine3.jpg	Medium_e01_cut1_stereo_44KHz.wav
2	53	2	1	0	C	2	1	1014	1	poli_8sides 3_whiteLine3.jpg	Medium_e21_stereo_44KHz.wav
2	54	3	3	2	I	1	0	758	0	poli_8sides 2_whiteLine3.jpg	Medium_e01_cut1_stereo_44KHz.wav
2	55	1	2	0	C	2	1	1181	1	poli_8sides 12_whiteLine3.jpg	MediumLong_b10_cut2_L_stereo_44KHz.wav
2	56	4	4	2	I	1	0	1142	0	poli_8sides 13_whiteLine3.jpg	MediumLong_e17_cut2_stereo_44KHz.wav
2	57	2	2	1	C	1	1	892	1	poli_8sides 3_whiteLine3.jpg	MediumLong_b10_cut2_L_stereo_44KHz.wav
2	58	3	4	2	I	2	0	1260	0	poli_8sides 2_whiteLine3.jpg	MediumLong_e17_cut2_stereo_44KHz.wav
2	59	1	1	1	C	1	1	667	1	poli_8sides 12_whiteLine3.jpg	Medium_e21_stereo_44KHz.wav
2	60	4	3	2	I	1	0	1657	0	poli_8sides 13_whiteLine3.jpg	Medium_e01_cut1_stereo_44KHz.wav
2	61	2	1	0	C	2	1	1216	1	poli_8sides 3_whiteLine3.jpg	Medium_e21_stereo_44KHz.wav
2	62	3	3	2	I	1	0	1184	1	poli_8sides 2_whiteLine3.jpg	Medium_e01_cut1_stereo_44KHz.wav
2	63	1	2	0	C	2	1	1130	1	poli_8sides 12_whiteLine3.jpg	MediumLong_b10_cut2_L_stereo_44KHz.wav
2	64	4	4	2	I	2	0	1740	1	poli_8sides 13_whiteLine3.jpg	MediumLong_e17_cut2_stereo_44KHz.wav
2	65	2	2	1	C	1	1	1471	1	poli_8sides 3_whiteLine3.jpg	MediumLong_b10_cut2_L_stereo_44KHz.wav
2	66	3	3	2	I	2	0	1182	1	poli_8sides 2_whiteLine3.jpg	Medium_e01_cut1_stereo_44KHz.wav
2	67	1	1	1	C	1	1	725	1	poli_8sides 12_whiteLine3.jpg	Medium_e21_stereo_44KHz.wav
2	68	4	4	2	I	2	0	1072	0	poli_8sides 13_whiteLine3.jpg	MediumLong_e17_cut2_stereo_44KHz.wav
2	69	3	4	2	I	1	0	1590	0	poli_8sides 2_whiteLine3.jpg	MediumLong_e17_cut2_stereo_44KHz.wav
2	70	4	3	2	I	1	0	898	0	poli_8sides 13_whiteLine3.jpg	Medium_e01_cut1_stereo_44KHz.wav
2	71	2	1	0	C	2	1	1168	1	poli_8sides 3_whiteLine3.jpg	Medium_e21_stereo_44KHz.wav
2	72	1	2	0	C	1	0	1380	0	poli_8sides 12_whiteLine3.jpg	MediumLong_b10_cut2_L_stereo_44KHz.wav
2	73	3	4	2	I	1	0	1421	0	poli_8sides 2_whiteLine3.jpg	MediumLong_e17_cut2_stereo_44KHz.wav
2	74	2	2	1	C	1	1	983	1	poli_8sides 3_whiteLine3.jpg	MediumLong_b10_cut2_L_stereo_44KHz.wav
2	75	4	3	2	I	1	0	957	0	poli_8sides 13_whiteLine3.jpg	Medium_e01_cut1_stereo_44KHz.wav
2	76	1	1	1	C	1	1	1623	1	poli_8sides 12_whiteLine3.jpg	Medium_e21_stereo_44KHz.wav
2	77	4	4	2	I	0	0	0	0	poli_8sides 13_whiteLine3.jpg	MediumLong_e17_cut2_stereo_44KHz.wav
2	78	3	3	2	I	1	0	976	1	poli_8sides 2_whiteLine3.jpg	Medium_e01_cut1_stereo_44KHz.wav
2	79	1	2	0	C	2	1	1023	1	poli_8sides 12_whiteLine3.jpg	MediumLong_b10_cut2_L_stereo_44KHz.wav
2	80	2	1	0	C	2	1	903	1	poli_8sides 3_whiteLine3.jpg	Medium_e21_stereo_44KHz.wav
2	81	1	1	1	C	1	1	674	1	poli_8sides 12_whiteLine3.jpg	Medium_e21_stereo_44KHz.wav
2	82	2	2	1	C	1	1	964	1	poli_8sides 3_whiteLine3.jpg	MediumLong_b10_cut2_L_stereo_44KHz.wav
2	83	4	4	2	I	1	0	954	0	poli_8sides 13_whiteLine3.jpg	MediumLong_e17_cut2_stereo_44KHz.wav
2	84	3	3	2	I	1	0	861	0	poli_8sides 2_whiteLine3.jpg	Medium_e01_cut1_stereo_44KHz.wav
2	85	4	3	2	I	1	0	1143	1	poli_8sides 13_whiteLine3.jpg	Medium_e01_cut1_stereo_44KHz.wav
2	86	2	1	0	C	2	1	734	1	poli_8sides 3_whiteLine3.jpg	Medium_e21_stereo_44KHz.wav
2	87	3	4	2	I	1	0	1693	1	poli_8sides 2_whiteLine3.jpg	MediumLong_e17_cut2_stereo_44KHz.wav
2	88	1	2	0	C	2	1	915	1	poli_8sides 12_whiteLine3.jpg	MediumLong_b10_cut2_L_stereo_44KHz.wav
2	89	2	2	1	C	1	1	1170	1	poli_8sides 3_whiteLine3.jpg	MediumLong_b10_cut2_L_stereo_44KHz.wav
2	90	3	4	2	I	2	0	1522	0	poli_8sides 2_whiteLine3.jpg	MediumLong_e17_cut2_stereo_44KHz.wav
2	91	1	2	0	C	2	1	1159	1	poli_8sides 12_whiteLine3.jpg	MediumLong_b10_cut2_L_stereo_44KHz.wav
2	92	4	3	2	I	2	0	1142	1	poli_8sides 13_whiteLine3.jpg	Medium_e01_cut1_stereo_44KHz.wav
2	93	2	1	0	C	2	1	911	1	poli_8sides 3_whiteLine3.jpg	Medium_e21_stereo_44KHz.wav
2	94	4	4	2	I	2	0	1158	1	poli_8sides 13_whiteLine3.jpg	MediumLong_e17_cut2_stereo_44KHz.wav
2	95	1	1	1	C	1	1	739	1	poli_8sides 12_whiteLine3.jpg	Medium_e21_stereo_44KHz.wav
2	96	3	3	2	I	1	0	906	1	poli_8sides 2_whiteLine3.jpg	Medium_e01_cut1_stereo_44KHz.wav
2	97	2	1	0	C	2	1	867	1	poli_8sides 3_whiteLine3.jpg	Medium_e21_stereo_44KHz.wav
2	98	4	3	2	I	0	0	0	0	poli_8sides 13_whiteLine3.jpg	Medium_e01_cut1_stereo_44KHz.wav
2	99	1	1	1	C	1	1	865	1	poli_8sides 12_whiteLine3.jpg	Medium_e21_stereo_44KHz.wav
2	100	3	3	2	I	1	0	864	0	poli_8sides 2_whiteLine3.jpg	Medium_e01_cut1_stereo_44KHz.wav
2	101	1	2	0	C	2	1	1124	1	poli_8sides 12_whiteLine3.jpg	MediumLong_b10_cut2_L_stereo_44KHz.wav
2	102	4	4	2	I	1	0	1475	0	poli_8sides 13_whiteLine3.jpg	MediumLong_e17_cut2_stereo_44KHz.wav
2	103	2	2	1	C	1	1	1095	1	poli_8sides 3_whiteLine3.jpg	MediumLong_b10_cut2_L_stereo_44KHz.wav
2	104	3	4	2	I	1	0	1005	1	poli_8sides 2_whiteLine3.jpg	MediumLong_e17_cut2_stereo_44KHz.wav
2	105	1	2	0	C	2	1	1182	1	poli_8sides 12_whiteLine3.jpg	MediumLong_b10_cut2_L_stereo_44KHz.wav
2	106	4	4	2	I	1	0	1214	0	poli_8sides 13_whiteLine3.jpg	MediumLong_e17_cut2_stereo_44KHz.wav
2	107	3	3	2	I	2	0	1396	1	poli_8sides 2_whiteLine3.jpg	Medium_e01_cut1_stereo_44KHz.wav
2	108	2	1	0	C	2	1	778	1	poli_8sides 3_whiteLine3.jpg	Medium_e21_stereo_44KHz.wav
2	109	1	1	1	C	1	1	697	1	poli_8sides 12_whiteLine3.jpg	Medium_e21_stereo_44KHz.wav
2	110	4	3	2	I	1	0	1327	0	poli_8sides 13_whiteLine3.jpg	Medium_e01_cut1_stereo_44KHz.wav
2	111	2	2	1	C	1	1	845	1	poli_8sides 3_whiteLine3.jpg	MediumLong_b10_cut2_L_stereo_44KHz.wav
2	112	3	4	2	I	0	0	0	0	poli_8sides 2_whiteLine3.jpg	MediumLong_e17_cut2_stereo_44KHz.wav
2	113	2	1	0	C	2	1	802	1	poli_8sides 3_whiteLine3.jpg	Medium_e21_stereo_44KHz.wav
2	114	3	4	2	I	1	0	1215	0	poli_8sides 2_whiteLine3.jpg	MediumLong_e17_cut2_stereo_44KHz.wav
2	115	4	4	2	I	1	0	1216	1	poli_8sides 13_whiteLine3.jpg	MediumLong_e17_cut2_stereo_44KHz.wav
2	116	1	2	0	C	2	1	1548	1	poli_8sides 12_whiteLine3.jpg	MediumLong_b10_cut2_L_stereo_44KHz.wav
2	117	4	3	2	I	0	0	0	0	poli_8sides 13_whiteLine3.jpg	Medium_e01_cut1_stereo_44KHz.wav
2	118	2	2	1	C	1	1	913	1	poli_8sides 3_whiteLine3.jpg	MediumLong_b10_cut2_L_stereo_44KHz.wav
2	119	3	3	2	I	1	0	1047	0	poli_8sides 2_whiteLine3.jpg	Medium_e01_cut1_stereo_44KHz.wav
2	120	1	1	1	C	1	1	763	1	poli_8sides 12_whiteLine3.jpg	Medium_e21_stereo_44KHz.wav
2	121	3	3	2	I	2	0	695	1	poli_8sides 2_whiteLine3.jpg	Medium_e01_cut1_stereo_44KHz.wav
2	122	2	2	1	C	1	1	981	1	poli_8sides 3_whiteLine3.jpg	MediumLong_b10_cut2_L_stereo_44KHz.wav
2	123	1	2	0	C	2	1	1178	1	poli_8sides 12_whiteLine3.jpg	MediumLong_b10_cut2_L_stereo_44KHz.wav
2	124	4	3	2	I	1	0	1761	1	poli_8sides 13_whiteLine3.jpg	Medium_e01_cut1_stereo_44KHz.wav
2	125	1	1	1	C	1	1	1626	1	poli_8sides 12_whiteLine3.jpg	Medium_e21_stereo_44KHz.wav
2	126	3	4	2	I	2	0	1446	1	poli_8sides 2_whiteLine3.jpg	MediumLong_e17_cut2_stereo_44KHz.wav
2	127	4	4	2	I	2	0	790	0	poli_8sides 13_whiteLine3.jpg	MediumLong_e17_cut2_stereo_44KHz.wav
2	128	2	1	0	C	2	1	1212	1	poli_8sides 3_whiteLine3.jpg	Medium_e21_stereo_44KHz.wav
2	129	4	3	2	I	0	0	0	0	poli_8sides 13_whiteLine3.jpg	Medium_e01_cut1_stereo_44KHz.wav
2	130	2	2	1	C	1	1	987	1	poli_8sides 3_whiteLine3.jpg	MediumLong_b10_cut2_L_stereo_44KHz.wav
2	131	3	4	2	I	2	0	885	1	poli_8sides 2_whiteLine3.jpg	MediumLong_e17_cut2_stereo_44KHz.wav
2	132	1	1	1	C	1	1	844	1	poli_8sides 12_whiteLine3.jpg	Medium_e21_stereo_44KHz.wav
2	133	3	3	2	I	2	0	1439	0	poli_8sides 2_whiteLine3.jpg	Medium_e01_cut1_stereo_44KHz.wav
2	134	1	2	0	C	1	0	780	0	poli_8sides 12_whiteLine3.jpg	MediumLong_b10_cut2_L_stereo_44KHz.wav
2	135	4	4	2	I	2	0	1452	0	poli_8sides 13_whiteLine3.jpg	MediumLong_e17_cut2_stereo_44KHz.wav
2	136	2	1	0	C	2	1	890	1	poli_8sides 3_whiteLine3.jpg	Medium_e21_stereo_44KHz.wav
2	137	1	2	0	C	2	1	892	1	poli_8sides 12_whiteLine3.jpg	MediumLong_b10_cut2_L_stereo_44KHz.wav
2	138	4	3	2	I	1	0	1629	0	poli_8sides 13_whiteLine3.jpg	Medium_e01_cut1_stereo_44KHz.wav
2	139	3	4	2	I	2	0	1107	1	poli_8sides 2_whiteLine3.jpg	MediumLong_e17_cut2_stereo_44KHz.wav
2	140	2	2	1	C	1	1	842	1	poli_8sides 3_whiteLine3.jpg	MediumLong_b10_cut2_L_stereo_44KHz.wav
2	141	3	3	2	I	2	0	918	1	poli_8sides 2_whiteLine3.jpg	Medium_e01_cut1_stereo_44KHz.wav
2	142	1	1	1	C	1	1	1065	1	poli_8sides 12_whiteLine3.jpg	Medium_e21_stereo_44KHz.wav
2	143	2	1	0	C	2	1	907	1	poli_8sides 3_whiteLine3.jpg	Medium_e21_stereo_44KHz.wav
2	144	4	4	2	I	2	0	1844	0	poli_8sides 13_whiteLine3.jpg	MediumLong_e17_cut2_stereo_44KHz.wav
2	145	3	3	2	I	2	0	1581	0	poli_8sides 2_whiteLine3.jpg	Medium_e01_cut1_stereo_44KHz.wav
2	146	4	3	2	I	1	0	1253	0	poli_8sides 13_whiteLine3.jpg	Medium_e01_cut1_stereo_44KHz.wav
2	147	2	2	1	C	1	1	1219	1	poli_8sides 3_whiteLine3.jpg	MediumLong_b10_cut2_L_stereo_44KHz.wav
2	148	1	2	0	C	2	1	1103	1	poli_8sides 12_whiteLine3.jpg	MediumLong_b10_cut2_L_stereo_44KHz.wav
2	149	4	4	2	I	2	0	1419	1	poli_8sides 13_whiteLine3.jpg	MediumLong_e17_cut2_stereo_44KHz.wav
2	150	3	4	2	I	1	0	1046	0	poli_8sides 2_whiteLine3.jpg	MediumLong_e17_cut2_stereo_44KHz.wav
2	151	2	1	0	C	2	1	739	1	poli_8sides 3_whiteLine3.jpg	Medium_e21_stereo_44KHz.wav
2	152	1	1	1	C	1	1	932	1	poli_8sides 12_whiteLine3.jpg	Medium_e21_stereo_44KHz.wav
2	153	4	4	2	I	1	0	1694	1	poli_8sides 13_whiteLine3.jpg	MediumLong_e17_cut2_stereo_44KHz.wav
2	154	3	4	2	I	2	0	1515	0	poli_8sides 2_whiteLine3.jpg	MediumLong_e17_cut2_stereo_44KHz.wav
2	155	1	1	1	C	1	1	751	1	poli_8sides 12_whiteLine3.jpg	Medium_e21_stereo_44KHz.wav
2	156	2	1	0	C	2	1	1075	1	poli_8sides 3_whiteLine3.jpg	Medium_e21_stereo_44KHz.wav
2	157	3	3	2	I	2	0	1161	1	poli_8sides 2_whiteLine3.jpg	Medium_e01_cut1_stereo_44KHz.wav
2	158	2	2	1	C	1	1	1051	1	poli_8sides 3_whiteLine3.jpg	MediumLong_b10_cut2_L_stereo_44KHz.wav
2	159	4	3	2	I	0	0	0	0	poli_8sides 13_whiteLine3.jpg	Medium_e01_cut1_stereo_44KHz.wav
2	160	1	2	0	C	2	1	1174	1	poli_8sides 12_whiteLine3.jpg	MediumLong_b10_cut2_L_stereo_44KHz.wav
2	161	2	1	0	C	2	1	883	1	poli_8sides 3_whiteLine3.jpg	Medium_e21_stereo_44KHz.wav
2	162	1	1	1	C	1	1	697	1	poli_8sides 12_whiteLine3.jpg	Medium_e21_stereo_44KHz.wav
2	163	4	4	2	I	2	0	1278	1	poli_8sides 13_whiteLine3.jpg	MediumLong_e17_cut2_stereo_44KHz.wav
2	164	3	3	2	I	2	0	895	0	poli_8sides 2_whiteLine3.jpg	Medium_e01_cut1_stereo_44KHz.wav
2	165	2	2	1	C	1	1	921	1	poli_8sides 3_whiteLine3.jpg	MediumLong_b10_cut2_L_stereo_44KHz.wav
2	166	4	3	2	I	2	0	1629	1	poli_8sides 13_whiteLine3.jpg	Medium_e01_cut1_stereo_44KHz.wav
2	167	1	2	0	C	2	1	1173	1	poli_8sides 12_whiteLine3.jpg	MediumLong_b10_cut2_L_stereo_44KHz.wav
2	168	3	4	2	I	1	0	1366	1	poli_8sides 2_whiteLine3.jpg	MediumLong_e17_cut2_stereo_44KHz.wav
2	169	2	1	0	C	2	1	812	1	poli_8sides 3_whiteLine3.jpg	Medium_e21_stereo_44KHz.wav
2	170	3	3	2	I	2	0	888	0	poli_8sides 2_whiteLine3.jpg	Medium_e01_cut1_stereo_44KHz.wav
2	171	4	4	2	I	2	0	1220	0	poli_8sides 13_whiteLine3.jpg	MediumLong_e17_cut2_stereo_44KHz.wav
2	172	1	1	1	C	1	1	754	1	poli_8sides 12_whiteLine3.jpg	Medium_e21_stereo_44KHz.wav
2	173	4	3	2	I	1	0	1271	1	poli_8sides 13_whiteLine3.jpg	Medium_e01_cut1_stereo_44KHz.wav
2	174	3	4	2	I	1	0	1895	0	poli_8sides 2_whiteLine3.jpg	MediumLong_e17_cut2_stereo_44KHz.wav
2	175	1	2	0	C	2	1	812	1	poli_8sides 12_whiteLine3.jpg	MediumLong_b10_cut2_L_stereo_44KHz.wav
2	176	2	2	1	C	1	1	990	1	poli_8sides 3_whiteLine3.jpg	MediumLong_b10_cut2_L_stereo_44KHz.wav
2	177	4	3	2	I	1	0	837	1	poli_8sides 13_whiteLine3.jpg	Medium_e01_cut1_stereo_44KHz.wav
2	178	1	1	1	C	1	1	1009	1	poli_8sides 12_whiteLine3.jpg	Medium_e21_stereo_44KHz.wav
2	179	3	3	2	I	2	0	882	0	poli_8sides 2_whiteLine3.jpg	Medium_e01_cut1_stereo_44KHz.wav
2	180	2	1	0	C	2	1	752	1	poli_8sides 3_whiteLine3.jpg	Medium_e21_stereo_44KHz.wav
2	181	3	4	2	I	0	0	0	0	poli_8sides 2_whiteLine3.jpg	MediumLong_e17_cut2_stereo_44KHz.wav
2	182	2	2	1	C	1	1	862	1	poli_8sides 3_whiteLine3.jpg	MediumLong_b10_cut2_L_stereo_44KHz.wav
2	183	4	4	2	I	2	0	1823	0	poli_8sides 13_whiteLine3.jpg	MediumLong_e17_cut2_stereo_44KHz.wav
2	184	1	2	0	C	1	0	1628	0	poli_8sides 12_whiteLine3.jpg	MediumLong_b10_cut2_L_stereo_44KHz.wav
2	185	2	2	1	C	1	1	1383	1	poli_8sides 3_whiteLine3.jpg	MediumLong_b10_cut2_L_stereo_44KHz.wav
2	186	3	4	2	I	2	0	1517	1	poli_8sides 2_whiteLine3.jpg	MediumLong_e17_cut2_stereo_44KHz.wav
2	187	4	4	2	I	1	0	1090	0	poli_8sides 13_whiteLine3.jpg	MediumLong_e17_cut2_stereo_44KHz.wav
2	188	1	1	1	C	1	1	947	1	poli_8sides 12_whiteLine3.jpg	Medium_e21_stereo_44KHz.wav
2	189	4	3	2	I	1	0	1218	0	poli_8sides 13_whiteLine3.jpg	Medium_e01_cut1_stereo_44KHz.wav
2	190	3	3	2	I	2	0	853	0	poli_8sides 2_whiteLine3.jpg	Medium_e01_cut1_stereo_44KHz.wav
2	191	2	1	0	C	2	1	879	1	poli_8sides 3_whiteLine3.jpg	Medium_e21_stereo_44KHz.wav
2	192	1	2	0	C	2	1	1432	1	poli_8sides 12_whiteLine3.jpg	MediumLong_b10_cut2_L_stereo_44KHz.wav
2	193	2	1	0	C	2	1	865	1	poli_8sides 3_whiteLine3.jpg	Medium_e21_stereo_44KHz.wav
2	194	4	3	2	I	2	0	1239	1	poli_8sides 13_whiteLine3.jpg	Medium_e01_cut1_stereo_44KHz.wav
2	195	3	3	2	I	1	0	756	1	poli_8sides 2_whiteLine3.jpg	Medium_e01_cut1_stereo_44KHz.wav
2	196	1	2	0	C	2	1	1025	1	poli_8sides 12_whiteLine3.jpg	MediumLong_b10_cut2_L_stereo_44KHz.wav
2	197	2	2	1	C	1	1	781	1	poli_8sides 3_whiteLine3.jpg	MediumLong_b10_cut2_L_stereo_44KHz.wav
2	198	4	4	2	I	2	0	1195	1	poli_8sides 13_whiteLine3.jpg	MediumLong_e17_cut2_stereo_44KHz.wav
2	199	3	4	2	I	1	0	1238	1	poli_8sides 2_whiteLine3.jpg	MediumLong_e17_cut2_stereo_44KHz.wav
2	200	1	1	1	C	1	1	811	1	poli_8sides 12_whiteLine3.jpg	Medium_e21_stereo_44KHz.wav
3	1	3	3	2	I	0	0	0	0	poli_8sides 9_whiteLine3.jpg	MediumShort_b16_cut3_MS_stereo_44KHz.wav
3	2	4	3	2	I	2	0	856	1	poli_8sides 16_whiteLine3.jpg	MediumShort_b16_cut3_MS_stereo_44KHz.wav
3	3	2	2	1	C	2	0	1363	0	poli_8sides 4_whiteLine3.jpg	MediumShort_e16_cut1_stereo_44KHz.wav
3	4	1	1	1	C	1	1	711	1	poli_8sides 6_whiteLine3.jpg	MediumShort_b10_cut1_MS_stereo_44KHz.wav
3	5	2	1	0	C	2	1	1513	1	poli_8sides 4_whiteLine3.jpg	MediumShort_b10_cut1_MS_stereo_44KHz.wav
3	6	1	2	0	C	2	1	1437	1	poli_8sides 6_whiteLine3.jpg	MediumShort_e16_cut1_stereo_44KHz.wav
3	7	4	4	2	I	1	0	1450	1	poli_8sides 16_whiteLine3.jpg	MediumShort_e22_cut1_stereo_44KHz.wav
3	8	3	4	2	I	2	0	1178	1	poli_8sides 9_whiteLine3.jpg	MediumShort_e22_cut1_stereo_44KHz.wav
3	9	4	3	2	I	0	0	0	0	poli_8sides 16_whiteLine3.jpg	MediumShort_b16_cut3_MS_stereo_44KHz.wav
3	10	3	3	2	I	1	0	960	1	poli_8sides 9_whiteLine3.jpg	MediumShort_b16_cut3_MS_stereo_44KHz.wav
3	11	2	2	1	C	2	0	1309	0	poli_8sides 4_whiteLine3.jpg	MediumShort_e16_cut1_stereo_44KHz.wav
3	12	1	2	0	C	2	1	910	1	poli_8sides 6_whiteLine3.jpg	MediumShort_e16_cut1_stereo_44KHz.wav
3	13	2	1	0	C	2	1	1431	1	poli_8sides 4_whiteLine3.jpg	MediumShort_b10_cut1_MS_stereo_44KHz.wav
3	14	1	1	1	C	1	1	730	1	poli_8sides 6_whiteLine3.jpg	MediumShort_b10_cut1_MS_stereo_44KHz.wav
3	15	3	4	2	I	2	0	1264	0	poli_8sides 9_whiteLine3.jpg	MediumShort_e22_cut1_stereo_44KHz.wav
3	16	4	4	2	I	2	0	730	1	poli_8sides 16_whiteLine3.jpg	MediumShort_e22_cut1_stereo_44KHz.wav
3	17	1	1	1	C	1	1	1172	1	poli_8sides 6_whiteLine3.jpg	MediumShort_b10_cut1_MS_stereo_44KHz.wav
3	18	2	2	1	C	1	1	1208	1	poli_8sides 4_whiteLine3.jpg	MediumShort_e16_cut1_stereo_44KHz.wav
3	19	3	3	2	I	2	0	1309	0	poli_8sides 9_whiteLine3.jpg	MediumShort_b16_cut3_MS_stereo_44KHz.wav
3	20	4	4	2	I	1	0	1155	1	poli_8sides 16_whiteLine3.jpg	MediumShort_e22_cut1_stereo_44KHz.wav
3	21	3	4	2	I	1	0	1730	0	poli_8sides 9_whiteLine3.jpg	MediumShort_e22_cut1_stereo_44KHz.wav
3	22	2	1	0	C	2	1	1005	1	poli_8sides 4_whiteLine3.jpg	MediumShort_b10_cut1_MS_stereo_44KHz.wav
3	23	4	3	2	I	2	0	1766	1	poli_8sides 16_whiteLine3.jpg	MediumShort_b16_cut3_MS_stereo_44KHz.wav
3	24	1	2	0	C	2	1	1023	1	poli_8sides 6_whiteLine3.jpg	MediumShort_e16_cut1_stereo_44KHz.wav
3	25	4	4	2	I	2	0	1548	0	poli_8sides 16_whiteLine3.jpg	MediumShort_e22_cut1_stereo_44KHz.wav
3	26	3	4	2	I	0	0	0	0	poli_8sides 9_whiteLine3.jpg	MediumShort_e22_cut1_stereo_44KHz.wav
3	27	1	2	0	C	2	1	768	1	poli_8sides 6_whiteLine3.jpg	MediumShort_e16_cut1_stereo_44KHz.wav
3	28	2	2	1	C	1	1	864	1	poli_8sides 4_whiteLine3.jpg	MediumShort_e16_cut1_stereo_44KHz.wav
3	29	3	3	2	I	2	0	898	0	poli_8sides 9_whiteLine3.jpg	MediumShort_b16_cut3_MS_stereo_44KHz.wav
3	30	2	1	0	C	2	1	920	1	poli_8sides 4_whiteLine3.jpg	MediumShort_b10_cut1_MS_stereo_44KHz.wav
3	31	4	3	2	I	2	0	1597	1	poli_8sides 16_whiteLine3.jpg	MediumShort_b16_cut3_MS_stereo_44KHz.wav
3	32	1	1	1	C	1	1	1010	1	poli_8sides 6_whiteLine3.jpg	MediumShort_b10_cut1_MS_stereo_44KHz.wav
3	33	2	1	0	C	2	1	1208	1	poli_8sides 4_whiteLine3.jpg	MediumShort_b10_cut1_MS_stereo_44KHz.wav
3	34	4	3	2	I	2	0	1169	1	poli_8sides 16_whiteLine3.jpg	MediumShort_b16_cut3_MS_stereo_44KHz.wav
3	35	3	4	2	I	2	0	912	0	poli_8sides 9_whiteLine3.jpg	MediumShort_e22_cut1_stereo_44KHz.wav
3	36	1	2	0	C	2	1	847	1	poli_8sides 6_whiteLine3.jpg	MediumShort_e16_cut1_stereo_44KHz.wav
3	37	4	4	2	I	1	0	1086	0	poli_8sides 16_whiteLine3.jpg	MediumShort_e22_cut1_stereo_44KHz.wav
3	38	2	2	1	C	1	1	1697	1	poli_8sides 4_whiteLine3.jpg	MediumShort_e16_cut1_stereo_44KHz.wav
3	39	3	3	2	I	1	0	1058	0	poli_8sides 9_whiteLine3.jpg	MediumShort_b16_cut3_MS_stereo_44KHz.wav
3	40	1	1	1	C	1	1	987	1	poli_8sides 6_whiteLine3.jpg	MediumShort_b10_cut1_MS_stereo_44KHz.wav
3	41	2	1	0	C	2	1	873	1	poli_8sides 4_whiteLine3.jpg	MediumShort_b10_cut1_MS_stereo_44KHz.wav
3	42	1	1	1	C	1	1	701	1	poli_8sides 6_whiteLine3.jpg	MediumShort_b10_cut1_MS_stereo_44KHz.wav
3	43	3	4	2	I	2	0	703	0	poli_8sides 9_whiteLine3.jpg	MediumShort_e22_cut1_stereo_44KHz.wav
3	44	4	4	2	I	1	0	1143	0	poli_8sides 16_whiteLine3.jpg	MediumShort_e22_cut1_stereo_44KHz.wav
3	45	2	2	1	C	1	1	1546	1	poli_8sides 4_whiteLine3.jpg	MediumShort_e16_cut1_stereo_44KHz.wav
3	46	3	3	2	I	2	0	790	0	poli_8sides 9_whiteLine3.jpg	MediumShort_b16_cut3_MS_stereo_44KHz.wav
3	47	4	3	2	I	2	0	943	1	poli_8sides 16_whiteLine3.jpg	MediumShort_b16_cut3_MS_stereo_44KHz.wav
3	48	1	2	0	C	2	1	700	1	poli_8sides 6_whiteLine3.jpg	MediumShort_e16_cut1_stereo_44KHz.wav
3	49	2	1	0	C	2	1	917	1	poli_8sides 4_whiteLine3.jpg	MediumShort_b10_cut1_MS_stereo_44KHz.wav
3	50	1	1	1	C	1	1	1056	1	poli_8sides 6_whiteLine3.jpg	MediumShort_b10_cut1_MS_stereo_44KHz.wav
3	51	3	4	2	I	2	0	650	1	poli_8sides 9_whiteLine3.jpg	MediumShort_e22_cut1_stereo_44KHz.wav
3	52	4	4	2	I	1	0	1205	1	poli_8sides 16_whiteLine3.jpg	MediumShort_e22_cut1_stereo_44KHz.wav
3	53	2	2	1	C	1	1	1067	1	poli_8sides 4_whiteLine3.jpg	MediumShort_e16_cut1_stereo_44KHz.wav
3	54	1	2	0	C	2	1	829	1	poli_8sides 6_whiteLine3.jpg	MediumShort_e16_cut1_stereo_44KHz.wav
3	55	3	3	2	I	1	0	925	0	poli_8sides 9_whiteLine3.jpg	MediumShort_b16_cut3_MS_stereo_44KHz.wav
3	56	4	3	2	I	2	0	1048	0	poli_8sides 16_whiteLine3.jpg	MediumShort_b16_cut3_MS_stereo_44KHz.wav
3	57	1	2	0	C	2	1	934	1	poli_8sides 6_whiteLine3.jpg	MediumShort_e16_cut1_stereo_44KHz.wav
3	58	3	3	2	I	2	0	1212	0	poli_8sides 9_whiteLine3.jpg	MediumShort_b16_cut3_MS_stereo_44KHz.wav
3	59	4	3	2	I	2	0	825	0	poli_8sides 16_whiteLine3.jpg	MediumShort_b16_cut3_MS_stereo_44KHz.wav
3	60	2	1	0	C	2	1	883	1	poli_8sides 4_whiteLine3.jpg	MediumShort_b10_cut1_MS_stereo_44KHz.wav
3	61	1	1	1	C	1	1	1035	1	poli_8sides 6_whiteLine3.jpg	MediumShort_b10_cut1_MS_stereo_44KHz.wav
3	62	2	2	1	C	1	1	848	1	poli_8sides 4_whiteLine3.jpg	MediumShort_e16_cut1_stereo_44KHz.wav
3	63	3	4	2	I	2	0	747	0	poli_8sides 9_whiteLine3.jpg	MediumShort_e22_cut1_stereo_44KHz.wav
3	64	4	4	2	I	2	0	987	0	poli_8sides 16_whiteLine3.jpg	MediumShort_e22_cut1_stereo_44KHz.wav
3	65	3	4	2	I	2	0	974	1	poli_8sides 9_whiteLine3.jpg	MediumShort_e22_cut1_stereo_44KHz.wav
3	66	4	3	2	I	2	0	1391	0	poli_8sides 16_whiteLine3.jpg	MediumShort_b16_cut3_MS_stereo_44KHz.wav
3	67	2	1	0	C	2	1	992	1	poli_8sides 4_whiteLine3.jpg	MediumShort_b10_cut1_MS_stereo_44KHz.wav
3	68	1	1	1	C	1	1	850	1	poli_8sides 6_whiteLine3.jpg	MediumShort_b10_cut1_MS_stereo_44KHz.wav
3	69	2	2	1	C	1	1	853	1	poli_8sides 4_whiteLine3.jpg	MediumShort_e16_cut1_stereo_44KHz.wav
3	70	3	3	2	I	1	0	1695	0	poli_8sides 9_whiteLine3.jpg	MediumShort_b16_cut3_MS_stereo_44KHz.wav
3	71	4	4	2	I	1	0	1167	1	poli_8sides 16_whiteLine3.jpg	MediumShort_e22_cut1_stereo_44KHz.wav
3	72	1	2	0	C	1	0	1017	0	poli_8sides 6_whiteLine3.jpg	MediumShort_e16_cut1_stereo_44KHz.wav
3	73	2	2	1	C	1	1	840	1	poli_8sides 4_whiteLine3.jpg	MediumShort_e16_cut1_stereo_44KHz.wav
3	74	3	3	2	I	1	0	1015	1	poli_8sides 9_whiteLine3.jpg	MediumShort_b16_cut3_MS_stereo_44KHz.wav
3	75	4	4	2	I	1	0	1101	1	poli_8sides 16_whiteLine3.jpg	MediumShort_e22_cut1_stereo_44KHz.wav
3	76	1	2	0	C	2	1	933	1	poli_8sides 6_whiteLine3.jpg	MediumShort_e16_cut1_stereo_44KHz.wav
3	77	2	1	0	C	2	1	1366	1	poli_8sides 4_whiteLine3.jpg	MediumShort_b10_cut1_MS_stereo_44KHz.wav
3	78	3	4	2	I	2	0	798	1	poli_8sides 9_whiteLine3.jpg	MediumShort_e22_cut1_stereo_44KHz.wav
3	79	4	3	2	I	2	0	1109	1	poli_8sides 16_whiteLine3.jpg	MediumShort_b16_cut3_MS_stereo_44KHz.wav
3	80	1	1	1	C	1	1	1254	1	poli_8sides 6_whiteLine3.jpg	MediumShort_b10_cut1_MS_stereo_44KHz.wav
3	81	3	3	2	I	1	0	808	0	poli_8sides 9_whiteLine3.jpg	MediumShort_b16_cut3_MS_stereo_44KHz.wav
3	82	2	2	1	C	1	1	857	1	poli_8sides 4_whiteLine3.jpg	MediumShort_e16_cut1_stereo_44KHz.wav
3	83	4	4	2	I	1	0	1098	0	poli_8sides 16_whiteLine3.jpg	MediumShort_e22_cut1_stereo_44KHz.wav
3	84	1	1	1	C	1	1	1223	1	poli_8sides 6_whiteLine3.jpg	MediumShort_b10_cut1_MS_stereo_44KHz.wav
3	85	2	1	0	C	2	1	1030	1	poli_8sides 4_whiteLine3.jpg	MediumShort_b10_cut1_MS_stereo_44KHz.wav
3	86	3	4	2	I	2	0	786	1	poli_8sides 9_whiteLine3.jpg	MediumShort_e22_cut1_stereo_44KHz.wav
3	87	1	2	0	C	2	1	856	1	poli_8sides 6_whiteLine3.jpg	MediumShort_e16_cut1_stereo_44KHz.wav
3	88	4	3	2	I	2	0	1142	0	poli_8sides 16_whiteLine3.jpg	MediumShort_b16_cut3_MS_stereo_44KHz.wav
3	89	2	1	0	C	2	1	740	1	poli_8sides 4_whiteLine3.jpg	MediumShort_b10_cut1_MS_stereo_44KHz.wav
3	90	1	1	1	C	1	1	971	1	poli_8sides 6_whiteLine3.jpg	MediumShort_b10_cut1_MS_stereo_44KHz.wav
3	91	3	3	2	I	1	0	820	0	poli_8sides 9_whiteLine3.jpg	MediumShort_b16_cut3_MS_stereo_44KHz.wav
3	92	4	4	2	I	1	0	1803	1	poli_8sides 16_whiteLine3.jpg	MediumShort_e22_cut1_stereo_44KHz.wav
3	93	2	2	1	C	1	1	873	1	poli_8sides 4_whiteLine3.jpg	MediumShort_e16_cut1_stereo_44KHz.wav
3	94	3	4	2	I	2	0	639	1	poli_8sides 9_whiteLine3.jpg	MediumShort_e22_cut1_stereo_44KHz.wav
3	95	4	3	2	I	2	0	1794	1	poli_8sides 16_whiteLine3.jpg	MediumShort_b16_cut3_MS_stereo_44KHz.wav
3	96	1	2	0	C	2	1	726	1	poli_8sides 6_whiteLine3.jpg	MediumShort_e16_cut1_stereo_44KHz.wav
3	97	2	1	0	C	2	1	993	1	poli_8sides 4_whiteLine3.jpg	MediumShort_b10_cut1_MS_stereo_44KHz.wav
3	98	3	4	2	I	2	0	699	1	poli_8sides 9_whiteLine3.jpg	MediumShort_e22_cut1_stereo_44KHz.wav
3	99	1	1	1	C	1	1	1468	1	poli_8sides 6_whiteLine3.jpg	MediumShort_b10_cut1_MS_stereo_44KHz.wav
3	100	4	3	2	I	2	0	1685	0	poli_8sides 16_whiteLine3.jpg	MediumShort_b16_cut3_MS_stereo_44KHz.wav
3	101	1	2	0	C	2	1	1031	1	poli_8sides 6_whiteLine3.jpg	MediumShort_e16_cut1_stereo_44KHz.wav
3	102	2	2	1	C	1	1	1245	1	poli_8sides 4_whiteLine3.jpg	MediumShort_e16_cut1_stereo_44KHz.wav
3	103	4	4	2	I	1	0	1297	0	poli_8sides 16_whiteLine3.jpg	MediumShort_e22_cut1_stereo_44KHz.wav
3	104	3	3	2	I	1	0	880	1	poli_8sides 9_whiteLine3.jpg	MediumShort_b16_cut3_MS_stereo_44KHz.wav
3	105	2	2	1	C	1	1	1056	1	poli_8sides 4_whiteLine3.jpg	MediumShort_e16_cut1_stereo_44KHz.wav
3	106	3	4	2	I	2	0	782	1	poli_8sides 9_whiteLine3.jpg	MediumShort_e22_cut1_stereo_44KHz.wav
3	107	1	1	1	C	1	1	1191	1	poli_8sides 6_whiteLine3.jpg	MediumShort_b10_cut1_MS_stereo_44KHz.wav
3	108	4	3	2	I	0	0	0	0	poli_8sides 16_whiteLine3.jpg	MediumShort_b16_cut3_MS_stereo_44KHz.wav
3	109	2	1	0	C	2	1	862	1	poli_8sides 4_whiteLine3.jpg	MediumShort_b10_cut1_MS_stereo_44KHz.wav
3	110	4	4	2	I	1	0	1104	1	poli_8sides 16_whiteLine3.jpg	MediumShort_e22_cut1_stereo_44KHz.wav
3	111	1	2	0	C	2	1	701	1	poli_8sides 6_whiteLine3.jpg	MediumShort_e16_cut1_stereo_44KHz.wav
3	112	3	3	2	I	1	0	789	0	poli_8sides 9_whiteLine3.jpg	MediumShort_b16_cut3_MS_stereo_44KHz.wav
3	113	1	1	1	C	1	1	865	1	poli_8sides 6_whiteLine3.jpg	MediumShort_b10_cut1_MS_stereo_44KHz.wav
3	114	4	3	2	I	2	0	1480	1	poli_8sides 16_whiteLine3.jpg	MediumShort_b16_cut3_MS_stereo_44KHz.wav
3	115	2	2	1	C	1	1	931	1	poli_8sides 4_whiteLine3.jpg	MediumShort_e16_cut1_stereo_44KHz.wav
3	116	3	4	2	I	2	0	820	1	poli_8sides 9_whiteLine3.jpg	MediumShort_e22_cut1_stereo_44KHz.wav
3	117	4	4	2	I	1	0	860	1	poli_8sides 16_whiteLine3.jpg	MediumShort_e22_cut1_stereo_44KHz.wav
3	118	3	3	2	I	1	0	1332	1	poli_8sides 9_whiteLine3.jpg	MediumShort_b16_cut3_MS_stereo_44KHz.wav
3	119	1	2	0	C	2	1	662	1	poli_8sides 6_whiteLine3.jpg	MediumShort_e16_cut1_stereo_44KHz.wav
3	120	2	1	0	C	1	0	1727	0	poli_8sides 4_whiteLine3.jpg	MediumShort_b10_cut1_MS_stereo_44KHz.wav
3	121	3	4	2	I	2	0	662	0	poli_8sides 9_whiteLine3.jpg	MediumShort_e22_cut1_stereo_44KHz.wav
3	122	2	2	1	C	1	1	992	1	poli_8sides 4_whiteLine3.jpg	MediumShort_e16_cut1_stereo_44KHz.wav
3	123	4	4	2	I	1	0	1156	1	poli_8sides 16_whiteLine3.jpg	MediumShort_e22_cut1_stereo_44KHz.wav
3	124	1	2	0	C	2	1	834	1	poli_8sides 6_whiteLine3.jpg	MediumShort_e16_cut1_stereo_44KHz.wav
3	125	4	3	2	I	1	0	1294	1	poli_8sides 16_whiteLine3.jpg	MediumShort_b16_cut3_MS_stereo_44KHz.wav
3	126	3	3	2	I	2	0	1230	1	poli_8sides 9_whiteLine3.jpg	MediumShort_b16_cut3_MS_stereo_44KHz.wav
3	127	2	1	0	C	2	1	977	1	poli_8sides 4_whiteLine3.jpg	MediumShort_b10_cut1_MS_stereo_44KHz.wav
3	128	1	1	1	C	1	1	1017	1	poli_8sides 6_whiteLine3.jpg	MediumShort_b10_cut1_MS_stereo_44KHz.wav
3	129	2	2	1	C	1	1	1474	1	poli_8sides 4_whiteLine3.jpg	MediumShort_e16_cut1_stereo_44KHz.wav
3	130	3	3	2	I	2	0	1220	0	poli_8sides 9_whiteLine3.jpg	MediumShort_b16_cut3_MS_stereo_44KHz.wav
3	131	1	2	0	C	2	1	753	1	poli_8sides 6_whiteLine3.jpg	MediumShort_e16_cut1_stereo_44KHz.wav
3	132	4	3	2	I	2	0	1982	1	poli_8sides 16_whiteLine3.jpg	MediumShort_b16_cut3_MS_stereo_44KHz.wav
3	133	1	1	1	C	1	1	1050	1	poli_8sides 6_whiteLine3.jpg	MediumShort_b10_cut1_MS_stereo_44KHz.wav
3	134	3	4	2	I	2	0	717	1	poli_8sides 9_whiteLine3.jpg	MediumShort_e22_cut1_stereo_44KHz.wav
3	135	2	1	0	C	2	1	945	1	poli_8sides 4_whiteLine3.jpg	MediumShort_b10_cut1_MS_stereo_44KHz.wav
3	136	4	4	2	I	1	0	1458	0	poli_8sides 16_whiteLine3.jpg	MediumShort_e22_cut1_stereo_44KHz.wav
3	137	2	2	1	C	1	1	1925	1	poli_8sides 4_whiteLine3.jpg	MediumShort_e16_cut1_stereo_44KHz.wav
3	138	3	3	2	I	2	0	987	0	poli_8sides 9_whiteLine3.jpg	MediumShort_b16_cut3_MS_stereo_44KHz.wav
3	139	4	3	2	I	2	0	1274	0	poli_8sides 16_whiteLine3.jpg	MediumShort_b16_cut3_MS_stereo_44KHz.wav
3	140	1	1	1	C	1	1	880	1	poli_8sides 6_whiteLine3.jpg	MediumShort_b10_cut1_MS_stereo_44KHz.wav
3	141	2	1	0	C	2	1	927	1	poli_8sides 4_whiteLine3.jpg	MediumShort_b10_cut1_MS_stereo_44KHz.wav
3	142	3	4	2	I	2	0	707	0	poli_8sides 9_whiteLine3.jpg	MediumShort_e22_cut1_stereo_44KHz.wav
3	143	4	4	2	I	2	0	701	0	poli_8sides 16_whiteLine3.jpg	MediumShort_e22_cut1_stereo_44KHz.wav
3	144	1	2	0	C	2	1	725	1	poli_8sides 6_whiteLine3.jpg	MediumShort_e16_cut1_stereo_44KHz.wav
3	145	4	3	2	I	2	0	1049	0	poli_8sides 16_whiteLine3.jpg	MediumShort_b16_cut3_MS_stereo_44KHz.wav
3	146	3	3	2	I	1	0	1646	1	poli_8sides 9_whiteLine3.jpg	MediumShort_b16_cut3_MS_stereo_44KHz.wav
3	147	2	1	0	C	2	1	1403	1	poli_8sides 4_whiteLine3.jpg	MediumShort_b10_cut1_MS_stereo_44KHz.wav
3	148	1	1	1	C	1	1	764	1	poli_8sides 6_whiteLine3.jpg	MediumShort_b10_cut1_MS_stereo_44KHz.wav
3	149	3	4	2	I	2	0	817	1	poli_8sides 9_whiteLine3.jpg	MediumShort_e22_cut1_stereo_44KHz.wav
3	150	2	2	1	C	2	0	911	0	poli_8sides 4_whiteLine3.jpg	MediumShort_e16_cut1_stereo_44KHz.wav
3	151	1	2	0	C	2	1	699	1	poli_8sides 6_whiteLine3.jpg	MediumShort_e16_cut1_stereo_44KHz.wav
3	152	4	4	2	I	2	0	1438	0	poli_8sides 16_whiteLine3.jpg	MediumShort_e22_cut1_stereo_44KHz.wav
3	153	3	4	2	I	2	0	708	0	poli_8sides 9_whiteLine3.jpg	MediumShort_e22_cut1_stereo_44KHz.wav
3	154	2	2	1	C	1	1	772	1	poli_8sides 4_whiteLine3.jpg	MediumShort_e16_cut1_stereo_44KHz.wav
3	155	4	4	2	I	1	0	1132	0	poli_8sides 16_whiteLine3.jpg	MediumShort_e22_cut1_stereo_44KHz.wav
3	156	1	1	1	C	1	1	789	1	poli_8sides 6_whiteLine3.jpg	MediumShort_b10_cut1_MS_stereo_44KHz.wav
3	157	4	3	2	I	2	0	1314	0	poli_8sides 16_whiteLine3.jpg	MediumShort_b16_cut3_MS_stereo_44KHz.wav
3	158	1	2	0	C	2	1	1338	1	poli_8sides 6_whiteLine3.jpg	MediumShort_e16_cut1_stereo_44KHz.wav
3	159	3	3	2	I	2	0	1024	0	poli_8sides 9_whiteLine3.jpg	MediumShort_b16_cut3_MS_stereo_44KHz.wav
3	160	2	1	0	C	2	1	810	1	poli_8sides 4_whiteLine3.jpg	MediumShort_b10_cut1_MS_stereo_44KHz.wav
3	161	3	3	2	I	2	0	1100	0	poli_8sides 9_whiteLine3.jpg	MediumShort_b16_cut3_MS_stereo_44KHz.wav
3	162	1	2	0	C	2	1	845	1	poli_8sides 6_whiteLine3.jpg	MediumShort_e16_cut1_stereo_44KHz.wav
3	163	2	1	0	C	2	1	1037	1	poli_8sides 4_whiteLine3.jpg	MediumShort_b10_cut1_MS_stereo_44KHz.wav
3	164	4	4	2	I	1	0	1202	0	poli_8sides 16_whiteLine3.jpg	MediumShort_e22_cut1_stereo_44KHz.wav
3	165	1	1	1	C	1	1	913	1	poli_8sides 6_whiteLine3.jpg	MediumShort_b10_cut1_MS_stereo_44KHz.wav
3	166	4	3	2	I	1	0	1719	0	poli_8sides 16_whiteLine3.jpg	MediumShort_b16_cut3_MS_stereo_44KHz.wav
3	167	2	2	1	C	1	1	837	1	poli_8sides 4_whiteLine3.jpg	MediumShort_e16_cut1_stereo_44KHz.wav
3	168	3	4	2	I	2	0	744	1	poli_8sides 9_whiteLine3.jpg	MediumShort_e22_cut1_stereo_44KHz.wav
3	169	4	4	2	I	1	0	744	0	poli_8sides 16_whiteLine3.jpg	MediumShort_e22_cut1_stereo_44KHz.wav
3	170	3	4	2	I	2	0	634	1	poli_8sides 9_whiteLine3.jpg	MediumShort_e22_cut1_stereo_44KHz.wav
3	171	1	2	0	C	2	1	1026	1	poli_8sides 6_whiteLine3.jpg	MediumShort_e16_cut1_stereo_44KHz.wav
3	172	2	2	1	C	1	1	1940	1	poli_8sides 4_whiteLine3.jpg	MediumShort_e16_cut1_stereo_44KHz.wav
3	173	1	1	1	C	1	1	854	1	poli_8sides 6_whiteLine3.jpg	MediumShort_b10_cut1_MS_stereo_44KHz.wav
3	174	4	3	2	I	2	0	934	1	poli_8sides 16_whiteLine3.jpg	MediumShort_b16_cut3_MS_stereo_44KHz.wav
3	175	3	3	2	I	1	0	891	0	poli_8sides 9_whiteLine3.jpg	MediumShort_b16_cut3_MS_stereo_44KHz.wav
3	176	2	1	0	C	0	0	0	0	poli_8sides 4_whiteLine3.jpg	MediumShort_b10_cut1_MS_stereo_44KHz.wav
3	177	1	2	0	C	2	1	816	1	poli_8sides 6_whiteLine3.jpg	MediumShort_e16_cut1_stereo_44KHz.wav
3	178	4	4	2	I	1	0	1127	0	poli_8sides 16_whiteLine3.jpg	MediumShort_e22_cut1_stereo_44KHz.wav
3	179	2	1	0	C	2	1	817	1	poli_8sides 4_whiteLine3.jpg	MediumShort_b10_cut1_MS_stereo_44KHz.wav
3	180	3	3	2	I	0	0	0	0	poli_8sides 9_whiteLine3.jpg	MediumShort_b16_cut3_MS_stereo_44KHz.wav
3	181	4	3	2	I	2	0	879	0	poli_8sides 16_whiteLine3.jpg	MediumShort_b16_cut3_MS_stereo_44KHz.wav
3	182	1	1	1	C	1	1	1479	1	poli_8sides 6_whiteLine3.jpg	MediumShort_b10_cut1_MS_stereo_44KHz.wav
3	183	3	4	2	I	2	0	931	1	poli_8sides 9_whiteLine3.jpg	MediumShort_e22_cut1_stereo_44KHz.wav
3	184	2	2	1	C	1	1	1079	1	poli_8sides 4_whiteLine3.jpg	MediumShort_e16_cut1_stereo_44KHz.wav
3	185	3	4	2	I	2	0	1242	1	poli_8sides 9_whiteLine3.jpg	MediumShort_e22_cut1_stereo_44KHz.wav
3	186	1	2	0	C	2	1	1450	1	poli_8sides 6_whiteLine3.jpg	MediumShort_e16_cut1_stereo_44KHz.wav
3	187	4	3	2	I	2	0	1003	1	poli_8sides 16_whiteLine3.jpg	MediumShort_b16_cut3_MS_stereo_44KHz.wav
3	188	2	1	0	C	2	1	1118	1	poli_8sides 4_whiteLine3.jpg	MediumShort_b10_cut1_MS_stereo_44KHz.wav
3	189	3	3	2	I	1	0	1385	0	poli_8sides 9_whiteLine3.jpg	MediumShort_b16_cut3_MS_stereo_44KHz.wav
3	190	4	4	2	I	1	0	1390	1	poli_8sides 16_whiteLine3.jpg	MediumShort_e22_cut1_stereo_44KHz.wav
3	191	2	2	1	C	1	1	1299	1	poli_8sides 4_whiteLine3.jpg	MediumShort_e16_cut1_stereo_44KHz.wav
3	192	1	1	1	C	1	1	804	1	poli_8sides 6_whiteLine3.jpg	MediumShort_b10_cut1_MS_stereo_44KHz.wav
3	193	2	1	0	C	2	1	817	1	poli_8sides 4_whiteLine3.jpg	MediumShort_b10_cut1_MS_stereo_44KHz.wav
3	194	4	3	2	I	1	0	771	0	poli_8sides 16_whiteLine3.jpg	MediumShort_b16_cut3_MS_stereo_44KHz.wav
3	195	1	2	0	C	2	1	671	1	poli_8sides 6_whiteLine3.jpg	MediumShort_e16_cut1_stereo_44KHz.wav
3	196	3	3	2	I	2	0	1025	0	poli_8sides 9_whiteLine3.jpg	MediumShort_b16_cut3_MS_stereo_44KHz.wav
3	197	2	2	1	C	1	1	869	1	poli_8sides 4_whiteLine3.jpg	MediumShort_e16_cut1_stereo_44KHz.wav
3	198	4	4	2	I	1	0	1549	1	poli_8sides 16_whiteLine3.jpg	MediumShort_e22_cut1_stereo_44KHz.wav
3	199	3	4	2	I	2	0	907	1	poli_8sides 9_whiteLine3.jpg	MediumShort_e22_cut1_stereo_44KHz.wav
3	200	1	1	1	C	1	1	710	1	poli_8sides 6_whiteLine3.jpg	MediumShort_b10_cut1_MS_stereo_44KHz.wav
4	1	1	1	1	C	0	0	0	0	poli_8sides 18_whiteLine3.jpg	Short_b22_cut1_stereo_44KHz.wav
4	2	4	3	2	I	0	0	0	0	poli_8sides 7_whiteLine3.jpg	Short_b09_cut1_stereo_44KHz.wav
4	3	2	1	0	C	2	1	705	1	poli_8sides 5_whiteLine3.jpg	Short_b22_cut1_stereo_44KHz.wav
4	4	3	3	2	I	1	0	875	1	poli_8sides 10_whiteLine3.jpg	Short_b09_cut1_stereo_44KHz.wav
4	5	4	4	2	I	2	0	1979	1	poli_8sides 7_whiteLine3.jpg	Short_b23_cut1_stereo_44KHz.wav
4	6	3	4	2	I	1	0	779	1	poli_8sides 10_whiteLine3.jpg	Short_b23_cut1_stereo_44KHz.wav
4	7	2	2	1	C	1	1	1235	1	poli_8sides 5_whiteLine3.jpg	Short_b20_cut1_stereo_44KHz.wav
4	8	1	2	0	C	2	1	1072	1	poli_8sides 18_whiteLine3.jpg	Short_b20_cut1_stereo_44KHz.wav
4	9	4	3	2	I	2	0	1187	0	poli_8sides 7_whiteLine3.jpg	Short_b09_cut1_stereo_44KHz.wav
4	10	1	1	1	C	2	0	1240	0	poli_8sides 18_whiteLine3.jpg	Short_b22_cut1_stereo_44KHz.wav
4	11	2	1	0	C	2	1	1365	1	poli_8sides 5_whiteLine3.jpg	Short_b22_cut1_stereo_44KHz.wav
4	12	3	4	2	I	2	0	1380	1	poli_8sides 10_whiteLine3.jpg	Short_b23_cut1_stereo_44KHz.wav
4	13	4	4	2	I	1	0	1410	1	poli_8sides 7_whiteLine3.jpg	Short_b23_cut1_stereo_44KHz.wav
4	14	1	2	0	C	2	1	1350	1	poli_8sides 18_whiteLine3.jpg	Short_b20_cut1_stereo_44KHz.wav
4	15	2	2	1	C	1	1	792	1	poli_8sides 5_whiteLine3.jpg	Short_b20_cut1_stereo_44KHz.wav
4	16	3	3	2	I	2	0	1765	0	poli_8sides 10_whiteLine3.jpg	Short_b09_cut1_stereo_44KHz.wav
4	17	1	2	0	C	2	1	1098	1	poli_8sides 18_whiteLine3.jpg	Short_b20_cut1_stereo_44KHz.wav
4	18	3	3	2	I	2	0	846	0	poli_8sides 10_whiteLine3.jpg	Short_b09_cut1_stereo_44KHz.wav
4	19	2	1	0	C	2	1	1042	1	poli_8sides 5_whiteLine3.jpg	Short_b22_cut1_stereo_44KHz.wav
4	20	4	4	2	I	2	0	1543	0	poli_8sides 7_whiteLine3.jpg	Short_b23_cut1_stereo_44KHz.wav
4	21	2	2	1	C	1	1	855	1	poli_8sides 5_whiteLine3.jpg	Short_b20_cut1_stereo_44KHz.wav
4	22	4	3	2	I	1	0	1492	0	poli_8sides 7_whiteLine3.jpg	Short_b09_cut1_stereo_44KHz.wav
4	23	3	4	2	I	0	0	0	0	poli_8sides 10_whiteLine3.jpg	Short_b23_cut1_stereo_44KHz.wav
4	24	1	1	1	C	1	1	860	1	poli_8sides 18_whiteLine3.jpg	Short_b22_cut1_stereo_44KHz.wav
4	25	4	4	2	I	2	0	1104	1	poli_8sides 7_whiteLine3.jpg	Short_b23_cut1_stereo_44KHz.wav
4	26	2	2	1	C	1	1	955	1	poli_8sides 5_whiteLine3.jpg	Short_b20_cut1_stereo_44KHz.wav
4	27	1	2	0	C	1	0	1100	0	poli_8sides 18_whiteLine3.jpg	Short_b20_cut1_stereo_44KHz.wav
4	28	3	3	2	I	1	0	1424	1	poli_8sides 10_whiteLine3.jpg	Short_b09_cut1_stereo_44KHz.wav
4	29	2	1	0	C	2	1	1212	1	poli_8sides 5_whiteLine3.jpg	Short_b22_cut1_stereo_44KHz.wav
4	30	1	1	1	C	1	1	754	1	poli_8sides 18_whiteLine3.jpg	Short_b22_cut1_stereo_44KHz.wav
4	31	3	4	2	I	2	0	1075	1	poli_8sides 10_whiteLine3.jpg	Short_b23_cut1_stereo_44KHz.wav
4	32	4	3	2	I	2	0	1116	1	poli_8sides 7_whiteLine3.jpg	Short_b09_cut1_stereo_44KHz.wav
4	33	1	1	1	C	1	1	960	1	poli_8sides 18_whiteLine3.jpg	Short_b22_cut1_stereo_44KHz.wav
4	34	2	2	1	C	1	1	880	1	poli_8sides 5_whiteLine3.jpg	Short_b20_cut1_stereo_44KHz.wav
4	35	3	3	2	I	1	0	1239	0	poli_8sides 10_whiteLine3.jpg	Short_b09_cut1_stereo_44KHz.wav
4	36	4	3	2	I	1	0	1471	1	poli_8sides 7_whiteLine3.jpg	Short_b09_cut1_stereo_44KHz.wav
4	37	2	1	0	C	2	1	809	1	poli_8sides 5_whiteLine3.jpg	Short_b22_cut1_stereo_44KHz.wav
4	38	4	4	2	I	1	0	840	0	poli_8sides 7_whiteLine3.jpg	Short_b23_cut1_stereo_44KHz.wav
4	39	1	2	0	C	2	1	846	1	poli_8sides 18_whiteLine3.jpg	Short_b20_cut1_stereo_44KHz.wav
4	40	3	4	2	I	2	0	1327	0	poli_8sides 10_whiteLine3.jpg	Short_b23_cut1_stereo_44KHz.wav
4	41	2	1	0	C	1	0	1592	0	poli_8sides 5_whiteLine3.jpg	Short_b22_cut1_stereo_44KHz.wav
4	42	1	1	1	C	1	1	972	1	poli_8sides 18_whiteLine3.jpg	Short_b22_cut1_stereo_44KHz.wav
4	43	3	3	2	I	1	0	1677	1	poli_8sides 10_whiteLine3.jpg	Short_b09_cut1_stereo_44KHz.wav
4	44	4	4	2	I	1	0	1247	1	poli_8sides 7_whiteLine3.jpg	Short_b23_cut1_stereo_44KHz.wav
4	45	3	4	2	I	1	0	991	0	poli_8sides 10_whiteLine3.jpg	Short_b23_cut1_stereo_44KHz.wav
4	46	4	3	2	I	2	0	1675	1	poli_8sides 7_whiteLine3.jpg	Short_b09_cut1_stereo_44KHz.wav
4	47	1	2	0	C	1	0	746	0	poli_8sides 18_whiteLine3.jpg	Short_b20_cut1_stereo_44KHz.wav
4	48	2	2	1	C	1	1	901	1	poli_8sides 5_whiteLine3.jpg	Short_b20_cut1_stereo_44KHz.wav
4	49	3	3	2	I	1	0	1535	0	poli_8sides 10_whiteLine3.jpg	Short_b09_cut1_stereo_44KHz.wav
4	50	4	3	2	I	2	0	1072	0	poli_8sides 7_whiteLine3.jpg	Short_b09_cut1_stereo_44KHz.wav
4	51	2	2	1	C	1	1	756	1	poli_8sides 5_whiteLine3.jpg	Short_b20_cut1_stereo_44KHz.wav
4	52	1	1	1	C	1	1	820	1	poli_8sides 18_whiteLine3.jpg	Short_b22_cut1_stereo_44KHz.wav
4	53	4	4	2	I	2	0	1322	1	poli_8sides 7_whiteLine3.jpg	Short_b23_cut1_stereo_44KHz.wav
4	54	3	4	2	I	1	0	1052	1	poli_8sides 10_whiteLine3.jpg	Short_b23_cut1_stereo_44KHz.wav
4	55	2	1	0	C	2	1	1301	1	poli_8sides 5_whiteLine3.jpg	Short_b22_cut1_stereo_44KHz.wav
4	56	1	2	0	C	2	1	765	1	poli_8sides 18_whiteLine3.jpg	Short_b20_cut1_stereo_44KHz.wav
4	57	2	1	0	C	2	1	1436	1	poli_8sides 5_whiteLine3.jpg	Short_b22_cut1_stereo_44KHz.wav
4	58	3	3	2	I	1	0	1513	1	poli_8sides 10_whiteLine3.jpg	Short_b09_cut1_stereo_44KHz.wav
4	59	1	1	1	C	1	1	857	1	poli_8sides 18_whiteLine3.jpg	Short_b22_cut1_stereo_44KHz.wav
4	60	4	3	2	I	0	0	0	0	poli_8sides 7_whiteLine3.jpg	Short_b09_cut1_stereo_44KHz.wav
4	61	3	4	2	I	2	0	1199	0	poli_8sides 10_whiteLine3.jpg	Short_b23_cut1_stereo_44KHz.wav
4	62	4	4	2	I	2	0	843	0	poli_8sides 7_whiteLine3.jpg	Short_b23_cut1_stereo_44KHz.wav
4	63	1	2	0	C	1	0	692	0	poli_8sides 18_whiteLine3.jpg	Short_b20_cut1_stereo_44KHz.wav
4	64	2	2	1	C	1	1	1226	1	poli_8sides 5_whiteLine3.jpg	Short_b20_cut1_stereo_44KHz.wav
4	65	4	4	2	I	2	0	1754	1	poli_8sides 7_whiteLine3.jpg	Short_b23_cut1_stereo_44KHz.wav
4	66	2	1	0	C	2	1	873	1	poli_8sides 5_whiteLine3.jpg	Short_b22_cut1_stereo_44KHz.wav
4	67	3	4	2	I	1	0	838	0	poli_8sides 10_whiteLine3.jpg	Short_b23_cut1_stereo_44KHz.wav
4	68	1	2	0	C	2	1	645	1	poli_8sides 18_whiteLine3.jpg	Short_b20_cut1_stereo_44KHz.wav
4	69	3	3	2	I	2	0	1235	1	poli_8sides 10_whiteLine3.jpg	Short_b09_cut1_stereo_44KHz.wav
4	70	2	2	1	C	1	1	851	1	poli_8sides 5_whiteLine3.jpg	Short_b20_cut1_stereo_44KHz.wav
4	71	4	3	2	I	2	0	994	0	poli_8sides 7_whiteLine3.jpg	Short_b09_cut1_stereo_44KHz.wav
4	72	1	1	1	C	1	1	1197	1	poli_8sides 18_whiteLine3.jpg	Short_b22_cut1_stereo_44KHz.wav
4	73	2	2	1	C	1	1	1129	1	poli_8sides 5_whiteLine3.jpg	Short_b20_cut1_stereo_44KHz.wav
4	74	4	4	2	I	2	0	1150	1	poli_8sides 7_whiteLine3.jpg	Short_b23_cut1_stereo_44KHz.wav
4	75	1	1	1	C	1	1	1068	1	poli_8sides 18_whiteLine3.jpg	Short_b22_cut1_stereo_44KHz.wav
4	76	3	3	2	I	2	0	876	0	poli_8sides 10_whiteLine3.jpg	Short_b09_cut1_stereo_44KHz.wav
4	77	2	1	0	C	2	1	1206	1	poli_8sides 5_whiteLine3.jpg	Short_b22_cut1_stereo_44KHz.wav
4	78	3	4	2	I	2	0	974	1	poli_8sides 10_whiteLine3.jpg	Short_b23_cut1_stereo_44KHz.wav
4	79	1	2	0	C	2	1	1054	1	poli_8sides 18_whiteLine3.jpg	Short_b20_cut1_stereo_44KHz.wav
4	80	4	3	2	I	0	0	0	0	poli_8sides 7_whiteLine3.jpg	Short_b09_cut1_stereo_44KHz.wav
4	81	2	1	0	C	2	1	1042	1	poli_8sides 5_whiteLine3.jpg	Short_b22_cut1_stereo_44KHz.wav
4	82	4	3	2	I	2	0	774	0	poli_8sides 7_whiteLine3.jpg	Short_b09_cut1_stereo_44KHz.wav
4	83	1	2	0	C	2	1	777	1	poli_8sides 18_whiteLine3.jpg	Short_b20_cut1_stereo_44KHz.wav
4	84	3	4	2	I	1	0	1018	1	poli_8sides 10_whiteLine3.jpg	Short_b23_cut1_stereo_44KHz.wav
4	85	2	2	1	C	1	1	1096	1	poli_8sides 5_whiteLine3.jpg	Short_b20_cut1_stereo_44KHz.wav
4	86	3	3	2	I	2	0	1852	1	poli_8sides 10_whiteLine3.jpg	Short_b09_cut1_stereo_44KHz.wav
4	87	4	4	2	I	2	0	1390	0	poli_8sides 7_whiteLine3.jpg	Short_b23_cut1_stereo_44KHz.wav
4	88	1	1	1	C	1	1	1421	1	poli_8sides 18_whiteLine3.jpg	Short_b22_cut1_stereo_44KHz.wav
4	89	3	3	2	I	2	0	1237	1	poli_8sides 10_whiteLine3.jpg	Short_b09_cut1_stereo_44KHz.wav
4	90	1	2	0	C	2	1	707	1	poli_8sides 18_whiteLine3.jpg	Short_b20_cut1_stereo_44KHz.wav
4	91	2	1	0	C	2	1	1179	1	poli_8sides 5_whiteLine3.jpg	Short_b22_cut1_stereo_44KHz.wav
4	92	4	3	2	I	2	0	969	0	poli_8sides 7_whiteLine3.jpg	Short_b09_cut1_stereo_44KHz.wav
4	93	1	1	1	C	1	1	1197	1	poli_8sides 18_whiteLine3.jpg	Short_b22_cut1_stereo_44KHz.wav
4	94	3	4	2	I	1	0	1451	1	poli_8sides 10_whiteLine3.jpg	Short_b23_cut1_stereo_44KHz.wav
4	95	4	4	2	I	2	0	1305	0	poli_8sides 7_whiteLine3.jpg	Short_b23_cut1_stereo_44KHz.wav
4	96	2	2	1	C	1	1	892	1	poli_8sides 5_whiteLine3.jpg	Short_b20_cut1_stereo_44KHz.wav
4	97	1	2	0	C	2	1	589	1	poli_8sides 18_whiteLine3.jpg	Short_b20_cut1_stereo_44KHz.wav
4	98	4	3	2	I	2	0	984	1	poli_8sides 7_whiteLine3.jpg	Short_b09_cut1_stereo_44KHz.wav
4	99	3	3	2	I	1	0	749	0	poli_8sides 10_whiteLine3.jpg	Short_b09_cut1_stereo_44KHz.wav
4	100	2	1	0	C	2	1	920	1	poli_8sides 5_whiteLine3.jpg	Short_b22_cut1_stereo_44KHz.wav
4	101	3	4	2	I	2	0	1028	1	poli_8sides 10_whiteLine3.jpg	Short_b23_cut1_stereo_44KHz.wav
4	102	4	4	2	I	1	0	779	1	poli_8sides 7_whiteLine3.jpg	Short_b23_cut1_stereo_44KHz.wav
4	103	1	1	1	C	1	1	1081	1	poli_8sides 18_whiteLine3.jpg	Short_b22_cut1_stereo_44KHz.wav
4	104	2	2	1	C	1	1	1342	1	poli_8sides 5_whiteLine3.jpg	Short_b20_cut1_stereo_44KHz.wav
4	105	1	1	1	C	1	1	1023	1	poli_8sides 18_whiteLine3.jpg	Short_b22_cut1_stereo_44KHz.wav
4	106	3	4	2	I	2	0	1229	1	poli_8sides 10_whiteLine3.jpg	Short_b23_cut1_stereo_44KHz.wav
4	107	4	4	2	I	0	0	0	0	poli_8sides 7_whiteLine3.jpg	Short_b23_cut1_stereo_44KHz.wav
4	108	2	1	0	C	2	1	1054	1	poli_8sides 5_whiteLine3.jpg	Short_b22_cut1_stereo_44KHz.wav
4	109	1	2	0	C	2	1	1780	1	poli_8sides 18_whiteLine3.jpg	Short_b20_cut1_stereo_44KHz.wav
4	110	3	3	2	I	1	0	1354	0	poli_8sides 10_whiteLine3.jpg	Short_b09_cut1_stereo_44KHz.wav
4	111	2	2	1	C	1	1	915	1	poli_8sides 5_whiteLine3.jpg	Short_b20_cut1_stereo_44KHz.wav
4	112	4	3	2	I	2	0	1045	1	poli_8sides 7_whiteLine3.jpg	Short_b09_cut1_stereo_44KHz.wav
4	113	2	1	0	C	2	1	839	1	poli_8sides 5_whiteLine3.jpg	Short_b22_cut1_stereo_44KHz.wav
4	114	3	3	2	I	1	0	735	1	poli_8sides 10_whiteLine3.jpg	Short_b09_cut1_stereo_44KHz.wav
4	115	4	4	2	I	2	0	1378	1	poli_8sides 7_whiteLine3.jpg	Short_b23_cut1_stereo_44KHz.wav
4	116	1	2	0	C	1	0	734	0	poli_8sides 18_whiteLine3.jpg	Short_b20_cut1_stereo_44KHz.wav
4	117	4	3	2	I	0	0	0	0	poli_8sides 7_whiteLine3.jpg	Short_b09_cut1_stereo_44KHz.wav
4	118	1	1	1	C	1	1	1201	1	poli_8sides 18_whiteLine3.jpg	Short_b22_cut1_stereo_44KHz.wav
4	119	3	4	2	I	2	0	891	1	poli_8sides 10_whiteLine3.jpg	Short_b23_cut1_stereo_44KHz.wav
4	120	2	2	1	C	1	1	807	1	poli_8sides 5_whiteLine3.jpg	Short_b20_cut1_stereo_44KHz.wav
4	121	4	4	2	I	2	0	1585	0	poli_8sides 7_whiteLine3.jpg	Short_b23_cut1_stereo_44KHz.wav
4	122	3	3	2	I	1	0	1387	1	poli_8sides 10_whiteLine3.jpg	Short_b09_cut1_stereo_44KHz.wav
4	123	2	1	0	C	2	1	1579	1	poli_8sides 5_whiteLine3.jpg	Short_b22_cut1_stereo_44KHz.wav
4	124	1	1	1	C	1	1	883	1	poli_8sides 18_whiteLine3.jpg	Short_b22_cut1_stereo_44KHz.wav
4	125	2	2	1	C	1	1	788	1	poli_8sides 5_whiteLine3.jpg	Short_b20_cut1_stereo_44KHz.wav
4	126	3	4	2	I	1	0	987	1	poli_8sides 10_whiteLine3.jpg	Short_b23_cut1_stereo_44KHz.wav
4	127	4	3	2	I	0	0	0	0	poli_8sides 7_whiteLine3.jpg	Short_b09_cut1_stereo_44KHz.wav
4	128	1	2	0	C	2	1	988	1	poli_8sides 18_whiteLine3.jpg	Short_b20_cut1_stereo_44KHz.wav
4	129	3	4	2	I	1	0	1712	1	poli_8sides 10_whiteLine3.jpg	Short_b23_cut1_stereo_44KHz.wav
4	130	4	3	2	I	2	0	778	0	poli_8sides 7_whiteLine3.jpg	Short_b09_cut1_stereo_44KHz.wav
4	131	1	1	1	C	1	1	872	1	poli_8sides 18_whiteLine3.jpg	Short_b22_cut1_stereo_44KHz.wav
4	132	2	1	0	C	2	1	927	1	poli_8sides 5_whiteLine3.jpg	Short_b22_cut1_stereo_44KHz.wav
4	133	4	4	2	I	2	0	1153	0	poli_8sides 7_whiteLine3.jpg	Short_b23_cut1_stereo_44KHz.wav
4	134	1	2	0	C	2	1	748	1	poli_8sides 18_whiteLine3.jpg	Short_b20_cut1_stereo_44KHz.wav
4	135	2	2	1	C	1	1	1189	1	poli_8sides 5_whiteLine3.jpg	Short_b20_cut1_stereo_44KHz.wav
4	136	3	3	2	I	2	0	1562	1	poli_8sides 10_whiteLine3.jpg	Short_b09_cut1_stereo_44KHz.wav
4	137	1	2	0	C	2	1	709	1	poli_8sides 18_whiteLine3.jpg	Short_b20_cut1_stereo_44KHz.wav
4	138	4	4	2	I	2	0	1154	1	poli_8sides 7_whiteLine3.jpg	Short_b23_cut1_stereo_44KHz.wav
4	139	3	4	2	I	1	0	925	0	poli_8sides 10_whiteLine3.jpg	Short_b23_cut1_stereo_44KHz.wav
4	140	2	2	1	C	1	1	1628	1	poli_8sides 5_whiteLine3.jpg	Short_b20_cut1_stereo_44KHz.wav
4	141	3	3	2	I	1	0	1382	0	poli_8sides 10_whiteLine3.jpg	Short_b09_cut1_stereo_44KHz.wav
4	142	1	1	1	C	1	1	969	1	poli_8sides 18_whiteLine3.jpg	Short_b22_cut1_stereo_44KHz.wav
4	143	2	1	0	C	2	1	1039	1	poli_8sides 5_whiteLine3.jpg	Short_b22_cut1_stereo_44KHz.wav
4	144	4	3	2	I	0	0	0	0	poli_8sides 7_whiteLine3.jpg	Short_b09_cut1_stereo_44KHz.wav
4	145	2	1	0	C	2	1	1263	1	poli_8sides 5_whiteLine3.jpg	Short_b22_cut1_stereo_44KHz.wav
4	146	4	4	2	I	2	0	1016	1	poli_8sides 7_whiteLine3.jpg	Short_b23_cut1_stereo_44KHz.wav
4	147	3	4	2	I	1	0	837	0	poli_8sides 10_whiteLine3.jpg	Short_b23_cut1_stereo_44KHz.wav
4	148	1	1	1	C	1	1	791	1	poli_8sides 18_whiteLine3.jpg	Short_b22_cut1_stereo_44KHz.wav
4	149	4	3	2	I	2	0	1370	1	poli_8sides 7_whiteLine3.jpg	Short_b09_cut1_stereo_44KHz.wav
4	150	1	2	0	C	2	1	704	1	poli_8sides 18_whiteLine3.jpg	Short_b20_cut1_stereo_44KHz.wav
4	151	3	3	2	I	1	0	879	0	poli_8sides 10_whiteLine3.jpg	Short_b09_cut1_stereo_44KHz.wav
4	152	2	2	1	C	1	1	856	1	poli_8sides 5_whiteLine3.jpg	Short_b20_cut1_stereo_44KHz.wav
4	153	1	1	1	C	1	1	733	1	poli_8sides 18_whiteLine3.jpg	Short_b22_cut1_stereo_44KHz.wav
4	154	2	2	1	C	1	1	1360	1	poli_8sides 5_whiteLine3.jpg	Short_b20_cut1_stereo_44KHz.wav
4	155	3	3	2	I	2	0	1668	0	poli_8sides 10_whiteLine3.jpg	Short_b09_cut1_stereo_44KHz.wav
4	156	4	4	2	I	2	0	766	1	poli_8sides 7_whiteLine3.jpg	Short_b23_cut1_stereo_44KHz.wav
4	157	2	1	0	C	2	1	939	1	poli_8sides 5_whiteLine3.jpg	Short_b22_cut1_stereo_44KHz.wav
4	158	1	2	0	C	2	1	719	1	poli_8sides 18_whiteLine3.jpg	Short_b20_cut1_stereo_44KHz.wav
4	159	3	4	2	I	2	0	1234	1	poli_8sides 10_whiteLine3.jpg	Short_b23_cut1_stereo_44KHz.wav
4	160	4	3	2	I	2	0	933	0	poli_8sides 7_whiteLine3.jpg	Short_b09_cut1_stereo_44KHz.wav
4	161	2	2	1	C	1	1	906	1	poli_8sides 5_whiteLine3.jpg	Short_b20_cut1_stereo_44KHz.wav
4	162	1	2	0	C	2	1	709	1	poli_8sides 18_whiteLine3.jpg	Short_b20_cut1_stereo_44KHz.wav
4	163	4	3	2	I	2	0	869	0	poli_8sides 7_whiteLine3.jpg	Short_b09_cut1_stereo_44KHz.wav
4	164	3	4	2	I	2	0	788	0	poli_8sides 10_whiteLine3.jpg	Short_b23_cut1_stereo_44KHz.wav
4	165	2	1	0	C	2	1	763	1	poli_8sides 5_whiteLine3.jpg	Short_b22_cut1_stereo_44KHz.wav
4	166	1	1	1	C	1	1	1222	1	poli_8sides 18_whiteLine3.jpg	Short_b22_cut1_stereo_44KHz.wav
4	167	4	4	2	I	2	0	966	1	poli_8sides 7_whiteLine3.jpg	Short_b23_cut1_stereo_44KHz.wav
4	168	3	3	2	I	2	0	1090	0	poli_8sides 10_whiteLine3.jpg	Short_b09_cut1_stereo_44KHz.wav
4	169	1	2	0	C	2	1	615	1	poli_8sides 18_whiteLine3.jpg	Short_b20_cut1_stereo_44KHz.wav
4	170	2	1	0	C	2	1	1162	1	poli_8sides 5_whiteLine3.jpg	Short_b22_cut1_stereo_44KHz.wav
4	171	3	4	2	I	1	0	1434	1	poli_8sides 10_whiteLine3.jpg	Short_b23_cut1_stereo_44KHz.wav
4	172	4	4	2	I	2	0	883	0	poli_8sides 7_whiteLine3.jpg	Short_b23_cut1_stereo_44KHz.wav
4	173	3	3	2	I	2	0	890	0	poli_8sides 10_whiteLine3.jpg	Short_b09_cut1_stereo_44KHz.wav
4	174	1	1	1	C	1	1	822	1	poli_8sides 18_whiteLine3.jpg	Short_b22_cut1_stereo_44KHz.wav
4	175	2	2	1	C	1	1	861	1	poli_8sides 5_whiteLine3.jpg	Short_b20_cut1_stereo_44KHz.wav
4	176	4	3	2	I	2	0	912	0	poli_8sides 7_whiteLine3.jpg	Short_b09_cut1_stereo_44KHz.wav
4	177	3	4	2	I	2	0	1083	1	poli_8sides 10_whiteLine3.jpg	Short_b23_cut1_stereo_44KHz.wav
4	178	2	1	0	C	2	1	680	1	poli_8sides 5_whiteLine3.jpg	Short_b22_cut1_stereo_44KHz.wav
4	179	4	4	2	I	1	0	725	0	poli_8sides 7_whiteLine3.jpg	Short_b23_cut1_stereo_44KHz.wav
4	180	1	2	0	C	2	1	399	1	poli_8sides 18_whiteLine3.jpg	Short_b20_cut1_stereo_44KHz.wav
4	181	2	2	1	C	1	1	748	1	poli_8sides 5_whiteLine3.jpg	Short_b20_cut1_stereo_44KHz.wav
4	182	1	1	1	C	1	1	838	1	poli_8sides 18_whiteLine3.jpg	Short_b22_cut1_stereo_44KHz.wav
4	183	4	3	2	I	2	0	923	0	poli_8sides 7_whiteLine3.jpg	Short_b09_cut1_stereo_44KHz.wav
4	184	3	3	2	I	2	0	778	0	poli_8sides 10_whiteLine3.jpg	Short_b09_cut1_stereo_44KHz.wav
4	185	4	4	2	I	2	0	885	1	poli_8sides 7_whiteLine3.jpg	Short_b23_cut1_stereo_44KHz.wav
4	186	3	4	2	I	2	0	869	0	poli_8sides 10_whiteLine3.jpg	Short_b23_cut1_stereo_44KHz.wav
4	187	2	2	1	C	1	1	1718	1	poli_8sides 5_whiteLine3.jpg	Short_b20_cut1_stereo_44KHz.wav
4	188	1	2	0	C	2	1	1436	1	poli_8sides 18_whiteLine3.jpg	Short_b20_cut1_stereo_44KHz.wav
4	189	3	3	2	I	1	0	1154	0	poli_8sides 10_whiteLine3.jpg	Short_b09_cut1_stereo_44KHz.wav
4	190	2	1	0	C	2	1	1069	1	poli_8sides 5_whiteLine3.jpg	Short_b22_cut1_stereo_44KHz.wav
4	191	4	3	2	I	2	0	878	0	poli_8sides 7_whiteLine3.jpg	Short_b09_cut1_stereo_44KHz.wav
4	192	1	1	1	C	1	1	1027	1	poli_8sides 18_whiteLine3.jpg	Short_b22_cut1_stereo_44KHz.wav
4	193	2	1	0	C	2	1	975	1	poli_8sides 5_whiteLine3.jpg	Short_b22_cut1_stereo_44KHz.wav
4	194	4	4	2	I	2	0	660	1	poli_8sides 7_whiteLine3.jpg	Short_b23_cut1_stereo_44KHz.wav
4	195	1	1	1	C	1	1	751	1	poli_8sides 18_whiteLine3.jpg	Short_b22_cut1_stereo_44KHz.wav
4	196	3	4	2	I	2	0	745	0	poli_8sides 10_whiteLine3.jpg	Short_b23_cut1_stereo_44KHz.wav
4	197	1	2	0	C	2	1	576	1	poli_8sides 18_whiteLine3.jpg	Short_b20_cut1_stereo_44KHz.wav
4	198	3	3	2	I	1	0	736	0	poli_8sides 10_whiteLine3.jpg	Short_b09_cut1_stereo_44KHz.wav
4	199	4	3	2	I	2	0	847	0	poli_8sides 7_whiteLine3.jpg	Short_b09_cut1_stereo_44KHz.wav
4	200	2	2	1	C	2	0	945	0	poli_8sides 5_whiteLine3.jpg	Short_b20_cut1_stereo_44KHz.wav
