block	trial	Vstim	Astim	match	C/I	resp	.result	RT	fb	V-file	A-file
LR

0	1	3	2	0	C	0	0	0	0	Ⴒ	DEU_o_short_1.wav
0	2	3	2	0	C	1	0	2988	0	Ⴒ	DEU_o_short_1.wav
0	3	1	3	0	C	2	0	1928	0	Ⴎ	DEU_ä.wav
0	4	2	1	0	C	1	1	2492	1	Ⴔ	DEU_z.wav
0	5	1	1	1	C	2	1	2481	1	Ⴎ	DEU_z.wav
0	6	2	2	0	C	2	1	1890	1	Ⴔ	DEU_o_short_1.wav
0	7	3	2	0	C	1	1	1093	1	Ⴒ	DEU_o_short_1.wav
0	8	2	2	0	C	2	1	2892	1	Ⴔ	DEU_o_short_1.wav
0	9	1	1	1	C	1	0	1583	0	Ⴎ	DEU_z.wav
0	10	2	1	0	C	2	0	1422	0	Ⴔ	DEU_z.wav
0	11	3	2	0	C	1	0	2247	0	Ⴒ	DEU_o_short_1.wav
0	12	1	3	0	C	1	1	2516	1	Ⴎ	DEU_ä.wav
0	13	1	3	0	C	1	1	1609	1	Ⴎ	DEU_ä.wav
0	14	2	1	0	C	1	1	1802	1	Ⴔ	DEU_z.wav
0	15	3	2	0	C	1	1	1592	1	Ⴒ	DEU_o_short_1.wav
avg_resp = 2041
1	1	3	3	1	1	0	2407	0	Ⴁ	DEU_n.wav
1	2	2	1	0	2	0	3120	0	Ⴜ	DEU_u_short_1.wav
1	3	1	1	1	1	0	1684	0	Ⴂ	DEU_u_short_1.wav
1	4	3	3	1	1	0	1674	0	Ⴁ	DEU_n.wav
1	5	1	1	1	1	0	1693	0	Ⴂ	DEU_u_short_1.wav
1	6	3	3	1	2	1	2810	1	Ⴁ	DEU_n.wav
1	7	1	1	1	2	1	2924	1	Ⴂ	DEU_u_short_1.wav
1	8	2	2	1	1	0	1600	0	Ⴜ	DEU_p.wav
1	9	1	1	1	1	0	2104	0	Ⴂ	DEU_u_short_1.wav
1	10	2	1	0	1	1	1596	1	Ⴜ	DEU_u_short_1.wav
1	11	3	2	0	1	1	2584	1	Ⴁ	DEU_p.wav
1	12	2	1	0	1	1	2234	1	Ⴜ	DEU_u_short_1.wav
1	13	3	3	1	2	1	1941	1	Ⴁ	DEU_n.wav
1	14	1	3	0	1	1	2762	1	Ⴂ	DEU_n.wav
1	15	2	1	0	1	1	1793	1	Ⴜ	DEU_u_short_1.wav
1	16	1	3	0	2	0	2131	0	Ⴂ	DEU_n.wav
1	17	2	1	0	1	1	1728	1	Ⴜ	DEU_u_short_1.wav
1	18	3	2	0	1	1	1470	1	Ⴁ	DEU_p.wav
1	19	1	3	0	1	1	2241	1	Ⴂ	DEU_n.wav
1	20	2	2	1	2	1	1675	1	Ⴜ	DEU_p.wav
1	21	1	1	1	1	0	2145	0	Ⴂ	DEU_u_short_1.wav
1	22	2	2	1	2	1	1526	1	Ⴜ	DEU_p.wav
1	23	3	2	0	1	1	1562	1	Ⴁ	DEU_p.wav
1	24	2	2	1	2	1	1560	1	Ⴜ	DEU_p.wav
1	25	1	3	0	1	1	2153	1	Ⴂ	DEU_n.wav
1	26	3	2	0	1	1	1850	1	Ⴁ	DEU_p.wav
1	27	2	2	1	2	1	1881	1	Ⴜ	DEU_p.wav
1	28	3	2	0	2	0	1987	0	Ⴁ	DEU_p.wav
1	29	1	3	0	2	0	2087	0	Ⴂ	DEU_n.wav
1	30	3	3	1	1	0	1464	0	Ⴁ	DEU_n.wav
