block	trial	Vstim	Astim	match	C/I	resp	.result	RT	fb	V-file	A-file
LR

0	1	1	1	1	C	0	0	0	0	Ⴔ	DEU_o_short_1.wav
0	2	2	1	0	C	2	0	913	0	Ⴒ	DEU_o_short_1.wav
0	3	2	2	0	C	1	0	1862	0	Ⴒ	DEU_ch_1.wav
0	4	3	2	0	C	2	0	1726	0	Ⴎ	DEU_ch_1.wav
0	5	3	2	0	C	1	0	543	0	Ⴎ	DEU_ch_1.wav
0	6	1	3	0	C	2	0	1681	0	Ⴔ	DEU_m_1.wav
0	7	2	1	0	C	2	0	2075	0	Ⴒ	DEU_o_short_1.wav
0	8	1	1	1	C	1	0	1789	0	Ⴔ	DEU_o_short_1.wav
0	9	2	2	0	C	1	0	1852	0	Ⴒ	DEU_ch_1.wav
0	10	3	2	0	C	1	1	1487	1	Ⴎ	DEU_ch_1.wav
0	11	3	2	0	C	2	1	1353	1	Ⴎ	DEU_ch_1.wav
0	12	1	3	0	C	1	1	1693	1	Ⴔ	DEU_m_1.wav
0	13	2	1	0	C	1	1	1333	1	Ⴒ	DEU_o_short_1.wav
0	14	2	2	0	C	1	0	1587	0	Ⴒ	DEU_ch_1.wav
0	15	1	1	1	C	1	0	2085	0	Ⴔ	DEU_o_short_1.wav
avg_resp = 1467
1	1	3	2	0	2	0	1775	0	Ⴜ	DEU_u_short_1.wav
1	2	1	3	0	1	1	1733	1	Ⴂ	DEU_f.wav
1	3	3	2	0	1	1	1293	1	Ⴜ	DEU_u_short_1.wav
1	4	2	2	1	2	1	1564	1	Ⴁ	DEU_u_short_1.wav
1	5	1	3	0	1	1	1297	1	Ⴂ	DEU_f.wav
1	6	3	2	0	1	1	1113	1	Ⴜ	DEU_u_short_1.wav
1	7	1	1	1	2	1	1836	1	Ⴂ	DEU_n.wav
1	8	2	1	0	1	1	1736	1	Ⴁ	DEU_n.wav
1	9	3	2	0	1	1	1433	1	Ⴜ	DEU_u_short_1.wav
1	10	1	3	0	1	1	1209	1	Ⴂ	DEU_f.wav
1	11	2	1	0	2	0	1473	0	Ⴁ	DEU_n.wav
1	12	1	1	1	1	0	1438	0	Ⴂ	DEU_n.wav
1	13	2	1	0	1	1	2350	1	Ⴁ	DEU_n.wav
1	14	3	3	1	1	0	1538	0	Ⴜ	DEU_f.wav
1	15	2	2	1	2	1	1551	1	Ⴁ	DEU_u_short_1.wav
1	16	3	3	1	1	0	1512	0	Ⴜ	DEU_f.wav
1	17	2	1	0	1	1	383	1	Ⴁ	DEU_n.wav
1	18	1	1	1	2	1	734	1	Ⴂ	DEU_n.wav
1	19	3	3	1	1	0	1062	0	Ⴜ	DEU_f.wav
1	20	1	3	0	1	1	1257	1	Ⴂ	DEU_f.wav
1	21	3	2	0	1	1	1820	1	Ⴜ	DEU_u_short_1.wav
1	22	2	2	1	2	1	1728	1	Ⴁ	DEU_u_short_1.wav
1	23	1	3	0	1	1	1563	1	Ⴂ	DEU_f.wav
1	24	2	2	1	1	0	1973	0	Ⴁ	DEU_u_short_1.wav
1	25	1	1	1	2	1	2239	1	Ⴂ	DEU_n.wav
1	26	2	1	0	1	1	3453	1	Ⴁ	DEU_n.wav
1	27	3	3	1	1	0	1288	0	Ⴜ	DEU_f.wav
1	28	1	1	1	1	0	449	0	Ⴂ	DEU_n.wav
1	29	3	3	1	2	1	130	1	Ⴜ	DEU_f.wav
1	30	2	2	1	1	0	1780	0	Ⴁ	DEU_u_short_1.wav
