block	trial	Vstim	Astim	match	C/I	resp	.result	RT	fb	V-file	A-file
LR

0	1	3	2	0	C	0	0	0	0	Ⴎ	DEU_m_1.wav
0	2	1	1	1	C	2	1	2525	1	Ⴔ	DEU_ä.wav
0	3	1	3	0	C	1	1	1879	1	Ⴔ	DEU_z.wav
0	4	3	2	0	C	1	0	1772	0	Ⴎ	DEU_m_1.wav
0	5	2	2	0	C	2	1	2670	1	Ⴒ	DEU_m_1.wav
0	6	2	1	0	C	1	1	2333	1	Ⴒ	DEU_ä.wav
0	7	3	2	0	C	2	1	1852	1	Ⴎ	DEU_m_1.wav
0	8	3	2	0	C	1	1	2300	1	Ⴎ	DEU_m_1.wav
0	9	1	3	0	C	2	0	2177	0	Ⴔ	DEU_z.wav
0	10	2	1	0	C	1	1	1900	1	Ⴒ	DEU_ä.wav
0	11	2	2	0	C	2	1	1934	1	Ⴒ	DEU_m_1.wav
0	12	1	1	1	C	2	1	2290	1	Ⴔ	DEU_ä.wav
0	13	3	2	0	C	2	0	1718	0	Ⴎ	DEU_m_1.wav
0	14	3	2	0	C	2	1	2335	1	Ⴎ	DEU_m_1.wav
0	15	2	1	0	C	1	1	1611	1	Ⴒ	DEU_ä.wav
avg_resp = 2148
1	1	1	3	0	1	1	2288	1	Ⴂ	DEU_f.wav
1	2	3	3	1	1	0	2349	0	Ⴜ	DEU_f.wav
1	3	2	1	0	2	0	2404	0	Ⴁ	DEU_n.wav
1	4	3	3	1	1	0	1679	0	Ⴜ	DEU_f.wav
1	5	1	3	0	2	0	3223	0	Ⴂ	DEU_f.wav
1	6	3	3	1	1	0	3743	0	Ⴜ	DEU_f.wav
1	7	1	3	0	1	1	3292	1	Ⴂ	DEU_f.wav
1	8	2	1	0	1	1	2261	1	Ⴁ	DEU_n.wav
1	9	3	2	0	2	0	2029	0	Ⴜ	DEU_u_short_1.wav
1	10	1	1	1	1	0	1946	0	Ⴂ	DEU_n.wav
1	11	2	2	1	2	1	2006	1	Ⴁ	DEU_u_short_1.wav
1	12	3	2	0	2	0	2524	0	Ⴜ	DEU_u_short_1.wav
1	13	2	2	1	1	0	1683	0	Ⴁ	DEU_u_short_1.wav
1	14	1	1	1	1	0	1858	0	Ⴂ	DEU_n.wav
1	15	2	2	1	1	0	3095	0	Ⴁ	DEU_u_short_1.wav
1	16	3	3	1	1	0	2754	0	Ⴜ	DEU_f.wav
1	17	1	3	0	2	0	2728	0	Ⴂ	DEU_f.wav
1	18	3	3	1	2	1	2925	1	Ⴜ	DEU_f.wav
1	19	2	2	1	2	1	2726	1	Ⴁ	DEU_u_short_1.wav
1	20	1	1	1	1	0	3411	0	Ⴂ	DEU_n.wav
1	21	3	2	0	2	0	2301	0	Ⴜ	DEU_u_short_1.wav
1	22	2	1	0	2	0	2434	0	Ⴁ	DEU_n.wav
1	23	1	3	0	2	0	3487	0	Ⴂ	DEU_f.wav
1	24	2	1	0	1	1	3094	1	Ⴁ	DEU_n.wav
1	25	1	1	1	2	1	3123	1	Ⴂ	DEU_n.wav
1	26	3	2	0	1	1	3687	1	Ⴜ	DEU_u_short_1.wav
1	27	1	1	1	2	1	2766	1	Ⴂ	DEU_n.wav
1	28	2	1	0	1	1	3059	1	Ⴁ	DEU_n.wav
1	29	3	2	0	1	1	2835	1	Ⴜ	DEU_u_short_1.wav
1	30	2	2	1	1	0	3615	0	Ⴁ	DEU_u_short_1.wav
