block	trial	Vstim	Astim	match	C/I	resp	.result	RT	fb	V-file	A-file
LR

0	1	3	2	0	C	1	1	3434	1	Ⴎ	DEU_ä.wav
0	2	1	3	0	C	2	0	2787	0	Ⴒ	DEU_ch_1.wav
0	3	3	2	0	C	1	0	1493	0	Ⴎ	DEU_ä.wav
0	4	1	1	1	C	1	0	1694	0	Ⴒ	DEU_o_short_1.wav
0	5	2	2	0	C	0	0	0	0	Ⴔ	DEU_ä.wav
0	6	2	1	0	C	2	0	2610	0	Ⴔ	DEU_o_short_1.wav
0	7	2	2	0	C	1	0	1979	0	Ⴔ	DEU_ä.wav
0	8	1	3	0	C	1	1	2447	1	Ⴒ	DEU_ch_1.wav
0	9	1	1	1	C	2	1	2217	1	Ⴒ	DEU_o_short_1.wav
0	10	2	1	0	C	2	0	2022	0	Ⴔ	DEU_o_short_1.wav
0	11	3	2	0	C	2	0	2661	0	Ⴎ	DEU_ä.wav
0	12	3	2	0	C	1	0	2419	0	Ⴎ	DEU_ä.wav
0	13	2	2	0	C	0	0	0	0	Ⴔ	DEU_ä.wav
0	14	2	1	0	C	1	1	2022	1	Ⴔ	DEU_o_short_1.wav
0	15	1	3	0	C	1	1	2799	1	Ⴒ	DEU_ch_1.wav
avg_resp = 2584
1	1	2	2	1	0	0	0	0	Ⴁ	DEU_f.wav
1	2	3	2	0	1	1	2728	1	Ⴂ	DEU_f.wav
1	3	1	1	1	1	0	2104	0	Ⴜ	DEU_u_short_1.wav
1	4	2	1	0	1	1	1216	1	Ⴁ	DEU_u_short_1.wav
1	5	3	2	0	2	0	870	0	Ⴂ	DEU_f.wav
1	6	1	1	1	2	1	3378	1	Ⴜ	DEU_u_short_1.wav
1	7	3	3	1	2	1	1952	1	Ⴂ	DEU_n.wav
1	8	2	2	1	1	0	1536	0	Ⴁ	DEU_f.wav
1	9	1	3	0	2	0	2358	0	Ⴜ	DEU_n.wav
1	10	3	2	0	1	1	1799	1	Ⴂ	DEU_f.wav
1	11	2	2	1	1	0	1936	0	Ⴁ	DEU_f.wav
1	12	3	3	1	1	0	2428	0	Ⴂ	DEU_n.wav
1	13	2	1	0	1	1	1957	1	Ⴁ	DEU_u_short_1.wav
1	14	1	3	0	2	0	2172	0	Ⴜ	DEU_n.wav
1	15	2	1	0	1	1	1368	1	Ⴁ	DEU_u_short_1.wav
1	16	3	3	1	2	1	1760	1	Ⴂ	DEU_n.wav
1	17	1	3	0	1	1	2594	1	Ⴜ	DEU_n.wav
1	18	2	2	1	2	1	2480	1	Ⴁ	DEU_f.wav
1	19	3	3	1	1	0	2662	0	Ⴂ	DEU_n.wav
1	20	1	3	0	2	0	1735	0	Ⴜ	DEU_n.wav
1	21	3	2	0	1	1	2000	1	Ⴂ	DEU_f.wav
1	22	2	1	0	1	1	1997	1	Ⴁ	DEU_u_short_1.wav
1	23	1	1	1	1	0	1789	0	Ⴜ	DEU_u_short_1.wav
1	24	3	3	1	2	1	1496	1	Ⴂ	DEU_n.wav
1	25	1	3	0	2	0	2429	0	Ⴜ	DEU_n.wav
1	26	2	1	0	1	1	1232	1	Ⴁ	DEU_u_short_1.wav
1	27	1	1	1	1	0	1625	0	Ⴜ	DEU_u_short_1.wav
1	28	2	2	1	1	0	1397	0	Ⴁ	DEU_f.wav
1	29	1	1	1	2	1	1305	1	Ⴜ	DEU_u_short_1.wav
1	30	3	2	0	1	1	2084	1	Ⴂ	DEU_f.wav
