block	trial	Vstim	Astim	match	C/I	resp	.result	RT	fb	V-file	A-file
LR

0	1	2	1	0	C	2	0	2763	0	Ⴎ	DEU_o_short_1.wav
0	2	1	1	1	C	1	0	3742	0	Ⴔ	DEU_o_short_1.wav
0	3	2	2	0	C	1	0	3377	0	Ⴎ	DEU_m_1.wav
0	4	1	3	0	C	2	0	2022	0	Ⴔ	DEU_ä.wav
0	5	3	2	0	C	2	0	1312	0	Ⴒ	DEU_m_1.wav
0	6	3	2	0	C	2	1	2041	1	Ⴒ	DEU_m_1.wav
0	7	1	1	1	C	2	1	1900	1	Ⴔ	DEU_o_short_1.wav
0	8	2	1	0	C	1	1	1281	1	Ⴎ	DEU_o_short_1.wav
0	9	3	2	0	C	1	0	1805	0	Ⴒ	DEU_m_1.wav
0	10	3	2	0	C	2	0	2751	0	Ⴒ	DEU_m_1.wav
0	11	2	2	0	C	1	0	2641	0	Ⴎ	DEU_m_1.wav
0	12	1	3	0	C	2	0	932	0	Ⴔ	DEU_ä.wav
0	13	3	2	0	C	2	0	1264	0	Ⴒ	DEU_m_1.wav
0	14	2	1	0	C	1	1	915	1	Ⴎ	DEU_o_short_1.wav
0	15	2	2	0	C	1	0	1694	0	Ⴎ	DEU_m_1.wav
avg_resp = 1534
1	1	2	1	0	2	0	1782	0	Ⴁ	DEU_p.wav
1	2	3	3	1	1	0	1031	0	Ⴂ	DEU_f.wav
1	3	1	3	0	2	0	1071	0	Ⴜ	DEU_f.wav
1	4	2	2	1	2	1	1060	1	Ⴁ	DEU_u_short_1.wav
1	5	1	3	0	1	1	2221	1	Ⴜ	DEU_f.wav
1	6	2	1	0	2	0	1247	0	Ⴁ	DEU_p.wav
1	7	1	1	1	1	0	19	0	Ⴜ	DEU_p.wav
1	8	2	2	1	1	0	2747	0	Ⴁ	DEU_u_short_1.wav
1	9	3	3	1	2	1	932	1	Ⴂ	DEU_f.wav
1	10	1	1	1	2	1	783	1	Ⴜ	DEU_p.wav
1	11	2	2	1	1	0	2256	0	Ⴁ	DEU_u_short_1.wav
1	12	3	2	0	2	0	1004	0	Ⴂ	DEU_u_short_1.wav
1	13	1	3	0	2	0	868	0	Ⴜ	DEU_f.wav
1	14	2	1	0	1	1	1047	1	Ⴁ	DEU_p.wav
1	15	3	3	1	1	0	890	0	Ⴂ	DEU_f.wav
1	16	2	2	1	2	1	199	1	Ⴁ	DEU_u_short_1.wav
1	17	3	2	0	1	1	11	1	Ⴂ	DEU_u_short_1.wav
1	18	2	1	0	2	0	253	0	Ⴁ	DEU_p.wav
1	19	3	3	1	1	0	1343	0	Ⴂ	DEU_f.wav
1	20	1	3	0	1	1	1275	1	Ⴜ	DEU_f.wav
1	21	3	2	0	2	0	2432	0	Ⴂ	DEU_u_short_1.wav
1	22	1	1	1	1	0	1847	0	Ⴜ	DEU_p.wav
1	23	2	2	1	1	0	2187	0	Ⴁ	DEU_u_short_1.wav
1	24	3	2	0	1	1	1540	1	Ⴂ	DEU_u_short_1.wav
1	25	1	1	1	2	1	923	1	Ⴜ	DEU_p.wav
1	26	3	3	1	2	1	1407	1	Ⴂ	DEU_f.wav
1	27	1	1	1	1	0	1019	0	Ⴜ	DEU_p.wav
1	28	3	2	0	2	0	1093	0	Ⴂ	DEU_u_short_1.wav
1	29	1	3	0	2	0	1413	0	Ⴜ	DEU_f.wav
1	30	2	1	0	1	1	1123	1	Ⴁ	DEU_p.wav
