block	trial	Vstim	Astim	match	C/I	resp	.result	RT	fb	V-file	A-file
LR

0	1	2	2	0	C	0	0	0	0	Ⴎ	DEU_o_short_1.wav
0	2	1	1	1	C	0	0	0	0	Ⴔ	DEU_z.wav
0	3	3	2	0	C	0	0	0	0	Ⴒ	DEU_o_short_1.wav
0	4	3	2	0	C	1	0	3841	0	Ⴒ	DEU_o_short_1.wav
0	5	2	1	0	C	1	1	2886	1	Ⴎ	DEU_z.wav
0	6	1	3	0	C	2	0	1883	0	Ⴔ	DEU_m_1.wav
0	7	3	2	0	C	1	0	3423	0	Ⴒ	DEU_o_short_1.wav
0	8	2	2	0	C	1	0	2897	0	Ⴎ	DEU_o_short_1.wav
0	9	1	1	1	C	0	0	0	0	Ⴔ	DEU_z.wav
0	10	1	3	0	C	2	0	2921	0	Ⴔ	DEU_m_1.wav
0	11	2	1	0	C	1	1	3896	1	Ⴎ	DEU_z.wav
0	12	3	2	0	C	2	0	2170	0	Ⴒ	DEU_o_short_1.wav
0	13	2	1	0	C	2	0	2272	0	Ⴎ	DEU_z.wav
0	14	2	2	0	C	1	0	3020	0	Ⴎ	DEU_o_short_1.wav
0	15	3	2	0	C	0	0	0	0	Ⴒ	DEU_o_short_1.wav
avg_resp = 3391
1	1	1	3	0	1	1	3227	1	Ⴁ	DEU_p.wav
1	2	3	2	0	1	1	2694	1	Ⴜ	DEU_f.wav
1	3	2	1	0	2	0	1647	0	Ⴂ	DEU_u_short_1.wav
1	4	1	1	1	2	1	3036	1	Ⴁ	DEU_u_short_1.wav
1	5	3	2	0	1	1	2787	1	Ⴜ	DEU_f.wav
1	6	1	3	0	1	1	1852	1	Ⴁ	DEU_p.wav
1	7	2	1	0	1	1	2143	1	Ⴂ	DEU_u_short_1.wav
1	8	3	3	1	1	0	1593	0	Ⴜ	DEU_p.wav
1	9	2	1	0	1	1	1589	1	Ⴂ	DEU_u_short_1.wav
1	10	3	2	0	2	0	2774	0	Ⴜ	DEU_f.wav
1	11	1	3	0	2	0	1683	0	Ⴁ	DEU_p.wav
1	12	3	3	1	1	0	2039	0	Ⴜ	DEU_p.wav
1	13	2	2	1	1	0	2372	0	Ⴂ	DEU_f.wav
1	14	3	3	1	2	1	1246	1	Ⴜ	DEU_p.wav
1	15	1	1	1	1	0	1937	0	Ⴁ	DEU_u_short_1.wav
1	16	3	3	1	2	1	1675	1	Ⴜ	DEU_p.wav
1	17	2	2	1	2	1	1938	1	Ⴂ	DEU_f.wav
1	18	1	1	1	2	1	2560	1	Ⴁ	DEU_u_short_1.wav
1	19	2	2	1	2	1	2424	1	Ⴂ	DEU_f.wav
1	20	1	1	1	2	1	1923	1	Ⴁ	DEU_u_short_1.wav
1	21	3	3	1	2	1	1989	1	Ⴜ	DEU_p.wav
1	22	2	1	0	2	0	1548	0	Ⴂ	DEU_u_short_1.wav
1	23	1	3	0	1	1	1469	1	Ⴁ	DEU_p.wav
1	24	3	2	0	1	1	1904	1	Ⴜ	DEU_f.wav
1	25	2	2	1	2	1	1878	1	Ⴂ	DEU_f.wav
1	26	1	1	1	2	1	2153	1	Ⴁ	DEU_u_short_1.wav
1	27	2	2	1	1	0	2766	0	Ⴂ	DEU_f.wav
1	28	1	3	0	2	0	2863	0	Ⴁ	DEU_p.wav
1	29	2	1	0	2	0	1254	0	Ⴂ	DEU_u_short_1.wav
1	30	3	2	0	1	1	1410	1	Ⴜ	DEU_f.wav
