subj_idx,block,trial,vStims,aStim,resp,rt,fb,iti,feedJitter,vSymbols,aFile,stimOnset,respOnset,feedbackOnset
2x3-01,1,1,1_3,1,0,0,2,3043,1861,ac,norm_a.wav,25314,0,29231
2x3-01,1,2,2_3,3,2,0.539,1,2301,2350,bc,norm_s.wav,33589,34128,37988
2x3-01,1,3,2_1,1,2,1.428,1,2097,1857,ba,norm_a.wav,42120,43548,46030
2x3-01,1,4,2_1,1,0,0,2,3332,2011,ba,norm_a.wav,51389,0,55435
2x3-01,1,5,1_3,3,1,1.022,0,2872,1333,ac,norm_s.wav,60347,61369,63742
2x3-01,1,6,3_1,3,0,0,2,2863,1823,ca,norm_s.wav,68640,0,72516
2x3-01,1,7,2_3,2,0,0,2,2286,1733,bc,norm_d.wav,76847,0,80611
2x3-01,1,8,2_3,2,1,0.499,1,2760,1869,bc,norm_d.wav,85406,85905,89298
2x3-01,1,9,1_2,2,1,1.846,0,3440,1584,ab,norm_d.wav,94770,96616,98381
2x3-01,1,10,1_3,1,2,1.513,0,3221,1211,ac,norm_a.wav,103636,105149,106876
2x3-01,1,11,3_2,2,2,1.297,1,3162,2563,cb,norm_d.wav,112062,113359,116663
2x3-01,1,12,1_2,1,1,1.495,1,3788,2175,ab,norm_a.wav,122489,123984,126693
2x3-01,1,13,3_1,3,2,1.015,0,1752,2549,ca,norm_s.wav,130471,131486,135052
2x3-01,1,14,2_1,2,1,1.388,1,4089,1588,ba,norm_d.wav,141176,142564,144792
2x3-01,1,15,3_2,2,2,0.972,1,3164,998,cb,norm_d.wav,149986,150958,153020
2x3-01,1,16,3_2,3,1,1.663,1,2685,1510,cb,norm_s.wav,157742,159405,161300
2x3-01,1,17,2_3,3,2,1.34,1,2873,1850,bc,norm_s.wav,166198,167538,170075
2x3-01,1,18,1_2,2,2,1.312,1,3374,1346,ab,norm_d.wav,175483,176795,178856
2x3-01,1,19,1_3,3,2,1.465,1,3569,2482,ac,norm_s.wav,184463,185928,188976
2x3-01,1,20,3_2,3,1,0.983,1,3082,2140,cb,norm_s.wav,194094,195077,198269
2x3-01,1,21,3_1,1,2,1.579,1,2990,2016,ca,norm_a.wav,203287,204866,207330
2x3-01,1,22,3_1,1,2,1.159,1,2720,1421,ca,norm_a.wav,212085,213244,215536
2x3-01,1,23,2_1,2,1,1.651,1,2608,2253,ba,norm_d.wav,220174,221825,224469
2x3-01,1,24,1_2,1,1,1.436,1,2398,1124,ab,norm_a.wav,228899,230335,232058
2x3-01,2,1,1_3,3,0,0,2,3440,2140,df,norm_k.wav,22975,0,27142
2x3-01,2,2,3_1,3,2,0.891,0,3221,1823,fd,norm_k.wav,32391,33282,36244
2x3-01,2,3,2_3,3,0,0,2,2608,1869,ef,norm_k.wav,40880,0,44774
2x3-01,2,4,3_2,2,1,1.868,0,3043,1510,fe,norm_e.wav,49866,51734,53400
2x3-01,2,5,2_1,2,1,0.505,1,2720,2563,ed,norm_e.wav,58144,58649,62737
2x3-01,2,6,3_2,2,1,1.743,0,3082,1861,fe,norm_e.wav,67858,69601,71754
2x3-01,2,7,2_3,2,1,1.266,1,2286,2350,ef,norm_e.wav,76080,77346,80461
2x3-01,2,8,1_3,1,1,0.857,1,1752,2482,df,norm_f.wav,84280,85137,88794
2x3-01,2,9,3_2,3,2,1.77,0,3164,2253,fe,norm_k.wav,93994,95764,98283
2x3-01,2,10,2_3,2,1,0.66,1,2398,1733,ef,norm_e.wav,102712,103372,106481
2x3-01,2,11,1_2,1,1,1.702,1,2873,1857,de,norm_f.wav,111389,113091,115273
2x3-01,2,12,2_1,2,1,0.911,1,2863,1850,ed,norm_e.wav,120163,121074,124067
2x3-01,2,13,1_3,3,2,1.249,1,2872,2016,df,norm_k.wav,128974,130223,133018
2x3-01,2,14,3_1,1,1,1.677,0,3569,2011,fd,norm_f.wav,138622,140299,142664
2x3-01,2,15,1_2,1,2,1.02,0,2760,1421,de,norm_f.wav,147448,148468,150892
2x3-01,2,16,2_1,1,1,0.848,0,2990,2175,ed,norm_f.wav,155913,156761,160114
2x3-01,2,17,1_3,1,1,1.996,1,3332,1124,df,norm_f.wav,165473,167469,168631
2x3-01,2,18,1_2,2,0,0,2,3374,1211,de,norm_e.wav,174032,0,177270
2x3-01,2,19,3_1,3,1,1.244,1,2097,1346,fd,norm_k.wav,181407,182651,184789
2x3-01,2,20,1_2,2,0,0,2,3162,1584,de,norm_e.wav,189990,0,193612
2x3-01,2,21,3_1,1,2,0.732,1,4089,998,fd,norm_f.wav,199735,200467,202777
2x3-01,2,22,3_2,3,1,1.163,1,3788,2549,fe,norm_k.wav,208602,209765,213180
2x3-01,2,23,2_3,3,1,1.224,0,2301,1588,ef,norm_k.wav,217516,218740,221153
2x3-01,2,24,2_1,1,1,0.529,0,2685,1333,ed,norm_f.wav,225868,226397,229250
2x3-02,1,1,1_3,1,0,0,2,3164,1861,ac,norm_s.wav,17001,0,20897
2x3-02,1,2,2_3,3,0,0,2,1752,1857,bc,norm_d.wav,24689,0,28577
2x3-02,1,3,2_1,1,0,0,2,2398,1733,ba,norm_s.wav,33003,0,36788
2x3-02,1,4,2_1,1,2,1.918,1,2760,1584,ba,norm_s.wav,41591,43509,45198
2x3-02,1,5,1_3,3,1,0.853,0,3082,1850,ac,norm_d.wav,50314,51167,54199
2x3-02,1,6,3_1,3,1,1.498,1,3440,2482,ca,norm_d.wav,59673,61171,64182
2x3-02,1,7,2_3,2,0,0,2,2872,2549,bc,norm_a.wav,69090,0,73684
2x3-02,1,8,2_3,2,1,1.589,1,4089,2175,bc,norm_a.wav,79809,81398,84012
2x3-02,1,9,1_2,2,2,1.22,1,3332,1421,ab,norm_a.wav,89370,90590,92826
2x3-02,1,10,1_3,1,1,1.905,1,2301,2253,ac,norm_s.wav,97157,99062,101442
2x3-02,1,11,3_2,2,2,1.881,1,2990,2140,cb,norm_a.wav,106464,108345,110631
2x3-02,1,12,1_2,1,1,1.263,1,3221,1211,ab,norm_s.wav,115880,117143,119120
2x3-02,1,13,3_1,3,0,0,2,3162,998,ca,norm_d.wav,124305,0,127359
2x3-02,1,14,2_1,2,1,1.973,1,3569,2350,ba,norm_a.wav,132964,134937,137345
2x3-02,1,15,3_2,2,2,1.049,1,3788,2016,cb,norm_a.wav,143167,144216,147212
2x3-02,1,16,3_2,3,2,1.807,0,2097,1588,cb,norm_d.wav,151345,153152,154969
2x3-02,1,17,2_3,3,2,1.182,1,2873,1346,bc,norm_d.wav,159872,161054,163245
2x3-02,1,18,1_2,2,1,1.199,0,3043,1333,ab,norm_a.wav,168326,169525,171683
2x3-02,1,19,1_3,3,0,0,2,2685,1869,ac,norm_d.wav,176403,0,180304
2x3-02,1,20,3_2,3,0,0,2,2286,2011,cb,norm_d.wav,184622,0,188664
2x3-02,1,21,3_1,1,2,1.737,1,2863,1510,ca,norm_s.wav,193550,195287,197097
2x3-02,1,22,3_1,1,2,1.889,1,2720,1124,ca,norm_s.wav,201842,203731,204996
2x3-02,1,23,2_1,2,1,1.157,1,2608,2563,ba,norm_a.wav,209631,210788,214219
2x3-02,1,24,1_2,1,1,1.033,1,3374,1823,ab,norm_s.wav,219632,220665,223498
2x3-02,2,1,1_3,3,2,0.948,1,2720,2253,df,norm_f.wav,18621,19569,22922
2x3-02,2,2,3_1,3,1,1.073,1,3221,1346,fd,norm_f.wav,28175,29248,31550
2x3-02,2,3,2_3,3,2,0.91,1,3374,1861,ef,norm_f.wav,36946,37856,40833
2x3-02,2,4,3_2,2,2,1.152,1,3164,2140,fe,norm_e.wav,46020,47172,50197
2x3-02,2,5,2_1,2,2,1.825,0,3788,1421,ed,norm_e.wav,56012,57837,59462
2x3-02,2,6,3_2,2,0,0,2,2872,2350,fe,norm_e.wav,64364,0,68743
2x3-02,2,7,2_3,2,1,1.193,1,2873,1850,ef,norm_e.wav,73650,74843,77527
2x3-02,2,8,1_3,1,1,1.232,1,1752,1124,df,norm_k.wav,81314,82546,84469
2x3-02,2,9,3_2,3,1,1.272,1,2608,1869,fe,norm_f.wav,89104,90376,93015
2x3-02,2,10,2_3,2,1,1.195,1,3162,2011,ef,norm_e.wav,98210,99405,102242
2x3-02,2,11,1_2,1,0,0,2,2301,1510,de,norm_k.wav,106567,0,110109
2x3-02,2,12,2_1,2,2,1.464,0,3440,1211,ed,norm_e.wav,115573,117037,118811
2x3-02,2,13,1_3,3,2,1.082,1,2863,998,df,norm_f.wav,123698,124780,126733
2x3-02,2,14,3_1,1,2,1.085,1,2097,1584,fd,norm_k.wav,130866,131951,134487
2x3-02,2,15,1_2,1,0,0,2,2398,1857,de,norm_k.wav,138919,0,142811
2x3-02,2,16,2_1,1,1,1.373,0,3043,1733,ed,norm_k.wav,147881,149254,151638
2x3-02,2,17,1_3,1,1,1.356,1,2990,2563,df,norm_k.wav,156663,158019,161253
2x3-02,2,18,1_2,2,2,1.974,1,2760,1823,de,norm_e.wav,166051,168025,169898
2x3-02,2,19,3_1,3,0,0,2,3082,2482,fd,norm_f.wav,175008,0,179525
2x3-02,2,20,1_2,2,0,0,2,3569,1588,de,norm_e.wav,185130,0,188749
2x3-02,2,21,3_1,1,2,1.205,1,4089,2549,fd,norm_k.wav,194868,196073,199461
2x3-02,2,22,3_2,3,1,1.731,1,3332,2175,fe,norm_f.wav,204829,206560,209039
2x3-02,2,23,2_3,3,2,1.423,1,2685,2016,ef,norm_f.wav,213750,215173,217798
2x3-02,2,24,2_1,1,0,0,2,2286,1333,ed,norm_k.wav,222119,0,225483
2x3-03,1,1,1_3,1,1,0.82,1,2873,2563,ac,norm_a.wav,17240,18060,21881
2x3-03,1,2,2_3,3,2,1.601,1,2685,1850,bc,norm_s.wav,26638,28239,30520
2x3-03,1,3,2_1,1,1,1.139,0,1752,1346,ba,norm_a.wav,34306,35445,37717
2x3-03,1,4,2_1,1,2,1.054,1,3569,1211,ba,norm_a.wav,43324,44378,46567
2x3-03,1,5,1_3,3,1,1.007,0,2608,998,ac,norm_s.wav,51198,52205,54238
2x3-03,1,6,3_1,3,1,0.945,1,3440,1588,ca,norm_s.wav,59714,60659,63329
2x3-03,1,7,2_3,2,2,1.298,0,2760,2549,bc,norm_d.wav,68136,69434,72725
2x3-03,1,8,2_3,2,1,1.001,1,3164,1584,bc,norm_d.wav,77924,78925,81545
2x3-03,1,9,1_2,2,1,0.973,0,3332,1124,ab,norm_d.wav,86911,87884,90069
2x3-03,1,10,1_3,1,2,0.944,0,2097,2175,ac,norm_a.wav,94194,95138,98405
2x3-03,1,11,3_2,2,2,1.085,1,3788,1869,cb,norm_d.wav,104219,105304,108117
2x3-03,1,12,1_2,1,1,1.483,1,2990,2482,ab,norm_a.wav,113139,114622,117665
2x3-03,1,13,3_1,3,1,1.055,1,2286,2140,ca,norm_s.wav,121987,123042,126157
2x3-03,1,14,2_1,2,1,0.974,1,2720,2253,ba,norm_d.wav,130905,131879,135205
2x3-03,1,15,3_2,2,2,1.123,1,2863,2016,cb,norm_d.wav,140100,141223,144170
2x3-03,1,16,3_2,3,1,1.23,1,2301,1510,cb,norm_s.wav,148506,149736,152065
2x3-03,1,17,2_3,3,2,0.956,1,2398,2011,bc,norm_s.wav,156487,157443,160534
2x3-03,1,18,1_2,2,1,1.057,0,3082,1733,ab,norm_d.wav,165639,166696,169407
2x3-03,1,19,1_3,3,2,1.03,1,3162,1823,ac,norm_s.wav,174604,175634,178465
2x3-03,1,20,3_2,3,1,0.831,1,3221,1857,cb,norm_s.wav,183714,184545,187601
2x3-03,1,21,3_1,1,2,1.05,1,3374,1421,ca,norm_a.wav,193002,194052,196449
2x3-03,1,22,3_1,1,1,0.905,0,2872,1333,ca,norm_a.wav,201351,202256,204712
2x3-03,1,23,2_1,2,1,0.971,1,4089,2350,ba,norm_d.wav,210836,211807,215214
2x3-03,1,24,1_2,1,2,1.166,0,3043,1861,ab,norm_a.wav,220292,221458,224177
2x3-03,2,1,1_3,3,1,0.773,0,3043,1584,df,norm_f.wav,16857,17630,20470
2x3-03,2,2,3_1,3,1,0.952,1,3162,1733,fd,norm_f.wav,25665,26617,29453
2x3-03,2,3,2_3,3,2,1.027,1,3440,998,ef,norm_f.wav,34928,35955,37953
2x3-03,2,4,3_2,2,2,1.295,1,2286,2350,fe,norm_k.wav,42292,43587,46673
2x3-03,2,5,2_1,2,2,1.061,0,3374,2549,ed,norm_k.wav,52081,53142,56673
2x3-03,2,6,3_2,2,1,1.261,0,2863,2011,fe,norm_k.wav,61572,62833,65620
2x3-03,2,7,2_3,2,1,1.284,1,2097,1124,ef,norm_k.wav,69740,71024,72901
2x3-03,2,8,1_3,1,1,1.254,1,3082,1861,df,norm_e.wav,78027,79281,81923
2x3-03,2,9,3_2,3,1,1.462,1,3221,2016,fe,norm_f.wav,87167,88629,91212
2x3-03,2,10,2_3,2,1,0.976,1,3788,1510,ef,norm_k.wav,97035,98011,100574
2x3-03,2,11,1_2,1,2,1.599,0,3569,2482,de,norm_e.wav,106168,107767,110681
2x3-03,2,12,2_1,2,1,1.02,1,2872,1588,ed,norm_k.wav,115589,116609,119205
2x3-03,2,13,1_3,3,2,0.887,1,3164,2253,df,norm_f.wav,124399,125286,128705
2x3-03,2,14,3_1,1,2,1.134,1,2990,1333,fd,norm_e.wav,133726,134860,137086
2x3-03,2,15,1_2,1,1,1.373,1,2720,1823,de,norm_e.wav,141841,143214,145711
2x3-03,2,16,2_1,1,2,1.264,1,1752,1850,ed,norm_e.wav,149491,150755,153372
2x3-03,2,17,1_3,1,1,0.899,1,2685,1346,df,norm_e.wav,158092,158991,161470
2x3-03,2,18,1_2,2,2,1.117,1,2873,1857,de,norm_k.wav,166381,167498,170265
2x3-03,2,19,3_1,3,1,1.281,1,2301,2563,fd,norm_f.wav,174594,175875,179189
2x3-03,2,20,1_2,2,2,0.713,1,4089,1421,de,norm_k.wav,185316,186029,188782
2x3-03,2,21,3_1,1,2,0.969,1,2398,2175,fd,norm_e.wav,193210,194179,197421
2x3-03,2,22,3_2,3,1,0.795,1,2608,2140,fe,norm_f.wav,202055,202850,206220
2x3-03,2,23,2_3,3,2,0.816,1,2760,1211,ef,norm_f.wav,211008,211824,214243
2x3-03,2,24,2_1,1,1,1.316,0,3332,1869,ed,norm_e.wav,219598,220914,223502
2x3-04,1,1,1_3,1,0,0,2,3043,1588,ac,norm_d.wav,19202,0,22824
2x3-04,1,2,2_3,3,2,1.012,1,2990,1211,bc,norm_a.wav,27844,28856,31115
2x3-04,1,3,2_1,1,2,1.447,1,2097,1869,ba,norm_d.wav,35252,36699,39157
2x3-04,1,4,2_1,1,2,1.002,1,3082,1850,ba,norm_d.wav,44271,45273,48173
2x3-04,1,5,1_3,3,2,1.286,1,3221,2253,ac,norm_a.wav,53428,54714,57711
2x3-04,1,6,3_1,3,1,1.233,1,3440,1510,ca,norm_a.wav,63182,64415,66719
2x3-04,1,7,2_3,2,1,1.991,1,2760,1857,bc,norm_s.wav,71504,73495,75384
2x3-04,1,8,2_3,2,1,1.431,1,2873,998,bc,norm_s.wav,80289,81720,83315
2x3-04,1,9,1_2,2,2,1.299,1,2608,1584,ab,norm_s.wav,87959,89258,91568
2x3-04,1,10,1_3,1,1,1.647,1,3164,2563,ac,norm_d.wav,96766,98413,101382
2x3-04,1,11,3_2,2,2,1.155,1,3332,1346,cb,norm_s.wav,106752,107907,110150
2x3-04,1,12,1_2,1,0,0,2,3569,2350,ab,norm_d.wav,115757,0,120139
2x3-04,1,13,3_1,3,1,1.215,1,2720,1421,ca,norm_a.wav,124893,126108,128344
2x3-04,1,14,2_1,2,1,1.358,1,2685,1733,ba,norm_s.wav,133059,134417,136824
2x3-04,1,15,3_2,2,1,1.256,0,2286,2016,cb,norm_s.wav,141145,142401,145225
2x3-04,1,16,3_2,3,1,1.299,1,2301,1333,cb,norm_a.wav,149561,150860,152927
2x3-04,1,17,2_3,3,2,1.761,1,3162,2549,bc,norm_a.wav,158123,159884,162711
2x3-04,1,18,1_2,2,2,1.447,1,3788,1823,ab,norm_s.wav,168534,169981,172386
2x3-04,1,19,1_3,3,0,0,2,2398,1861,ac,norm_a.wav,176813,0,180709
2x3-04,1,20,3_2,3,1,1.644,1,2863,2482,cb,norm_a.wav,185612,187256,190148
2x3-04,1,21,3_1,1,2,1.108,1,3374,1124,ca,norm_d.wav,195558,196666,198708
2x3-04,1,22,3_1,1,2,1.465,1,2872,2140,ca,norm_d.wav,203607,205072,207775
2x3-04,1,23,2_1,2,1,1.362,1,4089,2175,ba,norm_s.wav,213892,215254,218112
2x3-04,1,24,1_2,1,1,1.215,1,1752,2011,ab,norm_d.wav,221890,223105,225932
2x3-05,1,1,1_3,1,0,0,2,3221,998,ac,norm_d.wav,28653,0,31685
2x3-05,1,2,2_3,3,1,1.469,0,2872,1346,bc,norm_s.wav,36594,38063,39985
2x3-05,1,3,2_1,1,2,1.036,1,3569,2140,ba,norm_d.wav,45592,46628,49780
2x3-05,1,4,2_1,1,2,1.077,1,3043,1333,ba,norm_d.wav,54851,55928,58208
2x3-05,1,5,1_3,3,1,1.54,0,2608,1861,ac,norm_s.wav,62850,64390,66737
2x3-05,1,6,3_1,3,2,1.037,0,3082,1584,ca,norm_s.wav,71859,72896,75478
2x3-05,1,7,2_3,2,1,1.371,1,3332,2350,bc,norm_a.wav,80843,82214,85229
2x3-05,1,8,2_3,2,1,1.032,1,1752,1510,bc,norm_a.wav,89015,90047,92557
2x3-05,1,9,1_2,2,2,0.861,1,3374,1823,ab,norm_a.wav,97955,98816,101803
2x3-05,1,10,1_3,1,1,1.101,1,2863,1124,ac,norm_d.wav,106695,107796,109873
2x3-05,1,11,3_2,2,2,1.068,1,3162,2016,cb,norm_a.wav,115062,116130,119100
2x3-05,1,12,1_2,1,2,1.271,0,4089,1211,ab,norm_d.wav,125224,126495,128463
2x3-05,1,13,3_1,3,2,1.164,0,3788,2011,ca,norm_s.wav,134291,135455,138331
2x3-05,1,14,2_1,2,1,1.775,1,2685,2482,ba,norm_a.wav,143039,144814,147570
2x3-05,1,15,3_2,2,2,0.74,1,2301,2563,cb,norm_a.wav,151907,152647,156502
2x3-05,1,16,3_2,3,2,0.85,0,2720,1421,cb,norm_s.wav,161261,162111,164712
2x3-05,1,17,2_3,3,1,0.748,0,2990,2175,bc,norm_s.wav,169732,170480,173934
2x3-05,1,18,1_2,2,1,1.08,0,2286,1857,ab,norm_a.wav,178246,179326,182150
2x3-05,1,19,1_3,3,2,1.009,1,3164,2549,ac,norm_s.wav,187342,188351,191927
2x3-05,1,20,3_2,3,1,1.117,1,2398,1588,cb,norm_s.wav,196361,197478,199984
2x3-05,1,21,3_1,1,2,1.187,1,2097,1869,ca,norm_d.wav,204111,205298,208016
2x3-05,1,22,3_1,1,2,0.894,1,3440,2253,ca,norm_d.wav,213488,214382,217768
2x3-05,1,23,2_1,2,2,1.188,0,2873,1850,ba,norm_a.wav,222673,223861,226550
2x3-05,1,24,1_2,1,2,1.559,0,2760,1733,ab,norm_d.wav,231345,232904,235101
2x3-06,1,1,1_3,1,0,0,2,3569,2140,ac,norm_s.wav,15658,0,19843
2x3-06,1,2,2_3,3,1,0.435,0,3374,1588,bc,norm_a.wav,25311,25746,28926
2x3-06,1,3,2_1,1,1,0.538,0,3221,1733,ba,norm_s.wav,34177,34715,37956
2x3-06,1,4,2_1,1,0,0,2,3162,2253,ba,norm_s.wav,43153,0,47428
2x3-06,1,5,1_3,3,1,0.939,0,3440,1333,ac,norm_a.wav,52901,53840,56262
2x3-06,1,6,3_1,3,2,0.836,0,3332,2016,ca,norm_a.wav,61629,62465,65697
2x3-06,1,7,2_3,2,2,1.482,0,2398,1850,bc,norm_d.wav,70213,71695,74099
2x3-06,1,8,2_3,2,2,0.644,0,2990,2175,bc,norm_d.wav,79124,79768,83326
2x3-06,1,9,1_2,2,1,1.112,0,2608,998,ab,norm_d.wav,87960,89072,90984
2x3-06,1,10,1_3,1,2,1.416,0,2097,1346,ac,norm_s.wav,95117,96533,98500
2x3-06,1,11,3_2,2,2,0.66,1,2873,1869,cb,norm_d.wav,103395,104055,107292
2x3-06,1,12,1_2,1,2,0.717,0,2720,2011,ab,norm_s.wav,112044,112761,116102
2x3-06,1,13,3_1,3,2,0.532,0,3788,1211,ca,norm_a.wav,121914,122446,125171
2x3-06,1,14,2_1,2,2,1.374,0,3043,1124,ba,norm_d.wav,130237,131611,133386
2x3-06,1,15,3_2,2,2,1.423,1,1752,1823,cb,norm_d.wav,137165,138588,141020
2x3-06,1,16,3_2,3,1,1.426,1,2685,2482,cb,norm_a.wav,145733,147159,150247
2x3-06,1,17,2_3,3,1,0.866,0,2286,1861,bc,norm_a.wav,154569,155435,158461
2x3-06,1,18,1_2,2,2,1.173,1,2872,1510,ab,norm_d.wav,163357,164530,166895
2x3-06,1,19,1_3,3,2,0.619,1,4089,2563,ac,norm_a.wav,173009,173628,177600
2x3-06,1,20,3_2,3,1,1.12,1,2301,1421,cb,norm_a.wav,181923,183043,185377
2x3-06,1,21,3_1,1,2,0.518,1,2863,2549,ca,norm_s.wav,190270,190788,194840
2x3-06,1,22,3_1,1,2,0.706,1,2760,1584,ca,norm_s.wav,199636,200342,203260
2x3-06,1,23,2_1,2,1,1.022,1,3082,2350,ba,norm_d.wav,208376,209398,212761
2x3-06,1,24,1_2,1,1,1.137,1,3164,1857,ab,norm_s.wav,217960,219097,221854
2x3-06,2,1,1_3,3,2,1.243,1,2990,2011,df,norm_f.wav,14912,16155,18947
2x3-06,2,2,3_1,3,1,0.873,1,2720,2563,fd,norm_f.wav,23690,24563,28301
2x3-06,2,3,2_3,3,1,0.788,0,3082,2140,ef,norm_f.wav,33404,34192,37580
2x3-06,2,4,3_2,2,2,1.423,1,3043,1861,fe,norm_e.wav,42734,44157,46619
2x3-06,2,5,2_1,2,1,1.003,1,3164,2350,ed,norm_e.wav,51807,52810,56194
2x3-06,2,6,3_2,2,2,1.361,1,2301,1823,fe,norm_e.wav,60529,61890,64385
2x3-06,2,7,2_3,2,1,0.879,1,4089,1850,ef,norm_e.wav,70502,71381,74381
2x3-06,2,8,1_3,1,1,1.105,1,1752,1733,df,norm_k.wav,78234,79339,81999
2x3-06,2,9,3_2,3,1,0.828,1,2872,1869,fe,norm_f.wav,86905,87733,90803
2x3-06,2,10,2_3,2,1,0.905,1,2398,1510,ef,norm_e.wav,95233,96138,98779
2x3-06,2,11,1_2,1,1,1.049,1,3162,2253,de,norm_k.wav,103966,105015,108241
2x3-06,2,12,2_1,2,1,0.745,1,2685,2016,ed,norm_e.wav,112957,113702,117006
2x3-06,2,13,1_3,3,2,1.075,1,2608,1124,df,norm_f.wav,121649,122724,124799
2x3-06,2,14,3_1,1,2,1.105,1,2097,1857,fd,norm_k.wav,128923,130028,132833
2x3-06,2,15,1_2,1,1,1.06,1,2873,1333,de,norm_k.wav,137734,138794,141095
2x3-06,2,16,2_1,1,2,0.87,1,2760,2482,ed,norm_k.wav,145889,146759,150395
2x3-06,2,17,1_3,1,1,0.725,1,2286,1584,df,norm_k.wav,154717,155442,158332
2x3-06,2,18,1_2,2,2,0.856,1,3569,1211,de,norm_e.wav,163935,164791,167195
2x3-06,2,19,3_1,3,1,1.022,1,3221,2175,fd,norm_f.wav,172439,173461,176644
2x3-06,2,20,1_2,2,2,0.932,1,3332,998,de,norm_e.wav,182002,182934,185035
2x3-06,2,21,3_1,1,2,0.844,1,2863,1588,fd,norm_k.wav,189935,190779,193560
2x3-06,2,22,3_2,3,1,1.018,1,3788,1346,fe,norm_f.wav,199378,200396,202754
2x3-06,2,23,2_3,3,2,0.816,1,3374,1421,ef,norm_f.wav,208149,208965,211597
2x3-06,2,24,2_1,1,2,1.075,1,3440,2549,ed,norm_k.wav,217067,218142,221660
2x3-07,1,1,1_3,1,1,1.287,1,2873,1869,ac,norm_a.wav,14846,16133,18738
2x3-07,1,2,2_3,3,2,1.197,1,3332,2175,bc,norm_s.wav,24102,25299,28313
2x3-07,1,3,2_1,1,1,0.731,0,3788,2253,ba,norm_a.wav,34127,34858,38410
2x3-07,1,4,2_1,1,2,1.412,1,2301,1124,ba,norm_a.wav,42742,44154,45916
2x3-07,1,5,1_3,3,1,0.934,0,3374,2016,ac,norm_s.wav,51317,52251,55359
2x3-07,1,6,3_1,3,2,1.136,0,3164,2011,ca,norm_s.wav,60559,61695,64606
2x3-07,1,7,2_3,2,2,1.15,0,2685,1211,bc,norm_d.wav,69315,70465,72558
2x3-07,1,8,2_3,2,1,1.09,1,2990,2563,bc,norm_d.wav,77571,78661,82162
2x3-07,1,9,1_2,2,2,0.908,1,3221,1857,ab,norm_d.wav,87421,88329,91308
2x3-07,1,10,1_3,1,1,1.139,1,2863,1584,ac,norm_a.wav,96198,97337,99837
2x3-07,1,11,3_2,2,2,0.981,1,2608,2482,cb,norm_d.wav,104479,105460,108987
2x3-07,1,12,1_2,1,1,1.384,1,3440,1733,ab,norm_a.wav,114462,115846,118223
2x3-07,1,13,3_1,3,2,1.111,0,1752,1346,ca,norm_s.wav,122010,123121,125388
2x3-07,1,14,2_1,2,1,1.067,1,2398,1823,ba,norm_d.wav,129824,130891,133683
2x3-07,1,15,3_2,2,2,1.112,1,2286,2350,cb,norm_d.wav,137997,139109,142395
2x3-07,1,16,3_2,3,1,1.026,1,3569,1333,cb,norm_s.wav,147998,149024,151363
2x3-07,1,17,2_3,3,2,1.214,1,3162,1588,bc,norm_s.wav,156560,157774,160187
2x3-07,1,18,1_2,2,2,1.175,1,4089,2140,ab,norm_d.wav,166305,167480,170474
2x3-07,1,19,1_3,3,2,1.543,1,3082,2549,ac,norm_s.wav,175584,177127,180168
2x3-07,1,20,3_2,3,2,0.975,0,2720,1850,cb,norm_s.wav,184924,185899,188805
2x3-07,1,21,3_1,1,0,0,2,2760,1510,ca,norm_a.wav,193599,0,197150
2x3-07,1,22,3_1,1,2,0.805,1,2872,1861,ca,norm_a.wav,202046,202851,205936
2x3-07,1,23,2_1,2,1,1.252,1,2097,998,ba,norm_d.wav,210056,211308,213091
2x3-07,1,24,1_2,1,2,0.993,0,3043,1421,ab,norm_a.wav,218171,219164,221616
2x3-08,1,1,1_3,1,0,0,2,2873,1588,ac,norm_d.wav,14939,0,18557
2x3-08,1,2,2_3,3,2,1.496,1,2720,2253,bc,norm_a.wav,23307,24803,27591
2x3-08,1,3,2_1,1,1,1.549,0,3082,1421,ba,norm_d.wav,32704,34253,36161
2x3-08,1,4,2_1,1,2,1.495,1,3788,1510,ba,norm_d.wav,41978,43473,45535
2x3-08,1,5,1_3,3,1,1.81,0,1752,1733,ac,norm_a.wav,49311,51121,53076
2x3-08,1,6,3_1,3,1,1.122,1,2685,1333,ca,norm_a.wav,57796,58918,61161
2x3-08,1,7,2_3,2,1,1.57,1,3569,1346,bc,norm_s.wav,66765,68335,70143
2x3-08,1,8,2_3,2,1,1.742,1,3164,1857,bc,norm_s.wav,75328,77070,79205
2x3-08,1,9,1_2,2,2,1.372,1,3332,1861,ab,norm_s.wav,84565,85937,88478
2x3-08,1,10,1_3,1,1,1.169,1,4089,2563,ac,norm_d.wav,94590,95759,99182
2x3-08,1,11,3_2,2,2,1.144,1,2872,2482,cb,norm_s.wav,104076,105220,108586
2x3-08,1,12,1_2,1,1,1.204,1,3221,998,ab,norm_d.wav,113843,115047,116871
2x3-08,1,13,3_1,3,1,1.27,1,2608,1850,ca,norm_a.wav,121515,122785,125408
2x3-08,1,14,2_1,2,1,1.406,1,2286,2175,ba,norm_s.wav,129728,131134,133935
2x3-08,1,15,3_2,2,1,1.542,0,2097,1211,cb,norm_s.wav,138058,139600,141306
2x3-08,1,16,3_2,3,1,1.496,1,3440,1584,cb,norm_a.wav,146769,148265,150397
2x3-08,1,17,2_3,3,2,1.13,1,3043,2350,bc,norm_a.wav,155474,156604,159849
2x3-08,1,18,1_2,2,2,1.165,1,2301,2016,ab,norm_s.wav,164184,165349,168233
2x3-08,1,19,1_3,3,2,1.261,1,3374,1124,ac,norm_a.wav,173642,174903,176793
2x3-08,1,20,3_2,3,1,1.209,1,2990,2549,cb,norm_a.wav,181810,183019,186386
2x3-08,1,21,3_1,1,2,1.323,1,3162,2140,ca,norm_d.wav,191584,192907,195746
2x3-08,1,22,3_1,1,2,1.795,1,2760,1823,ca,norm_d.wav,200534,202329,204381
2x3-08,1,23,2_1,2,1,1.393,1,2398,2011,ba,norm_s.wav,208807,210200,212837
2x3-08,1,24,1_2,1,1,1.303,1,2863,1869,ab,norm_d.wav,217724,219027,221614
2x3-08,2,1,1_3,3,2,1.784,1,3221,1346,df,norm_e.wav,15069,16853,18465
2x3-08,2,2,3_1,3,1,1.573,1,4089,1861,fd,norm_e.wav,24576,26149,28465
2x3-08,2,3,2_3,3,2,1.83,1,3164,2253,ef,norm_e.wav,33653,35483,37926
2x3-08,2,4,3_2,2,2,1.856,1,3043,1850,fe,norm_f.wav,43000,44856,46875
2x3-08,2,5,2_1,2,1,1.78,1,3440,2549,ed,norm_f.wav,52349,54129,56926
2x3-08,2,6,3_2,2,2,1.186,1,2286,1869,fe,norm_f.wav,61248,62434,65148
2x3-08,2,7,2_3,2,1,1.309,1,2760,1584,ef,norm_f.wav,69940,71249,73548
2x3-08,2,8,1_3,1,2,1.735,0,2720,2563,df,norm_k.wav,78302,80037,82895
2x3-08,2,9,3_2,3,1,1.505,1,2398,2016,fe,norm_e.wav,87315,88820,91350
2x3-08,2,10,2_3,2,1,1.325,1,3162,1421,ef,norm_f.wav,96547,97872,100007
2x3-08,2,11,1_2,1,1,1.488,1,3788,1124,de,norm_k.wav,105825,107313,108979
2x3-08,2,12,2_1,2,1,1.84,1,2873,1733,ed,norm_f.wav,113879,115719,117656
2x3-08,2,13,1_3,3,2,1.534,1,2872,1588,df,norm_e.wav,122563,124097,126180
2x3-08,2,14,3_1,1,1,1.754,0,2863,2175,fd,norm_k.wav,131072,132826,135285
2x3-08,2,15,1_2,1,1,1.878,1,3332,1510,de,norm_k.wav,140643,142521,144189
2x3-08,2,16,2_1,1,2,1.856,1,3374,1823,ed,norm_k.wav,149587,151443,153454
2x3-08,2,17,1_3,1,1,1.343,1,2685,2482,df,norm_k.wav,158167,159510,162698
2x3-08,2,18,1_2,2,1,1.968,0,2301,2011,de,norm_f.wav,167035,169003,171095
2x3-08,2,19,3_1,3,1,1.931,1,2608,1857,fd,norm_e.wav,175727,177658,179610
2x3-08,2,20,1_2,2,0,0,2,3569,1333,de,norm_f.wav,185206,0,188571
2x3-08,2,21,3_1,1,2,1.398,1,2990,2140,fd,norm_k.wav,193596,194994,197763
2x3-08,2,22,3_2,3,1,1.551,1,2097,1211,fe,norm_e.wav,201888,203439,205136
2x3-08,2,23,2_3,3,2,1.254,1,3082,998,ef,norm_e.wav,210241,211495,213291
2x3-08,2,24,2_1,1,2,1.646,1,1752,2350,ed,norm_k.wav,217080,218726,221461
2x3-11,1,1,1_3,1,1,1.614,1,2990,2563,ac,norm_a.wav,15704,17318,20312
2x3-11,1,2,2_3,3,2,1.281,1,2286,1346,bc,norm_s.wav,24635,25916,28012
2x3-11,1,3,2_1,1,1,1.01,0,2863,2016,ba,norm_a.wav,32912,33922,36981
2x3-11,1,4,2_1,1,1,0.92,0,2873,1421,ba,norm_a.wav,41888,42808,45353
2x3-11,1,5,1_3,3,2,1.002,1,3788,1869,ac,norm_s.wav,51170,52172,55067
2x3-11,1,6,3_1,3,2,1.044,0,2872,2350,ca,norm_s.wav,59970,61014,64365
2x3-11,1,7,2_3,2,2,1.77,0,2398,1510,bc,norm_d.wav,68796,70566,72358
2x3-11,1,8,2_3,2,1,1.432,1,3332,2549,bc,norm_d.wav,77713,79145,82297
2x3-11,1,9,1_2,2,1,1.335,0,2608,1124,ab,norm_d.wav,86939,88274,90088
2x3-11,1,10,1_3,1,1,1.082,1,3440,1857,ac,norm_a.wav,95554,96636,99438
2x3-11,1,11,3_2,2,1,1.527,0,2301,998,cb,norm_d.wav,103765,105292,106795
2x3-11,1,12,1_2,1,1,0.949,1,2720,1861,ab,norm_a.wav,111550,112499,115441
2x3-11,1,13,3_1,3,2,1.315,0,3082,2175,ca,norm_s.wav,120562,121877,124772
2x3-11,1,14,2_1,2,1,1.435,1,2685,1733,ba,norm_d.wav,129482,130917,133246
2x3-11,1,15,3_2,2,1,1.054,0,2097,2253,cb,norm_d.wav,137377,138431,141683
2x3-11,1,16,3_2,3,2,0.764,0,3374,1211,cb,norm_s.wav,147087,147851,150340
2x3-11,1,17,2_3,3,1,1.149,0,2760,1584,bc,norm_s.wav,155139,156288,158747
2x3-11,1,18,1_2,2,1,1.407,0,3162,2011,ab,norm_d.wav,163941,165348,167990
2x3-11,1,19,1_3,3,1,1.479,0,3221,1333,ac,norm_s.wav,173250,174729,176612
2x3-11,1,20,3_2,3,2,0.965,0,4089,2140,cb,norm_s.wav,182734,183699,186902
2x3-11,1,21,3_1,1,1,1.058,0,3164,1823,ca,norm_a.wav,192093,193151,195968
2x3-11,1,22,3_1,1,1,1.206,0,3569,2482,ca,norm_a.wav,201564,202770,206077
2x3-11,1,23,2_1,2,2,1.364,0,3043,1588,ba,norm_d.wav,211154,212518,214783
2x3-11,1,24,1_2,1,1,0.917,1,1752,1850,ab,norm_a.wav,218563,219480,222444
2x3-12,1,1,1_3,1,1,1.211,1,2760,1588,ac,norm_a.wav,18008,19219,21620
2x3-12,1,2,2_3,3,2,1.766,1,3221,1733,bc,norm_s.wav,26870,28636,30632
2x3-12,1,3,2_1,1,0,0,2,2720,1861,ba,norm_a.wav,35386,0,39276
2x3-12,1,4,2_1,1,2,0.87,1,3162,2549,ba,norm_a.wav,44477,45347,49064
2x3-12,1,5,1_3,3,1,1.237,0,3569,1869,ac,norm_s.wav,54667,55904,58567
2x3-12,1,6,3_1,3,1,1.131,1,2097,1510,ca,norm_s.wav,62695,63826,66241
2x3-12,1,7,2_3,2,1,0.994,1,3332,1346,bc,norm_d.wav,71597,72591,74994
2x3-12,1,8,2_3,2,1,1.188,1,2872,1124,bc,norm_d.wav,79903,81091,83072
2x3-12,1,9,1_2,2,2,1.268,1,2685,1584,ab,norm_d.wav,87783,89051,91398
2x3-12,1,10,1_3,1,1,1.332,1,2873,2350,ac,norm_a.wav,96304,97636,100681
2x3-12,1,11,3_2,2,2,1.114,1,3043,2016,cb,norm_d.wav,105757,106871,109796
2x3-12,1,12,1_2,1,1,1.328,1,2398,2011,ab,norm_a.wav,114228,115556,118274
2x3-12,1,13,3_1,3,1,1.514,1,3164,1857,ca,norm_s.wav,123478,124992,127370
2x3-12,1,14,2_1,2,0,0,2,2990,1421,ba,norm_d.wav,132387,0,135834
2x3-12,1,15,3_2,2,2,1.134,1,3788,1333,cb,norm_d.wav,141651,142785,145012
2x3-12,1,16,3_2,3,1,0.924,1,3082,2175,cb,norm_s.wav,150128,151052,154338
2x3-12,1,17,2_3,3,2,0.832,1,3374,1211,bc,norm_s.wav,159737,160569,162973
2x3-12,1,18,1_2,2,2,1.17,1,2608,2253,ab,norm_d.wav,167620,168790,171899
2x3-12,1,19,1_3,3,1,1.677,0,4089,1850,ac,norm_s.wav,178018,179695,181895
2x3-12,1,20,3_2,3,2,1.217,0,3440,2563,cb,norm_s.wav,187369,188586,191958
2x3-12,1,21,3_1,1,1,1.239,0,2286,998,ca,norm_a.wav,196281,197520,199326
2x3-12,1,22,3_1,1,2,1.541,1,2863,2482,ca,norm_a.wav,204225,205766,208743
2x3-12,1,23,2_1,2,1,1.343,1,2301,1823,ba,norm_d.wav,213079,214422,216934
2x3-12,1,24,1_2,1,1,1.779,1,1752,2140,ab,norm_a.wav,220713,222492,224884
2x3-12,2,1,1_3,3,2,0.676,1,2872,1861,df,norm_e.wav,17836,18512,21743
2x3-12,2,2,3_1,3,1,1.563,1,3788,2482,fd,norm_e.wav,27570,29133,32081
2x3-12,2,3,2_3,3,2,1.723,1,3374,1510,ef,norm_e.wav,37490,39213,41025
2x3-12,2,4,3_2,2,2,1.302,1,3162,2011,fe,norm_f.wav,46211,47513,50259
2x3-12,2,5,2_1,2,1,1.635,1,2685,2016,ed,norm_f.wav,54983,56618,59031
2x3-12,2,6,3_2,2,0,0,2,2873,1333,fe,norm_f.wav,63938,0,67298
2x3-12,2,7,2_3,2,1,1.549,1,2863,1869,ef,norm_f.wav,72194,73743,76117
2x3-12,2,8,1_3,1,2,1.031,0,2097,1421,df,norm_k.wav,80245,81276,83702
2x3-12,2,9,3_2,3,1,1.437,1,3164,2253,fe,norm_e.wav,88895,90332,93184
2x3-12,2,10,2_3,2,1,0.973,1,1752,1346,ef,norm_f.wav,96966,97939,100360
2x3-12,2,11,1_2,1,1,1.472,1,3569,1733,de,norm_k.wav,105966,107438,109730
2x3-12,2,12,2_1,2,2,1.533,0,3440,2563,ed,norm_f.wav,115204,116737,119793
2x3-12,2,13,1_3,3,2,1.268,1,4089,2549,df,norm_e.wav,125919,127187,130512
2x3-12,2,14,3_1,1,2,0.912,1,2720,2140,fd,norm_k.wav,135267,136179,139453
2x3-12,2,15,1_2,1,1,1.299,1,2990,1584,de,norm_k.wav,144470,145769,148080
2x3-12,2,16,2_1,1,2,0.918,1,3332,1588,ed,norm_k.wav,153445,154363,157067
2x3-12,2,17,1_3,1,1,1.791,1,3221,1124,df,norm_k.wav,162317,164108,165470
2x3-12,2,18,1_2,2,1,1.734,0,2301,2350,de,norm_f.wav,169797,171531,174179
2x3-12,2,19,3_1,3,1,1.531,1,2286,998,fd,norm_e.wav,178498,180029,181543
2x3-12,2,20,1_2,2,1,1.225,0,2608,1823,de,norm_f.wav,186187,187412,190035
2x3-12,2,21,3_1,1,2,1.611,1,3043,1850,fd,norm_k.wav,195105,196716,198978
2x3-12,2,22,3_2,3,1,1.282,1,2760,1211,fe,norm_e.wav,203772,205054,207006
2x3-12,2,23,2_3,3,2,0.87,1,2398,2175,ef,norm_e.wav,211443,212313,215653
2x3-12,2,24,2_1,1,1,1.813,0,3082,1857,ed,norm_k.wav,220760,222573,224651
2x3-14,1,1,1_3,1,0,0,2,2990,1857,ac,norm_d.wav,19718,0,23606
2x3-14,1,2,2_3,3,1,1.109,0,2720,998,bc,norm_s.wav,28352,29461,31380
2x3-14,1,3,2_1,1,2,1.347,1,2685,2011,ba,norm_d.wav,36101,37448,40143
2x3-14,1,4,2_1,1,2,1.495,1,3164,1211,ba,norm_d.wav,45346,46841,48593
2x3-14,1,5,1_3,3,1,1.519,0,3332,1584,ac,norm_s.wav,53964,55483,57582
2x3-14,1,6,3_1,3,2,1.617,0,2608,1333,ca,norm_s.wav,62223,63840,65581
2x3-14,1,7,2_3,2,1,1.544,1,1752,2175,bc,norm_a.wav,69367,70911,73590
2x3-14,1,8,2_3,2,1,0.992,1,2097,1861,bc,norm_a.wav,77712,78704,81625
2x3-14,1,9,1_2,2,2,1.414,1,3221,1823,ab,norm_a.wav,86885,88299,90737
2x3-14,1,10,1_3,1,1,1.45,1,2760,1869,ac,norm_d.wav,95524,96974,99416
2x3-14,1,11,3_2,2,2,1.592,1,3440,1850,cb,norm_a.wav,104887,106479,108764
2x3-14,1,12,1_2,1,1,1.558,1,3788,2253,ab,norm_d.wav,114585,116143,118866
2x3-14,1,13,3_1,3,1,1.611,1,2873,1588,ca,norm_s.wav,123770,125381,127385
2x3-14,1,14,2_1,2,1,1.297,1,3082,1421,ba,norm_a.wav,132495,133792,135951
2x3-14,1,15,3_2,2,2,1.167,1,2863,1124,cb,norm_a.wav,140852,142019,144013
2x3-14,1,16,3_2,3,2,1.286,0,3569,1510,cb,norm_s.wav,149608,150894,153148
2x3-14,1,17,2_3,3,2,1.095,1,3374,2016,bc,norm_s.wav,158546,159641,162587
2x3-14,1,18,1_2,2,2,1.707,1,2872,2549,ab,norm_a.wav,167494,169201,172070
2x3-14,1,19,1_3,3,1,1.782,0,2398,1346,ac,norm_s.wav,176503,178285,179884
2x3-14,1,20,3_2,3,2,1.556,0,3043,2482,cb,norm_s.wav,184964,186520,189469
2x3-14,1,21,3_1,1,1,1.335,0,4089,2563,ca,norm_d.wav,195593,196928,200184
2x3-14,1,22,3_1,1,2,1.381,1,2301,2350,ca,norm_d.wav,204522,205903,208920
2x3-14,1,23,2_1,2,1,1.343,1,2286,2140,ba,norm_a.wav,213240,214583,217427
2x3-14,1,24,1_2,1,1,1.566,1,3162,1733,ab,norm_d.wav,222616,224182,226386
2x3-14,2,1,1_3,3,2,1.812,1,3164,1421,df,norm_k.wav,17510,19322,20987
2x3-14,2,2,3_1,3,1,1.335,1,3221,2016,fd,norm_k.wav,26237,27572,30282
2x3-14,2,3,2_3,3,2,1.016,1,2097,1211,ef,norm_k.wav,34413,35429,37660
2x3-14,2,4,3_2,2,2,1.355,1,2720,1588,fe,norm_f.wav,42419,43774,46036
2x3-14,2,5,2_1,2,2,1.493,0,3788,1857,ed,norm_f.wav,51853,53346,55755
2x3-14,2,6,3_2,2,1,1.274,0,3332,2175,fe,norm_f.wav,61114,62388,65323
2x3-14,2,7,2_3,2,1,1.718,1,3082,1861,ef,norm_f.wav,70430,72148,74342
2x3-14,2,8,1_3,1,2,1.087,0,2608,2140,df,norm_e.wav,78989,80076,83154
2x3-14,2,9,3_2,3,1,1.428,1,2863,2350,fe,norm_k.wav,88044,89472,92431
2x3-14,2,10,2_3,2,2,1.324,0,1752,1124,ef,norm_f.wav,96216,97540,99388
2x3-14,2,11,1_2,1,1,1.685,1,2872,1346,de,norm_e.wav,104286,105971,107660
2x3-14,2,12,2_1,2,1,1.274,1,2301,1584,ed,norm_f.wav,111998,113272,115614
2x3-14,2,13,1_3,3,1,1.438,0,2398,2563,df,norm_k.wav,120045,121483,124643
2x3-14,2,14,3_1,1,0,0,2,3374,1733,fd,norm_e.wav,130054,0,133813
2x3-14,2,15,1_2,1,2,0.879,0,4089,1823,de,norm_e.wav,139935,140814,143786
2x3-14,2,16,2_1,1,1,1,0,3043,2482,ed,norm_e.wav,148856,149856,153361
2x3-14,2,17,1_3,1,1,1.405,1,2990,2253,df,norm_e.wav,158386,159791,162665
2x3-14,2,18,1_2,2,0,0,2,2760,2011,de,norm_f.wav,167456,0,171490
2x3-14,2,19,3_1,3,2,1.407,0,2286,2549,fd,norm_k.wav,175815,177222,180394
2x3-14,2,20,1_2,2,1,1.336,0,3162,998,de,norm_f.wav,185591,186927,188643
2x3-14,2,21,3_1,1,2,1.3,1,2685,1510,fd,norm_e.wav,193364,194664,196905
2x3-14,2,22,3_2,3,2,1.602,0,2873,1869,fe,norm_k.wav,201801,203403,205697
2x3-14,2,23,2_3,3,2,1.672,1,3440,1333,ef,norm_k.wav,211168,212840,214528
2x3-14,2,24,2_1,1,1,1.582,0,3569,1850,ed,norm_e.wav,220130,221712,224028
2x3-15,1,1,1_3,1,0,0,2,3332,1823,ac,norm_a.wav,24494,0,28355
2x3-15,1,2,2_3,3,0,0,2,2720,1211,bc,norm_s.wav,33102,0,36360
2x3-15,1,3,2_1,1,1,0.93,0,3082,1421,ba,norm_a.wav,41481,42411,44936
2x3-15,1,4,2_1,1,2,1.142,1,4089,1584,ba,norm_a.wav,51054,52196,54682
2x3-15,1,5,1_3,3,0,0,2,2872,1588,ac,norm_s.wav,59587,0,63219
2x3-15,1,6,3_1,3,1,1.387,1,2286,2253,ca,norm_s.wav,67534,68921,71834
2x3-15,1,7,2_3,2,1,1.617,1,2685,2140,bc,norm_d.wav,76550,78167,80721
2x3-15,1,8,2_3,2,1,1.057,1,3162,1510,bc,norm_d.wav,85910,86967,89457
2x3-15,1,9,1_2,2,2,1.845,1,2398,1857,ab,norm_d.wav,93879,95724,97771
2x3-15,1,10,1_3,1,1,0.975,1,2990,1346,ac,norm_a.wav,102787,103762,106160
2x3-15,1,11,3_2,2,2,1.186,1,2301,1861,cb,norm_d.wav,110498,111684,114408
2x3-15,1,12,1_2,1,1,0.994,1,2760,2563,ab,norm_a.wav,119207,120201,123793
2x3-15,1,13,3_1,3,1,1.397,1,3440,2482,ca,norm_s.wav,129270,130667,133795
2x3-15,1,14,2_1,2,1,1.252,1,3569,1850,ba,norm_d.wav,139399,140651,143280
2x3-15,1,15,3_2,2,2,1.019,1,3374,2175,cb,norm_d.wav,148687,149706,152888
2x3-15,1,16,3_2,3,1,1.056,1,3221,2011,cb,norm_s.wav,158134,159190,162173
2x3-15,1,17,2_3,3,2,1.078,1,2097,2350,bc,norm_s.wav,166310,167388,170696
2x3-15,1,18,1_2,2,1,1.031,0,3788,1869,ab,norm_d.wav,176517,177548,180414
2x3-15,1,19,1_3,3,2,1.209,1,2873,1733,ac,norm_s.wav,185318,186527,189078
2x3-15,1,20,3_2,3,1,1.253,1,3164,998,cb,norm_s.wav,194276,195529,197310
2x3-15,1,21,3_1,1,2,1.141,1,1752,2016,ca,norm_a.wav,201097,202238,205144
2x3-15,1,22,3_1,1,2,1.033,1,2863,2549,ca,norm_a.wav,210041,211074,214627
2x3-15,1,23,2_1,2,1,1.661,1,3043,1124,ba,norm_d.wav,219704,221365,222852
2x3-15,1,24,1_2,1,2,1.381,0,2608,1333,ab,norm_a.wav,227486,228867,230844
2x3-15,3,1,2_1,2,1,1.596,1,3440,1733,hg,norm_i.wav,27777,29373,31548
2x3-15,3,2,1_3,1,1,1.397,1,2863,2563,gi,norm_r.wav,36446,37843,41045
2x3-15,3,3,1_2,1,1,1.449,1,2720,2549,gh,norm_r.wav,45802,47251,50381
2x3-15,3,4,3_2,2,2,1.6,1,3043,1584,ih,norm_i.wav,55459,57059,59066
2x3-15,3,5,2_3,2,1,1.244,1,3332,2140,hi,norm_i.wav,64431,65675,68605
2x3-15,3,6,2_1,1,1,1.388,0,2685,2253,hg,norm_r.wav,73317,74705,77617
2x3-15,3,7,1_2,2,2,1.156,1,2097,1510,gh,norm_i.wav,81745,82901,85291
2x3-15,3,8,3_1,1,2,1.076,1,3221,1421,ig,norm_r.wav,90536,91612,94002
2x3-15,3,9,3_1,3,2,1.923,0,2286,2011,ig,norm_sch.wav,98317,100240,102358
2x3-15,3,10,2_3,2,1,1.15,1,3164,1861,hi,norm_i.wav,107562,108712,111458
2x3-15,3,11,3_2,3,1,1.504,1,3569,2350,ih,norm_sch.wav,117066,118570,121447
2x3-15,3,12,1_3,1,1,1.037,1,3374,1124,gi,norm_r.wav,126854,127891,130021
2x3-15,3,13,2_1,1,2,1.055,1,2873,2482,hg,norm_r.wav,134920,135975,139445
2x3-15,3,14,3_2,2,2,1.137,1,3788,2016,ih,norm_i.wav,145268,146405,149312
2x3-15,3,15,2_3,3,0,0,2,2398,1857,hi,norm_sch.wav,153745,0,157636
2x3-15,3,16,1_3,3,2,1.016,1,3082,1333,gi,norm_sch.wav,162745,163761,166129
2x3-15,3,17,1_2,1,1,1.218,1,2301,1823,gh,norm_r.wav,170464,171682,174335
2x3-15,3,18,1_2,2,2,1.415,1,3162,1869,gh,norm_i.wav,179525,180940,183448
2x3-15,3,19,3_1,1,2,1.326,1,1752,998,ig,norm_r.wav,187231,188557,190260
2x3-15,3,20,2_1,2,1,1.185,1,2760,1850,hg,norm_i.wav,195056,196241,198928
2x3-15,3,21,3_2,3,1,1.004,1,4089,1588,ih,norm_sch.wav,205051,206055,208666
2x3-15,3,22,2_3,3,2,1.202,1,2872,1346,hi,norm_sch.wav,213567,214769,216940
2x3-15,3,23,3_1,3,1,1.071,1,2990,2175,ig,norm_sch.wav,221968,223039,226169
2x3-15,3,24,1_3,3,2,0.022,1,2608,1211,gi,norm_sch.wav,230803,230825,234038
2x3-16,1,1,1_3,1,0,0,2,2872,1823,ac,norm_d.wav,16126,0,19984
2x3-16,1,2,2_3,3,2,0.993,1,2990,2175,bc,norm_s.wav,25011,26004,29216
2x3-16,1,3,2_1,1,1,1.484,0,2760,1588,ba,norm_d.wav,34022,35506,37650
2x3-16,1,4,2_1,1,0,0,2,4089,1861,ba,norm_d.wav,43771,0,47663
2x3-16,1,5,1_3,3,1,0.785,0,2720,2482,ac,norm_s.wav,52423,53208,56945
2x3-16,1,6,3_1,3,2,1.564,0,3788,2016,ca,norm_s.wav,62771,64335,66820
2x3-16,1,7,2_3,2,1,1.136,1,3569,1124,bc,norm_a.wav,72433,73569,75588
2x3-16,1,8,2_3,2,2,1.471,0,3082,2549,bc,norm_a.wav,80707,82178,85294
2x3-16,1,9,1_2,2,1,1.302,0,2608,1421,ab,norm_a.wav,89933,91235,93407
2x3-16,1,10,1_3,1,1,1.303,1,2286,2350,ac,norm_d.wav,97732,99035,102116
2x3-16,1,11,3_2,2,2,1.284,1,3332,1510,cb,norm_a.wav,107478,108762,111017
2x3-16,1,12,1_2,1,1,1.694,1,3164,1346,ab,norm_d.wav,116211,117905,119613
2x3-16,1,13,3_1,3,2,1.136,0,2398,2140,ca,norm_s.wav,124046,125182,128228
2x3-16,1,14,2_1,2,1,0.855,1,2873,1333,ba,norm_a.wav,133141,133996,136521
2x3-16,1,15,3_2,2,1,1.281,0,1752,1869,cb,norm_a.wav,140301,141582,144198
2x3-16,1,16,3_2,3,1,1.247,1,2685,2011,cb,norm_s.wav,148914,150161,152960
2x3-16,1,17,2_3,3,2,1.284,1,2301,1733,bc,norm_s.wav,157291,158575,161063
2x3-16,1,18,1_2,2,1,1.478,0,3043,2563,ab,norm_a.wav,166133,167611,170734
2x3-16,1,19,1_3,3,2,1.264,1,3440,1850,ac,norm_s.wav,176211,177475,180101
2x3-16,1,20,3_2,3,2,1.107,0,2863,2253,cb,norm_s.wav,184995,186102,189285
2x3-16,1,21,3_1,1,1,0.842,0,3162,1584,ca,norm_d.wav,194474,195316,198096
2x3-16,1,22,3_1,1,2,1.553,1,3374,1857,ca,norm_d.wav,203507,205060,207410
2x3-16,1,23,2_1,2,1,1.123,1,3221,998,ba,norm_a.wav,212674,213797,215712
2x3-16,1,24,1_2,1,1,1.449,1,2097,1211,ab,norm_d.wav,219851,221300,223105
2x3-17,2,1,1_3,3,2,1.068,1,2685,1588,df,norm_f.wav,17964,19032,21589
2x3-17,2,2,3_1,3,1,0.866,1,1752,2011,fd,norm_f.wav,25395,26261,29452
2x3-17,2,3,2_3,3,2,0.895,1,2872,1421,ef,norm_f.wav,34355,35250,37843
2x3-17,2,4,3_2,2,2,1.226,1,3162,1733,fe,norm_e.wav,43066,44292,46835
2x3-17,2,5,2_1,2,2,1.079,0,4089,1823,ed,norm_e.wav,52953,54032,56806
2x3-17,2,6,3_2,2,2,1.238,1,2720,1346,fe,norm_e.wav,61565,62803,64970
2x3-17,2,7,2_3,2,1,1.013,1,2301,1869,ef,norm_e.wav,69307,70320,73213
2x3-17,2,8,1_3,1,1,1.354,1,2097,1510,df,norm_k.wav,77363,78717,80915
2x3-17,2,9,3_2,3,1,0.99,1,2863,1584,fe,norm_f.wav,85810,86800,89449
2x3-17,2,10,2_3,2,1,0.88,1,3569,1333,ef,norm_e.wav,95056,95936,98419
2x3-17,2,11,1_2,1,1,0.979,1,2286,2140,de,norm_k.wav,102734,103713,106906
2x3-17,2,12,2_1,2,1,1.423,1,3332,1850,ed,norm_e.wav,112280,113703,116177
2x3-17,2,13,1_3,3,2,1.152,1,2990,2253,df,norm_f.wav,121199,122351,125501
2x3-17,2,14,3_1,1,2,1.324,1,3164,998,fd,norm_k.wav,130694,132018,133726
2x3-17,2,15,1_2,1,1,1.038,1,3374,2549,de,norm_k.wav,139144,140182,143738
2x3-17,2,16,2_1,1,2,0.763,1,2760,2563,ed,norm_k.wav,148531,149294,153132
2x3-17,2,17,1_3,1,1,1.157,1,3788,1124,df,norm_k.wav,158959,160116,162114
2x3-17,2,18,1_2,2,2,1.024,1,2398,2175,de,norm_e.wav,166550,167574,170766
2x3-17,2,19,3_1,3,1,0.895,1,3082,2016,fd,norm_f.wav,175895,176790,179967
2x3-17,2,20,1_2,2,2,1.111,1,3043,1211,de,norm_e.wav,185056,186167,188303
2x3-17,2,21,3_1,1,2,1.038,1,2608,1857,fd,norm_k.wav,192942,193980,196829
2x3-17,2,22,3_2,3,1,1.257,1,2873,1861,fe,norm_f.wav,201747,203004,205654
2x3-17,2,23,2_3,3,2,0.932,1,3221,2482,ef,norm_f.wav,210916,211848,215436
2x3-17,2,24,2_1,1,2,1.251,1,3440,2350,ed,norm_k.wav,220916,222167,225304
2x3-18,1,1,1_3,1,1,1.764,1,3221,2549,ac,norm_s.wav,15812,17576,20410
2x3-18,1,2,2_3,3,1,1.79,0,3332,1857,bc,norm_a.wav,25794,27584,29698
2x3-18,1,3,2_1,1,1,1.683,0,3374,1333,ba,norm_s.wav,35117,36800,38495
2x3-18,1,4,2_1,1,2,1.083,1,2097,1588,ba,norm_s.wav,42621,43704,46250
2x3-18,1,5,1_3,3,1,1.62,0,2685,2175,ac,norm_a.wav,50969,52589,55178
2x3-18,1,6,3_1,3,2,1.361,0,3162,1510,ca,norm_a.wav,60387,61748,63954
2x3-18,1,7,2_3,2,0,0,2,3164,2016,bc,norm_d.wav,69149,0,73200
2x3-18,1,8,2_3,2,1,0.99,1,3440,2563,bc,norm_d.wav,78686,79676,83288
2x3-18,1,9,1_2,2,2,1.505,1,2990,1584,ab,norm_d.wav,88317,89822,91949
2x3-18,1,10,1_3,1,1,1.14,1,1752,1346,ac,norm_s.wav,95739,96879,99132
2x3-18,1,11,3_2,2,2,0.916,1,3569,1861,cb,norm_d.wav,104737,105653,108628
2x3-18,1,12,1_2,1,1,1.526,1,2398,998,ab,norm_s.wav,113066,114592,116105
2x3-18,1,13,3_1,3,1,1.002,1,2720,1421,ca,norm_a.wav,120869,121871,124329
2x3-18,1,14,2_1,2,1,1.094,1,4089,2253,ba,norm_d.wav,130458,131552,134741
2x3-18,1,15,3_2,2,2,0.953,1,3788,1211,cb,norm_d.wav,140558,141511,143820
2x3-18,1,16,3_2,3,1,1.076,1,2760,2482,cb,norm_a.wav,148611,149687,153131
2x3-18,1,17,2_3,3,2,1.169,1,2863,1124,bc,norm_a.wav,158034,159203,161194
2x3-18,1,18,1_2,2,2,1.168,1,2608,1869,ab,norm_d.wav,165840,167008,169740
2x3-18,1,19,1_3,3,2,1.014,1,3043,1850,ac,norm_a.wav,174815,175829,178701
2x3-18,1,20,3_2,3,1,0.971,1,2301,2011,cb,norm_a.wav,183034,184005,187083
2x3-18,1,21,3_1,1,2,1.014,1,3082,1733,ca,norm_s.wav,192196,193210,195965
2x3-18,1,22,3_1,1,1,1.321,0,2873,1823,ca,norm_s.wav,200867,202188,204736
2x3-18,1,23,2_1,2,1,1.25,1,2872,2350,ba,norm_d.wav,209647,210897,214043
2x3-18,1,24,1_2,1,1,1.205,1,2286,2140,ab,norm_s.wav,218361,219566,222534
2x3-18,2,1,1_3,3,1,1.263,0,3082,1124,df,norm_e.wav,16055,17318,19225
2x3-18,2,2,3_1,3,2,1.367,0,3440,2482,fd,norm_e.wav,24702,26069,29243
2x3-18,2,3,2_3,3,2,1.5,1,2608,1510,ef,norm_e.wav,33891,35391,37452
2x3-18,2,4,3_2,2,2,1.143,1,3788,1211,fe,norm_f.wav,43292,44435,46533
2x3-18,2,5,2_1,2,1,1.278,1,2398,2175,ed,norm_f.wav,50962,52240,55178
2x3-18,2,6,3_2,2,2,0.987,1,1752,1857,fe,norm_f.wav,58977,59964,62880
2x3-18,2,7,2_3,2,2,1.077,0,2863,2140,ef,norm_f.wav,67788,68865,71984
2x3-18,2,8,1_3,1,1,1.709,1,3332,2350,df,norm_k.wav,77358,79067,81755
2x3-18,2,9,3_2,3,1,1.409,1,2760,1850,fe,norm_e.wav,86547,87956,90435
2x3-18,2,10,2_3,2,2,1.219,0,4089,2253,ef,norm_f.wav,96556,97775,100839
2x3-18,2,11,1_2,1,1,1.446,1,2873,2563,de,norm_k.wav,105761,107207,110370
2x3-18,2,12,2_1,2,1,1.212,1,3162,2011,ed,norm_f.wav,115571,116783,119618
2x3-18,2,13,1_3,3,2,1.473,1,2872,1733,df,norm_e.wav,124521,125994,128301
2x3-18,2,14,3_1,1,2,1.301,1,2286,2549,fd,norm_k.wav,132616,133917,137197
2x3-18,2,15,1_2,1,2,1.328,0,2720,1421,de,norm_k.wav,141950,143278,145430
2x3-18,2,16,2_1,1,1,1.007,0,3221,998,ed,norm_k.wav,150692,151699,153728
2x3-18,2,17,1_3,1,1,1.608,1,3569,1346,df,norm_k.wav,159340,160948,162716
2x3-18,2,18,1_2,2,2,1.562,1,2685,2016,de,norm_f.wav,167437,168999,171487
2x3-18,2,19,3_1,3,1,1.419,1,3374,1861,fd,norm_e.wav,176907,178326,180812
2x3-18,2,20,1_2,2,2,1.103,1,2990,1333,de,norm_f.wav,185843,186946,189225
2x3-18,2,21,3_1,1,2,1.133,1,3164,1823,fd,norm_k.wav,194418,195551,198275
2x3-18,2,22,3_2,3,1,1.326,1,2301,1588,fe,norm_e.wav,202615,203941,206241
2x3-18,2,23,2_3,3,1,1.408,0,3043,1869,ef,norm_e.wav,211318,212726,215223
2x3-18,2,24,2_1,1,2,1.178,1,2097,1584,ed,norm_k.wav,219353,220531,222978
