block	trial	Vstim	Astim	match	C/I	resp	.result	RT	fb	V-file	A-file
LR

0	1	2	2	0	C	0	0	0	0	Ⴒ	DEU_z.wav
0	2	3	2	0	C	1	0	3176	0	Ⴔ	DEU_z.wav
0	3	2	1	0	C	0	0	0	0	Ⴒ	DEU_o_short_1.wav
0	4	1	1	1	C	2	1	1733	1	Ⴎ	DEU_o_short_1.wav
0	5	3	2	0	C	2	0	1273	0	Ⴔ	DEU_z.wav
0	6	1	3	0	C	1	1	1535	1	Ⴎ	DEU_ä.wav
0	7	3	2	0	C	2	1	1556	1	Ⴔ	DEU_z.wav
0	8	2	1	0	C	1	1	997	1	Ⴒ	DEU_o_short_1.wav
0	9	3	2	0	C	2	0	1233	0	Ⴔ	DEU_z.wav
0	10	2	2	0	C	1	0	1067	0	Ⴒ	DEU_z.wav
0	11	1	3	0	C	2	0	798	0	Ⴎ	DEU_ä.wav
0	12	1	1	1	C	1	0	1645	0	Ⴎ	DEU_o_short_1.wav
0	13	1	3	0	C	2	0	1104	0	Ⴎ	DEU_ä.wav
0	14	1	1	1	C	1	0	735	0	Ⴎ	DEU_o_short_1.wav
0	15	2	1	0	C	2	0	1922	0	Ⴒ	DEU_o_short_1.wav
avg_resp = 1455
1	1	3	3	1	1	0	2661	0	Ⴂ	DEU_n.wav
1	2	2	2	1	2	1	860	1	Ⴜ	DEU_p.wav
1	3	1	3	0	1	1	829	1	Ⴁ	DEU_n.wav
1	4	2	1	0	2	0	826	0	Ⴜ	DEU_f.wav
1	5	1	1	1	1	0	516	0	Ⴁ	DEU_f.wav
1	6	2	2	1	1	0	879	0	Ⴜ	DEU_p.wav
1	7	3	2	0	2	0	1523	0	Ⴂ	DEU_p.wav
1	8	1	1	1	1	0	1890	0	Ⴁ	DEU_f.wav
1	9	3	3	1	2	1	1324	1	Ⴂ	DEU_n.wav
1	10	2	1	0	1	1	1834	1	Ⴜ	DEU_f.wav
1	11	3	3	1	1	0	1860	0	Ⴂ	DEU_n.wav
1	12	1	3	0	2	0	1555	0	Ⴁ	DEU_n.wav
1	13	2	2	1	1	0	2078	0	Ⴜ	DEU_p.wav
1	14	3	2	0	2	0	2027	0	Ⴂ	DEU_p.wav
1	15	1	3	0	1	1	1656	1	Ⴁ	DEU_n.wav
1	16	2	1	0	1	1	1447	1	Ⴜ	DEU_f.wav
1	17	1	3	0	2	0	1381	0	Ⴁ	DEU_n.wav
1	18	2	2	1	1	0	1365	0	Ⴜ	DEU_p.wav
1	19	3	2	0	1	1	1080	1	Ⴂ	DEU_p.wav
1	20	1	1	1	0	0	0	0	Ⴁ	DEU_f.wav
1	21	3	2	0	2	0	1418	0	Ⴂ	DEU_p.wav
1	22	2	1	0	1	1	1754	1	Ⴜ	DEU_f.wav
1	23	1	1	1	2	1	1797	1	Ⴁ	DEU_f.wav
1	24	3	3	1	2	1	1602	1	Ⴂ	DEU_n.wav
1	25	2	1	0	1	1	1559	1	Ⴜ	DEU_f.wav
1	26	3	3	1	2	1	1503	1	Ⴂ	DEU_n.wav
1	27	1	1	1	1	0	1540	0	Ⴁ	DEU_f.wav
1	28	2	2	1	1	0	1640	0	Ⴜ	DEU_p.wav
1	29	1	3	0	2	0	2108	0	Ⴁ	DEU_n.wav
1	30	3	2	0	2	0	1599	0	Ⴂ	DEU_p.wav
