block	trial	Vstim	Astim	match	C/I	resp	.result	RT	fb	V-file	A-file
LR

0	1	3	2	0	C	2	0	1801	0	Ⴔ	DEU_m_1.wav
0	2	2	1	0	C	2	0	2321	0	Ⴒ	DEU_z.wav
0	3	1	3	0	C	1	1	2823	1	Ⴎ	DEU_o_short_1.wav
0	4	3	2	0	C	2	1	556	1	Ⴔ	DEU_m_1.wav
0	5	2	2	0	C	2	1	1682	1	Ⴒ	DEU_m_1.wav
0	6	1	1	1	C	1	0	1867	0	Ⴎ	DEU_z.wav
0	7	2	2	0	C	2	1	1729	1	Ⴒ	DEU_m_1.wav
0	8	1	3	0	C	1	1	1919	1	Ⴎ	DEU_o_short_1.wav
0	9	2	1	0	C	1	1	2482	1	Ⴒ	DEU_z.wav
0	10	3	2	0	C	2	1	2462	1	Ⴔ	DEU_m_1.wav
0	11	3	2	0	C	1	1	1692	1	Ⴔ	DEU_m_1.wav
0	12	1	1	1	C	1	0	2251	0	Ⴎ	DEU_z.wav
0	13	1	1	1	C	2	1	1731	1	Ⴎ	DEU_z.wav
0	14	3	2	0	C	2	0	1950	0	Ⴔ	DEU_m_1.wav
0	15	3	2	0	C	1	0	1696	0	Ⴔ	DEU_m_1.wav
avg_resp = 1897
1	1	1	3	0	1	1	2193	1	Ⴁ	DEU_u_short_1.wav
1	2	3	2	0	1	1	2583	1	Ⴂ	DEU_f.wav
1	3	2	2	1	2	1	1519	1	Ⴜ	DEU_f.wav
1	4	3	3	1	2	1	1646	1	Ⴂ	DEU_u_short_1.wav
1	5	1	1	1	1	0	1747	0	Ⴁ	DEU_p.wav
1	6	2	2	1	1	0	1908	0	Ⴜ	DEU_f.wav
1	7	1	3	0	1	1	1709	1	Ⴁ	DEU_u_short_1.wav
1	8	2	1	0	1	1	1963	1	Ⴜ	DEU_p.wav
1	9	3	2	0	1	1	1427	1	Ⴂ	DEU_f.wav
1	10	2	2	1	2	1	1619	1	Ⴜ	DEU_f.wav
1	11	1	1	1	2	1	2241	1	Ⴁ	DEU_p.wav
1	12	3	2	0	1	1	1593	1	Ⴂ	DEU_f.wav
1	13	2	1	0	1	1	1838	1	Ⴜ	DEU_p.wav
1	14	1	1	1	2	1	1913	1	Ⴁ	DEU_p.wav
1	15	3	3	1	2	1	2429	1	Ⴂ	DEU_u_short_1.wav
1	16	1	1	1	2	1	2404	1	Ⴁ	DEU_p.wav
1	17	3	3	1	2	1	2113	1	Ⴂ	DEU_u_short_1.wav
1	18	2	2	1	2	1	1825	1	Ⴜ	DEU_f.wav
1	19	1	3	0	2	0	2127	0	Ⴁ	DEU_u_short_1.wav
1	20	3	3	1	2	1	1916	1	Ⴂ	DEU_u_short_1.wav
1	21	2	1	0	1	1	1681	1	Ⴜ	DEU_p.wav
1	22	1	3	0	1	1	1779	1	Ⴁ	DEU_u_short_1.wav
1	23	2	1	0	1	1	1405	1	Ⴜ	DEU_p.wav
1	24	3	2	0	1	1	2482	1	Ⴂ	DEU_f.wav
1	25	1	1	1	2	1	1898	1	Ⴁ	DEU_p.wav
1	26	2	1	0	1	1	1381	1	Ⴜ	DEU_p.wav
1	27	3	3	1	2	1	1940	1	Ⴂ	DEU_u_short_1.wav
1	28	1	3	0	1	1	1871	1	Ⴁ	DEU_u_short_1.wav
1	29	3	2	0	1	1	2075	1	Ⴂ	DEU_f.wav
1	30	2	2	1	2	1	1603	1	Ⴜ	DEU_f.wav
