subjID	block	trial	vStims	aStim	choice	RT	fb	iti	feedJitter	vSymbols	aFile	stimOnset	respOnset	feedbackOnset
biokurs19-01	1	1	1_3	1	1	1.271	1	1892	998	02	t_sl_cut.wav	6969	8240	9994
biokurs19-01	1	2	7_3	3	1	1.802	0	2608	2258	62	d_sh_retr_cut.wav	14627	16429	18898
biokurs19-01	1	3	4_2	2	1	1.92	0	2760	2549	31	s_palat_cut.wav	23703	25623	28274
biokurs19-01	1	6	6_2	2	1	1.011	0	3164	2675	51	s_palat_cut.wav	51930	52941	56631
biokurs19-01	1	8	2_6	2	2	1.811	0	3440	2704	15	s_palat_cut.wav	70179	71990	74900
biokurs19-01	1	9	6_1	1	2	1.7	1	2316	1861	50	t_sl_cut.wav	79242	80942	83124
biokurs19-01	1	11	6_4	4	1	1.242	0	3052	1124	53	s_alv_cut.wav	97258	98500	100396
biokurs19-01	1	12	2_7	2	2	1.212	0	4089	1588	16	s_palat_cut.wav	106508	107720	110140
biokurs19-01	1	13	8_3	3	1	0.941	0	3271	2260	72	d_sh_retr_cut.wav	115433	116374	119719
biokurs19-01	1	14	1_7	1	1	0.956	1	2874	2175	06	t_sl_cut.wav	124618	125574	128807
biokurs19-01	1	16	3_7	3	1	0.955	1	2720	2358	26	d_sh_retr_cut.wav	141122	142077	145524
biokurs19-01	1	17	1_2	2	2	1.23	1	2698	1823	01	s_palat_cut.wav	150238	151468	154091
biokurs19-01	1	18	8_1	1	2	1.024	1	3282	1857	70	t_sl_cut.wav	159391	160415	163281
biokurs19-01	1	19	5_3	5	1	1.371	1	3569	2304	42	s_dent_cut.wav	168869	170240	173204
biokurs19-01	1	20	5_4	4	2	1.328	1	2097	1989	43	s_alv_cut.wav	177317	178645	181351
biokurs19-01	1	21	4_1	1	2	0.899	1	2443	2016	30	t_sl_cut.wav	185805	186704	189840
biokurs19-01	1	22	2_3	2	1	1.413	1	2990	1850	12	s_palat_cut.wav	194850	196263	198723
biokurs19-01	1	23	3_4	3	1	1.172	1	3929	2350	23	d_sh_retr_cut.wav	204678	205850	209054
biokurs19-01	1	25	8_4	4	2	1.149	1	3788	2168	73	s_alv_cut.wav	223897	225046	228090
biokurs19-01	1	26	3_2	3	1	1.066	1	3057	2563	21	d_sh_retr_cut.wav	233175	234241	237765
biokurs19-01	1	27	4_5	5	1	1.015	0	2274	1510	34	s_dent_cut.wav	242064	243079	245601
biokurs19-01	1	28	7_1	1	2	1.052	1	3043	2011	60	t_sl_cut.wav	250673	251725	254707
biokurs19-01	1	29	2_8	2	1	1.597	1	3082	1626	17	s_palat_cut.wav	259814	261411	263460
biokurs19-01	1	30	4_6	4	2	1.771	0	1752	1426	35	s_alv_cut.wav	267231	269002	270673
biokurs19-01	1	31	3_2	2	2	1.087	1	2398	1421	21	s_palat_cut.wav	275095	276182	278526
biokurs19-01	1	32	1_4	1	1	0.823	1	3162	1584	03	t_sl_cut.wav	283699	284522	287311
biokurs19-01	1	33	1_5	5	2	1.274	1	3050	2140	04	s_dent_cut.wav	292387	293661	296543
biokurs19-01	1	34	3_4	4	2	0.919	1	2873	1968	23	s_alv_cut.wav	301436	302355	305420
biokurs19-01	1	35	5_2	5	1	1.599	1	3374	1933	41	s_dent_cut.wav	310809	312408	314754
biokurs19-01	1	36	1_3	3	2	1.425	1	2863	1211	02	d_sh_retr_cut.wav	319631	321056	322868
biokurs19-01	1	37	8_5	5	2	1.281	1	2548	1869	74	s_dent_cut.wav	327441	328722	331330
biokurs19-01	1	38	1_4	4	2	1.613	1	2286	1642	03	s_alv_cut.wav	335641	337254	339299
biokurs19-01	1	39	3_1	1	2	1.268	1	3221	1733	20	t_sl_cut.wav	344540	345808	348296
biokurs19-01	1	40	3_1	3	1	1.112	1	2872	1600	20	d_sh_retr_cut.wav	353187	354299	356804
biokurs19-01	2	1	8_3	3	1	1.235	0	3282	2253	hc	o.wav	8345	9580	12623
biokurs19-01	2	2	1_2	2	2	1.084	1	2548	2168	ab	a_low.wav	17221	18305	21409
biokurs19-01	2	3	7_1	1	2	1.353	1	3929	1857	ga	u.wav	27384	28737	31267
biokurs19-01	2	4	4_5	5	1	1.357	0	2760	1333	de	a_uml.wav	36064	37421	39419
biokurs19-01	2	5	3_2	2	2	1.647	1	2608	1124	cb	a_low.wav	44054	45701	47210
biokurs19-01	2	6	1_6	1	1	0.978	1	2874	2258	af	u.wav	52107	53085	56397
biokurs19-01	2	7	4_3	4	1	1.439	1	1892	2509	dc	i.wav	60334	61773	64879
biokurs19-01	2	8	7_2	2	2	1.181	1	2872	2304	gb	a_low.wav	69776	70957	74114
biokurs19-01	2	9	5_8	5	1	1.571	1	3440	1510	eh	a_uml.wav	79571	81142	83098
biokurs19-01	2	10	6_3	3	2	1.608	1	2192	2260	fc	o.wav	87319	88927	91599
biokurs19-01	2	11	6_2	2	2	1.335	1	2301	1733	fb	a_low.wav	95925	97260	99677
biokurs19-01	2	12	3_5	3	1	1.799	1	3162	1211	ce	o.wav	104858	106657	108097
biokurs19-01	2	13	1_8	1	1	0.917	1	2685	1968	ah	u.wav	112807	113724	116801
biokurs19-01	2	14	3_4	3	1	1.542	1	2097	998	cd	o.wav	120913	122455	123956
biokurs19-01	2	15	4_6	4	1	0.906	1	2720	1869	df	i.wav	128700	129606	132595
biokurs19-01	2	16	4_2	2	2	1.692	1	2873	1642	db	a_low.wav	137493	139185	141151
biokurs19-01	2	18	2_5	5	1	1.022	0	3043	2140	be	a_uml.wav	155441	156463	159605
biokurs19-01	2	19	5_3	3	2	1.588	1	3788	1346	ec	o.wav	165413	167001	168802
biokurs19-01	2	20	3_5	5	2	1.197	1	3569	1426	ce	a_uml.wav	174385	175582	177824
biokurs19-01	2	21	6_1	1	2	1.057	1	3082	1989	fa	u.wav	182929	183986	186956
biokurs19-01	2	22	4_7	4	1	1.199	1	3374	2704	dg	i.wav	192342	193541	197058
biokurs19-01	2	23	3_8	3	1	1.104	1	2863	1823	ch	o.wav	201946	203050	205795
biokurs19-01	2	24	1_5	1	2	0.974	0	2443	1933	ae	u.wav	210255	211229	214207
biokurs19-01	2	25	2_3	2	1	0.946	1	2516	2175	bc	a_low.wav	218737	219683	222929
biokurs19-01	2	26	5_2	5	1	1.637	1	2398	1584	eb	a_uml.wav	227348	228985	230960
biokurs19-01	2	27	8_2	2	2	0.998	1	1752	1600	hb	a_low.wav	234738	235736	238372
biokurs19-01	2	28	3_1	1	2	1.432	1	2316	1982	ca	u.wav	242715	244147	246718
biokurs19-01	2	29	6_5	5	2	0.938	1	3015	2482	fe	a_uml.wav	251752	252690	256250
biokurs19-01	2	30	1_3	1	1	1.709	1	3221	2549	ac	u.wav	261487	263196	266059
biokurs19-01	2	31	4_2	4	2	1.485	0	3050	1626	db	i.wav	271129	272614	274772
biokurs19-01	2	32	5_7	5	1	0.934	1	2698	2563	eg	a_uml.wav	279489	280423	284064
biokurs19-01	2	33	6_4	4	2	0.974	1	2286	1588	fd	i.wav	288374	289348	291996
biokurs19-01	2	34	2_8	2	1	1.005	1	3164	2011	bh	a_low.wav	297181	298186	301219
biokurs19-01	2	35	8_4	4	2	1.059	1	4089	1861	hd	i.wav	307333	308392	311220
biokurs19-01	2	36	5_6	5	1	0.99	1	3052	2358	ef	a_uml.wav	316287	317277	320660
biokurs19-01	2	37	1_3	3	2	1.951	1	3271	1421	ac	o.wav	325946	327897	329412
biokurs19-01	2	38	1_2	1	1	1.775	1	3057	2016	ab	u.wav	334479	336254	338522
biokurs19-01	2	39	3_6	3	1	1.36	1	2990	2675	cf	o.wav	343532	344892	348248
biokurs19-01	2	40	2_4	4	2	1.172	1	2274	2350	bd	i.wav	352541	353713	356919
biokurs19-01	3	1	5_8	5	1	1.477	1	2608	2140	EH	k_asp_cut.wav	7664	9141	11827
biokurs19-01	3	2	7_4	4	2	1.104	1	2316	1510	GD	p_cut.wav	16182	17286	19731
biokurs19-01	3	3	2_8	2	1	1.516	1	3271	2549	BH	g_sl_cut.wav	25048	26564	29623
biokurs19-01	3	4	8_1	1	1	1.104	0	2990	2482	HA	k_click_cut.wav	34651	35755	39156
biokurs19-01	3	5	2_6	2	1	0.941	1	3052	1588	BF	g_sl_cut.wav	44225	45166	47827
biokurs19-01	3	6	3_5	5	1	1.485	0	2720	1642	CE	k_asp_cut.wav	52568	54053	56236
biokurs19-01	3	7	6_4	4	2	1.815	1	1892	998	FD	p_cut.wav	60149	61964	63184
biokurs19-01	3	8	3_1	1	1	1.644	0	3788	1626	CA	k_click_cut.wav	68996	70640	72665
biokurs19-01	3	10	2_3	2	1	0.835	1	2760	1857	BC	g_sl_cut.wav	86191	87026	90087
biokurs19-01	3	11	3_4	4	2	1.235	1	3050	1333	CD	p_cut.wav	95156	96391	98506
biokurs19-01	3	12	3_8	3	1	1.911	1	3374	1850	CH	b_sh_cut.wav	103907	105818	107769
biokurs19-01	3	13	7_1	1	1	0.823	0	3332	1211	GA	k_click_cut.wav	113127	113950	116357
biokurs19-01	3	14	5_1	5	1	0.94	1	4089	2011	EA	k_asp_cut.wav	122471	123411	126526
biokurs19-01	3	15	2_7	2	1	1.286	1	2443	2168	BG	g_sl_cut.wav	130994	132280	135199
biokurs19-01	3	16	1_7	1	2	1.747	0	2274	1869	AG	k_click_cut.wav	139501	141248	143415
biokurs19-01	3	17	3_1	3	1	1.026	1	2516	1968	CA	b_sh_cut.wav	147956	148982	151941
biokurs19-01	3	18	5_6	5	1	1.032	1	2398	2563	EF	k_asp_cut.wav	156354	157386	160945
biokurs19-01	3	19	4_7	4	1	1.127	1	1752	1600	DG	p_cut.wav	164721	165848	168338
biokurs19-01	3	20	3_2	2	2	1.248	1	3164	1124	CB	g_sl_cut.wav	173529	174777	176680
biokurs19-01	3	21	4_8	4	1	1.026	1	3015	2675	DH	p_cut.wav	181718	182744	186408
biokurs19-01	3	22	1_6	1	1	1.61	1	3057	1346	AF	k_click_cut.wav	191484	193094	194857
biokurs19-01	3	23	4_5	5	2	1.018	1	2872	2260	DE	k_asp_cut.wav	199744	200762	204020
biokurs19-01	3	24	5_1	1	2	0.812	1	2097	1421	EA	k_click_cut.wav	208142	208954	211590
biokurs19-01	3	25	5_3	3	2	1.253	1	2286	1426	EC	b_sh_cut.wav	215887	217140	219329
biokurs19-01	3	26	2_1	2	1	0.983	1	3569	2258	BA	g_sl_cut.wav	224921	225904	229192
biokurs19-01	3	27	1_4	1	1	1.292	1	3929	2304	AD	k_click_cut.wav	235148	236440	239496
biokurs19-01	3	28	8_3	3	2	1.166	1	2685	2350	HC	b_sh_cut.wav	244197	245363	248573
biokurs19-01	3	29	6_5	5	2	1.093	1	2874	2016	FE	k_asp_cut.wav	253471	254564	257501
biokurs19-01	3	30	1_4	4	1	1.261	0	2548	1989	AD	p_cut.wav	262069	263330	266079
biokurs19-01	3	31	8_5	5	2	0.903	1	2301	2175	HE	k_asp_cut.wav	270391	271294	274585
biokurs19-01	3	32	3_2	3	1	1.07	1	3221	2704	CB	b_sh_cut.wav	279827	280897	284554
biokurs19-01	3	33	2_4	4	1	1.305	0	3440	1933	BD	p_cut.wav	290019	291324	293987
biokurs19-01	3	34	7_2	2	2	1.68	1	3043	1584	GB	g_sl_cut.wav	299045	300725	302652
biokurs19-01	3	35	4_3	4	1	1.827	1	3082	1861	DC	p_cut.wav	307759	309586	311640
biokurs19-01	3	36	1_2	2	2	1.145	1	2863	1733	AB	g_sl_cut.wav	316518	317663	320277
biokurs19-01	3	37	3_6	3	1	0.945	1	3282	2509	CF	b_sh_cut.wav	325577	326522	330102
biokurs19-01	3	38	5_3	5	1	1.144	1	2698	1982	EC	k_asp_cut.wav	334824	335968	338837
biokurs19-01	3	39	3_5	3	1	1.777	1	3162	2358	CE	b_sh_cut.wav	344017	345794	348386
biokurs19-01	3	40	1_3	1	1	1.684	1	2192	2253	AC	k_click_cut.wav	352594	354278	356886
biokurs19-02	1	1	1_3	1	1	1.018	1	3050	2350	02	s_alv_cut.wav	8098	9116	12468
biokurs19-02	1	2	7_3	3	2	1.15	1	3164	1733	62	t_sl_cut.wav	17656	18806	21416
biokurs19-02	1	3	4_2	2	2	1.357	1	3052	998	31	d_sh_retr_cut.wav	26487	27844	29517
biokurs19-02	1	4	3_8	3	1	1.146	1	3057	2563	27	t_sl_cut.wav	34598	35744	39188
biokurs19-02	1	5	5_7	5	1	1.355	1	2873	1421	46	s_palat_cut.wav	44085	45440	47522
biokurs19-02	1	6	6_2	2	2	1.377	1	2548	1588	51	d_sh_retr_cut.wav	52081	53458	55689
biokurs19-02	1	7	2_4	4	2	1.777	1	2872	2260	13	s_dent_cut.wav	60582	62359	64859
biokurs19-02	1	8	2_6	2	1	1.028	1	3282	1933	15	d_sh_retr_cut.wav	70166	71194	74114
biokurs19-02	1	9	6_1	1	2	1.505	1	2760	1823	50	s_alv_cut.wav	78888	80393	82733
biokurs19-02	1	10	5_8	5	1	1.055	1	2274	1584	47	s_palat_cut.wav	87025	88080	90636
biokurs19-02	1	11	6_4	4	1	1.645	0	4089	1869	53	s_dent_cut.wav	96751	98396	100646
biokurs19-02	1	12	2_7	2	1	0.975	1	3082	2549	16	d_sh_retr_cut.wav	105753	106728	110322
biokurs19-02	1	13	8_3	3	2	1.099	1	2685	1346	72	t_sl_cut.wav	115027	116126	118399
biokurs19-02	1	14	1_7	1	1	1.2	1	3332	1861	06	s_alv_cut.wav	123745	124945	127625
biokurs19-02	1	15	4_8	4	1	1.394	1	2516	1600	37	s_dent_cut.wav	132156	133550	135773
biokurs19-02	1	16	3_7	3	1	1.205	1	3374	1642	26	t_sl_cut.wav	141174	142379	144828
biokurs19-02	1	17	1_2	2	2	1.408	1	1752	2168	01	d_sh_retr_cut.wav	148601	150009	152785
biokurs19-02	1	18	8_1	1	2	1.457	1	2286	1968	70	s_alv_cut.wav	157100	158557	161101
biokurs19-02	1	19	5_3	5	1	1.029	1	3271	1989	42	s_palat_cut.wav	166387	167416	170402
biokurs19-02	1	20	5_4	4	1	1.413	0	3788	1333	43	s_dent_cut.wav	176202	177615	179560
biokurs19-02	1	21	4_1	1	2	1.122	1	3043	2509	30	s_alv_cut.wav	184630	185752	189162
biokurs19-02	1	22	2_3	2	1	1.23	1	2316	1850	12	d_sh_retr_cut.wav	193503	194733	197375
biokurs19-02	1	23	3_4	3	1	1.356	1	2443	2482	23	t_sl_cut.wav	201844	203200	206344
biokurs19-02	1	24	6_5	5	2	1.291	1	1892	2358	54	s_palat_cut.wav	210253	211544	214629
biokurs19-02	1	25	8_4	4	2	1.784	1	3929	1510	73	s_dent_cut.wav	220574	222358	224110
biokurs19-02	1	26	3_2	3	1	1.278	1	2720	1982	21	t_sl_cut.wav	228859	230137	232885
biokurs19-02	1	27	4_5	5	2	1.115	1	2097	2016	34	s_palat_cut.wav	237000	238115	241043
biokurs19-02	1	28	7_1	1	2	1.279	1	2874	2675	60	s_alv_cut.wav	245937	247216	250644
biokurs19-02	1	29	2_8	2	1	1.153	1	3569	1124	17	d_sh_retr_cut.wav	256232	257385	259387
biokurs19-02	1	30	4_6	4	1	1.098	1	2990	1857	35	s_dent_cut.wav	264400	265498	268280
biokurs19-02	1	31	3_2	2	2	1.159	1	2863	2175	21	d_sh_retr_cut.wav	273162	274321	277362
biokurs19-02	1	32	1_4	1	1	1.302	1	2192	2304	03	s_alv_cut.wav	281576	282878	285900
biokurs19-02	1	33	1_5	5	2	1.092	1	2301	2258	04	s_palat_cut.wav	290218	291310	294495
biokurs19-02	1	34	3_4	4	2	1.191	1	3221	2140	23	s_dent_cut.wav	299742	300933	303905
biokurs19-02	1	35	5_2	5	1	1.37	1	3440	2704	41	s_palat_cut.wav	309366	310736	314105
biokurs19-02	1	36	1_3	3	2	1.257	1	3162	1426	02	t_sl_cut.wav	319293	320550	322729
biokurs19-02	1	37	8_5	5	2	1.117	1	2398	1211	74	s_palat_cut.wav	327151	328268	330372
biokurs19-02	1	38	1_4	4	2	1.152	1	2698	1626	03	s_dent_cut.wav	335095	336247	338752
biokurs19-02	1	39	3_1	1	2	1.164	1	3015	2011	20	s_alv_cut.wav	343786	344950	347830
biokurs19-02	1	40	3_1	3	1	1.12	1	2608	2253	20	t_sl_cut.wav	352463	353583	356730
biokurs19-02	2	1	8_3	3	2	1.363	1	3050	1346	hc	u.wav	8093	9456	11464
biokurs19-02	2	2	1_2	2	1	1.213	0	2398	1333	ab	a_uml.wav	15868	17081	19220
biokurs19-02	2	3	7_1	1	1	1.623	0	3043	1588	ga	o.wav	24290	25913	27901
biokurs19-02	2	5	3_2	2	2	0.947	1	4089	1968	cb	a_uml.wav	43292	44239	47286
biokurs19-02	2	6	1_6	1	2	1.44	0	2873	2549	af	o.wav	52174	53614	56738
biokurs19-02	2	7	4_3	4	2	1.612	0	1752	2563	dc	a_low.wav	60511	62123	65090
biokurs19-02	2	8	7_2	2	2	1.452	1	3332	2016	gb	a_uml.wav	70446	71898	74481
biokurs19-02	2	10	6_3	3	2	1.13	1	2720	2140	fc	u.wav	88483	89613	92667
biokurs19-02	2	11	6_2	2	2	1.109	1	2990	1857	fb	a_uml.wav	97678	98787	101558
biokurs19-02	2	12	3_5	3	2	1.23	0	3052	1733	ce	u.wav	106629	107859	110376
biokurs19-02	2	13	1_8	1	1	1.419	1	2097	1642	ah	o.wav	114492	115911	118161
biokurs19-02	2	14	3_4	3	1	1.202	1	2698	2253	cd	u.wav	122879	124081	127163
biokurs19-02	2	15	4_6	4	1	1.349	1	3569	1989	df	a_low.wav	132746	134095	136748
biokurs19-02	2	16	4_2	2	2	0.957	1	3057	1982	db	a_uml.wav	141816	142773	145825
biokurs19-02	2	17	5_4	4	1	1.546	0	3929	1626	ed	a_low.wav	151773	153319	155425
biokurs19-02	2	18	2_5	5	1	1.052	0	2443	2258	be	i.wav	159887	160939	164164
biokurs19-02	2	19	5_3	3	2	1.19	1	2760	1510	ec	u.wav	168951	170141	172500
biokurs19-02	2	20	3_5	5	2	1.389	1	2316	1600	ce	i.wav	176845	178234	180466
biokurs19-02	2	21	6_1	1	2	1.189	1	2872	2175	fa	o.wav	185365	186554	189557
biokurs19-02	2	22	4_7	4	1	1.679	1	3164	1124	dg	a_low.wav	194742	196421	197892
biokurs19-02	2	23	3_8	3	1	1.375	1	3271	2358	ch	u.wav	203186	204561	207589
biokurs19-02	2	24	1_5	1	1	1.076	1	2516	1869	ae	o.wav	212121	213197	216006
biokurs19-02	2	25	2_3	2	1	1.059	1	2301	998	bc	a_uml.wav	220332	221391	223349
biokurs19-02	2	26	5_2	5	2	1.18	0	2874	1823	eb	i.wav	228247	229427	232085
biokurs19-02	2	27	8_2	2	2	1.528	1	3221	2509	hb	a_uml.wav	237323	238851	241873
biokurs19-02	2	28	3_1	1	1	1.678	0	2192	2704	ca	o.wav	246090	247768	250833
biokurs19-02	2	29	6_5	5	2	1.131	1	2286	2260	fe	i.wav	255144	256275	259420
biokurs19-02	2	30	1_3	1	1	1.662	1	3282	2482	ac	o.wav	264727	266389	269224
biokurs19-02	2	31	4_2	4	1	1.793	1	2685	1211	db	a_low.wav	273926	275719	277162
biokurs19-02	2	32	5_7	5	1	1.575	1	3015	2011	eg	i.wav	282202	283777	286229
biokurs19-02	2	33	6_4	4	2	1.936	1	3788	1850	fd	a_low.wav	292042	293978	295917
biokurs19-02	2	34	2_8	2	1	1.044	1	3162	1421	bh	a_uml.wav	301105	302149	304537
biokurs19-02	2	35	8_4	4	2	1.232	1	1892	1426	hd	a_low.wav	308440	309672	311884
biokurs19-02	2	36	5_6	5	1	1.323	1	3082	1584	ef	i.wav	316990	318313	320593
biokurs19-02	2	37	1_3	3	2	1.022	1	2274	1933	ac	u.wav	324893	325915	328854
biokurs19-02	2	38	1_2	1	1	1.146	1	3440	2304	ab	o.wav	334308	335454	338647
biokurs19-02	2	39	3_6	3	1	1.254	1	3374	2168	cf	u.wav	344037	345291	348218
biokurs19-02	2	40	2_4	4	2	1.319	1	2608	1861	bd	a_low.wav	352854	354173	356746
biokurs19-02	3	1	5_8	5	1	1.104	1	3374	1982	EH	g_sl_cut.wav	8422	9526	12422
biokurs19-02	3	2	7_4	4	2	1.157	1	2863	998	GD	b_sh_cut.wav	17295	18452	20309
biokurs19-02	3	3	2_8	2	1	1.417	1	3050	1733	BH	k_click_cut.wav	25384	26801	29133
biokurs19-02	3	4	8_1	1	1	1.348	0	3082	1989	HA	k_asp_cut.wav	34234	35582	38242
biokurs19-02	3	5	2_6	2	1	1.273	1	2872	2168	BF	k_click_cut.wav	43126	44399	47310
biokurs19-02	3	6	3_5	5	2	1.436	1	3788	2350	CE	g_sl_cut.wav	53126	54562	57501
biokurs19-02	3	7	6_4	4	1	1.549	0	2990	2358	FD	b_sh_cut.wav	62515	64064	66896
biokurs19-02	3	8	3_1	1	1	1.383	0	1892	2509	CA	k_asp_cut.wav	70804	72187	75331
biokurs19-02	3	9	7_3	3	1	1.537	0	3271	1850	GC	p_cut.wav	80627	82164	84504
biokurs19-02	3	10	2_3	2	1	0.929	1	3332	2140	BC	k_click_cut.wav	89862	90791	94038
biokurs19-02	3	11	3_4	4	1	1.259	0	2192	1857	CD	b_sh_cut.wav	98251	99510	102129
biokurs19-02	3	12	3_8	3	1	1.106	1	3164	2011	CH	p_cut.wav	107312	108418	111367
biokurs19-02	3	13	7_1	1	1	1.348	0	2274	1933	GA	k_asp_cut.wav	115666	117014	119627
biokurs19-02	3	14	5_1	5	1	1.529	1	2874	2549	EA	g_sl_cut.wav	124515	126044	129079
biokurs19-02	3	15	2_7	2	1	1.021	1	2608	1426	BG	k_click_cut.wav	133707	134728	137147
biokurs19-02	3	16	1_7	1	2	1.521	0	3282	2253	AG	k_asp_cut.wav	142452	143973	146721
biokurs19-02	3	17	3_1	3	1	1.206	1	2698	1124	CA	p_cut.wav	151433	152639	154569
biokurs19-02	3	18	5_6	5	1	1.495	1	4089	2175	EF	g_sl_cut.wav	160682	162177	164900
biokurs19-02	3	19	4_7	4	2	1.605	0	2286	2016	DG	b_sh_cut.wav	169208	170813	173239
biokurs19-02	3	20	3_2	2	2	1.178	1	3052	1510	CB	k_click_cut.wav	178311	179489	181836
biokurs19-02	3	21	4_8	4	1	1.56	1	2685	2260	DH	b_sh_cut.wav	186549	188109	190835
biokurs19-02	3	22	1_6	1	2	1.015	0	2720	2304	AF	k_asp_cut.wav	195580	196595	199910
biokurs19-02	3	23	4_5	5	2	1.228	1	3043	1626	DE	g_sl_cut.wav	204969	206197	208619
biokurs19-02	3	24	5_1	1	2	1.592	1	2760	2258	EA	k_asp_cut.wav	213397	214989	217695
biokurs19-02	3	25	5_3	3	2	1.691	1	3162	1642	EC	p_cut.wav	222884	224575	226537
biokurs19-02	3	26	2_1	2	1	1.241	1	2097	2704	BA	k_click_cut.wav	230655	231896	235386
biokurs19-02	3	27	1_4	1	1	1.203	1	3929	1421	AD	k_asp_cut.wav	241340	242543	244787
biokurs19-02	3	28	8_3	3	2	1.422	1	2548	1588	HC	p_cut.wav	249346	250768	252954
biokurs19-02	3	29	6_5	5	1	1.402	0	1752	1861	FE	g_sl_cut.wav	256728	258130	260605
biokurs19-02	3	30	1_4	4	2	1.609	1	3221	1346	AD	b_sh_cut.wav	265841	267450	269210
biokurs19-02	3	31	8_5	5	2	0.98	1	2316	2482	HE	g_sl_cut.wav	273541	274521	278044
biokurs19-02	3	32	3_2	3	1	0.949	1	2443	1823	CB	p_cut.wav	282503	283452	286345
biokurs19-02	3	33	2_4	4	2	1.054	1	3569	1968	BD	b_sh_cut.wav	291932	292986	295930
biokurs19-02	3	34	7_2	2	2	1.129	1	2873	1211	GB	k_click_cut.wav	300818	301947	304044
biokurs19-02	3	35	4_3	4	2	1.01	0	3057	1584	DC	b_sh_cut.wav	309126	310136	312737
biokurs19-02	3	36	1_2	2	2	1.031	1	3440	1869	AB	k_click_cut.wav	318203	319234	322089
biokurs19-02	3	37	3_6	3	1	1.333	1	2398	2675	CF	p_cut.wav	326512	327845	331198
biokurs19-02	3	38	5_3	5	1	1.518	1	2301	1333	EC	g_sl_cut.wav	335517	337035	338869
biokurs19-02	3	39	3_5	3	1	1.232	1	2516	1600	CE	p_cut.wav	343412	344644	347029
biokurs19-02	3	40	1_3	1	1	1.071	1	3015	2563	AC	k_asp_cut.wav	352072	353143	356650
biokurs19-03	1	1	1_3	1	1	1.034	1	3282	1421	02	d_sh_retr_cut.wav	8340	9374	11785
biokurs19-03	1	2	7_3	3	2	0.884	1	1892	1857	62	s_palat_cut.wav	15688	16572	19581
biokurs19-03	1	3	4_2	2	2	1.146	1	2274	1211	31	t_sl_cut.wav	23874	25020	27113
biokurs19-03	1	4	3_8	3	1	1.292	1	3082	1346	27	s_palat_cut.wav	32220	33512	35604
biokurs19-03	1	5	5_7	5	2	1.262	0	2874	1600	46	s_alv_cut.wav	40492	41754	44107
biokurs19-03	1	6	6_2	2	2	1.307	1	3271	1333	51	t_sl_cut.wav	49405	50712	52764
biokurs19-03	1	7	2_4	4	2	1.245	1	3929	2358	13	s_dent_cut.wav	58721	59966	63105
biokurs19-03	1	8	2_6	2	1	0.838	1	2316	2549	15	t_sl_cut.wav	67437	68275	72007
biokurs19-03	1	9	6_1	1	2	1.248	1	2760	2704	50	d_sh_retr_cut.wav	76787	78035	81513
biokurs19-03	1	10	5_8	5	1	0.838	1	2873	1861	47	s_alv_cut.wav	86412	87250	90306
biokurs19-03	1	11	6_4	4	2	1.655	1	4089	2675	53	s_dent_cut.wav	96410	98065	101129
biokurs19-03	1	12	2_7	2	1	0.668	1	2863	2304	16	t_sl_cut.wav	106011	106679	110340
biokurs19-03	1	13	8_3	3	1	1.287	0	3162	1626	72	s_palat_cut.wav	115519	116806	119155
biokurs19-03	1	14	1_7	1	1	1.208	1	2548	1588	06	d_sh_retr_cut.wav	123722	124930	127331
biokurs19-03	1	15	4_8	4	1	1.517	1	2608	1426	37	s_dent_cut.wav	131960	133477	135418
biokurs19-03	1	16	3_7	3	1	1.731	1	3221	2509	26	s_palat_cut.wav	140662	142393	145212
biokurs19-03	1	17	1_2	2	2	0.898	1	3057	1850	01	t_sl_cut.wav	150294	151192	154171
biokurs19-03	1	18	8_1	1	2	0.723	1	2097	1933	70	d_sh_retr_cut.wav	158294	159017	162254
biokurs19-03	1	19	5_3	5	2	1.127	0	3569	2140	42	s_alv_cut.wav	167837	168964	171990
biokurs19-03	1	21	4_1	1	2	0.982	1	3050	1968	30	d_sh_retr_cut.wav	186785	187767	190769
biokurs19-03	1	22	2_3	2	1	0.785	1	2443	998	12	t_sl_cut.wav	195227	196012	198244
biokurs19-03	1	23	3_4	3	1	0.907	1	3788	1584	23	s_palat_cut.wav	204056	204963	207665
biokurs19-03	1	24	6_5	5	2	0.711	1	2990	2563	54	s_alv_cut.wav	212681	213392	217284
biokurs19-03	1	25	8_4	4	1	1.602	0	2720	2011	73	s_dent_cut.wav	222029	223631	226084
biokurs19-03	1	26	3_2	3	1	1.223	1	3440	1823	21	s_palat_cut.wav	231549	232772	235389
biokurs19-03	1	27	4_5	5	2	0.757	1	2698	1869	34	s_alv_cut.wav	240105	240862	243986
biokurs19-03	1	28	7_1	1	2	0.756	1	2301	2175	60	d_sh_retr_cut.wav	248312	249068	252506
biokurs19-03	1	29	2_8	2	1	0.788	1	2192	1642	17	t_sl_cut.wav	256719	257507	260382
biokurs19-03	1	30	4_6	4	1	1.098	1	1752	2016	35	s_dent_cut.wav	264154	265252	268187
biokurs19-03	1	31	3_2	2	2	0.785	1	2872	1733	21	t_sl_cut.wav	273079	273864	276846
biokurs19-03	1	32	1_4	1	1	0.937	1	3015	1124	03	d_sh_retr_cut.wav	281880	282817	285019
biokurs19-03	1	33	1_5	5	2	0.838	1	3052	2260	04	s_alv_cut.wav	290095	290933	294369
biokurs19-03	1	34	3_4	4	1	1.698	0	2685	2258	23	s_dent_cut.wav	299079	300777	303362
biokurs19-03	1	35	5_2	5	1	1.518	1	2398	1989	41	s_alv_cut.wav	307787	309305	311805
biokurs19-03	1	36	1_3	3	2	0.902	1	2286	1510	02	s_palat_cut.wav	316102	317004	319628
biokurs19-03	1	37	8_5	5	2	0.72	1	3043	2168	74	s_alv_cut.wav	324699	325419	328890
biokurs19-03	1	38	1_4	4	2	1.028	1	3164	1982	03	s_dent_cut.wav	334082	335110	338091
biokurs19-03	1	39	3_1	1	2	0.688	1	2516	2482	20	d_sh_retr_cut.wav	342626	343314	347125
biokurs19-03	1	40	3_1	3	1	0.734	1	3374	2253	20	s_palat_cut.wav	352515	353249	356780
biokurs19-03	2	1	8_3	3	2	1.029	1	2873	2563	hc	a_low.wav	7926	8955	12513
biokurs19-03	2	2	1_2	2	1	1.135	0	2398	2482	ab	u.wav	16927	18062	21427
biokurs19-03	2	3	7_1	1	1	1.006	0	2301	2175	ga	i.wav	25745	26751	29938
biokurs19-03	2	4	4_5	5	2	1.036	1	3374	1426	de	o.wav	35333	36369	38789
biokurs19-03	2	5	3_2	2	2	1.457	1	3162	2253	cb	u.wav	43975	45432	48239
biokurs19-03	2	6	1_6	1	2	1.347	0	2316	1626	af	i.wav	52569	53916	56234
biokurs19-03	2	7	4_3	4	2	1.303	0	3082	1510	dc	a_uml.wav	61335	62638	64865
biokurs19-03	2	8	7_2	2	2	1.054	1	2192	1861	gb	u.wav	69085	70139	72985
biokurs19-03	2	9	5_8	5	1	1.478	1	2286	1346	eh	o.wav	77286	78764	80647
biokurs19-03	2	10	6_3	3	2	0.965	1	2760	2258	fc	a_low.wav	85422	86387	89702
biokurs19-03	2	11	6_2	2	2	0.918	1	3929	2704	fb	u.wav	95658	96576	100388
biokurs19-03	2	12	3_5	3	1	1.727	1	2443	1211	ce	a_low.wav	104856	106583	108086
biokurs19-03	2	13	1_8	1	1	1.065	1	3221	1823	ah	i.wav	113332	114397	117196
biokurs19-03	2	14	3_4	3	1	1.146	1	3050	1968	cd	a_low.wav	122263	123409	126248
biokurs19-03	2	15	4_6	4	2	1.045	0	3332	1869	df	a_uml.wav	131594	132639	135482
biokurs19-03	2	16	4_2	2	2	0.953	1	3052	2358	db	u.wav	140559	141512	144931
biokurs19-03	2	17	5_4	4	1	1.523	0	2720	1333	ed	a_uml.wav	149667	151190	153026
biokurs19-03	2	18	2_5	5	2	1.593	1	1892	1600	be	o.wav	156946	158539	160564
biokurs19-03	2	19	5_3	3	1	1.506	0	2274	1989	ec	a_low.wav	164866	166372	168882
biokurs19-03	2	21	6_1	1	1	1.183	0	2863	2304	fa	i.wav	181970	183153	186300
biokurs19-03	2	22	4_7	4	1	1.398	1	2548	1733	dg	a_uml.wav	190864	192262	194635
biokurs19-03	2	23	3_8	3	1	1.02	1	3440	2350	ch	a_low.wav	200094	201114	204461
biokurs19-03	2	24	1_5	1	1	0.916	1	3043	1933	ae	i.wav	209528	210444	213502
biokurs19-03	2	25	2_3	2	1	0.874	1	3569	1857	bc	u.wav	219085	219959	222955
biokurs19-03	2	26	5_2	5	1	1.186	1	2097	2016	eb	o.wav	227071	228257	231114
biokurs19-03	2	27	8_2	2	2	1.744	1	3057	1588	hb	u.wav	236191	237935	239806
biokurs19-03	2	28	3_1	1	2	0.987	1	2685	1421	ca	i.wav	244513	245500	247960
biokurs19-03	2	29	6_5	5	2	1.436	1	2872	2260	fe	o.wav	252842	254278	257119
biokurs19-03	2	30	1_3	1	1	0.993	1	3015	1982	ac	i.wav	262159	263152	266156
biokurs19-03	2	31	4_2	4	1	1.255	1	2698	1850	db	a_uml.wav	270873	272128	274735
biokurs19-03	2	32	5_7	5	1	1.113	1	2608	2011	eg	o.wav	279370	280483	283394
biokurs19-03	2	33	6_4	4	2	0.817	1	2874	2168	fd	a_uml.wav	288293	289110	292494
biokurs19-03	2	34	2_8	2	1	0.882	1	3282	2140	bh	u.wav	297804	298686	301959
biokurs19-03	2	35	8_4	4	2	0.769	1	1752	2549	hd	a_uml.wav	305731	306500	310297
biokurs19-03	2	36	5_6	5	1	0.859	1	3271	1584	ef	o.wav	315588	316447	319216
biokurs19-03	2	37	1_3	3	2	1.164	1	4089	1124	ac	a_low.wav	325331	326495	328481
biokurs19-03	2	38	1_2	1	1	0.675	1	2516	1642	ab	i.wav	333020	333695	336679
biokurs19-03	2	39	3_6	3	1	0.789	1	3788	2675	cf	a_low.wav	342488	343277	347205
biokurs19-03	2	40	2_4	4	2	0.671	1	2990	2509	bd	a_uml.wav	352214	352885	356746
biokurs19-03	3	1	5_8	5	2	1.022	0	2097	2016	EH	g_sl_cut.wav	7159	8181	11206
biokurs19-03	3	2	7_4	4	2	1.22	1	2872	2675	GD	p_cut.wav	16090	17310	20790
biokurs19-03	3	3	2_8	2	2	1.811	0	2720	2168	BH	k_asp_cut.wav	25529	27340	29723
biokurs19-03	3	4	8_1	1	1	1.443	0	3162	2563	HA	b_sh_cut.wav	34913	36356	39487
biokurs19-03	3	5	2_6	2	2	1.893	0	2443	1333	BF	k_asp_cut.wav	43954	45847	47306
biokurs19-03	3	6	3_5	5	1	1.214	0	3052	2011	CE	g_sl_cut.wav	52385	53599	56411
biokurs19-03	3	7	6_4	4	2	1.464	1	3569	1857	FD	p_cut.wav	62005	63469	65874
biokurs19-03	3	8	3_1	1	2	1.786	1	2863	2260	CA	b_sh_cut.wav	70757	72543	75060
biokurs19-03	3	9	7_3	3	1	1.396	0	2286	1733	GC	k_click_cut.wav	79371	80767	83120
biokurs19-03	3	10	2_3	2	1	1.666	1	2608	2304	BC	k_asp_cut.wav	87746	89412	92082
biokurs19-03	3	11	3_4	4	2	1.322	1	2760	1982	CD	p_cut.wav	96858	98180	100862
biokurs19-03	3	12	3_8	3	1	1.663	1	2192	1850	CH	k_click_cut.wav	105073	106736	108943
biokurs19-03	3	14	5_1	5	1	1.184	1	3043	1510	EA	g_sl_cut.wav	123115	124299	126648
biokurs19-03	3	15	2_7	2	1	1.44	1	2548	1211	BG	k_asp_cut.wav	131224	132664	134456
biokurs19-03	3	17	3_1	3	2	1.216	0	1892	1861	CA	k_click_cut.wav	147635	148851	151515
biokurs19-03	3	18	5_6	5	1	1.139	1	2516	1989	EF	g_sl_cut.wav	156046	157185	160052
biokurs19-03	3	19	4_7	4	1	0.931	1	3057	1869	DG	p_cut.wav	165120	166051	169034
biokurs19-03	3	20	3_2	2	2	1.308	1	3221	1600	CB	k_asp_cut.wav	174280	175588	177921
biokurs19-03	3	21	4_8	4	1	0.948	1	2398	1933	DH	p_cut.wav	182346	183294	186289
biokurs19-03	3	22	1_6	1	2	1.044	0	3374	2350	AF	b_sh_cut.wav	191678	192722	196040
biokurs19-03	3	23	4_5	5	1	0.949	0	2873	1124	DE	g_sl_cut.wav	200937	201886	204076
biokurs19-03	3	24	5_1	1	1	1.501	0	3332	2258	EA	b_sh_cut.wav	209431	210932	213708
biokurs19-03	3	25	5_3	3	2	1.133	1	2301	1823	EC	k_click_cut.wav	218036	219169	221895
biokurs19-03	3	26	2_1	2	1	1.192	1	3929	2253	BA	k_asp_cut.wav	227842	229034	232139
biokurs19-03	3	27	1_4	1	2	0.912	0	1752	1968	AD	b_sh_cut.wav	235905	236817	239907
biokurs19-03	3	28	8_3	3	1	1.57	0	3164	1588	HC	k_click_cut.wav	245086	246656	248700
biokurs19-03	3	29	6_5	5	2	1.199	1	4089	2704	FE	g_sl_cut.wav	254811	256010	259559
biokurs19-03	3	30	1_4	4	2	1.128	1	2274	2140	AD	p_cut.wav	263858	264986	268044
biokurs19-03	3	31	8_5	5	2	1.209	1	3082	2549	HE	g_sl_cut.wav	273146	274355	277715
biokurs19-03	3	32	3_2	3	1	1.462	1	2685	1346	CB	k_click_cut.wav	282420	283882	285792
biokurs19-03	3	33	2_4	4	2	0.77	1	3282	2482	BD	p_cut.wav	291089	291859	295586
biokurs19-03	3	34	7_2	2	2	0.98	1	3271	1421	GB	k_asp_cut.wav	300873	301853	304321
biokurs19-03	3	35	4_3	4	1	0.785	1	2316	1642	DC	p_cut.wav	308647	309432	312311
biokurs19-03	3	36	1_2	2	2	0.82	1	3440	1584	AB	k_asp_cut.wav	317771	318591	321373
biokurs19-03	3	37	3_6	3	1	1.379	1	2990	2358	CF	k_click_cut.wav	326388	327767	330769
biokurs19-03	3	38	5_3	5	2	1.459	0	3015	998	EC	g_sl_cut.wav	335800	337259	338814
biokurs19-03	3	39	3_5	3	1	1.578	1	3050	1626	CE	k_click_cut.wav	343888	345466	347530
biokurs19-03	3	40	1_3	1	2	1.293	0	2698	2509	AC	b_sh_cut.wav	352247	353540	356769
biokurs19-04	1	1	1_3	1	1	1.244	1	3043	1211	02	s_palat_cut.wav	8114	9358	11336
biokurs19-04	1	2	7_3	3	1	1.444	0	3440	1584	62	t_sl_cut.wav	16819	18263	20420
biokurs19-04	1	3	4_2	2	1	1.211	0	2316	1857	31	s_alv_cut.wav	24780	25991	28658
biokurs19-04	1	4	3_8	3	1	1.227	1	2874	2258	27	t_sl_cut.wav	33551	34778	37823
biokurs19-04	1	6	6_2	2	1	1.693	0	2274	1869	51	s_alv_cut.wav	50978	52671	54875
biokurs19-04	1	7	2_4	4	2	1.157	1	2443	2675	13	d_sh_retr_cut.wav	59360	60517	64054
biokurs19-04	1	8	2_6	2	1	1.348	1	2301	2358	15	s_alv_cut.wav	68374	69722	72751
biokurs19-04	1	9	6_1	1	1	0.939	0	3052	1823	50	s_palat_cut.wav	77818	78757	81656
biokurs19-04	1	10	5_8	5	2	1.501	0	3082	1861	47	s_dent_cut.wav	86755	88256	90636
biokurs19-04	1	11	6_4	4	1	0.82	0	2698	1421	53	d_sh_retr_cut.wav	95349	96169	98783
biokurs19-04	1	12	2_7	2	1	1.199	1	2872	2304	16	s_alv_cut.wav	103665	104864	107986
biokurs19-04	1	13	8_3	3	1	1.448	0	2608	2168	72	t_sl_cut.wav	112610	114058	116810
biokurs19-04	1	14	1_7	1	1	1.334	1	3271	2260	06	s_palat_cut.wav	122109	123443	126395
biokurs19-04	1	15	4_8	4	1	1.052	1	2097	2016	37	d_sh_retr_cut.wav	130517	131569	134560
biokurs19-04	1	16	3_7	3	1	0.881	1	3282	1982	26	t_sl_cut.wav	139862	140743	143860
biokurs19-04	1	17	1_2	2	1	1.118	0	3929	1968	01	s_alv_cut.wav	149807	150925	153801
biokurs19-04	1	18	8_1	1	2	1.849	1	2990	2350	70	s_palat_cut.wav	158806	160655	163179
biokurs19-04	1	19	5_3	5	1	1.126	1	2286	2482	42	s_dent_cut.wav	167489	168615	171987
biokurs19-04	1	20	5_4	4	1	1.495	0	2685	2140	43	d_sh_retr_cut.wav	176688	178183	180854
biokurs19-04	1	21	4_1	1	2	1.295	1	2548	2175	30	s_palat_cut.wav	185422	186717	189618
biokurs19-04	1	22	2_3	2	2	1.372	0	3374	1124	12	s_alv_cut.wav	195013	196385	198167
biokurs19-04	1	23	3_4	3	1	1.278	1	1752	2253	23	t_sl_cut.wav	201942	203220	206229
biokurs19-04	1	24	6_5	5	1	1.045	0	2192	1588	54	s_dent_cut.wav	210435	211480	214044
biokurs19-04	1	25	8_4	4	2	1.395	1	3221	1333	73	d_sh_retr_cut.wav	219287	220682	222643
biokurs19-04	1	26	3_2	3	1	0.908	1	3162	1600	21	t_sl_cut.wav	227832	228740	231443
biokurs19-04	1	27	4_5	5	1	0.872	0	1892	2704	34	s_dent_cut.wav	235362	236234	240085
biokurs19-04	1	28	7_1	1	1	1.054	0	2863	1989	60	s_palat_cut.wav	244973	246027	248988
biokurs19-04	1	29	2_8	2	1	1.431	1	3332	1426	17	s_alv_cut.wav	254331	255762	257776
biokurs19-04	1	30	4_6	4	1	1.104	1	3569	2549	35	d_sh_retr_cut.wav	263368	264472	267930
biokurs19-04	1	31	3_2	2	1	0.996	0	3015	1346	21	s_alv_cut.wav	272966	273962	276345
biokurs19-04	1	32	1_4	1	1	1.446	1	2516	1933	03	s_palat_cut.wav	280876	282322	284826
biokurs19-04	1	33	1_5	5	2	1.595	1	4089	2509	04	s_dent_cut.wav	290929	292524	295464
biokurs19-04	1	34	3_4	4	1	0.953	0	3057	1733	23	d_sh_retr_cut.wav	300546	301499	304306
biokurs19-04	1	35	5_2	5	2	1.914	0	2398	1510	41	s_dent_cut.wav	308722	310636	312243
biokurs19-04	1	36	1_3	3	1	0.925	0	2873	1642	02	t_sl_cut.wav	317144	318069	320802
biokurs19-04	1	37	8_5	5	2	1.761	1	3050	2563	74	s_dent_cut.wav	325872	327633	330452
biokurs19-04	1	38	1_4	4	1	1.108	0	2720	1626	03	d_sh_retr_cut.wav	335196	336304	338848
biokurs19-04	1	39	3_1	1	1	1.006	0	2760	1850	20	s_palat_cut.wav	343627	344633	347517
biokurs19-04	1	40	3_1	3	1	1.083	1	3164	2011	20	t_sl_cut.wav	352707	353790	356744
biokurs19-04	2	1	8_3	3	1	1.238	0	3043	2675	hc	u.wav	8104	9342	12790
biokurs19-04	2	2	1_2	2	2	1.173	1	3374	1989	ab	i.wav	18201	19374	22202
biokurs19-04	2	3	7_1	1	1	1.412	0	3788	1584	ga	a_low.wav	28019	29431	31628
biokurs19-04	2	4	4_5	5	1	1.427	0	2286	2304	de	a_uml.wav	35936	37363	40259
biokurs19-04	2	5	3_2	2	2	1.848	1	2548	1850	cb	i.wav	44824	46672	48694
biokurs19-04	2	6	1_6	1	1	1.445	1	2874	1982	af	a_low.wav	53594	55039	57591
biokurs19-04	2	7	4_3	4	1	1.602	1	3440	1733	dc	o.wav	63067	64669	66817
biokurs19-04	2	8	7_2	2	2	0.648	1	2316	1857	gb	i.wav	71152	71800	75030
biokurs19-04	2	9	5_8	5	2	1.186	0	2443	1933	eh	a_uml.wav	79492	80678	83444
biokurs19-04	2	10	6_3	3	1	1.338	0	4089	998	fc	u.wav	89547	90885	92571
biokurs19-04	2	11	6_2	2	2	0.892	1	2608	1588	fb	i.wav	97204	98096	100806
biokurs19-04	2	12	3_5	3	1	1.151	1	3569	2563	ce	u.wav	106396	107547	110972
biokurs19-04	2	13	1_8	1	2	1.156	0	3282	2258	ah	a_low.wav	116278	117434	120552
biokurs19-04	2	14	3_4	3	1	1.304	1	2301	1211	cd	u.wav	124880	126184	128109
biokurs19-04	2	15	4_6	4	1	1.342	1	3057	1426	df	o.wav	133191	134533	136644
biokurs19-04	2	16	4_2	2	2	0.984	1	2685	1346	db	i.wav	141353	142337	144742
biokurs19-04	2	17	5_4	4	1	1.115	0	2698	2358	ed	o.wav	149455	150570	153825
biokurs19-04	2	18	2_5	5	2	1.178	1	3082	2168	be	a_uml.wav	158923	160101	163111
biokurs19-04	2	19	5_3	3	2	1.788	1	3332	1600	ec	u.wav	168472	170260	172090
biokurs19-04	2	20	3_5	5	2	0.992	1	1892	2253	ce	a_uml.wav	176009	177001	180281
biokurs19-04	2	21	6_1	1	1	1.128	0	2097	2482	fa	a_low.wav	184392	185520	188901
biokurs19-04	2	22	4_7	4	1	1.503	1	1752	1869	dg	o.wav	192669	194172	196555
biokurs19-04	2	23	3_8	3	1	1.738	1	2398	1968	ch	u.wav	200978	202716	204956
biokurs19-04	2	24	1_5	1	2	1.555	0	3929	1642	ae	a_low.wav	210900	212455	214568
biokurs19-04	2	25	2_3	2	2	1.755	0	3164	1421	bc	i.wav	219753	221508	223218
biokurs19-04	2	26	5_2	5	1	1.769	1	3271	2549	eb	a_uml.wav	228500	230269	233075
biokurs19-04	2	27	8_2	2	2	1.13	1	2192	2704	hb	i.wav	237287	238417	242012
biokurs19-04	2	28	3_1	1	2	1.346	1	2863	1861	ca	a_low.wav	246901	248247	250787
biokurs19-04	2	29	6_5	5	2	1.275	1	3221	2175	fe	a_uml.wav	256023	257298	260221
biokurs19-04	2	30	1_3	1	2	1.441	0	3162	2016	ac	a_low.wav	265404	266845	269449
biokurs19-04	2	31	4_2	4	2	1.454	0	2760	1124	db	o.wav	274229	275683	277375
biokurs19-04	2	32	5_7	5	1	1.375	1	2990	2350	eg	a_uml.wav	282388	283763	286779
biokurs19-04	2	33	6_4	4	2	1.267	1	3050	2011	fd	o.wav	291853	293120	295880
biokurs19-04	2	34	2_8	2	1	1.32	1	2274	1626	bh	i.wav	300179	301499	303833
biokurs19-04	2	35	8_4	4	2	1.342	1	2720	2260	hd	o.wav	308572	309914	312876
biokurs19-04	2	36	5_6	5	1	1.111	1	3015	1510	ef	a_uml.wav	317916	319027	321441
biokurs19-04	2	37	1_3	3	1	1.54	0	2516	2140	ac	u.wav	325986	327526	330143
biokurs19-04	2	38	1_2	1	2	1.239	0	3052	1333	ab	a_low.wav	335215	336454	338580
biokurs19-04	2	39	3_6	3	1	1.161	1	2873	2509	cf	u.wav	343481	344642	348023
biokurs19-04	2	40	2_4	4	2	1.473	1	2872	1823	bd	o.wav	352920	354393	356777
biokurs19-04	3	1	5_8	5	1	0.904	1	3569	2304	EH	p_cut.wav	8642	9546	12963
biokurs19-04	3	2	7_4	4	1	1.195	0	3015	1346	GD	k_click_cut.wav	18005	19200	21392
biokurs19-04	3	3	2_8	2	1	1.576	1	3282	1211	BH	b_sh_cut.wav	26706	28282	29951
biokurs19-04	3	4	8_1	1	1	1.202	0	2097	1861	HA	k_asp_cut.wav	34090	35292	37996
biokurs19-04	3	5	2_6	2	2	1.184	0	2874	2704	BF	b_sh_cut.wav	42885	44069	47604
biokurs19-04	3	6	3_5	5	2	1.166	1	2873	2168	CE	p_cut.wav	52502	53668	56703
biokurs19-04	3	7	6_4	4	2	1.682	1	2398	1869	FD	k_click_cut.wav	61130	62812	65009
biokurs19-04	3	8	3_1	1	2	1.736	1	2274	1968	CA	k_asp_cut.wav	69308	71044	73321
biokurs19-04	3	9	7_3	3	1	1.09	0	2301	2140	GC	g_sl_cut.wav	77655	78745	81813
biokurs19-04	3	10	2_3	2	1	1.283	1	2698	1426	BC	b_sh_cut.wav	86532	87815	89988
biokurs19-04	3	11	3_4	4	2	1.469	1	3374	2260	CD	k_click_cut.wav	95386	96855	99676
biokurs19-04	3	12	3_8	3	2	1.491	0	3332	2509	CH	g_sl_cut.wav	105033	106524	109561
biokurs19-04	3	13	7_1	1	2	1.753	1	3221	1823	GA	k_asp_cut.wav	114806	116559	118652
biokurs19-04	3	14	5_1	5	1	0.952	1	2863	2358	EA	p_cut.wav	123533	124485	127916
biokurs19-04	3	15	2_7	2	1	1.622	1	2548	1584	BG	b_sh_cut.wav	132480	134102	136085
biokurs19-04	3	16	1_7	1	2	1.56	0	2760	2253	AG	k_asp_cut.wav	140870	142430	145145
biokurs19-04	3	17	3_1	3	2	1.184	0	3929	1989	CA	g_sl_cut.wav	151088	152272	155103
biokurs19-04	3	18	5_6	5	1	1.458	1	3050	1857	EF	p_cut.wav	160165	161623	164056
biokurs19-04	3	19	4_7	4	1	1.561	1	2990	1588	DG	k_click_cut.wav	169065	170626	172676
biokurs19-04	3	20	3_2	2	2	1.234	1	2685	1626	CB	b_sh_cut.wav	177382	178616	181034
biokurs19-04	3	21	4_8	4	1	1.079	1	3440	1982	DH	k_click_cut.wav	186493	187572	190492
biokurs19-04	3	23	4_5	5	1	1.003	0	3162	1333	DE	p_cut.wav	203620	204623	206963
biokurs19-04	3	24	5_1	1	2	1.366	1	3057	1600	EA	k_asp_cut.wav	212048	213414	215693
biokurs19-04	3	25	5_3	3	1	0.931	0	2286	2675	EC	g_sl_cut.wav	220006	220937	224697
biokurs19-04	3	26	2_1	2	1	1.533	1	2872	1124	BA	b_sh_cut.wav	229588	231121	232728
biokurs19-04	3	27	1_4	1	2	0.846	0	3271	2258	AD	k_asp_cut.wav	238022	238868	242307
biokurs19-04	3	28	8_3	3	1	1.448	0	2516	2549	HC	g_sl_cut.wav	246850	248298	251415
biokurs19-04	3	29	6_5	5	1	0.914	0	3043	1733	FE	p_cut.wav	256479	257393	260235
biokurs19-04	3	30	1_4	4	1	1.34	0	3788	1642	AD	k_click_cut.wav	266042	267382	269709
biokurs19-04	3	31	8_5	5	2	1.356	1	4089	1850	HE	p_cut.wav	275818	277174	279712
biokurs19-04	3	32	3_2	3	2	1.178	0	2192	2175	CB	g_sl_cut.wav	283930	285108	288126
biokurs19-04	3	33	2_4	4	2	1.04	1	2608	998	BD	k_click_cut.wav	292755	293795	295767
biokurs19-04	3	34	7_2	2	2	1.214	1	3082	1421	GB	b_sh_cut.wav	300874	302088	304315
biokurs19-04	3	35	4_3	4	1	1.298	1	3052	2482	DC	k_click_cut.wav	309377	310675	313874
biokurs19-04	3	36	1_2	2	1	1.351	0	1752	2350	AB	b_sh_cut.wav	317642	318993	322008
biokurs19-04	3	37	3_6	3	2	1.424	0	2443	2563	CF	g_sl_cut.wav	326475	327899	331057
biokurs19-04	3	38	5_3	5	1	0.942	1	2316	1510	EC	p_cut.wav	335397	336339	338929
biokurs19-04	3	39	3_5	3	2	0.935	0	2720	1933	CE	g_sl_cut.wav	343677	344612	347654
biokurs19-04	3	40	1_3	1	1	1.208	1	3164	2011	AC	k_asp_cut.wav	352832	354040	356870
biokurs19-05	1	1	1_3	1	1	1.186	1	2097	2675	02	d_sh_retr_cut.wav	7146	8332	11835
biokurs19-05	1	2	7_3	3	1	0.944	0	3929	2704	62	t_sl_cut.wav	17783	18727	22513
biokurs19-05	1	3	4_2	2	2	1.217	1	2398	2253	31	s_dent_cut.wav	26937	28154	31200
biokurs19-05	1	4	3_8	3	1	1.222	1	2316	1869	27	t_sl_cut.wav	35530	36752	39421
biokurs19-05	1	5	5_7	5	1	1.248	1	3043	1600	46	s_palat_cut.wav	44489	45737	48130
biokurs19-05	1	6	6_2	2	2	1.203	1	2760	1861	51	s_dent_cut.wav	52917	54120	56817
biokurs19-05	1	7	2_4	4	2	1.435	1	2872	2509	13	s_alv_cut.wav	61704	63139	66248
biokurs19-05	1	8	2_6	2	1	1.148	1	2873	1933	15	s_dent_cut.wav	71146	72294	75112
biokurs19-05	1	9	6_1	1	1	1.461	0	3050	1642	50	d_sh_retr_cut.wav	80176	81637	83834
biokurs19-05	1	10	5_8	5	2	1.772	0	2286	2549	47	s_palat_cut.wav	88141	89913	92724
biokurs19-05	1	11	6_4	4	2	1.227	1	1752	2258	53	s_alv_cut.wav	96496	97723	100770
biokurs19-05	1	12	2_7	2	1	0.827	1	3221	1588	16	s_dent_cut.wav	106018	106845	109647
biokurs19-05	1	13	8_3	3	1	1.29	0	2874	1346	72	t_sl_cut.wav	114543	115833	117903
biokurs19-05	1	14	1_7	1	1	1.565	1	3374	1982	06	d_sh_retr_cut.wav	123292	124857	127286
biokurs19-05	1	15	4_8	4	1	1.565	1	3162	1421	37	s_alv_cut.wav	132466	134031	135898
biokurs19-05	1	16	3_7	3	2	1.253	0	3788	1850	26	t_sl_cut.wav	141697	142950	145572
biokurs19-05	1	17	1_2	2	2	1.017	1	2685	1510	01	s_dent_cut.wav	150283	151300	153836
biokurs19-05	1	18	8_1	1	2	0.999	1	3015	2175	70	d_sh_retr_cut.wav	158880	159879	163070
biokurs19-05	1	19	5_3	5	1	1.56	1	2698	1333	42	s_palat_cut.wav	167789	169349	171135
biokurs19-05	1	20	5_4	4	2	0.824	1	2516	1857	43	s_alv_cut.wav	175679	176503	179552
biokurs19-05	1	21	4_1	1	2	0.984	1	3569	1968	30	d_sh_retr_cut.wav	185141	186125	189139
biokurs19-05	1	22	2_3	2	2	1.02	0	3282	2260	12	s_dent_cut.wav	194436	195456	198711
biokurs19-05	1	23	3_4	3	1	1.374	1	3332	1584	23	t_sl_cut.wav	204068	205442	207671
biokurs19-05	1	24	6_5	5	1	1.663	0	3057	1426	54	s_palat_cut.wav	212753	214416	216206
biokurs19-05	1	25	8_4	4	2	1.128	1	3052	2482	73	s_alv_cut.wav	221282	222410	225778
biokurs19-05	1	26	3_2	3	1	1.729	1	4089	2140	21	t_sl_cut.wav	231883	233612	236049
biokurs19-05	1	27	4_5	5	2	1.848	1	3271	2016	34	s_palat_cut.wav	241341	243189	245383
biokurs19-05	1	28	7_1	1	2	0.922	1	2192	998	60	d_sh_retr_cut.wav	249595	250517	252614
biokurs19-05	1	29	2_8	2	1	1.135	1	2720	2011	17	s_dent_cut.wav	257359	258494	261414
biokurs19-05	1	30	4_6	4	1	1.102	1	1892	2358	35	s_alv_cut.wav	265331	266433	269726
biokurs19-05	1	31	3_2	2	2	1.103	1	3164	1823	21	s_dent_cut.wav	274905	276008	278773
biokurs19-05	1	32	1_4	1	1	1.003	1	2990	2350	03	d_sh_retr_cut.wav	283780	284783	288153
biokurs19-05	1	33	1_5	5	2	1.254	1	2443	2168	04	s_palat_cut.wav	292620	293874	296807
biokurs19-05	1	34	3_4	4	2	0.892	1	2548	1733	23	s_alv_cut.wav	301383	302275	305154
biokurs19-05	1	35	5_2	5	1	0.867	1	3082	1211	41	s_palat_cut.wav	310255	311122	313486
biokurs19-05	1	36	1_3	3	1	1.172	0	3440	1989	02	t_sl_cut.wav	318951	320123	322957
biokurs19-05	1	37	8_5	5	2	1.179	1	2301	2304	74	s_palat_cut.wav	327270	328449	331592
biokurs19-05	1	38	1_4	4	2	1.09	1	2608	1124	03	s_alv_cut.wav	336217	337307	339355
biokurs19-05	1	39	3_1	1	2	0.939	1	2274	2563	20	d_sh_retr_cut.wav	343652	344591	348242
biokurs19-05	1	40	3_1	3	1	1.231	1	2863	1626	20	t_sl_cut.wav	353130	354361	356781
biokurs19-05	2	1	8_3	3	1	1.084	0	2192	1588	hc	a_uml.wav	7248	8332	10879
biokurs19-05	2	2	1_2	2	2	1.087	1	3162	2350	ab	i.wav	16055	17142	20423
biokurs19-05	2	3	7_1	1	1	1.287	0	2443	2175	ga	o.wav	24890	26177	29084
biokurs19-05	2	4	4_5	5	2	1.267	1	3282	2509	de	a_low.wav	34387	35654	38929
biokurs19-05	2	5	3_2	2	2	1.526	1	3082	2140	cb	i.wav	44036	45562	48196
biokurs19-05	2	6	1_6	1	1	1.374	1	2608	2704	af	o.wav	52825	54199	57542
biokurs19-05	2	7	4_3	4	1	1.558	1	2548	2675	dc	u.wav	62116	63674	66811
biokurs19-05	2	8	7_2	2	2	0.96	1	2286	2016	gb	i.wav	71116	72076	75166
biokurs19-05	2	9	5_8	5	1	1.702	1	2990	1733	eh	a_low.wav	80176	81878	83932
biokurs19-05	2	10	6_3	3	2	1.063	1	3043	1869	fc	a_uml.wav	88993	90056	92885
biokurs19-05	2	11	6_2	2	2	0.786	1	2516	1584	fb	i.wav	97426	98212	101027
biokurs19-05	2	12	3_5	3	1	1.374	1	3050	1857	ce	a_uml.wav	106103	107477	109976
biokurs19-05	2	13	1_8	1	1	1.314	1	1892	2260	ah	o.wav	113887	115201	118166
biokurs19-05	2	14	3_4	3	1	0.893	1	4089	1933	cd	a_uml.wav	124280	125173	128239
biokurs19-05	2	15	4_6	4	2	1.626	0	2698	1823	df	u.wav	132951	134577	136787
biokurs19-05	2	16	4_2	2	2	0.865	1	3929	2253	db	i.wav	142733	143598	147012
biokurs19-05	2	17	5_4	4	1	1.417	0	2685	2258	ed	u.wav	151711	153128	155995
biokurs19-05	2	18	2_5	5	2	1.168	1	1752	1850	be	a_low.wav	159774	160942	163641
biokurs19-05	2	19	5_3	3	1	1.179	0	2301	2563	ec	a_uml.wav	167968	169147	172549
biokurs19-05	2	20	3_5	5	1	1.668	0	3052	1982	ce	a_low.wav	177625	179293	181622
biokurs19-05	2	21	6_1	1	2	1.02	1	2097	1333	fa	o.wav	185737	186757	189115
biokurs19-05	2	22	4_7	4	1	1.48	1	3271	1510	dg	u.wav	194414	195894	197968
biokurs19-05	2	23	3_8	3	1	1.178	1	3332	1211	ch	a_uml.wav	203328	204506	206558
biokurs19-05	2	24	1_5	1	1	0.878	1	2873	2168	ae	o.wav	211456	212334	215639
biokurs19-05	2	25	2_3	2	1	0.77	1	2398	1124	bc	i.wav	220065	220835	223200
biokurs19-05	2	26	5_2	5	1	1.208	1	3057	1861	eb	a_low.wav	228280	229488	232168
biokurs19-05	2	27	8_2	2	2	0.636	1	3015	1421	hb	i.wav	237198	237834	240635
biokurs19-05	2	28	3_1	1	2	0.841	1	3569	2304	ca	o.wav	246214	247055	250549
biokurs19-05	2	29	6_5	5	2	1.461	1	2863	1626	fe	a_low.wav	255428	256889	259098
biokurs19-05	2	30	1_3	1	1	0.741	1	2872	2482	ac	o.wav	263989	264730	268487
biokurs19-05	2	31	4_2	4	1	1.162	1	3440	1642	db	u.wav	273943	275105	277603
biokurs19-05	2	32	5_7	5	1	1.526	1	3164	2358	eg	a_low.wav	282787	284313	287172
biokurs19-05	2	33	6_4	4	2	1.685	1	3221	1989	fd	u.wav	292409	294094	296439
biokurs19-05	2	34	2_8	2	1	0.816	1	3788	2011	bh	i.wav	302238	303054	306274
biokurs19-05	2	35	8_4	4	2	1.039	1	2274	1346	hd	u.wav	310573	311612	313947
biokurs19-05	2	36	5_6	5	1	0.915	1	2760	1600	ef	a_low.wav	318722	319637	322361
biokurs19-05	2	37	1_3	3	2	1.061	1	2316	1968	ac	a_uml.wav	326704	327765	330694
biokurs19-05	2	38	1_2	1	1	0.961	1	2720	1426	ab	o.wav	335428	336389	338881
biokurs19-05	2	39	3_6	3	1	0.869	1	3374	998	cf	a_uml.wav	344278	345147	347288
biokurs19-05	2	40	2_4	4	2	1.124	1	2874	2549	bd	u.wav	352187	353311	356751
biokurs19-05	3	1	5_8	5	1	0.904	1	3374	2011	EH	p_cut.wav	8421	9325	12451
biokurs19-05	3	2	7_4	4	1	1.187	0	4089	2304	GD	b_sh_cut.wav	18565	19752	22895
biokurs19-05	3	3	2_8	2	1	0.902	1	3050	998	BH	g_sl_cut.wav	27961	28863	30976
biokurs19-05	3	4	8_1	1	2	1.168	1	3332	1124	HA	k_click_cut.wav	36332	37500	39475
biokurs19-05	3	5	2_6	2	1	1.099	1	2874	1584	BF	g_sl_cut.wav	44372	45471	47971
biokurs19-05	3	6	3_5	5	1	0.962	0	3929	2482	CE	p_cut.wav	53925	54887	58433
biokurs19-05	3	7	6_4	4	1	1.176	0	2872	2175	FD	b_sh_cut.wav	63322	64498	67513
biokurs19-05	3	8	3_1	1	2	0.953	1	2398	2358	CA	k_click_cut.wav	71932	72885	76301
biokurs19-05	3	9	7_3	3	1	1.633	0	2316	1857	GC	k_asp_cut.wav	80632	82265	84511
biokurs19-05	3	10	2_3	2	1	0.762	1	1892	1421	BC	g_sl_cut.wav	88422	89184	91862
biokurs19-05	3	11	3_4	4	2	1.21	1	2301	1850	CD	b_sh_cut.wav	96173	97383	100059
biokurs19-05	3	12	3_8	3	1	1.457	1	3015	2016	CH	k_asp_cut.wav	105101	106558	109132
biokurs19-05	3	13	7_1	1	2	0.78	1	2097	2140	GA	k_click_cut.wav	113249	114029	117434
biokurs19-05	3	14	5_1	5	1	1.27	1	2608	2563	EA	p_cut.wav	122063	123333	126639
biokurs19-05	3	15	2_7	2	1	0.978	1	2685	1426	BG	g_sl_cut.wav	131349	132327	134800
biokurs19-05	3	16	1_7	1	1	0.995	1	2720	2168	AG	k_click_cut.wav	139544	140539	143756
biokurs19-05	3	17	3_1	3	1	1.05	1	2863	1982	CA	k_asp_cut.wav	148647	149697	152654
biokurs19-05	3	18	5_6	5	1	1.184	1	3057	1861	EF	p_cut.wav	157730	158914	161618
biokurs19-05	3	19	4_7	4	1	1.244	1	3569	1510	DG	b_sh_cut.wav	167202	168446	170725
biokurs19-05	3	20	3_2	2	1	1.596	0	2548	2258	CB	g_sl_cut.wav	175301	176897	179579
biokurs19-05	3	21	4_8	4	1	1.012	1	3282	2704	DH	b_sh_cut.wav	184888	185900	189626
biokurs19-05	3	22	1_6	1	1	1.068	1	3052	1733	AF	k_click_cut.wav	194703	195771	198468
biokurs19-05	3	23	4_5	5	1	1	0	2760	1989	DE	p_cut.wav	203247	204247	207257
biokurs19-05	3	24	5_1	1	2	1.125	1	2698	2260	EA	k_click_cut.wav	211967	213092	216257
biokurs19-05	3	25	5_3	3	2	1.311	1	2990	1600	EC	k_asp_cut.wav	221272	222583	224895
biokurs19-05	3	26	2_1	2	1	0.995	1	3043	1333	BA	g_sl_cut.wav	229965	230960	233322
biokurs19-05	3	27	1_4	1	1	0.833	1	3440	1933	AD	k_click_cut.wav	238789	239622	242740
biokurs19-05	3	28	8_3	3	2	1.118	1	1752	1869	HC	k_asp_cut.wav	246506	247624	250391
biokurs19-05	3	29	6_5	5	1	1.386	0	2443	1968	FE	p_cut.wav	254859	256245	258846
biokurs19-05	3	30	1_4	4	2	1.258	1	2516	2675	AD	b_sh_cut.wav	263377	264635	268069
biokurs19-05	3	31	8_5	5	2	0.957	1	2286	1642	HE	p_cut.wav	272373	273330	276031
biokurs19-05	3	32	3_2	3	1	1.39	1	3788	2509	CB	k_asp_cut.wav	281840	283230	286374
biokurs19-05	3	33	2_4	4	2	0.95	1	2192	1211	BD	b_sh_cut.wav	290591	291541	293840
biokurs19-05	3	34	7_2	2	2	1.022	1	3082	1588	GB	g_sl_cut.wav	298947	299969	302573
biokurs19-05	3	35	4_3	4	1	0.98	1	3162	2549	DC	b_sh_cut.wav	307756	308736	312316
biokurs19-05	3	36	1_2	2	2	1.093	1	3221	1346	AB	g_sl_cut.wav	317558	318651	320927
biokurs19-05	3	37	3_6	3	1	1.319	1	3271	2350	CF	k_asp_cut.wav	326212	327531	330606
biokurs19-05	3	38	5_3	5	1	1.116	1	3164	1626	EC	p_cut.wav	335794	336910	339447
biokurs19-05	3	39	3_5	3	1	1.056	1	2274	1823	CE	k_asp_cut.wav	343740	344796	347591
biokurs19-05	3	40	1_3	1	1	0.722	1	2873	2253	AC	k_click_cut.wav	352481	353203	356750
biokurs19-06	1	1	1_3	1	1	1.082	1	2873	1510	02	s_palat_cut.wav	7935	9017	11482
biokurs19-06	1	2	7_3	3	2	1.208	1	2874	2350	62	d_sh_retr_cut.wav	16376	17584	20749
biokurs19-06	1	3	4_2	2	1	1.312	0	2398	1600	31	s_dent_cut.wav	25171	26483	28781
biokurs19-06	1	4	3_8	3	1	1.737	1	1752	1850	27	d_sh_retr_cut.wav	32561	34298	36427
biokurs19-06	1	5	5_7	5	1	1.778	1	2097	1421	46	s_alv_cut.wav	40551	42329	43998
biokurs19-06	1	6	6_2	2	2	1.954	1	2685	2253	51	s_dent_cut.wav	48694	50648	52990
biokurs19-06	1	7	2_4	4	1	1.761	0	2286	2304	13	t_sl_cut.wav	57290	59051	61628
biokurs19-06	1	8	2_6	2	1	1.179	1	2872	2168	15	s_dent_cut.wav	66516	67695	70701
biokurs19-06	1	9	6_1	1	2	1.654	1	3221	2563	50	s_palat_cut.wav	75950	77604	80536
biokurs19-06	1	11	6_4	4	1	1.2	0	3015	2482	53	t_sl_cut.wav	94340	95540	98837
biokurs19-06	1	12	2_7	2	1	1.322	1	2698	1861	16	s_dent_cut.wav	103552	104874	107443
biokurs19-06	1	13	8_3	3	2	1.567	1	3929	998	72	d_sh_retr_cut.wav	113387	114954	116411
biokurs19-06	1	14	1_7	1	2	1.601	0	3162	1869	06	s_palat_cut.wav	121598	123199	125496
biokurs19-06	1	15	4_8	4	1	1.204	1	2192	2704	37	t_sl_cut.wav	129713	130917	134438
biokurs19-06	1	16	3_7	3	1	1.268	1	3374	1588	26	d_sh_retr_cut.wav	139837	141105	143437
biokurs19-06	1	17	1_2	2	2	1.264	1	2720	1124	01	s_dent_cut.wav	148179	149443	151329
biokurs19-06	1	18	8_1	1	1	1.25	0	2990	2549	70	s_palat_cut.wav	156342	157592	160914
biokurs19-06	1	19	5_3	5	2	1.166	0	1892	2258	42	s_alv_cut.wav	164826	165992	169103
biokurs19-06	1	20	5_4	4	1	1.197	0	2863	1857	43	t_sl_cut.wav	173993	175190	177876
biokurs19-06	1	21	4_1	1	1	1.716	0	2301	2140	30	s_palat_cut.wav	182196	183912	186354
biokurs19-06	1	22	2_3	2	2	1.061	0	4089	1333	12	s_dent_cut.wav	192464	193525	195823
biokurs19-06	1	23	3_4	3	2	1.229	0	2760	1982	23	d_sh_retr_cut.wav	200610	201839	204614
biokurs19-06	1	24	6_5	5	1	1.473	0	2548	2358	54	s_alv_cut.wav	209181	210654	213559
biokurs19-06	1	25	8_4	4	2	1.442	1	3057	2011	73	t_sl_cut.wav	218632	220074	222688
biokurs19-06	1	26	3_2	3	1	1.288	1	2608	2509	21	d_sh_retr_cut.wav	227321	228609	231844
biokurs19-06	1	27	4_5	5	1	1.356	0	3569	1733	34	s_alv_cut.wav	237437	238793	241201
biokurs19-06	1	28	7_1	1	2	1.52	1	3282	2675	60	s_palat_cut.wav	246502	248022	251192
biokurs19-06	1	29	2_8	2	1	1.28	1	3050	1933	17	s_dent_cut.wav	256261	257541	260210
biokurs19-06	1	30	4_6	4	1	1.368	1	2516	2175	35	t_sl_cut.wav	264740	266108	268932
biokurs19-06	1	31	3_2	2	1	0.909	0	3332	2016	21	s_dent_cut.wav	274285	275194	278320
biokurs19-06	1	32	1_4	1	2	1.33	0	3271	1211	03	s_palat_cut.wav	283611	284941	286848
biokurs19-06	1	33	1_5	5	1	1.541	0	2316	1968	04	s_alv_cut.wav	291190	292731	295179
biokurs19-06	1	34	3_4	4	2	1.386	1	3052	1584	23	t_sl_cut.wav	300246	301632	303844
biokurs19-06	1	35	5_2	5	1	1.643	1	2443	1626	41	s_alv_cut.wav	308312	309955	311957
biokurs19-06	1	36	1_3	3	1	1.53	0	2274	1426	02	d_sh_retr_cut.wav	316250	317780	319722
biokurs19-06	1	37	8_5	5	2	1.398	1	3043	2260	74	s_alv_cut.wav	324788	326186	329071
biokurs19-06	1	38	1_4	4	2	1.176	1	3440	1823	03	t_sl_cut.wav	334536	335712	338377
biokurs19-06	1	39	3_1	1	2	1.569	1	3164	1989	20	s_palat_cut.wav	343558	345127	347574
biokurs19-06	1	40	3_1	3	1	1.231	1	3788	1346	20	d_sh_retr_cut.wav	353373	354604	356744
biokurs19-06	2	1	8_3	3	1	1.636	0	2316	2549	hc	u.wav	7376	9012	11954
biokurs19-06	2	2	1_2	2	1	0.994	0	3052	2482	ab	a_uml.wav	17027	18021	21541
biokurs19-06	2	3	7_1	1	2	1.238	1	2192	2509	ga	o.wav	25749	26987	30279
biokurs19-06	2	4	4_5	5	2	1.086	1	3569	1989	de	i.wav	35873	36959	39875
biokurs19-06	2	5	3_2	2	2	1.468	1	2286	1426	cb	a_uml.wav	44172	45640	47614
biokurs19-06	2	6	1_6	1	1	1.145	1	2274	1124	af	o.wav	51912	53057	55063
biokurs19-06	2	7	4_3	4	1	1.385	1	1752	2563	dc	a_low.wav	58838	60223	63418
biokurs19-06	2	8	7_2	2	2	1.355	1	2720	1861	gb	a_uml.wav	68162	69517	72067
biokurs19-06	2	9	5_8	5	2	0.952	0	3788	1982	eh	i.wav	77870	78822	81877
biokurs19-06	2	10	6_3	3	2	1.892	1	2698	2258	fc	u.wav	86594	88486	90864
biokurs19-06	2	11	6_2	2	2	0.814	1	2685	2704	fb	a_uml.wav	95576	96390	100306
biokurs19-06	2	12	3_5	3	2	1.49	0	2863	2140	ce	u.wav	105194	106684	109377
biokurs19-06	2	13	1_8	1	2	1.582	0	2097	1584	ah	o.wav	113495	115077	117106
biokurs19-06	2	14	3_4	3	1	1.481	1	2990	1933	cd	u.wav	122121	123602	126077
biokurs19-06	2	15	4_6	4	2	1.903	0	3164	1211	df	a_low.wav	131256	133159	134511
biokurs19-06	2	16	4_2	2	2	0.961	1	3282	2168	db	a_uml.wav	139818	140779	144001
biokurs19-06	2	17	5_4	4	2	1.59	1	3271	1823	ed	a_low.wav	149301	150891	153150
biokurs19-06	2	18	2_5	5	2	0.947	1	3374	2175	be	i.wav	158541	159488	162729
biokurs19-06	2	19	5_3	3	2	1.429	1	3043	1333	ec	u.wav	167793	169222	171167
biokurs19-06	2	20	3_5	5	2	0.971	1	2301	1642	ce	i.wav	175495	176466	179174
biokurs19-06	2	21	6_1	1	2	1.41	1	2760	2304	fa	o.wav	183954	185364	188298
biokurs19-06	2	22	4_7	4	1	1.696	1	4089	2675	dg	a_low.wav	194403	196099	199105
biokurs19-06	2	24	1_5	1	1	1.426	1	2443	2350	ae	o.wav	212509	213935	216895
biokurs19-06	2	25	2_3	2	1	0.88	1	1892	1346	bc	a_uml.wav	220811	221691	224176
biokurs19-06	2	26	5_2	5	1	1.371	1	3057	1869	eb	i.wav	229247	230618	233143
biokurs19-06	2	27	8_2	2	2	0.777	1	3332	2358	hb	a_uml.wav	238500	239277	242877
biokurs19-06	2	28	3_1	1	2	1.059	1	2874	1968	ca	o.wav	247767	248826	251767
biokurs19-06	2	29	6_5	5	2	1.165	1	3015	2016	fe	i.wav	256797	257962	260828
biokurs19-06	2	30	1_3	1	1	0.9	1	3929	1733	ac	o.wav	266777	267677	270537
biokurs19-06	2	31	4_2	4	2	0.739	0	2548	1600	db	a_low.wav	275103	275842	278724
biokurs19-06	2	32	5_7	5	1	0.822	1	3221	1588	eg	i.wav	283972	284794	287583
biokurs19-06	2	33	6_4	4	2	1.327	1	2516	998	fd	a_low.wav	292120	293447	295135
biokurs19-06	2	34	2_8	2	1	1.126	1	2873	2253	bh	a_uml.wav	300033	301159	304319
biokurs19-06	2	35	8_4	4	2	1.064	1	2872	1421	hd	a_low.wav	309205	310269	312661
biokurs19-06	2	36	5_6	5	1	1.021	1	2608	1510	ef	i.wav	317280	318301	320821
biokurs19-06	2	37	1_3	3	1	1.743	0	2398	1626	ac	u.wav	325247	326990	328901
biokurs19-06	2	38	1_2	1	1	0.983	1	3162	2011	ab	o.wav	334082	335065	338104
biokurs19-06	2	39	3_6	3	1	1.184	1	3082	2260	cf	u.wav	343211	344395	347491
biokurs19-06	2	40	2_4	4	1	0.875	0	3440	1850	bd	a_low.wav	352956	353831	356823
biokurs19-06	3	1	5_8	5	2	1.673	0	2873	1584	EH	k_click_cut.wav	7919	9592	11526
biokurs19-06	3	2	7_4	4	2	1.377	1	3282	2011	GD	b_sh_cut.wav	16825	18202	20860
biokurs19-06	3	3	2_8	2	1	1.083	1	3569	2358	BH	k_asp_cut.wav	26454	27537	30842
biokurs19-06	3	4	8_1	1	1	1.1	0	2872	2304	HA	p_cut.wav	35730	36830	40051
biokurs19-06	3	5	2_6	2	1	1.346	1	3050	1346	BF	k_asp_cut.wav	45117	46463	48479
biokurs19-06	3	6	3_5	5	1	1.328	0	2443	1510	CE	k_click_cut.wav	52937	54265	56466
biokurs19-06	3	7	6_4	4	2	1.29	1	3043	2140	FD	b_sh_cut.wav	61537	62827	65700
biokurs19-06	3	8	3_1	1	1	1.254	0	2548	1968	CA	p_cut.wav	70269	71523	74257
biokurs19-06	3	9	7_3	3	1	1.192	0	2286	2482	GC	g_sl_cut.wav	78558	79750	83056
biokurs19-06	3	10	2_3	2	1	1.303	1	3057	1857	BC	k_asp_cut.wav	88129	89432	92031
biokurs19-06	3	11	3_4	4	2	1.096	1	3015	1426	CD	b_sh_cut.wav	97065	98161	100524
biokurs19-06	3	12	3_8	3	2	1.338	0	3162	1124	CH	g_sl_cut.wav	105710	107048	108862
biokurs19-06	3	13	7_1	1	1	1.276	0	3271	2704	GA	p_cut.wav	114157	115433	118887
biokurs19-06	3	14	5_1	5	1	1.474	1	2760	1600	EA	k_click_cut.wav	123672	125146	127294
biokurs19-06	3	15	2_7	2	1	0.862	1	2720	1869	BG	k_asp_cut.wav	132041	132903	135954
biokurs19-06	3	16	1_7	1	2	1.163	0	3788	2253	AG	p_cut.wav	141767	142930	146045
biokurs19-06	3	17	3_1	3	1	1.88	1	2685	1850	CA	g_sl_cut.wav	150744	152624	154638
biokurs19-06	3	18	5_6	5	2	1.475	0	3082	2260	EF	k_click_cut.wav	159746	161221	164026
biokurs19-06	3	19	4_7	4	1	1.075	1	2097	1211	DG	b_sh_cut.wav	168148	169223	171386
biokurs19-06	3	20	3_2	2	2	1.236	1	2274	1733	CB	k_asp_cut.wav	175685	176921	179445
biokurs19-06	3	21	4_8	4	1	0.702	1	2990	1588	DH	b_sh_cut.wav	184455	185157	188065
biokurs19-06	3	22	1_6	1	2	1.01	0	3164	1982	AF	p_cut.wav	193250	194260	197277
biokurs19-06	3	23	4_5	5	2	1.41	1	3440	1642	DE	k_click_cut.wav	202735	204145	206395
biokurs19-06	3	24	5_1	1	1	1.079	0	2192	1626	EA	p_cut.wav	210608	211687	214254
biokurs19-06	3	25	5_3	3	2	1.41	1	1752	2509	EC	g_sl_cut.wav	218025	219435	222569
biokurs19-06	3	26	2_1	2	1	0.884	1	1892	2258	BA	k_asp_cut.wav	226485	227369	230762
biokurs19-06	3	27	1_4	1	1	1.152	1	2863	998	AD	p_cut.wav	235652	236804	238676
biokurs19-06	3	28	8_3	3	2	0.938	1	2301	1933	HC	g_sl_cut.wav	243001	243939	246971
biokurs19-06	3	29	6_5	5	1	1.329	0	2316	2563	FE	k_click_cut.wav	251301	252630	255885
biokurs19-06	3	30	1_4	4	2	0.942	1	2398	2549	AD	b_sh_cut.wav	260307	261249	264867
biokurs19-06	3	31	8_5	5	2	1.415	1	3221	2350	HE	k_click_cut.wav	270108	271523	274499
biokurs19-06	3	32	3_2	3	1	1.148	1	3929	1421	CB	g_sl_cut.wav	280452	281600	283899
biokurs19-06	3	33	2_4	4	2	1.057	1	2698	1861	BD	b_sh_cut.wav	288608	289665	292481
biokurs19-06	3	34	7_2	2	1	1.045	0	3052	2016	GB	k_asp_cut.wav	297548	298593	301579
biokurs19-06	3	35	4_3	4	1	0.824	1	2516	2675	DC	b_sh_cut.wav	306115	306939	310807
biokurs19-06	3	36	1_2	2	1	1.289	0	4089	1823	AB	k_asp_cut.wav	316914	318203	320764
biokurs19-06	3	37	3_6	3	1	1.397	1	3374	2175	CF	g_sl_cut.wav	326155	327552	330342
biokurs19-06	3	38	5_3	5	1	1.082	1	2874	1333	EC	k_click_cut.wav	335237	336319	338585
biokurs19-06	3	39	3_5	3	1	0.939	1	3332	2168	CE	g_sl_cut.wav	343944	344883	348149
biokurs19-06	3	40	1_3	1	2	1.119	0	2608	1989	AC	p_cut.wav	352785	353904	356788
biokurs19-07	1	1	1_3	1	1	1.998	1	3082	2168	02	s_alv_cut.wav	8138	10136	12330
biokurs19-07	1	2	7_3	3	2	1.583	1	2443	1861	62	s_dent_cut.wav	16801	18384	20681
biokurs19-07	1	3	4_2	2	1	1.424	0	3052	1642	31	s_palat_cut.wav	25748	27172	29404
biokurs19-07	1	4	3_8	3	1	1.098	1	4089	1989	27	s_dent_cut.wav	35514	36612	39529
biokurs19-07	1	5	5_7	5	2	0.972	0	3788	2549	46	d_sh_retr_cut.wav	45329	46301	49903
biokurs19-07	1	6	6_2	2	1	1.443	0	2316	2011	51	s_palat_cut.wav	54239	55682	58289
biokurs19-07	1	7	2_4	4	2	1.177	1	1892	2675	13	t_sl_cut.wav	62206	63383	66900
biokurs19-07	1	8	2_6	2	1	1.824	1	2398	1933	15	s_palat_cut.wav	71317	73141	75260
biokurs19-07	1	9	6_1	1	1	1.425	0	2698	2140	50	s_alv_cut.wav	79972	81397	84125
biokurs19-07	1	10	5_8	5	2	1.303	0	2192	2350	47	d_sh_retr_cut.wav	88338	89641	92726
biokurs19-07	1	11	6_4	4	1	1.207	0	3271	2563	53	t_sl_cut.wav	98021	99228	102611
biokurs19-07	1	12	2_7	2	1	1.221	1	2720	2509	16	s_palat_cut.wav	107355	108576	111890
biokurs19-07	1	13	8_3	3	1	1.203	0	2873	1211	72	s_dent_cut.wav	116788	117991	120014
biokurs19-07	1	14	1_7	1	1	1.424	1	2990	1600	06	s_alv_cut.wav	125029	126453	128652
biokurs19-07	1	15	4_8	4	1	1.218	1	3221	998	37	t_sl_cut.wav	133900	135118	136921
biokurs19-07	1	16	3_7	3	1	1.004	1	2301	1869	26	s_dent_cut.wav	141247	142251	145135
biokurs19-07	1	17	1_2	2	1	1.551	0	2760	2175	01	s_palat_cut.wav	149920	151471	154116
biokurs19-07	1	18	8_1	1	1	1.03	0	3929	1968	70	s_alv_cut.wav	160066	161096	164061
biokurs19-07	1	19	5_3	5	2	1.508	0	2097	2304	42	d_sh_retr_cut.wav	168172	169680	172521
biokurs19-07	1	20	5_4	4	1	1.168	0	2863	1124	43	t_sl_cut.wav	177401	178569	180550
biokurs19-07	1	21	4_1	1	1	1.089	0	2874	2016	30	s_alv_cut.wav	185447	186536	189496
biokurs19-07	1	22	2_3	2	2	1.604	0	2608	1823	12	s_palat_cut.wav	194124	195728	197960
biokurs19-07	1	23	3_4	3	1	1.293	1	2286	1584	23	s_dent_cut.wav	202264	203557	205864
biokurs19-07	1	24	6_5	5	2	1.489	1	3162	1510	54	d_sh_retr_cut.wav	211051	212540	214590
biokurs19-07	1	25	8_4	4	2	1.519	1	2548	2482	73	t_sl_cut.wav	219166	220685	223669
biokurs19-07	1	26	3_2	3	1	0.977	1	3569	2260	21	s_dent_cut.wav	229254	230231	233527
biokurs19-07	1	27	4_5	5	2	1.135	1	2516	1333	34	d_sh_retr_cut.wav	238068	239203	241418
biokurs19-07	1	28	7_1	1	1	1.055	0	3164	2358	60	s_alv_cut.wav	246609	247664	250994
biokurs19-07	1	29	2_8	2	2	1.195	0	2274	1346	17	s_palat_cut.wav	255284	256479	258675
biokurs19-07	1	30	4_6	4	1	1.354	1	3282	1857	35	t_sl_cut.wav	263972	265326	267844
biokurs19-07	1	31	3_2	2	2	1.48	1	3332	1421	21	s_palat_cut.wav	273195	274675	276635
biokurs19-07	1	32	1_4	1	1	1.287	1	1752	2253	03	s_alv_cut.wav	280397	281684	284667
biokurs19-07	1	33	1_5	5	2	0.986	1	3015	1850	04	d_sh_retr_cut.wav	289696	290682	293580
biokurs19-07	1	34	3_4	4	1	1.319	0	3374	2258	23	t_sl_cut.wav	298980	300299	303250
biokurs19-07	1	35	5_2	5	2	1.206	0	2872	1588	41	d_sh_retr_cut.wav	308149	309355	311753
biokurs19-07	1	36	1_3	3	2	1.504	1	3057	1982	02	s_dent_cut.wav	316832	318336	320859
biokurs19-07	1	37	8_5	5	2	0.968	1	3043	1733	74	d_sh_retr_cut.wav	325920	326888	329694
biokurs19-07	1	38	1_4	4	1	1.307	0	3050	1626	03	t_sl_cut.wav	334763	336070	338405
biokurs19-07	1	39	3_1	1	2	1.098	1	2685	2704	20	s_alv_cut.wav	343109	344207	347856
biokurs19-07	1	40	3_1	3	1	1.473	1	3440	1426	20	s_dent_cut.wav	353322	354795	356783
biokurs19-07	2	1	8_3	3	1	1.241	0	3082	2509	hc	o.wav	8127	9368	12646
biokurs19-07	2	2	1_2	2	2	0.858	1	2548	1989	ab	i.wav	17219	18077	21229
biokurs19-07	2	3	7_1	1	1	1.105	0	2872	1426	ga	a_uml.wav	26112	27217	29555
biokurs19-07	2	4	4_5	5	2	1.138	1	3043	2258	de	a_low.wav	34621	35759	38902
biokurs19-07	2	5	3_2	2	2	1.163	1	3569	1346	cb	i.wav	44498	45661	47857
biokurs19-07	2	6	1_6	1	1	1.209	1	2685	2304	af	a_uml.wav	52557	53766	56904
biokurs19-07	2	7	4_3	4	1	1.599	1	3788	1857	dc	u.wav	62709	64308	66608
biokurs19-07	2	8	7_2	2	2	0.924	1	3221	1933	gb	i.wav	71848	72772	75804
biokurs19-07	2	9	5_8	5	2	1.042	0	2301	1211	eh	a_low.wav	80120	81162	83349
biokurs19-07	2	10	6_3	3	2	1.432	1	2608	2016	fc	o.wav	87982	89414	92012
biokurs19-07	2	11	6_2	2	2	0.801	1	2760	2358	fb	i.wav	96792	97593	101172
biokurs19-07	2	12	3_5	3	2	1.064	0	2274	2549	ce	o.wav	105462	106526	110039
biokurs19-07	2	13	1_8	1	1	1.272	1	1892	1626	ah	a_uml.wav	113951	115223	117596
biokurs19-07	2	14	3_4	3	2	1.6	0	2316	1510	cd	o.wav	121931	123531	125462
biokurs19-07	2	15	4_6	4	1	1.2	1	2990	1968	df	u.wav	130480	131680	134471
biokurs19-07	2	16	4_2	2	2	0.87	1	2097	2140	db	i.wav	138583	139453	142750
biokurs19-07	2	17	5_4	4	2	1.228	1	2698	2350	ed	u.wav	147468	148696	151831
biokurs19-07	2	18	2_5	5	2	1.479	1	2192	1333	be	a_low.wav	156047	157526	159401
biokurs19-07	2	19	5_3	3	2	1.445	1	2398	2260	ec	o.wav	163826	165271	168115
biokurs19-07	2	20	3_5	5	1	1.505	0	3052	1869	ce	a_low.wav	173192	174697	177075
biokurs19-07	2	21	6_1	1	2	0.946	1	2720	1124	fa	a_uml.wav	181820	182766	184970
biokurs19-07	2	22	4_7	4	1	1.32	1	3271	2482	dg	u.wav	190264	191584	194790
biokurs19-07	2	23	3_8	3	1	1.406	1	2873	1733	ch	o.wav	199680	201086	203428
biokurs19-07	2	24	1_5	1	1	0.988	1	3440	1584	ae	a_uml.wav	208887	209875	212488
biokurs19-07	2	25	2_3	2	1	0.939	1	2874	2175	bc	i.wav	217387	218326	221577
biokurs19-07	2	26	5_2	5	1	1.23	1	2443	998	eb	a_low.wav	226041	227271	229076
biokurs19-07	2	27	8_2	2	2	0.932	1	4089	2168	hb	i.wav	235189	236121	239383
biokurs19-07	2	28	3_1	1	2	0.939	1	2286	1823	ca	a_uml.wav	243698	244637	247536
biokurs19-07	2	29	6_5	5	2	1.231	1	2863	1850	fe	a_low.wav	252417	253648	256310
biokurs19-07	2	30	1_3	1	1	1.112	1	3282	2704	ac	a_uml.wav	261618	262730	266337
biokurs19-07	2	31	4_2	4	1	1.183	1	3164	2675	db	u.wav	271527	272710	276229
biokurs19-07	2	32	5_7	5	1	1.771	1	3057	2253	eg	a_low.wav	281304	283075	285584
biokurs19-07	2	33	6_4	4	1	1.192	0	3050	1421	fd	u.wav	290649	291841	294104
biokurs19-07	2	34	2_8	2	1	0.928	1	3332	1642	bh	i.wav	299446	300374	303107
biokurs19-07	2	35	8_4	4	2	1.485	1	2516	1588	hd	u.wav	307644	309129	311249
biokurs19-07	2	36	5_6	5	1	1.17	1	3929	1600	ef	a_low.wav	317199	318369	320825
biokurs19-07	2	37	1_3	3	2	1.082	1	3162	2011	ac	o.wav	326014	327096	330036
biokurs19-07	2	38	1_2	1	1	1.273	1	3015	2563	ab	a_uml.wav	335076	336349	339655
biokurs19-07	2	39	3_6	3	1	1.058	1	3374	1861	cf	o.wav	345053	346111	348944
biokurs19-07	2	40	2_4	4	2	1.049	1	1752	1982	bd	u.wav	352711	353760	356728
biokurs19-07	3	1	5_8	5	2	1.125	0	3052	2350	EH	k_asp_cut.wav	8101	9226	12491
biokurs19-07	3	2	7_4	4	1	1.106	0	2097	1600	GD	b_sh_cut.wav	16604	17710	20222
biokurs19-07	3	3	2_8	2	1	1.091	1	1892	1861	BH	p_cut.wav	24141	25232	28020
biokurs19-07	3	4	8_1	1	1	1.58	0	3221	2704	HA	g_sl_cut.wav	33256	34836	37984
biokurs19-07	3	5	2_6	2	2	1.303	0	2286	2304	BF	p_cut.wav	42295	43598	46615
biokurs19-07	3	6	3_5	5	2	1.717	1	3929	2253	CE	k_asp_cut.wav	52560	54277	56857
biokurs19-07	3	7	6_4	4	1	1.197	0	3162	1850	FD	b_sh_cut.wav	62033	63230	65894
biokurs19-07	3	8	3_1	1	2	1.153	1	2516	2358	CA	g_sl_cut.wav	70436	71589	74811
biokurs19-07	3	9	7_3	3	1	1.198	0	2548	1982	GC	k_click_cut.wav	79375	80573	83378
biokurs19-07	3	10	2_3	2	1	1.083	1	2398	1421	BC	p_cut.wav	87794	88877	91226
biokurs19-07	3	11	3_4	4	2	1.258	1	2872	2260	CD	b_sh_cut.wav	96108	97366	100385
biokurs19-07	3	12	3_8	3	2	1.384	0	2760	2011	CH	k_click_cut.wav	105170	106554	109202
biokurs19-07	3	13	7_1	1	2	1.239	1	3332	2175	GA	g_sl_cut.wav	114559	115798	118753
biokurs19-07	3	14	5_1	5	1	1.107	1	3015	2168	EA	k_asp_cut.wav	123789	124896	127973
biokurs19-07	3	15	2_7	2	1	1.038	1	2685	1426	BG	p_cut.wav	132686	133724	136138
biokurs19-07	3	16	1_7	1	2	1.457	0	3374	1584	AG	g_sl_cut.wav	141535	142992	145149
biokurs19-07	3	17	3_1	3	1	1.528	1	4089	2482	CA	k_click_cut.wav	151264	152792	155772
biokurs19-07	3	18	5_6	5	2	1.133	0	3082	2509	EF	k_asp_cut.wav	160870	162003	165399
biokurs19-07	3	19	4_7	4	2	1.073	0	3271	2549	DG	b_sh_cut.wav	170695	171768	175270
biokurs19-07	3	20	3_2	2	1	1.471	0	2990	1968	CB	p_cut.wav	180280	181751	184271
biokurs19-07	3	21	4_8	4	1	1.336	1	3788	2016	DH	b_sh_cut.wav	190074	191410	194115
biokurs19-07	3	22	1_6	1	2	1.367	0	3440	1733	AF	g_sl_cut.wav	199575	200942	203325
biokurs19-07	3	23	4_5	5	1	1.428	0	3569	1989	DE	k_asp_cut.wav	208913	210341	212915
biokurs19-07	3	24	5_1	1	2	1.536	1	3164	1510	EA	g_sl_cut.wav	218090	219626	221627
biokurs19-07	3	25	5_3	3	2	1.365	1	2874	1346	EC	k_click_cut.wav	226529	227894	229890
biokurs19-07	3	26	2_1	2	1	0.93	1	1752	1857	BA	p_cut.wav	233656	234586	237530
biokurs19-07	3	27	1_4	1	2	1.331	0	2316	1333	AD	g_sl_cut.wav	241865	243196	245219
biokurs19-07	3	28	8_3	3	1	1.477	0	3282	1933	HC	k_click_cut.wav	250529	252006	254477
biokurs19-07	3	29	6_5	5	2	1.227	1	3043	1642	FE	k_asp_cut.wav	259534	260761	263199
biokurs19-07	3	30	1_4	4	1	1.082	0	2698	1626	AD	b_sh_cut.wav	267918	269000	271557
biokurs19-07	3	31	8_5	5	2	1.025	1	2608	2258	HE	k_asp_cut.wav	276184	277209	280456
biokurs19-07	3	32	3_2	3	1	1.63	1	2443	1211	CB	k_click_cut.wav	284926	286556	288155
biokurs19-07	3	33	2_4	4	1	1.084	0	2863	1869	BD	b_sh_cut.wav	293043	294127	296956
biokurs19-07	3	34	7_2	2	2	1.611	1	2873	1823	GB	p_cut.wav	301854	303465	305692
biokurs19-07	3	35	4_3	4	1	1.279	1	2274	2140	DC	b_sh_cut.wav	309984	311263	314151
biokurs19-07	3	36	1_2	2	2	1.462	1	3050	998	AB	p_cut.wav	319222	320684	322236
biokurs19-07	3	37	3_6	3	1	1.543	1	2192	2675	CF	k_click_cut.wav	326453	327996	331167
biokurs19-07	3	38	5_3	5	1	1.894	1	2720	1124	EC	k_asp_cut.wav	335905	337799	339056
biokurs19-07	3	39	3_5	3	2	1.361	0	3057	2563	CE	k_click_cut.wav	344136	345497	348726
biokurs19-07	3	40	1_3	1	2	1.811	0	2301	1588	AC	g_sl_cut.wav	353051	354862	356658
biokurs19-08	1	1	1_3	1	1	0.843	1	3043	1733	02	s_palat_cut.wav	8100	8943	11847
biokurs19-08	1	2	7_3	3	2	0.915	1	3332	1333	62	s_dent_cut.wav	17197	18112	20549
biokurs19-08	1	3	4_2	2	1	1.29	0	1752	2258	31	s_alv_cut.wav	24329	25619	28621
biokurs19-08	1	4	3_8	3	2	1.283	0	3440	1642	27	s_dent_cut.wav	34088	35371	37747
biokurs19-08	1	5	5_7	5	1	1.046	1	3271	1850	46	t_sl_cut.wav	43039	44085	46915
biokurs19-08	1	6	6_2	2	2	1.2	1	2698	1588	51	s_alv_cut.wav	51639	52839	55240
biokurs19-08	1	7	2_4	4	2	1.336	1	2608	1989	13	d_sh_retr_cut.wav	59869	61205	63890
biokurs19-08	1	8	2_6	2	2	1.369	0	2874	2482	15	s_alv_cut.wav	68775	70144	73272
biokurs19-08	1	9	6_1	1	1	1.265	0	2872	1823	50	s_palat_cut.wav	78160	79425	82017
biokurs19-08	1	10	5_8	5	2	1.762	0	3788	1968	47	t_sl_cut.wav	87823	89585	91816
biokurs19-08	1	11	6_4	4	2	1.16	1	3221	1346	53	d_sh_retr_cut.wav	97052	98212	100421
biokurs19-08	1	12	2_7	2	1	1.184	1	2516	1426	16	s_alv_cut.wav	104951	106135	108412
biokurs19-08	1	13	8_3	3	1	1.165	0	2192	2509	72	s_dent_cut.wav	112627	113792	117157
biokurs19-08	1	14	1_7	1	2	1.495	0	2398	1857	06	s_palat_cut.wav	121580	123075	125447
biokurs19-08	1	15	4_8	4	1	0.806	1	3057	2168	37	d_sh_retr_cut.wav	130524	131330	134719
biokurs19-08	1	16	3_7	3	2	1.495	0	3282	2016	26	s_dent_cut.wav	140029	141524	144060
biokurs19-08	1	17	1_2	2	1	1.251	0	3164	2011	01	s_alv_cut.wav	149244	150495	153282
biokurs19-08	1	18	8_1	1	2	1.409	1	2990	1933	70	s_palat_cut.wav	158297	159706	162271
biokurs19-08	1	19	5_3	5	2	0.862	0	3082	2140	42	t_sl_cut.wav	167367	168229	171544
biokurs19-08	1	21	4_1	1	2	1.18	1	2097	2260	30	s_palat_cut.wav	186382	187562	190669
biokurs19-08	1	22	2_3	2	1	1.076	1	2720	1510	12	s_alv_cut.wav	195414	196490	198950
biokurs19-08	1	23	3_4	3	1	1.335	1	3929	2350	23	s_dent_cut.wav	204907	206242	209284
biokurs19-08	1	24	6_5	5	2	1.073	1	2301	1982	54	t_sl_cut.wav	213608	214681	217609
biokurs19-08	1	25	8_4	4	1	0.635	0	3015	1421	73	d_sh_retr_cut.wav	222643	223278	226079
biokurs19-08	1	26	3_2	3	2	1.621	0	2873	1861	21	s_dent_cut.wav	230963	232584	234857
biokurs19-08	1	27	4_5	5	1	1.768	0	2274	1211	34	t_sl_cut.wav	239146	240914	242385
biokurs19-08	1	28	7_1	1	2	1.061	1	2685	2304	60	s_palat_cut.wav	247095	248156	251442
biokurs19-08	1	29	2_8	2	2	1.215	0	2863	1626	17	s_alv_cut.wav	256322	257537	259973
biokurs19-08	1	30	4_6	4	1	0.764	1	2548	1124	35	d_sh_retr_cut.wav	264540	265304	267685
biokurs19-08	1	31	3_2	2	1	1.209	0	2760	1869	21	s_alv_cut.wav	272468	273677	276359
biokurs19-08	1	32	1_4	1	1	0.907	1	2316	2175	03	s_palat_cut.wav	280700	281607	284896
biokurs19-08	1	33	1_5	5	1	1.635	0	3052	1584	04	t_sl_cut.wav	289969	291604	293567
biokurs19-08	1	34	3_4	4	2	0.81	1	1892	2704	23	d_sh_retr_cut.wav	297485	298295	302207
biokurs19-08	1	35	5_2	5	2	1.098	0	3569	998	41	t_sl_cut.wav	307802	308900	310813
biokurs19-08	1	36	1_3	3	1	1.778	0	3374	2549	02	s_dent_cut.wav	316211	317989	320773
biokurs19-08	1	37	8_5	5	2	1.542	1	2286	2358	74	t_sl_cut.wav	325079	326621	329453
biokurs19-08	1	38	1_4	4	2	1.061	1	3050	2675	03	d_sh_retr_cut.wav	334519	335580	339210
biokurs19-08	1	39	3_1	1	2	1.781	1	2443	1600	20	s_palat_cut.wav	343672	345453	347291
biokurs19-08	1	40	3_1	3	1	1.016	1	3162	2253	20	s_dent_cut.wav	352480	353496	356761
biokurs19-08	2	1	8_3	3	1	0.579	0	2863	2253	hc	a_uml.wav	7920	8499	12186
biokurs19-08	2	2	1_2	2	2	1.611	1	3929	2175	ab	a_low.wav	18129	19740	22330
biokurs19-08	2	3	7_1	1	1	1.326	0	2443	2675	ga	u.wav	26794	28120	31506
biokurs19-08	2	4	4_5	5	1	1.555	0	3374	2011	de	i.wav	36899	38454	40922
biokurs19-08	2	5	3_2	2	2	1.117	1	3050	2140	cb	a_low.wav	45997	47114	50171
biokurs19-08	2	6	1_6	1	1	1.348	1	3282	1421	af	u.wav	55473	56821	58910
biokurs19-08	2	7	4_3	4	2	1.567	0	3052	1124	dc	o.wav	63972	65539	67111
biokurs19-08	2	8	7_2	2	2	1.636	1	2286	1933	gb	a_low.wav	71420	73056	75369
biokurs19-08	2	9	5_8	5	2	1.435	0	1752	2016	eh	i.wav	79135	80570	83185
biokurs19-08	2	10	6_3	3	1	1.023	0	3164	2304	fc	a_uml.wav	88369	89392	92700
biokurs19-08	2	11	6_2	2	2	1.217	1	3332	2258	fb	a_low.wav	98048	99265	102343
biokurs19-08	2	12	3_5	3	1	1.965	1	2274	1426	ce	a_uml.wav	106644	108609	110115
biokurs19-08	2	13	1_8	1	1	1.843	1	3440	1733	ah	u.wav	115579	117422	119329
biokurs19-08	2	15	4_6	4	2	0.978	0	3271	2482	df	o.wav	133703	134681	138212
biokurs19-08	2	16	4_2	2	2	0.888	1	2192	1600	db	a_low.wav	142420	143308	146041
biokurs19-08	2	17	5_4	4	2	1.081	1	2398	1626	ed	o.wav	150466	151547	154102
biokurs19-08	2	18	2_5	5	2	1.122	1	4089	2549	be	i.wav	160210	161332	164785
biokurs19-08	2	19	5_3	3	2	1.256	1	2760	2509	ec	a_uml.wav	169566	170822	174097
biokurs19-08	2	20	3_5	5	1	1.054	0	2548	1850	ce	i.wav	178670	179724	182540
biokurs19-08	2	22	4_7	4	2	1.076	0	2720	1857	dg	o.wav	195979	197055	199863
biokurs19-08	2	23	3_8	3	1	1.115	1	2316	2350	ch	a_uml.wav	204198	205313	208569
biokurs19-08	2	24	1_5	1	1	1.403	1	3569	2563	ae	u.wav	214162	215565	218738
biokurs19-08	2	25	2_3	2	1	0.816	1	2872	1333	bc	a_low.wav	223634	224450	226983
biokurs19-08	2	26	5_2	5	1	1.3	1	3043	1823	eb	i.wav	232054	233354	235918
biokurs19-08	2	27	8_2	2	2	1.786	1	3221	1211	hb	a_low.wav	241157	242943	244391
biokurs19-08	2	28	3_1	1	2	1.265	1	1892	2704	ca	u.wav	248308	249573	253030
biokurs19-08	2	29	6_5	5	2	1.891	1	2516	1510	fe	i.wav	257572	259463	261116
biokurs19-08	2	30	1_3	1	1	0.934	1	3082	1584	ac	u.wav	266227	267161	269848
biokurs19-08	2	31	4_2	4	1	1.494	1	3162	1989	db	o.wav	275036	276530	279053
biokurs19-08	2	32	5_7	5	1	1.335	1	2097	1982	eg	i.wav	283162	284497	287171
biokurs19-08	2	33	6_4	4	2	1.087	1	2873	998	fd	o.wav	292062	293149	295076
biokurs19-08	2	34	2_8	2	1	1.511	1	2698	1588	bh	a_low.wav	299799	301310	303417
biokurs19-08	2	35	8_4	4	2	0.847	1	3057	2358	hd	o.wav	308495	309342	312898
biokurs19-08	2	36	5_6	5	1	0.953	1	2301	1861	ef	i.wav	317215	318168	321095
biokurs19-08	2	37	1_3	3	2	1.417	1	2990	1968	ac	a_uml.wav	326100	327517	330091
biokurs19-08	2	38	1_2	1	2	1.123	0	2608	2260	ab	u.wav	334713	335836	338987
biokurs19-08	2	39	3_6	3	1	1.426	1	3788	1869	cf	a_uml.wav	344800	346226	348694
biokurs19-08	2	40	2_4	4	2	1.264	1	2685	1346	bd	o.wav	353404	354668	356776
biokurs19-08	3	1	5_8	5	1	1.137	1	3374	1588	EH	g_sl_cut.wav	8425	9562	12051
biokurs19-08	3	2	7_4	4	2	0.725	1	2286	2358	GD	b_sh_cut.wav	16351	17076	20750
biokurs19-08	3	3	2_8	2	1	1.014	1	2301	1421	BH	k_click_cut.wav	25067	26081	28507
biokurs19-08	3	4	8_1	1	1	1.044	0	2398	1211	HA	p_cut.wav	32915	33959	36155
biokurs19-08	3	5	2_6	2	1	1.063	1	2872	2563	BF	k_click_cut.wav	41052	42115	45631
biokurs19-08	3	6	3_5	5	2	1.003	1	2316	1933	CE	g_sl_cut.wav	49971	50974	53926
biokurs19-08	3	7	6_4	4	1	1.483	0	2097	1968	FD	b_sh_cut.wav	58037	59520	62050
biokurs19-08	3	8	3_1	1	2	1.214	1	3052	1124	CA	p_cut.wav	67116	68330	70255
biokurs19-08	3	9	7_3	3	2	1.142	1	2873	2253	GC	k_asp_cut.wav	75151	76293	79419
biokurs19-08	3	10	2_3	2	1	0.744	1	3569	1642	BC	k_click_cut.wav	85003	85747	88657
biokurs19-08	3	11	3_4	4	1	1.167	0	3282	1989	CD	b_sh_cut.wav	93960	95127	97964
biokurs19-08	3	12	3_8	3	1	1.629	1	3043	2304	CH	k_asp_cut.wav	103019	104648	107346
biokurs19-08	3	13	7_1	1	2	0.949	1	3164	2260	GA	p_cut.wav	112527	113476	116831
biokurs19-08	3	14	5_1	5	1	1.423	1	3162	2258	EA	g_sl_cut.wav	122018	123441	126287
biokurs19-08	3	15	2_7	2	1	0.78	1	2192	998	BG	k_click_cut.wav	130506	131286	133525
biokurs19-08	3	16	1_7	1	1	0.917	1	3015	1333	AG	p_cut.wav	138565	139482	141913
biokurs19-08	3	17	3_1	3	1	1.13	1	2863	2704	CA	k_asp_cut.wav	146804	147934	151533
biokurs19-08	3	18	5_6	5	1	1.727	1	3050	1861	EF	g_sl_cut.wav	156609	158336	160486
biokurs19-08	3	19	4_7	4	1	1.188	1	2548	1600	DG	b_sh_cut.wav	165049	166237	168669
biokurs19-08	3	20	3_2	2	2	1.184	1	1892	2016	CB	k_click_cut.wav	172589	173773	176641
biokurs19-08	3	21	4_8	4	1	0.83	1	2720	1426	DH	b_sh_cut.wav	181381	182211	184833
biokurs19-08	3	22	1_6	1	1	0.959	1	1752	2482	AF	p_cut.wav	188609	189568	193107
biokurs19-08	3	23	4_5	5	2	1.258	1	3788	1733	DE	g_sl_cut.wav	198912	200170	202669
biokurs19-08	3	24	5_1	1	1	1.426	0	3929	2350	EA	p_cut.wav	208617	210043	212993
biokurs19-08	3	25	5_3	3	2	1.503	1	2990	1626	EC	k_asp_cut.wav	218007	219510	221656
biokurs19-08	3	26	2_1	2	1	0.732	1	2443	1857	BA	k_click_cut.wav	226118	226850	229994
biokurs19-08	3	27	1_4	1	1	0.972	1	3332	1850	AD	p_cut.wav	235345	236317	239214
biokurs19-08	3	28	8_3	3	2	1.121	1	3440	2140	HC	k_asp_cut.wav	244680	245801	248837
biokurs19-08	3	29	6_5	5	1	1.152	0	2274	1584	FE	g_sl_cut.wav	253131	254283	256743
biokurs19-08	3	31	8_5	5	2	1.346	1	2874	2549	HE	g_sl_cut.wav	270265	271611	274828
biokurs19-08	3	32	3_2	3	1	0.776	1	4089	2675	CB	k_asp_cut.wav	280938	281714	285639
biokurs19-08	3	33	2_4	4	2	0.967	1	2516	2168	BD	b_sh_cut.wav	290174	291141	294359
biokurs19-08	3	34	7_2	2	1	0.758	0	3271	2175	GB	k_click_cut.wav	299658	300416	303859
biokurs19-08	3	35	4_3	4	2	1.408	0	3057	2011	DC	b_sh_cut.wav	308937	310345	312975
biokurs19-08	3	36	1_2	2	2	1.606	1	3221	2509	AB	k_click_cut.wav	318221	319827	322753
biokurs19-08	3	37	3_6	3	1	0.846	1	2608	1982	CF	k_asp_cut.wav	327386	328232	331382
biokurs19-08	3	38	5_3	5	1	1.317	1	2760	1823	EC	g_sl_cut.wav	336161	337478	340023
biokurs19-08	3	39	3_5	3	1	0.958	1	2685	1869	CE	k_asp_cut.wav	344726	345684	348620
biokurs19-08	3	40	1_3	1	1	1.369	1	2698	1346	AC	p_cut.wav	353343	354712	356702
